timestamp,ax,ay,az,gx,gy,gz,flex1,flex2,flex3,flex4,flex5,emg1,emg2,emg3
2025-03-20 16:11:32.901,-473.0,-42.0,876.0,-3.0,0.0,-2.0,141,77,121,107,85
2025-03-20 16:11:32.905,-480.0,-37.0,911.0,-4.0,0.0,-2.0,140,76,120,107,85
2025-03-20 16:11:32.908,-486.0,-45.0,940.0,-1.0,1.0,-2.0,140,77,122,108,85
2025-03-20 16:11:32.910,-482.0,-45.0,919.0,4.0,-1.0,0.0,140,76,122,108,84
2025-03-20 16:11:32.913,-475.0,-45.0,926.0,1.0,0.0,0.0,141,78,124,107,82
2025-03-20 16:11:32.915,-477.0,-43.0,922.0,0.0,1.0,0.0,141,77,121,108,86
2025-03-20 16:11:32.917,-483.0,-42.0,904.0,0.0,2.0,2.0,141,77,121,108,85
2025-03-20 16:11:32.920,-495.0,-32.0,899.0,2.0,0.0,2.0,141,76,122,109,85
2025-03-20 16:11:32.920,-497.0,-24.0,912.0,2.0,2.0,1.0,141,76,121,109,85
2025-03-20 16:11:32.920,-489.0,-23.0,917.0,3.0,1.0,1.0,143,78,121,108,84
2025-03-20 16:11:32.926,-485.0,-22.0,924.0,2.0,2.0,2.0,141,77,121,107,85
2025-03-20 16:11:32.926,-495.0,-18.0,924.0,0.0,3.0,3.0,141,77,121,108,85
2025-03-20 16:11:32.931,-499.0,-17.0,923.0,1.0,1.0,2.0,141,77,122,107,84
2025-03-20 16:11:32.933,-488.0,-18.0,928.0,3.0,3.0,2.0,141,77,121,108,86
2025-03-20 16:11:32.936,-500.0,-12.0,923.0,3.0,4.0,1.0,141,77,122,108,83
2025-03-20 16:11:32.938,-500.0,-8.0,917.0,1.0,2.0,1.0,141,77,121,108,85
2025-03-20 16:11:32.938,-492.0,-12.0,938.0,-9.0,6.0,2.0,140,79,121,110,86
2025-03-20 16:11:32.938,-489.0,-12.0,921.0,-3.0,2.0,2.0,141,77,121,108,85
2025-03-20 16:11:32.945,-484.0,-22.0,914.0,0.0,7.0,1.0,140,76,121,108,84
2025-03-20 16:11:32.958,-500.0,-7.0,958.0,7.0,8.0,3.0,140,81,123,107,84
2025-03-20 16:11:32.982,-477.0,45.0,919.0,1.0,10.0,2.0,141,77,122,108,84
2025-03-20 16:11:33.006,-513.0,12.0,892.0,-4.0,8.0,1.0,141,77,122,108,85
2025-03-20 16:11:33.031,-512.0,-18.0,857.0,-3.0,3.0,2.0,141,77,123,109,85
2025-03-20 16:11:33.055,-486.0,24.0,1062.0,0.0,3.0,1.0,142,77,121,109,85
2025-03-20 16:11:33.080,-591.0,-50.0,798.0,3.0,-3.0,1.0,141,77,123,107,81
2025-03-20 16:11:33.101,-551.0,-14.0,890.0,-5.0,2.0,0.0,141,77,122,103,81
2025-03-20 16:11:33.126,-537.0,-21.0,890.0,-5.0,2.0,-3.0,141,76,122,102,81
2025-03-20 16:11:33.150,-523.0,10.0,908.0,-2.0,-2.0,-1.0,139,77,121,111,83
2025-03-20 16:11:33.175,-517.0,8.0,894.0,1.0,-1.0,-3.0,142,77,122,105,83
2025-03-20 16:11:33.199,-529.0,32.0,850.0,4.0,0.0,-3.0,142,78,122,103,84
2025-03-20 16:11:33.223,-538.0,19.0,862.0,-3.0,-2.0,-3.0,143,78,122,105,84
2025-03-20 16:11:33.248,-553.0,5.0,822.0,-6.0,-8.0,-2.0,142,77,122,104,82
2025-03-20 16:11:33.269,-542.0,22.0,798.0,-16.0,-16.0,-2.0,142,76,122,108,84
2025-03-20 16:11:33.294,-512.0,1.0,918.0,-12.0,-8.0,-4.0,142,77,123,105,82
2025-03-20 16:11:33.308,-518.0,27.0,922.0,-9.0,0.0,-7.0,142,77,122,108,83
2025-03-20 16:11:33.341,-473.0,-16.0,879.0,-7.0,1.0,-8.0,143,77,122,106,84
2025-03-20 16:11:33.366,-506.0,-24.0,856.0,-5.0,3.0,-8.0,142,77,122,104,85
2025-03-20 16:11:33.391,-473.0,-40.0,848.0,-7.0,8.0,-10.0,139,77,121,103,84
2025-03-20 16:11:33.416,-479.0,-32.0,894.0,-6.0,14.0,-10.0,141,76,123,103,84
2025-03-20 16:11:33.437,-532.0,-65.0,753.0,-3.0,7.0,-8.0,142,76,122,107,82
2025-03-20 16:11:33.462,-504.0,-78.0,758.0,1.0,-4.0,-4.0,143,77,124,107,84
2025-03-20 16:11:33.486,-492.0,-54.0,881.0,-2.0,-2.0,-4.0,143,76,125,109,85
2025-03-20 16:11:33.508,-502.0,-79.0,860.0,-5.0,-3.0,-3.0,142,76,126,108,84
2025-03-20 16:11:33.535,-468.0,-75.0,845.0,3.0,-4.0,0.0,143,77,122,108,81
2025-03-20 16:11:33.559,-507.0,-48.0,865.0,4.0,-4.0,1.0,141,76,122,109,84
2025-03-20 16:11:33.584,-517.0,-32.0,917.0,0.0,-4.0,0.0,142,76,122,108,68
2025-03-20 16:11:33.605,-508.0,-39.0,920.0,-2.0,-7.0,0.0,143,76,122,106,67
2025-03-20 16:11:33.630,-493.0,-33.0,929.0,-2.0,-7.0,0.0,139,76,123,117,69
2025-03-20 16:11:33.654,-501.0,-21.0,926.0,-1.0,-5.0,0.0,142,76,123,109,69
2025-03-20 16:11:33.679,-502.0,-16.0,923.0,-1.0,-2.0,0.0,143,77,124,108,68
2025-03-20 16:11:33.703,-500.0,-12.0,896.0,-3.0,-3.0,-1.0,142,77,123,110,69
2025-03-20 16:11:33.726,-484.0,-28.0,895.0,-3.0,-1.0,-2.0,143,76,124,108,68
2025-03-20 16:11:33.752,-497.0,-37.0,898.0,-2.0,0.0,-1.0,143,76,123,109,68
2025-03-20 16:11:33.774,-503.0,-16.0,892.0,0.0,-2.0,0.0,141,77,121,105,68
2025-03-20 16:11:33.798,-500.0,-6.0,899.0,-5.0,-2.0,-2.0,142,76,122,109,69
2025-03-20 16:11:33.822,-492.0,-3.0,853.0,-5.0,-1.0,-2.0,142,77,123,109,68
2025-03-20 16:11:33.846,-498.0,-30.0,881.0,0.0,-2.0,-1.0,142,76,123,109,69
2025-03-20 16:11:33.871,-507.0,14.0,964.0,1.0,-3.0,-1.0,143,78,123,106,69
2025-03-20 16:11:33.896,-506.0,-7.0,903.0,2.0,-3.0,-2.0,142,77,123,110,66
2025-03-20 16:11:33.919,-485.0,-10.0,879.0,-3.0,-3.0,-1.0,144,77,123,110,67
2025-03-20 16:11:33.944,-512.0,-25.0,892.0,-3.0,-5.0,-1.0,143,77,122,108,66
2025-03-20 16:11:33.966,-493.0,-39.0,924.0,-2.0,-2.0,-4.0,142,76,122,109,69
2025-03-20 16:11:33.991,-496.0,-43.0,917.0,0.0,1.0,-3.0,143,76,122,107,66
2025-03-20 16:11:34.014,-482.0,-38.0,914.0,-3.0,0.0,-4.0,142,77,122,110,77
2025-03-20 16:11:34.035,-478.0,-66.0,909.0,-6.0,0.0,-3.0,143,77,123,109,79
2025-03-20 16:11:34.060,-480.0,-60.0,901.0,-1.0,1.0,-1.0,143,78,122,108,80
2025-03-20 16:11:34.084,-544.0,-69.0,776.0,-3.0,-4.0,1.0,143,77,123,109,80
2025-03-20 16:11:34.112,-506.0,-21.0,876.0,-3.0,-2.0,-1.0,145,77,123,109,82
2025-03-20 16:11:34.134,-498.0,-44.0,900.0,-2.0,-3.0,0.0,142,77,123,109,81
2025-03-20 16:11:34.157,-487.0,-32.0,929.0,3.0,-1.0,-2.0,142,77,122,108,80
2025-03-20 16:11:34.182,-504.0,-32.0,872.0,2.0,-3.0,0.0,142,77,122,110,81
2025-03-20 16:11:34.207,-496.0,-24.0,919.0,-3.0,-2.0,-1.0,142,76,122,108,81
2025-03-20 16:11:34.230,-497.0,-38.0,910.0,-2.0,-2.0,-1.0,142,78,122,108,81
2025-03-20 16:11:34.256,-487.0,-36.0,916.0,0.0,1.0,-3.0,142,77,121,109,82
2025-03-20 16:11:34.277,-512.0,-37.0,905.0,0.0,0.0,-1.0,143,77,123,109,83
2025-03-20 16:11:34.301,-499.0,-39.0,899.0,-2.0,-2.0,-1.0,145,77,123,109,83
2025-03-20 16:11:34.326,-491.0,-46.0,904.0,-2.0,-2.0,-1.0,142,78,122,108,81
2025-03-20 16:11:34.344,-497.0,-50.0,897.0,1.0,0.0,0.0,142,77,123,110,81
2025-03-20 16:11:34.375,-493.0,-31.0,885.0,-1.0,-1.0,-1.0,142,78,122,110,82
2025-03-20 16:11:34.399,-495.0,-45.0,900.0,-3.0,-2.0,-1.0,143,76,124,108,81
2025-03-20 16:11:34.423,-495.0,-28.0,911.0,-2.0,0.0,-1.0,143,78,122,108,81
2025-03-20 16:11:34.435,-499.0,-22.0,897.0,-3.0,-1.0,-1.0,144,77,122,111,83
2025-03-20 16:11:34.469,-490.0,-18.0,900.0,-4.0,-1.0,-2.0,143,76,123,108,81
2025-03-20 16:11:34.494,-485.0,-26.0,890.0,-6.0,0.0,-4.0,144,78,123,109,82
2025-03-20 16:11:34.518,-480.0,-19.0,871.0,-9.0,-1.0,-4.0,144,77,123,111,82
2025-03-20 16:11:34.543,-488.0,-8.0,833.0,-15.0,-5.0,-4.0,143,84,123,108,80
2025-03-20 16:11:34.567,-491.0,55.0,498.0,-39.0,-6.0,-5.0,142,76,121,109,80
2025-03-20 16:11:34.592,-557.0,199.0,521.0,-73.0,-10.0,-14.0,139,74,120,109,77
2025-03-20 16:11:34.616,-613.0,107.0,455.0,-111.0,-32.0,-28.0,143,69,117,102,78
2025-03-20 16:11:34.641,-636.0,4.0,351.0,-127.0,-72.0,-27.0,143,62,112,101,72
2025-03-20 16:11:34.662,-704.0,-104.0,324.0,-102.0,-134.0,-33.0,135,58,106,89,70
2025-03-20 16:11:34.687,-661.0,-178.0,655.0,-84.0,-185.0,-46.0,142,50,100,75,61
2025-03-20 16:11:34.711,-292.0,-321.0,1005.0,-118.0,-178.0,-61.0,141,43,93,78,54
2025-03-20 16:11:34.736,-141.0,-736.0,1350.0,-131.0,-129.0,-84.0,141,39,86,72,47
2025-03-20 16:11:34.759,184.0,-1461.0,2261.0,-103.0,-63.0,-43.0,141,36,85,69,43
2025-03-20 16:11:34.784,499.0,-1914.0,2729.0,-62.0,77.0,37.0,141,40,84,73,45
2025-03-20 16:11:34.805,416.0,-1507.0,2333.0,-42.0,230.0,80.0,138,33,82,66,41
2025-03-20 16:11:34.829,136.0,-1035.0,1381.0,-143.0,285.0,88.0,131,35,81,70,40
2025-03-20 16:11:34.853,67.0,-919.0,996.0,-216.0,248.0,119.0,120,33,82,71,43
2025-03-20 16:11:34.878,-75.0,-1010.0,463.0,-177.0,208.0,191.0,122,33,82,72,37
2025-03-20 16:11:34.903,-104.0,-521.0,423.0,-96.0,180.0,252.0,122,33,81,71,38
2025-03-20 16:11:34.920,-116.0,74.0,456.0,-91.0,186.0,249.0,122,36,80,71,41
2025-03-20 16:11:34.952,-262.0,454.0,202.0,-73.0,191.0,190.0,118,38,84,72,39
2025-03-20 16:11:34.977,-257.0,534.0,126.0,-78.0,169.0,117.0,113,37,85,73,39
2025-03-20 16:11:34.998,-364.0,368.0,66.0,-91.0,146.0,76.0,99,36,84,73,41
2025-03-20 16:11:35.022,-325.0,286.0,98.0,-54.0,157.0,58.0,79,39,89,82,48
2025-03-20 16:11:35.047,-435.0,501.0,-83.0,-25.0,126.0,44.0,88,48,89,87,58
2025-03-20 16:11:35.071,-339.0,871.0,-148.0,-16.0,90.0,28.0,108,61,107,100,72
2025-03-20 16:11:35.095,-409.0,1933.0,-547.0,-15.0,61.0,22.0,110,46,103,97,68
2025-03-20 16:11:35.120,59.0,3397.0,-2000.0,190.0,-78.0,-245.0,120,55,107,103,71
2025-03-20 16:11:35.144,140.0,4391.0,-3491.0,9.0,-277.0,-692.0,102,38,89,81,51
2025-03-20 16:11:35.168,1198.0,3532.0,-3476.0,-88.0,-921.0,-1083.0,108,44,90,80,55
2025-03-20 16:11:35.190,10922.0,-1844.0,4826.0,-106.0,-867.0,-1022.0,106,33,90,77,53
2025-03-20 16:11:35.214,6267.0,6267.0,6267.0,66.0,203.0,203.0,70,37,88,41,43
2025-03-20 16:11:35.238,2344.0,-5341.0,1256.0,94.0,182.0,282.0,92,38,90,64,47
2025-03-20 16:11:35.260,2259.0,2259.0,2259.0,282.0,282.0,282.0,92,33,87,63,49
2025-03-20 16:11:35.284,-203.0,-1941.0,749.0,20.0,137.0,377.0,103,22,86,42,47
2025-03-20 16:11:35.306,-176.0,-217.0,563.0,143.0,164.0,341.0,119,26,83,67,48
2025-03-20 16:11:35.333,-375.0,403.0,527.0,-73.0,188.0,231.0,101,36,85,69,50
2025-03-20 16:11:35.358,-344.0,-301.0,229.0,-98.0,131.0,163.0,99,37,84,71,49
2025-03-20 16:11:35.379,-441.0,-203.0,-5.0,-57.0,87.0,165.0,101,33,84,73,49
2025-03-20 16:11:35.403,-13.0,-126.0,271.0,14.0,101.0,161.0,96,34,79,75,49
2025-03-20 16:11:35.427,-339.0,194.0,37.0,-5.0,114.0,142.0,107,36,85,75,49
2025-03-20 16:11:35.452,-250.0,131.0,203.0,-1.0,90.0,129.0,102,34,86,75,48
2025-03-20 16:11:35.475,-300.0,12.0,164.0,62.0,82.0,157.0,102,38,87,79,50
2025-03-20 16:11:35.501,-270.0,639.0,-6.0,116.0,75.0,193.0,105,35,88,80,50
2025-03-20 16:11:35.525,-477.0,2365.0,-1005.0,208.0,10.0,68.0,113,35,90,80,52
2025-03-20 16:11:35.550,-1147.0,4311.0,-2298.0,164.0,-172.0,-434.0,118,32,85,81,50
2025-03-20 16:11:35.572,-721.0,3613.0,-3318.0,-141.0,-722.0,-931.0,125,39,85,80,50
2025-03-20 16:11:35.596,6836.0,-294.0,320.0,-243.0,-1216.0,-1060.0,109,30,86,78,48
2025-03-20 16:11:35.620,7776.0,-9728.0,3839.0,-19.0,132.0,74.0,88,29,89,42,47
2025-03-20 16:11:35.644,1783.0,-3716.0,710.0,392.0,247.0,172.0,107,22,93,71,41
2025-03-20 16:11:35.669,117.0,-1314.0,825.0,-65.0,113.0,247.0,84,28,92,76,51
2025-03-20 16:11:35.694,415.0,-1854.0,987.0,-25.0,155.0,245.0,129,29,88,66,34
2025-03-20 16:11:35.715,-27.0,-598.0,692.0,94.0,179.0,248.0,133,33,90,81,49
2025-03-20 16:11:35.739,1987.0,1987.0,1987.0,248.0,248.0,248.0,135,35,89,82,48
2025-03-20 16:11:35.763,-519.0,-17.0,189.0,-176.0,131.0,118.0,139,38,89,81,51
2025-03-20 16:11:35.788,-269.0,-563.0,405.0,-111.0,101.0,121.0,141,36,87,81,51
2025-03-20 16:11:35.809,-136.0,-386.0,529.0,-31.0,134.0,152.0,139,39,89,84,53
2025-03-20 16:11:35.832,-450.0,-117.0,320.0,-42.0,150.0,156.0,140,39,88,85,53
2025-03-20 16:11:35.856,-513.0,-71.0,232.0,-21.0,121.0,126.0,141,38,88,84,52
2025-03-20 16:11:35.882,-417.0,101.0,314.0,-43.0,119.0,119.0,123,40,88,85,53
2025-03-20 16:11:35.906,-459.0,303.0,142.0,-19.0,126.0,138.0,143,39,88,84,53
2025-03-20 16:11:35.931,-411.0,942.0,-753.0,201.0,88.0,110.0,130,39,86,83,53
2025-03-20 16:11:35.955,-1440.0,3719.0,-2827.0,259.0,-83.0,-194.0,115,36,86,83,50
2025-03-20 16:11:35.980,-1879.0,4143.0,-3926.0,89.0,-559.0,-752.0,138,30,83,83,48
2025-03-20 16:11:36.002,5312.0,2264.0,-3021.0,-379.0,-1340.0,-934.0,120,33,84,80,51
2025-03-20 16:11:36.021,9504.0,-8901.0,5177.0,-854.0,-698.0,-211.0,149,30,89,63,50
2025-03-20 16:11:36.050,3385.0,-8200.0,-371.0,561.0,420.0,36.0,143,31,91,67,49
2025-03-20 16:11:36.074,1386.0,-1956.0,-606.0,176.0,210.0,296.0,134,34,95,77,51
2025-03-20 16:11:36.097,611.0,-1397.0,895.0,-55.0,100.0,238.0,135,28,93,69,54
2025-03-20 16:11:36.123,167.0,-1633.0,783.0,81.0,236.0,302.0,138,36,87,77,51
2025-03-20 16:11:36.145,854.0,-420.0,458.0,194.0,185.0,336.0,132,37,92,77,53
2025-03-20 16:11:36.169,-265.0,201.0,162.0,69.0,210.0,257.0,145,39,89,79,54
2025-03-20 16:11:36.194,-176.0,123.0,107.0,12.0,215.0,213.0,142,29,88,81,52
2025-03-20 16:11:36.218,-532.0,-226.0,39.0,34.0,185.0,214.0,140,41,90,80,54
2025-03-20 16:11:36.241,-309.0,-318.0,194.0,18.0,137.0,253.0,137,39,91,80,53
2025-03-20 16:11:36.266,-371.0,-222.0,273.0,93.0,133.0,227.0,132,37,91,77,52
2025-03-20 16:11:36.291,-508.0,-82.0,144.0,139.0,129.0,196.0,136,38,91,83,51
2025-03-20 16:11:36.313,-507.0,134.0,69.0,117.0,125.0,180.0,139,35,90,83,51
2025-03-20 16:11:36.337,-891.0,563.0,-471.0,137.0,54.0,148.0,119,39,89,83,48
2025-03-20 16:11:36.361,-874.0,2794.0,-1676.0,142.0,-48.0,-93.0,126,41,87,82,47
2025-03-20 16:11:36.374,-1327.0,4351.0,-3169.0,-12.0,-322.0,-623.0,122,35,85,81,54
2025-03-20 16:11:36.410,553.0,4108.0,-4253.0,-217.0,-904.0,-1127.0,138,35,81,77,44
2025-03-20 16:11:36.435,9552.0,-2499.0,538.0,-708.0,-1147.0,-723.0,148,37,86,75,51
2025-03-20 16:11:36.459,5554.0,-9483.0,1521.0,-459.0,62.0,-116.0,146,42,90,68,46
2025-03-20 16:11:36.484,2436.0,-4696.0,-1524.0,205.0,447.0,252.0,140,22,95,64,53
2025-03-20 16:11:36.505,254.0,-1017.0,-1615.0,247.0,100.0,302.0,139,1,93,71,54
2025-03-20 16:11:36.530,562.0,-1637.0,238.0,37.0,147.0,366.0,135,39,91,75,50
2025-03-20 16:11:36.554,0.0,-828.0,573.0,112.0,218.0,369.0,115,40,91,78,48
2025-03-20 16:11:36.578,-256.0,-617.0,-860.0,158.0,172.0,342.0,135,12,94,80,50
2025-03-20 16:11:36.603,-417.0,-127.0,203.0,140.0,223.0,303.0,134,32,94,69,55
2025-03-20 16:11:36.627,-608.0,-370.0,-409.0,264.0,149.0,255.0,135,49,109,74,48
2025-03-20 16:11:36.649,-476.0,47.0,67.0,216.0,139.0,221.0,135,53,119,37,87
2025-03-20 16:11:36.673,-529.0,-90.0,254.0,92.0,56.0,175.0,135,54,126,82,85
2025-03-20 16:11:36.698,-243.0,-28.0,737.0,144.0,114.0,133.0,131,65,128,102,82
2025-03-20 16:11:36.708,-504.0,-22.0,311.0,111.0,132.0,143.0,129,62,129,101,81
2025-03-20 16:11:36.746,-687.0,186.0,-126.0,92.0,78.0,147.0,133,63,128,106,82
2025-03-20 16:11:36.771,-543.0,1131.0,-895.0,57.0,2.0,92.0,129,65,131,101,85
2025-03-20 16:11:36.795,-946.0,2192.0,-2365.0,-71.0,-189.0,-151.0,130,70,131,101,90
2025-03-20 16:11:36.820,-929.0,2858.0,-2980.0,-205.0,-517.0,-522.0,132,72,135,99,92
2025-03-20 16:11:36.843,1116.0,2710.0,-2387.0,-355.0,-848.0,-872.0,130,71,139,101,96
2025-03-20 16:11:36.866,6393.0,-2472.0,2355.0,-840.0,-1086.0,-682.0,145,70,141,100,92
2025-03-20 16:11:36.890,3652.0,-7631.0,-816.0,-665.0,-312.0,-163.0,149,80,145,99,96
2025-03-20 16:11:36.914,2947.0,-6018.0,162.0,213.0,129.0,159.0,148,26,142,101,99
2025-03-20 16:11:36.938,888.0,-2135.0,-68.0,282.0,452.0,258.0,136,65,141,100,103
2025-03-20 16:11:36.963,368.0,-1110.0,680.0,554.0,325.0,314.0,126,70,142,102,97
2025-03-20 16:11:36.988,-252.0,-509.0,293.0,-88.0,206.0,325.0,138,91,143,100,98
2025-03-20 16:11:37.005,-68.0,-282.0,474.0,110.0,311.0,254.0,134,95,143,100,99
2025-03-20 16:11:37.034,-232.0,62.0,504.0,101.0,327.0,217.0,132,87,141,99,100
2025-03-20 16:11:37.057,-387.0,-14.0,-363.0,132.0,269.0,169.0,143,78,143,100,100
2025-03-20 16:11:37.082,-522.0,-216.0,-141.0,114.0,168.0,168.0,140,86,138,103,101
2025-03-20 16:11:37.107,-325.0,-11.0,160.0,117.0,155.0,130.0,135,77,140,97,99
2025-03-20 16:11:37.131,-497.0,-112.0,94.0,92.0,111.0,122.0,131,90,137,102,99
2025-03-20 16:11:37.155,-452.0,-104.0,173.0,74.0,92.0,113.0,130,84,137,101,97
2025-03-20 16:11:37.168,-408.0,133.0,512.0,124.0,103.0,108.0,124,74,139,101,98
2025-03-20 16:11:37.201,-396.0,844.0,-518.0,68.0,39.0,106.0,137,74,136,100,96
2025-03-20 16:11:37.217,-973.0,2020.0,-2438.0,70.0,-156.0,-88.0,129,82,138,108,98
2025-03-20 16:11:37.251,-1551.0,3077.0,-2771.0,-110.0,-505.0,-531.0,132,77,139,102,101
2025-03-20 16:11:37.274,915.0,3109.0,-2659.0,-226.0,-908.0,-977.0,106,95,141,103,102
2025-03-20 16:11:37.299,6901.0,-2968.0,964.0,-764.0,-1200.0,-686.0,147,101,143,102,98
2025-03-20 16:11:37.323,3938.0,-6867.0,-968.0,-396.0,-277.0,-107.0,149,97,144,103,99
2025-03-20 16:11:37.348,2425.0,-5941.0,1455.0,284.0,125.0,202.0,147,51,137,102,103
2025-03-20 16:11:37.369,443.0,-1197.0,611.0,641.0,344.0,249.0,119,52,134,102,106
2025-03-20 16:11:37.394,-675.0,-487.0,1229.0,228.0,331.0,156.0,109,68,137,101,102
2025-03-20 16:11:37.415,-246.0,-469.0,1244.0,-167.0,148.0,159.0,136,87,135,102,95
2025-03-20 16:11:37.442,398.0,-68.0,1944.0,-261.0,196.0,149.0,148,84,132,102,96
2025-03-20 16:11:37.466,-120.0,-456.0,641.0,-7.0,213.0,151.0,148,66,127,94,88
2025-03-20 16:11:37.491,-110.0,-520.0,665.0,13.0,287.0,136.0,143,53,121,101,76
2025-03-20 16:11:37.513,-97.0,-609.0,358.0,14.0,231.0,184.0,143,61,117,88,70
2025-03-20 16:11:37.537,-186.0,-768.0,199.0,-21.0,209.0,225.0,140,56,109,69,67
2025-03-20 16:11:37.561,-59.0,-547.0,458.0,72.0,226.0,236.0,137,48,106,60,64
2025-03-20 16:11:37.586,-371.0,-438.0,-7.0,62.0,212.0,237.0,139,23,96,62,61
2025-03-20 16:11:37.610,-584.0,-100.0,139.0,110.0,173.0,242.0,136,30,87,31,57
2025-03-20 16:11:37.635,-729.0,309.0,-331.0,139.0,80.0,223.0,134,23,81,29,52
2025-03-20 16:11:37.659,-950.0,2804.0,-1612.0,114.0,-13.0,-15.0,140,31,79,26,50
2025-03-20 16:11:37.683,-863.0,4797.0,-3046.0,18.0,-318.0,-594.0,126,25,77,56,43
2025-03-20 16:11:37.706,-78.0,3769.0,-2954.0,-191.0,-834.0,-1044.0,135,14,77,49,48
2025-03-20 16:11:37.729,7179.0,-475.0,-1755.0,-572.0,-1131.0,-916.0,139,24,79,62,41
2025-03-20 16:11:37.754,4652.0,-8698.0,2205.0,-586.0,-120.0,-297.0,150,38,84,58,47
2025-03-20 16:11:37.778,2697.0,-6464.0,-3785.0,724.0,277.0,172.0,144,29,89,60,52
2025-03-20 16:11:37.803,793.0,-1324.0,-459.0,137.0,174.0,311.0,138,13,87,62,52
2025-03-20 16:11:37.828,517.0,-1588.0,803.0,29.0,115.0,282.0,143,14,87,62,53
2025-03-20 16:11:37.848,56.0,-1037.0,500.0,55.0,156.0,323.0,130,32,89,63,53
2025-03-20 16:11:37.873,-346.0,-295.0,568.0,7.0,176.0,317.0,132,0,88,65,53
2025-03-20 16:11:37.897,-118.0,-5.0,474.0,59.0,200.0,236.0,128,35,84,66,55
2025-03-20 16:11:37.921,-417.0,-81.0,-121.0,0.0,184.0,216.0,145,34,86,65,55
2025-03-20 16:11:37.946,-446.0,-380.0,20.0,-21.0,112.0,224.0,147,38,87,66,53
2025-03-20 16:11:37.971,-184.0,-363.0,351.0,55.0,109.0,184.0,144,35,89,65,54
2025-03-20 16:11:37.995,-376.0,-19.0,327.0,13.0,138.0,165.0,142,0,89,66,55
2025-03-20 16:11:38.017,-605.0,-172.0,248.0,58.0,103.0,142.0,137,37,83,65,55
2025-03-20 16:11:38.041,-593.0,-235.0,242.0,23.0,69.0,151.0,136,40,88,68,54
2025-03-20 16:11:38.066,-709.0,1215.0,-135.0,145.0,83.0,67.0,139,39,88,66,53
2025-03-20 16:11:38.090,-1213.0,3365.0,-1700.0,130.0,-42.0,-228.0,143,30,84,69,51
2025-03-20 16:11:38.113,-1257.0,4089.0,-3053.0,-41.0,-411.0,-710.0,133,29,81,70,53
2025-03-20 16:11:38.139,2304.0,3375.0,-2741.0,-385.0,-901.0,-1075.0,126,40,76,66,55
2025-03-20 16:11:38.163,8881.0,-4352.0,2678.0,-959.0,-568.0,-712.0,145,1,83,68,50
2025-03-20 16:11:38.188,4137.0,-9970.0,-1369.0,229.0,226.0,3.0,142,39,87,45,53
2025-03-20 16:11:38.210,1959.0,-2251.0,-320.0,141.0,241.0,300.0,133,19,88,65,53
2025-03-20 16:11:38.232,45.0,-1180.0,-445.0,173.0,44.0,176.0,143,0,88,68,57
2025-03-20 16:11:38.257,-250.0,-1289.0,266.0,42.0,52.0,209.0,137,26,80,67,57
2025-03-20 16:11:38.282,-240.0,-977.0,467.0,21.0,67.0,252.0,136,40,87,67,57
2025-03-20 16:11:38.306,-27.0,-860.0,255.0,53.0,91.0,229.0,143,36,93,68,58
2025-03-20 16:11:38.331,55.0,-798.0,210.0,-2.0,53.0,192.0,140,37,95,65,57
2025-03-20 16:11:38.352,195.0,-919.0,320.0,102.0,128.0,223.0,138,47,103,57,53
2025-03-20 16:11:38.377,198.0,-974.0,393.0,92.0,100.0,261.0,138,39,106,63,60
2025-03-20 16:11:38.401,-25.0,-605.0,459.0,183.0,125.0,246.0,129,32,118,61,61
2025-03-20 16:11:38.426,-115.0,-399.0,126.0,217.0,199.0,239.0,124,35,126,62,57
2025-03-20 16:11:38.450,-398.0,-329.0,65.0,199.0,213.0,254.0,124,47,131,57,58
2025-03-20 16:11:38.474,2110.0,-324.0,55.0,246.0,199.0,265.0,113,53,131,47,61
2025-03-20 16:11:38.500,-605.0,439.0,-60.0,222.0,154.0,257.0,105,63,127,52,63
2025-03-20 16:11:38.523,-847.0,1381.0,-1105.0,150.0,57.0,158.0,108,67,134,51,64
2025-03-20 16:11:38.545,-1406.0,3316.0,-2964.0,38.0,-236.0,-250.0,97,85,139,65,58
2025-03-20 16:11:38.570,-1049.0,3422.0,-3535.0,-161.0,-745.0,-711.0,91,89,143,0,54
2025-03-20 16:11:38.594,4230.0,1944.0,-1459.0,-454.0,-1212.0,-968.0,102,91,145,72,52
2025-03-20 16:11:38.619,7142.0,-6144.0,3213.0,-422.0,-664.0,-459.0,112,77,144,74,56
2025-03-20 16:11:38.641,5480.0,-6164.0,1531.0,205.0,207.0,228.0,82,48,144,62,53
2025-03-20 16:11:38.668,670.0,-1534.0,1125.0,259.0,304.0,311.0,80,87,143,52,53
2025-03-20 16:11:38.692,-50.0,-1230.0,1212.0,60.0,182.0,305.0,93,84,146,42,53
2025-03-20 16:11:38.713,-142.0,-530.0,1183.0,-19.0,220.0,302.0,109,86,146,68,57
2025-03-20 16:11:38.738,-757.0,-267.0,518.0,-10.0,206.0,276.0,114,104,145,71,58
2025-03-20 16:11:38.762,-434.0,159.0,531.0,-62.0,177.0,238.0,123,97,144,75,58
2025-03-20 16:11:38.787,-292.0,-280.0,216.0,-57.0,168.0,178.0,113,79,143,91,58
2025-03-20 16:11:38.811,-273.0,-274.0,306.0,74.0,175.0,122.0,102,95,144,79,59
2025-03-20 16:11:38.823,-360.0,-58.0,176.0,57.0,142.0,107.0,100,107,145,79,61
2025-03-20 16:11:38.859,-427.0,-190.0,287.0,16.0,119.0,87.0,102,87,146,79,62
2025-03-20 16:11:38.880,-369.0,-370.0,256.0,48.0,136.0,77.0,111,78,146,82,62
2025-03-20 16:11:38.905,-466.0,-158.0,272.0,94.0,141.0,87.0,112,90,145,88,61
2025-03-20 16:11:38.930,-527.0,153.0,60.0,71.0,135.0,110.0,107,88,145,90,60
2025-03-20 16:11:38.954,-645.0,889.0,-765.0,93.0,89.0,108.0,111,76,145,90,60
2025-03-20 16:11:38.979,-1354.0,2415.0,-2654.0,92.0,-173.0,-120.0,108,100,146,88,58
2025-03-20 16:11:39.003,-1265.0,3846.0,-3093.0,-87.0,-635.0,-592.0,102,92,146,58,55
2025-03-20 16:11:39.027,3750.0,2606.0,-1612.0,-307.0,-1168.0,-1024.0,112,76,145,85,59
2025-03-20 16:11:39.052,6647.0,-5799.0,3578.0,-151.0,-727.0,-612.0,104,109,146,84,60
2025-03-20 16:11:39.074,4736.0,-6253.0,1465.0,70.0,130.0,181.0,107,66,143,77,38
2025-03-20 16:11:39.089,403.0,-1293.0,1720.0,148.0,208.0,192.0,103,61,142,89,46
2025-03-20 16:11:39.121,-487.0,-1267.0,143.0,-46.0,101.0,193.0,92,45,144,46,51
2025-03-20 16:11:39.137,-503.0,-858.0,916.0,-50.0,155.0,213.0,103,69,146,87,53
2025-03-20 16:11:39.168,-344.0,-219.0,838.0,-53.0,130.0,154.0,126,93,144,72,60
2025-03-20 16:11:39.189,-209.0,-284.0,566.0,-118.0,93.0,107.0,131,56,141,90,61
2025-03-20 16:11:39.217,340.0,-991.0,818.0,-98.0,139.0,117.0,131,62,141,89,65
2025-03-20 16:11:39.242,332.0,-1093.0,683.0,-32.0,217.0,195.0,121,90,139,95,67
2025-03-20 16:11:39.266,-406.0,-546.0,-241.0,-47.0,171.0,246.0,119,87,139,90,69
2025-03-20 16:11:39.290,-269.0,-88.0,277.0,-96.0,169.0,228.0,127,78,132,77,68
2025-03-20 16:11:39.315,-194.0,-465.0,206.0,-78.0,157.0,197.0,129,57,124,60,68
2025-03-20 16:11:39.339,-378.0,-488.0,195.0,68.0,180.0,181.0,120,58,117,82,71
2025-03-20 16:11:39.364,-694.0,-96.0,16.0,115.0,122.0,187.0,128,42,105,79,70
2025-03-20 16:11:39.385,-723.0,223.0,-125.0,112.0,27.0,158.0,125,39,93,78,67
2025-03-20 16:11:39.409,-692.0,1616.0,-887.0,161.0,47.0,56.0,133,33,81,88,56
2025-03-20 16:11:39.434,-1014.0,4317.0,-2676.0,135.0,-169.0,-381.0,123,31,78,58,47
2025-03-20 16:11:39.458,-56.0,3300.0,-2664.0,-78.0,-520.0,-871.0,136,36,75,86,45
2025-03-20 16:11:39.483,4574.0,1483.0,-2546.0,-330.0,-1141.0,-928.0,143,27,75,96,45
2025-03-20 16:11:39.507,8161.0,-8258.0,3122.0,-542.0,-553.0,-247.0,148,25,82,89,44
2025-03-20 16:11:39.531,3441.0,-6325.0,2278.0,322.0,406.0,86.0,143,15,87,88,50
2025-03-20 16:11:39.556,911.0,-2118.0,-1878.0,222.0,292.0,311.0,140,32,89,92,47
2025-03-20 16:11:39.577,73.0,-1263.0,448.0,164.0,84.0,207.0,123,26,88,98,55
2025-03-20 16:11:39.601,98.0,-1542.0,820.0,-9.0,123.0,272.0,131,39,88,99,55
2025-03-20 16:11:39.616,-106.0,-780.0,519.0,52.0,159.0,290.0,128,29,88,98,56
2025-03-20 16:11:39.650,537.0,23.0,631.0,-11.0,179.0,212.0,121,34,86,98,57
2025-03-20 16:11:39.675,36.0,-130.0,387.0,38.0,238.0,192.0,137,40,85,97,56
2025-03-20 16:11:39.699,-489.0,-457.0,-20.0,-26.0,163.0,204.0,143,44,86,99,55
2025-03-20 16:11:39.721,-95.0,-322.0,280.0,26.0,125.0,156.0,134,44,87,100,57
2025-03-20 16:11:39.745,-310.0,-236.0,401.0,21.0,159.0,161.0,125,40,87,96,56
2025-03-20 16:11:39.769,-584.0,-194.0,266.0,30.0,119.0,138.0,128,37,89,97,57
2025-03-20 16:11:39.794,-500.0,-237.0,189.0,42.0,78.0,123.0,125,36,91,98,57
2025-03-20 16:11:39.816,-440.0,582.0,-14.0,118.0,96.0,93.0,122,41,88,87,57
2025-03-20 16:11:39.842,-941.0,2661.0,-1840.0,176.0,18.0,-108.0,124,42,86,97,55
2025-03-20 16:11:39.867,-1575.0,4322.0,-3235.0,103.0,-319.0,-553.0,120,40,83,98,55
2025-03-20 16:11:39.892,1519.0,4267.0,-2413.0,-151.0,-867.0,-926.0,132,43,81,97,54
2025-03-20 16:11:39.909,7162.0,-3456.0,-57.0,-674.0,-922.0,-754.0,148,42,85,99,53
2025-03-20 16:11:39.938,6052.0,-9252.0,2209.0,-133.0,169.0,-91.0,146,42,94,68,57
2025-03-20 16:11:39.962,-14.0,-3714.0,-1718.0,421.0,315.0,250.0,136,32,94,96,55
2025-03-20 16:11:39.987,43.0,-369.0,-1137.0,143.0,101.0,203.0,141,3,95,94,58
2025-03-20 16:11:40.011,-2.0,-1665.0,703.0,-73.0,37.0,234.0,131,43,89,99,58
2025-03-20 16:11:40.035,33.0,-1342.0,523.0,4.0,75.0,319.0,145,42,89,99,58
2025-03-20 16:11:40.056,345.0,-72.0,222.0,-76.0,145.0,213.0,133,31,95,99,58
2025-03-20 16:11:40.077,87.0,-436.0,701.0,171.0,265.0,185.0,143,27,89,96,59
2025-03-20 16:11:40.105,-244.0,-357.0,369.0,51.0,219.0,197.0,134,36,89,97,61
2025-03-20 16:11:40.130,-192.0,-406.0,407.0,6.0,203.0,220.0,139,39,92,97,61
2025-03-20 16:11:40.154,-99.0,-481.0,728.0,79.0,181.0,232.0,130,38,92,72,66
2025-03-20 16:11:40.179,-446.0,-94.0,-323.0,132.0,187.0,198.0,129,34,94,84,67
2025-03-20 16:11:40.204,-554.0,-164.0,328.0,58.0,171.0,172.0,121,32,92,88,64
2025-03-20 16:11:40.225,-455.0,42.0,54.0,71.0,110.0,160.0,131,40,92,79,66
2025-03-20 16:11:40.249,-398.0,637.0,-317.0,64.0,55.0,183.0,113,36,87,80,63
2025-03-20 16:11:40.273,-571.0,1686.0,-1445.0,24.0,6.0,51.0,120,42,82,83,56
2025-03-20 16:11:40.298,-1685.0,4587.0,-3479.0,112.0,-243.0,-461.0,118,39,76,78,47
2025-03-20 16:11:40.322,574.0,4105.0,-4639.0,-155.0,-836.0,-1005.0,110,31,73,87,40
2025-03-20 16:11:40.347,8751.0,1114.0,-283.0,-317.0,-1183.0,-1087.0,97,33,75,83,44
2025-03-20 16:11:40.372,6869.0,-10366.0,3459.0,-159.0,-5.0,-179.0,79,42,75,51,51
2025-03-20 16:11:40.395,3273.0,-4798.0,62.0,447.0,416.0,278.0,70,24,83,78,34
2025-03-20 16:11:40.417,539.0,348.0,-2777.0,-41.0,151.0,285.0,97,30,80,73,48
2025-03-20 16:11:40.441,362.0,-2011.0,777.0,-41.0,67.0,305.0,76,2,78,77,50
2025-03-20 16:11:40.466,-12.0,-838.0,873.0,17.0,148.0,362.0,109,34,80,77,52
2025-03-20 16:11:40.490,188.0,181.0,293.0,-61.0,209.0,245.0,89,39,84,70,54
2025-03-20 16:11:40.514,-492.0,-196.0,332.0,-129.0,131.0,203.0,99,41,81,78,53
2025-03-20 16:11:40.525,-186.0,-658.0,348.0,-42.0,158.0,175.0,104,43,81,80,54
2025-03-20 16:11:40.563,-314.0,-451.0,31.0,47.0,177.0,184.0,92,44,83,78,55
2025-03-20 16:11:40.580,-563.0,-70.0,-40.0,22.0,143.0,184.0,103,40,84,81,56
2025-03-20 16:11:40.610,-390.0,-173.0,246.0,17.0,110.0,157.0,108,46,83,82,57
2025-03-20 16:11:40.634,-374.0,-160.0,-133.0,63.0,103.0,161.0,110,42,83,83,56
2025-03-20 16:11:40.658,-729.0,714.0,-588.0,116.0,53.0,178.0,119,39,83,83,55
2025-03-20 16:11:40.671,-896.0,2606.0,-1531.0,142.0,-61.0,-28.0,118,38,73,85,56
2025-03-20 16:11:40.707,-1089.0,4479.0,-2751.0,159.0,-272.0,-599.0,106,33,76,80,50
2025-03-20 16:11:40.732,16.0,4871.0,-4321.0,-75.0,-1041.0,-1113.0,93,32,74,77,50
2025-03-20 16:11:40.756,11949.0,-2482.0,4.0,-551.0,-1268.0,-880.0,89,33,78,78,50
2025-03-20 16:11:40.777,6785.0,-8994.0,2644.0,181.0,266.0,36.0,78,44,78,70,48
2025-03-20 16:11:40.802,1214.0,-3524.0,1495.0,331.0,486.0,273.0,93,23,84,77,56
2025-03-20 16:11:40.826,116.0,-1459.0,1201.0,26.0,80.0,247.0,81,0,84,76,55
2025-03-20 16:11:40.851,181.0,-1562.0,917.0,16.0,182.0,286.0,97,33,85,78,56
2025-03-20 16:11:40.873,-231.0,-517.0,588.0,58.0,182.0,252.0,112,36,86,79,55
2025-03-20 16:11:40.899,36.0,-666.0,319.0,10.0,240.0,240.0,118,31,82,81,57
2025-03-20 16:11:40.921,-119.0,-939.0,550.0,98.0,226.0,287.0,111,39,86,87,56
2025-03-20 16:11:40.945,-182.0,-608.0,208.0,178.0,226.0,324.0,123,48,97,81,60
2025-03-20 16:11:40.970,-114.0,-386.0,-33.0,222.0,201.0,338.0,119,36,97,61,56
2025-03-20 16:11:40.992,-334.0,20.0,79.0,310.0,180.0,286.0,119,40,97,72,63
2025-03-20 16:11:41.018,-360.0,200.0,26.0,230.0,198.0,248.0,108,43,94,71,60
2025-03-20 16:11:41.043,-461.0,403.0,-120.0,177.0,163.0,212.0,96,45,86,79,57
2025-03-20 16:11:41.068,-699.0,944.0,-866.0,154.0,127.0,88.0,78,43,81,77,48
2025-03-20 16:11:41.092,-1904.0,2282.0,-3146.0,59.0,-135.0,-226.0,67,46,78,63,39
2025-03-20 16:11:41.114,-36.0,2427.0,-5175.0,51.0,-858.0,-481.0,67,54,76,71,45
2025-03-20 16:11:41.137,3743.0,916.0,-4213.0,151.0,-1426.0,-421.0,76,39,77,72,51
2025-03-20 16:11:41.162,7137.0,-1593.0,1888.0,428.0,-1139.0,-125.0,76,47,84,74,46
2025-03-20 16:11:41.186,4922.0,895.0,6544.0,271.0,-119.0,-119.0,61,44,86,69,52
2025-03-20 16:11:41.211,2441.0,-166.0,4229.0,35.0,196.0,-11.0,57,36,84,66,54
2025-03-20 16:11:41.236,1034.0,144.0,2800.0,-219.0,239.0,78.0,56,56,84,72,51
2025-03-20 16:11:41.257,525.0,-11.0,1764.0,-227.0,357.0,57.0,73,49,83,73,52
2025-03-20 16:11:41.281,-192.0,-348.0,828.0,-105.0,318.0,37.0,74,44,86,73,50
2025-03-20 16:11:41.306,-168.0,379.0,737.0,-136.0,269.0,54.0,73,43,84,75,49
2025-03-20 16:11:41.330,28.0,-264.0,738.0,-222.0,325.0,99.0,69,55,84,76,46
2025-03-20 16:11:41.355,-78.0,-430.0,472.0,-41.0,257.0,70.0,74,54,86,76,51
2025-03-20 16:11:41.379,83.0,65.0,531.0,11.0,300.0,61.0,68,66,86,73,50
2025-03-20 16:11:41.403,-104.0,13.0,378.0,-67.0,298.0,54.0,80,60,80,73,51
2025-03-20 16:11:41.422,-573.0,-276.0,-68.0,-97.0,201.0,102.0,80,51,86,75,51
2025-03-20 16:11:41.449,-138.0,-82.0,280.0,-23.0,174.0,91.0,78,49,86,74,50
2025-03-20 16:11:41.474,-203.0,328.0,-46.0,22.0,213.0,71.0,75,58,86,74,53
2025-03-20 16:11:41.498,-774.0,693.0,-1205.0,-23.0,106.0,70.0,74,60,84,74,44
2025-03-20 16:11:41.522,-1692.0,1121.0,-3469.0,71.0,-162.0,-130.0,71,63,82,76,47
2025-03-20 16:11:41.547,-734.0,1734.0,-5272.0,231.0,-930.0,-343.0,69,62,82,78,51
2025-03-20 16:11:41.572,4982.0,1552.0,-3284.0,199.0,-1562.0,-303.0,77,50,82,81,53
2025-03-20 16:11:41.596,7528.0,-2715.0,6222.0,431.0,-774.0,8.0,74,44,89,71,53
2025-03-20 16:11:41.618,4003.0,124.0,6585.0,168.0,225.0,-129.0,65,55,89,66,57
2025-03-20 16:11:41.642,985.0,313.0,2535.0,-41.0,332.0,26.0,70,66,88,56,54
2025-03-20 16:11:41.659,712.0,-256.0,2142.0,-281.0,313.0,115.0,56,49,85,68,48
2025-03-20 16:11:41.690,94.0,-27.0,1564.0,-394.0,358.0,180.0,72,52,84,72,52
2025-03-20 16:11:41.715,150.0,-390.0,1123.0,-303.0,406.0,188.0,83,45,87,72,49
2025-03-20 16:11:41.739,-598.0,40.0,-721.0,17.0,430.0,187.0,92,65,87,69,50
2025-03-20 16:11:41.761,98.0,20.0,490.0,-117.0,411.0,160.0,82,49,91,75,54
2025-03-20 16:11:41.785,-6.0,-62.0,304.0,-101.0,388.0,166.0,92,55,100,52,61
2025-03-20 16:11:41.810,-298.0,-346.0,-24.0,94.0,347.0,191.0,94,71,102,51,62
2025-03-20 16:11:41.833,-672.0,119.0,-286.0,177.0,292.0,157.0,117,57,115,28,83
2025-03-20 16:11:41.858,-530.0,223.0,7.0,18.0,104.0,102.0,105,72,124,0,89
2025-03-20 16:11:41.882,-361.0,149.0,199.0,14.0,86.0,57.0,111,58,129,91,92
2025-03-20 16:11:41.907,-422.0,628.0,-717.0,-7.0,59.0,86.0,117,66,129,96,89
2025-03-20 16:11:41.932,-625.0,1687.0,-2464.0,-51.0,-104.0,-42.0,122,69,130,100,86
2025-03-20 16:11:41.956,-918.0,2539.0,-2855.0,-105.0,-502.0,-349.0,124,78,133,99,95
2025-03-20 16:11:41.978,-1.0,2232.0,-2577.0,-186.0,-818.0,-669.0,134,83,137,98,101
2025-03-20 16:11:42.002,4668.0,520.0,-1908.0,-347.0,-1052.0,-702.0,128,74,140,98,100
2025-03-20 16:11:42.027,5651.0,-6306.0,3501.0,-775.0,-636.0,-370.0,144,102,146,97,101
2025-03-20 16:11:42.051,3451.0,-6786.0,1249.0,153.0,99.0,110.0,142,88,146,99,104
2025-03-20 16:11:42.075,1341.0,-3028.0,810.0,538.0,294.0,226.0,143,58,140,98,106
2025-03-20 16:11:42.100,83.0,-1070.0,1252.0,273.0,238.0,283.0,131,76,141,99,105
2025-03-20 16:11:42.121,54.0,-936.0,579.0,-99.0,228.0,274.0,139,100,142,99,102
2025-03-20 16:11:42.145,-45.0,-299.0,729.0,-35.0,302.0,239.0,141,108,142,101,103
2025-03-20 16:11:42.170,-252.0,-280.0,626.0,-13.0,330.0,213.0,141,106,143,100,104
2025-03-20 16:11:42.194,-69.0,-32.0,312.0,58.0,362.0,130.0,130,100,148,100,104
2025-03-20 16:11:42.219,-605.0,-259.0,451.0,-11.0,262.0,155.0,130,77,142,100,103
2025-03-20 16:11:42.244,-332.0,-87.0,74.0,77.0,223.0,132.0,124,93,142,102,103
2025-03-20 16:11:42.266,-306.0,-83.0,138.0,81.0,213.0,86.0,109,96,139,103,101
2025-03-20 16:11:42.283,-285.0,36.0,261.0,53.0,171.0,75.0,106,93,139,101,101
2025-03-20 16:11:42.313,-564.0,98.0,-214.0,62.0,115.0,129.0,112,97,138,100,101
2025-03-20 16:11:42.338,-149.0,719.0,-888.0,117.0,51.0,139.0,109,95,138,102,100
2025-03-20 16:11:42.361,-709.0,1780.0,-2892.0,101.0,-203.0,-50.0,112,95,140,101,101
2025-03-20 16:11:42.387,-1112.0,2803.0,-3125.0,35.0,-586.0,-517.0,111,96,141,103,102
2025-03-20 16:11:42.411,83.0,2187.0,-2137.0,-121.0,-912.0,-865.0,124,98,142,102,101
2025-03-20 16:11:42.436,8754.0,-1619.0,939.0,-748.0,-1417.0,-615.0,130,103,140,102,97
2025-03-20 16:11:42.460,3829.0,-6437.0,3940.0,-231.0,-80.0,-220.0,134,110,144,102,96
2025-03-20 16:11:42.481,3140.0,-5924.0,901.0,202.0,205.0,235.0,129,87,127,100,101
2025-03-20 16:11:42.506,1574.0,-590.0,689.0,136.0,519.0,237.0,124,62,122,101,99
2025-03-20 16:11:42.530,-345.0,-453.0,682.0,234.0,323.0,212.0,122,70,132,89,86
2025-03-20 16:11:42.555,-684.0,-746.0,29.0,-73.0,87.0,183.0,126,75,122,94,71
2025-03-20 16:11:42.579,-521.0,-500.0,367.0,-134.0,105.0,165.0,130,79,120,89,72
2025-03-20 16:11:42.603,8.0,-763.0,926.0,47.0,243.0,138.0,125,88,114,22,66
2025-03-20 16:11:42.624,-118.0,-581.0,502.0,79.0,257.0,149.0,122,75,108,1,59
2025-03-20 16:11:42.649,-207.0,-444.0,447.0,97.0,212.0,194.0,120,88,100,0,56
2025-03-20 16:11:42.674,-7.0,-304.0,402.0,89.0,242.0,210.0,107,81,99,1,52
2025-03-20 16:11:42.697,-23.0,-225.0,307.0,118.0,254.0,207.0,94,72,92,0,52
2025-03-20 16:11:42.723,-419.0,-143.0,7.0,91.0,195.0,198.0,67,69,85,0,45
2025-03-20 16:11:42.747,-626.0,375.0,-171.0,60.0,158.0,170.0,74,67,82,33,46
2025-03-20 16:11:42.771,-742.0,1236.0,-2495.0,78.0,-43.0,22.0,71,58,80,51,33
2025-03-20 16:11:42.795,-1859.0,2284.0,-4938.0,130.0,-602.0,-293.0,64,54,78,53,37
2025-03-20 16:11:42.817,2026.0,2936.0,-4553.0,242.0,-1296.0,-501.0,65,28,80,57,35
2025-03-20 16:11:42.842,6862.0,-977.0,989.0,412.0,-1258.0,-214.0,81,52,84,58,42
2025-03-20 16:11:42.866,5576.0,303.0,7224.0,385.0,-180.0,-98.0,68,47,92,51,53
2025-03-20 16:11:42.890,2274.0,-382.0,4130.0,109.0,223.0,-40.0,66,51,88,50,54
2025-03-20 16:11:42.914,903.0,-2.0,2824.0,-172.0,221.0,80.0,52,50,90,59,51
2025-03-20 16:11:42.939,749.0,12.0,2289.0,-299.0,335.0,91.0,79,64,88,59,54
2025-03-20 16:11:42.961,-25.0,-331.0,1260.0,-166.0,343.0,62.0,81,59,89,55,50
2025-03-20 16:11:42.985,-125.0,195.0,821.0,-122.0,325.0,76.0,69,47,87,62,53
2025-03-20 16:11:43.009,7.0,-194.0,450.0,-110.0,318.0,103.0,65,51,90,63,51
2025-03-20 16:11:43.034,-75.0,137.0,713.0,-107.0,293.0,90.0,74,66,95,64,47
2025-03-20 16:11:43.058,-13.0,-181.0,577.0,-46.0,301.0,69.0,77,66,93,65,54
2025-03-20 16:11:43.083,-86.0,-152.0,348.0,-48.0,311.0,80.0,82,60,91,67,56
2025-03-20 16:11:43.107,-626.0,74.0,0.0,-78.0,221.0,85.0,73,60,91,67,56
2025-03-20 16:11:43.129,-199.0,49.0,171.0,-97.0,158.0,64.0,77,62,92,66,54
2025-03-20 16:11:43.151,-210.0,51.0,197.0,-12.0,175.0,34.0,73,67,91,66,54
2025-03-20 16:11:43.178,-895.0,255.0,-400.0,-13.0,128.0,53.0,77,66,93,68,56
2025-03-20 16:11:43.201,-656.0,712.0,-901.0,-19.0,-6.0,15.0,72,70,91,67,55
2025-03-20 16:11:43.226,-1442.0,1482.0,-3066.0,84.0,-249.0,-219.0,77,73,88,66,50
2025-03-20 16:11:43.251,-621.0,1658.0,-5197.0,146.0,-919.0,-428.0,77,57,86,64,55
2025-03-20 16:11:43.275,4798.0,1315.0,-1759.0,120.0,-1468.0,-370.0,77,46,87,64,54
2025-03-20 16:11:43.300,6462.0,-2656.0,7191.0,248.0,-573.0,-16.0,77,35,92,62,55
2025-03-20 16:11:43.320,3160.0,-1499.0,5349.0,251.0,247.0,-64.0,68,0,96,61,56
2025-03-20 16:11:43.346,992.0,-353.0,2718.0,6.0,358.0,58.0,65,0,94,57,52
2025-03-20 16:11:43.370,94.0,-498.0,1846.0,-236.0,309.0,115.0,78,53,97,62,55
2025-03-20 16:11:43.394,-183.0,-592.0,1054.0,-294.0,252.0,150.0,92,67,100,72,57
2025-03-20 16:11:43.419,-117.0,-637.0,994.0,-120.0,233.0,150.0,115,54,108,75,58
2025-03-20 16:11:43.443,98.0,-507.0,749.0,-26.0,329.0,157.0,117,69,119,72,47
2025-03-20 16:11:43.468,-268.0,-218.0,753.0,37.0,318.0,155.0,106,63,126,60,53
2025-03-20 16:11:43.489,-239.0,-141.0,603.0,-23.0,326.0,185.0,113,63,132,61,59
2025-03-20 16:11:43.513,-246.0,-70.0,546.0,-2.0,316.0,201.0,119,86,132,62,59
2025-03-20 16:11:43.537,-286.0,102.0,168.0,27.0,297.0,144.0,116,83,135,57,57
2025-03-20 16:11:43.562,-477.0,227.0,-15.0,64.0,246.0,70.0,123,83,137,71,61
2025-03-20 16:11:43.580,-356.0,391.0,-96.0,51.0,196.0,35.0,121,84,135,71,60
2025-03-20 16:11:43.611,-331.0,982.0,-995.0,4.0,120.0,1.0,119,81,140,72,56
2025-03-20 16:11:43.636,-598.0,1972.0,-2627.0,5.0,-132.0,-160.0,110,66,141,81,57
2025-03-20 16:11:43.661,-518.0,2686.0,-3321.0,-103.0,-522.0,-471.0,98,90,143,76,54
2025-03-20 16:11:43.682,500.0,2038.0,-3799.0,-225.0,-1067.0,-770.0,92,90,143,34,55
2025-03-20 16:11:43.706,5832.0,-1578.0,-659.0,-234.0,-1263.0,-671.0,87,83,146,77,55
2025-03-20 16:11:43.730,5623.0,-4646.0,4466.0,187.0,-403.0,-215.0,92,72,144,48,51
2025-03-20 16:11:43.755,3613.0,-3189.0,3049.0,205.0,236.0,78.0,89,58,142,40,49
2025-03-20 16:11:43.779,537.0,-949.0,2038.0,24.0,235.0,145.0,83,97,143,43,49
2025-03-20 16:11:43.803,235.0,-1243.0,1226.0,-185.0,217.0,187.0,92,90,144,72,45
2025-03-20 16:11:43.828,207.0,-1047.0,1237.0,-102.0,273.0,197.0,98,98,143,90,57
2025-03-20 16:11:43.841,8.0,-605.0,799.0,-28.0,317.0,220.0,100,105,142,73,59
2025-03-20 16:11:43.874,-140.0,-263.0,593.0,-55.0,300.0,229.0,98,110,145,83,59
2025-03-20 16:11:43.898,-46.0,-324.0,568.0,-46.0,274.0,209.0,97,110,145,54,59
2025-03-20 16:11:43.923,-184.0,-441.0,385.0,-13.0,256.0,200.0,94,100,144,77,60
2025-03-20 16:11:43.947,-338.0,-191.0,154.0,36.0,229.0,177.0,100,103,144,94,59
2025-03-20 16:11:43.971,-450.0,-16.0,425.0,52.0,197.0,135.0,98,107,144,95,59
2025-03-20 16:11:43.996,-386.0,-133.0,239.0,47.0,193.0,106.0,101,109,145,102,61
2025-03-20 16:11:44.017,-408.0,70.0,165.0,64.0,184.0,106.0,93,97,145,94,59
2025-03-20 16:11:44.042,-520.0,775.0,-269.0,24.0,158.0,103.0,96,105,145,100,57
2025-03-20 16:11:44.066,-794.0,1455.0,-1686.0,74.0,25.0,8.0,97,108,144,103,55
2025-03-20 16:11:44.091,-1093.0,2642.0,-2969.0,84.0,-328.0,-271.0,94,107,145,93,57
2025-03-20 16:11:44.115,-531.0,3090.0,-3261.0,-66.0,-827.0,-636.0,91,102,144,96,55
2025-03-20 16:11:44.138,4694.0,980.0,-1351.0,-311.0,-1267.0,-779.0,87,88,145,84,57
2025-03-20 16:11:44.163,7214.0,-5546.0,3597.0,-30.0,-767.0,-403.0,98,75,145,89,49
2025-03-20 16:11:44.185,4236.0,-4858.0,3274.0,324.0,326.0,59.0,90,37,143,56,55
2025-03-20 16:11:44.210,476.0,-1549.0,2215.0,274.0,384.0,121.0,79,56,144,74,60
2025-03-20 16:11:44.234,47.0,-842.0,1108.0,-81.0,249.0,133.0,93,77,141,66,57
2025-03-20 16:11:44.259,-239.0,-1178.0,913.0,-84.0,207.0,163.0,108,95,139,77,62
2025-03-20 16:11:44.283,-192.0,-431.0,949.0,-27.0,241.0,134.0,122,90,134,59,62
2025-03-20 16:11:44.307,-180.0,-568.0,884.0,29.0,293.0,127.0,130,79,124,84,57
2025-03-20 16:11:44.328,40.0,-547.0,633.0,58.0,323.0,142.0,126,68,111,64,59
2025-03-20 16:11:44.353,-102.0,-406.0,395.0,38.0,329.0,172.0,114,77,102,83,59
2025-03-20 16:11:44.378,-309.0,-248.0,354.0,26.0,265.0,186.0,111,72,100,80,54
2025-03-20 16:11:44.402,-246.0,-203.0,220.0,7.0,239.0,179.0,104,64,96,74,60
2025-03-20 16:11:44.426,-569.0,-89.0,-76.0,48.0,175.0,146.0,96,60,91,69,55
2025-03-20 16:11:44.451,-716.0,49.0,-63.0,19.0,114.0,129.0,86,58,87,72,55
2025-03-20 16:11:44.476,-698.0,572.0,-830.0,76.0,10.0,59.0,78,61,82,85,51
2025-03-20 16:11:44.499,-1914.0,1769.0,-4231.0,156.0,-343.0,-188.0,72,61,76,83,50
2025-03-20 16:11:44.521,272.0,2419.0,-5422.0,295.0,-1101.0,-410.0,65,37,73,95,48
2025-03-20 16:11:44.545,4838.0,713.0,-1363.0,330.0,-1339.0,-235.0,71,48,77,89,52
2025-03-20 16:11:44.570,5652.0,148.0,3389.0,531.0,-891.0,-109.0,78,38,85,89,54
2025-03-20 16:11:44.594,4211.0,454.0,6333.0,147.0,60.0,-64.0,65,34,87,73,54
2025-03-20 16:11:44.615,2103.0,46.0,3461.0,-110.0,266.0,46.0,78,48,86,85,55
2025-03-20 16:11:44.644,1086.0,-419.0,2543.0,-192.0,346.0,95.0,83,51,88,85,53
2025-03-20 16:11:44.668,460.0,-146.0,1544.0,-203.0,393.0,108.0,82,1,88,88,58
2025-03-20 16:11:44.689,-131.0,-28.0,657.0,-128.0,334.0,86.0,77,11,88,89,47
2025-03-20 16:11:44.714,70.0,-188.0,923.0,-90.0,318.0,75.0,64,56,90,89,54
2025-03-20 16:11:44.738,3.0,-143.0,564.0,-113.0,347.0,111.0,77,56,89,87,54
2025-03-20 16:11:44.762,-375.0,-138.0,266.0,-65.0,255.0,120.0,78,66,91,87,50
2025-03-20 16:11:44.787,23.0,121.0,621.0,-28.0,271.0,78.0,81,70,89,81,53
2025-03-20 16:11:44.811,-130.0,59.0,224.0,-57.0,296.0,83.0,75,57,90,86,53
2025-03-20 16:11:44.835,-498.0,-117.0,-95.0,-67.0,188.0,126.0,77,62,91,87,49
2025-03-20 16:11:44.857,-325.0,157.0,200.0,-4.0,136.0,97.0,78,62,86,88,55
2025-03-20 16:11:44.882,-230.0,548.0,16.0,33.0,189.0,39.0,79,66,91,88,55
2025-03-20 16:11:44.906,-870.0,1050.0,-1849.0,-32.0,70.0,-21.0,78,64,89,88,52
2025-03-20 16:11:44.930,-1360.0,1857.0,-3673.0,73.0,-369.0,-274.0,76,69,85,89,53
2025-03-20 16:11:44.955,14.0,1234.0,-4276.0,100.0,-920.0,-425.0,76,62,85,89,54
2025-03-20 16:11:44.980,3666.0,317.0,-1623.0,252.0,-1270.0,-308.0,74,57,84,90,54
2025-03-20 16:11:45.003,5997.0,-1409.0,5017.0,373.0,-887.0,-47.0,67,33,90,86,53
2025-03-20 16:11:45.026,4551.0,-576.0,6625.0,44.0,79.0,-7.0,68,37,95,78,56
2025-03-20 16:11:45.050,2069.0,-849.0,3671.0,-111.0,319.0,67.0,71,58,96,80,56
2025-03-20 16:11:45.074,800.0,-392.0,2345.0,-190.0,370.0,141.0,76,41,96,84,53
2025-03-20 16:11:45.099,133.0,-304.0,1219.0,-323.0,343.0,189.0,69,46,96,87,55
2025-03-20 16:11:45.120,-180.0,-59.0,1110.0,-284.0,260.0,159.0,97,60,96,83,55
2025-03-20 16:11:45.146,102.0,-550.0,1015.0,-165.0,307.0,108.0,111,66,97,86,54
2025-03-20 16:11:45.172,169.0,-479.0,755.0,-85.0,379.0,141.0,117,53,99,87,55
2025-03-20 16:11:45.191,8.0,-152.0,559.0,-139.0,391.0,189.0,112,46,100,77,41
2025-03-20 16:11:45.218,118.0,-639.0,472.0,-153.0,384.0,192.0,118,48,95,76,59
2025-03-20 16:11:45.242,-127.0,-353.0,292.0,-73.0,364.0,168.0,113,46,94,75,57
2025-03-20 16:11:45.266,-592.0,-168.0,144.0,19.0,259.0,139.0,117,42,91,84,60
2025-03-20 16:11:45.291,-436.0,66.0,-187.0,-28.0,220.0,79.0,124,37,89,66,52
2025-03-20 16:11:45.315,-473.0,427.0,-467.0,-22.0,145.0,91.0,127,36,88,77,58
2025-03-20 16:11:45.340,-186.0,1580.0,-1740.0,103.0,-1.0,70.0,125,35,78,76,54
2025-03-20 16:11:45.364,-515.0,3490.0,-3302.0,188.0,-232.0,-258.0,112,30,81,75,50
2025-03-20 16:11:45.386,2.0,4138.0,-3808.0,109.0,-686.0,-693.0,93,13,77,78,39
2025-03-20 16:11:45.403,4084.0,2406.0,-3459.0,64.0,-1376.0,-845.0,95,17,79,88,41
2025-03-20 16:11:45.433,8853.0,-5402.0,6355.0,-166.0,-673.0,-274.0,96,17,85,89,49
2025-03-20 16:11:45.459,3692.0,-5022.0,3684.0,172.0,346.0,-87.0,77,25,88,88,53
2025-03-20 16:11:45.484,1222.0,-1917.0,2340.0,2.0,361.0,165.0,82,28,89,92,54
2025-03-20 16:11:45.508,409.0,-1459.0,1216.0,-285.0,222.0,168.0,82,24,92,90,55
2025-03-20 16:11:45.527,-94.0,-1893.0,798.0,-152.0,190.0,245.0,97,25,84,91,55
2025-03-20 16:11:45.553,107.0,-783.0,857.0,-78.0,215.0,282.0,99,22,88,90,56
2025-03-20 16:11:45.577,-113.0,-249.0,603.0,-115.0,237.0,250.0,98,17,88,89,55
2025-03-20 16:11:45.602,-309.0,-356.0,416.0,-92.0,208.0,217.0,94,20,87,88,55
2025-03-20 16:11:45.627,-170.0,-624.0,280.0,-52.0,212.0,208.0,102,31,85,89,54
2025-03-20 16:11:45.651,-89.0,-310.0,271.0,44.0,233.0,209.0,101,37,86,88,55
2025-03-20 16:11:45.676,-573.0,18.0,-49.0,35.0,222.0,175.0,107,32,87,89,57
2025-03-20 16:11:45.697,-430.0,88.0,-53.0,-1.0,162.0,131.0,107,35,86,90,59
2025-03-20 16:11:45.721,-291.0,-21.0,33.0,25.0,139.0,109.0,100,36,88,90,55
2025-03-20 16:11:45.745,-480.0,52.0,-418.0,58.0,128.0,127.0,92,36,87,90,57
2025-03-20 16:11:45.770,-792.0,1043.0,-1058.0,119.0,5.0,124.0,97,40,85,90,60
2025-03-20 16:11:45.795,-628.0,2196.0,-2419.0,125.0,-166.0,-86.0,113,36,83,89,56
2025-03-20 16:11:45.818,-1123.0,2870.0,-3058.0,194.0,-494.0,-442.0,113,33,85,89,55
2025-03-20 16:11:45.843,1061.0,2655.0,-2981.0,218.0,-1116.0,-747.0,111,13,83,91,52
2025-03-20 16:11:45.866,7870.0,-2923.0,4784.0,80.0,-1026.0,-452.0,100,27,89,90,55
2025-03-20 16:11:45.890,5544.0,-3842.0,5059.0,518.0,242.0,27.0,94,24,94,84,49
2025-03-20 16:11:45.914,246.0,-399.0,1279.0,214.0,357.0,4.0,100,34,94,82,52
2025-03-20 16:11:45.938,-700.0,16.0,1304.0,-16.0,294.0,-9.0,99,4,88,77,56
2025-03-20 16:11:45.962,-585.0,-719.0,550.0,77.0,224.0,-7.0,102,31,88,90,45
2025-03-20 16:11:45.986,-1022.0,57.0,-295.0,209.0,108.0,-31.0,114,25,90,94,50
2025-03-20 16:11:46.011,-931.0,-81.0,-302.0,254.0,-36.0,-61.0,119,28,91,86,55
2025-03-20 16:11:46.036,-335.0,-120.0,529.0,265.0,-143.0,-79.0,125,35,90,91,52
2025-03-20 16:11:46.056,-30.0,192.0,893.0,258.0,-151.0,-88.0,124,28,91,94,56
2025-03-20 16:11:46.082,-110.0,278.0,1261.0,183.0,-98.0,-97.0,130,30,92,95,53
2025-03-20 16:11:46.106,-90.0,145.0,1099.0,113.0,-85.0,-101.0,131,29,91,97,57
2025-03-20 16:11:46.130,177.0,-316.0,1299.0,92.0,-69.0,-96.0,132,33,91,96,57
2025-03-20 16:11:46.155,547.0,-941.0,1252.0,88.0,-40.0,-52.0,134,36,90,96,57
2025-03-20 16:11:46.180,1371.0,-2269.0,1858.0,59.0,-20.0,101.0,135,33,90,91,56
2025-03-20 16:11:46.204,2288.0,-2764.0,2640.0,-127.0,44.0,464.0,139,31,91,96,55
2025-03-20 16:11:46.224,3582.0,-2107.0,2661.0,-289.0,242.0,833.0,135,29,92,95,56
2025-03-20 16:11:46.250,3226.0,987.0,1598.0,-208.0,199.0,928.0,133,28,91,94,51
2025-03-20 16:11:46.274,1437.0,3807.0,833.0,-293.0,205.0,700.0,132,37,90,93,54
2025-03-20 16:11:46.298,214.0,4801.0,212.0,184.0,174.0,115.0,141,39,84,90,59
2025-03-20 16:11:46.323,-276.0,4439.0,227.0,146.0,131.0,-67.0,149,33,83,93,55
2025-03-20 16:11:46.343,-194.0,2924.0,345.0,59.0,24.0,-295.0,146,37,83,93,56
2025-03-20 16:11:46.370,264.0,-125.0,861.0,33.0,-60.0,-316.0,141,37,82,92,53
2025-03-20 16:11:46.393,451.0,-876.0,1258.0,114.0,-51.0,-225.0,143,28,89,92,56
2025-03-20 16:11:46.418,184.0,-701.0,298.0,144.0,-7.0,-218.0,138,34,92,97,56
2025-03-20 16:11:46.442,-328.0,-305.0,693.0,93.0,-59.0,-173.0,137,33,94,96,56
2025-03-20 16:11:46.462,-315.0,174.0,599.0,129.0,-102.0,-234.0,139,35,94,96,57
2025-03-20 16:11:46.491,-273.0,104.0,616.0,177.0,-183.0,-275.0,143,37,95,96,58
2025-03-20 16:11:46.514,-183.0,25.0,653.0,210.0,-203.0,-242.0,142,36,91,98,54
2025-03-20 16:11:46.540,-166.0,670.0,784.0,123.0,-245.0,-223.0,142,38,93,99,56
2025-03-20 16:11:46.555,255.0,7.0,1175.0,102.0,-261.0,-203.0,143,38,91,97,56
2025-03-20 16:11:46.585,261.0,-146.0,1489.0,104.0,-180.0,-159.0,143,36,94,97,58
2025-03-20 16:11:46.610,578.0,-753.0,1479.0,39.0,-90.0,-95.0,143,37,92,98,53
2025-03-20 16:11:46.634,1570.0,-2111.0,1844.0,66.0,-43.0,69.0,144,39,93,96,53
2025-03-20 16:11:46.659,2570.0,-1903.0,2676.0,-62.0,92.0,395.0,145,40,92,98,51
2025-03-20 16:11:46.684,2900.0,-1379.0,2634.0,-308.0,265.0,751.0,145,37,95,99,58
2025-03-20 16:11:46.708,2977.0,961.0,1542.0,-344.0,395.0,930.0,146,40,97,97,57
2025-03-20 16:11:46.729,1770.0,3391.0,1424.0,-456.0,375.0,730.0,145,38,95,94,56
2025-03-20 16:11:46.754,533.0,3333.0,585.0,206.0,389.0,143.0,148,43,86,92,53
2025-03-20 16:11:46.778,-355.0,3207.0,708.0,188.0,316.0,11.0,138,39,83,87,56
2025-03-20 16:11:46.803,105.0,1837.0,1330.0,-23.0,339.0,-151.0,142,42,84,92,55
2025-03-20 16:11:46.827,-353.0,-331.0,800.0,-22.0,284.0,-180.0,128,41,87,84,57
2025-03-20 16:11:46.851,-772.0,-1063.0,-20.0,165.0,130.0,-101.0,125,34,97,64,60
2025-03-20 16:11:46.876,-984.0,-550.0,431.0,46.0,168.0,-87.0,115,35,109,57,69
2025-03-20 16:11:46.888,-830.0,-570.0,1000.0,105.0,161.0,-81.0,119,39,114,45,61
2025-03-20 16:11:46.919,-618.0,-708.0,455.0,109.0,164.0,-4.0,107,40,115,0,81
2025-03-20 16:11:46.945,-833.0,-129.0,559.0,63.0,134.0,18.0,122,44,125,50,97
2025-03-20 16:11:46.970,-672.0,218.0,304.0,92.0,146.0,6.0,109,57,127,89,90
2025-03-20 16:11:46.995,-576.0,593.0,-231.0,59.0,162.0,-30.0,120,58,128,84,87
2025-03-20 16:11:47.019,-485.0,998.0,-765.0,20.0,67.0,-87.0,118,71,129,101,86
2025-03-20 16:11:47.044,-366.0,1488.0,-1564.0,-2.0,-34.0,-213.0,120,71,130,100,86
2025-03-20 16:11:47.067,-534.0,1736.0,-2379.0,-73.0,-316.0,-474.0,123,79,133,102,89
2025-03-20 16:11:47.090,-271.0,1396.0,-2750.0,-171.0,-619.0,-720.0,123,76,132,100,92
2025-03-20 16:11:47.114,1005.0,743.0,-2357.0,-130.0,-814.0,-813.0,121,61,137,98,94
2025-03-20 16:11:47.138,7791.0,-500.0,446.0,-182.0,-1381.0,-454.0,132,51,141,99,95
2025-03-20 16:11:47.163,5542.0,-7108.0,3296.0,-182.0,-264.0,-67.0,137,55,145,102,102
2025-03-20 16:11:47.188,2294.0,-4269.0,1398.0,629.0,445.0,203.0,132,36,143,102,103
2025-03-20 16:11:47.212,363.0,-604.0,1274.0,465.0,392.0,231.0,115,71,143,101,99
2025-03-20 16:11:47.236,109.0,-653.0,351.0,-70.0,342.0,217.0,127,76,144,103,98
2025-03-20 16:11:47.257,-321.0,-649.0,845.0,-346.0,187.0,256.0,128,81,142,103,97
2025-03-20 16:11:47.282,-334.0,-727.0,784.0,31.0,310.0,264.0,135,89,143,104,94
2025-03-20 16:11:47.306,-137.0,-596.0,459.0,79.0,322.0,259.0,136,85,145,105,96
2025-03-20 16:11:47.331,-137.0,38.0,436.0,94.0,295.0,251.0,134,88,145,104,96
2025-03-20 16:11:47.355,-319.0,-208.0,300.0,101.0,246.0,230.0,119,83,141,104,95
2025-03-20 16:11:47.379,-404.0,-77.0,43.0,111.0,221.0,185.0,121,89,141,105,98
2025-03-20 16:11:47.401,-592.0,125.0,34.0,49.0,170.0,159.0,117,77,139,103,94
2025-03-20 16:11:47.425,-454.0,262.0,80.0,67.0,144.0,110.0,114,84,138,103,94
2025-03-20 16:11:47.450,-734.0,459.0,-63.0,56.0,108.0,82.0,101,85,138,104,91
2025-03-20 16:11:47.474,-615.0,997.0,-556.0,60.0,87.0,30.0,114,91,140,105,93
2025-03-20 16:11:47.498,-582.0,1678.0,-2345.0,-12.0,-151.0,-116.0,118,90,140,106,95
2025-03-20 16:11:47.523,-618.0,2551.0,-3010.0,-21.0,-480.0,-425.0,120,90,142,106,98
2025-03-20 16:11:47.548,-202.0,1884.0,-3062.0,-108.0,-832.0,-644.0,128,77,142,105,99
2025-03-20 16:11:47.572,4868.0,192.0,-891.0,-361.0,-1370.0,-597.0,131,86,136,105,97
2025-03-20 16:11:47.597,8300.0,-7563.0,4274.0,-652.0,-936.0,-281.0,143,21,144,104,101
2025-03-20 16:11:47.621,3106.0,-4775.0,2429.0,455.0,313.0,87.0,139,1,138,102,103
2025-03-20 16:11:47.643,-370.0,-929.0,1773.0,472.0,404.0,118.0,136,10,122,101,78
2025-03-20 16:11:47.667,-838.0,710.0,520.0,95.0,312.0,26.0,136,42,127,78,77
2025-03-20 16:11:47.691,-949.0,324.0,729.0,-227.0,172.0,-17.0,127,49,119,38,66
2025-03-20 16:11:47.716,-1003.0,-378.0,850.0,-56.0,120.0,-15.0,140,44,115,1,36
2025-03-20 16:11:47.740,-292.0,-571.0,277.0,108.0,103.0,-29.0,135,30,111,37,44
2025-03-20 16:11:47.765,-231.0,-310.0,538.0,204.0,73.0,-13.0,122,32,102,54,39
2025-03-20 16:11:47.786,-343.0,-114.0,552.0,214.0,-7.0,-21.0,105,15,100,0,42
2025-03-20 16:11:47.810,-272.0,117.0,486.0,208.0,-76.0,-73.0,101,25,103,73,42
2025-03-20 16:11:47.834,-119.0,82.0,819.0,217.0,-93.0,-116.0,117,34,107,81,42
2025-03-20 16:11:47.859,-110.0,86.0,988.0,246.0,-78.0,-132.0,128,36,106,84,49
2025-03-20 16:11:47.884,-101.0,62.0,936.0,222.0,-82.0,-149.0,128,36,103,83,52
2025-03-20 16:11:47.906,134.0,-256.0,1214.0,186.0,-93.0,-144.0,133,36,103,84,50
2025-03-20 16:11:47.933,834.0,-1335.0,1584.0,179.0,-70.0,-69.0,120,34,100,83,48
2025-03-20 16:11:47.957,1875.0,-2430.0,2586.0,106.0,57.0,133.0,134,35,100,84,48
2025-03-20 16:11:47.979,2576.0,-2645.0,2777.0,-69.0,210.0,475.0,135,34,103,83,50
2025-03-20 16:11:48.003,2852.0,-1574.0,1883.0,-236.0,314.0,799.0,135,25,101,85,50
2025-03-20 16:11:48.028,2019.0,1044.0,809.0,-187.0,109.0,885.0,139,30,103,84,52
2025-03-20 16:11:48.052,718.0,4648.0,1258.0,-207.0,233.0,451.0,128,35,102,92,51
2025-03-20 16:11:48.076,-166.0,4173.0,377.0,131.0,177.0,133.0,138,29,99,81,51
2025-03-20 16:11:48.101,-476.0,4478.0,226.0,94.0,101.0,-93.0,144,35,90,81,52
2025-03-20 16:11:48.124,-184.0,2452.0,609.0,-40.0,28.0,-276.0,143,34,88,80,53
2025-03-20 16:11:48.146,329.0,22.0,1143.0,-69.0,-14.0,-281.0,138,36,88,81,53
2025-03-20 16:11:48.171,238.0,-698.0,1069.0,-10.0,46.0,-215.0,135,30,103,76,53
2025-03-20 16:11:48.195,8.0,-154.0,1620.0,28.0,63.0,-184.0,133,36,104,82,55
2025-03-20 16:11:48.220,-550.0,-664.0,-488.0,27.0,-10.0,-169.0,128,32,106,84,55
2025-03-20 16:11:48.244,-492.0,-341.0,654.0,99.0,-24.0,-141.0,134,39,102,87,55
2025-03-20 16:11:48.269,-437.0,-174.0,684.0,133.0,-16.0,-150.0,134,41,104,87,55
2025-03-20 16:11:48.293,-507.0,-94.0,551.0,150.0,-31.0,-100.0,133,40,104,85,54
2025-03-20 16:11:48.313,-606.0,599.0,651.0,136.0,-60.0,-170.0,139,40,102,86,55
2025-03-20 16:11:48.339,-576.0,268.0,495.0,153.0,-136.0,-235.0,136,38,101,87,54
2025-03-20 16:11:48.363,-217.0,-19.0,875.0,147.0,-200.0,-224.0,134,39,102,85,53
2025-03-20 16:11:48.388,311.0,-481.0,1391.0,118.0,-177.0,-159.0,133,36,100,86,55
2025-03-20 16:11:48.397,957.0,-1710.0,1604.0,13.0,-95.0,-46.0,134,34,104,86,54
2025-03-20 16:11:48.436,1826.0,-3338.0,2201.0,-28.0,-37.0,214.0,135,39,101,88,55
2025-03-20 16:11:48.461,2635.0,-3151.0,2992.0,-207.0,117.0,555.0,138,40,104,87,53
2025-03-20 16:11:48.485,1973.0,-1115.0,923.0,-371.0,144.0,814.0,139,32,105,88,55
2025-03-20 16:11:48.507,1424.0,2464.0,1352.0,-285.0,63.0,769.0,136,38,103,84,56
2025-03-20 16:11:48.531,72.0,4761.0,1051.0,63.0,235.0,250.0,129,35,99,84,53
2025-03-20 16:11:48.555,-340.0,3911.0,721.0,116.0,217.0,58.0,140,32,95,72,51
2025-03-20 16:11:48.580,-456.0,2791.0,1199.0,-34.0,214.0,-185.0,140,37,94,83,55
2025-03-20 16:11:48.605,-325.0,98.0,1381.0,-156.0,155.0,-256.0,133,37,96,82,54
2025-03-20 16:11:48.629,79.0,-1628.0,1350.0,-110.0,240.0,-160.0,117,38,103,81,55
2025-03-20 16:11:48.653,-69.0,-1277.0,-159.0,-113.0,271.0,-87.0,121,35,113,81,52
2025-03-20 16:11:48.674,-146.0,-1330.0,945.0,-124.0,234.0,-38.0,128,44,122,84,47
2025-03-20 16:11:48.700,-457.0,-835.0,429.0,36.0,198.0,5.0,132,46,126,75,52
2025-03-20 16:11:48.723,-1053.0,-407.0,655.0,126.0,181.0,26.0,135,57,128,61,52
2025-03-20 16:11:48.748,-763.0,-129.0,552.0,105.0,204.0,52.0,135,64,132,42,53
2025-03-20 16:11:48.772,-743.0,383.0,335.0,127.0,227.0,34.0,135,71,134,59,56
2025-03-20 16:11:48.797,-862.0,872.0,-84.0,82.0,205.0,-32.0,126,68,135,69,48
2025-03-20 16:11:48.821,-626.0,1154.0,-464.0,26.0,148.0,-118.0,126,74,137,67,47
2025-03-20 16:11:48.834,-569.0,1469.0,-1553.0,28.0,13.0,-267.0,119,80,136,48,50
2025-03-20 16:11:48.868,-602.0,2367.0,-2756.0,-19.0,-313.0,-521.0,87,78,139,43,48
2025-03-20 16:11:48.891,661.0,1784.0,-3814.0,-127.0,-751.0,-734.0,87,62,143,37,45
2025-03-20 16:11:48.916,3248.0,799.0,-3386.0,-102.0,-1315.0,-681.0,85,60,144,38,46
2025-03-20 16:11:48.938,8177.0,-2003.0,2078.0,-253.0,-1148.0,-559.0,95,45,146,76,43
2025-03-20 16:11:48.963,6127.0,-5646.0,3468.0,100.0,-94.0,-48.0,93,78,147,58,39
2025-03-20 16:11:48.989,2388.0,-2759.0,2199.0,357.0,443.0,156.0,81,17,145,64,45
2025-03-20 16:11:49.010,364.0,-1169.0,616.0,-40.0,297.0,266.0,85,63,145,49,47
2025-03-20 16:11:49.035,102.0,-1161.0,833.0,-163.0,199.0,305.0,96,59,143,77,51
2025-03-20 16:11:49.059,-106.0,-839.0,593.0,-13.0,208.0,273.0,98,90,145,51,52
2025-03-20 16:11:49.084,-91.0,-549.0,606.0,66.0,237.0,263.0,102,83,146,85,52
2025-03-20 16:11:49.108,-85.0,-288.0,440.0,54.0,254.0,280.0,104,102,147,72,54
2025-03-20 16:11:49.133,-161.0,-289.0,250.0,40.0,228.0,265.0,110,102,148,83,52
2025-03-20 16:11:49.157,-382.0,-103.0,310.0,105.0,201.0,174.0,107,88,146,86,54
2025-03-20 16:11:49.178,-299.0,52.0,520.0,80.0,213.0,92.0,109,102,144,89,54
2025-03-20 16:11:49.203,-301.0,-114.0,483.0,40.0,245.0,73.0,111,97,146,86,49
2025-03-20 16:11:49.228,-623.0,273.0,154.0,1.0,210.0,71.0,109,96,143,95,47
2025-03-20 16:11:49.251,-516.0,882.0,-326.0,1.0,166.0,53.0,113,106,146,93,49
2025-03-20 16:11:49.276,-1097.0,1893.0,-2223.0,57.0,-14.0,-57.0,110,101,146,100,49
2025-03-20 16:11:49.301,-1031.0,2861.0,-3391.0,33.0,-457.0,-371.0,102,101,146,99,48
2025-03-20 16:11:49.325,301.0,2417.0,-2992.0,-105.0,-989.0,-691.0,99,76,146,80,48
2025-03-20 16:11:49.347,5443.0,-1704.0,-562.0,-29.0,-1256.0,-680.0,98,50,147,95,52
2025-03-20 16:11:49.371,6129.0,-4368.0,4142.0,218.0,-403.0,-262.0,102,70,145,92,47
2025-03-20 16:11:49.386,3117.0,-2807.0,3102.0,252.0,284.0,44.0,94,63,143,77,45
2025-03-20 16:11:49.419,-262.0,-505.0,1623.0,84.0,230.0,85.0,98,69,143,84,50
2025-03-20 16:11:49.444,-131.0,-702.0,1141.0,-41.0,160.0,72.0,103,78,145,85,56
2025-03-20 16:11:49.469,-341.0,-361.0,976.0,33.0,178.0,36.0,111,75,141,75,56
2025-03-20 16:11:49.490,-452.0,-22.0,909.0,42.0,195.0,-6.0,115,84,135,85,55
2025-03-20 16:11:49.514,-206.0,-409.0,828.0,158.0,181.0,-32.0,120,60,131,89,56
2025-03-20 16:11:49.531,-84.0,-475.0,639.0,312.0,176.0,-35.0,126,62,124,93,55
2025-03-20 16:11:49.564,-275.0,12.0,721.0,330.0,149.0,-46.0,128,47,116,95,41
2025-03-20 16:11:49.587,-383.0,364.0,686.0,321.0,136.0,-69.0,130,33,107,75,37
2025-03-20 16:11:49.603,-482.0,273.0,1068.0,261.0,152.0,-101.0,130,33,100,70,43
2025-03-20 16:11:49.636,-383.0,-208.0,458.0,217.0,91.0,-112.0,125,31,98,72,46
2025-03-20 16:11:49.661,-380.0,-150.0,433.0,169.0,-64.0,-111.0,127,33,93,77,47
2025-03-20 16:11:49.683,286.0,-1364.0,996.0,111.0,-135.0,-48.0,126,35,96,91,46
2025-03-20 16:11:49.707,1337.0,-2656.0,2073.0,32.0,-109.0,151.0,125,38,90,95,48
2025-03-20 16:11:49.732,2277.0,-2954.0,3245.0,-145.0,52.0,419.0,132,37,90,97,49
2025-03-20 16:11:49.756,3051.0,-2526.0,2225.0,-146.0,218.0,811.0,135,40,92,93,47
2025-03-20 16:11:49.780,2499.0,1246.0,1819.0,-194.0,203.0,858.0,132,36,93,94,48
2025-03-20 16:11:49.801,1236.0,4085.0,452.0,-204.0,227.0,507.0,134,38,87,81,46
2025-03-20 16:11:49.829,-111.0,4768.0,-294.0,82.0,171.0,118.0,136,38,90,73,48
2025-03-20 16:11:49.851,-229.0,4583.0,3.0,43.0,72.0,-120.0,127,37,81,68,50
2025-03-20 16:11:49.875,-108.0,2585.0,443.0,-8.0,-4.0,-312.0,129,39,83,79,51
2025-03-20 16:11:49.899,65.0,507.0,490.0,-32.0,-87.0,-357.0,136,40,88,81,53
2025-03-20 16:11:49.924,244.0,-454.0,895.0,23.0,-154.0,-342.0,132,39,92,80,53
2025-03-20 16:11:49.948,620.0,-1203.0,1324.0,95.0,-45.0,-225.0,130,27,98,87,54
2025-03-20 16:11:49.972,184.0,-380.0,2529.0,34.0,64.0,-120.0,125,40,99,90,53
2025-03-20 16:11:49.997,-304.0,-198.0,1059.0,61.0,-12.0,-125.0,132,40,101,95,51
2025-03-20 16:11:50.018,-411.0,-241.0,908.0,84.0,-75.0,-141.0,135,41,99,95,52
2025-03-20 16:11:50.043,-337.0,-74.0,792.0,139.0,-98.0,-130.0,140,40,98,96,54
2025-03-20 16:11:50.067,-476.0,786.0,780.0,131.0,-101.0,-143.0,139,43,98,97,53
2025-03-20 16:11:50.092,-491.0,562.0,637.0,82.0,-105.0,-201.0,141,42,97,97,52
2025-03-20 16:11:50.116,-279.0,-446.0,477.0,135.0,-141.0,-211.0,140,41,97,98,54
2025-03-20 16:11:50.137,996.0,-2034.0,1492.0,146.0,-206.0,-7.0,140,42,99,97,54
2025-03-20 16:11:50.165,2311.0,-3607.0,3365.0,-46.0,-34.0,327.0,141,38,105,97,54
2025-03-20 16:11:50.189,2836.0,-2647.0,3166.0,-138.0,205.0,654.0,143,29,100,96,51
2025-03-20 16:11:50.211,2320.0,430.0,2294.0,-236.0,247.0,716.0,140,28,101,93,51
2025-03-20 16:11:50.235,1514.0,3382.0,1628.0,-264.0,355.0,532.0,138,39,101,92,51
2025-03-20 16:11:50.260,373.0,3773.0,1220.0,-116.0,324.0,192.0,134,39,94,87,48
2025-03-20 16:11:50.284,-255.0,3208.0,968.0,109.0,288.0,25.0,134,38,84,73,51
2025-03-20 16:11:50.308,152.0,2152.0,1222.0,-48.0,322.0,-99.0,144,43,84,74,52
2025-03-20 16:11:50.333,-588.0,539.0,456.0,-105.0,254.0,-126.0,131,46,84,80,52
2025-03-20 16:11:50.355,-309.0,-443.0,1125.0,110.0,200.0,-95.0,139,43,87,66,52
2025-03-20 16:11:50.378,163.0,20.0,958.0,-20.0,381.0,-92.0,138,34,92,42,39
2025-03-20 16:11:50.403,-593.0,-277.0,486.0,167.0,345.0,-156.0,128,42,93,62,52
2025-03-20 16:11:50.428,-284.0,-498.0,329.0,57.0,336.0,-132.0,127,44,91,63,52
2025-03-20 16:11:50.452,-781.0,-170.0,-137.0,71.0,286.0,-83.0,127,38,86,57,54
2025-03-20 16:11:50.476,-700.0,336.0,-335.0,38.0,171.0,-46.0,128,42,84,72,54
2025-03-20 16:11:50.499,-363.0,881.0,-927.0,-23.0,64.0,-76.0,129,36,82,69,51
2025-03-20 16:11:50.525,-401.0,2220.0,-1696.0,-82.0,-48.0,-220.0,108,39,81,58,50
2025-03-20 16:11:50.546,66.0,3734.0,-3033.0,-36.0,-274.0,-598.0,77,39,83,59,40
2025-03-20 16:11:50.571,708.0,2921.0,-4319.0,-56.0,-735.0,-955.0,82,29,81,65,39
2025-03-20 16:11:50.594,5416.0,1674.0,-2993.0,75.0,-1434.0,-982.0,86,25,81,68,32
2025-03-20 16:11:50.620,9968.0,-8252.0,7392.0,431.0,-502.0,-55.0,76,24,89,68,28
2025-03-20 16:11:50.645,2539.0,-3086.0,2852.0,502.0,323.0,-12.0,83,37,93,61,45
2025-03-20 16:11:50.669,462.0,-719.0,2330.0,-159.0,237.0,176.0,70,23,89,69,49
2025-03-20 16:11:50.693,585.0,-2126.0,1816.0,-318.0,258.0,180.0,109,34,89,69,49
2025-03-20 16:11:50.715,52.0,-1578.0,920.0,-59.0,258.0,284.0,94,21,92,69,50
2025-03-20 16:11:50.739,-84.0,-320.0,593.0,1.0,261.0,314.0,114,29,94,70,46
2025-03-20 16:11:50.763,-65.0,34.0,579.0,-87.0,328.0,276.0,100,32,95,70,48
2025-03-20 16:11:50.788,-407.0,-140.0,-14.0,-70.0,269.0,249.0,105,34,86,64,43
2025-03-20 16:11:50.813,-326.0,-124.0,195.0,-29.0,225.0,268.0,95,30,85,70,51
2025-03-20 16:11:50.836,-166.0,61.0,162.0,33.0,241.0,277.0,100,29,88,67,51
2025-03-20 16:11:50.861,-1164.0,546.0,-292.0,36.0,240.0,165.0,106,30,88,66,51
2025-03-20 16:11:50.882,-554.0,432.0,-16.0,22.0,124.0,73.0,113,35,89,69,55
2025-03-20 16:11:50.907,-582.0,202.0,-60.0,33.0,99.0,48.0,115,42,90,73,50
2025-03-20 16:11:50.931,-817.0,755.0,-506.0,108.0,55.0,62.0,101,46,94,72,52
2025-03-20 16:11:50.956,-621.0,2099.0,-1874.0,184.0,-68.0,-68.0,113,48,87,73,56
2025-03-20 16:11:50.981,-716.0,3499.0,-3029.0,101.0,-352.0,-502.0,103,38,83,65,53
2025-03-20 16:11:51.004,36.0,2606.0,-3585.0,82.0,-868.0,-859.0,98,26,82,70,43
2025-03-20 16:11:51.027,6709.0,-2360.0,-1016.0,221.0,-1254.0,-656.0,106,36,86,67,39
2025-03-20 16:11:51.051,7274.0,-4515.0,5423.0,849.0,-390.0,32.0,103,34,99,69,36
2025-03-20 16:11:51.075,1697.0,-126.0,3877.0,420.0,291.0,-22.0,95,32,99,68,38
2025-03-20 16:11:51.100,198.0,-1077.0,1223.0,230.0,192.0,170.0,104,36,97,57,48
2025-03-20 16:11:51.123,-374.0,76.0,1361.0,58.0,50.0,188.0,102,36,96,59,42
2025-03-20 16:11:51.148,-168.0,-120.0,1431.0,110.0,60.0,140.0,122,30,94,39,38
2025-03-20 16:11:51.172,-402.0,13.0,932.0,201.0,26.0,135.0,129,36,95,1,41
2025-03-20 16:11:51.194,-19.0,78.0,806.0,233.0,85.0,101.0,125,41,94,47,48
2025-03-20 16:11:51.217,107.0,196.0,886.0,183.0,124.0,99.0,133,29,96,42,70
2025-03-20 16:11:51.243,145.0,285.0,919.0,207.0,126.0,140.0,121,32,94,48,75
2025-03-20 16:11:51.261,-21.0,676.0,729.0,135.0,146.0,155.0,117,32,94,56,80
2025-03-20 16:11:51.292,-312.0,727.0,253.0,149.0,96.0,58.0,126,37,94,71,81
2025-03-20 16:11:51.316,-484.0,1298.0,159.0,161.0,-8.0,-27.0,136,33,93,68,81
2025-03-20 16:11:51.341,-933.0,2345.0,-286.0,163.0,-78.0,-160.0,135,34,95,55,88
2025-03-20 16:11:51.364,-1448.0,3256.0,-747.0,67.0,-132.0,-315.0,127,40,95,46,98
2025-03-20 16:11:51.379,-1341.0,2597.0,-1062.0,5.0,-268.0,-396.0,136,38,95,43,103
2025-03-20 16:11:51.411,95.0,1559.0,-129.0,46.0,-450.0,-364.0,139,37,95,62,103
2025-03-20 16:11:51.435,2432.0,-230.0,2065.0,-7.0,-453.0,-257.0,140,25,95,60,99
2025-03-20 16:11:51.460,3152.0,-1655.0,3492.0,-162.0,-139.0,-40.0,124,36,100,49,112
2025-03-20 16:11:51.484,2513.0,-2002.0,2449.0,-142.0,160.0,76.0,133,17,98,72,113
2025-03-20 16:11:51.508,1270.0,-1033.0,2163.0,-150.0,275.0,164.0,131,29,100,68,101
2025-03-20 16:11:51.533,147.0,94.0,529.0,-40.0,215.0,211.0,126,28,100,64,113
2025-03-20 16:11:51.555,-290.0,554.0,739.0,-92.0,154.0,208.0,120,20,106,69,116
2025-03-20 16:11:51.579,-136.0,549.0,795.0,-45.0,149.0,187.0,106,36,103,74,116
2025-03-20 16:11:51.603,-156.0,835.0,796.0,-20.0,167.0,187.0,118,39,102,80,108
2025-03-20 16:11:51.628,-269.0,676.0,568.0,13.0,198.0,190.0,119,35,100,46,107
2025-03-20 16:11:51.652,-476.0,973.0,257.0,19.0,153.0,91.0,116,38,98,57,91
2025-03-20 16:11:51.676,-391.0,927.0,454.0,-21.0,88.0,83.0,119,34,98,68,97
2025-03-20 16:11:51.701,-286.0,427.0,468.0,-28.0,88.0,100.0,119,37,99,84,101
2025-03-20 16:11:51.722,-380.0,590.0,283.0,42.0,88.0,106.0,118,38,101,78,98
2025-03-20 16:11:51.747,-603.0,1486.0,15.0,54.0,39.0,49.0,119,39,102,83,102
2025-03-20 16:11:51.771,-1046.0,2662.0,-845.0,-13.0,-12.0,-88.0,118,34,100,74,103
2025-03-20 16:11:51.796,-1800.0,3308.0,-2174.0,2.0,-198.0,-329.0,122,38,97,48,113
2025-03-20 16:11:51.820,-1112.0,3087.0,-1667.0,26.0,-580.0,-489.0,121,40,94,52,114
2025-03-20 16:11:51.845,2731.0,14.0,757.0,-105.0,-859.0,-411.0,117,38,97,68,111
2025-03-20 16:11:51.869,4930.0,-2397.0,4377.0,-191.0,-323.0,-68.0,127,40,99,80,112
2025-03-20 16:11:51.893,2884.0,-2341.0,2971.0,-173.0,234.0,21.0,113,31,104,84,106
2025-03-20 16:11:51.915,1041.0,-1401.0,1605.0,-143.0,341.0,135.0,115,39,103,80,100
2025-03-20 16:11:51.939,261.0,-312.0,1603.0,-292.0,379.0,187.0,109,38,102,56,52
2025-03-20 16:11:51.964,-366.0,-41.0,881.0,-268.0,321.0,257.0,99,38,103,68,40
2025-03-20 16:11:51.987,-34.0,202.0,1384.0,-137.0,288.0,277.0,101,40,104,75,85
2025-03-20 16:11:52.013,25.0,510.0,1027.0,-162.0,389.0,263.0,104,40,106,67,65
2025-03-20 16:11:52.037,-433.0,455.0,287.0,-117.0,332.0,246.0,110,42,107,75,61
2025-03-20 16:11:52.058,-663.0,302.0,255.0,43.0,358.0,195.0,107,32,104,32,71
2025-03-20 16:11:52.083,-866.0,868.0,-328.0,140.0,263.0,75.0,105,35,112,53,65
2025-03-20 16:11:52.107,-738.0,662.0,-256.0,25.0,141.0,-27.0,105,45,117,40,86
2025-03-20 16:11:52.131,-699.0,316.0,-247.0,40.0,117.0,-96.0,109,56,126,87,90
2025-03-20 16:11:52.156,-376.0,242.0,16.0,66.0,80.0,-112.0,116,58,124,98,92
2025-03-20 16:11:52.180,-421.0,813.0,-798.0,-75.0,-28.0,-92.0,111,71,123,103,94
2025-03-20 16:11:52.205,-445.0,1473.0,-2236.0,-111.0,-180.0,-219.0,119,67,127,102,96
2025-03-20 16:11:52.230,-416.0,1853.0,-2652.0,-146.0,-459.0,-437.0,112,73,132,102,104
2025-03-20 16:11:52.254,13.0,1325.0,-2520.0,-189.0,-712.0,-674.0,116,83,136,102,107
2025-03-20 16:11:52.275,2161.0,1252.0,-2199.0,-483.0,-935.0,-885.0,109,76,137,104,112
2025-03-20 16:11:52.303,8000.0,-3517.0,-160.0,-478.0,-988.0,-445.0,128,82,145,103,112
2025-03-20 16:11:52.325,5140.0,-7085.0,1841.0,-132.0,-104.0,119.0,131,94,145,103,113
2025-03-20 16:11:52.349,1640.0,-4903.0,3285.0,514.0,345.0,215.0,121,0,140,105,112
2025-03-20 16:11:52.373,351.0,-754.0,-25.0,272.0,379.0,264.0,115,37,138,107,111
2025-03-20 16:11:52.398,53.0,-771.0,509.0,-91.0,283.0,320.0,124,93,142,105,109
2025-03-20 16:11:52.422,-213.0,-826.0,645.0,34.0,213.0,267.0,131,95,143,107,113
2025-03-20 16:11:52.447,117.0,-624.0,822.0,158.0,283.0,240.0,116,91,143,104,110
2025-03-20 16:11:52.469,-101.0,-227.0,497.0,148.0,298.0,230.0,124,77,142,105,113
2025-03-20 16:11:52.492,-366.0,-160.0,92.0,63.0,230.0,235.0,117,85,141,106,113
2025-03-20 16:11:52.517,-181.0,-272.0,308.0,95.0,197.0,212.0,119,85,144,105,114
2025-03-20 16:11:52.538,-378.0,-123.0,98.0,90.0,205.0,166.0,106,85,142,105,114
2025-03-20 16:11:52.566,-601.0,193.0,274.0,28.0,151.0,132.0,109,80,142,106,114
2025-03-20 16:11:52.590,-519.0,9.0,323.0,23.0,140.0,90.0,114,86,141,106,113
2025-03-20 16:11:52.615,-838.0,218.0,447.0,83.0,146.0,67.0,119,87,142,105,114
2025-03-20 16:11:52.636,-750.0,511.0,-13.0,62.0,97.0,83.0,118,89,138,105,113
2025-03-20 16:11:52.660,-549.0,1453.0,-967.0,57.0,27.0,13.0,109,91,143,106,115
2025-03-20 16:11:52.685,-731.0,2344.0,-2437.0,32.0,-223.0,-261.0,118,95,142,106,113
2025-03-20 16:11:52.709,-628.0,2732.0,-2727.0,-95.0,-552.0,-675.0,121,94,143,108,119
2025-03-20 16:11:52.734,1061.0,1643.0,-1362.0,-222.0,-892.0,-894.0,107,99,144,108,122
2025-03-20 16:11:52.758,5194.0,-1046.0,537.0,-520.0,-1045.0,-839.0,121,88,145,106,118
2025-03-20 16:11:52.783,5374.0,-5895.0,1539.0,-403.0,-378.0,-237.0,131,98,145,106,113
2025-03-20 16:11:52.807,3389.0,-4513.0,1440.0,416.0,307.0,181.0,129,60,143,108,115
2025-03-20 16:11:52.832,402.0,-1575.0,225.0,482.0,498.0,222.0,128,40,141,107,116
2025-03-20 16:11:52.853,-120.0,-403.0,624.0,219.0,224.0,216.0,107,65,140,106,117
2025-03-20 16:11:52.878,-689.0,-789.0,-55.0,57.0,155.0,178.0,129,78,137,106,116
2025-03-20 16:11:52.900,-36.0,-792.0,380.0,141.0,131.0,153.0,123,74,129,104,115
2025-03-20 16:11:52.926,-100.0,-707.0,599.0,217.0,139.0,145.0,110,49,122,87,112
2025-03-20 16:11:52.950,-10.0,-406.0,767.0,219.0,186.0,214.0,117,31,108,0,103
2025-03-20 16:11:52.975,167.0,-492.0,245.0,268.0,195.0,231.0,87,27,104,0,97
2025-03-20 16:11:52.996,-8.0,-518.0,203.0,260.0,169.0,246.0,87,23,105,4,91
2025-03-20 16:11:53.021,-100.0,90.0,175.0,221.0,146.0,248.0,100,29,105,45,88
2025-03-20 16:11:53.044,-437.0,172.0,365.0,165.0,17.0,191.0,93,29,105,47,95
2025-03-20 16:11:53.069,-417.0,-13.0,262.0,186.0,-40.0,188.0,96,29,103,61,102
2025-03-20 16:11:53.093,-370.0,1138.0,-60.0,258.0,-24.0,144.0,95,38,104,79,111
2025-03-20 16:11:53.118,-1196.0,2707.0,-925.0,256.0,-62.0,-27.0,86,36,100,77,101
2025-03-20 16:11:53.143,-1982.0,3589.0,-1838.0,229.0,-225.0,-174.0,89,40,101,64,117
2025-03-20 16:11:53.161,-1506.0,3557.0,-1216.0,177.0,-486.0,-362.0,93,39,103,81,121
2025-03-20 16:11:53.189,1870.0,1364.0,1924.0,72.0,-593.0,-362.0,100,30,108,86,122
2025-03-20 16:11:53.208,3197.0,-907.0,4104.0,-78.0,-244.0,-215.0,100,12,112,79,123
2025-03-20 16:11:53.238,2332.0,-2175.0,3073.0,-66.0,57.0,-58.0,102,29,113,104,124
2025-03-20 16:11:53.262,1127.0,-1415.0,1977.0,-83.0,138.0,56.0,106,25,112,84,123
2025-03-20 16:11:53.287,287.0,-876.0,1102.0,-98.0,150.0,114.0,89,27,110,81,106
2025-03-20 16:11:53.311,-210.0,61.0,989.0,-55.0,137.0,134.0,95,26,110,84,75
2025-03-20 16:11:53.335,-502.0,301.0,1009.0,-68.0,110.0,130.0,95,33,114,97,97
2025-03-20 16:11:53.357,-305.0,284.0,910.0,-74.0,112.0,145.0,96,33,115,100,119
2025-03-20 16:11:53.381,-136.0,419.0,970.0,-60.0,137.0,146.0,102,38,116,100,116
2025-03-20 16:11:53.406,-438.0,580.0,583.0,-32.0,168.0,117.0,96,34,113,87,123
2025-03-20 16:11:53.429,-587.0,535.0,221.0,-12.0,122.0,109.0,96,38,112,87,126
2025-03-20 16:11:53.452,-448.0,556.0,395.0,-32.0,94.0,102.0,97,40,111,94,125
2025-03-20 16:11:53.479,-308.0,357.0,456.0,-14.0,103.0,124.0,102,39,113,95,126
2025-03-20 16:11:53.503,-564.0,946.0,271.0,35.0,88.0,111.0,106,39,115,98,127
2025-03-20 16:11:53.525,-851.0,2050.0,-173.0,8.0,55.0,38.0,108,38,114,95,125
2025-03-20 16:11:53.549,-1334.0,2799.0,-1316.0,6.0,24.0,-90.0,106,40,112,92,126
2025-03-20 16:11:53.574,-2147.0,3529.0,-2404.0,102.0,-187.0,-303.0,104,44,108,72,126
2025-03-20 16:11:53.598,-85.0,3224.0,-1331.0,0.0,-604.0,-528.0,104,41,104,87,127
2025-03-20 16:11:53.622,3951.0,-1704.0,2693.0,-205.0,-631.0,-344.0,110,40,110,84,127
2025-03-20 16:11:53.647,3942.0,-3373.0,4355.0,-123.0,19.0,-81.0,110,16,115,98,127
2025-03-20 16:11:53.671,1617.0,-2282.0,2386.0,-25.0,230.0,57.0,109,22,117,93,126
2025-03-20 16:11:53.695,346.0,-1126.0,1722.0,-158.0,221.0,134.0,117,36,112,97,111
2025-03-20 16:11:53.717,-432.0,-861.0,1139.0,-209.0,248.0,191.0,108,39,114,89,104
2025-03-20 16:11:53.742,-684.0,-133.0,1253.0,-106.0,215.0,230.0,100,38,117,90,50
2025-03-20 16:11:53.766,-562.0,326.0,669.0,-95.0,189.0,186.0,115,33,124,62,60
2025-03-20 16:11:53.790,-694.0,261.0,1004.0,-134.0,190.0,168.0,127,41,128,44,20
2025-03-20 16:11:53.814,-493.0,266.0,898.0,-28.0,280.0,144.0,125,58,132,59,37
2025-03-20 16:11:53.839,-649.0,506.0,623.0,17.0,285.0,137.0,121,64,135,69,46
2025-03-20 16:11:53.860,-551.0,678.0,612.0,-26.0,272.0,99.0,129,69,136,70,30
2025-03-20 16:11:53.885,-625.0,786.0,-11.0,-91.0,261.0,36.0,128,67,133,62,41
2025-03-20 16:11:53.909,-623.0,773.0,-673.0,-109.0,157.0,-71.0,124,79,141,68,11
2025-03-20 16:11:53.934,-559.0,1158.0,-990.0,-66.0,52.0,-201.0,129,76,141,65,27
2025-03-20 16:11:53.958,-332.0,1605.0,-1975.0,-152.0,-93.0,-332.0,122,67,141,71,28
2025-03-20 16:11:53.980,-168.0,1764.0,-2639.0,-122.0,-310.0,-510.0,114,76,143,2,27
2025-03-20 16:11:54.007,658.0,1267.0,-3168.0,2.0,-641.0,-661.0,119,98,145,62,30
2025-03-20 16:11:54.032,2217.0,378.0,-1802.0,118.0,-1018.0,-616.0,113,70,143,54,40
2025-03-20 16:11:54.051,5543.0,-1600.0,1502.0,-72.0,-1053.0,-435.0,112,63,146,67,46
2025-03-20 16:11:54.078,6138.0,-5130.0,4374.0,-87.0,-153.0,13.0,114,82,145,71,50
2025-03-20 16:11:54.088,2532.0,-3193.0,2711.0,371.0,391.0,70.0,106,34,144,49,46
2025-03-20 16:11:54.126,428.0,-1306.0,1608.0,18.0,309.0,188.0,105,77,143,61,40
2025-03-20 16:11:54.146,120.0,-1058.0,982.0,-97.0,255.0,229.0,108,87,143,73,43
2025-03-20 16:11:54.175,-53.0,-518.0,930.0,-2.0,272.0,191.0,118,91,145,70,33
2025-03-20 16:11:54.200,-296.0,-239.0,592.0,26.0,273.0,182.0,122,110,146,75,45
2025-03-20 16:11:54.221,-328.0,29.0,340.0,-15.0,210.0,165.0,123,109,145,80,48
2025-03-20 16:11:54.245,-109.0,23.0,417.0,-52.0,182.0,141.0,117,105,146,74,48
2025-03-20 16:11:54.270,-62.0,-229.0,561.0,-52.0,192.0,148.0,107,99,148,84,52
2025-03-20 16:11:54.294,-234.0,-249.0,385.0,-10.0,190.0,153.0,111,101,148,61,50
2025-03-20 16:11:54.317,-271.0,-148.0,378.0,39.0,184.0,111.0,113,105,145,80,52
2025-03-20 16:11:54.335,-324.0,-42.0,443.0,29.0,193.0,85.0,116,110,146,83,50
2025-03-20 16:11:54.367,-558.0,416.0,-142.0,-17.0,159.0,84.0,116,110,146,86,52
2025-03-20 16:11:54.388,-856.0,1294.0,-1410.0,23.0,75.0,-25.0,107,111,145,81,47
2025-03-20 16:11:54.412,-1690.0,2768.0,-3605.0,188.0,-235.0,-331.0,110,97,146,79,46
2025-03-20 16:11:54.438,-327.0,2564.0,-3350.0,185.0,-836.0,-599.0,113,102,146,87,45
2025-03-20 16:11:54.462,4542.0,-81.0,-538.0,61.0,-1228.0,-562.0,119,97,146,85,49
2025-03-20 16:11:54.486,6544.0,-4381.0,5450.0,153.0,-364.0,-78.0,128,72,146,80,57
2025-03-20 16:11:54.511,3102.0,-2928.0,3691.0,244.0,290.0,69.0,126,73,144,62,39
2025-03-20 16:11:54.536,257.0,-912.0,1527.0,101.0,282.0,103.0,125,88,140,69,53
2025-03-20 16:11:54.556,132.0,-1144.0,847.0,20.0,278.0,175.0,122,81,140,74,59
2025-03-20 16:11:54.581,57.0,-806.0,656.0,150.0,278.0,198.0,125,50,136,72,59
2025-03-20 16:11:54.606,-267.0,-284.0,324.0,184.0,234.0,234.0,131,37,123,63,49
2025-03-20 16:11:54.630,-358.0,-142.0,349.0,141.0,111.0,260.0,130,35,113,64,62
2025-03-20 16:11:54.655,134.0,-181.0,820.0,166.0,124.0,275.0,121,36,109,60,67
2025-03-20 16:11:54.678,-17.0,63.0,379.0,196.0,120.0,304.0,129,37,104,82,68
2025-03-20 16:11:54.703,-234.0,400.0,394.0,184.0,82.0,266.0,128,37,100,83,79
2025-03-20 16:11:54.725,-304.0,613.0,257.0,165.0,49.0,196.0,125,35,99,72,83
2025-03-20 16:11:54.749,-457.0,976.0,310.0,179.0,-11.0,112.0,129,39,104,82,78
2025-03-20 16:11:54.774,-707.0,1881.0,81.0,161.0,-43.0,44.0,129,38,100,90,100
2025-03-20 16:11:54.798,-1118.0,2857.0,-585.0,132.0,-119.0,-158.0,126,38,97,77,102
2025-03-20 16:11:54.823,-1375.0,3270.0,-1353.0,106.0,-209.0,-322.0,125,42,96,93,105
2025-03-20 16:11:54.843,-1165.0,2970.0,-1543.0,95.0,-423.0,-420.0,118,43,98,86,112
2025-03-20 16:11:54.872,999.0,1780.0,111.0,32.0,-605.0,-394.0,132,37,102,86,113
2025-03-20 16:11:54.896,3280.0,-810.0,2626.0,-80.0,-426.0,-249.0,129,25,111,71,105
2025-03-20 16:11:54.917,3264.0,-2303.0,3399.0,-67.0,-21.0,-79.0,133,22,114,86,108
2025-03-20 16:11:54.942,1985.0,-1793.0,2256.0,-70.0,134.0,68.0,129,14,115,89,115
2025-03-20 16:11:54.954,1047.0,-824.0,1785.0,-60.0,191.0,127.0,111,0,114,54,30
2025-03-20 16:11:54.990,-150.0,186.0,796.0,-49.0,137.0,149.0,121,28,114,81,67
2025-03-20 16:11:55.015,-373.0,420.0,958.0,-79.0,94.0,142.0,110,26,114,85,80
2025-03-20 16:11:55.039,-181.0,492.0,1368.0,-93.0,122.0,140.0,121,30,116,96,53
2025-03-20 16:11:55.061,-309.0,528.0,599.0,-27.0,145.0,119.0,113,37,116,81,57
2025-03-20 16:11:55.085,-379.0,607.0,575.0,20.0,145.0,97.0,116,40,115,81,86
2025-03-20 16:11:55.110,-370.0,719.0,525.0,-23.0,129.0,82.0,121,41,108,88,112
2025-03-20 16:11:55.133,-459.0,625.0,565.0,-14.0,118.0,75.0,124,41,109,94,110
2025-03-20 16:11:55.156,-475.0,573.0,379.0,35.0,97.0,51.0,126,46,109,96,119
2025-03-20 16:11:55.183,-488.0,799.0,233.0,35.0,77.0,50.0,125,43,113,95,120
2025-03-20 16:11:55.207,-695.0,1522.0,-34.0,-24.0,80.0,22.0,127,46,114,97,120
2025-03-20 16:11:55.232,-1462.0,2114.0,-1332.0,17.0,13.0,-92.0,120,48,116,94,121
2025-03-20 16:11:55.253,-2027.0,2899.0,-2363.0,125.0,-212.0,-238.0,124,43,112,94,116
2025-03-20 16:11:55.278,-612.0,2404.0,-1727.0,125.0,-561.0,-362.0,127,46,111,94,119
2025-03-20 16:11:55.302,2838.0,115.0,1492.0,37.0,-691.0,-284.0,132,37,115,83,111
2025-03-20 16:11:55.327,4066.0,-1635.0,4521.0,-128.0,-290.0,-70.0,132,40,105,89,116
2025-03-20 16:11:55.351,3004.0,-2370.0,3473.0,-94.0,138.0,21.0,135,36,106,93,121
2025-03-20 16:11:55.375,1207.0,-1171.0,2314.0,-9.0,269.0,90.0,135,34,114,86,115
2025-03-20 16:11:55.397,55.0,27.0,1554.0,-195.0,265.0,142.0,132,40,111,83,58
2025-03-20 16:11:55.420,-286.0,177.0,1127.0,-213.0,280.0,154.0,132,42,110,89,87
2025-03-20 16:11:55.446,-417.0,523.0,1337.0,-210.0,336.0,158.0,108,48,111,83,57
2025-03-20 16:11:55.470,-173.0,580.0,1246.0,-148.0,354.0,113.0,131,45,111,86,27
2025-03-20 16:11:55.495,70.0,483.0,1277.0,-107.0,429.0,60.0,131,32,112,53,30
2025-03-20 16:11:55.519,68.0,615.0,1145.0,-129.0,404.0,99.0,131,45,98,37,54
2025-03-20 16:11:55.543,-490.0,451.0,152.0,-198.0,353.0,122.0,131,46,96,70,52
2025-03-20 16:11:55.565,-313.0,282.0,-37.0,-175.0,301.0,109.0,132,52,95,63,40
2025-03-20 16:11:55.589,-239.0,269.0,-222.0,-151.0,304.0,90.0,129,50,92,71,46
2025-03-20 16:11:55.609,-809.0,407.0,-535.0,-84.0,201.0,49.0,127,49,93,65,31
2025-03-20 16:11:55.638,-255.0,883.0,-560.0,-79.0,132.0,14.0,127,46,96,79,42
2025-03-20 16:11:55.663,63.0,1209.0,-1455.0,-34.0,34.0,-33.0,126,48,95,81,36
2025-03-20 16:11:55.687,-31.0,2044.0,-3207.0,39.0,-140.0,-221.0,107,50,84,78,40
2025-03-20 16:11:55.711,-426.0,3029.0,-4564.0,-74.0,-580.0,-553.0,116,44,82,66,39
2025-03-20 16:11:55.735,1896.0,2241.0,-5018.0,-15.0,-1153.0,-863.0,120,21,80,74,40
2025-03-20 16:11:55.756,8892.0,-618.0,1599.0,247.0,-1584.0,-594.0,123,24,86,73,43
2025-03-20 16:11:55.782,9289.0,-5397.0,7989.0,331.0,40.0,117.0,90,25,96,65,29
2025-03-20 16:11:55.806,1723.0,-2508.0,3578.0,205.0,312.0,53.0,71,12,92,60,36
2025-03-20 16:11:55.830,35.0,-86.0,2503.0,-183.0,257.0,115.0,89,0,88,62,43
2025-03-20 16:11:55.855,-87.0,-759.0,1985.0,-174.0,338.0,153.0,109,41,87,74,42
2025-03-20 16:11:55.879,-633.0,-240.0,760.0,-94.0,314.0,198.0,112,29,88,79,45
2025-03-20 16:11:55.900,-471.0,142.0,634.0,-71.0,265.0,113.0,109,42,86,80,43
2025-03-20 16:11:55.925,-230.0,-163.0,679.0,-60.0,307.0,75.0,112,41,90,86,45
2025-03-20 16:11:55.950,-466.0,-341.0,281.0,-25.0,306.0,115.0,119,42,93,80,46
2025-03-20 16:11:55.974,-317.0,-218.0,111.0,2.0,256.0,156.0,100,30,90,82,46
2025-03-20 16:11:55.998,-407.0,-68.0,59.0,22.0,249.0,168.0,97,32,86,79,45
2025-03-20 16:11:56.022,-452.0,102.0,-50.0,39.0,236.0,119.0,113,47,89,80,43
2025-03-20 16:11:56.047,-493.0,170.0,72.0,46.0,205.0,110.0,113,47,89,83,35
2025-03-20 16:11:56.068,-589.0,537.0,-319.0,27.0,141.0,83.0,109,50,90,79,33
2025-03-20 16:11:56.093,-503.0,946.0,-1291.0,87.0,56.0,14.0,111,49,92,84,41
2025-03-20 16:11:56.113,-1067.0,2185.0,-3346.0,120.0,-170.0,-233.0,117,45,85,82,44
2025-03-20 16:11:56.132,-705.0,2716.0,-5116.0,-39.0,-707.0,-562.0,116,43,85,64,39
2025-03-20 16:11:56.167,2467.0,1400.0,-3990.0,179.0,-1352.0,-686.0,109,34,88,79,39
2025-03-20 16:11:56.191,8626.0,-2267.0,6133.0,505.0,-1107.0,-208.0,124,41,94,75,42
2025-03-20 16:11:56.215,4859.0,269.0,7068.0,313.0,189.0,-48.0,87,37,94,64,43
2025-03-20 16:11:56.236,245.0,-607.0,2326.0,-49.0,211.0,43.0,86,44,90,75,40
2025-03-20 16:11:56.260,-603.0,-247.0,1154.0,-256.0,142.0,4.0,112,32,89,62,41
2025-03-20 16:11:56.286,-560.0,-659.0,1437.0,-114.0,159.0,5.0,99,43,91,80,46
2025-03-20 16:11:56.309,-752.0,-179.0,139.0,13.0,62.0,-2.0,108,40,90,81,47
2025-03-20 16:11:56.332,-446.0,-208.0,519.0,-35.0,-42.0,-21.0,107,25,93,82,47
2025-03-20 16:11:56.347,304.0,-747.0,1240.0,-5.0,-6.0,1.0,109,46,94,82,49
2025-03-20 16:11:56.382,106.0,-451.0,1093.0,47.0,69.0,25.0,110,48,92,81,51
2025-03-20 16:11:56.400,-271.0,-119.0,790.0,26.0,51.0,12.0,111,41,90,81,47
2025-03-20 16:11:56.429,-358.0,-98.0,698.0,-34.0,-8.0,-2.0,102,44,89,82,48
2025-03-20 16:11:56.453,-54.0,-524.0,992.0,-26.0,-3.0,1.0,111,49,90,83,48
2025-03-20 16:11:56.476,-193.0,-369.0,888.0,29.0,39.0,7.0,112,50,91,83,49
2025-03-20 16:11:56.502,-332.0,-159.0,724.0,-6.0,7.0,-5.0,111,47,90,82,48
2025-03-20 16:11:56.512,-225.0,-279.0,728.0,-53.0,-41.0,-13.0,112,49,92,84,50
2025-03-20 16:11:56.550,46.0,-713.0,968.0,4.0,-12.0,1.0,114,50,95,83,49
2025-03-20 16:11:56.572,-117.0,-432.0,882.0,41.0,24.0,11.0,114,47,93,84,51
2025-03-20 16:11:56.596,-292.0,-202.0,805.0,8.0,-2.0,6.0,113,46,90,83,48
2025-03-20 16:11:56.621,-244.0,-314.0,959.0,-29.0,-24.0,-1.0,113,49,91,83,49
2025-03-20 16:11:56.645,-97.0,-459.0,1113.0,13.0,11.0,1.0,114,47,91,84,48
2025-03-20 16:11:56.670,-197.0,-364.0,1005.0,27.0,34.0,0.0,114,46,92,83,49
2025-03-20 16:11:56.694,-295.0,-199.0,892.0,-4.0,17.0,-3.0,115,48,94,84,49
2025-03-20 16:11:56.719,-267.0,-363.0,874.0,-42.0,-11.0,-11.0,115,47,93,82,50
2025-03-20 16:11:56.742,-142.0,-558.0,1017.0,8.0,10.0,-2.0,114,49,91,79,50
2025-03-20 16:11:56.765,-261.0,-323.0,964.0,2.0,13.0,1.0,114,48,92,84,50
2025-03-20 16:11:56.789,-269.0,-313.0,936.0,-32.0,-5.0,-4.0,114,49,92,84,49
2025-03-20 16:11:56.814,-139.0,-557.0,1048.0,-1.0,12.0,-4.0,112,49,91,84,49
2025-03-20 16:11:56.838,-255.0,-318.0,1028.0,12.0,30.0,2.0,110,49,91,84,49
2025-03-20 16:11:56.856,-313.0,-269.0,862.0,-17.0,13.0,-6.0,108,52,92,84,47
2025-03-20 16:11:56.876,-194.0,-513.0,924.0,-16.0,4.0,-5.0,107,49,92,84,49
2025-03-20 16:11:56.900,-205.0,-426.0,908.0,9.0,8.0,1.0,109,49,93,85,50
2025-03-20 16:11:56.932,-232.0,-372.0,911.0,-8.0,-2.0,0.0,109,49,94,85,51
2025-03-20 16:11:56.957,-222.0,-422.0,917.0,-12.0,0.0,0.0,109,50,93,86,50
2025-03-20 16:11:56.982,-239.0,-415.0,901.0,12.0,10.0,2.0,111,49,93,86,51
2025-03-20 16:11:57.006,-287.0,-331.0,854.0,10.0,0.0,-1.0,110,49,92,86,50
2025-03-20 16:11:57.029,-240.0,-392.0,929.0,-23.0,-15.0,-5.0,105,51,92,86,50
2025-03-20 16:11:57.055,-173.0,-533.0,957.0,5.0,-6.0,1.0,110,49,92,83,49
2025-03-20 16:11:57.076,-215.0,-384.0,929.0,11.0,7.0,4.0,110,50,90,85,50
2025-03-20 16:11:57.099,-285.0,-332.0,844.0,-5.0,0.0,-1.0,110,48,93,86,52
2025-03-20 16:11:57.125,-214.0,-444.0,896.0,-12.0,-9.0,-2.0,111,51,91,86,50
2025-03-20 16:11:57.147,-196.0,-504.0,927.0,15.0,2.0,4.0,111,51,94,87,50
2025-03-20 16:11:57.174,-250.0,-326.0,916.0,0.0,1.0,2.0,112,51,97,86,51
2025-03-20 16:11:57.199,-278.0,-330.0,889.0,-19.0,-10.0,-2.0,109,52,93,86,51
2025-03-20 16:11:57.223,-184.0,-507.0,958.0,10.0,5.0,3.0,110,51,91,85,50
2025-03-20 16:11:57.246,-277.0,-318.0,898.0,17.0,8.0,4.0,111,50,94,85,50
2025-03-20 16:11:57.269,-308.0,-276.0,880.0,-11.0,-6.0,-3.0,111,50,93,86,49
2025-03-20 16:11:57.293,-178.0,-504.0,980.0,-13.0,-4.0,-3.0,111,51,93,85,50
2025-03-20 16:11:57.317,-199.0,-447.0,972.0,25.0,16.0,5.0,111,49,94,86,51
2025-03-20 16:11:57.342,-300.0,-261.0,881.0,-3.0,4.0,0.0,113,51,93,87,51
2025-03-20 16:11:57.366,-271.0,-353.0,910.0,-28.0,-15.0,-7.0,112,51,94,87,51
2025-03-20 16:11:57.391,-147.0,-542.0,974.0,26.0,12.0,4.0,113,50,94,87,51
2025-03-20 16:11:57.415,-292.0,-280.0,888.0,11.0,11.0,2.0,111,50,94,87,52
2025-03-20 16:11:57.437,-335.0,-268.0,866.0,-30.0,-12.0,-7.0,112,50,94,86,51
2025-03-20 16:11:57.460,-137.0,-592.0,1006.0,6.0,3.0,2.0,112,51,93,87,50
2025-03-20 16:11:57.486,-276.0,-296.0,876.0,18.0,14.0,2.0,112,50,93,86,50
2025-03-20 16:11:57.510,-336.0,-222.0,816.0,-25.0,-13.0,-7.0,113,51,93,87,52
2025-03-20 16:11:57.534,-165.0,-552.0,940.0,-18.0,-14.0,-5.0,113,51,95,86,51
2025-03-20 16:11:57.559,-205.0,-397.0,953.0,21.0,10.0,2.0,113,51,94,87,52
2025-03-20 16:11:57.583,-331.0,-253.0,839.0,-13.0,-7.0,-5.0,112,52,94,87,51
2025-03-20 16:11:57.604,-202.0,-482.0,956.0,-15.0,-11.0,-7.0,113,51,94,86,52
2025-03-20 16:11:57.628,-187.0,-486.0,961.0,25.0,12.0,3.0,112,51,93,87,50
2025-03-20 16:11:57.653,-284.0,-290.0,888.0,2.0,4.0,-1.0,111,48,93,87,51
2025-03-20 16:11:57.677,-294.0,-347.0,891.0,-27.0,-14.0,-5.0,112,51,93,86,51
2025-03-20 16:11:57.701,-181.0,-542.0,963.0,3.0,0.0,1.0,113,51,91,87,51
2025-03-20 16:11:57.727,-255.0,-360.0,915.0,18.0,7.0,3.0,113,52,94,87,51
2025-03-20 16:11:57.750,-284.0,-319.0,898.0,-14.0,-8.0,-3.0,113,52,94,88,52
2025-03-20 16:11:57.772,-230.0,-416.0,970.0,-13.0,-6.0,-3.0,113,53,94,88,51
2025-03-20 16:11:57.796,-213.0,-498.0,940.0,11.0,10.0,2.0,114,52,94,88,52
2025-03-20 16:11:57.821,-263.0,-338.0,876.0,12.0,6.0,3.0,113,51,94,87,52
2025-03-20 16:11:57.845,-269.0,-342.0,901.0,-19.0,-8.0,-1.0,113,51,94,87,51
2025-03-20 16:11:57.870,-187.0,-515.0,944.0,5.0,1.0,4.0,113,51,92,86,51
2025-03-20 16:11:57.895,-263.0,-333.0,912.0,9.0,6.0,3.0,113,51,89,87,51
2025-03-20 16:11:57.919,-301.0,-325.0,857.0,-12.0,-6.0,-2.0,113,53,94,88,52
2025-03-20 16:11:57.939,-211.0,-477.0,936.0,-10.0,-4.0,0.0,113,52,95,86,52
2025-03-20 16:11:57.954,-225.0,-417.0,937.0,9.0,6.0,4.0,114,52,95,86,47
2025-03-20 16:11:57.989,-287.0,-319.0,878.0,-3.0,-1.0,2.0,113,52,95,88,53
2025-03-20 16:11:58.014,-249.0,-384.0,913.0,-13.0,-7.0,-2.0,113,52,94,82,52
2025-03-20 16:11:58.038,-230.0,-428.0,929.0,8.0,0.0,3.0,113,51,93,86,50
2025-03-20 16:11:58.063,-256.0,-361.0,939.0,-8.0,-2.0,0.0,113,51,94,87,51
2025-03-20 16:11:58.087,-249.0,-393.0,918.0,-2.0,1.0,1.0,113,51,93,87,55
