timestamp,ax,ay,az,gx,gy,gz,flex1,flex2,flex3,flex4,flex5,emg1,emg2,emg3
2025-03-20 15:49:50.612,-632.0,112.0,772.0,0.0,2.0,-3.0,119,82,134,99,101
2025-03-20 15:49:50.615,-638.0,108.0,771.0,-3.0,0.0,-2.0,119,81,134,99,102
2025-03-20 15:49:50.617,-624.0,100.0,780.0,-1.0,-2.0,0.0,119,82,133,98,102
2025-03-20 15:49:50.619,-633.0,112.0,782.0,-1.0,-1.0,0.0,119,82,134,99,101
2025-03-20 15:49:50.621,-637.0,109.0,787.0,1.0,-2.0,1.0,119,82,134,98,101
2025-03-20 15:49:50.623,-646.0,135.0,807.0,0.0,-1.0,1.0,120,82,133,101,101
2025-03-20 15:49:50.625,-640.0,133.0,807.0,-3.0,0.0,0.0,119,82,135,100,101
2025-03-20 15:49:50.628,-632.0,121.0,796.0,-1.0,0.0,0.0,120,82,134,100,101
2025-03-20 15:49:50.630,-632.0,131.0,797.0,0.0,-1.0,0.0,120,82,133,98,102
2025-03-20 15:49:50.632,-645.0,125.0,784.0,-1.0,-2.0,1.0,120,82,134,99,102
2025-03-20 15:49:50.635,-634.0,136.0,805.0,0.0,-3.0,0.0,119,81,134,99,102
2025-03-20 15:49:50.656,-634.0,142.0,804.0,-1.0,-1.0,-1.0,120,82,133,99,102
2025-03-20 15:49:50.670,-631.0,137.0,804.0,0.0,-1.0,-1.0,120,82,135,100,101
2025-03-20 15:49:50.703,-640.0,139.0,801.0,-1.0,0.0,-2.0,120,81,133,100,102
2025-03-20 15:49:50.727,-636.0,139.0,801.0,-4.0,0.0,-2.0,120,82,134,100,102
2025-03-20 15:49:50.752,-636.0,128.0,795.0,-4.0,-1.0,-2.0,120,81,133,100,102
2025-03-20 15:49:50.775,-629.0,126.0,796.0,-3.0,-1.0,-2.0,120,81,134,99,102
2025-03-20 15:49:50.800,-633.0,116.0,796.0,-1.0,-1.0,0.0,119,81,134,100,102
2025-03-20 15:49:50.824,-640.0,129.0,797.0,-3.0,-1.0,-1.0,120,81,133,100,101
2025-03-20 15:49:50.846,-638.0,125.0,803.0,-3.0,-1.0,0.0,120,82,134,99,101
2025-03-20 15:49:50.870,-641.0,115.0,788.0,0.0,0.0,0.0,120,85,134,98,101
2025-03-20 15:49:50.895,-640.0,146.0,820.0,-3.0,-1.0,0.0,120,81,134,99,101
2025-03-20 15:49:50.919,-633.0,118.0,813.0,-7.0,2.0,-2.0,120,82,134,99,102
2025-03-20 15:49:50.944,-631.0,110.0,819.0,-7.0,3.0,-1.0,116,82,134,100,102
2025-03-20 15:49:50.968,-641.0,125.0,853.0,1.0,3.0,0.0,120,82,134,100,102
2025-03-20 15:49:50.992,-638.0,116.0,784.0,0.0,-1.0,0.0,120,81,134,99,102
2025-03-20 15:49:51.014,-631.0,126.0,798.0,-2.0,1.0,-1.0,119,82,135,100,101
2025-03-20 15:49:51.035,-639.0,122.0,800.0,1.0,0.0,0.0,115,82,134,100,101
2025-03-20 15:49:51.059,-645.0,130.0,799.0,-1.0,1.0,0.0,112,81,134,99,101
2025-03-20 15:49:51.086,-644.0,100.0,791.0,1.0,1.0,-1.0,109,81,134,99,102
2025-03-20 15:49:51.112,-646.0,112.0,779.0,-1.0,3.0,1.0,121,82,135,100,102
2025-03-20 15:49:51.133,-635.0,151.0,803.0,-3.0,1.0,0.0,120,81,133,100,102
2025-03-20 15:49:51.160,-620.0,121.0,785.0,0.0,-2.0,-1.0,120,82,134,102,102
2025-03-20 15:49:51.182,-639.0,114.0,797.0,0.0,-1.0,0.0,121,82,133,101,101
2025-03-20 15:49:51.207,-646.0,121.0,808.0,0.0,1.0,0.0,120,81,132,99,100
2025-03-20 15:49:51.231,-645.0,126.0,778.0,-2.0,1.0,0.0,121,82,134,99,102
2025-03-20 15:49:51.255,-649.0,126.0,782.0,0.0,-5.0,-1.0,121,81,134,99,102
2025-03-20 15:49:51.279,-637.0,100.0,796.0,-2.0,-4.0,0.0,121,81,133,99,102
2025-03-20 15:49:51.302,-634.0,120.0,811.0,1.0,-1.0,0.0,121,81,134,97,101
2025-03-20 15:49:51.325,-647.0,125.0,797.0,-4.0,-1.0,0.0,121,82,133,100,104
2025-03-20 15:49:51.350,-634.0,127.0,802.0,-1.0,-1.0,-1.0,121,82,134,100,102
2025-03-20 15:49:51.374,-636.0,106.0,789.0,-2.0,0.0,0.0,121,83,134,100,102
2025-03-20 15:49:51.398,-634.0,124.0,790.0,-2.0,0.0,1.0,122,81,134,100,102
2025-03-20 15:49:51.423,-640.0,124.0,777.0,-1.0,-2.0,1.0,120,81,134,98,102
2025-03-20 15:49:51.447,-633.0,123.0,811.0,2.0,-2.0,1.0,122,81,134,100,101
2025-03-20 15:49:51.471,-639.0,124.0,785.0,0.0,-2.0,1.0,122,81,133,100,102
2025-03-20 15:49:51.496,-633.0,136.0,804.0,-2.0,-2.0,1.0,121,80,134,99,102
2025-03-20 15:49:51.514,-637.0,134.0,805.0,0.0,0.0,1.0,121,82,134,100,102
2025-03-20 15:49:51.539,-632.0,152.0,813.0,-1.0,0.0,0.0,122,80,134,100,102
2025-03-20 15:49:51.567,-637.0,150.0,787.0,-3.0,-1.0,-1.0,122,80,134,100,102
2025-03-20 15:49:51.591,-641.0,134.0,794.0,-1.0,0.0,-1.0,121,80,134,100,103
2025-03-20 15:49:51.616,-638.0,139.0,800.0,0.0,1.0,-1.0,120,81,133,100,104
2025-03-20 15:49:51.639,-646.0,123.0,789.0,0.0,1.0,-1.0,121,80,134,99,102
2025-03-20 15:49:51.664,-642.0,132.0,772.0,-2.0,2.0,-1.0,121,77,135,99,104
2025-03-20 15:49:51.685,-638.0,133.0,777.0,-1.0,-1.0,0.0,120,80,133,99,101
2025-03-20 15:49:51.708,-641.0,125.0,774.0,0.0,-1.0,0.0,121,81,134,100,102
2025-03-20 15:49:51.734,-635.0,138.0,788.0,0.0,0.0,0.0,121,81,135,100,102
2025-03-20 15:49:51.759,-632.0,155.0,777.0,-1.0,-1.0,-1.0,121,80,135,100,102
2025-03-20 15:49:51.780,-633.0,129.0,785.0,-3.0,-1.0,-1.0,121,80,134,99,102
2025-03-20 15:49:51.808,-640.0,125.0,791.0,0.0,-1.0,0.0,121,82,134,100,102
2025-03-20 15:49:51.830,-643.0,140.0,800.0,-2.0,0.0,-1.0,121,81,135,100,101
2025-03-20 15:49:51.853,-640.0,118.0,772.0,-3.0,-2.0,-1.0,121,82,126,100,102
2025-03-20 15:49:51.877,-644.0,135.0,790.0,0.0,-2.0,-1.0,121,80,135,98,102
2025-03-20 15:49:51.902,-642.0,137.0,796.0,-2.0,-1.0,-2.0,121,76,133,100,102
2025-03-20 15:49:51.927,-635.0,132.0,789.0,-4.0,-1.0,-2.0,121,81,134,100,102
2025-03-20 15:49:51.951,-639.0,113.0,783.0,-1.0,-2.0,0.0,121,80,132,100,102
2025-03-20 15:49:51.976,-631.0,128.0,785.0,1.0,-2.0,0.0,121,81,135,100,103
2025-03-20 15:49:51.999,-639.0,140.0,807.0,-1.0,-1.0,0.0,122,81,134,100,104
2025-03-20 15:49:52.023,-641.0,142.0,792.0,-2.0,-3.0,-2.0,120,80,133,99,101
2025-03-20 15:49:52.046,-633.0,114.0,793.0,-2.0,-2.0,-1.0,120,81,134,100,99
2025-03-20 15:49:52.070,-635.0,132.0,801.0,1.0,-2.0,-1.0,121,79,134,103,102
2025-03-20 15:49:52.095,-640.0,124.0,797.0,-1.0,-2.0,-1.0,121,81,134,101,102
2025-03-20 15:49:52.120,-641.0,129.0,812.0,1.0,-1.0,-1.0,121,80,134,99,102
2025-03-20 15:49:52.143,-640.0,124.0,799.0,-1.0,-1.0,-1.0,121,81,133,99,103
2025-03-20 15:49:52.168,-636.0,122.0,796.0,0.0,-1.0,0.0,122,81,134,99,103
2025-03-20 15:49:52.192,-628.0,132.0,792.0,-3.0,0.0,-1.0,122,82,135,101,103
2025-03-20 15:49:52.214,-636.0,125.0,788.0,-5.0,-2.0,-1.0,121,81,134,98,102
2025-03-20 15:49:52.238,-630.0,109.0,790.0,1.0,-3.0,0.0,121,80,135,103,102
2025-03-20 15:49:52.263,-636.0,141.0,811.0,-1.0,-2.0,0.0,121,80,133,100,101
2025-03-20 15:49:52.287,-628.0,120.0,789.0,-1.0,-2.0,0.0,121,81,133,100,102
2025-03-20 15:49:52.311,-620.0,122.0,809.0,0.0,-2.0,0.0,121,81,134,99,101
2025-03-20 15:49:52.333,-628.0,135.0,812.0,2.0,-1.0,0.0,122,80,135,100,102
2025-03-20 15:49:52.361,-634.0,147.0,818.0,-1.0,1.0,0.0,123,81,135,100,101
2025-03-20 15:49:52.382,-635.0,142.0,792.0,-4.0,1.0,-1.0,125,81,134,101,103
2025-03-20 15:49:52.394,-632.0,136.0,788.0,-1.0,0.0,-1.0,122,81,133,99,103
2025-03-20 15:49:52.431,-641.0,130.0,789.0,0.0,1.0,0.0,121,80,134,100,102
2025-03-20 15:49:52.455,-641.0,138.0,779.0,-2.0,-1.0,0.0,122,80,133,101,102
2025-03-20 15:49:52.479,-634.0,136.0,793.0,0.0,-2.0,0.0,122,80,134,100,102
2025-03-20 15:49:52.503,-634.0,143.0,794.0,1.0,-1.0,-1.0,121,81,136,100,102
2025-03-20 15:49:52.523,-638.0,140.0,794.0,-1.0,-1.0,-1.0,122,81,133,101,103
2025-03-20 15:49:52.550,-625.0,134.0,803.0,-2.0,-1.0,-1.0,122,82,134,101,102
2025-03-20 15:49:52.574,-629.0,129.0,803.0,-1.0,-1.0,-1.0,122,81,133,101,103
2025-03-20 15:49:52.598,-632.0,130.0,793.0,1.0,0.0,-1.0,122,81,134,100,102
2025-03-20 15:49:52.623,-638.0,137.0,789.0,-3.0,0.0,-1.0,121,81,134,100,107
2025-03-20 15:49:52.647,-634.0,130.0,791.0,-3.0,-1.0,-1.0,121,81,134,99,102
2025-03-20 15:49:52.672,-626.0,124.0,800.0,0.0,0.0,0.0,121,81,133,99,102
2025-03-20 15:49:52.696,-632.0,138.0,785.0,-1.0,0.0,-1.0,121,81,133,100,102
2025-03-20 15:49:52.717,-638.0,132.0,784.0,-2.0,-1.0,-2.0,121,81,133,100,102
2025-03-20 15:49:52.742,-640.0,139.0,788.0,0.0,-1.0,-1.0,122,81,134,99,102
2025-03-20 15:49:52.766,-623.0,140.0,806.0,-1.0,1.0,-2.0,121,81,134,100,101
2025-03-20 15:49:52.790,-635.0,125.0,787.0,-1.0,2.0,-3.0,122,82,134,101,104
2025-03-20 15:49:52.816,-649.0,144.0,791.0,-1.0,-1.0,-3.0,122,82,135,100,102
2025-03-20 15:49:52.840,-629.0,119.0,814.0,1.0,-2.0,-3.0,120,83,134,101,103
2025-03-20 15:49:52.864,-619.0,129.0,789.0,-1.0,-2.0,-3.0,121,80,128,100,102
2025-03-20 15:49:52.886,-640.0,136.0,811.0,1.0,-2.0,-3.0,120,81,134,100,102
2025-03-20 15:49:52.910,-629.0,130.0,811.0,2.0,-1.0,-4.0,121,81,133,103,101
2025-03-20 15:49:52.935,-647.0,136.0,808.0,1.0,0.0,-3.0,122,81,135,100,103
2025-03-20 15:49:52.958,-640.0,131.0,803.0,-2.0,-1.0,-4.0,121,82,133,100,102
2025-03-20 15:49:52.982,-633.0,113.0,808.0,0.0,0.0,-3.0,119,82,133,100,102
2025-03-20 15:49:53.008,-635.0,139.0,806.0,1.0,1.0,-2.0,121,81,134,99,102
2025-03-20 15:49:53.029,-635.0,128.0,776.0,-4.0,0.0,-3.0,121,82,137,100,103
2025-03-20 15:49:53.057,-637.0,106.0,779.0,-1.0,-1.0,-2.0,121,81,134,100,101
2025-03-20 15:49:53.078,-635.0,114.0,799.0,0.0,-1.0,-1.0,121,81,133,100,102
2025-03-20 15:49:53.102,-635.0,124.0,801.0,0.0,-1.0,-1.0,122,81,131,100,102
2025-03-20 15:49:53.126,-641.0,111.0,798.0,-1.0,-1.0,-1.0,121,81,133,100,102
2025-03-20 15:49:53.143,-638.0,119.0,806.0,0.0,-1.0,1.0,120,82,133,100,102
2025-03-20 15:49:53.176,-635.0,128.0,805.0,-3.0,0.0,-1.0,122,82,134,99,102
2025-03-20 15:49:53.200,-632.0,108.0,794.0,-3.0,0.0,0.0,121,81,134,99,103
2025-03-20 15:49:53.222,-634.0,101.0,783.0,-1.0,0.0,2.0,122,88,133,99,106
2025-03-20 15:49:53.246,-642.0,125.0,786.0,-1.0,-2.0,2.0,122,81,134,100,102
2025-03-20 15:49:53.271,-634.0,135.0,796.0,-3.0,-2.0,1.0,120,81,133,100,105
2025-03-20 15:49:53.295,-631.0,135.0,803.0,-2.0,1.0,1.0,121,80,134,100,102
2025-03-20 15:49:53.319,-643.0,141.0,790.0,-2.0,1.0,0.0,121,81,134,100,102
2025-03-20 15:49:53.344,-642.0,148.0,786.0,0.0,0.0,0.0,121,80,135,100,103
2025-03-20 15:49:53.368,-638.0,143.0,797.0,-2.0,0.0,-1.0,121,82,134,100,103
2025-03-20 15:49:53.393,-638.0,137.0,785.0,-1.0,-1.0,-1.0,121,82,135,100,103
2025-03-20 15:49:53.414,-632.0,131.0,784.0,-1.0,0.0,-1.0,121,82,133,100,103
2025-03-20 15:49:53.438,-633.0,127.0,783.0,-3.0,0.0,-1.0,120,83,135,101,102
2025-03-20 15:49:53.462,-634.0,134.0,787.0,-2.0,-2.0,-1.0,121,84,133,101,99
2025-03-20 15:49:53.486,-632.0,134.0,791.0,0.0,-1.0,-1.0,121,81,133,100,103
2025-03-20 15:49:53.501,-635.0,127.0,796.0,0.0,0.0,0.0,120,80,133,101,102
2025-03-20 15:49:53.536,-640.0,143.0,795.0,-1.0,0.0,-1.0,122,81,134,99,102
2025-03-20 15:49:53.561,-646.0,131.0,787.0,-1.0,-2.0,-2.0,121,81,135,101,102
2025-03-20 15:49:53.582,-636.0,121.0,788.0,0.0,-2.0,-1.0,121,82,133,101,104
2025-03-20 15:49:53.606,-635.0,122.0,797.0,1.0,0.0,-1.0,122,82,134,102,103
2025-03-20 15:49:53.631,-644.0,137.0,790.0,-1.0,-1.0,-1.0,121,80,134,101,102
2025-03-20 15:49:53.655,-638.0,124.0,796.0,-1.0,-3.0,-1.0,122,81,134,100,103
2025-03-20 15:49:53.679,-638.0,122.0,806.0,0.0,-1.0,0.0,121,80,134,100,102
2025-03-20 15:49:53.701,-634.0,135.0,802.0,0.0,0.0,0.0,122,81,134,98,102
2025-03-20 15:49:53.728,-643.0,137.0,795.0,0.0,0.0,-1.0,121,81,134,100,102
2025-03-20 15:49:53.750,-636.0,131.0,802.0,-1.0,0.0,-1.0,122,82,134,100,103
2025-03-20 15:49:53.774,-635.0,134.0,798.0,-1.0,0.0,-1.0,121,82,135,100,102
2025-03-20 15:49:53.799,-631.0,132.0,796.0,-2.0,0.0,-1.0,122,82,134,101,102
2025-03-20 15:49:53.822,-638.0,127.0,789.0,-2.0,0.0,-1.0,122,82,135,101,103
2025-03-20 15:49:53.848,-635.0,132.0,780.0,-2.0,-1.0,-1.0,121,82,133,101,102
2025-03-20 15:49:53.872,-642.0,129.0,791.0,-1.0,-2.0,-1.0,121,82,134,101,103
2025-03-20 15:49:53.897,-639.0,130.0,803.0,0.0,-2.0,0.0,122,81,134,100,102
2025-03-20 15:49:53.918,-636.0,135.0,810.0,-1.0,-1.0,0.0,120,81,133,100,102
2025-03-20 15:49:53.942,-631.0,132.0,805.0,-2.0,-1.0,-1.0,121,81,133,100,103
2025-03-20 15:49:53.967,-635.0,129.0,805.0,-1.0,1.0,-1.0,122,81,134,100,101
2025-03-20 15:49:53.991,-637.0,133.0,797.0,-1.0,1.0,-1.0,121,81,133,103,103
2025-03-20 15:49:54.016,-642.0,133.0,789.0,-2.0,1.0,0.0,122,83,134,101,102
2025-03-20 15:49:54.040,-639.0,136.0,775.0,-1.0,-1.0,0.0,121,82,135,100,102
2025-03-20 15:49:54.064,-641.0,145.0,785.0,-1.0,0.0,-1.0,122,81,134,101,102
2025-03-20 15:49:54.086,-641.0,136.0,784.0,-2.0,-1.0,-1.0,121,82,133,99,102
2025-03-20 15:49:54.110,-642.0,130.0,787.0,-3.0,-2.0,-1.0,122,80,135,92,102
2025-03-20 15:49:54.134,-637.0,124.0,792.0,2.0,-2.0,-1.0,122,81,134,100,102
2025-03-20 15:49:54.158,-638.0,134.0,794.0,-1.0,-1.0,-1.0,121,82,134,100,102
2025-03-20 15:49:54.183,-644.0,132.0,792.0,1.0,0.0,-1.0,121,81,133,101,102
2025-03-20 15:49:54.208,-639.0,138.0,803.0,-3.0,-1.0,-2.0,121,81,134,98,103
2025-03-20 15:49:54.232,-635.0,119.0,792.0,-2.0,-1.0,-2.0,122,81,133,101,102
2025-03-20 15:49:54.254,-642.0,123.0,796.0,0.0,1.0,-1.0,121,82,134,101,103
2025-03-20 15:49:54.278,-645.0,141.0,786.0,0.0,0.0,-2.0,120,81,134,102,102
2025-03-20 15:49:54.302,-642.0,130.0,781.0,-2.0,-1.0,-3.0,121,80,135,101,102
2025-03-20 15:49:54.327,-636.0,113.0,787.0,0.0,-2.0,-2.0,121,83,134,100,102
2025-03-20 15:49:54.351,-641.0,116.0,791.0,0.0,0.0,-1.0,120,81,132,100,102
2025-03-20 15:49:54.376,-649.0,131.0,789.0,2.0,-1.0,-1.0,121,82,134,102,102
2025-03-20 15:49:54.400,-649.0,145.0,795.0,0.0,-3.0,-2.0,122,82,133,101,103
2025-03-20 15:49:54.424,-628.0,128.0,841.0,-3.0,-1.0,-2.0,122,82,134,100,100
2025-03-20 15:49:54.446,-633.0,124.0,791.0,-1.0,0.0,-1.0,122,81,134,101,104
2025-03-20 15:49:54.471,-645.0,127.0,791.0,-2.0,-1.0,-2.0,121,83,131,101,103
2025-03-20 15:49:54.495,-633.0,138.0,800.0,-1.0,-2.0,-2.0,120,81,134,102,102
2025-03-20 15:49:54.519,-635.0,120.0,797.0,-3.0,1.0,-2.0,122,81,133,101,102
2025-03-20 15:49:54.537,-635.0,128.0,794.0,-1.0,0.0,-2.0,122,81,132,100,101
2025-03-20 15:49:54.568,-631.0,135.0,787.0,-3.0,-1.0,-2.0,124,81,132,99,102
2025-03-20 15:49:54.593,-635.0,131.0,790.0,-5.0,-1.0,-2.0,121,81,134,99,103
2025-03-20 15:49:54.614,-646.0,127.0,778.0,-6.0,-1.0,-2.0,122,82,135,101,102
2025-03-20 15:49:54.638,-633.0,119.0,785.0,-4.0,-1.0,-2.0,122,82,135,100,103
2025-03-20 15:49:54.663,-639.0,133.0,782.0,0.0,-2.0,-2.0,122,81,134,101,103
2025-03-20 15:49:54.687,-647.0,134.0,785.0,-3.0,-2.0,-3.0,122,82,136,100,103
2025-03-20 15:49:54.711,-643.0,120.0,786.0,-1.0,-3.0,-2.0,121,81,133,101,103
2025-03-20 15:49:54.736,-640.0,140.0,805.0,1.0,-3.0,-3.0,120,82,130,100,102
2025-03-20 15:49:54.761,-640.0,130.0,805.0,0.0,-2.0,-4.0,123,81,134,100,103
2025-03-20 15:49:54.782,-638.0,131.0,800.0,-2.0,0.0,-4.0,121,82,134,100,101
2025-03-20 15:49:54.807,-636.0,117.0,783.0,-4.0,-1.0,-4.0,122,84,134,99,103
2025-03-20 15:49:54.826,-627.0,127.0,802.0,-3.0,-2.0,-5.0,121,82,133,100,103
2025-03-20 15:49:54.855,-636.0,89.0,750.0,-1.0,-2.0,-4.0,122,81,133,101,103
2025-03-20 15:49:54.880,-630.0,113.0,750.0,-3.0,-5.0,-4.0,121,82,133,100,104
2025-03-20 15:49:54.904,-629.0,99.0,766.0,-5.0,-6.0,-4.0,121,82,134,100,102
2025-03-20 15:49:54.928,-627.0,69.0,773.0,0.0,-9.0,-3.0,121,81,133,100,103
2025-03-20 15:49:54.950,-622.0,97.0,789.0,2.0,-11.0,-1.0,121,80,135,99,103
2025-03-20 15:49:54.961,-624.0,123.0,812.0,1.0,-12.0,0.0,122,81,134,100,102
2025-03-20 15:49:54.999,-652.0,97.0,780.0,-5.0,-7.0,-2.0,122,82,134,101,103
2025-03-20 15:49:55.022,-614.0,138.0,904.0,-1.0,-6.0,-1.0,122,82,135,101,103
2025-03-20 15:49:55.048,-616.0,137.0,835.0,1.0,-2.0,-1.0,122,82,133,102,102
2025-03-20 15:49:55.073,-627.0,134.0,820.0,-2.0,-2.0,-3.0,122,82,135,102,103
2025-03-20 15:49:55.096,-628.0,139.0,824.0,-5.0,-4.0,-5.0,122,82,134,101,103
2025-03-20 15:49:55.118,-612.0,113.0,829.0,-4.0,-6.0,-5.0,121,82,134,101,102
2025-03-20 15:49:55.142,-606.0,99.0,839.0,-3.0,-2.0,-4.0,121,82,133,102,103
2025-03-20 15:49:55.167,-611.0,98.0,833.0,3.0,-1.0,-3.0,122,81,133,100,103
2025-03-20 15:49:55.191,-614.0,101.0,817.0,4.0,0.0,-2.0,121,82,134,100,103
2025-03-20 15:49:55.215,-613.0,111.0,822.0,1.0,-1.0,-1.0,122,81,133,99,102
2025-03-20 15:49:55.241,-617.0,104.0,814.0,-2.0,-2.0,-2.0,121,82,137,101,103
2025-03-20 15:49:55.265,-617.0,109.0,800.0,0.0,-2.0,-3.0,122,80,135,100,102
2025-03-20 15:49:55.286,-620.0,114.0,795.0,0.0,-3.0,-3.0,122,82,134,100,103
2025-03-20 15:49:55.310,-612.0,121.0,792.0,-1.0,-3.0,-6.0,122,83,134,101,102
2025-03-20 15:49:55.333,-612.0,103.0,796.0,-4.0,-3.0,-6.0,122,77,135,101,101
2025-03-20 15:49:55.359,-616.0,101.0,795.0,-5.0,-3.0,-7.0,121,81,135,101,105
2025-03-20 15:49:55.384,-612.0,93.0,815.0,-3.0,-3.0,-7.0,121,79,135,100,103
2025-03-20 15:49:55.408,-609.0,111.0,813.0,-4.0,-2.0,-7.0,123,82,136,101,103
2025-03-20 15:49:55.432,-607.0,108.0,812.0,-7.0,-3.0,-8.0,122,82,134,102,103
2025-03-20 15:49:55.454,-613.0,85.0,808.0,-9.0,-5.0,-8.0,123,82,134,101,102
2025-03-20 15:49:55.477,-597.0,58.0,824.0,-3.0,-5.0,-7.0,122,83,134,99,104
2025-03-20 15:49:55.503,-607.0,84.0,840.0,2.0,-3.0,-4.0,122,82,134,102,102
2025-03-20 15:49:55.527,-611.0,101.0,827.0,-2.0,-3.0,-4.0,122,81,133,99,102
2025-03-20 15:49:55.537,-611.0,92.0,825.0,-3.0,-5.0,-6.0,122,82,133,99,102
2025-03-20 15:49:55.576,-621.0,74.0,830.0,-7.0,-5.0,-6.0,121,81,134,105,103
2025-03-20 15:49:55.597,-612.0,59.0,841.0,-3.0,-2.0,-1.0,122,81,135,100,102
2025-03-20 15:49:55.621,-617.0,67.0,849.0,2.0,3.0,1.0,121,83,133,101,103
2025-03-20 15:49:55.646,-639.0,90.0,844.0,2.0,4.0,-1.0,122,83,134,102,103
2025-03-20 15:49:55.670,-628.0,91.0,830.0,1.0,4.0,-2.0,123,82,134,99,103
2025-03-20 15:49:55.695,-636.0,76.0,808.0,-2.0,2.0,-4.0,122,83,135,101,99
2025-03-20 15:49:55.719,-622.0,60.0,821.0,-4.0,3.0,-4.0,123,83,131,102,103
2025-03-20 15:49:55.744,-625.0,54.0,824.0,-4.0,7.0,-5.0,121,81,135,100,102
2025-03-20 15:49:55.768,-622.0,48.0,811.0,-4.0,3.0,-5.0,122,82,133,99,102
2025-03-20 15:49:55.789,-611.0,44.0,816.0,-6.0,0.0,-4.0,122,81,134,100,102
2025-03-20 15:49:55.814,-602.0,27.0,808.0,-10.0,0.0,-1.0,123,82,135,100,103
2025-03-20 15:49:55.836,-604.0,-2.0,823.0,-6.0,3.0,3.0,121,81,133,101,103
2025-03-20 15:49:55.863,-624.0,55.0,815.0,-2.0,3.0,6.0,121,83,134,101,103
2025-03-20 15:49:55.887,-636.0,62.0,807.0,-7.0,2.0,5.0,122,81,134,101,102
2025-03-20 15:49:55.912,-636.0,54.0,802.0,-4.0,2.0,5.0,122,82,134,100,102
2025-03-20 15:49:55.936,-643.0,80.0,793.0,-6.0,3.0,5.0,122,81,134,101,100
2025-03-20 15:49:55.958,-649.0,59.0,772.0,-7.0,0.0,6.0,122,82,133,101,103
2025-03-20 15:49:55.982,-620.0,63.0,793.0,-4.0,-3.0,7.0,122,80,134,101,101
2025-03-20 15:49:56.007,-618.0,84.0,822.0,-4.0,1.0,6.0,122,82,135,101,103
2025-03-20 15:49:56.031,-601.0,91.0,850.0,-6.0,3.0,5.0,121,83,136,103,103
2025-03-20 15:49:56.055,-626.0,109.0,793.0,-10.0,0.0,3.0,120,83,135,102,103
2025-03-20 15:49:56.080,-599.0,69.0,834.0,-8.0,1.0,3.0,122,83,135,100,104
2025-03-20 15:49:56.104,-616.0,57.0,813.0,-6.0,3.0,4.0,122,82,135,102,103
2025-03-20 15:49:56.126,-626.0,88.0,813.0,-8.0,1.0,3.0,122,82,134,101,103
2025-03-20 15:49:56.150,-609.0,59.0,817.0,-8.0,0.0,3.0,122,83,134,100,102
2025-03-20 15:49:56.175,-622.0,70.0,814.0,-6.0,0.0,3.0,122,81,135,101,98
2025-03-20 15:49:56.199,-619.0,69.0,820.0,-9.0,1.0,1.0,122,81,135,101,102
2025-03-20 15:49:56.223,-619.0,55.0,819.0,-6.0,-1.0,4.0,122,82,134,101,103
2025-03-20 15:49:56.248,-624.0,84.0,833.0,-1.0,-1.0,3.0,122,82,132,101,103
2025-03-20 15:49:56.273,-629.0,77.0,832.0,-5.0,-3.0,1.0,123,83,135,102,102
2025-03-20 15:49:56.297,-612.0,76.0,832.0,-5.0,-1.0,1.0,123,83,134,102,102
2025-03-20 15:49:56.318,-627.0,65.0,823.0,-4.0,1.0,1.0,123,82,135,102,105
2025-03-20 15:49:56.342,-624.0,62.0,823.0,1.0,0.0,2.0,121,81,134,100,102
2025-03-20 15:49:56.366,-626.0,80.0,829.0,0.0,0.0,1.0,122,82,135,101,103
2025-03-20 15:49:56.391,-617.0,79.0,829.0,0.0,0.0,1.0,122,83,134,101,102
2025-03-20 15:49:56.416,-613.0,66.0,818.0,-1.0,1.0,0.0,122,82,135,100,103
2025-03-20 15:49:56.440,-617.0,66.0,808.0,0.0,1.0,0.0,123,83,135,101,102
2025-03-20 15:49:56.463,-616.0,70.0,793.0,-1.0,-1.0,0.0,122,83,136,102,101
2025-03-20 15:49:56.485,-611.0,72.0,815.0,2.0,-1.0,0.0,122,83,134,102,102
2025-03-20 15:49:56.511,-616.0,81.0,825.0,3.0,0.0,0.0,122,83,135,101,103
2025-03-20 15:49:56.535,-626.0,79.0,812.0,-1.0,1.0,-1.0,122,82,135,101,102
2025-03-20 15:49:56.559,-615.0,71.0,812.0,0.0,1.0,-2.0,122,83,133,100,102
2025-03-20 15:49:56.584,-629.0,60.0,791.0,0.0,0.0,-2.0,122,83,141,100,102
2025-03-20 15:49:56.606,-633.0,55.0,803.0,0.0,-2.0,-2.0,122,81,134,101,102
2025-03-20 15:49:56.633,-622.0,56.0,810.0,-2.0,-1.0,-2.0,122,83,134,102,102
2025-03-20 15:49:56.646,-637.0,59.0,801.0,1.0,-1.0,0.0,124,83,135,100,103
2025-03-20 15:49:56.678,-639.0,59.0,806.0,0.0,0.0,0.0,123,83,136,103,103
2025-03-20 15:49:56.703,-640.0,55.0,802.0,1.0,-1.0,1.0,123,82,135,102,102
2025-03-20 15:49:56.727,-632.0,73.0,811.0,-1.0,0.0,0.0,123,83,135,101,103
2025-03-20 15:49:56.752,-632.0,66.0,815.0,-2.0,1.0,-1.0,123,83,135,102,103
2025-03-20 15:49:56.776,-631.0,63.0,814.0,-1.0,2.0,0.0,122,82,135,102,103
2025-03-20 15:49:56.797,-646.0,76.0,799.0,0.0,2.0,0.0,122,83,134,100,102
2025-03-20 15:49:56.822,-641.0,67.0,804.0,-2.0,-1.0,-1.0,122,82,136,102,102
2025-03-20 15:49:56.846,-631.0,58.0,814.0,-3.0,-1.0,-1.0,125,82,134,102,103
2025-03-20 15:49:56.870,-628.0,62.0,814.0,-1.0,0.0,-2.0,122,83,135,102,102
2025-03-20 15:49:56.882,-630.0,50.0,799.0,-1.0,1.0,-1.0,123,83,136,102,100
2025-03-20 15:49:56.920,-629.0,55.0,803.0,-3.0,0.0,1.0,123,84,134,100,102
2025-03-20 15:49:56.944,-632.0,60.0,814.0,-5.0,0.0,0.0,122,83,135,101,103
2025-03-20 15:49:56.968,-625.0,65.0,819.0,-2.0,0.0,1.0,121,82,134,98,102
2025-03-20 15:49:56.990,-632.0,68.0,821.0,-2.0,2.0,1.0,122,82,135,102,101
2025-03-20 15:49:57.014,-625.0,78.0,806.0,-4.0,2.0,0.0,122,82,134,102,102
2025-03-20 15:49:57.034,-632.0,77.0,785.0,-3.0,1.0,1.0,122,83,134,99,103
2025-03-20 15:49:57.063,-634.0,79.0,800.0,-1.0,0.0,1.0,123,82,134,100,102
2025-03-20 15:49:57.088,-634.0,78.0,805.0,0.0,2.0,0.0,122,84,135,102,103
2025-03-20 15:49:57.112,-642.0,87.0,795.0,1.0,1.0,0.0,123,83,135,103,102
2025-03-20 15:49:57.136,-640.0,88.0,795.0,-1.0,-1.0,-1.0,122,82,136,102,103
2025-03-20 15:49:57.158,-627.0,83.0,806.0,-1.0,-1.0,-2.0,123,83,135,101,103
2025-03-20 15:49:57.180,-625.0,76.0,796.0,-1.0,1.0,-2.0,121,82,134,100,102
2025-03-20 15:49:57.205,-624.0,64.0,781.0,-1.0,0.0,-1.0,122,87,133,100,106
2025-03-20 15:49:57.231,-635.0,66.0,787.0,0.0,-2.0,0.0,122,82,136,102,102
2025-03-20 15:49:57.255,-627.0,74.0,799.0,0.0,-2.0,0.0,122,82,135,102,103
2025-03-20 15:49:57.280,-635.0,74.0,802.0,0.0,-3.0,0.0,122,83,135,101,103
2025-03-20 15:49:57.295,-630.0,75.0,807.0,0.0,-2.0,-1.0,122,82,136,104,102
2025-03-20 15:49:57.326,-629.0,63.0,841.0,0.0,-1.0,-1.0,123,82,134,101,105
2025-03-20 15:49:57.351,-630.0,70.0,821.0,0.0,-2.0,0.0,122,82,136,102,103
2025-03-20 15:49:57.375,-634.0,74.0,817.0,0.0,-1.0,0.0,122,82,134,101,102
2025-03-20 15:49:57.399,-634.0,82.0,814.0,0.0,0.0,-1.0,122,82,134,100,102
2025-03-20 15:49:57.424,-635.0,78.0,804.0,-1.0,0.0,-1.0,122,82,133,101,102
2025-03-20 15:49:57.439,-635.0,65.0,800.0,-1.0,0.0,-1.0,121,82,131,102,102
2025-03-20 15:49:57.472,-636.0,72.0,804.0,0.0,0.0,-1.0,123,83,134,101,103
2025-03-20 15:49:57.494,-636.0,85.0,802.0,1.0,0.0,-1.0,122,82,135,101,103
2025-03-20 15:49:57.518,-636.0,78.0,805.0,-1.0,0.0,-1.0,123,83,136,102,102
2025-03-20 15:49:57.543,-632.0,70.0,807.0,1.0,0.0,-1.0,123,83,134,100,104
2025-03-20 15:49:57.567,-632.0,82.0,794.0,-1.0,0.0,-1.0,121,83,135,107,103
2025-03-20 15:49:57.591,-625.0,70.0,795.0,-1.0,-2.0,-1.0,122,80,135,95,102
2025-03-20 15:49:57.616,-626.0,70.0,807.0,1.0,-1.0,0.0,122,80,134,101,103
2025-03-20 15:49:57.640,-642.0,87.0,797.0,-1.0,-1.0,0.0,122,82,135,101,103
2025-03-20 15:49:57.662,-631.0,80.0,799.0,0.0,-2.0,-1.0,122,81,134,102,102
2025-03-20 15:49:57.686,-634.0,75.0,803.0,-1.0,-1.0,0.0,122,79,134,102,105
2025-03-20 15:49:57.710,-643.0,82.0,805.0,0.0,-2.0,-1.0,123,81,135,101,102
2025-03-20 15:49:57.734,-637.0,79.0,810.0,0.0,-1.0,-1.0,122,79,132,101,102
2025-03-20 15:49:57.758,-635.0,92.0,802.0,0.0,-1.0,-1.0,122,82,136,101,101
2025-03-20 15:49:57.784,-633.0,82.0,801.0,-2.0,0.0,-2.0,120,82,134,100,102
2025-03-20 15:49:57.809,-628.0,64.0,788.0,-2.0,-1.0,-1.0,122,80,135,101,105
2025-03-20 15:49:57.828,-630.0,77.0,787.0,0.0,-2.0,-1.0,123,82,134,100,102
2025-03-20 15:49:57.854,-624.0,83.0,809.0,-2.0,-3.0,-2.0,122,82,134,101,102
2025-03-20 15:49:57.879,-632.0,64.0,808.0,-1.0,-1.0,-2.0,123,81,136,102,102
2025-03-20 15:49:57.903,-630.0,71.0,816.0,-2.0,-1.0,-1.0,122,83,134,102,102
2025-03-20 15:49:57.928,-631.0,69.0,811.0,-1.0,-1.0,0.0,123,82,135,99,103
2025-03-20 15:49:57.951,-629.0,74.0,806.0,-1.0,-1.0,-1.0,123,83,135,101,104
2025-03-20 15:49:57.974,-634.0,72.0,808.0,-2.0,-1.0,0.0,123,83,136,101,103
2025-03-20 15:49:58.000,-630.0,79.0,819.0,-1.0,-1.0,0.0,122,81,135,101,101
2025-03-20 15:49:58.022,-637.0,92.0,808.0,-2.0,-1.0,-1.0,122,83,131,101,103
2025-03-20 15:49:58.047,-646.0,74.0,805.0,-1.0,0.0,-1.0,123,81,133,99,103
2025-03-20 15:49:58.058,-629.0,83.0,810.0,0.0,0.0,-1.0,123,82,134,101,102
2025-03-20 15:49:58.095,-630.0,84.0,802.0,-2.0,0.0,-1.0,122,81,137,102,102
2025-03-20 15:49:58.119,-626.0,72.0,806.0,-1.0,-1.0,-1.0,123,82,135,102,103
2025-03-20 15:49:58.144,-632.0,74.0,810.0,0.0,0.0,0.0,123,80,136,102,103
2025-03-20 15:49:58.169,-632.0,83.0,804.0,-1.0,0.0,-1.0,123,82,136,101,103
2025-03-20 15:49:58.190,-628.0,68.0,801.0,-2.0,0.0,-2.0,124,82,134,102,103
2025-03-20 15:49:58.215,-632.0,73.0,801.0,-1.0,1.0,-1.0,122,82,135,101,101
2025-03-20 15:49:58.239,-632.0,77.0,801.0,-2.0,0.0,-1.0,122,81,136,102,103
2025-03-20 15:49:58.263,-634.0,69.0,802.0,0.0,-2.0,0.0,122,82,136,102,102
2025-03-20 15:49:58.288,-636.0,84.0,806.0,0.0,-1.0,-1.0,123,83,134,103,102
2025-03-20 15:49:58.312,-636.0,84.0,803.0,-3.0,-1.0,-1.0,122,82,135,103,103
2025-03-20 15:49:58.336,-630.0,75.0,799.0,-2.0,0.0,-1.0,123,81,136,102,103
2025-03-20 15:49:58.356,-632.0,73.0,797.0,-2.0,-1.0,0.0,122,82,136,103,103
2025-03-20 15:49:58.382,-633.0,83.0,810.0,-1.0,-2.0,-1.0,123,82,136,105,103
2025-03-20 15:49:58.407,-634.0,74.0,806.0,-2.0,-1.0,-1.0,118,81,133,104,102
2025-03-20 15:49:58.431,-633.0,77.0,810.0,-1.0,-1.0,-1.0,122,81,134,101,102
2025-03-20 15:49:58.455,-628.0,81.0,815.0,-1.0,-1.0,-1.0,122,82,134,101,102
2025-03-20 15:49:58.469,-633.0,72.0,801.0,-1.0,-1.0,0.0,122,81,134,101,103
2025-03-20 15:49:58.503,-636.0,85.0,811.0,-2.0,-1.0,-1.0,122,82,135,102,103
2025-03-20 15:49:58.526,-638.0,76.0,816.0,-2.0,0.0,-1.0,123,79,140,101,103
2025-03-20 15:49:58.551,-631.0,83.0,803.0,-2.0,1.0,-1.0,122,81,135,101,103
2025-03-20 15:49:58.575,-634.0,70.0,791.0,-2.0,-1.0,-2.0,123,82,135,101,103
2025-03-20 15:49:58.599,-629.0,69.0,795.0,0.0,-2.0,-1.0,122,81,136,101,103
2025-03-20 15:49:58.624,-634.0,80.0,805.0,-1.0,-2.0,-1.0,122,80,134,102,102
2025-03-20 15:49:58.648,-628.0,76.0,819.0,-2.0,-1.0,-2.0,122,79,135,101,102
2025-03-20 15:49:58.673,-635.0,60.0,813.0,-2.0,0.0,-1.0,123,80,134,100,103
2025-03-20 15:49:58.694,-627.0,75.0,812.0,-2.0,0.0,-1.0,123,80,135,100,102
2025-03-20 15:49:58.718,-625.0,69.0,801.0,-2.0,0.0,-1.0,122,81,136,101,103
2025-03-20 15:49:58.743,-631.0,72.0,804.0,-2.0,0.0,0.0,123,82,135,101,102
2025-03-20 15:49:58.761,-634.0,78.0,803.0,-2.0,0.0,-1.0,122,82,135,101,103
2025-03-20 15:49:58.792,-630.0,78.0,801.0,-3.0,-1.0,-1.0,123,80,135,99,102
2025-03-20 15:49:58.816,-646.0,74.0,801.0,-3.0,-1.0,-1.0,122,81,134,101,101
2025-03-20 15:49:58.840,-642.0,78.0,810.0,-3.0,-1.0,0.0,122,81,134,100,102
2025-03-20 15:49:58.861,-634.0,80.0,809.0,-1.0,1.0,0.0,122,81,135,101,102
2025-03-20 15:49:58.885,-639.0,79.0,805.0,-1.0,1.0,-1.0,122,81,134,103,101
2025-03-20 15:49:58.910,-638.0,79.0,803.0,-1.0,-1.0,-2.0,123,80,135,101,103
2025-03-20 15:49:58.935,-635.0,67.0,804.0,-2.0,-1.0,-1.0,124,81,134,101,102
2025-03-20 15:49:58.960,-631.0,82.0,802.0,-3.0,-3.0,-1.0,123,81,135,101,103
2025-03-20 15:49:58.983,-635.0,66.0,808.0,-3.0,-2.0,-2.0,123,82,134,101,103
2025-03-20 15:49:59.003,-630.0,76.0,799.0,-2.0,-1.0,-2.0,123,81,136,102,102
2025-03-20 15:49:59.033,-641.0,82.0,793.0,-4.0,-1.0,-2.0,122,80,134,102,101
2025-03-20 15:49:59.055,-620.0,72.0,816.0,-7.0,-1.0,-2.0,124,80,134,100,101
2025-03-20 15:49:59.078,-604.0,70.0,802.0,-11.0,3.0,-3.0,122,80,135,102,102
2025-03-20 15:49:59.103,-595.0,54.0,779.0,-13.0,5.0,0.0,122,79,136,101,100
2025-03-20 15:49:59.128,-619.0,137.0,770.0,-19.0,10.0,-2.0,123,79,133,101,101
2025-03-20 15:49:59.150,-603.0,291.0,614.0,-64.0,24.0,-17.0,124,78,132,100,100
2025-03-20 15:49:59.177,-731.0,287.0,511.0,-102.0,10.0,-39.0,122,72,126,95,94
2025-03-20 15:49:59.200,-819.0,243.0,-52.0,-138.0,-33.0,-61.0,125,59,115,78,78
2025-03-20 15:49:59.222,-743.0,82.0,133.0,-123.0,-108.0,-100.0,124,51,100,53,58
2025-03-20 15:49:59.245,-555.0,-330.0,598.0,-167.0,-174.0,-109.0,123,43,92,53,47
2025-03-20 15:49:59.271,-160.0,-731.0,1796.0,-223.0,-137.0,-72.0,123,41,85,54,42
2025-03-20 15:49:59.296,213.0,-1588.0,2552.0,-194.0,76.0,6.0,122,35,81,48,42
2025-03-20 15:49:59.320,23.0,-1494.0,2238.0,-124.0,273.0,86.0,117,34,81,54,36
2025-03-20 15:49:59.345,-595.0,-758.0,1390.0,-179.0,282.0,76.0,105,35,74,48,36
2025-03-20 15:49:59.369,-642.0,-928.0,664.0,-267.0,237.0,96.0,96,37,74,57,36
2025-03-20 15:49:59.391,-466.0,-1039.0,579.0,-184.0,249.0,161.0,106,37,72,57,37
2025-03-20 15:49:59.415,-692.0,-549.0,229.0,-113.0,242.0,223.0,105,38,75,57,36
2025-03-20 15:49:59.439,-486.0,58.0,274.0,-94.0,223.0,222.0,108,37,75,57,38
2025-03-20 15:49:59.464,-735.0,197.0,141.0,-80.0,219.0,179.0,109,38,73,58,38
2025-03-20 15:49:59.488,-585.0,405.0,3.0,-68.0,198.0,156.0,109,38,72,59,38
2025-03-20 15:49:59.512,-588.0,749.0,-245.0,-57.0,168.0,110.0,108,39,71,61,38
2025-03-20 15:49:59.537,-343.0,1282.0,-661.0,-35.0,128.0,62.0,109,39,71,57,39
2025-03-20 15:49:59.558,-262.0,2110.0,-1693.0,17.0,25.0,-15.0,109,39,70,58,37
2025-03-20 15:49:59.574,-220.0,3513.0,-3009.0,36.0,-181.0,-274.0,105,39,67,56,37
2025-03-20 15:49:59.606,150.0,3945.0,-3854.0,8.0,-549.0,-708.0,107,39,67,53,36
2025-03-20 15:49:59.632,2327.0,3757.0,-3654.0,-162.0,-1019.0,-1072.0,104,32,66,46,35
2025-03-20 15:49:59.655,8446.0,-982.0,1936.0,-11.0,-1082.0,-993.0,82,36,70,50,40
2025-03-20 15:49:59.681,7649.0,-8039.0,3650.0,50.0,167.0,-216.0,77,38,73,56,42
2025-03-20 15:49:59.705,1925.0,-4752.0,1436.0,277.0,256.0,199.0,84,43,75,59,43
2025-03-20 15:49:59.727,1211.0,-2441.0,1783.0,-134.0,141.0,292.0,79,37,74,55,43
2025-03-20 15:49:59.750,118.0,-2186.0,1188.0,-30.0,189.0,351.0,88,42,76,57,44
2025-03-20 15:49:59.775,-236.0,-480.0,751.0,25.0,226.0,363.0,96,39,76,58,44
2025-03-20 15:49:59.799,-427.0,352.0,551.0,-76.0,220.0,247.0,100,40,77,59,45
2025-03-20 15:49:59.824,-551.0,-172.0,119.0,-108.0,178.0,177.0,90,42,76,59,43
2025-03-20 15:49:59.848,-486.0,-455.0,150.0,-54.0,129.0,174.0,100,36,75,57,41
2025-03-20 15:49:59.873,-277.0,-235.0,152.0,-19.0,164.0,191.0,96,41,75,59,43
2025-03-20 15:49:59.894,-226.0,-167.0,24.0,-1.0,185.0,200.0,98,40,76,59,41
2025-03-20 15:49:59.919,-500.0,-215.0,-180.0,49.0,119.0,228.0,101,40,77,59,37
2025-03-20 15:49:59.943,-250.0,233.0,-181.0,105.0,109.0,290.0,104,44,78,57,44
2025-03-20 15:49:59.967,-389.0,1200.0,-617.0,138.0,62.0,306.0,107,41,76,54,46
2025-03-20 15:49:59.992,-617.0,2765.0,-1814.0,271.0,-19.0,75.0,104,42,74,54,44
2025-03-20 15:50:00.017,-1056.0,4833.0,-3232.0,63.0,-294.0,-464.0,91,43,72,57,45
2025-03-20 15:50:00.041,557.0,4251.0,-3551.0,-260.0,-769.0,-961.0,98,42,72,58,42
2025-03-20 15:50:00.065,6154.0,1078.0,-2085.0,-333.0,-1124.0,-1216.0,94,34,73,50,44
2025-03-20 15:50:00.087,8371.0,-7582.0,5250.0,-203.0,-194.0,-233.0,75,43,81,61,49
2025-03-20 15:50:00.111,2689.0,-5537.0,751.0,297.0,338.0,104.0,84,45,82,63,46
2025-03-20 15:50:00.136,334.0,-2467.0,638.0,-36.0,151.0,289.0,80,36,82,62,50
2025-03-20 15:50:00.160,11.0,-2188.0,1211.0,-103.0,62.0,374.0,98,45,86,62,50
2025-03-20 15:50:00.184,9.0,-909.0,1214.0,47.0,212.0,340.0,96,44,85,64,49
2025-03-20 15:50:00.209,-522.0,-81.0,292.0,42.0,218.0,236.0,106,42,85,63,51
2025-03-20 15:50:00.230,-700.0,-3.0,198.0,-139.0,143.0,170.0,99,42,84,63,50
2025-03-20 15:50:00.254,-399.0,-564.0,315.0,-165.0,51.0,162.0,113,42,84,61,49
2025-03-20 15:50:00.277,-146.0,-688.0,287.0,-26.0,124.0,151.0,123,41,87,62,51
2025-03-20 15:50:00.303,-610.0,-536.0,106.0,-9.0,129.0,202.0,117,41,88,63,51
2025-03-20 15:50:00.327,-493.0,-253.0,-48.0,-13.0,63.0,208.0,130,42,84,64,50
2025-03-20 15:50:00.352,-304.0,-196.0,152.0,41.0,80.0,193.0,130,45,85,64,51
2025-03-20 15:50:00.377,-485.0,223.0,241.0,61.0,57.0,212.0,127,43,85,65,51
2025-03-20 15:50:00.397,1702.0,1702.0,1702.0,212.0,212.0,212.0,135,45,85,66,52
2025-03-20 15:50:00.418,1702.0,1702.0,1702.0,212.0,212.0,212.0,123,38,79,65,48
2025-03-20 15:50:00.443,-1107.0,4346.0,-2543.0,161.0,-79.0,-313.0,125,41,77,65,47
2025-03-20 15:50:00.467,-809.0,5070.0,-4010.0,-199.0,-521.0,-887.0,132,43,75,65,45
2025-03-20 15:50:00.492,4041.0,2762.0,-2966.0,-518.0,-1029.0,-1235.0,146,47,78,71,52
2025-03-20 15:50:00.516,8706.0,-5717.0,1805.0,-385.0,-673.0,-763.0,157,47,88,77,59
2025-03-20 15:50:00.541,4931.0,-9103.0,-748.0,843.0,392.0,32.0,142,41,81,67,50
2025-03-20 15:50:00.565,641.0,-1598.0,-975.0,165.0,121.0,220.0,143,47,79,66,50
2025-03-20 15:50:00.579,513.0,-2250.0,1386.0,-174.0,-16.0,157.0,145,45,81,68,51
2025-03-20 15:50:00.611,279.0,-2041.0,1209.0,98.0,134.0,260.0,140,46,81,66,50
2025-03-20 15:50:00.635,2080.0,2080.0,2080.0,260.0,260.0,260.0,147,47,81,68,51
2025-03-20 15:50:00.655,2080.0,2080.0,2080.0,260.0,260.0,260.0,147,45,81,68,51
2025-03-20 15:50:00.678,-33.0,-895.0,397.0,-38.0,130.0,196.0,148,49,85,76,55
2025-03-20 15:50:00.701,1568.0,1568.0,1568.0,196.0,196.0,196.0,146,50,87,71,56
2025-03-20 15:50:00.724,1568.0,1568.0,1568.0,196.0,196.0,196.0,144,40,83,67,52
2025-03-20 15:50:00.746,-59.0,-379.0,270.0,90.0,206.0,297.0,139,42,84,68,52
2025-03-20 15:50:00.769,2376.0,2376.0,2376.0,297.0,297.0,297.0,140,43,85,68,51
2025-03-20 15:50:00.794,-26.0,-85.0,62.0,126.0,248.0,381.0,134,41,85,69,53
2025-03-20 15:50:00.819,-274.0,797.0,-691.0,248.0,225.0,368.0,134,42,83,66,48
2025-03-20 15:50:00.828,-560.0,2282.0,-1656.0,257.0,112.0,226.0,133,38,82,62,48
2025-03-20 15:50:00.864,-1120.0,4341.0,-2726.0,107.0,-100.0,-218.0,130,44,78,66,48
2025-03-20 15:50:00.889,-741.0,4114.0,-3754.0,-77.0,-550.0,-741.0,115,44,76,66,48
2025-03-20 15:50:00.914,2610.0,4072.0,-4112.0,-467.0,-1100.0,-1118.0,143,47,74,68,47
2025-03-20 15:50:00.938,9157.0,-3192.0,-566.0,-873.0,-1035.0,-905.0,152,32,81,72,54
2025-03-20 15:50:00.962,7258.0,-10436.0,2001.0,265.0,387.0,-85.0,166,59,101,90,67
2025-03-20 15:50:00.987,1639.0,-3109.0,-2191.0,481.0,338.0,229.0,144,55,93,80,58
2025-03-20 15:50:01.012,1026.0,-1605.0,1234.0,-160.0,104.0,212.0,125,47,82,67,51
2025-03-20 15:50:01.029,532.0,-2640.0,1127.0,75.0,86.0,227.0,132,43,83,64,49
2025-03-20 15:50:01.057,-46.0,-1061.0,579.0,151.0,223.0,284.0,139,39,85,72,54
2025-03-20 15:50:01.081,-478.0,-402.0,393.0,12.0,182.0,264.0,144,45,87,70,54
2025-03-20 15:50:01.104,-125.0,-526.0,495.0,-29.0,167.0,212.0,142,53,99,79,61
2025-03-20 15:50:01.130,-229.0,-389.0,221.0,21.0,165.0,216.0,137,39,99,76,63
2025-03-20 15:50:01.154,-48.0,-561.0,436.0,153.0,216.0,276.0,154,46,115,75,73
2025-03-20 15:50:01.179,-103.0,-439.0,310.0,237.0,256.0,289.0,146,62,118,72,85
2025-03-20 15:50:01.201,44.0,-265.0,12.0,226.0,221.0,315.0,135,54,120,59,88
2025-03-20 15:50:01.225,-386.0,136.0,-338.0,213.0,198.0,344.0,132,46,122,78,89
2025-03-20 15:50:01.246,-382.0,841.0,-539.0,102.0,165.0,326.0,132,60,130,99,88
2025-03-20 15:50:01.274,-646.0,1338.0,-1722.0,142.0,40.0,229.0,130,63,130,101,90
2025-03-20 15:50:01.299,-633.0,2590.0,-2019.0,105.0,-74.0,-6.0,128,69,132,103,94
2025-03-20 15:50:01.323,-659.0,3031.0,-2679.0,-57.0,-383.0,-419.0,128,79,135,102,95
2025-03-20 15:50:01.348,-295.0,2747.0,-3382.0,-257.0,-666.0,-797.0,122,81,138,101,100
2025-03-20 15:50:01.372,3659.0,2760.0,-3184.0,-348.0,-868.0,-1002.0,125,53,140,101,104
2025-03-20 15:50:01.397,6330.0,-2170.0,2304.0,-747.0,-722.0,-953.0,146,43,148,104,110
2025-03-20 15:50:01.421,5177.0,-7484.0,2326.0,156.0,-77.0,-25.0,148,44,149,106,113
2025-03-20 15:50:01.434,2495.0,-4116.0,823.0,494.0,265.0,371.0,121,49,143,106,112
2025-03-20 15:50:01.467,35.0,-1500.0,1087.0,538.0,276.0,352.0,136,81,142,107,110
2025-03-20 15:50:01.491,-102.0,-973.0,354.0,-95.0,130.0,337.0,138,77,139,104,107
2025-03-20 15:50:01.516,-13.0,-707.0,940.0,-108.0,209.0,236.0,140,95,142,104,107
2025-03-20 15:50:01.539,-317.0,-707.0,329.0,-4.0,223.0,248.0,142,84,142,106,107
2025-03-20 15:50:01.564,-197.0,-313.0,336.0,43.0,309.0,244.0,138,78,145,104,107
2025-03-20 15:50:01.589,-330.0,-265.0,259.0,77.0,247.0,270.0,133,91,143,107,107
2025-03-20 15:50:01.610,2166.0,2166.0,2166.0,270.0,270.0,267.0,126,96,141,106,104
2025-03-20 15:50:01.634,2142.0,2142.0,2142.0,267.0,267.0,267.0,126,64,141,107,105
2025-03-20 15:50:01.659,-301.0,153.0,-160.0,133.0,169.0,235.0,124,67,139,107,105
2025-03-20 15:50:01.679,-168.0,503.0,-459.0,115.0,153.0,229.0,127,87,138,107,105
2025-03-20 15:50:01.704,-327.0,1152.0,-1721.0,114.0,14.0,167.0,125,86,137,106,97
2025-03-20 15:50:01.728,-1003.0,2235.0,-2251.0,154.0,-183.0,-189.0,124,89,139,105,99
2025-03-20 15:50:01.754,-1378.0,3221.0,-3026.0,-6.0,-457.0,-658.0,107,92,141,108,107
2025-03-20 15:50:01.778,1342.0,4243.0,-3058.0,-160.0,-927.0,-897.0,130,77,143,106,111
2025-03-20 15:50:01.802,6085.0,303.0,1804.0,-863.0,-1139.0,-967.0,142,69,146,107,105
2025-03-20 15:50:01.827,6432.0,-7169.0,129.0,-382.0,-652.0,-412.0,149,86,153,109,119
2025-03-20 15:50:01.851,4203.0,-6479.0,1088.0,476.0,150.0,304.0,116,7,147,111,112
2025-03-20 15:50:01.876,1158.0,-1581.0,581.0,303.0,643.0,248.0,115,85,143,110,113
2025-03-20 15:50:01.897,-949.0,-617.0,1856.0,-39.0,133.0,309.0,129,99,141,109,111
2025-03-20 15:50:01.922,-405.0,-730.0,1243.0,-174.0,19.0,247.0,143,95,146,111,114
2025-03-20 15:50:01.946,-133.0,-790.0,1222.0,166.0,152.0,192.0,146,93,145,110,112
2025-03-20 15:50:01.971,-258.0,-840.0,712.0,113.0,332.0,219.0,138,84,142,109,107
2025-03-20 15:50:01.993,-263.0,-425.0,101.0,74.0,319.0,275.0,118,89,136,108,102
2025-03-20 15:50:02.019,-79.0,-114.0,647.0,56.0,256.0,306.0,112,83,132,105,91
2025-03-20 15:50:02.040,81.0,-2.0,322.0,69.0,206.0,285.0,125,57,123,102,75
2025-03-20 15:50:02.064,-631.0,-39.0,-97.0,18.0,243.0,226.0,133,50,113,93,64
2025-03-20 15:50:02.089,-495.0,-128.0,-337.0,5.0,160.0,213.0,109,49,102,77,56
2025-03-20 15:50:02.113,-517.0,463.0,-147.0,41.0,115.0,227.0,125,43,92,45,53
2025-03-20 15:50:02.138,-1027.0,2248.0,-1248.0,36.0,53.0,33.0,129,35,83,24,52
2025-03-20 15:50:02.162,-884.0,4148.0,-3222.0,-59.0,-198.0,-419.0,129,22,78,50,41
2025-03-20 15:50:02.187,752.0,2674.0,-2949.0,-237.0,-517.0,-843.0,133,22,71,50,43
2025-03-20 15:50:02.211,2772.0,1806.0,-2335.0,-307.0,-996.0,-1005.0,132,24,72,50,42
2025-03-20 15:50:02.234,7933.0,-3492.0,1408.0,-640.0,-688.0,-657.0,150,33,76,57,47
2025-03-20 15:50:02.258,5029.0,-9615.0,1283.0,353.0,212.0,-31.0,146,37,76,62,45
2025-03-20 15:50:02.281,1390.0,-2622.0,-967.0,271.0,170.0,261.0,134,33,78,64,47
2025-03-20 15:50:02.306,564.0,-1535.0,1359.0,-14.0,9.0,182.0,131,37,75,64,49
2025-03-20 15:50:02.330,-61.0,-2499.0,872.0,-2.0,77.0,268.0,136,39,80,64,47
2025-03-20 15:50:02.352,-91.0,-1273.0,569.0,57.0,118.0,331.0,145,40,78,65,46
2025-03-20 15:50:02.374,-48.0,-279.0,638.0,108.0,164.0,254.0,149,42,79,66,47
2025-03-20 15:50:02.400,-38.0,-524.0,406.0,23.0,179.0,247.0,143,40,79,67,47
2025-03-20 15:50:02.425,-136.0,-656.0,111.0,33.0,146.0,276.0,143,42,83,67,48
2025-03-20 15:50:02.446,20.0,-384.0,316.0,90.0,161.0,273.0,140,42,81,66,46
2025-03-20 15:50:02.474,-106.0,-88.0,194.0,115.0,189.0,277.0,139,40,81,65,47
2025-03-20 15:50:02.498,-438.0,296.0,-104.0,66.0,155.0,262.0,136,39,82,65,48
2025-03-20 15:50:02.523,-235.0,616.0,-16.0,92.0,123.0,203.0,139,40,83,65,47
2025-03-20 15:50:02.544,1630.0,1488.0,-774.0,120.0,116.0,151.0,138,34,81,61,42
2025-03-20 15:50:02.568,-1268.0,3477.0,-1925.0,138.0,-34.0,-127.0,129,40,80,65,46
2025-03-20 15:50:02.593,-1450.0,3882.0,-2886.0,-35.0,-340.0,-619.0,125,39,76,64,46
2025-03-20 15:50:02.618,1140.0,3904.0,-2769.0,-302.0,-807.0,-950.0,123,37,75,65,47
2025-03-20 15:50:02.642,6104.0,132.0,779.0,-692.0,-898.0,-898.0,145,39,77,69,45
2025-03-20 15:50:02.667,6394.0,-7783.0,2755.0,-75.0,79.0,-255.0,138,41,79,68,47
2025-03-20 15:50:02.690,2183.0,-4645.0,-1931.0,701.0,282.0,206.0,128,43,81,70,49
2025-03-20 15:50:02.715,673.0,-1304.0,432.0,-81.0,115.0,170.0,123,43,80,68,45
2025-03-20 15:50:02.737,-9.0,-2249.0,981.0,-59.0,41.0,207.0,129,42,84,69,49
2025-03-20 15:50:02.761,76.0,-1455.0,1066.0,89.0,138.0,244.0,141,42,87,70,49
2025-03-20 15:50:02.785,-68.0,-710.0,636.0,103.0,219.0,229.0,138,40,90,69,52
2025-03-20 15:50:02.810,-235.0,-572.0,190.0,-47.0,216.0,205.0,139,38,94,69,53
2025-03-20 15:50:02.835,-168.0,-794.0,734.0,-46.0,182.0,188.0,138,24,99,71,53
2025-03-20 15:50:02.859,-37.0,-898.0,255.0,98.0,200.0,251.0,118,34,104,63,52
2025-03-20 15:50:02.880,237.0,-726.0,-4.0,143.0,260.0,284.0,111,17,110,51,53
2025-03-20 15:50:02.905,-168.0,-313.0,-357.0,225.0,275.0,319.0,117,38,118,54,54
2025-03-20 15:50:02.929,-236.0,115.0,-74.0,187.0,279.0,334.0,113,49,126,60,51
2025-03-20 15:50:02.954,-161.0,202.0,-382.0,226.0,279.0,340.0,116,53,131,53,51
2025-03-20 15:50:02.967,-423.0,999.0,-907.0,223.0,211.0,306.0,117,63,133,47,47
2025-03-20 15:50:03.003,-972.0,2224.0,-1794.0,99.0,1.0,107.0,102,77,134,58,48
2025-03-20 15:50:03.021,-852.0,2992.0,-2356.0,4.0,-286.0,-318.0,110,83,141,65,47
2025-03-20 15:50:03.051,-98.0,2898.0,-3123.0,-118.0,-657.0,-710.0,92,72,143,51,46
2025-03-20 15:50:03.076,2563.0,1892.0,-2010.0,-312.0,-1054.0,-881.0,77,71,145,55,52
2025-03-20 15:50:03.097,5400.0,-2798.0,700.0,-291.0,-959.0,-734.0,96,72,147,51,51
2025-03-20 15:50:03.121,5200.0,-4732.0,2146.0,28.0,-354.0,-162.0,99,46,146,70,50
2025-03-20 15:50:03.143,3119.0,-4046.0,2737.0,223.0,233.0,168.0,79,39,146,76,50
2025-03-20 15:50:03.170,454.0,-1659.0,1953.0,65.0,257.0,273.0,87,87,143,77,52
2025-03-20 15:50:03.195,-67.0,-1518.0,1408.0,-106.0,177.0,296.0,89,66,145,69,51
2025-03-20 15:50:03.216,-146.0,-1013.0,1202.0,0.0,217.0,276.0,99,71,146,73,51
2025-03-20 15:50:03.238,-372.0,-549.0,588.0,34.0,220.0,245.0,100,104,146,73,51
2025-03-20 15:50:03.266,-274.0,-398.0,456.0,-38.0,165.0,217.0,99,105,146,66,53
2025-03-20 15:50:03.289,-117.0,-413.0,525.0,3.0,173.0,206.0,91,87,145,73,51
2025-03-20 15:50:03.313,-219.0,-271.0,256.0,66.0,197.0,218.0,96,81,147,76,53
2025-03-20 15:50:03.338,-369.0,70.0,115.0,55.0,186.0,206.0,94,74,145,78,52
2025-03-20 15:50:03.363,-367.0,-71.0,157.0,94.0,163.0,163.0,102,111,144,75,54
2025-03-20 15:50:03.387,-308.0,41.0,253.0,136.0,167.0,141.0,107,93,145,73,53
2025-03-20 15:50:03.409,-462.0,688.0,39.0,64.0,176.0,134.0,106,112,146,71,54
2025-03-20 15:50:03.433,-700.0,1235.0,-989.0,70.0,111.0,81.0,100,99,145,69,54
2025-03-20 15:50:03.458,-1500.0,2830.0,-2787.0,115.0,-160.0,-207.0,99,104,146,76,51
2025-03-20 15:50:03.481,-912.0,3799.0,-3700.0,-76.0,-703.0,-725.0,77,96,146,68,50
2025-03-20 15:50:03.507,3529.0,977.0,-1638.0,-249.0,-1140.0,-918.0,85,90,147,74,53
2025-03-20 15:50:03.530,5801.0,-3953.0,1416.0,-127.0,-914.0,-455.0,93,67,149,83,53
2025-03-20 15:50:03.555,4926.0,-5143.0,3009.0,239.0,-77.0,34.0,97,73,144,92,50
2025-03-20 15:50:03.573,873.0,-1586.0,2186.0,170.0,206.0,118.0,83,75,146,84,54
2025-03-20 15:50:03.600,194.0,-1510.0,1776.0,-125.0,127.0,165.0,89,82,147,83,56
2025-03-20 15:50:03.624,187.0,-1411.0,1558.0,-86.0,195.0,172.0,100,63,143,80,54
2025-03-20 15:50:03.650,-61.0,-1077.0,919.0,-11.0,218.0,191.0,103,99,145,75,59
2025-03-20 15:50:03.674,-7.0,-676.0,910.0,-38.0,231.0,179.0,109,98,151,72,60
2025-03-20 15:50:03.699,17.0,-603.0,797.0,-100.0,234.0,205.0,109,100,144,72,59
2025-03-20 15:50:03.723,-58.0,-540.0,697.0,-70.0,239.0,218.0,114,84,143,74,60
2025-03-20 15:50:03.744,-50.0,-501.0,455.0,-51.0,241.0,233.0,115,64,139,71,59
2025-03-20 15:50:03.769,-80.0,-370.0,357.0,-83.0,266.0,237.0,121,79,131,72,56
2025-03-20 15:50:03.793,-189.0,-279.0,382.0,-33.0,251.0,234.0,115,69,119,71,55
2025-03-20 15:50:03.818,-389.0,-203.0,-11.0,-33.0,183.0,231.0,122,56,108,66,56
2025-03-20 15:50:03.842,-544.0,203.0,28.0,-2.0,144.0,189.0,125,32,98,76,56
2025-03-20 15:50:03.865,-756.0,1081.0,-458.0,1.0,108.0,146.0,116,23,92,75,58
2025-03-20 15:50:03.890,-635.0,2932.0,-1520.0,98.0,2.0,-46.0,127,25,85,78,44
2025-03-20 15:50:03.911,-744.0,3436.0,-2896.0,121.0,-157.0,-422.0,128,27,75,65,48
2025-03-20 15:50:03.937,-205.0,3173.0,-2910.0,-48.0,-524.0,-810.0,133,16,71,66,42
2025-03-20 15:50:03.958,4363.0,1974.0,-2368.0,-334.0,-880.0,-1028.0,131,33,73,72,49
2025-03-20 15:50:03.986,7659.0,-4015.0,1614.0,-545.0,-764.0,-673.0,142,28,75,75,42
2025-03-20 15:50:04.010,5304.0,-8745.0,1536.0,173.0,429.0,49.0,140,37,80,76,47
2025-03-20 15:50:04.035,1058.0,-2238.0,-1131.0,303.0,208.0,235.0,122,39,77,84,49
2025-03-20 15:50:04.059,269.0,-1478.0,386.0,-124.0,-75.0,139.0,138,43,84,83,50
2025-03-20 15:50:04.081,583.0,-2341.0,985.0,-19.0,8.0,212.0,141,42,84,86,52
2025-03-20 15:50:04.105,345.0,-1770.0,782.0,156.0,151.0,258.0,141,37,82,84,49
2025-03-20 15:50:04.129,-23.0,-771.0,395.0,115.0,182.0,304.0,129,41,85,81,48
2025-03-20 15:50:04.154,-4.0,-355.0,610.0,47.0,163.0,257.0,142,43,85,82,49
2025-03-20 15:50:04.178,20.0,-532.0,582.0,73.0,209.0,243.0,139,44,87,82,49
2025-03-20 15:50:04.203,-147.0,-497.0,252.0,61.0,215.0,276.0,134,44,88,84,50
2025-03-20 15:50:04.227,-42.0,-292.0,392.0,86.0,204.0,287.0,123,36,89,83,50
2025-03-20 15:50:04.248,97.0,18.0,205.0,121.0,230.0,287.0,131,40,88,82,51
2025-03-20 15:50:04.273,-219.0,702.0,-189.0,119.0,205.0,296.0,121,24,88,80,50
2025-03-20 15:50:04.297,-437.0,2489.0,-1219.0,150.0,166.0,132.0,122,31,86,80,49
2025-03-20 15:50:04.321,-1387.0,3563.0,-3247.0,81.0,-59.0,-225.0,123,33,79,77,46
2025-03-20 15:50:04.346,-606.0,4934.0,-3548.0,-63.0,-451.0,-844.0,126,35,78,70,46
2025-03-20 15:50:04.370,3581.0,1786.0,-1894.0,-390.0,-851.0,-1095.0,131,40,77,68,49
2025-03-20 15:50:04.395,7348.0,-5843.0,2243.0,-339.0,-589.0,-565.0,144,37,81,83,49
2025-03-20 15:50:04.418,4272.0,-7656.0,1538.0,343.0,236.0,40.0,145,41,84,81,50
2025-03-20 15:50:04.440,532.0,-2597.0,-377.0,270.0,164.0,230.0,135,44,84,81,52
2025-03-20 15:50:04.465,219.0,-1967.0,613.0,-51.0,69.0,206.0,137,45,85,82,51
2025-03-20 15:50:04.490,146.0,-1832.0,1503.0,148.0,116.0,209.0,136,39,85,78,52
2025-03-20 15:50:04.514,-166.0,-1236.0,903.0,129.0,217.0,256.0,139,37,85,80,50
2025-03-20 15:50:04.538,-311.0,-588.0,579.0,14.0,210.0,288.0,136,36,85,74,52
2025-03-20 15:50:04.563,-71.0,-469.0,645.0,38.0,266.0,255.0,118,35,85,79,52
2025-03-20 15:50:04.572,-286.0,-30.0,442.0,67.0,289.0,237.0,132,41,85,70,54
2025-03-20 15:50:04.609,-201.0,-176.0,392.0,44.0,289.0,225.0,115,24,87,60,56
2025-03-20 15:50:04.633,-524.0,-246.0,-18.0,108.0,273.0,205.0,112,28,84,55,52
2025-03-20 15:50:04.657,-311.0,-17.0,16.0,83.0,223.0,193.0,119,43,82,69,55
2025-03-20 15:50:04.682,-350.0,58.0,-63.0,46.0,172.0,196.0,125,43,79,70,54
2025-03-20 15:50:04.706,-606.0,416.0,-507.0,32.0,130.0,211.0,114,45,75,55,48
2025-03-20 15:50:04.728,-711.0,2193.0,-1605.0,-11.0,55.0,75.0,117,42,71,50,42
2025-03-20 15:50:04.755,-312.0,4888.0,-3970.0,-3.0,-206.0,-536.0,85,25,68,56,39
2025-03-20 15:50:04.776,51.0,3959.0,-5032.0,-107.0,-783.0,-994.0,89,30,65,72,44
2025-03-20 15:50:04.801,5709.0,1978.0,-4476.0,-113.0,-1436.0,-1119.0,91,33,68,75,45
2025-03-20 15:50:04.826,9693.0,-6921.0,6058.0,-30.0,-333.0,-228.0,67,35,72,73,43
2025-03-20 15:50:04.850,2808.0,-6114.0,1575.0,622.0,385.0,43.0,91,31,75,73,40
2025-03-20 15:50:04.874,215.0,-450.0,1825.0,-153.0,183.0,188.0,71,37,75,71,46
2025-03-20 15:50:04.899,-69.0,-2168.0,1377.0,-264.0,86.0,219.0,91,45,77,77,46
2025-03-20 15:50:04.923,51.0,-1642.0,1174.0,-4.0,174.0,216.0,89,42,75,71,45
2025-03-20 15:50:04.944,-201.0,-610.0,719.0,-22.0,247.0,186.0,89,39,74,79,46
2025-03-20 15:50:04.969,-409.0,-619.0,282.0,-110.0,199.0,189.0,86,45,76,71,46
2025-03-20 15:50:04.994,-366.0,-775.0,311.0,-89.0,132.0,207.0,84,41,78,72,46
2025-03-20 15:50:05.018,-8.0,-536.0,621.0,-4.0,217.0,206.0,83,42,77,76,47
2025-03-20 15:50:05.042,-249.0,-240.0,295.0,11.0,258.0,207.0,94,42,79,73,47
2025-03-20 15:50:05.067,-410.0,-55.0,235.0,-37.0,195.0,211.0,96,40,87,76,48
2025-03-20 15:50:05.091,-214.0,-90.0,362.0,-61.0,162.0,210.0,95,43,78,72,49
2025-03-20 15:50:05.100,-149.0,-228.0,159.0,36.0,190.0,244.0,93,44,76,76,48
2025-03-20 15:50:05.137,-301.0,782.0,-548.0,124.0,189.0,291.0,104,38,75,75,52
2025-03-20 15:50:05.162,-639.0,2575.0,-1984.0,157.0,38.0,84.0,104,44,72,74,44
2025-03-20 15:50:05.186,-518.0,4639.0,-3652.0,164.0,-211.0,-423.0,100,40,69,69,47
2025-03-20 15:50:05.210,366.0,4650.0,-4131.0,-58.0,-819.0,-958.0,97,36,67,72,47
2025-03-20 15:50:05.235,7213.0,2086.0,-1395.0,-220.0,-1280.0,-1246.0,86,34,71,75,44
2025-03-20 15:50:05.259,9288.0,-7174.0,4881.0,-276.0,-246.0,-353.0,83,45,73,76,48
2025-03-20 15:50:05.280,2937.0,-6850.0,373.0,541.0,368.0,151.0,85,43,76,77,49
2025-03-20 15:50:05.305,282.0,-1185.0,1279.0,35.0,160.0,269.0,73,31,77,76,50
2025-03-20 15:50:05.330,-169.0,-1633.0,1286.0,-156.0,111.0,236.0,94,41,80,78,46
2025-03-20 15:50:05.353,-65.0,-1647.0,1017.0,45.0,175.0,231.0,88,36,77,75,47
2025-03-20 15:50:05.378,-214.0,-819.0,569.0,61.0,227.0,223.0,103,38,80,75,46
2025-03-20 15:50:05.400,-270.0,-701.0,311.0,1.0,230.0,224.0,103,41,87,70,49
2025-03-20 15:50:05.427,-219.0,-701.0,354.0,8.0,186.0,266.0,106,39,92,71,54
2025-03-20 15:50:05.448,84.0,-687.0,363.0,139.0,204.0,315.0,111,22,91,65,53
2025-03-20 15:50:05.471,-191.0,-147.0,3.0,218.0,257.0,302.0,105,38,90,70,52
2025-03-20 15:50:05.497,-336.0,-85.0,9.0,189.0,258.0,310.0,106,40,90,70,52
2025-03-20 15:50:05.521,-263.0,168.0,-48.0,157.0,225.0,308.0,104,53,88,68,50
2025-03-20 15:50:05.547,-454.0,737.0,-743.0,144.0,190.0,234.0,92,60,84,64,44
2025-03-20 15:50:05.570,-1261.0,1912.0,-2044.0,12.0,-4.0,-4.0,80,71,77,64,39
2025-03-20 15:50:05.595,-1955.0,3356.0,-4977.0,39.0,-579.0,-388.0,62,65,71,61,27
2025-03-20 15:50:05.619,2190.0,2632.0,-6062.0,-68.0,-1331.0,-544.0,70,35,68,66,38
2025-03-20 15:50:05.641,6575.0,-1468.0,-2459.0,193.0,-1433.0,-243.0,75,47,71,75,44
2025-03-20 15:50:05.665,5576.0,297.0,3551.0,678.0,-707.0,-247.0,83,49,76,75,37
2025-03-20 15:50:05.675,3768.0,642.0,5666.0,364.0,-24.0,-188.0,82,63,75,74,47
2025-03-20 15:50:05.714,2188.0,723.0,4123.0,-125.0,92.0,61.0,84,68,75,76,45
2025-03-20 15:50:05.738,1285.0,501.0,3199.0,-319.0,173.0,137.0,76,69,75,76,45
2025-03-20 15:50:05.763,522.0,-108.0,1792.0,-199.0,244.0,81.0,75,61,75,76,46
2025-03-20 15:50:05.784,317.0,-60.0,1422.0,-85.0,289.0,17.0,69,80,74,77,45
2025-03-20 15:50:05.809,562.0,6.0,1355.0,-157.0,356.0,31.0,71,81,74,77,45
2025-03-20 15:50:05.832,252.0,-581.0,533.0,-125.0,361.0,74.0,77,79,77,78,45
2025-03-20 15:50:05.858,-21.0,-291.0,359.0,2.0,262.0,54.0,76,73,76,79,45
2025-03-20 15:50:05.882,153.0,223.0,860.0,-90.0,330.0,44.0,79,62,77,78,43
2025-03-20 15:50:05.907,-142.0,-289.0,232.0,-131.0,376.0,93.0,82,48,78,80,44
2025-03-20 15:50:05.931,-327.0,-98.0,-21.0,-5.0,266.0,104.0,82,59,78,78,43
2025-03-20 15:50:05.952,-81.0,593.0,149.0,-1.0,267.0,47.0,80,58,75,76,46
2025-03-20 15:50:05.976,-496.0,711.0,-761.0,-61.0,261.0,44.0,78,61,77,79,44
2025-03-20 15:50:06.001,-1458.0,592.0,-3072.0,66.0,20.0,-48.0,75,61,73,77,44
2025-03-20 15:50:06.025,-1566.0,1998.0,-5191.0,216.0,-647.0,-278.0,69,64,70,75,42
2025-03-20 15:50:06.051,2980.0,936.0,-4457.0,60.0,-1438.0,-261.0,64,67,70,76,36
2025-03-20 15:50:06.074,6554.0,-1615.0,2255.0,326.0,-1087.0,-21.0,83,70,76,77,47
2025-03-20 15:50:06.099,4635.0,142.0,6619.0,307.0,-72.0,-136.0,76,67,78,77,43
2025-03-20 15:50:06.120,2125.0,258.0,4075.0,59.0,274.0,-45.0,85,53,79,76,47
2025-03-20 15:50:06.143,1281.0,218.0,2857.0,-265.0,284.0,92.0,88,76,80,75,46
2025-03-20 15:50:06.169,785.0,-165.0,1693.0,-413.0,340.0,184.0,90,73,82,75,40
2025-03-20 15:50:06.188,409.0,-324.0,1346.0,-286.0,419.0,215.0,85,71,82,78,41
2025-03-20 15:50:06.218,353.0,117.0,862.0,-185.0,470.0,160.0,87,60,87,75,41
2025-03-20 15:50:06.241,79.0,-8.0,408.0,-146.0,466.0,123.0,95,66,90,68,46
2025-03-20 15:50:06.265,-229.0,-226.0,193.0,-36.0,424.0,142.0,101,71,99,70,52
2025-03-20 15:50:06.290,-1.0,-322.0,-36.0,22.0,382.0,175.0,103,55,104,63,54
2025-03-20 15:50:06.312,-311.0,-33.0,-304.0,84.0,322.0,180.0,107,59,111,49,73
2025-03-20 15:50:06.337,-717.0,-33.0,-167.0,106.0,259.0,152.0,107,59,123,65,67
2025-03-20 15:50:06.362,-666.0,204.0,-312.0,30.0,152.0,107.0,109,56,127,40,88
2025-03-20 15:50:06.386,-626.0,438.0,-146.0,-22.0,105.0,71.0,106,67,129,87,91
2025-03-20 15:50:06.410,-386.0,876.0,-442.0,11.0,96.0,62.0,110,62,129,103,91
2025-03-20 15:50:06.435,-953.0,1913.0,-2579.0,-7.0,-91.0,-93.0,115,79,130,103,94
2025-03-20 15:50:06.458,-998.0,2678.0,-2970.0,-58.0,-357.0,-492.0,119,79,135,104,98
2025-03-20 15:50:06.484,-42.0,2320.0,-3059.0,-347.0,-638.0,-877.0,109,77,138,103,100
2025-03-20 15:50:06.505,5272.0,2117.0,-2210.0,-159.0,-839.0,-993.0,114,63,140,88,102
2025-03-20 15:50:06.529,5327.0,-4516.0,3374.0,-398.0,-733.0,-716.0,127,61,145,101,108
2025-03-20 15:50:06.555,4252.0,-6013.0,1871.0,280.0,51.0,97.0,119,70,146,91,112
2025-03-20 15:50:06.578,1896.0,-2730.0,1808.0,296.0,397.0,280.0,120,66,143,102,111
2025-03-20 15:50:06.603,-38.0,-1313.0,558.0,25.0,325.0,270.0,122,87,139,106,110
2025-03-20 15:50:06.627,-255.0,-752.0,1138.0,-145.0,77.0,253.0,116,101,143,107,108
2025-03-20 15:50:06.652,-13.0,-845.0,1080.0,-128.0,97.0,188.0,126,105,143,107,105
2025-03-20 15:50:06.676,-238.0,-930.0,974.0,-92.0,243.0,200.0,119,105,144,105,109
2025-03-20 15:50:06.697,-118.0,-593.0,355.0,2.0,225.0,223.0,117,104,143,107,108
2025-03-20 15:50:06.722,-98.0,-362.0,531.0,81.0,233.0,271.0,123,95,144,107,107
2025-03-20 15:50:06.746,134.0,-49.0,297.0,113.0,196.0,294.0,118,94,141,109,107
2025-03-20 15:50:06.771,-276.0,221.0,48.0,48.0,234.0,224.0,117,97,141,107,106
2025-03-20 15:50:06.792,1799.0,1799.0,1799.0,224.0,224.0,224.0,115,100,139,108,106
2025-03-20 15:50:06.816,1799.0,1799.0,1799.0,224.0,224.0,224.0,116,94,141,107,104
2025-03-20 15:50:06.836,1799.0,1799.0,1799.0,224.0,224.0,224.0,104,102,139,108,105
2025-03-20 15:50:06.861,1799.0,1799.0,1799.0,224.0,224.0,224.0,118,96,140,107,103
2025-03-20 15:50:06.881,1799.0,1799.0,1799.0,224.0,224.0,224.0,105,93,142,108,106
2025-03-20 15:50:06.906,-381.0,2286.0,-1591.0,-288.0,-542.0,-883.0,107,102,142,105,109
2025-03-20 15:50:06.931,5036.0,2570.0,1468.0,-358.0,-1089.0,-1156.0,108,91,143,107,107
2025-03-20 15:50:06.955,5594.0,-7122.0,2422.0,-365.0,-613.0,-608.0,122,84,146,86,111
2025-03-20 15:50:06.979,3941.0,-6631.0,1580.0,350.0,190.0,250.0,106,56,148,90,113
2025-03-20 15:50:07.004,2433.0,-2193.0,1396.0,562.0,460.0,339.0,115,83,143,99,106
2025-03-20 15:50:07.028,-342.0,-979.0,639.0,37.0,322.0,309.0,114,83,134,96,100
2025-03-20 15:50:07.050,-382.0,-592.0,933.0,23.0,138.0,256.0,111,82,128,99,95
2025-03-20 15:50:07.063,-275.0,-447.0,892.0,-100.0,86.0,187.0,119,81,120,35,86
2025-03-20 15:50:07.099,7.0,-1042.0,625.0,-19.0,231.0,154.0,95,82,105,66,71
2025-03-20 15:50:07.123,-196.0,-1039.0,440.0,94.0,266.0,195.0,112,75,94,0,56
2025-03-20 15:50:07.146,-40.0,-499.0,384.0,89.0,262.0,285.0,98,76,86,0,48
2025-03-20 15:50:07.172,-77.0,-245.0,485.0,49.0,297.0,322.0,90,58,86,0,44
2025-03-20 15:50:07.193,-224.0,-430.0,-43.0,171.0,297.0,326.0,84,59,82,43,40
2025-03-20 15:50:07.218,-197.0,70.0,-658.0,111.0,230.0,324.0,71,76,81,38,30
2025-03-20 15:50:07.241,2593.0,2593.0,2593.0,324.0,324.0,324.0,53,67,77,37,35
2025-03-20 15:50:07.262,2593.0,2593.0,2593.0,-227.0,3.0,62.0,67,57,71,33,32
2025-03-20 15:50:07.288,-1747.0,3156.0,-4202.0,-16.0,-423.0,-391.0,57,52,67,33,40
2025-03-20 15:50:07.312,887.0,3520.0,-5466.0,-167.0,-1069.0,-788.0,64,29,67,48,32
2025-03-20 15:50:07.336,6344.0,-2530.0,-4029.0,-51.0,-1499.0,-509.0,68,70,69,45,41
2025-03-20 15:50:07.358,6481.0,-1918.0,4007.0,856.0,-626.0,-251.0,81,68,77,52,35
2025-03-20 15:50:07.385,3298.0,162.0,5713.0,524.0,92.0,-163.0,80,73,79,54,44
2025-03-20 15:50:07.409,1556.0,675.0,4146.0,-174.0,158.0,110.0,78,50,79,50,44
2025-03-20 15:50:07.428,1280.0,354.0,3462.0,-322.0,287.0,132.0,65,63,80,54,44
2025-03-20 15:50:07.451,650.0,-133.0,1790.0,-235.0,442.0,111.0,71,65,81,54,42
2025-03-20 15:50:07.479,100.0,145.0,725.0,-184.0,424.0,105.0,77,79,81,56,41
2025-03-20 15:50:07.501,140.0,298.0,521.0,-246.0,415.0,107.0,75,71,83,57,43
2025-03-20 15:50:07.529,59.0,-335.0,96.0,-165.0,412.0,104.0,76,68,81,56,42
2025-03-20 15:50:07.552,-267.0,-351.0,-15.0,45.0,327.0,96.0,77,72,80,52,44
2025-03-20 15:50:07.574,-215.0,13.0,74.0,-24.0,266.0,98.0,76,84,83,62,44
2025-03-20 15:50:07.599,64.0,-82.0,291.0,-126.0,314.0,130.0,77,68,83,56,45
2025-03-20 15:50:07.623,-675.0,-371.0,-132.0,-16.0,199.0,176.0,78,80,83,56,45
2025-03-20 15:50:07.647,-315.0,242.0,-201.0,67.0,157.0,155.0,75,74,83,57,46
2025-03-20 15:50:07.669,1244.0,1244.0,1244.0,155.0,155.0,155.0,73,73,74,55,43
2025-03-20 15:50:07.693,1244.0,1244.0,1244.0,155.0,155.0,155.0,67,82,78,54,45
2025-03-20 15:50:07.717,-1869.0,1974.0,-5392.0,96.0,-593.0,-449.0,69,55,74,51,43
2025-03-20 15:50:07.741,2655.0,2775.0,-3982.0,99.0,-1322.0,-616.0,65,53,65,56,38
2025-03-20 15:50:07.765,6785.0,-3617.0,1604.0,246.0,-1295.0,-217.0,78,65,78,57,42
2025-03-20 15:50:07.787,5313.0,-1529.0,7113.0,422.0,-94.0,-92.0,73,81,85,57,43
2025-03-20 15:50:07.811,1616.0,-1025.0,4016.0,200.0,368.0,1.0,79,84,83,59,39
2025-03-20 15:50:07.836,526.0,-293.0,2258.0,-170.0,361.0,111.0,79,81,85,59,45
2025-03-20 15:50:07.861,-62.0,-460.0,1398.0,-329.0,263.0,144.0,75,74,88,60,48
2025-03-20 15:50:07.882,86.0,-634.0,1362.0,-235.0,253.0,131.0,90,67,94,63,48
2025-03-20 15:50:07.909,97.0,-1081.0,815.0,-83.0,325.0,175.0,98,74,99,62,49
2025-03-20 15:50:07.931,-43.0,-616.0,506.0,-4.0,373.0,215.0,105,82,103,63,47
2025-03-20 15:50:07.955,-102.0,-126.0,411.0,64.0,334.0,223.0,110,65,112,61,51
2025-03-20 15:50:07.979,1785.0,1785.0,1785.0,223.0,223.0,223.0,112,74,123,52,43
2025-03-20 15:50:08.000,-314.0,99.0,277.0,43.0,313.0,244.0,118,66,130,59,43
2025-03-20 15:50:08.024,-474.0,88.0,48.0,109.0,301.0,199.0,114,83,134,64,46
2025-03-20 15:50:08.048,-564.0,519.0,-139.0,110.0,241.0,134.0,117,89,137,64,38
2025-03-20 15:50:08.073,-493.0,853.0,-259.0,28.0,189.0,74.0,114,95,137,65,44
2025-03-20 15:50:08.099,-670.0,1323.0,-1209.0,30.0,101.0,-25.0,114,93,138,59,47
2025-03-20 15:50:08.123,-953.0,2518.0,-2414.0,13.0,-108.0,-305.0,99,92,142,63,45
2025-03-20 15:50:08.147,-493.0,2949.0,-3560.0,-124.0,-542.0,-707.0,91,89,144,51,42
2025-03-20 15:50:08.171,2788.0,1713.0,-3859.0,-308.0,-1186.0,-865.0,74,93,147,55,38
2025-03-20 15:50:08.196,5689.0,-1696.0,-1585.0,-163.0,-1278.0,-533.0,88,65,146,73,43
2025-03-20 15:50:08.218,5395.0,-3795.0,3604.0,89.0,-403.0,-189.0,95,90,148,78,31
2025-03-20 15:50:08.242,3072.0,-3989.0,3186.0,371.0,290.0,-13.0,69,34,147,74,47
2025-03-20 15:50:08.266,645.0,-1268.0,2482.0,59.0,273.0,111.0,72,56,146,69,48
2025-03-20 15:50:08.291,291.0,-1238.0,1847.0,-195.0,180.0,203.0,88,51,147,77,47
2025-03-20 15:50:08.315,14.0,-936.0,1412.0,-157.0,203.0,200.0,91,65,146,73,44
2025-03-20 15:50:08.339,78.0,-985.0,942.0,-27.0,308.0,176.0,90,83,147,79,47
2025-03-20 15:50:08.361,89.0,-752.0,469.0,77.0,355.0,202.0,87,97,149,79,48
2025-03-20 15:50:08.385,92.0,-363.0,161.0,56.0,321.0,235.0,85,105,148,76,48
2025-03-20 15:50:08.410,-93.0,-314.0,169.0,29.0,305.0,249.0,90,83,147,79,49
2025-03-20 15:50:08.434,-97.0,-302.0,147.0,47.0,310.0,282.0,91,109,147,77,50
2025-03-20 15:50:08.451,2263.0,2263.0,2263.0,282.0,282.0,282.0,92,108,143,71,49
2025-03-20 15:50:08.479,2263.0,2263.0,2263.0,282.0,282.0,282.0,92,106,144,75,49
2025-03-20 15:50:08.499,2263.0,2263.0,2263.0,282.0,282.0,282.0,84,96,140,74,52
2025-03-20 15:50:08.521,2263.0,2263.0,2263.0,282.0,282.0,282.0,91,105,144,78,50
2025-03-20 15:50:08.545,-779.0,2169.0,-2136.0,97.0,-24.0,-120.0,81,103,144,81,50
2025-03-20 15:50:08.568,-1058.0,2899.0,-3350.0,84.0,-446.0,-476.0,77,95,146,81,50
2025-03-20 15:50:08.594,611.0,2896.0,-3953.0,-64.0,-1029.0,-804.0,83,103,146,83,48
2025-03-20 15:50:08.618,4702.0,-496.0,-103.0,-226.0,-1214.0,-779.0,80,101,149,89,50
2025-03-20 15:50:08.643,6151.0,-4439.0,3487.0,89.0,-698.0,-256.0,96,58,147,85,48
2025-03-20 15:50:08.667,4104.0,-3559.0,3104.0,255.0,122.0,30.0,94,59,145,81,48
2025-03-20 15:50:08.691,768.0,-1406.0,2163.0,224.0,309.0,116.0,83,53,156,88,48
2025-03-20 15:50:08.713,49.0,-782.0,2061.0,-119.0,187.0,130.0,89,77,145,88,51
2025-03-20 15:50:08.737,145.0,-1060.0,1590.0,-171.0,212.0,100.0,84,78,145,75,51
2025-03-20 15:50:08.762,384.0,-1223.0,1286.0,-34.0,317.0,94.0,91,88,145,79,51
2025-03-20 15:50:08.786,55.0,-1176.0,733.0,57.0,349.0,158.0,106,99,133,74,56
2025-03-20 15:50:08.810,159.0,-657.0,776.0,36.0,370.0,212.0,112,99,115,78,55
2025-03-20 15:50:08.835,45.0,-527.0,439.0,33.0,361.0,233.0,114,98,101,80,53
2025-03-20 15:50:08.856,-127.0,-263.0,184.0,11.0,351.0,238.0,111,87,92,74,52
2025-03-20 15:50:08.880,1906.0,1906.0,1906.0,238.0,238.0,238.0,102,71,86,65,49
2025-03-20 15:50:08.901,1906.0,1906.0,1906.0,238.0,238.0,238.0,94,78,85,71,48
2025-03-20 15:50:08.925,1906.0,1906.0,1906.0,238.0,238.0,238.0,84,68,81,64,41
2025-03-20 15:50:08.946,1133.0,541.0,-594.0,46.0,92.0,132.0,70,64,77,61,47
2025-03-20 15:50:08.971,-1478.0,1383.0,-2782.0,176.0,-186.0,-20.0,63,55,66,58,43
2025-03-20 15:50:08.996,-1032.0,2866.0,-5105.0,210.0,-831.0,-343.0,69,43,67,65,38
2025-03-20 15:50:09.020,3033.0,1175.0,-4486.0,32.0,-1425.0,-336.0,67,56,68,74,46
2025-03-20 15:50:09.044,5993.0,-999.0,928.0,430.0,-1196.0,-132.0,77,66,72,73,36
2025-03-20 15:50:09.068,4415.0,648.0,5676.0,589.0,-359.0,-231.0,81,63,74,75,42
2025-03-20 15:50:09.093,2655.0,933.0,4635.0,194.0,133.0,-72.0,83,67,73,75,43
2025-03-20 15:50:09.112,1602.0,347.0,3101.0,-166.0,163.0,73.0,78,77,74,76,43
2025-03-20 15:50:09.139,1061.0,482.0,3140.0,-278.0,212.0,114.0,76,65,75,76,44
2025-03-20 15:50:09.163,513.0,-88.0,1478.0,-173.0,261.0,67.0,75,79,76,81,46
2025-03-20 15:50:09.188,189.0,30.0,1249.0,-128.0,302.0,29.0,71,85,78,80,45
2025-03-20 15:50:09.213,140.0,-113.0,896.0,-152.0,344.0,52.0,71,85,81,79,46
2025-03-20 15:50:09.236,-187.0,-283.0,84.0,-99.0,300.0,95.0,72,87,79,79,46
2025-03-20 15:50:09.261,-135.0,215.0,318.0,-54.0,217.0,35.0,76,80,78,78,45
2025-03-20 15:50:09.283,150.0,-98.0,753.0,-67.0,265.0,8.0,76,69,79,78,46
2025-03-20 15:50:09.307,-260.0,-469.0,-29.0,-58.0,264.0,76.0,73,67,79,79,44
2025-03-20 15:50:09.318,-160.0,52.0,240.0,-7.0,185.0,103.0,73,83,78,79,46
2025-03-20 15:50:09.356,-248.0,744.0,163.0,-51.0,204.0,52.0,74,81,80,80,46
2025-03-20 15:50:09.380,-804.0,708.0,-887.0,-41.0,140.0,4.0,74,65,76,78,44
2025-03-20 15:50:09.405,-1708.0,1148.0,-3107.0,137.0,-235.0,-150.0,73,74,72,78,47
2025-03-20 15:50:09.429,-566.0,1000.0,-4418.0,111.0,-801.0,-242.0,70,70,70,78,46
2025-03-20 15:50:09.453,2423.0,-470.0,-2325.0,187.0,-1165.0,-120.0,73,87,75,77,45
2025-03-20 15:50:09.475,4459.0,-1.0,2845.0,331.0,-853.0,-57.0,80,79,78,77,45
2025-03-20 15:50:09.500,4094.0,156.0,5698.0,218.0,-143.0,-96.0,83,62,82,76,43
2025-03-20 15:50:09.524,2165.0,333.0,4131.0,34.0,213.0,-25.0,85,76,84,77,49
2025-03-20 15:50:09.548,1188.0,127.0,2690.0,-189.0,198.0,73.0,84,79,85,76,45
2025-03-20 15:50:09.573,711.0,-155.0,1952.0,-299.0,194.0,132.0,84,87,86,77,45
2025-03-20 15:50:09.597,653.0,-461.0,1644.0,-284.0,301.0,151.0,87,84,89,77,46
2025-03-20 15:50:09.622,424.0,-416.0,1173.0,-157.0,373.0,151.0,89,86,90,76,44
2025-03-20 15:50:09.643,477.0,-136.0,1035.0,-99.0,437.0,114.0,93,67,93,76,52
2025-03-20 15:50:09.665,253.0,-28.0,634.0,-128.0,450.0,113.0,93,62,94,67,46
2025-03-20 15:50:09.692,107.0,48.0,506.0,-182.0,445.0,112.0,108,61,99,73,46
2025-03-20 15:50:09.716,179.0,15.0,290.0,-218.0,441.0,130.0,106,51,95,68,43
2025-03-20 15:50:09.741,-35.0,-159.0,91.0,-129.0,403.0,147.0,115,50,95,63,54
2025-03-20 15:50:09.765,-747.0,-4.0,-397.0,-95.0,280.0,171.0,111,43,93,47,58
2025-03-20 15:50:09.790,-826.0,645.0,-777.0,-92.0,159.0,117.0,115,42,90,58,57
2025-03-20 15:50:09.811,-617.0,726.0,-615.0,-45.0,104.0,51.0,118,38,88,63,60
2025-03-20 15:50:09.835,-462.0,1930.0,-1312.0,49.0,67.0,-69.0,118,28,85,72,51
2025-03-20 15:50:09.860,-720.0,3281.0,-3158.0,107.0,-139.0,-441.0,108,14,76,63,48
2025-03-20 15:50:09.884,142.0,2977.0,-3456.0,11.0,-540.0,-794.0,101,17,73,76,44
2025-03-20 15:50:09.909,3308.0,1751.0,-2439.0,-115.0,-1120.0,-982.0,81,21,74,71,47
2025-03-20 15:50:09.923,8291.0,-4025.0,3870.0,-54.0,-950.0,-405.0,81,31,76,73,42
2025-03-20 15:50:09.957,4267.0,-6800.0,2520.0,373.0,285.0,-8.0,79,36,77,80,48
2025-03-20 15:50:09.978,500.0,-2247.0,1422.0,253.0,236.0,200.0,77,36,78,81,46
2025-03-20 15:50:10.004,599.0,-1742.0,1711.0,-255.0,145.0,214.0,80,36,78,79,49
2025-03-20 15:50:10.028,247.0,-2002.0,1295.0,-199.0,192.0,266.0,79,36,79,80,48
2025-03-20 15:50:10.052,-282.0,-1289.0,705.0,-14.0,215.0,315.0,90,34,77,80,49
2025-03-20 15:50:10.077,-14.0,-427.0,541.0,-24.0,269.0,294.0,93,27,74,76,49
2025-03-20 15:50:10.100,-163.0,-596.0,72.0,-33.0,253.0,283.0,81,35,78,74,49
2025-03-20 15:50:10.125,-196.0,-552.0,20.0,44.0,200.0,267.0,94,38,78,76,50
2025-03-20 15:50:10.147,54.0,-275.0,205.0,86.0,283.0,247.0,94,39,77,72,46
2025-03-20 15:50:10.169,-680.0,-107.0,-281.0,83.0,240.0,215.0,89,34,81,66,47
2025-03-20 15:50:10.195,-206.0,107.0,114.0,25.0,149.0,198.0,103,31,81,78,49
2025-03-20 15:50:10.220,-357.0,224.0,194.0,43.0,151.0,162.0,99,33,80,80,50
2025-03-20 15:50:10.244,-683.0,253.0,-199.0,63.0,150.0,131.0,103,31,83,79,53
2025-03-20 15:50:10.269,-890.0,717.0,-426.0,41.0,73.0,98.0,107,34,83,79,55
2025-03-20 15:50:10.293,-610.0,1410.0,-1115.0,61.0,-13.0,16.0,105,36,83,79,56
2025-03-20 15:50:10.318,-207.0,2436.0,-2101.0,109.0,-123.0,-213.0,106,37,82,80,56
2025-03-20 15:50:10.337,-824.0,3122.0,-3306.0,83.0,-392.0,-643.0,107,30,77,71,47
2025-03-20 15:50:10.364,1697.0,1591.0,-3783.0,82.0,-1110.0,-882.0,101,35,76,76,50
2025-03-20 15:50:10.388,7859.0,-964.0,-1660.0,158.0,-1254.0,-642.0,93,36,77,78,49
2025-03-20 15:50:10.411,7012.0,-4128.0,5448.0,661.0,101.0,68.0,92,29,89,83,48
2025-03-20 15:50:10.434,120.0,-873.0,2557.0,445.0,388.0,-9.0,104,37,83,82,44
2025-03-20 15:50:10.460,-780.0,529.0,1854.0,-17.0,194.0,67.0,100,39,83,80,45
2025-03-20 15:50:10.483,-615.0,-437.0,1452.0,9.0,90.0,21.0,109,38,83,83,45
2025-03-20 15:50:10.493,-571.0,-81.0,1038.0,104.0,102.0,-25.0,116,35,82,84,44
2025-03-20 15:50:10.531,-526.0,-365.0,701.0,181.0,85.0,-52.0,113,38,84,85,40
2025-03-20 15:50:10.556,-225.0,-268.0,671.0,242.0,32.0,-55.0,125,37,82,85,42
2025-03-20 15:50:10.581,-361.0,174.0,341.0,197.0,-8.0,-69.0,128,40,82,84,47
2025-03-20 15:50:10.605,-375.0,115.0,712.0,210.0,-17.0,-96.0,132,36,83,87,46
2025-03-20 15:50:10.629,-255.0,-144.0,483.0,229.0,-12.0,-115.0,133,39,81,85,42
2025-03-20 15:50:10.654,-240.0,-18.0,626.0,229.0,-50.0,-128.0,135,41,81,85,42
2025-03-20 15:50:10.675,148.0,-534.0,877.0,202.0,-100.0,-122.0,136,41,80,85,43
2025-03-20 15:50:10.699,1118.0,-2148.0,1379.0,215.0,-165.0,-5.0,137,43,77,84,45
2025-03-20 15:50:10.723,2427.0,-1914.0,3524.0,29.0,-70.0,325.0,131,35,80,83,43
2025-03-20 15:50:10.749,3236.0,-1849.0,3280.0,-320.0,222.0,704.0,140,39,81,84,45
2025-03-20 15:50:10.773,3047.0,-421.0,1594.0,-316.0,346.0,891.0,142,39,82,85,47
2025-03-20 15:50:10.783,1916.0,2459.0,697.0,-285.0,287.0,798.0,141,40,81,76,45
2025-03-20 15:50:10.819,-64.0,4937.0,85.0,76.0,296.0,227.0,140,40,81,71,46
2025-03-20 15:50:10.843,-660.0,4537.0,104.0,192.0,156.0,-9.0,128,41,79,71,46
2025-03-20 15:50:10.868,-583.0,3574.0,107.0,106.0,25.0,-266.0,142,41,81,76,48
2025-03-20 15:50:10.892,-19.0,871.0,58.0,87.0,-155.0,-343.0,142,40,80,77,47
2025-03-20 15:50:10.916,769.0,-860.0,1458.0,143.0,-195.0,-209.0,135,38,81,78,48
2025-03-20 15:50:10.941,488.0,-321.0,1879.0,153.0,5.0,-158.0,134,43,80,81,47
2025-03-20 15:50:10.965,-264.0,-233.0,775.0,98.0,35.0,-152.0,129,36,81,78,48
2025-03-20 15:50:10.989,-479.0,117.0,631.0,143.0,-62.0,-129.0,137,40,82,82,48
2025-03-20 15:50:11.011,-529.0,-104.0,465.0,154.0,-115.0,-175.0,140,41,81,84,48
2025-03-20 15:50:11.034,-452.0,411.0,528.0,218.0,-167.0,-209.0,142,42,81,84,50
2025-03-20 15:50:11.060,-435.0,638.0,422.0,216.0,-245.0,-206.0,141,41,79,84,48
2025-03-20 15:50:11.084,-252.0,661.0,831.0,139.0,-285.0,-186.0,141,44,79,83,47
2025-03-20 15:50:11.109,-21.0,393.0,1138.0,125.0,-227.0,-191.0,137,46,77,84,48
2025-03-20 15:50:11.133,191.0,-17.0,1256.0,109.0,-155.0,-175.0,141,42,77,84,47
2025-03-20 15:50:11.155,660.0,-1173.0,1320.0,77.0,-131.0,-67.0,142,43,76,84,49
2025-03-20 15:50:11.179,2272.0,-2706.0,2497.0,20.0,-56.0,243.0,143,41,78,86,49
2025-03-20 15:50:11.203,3126.0,-2324.0,3268.0,-265.0,158.0,650.0,144,46,81,85,49
2025-03-20 15:50:11.228,3504.0,-1177.0,2332.0,-464.0,419.0,947.0,143,44,80,84,49
2025-03-20 15:50:11.252,2802.0,2788.0,1826.0,-575.0,423.0,925.0,141,39,81,77,46
2025-03-20 15:50:11.277,-37.0,5401.0,1067.0,-62.0,463.0,286.0,143,43,82,71,49
2025-03-20 15:50:11.301,-167.0,3925.0,892.0,136.0,381.0,6.0,145,43,81,69,46
2025-03-20 15:50:11.317,-227.0,2138.0,1168.0,18.0,274.0,-155.0,144,43,81,68,46
2025-03-20 15:50:11.347,145.0,-497.0,1544.0,-31.0,244.0,-149.0,133,42,82,64,48
2025-03-20 15:50:11.371,-391.0,-1010.0,1125.0,-10.0,279.0,-72.0,137,29,83,69,49
2025-03-20 15:50:11.396,-593.0,-140.0,877.0,-72.0,243.0,-94.0,135,42,87,69,49
2025-03-20 15:50:11.420,-189.0,-1251.0,321.0,105.0,224.0,-75.0,133,43,93,65,50
2025-03-20 15:50:11.445,-824.0,-896.0,349.0,147.0,157.0,-7.0,124,39,104,56,55
2025-03-20 15:50:11.469,-847.0,-711.0,419.0,133.0,158.0,42.0,129,42,105,55,74
2025-03-20 15:50:11.493,-903.0,-203.0,-209.0,96.0,214.0,59.0,127,53,112,51,80
2025-03-20 15:50:11.515,-908.0,323.0,-89.0,117.0,201.0,77.0,125,49,123,67,90
2025-03-20 15:50:11.539,-494.0,1085.0,-232.0,69.0,182.0,9.0,125,63,126,101,85
2025-03-20 15:50:11.564,-569.0,1492.0,-1233.0,84.0,109.0,-97.0,124,59,129,102,88
2025-03-20 15:50:11.588,-473.0,2266.0,-2096.0,16.0,-87.0,-364.0,120,73,130,102,92
2025-03-20 15:50:11.612,-91.0,2081.0,-2659.0,-192.0,-319.0,-727.0,126,72,134,102,98
2025-03-20 15:50:11.638,832.0,1555.0,-3427.0,-273.0,-484.0,-1016.0,127,45,137,103,77
2025-03-20 15:50:11.661,4429.0,1475.0,3077.0,-131.0,-907.0,-934.0,114,65,139,104,103
2025-03-20 15:50:11.686,5493.0,-1592.0,-828.0,-234.0,-924.0,-735.0,126,42,145,102,109
2025-03-20 15:50:11.710,4937.0,-6237.0,2305.0,507.0,-95.0,22.0,123,27,146,99,111
2025-03-20 15:50:11.735,1789.0,-3517.0,1421.0,399.0,326.0,274.0,127,74,143,101,111
2025-03-20 15:50:11.755,201.0,-929.0,1621.0,38.0,192.0,314.0,127,70,144,100,111
2025-03-20 15:50:11.776,-413.0,-806.0,1083.0,-195.0,140.0,268.0,130,71,144,107,112
2025-03-20 15:50:11.805,-134.0,-443.0,1538.0,-35.0,102.0,214.0,130,87,144,108,110
2025-03-20 15:50:11.830,-261.0,-971.0,689.0,-73.0,280.0,215.0,131,85,144,108,107
2025-03-20 15:50:11.854,-61.0,-865.0,363.0,11.0,307.0,277.0,125,94,144,109,108
2025-03-20 15:50:11.876,137.0,-420.0,279.0,149.0,229.0,333.0,127,92,142,108,109
2025-03-20 15:50:11.900,-156.0,160.0,295.0,65.0,290.0,272.0,121,90,140,107,107
2025-03-20 15:50:11.924,328.0,-250.0,-507.0,57.0,229.0,228.0,126,92,139,107,105
2025-03-20 15:50:11.948,-319.0,-39.0,-77.0,117.0,169.0,232.0,124,84,139,108,106
2025-03-20 15:50:11.973,-457.0,366.0,-99.0,26.0,135.0,213.0,118,88,141,109,105
2025-03-20 15:50:11.998,-462.0,1072.0,-464.0,123.0,135.0,191.0,112,78,138,110,105
2025-03-20 15:50:12.022,-475.0,2539.0,-2564.0,111.0,-39.0,36.0,122,83,140,107,105
2025-03-20 15:50:12.046,-1184.0,3403.0,-3216.0,80.0,-331.0,-435.0,125,89,138,109,106
2025-03-20 15:50:12.068,-356.0,3289.0,-2364.0,-329.0,-483.0,-958.0,125,85,142,109,107
2025-03-20 15:50:12.096,6293.0,4013.0,4469.0,-634.0,-874.0,-1192.0,117,57,144,109,108
2025-03-20 15:50:12.120,6444.0,-9833.0,356.0,155.0,-701.0,-367.0,129,62,148,90,116
2025-03-20 15:50:12.141,3525.0,-4951.0,1586.0,500.0,389.0,291.0,131,4,145,90,118
2025-03-20 15:50:12.166,-13.0,-558.0,1631.0,508.0,520.0,219.0,112,64,135,72,108
2025-03-20 15:50:12.191,-1154.0,464.0,1094.0,198.0,228.0,105.0,131,50,116,82,102
2025-03-20 15:50:12.215,-995.0,-48.0,855.0,-113.0,88.0,41.0,131,33,108,29,81
2025-03-20 15:50:12.239,-284.0,-368.0,489.0,-82.0,35.0,-12.0,126,35,104,45,68
2025-03-20 15:50:12.260,-131.0,-1134.0,403.0,91.0,28.0,9.0,125,28,96,0,58
2025-03-20 15:50:12.285,-238.0,-288.0,860.0,212.0,1.0,28.0,106,34,93,37,43
2025-03-20 15:50:12.310,-402.0,91.0,426.0,232.0,-29.0,-8.0,115,38,91,51,45
2025-03-20 15:50:12.334,-345.0,-15.0,769.0,259.0,-41.0,-66.0,117,27,93,56,41
2025-03-20 15:50:12.356,-335.0,-79.0,796.0,302.0,-35.0,-75.0,117,34,92,60,35
2025-03-20 15:50:12.383,-502.0,375.0,978.0,355.0,-29.0,-126.0,125,31,85,58,40
2025-03-20 15:50:12.407,-500.0,-17.0,702.0,356.0,-15.0,-183.0,125,29,80,46,38
2025-03-20 15:50:12.432,205.0,-886.0,1104.0,344.0,-45.0,-125.0,127,33,79,57,39
2025-03-20 15:50:12.456,1865.0,-2687.0,2434.0,168.0,-78.0,125.0,108,32,78,54,38
2025-03-20 15:50:12.476,3451.0,-3118.0,3743.0,-64.0,239.0,468.0,128,35,80,61,40
2025-03-20 15:50:12.501,3331.0,-1762.0,2341.0,-283.0,413.0,808.0,138,37,81,61,38
2025-03-20 15:50:12.526,2005.0,2265.0,859.0,-429.0,243.0,890.0,140,37,84,64,42
2025-03-20 15:50:12.551,171.0,5063.0,796.0,-193.0,186.0,504.0,136,37,83,63,42
2025-03-20 15:50:12.573,-284.0,4283.0,156.0,191.0,150.0,116.0,139,37,84,64,42
2025-03-20 15:50:12.599,-338.0,4570.0,437.0,71.0,48.0,-107.0,141,37,83,62,42
2025-03-20 15:50:12.621,85.0,1940.0,640.0,-84.0,-53.0,-291.0,140,37,83,63,42
2025-03-20 15:50:12.646,1090.0,-795.0,1737.0,-36.0,-21.0,-198.0,140,39,83,64,42
2025-03-20 15:50:12.662,228.0,-367.0,1306.0,0.0,84.0,-141.0,139,37,83,65,43
2025-03-20 15:50:12.694,-205.0,150.0,845.0,-31.0,77.0,-175.0,119,39,85,67,44
2025-03-20 15:50:12.719,-476.0,-340.0,704.0,-130.0,13.0,-159.0,138,38,84,68,42
2025-03-20 15:50:12.743,-539.0,-208.0,497.0,104.0,-54.0,-146.0,135,39,84,67,37
2025-03-20 15:50:12.767,-548.0,327.0,473.0,172.0,-102.0,-185.0,127,39,86,68,44
2025-03-20 15:50:12.792,-385.0,244.0,766.0,199.0,-122.0,-183.0,129,35,85,70,44
2025-03-20 15:50:12.813,-482.0,552.0,469.0,179.0,-110.0,-218.0,129,38,82,68,42
2025-03-20 15:50:12.837,-498.0,769.0,665.0,166.0,-147.0,-304.0,131,39,82,69,43
2025-03-20 15:50:12.861,-34.0,-278.0,1149.0,223.0,-191.0,-277.0,133,39,82,69,45
2025-03-20 15:50:12.886,439.0,-819.0,1358.0,115.0,-121.0,-168.0,134,38,81,69,39
2025-03-20 15:50:12.911,1980.0,-2836.0,2334.0,-30.0,-18.0,83.0,134,38,83,70,42
2025-03-20 15:50:12.936,2859.0,-3083.0,3316.0,-242.0,197.0,391.0,134,40,84,70,44
2025-03-20 15:50:12.959,2208.0,-1180.0,1932.0,-380.0,365.0,759.0,133,40,86,69,44
2025-03-20 15:50:12.981,550.0,2616.0,444.0,-474.0,113.0,821.0,139,38,85,69,43
2025-03-20 15:50:12.996,-354.0,4590.0,1967.0,-77.0,182.0,253.0,133,38,85,69,43
2025-03-20 15:50:13.030,-226.0,3461.0,1217.0,177.0,301.0,79.0,140,36,86,63,39
2025-03-20 15:50:13.054,-650.0,2759.0,1109.0,-17.0,244.0,-150.0,137,39,88,65,43
2025-03-20 15:50:13.077,-355.0,235.0,1485.0,-69.0,180.0,-218.0,136,38,91,62,43
2025-03-20 15:50:13.104,-478.0,-972.0,976.0,-67.0,174.0,-161.0,134,40,94,67,43
2025-03-20 15:50:13.125,-514.0,-846.0,115.0,-63.0,27.0,-117.0,136,35,100,59,42
2025-03-20 15:50:13.150,-536.0,-1053.0,210.0,-112.0,151.0,-75.0,130,41,104,66,44
2025-03-20 15:50:13.160,-555.0,-891.0,676.0,38.0,135.0,-34.0,136,45,111,71,37
2025-03-20 15:50:13.198,-778.0,-564.0,541.0,109.0,147.0,22.0,135,55,118,61,48
2025-03-20 15:50:13.221,-763.0,-409.0,645.0,112.0,140.0,56.0,136,61,125,70,48
2025-03-20 15:50:13.246,-809.0,3.0,645.0,116.0,176.0,77.0,134,67,130,70,50
2025-03-20 15:50:13.268,-778.0,818.0,305.0,81.0,215.0,50.0,123,74,135,67,48
2025-03-20 15:50:13.296,-697.0,1320.0,-275.0,35.0,207.0,-50.0,118,82,138,67,51
2025-03-20 15:50:13.317,-830.0,2355.0,-1380.0,-12.0,78.0,-328.0,125,79,141,55,47
2025-03-20 15:50:13.342,-513.0,2296.0,-2571.0,-120.0,-233.0,-605.0,111,91,142,52,41
2025-03-20 15:50:13.366,178.0,963.0,-3594.0,-144.0,-659.0,-719.0,88,78,148,42,43
2025-03-20 15:50:13.391,2377.0,-313.0,-3102.0,41.0,-1078.0,-549.0,82,61,146,49,45
2025-03-20 15:50:13.415,5360.0,-1241.0,1746.0,-43.0,-908.0,-421.0,94,52,148,66,49
2025-03-20 15:50:13.439,4184.0,-3362.0,3377.0,190.0,-236.0,-68.0,97,54,147,73,42
2025-03-20 15:50:13.464,1992.0,-2292.0,2788.0,160.0,180.0,118.0,89,28,147,73,46
2025-03-20 15:50:13.485,296.0,-1224.0,2479.0,-79.0,194.0,197.0,96,52,147,70,48
2025-03-20 15:50:13.509,95.0,-933.0,1818.0,-205.0,256.0,242.0,100,91,145,77,48
2025-03-20 15:50:13.534,-62.0,-934.0,844.0,-114.0,291.0,250.0,106,100,148,76,49
2025-03-20 15:50:13.559,-144.0,-698.0,321.0,-7.0,264.0,229.0,103,104,148,78,51
2025-03-20 15:50:13.583,-126.0,-478.0,337.0,25.0,239.0,198.0,102,110,148,72,50
2025-03-20 15:50:13.607,-84.0,-631.0,311.0,58.0,226.0,187.0,106,95,147,77,48
2025-03-20 15:50:13.632,-153.0,-534.0,257.0,107.0,237.0,192.0,109,94,146,79,47
2025-03-20 15:50:13.652,-225.0,-181.0,300.0,133.0,248.0,181.0,109,92,147,80,48
2025-03-20 15:50:13.677,-302.0,-189.0,325.0,99.0,252.0,157.0,108,105,146,80,51
2025-03-20 15:50:13.701,-375.0,-94.0,296.0,106.0,268.0,137.0,111,97,142,78,52
2025-03-20 15:50:13.726,-358.0,552.0,71.0,106.0,288.0,172.0,111,107,144,64,52
2025-03-20 15:50:13.751,-965.0,1968.0,-1729.0,29.0,144.0,96.0,109,106,145,61,48
2025-03-20 15:50:13.775,-1449.0,3621.0,-3650.0,135.0,-248.0,-309.0,99,97,147,76,50
2025-03-20 15:50:13.800,-459.0,3501.0,-4247.0,-97.0,-863.0,-752.0,94,110,148,65,48
2025-03-20 15:50:13.824,4051.0,1356.0,-3050.0,-192.0,-1478.0,-813.0,88,44,147,77,49
2025-03-20 15:50:13.846,7297.0,-6123.0,3569.0,171.0,-739.0,-345.0,97,32,148,79,43
2025-03-20 15:50:13.869,3535.0,-2999.0,3622.0,570.0,260.0,-34.0,103,73,147,81,47
2025-03-20 15:50:13.894,-89.0,-121.0,2092.0,202.0,184.0,15.0,83,43,147,84,50
2025-03-20 15:50:13.919,-467.0,-671.0,1142.0,-30.0,52.0,49.0,105,64,146,74,49
2025-03-20 15:50:13.930,-303.0,-116.0,1604.0,31.0,110.0,-19.0,111,66,146,77,49
2025-03-20 15:50:13.967,-76.0,-589.0,1232.0,182.0,227.0,-67.0,112,84,144,77,52
2025-03-20 15:50:13.989,-153.0,-407.0,928.0,249.0,222.0,-44.0,115,63,143,80,52
2025-03-20 15:50:14.013,-166.0,-134.0,562.0,212.0,176.0,-12.0,120,63,139,82,50
2025-03-20 15:50:14.037,-459.0,12.0,344.0,252.0,105.0,-40.0,125,48,131,81,47
2025-03-20 15:50:14.062,-499.0,116.0,660.0,176.0,73.0,-52.0,127,47,115,77,42
2025-03-20 15:50:14.087,-372.0,-159.0,326.0,233.0,91.0,-57.0,128,43,104,70,38
2025-03-20 15:50:14.098,-464.0,-83.0,466.0,293.0,-17.0,-59.0,130,42,93,69,43
2025-03-20 15:50:14.136,-38.0,-913.0,668.0,235.0,-126.0,-21.0,131,39,84,72,44
2025-03-20 15:50:14.160,1399.0,-2035.0,1724.0,118.0,-178.0,148.0,132,36,82,73,44
2025-03-20 15:50:14.181,2754.0,-2750.0,4140.0,-193.0,79.0,461.0,136,34,83,63,45
2025-03-20 15:50:14.206,3241.0,-2152.0,3072.0,-232.0,344.0,768.0,137,37,84,64,41
2025-03-20 15:50:14.228,1844.0,1695.0,681.0,-231.0,218.0,810.0,140,38,83,71,45
2025-03-20 15:50:14.254,193.0,5227.0,184.0,-258.0,204.0,480.0,138,39,83,71,45
2025-03-20 15:50:14.279,-238.0,3792.0,-149.0,135.0,90.0,80.0,141,35,83,71,48
2025-03-20 15:50:14.304,-285.0,3716.0,520.0,70.0,6.0,-98.0,139,39,83,69,46
2025-03-20 15:50:14.328,318.0,1380.0,1016.0,-27.0,-24.0,-193.0,142,41,83,67,47
2025-03-20 15:50:14.349,370.0,-394.0,1234.0,15.0,0.0,-158.0,135,41,85,72,46
2025-03-20 15:50:14.374,-47.0,-182.0,1255.0,-7.0,56.0,-106.0,135,41,86,74,47
2025-03-20 15:50:14.397,-209.0,32.0,978.0,-39.0,38.0,-124.0,139,40,87,75,47
2025-03-20 15:50:14.423,-257.0,-165.0,1213.0,17.0,36.0,-118.0,140,43,88,75,47
2025-03-20 15:50:14.447,-427.0,-293.0,748.0,108.0,-12.0,-72.0,141,43,90,77,47
2025-03-20 15:50:14.472,-431.0,182.0,775.0,124.0,0.0,-75.0,141,42,90,76,47
2025-03-20 15:50:14.493,-532.0,447.0,699.0,116.0,-4.0,-100.0,140,41,90,77,47
2025-03-20 15:50:14.517,-687.0,696.0,458.0,129.0,-35.0,-143.0,141,40,89,75,47
2025-03-20 15:50:14.541,-681.0,945.0,322.0,186.0,-91.0,-213.0,142,43,89,76,47
2025-03-20 15:50:14.566,-591.0,833.0,126.0,224.0,-146.0,-301.0,141,44,89,77,48
2025-03-20 15:50:14.590,-11.0,-768.0,-83.0,172.0,-356.0,-289.0,141,42,87,77,46
2025-03-20 15:50:14.615,2554.0,-5030.0,3113.0,198.0,-301.0,196.0,141,43,89,76,46
2025-03-20 15:50:14.640,2943.0,-2261.0,4509.0,-5.0,149.0,431.0,143,41,92,74,48
2025-03-20 15:50:14.664,1498.0,330.0,2386.0,-378.0,346.0,581.0,142,41,88,74,47
2025-03-20 15:50:14.686,876.0,2469.0,1166.0,-413.0,354.0,557.0,142,43,93,74,48
2025-03-20 15:50:14.710,-262.0,3690.0,684.0,-82.0,326.0,200.0,142,47,91,73,47
2025-03-20 15:50:14.734,-210.0,2832.0,1055.0,142.0,189.0,8.0,142,49,93,73,44
2025-03-20 15:50:14.758,-15.0,2088.0,1206.0,9.0,229.0,-83.0,142,47,93,50,53
2025-03-20 15:50:14.783,15.0,885.0,1061.0,-46.0,254.0,-137.0,143,47,92,76,53
2025-03-20 15:50:14.807,-126.0,-356.0,876.0,1.0,290.0,-111.0,141,39,94,73,57
2025-03-20 15:50:14.832,-554.0,-394.0,1085.0,129.0,228.0,-91.0,142,44,90,70,60
2025-03-20 15:50:14.853,-653.0,-5.0,799.0,-78.0,199.0,-126.0,142,40,95,74,62
2025-03-20 15:50:14.878,-510.0,-304.0,671.0,-20.0,227.0,-121.0,136,43,91,63,56
2025-03-20 15:50:14.902,-492.0,-90.0,80.0,-7.0,284.0,-75.0,137,45,91,72,63
2025-03-20 15:50:14.926,-899.0,94.0,-167.0,13.0,255.0,-43.0,133,46,85,80,64
2025-03-20 15:50:14.950,-560.0,575.0,-521.0,35.0,182.0,-31.0,136,46,80,56,58
2025-03-20 15:50:14.975,-647.0,1219.0,-984.0,116.0,129.0,-50.0,134,45,75,59,54
2025-03-20 15:50:15.000,-872.0,2285.0,-2118.0,64.0,-12.0,-280.0,128,41,71,51,39
2025-03-20 15:50:15.024,-588.0,4004.0,-4219.0,-173.0,-373.0,-774.0,95,25,71,27,35
2025-03-20 15:50:15.046,1738.0,1434.0,-3915.0,-106.0,-884.0,-1007.0,91,20,69,29,14
2025-03-20 15:50:15.070,6617.0,292.0,-2850.0,357.0,-1380.0,-780.0,89,24,69,47,36
2025-03-20 15:50:15.094,8239.0,-4270.0,6079.0,818.0,-482.0,-97.0,92,36,81,50,35
2025-03-20 15:50:15.119,2376.0,-1630.0,3472.0,579.0,288.0,-37.0,70,40,80,59,32
2025-03-20 15:50:15.143,463.0,-17.0,3406.0,-144.0,148.0,164.0,76,42,79,55,38
2025-03-20 15:50:15.167,454.0,-935.0,2829.0,-354.0,185.0,130.0,86,42,78,62,40
2025-03-20 15:50:15.189,282.0,-1107.0,2097.0,-143.0,319.0,146.0,94,37,81,55,39
2025-03-20 15:50:15.213,-269.0,-199.0,998.0,-97.0,350.0,161.0,103,40,83,61,43
2025-03-20 15:50:15.237,-345.0,-130.0,640.0,-145.0,319.0,152.0,98,38,82,53,44
2025-03-20 15:50:15.262,59.0,-326.0,743.0,-114.0,341.0,178.0,99,37,84,59,42
2025-03-20 15:50:15.286,-270.0,-343.0,291.0,-70.0,312.0,209.0,89,39,84,59,40
2025-03-20 15:50:15.311,-246.0,-15.0,268.0,-60.0,268.0,179.0,98,36,82,59,37
2025-03-20 15:50:15.336,-53.0,-87.0,374.0,-102.0,292.0,156.0,89,37,82,59,40
2025-03-20 15:50:15.357,-567.0,-247.0,116.0,-59.0,224.0,185.0,102,31,82,62,40
2025-03-20 15:50:15.382,-327.0,488.0,-3.0,-50.0,173.0,208.0,101,37,82,57,42
2025-03-20 15:50:15.404,-364.0,1212.0,-537.0,73.0,164.0,159.0,103,42,82,56,42
2025-03-20 15:50:15.431,-909.0,3006.0,-2200.0,164.0,67.0,-54.0,98,41,79,60,40
2025-03-20 15:50:15.454,-1008.0,4598.0,-3633.0,28.0,-280.0,-598.0,93,24,74,48,39
2025-03-20 15:50:15.479,1223.0,3550.0,-4540.0,-45.0,-903.0,-993.0,102,32,74,51,42
2025-03-20 15:50:15.504,7178.0,-2230.0,-386.0,172.0,-1284.0,-815.0,86,36,77,55,45
2025-03-20 15:50:15.525,9036.0,-6259.0,6028.0,529.0,-42.0,127.0,81,41,83,60,43
2025-03-20 15:50:15.550,437.0,-2053.0,1329.0,565.0,369.0,75.0,95,44,82,59,40
2025-03-20 15:50:15.574,-952.0,-163.0,790.0,25.0,143.0,171.0,84,44,81,58,45
2025-03-20 15:50:15.598,-416.0,-1055.0,1640.0,110.0,43.0,111.0,101,43,82,61,46
2025-03-20 15:50:15.623,-392.0,-500.0,891.0,253.0,0.0,89.0,114,32,80,61,49
2025-03-20 15:50:15.647,-250.0,-376.0,865.0,257.0,-19.0,74.0,116,35,80,59,52
2025-03-20 15:50:15.669,122.0,-526.0,1007.0,293.0,53.0,76.0,118,39,81,67,54
2025-03-20 15:50:15.692,113.0,-269.0,958.0,245.0,85.0,122.0,116,39,80,58,57
2025-03-20 15:50:15.717,-312.0,265.0,564.0,177.0,37.0,111.0,117,40,81,64,57
2025-03-20 15:50:15.735,-60.0,183.0,578.0,153.0,75.0,98.0,118,39,81,69,63
2025-03-20 15:50:15.766,-292.0,380.0,604.0,150.0,109.0,93.0,127,34,82,49,79
2025-03-20 15:50:15.790,-582.0,1070.0,400.0,120.0,63.0,71.0,116,39,83,57,89
2025-03-20 15:50:15.815,-672.0,931.0,54.0,91.0,9.0,60.0,116,42,84,65,87
2025-03-20 15:50:15.839,-1683.0,2918.0,-250.0,55.0,-1.0,-28.0,112,41,86,44,101
2025-03-20 15:50:15.864,-2786.0,3457.0,-1794.0,-10.0,-128.0,-229.0,105,42,82,41,110
2025-03-20 15:50:15.886,-2042.0,2922.0,-1883.0,156.0,-270.0,-375.0,128,40,81,36,110
2025-03-20 15:50:15.910,847.0,1867.0,-209.0,141.0,-491.0,-362.0,108,38,84,59,103
2025-03-20 15:50:15.934,4050.0,-662.0,2825.0,79.0,-451.0,-182.0,128,44,89,64,103
2025-03-20 15:50:15.959,4001.0,-1556.0,4026.0,-56.0,-97.0,-5.0,117,37,90,70,99
2025-03-20 15:50:15.983,2478.0,-826.0,2800.0,-129.0,241.0,73.0,117,31,90,61,117
2025-03-20 15:50:16.007,766.0,-526.0,1194.0,-57.0,296.0,114.0,112,40,89,55,77
2025-03-20 15:50:16.032,-176.0,147.0,761.0,-82.0,149.0,160.0,107,37,94,67,117
2025-03-20 15:50:16.053,-301.0,630.0,1160.0,-108.0,182.0,151.0,126,36,94,76,119
2025-03-20 15:50:16.078,-319.0,375.0,782.0,-22.0,216.0,127.0,110,41,94,74,98
2025-03-20 15:50:16.102,-373.0,719.0,507.0,-7.0,175.0,106.0,111,35,93,76,110
2025-03-20 15:50:16.126,-343.0,598.0,661.0,-47.0,143.0,119.0,120,38,91,75,115
2025-03-20 15:50:16.151,-349.0,625.0,456.0,-37.0,177.0,86.0,110,34,92,70,119
2025-03-20 15:50:16.165,-500.0,514.0,160.0,26.0,171.0,77.0,105,34,92,71,119
2025-03-20 15:50:16.196,-570.0,804.0,112.0,35.0,88.0,64.0,107,36,92,72,120
2025-03-20 15:50:16.221,-537.0,844.0,231.0,13.0,45.0,64.0,106,39,93,76,120
2025-03-20 15:50:16.244,-615.0,1092.0,188.0,15.0,67.0,36.0,111,42,93,68,121
2025-03-20 15:50:16.270,-1159.0,1970.0,-638.0,55.0,78.0,-50.0,100,45,92,72,121
2025-03-20 15:50:16.294,-2295.0,2554.0,-2508.0,134.0,-87.0,-160.0,78,41,91,69,123
2025-03-20 15:50:16.319,-2093.0,2613.0,-3009.0,215.0,-419.0,-274.0,103,39,88,63,119
2025-03-20 15:50:16.343,561.0,1807.0,-1070.0,256.0,-714.0,-290.0,105,42,87,64,113
2025-03-20 15:50:16.368,3711.0,202.0,3072.0,132.0,-614.0,-121.0,118,40,93,63,115
2025-03-20 15:50:16.378,3989.0,-1051.0,4503.0,-34.0,-73.0,-45.0,119,45,93,71,121
2025-03-20 15:50:16.414,2190.0,-838.0,2977.0,10.0,161.0,0.0,105,42,92,72,120
2025-03-20 15:50:16.438,604.0,-205.0,1980.0,-175.0,290.0,82.0,100,42,92,65,110
2025-03-20 15:50:16.462,-451.0,412.0,972.0,-167.0,240.0,104.0,103,43,94,78,121
2025-03-20 15:50:16.487,-687.0,672.0,763.0,-104.0,131.0,98.0,111,41,93,74,123
2025-03-20 15:50:16.511,-459.0,987.0,1576.0,-234.0,166.0,119.0,111,44,94,70,98
2025-03-20 15:50:16.529,-139.0,901.0,1451.0,-404.0,276.0,146.0,113,44,96,82,110
2025-03-20 15:50:16.557,19.0,333.0,1076.0,-297.0,394.0,149.0,119,36,100,77,117
2025-03-20 15:50:16.581,-85.0,755.0,536.0,-154.0,454.0,116.0,112,31,99,67,105
2025-03-20 15:50:16.606,-260.0,856.0,251.0,-239.0,386.0,110.0,112,43,101,65,112
2025-03-20 15:50:16.628,-558.0,570.0,-96.0,-154.0,353.0,120.0,126,40,109,56,104
2025-03-20 15:50:16.655,-788.0,313.0,-259.0,-133.0,246.0,139.0,115,42,121,83,88
2025-03-20 15:50:16.676,-727.0,396.0,-180.0,-7.0,166.0,97.0,122,49,123,90,99
2025-03-20 15:50:16.698,-572.0,783.0,-508.0,-19.0,158.0,44.0,121,60,124,100,101
2025-03-20 15:50:16.725,-428.0,1320.0,-1563.0,-9.0,73.0,-6.0,119,63,124,103,105
2025-03-20 15:50:16.750,-846.0,2611.0,-2888.0,-39.0,-172.0,-253.0,119,75,125,101,109
2025-03-20 15:50:16.774,-628.0,2666.0,-3990.0,-260.0,-529.0,-661.0,115,77,131,101,114
2025-03-20 15:50:16.798,-5286.0,-5286.0,-5286.0,-661.0,-661.0,-661.0,122,72,134,102,111
2025-03-20 15:50:16.823,4085.0,701.0,-3696.0,-499.0,-888.0,-946.0,121,70,143,104,57
2025-03-20 15:50:16.844,7577.0,-4152.0,360.0,-869.0,-874.0,-640.0,136,63,147,105,107
2025-03-20 15:50:16.868,5512.0,-7599.0,866.0,372.0,177.0,114.0,130,28,146,101,103
2025-03-20 15:50:16.892,1572.0,-2124.0,2409.0,504.0,486.0,238.0,119,49,142,107,108
2025-03-20 15:50:16.917,-112.0,-841.0,838.0,54.0,305.0,269.0,120,59,143,108,114
2025-03-20 15:50:16.942,-23.0,-599.0,1270.0,-200.0,31.0,211.0,133,94,145,109,123
2025-03-20 15:50:16.966,-317.0,-600.0,1104.0,-34.0,180.0,178.0,139,85,146,109,122
2025-03-20 15:50:16.987,-224.0,-426.0,856.0,49.0,301.0,182.0,134,81,145,108,119
2025-03-20 15:50:17.009,-290.0,-244.0,235.0,102.0,270.0,193.0,130,86,147,108,122
2025-03-20 15:50:17.036,50.0,-306.0,200.0,69.0,263.0,183.0,125,95,144,110,124
2025-03-20 15:50:17.057,-171.0,-202.0,79.0,136.0,235.0,184.0,114,93,143,108,122
2025-03-20 15:50:17.084,-704.0,432.0,426.0,11.0,208.0,162.0,109,87,142,109,127
2025-03-20 15:50:17.098,-303.0,72.0,215.0,-37.0,153.0,96.0,124,88,142,110,122
2025-03-20 15:50:17.134,-471.0,63.0,-220.0,43.0,136.0,101.0,121,92,142,108,121
2025-03-20 15:50:17.153,-663.0,780.0,-461.0,126.0,115.0,147.0,120,90,142,109,119
2025-03-20 15:50:17.180,-995.0,2268.0,-1943.0,141.0,12.0,0.0,103,97,140,109,118
2025-03-20 15:50:17.204,-1575.0,2875.0,-3075.0,13.0,-336.0,-480.0,119,86,142,109,121
2025-03-20 15:50:17.229,-211.0,2809.0,-2104.0,-145.0,-546.0,-975.0,115,89,143,109,111
2025-03-20 15:50:17.253,3938.0,2161.0,1005.0,-461.0,-829.0,-1201.0,112,73,144,110,84
2025-03-20 15:50:17.277,6599.0,-4565.0,1524.0,-392.0,-543.0,-722.0,123,89,145,97,118
2025-03-20 15:50:17.302,5338.0,-6367.0,1394.0,251.0,155.0,232.0,108,65,143,108,118
2025-03-20 15:50:17.324,1813.0,-1669.0,471.0,379.0,366.0,353.0,115,61,139,109,121
2025-03-20 15:50:17.347,-531.0,-652.0,-532.0,154.0,121.0,232.0,114,81,137,107,120
2025-03-20 15:50:17.372,-309.0,-798.0,594.0,80.0,29.0,127.0,121,89,132,108,120
2025-03-20 15:50:17.397,-167.0,-1341.0,405.0,123.0,8.0,125.0,122,72,125,106,121
2025-03-20 15:50:17.421,110.0,-1535.0,408.0,171.0,129.0,214.0,97,48,112,94,119
2025-03-20 15:50:17.445,50.0,-944.0,307.0,382.0,167.0,335.0,111,32,99,52,119
2025-03-20 15:50:17.469,17.0,-335.0,213.0,221.0,128.0,325.0,101,25,95,0,97
2025-03-20 15:50:17.492,234.0,-256.0,192.0,347.0,165.0,272.0,110,21,94,50,95
2025-03-20 15:50:17.516,-17.0,-392.0,-277.0,426.0,141.0,298.0,105,30,89,64,108
2025-03-20 15:50:17.540,-265.0,160.0,-209.0,404.0,59.0,202.0,100,31,88,75,117
2025-03-20 15:50:17.564,-375.0,901.0,-45.0,343.0,-99.0,168.0,102,37,92,74,118
2025-03-20 15:50:17.589,-1038.0,2359.0,-215.0,290.0,-138.0,66.0,104,36,90,71,104
2025-03-20 15:50:17.613,-2131.0,3748.0,-992.0,279.0,-153.0,-109.0,103,37,90,66,121
2025-03-20 15:50:17.638,-2363.0,3945.0,-1357.0,204.0,-329.0,-293.0,93,37,90,63,116
2025-03-20 15:50:17.661,181.0,2157.0,445.0,145.0,-449.0,-347.0,103,38,92,68,123
2025-03-20 15:50:17.683,2563.0,185.0,2718.0,52.0,-302.0,-232.0,94,34,92,74,123
2025-03-20 15:50:17.707,2751.0,-1646.0,3043.0,-73.0,-105.0,-69.0,108,38,95,78,127
2025-03-20 15:50:17.732,2032.0,-1388.0,2941.0,-58.0,86.0,25.0,113,36,95,80,117
2025-03-20 15:50:17.757,570.0,-766.0,1209.0,-129.0,206.0,93.0,88,38,95,74,124
2025-03-20 15:50:17.780,-622.0,-150.0,392.0,-13.0,115.0,108.0,102,33,96,73,123
2025-03-20 15:50:17.806,-484.0,465.0,811.0,-14.0,89.0,95.0,103,36,98,83,124
2025-03-20 15:50:17.827,-459.0,544.0,767.0,-38.0,115.0,84.0,100,36,98,73,127
2025-03-20 15:50:17.852,-397.0,713.0,640.0,25.0,118.0,73.0,105,37,99,83,126
2025-03-20 15:50:17.876,-524.0,692.0,513.0,16.0,121.0,67.0,100,37,98,82,130
2025-03-20 15:50:17.900,-502.0,755.0,497.0,-2.0,104.0,62.0,108,39,97,72,125
2025-03-20 15:50:17.925,-314.0,673.0,664.0,-28.0,118.0,59.0,111,40,97,74,126
2025-03-20 15:50:17.949,-306.0,529.0,436.0,-23.0,145.0,70.0,112,41,98,75,122
2025-03-20 15:50:17.974,-369.0,814.0,233.0,-3.0,143.0,75.0,112,42,99,76,128
2025-03-20 15:50:17.998,-893.0,1751.0,-373.0,-17.0,132.0,31.0,110,38,99,83,127
2025-03-20 15:50:18.019,-1749.0,2113.0,-1894.0,-24.0,41.0,-41.0,107,38,103,78,121
2025-03-20 15:50:18.044,-2521.0,2751.0,-3158.0,75.0,-237.0,-173.0,107,40,96,73,124
2025-03-20 15:50:18.069,-621.0,2448.0,-1656.0,45.0,-617.0,-282.0,99,42,95,81,123
2025-03-20 15:50:18.093,2644.0,-97.0,2545.0,35.0,-580.0,-194.0,106,35,94,77,110
2025-03-20 15:50:18.117,3158.0,-1056.0,4191.0,-86.0,-166.0,-60.0,112,43,96,68,125
2025-03-20 15:50:18.141,2048.0,-1682.0,3445.0,-80.0,72.0,18.0,116,39,95,84,128
2025-03-20 15:50:18.166,525.0,-672.0,2431.0,-183.0,213.0,86.0,113,38,95,79,127
2025-03-20 15:50:18.188,-243.0,-271.0,1549.0,-229.0,232.0,112.0,115,40,98,84,126
2025-03-20 15:50:18.212,-658.0,525.0,1277.0,-142.0,207.0,115.0,120,38,99,86,124
2025-03-20 15:50:18.233,-592.0,963.0,1186.0,-299.0,247.0,108.0,122,39,103,79,123
2025-03-20 15:50:18.261,-429.0,0.0,711.0,-176.0,245.0,126.0,128,39,108,73,117
2025-03-20 15:50:18.284,-375.0,249.0,546.0,-86.0,256.0,156.0,130,30,112,79,101
2025-03-20 15:50:18.309,-728.0,833.0,621.0,-31.0,255.0,113.0,130,30,119,74,78
2025-03-20 15:50:18.334,-782.0,748.0,350.0,-79.0,273.0,72.0,131,49,130,68,74
2025-03-20 15:50:18.356,-681.0,675.0,-21.0,-47.0,277.0,66.0,129,67,133,72,73
2025-03-20 15:50:18.380,-938.0,767.0,-280.0,-9.0,203.0,5.0,131,66,133,71,85
2025-03-20 15:50:18.404,-893.0,1460.0,-634.0,-33.0,122.0,-128.0,131,78,137,78,60
2025-03-20 15:50:18.429,-651.0,1281.0,-1154.0,-129.0,-18.0,-254.0,132,89,141,59,60
2025-03-20 15:50:18.453,-597.0,1202.0,-2099.0,-140.0,-210.0,-325.0,130,90,143,54,57
2025-03-20 15:50:18.477,-255.0,1455.0,-2972.0,-155.0,-486.0,-443.0,110,101,145,58,52
2025-03-20 15:50:18.502,976.0,542.0,-3225.0,-126.0,-816.0,-536.0,112,63,146,61,49
2025-03-20 15:50:18.525,3119.0,-544.0,-1706.0,12.0,-988.0,-407.0,115,64,146,70,42
2025-03-20 15:50:18.548,4542.0,-1963.0,1795.0,-90.0,-805.0,-233.0,115,74,146,70,52
2025-03-20 15:50:18.572,4354.0,-4022.0,4203.0,127.0,-129.0,-26.0,118,12,146,74,57
2025-03-20 15:50:18.597,1571.0,-2047.0,3329.0,156.0,278.0,80.0,108,48,146,63,60
2025-03-20 15:50:18.621,277.0,-938.0,2146.0,-89.0,219.0,173.0,112,81,146,74,60
2025-03-20 15:50:18.645,211.0,-779.0,1728.0,-151.0,233.0,172.0,120,92,147,71,59
2025-03-20 15:50:18.670,231.0,-948.0,1229.0,6.0,321.0,161.0,121,100,147,74,59
2025-03-20 15:50:18.691,150.0,-527.0,713.0,88.0,334.0,150.0,121,101,148,72,54
2025-03-20 15:50:18.716,-56.0,-250.0,502.0,5.0,294.0,152.0,120,97,146,73,58
2025-03-20 15:50:18.740,49.0,-362.0,416.0,-35.0,292.0,190.0,117,102,147,75,58
2025-03-20 15:50:18.764,-15.0,-235.0,312.0,-20.0,314.0,231.0,122,89,146,71,60
2025-03-20 15:50:18.789,-183.0,-110.0,63.0,21.0,305.0,239.0,122,109,148,71,62
2025-03-20 15:50:18.813,-196.0,-28.0,136.0,55.0,301.0,214.0,121,95,147,69,60
2025-03-20 15:50:18.838,-356.0,707.0,-306.0,22.0,268.0,210.0,118,94,146,58,59
2025-03-20 15:50:18.856,-912.0,1746.0,-1783.0,-8.0,131.0,109.0,115,96,147,66,60
2025-03-20 15:50:18.884,-1522.0,3652.0,-3330.0,106.0,-213.0,-288.0,116,110,148,68,57
2025-03-20 15:50:18.909,-263.0,3413.0,-3862.0,-107.0,-734.0,-737.0,107,88,150,72,53
2025-03-20 15:50:18.932,3376.0,744.0,-2189.0,-20.0,-1242.0,-786.0,112,107,147,74,49
2025-03-20 15:50:18.956,6928.0,-3192.0,4388.0,116.0,-907.0,-399.0,123,57,147,75,63
2025-03-20 15:50:18.981,4571.0,-4075.0,3927.0,189.0,159.0,95.0,122,85,147,77,67
2025-03-20 15:50:19.006,588.0,-1044.0,2608.0,280.0,323.0,113.0,111,68,147,75,62
2025-03-20 15:50:19.026,-63.0,-1093.0,1855.0,-66.0,207.0,147.0,118,64,147,76,63
2025-03-20 15:50:19.052,-353.0,-846.0,1314.0,42.0,237.0,139.0,120,101,146,77,62
2025-03-20 15:50:19.076,-273.0,-649.0,755.0,93.0,234.0,116.0,124,88,146,76,64
2025-03-20 15:50:19.096,-109.0,-689.0,521.0,169.0,225.0,101.0,124,91,146,74,63
2025-03-20 15:50:19.125,-94.0,-616.0,447.0,168.0,204.0,149.0,124,76,142,72,60
2025-03-20 15:50:19.147,-147.0,-362.0,417.0,160.0,173.0,181.0,124,65,137,70,61
2025-03-20 15:50:19.174,-327.0,-140.0,220.0,177.0,132.0,187.0,126,52,134,73,57
2025-03-20 15:50:19.195,-387.0,-64.0,241.0,162.0,91.0,189.0,122,42,125,77,67
2025-03-20 15:50:19.208,-269.0,225.0,389.0,159.0,86.0,190.0,122,42,122,67,72
2025-03-20 15:50:19.244,-471.0,622.0,173.0,114.0,48.0,145.0,121,46,121,71,84
2025-03-20 15:50:19.268,-639.0,769.0,-170.0,109.0,10.0,130.0,115,43,119,75,69
2025-03-20 15:50:19.293,-1017.0,1964.0,-450.0,131.0,-56.0,59.0,122,44,113,69,80
2025-03-20 15:50:19.318,-1787.0,3364.0,-1566.0,145.0,-140.0,-163.0,115,40,101,66,94
2025-03-20 15:50:19.341,-2401.0,3444.0,-2486.0,151.0,-362.0,-321.0,102,33,94,71,103
2025-03-20 15:50:19.366,-488.0,2866.0,-1530.0,209.0,-682.0,-402.0,112,36,93,80,118
2025-03-20 15:50:19.387,3380.0,-288.0,1238.0,188.0,-773.0,-251.0,113,38,99,82,103
2025-03-20 15:50:19.411,4563.0,-1146.0,4529.0,145.0,-279.0,-86.0,125,43,102,69,119
2025-03-20 15:50:19.436,3355.0,-1450.0,3735.0,-52.0,109.0,20.0,117,31,105,84,122
2025-03-20 15:50:19.461,1078.0,-788.0,1461.0,-70.0,233.0,81.0,122,29,104,84,74
2025-03-20 15:50:19.481,145.0,-176.0,1236.0,-2.0,198.0,101.0,123,31,109,85,115
2025-03-20 15:50:19.498,-146.0,312.0,991.0,-21.0,149.0,123.0,121,37,110,81,120
2025-03-20 15:50:19.534,-334.0,681.0,817.0,-64.0,116.0,121.0,119,35,111,87,118
2025-03-20 15:50:19.556,-112.0,593.0,968.0,-26.0,154.0,98.0,120,28,111,90,122
2025-03-20 15:50:19.580,-174.0,380.0,745.0,11.0,205.0,82.0,117,33,111,88,120
2025-03-20 15:50:19.604,-449.0,681.0,249.0,41.0,181.0,61.0,116,28,111,90,109
2025-03-20 15:50:19.619,-512.0,783.0,248.0,45.0,121.0,65.0,116,26,110,89,113
2025-03-20 15:50:19.653,-269.0,638.0,401.0,14.0,86.0,66.0,116,35,111,88,122
2025-03-20 15:50:19.678,-370.0,825.0,358.0,61.0,110.0,65.0,123,28,113,90,122
2025-03-20 15:50:19.702,-974.0,1953.0,-209.0,25.0,127.0,27.0,123,41,114,76,115
2025-03-20 15:50:19.723,-1667.0,1966.0,-1820.0,-5.0,88.0,-64.0,120,40,112,66,118
2025-03-20 15:50:19.748,-2453.0,2232.0,-3014.0,233.0,-158.0,-165.0,117,43,108,78,118
2025-03-20 15:50:19.772,-1076.0,2373.0,-1655.0,162.0,-536.0,-203.0,117,43,111,79,104
2025-03-20 15:50:19.797,2036.0,346.0,1281.0,179.0,-570.0,-143.0,116,41,111,86,97
2025-03-20 15:50:19.821,2810.0,366.0,3533.0,105.0,-274.0,-56.0,125,40,118,86,108
2025-03-20 15:50:19.846,2135.0,-391.0,3421.0,-21.0,6.0,-12.0,129,37,119,77,109
2025-03-20 15:50:19.870,1214.0,110.0,2838.0,-45.0,183.0,20.0,127,37,119,86,103
2025-03-20 15:50:19.891,69.0,443.0,1885.0,-144.0,231.0,50.0,126,26,120,87,71
2025-03-20 15:50:19.916,-453.0,622.0,1210.0,-168.0,216.0,64.0,130,38,120,77,118
2025-03-20 15:50:19.940,-418.0,894.0,1278.0,-190.0,234.0,61.0,129,38,119,60,121
2025-03-20 15:50:19.963,-276.0,1049.0,1171.0,-188.0,262.0,52.0,132,43,116,84,101
2025-03-20 15:50:19.989,-275.0,827.0,939.0,-221.0,281.0,49.0,129,35,116,84,106
2025-03-20 15:50:20.014,-364.0,744.0,660.0,-209.0,318.0,34.0,130,37,112,78,91
2025-03-20 15:50:20.037,-435.0,679.0,576.0,-157.0,340.0,20.0,130,43,112,82,39
2025-03-20 15:50:20.060,-232.0,769.0,457.0,-182.0,385.0,4.0,130,48,111,73,76
2025-03-20 15:50:20.081,-413.0,415.0,-90.0,-216.0,357.0,20.0,129,45,111,73,82
2025-03-20 15:50:20.108,-391.0,602.0,-173.0,-157.0,346.0,36.0,128,47,110,70,91
2025-03-20 15:50:20.129,-407.0,1448.0,-758.0,-159.0,286.0,-48.0,126,45,106,65,84
2025-03-20 15:50:20.155,-53.0,1690.0,-1768.0,-144.0,182.0,-165.0,121,42,97,61,67
2025-03-20 15:50:20.182,-279.0,2179.0,-3887.0,-123.0,-42.0,-388.0,114,34,87,63,51
2025-03-20 15:50:20.206,-90.0,2113.0,-5442.0,-176.0,-583.0,-710.0,105,39,79,43,44
2025-03-20 15:50:20.231,3155.0,745.0,-4605.0,-186.0,-1129.0,-840.0,102,20,78,46,45
2025-03-20 15:50:20.252,8185.0,-2835.0,519.0,484.0,-1229.0,-373.0,101,30,87,60,42
2025-03-20 15:50:20.277,6024.0,-1479.0,6392.0,618.0,-55.0,-1.0,96,43,92,68,50
2025-03-20 15:50:20.301,836.0,-1346.0,3831.0,66.0,118.0,62.0,80,42,88,67,44
2025-03-20 15:50:20.325,142.0,-698.0,3237.0,-344.0,37.0,80.0,90,43,87,66,50
2025-03-20 15:50:20.350,107.0,-1338.0,2318.0,-166.0,164.0,67.0,87,42,88,69,53
2025-03-20 15:50:20.374,-308.0,-750.0,1299.0,-75.0,220.0,85.0,102,40,89,70,53
2025-03-20 15:50:20.395,-200.0,-704.0,1225.0,-81.0,203.0,92.0,90,41,89,73,54
2025-03-20 15:50:20.420,68.0,-739.0,1109.0,-71.0,244.0,124.0,96,42,91,72,55
2025-03-20 15:50:20.445,-165.0,-611.0,670.0,-7.0,276.0,137.0,91,45,93,65,57
2025-03-20 15:50:20.469,-249.0,-330.0,470.0,2.0,275.0,155.0,96,47,93,72,56
2025-03-20 15:50:20.493,-172.0,-148.0,350.0,-58.0,282.0,170.0,98,43,91,72,57
2025-03-20 15:50:20.514,-106.0,-157.0,390.0,-27.0,279.0,178.0,100,44,94,73,61
2025-03-20 15:50:20.542,-216.0,-158.0,88.0,77.0,274.0,160.0,103,40,94,73,60
2025-03-20 15:50:20.563,-190.0,145.0,122.0,66.0,268.0,190.0,93,38,93,73,60
2025-03-20 15:50:20.588,-344.0,541.0,-273.0,27.0,230.0,241.0,98,38,94,72,59
2025-03-20 15:50:20.611,293.0,1394.0,-1094.0,137.0,211.0,189.0,112,36,95,63,62
2025-03-20 15:50:20.637,-1453.0,3801.0,-4566.0,145.0,-37.0,-216.0,104,42,82,69,57
2025-03-20 15:50:20.661,-336.0,3549.0,-6033.0,-128.0,-753.0,-739.0,93,33,78,68,53
2025-03-20 15:50:20.685,3689.0,935.0,-4428.0,39.0,-1400.0,-863.0,102,28,80,65,53
2025-03-20 15:50:20.709,8736.0,-3560.0,4875.0,669.0,-990.0,-223.0,107,30,94,70,58
2025-03-20 15:50:20.734,3834.0,-546.0,5817.0,365.0,250.0,-118.0,91,33,94,76,57
2025-03-20 15:50:20.756,-113.0,-537.0,2409.0,-100.0,142.0,22.0,90,46,88,72,57
2025-03-20 15:50:20.779,-391.0,-845.0,1371.0,-294.0,51.0,16.0,81,37,86,66,59
2025-03-20 15:50:20.805,-522.0,-785.0,1060.0,-52.0,78.0,9.0,87,42,86,81,60
2025-03-20 15:50:20.828,-450.0,-557.0,873.0,7.0,76.0,-8.0,84,45,90,77,50
2025-03-20 15:50:20.850,-191.0,-546.0,911.0,-34.0,24.0,2.0,90,47,89,73,59
2025-03-20 15:50:20.878,-172.0,-635.0,1354.0,-65.0,18.0,14.0,91,46,89,76,59
2025-03-20 15:50:20.899,-121.0,-481.0,904.0,48.0,44.0,24.0,91,47,89,76,59
2025-03-20 15:50:20.924,-243.0,-248.0,765.0,14.0,43.0,14.0,85,47,83,76,60
2025-03-20 15:50:20.948,-213.0,-256.0,678.0,-27.0,8.0,12.0,91,46,89,77,59
2025-03-20 15:50:20.970,-129.0,-512.0,798.0,-28.0,-3.0,13.0,93,47,89,76,60
2025-03-20 15:50:20.996,-147.0,-399.0,833.0,26.0,30.0,24.0,93,47,84,75,60
2025-03-20 15:50:21.022,-300.0,-299.0,793.0,21.0,33.0,15.0,92,47,89,78,59
2025-03-20 15:50:21.046,-440.0,-155.0,723.0,-13.0,-7.0,5.0,92,48,90,77,58
2025-03-20 15:50:21.068,-229.0,-428.0,898.0,-31.0,-14.0,-2.0,95,48,91,77,60
2025-03-20 15:50:21.091,-115.0,-578.0,972.0,21.0,24.0,10.0,94,49,90,78,60
2025-03-20 15:50:21.116,-225.0,-333.0,875.0,8.0,27.0,15.0,94,48,89,79,62
2025-03-20 15:50:21.140,-355.0,-353.0,742.0,-2.0,-16.0,8.0,95,50,89,79,61
2025-03-20 15:50:21.165,-204.0,-459.0,1003.0,-4.0,-15.0,8.0,94,48,90,76,61
2025-03-20 15:50:21.189,-232.0,-412.0,998.0,21.0,20.0,8.0,94,48,90,78,65
2025-03-20 15:50:21.214,-345.0,-257.0,928.0,6.0,25.0,5.0,94,48,91,77,61
2025-03-20 15:50:21.225,-401.0,-314.0,811.0,-16.0,-2.0,-5.0,94,48,90,78,61
2025-03-20 15:50:21.260,-247.0,-479.0,889.0,-5.0,-16.0,1.0,95,48,90,78,61
2025-03-20 15:50:21.284,-217.0,-423.0,979.0,-2.0,-1.0,4.0,95,49,91,78,61
2025-03-20 15:50:21.308,-293.0,-369.0,955.0,-4.0,10.0,7.0,95,49,90,78,61
2025-03-20 15:50:21.333,-390.0,-354.0,878.0,-2.0,2.0,3.0,95,48,91,77,60
2025-03-20 15:50:21.355,-332.0,-364.0,917.0,-1.0,0.0,-1.0,94,49,91,77,60
2025-03-20 15:50:21.381,-301.0,-378.0,920.0,-3.0,3.0,0.0,94,47,90,77,62
2025-03-20 15:50:21.403,-292.0,-400.0,892.0,-5.0,6.0,-1.0,95,48,90,78,61
2025-03-20 15:50:21.428,-270.0,-443.0,929.0,-1.0,2.0,2.0,94,48,90,78,61
2025-03-20 15:50:21.452,-288.0,-417.0,903.0,14.0,5.0,4.0,94,48,91,77,61
2025-03-20 15:50:21.473,-284.0,-350.0,911.0,-5.0,-2.0,1.0,95,49,90,79,60
2025-03-20 15:50:21.500,-317.0,-348.0,896.0,-7.0,-3.0,2.0,96,48,90,77,62
2025-03-20 15:50:21.525,-284.0,-424.0,899.0,5.0,0.0,1.0,92,48,92,80,62
2025-03-20 15:50:21.547,-275.0,-401.0,898.0,14.0,4.0,2.0,95,48,91,78,64
2025-03-20 15:50:21.570,-306.0,-324.0,876.0,5.0,2.0,3.0,95,48,91,79,60
2025-03-20 15:50:21.593,-330.0,-326.0,871.0,-8.0,-7.0,-4.0,94,48,91,77,62
2025-03-20 15:50:21.620,-251.0,-455.0,927.0,9.0,2.0,0.0,96,48,91,77,61
2025-03-20 15:50:21.644,-296.0,-340.0,918.0,13.0,6.0,2.0,94,48,91,80,61
2025-03-20 15:50:21.663,-352.0,-320.0,884.0,-4.0,-3.0,-1.0,95,47,91,77,62
2025-03-20 15:50:21.693,-256.0,-430.0,975.0,-6.0,1.0,-3.0,95,48,91,79,60
2025-03-20 15:50:21.714,-260.0,-428.0,972.0,9.0,15.0,2.0,96,47,91,77,61
2025-03-20 15:50:21.739,-319.0,-382.0,898.0,-2.0,10.0,3.0,95,48,92,79,61
2025-03-20 15:50:21.763,-338.0,-330.0,895.0,-17.0,-4.0,-1.0,95,48,92,78,60
2025-03-20 15:50:21.788,-296.0,-446.0,912.0,1.0,5.0,3.0,95,47,91,79,60
2025-03-20 15:50:21.812,-312.0,-401.0,883.0,9.0,14.0,4.0,95,47,91,78,61
2025-03-20 15:50:21.837,-396.0,-254.0,830.0,-3.0,5.0,2.0,95,47,91,78,60
2025-03-20 15:50:21.861,-345.0,-392.0,853.0,-8.0,-5.0,-2.0,95,46,92,79,61
2025-03-20 15:50:21.885,-307.0,-386.0,881.0,2.0,-3.0,-1.0,96,48,92,79,60
2025-03-20 15:50:21.907,-329.0,-375.0,871.0,-3.0,-5.0,1.0,96,48,90,79,62
2025-03-20 15:50:21.931,-302.0,-436.0,901.0,0.0,-4.0,2.0,96,47,92,79,61
2025-03-20 15:50:21.956,-325.0,-365.0,905.0,7.0,-1.0,3.0,96,48,91,78,61
2025-03-20 15:50:21.980,-323.0,-371.0,916.0,-6.0,-3.0,2.0,95,48,91,80,61
2025-03-20 15:50:22.004,-318.0,-403.0,898.0,0.0,-3.0,4.0,95,46,92,80,61
2025-03-20 15:50:22.027,-327.0,-347.0,901.0,-7.0,-4.0,0.0,96,47,92,79,60
2025-03-20 15:50:22.053,-310.0,-389.0,914.0,-3.0,-1.0,3.0,96,51,92,78,60
2025-03-20 15:50:22.075,-315.0,-385.0,887.0,4.0,2.0,4.0,95,47,91,78,60
2025-03-20 15:50:22.099,-337.0,-355.0,860.0,-2.0,-3.0,3.0,97,48,92,77,61
2025-03-20 15:50:22.124,-320.0,-367.0,880.0,1.0,-8.0,3.0,97,48,92,79,60
2025-03-20 15:50:22.148,-314.0,-338.0,923.0,2.0,-3.0,2.0,98,47,92,79,61
2025-03-20 15:50:22.173,-291.0,-358.0,960.0,2.0,7.0,2.0,97,48,93,78,60
2025-03-20 15:50:22.197,-316.0,-387.0,913.0,0.0,7.0,3.0,97,48,92,78,61
2025-03-20 15:50:22.222,-322.0,-344.0,892.0,0.0,-1.0,4.0,96,47,93,78,61
2025-03-20 15:50:22.246,-336.0,-333.0,912.0,-7.0,-2.0,2.0,96,47,91,78,60
2025-03-20 15:50:22.267,-320.0,-374.0,938.0,-11.0,3.0,1.0,97,46,92,79,61
2025-03-20 15:50:22.291,-325.0,-403.0,923.0,-4.0,7.0,3.0,97,46,93,80,61
2025-03-20 15:50:22.315,-338.0,-365.0,911.0,1.0,6.0,5.0,97,47,93,78,62
2025-03-20 15:50:22.340,-382.0,-301.0,871.0,-15.0,0.0,0.0,97,48,93,79,62
2025-03-20 15:50:22.365,-329.0,-422.0,907.0,-10.0,5.0,-1.0,97,47,93,79,61
2025-03-20 15:50:22.389,-350.0,-402.0,859.0,8.0,10.0,3.0,97,47,92,78,61
2025-03-20 15:50:22.411,-386.0,-348.0,818.0,2.0,2.0,1.0,96,47,92,78,60
2025-03-20 15:50:22.435,-348.0,-385.0,884.0,-16.0,-8.0,-1.0,95,48,92,82,61
2025-03-20 15:50:22.459,-314.0,-440.0,897.0,8.0,3.0,3.0,98,47,92,78,60
2025-03-20 15:50:22.474,-368.0,-332.0,863.0,8.0,3.0,2.0,97,47,92,79,61
2025-03-20 15:50:22.509,-362.0,-314.0,880.0,-12.0,-10.0,-2.0,97,46,92,79,61
2025-03-20 15:50:22.533,-303.0,-458.0,909.0,1.0,-6.0,2.0,97,46,93,80,61
2025-03-20 15:50:22.557,-336.0,-348.0,923.0,4.0,3.0,2.0,98,50,93,79,63
2025-03-20 15:50:22.582,-376.0,-304.0,891.0,-10.0,-4.0,0.0,97,48,92,80,63
2025-03-20 15:50:22.602,-337.0,-403.0,895.0,-2.0,0.0,1.0,98,48,92,80,63
2025-03-20 15:50:22.627,-305.0,-380.0,916.0,7.0,5.0,2.0,97,48,92,80,61
2025-03-20 15:50:22.652,-353.0,-342.0,875.0,5.0,5.0,3.0,97,48,92,77,61
2025-03-20 15:50:22.676,-382.0,-295.0,865.0,-17.0,-9.0,-2.0,97,47,83,79,60
2025-03-20 15:50:22.701,-282.0,-474.0,933.0,-5.0,-3.0,1.0,98,48,92,80,61
2025-03-20 15:50:22.720,-340.0,-366.0,891.0,10.0,7.0,3.0,98,48,92,79,60
2025-03-20 15:50:22.749,-395.0,-311.0,845.0,-10.0,-6.0,2.0,98,48,92,79,62
2025-03-20 15:50:22.771,-344.0,-357.0,892.0,-21.0,-13.0,-2.0,97,48,92,79,63
2025-03-20 15:50:22.795,-305.0,-429.0,927.0,14.0,7.0,2.0,98,48,96,79,62
2025-03-20 15:50:22.807,-347.0,-318.0,886.0,6.0,5.0,2.0,98,48,92,80,62
2025-03-20 15:50:22.844,-362.0,-337.0,881.0,-19.0,-10.0,-2.0,98,48,93,83,62
2025-03-20 15:50:22.869,-266.0,-494.0,926.0,4.0,0.0,3.0,98,46,93,81,61
2025-03-20 15:50:22.893,-342.0,-353.0,883.0,14.0,9.0,4.0,98,47,93,79,60
2025-03-20 15:50:22.918,-400.0,-300.0,839.0,-3.0,-5.0,1.0,98,48,94,80,62
2025-03-20 15:50:22.942,-348.0,-358.0,908.0,-19.0,-13.0,-2.0,98,48,93,79,62
2025-03-20 15:50:22.964,-308.0,-432.0,945.0,10.0,0.0,1.0,98,47,93,79,63
2025-03-20 15:50:22.988,-375.0,-343.0,886.0,9.0,5.0,0.0,98,46,93,80,62
