timestamp,ax,ay,az,gx,gy,gz,flex1,flex2,flex3,flex4,flex5,emg1,emg2,emg3
2025-03-20 15:34:10.095,-355.0,-659.0,737.0,43.0,-11.0,-12.0,122,71,122,96,84
2025-03-20 15:34:10.095,-325.0,-645.0,739.0,39.0,-7.0,-14.0,123,69,123,96,84
2025-03-20 15:34:10.101,-335.0,-609.0,724.0,44.0,-8.0,-15.0,124,73,123,96,86
2025-03-20 15:34:10.103,-319.0,-600.0,752.0,25.0,-5.0,-17.0,123,73,124,96,87
2025-03-20 15:34:10.105,-320.0,-618.0,763.0,15.0,-8.0,-18.0,123,71,122,93,85
2025-03-20 15:34:10.108,-314.0,-640.0,782.0,10.0,-9.0,-18.0,123,72,123,95,87
2025-03-20 15:34:10.110,-295.0,-649.0,782.0,9.0,-6.0,-15.0,123,73,122,92,84
2025-03-20 15:34:10.112,-304.0,-635.0,754.0,5.0,-3.0,-15.0,123,73,123,91,87
2025-03-20 15:34:10.115,-299.0,-649.0,762.0,0.0,-1.0,-13.0,123,71,122,94,86
2025-03-20 15:34:10.115,-303.0,-671.0,728.0,0.0,0.0,-9.0,124,73,124,93,87
2025-03-20 15:34:10.122,-300.0,-668.0,741.0,4.0,2.0,-6.0,124,73,124,95,86
2025-03-20 15:34:10.147,-311.0,-673.0,745.0,7.0,5.0,-2.0,124,73,124,93,88
2025-03-20 15:34:10.168,-315.0,-642.0,743.0,8.0,5.0,2.0,123,72,124,95,85
2025-03-20 15:34:10.192,-326.0,-618.0,745.0,6.0,4.0,3.0,123,74,124,95,86
2025-03-20 15:34:10.217,-329.0,-619.0,744.0,1.0,3.0,2.0,123,72,127,94,85
2025-03-20 15:34:10.242,-327.0,-622.0,754.0,-1.0,2.0,3.0,123,72,123,96,86
2025-03-20 15:34:10.266,-339.0,-625.0,750.0,-1.0,2.0,4.0,123,74,125,95,86
2025-03-20 15:34:10.291,-341.0,-621.0,739.0,-3.0,1.0,5.0,124,73,125,95,87
2025-03-20 15:34:10.313,-363.0,-627.0,665.0,7.0,-3.0,5.0,124,74,125,95,86
2025-03-20 15:34:10.337,-335.0,-583.0,778.0,0.0,-4.0,6.0,125,75,127,95,88
2025-03-20 15:34:10.361,-354.0,-573.0,733.0,1.0,-13.0,6.0,126,75,126,94,88
2025-03-20 15:34:10.386,-355.0,-597.0,802.0,11.0,-8.0,6.0,123,72,124,94,85
2025-03-20 15:34:10.410,-325.0,-585.0,714.0,-3.0,4.0,7.0,123,72,124,94,85
2025-03-20 15:34:10.435,-342.0,-583.0,793.0,-2.0,2.0,7.0,124,72,126,94,85
2025-03-20 15:34:10.459,-353.0,-557.0,749.0,-3.0,6.0,9.0,123,71,123,91,85
2025-03-20 15:34:10.483,-346.0,-566.0,729.0,-4.0,1.0,7.0,124,72,123,95,86
2025-03-20 15:34:10.505,-354.0,-552.0,770.0,-2.0,2.0,6.0,124,72,123,94,87
2025-03-20 15:34:10.529,-349.0,-534.0,769.0,0.0,1.0,4.0,124,72,124,94,88
2025-03-20 15:34:10.550,-389.0,-564.0,748.0,1.0,-3.0,4.0,124,72,124,95,86
2025-03-20 15:34:10.573,-369.0,-543.0,726.0,3.0,-6.0,3.0,124,73,123,95,86
2025-03-20 15:34:10.602,-380.0,-529.0,815.0,6.0,-5.0,0.0,123,72,122,94,85
2025-03-20 15:34:10.626,-381.0,-532.0,799.0,0.0,-3.0,-4.0,123,74,123,94,88
2025-03-20 15:34:10.651,-359.0,-577.0,768.0,8.0,2.0,-4.0,123,72,123,93,86
2025-03-20 15:34:10.673,-340.0,-562.0,774.0,4.0,1.0,-3.0,124,72,123,94,86
2025-03-20 15:34:10.697,-348.0,-575.0,804.0,-2.0,1.0,-4.0,123,72,123,91,86
2025-03-20 15:34:10.721,-341.0,-611.0,742.0,0.0,0.0,-3.0,124,73,124,93,86
2025-03-20 15:34:10.745,-321.0,-608.0,808.0,1.0,2.0,-2.0,124,69,122,96,85
2025-03-20 15:34:10.761,-360.0,-591.0,725.0,2.0,2.0,-1.0,125,74,126,92,87
2025-03-20 15:34:10.793,-358.0,-587.0,709.0,1.0,0.0,-1.0,124,73,123,91,86
2025-03-20 15:34:10.810,-366.0,-579.0,750.0,-1.0,-1.0,-1.0,124,73,123,94,86
2025-03-20 15:34:10.841,-364.0,-579.0,770.0,0.0,0.0,-2.0,124,73,123,91,88
2025-03-20 15:34:10.865,-364.0,-579.0,764.0,2.0,0.0,-2.0,124,77,122,91,89
2025-03-20 15:34:10.889,-373.0,-565.0,780.0,-1.0,-1.0,-2.0,125,73,124,93,87
2025-03-20 15:34:10.913,-369.0,-572.0,763.0,-2.0,0.0,-3.0,124,73,124,91,88
2025-03-20 15:34:10.938,-369.0,-591.0,740.0,-4.0,2.0,-3.0,124,74,122,94,87
2025-03-20 15:34:10.952,-365.0,-582.0,751.0,1.0,0.0,-2.0,125,73,123,97,88
2025-03-20 15:34:10.975,-352.0,-597.0,770.0,5.0,3.0,0.0,126,74,124,92,87
2025-03-20 15:34:11.008,-362.0,-572.0,778.0,5.0,5.0,0.0,123,73,123,93,86
2025-03-20 15:34:11.034,-375.0,-554.0,764.0,0.0,3.0,-2.0,123,73,123,93,87
2025-03-20 15:34:11.056,-361.0,-563.0,767.0,-3.0,1.0,-4.0,123,72,123,93,87
2025-03-20 15:34:11.082,-347.0,-587.0,786.0,-2.0,1.0,-3.0,125,74,124,94,89
2025-03-20 15:34:11.106,-346.0,-577.0,784.0,-2.0,4.0,-1.0,124,72,124,92,91
2025-03-20 15:34:11.118,-366.0,-581.0,786.0,1.0,5.0,0.0,125,74,126,92,88
2025-03-20 15:34:11.155,-372.0,-551.0,768.0,1.0,5.0,-1.0,125,74,125,94,87
2025-03-20 15:34:11.177,-368.0,-553.0,756.0,-4.0,4.0,-4.0,125,73,124,93,88
2025-03-20 15:34:11.201,-366.0,-562.0,785.0,-7.0,3.0,-5.0,123,73,123,92,86
2025-03-20 15:34:11.226,-353.0,-595.0,749.0,-4.0,2.0,-5.0,124,76,123,92,86
2025-03-20 15:34:11.250,-365.0,-590.0,786.0,-3.0,6.0,-5.0,124,73,123,93,87
2025-03-20 15:34:11.274,-357.0,-570.0,776.0,-5.0,4.0,-6.0,124,73,125,92,87
2025-03-20 15:34:11.298,-362.0,-595.0,750.0,-4.0,4.0,-5.0,125,74,123,93,88
2025-03-20 15:34:11.323,-352.0,-592.0,750.0,-6.0,4.0,-4.0,125,74,124,94,89
2025-03-20 15:34:11.344,-368.0,-578.0,704.0,-3.0,2.0,-3.0,125,75,124,95,90
2025-03-20 15:34:11.355,-373.0,-587.0,738.0,-2.0,0.0,-2.0,125,74,126,94,88
2025-03-20 15:34:11.393,-376.0,-594.0,716.0,-1.0,-1.0,-3.0,124,74,125,94,89
2025-03-20 15:34:11.418,-388.0,-584.0,729.0,0.0,-3.0,-2.0,124,72,123,93,86
2025-03-20 15:34:11.428,-394.0,-598.0,750.0,-1.0,-5.0,-3.0,124,73,123,95,87
2025-03-20 15:34:11.456,-387.0,-602.0,741.0,2.0,-4.0,-3.0,124,74,122,94,87
2025-03-20 15:34:11.491,-398.0,-594.0,783.0,2.0,-2.0,-3.0,125,74,124,93,87
2025-03-20 15:34:11.507,-383.0,-597.0,739.0,0.0,-3.0,-3.0,125,74,123,95,87
2025-03-20 15:34:11.537,-362.0,-587.0,770.0,4.0,-2.0,-3.0,125,73,125,92,89
2025-03-20 15:34:11.560,-377.0,-583.0,755.0,1.0,1.0,-1.0,125,73,128,94,88
2025-03-20 15:34:11.578,-384.0,-580.0,767.0,0.0,-1.0,-2.0,124,74,124,94,88
2025-03-20 15:34:11.610,-368.0,-578.0,764.0,1.0,0.0,-3.0,124,67,123,93,87
2025-03-20 15:34:11.625,-372.0,-576.0,754.0,1.0,-1.0,-3.0,128,73,124,91,86
2025-03-20 15:34:11.658,-369.0,-582.0,762.0,2.0,-3.0,-4.0,124,73,123,92,87
2025-03-20 15:34:11.674,-346.0,-573.0,797.0,-1.0,-1.0,-4.0,124,74,123,92,88
2025-03-20 15:34:11.697,-369.0,-583.0,765.0,5.0,2.0,-4.0,126,75,126,92,87
2025-03-20 15:34:11.718,-371.0,-592.0,767.0,3.0,2.0,-4.0,125,74,124,93,88
2025-03-20 15:34:11.747,-358.0,-584.0,783.0,5.0,2.0,-2.0,125,73,123,92,88
2025-03-20 15:34:11.778,-339.0,-578.0,795.0,15.0,5.0,-1.0,123,73,123,94,87
2025-03-20 15:34:11.802,-361.0,-581.0,793.0,19.0,9.0,1.0,125,73,124,94,86
2025-03-20 15:34:11.827,-370.0,-569.0,750.0,24.0,11.0,3.0,124,70,123,92,86
2025-03-20 15:34:11.852,-373.0,-507.0,795.0,20.0,10.0,-2.0,124,70,121,91,86
2025-03-20 15:34:11.873,-381.0,-516.0,748.0,5.0,2.0,-6.0,124,69,119,90,86
2025-03-20 15:34:11.898,-382.0,-531.0,772.0,-6.0,-3.0,-9.0,123,68,121,95,86
2025-03-20 15:34:11.921,-352.0,-557.0,766.0,-11.0,0.0,-10.0,124,66,120,90,87
2025-03-20 15:34:11.946,-366.0,-572.0,775.0,-3.0,3.0,-10.0,125,66,118,90,86
2025-03-20 15:34:11.969,-374.0,-583.0,749.0,-2.0,2.0,-8.0,124,66,117,89,86
2025-03-20 15:34:11.995,-347.0,-578.0,744.0,-1.0,1.0,-6.0,124,66,118,93,86
2025-03-20 15:34:12.020,-367.0,-580.0,743.0,3.0,0.0,-2.0,125,66,117,91,86
2025-03-20 15:34:12.041,-367.0,-578.0,769.0,10.0,2.0,-2.0,125,66,118,93,85
2025-03-20 15:34:12.065,-391.0,-584.0,764.0,21.0,6.0,4.0,124,66,117,92,85
2025-03-20 15:34:12.089,-420.0,-600.0,786.0,44.0,12.0,11.0,125,67,117,92,87
2025-03-20 15:34:12.114,-421.0,-505.0,792.0,62.0,15.0,15.0,125,67,117,94,87
2025-03-20 15:34:12.139,-445.0,-532.0,732.0,72.0,17.0,21.0,125,64,118,93,87
2025-03-20 15:34:12.163,-430.0,-614.0,793.0,114.0,23.0,35.0,125,63,119,93,88
2025-03-20 15:34:12.188,-444.0,-477.0,810.0,148.0,33.0,48.0,126,67,120,93,87
2025-03-20 15:34:12.209,-497.0,-277.0,866.0,159.0,34.0,50.0,126,66,119,94,88
2025-03-20 15:34:12.233,-496.0,-170.0,896.0,124.0,21.0,38.0,126,60,117,88,87
2025-03-20 15:34:12.258,-482.0,-190.0,849.0,105.0,20.0,28.0,125,62,118,89,87
2025-03-20 15:34:12.282,-488.0,-141.0,880.0,99.0,12.0,18.0,127,54,118,91,88
2025-03-20 15:34:12.306,-470.0,-83.0,910.0,58.0,12.0,-1.0,126,58,114,85,86
2025-03-20 15:34:12.330,-460.0,-146.0,897.0,35.0,-2.0,-10.0,127,60,114,89,86
2025-03-20 15:34:12.355,-441.0,-118.0,931.0,12.0,-14.0,-18.0,128,58,113,91,88
2025-03-20 15:34:12.380,-384.0,-152.0,994.0,-5.0,-16.0,-23.0,128,61,112,80,87
2025-03-20 15:34:12.399,-355.0,-197.0,946.0,-27.0,-13.0,-19.0,129,63,115,85,87
2025-03-20 15:34:12.424,-396.0,-258.0,911.0,-25.0,-5.0,-16.0,128,64,116,90,87
2025-03-20 15:34:12.440,-403.0,-273.0,910.0,-15.0,-3.0,-8.0,128,65,117,88,87
2025-03-20 15:34:12.472,-414.0,-236.0,892.0,-2.0,2.0,-1.0,129,64,121,90,86
2025-03-20 15:34:12.499,-426.0,-235.0,894.0,-3.0,6.0,3.0,129,64,119,86,87
2025-03-20 15:34:12.521,-488.0,-218.0,819.0,-8.0,1.0,3.0,129,65,118,92,87
2025-03-20 15:34:12.537,-487.0,-170.0,944.0,-3.0,4.0,0.0,129,65,121,90,87
2025-03-20 15:34:12.569,-487.0,-161.0,925.0,-10.0,4.0,-4.0,130,65,122,93,87
2025-03-20 15:34:12.594,-502.0,-186.0,906.0,-16.0,10.0,-9.0,129,64,122,91,88
2025-03-20 15:34:12.618,-512.0,-248.0,914.0,-11.0,5.0,-8.0,127,65,122,93,87
2025-03-20 15:34:12.642,-495.0,-244.0,897.0,-4.0,3.0,-5.0,129,65,123,92,87
2025-03-20 15:34:12.667,-464.0,-213.0,892.0,0.0,9.0,-4.0,128,66,123,94,88
2025-03-20 15:34:12.691,-460.0,-226.0,968.0,1.0,14.0,-5.0,130,66,121,94,87
2025-03-20 15:34:12.701,-475.0,-223.0,819.0,-9.0,13.0,-3.0,128,67,124,91,87
2025-03-20 15:34:12.736,-476.0,-248.0,887.0,-3.0,8.0,-1.0,130,67,124,95,88
2025-03-20 15:34:12.761,-492.0,-240.0,831.0,-7.0,11.0,2.0,130,68,124,95,87
2025-03-20 15:34:12.786,-505.0,-227.0,826.0,-3.0,10.0,3.0,130,69,124,95,88
2025-03-20 15:34:12.799,-497.0,-213.0,837.0,1.0,5.0,2.0,130,69,124,89,88
2025-03-20 15:34:12.834,-498.0,-215.0,845.0,-4.0,6.0,4.0,129,69,124,94,88
2025-03-20 15:34:12.859,-505.0,-210.0,863.0,-4.0,10.0,2.0,129,74,123,94,85
2025-03-20 15:34:12.880,-554.0,-210.0,869.0,-1.0,3.0,1.0,129,70,124,95,87
2025-03-20 15:34:12.905,-528.0,-204.0,875.0,5.0,6.0,0.0,129,69,123,96,88
2025-03-20 15:34:12.929,-499.0,-188.0,849.0,2.0,4.0,0.0,128,70,123,94,87
2025-03-20 15:34:12.954,-534.0,-230.0,830.0,1.0,4.0,-1.0,130,70,124,94,88
2025-03-20 15:34:12.978,-525.0,-218.0,871.0,5.0,0.0,1.0,131,71,124,94,91
2025-03-20 15:34:13.002,-516.0,-200.0,862.0,2.0,-4.0,-1.0,130,70,125,95,89
2025-03-20 15:34:13.027,-508.0,-222.0,887.0,0.0,-3.0,-2.0,130,70,126,92,88
2025-03-20 15:34:13.052,-526.0,-227.0,858.0,-1.0,-3.0,-2.0,130,69,125,95,88
2025-03-20 15:34:13.073,-511.0,-234.0,839.0,-3.0,-4.0,-3.0,130,69,124,89,87
2025-03-20 15:34:13.097,-480.0,-248.0,870.0,-1.0,-4.0,-1.0,130,69,123,92,85
2025-03-20 15:34:13.122,-508.0,-238.0,865.0,-1.0,1.0,1.0,129,70,125,93,87
2025-03-20 15:34:13.146,-510.0,-219.0,868.0,-3.0,-4.0,2.0,128,70,125,90,88
2025-03-20 15:34:13.171,-482.0,-233.0,913.0,-6.0,-1.0,2.0,129,70,127,95,88
2025-03-20 15:34:13.195,-498.0,-214.0,870.0,-1.0,-2.0,3.0,130,70,125,88,88
2025-03-20 15:34:13.220,-503.0,-200.0,876.0,2.0,-2.0,3.0,130,70,124,89,86
2025-03-20 15:34:13.240,-500.0,-187.0,885.0,-1.0,-1.0,2.0,130,70,124,87,87
2025-03-20 15:34:13.265,-513.0,-189.0,877.0,0.0,-3.0,2.0,131,69,125,92,89
2025-03-20 15:34:13.290,-499.0,-190.0,898.0,2.0,-3.0,0.0,131,69,125,87,89
2025-03-20 15:34:13.314,-513.0,-207.0,855.0,6.0,-2.0,2.0,129,70,125,89,88
2025-03-20 15:34:13.338,-534.0,-174.0,872.0,5.0,-1.0,1.0,129,70,129,93,89
2025-03-20 15:34:13.363,-513.0,-198.0,871.0,-2.0,-3.0,0.0,130,70,124,91,88
2025-03-20 15:34:13.387,-504.0,-208.0,888.0,0.0,-1.0,1.0,130,71,127,84,90
2025-03-20 15:34:13.409,-512.0,-200.0,866.0,-1.0,0.0,0.0,130,71,125,93,89
2025-03-20 15:34:13.434,-510.0,-194.0,869.0,-3.0,-1.0,-1.0,130,70,124,92,89
2025-03-20 15:34:13.458,-513.0,-206.0,864.0,-2.0,-2.0,-1.0,130,70,119,89,86
2025-03-20 15:34:13.482,-518.0,-205.0,875.0,-1.0,-3.0,-1.0,130,70,124,92,88
2025-03-20 15:34:13.507,-507.0,-213.0,876.0,0.0,-1.0,-1.0,130,70,124,90,88
2025-03-20 15:34:13.531,-500.0,-186.0,881.0,0.0,0.0,0.0,130,70,125,91,88
2025-03-20 15:34:13.555,-506.0,-196.0,873.0,-1.0,0.0,-1.0,130,70,124,93,88
2025-03-20 15:34:13.574,-500.0,-203.0,871.0,-1.0,-1.0,0.0,131,70,123,94,88
2025-03-20 15:34:13.601,-511.0,-195.0,869.0,2.0,1.0,1.0,130,71,126,92,89
2025-03-20 15:34:13.625,-510.0,-176.0,869.0,1.0,1.0,0.0,130,70,125,93,89
2025-03-20 15:34:13.650,-504.0,-179.0,874.0,-1.0,0.0,-1.0,130,71,124,92,91
2025-03-20 15:34:13.675,-507.0,-186.0,858.0,-2.0,0.0,-2.0,130,69,123,92,88
2025-03-20 15:34:13.696,-501.0,-182.0,866.0,-1.0,-2.0,-4.0,130,69,126,94,88
2025-03-20 15:34:13.720,-495.0,-209.0,874.0,0.0,-1.0,-4.0,130,71,123,93,88
2025-03-20 15:34:13.745,-497.0,-195.0,882.0,1.0,-1.0,-4.0,130,70,125,91,89
2025-03-20 15:34:13.769,-506.0,-181.0,881.0,-2.0,-2.0,-7.0,131,71,124,92,89
2025-03-20 15:34:13.794,-495.0,-213.0,889.0,-6.0,-3.0,-5.0,129,71,124,92,87
2025-03-20 15:34:13.818,-502.0,-211.0,879.0,-5.0,-3.0,-4.0,130,71,124,92,88
2025-03-20 15:34:13.828,-509.0,-213.0,869.0,-8.0,-3.0,-3.0,131,70,124,91,89
2025-03-20 15:34:13.867,-494.0,-225.0,878.0,-6.0,-3.0,-2.0,130,71,124,93,89
2025-03-20 15:34:13.891,-498.0,-232.0,875.0,-1.0,-2.0,0.0,129,70,125,93,89
2025-03-20 15:34:13.913,-501.0,-198.0,874.0,-2.0,-1.0,0.0,130,70,123,90,88
2025-03-20 15:34:13.936,-502.0,-212.0,872.0,-2.0,-2.0,0.0,129,74,124,91,87
2025-03-20 15:34:13.961,-512.0,-201.0,876.0,0.0,-2.0,0.0,129,71,123,90,88
2025-03-20 15:34:13.986,-504.0,-185.0,891.0,-2.0,-1.0,-1.0,129,70,126,94,90
2025-03-20 15:34:14.010,-503.0,-216.0,881.0,-3.0,1.0,-1.0,129,71,123,92,88
2025-03-20 15:34:14.035,-508.0,-213.0,861.0,-1.0,0.0,0.0,129,71,124,92,89
2025-03-20 15:34:14.059,-503.0,-207.0,883.0,-1.0,-1.0,0.0,129,68,125,96,88
2025-03-20 15:34:14.071,-500.0,-208.0,873.0,-1.0,-2.0,0.0,129,70,124,94,89
2025-03-20 15:34:14.103,-495.0,-201.0,871.0,-2.0,-1.0,0.0,128,69,125,95,88
2025-03-20 15:34:14.129,-496.0,-211.0,866.0,-3.0,-1.0,-1.0,129,70,123,95,88
2025-03-20 15:34:14.154,-485.0,-209.0,878.0,-1.0,-2.0,-1.0,128,70,124,95,89
2025-03-20 15:34:14.178,-506.0,-216.0,867.0,-3.0,-1.0,0.0,131,71,124,95,89
2025-03-20 15:34:14.203,-497.0,-217.0,856.0,-2.0,0.0,0.0,130,71,124,96,89
2025-03-20 15:34:14.227,-507.0,-237.0,853.0,3.0,2.0,4.0,129,70,126,96,88
2025-03-20 15:34:14.249,-519.0,-237.0,883.0,2.0,-3.0,5.0,130,71,120,96,89
2025-03-20 15:34:14.272,-492.0,-162.0,835.0,-3.0,-7.0,1.0,129,70,123,94,88
2025-03-20 15:34:14.298,-502.0,-209.0,860.0,-5.0,-10.0,0.0,128,68,122,95,86
2025-03-20 15:34:14.322,-496.0,-214.0,901.0,0.0,-10.0,1.0,129,69,120,95,86
2025-03-20 15:34:14.346,-490.0,-227.0,910.0,-5.0,-7.0,1.0,129,69,121,94,86
2025-03-20 15:34:14.369,-484.0,-217.0,915.0,-3.0,-8.0,2.0,130,69,120,94,87
2025-03-20 15:34:14.395,-472.0,-195.0,902.0,-11.0,-5.0,1.0,129,70,120,94,87
2025-03-20 15:34:14.419,-469.0,-220.0,927.0,-11.0,1.0,0.0,130,68,121,94,87
2025-03-20 15:34:14.440,-483.0,-225.0,875.0,-5.0,1.0,2.0,130,69,121,94,85
2025-03-20 15:34:14.465,-499.0,-225.0,857.0,0.0,0.0,5.0,129,70,122,94,87
2025-03-20 15:34:14.490,-484.0,-186.0,852.0,-4.0,-1.0,6.0,130,69,123,94,85
2025-03-20 15:34:14.514,-503.0,-200.0,859.0,0.0,-1.0,4.0,129,67,121,93,82
2025-03-20 15:34:14.538,-512.0,-181.0,882.0,-1.0,-1.0,1.0,129,68,120,94,86
2025-03-20 15:34:14.562,-502.0,-197.0,890.0,0.0,0.0,0.0,127,67,119,95,85
2025-03-20 15:34:14.588,-498.0,-194.0,890.0,-3.0,-2.0,-1.0,129,68,120,95,87
2025-03-20 15:34:14.609,-476.0,-189.0,898.0,-6.0,0.0,-4.0,130,68,122,95,83
2025-03-20 15:34:14.633,-490.0,-212.0,889.0,-7.0,1.0,-5.0,130,69,121,95,85
2025-03-20 15:34:14.658,-487.0,-210.0,854.0,-12.0,-2.0,-5.0,129,68,121,96,85
2025-03-20 15:34:14.682,-497.0,-192.0,866.0,-23.0,-6.0,-9.0,130,69,122,95,86
2025-03-20 15:34:14.706,-491.0,-240.0,874.0,-29.0,-8.0,-10.0,129,69,120,95,85
2025-03-20 15:34:14.731,-468.0,-266.0,899.0,-18.0,-8.0,-9.0,129,69,121,95,85
2025-03-20 15:34:14.755,-470.0,-280.0,880.0,-15.0,-3.0,-6.0,128,69,121,96,85
2025-03-20 15:34:14.777,-475.0,-291.0,892.0,-5.0,-2.0,-3.0,129,69,120,93,85
2025-03-20 15:34:14.802,-492.0,-269.0,864.0,-2.0,1.0,-1.0,129,69,123,94,86
2025-03-20 15:34:14.823,-485.0,-246.0,897.0,-5.0,0.0,-3.0,129,71,121,90,85
2025-03-20 15:34:14.850,-484.0,-273.0,925.0,-2.0,-2.0,-4.0,129,71,121,90,85
2025-03-20 15:34:14.875,-478.0,-300.0,879.0,-3.0,1.0,-2.0,130,69,122,92,85
2025-03-20 15:34:14.896,-487.0,-281.0,901.0,3.0,0.0,0.0,130,69,122,93,86
2025-03-20 15:34:14.912,-483.0,-288.0,912.0,1.0,2.0,1.0,129,69,122,94,84
2025-03-20 15:34:14.945,-490.0,-284.0,859.0,5.0,4.0,4.0,129,70,121,94,85
2025-03-20 15:34:14.969,-486.0,-242.0,866.0,6.0,3.0,2.0,129,66,122,95,81
2025-03-20 15:34:14.993,-492.0,-229.0,939.0,1.0,2.0,0.0,130,70,123,94,83
2025-03-20 15:34:15.018,-493.0,-273.0,907.0,5.0,4.0,0.0,132,67,123,96,87
2025-03-20 15:34:15.043,-483.0,-265.0,850.0,2.0,6.0,0.0,130,72,124,92,86
2025-03-20 15:34:15.067,-490.0,-259.0,810.0,8.0,3.0,-1.0,132,72,123,94,87
2025-03-20 15:34:15.077,-487.0,-243.0,848.0,9.0,4.0,1.0,129,72,124,96,86
2025-03-20 15:34:15.113,-496.0,-255.0,843.0,1.0,0.0,0.0,131,71,124,91,86
2025-03-20 15:34:15.137,-485.0,-266.0,886.0,0.0,2.0,0.0,129,71,121,95,86
2025-03-20 15:34:15.161,-488.0,-251.0,876.0,-2.0,3.0,1.0,130,71,122,94,86
2025-03-20 15:34:15.186,-490.0,-251.0,858.0,-3.0,2.0,0.0,130,70,122,95,85
2025-03-20 15:34:15.210,-485.0,-252.0,851.0,-6.0,2.0,0.0,131,72,123,96,86
2025-03-20 15:34:15.235,-494.0,-251.0,837.0,-10.0,1.0,-1.0,130,70,118,95,85
2025-03-20 15:34:15.259,-489.0,-269.0,835.0,-10.0,-1.0,0.0,132,70,123,95,85
2025-03-20 15:34:15.281,-486.0,-286.0,864.0,-7.0,-1.0,1.0,130,71,122,95,85
2025-03-20 15:34:15.305,-503.0,-263.0,781.0,-2.0,-3.0,1.0,130,71,123,97,85
2025-03-20 15:34:15.330,-498.0,-232.0,851.0,4.0,-5.0,1.0,129,75,121,93,88
2025-03-20 15:34:15.354,-507.0,-241.0,875.0,-6.0,-5.0,0.0,130,70,122,94,84
2025-03-20 15:34:15.379,-511.0,-253.0,871.0,-6.0,-6.0,-1.0,131,70,121,95,84
2025-03-20 15:34:15.403,-506.0,-263.0,869.0,-2.0,-4.0,-1.0,130,70,121,94,84
2025-03-20 15:34:15.422,-502.0,-250.0,861.0,1.0,-2.0,-1.0,131,72,123,96,86
2025-03-20 15:34:15.449,-503.0,-244.0,868.0,1.0,-1.0,-2.0,133,72,124,96,86
2025-03-20 15:34:15.473,-496.0,-248.0,865.0,0.0,-2.0,-3.0,131,72,123,95,86
2025-03-20 15:34:15.496,-488.0,-248.0,858.0,0.0,-2.0,-4.0,133,72,123,95,86
2025-03-20 15:34:15.523,-485.0,-255.0,864.0,-1.0,0.0,-5.0,131,71,122,95,86
2025-03-20 15:34:15.546,-477.0,-264.0,881.0,-1.0,0.0,-5.0,130,71,121,95,85
2025-03-20 15:34:15.569,-480.0,-272.0,864.0,-2.0,0.0,-3.0,130,70,122,95,85
2025-03-20 15:34:15.593,-482.0,-285.0,864.0,-2.0,-1.0,-3.0,130,71,121,95,85
2025-03-20 15:34:15.610,-475.0,-279.0,872.0,-1.0,-2.0,-1.0,132,71,123,96,86
2025-03-20 15:34:15.641,-486.0,-276.0,869.0,0.0,-1.0,-1.0,131,71,122,96,85
2025-03-20 15:34:15.666,-490.0,-279.0,871.0,-1.0,-1.0,0.0,131,71,122,97,87
2025-03-20 15:34:15.690,-495.0,-273.0,868.0,-1.0,-2.0,1.0,131,72,119,97,86
2025-03-20 15:34:15.715,-489.0,-266.0,881.0,0.0,0.0,1.0,132,72,123,97,87
2025-03-20 15:34:15.738,-490.0,-264.0,866.0,-3.0,1.0,1.0,130,70,122,96,85
2025-03-20 15:34:15.763,-496.0,-261.0,867.0,-2.0,0.0,1.0,130,70,122,96,86
2025-03-20 15:34:15.785,-499.0,-265.0,862.0,-2.0,0.0,0.0,131,70,120,96,85
2025-03-20 15:34:15.809,-495.0,-260.0,853.0,-1.0,0.0,1.0,131,68,122,95,87
2025-03-20 15:34:15.834,-489.0,-253.0,860.0,-1.0,0.0,0.0,132,70,125,96,86
2025-03-20 15:34:15.858,-494.0,-250.0,864.0,-1.0,0.0,0.0,131,70,124,96,87
2025-03-20 15:34:15.882,-494.0,-258.0,866.0,0.0,-1.0,0.0,132,70,124,97,86
2025-03-20 15:34:15.907,-494.0,-266.0,846.0,-3.0,-1.0,0.0,131,71,123,97,87
2025-03-20 15:34:15.931,-485.0,-251.0,866.0,-2.0,0.0,0.0,132,70,112,97,87
2025-03-20 15:34:15.956,-490.0,-242.0,842.0,-3.0,2.0,-1.0,130,69,122,96,85
2025-03-20 15:34:15.977,-495.0,-262.0,842.0,-3.0,-1.0,-2.0,129,70,122,95,86
2025-03-20 15:34:16.001,-493.0,-254.0,876.0,-1.0,-1.0,-2.0,131,69,123,96,85
2025-03-20 15:34:16.026,-506.0,-256.0,870.0,0.0,-1.0,-2.0,130,70,123,95,85
2025-03-20 15:34:16.050,-490.0,-266.0,863.0,-2.0,0.0,-2.0,132,72,126,96,86
2025-03-20 15:34:16.074,-488.0,-271.0,858.0,0.0,-1.0,-2.0,132,72,124,97,87
2025-03-20 15:34:16.088,-494.0,-257.0,863.0,-2.0,-1.0,-2.0,130,71,124,96,86
2025-03-20 15:34:16.119,-496.0,-271.0,862.0,-2.0,-2.0,-2.0,132,71,123,95,85
2025-03-20 15:34:16.145,-487.0,-274.0,864.0,-1.0,0.0,-2.0,130,70,121,97,86
2025-03-20 15:34:16.169,-496.0,-266.0,859.0,0.0,-2.0,-1.0,128,71,123,96,86
2025-03-20 15:34:16.194,-496.0,-264.0,870.0,-2.0,-1.0,-1.0,130,71,122,95,86
2025-03-20 15:34:16.218,-485.0,-256.0,864.0,0.0,0.0,-1.0,131,70,123,96,83
2025-03-20 15:34:16.241,-494.0,-263.0,875.0,2.0,1.0,-2.0,131,70,124,97,86
2025-03-20 15:34:16.258,-496.0,-257.0,870.0,-1.0,-2.0,-1.0,131,72,124,94,86
2025-03-20 15:34:16.290,-491.0,-259.0,864.0,0.0,-2.0,-1.0,131,71,123,97,87
2025-03-20 15:34:16.313,-492.0,-250.0,875.0,0.0,-1.0,-2.0,131,70,123,97,87
2025-03-20 15:34:16.337,-492.0,-257.0,873.0,0.0,1.0,-2.0,132,70,124,97,87
2025-03-20 15:34:16.361,-488.0,-266.0,867.0,-2.0,0.0,-2.0,129,68,122,95,85
2025-03-20 15:34:16.386,-494.0,-271.0,852.0,-1.0,-1.0,-2.0,127,69,121,96,85
2025-03-20 15:34:16.410,-490.0,-267.0,843.0,-1.0,-1.0,-2.0,131,68,123,95,86
2025-03-20 15:34:16.435,-487.0,-261.0,866.0,0.0,0.0,-1.0,131,69,123,95,86
2025-03-20 15:34:16.459,-493.0,-269.0,865.0,-1.0,0.0,-2.0,131,70,123,96,85
2025-03-20 15:34:16.481,-490.0,-264.0,869.0,-2.0,-1.0,-1.0,132,71,123,97,86
2025-03-20 15:34:16.506,-493.0,-260.0,852.0,-2.0,-2.0,-1.0,132,71,123,97,86
2025-03-20 15:34:16.529,-490.0,-257.0,868.0,-1.0,-2.0,-1.0,132,71,124,95,87
2025-03-20 15:34:16.554,-494.0,-262.0,866.0,-1.0,0.0,-1.0,131,71,123,96,86
2025-03-20 15:34:16.579,-492.0,-261.0,870.0,-1.0,-1.0,-1.0,130,70,120,95,86
2025-03-20 15:34:16.603,-494.0,-260.0,864.0,-2.0,-1.0,-1.0,131,72,122,94,85
2025-03-20 15:34:16.628,-488.0,-265.0,866.0,0.0,-2.0,-1.0,130,70,123,95,85
2025-03-20 15:34:16.649,-492.0,-259.0,872.0,0.0,-1.0,-1.0,131,71,123,96,86
2025-03-20 15:34:16.671,-492.0,-254.0,862.0,-1.0,-1.0,-1.0,131,71,123,97,87
2025-03-20 15:34:16.696,-492.0,-259.0,877.0,-2.0,0.0,-1.0,132,71,124,96,84
2025-03-20 15:34:16.713,-488.0,-258.0,866.0,-2.0,1.0,0.0,131,72,124,97,88
2025-03-20 15:34:16.744,-491.0,-254.0,855.0,-2.0,0.0,-1.0,131,71,124,97,86
2025-03-20 15:34:16.770,-485.0,-255.0,856.0,-2.0,-1.0,-1.0,131,70,122,96,85
2025-03-20 15:34:16.795,-494.0,-263.0,857.0,-1.0,-1.0,-1.0,131,69,123,95,86
2025-03-20 15:34:16.817,-491.0,-256.0,865.0,-2.0,0.0,-2.0,130,67,122,95,86
2025-03-20 15:34:16.841,-495.0,-263.0,856.0,-2.0,-1.0,-3.0,131,69,121,96,85
2025-03-20 15:34:16.852,-490.0,-265.0,863.0,0.0,-1.0,-3.0,131,67,122,98,86
2025-03-20 15:34:16.890,-489.0,-270.0,868.0,0.0,-1.0,-3.0,132,70,121,98,87
2025-03-20 15:34:16.914,-490.0,-273.0,868.0,-2.0,-1.0,-2.0,131,70,125,97,86
2025-03-20 15:34:16.939,-492.0,-273.0,858.0,-1.0,-1.0,-2.0,132,70,124,97,86
2025-03-20 15:34:16.962,-492.0,-276.0,867.0,0.0,-2.0,-1.0,131,68,123,97,88
2025-03-20 15:34:16.979,-495.0,-271.0,871.0,-1.0,0.0,-1.0,130,68,121,95,86
2025-03-20 15:34:17.009,-496.0,-270.0,865.0,-1.0,0.0,-1.0,130,68,123,92,86
2025-03-20 15:34:17.034,-490.0,-271.0,873.0,-2.0,0.0,-1.0,130,66,122,96,85
2025-03-20 15:34:17.058,-495.0,-273.0,859.0,-1.0,0.0,-1.0,131,69,123,96,88
2025-03-20 15:34:17.082,-495.0,-268.0,846.0,2.0,0.0,0.0,131,70,122,96,83
2025-03-20 15:34:17.106,-494.0,-264.0,852.0,-2.0,0.0,-1.0,131,71,124,96,85
2025-03-20 15:34:17.131,-490.0,-269.0,862.0,-1.0,0.0,0.0,131,72,123,97,86
2025-03-20 15:34:17.153,-492.0,-264.0,856.0,-1.0,0.0,-1.0,133,71,122,95,87
2025-03-20 15:34:17.175,-490.0,-263.0,854.0,-1.0,0.0,0.0,129,69,121,95,85
2025-03-20 15:34:17.201,-492.0,-266.0,857.0,-1.0,-1.0,0.0,129,70,122,95,86
2025-03-20 15:34:17.226,-493.0,-261.0,862.0,-1.0,-1.0,0.0,130,69,122,96,85
2025-03-20 15:34:17.249,-493.0,-258.0,860.0,-1.0,-1.0,-1.0,132,69,123,94,85
2025-03-20 15:34:17.275,-481.0,-262.0,857.0,-1.0,-2.0,-1.0,132,70,124,96,86
2025-03-20 15:34:17.300,-490.0,-269.0,840.0,-1.0,-3.0,0.0,131,69,123,97,87
2025-03-20 15:34:17.321,-488.0,-263.0,859.0,0.0,-2.0,0.0,132,74,123,97,84
2025-03-20 15:34:17.344,-493.0,-251.0,868.0,-1.0,-1.0,0.0,131,70,125,97,87
2025-03-20 15:34:17.369,-495.0,-241.0,873.0,-2.0,-1.0,-1.0,132,70,123,97,87
2025-03-20 15:34:17.394,-499.0,-263.0,863.0,-2.0,-1.0,-2.0,130,69,122,97,85
2025-03-20 15:34:17.419,-486.0,-267.0,868.0,-1.0,-1.0,-2.0,131,70,122,95,85
2025-03-20 15:34:17.443,-493.0,-262.0,872.0,-2.0,0.0,-2.0,132,70,121,95,86
2025-03-20 15:34:17.467,-493.0,-276.0,875.0,-2.0,0.0,-2.0,131,70,122,96,84
2025-03-20 15:34:17.492,-488.0,-274.0,867.0,-1.0,0.0,-1.0,130,71,123,96,86
2025-03-20 15:34:17.513,-491.0,-261.0,861.0,-3.0,1.0,-1.0,131,71,123,97,87
2025-03-20 15:34:17.531,-492.0,-271.0,846.0,-2.0,0.0,-1.0,132,72,123,98,87
2025-03-20 15:34:17.562,-496.0,-265.0,842.0,0.0,-1.0,-1.0,131,71,123,96,86
2025-03-20 15:34:17.587,-490.0,-256.0,855.0,-1.0,-2.0,-1.0,131,71,123,96,86
2025-03-20 15:34:17.610,-491.0,-265.0,868.0,-2.0,-2.0,-1.0,131,71,123,96,86
2025-03-20 15:34:17.636,-495.0,-272.0,863.0,-1.0,0.0,-2.0,131,71,122,96,86
2025-03-20 15:34:17.659,-488.0,-260.0,866.0,-1.0,-1.0,-2.0,130,70,122,95,85
2025-03-20 15:34:17.681,-499.0,-274.0,861.0,-3.0,-1.0,-1.0,131,72,123,97,86
2025-03-20 15:34:17.705,-490.0,-270.0,867.0,-2.0,-1.0,-1.0,131,72,123,96,88
2025-03-20 15:34:17.730,-485.0,-268.0,864.0,-2.0,0.0,-1.0,132,73,123,96,87
2025-03-20 15:34:17.754,-495.0,-273.0,864.0,0.0,0.0,0.0,131,71,124,96,87
2025-03-20 15:34:17.778,-501.0,-264.0,869.0,-1.0,-1.0,-1.0,131,72,124,94,86
2025-03-20 15:34:17.803,-499.0,-258.0,875.0,-2.0,0.0,-1.0,130,69,122,95,87
2025-03-20 15:34:17.827,-489.0,-270.0,864.0,-1.0,1.0,-1.0,130,71,122,96,87
2025-03-20 15:34:17.846,-479.0,-273.0,861.0,-2.0,1.0,-1.0,131,71,123,96,85
2025-03-20 15:34:17.873,-494.0,-267.0,864.0,-1.0,0.0,-1.0,131,71,122,95,86
2025-03-20 15:34:17.896,-501.0,-263.0,845.0,0.0,-1.0,0.0,132,71,124,95,86
2025-03-20 15:34:17.921,-495.0,-267.0,860.0,-2.0,0.0,-2.0,134,71,123,98,87
2025-03-20 15:34:17.944,-493.0,-267.0,853.0,-1.0,0.0,-1.0,131,71,123,97,87
2025-03-20 15:34:17.961,-495.0,-269.0,862.0,0.0,-1.0,-1.0,131,71,125,97,87
2025-03-20 15:34:17.992,-493.0,-266.0,857.0,-2.0,-1.0,-1.0,131,71,123,97,87
2025-03-20 15:34:18.017,-491.0,-267.0,858.0,-1.0,0.0,0.0,130,70,122,96,86
2025-03-20 15:34:18.041,-494.0,-262.0,854.0,-1.0,-1.0,0.0,127,70,122,95,85
2025-03-20 15:34:18.066,-492.0,-270.0,862.0,-1.0,-1.0,-1.0,131,70,122,95,86
2025-03-20 15:34:18.090,-496.0,-256.0,866.0,-1.0,0.0,0.0,131,71,123,96,87
2025-03-20 15:34:18.115,-501.0,-261.0,858.0,-3.0,-1.0,-1.0,131,72,123,95,87
2025-03-20 15:34:18.139,-492.0,-274.0,862.0,-1.0,-1.0,-1.0,131,71,124,96,85
2025-03-20 15:34:18.148,-492.0,-264.0,858.0,0.0,0.0,0.0,132,72,123,96,86
2025-03-20 15:34:18.185,-500.0,-258.0,854.0,-1.0,-1.0,-1.0,131,71,124,96,85
2025-03-20 15:34:18.209,-498.0,-267.0,865.0,-1.0,-1.0,-1.0,130,69,123,96,85
2025-03-20 15:34:18.234,-494.0,-262.0,863.0,-1.0,-1.0,-1.0,131,71,122,96,86
2025-03-20 15:34:18.259,-502.0,-263.0,864.0,-1.0,0.0,-1.0,131,70,122,97,85
2025-03-20 15:34:18.282,-502.0,-271.0,858.0,0.0,0.0,-1.0,131,71,123,95,86
2025-03-20 15:34:18.300,-494.0,-256.0,895.0,0.0,0.0,-1.0,131,71,123,97,85
2025-03-20 15:34:18.332,-503.0,-261.0,863.0,-1.0,0.0,-1.0,132,71,123,96,86
2025-03-20 15:34:18.353,-500.0,-269.0,861.0,0.0,2.0,-1.0,131,73,120,97,86
2025-03-20 15:34:18.374,-499.0,-255.0,830.0,-2.0,0.0,-1.0,131,72,124,97,86
2025-03-20 15:34:18.391,-488.0,-263.0,833.0,-1.0,-2.0,-2.0,131,75,124,96,87
2025-03-20 15:34:18.426,-494.0,-266.0,845.0,1.0,-3.0,-1.0,131,70,122,95,83
2025-03-20 15:34:18.451,-485.0,-258.0,861.0,0.0,-5.0,-2.0,130,70,123,96,86
2025-03-20 15:34:18.475,-488.0,-271.0,866.0,1.0,-4.0,-1.0,131,72,123,96,85
2025-03-20 15:34:18.499,-483.0,-253.0,882.0,0.0,-2.0,-2.0,131,71,125,97,86
2025-03-20 15:34:18.524,-491.0,-272.0,880.0,-1.0,-2.0,-2.0,131,74,123,96,82
2025-03-20 15:34:18.546,-496.0,-269.0,880.0,1.0,0.0,0.0,131,71,123,96,86
2025-03-20 15:34:18.569,-498.0,-249.0,872.0,1.0,0.0,-1.0,131,73,123,98,86
2025-03-20 15:34:18.594,-499.0,-261.0,854.0,-2.0,-1.0,-2.0,132,71,122,97,86
2025-03-20 15:34:18.619,-495.0,-282.0,860.0,0.0,-1.0,0.0,130,70,123,96,86
2025-03-20 15:34:18.643,-496.0,-257.0,872.0,1.0,-1.0,-1.0,131,71,124,96,87
2025-03-20 15:34:18.665,-492.0,-257.0,879.0,-2.0,0.0,-2.0,130,71,119,98,86
2025-03-20 15:34:18.682,-490.0,-277.0,868.0,0.0,0.0,-1.0,130,71,128,96,85
2025-03-20 15:34:18.713,-486.0,-265.0,854.0,-1.0,-1.0,-1.0,132,72,127,97,86
2025-03-20 15:34:18.738,-495.0,-261.0,873.0,-1.0,0.0,0.0,130,71,123,97,86
2025-03-20 15:34:18.762,-489.0,-255.0,875.0,0.0,1.0,-1.0,131,72,124,97,86
2025-03-20 15:34:18.787,-491.0,-251.0,909.0,0.0,1.0,0.0,132,73,124,97,86
2025-03-20 15:34:18.811,-500.0,-262.0,859.0,1.0,-1.0,-1.0,132,72,124,98,86
2025-03-20 15:34:18.836,-489.0,-259.0,868.0,-2.0,-1.0,-1.0,131,71,123,95,86
2025-03-20 15:34:18.859,-490.0,-272.0,869.0,-2.0,0.0,-1.0,131,70,122,96,86
2025-03-20 15:34:18.881,-491.0,-259.0,850.0,1.0,-1.0,-1.0,131,71,122,96,86
2025-03-20 15:34:18.905,-487.0,-260.0,857.0,-2.0,-1.0,0.0,131,71,123,95,86
2025-03-20 15:34:18.929,-489.0,-272.0,854.0,0.0,-2.0,0.0,130,72,123,98,86
2025-03-20 15:34:18.954,-498.0,-264.0,873.0,-1.0,-2.0,0.0,135,72,124,99,88
2025-03-20 15:34:18.979,-493.0,-257.0,871.0,-2.0,-1.0,0.0,132,72,124,98,87
2025-03-20 15:34:19.003,-498.0,-266.0,861.0,-1.0,-2.0,0.0,132,72,124,97,88
2025-03-20 15:34:19.016,-496.0,-261.0,863.0,-1.0,-1.0,0.0,131,71,123,97,87
2025-03-20 15:34:19.049,-492.0,-266.0,867.0,0.0,-2.0,0.0,130,71,124,97,86
2025-03-20 15:34:19.074,-499.0,-258.0,876.0,-1.0,-2.0,1.0,131,71,122,97,86
2025-03-20 15:34:19.095,-512.0,-265.0,854.0,-2.0,-2.0,0.0,131,71,122,96,86
2025-03-20 15:34:19.113,-500.0,-258.0,871.0,-3.0,-2.0,0.0,131,71,119,97,86
2025-03-20 15:34:19.145,-505.0,-252.0,890.0,-1.0,2.0,0.0,131,71,122,98,86
2025-03-20 15:34:19.171,-494.0,-256.0,865.0,-3.0,0.0,0.0,132,71,123,99,86
2025-03-20 15:34:19.193,-502.0,-253.0,864.0,-3.0,1.0,0.0,132,71,124,97,86
2025-03-20 15:34:19.217,-490.0,-259.0,855.0,-2.0,1.0,0.0,132,71,124,97,86
2025-03-20 15:34:19.242,-494.0,-250.0,855.0,-3.0,2.0,0.0,131,70,121,95,85
2025-03-20 15:34:19.266,-489.0,-257.0,845.0,-3.0,0.0,-1.0,131,70,121,97,85
2025-03-20 15:34:19.290,-496.0,-259.0,852.0,0.0,-1.0,0.0,129,71,122,96,89
2025-03-20 15:34:19.315,-498.0,-245.0,847.0,-1.0,-1.0,0.0,131,70,122,99,86
2025-03-20 15:34:19.338,-487.0,-259.0,845.0,-3.0,-3.0,-1.0,132,72,123,97,87
2025-03-20 15:34:19.354,-487.0,-255.0,870.0,-2.0,-1.0,-1.0,132,72,123,96,86
2025-03-20 15:34:19.385,-490.0,-256.0,864.0,-3.0,-3.0,-2.0,132,71,124,97,86
2025-03-20 15:34:19.410,-481.0,-271.0,859.0,-4.0,-4.0,-1.0,132,72,122,99,87
2025-03-20 15:34:19.434,-489.0,-274.0,862.0,-1.0,-3.0,0.0,132,72,124,97,86
2025-03-20 15:34:19.458,-504.0,-255.0,882.0,-1.0,-3.0,1.0,130,70,122,96,85
2025-03-20 15:34:19.483,-501.0,-254.0,911.0,-2.0,-1.0,-1.0,131,70,122,97,85
2025-03-20 15:34:19.507,-500.0,-250.0,903.0,-1.0,0.0,-1.0,131,71,122,96,86
2025-03-20 15:34:19.531,-490.0,-254.0,901.0,-3.0,1.0,-1.0,131,69,122,96,85
2025-03-20 15:34:19.552,-504.0,-272.0,890.0,-2.0,2.0,0.0,131,71,123,95,86
2025-03-20 15:34:19.574,-509.0,-269.0,894.0,0.0,4.0,1.0,132,72,123,96,85
2025-03-20 15:34:19.598,-511.0,-264.0,881.0,2.0,5.0,1.0,132,72,123,97,86
2025-03-20 15:34:19.627,-510.0,-266.0,848.0,-1.0,5.0,0.0,132,72,122,97,81
2025-03-20 15:34:19.651,-500.0,-255.0,854.0,-6.0,4.0,0.0,132,70,121,98,86
2025-03-20 15:34:19.675,-479.0,-271.0,929.0,-2.0,8.0,-1.0,133,71,122,95,85
2025-03-20 15:34:19.699,-485.0,-295.0,823.0,-5.0,6.0,0.0,131,70,123,96,85
2025-03-20 15:34:19.721,-471.0,-281.0,815.0,-5.0,1.0,0.0,131,71,123,95,85
2025-03-20 15:34:19.746,-475.0,-275.0,792.0,-6.0,-1.0,1.0,132,71,122,99,85
2025-03-20 15:34:19.770,-487.0,-277.0,781.0,-4.0,-6.0,3.0,131,71,120,97,85
2025-03-20 15:34:19.795,-471.0,-258.0,854.0,-5.0,-2.0,3.0,135,72,122,93,84
2025-03-20 15:34:19.819,-496.0,-251.0,848.0,-3.0,-7.0,3.0,131,71,124,97,85
2025-03-20 15:34:19.842,-509.0,-259.0,845.0,-3.0,-12.0,3.0,132,72,121,97,86
2025-03-20 15:34:19.866,-525.0,-225.0,891.0,0.0,-10.0,2.0,130,70,123,96,84
2025-03-20 15:34:19.889,-500.0,-248.0,919.0,-3.0,-6.0,1.0,130,70,119,97,85
2025-03-20 15:34:19.913,-511.0,-248.0,924.0,-8.0,-6.0,-1.0,131,70,121,96,84
2025-03-20 15:34:19.937,-497.0,-274.0,929.0,-7.0,-1.0,-1.0,131,70,122,97,84
2025-03-20 15:34:19.954,-476.0,-276.0,903.0,-5.0,0.0,2.0,131,71,120,99,84
2025-03-20 15:34:19.987,-489.0,-275.0,877.0,-2.0,3.0,3.0,132,70,121,97,84
2025-03-20 15:34:20.011,-490.0,-264.0,899.0,-1.0,4.0,3.0,131,67,121,98,86
2025-03-20 15:34:20.035,-498.0,-260.0,860.0,-3.0,6.0,4.0,134,70,121,93,85
2025-03-20 15:34:20.057,-497.0,-242.0,832.0,-4.0,6.0,3.0,132,68,121,97,83
2025-03-20 15:34:20.082,-505.0,-223.0,806.0,-8.0,6.0,2.0,131,69,120,94,82
2025-03-20 15:34:20.105,-537.0,-150.0,725.0,-10.0,5.0,-4.0,130,67,117,95,79
2025-03-20 15:34:20.130,-555.0,-158.0,487.0,-14.0,0.0,-11.0,131,64,117,90,76
2025-03-20 15:34:20.155,-532.0,-68.0,563.0,-24.0,-14.0,-17.0,131,61,108,91,75
2025-03-20 15:34:20.179,-694.0,6.0,399.0,-34.0,-45.0,-32.0,131,56,106,84,67
2025-03-20 15:34:20.204,-705.0,-58.0,707.0,-51.0,-78.0,-55.0,129,51,95,67,56
2025-03-20 15:34:20.227,-479.0,-50.0,835.0,-127.0,-97.0,-96.0,127,44,88,67,47
2025-03-20 15:34:20.252,-181.0,-673.0,1624.0,-218.0,-70.0,-138.0,126,44,81,60,41
2025-03-20 15:34:20.270,228.0,-2258.0,2491.0,-171.0,65.0,-48.0,120,41,72,57,37
2025-03-20 15:34:20.296,427.0,-2151.0,1939.0,-75.0,231.0,111.0,107,39,73,50,39
2025-03-20 15:34:20.320,-273.0,-1233.0,1242.0,-186.0,247.0,151.0,99,36,73,59,40
2025-03-20 15:34:20.337,-69.0,-1350.0,764.0,-247.0,188.0,199.0,99,29,70,60,33
2025-03-20 15:34:20.372,-242.0,-1133.0,677.0,-198.0,234.0,261.0,100,31,69,61,38
2025-03-20 15:34:20.396,-241.0,-563.0,469.0,-152.0,226.0,289.0,100,38,71,64,39
2025-03-20 15:34:20.417,-498.0,8.0,131.0,-131.0,192.0,267.0,99,40,71,61,38
2025-03-20 15:34:20.441,-375.0,175.0,152.0,-103.0,173.0,250.0,100,41,71,62,40
2025-03-20 15:34:20.465,-358.0,406.0,-26.0,-69.0,173.0,224.0,99,38,70,60,39
2025-03-20 15:34:20.490,-235.0,653.0,-223.0,-30.0,177.0,208.0,97,40,71,60,38
2025-03-20 15:34:20.515,-426.0,1240.0,-586.0,1.0,110.0,171.0,96,39,68,58,40
2025-03-20 15:34:20.540,-231.0,2417.0,-1416.0,16.0,31.0,88.0,98,41,70,60,38
2025-03-20 15:34:20.564,-178.0,3319.0,-2009.0,95.0,-104.0,-114.0,101,41,70,62,43
2025-03-20 15:34:20.588,-241.0,4020.0,-2624.0,110.0,-311.0,-468.0,101,41,70,61,40
2025-03-20 15:34:20.610,807.0,4251.0,-3182.0,-87.0,-667.0,-936.0,104,39,70,63,41
2025-03-20 15:34:20.635,5328.0,3484.0,-2411.0,-295.0,-1012.0,-1337.0,93,41,72,61,42
2025-03-20 15:34:20.658,9439.0,-4446.0,3369.0,-465.0,-314.0,-731.0,78,33,75,62,43
2025-03-20 15:34:20.673,4705.0,-9023.0,742.0,256.0,215.0,-181.0,78,41,72,61,42
2025-03-20 15:34:20.707,2089.0,-4011.0,436.0,113.0,110.0,289.0,80,41,71,62,43
2025-03-20 15:34:20.724,1145.0,-2295.0,713.0,-21.0,118.0,334.0,90,37,76,63,41
2025-03-20 15:34:20.754,90.0,-1694.0,569.0,-4.0,69.0,359.0,88,42,74,63,44
2025-03-20 15:34:20.778,85.0,-758.0,587.0,16.0,141.0,377.0,92,43,75,65,44
2025-03-20 15:34:20.803,-182.0,-27.0,388.0,-24.0,163.0,320.0,92,46,76,64,41
2025-03-20 15:34:20.827,-517.0,75.0,67.0,-67.0,118.0,252.0,94,43,77,65,42
2025-03-20 15:34:20.851,-487.0,-26.0,63.0,-31.0,101.0,202.0,93,44,78,66,45
2025-03-20 15:34:20.875,-474.0,-6.0,145.0,8.0,129.0,196.0,94,46,78,66,45
2025-03-20 15:34:20.900,-588.0,109.0,-47.0,13.0,101.0,187.0,88,44,75,64,44
2025-03-20 15:34:20.921,-410.0,111.0,121.0,36.0,66.0,186.0,95,42,76,65,43
2025-03-20 15:34:20.946,-320.0,-68.0,25.0,85.0,77.0,206.0,96,42,77,66,45
2025-03-20 15:34:20.970,-488.0,569.0,-263.0,146.0,86.0,253.0,97,44,80,67,43
2025-03-20 15:34:20.995,-807.0,2116.0,-1007.0,137.0,-1.0,164.0,96,45,79,67,45
2025-03-20 15:34:21.016,-564.0,4056.0,-1983.0,176.0,-84.0,-278.0,99,45,77,65,45
2025-03-20 15:34:21.041,-664.0,4682.0,-3139.0,-72.0,-434.0,-825.0,102,47,77,67,46
2025-03-20 15:34:21.058,2925.0,4000.0,-2993.0,-259.0,-965.0,-1352.0,101,42,75,66,45
2025-03-20 15:34:21.089,9966.0,-3709.0,4373.0,-284.0,-606.0,-838.0,83,40,81,69,46
2025-03-20 15:34:21.113,5348.0,-8655.0,753.0,76.0,269.0,16.0,83,46,78,66,46
2025-03-20 15:34:21.138,1751.0,-2796.0,-204.0,198.0,236.0,359.0,86,44,77,66,46
2025-03-20 15:34:21.162,213.0,-2162.0,334.0,-117.0,99.0,380.0,94,46,77,68,48
2025-03-20 15:34:21.187,76.0,-1279.0,639.0,30.0,117.0,437.0,99,47,85,72,51
2025-03-20 15:34:21.212,-198.0,-159.0,537.0,88.0,156.0,336.0,105,45,88,75,52
2025-03-20 15:34:21.236,-546.0,13.0,304.0,-54.0,173.0,244.0,112,47,88,74,54
2025-03-20 15:34:21.260,-637.0,-448.0,53.0,-207.0,110.0,245.0,119,47,89,73,53
2025-03-20 15:34:21.282,-285.0,-706.0,332.0,-84.0,65.0,266.0,129,51,90,75,54
2025-03-20 15:34:21.306,-215.0,-311.0,51.0,22.0,115.0,241.0,128,40,85,69,48
2025-03-20 15:34:21.330,-468.0,-99.0,-37.0,-14.0,110.0,236.0,134,46,85,70,50
2025-03-20 15:34:21.355,-511.0,-250.0,-16.0,39.0,57.0,222.0,136,46,83,72,49
2025-03-20 15:34:21.379,-343.0,277.0,21.0,106.0,44.0,229.0,138,42,84,70,47
2025-03-20 15:34:21.403,-660.0,1878.0,-680.0,96.0,23.0,121.0,141,40,83,69,48
2025-03-20 15:34:21.428,-1032.0,3953.0,-1823.0,146.0,-73.0,-217.0,144,47,81,72,48
2025-03-20 15:34:21.453,-1273.0,4368.0,-2989.0,-46.0,-379.0,-650.0,144,39,79,74,48
2025-03-20 15:34:21.474,999.0,4566.0,-2664.0,-310.0,-824.0,-1055.0,149,46,77,74,47
2025-03-20 15:34:21.499,6271.0,-309.0,-704.0,-526.0,-1010.0,-952.0,151,38,79,76,44
2025-03-20 15:34:21.523,6946.0,-6644.0,2908.0,-171.0,48.0,-324.0,151,35,77,73,46
2025-03-20 15:34:21.548,2955.0,-5019.0,-1140.0,399.0,385.0,46.0,141,40,75,74,47
2025-03-20 15:34:21.571,945.0,-2282.0,-213.0,-56.0,69.0,173.0,144,42,77,74,48
2025-03-20 15:34:21.596,873.0,-2971.0,799.0,-21.0,96.0,228.0,147,44,80,75,49
2025-03-20 15:34:21.618,451.0,-1526.0,913.0,149.0,203.0,308.0,152,48,80,75,50
2025-03-20 15:34:21.642,-42.0,-556.0,173.0,39.0,175.0,310.0,151,49,80,76,51
2025-03-20 15:34:21.666,-74.0,-427.0,381.0,-12.0,163.0,197.0,150,50,82,76,55
2025-03-20 15:34:21.691,-247.0,-815.0,291.0,-24.0,152.0,237.0,148,49,82,77,49
2025-03-20 15:34:21.715,-334.0,-591.0,112.0,16.0,142.0,284.0,146,46,79,72,47
2025-03-20 15:34:21.740,-37.0,1.0,482.0,42.0,162.0,255.0,149,47,81,73,48
2025-03-20 15:34:21.763,-337.0,-33.0,149.0,86.0,195.0,231.0,145,48,81,72,48
2025-03-20 15:34:21.785,-476.0,-247.0,-86.0,56.0,161.0,234.0,146,47,81,73,49
2025-03-20 15:34:21.809,-478.0,-116.0,65.0,28.0,106.0,272.0,146,45,82,77,50
2025-03-20 15:34:21.834,-161.0,166.0,150.0,190.0,146.0,241.0,146,46,85,75,51
2025-03-20 15:34:21.859,-496.0,1157.0,-634.0,221.0,144.0,245.0,144,49,85,76,50
2025-03-20 15:34:21.883,-990.0,3104.0,-2029.0,190.0,5.0,27.0,141,47,82,75,51
2025-03-20 15:34:21.894,-1112.0,4231.0,-3159.0,65.0,-294.0,-481.0,138,40,80,74,49
2025-03-20 15:34:21.932,71.0,4027.0,-3875.0,-80.0,-779.0,-940.0,140,46,75,72,46
2025-03-20 15:34:21.957,6350.0,-272.0,-69.0,-462.0,-1119.0,-951.0,146,33,77,73,47
2025-03-20 15:34:21.978,7939.0,-7894.0,3257.0,-451.0,-201.0,-379.0,147,46,81,76,51
2025-03-20 15:34:22.002,2822.0,-7143.0,-1739.0,562.0,204.0,175.0,149,35,80,67,51
2025-03-20 15:34:22.027,647.0,-1349.0,-62.0,12.0,164.0,222.0,150,42,83,72,49
2025-03-20 15:34:22.052,131.0,-2320.0,691.0,-44.0,117.0,206.0,150,51,84,79,54
2025-03-20 15:34:22.076,-219.0,-1309.0,712.0,70.0,142.0,260.0,149,51,81,75,52
2025-03-20 15:34:22.100,-305.0,-470.0,714.0,26.0,103.0,252.0,175,79,110,104,81
2025-03-20 15:34:22.121,-323.0,-393.0,606.0,-68.0,138.0,147.0,157,56,86,81,55
2025-03-20 15:34:22.146,-367.0,-766.0,504.0,-140.0,117.0,125.0,150,44,85,75,54
2025-03-20 15:34:22.169,-206.0,-924.0,515.0,-95.0,125.0,219.0,147,45,87,74,52
2025-03-20 15:34:22.194,-183.0,-767.0,250.0,-24.0,130.0,278.0,150,48,90,77,56
2025-03-20 15:34:22.219,74.0,-457.0,362.0,3.0,180.0,293.0,145,44,84,71,51
2025-03-20 15:34:22.243,203.0,-203.0,336.0,101.0,208.0,324.0,142,44,85,71,52
2025-03-20 15:34:22.268,-705.0,455.0,-560.0,218.0,153.0,291.0,141,44,89,67,58
2025-03-20 15:34:22.289,-449.0,373.0,-455.0,179.0,138.0,237.0,141,43,95,67,65
2025-03-20 15:34:22.314,-370.0,1015.0,-852.0,139.0,48.0,214.0,142,44,100,58,72
2025-03-20 15:34:22.337,-724.0,2128.0,-1687.0,93.0,-95.0,40.0,139,49,105,80,80
2025-03-20 15:34:22.363,-834.0,2288.0,-2455.0,35.0,-310.0,-287.0,135,66,118,93,85
2025-03-20 15:34:22.388,-212.0,2309.0,-2396.0,-88.0,-532.0,-614.0,136,72,128,89,91
2025-03-20 15:34:22.411,2236.0,2467.0,-1757.0,-46.0,-743.0,-828.0,140,80,134,81,100
2025-03-20 15:34:22.437,5006.0,-2337.0,1657.0,-613.0,-879.0,-752.0,148,87,143,97,104
2025-03-20 15:34:22.459,5025.0,-5584.0,1263.0,-395.0,-337.0,-287.0,149,55,146,99,107
2025-03-20 15:34:22.481,3512.0,-6054.0,1581.0,344.0,204.0,172.0,142,37,142,100,107
2025-03-20 15:34:22.506,1157.0,-2913.0,269.0,325.0,396.0,306.0,142,85,141,107,105
2025-03-20 15:34:22.530,188.0,-1011.0,820.0,64.0,332.0,338.0,144,94,140,104,105
2025-03-20 15:34:22.556,-195.0,-674.0,899.0,100.0,151.0,301.0,147,81,140,104,104
2025-03-20 15:34:22.580,-228.0,-503.0,787.0,30.0,255.0,237.0,148,85,143,103,104
2025-03-20 15:34:22.591,-335.0,-376.0,346.0,31.0,297.0,241.0,145,91,143,104,104
2025-03-20 15:34:22.628,-263.0,-117.0,318.0,-13.0,283.0,227.0,141,92,145,106,103
2025-03-20 15:34:22.650,-262.0,-124.0,-262.0,59.0,202.0,234.0,141,87,145,106,106
2025-03-20 15:34:22.675,-200.0,251.0,-108.0,63.0,203.0,199.0,140,88,144,106,107
2025-03-20 15:34:22.699,-503.0,122.0,-8.0,25.0,188.0,158.0,141,91,143,106,106
2025-03-20 15:34:22.723,-430.0,305.0,-112.0,60.0,129.0,130.0,140,87,144,106,106
2025-03-20 15:34:22.747,-273.0,548.0,-188.0,72.0,79.0,118.0,136,85,139,103,105
2025-03-20 15:34:22.772,-535.0,1314.0,-1401.0,74.0,11.0,67.0,135,91,140,104,104
2025-03-20 15:34:22.797,-949.0,1962.0,-2361.0,115.0,-191.0,-170.0,133,92,141,103,102
2025-03-20 15:34:22.816,-712.0,2329.0,-2198.0,70.0,-461.0,-539.0,137,96,142,106,107
2025-03-20 15:34:22.842,1634.0,3297.0,-3182.0,38.0,-785.0,-867.0,142,105,152,114,118
2025-03-20 15:34:22.865,5536.0,0.0,480.0,-852.0,-945.0,-973.0,146,102,151,111,119
2025-03-20 15:34:22.891,5567.0,-6350.0,-452.0,-526.0,-573.0,-519.0,142,94,148,105,113
2025-03-20 15:34:22.915,3913.0,-5923.0,-195.0,491.0,114.0,322.0,138,50,143,107,117
2025-03-20 15:34:22.937,1620.0,-2437.0,349.0,456.0,450.0,249.0,133,65,141,107,112
2025-03-20 15:34:22.965,-173.0,-1250.0,395.0,-29.0,271.0,273.0,141,99,141,108,107
2025-03-20 15:34:22.989,-70.0,-1008.0,274.0,-199.0,31.0,226.0,144,101,141,108,107
2025-03-20 15:34:23.010,338.0,-917.0,434.0,10.0,70.0,217.0,143,103,143,108,106
2025-03-20 15:34:23.035,199.0,-770.0,689.0,86.0,240.0,202.0,135,95,144,107,105
2025-03-20 15:34:23.059,-426.0,-804.0,125.0,31.0,274.0,269.0,144,95,141,109,102
2025-03-20 15:34:23.083,-181.0,-210.0,160.0,65.0,206.0,355.0,146,91,139,110,99
2025-03-20 15:34:23.108,86.0,-218.0,432.0,133.0,241.0,363.0,139,83,128,105,88
2025-03-20 15:34:23.132,0.0,72.0,114.0,187.0,239.0,343.0,140,72,124,100,75
2025-03-20 15:34:23.156,-505.0,510.0,-412.0,175.0,146.0,307.0,144,62,115,97,66
2025-03-20 15:34:23.180,-432.0,699.0,-139.0,-95.0,82.0,183.0,140,52,102,70,66
2025-03-20 15:34:23.197,-718.0,1765.0,-1023.0,18.0,32.0,51.0,134,6,96,53,64
2025-03-20 15:34:23.226,-863.0,3446.0,-2327.0,99.0,-209.0,-295.0,122,18,89,56,50
2025-03-20 15:34:23.251,-21.0,2968.0,-2713.0,-79.0,-464.0,-673.0,140,25,77,59,46
2025-03-20 15:34:23.276,1741.0,2269.0,-2213.0,-248.0,-896.0,-914.0,144,35,76,59,51
2025-03-20 15:34:23.300,5986.0,-2404.0,541.0,-604.0,-891.0,-741.0,152,29,72,65,43
2025-03-20 15:34:23.324,5767.0,-7640.0,2141.0,-172.0,3.0,-164.0,149,35,77,67,45
2025-03-20 15:34:23.350,2324.0,-4450.0,-605.0,410.0,273.0,161.0,141,39,78,67,46
2025-03-20 15:34:23.368,736.0,-1916.0,31.0,-37.0,85.0,227.0,146,42,75,71,46
2025-03-20 15:34:23.392,634.0,-2472.0,575.0,-24.0,60.0,234.0,153,44,76,74,51
2025-03-20 15:34:23.417,520.0,-1412.0,762.0,105.0,160.0,313.0,157,46,80,76,53
2025-03-20 15:34:23.434,28.0,-1066.0,308.0,49.0,177.0,402.0,156,43,80,75,53
2025-03-20 15:34:23.468,314.0,41.0,502.0,113.0,184.0,291.0,154,42,83,74,51
2025-03-20 15:34:23.493,-227.0,-132.0,261.0,64.0,224.0,268.0,153,46,84,74,53
2025-03-20 15:34:23.516,-373.0,-22.0,-63.0,55.0,211.0,252.0,152,44,84,74,50
2025-03-20 15:34:23.539,-275.0,295.0,115.0,73.0,177.0,224.0,150,42,83,75,53
2025-03-20 15:34:23.563,-388.0,614.0,-55.0,81.0,173.0,186.0,146,45,85,76,52
2025-03-20 15:34:23.586,-727.0,1117.0,-413.0,56.0,124.0,93.0,148,46,91,79,54
2025-03-20 15:34:23.612,-875.0,2076.0,-782.0,53.0,48.0,-100.0,145,46,87,78,55
2025-03-20 15:34:23.632,-795.0,-795.0,-795.0,-100.0,-100.0,-100.0,144,43,83,78,53
2025-03-20 15:34:23.645,-795.0,-795.0,-795.0,-100.0,-100.0,-100.0,142,40,78,74,51
2025-03-20 15:34:23.676,-795.0,-795.0,-795.0,-100.0,-100.0,-100.0,150,41,77,75,55
2025-03-20 15:34:23.702,3489.0,220.0,55.0,-431.0,-594.0,-791.0,154,35,78,76,55
2025-03-20 15:34:23.726,4726.0,-5693.0,869.0,-278.0,-221.0,-477.0,152,38,76,74,52
2025-03-20 15:34:23.748,-3812.0,-3812.0,-3812.0,-477.0,-477.0,-477.0,148,44,76,75,54
2025-03-20 15:34:23.771,-3812.0,-3812.0,-3812.0,-477.0,-477.0,-477.0,145,45,78,77,55
2025-03-20 15:34:23.792,-3812.0,-3812.0,-3812.0,-477.0,-477.0,-477.0,141,41,75,75,52
2025-03-20 15:34:23.813,-3812.0,-3812.0,-3812.0,-477.0,-477.0,-477.0,145,44,78,78,54
2025-03-20 15:34:23.836,-3812.0,-3812.0,-3812.0,-477.0,-477.0,-477.0,150,43,78,77,51
2025-03-20 15:34:23.857,-3812.0,-3812.0,-3812.0,-477.0,-477.0,-477.0,152,45,82,78,53
2025-03-20 15:34:23.882,-245.0,-413.0,414.0,-8.0,156.0,212.0,149,45,86,78,54
2025-03-20 15:34:23.906,-245.0,-391.0,325.0,-30.0,167.0,223.0,148,41,89,77,55
2025-03-20 15:34:23.931,-74.0,-309.0,137.0,-54.0,184.0,263.0,147,39,93,74,51
2025-03-20 15:34:23.952,-105.0,-394.0,-1.0,-3.0,220.0,305.0,144,47,97,67,55
2025-03-20 15:34:23.977,53.0,-245.0,-462.0,136.0,235.0,321.0,144,47,101,67,57
2025-03-20 15:34:24.001,0.0,-186.0,-197.0,212.0,200.0,301.0,141,40,111,68,60
2025-03-20 15:34:24.026,-300.0,736.0,-407.0,217.0,181.0,285.0,131,56,115,76,60
2025-03-20 15:34:24.047,2283.0,2283.0,2283.0,285.0,285.0,285.0,128,64,124,69,57
2025-03-20 15:34:24.071,-607.0,2062.0,-1580.0,103.0,-31.0,49.0,122,67,130,71,54
2025-03-20 15:34:24.096,-837.0,3188.0,-2464.0,137.0,-287.0,-416.0,115,77,137,73,51
2025-03-20 15:34:24.119,305.0,2729.0,-2872.0,65.0,-700.0,-777.0,113,82,141,78,53
2025-03-20 15:34:24.143,3263.0,2126.0,-1227.0,-74.0,-1154.0,-913.0,114,88,148,61,55
2025-03-20 15:34:24.169,6281.0,-3151.0,722.0,-417.0,-1078.0,-669.0,109,79,148,83,56
2025-03-20 15:34:24.194,6403.0,-6826.0,1572.0,-51.0,-127.0,-57.0,118,85,148,82,56
2025-03-20 15:34:24.217,2917.0,-3986.0,1918.0,373.0,466.0,166.0,103,86,146,78,56
2025-03-20 15:34:24.239,546.0,-1579.0,677.0,-18.0,269.0,287.0,109,92,145,84,53
2025-03-20 15:34:24.263,296.0,-1562.0,790.0,-69.0,153.0,280.0,114,78,143,83,61
2025-03-20 15:34:24.288,110.0,-1263.0,795.0,46.0,210.0,241.0,116,92,144,83,55
2025-03-20 15:34:24.312,11.0,-759.0,546.0,83.0,239.0,270.0,108,94,146,83,58
2025-03-20 15:34:24.336,-96.0,-456.0,292.0,3.0,230.0,298.0,105,95,146,80,57
2025-03-20 15:34:24.361,64.0,-424.0,383.0,35.0,233.0,289.0,113,98,152,82,58
2025-03-20 15:34:24.381,17.0,-104.0,318.0,75.0,285.0,285.0,115,101,149,83,61
2025-03-20 15:34:24.406,-205.0,280.0,62.0,-10.0,263.0,281.0,116,93,149,79,59
2025-03-20 15:34:24.429,-188.0,185.0,-129.0,-41.0,233.0,267.0,115,92,148,87,59
2025-03-20 15:34:24.453,-258.0,411.0,-474.0,79.0,211.0,211.0,114,88,148,85,58
2025-03-20 15:34:24.481,-474.0,1327.0,-662.0,92.0,169.0,170.0,113,92,148,80,57
2025-03-20 15:34:24.505,-592.0,2138.0,-1882.0,38.0,14.0,-6.0,111,96,146,82,55
2025-03-20 15:34:24.529,-819.0,2953.0,-2507.0,43.0,-285.0,-336.0,111,110,146,82,55
2025-03-20 15:34:24.553,-129.0,3886.0,-3042.0,-91.0,-770.0,-814.0,110,104,148,84,57
2025-03-20 15:34:24.578,3447.0,1897.0,-815.0,-265.0,-999.0,-1085.0,110,102,149,74,59
2025-03-20 15:34:24.598,5768.0,-3324.0,263.0,-257.0,-876.0,-783.0,119,101,147,89,61
2025-03-20 15:34:24.624,6849.0,-6137.0,1354.0,97.0,-195.0,-90.0,106,62,146,85,63
2025-03-20 15:34:24.647,2879.0,-4246.0,2071.0,235.0,348.0,99.0,106,57,145,93,63
2025-03-20 15:34:24.663,785.0,-2205.0,1123.0,-72.0,200.0,257.0,105,75,141,89,60
2025-03-20 15:34:24.697,481.0,-1760.0,794.0,-84.0,110.0,274.0,119,102,141,91,62
2025-03-20 15:34:24.721,285.0,-1156.0,725.0,15.0,177.0,246.0,120,109,145,88,62
2025-03-20 15:34:24.743,157.0,-904.0,681.0,-9.0,226.0,263.0,118,97,144,83,63
2025-03-20 15:34:24.767,92.0,-719.0,395.0,-27.0,230.0,296.0,118,107,145,85,62
2025-03-20 15:34:24.792,147.0,-412.0,245.0,-59.0,218.0,331.0,122,105,145,92,67
2025-03-20 15:34:24.803,-12.0,-399.0,157.0,10.0,256.0,344.0,112,101,143,95,70
2025-03-20 15:34:24.841,-25.0,107.0,430.0,49.0,303.0,350.0,121,94,139,92,67
2025-03-20 15:34:24.865,-230.0,638.0,69.0,-8.0,288.0,291.0,122,82,125,86,61
2025-03-20 15:34:24.889,-367.0,718.0,-288.0,57.0,220.0,206.0,120,58,111,91,64
2025-03-20 15:34:24.911,-384.0,1956.0,-864.0,21.0,107.0,82.0,122,52,98,83,63
2025-03-20 15:34:24.935,-302.0,2784.0,-1737.0,70.0,-6.0,-125.0,123,7,86,84,57
2025-03-20 15:34:24.959,-458.0,2651.0,-1667.0,176.0,-223.0,-473.0,123,24,72,65,50
2025-03-20 15:34:24.984,-47.0,2640.0,-2333.0,18.0,-580.0,-766.0,126,29,73,70,49
2025-03-20 15:34:25.008,3323.0,1604.0,-1470.0,-278.0,-869.0,-939.0,131,25,72,77,52
2025-03-20 15:34:25.034,6835.0,-3840.0,1723.0,-619.0,-654.0,-644.0,143,30,74,78,51
2025-03-20 15:34:25.057,5111.0,-9538.0,619.0,158.0,236.0,-41.0,139,36,73,69,51
2025-03-20 15:34:25.079,1345.0,-3211.0,-1036.0,308.0,191.0,234.0,135,38,71,80,53
2025-03-20 15:34:25.103,595.0,-1851.0,192.0,-47.0,10.0,163.0,137,40,72,81,52
2025-03-20 15:34:25.127,530.0,-2525.0,851.0,-26.0,49.0,241.0,146,42,75,78,52
2025-03-20 15:34:25.152,354.0,-1582.0,770.0,79.0,125.0,356.0,147,39,76,82,54
2025-03-20 15:34:25.175,412.0,-632.0,561.0,101.0,175.0,337.0,145,42,78,80,54
2025-03-20 15:34:25.199,38.0,-105.0,352.0,98.0,230.0,287.0,144,42,80,80,53
2025-03-20 15:34:25.225,-434.0,140.0,-28.0,-3.0,184.0,261.0,145,43,81,82,55
2025-03-20 15:34:25.247,-207.0,133.0,16.0,-15.0,146.0,220.0,145,44,84,83,54
2025-03-20 15:34:25.271,-175.0,114.0,211.0,42.0,147.0,209.0,144,45,85,85,54
2025-03-20 15:34:25.296,-289.0,249.0,9.0,56.0,137.0,201.0,144,43,84,81,52
2025-03-20 15:34:25.320,-556.0,478.0,-199.0,25.0,96.0,210.0,145,44,86,86,52
2025-03-20 15:34:25.344,52.0,1481.0,-123.0,207.0,107.0,139.0,139,44,87,81,54
2025-03-20 15:34:25.369,-1099.0,3886.0,-1985.0,212.0,59.0,-123.0,137,36,83,78,50
2025-03-20 15:34:25.394,-1927.0,4021.0,-3452.0,69.0,-366.0,-621.0,138,43,81,71,48
2025-03-20 15:34:25.417,1802.0,3896.0,-3246.0,-190.0,-898.0,-1089.0,141,45,80,80,53
2025-03-20 15:34:25.439,8033.0,-1059.0,-1983.0,-792.0,-1208.0,-908.0,145,41,80,91,55
2025-03-20 15:34:25.463,8705.0,-10487.0,3536.0,-270.0,99.0,-99.0,149,43,81,83,54
2025-03-20 15:34:25.488,1768.0,-3919.0,-1827.0,243.0,503.0,223.0,142,37,78,49,55
2025-03-20 15:34:25.512,-163.0,-924.0,-1152.0,-69.0,86.0,237.0,133,38,79,63,56
2025-03-20 15:34:25.537,436.0,-2094.0,689.0,-131.0,-17.0,200.0,144,43,84,79,55
2025-03-20 15:34:25.561,567.0,-1995.0,998.0,111.0,61.0,209.0,150,32,85,78,56
2025-03-20 15:34:25.583,403.0,-929.0,940.0,209.0,194.0,244.0,145,33,89,84,57
2025-03-20 15:34:25.606,-6.0,-659.0,294.0,90.0,227.0,275.0,142,46,88,81,58
2025-03-20 15:34:25.628,-151.0,-289.0,476.0,10.0,207.0,270.0,142,49,90,84,59
2025-03-20 15:34:25.653,2162.0,2162.0,2162.0,270.0,270.0,270.0,132,36,88,73,59
2025-03-20 15:34:25.676,-125.0,-240.0,416.0,101.0,296.0,301.0,136,48,87,77,61
2025-03-20 15:34:25.701,-118.0,-319.0,-153.0,29.0,302.0,349.0,128,43,85,80,55
2025-03-20 15:34:25.725,-293.0,174.0,-396.0,83.0,221.0,353.0,133,36,81,83,56
2025-03-20 15:34:25.750,-415.0,1041.0,-545.0,64.0,119.0,321.0,129,29,78,77,56
2025-03-20 15:34:25.760,-578.0,2338.0,-1409.0,80.0,17.0,87.0,124,41,75,76,47
2025-03-20 15:34:25.799,-346.0,4407.0,-2440.0,110.0,-129.0,-407.0,113,31,74,65,50
2025-03-20 15:34:25.822,-454.0,4128.0,-3736.0,-91.0,-571.0,-873.0,110,30,71,67,50
2025-03-20 15:34:25.847,3439.0,4033.0,-3135.0,-285.0,-1138.0,-1228.0,100,28,71,69,49
2025-03-20 15:34:25.864,9213.0,-4013.0,2524.0,-615.0,-800.0,-657.0,90,38,76,69,45
2025-03-20 15:34:25.894,6742.0,-9450.0,779.0,237.0,394.0,-19.0,92,37,73,63,49
2025-03-20 15:34:25.918,662.0,-2241.0,-2084.0,410.0,209.0,255.0,98,31,73,71,51
2025-03-20 15:34:25.942,837.0,-1843.0,449.0,-305.0,-16.0,212.0,97,39,77,74,52
2025-03-20 15:34:25.967,545.0,-2837.0,548.0,-63.0,62.0,267.0,91,52,78,79,52
2025-03-20 15:34:25.991,365.0,-1465.0,587.0,167.0,167.0,279.0,95,42,79,77,52
2025-03-20 15:34:26.011,-152.0,-575.0,334.0,47.0,193.0,271.0,102,47,80,77,54
2025-03-20 15:34:26.037,-271.0,-404.0,150.0,-61.0,148.0,243.0,97,37,79,76,50
2025-03-20 15:34:26.060,1945.0,1945.0,1945.0,243.0,243.0,243.0,97,44,79,75,51
2025-03-20 15:34:26.082,70.0,-513.0,274.0,21.0,180.0,245.0,101,47,81,77,52
2025-03-20 15:34:26.106,-300.0,-85.0,-42.0,43.0,193.0,243.0,103,47,81,79,52
2025-03-20 15:34:26.131,-294.0,166.0,-35.0,-12.0,131.0,243.0,103,45,81,79,49
2025-03-20 15:34:26.156,-194.0,57.0,152.0,-17.0,143.0,247.0,103,47,81,79,53
2025-03-20 15:34:26.180,-410.0,166.0,-168.0,100.0,142.0,220.0,105,40,79,72,51
2025-03-20 15:34:26.204,-763.0,1202.0,-665.0,120.0,94.0,197.0,107,45,82,79,52
2025-03-20 15:34:26.229,-743.0,3125.0,-1295.0,138.0,7.0,-56.0,109,45,79,75,50
2025-03-20 15:34:26.253,-1306.0,4093.0,-2808.0,140.0,-185.0,-533.0,110,45,80,74,48
2025-03-20 15:34:26.275,-385.0,3473.0,-3393.0,47.0,-771.0,-895.0,107,43,78,75,52
2025-03-20 15:34:26.299,6203.0,2987.0,-1328.0,-399.0,-1204.0,-1055.0,94,35,80,77,52
2025-03-20 15:34:26.324,8855.0,-8602.0,3814.0,-315.0,-64.0,-357.0,89,44,79,66,52
2025-03-20 15:34:26.348,3456.0,-6665.0,-572.0,643.0,391.0,197.0,95,17,77,48,52
2025-03-20 15:34:26.372,1109.0,-1468.0,-538.0,0.0,259.0,288.0,88,24,78,78,48
2025-03-20 15:34:26.397,743.0,-2354.0,813.0,-124.0,155.0,276.0,106,46,81,78,51
2025-03-20 15:34:26.421,360.0,-2022.0,482.0,97.0,192.0,350.0,102,44,84,73,52
2025-03-20 15:34:26.439,-298.0,-304.0,277.0,142.0,226.0,325.0,109,31,92,76,56
2025-03-20 15:34:26.465,-394.0,-285.0,37.0,124.0,216.0,297.0,118,46,93,72,57
2025-03-20 15:34:26.492,-394.0,-394.0,51.0,97.0,185.0,293.0,117,38,97,63,61
2025-03-20 15:34:26.516,-248.0,-48.0,-218.0,55.0,153.0,269.0,120,60,100,80,61
2025-03-20 15:34:26.540,-285.0,-66.0,180.0,119.0,193.0,206.0,114,60,98,83,60
2025-03-20 15:34:26.562,-373.0,-68.0,99.0,111.0,181.0,196.0,105,67,96,83,60
2025-03-20 15:34:26.588,-400.0,64.0,-165.0,118.0,149.0,210.0,93,65,94,78,56
2025-03-20 15:34:26.611,-682.0,591.0,-1354.0,137.0,48.0,179.0,80,66,89,77,50
2025-03-20 15:34:26.634,-948.0,1745.0,-3079.0,183.0,-208.0,-42.0,71,46,82,73,46
2025-03-20 15:34:26.660,-472.0,2766.0,-5141.0,165.0,-809.0,-353.0,68,47,78,72,48
2025-03-20 15:34:26.684,3412.0,2238.0,-4699.0,24.0,-1433.0,-418.0,69,41,77,77,46
2025-03-20 15:34:26.709,6244.0,-1486.0,1250.0,412.0,-1067.0,-208.0,74,66,80,79,44
2025-03-20 15:34:26.733,4813.0,212.0,5965.0,513.0,-199.0,-240.0,78,63,82,81,48
2025-03-20 15:34:26.757,2688.0,133.0,4373.0,70.0,75.0,-26.0,76,66,83,79,50
2025-03-20 15:34:26.779,1838.0,37.0,3521.0,-254.0,130.0,144.0,81,72,87,76,56
2025-03-20 15:34:26.803,1126.0,96.0,2576.0,-286.0,251.0,132.0,79,58,85,85,53
2025-03-20 15:34:26.827,280.0,-136.0,1471.0,-113.0,283.0,55.0,67,67,85,86,53
2025-03-20 15:34:26.852,162.0,239.0,1474.0,-128.0,293.0,47.0,75,83,84,87,52
2025-03-20 15:34:26.877,373.0,-355.0,802.0,-183.0,345.0,93.0,80,81,86,88,52
2025-03-20 15:34:26.901,194.0,-264.0,426.0,-90.0,328.0,100.0,80,86,89,90,54
2025-03-20 15:34:26.922,31.0,-132.0,320.0,7.0,279.0,66.0,80,88,90,93,58
2025-03-20 15:34:26.947,61.0,255.0,401.0,-84.0,326.0,78.0,81,87,88,89,54
2025-03-20 15:34:26.971,-68.0,-271.0,-63.0,-93.0,344.0,124.0,82,85,87,86,55
2025-03-20 15:34:26.996,-388.0,-8.0,-252.0,-14.0,220.0,144.0,79,82,87,87,52
2025-03-20 15:34:27.020,-124.0,321.0,255.0,48.0,193.0,53.0,77,73,84,85,51
2025-03-20 15:34:27.042,-332.0,372.0,-319.0,-41.0,217.0,74.0,76,70,84,84,50
2025-03-20 15:34:27.069,-727.0,563.0,-1377.0,-43.0,87.0,111.0,73,68,82,84,51
2025-03-20 15:34:27.093,-1375.0,1783.0,-3107.0,141.0,-203.0,-148.0,75,80,83,89,52
2025-03-20 15:34:27.118,-1063.0,2491.0,-4968.0,181.0,-908.0,-403.0,71,67,82,83,50
2025-03-20 15:34:27.137,4548.0,1151.0,-3610.0,30.0,-1564.0,-379.0,74,85,84,84,52
2025-03-20 15:34:27.161,6801.0,-2209.0,5615.0,490.0,-750.0,-107.0,79,51,88,83,53
2025-03-20 15:34:27.188,3792.0,328.0,5475.0,262.0,151.0,-188.0,75,69,88,74,54
2025-03-20 15:34:27.202,1652.0,-117.0,3363.0,-110.0,213.0,38.0,72,74,87,70,50
2025-03-20 15:34:27.236,979.0,-646.0,2482.0,-339.0,228.0,187.0,74,79,91,68,50
2025-03-20 15:34:27.261,1002.0,-705.0,2010.0,-416.0,330.0,257.0,68,78,92,77,53
2025-03-20 15:34:27.284,374.0,-633.0,1106.0,-205.0,382.0,249.0,69,81,93,80,52
2025-03-20 15:34:27.307,41.0,119.0,807.0,-115.0,378.0,158.0,80,61,94,79,47
2025-03-20 15:34:27.331,-260.0,12.0,312.0,-174.0,369.0,139.0,99,78,99,86,58
2025-03-20 15:34:27.356,78.0,-359.0,180.0,-35.0,387.0,143.0,92,62,106,85,59
2025-03-20 15:34:27.381,-110.0,-286.0,-56.0,22.0,344.0,168.0,106,80,117,56,67
2025-03-20 15:34:27.404,-301.0,-205.0,-91.0,104.0,322.0,165.0,111,84,127,44,83
2025-03-20 15:34:27.429,-329.0,-238.0,420.0,4.0,256.0,135.0,112,82,128,87,91
2025-03-20 15:34:27.450,-383.0,-12.0,-120.0,47.0,229.0,124.0,114,78,131,97,90
2025-03-20 15:34:27.475,-439.0,312.0,-208.0,11.0,164.0,139.0,116,87,130,105,92
2025-03-20 15:34:27.499,-600.0,774.0,-732.0,27.0,70.0,133.0,118,90,130,106,92
2025-03-20 15:34:27.524,-393.0,1524.0,-1432.0,39.0,-1.0,60.0,120,89,132,106,96
2025-03-20 15:34:27.548,-749.0,2242.0,-2979.0,14.0,-271.0,-187.0,117,94,133,106,98
2025-03-20 15:34:27.573,-385.0,2819.0,-2845.0,-192.0,-556.0,-557.0,128,86,137,100,102
2025-03-20 15:34:27.597,846.0,2139.0,-2845.0,-340.0,-738.0,-916.0,127,89,141,106,106
2025-03-20 15:34:27.622,6927.0,-203.0,1909.0,-534.0,-1232.0,-929.0,130,60,145,104,107
2025-03-20 15:34:27.646,5986.0,-7181.0,2540.0,-562.0,-577.0,-456.0,132,95,147,106,113
2025-03-20 15:34:27.671,3761.0,-6212.0,1167.0,333.0,155.0,100.0,132,80,147,108,114
2025-03-20 15:34:27.696,1700.0,-3181.0,2026.0,219.0,441.0,263.0,128,92,140,106,109
2025-03-20 15:34:27.720,409.0,-1257.0,1062.0,181.0,374.0,306.0,134,99,145,111,114
2025-03-20 15:34:27.741,151.0,-450.0,701.0,-235.0,316.0,274.0,139,98,145,111,112
2025-03-20 15:34:27.765,2194.0,2194.0,2194.0,274.0,274.0,274.0,135,98,142,109,108
2025-03-20 15:34:27.789,43.0,-537.0,592.0,16.0,261.0,251.0,129,95,141,109,109
2025-03-20 15:34:27.810,-201.0,-449.0,312.0,28.0,308.0,234.0,131,97,142,107,108
2025-03-20 15:34:27.836,-150.0,-125.0,133.0,10.0,271.0,252.0,129,95,140,109,107
2025-03-20 15:34:27.860,61.0,233.0,125.0,44.0,257.0,261.0,129,102,141,109,107
2025-03-20 15:34:27.884,-493.0,404.0,-51.0,73.0,222.0,210.0,129,103,142,107,109
2025-03-20 15:34:27.909,-556.0,713.0,-335.0,26.0,116.0,140.0,131,106,142,109,106
2025-03-20 15:34:27.934,-199.0,1018.0,-548.0,38.0,38.0,83.0,131,98,142,109,108
2025-03-20 15:34:27.956,-536.0,1776.0,-1944.0,100.0,-92.0,-55.0,130,89,144,110,110
2025-03-20 15:34:27.973,-1014.0,2342.0,-2383.0,79.0,-332.0,-395.0,129,92,147,110,112
2025-03-20 15:34:28.003,93.0,2255.0,-1987.0,-35.0,-514.0,-739.0,128,107,143,110,112
2025-03-20 15:34:28.028,2916.0,-370.0,505.0,-288.0,-1008.0,-854.0,127,83,143,109,110
2025-03-20 15:34:28.052,6266.0,-4648.0,771.0,-566.0,-806.0,-796.0,134,99,149,108,111
2025-03-20 15:34:28.063,4623.0,-6117.0,1764.0,75.0,-262.0,50.0,128,104,144,107,113
2025-03-20 15:34:28.101,2167.0,-3723.0,1094.0,434.0,176.0,298.0,134,88,147,112,115
2025-03-20 15:34:28.124,50.0,-1138.0,337.0,170.0,276.0,269.0,137,94,145,114,113
2025-03-20 15:34:28.147,1896.0,-1122.0,-1122.0,-141.0,-141.0,-141.0,130,100,141,110,106
2025-03-20 15:34:28.171,13.0,-753.0,1002.0,-94.0,190.0,237.0,133,112,142,109,103
2025-03-20 15:34:28.195,74.0,-766.0,731.0,58.0,237.0,229.0,131,103,140,108,97
2025-03-20 15:34:28.216,1833.0,2019.0,450.0,151.0,311.0,251.0,129,80,128,78,84
2025-03-20 15:34:28.240,2010.0,2010.0,2010.0,251.0,251.0,251.0,117,90,112,82,67
2025-03-20 15:34:28.265,2010.0,2010.0,2010.0,251.0,251.0,251.0,116,94,102,63,57
2025-03-20 15:34:28.285,2010.0,2010.0,2010.0,251.0,251.0,251.0,113,88,91,0,53
2025-03-20 15:34:28.307,2010.0,2010.0,2010.0,251.0,251.0,251.0,105,87,82,35,45
2025-03-20 15:34:28.331,-619.0,616.0,-547.0,81.0,147.0,141.0,92,85,78,51,40
2025-03-20 15:34:28.355,-311.0,939.0,-2006.0,128.0,-63.0,-2.0,78,76,78,50,40
2025-03-20 15:34:28.380,-1187.0,1925.0,-2952.0,77.0,-436.0,-218.0,69,64,71,58,38
2025-03-20 15:34:28.404,-200.0,3095.0,-4863.0,117.0,-1045.0,-525.0,69,48,70,68,39
2025-03-20 15:34:28.429,5041.0,563.0,-1542.0,164.0,-1410.0,-427.0,62,64,73,64,45
2025-03-20 15:34:28.450,5779.0,-1608.0,4534.0,448.0,-694.0,-201.0,79,49,74,62,43
2025-03-20 15:34:28.474,3796.0,-991.0,5835.0,387.0,134.0,-186.0,77,70,76,63,46
2025-03-20 15:34:28.499,1736.0,-174.0,3283.0,8.0,209.0,32.0,77,64,78,67,47
2025-03-20 15:34:28.523,1063.0,-492.0,2651.0,-315.0,220.0,157.0,75,73,77,66,46
2025-03-20 15:34:28.548,451.0,-505.0,1925.0,-283.0,271.0,136.0,76,89,82,69,49
2025-03-20 15:34:28.572,407.0,-646.0,1417.0,-58.0,315.0,91.0,78,94,83,71,52
2025-03-20 15:34:28.597,164.0,-31.0,1040.0,-81.0,343.0,98.0,77,90,84,70,48
2025-03-20 15:34:28.616,-43.0,-3.0,560.0,-167.0,341.0,115.0,82,89,84,68,49
2025-03-20 15:34:28.642,-63.0,-221.0,334.0,-107.0,290.0,76.0,76,91,84,69,40
2025-03-20 15:34:28.664,23.0,-111.0,307.0,-14.0,253.0,80.0,75,91,82,68,43
2025-03-20 15:34:28.691,37.0,51.0,239.0,-71.0,288.0,98.0,78,80,84,68,46
2025-03-20 15:34:28.714,-439.0,-255.0,-69.0,-105.0,229.0,136.0,77,82,83,67,47
2025-03-20 15:34:28.740,-85.0,-19.0,116.0,-24.0,165.0,108.0,78,76,85,71,49
2025-03-20 15:34:28.764,-294.0,229.0,-54.0,17.0,167.0,119.0,80,68,85,70,46
2025-03-20 15:34:28.785,-577.0,668.0,-746.0,-37.0,136.0,167.0,83,68,84,70,49
2025-03-20 15:34:28.808,-867.0,1563.0,-2059.0,61.0,-23.0,10.0,81,78,81,69,49
2025-03-20 15:34:28.835,-2069.0,2578.0,-4984.0,233.0,-518.0,-397.0,76,67,77,69,45
2025-03-20 15:34:28.858,1858.0,3181.0,-4101.0,58.0,-1406.0,-564.0,71,79,72,69,48
2025-03-20 15:34:28.884,7840.0,-4365.0,2410.0,139.0,-1370.0,-260.0,73,87,78,68,44
2025-03-20 15:34:28.907,6056.0,-1403.0,6353.0,371.0,-32.0,-158.0,79,52,85,67,48
2025-03-20 15:34:28.932,1762.0,-1301.0,3301.0,165.0,413.0,-52.0,77,62,83,70,50
2025-03-20 15:34:28.954,473.0,-474.0,1900.0,-203.0,298.0,108.0,62,50,84,67,51
2025-03-20 15:34:28.979,381.0,-1089.0,2251.0,-359.0,290.0,182.0,74,75,89,70,52
2025-03-20 15:34:29.003,-84.0,-986.0,1049.0,-239.0,232.0,196.0,87,80,96,80,59
2025-03-20 15:34:29.027,165.0,-775.0,1122.0,-56.0,277.0,184.0,103,83,110,91,68
2025-03-20 15:34:29.038,242.0,-298.0,513.0,-42.0,323.0,150.0,103,69,102,77,56
2025-03-20 15:34:29.076,-6.0,-517.0,412.0,-1.0,377.0,157.0,104,84,103,69,50
2025-03-20 15:34:29.100,-109.0,-218.0,571.0,0.0,376.0,206.0,102,74,112,69,50
2025-03-20 15:34:29.121,-107.0,-20.0,289.0,-14.0,346.0,236.0,112,95,120,72,50
2025-03-20 15:34:29.146,-112.0,72.0,-64.0,-46.0,317.0,210.0,111,93,133,78,52
2025-03-20 15:34:29.170,-394.0,289.0,-394.0,28.0,258.0,164.0,115,90,135,58,55
2025-03-20 15:34:29.195,-773.0,1356.0,-1107.0,38.0,138.0,89.0,119,97,140,64,53
2025-03-20 15:34:29.220,-615.0,2508.0,-2202.0,32.0,-60.0,-138.0,117,104,144,67,51
2025-03-20 15:34:29.243,-636.0,3099.0,-3277.0,-41.0,-417.0,-500.0,110,101,146,72,49
2025-03-20 15:34:29.269,288.0,2142.0,-3342.0,-119.0,-907.0,-783.0,97,106,147,53,48
2025-03-20 15:34:29.281,4381.0,-27.0,-870.0,-284.0,-1136.0,-757.0,95,108,149,77,48
2025-03-20 15:34:29.314,5427.0,-4161.0,2933.0,-6.0,-712.0,-357.0,107,89,147,83,49
2025-03-20 15:34:29.338,4363.0,-4148.0,3468.0,195.0,135.0,-21.0,98,72,147,81,49
2025-03-20 15:34:29.363,1375.0,-2599.0,1944.0,168.0,359.0,88.0,99,89,150,52,51
2025-03-20 15:34:29.388,584.0,-1736.0,1523.0,-80.0,271.0,199.0,111,93,154,75,59
2025-03-20 15:34:29.412,119.0,-1258.0,1100.0,-89.0,222.0,213.0,110,107,152,77,57
2025-03-20 15:34:29.436,-95.0,-808.0,921.0,-31.0,239.0,192.0,104,121,150,70,59
2025-03-20 15:34:29.461,-172.0,-668.0,621.0,-5.0,264.0,197.0,105,117,149,68,57
2025-03-20 15:34:29.482,-12.0,-455.0,469.0,22.0,260.0,196.0,103,100,146,77,54
2025-03-20 15:34:29.507,-62.0,-334.0,383.0,13.0,250.0,190.0,105,108,149,82,55
2025-03-20 15:34:29.531,-25.0,-247.0,292.0,3.0,248.0,193.0,106,96,148,84,56
2025-03-20 15:34:29.555,-144.0,-213.0,248.0,-11.0,243.0,206.0,107,116,147,84,58
2025-03-20 15:34:29.580,-168.0,-142.0,50.0,11.0,215.0,227.0,109,107,151,81,59
2025-03-20 15:34:29.604,1776.0,452.0,-65.0,18.0,220.0,221.0,111,109,152,78,61
2025-03-20 15:34:29.629,1603.0,1364.0,-978.0,-63.0,135.0,188.0,112,115,151,80,61
2025-03-20 15:34:29.653,-1144.0,2030.0,-2185.0,137.0,-55.0,-59.0,113,107,150,81,59
2025-03-20 15:34:29.675,-1046.0,3927.0,-2973.0,36.0,-408.0,-461.0,110,102,150,68,55
2025-03-20 15:34:29.699,235.0,3124.0,-3172.0,-120.0,-983.0,-820.0,94,116,146,71,54
2025-03-20 15:34:29.723,4866.0,-974.0,-346.0,-319.0,-1137.0,-827.0,107,107,148,78,55
2025-03-20 15:34:29.748,5686.0,-4814.0,2108.0,21.0,-607.0,-316.0,115,78,147,0,55
2025-03-20 15:34:29.773,4157.0,-4803.0,2671.0,285.0,245.0,48.0,107,110,151,84,64
2025-03-20 15:34:29.796,1181.0,-1936.0,1680.0,176.0,346.0,130.0,102,107,151,83,61
2025-03-20 15:34:29.817,451.0,-1418.0,1399.0,-67.0,256.0,160.0,115,116,152,77,65
2025-03-20 15:34:29.842,-29.0,-1088.0,1014.0,-65.0,209.0,171.0,115,117,148,80,66
2025-03-20 15:34:29.866,-35.0,-841.0,1071.0,-3.0,260.0,171.0,112,118,135,67,70
2025-03-20 15:34:29.888,-51.0,-667.0,660.0,44.0,326.0,166.0,113,85,111,83,65
2025-03-20 15:34:29.915,125.0,-512.0,498.0,22.0,396.0,188.0,102,97,103,72,62
2025-03-20 15:34:29.940,-211.0,-397.0,491.0,27.0,371.0,220.0,107,79,94,72,60
2025-03-20 15:34:29.964,-189.0,-276.0,247.0,41.0,339.0,227.0,100,74,87,74,56
2025-03-20 15:34:29.986,-205.0,-76.0,-268.0,43.0,294.0,202.0,97,55,88,67,56
2025-03-20 15:34:30.011,-477.0,9.0,-371.0,57.0,204.0,175.0,89,66,87,78,57
2025-03-20 15:34:30.035,-462.0,106.0,-504.0,91.0,105.0,144.0,80,60,84,79,50
2025-03-20 15:34:30.060,-696.0,796.0,-1920.0,183.0,-54.0,42.0,73,59,80,75,49
2025-03-20 15:34:30.083,-1343.0,1753.0,-4200.0,255.0,-502.0,-183.0,70,51,80,77,46
2025-03-20 15:34:30.108,741.0,2057.0,-4817.0,278.0,-1144.0,-320.0,66,43,74,78,50
2025-03-20 15:34:30.131,4499.0,-157.0,-820.0,290.0,-1298.0,-126.0,72,44,75,83,50
2025-03-20 15:34:30.154,4541.0,204.0,4195.0,409.0,-755.0,-118.0,75,60,78,84,50
2025-03-20 15:34:30.178,3559.0,14.0,5371.0,279.0,39.0,-118.0,77,77,80,82,52
2025-03-20 15:34:30.202,1959.0,391.0,3880.0,-6.0,179.0,14.0,78,77,83,84,54
2025-03-20 15:34:30.227,1286.0,180.0,3029.0,-254.0,229.0,105.0,79,48,85,87,55
2025-03-20 15:34:30.251,718.0,-119.0,2045.0,-210.0,314.0,89.0,76,67,84,87,51
2025-03-20 15:34:30.276,311.0,-94.0,1176.0,-86.0,332.0,46.0,74,75,85,85,50
2025-03-20 15:34:30.287,164.0,227.0,991.0,-143.0,328.0,52.0,71,72,80,82,49
2025-03-20 15:34:30.322,73.0,48.0,587.0,-222.0,354.0,87.0,62,78,82,82,50
2025-03-20 15:34:30.346,-85.0,-306.0,107.0,-85.0,294.0,66.0,74,79,84,84,49
2025-03-20 15:34:30.371,-53.0,144.0,310.0,-26.0,263.0,52.0,74,78,86,83,50
2025-03-20 15:34:30.395,-1.0,212.0,317.0,-129.0,322.0,68.0,78,76,86,90,52
2025-03-20 15:34:30.420,-411.0,-193.0,-305.0,-109.0,217.0,112.0,75,68,85,87,52
2025-03-20 15:34:30.444,-344.0,385.0,-147.0,3.0,170.0,41.0,75,73,85,85,52
2025-03-20 15:34:30.469,-526.0,748.0,-658.0,-18.0,150.0,26.0,77,73,88,85,51
2025-03-20 15:34:30.493,-1524.0,1089.0,-3002.0,55.0,-130.0,-100.0,75,75,83,83,50
2025-03-20 15:34:30.514,-1087.0,1774.0,-4222.0,144.0,-711.0,-295.0,71,64,84,79,46
2025-03-20 15:34:30.538,2027.0,154.0,-3016.0,145.0,-1222.0,-224.0,71,70,80,81,48
2025-03-20 15:34:30.563,5372.0,-642.0,2380.0,330.0,-1077.0,-107.0,76,75,84,81,50
2025-03-20 15:34:30.586,4722.0,-595.0,5926.0,278.0,-210.0,-129.0,80,76,87,78,52
2025-03-20 15:34:30.612,2814.0,-322.0,4780.0,42.0,241.0,-22.0,83,81,88,74,54
2025-03-20 15:34:30.636,1511.0,-500.0,2753.0,-214.0,308.0,98.0,88,93,92,78,55
2025-03-20 15:34:30.658,691.0,-623.0,1314.0,-321.0,306.0,207.0,95,84,94,80,57
2025-03-20 15:34:30.682,238.0,-264.0,1292.0,-333.0,279.0,226.0,103,76,95,76,58
2025-03-20 15:34:30.693,98.0,-78.0,972.0,-265.0,300.0,157.0,110,73,95,80,52
2025-03-20 15:34:30.731,362.0,-390.0,1138.0,-184.0,395.0,123.0,118,89,96,77,53
2025-03-20 15:34:30.755,468.0,-299.0,451.0,-117.0,484.0,178.0,111,86,97,77,57
2025-03-20 15:34:30.780,143.0,-193.0,392.0,-112.0,497.0,210.0,120,65,98,77,54
2025-03-20 15:34:30.805,-55.0,162.0,72.0,-148.0,428.0,243.0,121,62,94,61,67
2025-03-20 15:34:30.829,-258.0,-512.0,-280.0,-77.0,345.0,171.0,125,49,95,67,68
2025-03-20 15:34:30.851,-621.0,224.0,-422.0,29.0,246.0,76.0,124,43,94,67,66
2025-03-20 15:34:30.874,-959.0,711.0,-828.0,-111.0,128.0,51.0,126,40,88,78,63
2025-03-20 15:34:30.887,-550.0,1385.0,-1198.0,-110.0,-11.0,10.0,127,29,85,69,58
2025-03-20 15:34:30.923,-265.0,3286.0,-2417.0,102.0,-92.0,-242.0,121,26,82,71,45
2025-03-20 15:34:30.948,-311.0,3441.0,-2722.0,96.0,-365.0,-696.0,117,15,77,76,48
2025-03-20 15:34:30.973,1414.0,2936.0,-2931.0,-47.0,-843.0,-1018.0,109,26,77,75,44
2025-03-20 15:34:30.997,8786.0,361.0,3281.0,-284.0,-744.0,-851.0,87,28,81,76,43
2025-03-20 15:34:31.018,6070.0,-8344.0,2733.0,-92.0,188.0,-237.0,85,33,79,79,47
2025-03-20 15:34:31.042,1890.0,-5104.0,-315.0,296.0,244.0,211.0,106,45,92,87,65
2025-03-20 15:34:31.064,654.0,-1626.0,193.0,-41.0,90.0,216.0,94,45,85,88,59
2025-03-20 15:34:31.092,345.0,-2437.0,526.0,-96.0,31.0,235.0,101,44,83,85,56
2025-03-20 15:34:31.116,260.0,-1815.0,795.0,34.0,93.0,290.0,98,36,83,80,56
2025-03-20 15:34:31.140,96.0,-779.0,675.0,49.0,140.0,254.0,95,41,82,78,52
2025-03-20 15:34:31.165,-185.0,-490.0,281.0,-59.0,142.0,211.0,95,41,83,79,53
2025-03-20 15:34:31.185,-154.0,-666.0,236.0,-89.0,91.0,208.0,96,41,84,79,53
2025-03-20 15:34:31.210,-28.0,-654.0,444.0,-82.0,107.0,232.0,100,44,86,80,56
2025-03-20 15:34:31.234,11.0,-428.0,389.0,-15.0,181.0,230.0,99,42,87,81,55
2025-03-20 15:34:31.259,-472.0,-105.0,11.0,-3.0,147.0,230.0,100,44,88,80,54
2025-03-20 15:34:31.284,-197.0,-96.0,191.0,-11.0,127.0,244.0,102,44,87,78,56
2025-03-20 15:34:31.308,-483.0,3.0,-108.0,23.0,118.0,243.0,103,43,87,80,52
2025-03-20 15:34:31.332,-461.0,584.0,-310.0,48.0,103.0,240.0,103,39,85,77,54
2025-03-20 15:34:31.354,-628.0,2439.0,-1186.0,62.0,40.0,204.0,106,41,83,78,54
2025-03-20 15:34:31.378,-667.0,4729.0,-2245.0,195.0,-72.0,-361.0,107,41,83,76,53
2025-03-20 15:34:31.403,-704.0,3806.0,-2579.0,-9.0,-415.0,-845.0,108,35,84,75,51
2025-03-20 15:34:31.428,3043.0,1828.0,-1991.0,6.0,-934.0,-1131.0,105,33,92,77,54
2025-03-20 15:34:31.452,8238.0,-4669.0,2225.0,75.0,-795.0,-595.0,97,35,84,81,53
2025-03-20 15:34:31.476,5941.0,-5958.0,2900.0,702.0,391.0,102.0,100,38,87,85,53
2025-03-20 15:34:31.501,-239.0,-867.0,1353.0,353.0,327.0,72.0,94,36,86,84,51
2025-03-20 15:34:31.522,-723.0,-232.0,1294.0,-55.0,136.0,63.0,99,38,88,81,52
2025-03-20 15:34:31.544,-341.0,-1219.0,2056.0,35.0,123.0,39.0,100,37,88,80,53
2025-03-20 15:34:31.571,-402.0,-394.0,800.0,157.0,145.0,17.0,104,36,89,81,51
2025-03-20 15:34:31.596,-627.0,-411.0,332.0,128.0,66.0,-5.0,114,40,88,86,56
2025-03-20 15:34:31.619,-258.0,-594.0,423.0,135.0,-37.0,-16.0,119,42,91,88,57
2025-03-20 15:34:31.644,-54.0,-288.0,687.0,204.0,-38.0,-26.0,119,39,89,87,58
2025-03-20 15:34:31.669,45.0,-208.0,950.0,247.0,-10.0,-37.0,114,41,89,87,56
2025-03-20 15:34:31.690,-114.0,-101.0,993.0,234.0,3.0,-58.0,108,37,87,87,55
2025-03-20 15:34:31.715,-241.0,-57.0,609.0,235.0,26.0,-74.0,113,37,80,85,55
2025-03-20 15:34:31.737,-444.0,35.0,880.0,222.0,52.0,-101.0,111,37,83,84,53
2025-03-20 15:34:31.754,-374.0,-208.0,641.0,209.0,3.0,-129.0,124,38,84,84,54
2025-03-20 15:34:31.788,508.0,-2025.0,1194.0,129.0,-81.0,-8.0,127,35,80,84,52
2025-03-20 15:34:31.810,2147.0,-3122.0,2038.0,-48.0,36.0,302.0,130,37,82,83,51
2025-03-20 15:34:31.836,2712.0,-3081.0,1855.0,-340.0,177.0,700.0,133,30,82,83,49
2025-03-20 15:34:31.861,2993.0,-1498.0,802.0,-289.0,158.0,963.0,133,41,82,84,51
2025-03-20 15:34:31.882,1327.0,2516.0,1265.0,-228.0,-36.0,734.0,134,40,83,80,49
2025-03-20 15:34:31.906,560.0,4648.0,1653.0,138.0,124.0,145.0,128,42,84,74,48
2025-03-20 15:34:31.932,-380.0,4245.0,1096.0,145.0,145.0,-30.0,137,41,87,79,50
2025-03-20 15:34:31.956,-208.0,2902.0,760.0,83.0,77.0,-262.0,137,40,83,79,43
2025-03-20 15:34:31.965,-42.0,584.0,291.0,69.0,-74.0,-365.0,136,39,84,81,46
2025-03-20 15:34:32.004,517.0,-829.0,1124.0,146.0,-159.0,-271.0,133,38,85,80,50
2025-03-20 15:34:32.029,298.0,-121.0,1460.0,200.0,-88.0,-232.0,135,39,83,83,51
2025-03-20 15:34:32.050,-90.0,173.0,1073.0,174.0,-75.0,-262.0,133,38,84,83,52
2025-03-20 15:34:32.075,-153.0,207.0,1096.0,148.0,-149.0,-255.0,115,40,84,86,53
2025-03-20 15:34:32.099,69.0,-56.0,909.0,104.0,-176.0,-279.0,129,39,85,86,54
2025-03-20 15:34:32.124,134.0,-721.0,1165.0,149.0,-138.0,-223.0,130,40,85,86,55
2025-03-20 15:34:32.148,62.0,-350.0,893.0,175.0,-126.0,-189.0,129,39,82,87,59
2025-03-20 15:34:32.172,37.0,-269.0,1229.0,74.0,-103.0,-113.0,126,41,81,85,53
2025-03-20 15:34:32.194,274.0,-975.0,1180.0,24.0,-56.0,-56.0,128,38,79,85,52
2025-03-20 15:34:32.218,999.0,-2119.0,1119.0,92.0,-39.0,51.0,139,40,79,86,53
2025-03-20 15:34:32.243,1981.0,-2363.0,1994.0,53.0,-6.0,397.0,134,5,82,87,53
2025-03-20 15:34:32.267,3066.0,-1868.0,2908.0,-309.0,220.0,800.0,132,38,83,87,54
2025-03-20 15:34:32.290,3196.0,874.0,2137.0,-404.0,349.0,979.0,133,36,83,83,53
2025-03-20 15:34:32.316,2130.0,3259.0,2146.0,-356.0,383.0,756.0,146,42,83,80,51
2025-03-20 15:34:32.340,726.0,4816.0,1396.0,41.0,415.0,139.0,138,43,86,75,50
2025-03-20 15:34:32.362,-259.0,3583.0,640.0,87.0,352.0,-33.0,146,41,85,75,47
2025-03-20 15:34:32.386,-503.0,1518.0,760.0,33.0,203.0,-201.0,139,42,83,76,48
2025-03-20 15:34:32.411,275.0,-720.0,1646.0,-25.0,181.0,-146.0,142,40,85,79,47
2025-03-20 15:34:32.435,-224.0,-1268.0,1528.0,-46.0,250.0,-79.0,137,34,85,73,50
2025-03-20 15:34:32.459,-896.0,-715.0,800.0,-27.0,198.0,-58.0,140,41,88,81,55
2025-03-20 15:34:32.484,-579.0,-1111.0,944.0,172.0,108.0,-52.0,135,45,96,76,56
2025-03-20 15:34:32.508,-1107.0,-723.0,442.0,76.0,124.0,-22.0,130,41,103,40,67
2025-03-20 15:34:32.530,-953.0,-416.0,683.0,70.0,150.0,3.0,132,45,112,38,80
2025-03-20 15:34:32.555,-758.0,-326.0,482.0,132.0,187.0,5.0,133,51,121,50,88
2025-03-20 15:34:32.578,-764.0,172.0,303.0,76.0,247.0,3.0,127,64,123,100,91
2025-03-20 15:34:32.603,-576.0,813.0,-645.0,50.0,134.0,17.0,130,66,123,104,88
2025-03-20 15:34:32.627,-654.0,1591.0,-1385.0,33.0,22.0,-113.0,127,69,124,104,89
2025-03-20 15:34:32.652,-646.0,2185.0,-2213.0,-22.0,-191.0,-403.0,124,69,131,103,93
2025-03-20 15:34:32.676,-749.0,2187.0,-2889.0,-77.0,-436.0,-704.0,122,78,133,102,97
2025-03-20 15:34:32.701,1038.0,1937.0,-3488.0,-263.0,-659.0,-857.0,121,74,136,100,99
2025-03-20 15:34:32.725,6781.0,1541.0,2255.0,-311.0,-1028.0,-871.0,131,89,141,101,98
2025-03-20 15:34:32.746,6310.0,-7173.0,2358.0,-345.0,-755.0,-352.0,134,80,149,98,105
2025-03-20 15:34:32.771,3520.0,-5255.0,2131.0,436.0,189.0,75.0,137,40,144,105,108
2025-03-20 15:34:32.795,1553.0,-2174.0,1875.0,140.0,486.0,185.0,137,65,139,105,108
2025-03-20 15:34:32.820,565.0,-1090.0,1504.0,-41.0,379.0,195.0,136,87,141,107,106
2025-03-20 15:34:32.844,-330.0,-1312.0,551.0,-284.0,156.0,259.0,144,95,142,108,108
2025-03-20 15:34:32.869,73.0,-897.0,801.0,-16.0,82.0,280.0,145,93,144,110,108
2025-03-20 15:34:32.890,224.0,-851.0,645.0,8.0,282.0,277.0,139,91,145,109,108
2025-03-20 15:34:32.914,184.0,-452.0,234.0,-23.0,306.0,243.0,135,97,141,108,107
2025-03-20 15:34:32.931,-47.0,-422.0,12.0,13.0,194.0,301.0,137,96,143,109,108
2025-03-20 15:34:32.961,65.0,-133.0,318.0,100.0,203.0,291.0,136,98,142,109,108
2025-03-20 15:34:32.988,2170.0,93.0,142.0,121.0,215.0,273.0,133,92,137,109,106
2025-03-20 15:34:33.012,-538.0,500.0,-308.0,96.0,148.0,276.0,132,90,138,107,104
2025-03-20 15:34:33.035,-420.0,1445.0,-822.0,153.0,119.0,239.0,127,89,137,107,104
2025-03-20 15:34:33.061,-657.0,2416.0,-2388.0,187.0,-67.0,20.0,126,87,137,108,103
2025-03-20 15:34:33.083,-1125.0,3116.0,-2786.0,56.0,-366.0,-415.0,128,86,140,109,106
2025-03-20 15:34:33.098,-573.0,2872.0,-2622.0,-111.0,-626.0,-835.0,126,98,142,109,108
2025-03-20 15:34:33.131,7013.0,1574.0,1209.0,-382.0,-1144.0,-1000.0,135,95,143,110,107
2025-03-20 15:34:33.155,5844.0,-7464.0,1050.0,-78.0,-779.0,-481.0,140,85,144,109,111
2025-03-20 15:34:33.180,3894.0,-5554.0,2910.0,412.0,49.0,148.0,137,37,142,108,111
2025-03-20 15:34:33.205,918.0,-917.0,2404.0,290.0,334.0,126.0,132,89,140,109,110
2025-03-20 15:34:33.226,-533.0,-399.0,931.0,6.0,203.0,93.0,135,82,143,84,110
2025-03-20 15:34:33.250,-645.0,-991.0,529.0,-3.0,48.0,82.0,138,73,136,102,105
2025-03-20 15:34:33.275,-355.0,-767.0,575.0,-62.0,6.0,106.0,142,47,131,35,103
2025-03-20 15:34:33.299,19.0,-209.0,549.0,188.0,110.0,38.0,142,53,121,42,83
2025-03-20 15:34:33.324,-114.0,-501.0,668.0,214.0,104.0,26.0,139,13,120,55,77
2025-03-20 15:34:33.348,-218.0,-253.0,386.0,241.0,43.0,14.0,126,24,109,51,66
2025-03-20 15:34:33.373,-242.0,375.0,499.0,301.0,-6.0,-42.0,124,34,104,67,52
2025-03-20 15:34:33.393,-350.0,49.0,634.0,277.0,-24.0,-96.0,123,28,95,57,36
2025-03-20 15:34:33.418,-185.0,-393.0,804.0,404.0,-4.0,-123.0,123,28,88,73,37
2025-03-20 15:34:33.440,-347.0,-389.0,604.0,443.0,24.0,-153.0,126,35,82,70,40
2025-03-20 15:34:33.468,555.0,-1442.0,1357.0,339.0,-14.0,-60.0,129,34,76,74,42
2025-03-20 15:34:33.492,2202.0,-2946.0,2657.0,101.0,96.0,211.0,133,34,81,78,43
2025-03-20 15:34:33.516,3091.0,-3206.0,3032.0,-96.0,285.0,592.0,130,36,82,80,49
2025-03-20 15:34:33.540,2702.0,-1242.0,1090.0,-233.0,250.0,879.0,139,36,82,85,47
2025-03-20 15:34:33.565,1496.0,2624.0,1052.0,-297.0,160.0,742.0,135,37,84,79,47
2025-03-20 15:34:33.587,278.0,4587.0,152.0,144.0,226.0,208.0,134,33,85,75,48
2025-03-20 15:34:33.608,-191.0,4866.0,148.0,82.0,97.0,-10.0,136,36,81,74,46
2025-03-20 15:34:33.633,-3.0,2983.0,274.0,-87.0,39.0,-228.0,138,38,82,74,46
2025-03-20 15:34:33.657,427.0,657.0,813.0,-51.0,-14.0,-254.0,140,37,84,76,51
2025-03-20 15:34:33.684,292.0,-105.0,1240.0,70.0,15.0,-218.0,141,41,86,79,51
2025-03-20 15:34:33.708,51.0,-128.0,1168.0,-69.0,71.0,-215.0,141,40,85,81,51
2025-03-20 15:34:33.729,-61.0,-60.0,1563.0,39.0,1.0,-211.0,139,40,87,83,52
2025-03-20 15:34:33.754,-353.0,-412.0,489.0,109.0,-59.0,-180.0,133,43,86,82,51
2025-03-20 15:34:33.779,-201.0,-198.0,928.0,181.0,-102.0,-180.0,132,41,83,89,52
2025-03-20 15:34:33.803,-354.0,65.0,858.0,165.0,-89.0,-242.0,133,31,82,80,49
2025-03-20 15:34:33.828,-310.0,179.0,794.0,181.0,-134.0,-257.0,135,34,83,79,50
2025-03-20 15:34:33.852,-350.0,353.0,1166.0,100.0,-184.0,-216.0,132,35,83,82,49
2025-03-20 15:34:33.877,0.0,-243.0,1220.0,45.0,-150.0,-221.0,131,36,84,83,50
2025-03-20 15:34:33.900,130.0,-954.0,1180.0,81.0,-101.0,-170.0,132,38,77,83,50
2025-03-20 15:34:33.922,830.0,-1481.0,1510.0,75.0,-85.0,-14.0,135,38,85,85,53
2025-03-20 15:34:33.947,1785.0,-3359.0,2025.0,-134.0,-28.0,223.0,135,37,85,85,53
2025-03-20 15:34:33.972,2695.0,-2761.0,2988.0,-319.0,216.0,549.0,138,37,88,84,53
2025-03-20 15:34:33.996,2743.0,-1144.0,1666.0,-405.0,331.0,839.0,136,41,88,84,52
2025-03-20 15:34:34.020,1403.0,2492.0,1242.0,-451.0,144.0,846.0,133,35,84,76,46
2025-03-20 15:34:34.045,150.0,4974.0,1752.0,122.0,210.0,163.0,134,38,89,73,50
2025-03-20 15:34:34.056,-393.0,4134.0,838.0,197.0,301.0,-14.0,140,43,91,71,50
2025-03-20 15:34:34.090,-684.0,2355.0,1041.0,32.0,232.0,-216.0,146,47,96,72,53
2025-03-20 15:34:34.115,-74.0,-166.0,1351.0,-53.0,138.0,-234.0,147,48,103,71,53
2025-03-20 15:34:34.138,-100.0,-1391.0,1386.0,-173.0,199.0,-158.0,142,38,110,65,50
2025-03-20 15:34:34.159,-379.0,-1633.0,778.0,-54.0,247.0,-126.0,144,58,118,73,47
2025-03-20 15:34:34.184,-496.0,-1365.0,590.0,60.0,238.0,-51.0,137,68,122,82,49
2025-03-20 15:34:34.212,-634.0,-934.0,686.0,184.0,231.0,12.0,129,59,125,61,52
2025-03-20 15:34:34.234,-839.0,-649.0,547.0,14.0,183.0,79.0,129,77,130,72,52
2025-03-20 15:34:34.258,-540.0,-515.0,188.0,72.0,239.0,127.0,128,72,133,76,53
2025-03-20 15:34:34.282,-735.0,-14.0,-36.0,133.0,224.0,123.0,125,88,137,70,53
2025-03-20 15:34:34.307,-670.0,550.0,-207.0,84.0,216.0,106.0,130,91,139,80,57
2025-03-20 15:34:34.332,-498.0,723.0,-442.0,91.0,200.0,66.0,126,93,140,77,56
2025-03-20 15:34:34.356,-440.0,1291.0,-985.0,101.0,147.0,-12.0,124,97,140,84,53
2025-03-20 15:34:34.379,-363.0,1896.0,-2010.0,78.0,-21.0,-190.0,122,95,141,74,52
2025-03-20 15:34:34.405,-269.0,2815.0,-3178.0,0.0,-352.0,-546.0,109,90,142,60,54
2025-03-20 15:34:34.426,363.0,2655.0,-4203.0,-96.0,-853.0,-867.0,93,85,142,43,48
2025-03-20 15:34:34.450,4109.0,1646.0,-3621.0,-169.0,-1458.0,-847.0,96,87,145,46,47
2025-03-20 15:34:34.475,8516.0,-3362.0,2343.0,-282.0,-1220.0,-601.0,110,61,146,68,51
2025-03-20 15:34:34.499,6287.0,-6371.0,3135.0,182.0,85.0,22.0,106,83,146,75,53
2025-03-20 15:34:34.524,1941.0,-2380.0,1872.0,421.0,465.0,139.0,106,65,151,93,61
2025-03-20 15:34:34.549,311.0,-1249.0,1270.0,-136.0,257.0,229.0,123,100,158,80,69
2025-03-20 15:34:34.565,39.0,-1453.0,1081.0,-133.0,216.0,260.0,130,81,159,91,72
2025-03-20 15:34:34.594,-157.0,-827.0,741.0,33.0,264.0,272.0,116,96,151,69,61
2025-03-20 15:34:34.618,-386.0,-192.0,393.0,38.0,288.0,254.0,101,100,148,86,62
2025-03-20 15:34:34.643,-288.0,-80.0,290.0,-14.0,262.0,215.0,107,107,150,95,62
2025-03-20 15:34:34.668,-133.0,-279.0,340.0,10.0,225.0,189.0,110,109,149,94,60
2025-03-20 15:34:34.692,-324.0,-229.0,277.0,35.0,199.0,171.0,112,101,148,96,61
2025-03-20 15:34:34.716,-343.0,-113.0,325.0,15.0,192.0,129.0,116,113,154,97,63
2025-03-20 15:34:34.740,-364.0,-200.0,246.0,-2.0,192.0,105.0,112,110,152,84,63
2025-03-20 15:34:34.759,-375.0,-70.0,193.0,13.0,205.0,119.0,116,96,152,87,65
2025-03-20 15:34:34.787,-467.0,458.0,-219.0,37.0,214.0,161.0,119,111,152,70,66
2025-03-20 15:34:34.811,-725.0,1660.0,-2103.0,94.0,100.0,125.0,120,109,151,82,60
2025-03-20 15:34:34.836,-1549.0,3239.0,-3412.0,112.0,-295.0,-275.0,109,103,147,81,57
2025-03-20 15:34:34.859,-747.0,3754.0,-3368.0,3.0,-877.0,-860.0,102,89,149,86,59
2025-03-20 15:34:34.884,4880.0,743.0,-863.0,-327.0,-1347.0,-979.0,108,83,150,95,60
2025-03-20 15:34:34.909,7022.0,-5931.0,1499.0,52.0,-715.0,-255.0,118,28,150,99,57
2025-03-20 15:34:34.933,4098.0,-3290.0,2997.0,262.0,249.0,71.0,114,84,151,102,60
2025-03-20 15:34:34.955,123.0,-1011.0,1302.0,174.0,310.0,55.0,107,107,150,105,67
2025-03-20 15:34:34.979,-198.0,-572.0,1080.0,9.0,197.0,77.0,140,113,166,95,83
2025-03-20 15:34:35.003,-340.0,-660.0,758.0,79.0,99.0,54.0,136,78,157,103,76
2025-03-20 15:34:35.028,-226.0,-256.0,879.0,134.0,100.0,6.0,119,82,144,81,60
2025-03-20 15:34:35.053,-309.0,-513.0,1021.0,245.0,140.0,-32.0,127,89,143,92,63
2025-03-20 15:34:35.077,-9.0,-459.0,607.0,302.0,183.0,-19.0,127,71,130,87,59
2025-03-20 15:34:35.101,-185.0,-193.0,363.0,310.0,132.0,-16.0,132,51,124,92,54
2025-03-20 15:34:35.122,-482.0,102.0,675.0,278.0,85.0,-41.0,124,55,122,93,60
2025-03-20 15:34:35.147,-312.0,-319.0,703.0,287.0,51.0,-73.0,129,54,118,89,61
2025-03-20 15:34:35.171,-279.0,-236.0,1091.0,284.0,19.0,-76.0,141,54,107,89,64
2025-03-20 15:34:35.196,207.0,-1198.0,1113.0,187.0,25.0,-13.0,143,52,96,90,62
2025-03-20 15:34:35.220,1136.0,-2128.0,1976.0,32.0,73.0,151.0,134,50,91,82,61
2025-03-20 15:34:35.244,2122.0,-3571.0,2501.0,-175.0,134.0,495.0,137,42,81,84,53
2025-03-20 15:34:35.269,3192.0,-2050.0,1942.0,-87.0,221.0,836.0,138,42,83,82,54
2025-03-20 15:34:35.290,2030.0,1844.0,492.0,-197.0,157.0,756.0,140,43,82,77,52
2025-03-20 15:34:35.314,253.0,4540.0,248.0,-263.0,126.0,415.0,134,46,83,84,45
2025-03-20 15:34:35.339,281.0,4577.0,513.0,120.0,38.0,57.0,136,50,86,87,57
2025-03-20 15:34:35.364,-104.0,4261.0,374.0,41.0,-18.0,-122.0,146,52,89,88,58
2025-03-20 15:34:35.384,261.0,2076.0,703.0,5.0,-68.0,-254.0,146,46,89,88,57
2025-03-20 15:34:35.413,632.0,-199.0,1392.0,79.0,-51.0,-191.0,147,51,91,90,59
2025-03-20 15:34:35.434,188.0,82.0,1510.0,74.0,12.0,-181.0,149,50,90,91,58
2025-03-20 15:34:35.458,-216.0,44.0,965.0,22.0,29.0,-214.0,137,45,82,86,52
2025-03-20 15:34:35.483,-275.0,-936.0,815.0,-78.0,59.0,-212.0,137,48,84,86,51
2025-03-20 15:34:35.508,-295.0,-363.0,810.0,196.0,-73.0,-167.0,124,47,83,87,51
2025-03-20 15:34:35.532,-311.0,54.0,991.0,71.0,-69.0,-175.0,137,47,86,89,53
2025-03-20 15:34:35.556,-361.0,85.0,912.0,100.0,-63.0,-227.0,137,49,86,88,54
2025-03-20 15:34:35.580,-409.0,54.0,616.0,132.0,-71.0,-186.0,138,47,87,89,53
2025-03-20 15:34:35.602,-348.0,439.0,516.0,75.0,-137.0,-201.0,137,48,87,89,55
2025-03-20 15:34:35.626,-6.0,-178.0,833.0,40.0,-233.0,-258.0,136,48,86,88,55
2025-03-20 15:34:35.651,886.0,-2301.0,1844.0,151.0,-180.0,-114.0,138,44,84,87,55
2025-03-20 15:34:35.674,2061.0,-3076.0,3231.0,30.0,38.0,216.0,145,42,84,87,53
2025-03-20 15:34:35.700,2769.0,-2521.0,3012.0,-253.0,286.0,600.0,144,46,85,85,52
2025-03-20 15:34:35.724,2361.0,226.0,1446.0,-506.0,303.0,832.0,146,48,85,85,50
2025-03-20 15:34:35.748,1494.0,2765.0,1034.0,-430.0,243.0,715.0,149,46,86,83,51
2025-03-20 15:34:35.772,-395.0,5734.0,863.0,-147.0,185.0,80.0,142,30,91,82,51
2025-03-20 15:34:35.795,-209.0,3037.0,1540.0,59.0,209.0,-30.0,149,50,96,80,54
2025-03-20 15:34:35.818,3.0,1929.0,1930.0,12.0,300.0,-161.0,145,55,97,74,52
2025-03-20 15:34:35.843,-373.0,-202.0,1595.0,-104.0,256.0,-204.0,143,48,92,82,54
2025-03-20 15:34:35.868,111.0,-1260.0,1366.0,-172.0,353.0,-122.0,135,34,87,66,47
2025-03-20 15:34:35.892,-444.0,-766.0,770.0,-78.0,284.0,-162.0,132,42,87,80,50
2025-03-20 15:34:35.916,-514.0,-1584.0,1570.0,115.0,297.0,-126.0,126,52,87,65,59
2025-03-20 15:34:35.940,-535.0,-1105.0,104.0,30.0,287.0,-36.0,120,49,86,80,53
2025-03-20 15:34:35.961,-1007.0,-465.0,-593.0,15.0,226.0,14.0,128,49,84,79,58
2025-03-20 15:34:35.986,-638.0,-297.0,-248.0,0.0,170.0,52.0,139,51,85,78,60
2025-03-20 15:34:36.009,-729.0,-43.0,-149.0,55.0,155.0,87.0,136,45,84,80,67
2025-03-20 15:34:36.035,-728.0,724.0,-666.0,39.0,99.0,128.0,134,51,81,63,61
2025-03-20 15:34:36.060,-351.0,1825.0,-1257.0,56.0,15.0,50.0,124,51,79,64,56
2025-03-20 15:34:36.082,-839.0,3577.0,-2703.0,75.0,-99.0,-303.0,110,39,77,76,51
2025-03-20 15:34:36.099,-114.0,3507.0,-3501.0,40.0,-463.0,-781.0,99,24,73,62,44
2025-03-20 15:34:36.130,2732.0,3681.0,-4079.0,-6.0,-1198.0,-1114.0,84,18,67,71,47
2025-03-20 15:34:36.155,10684.0,-4224.0,2625.0,137.0,-1157.0,-580.0,86,4,80,80,47
2025-03-20 15:34:36.180,6664.0,-4283.0,5802.0,581.0,299.0,-83.0,88,38,80,79,46
2025-03-20 15:34:36.204,552.0,-2042.0,1627.0,130.0,276.0,80.0,89,44,80,72,49
2025-03-20 15:34:36.227,194.0,-1275.0,1829.0,-326.0,73.0,122.0,94,37,82,76,44
2025-03-20 15:34:36.252,758.0,-2174.0,1933.0,-140.0,266.0,193.0,93,50,87,80,41
2025-03-20 15:34:36.277,-73.0,-1019.0,845.0,20.0,302.0,246.0,96,46,83,77,51
2025-03-20 15:34:36.298,-200.0,-133.0,895.0,-33.0,235.0,152.0,100,44,82,74,47
2025-03-20 15:34:36.323,93.0,-611.0,948.0,-129.0,292.0,185.0,94,37,83,69,49
2025-03-20 15:34:36.347,-397.0,-658.0,146.0,-73.0,245.0,262.0,101,30,85,70,48
2025-03-20 15:34:36.371,-221.0,-302.0,323.0,-33.0,210.0,276.0,104,43,82,68,51
2025-03-20 15:34:36.396,208.0,150.0,551.0,17.0,294.0,235.0,106,41,88,72,52
2025-03-20 15:34:36.420,-600.0,75.0,-190.0,16.0,247.0,237.0,106,42,87,73,53
2025-03-20 15:34:36.445,-533.0,421.0,-143.0,-43.0,176.0,242.0,106,46,87,78,53
2025-03-20 15:34:36.466,-315.0,520.0,-52.0,45.0,160.0,172.0,106,44,84,72,53
2025-03-20 15:34:36.490,-633.0,1387.0,-1127.0,114.0,118.0,107.0,108,43,84,71,52
2025-03-20 15:34:36.515,-1138.0,3535.0,-2956.0,143.0,-66.0,-243.0,110,43,79,71,50
2025-03-20 15:34:36.540,-963.0,4163.0,-3778.0,87.0,-517.0,-751.0,106,37,78,61,50
2025-03-20 15:34:36.564,3231.0,1650.0,-3411.0,-10.0,-1166.0,-963.0,99,31,83,66,48
2025-03-20 15:34:36.588,8758.0,-5447.0,4061.0,551.0,-793.0,-270.0,94,39,85,69,47
2025-03-20 15:34:36.613,2897.0,-487.0,5104.0,493.0,244.0,-67.0,110,45,86,77,45
2025-03-20 15:34:36.634,9.0,-1444.0,1968.0,30.0,162.0,61.0,102,51,91,81,61
2025-03-20 15:34:36.658,283.0,-2262.0,1645.0,44.0,165.0,95.0,105,43,87,74,54
2025-03-20 15:34:36.683,-245.0,-897.0,755.0,246.0,148.0,124.0,103,45,85,73,52
2025-03-20 15:34:36.707,-488.0,-275.0,707.0,183.0,58.0,103.0,112,42,82,59,54
2025-03-20 15:34:36.731,-170.0,-584.0,749.0,141.0,37.0,119.0,117,37,82,76,55
2025-03-20 15:34:36.756,29.0,-198.0,700.0,192.0,33.0,130.0,121,44,79,63,52
2025-03-20 15:34:36.780,-244.0,88.0,772.0,236.0,82.0,166.0,126,42,80,57,59
2025-03-20 15:34:36.802,-335.0,748.0,711.0,70.0,53.0,163.0,127,45,81,75,71
2025-03-20 15:34:36.827,-36.0,58.0,802.0,-13.0,83.0,158.0,128,46,83,63,84
2025-03-20 15:34:36.851,-146.0,503.0,385.0,120.0,87.0,114.0,127,45,81,71,80
2025-03-20 15:34:36.875,-567.0,1157.0,27.0,179.0,53.0,80.0,131,45,80,68,94
2025-03-20 15:34:36.899,-1065.0,2001.0,-193.0,100.0,-33.0,29.0,129,44,78,61,97
2025-03-20 15:34:36.923,-1852.0,3153.0,-670.0,47.0,-85.0,-123.0,130,45,78,63,104
2025-03-20 15:34:36.949,-2051.0,3408.0,-1101.0,108.0,-155.0,-322.0,131,44,79,60,108
2025-03-20 15:34:36.973,-664.0,2684.0,-736.0,178.0,-352.0,-394.0,131,46,78,70,113
2025-03-20 15:34:36.995,1858.0,906.0,913.0,91.0,-457.0,-324.0,131,43,79,72,116
2025-03-20 15:34:37.019,3108.0,-786.0,2780.0,1.0,-250.0,-206.0,132,49,83,82,121
2025-03-20 15:34:37.043,2895.0,-1800.0,2882.0,-72.0,-7.0,-76.0,135,50,87,85,123
2025-03-20 15:34:37.067,1666.0,-1321.0,2097.0,-67.0,96.0,37.0,134,48,86,83,123
2025-03-20 15:34:37.092,658.0,-698.0,1337.0,-46.0,112.0,104.0,153,63,109,109,121
2025-03-20 15:34:37.116,257.0,120.0,1228.0,-25.0,165.0,99.0,136,52,95,95,118
2025-03-20 15:34:37.141,-198.0,528.0,1128.0,-3.0,180.0,87.0,130,46,85,84,115
2025-03-20 15:34:37.161,-104.0,979.0,1809.0,-85.0,125.0,97.0,127,47,86,87,116
2025-03-20 15:34:37.186,-278.0,528.0,839.0,-65.0,170.0,102.0,129,43,88,87,118
2025-03-20 15:34:37.209,-461.0,631.0,400.0,-26.0,184.0,80.0,128,44,90,81,118
2025-03-20 15:34:37.226,-567.0,601.0,86.0,22.0,132.0,70.0,130,43,87,81,116
2025-03-20 15:34:37.257,-603.0,765.0,177.0,-30.0,59.0,86.0,130,40,87,74,119
2025-03-20 15:34:37.274,-298.0,592.0,469.0,-12.0,67.0,89.0,130,49,86,73,117
2025-03-20 15:34:37.309,-777.0,1045.0,-56.0,37.0,83.0,57.0,127,42,87,76,116
2025-03-20 15:34:37.330,-1133.0,1843.0,-515.0,10.0,10.0,22.0,125,41,86,75,118
2025-03-20 15:34:37.355,-1779.0,2621.0,-1157.0,-7.0,-70.0,-95.0,123,37,89,73,118
2025-03-20 15:34:37.379,-2079.0,2541.0,-1862.0,130.0,-327.0,-253.0,125,45,87,73,120
2025-03-20 15:34:37.403,133.0,2055.0,-837.0,158.0,-680.0,-274.0,121,39,85,70,121
2025-03-20 15:34:37.428,3157.0,-376.0,2140.0,61.0,-596.0,-162.0,124,48,87,79,123
2025-03-20 15:34:37.452,3476.0,-1296.0,3716.0,-52.0,-143.0,-61.0,124,51,89,74,125
2025-03-20 15:34:37.476,2504.0,-1133.0,2564.0,-60.0,93.0,30.0,122,43,91,86,124
2025-03-20 15:34:37.498,1291.0,-938.0,2423.0,-78.0,195.0,92.0,122,40,89,86,116
2025-03-20 15:34:37.523,422.0,-34.0,1762.0,-177.0,205.0,151.0,108,45,87,86,116
2025-03-20 15:34:37.548,152.0,763.0,1711.0,-241.0,262.0,187.0,108,44,90,87,121
2025-03-20 15:34:37.572,-14.0,1475.0,1415.0,-408.0,317.0,228.0,121,44,91,87,122
2025-03-20 15:34:37.590,50.0,1134.0,1007.0,-538.0,381.0,162.0,123,48,94,85,93
2025-03-20 15:34:37.621,323.0,20.0,1012.0,-355.0,448.0,164.0,124,32,96,85,117
2025-03-20 15:34:37.645,268.0,362.0,574.0,-85.0,497.0,208.0,126,38,98,64,109
2025-03-20 15:34:37.666,-367.0,874.0,37.0,-139.0,478.0,232.0,128,45,105,75,109
2025-03-20 15:34:37.687,-625.0,647.0,-801.0,-147.0,358.0,183.0,135,51,115,64,103
2025-03-20 15:34:37.712,-1083.0,447.0,-663.0,7.0,137.0,112.0,127,46,118,67,101
2025-03-20 15:34:37.739,-619.0,906.0,-853.0,39.0,43.0,32.0,123,64,121,94,100
2025-03-20 15:34:37.764,-527.0,1115.0,-1800.0,38.0,-87.0,-45.0,120,65,125,108,101
2025-03-20 15:34:37.789,-1086.0,1870.0,-2963.0,-13.0,-307.0,-226.0,119,72,128,104,107
2025-03-20 15:34:37.812,-192.0,2489.0,-3010.0,-177.0,-631.0,-527.0,123,79,134,105,114
2025-03-20 15:34:37.837,1326.0,1345.0,-2326.0,-287.0,-876.0,-818.0,121,99,139,108,119
2025-03-20 15:34:37.850,6132.0,-101.0,2017.0,-355.0,-1177.0,-719.0,132,80,140,104,117
2025-03-20 15:34:37.887,4971.0,-5984.0,3158.0,-300.0,-421.0,-6.0,138,93,145,107,118
2025-03-20 15:34:37.912,2743.0,-4258.0,2632.0,419.0,332.0,162.0,135,78,145,111,120
2025-03-20 15:34:37.933,693.0,-1492.0,1115.0,183.0,416.0,192.0,123,94,143,110,119
2025-03-20 15:34:37.954,141.0,-1177.0,1010.0,-98.0,277.0,243.0,131,90,142,110,120
2025-03-20 15:34:37.982,-276.0,-1092.0,826.0,-99.0,135.0,254.0,135,88,144,111,121
2025-03-20 15:34:38.002,-46.0,-475.0,979.0,18.0,199.0,231.0,132,96,144,111,121
2025-03-20 15:34:38.029,-215.0,-348.0,473.0,59.0,301.0,203.0,128,96,144,111,118
2025-03-20 15:34:38.055,-165.0,-105.0,181.0,-27.0,246.0,223.0,129,104,146,112,120
2025-03-20 15:34:38.079,56.0,-243.0,484.0,11.0,214.0,215.0,126,102,148,113,123
2025-03-20 15:34:38.101,-361.0,-151.0,228.0,100.0,243.0,222.0,125,105,145,113,122
2025-03-20 15:34:38.125,-588.0,229.0,9.0,85.0,240.0,225.0,128,102,145,115,125
2025-03-20 15:34:38.150,-450.0,399.0,-47.0,79.0,162.0,177.0,129,94,144,114,113
2025-03-20 15:34:38.174,-642.0,480.0,-284.0,85.0,110.0,129.0,126,87,146,116,110
2025-03-20 15:34:38.198,-640.0,1367.0,-1013.0,145.0,96.0,89.0,120,90,144,112,116
2025-03-20 15:34:38.221,-1026.0,2500.0,-2392.0,100.0,-124.0,-202.0,121,87,142,113,111
2025-03-20 15:34:38.240,-810.0,2758.0,-2637.0,57.0,-434.0,-651.0,121,100,144,114,118
2025-03-20 15:34:38.270,294.0,2860.0,-2248.0,-55.0,-661.0,-994.0,125,103,146,113,123
2025-03-20 15:34:38.293,7891.0,-396.0,204.0,-621.0,-1052.0,-1081.0,129,95,151,114,124
2025-03-20 15:34:38.318,4710.0,-6605.0,-486.0,-317.0,-463.0,-334.0,131,93,148,115,125
2025-03-20 15:34:38.342,4979.0,-4793.0,1693.0,408.0,132.0,244.0,136,79,159,129,138
2025-03-20 15:34:38.366,315.0,-1438.0,185.0,450.0,291.0,265.0,139,107,154,125,137
2025-03-20 15:34:38.390,-128.0,-633.0,139.0,81.0,273.0,205.0,140,95,147,122,132
2025-03-20 15:34:38.416,-331.0,-1088.0,533.0,72.0,105.0,154.0,132,95,134,114,125
2025-03-20 15:34:38.436,0.0,-1348.0,20.0,91.0,76.0,187.0,125,78,130,110,123
2025-03-20 15:34:38.461,319.0,-1112.0,331.0,57.0,119.0,210.0,124,40,122,77,122
2025-03-20 15:34:38.485,162.0,-1262.0,62.0,386.0,207.0,279.0,120,46,110,50,112
2025-03-20 15:34:38.510,-5.0,-590.0,27.0,339.0,123.0,307.0,121,41,104,46,118
2025-03-20 15:34:38.532,63.0,-239.0,-222.0,241.0,84.0,275.0,126,39,103,67,112
2025-03-20 15:34:38.554,-244.0,-361.0,0.0,287.0,48.0,244.0,127,29,98,79,117
2025-03-20 15:34:38.582,-204.0,395.0,385.0,236.0,12.0,175.0,116,35,94,86,114
2025-03-20 15:34:38.604,-466.0,523.0,184.0,236.0,-28.0,161.0,109,28,88,82,117
2025-03-20 15:34:38.628,-708.0,1423.0,265.0,279.0,-30.0,114.0,107,29,89,86,120
2025-03-20 15:34:38.652,-1288.0,3297.0,15.0,264.0,-17.0,-32.0,106,39,89,84,123
2025-03-20 15:34:38.676,-2447.0,3977.0,-1097.0,211.0,-78.0,-235.0,105,35,91,87,124
2025-03-20 15:34:38.703,-1639.0,3381.0,-927.0,228.0,-318.0,-381.0,110,39,91,91,128
2025-03-20 15:34:38.724,730.0,2281.0,601.0,202.0,-439.0,-424.0,111,36,92,87,123
2025-03-20 15:34:38.751,2648.0,-210.0,2635.0,69.0,-331.0,-305.0,116,41,93,79,125
2025-03-20 15:34:38.775,2941.0,-2380.0,2970.0,-64.0,-145.0,-111.0,130,57,111,102,142
2025-03-20 15:34:38.797,2277.0,-2124.0,2781.0,-79.0,8.0,36.0,111,45,99,95,134
2025-03-20 15:34:38.821,1061.0,-999.0,1718.0,-42.0,112.0,104.0,109,33,91,98,115
2025-03-20 15:34:38.846,-244.0,-62.0,1170.0,-76.0,96.0,145.0,111,34,95,102,119
2025-03-20 15:34:38.870,-403.0,309.0,884.0,-89.0,94.0,143.0,109,45,101,102,127
2025-03-20 15:34:38.895,-155.0,366.0,1337.0,-95.0,128.0,157.0,111,46,99,91,126
2025-03-20 15:34:38.919,-219.0,664.0,902.0,-90.0,186.0,144.0,117,52,104,94,125
2025-03-20 15:34:38.943,-519.0,578.0,252.0,-40.0,147.0,126.0,116,46,105,104,132
2025-03-20 15:34:38.965,-534.0,788.0,369.0,-43.0,92.0,121.0,112,45,99,100,131
2025-03-20 15:34:38.989,-342.0,697.0,557.0,-74.0,98.0,122.0,111,42,100,95,130
2025-03-20 15:34:39.013,-240.0,369.0,486.0,11.0,125.0,120.0,113,43,99,88,129
2025-03-20 15:34:39.037,-657.0,1290.0,70.0,33.0,82.0,87.0,110,41,97,79,127
2025-03-20 15:34:39.063,-944.0,2166.0,-192.0,-70.0,54.0,42.0,110,34,98,92,128
2025-03-20 15:34:39.087,-1842.0,2793.0,-1165.0,-42.0,47.0,-84.0,109,33,98,90,127
2025-03-20 15:34:39.112,-2721.0,4060.0,-2060.0,80.0,-238.0,-333.0,110,46,96,78,131
2025-03-20 15:34:39.132,90.0,2798.0,-1152.0,-77.0,-665.0,-502.0,109,44,95,92,130
2025-03-20 15:34:39.157,4235.0,-2379.0,2548.0,-60.0,-501.0,-304.0,110,42,98,86,114
2025-03-20 15:34:39.181,3801.0,-2923.0,3681.0,-5.0,62.0,-71.0,137,56,120,113,151
2025-03-20 15:34:39.204,2045.0,-2590.0,3459.0,33.0,165.0,61.0,143,70,131,133,162
2025-03-20 15:34:39.231,145.0,-1131.0,1383.0,-175.0,159.0,172.0,113,40,99,101,130
2025-03-20 15:34:39.254,-790.0,-55.0,1374.0,-100.0,104.0,190.0,115,47,109,102,135
2025-03-20 15:34:39.279,-510.0,716.0,1401.0,-150.0,203.0,183.0,119,48,110,103,132
2025-03-20 15:34:39.300,-701.0,415.0,1156.0,-253.0,248.0,190.0,136,62,125,107,140
2025-03-20 15:34:39.325,-422.0,-276.0,655.0,-163.0,232.0,168.0,131,47,119,72,105
2025-03-20 15:34:39.350,-385.0,180.0,583.0,-23.0,268.0,156.0,135,58,127,67,107
2025-03-20 15:34:39.374,-793.0,266.0,617.0,-37.0,269.0,176.0,144,76,144,93,98
2025-03-20 15:34:39.398,-479.0,513.0,503.0,-23.0,300.0,142.0,141,82,141,62,84
2025-03-20 15:34:39.422,-476.0,404.0,304.0,-40.0,311.0,130.0,140,77,138,81,80
2025-03-20 15:34:39.447,-655.0,626.0,-364.0,-18.0,289.0,80.0,130,77,131,70,63
2025-03-20 15:34:39.472,-1078.0,1132.0,-1292.0,-102.0,130.0,-52.0,130,83,136,65,58
2025-03-20 15:34:39.493,-645.0,2083.0,-1673.0,-80.0,-32.0,-241.0,131,78,143,68,53
2025-03-20 15:34:39.518,-357.0,2508.0,-2753.0,-167.0,-302.0,-462.0,131,96,152,52,47
2025-03-20 15:34:39.542,523.0,2426.0,-3365.0,-104.0,-627.0,-674.0,127,96,153,44,48
2025-03-20 15:34:39.566,1947.0,672.0,-2491.0,54.0,-926.0,-683.0,120,108,157,58,55
2025-03-20 15:34:39.590,4849.0,102.0,7.0,-3.0,-992.0,-623.0,110,97,156,83,57
2025-03-20 15:34:39.616,5974.0,-4632.0,3958.0,-62.0,-332.0,-153.0,109,55,152,84,59
2025-03-20 15:34:39.637,3230.0,-3938.0,3112.0,134.0,196.0,78.0,103,74,142,75,48
2025-03-20 15:34:39.661,673.0,-2111.0,1756.0,-45.0,153.0,156.0,102,93,142,84,51
2025-03-20 15:34:39.685,344.0,-1602.0,1395.0,-59.0,163.0,203.0,93,84,142,87,50
2025-03-20 15:34:39.710,-38.0,-835.0,1205.0,16.0,225.0,175.0,108,108,153,96,64
2025-03-20 15:34:39.734,-74.0,-560.0,818.0,28.0,220.0,154.0,117,98,156,94,64
2025-03-20 15:34:39.759,-39.0,-434.0,692.0,-17.0,183.0,132.0,111,121,158,95,65
2025-03-20 15:34:39.783,-13.0,-442.0,517.0,6.0,180.0,131.0,119,125,159,99,66
2025-03-20 15:34:39.804,-33.0,-280.0,433.0,55.0,225.0,150.0,123,123,159,99,66
2025-03-20 15:34:39.828,-336.0,247.0,197.0,-11.0,216.0,147.0,122,123,156,95,65
2025-03-20 15:34:39.851,-339.0,86.0,234.0,-25.0,182.0,102.0,113,114,149,86,56
2025-03-20 15:34:39.875,-338.0,106.0,72.0,31.0,180.0,79.0,112,115,148,91,57
2025-03-20 15:34:39.899,-767.0,1025.0,-612.0,-19.0,149.0,63.0,110,117,151,91,58
2025-03-20 15:34:39.916,-1195.0,1540.0,-1749.0,36.0,-6.0,-59.0,112,116,154,86,58
2025-03-20 15:34:39.948,-1471.0,3037.0,-3341.0,207.0,-362.0,-355.0,110,123,155,87,61
2025-03-20 15:34:39.972,192.0,2226.0,-2649.0,33.0,-891.0,-579.0,116,125,156,94,63
2025-03-20 15:34:39.997,4979.0,-1015.0,574.0,-45.0,-1020.0,-541.0,118,121,154,90,64
2025-03-20 15:34:40.021,6256.0,-4818.0,4524.0,164.0,-125.0,-96.0,120,101,151,88,68
2025-03-20 15:34:40.044,2610.0,-2660.0,3294.0,231.0,355.0,49.0,106,83,144,80,54
2025-03-20 15:34:40.069,668.0,-1669.0,1486.0,-51.0,264.0,128.0,108,100,148,77,59
2025-03-20 15:34:40.095,402.0,-1498.0,1084.0,67.0,277.0,152.0,101,97,142,84,58
2025-03-20 15:34:40.118,-218.0,-588.0,428.0,192.0,294.0,143.0,116,87,147,55,65
2025-03-20 15:34:40.143,-376.0,-519.0,398.0,202.0,227.0,141.0,127,102,150,85,76
2025-03-20 15:34:40.165,-31.0,-442.0,307.0,185.0,179.0,159.0,132,83,148,86,85
2025-03-20 15:34:40.189,90.0,-636.0,229.0,191.0,165.0,210.0,133,79,143,96,103
2025-03-20 15:34:40.214,-164.0,134.0,270.0,156.0,101.0,216.0,133,64,132,79,80
2025-03-20 15:34:40.238,-218.0,183.0,20.0,89.0,28.0,182.0,134,58,127,96,86
2025-03-20 15:34:40.262,-81.0,-149.0,554.0,86.0,-9.0,184.0,128,36,112,94,97
2025-03-20 15:34:40.287,-124.0,438.0,475.0,145.0,9.0,182.0,128,37,105,94,105
2025-03-20 15:34:40.308,-503.0,877.0,482.0,161.0,22.0,133.0,128,41,103,95,107
2025-03-20 15:34:40.333,-872.0,1612.0,176.0,125.0,-1.0,76.0,126,40,99,97,112
2025-03-20 15:34:40.358,-1542.0,2720.0,-268.0,132.0,-33.0,-33.0,124,45,98,96,115
2025-03-20 15:34:40.371,-2096.0,3414.0,-1072.0,173.0,-102.0,-223.0,123,46,98,100,121
2025-03-20 15:34:40.407,-1938.0,3604.0,-1663.0,187.0,-329.0,-386.0,122,47,93,98,122
2025-03-20 15:34:40.430,891.0,1754.0,210.0,133.0,-553.0,-395.0,122,41,100,99,124
2025-03-20 15:34:40.455,3520.0,-487.0,3209.0,25.0,-425.0,-256.0,125,51,104,98,126
2025-03-20 15:34:40.480,3759.0,-2432.0,3593.0,-87.0,-78.0,-84.0,125,35,101,92,119
2025-03-20 15:34:40.501,2446.0,-2341.0,2353.0,-108.0,83.0,88.0,121,36,99,95,121
2025-03-20 15:34:40.526,863.0,-872.0,1828.0,-63.0,177.0,150.0,123,35,99,88,120
2025-03-20 15:34:40.550,-108.0,435.0,1065.0,-42.0,110.0,177.0,139,80,138,128,155
2025-03-20 15:34:40.572,-497.0,490.0,732.0,-59.0,155.0,154.0,131,74,129,122,142
2025-03-20 15:34:40.599,-772.0,929.0,605.0,-54.0,132.0,125.0,128,47,112,104,128
2025-03-20 15:34:40.623,-728.0,874.0,436.0,-21.0,123.0,84.0,123,46,110,104,128
2025-03-20 15:34:40.647,-459.0,800.0,488.0,11.0,100.0,62.0,124,50,110,102,129
2025-03-20 15:34:40.669,-400.0,766.0,508.0,4.0,79.0,48.0,121,48,105,98,121
2025-03-20 15:34:40.693,-398.0,601.0,520.0,4.0,51.0,38.0,124,49,111,98,123
2025-03-20 15:34:40.718,-288.0,487.0,578.0,14.0,46.0,43.0,123,46,110,98,123
2025-03-20 15:34:40.742,-459.0,951.0,506.0,18.0,46.0,49.0,125,50,113,86,124
2025-03-20 15:34:40.766,-1055.0,1789.0,-31.0,-43.0,43.0,1.0,127,46,110,96,125
2025-03-20 15:34:40.791,-1938.0,2532.0,-1330.0,-11.0,57.0,-119.0,127,39,113,92,126
2025-03-20 15:34:40.816,-2406.0,2919.0,-2526.0,117.0,-210.0,-276.0,126,50,113,85,129
2025-03-20 15:34:40.837,-30.0,2161.0,-1428.0,45.0,-616.0,-339.0,122,54,108,95,130
2025-03-20 15:34:40.861,3553.0,-1063.0,2609.0,16.0,-581.0,-201.0,125,52,112,95,129
2025-03-20 15:34:40.886,3988.0,-2047.0,4396.0,-21.0,-129.0,-41.0,131,37,114,100,126
2025-03-20 15:34:40.906,2788.0,-1931.0,3272.0,-118.0,179.0,66.0,133,45,115,93,127
2025-03-20 15:34:40.935,808.0,-914.0,2110.0,-114.0,263.0,123.0,135,55,117,99,127
2025-03-20 15:34:40.959,-67.0,10.0,1796.0,-198.0,265.0,136.0,134,77,138,119,144
2025-03-20 15:34:40.983,-561.0,496.0,1599.0,-242.0,233.0,149.0,139,70,134,117,143
2025-03-20 15:34:41.003,-310.0,430.0,1373.0,-271.0,291.0,151.0,142,70,130,103,138
2025-03-20 15:34:41.029,-296.0,462.0,1047.0,-251.0,343.0,150.0,146,62,127,106,132
2025-03-20 15:34:41.053,-304.0,204.0,1069.0,-146.0,402.0,110.0,149,67,125,88,90
2025-03-20 15:34:41.075,-203.0,536.0,546.0,-100.0,438.0,97.0,138,56,114,71,89
2025-03-20 15:34:41.102,-661.0,601.0,95.0,-215.0,379.0,115.0,137,57,108,84,93
2025-03-20 15:34:41.127,-479.0,151.0,-78.0,-191.0,294.0,91.0,134,51,105,80,76
2025-03-20 15:34:41.148,-410.0,334.0,-72.0,-135.0,256.0,76.0,134,59,102,78,67
2025-03-20 15:34:41.172,-366.0,963.0,-825.0,-105.0,188.0,38.0,143,59,107,83,65
2025-03-20 15:34:41.197,230.0,2100.0,-1888.0,-106.0,64.0,-52.0,139,56,101,82,59
2025-03-20 15:34:41.213,-180.0,3075.0,-3578.0,-25.0,-137.0,-342.0,133,53,99,86,59
2025-03-20 15:34:41.245,-70.0,3769.0,-4482.0,-34.0,-561.0,-729.0,125,49,99,77,54
2025-03-20 15:34:41.270,2559.0,2416.0,-3898.0,13.0,-1149.0,-992.0,122,42,95,73,48
2025-03-20 15:34:41.295,9485.0,-3972.0,5001.0,373.0,-920.0,-442.0,94,5,88,64,43
2025-03-20 15:34:41.319,4508.0,-3057.0,5665.0,277.0,79.0,-52.0,91,42,82,74,45
2025-03-20 15:34:41.340,456.0,-2337.0,2929.0,-173.0,26.0,99.0,89,44,81,75,49
2025-03-20 15:34:41.365,442.0,-2472.0,2170.0,-324.0,106.0,125.0,96,45,85,71,52
2025-03-20 15:34:41.389,-294.0,-1999.0,1072.0,-108.0,162.0,208.0,113,62,102,92,67
2025-03-20 15:34:41.414,-486.0,-397.0,773.0,-41.0,163.0,167.0,121,62,105,96,71
2025-03-20 15:34:41.438,-308.0,-618.0,676.0,-170.0,159.0,138.0,115,57,104,91,67
2025-03-20 15:34:41.463,-75.0,-1023.0,521.0,-116.0,164.0,180.0,118,53,106,94,65
2025-03-20 15:34:41.487,-54.0,-822.0,532.0,-39.0,162.0,224.0,116,60,103,89,64
2025-03-20 15:34:41.506,11.0,-304.0,433.0,36.0,188.0,212.0,111,52,98,84,57
2025-03-20 15:34:41.533,-124.0,-160.0,208.0,25.0,240.0,211.0,106,49,94,80,51
2025-03-20 15:34:41.558,-319.0,-117.0,23.0,17.0,224.0,221.0,111,54,101,82,60
2025-03-20 15:34:41.582,-403.0,2.0,-129.0,-1.0,190.0,248.0,121,62,107,91,69
2025-03-20 15:34:41.607,-258.0,191.0,-109.0,46.0,184.0,331.0,124,34,110,91,71
2025-03-20 15:34:41.631,209.0,1197.0,-954.0,295.0,188.0,329.0,129,46,112,89,71
2025-03-20 15:34:41.655,-1178.0,5020.0,-3655.0,295.0,33.0,-124.0,128,56,105,89,63
2025-03-20 15:34:41.679,-572.0,4715.0,-5034.0,-89.0,-571.0,-777.0,121,53,101,77,63
2025-03-20 15:34:41.701,2815.0,3666.0,-4078.0,3.0,-1222.0,-1123.0,110,44,91,68,51
2025-03-20 15:34:41.726,10202.0,-5035.0,4881.0,355.0,-1073.0,-410.0,96,30,96,79,54
2025-03-20 15:34:41.748,5835.0,-3213.0,5437.0,415.0,304.0,-67.0,96,51,93,73,56
2025-03-20 15:34:41.772,-312.0,-847.0,1354.0,-41.0,140.0,41.0,92,49,85,78,53
2025-03-20 15:34:41.796,-64.0,-2059.0,794.0,-268.0,79.0,18.0,111,56,101,94,68
2025-03-20 15:34:41.823,-941.0,-887.0,359.0,-14.0,60.0,24.0,108,69,106,98,74
2025-03-20 15:34:41.845,-547.0,-647.0,532.0,-47.0,7.0,-12.0,102,58,96,85,62
2025-03-20 15:34:41.869,-18.0,-667.0,912.0,-66.0,4.0,-15.0,98,53,93,83,59
2025-03-20 15:34:41.893,166.0,-1163.0,827.0,-18.0,50.0,11.0,97,52,89,81,55
2025-03-20 15:34:41.910,-72.0,-642.0,513.0,69.0,57.0,34.0,96,49,88,79,60
2025-03-20 15:34:41.941,-248.0,-353.0,450.0,3.0,19.0,13.0,96,50,87,77,53
2025-03-20 15:34:41.967,-112.0,-636.0,620.0,-21.0,9.0,3.0,98,51,88,79,54
2025-03-20 15:34:41.990,-89.0,-712.0,662.0,4.0,12.0,8.0,100,55,93,84,60
2025-03-20 15:34:42.012,-167.0,-624.0,658.0,19.0,17.0,4.0,101,54,93,84,59
2025-03-20 15:34:42.036,-142.0,-647.0,596.0,-6.0,-4.0,-1.0,102,54,92,85,60
2025-03-20 15:34:42.061,-104.0,-690.0,667.0,-24.0,-11.0,1.0,105,58,92,88,61
2025-03-20 15:34:42.086,-2.0,-917.0,722.0,34.0,22.0,11.0,111,64,101,94,68
2025-03-20 15:34:42.110,-153.0,-636.0,538.0,42.0,21.0,19.0,98,51,89,80,56
2025-03-20 15:34:42.129,-241.0,-472.0,659.0,3.0,0.0,4.0,100,53,89,80,55
2025-03-20 15:34:42.159,-260.0,-628.0,762.0,-20.0,-15.0,-5.0,100,56,90,81,53
2025-03-20 15:34:42.180,-137.0,-757.0,841.0,-8.0,-2.0,-5.0,104,56,94,84,59
2025-03-20 15:34:42.203,-199.0,-749.0,712.0,-7.0,-2.0,0.0,101,53,90,81,57
2025-03-20 15:34:42.229,-227.0,-661.0,665.0,-9.0,-11.0,-5.0,101,50,90,82,55
2025-03-20 15:34:42.252,-114.0,-801.0,745.0,4.0,1.0,-4.0,101,53,88,80,56
2025-03-20 15:34:42.278,-112.0,-778.0,794.0,5.0,12.0,4.0,100,53,90,81,56
2025-03-20 15:34:42.303,-220.0,-689.0,713.0,3.0,2.0,4.0,100,52,89,80,56
2025-03-20 15:34:42.324,-159.0,-770.0,732.0,0.0,-4.0,2.0,98,49,87,79,53
2025-03-20 15:34:42.348,-173.0,-713.0,757.0,4.0,2.0,3.0,106,53,93,84,59
2025-03-20 15:34:42.371,-172.0,-705.0,756.0,-2.0,2.0,0.0,104,55,93,84,59
2025-03-20 15:34:42.397,-170.0,-681.0,702.0,-4.0,-3.0,2.0,102,53,87,83,57
2025-03-20 15:34:42.407,-167.0,-679.0,698.0,-2.0,1.0,-2.0,102,53,90,82,57
2025-03-20 15:34:42.445,-150.0,-726.0,695.0,2.0,-4.0,0.0,105,55,92,82,58
2025-03-20 15:34:42.471,-115.0,-746.0,747.0,8.0,1.0,4.0,109,59,97,88,62
2025-03-20 15:34:42.495,-156.0,-694.0,713.0,4.0,0.0,7.0,108,59,96,88,63
2025-03-20 15:34:42.516,-227.0,-642.0,706.0,-4.0,-4.0,3.0,102,52,85,82,54
2025-03-20 15:34:42.541,-187.0,-652.0,733.0,-1.0,-5.0,-4.0,103,54,91,83,57
2025-03-20 15:34:42.565,-161.0,-657.0,735.0,-8.0,-4.0,-5.0,103,54,92,83,58
2025-03-20 15:34:42.590,-126.0,-769.0,737.0,-16.0,-5.0,-3.0,104,54,92,83,58
2025-03-20 15:34:42.613,-126.0,-786.0,739.0,8.0,7.0,6.0,108,59,96,87,61
2025-03-20 15:34:42.638,-193.0,-660.0,729.0,10.0,9.0,5.0,108,59,96,87,62
2025-03-20 15:34:42.662,-216.0,-635.0,724.0,-5.0,2.0,-3.0,107,58,94,87,61
2025-03-20 15:34:42.681,-157.0,-753.0,730.0,1.0,5.0,1.0,109,59,97,88,63
2025-03-20 15:34:42.708,-178.0,-707.0,715.0,6.0,7.0,3.0,109,59,98,88,62
2025-03-20 15:34:42.732,-211.0,-642.0,697.0,-6.0,1.0,-2.0,102,53,90,82,56
2025-03-20 15:34:42.757,-182.0,-750.0,733.0,-11.0,-5.0,-2.0,104,53,91,80,56
2025-03-20 15:34:42.781,-168.0,-704.0,750.0,5.0,5.0,2.0,104,54,91,82,57
2025-03-20 15:34:42.806,-221.0,-648.0,696.0,-1.0,4.0,-2.0,104,54,91,83,57
2025-03-20 15:34:42.831,-190.0,-697.0,690.0,-15.0,-7.0,-4.0,105,55,89,84,58
2025-03-20 15:34:42.851,-132.0,-798.0,728.0,7.0,1.0,4.0,107,58,96,87,61
2025-03-20 15:34:42.875,-177.0,-668.0,708.0,2.0,2.0,2.0,111,62,99,91,65
2025-03-20 15:34:42.901,-204.0,-671.0,713.0,-10.0,-3.0,1.0,111,62,99,90,65
2025-03-20 15:34:42.925,-171.0,-757.0,735.0,2.0,5.0,1.0,113,63,100,91,67
2025-03-20 15:34:42.950,-201.0,-660.0,689.0,6.0,3.0,3.0,107,57,94,86,62
2025-03-20 15:34:42.974,-171.0,-709.0,723.0,-2.0,-2.0,2.0,104,55,95,85,60
2025-03-20 15:34:42.999,-205.0,-681.0,710.0,-1.0,-1.0,2.0,107,57,95,86,62
2025-03-20 15:34:43.023,-189.0,-703.0,750.0,-5.0,-2.0,0.0,112,63,100,92,68
2025-03-20 15:34:43.044,-212.0,-666.0,730.0,3.0,2.0,2.0,112,63,100,92,68
2025-03-20 15:34:43.069,-189.0,-691.0,722.0,6.0,4.0,0.0,114,65,101,97,69
2025-03-20 15:34:43.092,-183.0,-689.0,718.0,-6.0,-2.0,-1.0,112,63,99,92,66
2025-03-20 15:34:43.117,-177.0,-732.0,729.0,0.0,-1.0,3.0,113,64,101,93,69
2025-03-20 15:34:43.142,-213.0,-646.0,723.0,3.0,2.0,1.0,103,54,91,79,57
2025-03-20 15:34:43.167,-215.0,-649.0,712.0,0.0,4.0,-3.0,105,55,93,84,59
2025-03-20 15:34:43.189,-179.0,-741.0,718.0,-3.0,2.0,-1.0,106,61,93,85,60
2025-03-20 15:34:43.212,-188.0,-709.0,713.0,0.0,2.0,1.0,106,58,93,85,62
2025-03-20 15:34:43.237,-194.0,-691.0,712.0,-4.0,1.0,0.0,108,60,97,89,64
2025-03-20 15:34:43.261,-213.0,-701.0,704.0,1.0,2.0,1.0,113,64,100,93,67
2025-03-20 15:34:43.285,-226.0,-666.0,700.0,-2.0,-3.0,-2.0,112,63,99,92,66
2025-03-20 15:34:43.310,-208.0,-675.0,714.0,-9.0,-6.0,-4.0,112,62,99,91,66
2025-03-20 15:34:43.335,-150.0,-781.0,739.0,1.0,2.0,0.0,113,64,100,92,67
2025-03-20 15:34:43.353,-195.0,-715.0,702.0,8.0,5.0,3.0,105,55,91,84,58
2025-03-20 15:34:43.377,-243.0,-624.0,702.0,-3.0,-2.0,-1.0,105,55,93,86,59
2025-03-20 15:34:43.404,-213.0,-690.0,729.0,-5.0,-5.0,-3.0,105,56,93,84,59
2025-03-20 15:34:43.426,-158.0,-761.0,734.0,-5.0,-1.0,-2.0,110,60,97,89,65
2025-03-20 15:34:43.450,-194.0,-697.0,699.0,1.0,-2.0,1.0,110,60,98,90,65
2025-03-20 15:34:43.478,-192.0,-739.0,720.0,-1.0,-3.0,1.0,113,63,100,92,67
2025-03-20 15:34:43.503,-195.0,-693.0,744.0,1.0,0.0,3.0,112,64,100,92,67
2025-03-20 15:34:43.523,-221.0,-685.0,728.0,-2.0,1.0,1.0,114,65,101,93,68
2025-03-20 15:34:43.549,-210.0,-703.0,727.0,-1.0,0.0,1.0,102,55,92,86,59
2025-03-20 15:34:43.571,-203.0,-676.0,738.0,-1.0,-1.0,1.0,106,56,94,85,60
2025-03-20 15:34:43.595,-198.0,-693.0,736.0,-6.0,-1.0,1.0,106,55,93,85,59
2025-03-20 15:34:43.620,-205.0,-701.0,740.0,-2.0,4.0,2.0,106,56,94,85,60
2025-03-20 15:34:43.646,-229.0,-667.0,705.0,3.0,2.0,0.0,110,61,97,89,65
2025-03-20 15:34:43.668,-207.0,-679.0,723.0,-4.0,-2.0,-1.0,112,62,103,91,66
2025-03-20 15:34:43.692,-181.0,-729.0,740.0,-2.0,2.0,1.0,114,64,101,93,67
2025-03-20 15:34:43.716,-206.0,-706.0,716.0,1.0,3.0,2.0,115,65,102,94,67
2025-03-20 15:34:43.741,-230.0,-683.0,717.0,-1.0,2.0,1.0,114,64,101,93,68
2025-03-20 15:34:43.765,-231.0,-658.0,715.0,-3.0,1.0,-1.0,104,53,91,83,58
2025-03-20 15:34:43.789,-196.0,-702.0,728.0,-1.0,3.0,-1.0,104,51,90,83,57
2025-03-20 15:34:43.814,-209.0,-709.0,709.0,-4.0,2.0,0.0,105,53,91,83,58
2025-03-20 15:34:43.838,-221.0,-699.0,699.0,3.0,4.0,2.0,106,55,93,85,60
2025-03-20 15:34:43.863,-241.0,-646.0,680.0,-1.0,-1.0,0.0,108,58,94,85,60
2025-03-20 15:34:43.884,-216.0,-691.0,705.0,-9.0,-7.0,-3.0,108,58,95,87,61
2025-03-20 15:34:43.909,-181.0,-727.0,742.0,3.0,2.0,2.0,109,58,95,88,63
2025-03-20 15:34:43.933,-231.0,-666.0,686.0,-1.0,2.0,-2.0,108,58,95,86,60
2025-03-20 15:34:43.957,-231.0,-668.0,705.0,-9.0,-5.0,-3.0,104,52,89,82,56
2025-03-20 15:34:43.982,-189.0,-757.0,720.0,8.0,3.0,2.0,105,55,92,84,58
