timestamp,ax,ay,az,gx,gy,gz,flex1,flex2,flex3,flex4,flex5,emg1,emg2,emg3
2025-03-20 15:48:54.582,-617.0,164.0,797.0,-1.0,-1.0,0.0,138,91,136,107,110
2025-03-20 15:48:54.582,-618.0,170.0,801.0,0.0,-1.0,0.0,138,90,137,107,111
2025-03-20 15:48:54.593,-616.0,175.0,811.0,0.0,-1.0,0.0,138,91,138,107,110
2025-03-20 15:48:54.595,-627.0,172.0,817.0,-1.0,-1.0,-1.0,137,91,136,107,111
2025-03-20 15:48:54.597,-621.0,171.0,818.0,0.0,0.0,-1.0,138,90,136,105,110
2025-03-20 15:48:54.597,-615.0,165.0,806.0,0.0,2.0,-1.0,137,90,137,107,110
2025-03-20 15:48:54.600,-614.0,171.0,802.0,-1.0,-1.0,0.0,137,89,136,107,110
2025-03-20 15:48:54.604,-614.0,165.0,800.0,-1.0,-1.0,0.0,137,90,136,106,110
2025-03-20 15:48:54.606,-615.0,180.0,812.0,3.0,1.0,0.0,138,90,136,107,110
2025-03-20 15:48:54.610,-607.0,186.0,808.0,-2.0,2.0,-2.0,139,90,136,107,111
2025-03-20 15:48:54.612,-609.0,158.0,785.0,-1.0,0.0,-2.0,139,91,136,106,111
2025-03-20 15:48:54.615,-605.0,169.0,795.0,0.0,-1.0,-1.0,138,90,137,107,111
2025-03-20 15:48:54.638,-603.0,173.0,795.0,-3.0,0.0,-2.0,137,91,137,107,111
2025-03-20 15:48:54.662,-604.0,162.0,780.0,-1.0,-1.0,-1.0,137,90,135,106,109
2025-03-20 15:48:54.687,-604.0,167.0,795.0,-1.0,-2.0,-1.0,137,91,129,107,110
2025-03-20 15:48:54.710,-602.0,172.0,799.0,-4.0,-2.0,-1.0,137,91,136,108,110
2025-03-20 15:48:54.735,-608.0,160.0,789.0,-2.0,-1.0,0.0,138,91,136,106,113
2025-03-20 15:48:54.755,-613.0,186.0,808.0,0.0,-2.0,0.0,138,90,136,105,111
2025-03-20 15:48:54.773,-626.0,189.0,803.0,-2.0,-2.0,-1.0,139,90,137,107,110
2025-03-20 15:48:54.795,-614.0,184.0,808.0,-2.0,-1.0,-1.0,138,92,136,105,111
2025-03-20 15:48:54.817,-623.0,183.0,812.0,0.0,-1.0,-1.0,138,91,137,107,111
2025-03-20 15:48:54.853,-625.0,187.0,806.0,-1.0,-1.0,-2.0,137,90,135,105,109
2025-03-20 15:48:54.880,-618.0,177.0,815.0,-2.0,0.0,-2.0,137,89,136,107,110
2025-03-20 15:48:54.901,-618.0,169.0,805.0,0.0,0.0,-1.0,137,90,136,107,110
2025-03-20 15:48:54.926,-618.0,167.0,810.0,-1.0,-1.0,-1.0,138,92,137,106,111
2025-03-20 15:48:54.949,-615.0,161.0,798.0,0.0,0.0,-1.0,138,91,138,108,110
2025-03-20 15:48:54.974,-625.0,166.0,799.0,1.0,1.0,-1.0,137,91,137,107,109
2025-03-20 15:48:54.999,-615.0,171.0,798.0,0.0,-1.0,-1.0,138,92,137,107,111
2025-03-20 15:48:55.023,-611.0,166.0,784.0,-2.0,-1.0,-1.0,138,91,136,107,111
2025-03-20 15:48:55.045,-609.0,149.0,785.0,0.0,-1.0,0.0,138,91,137,107,109
2025-03-20 15:48:55.072,-615.0,176.0,800.0,2.0,-1.0,1.0,138,90,137,105,108
2025-03-20 15:48:55.092,-622.0,181.0,793.0,0.0,-3.0,0.0,137,90,136,107,109
2025-03-20 15:48:55.117,-609.0,168.0,810.0,-1.0,-3.0,-1.0,138,91,135,107,110
2025-03-20 15:48:55.142,-608.0,164.0,801.0,-1.0,-2.0,0.0,140,91,136,103,109
2025-03-20 15:48:55.166,-608.0,182.0,809.0,-1.0,-1.0,0.0,136,91,137,110,110
2025-03-20 15:48:55.191,-618.0,184.0,794.0,-3.0,-2.0,-1.0,138,90,136,107,110
2025-03-20 15:48:55.215,-610.0,170.0,806.0,-2.0,-1.0,-1.0,138,90,137,106,111
2025-03-20 15:48:55.240,-620.0,180.0,805.0,0.0,-2.0,-1.0,137,92,135,106,111
2025-03-20 15:48:55.264,-612.0,181.0,811.0,-2.0,-2.0,-1.0,141,91,135,107,110
2025-03-20 15:48:55.285,-606.0,169.0,820.0,-1.0,-2.0,-1.0,137,96,139,107,107
2025-03-20 15:48:55.307,-615.0,180.0,825.0,2.0,-1.0,0.0,137,91,136,106,109
2025-03-20 15:48:55.334,-614.0,183.0,807.0,-2.0,0.0,-1.0,136,91,135,106,109
2025-03-20 15:48:55.359,-613.0,174.0,798.0,-3.0,-1.0,-1.0,138,90,137,108,111
2025-03-20 15:48:55.383,-607.0,171.0,809.0,-1.0,-1.0,-1.0,138,90,136,107,110
2025-03-20 15:48:55.408,-608.0,172.0,806.0,1.0,-1.0,0.0,138,92,140,107,110
2025-03-20 15:48:55.429,-617.0,179.0,816.0,-2.0,0.0,0.0,138,89,136,107,110
2025-03-20 15:48:55.454,-619.0,179.0,803.0,-2.0,1.0,-1.0,138,91,137,108,111
2025-03-20 15:48:55.478,-619.0,183.0,799.0,0.0,0.0,-1.0,137,90,135,106,109
2025-03-20 15:48:55.503,-612.0,188.0,797.0,-1.0,-1.0,-1.0,138,90,136,105,109
2025-03-20 15:48:55.527,-609.0,174.0,793.0,-2.0,-1.0,-1.0,138,87,136,106,111
2025-03-20 15:48:55.552,-604.0,179.0,805.0,1.0,-2.0,-1.0,137,91,136,106,110
2025-03-20 15:48:55.576,-605.0,186.0,797.0,-2.0,1.0,-3.0,137,90,136,107,111
2025-03-20 15:48:55.600,-612.0,163.0,778.0,-2.0,-2.0,-1.0,138,91,136,107,111
2025-03-20 15:48:55.622,-609.0,167.0,795.0,-1.0,-3.0,-1.0,139,92,136,107,111
2025-03-20 15:48:55.646,-608.0,182.0,807.0,-4.0,-3.0,-1.0,138,92,140,107,110
2025-03-20 15:48:55.670,-614.0,174.0,801.0,-3.0,-3.0,-1.0,138,91,136,107,111
2025-03-20 15:48:55.695,-622.0,176.0,796.0,-2.0,-3.0,-1.0,137,90,136,107,110
2025-03-20 15:48:55.719,-623.0,183.0,820.0,0.0,-3.0,-2.0,137,90,136,107,110
2025-03-20 15:48:55.744,-605.0,185.0,827.0,-2.0,-1.0,-3.0,137,89,135,106,110
2025-03-20 15:48:55.767,-602.0,177.0,804.0,-4.0,-2.0,-3.0,138,91,135,107,110
2025-03-20 15:48:55.789,-586.0,172.0,814.0,-3.0,-1.0,-3.0,137,91,137,107,110
2025-03-20 15:48:55.810,-605.0,161.0,798.0,0.0,-1.0,-2.0,138,91,137,106,109
2025-03-20 15:48:55.838,-610.0,176.0,800.0,-3.0,-3.0,-2.0,138,91,136,107,111
2025-03-20 15:48:55.863,-615.0,176.0,801.0,0.0,-6.0,-2.0,140,92,136,107,110
2025-03-20 15:48:55.887,-603.0,176.0,842.0,3.0,-3.0,0.0,137,89,135,106,110
2025-03-20 15:48:55.912,-627.0,167.0,821.0,0.0,-1.0,0.0,137,90,136,107,110
2025-03-20 15:48:55.936,-619.0,181.0,816.0,-3.0,-1.0,-2.0,138,90,135,106,110
2025-03-20 15:48:55.958,-605.0,164.0,801.0,-1.0,0.0,-3.0,138,90,135,107,110
2025-03-20 15:48:55.980,-607.0,157.0,788.0,-1.0,0.0,-2.0,137,91,137,106,110
2025-03-20 15:48:56.004,-610.0,142.0,810.0,-1.0,-2.0,-1.0,137,91,137,108,111
2025-03-20 15:48:56.030,-607.0,165.0,833.0,0.0,-2.0,-1.0,138,90,138,107,111
2025-03-20 15:48:56.055,-602.0,159.0,830.0,-5.0,-1.0,-2.0,138,91,136,107,110
2025-03-20 15:48:56.078,-608.0,152.0,808.0,-5.0,1.0,-2.0,138,91,137,107,110
2025-03-20 15:48:56.104,-606.0,154.0,805.0,-4.0,0.0,-1.0,137,89,134,106,110
2025-03-20 15:48:56.125,-605.0,155.0,798.0,-4.0,0.0,-1.0,137,90,136,107,110
2025-03-20 15:48:56.150,-600.0,165.0,800.0,-1.0,-1.0,0.0,137,90,139,106,110
2025-03-20 15:48:56.162,-606.0,165.0,813.0,-1.0,-1.0,0.0,138,90,136,108,110
2025-03-20 15:48:56.199,-606.0,171.0,813.0,-1.0,-1.0,0.0,137,91,136,107,111
2025-03-20 15:48:56.223,-618.0,164.0,800.0,-3.0,-2.0,0.0,138,91,137,107,111
2025-03-20 15:48:56.247,-616.0,171.0,812.0,-2.0,-1.0,0.0,138,91,136,107,110
2025-03-20 15:48:56.272,-592.0,173.0,817.0,-2.0,0.0,-1.0,139,92,137,106,110
2025-03-20 15:48:56.294,-610.0,158.0,808.0,-3.0,-1.0,-1.0,137,90,135,106,109
2025-03-20 15:48:56.318,-596.0,158.0,819.0,-1.0,-1.0,-1.0,138,90,138,106,110
2025-03-20 15:48:56.342,-614.0,167.0,802.0,-1.0,0.0,0.0,137,90,138,106,110
2025-03-20 15:48:56.366,-605.0,179.0,832.0,-3.0,-1.0,-2.0,135,91,135,106,110
2025-03-20 15:48:56.391,-609.0,156.0,820.0,-2.0,0.0,-1.0,138,91,138,107,109
2025-03-20 15:48:56.415,-603.0,173.0,811.0,1.0,-1.0,-1.0,138,90,137,107,110
2025-03-20 15:48:56.440,-603.0,172.0,822.0,-3.0,-1.0,-2.0,141,91,136,106,110
2025-03-20 15:48:56.464,-608.0,161.0,819.0,-1.0,-1.0,-1.0,139,91,136,107,110
2025-03-20 15:48:56.486,-610.0,169.0,826.0,-1.0,0.0,-1.0,138,91,136,106,110
2025-03-20 15:48:56.510,-614.0,166.0,812.0,-2.0,-1.0,-2.0,137,90,134,107,110
2025-03-20 15:48:56.535,-604.0,145.0,808.0,-1.0,-1.0,-1.0,137,91,138,107,109
2025-03-20 15:48:56.549,-598.0,152.0,802.0,-1.0,0.0,0.0,138,88,137,106,113
2025-03-20 15:48:56.584,-607.0,173.0,807.0,-1.0,-2.0,0.0,138,91,135,107,109
2025-03-20 15:48:56.608,-607.0,170.0,819.0,-2.0,0.0,-2.0,138,90,136,105,111
2025-03-20 15:48:56.629,-598.0,146.0,805.0,-1.0,1.0,0.0,138,91,136,107,110
2025-03-20 15:48:56.653,-605.0,165.0,793.0,-1.0,-1.0,-1.0,138,91,136,107,110
2025-03-20 15:48:56.664,-613.0,164.0,813.0,-1.0,-1.0,0.0,136,91,137,107,110
2025-03-20 15:48:56.703,-611.0,166.0,798.0,-1.0,-3.0,0.0,138,91,136,109,109
2025-03-20 15:48:56.727,-600.0,164.0,811.0,-1.0,-3.0,0.0,137,89,137,106,110
2025-03-20 15:48:56.750,-605.0,176.0,826.0,1.0,-2.0,0.0,138,90,136,106,109
2025-03-20 15:48:56.776,-614.0,177.0,827.0,-1.0,-1.0,-1.0,136,90,136,106,109
2025-03-20 15:48:56.800,-606.0,169.0,816.0,-3.0,1.0,-1.0,136,92,136,108,111
2025-03-20 15:48:56.821,-609.0,171.0,811.0,-1.0,-1.0,-2.0,137,90,137,107,109
2025-03-20 15:48:56.846,-602.0,157.0,830.0,1.0,-2.0,-2.0,138,92,138,107,110
2025-03-20 15:48:56.870,-594.0,153.0,825.0,-4.0,0.0,-2.0,139,91,136,107,110
2025-03-20 15:48:56.894,-602.0,145.0,811.0,-2.0,1.0,-1.0,138,91,136,107,110
2025-03-20 15:48:56.919,-602.0,152.0,803.0,1.0,-1.0,-1.0,135,88,136,103,109
2025-03-20 15:48:56.944,-596.0,153.0,836.0,-1.0,0.0,-1.0,138,90,135,106,109
2025-03-20 15:48:56.955,-601.0,148.0,815.0,-2.0,1.0,0.0,138,90,136,106,110
2025-03-20 15:48:56.990,-600.0,167.0,809.0,-1.0,-2.0,-1.0,138,90,137,106,110
2025-03-20 15:48:57.014,-614.0,148.0,803.0,-1.0,-3.0,0.0,138,91,136,107,110
2025-03-20 15:48:57.038,-615.0,167.0,812.0,-2.0,0.0,0.0,138,91,135,108,112
2025-03-20 15:48:57.052,-606.0,177.0,813.0,-1.0,1.0,-1.0,138,91,135,107,110
2025-03-20 15:48:57.088,-603.0,176.0,799.0,-1.0,-1.0,-1.0,137,92,138,107,111
2025-03-20 15:48:57.112,-612.0,172.0,810.0,-1.0,-2.0,-1.0,138,91,136,107,111
2025-03-20 15:48:57.136,-607.0,163.0,821.0,-2.0,-1.0,-1.0,137,90,135,107,110
2025-03-20 15:48:57.157,-602.0,166.0,815.0,-1.0,0.0,-1.0,138,91,135,107,110
2025-03-20 15:48:57.182,-608.0,176.0,822.0,0.0,-2.0,-2.0,138,91,136,107,110
2025-03-20 15:48:57.207,-588.0,145.0,838.0,0.0,-1.0,-2.0,138,90,138,107,111
2025-03-20 15:48:57.231,-599.0,168.0,829.0,0.0,1.0,-1.0,137,90,136,107,111
2025-03-20 15:48:57.255,-585.0,162.0,852.0,-2.0,2.0,-1.0,138,92,137,107,110
2025-03-20 15:48:57.277,-611.0,172.0,813.0,0.0,1.0,-1.0,136,90,137,103,111
2025-03-20 15:48:57.304,-615.0,170.0,799.0,-1.0,0.0,-1.0,139,90,135,108,107
2025-03-20 15:48:57.325,-594.0,161.0,797.0,-2.0,2.0,-1.0,137,89,136,106,110
2025-03-20 15:48:57.350,-621.0,150.0,764.0,0.0,-3.0,0.0,136,90,137,109,110
2025-03-20 15:48:57.375,-613.0,167.0,783.0,-1.0,-4.0,-1.0,138,90,135,107,110
2025-03-20 15:48:57.399,-612.0,155.0,811.0,0.0,-3.0,-1.0,134,91,136,104,108
2025-03-20 15:48:57.422,-602.0,151.0,808.0,-2.0,-2.0,-1.0,138,91,136,107,110
2025-03-20 15:48:57.448,-611.0,153.0,813.0,-1.0,-3.0,-1.0,139,91,135,107,114
2025-03-20 15:48:57.472,-604.0,144.0,819.0,-2.0,-2.0,0.0,137,91,136,108,111
2025-03-20 15:48:57.493,-604.0,155.0,817.0,-4.0,0.0,0.0,138,90,136,108,111
2025-03-20 15:48:57.518,-607.0,165.0,796.0,-2.0,-2.0,0.0,138,91,135,107,111
2025-03-20 15:48:57.542,-611.0,161.0,806.0,-3.0,-4.0,0.0,137,90,135,111,111
2025-03-20 15:48:57.566,-625.0,156.0,792.0,-6.0,-4.0,-1.0,137,91,136,106,110
2025-03-20 15:48:57.592,-623.0,174.0,816.0,-6.0,-5.0,-2.0,138,90,137,106,109
2025-03-20 15:48:57.616,-603.0,164.0,842.0,-7.0,-6.0,-4.0,138,90,136,106,110
2025-03-20 15:48:57.640,-600.0,141.0,836.0,-7.0,-3.0,-2.0,137,90,135,106,110
2025-03-20 15:48:57.662,-613.0,125.0,800.0,-4.0,-3.0,-2.0,138,91,138,108,110
2025-03-20 15:48:57.686,-603.0,112.0,806.0,-4.0,-4.0,-2.0,138,89,133,107,111
2025-03-20 15:48:57.710,-581.0,137.0,838.0,-2.0,-3.0,0.0,138,90,136,109,110
2025-03-20 15:48:57.735,-589.0,140.0,859.0,-2.0,-2.0,0.0,137,89,136,106,109
2025-03-20 15:48:57.757,-596.0,141.0,835.0,-2.0,-2.0,1.0,138,91,136,106,109
2025-03-20 15:48:57.784,-567.0,172.0,806.0,-1.0,-2.0,0.0,137,90,135,106,109
2025-03-20 15:48:57.808,-595.0,152.0,855.0,-5.0,0.0,0.0,138,90,136,107,110
2025-03-20 15:48:57.829,-580.0,160.0,850.0,-4.0,-1.0,1.0,140,92,136,108,110
2025-03-20 15:48:57.840,-587.0,147.0,841.0,0.0,0.0,1.0,138,91,134,107,109
2025-03-20 15:48:57.878,-597.0,143.0,806.0,-4.0,0.0,1.0,138,91,136,107,110
2025-03-20 15:48:57.903,-594.0,157.0,775.0,0.0,-1.0,2.0,141,90,136,107,110
2025-03-20 15:48:57.925,-588.0,171.0,837.0,-6.0,0.0,-2.0,139,90,136,109,109
2025-03-20 15:48:57.952,-573.0,179.0,793.0,-9.0,3.0,-3.0,137,90,138,106,109
2025-03-20 15:48:57.976,-574.0,171.0,820.0,-16.0,5.0,-6.0,136,90,136,105,109
2025-03-20 15:48:58.000,-587.0,163.0,718.0,-37.0,-1.0,-12.0,137,90,135,106,109
2025-03-20 15:48:58.022,-494.0,240.0,633.0,-56.0,3.0,-24.0,137,88,133,107,109
2025-03-20 15:48:58.046,-497.0,346.0,542.0,-85.0,-1.0,-39.0,138,75,125,105,108
2025-03-20 15:48:58.070,-638.0,207.0,-172.0,-129.0,-71.0,-64.0,138,64,119,93,93
2025-03-20 15:48:58.095,-576.0,-64.0,-21.0,-109.0,-159.0,-77.0,136,52,101,64,68
2025-03-20 15:48:58.120,-618.0,-586.0,593.0,-99.0,-260.0,-34.0,123,43,90,56,49
2025-03-20 15:48:58.144,-91.0,-600.0,2081.0,-145.0,-145.0,20.0,123,41,84,56,42
2025-03-20 15:48:58.169,82.0,-1021.0,3403.0,-108.0,121.0,60.0,127,40,79,52,38
2025-03-20 15:48:58.190,-204.0,-678.0,3025.0,-89.0,288.0,79.0,124,39,82,45,38
2025-03-20 15:48:58.214,-461.0,-226.0,2119.0,-257.0,376.0,34.0,120,37,72,51,37
2025-03-20 15:48:58.239,-502.0,-791.0,1036.0,-326.0,377.0,17.0,111,40,71,49,36
2025-03-20 15:48:58.263,-734.0,-816.0,186.0,-272.0,321.0,69.0,108,35,70,46,37
2025-03-20 15:48:58.284,552.0,552.0,552.0,69.0,69.0,69.0,106,31,71,49,38
2025-03-20 15:48:58.309,-325.0,-95.0,11.0,-122.0,237.0,211.0,104,39,71,48,38
2025-03-20 15:48:58.333,-179.0,277.0,-170.0,-91.0,223.0,211.0,108,39,73,50,39
2025-03-20 15:48:58.357,-471.0,908.0,-420.0,-69.0,181.0,152.0,101,38,72,53,40
2025-03-20 15:48:58.382,-377.0,1096.0,-518.0,-85.0,116.0,71.0,111,41,78,55,42
2025-03-20 15:48:58.406,-27.0,1314.0,-704.0,-39.0,89.0,62.0,112,43,75,55,42
2025-03-20 15:48:58.431,127.0,2427.0,-1482.0,90.0,-28.0,26.0,112,44,74,56,43
2025-03-20 15:48:58.451,212.0,212.0,212.0,26.0,26.0,26.0,110,38,69,53,40
2025-03-20 15:48:58.473,212.0,212.0,212.0,26.0,26.0,26.0,108,39,72,53,40
2025-03-20 15:48:58.492,212.0,212.0,212.0,26.0,26.0,26.0,103,40,71,54,41
2025-03-20 15:48:58.521,10086.0,-2660.0,4219.0,305.0,-976.0,-945.0,86,32,78,56,42
2025-03-20 15:48:58.542,-7557.0,-7557.0,-7557.0,-945.0,261.0,-142.0,81,45,87,55,48
2025-03-20 15:48:58.566,1027.0,-3500.0,3060.0,210.0,212.0,268.0,67,43,81,51,41
2025-03-20 15:48:58.590,689.0,-2090.0,2302.0,-261.0,130.0,243.0,75,38,79,55,42
2025-03-20 15:48:58.615,-155.0,-1912.0,1305.0,-97.0,228.0,310.0,107,46,82,61,45
2025-03-20 15:48:58.639,-302.0,-103.0,913.0,-7.0,196.0,316.0,88,44,81,59,46
2025-03-20 15:48:58.661,-542.0,384.0,621.0,-130.0,213.0,186.0,110,41,84,59,48
2025-03-20 15:48:58.685,1489.0,1489.0,1489.0,186.0,186.0,186.0,107,49,87,67,54
2025-03-20 15:48:58.706,1489.0,1489.0,1489.0,186.0,186.0,186.0,97,44,84,59,47
2025-03-20 15:48:58.730,1489.0,1489.0,1489.0,186.0,186.0,186.0,115,49,89,66,55
2025-03-20 15:48:58.751,1489.0,1489.0,1489.0,186.0,186.0,186.0,100,39,79,59,42
2025-03-20 15:48:58.771,1489.0,1489.0,1489.0,186.0,186.0,186.0,105,42,83,60,44
2025-03-20 15:48:58.795,1489.0,1489.0,1489.0,186.0,186.0,186.0,97,39,81,57,42
2025-03-20 15:48:58.816,1489.0,1489.0,1489.0,186.0,186.0,186.0,103,44,82,61,46
2025-03-20 15:48:58.837,1489.0,1489.0,1489.0,186.0,186.0,186.0,115,47,86,65,51
2025-03-20 15:48:58.861,1489.0,1489.0,1489.0,186.0,186.0,186.0,115,48,79,59,47
2025-03-20 15:48:58.882,1489.0,1489.0,1489.0,186.0,186.0,186.0,104,43,77,59,45
2025-03-20 15:48:58.903,1489.0,1489.0,1489.0,186.0,186.0,186.0,101,41,74,55,43
2025-03-20 15:48:58.927,9047.0,637.0,-3175.0,-190.0,-1334.0,-1196.0,93,39,76,56,43
2025-03-20 15:48:58.951,10436.0,-10449.0,5521.0,103.0,154.0,6.0,81,42,85,49,44
2025-03-20 15:48:58.976,2309.0,-4163.0,359.0,376.0,401.0,114.0,94,35,85,47,46
2025-03-20 15:48:59.000,105.0,-1275.0,1210.0,-201.0,104.0,272.0,84,34,82,39,48
2025-03-20 15:48:59.024,263.0,-2286.0,1414.0,-164.0,126.0,307.0,106,35,81,52,45
2025-03-20 15:48:59.046,57.0,-819.0,1260.0,46.0,194.0,358.0,91,30,81,56,44
2025-03-20 15:48:59.070,-320.0,503.0,669.0,-51.0,264.0,204.0,99,40,81,58,46
2025-03-20 15:48:59.095,-673.0,-217.0,342.0,-210.0,203.0,153.0,98,40,80,54,45
2025-03-20 15:48:59.120,-333.0,-849.0,520.0,-215.0,111.0,205.0,110,41,81,55,45
2025-03-20 15:48:59.143,-130.0,-199.0,329.0,12.0,149.0,226.0,119,40,81,56,46
2025-03-20 15:48:59.168,-587.0,31.0,284.0,-49.0,150.0,210.0,126,42,83,57,48
2025-03-20 15:48:59.193,-322.0,19.0,-294.0,-25.0,106.0,198.0,128,38,82,60,45
2025-03-20 15:48:59.217,-334.0,-83.0,-42.0,32.0,74.0,174.0,135,37,83,59,48
2025-03-20 15:48:59.238,-596.0,354.0,52.0,29.0,58.0,167.0,134,43,81,61,47
2025-03-20 15:48:59.263,-482.0,1034.0,43.0,119.0,44.0,157.0,135,40,80,60,47
2025-03-20 15:48:59.287,-624.0,3666.0,-1509.0,260.0,-16.0,-87.0,120,37,78,57,46
2025-03-20 15:48:59.312,-1401.0,5021.0,-3657.0,72.0,-262.0,-652.0,136,40,68,57,44
2025-03-20 15:48:59.336,1462.0,4582.0,4582.0,572.0,572.0,572.0,126,42,71,58,44
2025-03-20 15:48:59.358,7931.0,-2321.0,-1047.0,-263.0,-1281.0,-881.0,147,33,75,59,46
2025-03-20 15:48:59.381,8718.0,-8885.0,-8885.0,2.0,38.0,-153.0,149,39,80,62,45
2025-03-20 15:48:59.407,939.0,-4836.0,-985.0,590.0,313.0,175.0,127,44,81,58,48
2025-03-20 15:48:59.431,647.0,-1498.0,939.0,-149.0,91.0,240.0,144,42,80,61,49
2025-03-20 15:48:59.454,1926.0,1926.0,1926.0,240.0,240.0,240.0,137,45,83,64,50
2025-03-20 15:48:59.476,296.0,-1226.0,767.0,50.0,247.0,273.0,141,44,81,61,47
2025-03-20 15:48:59.500,-300.0,-441.0,282.0,25.0,228.0,291.0,144,41,80,61,48
2025-03-20 15:48:59.525,2335.0,2335.0,2335.0,291.0,291.0,291.0,148,44,80,58,49
2025-03-20 15:48:59.536,1477.0,-84.0,210.0,-11.0,195.0,189.0,147,46,82,63,50
2025-03-20 15:48:59.571,-396.0,-271.0,63.0,7.0,151.0,201.0,140,45,82,64,50
2025-03-20 15:48:59.594,-480.0,-345.0,40.0,-43.0,159.0,224.0,138,40,80,62,48
2025-03-20 15:48:59.619,-283.0,-199.0,200.0,96.0,171.0,208.0,139,44,83,61,49
2025-03-20 15:48:59.641,-392.0,-109.0,120.0,85.0,178.0,261.0,138,43,81,64,48
2025-03-20 15:48:59.664,2088.0,2088.0,2088.0,261.0,261.0,261.0,130,44,84,64,51
2025-03-20 15:48:59.688,2088.0,2088.0,2088.0,261.0,261.0,261.0,114,38,80,62,48
2025-03-20 15:48:59.700,2088.0,2088.0,2088.0,261.0,261.0,261.0,129,42,80,62,48
2025-03-20 15:48:59.730,2088.0,2088.0,2088.0,261.0,261.0,261.0,128,41,78,60,47
2025-03-20 15:48:59.754,-7892.0,5529.0,-4287.0,-186.0,-776.0,-1076.0,129,39,74,58,46
2025-03-20 15:48:59.778,7791.0,494.0,-3540.0,-684.0,-1430.0,-1113.0,142,35,74,63,45
2025-03-20 15:48:59.804,9358.0,-9792.0,5044.0,-434.0,-183.0,-183.0,150,42,79,62,45
2025-03-20 15:48:59.828,1972.0,-5459.0,-1763.0,739.0,456.0,164.0,142,41,83,57,47
2025-03-20 15:48:59.852,230.0,-827.0,271.0,-126.0,56.0,256.0,143,41,81,56,49
2025-03-20 15:48:59.876,746.0,-2964.0,1465.0,-148.0,110.0,301.0,135,37,84,66,49
2025-03-20 15:48:59.898,270.0,-1629.0,1672.0,88.0,179.0,376.0,142,49,85,65,50
2025-03-20 15:48:59.922,-130.0,-16.0,545.0,140.0,279.0,283.0,144,38,85,68,51
2025-03-20 15:48:59.946,-287.0,183.0,178.0,-77.0,263.0,211.0,138,39,82,59,49
2025-03-20 15:48:59.969,-609.0,-742.0,-130.0,-68.0,193.0,201.0,142,40,86,60,47
2025-03-20 15:48:59.996,-204.0,-649.0,185.0,122.0,185.0,238.0,132,36,92,54,57
2025-03-20 15:49:00.020,-121.0,-154.0,135.0,253.0,295.0,251.0,120,41,97,46,67
2025-03-20 15:49:00.045,-426.0,-164.0,-226.0,256.0,278.0,243.0,129,53,108,59,95
2025-03-20 15:49:00.066,-217.0,-77.0,-325.0,183.0,184.0,280.0,122,51,119,64,98
2025-03-20 15:49:00.089,-583.0,576.0,-560.0,140.0,110.0,248.0,121,48,128,82,95
2025-03-20 15:49:00.114,-687.0,1576.0,-1663.0,-18.0,-63.0,156.0,126,62,131,95,95
2025-03-20 15:49:00.139,-915.0,2772.0,-3150.0,67.0,-301.0,-209.0,107,68,133,96,94
2025-03-20 15:49:00.161,-753.0,2905.0,-3194.0,-190.0,-671.0,-611.0,103,67,136,101,99
2025-03-20 15:49:00.188,2822.0,2909.0,-625.0,-395.0,-785.0,-960.0,131,78,141,97,103
2025-03-20 15:49:00.213,7202.0,-2817.0,297.0,-470.0,-1139.0,-681.0,144,72,145,101,104
2025-03-20 15:49:00.227,5461.0,-8127.0,2240.0,-98.0,-98.0,-44.0,146,54,147,104,110
2025-03-20 15:49:00.258,2981.0,-4246.0,1874.0,593.0,441.0,265.0,126,5,144,102,113
2025-03-20 15:49:00.283,437.0,-935.0,13.0,332.0,333.0,289.0,135,62,143,108,110
2025-03-20 15:49:00.307,-84.0,-599.0,1231.0,-182.0,212.0,323.0,141,86,144,107,107
2025-03-20 15:49:00.332,55.0,-818.0,1174.0,-166.0,197.0,247.0,144,97,145,106,110
2025-03-20 15:49:00.355,-81.0,-547.0,495.0,31.0,289.0,221.0,141,97,143,106,108
2025-03-20 15:49:00.380,-170.0,3.0,587.0,-42.0,270.0,209.0,138,87,142,106,108
2025-03-20 15:49:00.405,-365.0,-241.0,261.0,61.0,241.0,241.0,135,94,142,103,108
2025-03-20 15:49:00.427,-334.0,-165.0,102.0,104.0,211.0,234.0,135,83,143,106,109
2025-03-20 15:49:00.451,-244.0,221.0,158.0,116.0,207.0,187.0,137,87,142,105,110
2025-03-20 15:49:00.475,-396.0,37.0,47.0,110.0,192.0,140.0,132,93,141,108,108
2025-03-20 15:49:00.499,-512.0,211.0,-15.0,66.0,132.0,160.0,129,96,144,108,109
2025-03-20 15:49:00.524,1284.0,649.0,-154.0,74.0,45.0,192.0,131,98,142,108,108
2025-03-20 15:49:00.542,-645.0,1625.0,-2197.0,175.0,-74.0,128.0,121,76,143,108,108
2025-03-20 15:49:00.573,-1263.0,3129.0,-3288.0,88.0,-342.0,-247.0,121,88,141,108,109
2025-03-20 15:49:00.597,-585.0,3638.0,-3097.0,-176.0,-597.0,-862.0,129,100,142,108,110
2025-03-20 15:49:00.622,6197.0,2084.0,-2522.0,-401.0,-1315.0,-1035.0,136,97,144,107,110
2025-03-20 15:49:00.647,7231.0,-6700.0,2135.0,-780.0,-807.0,-531.0,145,77,147,107,113
2025-03-20 15:49:00.671,4523.0,-7418.0,1435.0,484.0,130.0,191.0,144,45,144,109,116
2025-03-20 15:49:00.691,1314.0,-1961.0,1446.0,179.0,513.0,260.0,132,4,140,108,117
2025-03-20 15:49:00.717,-767.0,-881.0,1416.0,188.0,312.0,271.0,140,69,144,111,110
2025-03-20 15:49:00.742,151.0,-605.0,1088.0,-301.0,148.0,243.0,141,100,145,112,112
2025-03-20 15:49:00.766,2.0,-1095.0,992.0,-36.0,196.0,185.0,143,101,145,111,111
2025-03-20 15:49:00.789,-374.0,-800.0,491.0,77.0,289.0,169.0,143,97,144,112,110
2025-03-20 15:49:00.814,-127.0,-139.0,460.0,23.0,357.0,158.0,142,98,144,111,108
2025-03-20 15:49:00.836,-318.0,-117.0,190.0,-33.0,288.0,219.0,137,93,136,107,99
2025-03-20 15:49:00.852,-217.0,-307.0,390.0,76.0,235.0,237.0,133,75,128,105,88
2025-03-20 15:49:00.885,-167.0,91.0,259.0,85.0,260.0,208.0,126,68,121,102,71
2025-03-20 15:49:00.910,-391.0,-141.0,706.0,66.0,261.0,180.0,128,56,108,84,63
2025-03-20 15:49:00.934,-568.0,51.0,-80.0,55.0,96.0,179.0,123,46,96,70,55
2025-03-20 15:49:00.958,-662.0,834.0,-616.0,0.0,71.0,161.0,121,24,85,64,53
2025-03-20 15:49:00.982,-1045.0,3207.0,-2312.0,-102.0,-59.0,-146.0,121,22,79,35,40
2025-03-20 15:49:01.004,-1161.0,4386.0,-2993.0,-16.0,-441.0,-773.0,121,25,75,48,45
2025-03-20 15:49:01.029,1827.0,3504.0,-3133.0,-96.0,-881.0,-1035.0,123,28,69,51,39
2025-03-20 15:49:01.053,6758.0,-923.0,-1210.0,-405.0,-1091.0,-972.0,139,19,70,48,36
2025-03-20 15:49:01.077,9181.0,-9354.0,5095.0,-102.0,-162.0,-193.0,157,36,83,64,46
2025-03-20 15:49:01.102,1274.0,-4440.0,-1136.0,653.0,298.0,203.0,147,47,86,50,58
2025-03-20 15:49:01.126,576.0,-990.0,652.0,-148.0,23.0,189.0,158,55,96,80,66
2025-03-20 15:49:01.150,851.0,-2696.0,1245.0,-178.0,59.0,196.0,158,57,97,78,66
2025-03-20 15:49:01.172,352.0,-2340.0,1051.0,45.0,151.0,324.0,162,59,98,76,67
2025-03-20 15:49:01.195,200.0,-580.0,868.0,80.0,226.0,349.0,165,66,104,86,73
2025-03-20 15:49:01.220,2792.0,2792.0,2792.0,349.0,349.0,349.0,141,48,85,65,54
2025-03-20 15:49:01.241,2792.0,2792.0,2792.0,349.0,349.0,349.0,159,59,94,80,65
2025-03-20 15:49:01.261,2792.0,2792.0,2792.0,349.0,349.0,349.0,145,47,83,67,52
2025-03-20 15:49:01.286,-170.0,-180.0,372.0,-11.0,175.0,206.0,135,49,88,71,55
2025-03-20 15:49:01.311,-309.0,-27.0,140.0,1.0,182.0,212.0,143,51,88,70,57
2025-03-20 15:49:01.333,-536.0,-536.0,-536.0,-8.0,140.0,140.0,139,47,82,67,54
2025-03-20 15:49:01.359,1127.0,1127.0,1172.0,-7.0,-7.0,142.0,140,44,81,64,51
2025-03-20 15:49:01.380,0.0,0.0,0.0,0.0,0.0,121.0,129,45,83,67,50
2025-03-20 15:49:01.405,-1026.0,1649.0,-569.0,84.0,89.0,49.0,129,44,80,64,48
2025-03-20 15:49:01.430,-1186.0,3630.0,-1974.0,111.0,-68.0,-224.0,126,41,76,63,49
2025-03-20 15:49:01.454,-1133.0,3956.0,-3464.0,61.0,-475.0,-740.0,126,41,73,61,49
2025-03-20 15:49:01.479,3065.0,4339.0,-2592.0,-217.0,-917.0,-1038.0,144,39,73,63,48
2025-03-20 15:49:01.502,8627.0,-1556.0,3695.0,-679.0,-469.0,-850.0,159,44,91,80,62
2025-03-20 15:49:01.523,4764.0,-11250.0,-518.0,513.0,335.0,1.0,162,53,92,70,62
2025-03-20 15:49:01.549,1727.0,-1525.0,-164.0,158.0,160.0,195.0,154,55,90,61,64
2025-03-20 15:49:01.573,419.0,-2455.0,518.0,-143.0,-68.0,93.0,152,52,90,79,62
2025-03-20 15:49:01.597,265.0,-2028.0,1656.0,19.0,71.0,208.0,146,46,85,72,55
2025-03-20 15:49:01.621,1.0,-844.0,506.0,51.0,131.0,213.0,142,45,79,66,48
2025-03-20 15:49:01.646,9.0,-870.0,242.0,-135.0,110.0,228.0,144,44,82,66,50
2025-03-20 15:49:01.668,195.0,-1083.0,349.0,-103.0,63.0,207.0,145,44,85,67,52
2025-03-20 15:49:01.691,530.0,-1128.0,348.0,27.0,148.0,236.0,144,40,90,67,52
2025-03-20 15:49:01.716,176.0,-1002.0,-150.0,61.0,172.0,308.0,140,43,94,62,52
2025-03-20 15:49:01.730,-19.0,-344.0,-469.0,167.0,133.0,375.0,133,34,100,63,53
2025-03-20 15:49:01.764,510.0,-101.0,299.0,197.0,182.0,438.0,132,39,106,59,56
2025-03-20 15:49:01.790,910.0,578.0,-343.0,167.0,423.0,472.0,118,31,112,41,54
2025-03-20 15:49:01.814,72.0,1132.0,-884.0,258.0,298.0,471.0,117,35,122,62,55
2025-03-20 15:49:01.835,3774.0,3774.0,3774.0,471.0,471.0,471.0,112,53,123,67,55
2025-03-20 15:49:01.860,-1058.0,3958.0,-2643.0,132.0,-135.0,-92.0,108,71,137,70,53
2025-03-20 15:49:01.883,-56.0,4031.0,-3239.0,-82.0,-576.0,-730.0,105,75,143,68,51
2025-03-20 15:49:01.908,1719.0,2701.0,-3263.0,-156.0,-1123.0,-1061.0,98,90,148,62,52
2025-03-20 15:49:01.932,6774.0,-60.0,-1129.0,-401.0,-1368.0,-972.0,99,87,150,57,49
2025-03-20 15:49:01.957,7366.0,-6814.0,3022.0,-155.0,-356.0,-193.0,107,67,149,65,46
2025-03-20 15:49:01.978,4702.0,-4589.0,1163.0,475.0,478.0,166.0,90,1,146,76,49
2025-03-20 15:49:02.003,177.0,-1088.0,1123.0,-5.0,209.0,272.0,102,7,146,78,51
2025-03-20 15:49:02.021,2181.0,2181.0,2181.0,272.0,272.0,272.0,110,85,148,53,54
2025-03-20 15:49:02.049,208.0,-1225.0,1349.0,43.0,224.0,273.0,114,107,148,64,56
2025-03-20 15:49:02.073,-76.0,-667.0,712.0,77.0,284.0,282.0,119,95,148,71,52
2025-03-20 15:49:02.098,-198.0,-294.0,437.0,19.0,276.0,274.0,116,104,149,81,55
2025-03-20 15:49:02.119,-85.0,-325.0,354.0,36.0,249.0,241.0,118,98,151,78,54
2025-03-20 15:49:02.146,-254.0,-223.0,149.0,73.0,243.0,213.0,101,112,149,77,56
2025-03-20 15:49:02.171,-319.0,151.0,72.0,73.0,240.0,209.0,106,115,151,79,58
2025-03-20 15:49:02.195,-436.0,277.0,-42.0,-10.0,205.0,175.0,114,116,151,78,59
2025-03-20 15:49:02.216,-360.0,-19.0,-40.0,113.0,196.0,133.0,118,106,151,72,59
2025-03-20 15:49:02.240,-366.0,570.0,-263.0,129.0,190.0,122.0,120,90,149,77,58
2025-03-20 15:49:02.265,-629.0,1492.0,-979.0,10.0,112.0,43.0,116,104,148,78,50
2025-03-20 15:49:02.289,-1223.0,2012.0,-2605.0,51.0,-140.0,-180.0,114,101,148,76,54
2025-03-20 15:49:02.313,-761.0,3187.0,-3289.0,-7.0,-572.0,-602.0,106,102,151,78,56
2025-03-20 15:49:02.338,2808.0,2961.0,-3064.0,-105.0,-1134.0,-919.0,103,112,150,83,56
2025-03-20 15:49:02.363,6399.0,-1695.0,-639.0,-145.0,-1150.0,-738.0,99,88,151,84,57
2025-03-20 15:49:02.384,6791.0,-5880.0,3361.0,140.0,-176.0,-156.0,118,95,150,85,59
2025-03-20 15:49:02.409,2930.0,-3601.0,2638.0,385.0,360.0,75.0,109,12,149,84,59
2025-03-20 15:49:02.434,546.0,-1391.0,1853.0,-117.0,162.0,189.0,101,51,149,97,62
2025-03-20 15:49:02.458,511.0,-1605.0,1425.0,-182.0,99.0,216.0,114,86,149,91,62
2025-03-20 15:49:02.482,397.0,-1208.0,1283.0,-119.0,171.0,208.0,117,95,145,79,59
2025-03-20 15:49:02.499,338.0,-958.0,977.0,-50.0,259.0,218.0,122,109,146,83,56
2025-03-20 15:49:02.531,375.0,-607.0,666.0,-21.0,308.0,251.0,121,108,147,90,60
2025-03-20 15:49:02.553,197.0,-321.0,385.0,-49.0,311.0,292.0,123,100,147,84,63
2025-03-20 15:49:02.575,108.0,-263.0,224.0,-41.0,313.0,294.0,125,82,143,81,64
2025-03-20 15:49:02.602,-250.0,183.0,306.0,-109.0,307.0,284.0,129,95,141,84,64
2025-03-20 15:49:02.626,-209.0,-43.0,330.0,-98.0,268.0,232.0,122,78,132,86,62
2025-03-20 15:49:02.649,-392.0,413.0,-54.0,-25.0,214.0,185.0,125,62,111,90,62
2025-03-20 15:49:02.674,-548.0,827.0,-259.0,-55.0,116.0,111.0,126,50,98,83,63
2025-03-20 15:49:02.699,-829.0,1978.0,-918.0,-42.0,10.0,15.0,130,23,87,61,52
2025-03-20 15:49:02.715,-297.0,3046.0,-1973.0,151.0,-95.0,-312.0,132,1,75,62,44
2025-03-20 15:49:02.744,-891.0,2962.0,-2846.0,85.0,-366.0,-637.0,134,16,70,55,42
2025-03-20 15:49:02.769,1811.0,3619.0,-2751.0,-84.0,-721.0,-980.0,135,33,70,71,45
2025-03-20 15:49:02.794,7500.0,-137.0,-478.0,-490.0,-998.0,-885.0,145,31,73,72,44
2025-03-20 15:49:02.817,7451.0,-9653.0,4345.0,-95.0,61.0,-216.0,148,42,79,76,49
2025-03-20 15:49:02.841,1899.0,-4619.0,-928.0,409.0,472.0,168.0,142,42,81,83,52
2025-03-20 15:49:02.867,363.0,-1246.0,23.0,-210.0,61.0,195.0,142,42,81,75,53
2025-03-20 15:49:02.888,688.0,-2438.0,534.0,-134.0,-22.0,149.0,142,42,82,74,50
2025-03-20 15:49:02.913,380.0,-1803.0,1016.0,57.0,104.0,244.0,144,43,82,78,50
2025-03-20 15:49:02.936,1952.0,1952.0,1952.0,244.0,244.0,244.0,144,39,81,78,51
2025-03-20 15:49:02.948,1874.0,-617.0,459.0,62.0,178.0,227.0,145,39,84,77,51
2025-03-20 15:49:02.982,31.0,-698.0,110.0,38.0,133.0,263.0,145,45,83,81,52
2025-03-20 15:49:03.006,74.0,-675.0,313.0,43.0,177.0,283.0,144,41,84,80,53
2025-03-20 15:49:03.031,227.0,-246.0,505.0,122.0,205.0,289.0,143,44,86,78,50
2025-03-20 15:49:03.054,-153.0,97.0,152.0,71.0,218.0,275.0,138,42,87,80,50
2025-03-20 15:49:03.079,-412.0,304.0,-119.0,56.0,162.0,243.0,137,44,85,81,51
2025-03-20 15:49:03.104,-581.0,1435.0,-117.0,108.0,138.0,154.0,136,44,85,80,51
2025-03-20 15:49:03.128,-913.0,2578.0,-1007.0,145.0,99.0,-7.0,133,41,86,79,51
2025-03-20 15:49:03.143,-1558.0,4001.0,-2997.0,116.0,-209.0,-423.0,130,45,82,76,50
2025-03-20 15:49:03.174,451.0,4181.0,-3196.0,-13.0,-687.0,-872.0,138,46,78,77,51
2025-03-20 15:49:03.199,5166.0,2242.0,-1938.0,-474.0,-1106.0,-1045.0,145,46,80,79,52
2025-03-20 15:49:03.224,9191.0,-7526.0,4813.0,-459.0,-443.0,-427.0,152,47,84,83,51
2025-03-20 15:49:03.248,4734.0,-7631.0,-2406.0,574.0,456.0,171.0,128,45,75,83,52
2025-03-20 15:49:03.269,163.0,163.0,163.0,20.0,20.0,20.0,139,41,81,77,54
2025-03-20 15:49:03.292,163.0,163.0,163.0,20.0,20.0,20.0,142,45,85,79,51
2025-03-20 15:49:03.317,1039.0,-2714.0,903.0,25.0,18.0,209.0,146,49,89,85,56
2025-03-20 15:49:03.341,311.0,-1339.0,669.0,115.0,178.0,269.0,147,43,87,84,55
2025-03-20 15:49:03.363,229.0,-573.0,885.0,24.0,194.0,225.0,147,44,87,81,56
2025-03-20 15:49:03.388,-4.0,-667.0,656.0,7.0,198.0,242.0,148,48,89,84,55
2025-03-20 15:49:03.409,355.0,-931.0,448.0,79.0,229.0,261.0,145,52,92,82,56
2025-03-20 15:49:03.436,218.0,-908.0,-21.0,67.0,321.0,294.0,140,46,87,55,55
2025-03-20 15:49:03.460,37.0,-549.0,331.0,53.0,296.0,337.0,137,50,88,80,60
2025-03-20 15:49:03.484,207.0,-702.0,-270.0,177.0,248.0,367.0,129,39,88,76,60
2025-03-20 15:49:03.509,-45.0,-239.0,-732.0,165.0,291.0,364.0,133,26,87,79,62
2025-03-20 15:49:03.530,32.0,280.0,-500.0,206.0,224.0,409.0,110,26,83,82,61
2025-03-20 15:49:03.542,27.0,1839.0,-1698.0,183.0,84.0,372.0,107,30,76,70,55
2025-03-20 15:49:03.580,-1717.0,5490.0,-4302.0,30.0,-186.0,-287.0,106,33,71,76,46
2025-03-20 15:49:03.605,138.0,4996.0,-4592.0,-327.0,-615.0,-976.0,97,28,67,69,48
2025-03-20 15:49:03.629,3884.0,2673.0,-4189.0,-349.0,-1301.0,-1316.0,114,31,69,68,46
2025-03-20 15:49:03.654,10386.0,-4849.0,4995.0,-388.0,-683.0,-582.0,81,45,71,75,43
2025-03-20 15:49:03.678,4097.0,-7758.0,600.0,460.0,286.0,78.0,77,41,72,51,47
2025-03-20 15:49:03.699,562.0,-1730.0,1229.0,177.0,218.0,311.0,73,33,71,59,51
2025-03-20 15:49:03.723,325.0,-1996.0,1140.0,-188.0,85.0,253.0,87,38,73,77,51
2025-03-20 15:49:03.748,176.0,-1768.0,1318.0,-25.0,148.0,244.0,97,40,76,79,51
2025-03-20 15:49:03.772,-457.0,-536.0,672.0,-15.0,225.0,214.0,109,39,76,79,51
2025-03-20 15:49:03.797,-499.0,-337.0,318.0,-129.0,182.0,181.0,101,47,77,75,53
2025-03-20 15:49:03.822,-396.0,-653.0,252.0,-152.0,120.0,187.0,93,45,75,78,52
2025-03-20 15:49:03.845,31.0,-764.0,390.0,-76.0,109.0,195.0,94,44,75,77,49
2025-03-20 15:49:03.867,200.0,-382.0,54.0,-4.0,229.0,200.0,94,46,75,77,50
2025-03-20 15:49:03.891,-256.0,-321.0,-60.0,37.0,196.0,243.0,102,43,76,76,50
2025-03-20 15:49:03.916,-372.0,118.0,-3.0,31.0,145.0,268.0,95,48,76,78,51
2025-03-20 15:49:03.940,-408.0,104.0,-86.0,43.0,140.0,284.0,99,49,80,81,54
2025-03-20 15:49:03.965,-290.0,920.0,-556.0,194.0,120.0,280.0,110,47,81,81,55
2025-03-20 15:49:03.989,-892.0,2954.0,-1665.0,219.0,-15.0,62.0,97,42,81,81,56
2025-03-20 15:49:04.014,-954.0,5161.0,-3379.0,88.0,-333.0,-537.0,90,48,78,78,54
2025-03-20 15:49:04.038,677.0,3846.0,-3776.0,-6.0,-867.0,-1000.0,101,50,77,78,53
2025-03-20 15:49:04.058,6735.0,1311.0,931.0,-6.0,-1210.0,-1071.0,93,46,72,68,45
2025-03-20 15:49:04.084,8213.0,-9287.0,4547.0,-150.0,4.0,-181.0,82,44,73,77,47
2025-03-20 15:49:04.107,2724.0,-4009.0,876.0,500.0,296.0,224.0,91,40,75,67,49
2025-03-20 15:49:04.132,635.0,-1734.0,980.0,-158.0,75.0,191.0,80,39,74,75,51
2025-03-20 15:49:04.157,66.0,-2389.0,1490.0,-34.0,134.0,262.0,103,45,74,78,51
2025-03-20 15:49:04.182,-435.0,-577.0,1193.0,74.0,189.0,240.0,101,44,77,77,49
2025-03-20 15:49:04.203,-333.0,-304.0,817.0,-75.0,216.0,175.0,115,40,77,73,50
2025-03-20 15:49:04.227,-147.0,-855.0,583.0,-127.0,214.0,156.0,109,47,80,78,53
2025-03-20 15:49:04.252,-192.0,-1279.0,116.0,-64.0,163.0,186.0,107,37,83,78,52
2025-03-20 15:49:04.276,80.0,-780.0,508.0,50.0,219.0,243.0,117,48,90,72,55
2025-03-20 15:49:04.300,56.0,-369.0,316.0,70.0,270.0,275.0,117,46,93,58,55
2025-03-20 15:49:04.325,17.0,-308.0,-9.0,111.0,255.0,314.0,120,43,90,66,57
2025-03-20 15:49:04.350,-325.0,56.0,-259.0,143.0,213.0,320.0,120,52,91,75,57
2025-03-20 15:49:04.369,-360.0,590.0,-640.0,129.0,120.0,316.0,111,42,90,72,54
2025-03-20 15:49:04.396,-906.0,2227.0,-1870.0,79.0,-31.0,150.0,86,64,83,68,48
2025-03-20 15:49:04.420,-1816.0,4158.0,-5391.0,114.0,-591.0,-351.0,77,45,74,69,39
2025-03-20 15:49:04.445,2277.0,3425.0,-5891.0,77.0,-1339.0,-640.0,69,66,72,72,47
2025-03-20 15:49:04.469,7535.0,-968.0,-613.0,539.0,-1410.0,-354.0,71,74,71,80,44
2025-03-20 15:49:04.493,5781.0,178.0,4895.0,645.0,-660.0,-271.0,74,75,75,70,38
2025-03-20 15:49:04.518,3998.0,-26.0,5701.0,229.0,29.0,-63.0,75,65,75,75,44
2025-03-20 15:49:04.542,1953.0,262.0,4195.0,-193.0,117.0,127.0,81,76,76,73,40
2025-03-20 15:49:04.563,1293.0,70.0,3036.0,-285.0,245.0,114.0,88,31,78,78,43
2025-03-20 15:49:04.588,492.0,-333.0,1528.0,-28.0,339.0,37.0,83,60,77,78,45
2025-03-20 15:49:04.612,6.0,62.0,1068.0,-93.0,272.0,71.0,81,66,77,76,46
2025-03-20 15:49:04.636,510.0,339.0,1311.0,-234.0,337.0,106.0,80,64,78,64,45
2025-03-20 15:49:04.661,-19.0,-709.0,137.0,-64.0,308.0,81.0,83,68,77,74,45
2025-03-20 15:49:04.685,110.0,22.0,699.0,40.0,245.0,43.0,77,77,77,70,43
2025-03-20 15:49:04.706,246.0,-51.0,752.0,-91.0,322.0,73.0,84,72,78,70,43
2025-03-20 15:49:04.732,-223.0,-557.0,-211.0,-94.0,321.0,138.0,85,74,78,64,40
2025-03-20 15:49:04.755,-307.0,195.0,-152.0,57.0,177.0,112.0,82,78,78,67,42
2025-03-20 15:49:04.780,-168.0,656.0,135.0,-8.0,229.0,67.0,77,81,78,71,43
2025-03-20 15:49:04.804,-853.0,540.0,-933.0,-80.0,140.0,58.0,82,83,78,71,41
2025-03-20 15:49:04.828,-1165.0,1364.0,-1834.0,40.0,-125.0,-70.0,80,79,75,70,43
2025-03-20 15:49:04.854,-1358.0,1844.0,-3989.0,97.0,-559.0,-321.0,77,82,75,69,45
2025-03-20 15:49:04.878,1662.0,1384.0,-4121.0,205.0,-1170.0,-356.0,77,88,71,71,44
2025-03-20 15:49:04.899,4707.0,-1161.0,2058.0,321.0,-967.0,-76.0,80,75,73,73,44
2025-03-20 15:49:04.923,4290.0,-735.0,4971.0,319.0,-195.0,-178.0,75,61,75,76,46
2025-03-20 15:49:04.948,2327.0,477.0,4723.0,155.0,107.0,-56.0,83,79,75,77,45
2025-03-20 15:49:04.973,1601.0,104.0,3593.0,-245.0,235.0,101.0,87,69,75,72,46
2025-03-20 15:49:04.997,916.0,-509.0,2377.0,-297.0,351.0,158.0,88,75,77,77,42
2025-03-20 15:49:05.021,396.0,-240.0,1375.0,-178.0,402.0,168.0,85,82,79,80,46
2025-03-20 15:49:05.046,267.0,309.0,1095.0,-187.0,422.0,123.0,82,72,81,78,35
2025-03-20 15:49:05.065,198.0,-7.0,593.0,-163.0,419.0,55.0,87,73,80,79,43
2025-03-20 15:49:05.091,-80.0,-188.0,326.0,-137.0,377.0,75.0,88,71,82,76,39
2025-03-20 15:49:05.116,-5.0,49.0,235.0,-149.0,393.0,114.0,93,58,83,73,32
2025-03-20 15:49:05.140,-231.0,-181.0,140.0,-130.0,360.0,113.0,98,57,86,75,47
2025-03-20 15:49:05.162,906.0,906.0,906.0,113.0,113.0,113.0,98,61,92,68,50
2025-03-20 15:49:05.186,-302.0,9.0,-239.0,-18.0,208.0,121.0,105,69,94,67,51
2025-03-20 15:49:05.210,-449.0,74.0,-114.0,80.0,176.0,79.0,93,65,96,69,57
2025-03-20 15:49:05.235,-804.0,1460.0,-1882.0,-52.0,44.0,-4.0,89,79,104,59,66
2025-03-20 15:49:05.259,-968.0,311.0,-16.0,68.0,9.0,39.0,98,75,110,23,83
2025-03-20 15:49:05.284,-403.0,1115.0,-1493.0,88.0,-79.0,16.0,106,82,120,66,92
2025-03-20 15:49:05.308,-898.0,2022.0,-3020.0,-37.0,-398.0,-250.0,111,85,130,92,96
2025-03-20 15:49:05.333,-589.0,2351.0,-3149.0,-184.0,-606.0,-703.0,115,88,137,95,100
2025-03-20 15:49:05.354,3543.0,1307.0,-2584.0,-92.0,-901.0,-775.0,115,85,142,96,103
2025-03-20 15:49:05.379,7578.0,-2813.0,631.0,-378.0,-1128.0,-637.0,128,77,147,100,108
2025-03-20 15:49:05.403,4995.0,-6500.0,2448.0,-10.0,10.0,73.0,129,94,146,101,116
2025-03-20 15:49:05.427,3004.0,-2223.0,2999.0,480.0,528.0,235.0,128,59,143,105,115
2025-03-20 15:49:05.452,454.0,-649.0,1372.0,286.0,461.0,207.0,128,91,143,108,112
2025-03-20 15:49:05.473,1663.0,1663.0,1663.0,207.0,207.0,207.0,132,100,142,108,110
2025-03-20 15:49:05.497,1663.0,1663.0,1663.0,207.0,139.0,213.0,130,104,146,109,110
2025-03-20 15:49:05.521,-135.0,-821.0,978.0,20.0,282.0,157.0,131,110,146,105,111
2025-03-20 15:49:05.546,-68.0,-521.0,194.0,39.0,292.0,156.0,126,111,146,109,105
2025-03-20 15:49:05.570,-283.0,-345.0,221.0,-20.0,247.0,187.0,125,107,144,108,109
2025-03-20 15:49:05.591,-166.0,-360.0,429.0,41.0,221.0,219.0,125,110,143,108,108
2025-03-20 15:49:05.616,1753.0,1753.0,428.0,80.0,249.0,214.0,120,103,142,107,106
2025-03-20 15:49:05.640,1715.0,1715.0,1715.0,214.0,214.0,214.0,120,101,144,110,104
2025-03-20 15:49:05.661,-540.0,-71.0,-124.0,69.0,171.0,185.0,121,108,142,109,105
2025-03-20 15:49:05.684,-364.0,277.0,-312.0,86.0,136.0,187.0,111,107,143,109,104
2025-03-20 15:49:05.708,-731.0,1244.0,-1365.0,121.0,55.0,175.0,92,104,144,108,101
2025-03-20 15:49:05.735,-883.0,2426.0,-2782.0,121.0,-176.0,-175.0,123,97,141,106,101
2025-03-20 15:49:05.759,-976.0,2569.0,-2797.0,18.0,-468.0,-592.0,119,100,142,108,102
2025-03-20 15:49:05.784,322.0,1933.0,-2872.0,-318.0,-796.0,-890.0,126,95,141,107,105
2025-03-20 15:49:05.808,6790.0,37.0,181.0,-98.0,-1391.0,-748.0,119,97,144,109,105
2025-03-20 15:49:05.832,6458.0,-6437.0,2495.0,-705.0,-595.0,-355.0,127,109,143,109,113
2025-03-20 15:49:05.857,3261.0,-5523.0,2338.0,474.0,213.0,191.0,123,74,144,111,113
2025-03-20 15:49:05.875,1392.0,-1190.0,2076.0,286.0,350.0,251.0,123,78,139,109,109
2025-03-20 15:49:05.902,-253.0,-912.0,597.0,86.0,338.0,238.0,127,98,131,109,100
2025-03-20 15:49:05.927,-344.0,-791.0,648.0,-192.0,169.0,237.0,131,111,133,108,92
2025-03-20 15:49:05.951,29.0,-604.0,775.0,-93.0,223.0,196.0,132,110,126,78,83
2025-03-20 15:49:05.976,183.0,-768.0,514.0,49.0,323.0,168.0,126,94,114,88,72
2025-03-20 15:49:06.000,-140.0,-620.0,110.0,108.0,345.0,222.0,115,95,103,60,57
2025-03-20 15:49:06.022,-161.0,-355.0,130.0,100.0,302.0,284.0,101,89,86,53,50
2025-03-20 15:49:06.046,63.0,-104.0,187.0,42.0,279.0,291.0,97,80,79,39,45
2025-03-20 15:49:06.070,-214.0,1.0,55.0,102.0,254.0,250.0,86,53,78,19,44
2025-03-20 15:49:06.095,-625.0,442.0,-384.0,101.0,163.0,209.0,71,68,77,46,38
2025-03-20 15:49:06.119,-552.0,911.0,-934.0,44.0,-31.0,123.0,52,65,75,54,37
2025-03-20 15:49:06.144,-1012.0,1820.0,-2843.0,153.0,-264.0,-72.0,74,34,71,50,34
2025-03-20 15:49:06.168,-1553.0,3772.0,-5476.0,265.0,-953.0,-476.0,69,20,68,56,40
2025-03-20 15:49:06.193,5304.0,2657.0,-4618.0,31.0,-1651.0,-563.0,73,42,71,55,27
2025-03-20 15:49:06.214,8162.0,-3192.0,4424.0,593.0,-1024.0,-161.0,82,52,77,53,42
2025-03-20 15:49:06.238,4585.0,-189.0,5871.0,399.0,154.0,-239.0,80,69,77,46,43
2025-03-20 15:49:06.263,1513.0,198.0,3298.0,29.0,244.0,-18.0,82,76,74,54,41
2025-03-20 15:49:06.288,1089.0,-160.0,2927.0,-321.0,248.0,141.0,83,67,76,59,42
2025-03-20 15:49:06.312,628.0,-422.0,2016.0,-348.0,345.0,174.0,84,51,75,56,36
2025-03-20 15:49:06.337,117.0,-156.0,1242.0,-139.0,361.0,91.0,69,75,78,61,44
2025-03-20 15:49:06.358,30.0,-23.0,799.0,-85.0,366.0,60.0,78,73,79,62,39
2025-03-20 15:49:06.382,-8.0,111.0,499.0,-183.0,360.0,60.0,79,78,81,64,40
2025-03-20 15:49:06.407,-388.0,-508.0,55.0,-129.0,228.0,92.0,77,74,79,63,34
2025-03-20 15:49:06.431,28.0,-240.0,534.0,-31.0,207.0,96.0,67,82,80,62,42
2025-03-20 15:49:06.455,84.0,-92.0,436.0,-36.0,259.0,83.0,64,77,80,62,44
2025-03-20 15:49:06.480,-483.0,-285.0,-57.0,-53.0,211.0,106.0,76,68,79,63,39
2025-03-20 15:49:06.504,-285.0,113.0,309.0,-57.0,136.0,148.0,76,70,79,63,41
2025-03-20 15:49:06.529,-212.0,115.0,184.0,-49.0,191.0,139.0,79,67,79,65,42
2025-03-20 15:49:06.549,1114.0,1114.0,841.0,23.0,128.0,106.0,80,67,77,53,42
2025-03-20 15:49:06.575,-1477.0,2522.0,-2782.0,181.0,-117.0,-205.0,80,70,75,62,45
2025-03-20 15:49:06.597,-954.0,2919.0,-4096.0,95.0,-745.0,-559.0,79,75,74,62,46
2025-03-20 15:49:06.623,3770.0,600.0,-3322.0,36.0,-1387.0,-547.0,75,57,79,61,46
2025-03-20 15:49:06.648,6853.0,-3506.0,5877.0,212.0,-694.0,-103.0,82,71,82,64,45
2025-03-20 15:49:06.673,3424.0,-2563.0,4529.0,354.0,266.0,-70.0,85,65,85,48,46
2025-03-20 15:49:06.697,661.0,-269.0,2935.0,88.0,306.0,82.0,75,46,80,60,48
2025-03-20 15:49:06.708,221.0,-663.0,2130.0,-273.0,243.0,143.0,85,70,80,57,46
2025-03-20 15:49:06.742,-295.0,-498.0,1500.0,-302.0,182.0,142.0,72,72,82,63,48
2025-03-20 15:49:06.767,175.0,-722.0,1398.0,-172.0,200.0,72.0,83,78,84,64,47
2025-03-20 15:49:06.792,116.0,-731.0,1023.0,-74.0,291.0,115.0,86,74,84,67,49
2025-03-20 15:49:06.816,-25.0,-486.0,621.0,-64.0,305.0,160.0,93,69,89,61,42
2025-03-20 15:49:06.840,-200.0,-306.0,546.0,-70.0,313.0,191.0,87,62,93,54,45
2025-03-20 15:49:06.864,-271.0,-378.0,237.0,26.0,313.0,252.0,91,56,97,55,46
2025-03-20 15:49:06.886,-139.0,175.0,202.0,76.0,324.0,259.0,91,63,109,61,50
2025-03-20 15:49:06.909,-516.0,244.0,-193.0,43.0,298.0,200.0,107,80,113,56,50
2025-03-20 15:49:06.935,-601.0,229.0,-249.0,86.0,223.0,141.0,110,86,129,58,54
2025-03-20 15:49:06.959,-600.0,757.0,-283.0,97.0,169.0,96.0,110,94,135,64,52
2025-03-20 15:49:06.983,-752.0,1799.0,-1497.0,-19.0,42.0,-6.0,107,93,138,73,50
2025-03-20 15:49:07.008,-877.0,2420.0,-3237.0,101.0,-255.0,-326.0,92,97,145,69,46
2025-03-20 15:49:07.033,11.0,3516.0,-3979.0,-38.0,-830.0,-744.0,85,104,145,59,46
2025-03-20 15:49:07.057,4561.0,1300.0,-2727.0,-193.0,-1412.0,-802.0,93,97,147,71,42
2025-03-20 15:49:07.079,7523.0,-3644.0,2888.0,16.0,-1074.0,-465.0,106,68,150,80,42
2025-03-20 15:49:07.103,5486.0,-4203.0,3901.0,244.0,94.0,31.0,100,71,148,65,46
2025-03-20 15:49:07.127,1131.0,-1595.0,3073.0,216.0,379.0,117.0,100,50,148,80,49
2025-03-20 15:49:07.151,272.0,-958.0,2134.0,-195.0,251.0,182.0,102,76,148,75,46
2025-03-20 15:49:07.176,48.0,-1135.0,1414.0,-158.0,264.0,198.0,107,66,148,79,47
2025-03-20 15:49:07.200,-273.0,-671.0,988.0,-50.0,286.0,190.0,94,99,150,84,48
2025-03-20 15:49:07.224,-375.0,-153.0,580.0,-89.0,266.0,174.0,100,70,148,83,51
2025-03-20 15:49:07.246,-274.0,-378.0,395.0,-98.0,257.0,161.0,106,100,149,84,52
2025-03-20 15:49:07.271,-186.0,-493.0,155.0,-31.0,244.0,187.0,105,101,151,84,51
2025-03-20 15:49:07.294,-273.0,-153.0,198.0,32.0,235.0,159.0,97,107,149,85,51
2025-03-20 15:49:07.319,-218.0,-181.0,363.0,9.0,220.0,105.0,99,106,150,85,51
2025-03-20 15:49:07.344,-343.0,-365.0,281.0,31.0,213.0,111.0,105,104,148,86,52
2025-03-20 15:49:07.354,-440.0,-63.0,200.0,43.0,184.0,138.0,105,111,148,87,54
2025-03-20 15:49:07.393,-368.0,361.0,-119.0,31.0,188.0,165.0,107,114,148,86,53
2025-03-20 15:49:07.409,-642.0,1628.0,-1849.0,93.0,104.0,167.0,104,103,149,87,54
2025-03-20 15:49:07.439,-1605.0,3748.0,-3779.0,202.0,-314.0,-274.0,94,111,150,85,51
2025-03-20 15:49:07.463,-37.0,3829.0,-3765.0,-52.0,-970.0,-823.0,95,97,151,82,52
2025-03-20 15:49:07.485,6727.0,1102.0,-1012.0,-134.0,-1347.0,-884.0,97,91,148,86,51
2025-03-20 15:49:07.512,6398.0,-5001.0,4605.0,110.0,-490.0,-216.0,104,64,149,81,40
2025-03-20 15:49:07.536,4539.0,-3741.0,2833.0,345.0,356.0,182.0,90,87,147,80,46
2025-03-20 15:49:07.561,160.0,-759.0,1853.0,113.0,340.0,177.0,92,53,149,87,52
2025-03-20 15:49:07.586,-248.0,-1014.0,1296.0,-208.0,188.0,192.0,104,38,149,90,54
2025-03-20 15:49:07.606,-182.0,-1093.0,1170.0,-83.0,201.0,136.0,105,71,148,89,53
2025-03-20 15:49:07.631,-148.0,-638.0,867.0,-5.0,244.0,87.0,98,104,142,80,59
2025-03-20 15:49:07.656,-104.0,-703.0,891.0,-8.0,279.0,107.0,118,77,119,83,58
2025-03-20 15:49:07.680,-56.0,-763.0,626.0,-26.0,297.0,161.0,118,92,103,79,58
2025-03-20 15:49:07.704,-71.0,-429.0,517.0,-6.0,274.0,204.0,106,87,94,81,56
2025-03-20 15:49:07.729,-240.0,-408.0,134.0,35.0,252.0,221.0,104,77,91,77,54
2025-03-20 15:49:07.750,-329.0,-229.0,-90.0,-27.0,227.0,233.0,98,78,88,79,49
2025-03-20 15:49:07.774,-295.0,53.0,-125.0,14.0,181.0,224.0,91,73,87,82,46
2025-03-20 15:49:07.799,-465.0,383.0,-510.0,62.0,84.0,176.0,80,58,83,81,46
2025-03-20 15:49:07.824,-941.0,1386.0,-1582.0,108.0,-29.0,41.0,72,47,75,78,43
2025-03-20 15:49:07.848,-1836.0,2406.0,-4422.0,189.0,-529.0,-242.0,78,36,71,79,40
2025-03-20 15:49:07.872,1187.0,3396.0,-5339.0,156.0,-1302.0,-492.0,78,41,73,80,47
2025-03-20 15:49:07.894,6144.0,-1167.0,-779.0,214.0,-1413.0,-263.0,81,64,72,80,42
2025-03-20 15:49:07.921,5432.0,-239.0,3920.0,635.0,-765.0,-225.0,83,67,76,78,45
2025-03-20 15:49:07.942,3790.0,136.0,5807.0,323.0,103.0,-159.0,81,74,76,66,46
2025-03-20 15:49:07.967,1893.0,393.0,3129.0,-108.0,253.0,66.0,73,54,77,75,45
2025-03-20 15:49:07.992,1053.0,134.0,2228.0,-244.0,212.0,153.0,88,69,81,68,48
2025-03-20 15:49:08.016,736.0,172.0,2123.0,-247.0,317.0,123.0,89,69,81,86,50
2025-03-20 15:49:08.040,271.0,-26.0,1303.0,-142.0,378.0,71.0,71,60,81,87,49
2025-03-20 15:49:08.065,393.0,282.0,1203.0,-138.0,395.0,50.0,74,69,79,86,50
2025-03-20 15:49:08.086,165.0,-120.0,481.0,-153.0,360.0,69.0,80,75,83,87,49
2025-03-20 15:49:08.110,-160.0,-332.0,157.0,-95.0,324.0,82.0,81,63,81,85,45
2025-03-20 15:49:08.135,-167.0,-361.0,186.0,27.0,240.0,70.0,82,68,81,83,46
2025-03-20 15:49:08.159,-26.0,92.0,296.0,-1.0,222.0,76.0,80,76,81,83,45
2025-03-20 15:49:08.172,-371.0,-125.0,81.0,-70.0,206.0,103.0,76,72,84,86,43
2025-03-20 15:49:08.208,-281.0,-149.0,81.0,8.0,143.0,86.0,80,76,83,86,48
2025-03-20 15:49:08.232,-343.0,547.0,64.0,27.0,155.0,83.0,79,78,83,86,50
2025-03-20 15:49:08.254,-856.0,1243.0,-1103.0,-10.0,139.0,21.0,83,79,83,84,48
2025-03-20 15:49:08.278,-2063.0,1761.0,-4690.0,167.0,-360.0,-233.0,80,74,78,82,45
2025-03-20 15:49:08.301,221.0,1948.0,-4556.0,59.0,-1081.0,-365.0,73,72,77,78,47
2025-03-20 15:49:08.327,5304.0,-1421.0,-312.0,34.0,-1403.0,-197.0,83,75,81,82,49
2025-03-20 15:49:08.352,5942.0,-1125.0,6246.0,325.0,-447.0,-104.0,83,75,85,79,49
2025-03-20 15:49:08.373,2944.0,-832.0,4810.0,163.0,329.0,-83.0,82,83,86,63,50
2025-03-20 15:49:08.400,1107.0,-290.0,2735.0,-120.0,331.0,76.0,87,55,90,78,54
2025-03-20 15:49:08.422,498.0,-301.0,1749.0,-324.0,294.0,169.0,106,70,94,80,53
2025-03-20 15:49:08.446,41.0,-391.0,1331.0,-348.0,262.0,163.0,113,75,95,83,55
2025-03-20 15:49:08.470,15.0,-375.0,1057.0,-173.0,311.0,104.0,123,79,95,83,51
2025-03-20 15:49:08.495,220.0,-328.0,955.0,-91.0,365.0,84.0,121,67,94,80,52
2025-03-20 15:49:08.519,63.0,-80.0,834.0,-171.0,413.0,136.0,122,50,94,71,54
2025-03-20 15:49:08.545,96.0,-442.0,298.0,-201.0,413.0,187.0,124,43,93,69,46
2025-03-20 15:49:08.565,1500.0,1500.0,1500.0,187.0,187.0,205.0,125,41,93,77,52
2025-03-20 15:49:08.590,-396.0,-84.0,-173.0,20.0,335.0,170.0,123,36,90,69,53
2025-03-20 15:49:08.614,-925.0,194.0,-271.0,-57.0,235.0,75.0,117,40,90,62,57
2025-03-20 15:49:08.638,-568.0,156.0,-49.0,-57.0,151.0,63.0,120,39,88,76,59
2025-03-20 15:49:08.663,-550.0,704.0,-711.0,21.0,88.0,104.0,111,36,86,73,60
2025-03-20 15:49:08.687,-501.0,2244.0,-1783.0,86.0,-19.0,-30.0,109,41,83,76,56
2025-03-20 15:49:08.711,-756.0,3540.0,-3099.0,97.0,-289.0,-454.0,96,28,78,70,44
2025-03-20 15:49:08.728,-3628.0,-3628.0,-3628.0,41.0,-803.0,-833.0,106,24,75,78,44
2025-03-20 15:49:08.755,5451.0,2255.0,-2136.0,-292.0,-1335.0,-1000.0,89,24,76,70,38
2025-03-20 15:49:08.782,8615.0,-5230.0,6385.0,-80.0,-434.0,-246.0,83,35,82,83,50
2025-03-20 15:49:08.806,2747.0,-5766.0,2134.0,478.0,382.0,41.0,73,38,79,84,49
2025-03-20 15:49:08.829,120.0,-1156.0,1524.0,47.0,253.0,223.0,71,37,81,81,54
2025-03-20 15:49:08.855,237.0,-1488.0,1704.0,-326.0,162.0,185.0,78,37,79,84,48
2025-03-20 15:49:08.862,299.0,-1785.0,1277.0,-170.0,211.0,245.0,89,41,79,86,50
2025-03-20 15:49:08.901,-268.0,-1130.0,603.0,-42.0,212.0,243.0,92,40,79,82,49
2025-03-20 15:49:08.926,-218.0,-500.0,458.0,-83.0,262.0,238.0,96,34,79,83,51
2025-03-20 15:49:08.949,-301.0,-428.0,260.0,-67.0,219.0,239.0,91,44,80,83,52
2025-03-20 15:49:08.974,-138.0,-512.0,110.0,-20.0,193.0,228.0,103,43,82,86,53
2025-03-20 15:49:08.999,-111.0,-92.0,548.0,-28.0,232.0,173.0,95,43,84,85,55
2025-03-20 15:49:09.023,-480.0,-287.0,168.0,-34.0,197.0,152.0,105,45,85,85,54
2025-03-20 15:49:09.045,-217.0,-320.0,217.0,29.0,180.0,169.0,97,45,84,86,55
2025-03-20 15:49:09.069,-501.0,216.0,-11.0,5.0,143.0,170.0,100,44,82,85,51
2025-03-20 15:49:09.093,-562.0,607.0,-377.0,7.0,111.0,144.0,101,45,84,83,53
2025-03-20 15:49:09.118,-652.0,1509.0,-1277.0,157.0,26.0,128.0,91,35,84,85,54
2025-03-20 15:49:09.142,-714.0,3667.0,-3044.0,152.0,-242.0,-268.0,98,44,83,83,53
2025-03-20 15:49:09.167,-537.0,3130.0,-3497.0,18.0,-678.0,-688.0,90,42,83,80,51
2025-03-20 15:49:09.190,3236.0,3020.0,-1791.0,-56.0,-1238.0,-903.0,102,41,83,81,50
2025-03-20 15:49:09.213,7772.0,-3006.0,3197.0,33.0,-1073.0,-517.0,93,37,85,86,50
2025-03-20 15:49:09.237,6276.0,-5612.0,3017.0,415.0,336.0,80.0,87,27,88,87,54
2025-03-20 15:49:09.261,283.0,-1296.0,1357.0,283.0,354.0,61.0,105,43,85,84,51
2025-03-20 15:49:09.286,-616.0,-262.0,744.0,-83.0,168.0,103.0,94,45,90,85,55
2025-03-20 15:49:09.310,-309.0,-731.0,1098.0,-45.0,101.0,42.0,107,42,89,85,53
2025-03-20 15:49:09.334,-154.0,-875.0,665.0,169.0,152.0,30.0,110,41,89,87,52
2025-03-20 15:49:09.359,-400.0,-375.0,383.0,270.0,160.0,23.0,123,45,91,89,60
2025-03-20 15:49:09.379,-403.0,-140.0,266.0,247.0,77.0,1.0,121,46,94,88,54
2025-03-20 15:49:09.404,-492.0,-58.0,375.0,272.0,-23.0,-17.0,125,45,90,89,54
2025-03-20 15:49:09.430,-380.0,96.0,625.0,296.0,-70.0,-47.0,128,45,90,88,53
2025-03-20 15:49:09.454,-307.0,-96.0,963.0,323.0,-62.0,-73.0,126,46,89,90,51
2025-03-20 15:49:09.478,-361.0,465.0,987.0,367.0,-28.0,-118.0,130,43,86,87,45
2025-03-20 15:49:09.503,-408.0,330.0,1031.0,357.0,-22.0,-168.0,132,35,85,87,48
2025-03-20 15:49:09.527,25.0,118.0,1083.0,289.0,-97.0,-176.0,135,32,86,89,48
2025-03-20 15:49:09.548,1309.0,-1585.0,1988.0,167.0,-128.0,-47.0,138,39,84,88,49
2025-03-20 15:49:09.573,2503.0,-2494.0,3185.0,-41.0,50.0,222.0,141,41,84,89,51
2025-03-20 15:49:09.597,3145.0,-2914.0,2975.0,-290.0,271.0,599.0,144,41,86,90,42
2025-03-20 15:49:09.622,3717.0,-1585.0,1832.0,-316.0,370.0,882.0,144,39,81,83,52
2025-03-20 15:49:09.639,2452.0,1594.0,508.0,-320.0,257.0,865.0,143,31,84,81,54
2025-03-20 15:49:09.670,736.0,5281.0,519.0,-185.0,224.0,509.0,144,38,86,68,50
2025-03-20 15:49:09.695,-334.0,5333.0,-674.0,186.0,161.0,79.0,141,44,85,74,47
2025-03-20 15:49:09.717,-272.0,4567.0,251.0,123.0,78.0,-198.0,146,43,84,70,48
2025-03-20 15:49:09.741,-36.0,2155.0,409.0,45.0,-107.0,-373.0,142,43,86,68,49
2025-03-20 15:49:09.765,1031.0,-655.0,1482.0,23.0,-150.0,-302.0,119,42,88,82,52
2025-03-20 15:49:09.790,742.0,-724.0,1936.0,26.0,54.0,-145.0,140,43,87,82,52
2025-03-20 15:49:09.814,68.0,-433.0,1271.0,10.0,83.0,-164.0,140,41,86,83,51
2025-03-20 15:49:09.839,-360.0,-280.0,914.0,58.0,29.0,-151.0,132,42,86,85,52
2025-03-20 15:49:09.862,-738.0,-338.0,415.0,128.0,-27.0,-179.0,129,41,86,90,53
2025-03-20 15:49:09.884,-498.0,110.0,289.0,214.0,-127.0,-172.0,136,39,83,86,50
2025-03-20 15:49:09.908,-522.0,596.0,352.0,211.0,-187.0,-212.0,128,43,84,88,49
2025-03-20 15:49:09.933,-397.0,811.0,527.0,206.0,-241.0,-268.0,128,42,83,88,51
2025-03-20 15:49:09.957,-188.0,380.0,571.0,181.0,-286.0,-268.0,133,44,82,87,51
2025-03-20 15:49:09.982,261.0,-127.0,717.0,185.0,-284.0,-230.0,135,44,82,90,52
2025-03-20 15:49:10.007,1095.0,-1349.0,1309.0,189.0,-269.0,-139.0,127,49,83,89,52
2025-03-20 15:49:10.031,2751.0,-2891.0,3101.0,129.0,-90.0,157.0,138,45,84,89,53
2025-03-20 15:49:10.054,3244.0,-1601.0,3354.0,-308.0,166.0,557.0,142,40,86,90,53
2025-03-20 15:49:10.076,3196.0,-928.0,2261.0,-544.0,386.0,887.0,133,45,86,87,52
2025-03-20 15:49:10.101,2746.0,2140.0,1212.0,-474.0,409.0,899.0,136,44,84,73,51
2025-03-20 15:49:10.126,738.0,3846.0,1615.0,-128.0,418.0,450.0,131,39,86,69,52
2025-03-20 15:49:10.150,620.0,3078.0,1156.0,194.0,442.0,110.0,141,48,90,70,50
2025-03-20 15:49:10.172,-451.0,2873.0,508.0,27.0,401.0,-8.0,142,50,93,80,53
2025-03-20 15:49:10.199,-27.0,983.0,1086.0,23.0,325.0,-113.0,132,48,90,87,54
2025-03-20 15:49:10.215,-343.0,-341.0,879.0,157.0,233.0,-105.0,132,51,90,79,56
2025-03-20 15:49:10.245,-854.0,-188.0,570.0,141.0,200.0,-114.0,115,45,96,76,64
2025-03-20 15:49:10.269,-560.0,-790.0,237.0,14.0,150.0,-131.0,114,52,104,75,71
2025-03-20 15:49:10.293,-556.0,-888.0,-218.0,92.0,114.0,-45.0,99,44,105,72,76
2025-03-20 15:49:10.318,-1017.0,-542.0,84.0,162.0,155.0,14.0,111,43,116,62,78
2025-03-20 15:49:10.342,-834.0,-36.0,651.0,87.0,169.0,10.0,118,55,119,91,106
2025-03-20 15:49:10.367,-696.0,291.0,397.0,98.0,172.0,34.0,120,62,125,103,100
2025-03-20 15:49:10.391,-539.0,1029.0,-473.0,70.0,134.0,47.0,114,68,127,110,99
2025-03-20 15:49:10.412,-404.0,1902.0,-1810.0,88.0,19.0,-90.0,116,66,130,107,100
2025-03-20 15:49:10.434,-539.0,3051.0,-2973.0,-45.0,-263.0,-515.0,118,68,133,107,101
2025-03-20 15:49:10.456,289.0,2510.0,-3727.0,-298.0,-621.0,-906.0,118,84,137,107,102
2025-03-20 15:49:10.486,2894.0,1088.0,-2412.0,-441.0,-535.0,-1104.0,126,27,137,108,95
2025-03-20 15:49:10.511,8175.0,-1240.0,1803.0,-428.0,-958.0,-669.0,128,56,143,104,102
2025-03-20 15:49:10.536,6016.0,-6734.0,2403.0,188.0,-237.0,-66.0,145,80,150,106,107
2025-03-20 15:49:10.559,1719.0,-3849.0,2445.0,561.0,525.0,276.0,140,46,147,111,107
2025-03-20 15:49:10.572,937.0,-587.0,1407.0,97.0,564.0,275.0,140,39,144,109,113
2025-03-20 15:49:10.609,-192.0,-412.0,1805.0,-186.0,186.0,231.0,142,87,145,109,108
2025-03-20 15:49:10.633,-294.0,-689.0,1514.0,-158.0,145.0,180.0,141,94,145,110,108
2025-03-20 15:49:10.657,-108.0,-737.0,796.0,-47.0,300.0,227.0,140,96,145,111,108
2025-03-20 15:49:10.679,41.0,-405.0,154.0,9.0,328.0,243.0,134,101,146,111,108
2025-03-20 15:49:10.703,-215.0,-18.0,685.0,29.0,307.0,239.0,134,95,144,113,109
2025-03-20 15:49:10.725,-163.0,-250.0,63.0,76.0,197.0,265.0,124,100,144,114,109
2025-03-20 15:49:10.752,-349.0,256.0,-52.0,55.0,210.0,208.0,126,89,144,115,110
2025-03-20 15:49:10.776,-598.0,288.0,-122.0,42.0,167.0,175.0,114,98,141,110,106
2025-03-20 15:49:10.801,-355.0,724.0,-64.0,84.0,148.0,147.0,124,98,142,111,105
2025-03-20 15:49:10.826,-303.0,2221.0,-2132.0,62.0,36.0,109.0,124,99,142,113,106
2025-03-20 15:49:10.847,-838.0,3354.0,-3451.0,46.0,-305.0,-332.0,129,91,142,113,109
2025-03-20 15:49:10.871,-165.0,2999.0,-2878.0,-95.0,-640.0,-793.0,132,98,144,115,109
2025-03-20 15:49:10.896,2912.0,1516.0,-2236.0,-664.0,-1039.0,-1117.0,132,105,147,114,112
2025-03-20 15:49:10.920,9413.0,-2447.0,433.0,-477.0,-1084.0,-791.0,127,89,147,111,113
2025-03-20 15:49:10.945,4875.0,-7628.0,947.0,254.0,88.0,110.0,139,68,150,114,122
2025-03-20 15:49:10.969,1965.0,-2949.0,1483.0,773.0,520.0,314.0,127,63,144,113,119
2025-03-20 15:49:10.992,-965.0,-587.0,-1377.0,373.0,293.0,249.0,135,80,141,114,112
2025-03-20 15:49:11.018,-1008.0,8.0,354.0,-28.0,115.0,95.0,141,83,135,112,106
2025-03-20 15:49:11.043,-1002.0,-279.0,176.0,-105.0,53.0,47.0,139,44,126,85,98
2025-03-20 15:49:11.065,-223.0,-387.0,712.0,87.0,98.0,28.0,140,37,125,76,78
2025-03-20 15:49:11.088,-187.0,-617.0,483.0,335.0,141.0,26.0,134,48,115,57,69
2025-03-20 15:49:11.113,-387.0,-321.0,647.0,330.0,150.0,65.0,127,31,107,60,59
2025-03-20 15:49:11.136,-460.0,5.0,434.0,340.0,84.0,55.0,129,31,104,51,38
2025-03-20 15:49:11.162,-410.0,301.0,188.0,388.0,3.0,-28.0,123,36,107,66,35
2025-03-20 15:49:11.178,-590.0,377.0,365.0,357.0,-30.0,-57.0,126,35,102,73,35
2025-03-20 15:49:11.211,-459.0,535.0,702.0,372.0,-74.0,-131.0,133,40,93,65,38
2025-03-20 15:49:11.235,-516.0,375.0,762.0,385.0,-144.0,-178.0,134,40,86,56,45
2025-03-20 15:49:11.257,502.0,-383.0,1450.0,320.0,-241.0,-141.0,133,36,79,66,41
2025-03-20 15:49:11.281,2250.0,-2969.0,3007.0,100.0,-105.0,122.0,136,39,85,68,42
2025-03-20 15:49:11.293,3079.0,-2769.0,3607.0,-134.0,168.0,408.0,138,39,87,73,43
2025-03-20 15:49:11.330,3082.0,-2073.0,2416.0,-292.0,337.0,753.0,138,41,88,72,43
2025-03-20 15:49:11.354,2879.0,775.0,1644.0,-304.0,286.0,892.0,139,43,88,70,46
2025-03-20 15:49:11.378,1661.0,4340.0,933.0,-195.0,334.0,565.0,141,40,92,69,42
2025-03-20 15:49:11.403,-321.0,5163.0,-614.0,84.0,235.0,175.0,143,44,89,68,47
2025-03-20 15:49:11.424,-301.0,4843.0,-87.0,51.0,73.0,-51.0,145,40,87,68,47
2025-03-20 15:49:11.446,51.0,2787.0,382.0,-66.0,5.0,-243.0,144,42,85,71,46
2025-03-20 15:49:11.473,703.0,-113.0,1370.0,-11.0,-33.0,-224.0,141,42,83,73,46
2025-03-20 15:49:11.498,319.0,-201.0,1389.0,-5.0,30.0,-166.0,122,42,87,69,46
2025-03-20 15:49:11.523,-127.0,33.0,1024.0,24.0,-8.0,-164.0,141,35,91,52,46
2025-03-20 15:49:11.547,-185.0,-304.0,1201.0,-27.0,1.0,-135.0,131,42,93,73,49
2025-03-20 15:49:11.571,-443.0,-440.0,624.0,101.0,-46.0,-110.0,134,43,94,77,49
2025-03-20 15:49:11.578,-366.0,-40.0,755.0,140.0,-38.0,-89.0,140,48,96,81,49
2025-03-20 15:49:11.615,-427.0,342.0,925.0,115.0,-31.0,-109.0,140,47,94,77,54
2025-03-20 15:49:11.640,-644.0,319.0,711.0,118.0,-51.0,-149.0,142,48,93,76,50
2025-03-20 15:49:11.666,-600.0,632.0,669.0,185.0,-104.0,-203.0,138,44,89,74,48
2025-03-20 15:49:11.690,-375.0,440.0,842.0,147.0,-128.0,-228.0,136,44,90,77,48
2025-03-20 15:49:11.715,-246.0,110.0,860.0,18.0,-84.0,-269.0,140,44,89,80,49
2025-03-20 15:49:11.739,420.0,-1779.0,725.0,53.0,-190.0,-163.0,142,44,89,80,50
2025-03-20 15:49:11.763,2014.0,-3383.0,2634.0,-54.0,-67.0,119.0,144,47,92,80,51
2025-03-20 15:49:11.785,2822.0,-3610.0,3560.0,-255.0,167.0,427.0,144,49,95,82,52
2025-03-20 15:49:11.809,1958.0,-1440.0,1605.0,-229.0,241.0,743.0,142,44,96,82,51
2025-03-20 15:49:11.834,1379.0,2411.0,766.0,-303.0,204.0,793.0,142,46,96,70,50
2025-03-20 15:49:11.858,12.0,5397.0,658.0,38.0,269.0,284.0,140,46,97,72,51
2025-03-20 15:49:11.883,-363.0,3850.0,760.0,199.0,223.0,67.0,136,46,91,64,48
2025-03-20 15:49:11.907,-439.0,2845.0,757.0,21.0,222.0,-127.0,144,46,94,68,48
2025-03-20 15:49:11.932,-464.0,1086.0,1132.0,-79.0,132.0,-232.0,128,51,103,68,49
2025-03-20 15:49:11.953,-233.0,-662.0,1487.0,-122.0,123.0,-212.0,139,58,109,76,51
2025-03-20 15:49:11.977,-636.0,-831.0,1466.0,-139.0,122.0,-185.0,137,55,117,64,51
2025-03-20 15:49:12.001,-901.0,-1201.0,954.0,31.0,200.0,-123.0,123,59,128,79,51
2025-03-20 15:49:12.026,-580.0,-1060.0,23.0,58.0,169.0,-31.0,132,50,134,73,51
2025-03-20 15:49:12.050,-607.0,-660.0,835.0,115.0,174.0,44.0,129,65,136,76,50
2025-03-20 15:49:12.075,-566.0,-159.0,446.0,133.0,224.0,80.0,129,68,136,58,56
2025-03-20 15:49:12.094,-640.0,444.0,12.0,149.0,244.0,89.0,138,74,139,66,57
2025-03-20 15:49:12.121,-619.0,1142.0,-374.0,130.0,256.0,16.0,132,84,141,78,62
2025-03-20 15:49:12.145,-346.0,1958.0,-1579.0,77.0,176.0,-129.0,128,88,141,77,62
2025-03-20 15:49:12.170,-1128.0,2775.0,-3503.0,11.0,-224.0,-506.0,120,93,144,69,55
2025-03-20 15:49:12.192,239.0,2626.0,-4489.0,-170.0,-825.0,-851.0,89,87,146,48,47
2025-03-20 15:49:12.218,3483.0,222.0,-5003.0,-88.0,-1486.0,-746.0,80,60,147,58,50
2025-03-20 15:49:12.238,7933.0,-2680.0,-1241.0,39.0,-1399.0,-378.0,100,62,150,69,48
2025-03-20 15:49:12.266,6171.0,-3652.0,4072.0,181.0,-273.0,-48.0,116,71,149,75,35
2025-03-20 15:49:12.287,2864.0,-2804.0,3648.0,254.0,371.0,59.0,95,56,147,73,37
2025-03-20 15:49:12.313,887.0,-953.0,2261.0,-82.0,401.0,192.0,91,71,148,69,45
2025-03-20 15:49:12.324,-1.0,-996.0,1228.0,-216.0,327.0,296.0,100,70,149,51,48
2025-03-20 15:49:12.362,-81.0,-416.0,873.0,-171.0,329.0,289.0,103,80,150,73,54
2025-03-20 15:49:12.386,-245.0,-220.0,556.0,-48.0,376.0,269.0,108,70,150,73,55
2025-03-20 15:49:12.411,-192.0,-127.0,260.0,32.0,359.0,255.0,108,96,150,71,56
2025-03-20 15:49:12.436,-177.0,-125.0,73.0,71.0,339.0,214.0,103,103,150,77,57
2025-03-20 15:49:12.456,-322.0,1.0,-3.0,115.0,283.0,172.0,98,109,150,81,58
2025-03-20 15:49:12.481,1379.0,1020.0,25.0,73.0,252.0,124.0,103,105,149,87,58
2025-03-20 15:49:12.505,-568.0,-157.0,98.0,79.0,229.0,114.0,103,110,147,82,59
2025-03-20 15:49:12.530,-550.0,519.0,-277.0,87.0,187.0,138.0,103,108,145,76,60
2025-03-20 15:49:12.555,-700.0,1541.0,-1157.0,65.0,105.0,67.0,103,108,146,82,57
2025-03-20 15:49:12.579,-1203.0,2779.0,-3116.0,35.0,-200.0,-208.0,99,111,150,82,56
2025-03-20 15:49:12.604,-609.0,3930.0,-3573.0,-65.0,-720.0,-677.0,86,105,150,82,57
2025-03-20 15:49:12.628,3231.0,1608.0,-3141.0,-279.0,-1310.0,-871.0,87,93,151,70,56
2025-03-20 15:49:12.649,7941.0,-2561.0,-146.0,150.0,-1154.0,-558.0,95,65,152,85,55
2025-03-20 15:49:12.674,5025.0,-3694.0,3978.0,411.0,-5.0,-154.0,99,62,150,85,45
2025-03-20 15:49:12.698,1407.0,-1810.0,2388.0,330.0,322.0,15.0,81,64,145,85,52
2025-03-20 15:49:12.722,-54.0,-211.0,1817.0,-63.0,121.0,81.0,94,76,150,79,49
2025-03-20 15:49:12.746,-82.0,-324.0,1601.0,-51.0,125.0,27.0,96,84,146,91,55
2025-03-20 15:49:12.771,-165.0,-351.0,1347.0,43.0,239.0,-42.0,98,96,137,87,54
2025-03-20 15:49:12.793,-131.0,-554.0,717.0,116.0,263.0,-58.0,102,93,140,86,51
2025-03-20 15:49:12.815,-88.0,-611.0,419.0,179.0,210.0,-33.0,110,85,135,84,54
2025-03-20 15:49:12.842,-249.0,-261.0,422.0,234.0,149.0,-42.0,108,81,132,83,51
2025-03-20 15:49:12.866,-433.0,-224.0,639.0,224.0,100.0,-54.0,104,83,130,80,43
2025-03-20 15:49:12.890,-461.0,-173.0,712.0,268.0,77.0,-65.0,111,78,128,79,43
2025-03-20 15:49:12.914,-475.0,-62.0,756.0,296.0,61.0,-80.0,123,57,119,80,39
2025-03-20 15:49:12.939,-351.0,-268.0,468.0,264.0,-1.0,-75.0,127,51,113,77,38
2025-03-20 15:49:12.960,418.0,-1126.0,1354.0,114.0,-65.0,13.0,130,42,98,66,43
2025-03-20 15:49:12.985,2071.0,-3144.0,2605.0,-92.0,33.0,235.0,135,42,88,69,43
2025-03-20 15:49:13.009,2912.0,-3823.0,2454.0,-59.0,195.0,575.0,135,40,82,76,47
2025-03-20 15:49:13.034,2160.0,-855.0,1254.0,-318.0,78.0,800.0,140,39,80,75,46
2025-03-20 15:49:13.058,1789.0,1860.0,1165.0,-141.0,128.0,643.0,138,40,78,76,48
2025-03-20 15:49:13.083,676.0,3795.0,594.0,100.0,168.0,385.0,144,44,80,72,51
2025-03-20 15:49:13.107,-348.0,5479.0,485.0,-12.0,79.0,98.0,140,40,74,64,46
2025-03-20 15:49:13.128,-224.0,3982.0,678.0,-22.0,61.0,-116.0,141,42,77,74,50
2025-03-20 15:49:13.153,67.0,1633.0,776.0,9.0,-17.0,-192.0,142,40,78,73,47
2025-03-20 15:49:13.177,375.0,480.0,1206.0,-14.0,-31.0,-187.0,138,43,80,71,49
2025-03-20 15:49:13.202,208.0,-220.0,1145.0,-44.0,5.0,-160.0,141,45,82,77,49
2025-03-20 15:49:13.227,-276.0,-786.0,-229.0,103.0,-54.0,-124.0,145,39,84,77,49
2025-03-20 15:49:13.251,-270.0,-284.0,780.0,77.0,-41.0,-113.0,143,44,84,82,50
2025-03-20 15:49:13.263,-206.0,-327.0,886.0,27.0,-54.0,-105.0,142,44,85,81,41
2025-03-20 15:49:13.296,-207.0,-456.0,1092.0,83.0,-25.0,-62.0,146,44,85,81,47
2025-03-20 15:49:13.321,-498.0,274.0,859.0,131.0,-9.0,-81.0,143,44,84,80,47
2025-03-20 15:49:13.343,-455.0,718.0,770.0,105.0,-3.0,-100.0,144,44,82,79,43
2025-03-20 15:49:13.370,-672.0,958.0,374.0,122.0,7.0,-176.0,143,46,82,78,46
2025-03-20 15:49:13.394,-928.0,843.0,-199.0,187.0,-124.0,-335.0,144,46,82,80,48
2025-03-20 15:49:13.418,242.0,-1361.0,-240.0,168.0,-397.0,-259.0,144,44,82,82,48
2025-03-20 15:49:13.443,2594.0,-4779.0,2781.0,62.0,-391.0,159.0,148,44,85,83,50
2025-03-20 15:49:13.467,3266.0,-2188.0,4743.0,-135.0,63.0,468.0,150,43,87,83,52
2025-03-20 15:49:13.489,1699.0,-39.0,2268.0,-544.0,269.0,624.0,149,39,92,84,51
2025-03-20 15:49:13.513,1142.0,1342.0,1233.0,-407.0,259.0,627.0,147,45,84,78,49
2025-03-20 15:49:13.524,-417.0,4134.0,1005.0,18.0,272.0,237.0,148,46,84,73,47
2025-03-20 15:49:13.559,176.0,2663.0,1155.0,157.0,250.0,38.0,145,46,86,70,49
2025-03-20 15:49:13.585,12.0,1506.0,1362.0,-82.0,239.0,-46.0,141,48,85,75,49
2025-03-20 15:49:13.607,-75.0,-102.0,1298.0,-79.0,219.0,-61.0,143,49,86,72,50
2025-03-20 15:49:13.632,-85.0,-801.0,1413.0,62.0,257.0,-19.0,142,49,86,74,51
2025-03-20 15:49:13.657,-209.0,-425.0,1550.0,-48.0,303.0,-8.0,140,46,89,72,56
2025-03-20 15:49:13.681,-513.0,-435.0,532.0,68.0,259.0,-44.0,137,48,90,72,55
2025-03-20 15:49:13.706,-512.0,-422.0,625.0,114.0,304.0,-17.0,131,45,90,76,64
2025-03-20 15:49:13.730,-687.0,-69.0,-45.0,128.0,319.0,15.0,127,48,87,65,62
2025-03-20 15:49:13.755,-1095.0,342.0,-41.0,114.0,254.0,57.0,123,42,85,67,58
2025-03-20 15:49:13.779,-445.0,877.0,-480.0,106.0,202.0,69.0,122,45,81,61,59
2025-03-20 15:49:13.803,-271.0,1701.0,-1128.0,132.0,121.0,3.0,121,45,79,69,57
2025-03-20 15:49:13.824,-406.0,2473.0,-1950.0,36.0,-38.0,-192.0,115,45,78,62,56
2025-03-20 15:49:13.849,-710.0,4181.0,-2926.0,-113.0,-234.0,-667.0,111,41,74,49,49
2025-03-20 15:49:13.874,2161.0,4989.0,-4935.0,-529.0,-662.0,-1262.0,106,29,74,62,45
2025-03-20 15:49:13.898,5574.0,-1186.0,-3849.0,-176.0,-1097.0,-1242.0,110,22,73,45,45
2025-03-20 15:49:13.923,9264.0,-7257.0,4116.0,735.0,-771.0,-226.0,79,35,78,56,36
2025-03-20 15:49:13.947,2135.0,-3024.0,1933.0,665.0,288.0,182.0,88,48,83,68,48
2025-03-20 15:49:13.972,-96.0,-462.0,2498.0,-87.0,46.0,192.0,78,32,81,58,40
2025-03-20 15:49:13.996,257.0,-1736.0,2494.0,-230.0,169.0,228.0,94,44,80,66,46
2025-03-20 15:49:14.017,-1.0,-1287.0,1433.0,-37.0,276.0,265.0,83,44,80,70,46
2025-03-20 15:49:14.039,-592.0,-19.0,906.0,-90.0,299.0,250.0,107,46,81,72,51
2025-03-20 15:49:14.066,-396.0,-52.0,491.0,-128.0,316.0,212.0,101,39,76,69,46
2025-03-20 15:49:14.090,-35.0,-255.0,533.0,-61.0,346.0,208.0,84,36,79,64,46
2025-03-20 15:49:14.115,1739.0,-166.0,-48.0,-49.0,294.0,222.0,103,33,80,70,48
2025-03-20 15:49:14.140,-384.0,-74.0,54.0,-1.0,245.0,178.0,91,38,79,69,51
2025-03-20 15:49:14.164,-276.0,-223.0,89.0,3.0,252.0,142.0,90,45,80,70,53
2025-03-20 15:49:14.185,-830.0,-232.0,-65.0,38.0,195.0,128.0,98,32,83,71,55
2025-03-20 15:49:14.209,-255.0,268.0,-176.0,37.0,140.0,158.0,114,28,80,73,49
2025-03-20 15:49:14.234,-167.0,1057.0,-1081.0,112.0,95.0,149.0,117,46,81,72,55
2025-03-20 15:49:14.259,-621.0,3309.0,-2472.0,117.0,-37.0,-91.0,100,45,80,74,54
2025-03-20 15:49:14.283,-548.0,4330.0,-3769.0,-19.0,-369.0,-660.0,100,28,75,56,50
2025-03-20 15:49:14.307,1384.0,2380.0,-3774.0,139.0,-1035.0,-1029.0,96,31,76,59,46
2025-03-20 15:49:14.332,7911.0,-1980.0,-796.0,187.0,-1427.0,-715.0,94,34,79,62,45
2025-03-20 15:49:14.355,7859.0,-6063.0,5423.0,617.0,183.0,124.0,91,47,86,65,49
2025-03-20 15:49:14.378,325.0,-1564.0,1442.0,493.0,331.0,63.0,100,46,84,66,48
2025-03-20 15:49:14.402,-518.0,-311.0,1548.0,78.0,86.0,160.0,98,47,84,59,50
2025-03-20 15:49:14.427,-190.0,-889.0,1306.0,135.0,57.0,134.0,122,46,86,69,50
2025-03-20 15:49:14.451,-251.0,-549.0,794.0,246.0,83.0,104.0,112,38,85,74,55
2025-03-20 15:49:14.476,-317.0,-198.0,843.0,338.0,45.0,44.0,116,40,82,66,55
2025-03-20 15:49:14.500,-98.0,-55.0,1010.0,260.0,83.0,61.0,130,41,82,53,58
2025-03-20 15:49:14.521,-160.0,-4.0,726.0,196.0,94.0,67.0,120,38,81,56,53
2025-03-20 15:49:14.546,-340.0,422.0,709.0,201.0,85.0,82.0,120,41,81,54,26
2025-03-20 15:49:14.570,-170.0,276.0,857.0,127.0,74.0,84.0,124,42,84,52,51
2025-03-20 15:49:14.594,-125.0,193.0,630.0,109.0,84.0,59.0,124,40,86,63,79
2025-03-20 15:49:14.619,-260.0,663.0,488.0,191.0,61.0,67.0,125,40,84,64,80
2025-03-20 15:49:14.644,-717.0,1464.0,250.0,117.0,10.0,43.0,126,44,83,56,99
2025-03-20 15:49:14.668,-1566.0,2318.0,-628.0,30.0,-52.0,-19.0,123,43,86,47,108
2025-03-20 15:49:14.693,-2214.0,3089.0,-1089.0,-10.0,-110.0,-199.0,115,40,81,42,112
2025-03-20 15:49:14.717,-1613.0,2688.0,-1059.0,101.0,-297.0,-327.0,115,41,84,47,90
2025-03-20 15:49:14.738,690.0,1166.0,291.0,31.0,-461.0,-303.0,128,43,86,54,83
2025-03-20 15:49:14.760,2919.0,-709.0,2223.0,36.0,-300.0,-204.0,131,35,89,56,99
2025-03-20 15:49:14.785,2594.0,-1125.0,2955.0,-37.0,-18.0,-68.0,123,30,92,56,113
2025-03-20 15:49:14.811,1770.0,-1256.0,2229.0,-96.0,129.0,32.0,126,34,93,75,119
2025-03-20 15:49:14.834,897.0,-991.0,2019.0,-100.0,220.0,99.0,121,17,94,64,108
2025-03-20 15:49:14.860,139.0,-430.0,1168.0,-53.0,194.0,135.0,99,34,96,79,90
2025-03-20 15:49:14.881,-101.0,113.0,839.0,-70.0,145.0,153.0,109,27,93,81,114
2025-03-20 15:49:14.906,-205.0,500.0,919.0,-88.0,150.0,154.0,116,38,97,82,106
2025-03-20 15:49:14.931,-124.0,177.0,860.0,-48.0,181.0,140.0,112,37,97,84,116
2025-03-20 15:49:14.954,-372.0,712.0,643.0,-7.0,216.0,130.0,121,34,96,72,116
2025-03-20 15:49:14.971,-448.0,595.0,395.0,-57.0,144.0,114.0,105,34,97,82,103
2025-03-20 15:49:15.004,-317.0,477.0,648.0,-73.0,120.0,124.0,115,43,96,81,109
2025-03-20 15:49:15.028,-226.0,402.0,722.0,-36.0,146.0,119.0,121,45,98,82,108
2025-03-20 15:49:15.050,-475.0,582.0,352.0,11.0,135.0,103.0,116,45,99,84,117
2025-03-20 15:49:15.074,-441.0,798.0,376.0,10.0,79.0,86.0,102,40,100,85,121
2025-03-20 15:49:15.099,-337.0,1002.0,490.0,-13.0,72.0,92.0,103,38,96,81,120
2025-03-20 15:49:15.123,-626.0,2078.0,-238.0,-9.0,111.0,45.0,108,42,96,72,121
2025-03-20 15:49:15.147,-1891.0,3198.0,-2603.0,142.0,45.0,-174.0,101,46,91,71,121
2025-03-20 15:49:15.165,-2814.0,4710.0,-4162.0,196.0,-458.0,-378.0,102,35,87,36,126
2025-03-20 15:49:15.193,-3024.0,-3024.0,-3024.0,-378.0,-378.0,-378.0,98,41,89,68,127
2025-03-20 15:49:15.217,4385.0,-373.0,2637.0,79.0,-769.0,-325.0,127,39,94,61,120
2025-03-20 15:49:15.239,4316.0,-1164.0,3670.0,14.0,-169.0,-181.0,112,33,96,80,124
2025-03-20 15:49:15.265,2863.0,-1926.0,3053.0,-108.0,99.0,-13.0,104,33,96,85,127
2025-03-20 15:49:15.290,1677.0,-1631.0,2117.0,-143.0,224.0,95.0,102,25,98,78,109
2025-03-20 15:49:15.312,207.0,-1012.0,2558.0,-117.0,295.0,147.0,109,33,95,61,89
2025-03-20 15:49:15.336,-429.0,-244.0,528.0,-138.0,233.0,155.0,108,40,101,80,117
2025-03-20 15:49:15.361,-439.0,420.0,1189.0,-135.0,207.0,169.0,117,44,103,85,82
2025-03-20 15:49:15.371,-193.0,715.0,1251.0,-276.0,291.0,192.0,127,37,107,73,125
2025-03-20 15:49:15.409,-24.0,431.0,899.0,-244.0,352.0,198.0,130,48,110,78,126
2025-03-20 15:49:15.434,-368.0,406.0,790.0,-163.0,380.0,215.0,130,35,105,76,115
2025-03-20 15:49:15.458,-227.0,922.0,96.0,-36.0,385.0,181.0,132,45,111,75,105
2025-03-20 15:49:15.480,-829.0,653.0,-592.0,-100.0,275.0,148.0,112,56,119,14,110
2025-03-20 15:49:15.504,-796.0,478.0,-61.0,-2.0,221.0,70.0,130,52,124,86,99
2025-03-20 15:49:15.529,-919.0,538.0,-149.0,53.0,135.0,-4.0,126,56,128,106,103
2025-03-20 15:49:15.553,-619.0,1340.0,-523.0,-15.0,78.0,-29.0,106,60,129,107,100
2025-03-20 15:49:15.577,-273.0,1440.0,-2042.0,-90.0,-32.0,-127.0,119,73,130,106,111
2025-03-20 15:49:15.602,-1017.0,2198.0,-3298.0,-134.0,-374.0,-409.0,123,80,131,107,119
2025-03-20 15:49:15.626,-203.0,2406.0,-3302.0,-261.0,-622.0,-791.0,119,63,133,106,115
2025-03-20 15:49:15.651,2069.0,884.0,-2639.0,-546.0,-903.0,-955.0,116,70,140,106,77
2025-03-20 15:49:15.676,6575.0,-1254.0,-1261.0,-626.0,-1078.0,-672.0,132,69,147,109,61
2025-03-20 15:49:15.700,5748.0,-6293.0,1945.0,-502.0,-296.0,-48.0,139,88,150,112,118
2025-03-20 15:49:15.724,3382.0,-5099.0,-1606.0,739.0,248.0,232.0,127,2,144,109,117
2025-03-20 15:49:15.746,-5.0,-752.0,1930.0,670.0,283.0,284.0,120,79,142,110,97
2025-03-20 15:49:15.770,-832.0,-850.0,392.0,27.0,164.0,275.0,126,80,144,110,118
2025-03-20 15:49:15.795,-453.0,-1157.0,628.0,-216.0,-216.0,-216.0,133,103,145,111,106
2025-03-20 15:49:15.819,-242.0,-1051.0,607.0,122.0,302.0,150.0,128,100,148,112,121
2025-03-20 15:49:15.843,-48.0,-483.0,498.0,74.0,291.0,183.0,128,81,148,113,118
2025-03-20 15:49:15.868,70.0,-388.0,368.0,60.0,310.0,204.0,108,101,147,111,120
2025-03-20 15:49:15.892,-42.0,-345.0,208.0,177.0,277.0,267.0,120,106,147,114,121
2025-03-20 15:49:15.914,-269.0,-17.0,-135.0,84.0,255.0,269.0,117,83,140,111,116
2025-03-20 15:49:15.939,-509.0,47.0,16.0,110.0,225.0,253.0,122,84,141,111,118
2025-03-20 15:49:15.962,-359.0,300.0,-316.0,147.0,151.0,239.0,108,79,141,111,116
2025-03-20 15:49:15.986,-529.0,2024.0,-1277.0,155.0,97.0,137.0,103,92,141,112,107
2025-03-20 15:49:16.012,-1232.0,2697.0,-2681.0,20.0,-215.0,-254.0,115,95,144,114,110
2025-03-20 15:49:16.036,-727.0,2479.0,-2185.0,-116.0,-516.0,-664.0,124,105,146,115,119
2025-03-20 15:49:16.061,942.0,2743.0,-1579.0,-206.0,-615.0,-1016.0,102,90,143,111,120
2025-03-20 15:49:16.085,5762.0,101.0,151.0,-601.0,-874.0,-1085.0,122,79,145,110,119
2025-03-20 15:49:16.110,5666.0,-6509.0,-833.0,-404.0,-339.0,-255.0,124,93,147,103,121
2025-03-20 15:49:16.131,4653.0,-4677.0,1052.0,484.0,286.0,323.0,116,99,144,113,121
2025-03-20 15:49:16.155,124.0,-602.0,10.0,371.0,176.0,323.0,115,78,142,114,117
2025-03-20 15:49:16.180,-326.0,-764.0,541.0,99.0,219.0,218.0,122,82,144,116,124
2025-03-20 15:49:16.203,-450.0,-880.0,663.0,22.0,73.0,162.0,122,87,140,112,119
2025-03-20 15:49:16.229,86.0,-1026.0,628.0,104.0,96.0,144.0,127,66,134,110,123
2025-03-20 15:49:16.253,206.0,-1282.0,675.0,190.0,169.0,204.0,122,47,118,71,120
2025-03-20 15:49:16.277,225.0,-1182.0,63.0,331.0,174.0,303.0,107,40,105,41,118
2025-03-20 15:49:16.298,315.0,-293.0,-59.0,221.0,152.0,340.0,100,20,101,44,87
2025-03-20 15:49:16.323,118.0,125.0,-207.0,314.0,191.0,271.0,92,17,100,63,98
2025-03-20 15:49:16.347,-189.0,185.0,-305.0,282.0,69.0,221.0,94,31,97,72,99
2025-03-20 15:49:16.372,-459.0,18.0,-302.0,256.0,-56.0,169.0,92,41,96,75,119
2025-03-20 15:49:16.397,-264.0,957.0,416.0,297.0,-70.0,157.0,90,41,96,73,122
2025-03-20 15:49:16.421,-973.0,2270.0,-237.0,251.0,-15.0,59.0,85,40,97,79,125
2025-03-20 15:49:16.445,-2020.0,3380.0,-1375.0,265.0,-96.0,-63.0,73,40,99,75,124
2025-03-20 15:49:16.470,-2456.0,4539.0,-1750.0,266.0,-338.0,-289.0,76,38,93,71,124
2025-03-20 15:49:16.491,229.0,2525.0,236.0,182.0,-528.0,-387.0,87,42,95,74,127
2025-03-20 15:49:16.516,2682.0,256.0,2913.0,106.0,-376.0,-283.0,98,34,100,79,127
2025-03-20 15:49:16.540,2704.0,-1330.0,3502.0,13.0,-98.0,-151.0,100,34,101,74,128
2025-03-20 15:49:16.564,1990.0,-1696.0,2943.0,-68.0,11.0,-11.0,95,38,103,85,129
2025-03-20 15:49:16.589,1188.0,-1298.0,2264.0,-67.0,174.0,68.0,87,40,103,86,105
2025-03-20 15:49:16.611,-346.0,-232.0,631.0,-65.0,126.0,101.0,95,40,103,68,49
2025-03-20 15:49:16.632,-393.0,260.0,819.0,-83.0,46.0,105.0,102,40,103,88,94
2025-03-20 15:49:16.659,-275.0,290.0,1194.0,-78.0,84.0,102.0,102,41,106,86,102
2025-03-20 15:49:16.683,-399.0,548.0,789.0,-23.0,136.0,79.0,102,38,103,84,105
2025-03-20 15:49:16.706,-632.0,653.0,352.0,-36.0,106.0,73.0,102,40,102,88,53
2025-03-20 15:49:16.732,-442.0,535.0,624.0,-75.0,49.0,79.0,103,41,101,89,85
2025-03-20 15:49:16.756,-83.0,237.0,1045.0,-54.0,93.0,90.0,105,45,103,88,101
2025-03-20 15:49:16.782,-59.0,319.0,867.0,-11.0,157.0,112.0,107,43,104,89,100
2025-03-20 15:49:16.803,-272.0,542.0,585.0,-14.0,125.0,115.0,106,44,104,87,123
2025-03-20 15:49:16.827,-231.0,854.0,705.0,-44.0,136.0,121.0,105,44,105,78,127
2025-03-20 15:49:16.852,-707.0,1645.0,-179.0,-43.0,209.0,76.0,102,44,106,83,124
2025-03-20 15:49:16.876,-1747.0,2902.0,-2254.0,68.0,191.0,-11.0,76,39,102,79,107
2025-03-20 15:49:16.896,-3314.0,4435.0,-4257.0,105.0,-226.0,-311.0,101,43,99,71,124
2025-03-20 15:49:16.925,-255.0,2933.0,-2276.0,-82.0,-813.0,-486.0,85,43,97,80,122
2025-03-20 15:49:16.949,5150.0,-2348.0,3862.0,-40.0,-550.0,-239.0,87,41,99,65,129
2025-03-20 15:49:16.974,3560.0,-2226.0,4479.0,42.0,112.0,-97.0,95,42,105,84,128
2025-03-20 15:49:16.995,1590.0,-2165.0,2857.0,-61.0,198.0,38.0,95,44,104,90,132
2025-03-20 15:49:17.019,538.0,-1172.0,2204.0,-279.0,239.0,111.0,102,45,106,86,118
2025-03-20 15:49:17.044,-704.0,-800.0,1075.0,-121.0,213.0,139.0,109,49,110,86,88
2025-03-20 15:49:17.068,-832.0,479.0,1073.0,-145.0,169.0,143.0,112,50,112,93,123
2025-03-20 15:49:17.093,-750.0,530.0,1088.0,-197.0,153.0,102.0,107,45,112,83,124
2025-03-20 15:49:17.117,-502.0,146.0,1119.0,-146.0,171.0,103.0,114,46,118,84,126
2025-03-20 15:49:17.139,-347.0,343.0,808.0,-86.0,250.0,140.0,120,45,117,68,121
2025-03-20 15:49:17.163,-692.0,711.0,752.0,-126.0,247.0,138.0,120,42,128,81,88
2025-03-20 15:49:17.188,-803.0,408.0,338.0,-140.0,252.0,132.0,120,54,135,81,42
2025-03-20 15:49:17.212,-747.0,520.0,118.0,-49.0,269.0,114.0,114,71,143,78,59
2025-03-20 15:49:17.236,-1031.0,975.0,-323.0,1.0,202.0,1.0,119,79,147,84,54
2025-03-20 15:49:17.261,-927.0,2116.0,-1805.0,-155.0,-11.0,-197.0,120,79,152,79,64
2025-03-20 15:49:17.285,-698.0,2279.0,-3358.0,-251.0,-307.0,-447.0,114,72,147,69,41
2025-03-20 15:49:17.310,1.0,2319.0,-3939.0,-186.0,-746.0,-679.0,95,87,150,70,35
2025-03-20 15:49:17.329,2510.0,-69.0,-2789.0,-160.0,-1083.0,-620.0,91,81,151,66,40
2025-03-20 15:49:17.356,5039.0,-1738.0,615.0,-60.0,-948.0,-354.0,108,60,151,73,46
2025-03-20 15:49:17.380,4958.0,-3887.0,3532.0,11.0,-156.0,-35.0,103,76,152,72,61
2025-03-20 15:49:17.404,2075.0,-2773.0,3507.0,205.0,239.0,70.0,100,67,151,78,66
2025-03-20 15:49:17.429,571.0,-1859.0,2135.0,-93.0,178.0,182.0,105,92,152,79,62
2025-03-20 15:49:17.453,221.0,-1228.0,1601.0,-98.0,200.0,188.0,110,88,152,82,60
2025-03-20 15:49:17.474,-37.0,-942.0,925.0,-47.0,225.0,187.0,97,102,148,82,67
2025-03-20 15:49:17.499,101.0,-580.0,654.0,-20.0,204.0,168.0,103,104,149,76,60
2025-03-20 15:49:17.511,281.0,-804.0,531.0,24.0,226.0,186.0,102,114,150,76,59
2025-03-20 15:49:17.547,103.0,-427.0,305.0,86.0,264.0,224.0,101,112,151,81,62
2025-03-20 15:49:17.572,-320.0,72.0,237.0,41.0,254.0,235.0,107,108,152,79,64
2025-03-20 15:49:17.596,-146.0,-39.0,320.0,17.0,253.0,220.0,114,117,155,72,63
2025-03-20 15:49:17.621,-196.0,-267.0,208.0,132.0,279.0,216.0,111,121,155,80,69
2025-03-20 15:49:17.645,-556.0,587.0,146.0,113.0,244.0,146.0,97,106,154,81,70
2025-03-20 15:49:17.667,-728.0,870.0,-56.0,24.0,197.0,85.0,106,121,154,83,70
2025-03-20 15:49:17.692,-1111.0,2092.0,-2109.0,119.0,94.0,-63.0,100,119,143,79,68
2025-03-20 15:49:17.711,-1638.0,4129.0,-3630.0,121.0,-399.0,-536.0,105,117,152,76,67
2025-03-20 15:49:17.740,690.0,2106.0,-2915.0,23.0,-973.0,-850.0,101,109,152,70,57
2025-03-20 15:49:17.764,6224.0,-1565.0,115.0,43.0,-1161.0,-589.0,97,114,152,80,64
2025-03-20 15:49:17.789,5930.0,-4794.0,4212.0,111.0,-49.0,-33.0,118,112,152,72,69
2025-03-20 15:49:17.813,1597.0,-2225.0,2244.0,325.0,280.0,75.0,115,96,152,85,70
2025-03-20 15:49:17.835,140.0,-1266.0,1803.0,-121.0,89.0,137.0,103,89,154,88,68
2025-03-20 15:49:17.857,-112.0,-1105.0,1414.0,-4.0,126.0,121.0,117,110,154,88,70
2025-03-20 15:49:17.883,-223.0,-536.0,974.0,30.0,176.0,92.0,115,110,154,88,67
2025-03-20 15:49:17.908,9.0,-758.0,625.0,18.0,152.0,106.0,118,110,149,84,66
2025-03-20 15:49:17.932,330.0,-942.0,587.0,109.0,152.0,148.0,118,113,151,84,66
2025-03-20 15:49:17.957,328.0,-884.0,479.0,179.0,189.0,196.0,114,101,153,85,65
2025-03-20 15:49:17.981,90.0,-457.0,491.0,198.0,229.0,257.0,117,89,149,84,70
2025-03-20 15:49:17.989,9.0,-518.0,375.0,201.0,242.0,296.0,127,87,148,80,72
2025-03-20 15:49:18.027,-80.0,-251.0,120.0,225.0,215.0,321.0,129,59,145,89,82
2025-03-20 15:49:18.051,-270.0,72.0,-66.0,263.0,124.0,307.0,130,49,132,72,88
2025-03-20 15:49:18.076,-336.0,472.0,-217.0,269.0,29.0,258.0,118,51,124,88,79
2025-03-20 15:49:18.092,-631.0,1400.0,-231.0,292.0,-51.0,159.0,122,47,124,87,72
2025-03-20 15:49:18.125,-982.0,3255.0,-1183.0,268.0,-114.0,0.0,120,46,116,89,76
2025-03-20 15:49:18.150,-1978.0,3679.0,-2731.0,203.0,-213.0,-227.0,107,41,101,79,100
2025-03-20 15:49:18.172,-2088.0,3697.0,-3008.0,190.0,-568.0,-337.0,111,41,98,88,106
2025-03-20 15:49:18.196,1822.0,1879.0,-362.0,125.0,-789.0,-342.0,121,47,107,94,116
2025-03-20 15:49:18.220,3945.0,-320.0,2662.0,182.0,-546.0,-210.0,131,34,118,85,116
2025-03-20 15:49:18.245,3692.0,-716.0,3847.0,18.0,-207.0,-59.0,114,32,120,92,111
2025-03-20 15:49:18.262,2742.0,-1203.0,3282.0,-69.0,61.0,41.0,127,44,119,93,122
2025-03-20 15:49:18.293,1063.0,-714.0,1786.0,-56.0,214.0,82.0,120,27,119,80,93
2025-03-20 15:49:18.317,-84.0,-277.0,1436.0,-85.0,225.0,101.0,114,33,120,78,71
2025-03-20 15:49:18.334,-106.0,430.0,845.0,-80.0,155.0,117.0,123,40,122,93,109
2025-03-20 15:49:18.363,-205.0,736.0,616.0,-60.0,135.0,112.0,119,41,123,88,120
2025-03-20 15:49:18.387,-22.0,548.0,958.0,-59.0,184.0,109.0,122,35,123,97,122
2025-03-20 15:49:18.412,-339.0,824.0,949.0,-17.0,197.0,108.0,125,47,128,89,110
2025-03-20 15:49:18.437,-566.0,948.0,159.0,-29.0,163.0,99.0,126,33,129,99,52
2025-03-20 15:49:18.459,-468.0,686.0,175.0,-26.0,113.0,69.0,130,42,127,99,52
2025-03-20 15:49:18.485,-370.0,648.0,422.0,-8.0,109.0,72.0,131,43,125,99,96
2025-03-20 15:49:18.507,-363.0,657.0,440.0,10.0,108.0,93.0,133,45,127,91,110
2025-03-20 15:49:18.529,-338.0,1023.0,332.0,2.0,106.0,81.0,124,44,123,76,118
2025-03-20 15:49:18.556,-831.0,2338.0,-439.0,-47.0,171.0,6.0,130,50,124,80,105
2025-03-20 15:49:18.580,-1989.0,2521.0,-2681.0,-33.0,98.0,-144.0,113,48,120,77,108
2025-03-20 15:49:18.605,-2340.0,3120.0,-3921.0,150.0,-455.0,-295.0,116,52,114,81,110
2025-03-20 15:49:18.629,1447.0,2305.0,-1174.0,18.0,-902.0,-350.0,130,55,111,89,115
2025-03-20 15:49:18.654,4846.0,-1435.0,4116.0,41.0,-523.0,-122.0,129,38,129,89,103
2025-03-20 15:49:18.678,3457.0,-1114.0,4657.0,-15.0,72.0,-85.0,123,42,135,96,129
2025-03-20 15:49:18.687,1756.0,-1222.0,2936.0,-75.0,224.0,24.0,129,48,135,100,116
2025-03-20 15:49:18.723,416.0,-533.0,1828.0,-194.0,269.0,98.0,124,39,132,86,119
2025-03-20 15:49:18.748,-209.0,207.0,1161.0,-209.0,291.0,107.0,116,50,123,85,72
2025-03-20 15:49:18.772,-415.0,601.0,1295.0,-186.0,255.0,103.0,117,43,124,93,105
2025-03-20 15:49:18.797,-461.0,787.0,926.0,-219.0,295.0,67.0,118,44,123,88,51
2025-03-20 15:49:18.822,-357.0,700.0,1151.0,-221.0,306.0,54.0,123,42,125,93,104
2025-03-20 15:49:18.842,-373.0,636.0,847.0,-246.0,350.0,46.0,129,46,120,94,77
2025-03-20 15:49:18.867,-407.0,192.0,568.0,-209.0,369.0,82.0,129,54,116,89,68
2025-03-20 15:49:18.891,-537.0,282.0,354.0,-154.0,351.0,106.0,130,53,114,93,75
2025-03-20 15:49:18.916,-377.0,392.0,78.0,-120.0,348.0,81.0,126,45,110,87,75
2025-03-20 15:49:18.936,648.0,648.0,648.0,81.0,81.0,81.0,118,35,101,77,52
2025-03-20 15:49:18.961,-288.0,1493.0,-1151.0,-124.0,177.0,-22.0,119,52,100,79,50
2025-03-20 15:49:18.983,-186.0,2503.0,-2947.0,-52.0,4.0,-226.0,118,45,93,78,49
2025-03-20 15:49:19.010,-425.0,2617.0,-4846.0,-82.0,-452.0,-534.0,109,43,86,70,49
2025-03-20 15:49:19.034,1805.0,3818.0,-4844.0,-107.0,-1018.0,-852.0,112,27,87,79,49
2025-03-20 15:49:19.059,7116.0,-45.0,-1819.0,-72.0,-1468.0,-748.0,96,39,87,75,52
2025-03-20 15:49:19.081,8978.0,-6666.0,6478.0,481.0,-128.0,61.0,89,43,91,81,47
2025-03-20 15:49:19.105,969.0,-1242.0,2746.0,597.0,191.0,119.0,68,31,90,76,46
2025-03-20 15:49:19.129,-339.0,140.0,3532.0,-219.0,18.0,126.0,85,29,89,71,47
2025-03-20 15:49:19.153,121.0,-1167.0,3127.0,-242.0,229.0,68.0,103,34,93,84,52
2025-03-20 15:49:19.178,-565.0,-605.0,1492.0,-148.0,267.0,85.0,102,36,93,86,55
2025-03-20 15:49:19.203,-626.0,-306.0,625.0,-185.0,191.0,71.0,108,44,96,88,57
2025-03-20 15:49:19.227,-414.0,-629.0,607.0,-204.0,175.0,89.0,92,40,95,85,53
2025-03-20 15:49:19.251,94.0,-673.0,689.0,-101.0,224.0,103.0,109,43,97,86,56
2025-03-20 15:49:19.272,-264.0,-608.0,291.0,-35.0,221.0,123.0,98,41,93,82,51
2025-03-20 15:49:19.297,-264.0,-193.0,394.0,-43.0,204.0,130.0,104,44,93,83,52
2025-03-20 15:49:19.310,-212.0,-236.0,432.0,-91.0,242.0,154.0,92,45,95,83,49
2025-03-20 15:49:19.346,-302.0,-429.0,272.0,-26.0,242.0,193.0,97,43,95,83,49
2025-03-20 15:49:19.370,-292.0,56.0,-54.0,50.0,222.0,229.0,100,47,99,87,54
2025-03-20 15:49:19.395,-361.0,875.0,-725.0,63.0,158.0,237.0,107,46,98,86,56
2025-03-20 15:49:19.417,-537.0,2568.0,-2278.0,229.0,72.0,-2.0,117,43,98,87,61
2025-03-20 15:49:19.444,-1326.0,3959.0,-4516.0,96.0,-417.0,-501.0,102,43,89,85,53
2025-03-20 15:49:19.465,1481.0,3453.0,-4381.0,-80.0,-1078.0,-912.0,94,40,90,76,52
2025-03-20 15:49:19.490,7923.0,-2510.0,3431.0,151.0,-1251.0,-654.0,83,41,90,79,45
2025-03-20 15:49:19.512,6588.0,-4966.0,5536.0,568.0,275.0,33.0,81,34,93,82,55
2025-03-20 15:49:19.537,-223.0,464.0,2179.0,213.0,188.0,89.0,91,37,93,78,57
2025-03-20 15:49:19.560,-175.0,-1320.0,1790.0,-292.0,66.0,12.0,83,36,90,83,57
2025-03-20 15:49:19.586,-275.0,-1017.0,1119.0,-115.0,91.0,35.0,84,45,92,85,58
2025-03-20 15:49:19.609,-520.0,-446.0,457.0,-38.0,63.0,11.0,99,45,93,86,58
2025-03-20 15:49:19.633,-209.0,-593.0,533.0,-62.0,29.0,-4.0,99,48,93,87,57
2025-03-20 15:49:19.657,55.0,-804.0,646.0,-33.0,45.0,3.0,90,46,93,84,60
2025-03-20 15:49:19.681,-40.0,-841.0,535.0,15.0,36.0,34.0,99,42,89,83,56
2025-03-20 15:49:19.698,-190.0,-572.0,614.0,40.0,19.0,32.0,98,46,90,84,57
2025-03-20 15:49:19.730,-236.0,-475.0,686.0,32.0,6.0,33.0,95,45,90,83,56
2025-03-20 15:49:19.755,-240.0,-373.0,750.0,-1.0,26.0,22.0,92,47,89,84,56
2025-03-20 15:49:19.776,-325.0,-564.0,681.0,2.0,2.0,15.0,99,49,93,84,58
2025-03-20 15:49:19.801,-290.0,-536.0,707.0,18.0,-10.0,8.0,104,50,92,86,57
2025-03-20 15:49:19.825,-160.0,-424.0,882.0,-18.0,5.0,1.0,104,50,93,85,59
2025-03-20 15:49:19.847,-229.0,-591.0,743.0,-34.0,1.0,-1.0,102,48,90,84,57
2025-03-20 15:49:19.874,-243.0,-662.0,679.0,-6.0,-5.0,4.0,103,49,91,85,57
2025-03-20 15:49:19.898,-241.0,-518.0,703.0,6.0,-9.0,-2.0,101,46,89,83,54
2025-03-20 15:49:19.923,-183.0,-545.0,788.0,-13.0,-4.0,-5.0,100,46,88,83,54
2025-03-20 15:49:19.945,-231.0,-761.0,804.0,2.0,-6.0,0.0,101,47,88,81,54
2025-03-20 15:49:19.969,-218.0,-723.0,898.0,35.0,1.0,11.0,101,48,86,83,55
2025-03-20 15:49:19.994,-259.0,-577.0,925.0,30.0,17.0,13.0,103,50,91,85,57
2025-03-20 15:49:20.018,-291.0,-467.0,883.0,-7.0,18.0,-1.0,104,52,92,86,57
2025-03-20 15:49:20.041,-278.0,-640.0,811.0,-19.0,4.0,-5.0,106,50,92,86,63
2025-03-20 15:49:20.064,-209.0,-638.0,811.0,-8.0,17.0,-2.0,105,47,90,84,56
2025-03-20 15:49:20.091,-287.0,-621.0,645.0,-5.0,8.0,-5.0,103,45,89,84,56
2025-03-20 15:49:20.113,-255.0,-657.0,653.0,3.0,-1.0,-2.0,101,47,89,83,56
2025-03-20 15:49:20.137,-171.0,-646.0,800.0,1.0,4.0,1.0,102,48,88,83,54
2025-03-20 15:49:20.161,-289.0,-690.0,778.0,5.0,4.0,9.0,101,47,89,83,55
2025-03-20 15:49:20.186,-241.0,-625.0,884.0,16.0,8.0,7.0,104,47,90,84,55
2025-03-20 15:49:20.210,-342.0,-504.0,794.0,3.0,5.0,5.0,103,48,92,82,53
2025-03-20 15:49:20.233,-310.0,-540.0,759.0,-21.0,-2.0,-6.0,103,48,90,83,56
2025-03-20 15:49:20.259,-209.0,-709.0,795.0,-6.0,9.0,1.0,103,47,91,84,56
2025-03-20 15:49:20.280,-256.0,-635.0,701.0,9.0,10.0,5.0,104,48,89,83,56
2025-03-20 15:49:20.305,-252.0,-591.0,732.0,-2.0,-1.0,4.0,102,48,88,82,55
2025-03-20 15:49:20.329,-280.0,-624.0,760.0,2.0,-5.0,8.0,104,47,88,88,54
2025-03-20 15:49:20.353,-296.0,-543.0,786.0,3.0,-2.0,6.0,103,48,89,82,55
2025-03-20 15:49:20.377,-264.0,-525.0,830.0,-6.0,1.0,0.0,102,48,89,84,56
2025-03-20 15:49:20.402,-239.0,-674.0,826.0,-5.0,9.0,5.0,103,49,91,83,56
2025-03-20 15:49:20.427,-273.0,-615.0,773.0,4.0,9.0,8.0,103,49,90,83,56
2025-03-20 15:49:20.448,-310.0,-549.0,730.0,-3.0,-1.0,7.0,107,50,90,87,56
2025-03-20 15:49:20.473,-299.0,-516.0,745.0,-19.0,-6.0,-2.0,104,49,90,84,56
2025-03-20 15:49:20.497,-248.0,-664.0,793.0,-5.0,-1.0,2.0,104,49,90,84,55
2025-03-20 15:49:20.522,-271.0,-595.0,760.0,5.0,2.0,5.0,103,48,88,81,55
2025-03-20 15:49:20.546,-264.0,-581.0,790.0,-5.0,0.0,3.0,103,48,89,83,55
2025-03-20 15:49:20.570,-300.0,-597.0,786.0,-4.0,-3.0,3.0,104,49,90,83,55
2025-03-20 15:49:20.594,-302.0,-585.0,809.0,4.0,1.0,5.0,103,49,90,85,57
2025-03-20 15:49:20.616,-309.0,-537.0,805.0,2.0,7.0,0.0,103,49,89,83,56
2025-03-20 15:49:20.641,-322.0,-587.0,778.0,-6.0,3.0,-4.0,104,49,90,84,57
2025-03-20 15:49:20.665,-284.0,-642.0,796.0,-1.0,0.0,-1.0,104,49,90,83,56
2025-03-20 15:49:20.689,-277.0,-635.0,801.0,3.0,6.0,3.0,104,49,90,83,57
2025-03-20 15:49:20.714,-278.0,-607.0,815.0,4.0,10.0,5.0,103,48,89,82,55
2025-03-20 15:49:20.739,-344.0,-532.0,749.0,-5.0,5.0,1.0,103,49,89,83,55
2025-03-20 15:49:20.763,-326.0,-589.0,746.0,-12.0,-4.0,-3.0,103,48,89,82,56
2025-03-20 15:49:20.785,-259.0,-661.0,808.0,-2.0,2.0,0.0,104,49,89,84,56
2025-03-20 15:49:20.809,-291.0,-613.0,760.0,1.0,9.0,4.0,104,49,90,83,57
2025-03-20 15:49:20.833,-336.0,-574.0,728.0,0.0,11.0,3.0,105,50,90,83,56
2025-03-20 15:49:20.858,-344.0,-565.0,689.0,-4.0,5.0,0.0,105,49,90,85,57
2025-03-20 15:49:20.882,-324.0,-632.0,683.0,1.0,0.0,-2.0,104,49,89,83,56
2025-03-20 15:49:20.906,-315.0,-577.0,714.0,-1.0,-6.0,-1.0,104,50,91,83,58
2025-03-20 15:49:20.931,-303.0,-601.0,749.0,-4.0,0.0,-3.0,106,50,90,81,55
2025-03-20 15:49:20.955,-312.0,-593.0,758.0,-2.0,-1.0,-3.0,103,48,89,83,56
2025-03-20 15:49:20.977,-327.0,-606.0,760.0,-4.0,-5.0,-2.0,104,50,89,83,56
2025-03-20 15:49:21.001,-304.0,-619.0,788.0,-1.0,-2.0,-2.0,104,49,90,83,57
2025-03-20 15:49:21.026,-312.0,-581.0,788.0,-6.0,0.0,-2.0,105,48,90,82,56
2025-03-20 15:49:21.050,-317.0,-634.0,775.0,-7.0,1.0,-1.0,104,49,90,83,56
2025-03-20 15:49:21.074,-329.0,-628.0,727.0,2.0,-2.0,0.0,105,49,91,83,57
2025-03-20 15:49:21.099,-316.0,-606.0,750.0,4.0,-2.0,1.0,104,49,91,85,58
2025-03-20 15:49:21.123,-321.0,-584.0,757.0,-3.0,-5.0,-1.0,104,49,89,83,56
2025-03-20 15:49:21.145,-332.0,-600.0,773.0,-1.0,-6.0,-2.0,104,49,89,83,56
2025-03-20 15:49:21.169,-280.0,-627.0,808.0,-2.0,-1.0,-1.0,104,49,90,83,56
2025-03-20 15:49:21.193,-301.0,-624.0,777.0,0.0,0.0,1.0,104,49,89,84,56
2025-03-20 15:49:21.217,-321.0,-606.0,763.0,-5.0,-5.0,1.0,105,48,90,84,56
2025-03-20 15:49:21.242,-298.0,-615.0,778.0,-3.0,-5.0,1.0,106,49,91,84,57
2025-03-20 15:49:21.267,-292.0,-631.0,794.0,0.0,0.0,3.0,105,50,91,84,57
2025-03-20 15:49:21.291,-315.0,-595.0,783.0,3.0,3.0,5.0,105,49,90,84,57
2025-03-20 15:49:21.313,-333.0,-559.0,758.0,-3.0,-4.0,3.0,105,50,90,84,57
2025-03-20 15:49:21.337,-299.0,-599.0,780.0,-3.0,-3.0,2.0,104,49,90,79,56
2025-03-20 15:49:21.361,-295.0,-599.0,767.0,4.0,2.0,3.0,105,48,90,84,55
2025-03-20 15:49:21.386,-335.0,-535.0,763.0,0.0,0.0,0.0,104,48,90,84,56
2025-03-20 15:49:21.411,-323.0,-585.0,776.0,-4.0,-3.0,-2.0,104,49,92,83,57
2025-03-20 15:49:21.435,-310.0,-619.0,774.0,1.0,-1.0,0.0,104,49,90,83,57
2025-03-20 15:49:21.459,-306.0,-607.0,791.0,1.0,1.0,0.0,105,50,92,84,57
2025-03-20 15:49:21.480,-326.0,-553.0,771.0,-4.0,-1.0,-2.0,107,49,91,85,57
2025-03-20 15:49:21.504,-305.0,-611.0,768.0,-4.0,-1.0,-2.0,105,50,90,84,57
2025-03-20 15:49:21.529,-322.0,-603.0,754.0,-1.0,0.0,-2.0,105,49,90,83,56
2025-03-20 15:49:21.540,-323.0,-591.0,745.0,-3.0,-2.0,-3.0,104,49,90,84,56
2025-03-20 15:49:21.576,-289.0,-678.0,792.0,-1.0,1.0,0.0,105,49,89,87,56
2025-03-20 15:49:21.602,-317.0,-617.0,763.0,8.0,4.0,3.0,104,52,90,87,56
2025-03-20 15:49:21.627,-341.0,-558.0,753.0,-2.0,-2.0,-2.0,104,49,91,84,57
2025-03-20 15:49:21.649,-308.0,-653.0,778.0,-2.0,-1.0,0.0,105,50,90,84,55
2025-03-20 15:49:21.673,-316.0,-591.0,771.0,4.0,2.0,1.0,104,50,91,85,57
2025-03-20 15:49:21.692,-326.0,-592.0,753.0,-4.0,-2.0,-2.0,106,50,89,85,58
2025-03-20 15:49:21.722,-321.0,-610.0,769.0,-3.0,-4.0,0.0,105,50,91,83,57
2025-03-20 15:49:21.746,-303.0,-603.0,782.0,3.0,1.0,2.0,104,49,89,84,56
2025-03-20 15:49:21.771,-319.0,-575.0,750.0,-1.0,3.0,0.0,105,49,90,83,57
2025-03-20 15:49:21.795,-332.0,-595.0,743.0,-4.0,-2.0,-1.0,105,48,90,84,56
2025-03-20 15:49:21.817,-293.0,-625.0,779.0,3.0,2.0,2.0,105,52,90,83,56
2025-03-20 15:49:21.841,-320.0,-565.0,758.0,2.0,3.0,1.0,105,51,91,83,57
2025-03-20 15:49:21.865,-334.0,-575.0,742.0,-5.0,-3.0,-2.0,106,50,90,84,57
2025-03-20 15:49:21.890,-304.0,-613.0,772.0,-4.0,-4.0,-2.0,106,50,91,84,58
2025-03-20 15:49:21.910,-291.0,-630.0,779.0,2.0,1.0,1.0,106,50,91,84,58
2025-03-20 15:49:21.938,-314.0,-596.0,750.0,-1.0,-1.0,2.0,107,50,90,85,58
2025-03-20 15:49:21.963,-318.0,-592.0,784.0,-5.0,-3.0,1.0,105,50,90,83,56
2025-03-20 15:49:21.984,-338.0,-589.0,749.0,4.0,-2.0,2.0,104,49,90,82,56
2025-03-20 15:49:22.009,-326.0,-583.0,788.0,-2.0,-3.0,-1.0,105,49,90,82,56
