timestamp,ax,ay,az,gx,gy,gz,flex1,flex2,flex3,flex4,flex5,emg1,emg2,emg3
2025-03-20 16:13:26.161,-531.0,-634.0,599.0,-1.0,-1.0,-1.0,116,54,110,101,66
2025-03-20 16:13:26.161,-531.0,-630.0,603.0,-1.0,-1.0,0.0,116,55,110,101,67
2025-03-20 16:13:26.166,-528.0,-622.0,609.0,-1.0,-1.0,-1.0,113,55,110,106,66
2025-03-20 16:13:26.168,-530.0,-629.0,610.0,-2.0,0.0,-1.0,115,52,109,101,64
2025-03-20 16:13:26.168,-530.0,-633.0,595.0,-2.0,-1.0,-1.0,115,54,109,100,66
2025-03-20 16:13:26.173,-526.0,-637.0,601.0,-1.0,-1.0,0.0,115,54,109,100,65
2025-03-20 16:13:26.175,-530.0,-632.0,610.0,0.0,-1.0,-1.0,116,53,110,100,65
2025-03-20 16:13:26.175,-532.0,-621.0,609.0,-2.0,-1.0,-1.0,116,54,110,101,66
2025-03-20 16:13:26.175,-528.0,-632.0,607.0,-2.0,-1.0,-2.0,116,55,110,102,66
2025-03-20 16:13:26.186,-528.0,-641.0,604.0,-1.0,-1.0,0.0,116,55,110,102,67
2025-03-20 16:13:26.211,-538.0,-628.0,603.0,-1.0,-2.0,0.0,116,55,109,102,67
2025-03-20 16:13:26.232,-530.0,-625.0,609.0,-1.0,-1.0,-1.0,116,55,111,102,67
2025-03-20 16:13:26.257,-527.0,-631.0,606.0,-1.0,-1.0,-1.0,115,53,110,100,65
2025-03-20 16:13:26.280,-526.0,-624.0,610.0,-1.0,0.0,0.0,116,54,109,101,66
2025-03-20 16:13:26.306,-531.0,-621.0,607.0,-2.0,-1.0,-1.0,115,53,108,101,66
2025-03-20 16:13:26.330,-524.0,-639.0,614.0,-2.0,0.0,-1.0,116,53,110,101,66
2025-03-20 16:13:26.352,-533.0,-632.0,599.0,-2.0,-1.0,-1.0,116,54,110,101,66
2025-03-20 16:13:26.377,-540.0,-630.0,598.0,-1.0,-2.0,-1.0,117,54,110,101,67
2025-03-20 16:13:26.400,-526.0,-633.0,609.0,-1.0,-1.0,-1.0,117,54,110,101,67
2025-03-20 16:13:26.424,-529.0,-625.0,611.0,-1.0,-1.0,-1.0,116,55,109,100,67
2025-03-20 16:13:26.449,-533.0,-633.0,610.0,-1.0,-1.0,-1.0,115,54,108,100,65
2025-03-20 16:13:26.473,-530.0,-636.0,604.0,-1.0,-1.0,-1.0,116,54,108,103,67
2025-03-20 16:13:26.498,-535.0,-634.0,600.0,-1.0,-1.0,-1.0,115,54,109,101,65
2025-03-20 16:13:26.523,-532.0,-632.0,602.0,-1.0,-1.0,-1.0,115,55,110,101,66
2025-03-20 16:13:26.546,-525.0,-636.0,609.0,-1.0,-1.0,-1.0,116,54,109,101,65
2025-03-20 16:13:26.568,-533.0,-632.0,609.0,-1.0,0.0,0.0,116,55,110,101,67
2025-03-20 16:13:26.593,-538.0,-625.0,597.0,-1.0,-1.0,-1.0,116,54,110,102,66
2025-03-20 16:13:26.617,-526.0,-639.0,617.0,0.0,-1.0,-1.0,116,55,111,103,66
2025-03-20 16:13:26.629,-528.0,-630.0,607.0,-1.0,0.0,0.0,116,61,110,102,66
2025-03-20 16:13:26.665,-538.0,-619.0,605.0,-1.0,-1.0,-1.0,116,53,108,101,66
2025-03-20 16:13:26.690,-528.0,-631.0,616.0,-1.0,0.0,-2.0,115,53,109,101,66
2025-03-20 16:13:26.714,-525.0,-637.0,608.0,-2.0,0.0,-1.0,115,54,110,101,65
2025-03-20 16:13:26.736,-530.0,-631.0,598.0,-1.0,-1.0,-1.0,116,55,110,100,66
2025-03-20 16:13:26.760,-530.0,-635.0,610.0,-1.0,-1.0,-1.0,111,54,109,101,66
2025-03-20 16:13:26.785,-537.0,-630.0,603.0,-1.0,-1.0,-1.0,115,54,110,102,66
2025-03-20 16:13:26.809,-533.0,-622.0,604.0,-1.0,-1.0,-2.0,115,55,110,101,67
2025-03-20 16:13:26.833,-527.0,-637.0,608.0,-1.0,-1.0,-2.0,116,55,110,104,66
2025-03-20 16:13:26.858,-529.0,-639.0,605.0,-1.0,0.0,-1.0,116,54,110,102,66
2025-03-20 16:13:26.882,-529.0,-630.0,604.0,-1.0,-1.0,-2.0,116,54,110,101,66
2025-03-20 16:13:26.904,-523.0,-636.0,607.0,-1.0,-1.0,-1.0,116,54,109,102,65
2025-03-20 16:13:26.927,-534.0,-633.0,602.0,-1.0,-1.0,0.0,116,54,109,102,66
2025-03-20 16:13:26.951,-532.0,-628.0,604.0,-1.0,-1.0,-1.0,117,55,110,101,67
2025-03-20 16:13:26.977,-540.0,-623.0,596.0,-1.0,-1.0,-1.0,116,54,109,102,66
2025-03-20 16:13:27.002,-529.0,-631.0,611.0,-1.0,0.0,-1.0,117,53,110,102,67
2025-03-20 16:13:27.026,-522.0,-636.0,611.0,-1.0,0.0,-1.0,116,53,110,103,67
2025-03-20 16:13:27.051,-534.0,-629.0,600.0,-1.0,-1.0,0.0,117,55,111,102,67
2025-03-20 16:13:27.075,-538.0,-628.0,604.0,-1.0,-2.0,-1.0,115,53,108,100,65
2025-03-20 16:13:27.096,-524.0,-635.0,623.0,-2.0,0.0,-1.0,115,53,109,101,65
2025-03-20 16:13:27.121,-529.0,-626.0,595.0,-2.0,0.0,-2.0,115,54,109,101,66
2025-03-20 16:13:27.133,-529.0,-648.0,601.0,0.0,-1.0,-1.0,116,54,109,101,65
2025-03-20 16:13:27.170,-523.0,-640.0,608.0,-1.0,-1.0,0.0,116,54,109,102,65
2025-03-20 16:13:27.194,-532.0,-624.0,608.0,-1.0,0.0,-1.0,116,54,111,102,67
2025-03-20 16:13:27.219,-532.0,-614.0,602.0,-1.0,-1.0,-2.0,117,54,110,101,68
2025-03-20 16:13:27.240,-528.0,-637.0,608.0,-1.0,0.0,-2.0,117,54,109,101,70
2025-03-20 16:13:27.264,-526.0,-641.0,595.0,-1.0,-1.0,0.0,116,55,110,102,66
2025-03-20 16:13:27.286,-531.0,-638.0,611.0,0.0,-1.0,0.0,115,53,108,100,65
2025-03-20 16:13:27.313,-534.0,-623.0,609.0,-2.0,0.0,-1.0,116,54,109,101,66
2025-03-20 16:13:27.338,-542.0,-618.0,590.0,-2.0,-1.0,-2.0,115,54,108,101,69
2025-03-20 16:13:27.362,-529.0,-644.0,610.0,0.0,0.0,-1.0,117,55,109,102,68
2025-03-20 16:13:27.387,-530.0,-639.0,591.0,-1.0,-1.0,0.0,116,54,109,101,66
2025-03-20 16:13:27.410,-532.0,-625.0,609.0,-1.0,-2.0,-1.0,116,54,111,102,62
2025-03-20 16:13:27.431,-527.0,-633.0,615.0,-1.0,0.0,-1.0,116,55,111,102,69
2025-03-20 16:13:27.457,-533.0,-631.0,592.0,-1.0,-1.0,-1.0,116,55,110,102,67
2025-03-20 16:13:27.476,-533.0,-634.0,598.0,-1.0,-2.0,-1.0,115,53,108,101,65
2025-03-20 16:13:27.494,-521.0,-640.0,613.0,0.0,-1.0,-1.0,115,54,110,101,65
2025-03-20 16:13:27.530,-530.0,-629.0,600.0,-2.0,-1.0,-1.0,115,52,110,99,64
2025-03-20 16:13:27.554,-529.0,-628.0,604.0,-1.0,-1.0,-2.0,115,53,109,100,66
2025-03-20 16:13:27.564,-525.0,-636.0,612.0,-2.0,-1.0,-1.0,116,54,109,99,66
2025-03-20 16:13:27.601,-531.0,-634.0,601.0,-1.0,-1.0,-1.0,117,55,111,102,67
2025-03-20 16:13:27.623,-528.0,-638.0,605.0,0.0,-1.0,-1.0,116,55,110,100,67
2025-03-20 16:13:27.649,-530.0,-627.0,609.0,-1.0,-1.0,-1.0,116,54,108,102,67
2025-03-20 16:13:27.674,-530.0,-632.0,604.0,-1.0,-1.0,-1.0,117,55,110,101,66
2025-03-20 16:13:27.698,-522.0,-640.0,610.0,-1.0,-1.0,-1.0,116,54,111,100,65
2025-03-20 16:13:27.723,-523.0,-629.0,604.0,-1.0,-1.0,0.0,115,54,109,100,66
2025-03-20 16:13:27.747,-536.0,-625.0,610.0,-1.0,-1.0,-1.0,116,53,108,100,65
2025-03-20 16:13:27.768,-536.0,-632.0,602.0,-1.0,-1.0,-1.0,115,54,110,100,67
2025-03-20 16:13:27.793,-531.0,-644.0,599.0,0.0,-1.0,-1.0,116,55,109,101,66
2025-03-20 16:13:27.817,-531.0,-628.0,610.0,-1.0,-1.0,0.0,116,55,108,102,66
2025-03-20 16:13:27.842,-535.0,-615.0,604.0,-1.0,-1.0,-1.0,115,55,110,101,67
2025-03-20 16:13:27.866,-532.0,-632.0,608.0,-2.0,-2.0,-2.0,117,55,110,101,66
2025-03-20 16:13:27.890,-527.0,-642.0,610.0,-1.0,0.0,-1.0,114,54,109,99,66
2025-03-20 16:13:27.915,-525.0,-628.0,595.0,0.0,-1.0,-1.0,116,54,109,100,66
2025-03-20 16:13:27.926,-527.0,-626.0,608.0,-1.0,-1.0,-1.0,118,54,110,100,66
2025-03-20 16:13:27.960,-540.0,-630.0,605.0,-1.0,-1.0,-2.0,116,55,109,101,66
2025-03-20 16:13:27.985,-524.0,-634.0,611.0,-1.0,0.0,-2.0,116,55,109,103,66
2025-03-20 16:13:28.009,-537.0,-635.0,591.0,-1.0,-1.0,-2.0,116,52,111,100,68
2025-03-20 16:13:28.034,-515.0,-651.0,620.0,0.0,0.0,-1.0,116,54,110,101,66
2025-03-20 16:13:28.058,-537.0,-628.0,600.0,-1.0,-1.0,0.0,117,55,109,101,67
2025-03-20 16:13:28.083,-537.0,-617.0,598.0,-1.0,-2.0,-1.0,117,55,110,99,67
2025-03-20 16:13:28.099,-528.0,-630.0,622.0,-1.0,-1.0,-2.0,115,54,110,100,65
2025-03-20 16:13:28.128,-531.0,-633.0,604.0,-2.0,0.0,-1.0,114,54,109,100,65
2025-03-20 16:13:28.153,-528.0,-633.0,602.0,-1.0,-1.0,-1.0,116,54,109,100,66
2025-03-20 16:13:28.175,-523.0,-632.0,613.0,-2.0,-1.0,-1.0,116,54,110,101,65
2025-03-20 16:13:28.202,-531.0,-637.0,604.0,-1.0,0.0,-1.0,115,55,109,102,66
2025-03-20 16:13:28.226,-534.0,-634.0,587.0,-1.0,-2.0,-1.0,116,56,110,102,66
2025-03-20 16:13:28.251,-527.0,-640.0,610.0,-1.0,-1.0,-1.0,119,55,110,108,67
2025-03-20 16:13:28.272,-529.0,-635.0,608.0,-1.0,0.0,0.0,117,55,109,102,67
2025-03-20 16:13:28.296,-541.0,-627.0,590.0,-1.0,-1.0,-1.0,116,55,109,100,66
2025-03-20 16:13:28.320,-542.0,-642.0,586.0,1.0,-2.0,-1.0,115,54,109,101,65
2025-03-20 16:13:28.346,-535.0,-632.0,594.0,2.0,-3.0,-2.0,115,54,109,100,66
2025-03-20 16:13:28.370,-542.0,-642.0,593.0,3.0,-4.0,-4.0,115,54,110,101,66
2025-03-20 16:13:28.395,-543.0,-644.0,611.0,8.0,-4.0,-5.0,116,55,110,101,64
2025-03-20 16:13:28.419,-533.0,-619.0,667.0,9.0,0.0,-10.0,116,55,110,101,65
2025-03-20 16:13:28.440,-538.0,-664.0,671.0,7.0,1.0,-13.0,116,55,112,102,66
2025-03-20 16:13:28.465,-558.0,-765.0,652.0,21.0,1.0,-3.0,117,55,110,101,67
2025-03-20 16:13:28.489,-582.0,-811.0,693.0,29.0,-1.0,10.0,116,56,110,101,67
2025-03-20 16:13:28.513,-552.0,-681.0,734.0,29.0,1.0,13.0,115,54,109,100,66
2025-03-20 16:13:28.538,-574.0,-659.0,715.0,24.0,-2.0,17.0,115,54,110,100,68
2025-03-20 16:13:28.562,-545.0,-605.0,716.0,28.0,6.0,13.0,115,55,111,103,67
2025-03-20 16:13:28.586,-632.0,-592.0,663.0,24.0,1.0,10.0,115,54,111,101,68
2025-03-20 16:13:28.608,-577.0,-584.0,658.0,30.0,-2.0,9.0,116,55,112,101,70
2025-03-20 16:13:28.632,-580.0,-525.0,684.0,33.0,-9.0,7.0,117,56,113,101,70
2025-03-20 16:13:28.657,-561.0,-532.0,667.0,27.0,-7.0,3.0,118,55,113,102,71
2025-03-20 16:13:28.681,-585.0,-549.0,649.0,29.0,-10.0,4.0,118,56,114,101,71
2025-03-20 16:13:28.706,-574.0,-542.0,629.0,36.0,-17.0,3.0,119,56,115,101,72
2025-03-20 16:13:28.730,-519.0,-533.0,674.0,50.0,-18.0,6.0,119,55,114,101,72
2025-03-20 16:13:28.752,-545.0,-479.0,714.0,53.0,-14.0,8.0,119,53,113,97,73
2025-03-20 16:13:28.776,-457.0,-446.0,783.0,40.0,-3.0,9.0,120,55,113,99,76
2025-03-20 16:13:28.801,-505.0,-484.0,728.0,34.0,4.0,13.0,120,57,115,100,76
2025-03-20 16:13:28.823,-538.0,-480.0,711.0,34.0,0.0,20.0,120,57,113,98,76
2025-03-20 16:13:28.849,-495.0,-447.0,807.0,44.0,7.0,20.0,122,57,115,99,77
2025-03-20 16:13:28.866,-557.0,-442.0,730.0,40.0,9.0,23.0,121,56,119,100,77
2025-03-20 16:13:28.895,-582.0,-449.0,723.0,47.0,4.0,25.0,122,57,114,99,77
2025-03-20 16:13:28.922,-574.0,-408.0,732.0,46.0,-5.0,27.0,120,57,114,97,76
2025-03-20 16:13:28.947,-565.0,-411.0,745.0,45.0,-10.0,26.0,120,57,114,98,77
2025-03-20 16:13:28.969,-568.0,-359.0,867.0,50.0,-11.0,30.0,120,57,113,98,79
2025-03-20 16:13:28.993,-551.0,-350.0,780.0,51.0,-12.0,36.0,121,58,116,97,80
2025-03-20 16:13:29.005,-521.0,-290.0,860.0,54.0,-3.0,37.0,122,60,118,97,83
2025-03-20 16:13:29.042,-536.0,-230.0,809.0,53.0,7.0,30.0,121,60,120,96,83
2025-03-20 16:13:29.066,-571.0,-224.0,820.0,52.0,11.0,29.0,121,61,119,94,85
2025-03-20 16:13:29.091,-594.0,-200.0,742.0,48.0,6.0,26.0,121,62,122,92,87
2025-03-20 16:13:29.115,-618.0,-100.0,605.0,36.0,-15.0,16.0,121,61,123,92,85
2025-03-20 16:13:29.136,-535.0,-90.0,769.0,45.0,-3.0,10.0,120,64,123,79,88
2025-03-20 16:13:29.161,-566.0,-152.0,784.0,28.0,-13.0,13.0,122,64,125,82,89
2025-03-20 16:13:29.185,-562.0,-106.0,906.0,52.0,-12.0,11.0,115,65,125,83,91
2025-03-20 16:13:29.208,-539.0,-82.0,780.0,38.0,-4.0,6.0,121,67,127,78,93
2025-03-20 16:13:29.234,-560.0,-145.0,783.0,26.0,-5.0,5.0,123,69,129,77,93
2025-03-20 16:13:29.258,-524.0,-30.0,867.0,32.0,-12.0,5.0,125,70,131,79,94
2025-03-20 16:13:29.283,-547.0,-44.0,846.0,17.0,-9.0,5.0,125,70,131,86,94
2025-03-20 16:13:29.304,-553.0,-46.0,854.0,20.0,-7.0,4.0,125,71,131,83,96
2025-03-20 16:13:29.328,-549.0,-67.0,820.0,13.0,-10.0,2.0,125,71,131,87,94
2025-03-20 16:13:29.353,-558.0,-60.0,823.0,28.0,-13.0,3.0,125,73,133,82,98
2025-03-20 16:13:29.377,-551.0,-9.0,906.0,9.0,-13.0,5.0,120,72,132,77,99
2025-03-20 16:13:29.402,-531.0,-50.0,885.0,2.0,-11.0,4.0,118,74,131,91,100
2025-03-20 16:13:29.427,-553.0,-52.0,804.0,16.0,-18.0,5.0,116,76,134,91,102
2025-03-20 16:13:29.451,-539.0,-19.0,913.0,11.0,-10.0,2.0,121,76,134,92,101
2025-03-20 16:13:29.472,-555.0,-6.0,876.0,20.0,-14.0,2.0,125,77,133,94,102
2025-03-20 16:13:29.496,-520.0,-21.0,913.0,4.0,-6.0,1.0,119,77,136,95,102
2025-03-20 16:13:29.521,-541.0,-49.0,905.0,11.0,1.0,1.0,122,76,133,90,103
2025-03-20 16:13:29.545,-529.0,-26.0,826.0,19.0,-5.0,2.0,123,74,133,89,103
2025-03-20 16:13:29.570,-534.0,-6.0,878.0,10.0,4.0,-1.0,124,76,134,93,102
2025-03-20 16:13:29.594,-543.0,-32.0,855.0,3.0,1.0,0.0,125,77,134,96,103
2025-03-20 16:13:29.618,-523.0,-24.0,900.0,5.0,-3.0,0.0,124,76,135,97,103
2025-03-20 16:13:29.640,-543.0,-10.0,850.0,12.0,-4.0,1.0,123,79,132,96,105
2025-03-20 16:13:29.665,-514.0,-15.0,907.0,8.0,4.0,3.0,115,81,135,98,105
2025-03-20 16:13:29.688,-534.0,2.0,878.0,12.0,4.0,4.0,117,79,136,97,105
2025-03-20 16:13:29.714,-533.0,4.0,867.0,8.0,6.0,3.0,116,80,135,96,105
2025-03-20 16:13:29.738,-545.0,18.0,854.0,6.0,7.0,1.0,116,81,136,96,106
2025-03-20 16:13:29.762,-558.0,78.0,907.0,10.0,0.0,0.0,115,80,132,97,105
2025-03-20 16:13:29.787,-537.0,21.0,860.0,8.0,-1.0,0.0,114,81,136,95,104
2025-03-20 16:13:29.808,-564.0,5.0,831.0,10.0,5.0,-2.0,115,81,136,96,105
2025-03-20 16:13:29.833,-579.0,-8.0,784.0,12.0,-7.0,0.0,115,83,136,100,105
2025-03-20 16:13:29.857,-536.0,24.0,873.0,7.0,-2.0,0.0,113,86,134,97,104
2025-03-20 16:13:29.882,-540.0,28.0,860.0,5.0,-4.0,1.0,113,85,141,98,105
2025-03-20 16:13:29.906,-539.0,26.0,888.0,3.0,-1.0,1.0,109,86,136,101,106
2025-03-20 16:13:29.930,-529.0,24.0,862.0,6.0,-1.0,1.0,111,87,137,98,106
2025-03-20 16:13:29.955,-545.0,26.0,880.0,5.0,-1.0,1.0,109,85,135,96,104
2025-03-20 16:13:29.976,-548.0,41.0,854.0,2.0,-5.0,1.0,106,85,135,99,105
2025-03-20 16:13:30.000,-544.0,39.0,838.0,3.0,-9.0,1.0,109,86,137,97,104
2025-03-20 16:13:30.025,-517.0,43.0,911.0,0.0,-4.0,2.0,109,87,138,99,104
2025-03-20 16:13:30.049,-540.0,58.0,863.0,7.0,-3.0,1.0,109,87,137,98,105
2025-03-20 16:13:30.074,-556.0,71.0,844.0,10.0,-6.0,-1.0,111,88,136,98,106
2025-03-20 16:13:30.098,-549.0,54.0,863.0,4.0,-6.0,-3.0,109,87,138,100,105
2025-03-20 16:13:30.123,-521.0,43.0,865.0,5.0,-7.0,-2.0,111,87,136,100,104
2025-03-20 16:13:30.144,-529.0,33.0,905.0,5.0,1.0,0.0,107,87,136,100,104
2025-03-20 16:13:30.168,-537.0,50.0,881.0,7.0,3.0,1.0,105,87,136,98,105
2025-03-20 16:13:30.193,-544.0,58.0,866.0,7.0,6.0,2.0,109,87,136,99,104
2025-03-20 16:13:30.217,-551.0,69.0,867.0,5.0,4.0,1.0,110,87,135,98,105
2025-03-20 16:13:30.241,-537.0,71.0,870.0,1.0,2.0,-2.0,109,88,136,100,106
2025-03-20 16:13:30.265,-540.0,49.0,868.0,4.0,1.0,0.0,111,88,135,100,105
2025-03-20 16:13:30.290,-547.0,55.0,852.0,5.0,0.0,1.0,113,88,137,101,106
2025-03-20 16:13:30.312,-544.0,81.0,850.0,1.0,-1.0,-1.0,113,88,137,100,106
2025-03-20 16:13:30.337,-546.0,52.0,839.0,-2.0,0.0,-2.0,112,88,136,101,105
2025-03-20 16:13:30.359,-554.0,57.0,885.0,2.0,-1.0,1.0,113,87,134,98,104
2025-03-20 16:13:30.385,-550.0,68.0,866.0,2.0,-3.0,1.0,112,87,133,100,104
2025-03-20 16:13:30.404,-539.0,55.0,866.0,1.0,0.0,0.0,111,87,134,99,104
2025-03-20 16:13:30.434,-510.0,95.0,917.0,5.0,-2.0,0.0,110,86,136,100,104
2025-03-20 16:13:30.458,-547.0,83.0,864.0,1.0,-2.0,-1.0,110,87,137,99,106
2025-03-20 16:13:30.483,-543.0,66.0,838.0,-3.0,-7.0,-1.0,110,84,137,100,110
2025-03-20 16:13:30.505,-523.0,61.0,889.0,0.0,-1.0,-2.0,111,87,138,101,104
2025-03-20 16:13:30.529,-545.0,71.0,882.0,2.0,-2.0,0.0,110,88,139,100,105
2025-03-20 16:13:30.552,-542.0,83.0,869.0,-1.0,-4.0,-2.0,110,88,136,101,104
2025-03-20 16:13:30.577,-538.0,69.0,880.0,-3.0,-6.0,-1.0,110,88,136,100,105
2025-03-20 16:13:30.596,-516.0,57.0,898.0,-2.0,-1.0,0.0,109,87,137,100,104
2025-03-20 16:13:30.611,-537.0,57.0,894.0,0.0,1.0,2.0,107,87,135,100,104
2025-03-20 16:13:30.643,-539.0,83.0,881.0,3.0,1.0,2.0,108,88,135,101,106
2025-03-20 16:13:30.672,-542.0,85.0,870.0,-4.0,-1.0,0.0,107,89,136,101,105
2025-03-20 16:13:30.697,-538.0,84.0,875.0,-2.0,-1.0,0.0,108,89,137,100,105
2025-03-20 16:13:30.721,-542.0,75.0,865.0,2.0,1.0,0.0,106,90,134,101,105
2025-03-20 16:13:30.745,-540.0,96.0,860.0,0.0,-1.0,0.0,107,89,136,101,105
2025-03-20 16:13:30.770,-535.0,74.0,882.0,-1.0,-5.0,-1.0,105,87,135,99,104
2025-03-20 16:13:30.794,-533.0,61.0,889.0,-1.0,-2.0,0.0,103,88,135,101,105
2025-03-20 16:13:30.816,-534.0,67.0,887.0,2.0,0.0,2.0,107,87,134,102,102
2025-03-20 16:13:30.840,-535.0,69.0,875.0,2.0,4.0,3.0,110,91,135,100,110
2025-03-20 16:13:30.864,-546.0,81.0,849.0,3.0,3.0,4.0,110,88,136,102,107
2025-03-20 16:13:30.889,-549.0,102.0,844.0,1.0,-1.0,2.0,111,88,135,100,106
2025-03-20 16:13:30.902,-546.0,78.0,856.0,-1.0,-1.0,0.0,110,88,136,100,106
2025-03-20 16:13:30.937,-542.0,81.0,861.0,1.0,1.0,2.0,110,89,135,100,105
2025-03-20 16:13:30.963,-544.0,97.0,860.0,0.0,1.0,0.0,108,89,135,104,106
2025-03-20 16:13:30.986,-551.0,102.0,855.0,-2.0,-1.0,-1.0,107,87,135,98,103
2025-03-20 16:13:31.008,-538.0,73.0,854.0,-2.0,-3.0,-2.0,107,87,136,97,105
2025-03-20 16:13:31.033,-532.0,71.0,869.0,0.0,-2.0,0.0,107,87,136,100,104
2025-03-20 16:13:31.057,-539.0,87.0,876.0,2.0,-2.0,0.0,107,87,135,101,104
2025-03-20 16:13:31.081,-539.0,99.0,882.0,3.0,-1.0,1.0,108,89,135,101,106
2025-03-20 16:13:31.106,-543.0,109.0,863.0,1.0,-2.0,-1.0,109,89,136,102,106
2025-03-20 16:13:31.130,-537.0,101.0,870.0,-1.0,-3.0,-2.0,108,89,136,102,106
2025-03-20 16:13:31.155,-551.0,86.0,879.0,0.0,-4.0,-2.0,108,89,135,102,105
2025-03-20 16:13:31.177,-549.0,97.0,880.0,1.0,-4.0,-2.0,108,88,135,101,105
2025-03-20 16:13:31.201,-532.0,100.0,891.0,1.0,-3.0,-3.0,110,87,135,101,105
2025-03-20 16:13:31.225,-532.0,90.0,871.0,0.0,-1.0,-4.0,108,88,134,101,105
2025-03-20 16:13:31.249,-527.0,79.0,880.0,-1.0,-2.0,-4.0,108,88,135,101,105
2025-03-20 16:13:31.274,-519.0,83.0,881.0,-1.0,-1.0,-2.0,110,88,136,100,107
2025-03-20 16:13:31.298,-525.0,69.0,880.0,-3.0,1.0,-1.0,108,88,136,102,106
2025-03-20 16:13:31.321,-529.0,77.0,889.0,-1.0,2.0,1.0,110,89,138,101,106
2025-03-20 16:13:31.344,-547.0,90.0,860.0,-3.0,0.0,0.0,111,88,137,102,106
2025-03-20 16:13:31.368,-553.0,87.0,866.0,-2.0,-2.0,0.0,111,89,134,100,106
2025-03-20 16:13:31.393,-544.0,96.0,876.0,-1.0,-2.0,0.0,109,87,135,94,104
2025-03-20 16:13:31.417,-553.0,96.0,875.0,-1.0,-1.0,0.0,107,88,135,100,103
2025-03-20 16:13:31.442,-538.0,87.0,870.0,0.0,-1.0,-1.0,112,87,135,101,105
2025-03-20 16:13:31.466,-542.0,89.0,882.0,-2.0,-1.0,-1.0,112,89,137,101,105
2025-03-20 16:13:31.491,-543.0,93.0,865.0,-4.0,-4.0,-1.0,112,89,136,102,105
2025-03-20 16:13:31.509,-530.0,67.0,887.0,-1.0,-1.0,-1.0,111,89,136,102,106
2025-03-20 16:13:31.535,-524.0,102.0,917.0,-2.0,0.0,0.0,114,90,137,102,106
2025-03-20 16:13:31.561,-534.0,96.0,868.0,-4.0,-2.0,-1.0,113,90,137,101,106
2025-03-20 16:13:31.586,-531.0,85.0,870.0,-2.0,-2.0,-1.0,112,88,136,101,105
2025-03-20 16:13:31.610,-532.0,80.0,850.0,-2.0,-2.0,-1.0,110,88,135,100,104
2025-03-20 16:13:31.634,-526.0,85.0,853.0,-1.0,-3.0,0.0,110,88,134,99,104
2025-03-20 16:13:31.659,-525.0,83.0,863.0,-2.0,-4.0,-1.0,112,88,135,101,105
2025-03-20 16:13:31.683,-535.0,76.0,848.0,-3.0,-9.0,-1.0,111,89,136,102,106
2025-03-20 16:13:31.705,-520.0,81.0,856.0,-2.0,-7.0,0.0,111,89,135,101,106
2025-03-20 16:13:31.729,-522.0,91.0,872.0,2.0,-9.0,1.0,112,88,136,103,107
2025-03-20 16:13:31.751,-512.0,82.0,882.0,4.0,-4.0,0.0,111,88,136,102,110
2025-03-20 16:13:31.778,-530.0,101.0,854.0,1.0,-5.0,0.0,110,89,136,101,106
2025-03-20 16:13:31.802,-524.0,96.0,883.0,1.0,-9.0,0.0,111,88,134,101,104
2025-03-20 16:13:31.824,-506.0,82.0,895.0,0.0,-5.0,0.0,111,88,135,101,104
2025-03-20 16:13:31.841,-520.0,107.0,883.0,3.0,-3.0,1.0,111,88,134,102,105
2025-03-20 16:13:31.873,-525.0,106.0,893.0,0.0,-3.0,0.0,111,88,135,99,105
2025-03-20 16:13:31.897,-518.0,104.0,907.0,0.0,-2.0,-1.0,112,90,135,104,105
2025-03-20 16:13:31.921,-516.0,108.0,908.0,-2.0,2.0,-1.0,123,89,137,103,106
2025-03-20 16:13:31.946,-523.0,96.0,899.0,-1.0,4.0,-1.0,122,89,137,103,106
2025-03-20 16:13:31.970,-524.0,91.0,890.0,-1.0,5.0,0.0,123,88,136,101,107
2025-03-20 16:13:31.995,-528.0,108.0,849.0,-3.0,4.0,-3.0,124,88,135,102,106
2025-03-20 16:13:32.019,-543.0,95.0,849.0,-4.0,-2.0,-4.0,122,88,134,101,105
2025-03-20 16:13:32.041,-531.0,81.0,873.0,-4.0,-4.0,-4.0,122,87,135,100,105
2025-03-20 16:13:32.065,-520.0,74.0,868.0,-2.0,-4.0,-3.0,123,88,135,101,106
2025-03-20 16:13:32.090,-515.0,70.0,873.0,0.0,-2.0,-2.0,124,88,136,101,105
2025-03-20 16:13:32.114,-544.0,84.0,866.0,0.0,-3.0,-2.0,122,88,136,101,105
2025-03-20 16:13:32.138,-528.0,87.0,870.0,-3.0,-5.0,-2.0,123,90,136,102,106
2025-03-20 16:13:32.163,-522.0,69.0,898.0,-1.0,-3.0,-3.0,124,89,135,102,106
2025-03-20 16:13:32.187,-521.0,81.0,890.0,-3.0,-1.0,-2.0,124,89,137,102,106
2025-03-20 16:13:32.208,-519.0,78.0,890.0,-2.0,-2.0,-3.0,121,88,135,100,104
2025-03-20 16:13:32.232,-509.0,77.0,890.0,-3.0,-3.0,-3.0,126,87,133,96,106
2025-03-20 16:13:32.258,-502.0,70.0,899.0,-3.0,-3.0,-2.0,121,88,134,100,105
2025-03-20 16:13:32.281,-495.0,75.0,900.0,0.0,-3.0,0.0,122,87,136,101,104
2025-03-20 16:13:32.306,-504.0,87.0,902.0,0.0,-2.0,1.0,123,88,136,102,105
2025-03-20 16:13:32.330,-520.0,99.0,903.0,1.0,-2.0,0.0,125,89,134,100,106
2025-03-20 16:13:32.352,-509.0,101.0,902.0,-3.0,-1.0,-1.0,119,89,137,97,104
2025-03-20 16:13:32.377,-509.0,88.0,902.0,-1.0,4.0,-1.0,124,89,136,101,106
2025-03-20 16:13:32.401,-516.0,93.0,880.0,0.0,3.0,0.0,124,89,135,102,105
2025-03-20 16:13:32.426,-514.0,98.0,873.0,-1.0,1.0,-1.0,121,87,132,101,104
2025-03-20 16:13:32.450,-514.0,84.0,864.0,0.0,0.0,-1.0,123,87,132,101,105
2025-03-20 16:13:32.474,-517.0,90.0,878.0,0.0,-1.0,-1.0,123,87,133,102,104
2025-03-20 16:13:32.499,-513.0,88.0,879.0,-2.0,0.0,-1.0,125,88,135,102,106
2025-03-20 16:13:32.523,-524.0,81.0,882.0,-1.0,-1.0,-1.0,126,87,134,101,106
2025-03-20 16:13:32.544,-516.0,88.0,894.0,-1.0,0.0,-1.0,124,89,136,102,106
2025-03-20 16:13:32.569,-521.0,83.0,882.0,-1.0,1.0,-1.0,124,89,136,103,105
2025-03-20 16:13:32.593,-518.0,86.0,878.0,-1.0,2.0,-1.0,123,88,137,97,106
2025-03-20 16:13:32.604,-528.0,105.0,865.0,1.0,-1.0,-1.0,123,88,135,101,106
2025-03-20 16:13:32.642,-525.0,95.0,874.0,-1.0,0.0,-3.0,123,87,136,102,105
2025-03-20 16:13:32.667,-511.0,64.0,881.0,0.0,-1.0,-2.0,121,88,135,101,105
2025-03-20 16:13:32.691,-516.0,69.0,869.0,-1.0,0.0,-1.0,122,88,133,100,105
2025-03-20 16:13:32.712,-520.0,79.0,869.0,1.0,-2.0,-1.0,122,88,135,101,106
2025-03-20 16:13:32.737,-522.0,85.0,882.0,1.0,-2.0,0.0,123,88,135,101,106
2025-03-20 16:13:32.761,-513.0,91.0,889.0,-2.0,0.0,-1.0,123,89,135,100,107
2025-03-20 16:13:32.786,-520.0,80.0,867.0,-3.0,1.0,-2.0,123,88,136,102,106
2025-03-20 16:13:32.810,-521.0,85.0,856.0,-2.0,-1.0,-1.0,123,88,137,102,106
2025-03-20 16:13:32.835,-515.0,93.0,862.0,-1.0,-3.0,-1.0,121,87,133,100,104
2025-03-20 16:13:32.859,-524.0,87.0,891.0,-1.0,-2.0,-1.0,122,88,135,101,105
2025-03-20 16:13:32.880,-525.0,82.0,887.0,-2.0,-2.0,-2.0,123,88,135,102,105
2025-03-20 16:13:32.904,-519.0,89.0,885.0,-3.0,-3.0,-1.0,123,88,135,101,105
2025-03-20 16:13:32.927,-516.0,88.0,890.0,-1.0,-2.0,-2.0,121,88,135,102,105
2025-03-20 16:13:32.953,-517.0,75.0,886.0,0.0,-1.0,-1.0,124,89,140,102,106
2025-03-20 16:13:32.978,-528.0,95.0,875.0,-1.0,-1.0,0.0,122,88,136,102,106
2025-03-20 16:13:33.002,-518.0,94.0,895.0,-3.0,-2.0,-2.0,123,88,137,102,106
2025-03-20 16:13:33.026,-512.0,83.0,883.0,1.0,0.0,0.0,123,88,136,102,106
2025-03-20 16:13:33.041,-532.0,95.0,897.0,0.0,0.0,0.0,122,87,134,104,105
2025-03-20 16:13:33.072,-519.0,99.0,891.0,-2.0,0.0,-2.0,120,87,135,101,105
2025-03-20 16:13:33.098,-523.0,81.0,878.0,-2.0,-2.0,-2.0,124,87,135,101,106
2025-03-20 16:13:33.122,-518.0,71.0,888.0,0.0,-3.0,-1.0,124,88,136,101,106
2025-03-20 16:13:33.146,-520.0,83.0,897.0,-1.0,-1.0,-1.0,123,88,135,102,105
2025-03-20 16:13:33.170,-521.0,81.0,896.0,-1.0,1.0,-1.0,123,88,136,102,106
2025-03-20 16:13:33.195,-522.0,79.0,889.0,0.0,1.0,0.0,123,89,135,102,106
2025-03-20 16:13:33.216,-521.0,93.0,876.0,-1.0,0.0,-1.0,123,90,135,102,106
2025-03-20 16:13:33.240,-522.0,94.0,884.0,-3.0,-1.0,-3.0,122,87,134,101,104
2025-03-20 16:13:33.264,-516.0,78.0,880.0,-1.0,0.0,-2.0,123,87,135,102,104
2025-03-20 16:13:33.290,-523.0,78.0,881.0,0.0,0.0,-1.0,123,87,135,102,105
2025-03-20 16:13:33.314,-520.0,82.0,887.0,-1.0,0.0,-1.0,121,87,134,101,106
2025-03-20 16:13:33.332,-515.0,71.0,877.0,-2.0,0.0,-1.0,123,87,134,101,106
2025-03-20 16:13:33.360,-519.0,69.0,874.0,1.0,0.0,0.0,124,88,135,103,106
2025-03-20 16:13:33.384,-517.0,87.0,891.0,0.0,0.0,1.0,124,88,136,102,106
2025-03-20 16:13:33.409,-525.0,85.0,882.0,-1.0,0.0,1.0,123,88,137,103,107
2025-03-20 16:13:33.433,-521.0,95.0,875.0,-1.0,0.0,-1.0,120,88,136,103,105
2025-03-20 16:13:33.457,-517.0,91.0,866.0,-3.0,-1.0,0.0,123,87,135,103,105
2025-03-20 16:13:33.482,-515.0,73.0,887.0,0.0,-1.0,0.0,123,87,135,100,105
2025-03-20 16:13:33.506,-522.0,97.0,887.0,-1.0,0.0,1.0,123,87,135,103,105
2025-03-20 16:13:33.531,-516.0,90.0,882.0,-3.0,-1.0,-1.0,123,87,135,103,105
2025-03-20 16:13:33.555,-520.0,69.0,880.0,-2.0,-1.0,0.0,121,88,138,101,108
2025-03-20 16:13:33.577,-529.0,87.0,874.0,0.0,-2.0,1.0,123,88,136,103,106
2025-03-20 16:13:33.592,-525.0,95.0,893.0,0.0,0.0,1.0,123,88,135,103,106
2025-03-20 16:13:33.625,-522.0,94.0,894.0,0.0,2.0,0.0,123,88,136,103,106
2025-03-20 16:13:33.649,-530.0,106.0,866.0,-3.0,1.0,-1.0,121,87,133,100,105
2025-03-20 16:13:33.675,-520.0,83.0,875.0,-3.0,-1.0,-2.0,122,87,136,101,104
2025-03-20 16:13:33.693,-516.0,77.0,874.0,0.0,-1.0,0.0,121,87,135,102,105
2025-03-20 16:13:33.723,-523.0,103.0,883.0,1.0,-2.0,0.0,121,87,135,103,105
2025-03-20 16:13:33.745,-514.0,110.0,884.0,-3.0,-1.0,-2.0,120,89,138,101,105
2025-03-20 16:13:33.769,-527.0,135.0,834.0,-5.0,-2.0,-4.0,122,89,136,102,106
2025-03-20 16:13:33.793,-516.0,204.0,736.0,-18.0,-8.0,-14.0,122,89,135,98,106
2025-03-20 16:13:33.817,-529.0,217.0,600.0,-30.0,-24.0,-25.0,123,88,134,102,106
2025-03-20 16:13:33.843,-552.0,193.0,520.0,-42.0,-53.0,-37.0,123,88,133,103,106
2025-03-20 16:13:33.867,-560.0,108.0,579.0,-42.0,-90.0,-42.0,123,84,129,102,101
2025-03-20 16:13:33.891,-535.0,43.0,903.0,-59.0,-139.0,-53.0,123,78,123,96,101
2025-03-20 16:13:33.915,-253.0,148.0,1638.0,-188.0,-134.0,-81.0,122,54,116,76,73
2025-03-20 16:13:33.937,-58.0,-613.0,2416.0,-349.0,-9.0,-61.0,120,44,101,55,53
2025-03-20 16:13:33.961,293.0,-1149.0,2301.0,-394.0,186.0,10.0,127,40,93,49,42
2025-03-20 16:13:33.985,485.0,-1457.0,2028.0,-221.0,371.0,101.0,116,42,85,38,40
2025-03-20 16:13:34.010,76.0,-1060.0,878.0,-172.0,391.0,177.0,118,43,85,49,40
2025-03-20 16:13:34.035,-783.0,-813.0,-206.0,-244.0,312.0,187.0,115,42,82,49,40
2025-03-20 16:13:34.060,-554.0,-537.0,104.0,-186.0,231.0,182.0,117,36,80,46,37
2025-03-20 16:13:34.080,-621.0,65.0,-75.0,-102.0,215.0,184.0,109,41,77,43,40
2025-03-20 16:13:34.102,-756.0,582.0,76.0,-94.0,205.0,134.0,108,40,77,48,40
2025-03-20 16:13:34.129,-715.0,612.0,-97.0,-30.0,157.0,71.0,117,37,75,51,46
2025-03-20 16:13:34.148,-650.0,981.0,-460.0,14.0,111.0,60.0,118,42,76,56,43
2025-03-20 16:13:34.176,-386.0,1811.0,-1286.0,85.0,21.0,22.0,116,40,76,55,43
2025-03-20 16:13:34.202,-291.0,4074.0,-3065.0,37.0,-240.0,-302.0,103,41,73,49,43
2025-03-20 16:13:34.227,672.0,4294.0,-4347.0,-98.0,-604.0,-856.0,113,39,71,52,36
2025-03-20 16:13:34.246,3642.0,1577.0,-3323.0,30.0,-1151.0,-1158.0,105,31,73,51,37
2025-03-20 16:13:34.273,11432.0,-6747.0,9717.0,434.0,-511.0,-270.0,72,33,81,51,31
2025-03-20 16:13:34.289,1742.0,-3809.0,2162.0,512.0,369.0,177.0,70,38,86,53,30
2025-03-20 16:13:34.322,-538.0,41.0,856.0,-418.0,179.0,95.0,81,21,80,43,42
2025-03-20 16:13:34.347,81.0,-3002.0,945.0,-280.0,141.0,164.0,100,41,82,55,39
2025-03-20 16:13:34.371,-313.0,-1264.0,775.0,-64.0,173.0,274.0,91,35,85,54,43
2025-03-20 16:13:34.395,-440.0,-493.0,552.0,-131.0,180.0,228.0,111,43,83,56,43
2025-03-20 16:13:34.415,-572.0,-245.0,1044.0,-107.0,216.0,174.0,93,41,84,59,44
2025-03-20 16:13:34.441,-688.0,-577.0,109.0,-55.0,182.0,186.0,103,41,83,59,45
2025-03-20 16:13:34.465,-519.0,-383.0,8.0,-21.0,138.0,187.0,106,43,83,60,44
2025-03-20 16:13:34.489,-407.0,-226.0,220.0,-10.0,143.0,170.0,99,41,82,58,42
2025-03-20 16:13:34.514,-478.0,-170.0,201.0,35.0,138.0,152.0,103,45,83,61,42
2025-03-20 16:13:34.538,-495.0,38.0,106.0,37.0,109.0,174.0,107,46,83,64,45
2025-03-20 16:13:34.562,-411.0,186.0,16.0,67.0,96.0,172.0,110,48,83,67,43
2025-03-20 16:13:34.588,-290.0,857.0,-626.0,159.0,42.0,186.0,108,42,83,64,49
2025-03-20 16:13:34.609,-758.0,2848.0,-2534.0,191.0,-105.0,20.0,108,46,80,62,49
2025-03-20 16:13:34.633,-1098.0,4707.0,-4187.0,-80.0,-501.0,-559.0,118,37,80,59,46
2025-03-20 16:13:34.656,-4465.0,-8042.0,-3579.0,-201.0,-1065.0,-1052.0,118,38,78,57,46
2025-03-20 16:13:34.673,10152.0,-1770.0,3951.0,-113.0,-1198.0,-928.0,91,35,78,58,39
2025-03-20 16:13:34.707,6959.0,-8271.0,4788.0,360.0,212.0,133.0,79,39,93,40,43
2025-03-20 16:13:34.731,834.0,-1049.0,1027.0,161.0,343.0,202.0,102,39,92,57,44
2025-03-20 16:13:34.755,-521.0,-1113.0,42.0,-364.0,131.0,223.0,87,24,83,60,41
2025-03-20 16:13:34.776,-211.0,-2042.0,642.0,-310.0,62.0,242.0,120,40,85,61,44
2025-03-20 16:13:34.801,-72.0,-1130.0,1012.0,-33.0,45.0,243.0,118,41,89,57,48
2025-03-20 16:13:34.826,-468.0,-91.0,182.0,-29.0,113.0,239.0,135,40,85,60,49
2025-03-20 16:13:34.850,-1131.0,-381.0,-668.0,-182.0,54.0,182.0,139,45,82,65,48
2025-03-20 16:13:34.875,53.0,-1105.0,530.0,-62.0,87.0,118.0,144,40,81,66,45
2025-03-20 16:13:34.899,-347.0,-1139.0,410.0,15.0,60.0,156.0,144,43,81,55,48
2025-03-20 16:13:34.920,-9.0,-850.0,586.0,6.0,85.0,196.0,143,45,81,68,48
2025-03-20 16:13:34.944,-623.0,-637.0,217.0,9.0,108.0,186.0,147,46,86,70,46
2025-03-20 16:13:34.969,-488.0,-489.0,380.0,47.0,76.0,201.0,139,40,81,67,48
2025-03-20 16:13:34.994,-460.0,363.0,235.0,91.0,106.0,222.0,120,41,83,67,49
2025-03-20 16:13:35.018,-619.0,1753.0,-455.0,231.0,77.0,174.0,123,45,80,68,49
2025-03-20 16:13:35.042,-872.0,4320.0,-1854.0,269.0,-27.0,-150.0,106,45,77,67,48
2025-03-20 16:13:35.067,-1363.0,4232.0,-3407.0,44.0,-428.0,-650.0,115,37,70,67,45
2025-03-20 16:13:35.091,2213.0,3127.0,-2848.0,-167.0,-928.0,-1070.0,142,38,71,63,42
2025-03-20 16:13:35.107,9515.0,-5717.0,982.0,-474.0,-1026.0,-685.0,150,39,77,65,44
2025-03-20 16:13:35.137,5393.0,-7087.0,4094.0,152.0,167.0,2.0,150,33,87,63,47
2025-03-20 16:13:35.162,808.0,-2433.0,-1102.0,359.0,351.0,214.0,146,39,85,59,50
2025-03-20 16:13:35.186,-15.0,-1000.0,15.0,-177.0,100.0,242.0,127,37,74,65,47
2025-03-20 16:13:35.210,50.0,-1546.0,854.0,-210.0,56.0,258.0,146,42,81,65,47
2025-03-20 16:13:35.235,406.0,-1274.0,1044.0,117.0,201.0,223.0,148,42,82,65,47
2025-03-20 16:13:35.260,-441.0,-150.0,467.0,60.0,231.0,236.0,147,42,80,65,47
2025-03-20 16:13:35.281,-231.0,0.0,128.0,-141.0,203.0,216.0,145,40,81,67,47
2025-03-20 16:13:35.302,-152.0,-371.0,428.0,-18.0,148.0,182.0,148,40,79,66,44
2025-03-20 16:13:35.330,-253.0,-489.0,20.0,85.0,189.0,166.0,144,38,84,64,45
2025-03-20 16:13:35.354,-366.0,-239.0,177.0,22.0,163.0,201.0,142,38,82,64,49
2025-03-20 16:13:35.378,-389.0,-359.0,129.0,22.0,98.0,172.0,141,41,81,65,49
2025-03-20 16:13:35.403,-435.0,-273.0,25.0,57.0,94.0,217.0,140,44,82,67,51
2025-03-20 16:13:35.427,-629.0,1186.0,-743.0,291.0,56.0,186.0,134,44,81,70,51
2025-03-20 16:13:35.452,-1786.0,4727.0,-3148.0,251.0,-148.0,-255.0,138,42,76,65,50
2025-03-20 16:13:35.472,-1098.0,4639.0,-4157.0,-27.0,-714.0,-961.0,121,45,74,64,49
2025-03-20 16:13:35.494,7411.0,2827.0,-2675.0,-422.0,-1510.0,-1085.0,132,37,75,61,44
2025-03-20 16:13:35.522,9816.0,-9377.0,6633.0,-404.0,-216.0,-42.0,151,30,88,53,49
2025-03-20 16:13:35.547,2075.0,-4832.0,-925.0,569.0,432.0,192.0,148,31,90,65,50
2025-03-20 16:13:35.570,-362.0,348.0,-168.0,-54.0,287.0,245.0,125,14,84,63,46
2025-03-20 16:13:35.591,1962.0,1962.0,1962.0,245.0,245.0,245.0,128,33,81,65,51
2025-03-20 16:13:35.614,-61.0,-1992.0,1257.0,-47.0,95.0,310.0,146,38,85,65,50
2025-03-20 16:13:35.641,-505.0,-981.0,1886.0,-60.0,-42.0,341.0,141,32,94,58,49
2025-03-20 16:13:35.665,-262.0,-464.0,435.0,57.0,164.0,272.0,138,33,85,62,54
2025-03-20 16:13:35.689,85.0,-47.0,301.0,249.0,318.0,229.0,145,35,89,63,62
2025-03-20 16:13:35.711,-147.0,-346.0,22.0,227.0,275.0,297.0,140,51,95,37,74
2025-03-20 16:13:35.735,-357.0,-230.0,-299.0,255.0,195.0,265.0,136,46,106,0,90
2025-03-20 16:13:35.760,-504.0,25.0,-344.0,185.0,160.0,249.0,129,57,116,56,97
2025-03-20 16:13:35.784,-415.0,413.0,-155.0,188.0,167.0,227.0,134,39,122,61,98
2025-03-20 16:13:35.808,-626.0,1139.0,-542.0,91.0,56.0,197.0,134,53,126,95,93
2025-03-20 16:13:35.833,-1016.0,2090.0,-2224.0,61.0,-192.0,-7.0,129,72,130,96,92
2025-03-20 16:13:35.855,-1179.0,2832.0,-3038.0,-78.0,-440.0,-398.0,128,68,135,99,97
2025-03-20 16:13:35.882,-261.0,1640.0,-3081.0,-174.0,-795.0,-684.0,133,82,139,96,105
2025-03-20 16:13:35.907,4008.0,1119.0,-2367.0,-444.0,-1026.0,-696.0,143,66,145,95,109
2025-03-20 16:13:35.931,6274.0,-6367.0,1845.0,-586.0,-784.0,-228.0,151,91,149,92,112
2025-03-20 16:13:35.956,3256.0,-6184.0,2295.0,359.0,207.0,140.0,151,49,146,99,112
2025-03-20 16:13:35.977,786.0,-1904.0,1639.0,373.0,454.0,224.0,146,75,143,102,111
2025-03-20 16:13:36.000,-265.0,-550.0,610.0,310.0,438.0,209.0,149,74,144,103,106
2025-03-20 16:13:36.026,-110.0,-171.0,998.0,-392.0,254.0,230.0,148,83,146,103,97
2025-03-20 16:13:36.050,85.0,-874.0,656.0,-24.0,286.0,210.0,149,108,145,103,106
2025-03-20 16:13:36.075,7.0,-694.0,671.0,104.0,305.0,173.0,147,89,146,104,101
2025-03-20 16:13:36.098,-254.0,-442.0,51.0,63.0,278.0,189.0,142,88,147,103,97
2025-03-20 16:13:36.121,-203.0,-209.0,-20.0,75.0,218.0,201.0,129,86,144,104,105
2025-03-20 16:13:36.145,-255.0,-59.0,113.0,78.0,193.0,181.0,140,101,141,104,105
2025-03-20 16:13:36.169,-268.0,66.0,-61.0,78.0,169.0,165.0,123,101,138,106,105
2025-03-20 16:13:36.194,-395.0,71.0,67.0,84.0,148.0,140.0,138,96,141,103,102
2025-03-20 16:13:36.218,-400.0,233.0,-27.0,127.0,111.0,148.0,134,89,143,103,103
2025-03-20 16:13:36.241,-253.0,1128.0,-701.0,82.0,35.0,145.0,132,94,143,106,107
2025-03-20 16:13:36.267,-1135.0,1849.0,-2976.0,84.0,-191.0,-14.0,110,87,143,106,107
2025-03-20 16:13:36.292,-1061.0,2632.0,-2900.0,-30.0,-602.0,-394.0,119,100,144,105,111
2025-03-20 16:13:36.316,314.0,3080.0,-1804.0,-243.0,-808.0,-783.0,126,93,143,104,101
2025-03-20 16:13:36.338,6779.0,901.0,136.0,-560.0,-1287.0,-795.0,145,104,144,105,110
2025-03-20 16:13:36.365,4492.0,-7149.0,628.0,-876.0,-537.0,-255.0,150,92,146,104,111
2025-03-20 16:13:36.386,3560.0,-5367.0,1426.0,86.0,132.0,214.0,150,65,144,105,115
2025-03-20 16:13:36.401,814.0,-1967.0,-43.0,409.0,306.0,231.0,147,63,141,107,111
2025-03-20 16:13:36.435,-314.0,-318.0,783.0,247.0,362.0,156.0,144,73,144,106,108
2025-03-20 16:13:36.459,-202.0,-907.0,845.0,-228.0,260.0,214.0,144,92,143,104,106
2025-03-20 16:13:36.484,177.0,-774.0,865.0,-189.0,226.0,190.0,150,102,144,106,105
2025-03-20 16:13:36.507,91.0,-1095.0,522.0,-87.0,274.0,174.0,150,82,141,111,106
2025-03-20 16:13:36.529,150.0,-612.0,679.0,50.0,319.0,229.0,127,91,135,104,102
2025-03-20 16:13:36.555,-197.0,-600.0,-40.0,28.0,290.0,284.0,143,87,131,102,93
2025-03-20 16:13:36.579,-82.0,-340.0,530.0,85.0,291.0,359.0,127,81,124,98,79
2025-03-20 16:13:36.603,-236.0,-1.0,-13.0,174.0,276.0,325.0,122,67,114,95,64
2025-03-20 16:13:36.622,-546.0,382.0,-791.0,231.0,150.0,269.0,136,54,101,88,62
2025-03-20 16:13:36.652,-802.0,1303.0,-1157.0,37.0,-33.0,144.0,139,44,88,45,58
2025-03-20 16:13:36.677,-1383.0,2313.0,-2053.0,-70.0,-105.0,-167.0,139,36,77,0,54
2025-03-20 16:13:36.697,-782.0,4082.0,-3871.0,-195.0,-375.0,-703.0,89,0,77,29,35
2025-03-20 16:13:36.723,1861.0,2267.0,-2734.0,-184.0,-809.0,-962.0,128,21,69,39,39
2025-03-20 16:13:36.745,6336.0,-1978.0,-1975.0,-398.0,-1189.0,-706.0,141,23,67,60,27
2025-03-20 16:13:36.771,6633.0,-7475.0,4056.0,-350.0,-212.0,-111.0,150,34,75,39,34
2025-03-20 16:13:36.795,2739.0,-5168.0,605.0,466.0,516.0,147.0,148,38,80,69,43
2025-03-20 16:13:36.821,420.0,-1030.0,-442.0,132.0,307.0,277.0,113,39,81,66,40
2025-03-20 16:13:36.839,106.0,-1104.0,465.0,-206.0,71.0,264.0,141,37,81,64,43
2025-03-20 16:13:36.866,477.0,-1687.0,1005.0,-44.0,106.0,239.0,145,40,81,60,42
2025-03-20 16:13:36.890,459.0,-1455.0,795.0,14.0,271.0,317.0,146,22,81,69,45
2025-03-20 16:13:36.915,184.0,-603.0,291.0,36.0,274.0,332.0,148,37,81,72,46
2025-03-20 16:13:36.939,28.0,-189.0,245.0,57.0,264.0,287.0,133,40,82,73,47
2025-03-20 16:13:36.963,-351.0,-212.0,-67.0,18.0,242.0,290.0,143,40,84,69,47
2025-03-20 16:13:36.988,-493.0,-122.0,-278.0,30.0,201.0,275.0,139,43,86,71,48
2025-03-20 16:13:37.012,-235.0,-39.0,-66.0,77.0,165.0,244.0,141,43,84,74,46
2025-03-20 16:13:37.034,-675.0,347.0,-197.0,84.0,141.0,215.0,138,40,84,73,48
2025-03-20 16:13:37.057,-599.0,780.0,-382.0,73.0,92.0,125.0,136,43,83,75,46
2025-03-20 16:13:37.082,-581.0,1599.0,-1143.0,86.0,13.0,12.0,137,43,79,73,46
2025-03-20 16:13:37.107,-1247.0,3397.0,-2945.0,162.0,-211.0,-326.0,132,39,75,72,46
2025-03-20 16:13:37.132,-847.0,3833.0,-3871.0,66.0,-626.0,-802.0,95,42,75,61,41
2025-03-20 16:13:37.156,4790.0,3184.0,-3044.0,-255.0,-1338.0,-943.0,140,39,73,63,47
2025-03-20 16:13:37.180,8688.0,-6668.0,5583.0,-688.0,-393.0,-326.0,149,42,78,70,44
2025-03-20 16:13:37.205,3514.0,-7679.0,1874.0,481.0,390.0,84.0,148,35,83,59,47
2025-03-20 16:13:37.226,289.0,-561.0,-314.0,78.0,319.0,200.0,146,24,83,69,48
2025-03-20 16:13:37.251,-157.0,-1533.0,658.0,-182.0,111.0,166.0,145,40,81,70,50
2025-03-20 16:13:37.275,-214.0,-1653.0,505.0,-9.0,100.0,214.0,144,41,87,66,50
2025-03-20 16:13:37.297,-566.0,-327.0,2948.0,-164.0,27.0,251.0,142,36,93,54,50
2025-03-20 16:13:37.324,-234.0,-983.0,81.0,52.0,184.0,216.0,139,40,94,69,49
2025-03-20 16:13:37.348,8.0,-770.0,-261.0,22.0,229.0,212.0,137,42,103,51,51
2025-03-20 16:13:37.373,-182.0,-618.0,168.0,71.0,211.0,204.0,140,49,106,58,56
2025-03-20 16:13:37.394,-268.0,-513.0,71.0,117.0,175.0,222.0,125,25,120,60,58
2025-03-20 16:13:37.419,-383.0,-426.0,-15.0,150.0,163.0,208.0,118,41,129,62,59
2025-03-20 16:13:37.443,-540.0,-262.0,-29.0,175.0,149.0,208.0,114,46,135,42,60
2025-03-20 16:13:37.467,-638.0,-15.0,166.0,165.0,130.0,196.0,116,68,138,33,60
2025-03-20 16:13:37.492,-565.0,232.0,-130.0,169.0,124.0,170.0,111,65,137,35,58
2025-03-20 16:13:37.516,-662.0,997.0,-1015.0,178.0,71.0,103.0,84,61,138,44,59
2025-03-20 16:13:37.541,-1191.0,2300.0,-2251.0,99.0,-150.0,-155.0,116,76,138,61,54
2025-03-20 16:13:37.562,-944.0,2501.0,-2857.0,41.0,-620.0,-555.0,103,78,146,60,50
2025-03-20 16:13:37.586,1831.0,2391.0,-2231.0,-104.0,-1125.0,-770.0,92,97,147,53,52
2025-03-20 16:13:37.611,5849.0,-2000.0,-967.0,-370.0,-1281.0,-569.0,66,98,146,75,45
2025-03-20 16:13:37.636,5532.0,-5475.0,2404.0,30.0,-291.0,-28.0,93,71,148,57,49
2025-03-20 16:13:37.659,2686.0,-3084.0,1952.0,341.0,434.0,117.0,97,0,147,68,49
2025-03-20 16:13:37.684,486.0,-1064.0,1479.0,98.0,437.0,191.0,89,56,146,72,56
2025-03-20 16:13:37.701,99.0,-1001.0,734.0,-149.0,278.0,280.0,103,75,152,82,55
2025-03-20 16:13:37.725,-65.0,-696.0,881.0,-83.0,214.0,269.0,104,108,146,65,55
2025-03-20 16:13:37.752,-205.0,-530.0,729.0,-37.0,232.0,243.0,99,109,145,82,58
2025-03-20 16:13:37.779,-150.0,-443.0,644.0,-18.0,241.0,259.0,99,99,146,72,59
2025-03-20 16:13:37.804,-170.0,-248.0,473.0,-9.0,246.0,251.0,104,110,148,83,61
2025-03-20 16:13:37.828,-389.0,-260.0,-37.0,74.0,201.0,208.0,97,109,151,82,60
2025-03-20 16:13:37.852,-420.0,46.0,120.0,124.0,180.0,155.0,103,111,146,86,60
2025-03-20 16:13:37.877,-491.0,108.0,154.0,54.0,176.0,123.0,105,112,147,85,61
2025-03-20 16:13:37.898,-544.0,97.0,254.0,50.0,161.0,88.0,106,111,144,85,61
2025-03-20 16:13:37.922,-526.0,472.0,-80.0,72.0,141.0,71.0,110,95,146,79,65
2025-03-20 16:13:37.947,-438.0,1242.0,-1083.0,74.0,112.0,20.0,103,95,147,87,63
2025-03-20 16:13:37.971,-1462.0,2132.0,-2857.0,98.0,-164.0,-205.0,97,108,145,84,59
2025-03-20 16:13:37.996,-795.0,2986.0,-2905.0,-53.0,-703.0,-658.0,85,107,146,87,58
2025-03-20 16:13:38.020,3429.0,1834.0,-2517.0,-202.0,-1280.0,-863.0,96,102,147,91,60
2025-03-20 16:13:38.045,6958.0,-3948.0,1375.0,-50.0,-1083.0,-512.0,98,108,148,84,57
2025-03-20 16:13:38.066,5126.0,-4409.0,3895.0,172.0,71.0,74.0,98,28,147,89,58
2025-03-20 16:13:38.091,1091.0,-1795.0,2079.0,205.0,445.0,132.0,95,70,145,90,61
2025-03-20 16:13:38.114,-121.0,-721.0,458.0,-124.0,293.0,150.0,96,79,144,87,60
2025-03-20 16:13:38.139,-240.0,-1144.0,612.0,-170.0,154.0,152.0,97,103,146,92,60
2025-03-20 16:13:38.164,-112.0,-928.0,847.0,-175.0,99.0,133.0,104,107,145,84,61
2025-03-20 16:13:38.188,142.0,-1260.0,803.0,-133.0,153.0,160.0,96,102,139,88,66
2025-03-20 16:13:38.212,58.0,-1102.0,849.0,-93.0,174.0,221.0,104,94,139,90,77
2025-03-20 16:13:38.233,180.0,-875.0,495.0,-99.0,190.0,241.0,113,95,138,90,76
2025-03-20 16:13:38.258,-300.0,-523.0,297.0,-96.0,189.0,253.0,117,98,133,78,73
2025-03-20 16:13:38.283,-240.0,-411.0,188.0,-78.0,195.0,237.0,128,86,125,52,71
2025-03-20 16:13:38.307,-341.0,-369.0,400.0,-30.0,207.0,219.0,132,64,108,85,73
2025-03-20 16:13:38.331,-422.0,-37.0,142.0,46.0,213.0,157.0,137,51,100,81,68
2025-03-20 16:13:38.356,-749.0,511.0,-82.0,17.0,130.0,105.0,114,45,87,87,68
2025-03-20 16:13:38.380,-920.0,1688.0,-726.0,12.0,54.0,6.0,128,44,82,74,48
2025-03-20 16:13:38.405,-611.0,3402.0,-2159.0,305.0,-111.0,-330.0,129,28,74,74,46
2025-03-20 16:13:38.427,-1721.0,3198.0,-3381.0,181.0,-555.0,-714.0,125,29,70,80,48
2025-03-20 16:13:38.449,3078.0,3360.0,-3224.0,-144.0,-1145.0,-984.0,118,27,71,77,46
2025-03-20 16:13:38.475,8615.0,-6598.0,2393.0,-199.0,-872.0,-399.0,147,34,75,86,47
2025-03-20 16:13:38.500,5084.0,-6873.0,1565.0,300.0,408.0,26.0,148,34,89,74,49
2025-03-20 16:13:38.525,1027.0,-1934.0,-412.0,126.0,480.0,244.0,134,28,90,76,50
2025-03-20 16:13:38.546,66.0,-1408.0,192.0,-212.0,168.0,254.0,135,27,80,83,52
2025-03-20 16:13:38.569,9.0,-2251.0,512.0,-235.0,77.0,309.0,132,41,80,89,52
2025-03-20 16:13:38.595,638.0,-1276.0,689.0,49.0,188.0,297.0,130,42,84,89,51
2025-03-20 16:13:38.619,-207.0,-579.0,283.0,31.0,258.0,279.0,137,40,81,92,51
2025-03-20 16:13:38.643,1956.0,-74.0,94.0,-92.0,176.0,249.0,146,37,80,91,50
2025-03-20 16:13:38.667,-212.0,-392.0,-66.0,-57.0,127.0,243.0,148,43,83,92,48
2025-03-20 16:13:38.691,-50.0,-271.0,69.0,99.0,208.0,215.0,149,43,84,94,48
2025-03-20 16:13:38.711,-626.0,-137.0,-207.0,68.0,174.0,232.0,135,42,83,92,50
2025-03-20 16:13:38.737,-573.0,226.0,-251.0,69.0,97.0,215.0,139,42,84,91,50
2025-03-20 16:13:38.762,-156.0,586.0,116.0,133.0,115.0,140.0,138,43,86,93,50
2025-03-20 16:13:38.785,-520.0,2287.0,-1005.0,189.0,77.0,24.0,134,44,82,89,52
2025-03-20 16:13:38.811,-1714.0,4162.0,-3103.0,156.0,-198.0,-442.0,135,41,81,83,51
2025-03-20 16:13:38.836,-164.0,3549.0,-3480.0,-20.0,-697.0,-960.0,114,43,77,86,52
2025-03-20 16:13:38.860,5258.0,1331.0,-2646.0,-482.0,-1176.0,-995.0,140,38,78,87,48
2025-03-20 16:13:38.885,8056.0,-7258.0,2396.0,-364.0,-650.0,-385.0,149,45,86,83,53
2025-03-20 16:13:38.909,4255.0,-7857.0,1831.0,374.0,476.0,105.0,139,30,90,83,55
2025-03-20 16:13:38.930,1031.0,-1118.0,-1032.0,337.0,462.0,255.0,138,24,89,86,53
2025-03-20 16:13:38.944,-168.0,-665.0,-465.0,-142.0,167.0,211.0,133,40,80,87,54
2025-03-20 16:13:38.979,-50.0,-1882.0,489.0,-165.0,77.0,248.0,135,35,82,77,53
2025-03-20 16:13:39.003,-60.0,-1231.0,601.0,-74.0,200.0,271.0,135,23,87,84,55
2025-03-20 16:13:39.026,74.0,-801.0,604.0,170.0,297.0,263.0,139,43,81,80,53
2025-03-20 16:13:39.052,-82.0,-563.0,155.0,130.0,279.0,278.0,137,46,83,87,62
2025-03-20 16:13:39.074,110.0,-601.0,9.0,93.0,249.0,318.0,113,49,83,89,62
2025-03-20 16:13:39.098,-348.0,-378.0,-544.0,202.0,173.0,316.0,127,36,84,78,66
2025-03-20 16:13:39.123,-464.0,-144.0,-253.0,210.0,226.0,291.0,122,42,84,73,62
2025-03-20 16:13:39.147,-439.0,117.0,-96.0,119.0,157.0,278.0,120,42,82,79,66
2025-03-20 16:13:39.171,-610.0,299.0,-165.0,118.0,123.0,247.0,123,45,81,63,65
2025-03-20 16:13:39.196,-667.0,1246.0,-667.0,22.0,30.0,156.0,129,48,77,61,58
2025-03-20 16:13:39.220,-900.0,2942.0,-2014.0,-64.0,-93.0,-146.0,102,47,74,67,50
2025-03-20 16:13:39.244,-481.0,4270.0,-4483.0,-131.0,-477.0,-711.0,79,6,71,67,47
2025-03-20 16:13:39.269,1866.0,3684.0,-4498.0,-131.0,-1130.0,-1093.0,90,6,70,64,42
2025-03-20 16:13:39.283,8985.0,-637.0,-1162.0,-253.0,-1387.0,-884.0,76,38,72,73,46
2025-03-20 16:13:39.313,8382.0,-8366.0,5206.0,27.0,173.0,6.0,72,32,80,73,45
2025-03-20 16:13:39.339,1834.0,-3860.0,-251.0,549.0,435.0,159.0,92,37,80,73,47
2025-03-20 16:13:39.363,-373.0,-871.0,7.0,-251.0,109.0,173.0,73,29,77,73,43
2025-03-20 16:13:39.388,325.0,-2270.0,1255.0,-230.0,55.0,226.0,95,34,79,72,45
2025-03-20 16:13:39.413,191.0,-1561.0,1175.0,-77.0,172.0,249.0,90,40,82,73,47
2025-03-20 16:13:39.434,-145.0,-1012.0,633.0,-65.0,210.0,257.0,89,44,78,69,47
2025-03-20 16:13:39.458,-254.0,-757.0,395.0,-123.0,176.0,270.0,98,43,73,73,48
2025-03-20 16:13:39.483,184.0,-565.0,549.0,-104.0,204.0,256.0,95,37,76,72,47
2025-03-20 16:13:39.507,-76.0,-271.0,352.0,-36.0,233.0,229.0,99,48,78,72,50
2025-03-20 16:13:39.531,-332.0,-483.0,505.0,-57.0,195.0,211.0,98,46,76,73,45
2025-03-20 16:13:39.549,-317.0,-242.0,-43.0,9.0,166.0,211.0,100,48,77,71,47
2025-03-20 16:13:39.581,-210.0,-200.0,-240.0,82.0,170.0,223.0,100,45,82,72,51
2025-03-20 16:13:39.601,-395.0,139.0,-113.0,85.0,138.0,204.0,106,49,79,73,48
2025-03-20 16:13:39.626,-561.0,489.0,-220.0,43.0,93.0,133.0,100,46,78,74,52
2025-03-20 16:13:39.651,-544.0,793.0,-277.0,54.0,46.0,45.0,97,49,80,74,52
2025-03-20 16:13:39.675,-580.0,1038.0,-1069.0,125.0,-17.0,14.0,102,41,78,74,51
2025-03-20 16:13:39.700,-1167.0,2851.0,-2943.0,241.0,-254.0,-209.0,88,44,75,73,49
2025-03-20 16:13:39.724,-830.0,3790.0,-3884.0,172.0,-703.0,-702.0,89,36,74,74,50
2025-03-20 16:13:39.749,3815.0,3568.0,-2688.0,-45.0,-1396.0,-1031.0,86,40,74,59,50
2025-03-20 16:13:39.773,10123.0,-8466.0,7253.0,79.0,-758.0,-363.0,81,44,82,71,44
2025-03-20 16:13:39.794,4659.0,-4305.0,2713.0,547.0,623.0,23.0,88,23,88,49,39
2025-03-20 16:13:39.819,504.0,-314.0,1338.0,75.0,535.0,179.0,83,18,85,74,47
2025-03-20 16:13:39.843,-649.0,-1009.0,418.0,-310.0,220.0,170.0,90,44,83,75,48
2025-03-20 16:13:39.867,-154.0,-1832.0,1304.0,-203.0,177.0,196.0,115,28,86,77,48
2025-03-20 16:13:39.892,-313.0,-1091.0,951.0,30.0,213.0,237.0,112,39,89,74,47
2025-03-20 16:13:39.907,-563.0,-632.0,187.0,38.0,285.0,226.0,125,38,90,73,51
2025-03-20 16:13:39.938,-518.0,-370.0,130.0,-37.0,229.0,223.0,121,42,90,61,48
2025-03-20 16:13:39.962,-5.0,-586.0,540.0,51.0,254.0,224.0,119,32,90,67,54
2025-03-20 16:13:39.988,-385.0,-253.0,162.0,90.0,218.0,219.0,118,33,93,73,56
2025-03-20 16:13:40.011,-389.0,-150.0,32.0,102.0,223.0,194.0,119,50,93,71,56
2025-03-20 16:13:40.035,-428.0,-134.0,-192.0,85.0,176.0,209.0,116,67,87,65,54
2025-03-20 16:13:40.058,-428.0,288.0,-271.0,101.0,140.0,209.0,108,61,86,73,54
2025-03-20 16:13:40.085,-576.0,1210.0,-633.0,76.0,78.0,108.0,93,71,85,73,50
2025-03-20 16:13:40.109,-966.0,1896.0,-2279.0,66.0,-106.0,-91.0,75,71,78,73,47
2025-03-20 16:13:40.130,-1454.0,2488.0,-5271.0,111.0,-672.0,-386.0,66,52,73,72,44
2025-03-20 16:13:40.155,2524.0,2134.0,-5335.0,266.0,-1392.0,-546.0,72,36,73,74,43
2025-03-20 16:13:40.179,7770.0,-1165.0,-372.0,458.0,-1491.0,-209.0,77,31,76,74,41
2025-03-20 16:13:40.204,5945.0,1042.0,6969.0,461.0,-681.0,-123.0,73,52,86,71,46
2025-03-20 16:13:40.228,3631.0,448.0,5850.0,31.0,193.0,-64.0,77,52,83,76,48
2025-03-20 16:13:40.253,1175.0,4.0,2300.0,-174.0,276.0,43.0,82,48,82,78,47
2025-03-20 16:13:40.273,641.0,-128.0,1785.0,-279.0,281.0,76.0,84,20,83,75,47
2025-03-20 16:13:40.296,511.0,-623.0,1462.0,-144.0,311.0,72.0,79,47,83,69,44
2025-03-20 16:13:40.322,489.0,-261.0,1436.0,-87.0,306.0,91.0,80,51,84,75,45
2025-03-20 16:13:40.347,401.0,57.0,1271.0,-192.0,337.0,110.0,74,64,84,76,48
2025-03-20 16:13:40.371,109.0,-59.0,788.0,-184.0,379.0,124.0,79,62,85,73,42
2025-03-20 16:13:40.396,28.0,-185.0,479.0,-19.0,353.0,112.0,82,64,84,74,41
2025-03-20 16:13:40.418,5.0,293.0,361.0,-53.0,350.0,96.0,81,52,83,73,43
2025-03-20 16:13:40.441,-280.0,24.0,95.0,-126.0,344.0,111.0,86,67,82,72,42
2025-03-20 16:13:40.466,-475.0,-360.0,-425.0,-72.0,217.0,140.0,82,55,83,74,45
2025-03-20 16:13:40.491,-345.0,279.0,0.0,46.0,184.0,100.0,78,70,84,76,48
2025-03-20 16:13:40.515,-576.0,819.0,-264.0,1.0,174.0,51.0,69,52,86,74,47
2025-03-20 16:13:40.540,-886.0,956.0,-1132.0,-42.0,24.0,-13.0,78,70,83,75,46
2025-03-20 16:13:40.564,-1424.0,1430.0,-3713.0,148.0,-349.0,-245.0,72,71,78,74,44
2025-03-20 16:13:40.589,168.0,1425.0,-4768.0,289.0,-1000.0,-405.0,78,35,76,65,44
2025-03-20 16:13:40.613,4684.0,469.0,-2297.0,333.0,-1403.0,-267.0,77,59,79,72,46
2025-03-20 16:13:40.635,6000.0,169.0,3761.0,562.0,-1009.0,-107.0,74,55,84,70,47
2025-03-20 16:13:40.659,4270.0,1481.0,7367.0,206.0,-7.0,-108.0,76,50,88,77,48
2025-03-20 16:13:40.683,2215.0,-79.0,2702.0,-139.0,237.0,12.0,63,52,85,76,48
2025-03-20 16:13:40.708,901.0,-553.0,1903.0,-138.0,181.0,93.0,71,24,89,77,48
2025-03-20 16:13:40.732,701.0,-109.0,2327.0,-193.0,304.0,110.0,86,60,90,78,49
2025-03-20 16:13:40.757,564.0,-170.0,1541.0,-185.0,402.0,135.0,85,61,87,78,48
2025-03-20 16:13:40.781,506.0,103.0,1183.0,-210.0,445.0,145.0,78,60,88,76,47
2025-03-20 16:13:40.802,335.0,227.0,1005.0,-273.0,469.0,153.0,79,78,90,75,45
2025-03-20 16:13:40.824,157.0,-187.0,753.0,-243.0,460.0,161.0,92,67,89,74,48
2025-03-20 16:13:40.851,158.0,-200.0,238.0,-160.0,477.0,152.0,104,65,90,73,46
2025-03-20 16:13:40.874,223.0,112.0,127.0,-60.0,476.0,160.0,94,54,90,68,50
2025-03-20 16:13:40.900,-306.0,293.0,-220.0,56.0,392.0,116.0,98,51,97,72,58
2025-03-20 16:13:40.924,-764.0,223.0,-435.0,162.0,233.0,61.0,105,70,100,69,67
2025-03-20 16:13:40.944,-662.0,419.0,-715.0,31.0,118.0,9.0,102,74,105,0,84
2025-03-20 16:13:40.969,-328.0,537.0,-956.0,51.0,23.0,-9.0,108,73,109,0,96
2025-03-20 16:13:40.995,-379.0,1130.0,-1542.0,19.0,-135.0,-60.0,107,87,123,46,93
2025-03-20 16:13:41.020,-500.0,1995.0,-3239.0,-42.0,-435.0,-330.0,119,91,130,68,89
2025-03-20 16:13:41.043,-264.0,1519.0,-2256.0,-202.0,-704.0,-679.0,119,87,137,82,96
2025-03-20 16:13:41.066,3850.0,1039.0,-2414.0,-27.0,-1283.0,-768.0,115,85,141,86,94
2025-03-20 16:13:41.088,7367.0,-5278.0,4102.0,-557.0,-861.0,-491.0,131,54,144,80,107
2025-03-20 16:13:41.117,3825.0,-6162.0,4167.0,166.0,154.0,113.0,137,9,146,78,100
2025-03-20 16:13:41.138,1707.0,-2580.0,1949.0,298.0,571.0,272.0,133,50,144,104,110
2025-03-20 16:13:41.163,-19.0,-648.0,-340.0,94.0,343.0,246.0,130,56,144,100,111
2025-03-20 16:13:41.187,-41.0,-894.0,420.0,-223.0,187.0,226.0,131,67,143,92,110
2025-03-20 16:13:41.212,-60.0,-1058.0,736.0,-212.0,181.0,185.0,131,103,144,102,111
2025-03-20 16:13:41.236,127.0,-1127.0,611.0,-89.0,300.0,187.0,132,103,144,102,110
2025-03-20 16:13:41.260,-304.0,-382.0,292.0,-109.0,319.0,231.0,129,107,144,103,109
2025-03-20 16:13:41.283,-235.0,-230.0,122.0,19.0,216.0,260.0,129,104,145,105,111
2025-03-20 16:13:41.306,-52.0,-104.0,72.0,30.0,202.0,217.0,127,102,143,105,111
2025-03-20 16:13:41.331,-387.0,-7.0,31.0,6.0,195.0,187.0,122,103,144,105,110
2025-03-20 16:13:41.355,-466.0,387.0,-265.0,2.0,156.0,184.0,123,104,146,106,110
2025-03-20 16:13:41.380,-541.0,576.0,-645.0,99.0,66.0,167.0,113,104,143,105,109
2025-03-20 16:13:41.404,-586.0,1046.0,-1201.0,184.0,-1.0,122.0,121,96,142,105,107
2025-03-20 16:13:41.428,-664.0,1952.0,-2349.0,114.0,-229.0,-65.0,121,102,142,105,106
2025-03-20 16:13:41.442,-990.0,2081.0,-2709.0,142.0,-459.0,-406.0,123,99,142,104,106
2025-03-20 16:13:41.476,-119.0,1966.0,-1311.0,-18.0,-695.0,-736.0,121,92,142,105,104
2025-03-20 16:13:41.498,4800.0,2448.0,675.0,-261.0,-1263.0,-858.0,118,95,143,103,105
2025-03-20 16:13:41.523,7033.0,-7132.0,4070.0,-799.0,-733.0,-453.0,132,86,148,103,112
2025-03-20 16:13:41.547,3941.0,-6355.0,2062.0,351.0,141.0,245.0,127,50,147,105,115
2025-03-20 16:13:41.570,1892.0,-1842.0,1868.0,465.0,504.0,270.0,126,85,143,108,111
2025-03-20 16:13:41.596,25.0,-468.0,607.0,146.0,449.0,181.0,128,82,134,106,101
2025-03-20 16:13:41.621,-493.0,-687.0,56.0,-142.0,185.0,179.0,132,94,124,99,95
2025-03-20 16:13:41.645,-192.0,-879.0,889.0,-229.0,129.0,171.0,131,97,118,88,86
2025-03-20 16:13:41.667,410.0,-1133.0,1600.0,-92.0,291.0,118.0,129,95,113,76,75
2025-03-20 16:13:41.691,-126.0,-808.0,151.0,45.0,275.0,238.0,116,95,102,71,64
2025-03-20 16:13:41.715,-68.0,-397.0,70.0,76.0,290.0,328.0,107,93,93,59,56
2025-03-20 16:13:41.740,103.0,-59.0,-47.0,69.0,296.0,376.0,102,92,89,0,56
2025-03-20 16:13:41.764,-416.0,-243.0,-387.0,151.0,230.0,351.0,96,77,83,0,47
2025-03-20 16:13:41.788,-662.0,809.0,-1095.0,158.0,132.0,251.0,81,69,79,46,48
2025-03-20 16:13:41.810,-916.0,1067.0,-1021.0,9.0,-14.0,140.0,77,67,76,41,45
2025-03-20 16:13:41.834,-556.0,2269.0,-2603.0,127.0,-234.0,-158.0,73,60,74,51,43
2025-03-20 16:13:41.859,-1433.0,2984.0,-4751.0,222.0,-775.0,-497.0,71,41,71,55,39
2025-03-20 16:13:41.883,4340.0,3003.0,-4303.0,222.0,-1505.0,-623.0,69,31,74,60,44
2025-03-20 16:13:41.908,8158.0,-2353.0,2968.0,330.0,-1170.0,-215.0,77,45,81,53,45
2025-03-20 16:13:41.932,4883.0,-208.0,6912.0,515.0,-222.0,-184.0,87,44,92,59,46
2025-03-20 16:13:41.957,2809.0,10.0,4609.0,-36.0,396.0,-60.0,82,59,92,60,47
2025-03-20 16:13:41.980,1060.0,-466.0,1350.0,-273.0,404.0,93.0,72,66,88,61,47
2025-03-20 16:13:42.003,803.0,-660.0,1852.0,-260.0,407.0,132.0,81,18,90,62,46
2025-03-20 16:13:42.027,653.0,-650.0,508.0,-138.0,408.0,202.0,84,53,92,60,46
2025-03-20 16:13:42.051,145.0,110.0,1239.0,-102.0,409.0,123.0,78,63,92,63,47
2025-03-20 16:13:42.076,-60.0,146.0,784.0,-136.0,390.0,80.0,84,71,92,64,48
2025-03-20 16:13:42.100,-384.0,-147.0,212.0,-152.0,343.0,77.0,72,76,93,66,48
2025-03-20 16:13:42.124,-351.0,-318.0,63.0,-122.0,236.0,110.0,67,79,93,65,49
2025-03-20 16:13:42.145,-61.0,-92.0,355.0,-38.0,229.0,85.0,72,59,93,65,49
2025-03-20 16:13:42.170,-232.0,53.0,80.0,-34.0,249.0,93.0,78,60,93,66,49
2025-03-20 16:13:42.195,-684.0,116.0,-272.0,-33.0,155.0,117.0,79,75,92,66,48
2025-03-20 16:13:42.219,-495.0,345.0,-250.0,-28.0,78.0,138.0,78,71,89,64,47
2025-03-20 16:13:42.242,-346.0,1044.0,-733.0,72.0,65.0,42.0,78,79,90,63,44
2025-03-20 16:13:42.268,-1478.0,2136.0,-3230.0,140.0,-152.0,-267.0,76,72,83,66,47
2025-03-20 16:13:42.293,-310.0,2060.0,-4758.0,168.0,-873.0,-574.0,69,72,79,66,46
2025-03-20 16:13:42.317,5429.0,556.0,-1964.0,122.0,-1473.0,-469.0,73,48,82,67,46
2025-03-20 16:13:42.338,6814.0,-2929.0,5133.0,272.0,-851.0,-93.0,86,54,91,63,48
2025-03-20 16:13:42.360,4019.0,-503.0,7017.0,199.0,264.0,-112.0,87,43,94,66,48
2025-03-20 16:13:42.387,1716.0,-848.0,2849.0,-111.0,554.0,-13.0,83,55,93,62,50
2025-03-20 16:13:42.411,684.0,-568.0,1246.0,-300.0,474.0,81.0,79,71,97,66,48
2025-03-20 16:13:42.436,186.0,-917.0,884.0,-301.0,365.0,134.0,93,62,98,62,46
2025-03-20 16:13:42.460,-20.0,-1140.0,705.0,-164.0,333.0,185.0,94,68,104,63,45
2025-03-20 16:13:42.484,-122.0,-641.0,568.0,-64.0,353.0,227.0,105,68,109,63,50
2025-03-20 16:13:42.506,-224.0,-233.0,558.0,-33.0,311.0,229.0,105,68,119,68,52
2025-03-20 16:13:42.530,-443.0,-247.0,143.0,-26.0,267.0,232.0,113,81,132,75,52
2025-03-20 16:13:42.555,-358.0,-115.0,17.0,4.0,217.0,238.0,114,59,137,76,52
2025-03-20 16:13:42.580,-462.0,73.0,43.0,69.0,206.0,170.0,119,81,141,71,52
2025-03-20 16:13:42.604,-690.0,353.0,60.0,58.0,147.0,118.0,117,91,143,79,52
2025-03-20 16:13:42.627,-477.0,589.0,80.0,-2.0,137.0,57.0,117,98,143,81,55
2025-03-20 16:13:42.652,-475.0,1032.0,-500.0,10.0,122.0,-19.0,115,101,143,80,53
2025-03-20 16:13:42.677,-763.0,1666.0,-2330.0,-15.0,-62.0,-188.0,114,96,144,72,53
2025-03-20 16:13:42.699,-816.0,2984.0,-3731.0,-31.0,-480.0,-487.0,102,103,145,76,49
2025-03-20 16:13:42.723,422.0,1506.0,-3561.0,-82.0,-1052.0,-727.0,94,96,146,63,48
2025-03-20 16:13:42.746,5981.0,-141.0,-2945.0,-136.0,-1447.0,-548.0,90,76,148,78,49
2025-03-20 16:13:42.772,6228.0,-4180.0,5796.0,210.0,-522.0,-182.0,111,49,149,84,46
2025-03-20 16:13:42.796,3556.0,-2660.0,4727.0,180.0,403.0,39.0,96,49,147,87,50
2025-03-20 16:13:42.821,1006.0,-1002.0,1388.0,-30.0,543.0,107.0,91,80,147,88,52
2025-03-20 16:13:42.841,256.0,-1120.0,613.0,-196.0,352.0,181.0,96,74,146,80,47
2025-03-20 16:13:42.867,-116.0,-1227.0,660.0,-175.0,239.0,218.0,99,73,147,89,51
2025-03-20 16:13:42.891,-143.0,-761.0,880.0,-48.0,262.0,213.0,104,99,150,93,53
2025-03-20 16:13:42.916,-383.0,-491.0,394.0,-7.0,246.0,215.0,96,101,147,85,55
2025-03-20 16:13:42.939,-273.0,-293.0,441.0,-25.0,240.0,178.0,93,109,148,76,56
2025-03-20 16:13:42.962,-438.0,-431.0,289.0,-14.0,205.0,168.0,100,102,148,85,57
2025-03-20 16:13:42.988,-337.0,-269.0,375.0,34.0,217.0,142.0,101,109,146,90,58
2025-03-20 16:13:43.010,-413.0,-176.0,173.0,49.0,214.0,137.0,103,112,147,89,57
2025-03-20 16:13:43.034,-524.0,16.0,71.0,59.0,192.0,132.0,102,114,146,92,58
2025-03-20 16:13:43.058,-478.0,558.0,-114.0,41.0,179.0,114.0,102,112,146,93,59
2025-03-20 16:13:43.084,-602.0,1628.0,-1505.0,44.0,121.0,39.0,96,111,146,92,57
2025-03-20 16:13:43.106,-1406.0,2325.0,-3098.0,152.0,-190.0,-228.0,97,108,147,93,56
2025-03-20 16:13:43.132,-416.0,3305.0,-2949.0,11.0,-754.0,-663.0,91,113,154,86,55
2025-03-20 16:13:43.157,3305.0,2123.0,-2825.0,-265.0,-1312.0,-816.0,83,100,147,96,54
2025-03-20 16:13:43.181,7117.0,-4948.0,3093.0,82.0,-938.0,-448.0,103,105,146,95,53
2025-03-20 16:13:43.203,4876.0,-4266.0,4050.0,319.0,91.0,31.0,103,70,148,93,47
2025-03-20 16:13:43.227,1606.0,-1696.0,2267.0,159.0,455.0,75.0,90,76,147,100,56
2025-03-20 16:13:43.252,315.0,-877.0,1420.0,-166.0,361.0,103.0,97,92,144,101,56
2025-03-20 16:13:43.276,12.0,-1494.0,606.0,-214.0,316.0,172.0,104,81,140,89,57
2025-03-20 16:13:43.300,-152.0,-1119.0,842.0,-79.0,292.0,192.0,112,104,130,89,57
2025-03-20 16:13:43.324,-94.0,-719.0,505.0,20.0,295.0,163.0,114,103,125,80,55
2025-03-20 16:13:43.349,-49.0,-452.0,641.0,18.0,297.0,178.0,107,103,111,74,56
2025-03-20 16:13:43.370,-18.0,-645.0,568.0,-34.0,277.0,235.0,110,96,99,79,62
2025-03-20 16:13:43.394,-151.0,-631.0,200.0,73.0,283.0,232.0,107,93,96,83,57
2025-03-20 16:13:43.419,-335.0,-110.0,-313.0,56.0,257.0,253.0,87,84,91,82,56
2025-03-20 16:13:43.444,-779.0,43.0,-295.0,74.0,180.0,232.0,83,80,86,70,48
2025-03-20 16:13:43.468,-674.0,647.0,-1022.0,113.0,68.0,163.0,78,62,81,73,43
2025-03-20 16:13:43.493,-913.0,1358.0,-1983.0,144.0,-103.0,-21.0,78,42,75,82,47
2025-03-20 16:13:43.517,-1278.0,1959.0,-4141.0,256.0,-560.0,-261.0,74,52,69,83,35
2025-03-20 16:13:43.539,1983.0,1625.0,-4165.0,383.0,-1194.0,-345.0,74,43,72,84,40
2025-03-20 16:13:43.562,4769.0,411.0,-593.0,461.0,-1190.0,-154.0,79,54,76,83,43
2025-03-20 16:13:43.587,4646.0,1070.0,3738.0,483.0,-779.0,-99.0,87,67,81,82,49
2025-03-20 16:13:43.611,3640.0,831.0,6327.0,150.0,-47.0,-51.0,91,81,82,79,38
2025-03-20 16:13:43.636,2299.0,398.0,3257.0,-174.0,346.0,24.0,86,36,83,82,49
2025-03-20 16:13:43.660,1067.0,-107.0,1713.0,-148.0,355.0,48.0,81,41,84,83,42
2025-03-20 16:13:43.681,490.0,-31.0,1786.0,-177.0,386.0,73.0,81,42,84,83,48
2025-03-20 16:13:43.707,223.0,374.0,1065.0,-168.0,379.0,86.0,80,54,86,83,46
2025-03-20 16:13:43.731,210.0,166.0,969.0,-169.0,320.0,26.0,79,70,89,83,47
2025-03-20 16:13:43.755,293.0,-123.0,1042.0,-156.0,383.0,51.0,82,70,88,84,48
2025-03-20 16:13:43.779,-81.0,-540.0,314.0,-152.0,369.0,125.0,85,78,85,84,45
2025-03-20 16:13:43.804,-384.0,-134.0,12.0,-41.0,256.0,96.0,84,73,86,84,36
2025-03-20 16:13:43.829,-194.0,260.0,314.0,-53.0,274.0,57.0,84,74,85,84,43
2025-03-20 16:13:43.849,-510.0,95.0,-88.0,-101.0,250.0,74.0,82,77,85,87,47
2025-03-20 16:13:43.874,-748.0,-78.0,-342.0,-100.0,125.0,125.0,80,76,84,82,44
2025-03-20 16:13:43.899,-205.0,570.0,-178.0,-12.0,104.0,41.0,82,81,85,84,43
2025-03-20 16:13:43.923,-738.0,1390.0,-1564.0,2.0,75.0,-80.0,78,82,85,84,47
2025-03-20 16:13:43.946,-2001.0,1679.0,-4605.0,88.0,-530.0,-325.0,76,88,79,83,44
2025-03-20 16:13:43.961,1711.0,1240.0,-3989.0,249.0,-1168.0,-387.0,76,75,80,78,47
2025-03-20 16:13:43.997,5170.0,-316.0,-322.0,369.0,-1270.0,-187.0,81,72,80,84,49
2025-03-20 16:13:44.021,5000.0,105.0,5541.0,340.0,-624.0,-33.0,84,63,90,69,51
2025-03-20 16:13:44.042,3440.0,183.0,5611.0,-52.0,151.0,-15.0,85,73,91,77,52
2025-03-20 16:13:44.066,1609.0,-623.0,2395.0,-168.0,349.0,32.0,88,74,90,80,51
2025-03-20 16:13:44.091,623.0,-520.0,1577.0,-207.0,302.0,68.0,90,56,93,82,47
2025-03-20 16:13:44.115,306.0,-536.0,1533.0,-272.0,299.0,143.0,92,68,93,82,52
2025-03-20 16:13:44.139,267.0,-396.0,1246.0,-260.0,310.0,193.0,90,78,94,81,50
2025-03-20 16:13:44.164,128.0,-107.0,1063.0,-225.0,299.0,131.0,93,85,95,81,52
2025-03-20 16:13:44.187,255.0,-388.0,765.0,-225.0,360.0,145.0,99,87,94,80,44
2025-03-20 16:13:44.211,241.0,-268.0,603.0,-151.0,409.0,177.0,101,71,96,81,53
2025-03-20 16:13:44.234,-104.0,-251.0,181.0,-154.0,378.0,172.0,102,71,94,81,47
2025-03-20 16:13:44.259,27.0,-62.0,307.0,-109.0,381.0,176.0,105,61,91,82,52
2025-03-20 16:13:44.284,-869.0,1180.0,-396.0,-5.0,376.0,141.0,105,24,91,81,55
2025-03-20 16:13:44.308,-764.0,308.0,-389.0,-20.0,249.0,87.0,110,32,88,80,53
2025-03-20 16:13:44.331,-667.0,723.0,-504.0,-57.0,137.0,20.0,110,24,83,83,57
2025-03-20 16:13:44.356,-448.0,1006.0,-1198.0,28.0,28.0,-12.0,120,27,83,81,56
2025-03-20 16:13:44.381,-629.0,2515.0,-2803.0,142.0,-191.0,-209.0,121,33,78,79,50
2025-03-20 16:13:44.402,-661.0,3528.0,-3742.0,44.0,-525.0,-699.0,117,22,74,74,48
2025-03-20 16:13:44.427,2199.0,3186.0,-3578.0,-189.0,-1172.0,-1060.0,94,0,75,77,43
2025-03-20 16:13:44.452,9629.0,-4097.0,2953.0,-153.0,-1214.0,-753.0,80,27,76,82,46
2025-03-20 16:13:44.476,8123.0,-6853.0,4043.0,439.0,304.0,68.0,80,21,89,83,43
2025-03-20 16:13:44.500,1227.0,-1790.0,239.0,395.0,495.0,83.0,98,30,87,83,49
2025-03-20 16:13:44.525,-521.0,-597.0,704.0,-314.0,208.0,148.0,87,23,85,80,48
2025-03-20 16:13:44.546,128.0,-2094.0,721.0,-339.0,119.0,202.0,99,34,86,85,49
2025-03-20 16:13:44.569,539.0,-1750.0,1025.0,-71.0,230.0,263.0,97,40,88,85,53
2025-03-20 16:13:44.595,147.0,-814.0,425.0,-21.0,276.0,246.0,104,36,81,84,53
2025-03-20 16:13:44.619,-233.0,-440.0,333.0,-88.0,186.0,220.0,104,38,83,84,53
2025-03-20 16:13:44.643,-105.0,-770.0,307.0,-68.0,180.0,236.0,108,38,83,84,52
2025-03-20 16:13:44.667,-150.0,-505.0,316.0,33.0,190.0,252.0,110,38,84,84,49
2025-03-20 16:13:44.692,-432.0,-158.0,8.0,10.0,203.0,236.0,112,37,84,87,55
2025-03-20 16:13:44.714,-309.0,-77.0,27.0,46.0,174.0,202.0,113,39,82,85,56
2025-03-20 16:13:44.739,-484.0,136.0,-197.0,47.0,159.0,158.0,115,38,85,84,56
2025-03-20 16:13:44.763,-798.0,128.0,-300.0,46.0,110.0,131.0,104,37,86,82,58
2025-03-20 16:13:44.787,-526.0,546.0,-311.0,42.0,71.0,98.0,111,40,87,83,58
2025-03-20 16:13:44.812,-552.0,1155.0,-907.0,100.0,0.0,43.0,107,42,80,83,58
2025-03-20 16:13:44.836,-702.0,1934.0,-1971.0,139.0,-95.0,-134.0,113,39,83,80,57
2025-03-20 16:13:44.861,-1305.0,2530.0,-2821.0,127.0,-459.0,-478.0,114,34,78,78,50
2025-03-20 16:13:44.885,639.0,1906.0,-3669.0,194.0,-1078.0,-752.0,124,25,78,83,54
2025-03-20 16:13:44.906,6005.0,-583.0,1595.0,111.0,-1269.0,-596.0,98,29,81,84,50
2025-03-20 16:13:44.931,6776.0,-3648.0,6249.0,515.0,-39.0,46.0,93,33,93,86,49
2025-03-20 16:13:44.956,1162.0,-828.0,2928.0,294.0,583.0,-10.0,112,39,90,83,51
2025-03-20 16:13:44.980,-548.0,-86.0,684.0,-42.0,359.0,47.0,101,39,88,86,51
2025-03-20 16:13:45.004,-553.0,-1261.0,708.0,-36.0,196.0,31.0,103,29,90,90,51
2025-03-20 16:13:45.029,-449.0,-685.0,500.0,189.0,167.0,49.0,112,35,93,89,53
2025-03-20 16:13:45.049,-861.0,43.0,285.0,194.0,86.0,23.0,112,35,92,91,54
2025-03-20 16:13:45.073,-673.0,0.0,461.0,181.0,-24.0,-13.0,115,37,90,90,52
2025-03-20 16:13:45.098,-401.0,-84.0,614.0,250.0,-61.0,-21.0,114,37,90,90,53
2025-03-20 16:13:45.123,-423.0,178.0,899.0,255.0,-39.0,-40.0,116,39,89,90,53
2025-03-20 16:13:45.148,-411.0,344.0,795.0,224.0,-23.0,-76.0,116,35,90,91,54
2025-03-20 16:13:45.172,-372.0,40.0,760.0,195.0,-37.0,-88.0,115,35,87,91,53
2025-03-20 16:13:45.197,-86.0,-226.0,781.0,170.0,-103.0,-89.0,119,38,89,91,53
2025-03-20 16:13:45.221,686.0,-1360.0,1191.0,113.0,-159.0,-22.0,122,40,88,91,54
2025-03-20 16:13:45.242,1712.0,-2333.0,2327.0,-5.0,-58.0,191.0,125,40,88,90,52
2025-03-20 16:13:45.265,2389.0,-3156.0,2466.0,-191.0,97.0,527.0,127,40,89,91,49
2025-03-20 16:13:45.289,3351.0,-2575.0,1604.0,-94.0,220.0,857.0,127,38,89,92,49
2025-03-20 16:13:45.316,3096.0,1316.0,1336.0,-113.0,194.0,851.0,129,33,91,88,46
2025-03-20 16:13:45.340,775.0,4503.0,781.0,-194.0,230.0,452.0,137,36,89,87,44
2025-03-20 16:13:45.365,-108.0,4355.0,6.0,82.0,177.0,118.0,143,36,84,83,48
2025-03-20 16:13:45.389,-294.0,4315.0,509.0,92.0,71.0,-78.0,136,35,84,86,49
2025-03-20 16:13:45.410,-151.0,2426.0,532.0,31.0,-10.0,-238.0,144,38,85,81,50
2025-03-20 16:13:45.434,235.0,387.0,818.0,-8.0,-74.0,-263.0,144,37,83,87,49
2025-03-20 16:13:45.446,418.0,-592.0,1429.0,42.0,-14.0,-192.0,144,40,91,87,51
2025-03-20 16:13:45.483,-39.0,-156.0,765.0,126.0,40.0,-218.0,137,33,95,89,54
2025-03-20 16:13:45.508,-380.0,-186.0,513.0,142.0,3.0,-170.0,139,43,91,91,49
2025-03-20 16:13:45.532,-488.0,209.0,647.0,109.0,-60.0,-190.0,139,40,92,90,52
2025-03-20 16:13:45.557,-424.0,233.0,476.0,222.0,-109.0,-274.0,141,41,90,89,51
2025-03-20 16:13:45.578,-436.0,260.0,249.0,285.0,-181.0,-244.0,142,40,89,90,47
2025-03-20 16:13:45.602,-275.0,789.0,614.0,187.0,-266.0,-225.0,132,41,90,91,53
2025-03-20 16:13:45.627,148.0,42.0,911.0,89.0,-291.0,-234.0,143,42,92,91,53
2025-03-20 16:13:45.652,542.0,-369.0,1221.0,149.0,-266.0,-196.0,142,44,91,92,51
2025-03-20 16:13:45.676,707.0,-1192.0,892.0,121.0,-220.0,-118.0,143,42,88,90,50
2025-03-20 16:13:45.700,2063.0,-2390.0,2456.0,77.0,-102.0,96.0,145,44,89,90,51
2025-03-20 16:13:45.725,2623.0,-2167.0,2769.0,-147.0,77.0,430.0,144,43,90,88,51
2025-03-20 16:13:45.749,3052.0,-1628.0,2554.0,-310.0,317.0,813.0,145,35,90,87,49
2025-03-20 16:13:45.771,3399.0,2236.0,2039.0,-368.0,400.0,925.0,142,41,91,89,47
2025-03-20 16:13:45.793,658.0,5118.0,1732.0,-358.0,443.0,554.0,133,42,89,85,45
2025-03-20 16:13:45.819,164.0,4043.0,1208.0,10.0,494.0,94.0,139,38,85,83,49
2025-03-20 16:13:45.844,-549.0,2863.0,762.0,16.0,459.0,-23.0,146,43,84,84,50
2025-03-20 16:13:45.866,69.0,1172.0,1483.0,-23.0,353.0,-128.0,132,40,84,85,48
2025-03-20 16:13:45.892,-103.0,-300.0,806.0,31.0,394.0,-147.0,131,44,85,86,51
2025-03-20 16:13:45.914,-634.0,-503.0,11.0,91.0,257.0,-111.0,122,33,88,68,52
2025-03-20 16:13:45.939,-594.0,-517.0,267.0,90.0,227.0,-120.0,129,38,94,73,51
2025-03-20 16:13:45.963,-496.0,-1016.0,212.0,144.0,133.0,-62.0,117,47,100,65,65
2025-03-20 16:13:45.988,-1069.0,-580.0,194.0,149.0,155.0,-12.0,110,45,105,49,73
2025-03-20 16:13:46.012,-734.0,-457.0,405.0,161.0,152.0,-1.0,123,54,107,0,86
2025-03-20 16:13:46.036,-747.0,100.0,-32.0,156.0,154.0,-9.0,125,49,110,44,101
2025-03-20 16:13:46.060,-661.0,587.0,-205.0,49.0,93.0,-16.0,119,61,111,55,97
2025-03-20 16:13:46.082,-474.0,1309.0,-950.0,58.0,47.0,-91.0,120,76,125,98,94
2025-03-20 16:13:46.106,-630.0,1651.0,-2406.0,-6.0,-146.0,-289.0,122,78,129,105,93
2025-03-20 16:13:46.131,-567.0,1788.0,-2854.0,-80.0,-410.0,-575.0,126,84,133,104,94
2025-03-20 16:13:46.156,154.0,1012.0,-2739.0,-70.0,-698.0,-818.0,128,67,140,102,98
2025-03-20 16:13:46.180,4284.0,905.0,-1500.0,-41.0,-828.0,-822.0,112,43,141,90,95
2025-03-20 16:13:46.204,6533.0,-5935.0,3225.0,-151.0,-948.0,-535.0,134,59,146,104,107
2025-03-20 16:13:46.229,3981.0,-5075.0,2730.0,244.0,95.0,218.0,140,34,148,103,112
2025-03-20 16:13:46.254,1391.0,-2319.0,1383.0,356.0,547.0,338.0,139,62,147,106,119
2025-03-20 16:13:46.277,-240.0,-313.0,206.0,21.0,385.0,275.0,134,74,145,104,104
2025-03-20 16:13:46.302,-356.0,-698.0,-26.0,-243.0,105.0,174.0,133,76,145,108,114
2025-03-20 16:13:46.324,-209.0,-1179.0,804.0,-265.0,42.0,176.0,133,92,145,107,111
2025-03-20 16:13:46.348,-185.0,-1158.0,912.0,-105.0,138.0,216.0,136,93,145,109,113
2025-03-20 16:13:46.372,-94.0,-979.0,302.0,-59.0,194.0,290.0,136,97,146,108,108
2025-03-20 16:13:46.397,-113.0,-20.0,703.0,16.0,204.0,291.0,136,100,144,107,112
2025-03-20 16:13:46.422,17.0,-397.0,314.0,180.0,205.0,313.0,135,98,144,108,112
2025-03-20 16:13:46.446,-134.0,285.0,501.0,142.0,243.0,245.0,131,93,143,111,111
2025-03-20 16:13:46.470,-542.0,44.0,-141.0,59.0,194.0,203.0,126,96,142,108,108
2025-03-20 16:13:46.491,-608.0,417.0,-303.0,91.0,145.0,159.0,125,96,142,113,108
2025-03-20 16:13:46.514,-436.0,1463.0,-1183.0,108.0,45.0,126.0,122,96,142,108,107
2025-03-20 16:13:46.540,-856.0,2048.0,-2827.0,104.0,-158.0,-95.0,122,97,141,109,105
2025-03-20 16:13:46.559,-817.0,2230.0,-2360.0,99.0,-477.0,-476.0,117,95,142,109,105
2025-03-20 16:13:46.589,-17.0,1879.0,-1751.0,-102.0,-695.0,-852.0,121,103,144,110,107
2025-03-20 16:13:46.614,4801.0,1297.0,-890.0,-412.0,-1164.0,-982.0,119,90,148,110,105
2025-03-20 16:13:46.639,7023.0,-5216.0,3360.0,-641.0,-606.0,-569.0,129,61,148,102,114
2025-03-20 16:13:46.662,4533.0,-5734.0,1656.0,455.0,247.0,263.0,125,12,146,108,117
2025-03-20 16:13:46.687,1524.0,-1323.0,807.0,606.0,589.0,221.0,123,49,139,99,110
2025-03-20 16:13:46.709,-667.0,-151.0,-178.0,386.0,217.0,197.0,126,76,130,89,104
2025-03-20 16:13:46.733,-760.0,-489.0,620.0,-58.0,134.0,112.0,128,58,123,56,99
2025-03-20 16:13:46.758,-703.0,-573.0,680.0,58.0,126.0,116.0,129,50,115,0,85
2025-03-20 16:13:46.781,-377.0,-409.0,224.0,165.0,134.0,86.0,129,32,110,1,74
2025-03-20 16:13:46.806,-503.0,-248.0,657.0,156.0,95.0,81.0,119,18,100,0,54
2025-03-20 16:13:46.829,-467.0,-194.0,491.0,194.0,90.0,76.0,112,25,94,0,48
2025-03-20 16:13:46.852,-460.0,-6.0,561.0,209.0,65.0,17.0,106,29,96,58,30
2025-03-20 16:13:46.870,-313.0,-317.0,300.0,255.0,23.0,4.0,113,23,94,66,43
2025-03-20 16:13:46.901,-522.0,-1.0,300.0,374.0,2.0,-34.0,119,37,89,70,42
2025-03-20 16:13:46.926,-612.0,379.0,304.0,405.0,-66.0,-88.0,117,34,84,72,42
2025-03-20 16:13:46.950,-596.0,212.0,336.0,331.0,-160.0,-128.0,123,35,83,64,42
2025-03-20 16:13:46.975,39.0,-214.0,622.0,243.0,-269.0,-105.0,125,37,83,65,41
2025-03-20 16:13:46.998,1333.0,-1584.0,2101.0,173.0,-220.0,10.0,128,37,85,76,43
2025-03-20 16:13:47.021,2208.0,-2488.0,3172.0,62.0,77.0,226.0,138,36,87,80,42
2025-03-20 16:13:47.045,2436.0,-2355.0,2377.0,-93.0,265.0,635.0,139,37,91,82,41
2025-03-20 16:13:47.069,2667.0,-129.0,1763.0,-188.0,284.0,872.0,141,39,90,82,39
2025-03-20 16:13:47.093,1970.0,1921.0,1790.0,-113.0,232.0,723.0,139,40,90,81,39
2025-03-20 16:13:47.106,333.0,3284.0,473.0,-17.0,273.0,252.0,142,42,89,78,42
2025-03-20 16:13:47.142,-374.0,3325.0,143.0,12.0,235.0,125.0,142,42,87,76,45
2025-03-20 16:13:47.167,-343.0,3077.0,287.0,8.0,127.0,-70.0,143,38,83,77,45
2025-03-20 16:13:47.188,-244.0,1806.0,244.0,-5.0,58.0,-157.0,142,37,82,76,46
2025-03-20 16:13:47.213,-241.0,806.0,365.0,20.0,-20.0,-199.0,142,42,87,78,44
2025-03-20 16:13:47.236,-201.0,399.0,646.0,35.0,-87.0,-221.0,141,41,88,81,46
2025-03-20 16:13:47.262,-98.0,113.0,824.0,93.0,-80.0,-248.0,142,41,90,81,46
2025-03-20 16:13:47.285,-140.0,-34.0,849.0,125.0,-37.0,-235.0,135,42,90,81,46
2025-03-20 16:13:47.310,-412.0,365.0,741.0,151.0,-73.0,-253.0,135,43,92,82,47
2025-03-20 16:13:47.334,-360.0,568.0,640.0,186.0,-127.0,-311.0,142,42,90,79,47
2025-03-20 16:13:47.359,-305.0,268.0,550.0,179.0,-182.0,-330.0,139,42,91,83,48
2025-03-20 16:13:47.380,3.0,-26.0,734.0,189.0,-259.0,-297.0,140,44,90,84,48
2025-03-20 16:13:47.404,546.0,-939.0,1286.0,139.0,-269.0,-186.0,138,44,90,84,48
2025-03-20 16:13:47.429,1852.0,-2716.0,2382.0,21.0,-170.0,13.0,139,37,90,84,48
2025-03-20 16:13:47.454,2484.0,-2162.0,3009.0,-149.0,29.0,330.0,139,42,90,84,47
2025-03-20 16:13:47.478,2688.0,-2273.0,2603.0,-395.0,252.0,705.0,139,43,93,83,42
2025-03-20 16:13:47.502,2288.0,688.0,1684.0,-381.0,257.0,852.0,136,41,94,82,44
2025-03-20 16:13:47.527,682.0,3300.0,1517.0,-301.0,209.0,630.0,137,44,92,78,47
2025-03-20 16:13:47.549,121.0,4182.0,1785.0,51.0,320.0,107.0,135,40,85,74,48
2025-03-20 16:13:47.572,-545.0,2819.0,954.0,150.0,328.0,2.0,130,46,88,75,43
2025-03-20 16:13:47.597,-606.0,1766.0,807.0,118.0,260.0,-134.0,141,49,95,73,50
2025-03-20 16:13:47.622,-518.0,387.0,1088.0,18.0,174.0,-164.0,131,51,101,75,49
2025-03-20 16:13:47.646,-402.0,-808.0,1110.0,23.0,222.0,-115.0,132,50,109,65,50
2025-03-20 16:13:47.670,-429.0,-425.0,1073.0,125.0,218.0,-124.0,135,43,122,74,49
2025-03-20 16:13:47.695,-559.0,-615.0,429.0,54.0,212.0,-102.0,132,47,127,75,51
2025-03-20 16:13:47.716,-545.0,-673.0,354.0,123.0,219.0,-25.0,131,52,132,75,52
2025-03-20 16:13:47.741,-590.0,34.0,185.0,169.0,213.0,8.0,131,68,135,64,49
2025-03-20 16:13:47.764,-848.0,445.0,-411.0,105.0,170.0,-30.0,136,66,136,59,52
2025-03-20 16:13:47.790,-693.0,766.0,-514.0,58.0,114.0,-76.0,138,61,139,68,55
2025-03-20 16:13:47.814,-576.0,999.0,-1012.0,88.0,56.0,-160.0,136,79,140,76,56
2025-03-20 16:13:47.839,-517.0,1824.0,-2308.0,45.0,-146.0,-343.0,116,89,138,74,50
2025-03-20 16:13:47.862,-292.0,1943.0,-3355.0,-63.0,-590.0,-679.0,88,70,143,62,43
2025-03-20 16:13:47.887,1645.0,-541.0,-3718.0,-75.0,-1114.0,-727.0,70,30,142,47,42
2025-03-20 16:13:47.908,5520.0,-1857.0,-1521.0,-18.0,-1235.0,-458.0,86,72,145,58,40
2025-03-20 16:13:47.934,5906.0,-3784.0,3342.0,255.0,-635.0,-117.0,100,89,147,71,44
2025-03-20 16:13:47.958,3159.0,-2320.0,4997.0,210.0,161.0,34.0,104,81,147,78,43
2025-03-20 16:13:47.982,1396.0,-1295.0,2649.0,-122.0,442.0,152.0,94,91,147,76,44
2025-03-20 16:13:48.006,789.0,-1312.0,1140.0,-174.0,416.0,248.0,91,95,147,85,45
2025-03-20 16:13:48.031,204.0,-978.0,471.0,-151.0,321.0,289.0,88,86,147,84,47
2025-03-20 16:13:48.052,-125.0,-529.0,275.0,-95.0,261.0,276.0,92,67,146,79,45
2025-03-20 16:13:48.077,-222.0,-353.0,290.0,-69.0,232.0,243.0,101,89,145,88,47
2025-03-20 16:13:48.101,-290.0,-465.0,355.0,-16.0,199.0,206.0,102,104,146,91,47
2025-03-20 16:13:48.126,-228.0,-431.0,304.0,68.0,199.0,186.0,106,107,146,88,48
2025-03-20 16:13:48.150,-192.0,-324.0,375.0,114.0,220.0,175.0,108,107,148,90,51
2025-03-20 16:13:48.175,-204.0,162.0,461.0,61.0,248.0,159.0,98,114,146,91,52
2025-03-20 16:13:48.199,-547.0,-28.0,139.0,73.0,221.0,135.0,91,109,147,93,51
2025-03-20 16:13:48.223,-506.0,625.0,-147.0,104.0,201.0,127.0,103,102,147,96,50
2025-03-20 16:13:48.245,-688.0,1737.0,-1527.0,114.0,123.0,70.0,105,106,143,95,50
2025-03-20 16:13:48.269,-1354.0,2720.0,-3100.0,103.0,-228.0,-231.0,93,104,143,93,50
2025-03-20 16:13:48.293,-297.0,-297.0,-297.0,-38.0,-38.0,-38.0,90,94,146,98,49
2025-03-20 16:13:48.317,2429.0,1043.0,-2021.0,-106.0,-1277.0,-690.0,84,83,147,75,47
2025-03-20 16:13:48.342,6661.0,-4196.0,1958.0,102.0,-1104.0,-367.0,97,66,146,94,49
2025-03-20 16:13:48.355,4523.0,-2882.0,4251.0,322.0,-123.0,-15.0,99,57,146,92,39
2025-03-20 16:13:48.386,1122.0,-1262.0,2926.0,206.0,359.0,-3.0,96,90,147,101,44
2025-03-20 16:13:48.413,-163.0,-330.0,1135.0,13.0,261.0,6.0,94,78,146,88,54
2025-03-20 16:13:48.437,-48.0,-748.0,959.0,-39.0,192.0,15.0,100,84,145,97,53
2025-03-20 16:13:48.461,-112.0,-593.0,1132.0,27.0,202.0,17.0,109,95,141,98,57
2025-03-20 16:13:48.486,-169.0,-432.0,828.0,131.0,213.0,-21.0,117,83,141,83,61
2025-03-20 16:13:48.505,-230.0,-441.0,771.0,225.0,210.0,-27.0,120,68,133,82,54
2025-03-20 16:13:48.531,-219.0,-314.0,693.0,252.0,187.0,-26.0,116,60,117,87,47
2025-03-20 16:13:48.556,-224.0,-61.0,670.0,225.0,168.0,-6.0,113,47,110,85,49
2025-03-20 16:13:48.580,-414.0,-30.0,811.0,211.0,176.0,0.0,120,39,105,82,44
2025-03-20 16:13:48.605,-677.0,156.0,335.0,215.0,167.0,-8.0,123,36,94,80,42
2025-03-20 16:13:48.629,-899.0,98.0,-8.0,188.0,59.0,-50.0,127,35,89,78,44
2025-03-20 16:13:48.653,-383.0,-349.0,95.0,175.0,-151.0,-47.0,126,39,82,67,47
2025-03-20 16:13:48.678,801.0,-2000.0,1088.0,132.0,-259.0,60.0,127,36,79,74,46
2025-03-20 16:13:48.699,2163.0,-2903.0,3437.0,-109.0,-20.0,331.0,128,39,80,79,46
2025-03-20 16:13:48.724,2683.0,-2925.0,2513.0,-149.0,213.0,744.0,131,38,85,80,44
2025-03-20 16:13:48.749,2457.0,54.0,2023.0,-183.0,140.0,867.0,133,40,83,83,42
2025-03-20 16:13:48.763,1098.0,3230.0,1202.0,-206.0,215.0,499.0,137,39,82,74,44
2025-03-20 16:13:48.797,133.0,3664.0,134.0,4.0,222.0,243.0,140,40,79,79,44
2025-03-20 16:13:48.822,212.0,4398.0,163.0,21.0,158.0,-3.0,142,32,76,81,45
2025-03-20 16:13:48.846,-241.0,3179.0,404.0,-6.0,41.0,-188.0,143,41,74,78,44
2025-03-20 16:13:48.868,-46.0,1121.0,605.0,-23.0,-31.0,-232.0,142,42,77,76,47
2025-03-20 16:13:48.890,115.0,110.0,1094.0,-11.0,-53.0,-219.0,142,41,81,78,47
2025-03-20 16:13:48.906,391.0,-533.0,1806.0,-82.0,16.0,-189.0,136,42,84,77,48
2025-03-20 16:13:48.940,-68.0,-481.0,974.0,67.0,-21.0,-151.0,140,42,86,84,46
2025-03-20 16:13:48.964,-481.0,-252.0,742.0,97.0,-15.0,-140.0,134,43,86,82,47
2025-03-20 16:13:48.989,-619.0,-32.0,587.0,142.0,-61.0,-166.0,137,42,86,85,46
2025-03-20 16:13:49.003,-397.0,169.0,693.0,180.0,-93.0,-139.0,139,43,87,87,46
2025-03-20 16:13:49.035,-484.0,722.0,894.0,170.0,-84.0,-193.0,143,42,86,86,43
2025-03-20 16:13:49.060,-619.0,751.0,515.0,185.0,-120.0,-273.0,143,43,87,87,47
2025-03-20 16:13:49.084,-406.0,440.0,269.0,160.0,-190.0,-276.0,143,45,84,87,47
2025-03-20 16:13:49.109,37.0,-532.0,310.0,60.0,-304.0,-200.0,141,42,87,90,46
2025-03-20 16:13:49.134,1730.0,-3123.0,994.0,141.0,-426.0,-33.0,144,41,86,87,46
2025-03-20 16:13:49.158,2953.0,-3166.0,3678.0,141.0,-185.0,357.0,139,42,90,83,44
2025-03-20 16:13:49.182,2967.0,-1295.0,3203.0,-106.0,235.0,670.0,139,34,91,84,44
2025-03-20 16:13:49.206,1934.0,1329.0,2176.0,-381.0,274.0,689.0,143,37,90,77,43
2025-03-20 16:13:49.228,1422.0,2211.0,1987.0,-370.0,355.0,562.0,141,45,88,81,46
2025-03-20 16:13:49.252,276.0,2127.0,1220.0,-69.0,387.0,244.0,142,43,85,78,47
2025-03-20 16:13:49.276,-28.0,1335.0,957.0,174.0,330.0,139.0,144,45,84,78,49
2025-03-20 16:13:49.301,-54.0,1684.0,1122.0,78.0,359.0,53.0,144,45,86,75,48
2025-03-20 16:13:49.326,-494.0,1053.0,530.0,53.0,322.0,-14.0,142,44,84,75,51
2025-03-20 16:13:49.350,-571.0,589.0,799.0,102.0,258.0,-56.0,140,43,83,70,49
2025-03-20 16:13:49.372,-509.0,606.0,526.0,66.0,285.0,-68.0,137,48,86,66,49
2025-03-20 16:13:49.396,-434.0,189.0,230.0,97.0,300.0,-105.0,132,49,89,74,45
2025-03-20 16:13:49.420,-684.0,362.0,185.0,82.0,283.0,-105.0,130,49,88,73,44
2025-03-20 16:13:49.445,-501.0,546.0,144.0,54.0,237.0,-91.0,116,45,86,74,56
2025-03-20 16:13:49.469,-640.0,962.0,-395.0,33.0,182.0,-161.0,125,48,84,74,55
2025-03-20 16:13:49.494,-368.0,1048.0,-1007.0,39.0,80.0,-211.0,122,51,82,65,52
2025-03-20 16:13:49.512,-309.0,1095.0,-1376.0,72.0,-38.0,-240.0,124,49,80,55,51
2025-03-20 16:13:49.543,-368.0,2358.0,-2236.0,30.0,-199.0,-431.0,95,45,78,57,48
2025-03-20 16:13:49.564,208.0,3373.0,-3552.0,-126.0,-536.0,-865.0,86,23,79,38,40
2025-03-20 16:13:49.588,4661.0,2269.0,-2309.0,-133.0,-1158.0,-1120.0,103,24,73,54,43
2025-03-20 16:13:49.613,9937.0,-5887.0,2810.0,179.0,-1263.0,-393.0,83,27,80,65,43
2025-03-20 16:13:49.636,5383.0,-4438.0,4605.0,580.0,327.0,57.0,72,34,89,64,44
2025-03-20 16:13:49.662,553.0,-1511.0,1440.0,230.0,440.0,116.0,97,39,84,61,45
2025-03-20 16:13:49.686,-59.0,-504.0,1252.0,-295.0,193.0,156.0,84,42,82,67,43
2025-03-20 16:13:49.709,93.0,-1464.0,1523.0,-258.0,196.0,192.0,103,43,81,74,46
2025-03-20 16:13:49.731,400.0,-1271.0,1289.0,-163.0,310.0,231.0,103,46,86,73,48
2025-03-20 16:13:49.756,145.0,-865.0,350.0,-107.0,332.0,248.0,95,42,82,68,45
2025-03-20 16:13:49.781,16.0,-429.0,298.0,-87.0,299.0,273.0,94,41,81,72,44
2025-03-20 16:13:49.805,-111.0,-380.0,218.0,-93.0,268.0,278.0,109,40,81,66,48
2025-03-20 16:13:49.830,-331.0,-215.0,32.0,-22.0,253.0,266.0,101,46,82,71,47
2025-03-20 16:13:49.854,-576.0,-37.0,-166.0,-4.0,239.0,229.0,110,44,81,71,45
2025-03-20 16:13:49.875,-402.0,169.0,-139.0,30.0,202.0,181.0,111,47,83,70,46
2025-03-20 16:13:49.899,-627.0,412.0,-99.0,25.0,175.0,140.0,111,47,84,70,45
2025-03-20 16:13:49.924,-798.0,278.0,-125.0,33.0,129.0,111.0,114,44,83,70,45
2025-03-20 16:13:49.948,-707.0,857.0,-450.0,48.0,87.0,101.0,115,46,84,69,50
2025-03-20 16:13:49.973,-544.0,2019.0,-1488.0,95.0,-10.0,-17.0,115,44,80,70,49
2025-03-20 16:13:49.998,-679.0,3210.0,-2133.0,125.0,-150.0,-367.0,113,46,79,62,49
2025-03-20 16:13:50.022,-404.0,3137.0,-3017.0,73.0,-506.0,-782.0,112,39,78,59,46
2025-03-20 16:13:50.046,2632.0,1180.0,-2021.0,198.0,-1088.0,-894.0,109,45,79,60,42
2025-03-20 16:13:50.066,7417.0,-3949.0,1148.0,483.0,-997.0,-365.0,89,44,86,63,48
2025-03-20 16:13:50.092,4996.0,-2150.0,5279.0,801.0,-95.0,99.0,108,46,94,68,43
2025-03-20 16:13:50.114,1025.0,-326.0,3629.0,379.0,366.0,3.0,99,39,96,62,44
2025-03-20 16:13:50.141,-72.0,-1186.0,634.0,185.0,231.0,183.0,125,36,90,68,43
2025-03-20 16:13:50.166,-271.0,-407.0,1462.0,154.0,41.0,212.0,129,47,88,68,39
2025-03-20 16:13:50.190,72.0,-358.0,1612.0,168.0,67.0,210.0,132,47,84,52,47
2025-03-20 16:13:50.214,68.0,-479.0,947.0,255.0,119.0,287.0,134,49,82,32,50
2025-03-20 16:13:50.236,-288.0,728.0,891.0,154.0,113.0,261.0,134,50,81,0,57
2025-03-20 16:13:50.259,-137.0,361.0,938.0,49.0,94.0,194.0,135,51,83,20,70
2025-03-20 16:13:50.279,140.0,171.0,1316.0,126.0,120.0,173.0,135,48,85,45,78
2025-03-20 16:13:50.308,25.0,555.0,766.0,247.0,153.0,136.0,138,50,88,57,84
2025-03-20 16:13:50.332,-374.0,1189.0,186.0,155.0,107.0,109.0,135,51,88,37,90
2025-03-20 16:13:50.358,-648.0,1922.0,-35.0,46.0,7.0,-8.0,134,50,86,35,95
2025-03-20 16:13:50.382,-802.0,2951.0,-452.0,78.0,-6.0,-183.0,111,47,86,47,109
2025-03-20 16:13:50.403,-1490.0,3963.0,-1449.0,20.0,-81.0,-432.0,93,43,85,43,117
2025-03-20 16:13:50.428,-828.0,2714.0,-1536.0,121.0,-300.0,-583.0,125,42,88,52,118
2025-03-20 16:13:50.452,1300.0,1223.0,-436.0,153.0,-577.0,-488.0,129,45,92,61,120
2025-03-20 16:13:50.477,3645.0,-1287.0,2272.0,35.0,-557.0,-236.0,128,29,95,54,119
2025-03-20 16:13:50.501,3493.0,-2386.0,3594.0,-105.0,-153.0,-5.0,112,29,97,73,121
2025-03-20 16:13:50.526,2502.0,-1834.0,2598.0,-95.0,205.0,93.0,127,34,96,75,119
2025-03-20 16:13:50.550,686.0,-457.0,920.0,29.0,270.0,132.0,120,34,96,63,109
2025-03-20 16:13:50.570,-308.0,288.0,733.0,-101.0,165.0,176.0,118,33,96,73,104
2025-03-20 16:13:50.595,-77.0,234.0,1143.0,-135.0,125.0,176.0,115,40,96,73,106
2025-03-20 16:13:50.620,77.0,299.0,1196.0,-33.0,214.0,177.0,122,34,99,69,106
2025-03-20 16:13:50.644,-266.0,552.0,600.0,0.0,275.0,187.0,123,38,98,76,105
2025-03-20 16:13:50.670,-302.0,823.0,325.0,-37.0,222.0,153.0,123,41,94,75,107
2025-03-20 16:13:50.694,-261.0,681.0,542.0,-15.0,193.0,125.0,120,45,96,81,120
2025-03-20 16:13:50.718,-308.0,662.0,483.0,-7.0,175.0,132.0,119,40,97,79,121
2025-03-20 16:13:50.739,-310.0,438.0,293.0,-26.0,138.0,142.0,115,42,96,76,118
2025-03-20 16:13:50.764,-256.0,522.0,325.0,18.0,106.0,127.0,116,46,96,82,120
2025-03-20 16:13:50.788,-247.0,914.0,455.0,78.0,92.0,122.0,114,45,97,77,119
2025-03-20 16:13:50.811,-359.0,1948.0,-305.0,52.0,105.0,101.0,106,41,95,78,120
2025-03-20 16:13:50.838,-1968.0,3679.0,-2791.0,42.0,-5.0,-170.0,93,40,89,65,121
2025-03-20 16:13:50.861,-2111.0,4444.0,-3391.0,85.0,-505.0,-468.0,108,42,87,66,121
2025-03-20 16:13:50.883,1095.0,3875.0,-1786.0,-165.0,-964.0,-622.0,92,47,88,72,124
2025-03-20 16:13:50.910,5692.0,-3428.0,1935.0,-228.0,-901.0,-322.0,118,37,97,45,118
2025-03-20 16:13:50.930,4460.0,-2170.0,6810.0,110.0,33.0,-87.0,130,33,104,68,123
2025-03-20 16:13:50.954,2234.0,-2027.0,2840.0,-160.0,306.0,40.0,91,38,102,58,126
2025-03-20 16:13:50.981,1205.0,-993.0,2421.0,-221.0,300.0,104.0,109,36,100,61,96
2025-03-20 16:13:51.004,-226.0,-463.0,1165.0,-367.0,329.0,133.0,103,38,98,69,75
2025-03-20 16:13:51.029,-367.0,-255.0,456.0,-112.0,163.0,165.0,114,33,102,79,119
2025-03-20 16:13:51.054,-360.0,380.0,1024.0,-200.0,309.0,165.0,118,40,106,74,124
2025-03-20 16:13:51.069,-451.0,345.0,567.0,-264.0,269.0,163.0,129,51,106,60,117
2025-03-20 16:13:51.099,-50.0,-299.0,518.0,-154.0,341.0,121.0,135,49,101,37,109
2025-03-20 16:13:51.124,-643.0,2.0,686.0,47.0,268.0,157.0,129,48,101,52,104
2025-03-20 16:13:51.148,-588.0,362.0,62.0,114.0,280.0,119.0,134,50,109,0,102
2025-03-20 16:13:51.173,-834.0,145.0,-141.0,42.0,176.0,38.0,134,52,120,67,105
2025-03-20 16:13:51.198,-810.0,340.0,291.0,-20.0,174.0,-24.0,133,57,122,98,104
2025-03-20 16:13:51.221,-976.0,-26.0,-456.0,-15.0,102.0,-40.0,134,55,123,99,92
2025-03-20 16:13:51.243,-691.0,261.0,-5.0,-22.0,36.0,-21.0,127,69,123,100,90
2025-03-20 16:13:51.267,-197.0,816.0,-538.0,6.0,43.0,-57.0,126,76,126,102,94
2025-03-20 16:13:51.290,-502.0,1512.0,-2915.0,-112.0,-245.0,-125.0,127,81,132,105,95
2025-03-20 16:13:51.317,-761.0,2165.0,-3042.0,-134.0,-523.0,-412.0,140,85,136,108,107
2025-03-20 16:13:51.341,203.0,1421.0,-2278.0,-160.0,-800.0,-689.0,131,87,140,104,113
2025-03-20 16:13:51.365,3734.0,462.0,-178.0,-602.0,-1183.0,-792.0,136,88,145,105,108
2025-03-20 16:13:51.390,6781.0,-4896.0,2867.0,-613.0,-781.0,-311.0,146,61,149,104,112
2025-03-20 16:13:51.415,3634.0,-6402.0,2146.0,-32.0,146.0,243.0,140,83,146,107,115
2025-03-20 16:13:51.439,934.0,-2646.0,-323.0,625.0,408.0,299.0,120,56,144,108,116
2025-03-20 16:13:51.463,-25.0,-263.0,921.0,339.0,403.0,222.0,133,86,147,110,105
2025-03-20 16:13:51.485,-435.0,-658.0,396.0,-194.0,181.0,281.0,135,105,142,108,115
2025-03-20 16:13:51.508,-121.0,-940.0,908.0,-58.0,150.0,229.0,136,106,147,109,114
2025-03-20 16:13:51.534,-168.0,-712.0,811.0,13.0,259.0,187.0,136,94,147,109,113
2025-03-20 16:13:51.558,-244.0,-415.0,364.0,85.0,289.0,208.0,130,105,146,109,113
2025-03-20 16:13:51.583,-256.0,-178.0,331.0,66.0,269.0,255.0,126,89,145,108,114
2025-03-20 16:13:51.606,-361.0,65.0,21.0,68.0,258.0,217.0,123,89,142,108,113
2025-03-20 16:13:51.631,-498.0,164.0,-3.0,96.0,206.0,154.0,119,88,143,110,114
2025-03-20 16:13:51.652,-589.0,122.0,0.0,101.0,168.0,110.0,119,86,142,110,112
2025-03-20 16:13:51.677,781.0,491.0,-202.0,99.0,135.0,90.0,114,98,142,109,111
2025-03-20 16:13:51.702,-579.0,1290.0,-996.0,67.0,61.0,55.0,116,99,143,111,109
2025-03-20 16:13:51.726,-640.0,1958.0,-2268.0,61.0,-153.0,-110.0,114,95,143,110,108
2025-03-20 16:13:51.750,-920.0,2585.0,-3002.0,-33.0,-468.0,-498.0,114,99,146,110,112
2025-03-20 16:13:51.775,275.0,1214.0,-1155.0,-159.0,-767.0,-866.0,121,106,144,109,119
2025-03-20 16:13:51.798,4048.0,902.0,-352.0,-570.0,-939.0,-1096.0,122,72,145,107,106
2025-03-20 16:13:51.824,6328.0,-4348.0,2028.0,-589.0,-362.0,-550.0,127,87,146,100,116
2025-03-20 16:13:51.845,4286.0,-6012.0,1371.0,125.0,9.0,243.0,125,90,148,109,118
2025-03-20 16:13:51.869,1398.0,-2383.0,918.0,526.0,388.0,342.0,120,55,147,111,118
2025-03-20 16:13:51.894,-4.0,-59.0,213.0,275.0,317.0,248.0,122,92,144,110,116
2025-03-20 16:13:51.918,-365.0,-798.0,397.0,45.0,140.0,184.0,125,105,142,109,117
2025-03-20 16:13:51.943,-369.0,-1224.0,145.0,116.0,88.0,176.0,126,96,137,108,114
2025-03-20 16:13:51.964,181.0,-1109.0,453.0,202.0,144.0,221.0,122,58,126,88,96
2025-03-20 16:13:51.988,60.0,-510.0,575.0,174.0,158.0,263.0,111,42,109,75,103
2025-03-20 16:13:52.013,-12.0,-635.0,5.0,271.0,200.0,300.0,110,43,94,37,101
2025-03-20 16:13:52.038,82.0,-577.0,38.0,191.0,118.0,367.0,106,5,92,0,99
2025-03-20 16:13:52.061,5.0,-127.0,-417.0,228.0,95.0,347.0,89,1,95,53,101
2025-03-20 16:13:52.087,-33.0,334.0,-377.0,270.0,-11.0,293.0,105,28,94,61,103
2025-03-20 16:13:52.100,-373.0,652.0,278.0,229.0,-69.0,278.0,103,34,93,67,107
2025-03-20 16:13:52.135,-318.0,1448.0,375.0,313.0,-13.0,164.0,82,35,96,77,113
2025-03-20 16:13:52.157,-1384.0,3626.0,-890.0,357.0,-3.0,-44.0,97,35,93,68,117
2025-03-20 16:13:52.182,-2593.0,4363.0,-2572.0,267.0,-262.0,-371.0,86,31,93,73,112
2025-03-20 16:13:52.205,-665.0,2866.0,-985.0,223.0,-616.0,-490.0,82,37,95,74,106
2025-03-20 16:13:52.229,3058.0,-59.0,2038.0,193.0,-714.0,-357.0,108,27,100,86,105
2025-03-20 16:13:52.254,3681.0,-1756.0,4754.0,0.0,-244.0,-94.0,107,29,109,81,121
2025-03-20 16:13:52.278,2513.0,-2182.0,3363.0,-79.0,131.0,35.0,113,21,109,88,120
2025-03-20 16:13:52.302,991.0,-1084.0,2036.0,-1.0,239.0,101.0,109,29,108,94,111
2025-03-20 16:13:52.324,-144.0,-283.0,793.0,-78.0,175.0,136.0,96,28,105,97,106
2025-03-20 16:13:52.349,-345.0,292.0,982.0,16.0,111.0,141.0,97,37,108,96,119
2025-03-20 16:13:52.374,-557.0,677.0,891.0,-22.0,140.0,114.0,102,38,110,98,119
2025-03-20 16:13:52.398,-445.0,683.0,790.0,-31.0,114.0,104.0,94,38,110,96,113
2025-03-20 16:13:52.422,-396.0,609.0,611.0,-22.0,143.0,82.0,100,41,107,95,122
2025-03-20 16:13:52.447,-618.0,529.0,80.0,42.0,171.0,72.0,101,41,109,95,124
2025-03-20 16:13:52.471,-827.0,654.0,-267.0,9.0,63.0,70.0,102,39,107,94,126
2025-03-20 16:13:52.493,-466.0,562.0,218.0,-5.0,-11.0,62.0,103,44,109,92,125
2025-03-20 16:13:52.517,-416.0,877.0,511.0,45.0,0.0,58.0,106,42,110,95,121
2025-03-20 16:13:52.542,-921.0,1647.0,-2.0,15.0,15.0,18.0,103,44,109,94,127
2025-03-20 16:13:52.565,-1698.0,2404.0,-1151.0,-42.0,-45.0,-76.0,101,38,109,88,125
2025-03-20 16:13:52.590,-2061.0,2670.0,-1820.0,15.0,-165.0,-215.0,104,39,106,89,126
2025-03-20 16:13:52.615,-739.0,2138.0,-821.0,92.0,-391.0,-328.0,106,44,104,92,126
2025-03-20 16:13:52.639,2225.0,-327.0,1625.0,25.0,-492.0,-263.0,110,35,106,93,122
2025-03-20 16:13:52.664,3227.0,-2217.0,3704.0,-46.0,-207.0,-67.0,112,20,111,98,125
2025-03-20 16:13:52.684,2367.0,-1972.0,3468.0,-61.0,94.0,48.0,112,29,112,99,126
2025-03-20 16:13:52.710,1162.0,-537.0,2944.0,-54.0,233.0,109.0,114,41,113,99,127
2025-03-20 16:13:52.734,-497.0,31.0,1508.0,-212.0,207.0,137.0,118,40,115,101,129
2025-03-20 16:13:52.757,-620.0,323.0,1926.0,-249.0,209.0,130.0,127,38,116,102,125
2025-03-20 16:13:52.773,-178.0,95.0,1222.0,-184.0,296.0,166.0,126,36,120,98,112
2025-03-20 16:13:52.807,-436.0,657.0,889.0,-146.0,323.0,164.0,127,36,130,96,85
2025-03-20 16:13:52.831,-583.0,581.0,611.0,-191.0,319.0,134.0,130,42,135,92,103
2025-03-20 16:13:52.853,-700.0,354.0,392.0,-53.0,265.0,135.0,129,48,139,89,92
2025-03-20 16:13:52.877,-724.0,572.0,483.0,-60.0,236.0,96.0,130,60,142,91,80
2025-03-20 16:13:52.901,-856.0,506.0,397.0,-135.0,209.0,36.0,129,73,144,91,48
2025-03-20 16:13:52.923,-893.0,395.0,-62.0,-69.0,140.0,-58.0,129,76,146,88,73
2025-03-20 16:13:52.950,-688.0,725.0,-189.0,-56.0,84.0,-127.0,126,86,145,89,65
2025-03-20 16:13:52.975,-532.0,1069.0,-847.0,-144.0,25.0,-194.0,121,78,145,86,59
2025-03-20 16:13:53.000,-740.0,1290.0,-2010.0,-143.0,-132.0,-313.0,97,90,147,78,56
2025-03-20 16:13:53.024,-541.0,1147.0,-2861.0,-116.0,-422.0,-468.0,107,111,147,74,44
2025-03-20 16:13:53.045,416.0,321.0,-2801.0,3.0,-765.0,-520.0,102,92,148,85,46
2025-03-20 16:13:53.069,3484.0,56.0,-1428.0,134.0,-1099.0,-430.0,104,45,149,91,51
2025-03-20 16:13:53.095,5139.0,-2696.0,3392.0,75.0,-813.0,-257.0,112,47,149,92,55
2025-03-20 16:13:53.117,4309.0,-2937.0,4997.0,31.0,18.0,91.0,122,62,148,92,37
2025-03-20 16:13:53.143,1595.0,-1523.0,2899.0,2.0,347.0,93.0,109,40,147,79,47
2025-03-20 16:13:53.168,536.0,-1464.0,1346.0,-46.0,353.0,137.0,115,65,146,90,51
2025-03-20 16:13:53.188,55.0,-842.0,805.0,-58.0,329.0,194.0,118,70,146,88,53
2025-03-20 16:13:53.214,-237.0,-319.0,715.0,-63.0,285.0,190.0,121,91,148,89,50
2025-03-20 16:13:53.238,-188.0,-335.0,541.0,-39.0,231.0,148.0,120,101,146,90,53
2025-03-20 16:13:53.262,-103.0,-540.0,450.0,32.0,221.0,113.0,124,108,148,85,53
2025-03-20 16:13:53.287,-142.0,-333.0,412.0,48.0,212.0,127.0,120,112,149,87,53
2025-03-20 16:13:53.311,-222.0,-94.0,538.0,-2.0,212.0,144.0,121,113,149,89,56
2025-03-20 16:13:53.335,-392.0,-254.0,265.0,5.0,200.0,144.0,122,114,149,91,57
2025-03-20 16:13:53.357,-384.0,-211.0,323.0,96.0,196.0,111.0,123,116,148,95,57
2025-03-20 16:13:53.381,-549.0,450.0,142.0,57.0,187.0,75.0,123,117,150,93,57
2025-03-20 16:13:53.406,-964.0,1284.0,-1104.0,-19.0,94.0,-3.0,121,109,147,91,55
2025-03-20 16:13:53.428,-1795.0,2458.0,-3037.0,135.0,-185.0,-329.0,120,118,148,88,51
2025-03-20 16:13:53.454,-777.0,2086.0,-3542.0,141.0,-742.0,-594.0,118,98,148,83,53
2025-03-20 16:13:53.479,4436.0,-1046.0,-1002.0,35.0,-1235.0,-476.0,121,70,150,96,57
2025-03-20 16:13:53.503,5789.0,-3256.0,4854.0,245.0,-462.0,-62.0,125,56,147,90,64
2025-03-20 16:13:53.524,3173.0,-1401.0,5073.0,138.0,299.0,30.0,130,69,148,95,65
2025-03-20 16:13:53.549,474.0,-790.0,1781.0,62.0,348.0,43.0,124,60,148,85,61
2025-03-20 16:13:53.574,264.0,-1257.0,1130.0,-19.0,285.0,100.0,131,93,149,90,62
2025-03-20 16:13:53.594,168.0,-987.0,1131.0,51.0,326.0,150.0,121,79,145,93,66
2025-03-20 16:13:53.622,-74.0,-491.0,832.0,136.0,366.0,155.0,130,63,145,94,66
2025-03-20 16:13:53.644,-187.0,-335.0,237.0,135.0,297.0,170.0,133,42,140,88,64
2025-03-20 16:13:53.671,-204.0,-265.0,269.0,117.0,227.0,201.0,133,52,131,86,77
2025-03-20 16:13:53.693,-303.0,-116.0,185.0,35.0,156.0,237.0,131,46,121,93,88
2025-03-20 16:13:53.717,-268.0,-252.0,376.0,136.0,109.0,245.0,123,35,121,94,96
2025-03-20 16:13:53.741,-319.0,120.0,32.0,115.0,50.0,247.0,125,39,112,96,102
2025-03-20 16:13:53.766,-34.0,39.0,444.0,132.0,55.0,260.0,125,39,110,97,89
2025-03-20 16:13:53.790,-226.0,712.0,361.0,217.0,84.0,237.0,120,44,110,96,89
2025-03-20 16:13:53.814,-889.0,2026.0,-430.0,145.0,25.0,151.0,112,41,108,90,92
2025-03-20 16:13:53.840,-1374.0,3413.0,-1773.0,114.0,-96.0,-133.0,96,40,103,93,113
2025-03-20 16:13:53.863,-1998.0,3499.0,-2909.0,235.0,-284.0,-302.0,92,36,95,94,116
2025-03-20 16:13:53.886,-527.0,3681.0,-1940.0,199.0,-743.0,-426.0,105,42,97,95,120
2025-03-20 16:13:53.910,3487.0,-35.0,1321.0,91.0,-841.0,-313.0,114,30,108,92,122
2025-03-20 16:13:53.933,4251.0,-1406.0,4969.0,100.0,-300.0,-114.0,120,20,123,97,121
2025-03-20 16:13:53.959,2721.0,-1541.0,3743.0,-72.0,90.0,5.0,108,25,119,99,122
2025-03-20 16:13:53.983,1436.0,-1357.0,1973.0,23.0,241.0,68.0,98,13,118,89,124
2025-03-20 16:13:54.007,2.0,35.0,1168.0,-30.0,227.0,105.0,107,36,118,94,38
2025-03-20 16:13:54.029,-508.0,574.0,1405.0,-59.0,159.0,119.0,107,40,120,88,75
2025-03-20 16:13:54.053,-712.0,715.0,406.0,-36.0,120.0,94.0,108,28,121,98,111
2025-03-20 16:13:54.078,-546.0,785.0,571.0,-55.0,99.0,76.0,113,29,121,98,84
2025-03-20 16:13:54.102,-358.0,667.0,728.0,-49.0,111.0,75.0,112,39,124,88,93
2025-03-20 16:13:54.127,-353.0,681.0,547.0,-46.0,115.0,62.0,110,26,119,96,96
2025-03-20 16:13:54.151,-439.0,279.0,324.0,-12.0,112.0,61.0,112,35,118,94,117
2025-03-20 16:13:54.175,-433.0,471.0,272.0,25.0,91.0,68.0,116,38,119,94,115
2025-03-20 16:13:54.197,-299.0,661.0,475.0,26.0,90.0,81.0,115,44,121,96,120
2025-03-20 16:13:54.218,-405.0,1245.0,465.0,14.0,86.0,72.0,115,45,122,94,125
2025-03-20 16:13:54.246,-985.0,2299.0,-543.0,-44.0,113.0,-23.0,113,42,121,93,117
2025-03-20 16:13:54.270,-2180.0,2746.0,-2543.0,11.0,-4.0,-162.0,104,43,115,89,120
2025-03-20 16:13:54.294,-1901.0,2902.0,-3273.0,88.0,-458.0,-275.0,107,41,111,83,123
2025-03-20 16:13:54.319,1517.0,1137.0,-298.0,19.0,-697.0,-302.0,112,29,113,92,125
2025-03-20 16:13:54.343,3536.0,-911.0,3651.0,-4.0,-401.0,-155.0,120,35,121,86,125
2025-03-20 16:13:54.368,2771.0,-1505.0,4109.0,-122.0,-55.0,-36.0,120,36,125,96,124
2025-03-20 16:13:54.389,1668.0,-1542.0,2910.0,-116.0,136.0,35.0,118,18,122,97,126
2025-03-20 16:13:54.414,462.0,-571.0,2229.0,-146.0,242.0,83.0,114,37,122,98,80
2025-03-20 16:13:54.438,-185.0,69.0,1173.0,-145.0,215.0,83.0,115,36,124,90,74
2025-03-20 16:13:54.462,-710.0,481.0,1044.0,-142.0,166.0,72.0,117,33,124,96,82
2025-03-20 16:13:54.486,-294.0,491.0,1397.0,-212.0,201.0,80.0,115,38,126,86,87
2025-03-20 16:13:54.511,-153.0,157.0,1104.0,-220.0,330.0,81.0,108,37,122,89,71
2025-03-20 16:13:54.536,-226.0,106.0,619.0,-105.0,380.0,115.0,112,40,113,90,90
2025-03-20 16:13:54.557,-392.0,652.0,441.0,-119.0,369.0,88.0,114,46,112,91,99
2025-03-20 16:13:54.581,-498.0,538.0,323.0,-179.0,338.0,55.0,114,35,106,81,65
2025-03-20 16:13:54.606,-880.0,27.0,393.0,-122.0,295.0,87.0,112,49,101,82,53
2025-03-20 16:13:54.630,-476.0,354.0,-91.0,-104.0,272.0,105.0,111,43,103,82,52
2025-03-20 16:13:54.654,-425.0,1415.0,-824.0,-42.0,215.0,-1.0,110,45,105,81,41
2025-03-20 16:13:54.679,-60.0,1954.0,-2390.0,7.0,94.0,-145.0,107,43,98,70,49
2025-03-20 16:13:54.704,-1168.0,2409.0,-4917.0,19.0,-348.0,-431.0,100,38,80,75,41
2025-03-20 16:13:54.725,1131.0,3061.0,-4715.0,-24.0,-952.0,-750.0,103,31,79,70,41
2025-03-20 16:13:54.750,4808.0,-101.0,-3859.0,-16.0,-1479.0,-710.0,101,19,80,84,34
2025-03-20 16:13:54.774,9198.0,-5546.0,5222.0,484.0,-882.0,-43.0,107,21,94,89,42
2025-03-20 16:13:54.798,3290.0,-814.0,6865.0,345.0,285.0,-85.0,71,23,98,91,48
2025-03-20 16:13:54.822,712.0,-492.0,1687.0,8.0,293.0,73.0,76,32,96,86,42
2025-03-20 16:13:54.847,-33.0,-1060.0,1739.0,-312.0,195.0,78.0,89,32,85,85,48
2025-03-20 16:13:54.871,55.0,-1460.0,1772.0,-68.0,269.0,135.0,94,40,89,88,53
2025-03-20 16:13:54.892,-202.0,-164.0,1391.0,-13.0,298.0,135.0,98,44,94,92,51
2025-03-20 16:13:54.917,-186.0,-289.0,1025.0,-120.0,260.0,122.0,105,31,96,89,52
2025-03-20 16:13:54.942,-98.0,-512.0,770.0,-103.0,267.0,136.0,94,32,96,81,45
2025-03-20 16:13:54.966,-161.0,-127.0,720.0,-58.0,252.0,178.0,90,37,94,91,47
2025-03-20 16:13:54.990,60.0,41.0,614.0,-26.0,296.0,156.0,86,34,92,88,49
2025-03-20 16:13:55.012,-424.0,248.0,-19.0,-49.0,273.0,147.0,96,41,93,88,47
2025-03-20 16:13:55.039,-435.0,70.0,-102.0,-69.0,209.0,146.0,98,38,90,88,49
2025-03-20 16:13:55.059,-287.0,62.0,18.0,-24.0,188.0,161.0,99,41,92,88,51
2025-03-20 16:13:55.085,-331.0,770.0,-455.0,57.0,180.0,137.0,103,43,92,87,54
2025-03-20 16:13:55.109,-613.0,1616.0,-1658.0,117.0,90.0,7.0,104,41,94,87,55
2025-03-20 16:13:55.134,-1730.0,2887.0,-4037.0,107.0,-256.0,-337.0,91,39,86,85,50
2025-03-20 16:13:55.159,-153.0,2452.0,-4698.0,32.0,-943.0,-659.0,91,32,84,83,51
2025-03-20 16:13:55.183,4692.0,-986.0,-1975.0,354.0,-1342.0,-496.0,104,40,89,89,52
2025-03-20 16:13:55.208,6280.0,-1716.0,6821.0,319.0,-340.0,18.0,106,41,101,93,56
2025-03-20 16:13:55.228,1688.0,-1247.0,3970.0,126.0,222.0,-78.0,73,44,98,96,50
2025-03-20 16:13:55.253,-329.0,107.0,1475.0,-180.0,157.0,-26.0,87,45,90,91,50
2025-03-20 16:13:55.278,-319.0,-1370.0,566.0,-206.0,68.0,-12.0,88,37,91,92,57
2025-03-20 16:13:55.301,-392.0,-930.0,526.0,33.0,71.0,22.0,91,46,94,95,58
2025-03-20 16:13:55.326,-363.0,-327.0,859.0,26.0,37.0,8.0,90,46,97,95,58
2025-03-20 16:13:55.350,-250.0,-335.0,1107.0,-20.0,23.0,3.0,87,48,97,89,60
2025-03-20 16:13:55.372,-31.0,-541.0,1000.0,1.0,27.0,4.0,94,48,97,95,60
2025-03-20 16:13:55.396,-238.0,-411.0,770.0,-2.0,20.0,11.0,96,49,95,96,60
2025-03-20 16:13:55.421,-242.0,-492.0,630.0,6.0,-7.0,6.0,96,48,95,95,60
2025-03-20 16:13:55.446,-278.0,-338.0,776.0,-4.0,-27.0,8.0,95,48,92,94,58
2025-03-20 16:13:55.469,-92.0,-417.0,1054.0,2.0,5.0,12.0,90,48,94,94,59
2025-03-20 16:13:55.494,-219.0,-415.0,962.0,16.0,26.0,11.0,95,48,96,95,59
2025-03-20 16:13:55.519,-257.0,-388.0,834.0,24.0,18.0,12.0,94,49,97,95,59
2025-03-20 16:13:55.543,-288.0,-247.0,774.0,-6.0,-14.0,2.0,97,49,97,95,60
2025-03-20 16:13:55.563,-144.0,-440.0,965.0,-27.0,-8.0,1.0,94,49,96,94,60
2025-03-20 16:13:55.589,-143.0,-551.0,988.0,38.0,27.0,12.0,93,49,97,96,60
2025-03-20 16:13:55.614,-285.0,-255.0,884.0,31.0,17.0,12.0,95,49,97,96,60
2025-03-20 16:13:55.638,-346.0,-190.0,862.0,-15.0,-9.0,0.0,94,49,96,95,61
2025-03-20 16:13:55.662,-213.0,-457.0,1053.0,-14.0,-1.0,-4.0,95,48,95,95,60
2025-03-20 16:13:55.687,-241.0,-432.0,993.0,23.0,25.0,5.0,95,48,97,95,59
2025-03-20 16:13:55.706,-323.0,-311.0,845.0,3.0,13.0,1.0,93,47,95,95,59
2025-03-20 16:13:55.733,-313.0,-337.0,864.0,-29.0,-11.0,-5.0,94,48,96,95,60
2025-03-20 16:13:55.757,-205.0,-504.0,954.0,-8.0,5.0,-3.0,95,49,96,95,61
2025-03-20 16:13:55.782,-276.0,-339.0,923.0,5.0,14.0,-1.0,93,50,98,97,61
2025-03-20 16:13:55.805,-286.0,-358.0,897.0,-9.0,-1.0,-3.0,94,50,95,95,60
2025-03-20 16:13:55.830,-211.0,-500.0,932.0,-16.0,2.0,-2.0,95,49,96,101,61
2025-03-20 16:13:55.852,-273.0,-419.0,866.0,12.0,13.0,3.0,95,49,96,96,60
2025-03-20 16:13:55.876,-313.0,-353.0,836.0,8.0,4.0,-1.0,94,50,97,95,61
2025-03-20 16:13:55.901,-292.0,-352.0,907.0,-11.0,-7.0,-3.0,93,49,97,94,60
2025-03-20 16:13:55.925,-246.0,-425.0,951.0,-11.0,-8.0,0.0,94,49,96,95,61
2025-03-20 16:13:55.950,-197.0,-494.0,979.0,8.0,12.0,5.0,95,49,96,95,62
2025-03-20 16:13:55.970,-278.0,-347.0,876.0,17.0,16.0,7.0,95,50,97,95,62
2025-03-20 16:13:55.998,-345.0,-314.0,803.0,-10.0,-1.0,1.0,96,50,97,95,61
2025-03-20 16:13:56.023,-305.0,-326.0,872.0,-22.0,-15.0,-3.0,96,51,97,96,61
2025-03-20 16:13:56.047,-186.0,-531.0,951.0,15.0,9.0,5.0,96,49,96,96,62
2025-03-20 16:13:56.069,-280.0,-334.0,872.0,14.0,13.0,7.0,93,49,95,96,60
2025-03-20 16:13:56.092,-343.0,-286.0,833.0,-11.0,-4.0,-2.0,95,48,96,96,61
2025-03-20 16:13:56.117,-301.0,-380.0,918.0,-26.0,-15.0,-4.0,95,47,97,96,61
2025-03-20 16:13:56.141,-244.0,-433.0,960.0,-1.0,2.0,0.0,95,48,96,95,61
2025-03-20 16:13:56.166,-297.0,-360.0,905.0,-4.0,5.0,-2.0,95,50,95,96,62
2025-03-20 16:13:56.190,-286.0,-411.0,875.0,-11.0,-2.0,-4.0,97,49,96,97,61
2025-03-20 16:13:56.214,-268.0,-437.0,910.0,8.0,2.0,1.0,96,49,98,96,62
2025-03-20 16:13:56.236,-288.0,-366.0,924.0,-1.0,2.0,0.0,96,44,98,96,62
2025-03-20 16:13:56.260,-268.0,-406.0,930.0,-9.0,5.0,0.0,96,49,96,97,61
2025-03-20 16:13:56.283,-281.0,-430.0,896.0,-1.0,6.0,1.0,96,51,96,96,61
2025-03-20 16:13:56.304,-314.0,-366.0,855.0,0.0,4.0,2.0,95,49,95,96,61
2025-03-20 16:13:56.334,-298.0,-416.0,896.0,-5.0,2.0,1.0,95,49,96,96,61
2025-03-20 16:13:56.359,-317.0,-367.0,912.0,-4.0,1.0,-1.0,96,50,98,97,62
2025-03-20 16:13:56.383,-282.0,-445.0,923.0,-4.0,3.0,-1.0,96,50,97,96,61
2025-03-20 16:13:56.404,-285.0,-443.0,909.0,2.0,7.0,1.0,96,49,98,96,62
2025-03-20 16:13:56.426,-323.0,-388.0,867.0,-4.0,1.0,1.0,96,50,98,98,62
2025-03-20 16:13:56.453,-281.0,-484.0,891.0,-5.0,0.0,1.0,98,49,98,97,61
2025-03-20 16:13:56.478,-315.0,-412.0,859.0,-2.0,1.0,4.0,95,49,97,95,62
2025-03-20 16:13:56.501,-328.0,-419.0,863.0,1.0,1.0,2.0,95,49,96,96,62
2025-03-20 16:13:56.523,-328.0,-394.0,882.0,-3.0,-4.0,0.0,96,49,98,97,61
2025-03-20 16:13:56.551,-291.0,-447.0,904.0,-2.0,-2.0,3.0,93,49,97,94,61
2025-03-20 16:13:56.572,-281.0,-418.0,921.0,-1.0,3.0,3.0,96,50,97,95,62
2025-03-20 16:13:56.597,-314.0,-381.0,867.0,4.0,2.0,3.0,96,51,100,97,63
2025-03-20 16:13:56.611,-323.0,-364.0,836.0,-3.0,-2.0,-1.0,97,50,99,96,61
2025-03-20 16:13:56.645,-312.0,-386.0,845.0,-3.0,-4.0,-1.0,97,50,97,97,63
2025-03-20 16:13:56.670,-297.0,-419.0,872.0,3.0,-5.0,-1.0,97,52,98,97,59
2025-03-20 16:13:56.695,-273.0,-419.0,924.0,-4.0,-4.0,0.0,96,49,97,97,62
2025-03-20 16:13:56.719,-281.0,-408.0,919.0,0.0,0.0,3.0,95,49,96,96,62
2025-03-20 16:13:56.740,-305.0,-390.0,885.0,-1.0,-1.0,1.0,96,49,97,96,62
2025-03-20 16:13:56.765,-308.0,-397.0,895.0,-6.0,-5.0,1.0,97,50,98,97,62
2025-03-20 16:13:56.789,-282.0,-417.0,925.0,2.0,0.0,4.0,96,51,97,96,63
2025-03-20 16:13:56.814,-311.0,-386.0,920.0,2.0,2.0,5.0,96,50,97,96,63
2025-03-20 16:13:56.838,-323.0,-339.0,924.0,-7.0,0.0,3.0,97,50,97,97,64
2025-03-20 16:13:56.862,-339.0,-401.0,883.0,6.0,3.0,3.0,97,50,98,97,64
2025-03-20 16:13:56.886,-330.0,-317.0,911.0,0.0,-2.0,1.0,96,49,96,96,59
2025-03-20 16:13:56.911,-320.0,-392.0,912.0,-6.0,-3.0,-1.0,96,49,101,97,62
2025-03-20 16:13:56.932,-292.0,-402.0,905.0,5.0,4.0,1.0,96,49,97,96,62
2025-03-20 16:13:56.957,-326.0,-364.0,886.0,-2.0,1.0,0.0,96,50,97,96,62
2025-03-20 16:13:56.981,-302.0,-400.0,890.0,0.0,-1.0,-1.0,96,50,97,96,62
2025-03-20 16:13:57.005,-295.0,-379.0,896.0,3.0,-1.0,-1.0,98,50,98,98,63
2025-03-20 16:13:57.030,-303.0,-396.0,890.0,-3.0,-2.0,-2.0,97,50,92,97,63
2025-03-20 16:13:57.055,-301.0,-383.0,871.0,-3.0,0.0,-2.0,97,50,98,97,63
2025-03-20 16:13:57.078,-307.0,-384.0,865.0,-3.0,-3.0,-4.0,97,50,98,97,63
2025-03-20 16:13:57.100,-291.0,-423.0,884.0,2.0,-1.0,-1.0,96,50,97,96,62
2025-03-20 16:13:57.123,-310.0,-393.0,884.0,-3.0,-1.0,-1.0,96,49,97,97,61
2025-03-20 16:13:57.149,-293.0,-438.0,898.0,-5.0,-2.0,1.0,96,49,97,97,63
2025-03-20 16:13:57.174,-303.0,-405.0,892.0,2.0,0.0,2.0,96,50,98,98,63
2025-03-20 16:13:57.198,-315.0,-379.0,898.0,0.0,-1.0,1.0,96,49,98,97,63
2025-03-20 16:13:57.222,-329.0,-360.0,872.0,-4.0,-3.0,-1.0,97,50,98,97,64
2025-03-20 16:13:57.247,-307.0,-399.0,882.0,-3.0,-3.0,-2.0,97,50,97,97,63
