timestamp,ax,ay,az,gx,gy,gz,flex1,flex2,flex3,flex4,flex5,emg1,emg2,emg3
2025-02-26 16:19:05.029,-331.0,-902.0,302.0,-1.0,-1.0,-1.0,140,112,91,120,123
2025-02-26 16:19:05.032,-338.0,-903.0,307.0,-1.0,-1.0,-1.0,140,111,91,119,123
2025-02-26 16:19:05.034,-336.0,-908.0,312.0,-1.0,-1.0,-1.0,141,113,93,120,124
2025-02-26 16:19:05.036,-333.0,-904.0,309.0,-1.0,0.0,-2.0,140,109,91,119,123
2025-02-26 16:19:05.039,-331.0,-907.0,309.0,-1.0,-1.0,-2.0,139,111,91,118,123
2025-02-26 16:19:05.040,-329.0,-910.0,311.0,-2.0,0.0,-2.0,140,113,92,118,124
2025-02-26 16:19:05.044,-324.0,-913.0,307.0,-2.0,0.0,-2.0,141,112,92,119,123
2025-02-26 16:19:05.046,-326.0,-909.0,308.0,-2.0,0.0,-2.0,139,112,91,119,124
2025-02-26 16:19:05.047,-325.0,-918.0,308.0,-2.0,0.0,-2.0,140,113,91,118,124
2025-02-26 16:19:05.047,-325.0,-919.0,305.0,-2.0,0.0,-2.0,140,111,91,118,123
2025-02-26 16:19:05.054,-326.0,-917.0,306.0,-2.0,1.0,-2.0,140,112,91,121,126
2025-02-26 16:19:05.056,-324.0,-920.0,303.0,-2.0,0.0,-2.0,140,112,91,119,124
2025-02-26 16:19:05.059,-323.0,-921.0,306.0,-2.0,1.0,-1.0,140,111,91,119,123
2025-02-26 16:19:05.059,-326.0,-922.0,303.0,-2.0,1.0,-1.0,140,112,92,118,124
2025-02-26 16:19:05.064,-321.0,-921.0,303.0,-2.0,1.0,-1.0,138,113,91,119,123
2025-02-26 16:19:05.066,-327.0,-928.0,301.0,-2.0,1.0,-1.0,142,112,91,117,124
2025-02-26 16:19:05.068,-333.0,-928.0,302.0,-2.0,1.0,-1.0,140,111,91,119,124
2025-02-26 16:19:05.071,-324.0,-927.0,301.0,-2.0,1.0,-1.0,141,112,92,120,124
2025-02-26 16:19:05.071,-328.0,-928.0,298.0,-2.0,1.0,-1.0,140,112,92,119,123
2025-02-26 16:19:05.071,-328.0,-925.0,296.0,-2.0,1.0,-1.0,141,112,92,122,124
2025-02-26 16:19:05.078,-330.0,-923.0,297.0,-2.0,1.0,0.0,140,113,92,120,124
2025-02-26 16:19:05.080,-329.0,-920.0,295.0,-2.0,1.0,0.0,144,112,90,117,123
2025-02-26 16:19:05.082,-331.0,-917.0,292.0,-3.0,0.0,0.0,140,112,92,119,124
2025-02-26 16:19:05.083,-326.0,-917.0,293.0,-3.0,0.0,0.0,141,110,91,118,122
2025-02-26 16:19:05.083,-331.0,-917.0,293.0,-3.0,0.0,0.0,140,112,91,119,124
2025-02-26 16:19:05.089,-329.0,-914.0,293.0,-3.0,0.0,0.0,140,112,91,119,123
2025-02-26 16:19:05.092,-330.0,-913.0,289.0,-3.0,0.0,0.0,141,113,92,119,124
2025-02-26 16:19:05.095,-329.0,-913.0,289.0,-3.0,0.0,0.0,141,112,91,118,124
2025-02-26 16:19:05.095,-327.0,-913.0,289.0,-2.0,0.0,0.0,140,112,88,119,124
2025-02-26 16:19:05.103,-329.0,-916.0,290.0,-2.0,0.0,0.0,140,111,89,118,122
2025-02-26 16:19:05.107,-330.0,-911.0,291.0,-2.0,1.0,-1.0,141,112,91,118,123
2025-02-26 16:19:05.113,-332.0,-908.0,285.0,-2.0,0.0,-1.0,142,112,92,119,124
2025-02-26 16:19:05.119,-329.0,-908.0,286.0,-2.0,0.0,-1.0,140,112,93,119,124
2025-02-26 16:19:05.124,-328.0,-911.0,288.0,-2.0,0.0,-1.0,140,112,91,119,124
2025-02-26 16:19:05.128,-332.0,-911.0,287.0,-1.0,0.0,-1.0,141,112,91,118,124
2025-02-26 16:19:05.131,-332.0,-911.0,292.0,-1.0,0.0,-1.0,140,111,91,119,124
2025-02-26 16:19:05.141,-331.0,-906.0,287.0,-1.0,0.0,-1.0,138,113,91,119,124
2025-02-26 16:19:05.144,-334.0,-911.0,288.0,-1.0,0.0,-1.0,140,111,92,120,124
2025-02-26 16:19:05.149,-335.0,-913.0,289.0,-2.0,0.0,-1.0,141,112,91,118,122
2025-02-26 16:19:05.152,-334.0,-917.0,286.0,-2.0,0.0,-1.0,141,113,92,118,125
2025-02-26 16:19:05.160,-330.0,-916.0,286.0,-2.0,0.0,-1.0,141,112,92,120,124
2025-02-26 16:19:05.162,-332.0,-918.0,290.0,-2.0,0.0,-1.0,139,113,91,119,123
2025-02-26 16:19:05.169,-332.0,-916.0,289.0,-2.0,0.0,-1.0,140,112,91,119,123
2025-02-26 16:19:05.174,-327.0,-915.0,287.0,-2.0,0.0,-1.0,143,112,92,118,124
2025-02-26 16:19:05.181,-332.0,-919.0,285.0,-1.0,0.0,-1.0,141,112,91,119,125
2025-02-26 16:19:05.185,-330.0,-918.0,285.0,-1.0,0.0,-1.0,139,111,90,118,123
2025-02-26 16:19:05.189,-333.0,-918.0,285.0,-1.0,0.0,-1.0,141,114,93,119,124
2025-02-26 16:19:05.194,-333.0,-918.0,285.0,-1.0,0.0,-1.0,141,112,91,120,125
2025-02-26 16:19:05.198,-328.0,-912.0,285.0,-1.0,0.0,0.0,139,112,91,119,124
2025-02-26 16:19:05.206,-334.0,-930.0,266.0,-1.0,0.0,0.0,141,112,91,118,124
2025-02-26 16:19:05.210,-329.0,-912.0,283.0,-1.0,-1.0,-1.0,140,113,92,120,123
2025-02-26 16:19:05.210,-334.0,-914.0,290.0,-1.0,-1.0,0.0,140,113,92,118,125
2025-02-26 16:19:05.217,-331.0,-914.0,287.0,-1.0,-1.0,-1.0,139,112,91,119,123
2025-02-26 16:19:05.227,-331.0,-915.0,287.0,-1.0,-2.0,-1.0,141,112,91,119,124
2025-02-26 16:19:05.231,-329.0,-912.0,287.0,-1.0,-2.0,-1.0,140,113,91,119,124
2025-02-26 16:19:05.234,-329.0,-914.0,286.0,-1.0,-2.0,-1.0,140,112,91,119,124
2025-02-26 16:19:05.240,-333.0,-916.0,288.0,-1.0,-2.0,-1.0,139,112,92,119,124
2025-02-26 16:19:05.246,-334.0,-915.0,287.0,-1.0,-2.0,-1.0,140,112,92,118,124
2025-02-26 16:19:05.246,-332.0,-913.0,287.0,-1.0,-2.0,-1.0,140,111,92,119,123
2025-02-26 16:19:05.256,-334.0,-916.0,288.0,0.0,-1.0,0.0,139,111,91,119,124
2025-02-26 16:19:05.258,-331.0,-917.0,287.0,0.0,-1.0,-1.0,140,111,92,118,124
2025-02-26 16:19:05.265,-323.0,-897.0,261.0,-3.0,0.0,-2.0,140,112,91,119,124
2025-02-26 16:19:05.272,-298.0,-907.0,248.0,0.0,-2.0,-1.0,140,111,91,118,124
2025-02-26 16:19:05.276,-339.0,-924.0,285.0,0.0,-1.0,0.0,140,113,91,119,124
2025-02-26 16:19:05.277,-321.0,-903.0,281.0,0.0,-1.0,-1.0,140,112,91,119,124
2025-02-26 16:19:05.287,-320.0,-901.0,270.0,0.0,-2.0,-1.0,140,111,91,119,124
2025-02-26 16:19:05.289,-343.0,-900.0,281.0,0.0,-3.0,-1.0,136,111,91,118,123
2025-02-26 16:19:05.296,-333.0,-913.0,289.0,0.0,-3.0,-1.0,140,112,92,115,123
2025-02-26 16:19:05.300,-331.0,-912.0,304.0,0.0,-3.0,-1.0,141,113,92,119,124
2025-02-26 16:19:05.307,-332.0,-912.0,299.0,-1.0,-3.0,-1.0,141,113,89,118,123
2025-02-26 16:19:05.312,-329.0,-916.0,303.0,-1.0,-3.0,-1.0,140,111,91,119,123
2025-02-26 16:19:05.314,-330.0,-918.0,298.0,0.0,-2.0,-1.0,144,112,92,119,124
2025-02-26 16:19:05.319,-337.0,-918.0,305.0,-1.0,-2.0,-1.0,141,111,92,119,124
2025-02-26 16:19:05.329,-334.0,-918.0,303.0,-1.0,-1.0,-1.0,140,111,91,119,124
2025-02-26 16:19:05.333,-333.0,-917.0,306.0,0.0,-1.0,-1.0,141,112,91,118,123
2025-02-26 16:19:05.337,-335.0,-919.0,307.0,0.0,-1.0,-1.0,140,112,93,116,123
2025-02-26 16:19:05.339,-334.0,-921.0,300.0,0.0,-1.0,-1.0,141,112,92,118,124
2025-02-26 16:19:05.349,-333.0,-916.0,308.0,-1.0,-1.0,0.0,141,112,92,119,123
2025-02-26 16:19:05.353,-326.0,-911.0,307.0,-1.0,-1.0,0.0,141,113,92,119,124
2025-02-26 16:19:05.358,-327.0,-915.0,305.0,-1.0,-1.0,0.0,140,116,92,119,121
2025-02-26 16:19:05.362,-327.0,-919.0,310.0,-1.0,-1.0,0.0,139,113,91,119,124
2025-02-26 16:19:05.366,-331.0,-919.0,303.0,-1.0,-1.0,0.0,141,112,91,117,123
2025-02-26 16:19:05.373,-331.0,-916.0,309.0,-1.0,-1.0,0.0,140,113,92,120,125
2025-02-26 16:19:05.374,-329.0,-913.0,311.0,-1.0,-1.0,0.0,140,113,91,119,123
2025-02-26 16:19:05.382,-331.0,-910.0,308.0,-1.0,-1.0,-1.0,139,111,92,120,124
2025-02-26 16:19:05.387,-332.0,-916.0,311.0,-1.0,-1.0,-1.0,139,112,92,118,124
2025-02-26 16:19:05.394,-333.0,-911.0,313.0,-2.0,-1.0,-1.0,141,113,92,118,124
2025-02-26 16:19:05.399,-335.0,-913.0,313.0,-2.0,0.0,0.0,140,112,92,119,124
2025-02-26 16:19:05.403,-327.0,-914.0,305.0,-2.0,0.0,-1.0,139,111,90,119,122
2025-02-26 16:19:05.407,-337.0,-907.0,307.0,-2.0,0.0,-1.0,138,112,92,120,124
2025-02-26 16:19:05.411,-336.0,-908.0,303.0,-2.0,0.0,-1.0,142,113,92,119,124
2025-02-26 16:19:05.419,-331.0,-913.0,303.0,-2.0,0.0,-1.0,141,112,91,119,123
2025-02-26 16:19:05.422,-338.0,-906.0,298.0,-2.0,0.0,-1.0,141,111,92,119,123
2025-02-26 16:19:05.428,-334.0,-909.0,300.0,-2.0,0.0,-1.0,140,112,91,118,123
2025-02-26 16:19:05.434,-335.0,-906.0,299.0,-2.0,0.0,-1.0,142,112,91,119,124
2025-02-26 16:19:05.439,-335.0,-904.0,295.0,-2.0,0.0,-1.0,140,112,91,119,123
2025-02-26 16:19:05.441,-341.0,-899.0,295.0,-3.0,0.0,-2.0,141,112,92,119,124
2025-02-26 16:19:05.447,-334.0,-900.0,297.0,-3.0,0.0,-1.0,140,112,92,118,123
2025-02-26 16:19:05.452,-334.0,-901.0,283.0,-3.0,0.0,-2.0,141,112,92,119,124
2025-02-26 16:19:05.460,-335.0,-904.0,300.0,-3.0,0.0,-2.0,140,112,91,120,125
2025-02-26 16:19:05.464,-335.0,-905.0,303.0,-3.0,0.0,-2.0,141,113,92,119,124
2025-02-26 16:19:05.469,-331.0,-913.0,301.0,-3.0,1.0,-2.0,140,111,91,120,124
2025-02-26 16:19:05.473,-329.0,-905.0,306.0,-4.0,3.0,-2.0,141,112,91,120,124
2025-02-26 16:19:05.480,-331.0,-918.0,272.0,-2.0,1.0,-2.0,141,113,91,119,121
2025-02-26 16:19:05.485,-324.0,-917.0,291.0,-2.0,2.0,-2.0,138,112,91,117,124
2025-02-26 16:19:05.489,-329.0,-922.0,292.0,-2.0,2.0,-2.0,140,111,91,119,124
2025-02-26 16:19:05.493,-325.0,-918.0,291.0,-2.0,2.0,-2.0,141,114,92,119,124
2025-02-26 16:19:05.501,-324.0,-909.0,285.0,-2.0,2.0,-1.0,140,112,91,119,124
2025-02-26 16:19:05.505,-327.0,-920.0,292.0,-2.0,2.0,-2.0,141,112,91,118,123
2025-02-26 16:19:05.510,-329.0,-919.0,289.0,-2.0,1.0,-1.0,140,112,92,117,124
2025-02-26 16:19:05.513,-333.0,-922.0,291.0,-2.0,1.0,-1.0,141,113,93,120,125
2025-02-26 16:19:05.521,-328.0,-923.0,283.0,-2.0,1.0,-1.0,139,112,91,119,123
2025-02-26 16:19:05.525,-327.0,-921.0,286.0,-3.0,0.0,-1.0,140,112,91,118,124
2025-02-26 16:19:05.529,-330.0,-927.0,288.0,-3.0,0.0,-1.0,140,117,92,119,124
2025-02-26 16:19:05.534,-331.0,-924.0,290.0,-3.0,0.0,-1.0,141,113,91,120,124
2025-02-26 16:19:05.538,-333.0,-918.0,285.0,-3.0,0.0,0.0,140,109,90,115,123
2025-02-26 16:19:05.546,-331.0,-921.0,284.0,-3.0,0.0,0.0,140,112,92,119,124
2025-02-26 16:19:05.550,-332.0,-917.0,285.0,-3.0,0.0,0.0,140,113,91,118,123
2025-02-26 16:19:05.555,-329.0,-920.0,283.0,-2.0,0.0,0.0,141,112,91,119,123
2025-02-26 16:19:05.559,-330.0,-915.0,282.0,-2.0,0.0,0.0,140,113,91,120,124
2025-02-26 16:19:05.566,-326.0,-917.0,281.0,-2.0,-1.0,0.0,141,113,92,121,124
2025-02-26 16:19:05.570,-332.0,-914.0,283.0,-2.0,0.0,0.0,141,112,91,118,121
2025-02-26 16:19:05.575,-331.0,-912.0,286.0,-2.0,-1.0,0.0,140,112,91,119,123
2025-02-26 16:19:05.579,-332.0,-917.0,283.0,-1.0,-1.0,0.0,141,110,91,120,124
2025-02-26 16:19:05.584,-332.0,-916.0,284.0,-1.0,-1.0,-1.0,141,112,92,118,123
2025-02-26 16:19:05.591,-331.0,-915.0,286.0,-1.0,-1.0,-1.0,140,112,91,118,123
2025-02-26 16:19:05.595,-331.0,-913.0,288.0,-1.0,-1.0,-1.0,142,113,93,120,124
2025-02-26 16:19:05.600,-330.0,-920.0,287.0,-1.0,-1.0,-1.0,141,112,91,119,124
2025-02-26 16:19:05.607,-337.0,-917.0,286.0,-1.0,-1.0,-1.0,140,112,91,119,123
2025-02-26 16:19:05.612,-333.0,-915.0,290.0,-1.0,-1.0,0.0,140,111,91,118,123
2025-02-26 16:19:05.616,-333.0,-916.0,290.0,-1.0,0.0,0.0,141,113,92,119,124
2025-02-26 16:19:05.620,-330.0,-919.0,287.0,-1.0,-1.0,0.0,140,112,90,119,124
2025-02-26 16:19:05.624,-334.0,-914.0,291.0,-1.0,-1.0,-1.0,140,111,90,118,123
2025-02-26 16:19:05.632,-333.0,-910.0,288.0,-1.0,-1.0,0.0,140,112,92,119,124
2025-02-26 16:19:05.636,-334.0,-909.0,287.0,-1.0,-1.0,0.0,141,113,90,120,124
2025-02-26 16:19:05.640,-335.0,-912.0,289.0,-2.0,-1.0,0.0,141,112,91,118,123
2025-02-26 16:19:05.645,-329.0,-910.0,291.0,-2.0,-1.0,0.0,140,112,91,119,123
2025-02-26 16:19:05.645,-329.0,-911.0,290.0,-2.0,-1.0,-1.0,138,113,92,119,125
2025-02-26 16:19:05.656,-330.0,-912.0,296.0,-2.0,-1.0,-1.0,141,110,90,117,124
2025-02-26 16:19:05.661,-333.0,-912.0,295.0,-2.0,-1.0,-1.0,141,112,92,119,123
2025-02-26 16:19:05.664,-330.0,-910.0,291.0,-2.0,-1.0,-1.0,140,112,91,118,123
2025-02-26 16:19:05.669,-330.0,-916.0,295.0,-2.0,-1.0,-1.0,139,112,91,119,124
2025-02-26 16:19:05.676,-335.0,-912.0,295.0,-2.0,-1.0,-1.0,141,112,92,119,123
2025-02-26 16:19:05.681,-335.0,-914.0,296.0,-1.0,-1.0,-1.0,140,111,92,119,124
2025-02-26 16:19:05.686,-328.0,-913.0,296.0,-1.0,-1.0,-1.0,140,111,92,119,123
2025-02-26 16:19:05.690,-335.0,-924.0,291.0,-1.0,-1.0,-1.0,141,113,91,118,123
2025-02-26 16:19:05.697,-330.0,-917.0,305.0,-1.0,0.0,-1.0,140,115,92,119,124
2025-02-26 16:19:05.702,-328.0,-917.0,294.0,-1.0,0.0,-1.0,141,112,91,118,124
2025-02-26 16:19:05.707,-331.0,-919.0,295.0,-1.0,0.0,-1.0,140,113,92,119,125
2025-02-26 16:19:05.714,-336.0,-926.0,295.0,-1.0,0.0,0.0,141,113,91,119,124
2025-02-26 16:19:05.718,-334.0,-920.0,294.0,-1.0,0.0,0.0,139,112,91,118,123
2025-02-26 16:19:05.722,-334.0,-915.0,295.0,-1.0,0.0,0.0,140,112,93,120,123
2025-02-26 16:19:05.727,-331.0,-916.0,293.0,-2.0,0.0,0.0,140,112,93,120,124
2025-02-26 16:19:05.731,-332.0,-914.0,290.0,-1.0,0.0,0.0,141,117,95,119,119
2025-02-26 16:19:05.738,-327.0,-914.0,288.0,-2.0,0.0,0.0,142,112,92,118,123
2025-02-26 16:19:05.742,-331.0,-911.0,286.0,-1.0,0.0,0.0,140,113,92,119,124
2025-02-26 16:19:05.747,-334.0,-909.0,285.0,-2.0,0.0,0.0,140,111,92,119,126
2025-02-26 16:19:05.751,-336.0,-911.0,285.0,-1.0,-1.0,0.0,139,112,91,118,124
2025-02-26 16:19:05.759,-335.0,-908.0,289.0,-2.0,-1.0,-1.0,144,113,93,121,124
2025-02-26 16:19:05.763,-336.0,-905.0,294.0,-2.0,-1.0,-1.0,140,112,92,119,123
2025-02-26 16:19:05.768,-337.0,-905.0,294.0,-2.0,-1.0,-1.0,140,112,93,118,125
2025-02-26 16:19:05.772,-336.0,-907.0,293.0,-2.0,-1.0,-1.0,140,112,91,119,124
2025-02-26 16:19:05.779,-334.0,-911.0,295.0,-2.0,-1.0,-1.0,141,111,93,119,124
2025-02-26 16:19:05.783,-335.0,-908.0,295.0,-2.0,0.0,-1.0,141,111,91,118,124
2025-02-26 16:19:05.788,-336.0,-913.0,293.0,-3.0,0.0,-1.0,140,113,90,117,123
2025-02-26 16:19:05.792,-342.0,-906.0,296.0,-2.0,0.0,-1.0,141,111,92,119,124
2025-02-26 16:19:05.799,-333.0,-908.0,296.0,-2.0,1.0,-1.0,141,113,91,120,123
2025-02-26 16:19:05.804,-338.0,-915.0,288.0,-2.0,1.0,-1.0,140,112,91,117,124
2025-02-26 16:19:05.808,-335.0,-909.0,291.0,-2.0,1.0,-1.0,140,112,91,118,123
2025-02-26 16:19:05.813,-334.0,-910.0,291.0,-2.0,1.0,-1.0,141,113,92,120,123
2025-02-26 16:19:05.818,-334.0,-911.0,285.0,-2.0,1.0,-1.0,141,113,91,118,124
2025-02-26 16:19:05.824,-337.0,-908.0,281.0,-1.0,1.0,-2.0,140,111,90,118,123
2025-02-26 16:19:05.828,-336.0,-911.0,275.0,-1.0,1.0,-1.0,140,112,92,119,123
2025-02-26 16:19:05.833,-331.0,-909.0,279.0,-1.0,0.0,-1.0,142,112,91,119,123
2025-02-26 16:19:05.835,-341.0,-912.0,282.0,-1.0,0.0,-2.0,140,112,91,118,124
2025-02-26 16:19:05.840,-336.0,-911.0,278.0,-1.0,0.0,-1.0,140,112,91,118,124
2025-02-26 16:19:05.849,-332.0,-911.0,278.0,-1.0,0.0,-2.0,140,112,92,119,123
2025-02-26 16:19:05.852,-335.0,-914.0,282.0,-1.0,-1.0,-2.0,140,114,92,120,124
2025-02-26 16:19:05.852,-331.0,-915.0,282.0,-1.0,-1.0,-1.0,139,112,91,119,124
2025-02-26 16:19:05.864,-332.0,-921.0,282.0,-1.0,-1.0,-2.0,140,112,91,120,125
2025-02-26 16:19:05.870,-335.0,-920.0,280.0,-2.0,-1.0,-1.0,140,113,92,119,124
2025-02-26 16:19:05.870,-332.0,-923.0,282.0,-2.0,-1.0,-1.0,140,112,92,120,124
2025-02-26 16:19:05.878,-336.0,-925.0,279.0,-1.0,0.0,-1.0,140,112,92,120,124
2025-02-26 16:19:05.882,-331.0,-922.0,280.0,-2.0,-1.0,-1.0,140,112,92,119,124
2025-02-26 16:19:05.890,-330.0,-922.0,277.0,-1.0,0.0,0.0,140,112,91,118,124
2025-02-26 16:19:05.894,-331.0,-920.0,281.0,-1.0,0.0,-1.0,141,112,91,121,124
2025-02-26 16:19:05.898,-332.0,-924.0,279.0,-1.0,-1.0,-1.0,142,113,92,119,121
2025-02-26 16:19:05.900,-331.0,-919.0,280.0,-1.0,-1.0,-1.0,140,112,92,119,124
2025-02-26 16:19:05.910,-335.0,-918.0,275.0,-1.0,-1.0,-1.0,140,112,91,118,123
2025-02-26 16:19:05.912,-332.0,-917.0,283.0,-1.0,-2.0,0.0,140,112,90,118,124
2025-02-26 16:19:05.919,-330.0,-919.0,283.0,-1.0,-2.0,-1.0,140,113,96,118,124
2025-02-26 16:19:05.925,-326.0,-914.0,284.0,-1.0,-2.0,-1.0,141,112,93,118,124
2025-02-26 16:19:05.931,-332.0,-915.0,282.0,-1.0,-2.0,-1.0,141,112,91,119,123
2025-02-26 16:19:05.935,-333.0,-916.0,291.0,-1.0,-2.0,-1.0,140,112,92,119,123
2025-02-26 16:19:05.935,-335.0,-917.0,292.0,-1.0,-2.0,-1.0,140,112,91,119,123
2025-02-26 16:19:05.947,-330.0,-915.0,293.0,-1.0,-2.0,0.0,141,113,92,118,123
2025-02-26 16:19:05.951,-329.0,-921.0,291.0,-1.0,-2.0,-1.0,141,111,92,119,123
2025-02-26 16:19:05.955,-336.0,-917.0,292.0,-1.0,-2.0,-1.0,140,112,91,118,124
2025-02-26 16:19:05.955,-334.0,-918.0,292.0,-1.0,-1.0,0.0,142,112,92,119,124
2025-02-26 16:19:05.967,-333.0,-917.0,293.0,-1.0,-1.0,0.0,140,111,91,119,124
2025-02-26 16:19:05.967,-333.0,-916.0,293.0,-1.0,-1.0,0.0,140,112,92,118,123
2025-02-26 16:19:05.976,-337.0,-911.0,295.0,0.0,-1.0,0.0,142,113,91,118,124
2025-02-26 16:19:05.979,-340.0,-911.0,293.0,-1.0,-1.0,0.0,140,112,93,119,124
2025-02-26 16:19:05.979,-340.0,-913.0,294.0,-1.0,-1.0,0.0,140,117,91,119,123
2025-02-26 16:19:05.991,-344.0,-910.0,291.0,-1.0,-1.0,0.0,141,112,91,118,123
2025-02-26 16:19:05.996,-334.0,-908.0,293.0,-1.0,-1.0,0.0,141,113,92,119,123
2025-02-26 16:19:05.996,-336.0,-906.0,294.0,-1.0,-1.0,-1.0,140,112,92,119,124
2025-02-26 16:19:06.008,-333.0,-905.0,294.0,-1.0,-1.0,-1.0,140,112,91,119,123
2025-02-26 16:19:06.013,-332.0,-908.0,295.0,-1.0,-1.0,-1.0,140,112,92,118,123
2025-02-26 16:19:06.016,-339.0,-907.0,296.0,-2.0,-1.0,-1.0,140,113,92,120,124
2025-02-26 16:19:06.022,-336.0,-907.0,295.0,-1.0,-1.0,-1.0,140,112,92,119,124
2025-02-26 16:19:06.026,-337.0,-907.0,295.0,-2.0,-1.0,-1.0,140,112,92,119,123
2025-02-26 16:19:06.033,-338.0,-913.0,298.0,-1.0,-1.0,-1.0,141,113,91,119,123
2025-02-26 16:19:06.038,-331.0,-911.0,294.0,-1.0,-1.0,-1.0,142,113,91,119,124
2025-02-26 16:19:06.042,-334.0,-912.0,291.0,-1.0,-1.0,-2.0,140,112,91,120,124
2025-02-26 16:19:06.046,-334.0,-916.0,293.0,-1.0,0.0,-1.0,139,113,90,119,126
2025-02-26 16:19:06.054,-335.0,-916.0,292.0,-1.0,0.0,-2.0,140,112,91,118,124
2025-02-26 16:19:06.065,-336.0,-913.0,291.0,-1.0,0.0,-2.0,142,113,91,120,124
2025-02-26 16:19:06.067,-338.0,-918.0,289.0,-1.0,0.0,-1.0,140,111,92,119,125
2025-02-26 16:19:06.070,-334.0,-917.0,291.0,-1.0,0.0,-1.0,141,113,91,118,123
2025-02-26 16:19:06.074,-334.0,-921.0,287.0,-1.0,0.0,-1.0,141,113,91,119,125
2025-02-26 16:19:06.079,-333.0,-916.0,289.0,-2.0,0.0,-1.0,140,112,91,117,123
2025-02-26 16:19:06.084,-334.0,-919.0,288.0,-2.0,-1.0,-1.0,140,112,91,118,123
2025-02-26 16:19:06.088,-331.0,-921.0,287.0,-2.0,-1.0,-1.0,139,113,92,120,125
2025-02-26 16:19:06.095,-330.0,-917.0,290.0,-2.0,-1.0,-1.0,140,113,91,120,123
2025-02-26 16:19:06.099,-335.0,-926.0,292.0,-2.0,-1.0,-1.0,140,113,92,119,124
2025-02-26 16:19:06.103,-330.0,-917.0,292.0,-2.0,0.0,-1.0,141,114,91,118,123
2025-02-26 16:19:06.107,-333.0,-922.0,291.0,-2.0,0.0,-1.0,141,113,91,119,125
2025-02-26 16:19:06.113,-332.0,-924.0,292.0,-2.0,0.0,-1.0,140,112,92,118,124
2025-02-26 16:19:06.113,-329.0,-927.0,293.0,-2.0,-1.0,0.0,140,112,91,117,124
2025-02-26 16:19:06.124,-329.0,-923.0,293.0,-2.0,0.0,-1.0,141,111,92,119,124
2025-02-26 16:19:06.128,-334.0,-923.0,295.0,-2.0,0.0,0.0,140,113,91,119,124
2025-02-26 16:19:06.135,-330.0,-919.0,292.0,-2.0,0.0,-1.0,140,112,92,118,125
2025-02-26 16:19:06.137,-332.0,-917.0,293.0,-2.0,0.0,0.0,141,112,93,119,124
2025-02-26 16:19:06.143,-333.0,-919.0,292.0,-2.0,0.0,0.0,141,112,92,120,124
2025-02-26 16:19:06.148,-336.0,-917.0,294.0,-2.0,0.0,0.0,140,112,92,119,123
2025-02-26 16:19:06.152,-329.0,-914.0,291.0,-2.0,0.0,0.0,141,112,93,119,124
2025-02-26 16:19:06.155,-334.0,-913.0,286.0,-2.0,0.0,0.0,141,112,92,119,124
2025-02-26 16:19:06.164,-342.0,-918.0,285.0,-2.0,0.0,0.0,139,113,91,119,123
2025-02-26 16:19:06.167,-339.0,-917.0,283.0,-2.0,0.0,0.0,140,111,91,117,122
2025-02-26 16:19:06.173,-337.0,-908.0,283.0,-2.0,0.0,0.0,141,113,93,120,124
2025-02-26 16:19:06.179,-337.0,-910.0,281.0,-2.0,0.0,0.0,141,112,91,118,123
2025-02-26 16:19:06.184,-335.0,-906.0,283.0,-2.0,0.0,0.0,140,111,91,120,123
2025-02-26 16:19:06.185,-337.0,-907.0,281.0,-2.0,-1.0,-1.0,140,112,90,118,124
2025-02-26 16:19:06.193,-338.0,-908.0,282.0,-2.0,0.0,-1.0,141,112,93,120,124
2025-02-26 16:19:06.197,-338.0,-908.0,286.0,-2.0,0.0,-1.0,140,112,91,119,123
2025-02-26 16:19:06.206,-335.0,-906.0,281.0,-2.0,0.0,-1.0,140,112,92,119,125
2025-02-26 16:19:06.206,-339.0,-904.0,283.0,-1.0,0.0,-1.0,140,112,92,120,124
2025-02-26 16:19:06.214,-340.0,-907.0,278.0,-1.0,0.0,-1.0,142,112,92,120,124
2025-02-26 16:19:06.216,-334.0,-914.0,278.0,-1.0,0.0,-1.0,140,112,92,119,124
2025-02-26 16:19:06.226,-336.0,-914.0,278.0,-1.0,0.0,-1.0,141,113,92,119,124
2025-02-26 16:19:06.226,-334.0,-916.0,275.0,-1.0,0.0,-1.0,141,113,91,118,124
2025-02-26 16:19:06.234,-334.0,-917.0,277.0,-1.0,0.0,-1.0,140,113,92,120,123
2025-02-26 16:19:06.238,-336.0,-917.0,280.0,0.0,0.0,-1.0,141,113,91,120,124
2025-02-26 16:19:06.246,-331.0,-916.0,280.0,0.0,-1.0,-1.0,141,112,92,119,124
2025-02-26 16:19:06.246,-336.0,-918.0,275.0,0.0,-1.0,-1.0,140,112,91,119,124
2025-02-26 16:19:06.255,-338.0,-921.0,279.0,0.0,-1.0,-1.0,140,112,93,119,125
2025-02-26 16:19:06.259,-334.0,-917.0,279.0,-1.0,-1.0,-1.0,140,112,92,118,124
2025-02-26 16:19:06.259,-336.0,-915.0,278.0,-1.0,-2.0,-1.0,140,112,91,119,124
2025-02-26 16:19:06.271,-334.0,-919.0,283.0,-1.0,-2.0,-1.0,140,112,91,116,123
2025-02-26 16:19:06.275,-335.0,-915.0,284.0,-2.0,-2.0,-1.0,141,113,93,120,125
2025-02-26 16:19:06.279,-337.0,-919.0,283.0,-1.0,-2.0,-1.0,140,113,92,118,124
2025-02-26 16:19:06.282,-335.0,-916.0,285.0,-1.0,-2.0,-1.0,138,111,92,119,124
2025-02-26 16:19:06.291,-337.0,-918.0,291.0,-1.0,-2.0,-1.0,140,112,95,119,123
2025-02-26 16:19:06.295,-338.0,-918.0,294.0,-2.0,-2.0,-1.0,141,113,91,118,124
2025-02-26 16:19:06.295,-332.0,-918.0,293.0,-1.0,-2.0,-1.0,140,113,92,118,125
2025-02-26 16:19:06.307,-338.0,-918.0,291.0,-1.0,-2.0,-1.0,140,111,91,119,123
2025-02-26 16:19:06.307,-334.0,-917.0,296.0,-1.0,-2.0,-1.0,140,112,91,120,123
2025-02-26 16:19:06.316,-337.0,-916.0,297.0,-1.0,-1.0,-1.0,141,113,92,119,124
2025-02-26 16:19:06.319,-334.0,-917.0,292.0,-1.0,-1.0,-1.0,142,112,91,119,123
2025-02-26 16:19:06.319,-334.0,-913.0,294.0,-1.0,-1.0,0.0,140,111,91,118,123
2025-02-26 16:19:06.332,-334.0,-914.0,297.0,-1.0,0.0,0.0,140,111,91,119,124
2025-02-26 16:19:06.337,-332.0,-916.0,296.0,0.0,0.0,0.0,141,112,92,119,124
2025-02-26 16:19:06.341,-333.0,-911.0,293.0,0.0,0.0,0.0,140,110,92,119,124
2025-02-26 16:19:06.345,-330.0,-913.0,294.0,0.0,0.0,0.0,140,111,91,118,123
2025-02-26 16:19:06.353,-339.0,-912.0,295.0,-1.0,0.0,0.0,140,112,92,119,124
2025-02-26 16:19:06.356,-338.0,-913.0,295.0,-1.0,0.0,-1.0,140,112,92,119,124
2025-02-26 16:19:06.361,-339.0,-909.0,291.0,-1.0,0.0,-1.0,140,111,91,118,124
2025-02-26 16:19:06.364,-334.0,-908.0,294.0,-1.0,0.0,-1.0,140,112,92,119,124
2025-02-26 16:19:06.373,-336.0,-907.0,292.0,-1.0,0.0,-1.0,141,113,91,119,123
2025-02-26 16:19:06.378,-335.0,-909.0,291.0,-1.0,0.0,-1.0,140,112,92,119,124
2025-02-26 16:19:06.382,-338.0,-910.0,290.0,-1.0,0.0,-1.0,141,113,92,119,124
2025-02-26 16:19:06.386,-337.0,-913.0,292.0,-1.0,0.0,-1.0,141,112,92,119,123
2025-02-26 16:19:06.389,-339.0,-913.0,293.0,-1.0,0.0,-1.0,140,112,92,119,123
2025-02-26 16:19:06.398,-337.0,-910.0,286.0,-1.0,1.0,-1.0,141,112,91,118,123
2025-02-26 16:19:06.399,-340.0,-911.0,291.0,-1.0,1.0,-1.0,141,112,91,119,124
2025-02-26 16:19:06.399,-338.0,-914.0,291.0,0.0,1.0,-1.0,140,112,92,119,124
2025-02-26 16:19:06.399,-335.0,-917.0,287.0,-1.0,1.0,-1.0,140,111,91,119,123
2025-02-26 16:19:06.415,-339.0,-912.0,283.0,-1.0,1.0,-1.0,140,112,92,120,125
2025-02-26 16:19:06.415,-339.0,-912.0,285.0,0.0,1.0,-1.0,140,112,92,118,124
2025-02-26 16:19:06.415,-343.0,-909.0,287.0,0.0,1.0,-1.0,139,113,91,117,123
2025-02-26 16:19:06.428,-338.0,-906.0,289.0,0.0,0.0,-1.0,139,112,93,119,124
2025-02-26 16:19:06.428,-333.0,-916.0,288.0,0.0,1.0,-1.0,141,111,91,118,123
2025-02-26 16:19:06.443,-336.0,-912.0,287.0,0.0,1.0,-2.0,140,111,92,119,124
2025-02-26 16:19:06.443,-332.0,-916.0,283.0,0.0,0.0,-2.0,141,113,91,119,124
2025-02-26 16:19:06.443,-334.0,-912.0,284.0,0.0,0.0,-1.0,141,113,92,119,123
2025-02-26 16:19:06.455,-333.0,-917.0,286.0,0.0,0.0,-1.0,141,113,90,119,123
2025-02-26 16:19:06.455,-331.0,-917.0,284.0,0.0,0.0,-1.0,140,112,91,118,123
2025-02-26 16:19:06.464,-333.0,-919.0,281.0,0.0,0.0,-2.0,141,112,91,118,124
2025-02-26 16:19:06.471,-335.0,-921.0,278.0,0.0,0.0,-1.0,140,112,90,120,124
2025-02-26 16:19:06.476,-330.0,-922.0,282.0,0.0,0.0,-1.0,140,112,92,118,123
2025-02-26 16:19:06.480,-333.0,-922.0,283.0,0.0,0.0,-1.0,142,113,91,119,124
2025-02-26 16:19:06.482,-330.0,-921.0,282.0,0.0,0.0,-1.0,141,112,91,117,123
2025-02-26 16:19:06.492,-327.0,-917.0,281.0,0.0,0.0,-1.0,141,112,92,118,123
2025-02-26 16:19:06.494,-333.0,-916.0,285.0,0.0,-1.0,-1.0,142,113,92,120,125
2025-02-26 16:19:06.501,-331.0,-918.0,283.0,0.0,0.0,-1.0,139,111,91,119,124
2025-02-26 16:19:06.504,-330.0,-916.0,283.0,0.0,-1.0,-1.0,141,112,90,118,124
2025-02-26 16:19:06.504,-340.0,-913.0,287.0,0.0,-1.0,-1.0,141,112,92,119,123
2025-02-26 16:19:06.517,-338.0,-916.0,288.0,0.0,-1.0,-1.0,141,113,92,118,125
2025-02-26 16:19:06.521,-336.0,-912.0,287.0,0.0,-1.0,-1.0,140,112,92,119,123
2025-02-26 16:19:06.525,-332.0,-909.0,284.0,0.0,-1.0,-1.0,140,112,91,118,124
2025-02-26 16:19:06.533,-335.0,-912.0,290.0,0.0,-1.0,-1.0,140,113,92,120,124
2025-02-26 16:19:06.537,-334.0,-905.0,283.0,0.0,-1.0,-1.0,141,112,92,120,123
2025-02-26 16:19:06.539,-337.0,-907.0,291.0,1.0,0.0,-1.0,140,112,92,119,124
2025-02-26 16:19:06.546,-334.0,-907.0,286.0,1.0,0.0,-1.0,140,111,91,119,124
2025-02-26 16:19:06.553,-332.0,-909.0,285.0,1.0,0.0,-1.0,141,113,92,120,123
2025-02-26 16:19:06.558,-338.0,-908.0,290.0,1.0,0.0,-2.0,140,112,92,119,124
2025-02-26 16:19:06.561,-332.0,-907.0,289.0,1.0,0.0,-2.0,142,112,92,119,124
2025-02-26 16:19:06.566,-338.0,-912.0,288.0,1.0,0.0,-2.0,143,112,92,119,124
2025-02-26 16:19:06.570,-337.0,-911.0,291.0,1.0,0.0,-2.0,141,112,91,118,123
2025-02-26 16:19:06.576,-331.0,-910.0,291.0,1.0,0.0,-2.0,143,114,92,120,125
2025-02-26 16:19:06.582,-334.0,-915.0,290.0,1.0,0.0,-2.0,141,112,92,119,124
2025-02-26 16:19:06.586,-332.0,-913.0,291.0,1.0,0.0,-2.0,140,112,91,119,123
2025-02-26 16:19:06.590,-331.0,-915.0,297.0,1.0,0.0,-2.0,140,112,92,119,124
2025-02-26 16:19:06.594,-333.0,-917.0,297.0,0.0,-1.0,-2.0,140,112,90,120,125
2025-02-26 16:19:06.603,-333.0,-922.0,304.0,0.0,-1.0,-1.0,141,113,91,119,123
2025-02-26 16:19:06.607,-332.0,-921.0,299.0,0.0,-1.0,-1.0,140,111,91,117,124
2025-02-26 16:19:06.611,-336.0,-920.0,304.0,0.0,-1.0,-1.0,141,113,91,118,124
2025-02-26 16:19:06.616,-335.0,-922.0,310.0,0.0,-1.0,-1.0,140,113,92,119,125
2025-02-26 16:19:06.620,-334.0,-921.0,307.0,-1.0,-1.0,-1.0,140,112,91,119,124
2025-02-26 16:19:06.627,-332.0,-921.0,310.0,0.0,0.0,-1.0,141,112,91,119,124
2025-02-26 16:19:06.632,-335.0,-916.0,311.0,-1.0,0.0,-1.0,140,112,92,119,124
2025-02-26 16:19:06.636,-335.0,-913.0,309.0,-1.0,0.0,-1.0,141,112,91,119,125
2025-02-26 16:19:06.640,-334.0,-914.0,302.0,-1.0,1.0,-1.0,141,112,92,118,123
2025-02-26 16:19:06.647,-330.0,-910.0,294.0,0.0,1.0,-1.0,141,113,92,119,124
2025-02-26 16:19:06.652,-338.0,-915.0,302.0,0.0,2.0,-1.0,141,111,91,115,123
2025-02-26 16:19:06.652,-341.0,-913.0,302.0,0.0,2.0,-1.0,141,112,90,120,123
2025-02-26 16:19:06.661,-335.0,-906.0,300.0,0.0,2.0,-1.0,140,112,92,120,124
2025-02-26 16:19:06.668,-333.0,-911.0,295.0,0.0,2.0,-1.0,140,112,92,120,124
2025-02-26 16:19:06.672,-335.0,-910.0,291.0,0.0,2.0,-1.0,139,112,90,118,123
2025-02-26 16:19:06.676,-335.0,-907.0,295.0,0.0,1.0,-1.0,141,112,91,118,124
2025-02-26 16:19:06.676,-337.0,-910.0,292.0,-1.0,1.0,-1.0,140,112,92,118,125
2025-02-26 16:19:06.688,-336.0,-912.0,291.0,0.0,1.0,-1.0,140,112,91,119,124
2025-02-26 16:19:06.692,-338.0,-915.0,295.0,-1.0,1.0,-1.0,140,112,91,118,124
2025-02-26 16:19:06.697,-338.0,-914.0,293.0,-1.0,1.0,-1.0,140,112,91,118,125
2025-02-26 16:19:06.700,-336.0,-913.0,298.0,-1.0,1.0,-1.0,140,113,91,119,123
2025-02-26 16:19:06.706,-334.0,-913.0,303.0,-1.0,1.0,-2.0,139,112,92,119,124
2025-02-26 16:19:06.706,-336.0,-917.0,302.0,-1.0,1.0,-1.0,141,113,91,118,124
2025-02-26 16:19:06.717,-337.0,-921.0,303.0,-1.0,1.0,-1.0,140,112,93,118,124
2025-02-26 16:19:06.721,-332.0,-921.0,305.0,-1.0,1.0,-1.0,140,112,91,118,124
2025-02-26 16:19:06.726,-330.0,-918.0,300.0,-1.0,2.0,-1.0,141,112,92,118,124
2025-02-26 16:19:06.733,-336.0,-920.0,302.0,-2.0,2.0,-1.0,141,112,92,120,123
2025-02-26 16:19:06.738,-334.0,-910.0,300.0,-2.0,2.0,-1.0,140,112,92,121,124
2025-02-26 16:19:06.742,-329.0,-912.0,297.0,-2.0,2.0,-1.0,141,112,92,117,123
2025-02-26 16:19:06.746,-335.0,-911.0,297.0,-2.0,2.0,-1.0,142,112,89,118,123
2025-02-26 16:19:06.754,-334.0,-908.0,290.0,-2.0,2.0,-1.0,140,113,91,118,123
2025-02-26 16:19:06.759,-330.0,-906.0,288.0,-2.0,2.0,-1.0,141,112,92,117,124
2025-02-26 16:19:06.763,-344.0,-906.0,291.0,-2.0,2.0,-1.0,138,112,92,121,125
2025-02-26 16:19:06.767,-333.0,-895.0,281.0,-2.0,2.0,-1.0,140,113,91,119,125
2025-02-26 16:19:06.774,-337.0,-910.0,287.0,-2.0,2.0,-2.0,139,112,92,119,123
2025-02-26 16:19:06.776,-336.0,-912.0,276.0,-2.0,1.0,-1.0,143,112,91,118,124
2025-02-26 16:19:06.783,-334.0,-909.0,280.0,-1.0,2.0,-2.0,141,112,92,119,123
2025-02-26 16:19:06.787,-337.0,-911.0,290.0,-1.0,1.0,-1.0,140,111,91,118,125
2025-02-26 16:19:06.792,-336.0,-910.0,291.0,-1.0,2.0,-2.0,139,112,91,118,124
2025-02-26 16:19:06.799,-340.0,-903.0,293.0,-1.0,1.0,-2.0,140,112,92,119,124
2025-02-26 16:19:06.803,-337.0,-910.0,278.0,-1.0,2.0,-2.0,140,113,91,118,123
2025-02-26 16:19:06.808,-330.0,-908.0,284.0,-1.0,2.0,-2.0,138,111,95,118,123
2025-02-26 16:19:06.811,-336.0,-914.0,277.0,-2.0,1.0,-2.0,141,113,92,118,124
2025-02-26 16:19:06.819,-326.0,-913.0,278.0,-1.0,1.0,-2.0,140,113,91,117,124
2025-02-26 16:19:06.824,-343.0,-919.0,270.0,-1.0,1.0,-2.0,140,113,91,117,124
2025-02-26 16:19:06.828,-345.0,-924.0,282.0,-1.0,1.0,-2.0,142,112,91,116,123
2025-02-26 16:19:06.832,-346.0,-926.0,276.0,-1.0,1.0,-2.0,140,113,92,119,124
2025-02-26 16:19:06.840,-348.0,-931.0,270.0,-1.0,0.0,-1.0,140,113,92,119,124
2025-02-26 16:19:06.844,-350.0,-926.0,276.0,-1.0,1.0,-1.0,140,112,91,118,123
2025-02-26 16:19:06.849,-351.0,-927.0,269.0,-1.0,0.0,-1.0,141,113,92,116,124
2025-02-26 16:19:06.853,-342.0,-923.0,273.0,-2.0,0.0,0.0,140,113,92,118,124
2025-02-26 16:19:06.854,-342.0,-917.0,270.0,-2.0,1.0,0.0,140,112,91,118,124
2025-02-26 16:19:06.864,-333.0,-917.0,270.0,-1.0,0.0,0.0,141,112,91,119,124
2025-02-26 16:19:06.866,-327.0,-915.0,270.0,-2.0,0.0,0.0,140,113,91,119,124
2025-02-26 16:19:06.873,-326.0,-916.0,268.0,-2.0,0.0,0.0,140,112,92,118,123
2025-02-26 16:19:06.878,-320.0,-910.0,268.0,-1.0,-1.0,-1.0,140,113,91,119,123
2025-02-26 16:19:06.885,-324.0,-911.0,264.0,-1.0,-1.0,0.0,140,113,92,119,125
2025-02-26 16:19:06.890,-327.0,-913.0,260.0,-1.0,-1.0,-1.0,140,113,91,118,124
2025-02-26 16:19:06.894,-324.0,-913.0,254.0,0.0,-1.0,-1.0,140,112,91,118,124
2025-02-26 16:19:06.898,-321.0,-912.0,258.0,0.0,-2.0,-1.0,140,112,92,120,124
2025-02-26 16:19:06.905,-329.0,-907.0,253.0,1.0,-2.0,-2.0,141,112,92,119,124
2025-02-26 16:19:06.910,-332.0,-912.0,248.0,1.0,-3.0,-2.0,140,111,91,119,123
2025-02-26 16:19:06.914,-335.0,-912.0,249.0,1.0,-3.0,-1.0,141,111,91,117,124
2025-02-26 16:19:06.919,-333.0,-919.0,245.0,1.0,-4.0,-2.0,140,114,92,119,124
2025-02-26 16:19:06.926,-344.0,-916.0,247.0,1.0,-6.0,-1.0,140,113,92,119,123
2025-02-26 16:19:06.930,-345.0,-920.0,245.0,1.0,-6.0,-1.0,140,112,91,118,122
2025-02-26 16:19:06.935,-343.0,-918.0,249.0,1.0,-7.0,0.0,141,112,93,120,124
2025-02-26 16:19:06.939,-350.0,-928.0,253.0,1.0,-8.0,0.0,140,114,91,120,124
2025-02-26 16:19:06.943,-343.0,-931.0,257.0,1.0,-8.0,1.0,140,111,90,118,123
2025-02-26 16:19:06.950,-345.0,-932.0,268.0,1.0,-8.0,1.0,140,112,92,118,124
2025-02-26 16:19:06.955,-335.0,-927.0,270.0,1.0,-8.0,1.0,141,113,91,120,123
2025-02-26 16:19:06.959,-334.0,-928.0,270.0,1.0,-8.0,1.0,140,111,91,118,123
2025-02-26 16:19:06.964,-334.0,-926.0,269.0,2.0,-8.0,1.0,140,112,90,118,123
2025-02-26 16:19:06.967,-326.0,-923.0,271.0,2.0,-8.0,2.0,140,113,92,120,124
2025-02-26 16:19:06.975,-326.0,-920.0,283.0,3.0,-8.0,2.0,140,112,91,117,124
2025-02-26 16:19:06.980,-325.0,-915.0,291.0,4.0,-9.0,2.0,140,112,91,119,124
2025-02-26 16:19:06.984,-322.0,-910.0,287.0,4.0,-9.0,2.0,140,113,93,119,124
2025-02-26 16:19:06.988,-329.0,-912.0,288.0,3.0,-9.0,1.0,140,111,91,118,123
2025-02-26 16:19:06.994,-328.0,-906.0,298.0,3.0,-10.0,1.0,140,112,91,118,123
2025-02-26 16:19:07.000,-332.0,-903.0,294.0,3.0,-10.0,1.0,141,113,92,119,124
2025-02-26 16:19:07.004,-332.0,-896.0,298.0,3.0,-10.0,1.0,140,113,92,118,124
2025-02-26 16:19:07.006,-334.0,-896.0,301.0,2.0,-10.0,0.0,140,112,91,116,122
2025-02-26 16:19:07.013,-338.0,-900.0,308.0,1.0,-10.0,0.0,138,110,93,116,127
2025-02-26 16:19:07.018,-336.0,-898.0,305.0,1.0,-10.0,0.0,140,113,92,119,124
2025-02-26 16:19:07.024,-344.0,-892.0,306.0,0.0,-10.0,0.0,139,112,92,117,123
2025-02-26 16:19:07.029,-343.0,-898.0,305.0,0.0,-10.0,0.0,140,112,91,119,123
2025-02-26 16:19:07.033,-347.0,-899.0,303.0,0.0,-10.0,0.0,141,112,93,120,125
2025-02-26 16:19:07.041,-351.0,-899.0,308.0,0.0,-9.0,0.0,140,112,91,120,124
2025-02-26 16:19:07.042,-348.0,-901.0,304.0,1.0,-9.0,0.0,141,112,92,117,123
2025-02-26 16:19:07.049,-351.0,-899.0,307.0,1.0,-9.0,0.0,141,113,92,120,124
2025-02-26 16:19:07.054,-351.0,-893.0,310.0,1.0,-9.0,0.0,140,111,92,118,124
2025-02-26 16:19:07.058,-353.0,-889.0,304.0,2.0,-8.0,0.0,140,111,91,118,123
2025-02-26 16:19:07.066,-347.0,-890.0,311.0,3.0,-8.0,-1.0,140,113,91,119,123
2025-02-26 16:19:07.069,-348.0,-884.0,303.0,4.0,-8.0,-1.0,140,113,91,117,124
2025-02-26 16:19:07.074,-346.0,-886.0,301.0,4.0,-8.0,-1.0,141,112,92,118,124
2025-02-26 16:19:07.078,-347.0,-865.0,301.0,4.0,-8.0,-2.0,140,112,91,119,124
2025-02-26 16:19:07.086,-337.0,-885.0,301.0,4.0,-8.0,-1.0,140,112,91,119,125
2025-02-26 16:19:07.090,-343.0,-882.0,313.0,3.0,-7.0,-2.0,140,112,91,118,124
2025-02-26 16:19:07.095,-332.0,-878.0,304.0,4.0,-7.0,-4.0,140,112,92,119,124
2025-02-26 16:19:07.098,-338.0,-880.0,318.0,2.0,-7.0,-4.0,141,112,92,119,120
2025-02-26 16:19:07.107,-323.0,-879.0,307.0,2.0,-7.0,-5.0,141,113,92,119,124
2025-02-26 16:19:07.111,-326.0,-883.0,314.0,2.0,-7.0,-5.0,140,111,90,118,122
2025-02-26 16:19:07.115,-316.0,-884.0,309.0,1.0,-7.0,-5.0,141,113,91,119,125
2025-02-26 16:19:07.119,-316.0,-888.0,315.0,0.0,-7.0,-6.0,141,112,92,119,123
2025-02-26 16:19:07.127,-315.0,-900.0,301.0,0.0,-8.0,-6.0,140,111,91,118,124
2025-02-26 16:19:07.131,-318.0,-910.0,309.0,0.0,-8.0,-6.0,141,112,92,122,123
2025-02-26 16:19:07.135,-318.0,-915.0,309.0,1.0,-8.0,-6.0,140,113,92,120,124
2025-02-26 16:19:07.139,-328.0,-919.0,302.0,0.0,-8.0,-6.0,140,112,91,119,124
2025-02-26 16:19:07.144,-332.0,-932.0,301.0,2.0,-8.0,-6.0,140,116,91,119,123
2025-02-26 16:19:07.152,-331.0,-939.0,307.0,2.0,-7.0,-5.0,140,112,91,119,124
2025-02-26 16:19:07.156,-332.0,-952.0,307.0,3.0,-7.0,-4.0,142,113,92,121,124
2025-02-26 16:19:07.160,-344.0,-954.0,303.0,3.0,-7.0,-3.0,140,113,92,118,124
2025-02-26 16:19:07.164,-347.0,-953.0,312.0,6.0,-7.0,-2.0,140,111,91,117,124
2025-02-26 16:19:07.172,-342.0,-953.0,310.0,6.0,-7.0,-1.0,142,117,91,119,122
2025-02-26 16:19:07.176,-340.0,-945.0,317.0,6.0,-7.0,0.0,141,112,92,120,124
2025-02-26 16:19:07.181,-334.0,-929.0,337.0,7.0,-7.0,0.0,142,112,92,119,123
2025-02-26 16:19:07.185,-321.0,-918.0,341.0,5.0,-8.0,0.0,141,112,91,119,124
2025-02-26 16:19:07.192,-299.0,-906.0,342.0,5.0,-8.0,0.0,141,112,92,119,124
2025-02-26 16:19:07.195,-298.0,-893.0,345.0,3.0,-8.0,-1.0,140,114,91,118,124
2025-02-26 16:19:07.200,-285.0,-896.0,356.0,2.0,-8.0,-1.0,141,113,93,119,124
2025-02-26 16:19:07.205,-288.0,-886.0,353.0,0.0,-8.0,-3.0,140,113,92,120,124
2025-02-26 16:19:07.210,-267.0,-868.0,344.0,-1.0,-9.0,-4.0,140,112,91,119,124
2025-02-26 16:19:07.217,-270.0,-878.0,340.0,-1.0,-8.0,-4.0,141,113,92,119,124
2025-02-26 16:19:07.219,-307.0,-901.0,337.0,-2.0,-7.0,-5.0,140,112,92,119,125
2025-02-26 16:19:07.223,-301.0,-904.0,326.0,-2.0,-7.0,-6.0,140,112,91,121,123
2025-02-26 16:19:07.230,-310.0,-929.0,336.0,-1.0,-6.0,-6.0,140,112,92,119,124
2025-02-26 16:19:07.235,-340.0,-940.0,319.0,-1.0,-6.0,-5.0,141,112,92,118,123
2025-02-26 16:19:07.242,-357.0,-950.0,321.0,1.0,-5.0,-4.0,140,113,91,121,124
2025-02-26 16:19:07.246,-361.0,-966.0,313.0,2.0,-5.0,-3.0,140,113,92,119,124
2025-02-26 16:19:07.250,-370.0,-961.0,329.0,0.0,-3.0,-2.0,141,112,92,118,124
2025-02-26 16:19:07.258,-373.0,-968.0,326.0,2.0,-5.0,0.0,141,113,92,119,124
2025-02-26 16:19:07.261,-374.0,-964.0,333.0,2.0,-5.0,1.0,141,112,91,119,124
2025-02-26 16:19:07.266,-366.0,-947.0,341.0,4.0,-5.0,3.0,140,112,92,119,123
2025-02-26 16:19:07.270,-355.0,-938.0,350.0,3.0,-4.0,3.0,141,112,90,117,123
2025-02-26 16:19:07.279,-339.0,-921.0,348.0,3.0,-5.0,4.0,140,113,92,119,124
2025-02-26 16:19:07.282,-320.0,-904.0,360.0,3.0,-5.0,4.0,140,113,92,118,123
2025-02-26 16:19:07.285,-317.0,-897.0,377.0,2.0,-4.0,4.0,140,112,91,118,123
2025-02-26 16:19:07.291,-301.0,-893.0,374.0,1.0,-3.0,3.0,140,113,92,119,125
2025-02-26 16:19:07.296,-289.0,-878.0,380.0,0.0,-1.0,2.0,141,113,93,120,124
2025-02-26 16:19:07.303,-279.0,-882.0,384.0,0.0,-1.0,1.0,140,112,91,119,124
2025-02-26 16:19:07.307,-285.0,-877.0,386.0,0.0,1.0,0.0,141,112,92,119,125
2025-02-26 16:19:07.311,-290.0,-870.0,377.0,0.0,3.0,-1.0,140,113,91,120,123
2025-02-26 16:19:07.316,-298.0,-877.0,360.0,0.0,3.0,-2.0,141,112,91,119,124
2025-02-26 16:19:07.320,-316.0,-876.0,365.0,0.0,5.0,-2.0,141,113,92,119,124
2025-02-26 16:19:07.327,-333.0,-878.0,357.0,0.0,6.0,-3.0,141,112,91,119,124
2025-02-26 16:19:07.332,-351.0,-887.0,343.0,1.0,6.0,-3.0,140,112,91,118,124
2025-02-26 16:19:07.336,-364.0,-890.0,338.0,1.0,7.0,-3.0,140,114,92,119,125
2025-02-26 16:19:07.340,-361.0,-890.0,331.0,2.0,7.0,-3.0,141,113,92,118,123
2025-02-26 16:19:07.345,-357.0,-885.0,312.0,3.0,7.0,-3.0,139,112,91,119,123
2025-02-26 16:19:07.352,-355.0,-885.0,314.0,5.0,7.0,-3.0,141,111,92,118,124
2025-02-26 16:19:07.357,-331.0,-878.0,308.0,5.0,6.0,-3.0,140,113,92,119,124
2025-02-26 16:19:07.361,-326.0,-865.0,303.0,6.0,6.0,-3.0,141,112,91,118,123
2025-02-26 16:19:07.365,-314.0,-855.0,303.0,8.0,5.0,-4.0,141,112,92,120,124
2025-02-26 16:19:07.373,-302.0,-840.0,300.0,9.0,5.0,-5.0,140,109,91,120,123
2025-02-26 16:19:07.377,-300.0,-834.0,292.0,10.0,4.0,-6.0,140,113,93,119,124
2025-02-26 16:19:07.381,-293.0,-830.0,293.0,11.0,3.0,-7.0,141,113,92,119,124
2025-02-26 16:19:07.386,-292.0,-832.0,284.0,13.0,3.0,-9.0,140,113,92,118,124
2025-02-26 16:19:07.393,-298.0,-833.0,287.0,13.0,3.0,-10.0,140,112,92,119,124
2025-02-26 16:19:07.398,-296.0,-842.0,296.0,14.0,3.0,-11.0,140,112,92,118,124
2025-02-26 16:19:07.402,-307.0,-846.0,300.0,15.0,4.0,-13.0,140,112,92,120,123
2025-02-26 16:19:07.405,-312.0,-855.0,301.0,16.0,5.0,-14.0,141,113,92,119,123
2025-02-26 16:19:07.413,-310.0,-870.0,304.0,16.0,5.0,-15.0,141,113,92,118,122
2025-02-26 16:19:07.418,-310.0,-872.0,301.0,17.0,6.0,-16.0,140,112,93,119,124
2025-02-26 16:19:07.427,-315.0,-875.0,304.0,18.0,4.0,-16.0,141,112,91,119,124
2025-02-26 16:19:07.430,-307.0,-888.0,320.0,18.0,7.0,-17.0,140,112,91,119,124
2025-02-26 16:19:07.434,-304.0,-883.0,325.0,16.0,8.0,-18.0,140,113,92,118,123
2025-02-26 16:19:07.438,-316.0,-886.0,296.0,15.0,6.0,-18.0,141,112,92,120,123
2025-02-26 16:19:07.441,-320.0,-898.0,305.0,15.0,5.0,-17.0,141,113,93,120,124
2025-02-26 16:19:07.447,-326.0,-912.0,312.0,13.0,6.0,-18.0,140,112,92,119,123
2025-02-26 16:19:07.455,-303.0,-915.0,310.0,15.0,4.0,-17.0,140,111,91,119,124
2025-02-26 16:19:07.458,-322.0,-924.0,327.0,12.0,4.0,-17.0,141,111,91,119,123
2025-02-26 16:19:07.460,-315.0,-925.0,328.0,12.0,3.0,-16.0,141,113,92,120,124
2025-02-26 16:19:07.467,-310.0,-942.0,311.0,12.0,2.0,-14.0,140,112,92,120,124
2025-02-26 16:19:07.475,-317.0,-946.0,326.0,13.0,2.0,-14.0,140,111,91,119,123
2025-02-26 16:19:07.479,-310.0,-948.0,332.0,14.0,2.0,-13.0,141,113,93,119,123
2025-02-26 16:19:07.484,-318.0,-963.0,341.0,15.0,2.0,-12.0,140,113,92,119,124
2025-02-26 16:19:07.488,-302.0,-959.0,339.0,15.0,1.0,-12.0,140,112,91,119,124
2025-02-26 16:19:07.496,-301.0,-967.0,347.0,16.0,1.0,-11.0,141,112,91,117,123
2025-02-26 16:19:07.498,-305.0,-965.0,350.0,15.0,1.0,-10.0,141,111,91,119,124
2025-02-26 16:19:07.501,-307.0,-967.0,352.0,15.0,1.0,-9.0,141,113,92,120,124
2025-02-26 16:19:07.509,-309.0,-974.0,362.0,14.0,1.0,-8.0,140,112,91,116,123
2025-02-26 16:19:07.513,-308.0,-971.0,370.0,12.0,1.0,-8.0,141,113,90,118,123
2025-02-26 16:19:07.520,-310.0,-964.0,372.0,10.0,1.0,-7.0,141,112,92,118,124
2025-02-26 16:19:07.525,-305.0,-963.0,384.0,9.0,1.0,-5.0,141,112,90,118,123
2025-02-26 16:19:07.528,-293.0,-952.0,391.0,7.0,1.0,-5.0,139,113,91,118,123
2025-02-26 16:19:07.533,-291.0,-956.0,388.0,5.0,2.0,-4.0,140,112,91,119,124
2025-02-26 16:19:07.540,-289.0,-960.0,390.0,4.0,2.0,-4.0,141,113,92,119,124
2025-02-26 16:19:07.544,-292.0,-958.0,395.0,3.0,2.0,-4.0,140,112,92,119,124
2025-02-26 16:19:07.549,-289.0,-954.0,385.0,2.0,2.0,-4.0,141,112,91,119,123
2025-02-26 16:19:07.553,-286.0,-953.0,383.0,1.0,2.0,-3.0,140,113,91,118,125
2025-02-26 16:19:07.561,-286.0,-950.0,393.0,1.0,2.0,-3.0,140,112,91,118,124
2025-02-26 16:19:07.566,-287.0,-955.0,376.0,2.0,3.0,-3.0,141,113,92,118,124
2025-02-26 16:19:07.570,-291.0,-953.0,375.0,1.0,3.0,-2.0,140,112,91,120,125
2025-02-26 16:19:07.574,-291.0,-958.0,370.0,2.0,3.0,-1.0,140,112,92,118,124
2025-02-26 16:19:07.577,-296.0,-957.0,363.0,2.0,4.0,0.0,140,113,91,118,121
2025-02-26 16:19:07.586,-303.0,-953.0,358.0,2.0,3.0,1.0,141,114,91,118,125
2025-02-26 16:19:07.589,-304.0,-945.0,348.0,3.0,4.0,3.0,140,113,91,119,123
2025-02-26 16:19:07.594,-317.0,-950.0,344.0,3.0,3.0,3.0,141,111,92,119,124
2025-02-26 16:19:07.598,-327.0,-927.0,346.0,3.0,3.0,4.0,140,112,93,122,124
2025-02-26 16:19:07.600,-327.0,-929.0,339.0,3.0,2.0,4.0,140,112,91,118,124
2025-02-26 16:19:07.610,-333.0,-922.0,344.0,3.0,1.0,4.0,140,113,91,118,124
2025-02-26 16:19:07.614,-321.0,-904.0,341.0,2.0,1.0,4.0,140,112,92,119,124
2025-02-26 16:19:07.619,-325.0,-903.0,336.0,3.0,0.0,4.0,140,113,92,119,124
2025-02-26 16:19:07.623,-317.0,-906.0,338.0,3.0,0.0,4.0,140,113,90,119,124
2025-02-26 16:19:07.624,-313.0,-899.0,347.0,4.0,-1.0,4.0,140,112,91,118,123
2025-02-26 16:19:07.635,-308.0,-892.0,342.0,4.0,-1.0,4.0,140,111,91,118,124
2025-02-26 16:19:07.639,-297.0,-879.0,346.0,4.0,-2.0,4.0,141,113,88,118,124
2025-02-26 16:19:07.644,-302.0,-879.0,350.0,4.0,-3.0,4.0,140,113,93,119,125
2025-02-26 16:19:07.648,-294.0,-880.0,351.0,4.0,-3.0,4.0,140,111,91,119,123
2025-02-26 16:19:07.652,-292.0,-876.0,355.0,4.0,-4.0,3.0,140,114,92,119,124
2025-02-26 16:19:07.659,-292.0,-873.0,359.0,3.0,-4.0,3.0,141,113,92,119,124
2025-02-26 16:19:07.664,-292.0,-880.0,362.0,2.0,-4.0,3.0,141,112,92,119,124
2025-02-26 16:19:07.668,-292.0,-871.0,363.0,2.0,-6.0,2.0,140,112,92,119,124
2025-02-26 16:19:07.672,-295.0,-876.0,365.0,1.0,-5.0,2.0,141,112,92,120,124
2025-02-26 16:19:07.676,-303.0,-878.0,363.0,1.0,-5.0,1.0,141,112,90,118,123
2025-02-26 16:19:07.684,-291.0,-874.0,362.0,1.0,-5.0,2.0,140,112,92,119,123
2025-02-26 16:19:07.689,-297.0,-882.0,357.0,1.0,-5.0,1.0,141,111,92,118,123
2025-02-26 16:19:07.693,-293.0,-882.0,360.0,3.0,-5.0,1.0,140,112,91,118,123
2025-02-26 16:19:07.697,-291.0,-890.0,369.0,2.0,-4.0,1.0,140,112,89,118,123
2025-02-26 16:19:07.705,-288.0,-876.0,363.0,4.0,-4.0,0.0,145,113,92,120,123
2025-02-26 16:19:07.709,-282.0,-875.0,346.0,4.0,-4.0,0.0,140,112,92,118,123
2025-02-26 16:19:07.713,-284.0,-868.0,358.0,4.0,-4.0,0.0,140,112,91,119,125
2025-02-26 16:19:07.717,-275.0,-869.0,357.0,5.0,-4.0,-1.0,141,112,92,119,124
2025-02-26 16:19:07.722,-276.0,-858.0,359.0,5.0,-5.0,-1.0,141,113,92,119,123
2025-02-26 16:19:07.729,-272.0,-855.0,348.0,6.0,-5.0,-2.0,140,112,91,118,123
2025-02-26 16:19:07.733,-276.0,-853.0,347.0,6.0,-6.0,-2.0,141,112,92,119,124
2025-02-26 16:19:07.737,-272.0,-852.0,351.0,5.0,-7.0,-2.0,141,113,92,120,124
2025-02-26 16:19:07.741,-278.0,-855.0,354.0,5.0,-7.0,-3.0,140,111,91,119,124
2025-02-26 16:19:07.749,-281.0,-858.0,363.0,5.0,-7.0,-2.0,140,112,91,119,123
2025-02-26 16:19:07.754,-284.0,-859.0,356.0,4.0,-8.0,-3.0,140,113,92,120,127
2025-02-26 16:19:07.758,-293.0,-865.0,364.0,4.0,-8.0,-3.0,141,113,92,119,124
2025-02-26 16:19:07.763,-296.0,-875.0,370.0,4.0,-8.0,-3.0,140,112,92,117,123
2025-02-26 16:19:07.770,-304.0,-871.0,378.0,3.0,-9.0,-3.0,144,113,91,120,124
2025-02-26 16:19:07.774,-304.0,-886.0,378.0,4.0,-8.0,-3.0,141,112,92,119,123
2025-02-26 16:19:07.778,-302.0,-885.0,380.0,4.0,-9.0,-3.0,141,115,93,120,124
2025-02-26 16:19:07.783,-299.0,-882.0,388.0,4.0,-8.0,-3.0,140,113,92,118,123
2025-02-26 16:19:07.787,-302.0,-890.0,390.0,5.0,-8.0,-3.0,142,112,91,120,124
2025-02-26 16:19:07.795,-294.0,-886.0,398.0,5.0,-8.0,-3.0,140,112,92,119,125
2025-02-26 16:19:07.799,-290.0,-899.0,403.0,4.0,-9.0,-3.0,140,112,92,119,123
2025-02-26 16:19:07.800,-287.0,-893.0,414.0,5.0,-9.0,-3.0,140,112,92,118,123
2025-02-26 16:19:07.807,-283.0,-905.0,414.0,5.0,-9.0,-3.0,141,112,91,119,123
2025-02-26 16:19:07.815,-286.0,-907.0,416.0,5.0,-9.0,-3.0,141,112,92,118,124
2025-02-26 16:19:07.819,-274.0,-906.0,422.0,5.0,-9.0,-3.0,140,112,92,119,123
2025-02-26 16:19:07.824,-277.0,-909.0,419.0,3.0,-9.0,-3.0,140,112,91,119,125
2025-02-26 16:19:07.828,-284.0,-913.0,427.0,3.0,-8.0,-3.0,140,113,92,119,124
2025-02-26 16:19:07.836,-287.0,-920.0,430.0,3.0,-8.0,-3.0,140,112,92,119,123
2025-02-26 16:19:07.840,-295.0,-924.0,433.0,3.0,-6.0,-3.0,140,112,92,119,124
2025-02-26 16:19:07.844,-291.0,-922.0,431.0,2.0,-5.0,-2.0,142,112,91,118,125
2025-02-26 16:19:07.848,-297.0,-934.0,432.0,1.0,-4.0,-1.0,140,112,90,118,123
2025-02-26 16:19:07.856,-296.0,-930.0,440.0,1.0,-2.0,-1.0,141,112,92,119,124
2025-02-26 16:19:07.859,-303.0,-930.0,421.0,-1.0,-2.0,0.0,141,111,92,119,125
2025-02-26 16:19:07.864,-302.0,-940.0,412.0,0.0,-1.0,0.0,140,112,92,120,123
2025-02-26 16:19:07.868,-293.0,-939.0,443.0,0.0,1.0,1.0,135,111,91,121,123
2025-02-26 16:19:07.873,-296.0,-939.0,426.0,2.0,1.0,2.0,140,112,91,119,124
2025-02-26 16:19:07.878,-303.0,-939.0,406.0,2.0,1.0,2.0,139,113,91,119,124
2025-02-26 16:19:07.884,-297.0,-937.0,414.0,3.0,1.0,2.0,140,111,91,118,123
2025-02-26 16:19:07.888,-295.0,-938.0,423.0,5.0,2.0,3.0,140,115,93,120,126
2025-02-26 16:19:07.893,-302.0,-931.0,412.0,5.0,1.0,4.0,139,112,92,118,123
2025-02-26 16:19:07.897,-301.0,-946.0,409.0,3.0,1.0,4.0,141,112,92,117,123
2025-02-26 16:19:07.903,-302.0,-906.0,414.0,5.0,2.0,3.0,141,112,93,120,124
2025-02-26 16:19:07.909,-293.0,-920.0,397.0,4.0,1.0,4.0,140,112,90,119,123
2025-02-26 16:19:07.913,-280.0,-902.0,396.0,4.0,0.0,4.0,140,111,91,118,123
2025-02-26 16:19:07.918,-278.0,-899.0,378.0,5.0,-2.0,3.0,141,114,92,119,123
2025-02-26 16:19:07.922,-284.0,-910.0,369.0,5.0,-1.0,3.0,140,116,91,119,123
2025-02-26 16:19:07.930,-282.0,-908.0,385.0,3.0,1.0,4.0,141,111,90,118,123
2025-02-26 16:19:07.931,-316.0,-906.0,369.0,1.0,1.0,3.0,140,112,92,119,124
2025-02-26 16:19:07.938,-305.0,-924.0,346.0,1.0,0.0,4.0,140,112,93,120,124
2025-02-26 16:19:07.942,-302.0,-913.0,366.0,2.0,1.0,4.0,142,112,92,120,124
2025-02-26 16:19:07.947,-300.0,-908.0,357.0,3.0,2.0,5.0,141,113,92,120,124
2025-02-26 16:19:07.951,-296.0,-925.0,333.0,3.0,3.0,6.0,140,112,91,119,123
2025-02-26 16:19:07.958,-312.0,-920.0,327.0,4.0,2.0,6.0,141,113,92,119,123
2025-02-26 16:19:07.963,-317.0,-918.0,328.0,5.0,2.0,7.0,141,113,92,119,123
2025-02-26 16:19:07.967,-307.0,-901.0,328.0,6.0,0.0,7.0,140,111,92,119,124
2025-02-26 16:19:07.971,-298.0,-896.0,324.0,7.0,-2.0,7.0,140,111,92,119,124
2025-02-26 16:19:07.975,-303.0,-900.0,334.0,8.0,-3.0,7.0,139,112,93,121,125
2025-02-26 16:19:07.983,-303.0,-893.0,341.0,10.0,-3.0,7.0,140,112,92,119,123
2025-02-26 16:19:07.987,-300.0,-888.0,343.0,12.0,-6.0,7.0,140,111,92,118,123
2025-02-26 16:19:07.992,-293.0,-882.0,350.0,12.0,-7.0,7.0,140,112,92,119,124
2025-02-26 16:19:07.995,-280.0,-887.0,358.0,14.0,-8.0,8.0,140,112,91,119,123
2025-02-26 16:19:08.004,-299.0,-892.0,343.0,12.0,-9.0,6.0,140,112,92,118,123
2025-02-26 16:19:08.007,-288.0,-878.0,359.0,14.0,-10.0,7.0,140,113,92,119,124
2025-02-26 16:19:08.011,-292.0,-861.0,366.0,15.0,-11.0,6.0,141,112,92,119,123
2025-02-26 16:19:08.017,-292.0,-855.0,365.0,14.0,-12.0,6.0,140,112,92,118,123
2025-02-26 16:19:08.024,-296.0,-853.0,386.0,15.0,-12.0,5.0,141,112,93,119,123
2025-02-26 16:19:08.028,-311.0,-845.0,383.0,13.0,-13.0,5.0,141,113,92,119,123
2025-02-26 16:19:08.029,-307.0,-844.0,399.0,13.0,-13.0,5.0,141,112,92,119,123
2025-02-26 16:19:08.036,-315.0,-842.0,411.0,12.0,-14.0,4.0,140,113,91,119,123
2025-02-26 16:19:08.044,-310.0,-834.0,412.0,11.0,-15.0,4.0,141,113,92,120,123
2025-02-26 16:19:08.047,-312.0,-832.0,416.0,11.0,-15.0,4.0,141,112,91,119,123
2025-02-26 16:19:08.053,-306.0,-827.0,431.0,11.0,-15.0,3.0,140,112,92,119,123
2025-02-26 16:19:08.055,-309.0,-827.0,430.0,10.0,-16.0,3.0,141,109,92,119,125
2025-02-26 16:19:08.065,-314.0,-824.0,445.0,9.0,-15.0,2.0,140,113,91,118,123
2025-02-26 16:19:08.067,-305.0,-815.0,446.0,10.0,-14.0,3.0,141,112,92,118,123
2025-02-26 16:19:08.073,-311.0,-822.0,446.0,9.0,-12.0,3.0,141,112,91,118,123
2025-02-26 16:19:08.077,-316.0,-819.0,444.0,8.0,-11.0,3.0,140,112,91,119,122
2025-02-26 16:19:08.086,-316.0,-820.0,437.0,9.0,-10.0,3.0,141,113,92,119,123
2025-02-26 16:19:08.090,-324.0,-824.0,453.0,9.0,-8.0,2.0,140,112,92,119,122
2025-02-26 16:19:08.094,-323.0,-824.0,450.0,9.0,-7.0,1.0,141,111,91,119,123
2025-02-26 16:19:08.098,-317.0,-826.0,461.0,8.0,-5.0,0.0,141,112,96,120,123
2025-02-26 16:19:08.102,-317.0,-833.0,453.0,8.0,-4.0,-1.0,140,112,92,119,123
2025-02-26 16:19:08.110,-321.0,-849.0,449.0,8.0,-4.0,-2.0,137,111,91,114,122
2025-02-26 16:19:08.114,-302.0,-858.0,489.0,4.0,-2.0,-3.0,141,112,91,119,123
2025-02-26 16:19:08.118,-294.0,-842.0,481.0,4.0,0.0,-4.0,142,112,92,120,123
2025-02-26 16:19:08.122,-294.0,-850.0,449.0,4.0,-1.0,-5.0,140,112,92,119,122
2025-02-26 16:19:08.130,-322.0,-866.0,471.0,2.0,-1.0,-5.0,137,111,92,117,122
2025-02-26 16:19:08.134,-313.0,-855.0,467.0,0.0,-3.0,-6.0,140,113,92,116,123
2025-02-26 16:19:08.139,-318.0,-856.0,483.0,-2.0,-1.0,-6.0,141,115,92,119,123
2025-02-26 16:19:08.143,-314.0,-852.0,466.0,-1.0,-2.0,-7.0,140,111,91,119,122
2025-02-26 16:19:08.150,-308.0,-855.0,447.0,-2.0,-1.0,-7.0,140,115,93,120,122
2025-02-26 16:19:08.155,-308.0,-853.0,455.0,-5.0,-2.0,-8.0,140,113,93,119,123
2025-02-26 16:19:08.158,-316.0,-875.0,450.0,-5.0,-2.0,-7.0,140,112,92,118,123
2025-02-26 16:19:08.164,-319.0,-893.0,434.0,-8.0,-2.0,-7.0,140,111,91,118,123
2025-02-26 16:19:08.171,-319.0,-895.0,460.0,-6.0,-2.0,-7.0,140,112,91,120,123
2025-02-26 16:19:08.176,-324.0,-902.0,453.0,-2.0,-2.0,-7.0,141,113,92,119,123
2025-02-26 16:19:08.180,-316.0,-902.0,437.0,-1.0,-1.0,-6.0,140,112,92,120,123
2025-02-26 16:19:08.185,-317.0,-907.0,433.0,-1.0,-1.0,-7.0,139,112,92,119,122
2025-02-26 16:19:08.192,-312.0,-908.0,441.0,-2.0,0.0,-7.0,140,110,92,120,123
2025-02-26 16:19:08.196,-320.0,-912.0,412.0,-2.0,0.0,-8.0,140,113,91,119,124
2025-02-26 16:19:08.200,-314.0,-921.0,425.0,-5.0,0.0,-8.0,140,111,92,119,123
2025-02-26 16:19:08.205,-318.0,-917.0,443.0,-5.0,0.0,-8.0,142,113,92,119,124
2025-02-26 16:19:08.212,-311.0,-910.0,439.0,-5.0,0.0,-8.0,141,112,92,119,123
2025-02-26 16:19:08.217,-313.0,-918.0,427.0,-5.0,-1.0,-7.0,141,112,92,120,123
2025-02-26 16:19:08.221,-314.0,-916.0,434.0,-6.0,-2.0,-7.0,140,112,92,119,123
2025-02-26 16:19:08.225,-301.0,-928.0,430.0,-9.0,-2.0,-8.0,141,113,92,120,122
2025-02-26 16:19:08.234,-298.0,-889.0,422.0,-9.0,-3.0,-8.0,140,112,92,119,123
2025-02-26 16:19:08.237,-285.0,-920.0,439.0,-8.0,-2.0,-7.0,141,113,92,118,123
2025-02-26 16:19:08.241,-279.0,-900.0,430.0,-7.0,-2.0,-7.0,140,112,91,119,122
2025-02-26 16:19:08.245,-285.0,-901.0,431.0,-5.0,-2.0,-6.0,140,113,92,118,123
2025-02-26 16:19:08.253,-295.0,-914.0,419.0,-6.0,-2.0,-5.0,140,112,92,120,123
2025-02-26 16:19:08.258,-282.0,-915.0,410.0,-5.0,-2.0,-5.0,140,112,92,118,122
2025-02-26 16:19:08.262,-288.0,-912.0,404.0,-4.0,-1.0,-4.0,140,111,91,118,122
2025-02-26 16:19:08.267,-291.0,-907.0,416.0,-3.0,0.0,-4.0,139,112,92,120,123
2025-02-26 16:19:08.274,-284.0,-917.0,417.0,-2.0,1.0,-3.0,140,111,92,119,123
2025-02-26 16:19:08.278,-287.0,-916.0,411.0,-1.0,1.0,-2.0,141,112,92,119,123
2025-02-26 16:19:08.282,-295.0,-914.0,414.0,0.0,2.0,-2.0,140,112,92,118,123
2025-02-26 16:19:08.286,-280.0,-906.0,404.0,1.0,2.0,-1.0,140,113,92,119,123
2025-02-26 16:19:08.294,-276.0,-897.0,396.0,1.0,2.0,-1.0,140,111,91,119,122
2025-02-26 16:19:08.299,-283.0,-889.0,409.0,2.0,2.0,-2.0,140,112,92,119,123
2025-02-26 16:19:08.303,-281.0,-891.0,409.0,2.0,1.0,-2.0,141,112,92,119,123
2025-02-26 16:19:08.307,-281.0,-886.0,404.0,2.0,1.0,-2.0,139,112,91,118,122
2025-02-26 16:19:08.311,-275.0,-880.0,403.0,2.0,0.0,-2.0,140,111,92,117,122
2025-02-26 16:19:08.318,-282.0,-880.0,398.0,1.0,-2.0,-2.0,139,113,93,118,123
2025-02-26 16:19:08.322,-276.0,-874.0,402.0,1.0,-2.0,-2.0,141,112,91,118,122
2025-02-26 16:19:08.327,-279.0,-876.0,404.0,1.0,-2.0,-2.0,139,111,91,118,122
2025-02-26 16:19:08.332,-282.0,-878.0,402.0,1.0,-3.0,-2.0,140,113,92,120,122
2025-02-26 16:19:08.339,-284.0,-881.0,402.0,0.0,-3.0,-1.0,140,112,92,118,122
2025-02-26 16:19:08.343,-275.0,-876.0,402.0,1.0,-4.0,-1.0,140,111,91,119,122
2025-02-26 16:19:08.348,-283.0,-871.0,412.0,1.0,-5.0,-1.0,140,112,92,119,122
2025-02-26 16:19:08.352,-289.0,-870.0,414.0,2.0,-5.0,-1.0,140,112,92,118,122
2025-02-26 16:19:08.360,-287.0,-869.0,409.0,2.0,-5.0,-1.0,141,112,91,118,122
2025-02-26 16:19:08.364,-284.0,-869.0,414.0,3.0,-5.0,-1.0,140,111,91,118,122
2025-02-26 16:19:08.369,-289.0,-868.0,416.0,3.0,-5.0,-1.0,140,113,92,119,122
2025-02-26 16:19:08.373,-278.0,-862.0,411.0,4.0,-5.0,-1.0,141,112,92,117,123
2025-02-26 16:19:08.377,-275.0,-859.0,419.0,6.0,-5.0,0.0,141,107,92,118,122
2025-02-26 16:19:08.384,-285.0,-861.0,416.0,7.0,-4.0,0.0,141,114,93,119,122
2025-02-26 16:19:08.389,-280.0,-859.0,406.0,7.0,-5.0,0.0,140,112,91,119,121
2025-02-26 16:19:08.393,-286.0,-863.0,420.0,7.0,-5.0,0.0,140,111,91,119,123
2025-02-26 16:19:08.397,-295.0,-854.0,433.0,6.0,-4.0,0.0,141,112,92,119,123
2025-02-26 16:19:08.404,-301.0,-856.0,433.0,6.0,-5.0,0.0,140,112,91,118,123
2025-02-26 16:19:08.409,-298.0,-855.0,428.0,5.0,-5.0,0.0,141,111,91,118,121
2025-02-26 16:19:08.413,-300.0,-852.0,427.0,4.0,-6.0,-1.0,140,112,92,119,122
2025-02-26 16:19:08.418,-294.0,-855.0,428.0,3.0,-7.0,-1.0,141,113,92,118,123
2025-02-26 16:19:08.422,-302.0,-851.0,434.0,2.0,-7.0,-2.0,140,112,92,119,122
2025-02-26 16:19:08.429,-301.0,-838.0,439.0,2.0,-8.0,-2.0,140,113,92,118,121
2025-02-26 16:19:08.433,-294.0,-838.0,439.0,1.0,-9.0,-2.0,141,112,92,118,122
2025-02-26 16:19:08.435,-292.0,-843.0,445.0,1.0,-9.0,-1.0,140,112,92,118,121
2025-02-26 16:19:08.442,-288.0,-848.0,438.0,1.0,-9.0,-1.0,140,112,92,119,121
2025-02-26 16:19:08.448,-278.0,-848.0,444.0,1.0,-9.0,0.0,140,112,92,119,122
2025-02-26 16:19:08.454,-277.0,-862.0,449.0,1.0,-9.0,0.0,141,111,92,119,122
2025-02-26 16:19:08.458,-276.0,-861.0,451.0,1.0,-8.0,0.0,141,112,93,120,122
2025-02-26 16:19:08.463,-271.0,-867.0,436.0,3.0,-8.0,0.0,141,112,91,118,122
2025-02-26 16:19:08.467,-281.0,-875.0,468.0,1.0,-7.0,0.0,140,112,93,120,122
2025-02-26 16:19:08.474,-285.0,-885.0,450.0,0.0,-6.0,0.0,143,111,91,118,121
2025-02-26 16:19:08.479,-283.0,-886.0,440.0,0.0,-5.0,0.0,140,112,91,119,121
2025-02-26 16:19:08.483,-289.0,-886.0,447.0,0.0,-5.0,0.0,140,114,92,119,122
2025-02-26 16:19:08.487,-288.0,-879.0,455.0,0.0,-4.0,1.0,141,112,91,118,122
2025-02-26 16:19:08.495,-290.0,-880.0,449.0,1.0,-4.0,1.0,140,111,92,117,122
2025-02-26 16:19:08.499,-299.0,-890.0,447.0,2.0,-5.0,1.0,141,112,92,120,123
2025-02-26 16:19:08.503,-294.0,-876.0,455.0,1.0,-6.0,1.0,140,112,90,119,122
2025-02-26 16:19:08.508,-291.0,-872.0,458.0,2.0,-6.0,1.0,141,112,92,119,122
2025-02-26 16:19:08.512,-292.0,-866.0,452.0,2.0,-6.0,1.0,141,112,90,120,122
2025-02-26 16:19:08.519,-288.0,-862.0,455.0,2.0,-7.0,1.0,141,112,91,119,122
2025-02-26 16:19:08.524,-286.0,-859.0,464.0,3.0,-6.0,1.0,140,112,92,118,121
2025-02-26 16:19:08.528,-283.0,-861.0,459.0,2.0,-5.0,0.0,140,111,92,121,122
2025-02-26 16:19:08.532,-285.0,-861.0,450.0,1.0,-5.0,0.0,141,112,91,119,122
2025-02-26 16:19:08.537,-281.0,-863.0,460.0,2.0,-5.0,-1.0,140,112,92,121,122
2025-02-26 16:19:08.544,-285.0,-871.0,472.0,1.0,-4.0,-1.0,140,113,93,119,122
2025-02-26 16:19:08.548,-279.0,-871.0,465.0,2.0,-3.0,-1.0,140,112,93,119,122
2025-02-26 16:19:08.552,-281.0,-873.0,458.0,2.0,-3.0,-2.0,140,111,91,119,121
2025-02-26 16:19:08.557,-282.0,-871.0,466.0,2.0,-3.0,-2.0,140,111,92,118,121
2025-02-26 16:19:08.564,-279.0,-871.0,463.0,2.0,-2.0,-3.0,138,112,92,120,123
2025-02-26 16:19:08.569,-282.0,-881.0,466.0,2.0,-2.0,-3.0,140,111,92,120,122
2025-02-26 16:19:08.573,-277.0,-887.0,461.0,2.0,-2.0,-3.0,140,112,91,118,121
2025-02-26 16:19:08.578,-271.0,-889.0,466.0,2.0,-2.0,-2.0,141,112,91,119,122
2025-02-26 16:19:08.585,-266.0,-894.0,467.0,1.0,-1.0,-2.0,141,112,93,119,122
2025-02-26 16:19:08.589,-259.0,-903.0,477.0,1.0,-2.0,-1.0,140,112,90,118,121
2025-02-26 16:19:08.594,-261.0,-899.0,481.0,0.0,-1.0,-1.0,140,112,92,118,121
2025-02-26 16:19:08.597,-251.0,-900.0,478.0,-1.0,-1.0,0.0,141,113,93,119,122
2025-02-26 16:19:08.605,-246.0,-899.0,490.0,-1.0,1.0,-1.0,141,113,92,119,122
2025-02-26 16:19:08.610,-238.0,-906.0,491.0,-2.0,1.0,0.0,140,111,90,120,121
2025-02-26 16:19:08.612,-239.0,-898.0,480.0,-3.0,1.0,0.0,140,111,92,119,122
2025-02-26 16:19:08.618,-244.0,-895.0,486.0,-4.0,2.0,1.0,141,113,93,119,121
2025-02-26 16:19:08.622,-245.0,-898.0,478.0,-4.0,3.0,1.0,141,112,91,117,122
2025-02-26 16:19:08.630,-250.0,-896.0,480.0,-6.0,4.0,1.0,141,113,92,118,122
2025-02-26 16:19:08.634,-258.0,-898.0,482.0,-6.0,5.0,1.0,141,112,91,119,122
2025-02-26 16:19:08.638,-264.0,-896.0,474.0,-7.0,5.0,1.0,141,111,91,118,122
2025-02-26 16:19:08.643,-271.0,-892.0,467.0,-7.0,5.0,1.0,141,112,92,119,122
2025-02-26 16:19:08.646,-277.0,-886.0,466.0,-9.0,5.0,1.0,141,112,92,119,121
2025-02-26 16:19:08.655,-274.0,-878.0,462.0,-11.0,5.0,1.0,139,112,91,118,121
2025-02-26 16:19:08.659,-277.0,-889.0,448.0,-10.0,4.0,0.0,140,112,92,121,122
2025-02-26 16:19:08.663,-282.0,-884.0,459.0,-12.0,4.0,0.0,142,113,92,119,121
2025-02-26 16:19:08.667,-289.0,-884.0,441.0,-10.0,3.0,0.0,140,111,92,119,122
2025-02-26 16:19:08.675,-292.0,-876.0,441.0,-11.0,4.0,0.0,140,111,91,118,121
2025-02-26 16:19:08.679,-284.0,-878.0,431.0,-10.0,2.0,-1.0,140,113,93,119,122
2025-02-26 16:19:08.684,-287.0,-873.0,435.0,-11.0,2.0,-1.0,137,113,93,119,122
2025-02-26 16:19:08.688,-285.0,-875.0,433.0,-10.0,3.0,-1.0,140,112,92,118,123
2025-02-26 16:19:08.695,-288.0,-877.0,424.0,-10.0,2.0,0.0,140,112,92,119,122
2025-02-26 16:19:08.700,-293.0,-882.0,435.0,-10.0,3.0,-1.0,141,112,93,119,122
2025-02-26 16:19:08.704,-290.0,-875.0,421.0,-10.0,2.0,-1.0,140,112,92,118,122
2025-02-26 16:19:08.708,-295.0,-875.0,421.0,-10.0,2.0,-1.0,139,112,90,117,121
2025-02-26 16:19:08.716,-299.0,-883.0,412.0,-10.0,2.0,-1.0,141,112,91,117,121
2025-02-26 16:19:08.720,-299.0,-879.0,418.0,-9.0,2.0,-1.0,141,113,94,119,122
2025-02-26 16:19:08.725,-304.0,-879.0,415.0,-9.0,3.0,-1.0,140,111,91,119,122
2025-02-26 16:19:08.729,-305.0,-886.0,396.0,-8.0,2.0,-1.0,140,111,87,117,121
2025-02-26 16:19:08.737,-314.0,-894.0,395.0,-8.0,2.0,-1.0,142,112,92,120,122
2025-02-26 16:19:08.740,-314.0,-884.0,388.0,-7.0,1.0,0.0,141,108,92,119,121
2025-02-26 16:19:08.745,-317.0,-879.0,389.0,-9.0,1.0,0.0,140,112,88,118,122
2025-02-26 16:19:08.749,-312.0,-883.0,397.0,-6.0,0.0,0.0,139,112,95,119,122
2025-02-26 16:19:08.751,-334.0,-890.0,395.0,-7.0,-1.0,0.0,142,112,92,119,122
2025-02-26 16:19:08.761,-328.0,-893.0,398.0,-6.0,-2.0,0.0,138,112,91,118,121
2025-02-26 16:19:08.765,-335.0,-897.0,403.0,-10.0,-3.0,-1.0,140,112,91,119,122
2025-02-26 16:19:08.770,-318.0,-896.0,404.0,-11.0,-3.0,-1.0,140,111,92,118,121
2025-02-26 16:19:08.774,-304.0,-891.0,430.0,-11.0,-3.0,-1.0,141,112,91,118,122
2025-02-26 16:19:08.782,-296.0,-896.0,425.0,-10.0,-2.0,-1.0,140,112,92,118,121
2025-02-26 16:19:08.792,-295.0,-896.0,429.0,-9.0,-3.0,-2.0,141,112,92,119,121
2025-02-26 16:19:08.794,-289.0,-907.0,429.0,-9.0,-3.0,-2.0,141,112,92,118,122
2025-02-26 16:19:08.797,-297.0,-900.0,428.0,-8.0,-4.0,-1.0,141,113,93,119,122
2025-02-26 16:19:08.802,-294.0,-908.0,437.0,-7.0,-3.0,-1.0,141,112,91,118,121
2025-02-26 16:19:08.806,-294.0,-915.0,434.0,-7.0,-2.0,-1.0,139,112,92,119,121
2025-02-26 16:19:08.811,-298.0,-910.0,430.0,-6.0,-1.0,0.0,140,112,92,118,122
2025-02-26 16:19:08.818,-302.0,-908.0,426.0,-7.0,-1.0,0.0,141,113,93,119,121
2025-02-26 16:19:08.823,-302.0,-903.0,430.0,-9.0,-1.0,0.0,139,111,92,118,121
2025-02-26 16:19:08.826,-299.0,-902.0,422.0,-10.0,0.0,0.0,140,111,92,119,122
2025-02-26 16:19:08.831,-306.0,-901.0,424.0,-12.0,0.0,0.0,141,112,91,118,122
2025-02-26 16:19:08.835,-296.0,-902.0,422.0,-13.0,0.0,0.0,140,112,93,119,122
2025-02-26 16:19:08.842,-291.0,-911.0,423.0,-13.0,1.0,1.0,140,111,91,118,121
2025-02-26 16:19:08.848,-290.0,-914.0,418.0,-14.0,1.0,1.0,140,112,93,119,122
2025-02-26 16:19:08.852,-288.0,-910.0,416.0,-13.0,0.0,1.0,140,112,92,118,121
2025-02-26 16:19:08.856,-283.0,-910.0,425.0,-12.0,0.0,1.0,141,112,92,119,122
2025-02-26 16:19:08.864,-285.0,-908.0,413.0,-13.0,1.0,2.0,140,112,92,119,123
2025-02-26 16:19:08.868,-288.0,-903.0,404.0,-12.0,1.0,2.0,140,112,92,119,122
2025-02-26 16:19:08.872,-293.0,-900.0,413.0,-12.0,1.0,3.0,140,113,92,119,122
2025-02-26 16:19:08.876,-286.0,-895.0,407.0,-12.0,1.0,3.0,140,112,92,118,122
2025-02-26 16:19:08.884,-282.0,-894.0,408.0,-11.0,1.0,3.0,140,112,92,119,122
2025-02-26 16:19:08.889,-288.0,-887.0,415.0,-12.0,1.0,3.0,140,112,92,119,122
2025-02-26 16:19:08.891,-287.0,-884.0,403.0,-11.0,1.0,3.0,140,112,88,117,121
2025-02-26 16:19:08.897,-292.0,-882.0,400.0,-12.0,0.0,3.0,141,112,92,120,122
2025-02-26 16:19:08.904,-285.0,-884.0,395.0,-12.0,0.0,4.0,141,112,91,118,122
2025-02-26 16:19:08.908,-287.0,-886.0,399.0,-11.0,0.0,4.0,140,112,91,118,122
2025-02-26 16:19:08.913,-290.0,-884.0,406.0,-11.0,0.0,4.0,139,111,91,117,122
2025-02-26 16:19:08.917,-286.0,-892.0,405.0,-11.0,0.0,4.0,141,112,92,119,123
2025-02-26 16:19:08.921,-287.0,-892.0,395.0,-10.0,0.0,5.0,141,112,92,118,122
2025-02-26 16:19:08.929,-290.0,-901.0,415.0,-11.0,1.0,5.0,140,111,91,118,122
2025-02-26 16:19:08.934,-294.0,-879.0,411.0,-10.0,3.0,5.0,140,112,92,118,122
2025-02-26 16:19:08.937,-305.0,-891.0,400.0,-9.0,2.0,7.0,141,112,92,118,122
2025-02-26 16:19:08.941,-291.0,-869.0,398.0,-9.0,2.0,7.0,140,111,92,117,121
2025-02-26 16:19:08.950,-295.0,-860.0,357.0,-7.0,1.0,7.0,141,112,92,118,121
2025-02-26 16:19:08.954,-290.0,-869.0,358.0,-7.0,0.0,7.0,141,113,92,120,121
2025-02-26 16:19:08.958,-289.0,-855.0,391.0,-7.0,1.0,7.0,140,112,92,119,122
2025-02-26 16:19:08.962,-309.0,-864.0,400.0,-8.0,1.0,7.0,141,112,91,119,121
2025-02-26 16:19:08.967,-300.0,-854.0,395.0,-7.0,1.0,7.0,141,112,92,118,124
2025-02-26 16:19:08.974,-306.0,-857.0,370.0,-6.0,0.0,7.0,141,110,90,118,121
2025-02-26 16:19:08.978,-311.0,-862.0,377.0,-6.0,0.0,7.0,140,112,92,118,122
2025-02-26 16:19:08.982,-306.0,-864.0,369.0,-7.0,1.0,6.0,140,113,91,120,122
2025-02-26 16:19:08.987,-313.0,-868.0,359.0,-7.0,0.0,6.0,139,112,92,117,121
2025-02-26 16:19:08.991,-313.0,-862.0,377.0,-7.0,0.0,6.0,139,111,91,118,121
2025-02-26 16:19:08.999,-317.0,-873.0,367.0,-5.0,0.0,6.0,142,111,93,119,122
2025-02-26 16:19:09.003,-307.0,-872.0,374.0,-4.0,-4.0,6.0,142,112,92,120,122
2025-02-26 16:19:09.008,-327.0,-893.0,357.0,-4.0,-3.0,7.0,140,112,92,119,121
2025-02-26 16:19:09.012,-305.0,-891.0,489.0,-5.0,0.0,5.0,140,112,92,118,122
2025-02-26 16:19:09.017,-284.0,-863.0,446.0,3.0,5.0,6.0,140,113,92,117,122
2025-02-26 16:19:09.023,-322.0,-899.0,412.0,8.0,2.0,6.0,141,112,91,118,120
2025-02-26 16:19:09.027,-308.0,-881.0,420.0,-3.0,12.0,7.0,140,112,91,119,122
2025-02-26 16:19:09.031,-304.0,-887.0,351.0,1.0,6.0,8.0,140,113,92,118,120
2025-02-26 16:19:09.036,-338.0,-881.0,375.0,-23.0,10.0,8.0,141,112,93,119,122
2025-02-26 16:19:09.044,-295.0,-818.0,415.0,-32.0,15.0,8.0,141,112,91,119,121
2025-02-26 16:19:09.048,-286.0,-893.0,409.0,-34.0,18.0,9.0,139,112,92,118,121
2025-02-26 16:19:09.052,-336.0,-864.0,375.0,-25.0,8.0,8.0,141,111,91,119,122
2025-02-26 16:19:09.057,-330.0,-851.0,290.0,-19.0,-5.0,8.0,139,112,91,118,122
2025-02-26 16:19:09.064,-365.0,-867.0,408.0,-8.0,-8.0,6.0,141,114,93,118,121
2025-02-26 16:19:09.068,-325.0,-809.0,415.0,-5.0,-6.0,4.0,140,112,92,118,122
2025-02-26 16:19:09.073,-356.0,-857.0,331.0,5.0,-8.0,3.0,140,113,91,117,121
2025-02-26 16:19:09.077,-341.0,-859.0,307.0,7.0,-14.0,3.0,141,112,92,119,121
2025-02-26 16:19:09.084,-367.0,-860.0,339.0,-2.0,-15.0,3.0,140,111,92,118,121
2025-02-26 16:19:09.089,-358.0,-867.0,353.0,-7.0,-13.0,2.0,140,111,92,118,121
2025-02-26 16:19:09.094,-334.0,-862.0,389.0,-1.0,-10.0,2.0,141,111,92,117,121
2025-02-26 16:19:09.098,-343.0,-876.0,317.0,-7.0,-10.0,2.0,140,111,92,119,122
2025-02-26 16:19:09.103,-341.0,-896.0,383.0,-8.0,-1.0,2.0,141,112,93,119,121
2025-02-26 16:19:09.109,-328.0,-858.0,400.0,-6.0,3.0,2.0,140,112,92,117,121
2025-02-26 16:19:09.114,-343.0,-872.0,325.0,-10.0,2.0,2.0,140,111,90,118,121
2025-02-26 16:19:09.118,-326.0,-882.0,344.0,-13.0,4.0,2.0,141,112,92,120,124
2025-02-26 16:19:09.126,-324.0,-882.0,354.0,-14.0,6.0,2.0,141,112,91,118,122
2025-02-26 16:19:09.130,-353.0,-894.0,352.0,-19.0,5.0,1.0,140,111,90,117,121
2025-02-26 16:19:09.134,-330.0,-880.0,405.0,-12.0,11.0,1.0,141,113,93,119,122
2025-02-26 16:19:09.138,-329.0,-876.0,321.0,0.0,2.0,1.0,141,109,93,119,123
2025-02-26 16:19:09.142,-358.0,-898.0,347.0,7.0,0.0,1.0,140,112,92,118,122
2025-02-26 16:19:09.150,-339.0,-874.0,381.0,14.0,0.0,0.0,142,112,92,121,121
2025-02-26 16:19:09.154,-343.0,-882.0,352.0,15.0,-3.0,0.0,142,112,92,119,121
2025-02-26 16:19:09.158,-347.0,-887.0,321.0,9.0,-5.0,0.0,140,113,91,119,122
2025-02-26 16:19:09.163,-334.0,-872.0,360.0,10.0,-4.0,0.0,140,112,92,119,122
2025-02-26 16:19:09.171,-326.0,-883.0,351.0,9.0,-6.0,0.0,141,112,96,117,121
2025-02-26 16:19:09.175,-314.0,-881.0,387.0,13.0,-2.0,0.0,141,112,94,117,121
2025-02-26 16:19:09.179,-316.0,-868.0,381.0,3.0,2.0,-1.0,140,111,93,118,123
2025-02-26 16:19:09.183,-318.0,-890.0,290.0,5.0,-3.0,0.0,141,112,93,118,121
2025-02-26 16:19:09.188,-327.0,-879.0,389.0,2.0,1.0,-1.0,144,113,92,115,121
2025-02-26 16:19:09.195,-305.0,-874.0,380.0,-3.0,4.0,-2.0,141,112,91,118,122
2025-02-26 16:19:09.200,-295.0,-871.0,310.0,-2.0,0.0,-2.0,141,113,93,119,122
2025-02-26 16:19:09.204,-299.0,-894.0,370.0,-3.0,0.0,-1.0,141,113,92,118,122
2025-02-26 16:19:09.206,-322.0,-884.0,369.0,-4.0,2.0,-2.0,138,111,91,117,121
2025-02-26 16:19:09.216,-286.0,-850.0,369.0,4.0,-2.0,-1.0,141,110,91,119,122
2025-02-26 16:19:09.218,-280.0,-856.0,396.0,3.0,0.0,-1.0,141,111,95,119,122
2025-02-26 16:19:09.225,-278.0,-868.0,361.0,6.0,-3.0,-1.0,140,112,92,118,119
2025-02-26 16:19:09.229,-288.0,-880.0,348.0,10.0,-5.0,-1.0,139,112,92,118,121
2025-02-26 16:19:09.233,-291.0,-881.0,420.0,1.0,1.0,-1.0,140,112,92,119,121
2025-02-26 16:19:09.240,-271.0,-872.0,312.0,6.0,-8.0,0.0,140,111,93,119,122
2025-02-26 16:19:09.244,-302.0,-883.0,383.0,4.0,-8.0,-1.0,140,113,93,118,121
2025-02-26 16:19:09.249,-274.0,-877.0,410.0,6.0,-2.0,-1.0,142,115,92,118,119
2025-02-26 16:19:09.253,-284.0,-867.0,341.0,7.0,-6.0,0.0,141,111,93,119,122
2025-02-26 16:19:09.261,-297.0,-868.0,379.0,6.0,-5.0,0.0,140,112,92,119,123
2025-02-26 16:19:09.265,-266.0,-859.0,385.0,11.0,-4.0,-1.0,140,112,91,119,122
2025-02-26 16:19:09.270,-314.0,-890.0,365.0,6.0,-6.0,0.0,145,112,92,117,125
2025-02-26 16:19:09.273,-288.0,-846.0,387.0,0.0,-3.0,-1.0,141,112,93,118,122
2025-02-26 16:19:09.278,-271.0,-866.0,353.0,1.0,-4.0,-1.0,140,113,92,118,121
2025-02-26 16:19:09.286,-313.0,-880.0,392.0,1.0,-4.0,0.0,141,113,93,118,121
2025-02-26 16:19:09.290,-288.0,-865.0,399.0,4.0,-4.0,-1.0,141,112,91,119,121
2025-02-26 16:19:09.294,-303.0,-884.0,372.0,7.0,-5.0,-1.0,140,111,92,118,121
2025-02-26 16:19:09.298,-300.0,-878.0,373.0,3.0,-3.0,-1.0,141,112,93,117,123
2025-02-26 16:19:09.306,-304.0,-862.0,371.0,7.0,-5.0,-1.0,141,112,92,118,121
2025-02-26 16:19:09.310,-306.0,-883.0,398.0,7.0,-7.0,-1.0,141,111,91,115,122
2025-02-26 16:19:09.314,-324.0,-861.0,405.0,4.0,-4.0,-2.0,139,112,92,117,121
2025-02-26 16:19:09.318,-302.0,-873.0,377.0,9.0,-9.0,-1.0,141,112,92,118,123
2025-02-26 16:19:09.327,-336.0,-880.0,412.0,9.0,-7.0,-2.0,140,112,92,120,122
2025-02-26 16:19:09.330,-308.0,-834.0,416.0,5.0,-6.0,-2.0,137,111,92,123,122
2025-02-26 16:19:09.335,-312.0,-868.0,380.0,3.0,-6.0,-2.0,142,111,92,118,122
2025-02-26 16:19:09.339,-317.0,-858.0,378.0,3.0,-8.0,-2.0,141,112,93,119,122
2025-02-26 16:19:09.347,-331.0,-881.0,424.0,7.0,-7.0,-3.0,140,111,92,119,122
2025-02-26 16:19:09.351,-317.0,-875.0,406.0,8.0,-6.0,-3.0,140,110,94,118,121
2025-02-26 16:19:09.355,-331.0,-884.0,396.0,7.0,-7.0,-2.0,140,113,94,118,122
2025-02-26 16:19:09.359,-317.0,-891.0,387.0,7.0,-8.0,-2.0,141,111,92,119,123
2025-02-26 16:19:09.367,-313.0,-884.0,424.0,6.0,-6.0,-2.0,141,111,91,118,122
2025-02-26 16:19:09.372,-311.0,-880.0,423.0,8.0,-5.0,-2.0,140,113,93,118,121
2025-02-26 16:19:09.374,-316.0,-891.0,398.0,9.0,-6.0,-2.0,140,112,93,119,121
2025-02-26 16:19:09.380,-332.0,-903.0,396.0,9.0,-6.0,-2.0,141,111,92,118,121
2025-02-26 16:19:09.384,-321.0,-896.0,410.0,7.0,-5.0,-1.0,140,112,91,117,121
2025-02-26 16:19:09.392,-324.0,-892.0,406.0,7.0,-4.0,-1.0,140,113,92,119,122
2025-02-26 16:19:09.396,-330.0,-896.0,381.0,8.0,-6.0,-1.0,140,113,91,118,122
2025-02-26 16:19:09.401,-330.0,-890.0,421.0,8.0,-5.0,-2.0,141,112,92,119,121
2025-02-26 16:19:09.405,-332.0,-892.0,406.0,6.0,-4.0,-2.0,141,113,93,119,122
2025-02-26 16:19:09.413,-343.0,-898.0,381.0,7.0,-6.0,-2.0,140,112,92,117,121
2025-02-26 16:19:09.417,-338.0,-898.0,411.0,7.0,-6.0,-2.0,139,112,92,118,122
2025-02-26 16:19:09.421,-338.0,-900.0,401.0,10.0,-6.0,-2.0,140,112,92,119,122
2025-02-26 16:19:09.425,-348.0,-906.0,398.0,8.0,-8.0,-2.0,140,113,94,119,122
2025-02-26 16:19:09.433,-339.0,-904.0,413.0,8.0,-7.0,-2.0,140,112,92,118,121
2025-02-26 16:19:09.436,-334.0,-911.0,421.0,7.0,-7.0,-2.0,141,115,93,118,123
2025-02-26 16:19:09.442,-340.0,-909.0,407.0,4.0,-7.0,-2.0,141,113,93,118,123
2025-02-26 16:19:09.446,-332.0,-908.0,417.0,4.0,-6.0,-1.0,140,112,92,118,122
2025-02-26 16:19:09.453,-336.0,-905.0,423.0,3.0,-6.0,-1.0,140,112,92,117,121
2025-02-26 16:19:09.458,-330.0,-905.0,430.0,2.0,-4.0,0.0,142,113,92,118,122
2025-02-26 16:19:09.462,-326.0,-910.0,423.0,2.0,-4.0,0.0,142,113,93,119,122
2025-02-26 16:19:09.466,-329.0,-902.0,435.0,2.0,-2.0,0.0,141,112,91,118,121
2025-02-26 16:19:09.470,-327.0,-906.0,427.0,3.0,-1.0,0.0,139,111,92,119,121
2025-02-26 16:19:09.478,-329.0,-911.0,437.0,3.0,0.0,0.0,142,113,93,120,123
2025-02-26 16:19:09.482,-327.0,-905.0,430.0,3.0,0.0,0.0,141,112,92,118,121
2025-02-26 16:19:09.484,-318.0,-904.0,419.0,4.0,0.0,1.0,140,111,91,118,122
2025-02-26 16:19:09.491,-325.0,-919.0,436.0,6.0,0.0,1.0,142,113,92,118,120
2025-02-26 16:19:09.495,-337.0,-911.0,439.0,6.0,0.0,1.0,142,112,92,117,121
2025-02-26 16:19:09.503,-327.0,-907.0,437.0,7.0,4.0,1.0,141,113,93,119,122
2025-02-26 16:19:09.507,-336.0,-915.0,416.0,9.0,1.0,2.0,140,112,92,119,122
2025-02-26 16:19:09.511,-333.0,-910.0,439.0,9.0,2.0,2.0,141,113,91,119,121
2025-02-26 16:19:09.515,-327.0,-900.0,424.0,8.0,1.0,2.0,141,112,93,119,122
2025-02-26 16:19:09.519,-332.0,-909.0,427.0,7.0,1.0,2.0,140,112,92,120,123
2025-02-26 16:19:09.526,-327.0,-901.0,438.0,8.0,1.0,2.0,141,112,92,117,121
2025-02-26 16:19:09.531,-320.0,-903.0,431.0,9.0,2.0,2.0,141,112,93,119,122
2025-02-26 16:19:09.535,-325.0,-907.0,436.0,10.0,1.0,1.0,141,113,93,118,122
2025-02-26 16:19:09.538,-323.0,-902.0,428.0,10.0,0.0,2.0,141,109,91,118,117
2025-02-26 16:19:09.544,-327.0,-899.0,431.0,8.0,0.0,2.0,141,111,92,118,122
2025-02-26 16:19:09.552,-324.0,-892.0,423.0,7.0,0.0,2.0,140,112,95,120,123
2025-02-26 16:19:09.556,-322.0,-903.0,424.0,7.0,0.0,3.0,139,111,93,118,122
2025-02-26 16:19:09.557,-322.0,-897.0,424.0,9.0,1.0,2.0,141,112,98,120,123
2025-02-26 16:19:09.564,-323.0,-902.0,398.0,7.0,-3.0,3.0,140,112,92,118,122
2025-02-26 16:19:09.568,-333.0,-896.0,453.0,5.0,-1.0,3.0,140,112,92,118,121
2025-02-26 16:19:09.577,-310.0,-890.0,443.0,9.0,3.0,4.0,140,112,93,119,121
2025-02-26 16:19:09.581,-321.0,-895.0,395.0,8.0,-1.0,4.0,140,114,90,119,122
2025-02-26 16:19:09.585,-325.0,-900.0,438.0,6.0,1.0,5.0,139,112,92,119,121
2025-02-26 16:19:09.589,-316.0,-899.0,457.0,-1.0,5.0,5.0,140,113,91,118,121
2025-02-26 16:19:09.594,-319.0,-880.0,404.0,-2.0,5.0,4.0,140,111,92,118,122
2025-02-26 16:19:09.600,-327.0,-885.0,443.0,-3.0,5.0,4.0,138,112,92,119,121
2025-02-26 16:19:09.605,-280.0,-880.0,453.0,1.0,7.0,4.0,140,111,91,120,122
2025-02-26 16:19:09.610,-318.0,-882.0,441.0,1.0,8.0,4.0,139,112,93,118,121
2025-02-26 16:19:09.614,-317.0,-887.0,382.0,0.0,5.0,5.0,139,112,93,120,121
2025-02-26 16:19:09.618,-315.0,-886.0,441.0,0.0,5.0,5.0,142,111,92,118,122
2025-02-26 16:19:09.625,-331.0,-890.0,447.0,0.0,5.0,6.0,140,112,92,119,122
2025-02-26 16:19:09.630,-316.0,-879.0,422.0,1.0,4.0,6.0,140,111,92,119,121
2025-02-26 16:19:09.634,-305.0,-879.0,413.0,4.0,3.0,5.0,141,111,93,118,122
2025-02-26 16:19:09.638,-308.0,-886.0,427.0,5.0,3.0,5.0,140,112,93,118,122
2025-02-26 16:19:09.642,-318.0,-882.0,423.0,7.0,3.0,5.0,139,112,93,120,121
2025-02-26 16:19:09.646,-315.0,-878.0,427.0,9.0,2.0,5.0,140,112,92,119,122
2025-02-26 16:19:09.654,-318.0,-876.0,430.0,10.0,2.0,5.0,140,112,92,119,122
2025-02-26 16:19:09.658,-317.0,-863.0,436.0,9.0,2.0,5.0,140,112,91,119,121
2025-02-26 16:19:09.660,-306.0,-868.0,439.0,11.0,3.0,4.0,140,112,93,119,122
2025-02-26 16:19:09.667,-316.0,-856.0,427.0,11.0,4.0,4.0,141,111,92,118,122
2025-02-26 16:19:09.672,-312.0,-856.0,439.0,12.0,4.0,5.0,141,111,92,118,121
2025-02-26 16:19:09.679,-319.0,-853.0,435.0,12.0,6.0,5.0,142,112,93,119,123
2025-02-26 16:19:09.683,-323.0,-848.0,438.0,11.0,6.0,6.0,140,111,92,118,121
2025-02-26 16:19:09.688,-320.0,-849.0,434.0,10.0,6.0,6.0,140,111,91,119,121
2025-02-26 16:19:09.694,-313.0,-846.0,450.0,8.0,8.0,7.0,142,112,92,118,122
2025-02-26 16:19:09.695,-316.0,-842.0,438.0,9.0,9.0,7.0,141,112,92,119,122
2025-02-26 16:19:09.701,-322.0,-844.0,447.0,9.0,9.0,7.0,140,112,91,118,120
2025-02-26 16:19:09.707,-321.0,-840.0,446.0,10.0,9.0,7.0,141,112,92,118,121
2025-02-26 16:19:09.712,-328.0,-833.0,446.0,10.0,8.0,7.0,141,112,91,118,121
2025-02-26 16:19:09.713,-330.0,-825.0,441.0,11.0,8.0,6.0,140,112,92,119,122
2025-02-26 16:19:09.724,-331.0,-827.0,433.0,12.0,6.0,7.0,140,111,93,118,122
2025-02-26 16:19:09.725,-333.0,-812.0,432.0,12.0,6.0,6.0,141,113,93,118,122
2025-02-26 16:19:09.731,-335.0,-810.0,426.0,12.0,5.0,6.0,141,111,91,119,121
2025-02-26 16:19:09.736,-333.0,-805.0,422.0,12.0,4.0,5.0,141,113,93,120,122
2025-02-26 16:19:09.741,-339.0,-801.0,434.0,12.0,4.0,5.0,140,112,93,119,122
2025-02-26 16:19:09.748,-340.0,-798.0,434.0,12.0,4.0,3.0,141,110,90,117,121
2025-02-26 16:19:09.753,-346.0,-792.0,429.0,13.0,4.0,3.0,141,111,91,118,122
2025-02-26 16:19:09.757,-345.0,-784.0,425.0,12.0,3.0,1.0,140,114,94,120,123
2025-02-26 16:19:09.761,-355.0,-792.0,406.0,14.0,0.0,1.0,140,111,91,117,121
2025-02-26 16:19:09.768,-360.0,-794.0,455.0,10.0,3.0,0.0,140,112,92,119,122
2025-02-26 16:19:09.773,-342.0,-775.0,428.0,13.0,1.0,-1.0,141,112,93,118,121
2025-02-26 16:19:09.777,-357.0,-794.0,431.0,14.0,0.0,-2.0,141,113,92,120,121
2025-02-26 16:19:09.781,-348.0,-790.0,453.0,14.0,0.0,-3.0,140,111,92,119,122
2025-02-26 16:19:09.786,-347.0,-780.0,432.0,12.0,0.0,-3.0,140,112,90,118,122
2025-02-26 16:19:09.793,-350.0,-792.0,432.0,11.0,-1.0,-4.0,141,112,92,119,120
2025-02-26 16:19:09.798,-350.0,-791.0,443.0,11.0,-2.0,-4.0,142,112,92,118,122
2025-02-26 16:19:09.801,-338.0,-798.0,452.0,13.0,-2.0,-4.0,141,112,92,119,122
2025-02-26 16:19:09.806,-337.0,-792.0,465.0,13.0,0.0,-5.0,141,110,93,119,122
2025-02-26 16:19:09.812,-337.0,-790.0,448.0,13.0,-1.0,-5.0,141,110,92,118,120
2025-02-26 16:19:09.818,-338.0,-796.0,460.0,14.0,-1.0,-6.0,142,112,93,118,121
2025-02-26 16:19:09.822,-337.0,-799.0,464.0,13.0,-1.0,-6.0,141,112,93,120,123
2025-02-26 16:19:09.830,-335.0,-797.0,464.0,11.0,-1.0,-6.0,141,112,93,118,121
2025-02-26 16:19:09.834,-341.0,-799.0,457.0,11.0,-1.0,-7.0,140,112,92,120,121
2025-02-26 16:19:09.836,-340.0,-807.0,460.0,10.0,-2.0,-7.0,142,111,91,119,121
2025-02-26 16:19:09.843,-341.0,-809.0,462.0,9.0,-2.0,-7.0,141,112,92,118,121
2025-02-26 16:19:09.847,-345.0,-814.0,460.0,8.0,-2.0,-8.0,141,113,92,117,121
2025-02-26 16:19:09.854,-346.0,-821.0,465.0,6.0,-2.0,-8.0,140,110,91,117,121
2025-02-26 16:19:09.859,-347.0,-819.0,468.0,5.0,-2.0,-8.0,141,113,94,119,121
2025-02-26 16:19:09.864,-348.0,-829.0,467.0,3.0,-3.0,-8.0,141,112,95,119,122
2025-02-26 16:19:09.868,-340.0,-832.0,463.0,3.0,-4.0,-8.0,140,111,92,118,121
2025-02-26 16:19:09.875,-343.0,-839.0,467.0,1.0,-4.0,-7.0,139,111,91,119,120
2025-02-26 16:19:09.880,-338.0,-836.0,472.0,2.0,-4.0,-7.0,141,113,93,118,121
2025-02-26 16:19:09.884,-335.0,-848.0,467.0,2.0,-5.0,-7.0,140,112,92,118,121
2025-02-26 16:19:09.888,-335.0,-852.0,471.0,2.0,-5.0,-7.0,138,111,91,118,121
2025-02-26 16:19:09.895,-333.0,-853.0,475.0,2.0,-5.0,-6.0,141,112,93,119,121
2025-02-26 16:19:09.900,-334.0,-858.0,480.0,3.0,-5.0,-6.0,141,111,92,120,122
2025-02-26 16:19:09.904,-330.0,-859.0,484.0,3.0,-5.0,-6.0,140,112,91,117,121
2025-02-26 16:19:09.909,-330.0,-865.0,487.0,3.0,-5.0,-6.0,140,111,91,119,120
2025-02-26 16:19:09.916,-326.0,-860.0,489.0,2.0,-4.0,-6.0,139,111,92,120,122
2025-02-26 16:19:09.920,-327.0,-864.0,487.0,2.0,-4.0,-6.0,140,111,92,118,121
2025-02-26 16:19:09.925,-328.0,-871.0,487.0,3.0,-4.0,-6.0,141,111,93,119,121
2025-02-26 16:19:09.930,-331.0,-869.0,489.0,2.0,-3.0,-7.0,140,110,94,118,120
2025-02-26 16:19:09.933,-328.0,-868.0,492.0,2.0,-2.0,-7.0,137,111,91,119,126
2025-02-26 16:19:09.940,-326.0,-874.0,490.0,2.0,-2.0,-6.0,138,111,93,119,121
2025-02-26 16:19:09.945,-333.0,-872.0,489.0,2.0,-1.0,-6.0,140,112,91,117,121
2025-02-26 16:19:09.949,-326.0,-875.0,492.0,2.0,-1.0,-6.0,141,111,91,119,121
2025-02-26 16:19:09.953,-327.0,-875.0,491.0,2.0,-1.0,-5.0,141,112,93,118,121
2025-02-26 16:19:09.961,-322.0,-888.0,473.0,2.0,0.0,-5.0,139,111,92,118,121
2025-02-26 16:19:09.964,-330.0,-876.0,501.0,-1.0,0.0,-5.0,141,111,91,118,121
2025-02-26 16:19:09.970,-313.0,-879.0,523.0,0.0,0.0,-5.0,144,113,93,121,121
2025-02-26 16:19:09.974,-325.0,-874.0,486.0,3.0,0.0,-5.0,141,111,91,119,121
2025-02-26 16:19:09.981,-320.0,-859.0,484.0,-1.0,2.0,-4.0,140,112,94,119,122
2025-02-26 16:19:09.986,-326.0,-868.0,445.0,-2.0,-1.0,-4.0,140,112,92,119,121
2025-02-26 16:19:09.990,-319.0,-875.0,479.0,-3.0,0.0,-3.0,145,112,92,120,121
2025-02-26 16:19:09.994,-318.0,-871.0,487.0,-2.0,-1.0,-3.0,140,112,92,119,121
2025-02-26 16:19:09.999,-312.0,-869.0,487.0,0.0,-1.0,-3.0,140,112,90,119,121
2025-02-26 16:19:10.006,-325.0,-867.0,472.0,0.0,-1.0,-2.0,140,111,92,118,121
2025-02-26 16:19:10.010,-327.0,-870.0,455.0,0.0,-2.0,-2.0,140,111,91,119,120
2025-02-26 16:19:10.015,-315.0,-870.0,480.0,0.0,-2.0,-2.0,141,113,91,118,121
2025-02-26 16:19:10.020,-315.0,-863.0,468.0,-1.0,-1.0,-2.0,140,112,92,118,122
2025-02-26 16:19:10.027,-319.0,-865.0,466.0,-1.0,-1.0,-2.0,141,112,91,118,122
2025-02-26 16:19:10.032,-319.0,-860.0,476.0,0.0,-2.0,-1.0,138,111,93,117,121
2025-02-26 16:19:10.036,-312.0,-857.0,468.0,0.0,0.0,-2.0,140,110,91,119,121
2025-02-26 16:19:10.040,-317.0,-857.0,462.0,0.0,0.0,-2.0,141,111,90,119,121
2025-02-26 16:19:10.047,-321.0,-857.0,454.0,-1.0,-1.0,-2.0,140,111,92,119,122
2025-02-26 16:19:10.051,-313.0,-847.0,469.0,-1.0,0.0,-2.0,140,110,92,119,121
2025-02-26 16:19:10.054,-321.0,-851.0,463.0,-1.0,0.0,-2.0,142,112,93,120,121
2025-02-26 16:19:10.059,-319.0,-850.0,460.0,0.0,0.0,-2.0,140,111,93,118,122
2025-02-26 16:19:10.068,-316.0,-845.0,451.0,1.0,-1.0,-2.0,140,112,92,118,120
2025-02-26 16:19:10.072,-314.0,-846.0,458.0,2.0,-1.0,-2.0,140,112,93,117,122
2025-02-26 16:19:10.077,-309.0,-838.0,457.0,3.0,-1.0,-2.0,141,111,91,118,119
2025-02-26 16:19:10.079,-314.0,-833.0,456.0,4.0,-1.0,-3.0,139,112,93,118,121
2025-02-26 16:19:10.085,-317.0,-831.0,449.0,5.0,-2.0,-3.0,140,111,93,118,121
2025-02-26 16:19:10.091,-313.0,-822.0,454.0,7.0,-2.0,-3.0,140,111,92,119,122
2025-02-26 16:19:10.097,-318.0,-822.0,456.0,7.0,-3.0,-4.0,140,111,91,120,122
2025-02-26 16:19:10.101,-315.0,-825.0,448.0,8.0,-3.0,-4.0,140,114,91,119,121
2025-02-26 16:19:10.105,-316.0,-819.0,448.0,10.0,-4.0,-4.0,139,112,93,119,121
2025-02-26 16:19:10.113,-325.0,-813.0,444.0,11.0,-4.0,-5.0,141,112,91,120,120
2025-02-26 16:19:10.118,-317.0,-809.0,458.0,13.0,-4.0,-5.0,140,112,92,119,121
2025-02-26 16:19:10.122,-320.0,-811.0,438.0,13.0,-4.0,-6.0,140,110,92,120,121
2025-02-26 16:19:10.126,-316.0,-813.0,452.0,13.0,-3.0,-6.0,141,111,91,119,121
2025-02-26 16:19:10.133,-325.0,-802.0,456.0,14.0,-3.0,-7.0,141,115,93,118,122
2025-02-26 16:19:10.137,-322.0,-803.0,465.0,14.0,-3.0,-7.0,141,111,93,118,121
2025-02-26 16:19:10.142,-332.0,-802.0,460.0,14.0,-2.0,-8.0,142,113,92,119,121
2025-02-26 16:19:10.146,-334.0,-792.0,462.0,14.0,-2.0,-8.0,142,113,92,118,120
2025-02-26 16:19:10.159,-335.0,-786.0,471.0,15.0,-2.0,-9.0,140,111,92,118,121
2025-02-26 16:19:10.161,-340.0,-785.0,454.0,13.0,-4.0,-10.0,138,111,91,119,121
2025-02-26 16:19:10.162,-345.0,-778.0,452.0,11.0,-1.0,-11.0,141,112,92,118,122
2025-02-26 16:19:10.170,-339.0,-791.0,468.0,19.0,-4.0,-13.0,140,111,92,119,121
2025-02-26 16:19:10.174,-364.0,-807.0,491.0,16.0,-4.0,-15.0,141,111,92,120,121
2025-02-26 16:19:10.179,-348.0,-777.0,454.0,16.0,-4.0,-18.0,139,112,92,119,121
2025-02-26 16:19:10.183,-345.0,-782.0,492.0,22.0,-6.0,-19.0,142,110,91,118,120
2025-02-26 16:19:10.191,-340.0,-808.0,506.0,27.0,-5.0,-22.0,140,112,93,118,120
2025-02-26 16:19:10.195,-338.0,-807.0,491.0,31.0,-2.0,-25.0,141,112,92,119,121
2025-02-26 16:19:10.200,-333.0,-791.0,516.0,31.0,0.0,-28.0,145,111,93,122,121
2025-02-26 16:19:10.203,-329.0,-782.0,495.0,33.0,1.0,-28.0,140,110,93,118,119
2025-02-26 16:19:10.211,-320.0,-765.0,512.0,33.0,2.0,-29.0,141,111,91,119,120
2025-02-26 16:19:10.215,-318.0,-764.0,546.0,33.0,5.0,-29.0,141,110,92,118,120
2025-02-26 16:19:10.220,-331.0,-756.0,582.0,35.0,8.0,-30.0,141,110,91,118,119
2025-02-26 16:19:10.228,-308.0,-770.0,539.0,34.0,11.0,-29.0,141,111,90,118,120
2025-02-26 16:19:10.232,-331.0,-787.0,576.0,26.0,13.0,-28.0,140,109,92,119,120
2025-02-26 16:19:10.236,-314.0,-783.0,548.0,25.0,10.0,-28.0,140,108,93,120,120
2025-02-26 16:19:10.240,-317.0,-789.0,554.0,18.0,12.0,-28.0,139,109,91,117,120
2025-02-26 16:19:10.248,-302.0,-792.0,539.0,19.0,9.0,-28.0,140,109,91,118,120
2025-02-26 16:19:10.252,-307.0,-820.0,559.0,12.0,8.0,-27.0,139,108,92,118,120
2025-02-26 16:19:10.254,-287.0,-811.0,542.0,10.0,7.0,-28.0,141,109,92,119,120
2025-02-26 16:19:10.261,-291.0,-824.0,550.0,11.0,5.0,-26.0,141,108,91,119,120
2025-02-26 16:19:10.269,-304.0,-844.0,537.0,5.0,4.0,-26.0,141,106,91,119,120
2025-02-26 16:19:10.273,-282.0,-850.0,524.0,2.0,1.0,-25.0,142,106,92,119,120
2025-02-26 16:19:10.276,-276.0,-868.0,534.0,0.0,-1.0,-22.0,142,109,92,119,120
2025-02-26 16:19:10.282,-284.0,-878.0,538.0,-7.0,-1.0,-20.0,139,108,92,118,120
2025-02-26 16:19:10.289,-252.0,-877.0,541.0,-7.0,-2.0,-18.0,141,107,92,119,120
2025-02-26 16:19:10.294,-251.0,-895.0,544.0,-10.0,-3.0,-16.0,142,108,92,119,119
2025-02-26 16:19:10.297,-233.0,-890.0,545.0,-11.0,-2.0,-14.0,140,108,93,120,120
2025-02-26 16:19:10.304,-230.0,-896.0,554.0,-12.0,-2.0,-11.0,140,107,91,118,119
2025-02-26 16:19:10.309,-227.0,-901.0,547.0,-14.0,-2.0,-11.0,143,107,91,118,119
2025-02-26 16:19:10.314,-217.0,-897.0,541.0,-14.0,-2.0,-8.0,140,108,92,118,120
2025-02-26 16:19:10.318,-231.0,-890.0,534.0,-19.0,-2.0,-6.0,140,109,94,118,120
2025-02-26 16:19:10.326,-208.0,-891.0,570.0,-18.0,-1.0,-4.0,141,107,91,118,119
2025-02-26 16:19:10.330,-227.0,-919.0,527.0,-14.0,-3.0,-2.0,140,107,93,118,119
2025-02-26 16:19:10.333,-236.0,-934.0,531.0,-20.0,-1.0,-1.0,140,107,92,119,120
2025-02-26 16:19:10.339,-210.0,-883.0,549.0,-16.0,0.0,0.0,141,109,93,119,120
2025-02-26 16:19:10.347,-225.0,-926.0,545.0,-13.0,-2.0,1.0,140,107,92,118,120
2025-02-26 16:19:10.351,-245.0,-891.0,533.0,-8.0,-1.0,2.0,139,106,92,116,119
2025-02-26 16:19:10.354,-243.0,-894.0,515.0,-9.0,-1.0,3.0,141,107,92,118,120
2025-02-26 16:19:10.358,-233.0,-882.0,498.0,-8.0,0.0,3.0,139,107,93,120,120
2025-02-26 16:19:10.366,-235.0,-894.0,495.0,-4.0,-3.0,3.0,141,106,91,119,119
2025-02-26 16:19:10.371,-266.0,-886.0,552.0,-2.0,0.0,3.0,139,106,97,117,119
2025-02-26 16:19:10.375,-254.0,-858.0,518.0,0.0,1.0,2.0,139,108,92,118,120
2025-02-26 16:19:10.380,-269.0,-859.0,508.0,1.0,1.0,2.0,139,107,91,119,120
2025-02-26 16:19:10.383,-272.0,-854.0,512.0,2.0,0.0,2.0,139,107,92,118,119
2025-02-26 16:19:10.391,-270.0,-846.0,511.0,1.0,0.0,2.0,140,104,91,118,118
2025-02-26 16:19:10.396,-276.0,-837.0,509.0,2.0,0.0,2.0,140,107,91,117,119
2025-02-26 16:19:10.399,-272.0,-834.0,501.0,3.0,-1.0,2.0,140,109,91,118,120
2025-02-26 16:19:10.404,-286.0,-834.0,518.0,3.0,-1.0,2.0,140,107,93,119,120
2025-02-26 16:19:10.408,-282.0,-833.0,505.0,2.0,-2.0,2.0,140,107,90,117,121
2025-02-26 16:19:10.416,-287.0,-834.0,496.0,2.0,-2.0,2.0,139,106,91,117,119
2025-02-26 16:19:10.418,-284.0,-832.0,501.0,0.0,-2.0,1.0,141,108,92,119,121
2025-02-26 16:19:10.424,-289.0,-836.0,507.0,-1.0,-2.0,1.0,141,108,91,118,121
2025-02-26 16:19:10.429,-293.0,-841.0,519.0,-1.0,-2.0,0.0,140,107,90,117,119
2025-02-26 16:19:10.437,-287.0,-836.0,503.0,-2.0,-2.0,0.0,141,108,91,118,120
2025-02-26 16:19:10.441,-286.0,-844.0,503.0,-3.0,-3.0,0.0,141,107,93,121,120
2025-02-26 16:19:10.445,-285.0,-837.0,513.0,-4.0,-3.0,-1.0,140,107,91,116,119
2025-02-26 16:19:10.448,-276.0,-838.0,521.0,-4.0,-3.0,-1.0,140,110,91,117,121
2025-02-26 16:19:10.457,-278.0,-841.0,527.0,-3.0,-3.0,-1.0,141,107,91,118,120
2025-02-26 16:19:10.461,-271.0,-843.0,530.0,-3.0,-3.0,-1.0,146,109,92,112,120
2025-02-26 16:19:10.465,-274.0,-843.0,520.0,-3.0,-2.0,-1.0,140,108,91,119,120
2025-02-26 16:19:10.470,-265.0,-836.0,514.0,-4.0,-1.0,-1.0,141,108,92,119,119
2025-02-26 16:19:10.478,-271.0,-839.0,525.0,-3.0,0.0,-2.0,140,108,92,117,120
2025-02-26 16:19:10.481,-273.0,-840.0,527.0,-3.0,0.0,-2.0,140,108,91,116,120
2025-02-26 16:19:10.486,-277.0,-840.0,518.0,-3.0,1.0,-2.0,140,108,91,120,119
2025-02-26 16:19:10.490,-286.0,-838.0,512.0,-2.0,2.0,-2.0,140,105,92,119,116
2025-02-26 16:19:10.498,-285.0,-843.0,516.0,-2.0,1.0,-2.0,140,109,92,118,120
2025-02-26 16:19:10.502,-294.0,-850.0,518.0,-2.0,1.0,-2.0,140,108,98,118,120
2025-02-26 16:19:10.506,-282.0,-834.0,537.0,-2.0,2.0,-2.0,141,109,91,118,120
2025-02-26 16:19:10.510,-290.0,-849.0,521.0,-1.0,2.0,-2.0,143,108,91,120,120
2025-02-26 16:19:10.515,-287.0,-849.0,523.0,-2.0,1.0,-2.0,138,107,91,118,119
2025-02-26 16:19:10.522,-281.0,-842.0,494.0,-1.0,1.0,-2.0,139,107,92,118,120
2025-02-26 16:19:10.526,-285.0,-850.0,520.0,-2.0,1.0,-2.0,139,108,93,116,121
2025-02-26 16:19:10.531,-280.0,-846.0,511.0,-1.0,0.0,-2.0,139,107,92,119,120
2025-02-26 16:19:10.535,-272.0,-834.0,528.0,0.0,0.0,-2.0,140,109,91,118,119
2025-02-26 16:19:10.543,-273.0,-849.0,510.0,0.0,1.0,-2.0,139,108,91,117,121
2025-02-26 16:19:10.547,-276.0,-858.0,513.0,2.0,0.0,-1.0,140,107,92,119,119
2025-02-26 16:19:10.552,-288.0,-845.0,533.0,-1.0,1.0,-1.0,138,108,91,117,120
2025-02-26 16:19:10.556,-264.0,-836.0,509.0,-1.0,0.0,0.0,140,108,94,119,120
2025-02-26 16:19:10.560,-264.0,-848.0,526.0,-2.0,2.0,-1.0,141,110,93,117,120
2025-02-26 16:19:10.568,-268.0,-839.0,509.0,-2.0,2.0,-1.0,140,108,91,118,119
2025-02-26 16:19:10.572,-265.0,-849.0,504.0,-2.0,2.0,-1.0,139,107,91,117,119
2025-02-26 16:19:10.576,-274.0,-852.0,515.0,-2.0,2.0,0.0,141,108,93,119,119
2025-02-26 16:19:10.581,-282.0,-862.0,517.0,-4.0,2.0,0.0,139,107,92,120,120
2025-02-26 16:19:10.588,-271.0,-849.0,509.0,-6.0,1.0,0.0,139,108,91,118,119
2025-02-26 16:19:10.592,-275.0,-853.0,512.0,-5.0,0.0,0.0,139,108,92,118,119
2025-02-26 16:19:10.597,-283.0,-852.0,527.0,-6.0,0.0,0.0,141,107,91,118,120
2025-02-26 16:19:10.600,-274.0,-846.0,496.0,-6.0,-1.0,0.0,139,107,92,119,120
2025-02-26 16:19:10.605,-274.0,-845.0,497.0,-7.0,-1.0,0.0,140,108,92,118,120
2025-02-26 16:19:10.611,-283.0,-851.0,473.0,-8.0,-4.0,1.0,141,107,91,118,119
2025-02-26 16:19:10.617,-281.0,-838.0,501.0,-8.0,-3.0,1.0,141,108,92,118,118
2025-02-26 16:19:10.621,-258.0,-836.0,508.0,-5.0,-2.0,1.0,137,107,91,120,120
2025-02-26 16:19:10.625,-276.0,-856.0,492.0,-6.0,-1.0,1.0,140,109,92,118,120
2025-02-26 16:19:10.633,-260.0,-850.0,483.0,-5.0,-2.0,1.0,139,108,92,119,119
2025-02-26 16:19:10.637,-276.0,-845.0,488.0,-7.0,-3.0,0.0,141,109,92,118,120
2025-02-26 16:19:10.642,-266.0,-840.0,501.0,-5.0,-1.0,0.0,140,108,93,119,120
2025-02-26 16:19:10.646,-272.0,-846.0,496.0,-4.0,-1.0,0.0,141,108,93,118,120
2025-02-26 16:19:10.654,-271.0,-837.0,506.0,-3.0,0.0,0.0,139,108,91,117,120
2025-02-26 16:19:10.658,-263.0,-838.0,503.0,-1.0,2.0,-1.0,140,108,93,119,121
2025-02-26 16:19:10.662,-270.0,-843.0,500.0,2.0,2.0,-1.0,140,109,92,118,120
2025-02-26 16:19:10.666,-276.0,-842.0,501.0,0.0,3.0,-1.0,139,108,93,117,120
2025-02-26 16:19:10.671,-268.0,-831.0,483.0,1.0,2.0,-1.0,138,106,91,116,118
2025-02-26 16:19:10.678,-278.0,-829.0,519.0,0.0,3.0,-1.0,140,108,93,120,120
2025-02-26 16:19:10.682,-269.0,-825.0,508.0,2.0,3.0,-2.0,140,109,91,121,119
2025-02-26 16:19:10.684,-268.0,-828.0,493.0,3.0,2.0,-2.0,141,108,92,118,120
2025-02-26 16:19:10.690,-277.0,-825.0,498.0,6.0,1.0,-2.0,140,107,92,118,120
2025-02-26 16:19:10.698,-275.0,-840.0,495.0,6.0,0.0,-2.0,140,109,92,119,119
2025-02-26 16:19:10.703,-269.0,-813.0,494.0,5.0,0.0,-2.0,139,108,92,117,120
2025-02-26 16:19:10.707,-285.0,-812.0,481.0,5.0,-1.0,-2.0,139,109,92,118,120
2025-02-26 16:19:10.711,-292.0,-807.0,510.0,4.0,-2.0,-2.0,139,107,91,118,119
2025-02-26 16:19:10.715,-293.0,-809.0,496.0,1.0,-2.0,-2.0,140,107,91,117,118
2025-02-26 16:19:10.721,-273.0,-811.0,470.0,2.0,-4.0,-2.0,141,109,91,118,120
2025-02-26 16:19:10.727,-271.0,-819.0,470.0,3.0,-6.0,-2.0,139,109,92,116,120
2025-02-26 16:19:10.732,-267.0,-827.0,452.0,3.0,-7.0,-2.0,141,112,91,118,120
2025-02-26 16:19:10.736,-266.0,-841.0,467.0,3.0,-9.0,-2.0,139,107,92,119,119
2025-02-26 16:19:10.744,-268.0,-831.0,470.0,4.0,-9.0,-2.0,141,108,92,118,120
2025-02-26 16:19:10.748,-271.0,-831.0,478.0,5.0,-9.0,-1.0,139,109,92,118,119
2025-02-26 16:19:10.753,-280.0,-815.0,500.0,3.0,-8.0,-2.0,139,109,91,117,120
2025-02-26 16:19:10.756,-250.0,-817.0,479.0,5.0,-7.0,-2.0,140,110,93,119,121
2025-02-26 16:19:10.764,-266.0,-827.0,510.0,7.0,-8.0,-1.0,140,108,92,119,120
2025-02-26 16:19:10.769,-270.0,-797.0,482.0,1.0,-7.0,-2.0,139,108,92,117,119
2025-02-26 16:19:10.773,-253.0,-795.0,468.0,4.0,-8.0,-2.0,140,107,89,118,119
2025-02-26 16:19:10.774,-263.0,-793.0,483.0,7.0,-8.0,-4.0,141,110,93,119,120
2025-02-26 16:19:10.781,-266.0,-780.0,468.0,7.0,-6.0,-5.0,140,108,92,120,120
2025-02-26 16:19:10.788,-255.0,-779.0,440.0,9.0,-7.0,-6.0,140,108,90,117,119
2025-02-26 16:19:10.793,-258.0,-792.0,434.0,12.0,-9.0,-7.0,140,109,92,118,118
2025-02-26 16:19:10.797,-263.0,-789.0,446.0,13.0,-10.0,-9.0,141,108,93,119,118
2025-02-26 16:19:10.805,-265.0,-778.0,454.0,16.0,-9.0,-12.0,140,107,93,119,118
2025-02-26 16:19:10.809,-266.0,-782.0,459.0,20.0,-9.0,-13.0,139,107,91,118,118
2025-02-26 16:19:10.811,-290.0,-785.0,452.0,22.0,-9.0,-14.0,140,108,90,117,118
2025-02-26 16:19:10.818,-298.0,-770.0,488.0,24.0,-6.0,-16.0,141,108,93,118,118
2025-02-26 16:19:10.823,-287.0,-768.0,465.0,27.0,-7.0,-17.0,139,107,92,117,117
2025-02-26 16:19:10.830,-290.0,-805.0,434.0,31.0,-8.0,-17.0,139,105,90,114,115
2025-02-26 16:19:10.835,-285.0,-779.0,408.0,26.0,-8.0,-17.0,140,105,91,117,116
2025-02-26 16:19:10.838,-279.0,-755.0,378.0,33.0,-14.0,-18.0,139,104,90,116,116
2025-02-26 16:19:10.847,-301.0,-776.0,418.0,33.0,-16.0,-18.0,140,104,89,116,115
2025-02-26 16:19:10.850,-300.0,-765.0,412.0,32.0,-17.0,-19.0,140,103,89,116,114
2025-02-26 16:19:10.855,-298.0,-759.0,393.0,31.0,-23.0,-20.0,138,103,88,115,114
2025-02-26 16:19:10.860,-310.0,-767.0,388.0,28.0,-31.0,-22.0,138,103,87,117,115
2025-02-26 16:19:10.867,-317.0,-748.0,390.0,26.0,-37.0,-26.0,140,102,85,116,113
2025-02-26 16:19:10.871,-334.0,-727.0,418.0,23.0,-42.0,-31.0,141,100,85,114,112
2025-02-26 16:19:10.878,-328.0,-699.0,416.0,19.0,-44.0,-36.0,139,99,86,114,112
2025-02-26 16:19:10.883,-318.0,-728.0,424.0,16.0,-50.0,-38.0,141,98,84,115,109
2025-02-26 16:19:10.888,-302.0,-736.0,402.0,9.0,-49.0,-42.0,140,98,83,113,108
2025-02-26 16:19:10.890,-309.0,-756.0,406.0,7.0,-48.0,-47.0,140,97,80,113,106
2025-02-26 16:19:10.899,-325.0,-819.0,381.0,-3.0,-49.0,-50.0,140,95,81,110,105
2025-02-26 16:19:10.903,-333.0,-861.0,386.0,-16.0,-51.0,-53.0,141,93,78,108,102
2025-02-26 16:19:10.908,-338.0,-899.0,376.0,-33.0,-56.0,-57.0,140,92,77,110,101
2025-02-26 16:19:10.913,-340.0,-967.0,350.0,-52.0,-68.0,-60.0,140,88,75,108,99
2025-02-26 16:19:10.920,-371.0,-1171.0,424.0,-62.0,-84.0,-56.0,141,87,76,106,97
2025-02-26 16:19:10.924,-342.0,-1134.0,374.0,-88.0,-101.0,-53.0,140,81,74,104,94
2025-02-26 16:19:10.928,-305.0,-1223.0,562.0,-115.0,-118.0,-51.0,140,79,70,98,93
2025-02-26 16:19:10.936,-253.0,-1326.0,625.0,-152.0,-137.0,-41.0,140,76,69,98,92
2025-02-26 16:19:10.938,-204.0,-1426.0,713.0,-180.0,-157.0,-29.0,142,74,76,96,90
2025-02-26 16:19:10.945,-138.0,-1458.0,828.0,-195.0,-164.0,-20.0,141,70,65,93,89
2025-02-26 16:19:10.953,61.0,-1483.0,1049.0,-216.0,-148.0,-12.0,141,67,63,92,85
2025-02-26 16:19:10.957,90.0,-1652.0,1161.0,-217.0,-137.0,3.0,140,65,62,91,83
2025-02-26 16:19:10.961,158.0,-1698.0,1037.0,-223.0,-125.0,11.0,141,65,63,91,84
2025-02-26 16:19:10.968,286.0,-1805.0,1035.0,-224.0,-100.0,29.0,139,62,61,89,82
2025-02-26 16:19:10.973,335.0,-2045.0,1122.0,-226.0,-62.0,49.0,140,62,61,88,80
2025-02-26 16:19:10.978,381.0,-2149.0,1084.0,-228.0,-43.0,68.0,140,59,62,87,80
2025-02-26 16:19:10.982,437.0,-2176.0,1105.0,-215.0,-5.0,77.0,139,57,58,86,79
2025-02-26 16:19:10.989,446.0,-2243.0,1090.0,-203.0,37.0,97.0,140,56,57,84,78
2025-02-26 16:19:10.993,447.0,-2168.0,1024.0,-196.0,72.0,117.0,140,54,57,83,76
2025-02-26 16:19:10.999,403.0,-2090.0,869.0,-187.0,80.0,131.0,139,54,57,82,76
2025-02-26 16:19:11.003,307.0,-2026.0,882.0,-172.0,100.0,140.0,139,53,55,81,75
2025-02-26 16:19:11.010,187.0,-1871.0,835.0,-156.0,110.0,158.0,140,52,53,80,74
2025-02-26 16:19:11.014,65.0,-1628.0,692.0,-161.0,106.0,166.0,139,51,54,78,73
2025-02-26 16:19:11.018,91.0,-1525.0,657.0,-131.0,98.0,172.0,141,49,52,79,72
2025-02-26 16:19:11.023,-58.0,-1568.0,690.0,-128.0,96.0,178.0,139,48,52,76,70
2025-02-26 16:19:11.031,-87.0,-1353.0,481.0,-120.0,82.0,180.0,141,48,51,74,70
2025-02-26 16:19:11.035,-76.0,-1314.0,494.0,-121.0,72.0,181.0,140,48,50,73,68
2025-02-26 16:19:11.039,-67.0,-1252.0,502.0,-118.0,71.0,180.0,144,47,51,74,67
2025-02-26 16:19:11.043,-65.0,-1226.0,360.0,-122.0,61.0,180.0,140,47,52,73,66
2025-02-26 16:19:11.051,-62.0,-1191.0,389.0,-129.0,53.0,178.0,140,46,50,72,65
2025-02-26 16:19:11.054,-52.0,-1140.0,350.0,-123.0,49.0,179.0,139,46,49,72,65
2025-02-26 16:19:11.060,-79.0,-1151.0,477.0,-113.0,55.0,183.0,139,45,51,72,64
2025-02-26 16:19:11.064,-103.0,-1111.0,275.0,-109.0,59.0,184.0,139,45,50,71,63
2025-02-26 16:19:11.072,-135.0,-1118.0,174.0,-138.0,50.0,183.0,140,45,51,70,62
2025-02-26 16:19:11.076,-106.0,-1072.0,179.0,-150.0,55.0,186.0,140,45,50,69,62
2025-02-26 16:19:11.080,-88.0,-940.0,196.0,-156.0,54.0,188.0,139,44,48,69,61
2025-02-26 16:19:11.088,-134.0,-956.0,155.0,-153.0,49.0,188.0,139,44,49,69,60
2025-02-26 16:19:11.092,-111.0,-834.0,145.0,-164.0,49.0,188.0,141,43,48,68,59
2025-02-26 16:19:11.096,-148.0,-827.0,39.0,-167.0,44.0,187.0,141,45,46,67,59
2025-02-26 16:19:11.101,-136.0,-758.0,94.0,-177.0,50.0,184.0,134,44,47,63,59
2025-02-26 16:19:11.108,-160.0,-762.0,111.0,-177.0,46.0,183.0,140,45,48,67,59
2025-02-26 16:19:11.112,-146.0,-690.0,71.0,-181.0,44.0,179.0,140,44,49,66,58
2025-02-26 16:19:11.117,-141.0,-653.0,111.0,-185.0,47.0,173.0,140,44,47,64,57
2025-02-26 16:19:11.121,-108.0,-527.0,153.0,-195.0,49.0,172.0,140,43,47,60,56
2025-02-26 16:19:11.125,-135.0,-695.0,78.0,-184.0,51.0,174.0,140,44,46,66,56
2025-02-26 16:19:11.133,-115.0,-584.0,141.0,-177.0,47.0,171.0,139,43,46,65,55
2025-02-26 16:19:11.138,-181.0,-524.0,-34.0,-173.0,47.0,171.0,140,43,45,64,54
2025-02-26 16:19:11.141,-210.0,-535.0,-12.0,-179.0,45.0,169.0,142,44,46,65,55
2025-02-26 16:19:11.149,-270.0,-499.0,-35.0,-178.0,37.0,167.0,141,44,46,64,54
2025-02-26 16:19:11.153,-292.0,-429.0,-14.0,-170.0,34.0,166.0,139,42,45,62,54
2025-02-26 16:19:11.156,-275.0,-420.0,-43.0,-178.0,31.0,169.0,140,45,46,63,53
2025-02-26 16:19:11.162,-310.0,-436.0,-18.0,-169.0,31.0,171.0,140,44,46,64,53
2025-02-26 16:19:11.170,-337.0,-415.0,-43.0,-167.0,32.0,174.0,140,43,46,63,52
2025-02-26 16:19:11.174,-354.0,-387.0,-146.0,-159.0,24.0,181.0,140,43,45,55,53
2025-02-26 16:19:11.178,-421.0,-350.0,-156.0,-157.0,23.0,185.0,141,43,46,52,53
2025-02-26 16:19:11.182,-410.0,-356.0,-215.0,-127.0,30.0,184.0,141,44,46,63,52
2025-02-26 16:19:11.187,-428.0,-320.0,-178.0,-96.0,37.0,182.0,139,44,46,62,51
2025-02-26 16:19:11.194,-458.0,-233.0,-477.0,-82.0,13.0,180.0,140,44,46,59,51
2025-02-26 16:19:11.199,-471.0,8.0,-148.0,-78.0,9.0,175.0,141,45,46,64,50
2025-02-26 16:19:11.203,-396.0,-14.0,-244.0,-36.0,28.0,170.0,141,45,46,63,50
2025-02-26 16:19:11.205,-597.0,8.0,-218.0,-49.0,29.0,161.0,140,45,46,63,49
2025-02-26 16:19:11.215,-459.0,153.0,25.0,-60.0,40.0,157.0,139,44,44,63,50
2025-02-26 16:19:11.219,-493.0,166.0,-273.0,-74.0,42.0,152.0,140,46,47,64,50
2025-02-26 16:19:11.223,-563.0,243.0,-169.0,-94.0,40.0,143.0,140,47,45,63,49
2025-02-26 16:19:11.228,-543.0,376.0,-260.0,-74.0,34.0,130.0,140,46,46,64,49
2025-02-26 16:19:11.235,-739.0,153.0,-238.0,-70.0,23.0,124.0,139,48,47,62,52
2025-02-26 16:19:11.239,-764.0,316.0,-232.0,-54.0,11.0,106.0,139,48,47,64,48
2025-02-26 16:19:11.243,-927.0,382.0,-609.0,-41.0,-9.0,90.0,139,49,46,63,48
2025-02-26 16:19:11.248,-885.0,408.0,-322.0,-27.0,-18.0,79.0,138,50,46,56,48
2025-02-26 16:19:11.256,-906.0,548.0,-322.0,-7.0,-37.0,60.0,139,50,47,61,48
2025-02-26 16:19:11.260,-937.0,763.0,-340.0,-4.0,-48.0,41.0,138,52,48,62,49
2025-02-26 16:19:11.264,-882.0,940.0,-350.0,21.0,-54.0,14.0,137,52,48,63,49
2025-02-26 16:19:11.269,-1049.0,1050.0,-377.0,44.0,-71.0,6.0,139,54,47,64,48
2025-02-26 16:19:11.272,-1293.0,1145.0,-246.0,55.0,-79.0,-18.0,138,53,45,63,48
2025-02-26 16:19:11.281,-1286.0,1334.0,-89.0,86.0,-81.0,-43.0,139,55,48,64,48
2025-02-26 16:19:11.284,-1310.0,1453.0,4.0,118.0,-78.0,-57.0,137,54,47,64,49
2025-02-26 16:19:11.289,-1297.0,1693.0,-7.0,141.0,-71.0,-88.0,138,53,48,64,48
2025-02-26 16:19:11.292,-1134.0,1910.0,135.0,150.0,-54.0,-126.0,138,54,47,64,48
2025-02-26 16:19:11.301,-1066.0,2118.0,229.0,172.0,-43.0,-170.0,138,54,48,65,47
2025-02-26 16:19:11.302,-916.0,2216.0,372.0,179.0,-11.0,-192.0,138,53,48,63,48
2025-02-26 16:19:11.307,-831.0,2222.0,366.0,178.0,17.0,-236.0,137,54,49,66,47
2025-02-26 16:19:11.315,-709.0,2166.0,276.0,182.0,39.0,-276.0,137,55,48,65,47
2025-02-26 16:19:11.321,-658.0,2010.0,226.0,191.0,48.0,-310.0,137,56,47,66,45
2025-02-26 16:19:11.325,-639.0,1822.0,75.0,213.0,52.0,-325.0,135,54,47,65,46
2025-02-26 16:19:11.331,-625.0,1706.0,48.0,244.0,45.0,-352.0,136,53,46,66,46
2025-02-26 16:19:11.338,-520.0,1552.0,-14.0,261.0,42.0,-372.0,133,54,47,66,45
2025-02-26 16:19:11.342,-526.0,1321.0,-143.0,300.0,35.0,-392.0,136,55,47,70,45
2025-02-26 16:19:11.343,-490.0,1166.0,-73.0,355.0,19.0,-400.0,133,53,45,65,45
2025-02-26 16:19:11.351,-306.0,974.0,-38.0,405.0,4.0,-410.0,130,56,51,67,47
2025-02-26 16:19:11.356,-309.0,706.0,-117.0,422.0,-15.0,-418.0,132,54,47,69,45
2025-02-26 16:19:11.363,-309.0,534.0,-85.0,464.0,-22.0,-431.0,128,56,46,63,44
2025-02-26 16:19:11.367,-36.0,522.0,-43.0,485.0,-31.0,-441.0,130,56,47,59,46
2025-02-26 16:19:11.371,234.0,605.0,-25.0,460.0,-35.0,-458.0,129,59,47,69,42
2025-02-26 16:19:11.378,630.0,701.0,324.0,430.0,-37.0,-462.0,126,56,46,59,45
2025-02-26 16:19:11.383,924.0,693.0,762.0,348.0,-32.0,-460.0,126,55,46,60,44
2025-02-26 16:19:11.387,1589.0,421.0,916.0,259.0,-28.0,-459.0,122,54,47,67,46
2025-02-26 16:19:11.391,2021.0,-207.0,1162.0,219.0,-33.0,-465.0,122,55,46,57,46
2025-02-26 16:19:11.399,2215.0,-1171.0,1219.0,147.0,-37.0,-472.0,117,53,45,64,45
2025-02-26 16:19:11.404,2295.0,-2241.0,1202.0,102.0,-41.0,-463.0,116,52,44,65,45
2025-02-26 16:19:11.407,2003.0,-2775.0,1386.0,91.0,-26.0,-441.0,116,51,46,65,46
2025-02-26 16:19:11.415,1658.0,-3680.0,1461.0,95.0,-22.0,-367.0,117,51,46,63,45
2025-02-26 16:19:11.420,1608.0,-4054.0,2049.0,113.0,-27.0,-272.0,113,49,47,69,47
2025-02-26 16:19:11.424,1546.0,-4340.0,2135.0,112.0,-22.0,-186.0,116,47,44,66,47
2025-02-26 16:19:11.432,1574.0,-4303.0,2083.0,105.0,-21.0,-129.0,116,47,44,66,47
2025-02-26 16:19:11.436,1441.0,-4220.0,2244.0,66.0,-14.0,-111.0,116,46,43,66,47
2025-02-26 16:19:11.440,1306.0,-3947.0,1987.0,-8.0,-31.0,-92.0,117,47,45,66,50
2025-02-26 16:19:11.444,1378.0,-3819.0,1963.0,-35.0,-29.0,-64.0,119,47,45,66,50
2025-02-26 16:19:11.452,1312.0,-3811.0,2082.0,-49.0,-35.0,-20.0,116,46,42,63,51
2025-02-26 16:19:11.455,947.0,-3727.0,1612.0,-36.0,-28.0,24.0,117,46,47,66,48
2025-02-26 16:19:11.459,861.0,-3950.0,1152.0,-72.0,-42.0,33.0,120,49,47,64,49
2025-02-26 16:19:11.465,643.0,-3660.0,914.0,-142.0,-47.0,67.0,118,49,43,70,50
2025-02-26 16:19:11.473,770.0,-3710.0,842.0,-150.0,-39.0,102.0,118,50,43,70,50
2025-02-26 16:19:11.477,705.0,-3441.0,668.0,-159.0,-59.0,122.0,116,48,48,69,48
2025-02-26 16:19:11.481,641.0,-3469.0,513.0,-167.0,-92.0,135.0,117,50,47,68,49
2025-02-26 16:19:11.489,688.0,-3322.0,450.0,-174.0,-85.0,164.0,117,52,46,67,49
2025-02-26 16:19:11.493,514.0,-3112.0,324.0,-175.0,-82.0,190.0,116,51,46,67,49
2025-02-26 16:19:11.497,505.0,-2904.0,324.0,-166.0,-75.0,211.0,117,49,47,67,50
2025-02-26 16:19:11.502,289.0,-2732.0,202.0,-156.0,-95.0,226.0,116,50,45,66,50
2025-02-26 16:19:11.510,356.0,-2597.0,192.0,-154.0,-100.0,252.0,117,51,48,69,50
2025-02-26 16:19:11.514,264.0,-2522.0,125.0,-150.0,-101.0,279.0,116,51,46,71,50
2025-02-26 16:19:11.526,257.0,-2413.0,186.0,-169.0,-93.0,305.0,117,52,48,70,49
2025-02-26 16:19:11.528,165.0,-2111.0,80.0,-191.0,-86.0,324.0,115,51,47,69,49
2025-02-26 16:19:11.530,267.0,-1944.0,41.0,-203.0,-76.0,326.0,117,52,46,70,49
2025-02-26 16:19:11.534,246.0,-1720.0,122.0,-212.0,-58.0,329.0,118,52,48,71,50
2025-02-26 16:19:11.538,218.0,-1461.0,113.0,-217.0,-40.0,324.0,119,52,47,71,51
2025-02-26 16:19:11.546,265.0,-1330.0,182.0,-221.0,-27.0,317.0,119,52,49,69,50
2025-02-26 16:19:11.550,315.0,-1298.0,171.0,-233.0,-13.0,312.0,119,53,48,70,49
2025-02-26 16:19:11.555,241.0,-1095.0,237.0,-235.0,-6.0,306.0,120,53,48,68,51
2025-02-26 16:19:11.560,168.0,-951.0,115.0,-235.0,-21.0,302.0,120,52,48,70,51
2025-02-26 16:19:11.567,206.0,-893.0,324.0,-191.0,-24.0,301.0,121,53,47,68,51
2025-02-26 16:19:11.570,121.0,-865.0,245.0,-147.0,-37.0,301.0,122,53,47,68,50
2025-02-26 16:19:11.576,121.0,-793.0,195.0,-129.0,-47.0,307.0,121,54,48,69,50
2025-02-26 16:19:11.580,46.0,-694.0,134.0,-131.0,-45.0,316.0,121,52,48,69,51
2025-02-26 16:19:11.587,1.0,-600.0,79.0,-144.0,-35.0,322.0,122,52,47,68,51
2025-02-26 16:19:11.592,23.0,-490.0,-63.0,-182.0,-22.0,323.0,122,53,49,74,51
2025-02-26 16:19:11.593,-17.0,-370.0,27.0,-193.0,-9.0,323.0,125,54,50,72,50
2025-02-26 16:19:11.600,-30.0,-205.0,82.0,-209.0,-9.0,311.0,125,53,47,68,50
2025-02-26 16:19:11.604,0.0,-181.0,59.0,-210.0,-12.0,307.0,123,51,48,70,50
2025-02-26 16:19:11.612,-91.0,-82.0,178.0,-209.0,-13.0,290.0,125,55,49,67,49
2025-02-26 16:19:11.616,-96.0,-51.0,122.0,-188.0,-24.0,277.0,127,54,47,68,50
2025-02-26 16:19:11.621,-84.0,16.0,427.0,-142.0,-53.0,267.0,132,53,49,69,51
2025-02-26 16:19:11.624,-41.0,140.0,217.0,-129.0,-48.0,253.0,128,54,49,70,50
2025-02-26 16:19:11.632,-84.0,232.0,192.0,-99.0,-45.0,249.0,129,53,46,68,50
2025-02-26 16:19:11.636,-107.0,377.0,356.0,-52.0,-29.0,244.0,128,55,48,71,49
2025-02-26 16:19:11.641,-106.0,516.0,237.0,-24.0,-7.0,232.0,131,56,48,70,49
2025-02-26 16:19:11.645,-140.0,737.0,204.0,-19.0,10.0,218.0,130,54,48,69,50
2025-02-26 16:19:11.649,-147.0,834.0,217.0,1.0,16.0,209.0,134,54,47,74,50
2025-02-26 16:19:11.657,-282.0,907.0,205.0,3.0,30.0,196.0,132,55,48,71,50
2025-02-26 16:19:11.661,-244.0,1226.0,228.0,8.0,39.0,182.0,131,60,48,70,47
2025-02-26 16:19:11.666,-432.0,982.0,162.0,6.0,45.0,171.0,133,55,47,69,50
2025-02-26 16:19:11.670,-309.0,1395.0,175.0,29.0,57.0,152.0,132,59,48,70,51
2025-02-26 16:19:11.674,-407.0,1423.0,-152.0,49.0,48.0,130.0,133,55,47,70,51
2025-02-26 16:19:11.682,-447.0,1545.0,19.0,95.0,51.0,117.0,132,56,48,69,50
2025-02-26 16:19:11.686,-536.0,1621.0,-95.0,127.0,45.0,94.0,132,55,49,72,51
2025-02-26 16:19:11.690,-567.0,1774.0,-80.0,149.0,44.0,68.0,131,56,49,69,51
2025-02-26 16:19:11.694,-643.0,1893.0,-108.0,190.0,43.0,37.0,132,56,47,69,51
2025-02-26 16:19:11.699,-700.0,2005.0,-131.0,231.0,44.0,19.0,132,55,48,70,51
2025-02-26 16:19:11.706,-717.0,2186.0,-134.0,251.0,50.0,-21.0,132,56,48,69,54
2025-02-26 16:19:11.706,-694.0,2386.0,-201.0,287.0,52.0,-66.0,132,56,46,70,51
2025-02-26 16:19:11.715,-730.0,2395.0,-234.0,334.0,55.0,-90.0,132,56,49,68,50
2025-02-26 16:19:11.718,-717.0,2465.0,-230.0,365.0,57.0,-142.0,133,58,49,70,51
2025-02-26 16:19:11.727,-730.0,2399.0,-190.0,376.0,46.0,-192.0,132,55,49,70,51
2025-02-26 16:19:11.730,-661.0,2204.0,-138.0,397.0,35.0,-239.0,129,57,49,66,51
2025-02-26 16:19:11.735,-712.0,2081.0,-194.0,433.0,16.0,-261.0,132,58,49,71,50
2025-02-26 16:19:11.739,-692.0,1889.0,-190.0,467.0,1.0,-296.0,132,58,53,70,52
2025-02-26 16:19:11.747,-628.0,1585.0,-131.0,482.0,-10.0,-316.0,133,57,48,70,51
2025-02-26 16:19:11.752,-584.0,1326.0,-192.0,505.0,-20.0,-332.0,132,56,48,69,49
2025-02-26 16:19:11.756,-591.0,1133.0,-180.0,538.0,-37.0,-338.0,130,56,47,69,50
2025-02-26 16:19:11.760,-490.0,923.0,-167.0,549.0,-53.0,-349.0,129,58,49,69,50
2025-02-26 16:19:11.768,-323.0,770.0,-97.0,543.0,-63.0,-364.0,131,57,49,72,50
2025-02-26 16:19:11.773,-308.0,673.0,-8.0,536.0,-71.0,-379.0,129,56,49,70,50
2025-02-26 16:19:11.780,-231.0,634.0,163.0,497.0,-84.0,-386.0,128,57,48,71,50
2025-02-26 16:19:11.784,69.0,559.0,301.0,437.0,-93.0,-392.0,127,57,49,71,50
2025-02-26 16:19:11.788,324.0,305.0,573.0,403.0,-108.0,-391.0,127,56,47,71,50
2025-02-26 16:19:11.793,440.0,-140.0,913.0,328.0,-114.0,-388.0,125,58,49,72,50
2025-02-26 16:19:11.801,661.0,-461.0,1271.0,265.0,-122.0,-387.0,125,57,48,72,50
2025-02-26 16:19:11.804,760.0,-1034.0,1466.0,197.0,-121.0,-379.0,122,57,49,71,50
2025-02-26 16:19:11.809,848.0,-1668.0,1903.0,144.0,-109.0,-354.0,121,55,48,71,50
2025-02-26 16:19:11.813,839.0,-2341.0,2321.0,127.0,-85.0,-307.0,121,55,49,72,50
2025-02-26 16:19:11.821,812.0,-2910.0,2656.0,98.0,-72.0,-252.0,119,53,48,71,50
2025-02-26 16:19:11.824,720.0,-3123.0,2828.0,83.0,-46.0,-227.0,119,53,48,71,50
2025-02-26 16:19:11.829,658.0,-3425.0,2990.0,53.0,-16.0,-184.0,119,53,50,70,51
2025-02-26 16:19:11.838,609.0,-3534.0,3027.0,41.0,17.0,-154.0,119,50,48,70,47
2025-02-26 16:19:11.841,634.0,-3584.0,2991.0,4.0,20.0,-138.0,117,51,48,71,52
2025-02-26 16:19:11.846,409.0,-3549.0,2888.0,-33.0,32.0,-132.0,119,51,47,67,51
2025-02-26 16:19:11.850,244.0,-3484.0,2468.0,-121.0,41.0,-122.0,118,50,47,69,52
2025-02-26 16:19:11.858,170.0,-3432.0,2386.0,-138.0,62.0,-104.0,117,49,48,68,52
2025-02-26 16:19:11.862,-21.0,-3398.0,1891.0,-204.0,60.0,-87.0,119,53,50,68,52
2025-02-26 16:19:11.867,-10.0,-3450.0,1666.0,-253.0,57.0,-76.0,116,49,48,68,52
2025-02-26 16:19:11.874,-68.0,-3445.0,1333.0,-281.0,45.0,-50.0,118,50,45,67,53
2025-02-26 16:19:11.878,-83.0,-3400.0,1284.0,-267.0,37.0,-30.0,119,50,48,69,53
2025-02-26 16:19:11.883,-55.0,-3332.0,1108.0,-257.0,24.0,-7.0,118,49,49,67,54
2025-02-26 16:19:11.887,-36.0,-3314.0,982.0,-224.0,19.0,26.0,119,49,47,67,53
2025-02-26 16:19:11.894,-11.0,-3283.0,790.0,-185.0,16.0,44.0,119,49,48,67,54
2025-02-26 16:19:11.899,-41.0,-3135.0,711.0,-170.0,15.0,80.0,119,51,49,69,54
2025-02-26 16:19:11.901,-13.0,-3001.0,655.0,-132.0,12.0,113.0,119,48,48,69,53
2025-02-26 16:19:11.908,-19.0,-2833.0,596.0,-108.0,0.0,129.0,118,48,48,70,52
2025-02-26 16:19:11.912,-87.0,-2617.0,549.0,-85.0,-10.0,164.0,120,55,49,74,49
2025-02-26 16:19:11.920,-146.0,-2375.0,554.0,-77.0,-24.0,198.0,121,52,49,69,54
2025-02-26 16:19:11.923,-146.0,-2230.0,305.0,-109.0,-34.0,222.0,120,51,48,69,52
2025-02-26 16:19:11.927,-175.0,-2067.0,282.0,-171.0,-38.0,238.0,119,51,50,69,52
2025-02-26 16:19:11.936,-160.0,-1904.0,341.0,-189.0,-28.0,266.0,119,52,48,70,53
2025-02-26 16:19:11.940,-154.0,-1885.0,444.0,-201.0,-26.0,282.0,120,52,49,72,51
2025-02-26 16:19:11.945,50.0,-1718.0,497.0,-200.0,-17.0,280.0,119,53,52,71,52
2025-02-26 16:19:11.949,-28.0,-1373.0,363.0,-213.0,-13.0,268.0,120,53,49,70,50
2025-02-26 16:19:11.956,115.0,-1357.0,324.0,-221.0,6.0,262.0,124,54,50,72,50
2025-02-26 16:19:11.961,-66.0,-1115.0,361.0,-249.0,5.0,255.0,124,55,50,71,50
2025-02-26 16:19:11.964,-190.0,-831.0,136.0,-264.0,-6.0,259.0,125,55,49,72,52
2025-02-26 16:19:11.969,-146.0,-753.0,36.0,-270.0,-7.0,259.0,126,53,49,70,51
2025-02-26 16:19:11.975,-212.0,-741.0,130.0,-296.0,-12.0,262.0,126,55,49,71,53
2025-02-26 16:19:11.981,-226.0,-667.0,-149.0,-314.0,-29.0,257.0,130,55,49,71,52
2025-02-26 16:19:11.985,-216.0,-567.0,-147.0,-347.0,-40.0,239.0,127,53,50,70,52
2025-02-26 16:19:11.993,-189.0,-360.0,21.0,-407.0,-37.0,219.0,128,54,48,70,52
2025-02-26 16:19:11.997,-13.0,-390.0,-135.0,-443.0,-35.0,217.0,129,56,51,71,54
2025-02-26 16:19:12.001,27.0,-427.0,-102.0,-524.0,-4.0,202.0,130,52,51,70,54
2025-02-26 16:19:12.006,50.0,-222.0,-27.0,-544.0,-63.0,188.0,130,57,50,70,53
2025-02-26 16:19:12.012,91.0,-14.0,714.0,-507.0,-118.0,178.0,133,57,50,69,53
2025-02-26 16:19:12.017,-132.0,-42.0,548.0,-513.0,-134.0,160.0,133,57,50,71,54
2025-02-26 16:19:12.022,67.0,245.0,325.0,-469.0,-127.0,174.0,135,57,50,72,55
2025-02-26 16:19:12.026,10.0,305.0,-67.0,-338.0,-150.0,152.0,135,57,49,70,54
2025-02-26 16:19:12.034,-394.0,-72.0,-194.0,-288.0,-138.0,139.0,135,57,51,71,54
2025-02-26 16:19:12.038,-117.0,-8.0,-232.0,-247.0,-147.0,140.0,139,58,51,72,54
2025-02-26 16:19:12.042,-367.0,337.0,212.0,-232.0,-139.0,123.0,140,59,51,70,55
2025-02-26 16:19:12.047,-214.0,292.0,52.0,-196.0,-138.0,132.0,141,57,50,69,55
2025-02-26 16:19:12.055,-58.0,557.0,200.0,-164.0,-116.0,131.0,142,57,49,69,54
2025-02-26 16:19:12.059,-138.0,546.0,597.0,-184.0,-102.0,123.0,143,56,52,71,56
2025-02-26 16:19:12.063,-309.0,578.0,-65.0,-172.0,-101.0,115.0,144,57,51,71,55
2025-02-26 16:19:12.068,-375.0,893.0,191.0,-160.0,-106.0,99.0,145,56,50,70,55
2025-02-26 16:19:12.073,-488.0,801.0,4.0,-146.0,-110.0,87.0,144,56,50,70,55
2025-02-26 16:19:12.079,-519.0,854.0,-60.0,-130.0,-120.0,61.0,147,57,51,71,56
2025-02-26 16:19:12.084,-647.0,1339.0,785.0,-123.0,-105.0,31.0,146,56,52,71,55
2025-02-26 16:19:12.088,-667.0,1292.0,8.0,-103.0,-112.0,7.0,148,56,51,70,55
2025-02-26 16:19:12.096,-705.0,1194.0,40.0,-69.0,-120.0,-6.0,147,57,50,70,55
2025-02-26 16:19:12.100,-793.0,1344.0,134.0,-54.0,-115.0,-39.0,151,60,52,73,57
2025-02-26 16:19:12.104,-799.0,1519.0,60.0,-46.0,-119.0,-67.0,151,60,52,72,58
2025-02-26 16:19:12.108,-783.0,1758.0,314.0,-28.0,-117.0,-98.0,150,59,51,71,57
2025-02-26 16:19:12.116,-1078.0,1663.0,362.0,-11.0,-111.0,-113.0,152,60,52,72,57
2025-02-26 16:19:12.120,-1108.0,1735.0,304.0,16.0,-107.0,-147.0,154,61,53,72,57
2025-02-26 16:19:12.124,-979.0,1871.0,542.0,33.0,-93.0,-183.0,154,61,53,73,59
2025-02-26 16:19:12.132,-947.0,1893.0,656.0,65.0,-82.0,-212.0,153,59,52,72,56
2025-02-26 16:19:12.136,-824.0,1827.0,725.0,95.0,-58.0,-223.0,152,59,52,72,57
2025-02-26 16:19:12.138,-823.0,1670.0,773.0,134.0,-22.0,-240.0,155,62,54,73,58
2025-02-26 16:19:12.145,-709.0,1565.0,803.0,154.0,13.0,-252.0,155,62,53,73,58
2025-02-26 16:19:12.150,-677.0,1404.0,831.0,188.0,33.0,-261.0,154,60,46,70,57
2025-02-26 16:19:12.157,-647.0,1223.0,655.0,228.0,63.0,-264.0,155,61,51,71,57
2025-02-26 16:19:12.162,-529.0,1167.0,656.0,276.0,87.0,-279.0,156,62,52,71,58
2025-02-26 16:19:12.163,-496.0,1030.0,513.0,300.0,98.0,-296.0,155,61,54,74,57
2025-02-26 16:19:12.173,-518.0,967.0,413.0,339.0,101.0,-317.0,156,61,52,71,56
2025-02-26 16:19:12.177,-475.0,833.0,286.0,389.0,101.0,-326.0,155,61,51,71,56
2025-02-26 16:19:12.182,-480.0,836.0,245.0,426.0,82.0,-344.0,151,62,52,79,56
2025-02-26 16:19:12.186,-430.0,741.0,285.0,438.0,69.0,-364.0,156,62,53,73,56
2025-02-26 16:19:12.193,-392.0,820.0,177.0,472.0,49.0,-380.0,156,61,53,71,55
2025-02-26 16:19:12.198,-251.0,838.0,233.0,498.0,18.0,-395.0,157,61,52,73,56
2025-02-26 16:19:12.202,-107.0,728.0,199.0,504.0,-31.0,-422.0,157,62,53,72,55
2025-02-26 16:19:12.207,38.0,530.0,-46.0,473.0,-66.0,-439.0,156,61,52,72,55
2025-02-26 16:19:12.211,201.0,249.0,-59.0,445.0,-107.0,-440.0,157,63,52,72,53
2025-02-26 16:19:12.218,515.0,-100.0,8.0,424.0,-132.0,-423.0,157,62,53,73,54
2025-02-26 16:19:12.223,847.0,-500.0,128.0,407.0,-143.0,-407.0,158,62,53,72,54
2025-02-26 16:19:12.227,1044.0,-1106.0,285.0,390.0,-147.0,-386.0,157,61,53,72,54
2025-02-26 16:19:12.235,1471.0,-1384.0,868.0,375.0,-136.0,-374.0,156,61,49,73,51
2025-02-26 16:19:12.239,1753.0,-2153.0,1871.0,309.0,1.0,-342.0,159,61,54,75,57
2025-02-26 16:19:12.243,1974.0,-2768.0,1161.0,219.0,-20.0,-305.0,160,60,52,72,55
2025-02-26 16:19:12.251,1742.0,-3307.0,1602.0,188.0,-28.0,-272.0,157,60,52,73,55
2025-02-26 16:19:12.255,1491.0,-3519.0,1693.0,166.0,-30.0,-228.0,157,58,51,71,55
2025-02-26 16:19:12.259,1255.0,-3385.0,1796.0,140.0,-23.0,-205.0,157,58,51,72,56
2025-02-26 16:19:12.267,1105.0,-3359.0,1728.0,121.0,-14.0,-175.0,157,55,52,73,57
2025-02-26 16:19:12.272,1019.0,-3067.0,1665.0,45.0,3.0,-156.0,158,55,53,71,58
2025-02-26 16:19:12.276,922.0,-2819.0,1718.0,-8.0,11.0,-129.0,158,54,54,72,56
2025-02-26 16:19:12.280,919.0,-2867.0,1644.0,-113.0,7.0,-104.0,158,51,55,72,57
2025-02-26 16:19:12.288,793.0,-2920.0,1553.0,-163.0,-6.0,-87.0,158,51,51,72,57
2025-02-26 16:19:12.292,781.0,-3091.0,1598.0,-180.0,-16.0,-60.0,158,52,52,72,58
2025-02-26 16:19:12.296,777.0,-3550.0,1371.0,-184.0,-12.0,-32.0,158,51,52,72,57
2025-02-26 16:19:12.304,639.0,-3589.0,1067.0,-205.0,-6.0,8.0,158,48,51,72,56
2025-02-26 16:19:12.309,644.0,-3555.0,1050.0,-206.0,-10.0,26.0,159,51,52,71,58
2025-02-26 16:19:12.313,436.0,-3521.0,915.0,-210.0,-19.0,54.0,160,50,53,71,58
2025-02-26 16:19:12.314,564.0,-3475.0,819.0,-158.0,-23.0,75.0,158,51,53,73,59
2025-02-26 16:19:12.324,492.0,-3444.0,823.0,-121.0,-23.0,91.0,159,50,51,72,58
2025-02-26 16:19:12.328,433.0,-3235.0,772.0,-71.0,-24.0,99.0,158,51,51,71,57
2025-02-26 16:19:12.333,299.0,-3083.0,695.0,-1.0,-24.0,125.0,158,51,52,72,57
2025-02-26 16:19:12.338,281.0,-2782.0,736.0,15.0,-22.0,142.0,160,51,51,71,58
2025-02-26 16:19:12.339,235.0,-2505.0,666.0,4.0,-20.0,156.0,158,52,52,71,57
2025-02-26 16:19:12.350,178.0,-2367.0,578.0,-22.0,-15.0,162.0,158,54,53,72,58
2025-02-26 16:19:12.354,79.0,-2159.0,579.0,-30.0,-8.0,173.0,158,53,53,72,57
2025-02-26 16:19:12.358,70.0,-2019.0,486.0,-36.0,0.0,183.0,159,53,53,72,57
2025-02-26 16:19:12.362,74.0,-1987.0,502.0,-63.0,22.0,189.0,158,54,52,72,57
2025-02-26 16:19:12.369,93.0,-1794.0,467.0,-133.0,49.0,200.0,159,52,52,72,57
2025-02-26 16:19:12.374,38.0,-1734.0,395.0,-172.0,65.0,210.0,158,52,52,73,56
2025-02-26 16:19:12.378,5.0,-1704.0,640.0,-235.0,85.0,213.0,160,52,53,74,55
2025-02-26 16:19:12.381,51.0,-1628.0,340.0,-259.0,79.0,222.0,158,52,52,74,56
2025-02-26 16:19:12.387,95.0,-1452.0,392.0,-287.0,85.0,230.0,159,53,51,74,56
2025-02-26 16:19:12.394,124.0,-1378.0,628.0,-289.0,108.0,236.0,158,50,51,73,56
2025-02-26 16:19:12.399,115.0,-1329.0,182.0,-294.0,95.0,236.0,159,53,53,74,57
2025-02-26 16:19:12.403,162.0,-1196.0,101.0,-258.0,77.0,237.0,158,58,54,73,56
2025-02-26 16:19:12.410,260.0,-1034.0,406.0,-243.0,106.0,238.0,159,59,52,73,56
2025-02-26 16:19:12.415,217.0,-1132.0,241.0,-248.0,107.0,245.0,157,57,52,72,56
2025-02-26 16:19:12.418,179.0,-1110.0,379.0,-213.0,83.0,242.0,160,59,54,75,57
2025-02-26 16:19:12.424,184.0,-927.0,497.0,-203.0,78.0,242.0,159,59,54,74,55
2025-02-26 16:19:12.429,178.0,-806.0,272.0,-200.0,63.0,243.0,157,59,52,73,57
2025-02-26 16:19:12.436,216.0,-689.0,230.0,-191.0,55.0,242.0,158,58,53,72,56
2025-02-26 16:19:12.440,236.0,-438.0,577.0,-250.0,89.0,248.0,157,59,54,74,57
2025-02-26 16:19:12.442,239.0,-322.0,2.0,-257.0,100.0,255.0,159,57,52,74,56
2025-02-26 16:19:12.448,226.0,-34.0,849.0,-257.0,141.0,257.0,158,58,53,70,54
2025-02-26 16:19:12.454,104.0,-377.0,-157.0,-285.0,109.0,256.0,157,59,53,75,55
2025-02-26 16:19:12.459,75.0,-59.0,431.0,-302.0,94.0,239.0,159,58,54,74,57
2025-02-26 16:19:12.465,70.0,-125.0,-129.0,-304.0,80.0,237.0,157,58,53,73,56
2025-02-26 16:19:12.467,19.0,-94.0,-514.0,-259.0,60.0,237.0,157,56,52,71,55
2025-02-26 16:19:12.477,-97.0,-48.0,-391.0,-181.0,41.0,227.0,159,57,53,73,54
2025-02-26 16:19:12.477,-153.0,105.0,12.0,-169.0,31.0,207.0,159,60,52,74,56
2025-02-26 16:19:12.485,-89.0,199.0,-226.0,-167.0,16.0,195.0,159,58,52,73,56
2025-02-26 16:19:12.489,-140.0,64.0,-121.0,-154.0,4.0,191.0,158,57,53,73,56
2025-02-26 16:19:12.494,-130.0,251.0,1.0,-154.0,1.0,179.0,157,56,54,74,55
2025-02-26 16:19:12.501,-175.0,238.0,39.0,-146.0,5.0,168.0,158,58,52,73,55
2025-02-26 16:19:12.502,-58.0,437.0,83.0,-143.0,9.0,163.0,158,58,53,75,56
2025-02-26 16:19:12.509,-141.0,401.0,-15.0,-141.0,9.0,156.0,157,57,53,74,55
2025-02-26 16:19:12.513,-146.0,560.0,74.0,-136.0,9.0,146.0,158,58,52,72,54
2025-02-26 16:19:12.518,-259.0,438.0,-131.0,-109.0,3.0,146.0,158,59,53,74,54
2025-02-26 16:19:12.525,-314.0,600.0,153.0,-109.0,-7.0,130.0,157,59,53,74,56
2025-02-26 16:19:12.530,-426.0,607.0,-43.0,-78.0,-4.0,117.0,158,58,53,73,53
2025-02-26 16:19:12.535,-368.0,725.0,-55.0,-73.0,-9.0,110.0,159,58,53,73,55
2025-02-26 16:19:12.537,-473.0,972.0,-4.0,-66.0,-14.0,96.0,158,59,54,74,57
2025-02-26 16:19:12.545,-542.0,1041.0,12.0,-47.0,-13.0,78.0,156,59,53,72,55
2025-02-26 16:19:12.550,-695.0,1198.0,-6.0,-19.0,-20.0,67.0,158,58,53,73,55
2025-02-26 16:19:12.554,-842.0,1367.0,47.0,-6.0,-25.0,43.0,157,58,53,73,55
2025-02-26 16:19:12.559,-875.0,1517.0,98.0,42.0,-30.0,12.0,158,59,53,73,56
2025-02-26 16:19:12.563,-949.0,1573.0,102.0,94.0,-41.0,-7.0,160,60,54,73,57
2025-02-26 16:19:12.568,-1055.0,1771.0,239.0,118.0,-44.0,-44.0,159,60,53,73,54
2025-02-26 16:19:12.575,-1084.0,1934.0,351.0,166.0,-46.0,-83.0,156,57,51,73,55
2025-02-26 16:19:12.579,-1074.0,2003.0,293.0,224.0,-51.0,-102.0,159,60,53,74,56
2025-02-26 16:19:12.587,-1035.0,2018.0,387.0,291.0,-40.0,-149.0,158,61,53,75,54
2025-02-26 16:19:12.591,-955.0,2115.0,306.0,335.0,-53.0,-187.0,157,59,52,74,54
2025-02-26 16:19:12.592,-961.0,2033.0,330.0,360.0,-64.0,-213.0,157,61,52,74,54
2025-02-26 16:19:12.599,-977.0,1909.0,322.0,400.0,-71.0,-238.0,158,51,52,75,54
2025-02-26 16:19:12.607,-953.0,1810.0,337.0,430.0,-89.0,-249.0,157,59,53,73,53
2025-02-26 16:19:12.611,-923.0,1578.0,135.0,449.0,-114.0,-272.0,158,62,52,74,55
2025-02-26 16:19:12.615,-697.0,1365.0,440.0,457.0,-132.0,-300.0,158,61,53,73,49
2025-02-26 16:19:12.621,-712.0,1007.0,40.0,460.0,-156.0,-321.0,159,60,53,73,52
2025-02-26 16:19:12.628,-657.0,787.0,131.0,438.0,-176.0,-330.0,159,61,51,73,52
2025-02-26 16:19:12.632,-652.0,734.0,16.0,404.0,-204.0,-347.0,158,61,52,74,52
2025-02-26 16:19:12.636,-583.0,592.0,112.0,360.0,-218.0,-366.0,158,61,53,74,50
2025-02-26 16:19:12.644,-519.0,359.0,220.0,361.0,-224.0,-369.0,157,61,54,74,52
2025-02-26 16:19:12.649,-443.0,202.0,-130.0,348.0,-241.0,-375.0,157,62,51,75,52
2025-02-26 16:19:12.653,-175.0,103.0,134.0,287.0,-241.0,-378.0,156,61,54,75,52
2025-02-26 16:19:12.657,235.0,-163.0,225.0,230.0,-215.0,-380.0,158,61,52,76,52
2025-02-26 16:19:12.665,568.0,-495.0,229.0,200.0,-194.0,-376.0,157,61,53,75,52
2025-02-26 16:19:12.669,626.0,-1041.0,438.0,144.0,-180.0,-359.0,159,61,53,75,53
2025-02-26 16:19:12.672,812.0,-1397.0,728.0,90.0,-147.0,-349.0,156,60,52,76,53
2025-02-26 16:19:12.681,1179.0,-2039.0,833.0,63.0,-104.0,-322.0,159,59,54,77,53
2025-02-26 16:19:12.683,1444.0,-2548.0,1045.0,27.0,-69.0,-292.0,156,58,54,76,55
2025-02-26 16:19:12.690,1454.0,-3026.0,1410.0,4.0,-33.0,-252.0,157,56,53,74,55
2025-02-26 16:19:12.694,1556.0,-3541.0,1734.0,0.0,-19.0,-210.0,157,54,51,75,55
2025-02-26 16:19:12.702,1643.0,-3683.0,1783.0,-27.0,-4.0,-192.0,157,54,54,74,56
2025-02-26 16:19:12.706,1624.0,-3904.0,1837.0,-46.0,4.0,-154.0,156,52,52,75,57
2025-02-26 16:19:12.710,1379.0,-3996.0,1760.0,-60.0,22.0,-112.0,157,52,53,74,56
2025-02-26 16:19:12.718,1209.0,-3927.0,1657.0,-116.0,35.0,-73.0,157,53,50,74,56
2025-02-26 16:19:12.722,1004.0,-4185.0,1318.0,-138.0,75.0,-59.0,156,52,53,74,59
2025-02-26 16:19:12.726,719.0,-3936.0,1188.0,-144.0,89.0,-34.0,157,52,53,74,57
2025-02-26 16:19:12.730,577.0,-3950.0,1268.0,-149.0,93.0,11.0,156,49,53,76,57
2025-02-26 16:19:12.739,586.0,-4160.0,1380.0,-91.0,38.0,45.0,156,51,52,74,59
2025-02-26 16:19:12.742,291.0,-3686.0,962.0,-35.0,7.0,74.0,153,51,52,68,62
2025-02-26 16:19:12.744,121.0,-3644.0,791.0,-22.0,4.0,85.0,156,52,53,75,57
2025-02-26 16:19:12.751,202.0,-3418.0,667.0,-9.0,37.0,96.0,154,51,52,74,57
2025-02-26 16:19:12.756,56.0,-3173.0,509.0,-8.0,55.0,117.0,155,52,52,74,57
2025-02-26 16:19:12.763,-32.0,-2991.0,439.0,-27.0,83.0,131.0,154,53,53,77,57
2025-02-26 16:19:12.768,-58.0,-2820.0,379.0,-34.0,75.0,151.0,155,53,53,74,57
2025-02-26 16:19:12.771,-31.0,-2715.0,428.0,-41.0,65.0,162.0,153,48,52,76,53
2025-02-26 16:19:12.776,-152.0,-2547.0,297.0,-73.0,49.0,172.0,154,55,52,75,58
2025-02-26 16:19:12.784,-155.0,-2369.0,237.0,-75.0,62.0,193.0,153,53,53,77,57
2025-02-26 16:19:12.788,-81.0,-2355.0,139.0,-63.0,79.0,207.0,153,55,51,75,57
2025-02-26 16:19:12.792,-97.0,-2285.0,245.0,-58.0,115.0,213.0,151,55,51,74,57
2025-02-26 16:19:12.796,-162.0,-2040.0,135.0,-55.0,138.0,213.0,151,52,52,76,58
2025-02-26 16:19:12.804,-163.0,-1863.0,157.0,-60.0,130.0,221.0,152,55,52,77,58
2025-02-26 16:19:12.808,-166.0,-1569.0,233.0,-78.0,118.0,228.0,151,57,52,76,55
2025-02-26 16:19:12.813,-241.0,-1372.0,237.0,-85.0,102.0,231.0,151,56,53,75,58
2025-02-26 16:19:12.820,-303.0,-1318.0,287.0,-92.0,104.0,235.0,150,57,52,76,58
2025-02-26 16:19:12.824,-189.0,-1111.0,267.0,-104.0,128.0,231.0,151,57,53,77,58
2025-02-26 16:19:12.829,-89.0,-1002.0,270.0,-118.0,168.0,229.0,151,57,52,76,58
2025-02-26 16:19:12.833,-83.0,-831.0,129.0,-165.0,186.0,232.0,150,58,53,74,57
