timestamp,ax,ay,az,gx,gy,gz,flex1,flex2,flex3,flex4,flex5,emg1,emg2,emg3
2025-02-27 15:46:48.474,-324.0,-870.0,441.0,-3.0,0.0,-3.0,149,124,107,129,139
2025-02-27 15:46:48.476,-326.0,-872.0,431.0,-4.0,1.0,-3.0,150,126,113,129,140
2025-02-27 15:46:48.478,-324.0,-870.0,428.0,-4.0,1.0,-2.0,149,126,114,130,142
2025-02-27 15:46:48.480,-326.0,-866.0,423.0,-4.0,1.0,-2.0,150,124,111,129,140
2025-02-27 15:46:48.483,-329.0,-863.0,418.0,-3.0,0.0,-2.0,150,124,112,129,141
2025-02-27 15:46:48.485,-329.0,-868.0,417.0,-3.0,0.0,-2.0,150,124,112,128,140
2025-02-27 15:46:48.487,-329.0,-866.0,411.0,-2.0,0.0,-2.0,150,125,113,130,142
2025-02-27 15:46:48.490,-331.0,-864.0,413.0,-2.0,-1.0,-1.0,150,125,112,132,140
2025-02-27 15:46:48.492,-334.0,-869.0,417.0,-1.0,-2.0,-1.0,148,122,114,129,143
2025-02-27 15:46:48.494,-332.0,-865.0,418.0,-1.0,-2.0,-1.0,148,123,111,129,139
2025-02-27 15:46:48.497,-333.0,-863.0,419.0,-1.0,-2.0,-1.0,150,125,114,130,141
2025-02-27 15:46:48.499,-334.0,-866.0,421.0,-1.0,-3.0,-1.0,149,125,114,130,140
2025-02-27 15:46:48.501,-337.0,-863.0,421.0,0.0,-3.0,-1.0,149,123,110,130,140
2025-02-27 15:46:48.503,-335.0,-862.0,425.0,0.0,-3.0,-1.0,150,125,113,130,141
2025-02-27 15:46:48.505,-340.0,-862.0,428.0,0.0,-3.0,-1.0,152,125,112,131,142
2025-02-27 15:46:48.507,-338.0,-865.0,439.0,0.0,-3.0,-1.0,150,124,113,128,140
2025-02-27 15:46:48.509,-340.0,-863.0,442.0,0.0,-3.0,-1.0,149,125,115,129,141
2025-02-27 15:46:48.512,-344.0,-867.0,436.0,0.0,-3.0,-1.0,150,126,113,130,140
2025-02-27 15:46:48.514,-345.0,-866.0,443.0,-1.0,-3.0,-1.0,152,124,114,129,141
2025-02-27 15:46:48.516,-354.0,-865.0,441.0,-1.0,-3.0,-1.0,153,127,113,130,142
2025-02-27 15:46:48.519,-350.0,-860.0,442.0,-1.0,-3.0,-1.0,150,125,113,129,141
2025-02-27 15:46:48.521,-350.0,-858.0,453.0,-1.0,-2.0,-1.0,149,123,112,130,142
2025-02-27 15:46:48.523,-351.0,-862.0,449.0,-1.0,-2.0,-1.0,152,125,114,130,142
2025-02-27 15:46:48.525,-352.0,-860.0,441.0,-2.0,-1.0,-1.0,150,125,111,130,140
2025-02-27 15:46:48.528,-353.0,-867.0,453.0,-2.0,-1.0,-1.0,148,125,111,127,140
2025-02-27 15:46:48.530,-356.0,-866.0,451.0,-2.0,0.0,-1.0,149,124,113,129,140
2025-02-27 15:46:48.532,-350.0,-863.0,448.0,-2.0,1.0,-1.0,150,127,114,131,142
2025-02-27 15:46:48.534,-349.0,-859.0,440.0,-2.0,1.0,-1.0,149,125,111,130,141
2025-02-27 15:46:48.536,-352.0,-859.0,437.0,-1.0,1.0,-1.0,152,125,112,129,139
2025-02-27 15:46:48.538,-349.0,-859.0,432.0,-1.0,1.0,-1.0,150,122,111,128,139
2025-02-27 15:46:48.540,-349.0,-859.0,433.0,-1.0,1.0,-1.0,149,126,115,130,142
2025-02-27 15:46:48.543,-352.0,-855.0,431.0,-1.0,0.0,-1.0,150,124,113,130,141
2025-02-27 15:46:48.546,-347.0,-854.0,421.0,-1.0,0.0,-1.0,150,124,113,129,140
2025-02-27 15:46:48.549,-344.0,-853.0,429.0,-2.0,-1.0,-2.0,148,123,111,128,140
2025-02-27 15:46:48.551,-344.0,-857.0,428.0,-2.0,-1.0,-2.0,152,125,114,132,142
2025-02-27 15:46:48.554,-345.0,-857.0,428.0,-2.0,-1.0,-2.0,149,124,112,129,140
2025-02-27 15:46:48.559,-343.0,-859.0,434.0,-3.0,-1.0,-2.0,149,123,110,129,141
2025-02-27 15:46:48.563,-336.0,-865.0,432.0,-2.0,-1.0,-2.0,148,123,113,130,140
2025-02-27 15:46:48.570,-336.0,-861.0,432.0,-2.0,-1.0,-2.0,153,125,114,131,142
2025-02-27 15:46:48.575,-334.0,-866.0,430.0,-2.0,-1.0,-2.0,149,126,114,129,141
2025-02-27 15:46:48.580,-333.0,-868.0,435.0,-2.0,0.0,-1.0,148,126,113,129,140
2025-02-27 15:46:48.584,-333.0,-869.0,431.0,-1.0,0.0,-1.0,148,125,112,128,139
2025-02-27 15:46:48.592,-334.0,-862.0,431.0,-1.0,0.0,0.0,153,127,117,131,140
2025-02-27 15:46:48.596,-331.0,-865.0,431.0,-1.0,0.0,0.0,151,125,114,130,141
2025-02-27 15:46:48.600,-334.0,-860.0,430.0,-1.0,-1.0,0.0,148,125,112,131,140
2025-02-27 15:46:48.604,-334.0,-858.0,426.0,-1.0,-1.0,0.0,147,124,112,127,139
2025-02-27 15:46:48.612,-335.0,-860.0,428.0,-1.0,-1.0,0.0,151,126,113,130,141
2025-02-27 15:46:48.616,-333.0,-858.0,428.0,-1.0,-1.0,0.0,149,124,112,128,139
2025-02-27 15:46:48.620,-336.0,-860.0,425.0,-1.0,-1.0,0.0,148,124,111,127,139
2025-02-27 15:46:48.624,-332.0,-854.0,429.0,-1.0,-2.0,-1.0,151,124,113,129,140
2025-02-27 15:46:48.632,-334.0,-857.0,433.0,-1.0,-2.0,0.0,151,126,113,131,142
2025-02-27 15:46:48.637,-333.0,-860.0,436.0,-1.0,-2.0,-1.0,150,125,113,128,140
2025-02-27 15:46:48.641,-336.0,-858.0,436.0,-1.0,-2.0,0.0,149,123,111,133,139
2025-02-27 15:46:48.645,-334.0,-863.0,441.0,-1.0,-2.0,0.0,151,124,112,129,141
2025-02-27 15:46:48.653,-335.0,-864.0,442.0,-1.0,-2.0,0.0,153,126,114,130,141
2025-02-27 15:46:48.657,-340.0,-863.0,445.0,0.0,-2.0,0.0,152,126,116,129,140
2025-02-27 15:46:48.662,-342.0,-860.0,437.0,0.0,-2.0,1.0,149,123,111,128,139
2025-02-27 15:46:48.665,-342.0,-857.0,444.0,0.0,-2.0,1.0,151,125,115,131,143
2025-02-27 15:46:48.673,-349.0,-857.0,444.0,0.0,-2.0,1.0,150,126,113,129,141
2025-02-27 15:46:48.678,-344.0,-853.0,443.0,-1.0,-1.0,1.0,150,124,111,127,140
2025-02-27 15:46:48.682,-344.0,-849.0,444.0,-1.0,-1.0,1.0,150,124,111,127,139
2025-02-27 15:46:48.686,-343.0,-851.0,445.0,-2.0,-1.0,1.0,152,127,114,132,142
2025-02-27 15:46:48.694,-347.0,-845.0,438.0,-1.0,-1.0,1.0,150,124,114,129,142
2025-02-27 15:46:48.698,-345.0,-843.0,443.0,-2.0,-2.0,0.0,148,124,111,128,139
2025-02-27 15:46:48.702,-339.0,-840.0,439.0,-2.0,-2.0,0.0,148,123,112,127,138
2025-02-27 15:46:48.707,-342.0,-842.0,433.0,-2.0,-2.0,0.0,151,126,113,129,146
2025-02-27 15:46:48.714,-349.0,-850.0,444.0,-2.0,-2.0,0.0,149,124,112,129,140
2025-02-27 15:46:48.718,-346.0,-850.0,446.0,-2.0,-2.0,0.0,150,125,112,128,139
2025-02-27 15:46:48.722,-346.0,-848.0,440.0,-1.0,-2.0,0.0,150,125,111,129,142
2025-02-27 15:46:48.727,-345.0,-843.0,441.0,-1.0,-2.0,0.0,150,126,114,131,143
2025-02-27 15:46:48.734,-344.0,-845.0,446.0,-1.0,-2.0,-1.0,150,125,114,130,141
2025-02-27 15:46:48.739,-348.0,-844.0,446.0,-1.0,-1.0,-1.0,152,124,111,127,140
2025-02-27 15:46:48.743,-342.0,-841.0,444.0,-1.0,-1.0,-1.0,149,125,108,125,133
2025-02-27 15:46:48.751,-341.0,-844.0,444.0,-1.0,-1.0,-1.0,151,127,113,128,140
2025-02-27 15:46:48.755,-348.0,-848.0,454.0,-1.0,0.0,-1.0,151,124,112,129,141
2025-02-27 15:46:48.759,-345.0,-849.0,449.0,-2.0,0.0,-1.0,148,124,112,129,141
2025-02-27 15:46:48.764,-347.0,-849.0,441.0,-2.0,0.0,-1.0,150,125,112,128,140
2025-02-27 15:46:48.771,-344.0,-853.0,443.0,-1.0,0.0,-1.0,150,125,114,132,142
2025-02-27 15:46:48.776,-347.0,-854.0,441.0,-1.0,0.0,-1.0,150,125,113,129,140
2025-02-27 15:46:48.780,-348.0,-852.0,443.0,-2.0,-1.0,-2.0,149,125,112,128,140
2025-02-27 15:46:48.785,-346.0,-855.0,448.0,-2.0,-1.0,-2.0,150,122,111,128,140
2025-02-27 15:46:48.792,-345.0,-846.0,449.0,-2.0,0.0,-2.0,150,126,113,130,141
2025-02-27 15:46:48.796,-344.0,-847.0,444.0,-3.0,-1.0,-2.0,148,125,113,129,141
2025-02-27 15:46:48.801,-345.0,-849.0,448.0,-3.0,0.0,-2.0,149,123,111,129,140
2025-02-27 15:46:48.805,-347.0,-853.0,451.0,-3.0,0.0,-2.0,149,123,111,128,139
2025-02-27 15:46:48.813,-340.0,-855.0,448.0,-3.0,0.0,-2.0,150,125,114,130,142
2025-02-27 15:46:48.817,-338.0,-856.0,454.0,-4.0,0.0,-2.0,149,126,113,128,141
2025-02-27 15:46:48.822,-337.0,-857.0,446.0,-3.0,1.0,-2.0,150,125,112,128,140
2025-02-27 15:46:48.825,-336.0,-855.0,440.0,-3.0,1.0,-1.0,152,127,115,131,142
2025-02-27 15:46:48.833,-338.0,-855.0,439.0,-3.0,1.0,-2.0,153,126,115,130,140
2025-02-27 15:46:48.838,-332.0,-857.0,438.0,-3.0,1.0,-1.0,149,126,114,130,141
2025-02-27 15:46:48.842,-338.0,-855.0,436.0,-3.0,1.0,-1.0,149,124,112,129,139
2025-02-27 15:46:48.846,-335.0,-855.0,427.0,-3.0,1.0,-1.0,152,126,114,133,142
2025-02-27 15:46:48.853,-337.0,-855.0,425.0,-3.0,0.0,-2.0,150,123,113,129,142
2025-02-27 15:46:48.858,-334.0,-854.0,430.0,-3.0,0.0,-1.0,149,124,110,129,141
2025-02-27 15:46:48.862,-331.0,-856.0,424.0,-2.0,0.0,-2.0,149,125,114,129,140
2025-02-27 15:46:48.866,-337.0,-856.0,430.0,-2.0,-1.0,-1.0,152,128,113,132,142
2025-02-27 15:46:48.874,-340.0,-858.0,426.0,-2.0,-1.0,-1.0,150,125,113,130,141
2025-02-27 15:46:48.878,-343.0,-856.0,422.0,-2.0,-1.0,-1.0,148,124,112,130,140
2025-02-27 15:46:48.882,-344.0,-855.0,433.0,-1.0,-1.0,-1.0,149,123,112,128,139
2025-02-27 15:46:48.890,-342.0,-855.0,431.0,-1.0,0.0,-1.0,151,126,113,130,141
2025-02-27 15:46:48.894,-334.0,-854.0,429.0,0.0,0.0,-1.0,151,126,115,131,141
2025-02-27 15:46:48.898,-343.0,-863.0,433.0,0.0,0.0,-2.0,150,124,112,129,140
2025-02-27 15:46:48.903,-347.0,-861.0,430.0,0.0,0.0,-1.0,149,124,112,129,140
2025-02-27 15:46:48.907,-351.0,-848.0,431.0,0.0,0.0,-2.0,151,126,116,130,142
2025-02-27 15:46:48.915,-341.0,-858.0,429.0,-1.0,0.0,-2.0,150,124,113,128,140
2025-02-27 15:46:48.919,-341.0,-859.0,436.0,-1.0,1.0,-2.0,149,125,108,128,139
2025-02-27 15:46:48.923,-348.0,-853.0,417.0,-1.0,1.0,-2.0,148,124,112,127,139
2025-02-27 15:46:48.931,-343.0,-858.0,418.0,-2.0,0.0,-2.0,151,125,113,128,142
2025-02-27 15:46:48.935,-338.0,-864.0,436.0,-2.0,1.0,-2.0,151,125,110,129,141
2025-02-27 15:46:48.939,-346.0,-858.0,417.0,-2.0,1.0,-2.0,151,124,109,128,142
2025-02-27 15:46:48.944,-342.0,-854.0,415.0,-2.0,0.0,-2.0,151,124,112,129,140
2025-02-27 15:46:48.951,-338.0,-864.0,425.0,-2.0,0.0,-1.0,151,124,112,130,141
2025-02-27 15:46:48.956,-337.0,-864.0,420.0,-2.0,0.0,-2.0,150,125,112,129,141
2025-02-27 15:46:48.960,-337.0,-860.0,409.0,-1.0,-1.0,-2.0,148,119,110,128,138
2025-02-27 15:46:48.964,-340.0,-866.0,417.0,-1.0,-1.0,-1.0,153,125,111,130,140
2025-02-27 15:46:48.972,-351.0,-861.0,415.0,-1.0,-2.0,-2.0,150,126,113,130,142
2025-02-27 15:46:48.976,-346.0,-866.0,416.0,-1.0,-2.0,-2.0,149,125,112,130,141
2025-02-27 15:46:48.980,-349.0,-866.0,420.0,-2.0,-2.0,-2.0,150,125,112,128,140
2025-02-27 15:46:48.985,-351.0,-866.0,425.0,-2.0,-3.0,-2.0,149,123,111,129,140
2025-02-27 15:46:48.992,-350.0,-867.0,425.0,-2.0,-3.0,-2.0,150,127,114,130,143
2025-02-27 15:46:48.997,-348.0,-864.0,427.0,-2.0,-3.0,-2.0,150,126,114,130,141
2025-02-27 15:46:49.001,-349.0,-868.0,432.0,-2.0,-3.0,-2.0,149,124,112,127,140
2025-02-27 15:46:49.009,-346.0,-868.0,437.0,-2.0,-2.0,-2.0,152,125,113,132,142
2025-02-27 15:46:49.013,-348.0,-872.0,438.0,-3.0,-2.0,-2.0,151,125,112,130,141
2025-02-27 15:46:49.017,-340.0,-869.0,439.0,-2.0,-1.0,-1.0,151,124,112,130,141
2025-02-27 15:46:49.022,-343.0,-870.0,440.0,-2.0,0.0,-1.0,148,124,111,129,141
2025-02-27 15:46:49.029,-348.0,-871.0,433.0,-2.0,0.0,-1.0,149,125,113,129,141
2025-02-27 15:46:49.034,-351.0,-868.0,433.0,-2.0,0.0,-2.0,151,126,114,129,141
2025-02-27 15:46:49.039,-352.0,-870.0,435.0,-2.0,0.0,-1.0,151,125,114,128,140
2025-02-27 15:46:49.042,-349.0,-869.0,432.0,-3.0,0.0,-1.0,149,126,112,129,139
2025-02-27 15:46:49.050,-348.0,-869.0,427.0,-2.0,0.0,-2.0,150,127,113,129,141
2025-02-27 15:46:49.054,-347.0,-868.0,425.0,-3.0,-1.0,-2.0,152,124,113,130,141
2025-02-27 15:46:49.059,-343.0,-869.0,420.0,-3.0,-1.0,-2.0,151,125,112,130,141
2025-02-27 15:46:49.063,-345.0,-872.0,418.0,-3.0,-2.0,-2.0,150,124,112,129,140
2025-02-27 15:46:49.071,-352.0,-866.0,416.0,-5.0,-1.0,-2.0,150,125,114,130,140
2025-02-27 15:46:49.075,-339.0,-869.0,407.0,-2.0,-3.0,-2.0,149,126,115,130,142
2025-02-27 15:46:49.079,-339.0,-869.0,410.0,-3.0,-3.0,-2.0,150,125,116,129,141
2025-02-27 15:46:49.087,-340.0,-876.0,407.0,-3.0,-3.0,-1.0,150,126,113,129,141
2025-02-27 15:46:49.091,-336.0,-866.0,402.0,-2.0,-4.0,-1.0,149,124,112,129,142
2025-02-27 15:46:49.096,-342.0,-875.0,407.0,-2.0,-6.0,-1.0,149,125,113,129,140
2025-02-27 15:46:49.100,-342.0,-886.0,416.0,-2.0,-6.0,0.0,149,125,113,134,141
2025-02-27 15:46:49.107,-350.0,-872.0,407.0,-1.0,-7.0,1.0,150,125,113,129,141
2025-02-27 15:46:49.112,-352.0,-879.0,406.0,1.0,-8.0,2.0,149,125,111,129,139
2025-02-27 15:46:49.116,-350.0,-882.0,432.0,1.0,-8.0,2.0,150,126,114,130,141
2025-02-27 15:46:49.121,-359.0,-874.0,427.0,2.0,-7.0,3.0,150,125,112,128,141
2025-02-27 15:46:49.128,-357.0,-871.0,440.0,3.0,-7.0,3.0,149,123,112,130,140
2025-02-27 15:46:49.132,-359.0,-865.0,449.0,3.0,-7.0,3.0,150,123,111,130,142
2025-02-27 15:46:49.137,-359.0,-861.0,460.0,3.0,-6.0,3.0,151,126,113,131,141
2025-02-27 15:46:49.141,-357.0,-852.0,459.0,2.0,-5.0,3.0,149,125,112,128,139
2025-02-27 15:46:49.148,-358.0,-854.0,466.0,3.0,-4.0,2.0,149,124,112,128,140
2025-02-27 15:46:49.152,-352.0,-849.0,472.0,1.0,-4.0,2.0,152,125,113,130,141
2025-02-27 15:46:49.156,-350.0,-839.0,475.0,1.0,-3.0,1.0,151,125,114,130,142
2025-02-27 15:46:49.161,-342.0,-847.0,471.0,0.0,-3.0,1.0,150,123,111,129,140
2025-02-27 15:46:49.165,-346.0,-848.0,453.0,0.0,-3.0,0.0,151,124,111,129,139
2025-02-27 15:46:49.173,-342.0,-856.0,464.0,1.0,-4.0,0.0,150,125,113,131,142
2025-02-27 15:46:49.177,-345.0,-860.0,470.0,1.0,-4.0,0.0,149,124,111,129,141
2025-02-27 15:46:49.181,-354.0,-876.0,458.0,0.0,-4.0,0.0,150,124,110,128,140
2025-02-27 15:46:49.185,-365.0,-863.0,483.0,0.0,-4.0,0.0,147,125,113,130,141
2025-02-27 15:46:49.193,-364.0,-878.0,479.0,0.0,-4.0,0.0,152,126,113,131,142
2025-02-27 15:46:49.198,-374.0,-865.0,469.0,0.0,-4.0,0.0,150,125,113,126,140
2025-02-27 15:46:49.202,-359.0,-874.0,482.0,0.0,-4.0,0.0,147,123,111,128,140
2025-02-27 15:46:49.206,-363.0,-882.0,468.0,-1.0,-3.0,-1.0,151,124,115,131,142
2025-02-27 15:46:49.214,-348.0,-879.0,482.0,-2.0,-1.0,0.0,149,125,113,129,140
2025-02-27 15:46:49.218,-355.0,-875.0,466.0,-3.0,-1.0,0.0,149,123,112,128,140
2025-02-27 15:46:49.223,-357.0,-860.0,461.0,-3.0,1.0,0.0,149,124,112,128,140
2025-02-27 15:46:49.227,-336.0,-840.0,490.0,-4.0,3.0,0.0,151,127,114,131,143
2025-02-27 15:46:49.234,-330.0,-871.0,499.0,-4.0,5.0,0.0,150,125,113,129,141
2025-02-27 15:46:49.239,-336.0,-836.0,464.0,-5.0,5.0,-1.0,150,125,112,128,139
2025-02-27 15:46:49.243,-315.0,-844.0,434.0,-8.0,4.0,-2.0,150,125,112,130,141
2025-02-27 15:46:49.247,-319.0,-833.0,447.0,-7.0,2.0,-3.0,150,126,114,133,142
2025-02-27 15:46:49.255,-339.0,-869.0,443.0,-6.0,3.0,-3.0,150,125,112,130,141
2025-02-27 15:46:49.259,-357.0,-902.0,409.0,-8.0,1.0,-3.0,148,124,113,130,139
2025-02-27 15:46:49.263,-373.0,-895.0,398.0,-7.0,0.0,-3.0,150,125,113,130,140
2025-02-27 15:46:49.268,-373.0,-891.0,397.0,-9.0,-2.0,-2.0,151,125,113,131,142
2025-02-27 15:46:49.276,-380.0,-880.0,422.0,-7.0,-1.0,-1.0,148,124,113,129,140
2025-02-27 15:46:49.279,-371.0,-879.0,441.0,-9.0,-2.0,-1.0,148,124,111,128,140
2025-02-27 15:46:49.284,-355.0,-861.0,443.0,-11.0,1.0,0.0,149,126,112,131,141
2025-02-27 15:46:49.289,-353.0,-853.0,419.0,-12.0,2.0,-1.0,150,127,115,131,141
2025-02-27 15:46:49.296,-324.0,-842.0,445.0,-13.0,2.0,-2.0,149,124,110,129,139
2025-02-27 15:46:49.301,-321.0,-835.0,440.0,-14.0,3.0,-4.0,149,123,111,128,138
2025-02-27 15:46:49.305,-299.0,-807.0,449.0,-17.0,7.0,-4.0,150,124,113,130,140
2025-02-27 15:46:49.313,-296.0,-815.0,434.0,-18.0,7.0,-6.0,152,125,113,128,142
2025-02-27 15:46:49.317,-292.0,-814.0,420.0,-19.0,8.0,-7.0,148,125,113,131,142
2025-02-27 15:46:49.321,-292.0,-841.0,423.0,-20.0,9.0,-8.0,147,125,110,129,140
2025-02-27 15:46:49.326,-293.0,-817.0,373.0,-20.0,7.0,-8.0,149,125,112,130,139
2025-02-27 15:46:49.333,-314.0,-838.0,357.0,-18.0,4.0,-7.0,150,126,113,130,141
2025-02-27 15:46:49.338,-330.0,-855.0,376.0,-17.0,2.0,-7.0,150,124,114,130,141
2025-02-27 15:46:49.342,-325.0,-846.0,338.0,-16.0,2.0,-7.0,149,125,113,128,139
2025-02-27 15:46:49.349,-344.0,-852.0,318.0,-14.0,-2.0,-7.0,149,124,112,131,140
2025-02-27 15:46:49.353,-347.0,-870.0,346.0,-14.0,-4.0,-5.0,151,126,113,130,140
2025-02-27 15:46:49.357,-348.0,-884.0,362.0,-13.0,-4.0,-5.0,151,126,114,130,142
2025-02-27 15:46:49.362,-336.0,-852.0,342.0,-12.0,-6.0,-5.0,149,125,113,132,140
2025-02-27 15:46:49.370,-328.0,-867.0,354.0,-10.0,-6.0,-4.0,150,126,114,130,142
2025-02-27 15:46:49.374,-333.0,-865.0,388.0,-8.0,-4.0,-3.0,147,124,112,128,140
2025-02-27 15:46:49.378,-312.0,-850.0,369.0,-8.0,-4.0,-2.0,150,125,112,129,141
2025-02-27 15:46:49.386,-306.0,-833.0,381.0,-7.0,-3.0,-2.0,151,124,113,128,141
2025-02-27 15:46:49.390,-290.0,-817.0,402.0,-6.0,-2.0,-2.0,150,125,113,129,141
2025-02-27 15:46:49.395,-286.0,-812.0,392.0,-6.0,-1.0,-2.0,150,125,112,129,140
2025-02-27 15:46:49.398,-286.0,-814.0,402.0,-4.0,0.0,-3.0,150,126,112,129,140
2025-02-27 15:46:49.411,-286.0,-799.0,404.0,-1.0,1.0,-5.0,150,126,112,130,141
2025-02-27 15:46:49.414,-291.0,-808.0,370.0,-2.0,0.0,-6.0,151,125,113,125,141
2025-02-27 15:46:49.416,-304.0,-820.0,371.0,0.0,0.0,-7.0,150,125,111,130,140
2025-02-27 15:46:49.420,-319.0,-819.0,367.0,1.0,-1.0,-8.0,149,124,112,131,141
2025-02-27 15:46:49.427,-314.0,-819.0,369.0,1.0,-1.0,-8.0,149,125,113,130,141
2025-02-27 15:46:49.432,-320.0,-817.0,352.0,1.0,-1.0,-10.0,149,124,113,129,140
2025-02-27 15:46:49.436,-295.0,-826.0,356.0,0.0,-1.0,-10.0,149,125,112,130,139
2025-02-27 15:46:49.439,-298.0,-826.0,349.0,1.0,-2.0,-11.0,149,125,115,131,140
2025-02-27 15:46:49.448,-300.0,-826.0,332.0,0.0,-3.0,-12.0,150,126,115,130,141
2025-02-27 15:46:49.452,-310.0,-840.0,344.0,1.0,-3.0,-13.0,149,125,112,130,142
2025-02-27 15:46:49.456,-313.0,-854.0,320.0,1.0,-4.0,-14.0,150,124,112,129,141
2025-02-27 15:46:49.464,-321.0,-862.0,335.0,1.0,-5.0,-14.0,150,125,113,131,140
2025-02-27 15:46:49.468,-322.0,-869.0,338.0,2.0,-7.0,-14.0,150,125,112,130,141
2025-02-27 15:46:49.472,-323.0,-874.0,356.0,3.0,-7.0,-14.0,149,125,114,131,141
2025-02-27 15:46:49.477,-314.0,-875.0,354.0,5.0,-8.0,-14.0,149,125,110,127,139
2025-02-27 15:46:49.484,-307.0,-873.0,366.0,5.0,-8.0,-14.0,150,124,115,128,140
2025-02-27 15:46:49.488,-312.0,-883.0,380.0,5.0,-8.0,-14.0,152,127,115,130,142
2025-02-27 15:46:49.493,-313.0,-887.0,370.0,5.0,-9.0,-15.0,149,126,112,130,140
2025-02-27 15:46:49.501,-319.0,-905.0,380.0,4.0,-9.0,-15.0,149,125,113,126,137
2025-02-27 15:46:49.505,-318.0,-903.0,389.0,5.0,-9.0,-15.0,149,124,112,127,139
2025-02-27 15:46:49.510,-315.0,-913.0,394.0,5.0,-9.0,-15.0,151,127,115,130,142
2025-02-27 15:46:49.513,-305.0,-926.0,405.0,5.0,-9.0,-14.0,150,125,113,130,141
2025-02-27 15:46:49.521,-300.0,-930.0,427.0,6.0,-8.0,-13.0,149,124,111,129,140
2025-02-27 15:46:49.525,-302.0,-933.0,404.0,8.0,-9.0,-13.0,149,124,113,129,140
2025-02-27 15:46:49.529,-310.0,-941.0,412.0,8.0,-10.0,-12.0,154,126,113,130,141
2025-02-27 15:46:49.534,-314.0,-957.0,432.0,8.0,-10.0,-11.0,152,125,112,130,141
2025-02-27 15:46:49.541,-315.0,-950.0,433.0,8.0,-10.0,-10.0,150,122,112,129,142
2025-02-27 15:46:49.546,-314.0,-961.0,438.0,7.0,-10.0,-8.0,148,124,112,128,140
2025-02-27 15:46:49.550,-310.0,-958.0,441.0,6.0,-9.0,-7.0,154,124,112,128,139
2025-02-27 15:46:49.558,-314.0,-946.0,443.0,5.0,-9.0,-8.0,151,126,113,130,141
2025-02-27 15:46:49.562,-315.0,-968.0,448.0,3.0,-9.0,-6.0,149,127,112,129,142
2025-02-27 15:46:49.567,-316.0,-935.0,448.0,0.0,-10.0,-7.0,151,125,113,130,140
2025-02-27 15:46:49.571,-311.0,-945.0,459.0,-3.0,-10.0,-7.0,150,125,111,129,140
2025-02-27 15:46:49.579,-311.0,-943.0,450.0,-6.0,-10.0,-7.0,152,125,113,131,142
2025-02-27 15:46:49.583,-312.0,-944.0,447.0,-8.0,-11.0,-8.0,151,125,113,129,140
2025-02-27 15:46:49.588,-299.0,-950.0,447.0,-10.0,-12.0,-7.0,150,125,112,130,141
2025-02-27 15:46:49.595,-309.0,-954.0,445.0,-12.0,-12.0,-6.0,149,125,112,129,140
2025-02-27 15:46:49.599,-298.0,-951.0,448.0,-12.0,-13.0,-5.0,149,124,114,130,141
2025-02-27 15:46:49.604,-305.0,-952.0,443.0,-12.0,-14.0,-4.0,150,125,112,129,142
2025-02-27 15:46:49.611,-313.0,-942.0,450.0,-12.0,-14.0,-3.0,151,126,114,132,142
2025-02-27 15:46:49.616,-322.0,-947.0,453.0,-11.0,-14.0,-2.0,151,126,111,129,140
2025-02-27 15:46:49.620,-314.0,-947.0,457.0,-11.0,-15.0,-1.0,149,125,111,128,140
2025-02-27 15:46:49.628,-315.0,-946.0,458.0,-10.0,-15.0,1.0,149,125,111,129,140
2025-02-27 15:46:49.632,-312.0,-944.0,464.0,-10.0,-14.0,2.0,147,125,112,128,140
2025-02-27 15:46:49.636,-313.0,-930.0,465.0,-9.0,-14.0,3.0,151,126,112,130,141
2025-02-27 15:46:49.641,-308.0,-916.0,475.0,-9.0,-12.0,4.0,150,128,111,129,139
2025-02-27 15:46:49.648,-303.0,-908.0,485.0,-9.0,-11.0,4.0,148,123,112,130,139
2025-02-27 15:46:49.652,-304.0,-894.0,481.0,-10.0,-11.0,5.0,151,125,110,129,140
2025-02-27 15:46:49.656,-302.0,-887.0,485.0,-10.0,-11.0,4.0,151,126,112,130,142
2025-02-27 15:46:49.664,-302.0,-880.0,488.0,-10.0,-10.0,4.0,150,126,113,131,141
2025-02-27 15:46:49.669,-300.0,-874.0,487.0,-11.0,-9.0,4.0,149,124,113,128,141
2025-02-27 15:46:49.672,-298.0,-867.0,491.0,-11.0,-8.0,3.0,148,123,112,128,139
2025-02-27 15:46:49.678,-292.0,-865.0,488.0,-12.0,-8.0,3.0,148,118,112,127,139
2025-02-27 15:46:49.685,-301.0,-860.0,485.0,-13.0,-6.0,2.0,152,127,115,130,140
2025-02-27 15:46:49.690,-303.0,-859.0,479.0,-13.0,-6.0,2.0,153,127,116,130,142
2025-02-27 15:46:49.694,-306.0,-869.0,475.0,-14.0,-6.0,3.0,148,124,112,129,140
2025-02-27 15:46:49.698,-305.0,-875.0,463.0,-14.0,-5.0,3.0,148,125,112,129,140
2025-02-27 15:46:49.705,-311.0,-875.0,470.0,-13.0,-5.0,5.0,150,126,113,130,141
2025-02-27 15:46:49.709,-310.0,-878.0,460.0,-13.0,-5.0,6.0,151,126,114,131,142
2025-02-27 15:46:49.714,-314.0,-872.0,461.0,-13.0,-4.0,7.0,150,127,114,129,141
2025-02-27 15:46:49.722,-309.0,-875.0,459.0,-12.0,-3.0,8.0,148,123,111,128,140
2025-02-27 15:46:49.726,-297.0,-867.0,461.0,-11.0,-2.0,9.0,150,126,113,130,141
2025-02-27 15:46:49.731,-300.0,-860.0,457.0,-10.0,-1.0,9.0,149,125,114,131,141
2025-02-27 15:46:49.735,-293.0,-838.0,437.0,-9.0,0.0,9.0,150,124,114,129,140
2025-02-27 15:46:49.742,-297.0,-836.0,440.0,-8.0,0.0,9.0,148,124,109,129,140
2025-02-27 15:46:49.746,-289.0,-827.0,424.0,-8.0,0.0,9.0,151,127,112,130,141
2025-02-27 15:46:49.750,-285.0,-825.0,422.0,-6.0,0.0,9.0,151,129,112,131,144
2025-02-27 15:46:49.755,-279.0,-814.0,427.0,-6.0,0.0,8.0,151,124,113,129,140
2025-02-27 15:46:49.762,-282.0,-821.0,419.0,-4.0,1.0,8.0,148,123,111,128,135
2025-02-27 15:46:49.766,-281.0,-807.0,412.0,-2.0,0.0,7.0,151,125,113,131,143
2025-02-27 15:46:49.771,-288.0,-814.0,400.0,-2.0,-1.0,7.0,151,126,117,132,142
2025-02-27 15:46:49.775,-286.0,-795.0,416.0,-1.0,-2.0,6.0,149,123,110,128,140
2025-02-27 15:46:49.783,-294.0,-810.0,412.0,1.0,-2.0,6.0,152,126,113,131,141
2025-02-27 15:46:49.787,-288.0,-789.0,415.0,1.0,-4.0,4.0,150,127,112,130,140
2025-02-27 15:46:49.792,-293.0,-806.0,427.0,1.0,-3.0,2.0,150,124,112,129,141
2025-02-27 15:46:49.796,-293.0,-782.0,409.0,0.0,-4.0,2.0,148,124,113,128,140
2025-02-27 15:46:49.800,-304.0,-815.0,422.0,1.0,-4.0,2.0,149,124,112,127,141
2025-02-27 15:46:49.808,-307.0,-808.0,441.0,2.0,-3.0,1.0,150,126,113,129,141
2025-02-27 15:46:49.812,-305.0,-813.0,433.0,1.0,-2.0,0.0,151,128,112,129,140
2025-02-27 15:46:49.816,-309.0,-811.0,441.0,2.0,-1.0,0.0,151,126,113,130,141
2025-02-27 15:46:49.821,-321.0,-818.0,431.0,1.0,1.0,0.0,154,125,113,130,140
2025-02-27 15:46:49.828,-309.0,-822.0,454.0,0.0,2.0,-1.0,150,124,111,129,140
2025-02-27 15:46:49.833,-312.0,-834.0,425.0,1.0,3.0,-1.0,150,126,112,128,139
2025-02-27 15:46:49.837,-304.0,-829.0,424.0,0.0,4.0,-2.0,152,127,113,130,141
2025-02-27 15:46:49.841,-298.0,-827.0,425.0,1.0,5.0,-2.0,151,126,113,129,140
2025-02-27 15:46:49.849,-298.0,-826.0,415.0,0.0,5.0,-3.0,150,124,110,129,141
2025-02-27 15:46:49.853,-292.0,-826.0,403.0,0.0,4.0,-4.0,151,126,115,132,142
2025-02-27 15:46:49.858,-296.0,-832.0,405.0,0.0,4.0,-4.0,149,126,113,130,142
2025-02-27 15:46:49.862,-294.0,-825.0,392.0,0.0,3.0,-5.0,150,125,112,128,140
2025-02-27 15:46:49.869,-301.0,-829.0,395.0,-1.0,2.0,-5.0,148,124,111,129,140
2025-02-27 15:46:49.874,-303.0,-837.0,398.0,0.0,1.0,-5.0,150,125,113,132,141
2025-02-27 15:46:49.878,-315.0,-845.0,390.0,1.0,0.0,-5.0,151,127,114,130,141
2025-02-27 15:46:49.882,-314.0,-850.0,396.0,1.0,-1.0,-5.0,148,122,111,128,139
2025-02-27 15:46:49.886,-329.0,-844.0,404.0,1.0,-2.0,-5.0,151,124,111,131,139
2025-02-27 15:46:49.894,-323.0,-854.0,403.0,2.0,-1.0,-6.0,151,127,113,129,141
2025-02-27 15:46:49.898,-334.0,-861.0,411.0,1.0,-1.0,-6.0,151,124,112,131,140
2025-02-27 15:46:49.902,-333.0,-852.0,406.0,1.0,-1.0,-6.0,149,124,112,128,140
2025-02-27 15:46:49.909,-326.0,-859.0,435.0,0.0,0.0,-7.0,150,126,114,130,141
2025-02-27 15:46:49.914,-321.0,-866.0,427.0,0.0,2.0,-7.0,150,126,113,131,143
2025-02-27 15:46:49.918,-322.0,-863.0,423.0,-2.0,3.0,-7.0,150,125,111,129,139
2025-02-27 15:46:49.922,-310.0,-858.0,438.0,-3.0,6.0,-7.0,148,124,112,129,140
2025-02-27 15:46:49.930,-315.0,-850.0,408.0,-5.0,7.0,-8.0,150,124,114,131,143
2025-02-27 15:46:49.934,-316.0,-850.0,412.0,-4.0,7.0,-9.0,149,125,113,130,141
2025-02-27 15:46:49.939,-317.0,-849.0,391.0,-4.0,7.0,-10.0,149,124,113,130,140
2025-02-27 15:46:49.943,-308.0,-857.0,394.0,-6.0,8.0,-10.0,149,124,113,128,140
2025-02-27 15:46:49.951,-320.0,-870.0,385.0,-4.0,7.0,-10.0,151,126,114,131,142
2025-02-27 15:46:49.955,-305.0,-875.0,368.0,-4.0,7.0,-10.0,150,125,112,131,141
2025-02-27 15:46:49.960,-309.0,-888.0,364.0,-3.0,6.0,-10.0,149,124,111,128,140
2025-02-27 15:46:49.964,-317.0,-905.0,359.0,-2.0,5.0,-10.0,150,123,112,128,140
2025-02-27 15:46:49.972,-314.0,-898.0,361.0,-1.0,4.0,-9.0,151,125,113,131,142
2025-02-27 15:46:49.976,-308.0,-893.0,361.0,0.0,3.0,-9.0,151,127,113,128,141
2025-02-27 15:46:49.981,-302.0,-900.0,380.0,0.0,2.0,-9.0,149,125,112,129,140
2025-02-27 15:46:49.984,-297.0,-908.0,383.0,0.0,3.0,-9.0,149,124,113,130,140
2025-02-27 15:46:49.992,-287.0,-899.0,380.0,0.0,2.0,-9.0,151,126,114,131,141
2025-02-27 15:46:49.996,-277.0,-897.0,398.0,0.0,3.0,-9.0,151,125,112,129,140
2025-02-27 15:46:50.000,-269.0,-906.0,403.0,0.0,2.0,-10.0,149,124,113,129,140
2025-02-27 15:46:50.005,-269.0,-903.0,407.0,1.0,3.0,-9.0,150,125,113,129,140
2025-02-27 15:46:50.012,-282.0,-913.0,392.0,0.0,4.0,-9.0,151,127,112,130,142
2025-02-27 15:46:50.017,-276.0,-911.0,402.0,0.0,5.0,-9.0,151,124,113,131,138
2025-02-27 15:46:50.021,-269.0,-917.0,407.0,2.0,4.0,-8.0,148,124,112,128,139
2025-02-27 15:46:50.025,-270.0,-919.0,400.0,1.0,5.0,-8.0,150,124,113,129,141
2025-02-27 15:46:50.032,-276.0,-926.0,391.0,1.0,5.0,-8.0,151,127,113,130,142
2025-02-27 15:46:50.037,-283.0,-927.0,375.0,2.0,3.0,-7.0,151,126,112,128,140
2025-02-27 15:46:50.041,-284.0,-931.0,392.0,2.0,4.0,-6.0,151,124,111,129,141
2025-02-27 15:46:50.046,-292.0,-923.0,392.0,1.0,3.0,-6.0,149,126,113,130,141
2025-02-27 15:46:50.050,-296.0,-920.0,363.0,2.0,2.0,-5.0,150,126,110,131,141
2025-02-27 15:46:50.058,-300.0,-932.0,387.0,1.0,1.0,-5.0,149,125,113,131,139
2025-02-27 15:46:50.062,-307.0,-931.0,386.0,0.0,1.0,-5.0,146,125,114,133,141
2025-02-27 15:46:50.066,-298.0,-914.0,380.0,1.0,-1.0,-4.0,149,125,112,129,140
2025-02-27 15:46:50.071,-295.0,-921.0,378.0,0.0,-2.0,-4.0,149,126,111,131,141
2025-02-27 15:46:50.078,-301.0,-920.0,388.0,0.0,-2.0,-5.0,149,126,116,130,143
2025-02-27 15:46:50.083,-299.0,-920.0,396.0,-1.0,-3.0,-5.0,148,125,113,133,141
2025-02-27 15:46:50.087,-300.0,-925.0,392.0,-1.0,-2.0,-4.0,150,124,112,129,139
2025-02-27 15:46:50.095,-288.0,-923.0,404.0,-1.0,-3.0,-4.0,145,122,115,133,140
2025-02-27 15:46:50.099,-294.0,-924.0,395.0,-3.0,-2.0,-4.0,150,126,113,131,141
2025-02-27 15:46:50.103,-299.0,-922.0,392.0,0.0,-2.0,-4.0,150,125,113,129,140
2025-02-27 15:46:50.107,-304.0,-927.0,404.0,0.0,-1.0,-3.0,150,125,111,129,141
2025-02-27 15:46:50.115,-299.0,-937.0,400.0,0.0,0.0,-2.0,150,126,112,129,139
2025-02-27 15:46:50.119,-313.0,-913.0,385.0,-1.0,1.0,-2.0,150,127,114,129,140
2025-02-27 15:46:50.123,-328.0,-920.0,383.0,0.0,0.0,-1.0,150,126,113,129,141
2025-02-27 15:46:50.127,-319.0,-925.0,407.0,0.0,1.0,-1.0,151,126,107,127,141
2025-02-27 15:46:50.135,-319.0,-914.0,393.0,-1.0,2.0,-1.0,149,122,112,128,139
2025-02-27 15:46:50.139,-316.0,-909.0,383.0,-2.0,2.0,-1.0,149,128,117,131,139
2025-02-27 15:46:50.144,-309.0,-896.0,393.0,-2.0,2.0,-1.0,149,123,113,131,140
2025-02-27 15:46:50.148,-304.0,-895.0,392.0,-3.0,3.0,-2.0,152,125,107,126,140
2025-02-27 15:46:50.156,-299.0,-888.0,380.0,-3.0,2.0,-3.0,147,127,114,130,138
2025-02-27 15:46:50.160,-296.0,-891.0,386.0,-4.0,1.0,-3.0,151,125,109,127,141
2025-02-27 15:46:50.165,-292.0,-894.0,386.0,-5.0,1.0,-4.0,150,123,110,128,143
2025-02-27 15:46:50.169,-286.0,-892.0,383.0,-4.0,1.0,-4.0,151,126,113,131,141
2025-02-27 15:46:50.177,-284.0,-888.0,366.0,-4.0,0.0,-4.0,150,125,114,130,141
2025-02-27 15:46:50.181,-286.0,-898.0,369.0,-3.0,-1.0,-4.0,150,125,114,129,140
2025-02-27 15:46:50.185,-293.0,-901.0,379.0,-3.0,-1.0,-3.0,151,126,114,129,141
2025-02-27 15:46:50.189,-291.0,-905.0,363.0,-1.0,-2.0,-3.0,149,125,114,130,142
2025-02-27 15:46:50.197,-283.0,-910.0,381.0,0.0,-2.0,-2.0,150,125,112,129,139
2025-02-27 15:46:50.201,-285.0,-901.0,387.0,1.0,-3.0,-2.0,150,125,112,129,141
2025-02-27 15:46:50.206,-275.0,-909.0,393.0,1.0,-3.0,-1.0,151,125,115,131,140
2025-02-27 15:46:50.210,-270.0,-910.0,411.0,2.0,-3.0,-1.0,151,125,112,129,141
2025-02-27 15:46:50.218,-269.0,-903.0,408.0,2.0,-3.0,-1.0,150,126,115,131,142
2025-02-27 15:46:50.222,-275.0,-896.0,408.0,1.0,-5.0,0.0,150,125,112,128,141
2025-02-27 15:46:50.226,-277.0,-902.0,428.0,2.0,-4.0,0.0,149,123,112,128,141
2025-02-27 15:46:50.230,-269.0,-910.0,433.0,0.0,-5.0,0.0,149,128,114,130,142
2025-02-27 15:46:50.238,-271.0,-910.0,422.0,1.0,-5.0,0.0,151,126,114,131,141
2025-02-27 15:46:50.242,-269.0,-911.0,439.0,0.0,-4.0,1.0,150,125,112,129,139
2025-02-27 15:46:50.246,-271.0,-897.0,428.0,0.0,-3.0,0.0,150,124,111,128,140
2025-02-27 15:46:50.250,-271.0,-886.0,412.0,0.0,-4.0,0.0,151,127,115,130,141
2025-02-27 15:46:50.259,-274.0,-891.0,421.0,-2.0,-4.0,1.0,150,126,114,130,141
2025-02-27 15:46:50.263,-291.0,-895.0,414.0,-1.0,-3.0,1.0,150,124,109,129,140
2025-02-27 15:46:50.267,-292.0,-885.0,400.0,-2.0,-3.0,1.0,147,125,112,128,140
2025-02-27 15:46:50.272,-299.0,-890.0,400.0,-2.0,-3.0,1.0,148,126,114,129,142
2025-02-27 15:46:50.279,-303.0,-885.0,403.0,-3.0,-3.0,1.0,151,125,113,130,141
2025-02-27 15:46:50.284,-294.0,-875.0,405.0,-3.0,-3.0,1.0,148,121,112,128,138
2025-02-27 15:46:50.288,-293.0,-860.0,393.0,-3.0,-3.0,1.0,150,125,113,130,140
2025-02-27 15:46:50.292,-291.0,-862.0,401.0,-4.0,-4.0,1.0,151,127,114,130,140
2025-02-27 15:46:50.300,-282.0,-861.0,400.0,-4.0,-3.0,0.0,150,126,113,130,141
2025-02-27 15:46:50.303,-272.0,-848.0,399.0,-4.0,-3.0,-1.0,149,124,115,128,140
2025-02-27 15:46:50.308,-273.0,-846.0,395.0,-4.0,-3.0,-1.0,149,124,112,130,140
2025-02-27 15:46:50.312,-269.0,-846.0,405.0,-4.0,-3.0,-2.0,149,126,114,130,144
2025-02-27 15:46:50.320,-258.0,-846.0,406.0,-4.0,-4.0,-3.0,151,127,112,130,141
2025-02-27 15:46:50.324,-255.0,-845.0,417.0,-4.0,-3.0,-3.0,148,124,111,130,140
2025-02-27 15:46:50.329,-255.0,-860.0,414.0,-4.0,-2.0,-4.0,148,124,112,129,140
2025-02-27 15:46:50.336,-264.0,-851.0,380.0,-3.0,-3.0,-4.0,150,126,113,130,141
2025-02-27 15:46:50.340,-286.0,-865.0,377.0,-3.0,-4.0,-5.0,150,126,114,131,140
2025-02-27 15:46:50.345,-291.0,-888.0,401.0,-2.0,-4.0,-4.0,149,125,112,128,141
2025-02-27 15:46:50.349,-300.0,-894.0,383.0,-2.0,-4.0,-4.0,149,125,113,130,141
2025-02-27 15:46:50.357,-304.0,-897.0,393.0,-2.0,-5.0,-4.0,149,125,113,127,140
2025-02-27 15:46:50.361,-309.0,-898.0,400.0,-2.0,-4.0,-3.0,151,126,114,131,142
2025-02-27 15:46:50.365,-303.0,-890.0,392.0,-2.0,-4.0,-3.0,149,124,112,128,140
2025-02-27 15:46:50.369,-302.0,-887.0,399.0,-3.0,-4.0,-4.0,150,126,113,130,140
2025-02-27 15:46:50.378,-289.0,-885.0,414.0,-4.0,-3.0,-4.0,148,125,112,129,140
2025-02-27 15:46:50.381,-280.0,-882.0,410.0,-6.0,-2.0,-4.0,150,125,111,129,140
2025-02-27 15:46:50.386,-268.0,-881.0,410.0,-6.0,-1.0,-4.0,151,126,114,130,140
2025-02-27 15:46:50.393,-255.0,-875.0,413.0,-6.0,0.0,-5.0,151,125,114,130,140
2025-02-27 15:46:50.398,-255.0,-867.0,405.0,-6.0,0.0,-5.0,149,124,113,128,140
2025-02-27 15:46:50.402,-248.0,-875.0,388.0,-6.0,1.0,-5.0,151,127,112,131,141
2025-02-27 15:46:50.406,-250.0,-880.0,395.0,-6.0,1.0,-5.0,150,126,113,130,142
2025-02-27 15:46:50.414,-269.0,-893.0,371.0,-5.0,0.0,-5.0,150,126,111,130,141
2025-02-27 15:46:50.418,-270.0,-900.0,361.0,-5.0,-1.0,-5.0,152,124,111,129,140
2025-02-27 15:46:50.423,-283.0,-912.0,359.0,-4.0,-2.0,-4.0,150,120,113,128,143
2025-02-27 15:46:50.427,-291.0,-928.0,354.0,-3.0,-4.0,-2.0,153,127,114,130,142
2025-02-27 15:46:50.434,-302.0,-924.0,354.0,-2.0,-5.0,-1.0,151,124,113,131,142
2025-02-27 15:46:50.439,-301.0,-923.0,365.0,-1.0,-4.0,0.0,149,124,111,130,140
2025-02-27 15:46:50.443,-298.0,-919.0,366.0,-1.0,-4.0,1.0,150,125,114,130,140
2025-02-27 15:46:50.447,-284.0,-914.0,381.0,-1.0,-3.0,2.0,149,125,113,131,140
2025-02-27 15:46:50.455,-280.0,-912.0,387.0,0.0,-2.0,2.0,149,125,112,129,140
2025-02-27 15:46:50.459,-272.0,-892.0,386.0,0.0,-2.0,2.0,149,125,111,128,138
2025-02-27 15:46:50.464,-266.0,-891.0,391.0,0.0,-1.0,2.0,151,126,114,131,140
2025-02-27 15:46:50.468,-262.0,-875.0,400.0,1.0,0.0,2.0,150,125,112,129,139
2025-02-27 15:46:50.475,-248.0,-839.0,391.0,-1.0,0.0,0.0,150,125,112,128,140
2025-02-27 15:46:50.480,-259.0,-871.0,364.0,0.0,0.0,0.0,148,126,110,128,142
2025-02-27 15:46:50.484,-253.0,-835.0,380.0,0.0,0.0,-1.0,151,124,115,131,141
2025-02-27 15:46:50.488,-252.0,-843.0,362.0,0.0,-1.0,-2.0,145,124,114,129,140
2025-02-27 15:46:50.496,-259.0,-832.0,373.0,-1.0,-2.0,-3.0,151,126,109,126,141
2025-02-27 15:46:50.500,-265.0,-853.0,373.0,-1.0,-3.0,-4.0,153,127,114,129,141
2025-02-27 15:46:50.505,-266.0,-848.0,365.0,-2.0,-5.0,-5.0,145,122,111,128,140
2025-02-27 15:46:50.509,-288.0,-865.0,344.0,-1.0,-6.0,-6.0,146,126,111,126,140
2025-02-27 15:46:50.516,-274.0,-879.0,354.0,1.0,-9.0,-7.0,153,126,113,130,140
2025-02-27 15:46:50.521,-282.0,-898.0,370.0,-4.0,-7.0,-7.0,149,125,110,130,141
2025-02-27 15:46:50.525,-273.0,-898.0,394.0,1.0,-5.0,-6.0,150,125,114,131,141
2025-02-27 15:46:50.529,-278.0,-915.0,352.0,1.0,-7.0,-6.0,151,128,114,134,142
2025-02-27 15:46:50.537,-255.0,-892.0,422.0,-3.0,-6.0,-6.0,148,123,113,129,140
2025-02-27 15:46:50.541,-253.0,-891.0,383.0,1.0,-6.0,-5.0,151,125,113,130,139
2025-02-27 15:46:50.546,-256.0,-895.0,393.0,1.0,-7.0,-5.0,149,125,114,129,141
2025-02-27 15:46:50.553,-247.0,-895.0,407.0,0.0,-7.0,-5.0,150,124,113,130,141
2025-02-27 15:46:50.557,-257.0,-925.0,394.0,3.0,-6.0,-5.0,150,125,108,129,140
2025-02-27 15:46:50.562,-250.0,-899.0,414.0,2.0,-7.0,-4.0,148,126,114,130,141
2025-02-27 15:46:50.566,-279.0,-903.0,362.0,1.0,-8.0,-4.0,150,125,113,130,141
2025-02-27 15:46:50.574,-269.0,-928.0,419.0,5.0,-7.0,-3.0,151,126,113,131,141
2025-02-27 15:46:50.578,-279.0,-916.0,392.0,2.0,-6.0,-3.0,149,124,111,128,140
2025-02-27 15:46:50.582,-301.0,-935.0,387.0,5.0,-7.0,-2.0,150,125,115,130,141
2025-02-27 15:46:50.586,-301.0,-914.0,419.0,3.0,-11.0,-3.0,150,124,110,129,140
2025-02-27 15:46:50.594,-309.0,-917.0,380.0,6.0,-11.0,-2.0,149,125,113,128,140
2025-02-27 15:46:50.598,-283.0,-915.0,469.0,4.0,-7.0,-2.0,148,124,112,130,139
2025-02-27 15:46:50.603,-291.0,-932.0,433.0,8.0,-8.0,-2.0,150,125,113,128,142
2025-02-27 15:46:50.607,-287.0,-908.0,394.0,6.0,-9.0,-2.0,150,125,113,128,140
2025-02-27 15:46:50.614,-270.0,-895.0,428.0,3.0,-8.0,-3.0,150,123,112,129,140
2025-02-27 15:46:50.619,-274.0,-878.0,443.0,7.0,-8.0,-3.0,150,124,111,129,139
2025-02-27 15:46:50.623,-267.0,-913.0,428.0,3.0,-5.0,-3.0,148,125,112,134,141
2025-02-27 15:46:50.627,-259.0,-898.0,450.0,5.0,-5.0,-2.0,150,125,114,129,140
2025-02-27 15:46:50.635,-271.0,-887.0,425.0,0.0,-5.0,-3.0,152,125,113,129,140
2025-02-27 15:46:50.639,-258.0,-901.0,424.0,1.0,-5.0,-3.0,151,126,114,129,141
2025-02-27 15:46:50.644,-265.0,-908.0,425.0,0.0,-5.0,-3.0,149,125,111,130,142
2025-02-27 15:46:50.648,-273.0,-921.0,434.0,1.0,-6.0,-2.0,151,125,114,132,141
2025-02-27 15:46:50.655,-281.0,-924.0,460.0,0.0,-4.0,-2.0,149,125,112,129,144
2025-02-27 15:46:50.660,-280.0,-922.0,397.0,1.0,-7.0,-2.0,150,126,112,129,141
2025-02-27 15:46:50.664,-292.0,-889.0,419.0,22.0,-4.0,-2.0,150,125,112,130,141
2025-02-27 15:46:50.669,-403.0,-970.0,405.0,21.0,-22.0,4.0,151,126,113,130,140
2025-02-27 15:46:50.676,-372.0,-907.0,730.0,2.0,-8.0,2.0,149,124,112,130,140
2025-02-27 15:46:50.680,-262.0,-871.0,478.0,-5.0,-9.0,-1.0,149,127,111,129,142
2025-02-27 15:46:50.684,-267.0,-1011.0,637.0,4.0,-2.0,10.0,150,127,114,130,141
2025-02-27 15:46:50.692,-322.0,-938.0,503.0,9.0,-11.0,3.0,151,127,115,131,142
2025-02-27 15:46:50.697,-338.0,-829.0,455.0,6.0,-9.0,4.0,149,124,113,129,140
2025-02-27 15:46:50.701,-241.0,-904.0,489.0,-2.0,2.0,4.0,149,125,113,130,141
2025-02-27 15:46:50.705,-345.0,-887.0,337.0,3.0,-8.0,-1.0,150,125,113,129,142
2025-02-27 15:46:50.709,-289.0,-979.0,546.0,3.0,-5.0,6.0,150,127,114,129,142
2025-02-27 15:46:50.718,-297.0,-998.0,424.0,-2.0,5.0,4.0,149,124,112,129,141
2025-02-27 15:46:50.722,-331.0,-832.0,241.0,-10.0,-11.0,-1.0,151,126,113,130,141
2025-02-27 15:46:50.726,-263.0,-896.0,418.0,-11.0,-5.0,1.0,150,126,114,130,140
2025-02-27 15:46:50.733,-279.0,-890.0,529.0,-6.0,2.0,0.0,151,125,114,129,141
2025-02-27 15:46:50.738,-319.0,-873.0,381.0,0.0,-1.0,-1.0,149,124,108,132,140
2025-02-27 15:46:50.742,-279.0,-876.0,426.0,-3.0,1.0,-1.0,149,125,113,132,141
2025-02-27 15:46:50.746,-299.0,-896.0,434.0,0.0,-2.0,-2.0,152,124,113,131,140
2025-02-27 15:46:50.754,-303.0,-893.0,337.0,-1.0,-6.0,-1.0,150,126,113,130,140
2025-02-27 15:46:50.758,-287.0,-931.0,473.0,-2.0,-7.0,0.0,149,124,113,130,139
2025-02-27 15:46:50.762,-273.0,-917.0,472.0,2.0,-3.0,0.0,151,126,112,130,141
2025-02-27 15:46:50.767,-267.0,-891.0,407.0,0.0,-2.0,1.0,150,124,114,129,140
2025-02-27 15:46:50.774,-268.0,-899.0,455.0,5.0,2.0,2.0,150,125,112,129,140
2025-02-27 15:46:50.784,-249.0,-895.0,463.0,5.0,6.0,3.0,150,126,113,130,141
2025-02-27 15:46:50.787,-258.0,-878.0,402.0,3.0,4.0,1.0,150,125,111,129,141
2025-02-27 15:46:50.790,-254.0,-864.0,359.0,2.0,0.0,0.0,148,124,112,128,139
2025-02-27 15:46:50.793,-266.0,-871.0,458.0,-5.0,1.0,1.0,152,127,114,130,142
2025-02-27 15:46:50.799,-255.0,-875.0,419.0,-2.0,0.0,-1.0,151,125,119,131,141
2025-02-27 15:46:50.803,-261.0,-876.0,400.0,-2.0,-1.0,-1.0,149,124,112,128,139
2025-02-27 15:46:50.808,-270.0,-883.0,464.0,2.0,2.0,-2.0,150,124,112,128,140
2025-02-27 15:46:50.812,-253.0,-873.0,426.0,3.0,5.0,-1.0,151,124,114,131,140
2025-02-27 15:46:50.820,-256.0,-860.0,393.0,4.0,0.0,-2.0,149,126,113,129,142
2025-02-27 15:46:50.824,-262.0,-858.0,354.0,2.0,-4.0,-3.0,148,124,108,128,139
2025-02-27 15:46:50.828,-261.0,-904.0,434.0,9.0,-6.0,-2.0,162,133,111,127,139
2025-02-27 15:46:50.832,-268.0,-900.0,393.0,7.0,-12.0,-3.0,140,117,115,131,144
2025-02-27 15:46:50.840,-252.0,-854.0,362.0,7.0,-16.0,-5.0,152,119,113,134,140
2025-02-27 15:46:50.844,-252.0,-904.0,499.0,9.0,-10.0,-2.0,131,125,115,124,140
2025-02-27 15:46:50.849,-224.0,-913.0,467.0,11.0,-2.0,-1.0,168,123,110,133,139
2025-02-27 15:46:50.856,-236.0,-875.0,424.0,10.0,-7.0,-4.0,145,131,114,127,140
2025-02-27 15:46:50.861,-262.0,-893.0,416.0,10.0,-7.0,-4.0,160,121,114,125,141
2025-02-27 15:46:50.865,-249.0,-885.0,425.0,9.0,-8.0,-4.0,133,126,114,123,140
2025-02-27 15:46:50.869,-251.0,-894.0,441.0,6.0,-7.0,-4.0,149,125,112,129,139
2025-02-27 15:46:50.877,-241.0,-889.0,490.0,9.0,-5.0,-4.0,149,125,114,130,142
2025-02-27 15:46:50.881,-246.0,-895.0,460.0,13.0,-1.0,-2.0,149,126,112,130,142
2025-02-27 15:46:50.886,-243.0,-894.0,467.0,14.0,0.0,-2.0,149,125,110,129,140
2025-02-27 15:46:50.890,-241.0,-897.0,426.0,11.0,0.0,-2.0,149,125,111,129,143
2025-02-27 15:46:50.898,-270.0,-891.0,392.0,11.0,-4.0,-2.0,150,127,114,130,141
2025-02-27 15:46:50.902,-261.0,-894.0,437.0,8.0,1.0,-2.0,151,125,114,129,140
2025-02-27 15:46:50.906,-245.0,-914.0,461.0,11.0,4.0,0.0,148,124,112,128,140
2025-02-27 15:46:50.910,-297.0,-861.0,407.0,17.0,-1.0,-1.0,150,126,113,129,140
2025-02-27 15:46:50.918,-251.0,-919.0,480.0,11.0,14.0,2.0,150,126,113,130,140
2025-02-27 15:46:50.922,-234.0,-857.0,546.0,14.0,22.0,5.0,150,126,112,130,142
2025-02-27 15:46:50.926,-266.0,-862.0,267.0,13.0,10.0,2.0,148,125,112,129,140
2025-02-27 15:46:50.931,-312.0,-878.0,384.0,0.0,-9.0,0.0,150,126,113,129,141
2025-02-27 15:46:50.939,-225.0,-892.0,532.0,-2.0,5.0,5.0,150,125,114,129,141
2025-02-27 15:46:50.943,-301.0,-846.0,470.0,-4.0,4.0,4.0,151,126,114,129,139
2025-02-27 15:46:50.947,-286.0,-873.0,416.0,2.0,3.0,4.0,149,125,112,127,140
2025-02-27 15:46:50.951,-275.0,-875.0,470.0,-2.0,11.0,5.0,152,128,114,131,143
2025-02-27 15:46:50.959,-273.0,-849.0,555.0,-11.0,27.0,4.0,151,126,113,129,141
2025-02-27 15:46:50.963,-245.0,-788.0,404.0,-28.0,27.0,3.0,149,123,114,130,139
2025-02-27 15:46:50.967,-298.0,-735.0,402.0,-44.0,14.0,-1.0,150,124,113,131,141
2025-02-27 15:46:50.972,-250.0,-823.0,346.0,-53.0,11.0,-1.0,150,127,114,130,141
2025-02-27 15:46:50.979,-310.0,-822.0,472.0,-58.0,16.0,0.0,151,125,114,130,141
2025-02-27 15:46:50.984,-317.0,-832.0,355.0,-58.0,3.0,-5.0,151,127,116,130,140
2025-02-27 15:46:50.988,-347.0,-847.0,367.0,-47.0,3.0,-8.0,148,125,112,128,140
2025-02-27 15:46:50.995,-290.0,-866.0,457.0,-26.0,2.0,-8.0,149,125,112,129,140
2025-02-27 15:46:51.000,-278.0,-884.0,450.0,-9.0,-1.0,-10.0,150,127,114,130,141
2025-02-27 15:46:51.004,-284.0,-886.0,394.0,-5.0,-2.0,-10.0,152,125,114,129,141
2025-02-27 15:46:51.009,-303.0,-910.0,403.0,-1.0,-3.0,-9.0,149,125,112,129,139
2025-02-27 15:46:51.016,-302.0,-903.0,336.0,2.0,-7.0,-10.0,151,124,112,128,141
2025-02-27 15:46:51.020,-281.0,-887.0,438.0,4.0,-10.0,-9.0,151,125,112,129,141
2025-02-27 15:46:51.025,-282.0,-937.0,435.0,4.0,-7.0,-8.0,151,126,113,128,141
2025-02-27 15:46:51.033,-237.0,-895.0,443.0,3.0,-3.0,-6.0,149,125,113,129,141
2025-02-27 15:46:51.037,-257.0,-907.0,445.0,8.0,0.0,-4.0,148,124,113,128,141
2025-02-27 15:46:51.041,-265.0,-961.0,471.0,4.0,6.0,-3.0,151,125,113,130,141
2025-02-27 15:46:51.046,-251.0,-886.0,410.0,3.0,5.0,-3.0,151,125,113,130,142
2025-02-27 15:46:51.049,-279.0,-901.0,335.0,0.0,-1.0,-2.0,149,125,113,129,140
2025-02-27 15:46:51.057,-263.0,-913.0,451.0,1.0,4.0,1.0,148,126,113,129,140
2025-02-27 15:46:51.061,-287.0,-937.0,387.0,-2.0,-2.0,0.0,150,126,113,130,141
2025-02-27 15:46:51.065,-280.0,-919.0,372.0,-2.0,-4.0,0.0,150,126,112,129,141
2025-02-27 15:46:51.070,-285.0,-919.0,476.0,3.0,-1.0,1.0,149,126,113,129,141
2025-02-27 15:46:51.077,-280.0,-951.0,408.0,6.0,0.0,1.0,151,126,114,129,141
2025-02-27 15:46:51.081,-281.0,-887.0,364.0,6.0,-2.0,0.0,151,124,112,128,141
2025-02-27 15:46:51.086,-274.0,-925.0,436.0,8.0,-2.0,1.0,148,123,113,128,140
2025-02-27 15:46:51.090,-283.0,-915.0,403.0,3.0,-2.0,0.0,149,126,113,130,140
2025-02-27 15:46:51.098,-267.0,-862.0,382.0,-3.0,-4.0,-1.0,150,127,114,130,141
2025-02-27 15:46:51.103,-269.0,-895.0,415.0,-4.0,-3.0,1.0,149,124,112,128,141
2025-02-27 15:46:51.107,-265.0,-875.0,421.0,-7.0,-2.0,0.0,148,124,113,129,140
2025-02-27 15:46:51.111,-261.0,-874.0,402.0,-8.0,-1.0,0.0,152,127,117,132,142
2025-02-27 15:46:51.118,-271.0,-907.0,420.0,-5.0,0.0,0.0,152,125,113,130,141
2025-02-27 15:46:51.123,-271.0,-889.0,398.0,-4.0,-2.0,-1.0,149,124,113,129,140
2025-02-27 15:46:51.127,-277.0,-903.0,406.0,2.0,-1.0,0.0,149,124,113,130,140
2025-02-27 15:46:51.131,-264.0,-910.0,392.0,5.0,-2.0,0.0,152,127,115,132,143
2025-02-27 15:46:51.139,-272.0,-893.0,359.0,7.0,-6.0,-1.0,151,124,114,130,140
2025-02-27 15:46:51.143,-274.0,-924.0,419.0,13.0,-5.0,0.0,149,126,112,129,139
2025-02-27 15:46:51.147,-267.0,-899.0,414.0,14.0,-2.0,0.0,147,124,112,129,139
2025-02-27 15:46:51.152,-255.0,-896.0,423.0,4.0,0.0,0.0,151,127,116,131,142
2025-02-27 15:46:51.159,-250.0,-870.0,381.0,2.0,-1.0,0.0,149,125,113,129,141
2025-02-27 15:46:51.164,-282.0,-890.0,403.0,3.0,-2.0,1.0,149,125,111,130,141
2025-02-27 15:46:51.168,-262.0,-885.0,407.0,-2.0,0.0,1.0,151,125,114,131,140
2025-02-27 15:46:51.172,-278.0,-857.0,361.0,-1.0,-6.0,-1.0,151,127,115,131,142
2025-02-27 15:46:51.180,-273.0,-904.0,449.0,-1.0,-4.0,-1.0,172,128,109,133,140
2025-02-27 15:46:51.184,-260.0,-889.0,452.0,-1.0,-1.0,0.0,163,120,107,135,140
2025-02-27 15:46:51.188,-261.0,-874.0,408.0,3.0,1.0,-1.0,173,127,109,134,139
2025-02-27 15:46:51.193,-266.0,-881.0,395.0,4.0,-3.0,-2.0,175,118,113,132,143
2025-02-27 15:46:51.200,-265.0,-898.0,438.0,4.0,-2.0,-2.0,153,133,114,127,139
2025-02-27 15:46:51.205,-257.0,-887.0,413.0,3.0,0.0,-2.0,148,115,108,133,141
2025-02-27 15:46:51.209,-279.0,-887.0,392.0,-2.0,-2.0,-2.0,144,117,112,133,141
2025-02-27 15:46:51.213,-265.0,-870.0,393.0,-4.0,-4.0,-3.0,150,124,114,130,141
2025-02-27 15:46:51.221,-277.0,-896.0,416.0,-4.0,-4.0,-2.0,150,125,113,128,140
2025-02-27 15:46:51.225,-275.0,-898.0,436.0,-3.0,-2.0,-2.0,151,124,109,128,140
2025-02-27 15:46:51.229,-268.0,-882.0,421.0,-1.0,-1.0,-2.0,154,125,114,130,141
2025-02-27 15:46:51.237,-276.0,-894.0,414.0,-1.0,-1.0,-2.0,151,125,115,129,139
2025-02-27 15:46:51.241,-270.0,-897.0,414.0,-1.0,-1.0,-2.0,151,125,112,129,140
2025-02-27 15:46:51.246,-267.0,-893.0,408.0,0.0,-2.0,-2.0,149,124,111,130,139
2025-02-27 15:46:51.250,-266.0,-896.0,414.0,3.0,-3.0,-2.0,152,126,113,129,141
2025-02-27 15:46:51.258,-258.0,-898.0,427.0,4.0,-2.0,-2.0,152,125,114,131,141
2025-02-27 15:46:51.262,-261.0,-891.0,420.0,5.0,-1.0,-2.0,149,125,114,129,140
2025-02-27 15:46:51.266,-259.0,-898.0,413.0,4.0,-1.0,-1.0,148,124,109,128,140
2025-02-27 15:46:51.271,-254.0,-898.0,428.0,2.0,-1.0,0.0,151,126,114,130,141
2025-02-27 15:46:51.278,-250.0,-901.0,424.0,3.0,-1.0,0.0,151,126,115,131,142
2025-02-27 15:46:51.283,-261.0,-899.0,396.0,2.0,-2.0,1.0,150,124,112,128,141
2025-02-27 15:46:51.287,-262.0,-898.0,417.0,2.0,-3.0,1.0,151,123,110,128,139
2025-02-27 15:46:51.291,-263.0,-894.0,413.0,1.0,-3.0,2.0,153,127,115,130,142
2025-02-27 15:46:51.295,-263.0,-908.0,445.0,2.0,-2.0,2.0,151,125,113,131,142
2025-02-27 15:46:51.303,-267.0,-885.0,416.0,3.0,-3.0,2.0,149,123,112,129,140
2025-02-27 15:46:51.307,-268.0,-892.0,430.0,3.0,-2.0,2.0,150,126,112,128,140
2025-02-27 15:46:51.312,-270.0,-892.0,433.0,3.0,-2.0,2.0,152,127,114,130,143
2025-02-27 15:46:51.316,-270.0,-875.0,426.0,3.0,-3.0,1.0,148,125,112,129,141
2025-02-27 15:46:51.324,-265.0,-878.0,435.0,2.0,-3.0,1.0,149,125,112,129,140
2025-02-27 15:46:51.328,-269.0,-878.0,436.0,1.0,-2.0,0.0,150,127,112,131,141
2025-02-27 15:46:51.332,-269.0,-881.0,425.0,0.0,-3.0,0.0,151,126,113,130,141
2025-02-27 15:46:51.336,-269.0,-875.0,436.0,0.0,-3.0,-1.0,150,124,112,129,141
2025-02-27 15:46:51.343,-269.0,-881.0,435.0,-1.0,-3.0,-1.0,151,126,113,130,140
2025-02-27 15:46:51.348,-274.0,-884.0,436.0,1.0,-3.0,-1.0,150,125,114,130,142
2025-02-27 15:46:51.352,-272.0,-888.0,437.0,1.0,-2.0,-1.0,150,128,113,130,141
2025-02-27 15:46:51.357,-272.0,-889.0,453.0,2.0,-2.0,0.0,149,124,113,129,140
2025-02-27 15:46:51.364,-275.0,-889.0,439.0,2.0,-2.0,-1.0,150,125,113,129,141
2025-02-27 15:46:51.369,-277.0,-896.0,443.0,2.0,-2.0,0.0,150,125,111,131,141
2025-02-27 15:46:51.373,-273.0,-894.0,454.0,2.0,-2.0,0.0,150,126,114,130,141
2025-02-27 15:46:51.377,-270.0,-889.0,444.0,2.0,-1.0,1.0,153,126,114,131,141
2025-02-27 15:46:51.385,-271.0,-887.0,438.0,0.0,-1.0,0.0,150,126,113,129,140
2025-02-27 15:46:51.389,-279.0,-885.0,442.0,0.0,-1.0,1.0,151,124,114,128,140
2025-02-27 15:46:51.393,-278.0,-889.0,443.0,-1.0,-1.0,1.0,147,125,113,129,141
2025-02-27 15:46:51.398,-275.0,-887.0,442.0,-1.0,-1.0,1.0,150,127,115,131,141
2025-02-27 15:46:51.405,-285.0,-884.0,428.0,0.0,-2.0,0.0,150,125,113,130,141
2025-02-27 15:46:51.410,-286.0,-880.0,440.0,-1.0,-2.0,0.0,148,125,111,127,140
2025-02-27 15:46:51.414,-279.0,-882.0,449.0,0.0,-2.0,0.0,150,124,113,128,140
2025-02-27 15:46:51.418,-279.0,-880.0,436.0,0.0,-2.0,0.0,149,128,115,130,142
2025-02-27 15:46:51.426,-277.0,-877.0,438.0,0.0,-2.0,-1.0,151,127,112,129,140
2025-02-27 15:46:51.429,-271.0,-880.0,453.0,0.0,-2.0,-1.0,149,123,112,129,141
2025-02-27 15:46:51.435,-268.0,-883.0,448.0,0.0,-1.0,-1.0,151,126,114,131,141
2025-02-27 15:46:51.439,-269.0,-883.0,450.0,-1.0,0.0,-1.0,150,127,113,130,141
2025-02-27 15:46:51.447,-271.0,-885.0,453.0,0.0,1.0,-1.0,152,124,114,127,140
2025-02-27 15:46:51.451,-263.0,-881.0,448.0,0.0,1.0,-1.0,149,125,113,128,140
2025-02-27 15:46:51.455,-271.0,-887.0,444.0,-1.0,2.0,0.0,150,127,119,131,142
2025-02-27 15:46:51.459,-268.0,-884.0,450.0,0.0,3.0,0.0,151,125,115,129,142
2025-02-27 15:46:51.463,-268.0,-880.0,434.0,-1.0,2.0,0.0,151,123,112,127,139
2025-02-27 15:46:51.471,-270.0,-877.0,432.0,-1.0,2.0,0.0,150,126,115,130,140
2025-02-27 15:46:51.475,-272.0,-886.0,443.0,0.0,2.0,0.0,151,128,115,130,143
2025-02-27 15:46:51.480,-269.0,-877.0,431.0,-1.0,2.0,0.0,150,124,112,129,140
2025-02-27 15:46:51.484,-265.0,-878.0,427.0,0.0,2.0,0.0,149,121,112,128,138
2025-02-27 15:46:51.491,-261.0,-870.0,425.0,-1.0,1.0,0.0,150,126,113,129,142
2025-02-27 15:46:51.495,-267.0,-870.0,430.0,-1.0,0.0,0.0,151,126,114,130,141
2025-02-27 15:46:51.499,-269.0,-866.0,433.0,-1.0,0.0,-1.0,149,125,111,130,141
2025-02-27 15:46:51.504,-264.0,-864.0,426.0,-2.0,0.0,-1.0,149,122,114,129,138
2025-02-27 15:46:51.512,-273.0,-866.0,423.0,-2.0,-1.0,-2.0,147,125,114,131,141
2025-02-27 15:46:51.516,-268.0,-861.0,430.0,-2.0,0.0,-2.0,150,126,115,131,140
2025-02-27 15:46:51.520,-267.0,-870.0,441.0,-1.0,0.0,-2.0,149,124,112,130,140
2025-02-27 15:46:51.524,-272.0,-871.0,424.0,-1.0,0.0,-2.0,149,125,111,128,141
2025-02-27 15:46:51.532,-266.0,-872.0,429.0,-1.0,0.0,-3.0,152,125,113,131,141
2025-02-27 15:46:51.536,-264.0,-875.0,440.0,-1.0,0.0,-3.0,151,124,114,130,140
2025-02-27 15:46:51.540,-270.0,-870.0,424.0,-1.0,0.0,-3.0,149,125,113,129,140
2025-02-27 15:46:51.545,-268.0,-876.0,429.0,-1.0,0.0,-3.0,150,124,113,130,142
2025-02-27 15:46:51.553,-271.0,-883.0,433.0,0.0,0.0,-2.0,152,125,112,129,141
2025-02-27 15:46:51.557,-257.0,-876.0,435.0,-1.0,0.0,-2.0,150,125,113,131,140
2025-02-27 15:46:51.561,-266.0,-887.0,439.0,-1.0,1.0,-2.0,148,123,111,128,140
2025-02-27 15:46:51.565,-270.0,-882.0,429.0,1.0,1.0,-2.0,147,125,110,130,141
2025-02-27 15:46:51.574,-256.0,-873.0,435.0,1.0,1.0,-2.0,150,126,115,130,141
2025-02-27 15:46:51.578,-265.0,-869.0,409.0,0.0,1.0,-2.0,149,125,113,129,141
2025-02-27 15:46:51.582,-276.0,-887.0,424.0,1.0,0.0,-2.0,151,125,113,130,141
2025-02-27 15:46:51.586,-270.0,-879.0,428.0,1.0,0.0,-2.0,150,127,113,130,141
2025-02-27 15:46:51.594,-278.0,-880.0,422.0,1.0,0.0,-2.0,150,125,113,128,140
2025-02-27 15:46:51.598,-277.0,-884.0,422.0,2.0,-2.0,-2.0,149,123,112,128,139
2025-02-27 15:46:51.602,-278.0,-892.0,422.0,2.0,-2.0,-2.0,153,125,113,129,141
2025-02-27 15:46:51.607,-282.0,-896.0,433.0,2.0,-2.0,-2.0,151,125,113,128,139
2025-02-27 15:46:51.614,-276.0,-884.0,434.0,2.0,-3.0,-2.0,151,126,113,130,141
2025-02-27 15:46:51.618,-277.0,-892.0,443.0,1.0,-3.0,-2.0,149,125,113,129,141
2025-02-27 15:46:51.622,-271.0,-888.0,453.0,1.0,-2.0,-2.0,150,125,113,130,141
2025-02-27 15:46:51.627,-277.0,-892.0,459.0,1.0,-1.0,-2.0,151,126,111,128,140
2025-02-27 15:46:51.634,-277.0,-887.0,467.0,0.0,-1.0,-2.0,150,125,113,130,141
2025-02-27 15:46:51.639,-274.0,-884.0,460.0,0.0,0.0,-2.0,151,127,114,129,141
2025-02-27 15:46:51.643,-279.0,-889.0,458.0,-1.0,1.0,-2.0,150,124,113,130,141
2025-02-27 15:46:51.647,-275.0,-884.0,458.0,-2.0,2.0,-2.0,149,125,112,128,140
2025-02-27 15:46:51.655,-271.0,-892.0,444.0,-1.0,2.0,-2.0,151,126,113,130,140
2025-02-27 15:46:51.659,-278.0,-894.0,458.0,-2.0,2.0,-2.0,150,127,114,131,142
2025-02-27 15:46:51.663,-280.0,-892.0,452.0,-2.0,3.0,-2.0,151,125,113,134,142
2025-02-27 15:46:51.668,-286.0,-894.0,445.0,-1.0,3.0,-1.0,149,125,112,129,140
2025-02-27 15:46:51.675,-284.0,-892.0,440.0,-1.0,4.0,-1.0,152,124,113,130,141
2025-02-27 15:46:51.679,-287.0,-895.0,438.0,-1.0,3.0,-1.0,150,126,116,131,141
2025-02-27 15:46:51.684,-283.0,-893.0,431.0,-1.0,4.0,-1.0,150,125,113,130,140
2025-02-27 15:46:51.688,-289.0,-893.0,442.0,-1.0,4.0,-1.0,149,124,112,129,139
2025-02-27 15:46:51.696,-287.0,-887.0,439.0,-2.0,3.0,-1.0,150,124,113,128,140
2025-02-27 15:46:51.701,-282.0,-876.0,432.0,-2.0,3.0,-2.0,150,124,114,131,142
2025-02-27 15:46:51.705,-292.0,-878.0,429.0,-2.0,2.0,-2.0,149,123,113,130,141
2025-02-27 15:46:51.709,-282.0,-887.0,439.0,-3.0,2.0,-2.0,148,125,113,126,141
2025-02-27 15:46:51.717,-270.0,-880.0,449.0,-3.0,3.0,-3.0,151,126,112,129,141
2025-02-27 15:46:51.721,-271.0,-889.0,431.0,-4.0,3.0,-2.0,150,124,112,131,142
2025-02-27 15:46:51.725,-267.0,-888.0,427.0,-3.0,3.0,-3.0,150,125,113,129,140
2025-02-27 15:46:51.729,-267.0,-879.0,429.0,-4.0,3.0,-3.0,150,123,112,131,140
2025-02-27 15:46:51.737,-267.0,-882.0,429.0,-3.0,3.0,-3.0,155,125,113,132,141
2025-02-27 15:46:51.741,-273.0,-883.0,422.0,-3.0,3.0,-3.0,149,124,114,131,141
2025-02-27 15:46:51.745,-272.0,-883.0,423.0,-3.0,2.0,-3.0,149,124,114,130,140
2025-02-27 15:46:51.750,-270.0,-890.0,442.0,-3.0,3.0,-3.0,149,125,112,128,138
2025-02-27 15:46:51.758,-274.0,-887.0,427.0,-2.0,2.0,-3.0,152,125,115,131,141
2025-02-27 15:46:51.762,-264.0,-892.0,430.0,-2.0,3.0,-3.0,152,126,113,130,142
2025-02-27 15:46:51.766,-266.0,-881.0,430.0,-2.0,3.0,-3.0,150,124,114,127,139
2025-02-27 15:46:51.770,-268.0,-890.0,422.0,-2.0,2.0,-3.0,149,125,113,131,140
2025-02-27 15:46:51.778,-270.0,-897.0,428.0,-1.0,2.0,-3.0,152,126,113,131,141
2025-02-27 15:46:51.782,-268.0,-899.0,429.0,-1.0,3.0,-3.0,150,126,114,130,141
2025-02-27 15:46:51.787,-265.0,-899.0,431.0,-1.0,3.0,-2.0,151,124,113,128,140
2025-02-27 15:46:51.795,-257.0,-889.0,426.0,-1.0,4.0,-2.0,149,125,112,129,141
2025-02-27 15:46:51.799,-265.0,-885.0,427.0,-1.0,4.0,-2.0,153,126,113,131,141
2025-02-27 15:46:51.803,-262.0,-881.0,423.0,-1.0,4.0,-2.0,150,124,113,129,142
2025-02-27 15:46:51.807,-266.0,-889.0,419.0,-1.0,4.0,-2.0,148,124,112,129,138
2025-02-27 15:46:51.815,-266.0,-889.0,412.0,-1.0,3.0,-2.0,149,124,112,129,139
2025-02-27 15:46:51.819,-262.0,-882.0,416.0,-1.0,3.0,-2.0,151,126,114,131,141
2025-02-27 15:46:51.823,-261.0,-886.0,406.0,-1.0,3.0,-2.0,149,125,113,129,140
2025-02-27 15:46:51.827,-262.0,-900.0,415.0,-3.0,3.0,-2.0,148,125,113,130,140
2025-02-27 15:46:51.835,-271.0,-900.0,404.0,-2.0,1.0,-3.0,150,126,112,130,142
2025-02-27 15:46:51.840,-274.0,-893.0,400.0,-2.0,0.0,-3.0,152,126,116,129,141
2025-02-27 15:46:51.844,-266.0,-892.0,411.0,-2.0,0.0,-2.0,151,125,113,130,140
2025-02-27 15:46:51.848,-269.0,-890.0,406.0,-3.0,-1.0,-2.0,150,124,112,129,139
2025-02-27 15:46:51.855,-270.0,-887.0,404.0,-2.0,-1.0,-2.0,151,125,113,131,141
2025-02-27 15:46:51.861,-265.0,-878.0,410.0,-2.0,-2.0,-2.0,151,125,113,130,141
2025-02-27 15:46:51.865,-262.0,-893.0,430.0,-2.0,-1.0,-2.0,149,123,110,129,140
2025-02-27 15:46:51.868,-266.0,-885.0,417.0,-1.0,0.0,-2.0,148,124,113,128,139
2025-02-27 15:46:51.877,-262.0,-894.0,419.0,-1.0,-1.0,-2.0,147,126,114,129,140
2025-02-27 15:46:51.881,-258.0,-885.0,418.0,-1.0,0.0,-1.0,151,126,113,130,141
2025-02-27 15:46:51.885,-264.0,-884.0,425.0,-1.0,0.0,-1.0,149,124,113,129,140
2025-02-27 15:46:51.889,-265.0,-878.0,415.0,-2.0,0.0,-1.0,150,124,114,129,140
2025-02-27 15:46:51.897,-264.0,-888.0,434.0,-1.0,1.0,-1.0,151,122,112,129,142
2025-02-27 15:46:51.901,-266.0,-886.0,427.0,-1.0,1.0,-1.0,153,125,112,129,141
2025-02-27 15:46:51.906,-265.0,-885.0,413.0,-2.0,1.0,-1.0,153,126,113,129,139
2025-02-27 15:46:51.910,-265.0,-878.0,415.0,-2.0,1.0,-1.0,148,125,112,129,140
2025-02-27 15:46:51.917,-262.0,-882.0,408.0,-2.0,1.0,-1.0,154,125,114,136,141
2025-02-27 15:46:51.922,-264.0,-887.0,412.0,-2.0,1.0,-1.0,150,125,114,130,141
2025-02-27 15:46:51.926,-266.0,-884.0,410.0,-2.0,0.0,-1.0,150,125,114,129,140
2025-02-27 15:46:51.933,-263.0,-889.0,405.0,-2.0,0.0,-1.0,149,124,111,129,140
2025-02-27 15:46:51.938,-262.0,-880.0,409.0,-1.0,1.0,-1.0,152,128,114,132,140
2025-02-27 15:46:51.942,-258.0,-881.0,401.0,-1.0,0.0,-1.0,151,126,114,130,141
2025-02-27 15:46:51.946,-265.0,-880.0,395.0,-1.0,-2.0,-1.0,150,124,113,130,140
2025-02-27 15:46:51.955,-265.0,-882.0,402.0,0.0,-2.0,-2.0,151,124,111,128,139
2025-02-27 15:46:51.958,-269.0,-887.0,405.0,0.0,-2.0,-2.0,150,126,113,130,141
2025-02-27 15:46:51.962,-273.0,-881.0,403.0,0.0,-3.0,-2.0,150,127,114,127,141
2025-02-27 15:46:51.967,-271.0,-881.0,410.0,0.0,-4.0,-2.0,149,125,112,129,140
2025-02-27 15:46:51.975,-275.0,-878.0,422.0,0.0,-4.0,-2.0,150,124,112,128,140
2025-02-27 15:46:51.979,-276.0,-881.0,424.0,0.0,-4.0,-3.0,152,125,114,131,141
2025-02-27 15:46:51.983,-279.0,-886.0,417.0,0.0,-4.0,-3.0,150,126,114,130,141
2025-02-27 15:46:51.987,-274.0,-898.0,430.0,0.0,-4.0,-3.0,150,124,112,129,140
2025-02-27 15:46:51.995,-266.0,-896.0,432.0,-1.0,-3.0,-2.0,149,126,114,130,141
2025-02-27 15:46:52.000,-271.0,-890.0,431.0,0.0,-2.0,-2.0,154,127,115,130,141
2025-02-27 15:46:52.004,-272.0,-895.0,431.0,0.0,-1.0,-1.0,150,126,113,130,141
2025-02-27 15:46:52.009,-273.0,-894.0,433.0,0.0,-1.0,-1.0,149,124,113,129,140
2025-02-27 15:46:52.016,-272.0,-902.0,432.0,0.0,-1.0,-2.0,150,123,114,131,141
2025-02-27 15:46:52.021,-274.0,-899.0,430.0,-1.0,-1.0,-1.0,150,124,114,131,141
2025-02-27 15:46:52.026,-276.0,-897.0,432.0,-1.0,-1.0,-2.0,150,124,114,131,142
2025-02-27 15:46:52.030,-265.0,-899.0,432.0,-1.0,-1.0,-2.0,150,125,112,129,140
2025-02-27 15:46:52.037,-270.0,-898.0,434.0,-1.0,-1.0,-2.0,151,125,111,130,140
2025-02-27 15:46:52.042,-265.0,-898.0,433.0,-1.0,0.0,-1.0,150,126,115,130,142
2025-02-27 15:46:52.047,-266.0,-892.0,433.0,-1.0,0.0,-1.0,149,125,114,130,141
2025-02-27 15:46:52.052,-264.0,-900.0,432.0,-1.0,0.0,-1.0,148,124,112,128,140
2025-02-27 15:46:52.057,-262.0,-897.0,429.0,-1.0,0.0,-1.0,150,124,113,130,140
2025-02-27 15:46:52.061,-259.0,-899.0,426.0,-1.0,0.0,0.0,151,126,114,129,140
2025-02-27 15:46:52.065,-261.0,-896.0,423.0,-1.0,0.0,0.0,151,123,113,128,140
2025-02-27 15:46:52.069,-257.0,-896.0,423.0,-1.0,0.0,0.0,148,122,110,127,140
2025-02-27 15:46:52.077,-261.0,-894.0,418.0,-1.0,-1.0,0.0,149,124,114,130,141
2025-02-27 15:46:52.081,-261.0,-895.0,421.0,-1.0,-1.0,0.0,150,125,114,131,142
2025-02-27 15:46:52.086,-262.0,-888.0,424.0,-1.0,-1.0,0.0,149,124,111,129,141
2025-02-27 15:46:52.093,-262.0,-888.0,416.0,-1.0,-1.0,0.0,152,125,113,128,139
2025-02-27 15:46:52.098,-266.0,-882.0,416.0,-1.0,-2.0,0.0,151,127,116,131,141
2025-02-27 15:46:52.102,-269.0,-885.0,422.0,-1.0,-2.0,0.0,151,124,112,130,142
2025-02-27 15:46:52.106,-266.0,-885.0,415.0,-1.0,-2.0,0.0,150,124,112,130,140
2025-02-27 15:46:52.114,-269.0,-878.0,427.0,-1.0,-2.0,0.0,148,123,113,128,140
2025-02-27 15:46:52.118,-269.0,-886.0,425.0,0.0,-2.0,-1.0,152,125,115,130,139
2025-02-27 15:46:52.122,-273.0,-882.0,422.0,0.0,-3.0,-1.0,151,127,113,129,142
2025-02-27 15:46:52.134,-267.0,-883.0,426.0,0.0,-3.0,-1.0,151,123,111,129,140
2025-02-27 15:46:52.136,-266.0,-880.0,431.0,0.0,-3.0,-1.0,150,124,112,128,140
2025-02-27 15:46:52.138,-274.0,-884.0,431.0,0.0,-3.0,-1.0,152,127,114,130,142
2025-02-27 15:46:52.143,-269.0,-882.0,436.0,-1.0,-2.0,-1.0,151,126,115,129,141
2025-02-27 15:46:52.147,-271.0,-882.0,440.0,-1.0,-2.0,-1.0,149,124,113,129,140
2025-02-27 15:46:52.155,-270.0,-879.0,439.0,-2.0,-2.0,-2.0,150,123,113,129,140
2025-02-27 15:46:52.159,-274.0,-882.0,437.0,-2.0,-2.0,-1.0,151,127,114,130,141
2025-02-27 15:46:52.163,-274.0,-881.0,438.0,-2.0,-1.0,-1.0,151,124,113,130,140
2025-02-27 15:46:52.167,-272.0,-892.0,443.0,-1.0,-1.0,-1.0,149,125,113,129,141
2025-02-27 15:46:52.175,-277.0,-891.0,435.0,-1.0,-1.0,-1.0,150,125,114,130,141
2025-02-27 15:46:52.179,-268.0,-890.0,447.0,0.0,0.0,0.0,150,125,112,130,141
2025-02-27 15:46:52.184,-268.0,-895.0,448.0,0.0,2.0,0.0,153,124,113,130,141
2025-02-27 15:46:52.188,-271.0,-888.0,440.0,0.0,1.0,0.0,149,125,113,128,139
2025-02-27 15:46:52.195,-272.0,-886.0,441.0,0.0,2.0,0.0,153,125,113,130,141
2025-02-27 15:46:52.200,-270.0,-881.0,434.0,0.0,2.0,0.0,151,126,114,128,141
2025-02-27 15:46:52.204,-274.0,-881.0,424.0,0.0,1.0,0.0,148,123,113,127,139
2025-02-27 15:46:52.208,-279.0,-878.0,429.0,-1.0,0.0,-1.0,149,124,112,128,140
2025-02-27 15:46:52.216,-271.0,-881.0,428.0,-1.0,0.0,-1.0,151,124,114,131,143
2025-02-27 15:46:52.220,-271.0,-876.0,425.0,-1.0,-1.0,-1.0,151,126,113,129,141
2025-02-27 15:46:52.224,-268.0,-882.0,426.0,0.0,-1.0,-2.0,148,124,113,129,139
2025-02-27 15:46:52.229,-270.0,-883.0,430.0,-1.0,-2.0,-2.0,148,123,113,128,140
2025-02-27 15:46:52.237,-268.0,-875.0,425.0,-1.0,-2.0,-2.0,151,126,113,130,141
2025-02-27 15:46:52.241,-269.0,-879.0,425.0,-1.0,-2.0,-2.0,151,125,114,130,141
2025-02-27 15:46:52.245,-267.0,-881.0,433.0,-1.0,-3.0,-2.0,150,123,112,130,140
2025-02-27 15:46:52.250,-264.0,-877.0,433.0,-1.0,-2.0,-2.0,151,124,112,129,140
2025-02-27 15:46:52.257,-270.0,-881.0,435.0,-2.0,-2.0,-2.0,151,126,114,131,141
2025-02-27 15:46:52.261,-278.0,-882.0,436.0,-2.0,-2.0,-2.0,153,127,114,129,140
2025-02-27 15:46:52.266,-273.0,-882.0,429.0,-2.0,-2.0,-2.0,150,126,111,129,142
2025-02-27 15:46:52.274,-272.0,-888.0,443.0,-2.0,-1.0,-1.0,150,123,111,131,140
2025-02-27 15:46:52.278,-270.0,-891.0,436.0,-1.0,0.0,-1.0,150,125,111,131,140
2025-02-27 15:46:52.282,-271.0,-881.0,430.0,-2.0,-1.0,-1.0,150,126,114,130,141
2025-02-27 15:46:52.287,-274.0,-885.0,430.0,-1.0,0.0,-1.0,150,123,114,130,140
2025-02-27 15:46:52.294,-270.0,-889.0,441.0,-1.0,0.0,-1.0,149,123,113,127,140
2025-02-27 15:46:52.298,-271.0,-885.0,426.0,-2.0,0.0,-1.0,150,122,113,130,142
2025-02-27 15:46:52.303,-274.0,-878.0,424.0,-2.0,0.0,-1.0,152,127,114,131,141
2025-02-27 15:46:52.307,-269.0,-881.0,432.0,-1.0,0.0,-1.0,150,125,114,129,141
2025-02-27 15:46:52.315,-268.0,-876.0,432.0,-1.0,0.0,-1.0,151,124,112,128,140
2025-02-27 15:46:52.319,-267.0,-876.0,428.0,-1.0,0.0,-1.0,152,126,113,131,142
2025-02-27 15:46:52.323,-271.0,-876.0,429.0,-2.0,0.0,-2.0,151,125,113,129,141
2025-02-27 15:46:52.328,-271.0,-875.0,433.0,-1.0,1.0,-1.0,150,124,113,129,140
2025-02-27 15:46:52.335,-268.0,-875.0,428.0,-1.0,1.0,-1.0,151,124,112,129,140
2025-02-27 15:46:52.339,-269.0,-876.0,428.0,-2.0,1.0,-2.0,151,126,113,131,141
2025-02-27 15:46:52.344,-270.0,-873.0,428.0,-1.0,1.0,-2.0,149,126,115,128,142
2025-02-27 15:46:52.348,-271.0,-874.0,426.0,-1.0,0.0,-1.0,149,122,113,130,140
2025-02-27 15:46:52.355,-272.0,-878.0,432.0,-1.0,0.0,-2.0,150,127,113,130,140
2025-02-27 15:46:52.360,-272.0,-875.0,433.0,-1.0,1.0,-2.0,152,126,114,132,142
2025-02-27 15:46:52.363,-270.0,-879.0,432.0,-1.0,1.0,-2.0,150,124,113,129,141
2025-02-27 15:46:52.368,-267.0,-882.0,432.0,0.0,1.0,-2.0,149,125,112,129,140
2025-02-27 15:46:52.376,-270.0,-883.0,428.0,-1.0,1.0,-2.0,150,124,114,130,141
2025-02-27 15:46:52.380,-266.0,-880.0,424.0,-1.0,0.0,-2.0,150,125,114,131,141
2025-02-27 15:46:52.384,-269.0,-881.0,428.0,-1.0,0.0,-2.0,149,124,113,130,140
2025-02-27 15:46:52.389,-268.0,-879.0,430.0,-1.0,0.0,-2.0,152,125,112,128,139
2025-02-27 15:46:52.396,-265.0,-888.0,418.0,-1.0,0.0,-2.0,151,126,115,130,141
2025-02-27 15:46:52.400,-267.0,-887.0,428.0,-1.0,0.0,-2.0,150,126,111,130,141
2025-02-27 15:46:52.405,-266.0,-885.0,421.0,-1.0,0.0,-2.0,150,125,113,129,141
2025-02-27 15:46:52.409,-266.0,-889.0,421.0,-1.0,-1.0,-3.0,148,124,112,129,140
2025-02-27 15:46:52.417,-265.0,-886.0,415.0,-1.0,-1.0,-3.0,152,125,115,132,141
2025-02-27 15:46:52.421,-265.0,-887.0,420.0,0.0,-1.0,-3.0,150,125,114,129,141
2025-02-27 15:46:52.426,-268.0,-886.0,430.0,-1.0,-1.0,-2.0,149,125,113,130,140
2025-02-27 15:46:52.434,-269.0,-886.0,421.0,0.0,-1.0,-2.0,149,124,112,130,141
2025-02-27 15:46:52.438,-264.0,-887.0,411.0,0.0,-2.0,-2.0,151,126,116,130,140
2025-02-27 15:46:52.442,-271.0,-896.0,450.0,0.0,-1.0,-2.0,150,123,114,130,141
2025-02-27 15:46:52.446,-273.0,-890.0,434.0,0.0,-1.0,-2.0,151,124,114,131,140
2025-02-27 15:46:52.453,-272.0,-896.0,425.0,1.0,-1.0,-2.0,150,124,112,129,140
2025-02-27 15:46:52.458,-263.0,-885.0,436.0,1.0,-1.0,-2.0,152,127,110,130,141
2025-02-27 15:46:52.462,-265.0,-890.0,431.0,0.0,-1.0,-1.0,151,125,113,131,140
2025-02-27 15:46:52.466,-265.0,-882.0,438.0,0.0,-1.0,-1.0,150,127,113,129,139
2025-02-27 15:46:52.474,-271.0,-892.0,431.0,1.0,-1.0,-1.0,149,124,114,130,140
2025-02-27 15:46:52.478,-261.0,-893.0,443.0,-2.0,0.0,-2.0,151,124,113,131,141
2025-02-27 15:46:52.483,-269.0,-898.0,448.0,0.0,1.0,-1.0,149,125,113,132,142
2025-02-27 15:46:52.487,-269.0,-889.0,425.0,-1.0,0.0,-1.0,149,122,114,130,139
2025-02-27 15:46:52.494,-267.0,-882.0,433.0,-2.0,0.0,-1.0,151,123,112,130,141
2025-02-27 15:46:52.499,-266.0,-892.0,433.0,-1.0,0.0,-1.0,150,126,114,130,141
2025-02-27 15:46:52.503,-260.0,-890.0,435.0,-1.0,0.0,-1.0,151,124,115,131,139
2025-02-27 15:46:52.507,-257.0,-884.0,430.0,-1.0,0.0,-1.0,149,124,112,128,141
2025-02-27 15:46:52.515,-268.0,-889.0,430.0,-1.0,0.0,-1.0,150,124,112,127,139
2025-02-27 15:46:52.519,-262.0,-884.0,436.0,-1.0,0.0,-1.0,151,125,115,131,141
2025-02-27 15:46:52.524,-255.0,-883.0,436.0,-2.0,1.0,-1.0,151,126,113,128,140
2025-02-27 15:46:52.528,-263.0,-883.0,431.0,-1.0,1.0,-1.0,149,123,113,129,140
2025-02-27 15:46:52.535,-265.0,-879.0,420.0,-1.0,0.0,-1.0,150,125,114,130,140
2025-02-27 15:46:52.540,-263.0,-871.0,423.0,-2.0,0.0,-1.0,150,127,113,130,141
2025-02-27 15:46:52.544,-260.0,-872.0,433.0,-2.0,0.0,-1.0,150,125,115,129,140
2025-02-27 15:46:52.549,-276.0,-874.0,419.0,-2.0,0.0,-1.0,148,124,112,127,139
2025-02-27 15:46:52.556,-266.0,-880.0,428.0,-2.0,-1.0,-2.0,152,126,114,131,142
2025-02-27 15:46:52.561,-271.0,-884.0,425.0,-2.0,0.0,-2.0,151,124,114,130,141
2025-02-27 15:46:52.565,-274.0,-885.0,421.0,-2.0,-1.0,-2.0,150,125,113,130,141
2025-02-27 15:46:52.569,-274.0,-879.0,423.0,-2.0,-1.0,-2.0,149,126,112,129,139
2025-02-27 15:46:52.577,-274.0,-880.0,419.0,-2.0,-1.0,-2.0,150,124,113,130,141
2025-02-27 15:46:52.581,-265.0,-884.0,426.0,-1.0,-1.0,-3.0,152,125,114,130,141
2025-02-27 15:46:52.585,-272.0,-880.0,428.0,-1.0,-1.0,-2.0,149,125,113,127,141
2025-02-27 15:46:52.593,-270.0,-887.0,424.0,-1.0,0.0,-3.0,149,124,111,129,140
2025-02-27 15:46:52.597,-267.0,-884.0,428.0,-1.0,0.0,-2.0,148,123,114,129,141
2025-02-27 15:46:52.601,-271.0,-884.0,427.0,0.0,0.0,-3.0,151,125,115,131,141
2025-02-27 15:46:52.606,-265.0,-891.0,430.0,-1.0,0.0,-3.0,150,124,113,128,140
2025-02-27 15:46:52.613,-266.0,-891.0,429.0,-1.0,1.0,-2.0,150,124,111,128,139
2025-02-27 15:46:52.618,-269.0,-891.0,424.0,-1.0,0.0,-2.0,152,124,114,130,140
2025-02-27 15:46:52.622,-269.0,-896.0,419.0,-1.0,0.0,-2.0,150,126,113,131,141
2025-02-27 15:46:52.626,-265.0,-893.0,427.0,-1.0,0.0,-2.0,150,124,116,131,141
2025-02-27 15:46:52.634,-264.0,-888.0,416.0,-1.0,0.0,-2.0,150,123,112,129,141
2025-02-27 15:46:52.638,-264.0,-895.0,420.0,-1.0,0.0,-2.0,152,126,114,131,143
2025-02-27 15:46:52.642,-267.0,-894.0,424.0,-1.0,0.0,-2.0,151,125,113,130,140
2025-02-27 15:46:52.647,-262.0,-892.0,420.0,-1.0,-1.0,-2.0,149,123,113,129,141
2025-02-27 15:46:52.655,-257.0,-891.0,421.0,-1.0,-1.0,-2.0,149,124,112,128,139
2025-02-27 15:46:52.659,-262.0,-897.0,419.0,-1.0,-1.0,-2.0,152,126,113,131,142
2025-02-27 15:46:52.663,-257.0,-896.0,427.0,-1.0,-1.0,-2.0,150,125,113,132,136
2025-02-27 15:46:52.668,-262.0,-899.0,428.0,-1.0,-1.0,-1.0,150,127,113,128,140
2025-02-27 15:46:52.675,-258.0,-901.0,423.0,-1.0,-1.0,-1.0,149,124,113,128,140
2025-02-27 15:46:52.680,-253.0,-897.0,422.0,-1.0,0.0,-1.0,150,124,112,125,140
2025-02-27 15:46:52.684,-259.0,-894.0,421.0,-1.0,-1.0,-1.0,150,127,115,129,142
2025-02-27 15:46:52.691,-255.0,-895.0,422.0,0.0,-1.0,-1.0,149,123,112,130,141
2025-02-27 15:46:52.696,-260.0,-886.0,416.0,0.0,-1.0,0.0,150,123,114,130,141
2025-02-27 15:46:52.700,-263.0,-885.0,416.0,-1.0,-2.0,0.0,150,126,112,129,141
2025-02-27 15:46:52.704,-269.0,-884.0,420.0,-1.0,-2.0,-1.0,150,124,112,129,141
2025-02-27 15:46:52.712,-265.0,-890.0,428.0,-1.0,-2.0,-1.0,151,126,113,129,140
2025-02-27 15:46:52.716,-263.0,-885.0,430.0,-1.0,-1.0,-1.0,152,125,114,133,141
2025-02-27 15:46:52.721,-271.0,-882.0,422.0,-2.0,-2.0,-1.0,148,122,112,130,140
2025-02-27 15:46:52.725,-261.0,-880.0,423.0,-1.0,-2.0,-1.0,150,125,114,130,141
2025-02-27 15:46:52.732,-268.0,-873.0,427.0,-1.0,-2.0,-1.0,149,125,113,129,140
2025-02-27 15:46:52.737,-264.0,-874.0,432.0,-1.0,-1.0,-1.0,151,126,115,132,141
2025-02-27 15:46:52.741,-264.0,-876.0,422.0,-1.0,-1.0,-1.0,149,126,114,128,140
2025-02-27 15:46:52.749,-268.0,-887.0,433.0,-1.0,-1.0,-1.0,151,126,113,131,140
2025-02-27 15:46:52.753,-266.0,-888.0,434.0,0.0,-1.0,-1.0,149,125,114,131,141
2025-02-27 15:46:52.758,-267.0,-880.0,422.0,-1.0,-1.0,-1.0,150,125,114,129,140
2025-02-27 15:46:52.762,-260.0,-885.0,420.0,0.0,-1.0,-1.0,151,124,111,129,140
2025-02-27 15:46:52.770,-267.0,-883.0,419.0,0.0,-2.0,-1.0,150,125,114,130,141
2025-02-27 15:46:52.774,-262.0,-880.0,417.0,0.0,-2.0,-1.0,151,126,113,133,140
2025-02-27 15:46:52.778,-262.0,-878.0,426.0,0.0,-2.0,-1.0,154,125,113,131,140
2025-02-27 15:46:52.782,-267.0,-879.0,421.0,1.0,-2.0,-1.0,149,124,112,129,140
2025-02-27 15:46:52.790,-265.0,-885.0,422.0,1.0,-2.0,-1.0,152,127,115,130,140
2025-02-27 15:46:52.794,-261.0,-882.0,427.0,0.0,-2.0,-2.0,151,124,114,130,141
2025-02-27 15:46:52.799,-265.0,-881.0,419.0,1.0,-2.0,-2.0,150,127,113,129,137
2025-02-27 15:46:52.803,-267.0,-878.0,426.0,0.0,-2.0,-2.0,150,123,111,128,140
2025-02-27 15:46:52.811,-261.0,-889.0,428.0,0.0,-2.0,-1.0,152,125,114,130,141
2025-02-27 15:46:52.815,-267.0,-888.0,429.0,0.0,-1.0,-1.0,149,124,113,129,140
2025-02-27 15:46:52.819,-265.0,-886.0,426.0,0.0,-1.0,-1.0,148,124,112,129,140
2025-02-27 15:46:52.823,-265.0,-889.0,434.0,0.0,-1.0,-1.0,150,125,113,128,139
2025-02-27 15:46:52.831,-262.0,-887.0,430.0,0.0,-1.0,-1.0,150,126,113,130,140
2025-02-27 15:46:52.835,-259.0,-882.0,423.0,0.0,-1.0,-1.0,151,126,113,129,140
2025-02-27 15:46:52.840,-266.0,-884.0,423.0,0.0,-2.0,-1.0,150,126,113,129,140
2025-02-27 15:46:52.844,-264.0,-886.0,435.0,0.0,-1.0,-1.0,151,125,112,129,141
2025-02-27 15:46:52.851,-264.0,-885.0,426.0,0.0,-2.0,-2.0,150,125,113,130,142
2025-02-27 15:46:52.855,-261.0,-882.0,428.0,0.0,-2.0,-1.0,152,126,114,133,141
2025-02-27 15:46:52.860,-262.0,-887.0,431.0,0.0,-3.0,-2.0,149,126,114,129,139
2025-02-27 15:46:52.864,-262.0,-884.0,424.0,0.0,-3.0,-2.0,150,126,115,129,141
2025-02-27 15:46:52.872,-262.0,-884.0,423.0,0.0,-3.0,-2.0,149,124,113,129,141
2025-02-27 15:46:52.876,-268.0,-887.0,429.0,0.0,-3.0,-2.0,151,125,114,131,142
2025-02-27 15:46:52.881,-266.0,-887.0,435.0,0.0,-3.0,-1.0,151,125,113,129,140
2025-02-27 15:46:52.885,-266.0,-885.0,429.0,0.0,-3.0,-1.0,151,125,113,130,141
2025-02-27 15:46:52.893,-271.0,-891.0,423.0,0.0,-3.0,-1.0,151,125,113,130,141
2025-02-27 15:46:52.897,-263.0,-883.0,438.0,-1.0,-2.0,-1.0,151,124,113,129,141
2025-02-27 15:46:52.901,-259.0,-880.0,437.0,0.0,-1.0,-1.0,150,124,114,130,140
2025-02-27 15:46:52.905,-268.0,-890.0,441.0,0.0,-2.0,-1.0,150,121,108,128,141
2025-02-27 15:46:52.913,-269.0,-883.0,443.0,0.0,-1.0,-1.0,150,125,113,129,141
2025-02-27 15:46:52.917,-268.0,-882.0,438.0,0.0,-1.0,-1.0,149,125,113,131,140
2025-02-27 15:46:52.921,-263.0,-888.0,442.0,-1.0,-1.0,-2.0,150,125,113,129,140
2025-02-27 15:46:52.929,-262.0,-880.0,439.0,0.0,-1.0,-2.0,150,125,112,129,141
2025-02-27 15:46:52.933,-264.0,-887.0,436.0,-1.0,0.0,-2.0,150,126,113,129,141
2025-02-27 15:46:52.937,-260.0,-887.0,432.0,-1.0,0.0,-2.0,150,125,113,128,141
2025-02-27 15:46:52.941,-263.0,-872.0,439.0,0.0,0.0,-2.0,150,123,112,128,141
2025-02-27 15:46:52.949,-262.0,-884.0,436.0,-1.0,-2.0,-2.0,150,125,113,129,139
2025-02-27 15:46:52.954,-272.0,-874.0,406.0,1.0,-3.0,-2.0,150,124,114,128,141
2025-02-27 15:46:52.958,-261.0,-895.0,479.0,1.0,-1.0,-1.0,151,128,113,130,139
2025-02-27 15:46:52.962,-246.0,-886.0,416.0,1.0,0.0,-1.0,149,123,113,129,142
2025-02-27 15:46:52.970,-268.0,-875.0,391.0,0.0,-3.0,-2.0,149,125,115,131,141
2025-02-27 15:46:52.975,-253.0,-884.0,450.0,0.0,-2.0,-1.0,149,124,114,130,140
2025-02-27 15:46:52.979,-261.0,-885.0,436.0,0.0,-2.0,-2.0,150,126,109,131,137
2025-02-27 15:46:52.983,-269.0,-873.0,431.0,1.0,-4.0,-2.0,150,125,113,131,141
2025-02-27 15:46:52.991,-262.0,-888.0,449.0,1.0,-3.0,-1.0,151,124,113,130,142
2025-02-27 15:46:52.995,-269.0,-887.0,452.0,1.0,-2.0,-1.0,151,126,114,130,141
2025-02-27 15:46:52.999,-267.0,-874.0,432.0,2.0,-2.0,-1.0,150,124,115,129,139
2025-02-27 15:46:53.003,-272.0,-893.0,456.0,0.0,-3.0,-1.0,151,126,112,130,141
2025-02-27 15:46:53.011,-267.0,-877.0,465.0,0.0,-2.0,-1.0,150,124,116,130,141
2025-02-27 15:46:53.015,-264.0,-885.0,452.0,0.0,-1.0,-1.0,150,126,113,129,140
2025-02-27 15:46:53.019,-260.0,-885.0,457.0,1.0,-1.0,-1.0,149,125,113,129,141
2025-02-27 15:46:53.023,-268.0,-878.0,459.0,2.0,0.0,-1.0,150,125,115,130,140
2025-02-27 15:46:53.032,-261.0,-889.0,456.0,1.0,1.0,-1.0,151,126,113,129,140
2025-02-27 15:46:53.036,-261.0,-878.0,457.0,1.0,2.0,-1.0,150,124,113,130,140
2025-02-27 15:46:53.040,-263.0,-884.0,458.0,1.0,2.0,-1.0,149,123,112,130,140
2025-02-27 15:46:53.045,-270.0,-878.0,457.0,1.0,2.0,-2.0,150,125,113,130,141
2025-02-27 15:46:53.051,-266.0,-883.0,445.0,0.0,1.0,-2.0,149,124,113,129,140
2025-02-27 15:46:53.056,-268.0,-887.0,442.0,-1.0,1.0,-2.0,151,124,112,127,139
2025-02-27 15:46:53.060,-262.0,-875.0,430.0,0.0,0.0,-2.0,151,125,113,130,141
2025-02-27 15:46:53.064,-269.0,-875.0,443.0,0.0,0.0,-2.0,151,126,113,129,141
2025-02-27 15:46:53.073,-271.0,-872.0,445.0,-2.0,0.0,-2.0,149,124,113,129,139
2025-02-27 15:46:53.077,-267.0,-892.0,442.0,-1.0,0.0,-2.0,149,125,114,129,140
2025-02-27 15:46:53.081,-275.0,-891.0,435.0,-2.0,-1.0,-2.0,151,126,115,131,141
2025-02-27 15:46:53.085,-268.0,-893.0,443.0,-2.0,0.0,-2.0,150,125,113,129,141
2025-02-27 15:46:53.093,-267.0,-882.0,437.0,-2.0,0.0,-2.0,148,124,111,126,141
2025-02-27 15:46:53.097,-269.0,-883.0,446.0,-1.0,0.0,-2.0,150,124,113,129,140
2025-02-27 15:46:53.102,-265.0,-884.0,449.0,-1.0,1.0,-2.0,151,126,112,130,141
2025-02-27 15:46:53.106,-263.0,-878.0,445.0,-1.0,1.0,-2.0,151,124,113,129,140
2025-02-27 15:46:53.113,-263.0,-879.0,437.0,-1.0,1.0,-2.0,150,125,112,128,139
2025-02-27 15:46:53.117,-263.0,-881.0,452.0,-2.0,2.0,-3.0,151,126,114,131,141
2025-02-27 15:46:53.122,-258.0,-879.0,448.0,-2.0,2.0,-3.0,150,125,113,129,141
2025-02-27 15:46:53.126,-256.0,-878.0,440.0,-2.0,2.0,-3.0,149,123,114,130,142
2025-02-27 15:46:53.134,-255.0,-883.0,439.0,-2.0,2.0,-2.0,150,124,112,129,140
2025-02-27 15:46:53.138,-257.0,-887.0,442.0,-1.0,2.0,-2.0,152,126,115,130,141
2025-02-27 15:46:53.142,-258.0,-893.0,433.0,-1.0,2.0,-3.0,150,123,114,130,141
2025-02-27 15:46:53.147,-255.0,-901.0,442.0,-1.0,2.0,-2.0,150,124,113,129,140
2025-02-27 15:46:53.155,-257.0,-920.0,441.0,0.0,3.0,-3.0,150,124,112,129,140
2025-02-27 15:46:53.159,-264.0,-862.0,429.0,-4.0,2.0,-2.0,151,132,114,130,142
2025-02-27 15:46:53.163,-256.0,-891.0,433.0,0.0,3.0,-2.0,151,126,114,130,141
2025-02-27 15:46:53.167,-271.0,-896.0,414.0,0.0,2.0,-1.0,150,124,112,128,138
2025-02-27 15:46:53.175,-260.0,-888.0,413.0,-1.0,1.0,-1.0,149,126,111,130,139
2025-02-27 15:46:53.179,-250.0,-891.0,418.0,-2.0,1.0,-1.0,151,125,113,130,142
2025-02-27 15:46:53.184,-269.0,-893.0,422.0,-1.0,0.0,-1.0,150,125,113,129,140
2025-02-27 15:46:53.188,-261.0,-879.0,417.0,-1.0,0.0,-1.0,149,117,113,128,140
2025-02-27 15:46:53.195,-252.0,-881.0,430.0,-1.0,1.0,-1.0,150,124,114,129,139
2025-02-27 15:46:53.200,-255.0,-885.0,418.0,-3.0,0.0,-1.0,153,127,115,130,136
2025-02-27 15:46:53.204,-256.0,-876.0,437.0,-2.0,0.0,-2.0,150,125,113,127,141
2025-02-27 15:46:53.208,-259.0,-880.0,419.0,-1.0,0.0,-1.0,150,123,112,128,141
2025-02-27 15:46:53.216,-267.0,-895.0,427.0,-1.0,-1.0,-2.0,151,124,114,130,141
2025-02-27 15:46:53.220,-264.0,-884.0,430.0,-1.0,0.0,-2.0,150,125,113,130,142
2025-02-27 15:46:53.224,-269.0,-886.0,408.0,-1.0,-2.0,-2.0,150,125,115,130,141
2025-02-27 15:46:53.229,-276.0,-881.0,436.0,-1.0,-2.0,-2.0,145,124,113,126,139
2025-02-27 15:46:53.236,-259.0,-899.0,445.0,1.0,0.0,-2.0,151,121,112,129,140
2025-02-27 15:46:53.240,-268.0,-886.0,429.0,0.0,0.0,-2.0,150,126,114,132,143
2025-02-27 15:46:53.245,-268.0,-883.0,416.0,0.0,-2.0,-3.0,150,122,114,130,142
2025-02-27 15:46:53.249,-266.0,-897.0,441.0,-1.0,-1.0,-2.0,149,124,112,129,139
2025-02-27 15:46:53.257,-260.0,-902.0,441.0,-1.0,0.0,-2.0,150,125,113,129,141
2025-02-27 15:46:53.261,-255.0,-894.0,439.0,-2.0,1.0,-2.0,151,126,113,130,141
2025-02-27 15:46:53.266,-256.0,-894.0,433.0,-2.0,1.0,-2.0,150,124,113,128,140
2025-02-27 15:46:53.270,-258.0,-894.0,433.0,-2.0,1.0,-2.0,149,124,112,128,139
2025-02-27 15:46:53.277,-251.0,-896.0,426.0,-2.0,2.0,-1.0,152,126,114,131,142
2025-02-27 15:46:53.282,-255.0,-891.0,420.0,-2.0,1.0,-1.0,152,124,113,130,140
2025-02-27 15:46:53.285,-256.0,-891.0,422.0,-2.0,1.0,-1.0,149,124,112,129,141
2025-02-27 15:46:53.290,-256.0,-889.0,426.0,-2.0,1.0,-1.0,150,126,115,128,139
2025-02-27 15:46:53.297,-259.0,-893.0,417.0,-2.0,0.0,-1.0,151,127,114,130,143
2025-02-27 15:46:53.302,-257.0,-891.0,409.0,-2.0,0.0,-1.0,149,124,112,130,141
2025-02-27 15:46:53.306,-260.0,-894.0,416.0,-2.0,-1.0,-2.0,149,123,113,129,139
2025-02-27 15:46:53.314,-257.0,-891.0,416.0,-1.0,-1.0,-1.0,149,125,111,128,140
2025-02-27 15:46:53.319,-256.0,-894.0,423.0,-1.0,-2.0,-1.0,152,126,116,132,143
2025-02-27 15:46:53.323,-255.0,-892.0,420.0,-1.0,-2.0,-1.0,149,124,113,132,142
2025-02-27 15:46:53.327,-251.0,-897.0,424.0,-1.0,-2.0,-1.0,150,125,112,129,139
2025-02-27 15:46:53.335,-253.0,-899.0,425.0,-1.0,-2.0,-1.0,148,124,111,128,140
2025-02-27 15:46:53.339,-256.0,-897.0,423.0,-1.0,-2.0,0.0,154,126,115,130,141
2025-02-27 15:46:53.343,-255.0,-901.0,429.0,-1.0,-2.0,0.0,151,125,115,128,141
2025-02-27 15:46:53.347,-252.0,-896.0,429.0,-1.0,-2.0,0.0,149,122,111,127,140
2025-02-27 15:46:53.355,-253.0,-893.0,434.0,-1.0,-2.0,0.0,150,125,112,128,140
2025-02-27 15:46:53.360,-254.0,-889.0,429.0,-1.0,-2.0,0.0,150,126,115,130,142
2025-02-27 15:46:53.364,-252.0,-893.0,430.0,-1.0,-1.0,0.0,152,125,112,130,143
2025-02-27 15:46:53.368,-253.0,-891.0,436.0,-1.0,-1.0,0.0,145,125,112,126,139
2025-02-27 15:46:53.376,-260.0,-887.0,417.0,-1.0,-1.0,0.0,149,127,112,130,141
2025-02-27 15:46:53.380,-261.0,-886.0,425.0,-1.0,-1.0,0.0,152,130,116,131,142
2025-02-27 15:46:53.384,-259.0,-885.0,435.0,-1.0,-1.0,0.0,150,126,114,130,141
2025-02-27 15:46:53.389,-267.0,-882.0,419.0,-1.0,-1.0,0.0,149,120,113,130,141
2025-02-27 15:46:53.396,-266.0,-884.0,420.0,-1.0,-2.0,0.0,150,124,112,129,140
2025-02-27 15:46:53.400,-272.0,-885.0,427.0,0.0,-3.0,0.0,152,125,113,131,141
2025-02-27 15:46:53.404,-267.0,-883.0,426.0,-1.0,-3.0,-1.0,153,125,111,130,141
2025-02-27 15:46:53.413,-270.0,-884.0,424.0,-1.0,-3.0,-1.0,148,123,112,127,140
2025-02-27 15:46:53.417,-267.0,-887.0,437.0,-1.0,-4.0,-1.0,149,124,112,128,140
2025-02-27 15:46:53.421,-266.0,-890.0,437.0,-2.0,-3.0,-1.0,149,124,114,130,141
2025-02-27 15:46:53.426,-266.0,-889.0,437.0,-2.0,-3.0,-1.0,151,125,113,132,140
2025-02-27 15:46:53.433,-260.0,-894.0,439.0,-2.0,-3.0,-1.0,149,124,113,131,140
2025-02-27 15:46:53.437,-259.0,-896.0,441.0,-2.0,-3.0,-1.0,151,125,112,130,142
2025-02-27 15:46:53.442,-262.0,-896.0,449.0,-2.0,-2.0,0.0,150,126,114,130,141
2025-02-27 15:46:53.446,-256.0,-900.0,447.0,-2.0,-1.0,0.0,151,124,114,131,141
2025-02-27 15:46:53.453,-261.0,-893.0,435.0,-1.0,-1.0,1.0,150,123,112,129,140
2025-02-27 15:46:53.458,-260.0,-888.0,438.0,-2.0,-1.0,0.0,151,126,113,131,141
2025-02-27 15:46:53.462,-262.0,-887.0,439.0,-1.0,0.0,1.0,149,126,120,129,141
2025-02-27 15:46:53.467,-263.0,-880.0,433.0,-2.0,-1.0,1.0,152,126,113,129,141
2025-02-27 15:46:53.473,-256.0,-875.0,430.0,-2.0,0.0,1.0,149,124,113,129,141
2025-02-27 15:46:53.478,-267.0,-870.0,428.0,-2.0,-1.0,0.0,151,125,113,128,140
2025-02-27 15:46:53.482,-263.0,-875.0,433.0,-2.0,-1.0,0.0,151,128,114,131,142
2025-02-27 15:46:53.486,-258.0,-872.0,429.0,-2.0,-1.0,0.0,150,124,113,129,140
2025-02-27 15:46:53.494,-258.0,-872.0,420.0,-2.0,-1.0,-1.0,149,125,111,129,140
2025-02-27 15:46:53.499,-258.0,-869.0,420.0,-2.0,-2.0,-1.0,150,125,115,130,141
2025-02-27 15:46:53.509,-262.0,-875.0,426.0,-2.0,-2.0,-1.0,151,125,113,130,142
2025-02-27 15:46:53.511,-264.0,-871.0,422.0,-2.0,-3.0,-1.0,152,126,113,130,139
2025-02-27 15:46:53.515,-264.0,-880.0,429.0,-2.0,-3.0,-1.0,149,123,113,130,140
2025-02-27 15:46:53.519,-262.0,-874.0,432.0,-2.0,-3.0,-1.0,150,125,112,130,142
2025-02-27 15:46:53.523,-257.0,-882.0,434.0,-2.0,-3.0,-1.0,150,126,115,130,141
2025-02-27 15:46:53.531,-256.0,-883.0,436.0,-2.0,-3.0,-1.0,150,125,113,129,141
2025-02-27 15:46:53.535,-263.0,-884.0,443.0,-1.0,-3.0,0.0,149,123,113,128,140
2025-02-27 15:46:53.540,-258.0,-882.0,443.0,-1.0,-2.0,-1.0,149,126,113,130,141
2025-02-27 15:46:53.544,-259.0,-889.0,454.0,-1.0,-2.0,0.0,151,126,116,130,141
2025-02-27 15:46:53.552,-264.0,-889.0,455.0,-1.0,-1.0,0.0,147,126,114,131,141
2025-02-27 15:46:53.556,-264.0,-883.0,441.0,-1.0,-1.0,0.0,150,124,112,129,139
2025-02-27 15:46:53.561,-261.0,-877.0,436.0,-1.0,-2.0,0.0,151,124,112,129,139
2025-02-27 15:46:53.564,-265.0,-877.0,441.0,-1.0,-2.0,1.0,153,126,114,130,141
2025-02-27 15:46:53.572,-271.0,-880.0,450.0,-1.0,-1.0,0.0,150,125,114,130,140
2025-02-27 15:46:53.576,-268.0,-872.0,440.0,-1.0,-1.0,0.0,150,124,112,128,141
2025-02-27 15:46:53.581,-265.0,-870.0,435.0,-1.0,-1.0,0.0,150,124,114,130,140
2025-02-27 15:46:53.585,-272.0,-872.0,435.0,0.0,-1.0,0.0,151,125,115,130,141
2025-02-27 15:46:53.592,-271.0,-868.0,446.0,0.0,0.0,0.0,149,125,114,127,141
2025-02-27 15:46:53.597,-263.0,-869.0,434.0,0.0,0.0,-1.0,149,124,114,130,140
2025-02-27 15:46:53.601,-271.0,-865.0,426.0,-1.0,-1.0,-1.0,151,125,113,130,141
2025-02-27 15:46:53.605,-275.0,-872.0,438.0,-1.0,-1.0,-1.0,150,124,114,130,141
2025-02-27 15:46:53.613,-271.0,-875.0,443.0,-1.0,-1.0,-1.0,149,125,113,130,140
2025-02-27 15:46:53.617,-267.0,-875.0,437.0,-1.0,-1.0,-2.0,151,123,113,130,142
2025-02-27 15:46:53.622,-266.0,-873.0,438.0,-1.0,-2.0,-2.0,150,126,113,131,140
2025-02-27 15:46:53.629,-266.0,-873.0,444.0,-1.0,-1.0,-2.0,150,125,113,130,141
2025-02-27 15:46:53.633,-267.0,-876.0,445.0,-1.0,-1.0,-2.0,151,125,113,131,141
2025-02-27 15:46:53.637,-266.0,-877.0,450.0,-1.0,-1.0,-2.0,150,125,114,129,140
2025-02-27 15:46:53.642,-262.0,-877.0,446.0,-1.0,0.0,-2.0,151,124,112,128,140
2025-02-27 15:46:53.650,-270.0,-882.0,443.0,-1.0,-1.0,-2.0,149,129,115,130,142
2025-02-27 15:46:53.654,-255.0,-884.0,454.0,-1.0,1.0,-2.0,149,124,113,129,140
2025-02-27 15:46:53.658,-259.0,-881.0,436.0,-1.0,1.0,-2.0,150,124,114,130,140
2025-02-27 15:46:53.662,-265.0,-880.0,436.0,-1.0,0.0,-3.0,149,124,112,129,139
2025-02-27 15:46:53.670,-258.0,-883.0,448.0,-1.0,1.0,-2.0,151,125,112,129,141
2025-02-27 15:46:53.674,-260.0,-886.0,436.0,-1.0,1.0,-2.0,150,124,113,129,141
2025-02-27 15:46:53.678,-260.0,-881.0,430.0,-1.0,1.0,-2.0,150,124,116,129,141
2025-02-27 15:46:53.684,-263.0,-879.0,427.0,-1.0,1.0,-2.0,150,126,112,130,140
2025-02-27 15:46:53.691,-263.0,-883.0,425.0,-1.0,0.0,-3.0,157,124,113,131,140
2025-02-27 15:46:53.695,-260.0,-877.0,429.0,0.0,0.0,-2.0,149,124,114,129,140
2025-02-27 15:46:53.699,-253.0,-879.0,429.0,0.0,1.0,-3.0,149,126,113,127,141
2025-02-27 15:46:53.704,-255.0,-877.0,423.0,0.0,-1.0,-3.0,151,126,113,129,142
2025-02-27 15:46:53.711,-256.0,-881.0,426.0,0.0,-1.0,-3.0,150,125,113,130,140
2025-02-27 15:46:53.715,-254.0,-885.0,438.0,0.0,-1.0,-3.0,148,123,112,129,139
2025-02-27 15:46:53.720,-254.0,-886.0,428.0,-1.0,-1.0,-3.0,150,126,110,131,140
2025-02-27 15:46:53.724,-254.0,-888.0,430.0,-1.0,-2.0,-3.0,150,125,113,131,141
2025-02-27 15:46:53.732,-258.0,-896.0,435.0,-1.0,-1.0,-2.0,149,125,115,130,142
2025-02-27 15:46:53.736,-259.0,-894.0,426.0,-1.0,-1.0,-2.0,150,123,112,130,141
2025-02-27 15:46:53.741,-259.0,-899.0,421.0,0.0,-1.0,-2.0,151,124,112,128,140
2025-02-27 15:46:53.748,-259.0,-896.0,433.0,0.0,-1.0,-2.0,150,125,113,130,141
2025-02-27 15:46:53.752,-260.0,-904.0,440.0,-1.0,-1.0,-1.0,149,124,115,128,142
2025-02-27 15:46:53.757,-259.0,-897.0,430.0,0.0,-1.0,-1.0,150,125,114,131,141
2025-02-27 15:46:53.761,-258.0,-893.0,434.0,-1.0,-1.0,-1.0,150,124,114,130,141
2025-02-27 15:46:53.769,-257.0,-894.0,439.0,-1.0,0.0,-1.0,151,128,112,130,140
2025-02-27 15:46:53.773,-252.0,-890.0,440.0,-1.0,0.0,-1.0,152,125,113,130,140
2025-02-27 15:46:53.778,-251.0,-893.0,443.0,-1.0,0.0,-1.0,150,124,114,130,140
2025-02-27 15:46:53.782,-256.0,-890.0,441.0,-1.0,0.0,-1.0,150,126,112,129,140
2025-02-27 15:46:53.790,-252.0,-895.0,437.0,-1.0,0.0,-1.0,150,126,115,129,141
2025-02-27 15:46:53.794,-254.0,-888.0,434.0,-1.0,0.0,-1.0,150,125,113,130,141
2025-02-27 15:46:53.798,-258.0,-894.0,433.0,-1.0,0.0,-1.0,152,127,114,130,141
2025-02-27 15:46:53.802,-251.0,-894.0,435.0,-1.0,0.0,-1.0,150,123,114,129,141
2025-02-27 15:46:53.809,-263.0,-889.0,429.0,-1.0,0.0,0.0,151,125,112,130,141
2025-02-27 15:46:53.814,-257.0,-888.0,436.0,-1.0,-1.0,0.0,150,125,114,129,141
2025-02-27 15:46:53.819,-262.0,-883.0,429.0,-1.0,-1.0,0.0,151,125,114,130,141
2025-02-27 15:46:53.823,-262.0,-881.0,428.0,-1.0,-1.0,0.0,150,123,113,127,140
2025-02-27 15:46:53.831,-264.0,-882.0,426.0,-1.0,-1.0,-1.0,151,124,114,130,141
2025-02-27 15:46:53.834,-265.0,-884.0,431.0,-2.0,-1.0,-1.0,149,124,114,131,140
2025-02-27 15:46:53.839,-265.0,-879.0,433.0,-1.0,-1.0,-1.0,150,126,114,127,140
2025-02-27 15:46:53.843,-264.0,-878.0,429.0,-2.0,-1.0,-1.0,149,124,112,129,140
2025-02-27 15:46:53.850,-264.0,-877.0,430.0,-2.0,-1.0,-1.0,150,124,113,130,141
2025-02-27 15:46:53.855,-261.0,-881.0,435.0,-2.0,-1.0,-1.0,149,124,111,130,140
2025-02-27 15:46:53.860,-263.0,-884.0,430.0,-1.0,-1.0,-2.0,150,126,114,129,140
2025-02-27 15:46:53.867,-266.0,-882.0,421.0,-1.0,-1.0,-2.0,150,124,112,129,139
2025-02-27 15:46:53.872,-267.0,-882.0,429.0,-1.0,-2.0,-2.0,150,125,115,130,140
2025-02-27 15:46:53.875,-263.0,-877.0,431.0,-1.0,-2.0,-1.0,150,124,113,130,141
2025-02-27 15:46:53.880,-259.0,-886.0,437.0,-1.0,-1.0,-2.0,150,125,115,130,142
2025-02-27 15:46:53.887,-260.0,-885.0,439.0,-1.0,-1.0,-2.0,149,121,112,129,141
2025-02-27 15:46:53.892,-265.0,-889.0,441.0,-1.0,-1.0,-2.0,150,125,112,128,140
2025-02-27 15:46:53.896,-259.0,-894.0,439.0,-1.0,-1.0,-2.0,150,125,113,130,142
2025-02-27 15:46:53.904,-256.0,-889.0,445.0,-1.0,0.0,-1.0,150,125,112,128,140
2025-02-27 15:46:53.908,-260.0,-889.0,444.0,-1.0,0.0,-1.0,149,123,113,130,139
2025-02-27 15:46:53.913,-260.0,-894.0,439.0,-1.0,0.0,-1.0,148,121,112,128,140
2025-02-27 15:46:53.917,-257.0,-892.0,443.0,-1.0,0.0,-1.0,150,124,114,131,142
2025-02-27 15:46:53.924,-259.0,-887.0,433.0,-1.0,0.0,-1.0,150,125,114,130,141
2025-02-27 15:46:53.929,-257.0,-885.0,429.0,-1.0,0.0,-1.0,150,124,112,129,140
2025-02-27 15:46:53.933,-260.0,-892.0,432.0,-1.0,0.0,-1.0,150,124,111,129,141
2025-02-27 15:46:53.937,-258.0,-889.0,433.0,-2.0,0.0,-1.0,153,126,115,131,142
2025-02-27 15:46:53.945,-254.0,-885.0,424.0,-2.0,0.0,-1.0,149,125,114,130,141
2025-02-27 15:46:53.949,-254.0,-886.0,425.0,-2.0,-1.0,-2.0,149,124,112,128,140
2025-02-27 15:46:53.953,-256.0,-891.0,420.0,-3.0,-1.0,-2.0,151,127,115,129,140
2025-02-27 15:46:53.957,-251.0,-892.0,431.0,-3.0,-1.0,-2.0,150,126,115,131,142
2025-02-27 15:46:53.965,-263.0,-900.0,416.0,-2.0,1.0,-2.0,150,123,113,129,141
2025-02-27 15:46:53.969,-212.0,-912.0,455.0,0.0,1.0,-1.0,148,122,111,128,139
2025-02-27 15:46:53.973,-277.0,-885.0,421.0,-2.0,-1.0,-1.0,150,125,111,131,140
2025-02-27 15:46:53.978,-259.0,-899.0,433.0,-2.0,0.0,-1.0,153,127,116,131,141
2025-02-27 15:46:53.985,-259.0,-899.0,434.0,-1.0,0.0,0.0,150,126,115,130,141
2025-02-27 15:46:53.990,-261.0,-900.0,409.0,-2.0,-1.0,0.0,150,124,113,130,138
2025-02-27 15:46:53.994,-261.0,-882.0,451.0,-1.0,-1.0,0.0,150,125,113,130,141
2025-02-27 15:46:53.999,-251.0,-889.0,446.0,-1.0,0.0,0.0,151,126,114,131,142
2025-02-27 15:46:54.006,-259.0,-884.0,430.0,-1.0,0.0,0.0,149,125,112,129,140
2025-02-27 15:46:54.010,-252.0,-868.0,428.0,-2.0,-1.0,0.0,149,122,110,127,139
2025-02-27 15:46:54.015,-259.0,-871.0,433.0,-2.0,-1.0,0.0,151,124,113,133,142
2025-02-27 15:46:54.019,-254.0,-874.0,433.0,-3.0,-1.0,0.0,151,126,114,131,141
2025-02-27 15:46:54.027,-257.0,-870.0,426.0,-2.0,-1.0,0.0,150,124,113,129,141
2025-02-27 15:46:54.031,-253.0,-877.0,427.0,-2.0,-1.0,0.0,150,125,110,127,137
2025-02-27 15:46:54.035,-261.0,-865.0,423.0,-2.0,-1.0,0.0,150,125,114,130,140
2025-02-27 15:46:54.040,-262.0,-879.0,419.0,-2.0,-2.0,-1.0,150,126,113,130,141
2025-02-27 15:46:54.047,-265.0,-877.0,426.0,-2.0,-2.0,-1.0,150,125,112,128,140
2025-02-27 15:46:54.051,-265.0,-883.0,421.0,-1.0,-2.0,-1.0,149,124,112,129,139
2025-02-27 15:46:54.056,-268.0,-877.0,418.0,-1.0,-3.0,-1.0,150,125,113,130,140
2025-02-27 15:46:54.064,-266.0,-876.0,418.0,-1.0,-4.0,-1.0,150,125,114,131,140
2025-02-27 15:46:54.068,-274.0,-884.0,424.0,-1.0,-4.0,0.0,151,125,112,129,140
2025-02-27 15:46:54.072,-269.0,-888.0,435.0,-2.0,-5.0,0.0,149,124,112,129,139
2025-02-27 15:46:54.077,-267.0,-887.0,438.0,-2.0,-5.0,-1.0,152,125,114,130,140
2025-02-27 15:46:54.085,-260.0,-897.0,446.0,-3.0,-5.0,0.0,151,126,114,130,141
2025-02-27 15:46:54.089,-266.0,-868.0,453.0,-3.0,-5.0,0.0,149,124,112,128,140
2025-02-27 15:46:54.093,-257.0,-873.0,450.0,-2.0,-3.0,1.0,149,124,112,130,140
2025-02-27 15:46:54.097,-257.0,-891.0,438.0,-2.0,-3.0,0.0,150,126,114,131,143
2025-02-27 15:46:54.104,-263.0,-892.0,449.0,-2.0,-1.0,0.0,151,124,115,130,141
2025-02-27 15:46:54.109,-253.0,-890.0,453.0,-2.0,-1.0,0.0,148,123,111,129,139
2025-02-27 15:46:54.113,-250.0,-876.0,426.0,-1.0,-1.0,-1.0,148,123,112,128,139
2025-02-27 15:46:54.118,-260.0,-883.0,436.0,-1.0,0.0,-1.0,153,124,115,131,142
2025-02-27 15:46:54.125,-256.0,-887.0,449.0,-1.0,1.0,0.0,151,124,112,129,141
2025-02-27 15:46:54.129,-260.0,-880.0,426.0,-1.0,1.0,-1.0,149,123,113,130,140
2025-02-27 15:46:54.134,-266.0,-872.0,421.0,-1.0,0.0,-1.0,151,123,113,128,140
2025-02-27 15:46:54.138,-268.0,-877.0,426.0,-1.0,-1.0,-1.0,152,126,116,131,142
2025-02-27 15:46:54.146,-264.0,-882.0,433.0,-1.0,-1.0,-1.0,150,124,114,129,139
2025-02-27 15:46:54.150,-261.0,-881.0,422.0,-1.0,-1.0,-1.0,150,125,112,128,140
2025-02-27 15:46:54.155,-265.0,-882.0,416.0,-2.0,-2.0,-2.0,148,124,113,129,138
2025-02-27 15:46:54.162,-262.0,-873.0,425.0,-2.0,-3.0,-2.0,152,130,113,131,141
2025-02-27 15:46:54.167,-260.0,-893.0,434.0,-2.0,-2.0,-3.0,150,125,113,129,140
2025-02-27 15:46:54.170,-256.0,-884.0,434.0,-3.0,-2.0,-2.0,148,124,113,128,140
2025-02-27 15:46:54.174,-260.0,-887.0,434.0,-2.0,-2.0,-3.0,148,125,112,129,140
2025-02-27 15:46:54.183,-255.0,-875.0,427.0,-1.0,-3.0,-2.0,151,126,115,131,143
2025-02-27 15:46:54.187,-255.0,-897.0,433.0,-2.0,-2.0,-2.0,152,125,113,128,141
2025-02-27 15:46:54.191,-256.0,-896.0,436.0,-1.0,-2.0,-1.0,150,124,113,129,141
2025-02-27 15:46:54.196,-262.0,-889.0,428.0,-2.0,-2.0,-1.0,150,124,112,128,139
2025-02-27 15:46:54.203,-258.0,-892.0,442.0,-3.0,-2.0,-1.0,150,124,114,130,142
2025-02-27 15:46:54.208,-261.0,-891.0,451.0,-2.0,-1.0,-1.0,150,125,114,131,143
2025-02-27 15:46:54.212,-255.0,-886.0,442.0,-2.0,-1.0,-1.0,152,125,114,131,141
2025-02-27 15:46:54.220,-265.0,-894.0,444.0,-3.0,0.0,0.0,149,125,112,128,140
2025-02-27 15:46:54.223,-258.0,-885.0,426.0,-1.0,0.0,-1.0,151,126,114,130,141
2025-02-27 15:46:54.228,-271.0,-903.0,423.0,-2.0,-1.0,-1.0,150,125,115,131,140
2025-02-27 15:46:54.232,-263.0,-894.0,443.0,-2.0,-1.0,-1.0,149,124,113,130,139
2025-02-27 15:46:54.240,-266.0,-889.0,434.0,-2.0,-1.0,-1.0,149,125,113,130,141
2025-02-27 15:46:54.244,-264.0,-886.0,448.0,-2.0,-1.0,-1.0,150,124,111,128,140
2025-02-27 15:46:54.249,-254.0,-882.0,452.0,-1.0,1.0,-1.0,151,125,115,129,140
2025-02-27 15:46:54.253,-267.0,-889.0,408.0,-1.0,1.0,-1.0,151,124,113,129,140
2025-02-27 15:46:54.260,-254.0,-872.0,434.0,-2.0,1.0,-1.0,150,125,114,130,140
2025-02-27 15:46:54.265,-260.0,-878.0,432.0,-2.0,1.0,-2.0,151,125,112,129,139
2025-02-27 15:46:54.269,-260.0,-876.0,422.0,-3.0,0.0,-2.0,151,125,113,130,140
2025-02-27 15:46:54.273,-252.0,-874.0,417.0,-4.0,0.0,-2.0,150,126,113,129,140
2025-02-27 15:46:54.280,-260.0,-882.0,425.0,-5.0,0.0,-2.0,152,126,114,129,141
2025-02-27 15:46:54.285,-255.0,-897.0,420.0,-3.0,1.0,-2.0,151,125,112,130,141
2025-02-27 15:46:54.289,-258.0,-886.0,417.0,-3.0,-2.0,-2.0,151,125,114,129,141
2025-02-27 15:46:54.293,-252.0,-878.0,422.0,-4.0,0.0,-2.0,151,123,113,130,140
2025-02-27 15:46:54.301,-249.0,-899.0,436.0,-1.0,0.0,-1.0,150,124,113,131,142
2025-02-27 15:46:54.305,-264.0,-900.0,420.0,-3.0,0.0,-2.0,149,125,114,132,142
2025-02-27 15:46:54.309,-260.0,-901.0,411.0,-4.0,0.0,-1.0,151,125,114,130,140
2025-02-27 15:46:54.314,-247.0,-870.0,447.0,-4.0,2.0,-1.0,151,124,112,129,140
2025-02-27 15:46:54.321,-262.0,-860.0,430.0,-1.0,-1.0,-1.0,149,125,114,129,141
2025-02-27 15:46:54.326,-255.0,-915.0,454.0,-2.0,1.0,-1.0,152,125,114,130,142
2025-02-27 15:46:54.330,-246.0,-893.0,440.0,-4.0,0.0,-1.0,152,126,115,129,141
2025-02-27 15:46:54.338,-260.0,-871.0,410.0,-4.0,-2.0,-2.0,150,123,113,130,140
2025-02-27 15:46:54.342,-253.0,-892.0,464.0,-5.0,0.0,-1.0,150,126,113,127,140
2025-02-27 15:46:54.347,-239.0,-886.0,432.0,-5.0,2.0,-2.0,151,125,113,130,141
2025-02-27 15:46:54.351,-250.0,-865.0,419.0,-6.0,1.0,-1.0,148,124,112,130,140
2025-02-27 15:46:54.358,-245.0,-863.0,460.0,-5.0,0.0,-3.0,148,124,113,128,140
2025-02-27 15:46:54.363,-240.0,-874.0,424.0,-8.0,2.0,-2.0,150,125,108,129,140
2025-02-27 15:46:54.367,-262.0,-859.0,419.0,-8.0,-2.0,-3.0,152,125,113,130,141
2025-02-27 15:46:54.372,-237.0,-876.0,435.0,-10.0,-2.0,-3.0,155,125,113,128,142
2025-02-27 15:46:54.379,-233.0,-915.0,487.0,-8.0,2.0,-2.0,151,124,113,130,141
2025-02-27 15:46:54.383,-252.0,-886.0,373.0,-6.0,0.0,-3.0,150,124,112,130,140
2025-02-27 15:46:54.388,-256.0,-882.0,436.0,-9.0,-2.0,-2.0,152,124,112,129,141
2025-02-27 15:46:54.392,-236.0,-880.0,459.0,-3.0,2.0,-2.0,150,125,114,129,140
2025-02-27 15:46:54.400,-251.0,-906.0,436.0,-5.0,3.0,-1.0,149,125,113,130,140
2025-02-27 15:46:54.404,-253.0,-884.0,427.0,-4.0,2.0,0.0,149,124,111,129,139
2025-02-27 15:46:54.408,-251.0,-862.0,418.0,-4.0,1.0,-1.0,152,125,114,130,141
2025-02-27 15:46:54.413,-260.0,-886.0,420.0,-4.0,2.0,-1.0,151,125,113,129,141
2025-02-27 15:46:54.420,-240.0,-874.0,444.0,-5.0,3.0,-1.0,150,125,113,132,141
2025-02-27 15:46:54.424,-267.0,-859.0,416.0,-4.0,1.0,-1.0,148,124,114,130,139
2025-02-27 15:46:54.428,-245.0,-860.0,425.0,-4.0,1.0,-1.0,150,126,114,130,141
2025-02-27 15:46:54.433,-259.0,-857.0,410.0,-5.0,-1.0,-3.0,150,125,111,129,140
2025-02-27 15:46:54.441,-239.0,-868.0,419.0,-5.0,-2.0,-3.0,151,125,114,130,142
2025-02-27 15:46:54.445,-238.0,-868.0,414.0,-5.0,-3.0,-3.0,152,124,112,129,140
2025-02-27 15:46:54.449,-245.0,-871.0,433.0,-5.0,-3.0,-4.0,151,123,113,130,140
2025-02-27 15:46:54.457,-238.0,-884.0,432.0,-6.0,-2.0,-3.0,150,125,113,130,141
2025-02-27 15:46:54.461,-242.0,-866.0,417.0,-6.0,-2.0,-3.0,151,124,114,131,142
2025-02-27 15:46:54.465,-248.0,-881.0,445.0,-6.0,-2.0,-2.0,151,124,113,130,140
2025-02-27 15:46:54.470,-225.0,-896.0,434.0,-5.0,1.0,-3.0,151,126,114,129,140
2025-02-27 15:46:54.477,-252.0,-873.0,373.0,-3.0,-2.0,-3.0,152,125,114,129,141
2025-02-27 15:46:54.482,-206.0,-889.0,485.0,-8.0,5.0,-1.0,151,125,114,131,142
2025-02-27 15:46:54.486,-216.0,-895.0,404.0,-1.0,3.0,-2.0,150,125,113,129,140
2025-02-27 15:46:54.490,-260.0,-856.0,405.0,-3.0,-1.0,-3.0,151,128,113,130,139
2025-02-27 15:46:54.498,-232.0,-870.0,439.0,-3.0,1.0,-2.0,150,126,115,131,141
2025-02-27 15:46:54.502,-252.0,-869.0,426.0,-2.0,1.0,-3.0,152,129,115,131,141
2025-02-27 15:46:54.507,-234.0,-855.0,400.0,-5.0,0.0,-4.0,149,124,113,129,141
2025-02-27 15:46:54.514,-252.0,-871.0,401.0,-1.0,-3.0,-4.0,149,126,109,130,145
2025-02-27 15:46:54.518,-244.0,-890.0,417.0,-6.0,-2.0,-3.0,151,125,114,130,140
2025-02-27 15:46:54.523,-262.0,-897.0,387.0,-6.0,-5.0,-4.0,150,126,114,130,141
2025-02-27 15:46:54.527,-265.0,-901.0,493.0,-9.0,0.0,-3.0,149,124,113,127,140
2025-02-27 15:46:54.535,-220.0,-921.0,403.0,-4.0,1.0,-3.0,150,125,114,131,140
2025-02-27 15:46:54.539,-244.0,-913.0,388.0,-2.0,-2.0,-3.0,151,126,114,129,140
2025-02-27 15:46:54.543,-247.0,-896.0,449.0,-4.0,2.0,-1.0,152,126,113,130,140
2025-02-27 15:46:54.547,-235.0,-867.0,380.0,-5.0,0.0,-3.0,148,124,113,128,139
2025-02-27 15:46:54.555,-251.0,-894.0,399.0,-6.0,-4.0,-3.0,150,125,111,130,140
2025-02-27 15:46:54.559,-240.0,-910.0,457.0,-3.0,-1.0,-2.0,154,127,117,132,141
2025-02-27 15:46:54.564,-240.0,-909.0,454.0,-3.0,1.0,-2.0,150,124,113,130,140
2025-02-27 15:46:54.568,-237.0,-911.0,390.0,-4.0,0.0,-2.0,149,125,112,129,140
2025-02-27 15:46:54.575,-255.0,-889.0,408.0,-5.0,-1.0,-2.0,149,125,113,130,140
2025-02-27 15:46:54.580,-250.0,-898.0,426.0,-5.0,-1.0,-2.0,152,128,113,131,141
2025-02-27 15:46:54.584,-248.0,-917.0,434.0,-3.0,-1.0,-1.0,152,125,113,132,142
2025-02-27 15:46:54.592,-297.0,-924.0,441.0,-6.0,2.0,-2.0,149,123,113,128,139
2025-02-27 15:46:54.596,-260.0,-879.0,389.0,-11.0,-1.0,-3.0,151,123,112,129,137
2025-02-27 15:46:54.600,-202.0,-872.0,460.0,-5.0,1.0,-2.0,150,126,114,131,141
2025-02-27 15:46:54.604,-238.0,-888.0,417.0,-5.0,-1.0,-2.0,151,125,113,131,140
2025-02-27 15:46:54.613,-259.0,-911.0,399.0,-10.0,0.0,-2.0,151,124,112,129,140
2025-02-27 15:46:54.616,-250.0,-922.0,407.0,-7.0,0.0,-1.0,149,123,111,130,140
2025-02-27 15:46:54.621,-248.0,-892.0,405.0,-8.0,-2.0,-2.0,151,127,115,130,142
2025-02-27 15:46:54.625,-251.0,-875.0,393.0,-7.0,-2.0,-2.0,151,126,114,130,140
2025-02-27 15:46:54.633,-245.0,-919.0,473.0,-7.0,-1.0,0.0,152,124,112,127,138
2025-02-27 15:46:54.637,-237.0,-880.0,404.0,-9.0,3.0,0.0,147,125,112,129,139
2025-02-27 15:46:54.641,-243.0,-891.0,401.0,-7.0,0.0,0.0,155,126,114,132,141
2025-02-27 15:46:54.646,-249.0,-888.0,408.0,-10.0,0.0,-1.0,149,125,113,130,140
2025-02-27 15:46:54.654,-241.0,-929.0,419.0,-8.0,0.0,0.0,148,124,112,127,137
2025-02-27 15:46:54.658,-264.0,-874.0,424.0,-9.0,2.0,0.0,149,124,114,129,140
2025-02-27 15:46:54.662,-246.0,-904.0,383.0,-6.0,1.0,1.0,150,126,114,129,141
2025-02-27 15:46:54.667,-256.0,-893.0,381.0,-6.0,-2.0,0.0,150,125,114,129,141
2025-02-27 15:46:54.674,-253.0,-909.0,394.0,-4.0,-2.0,1.0,149,124,113,127,139
2025-02-27 15:46:54.678,-241.0,-907.0,395.0,-2.0,0.0,1.0,149,123,115,130,140
2025-02-27 15:46:54.682,-254.0,-903.0,368.0,-4.0,-2.0,1.0,152,123,115,131,140
2025-02-27 15:46:54.687,-244.0,-885.0,372.0,-6.0,-3.0,2.0,149,124,112,130,141
2025-02-27 15:46:54.694,-239.0,-888.0,420.0,-6.0,0.0,2.0,149,123,112,125,140
2025-02-27 15:46:54.699,-258.0,-879.0,346.0,-7.0,-3.0,1.0,150,124,112,130,140
2025-02-27 15:46:54.703,-246.0,-894.0,401.0,-11.0,-3.0,2.0,149,125,116,130,140
2025-02-27 15:46:54.707,-256.0,-884.0,405.0,-5.0,-4.0,2.0,151,123,113,129,140
2025-02-27 15:46:54.715,-279.0,-906.0,405.0,-7.0,-5.0,2.0,150,123,111,129,139
2025-02-27 15:46:54.719,-270.0,-873.0,405.0,-5.0,-5.0,1.0,149,122,113,130,141
2025-02-27 15:46:54.723,-264.0,-871.0,400.0,-4.0,-7.0,1.0,152,125,115,130,140
2025-02-27 15:46:54.727,-279.0,-885.0,379.0,-2.0,-8.0,0.0,150,124,113,134,139
2025-02-27 15:46:54.736,-294.0,-888.0,401.0,1.0,-11.0,-2.0,149,124,112,128,137
2025-02-27 15:46:54.740,-277.0,-879.0,409.0,0.0,-11.0,-3.0,153,125,115,133,142
2025-02-27 15:46:54.744,-283.0,-886.0,429.0,-1.0,-9.0,-3.0,150,125,114,130,140
2025-02-27 15:46:54.752,-276.0,-903.0,407.0,-3.0,-8.0,-3.0,148,124,113,130,140
2025-02-27 15:46:54.756,-282.0,-912.0,410.0,-4.0,-6.0,-3.0,149,124,113,129,138
2025-02-27 15:46:54.760,-277.0,-900.0,397.0,-7.0,-5.0,-3.0,153,126,115,131,141
2025-02-27 15:46:54.765,-276.0,-915.0,416.0,-7.0,-2.0,-2.0,150,125,115,131,140
2025-02-27 15:46:54.772,-290.0,-892.0,395.0,-7.0,-2.0,-3.0,148,125,111,129,139
2025-02-27 15:46:54.777,-280.0,-920.0,423.0,-8.0,-1.0,-2.0,151,125,112,128,139
2025-02-27 15:46:54.781,-282.0,-913.0,396.0,-4.0,-1.0,-3.0,151,126,114,131,141
2025-02-27 15:46:54.786,-297.0,-916.0,415.0,-5.0,-3.0,-3.0,150,125,113,130,141
2025-02-27 15:46:54.793,-278.0,-913.0,421.0,-5.0,-2.0,-4.0,150,124,113,129,140
2025-02-27 15:46:54.797,-276.0,-930.0,418.0,-3.0,-3.0,-4.0,149,125,113,128,139
2025-02-27 15:46:54.802,-297.0,-937.0,396.0,-2.0,-6.0,-5.0,149,127,113,129,140
2025-02-27 15:46:54.809,-297.0,-917.0,395.0,-2.0,-6.0,-6.0,150,125,114,129,140
2025-02-27 15:46:54.814,-271.0,-921.0,379.0,-6.0,-2.0,-6.0,149,126,108,130,139
2025-02-27 15:46:54.818,-272.0,-956.0,445.0,-3.0,-2.0,-5.0,149,123,112,129,138
2025-02-27 15:46:54.822,-289.0,-939.0,425.0,-4.0,-2.0,-5.0,149,123,114,129,140
2025-02-27 15:46:54.830,-285.0,-962.0,435.0,-4.0,2.0,-5.0,151,126,113,130,146
2025-02-27 15:46:54.834,-289.0,-960.0,413.0,-4.0,2.0,-3.0,147,123,113,133,139
2025-02-27 15:46:54.838,-303.0,-956.0,393.0,-4.0,1.0,-2.0,150,122,112,127,139
2025-02-27 15:46:54.843,-302.0,-958.0,416.0,-4.0,1.0,-2.0,149,124,113,129,139
2025-02-27 15:46:54.850,-299.0,-973.0,417.0,-3.0,2.0,-1.0,150,126,114,131,139
2025-02-27 15:46:54.863,-294.0,-947.0,417.0,-3.0,4.0,-1.0,151,125,114,129,138
2025-02-27 15:46:54.865,-285.0,-938.0,410.0,-4.0,4.0,0.0,148,125,113,128,138
2025-02-27 15:46:54.867,-284.0,-929.0,390.0,-6.0,5.0,0.0,150,125,113,130,140
2025-02-27 15:46:54.871,-276.0,-918.0,384.0,-8.0,4.0,-1.0,151,126,113,129,141
2025-02-27 15:46:54.875,-264.0,-915.0,398.0,-8.0,5.0,-1.0,151,125,114,130,139
2025-02-27 15:46:54.879,-262.0,-921.0,397.0,-9.0,6.0,-2.0,150,123,113,130,140
2025-02-27 15:46:54.883,-256.0,-915.0,388.0,-9.0,5.0,-2.0,151,125,114,131,140
2025-02-27 15:46:54.891,-246.0,-929.0,379.0,-9.0,6.0,-2.0,151,125,113,129,141
2025-02-27 15:46:54.895,-246.0,-921.0,368.0,-10.0,6.0,-2.0,149,126,112,131,139
2025-02-27 15:46:54.899,-234.0,-920.0,363.0,-10.0,6.0,-2.0,151,124,113,129,138
2025-02-27 15:46:54.907,-241.0,-923.0,348.0,-9.0,4.0,-2.0,151,125,114,132,139
2025-02-27 15:46:54.911,-229.0,-944.0,362.0,-8.0,3.0,-1.0,151,125,114,130,140
2025-02-27 15:46:54.916,-228.0,-930.0,353.0,-8.0,3.0,0.0,149,123,112,128,138
2025-02-27 15:46:54.921,-236.0,-935.0,339.0,-9.0,2.0,0.0,150,125,113,131,141
2025-02-27 15:46:54.924,-231.0,-927.0,336.0,-8.0,0.0,1.0,151,125,114,130,140
2025-02-27 15:46:54.932,-231.0,-939.0,346.0,-7.0,-1.0,2.0,149,125,113,129,139
2025-02-27 15:46:54.936,-231.0,-937.0,353.0,-7.0,0.0,3.0,146,124,112,130,138
2025-02-27 15:46:54.940,-233.0,-938.0,362.0,-5.0,0.0,3.0,151,127,114,131,140
2025-02-27 15:46:54.945,-234.0,-932.0,364.0,-5.0,0.0,4.0,151,126,114,130,140
2025-02-27 15:46:54.952,-231.0,-929.0,350.0,-5.0,0.0,4.0,151,125,112,129,138
2025-02-27 15:46:54.957,-233.0,-917.0,353.0,-5.0,-1.0,4.0,149,123,112,131,139
2025-02-27 15:46:54.961,-230.0,-912.0,361.0,-4.0,0.0,4.0,152,125,115,131,141
2025-02-27 15:46:54.966,-232.0,-911.0,353.0,-4.0,0.0,5.0,150,124,114,129,140
2025-02-27 15:46:54.973,-234.0,-903.0,353.0,-4.0,0.0,4.0,149,123,113,129,138
2025-02-27 15:46:54.978,-228.0,-906.0,357.0,-5.0,-1.0,4.0,149,124,111,130,139
2025-02-27 15:46:54.981,-228.0,-913.0,363.0,-4.0,0.0,5.0,152,126,117,131,141
2025-02-27 15:46:54.985,-228.0,-901.0,362.0,-4.0,-1.0,5.0,152,125,114,131,139
2025-02-27 15:46:54.993,-230.0,-902.0,350.0,-4.0,-1.0,5.0,151,124,113,129,138
2025-02-27 15:46:54.998,-231.0,-894.0,361.0,-3.0,-3.0,5.0,150,124,115,130,140
2025-02-27 15:46:55.002,-230.0,-907.0,359.0,-3.0,-3.0,6.0,151,126,115,130,141
2025-02-27 15:46:55.006,-232.0,-897.0,354.0,-4.0,-6.0,5.0,149,125,113,129,139
2025-02-27 15:46:55.014,-232.0,-889.0,365.0,-3.0,-6.0,5.0,148,123,109,128,139
2025-02-27 15:46:55.018,-239.0,-896.0,375.0,-3.0,-6.0,5.0,151,124,114,132,139
2025-02-27 15:46:55.023,-240.0,-889.0,375.0,-1.0,-6.0,5.0,151,126,116,130,140
2025-02-27 15:46:55.026,-249.0,-896.0,363.0,0.0,-6.0,4.0,150,126,113,129,138
2025-02-27 15:46:55.034,-252.0,-894.0,363.0,0.0,-7.0,4.0,148,120,112,129,139
2025-02-27 15:46:55.038,-252.0,-897.0,362.0,2.0,-8.0,4.0,150,126,114,131,139
2025-02-27 15:46:55.043,-250.0,-895.0,377.0,4.0,-9.0,4.0,150,125,114,130,140
2025-02-27 15:46:55.047,-252.0,-907.0,383.0,4.0,-8.0,4.0,150,124,113,128,138
2025-02-27 15:46:55.055,-251.0,-903.0,381.0,7.0,-7.0,4.0,151,124,114,129,139
2025-02-27 15:46:55.059,-260.0,-896.0,376.0,8.0,-8.0,4.0,150,127,114,131,139
2025-02-27 15:46:55.063,-258.0,-898.0,388.0,9.0,-8.0,4.0,150,126,112,129,139
2025-02-27 15:46:55.068,-250.0,-894.0,389.0,9.0,-6.0,5.0,150,123,112,128,137
2025-02-27 15:46:55.075,-257.0,-886.0,382.0,10.0,-7.0,4.0,151,125,114,129,140
2025-02-27 15:46:55.079,-256.0,-883.0,381.0,10.0,-7.0,4.0,151,125,115,130,137
2025-02-27 15:46:55.084,-257.0,-883.0,401.0,12.0,-7.0,5.0,150,123,113,130,140
2025-02-27 15:46:55.088,-251.0,-886.0,379.0,9.0,-7.0,5.0,151,125,114,130,140
2025-02-27 15:46:55.096,-262.0,-881.0,383.0,10.0,-9.0,4.0,151,125,111,129,139
2025-02-27 15:46:55.101,-258.0,-869.0,386.0,10.0,-10.0,3.0,149,126,113,130,138
2025-02-27 15:46:55.105,-268.0,-873.0,395.0,10.0,-10.0,3.0,149,124,112,128,139
2025-02-27 15:46:55.109,-265.0,-864.0,388.0,10.0,-11.0,2.0,152,125,114,129,141
2025-02-27 15:46:55.116,-261.0,-857.0,383.0,9.0,-12.0,1.0,151,125,114,135,139
2025-02-27 15:46:55.120,-271.0,-867.0,392.0,10.0,-12.0,1.0,151,126,114,133,140
2025-02-27 15:46:55.124,-283.0,-872.0,388.0,10.0,-12.0,0.0,150,125,112,129,139
2025-02-27 15:46:55.130,-280.0,-882.0,367.0,10.0,-12.0,0.0,151,124,112,129,138
2025-02-27 15:46:55.137,-291.0,-877.0,361.0,10.0,-13.0,-1.0,150,125,114,130,140
2025-02-27 15:46:55.142,-287.0,-890.0,376.0,11.0,-13.0,-1.0,150,126,116,133,141
2025-02-27 15:46:55.145,-277.0,-888.0,400.0,12.0,-12.0,-1.0,151,124,112,129,139
2025-02-27 15:46:55.153,-279.0,-884.0,398.0,14.0,-10.0,-1.0,149,123,112,129,138
2025-02-27 15:46:55.157,-268.0,-886.0,408.0,16.0,-10.0,-2.0,150,125,115,132,140
2025-02-27 15:46:55.161,-264.0,-908.0,402.0,18.0,-7.0,-2.0,152,125,115,130,140
2025-02-27 15:46:55.166,-253.0,-894.0,442.0,20.0,-2.0,0.0,151,126,114,129,139
2025-02-27 15:46:55.174,-257.0,-881.0,380.0,20.0,-3.0,-1.0,149,124,112,129,138
2025-02-27 15:46:55.178,-266.0,-860.0,375.0,17.0,-10.0,-2.0,148,122,112,127,139
2025-02-27 15:46:55.183,-250.0,-888.0,403.0,15.0,-8.0,-1.0,149,125,114,131,140
2025-02-27 15:46:55.190,-243.0,-871.0,448.0,18.0,-7.0,-1.0,151,125,114,130,140
2025-02-27 15:46:55.194,-245.0,-864.0,410.0,15.0,-9.0,-2.0,151,126,113,129,139
2025-02-27 15:46:55.199,-250.0,-860.0,458.0,13.0,-4.0,-2.0,150,124,113,131,139
2025-02-27 15:46:55.203,-230.0,-856.0,382.0,13.0,-5.0,-3.0,152,125,119,131,140
2025-02-27 15:46:55.211,-255.0,-873.0,378.0,16.0,-11.0,-3.0,152,126,114,129,140
2025-02-27 15:46:55.215,-226.0,-877.0,500.0,19.0,-10.0,-4.0,150,125,114,130,139
2025-02-27 15:46:55.219,-257.0,-904.0,484.0,20.0,-6.0,-2.0,150,124,114,129,139
2025-02-27 15:46:55.227,-248.0,-876.0,359.0,17.0,-9.0,-4.0,149,124,112,129,138
2025-02-27 15:46:55.231,-257.0,-865.0,353.0,12.0,-17.0,-4.0,150,123,114,130,140
2025-02-27 15:46:55.236,-251.0,-871.0,447.0,13.0,-15.0,-4.0,150,125,114,132,139
2025-02-27 15:46:55.240,-244.0,-892.0,434.0,9.0,-12.0,-2.0,152,124,114,130,139
2025-02-27 15:46:55.247,-264.0,-851.0,420.0,6.0,-14.0,-2.0,150,125,114,129,138
2025-02-27 15:46:55.252,-271.0,-879.0,438.0,10.0,-17.0,-3.0,150,125,114,131,140
2025-02-27 15:46:55.256,-254.0,-898.0,429.0,11.0,-19.0,-3.0,153,126,113,130,139
2025-02-27 15:46:55.264,-252.0,-890.0,443.0,7.0,-18.0,-3.0,152,125,116,131,140
2025-02-27 15:46:55.268,-259.0,-906.0,460.0,9.0,-16.0,-1.0,150,124,113,129,138
2025-02-27 15:46:55.272,-253.0,-901.0,448.0,6.0,-18.0,-1.0,148,123,112,127,138
2025-02-27 15:46:55.276,-253.0,-899.0,455.0,3.0,-18.0,-1.0,151,125,114,130,138
2025-02-27 15:46:55.284,-254.0,-897.0,455.0,4.0,-19.0,-1.0,152,126,115,131,140
2025-02-27 15:46:55.289,-252.0,-922.0,515.0,7.0,-17.0,-1.0,150,124,114,129,138
2025-02-27 15:46:55.293,-250.0,-904.0,507.0,6.0,-13.0,1.0,147,124,113,129,137
2025-02-27 15:46:55.297,-243.0,-916.0,469.0,6.0,-10.0,2.0,151,124,115,131,139
2025-02-27 15:46:55.305,-252.0,-912.0,475.0,5.0,-12.0,2.0,152,124,114,129,139
2025-02-27 15:46:55.309,-264.0,-931.0,493.0,6.0,-11.0,3.0,151,125,113,129,137
2025-02-27 15:46:55.313,-250.0,-930.0,516.0,5.0,-5.0,4.0,149,123,112,130,138
2025-02-27 15:46:55.318,-249.0,-923.0,512.0,2.0,-3.0,4.0,149,125,114,129,139
2025-02-27 15:46:55.326,-252.0,-914.0,491.0,2.0,-1.0,4.0,151,124,114,129,140
2025-02-27 15:46:55.330,-254.0,-915.0,518.0,2.0,-1.0,5.0,150,119,113,128,138
2025-02-27 15:46:55.334,-250.0,-917.0,519.0,2.0,1.0,5.0,151,126,111,129,139
2025-02-27 15:46:55.338,-247.0,-917.0,512.0,3.0,2.0,6.0,151,126,115,130,140
2025-02-27 15:46:55.346,-251.0,-922.0,515.0,5.0,3.0,8.0,150,123,113,134,138
2025-02-27 15:46:55.350,-243.0,-926.0,481.0,4.0,6.0,9.0,151,125,113,129,138
2025-02-27 15:46:55.354,-257.0,-907.0,465.0,5.0,4.0,9.0,153,126,114,130,139
2025-02-27 15:46:55.358,-258.0,-905.0,470.0,4.0,3.0,9.0,149,124,113,129,137
2025-02-27 15:46:55.363,-257.0,-909.0,502.0,5.0,5.0,10.0,149,124,114,129,137
2025-02-27 15:46:55.371,-266.0,-874.0,460.0,2.0,1.0,7.0,150,124,114,130,139
2025-02-27 15:46:55.375,-276.0,-856.0,425.0,0.0,-1.0,5.0,150,122,112,129,137
2025-02-27 15:46:55.379,-269.0,-862.0,471.0,-2.0,0.0,4.0,150,123,113,129,138
2025-02-27 15:46:55.383,-272.0,-863.0,461.0,-5.0,0.0,2.0,151,127,114,131,138
2025-02-27 15:46:55.391,-265.0,-862.0,451.0,-6.0,0.0,0.0,151,124,113,129,137
2025-02-27 15:46:55.395,-264.0,-885.0,453.0,-7.0,0.0,-1.0,148,122,112,128,135
2025-02-27 15:46:55.399,-257.0,-883.0,460.0,-9.0,1.0,-2.0,150,123,113,128,136
2025-02-27 15:46:55.403,-254.0,-888.0,462.0,-8.0,2.0,-2.0,151,125,113,131,138
2025-02-27 15:46:55.411,-256.0,-897.0,443.0,-8.0,0.0,-2.0,151,124,113,129,137
2025-02-27 15:46:55.415,-256.0,-896.0,458.0,-8.0,1.0,-2.0,150,122,112,128,136
2025-02-27 15:46:55.420,-252.0,-894.0,452.0,-8.0,1.0,-1.0,152,124,114,128,137
2025-02-27 15:46:55.424,-253.0,-891.0,446.0,-9.0,2.0,0.0,151,124,114,130,137
2025-02-27 15:46:55.431,-263.0,-887.0,429.0,-10.0,1.0,1.0,150,124,112,127,135
2025-02-27 15:46:55.436,-255.0,-891.0,435.0,-10.0,1.0,1.0,149,122,111,127,136
2025-02-27 15:46:55.441,-250.0,-890.0,451.0,-11.0,2.0,2.0,151,125,111,129,137
2025-02-27 15:46:55.445,-249.0,-880.0,432.0,-11.0,1.0,2.0,150,125,114,130,137
2025-02-27 15:46:55.453,-250.0,-874.0,447.0,-10.0,2.0,2.0,150,123,113,127,135
2025-02-27 15:46:55.457,-247.0,-871.0,437.0,-9.0,3.0,2.0,149,123,113,127,135
2025-02-27 15:46:55.460,-250.0,-865.0,416.0,-8.0,2.0,2.0,152,126,114,128,137
2025-02-27 15:46:55.465,-245.0,-867.0,416.0,-7.0,2.0,1.0,151,124,112,128,136
2025-02-27 15:46:55.473,-238.0,-875.0,408.0,-6.0,2.0,0.0,147,123,112,128,135
2025-02-27 15:46:55.477,-241.0,-866.0,404.0,-6.0,2.0,0.0,151,127,115,129,135
2025-02-27 15:46:55.482,-245.0,-873.0,409.0,-5.0,1.0,-2.0,153,125,112,128,136
2025-02-27 15:46:55.485,-253.0,-877.0,423.0,-5.0,-1.0,-3.0,150,124,112,128,136
2025-02-27 15:46:55.493,-256.0,-877.0,422.0,-8.0,-1.0,-3.0,150,123,111,127,135
2025-02-27 15:46:55.497,-266.0,-883.0,427.0,-9.0,-4.0,-3.0,151,123,112,131,136
2025-02-27 15:46:55.502,-266.0,-888.0,426.0,-11.0,-6.0,-3.0,152,125,114,130,138
2025-02-27 15:46:55.506,-256.0,-892.0,449.0,-11.0,-7.0,-2.0,151,123,113,129,136
2025-02-27 15:46:55.514,-254.0,-891.0,453.0,-14.0,-6.0,-2.0,149,122,112,127,135
2025-02-27 15:46:55.518,-259.0,-911.0,450.0,-14.0,-5.0,-1.0,150,123,110,129,135
2025-02-27 15:46:55.523,-259.0,-912.0,458.0,-16.0,-4.0,0.0,152,125,114,129,138
2025-02-27 15:46:55.530,-253.0,-904.0,458.0,-17.0,-2.0,1.0,151,126,114,130,136
2025-02-27 15:46:55.535,-256.0,-886.0,465.0,-19.0,3.0,0.0,148,123,114,128,136
2025-02-27 15:46:55.539,-252.0,-911.0,447.0,-18.0,3.0,0.0,150,123,112,128,136
2025-02-27 15:46:55.543,-271.0,-910.0,443.0,-22.0,3.0,-1.0,152,124,112,130,137
2025-02-27 15:46:55.551,-289.0,-904.0,442.0,-25.0,4.0,-2.0,151,125,113,130,136
2025-02-27 15:46:55.555,-295.0,-918.0,439.0,-25.0,5.0,-3.0,150,122,113,127,136
2025-02-27 15:46:55.559,-287.0,-930.0,432.0,-28.0,5.0,-4.0,149,123,111,127,134
2025-02-27 15:46:55.567,-291.0,-931.0,458.0,-29.0,7.0,-3.0,150,123,114,128,137
2025-02-27 15:46:55.571,-302.0,-913.0,366.0,-35.0,5.0,-4.0,150,125,114,129,136
2025-02-27 15:46:55.575,-260.0,-917.0,428.0,-34.0,6.0,-3.0,151,123,111,130,135
2025-02-27 15:46:55.580,-261.0,-965.0,430.0,-30.0,5.0,-1.0,150,125,113,128,135
2025-02-27 15:46:55.587,-271.0,-949.0,384.0,-30.0,3.0,-1.0,149,123,110,127,135
2025-02-27 15:46:55.591,-254.0,-954.0,398.0,-28.0,4.0,0.0,149,124,114,130,136
2025-02-27 15:46:55.596,-259.0,-960.0,424.0,-25.0,7.0,2.0,150,124,112,127,135
2025-02-27 15:46:55.600,-267.0,-942.0,398.0,-25.0,8.0,4.0,152,124,112,128,135
2025-02-27 15:46:55.607,-265.0,-953.0,395.0,-25.0,10.0,5.0,149,123,111,127,135
2025-02-27 15:46:55.612,-254.0,-940.0,387.0,-24.0,9.0,7.0,150,124,112,129,136
2025-02-27 15:46:55.616,-272.0,-922.0,387.0,-24.0,10.0,8.0,150,123,113,128,135
2025-02-27 15:46:55.621,-280.0,-861.0,417.0,-25.0,12.0,6.0,151,124,112,129,136
2025-02-27 15:46:55.629,-297.0,-846.0,462.0,-32.0,13.0,5.0,150,123,113,128,134
2025-02-27 15:46:55.633,-288.0,-835.0,407.0,-35.0,15.0,3.0,151,125,113,128,135
2025-02-27 15:46:55.638,-285.0,-866.0,463.0,-36.0,15.0,3.0,150,123,112,131,136
2025-02-27 15:46:55.645,-247.0,-893.0,428.0,-38.0,20.0,3.0,152,125,111,128,137
2025-02-27 15:46:55.649,-224.0,-956.0,390.0,-29.0,23.0,2.0,151,125,112,127,134
2025-02-27 15:46:55.654,-269.0,-974.0,389.0,-28.0,19.0,1.0,151,124,113,129,136
2025-02-27 15:46:55.658,-268.0,-939.0,466.0,-21.0,19.0,0.0,151,125,112,128,135
2025-02-27 15:46:55.666,-259.0,-919.0,438.0,-18.0,16.0,1.0,152,126,112,129,137
2025-02-27 15:46:55.670,-263.0,-891.0,388.0,-19.0,19.0,2.0,150,122,110,128,135
2025-02-27 15:46:55.674,-250.0,-866.0,378.0,-21.0,17.0,2.0,147,123,110,124,134
2025-02-27 15:46:55.682,-257.0,-884.0,412.0,-19.0,21.0,3.0,152,124,114,130,136
2025-02-27 15:46:55.686,-265.0,-856.0,354.0,-20.0,20.0,1.0,152,125,112,128,136
2025-02-27 15:46:55.690,-261.0,-859.0,325.0,-20.0,18.0,0.0,151,124,113,129,134
2025-02-27 15:46:55.694,-272.0,-871.0,328.0,-18.0,18.0,-1.0,151,123,110,127,135
2025-02-27 15:46:55.702,-281.0,-872.0,327.0,-18.0,17.0,-4.0,152,125,113,128,135
2025-02-27 15:46:55.706,-280.0,-877.0,308.0,-17.0,13.0,-5.0,151,124,112,129,136
2025-02-27 15:46:55.710,-286.0,-860.0,314.0,-19.0,11.0,-8.0,152,124,113,129,135
2025-02-27 15:46:55.719,-259.0,-863.0,304.0,-15.0,9.0,-9.0,150,124,113,128,134
2025-02-27 15:46:55.723,-271.0,-872.0,279.0,-15.0,4.0,-10.0,152,124,111,128,134
2025-02-27 15:46:55.727,-266.0,-861.0,326.0,-15.0,3.0,-11.0,154,124,112,130,137
2025-02-27 15:46:55.731,-254.0,-876.0,327.0,-13.0,-1.0,-13.0,152,125,113,129,135
2025-02-27 15:46:55.739,-262.0,-880.0,318.0,-12.0,-4.0,-14.0,153,124,113,130,135
2025-02-27 15:46:55.743,-246.0,-868.0,351.0,-11.0,-6.0,-14.0,153,125,112,129,135
2025-02-27 15:46:55.747,-267.0,-885.0,335.0,-6.0,-9.0,-16.0,152,122,114,128,134
2025-02-27 15:46:55.755,-270.0,-868.0,316.0,-5.0,-7.0,-17.0,152,123,112,129,135
2025-02-27 15:46:55.760,-260.0,-855.0,304.0,-6.0,-7.0,-18.0,153,124,114,128,136
2025-02-27 15:46:55.764,-265.0,-867.0,369.0,-5.0,-7.0,-19.0,152,126,112,128,136
2025-02-27 15:46:55.772,-269.0,-883.0,355.0,-6.0,-3.0,-20.0,148,122,110,126,134
2025-02-27 15:46:55.776,-282.0,-861.0,342.0,-5.0,-3.0,-20.0,150,122,111,127,134
2025-02-27 15:46:55.781,-281.0,-881.0,325.0,-4.0,-3.0,-22.0,151,124,113,130,135
2025-02-27 15:46:55.784,-282.0,-908.0,354.0,-3.0,-3.0,-23.0,151,126,113,130,136
2025-02-27 15:46:55.793,-277.0,-896.0,347.0,-3.0,-2.0,-23.0,150,124,112,130,135
2025-02-27 15:46:55.797,-271.0,-916.0,354.0,-2.0,-1.0,-23.0,149,123,111,128,133
2025-02-27 15:46:55.801,-259.0,-920.0,345.0,-3.0,1.0,-23.0,148,123,111,128,134
2025-02-27 15:46:55.809,-253.0,-946.0,352.0,-4.0,0.0,-22.0,150,125,113,129,136
2025-02-27 15:46:55.813,-248.0,-936.0,339.0,-3.0,0.0,-20.0,151,123,113,129,135
2025-02-27 15:46:55.818,-263.0,-964.0,355.0,-2.0,-1.0,-18.0,150,123,112,129,134
2025-02-27 15:46:55.825,-262.0,-957.0,330.0,-5.0,-2.0,-15.0,151,125,112,130,135
2025-02-27 15:46:55.829,-251.0,-960.0,310.0,-6.0,-3.0,-13.0,150,127,113,128,136
2025-02-27 15:46:55.834,-254.0,-952.0,340.0,-5.0,-5.0,-11.0,149,123,110,129,136
2025-02-27 15:46:55.838,-249.0,-957.0,355.0,-5.0,-5.0,-10.0,151,125,112,128,135
2025-02-27 15:46:55.846,-242.0,-954.0,337.0,-4.0,-8.0,-9.0,150,125,112,131,135
2025-02-27 15:46:55.850,-236.0,-950.0,358.0,-4.0,-8.0,-9.0,150,123,112,127,134
2025-02-27 15:46:55.854,-218.0,-948.0,335.0,-5.0,-6.0,-9.0,150,124,116,129,135
2025-02-27 15:46:55.862,-220.0,-953.0,369.0,-4.0,-6.0,-10.0,149,124,112,128,137
2025-02-27 15:46:55.866,-211.0,-940.0,372.0,-4.0,-6.0,-11.0,150,124,114,129,135
2025-02-27 15:46:55.870,-205.0,-936.0,365.0,-2.0,-6.0,-11.0,152,124,112,127,134
2025-02-27 15:46:55.874,-211.0,-943.0,343.0,-4.0,-4.0,-10.0,148,119,111,128,134
2025-02-27 15:46:55.882,-207.0,-958.0,345.0,-7.0,-4.0,-10.0,149,124,115,131,135
2025-02-27 15:46:55.886,-199.0,-968.0,365.0,-4.0,-6.0,-9.0,150,125,113,129,136
2025-02-27 15:46:55.891,-187.0,-984.0,372.0,-2.0,-4.0,-8.0,149,124,114,128,135
2025-02-27 15:46:55.899,-192.0,-972.0,392.0,-4.0,0.0,-4.0,149,123,112,128,133
2025-02-27 15:46:55.903,-198.0,-983.0,388.0,-4.0,-1.0,-3.0,150,124,113,129,135
2025-02-27 15:46:55.907,-195.0,-983.0,427.0,-3.0,2.0,0.0,150,124,113,131,136
2025-02-27 15:46:55.911,-214.0,-976.0,374.0,-2.0,6.0,4.0,149,124,113,128,135
2025-02-27 15:46:55.919,-227.0,-980.0,353.0,-4.0,7.0,6.0,149,123,110,128,133
2025-02-27 15:46:55.923,-217.0,-980.0,389.0,-4.0,8.0,8.0,150,124,113,129,135
2025-02-27 15:46:55.927,-225.0,-962.0,397.0,-3.0,6.0,9.0,150,124,112,128,135
2025-02-27 15:46:55.932,-237.0,-954.0,391.0,-5.0,6.0,9.0,148,124,111,130,134
2025-02-27 15:46:55.936,-222.0,-932.0,362.0,-7.0,7.0,9.0,150,130,114,128,135
2025-02-27 15:46:55.943,-233.0,-901.0,363.0,-9.0,7.0,8.0,151,124,115,130,136
2025-02-27 15:46:55.948,-231.0,-888.0,360.0,-11.0,5.0,6.0,149,123,113,129,133
2025-02-27 15:46:55.952,-230.0,-879.0,352.0,-14.0,5.0,6.0,149,124,111,127,133
2025-02-27 15:46:55.956,-226.0,-890.0,374.0,-15.0,5.0,5.0,150,126,113,127,135
2025-02-27 15:46:55.964,-221.0,-870.0,351.0,-17.0,5.0,4.0,151,126,114,130,137
2025-02-27 15:46:55.969,-227.0,-895.0,326.0,-18.0,5.0,3.0,149,124,112,129,133
2025-02-27 15:46:55.973,-233.0,-892.0,326.0,-19.0,5.0,3.0,149,122,112,126,134
2025-02-27 15:46:55.977,-239.0,-886.0,310.0,-20.0,3.0,2.0,150,123,113,128,135
2025-02-27 15:46:55.984,-249.0,-901.0,300.0,-19.0,3.0,2.0,151,125,115,132,136
2025-02-27 15:46:55.989,-248.0,-899.0,313.0,-18.0,3.0,2.0,150,121,113,127,134
2025-02-27 15:46:55.993,-258.0,-895.0,303.0,-18.0,4.0,2.0,147,122,111,126,133
2025-02-27 15:46:55.998,-262.0,-890.0,287.0,-16.0,3.0,2.0,150,124,113,128,135
2025-02-27 15:46:56.005,-261.0,-886.0,278.0,-17.0,3.0,2.0,151,124,114,130,135
2025-02-27 15:46:56.010,-256.0,-887.0,293.0,-14.0,3.0,2.0,150,124,111,128,134
2025-02-27 15:46:56.014,-251.0,-883.0,280.0,-15.0,4.0,1.0,149,122,113,127,133
2025-02-27 15:46:56.022,-264.0,-864.0,254.0,-15.0,2.0,1.0,149,123,113,128,134
2025-02-27 15:46:56.026,-254.0,-866.0,289.0,-13.0,4.0,0.0,151,128,113,127,135
2025-02-27 15:46:56.030,-241.0,-873.0,249.0,-14.0,5.0,-1.0,149,123,111,127,135
2025-02-27 15:46:56.034,-262.0,-876.0,251.0,-15.0,3.0,-1.0,149,123,116,128,133
2025-02-27 15:46:56.042,-251.0,-876.0,246.0,-13.0,2.0,-2.0,149,124,113,128,135
2025-02-27 15:46:56.046,-257.0,-894.0,257.0,-12.0,2.0,-2.0,148,123,114,128,135
2025-02-27 15:46:56.051,-255.0,-898.0,246.0,-13.0,1.0,-3.0,150,124,112,127,134
2025-02-27 15:46:56.055,-244.0,-904.0,264.0,-11.0,1.0,-3.0,149,122,111,128,131
2025-02-27 15:46:56.062,-243.0,-916.0,252.0,-9.0,1.0,-4.0,149,124,112,128,134
2025-02-27 15:46:56.067,-247.0,-909.0,227.0,-8.0,1.0,-4.0,150,123,114,131,135
2025-02-27 15:46:56.071,-241.0,-918.0,248.0,-5.0,0.0,-4.0,148,123,113,128,133
2025-02-27 15:46:56.075,-245.0,-942.0,254.0,-2.0,0.0,-4.0,147,122,110,126,131
2025-02-27 15:46:56.083,-257.0,-935.0,244.0,-1.0,1.0,-5.0,149,123,113,127,134
2025-02-27 15:46:56.087,-267.0,-937.0,263.0,-1.0,0.0,-5.0,149,123,112,129,134
2025-02-27 15:46:56.091,-272.0,-960.0,262.0,-1.0,-1.0,-5.0,150,124,113,127,133
2025-02-27 15:46:56.096,-277.0,-950.0,287.0,0.0,-5.0,-5.0,147,123,113,122,135
2025-02-27 15:46:56.103,-259.0,-961.0,303.0,-1.0,-7.0,-5.0,150,124,112,129,135
2025-02-27 15:46:56.108,-273.0,-984.0,291.0,0.0,-6.0,-3.0,149,125,112,129,133
2025-02-27 15:46:56.112,-269.0,-969.0,269.0,-5.0,-8.0,-3.0,150,123,111,127,134
2025-02-27 15:46:56.120,-265.0,-980.0,318.0,-5.0,-9.0,-1.0,148,121,112,127,133
2025-02-27 15:46:56.124,-272.0,-1021.0,309.0,-2.0,-12.0,-1.0,150,125,115,130,136
2025-02-27 15:46:56.128,-254.0,-1004.0,287.0,-6.0,-10.0,0.0,150,123,114,128,134
2025-02-27 15:46:56.133,-252.0,-986.0,333.0,-5.0,-7.0,1.0,149,125,113,128,134
2025-02-27 15:46:56.140,-256.0,-1010.0,297.0,-5.0,-10.0,2.0,149,123,111,127,133
2025-02-27 15:46:56.144,-207.0,-1018.0,232.0,-5.0,-9.0,1.0,151,125,113,129,135
2025-02-27 15:46:56.149,-227.0,-1013.0,373.0,-7.0,-2.0,3.0,149,126,113,130,135
2025-02-27 15:46:56.157,-251.0,-987.0,296.0,-9.0,-2.0,4.0,149,125,113,128,134
2025-02-27 15:46:56.161,-250.0,-1003.0,317.0,-8.0,-2.0,3.0,149,123,113,127,133
2025-02-27 15:46:56.165,-247.0,-1000.0,303.0,-3.0,-1.0,4.0,150,122,112,128,133
2025-02-27 15:46:56.170,-244.0,-992.0,292.0,-6.0,0.0,4.0,150,125,112,130,135
2025-02-27 15:46:56.177,-240.0,-1016.0,285.0,-5.0,1.0,3.0,152,124,113,127,133
2025-02-27 15:46:56.182,-268.0,-1006.0,251.0,-8.0,0.0,3.0,149,122,112,128,134
2025-02-27 15:46:56.186,-259.0,-1007.0,292.0,-7.0,-2.0,3.0,149,124,113,129,135
2025-02-27 15:46:56.190,-256.0,-1016.0,306.0,-8.0,-1.0,3.0,150,126,112,128,135
2025-02-27 15:46:56.198,-245.0,-1000.0,289.0,-7.0,-3.0,3.0,149,124,110,128,133
2025-02-27 15:46:56.202,-261.0,-1014.0,302.0,-7.0,-3.0,4.0,150,123,112,129,134
2025-02-27 15:46:56.206,-236.0,-989.0,303.0,-9.0,-3.0,5.0,148,124,111,127,133
2025-02-27 15:46:56.211,-224.0,-1006.0,323.0,-9.0,-4.0,5.0,151,124,113,128,135
2025-02-27 15:46:56.220,-200.0,-1006.0,293.0,-7.0,-5.0,4.0,149,124,112,127,134
2025-02-27 15:46:56.232,-217.0,-977.0,343.0,-10.0,-2.0,4.0,149,122,111,128,134
2025-02-27 15:46:56.238,-199.0,-1025.0,294.0,-6.0,-3.0,5.0,149,122,111,128,133
2025-02-27 15:46:56.243,-192.0,-980.0,298.0,-7.0,-2.0,5.0,149,123,111,128,134
2025-02-27 15:46:56.248,-198.0,-984.0,283.0,-6.0,-2.0,5.0,150,121,112,128,134
2025-02-27 15:46:56.253,-205.0,-1005.0,285.0,-4.0,-3.0,5.0,151,122,112,128,134
2025-02-27 15:46:56.257,-204.0,-974.0,243.0,-6.0,-5.0,5.0,148,121,111,128,134
2025-02-27 15:46:56.262,-195.0,-968.0,323.0,0.0,-5.0,6.0,150,123,112,127,134
2025-02-27 15:46:56.265,-214.0,-976.0,291.0,-3.0,-4.0,8.0,150,121,111,128,134
2025-02-27 15:46:56.269,-222.0,-964.0,251.0,-4.0,-4.0,9.0,151,123,112,129,134
2025-02-27 15:46:56.272,-222.0,-975.0,308.0,-6.0,-4.0,9.0,149,119,111,128,133
2025-02-27 15:46:56.275,-243.0,-959.0,261.0,-8.0,-5.0,9.0,149,118,111,129,133
2025-02-27 15:46:56.280,-227.0,-942.0,291.0,-8.0,-4.0,9.0,149,122,110,127,134
