timestamp,ax,ay,az,gx,gy,gz,flex1,flex2,flex3,flex4,flex5,emg1,emg2,emg3
2025-02-26 16:15:48.854,-829.0,-50.0,681.0,35.0,3.0,22.0,135,64,69,99,92
2025-02-26 16:15:48.862,-816.0,-64.0,711.0,35.0,6.0,22.0,134,63,69,99,92
2025-02-26 16:15:48.865,-816.0,-64.0,711.0,35.0,6.0,22.0,134,63,69,99,92
2025-02-26 16:15:48.871,-802.0,-66.0,597.0,0.0,0.0,0.0,135,79,72,101,91
2025-02-26 16:15:48.873,-815.0,-64.0,585.0,-2.0,-1.0,0.0,136,80,73,102,93
2025-02-26 16:15:48.875,-826.0,-61.0,576.0,-4.0,-4.0,-1.0,135,79,71,101,92
2025-02-26 16:15:48.875,-833.0,-57.0,583.0,-7.0,-5.0,-2.0,134,78,72,100,92
2025-02-26 16:15:48.880,-833.0,-46.0,576.0,-11.0,-9.0,-4.0,135,81,74,101,93
2025-02-26 16:15:48.883,-832.0,-44.0,569.0,-14.0,-10.0,-5.0,135,80,72,101,93
2025-02-26 16:15:48.885,-825.0,-43.0,606.0,-18.0,-12.0,-6.0,135,78,72,101,92
2025-02-26 16:15:48.887,-830.0,-35.0,597.0,-23.0,-14.0,-8.0,135,81,73,101,94
2025-02-26 16:15:48.887,-821.0,-42.0,590.0,-26.0,-15.0,-9.0,135,80,73,101,93
2025-02-26 16:15:48.892,-793.0,-30.0,581.0,-27.0,-15.0,-10.0,136,80,72,101,92
2025-02-26 16:15:48.894,-772.0,-47.0,583.0,-25.0,-12.0,-9.0,136,80,73,101,92
2025-02-26 16:15:48.896,-750.0,-52.0,576.0,-24.0,-9.0,-10.0,136,79,72,100,92
2025-02-26 16:15:48.899,-746.0,-64.0,608.0,-22.0,-7.0,-11.0,136,78,71,101,92
2025-02-26 16:15:48.899,-739.0,-90.0,630.0,-18.0,-1.0,-12.0,136,78,72,101,93
2025-02-26 16:15:48.899,-740.0,-84.0,646.0,-14.0,4.0,-12.0,135,78,71,100,92
2025-02-26 16:15:48.905,-755.0,-82.0,636.0,-10.0,6.0,-12.0,135,78,71,101,90
2025-02-26 16:15:48.905,-784.0,-80.0,645.0,-6.0,7.0,-12.0,136,78,73,102,92
2025-02-26 16:15:48.905,-804.0,-62.0,647.0,-3.0,8.0,-10.0,135,76,71,101,91
2025-02-26 16:15:48.911,-811.0,-61.0,638.0,-1.0,8.0,-10.0,136,74,71,100,89
2025-02-26 16:15:48.915,-822.0,-50.0,643.0,-2.0,8.0,-9.0,136,74,71,100,89
2025-02-26 16:15:48.917,-837.0,-40.0,659.0,-3.0,8.0,-11.0,137,72,71,101,87
2025-02-26 16:15:48.917,-855.0,-39.0,687.0,-4.0,8.0,-11.0,135,69,69,99,86
2025-02-26 16:15:48.917,-869.0,-33.0,690.0,-6.0,7.0,-13.0,136,67,68,99,85
2025-02-26 16:15:48.922,-870.0,-20.0,680.0,-9.0,7.0,-16.0,136,63,64,100,82
2025-02-26 16:15:48.925,-878.0,-11.0,673.0,-18.0,4.0,-17.0,135,62,65,96,80
2025-02-26 16:15:48.927,-897.0,-24.0,701.0,-33.0,1.0,-20.0,136,61,63,96,78
2025-02-26 16:15:48.929,-854.0,-46.0,751.0,-41.0,0.0,-21.0,135,58,62,95,74
2025-02-26 16:15:48.932,-809.0,-26.0,748.0,-46.0,0.0,-18.0,135,58,60,92,71
2025-02-26 16:15:48.935,-677.0,11.0,685.0,-44.0,7.0,-19.0,136,55,58,91,71
2025-02-26 16:15:48.937,-779.0,-56.0,650.0,-52.0,8.0,-23.0,136,56,59,92,68
2025-02-26 16:15:48.939,-744.0,-84.0,791.0,-58.0,14.0,-24.0,134,55,58,91,67
2025-02-26 16:15:48.941,-650.0,-33.0,770.0,-49.0,18.0,-27.0,135,55,57,89,65
2025-02-26 16:15:48.941,-629.0,-50.0,737.0,-46.0,23.0,-32.0,136,54,56,90,65
2025-02-26 16:15:48.946,-667.0,-64.0,770.0,-46.0,35.0,-34.0,135,53,55,88,62
2025-02-26 16:15:48.948,-708.0,-143.0,757.0,-42.0,41.0,-36.0,135,52,56,88,63
2025-02-26 16:15:48.951,-756.0,-121.0,744.0,-39.0,42.0,-41.0,135,52,55,87,62
2025-02-26 16:15:48.954,-794.0,-134.0,720.0,-42.0,43.0,-42.0,134,52,55,87,61
2025-02-26 16:15:48.956,-822.0,-172.0,708.0,-45.0,45.0,-41.0,136,52,55,87,61
2025-02-26 16:15:48.958,-845.0,-158.0,661.0,-42.0,40.0,-38.0,134,50,55,87,61
2025-02-26 16:15:48.961,-879.0,-217.0,629.0,-37.0,39.0,-38.0,134,51,54,86,59
2025-02-26 16:15:48.963,-894.0,-237.0,606.0,-37.0,36.0,-35.0,136,51,55,86,60
2025-02-26 16:15:48.965,-891.0,-218.0,561.0,-37.0,30.0,-33.0,136,51,54,85,59
2025-02-26 16:15:48.968,-910.0,-259.0,566.0,-33.0,28.0,-31.0,134,50,53,84,59
2025-02-26 16:15:48.970,-868.0,-250.0,563.0,-23.0,22.0,-29.0,134,50,53,85,58
2025-02-26 16:15:48.972,-855.0,-233.0,593.0,-19.0,20.0,-27.0,136,50,54,85,59
2025-02-26 16:15:48.974,-813.0,-225.0,554.0,-17.0,20.0,-24.0,134,48,52,84,58
2025-02-26 16:15:48.976,-803.0,-209.0,568.0,-13.0,20.0,-23.0,136,49,53,84,58
2025-02-26 16:15:48.978,-791.0,-192.0,578.0,-11.0,20.0,-22.0,135,50,53,83,57
2025-02-26 16:15:48.981,-771.0,-195.0,578.0,-13.0,23.0,-23.0,135,49,52,85,58
2025-02-26 16:15:48.984,-789.0,-164.0,640.0,-8.0,23.0,-24.0,140,50,54,83,59
2025-02-26 16:15:48.986,-763.0,-169.0,638.0,-7.0,30.0,-25.0,135,50,53,85,57
2025-02-26 16:15:48.990,-769.0,-155.0,597.0,-5.0,30.0,-27.0,135,49,52,83,58
2025-02-26 16:15:48.997,-805.0,-142.0,600.0,-7.0,32.0,-28.0,137,51,55,85,59
2025-02-26 16:15:49.002,-841.0,-148.0,582.0,-9.0,33.0,-29.0,135,50,52,85,58
2025-02-26 16:15:49.007,-874.0,-189.0,603.0,-18.0,32.0,-30.0,134,50,52,83,57
2025-02-26 16:15:49.010,-934.0,-191.0,583.0,-24.0,34.0,-30.0,135,49,53,82,58
2025-02-26 16:15:49.015,-951.0,-212.0,592.0,-29.0,33.0,-30.0,135,51,51,83,56
2025-02-26 16:15:49.020,-930.0,-236.0,604.0,-37.0,32.0,-28.0,135,48,51,81,55
2025-02-26 16:15:49.026,-857.0,-247.0,575.0,-41.0,32.0,-28.0,134,48,50,81,56
2025-02-26 16:15:49.031,-848.0,-273.0,561.0,-44.0,36.0,-26.0,133,48,51,81,55
2025-02-26 16:15:49.035,-847.0,-253.0,541.0,-45.0,36.0,-23.0,135,49,50,81,54
2025-02-26 16:15:49.038,-850.0,-266.0,514.0,-41.0,35.0,-21.0,134,48,51,80,54
2025-02-26 16:15:49.047,-841.0,-275.0,489.0,-39.0,32.0,-17.0,133,49,52,80,54
2025-02-26 16:15:49.051,-810.0,-261.0,474.0,-32.0,32.0,-14.0,132,47,50,81,54
2025-02-26 16:15:49.055,-816.0,-279.0,459.0,-28.0,32.0,-14.0,133,47,50,80,54
2025-02-26 16:15:49.063,-851.0,-283.0,477.0,-33.0,35.0,-14.0,134,48,51,80,53
2025-02-26 16:15:49.067,-859.0,-250.0,513.0,-35.0,37.0,-14.0,131,47,51,79,53
2025-02-26 16:15:49.071,-848.0,-259.0,554.0,-36.0,41.0,-13.0,131,47,50,77,52
2025-02-26 16:15:49.075,-819.0,-243.0,543.0,-34.0,44.0,-11.0,132,47,50,79,53
2025-02-26 16:15:49.081,-825.0,-254.0,527.0,-34.0,49.0,-10.0,132,47,50,78,53
2025-02-26 16:15:49.087,-845.0,-265.0,542.0,-36.0,53.0,-11.0,131,46,50,78,52
2025-02-26 16:15:49.092,-877.0,-252.0,531.0,-39.0,57.0,-12.0,129,47,50,78,52
2025-02-26 16:15:49.093,-871.0,-243.0,554.0,-41.0,62.0,-13.0,130,47,50,77,51
2025-02-26 16:15:49.101,-860.0,-269.0,558.0,-42.0,66.0,-12.0,128,48,49,78,52
2025-02-26 16:15:49.108,-849.0,-267.0,524.0,-42.0,67.0,-12.0,128,47,49,78,52
2025-02-26 16:15:49.113,-843.0,-277.0,483.0,-42.0,67.0,-13.0,128,48,50,77,52
2025-02-26 16:15:49.117,-888.0,-309.0,449.0,-44.0,67.0,-12.0,128,45,50,78,52
2025-02-26 16:15:49.122,-868.0,-292.0,428.0,-38.0,69.0,-11.0,126,47,49,77,52
2025-02-26 16:15:49.129,-918.0,-346.0,395.0,-40.0,69.0,-10.0,125,47,49,77,51
2025-02-26 16:15:49.132,-952.0,-333.0,353.0,-32.0,65.0,-9.0,126,47,49,78,50
2025-02-26 16:15:49.137,-932.0,-341.0,352.0,-27.0,62.0,-7.0,124,48,49,77,52
2025-02-26 16:15:49.142,-911.0,-334.0,349.0,-28.0,62.0,-1.0,123,47,50,77,51
2025-02-26 16:15:49.146,-906.0,-336.0,382.0,-28.0,61.0,5.0,121,47,49,75,50
2025-02-26 16:15:49.154,-918.0,-347.0,449.0,-30.0,61.0,7.0,124,47,49,77,51
2025-02-26 16:15:49.158,-905.0,-356.0,444.0,-32.0,60.0,10.0,121,47,50,76,51
2025-02-26 16:15:49.162,-866.0,-314.0,374.0,-26.0,57.0,13.0,119,47,49,75,52
2025-02-26 16:15:49.166,-828.0,-340.0,381.0,-14.0,56.0,13.0,119,48,49,76,51
2025-02-26 16:15:49.171,-897.0,-353.0,372.0,-15.0,55.0,13.0,117,47,50,75,50
2025-02-26 16:15:49.178,-937.0,-351.0,372.0,-18.0,54.0,14.0,114,47,49,75,49
2025-02-26 16:15:49.183,-919.0,-317.0,347.0,-18.0,52.0,15.0,113,49,52,76,50
2025-02-26 16:15:49.184,-908.0,-337.0,295.0,-16.0,45.0,17.0,110,49,49,77,50
2025-02-26 16:15:49.191,-888.0,-357.0,293.0,-10.0,42.0,16.0,108,47,48,74,48
2025-02-26 16:15:49.196,-907.0,-381.0,276.0,-5.0,39.0,17.0,109,49,49,75,51
2025-02-26 16:15:49.202,-899.0,-351.0,290.0,-2.0,37.0,17.0,107,53,51,76,53
2025-02-26 16:15:49.207,-918.0,-349.0,293.0,0.0,36.0,17.0,105,49,49,76,50
2025-02-26 16:15:49.211,-914.0,-332.0,280.0,1.0,32.0,17.0,105,49,48,75,49
2025-02-26 16:15:49.214,-919.0,-310.0,295.0,2.0,27.0,17.0,104,50,49,75,51
2025-02-26 16:15:49.219,-912.0,-286.0,286.0,2.0,25.0,17.0,103,51,50,76,49
2025-02-26 16:15:49.227,-906.0,-266.0,273.0,1.0,20.0,17.0,104,50,51,76,50
2025-02-26 16:15:49.231,-901.0,-279.0,283.0,1.0,17.0,17.0,102,49,50,77,50
2025-02-26 16:15:49.233,-896.0,-290.0,301.0,0.0,15.0,17.0,102,50,49,74,50
2025-02-26 16:15:49.240,-891.0,-289.0,305.0,0.0,13.0,18.0,102,51,51,78,50
2025-02-26 16:15:49.245,-875.0,-299.0,321.0,1.0,12.0,19.0,102,50,48,77,50
2025-02-26 16:15:49.245,-873.0,-290.0,345.0,1.0,11.0,21.0,101,50,50,76,49
2025-02-26 16:15:49.256,-874.0,-289.0,359.0,-2.0,13.0,21.0,101,51,50,76,50
2025-02-26 16:15:49.260,-856.0,-263.0,351.0,-3.0,14.0,21.0,101,50,50,77,51
2025-02-26 16:15:49.265,-851.0,-241.0,365.0,-4.0,14.0,21.0,101,50,50,77,50
2025-02-26 16:15:49.269,-889.0,-230.0,337.0,-7.0,13.0,20.0,101,48,50,77,51
2025-02-26 16:15:49.273,-910.0,-215.0,320.0,-9.0,10.0,18.0,102,47,50,76,50
2025-02-26 16:15:49.281,-910.0,-212.0,326.0,-10.0,9.0,18.0,101,48,49,76,50
2025-02-26 16:15:49.285,-900.0,-206.0,303.0,-15.0,8.0,17.0,101,50,51,77,51
2025-02-26 16:15:49.289,-910.0,-212.0,345.0,-16.0,9.0,16.0,101,46,50,76,50
2025-02-26 16:15:49.293,-891.0,-189.0,342.0,-19.0,8.0,15.0,101,46,50,75,50
2025-02-26 16:15:49.293,-926.0,-191.0,347.0,-19.0,10.0,15.0,102,48,51,76,51
2025-02-26 16:15:49.305,-902.0,-198.0,361.0,-19.0,8.0,14.0,102,46,51,78,51
2025-02-26 16:15:49.309,-915.0,-209.0,336.0,-16.0,8.0,15.0,102,47,50,77,50
2025-02-26 16:15:49.314,-914.0,-211.0,320.0,-17.0,10.0,15.0,103,48,50,78,51
2025-02-26 16:15:49.318,-889.0,-226.0,321.0,-15.0,10.0,16.0,104,51,51,77,52
2025-02-26 16:15:49.322,-897.0,-238.0,318.0,-10.0,10.0,19.0,103,48,50,76,51
2025-02-26 16:15:49.330,-876.0,-244.0,284.0,-6.0,11.0,20.0,104,47,51,79,52
2025-02-26 16:15:49.334,-896.0,-266.0,285.0,-1.0,11.0,24.0,104,49,50,78,51
2025-02-26 16:15:49.338,-889.0,-225.0,271.0,1.0,11.0,25.0,105,53,51,77,51
2025-02-26 16:15:49.342,-909.0,-220.0,285.0,7.0,10.0,25.0,105,51,51,78,51
2025-02-26 16:15:49.347,-923.0,-190.0,278.0,9.0,6.0,25.0,105,51,52,79,50
2025-02-26 16:15:49.351,-925.0,-174.0,275.0,12.0,4.0,23.0,105,51,52,78,51
2025-02-26 16:15:49.359,-933.0,-163.0,278.0,13.0,1.0,23.0,106,54,52,79,51
2025-02-26 16:15:49.363,-925.0,-158.0,287.0,14.0,-1.0,21.0,105,51,50,78,52
2025-02-26 16:15:49.366,-938.0,-159.0,300.0,13.0,-2.0,20.0,106,51,50,78,51
2025-02-26 16:15:49.371,-959.0,-156.0,293.0,12.0,-6.0,20.0,107,51,52,79,51
2025-02-26 16:15:49.375,-945.0,-176.0,301.0,13.0,-9.0,18.0,107,54,52,80,52
2025-02-26 16:15:49.382,-945.0,-169.0,303.0,13.0,-10.0,17.0,109,53,51,78,51
2025-02-26 16:15:49.384,-942.0,-180.0,302.0,13.0,-12.0,16.0,108,54,51,78,52
2025-02-26 16:15:49.392,-941.0,-188.0,306.0,15.0,-13.0,15.0,109,53,52,78,53
2025-02-26 16:15:49.396,-940.0,-183.0,318.0,16.0,-14.0,14.0,109,54,53,80,52
2025-02-26 16:15:49.400,-953.0,-192.0,331.0,17.0,-16.0,14.0,110,53,52,79,52
2025-02-26 16:15:49.407,-961.0,-184.0,321.0,15.0,-19.0,13.0,110,52,52,79,51
2025-02-26 16:15:49.412,-979.0,-182.0,336.0,15.0,-20.0,12.0,110,53,52,78,51
2025-02-26 16:15:49.417,-977.0,-180.0,333.0,14.0,-24.0,11.0,111,54,52,79,52
2025-02-26 16:15:49.420,-977.0,-186.0,361.0,12.0,-24.0,10.0,112,54,53,80,54
2025-02-26 16:15:49.428,-988.0,-169.0,337.0,10.0,-25.0,7.0,111,53,52,79,52
2025-02-26 16:15:49.433,-1005.0,-175.0,367.0,3.0,-27.0,5.0,112,53,52,79,51
2025-02-26 16:15:49.436,-1009.0,-187.0,378.0,-2.0,-29.0,2.0,113,53,53,80,53
2025-02-26 16:15:49.441,-998.0,-202.0,407.0,-3.0,-29.0,-1.0,114,55,52,80,53
2025-02-26 16:15:49.445,-966.0,-190.0,412.0,-5.0,-30.0,-3.0,113,56,52,79,53
2025-02-26 16:15:49.451,-941.0,-205.0,431.0,-7.0,-30.0,-5.0,113,54,53,79,52
2025-02-26 16:15:49.456,-966.0,-209.0,432.0,-7.0,-29.0,-8.0,115,57,53,80,53
2025-02-26 16:15:49.461,-945.0,-218.0,444.0,-11.0,-26.0,-8.0,114,56,52,80,53
2025-02-26 16:15:49.463,-910.0,-232.0,491.0,-10.0,-22.0,-9.0,115,55,52,81,53
2025-02-26 16:15:49.469,-871.0,-248.0,501.0,-10.0,-18.0,-9.0,114,54,53,80,51
2025-02-26 16:15:49.475,-868.0,-236.0,513.0,-6.0,-11.0,-10.0,114,56,53,81,54
2025-02-26 16:15:49.481,-863.0,-257.0,510.0,-5.0,-4.0,-11.0,116,57,53,80,51
2025-02-26 16:15:49.486,-849.0,-225.0,515.0,-3.0,-1.0,-12.0,114,56,53,80,53
2025-02-26 16:15:49.487,-871.0,-233.0,503.0,-5.0,7.0,-13.0,115,56,53,81,53
2025-02-26 16:15:49.498,-897.0,-216.0,484.0,-8.0,11.0,-12.0,116,56,51,81,53
2025-02-26 16:15:49.499,-925.0,-232.0,475.0,-9.0,13.0,-15.0,116,55,53,81,53
2025-02-26 16:15:49.505,-1002.0,-194.0,460.0,-12.0,10.0,-17.0,117,56,53,80,53
2025-02-26 16:15:49.510,-851.0,-153.0,404.0,-17.0,11.0,-18.0,117,54,53,82,54
2025-02-26 16:15:49.515,-939.0,-204.0,390.0,-25.0,11.0,-17.0,117,53,52,81,54
2025-02-26 16:15:49.522,-881.0,-171.0,363.0,-19.0,9.0,-18.0,117,53,53,80,52
2025-02-26 16:15:49.523,-912.0,-254.0,367.0,-20.0,10.0,-18.0,118,56,54,81,54
2025-02-26 16:15:49.531,-924.0,-276.0,383.0,-23.0,8.0,-15.0,118,54,53,79,53
2025-02-26 16:15:49.536,-923.0,-226.0,326.0,-25.0,9.0,-16.0,118,54,54,81,53
2025-02-26 16:15:49.542,-887.0,-214.0,338.0,-26.0,8.0,-15.0,120,56,51,81,54
2025-02-26 16:15:49.547,-916.0,-252.0,370.0,-21.0,6.0,-14.0,119,55,54,82,55
2025-02-26 16:15:49.552,-903.0,-293.0,364.0,-11.0,3.0,-14.0,119,56,54,81,55
2025-02-26 16:15:49.556,-881.0,-229.0,324.0,-4.0,2.0,-14.0,121,56,55,82,55
2025-02-26 16:15:49.560,-900.0,-277.0,324.0,-4.0,6.0,-13.0,122,56,54,84,56
2025-02-26 16:15:49.567,-885.0,-289.0,341.0,-4.0,7.0,-14.0,121,56,55,83,55
2025-02-26 16:15:49.572,-884.0,-292.0,359.0,0.0,13.0,-14.0,122,56,56,83,56
2025-02-26 16:15:49.572,-902.0,-263.0,337.0,4.0,13.0,-17.0,122,56,56,84,56
2025-02-26 16:15:49.580,-899.0,-259.0,312.0,14.0,10.0,-19.0,123,53,55,82,57
2025-02-26 16:15:49.585,-917.0,-289.0,320.0,25.0,7.0,-17.0,124,55,56,85,58
2025-02-26 16:15:49.591,-975.0,-228.0,316.0,26.0,4.0,-19.0,121,55,56,82,57
2025-02-26 16:15:49.596,-940.0,-247.0,279.0,21.0,4.0,-19.0,125,56,55,84,57
2025-02-26 16:15:49.601,-995.0,-227.0,252.0,8.0,1.0,-21.0,126,55,57,86,58
2025-02-26 16:15:49.605,-1024.0,-211.0,321.0,1.0,-4.0,-24.0,125,55,57,84,58
2025-02-26 16:15:49.609,-992.0,-221.0,430.0,-5.0,-5.0,-23.0,124,55,56,84,57
2025-02-26 16:15:49.616,-844.0,-235.0,413.0,3.0,-6.0,-23.0,126,55,56,85,58
2025-02-26 16:15:49.621,-817.0,-225.0,373.0,1.0,-1.0,-23.0,126,55,56,85,58
2025-02-26 16:15:49.625,-805.0,-227.0,409.0,-5.0,4.0,-22.0,125,54,55,86,58
2025-02-26 16:15:49.630,-816.0,-249.0,423.0,-12.0,14.0,-19.0,126,54,55,85,59
2025-02-26 16:15:49.633,-863.0,-260.0,416.0,-16.0,17.0,-16.0,126,54,55,85,58
2025-02-26 16:15:49.639,-881.0,-257.0,418.0,-21.0,20.0,-15.0,126,53,55,85,58
2025-02-26 16:15:49.646,-932.0,-269.0,409.0,-28.0,25.0,-13.0,125,54,55,86,57
2025-02-26 16:15:49.649,-944.0,-273.0,389.0,-32.0,28.0,-13.0,123,53,55,85,56
2025-02-26 16:15:49.651,-924.0,-281.0,480.0,-41.0,34.0,-13.0,123,53,54,84,56
2025-02-26 16:15:49.661,-860.0,-322.0,411.0,-29.0,25.0,-7.0,123,54,54,84,55
2025-02-26 16:15:49.669,-999.0,-252.0,239.0,-23.0,17.0,-9.0,122,55,54,84,55
2025-02-26 16:15:49.669,-1064.0,-260.0,202.0,-27.0,17.0,-8.0,119,54,54,82,54
2025-02-26 16:15:49.674,-971.0,-250.0,251.0,-31.0,17.0,-9.0,118,55,53,83,54
2025-02-26 16:15:49.678,-994.0,-257.0,270.0,-33.0,11.0,-9.0,117,56,53,82,54
2025-02-26 16:15:49.686,-1022.0,-268.0,317.0,-37.0,7.0,-9.0,113,55,52,82,53
2025-02-26 16:15:49.690,-930.0,-279.0,367.0,-38.0,11.0,-8.0,111,56,53,82,52
2025-02-26 16:15:49.694,-863.0,-314.0,375.0,-35.0,12.0,-9.0,109,55,52,81,53
2025-02-26 16:15:49.699,-890.0,-278.0,332.0,-29.0,13.0,-8.0,106,56,51,83,53
2025-02-26 16:15:49.706,-831.0,-291.0,344.0,-24.0,20.0,-8.0,104,57,52,81,52
2025-02-26 16:15:49.711,-898.0,-319.0,308.0,-23.0,21.0,-10.0,102,55,52,80,52
2025-02-26 16:15:49.715,-955.0,-300.0,326.0,-21.0,20.0,-10.0,101,55,50,80,51
2025-02-26 16:15:49.720,-958.0,-307.0,283.0,-15.0,16.0,-10.0,100,57,52,83,52
2025-02-26 16:15:49.724,-935.0,-294.0,265.0,-10.0,12.0,-9.0,99,57,51,80,51
2025-02-26 16:15:49.731,-919.0,-327.0,280.0,-10.0,13.0,-7.0,97,57,52,80,50
2025-02-26 16:15:49.735,-955.0,-319.0,267.0,-11.0,12.0,-6.0,97,56,51,81,52
2025-02-26 16:15:49.737,-941.0,-327.0,310.0,-11.0,12.0,-4.0,96,57,52,80,52
2025-02-26 16:15:49.744,-938.0,-330.0,334.0,-5.0,12.0,-2.0,95,57,51,81,51
2025-02-26 16:15:49.748,-907.0,-317.0,314.0,-2.0,10.0,-2.0,93,57,52,82,51
2025-02-26 16:15:49.752,-930.0,-298.0,322.0,-2.0,10.0,-1.0,93,56,52,83,51
2025-02-26 16:15:49.760,-943.0,-299.0,309.0,-5.0,11.0,-1.0,93,56,52,81,51
2025-02-26 16:15:49.764,-933.0,-284.0,307.0,-5.0,10.0,-1.0,92,56,52,83,52
2025-02-26 16:15:49.768,-931.0,-292.0,293.0,-4.0,8.0,-3.0,92,56,53,82,50
2025-02-26 16:15:49.773,-956.0,-291.0,250.0,-3.0,5.0,-5.0,89,55,52,81,51
2025-02-26 16:15:49.776,-1003.0,-292.0,247.0,-4.0,1.0,-6.0,90,57,54,82,51
2025-02-26 16:15:49.780,-958.0,-273.0,252.0,-5.0,-2.0,-7.0,88,56,52,83,52
2025-02-26 16:15:49.787,-951.0,-262.0,270.0,-6.0,-4.0,-7.0,88,54,53,82,51
2025-02-26 16:15:49.793,-931.0,-264.0,276.0,-8.0,-6.0,-6.0,88,56,54,83,51
2025-02-26 16:15:49.797,-929.0,-263.0,270.0,-10.0,-8.0,-6.0,87,56,53,83,52
2025-02-26 16:15:49.801,-926.0,-290.0,288.0,-11.0,-9.0,-5.0,86,55,54,84,50
2025-02-26 16:15:49.805,-917.0,-302.0,295.0,-11.0,-11.0,-4.0,87,55,54,83,51
2025-02-26 16:15:49.813,-915.0,-316.0,276.0,-10.0,-12.0,-2.0,87,55,53,83,50
2025-02-26 16:15:49.817,-919.0,-327.0,286.0,-8.0,-12.0,-1.0,87,54,54,84,51
2025-02-26 16:15:49.822,-892.0,-327.0,291.0,-9.0,-14.0,2.0,87,55,55,83,50
2025-02-26 16:15:49.826,-888.0,-319.0,300.0,-9.0,-11.0,6.0,87,55,53,83,51
2025-02-26 16:15:49.830,-854.0,-316.0,346.0,-8.0,-9.0,7.0,85,55,54,83,51
2025-02-26 16:15:49.834,-806.0,-310.0,379.0,-4.0,-3.0,10.0,87,56,55,84,52
2025-02-26 16:15:49.842,-794.0,-307.0,415.0,-4.0,7.0,13.0,86,55,54,84,51
2025-02-26 16:15:49.846,-785.0,-302.0,421.0,0.0,10.0,14.0,87,55,53,83,51
2025-02-26 16:15:49.851,-814.0,-299.0,404.0,1.0,19.0,16.0,87,56,54,84,51
2025-02-26 16:15:49.854,-836.0,-291.0,389.0,1.0,26.0,18.0,88,56,54,83,51
2025-02-26 16:15:49.859,-839.0,-283.0,363.0,3.0,28.0,19.0,88,55,53,84,52
2025-02-26 16:15:49.863,-848.0,-283.0,365.0,5.0,32.0,22.0,89,56,54,84,52
2025-02-26 16:15:49.870,-854.0,-292.0,340.0,7.0,35.0,26.0,90,56,54,83,51
2025-02-26 16:15:49.875,-859.0,-282.0,312.0,12.0,35.0,27.0,90,57,53,84,50
2025-02-26 16:15:49.879,-890.0,-266.0,289.0,16.0,33.0,29.0,91,58,54,84,52
2025-02-26 16:15:49.883,-939.0,-211.0,208.0,16.0,29.0,30.0,91,57,54,84,52
2025-02-26 16:15:49.888,-925.0,-233.0,224.0,20.0,26.0,31.0,94,57,55,83,53
2025-02-26 16:15:49.891,-965.0,-200.0,189.0,23.0,18.0,29.0,95,57,54,85,53
2025-02-26 16:15:49.899,-946.0,-207.0,197.0,25.0,12.0,27.0,96,57,54,85,53
2025-02-26 16:15:49.902,-939.0,-201.0,167.0,32.0,8.0,25.0,99,56,55,84,52
2025-02-26 16:15:49.908,-950.0,-188.0,171.0,37.0,0.0,21.0,102,56,55,80,53
2025-02-26 16:15:49.912,-977.0,-203.0,214.0,41.0,-6.0,18.0,103,57,54,85,53
2025-02-26 16:15:49.916,-1008.0,-211.0,185.0,43.0,-10.0,15.0,105,57,55,84,54
2025-02-26 16:15:49.924,-993.0,-220.0,211.0,53.0,-16.0,12.0,109,57,55,84,53
2025-02-26 16:15:49.928,-998.0,-228.0,132.0,60.0,-19.0,8.0,110,56,54,84,54
2025-02-26 16:15:49.932,-989.0,-241.0,186.0,65.0,-21.0,6.0,113,56,56,80,54
2025-02-26 16:15:49.937,-1032.0,-240.0,206.0,71.0,-23.0,3.0,114,57,56,84,55
2025-02-26 16:15:49.940,-984.0,-280.0,207.0,78.0,-33.0,4.0,116,56,56,85,56
2025-02-26 16:15:49.947,-958.0,-102.0,150.0,93.0,-40.0,0.0,118,55,56,84,56
2025-02-26 16:15:49.953,-955.0,-267.0,146.0,98.0,-42.0,1.0,120,57,56,84,57
2025-02-26 16:15:49.957,-947.0,-274.0,224.0,106.0,-37.0,1.0,122,56,57,85,58
2025-02-26 16:15:49.961,-972.0,-184.0,190.0,114.0,-37.0,0.0,122,57,58,85,60
2025-02-26 16:15:49.966,-1000.0,-189.0,134.0,115.0,-49.0,-3.0,124,62,58,85,60
2025-02-26 16:15:49.973,-1023.0,-8.0,148.0,112.0,-61.0,-11.0,124,57,59,86,63
2025-02-26 16:15:49.977,-1002.0,-232.0,213.0,122.0,-60.0,-12.0,125,58,60,88,65
2025-02-26 16:15:49.981,-966.0,-129.0,154.0,128.0,-69.0,-19.0,127,57,61,89,69
2025-02-26 16:15:49.986,-1080.0,-209.0,86.0,124.0,-80.0,-19.0,122,56,61,88,70
2025-02-26 16:15:49.993,-1059.0,-228.0,222.0,106.0,-88.0,-17.0,127,57,62,90,73
2025-02-26 16:15:49.998,-886.0,-98.0,241.0,94.0,-122.0,-9.0,127,57,64,93,76
2025-02-26 16:15:50.002,-766.0,-91.0,366.0,109.0,-128.0,-7.0,127,60,66,94,79
2025-02-26 16:15:50.007,-797.0,-430.0,408.0,138.0,-100.0,1.0,126,60,65,93,82
2025-02-26 16:15:50.014,-826.0,-429.0,277.0,85.0,-105.0,4.0,128,68,68,96,86
2025-02-26 16:15:50.018,-691.0,-42.0,230.0,90.0,-117.0,-2.0,129,73,70,98,88
2025-02-26 16:15:50.023,-766.0,-188.0,447.0,103.0,-109.0,-10.0,127,77,71,97,90
2025-02-26 16:15:50.027,-914.0,-153.0,451.0,87.0,-72.0,-9.0,128,85,73,98,94
2025-02-26 16:15:50.035,-849.0,-244.0,420.0,85.0,-54.0,-2.0,128,86,76,100,95
2025-02-26 16:15:50.039,-881.0,-205.0,439.0,64.0,-51.0,-9.0,129,88,76,101,98
2025-02-26 16:15:50.043,-968.0,-141.0,537.0,10.0,-77.0,-8.0,129,92,79,103,100
2025-02-26 16:15:50.047,-820.0,-155.0,681.0,10.0,-81.0,-4.0,129,93,79,104,101
2025-02-26 16:15:50.054,-851.0,-60.0,840.0,17.0,-79.0,-6.0,130,94,80,104,102
2025-02-26 16:15:50.059,-857.0,-50.0,827.0,35.0,-65.0,-4.0,130,95,81,105,105
2025-02-26 16:15:50.063,-835.0,-168.0,728.0,39.0,-49.0,-1.0,130,96,82,106,105
2025-02-26 16:15:50.068,-827.0,-166.0,602.0,40.0,-45.0,-1.0,130,95,82,106,105
2025-02-26 16:15:50.075,-820.0,-184.0,541.0,37.0,-40.0,-1.0,131,96,83,107,106
2025-02-26 16:15:50.079,-810.0,-155.0,651.0,35.0,-24.0,-3.0,131,96,85,108,108
2025-02-26 16:15:50.084,-798.0,-172.0,555.0,35.0,-20.0,-3.0,130,95,84,106,107
2025-02-26 16:15:50.088,-811.0,-147.0,395.0,36.0,-21.0,-4.0,131,97,89,107,108
2025-02-26 16:15:50.095,-863.0,-141.0,395.0,30.0,-31.0,-8.0,131,97,84,106,112
2025-02-26 16:15:50.100,-864.0,-115.0,476.0,16.0,-33.0,-13.0,131,98,85,108,110
2025-02-26 16:15:50.104,-886.0,-123.0,550.0,8.0,-32.0,-13.0,131,99,85,107,111
2025-02-26 16:15:50.109,-934.0,-120.0,559.0,3.0,-30.0,-16.0,131,99,86,108,111
2025-02-26 16:15:50.116,-930.0,-186.0,660.0,0.0,-26.0,-14.0,132,99,85,106,112
2025-02-26 16:15:50.120,-938.0,-166.0,607.0,1.0,-24.0,-14.0,133,101,87,108,113
2025-02-26 16:15:50.125,-917.0,-179.0,565.0,4.0,-28.0,-13.0,131,101,88,108,114
2025-02-26 16:15:50.129,-912.0,-168.0,589.0,3.0,-27.0,-10.0,132,101,87,106,113
2025-02-26 16:15:50.136,-888.0,-196.0,638.0,8.0,-22.0,-9.0,132,101,87,108,114
2025-02-26 16:15:50.141,-896.0,-181.0,621.0,8.0,-17.0,-8.0,132,102,88,108,114
2025-02-26 16:15:50.146,-880.0,-210.0,702.0,4.0,-10.0,-6.0,133,102,87,108,115
2025-02-26 16:15:50.150,-864.0,-146.0,603.0,8.0,-5.0,-4.0,132,101,88,108,115
2025-02-26 16:15:50.157,-889.0,-124.0,477.0,15.0,-14.0,-4.0,133,103,88,110,114
2025-02-26 16:15:50.162,-845.0,-154.0,465.0,11.0,-21.0,-4.0,134,102,88,109,116
2025-02-26 16:15:50.166,-840.0,-158.0,576.0,9.0,-20.0,-4.0,133,102,89,109,116
2025-02-26 16:15:50.172,-832.0,-165.0,604.0,8.0,-15.0,-4.0,131,102,88,109,116
2025-02-26 16:15:50.178,-822.0,-177.0,583.0,9.0,-13.0,-3.0,132,103,89,109,117
2025-02-26 16:15:50.178,-833.0,-191.0,583.0,11.0,-11.0,-2.0,133,103,89,110,117
2025-02-26 16:15:50.186,-840.0,-170.0,596.0,13.0,-9.0,-2.0,132,103,88,109,117
2025-02-26 16:15:50.192,-855.0,-171.0,589.0,13.0,-7.0,-2.0,132,103,87,108,116
2025-02-26 16:15:50.198,-859.0,-190.0,605.0,17.0,-3.0,-1.0,133,103,89,110,117
2025-02-26 16:15:50.203,-851.0,-189.0,604.0,18.0,0.0,0.0,134,103,89,110,115
2025-02-26 16:15:50.206,-844.0,-187.0,589.0,19.0,2.0,1.0,132,103,88,110,117
2025-02-26 16:15:50.211,-871.0,-205.0,640.0,16.0,9.0,1.0,135,104,91,109,118
2025-02-26 16:15:50.219,-869.0,-164.0,615.0,18.0,11.0,1.0,132,105,90,110,118
2025-02-26 16:15:50.220,-875.0,-142.0,578.0,15.0,10.0,0.0,132,104,90,111,118
2025-02-26 16:15:50.227,-870.0,-141.0,569.0,14.0,8.0,1.0,132,104,90,110,119
2025-02-26 16:15:50.232,-866.0,-144.0,583.0,10.0,8.0,0.0,134,103,90,110,119
2025-02-26 16:15:50.239,-868.0,-150.0,591.0,9.0,8.0,-1.0,133,104,90,110,118
2025-02-26 16:15:50.243,-871.0,-145.0,579.0,6.0,8.0,-2.0,134,104,89,109,118
2025-02-26 16:15:50.247,-883.0,-160.0,582.0,4.0,8.0,-3.0,133,104,91,111,119
2025-02-26 16:15:50.252,-890.0,-161.0,572.0,4.0,7.0,-3.0,133,107,91,110,117
2025-02-26 16:15:50.256,-891.0,-159.0,583.0,3.0,7.0,-3.0,133,104,90,111,119
2025-02-26 16:15:50.264,-896.0,-166.0,578.0,2.0,8.0,-3.0,132,105,91,112,120
2025-02-26 16:15:50.268,-880.0,-176.0,555.0,2.0,7.0,-3.0,134,106,91,111,119
2025-02-26 16:15:50.272,-899.0,-167.0,542.0,1.0,7.0,-3.0,137,105,90,112,119
2025-02-26 16:15:50.276,-878.0,-174.0,550.0,1.0,7.0,-3.0,133,105,90,109,119
2025-02-26 16:15:50.281,-877.0,-156.0,570.0,0.0,9.0,-4.0,133,105,90,110,119
2025-02-26 16:15:50.288,-876.0,-155.0,524.0,2.0,8.0,-4.0,133,106,90,110,119
2025-02-26 16:15:50.293,-852.0,-155.0,503.0,1.0,5.0,-4.0,133,105,90,111,121
2025-02-26 16:15:50.294,-850.0,-167.0,505.0,1.0,4.0,-4.0,133,105,90,111,119
2025-02-26 16:15:50.301,-844.0,-177.0,516.0,1.0,3.0,-4.0,133,101,90,111,121
2025-02-26 16:15:50.307,-855.0,-160.0,512.0,0.0,3.0,-4.0,134,106,90,111,119
2025-02-26 16:15:50.313,-850.0,-168.0,512.0,1.0,2.0,-4.0,134,105,91,112,120
2025-02-26 16:15:50.317,-846.0,-175.0,497.0,2.0,2.0,-4.0,133,105,90,110,119
2025-02-26 16:15:50.321,-840.0,-153.0,504.0,3.0,1.0,-4.0,135,107,91,112,119
2025-02-26 16:15:50.323,-841.0,-158.0,508.0,3.0,1.0,-4.0,134,106,91,112,119
2025-02-26 16:15:50.333,-848.0,-165.0,519.0,3.0,2.0,-3.0,133,104,91,109,119
2025-02-26 16:15:50.337,-865.0,-162.0,508.0,0.0,2.0,-3.0,132,106,91,110,119
2025-02-26 16:15:50.342,-862.0,-173.0,508.0,-1.0,2.0,-3.0,134,106,90,111,120
2025-02-26 16:15:50.346,-868.0,-167.0,508.0,-2.0,1.0,-3.0,133,105,92,111,119
2025-02-26 16:15:50.354,-862.0,-166.0,492.0,-3.0,2.0,-3.0,133,104,90,111,119
2025-02-26 16:15:50.357,-862.0,-165.0,497.0,-2.0,0.0,-3.0,133,106,90,111,120
2025-02-26 16:15:50.362,-862.0,-170.0,481.0,-4.0,-1.0,-2.0,134,101,91,112,120
2025-02-26 16:15:50.366,-860.0,-166.0,489.0,-4.0,-1.0,-2.0,133,105,90,111,118
2025-02-26 16:15:50.374,-854.0,-171.0,494.0,-4.0,-1.0,-2.0,133,105,88,112,119
2025-02-26 16:15:50.378,-849.0,-170.0,491.0,-3.0,-1.0,-1.0,133,106,92,111,119
2025-02-26 16:15:50.383,-841.0,-177.0,500.0,-2.0,0.0,-1.0,134,102,91,111,120
2025-02-26 16:15:50.387,-847.0,-195.0,515.0,0.0,1.0,-1.0,133,105,91,111,119
2025-02-26 16:15:50.391,-838.0,-180.0,510.0,2.0,3.0,0.0,134,107,92,112,117
2025-02-26 16:15:50.399,-846.0,-186.0,512.0,3.0,4.0,0.0,134,105,90,112,120
2025-02-26 16:15:50.403,-845.0,-183.0,527.0,6.0,5.0,1.0,133,105,92,111,119
2025-02-26 16:15:50.408,-844.0,-181.0,532.0,9.0,8.0,1.0,133,105,92,112,119
2025-02-26 16:15:50.411,-836.0,-182.0,516.0,10.0,10.0,1.0,133,106,93,111,120
2025-02-26 16:15:50.416,-834.0,-191.0,520.0,12.0,10.0,2.0,134,105,90,110,119
2025-02-26 16:15:50.424,-844.0,-174.0,533.0,14.0,12.0,2.0,134,105,92,111,119
2025-02-26 16:15:50.428,-854.0,-182.0,546.0,15.0,14.0,3.0,134,106,92,112,120
2025-02-26 16:15:50.432,-849.0,-177.0,535.0,16.0,14.0,4.0,135,106,90,112,117
2025-02-26 16:15:50.437,-873.0,-173.0,544.0,16.0,15.0,4.0,133,105,90,110,119
2025-02-26 16:15:50.444,-883.0,-172.0,537.0,15.0,15.0,5.0,134,103,96,111,120
2025-02-26 16:15:50.449,-893.0,-152.0,542.0,15.0,14.0,6.0,134,104,91,111,120
2025-02-26 16:15:50.453,-907.0,-157.0,510.0,13.0,13.0,6.0,136,106,90,109,119
2025-02-26 16:15:50.457,-905.0,-159.0,512.0,11.0,10.0,6.0,134,105,91,112,119
2025-02-26 16:15:50.465,-900.0,-152.0,511.0,11.0,8.0,6.0,135,106,91,112,120
2025-02-26 16:15:50.469,-901.0,-143.0,503.0,10.0,7.0,5.0,134,104,91,111,118
2025-02-26 16:15:50.473,-908.0,-159.0,505.0,9.0,4.0,4.0,134,105,88,112,119
2025-02-26 16:15:50.477,-891.0,-136.0,496.0,8.0,2.0,3.0,134,105,91,113,119
2025-02-26 16:15:50.482,-885.0,-132.0,492.0,7.0,1.0,2.0,131,105,91,113,119
2025-02-26 16:15:50.489,-874.0,-132.0,505.0,6.0,-1.0,2.0,134,106,91,112,119
2025-02-26 16:15:50.494,-868.0,-133.0,493.0,6.0,-2.0,1.0,134,105,88,111,119
2025-02-26 16:15:50.498,-862.0,-141.0,497.0,7.0,-1.0,1.0,134,105,91,111,119
2025-02-26 16:15:50.502,-850.0,-142.0,506.0,8.0,1.0,1.0,135,105,92,113,119
2025-02-26 16:15:50.506,-838.0,-149.0,500.0,9.0,4.0,2.0,135,106,91,112,119
2025-02-26 16:15:50.514,-847.0,-139.0,511.0,11.0,5.0,2.0,134,104,91,112,119
2025-02-26 16:15:50.518,-839.0,-153.0,523.0,13.0,8.0,3.0,134,104,91,112,119
2025-02-26 16:15:50.522,-838.0,-142.0,514.0,13.0,11.0,3.0,135,106,91,113,120
2025-02-26 16:15:50.526,-845.0,-145.0,528.0,13.0,12.0,3.0,134,105,91,111,118
2025-02-26 16:15:50.534,-859.0,-139.0,526.0,13.0,13.0,4.0,133,104,91,110,118
2025-02-26 16:15:50.539,-877.0,-143.0,522.0,12.0,14.0,4.0,134,106,91,112,119
2025-02-26 16:15:50.543,-884.0,-140.0,513.0,13.0,14.0,4.0,135,105,91,112,119
2025-02-26 16:15:50.547,-890.0,-173.0,516.0,13.0,14.0,5.0,134,105,91,112,117
2025-02-26 16:15:50.552,-901.0,-161.0,513.0,15.0,12.0,5.0,133,105,91,112,119
2025-02-26 16:15:50.559,-893.0,-167.0,506.0,15.0,11.0,5.0,135,106,91,111,119
2025-02-26 16:15:50.563,-894.0,-148.0,513.0,18.0,10.0,6.0,134,104,91,113,119
2025-02-26 16:15:50.568,-902.0,-146.0,501.0,19.0,8.0,6.0,134,105,91,111,118
2025-02-26 16:15:50.572,-902.0,-148.0,504.0,18.0,6.0,7.0,133,105,91,112,120
2025-02-26 16:15:50.579,-896.0,-150.0,489.0,18.0,4.0,7.0,133,105,91,111,119
2025-02-26 16:15:50.583,-893.0,-166.0,509.0,19.0,3.0,8.0,137,105,91,114,119
2025-02-26 16:15:50.588,-884.0,-141.0,518.0,21.0,4.0,7.0,135,105,91,111,119
2025-02-26 16:15:50.592,-865.0,-157.0,510.0,21.0,5.0,8.0,133,108,90,112,117
2025-02-26 16:15:50.596,-858.0,-141.0,525.0,23.0,6.0,8.0,134,106,91,111,118
2025-02-26 16:15:50.604,-854.0,-137.0,530.0,25.0,9.0,8.0,135,107,91,111,120
2025-02-26 16:15:50.608,-847.0,-114.0,532.0,25.0,12.0,8.0,134,104,91,114,119
2025-02-26 16:15:50.613,-848.0,-123.0,547.0,25.0,15.0,9.0,133,105,91,111,118
2025-02-26 16:15:50.615,-853.0,-122.0,528.0,25.0,19.0,9.0,136,105,91,111,118
2025-02-26 16:15:50.624,-846.0,-123.0,532.0,24.0,22.0,9.0,134,105,91,111,119
2025-02-26 16:15:50.626,-862.0,-124.0,559.0,24.0,24.0,10.0,133,104,91,112,118
2025-02-26 16:15:50.633,-863.0,-128.0,557.0,26.0,28.0,10.0,134,103,90,111,117
2025-02-26 16:15:50.637,-880.0,-136.0,544.0,28.0,29.0,10.0,135,105,91,111,118
2025-02-26 16:15:50.644,-897.0,-159.0,569.0,28.0,33.0,12.0,135,104,91,111,121
2025-02-26 16:15:50.649,-903.0,-136.0,549.0,30.0,34.0,13.0,134,105,90,111,118
2025-02-26 16:15:50.650,-904.0,-128.0,512.0,30.0,33.0,12.0,133,104,90,112,118
2025-02-26 16:15:50.657,-922.0,-134.0,529.0,31.0,32.0,12.0,134,103,91,112,118
2025-02-26 16:15:50.665,-966.0,-57.0,493.0,32.0,30.0,9.0,134,101,90,111,119
2025-02-26 16:15:50.669,-961.0,-39.0,481.0,32.0,30.0,4.0,133,99,91,112,118
2025-02-26 16:15:50.674,-885.0,-5.0,496.0,28.0,37.0,6.0,135,99,91,112,117
2025-02-26 16:15:50.678,-902.0,-34.0,452.0,28.0,35.0,6.0,134,99,90,112,117
2025-02-26 16:15:50.682,-899.0,-6.0,340.0,20.0,28.0,7.0,133,99,89,111,116
2025-02-26 16:15:50.690,-893.0,-60.0,401.0,13.0,26.0,5.0,134,100,90,111,116
2025-02-26 16:15:50.694,-863.0,11.0,379.0,14.0,19.0,2.0,134,98,88,112,116
2025-02-26 16:15:50.698,-869.0,-51.0,411.0,9.0,18.0,3.0,134,97,88,112,115
2025-02-26 16:15:50.703,-883.0,-83.0,449.0,13.0,20.0,3.0,135,98,87,110,115
2025-02-26 16:15:50.707,-875.0,-87.0,525.0,17.0,30.0,5.0,134,96,88,112,114
2025-02-26 16:15:50.711,-869.0,-100.0,475.0,26.0,34.0,4.0,133,93,87,112,113
2025-02-26 16:15:50.719,-848.0,-65.0,426.0,31.0,36.0,5.0,135,96,88,112,113
2025-02-26 16:15:50.723,-877.0,-103.0,367.0,34.0,31.0,5.0,133,94,87,112,113
2025-02-26 16:15:50.727,-900.0,-100.0,437.0,39.0,31.0,5.0,134,93,85,111,112
2025-02-26 16:15:50.731,-911.0,-75.0,434.0,47.0,33.0,5.0,135,93,81,112,112
2025-02-26 16:15:50.735,-939.0,-75.0,436.0,48.0,36.0,5.0,134,91,84,111,112
2025-02-26 16:15:50.743,-947.0,-101.0,455.0,50.0,36.0,6.0,134,89,81,111,111
2025-02-26 16:15:50.747,-1002.0,-100.0,467.0,52.0,37.0,6.0,135,89,79,110,110
2025-02-26 16:15:50.752,-1003.0,-78.0,461.0,55.0,33.0,4.0,136,83,78,108,109
2025-02-26 16:15:50.756,-965.0,-102.0,501.0,61.0,33.0,7.0,134,80,75,109,108
2025-02-26 16:15:50.764,-1015.0,-100.0,233.0,62.0,23.0,10.0,135,81,73,109,104
2025-02-26 16:15:50.768,-932.0,9.0,113.0,54.0,-2.0,9.0,134,77,71,107,100
2025-02-26 16:15:50.772,-883.0,97.0,137.0,49.0,-13.0,5.0,134,74,70,110,96
2025-02-26 16:15:50.776,-824.0,30.0,219.0,40.0,-21.0,7.0,134,73,69,107,94
2025-02-26 16:15:50.780,-861.0,-83.0,307.0,36.0,-22.0,11.0,135,73,70,106,90
2025-02-26 16:15:50.788,-856.0,-193.0,506.0,33.0,-13.0,15.0,135,70,66,105,87
2025-02-26 16:15:50.792,-834.0,-100.0,515.0,39.0,6.0,14.0,135,67,65,105,86
2025-02-26 16:15:50.796,-822.0,-100.0,467.0,38.0,20.0,13.0,134,69,64,103,83
2025-02-26 16:15:50.800,-817.0,-80.0,497.0,43.0,27.0,12.0,135,68,63,103,82
2025-02-26 16:15:50.805,-856.0,-108.0,466.0,45.0,37.0,12.0,135,67,63,102,81
2025-02-26 16:15:50.810,-932.0,-66.0,422.0,43.0,37.0,11.0,135,66,63,101,81
2025-02-26 16:15:50.817,-936.0,-59.0,428.0,35.0,37.0,13.0,135,61,61,101,76
2025-02-26 16:15:50.821,-958.0,-58.0,500.0,30.0,39.0,15.0,136,61,62,99,75
2025-02-26 16:15:50.825,-996.0,-55.0,509.0,28.0,42.0,19.0,134,57,61,98,75
2025-02-26 16:15:50.829,-978.0,-42.0,417.0,16.0,40.0,20.0,134,57,59,97,73
2025-02-26 16:15:50.834,-956.0,-96.0,472.0,5.0,37.0,21.0,135,55,58,96,72
2025-02-26 16:15:50.841,-944.0,-130.0,504.0,4.0,42.0,24.0,135,57,59,96,70
2025-02-26 16:15:50.845,-899.0,-69.0,479.0,6.0,45.0,27.0,134,54,57,93,67
2025-02-26 16:15:50.849,-868.0,-45.0,492.0,10.0,50.0,28.0,135,51,57,93,67
2025-02-26 16:15:50.854,-856.0,-95.0,525.0,14.0,60.0,29.0,135,52,56,89,66
2025-02-26 16:15:50.858,-848.0,-64.0,450.0,23.0,64.0,31.0,135,51,55,89,64
2025-02-26 16:15:50.862,-851.0,-63.0,464.0,23.0,68.0,31.0,135,51,56,89,64
2025-02-26 16:15:50.870,-879.0,-16.0,475.0,25.0,72.0,33.0,134,51,55,87,64
2025-02-26 16:15:50.874,-887.0,37.0,475.0,26.0,73.0,33.0,134,47,54,86,61
2025-02-26 16:15:50.879,-883.0,22.0,340.0,28.0,70.0,33.0,135,51,54,87,61
2025-02-26 16:15:50.882,-996.0,37.0,378.0,25.0,70.0,31.0,135,48,52,84,61
2025-02-26 16:15:50.886,-1008.0,24.0,512.0,9.0,70.0,31.0,134,47,52,82,58
2025-02-26 16:15:50.891,-985.0,5.0,528.0,0.0,72.0,32.0,135,46,52,81,58
2025-02-26 16:15:50.895,-932.0,-25.0,519.0,-6.0,76.0,36.0,135,49,52,82,57
2025-02-26 16:15:50.901,-897.0,50.0,415.0,-15.0,76.0,35.0,133,46,50,80,56
2025-02-26 16:15:50.907,-881.0,24.0,427.0,-22.0,82.0,38.0,133,43,51,80,55
2025-02-26 16:15:50.911,-826.0,-8.0,415.0,-16.0,87.0,41.0,134,46,50,79,55
2025-02-26 16:15:50.916,-834.0,-64.0,260.0,-2.0,85.0,39.0,133,43,50,78,54
2025-02-26 16:15:50.919,-859.0,-55.0,311.0,-5.0,88.0,37.0,133,45,50,76,54
2025-02-26 16:15:50.927,-924.0,-52.0,354.0,-4.0,91.0,36.0,132,44,50,76,53
2025-02-26 16:15:50.931,-983.0,-5.0,371.0,0.0,90.0,38.0,131,44,48,75,52
2025-02-26 16:15:50.936,-944.0,16.0,276.0,2.0,89.0,38.0,133,46,48,75,53
2025-02-26 16:15:50.939,-939.0,43.0,257.0,1.0,86.0,40.0,131,44,48,74,52
2025-02-26 16:15:50.943,-929.0,104.0,246.0,2.0,83.0,39.0,130,44,48,71,51
2025-02-26 16:15:50.949,-992.0,48.0,172.0,12.0,75.0,38.0,129,43,47,74,52
2025-02-26 16:15:50.953,-1006.0,71.0,244.0,14.0,66.0,35.0,129,46,49,73,53
2025-02-26 16:15:50.959,-1025.0,96.0,217.0,20.0,63.0,33.0,128,44,47,73,51
2025-02-26 16:15:50.965,-1008.0,86.0,148.0,19.0,57.0,32.0,127,44,47,73,52
2025-02-26 16:15:50.966,-1032.0,94.0,163.0,15.0,50.0,30.0,127,45,47,72,51
2025-02-26 16:15:50.972,-1017.0,99.0,161.0,9.0,50.0,27.0,127,40,47,73,51
2025-02-26 16:15:50.977,-1092.0,92.0,163.0,5.0,45.0,24.0,126,43,47,76,52
2025-02-26 16:15:50.984,-1113.0,80.0,174.0,4.0,36.0,21.0,125,43,47,72,52
2025-02-26 16:15:50.989,-1072.0,106.0,166.0,3.0,33.0,18.0,122,43,46,71,51
2025-02-26 16:15:50.990,-1043.0,99.0,134.0,-3.0,28.0,16.0,124,44,48,73,53
2025-02-26 16:15:50.996,-1048.0,58.0,170.0,-2.0,27.0,16.0,125,43,46,71,52
2025-02-26 16:15:51.001,-1045.0,62.0,174.0,-2.0,24.0,15.0,123,43,46,71,52
2025-02-26 16:15:51.009,-1000.0,70.0,205.0,2.0,23.0,16.0,122,43,47,71,52
2025-02-26 16:15:51.014,-969.0,82.0,238.0,4.0,25.0,17.0,123,44,46,73,54
2025-02-26 16:15:51.018,-966.0,57.0,264.0,6.0,27.0,16.0,123,43,46,71,53
2025-02-26 16:15:51.020,-917.0,20.0,280.0,10.0,32.0,16.0,123,45,48,72,53
2025-02-26 16:15:51.026,-917.0,-12.0,306.0,13.0,36.0,19.0,122,44,47,72,54
2025-02-26 16:15:51.040,-885.0,23.0,300.0,25.0,38.0,19.0,124,44,46,72,55
2025-02-26 16:15:51.042,-913.0,4.0,266.0,33.0,40.0,21.0,124,45,48,72,55
2025-02-26 16:15:51.044,-890.0,4.0,282.0,35.0,47.0,24.0,124,44,49,73,56
2025-02-26 16:15:51.047,-927.0,55.0,186.0,33.0,46.0,27.0,125,45,48,72,56
2025-02-26 16:15:51.050,-974.0,27.0,201.0,34.0,47.0,27.0,125,46,50,73,57
2025-02-26 16:15:51.058,-997.0,41.0,172.0,37.0,41.0,29.0,126,45,49,75,58
2025-02-26 16:15:51.062,-1014.0,106.0,155.0,43.0,36.0,29.0,126,45,48,74,58
2025-02-26 16:15:51.067,-1005.0,49.0,106.0,50.0,31.0,29.0,128,46,49,75,60
2025-02-26 16:15:51.071,-1035.0,69.0,83.0,46.0,26.0,29.0,128,46,50,77,62
2025-02-26 16:15:51.075,-1042.0,64.0,92.0,37.0,26.0,31.0,129,47,52,78,63
2025-02-26 16:15:51.083,-1048.0,87.0,95.0,31.0,23.0,32.0,129,49,50,77,64
2025-02-26 16:15:51.087,-1063.0,128.0,44.0,21.0,14.0,31.0,130,49,51,78,67
2025-02-26 16:15:51.091,-1034.0,121.0,137.0,24.0,12.0,31.0,130,49,51,79,69
2025-02-26 16:15:51.096,-1022.0,91.0,131.0,28.0,11.0,30.0,129,52,53,81,73
2025-02-26 16:15:51.100,-1013.0,178.0,106.0,22.0,0.0,30.0,131,52,54,83,75
2025-02-26 16:15:51.108,-1051.0,199.0,110.0,21.0,3.0,30.0,130,53,56,82,75
2025-02-26 16:15:51.112,-1014.0,144.0,116.0,13.0,-8.0,29.0,130,56,57,84,79
2025-02-26 16:15:51.116,-1018.0,195.0,161.0,-7.0,-17.0,26.0,131,57,58,86,82
2025-02-26 16:15:51.121,-977.0,224.0,151.0,-6.0,-18.0,19.0,131,60,59,85,83
2025-02-26 16:15:51.124,-982.0,103.0,221.0,15.0,4.0,23.0,131,63,62,89,86
2025-02-26 16:15:51.132,-969.0,79.0,84.0,16.0,-1.0,24.0,131,65,63,91,88
2025-02-26 16:15:51.136,-1025.0,192.0,155.0,13.0,-3.0,27.0,133,67,65,92,91
2025-02-26 16:15:51.140,-1031.0,217.0,87.0,8.0,-13.0,24.0,132,69,65,93,92
2025-02-26 16:15:51.145,-972.0,122.0,168.0,13.0,-5.0,25.0,134,72,68,99,94
2025-02-26 16:15:51.149,-960.0,118.0,205.0,9.0,-2.0,26.0,132,72,68,97,95
2025-02-26 16:15:51.157,-1004.0,138.0,194.0,0.0,-1.0,24.0,131,74,70,98,97
2025-02-26 16:15:51.161,-1043.0,196.0,214.0,-2.0,-2.0,19.0,131,75,70,99,98
2025-02-26 16:15:51.165,-1028.0,277.0,179.0,-5.0,-2.0,12.0,132,75,70,99,99
2025-02-26 16:15:51.170,-965.0,290.0,196.0,0.0,1.0,9.0,131,76,73,99,100
2025-02-26 16:15:51.174,-977.0,335.0,193.0,-2.0,0.0,0.0,132,77,73,100,100
2025-02-26 16:15:51.179,-1021.0,348.0,176.0,-11.0,1.0,-8.0,131,76,72,100,99
2025-02-26 16:15:51.186,-970.0,340.0,186.0,-20.0,-2.0,-11.0,131,77,73,100,100
2025-02-26 16:15:51.190,-980.0,317.0,154.0,-22.0,-2.0,-16.0,132,77,72,101,101
2025-02-26 16:15:51.195,-972.0,318.0,144.0,-22.0,-4.0,-17.0,132,77,73,101,101
2025-02-26 16:15:51.202,-883.0,296.0,160.0,-20.0,-3.0,-16.0,131,78,71,101,101
2025-02-26 16:15:51.206,-884.0,73.0,145.0,-13.0,-2.0,-4.0,131,79,73,101,102
2025-02-26 16:15:51.211,-939.0,44.0,232.0,-8.0,2.0,5.0,132,79,72,102,100
2025-02-26 16:15:51.214,-1042.0,17.0,155.0,-7.0,8.0,8.0,132,80,74,103,102
2025-02-26 16:15:51.219,-1104.0,54.0,215.0,-8.0,6.0,12.0,132,80,74,103,102
2025-02-26 16:15:51.226,-1065.0,138.0,207.0,-1.0,5.0,15.0,132,78,73,101,102
2025-02-26 16:15:51.231,-1030.0,152.0,199.0,5.0,3.0,15.0,133,80,74,103,102
2025-02-26 16:15:51.235,-1008.0,187.0,179.0,4.0,1.0,14.0,132,81,74,103,102
2025-02-26 16:15:51.239,-1008.0,188.0,168.0,-2.0,0.0,14.0,132,81,74,103,102
2025-02-26 16:15:51.244,-1014.0,192.0,168.0,-3.0,-2.0,13.0,132,80,74,103,102
2025-02-26 16:15:51.250,-1001.0,208.0,161.0,-3.0,-4.0,9.0,132,80,74,102,103
2025-02-26 16:15:51.255,-1003.0,203.0,121.0,-6.0,-6.0,7.0,132,82,75,103,103
2025-02-26 16:15:51.258,-1018.0,203.0,133.0,-8.0,-9.0,5.0,132,78,75,104,103
2025-02-26 16:15:51.263,-1013.0,189.0,124.0,-8.0,-12.0,2.0,132,80,75,103,103
2025-02-26 16:15:51.271,-996.0,180.0,120.0,-8.0,-13.0,-1.0,131,81,74,102,102
2025-02-26 16:15:51.275,-989.0,193.0,137.0,-5.0,-15.0,-3.0,132,81,75,103,103
2025-02-26 16:15:51.277,-959.0,201.0,136.0,-4.0,-14.0,-6.0,132,82,75,96,103
2025-02-26 16:15:51.284,-951.0,195.0,132.0,-4.0,-14.0,-9.0,132,82,75,103,102
2025-02-26 16:15:51.290,-939.0,183.0,163.0,-2.0,-12.0,-10.0,133,82,75,101,103
2025-02-26 16:15:51.296,-935.0,200.0,173.0,-1.0,-10.0,-12.0,132,83,74,104,104
2025-02-26 16:15:51.300,-939.0,189.0,191.0,0.0,-10.0,-13.0,132,81,74,104,104
2025-02-26 16:15:51.304,-956.0,197.0,191.0,-1.0,-7.0,-13.0,133,81,75,103,103
2025-02-26 16:15:51.308,-972.0,178.0,205.0,-3.0,-6.0,-12.0,132,82,75,103,103
2025-02-26 16:15:51.316,-988.0,175.0,210.0,-4.0,-6.0,-11.0,133,83,75,104,102
2025-02-26 16:15:51.321,-994.0,172.0,229.0,-3.0,-5.0,-11.0,133,84,75,103,103
2025-02-26 16:15:51.325,-1014.0,155.0,215.0,-4.0,-5.0,-8.0,133,83,74,103,104
2025-02-26 16:15:51.330,-1033.0,184.0,194.0,-9.0,-5.0,-5.0,132,83,74,104,104
2025-02-26 16:15:51.337,-1000.0,183.0,206.0,-8.0,-5.0,-4.0,133,84,76,104,104
2025-02-26 16:15:51.341,-1039.0,145.0,199.0,-8.0,-8.0,-3.0,133,83,75,104,103
2025-02-26 16:15:51.345,-1041.0,171.0,169.0,-10.0,-10.0,-2.0,132,84,75,103,102
2025-02-26 16:15:51.350,-1037.0,171.0,162.0,-14.0,-15.0,-2.0,133,83,75,104,103
2025-02-26 16:15:51.357,-1026.0,167.0,160.0,-14.0,-18.0,-3.0,133,84,76,104,104
2025-02-26 16:15:51.362,-1040.0,134.0,167.0,-13.0,-20.0,-3.0,132,82,75,104,103
2025-02-26 16:15:51.366,-1025.0,112.0,169.0,-12.0,-24.0,-3.0,132,83,75,104,103
2025-02-26 16:15:51.373,-977.0,101.0,192.0,-7.0,-22.0,-3.0,133,84,75,103,104
2025-02-26 16:15:51.378,-959.0,93.0,204.0,-6.0,-21.0,-5.0,132,83,75,105,103
2025-02-26 16:15:51.380,-923.0,79.0,229.0,-6.0,-17.0,-5.0,132,84,75,104,104
2025-02-26 16:15:51.387,-875.0,87.0,316.0,2.0,-8.0,-5.0,133,84,72,104,103
2025-02-26 16:15:51.391,-891.0,149.0,322.0,4.0,-5.0,-9.0,133,84,68,103,104
2025-02-26 16:15:51.395,-863.0,140.0,222.0,4.0,-5.0,-8.0,133,85,70,104,104
2025-02-26 16:15:51.403,-974.0,199.0,190.0,3.0,-5.0,-8.0,133,84,67,105,105
2025-02-26 16:15:51.407,-929.0,143.0,245.0,-1.0,2.0,-6.0,133,88,65,103,103
2025-02-26 16:15:51.410,-941.0,136.0,243.0,3.0,2.0,-3.0,133,85,62,103,104
2025-02-26 16:15:51.415,-1012.0,102.0,211.0,0.0,3.0,-1.0,133,86,61,105,104
2025-02-26 16:15:51.420,-1001.0,111.0,220.0,2.0,5.0,3.0,134,86,59,103,102
2025-02-26 16:15:51.427,-993.0,70.0,171.0,-1.0,3.0,5.0,134,87,58,104,103
2025-02-26 16:15:51.431,-1051.0,54.0,180.0,1.0,-1.0,8.0,134,86,56,105,103
2025-02-26 16:15:51.435,-1008.0,48.0,119.0,3.0,-5.0,11.0,133,85,57,105,102
2025-02-26 16:15:51.440,-1026.0,107.0,122.0,11.0,-11.0,11.0,134,87,55,106,102
2025-02-26 16:15:51.444,-971.0,159.0,52.0,7.0,-14.0,11.0,134,88,55,104,103
2025-02-26 16:15:51.452,-953.0,107.0,31.0,7.0,-14.0,14.0,132,87,56,104,102
2025-02-26 16:15:51.456,-949.0,65.0,91.0,10.0,-22.0,15.0,132,88,55,106,103
2025-02-26 16:15:51.459,-901.0,76.0,35.0,11.0,-22.0,14.0,132,89,57,107,103
2025-02-26 16:15:51.465,-835.0,41.0,116.0,13.0,-18.0,17.0,133,87,55,103,102
2025-02-26 16:15:51.469,-840.0,113.0,127.0,18.0,-14.0,16.0,134,90,59,106,102
2025-02-26 16:15:51.476,-833.0,142.0,156.0,18.0,-11.0,13.0,133,89,60,104,103
2025-02-26 16:15:51.480,-852.0,220.0,146.0,16.0,-10.0,10.0,133,87,58,105,103
2025-02-26 16:15:51.483,-812.0,175.0,165.0,16.0,-7.0,8.0,134,90,60,104,103
2025-02-26 16:15:51.489,-870.0,149.0,186.0,15.0,0.0,5.0,134,89,60,104,103
2025-02-26 16:15:51.493,-870.0,186.0,171.0,16.0,2.0,4.0,133,88,56,104,103
2025-02-26 16:15:51.501,-912.0,166.0,191.0,15.0,5.0,3.0,133,89,52,104,105
2025-02-26 16:15:51.505,-961.0,175.0,216.0,14.0,7.0,4.0,134,89,58,105,104
2025-02-26 16:15:51.509,-1017.0,149.0,244.0,17.0,7.0,11.0,132,89,58,104,103
2025-02-26 16:15:51.513,-1077.0,66.0,222.0,19.0,9.0,11.0,134,90,57,105,104
2025-02-26 16:15:51.517,-1031.0,138.0,165.0,21.0,5.0,14.0,133,92,60,105,106
2025-02-26 16:15:51.525,-1081.0,188.0,177.0,20.0,2.0,16.0,133,88,58,104,104
2025-02-26 16:15:51.529,-1058.0,109.0,192.0,20.0,-4.0,20.0,132,91,56,106,104
2025-02-26 16:15:51.534,-1092.0,82.0,255.0,23.0,-4.0,24.0,133,89,58,105,104
2025-02-26 16:15:51.538,-1047.0,167.0,180.0,21.0,-6.0,24.0,134,86,59,104,106
2025-02-26 16:15:51.546,-1014.0,186.0,197.0,18.0,-10.0,24.0,133,89,61,105,105
2025-02-26 16:15:51.550,-996.0,200.0,173.0,11.0,-16.0,23.0,128,87,58,104,106
2025-02-26 16:15:51.554,-1004.0,179.0,243.0,11.0,-16.0,21.0,133,90,60,105,104
2025-02-26 16:15:51.559,-992.0,186.0,227.0,9.0,-19.0,20.0,133,89,61,105,104
2025-02-26 16:15:51.561,-1001.0,167.0,217.0,4.0,-21.0,19.0,134,90,63,105,105
2025-02-26 16:15:51.571,-965.0,165.0,220.0,0.0,-19.0,19.0,135,90,60,104,105
2025-02-26 16:15:51.573,-946.0,167.0,244.0,-2.0,-17.0,18.0,133,90,63,103,105
2025-02-26 16:15:51.579,-919.0,181.0,251.0,-5.0,-13.0,16.0,133,90,63,104,105
2025-02-26 16:15:51.583,-931.0,187.0,250.0,-7.0,-11.0,14.0,133,90,63,104,105
2025-02-26 16:15:51.590,-935.0,170.0,256.0,-8.0,-9.0,13.0,134,89,60,105,105
2025-02-26 16:15:51.595,-949.0,176.0,272.0,-8.0,-6.0,13.0,133,89,61,106,106
2025-02-26 16:15:51.599,-961.0,151.0,278.0,-9.0,-3.0,12.0,133,90,62,105,105
2025-02-26 16:15:51.603,-966.0,145.0,277.0,-8.0,-1.0,12.0,134,90,64,105,105
2025-02-26 16:15:51.608,-983.0,152.0,259.0,-10.0,-1.0,12.0,133,90,61,105,106
2025-02-26 16:15:51.615,-986.0,165.0,243.0,-11.0,1.0,13.0,134,90,67,105,105
2025-02-26 16:15:51.619,-980.0,148.0,269.0,-6.0,-1.0,12.0,133,90,63,105,106
2025-02-26 16:15:51.623,-1018.0,167.0,229.0,-12.0,-2.0,11.0,133,91,64,106,106
2025-02-26 16:15:51.628,-997.0,237.0,186.0,-13.0,-6.0,8.0,133,90,62,104,106
2025-02-26 16:15:51.635,-989.0,189.0,229.0,-10.0,-9.0,7.0,133,89,61,105,106
2025-02-26 16:15:51.640,-1015.0,174.0,230.0,-13.0,-11.0,6.0,134,91,64,105,107
2025-02-26 16:15:51.645,-984.0,209.0,205.0,-15.0,-14.0,4.0,133,90,66,105,107
2025-02-26 16:15:51.648,-1001.0,173.0,246.0,-16.0,-16.0,3.0,133,90,64,105,105
2025-02-26 16:15:51.656,-994.0,182.0,263.0,-17.0,-17.0,2.0,133,90,64,106,107
2025-02-26 16:15:51.660,-963.0,176.0,249.0,-17.0,-19.0,2.0,134,90,66,105,106
2025-02-26 16:15:51.664,-978.0,181.0,304.0,-17.0,-17.0,2.0,133,89,64,105,106
2025-02-26 16:15:51.669,-966.0,165.0,322.0,-15.0,-14.0,3.0,133,90,65,105,107
2025-02-26 16:15:51.676,-966.0,198.0,309.0,-16.0,-13.0,3.0,133,90,66,104,107
2025-02-26 16:15:51.681,-977.0,209.0,293.0,-20.0,-13.0,0.0,132,90,67,105,106
2025-02-26 16:15:51.686,-1000.0,209.0,372.0,-15.0,-12.0,-1.0,133,90,66,104,107
2025-02-26 16:15:51.689,-1000.0,212.0,351.0,-12.0,-13.0,-3.0,133,90,70,105,106
2025-02-26 16:15:51.697,-1035.0,212.0,347.0,-11.0,-11.0,-4.0,133,90,72,106,107
2025-02-26 16:15:51.702,-1040.0,222.0,371.0,-8.0,-9.0,-5.0,133,91,73,105,107
2025-02-26 16:15:51.706,-1063.0,226.0,366.0,-9.0,-8.0,-5.0,134,90,77,106,107
2025-02-26 16:15:51.710,-1078.0,243.0,378.0,-11.0,-7.0,-4.0,134,90,74,105,107
2025-02-26 16:15:51.718,-1024.0,241.0,371.0,-9.0,-4.0,-3.0,134,89,74,104,107
2025-02-26 16:15:51.722,-992.0,254.0,348.0,-5.0,-2.0,-3.0,133,90,73,105,107
2025-02-26 16:15:51.726,-986.0,219.0,332.0,-5.0,4.0,1.0,134,90,75,106,108
2025-02-26 16:15:51.731,-994.0,263.0,250.0,-9.0,4.0,1.0,133,90,75,105,107
2025-02-26 16:15:51.734,-949.0,258.0,246.0,-11.0,6.0,2.0,133,90,75,105,106
2025-02-26 16:15:51.739,-984.0,244.0,240.0,-13.0,2.0,0.0,134,91,76,106,108
2025-02-26 16:15:51.746,-945.0,241.0,229.0,-14.0,0.0,-1.0,134,91,75,105,108
2025-02-26 16:15:51.751,-925.0,230.0,228.0,-9.0,1.0,-1.0,133,90,76,104,108
2025-02-26 16:15:51.755,-931.0,217.0,199.0,-7.0,2.0,0.0,134,90,74,107,108
2025-02-26 16:15:51.759,-935.0,190.0,194.0,-8.0,3.0,0.0,133,90,75,105,108
2025-02-26 16:15:51.763,-938.0,197.0,201.0,-3.0,4.0,1.0,134,90,75,105,108
2025-02-26 16:15:51.770,-937.0,209.0,203.0,-2.0,3.0,2.0,133,91,76,108,108
2025-02-26 16:15:51.775,-935.0,243.0,195.0,-3.0,3.0,3.0,133,90,75,105,107
2025-02-26 16:15:51.780,-926.0,254.0,202.0,-3.0,4.0,5.0,134,90,75,104,108
2025-02-26 16:15:51.784,-939.0,274.0,191.0,-4.0,5.0,5.0,133,91,76,106,109
2025-02-26 16:15:51.788,-954.0,267.0,196.0,-4.0,4.0,6.0,134,90,76,106,107
2025-02-26 16:15:51.792,-941.0,261.0,186.0,-5.0,3.0,5.0,133,92,75,104,108
2025-02-26 16:15:51.800,-952.0,286.0,166.0,-8.0,1.0,4.0,134,91,76,106,108
2025-02-26 16:15:51.803,-957.0,269.0,168.0,-10.0,1.0,3.0,133,89,76,105,108
2025-02-26 16:15:51.808,-963.0,242.0,175.0,-8.0,-1.0,2.0,134,91,75,105,108
2025-02-26 16:15:51.813,-951.0,241.0,163.0,-6.0,-3.0,2.0,134,90,76,105,108
2025-02-26 16:15:51.817,-969.0,225.0,185.0,-5.0,-2.0,1.0,133,90,76,106,108
2025-02-26 16:15:51.823,-973.0,234.0,177.0,-3.0,-6.0,1.0,134,92,76,104,109
2025-02-26 16:15:51.829,-958.0,221.0,222.0,-1.0,-4.0,1.0,134,90,76,105,109
2025-02-26 16:15:51.833,-974.0,266.0,141.0,-3.0,-5.0,1.0,132,91,75,104,108
2025-02-26 16:15:51.837,-984.0,251.0,180.0,-7.0,-8.0,1.0,134,92,76,107,110
2025-02-26 16:15:51.841,-962.0,249.0,210.0,-4.0,-10.0,0.0,134,92,76,105,109
2025-02-26 16:15:51.849,-972.0,248.0,208.0,-1.0,-12.0,-2.0,133,90,76,106,109
2025-02-26 16:15:51.853,-959.0,258.0,199.0,-1.0,-13.0,-2.0,134,90,75,106,109
2025-02-26 16:15:51.856,-960.0,242.0,215.0,-2.0,-13.0,-4.0,135,91,76,106,109
2025-02-26 16:15:51.861,-952.0,233.0,237.0,-3.0,-12.0,-4.0,133,90,75,105,109
2025-02-26 16:15:51.869,-949.0,246.0,284.0,-4.0,-11.0,-4.0,133,90,76,105,109
2025-02-26 16:15:51.873,-948.0,225.0,300.0,-1.0,-8.0,-3.0,134,91,77,105,109
2025-02-26 16:15:51.875,-977.0,240.0,314.0,0.0,-7.0,-3.0,135,90,75,107,109
2025-02-26 16:15:51.882,-965.0,206.0,311.0,0.0,-4.0,-3.0,134,92,76,106,109
2025-02-26 16:15:51.887,-972.0,233.0,319.0,-2.0,-1.0,-3.0,133,92,76,104,109
2025-02-26 16:15:51.894,-968.0,270.0,280.0,-2.0,-3.0,-4.0,134,90,80,104,109
2025-02-26 16:15:51.898,-990.0,283.0,141.0,-7.0,-12.0,-5.0,134,91,76,105,109
2025-02-26 16:15:51.902,-986.0,298.0,138.0,-15.0,-12.0,-7.0,135,90,76,103,109
2025-02-26 16:15:51.907,-937.0,301.0,246.0,-18.0,-9.0,-10.0,133,91,75,104,109
2025-02-26 16:15:51.912,-913.0,226.0,279.0,-6.0,-8.0,-8.0,133,93,77,103,109
2025-02-26 16:15:51.919,-974.0,184.0,240.0,-5.0,-9.0,-7.0,134,92,76,103,110
2025-02-26 16:15:51.923,-942.0,187.0,199.0,-7.0,-7.0,-5.0,135,91,76,102,110
2025-02-26 16:15:51.927,-946.0,171.0,194.0,-6.0,-5.0,-2.0,134,91,77,101,110
2025-02-26 16:15:51.929,-938.0,129.0,214.0,-1.0,-5.0,4.0,135,93,77,100,110
2025-02-26 16:15:51.936,-931.0,79.0,197.0,1.0,-6.0,10.0,135,91,76,99,110
2025-02-26 16:15:51.943,-923.0,81.0,169.0,3.0,-6.0,13.0,134,90,78,99,110
2025-02-26 16:15:51.948,-931.0,69.0,186.0,5.0,-6.0,17.0,134,92,78,98,112
2025-02-26 16:15:51.948,-936.0,80.0,164.0,8.0,-7.0,20.0,130,92,78,103,112
2025-02-26 16:15:51.956,-953.0,87.0,207.0,10.0,-9.0,21.0,134,92,78,98,112
2025-02-26 16:15:51.960,-957.0,106.0,185.0,10.0,-13.0,21.0,134,92,78,100,112
2025-02-26 16:15:51.968,-961.0,151.0,149.0,6.0,-16.0,18.0,133,92,76,96,112
2025-02-26 16:15:51.972,-935.0,175.0,109.0,1.0,-20.0,17.0,134,92,77,96,112
2025-02-26 16:15:51.974,-928.0,195.0,142.0,-3.0,-23.0,14.0,134,93,78,95,112
2025-02-26 16:15:51.980,-927.0,196.0,136.0,-4.0,-25.0,12.0,134,89,79,95,113
2025-02-26 16:15:51.984,-918.0,178.0,161.0,-4.0,-27.0,11.0,134,94,79,96,112
2025-02-26 16:15:51.992,-902.0,166.0,136.0,-5.0,-27.0,10.0,134,94,79,94,111
2025-02-26 16:15:51.996,-881.0,156.0,177.0,-6.0,-27.0,11.0,134,91,78,93,113
2025-02-26 16:15:52.001,-867.0,136.0,203.0,-2.0,-23.0,12.0,134,92,79,95,113
2025-02-26 16:15:52.002,-844.0,132.0,209.0,2.0,-20.0,15.0,134,94,80,94,113
2025-02-26 16:15:52.009,-867.0,125.0,237.0,3.0,-18.0,18.0,134,92,80,93,113
2025-02-26 16:15:52.017,-876.0,118.0,267.0,7.0,-15.0,19.0,135,94,79,94,114
2025-02-26 16:15:52.020,-917.0,141.0,288.0,9.0,-13.0,21.0,134,93,79,95,114
2025-02-26 16:15:52.025,-930.0,164.0,293.0,11.0,-13.0,21.0,133,93,80,93,114
2025-02-26 16:15:52.030,-970.0,191.0,299.0,10.0,-16.0,21.0,136,97,85,93,114
2025-02-26 16:15:52.034,-1025.0,211.0,286.0,2.0,-20.0,20.0,135,94,80,93,114
2025-02-26 16:15:52.038,-1020.0,248.0,286.0,-2.0,-22.0,18.0,135,93,80,93,114
2025-02-26 16:15:52.046,-1013.0,271.0,301.0,-4.0,-24.0,18.0,134,94,81,93,113
2025-02-26 16:15:52.050,-1038.0,270.0,270.0,-8.0,-29.0,16.0,134,94,80,93,114
2025-02-26 16:15:52.054,-1008.0,291.0,272.0,-13.0,-31.0,14.0,134,93,79,93,115
2025-02-26 16:15:52.061,-1007.0,294.0,262.0,-18.0,-34.0,13.0,134,94,78,94,114
2025-02-26 16:15:52.066,-1004.0,264.0,272.0,-23.0,-37.0,11.0,134,96,81,94,114
2025-02-26 16:15:52.071,-948.0,231.0,328.0,-23.0,-34.0,11.0,134,94,78,92,114
2025-02-26 16:15:52.075,-943.0,216.0,326.0,-21.0,-32.0,11.0,134,94,80,95,114
2025-02-26 16:15:52.083,-906.0,216.0,333.0,-18.0,-29.0,11.0,133,95,80,96,114
2025-02-26 16:15:52.087,-871.0,211.0,360.0,-16.0,-23.0,10.0,135,97,80,95,115
2025-02-26 16:15:52.087,-880.0,199.0,361.0,-9.0,-21.0,8.0,133,95,78,96,113
2025-02-26 16:15:52.095,-892.0,201.0,412.0,-3.0,-16.0,7.0,134,94,80,96,114
2025-02-26 16:15:52.099,-874.0,217.0,444.0,2.0,-8.0,5.0,135,95,80,95,115
2025-02-26 16:15:52.105,-903.0,254.0,396.0,3.0,-6.0,3.0,134,94,80,95,114
2025-02-26 16:15:52.111,-891.0,238.0,419.0,4.0,-2.0,2.0,134,95,80,96,114
2025-02-26 16:15:52.116,-922.0,271.0,427.0,7.0,1.0,0.0,134,95,80,96,114
2025-02-26 16:15:52.119,-943.0,267.0,394.0,5.0,1.0,0.0,134,95,80,98,114
2025-02-26 16:15:52.124,-966.0,267.0,389.0,7.0,0.0,-1.0,134,94,80,98,114
2025-02-26 16:15:52.128,-1015.0,268.0,364.0,3.0,-3.0,-1.0,135,94,81,99,114
2025-02-26 16:15:52.136,-995.0,280.0,372.0,-3.0,-3.0,-2.0,134,95,80,97,113
2025-02-26 16:15:52.140,-991.0,279.0,380.0,-3.0,-6.0,-2.0,134,95,81,99,114
2025-02-26 16:15:52.141,-987.0,263.0,410.0,-3.0,-8.0,-2.0,135,96,81,100,113
2025-02-26 16:15:52.149,-985.0,255.0,397.0,-6.0,-7.0,-1.0,134,94,80,99,114
2025-02-26 16:15:52.152,-996.0,257.0,371.0,-6.0,-11.0,-1.0,135,95,80,102,114
2025-02-26 16:15:52.160,-982.0,236.0,398.0,-6.0,-12.0,-1.0,135,94,79,102,114
2025-02-26 16:15:52.164,-979.0,227.0,426.0,-5.0,-10.0,-1.0,135,95,80,101,112
2025-02-26 16:15:52.168,-973.0,249.0,434.0,-4.0,-6.0,0.0,134,95,80,103,114
2025-02-26 16:15:52.173,-987.0,237.0,417.0,-6.0,-4.0,-1.0,135,95,80,103,114
2025-02-26 16:15:52.177,-985.0,281.0,427.0,-5.0,-2.0,-3.0,135,95,80,103,113
2025-02-26 16:15:52.184,-998.0,271.0,399.0,-3.0,-3.0,-4.0,135,96,81,105,114
2025-02-26 16:15:52.188,-993.0,295.0,432.0,-4.0,-2.0,-8.0,135,95,81,104,112
2025-02-26 16:15:52.193,-987.0,330.0,390.0,0.0,-3.0,-9.0,135,95,80,104,113
2025-02-26 16:15:52.196,-993.0,327.0,392.0,-2.0,-3.0,-11.0,135,96,82,106,114
2025-02-26 16:15:52.205,-989.0,349.0,348.0,-4.0,-6.0,-13.0,135,95,81,105,114
2025-02-26 16:15:52.208,-982.0,316.0,285.0,-11.0,-9.0,-13.0,135,95,83,105,113
2025-02-26 16:15:52.214,-994.0,360.0,274.0,-12.0,-11.0,-16.0,134,95,80,102,113
2025-02-26 16:15:52.218,-996.0,348.0,310.0,-14.0,-14.0,-18.0,135,95,80,106,114
2025-02-26 16:15:52.225,-976.0,337.0,289.0,-20.0,-16.0,-19.0,133,94,80,105,113
2025-02-26 16:15:52.229,-959.0,327.0,279.0,-25.0,-20.0,-19.0,135,95,80,106,111
2025-02-26 16:15:52.235,-939.0,327.0,281.0,-24.0,-21.0,-21.0,136,95,80,106,111
2025-02-26 16:15:52.239,-904.0,157.0,306.0,-21.0,-15.0,-11.0,135,95,80,106,113
2025-02-26 16:15:52.245,-929.0,140.0,289.0,-17.0,-12.0,-5.0,134,95,80,105,113
2025-02-26 16:15:52.251,-871.0,241.0,268.0,-8.0,-13.0,-4.0,134,94,78,105,112
2025-02-26 16:15:52.253,-867.0,240.0,270.0,-8.0,-10.0,-2.0,135,96,79,105,112
2025-02-26 16:15:52.259,-877.0,237.0,272.0,-8.0,-8.0,-2.0,136,95,81,107,113
2025-02-26 16:15:52.267,-901.0,241.0,296.0,-9.0,-7.0,-2.0,134,94,80,106,116
2025-02-26 16:15:52.268,-893.0,234.0,299.0,-5.0,-7.0,-2.0,136,95,80,106,113
2025-02-26 16:15:52.275,-873.0,259.0,304.0,-3.0,-5.0,-3.0,135,95,80,107,112
2025-02-26 16:15:52.280,-888.0,267.0,291.0,1.0,-6.0,-3.0,134,96,80,106,112
2025-02-26 16:15:52.281,-912.0,267.0,286.0,0.0,-7.0,-3.0,134,95,80,106,113
2025-02-26 16:15:52.291,-928.0,270.0,275.0,-1.0,-10.0,-4.0,135,94,80,107,113
2025-02-26 16:15:52.295,-936.0,263.0,285.0,-4.0,-11.0,-4.0,134,95,79,105,113
2025-02-26 16:15:52.300,-946.0,266.0,268.0,-7.0,-15.0,-4.0,134,95,80,106,114
2025-02-26 16:15:52.304,-961.0,254.0,269.0,-11.0,-18.0,-4.0,136,95,80,107,113
2025-02-26 16:15:52.312,-951.0,238.0,282.0,-13.0,-18.0,-5.0,134,95,80,105,112
2025-02-26 16:15:52.316,-956.0,228.0,297.0,-15.0,-21.0,-5.0,134,95,79,107,112
2025-02-26 16:15:52.320,-947.0,231.0,290.0,-17.0,-22.0,-6.0,136,95,80,106,112
2025-02-26 16:15:52.325,-939.0,226.0,282.0,-17.0,-24.0,-6.0,133,95,79,103,112
2025-02-26 16:15:52.332,-923.0,206.0,318.0,-17.0,-24.0,-7.0,132,95,80,108,112
2025-02-26 16:15:52.336,-905.0,211.0,312.0,-15.0,-23.0,-7.0,135,96,85,106,112
2025-02-26 16:15:52.341,-886.0,193.0,334.0,-13.0,-22.0,-7.0,135,97,80,106,114
2025-02-26 16:15:52.345,-881.0,178.0,364.0,-13.0,-18.0,-6.0,135,95,80,105,112
2025-02-26 16:15:52.352,-880.0,180.0,395.0,-11.0,-16.0,-5.0,132,95,80,107,112
2025-02-26 16:15:52.357,-884.0,188.0,396.0,-10.0,-13.0,-4.0,135,96,80,105,112
2025-02-26 16:15:52.361,-900.0,186.0,407.0,-8.0,-9.0,-3.0,136,97,80,106,112
2025-02-26 16:15:52.365,-908.0,179.0,416.0,-7.0,-7.0,-2.0,135,95,79,107,113
2025-02-26 16:15:52.373,-903.0,178.0,398.0,-7.0,-6.0,-1.0,135,94,74,107,112
2025-02-26 16:15:52.377,-919.0,184.0,387.0,-8.0,-6.0,-1.0,134,95,81,106,112
2025-02-26 16:15:52.381,-927.0,181.0,380.0,-8.0,-7.0,-1.0,133,95,80,105,113
2025-02-26 16:15:52.391,-929.0,170.0,377.0,-9.0,-8.0,0.0,135,96,79,106,112
2025-02-26 16:15:52.395,-933.0,159.0,387.0,-10.0,-7.0,1.0,135,96,80,106,113
2025-02-26 16:15:52.398,-935.0,150.0,385.0,-10.0,-6.0,2.0,136,95,80,105,112
2025-02-26 16:15:52.402,-935.0,158.0,370.0,-10.0,-6.0,2.0,135,94,79,106,113
2025-02-26 16:15:52.406,-929.0,148.0,375.0,-9.0,-5.0,2.0,135,96,81,106,112
2025-02-26 16:15:52.411,-922.0,161.0,368.0,-9.0,-4.0,2.0,136,96,80,105,113
2025-02-26 16:15:52.414,-930.0,144.0,371.0,-7.0,-5.0,2.0,135,95,80,105,112
2025-02-26 16:15:52.423,-933.0,151.0,382.0,-6.0,-4.0,3.0,136,96,78,104,113
2025-02-26 16:15:52.426,-928.0,149.0,386.0,-6.0,-3.0,3.0,136,96,80,106,112
2025-02-26 16:15:52.431,-922.0,162.0,382.0,-4.0,-2.0,4.0,131,94,79,109,112
2025-02-26 16:15:52.435,-930.0,165.0,387.0,-3.0,-2.0,4.0,135,95,79,106,112
2025-02-26 16:15:52.439,-924.0,168.0,407.0,-3.0,-1.0,4.0,136,96,80,106,113
2025-02-26 16:15:52.447,-916.0,184.0,410.0,-2.0,1.0,5.0,135,96,79,106,111
2025-02-26 16:15:52.450,-905.0,186.0,408.0,-3.0,3.0,4.0,135,97,80,106,113
2025-02-26 16:15:52.455,-901.0,197.0,397.0,-3.0,4.0,3.0,134,95,80,107,112
2025-02-26 16:15:52.459,-901.0,215.0,394.0,-4.0,5.0,2.0,135,96,80,107,112
2025-02-26 16:15:52.464,-918.0,220.0,394.0,-5.0,5.0,2.0,135,96,80,107,112
2025-02-26 16:15:52.468,-939.0,218.0,372.0,-6.0,4.0,2.0,135,95,80,106,112
2025-02-26 16:15:52.476,-940.0,226.0,371.0,-9.0,4.0,2.0,135,95,79,107,112
2025-02-26 16:15:52.480,-950.0,216.0,366.0,-12.0,3.0,2.0,136,95,80,107,112
2025-02-26 16:15:52.484,-943.0,211.0,370.0,-11.0,2.0,2.0,134,95,80,106,112
2025-02-26 16:15:52.488,-957.0,201.0,364.0,-9.0,1.0,3.0,134,95,79,106,112
2025-02-26 16:15:52.493,-956.0,185.0,361.0,-6.0,1.0,3.0,135,95,81,107,112
2025-02-26 16:15:52.496,-952.0,194.0,370.0,-5.0,1.0,4.0,136,95,80,107,112
2025-02-26 16:15:52.504,-942.0,200.0,362.0,-3.0,0.0,5.0,135,96,79,107,111
2025-02-26 16:15:52.509,-939.0,219.0,362.0,-3.0,0.0,4.0,135,96,81,107,112
2025-02-26 16:15:52.513,-936.0,235.0,357.0,-3.0,0.0,4.0,136,96,79,106,111
2025-02-26 16:15:52.517,-935.0,244.0,359.0,-4.0,-1.0,3.0,134,96,79,106,111
2025-02-26 16:15:52.521,-925.0,265.0,353.0,-5.0,-1.0,2.0,135,96,79,105,111
2025-02-26 16:15:52.529,-910.0,259.0,345.0,-6.0,-1.0,1.0,136,95,79,108,111
2025-02-26 16:15:52.531,-886.0,255.0,354.0,-6.0,-1.0,1.0,136,96,80,105,112
2025-02-26 16:15:52.537,-885.0,235.0,370.0,-4.0,2.0,-1.0,136,97,80,107,112
2025-02-26 16:15:52.542,-883.0,235.0,382.0,-3.0,5.0,-1.0,135,96,77,107,112
2025-02-26 16:15:52.546,-889.0,240.0,389.0,-1.0,9.0,-2.0,136,95,80,107,112
2025-02-26 16:15:52.554,-903.0,251.0,389.0,1.0,12.0,-2.0,135,99,80,106,111
2025-02-26 16:15:52.555,-913.0,255.0,385.0,1.0,12.0,-2.0,136,97,80,106,113
2025-02-26 16:15:52.560,-936.0,258.0,378.0,0.0,13.0,-2.0,137,95,76,106,112
2025-02-26 16:15:52.566,-960.0,267.0,370.0,-1.0,12.0,-3.0,136,96,79,106,111
2025-02-26 16:15:52.570,-961.0,277.0,349.0,-2.0,11.0,-9.0,136,96,80,107,111
2025-02-26 16:15:52.578,-863.0,340.0,325.0,-2.0,8.0,-11.0,136,96,80,108,111
2025-02-26 16:15:52.582,-962.0,254.0,334.0,-4.0,6.0,-13.0,135,95,80,107,108
2025-02-26 16:15:52.587,-1005.0,271.0,328.0,-5.0,3.0,-14.0,135,95,79,104,106
2025-02-26 16:15:52.591,-1007.0,337.0,217.0,-16.0,-7.0,-17.0,135,96,79,106,105
2025-02-26 16:15:52.597,-949.0,308.0,215.0,-27.0,-14.0,-20.0,136,96,80,106,106
2025-02-26 16:15:52.603,-946.0,240.0,282.0,-27.0,-16.0,-19.0,134,96,79,106,103
2025-02-26 16:15:52.607,-930.0,223.0,367.0,-21.0,-16.0,-18.0,135,95,78,105,102
2025-02-26 16:15:52.613,-916.0,189.0,361.0,-15.0,-9.0,-16.0,136,96,77,106,100
2025-02-26 16:15:52.619,-887.0,203.0,270.0,-14.0,-9.0,-15.0,135,97,78,105,99
2025-02-26 16:15:52.620,-891.0,196.0,321.0,-11.0,-9.0,-15.0,135,95,77,105,100
2025-02-26 16:15:52.627,-899.0,189.0,353.0,-5.0,-4.0,-12.0,136,96,77,105,98
2025-02-26 16:15:52.632,-912.0,200.0,326.0,-3.0,-3.0,-11.0,136,95,76,104,96
2025-02-26 16:15:52.637,-919.0,207.0,331.0,-1.0,-3.0,-12.0,136,95,77,105,97
2025-02-26 16:15:52.643,-933.0,214.0,363.0,2.0,-1.0,-10.0,136,96,78,105,97
2025-02-26 16:15:52.644,-935.0,221.0,381.0,4.0,0.0,-10.0,135,94,75,104,94
2025-02-26 16:15:52.650,-929.0,239.0,370.0,4.0,1.0,-9.0,134,94,74,105,92
2025-02-26 16:15:52.656,-936.0,241.0,369.0,1.0,-1.0,-9.0,135,95,74,103,92
2025-02-26 16:15:52.659,-949.0,237.0,357.0,0.0,-2.0,-8.0,137,95,73,103,89
2025-02-26 16:15:52.667,-953.0,234.0,354.0,-4.0,-3.0,-8.0,135,94,72,102,87
2025-02-26 16:15:52.672,-980.0,228.0,356.0,-7.0,-5.0,-8.0,135,95,71,102,87
2025-02-26 16:15:52.676,-957.0,194.0,357.0,-7.0,-6.0,-8.0,135,95,70,100,84
2025-02-26 16:15:52.681,-945.0,197.0,357.0,-8.0,-4.0,-8.0,134,95,67,99,81
2025-02-26 16:15:52.685,-884.0,185.0,374.0,-5.0,-1.0,-8.0,135,95,69,99,81
2025-02-26 16:15:52.689,-868.0,181.0,359.0,-3.0,-1.0,-8.0,135,94,66,99,77
2025-02-26 16:15:52.697,-888.0,160.0,380.0,0.0,3.0,-10.0,135,95,65,96,77
2025-02-26 16:15:52.701,-912.0,149.0,372.0,-1.0,6.0,-9.0,137,95,65,93,74
2025-02-26 16:15:52.705,-930.0,123.0,396.0,-1.0,6.0,-7.0,135,93,64,94,72
2025-02-26 16:15:52.709,-932.0,118.0,406.0,1.0,8.0,-7.0,134,95,64,94,71
2025-02-26 16:15:52.713,-951.0,149.0,380.0,2.0,7.0,-7.0,136,94,63,92,70
2025-02-26 16:15:52.718,-939.0,133.0,363.0,2.0,7.0,-7.0,135,92,62,90,65
2025-02-26 16:15:52.722,-955.0,136.0,375.0,1.0,6.0,-6.0,136,95,62,90,67
2025-02-26 16:15:52.729,-955.0,136.0,370.0,2.0,4.0,-5.0,135,93,61,92,67
2025-02-26 16:15:52.734,-957.0,152.0,364.0,1.0,3.0,-5.0,135,94,60,87,64
2025-02-26 16:15:52.737,-942.0,158.0,373.0,0.0,1.0,-5.0,136,96,62,86,61
2025-02-26 16:15:52.741,-939.0,165.0,374.0,-1.0,-1.0,-5.0,135,94,59,86,62
2025-02-26 16:15:52.746,-943.0,158.0,371.0,-4.0,-1.0,-5.0,135,94,57,83,60
2025-02-26 16:15:52.751,-937.0,194.0,376.0,-7.0,-3.0,-5.0,135,94,56,81,61
2025-02-26 16:15:52.755,-918.0,166.0,361.0,-9.0,-2.0,-7.0,136,94,58,82,61
2025-02-26 16:15:52.761,-894.0,153.0,365.0,-10.0,-1.0,-9.0,136,93,56,82,58
2025-02-26 16:15:52.767,-876.0,129.0,370.0,-7.0,3.0,-11.0,135,94,56,80,57
2025-02-26 16:15:52.771,-869.0,108.0,395.0,-4.0,7.0,-13.0,136,93,56,80,58
2025-02-26 16:15:52.775,-886.0,111.0,383.0,1.0,7.0,-14.0,135,93,56,80,57
2025-02-26 16:15:52.779,-922.0,114.0,391.0,4.0,9.0,-14.0,136,94,56,79,58
2025-02-26 16:15:52.783,-961.0,131.0,374.0,4.0,8.0,-14.0,136,93,55,79,56
2025-02-26 16:15:52.791,-960.0,160.0,370.0,3.0,8.0,-14.0,135,93,54,78,55
2025-02-26 16:15:52.796,-970.0,158.0,383.0,3.0,7.0,-13.0,135,94,55,78,58
2025-02-26 16:15:52.800,-984.0,156.0,357.0,3.0,5.0,-11.0,136,93,54,76,56
2025-02-26 16:15:52.804,-984.0,179.0,366.0,2.0,4.0,-10.0,135,94,53,75,54
2025-02-26 16:15:52.807,-978.0,191.0,361.0,-1.0,2.0,-9.0,137,94,53,75,57
2025-02-26 16:15:52.812,-953.0,224.0,335.0,-4.0,-1.0,-9.0,136,94,54,76,56
2025-02-26 16:15:52.819,-960.0,209.0,379.0,-6.0,-1.0,-8.0,134,92,53,75,54
2025-02-26 16:15:52.824,-978.0,206.0,379.0,-7.0,-3.0,-6.0,136,93,53,74,53
2025-02-26 16:15:52.828,-972.0,200.0,352.0,-9.0,-5.0,-3.0,136,93,53,76,54
2025-02-26 16:15:52.833,-966.0,167.0,401.0,-13.0,-4.0,-3.0,136,94,52,73,55
2025-02-26 16:15:52.836,-906.0,210.0,390.0,-11.0,-2.0,-4.0,136,93,52,77,53
2025-02-26 16:15:52.844,-883.0,220.0,343.0,-11.0,-2.0,-7.0,137,93,51,72,51
2025-02-26 16:15:52.848,-879.0,217.0,345.0,-12.0,0.0,-9.0,135,93,52,72,51
2025-02-26 16:15:52.852,-882.0,199.0,375.0,-11.0,5.0,-12.0,136,94,52,73,54
2025-02-26 16:15:52.856,-918.0,172.0,387.0,-9.0,9.0,-14.0,136,93,50,73,52
2025-02-26 16:15:52.861,-929.0,174.0,398.0,-7.0,11.0,-13.0,136,93,52,72,50
2025-02-26 16:15:52.865,-932.0,195.0,409.0,-2.0,16.0,-4.0,136,93,51,72,52
2025-02-26 16:15:52.872,-1074.0,116.0,559.0,3.0,17.0,-6.0,137,92,51,72,52
2025-02-26 16:15:52.877,-947.0,359.0,210.0,-2.0,10.0,-8.0,135,93,50,71,50
2025-02-26 16:15:52.881,-972.0,187.0,225.0,-8.0,5.0,-7.0,137,92,51,72,50
2025-02-26 16:15:52.886,-1000.0,179.0,311.0,-7.0,-4.0,-7.0,136,93,49,70,49
2025-02-26 16:15:52.890,-1014.0,197.0,288.0,-8.0,-9.0,-7.0,136,93,50,71,50
2025-02-26 16:15:52.897,-1003.0,194.0,289.0,-12.0,-13.0,-6.0,137,93,50,71,50
2025-02-26 16:15:52.901,-998.0,183.0,282.0,-13.0,-16.0,-5.0,136,92,50,71,49
2025-02-26 16:15:52.906,-984.0,173.0,339.0,-15.0,-20.0,-4.0,135,92,50,71,49
2025-02-26 16:15:52.910,-959.0,155.0,318.0,-16.0,-20.0,-3.0,137,92,51,72,50
2025-02-26 16:15:52.918,-917.0,176.0,296.0,-17.0,-20.0,-4.0,137,92,50,71,49
2025-02-26 16:15:52.922,-879.0,163.0,328.0,-16.0,-18.0,-5.0,136,92,49,71,49
2025-02-26 16:15:52.924,-802.0,149.0,367.0,-9.0,-11.0,-9.0,137,92,51,71,49
2025-02-26 16:15:52.931,-788.0,124.0,367.0,-6.0,-7.0,-11.0,136,93,50,70,47
2025-02-26 16:15:52.935,-810.0,121.0,386.0,0.0,2.0,-12.0,135,93,49,69,48
2025-02-26 16:15:52.936,-876.0,123.0,388.0,3.0,9.0,-12.0,137,92,50,70,49
2025-02-26 16:15:52.946,-906.0,122.0,390.0,2.0,11.0,-11.0,136,93,49,69,48
2025-02-26 16:15:52.951,-917.0,128.0,371.0,1.0,13.0,-10.0,136,91,50,70,48
2025-02-26 16:15:52.955,-949.0,151.0,352.0,-2.0,11.0,-8.0,140,93,50,70,49
2025-02-26 16:15:52.959,-972.0,153.0,315.0,-3.0,8.0,-7.0,136,93,50,70,50
2025-02-26 16:15:52.964,-994.0,153.0,281.0,-6.0,2.0,-7.0,136,90,49,70,48
2025-02-26 16:15:52.971,-1013.0,137.0,280.0,-8.0,-5.0,-7.0,136,92,49,70,49
2025-02-26 16:15:52.976,-1017.0,125.0,299.0,-10.0,-8.0,-6.0,136,90,51,71,49
2025-02-26 16:15:52.980,-1009.0,147.0,315.0,-12.0,-13.0,-6.0,136,90,49,70,50
2025-02-26 16:15:52.984,-995.0,153.0,312.0,-17.0,-18.0,-6.0,137,90,49,71,50
2025-02-26 16:15:52.991,-974.0,165.0,310.0,-20.0,-20.0,-6.0,136,89,49,70,50
2025-02-26 16:15:52.995,-980.0,154.0,330.0,-22.0,-23.0,-6.0,140,88,49,65,49
2025-02-26 16:15:53.000,-970.0,152.0,315.0,-30.0,-26.0,-7.0,137,87,49,70,50
2025-02-26 16:15:53.004,-913.0,154.0,340.0,-29.0,-27.0,-7.0,136,86,48,70,50
2025-02-26 16:15:53.009,-906.0,110.0,368.0,-24.0,-25.0,-6.0,135,85,48,69,49
2025-02-26 16:15:53.016,-870.0,120.0,358.0,-21.0,-21.0,-6.0,138,85,49,70,50
2025-02-26 16:15:53.021,-809.0,99.0,377.0,-19.0,-18.0,-6.0,136,83,48,69,51
2025-02-26 16:15:53.025,-795.0,92.0,448.0,-11.0,-8.0,-6.0,136,83,48,70,49
2025-02-26 16:15:53.029,-833.0,145.0,447.0,-6.0,-1.0,-6.0,137,82,49,69,50
2025-02-26 16:15:53.033,-892.0,79.0,426.0,-2.0,2.0,-5.0,136,80,48,70,50
2025-02-26 16:15:53.037,-903.0,101.0,428.0,2.0,7.0,-4.0,135,82,49,69,50
2025-02-26 16:15:53.045,-935.0,119.0,424.0,1.0,7.0,-4.0,137,79,49,70,50
2025-02-26 16:15:53.049,-945.0,143.0,382.0,0.0,7.0,-4.0,136,79,49,70,50
2025-02-26 16:15:53.053,-947.0,136.0,375.0,-3.0,6.0,-4.0,136,80,50,70,52
2025-02-26 16:15:53.057,-958.0,147.0,369.0,-4.0,5.0,-5.0,138,79,48,70,52
2025-02-26 16:15:53.062,-959.0,154.0,376.0,-4.0,4.0,-5.0,137,76,49,70,51
2025-02-26 16:15:53.069,-958.0,160.0,376.0,-4.0,2.0,-6.0,136,77,49,70,52
2025-02-26 16:15:53.074,-952.0,162.0,363.0,-5.0,-1.0,-9.0,137,78,50,71,52
2025-02-26 16:15:53.077,-958.0,187.0,365.0,-8.0,-1.0,-13.0,136,76,53,70,51
2025-02-26 16:15:53.083,-952.0,194.0,362.0,-11.0,-4.0,-16.0,137,78,51,71,53
2025-02-26 16:15:53.091,-916.0,226.0,358.0,-13.0,-8.0,-24.0,136,78,50,70,53
2025-02-26 16:15:53.094,-908.0,226.0,333.0,-17.0,-10.0,-31.0,136,77,50,71,53
2025-02-26 16:15:53.098,-926.0,246.0,334.0,-30.0,-14.0,-33.0,138,78,51,71,53
2025-02-26 16:15:53.102,-960.0,252.0,382.0,-32.0,-12.0,-35.0,136,78,51,73,54
2025-02-26 16:15:53.107,-949.0,191.0,387.0,-34.0,-12.0,-37.0,136,77,51,73,54
2025-02-26 16:15:53.113,-899.0,185.0,378.0,-39.0,-13.0,-38.0,137,78,53,73,55
2025-02-26 16:15:53.119,-910.0,159.0,405.0,-40.0,-8.0,-39.0,137,79,52,74,56
2025-02-26 16:15:53.123,-928.0,164.0,378.0,-42.0,-7.0,-40.0,135,79,52,72,56
2025-02-26 16:15:53.127,-941.0,156.0,381.0,-44.0,-8.0,-40.0,137,80,53,75,58
2025-02-26 16:15:53.135,-968.0,139.0,377.0,-47.0,-7.0,-39.0,137,80,53,76,59
2025-02-26 16:15:53.140,-960.0,153.0,367.0,-49.0,-8.0,-39.0,138,79,53,77,59
2025-02-26 16:15:53.144,-953.0,153.0,339.0,-51.0,-9.0,-39.0,136,82,54,76,60
2025-02-26 16:15:53.148,-960.0,177.0,355.0,-53.0,-10.0,-43.0,137,81,55,77,61
2025-02-26 16:15:53.152,-968.0,215.0,369.0,-53.0,-11.0,-52.0,138,82,56,79,64
2025-02-26 16:15:53.160,-952.0,285.0,373.0,-59.0,-19.0,-59.0,136,80,56,79,63
2025-02-26 16:15:53.162,-1002.0,287.0,375.0,-68.0,-27.0,-69.0,137,83,58,81,65
2025-02-26 16:15:53.168,-1069.0,368.0,395.0,-78.0,-34.0,-80.0,137,82,58,82,66
2025-02-26 16:15:53.173,-1045.0,363.0,358.0,-92.0,-39.0,-85.0,137,83,59,84,68
2025-02-26 16:15:53.180,-1045.0,394.0,356.0,-113.0,-50.0,-98.0,136,84,61,87,70
2025-02-26 16:15:53.185,-1063.0,408.0,327.0,-123.0,-62.0,-110.0,136,84,62,87,72
2025-02-26 16:15:53.189,-1029.0,340.0,340.0,-140.0,-67.0,-113.0,136,85,64,89,73
2025-02-26 16:15:53.197,-1013.0,309.0,344.0,-154.0,-73.0,-122.0,137,86,66,90,77
2025-02-26 16:15:53.201,-971.0,269.0,310.0,-162.0,-83.0,-136.0,137,87,66,91,76
2025-02-26 16:15:53.205,-970.0,238.0,287.0,-178.0,-84.0,-144.0,136,86,67,92,78
2025-02-26 16:15:53.209,-961.0,179.0,307.0,-190.0,-88.0,-147.0,137,87,69,93,78
2025-02-26 16:15:53.217,-967.0,138.0,297.0,-195.0,-92.0,-154.0,137,88,70,95,83
2025-02-26 16:15:53.222,-939.0,85.0,323.0,-208.0,-93.0,-159.0,136,87,70,96,84
2025-02-26 16:15:53.226,-926.0,11.0,362.0,-214.0,-97.0,-160.0,134,88,70,97,84
2025-02-26 16:15:53.234,-930.0,-67.0,357.0,-219.0,-99.0,-162.0,135,88,71,97,86
2025-02-26 16:15:53.238,-916.0,-116.0,351.0,-235.0,-101.0,-166.0,137,90,72,99,86
2025-02-26 16:15:53.242,-866.0,-141.0,413.0,-239.0,-101.0,-166.0,137,90,73,98,87
2025-02-26 16:15:53.245,-875.0,-193.0,425.0,-233.0,-100.0,-165.0,136,89,72,99,88
2025-02-26 16:15:53.254,-877.0,-235.0,448.0,-230.0,-99.0,-165.0,136,90,72,100,88
2025-02-26 16:15:53.256,-839.0,-252.0,454.0,-222.0,-97.0,-164.0,137,90,73,98,89
2025-02-26 16:15:53.263,-810.0,-244.0,491.0,-216.0,-94.0,-162.0,137,91,73,100,90
2025-02-26 16:15:53.270,-814.0,-232.0,424.0,-212.0,-97.0,-160.0,137,90,74,100,90
2025-02-26 16:15:53.274,-785.0,-219.0,420.0,-206.0,-97.0,-157.0,135,89,73,100,91
2025-02-26 16:15:53.279,-777.0,-248.0,423.0,-204.0,-95.0,-154.0,135,91,77,101,92
2025-02-26 16:15:53.287,-731.0,-244.0,416.0,-200.0,-94.0,-153.0,135,91,73,101,92
2025-02-26 16:15:53.291,-723.0,-301.0,435.0,-201.0,-95.0,-156.0,135,91,76,100,92
2025-02-26 16:15:53.296,-782.0,-644.0,344.0,-212.0,-94.0,-156.0,135,93,75,102,93
2025-02-26 16:15:53.303,-676.0,-278.0,530.0,-211.0,-100.0,-152.0,135,94,75,101,93
2025-02-26 16:15:53.307,-695.0,-431.0,479.0,-190.0,-94.0,-145.0,135,92,75,101,93
2025-02-26 16:15:53.312,-724.0,-428.0,503.0,-172.0,-87.0,-143.0,135,93,75,101,93
2025-02-26 16:15:53.319,-671.0,-492.0,498.0,-167.0,-76.0,-143.0,136,93,75,101,95
2025-02-26 16:15:53.323,-709.0,-544.0,432.0,-166.0,-77.0,-145.0,135,94,75,102,95
2025-02-26 16:15:53.328,-705.0,-522.0,429.0,-174.0,-79.0,-151.0,136,90,75,102,95
2025-02-26 16:15:53.336,-675.0,-563.0,442.0,-171.0,-77.0,-152.0,136,95,78,103,96
2025-02-26 16:15:53.340,-662.0,-605.0,441.0,-166.0,-74.0,-156.0,135,90,76,101,95
2025-02-26 16:15:53.344,-662.0,-635.0,367.0,-168.0,-75.0,-154.0,134,88,75,102,95
2025-02-26 16:15:53.352,-629.0,-646.0,392.0,-159.0,-76.0,-151.0,135,89,75,102,94
2025-02-26 16:15:53.357,-610.0,-628.0,396.0,-156.0,-71.0,-145.0,134,88,76,104,95
2025-02-26 16:15:53.361,-610.0,-645.0,394.0,-149.0,-66.0,-133.0,135,91,76,102,96
2025-02-26 16:15:53.365,-620.0,-642.0,385.0,-146.0,-61.0,-123.0,134,90,76,103,95
2025-02-26 16:15:53.373,-629.0,-698.0,388.0,-141.0,-58.0,-113.0,133,90,76,102,94
2025-02-26 16:15:53.377,-602.0,-734.0,384.0,-143.0,-63.0,-108.0,134,88,76,103,95
2025-02-26 16:15:53.381,-635.0,-753.0,379.0,-141.0,-59.0,-98.0,134,88,77,103,95
2025-02-26 16:15:53.389,-575.0,-772.0,350.0,-141.0,-55.0,-94.0,134,90,76,103,96
2025-02-26 16:15:53.394,-559.0,-784.0,385.0,-137.0,-49.0,-88.0,134,87,77,102,95
2025-02-26 16:15:53.398,-543.0,-731.0,421.0,-132.0,-45.0,-84.0,134,86,77,103,96
2025-02-26 16:15:53.405,-575.0,-780.0,376.0,-130.0,-39.0,-83.0,134,90,75,101,95
2025-02-26 16:15:53.409,-544.0,-773.0,393.0,-121.0,-37.0,-81.0,134,88,76,103,95
2025-02-26 16:15:53.414,-544.0,-828.0,395.0,-122.0,-35.0,-79.0,131,87,76,103,95
2025-02-26 16:15:53.418,-557.0,-820.0,367.0,-115.0,-33.0,-76.0,134,87,76,103,96
2025-02-26 16:15:53.427,-530.0,-820.0,391.0,-111.0,-34.0,-74.0,133,84,76,104,96
2025-02-26 16:15:53.430,-548.0,-880.0,389.0,-104.0,-31.0,-72.0,133,87,76,103,95
2025-02-26 16:15:53.435,-545.0,-884.0,362.0,-97.0,-26.0,-67.0,134,88,77,103,96
2025-02-26 16:15:53.443,-539.0,-838.0,358.0,-87.0,-25.0,-62.0,135,87,77,104,95
2025-02-26 16:15:53.447,-521.0,-858.0,340.0,-83.0,-24.0,-55.0,133,87,76,103,96
2025-02-26 16:15:53.451,-527.0,-875.0,336.0,-77.0,-24.0,-47.0,133,89,75,103,95
2025-02-26 16:15:53.455,-517.0,-886.0,370.0,-65.0,-21.0,-44.0,133,90,76,102,95
2025-02-26 16:15:53.463,-520.0,-894.0,365.0,-56.0,-18.0,-36.0,132,92,77,104,96
2025-02-26 16:15:53.467,-519.0,-896.0,315.0,-52.0,-18.0,-30.0,133,91,76,106,96
2025-02-26 16:15:53.469,-506.0,-903.0,347.0,-45.0,-17.0,-25.0,133,91,76,103,95
2025-02-26 16:15:53.479,-487.0,-941.0,346.0,-36.0,-15.0,-23.0,133,92,77,104,95
2025-02-26 16:15:53.484,-474.0,-897.0,374.0,-30.0,-12.0,-20.0,133,92,76,103,95
2025-02-26 16:15:53.488,-461.0,-918.0,350.0,-22.0,-7.0,-17.0,133,92,77,103,95
2025-02-26 16:15:53.492,-468.0,-927.0,374.0,-19.0,-5.0,-15.0,132,93,76,102,95
2025-02-26 16:15:53.500,-463.0,-915.0,378.0,-15.0,0.0,-14.0,131,92,76,104,96
2025-02-26 16:15:53.504,-454.0,-913.0,366.0,-9.0,5.0,-13.0,133,92,76,101,95
2025-02-26 16:15:53.508,-461.0,-916.0,368.0,-5.0,11.0,-10.0,132,92,76,103,96
2025-02-26 16:15:53.512,-462.0,-935.0,375.0,2.0,15.0,-7.0,132,92,76,103,95
2025-02-26 16:15:53.516,-469.0,-923.0,366.0,10.0,21.0,-5.0,134,93,78,104,96
2025-02-26 16:15:53.523,-485.0,-915.0,355.0,12.0,24.0,0.0,131,92,77,104,96
2025-02-26 16:15:53.528,-491.0,-887.0,370.0,17.0,28.0,5.0,130,92,76,102,95
2025-02-26 16:15:53.532,-497.0,-883.0,362.0,22.0,31.0,7.0,131,92,77,104,97
2025-02-26 16:15:53.537,-515.0,-871.0,353.0,22.0,32.0,11.0,131,92,78,104,96
2025-02-26 16:15:53.542,-525.0,-869.0,350.0,25.0,33.0,14.0,130,91,77,104,95
2025-02-26 16:15:53.549,-543.0,-868.0,319.0,25.0,34.0,15.0,130,92,77,104,96
2025-02-26 16:15:53.553,-538.0,-832.0,313.0,24.0,32.0,16.0,130,91,76,104,95
2025-02-26 16:15:53.557,-533.0,-815.0,321.0,20.0,31.0,17.0,130,92,77,103,95
2025-02-26 16:15:53.561,-537.0,-811.0,320.0,20.0,29.0,17.0,129,91,76,104,95
2025-02-26 16:15:53.567,-545.0,-795.0,322.0,19.0,29.0,17.0,128,92,76,103,94
2025-02-26 16:15:53.574,-539.0,-798.0,315.0,18.0,28.0,18.0,127,92,76,104,94
2025-02-26 16:15:53.577,-555.0,-789.0,325.0,16.0,26.0,18.0,127,92,77,104,94
2025-02-26 16:15:53.579,-555.0,-798.0,336.0,17.0,26.0,17.0,127,91,77,103,94
2025-02-26 16:15:53.586,-559.0,-810.0,323.0,15.0,25.0,16.0,124,90,75,102,92
2025-02-26 16:15:53.594,-544.0,-821.0,307.0,15.0,25.0,15.0,122,89,77,104,92
2025-02-26 16:15:53.597,-552.0,-832.0,301.0,11.0,26.0,15.0,121,88,77,104,93
2025-02-26 16:15:53.603,-537.0,-804.0,331.0,13.0,29.0,12.0,117,86,76,103,92
2025-02-26 16:15:53.607,-537.0,-806.0,349.0,12.0,33.0,12.0,113,85,75,103,92
2025-02-26 16:15:53.608,-531.0,-787.0,352.0,10.0,35.0,11.0,110,84,76,104,93
2025-02-26 16:15:53.618,-526.0,-796.0,302.0,14.0,39.0,11.0,105,82,76,103,92
2025-02-26 16:15:53.620,-541.0,-785.0,374.0,10.0,44.0,10.0,101,81,75,104,91
2025-02-26 16:15:53.627,-566.0,-757.0,382.0,7.0,49.0,10.0,99,79,74,103,92
2025-02-26 16:15:53.631,-565.0,-764.0,371.0,8.0,47.0,11.0,97,76,74,104,91
2025-02-26 16:15:53.635,-552.0,-746.0,316.0,12.0,44.0,12.0,96,77,74,103,92
2025-02-26 16:15:53.639,-588.0,-748.0,283.0,9.0,39.0,14.0,95,77,74,104,92
2025-02-26 16:15:53.647,-626.0,-768.0,272.0,6.0,38.0,16.0,93,76,74,104,92
2025-02-26 16:15:53.651,-640.0,-773.0,277.0,1.0,37.0,16.0,91,74,73,103,92
2025-02-26 16:15:53.655,-634.0,-769.0,286.0,-1.0,32.0,16.0,91,74,73,104,92
2025-02-26 16:15:53.660,-659.0,-771.0,266.0,-2.0,25.0,17.0,90,74,73,103,92
2025-02-26 16:15:53.665,-666.0,-764.0,248.0,-2.0,23.0,17.0,88,73,73,104,91
2025-02-26 16:15:53.672,-664.0,-775.0,247.0,-3.0,19.0,19.0,89,73,73,104,90
2025-02-26 16:15:53.674,-665.0,-784.0,249.0,-2.0,15.0,19.0,87,75,74,105,92
2025-02-26 16:15:53.680,-658.0,-771.0,250.0,0.0,11.0,20.0,87,73,72,104,91
2025-02-26 16:15:53.684,-644.0,-757.0,250.0,2.0,3.0,20.0,86,73,73,104,91
2025-02-26 16:15:53.689,-630.0,-741.0,248.0,4.0,-3.0,19.0,85,73,74,103,91
2025-02-26 16:15:53.693,-618.0,-731.0,271.0,6.0,-6.0,18.0,84,71,73,103,91
2025-02-26 16:15:53.700,-599.0,-739.0,266.0,9.0,-8.0,16.0,86,72,75,104,92
2025-02-26 16:15:53.705,-594.0,-710.0,278.0,8.0,-11.0,13.0,84,71,73,105,91
2025-02-26 16:15:53.705,-589.0,-704.0,300.0,8.0,-11.0,12.0,83,71,74,104,91
2025-02-26 16:15:53.713,-589.0,-699.0,308.0,7.0,-10.0,10.0,84,71,73,104,91
2025-02-26 16:15:53.717,-584.0,-690.0,314.0,4.0,-11.0,9.0,83,71,73,102,92
2025-02-26 16:15:53.723,-564.0,-675.0,331.0,4.0,-9.0,8.0,84,76,73,104,90
2025-02-26 16:15:53.729,-598.0,-730.0,327.0,2.0,-4.0,7.0,84,70,73,103,92
2025-02-26 16:15:53.734,-587.0,-715.0,331.0,-1.0,-1.0,7.0,83,69,73,104,90
2025-02-26 16:15:53.737,-586.0,-713.0,335.0,2.0,0.0,7.0,84,70,76,104,91
2025-02-26 16:15:53.741,-595.0,-730.0,330.0,2.0,1.0,7.0,84,71,74,103,92
2025-02-26 16:15:53.746,-605.0,-738.0,310.0,2.0,1.0,6.0,82,70,72,104,91
2025-02-26 16:15:53.750,-605.0,-744.0,311.0,1.0,3.0,6.0,82,69,72,103,92
2025-02-26 16:15:53.760,-622.0,-747.0,312.0,1.0,2.0,6.0,81,70,73,103,92
2025-02-26 16:15:53.760,-629.0,-735.0,312.0,2.0,1.0,9.0,82,69,73,103,91
2025-02-26 16:15:53.765,-640.0,-760.0,289.0,3.0,-1.0,9.0,83,70,72,104,91
2025-02-26 16:15:53.770,-645.0,-715.0,286.0,3.0,-3.0,10.0,82,70,73,104,91
2025-02-26 16:15:53.774,-638.0,-734.0,303.0,3.0,-5.0,11.0,83,69,72,103,91
2025-02-26 16:15:53.779,-641.0,-731.0,291.0,4.0,-9.0,11.0,83,70,73,104,91
2025-02-26 16:15:53.786,-635.0,-713.0,294.0,4.0,-13.0,11.0,85,70,73,103,91
2025-02-26 16:15:53.790,-637.0,-696.0,305.0,3.0,-13.0,11.0,84,69,73,103,91
2025-02-26 16:15:53.794,-619.0,-704.0,312.0,3.0,-16.0,10.0,85,71,74,104,92
2025-02-26 16:15:53.797,-615.0,-692.0,310.0,2.0,-19.0,9.0,85,71,73,104,92
2025-02-26 16:15:53.803,-616.0,-679.0,319.0,2.0,-20.0,7.0,85,71,72,104,91
2025-02-26 16:15:53.807,-617.0,-687.0,327.0,2.0,-23.0,6.0,86,72,73,103,92
2025-02-26 16:15:53.815,-612.0,-680.0,333.0,2.0,-25.0,5.0,87,72,73,105,93
2025-02-26 16:15:53.819,-607.0,-669.0,335.0,2.0,-27.0,2.0,88,72,72,104,92
2025-02-26 16:15:53.822,-595.0,-670.0,339.0,2.0,-29.0,1.0,88,72,73,104,92
2025-02-26 16:15:53.828,-591.0,-670.0,351.0,1.0,-30.0,-2.0,90,72,73,104,92
2025-02-26 16:15:53.831,-591.0,-673.0,359.0,0.0,-30.0,-5.0,92,73,73,104,93
2025-02-26 16:15:53.840,-591.0,-681.0,373.0,-2.0,-30.0,-6.0,93,74,75,105,94
2025-02-26 16:15:53.844,-598.0,-688.0,376.0,-3.0,-27.0,-7.0,94,74,74,104,94
2025-02-26 16:15:53.845,-597.0,-710.0,374.0,-5.0,-25.0,-8.0,95,73,74,104,92
2025-02-26 16:15:53.852,-614.0,-710.0,371.0,-7.0,-21.0,-9.0,97,74,73,104,93
2025-02-26 16:15:53.856,-612.0,-723.0,372.0,-7.0,-18.0,-8.0,98,75,74,104,93
2025-02-26 16:15:53.864,-621.0,-739.0,357.0,-9.0,-16.0,-6.0,100,69,73,104,93
2025-02-26 16:15:53.868,-635.0,-750.0,400.0,-9.0,-11.0,-6.0,101,76,74,104,93
2025-02-26 16:15:53.872,-643.0,-772.0,329.0,-9.0,-10.0,-4.0,101,75,76,106,94
2025-02-26 16:15:53.876,-649.0,-792.0,339.0,-8.0,-8.0,-2.0,102,76,74,105,93
2025-02-26 16:15:53.885,-643.0,-798.0,341.0,-7.0,-5.0,-1.0,103,77,74,105,93
2025-02-26 16:15:53.887,-630.0,-787.0,340.0,-5.0,-6.0,1.0,103,76,74,103,93
2025-02-26 16:15:53.893,-636.0,-773.0,340.0,0.0,-7.0,4.0,104,77,75,104,93
2025-02-26 16:15:53.898,-628.0,-767.0,335.0,3.0,-9.0,5.0,104,78,75,105,94
2025-02-26 16:15:53.901,-621.0,-756.0,326.0,4.0,-12.0,7.0,105,78,75,105,94
2025-02-26 16:15:53.907,-616.0,-728.0,346.0,5.0,-14.0,10.0,105,78,75,104,93
2025-02-26 16:15:53.913,-637.0,-684.0,442.0,-8.0,-20.0,9.0,107,80,76,104,94
2025-02-26 16:15:53.917,-685.0,-603.0,499.0,-9.0,-24.0,6.0,107,79,76,105,95
2025-02-26 16:15:53.921,-715.0,-589.0,405.0,-1.0,-23.0,5.0,107,79,76,103,93
2025-02-26 16:15:53.925,-640.0,-630.0,365.0,9.0,-18.0,3.0,110,80,75,103,94
2025-02-26 16:15:53.934,-582.0,-769.0,337.0,7.0,-3.0,2.0,110,83,76,105,95
2025-02-26 16:15:53.938,-573.0,-739.0,257.0,3.0,-2.0,4.0,110,81,76,105,93
2025-02-26 16:15:53.942,-580.0,-711.0,465.0,-9.0,-7.0,5.0,112,82,77,105,95
2025-02-26 16:15:53.946,-650.0,-719.0,525.0,0.0,-9.0,6.0,112,83,77,103,93
2025-02-26 16:15:53.950,-654.0,-693.0,400.0,7.0,-9.0,7.0,112,83,76,103,93
2025-02-26 16:15:53.954,-641.0,-695.0,368.0,5.0,0.0,8.0,114,84,77,105,93
2025-02-26 16:15:53.962,-612.0,-710.0,352.0,4.0,6.0,8.0,116,85,77,104,94
2025-02-26 16:15:53.967,-620.0,-680.0,376.0,-3.0,5.0,7.0,116,84,76,104,93
2025-02-26 16:15:53.971,-645.0,-658.0,412.0,-3.0,2.0,6.0,117,86,77,105,94
2025-02-26 16:15:53.975,-646.0,-660.0,435.0,2.0,5.0,6.0,117,86,77,104,93
2025-02-26 16:15:53.979,-640.0,-679.0,385.0,6.0,7.0,6.0,116,85,77,104,92
2025-02-26 16:15:53.984,-622.0,-698.0,366.0,6.0,7.0,7.0,118,87,78,104,92
2025-02-26 16:15:53.988,-612.0,-708.0,354.0,5.0,4.0,7.0,117,84,76,104,93
2025-02-26 16:15:53.995,-597.0,-717.0,345.0,2.0,2.0,7.0,119,86,77,105,91
2025-02-26 16:15:53.998,-603.0,-744.0,353.0,-1.0,2.0,8.0,118,88,77,105,92
2025-02-26 16:15:54.003,-607.0,-752.0,357.0,-2.0,2.0,8.0,118,87,77,104,93
2025-02-26 16:15:54.008,-617.0,-742.0,360.0,0.0,2.0,9.0,119,85,76,102,92
2025-02-26 16:15:54.012,-648.0,-738.0,380.0,-3.0,2.0,9.0,117,89,79,105,94
2025-02-26 16:15:54.019,-650.0,-729.0,387.0,-2.0,1.0,8.0,120,88,76,104,93
2025-02-26 16:15:54.023,-635.0,-714.0,348.0,-2.0,0.0,8.0,119,86,77,104,92
2025-02-26 16:15:54.028,-639.0,-730.0,344.0,-5.0,-1.0,8.0,120,87,78,104,93
2025-02-26 16:15:54.033,-647.0,-727.0,355.0,-6.0,-2.0,6.0,119,86,78,104,93
2025-02-26 16:15:54.037,-622.0,-724.0,377.0,-3.0,-3.0,6.0,119,87,77,105,94
2025-02-26 16:15:54.045,-632.0,-733.0,371.0,0.0,-4.0,6.0,121,87,78,105,94
2025-02-26 16:15:54.049,-637.0,-796.0,424.0,4.0,-4.0,7.0,121,87,77,106,95
2025-02-26 16:15:54.053,-656.0,-711.0,380.0,4.0,-5.0,5.0,121,88,77,105,95
2025-02-26 16:15:54.057,-597.0,-720.0,398.0,6.0,-4.0,6.0,122,87,77,105,96
2025-02-26 16:15:54.061,-668.0,-683.0,388.0,5.0,-4.0,9.0,121,87,78,104,95
2025-02-26 16:15:54.069,-616.0,-708.0,452.0,8.0,0.0,11.0,121,88,77,104,99
2025-02-26 16:15:54.073,-639.0,-713.0,439.0,10.0,4.0,16.0,121,88,78,104,101
2025-02-26 16:15:54.077,-638.0,-691.0,407.0,10.0,5.0,18.0,122,87,77,104,103
2025-02-26 16:15:54.081,-609.0,-697.0,396.0,9.0,6.0,18.0,122,87,77,104,104
2025-02-26 16:15:54.085,-626.0,-700.0,396.0,7.0,9.0,20.0,121,86,77,105,106
2025-02-26 16:15:54.093,-647.0,-698.0,357.0,3.0,8.0,22.0,123,87,77,103,107
2025-02-26 16:15:54.098,-655.0,-716.0,318.0,-3.0,5.0,23.0,122,87,78,106,108
2025-02-26 16:15:54.102,-671.0,-695.0,335.0,-4.0,-1.0,25.0,122,85,77,105,110
2025-02-26 16:15:54.106,-680.0,-681.0,294.0,-10.0,-6.0,24.0,121,84,76,104,106
2025-02-26 16:15:54.114,-676.0,-626.0,282.0,-18.0,-19.0,22.0,123,85,77,104,112
2025-02-26 16:15:54.118,-693.0,-723.0,354.0,-18.0,-22.0,23.0,123,84,77,104,113
2025-02-26 16:15:54.118,-713.0,-695.0,316.0,-20.0,-25.0,20.0,121,83,77,103,112
2025-02-26 16:15:54.130,-692.0,-683.0,354.0,-25.0,-30.0,20.0,122,83,77,105,114
2025-02-26 16:15:54.134,-653.0,-647.0,333.0,-26.0,-33.0,17.0,123,84,78,102,115
2025-02-26 16:15:54.138,-654.0,-724.0,376.0,-28.0,-33.0,18.0,121,82,77,105,115
2025-02-26 16:15:54.143,-668.0,-710.0,360.0,-31.0,-33.0,19.0,122,82,77,104,116
2025-02-26 16:15:54.150,-645.0,-670.0,347.0,-36.0,-32.0,20.0,122,82,77,104,117
2025-02-26 16:15:54.155,-633.0,-701.0,388.0,-36.0,-29.0,20.0,122,80,77,106,118
2025-02-26 16:15:54.160,-609.0,-660.0,403.0,-34.0,-26.0,19.0,122,79,75,104,117
2025-02-26 16:15:54.161,-627.0,-715.0,429.0,-36.0,-23.0,21.0,123,78,76,105,118
2025-02-26 16:15:54.171,-607.0,-709.0,374.0,-39.0,-21.0,24.0,124,76,75,103,118
2025-02-26 16:15:54.176,-564.0,-677.0,360.0,-47.0,-20.0,22.0,123,75,75,104,120
2025-02-26 16:15:54.180,-646.0,-742.0,372.0,-51.0,-18.0,20.0,123,74,74,105,120
2025-02-26 16:15:54.185,-604.0,-702.0,352.0,-53.0,-15.0,17.0,123,72,72,104,120
2025-02-26 16:15:54.192,-641.0,-737.0,421.0,-57.0,-12.0,16.0,123,69,71,103,120
2025-02-26 16:15:54.196,-639.0,-726.0,382.0,-53.0,-6.0,16.0,124,69,70,103,121
2025-02-26 16:15:54.201,-622.0,-754.0,400.0,-47.0,-4.0,16.0,123,67,69,103,120
2025-02-26 16:15:54.208,-631.0,-760.0,380.0,-44.0,-2.0,13.0,123,64,67,102,120
2025-02-26 16:15:54.212,-651.0,-775.0,385.0,-29.0,4.0,13.0,123,62,66,103,120
2025-02-26 16:15:54.216,-648.0,-770.0,392.0,-22.0,9.0,12.0,124,62,65,103,122
2025-02-26 16:15:54.221,-634.0,-749.0,372.0,-8.0,11.0,10.0,123,59,63,100,120
2025-02-26 16:15:54.229,-620.0,-728.0,349.0,2.0,15.0,10.0,123,58,63,101,120
2025-02-26 16:15:54.233,-627.0,-727.0,347.0,1.0,18.0,10.0,124,57,61,101,120
2025-02-26 16:15:54.237,-619.0,-718.0,351.0,7.0,20.0,11.0,124,56,60,100,120
2025-02-26 16:15:54.241,-614.0,-705.0,342.0,10.0,20.0,13.0,123,55,60,102,121
2025-02-26 16:15:54.246,-624.0,-718.0,319.0,12.0,21.0,18.0,123,53,59,101,119
2025-02-26 16:15:54.254,-630.0,-725.0,358.0,21.0,23.0,21.0,123,50,59,98,118
2025-02-26 16:15:54.258,-627.0,-721.0,332.0,31.0,28.0,21.0,124,51,59,99,119
2025-02-26 16:15:54.262,-658.0,-738.0,350.0,30.0,29.0,21.0,124,51,55,98,118
2025-02-26 16:15:54.267,-662.0,-732.0,342.0,29.0,28.0,20.0,126,51,56,96,116
2025-02-26 16:15:54.269,-662.0,-719.0,330.0,27.0,28.0,19.0,124,51,56,97,115
2025-02-26 16:15:54.277,-647.0,-728.0,334.0,26.0,29.0,18.0,124,51,56,96,113
2025-02-26 16:15:54.281,-650.0,-758.0,378.0,27.0,31.0,18.0,124,49,53,93,111
2025-02-26 16:15:54.287,-682.0,-722.0,377.0,20.0,28.0,19.0,125,49,53,94,108
2025-02-26 16:15:54.287,-614.0,-727.0,354.0,33.0,27.0,22.0,124,47,53,92,104
2025-02-26 16:15:54.298,-666.0,-792.0,304.0,34.0,30.0,24.0,125,47,51,91,101
2025-02-26 16:15:54.298,-727.0,-768.0,329.0,27.0,33.0,24.0,123,46,52,90,98
2025-02-26 16:15:54.304,-663.0,-729.0,360.0,30.0,33.0,28.0,123,45,50,88,95
2025-02-26 16:15:54.311,-666.0,-750.0,402.0,36.0,34.0,34.0,124,45,51,86,91
2025-02-26 16:15:54.315,-681.0,-732.0,343.0,36.0,33.0,37.0,123,45,49,86,89
2025-02-26 16:15:54.323,-658.0,-719.0,337.0,34.0,35.0,41.0,124,45,50,84,87
2025-02-26 16:15:54.327,-597.0,-712.0,324.0,36.0,35.0,43.0,122,44,50,82,85
2025-02-26 16:15:54.331,-599.0,-741.0,335.0,41.0,35.0,44.0,122,45,49,81,83
2025-02-26 16:15:54.336,-612.0,-778.0,365.0,55.0,40.0,43.0,123,45,51,80,82
2025-02-26 16:15:54.340,-664.0,-748.0,285.0,57.0,43.0,39.0,121,44,48,79,80
2025-02-26 16:15:54.343,-694.0,-725.0,361.0,59.0,46.0,38.0,122,47,47,80,78
2025-02-26 16:15:54.347,-658.0,-661.0,318.0,56.0,48.0,41.0,123,44,48,78,77
2025-02-26 16:15:54.356,-615.0,-621.0,377.0,63.0,51.0,40.0,123,43,49,78,76
2025-02-26 16:15:54.359,-668.0,-730.0,338.0,66.0,51.0,39.0,123,43,48,77,73
2025-02-26 16:15:54.364,-826.0,-728.0,325.0,49.0,43.0,36.0,123,43,48,77,73
2025-02-26 16:15:54.368,-696.0,-601.0,256.0,51.0,43.0,38.0,123,43,47,76,71
2025-02-26 16:15:54.376,-752.0,-690.0,293.0,59.0,45.0,38.0,121,42,47,75,70
2025-02-26 16:15:54.377,-782.0,-726.0,300.0,55.0,37.0,38.0,123,43,48,76,69
2025-02-26 16:15:54.385,-774.0,-587.0,255.0,55.0,25.0,38.0,122,42,47,75,68
2025-02-26 16:15:54.389,-785.0,-587.0,319.0,46.0,24.0,42.0,121,42,46,74,65
2025-02-26 16:15:54.390,-774.0,-572.0,315.0,44.0,26.0,41.0,122,42,46,76,64
2025-02-26 16:15:54.400,-733.0,-634.0,352.0,38.0,23.0,42.0,121,43,46,74,64
2025-02-26 16:15:54.402,-689.0,-558.0,331.0,38.0,21.0,40.0,121,42,45,74,62
2025-02-26 16:15:54.410,-676.0,-584.0,371.0,35.0,26.0,40.0,122,42,47,73,61
2025-02-26 16:15:54.414,-665.0,-596.0,348.0,37.0,30.0,38.0,119,42,46,75,60
2025-02-26 16:15:54.414,-673.0,-607.0,367.0,35.0,32.0,37.0,117,42,45,75,60
2025-02-26 16:15:54.425,-714.0,-595.0,367.0,34.0,34.0,37.0,117,42,45,75,59
2025-02-26 16:15:54.430,-727.0,-558.0,345.0,34.0,37.0,37.0,117,42,46,74,58
2025-02-26 16:15:54.434,-724.0,-583.0,274.0,33.0,38.0,39.0,117,41,45,74,58
2025-02-26 16:15:54.438,-730.0,-565.0,335.0,33.0,34.0,39.0,117,42,45,74,58
2025-02-26 16:15:54.442,-772.0,-596.0,315.0,35.0,33.0,39.0,116,42,45,74,58
2025-02-26 16:15:54.450,-763.0,-564.0,296.0,31.0,32.0,38.0,114,41,45,72,57
2025-02-26 16:15:54.454,-801.0,-553.0,316.0,28.0,30.0,38.0,114,43,46,74,57
2025-02-26 16:15:54.459,-831.0,-542.0,292.0,24.0,25.0,38.0,114,43,46,73,57
2025-02-26 16:15:54.462,-825.0,-538.0,294.0,21.0,22.0,37.0,114,42,45,73,56
2025-02-26 16:15:54.467,-829.0,-523.0,332.0,18.0,20.0,37.0,113,42,45,74,56
2025-02-26 16:15:54.470,-807.0,-545.0,348.0,12.0,19.0,36.0,112,43,45,73,55
2025-02-26 16:15:54.475,-777.0,-533.0,364.0,8.0,19.0,36.0,107,43,46,77,55
2025-02-26 16:15:54.483,-749.0,-555.0,367.0,7.0,22.0,37.0,108,43,45,73,54
2025-02-26 16:15:54.486,-712.0,-495.0,374.0,8.0,26.0,38.0,108,44,44,72,54
2025-02-26 16:15:54.491,-657.0,-524.0,383.0,10.0,30.0,38.0,107,43,45,73,54
2025-02-26 16:15:54.495,-662.0,-518.0,363.0,10.0,37.0,37.0,106,45,44,73,55
2025-02-26 16:15:54.503,-711.0,-542.0,370.0,8.0,43.0,37.0,106,43,44,73,54
2025-02-26 16:15:54.507,-783.0,-537.0,305.0,8.0,43.0,37.0,104,43,44,72,53
2025-02-26 16:15:54.511,-814.0,-566.0,237.0,10.0,39.0,38.0,103,43,44,72,53
2025-02-26 16:15:54.516,-842.0,-542.0,240.0,13.0,31.0,36.0,104,44,47,73,53
2025-02-26 16:15:54.520,-888.0,-548.0,194.0,14.0,23.0,37.0,103,43,45,71,53
2025-02-26 16:15:54.524,-897.0,-538.0,187.0,15.0,20.0,37.0,102,43,45,73,53
2025-02-26 16:15:54.529,-929.0,-554.0,239.0,12.0,10.0,36.0,102,44,42,73,54
2025-02-26 16:15:54.536,-905.0,-520.0,265.0,13.0,4.0,36.0,100,42,45,74,53
2025-02-26 16:15:54.540,-879.0,-481.0,257.0,12.0,0.0,36.0,100,42,44,73,53
2025-02-26 16:15:54.541,-836.0,-516.0,290.0,12.0,-4.0,35.0,100,47,45,72,52
2025-02-26 16:15:54.549,-825.0,-442.0,271.0,9.0,-7.0,34.0,99,42,45,71,53
2025-02-26 16:15:54.553,-814.0,-487.0,279.0,9.0,-9.0,33.0,98,45,43,71,53
2025-02-26 16:15:54.559,-814.0,-465.0,290.0,7.0,-12.0,31.0,98,44,45,72,53
2025-02-26 16:15:54.564,-808.0,-467.0,288.0,8.0,-14.0,30.0,98,44,45,70,53
2025-02-26 16:15:54.569,-811.0,-465.0,292.0,4.0,-15.0,29.0,97,44,45,71,48
2025-02-26 16:15:54.573,-795.0,-448.0,299.0,4.0,-16.0,28.0,97,45,45,71,53
2025-02-26 16:15:54.578,-807.0,-484.0,318.0,6.0,-14.0,28.0,96,43,45,72,53
2025-02-26 16:15:54.585,-809.0,-478.0,315.0,6.0,-14.0,28.0,97,44,44,70,53
2025-02-26 16:15:54.589,-810.0,-478.0,313.0,8.0,-14.0,26.0,96,44,45,73,53
2025-02-26 16:15:54.593,-813.0,-460.0,311.0,10.0,-13.0,25.0,96,45,46,71,53
2025-02-26 16:15:54.597,-808.0,-443.0,331.0,9.0,-12.0,24.0,94,45,45,72,53
2025-02-26 16:15:54.601,-809.0,-444.0,345.0,7.0,-9.0,23.0,97,45,46,73,54
2025-02-26 16:15:54.605,-826.0,-437.0,349.0,6.0,-7.0,23.0,97,45,46,73,53
2025-02-26 16:15:54.614,-830.0,-435.0,342.0,6.0,-7.0,22.0,98,46,46,72,53
2025-02-26 16:15:54.616,-851.0,-438.0,339.0,6.0,-6.0,20.0,98,45,46,73,54
2025-02-26 16:15:54.622,-855.0,-438.0,331.0,7.0,-7.0,18.0,98,46,46,73,53
2025-02-26 16:15:54.626,-865.0,-413.0,324.0,7.0,-8.0,17.0,98,45,46,72,53
2025-02-26 16:15:54.630,-875.0,-421.0,324.0,8.0,-9.0,14.0,100,46,47,73,54
2025-02-26 16:15:54.638,-876.0,-416.0,322.0,7.0,-11.0,12.0,100,46,46,77,54
2025-02-26 16:15:54.643,-872.0,-403.0,319.0,7.0,-12.0,11.0,100,45,47,73,54
2025-02-26 16:15:54.646,-857.0,-406.0,327.0,7.0,-14.0,9.0,101,47,47,74,56
2025-02-26 16:15:54.652,-866.0,-410.0,332.0,7.0,-16.0,7.0,102,46,47,73,56
2025-02-26 16:15:54.656,-858.0,-407.0,342.0,9.0,-17.0,6.0,103,46,47,74,55
2025-02-26 16:15:54.663,-846.0,-407.0,344.0,10.0,-18.0,4.0,103,46,48,74,56
2025-02-26 16:15:54.667,-840.0,-406.0,348.0,12.0,-19.0,2.0,102,45,46,74,56
2025-02-26 16:15:54.671,-840.0,-410.0,354.0,15.0,-19.0,0.0,103,46,48,75,57
2025-02-26 16:15:54.676,-847.0,-401.0,342.0,20.0,-20.0,-3.0,104,46,49,75,54
2025-02-26 16:15:54.680,-847.0,-396.0,333.0,22.0,-21.0,-5.0,105,46,47,74,57
2025-02-26 16:15:54.688,-847.0,-388.0,367.0,27.0,-21.0,-6.0,106,47,47,76,56
2025-02-26 16:15:54.692,-843.0,-372.0,337.0,33.0,-25.0,-6.0,108,48,49,76,58
2025-02-26 16:15:54.696,-873.0,-364.0,308.0,33.0,-30.0,-8.0,108,46,48,75,58
2025-02-26 16:15:54.700,-881.0,-349.0,299.0,34.0,-31.0,-9.0,108,46,47,74,59
2025-02-26 16:15:54.708,-871.0,-370.0,312.0,39.0,-35.0,-10.0,109,46,48,76,60
2025-02-26 16:15:54.712,-877.0,-362.0,320.0,40.0,-40.0,-13.0,110,47,50,76,61
2025-02-26 16:15:54.716,-888.0,-343.0,339.0,36.0,-43.0,-14.0,111,47,49,76,60
2025-02-26 16:15:54.721,-902.0,-334.0,353.0,35.0,-47.0,-16.0,113,46,49,78,63
2025-02-26 16:15:54.725,-909.0,-354.0,438.0,33.0,-47.0,-18.0,113,47,51,78,63
2025-02-26 16:15:54.733,-893.0,-360.0,494.0,29.0,-47.0,-19.0,115,48,51,78,65
2025-02-26 16:15:54.737,-848.0,-356.0,524.0,29.0,-40.0,-18.0,115,48,51,78,64
2025-02-26 16:15:54.741,-760.0,-376.0,491.0,27.0,-33.0,-18.0,115,46,50,79,65
2025-02-26 16:15:54.745,-738.0,-382.0,519.0,30.0,-27.0,-18.0,116,47,51,78,66
2025-02-26 16:15:54.753,-716.0,-419.0,533.0,32.0,-17.0,-19.0,118,48,51,79,67
2025-02-26 16:15:54.757,-728.0,-411.0,538.0,32.0,-9.0,-20.0,116,47,52,78,67
2025-02-26 16:15:54.762,-755.0,-444.0,572.0,35.0,-4.0,-18.0,118,48,52,78,67
2025-02-26 16:15:54.766,-773.0,-415.0,540.0,35.0,4.0,-17.0,118,48,51,79,68
2025-02-26 16:15:54.767,-793.0,-418.0,516.0,33.0,12.0,-15.0,119,48,52,79,68
2025-02-26 16:15:54.777,-810.0,-423.0,501.0,30.0,14.0,-14.0,118,47,51,78,68
2025-02-26 16:15:54.782,-842.0,-419.0,494.0,28.0,15.0,-13.0,118,48,52,78,68
2025-02-26 16:15:54.785,-862.0,-426.0,467.0,27.0,14.0,-14.0,119,47,50,79,65
2025-02-26 16:15:54.791,-867.0,-411.0,422.0,26.0,12.0,-15.0,120,47,51,79,69
2025-02-26 16:15:54.798,-882.0,-398.0,412.0,24.0,9.0,-16.0,121,49,52,80,68
2025-02-26 16:15:54.803,-881.0,-400.0,395.0,25.0,5.0,-18.0,121,48,51,79,68
2025-02-26 16:15:54.804,-891.0,-386.0,391.0,25.0,1.0,-21.0,121,48,51,78,67
2025-02-26 16:15:54.810,-888.0,-381.0,400.0,23.0,-4.0,-23.0,121,48,52,79,69
2025-02-26 16:15:54.815,-882.0,-372.0,411.0,23.0,-9.0,-26.0,122,48,52,80,69
2025-02-26 16:15:54.821,-881.0,-381.0,413.0,23.0,-11.0,-30.0,123,47,52,80,69
2025-02-26 16:15:54.827,-875.0,-369.0,425.0,20.0,-16.0,-31.0,122,49,50,79,69
2025-02-26 16:15:54.831,-860.0,-353.0,423.0,18.0,-23.0,-33.0,122,51,52,81,71
2025-02-26 16:15:54.836,-872.0,-395.0,488.0,11.0,-22.0,-36.0,123,52,52,80,70
2025-02-26 16:15:54.840,-860.0,-396.0,470.0,7.0,-22.0,-37.0,125,53,53,81,70
2025-02-26 16:15:54.847,-838.0,-392.0,465.0,5.0,-23.0,-39.0,124,53,53,81,73
2025-02-26 16:15:54.851,-827.0,-387.0,490.0,1.0,-23.0,-42.0,124,54,55,80,73
2025-02-26 16:15:54.856,-788.0,-384.0,499.0,-1.0,-23.0,-43.0,127,55,54,81,75
2025-02-26 16:15:54.860,-773.0,-417.0,496.0,-4.0,-22.0,-45.0,125,55,56,83,75
2025-02-26 16:15:54.867,-768.0,-409.0,475.0,-5.0,-21.0,-47.0,126,58,57,82,76
2025-02-26 16:15:54.870,-778.0,-424.0,480.0,-6.0,-18.0,-47.0,126,56,57,84,76
2025-02-26 16:15:54.876,-766.0,-456.0,493.0,-9.0,-15.0,-48.0,126,58,58,83,78
2025-02-26 16:15:54.881,-759.0,-465.0,489.0,-8.0,-14.0,-48.0,127,57,58,83,79
2025-02-26 16:15:54.888,-764.0,-466.0,486.0,-9.0,-13.0,-48.0,127,58,59,85,78
2025-02-26 16:15:54.893,-760.0,-489.0,480.0,-9.0,-10.0,-48.0,127,58,61,85,80
2025-02-26 16:15:54.897,-771.0,-491.0,479.0,-9.0,-10.0,-48.0,129,59,61,87,80
2025-02-26 16:15:54.901,-783.0,-494.0,475.0,-10.0,-8.0,-48.0,126,60,62,86,81
2025-02-26 16:15:54.906,-776.0,-490.0,470.0,-10.0,-8.0,-48.0,127,60,64,88,83
2025-02-26 16:15:54.913,-773.0,-471.0,442.0,-11.0,-8.0,-49.0,127,61,65,88,83
2025-02-26 16:15:54.917,-774.0,-509.0,455.0,-14.0,-9.0,-48.0,127,63,64,89,84
2025-02-26 16:15:54.921,-777.0,-514.0,468.0,-13.0,-7.0,-48.0,127,63,66,89,84
2025-02-26 16:15:54.925,-775.0,-515.0,462.0,-13.0,-7.0,-47.0,125,65,66,89,84
2025-02-26 16:15:54.933,-774.0,-502.0,419.0,-15.0,-7.0,-47.0,125,65,67,90,85
2025-02-26 16:15:54.936,-760.0,-510.0,427.0,-16.0,-10.0,-47.0,127,68,71,94,86
2025-02-26 16:15:54.942,-760.0,-516.0,421.0,-17.0,-10.0,-46.0,127,69,69,92,86
2025-02-26 16:15:54.946,-759.0,-515.0,439.0,-17.0,-10.0,-46.0,127,70,71,93,89
2025-02-26 16:15:54.954,-740.0,-533.0,423.0,-19.0,-11.0,-46.0,128,71,70,93,88
2025-02-26 16:15:54.958,-729.0,-531.0,437.0,-21.0,-12.0,-47.0,128,71,71,93,88
2025-02-26 16:15:54.963,-724.0,-543.0,446.0,-23.0,-13.0,-48.0,126,72,71,93,87
2025-02-26 16:15:54.966,-711.0,-544.0,454.0,-25.0,-12.0,-48.0,126,73,72,90,89
2025-02-26 16:15:54.974,-706.0,-539.0,459.0,-26.0,-13.0,-47.0,128,73,72,94,90
2025-02-26 16:15:54.979,-710.0,-558.0,445.0,-27.0,-13.0,-47.0,127,75,73,95,89
2025-02-26 16:15:54.983,-701.0,-575.0,440.0,-27.0,-12.0,-46.0,127,74,73,95,91
2025-02-26 16:15:54.987,-702.0,-592.0,438.0,-28.0,-12.0,-45.0,126,74,72,98,89
2025-02-26 16:15:54.995,-702.0,-607.0,438.0,-27.0,-12.0,-44.0,127,74,73,95,90
2025-02-26 16:15:54.999,-698.0,-607.0,434.0,-29.0,-10.0,-43.0,128,73,73,96,90
2025-02-26 16:15:55.003,-701.0,-619.0,437.0,-29.0,-8.0,-43.0,127,74,74,96,90
2025-02-26 16:15:55.007,-699.0,-624.0,432.0,-28.0,-7.0,-42.0,126,74,71,95,90
2025-02-26 16:15:55.015,-705.0,-650.0,425.0,-28.0,-6.0,-41.0,127,76,73,96,90
2025-02-26 16:15:55.019,-700.0,-653.0,429.0,-27.0,-4.0,-40.0,125,76,73,93,91
2025-02-26 16:15:55.023,-699.0,-663.0,417.0,-26.0,-3.0,-38.0,127,74,73,96,90
2025-02-26 16:15:55.028,-692.0,-671.0,410.0,-24.0,-1.0,-37.0,128,75,74,95,90
2025-02-26 16:15:55.036,-689.0,-671.0,413.0,-23.0,-1.0,-34.0,127,75,74,96,91
2025-02-26 16:15:55.038,-685.0,-679.0,403.0,-22.0,-2.0,-30.0,124,76,74,97,91
2025-02-26 16:15:55.044,-681.0,-680.0,411.0,-20.0,-1.0,-29.0,126,76,75,97,91
2025-02-26 16:15:55.049,-675.0,-689.0,415.0,-19.0,-1.0,-26.0,128,78,73,93,91
2025-02-26 16:15:55.056,-662.0,-690.0,399.0,-18.0,-1.0,-23.0,128,77,74,96,91
2025-02-26 16:15:55.060,-658.0,-678.0,398.0,-16.0,0.0,-21.0,127,78,74,97,91
2025-02-26 16:15:55.065,-650.0,-679.0,382.0,-15.0,0.0,-20.0,131,78,74,97,92
2025-02-26 16:15:55.069,-655.0,-680.0,386.0,-14.0,0.0,-18.0,127,79,76,97,92
2025-02-26 16:15:55.074,-661.0,-684.0,396.0,-11.0,0.0,-17.0,127,79,74,98,92
2025-02-26 16:15:55.080,-667.0,-692.0,390.0,-9.0,-1.0,-15.0,128,79,75,97,91
2025-02-26 16:15:55.085,-680.0,-676.0,388.0,-7.0,-3.0,-14.0,128,81,75,98,92
2025-02-26 16:15:55.089,-688.0,-680.0,400.0,-6.0,-2.0,-12.0,128,80,75,96,92
2025-02-26 16:15:55.094,-690.0,-667.0,392.0,-3.0,-2.0,-12.0,127,80,74,97,93
2025-02-26 16:15:55.101,-700.0,-664.0,400.0,-1.0,-2.0,-11.0,129,81,76,97,92
2025-02-26 16:15:55.106,-701.0,-665.0,395.0,0.0,-2.0,-11.0,128,82,74,98,93
2025-02-26 16:15:55.118,-702.0,-659.0,388.0,1.0,-2.0,-11.0,128,83,74,96,93
2025-02-26 16:15:55.121,-700.0,-652.0,390.0,2.0,-1.0,-11.0,129,81,75,97,92
2025-02-26 16:15:55.123,-698.0,-644.0,379.0,3.0,-1.0,-11.0,127,83,75,97,93
2025-02-26 16:15:55.125,-684.0,-642.0,381.0,4.0,-1.0,-10.0,128,82,75,96,93
2025-02-26 16:15:55.129,-667.0,-638.0,378.0,6.0,0.0,-10.0,128,82,76,98,92
2025-02-26 16:15:55.134,-659.0,-642.0,375.0,5.0,0.0,-10.0,128,81,73,97,93
2025-02-26 16:15:55.138,-663.0,-640.0,390.0,5.0,0.0,-10.0,127,82,77,99,93
2025-02-26 16:15:55.143,-664.0,-638.0,396.0,5.0,0.0,-10.0,128,82,75,98,93
2025-02-26 16:15:55.147,-663.0,-644.0,397.0,6.0,0.0,-10.0,128,82,75,96,92
2025-02-26 16:15:55.153,-666.0,-642.0,399.0,7.0,1.0,-10.0,126,82,76,98,92
2025-02-26 16:15:55.159,-670.0,-647.0,399.0,7.0,1.0,-9.0,127,82,76,99,93
2025-02-26 16:15:55.163,-670.0,-647.0,401.0,8.0,1.0,-9.0,127,82,76,98,93
2025-02-26 16:15:55.166,-673.0,-639.0,399.0,8.0,1.0,-8.0,128,82,76,99,93
2025-02-26 16:15:55.171,-680.0,-643.0,398.0,7.0,1.0,-8.0,127,82,76,102,93
2025-02-26 16:15:55.175,-682.0,-640.0,408.0,7.0,1.0,-8.0,128,83,75,98,93
2025-02-26 16:15:55.179,-686.0,-639.0,414.0,7.0,1.0,-8.0,127,82,76,98,93
2025-02-26 16:15:55.187,-709.0,-639.0,409.0,6.0,0.0,-8.0,127,82,75,99,93
2025-02-26 16:15:55.192,-704.0,-640.0,425.0,5.0,1.0,-8.0,128,81,75,98,92
2025-02-26 16:15:55.196,-703.0,-637.0,417.0,5.0,-1.0,-7.0,129,83,76,98,94
2025-02-26 16:15:55.196,-702.0,-634.0,411.0,5.0,-1.0,-7.0,128,83,76,98,94
2025-02-26 16:15:55.204,-697.0,-624.0,416.0,4.0,-1.0,-7.0,127,81,76,97,92
2025-02-26 16:15:55.208,-686.0,-617.0,402.0,2.0,-3.0,-7.0,128,83,75,97,94
2025-02-26 16:15:55.215,-699.0,-626.0,399.0,1.0,-5.0,-8.0,128,82,77,99,94
2025-02-26 16:15:55.220,-691.0,-619.0,400.0,0.0,-5.0,-8.0,128,81,76,98,94
2025-02-26 16:15:55.225,-669.0,-610.0,403.0,0.0,-5.0,-8.0,128,82,75,99,94
2025-02-26 16:15:55.228,-656.0,-605.0,386.0,1.0,-5.0,-9.0,128,82,75,98,93
2025-02-26 16:15:55.233,-653.0,-611.0,398.0,0.0,-4.0,-9.0,127,82,76,99,93
2025-02-26 16:15:55.237,-660.0,-605.0,395.0,0.0,-4.0,-9.0,127,82,76,99,94
2025-02-26 16:15:55.245,-678.0,-612.0,406.0,0.0,-4.0,-10.0,128,80,75,98,92
2025-02-26 16:15:55.249,-675.0,-618.0,413.0,0.0,-5.0,-10.0,128,82,75,98,93
2025-02-26 16:15:55.252,-670.0,-623.0,406.0,2.0,-4.0,-10.0,128,83,76,95,94
2025-02-26 16:15:55.257,-667.0,-620.0,410.0,2.0,-3.0,-9.0,128,82,74,98,93
2025-02-26 16:15:55.261,-674.0,-618.0,417.0,3.0,-3.0,-9.0,128,82,72,98,94
2025-02-26 16:15:55.269,-684.0,-631.0,424.0,3.0,-2.0,-9.0,128,82,76,98,93
2025-02-26 16:15:55.273,-689.0,-640.0,420.0,4.0,-2.0,-8.0,128,82,76,98,93
2025-02-26 16:15:55.277,-688.0,-633.0,424.0,4.0,-2.0,-8.0,128,82,75,99,94
2025-02-26 16:15:55.281,-692.0,-639.0,427.0,4.0,-2.0,-6.0,128,83,76,99,92
2025-02-26 16:15:55.286,-693.0,-636.0,429.0,5.0,-3.0,-6.0,128,81,75,99,93
2025-02-26 16:15:55.290,-689.0,-642.0,419.0,5.0,-3.0,-5.0,128,82,75,99,93
2025-02-26 16:15:55.297,-691.0,-642.0,412.0,5.0,-4.0,-5.0,128,82,75,100,93
2025-02-26 16:15:55.302,-693.0,-642.0,413.0,6.0,-4.0,-4.0,127,82,76,98,93
2025-02-26 16:15:55.306,-685.0,-637.0,417.0,6.0,-4.0,-4.0,128,86,75,98,95
2025-02-26 16:15:55.310,-684.0,-631.0,417.0,6.0,-6.0,-5.0,128,82,76,98,93
2025-02-26 16:15:55.315,-684.0,-627.0,424.0,7.0,-6.0,-5.0,127,81,76,98,94
2025-02-26 16:15:55.319,-689.0,-624.0,422.0,5.0,-7.0,-5.0,127,83,76,99,94
2025-02-26 16:15:55.325,-687.0,-620.0,423.0,5.0,-7.0,-6.0,128,82,75,97,93
2025-02-26 16:15:55.331,-680.0,-619.0,425.0,3.0,-8.0,-6.0,128,82,76,99,92
2025-02-26 16:15:55.334,-689.0,-611.0,425.0,2.0,-8.0,-6.0,128,82,77,99,94
2025-02-26 16:15:55.339,-682.0,-619.0,425.0,2.0,-10.0,-7.0,128,82,76,99,94
2025-02-26 16:15:55.343,-671.0,-613.0,436.0,2.0,-10.0,-7.0,128,81,75,98,93
2025-02-26 16:15:55.351,-653.0,-607.0,440.0,3.0,-9.0,-8.0,128,82,76,99,93
2025-02-26 16:15:55.355,-633.0,-611.0,452.0,3.0,-8.0,-9.0,128,80,75,100,94
2025-02-26 16:15:55.360,-634.0,-610.0,452.0,3.0,-6.0,-9.0,127,82,75,99,93
2025-02-26 16:15:55.364,-639.0,-617.0,454.0,3.0,-5.0,-10.0,128,82,74,98,94
2025-02-26 16:15:55.368,-646.0,-626.0,462.0,3.0,-3.0,-9.0,128,82,76,98,94
2025-02-26 16:15:55.372,-649.0,-631.0,454.0,3.0,-2.0,-9.0,128,83,76,99,93
2025-02-26 16:15:55.379,-658.0,-638.0,454.0,3.0,-1.0,-8.0,127,82,77,99,94
2025-02-26 16:15:55.384,-667.0,-642.0,453.0,3.0,0.0,-8.0,128,82,76,98,93
2025-02-26 16:15:55.388,-672.0,-644.0,451.0,4.0,0.0,-7.0,128,82,75,99,92
2025-02-26 16:15:55.393,-682.0,-654.0,447.0,5.0,0.0,-7.0,128,82,76,100,94
2025-02-26 16:15:55.396,-687.0,-647.0,449.0,5.0,0.0,-7.0,127,82,76,98,93
2025-02-26 16:15:55.400,-692.0,-656.0,450.0,6.0,-1.0,-6.0,128,82,75,98,92
2025-02-26 16:15:55.409,-685.0,-649.0,444.0,7.0,-3.0,-5.0,128,82,76,99,93
2025-02-26 16:15:55.412,-689.0,-646.0,439.0,7.0,-4.0,-3.0,128,82,75,99,92
2025-02-26 16:15:55.416,-688.0,-644.0,442.0,7.0,-5.0,-3.0,129,82,76,100,93
2025-02-26 16:15:55.421,-680.0,-639.0,443.0,6.0,-6.0,-2.0,128,83,76,99,93
2025-02-26 16:15:55.425,-672.0,-641.0,450.0,6.0,-6.0,-2.0,127,81,75,100,94
2025-02-26 16:15:55.430,-665.0,-633.0,463.0,5.0,-6.0,-3.0,129,82,77,99,94
2025-02-26 16:15:55.437,-655.0,-637.0,458.0,5.0,-6.0,-3.0,129,82,76,99,94
2025-02-26 16:15:55.441,-658.0,-645.0,464.0,5.0,-6.0,-4.0,128,82,75,99,94
2025-02-26 16:15:55.446,-657.0,-644.0,461.0,6.0,-6.0,-5.0,128,81,75,100,94
2025-02-26 16:15:55.449,-657.0,-634.0,460.0,5.0,-5.0,-5.0,129,82,76,100,95
2025-02-26 16:15:55.454,-656.0,-638.0,465.0,6.0,-4.0,-5.0,128,82,76,98,94
2025-02-26 16:15:55.461,-655.0,-631.0,470.0,6.0,-3.0,-5.0,128,81,76,99,93
2025-02-26 16:15:55.466,-670.0,-638.0,465.0,5.0,-3.0,-5.0,129,82,76,98,93
2025-02-26 16:15:55.470,-671.0,-630.0,467.0,5.0,-3.0,-6.0,128,82,78,100,94
2025-02-26 16:15:55.474,-672.0,-631.0,470.0,5.0,-4.0,-6.0,129,83,76,100,94
2025-02-26 16:15:55.479,-666.0,-638.0,470.0,4.0,-4.0,-5.0,128,80,75,99,93
2025-02-26 16:15:55.486,-661.0,-629.0,472.0,5.0,-3.0,-5.0,127,82,76,99,93
2025-02-26 16:15:55.490,-650.0,-632.0,475.0,5.0,-3.0,-5.0,129,83,76,99,95
2025-02-26 16:15:55.495,-649.0,-634.0,481.0,4.0,-2.0,-5.0,129,83,77,99,93
2025-02-26 16:15:55.499,-653.0,-636.0,488.0,3.0,-1.0,-5.0,128,82,74,99,94
2025-02-26 16:15:55.503,-657.0,-637.0,485.0,3.0,0.0,-5.0,128,82,76,100,94
2025-02-26 16:15:55.510,-661.0,-639.0,479.0,2.0,0.0,-5.0,128,83,76,99,94
2025-02-26 16:15:55.513,-668.0,-636.0,476.0,1.0,1.0,-4.0,129,81,73,98,94
2025-02-26 16:15:55.519,-675.0,-639.0,473.0,1.0,0.0,-5.0,128,81,77,101,94
2025-02-26 16:15:55.523,-672.0,-637.0,464.0,0.0,0.0,-5.0,127,82,72,98,95
2025-02-26 16:15:55.528,-671.0,-636.0,457.0,0.0,0.0,-4.0,128,80,75,100,94
2025-02-26 16:15:55.531,-664.0,-633.0,465.0,0.0,0.0,-5.0,129,84,74,98,94
2025-02-26 16:15:55.539,-662.0,-630.0,469.0,0.0,0.0,-5.0,130,82,76,101,93
2025-02-26 16:15:55.543,-669.0,-634.0,464.0,0.0,0.0,-5.0,129,83,78,100,92
2025-02-26 16:15:55.548,-661.0,-632.0,463.0,0.0,0.0,-4.0,130,81,77,101,94
2025-02-26 16:15:55.552,-664.0,-634.0,462.0,0.0,0.0,-4.0,127,82,76,97,94
2025-02-26 16:15:55.556,-656.0,-631.0,462.0,-1.0,0.0,-4.0,128,82,78,99,94
2025-02-26 16:15:55.563,-661.0,-636.0,468.0,0.0,0.0,-4.0,128,82,75,99,95
2025-02-26 16:15:55.568,-661.0,-640.0,467.0,0.0,0.0,-4.0,128,82,76,97,94
2025-02-26 16:15:55.573,-657.0,-637.0,468.0,0.0,0.0,-4.0,129,83,77,99,94
2025-02-26 16:15:55.577,-656.0,-633.0,471.0,1.0,0.0,-4.0,128,81,75,99,95
2025-02-26 16:15:55.581,-657.0,-634.0,477.0,1.0,1.0,-4.0,127,82,75,98,92
2025-02-26 16:15:55.585,-649.0,-630.0,474.0,2.0,1.0,-4.0,128,83,76,99,94
2025-02-26 16:15:55.592,-652.0,-624.0,472.0,2.0,1.0,-4.0,128,83,75,99,93
2025-02-26 16:15:55.597,-659.0,-629.0,471.0,2.0,1.0,-4.0,128,82,76,98,94
2025-02-26 16:15:55.601,-662.0,-623.0,469.0,2.0,1.0,-4.0,128,83,76,99,94
2025-02-26 16:15:55.605,-660.0,-628.0,466.0,2.0,1.0,-5.0,128,82,75,98,93
2025-02-26 16:15:55.609,-667.0,-621.0,465.0,3.0,1.0,-5.0,129,83,76,99,95
2025-02-26 16:15:55.617,-660.0,-616.0,459.0,2.0,1.0,-5.0,128,83,76,99,94
2025-02-26 16:15:55.621,-666.0,-621.0,468.0,2.0,1.0,-4.0,128,82,75,98,94
2025-02-26 16:15:55.626,-670.0,-622.0,458.0,2.0,1.0,-4.0,128,83,76,99,93
2025-02-26 16:15:55.630,-670.0,-626.0,465.0,2.0,1.0,-4.0,129,83,75,100,95
2025-02-26 16:15:55.634,-673.0,-623.0,455.0,1.0,1.0,-5.0,128,82,76,99,96
2025-02-26 16:15:55.642,-674.0,-623.0,457.0,0.0,1.0,-5.0,129,82,76,100,94
2025-02-26 16:15:55.646,-672.0,-623.0,457.0,-1.0,0.0,-5.0,128,83,76,99,94
2025-02-26 16:15:55.651,-670.0,-623.0,454.0,0.0,0.0,-5.0,128,83,76,100,94
2025-02-26 16:15:55.654,-662.0,-625.0,455.0,-1.0,0.0,-4.0,129,83,76,99,95
2025-02-26 16:15:55.656,-650.0,-625.0,464.0,-1.0,1.0,-5.0,128,83,76,102,95
2025-02-26 16:15:55.667,-649.0,-626.0,469.0,0.0,2.0,-5.0,129,82,76,99,94
2025-02-26 16:15:55.671,-643.0,-627.0,472.0,0.0,3.0,-5.0,129,83,76,100,95
2025-02-26 16:15:55.675,-638.0,-626.0,474.0,0.0,4.0,-6.0,129,81,76,99,94
2025-02-26 16:15:55.679,-646.0,-624.0,473.0,-1.0,5.0,-6.0,127,82,76,98,93
2025-02-26 16:15:55.683,-653.0,-623.0,471.0,-2.0,5.0,-6.0,128,83,75,99,94
2025-02-26 16:15:55.691,-661.0,-626.0,470.0,-2.0,6.0,-6.0,129,84,76,100,94
2025-02-26 16:15:55.694,-658.0,-626.0,460.0,-2.0,6.0,-6.0,128,82,75,99,94
2025-02-26 16:15:55.699,-665.0,-631.0,455.0,-3.0,5.0,-6.0,129,83,76,99,94
2025-02-26 16:15:55.704,-672.0,-634.0,459.0,-4.0,5.0,-7.0,128,82,75,100,94
2025-02-26 16:15:55.707,-670.0,-630.0,450.0,-4.0,4.0,-7.0,128,83,75,99,93
2025-02-26 16:15:55.716,-670.0,-635.0,447.0,-5.0,3.0,-7.0,128,83,75,100,95
2025-02-26 16:15:55.720,-669.0,-639.0,443.0,-5.0,2.0,-7.0,128,83,75,99,94
2025-02-26 16:15:55.724,-668.0,-633.0,439.0,-5.0,1.0,-7.0,130,84,76,98,94
2025-02-26 16:15:55.728,-664.0,-629.0,442.0,-5.0,0.0,-7.0,128,83,76,101,95
2025-02-26 16:15:55.733,-666.0,-631.0,444.0,-5.0,-1.0,-7.0,130,83,76,100,94
2025-02-26 16:15:55.740,-664.0,-628.0,442.0,-6.0,-2.0,-7.0,128,84,76,101,94
2025-02-26 16:15:55.744,-660.0,-634.0,444.0,-6.0,-2.0,-7.0,129,82,76,101,95
2025-02-26 16:15:55.749,-659.0,-634.0,443.0,-6.0,-2.0,-7.0,129,83,75,100,94
2025-02-26 16:15:55.752,-652.0,-633.0,443.0,-6.0,-3.0,-7.0,129,83,77,100,93
2025-02-26 16:15:55.757,-646.0,-635.0,454.0,-8.0,-2.0,-7.0,129,83,77,99,95
2025-02-26 16:15:55.765,-646.0,-644.0,454.0,-7.0,-2.0,-7.0,124,83,76,99,93
2025-02-26 16:15:55.769,-650.0,-645.0,453.0,-8.0,-1.0,-7.0,129,83,76,100,94
2025-02-26 16:15:55.773,-643.0,-642.0,457.0,-7.0,0.0,-7.0,129,83,75,99,95
2025-02-26 16:15:55.777,-639.0,-658.0,452.0,-7.0,1.0,-7.0,128,83,75,100,95
2025-02-26 16:15:55.781,-644.0,-660.0,457.0,-7.0,2.0,-7.0,130,83,76,100,94
2025-02-26 16:15:55.790,-643.0,-662.0,463.0,-6.0,3.0,-6.0,128,83,76,99,94
2025-02-26 16:15:55.793,-646.0,-664.0,459.0,-6.0,3.0,-6.0,129,82,75,99,94
2025-02-26 16:15:55.798,-646.0,-665.0,458.0,-5.0,4.0,-5.0,129,82,75,99,95
2025-02-26 16:15:55.802,-647.0,-661.0,454.0,-5.0,5.0,-5.0,129,82,76,100,93
2025-02-26 16:15:55.803,-645.0,-658.0,448.0,-4.0,4.0,-5.0,128,84,76,101,94
2025-02-26 16:15:55.814,-647.0,-660.0,448.0,-5.0,4.0,-5.0,129,83,77,101,94
2025-02-26 16:15:55.818,-644.0,-655.0,441.0,-5.0,4.0,-5.0,128,83,76,100,95
2025-02-26 16:15:55.822,-644.0,-654.0,444.0,-5.0,4.0,-5.0,127,83,75,99,93
2025-02-26 16:15:55.827,-645.0,-655.0,442.0,-5.0,3.0,-5.0,129,84,76,99,94
2025-02-26 16:15:55.828,-644.0,-652.0,436.0,-5.0,3.0,-5.0,129,83,76,99,94
2025-02-26 16:15:55.835,-650.0,-659.0,434.0,-6.0,2.0,-5.0,128,83,76,99,94
2025-02-26 16:15:55.843,-652.0,-655.0,432.0,-6.0,1.0,-4.0,129,83,76,100,94
2025-02-26 16:15:55.845,-648.0,-658.0,432.0,-6.0,1.0,-4.0,128,85,76,100,94
2025-02-26 16:15:55.851,-647.0,-661.0,441.0,-5.0,2.0,-5.0,129,83,76,99,94
2025-02-26 16:15:55.856,-655.0,-661.0,435.0,-5.0,0.0,-5.0,129,83,77,99,95
2025-02-26 16:15:55.859,-656.0,-661.0,445.0,-6.0,0.0,-5.0,128,83,76,99,94
2025-02-26 16:15:55.867,-657.0,-667.0,443.0,-5.0,-1.0,-5.0,128,84,77,98,96
2025-02-26 16:15:55.871,-653.0,-665.0,449.0,-5.0,0.0,-4.0,129,82,74,100,96
2025-02-26 16:15:55.874,-648.0,-662.0,445.0,-4.0,-1.0,-5.0,128,84,78,99,94
2025-02-26 16:15:55.880,-647.0,-668.0,450.0,-6.0,0.0,-5.0,127,84,75,97,93
2025-02-26 16:15:55.884,-637.0,-658.0,458.0,-7.0,0.0,-5.0,128,83,73,99,96
2025-02-26 16:15:55.892,-640.0,-653.0,445.0,-8.0,1.0,-5.0,128,83,75,98,94
2025-02-26 16:15:55.896,-642.0,-658.0,450.0,-9.0,1.0,-5.0,128,84,74,98,94
2025-02-26 16:15:55.898,-627.0,-654.0,449.0,-8.0,2.0,-5.0,128,84,74,98,94
2025-02-26 16:15:55.905,-630.0,-664.0,447.0,-8.0,2.0,-5.0,127,81,75,99,94
2025-02-26 16:15:55.908,-639.0,-661.0,445.0,-8.0,3.0,-5.0,129,83,76,101,94
2025-02-26 16:15:55.917,-637.0,-664.0,442.0,-8.0,4.0,-5.0,128,83,75,99,94
2025-02-26 16:15:55.920,-640.0,-676.0,447.0,-7.0,5.0,-4.0,128,82,75,99,95
2025-02-26 16:15:55.925,-642.0,-668.0,438.0,-7.0,5.0,-4.0,128,84,76,101,94
2025-02-26 16:15:55.929,-644.0,-670.0,436.0,-6.0,5.0,-3.0,129,84,76,100,95
2025-02-26 16:15:55.933,-650.0,-676.0,440.0,-6.0,5.0,-3.0,128,83,75,99,94
2025-02-26 16:15:55.941,-655.0,-676.0,436.0,-4.0,6.0,-2.0,128,83,76,101,94
2025-02-26 16:15:55.945,-657.0,-672.0,437.0,-4.0,6.0,-2.0,129,82,75,99,93
2025-02-26 16:15:55.949,-666.0,-660.0,439.0,-4.0,5.0,-2.0,128,83,76,100,95
2025-02-26 16:15:55.954,-659.0,-663.0,436.0,-3.0,5.0,-2.0,128,84,76,100,94
2025-02-26 16:15:55.958,-661.0,-661.0,435.0,-3.0,5.0,-2.0,129,83,75,101,95
2025-02-26 16:15:55.965,-658.0,-650.0,439.0,-2.0,4.0,-2.0,128,83,75,100,94
2025-02-26 16:15:55.970,-654.0,-647.0,432.0,-2.0,3.0,-2.0,128,83,75,100,95
2025-02-26 16:15:55.974,-657.0,-653.0,430.0,-3.0,3.0,-2.0,129,82,76,99,95
2025-02-26 16:15:55.978,-654.0,-651.0,431.0,-3.0,3.0,-3.0,128,83,76,100,94
2025-02-26 16:15:55.983,-652.0,-646.0,438.0,-3.0,2.0,-3.0,128,83,76,99,95
2025-02-26 16:15:55.990,-650.0,-648.0,434.0,-4.0,2.0,-3.0,128,83,76,100,94
2025-02-26 16:15:55.994,-646.0,-649.0,431.0,-3.0,2.0,-3.0,131,83,75,100,94
2025-02-26 16:15:55.999,-647.0,-651.0,432.0,-4.0,3.0,-3.0,129,83,76,100,94
2025-02-26 16:15:56.003,-647.0,-655.0,431.0,-3.0,3.0,-3.0,129,82,77,100,96
2025-02-26 16:15:56.007,-652.0,-659.0,426.0,-4.0,3.0,-3.0,128,83,75,100,94
2025-02-26 16:15:56.015,-649.0,-650.0,430.0,-4.0,3.0,-3.0,129,83,76,100,95
2025-02-26 16:15:56.019,-654.0,-656.0,425.0,-4.0,3.0,-3.0,129,83,77,99,94
2025-02-26 16:15:56.022,-650.0,-653.0,429.0,-4.0,4.0,-3.0,128,83,74,99,94
2025-02-26 16:15:56.027,-646.0,-654.0,428.0,-5.0,4.0,-3.0,128,84,76,100,94
2025-02-26 16:15:56.032,-644.0,-659.0,432.0,-5.0,5.0,-3.0,130,83,75,100,94
2025-02-26 16:15:56.039,-649.0,-660.0,430.0,-5.0,5.0,-3.0,129,84,76,99,95
2025-02-26 16:15:56.044,-647.0,-663.0,428.0,-5.0,5.0,-4.0,125,83,77,100,94
2025-02-26 16:15:56.048,-647.0,-662.0,428.0,-5.0,5.0,-3.0,128,83,76,100,94
2025-02-26 16:15:56.052,-653.0,-660.0,426.0,-5.0,5.0,-3.0,128,83,76,99,94
2025-02-26 16:15:56.056,-653.0,-664.0,421.0,-5.0,5.0,-3.0,130,84,76,100,95
2025-02-26 16:15:56.063,-656.0,-667.0,416.0,-5.0,5.0,-4.0,129,84,75,99,94
2025-02-26 16:15:56.068,-652.0,-659.0,411.0,-6.0,5.0,-4.0,128,83,75,96,94
2025-02-26 16:15:56.072,-651.0,-658.0,413.0,-5.0,5.0,-4.0,132,87,81,100,95
2025-02-26 16:15:56.077,-650.0,-661.0,413.0,-5.0,5.0,-4.0,128,83,76,100,95
2025-02-26 16:15:56.081,-648.0,-656.0,417.0,-5.0,4.0,-4.0,128,83,74,99,94
2025-02-26 16:15:56.088,-645.0,-665.0,415.0,-4.0,4.0,-4.0,130,85,77,100,94
2025-02-26 16:15:56.092,-648.0,-666.0,412.0,-4.0,4.0,-4.0,129,84,76,100,95
2025-02-26 16:15:56.096,-651.0,-666.0,403.0,-4.0,3.0,-4.0,129,82,74,101,93
2025-02-26 16:15:56.100,-642.0,-666.0,403.0,-3.0,3.0,-4.0,128,83,76,100,95
2025-02-26 16:15:56.105,-652.0,-673.0,408.0,-2.0,3.0,-3.0,128,82,75,100,91
2025-02-26 16:15:56.112,-649.0,-673.0,405.0,-2.0,3.0,-3.0,130,84,77,100,95
2025-02-26 16:15:56.117,-647.0,-663.0,407.0,-2.0,3.0,-3.0,131,84,76,100,97
2025-02-26 16:15:56.121,-643.0,-671.0,409.0,-2.0,3.0,-3.0,129,82,76,100,94
2025-02-26 16:15:56.125,-649.0,-674.0,413.0,-3.0,2.0,-3.0,129,83,76,100,94
2025-02-26 16:15:56.130,-641.0,-663.0,405.0,-3.0,2.0,-3.0,129,84,77,98,94
2025-02-26 16:15:56.134,-647.0,-672.0,424.0,-3.0,3.0,-3.0,129,85,77,101,94
2025-02-26 16:15:56.142,-640.0,-669.0,405.0,-4.0,3.0,-3.0,130,83,76,100,95
2025-02-26 16:15:56.146,-646.0,-669.0,418.0,-3.0,3.0,-3.0,128,83,76,99,94
2025-02-26 16:15:56.150,-640.0,-684.0,425.0,-3.0,3.0,-3.0,129,83,76,101,94
2025-02-26 16:15:56.154,-641.0,-675.0,396.0,-5.0,2.0,-3.0,129,83,76,99,95
2025-02-26 16:15:56.158,-638.0,-677.0,411.0,-4.0,3.0,-2.0,129,84,76,99,94
2025-02-26 16:15:56.166,-645.0,-688.0,416.0,-5.0,2.0,-3.0,128,84,76,99,93
2025-02-26 16:15:56.170,-649.0,-668.0,403.0,-3.0,3.0,-3.0,129,84,77,101,95
2025-02-26 16:15:56.172,-649.0,-667.0,400.0,-3.0,3.0,-2.0,128,83,76,98,94
2025-02-26 16:15:56.179,-650.0,-681.0,414.0,-3.0,3.0,-1.0,128,83,76,100,94
2025-02-26 16:15:56.183,-649.0,-669.0,404.0,-3.0,2.0,-1.0,130,84,75,99,93
2025-02-26 16:15:56.191,-646.0,-680.0,403.0,-3.0,2.0,-1.0,130,85,77,101,95
2025-02-26 16:15:56.195,-647.0,-677.0,405.0,-4.0,3.0,-1.0,128,83,76,100,94
2025-02-26 16:15:56.199,-646.0,-668.0,400.0,-2.0,2.0,-1.0,129,83,76,100,95
2025-02-26 16:15:56.204,-655.0,-683.0,418.0,-1.0,2.0,0.0,129,83,75,100,94
2025-02-26 16:15:56.208,-655.0,-668.0,405.0,0.0,2.0,-1.0,129,83,76,100,95
2025-02-26 16:15:56.216,-649.0,-668.0,402.0,0.0,2.0,-1.0,129,82,75,101,96
2025-02-26 16:15:56.220,-657.0,-668.0,411.0,-1.0,1.0,-1.0,129,82,78,102,97
2025-02-26 16:15:56.224,-655.0,-661.0,407.0,-1.0,1.0,-1.0,129,84,78,100,92
2025-02-26 16:15:56.228,-650.0,-657.0,413.0,-1.0,1.0,-1.0,130,82,76,101,95
2025-02-26 16:15:56.232,-642.0,-657.0,405.0,-2.0,2.0,-1.0,128,84,75,98,95
2025-02-26 16:15:56.240,-641.0,-655.0,411.0,-2.0,2.0,-2.0,129,84,74,99,95
2025-02-26 16:15:56.244,-649.0,-660.0,409.0,-3.0,2.0,-2.0,128,83,77,98,94
2025-02-26 16:15:56.248,-645.0,-663.0,409.0,-3.0,2.0,-2.0,128,83,74,98,95
2025-02-26 16:15:56.252,-646.0,-663.0,408.0,-3.0,2.0,-2.0,130,84,76,100,95
2025-02-26 16:15:56.257,-654.0,-670.0,410.0,-3.0,2.0,-1.0,129,84,76,99,95
2025-02-26 16:15:56.264,-657.0,-671.0,411.0,-3.0,3.0,-1.0,128,83,76,99,95
2025-02-26 16:15:56.269,-653.0,-672.0,406.0,-2.0,3.0,-1.0,129,84,76,99,95
2025-02-26 16:15:56.273,-657.0,-667.0,413.0,-2.0,2.0,-1.0,129,85,76,101,94
2025-02-26 16:15:56.277,-661.0,-667.0,406.0,-3.0,2.0,-1.0,128,82,76,99,94
2025-02-26 16:15:56.281,-661.0,-667.0,406.0,-3.0,1.0,-1.0,129,87,76,100,92
2025-02-26 16:15:56.289,-662.0,-664.0,409.0,-4.0,1.0,-1.0,128,82,76,100,95
2025-02-26 16:15:56.293,-664.0,-666.0,407.0,-5.0,0.0,-1.0,128,84,76,99,93
2025-02-26 16:15:56.298,-660.0,-666.0,408.0,-4.0,0.0,-1.0,129,84,77,101,94
2025-02-26 16:15:56.302,-660.0,-667.0,410.0,-4.0,0.0,-1.0,129,83,75,100,94
2025-02-26 16:15:56.306,-657.0,-668.0,411.0,-4.0,0.0,-1.0,129,83,76,100,95
2025-02-26 16:15:56.311,-651.0,-668.0,414.0,-4.0,0.0,-1.0,130,84,76,100,95
2025-02-26 16:15:56.318,-654.0,-666.0,412.0,-3.0,0.0,-1.0,128,84,76,100,94
2025-02-26 16:15:56.322,-651.0,-665.0,410.0,-3.0,1.0,-1.0,128,83,76,99,93
2025-02-26 16:15:56.326,-654.0,-663.0,413.0,-3.0,1.0,-1.0,129,83,77,99,94
2025-02-26 16:15:56.331,-650.0,-657.0,410.0,-3.0,1.0,-2.0,129,85,77,100,95
2025-02-26 16:15:56.334,-653.0,-658.0,409.0,-2.0,1.0,-1.0,128,84,76,100,94
2025-02-26 16:15:56.343,-656.0,-662.0,412.0,-2.0,1.0,-2.0,129,83,76,100,94
2025-02-26 16:15:56.347,-653.0,-658.0,406.0,-2.0,1.0,-2.0,129,84,76,101,93
2025-02-26 16:15:56.351,-657.0,-659.0,409.0,-2.0,1.0,-2.0,129,84,77,98,94
2025-02-26 16:15:56.355,-659.0,-661.0,409.0,-3.0,1.0,-2.0,129,84,76,100,94
2025-02-26 16:15:56.359,-659.0,-657.0,404.0,-3.0,2.0,-2.0,129,84,75,99,94
2025-02-26 16:15:56.366,-654.0,-657.0,404.0,-3.0,2.0,-2.0,129,83,77,100,94
2025-02-26 16:15:56.371,-659.0,-661.0,402.0,-3.0,1.0,-3.0,130,84,77,100,95
2025-02-26 16:15:56.375,-655.0,-662.0,406.0,-3.0,1.0,-3.0,129,83,75,100,95
2025-02-26 16:15:56.379,-654.0,-661.0,407.0,-3.0,2.0,-3.0,129,84,76,100,94
2025-02-26 16:15:56.383,-662.0,-666.0,410.0,-4.0,1.0,-3.0,130,83,77,100,95
2025-02-26 16:15:56.391,-661.0,-666.0,403.0,-4.0,1.0,-3.0,129,84,76,100,94
2025-02-26 16:15:56.395,-658.0,-672.0,410.0,-4.0,1.0,-3.0,128,83,76,100,95
2025-02-26 16:15:56.400,-650.0,-663.0,405.0,-4.0,2.0,-3.0,129,82,76,100,94
2025-02-26 16:15:56.404,-654.0,-668.0,412.0,-3.0,2.0,-3.0,129,84,76,100,94
2025-02-26 16:15:56.408,-652.0,-669.0,404.0,-3.0,1.0,-3.0,129,84,77,99,95
2025-02-26 16:15:56.415,-646.0,-676.0,413.0,-3.0,2.0,-3.0,129,84,76,100,94
2025-02-26 16:15:56.420,-650.0,-668.0,411.0,-4.0,2.0,-3.0,128,83,76,100,94
2025-02-26 16:15:56.424,-651.0,-672.0,412.0,-3.0,2.0,-3.0,129,83,76,100,96
2025-02-26 16:15:56.429,-648.0,-656.0,413.0,-3.0,3.0,-3.0,130,84,77,99,95
2025-02-26 16:15:56.433,-657.0,-667.0,407.0,-2.0,3.0,-3.0,129,84,75,101,95
2025-02-26 16:15:56.440,-652.0,-675.0,401.0,-4.0,4.0,-3.0,129,84,76,99,94
2025-02-26 16:15:56.445,-657.0,-671.0,398.0,-4.0,3.0,-3.0,129,84,76,99,94
2025-02-26 16:15:56.448,-650.0,-666.0,404.0,-4.0,3.0,-4.0,129,84,77,100,95
2025-02-26 16:15:56.453,-652.0,-671.0,397.0,-4.0,2.0,-3.0,130,83,76,100,95
2025-02-26 16:15:56.458,-656.0,-679.0,397.0,-4.0,2.0,-3.0,130,83,77,101,94
2025-02-26 16:15:56.465,-651.0,-670.0,392.0,-4.0,2.0,-4.0,129,83,76,96,94
2025-02-26 16:15:56.469,-652.0,-678.0,394.0,-4.0,2.0,-3.0,131,84,76,99,95
2025-02-26 16:15:56.473,-653.0,-682.0,391.0,-3.0,2.0,-3.0,131,84,76,100,95
2025-02-26 16:15:56.484,-654.0,-679.0,393.0,-3.0,2.0,-3.0,129,84,76,99,94
2025-02-26 16:15:56.486,-650.0,-679.0,391.0,-3.0,2.0,-3.0,130,84,76,100,94
2025-02-26 16:15:56.489,-649.0,-671.0,391.0,-3.0,2.0,-3.0,129,84,76,100,95
2025-02-26 16:15:56.494,-650.0,-678.0,387.0,-2.0,1.0,-3.0,129,83,76,101,95
2025-02-26 16:15:56.498,-652.0,-676.0,384.0,-3.0,1.0,-3.0,128,84,76,101,95
2025-02-26 16:15:56.503,-647.0,-674.0,392.0,-2.0,1.0,-3.0,129,84,76,101,95
2025-02-26 16:15:56.507,-652.0,-680.0,386.0,-2.0,1.0,-3.0,128,83,76,99,94
2025-02-26 16:15:56.514,-649.0,-676.0,391.0,-2.0,1.0,-3.0,127,84,76,100,95
2025-02-26 16:15:56.518,-653.0,-681.0,384.0,-2.0,1.0,-3.0,129,83,76,100,94
2025-02-26 16:15:56.523,-648.0,-680.0,384.0,-2.0,1.0,-3.0,129,84,76,100,92
2025-02-26 16:15:56.527,-648.0,-685.0,384.0,-2.0,1.0,-2.0,129,84,76,100,94
2025-02-26 16:15:56.531,-649.0,-683.0,385.0,-3.0,1.0,-3.0,129,84,76,101,95
2025-02-26 16:15:56.538,-651.0,-684.0,382.0,-3.0,0.0,-2.0,129,84,76,99,94
2025-02-26 16:15:56.543,-645.0,-682.0,382.0,-3.0,0.0,-2.0,129,86,76,100,93
2025-02-26 16:15:56.548,-647.0,-686.0,382.0,-3.0,0.0,-2.0,126,83,76,99,94
2025-02-26 16:15:56.552,-647.0,-688.0,379.0,-3.0,0.0,-2.0,129,83,76,100,95
2025-02-26 16:15:56.555,-646.0,-689.0,380.0,-4.0,-1.0,-2.0,130,84,76,99,94
2025-02-26 16:15:56.561,-648.0,-690.0,382.0,-4.0,-1.0,-2.0,129,81,75,102,96
2025-02-26 16:15:56.567,-646.0,-689.0,378.0,-4.0,-1.0,-2.0,127,81,74,101,95
2025-02-26 16:15:56.572,-649.0,-694.0,381.0,-3.0,-1.0,-1.0,129,85,75,98,95
