Sample_ID,ax,ay,az,gx,gy,gz,flex1,flex2,flex3,flex4,flex5,Label
0,7776.0 1783.0 117.0 415.0 -27.0 1987.0 -519.0 -269.0 -136.0 -450.0 -513.0 -417.0 -459.0 -411.0 -1440.0,-9728.0 -3716.0 -1314.0 -1854.0 -598.0 1987.0 -17.0 -563.0 -386.0 -117.0 -71.0 101.0 303.0 942.0 3719.0,3839.0 710.0 825.0 987.0 692.0 1987.0 189.0 405.0 529.0 320.0 232.0 314.0 142.0 -753.0 -2827.0,-19.0 392.0 -65.0 -25.0 94.0 248.0 -176.0 -111.0 -31.0 -42.0 -21.0 -43.0 -19.0 201.0 259.0,132.0 247.0 113.0 155.0 179.0 248.0 131.0 101.0 134.0 150.0 121.0 119.0 126.0 88.0 -83.0,74.0 172.0 247.0 245.0 248.0 248.0 118.0 121.0 152.0 156.0 126.0 119.0 138.0 110.0 -194.0,88 107 84 129 133 135 139 141 139 140 141 123 143 130 115,29 22 28 29 33 35 38 36 39 39 38 40 39 39 36,89 93 92 88 90 89 89 87 89 88 88 88 88 86 86,42 71 76 66 81 82 81 81 84 85 84 85 84 83 83,47 41 51 34 49 48 51 51 53 53 52 53 53 53 50,0→3
1,1783.0 117.0 415.0 -27.0 1987.0 -519.0 -269.0 -136.0 -450.0 -513.0 -417.0 -459.0 -411.0 -1440.0 -1879.0,-3716.0 -1314.0 -1854.0 -598.0 1987.0 -17.0 -563.0 -386.0 -117.0 -71.0 101.0 303.0 942.0 3719.0 4143.0,710.0 825.0 987.0 692.0 1987.0 189.0 405.0 529.0 320.0 232.0 314.0 142.0 -753.0 -2827.0 -3926.0,392.0 -65.0 -25.0 94.0 248.0 -176.0 -111.0 -31.0 -42.0 -21.0 -43.0 -19.0 201.0 259.0 89.0,247.0 113.0 155.0 179.0 248.0 131.0 101.0 134.0 150.0 121.0 119.0 126.0 88.0 -83.0 -559.0,172.0 247.0 245.0 248.0 248.0 118.0 121.0 152.0 156.0 126.0 119.0 138.0 110.0 -194.0 -752.0,107 84 129 133 135 139 141 139 140 141 123 143 130 115 138,22 28 29 33 35 38 36 39 39 38 40 39 39 36 30,93 92 88 90 89 89 87 89 88 88 88 88 86 86 83,71 76 66 81 82 81 81 84 85 84 85 84 83 83 83,41 51 34 49 48 51 51 53 53 52 53 53 53 50 48,0→3
2,9552.0 5554.0 2436.0 254.0 562.0 0.0 -256.0 -417.0 -608.0 -476.0 -529.0 -243.0 -504.0 -687.0 -543.0,-2499.0 -9483.0 -4696.0 -1017.0 -1637.0 -828.0 -617.0 -127.0 -370.0 47.0 -90.0 -28.0 -22.0 186.0 1131.0,538.0 1521.0 -1524.0 -1615.0 238.0 573.0 -860.0 203.0 -409.0 67.0 254.0 737.0 311.0 -126.0 -895.0,-708.0 -459.0 205.0 247.0 37.0 112.0 158.0 140.0 264.0 216.0 92.0 144.0 111.0 92.0 57.0,-1147.0 62.0 447.0 100.0 147.0 218.0 172.0 223.0 149.0 139.0 56.0 114.0 132.0 78.0 2.0,-723.0 -116.0 252.0 302.0 366.0 369.0 342.0 303.0 255.0 221.0 175.0 133.0 143.0 147.0 92.0,148 146 140 139 135 115 135 134 135 135 135 131 129 133 129,37 42 22 1 39 40 12 32 49 53 54 65 62 63 65,86 90 95 93 91 91 94 94 109 119 126 128 129 128 131,75 68 64 71 75 78 80 69 74 37 82 102 101 106 101,51 46 53 54 50 48 50 55 48 87 85 82 81 82 85,3→1
3,5554.0 2436.0 254.0 562.0 0.0 -256.0 -417.0 -608.0 -476.0 -529.0 -243.0 -504.0 -687.0 -543.0 -946.0,-9483.0 -4696.0 -1017.0 -1637.0 -828.0 -617.0 -127.0 -370.0 47.0 -90.0 -28.0 -22.0 186.0 1131.0 2192.0,1521.0 -1524.0 -1615.0 238.0 573.0 -860.0 203.0 -409.0 67.0 254.0 737.0 311.0 -126.0 -895.0 -2365.0,-459.0 205.0 247.0 37.0 112.0 158.0 140.0 264.0 216.0 92.0 144.0 111.0 92.0 57.0 -71.0,62.0 447.0 100.0 147.0 218.0 172.0 223.0 149.0 139.0 56.0 114.0 132.0 78.0 2.0 -189.0,-116.0 252.0 302.0 366.0 369.0 342.0 303.0 255.0 221.0 175.0 133.0 143.0 147.0 92.0 -151.0,146 140 139 135 115 135 134 135 135 135 131 129 133 129 130,42 22 1 39 40 12 32 49 53 54 65 62 63 65 70,90 95 93 91 91 94 94 109 119 126 128 129 128 131 131,68 64 71 75 78 80 69 74 37 82 102 101 106 101 101,46 53 54 50 48 50 55 48 87 85 82 81 82 85 90,3→1
4,2436.0 254.0 562.0 0.0 -256.0 -417.0 -608.0 -476.0 -529.0 -243.0 -504.0 -687.0 -543.0 -946.0 -929.0,-4696.0 -1017.0 -1637.0 -828.0 -617.0 -127.0 -370.0 47.0 -90.0 -28.0 -22.0 186.0 1131.0 2192.0 2858.0,-1524.0 -1615.0 238.0 573.0 -860.0 203.0 -409.0 67.0 254.0 737.0 311.0 -126.0 -895.0 -2365.0 -2980.0,205.0 247.0 37.0 112.0 158.0 140.0 264.0 216.0 92.0 144.0 111.0 92.0 57.0 -71.0 -205.0,447.0 100.0 147.0 218.0 172.0 223.0 149.0 139.0 56.0 114.0 132.0 78.0 2.0 -189.0 -517.0,252.0 302.0 366.0 369.0 342.0 303.0 255.0 221.0 175.0 133.0 143.0 147.0 92.0 -151.0 -522.0,140 139 135 115 135 134 135 135 135 131 129 133 129 130 132,22 1 39 40 12 32 49 53 54 65 62 63 65 70 72,95 93 91 91 94 94 109 119 126 128 129 128 131 131 135,64 71 75 78 80 69 74 37 82 102 101 106 101 101 99,53 54 50 48 50 55 48 87 85 82 81 82 85 90 92,3→1
5,6901.0 3938.0 2425.0 443.0 -675.0 -246.0 398.0 -120.0 -110.0 -97.0 -186.0 -59.0 -371.0 -584.0 -729.0,-2968.0 -6867.0 -5941.0 -1197.0 -487.0 -469.0 -68.0 -456.0 -520.0 -609.0 -768.0 -547.0 -438.0 -100.0 309.0,964.0 -968.0 1455.0 611.0 1229.0 1244.0 1944.0 641.0 665.0 358.0 199.0 458.0 -7.0 139.0 -331.0,-764.0 -396.0 284.0 641.0 228.0 -167.0 -261.0 -7.0 13.0 14.0 -21.0 72.0 62.0 110.0 139.0,-1200.0 -277.0 125.0 344.0 331.0 148.0 196.0 213.0 287.0 231.0 209.0 226.0 212.0 173.0 80.0,-686.0 -107.0 202.0 249.0 156.0 159.0 149.0 151.0 136.0 184.0 225.0 236.0 237.0 242.0 223.0,147 149 147 119 109 136 148 148 143 143 140 137 139 136 134,101 97 51 52 68 87 84 66 53 61 56 48 23 30 23,143 144 137 134 137 135 132 127 121 117 109 106 96 87 81,102 103 102 102 101 102 102 94 101 88 69 60 62 31 29,98 99 103 106 102 95 96 88 76 70 67 64 61 57 52,1→3
6,3938.0 2425.0 443.0 -675.0 -246.0 398.0 -120.0 -110.0 -97.0 -186.0 -59.0 -371.0 -584.0 -729.0 -950.0,-6867.0 -5941.0 -1197.0 -487.0 -469.0 -68.0 -456.0 -520.0 -609.0 -768.0 -547.0 -438.0 -100.0 309.0 2804.0,-968.0 1455.0 611.0 1229.0 1244.0 1944.0 641.0 665.0 358.0 199.0 458.0 -7.0 139.0 -331.0 -1612.0,-396.0 284.0 641.0 228.0 -167.0 -261.0 -7.0 13.0 14.0 -21.0 72.0 62.0 110.0 139.0 114.0,-277.0 125.0 344.0 331.0 148.0 196.0 213.0 287.0 231.0 209.0 226.0 212.0 173.0 80.0 -13.0,-107.0 202.0 249.0 156.0 159.0 149.0 151.0 136.0 184.0 225.0 236.0 237.0 242.0 223.0 -15.0,149 147 119 109 136 148 148 143 143 140 137 139 136 134 140,97 51 52 68 87 84 66 53 61 56 48 23 30 23 31,144 137 134 137 135 132 127 121 117 109 106 96 87 81 79,103 102 102 101 102 102 94 101 88 69 60 62 31 29 26,99 103 106 102 95 96 88 76 70 67 64 61 57 52 50,1→3
7,2425.0 443.0 -675.0 -246.0 398.0 -120.0 -110.0 -97.0 -186.0 -59.0 -371.0 -584.0 -729.0 -950.0 -863.0,-5941.0 -1197.0 -487.0 -469.0 -68.0 -456.0 -520.0 -609.0 -768.0 -547.0 -438.0 -100.0 309.0 2804.0 4797.0,1455.0 611.0 1229.0 1244.0 1944.0 641.0 665.0 358.0 199.0 458.0 -7.0 139.0 -331.0 -1612.0 -3046.0,284.0 641.0 228.0 -167.0 -261.0 -7.0 13.0 14.0 -21.0 72.0 62.0 110.0 139.0 114.0 18.0,125.0 344.0 331.0 148.0 196.0 213.0 287.0 231.0 209.0 226.0 212.0 173.0 80.0 -13.0 -318.0,202.0 249.0 156.0 159.0 149.0 151.0 136.0 184.0 225.0 236.0 237.0 242.0 223.0 -15.0 -594.0,147 119 109 136 148 148 143 143 140 137 139 136 134 140 126,51 52 68 87 84 66 53 61 56 48 23 30 23 31 25,137 134 137 135 132 127 121 117 109 106 96 87 81 79 77,102 102 101 102 102 94 101 88 69 60 62 31 29 26 56,103 106 102 95 96 88 76 70 67 64 61 57 52 50 43,1→3
8,8881.0 4137.0 1959.0 45.0 -250.0 -240.0 -27.0 55.0 195.0 198.0 -25.0 -115.0 -398.0 2110.0 -605.0,-4352.0 -9970.0 -2251.0 -1180.0 -1289.0 -977.0 -860.0 -798.0 -919.0 -974.0 -605.0 -399.0 -329.0 -324.0 439.0,2678.0 -1369.0 -320.0 -445.0 266.0 467.0 255.0 210.0 320.0 393.0 459.0 126.0 65.0 55.0 -60.0,-959.0 229.0 141.0 173.0 42.0 21.0 53.0 -2.0 102.0 92.0 183.0 217.0 199.0 246.0 222.0,-568.0 226.0 241.0 44.0 52.0 67.0 91.0 53.0 128.0 100.0 125.0 199.0 213.0 199.0 154.0,-712.0 3.0 300.0 176.0 209.0 252.0 229.0 192.0 223.0 261.0 246.0 239.0 254.0 265.0 257.0,145 142 133 143 137 136 143 140 138 138 129 124 124 113 105,1 39 19 0 26 40 36 37 47 39 32 35 47 53 63,83 87 88 88 80 87 93 95 103 106 118 126 131 131 127,68 45 65 68 67 67 68 65 57 63 61 62 57 47 52,50 53 53 57 57 57 58 57 53 60 61 57 58 61 63,3→2
9,4137.0 1959.0 45.0 -250.0 -240.0 -27.0 55.0 195.0 198.0 -25.0 -115.0 -398.0 2110.0 -605.0 -847.0,-9970.0 -2251.0 -1180.0 -1289.0 -977.0 -860.0 -798.0 -919.0 -974.0 -605.0 -399.0 -329.0 -324.0 439.0 1381.0,-1369.0 -320.0 -445.0 266.0 467.0 255.0 210.0 320.0 393.0 459.0 126.0 65.0 55.0 -60.0 -1105.0,229.0 141.0 173.0 42.0 21.0 53.0 -2.0 102.0 92.0 183.0 217.0 199.0 246.0 222.0 150.0,226.0 241.0 44.0 52.0 67.0 91.0 53.0 128.0 100.0 125.0 199.0 213.0 199.0 154.0 57.0,3.0 300.0 176.0 209.0 252.0 229.0 192.0 223.0 261.0 246.0 239.0 254.0 265.0 257.0 158.0,142 133 143 137 136 143 140 138 138 129 124 124 113 105 108,39 19 0 26 40 36 37 47 39 32 35 47 53 63 67,87 88 88 80 87 93 95 103 106 118 126 131 131 127 134,45 65 68 67 67 68 65 57 63 61 62 57 47 52 51,53 53 57 57 57 58 57 53 60 61 57 58 61 63 64,3→2
10,1959.0 45.0 -250.0 -240.0 -27.0 55.0 195.0 198.0 -25.0 -115.0 -398.0 2110.0 -605.0 -847.0 -1406.0,-2251.0 -1180.0 -1289.0 -977.0 -860.0 -798.0 -919.0 -974.0 -605.0 -399.0 -329.0 -324.0 439.0 1381.0 3316.0,-320.0 -445.0 266.0 467.0 255.0 210.0 320.0 393.0 459.0 126.0 65.0 55.0 -60.0 -1105.0 -2964.0,141.0 173.0 42.0 21.0 53.0 -2.0 102.0 92.0 183.0 217.0 199.0 246.0 222.0 150.0 38.0,241.0 44.0 52.0 67.0 91.0 53.0 128.0 100.0 125.0 199.0 213.0 199.0 154.0 57.0 -236.0,300.0 176.0 209.0 252.0 229.0 192.0 223.0 261.0 246.0 239.0 254.0 265.0 257.0 158.0 -250.0,133 143 137 136 143 140 138 138 129 124 124 113 105 108 97,19 0 26 40 36 37 47 39 32 35 47 53 63 67 85,88 88 80 87 93 95 103 106 118 126 131 131 127 134 139,65 68 67 67 68 65 57 63 61 62 57 47 52 51 65,53 57 57 57 58 57 53 60 61 57 58 61 63 64 58,3→2
11,45.0 -250.0 -240.0 -27.0 55.0 195.0 198.0 -25.0 -115.0 -398.0 2110.0 -605.0 -847.0 -1406.0 -1049.0,-1180.0 -1289.0 -977.0 -860.0 -798.0 -919.0 -974.0 -605.0 -399.0 -329.0 -324.0 439.0 1381.0 3316.0 3422.0,-445.0 266.0 467.0 255.0 210.0 320.0 393.0 459.0 126.0 65.0 55.0 -60.0 -1105.0 -2964.0 -3535.0,173.0 42.0 21.0 53.0 -2.0 102.0 92.0 183.0 217.0 199.0 246.0 222.0 150.0 38.0 -161.0,44.0 52.0 67.0 91.0 53.0 128.0 100.0 125.0 199.0 213.0 199.0 154.0 57.0 -236.0 -745.0,176.0 209.0 252.0 229.0 192.0 223.0 261.0 246.0 239.0 254.0 265.0 257.0 158.0 -250.0 -711.0,143 137 136 143 140 138 138 129 124 124 113 105 108 97 91,0 26 40 36 37 47 39 32 35 47 53 63 67 85 89,88 80 87 93 95 103 106 118 126 131 131 127 134 139 143,68 67 67 68 65 57 63 61 62 57 47 52 51 65 0,57 57 57 58 57 53 60 61 57 58 61 63 64 58 54,3→2
12,6647.0 4736.0 403.0 -487.0 -503.0 -344.0 -209.0 340.0 332.0 -406.0 -269.0 -194.0 -378.0 -694.0 -723.0,-5799.0 -6253.0 -1293.0 -1267.0 -858.0 -219.0 -284.0 -991.0 -1093.0 -546.0 -88.0 -465.0 -488.0 -96.0 223.0,3578.0 1465.0 1720.0 143.0 916.0 838.0 566.0 818.0 683.0 -241.0 277.0 206.0 195.0 16.0 -125.0,-151.0 70.0 148.0 -46.0 -50.0 -53.0 -118.0 -98.0 -32.0 -47.0 -96.0 -78.0 68.0 115.0 112.0,-727.0 130.0 208.0 101.0 155.0 130.0 93.0 139.0 217.0 171.0 169.0 157.0 180.0 122.0 27.0,-612.0 181.0 192.0 193.0 213.0 154.0 107.0 117.0 195.0 246.0 228.0 197.0 181.0 187.0 158.0,104 107 103 92 103 126 131 131 121 119 127 129 120 128 125,109 66 61 45 69 93 56 62 90 87 78 57 58 42 39,146 143 142 144 146 144 141 141 139 139 132 124 117 105 93,84 77 89 46 87 72 90 89 95 90 77 60 82 79 78,60 38 46 51 53 60 61 65 67 69 68 68 71 70 67,2→3
13,4736.0 403.0 -487.0 -503.0 -344.0 -209.0 340.0 332.0 -406.0 -269.0 -194.0 -378.0 -694.0 -723.0 -692.0,-6253.0 -1293.0 -1267.0 -858.0 -219.0 -284.0 -991.0 -1093.0 -546.0 -88.0 -465.0 -488.0 -96.0 223.0 1616.0,1465.0 1720.0 143.0 916.0 838.0 566.0 818.0 683.0 -241.0 277.0 206.0 195.0 16.0 -125.0 -887.0,70.0 148.0 -46.0 -50.0 -53.0 -118.0 -98.0 -32.0 -47.0 -96.0 -78.0 68.0 115.0 112.0 161.0,130.0 208.0 101.0 155.0 130.0 93.0 139.0 217.0 171.0 169.0 157.0 180.0 122.0 27.0 47.0,181.0 192.0 193.0 213.0 154.0 107.0 117.0 195.0 246.0 228.0 197.0 181.0 187.0 158.0 56.0,107 103 92 103 126 131 131 121 119 127 129 120 128 125 133,66 61 45 69 93 56 62 90 87 78 57 58 42 39 33,143 142 144 146 144 141 141 139 139 132 124 117 105 93 81,77 89 46 87 72 90 89 95 90 77 60 82 79 78 88,38 46 51 53 60 61 65 67 69 68 68 71 70 67 56,2→3
14,403.0 -487.0 -503.0 -344.0 -209.0 340.0 332.0 -406.0 -269.0 -194.0 -378.0 -694.0 -723.0 -692.0 -1014.0,-1293.0 -1267.0 -858.0 -219.0 -284.0 -991.0 -1093.0 -546.0 -88.0 -465.0 -488.0 -96.0 223.0 1616.0 4317.0,1720.0 143.0 916.0 838.0 566.0 818.0 683.0 -241.0 277.0 206.0 195.0 16.0 -125.0 -887.0 -2676.0,148.0 -46.0 -50.0 -53.0 -118.0 -98.0 -32.0 -47.0 -96.0 -78.0 68.0 115.0 112.0 161.0 135.0,208.0 101.0 155.0 130.0 93.0 139.0 217.0 171.0 169.0 157.0 180.0 122.0 27.0 47.0 -169.0,192.0 193.0 213.0 154.0 107.0 117.0 195.0 246.0 228.0 197.0 181.0 187.0 158.0 56.0 -381.0,103 92 103 126 131 131 121 119 127 129 120 128 125 133 123,61 45 69 93 56 62 90 87 78 57 58 42 39 33 31,142 144 146 144 141 141 139 139 132 124 117 105 93 81 78,89 46 87 72 90 89 95 90 77 60 82 79 78 88 58,46 51 53 60 61 65 67 69 68 68 71 70 67 56 47,2→3
15,-487.0 -503.0 -344.0 -209.0 340.0 332.0 -406.0 -269.0 -194.0 -378.0 -694.0 -723.0 -692.0 -1014.0 -56.0,-1267.0 -858.0 -219.0 -284.0 -991.0 -1093.0 -546.0 -88.0 -465.0 -488.0 -96.0 223.0 1616.0 4317.0 3300.0,143.0 916.0 838.0 566.0 818.0 683.0 -241.0 277.0 206.0 195.0 16.0 -125.0 -887.0 -2676.0 -2664.0,-46.0 -50.0 -53.0 -118.0 -98.0 -32.0 -47.0 -96.0 -78.0 68.0 115.0 112.0 161.0 135.0 -78.0,101.0 155.0 130.0 93.0 139.0 217.0 171.0 169.0 157.0 180.0 122.0 27.0 47.0 -169.0 -520.0,193.0 213.0 154.0 107.0 117.0 195.0 246.0 228.0 197.0 181.0 187.0 158.0 56.0 -381.0 -871.0,92 103 126 131 131 121 119 127 129 120 128 125 133 123 136,45 69 93 56 62 90 87 78 57 58 42 39 33 31 36,144 146 144 141 141 139 139 132 124 117 105 93 81 78 75,46 87 72 90 89 95 90 77 60 82 79 78 88 58 86,51 53 60 61 65 67 69 68 68 71 70 67 56 47 45,2→3
16,7162.0 6052.0 -14.0 43.0 -2.0 33.0 345.0 87.0 -244.0 -192.0 -99.0 -446.0 -554.0 -455.0 -398.0,-3456.0 -9252.0 -3714.0 -369.0 -1665.0 -1342.0 -72.0 -436.0 -357.0 -406.0 -481.0 -94.0 -164.0 42.0 637.0,-57.0 2209.0 -1718.0 -1137.0 703.0 523.0 222.0 701.0 369.0 407.0 728.0 -323.0 328.0 54.0 -317.0,-674.0 -133.0 421.0 143.0 -73.0 4.0 -76.0 171.0 51.0 6.0 79.0 132.0 58.0 71.0 64.0,-922.0 169.0 315.0 101.0 37.0 75.0 145.0 265.0 219.0 203.0 181.0 187.0 171.0 110.0 55.0,-754.0 -91.0 250.0 203.0 234.0 319.0 213.0 185.0 197.0 220.0 232.0 198.0 172.0 160.0 183.0,148 146 136 141 131 145 133 143 134 139 130 129 121 131 113,42 42 32 3 43 42 31 27 36 39 38 34 32 40 36,85 94 94 95 89 89 95 89 89 92 92 94 92 92 87,99 68 96 94 99 99 99 96 97 97 72 84 88 79 80,53 57 55 58 58 58 58 59 61 61 66 67 64 66 63,3→0
17,6052.0 -14.0 43.0 -2.0 33.0 345.0 87.0 -244.0 -192.0 -99.0 -446.0 -554.0 -455.0 -398.0 -571.0,-9252.0 -3714.0 -369.0 -1665.0 -1342.0 -72.0 -436.0 -357.0 -406.0 -481.0 -94.0 -164.0 42.0 637.0 1686.0,2209.0 -1718.0 -1137.0 703.0 523.0 222.0 701.0 369.0 407.0 728.0 -323.0 328.0 54.0 -317.0 -1445.0,-133.0 421.0 143.0 -73.0 4.0 -76.0 171.0 51.0 6.0 79.0 132.0 58.0 71.0 64.0 24.0,169.0 315.0 101.0 37.0 75.0 145.0 265.0 219.0 203.0 181.0 187.0 171.0 110.0 55.0 6.0,-91.0 250.0 203.0 234.0 319.0 213.0 185.0 197.0 220.0 232.0 198.0 172.0 160.0 183.0 51.0,146 136 141 131 145 133 143 134 139 130 129 121 131 113 120,42 32 3 43 42 31 27 36 39 38 34 32 40 36 42,94 94 95 89 89 95 89 89 92 92 94 92 92 87 82,68 96 94 99 99 99 96 97 97 72 84 88 79 80 83,57 55 58 58 58 58 59 61 61 66 67 64 66 63 56,3→0
18,-14.0 43.0 -2.0 33.0 345.0 87.0 -244.0 -192.0 -99.0 -446.0 -554.0 -455.0 -398.0 -571.0 -1685.0,-3714.0 -369.0 -1665.0 -1342.0 -72.0 -436.0 -357.0 -406.0 -481.0 -94.0 -164.0 42.0 637.0 1686.0 4587.0,-1718.0 -1137.0 703.0 523.0 222.0 701.0 369.0 407.0 728.0 -323.0 328.0 54.0 -317.0 -1445.0 -3479.0,421.0 143.0 -73.0 4.0 -76.0 171.0 51.0 6.0 79.0 132.0 58.0 71.0 64.0 24.0 112.0,315.0 101.0 37.0 75.0 145.0 265.0 219.0 203.0 181.0 187.0 171.0 110.0 55.0 6.0 -243.0,250.0 203.0 234.0 319.0 213.0 185.0 197.0 220.0 232.0 198.0 172.0 160.0 183.0 51.0 -461.0,136 141 131 145 133 143 134 139 130 129 121 131 113 120 118,32 3 43 42 31 27 36 39 38 34 32 40 36 42 39,94 95 89 89 95 89 89 92 92 94 92 92 87 82 76,96 94 99 99 99 96 97 97 72 84 88 79 80 83 78,55 58 58 58 58 59 61 61 66 67 64 66 63 56 47,3→0
19,11949.0 6785.0 1214.0 116.0 181.0 -231.0 36.0 -119.0 -182.0 -114.0 -334.0 -360.0 -461.0 -699.0 -1904.0,-2482.0 -8994.0 -3524.0 -1459.0 -1562.0 -517.0 -666.0 -939.0 -608.0 -386.0 20.0 200.0 403.0 944.0 2282.0,4.0 2644.0 1495.0 1201.0 917.0 588.0 319.0 550.0 208.0 -33.0 79.0 26.0 -120.0 -866.0 -3146.0,-551.0 181.0 331.0 26.0 16.0 58.0 10.0 98.0 178.0 222.0 310.0 230.0 177.0 154.0 59.0,-1268.0 266.0 486.0 80.0 182.0 182.0 240.0 226.0 226.0 201.0 180.0 198.0 163.0 127.0 -135.0,-880.0 36.0 273.0 247.0 286.0 252.0 240.0 287.0 324.0 338.0 286.0 248.0 212.0 88.0 -226.0,89 78 93 81 97 112 118 111 123 119 119 108 96 78 67,33 44 23 0 33 36 31 39 48 36 40 43 45 43 46,78 78 84 84 85 86 82 86 97 97 97 94 86 81 78,78 70 77 76 78 79 81 87 81 61 72 71 79 77 63,50 48 56 55 56 55 57 56 60 56 63 60 57 48 39,0→4
20,6785.0 1214.0 116.0 181.0 -231.0 36.0 -119.0 -182.0 -114.0 -334.0 -360.0 -461.0 -699.0 -1904.0 -36.0,-8994.0 -3524.0 -1459.0 -1562.0 -517.0 -666.0 -939.0 -608.0 -386.0 20.0 200.0 403.0 944.0 2282.0 2427.0,2644.0 1495.0 1201.0 917.0 588.0 319.0 550.0 208.0 -33.0 79.0 26.0 -120.0 -866.0 -3146.0 -5175.0,181.0 331.0 26.0 16.0 58.0 10.0 98.0 178.0 222.0 310.0 230.0 177.0 154.0 59.0 51.0,266.0 486.0 80.0 182.0 182.0 240.0 226.0 226.0 201.0 180.0 198.0 163.0 127.0 -135.0 -858.0,36.0 273.0 247.0 286.0 252.0 240.0 287.0 324.0 338.0 286.0 248.0 212.0 88.0 -226.0 -481.0,78 93 81 97 112 118 111 123 119 119 108 96 78 67 67,44 23 0 33 36 31 39 48 36 40 43 45 43 46 54,78 84 84 85 86 82 86 97 97 97 94 86 81 78 76,70 77 76 78 79 81 87 81 61 72 71 79 77 63 71,48 56 55 56 55 57 56 60 56 63 60 57 48 39 45,0→4
21,7528.0 4003.0 985.0 712.0 94.0 150.0 -598.0 98.0 -6.0 -298.0 -672.0 -530.0 -361.0 -422.0 -625.0,-2715.0 124.0 313.0 -256.0 -27.0 -390.0 40.0 20.0 -62.0 -346.0 119.0 223.0 149.0 628.0 1687.0,6222.0 6585.0 2535.0 2142.0 1564.0 1123.0 -721.0 490.0 304.0 -24.0 -286.0 7.0 199.0 -717.0 -2464.0,431.0 168.0 -41.0 -281.0 -394.0 -303.0 17.0 -117.0 -101.0 94.0 177.0 18.0 14.0 -7.0 -51.0,-774.0 225.0 332.0 313.0 358.0 406.0 430.0 411.0 388.0 347.0 292.0 104.0 86.0 59.0 -104.0,8.0 -129.0 26.0 115.0 180.0 188.0 187.0 160.0 166.0 191.0 157.0 102.0 57.0 86.0 -42.0,74 65 70 56 72 83 92 82 92 94 117 105 111 117 122,44 55 66 49 52 45 65 49 55 71 57 72 58 66 69,89 89 88 85 84 87 87 91 100 102 115 124 129 129 130,71 66 56 68 72 72 69 75 52 51 28 0 91 96 100,53 57 54 48 52 49 50 54 61 62 83 89 92 89 86,4→1
22,4003.0 985.0 712.0 94.0 150.0 -598.0 98.0 -6.0 -298.0 -672.0 -530.0 -361.0 -422.0 -625.0 -918.0,124.0 313.0 -256.0 -27.0 -390.0 40.0 20.0 -62.0 -346.0 119.0 223.0 149.0 628.0 1687.0 2539.0,6585.0 2535.0 2142.0 1564.0 1123.0 -721.0 490.0 304.0 -24.0 -286.0 7.0 199.0 -717.0 -2464.0 -2855.0,168.0 -41.0 -281.0 -394.0 -303.0 17.0 -117.0 -101.0 94.0 177.0 18.0 14.0 -7.0 -51.0 -105.0,225.0 332.0 313.0 358.0 406.0 430.0 411.0 388.0 347.0 292.0 104.0 86.0 59.0 -104.0 -502.0,-129.0 26.0 115.0 180.0 188.0 187.0 160.0 166.0 191.0 157.0 102.0 57.0 86.0 -42.0 -349.0,65 70 56 72 83 92 82 92 94 117 105 111 117 122 124,55 66 49 52 45 65 49 55 71 57 72 58 66 69 78,89 88 85 84 87 87 91 100 102 115 124 129 129 130 133,66 56 68 72 72 69 75 52 51 28 0 91 96 100 99,57 54 48 52 49 50 54 61 62 83 89 92 89 86 95,4→1
23,985.0 712.0 94.0 150.0 -598.0 98.0 -6.0 -298.0 -672.0 -530.0 -361.0 -422.0 -625.0 -918.0 -1.0,313.0 -256.0 -27.0 -390.0 40.0 20.0 -62.0 -346.0 119.0 223.0 149.0 628.0 1687.0 2539.0 2232.0,2535.0 2142.0 1564.0 1123.0 -721.0 490.0 304.0 -24.0 -286.0 7.0 199.0 -717.0 -2464.0 -2855.0 -2577.0,-41.0 -281.0 -394.0 -303.0 17.0 -117.0 -101.0 94.0 177.0 18.0 14.0 -7.0 -51.0 -105.0 -186.0,332.0 313.0 358.0 406.0 430.0 411.0 388.0 347.0 292.0 104.0 86.0 59.0 -104.0 -502.0 -818.0,26.0 115.0 180.0 188.0 187.0 160.0 166.0 191.0 157.0 102.0 57.0 86.0 -42.0 -349.0 -669.0,70 56 72 83 92 82 92 94 117 105 111 117 122 124 134,66 49 52 45 65 49 55 71 57 72 58 66 69 78 83,88 85 84 87 87 91 100 102 115 124 129 129 130 133 137,56 68 72 72 69 75 52 51 28 0 91 96 100 99 98,54 48 52 49 50 54 61 62 83 89 92 89 86 95 101,4→1
24,8754.0 3829.0 3140.0 1574.0 -345.0 -684.0 -521.0 8.0 -118.0 -207.0 -7.0 -23.0 -419.0 -626.0 -742.0,-1619.0 -6437.0 -5924.0 -590.0 -453.0 -746.0 -500.0 -763.0 -581.0 -444.0 -304.0 -225.0 -143.0 375.0 1236.0,939.0 3940.0 901.0 689.0 682.0 29.0 367.0 926.0 502.0 447.0 402.0 307.0 7.0 -171.0 -2495.0,-748.0 -231.0 202.0 136.0 234.0 -73.0 -134.0 47.0 79.0 97.0 89.0 118.0 91.0 60.0 78.0,-1417.0 -80.0 205.0 519.0 323.0 87.0 105.0 243.0 257.0 212.0 242.0 254.0 195.0 158.0 -43.0,-615.0 -220.0 235.0 237.0 212.0 183.0 165.0 138.0 149.0 194.0 210.0 207.0 198.0 170.0 22.0,130 134 129 124 122 126 130 125 122 120 107 94 67 74 71,103 110 87 62 70 75 79 88 75 88 81 72 69 67 58,140 144 127 122 132 122 120 114 108 100 99 92 85 82 80,102 102 100 101 89 94 89 22 1 0 1 0 0 33 51,97 96 101 99 86 71 72 66 59 56 52 52 45 46 33,1→4
25,3829.0 3140.0 1574.0 -345.0 -684.0 -521.0 8.0 -118.0 -207.0 -7.0 -23.0 -419.0 -626.0 -742.0 -1859.0,-6437.0 -5924.0 -590.0 -453.0 -746.0 -500.0 -763.0 -581.0 -444.0 -304.0 -225.0 -143.0 375.0 1236.0 2284.0,3940.0 901.0 689.0 682.0 29.0 367.0 926.0 502.0 447.0 402.0 307.0 7.0 -171.0 -2495.0 -4938.0,-231.0 202.0 136.0 234.0 -73.0 -134.0 47.0 79.0 97.0 89.0 118.0 91.0 60.0 78.0 130.0,-80.0 205.0 519.0 323.0 87.0 105.0 243.0 257.0 212.0 242.0 254.0 195.0 158.0 -43.0 -602.0,-220.0 235.0 237.0 212.0 183.0 165.0 138.0 149.0 194.0 210.0 207.0 198.0 170.0 22.0 -293.0,134 129 124 122 126 130 125 122 120 107 94 67 74 71 64,110 87 62 70 75 79 88 75 88 81 72 69 67 58 54,144 127 122 132 122 120 114 108 100 99 92 85 82 80 78,102 100 101 89 94 89 22 1 0 1 0 0 33 51 53,96 101 99 86 71 72 66 59 56 52 52 45 46 33 37,1→4
26,6462.0 3160.0 992.0 94.0 -183.0 -117.0 98.0 -268.0 -239.0 -246.0 -286.0 -477.0 -356.0 -331.0 -598.0,-2656.0 -1499.0 -353.0 -498.0 -592.0 -637.0 -507.0 -218.0 -141.0 -70.0 102.0 227.0 391.0 982.0 1972.0,7191.0 5349.0 2718.0 1846.0 1054.0 994.0 749.0 753.0 603.0 546.0 168.0 -15.0 -96.0 -995.0 -2627.0,248.0 251.0 6.0 -236.0 -294.0 -120.0 -26.0 37.0 -23.0 -2.0 27.0 64.0 51.0 4.0 5.0,-573.0 247.0 358.0 309.0 252.0 233.0 329.0 318.0 326.0 316.0 297.0 246.0 196.0 120.0 -132.0,-16.0 -64.0 58.0 115.0 150.0 150.0 157.0 155.0 185.0 201.0 144.0 70.0 35.0 1.0 -160.0,77 68 65 78 92 115 117 106 113 119 116 123 121 119 110,35 0 0 53 67 54 69 63 63 86 83 83 84 81 66,92 96 94 97 100 108 119 126 132 132 135 137 135 140 141,62 61 57 62 72 75 72 60 61 62 57 71 71 72 81,55 56 52 55 57 58 47 53 59 59 57 61 60 56 57,4→2
27,3160.0 992.0 94.0 -183.0 -117.0 98.0 -268.0 -239.0 -246.0 -286.0 -477.0 -356.0 -331.0 -598.0 -518.0,-1499.0 -353.0 -498.0 -592.0 -637.0 -507.0 -218.0 -141.0 -70.0 102.0 227.0 391.0 982.0 1972.0 2686.0,5349.0 2718.0 1846.0 1054.0 994.0 749.0 753.0 603.0 546.0 168.0 -15.0 -96.0 -995.0 -2627.0 -3321.0,251.0 6.0 -236.0 -294.0 -120.0 -26.0 37.0 -23.0 -2.0 27.0 64.0 51.0 4.0 5.0 -103.0,247.0 358.0 309.0 252.0 233.0 329.0 318.0 326.0 316.0 297.0 246.0 196.0 120.0 -132.0 -522.0,-64.0 58.0 115.0 150.0 150.0 157.0 155.0 185.0 201.0 144.0 70.0 35.0 1.0 -160.0 -471.0,68 65 78 92 115 117 106 113 119 116 123 121 119 110 98,0 0 53 67 54 69 63 63 86 83 83 84 81 66 90,96 94 97 100 108 119 126 132 132 135 137 135 140 141 143,61 57 62 72 75 72 60 61 62 57 71 71 72 81 76,56 52 55 57 58 47 53 59 59 57 61 60 56 57 54,4→2
28,7214.0 4236.0 476.0 47.0 -239.0 -192.0 -180.0 40.0 -102.0 -309.0 -246.0 -569.0 -716.0 -698.0 -1914.0,-5546.0 -4858.0 -1549.0 -842.0 -1178.0 -431.0 -568.0 -547.0 -406.0 -248.0 -203.0 -89.0 49.0 572.0 1769.0,3597.0 3274.0 2215.0 1108.0 913.0 949.0 884.0 633.0 395.0 354.0 220.0 -76.0 -63.0 -830.0 -4231.0,-30.0 324.0 274.0 -81.0 -84.0 -27.0 29.0 58.0 38.0 26.0 7.0 48.0 19.0 76.0 156.0,-767.0 326.0 384.0 249.0 207.0 241.0 293.0 323.0 329.0 265.0 239.0 175.0 114.0 10.0 -343.0,-403.0 59.0 121.0 133.0 163.0 134.0 127.0 142.0 172.0 186.0 179.0 146.0 129.0 59.0 -188.0,98 90 79 93 108 122 130 126 114 111 104 96 86 78 72,75 37 56 77 95 90 79 68 77 72 64 60 58 61 61,145 143 144 141 139 134 124 111 102 100 96 91 87 82 76,89 56 74 66 77 59 84 64 83 80 74 69 72 85 83,49 55 60 57 62 62 57 59 59 54 60 55 55 51 50,2→4
29,4236.0 476.0 47.0 -239.0 -192.0 -180.0 40.0 -102.0 -309.0 -246.0 -569.0 -716.0 -698.0 -1914.0 272.0,-4858.0 -1549.0 -842.0 -1178.0 -431.0 -568.0 -547.0 -406.0 -248.0 -203.0 -89.0 49.0 572.0 1769.0 2419.0,3274.0 2215.0 1108.0 913.0 949.0 884.0 633.0 395.0 354.0 220.0 -76.0 -63.0 -830.0 -4231.0 -5422.0,324.0 274.0 -81.0 -84.0 -27.0 29.0 58.0 38.0 26.0 7.0 48.0 19.0 76.0 156.0 295.0,326.0 384.0 249.0 207.0 241.0 293.0 323.0 329.0 265.0 239.0 175.0 114.0 10.0 -343.0 -1101.0,59.0 121.0 133.0 163.0 134.0 127.0 142.0 172.0 186.0 179.0 146.0 129.0 59.0 -188.0 -410.0,90 79 93 108 122 130 126 114 111 104 96 86 78 72 65,37 56 77 95 90 79 68 77 72 64 60 58 61 61 37,143 144 141 139 134 124 111 102 100 96 91 87 82 76 73,56 74 66 77 59 84 64 83 80 74 69 72 85 83 95,55 60 57 62 62 57 59 59 54 60 55 55 51 50 48,2→4
30,5997.0 4551.0 2069.0 800.0 133.0 -180.0 102.0 169.0 8.0 118.0 -127.0 -592.0 -436.0 -473.0 -186.0,-1409.0 -576.0 -849.0 -392.0 -304.0 -59.0 -550.0 -479.0 -152.0 -639.0 -353.0 -168.0 66.0 427.0 1580.0,5017.0 6625.0 3671.0 2345.0 1219.0 1110.0 1015.0 755.0 559.0 472.0 292.0 144.0 -187.0 -467.0 -1740.0,373.0 44.0 -111.0 -190.0 -323.0 -284.0 -165.0 -85.0 -139.0 -153.0 -73.0 19.0 -28.0 -22.0 103.0,-887.0 79.0 319.0 370.0 343.0 260.0 307.0 379.0 391.0 384.0 364.0 259.0 220.0 145.0 -1.0,-47.0 -7.0 67.0 141.0 189.0 159.0 108.0 141.0 189.0 192.0 168.0 139.0 79.0 91.0 70.0,67 68 71 76 69 97 111 117 112 118 113 117 124 127 125,33 37 58 41 46 60 66 53 46 48 46 42 37 36 35,90 95 96 96 96 96 97 99 100 95 94 91 89 88 78,86 78 80 84 87 83 86 87 77 76 75 84 66 77 76,53 56 56 53 55 55 54 55 41 59 57 60 52 58 54,4→0
31,4551.0 2069.0 800.0 133.0 -180.0 102.0 169.0 8.0 118.0 -127.0 -592.0 -436.0 -473.0 -186.0 -515.0,-576.0 -849.0 -392.0 -304.0 -59.0 -550.0 -479.0 -152.0 -639.0 -353.0 -168.0 66.0 427.0 1580.0 3490.0,6625.0 3671.0 2345.0 1219.0 1110.0 1015.0 755.0 559.0 472.0 292.0 144.0 -187.0 -467.0 -1740.0 -3302.0,44.0 -111.0 -190.0 -323.0 -284.0 -165.0 -85.0 -139.0 -153.0 -73.0 19.0 -28.0 -22.0 103.0 188.0,79.0 319.0 370.0 343.0 260.0 307.0 379.0 391.0 384.0 364.0 259.0 220.0 145.0 -1.0 -232.0,-7.0 67.0 141.0 189.0 159.0 108.0 141.0 189.0 192.0 168.0 139.0 79.0 91.0 70.0 -258.0,68 71 76 69 97 111 117 112 118 113 117 124 127 125 112,37 58 41 46 60 66 53 46 48 46 42 37 36 35 30,95 96 96 96 96 97 99 100 95 94 91 89 88 78 81,78 80 84 87 83 86 87 77 76 75 84 66 77 76 75,56 56 53 55 55 54 55 41 59 57 60 52 58 54 50,4→0
32,2069.0 800.0 133.0 -180.0 102.0 169.0 8.0 118.0 -127.0 -592.0 -436.0 -473.0 -186.0 -515.0 2.0,-849.0 -392.0 -304.0 -59.0 -550.0 -479.0 -152.0 -639.0 -353.0 -168.0 66.0 427.0 1580.0 3490.0 4138.0,3671.0 2345.0 1219.0 1110.0 1015.0 755.0 559.0 472.0 292.0 144.0 -187.0 -467.0 -1740.0 -3302.0 -3808.0,-111.0 -190.0 -323.0 -284.0 -165.0 -85.0 -139.0 -153.0 -73.0 19.0 -28.0 -22.0 103.0 188.0 109.0,319.0 370.0 343.0 260.0 307.0 379.0 391.0 384.0 364.0 259.0 220.0 145.0 -1.0 -232.0 -686.0,67.0 141.0 189.0 159.0 108.0 141.0 189.0 192.0 168.0 139.0 79.0 91.0 70.0 -258.0 -693.0,71 76 69 97 111 117 112 118 113 117 124 127 125 112 93,58 41 46 60 66 53 46 48 46 42 37 36 35 30 13,96 96 96 96 97 99 100 95 94 91 89 88 78 81 77,80 84 87 83 86 87 77 76 75 84 66 77 76 75 78,56 53 55 55 54 55 41 59 57 60 52 58 54 50 39,4→0
33,2977.0 1770.0 533.0 -355.0 105.0 -353.0 -772.0 -984.0 -830.0 -618.0 -833.0 -672.0 -576.0 -485.0 -366.0,961.0 3391.0 3333.0 3207.0 1837.0 -331.0 -1063.0 -550.0 -570.0 -708.0 -129.0 218.0 593.0 998.0 1488.0,1542.0 1424.0 585.0 708.0 1330.0 800.0 -20.0 431.0 1000.0 455.0 559.0 304.0 -231.0 -765.0 -1564.0,-344.0 -456.0 206.0 188.0 -23.0 -22.0 165.0 46.0 105.0 109.0 63.0 92.0 59.0 20.0 -2.0,395.0 375.0 389.0 316.0 339.0 284.0 130.0 168.0 161.0 164.0 134.0 146.0 162.0 67.0 -34.0,930.0 730.0 143.0 11.0 -151.0 -180.0 -101.0 -87.0 -81.0 -4.0 18.0 6.0 -30.0 -87.0 -213.0,146 145 148 138 142 128 125 115 119 107 122 109 120 118 120,40 38 43 39 42 41 34 35 39 40 44 57 58 71 71,97 95 86 83 84 87 97 109 114 115 125 127 128 129 130,97 94 92 87 92 84 64 57 45 0 50 89 84 101 100,57 56 53 56 55 57 60 69 61 81 97 90 87 86 86,5→1
34,1770.0 533.0 -355.0 105.0 -353.0 -772.0 -984.0 -830.0 -618.0 -833.0 -672.0 -576.0 -485.0 -366.0 -534.0,3391.0 3333.0 3207.0 1837.0 -331.0 -1063.0 -550.0 -570.0 -708.0 -129.0 218.0 593.0 998.0 1488.0 1736.0,1424.0 585.0 708.0 1330.0 800.0 -20.0 431.0 1000.0 455.0 559.0 304.0 -231.0 -765.0 -1564.0 -2379.0,-456.0 206.0 188.0 -23.0 -22.0 165.0 46.0 105.0 109.0 63.0 92.0 59.0 20.0 -2.0 -73.0,375.0 389.0 316.0 339.0 284.0 130.0 168.0 161.0 164.0 134.0 146.0 162.0 67.0 -34.0 -316.0,730.0 143.0 11.0 -151.0 -180.0 -101.0 -87.0 -81.0 -4.0 18.0 6.0 -30.0 -87.0 -213.0 -474.0,145 148 138 142 128 125 115 119 107 122 109 120 118 120 123,38 43 39 42 41 34 35 39 40 44 57 58 71 71 79,95 86 83 84 87 97 109 114 115 125 127 128 129 130 133,94 92 87 92 84 64 57 45 0 50 89 84 101 100 102,56 53 56 55 57 60 69 61 81 97 90 87 86 86 89,5→1
35,533.0 -355.0 105.0 -353.0 -772.0 -984.0 -830.0 -618.0 -833.0 -672.0 -576.0 -485.0 -366.0 -534.0 -271.0,3333.0 3207.0 1837.0 -331.0 -1063.0 -550.0 -570.0 -708.0 -129.0 218.0 593.0 998.0 1488.0 1736.0 1396.0,585.0 708.0 1330.0 800.0 -20.0 431.0 1000.0 455.0 559.0 304.0 -231.0 -765.0 -1564.0 -2379.0 -2750.0,206.0 188.0 -23.0 -22.0 165.0 46.0 105.0 109.0 63.0 92.0 59.0 20.0 -2.0 -73.0 -171.0,389.0 316.0 339.0 284.0 130.0 168.0 161.0 164.0 134.0 146.0 162.0 67.0 -34.0 -316.0 -619.0,143.0 11.0 -151.0 -180.0 -101.0 -87.0 -81.0 -4.0 18.0 6.0 -30.0 -87.0 -213.0 -474.0 -720.0,148 138 142 128 125 115 119 107 122 109 120 118 120 123 123,43 39 42 41 34 35 39 40 44 57 58 71 71 79 76,86 83 84 87 97 109 114 115 125 127 128 129 130 133 132,92 87 92 84 64 57 45 0 50 89 84 101 100 102 100,53 56 55 57 60 69 61 81 97 90 87 86 86 89 92,5→1
36,8300.0 3106.0 -370.0 -838.0 -949.0 -1003.0 -292.0 -231.0 -343.0 -272.0 -119.0 -110.0 -101.0 134.0 834.0,-7563.0 -4775.0 -929.0 710.0 324.0 -378.0 -571.0 -310.0 -114.0 117.0 82.0 86.0 62.0 -256.0 -1335.0,4274.0 2429.0 1773.0 520.0 729.0 850.0 277.0 538.0 552.0 486.0 819.0 988.0 936.0 1214.0 1584.0,-652.0 455.0 472.0 95.0 -227.0 -56.0 108.0 204.0 214.0 208.0 217.0 246.0 222.0 186.0 179.0,-936.0 313.0 404.0 312.0 172.0 120.0 103.0 73.0 -7.0 -76.0 -93.0 -78.0 -82.0 -93.0 -70.0,-281.0 87.0 118.0 26.0 -17.0 -15.0 -29.0 -13.0 -21.0 -73.0 -116.0 -132.0 -149.0 -144.0 -69.0,143 139 136 136 127 140 135 122 105 101 117 128 128 133 120,21 1 10 42 49 44 30 32 15 25 34 36 36 36 34,144 138 122 127 119 115 111 102 100 103 107 106 103 103 100,104 102 101 78 38 1 37 54 0 73 81 84 83 84 83,101 103 78 77 66 36 44 39 42 42 42 49 52 50 48,1→5
37,3106.0 -370.0 -838.0 -949.0 -1003.0 -292.0 -231.0 -343.0 -272.0 -119.0 -110.0 -101.0 134.0 834.0 1875.0,-4775.0 -929.0 710.0 324.0 -378.0 -571.0 -310.0 -114.0 117.0 82.0 86.0 62.0 -256.0 -1335.0 -2430.0,2429.0 1773.0 520.0 729.0 850.0 277.0 538.0 552.0 486.0 819.0 988.0 936.0 1214.0 1584.0 2586.0,455.0 472.0 95.0 -227.0 -56.0 108.0 204.0 214.0 208.0 217.0 246.0 222.0 186.0 179.0 106.0,313.0 404.0 312.0 172.0 120.0 103.0 73.0 -7.0 -76.0 -93.0 -78.0 -82.0 -93.0 -70.0 57.0,87.0 118.0 26.0 -17.0 -15.0 -29.0 -13.0 -21.0 -73.0 -116.0 -132.0 -149.0 -144.0 -69.0 133.0,139 136 136 127 140 135 122 105 101 117 128 128 133 120 134,1 10 42 49 44 30 32 15 25 34 36 36 36 34 35,138 122 127 119 115 111 102 100 103 107 106 103 103 100 100,102 101 78 38 1 37 54 0 73 81 84 83 84 83 84,103 78 77 66 36 44 39 42 42 42 49 52 50 48 48,1→5
38,2635.0 1973.0 1424.0 72.0 -340.0 -456.0 -325.0 79.0 -69.0 -146.0 -457.0 -1053.0 -763.0 -743.0 -862.0,-3151.0 -1115.0 2464.0 4761.0 3911.0 2791.0 98.0 -1628.0 -1277.0 -1330.0 -835.0 -407.0 -129.0 383.0 872.0,2992.0 923.0 1352.0 1051.0 721.0 1199.0 1381.0 1350.0 -159.0 945.0 429.0 655.0 552.0 335.0 -84.0,-207.0 -371.0 -285.0 63.0 116.0 -34.0 -156.0 -110.0 -113.0 -124.0 36.0 126.0 105.0 127.0 82.0,117.0 144.0 63.0 235.0 217.0 214.0 155.0 240.0 271.0 234.0 198.0 181.0 204.0 227.0 205.0,555.0 814.0 769.0 250.0 58.0 -185.0 -256.0 -160.0 -87.0 -38.0 5.0 26.0 52.0 34.0 -32.0,138 139 136 129 140 140 133 117 121 128 132 135 135 135 126,40 32 38 35 32 37 37 38 35 44 46 57 64 71 68,104 105 103 99 95 94 96 103 113 122 126 128 132 134 135,87 88 84 84 72 83 82 81 81 84 75 61 42 59 69,53 55 56 53 51 55 54 55 52 47 52 52 53 56 48,5→2
39,1973.0 1424.0 72.0 -340.0 -456.0 -325.0 79.0 -69.0 -146.0 -457.0 -1053.0 -763.0 -743.0 -862.0 -626.0,-1115.0 2464.0 4761.0 3911.0 2791.0 98.0 -1628.0 -1277.0 -1330.0 -835.0 -407.0 -129.0 383.0 872.0 1154.0,923.0 1352.0 1051.0 721.0 1199.0 1381.0 1350.0 -159.0 945.0 429.0 655.0 552.0 335.0 -84.0 -464.0,-371.0 -285.0 63.0 116.0 -34.0 -156.0 -110.0 -113.0 -124.0 36.0 126.0 105.0 127.0 82.0 26.0,144.0 63.0 235.0 217.0 214.0 155.0 240.0 271.0 234.0 198.0 181.0 204.0 227.0 205.0 148.0,814.0 769.0 250.0 58.0 -185.0 -256.0 -160.0 -87.0 -38.0 5.0 26.0 52.0 34.0 -32.0 -118.0,139 136 129 140 140 133 117 121 128 132 135 135 135 126 126,32 38 35 32 37 37 38 35 44 46 57 64 71 68 74,105 103 99 95 94 96 103 113 122 126 128 132 134 135 137,88 84 84 72 83 82 81 81 84 75 61 42 59 69 67,55 56 53 51 55 54 55 52 47 52 52 53 56 48 47,5→2
40,1424.0 72.0 -340.0 -456.0 -325.0 79.0 -69.0 -146.0 -457.0 -1053.0 -763.0 -743.0 -862.0 -626.0 -569.0,2464.0 4761.0 3911.0 2791.0 98.0 -1628.0 -1277.0 -1330.0 -835.0 -407.0 -129.0 383.0 872.0 1154.0 1469.0,1352.0 1051.0 721.0 1199.0 1381.0 1350.0 -159.0 945.0 429.0 655.0 552.0 335.0 -84.0 -464.0 -1553.0,-285.0 63.0 116.0 -34.0 -156.0 -110.0 -113.0 -124.0 36.0 126.0 105.0 127.0 82.0 26.0 28.0,63.0 235.0 217.0 214.0 155.0 240.0 271.0 234.0 198.0 181.0 204.0 227.0 205.0 148.0 13.0,769.0 250.0 58.0 -185.0 -256.0 -160.0 -87.0 -38.0 5.0 26.0 52.0 34.0 -32.0 -118.0 -267.0,136 129 140 140 133 117 121 128 132 135 135 135 126 126 119,38 35 32 37 37 38 35 44 46 57 64 71 68 74 80,103 99 95 94 96 103 113 122 126 128 132 134 135 137 136,84 84 72 83 82 81 81 84 75 61 42 59 69 67 48,56 53 51 55 54 55 52 47 52 52 53 56 48 47 50,5→2
41,72.0 -340.0 -456.0 -325.0 79.0 -69.0 -146.0 -457.0 -1053.0 -763.0 -743.0 -862.0 -626.0 -569.0 -602.0,4761.0 3911.0 2791.0 98.0 -1628.0 -1277.0 -1330.0 -835.0 -407.0 -129.0 383.0 872.0 1154.0 1469.0 2367.0,1051.0 721.0 1199.0 1381.0 1350.0 -159.0 945.0 429.0 655.0 552.0 335.0 -84.0 -464.0 -1553.0 -2756.0,63.0 116.0 -34.0 -156.0 -110.0 -113.0 -124.0 36.0 126.0 105.0 127.0 82.0 26.0 28.0 -19.0,235.0 217.0 214.0 155.0 240.0 271.0 234.0 198.0 181.0 204.0 227.0 205.0 148.0 13.0 -313.0,250.0 58.0 -185.0 -256.0 -160.0 -87.0 -38.0 5.0 26.0 52.0 34.0 -32.0 -118.0 -267.0 -521.0,129 140 140 133 117 121 128 132 135 135 135 126 126 119 87,35 32 37 37 38 35 44 46 57 64 71 68 74 80 78,99 95 94 96 103 113 122 126 128 132 134 135 137 136 139,84 72 83 82 81 81 84 75 61 42 59 69 67 48 43,53 51 55 54 55 52 47 52 52 53 56 48 47 50 48,5→2
42,-340.0 -456.0 -325.0 79.0 -69.0 -146.0 -457.0 -1053.0 -763.0 -743.0 -862.0 -626.0 -569.0 -602.0 661.0,3911.0 2791.0 98.0 -1628.0 -1277.0 -1330.0 -835.0 -407.0 -129.0 383.0 872.0 1154.0 1469.0 2367.0 1784.0,721.0 1199.0 1381.0 1350.0 -159.0 945.0 429.0 655.0 552.0 335.0 -84.0 -464.0 -1553.0 -2756.0 -3814.0,116.0 -34.0 -156.0 -110.0 -113.0 -124.0 36.0 126.0 105.0 127.0 82.0 26.0 28.0 -19.0 -127.0,217.0 214.0 155.0 240.0 271.0 234.0 198.0 181.0 204.0 227.0 205.0 148.0 13.0 -313.0 -751.0,58.0 -185.0 -256.0 -160.0 -87.0 -38.0 5.0 26.0 52.0 34.0 -32.0 -118.0 -267.0 -521.0 -734.0,140 140 133 117 121 128 132 135 135 135 126 126 119 87 87,32 37 37 38 35 44 46 57 64 71 68 74 80 78 62,95 94 96 103 113 122 126 128 132 134 135 137 136 139 143,72 83 82 81 81 84 75 61 42 59 69 67 48 43 37,51 55 54 55 52 47 52 52 53 56 48 47 50 48 45,5→2
43,6129.0 3117.0 -262.0 -131.0 -341.0 -452.0 -206.0 -84.0 -275.0 -383.0 -482.0 -383.0 -380.0 286.0 1337.0,-4368.0 -2807.0 -505.0 -702.0 -361.0 -22.0 -409.0 -475.0 12.0 364.0 273.0 -208.0 -150.0 -1364.0 -2656.0,4142.0 3102.0 1623.0 1141.0 976.0 909.0 828.0 639.0 721.0 686.0 1068.0 458.0 433.0 996.0 2073.0,218.0 252.0 84.0 -41.0 33.0 42.0 158.0 312.0 330.0 321.0 261.0 217.0 169.0 111.0 32.0,-403.0 284.0 230.0 160.0 178.0 195.0 181.0 176.0 149.0 136.0 152.0 91.0 -64.0 -135.0 -109.0,-262.0 44.0 85.0 72.0 36.0 -6.0 -32.0 -35.0 -46.0 -69.0 -101.0 -112.0 -111.0 -48.0 151.0,102 94 98 103 111 115 120 126 128 130 130 125 127 126 125,70 63 69 78 75 84 60 62 47 33 33 31 33 35 38,145 143 143 145 141 135 131 124 116 107 100 98 93 96 90,92 77 84 85 75 85 89 93 95 75 70 72 77 91 95,47 45 50 56 56 55 56 55 41 37 43 46 47 46 48,2→5
44,2836.0 2320.0 1514.0 373.0 -255.0 152.0 -588.0 -309.0 163.0 -593.0 -284.0 -781.0 -700.0 -363.0 -401.0,-2647.0 430.0 3382.0 3773.0 3208.0 2152.0 539.0 -443.0 20.0 -277.0 -498.0 -170.0 336.0 881.0 2220.0,3166.0 2294.0 1628.0 1220.0 968.0 1222.0 456.0 1125.0 958.0 486.0 329.0 -137.0 -335.0 -927.0 -1696.0,-138.0 -236.0 -264.0 -116.0 109.0 -48.0 -105.0 110.0 -20.0 167.0 57.0 71.0 38.0 -23.0 -82.0,205.0 247.0 355.0 324.0 288.0 322.0 254.0 200.0 381.0 345.0 336.0 286.0 171.0 64.0 -48.0,654.0 716.0 532.0 192.0 25.0 -99.0 -126.0 -95.0 -92.0 -156.0 -132.0 -83.0 -46.0 -76.0 -220.0,143 140 138 134 134 144 131 139 138 128 127 127 128 129 108,29 28 39 39 38 43 46 43 34 42 44 38 42 36 39,100 101 101 94 84 84 84 87 92 93 91 86 84 82 81,96 93 92 87 73 74 80 66 42 62 63 57 72 69 58,51 51 51 48 51 52 52 52 39 52 52 54 54 51 50,5→0
45,2320.0 1514.0 373.0 -255.0 152.0 -588.0 -309.0 163.0 -593.0 -284.0 -781.0 -700.0 -363.0 -401.0 66.0,430.0 3382.0 3773.0 3208.0 2152.0 539.0 -443.0 20.0 -277.0 -498.0 -170.0 336.0 881.0 2220.0 3734.0,2294.0 1628.0 1220.0 968.0 1222.0 456.0 1125.0 958.0 486.0 329.0 -137.0 -335.0 -927.0 -1696.0 -3033.0,-236.0 -264.0 -116.0 109.0 -48.0 -105.0 110.0 -20.0 167.0 57.0 71.0 38.0 -23.0 -82.0 -36.0,247.0 355.0 324.0 288.0 322.0 254.0 200.0 381.0 345.0 336.0 286.0 171.0 64.0 -48.0 -274.0,716.0 532.0 192.0 25.0 -99.0 -126.0 -95.0 -92.0 -156.0 -132.0 -83.0 -46.0 -76.0 -220.0 -598.0,140 138 134 134 144 131 139 138 128 127 127 128 129 108 77,28 39 39 38 43 46 43 34 42 44 38 42 36 39 39,101 101 94 84 84 84 87 92 93 91 86 84 82 81 83,93 92 87 73 74 80 66 42 62 63 57 72 69 58 59,51 51 48 51 52 52 52 39 52 52 54 54 51 50 40,5→0
46,1514.0 373.0 -255.0 152.0 -588.0 -309.0 163.0 -593.0 -284.0 -781.0 -700.0 -363.0 -401.0 66.0 708.0,3382.0 3773.0 3208.0 2152.0 539.0 -443.0 20.0 -277.0 -498.0 -170.0 336.0 881.0 2220.0 3734.0 2921.0,1628.0 1220.0 968.0 1222.0 456.0 1125.0 958.0 486.0 329.0 -137.0 -335.0 -927.0 -1696.0 -3033.0 -4319.0,-264.0 -116.0 109.0 -48.0 -105.0 110.0 -20.0 167.0 57.0 71.0 38.0 -23.0 -82.0 -36.0 -56.0,355.0 324.0 288.0 322.0 254.0 200.0 381.0 345.0 336.0 286.0 171.0 64.0 -48.0 -274.0 -735.0,532.0 192.0 25.0 -99.0 -126.0 -95.0 -92.0 -156.0 -132.0 -83.0 -46.0 -76.0 -220.0 -598.0 -955.0,138 134 134 144 131 139 138 128 127 127 128 129 108 77 82,39 39 38 43 46 43 34 42 44 38 42 36 39 39 29,101 94 84 84 84 87 92 93 91 86 84 82 81 83 81,92 87 73 74 80 66 42 62 63 57 72 69 58 59 65,51 48 51 52 52 52 39 52 52 54 54 51 50 40 39,5→0
47,7274.0 1697.0 198.0 -374.0 -168.0 -402.0 -19.0 107.0 145.0 -21.0 -312.0 -484.0 -933.0 -1448.0 -1341.0,-4515.0 -126.0 -1077.0 76.0 -120.0 13.0 78.0 196.0 285.0 676.0 727.0 1298.0 2345.0 3256.0 2597.0,5423.0 3877.0 1223.0 1361.0 1431.0 932.0 806.0 886.0 919.0 729.0 253.0 159.0 -286.0 -747.0 -1062.0,849.0 420.0 230.0 58.0 110.0 201.0 233.0 183.0 207.0 135.0 149.0 161.0 163.0 67.0 5.0,-390.0 291.0 192.0 50.0 60.0 26.0 85.0 124.0 126.0 146.0 96.0 -8.0 -78.0 -132.0 -268.0,32.0 -22.0 170.0 188.0 140.0 135.0 101.0 99.0 140.0 155.0 58.0 -27.0 -160.0 -315.0 -396.0,103 95 104 102 122 129 125 133 121 117 126 136 135 127 136,34 32 36 36 30 36 41 29 32 32 37 33 34 40 38,99 99 97 96 94 95 94 96 94 94 94 93 95 95 95,69 68 57 59 39 1 47 42 48 56 71 68 55 46 43,36 38 48 42 38 41 48 70 75 80 81 81 88 98 103,0→6
48,1697.0 198.0 -374.0 -168.0 -402.0 -19.0 107.0 145.0 -21.0 -312.0 -484.0 -933.0 -1448.0 -1341.0 95.0,-126.0 -1077.0 76.0 -120.0 13.0 78.0 196.0 285.0 676.0 727.0 1298.0 2345.0 3256.0 2597.0 1559.0,3877.0 1223.0 1361.0 1431.0 932.0 806.0 886.0 919.0 729.0 253.0 159.0 -286.0 -747.0 -1062.0 -129.0,420.0 230.0 58.0 110.0 201.0 233.0 183.0 207.0 135.0 149.0 161.0 163.0 67.0 5.0 46.0,291.0 192.0 50.0 60.0 26.0 85.0 124.0 126.0 146.0 96.0 -8.0 -78.0 -132.0 -268.0 -450.0,-22.0 170.0 188.0 140.0 135.0 101.0 99.0 140.0 155.0 58.0 -27.0 -160.0 -315.0 -396.0 -364.0,95 104 102 122 129 125 133 121 117 126 136 135 127 136 139,32 36 36 30 36 41 29 32 32 37 33 34 40 38 37,99 97 96 94 95 94 96 94 94 94 93 95 95 95 95,68 57 59 39 1 47 42 48 56 71 68 55 46 43 62,38 48 42 38 41 48 70 75 80 81 81 88 98 103 103,0→6
49,4930.0 2884.0 1041.0 261.0 -366.0 -34.0 25.0 -433.0 -663.0 -866.0 -738.0 -699.0 -376.0 -421.0 -445.0,-2397.0 -2341.0 -1401.0 -312.0 -41.0 202.0 510.0 455.0 302.0 868.0 662.0 316.0 242.0 813.0 1473.0,4377.0 2971.0 1605.0 1603.0 881.0 1384.0 1027.0 287.0 255.0 -328.0 -256.0 -247.0 16.0 -798.0 -2236.0,-191.0 -173.0 -143.0 -292.0 -268.0 -137.0 -162.0 -117.0 43.0 140.0 25.0 40.0 66.0 -75.0 -111.0,-323.0 234.0 341.0 379.0 321.0 288.0 389.0 332.0 358.0 263.0 141.0 117.0 80.0 -28.0 -180.0,-68.0 21.0 135.0 187.0 257.0 277.0 263.0 246.0 195.0 75.0 -27.0 -96.0 -112.0 -92.0 -219.0,127 113 115 109 99 101 104 110 107 105 105 109 116 111 119,40 31 39 38 38 40 40 42 32 35 45 56 58 71 67,99 104 103 102 103 104 106 107 104 112 117 126 124 123 127,80 84 80 56 68 75 67 75 32 53 40 87 98 103 102,112 106 100 52 40 85 65 61 71 65 86 90 92 94 96,6→1
50,2884.0 1041.0 261.0 -366.0 -34.0 25.0 -433.0 -663.0 -866.0 -738.0 -699.0 -376.0 -421.0 -445.0 -416.0,-2341.0 -1401.0 -312.0 -41.0 202.0 510.0 455.0 302.0 868.0 662.0 316.0 242.0 813.0 1473.0 1853.0,2971.0 1605.0 1603.0 881.0 1384.0 1027.0 287.0 255.0 -328.0 -256.0 -247.0 16.0 -798.0 -2236.0 -2652.0,-173.0 -143.0 -292.0 -268.0 -137.0 -162.0 -117.0 43.0 140.0 25.0 40.0 66.0 -75.0 -111.0 -146.0,234.0 341.0 379.0 321.0 288.0 389.0 332.0 358.0 263.0 141.0 117.0 80.0 -28.0 -180.0 -459.0,21.0 135.0 187.0 257.0 277.0 263.0 246.0 195.0 75.0 -27.0 -96.0 -112.0 -92.0 -219.0 -437.0,113 115 109 99 101 104 110 107 105 105 109 116 111 119 112,31 39 38 38 40 40 42 32 35 45 56 58 71 67 73,104 103 102 103 104 106 107 104 112 117 126 124 123 127 132,84 80 56 68 75 67 75 32 53 40 87 98 103 102 102,106 100 52 40 85 65 61 71 65 86 90 92 94 96 104,6→1
51,1041.0 261.0 -366.0 -34.0 25.0 -433.0 -663.0 -866.0 -738.0 -699.0 -376.0 -421.0 -445.0 -416.0 13.0,-1401.0 -312.0 -41.0 202.0 510.0 455.0 302.0 868.0 662.0 316.0 242.0 813.0 1473.0 1853.0 1325.0,1605.0 1603.0 881.0 1384.0 1027.0 287.0 255.0 -328.0 -256.0 -247.0 16.0 -798.0 -2236.0 -2652.0 -2520.0,-143.0 -292.0 -268.0 -137.0 -162.0 -117.0 43.0 140.0 25.0 40.0 66.0 -75.0 -111.0 -146.0 -189.0,341.0 379.0 321.0 288.0 389.0 332.0 358.0 263.0 141.0 117.0 80.0 -28.0 -180.0 -459.0 -712.0,135.0 187.0 257.0 277.0 263.0 246.0 195.0 75.0 -27.0 -96.0 -112.0 -92.0 -219.0 -437.0 -674.0,115 109 99 101 104 110 107 105 105 109 116 111 119 112 116,39 38 38 40 40 42 32 35 45 56 58 71 67 73 83,103 102 103 104 106 107 104 112 117 126 124 123 127 132 136,80 56 68 75 67 75 32 53 40 87 98 103 102 102 102,100 52 40 85 65 61 71 65 86 90 92 94 96 104 107,6→1
52,5374.0 3389.0 402.0 -120.0 -689.0 -36.0 -100.0 -10.0 167.0 -8.0 -100.0 -437.0 -417.0 -370.0 -1196.0,-5895.0 -4513.0 -1575.0 -403.0 -789.0 -792.0 -707.0 -406.0 -492.0 -518.0 90.0 172.0 -13.0 1138.0 2707.0,1539.0 1440.0 225.0 624.0 -55.0 380.0 599.0 767.0 245.0 203.0 175.0 365.0 262.0 -60.0 -925.0,-403.0 416.0 482.0 219.0 57.0 141.0 217.0 219.0 268.0 260.0 221.0 165.0 186.0 258.0 256.0,-378.0 307.0 498.0 224.0 155.0 131.0 139.0 186.0 195.0 169.0 146.0 17.0 -40.0 -24.0 -62.0,-237.0 181.0 222.0 216.0 178.0 153.0 145.0 214.0 231.0 246.0 248.0 191.0 188.0 144.0 -27.0,131 129 128 107 129 123 110 117 87 87 100 93 96 95 86,98 60 40 65 78 74 49 31 27 23 29 29 29 38 36,145 143 141 140 137 129 122 108 104 105 105 105 103 104 100,106 108 107 106 106 104 87 0 0 4 45 47 61 79 77,113 115 116 117 116 115 112 103 97 91 88 95 102 111 101,1→6
53,3389.0 402.0 -120.0 -689.0 -36.0 -100.0 -10.0 167.0 -8.0 -100.0 -437.0 -417.0 -370.0 -1196.0 -1982.0,-4513.0 -1575.0 -403.0 -789.0 -792.0 -707.0 -406.0 -492.0 -518.0 90.0 172.0 -13.0 1138.0 2707.0 3589.0,1440.0 225.0 624.0 -55.0 380.0 599.0 767.0 245.0 203.0 175.0 365.0 262.0 -60.0 -925.0 -1838.0,416.0 482.0 219.0 57.0 141.0 217.0 219.0 268.0 260.0 221.0 165.0 186.0 258.0 256.0 229.0,307.0 498.0 224.0 155.0 131.0 139.0 186.0 195.0 169.0 146.0 17.0 -40.0 -24.0 -62.0 -225.0,181.0 222.0 216.0 178.0 153.0 145.0 214.0 231.0 246.0 248.0 191.0 188.0 144.0 -27.0 -174.0,129 128 107 129 123 110 117 87 87 100 93 96 95 86 89,60 40 65 78 74 49 31 27 23 29 29 29 38 36 40,143 141 140 137 129 122 108 104 105 105 105 103 104 100 101,108 107 106 106 104 87 0 0 4 45 47 61 79 77 64,115 116 117 116 115 112 103 97 91 88 95 102 111 101 117,1→6
54,402.0 -120.0 -689.0 -36.0 -100.0 -10.0 167.0 -8.0 -100.0 -437.0 -417.0 -370.0 -1196.0 -1982.0 -1506.0,-1575.0 -403.0 -789.0 -792.0 -707.0 -406.0 -492.0 -518.0 90.0 172.0 -13.0 1138.0 2707.0 3589.0 3557.0,225.0 624.0 -55.0 380.0 599.0 767.0 245.0 203.0 175.0 365.0 262.0 -60.0 -925.0 -1838.0 -1216.0,482.0 219.0 57.0 141.0 217.0 219.0 268.0 260.0 221.0 165.0 186.0 258.0 256.0 229.0 177.0,498.0 224.0 155.0 131.0 139.0 186.0 195.0 169.0 146.0 17.0 -40.0 -24.0 -62.0 -225.0 -486.0,222.0 216.0 178.0 153.0 145.0 214.0 231.0 246.0 248.0 191.0 188.0 144.0 -27.0 -174.0 -362.0,128 107 129 123 110 117 87 87 100 93 96 95 86 89 93,40 65 78 74 49 31 27 23 29 29 29 38 36 40 39,141 140 137 129 122 108 104 105 105 105 103 104 100 101 103,107 106 106 104 87 0 0 4 45 47 61 79 77 64 81,116 117 116 115 112 103 97 91 88 95 102 111 101 117 121,1→6
55,3951.0 3942.0 1617.0 346.0 -432.0 -684.0 -562.0 -694.0 -493.0 -649.0 -551.0 -625.0 -623.0 -559.0 -332.0,-1704.0 -3373.0 -2282.0 -1126.0 -861.0 -133.0 326.0 261.0 266.0 506.0 678.0 786.0 773.0 1158.0 1605.0,2693.0 4355.0 2386.0 1722.0 1139.0 1253.0 669.0 1004.0 898.0 623.0 612.0 -11.0 -673.0 -990.0 -1975.0,-205.0 -123.0 -25.0 -158.0 -209.0 -106.0 -95.0 -134.0 -28.0 17.0 -26.0 -91.0 -109.0 -66.0 -152.0,-631.0 19.0 230.0 221.0 248.0 215.0 189.0 190.0 280.0 285.0 272.0 261.0 157.0 52.0 -93.0,-344.0 -81.0 57.0 134.0 191.0 230.0 186.0 168.0 144.0 137.0 99.0 36.0 -71.0 -201.0 -332.0,110 110 109 117 108 100 115 127 125 121 129 128 124 129 122,40 16 22 36 39 38 33 41 58 64 69 67 79 76 67,110 115 117 112 114 117 124 128 132 135 136 133 141 141 141,84 98 93 97 89 90 62 44 59 69 70 62 68 65 71,127 127 126 111 104 50 60 20 37 46 30 41 11 27 28,6→2
56,3942.0 1617.0 346.0 -432.0 -684.0 -562.0 -694.0 -493.0 -649.0 -551.0 -625.0 -623.0 -559.0 -332.0 -168.0,-3373.0 -2282.0 -1126.0 -861.0 -133.0 326.0 261.0 266.0 506.0 678.0 786.0 773.0 1158.0 1605.0 1764.0,4355.0 2386.0 1722.0 1139.0 1253.0 669.0 1004.0 898.0 623.0 612.0 -11.0 -673.0 -990.0 -1975.0 -2639.0,-123.0 -25.0 -158.0 -209.0 -106.0 -95.0 -134.0 -28.0 17.0 -26.0 -91.0 -109.0 -66.0 -152.0 -122.0,19.0 230.0 221.0 248.0 215.0 189.0 190.0 280.0 285.0 272.0 261.0 157.0 52.0 -93.0 -310.0,-81.0 57.0 134.0 191.0 230.0 186.0 168.0 144.0 137.0 99.0 36.0 -71.0 -201.0 -332.0 -510.0,110 109 117 108 100 115 127 125 121 129 128 124 129 122 114,16 22 36 39 38 33 41 58 64 69 67 79 76 67 76,115 117 112 114 117 124 128 132 135 136 133 141 141 141 143,98 93 97 89 90 62 44 59 69 70 62 68 65 71 2,127 126 111 104 50 60 20 37 46 30 41 11 27 28 27,6→2
57,1617.0 346.0 -432.0 -684.0 -562.0 -694.0 -493.0 -649.0 -551.0 -625.0 -623.0 -559.0 -332.0 -168.0 658.0,-2282.0 -1126.0 -861.0 -133.0 326.0 261.0 266.0 506.0 678.0 786.0 773.0 1158.0 1605.0 1764.0 1267.0,2386.0 1722.0 1139.0 1253.0 669.0 1004.0 898.0 623.0 612.0 -11.0 -673.0 -990.0 -1975.0 -2639.0 -3168.0,-25.0 -158.0 -209.0 -106.0 -95.0 -134.0 -28.0 17.0 -26.0 -91.0 -109.0 -66.0 -152.0 -122.0 2.0,230.0 221.0 248.0 215.0 189.0 190.0 280.0 285.0 272.0 261.0 157.0 52.0 -93.0 -310.0 -641.0,57.0 134.0 191.0 230.0 186.0 168.0 144.0 137.0 99.0 36.0 -71.0 -201.0 -332.0 -510.0 -661.0,109 117 108 100 115 127 125 121 129 128 124 129 122 114 119,22 36 39 38 33 41 58 64 69 67 79 76 67 76 98,117 112 114 117 124 128 132 135 136 133 141 141 141 143 145,93 97 89 90 62 44 59 69 70 62 68 65 71 2 62,126 111 104 50 60 20 37 46 30 41 11 27 28 27 30,6→2
58,346.0 -432.0 -684.0 -562.0 -694.0 -493.0 -649.0 -551.0 -625.0 -623.0 -559.0 -332.0 -168.0 658.0 2217.0,-1126.0 -861.0 -133.0 326.0 261.0 266.0 506.0 678.0 786.0 773.0 1158.0 1605.0 1764.0 1267.0 378.0,1722.0 1139.0 1253.0 669.0 1004.0 898.0 623.0 612.0 -11.0 -673.0 -990.0 -1975.0 -2639.0 -3168.0 -1802.0,-158.0 -209.0 -106.0 -95.0 -134.0 -28.0 17.0 -26.0 -91.0 -109.0 -66.0 -152.0 -122.0 2.0 118.0,221.0 248.0 215.0 189.0 190.0 280.0 285.0 272.0 261.0 157.0 52.0 -93.0 -310.0 -641.0 -1018.0,134.0 191.0 230.0 186.0 168.0 144.0 137.0 99.0 36.0 -71.0 -201.0 -332.0 -510.0 -661.0 -616.0,117 108 100 115 127 125 121 129 128 124 129 122 114 119 113,36 39 38 33 41 58 64 69 67 79 76 67 76 98 70,112 114 117 124 128 132 135 136 133 141 141 141 143 145 143,97 89 90 62 44 59 69 70 62 68 65 71 2 62 54,111 104 50 60 20 37 46 30 41 11 27 28 27 30 40,6→2
59,6544.0 3102.0 257.0 132.0 57.0 -267.0 -358.0 134.0 -17.0 -234.0 -304.0 -457.0 -707.0 -1118.0 -1375.0,-4381.0 -2928.0 -912.0 -1144.0 -806.0 -284.0 -142.0 -181.0 63.0 400.0 613.0 976.0 1881.0 2857.0 3270.0,5450.0 3691.0 1527.0 847.0 656.0 324.0 349.0 820.0 379.0 394.0 257.0 310.0 81.0 -585.0 -1353.0,153.0 244.0 101.0 20.0 150.0 184.0 141.0 166.0 196.0 184.0 165.0 179.0 161.0 132.0 106.0,-364.0 290.0 282.0 278.0 278.0 234.0 111.0 124.0 120.0 82.0 49.0 -11.0 -43.0 -119.0 -209.0,-78.0 69.0 103.0 175.0 198.0 234.0 260.0 275.0 304.0 266.0 196.0 112.0 44.0 -158.0 -322.0,128 126 125 122 125 131 130 121 129 128 125 129 129 126 125,72 73 88 81 50 37 35 36 37 37 35 39 38 38 42,146 144 140 140 136 123 113 109 104 100 99 104 100 97 96,80 62 69 74 72 63 64 60 82 83 72 82 90 77 93,57 39 53 59 59 49 62 67 68 79 83 78 100 102 105,2→6
60,3102.0 257.0 132.0 57.0 -267.0 -358.0 134.0 -17.0 -234.0 -304.0 -457.0 -707.0 -1118.0 -1375.0 -1165.0,-2928.0 -912.0 -1144.0 -806.0 -284.0 -142.0 -181.0 63.0 400.0 613.0 976.0 1881.0 2857.0 3270.0 2970.0,3691.0 1527.0 847.0 656.0 324.0 349.0 820.0 379.0 394.0 257.0 310.0 81.0 -585.0 -1353.0 -1543.0,244.0 101.0 20.0 150.0 184.0 141.0 166.0 196.0 184.0 165.0 179.0 161.0 132.0 106.0 95.0,290.0 282.0 278.0 278.0 234.0 111.0 124.0 120.0 82.0 49.0 -11.0 -43.0 -119.0 -209.0 -423.0,69.0 103.0 175.0 198.0 234.0 260.0 275.0 304.0 266.0 196.0 112.0 44.0 -158.0 -322.0 -420.0,126 125 122 125 131 130 121 129 128 125 129 129 126 125 118,73 88 81 50 37 35 36 37 37 35 39 38 38 42 43,144 140 140 136 123 113 109 104 100 99 104 100 97 96 98,62 69 74 72 63 64 60 82 83 72 82 90 77 93 86,39 53 59 59 49 62 67 68 79 83 78 100 102 105 112,2→6
61,4066.0 3004.0 1207.0 55.0 -286.0 -417.0 -173.0 70.0 68.0 -490.0 -313.0 -239.0 -809.0 -255.0 63.0,-1635.0 -2370.0 -1171.0 27.0 177.0 523.0 580.0 483.0 615.0 451.0 282.0 269.0 407.0 883.0 1209.0,4521.0 3473.0 2314.0 1554.0 1127.0 1337.0 1246.0 1277.0 1145.0 152.0 -37.0 -222.0 -535.0 -560.0 -1455.0,-128.0 -94.0 -9.0 -195.0 -213.0 -210.0 -148.0 -107.0 -129.0 -198.0 -175.0 -151.0 -84.0 -79.0 -34.0,-290.0 138.0 269.0 265.0 280.0 336.0 354.0 429.0 404.0 353.0 301.0 304.0 201.0 132.0 34.0,-70.0 21.0 90.0 142.0 154.0 158.0 113.0 60.0 99.0 122.0 109.0 90.0 49.0 14.0 -33.0,132 135 135 132 132 108 131 131 131 131 132 129 127 127 126,40 36 34 40 42 48 45 32 45 46 52 50 49 46 48,105 106 114 111 110 111 111 112 98 96 95 92 93 96 95,89 93 86 83 89 83 86 53 37 70 63 71 65 79 81,116 121 115 58 87 57 27 30 54 52 40 46 31 42 36,6→0
62,3004.0 1207.0 55.0 -286.0 -417.0 -173.0 70.0 68.0 -490.0 -313.0 -239.0 -809.0 -255.0 63.0 -31.0,-2370.0 -1171.0 27.0 177.0 523.0 580.0 483.0 615.0 451.0 282.0 269.0 407.0 883.0 1209.0 2044.0,3473.0 2314.0 1554.0 1127.0 1337.0 1246.0 1277.0 1145.0 152.0 -37.0 -222.0 -535.0 -560.0 -1455.0 -3207.0,-94.0 -9.0 -195.0 -213.0 -210.0 -148.0 -107.0 -129.0 -198.0 -175.0 -151.0 -84.0 -79.0 -34.0 39.0,138.0 269.0 265.0 280.0 336.0 354.0 429.0 404.0 353.0 301.0 304.0 201.0 132.0 34.0 -140.0,21.0 90.0 142.0 154.0 158.0 113.0 60.0 99.0 122.0 109.0 90.0 49.0 14.0 -33.0 -221.0,135 135 132 132 108 131 131 131 131 132 129 127 127 126 107,36 34 40 42 48 45 32 45 46 52 50 49 46 48 50,106 114 111 110 111 111 112 98 96 95 92 93 96 95 84,93 86 83 89 83 86 53 37 70 63 71 65 79 81 78,121 115 58 87 57 27 30 54 52 40 46 31 42 36 40,6→0
63,1207.0 55.0 -286.0 -417.0 -173.0 70.0 68.0 -490.0 -313.0 -239.0 -809.0 -255.0 63.0 -31.0 -426.0,-1171.0 27.0 177.0 523.0 580.0 483.0 615.0 451.0 282.0 269.0 407.0 883.0 1209.0 2044.0 3029.0,2314.0 1554.0 1127.0 1337.0 1246.0 1277.0 1145.0 152.0 -37.0 -222.0 -535.0 -560.0 -1455.0 -3207.0 -4564.0,-9.0 -195.0 -213.0 -210.0 -148.0 -107.0 -129.0 -198.0 -175.0 -151.0 -84.0 -79.0 -34.0 39.0 -74.0,269.0 265.0 280.0 336.0 354.0 429.0 404.0 353.0 301.0 304.0 201.0 132.0 34.0 -140.0 -580.0,90.0 142.0 154.0 158.0 113.0 60.0 99.0 122.0 109.0 90.0 49.0 14.0 -33.0 -221.0 -553.0,135 132 132 108 131 131 131 131 132 129 127 127 126 107 116,34 40 42 48 45 32 45 46 52 50 49 46 48 50 44,114 111 110 111 111 112 98 96 95 92 93 96 95 84 82,86 83 89 83 86 53 37 70 63 71 65 79 81 78 66,115 58 87 57 27 30 54 52 40 46 31 42 36 40 39,6→0
64,55.0 -286.0 -417.0 -173.0 70.0 68.0 -490.0 -313.0 -239.0 -809.0 -255.0 63.0 -31.0 -426.0 1896.0,27.0 177.0 523.0 580.0 483.0 615.0 451.0 282.0 269.0 407.0 883.0 1209.0 2044.0 3029.0 2241.0,1554.0 1127.0 1337.0 1246.0 1277.0 1145.0 152.0 -37.0 -222.0 -535.0 -560.0 -1455.0 -3207.0 -4564.0 -5018.0,-195.0 -213.0 -210.0 -148.0 -107.0 -129.0 -198.0 -175.0 -151.0 -84.0 -79.0 -34.0 39.0 -74.0 -15.0,265.0 280.0 336.0 354.0 429.0 404.0 353.0 301.0 304.0 201.0 132.0 34.0 -140.0 -580.0 -1153.0,142.0 154.0 158.0 113.0 60.0 99.0 122.0 109.0 90.0 49.0 14.0 -33.0 -221.0 -553.0 -863.0,132 132 108 131 131 131 131 132 129 127 127 126 107 116 120,40 42 48 45 32 45 46 52 50 49 46 48 50 44 21,111 110 111 111 112 98 96 95 92 93 96 95 84 82 80,83 89 83 86 53 37 70 63 71 65 79 81 78 66 74,58 87 57 27 30 54 52 40 46 31 42 36 40 39 40,6→0
65,10922.0 6267.0 2344.0 2259.0 -203.0 -176.0 -375.0 -344.0 -441.0 -13.0 -339.0 -250.0 -300.0 -270.0 -477.0,-1844.0 6267.0 -5341.0 2259.0 -1941.0 -217.0 403.0 -301.0 -203.0 -126.0 194.0 131.0 12.0 639.0 2365.0,4826.0 6267.0 1256.0 2259.0 749.0 563.0 527.0 229.0 -5.0 271.0 37.0 203.0 164.0 -6.0 -1005.0,-106.0 66.0 94.0 282.0 20.0 143.0 -73.0 -98.0 -57.0 14.0 -5.0 -1.0 62.0 116.0 208.0,-867.0 203.0 182.0 282.0 137.0 164.0 188.0 131.0 87.0 101.0 114.0 90.0 82.0 75.0 10.0,-1022.0 203.0 282.0 282.0 377.0 341.0 231.0 163.0 165.0 161.0 142.0 129.0 157.0 193.0 68.0,106 70 92 92 103 119 101 99 101 96 107 102 102 105 113,33 37 38 33 22 26 36 37 33 34 36 34 38 35 35,90 88 90 87 86 83 85 84 84 79 85 86 87 88 90,77 41 64 63 42 67 69 71 73 75 75 75 79 80 80,53 43 47 49 47 48 50 49 49 49 49 48 50 50 52,0→0
66,6267.0 2344.0 2259.0 -203.0 -176.0 -375.0 -344.0 -441.0 -13.0 -339.0 -250.0 -300.0 -270.0 -477.0 -1147.0,6267.0 -5341.0 2259.0 -1941.0 -217.0 403.0 -301.0 -203.0 -126.0 194.0 131.0 12.0 639.0 2365.0 4311.0,6267.0 1256.0 2259.0 749.0 563.0 527.0 229.0 -5.0 271.0 37.0 203.0 164.0 -6.0 -1005.0 -2298.0,66.0 94.0 282.0 20.0 143.0 -73.0 -98.0 -57.0 14.0 -5.0 -1.0 62.0 116.0 208.0 164.0,203.0 182.0 282.0 137.0 164.0 188.0 131.0 87.0 101.0 114.0 90.0 82.0 75.0 10.0 -172.0,203.0 282.0 282.0 377.0 341.0 231.0 163.0 165.0 161.0 142.0 129.0 157.0 193.0 68.0 -434.0,70 92 92 103 119 101 99 101 96 107 102 102 105 113 118,37 38 33 22 26 36 37 33 34 36 34 38 35 35 32,88 90 87 86 83 85 84 84 79 85 86 87 88 90 85,41 64 63 42 67 69 71 73 75 75 75 79 80 80 81,43 47 49 47 48 50 49 49 49 49 48 50 50 52 50,0→0
67,2344.0 2259.0 -203.0 -176.0 -375.0 -344.0 -441.0 -13.0 -339.0 -250.0 -300.0 -270.0 -477.0 -1147.0 -721.0,-5341.0 2259.0 -1941.0 -217.0 403.0 -301.0 -203.0 -126.0 194.0 131.0 12.0 639.0 2365.0 4311.0 3613.0,1256.0 2259.0 749.0 563.0 527.0 229.0 -5.0 271.0 37.0 203.0 164.0 -6.0 -1005.0 -2298.0 -3318.0,94.0 282.0 20.0 143.0 -73.0 -98.0 -57.0 14.0 -5.0 -1.0 62.0 116.0 208.0 164.0 -141.0,182.0 282.0 137.0 164.0 188.0 131.0 87.0 101.0 114.0 90.0 82.0 75.0 10.0 -172.0 -722.0,282.0 282.0 377.0 341.0 231.0 163.0 165.0 161.0 142.0 129.0 157.0 193.0 68.0 -434.0 -931.0,92 92 103 119 101 99 101 96 107 102 102 105 113 118 125,38 33 22 26 36 37 33 34 36 34 38 35 35 32 39,90 87 86 83 85 84 84 79 85 86 87 88 90 85 85,64 63 42 67 69 71 73 75 75 75 79 80 80 81 80,47 49 47 48 50 49 49 49 49 48 50 50 52 50 50,0→0
68,6393.0 3652.0 2947.0 888.0 368.0 -252.0 -68.0 -232.0 -387.0 -522.0 -325.0 -497.0 -452.0 -408.0 -396.0,-2472.0 -7631.0 -6018.0 -2135.0 -1110.0 -509.0 -282.0 62.0 -14.0 -216.0 -11.0 -112.0 -104.0 133.0 844.0,2355.0 -816.0 162.0 -68.0 680.0 293.0 474.0 504.0 -363.0 -141.0 160.0 94.0 173.0 512.0 -518.0,-840.0 -665.0 213.0 282.0 554.0 -88.0 110.0 101.0 132.0 114.0 117.0 92.0 74.0 124.0 68.0,-1086.0 -312.0 129.0 452.0 325.0 206.0 311.0 327.0 269.0 168.0 155.0 111.0 92.0 103.0 39.0,-682.0 -163.0 159.0 258.0 314.0 325.0 254.0 217.0 169.0 168.0 130.0 122.0 113.0 108.0 106.0,145 149 148 136 126 138 134 132 143 140 135 131 130 124 137,70 80 26 65 70 91 95 87 78 86 77 90 84 74 74,141 145 142 141 142 143 143 141 143 138 140 137 137 139 136,100 99 101 100 102 100 100 99 100 103 97 102 101 101 100,92 96 99 103 97 98 99 100 100 101 99 99 97 98 96,1→1
69,3652.0 2947.0 888.0 368.0 -252.0 -68.0 -232.0 -387.0 -522.0 -325.0 -497.0 -452.0 -408.0 -396.0 -973.0,-7631.0 -6018.0 -2135.0 -1110.0 -509.0 -282.0 62.0 -14.0 -216.0 -11.0 -112.0 -104.0 133.0 844.0 2020.0,-816.0 162.0 -68.0 680.0 293.0 474.0 504.0 -363.0 -141.0 160.0 94.0 173.0 512.0 -518.0 -2438.0,-665.0 213.0 282.0 554.0 -88.0 110.0 101.0 132.0 114.0 117.0 92.0 74.0 124.0 68.0 70.0,-312.0 129.0 452.0 325.0 206.0 311.0 327.0 269.0 168.0 155.0 111.0 92.0 103.0 39.0 -156.0,-163.0 159.0 258.0 314.0 325.0 254.0 217.0 169.0 168.0 130.0 122.0 113.0 108.0 106.0 -88.0,149 148 136 126 138 134 132 143 140 135 131 130 124 137 129,80 26 65 70 91 95 87 78 86 77 90 84 74 74 82,145 142 141 142 143 143 141 143 138 140 137 137 139 136 138,99 101 100 102 100 100 99 100 103 97 102 101 101 100 108,96 99 103 97 98 99 100 100 101 99 99 97 98 96 98,1→1
70,2947.0 888.0 368.0 -252.0 -68.0 -232.0 -387.0 -522.0 -325.0 -497.0 -452.0 -408.0 -396.0 -973.0 -1551.0,-6018.0 -2135.0 -1110.0 -509.0 -282.0 62.0 -14.0 -216.0 -11.0 -112.0 -104.0 133.0 844.0 2020.0 3077.0,162.0 -68.0 680.0 293.0 474.0 504.0 -363.0 -141.0 160.0 94.0 173.0 512.0 -518.0 -2438.0 -2771.0,213.0 282.0 554.0 -88.0 110.0 101.0 132.0 114.0 117.0 92.0 74.0 124.0 68.0 70.0 -110.0,129.0 452.0 325.0 206.0 311.0 327.0 269.0 168.0 155.0 111.0 92.0 103.0 39.0 -156.0 -505.0,159.0 258.0 314.0 325.0 254.0 217.0 169.0 168.0 130.0 122.0 113.0 108.0 106.0 -88.0 -531.0,148 136 126 138 134 132 143 140 135 131 130 124 137 129 132,26 65 70 91 95 87 78 86 77 90 84 74 74 82 77,142 141 142 143 143 141 143 138 140 137 137 139 136 138 139,101 100 102 100 100 99 100 103 97 102 101 101 100 108 102,99 103 97 98 99 100 100 101 99 99 97 98 96 98 101,1→1
71,7142.0 5480.0 670.0 -50.0 -142.0 -757.0 -434.0 -292.0 -273.0 -360.0 -427.0 -369.0 -466.0 -527.0 -645.0,-6144.0 -6164.0 -1534.0 -1230.0 -530.0 -267.0 159.0 -280.0 -274.0 -58.0 -190.0 -370.0 -158.0 153.0 889.0,3213.0 1531.0 1125.0 1212.0 1183.0 518.0 531.0 216.0 306.0 176.0 287.0 256.0 272.0 60.0 -765.0,-422.0 205.0 259.0 60.0 -19.0 -10.0 -62.0 -57.0 74.0 57.0 16.0 48.0 94.0 71.0 93.0,-664.0 207.0 304.0 182.0 220.0 206.0 177.0 168.0 175.0 142.0 119.0 136.0 141.0 135.0 89.0,-459.0 228.0 311.0 305.0 302.0 276.0 238.0 178.0 122.0 107.0 87.0 77.0 87.0 110.0 108.0,112 82 80 93 109 114 123 113 102 100 102 111 112 107 111,77 48 87 84 86 104 97 79 95 107 87 78 90 88 76,144 144 143 146 146 145 144 143 144 145 146 146 145 145 145,74 62 52 42 68 71 75 91 79 79 79 82 88 90 90,56 53 53 53 57 58 58 58 59 61 62 62 61 60 60,2→2
72,5480.0 670.0 -50.0 -142.0 -757.0 -434.0 -292.0 -273.0 -360.0 -427.0 -369.0 -466.0 -527.0 -645.0 -1354.0,-6164.0 -1534.0 -1230.0 -530.0 -267.0 159.0 -280.0 -274.0 -58.0 -190.0 -370.0 -158.0 153.0 889.0 2415.0,1531.0 1125.0 1212.0 1183.0 518.0 531.0 216.0 306.0 176.0 287.0 256.0 272.0 60.0 -765.0 -2654.0,205.0 259.0 60.0 -19.0 -10.0 -62.0 -57.0 74.0 57.0 16.0 48.0 94.0 71.0 93.0 92.0,207.0 304.0 182.0 220.0 206.0 177.0 168.0 175.0 142.0 119.0 136.0 141.0 135.0 89.0 -173.0,228.0 311.0 305.0 302.0 276.0 238.0 178.0 122.0 107.0 87.0 77.0 87.0 110.0 108.0 -120.0,82 80 93 109 114 123 113 102 100 102 111 112 107 111 108,48 87 84 86 104 97 79 95 107 87 78 90 88 76 100,144 143 146 146 145 144 143 144 145 146 146 145 145 145 146,62 52 42 68 71 75 91 79 79 79 82 88 90 90 88,53 53 53 57 58 58 58 59 61 62 62 61 60 60 58,2→2
73,670.0 -50.0 -142.0 -757.0 -434.0 -292.0 -273.0 -360.0 -427.0 -369.0 -466.0 -527.0 -645.0 -1354.0 -1265.0,-1534.0 -1230.0 -530.0 -267.0 159.0 -280.0 -274.0 -58.0 -190.0 -370.0 -158.0 153.0 889.0 2415.0 3846.0,1125.0 1212.0 1183.0 518.0 531.0 216.0 306.0 176.0 287.0 256.0 272.0 60.0 -765.0 -2654.0 -3093.0,259.0 60.0 -19.0 -10.0 -62.0 -57.0 74.0 57.0 16.0 48.0 94.0 71.0 93.0 92.0 -87.0,304.0 182.0 220.0 206.0 177.0 168.0 175.0 142.0 119.0 136.0 141.0 135.0 89.0 -173.0 -635.0,311.0 305.0 302.0 276.0 238.0 178.0 122.0 107.0 87.0 77.0 87.0 110.0 108.0 -120.0 -592.0,80 93 109 114 123 113 102 100 102 111 112 107 111 108 102,87 84 86 104 97 79 95 107 87 78 90 88 76 100 92,143 146 146 145 144 143 144 145 146 146 145 145 145 146 146,52 42 68 71 75 91 79 79 79 82 88 90 90 88 58,53 53 57 58 58 58 59 61 62 62 61 60 60 58 55,2→2
74,9504.0 3385.0 1386.0 611.0 167.0 854.0 -265.0 -176.0 -532.0 -309.0 -371.0 -508.0 -507.0 -891.0 -874.0,-8901.0 -8200.0 -1956.0 -1397.0 -1633.0 -420.0 201.0 123.0 -226.0 -318.0 -222.0 -82.0 134.0 563.0 2794.0,5177.0 -371.0 -606.0 895.0 783.0 458.0 162.0 107.0 39.0 194.0 273.0 144.0 69.0 -471.0 -1676.0,-854.0 561.0 176.0 -55.0 81.0 194.0 69.0 12.0 34.0 18.0 93.0 139.0 117.0 137.0 142.0,-698.0 420.0 210.0 100.0 236.0 185.0 210.0 215.0 185.0 137.0 133.0 129.0 125.0 54.0 -48.0,-211.0 36.0 296.0 238.0 302.0 336.0 257.0 213.0 214.0 253.0 227.0 196.0 180.0 148.0 -93.0,149 143 134 135 138 132 145 142 140 137 132 136 139 119 126,30 31 34 28 36 37 39 29 41 39 37 38 35 39 41,89 91 95 93 87 92 89 88 90 91 91 91 90 89 87,63 67 77 69 77 77 79 81 80 80 77 83 83 83 82,50 49 51 54 51 53 54 52 54 53 52 51 51 48 47,3→3
75,3385.0 1386.0 611.0 167.0 854.0 -265.0 -176.0 -532.0 -309.0 -371.0 -508.0 -507.0 -891.0 -874.0 -1327.0,-8200.0 -1956.0 -1397.0 -1633.0 -420.0 201.0 123.0 -226.0 -318.0 -222.0 -82.0 134.0 563.0 2794.0 4351.0,-371.0 -606.0 895.0 783.0 458.0 162.0 107.0 39.0 194.0 273.0 144.0 69.0 -471.0 -1676.0 -3169.0,561.0 176.0 -55.0 81.0 194.0 69.0 12.0 34.0 18.0 93.0 139.0 117.0 137.0 142.0 -12.0,420.0 210.0 100.0 236.0 185.0 210.0 215.0 185.0 137.0 133.0 129.0 125.0 54.0 -48.0 -322.0,36.0 296.0 238.0 302.0 336.0 257.0 213.0 214.0 253.0 227.0 196.0 180.0 148.0 -93.0 -623.0,143 134 135 138 132 145 142 140 137 132 136 139 119 126 122,31 34 28 36 37 39 29 41 39 37 38 35 39 41 35,91 95 93 87 92 89 88 90 91 91 91 90 89 87 85,67 77 69 77 77 79 81 80 80 77 83 83 83 82 81,49 51 54 51 53 54 52 54 53 52 51 51 48 47 54,3→3
76,10188.0 1859.0 -121.0 -240.0 -361.0 -727.0 -466.0 -492.0 -521.0 -334.0 -310.0 -76.0 -522.0 -83.0 -165.0,-9538.0 -4037.0 -1000.0 -1879.0 -639.0 11.0 -463.0 -752.0 -448.0 -542.0 -608.0 -622.0 -319.0 214.0 1432.0,6928.0 1643.0 1004.0 686.0 787.0 202.0 153.0 172.0 155.0 365.0 420.0 567.0 510.0 416.0 -902.0,18.0 317.0 -219.0 -162.0 -10.0 -152.0 -156.0 -80.0 -49.0 -60.0 -35.0 -20.0 38.0 111.0 278.0,-147.0 307.0 200.0 141.0 162.0 144.0 94.0 66.0 57.0 41.0 45.0 103.0 112.0 110.0 83.0,-47.0 230.0 284.0 251.0 247.0 183.0 112.0 150.0 129.0 128.0 140.0 173.0 216.0 264.0 256.0,74 95 92 102 98 103 115 127 134 120 139 140 139 137 135,42 44 30 45 34 37 41 42 39 38 44 43 41 45 35,91 93 89 86 86 87 80 84 83 85 84 85 85 84 84,63 58 63 65 66 67 65 67 67 64 67 66 67 68 68,37 45 46 47 47 47 47 47 47 48 47 47 48 47 46,0→3
77,1859.0 -121.0 -240.0 -361.0 -727.0 -466.0 -492.0 -521.0 -334.0 -310.0 -76.0 -522.0 -83.0 -165.0 -755.0,-4037.0 -1000.0 -1879.0 -639.0 11.0 -463.0 -752.0 -448.0 -542.0 -608.0 -622.0 -319.0 214.0 1432.0 4129.0,1643.0 1004.0 686.0 787.0 202.0 153.0 172.0 155.0 365.0 420.0 567.0 510.0 416.0 -902.0 -2658.0,317.0 -219.0 -162.0 -10.0 -152.0 -156.0 -80.0 -49.0 -60.0 -35.0 -20.0 38.0 111.0 278.0 180.0,307.0 200.0 141.0 162.0 144.0 94.0 66.0 57.0 41.0 45.0 103.0 112.0 110.0 83.0 -34.0,230.0 284.0 251.0 247.0 183.0 112.0 150.0 129.0 128.0 140.0 173.0 216.0 264.0 256.0 -71.0,95 92 102 98 103 115 127 134 120 139 140 139 137 135 136,44 30 45 34 37 41 42 39 38 44 43 41 45 35 42,93 89 86 86 87 80 84 83 85 84 85 85 84 84 78,58 63 65 66 67 65 67 67 64 67 66 67 68 68 67,45 46 47 47 47 47 47 47 48 47 47 48 47 46 43,0→3
78,-121.0 -240.0 -361.0 -727.0 -466.0 -492.0 -521.0 -334.0 -310.0 -76.0 -522.0 -83.0 -165.0 -755.0 -1361.0,-1000.0 -1879.0 -639.0 11.0 -463.0 -752.0 -448.0 -542.0 -608.0 -622.0 -319.0 214.0 1432.0 4129.0 4106.0,1004.0 686.0 787.0 202.0 153.0 172.0 155.0 365.0 420.0 567.0 510.0 416.0 -902.0 -2658.0 -3619.0,-219.0 -162.0 -10.0 -152.0 -156.0 -80.0 -49.0 -60.0 -35.0 -20.0 38.0 111.0 278.0 180.0 12.0,200.0 141.0 162.0 144.0 94.0 66.0 57.0 41.0 45.0 103.0 112.0 110.0 83.0 -34.0 -434.0,284.0 251.0 247.0 183.0 112.0 150.0 129.0 128.0 140.0 173.0 216.0 264.0 256.0 -71.0 -673.0,92 102 98 103 115 127 134 120 139 140 139 137 135 136 127,30 45 34 37 41 42 39 38 44 43 41 45 35 42 38,89 86 86 87 80 84 83 85 84 85 85 84 84 78 76,63 65 66 67 65 67 67 64 67 66 67 68 68 67 67,46 47 47 47 47 47 47 48 47 47 48 47 46 43 43,0→3
79,11104.0 4857.0 1403.0 557.0 -95.0 118.0 -389.0 -305.0 -320.0 -449.0 -823.0 -562.0 -497.0 -579.0 -574.0,-6955.0 -10961.0 -1724.0 -1633.0 -2048.0 -799.0 20.0 -441.0 -367.0 62.0 -65.0 177.0 616.0 1399.0 2497.0,4080.0 262.0 -2277.0 -907.0 679.0 876.0 1073.0 3.0 -33.0 -158.0 -3.0 115.0 168.0 -1069.0 -2334.0,-882.0 404.0 117.0 -23.0 -31.0 138.0 127.0 275.0 292.0 188.0 109.0 191.0 120.0 84.0 -67.0,-746.0 328.0 314.0 164.0 201.0 150.0 176.0 210.0 253.0 150.0 107.0 109.0 107.0 9.0 -192.0,-502.0 88.0 340.0 261.0 378.0 383.0 340.0 277.0 256.0 269.0 252.0 235.0 216.0 127.0 -121.0,150 147 144 142 142 132 141 143 137 138 136 130 128 127 128,44 0 34 1 45 33 33 34 45 28 49 63 66 76 79,81 87 91 92 81 87 96 92 100 114 125 124 130 131 130,65 54 58 65 68 66 66 66 54 48 79 100 99 102 100,45 41 43 44 46 48 47 51 64 81 99 101 98 97 97,3→1
80,4857.0 1403.0 557.0 -95.0 118.0 -389.0 -305.0 -320.0 -449.0 -823.0 -562.0 -497.0 -579.0 -574.0 -468.0,-10961.0 -1724.0 -1633.0 -2048.0 -799.0 20.0 -441.0 -367.0 62.0 -65.0 177.0 616.0 1399.0 2497.0 2966.0,262.0 -2277.0 -907.0 679.0 876.0 1073.0 3.0 -33.0 -158.0 -3.0 115.0 168.0 -1069.0 -2334.0 -2907.0,404.0 117.0 -23.0 -31.0 138.0 127.0 275.0 292.0 188.0 109.0 191.0 120.0 84.0 -67.0 -276.0,328.0 314.0 164.0 201.0 150.0 176.0 210.0 253.0 150.0 107.0 109.0 107.0 9.0 -192.0 -467.0,88.0 340.0 261.0 378.0 383.0 340.0 277.0 256.0 269.0 252.0 235.0 216.0 127.0 -121.0 -623.0,147 144 142 142 132 141 143 137 138 136 130 128 127 128 132,0 34 1 45 33 33 34 45 28 49 63 66 76 79 85,87 91 92 81 87 96 92 100 114 125 124 130 131 130 135,54 58 65 68 66 66 66 54 48 79 100 99 102 100 101,41 43 44 46 48 47 51 64 81 99 101 98 97 97 100,3→1
81,7474.0 3566.0 992.0 -168.0 265.0 -447.0 -292.0 84.0 -95.0 -161.0 -377.0 -311.0 -634.0 -528.0 -626.0,-6708.0 -8497.0 -2358.0 -789.0 -830.0 531.0 -556.0 -154.0 -112.0 -396.0 -159.0 -78.0 24.0 125.0 1193.0,1375.0 203.0 -678.0 994.0 2429.0 352.0 819.0 1152.0 64.0 506.0 333.0 685.0 29.0 -148.0 -604.0,-794.0 -221.0 401.0 401.0 247.0 -181.0 70.0 92.0 95.0 68.0 5.0 14.0 52.0 84.0 12.0,-1076.0 -33.0 240.0 327.0 720.0 186.0 79.0 357.0 351.0 280.0 259.0 218.0 215.0 137.0 47.0,-374.0 160.0 246.0 244.0 54.0 236.0 255.0 171.0 199.0 196.0 208.0 192.0 163.0 169.0 97.0,146 147 147 138 147 148 144 147 146 137 141 138 139 128 135,75 67 21 27 76 87 65 40 62 72 75 61 43 33 28,143 142 128 137 140 130 132 123 126 124 120 113 104 93 85,106 102 105 105 92 82 94 96 95 90 94 89 87 48 66,106 107 98 106 103 93 94 89 74 75 71 71 66 63 55,1→3
82,3566.0 992.0 -168.0 265.0 -447.0 -292.0 84.0 -95.0 -161.0 -377.0 -311.0 -634.0 -528.0 -626.0 -1154.0,-8497.0 -2358.0 -789.0 -830.0 531.0 -556.0 -154.0 -112.0 -396.0 -159.0 -78.0 24.0 125.0 1193.0 3285.0,203.0 -678.0 994.0 2429.0 352.0 819.0 1152.0 64.0 506.0 333.0 685.0 29.0 -148.0 -604.0 -2617.0,-221.0 401.0 401.0 247.0 -181.0 70.0 92.0 95.0 68.0 5.0 14.0 52.0 84.0 12.0 -146.0,-33.0 240.0 327.0 720.0 186.0 79.0 357.0 351.0 280.0 259.0 218.0 215.0 137.0 47.0 -115.0,160.0 246.0 244.0 54.0 236.0 255.0 171.0 199.0 196.0 208.0 192.0 163.0 169.0 97.0 -260.0,147 147 138 147 148 144 147 146 137 141 138 139 128 135 130,67 21 27 76 87 65 40 62 72 75 61 43 33 28 24,142 128 137 140 130 132 123 126 124 120 113 104 93 85 79,102 105 105 92 82 94 96 95 90 94 89 87 48 66 0,107 98 106 103 93 94 89 74 75 71 71 66 63 55 44,1→3
83,992.0 -168.0 265.0 -447.0 -292.0 84.0 -95.0 -161.0 -377.0 -311.0 -634.0 -528.0 -626.0 -1154.0 -658.0,-2358.0 -789.0 -830.0 531.0 -556.0 -154.0 -112.0 -396.0 -159.0 -78.0 24.0 125.0 1193.0 3285.0 4374.0,-678.0 994.0 2429.0 352.0 819.0 1152.0 64.0 506.0 333.0 685.0 29.0 -148.0 -604.0 -2617.0 -5223.0,401.0 401.0 247.0 -181.0 70.0 92.0 95.0 68.0 5.0 14.0 52.0 84.0 12.0 -146.0 -77.0,240.0 327.0 720.0 186.0 79.0 357.0 351.0 280.0 259.0 218.0 215.0 137.0 47.0 -115.0 -530.0,246.0 244.0 54.0 236.0 255.0 171.0 199.0 196.0 208.0 192.0 163.0 169.0 97.0 -260.0 -852.0,147 138 147 148 144 147 146 137 141 138 139 128 135 130 129,21 27 76 87 65 40 62 72 75 61 43 33 28 24 29,128 137 140 130 132 123 126 124 120 113 104 93 85 79 76,105 105 92 82 94 96 95 90 94 89 87 48 66 0 47,98 106 103 93 94 89 74 75 71 71 66 63 55 44 31,1→3
84,9088.0 6236.0 1673.0 317.0 -5.0 -118.0 -98.0 42.0 -318.0 -117.0 -73.0 -95.0 -541.0 -676.0 -752.0,-2430.0 -9650.0 -2801.0 3228.0 -1638.0 -1198.0 -755.0 -624.0 -1192.0 -1191.0 -524.0 -459.0 -377.0 15.0 320.0,562.0 3068.0 153.0 288.0 845.0 624.0 -363.0 476.0 48.0 186.0 429.0 338.0 -112.0 131.0 -115.0,-651.0 -355.0 126.0 264.0 -49.0 31.0 115.0 39.0 31.0 91.0 92.0 151.0 187.0 154.0 182.0,-1086.0 259.0 418.0 98.0 73.0 142.0 109.0 133.0 155.0 99.0 161.0 211.0 237.0 176.0 155.0,-677.0 -87.0 259.0 128.0 182.0 229.0 208.0 105.0 161.0 256.0 253.0 249.0 281.0 288.0 252.0,151 151 149 146 130 145 142 145 146 142 132 89 117 125 115,35 44 28 20 43 44 42 35 31 47 43 44 35 50 54,82 89 92 91 87 92 94 91 97 102 109 119 128 134 134,71 65 70 71 71 61 62 70 73 77 73 66 73 67 76,40 46 46 41 51 50 50 51 47 51 53 54 55 53 57,3→2
85,6236.0 1673.0 317.0 -5.0 -118.0 -98.0 42.0 -318.0 -117.0 -73.0 -95.0 -541.0 -676.0 -752.0 -785.0,-9650.0 -2801.0 3228.0 -1638.0 -1198.0 -755.0 -624.0 -1192.0 -1191.0 -524.0 -459.0 -377.0 15.0 320.0 1799.0,3068.0 153.0 288.0 845.0 624.0 -363.0 476.0 48.0 186.0 429.0 338.0 -112.0 131.0 -115.0 -1130.0,-355.0 126.0 264.0 -49.0 31.0 115.0 39.0 31.0 91.0 92.0 151.0 187.0 154.0 182.0 149.0,259.0 418.0 98.0 73.0 142.0 109.0 133.0 155.0 99.0 161.0 211.0 237.0 176.0 155.0 77.0,-87.0 259.0 128.0 182.0 229.0 208.0 105.0 161.0 256.0 253.0 249.0 281.0 288.0 252.0 129.0,151 149 146 130 145 142 145 146 142 132 89 117 125 115 124,44 28 20 43 44 42 35 31 47 43 44 35 50 54 56,89 92 91 87 92 94 91 97 102 109 119 128 134 134 136,65 70 71 71 61 62 70 73 77 73 66 73 67 76 68,46 46 41 51 50 50 51 47 51 53 54 55 53 57 51,3→2
86,1673.0 317.0 -5.0 -118.0 -98.0 42.0 -318.0 -117.0 -73.0 -95.0 -541.0 -676.0 -752.0 -785.0 -1418.0,-2801.0 3228.0 -1638.0 -1198.0 -755.0 -624.0 -1192.0 -1191.0 -524.0 -459.0 -377.0 15.0 320.0 1799.0 3559.0,153.0 288.0 845.0 624.0 -363.0 476.0 48.0 186.0 429.0 338.0 -112.0 131.0 -115.0 -1130.0 -2639.0,126.0 264.0 -49.0 31.0 115.0 39.0 31.0 91.0 92.0 151.0 187.0 154.0 182.0 149.0 37.0,418.0 98.0 73.0 142.0 109.0 133.0 155.0 99.0 161.0 211.0 237.0 176.0 155.0 77.0 -206.0,259.0 128.0 182.0 229.0 208.0 105.0 161.0 256.0 253.0 249.0 281.0 288.0 252.0 129.0 -295.0,149 146 130 145 142 145 146 142 132 89 117 125 115 124 114,28 20 43 44 42 35 31 47 43 44 35 50 54 56 72,92 91 87 92 94 91 97 102 109 119 128 134 134 136 141,70 71 71 61 62 70 73 77 73 66 73 67 76 68 67,46 41 51 50 50 51 47 51 53 54 55 53 57 51 48,3→2
87,317.0 -5.0 -118.0 -98.0 42.0 -318.0 -117.0 -73.0 -95.0 -541.0 -676.0 -752.0 -785.0 -1418.0 -272.0,3228.0 -1638.0 -1198.0 -755.0 -624.0 -1192.0 -1191.0 -524.0 -459.0 -377.0 15.0 320.0 1799.0 3559.0 3766.0,288.0 845.0 624.0 -363.0 476.0 48.0 186.0 429.0 338.0 -112.0 131.0 -115.0 -1130.0 -2639.0 -3509.0,264.0 -49.0 31.0 115.0 39.0 31.0 91.0 92.0 151.0 187.0 154.0 182.0 149.0 37.0 -137.0,98.0 73.0 142.0 109.0 133.0 155.0 99.0 161.0 211.0 237.0 176.0 155.0 77.0 -206.0 -716.0,128.0 182.0 229.0 208.0 105.0 161.0 256.0 253.0 249.0 281.0 288.0 252.0 129.0 -295.0 -745.0,146 130 145 142 145 146 142 132 89 117 125 115 124 114 83,20 43 44 42 35 31 47 43 44 35 50 54 56 72 87,91 87 92 94 91 97 102 109 119 128 134 134 136 141 149,71 71 61 62 70 73 77 73 66 73 67 76 68 67 64,41 51 50 50 51 47 51 53 54 55 53 57 51 48 44,3→2
88,7169.0 5653.0 2214.0 169.0 24.0 -48.0 30.0 82.0 32.0 -79.0 -89.0 -219.0 -299.0 -552.0 -859.0,-4088.0 -5762.0 -2827.0 -1509.0 -1005.0 -928.0 -642.0 -660.0 -727.0 -329.0 -608.0 -661.0 -451.0 59.0 1451.0,369.0 2844.0 3384.0 1414.0 815.0 801.0 547.0 514.0 554.0 500.0 549.0 140.0 270.0 -74.0 -730.0,-273.0 161.0 225.0 -30.0 -118.0 -105.0 -30.0 -38.0 -33.0 -108.0 -137.0 -18.0 64.0 76.0 60.0,-1164.0 -145.0 372.0 278.0 202.0 186.0 230.0 236.0 236.0 209.0 217.0 222.0 211.0 151.0 57.0,-582.0 6.0 65.0 162.0 206.0 181.0 168.0 184.0 195.0 227.0 246.0 240.0 222.0 211.0 85.0,112 96 100 99 110 102 121 123 117 117 111 113 118 135 135,104 104 54 76 71 69 85 80 90 85 82 66 54 53 44,148 146 145 143 146 147 144 144 141 138 135 123 110 103 91,85 76 85 93 72 94 88 89 82 89 93 84 75 89 91,55 48 51 54 52 54 58 60 64 66 65 65 67 65 64,2→3
89,5653.0 2214.0 169.0 24.0 -48.0 30.0 82.0 32.0 -79.0 -89.0 -219.0 -299.0 -552.0 -859.0 -801.0,-5762.0 -2827.0 -1509.0 -1005.0 -928.0 -642.0 -660.0 -727.0 -329.0 -608.0 -661.0 -451.0 59.0 1451.0 3090.0,2844.0 3384.0 1414.0 815.0 801.0 547.0 514.0 554.0 500.0 549.0 140.0 270.0 -74.0 -730.0 -1296.0,161.0 225.0 -30.0 -118.0 -105.0 -30.0 -38.0 -33.0 -108.0 -137.0 -18.0 64.0 76.0 60.0 71.0,-145.0 372.0 278.0 202.0 186.0 230.0 236.0 236.0 209.0 217.0 222.0 211.0 151.0 57.0 -88.0,6.0 65.0 162.0 206.0 181.0 168.0 184.0 195.0 227.0 246.0 240.0 222.0 211.0 85.0 -177.0,96 100 99 110 102 121 123 117 117 111 113 118 135 135 136,104 54 76 71 69 85 80 90 85 82 66 54 53 44 41,146 145 143 146 147 144 144 141 138 135 123 110 103 91 84,76 85 93 72 94 88 89 82 89 93 84 75 89 91 84,48 51 54 52 54 58 60 64 66 65 65 67 65 64 54,2→3
90,2214.0 169.0 24.0 -48.0 30.0 82.0 32.0 -79.0 -89.0 -219.0 -299.0 -552.0 -859.0 -801.0 -514.0,-2827.0 -1509.0 -1005.0 -928.0 -642.0 -660.0 -727.0 -329.0 -608.0 -661.0 -451.0 59.0 1451.0 3090.0 3418.0,3384.0 1414.0 815.0 801.0 547.0 514.0 554.0 500.0 549.0 140.0 270.0 -74.0 -730.0 -1296.0 -2830.0,225.0 -30.0 -118.0 -105.0 -30.0 -38.0 -33.0 -108.0 -137.0 -18.0 64.0 76.0 60.0 71.0 129.0,372.0 278.0 202.0 186.0 230.0 236.0 236.0 209.0 217.0 222.0 211.0 151.0 57.0 -88.0 -375.0,65.0 162.0 206.0 181.0 168.0 184.0 195.0 227.0 246.0 240.0 222.0 211.0 85.0 -177.0 -564.0,100 99 110 102 121 123 117 117 111 113 118 135 135 136 130,54 76 71 69 85 80 90 85 82 66 54 53 44 41 42,145 143 146 147 144 144 141 138 135 123 110 103 91 84 77,85 93 72 94 88 89 82 89 93 84 75 89 91 84 81,51 54 52 54 58 60 64 66 65 65 67 65 64 54 49,2→3
91,169.0 24.0 -48.0 30.0 82.0 32.0 -79.0 -89.0 -219.0 -299.0 -552.0 -859.0 -801.0 -514.0 985.0,-1509.0 -1005.0 -928.0 -642.0 -660.0 -727.0 -329.0 -608.0 -661.0 -451.0 59.0 1451.0 3090.0 3418.0 2855.0,1414.0 815.0 801.0 547.0 514.0 554.0 500.0 549.0 140.0 270.0 -74.0 -730.0 -1296.0 -2830.0 -2773.0,-30.0 -118.0 -105.0 -30.0 -38.0 -33.0 -108.0 -137.0 -18.0 64.0 76.0 60.0 71.0 129.0 -2.0,278.0 202.0 186.0 230.0 236.0 236.0 209.0 217.0 222.0 211.0 151.0 57.0 -88.0 -375.0 -825.0,162.0 206.0 181.0 168.0 184.0 195.0 227.0 246.0 240.0 222.0 211.0 85.0 -177.0 -564.0 -894.0,99 110 102 121 123 117 117 111 113 118 135 135 136 130 137,76 71 69 85 80 90 85 82 66 54 53 44 41 42 40,143 146 147 144 144 141 138 135 123 110 103 91 84 77 75,93 72 94 88 89 82 89 93 84 75 89 91 84 81 85,54 52 54 58 60 64 66 65 65 67 65 64 54 49 47,2→3
92,8521.0 5354.0 769.0 -49.0 490.0 325.0 -57.0 155.0 390.0 -68.0 -724.0 -477.0 -457.0 -521.0 -887.0,-5588.0 -9083.0 -1838.0 -1207.0 -1731.0 -1452.0 -1122.0 -604.0 -369.0 -52.0 653.0 811.0 901.0 1403.0 3205.0,1964.0 199.0 -2272.0 184.0 1304.0 1157.0 -376.0 645.0 515.0 -549.0 -242.0 45.0 -327.0 -1033.0 -2160.0,-677.0 221.0 428.0 -107.0 -177.0 112.0 165.0 216.0 163.0 248.0 140.0 63.0 38.0 14.0 -13.0,-864.0 330.0 261.0 128.0 91.0 172.0 220.0 299.0 322.0 301.0 213.0 139.0 102.0 2.0 -164.0,-526.0 39.0 290.0 219.0 204.0 261.0 336.0 340.0 382.0 378.0 315.0 158.0 64.0 -27.0 -333.0,151 146 145 146 134 142 142 142 139 134 121 118 99 131 120,42 0 24 20 39 40 44 47 42 41 37 45 46 42 48,88 97 97 93 87 96 94 87 87 91 87 86 87 87 83,96 64 89 94 91 93 93 93 90 91 86 81 87 94 87,50 51 50 52 52 55 58 52 56 48 56 56 57 56 50,3→0
93,5354.0 769.0 -49.0 490.0 325.0 -57.0 155.0 390.0 -68.0 -724.0 -477.0 -457.0 -521.0 -887.0 212.0,-9083.0 -1838.0 -1207.0 -1731.0 -1452.0 -1122.0 -604.0 -369.0 -52.0 653.0 811.0 901.0 1403.0 3205.0 3458.0,199.0 -2272.0 184.0 1304.0 1157.0 -376.0 645.0 515.0 -549.0 -242.0 45.0 -327.0 -1033.0 -2160.0 -3942.0,221.0 428.0 -107.0 -177.0 112.0 165.0 216.0 163.0 248.0 140.0 63.0 38.0 14.0 -13.0 -67.0,330.0 261.0 128.0 91.0 172.0 220.0 299.0 322.0 301.0 213.0 139.0 102.0 2.0 -164.0 -552.0,39.0 290.0 219.0 204.0 261.0 336.0 340.0 382.0 378.0 315.0 158.0 64.0 -27.0 -333.0 -750.0,146 145 146 134 142 142 142 139 134 121 118 99 131 120 103,0 24 20 39 40 44 47 42 41 37 45 46 42 48 39,97 97 93 87 96 94 87 87 91 87 86 87 87 83 77,64 89 94 91 93 93 93 90 91 86 81 87 94 87 80,51 50 52 52 55 58 52 56 48 56 56 57 56 50 39,3→0
94,8878.0 8223.0 1094.0 -114.0 -139.0 175.0 -39.0 -243.0 -209.0 -404.0 -335.0 -455.0 -479.0 -797.0 -1286.0,-992.0 -6682.0 -2909.0 -510.0 -1699.0 -1189.0 -605.0 -917.0 -916.0 -440.0 -250.0 171.0 293.0 939.0 2507.0,1943.0 5104.0 1918.0 698.0 973.0 1222.0 538.0 -43.0 51.0 -97.0 -38.0 34.0 -159.0 -1175.0 -3256.0,-184.0 247.0 585.0 -147.0 -286.0 -26.0 48.0 -33.0 62.0 81.0 182.0 128.0 95.0 111.0 8.0,-1268.0 184.0 394.0 306.0 184.0 236.0 322.0 302.0 266.0 230.0 186.0 213.0 173.0 66.0 -250.0,-722.0 -37.0 123.0 161.0 214.0 244.0 229.0 236.0 250.0 275.0 242.0 212.0 194.0 96.0 -204.0,74 77 91 82 111 111 116 123 123 124 118 110 106 68 60,31 38 31 26 19 42 49 48 48 41 52 51 49 65 63,77 88 91 90 86 89 93 93 97 93 94 91 87 86 81,85 87 85 85 72 87 83 84 74 73 82 82 87 84 73,45 44 44 48 52 49 51 52 50 57 54 56 55 49 45,0→4
95,8223.0 1094.0 -114.0 -139.0 175.0 -39.0 -243.0 -209.0 -404.0 -335.0 -455.0 -479.0 -797.0 -1286.0 -33.0,-6682.0 -2909.0 -510.0 -1699.0 -1189.0 -605.0 -917.0 -916.0 -440.0 -250.0 171.0 293.0 939.0 2507.0 2580.0,5104.0 1918.0 698.0 973.0 1222.0 538.0 -43.0 51.0 -97.0 -38.0 34.0 -159.0 -1175.0 -3256.0 -5750.0,247.0 585.0 -147.0 -286.0 -26.0 48.0 -33.0 62.0 81.0 182.0 128.0 95.0 111.0 8.0 56.0,184.0 394.0 306.0 184.0 236.0 322.0 302.0 266.0 230.0 186.0 213.0 173.0 66.0 -250.0 -967.0,-37.0 123.0 161.0 214.0 244.0 229.0 236.0 250.0 275.0 242.0 212.0 194.0 96.0 -204.0 -495.0,77 91 82 111 111 116 123 123 124 118 110 106 68 60 69,38 31 26 19 42 49 48 48 41 52 51 49 65 63 40,88 91 90 86 89 93 93 97 93 94 91 87 86 81 74,87 85 85 72 87 83 84 74 73 82 82 87 84 73 82,44 44 48 52 49 51 52 50 57 54 56 55 49 45 44,0→4
96,6965.0 4890.0 2397.0 1224.0 757.0 443.0 375.0 6.0 -136.0 -348.0 -831.0 -578.0 -625.0 -332.0 -462.0,-1185.0 301.0 -118.0 -94.0 -103.0 -135.0 -118.0 -484.0 41.0 -537.0 1.0 265.0 412.0 350.0 1013.0,4235.0 6643.0 3313.0 1947.0 1433.0 924.0 709.0 314.0 -340.0 -785.0 -198.0 646.0 386.0 32.0 -854.0,350.0 234.0 -93.0 -291.0 -374.0 -380.0 -210.0 132.0 69.0 135.0 166.0 27.0 -40.0 5.0 -1.0,-1059.0 -5.0 429.0 444.0 467.0 472.0 458.0 403.0 358.0 365.0 223.0 162.0 141.0 130.0 52.0,-16.0 -120.0 -24.0 94.0 185.0 225.0 204.0 185.0 220.0 169.0 108.0 59.0 18.0 8.0 1.0,82 78 74 85 102 111 120 107 107 126 111 113 114 115 117,68 50 67 46 61 45 64 66 59 62 70 76 83 82 85,85 90 90 91 89 93 98 106 110 110 128 129 131 132 132,78 69 73 77 77 70 79 79 47 50 0 78 94 98 96,46 49 49 52 52 49 53 54 64 77 85 90 92 89 91,4→1
97,4890.0 2397.0 1224.0 757.0 443.0 375.0 6.0 -136.0 -348.0 -831.0 -578.0 -625.0 -332.0 -462.0 -759.0,301.0 -118.0 -94.0 -103.0 -135.0 -118.0 -484.0 41.0 -537.0 1.0 265.0 412.0 350.0 1013.0 1703.0,6643.0 3313.0 1947.0 1433.0 924.0 709.0 314.0 -340.0 -785.0 -198.0 646.0 386.0 32.0 -854.0 -2688.0,234.0 -93.0 -291.0 -374.0 -380.0 -210.0 132.0 69.0 135.0 166.0 27.0 -40.0 5.0 -1.0 -78.0,-5.0 429.0 444.0 467.0 472.0 458.0 403.0 358.0 365.0 223.0 162.0 141.0 130.0 52.0 -217.0,-120.0 -24.0 94.0 185.0 225.0 204.0 185.0 220.0 169.0 108.0 59.0 18.0 8.0 1.0 -155.0,78 74 85 102 111 120 107 107 126 111 113 114 115 117 121,50 67 46 61 45 64 66 59 62 70 76 83 82 85 79,90 90 91 89 93 98 106 110 110 128 129 131 132 132 131,69 73 77 77 70 79 79 47 50 0 78 94 98 96 100,49 49 52 52 49 53 54 64 77 85 90 92 89 91 92,4→1
98,2397.0 1224.0 757.0 443.0 375.0 6.0 -136.0 -348.0 -831.0 -578.0 -625.0 -332.0 -462.0 -759.0 -649.0,-118.0 -94.0 -103.0 -135.0 -118.0 -484.0 41.0 -537.0 1.0 265.0 412.0 350.0 1013.0 1703.0 2021.0,3313.0 1947.0 1433.0 924.0 709.0 314.0 -340.0 -785.0 -198.0 646.0 386.0 32.0 -854.0 -2688.0 -2860.0,-93.0 -291.0 -374.0 -380.0 -210.0 132.0 69.0 135.0 166.0 27.0 -40.0 5.0 -1.0 -78.0 -86.0,429.0 444.0 467.0 472.0 458.0 403.0 358.0 365.0 223.0 162.0 141.0 130.0 52.0 -217.0 -546.0,-24.0 94.0 185.0 225.0 204.0 185.0 220.0 169.0 108.0 59.0 18.0 8.0 1.0 -155.0 -458.0,74 85 102 111 120 107 107 126 111 113 114 115 117 121 124,67 46 61 45 64 66 59 62 70 76 83 82 85 79 79,90 91 89 93 98 106 110 110 128 129 131 132 132 131 134,73 77 77 70 79 79 47 50 0 78 94 98 96 100 102,49 52 52 49 53 54 64 77 85 90 92 89 91 92 94,4→1
99,1224.0 757.0 443.0 375.0 6.0 -136.0 -348.0 -831.0 -578.0 -625.0 -332.0 -462.0 -759.0 -649.0 103.0,-94.0 -103.0 -135.0 -118.0 -484.0 41.0 -537.0 1.0 265.0 412.0 350.0 1013.0 1703.0 2021.0 1140.0,1947.0 1433.0 924.0 709.0 314.0 -340.0 -785.0 -198.0 646.0 386.0 32.0 -854.0 -2688.0 -2860.0 -2333.0,-291.0 -374.0 -380.0 -210.0 132.0 69.0 135.0 166.0 27.0 -40.0 5.0 -1.0 -78.0 -86.0 -194.0,444.0 467.0 472.0 458.0 403.0 358.0 365.0 223.0 162.0 141.0 130.0 52.0 -217.0 -546.0 -887.0,94.0 185.0 225.0 204.0 185.0 220.0 169.0 108.0 59.0 18.0 8.0 1.0 -155.0 -458.0 -681.0,85 102 111 120 107 107 126 111 113 114 115 117 121 124 122,46 61 45 64 66 59 62 70 76 83 82 85 79 79 83,91 89 93 98 106 110 110 128 129 131 132 132 131 134 137,77 77 70 79 79 47 50 0 78 94 98 96 100 102 101,52 52 49 53 54 64 77 85 90 92 89 91 92 94 95,4→1
100,6683.0 3774.0 1638.0 -102.0 -722.0 -241.0 207.0 -108.0 -227.0 -340.0 -246.0 -349.0 -810.0 -1092.0 -1297.0,-6400.0 -6340.0 -3295.0 70.0 -590.0 -563.0 -614.0 -680.0 -502.0 -293.0 -174.0 -119.0 999.0 1948.0 2486.0,969.0 3604.0 1355.0 -628.0 465.0 984.0 100.0 584.0 480.0 241.0 311.0 -115.0 -642.0 -2418.0 -5087.0,-710.0 -153.0 646.0 279.0 -88.0 -132.0 -122.0 41.0 90.0 79.0 92.0 143.0 137.0 120.0 3.0,-1027.0 177.0 423.0 413.0 333.0 167.0 197.0 268.0 276.0 231.0 219.0 212.0 126.0 -33.0 -613.0,-296.0 229.0 268.0 212.0 204.0 187.0 177.0 176.0 227.0 276.0 297.0 270.0 205.0 -10.0 -324.0,127 128 123 117 118 125 124 129 121 119 95 66 82 72 72,96 91 15 77 87 91 88 75 97 97 95 78 70 54 43,149 145 132 125 120 114 115 108 105 100 99 90 83 83 80,103 104 103 96 70 72 63 33 56 57 40 54 36 58 54,107 110 108 89 75 72 71 66 61 58 57 53 48 40 40,1→4
101,6624.0 5463.0 3429.0 1465.0 655.0 50.0 -38.0 307.0 -70.0 -153.0 -191.0 -441.0 -426.0 -504.0 -435.0,-721.0 -1563.0 -1480.0 -763.0 -339.0 -654.0 -640.0 -315.0 32.0 -143.0 -110.0 7.0 72.0 289.0 1000.0,-1283.0 7031.0 4670.0 2477.0 1164.0 994.0 475.0 1163.0 285.0 591.0 322.0 147.0 82.0 100.0 -693.0,82.0 328.0 196.0 -18.0 -310.0 -366.0 -107.0 -65.0 -32.0 19.0 53.0 89.0 54.0 26.0 51.0,-1476.0 -514.0 326.0 473.0 449.0 313.0 256.0 376.0 332.0 309.0 288.0 249.0 199.0 168.0 128.0,-304.0 -46.0 -99.0 21.0 133.0 186.0 201.0 203.0 189.0 191.0 160.0 96.0 65.0 56.0 20.0,81 81 84 93 94 98 109 103 100 119 119 129 114 112 118,43 57 51 45 67 47 67 76 65 72 77 87 87 92 93,89 97 97 98 98 102 106 123 132 130 137 138 139 140 141,66 67 61 64 71 71 73 69 80 75 81 77 70 73 74,49 49 46 49 50 49 52 54 55 42 57 53 56 60 57,4→2
102,5463.0 3429.0 1465.0 655.0 50.0 -38.0 307.0 -70.0 -153.0 -191.0 -441.0 -426.0 -504.0 -435.0 -892.0,-1563.0 -1480.0 -763.0 -339.0 -654.0 -640.0 -315.0 32.0 -143.0 -110.0 7.0 72.0 289.0 1000.0 2081.0,7031.0 4670.0 2477.0 1164.0 994.0 475.0 1163.0 285.0 591.0 322.0 147.0 82.0 100.0 -693.0 -2411.0,328.0 196.0 -18.0 -310.0 -366.0 -107.0 -65.0 -32.0 19.0 53.0 89.0 54.0 26.0 51.0 38.0,-514.0 326.0 473.0 449.0 313.0 256.0 376.0 332.0 309.0 288.0 249.0 199.0 168.0 128.0 -121.0,-46.0 -99.0 21.0 133.0 186.0 201.0 203.0 189.0 191.0 160.0 96.0 65.0 56.0 20.0 -170.0,81 84 93 94 98 109 103 100 119 119 129 114 112 118 115,57 51 45 67 47 67 76 65 72 77 87 87 92 93 88,97 97 98 98 102 106 123 132 130 137 138 139 140 141 141,67 61 64 71 71 73 69 80 75 81 77 70 73 74 76,49 46 49 50 49 52 54 55 42 57 53 56 60 57 56,4→2
103,3429.0 1465.0 655.0 50.0 -38.0 307.0 -70.0 -153.0 -191.0 -441.0 -426.0 -504.0 -435.0 -892.0 -847.0,-1480.0 -763.0 -339.0 -654.0 -640.0 -315.0 32.0 -143.0 -110.0 7.0 72.0 289.0 1000.0 2081.0 2540.0,4670.0 2477.0 1164.0 994.0 475.0 1163.0 285.0 591.0 322.0 147.0 82.0 100.0 -693.0 -2411.0 -3495.0,196.0 -18.0 -310.0 -366.0 -107.0 -65.0 -32.0 19.0 53.0 89.0 54.0 26.0 51.0 38.0 -46.0,326.0 473.0 449.0 313.0 256.0 376.0 332.0 309.0 288.0 249.0 199.0 168.0 128.0 -121.0 -565.0,-99.0 21.0 133.0 186.0 201.0 203.0 189.0 191.0 160.0 96.0 65.0 56.0 20.0 -170.0 -526.0,84 93 94 98 109 103 100 119 119 129 114 112 118 115 99,51 45 67 47 67 76 65 72 77 87 87 92 93 88 99,97 98 98 102 106 123 132 130 137 138 139 140 141 141 145,61 64 71 71 73 69 80 75 81 77 70 73 74 76 70,46 49 50 49 52 54 55 42 57 53 56 60 57 56 50,4→2
104,7486.0 4370.0 1088.0 471.0 3.0 -237.0 -155.0 -144.0 -143.0 -45.0 -297.0 -543.0 -564.0 -1249.0 -1312.0,-5282.0 -4254.0 -1275.0 -1166.0 -948.0 -612.0 -437.0 -517.0 -456.0 -464.0 -146.0 210.0 609.0 1760.0 2870.0,2127.0 2648.0 1650.0 949.0 965.0 865.0 730.0 397.0 404.0 457.0 207.0 -294.0 -577.0 -2850.0 -6047.0,-33.0 293.0 255.0 -116.0 -126.0 -28.0 51.0 63.0 36.0 93.0 68.0 33.0 48.0 141.0 272.0,-650.0 280.0 397.0 323.0 294.0 293.0 326.0 327.0 295.0 269.0 277.0 206.0 106.0 -152.0 -881.0,-235.0 29.0 94.0 199.0 234.0 213.0 150.0 178.0 234.0 251.0 217.0 182.0 113.0 -84.0 -412.0,106 92 93 93 100 108 119 121 108 98 100 96 87 73 79,82 50 37 69 90 78 103 109 101 87 83 81 82 80 50,145 145 144 144 144 136 133 116 104 92 88 84 82 76 72,105 85 96 77 93 84 82 76 87 78 72 66 75 85 87,47 35 42 57 58 57 53 55 57 50 48 47 42 34 41,2→4
105,7097.0 4914.0 2723.0 1137.0 740.0 133.0 -60.0 60.0 253.0 210.0 -579.0 -418.0 -652.0 -836.0 -290.0,-2036.0 174.0 -320.0 -299.0 -530.0 -456.0 -184.0 -221.0 -137.0 -167.0 -32.0 -181.0 10.0 -177.0 744.0,646.0 7430.0 4074.0 2136.0 1606.0 885.0 831.0 532.0 797.0 315.0 23.0 -181.0 -125.0 -641.0 -1223.0,383.0 270.0 -106.0 -209.0 -339.0 -351.0 -281.0 -165.0 -95.0 -115.0 -61.0 54.0 35.0 3.0 94.0,-1322.0 -258.0 332.0 334.0 368.0 338.0 329.0 375.0 414.0 455.0 355.0 263.0 229.0 145.0 7.0,-154.0 -46.0 -6.0 83.0 166.0 240.0 216.0 161.0 119.0 166.0 167.0 117.0 64.0 90.0 163.0,89 81 76 83 105 101 104 122 120 120 111 109 125 129 128,59 54 70 59 66 70 73 45 55 53 49 50 46 43 40,91 96 93 90 92 95 97 100 95 95 93 91 89 91 91,76 73 69 74 76 85 80 79 79 75 77 72 68 75 70,47 51 47 50 50 51 53 51 49 44 52 53 52 53 55,4→0
106,4914.0 2723.0 1137.0 740.0 133.0 -60.0 60.0 253.0 210.0 -579.0 -418.0 -652.0 -836.0 -290.0 -427.0,174.0 -320.0 -299.0 -530.0 -456.0 -184.0 -221.0 -137.0 -167.0 -32.0 -181.0 10.0 -177.0 744.0 2738.0,7430.0 4074.0 2136.0 1606.0 885.0 831.0 532.0 797.0 315.0 23.0 -181.0 -125.0 -641.0 -1223.0 -2708.0,270.0 -106.0 -209.0 -339.0 -351.0 -281.0 -165.0 -95.0 -115.0 -61.0 54.0 35.0 3.0 94.0 195.0,-258.0 332.0 334.0 368.0 338.0 329.0 375.0 414.0 455.0 355.0 263.0 229.0 145.0 7.0 -160.0,-46.0 -6.0 83.0 166.0 240.0 216.0 161.0 119.0 166.0 167.0 117.0 64.0 90.0 163.0 -77.0,81 76 83 105 101 104 122 120 120 111 109 125 129 128 125,54 70 59 66 70 73 45 55 53 49 50 46 43 40 40,96 93 90 92 95 97 100 95 95 93 91 89 91 91 83,73 69 74 76 85 80 79 79 75 77 72 68 75 70 75,51 47 50 50 51 53 51 49 44 52 53 52 53 55 50,4→0
107,2723.0 1137.0 740.0 133.0 -60.0 60.0 253.0 210.0 -579.0 -418.0 -652.0 -836.0 -290.0 -427.0 -1056.0,-320.0 -299.0 -530.0 -456.0 -184.0 -221.0 -137.0 -167.0 -32.0 -181.0 10.0 -177.0 744.0 2738.0 3541.0,4074.0 2136.0 1606.0 885.0 831.0 532.0 797.0 315.0 23.0 -181.0 -125.0 -641.0 -1223.0 -2708.0 -4069.0,-106.0 -209.0 -339.0 -351.0 -281.0 -165.0 -95.0 -115.0 -61.0 54.0 35.0 3.0 94.0 195.0 -64.0,332.0 334.0 368.0 338.0 329.0 375.0 414.0 455.0 355.0 263.0 229.0 145.0 7.0 -160.0 -540.0,-6.0 83.0 166.0 240.0 216.0 161.0 119.0 166.0 167.0 117.0 64.0 90.0 163.0 -77.0 -511.0,76 83 105 101 104 122 120 120 111 109 125 129 128 125 110,70 59 66 70 73 45 55 53 49 50 46 43 40 40 36,93 90 92 95 97 100 95 95 93 91 89 91 91 83 76,69 74 76 85 80 79 79 75 77 72 68 75 70 75 73,47 50 50 51 53 51 49 44 52 53 52 53 55 50 52,4→0
108,9520.0 -68.0 -905.0 -394.0 -170.0 -618.0 -581.0 -391.0 -437.0 -717.0 -520.0 -633.0 -588.0 66.0 1764.0,-7480.0 -728.0 276.0 -631.0 -729.0 618.0 147.0 16.0 145.0 14.0 255.0 395.0 354.0 -299.0 -2716.0,6978.0 2241.0 1073.0 1052.0 771.0 289.0 422.0 661.0 550.0 111.0 471.0 407.0 346.0 414.0 1883.0,369.0 370.0 -122.0 -162.0 101.0 56.0 94.0 163.0 200.0 262.0 262.0 276.0 240.0 186.0 177.0,143.0 435.0 327.0 196.0 140.0 174.0 92.0 58.0 58.0 26.0 6.0 -41.0 -106.0 -216.0 -298.0,139.0 45.0 149.0 84.0 89.0 75.0 25.0 10.0 -19.0 -56.0 -89.0 -128.0 -174.0 -155.0 12.0,91 86 92 105 117 127 129 120 126 127 126 126 135 136 128,34 24 29 23 41 41 40 37 38 36 42 43 44 41 39,94 95 87 90 91 94 90 89 89 92 90 91 91 91 88,67 77 73 78 78 75 83 83 86 89 85 86 93 87 86,41 52 54 53 48 54 53 53 50 54 47 52 50 54 52,0→5
109,3721.0 2939.0 238.0 309.0 -11.0 102.0 -298.0 -786.0 -525.0 -636.0 -1059.0 -970.0 -732.0 -728.0 -479.0,-1980.0 2342.0 6737.0 4094.0 3204.0 576.0 -1481.0 -1354.0 -564.0 -349.0 -538.0 -64.0 346.0 925.0 1526.0,2007.0 1374.0 1383.0 1114.0 1012.0 1829.0 879.0 1276.0 675.0 63.0 -151.0 335.0 268.0 -274.0 -1082.0,-355.0 -291.0 -241.0 116.0 36.0 -107.0 -47.0 106.0 77.0 38.0 152.0 102.0 80.0 89.0 28.0,318.0 353.0 403.0 388.0 359.0 315.0 265.0 147.0 163.0 203.0 140.0 134.0 174.0 134.0 17.0,931.0 979.0 433.0 49.0 -105.0 -222.0 -155.0 -48.0 -61.0 -43.0 5.0 35.0 23.0 -35.0 -106.0,147 147 140 149 129 138 126 107 115 108 112 112 120 119 108,38 41 39 41 36 40 42 27 35 23 39 47 50 58 62,95 95 94 85 83 83 86 96 104 112 114 113 112 131 131,89 92 78 81 73 81 69 78 81 71 39 1 75 90 99,52 52 52 50 52 52 52 57 63 74 85 100 98 91 91,5→1
110,2939.0 238.0 309.0 -11.0 102.0 -298.0 -786.0 -525.0 -636.0 -1059.0 -970.0 -732.0 -728.0 -479.0 -314.0,2342.0 6737.0 4094.0 3204.0 576.0 -1481.0 -1354.0 -564.0 -349.0 -538.0 -64.0 346.0 925.0 1526.0 2025.0,1374.0 1383.0 1114.0 1012.0 1829.0 879.0 1276.0 675.0 63.0 -151.0 335.0 268.0 -274.0 -1082.0 -2097.0,-291.0 -241.0 116.0 36.0 -107.0 -47.0 106.0 77.0 38.0 152.0 102.0 80.0 89.0 28.0 4.0,353.0 403.0 388.0 359.0 315.0 265.0 147.0 163.0 203.0 140.0 134.0 174.0 134.0 17.0 -145.0,979.0 433.0 49.0 -105.0 -222.0 -155.0 -48.0 -61.0 -43.0 5.0 35.0 23.0 -35.0 -106.0 -355.0,147 140 149 129 138 126 107 115 108 112 112 120 119 108 112,41 39 41 36 40 42 27 35 23 39 47 50 58 62 75,95 94 85 83 83 86 96 104 112 114 113 112 131 131 130,92 78 81 73 81 69 78 81 71 39 1 75 90 99 102,52 52 50 52 52 52 57 63 74 85 100 98 91 91 92,5→1
111,238.0 309.0 -11.0 102.0 -298.0 -786.0 -525.0 -636.0 -1059.0 -970.0 -732.0 -728.0 -479.0 -314.0 -402.0,6737.0 4094.0 3204.0 576.0 -1481.0 -1354.0 -564.0 -349.0 -538.0 -64.0 346.0 925.0 1526.0 2025.0 1694.0,1383.0 1114.0 1012.0 1829.0 879.0 1276.0 675.0 63.0 -151.0 335.0 268.0 -274.0 -1082.0 -2097.0 -2585.0,-241.0 116.0 36.0 -107.0 -47.0 106.0 77.0 38.0 152.0 102.0 80.0 89.0 28.0 4.0 -94.0,403.0 388.0 359.0 315.0 265.0 147.0 163.0 203.0 140.0 134.0 174.0 134.0 17.0 -145.0 -497.0,433.0 49.0 -105.0 -222.0 -155.0 -48.0 -61.0 -43.0 5.0 35.0 23.0 -35.0 -106.0 -355.0 -640.0,140 149 129 138 126 107 115 108 112 112 120 119 108 112 113,39 41 36 40 42 27 35 23 39 47 50 58 62 75 79,94 85 83 83 86 96 104 112 114 113 112 131 131 130 133,78 81 73 81 69 78 81 71 39 1 75 90 99 102 101,52 50 52 52 52 57 63 74 85 100 98 91 91 92 97,5→1
112,9387.0 5502.0 963.0 -189.0 -508.0 -1057.0 -450.0 -184.0 -262.0 -436.0 -719.0 -854.0 -1009.0 -696.0 -25.0,-4596.0 -6604.0 -4947.0 1002.0 282.0 -85.0 -601.0 -544.0 -518.0 -339.0 -81.0 434.0 943.0 -13.0 -687.0,-1030.0 -1183.0 2781.0 973.0 2156.0 -14.0 -238.0 396.0 871.0 797.0 295.0 318.0 118.0 -311.0 548.0,-685.0 -403.0 451.0 290.0 -29.0 -91.0 51.0 212.0 324.0 252.0 384.0 258.0 290.0 211.0 291.0,-1310.0 -15.0 278.0 500.0 205.0 120.0 97.0 270.0 262.0 232.0 192.0 88.0 -53.0 -229.0 -312.0,-523.0 -42.0 234.0 99.0 112.0 70.0 44.0 26.0 47.0 78.0 73.0 15.0 -110.0 -170.0 -155.0,144 145 142 138 137 143 141 145 139 134 128 116 121 122 115,105 86 41 46 97 92 43 56 50 42 41 31 37 34 38,147 147 137 140 138 136 134 129 121 115 114 104 98 93 90,106 106 104 107 106 105 102 91 47 2 59 42 76 80 84,106 112 110 108 106 102 102 90 74 33 52 40 37 40 44,1→5
113,5502.0 963.0 -189.0 -508.0 -1057.0 -450.0 -184.0 -262.0 -436.0 -719.0 -854.0 -1009.0 -696.0 -25.0 1501.0,-6604.0 -4947.0 1002.0 282.0 -85.0 -601.0 -544.0 -518.0 -339.0 -81.0 434.0 943.0 -13.0 -687.0 -2000.0,-1183.0 2781.0 973.0 2156.0 -14.0 -238.0 396.0 871.0 797.0 295.0 318.0 118.0 -311.0 548.0 1415.0,-403.0 451.0 290.0 -29.0 -91.0 51.0 212.0 324.0 252.0 384.0 258.0 290.0 211.0 291.0 329.0,-15.0 278.0 500.0 205.0 120.0 97.0 270.0 262.0 232.0 192.0 88.0 -53.0 -229.0 -312.0 -333.0,-42.0 234.0 99.0 112.0 70.0 44.0 26.0 47.0 78.0 73.0 15.0 -110.0 -170.0 -155.0 -16.0,145 142 138 137 143 141 145 139 134 128 116 121 122 115 125,86 41 46 97 92 43 56 50 42 41 31 37 34 38 38,147 137 140 138 136 134 129 121 115 114 104 98 93 90 92,106 104 107 106 105 102 91 47 2 59 42 76 80 84 82,112 110 108 106 102 102 90 74 33 52 40 37 40 44 46,1→5
114,963.0 -189.0 -508.0 -1057.0 -450.0 -184.0 -262.0 -436.0 -719.0 -854.0 -1009.0 -696.0 -25.0 1501.0 2916.0,-4947.0 1002.0 282.0 -85.0 -601.0 -544.0 -518.0 -339.0 -81.0 434.0 943.0 -13.0 -687.0 -2000.0 -3191.0,2781.0 973.0 2156.0 -14.0 -238.0 396.0 871.0 797.0 295.0 318.0 118.0 -311.0 548.0 1415.0 3638.0,451.0 290.0 -29.0 -91.0 51.0 212.0 324.0 252.0 384.0 258.0 290.0 211.0 291.0 329.0 103.0,278.0 500.0 205.0 120.0 97.0 270.0 262.0 232.0 192.0 88.0 -53.0 -229.0 -312.0 -333.0 -20.0,234.0 99.0 112.0 70.0 44.0 26.0 47.0 78.0 73.0 15.0 -110.0 -170.0 -155.0 -16.0 248.0,142 138 137 143 141 145 139 134 128 116 121 122 115 125 129,41 46 97 92 43 56 50 42 41 31 37 34 38 38 40,137 140 138 136 134 129 121 115 114 104 98 93 90 92 93,104 107 106 105 102 91 47 2 59 42 76 80 84 82 82,110 108 106 102 102 90 74 33 52 40 37 40 44 46 44,1→5
115,2917.0 2598.0 1930.0 866.0 17.0 -357.0 -821.0 -745.0 -332.0 -906.0 -825.0 -587.0 -741.0 -765.0 -681.0,-2321.0 -1887.0 1534.0 3109.0 3259.0 3550.0 2311.0 296.0 -678.0 -313.0 -689.0 -926.0 -210.0 191.0 466.0,3816.0 2604.0 799.0 1297.0 669.0 560.0 371.0 458.0 1214.0 782.0 735.0 751.0 507.0 149.0 -90.0,-35.0 -257.0 -329.0 -243.0 155.0 85.0 -76.0 -72.0 15.0 -15.0 -7.0 84.0 145.0 92.0 137.0,116.0 343.0 273.0 289.0 288.0 361.0 217.0 104.0 152.0 170.0 176.0 211.0 197.0 199.0 180.0,339.0 643.0 769.0 520.0 173.0 0.0 -174.0 -214.0 -187.0 -139.0 -134.0 -43.0 5.0 19.0 -8.0,142 141 141 140 140 124 138 125 122 119 122 106 128 128 130,32 33 35 41 40 43 41 49 51 50 49 47 48 67 85,100 98 100 98 99 93 100 106 118 127 130 133 135 138 139,86 86 85 82 79 80 82 78 74 77 76 78 74 85 83,49 49 45 46 50 51 51 51 52 53 42 48 49 52 55,5→2
116,2598.0 1930.0 866.0 17.0 -357.0 -821.0 -745.0 -332.0 -906.0 -825.0 -587.0 -741.0 -765.0 -681.0 -612.0,-1887.0 1534.0 3109.0 3259.0 3550.0 2311.0 296.0 -678.0 -313.0 -689.0 -926.0 -210.0 191.0 466.0 1093.0,2604.0 799.0 1297.0 669.0 560.0 371.0 458.0 1214.0 782.0 735.0 751.0 507.0 149.0 -90.0 -557.0,-257.0 -329.0 -243.0 155.0 85.0 -76.0 -72.0 15.0 -15.0 -7.0 84.0 145.0 92.0 137.0 84.0,343.0 273.0 289.0 288.0 361.0 217.0 104.0 152.0 170.0 176.0 211.0 197.0 199.0 180.0 135.0,643.0 769.0 520.0 173.0 0.0 -174.0 -214.0 -187.0 -139.0 -134.0 -43.0 5.0 19.0 -8.0 -83.0,141 141 140 140 124 138 125 122 119 122 106 128 128 130 130,33 35 41 40 43 41 49 51 50 49 47 48 67 85 79,98 100 98 99 93 100 106 118 127 130 133 135 138 139 140,86 85 82 79 80 82 78 74 77 76 78 74 85 83 80,49 45 46 50 51 51 51 52 53 42 48 49 52 55 54,5→2
117,1930.0 866.0 17.0 -357.0 -821.0 -745.0 -332.0 -906.0 -825.0 -587.0 -741.0 -765.0 -681.0 -612.0 -536.0,1534.0 3109.0 3259.0 3550.0 2311.0 296.0 -678.0 -313.0 -689.0 -926.0 -210.0 191.0 466.0 1093.0 1780.0,799.0 1297.0 669.0 560.0 371.0 458.0 1214.0 782.0 735.0 751.0 507.0 149.0 -90.0 -557.0 -1832.0,-329.0 -243.0 155.0 85.0 -76.0 -72.0 15.0 -15.0 -7.0 84.0 145.0 92.0 137.0 84.0 53.0,273.0 289.0 288.0 361.0 217.0 104.0 152.0 170.0 176.0 211.0 197.0 199.0 180.0 135.0 -18.0,769.0 520.0 173.0 0.0 -174.0 -214.0 -187.0 -139.0 -134.0 -43.0 5.0 19.0 -8.0 -83.0 -249.0,141 140 140 124 138 125 122 119 122 106 128 128 130 130 131,35 41 40 43 41 49 51 50 49 47 48 67 85 79 77,100 98 99 93 100 106 118 127 130 133 135 138 139 140 142,85 82 79 80 82 78 74 77 76 78 74 85 83 80 79,45 46 50 51 51 51 52 53 42 48 49 52 55 54 54,5→2
118,866.0 17.0 -357.0 -821.0 -745.0 -332.0 -906.0 -825.0 -587.0 -741.0 -765.0 -681.0 -612.0 -536.0 -372.0,3109.0 3259.0 3550.0 2311.0 296.0 -678.0 -313.0 -689.0 -926.0 -210.0 191.0 466.0 1093.0 1780.0 1895.0,1297.0 669.0 560.0 371.0 458.0 1214.0 782.0 735.0 751.0 507.0 149.0 -90.0 -557.0 -1832.0 -3233.0,-243.0 155.0 85.0 -76.0 -72.0 15.0 -15.0 -7.0 84.0 145.0 92.0 137.0 84.0 53.0 -33.0,289.0 288.0 361.0 217.0 104.0 152.0 170.0 176.0 211.0 197.0 199.0 180.0 135.0 -18.0 -355.0,520.0 173.0 0.0 -174.0 -214.0 -187.0 -139.0 -134.0 -43.0 5.0 19.0 -8.0 -83.0 -249.0 -495.0,140 140 124 138 125 122 119 122 106 128 128 130 130 131 116,41 40 43 41 49 51 50 49 47 48 67 85 79 77 91,98 99 93 100 106 118 127 130 133 135 138 139 140 142 144,82 79 80 82 78 74 77 76 78 74 85 83 80 79 78,46 50 51 51 51 52 53 42 48 49 52 55 54 54 51,5→2
119,17.0 -357.0 -821.0 -745.0 -332.0 -906.0 -825.0 -587.0 -741.0 -765.0 -681.0 -612.0 -536.0 -372.0 485.0,3259.0 3550.0 2311.0 296.0 -678.0 -313.0 -689.0 -926.0 -210.0 191.0 466.0 1093.0 1780.0 1895.0 1234.0,669.0 560.0 371.0 458.0 1214.0 782.0 735.0 751.0 507.0 149.0 -90.0 -557.0 -1832.0 -3233.0 -3542.0,155.0 85.0 -76.0 -72.0 15.0 -15.0 -7.0 84.0 145.0 92.0 137.0 84.0 53.0 -33.0 -34.0,288.0 361.0 217.0 104.0 152.0 170.0 176.0 211.0 197.0 199.0 180.0 135.0 -18.0 -355.0 -807.0,173.0 0.0 -174.0 -214.0 -187.0 -139.0 -134.0 -43.0 5.0 19.0 -8.0 -83.0 -249.0 -495.0 -660.0,140 124 138 125 122 119 122 106 128 128 130 130 131 116 84,40 43 41 49 51 50 49 47 48 67 85 79 77 91 95,99 93 100 106 118 127 130 133 135 138 139 140 142 144 144,79 80 82 78 74 77 76 78 74 85 83 80 79 78 79,50 51 51 51 52 53 42 48 49 52 55 54 54 51 46,5→2
120,5858.0 5366.0 2697.0 -377.0 40.0 -198.0 -295.0 -290.0 -349.0 -514.0 -670.0 -655.0 -410.0 79.0 1449.0,-2431.0 -4743.0 -1959.0 -32.0 -851.0 -701.0 -203.0 -226.0 -139.0 145.0 253.0 100.0 -245.0 -652.0 -2845.0,-1239.0 4903.0 3338.0 1064.0 805.0 756.0 882.0 726.0 514.0 419.0 346.0 527.0 512.0 892.0 2323.0,-94.0 320.0 248.0 -3.0 -84.0 43.0 105.0 125.0 235.0 317.0 306.0 311.0 282.0 83.0 -83.0,-1338.0 -346.0 413.0 313.0 219.0 168.0 187.0 185.0 180.0 163.0 118.0 74.0 27.0 -120.0 -126.0,-710.0 -171.0 44.0 63.0 49.0 57.0 18.0 29.0 14.0 -22.0 -40.0 -61.0 -66.0 -45.0 188.0,107 105 106 103 110 109 112 116 119 116 115 130 130 131 137,86 76 47 64 76 82 77 80 71 60 54 42 38 39 35,147 147 142 145 144 142 139 138 134 129 122 117 104 106 104,79 85 90 82 90 96 91 94 71 88 99 88 81 89 90,52 42 50 53 50 46 57 51 50 41 40 41 44 52 51,2→5
121,2953.0 1479.0 1273.0 -57.0 222.0 -41.0 -32.0 -229.0 -867.0 -517.0 -542.0 -556.0 -443.0 -674.0 -647.0,-3088.0 715.0 2645.0 3777.0 2503.0 2096.0 465.0 -257.0 591.0 -298.0 -504.0 -46.0 363.0 1112.0 1528.0,3326.0 1647.0 1742.0 1359.0 1993.0 1683.0 1093.0 820.0 992.0 163.0 679.0 239.0 -56.0 -621.0 -1157.0,-81.0 -302.0 -334.0 -80.0 111.0 -24.0 -79.0 73.0 -117.0 132.0 97.0 114.0 85.0 98.0 -17.0,150.0 152.0 151.0 219.0 280.0 327.0 331.0 314.0 356.0 269.0 280.0 242.0 235.0 170.0 35.0,617.0 733.0 586.0 225.0 87.0 -36.0 -82.0 -87.0 -77.0 -108.0 -70.0 -24.0 -1.0 -35.0 -118.0,147 148 148 147 146 147 136 137 141 133 128 134 125 128 133,35 39 46 44 46 47 50 45 44 39 46 43 48 46 45,104 105 104 96 94 93 92 91 97 99 100 90 83 85 80,90 89 89 85 77 72 81 80 72 72 69 71 71 68 72,49 49 51 50 51 50 51 51 51 50 52 54 55 58 55,5→0
122,1479.0 1273.0 -57.0 222.0 -41.0 -32.0 -229.0 -867.0 -517.0 -542.0 -556.0 -443.0 -674.0 -647.0 -45.0,715.0 2645.0 3777.0 2503.0 2096.0 465.0 -257.0 591.0 -298.0 -504.0 -46.0 363.0 1112.0 1528.0 2310.0,1647.0 1742.0 1359.0 1993.0 1683.0 1093.0 820.0 992.0 163.0 679.0 239.0 -56.0 -621.0 -1157.0 -1440.0,-302.0 -334.0 -80.0 111.0 -24.0 -79.0 73.0 -117.0 132.0 97.0 114.0 85.0 98.0 -17.0 -105.0,152.0 151.0 219.0 280.0 327.0 331.0 314.0 356.0 269.0 280.0 242.0 235.0 170.0 35.0 -34.0,733.0 586.0 225.0 87.0 -36.0 -82.0 -87.0 -77.0 -108.0 -70.0 -24.0 -1.0 -35.0 -118.0 -341.0,148 148 147 146 147 136 137 141 133 128 134 125 128 133 126,39 46 44 46 47 50 45 44 39 46 43 48 46 45 43,105 104 96 94 93 92 91 97 99 100 90 83 85 80 81,89 89 85 77 72 81 80 72 72 69 71 71 68 72 74,49 51 50 51 50 51 51 51 50 52 54 55 58 55 52,5→0
123,1273.0 -57.0 222.0 -41.0 -32.0 -229.0 -867.0 -517.0 -542.0 -556.0 -443.0 -674.0 -647.0 -45.0 94.0,2645.0 3777.0 2503.0 2096.0 465.0 -257.0 591.0 -298.0 -504.0 -46.0 363.0 1112.0 1528.0 2310.0 3311.0,1742.0 1359.0 1993.0 1683.0 1093.0 820.0 992.0 163.0 679.0 239.0 -56.0 -621.0 -1157.0 -1440.0 -3576.0,-334.0 -80.0 111.0 -24.0 -79.0 73.0 -117.0 132.0 97.0 114.0 85.0 98.0 -17.0 -105.0 -143.0,151.0 219.0 280.0 327.0 331.0 314.0 356.0 269.0 280.0 242.0 235.0 170.0 35.0 -34.0 -279.0,586.0 225.0 87.0 -36.0 -82.0 -87.0 -77.0 -108.0 -70.0 -24.0 -1.0 -35.0 -118.0 -341.0 -748.0,148 147 146 147 136 137 141 133 128 134 125 128 133 126 105,46 44 46 47 50 45 44 39 46 43 48 46 45 43 33,104 96 94 93 92 91 97 99 100 90 83 85 80 81 81,89 85 77 72 81 80 72 72 69 71 71 68 72 74 62,51 50 51 50 51 51 51 50 52 54 55 58 55 52 48,5→0
124,-57.0 222.0 -41.0 -32.0 -229.0 -867.0 -517.0 -542.0 -556.0 -443.0 -674.0 -647.0 -45.0 94.0 1297.0,3777.0 2503.0 2096.0 465.0 -257.0 591.0 -298.0 -504.0 -46.0 363.0 1112.0 1528.0 2310.0 3311.0 1422.0,1359.0 1993.0 1683.0 1093.0 820.0 992.0 163.0 679.0 239.0 -56.0 -621.0 -1157.0 -1440.0 -3576.0 -4462.0,-80.0 111.0 -24.0 -79.0 73.0 -117.0 132.0 97.0 114.0 85.0 98.0 -17.0 -105.0 -143.0 -122.0,219.0 280.0 327.0 331.0 314.0 356.0 269.0 280.0 242.0 235.0 170.0 35.0 -34.0 -279.0 -780.0,225.0 87.0 -36.0 -82.0 -87.0 -77.0 -108.0 -70.0 -24.0 -1.0 -35.0 -118.0 -341.0 -748.0 -1003.0,147 146 147 136 137 141 133 128 134 125 128 133 126 105 89,44 46 47 50 45 44 39 46 43 48 46 45 43 33 37,96 94 93 92 91 97 99 100 90 83 85 80 81 81 81,85 77 72 81 80 72 72 69 71 71 68 72 74 62 61,50 51 50 51 51 51 50 52 54 55 58 55 52 48 42,5→0
125,8258.0 2866.0 -82.0 -305.0 -37.0 -129.0 -109.0 -154.0 -173.0 -233.0 -244.0 -415.0 -799.0 -1376.0 -1533.0,-7481.0 -2146.0 -1183.0 -969.0 -908.0 -280.0 4.0 208.0 315.0 576.0 548.0 1131.0 2257.0 3255.0 3474.0,4768.0 3248.0 1121.0 1215.0 518.0 546.0 466.0 443.0 740.0 700.0 546.0 486.0 -133.0 -1194.0 -2098.0,388.0 618.0 253.0 74.0 158.0 313.0 239.0 264.0 176.0 139.0 151.0 192.0 134.0 78.0 97.0,-642.0 398.0 285.0 177.0 97.0 110.0 93.0 115.0 71.0 79.0 60.0 41.0 -20.0 -102.0 -227.0,-163.0 57.0 162.0 221.0 265.0 234.0 234.0 232.0 234.0 220.0 158.0 80.0 -77.0 -246.0 -471.0,92 98 95 104 115 122 130 129 135 138 137 136 136 137 138,35 42 43 47 37 44 44 46 41 40 45 46 43 40 46,91 99 98 96 98 99 95 94 92 92 95 97 96 95 93,67 63 63 67 66 57 61 54 0 60 62 75 55 41 47,34 47 47 50 42 50 51 53 59 59 81 87 85 102 110,0→6
126,2866.0 -82.0 -305.0 -37.0 -129.0 -109.0 -154.0 -173.0 -233.0 -244.0 -415.0 -799.0 -1376.0 -1533.0 -562.0,-2146.0 -1183.0 -969.0 -908.0 -280.0 4.0 208.0 315.0 576.0 548.0 1131.0 2257.0 3255.0 3474.0 1964.0,3248.0 1121.0 1215.0 518.0 546.0 466.0 443.0 740.0 700.0 546.0 486.0 -133.0 -1194.0 -2098.0 -1671.0,618.0 253.0 74.0 158.0 313.0 239.0 264.0 176.0 139.0 151.0 192.0 134.0 78.0 97.0 174.0,398.0 285.0 177.0 97.0 110.0 93.0 115.0 71.0 79.0 60.0 41.0 -20.0 -102.0 -227.0 -583.0,57.0 162.0 221.0 265.0 234.0 234.0 232.0 234.0 220.0 158.0 80.0 -77.0 -246.0 -471.0 -462.0,98 95 104 115 122 130 129 135 138 137 136 136 137 138 142,42 43 47 37 44 44 46 41 40 45 46 43 40 46 41,99 98 96 98 99 95 94 92 92 95 97 96 95 93 92,63 63 67 66 57 61 54 0 60 62 75 55 41 47 50,47 47 50 42 50 51 53 59 59 81 87 85 102 110 114,0→6
127,5773.0 4852.0 2195.0 601.0 201.0 -327.0 -188.0 -173.0 -6.0 -383.0 -1074.0 -826.0 -639.0 -587.0 -625.0,-3304.0 -1961.0 -1868.0 -605.0 -167.0 283.0 720.0 701.0 240.0 294.0 698.0 1043.0 511.0 484.0 1194.0,1402.0 5168.0 2020.0 1621.0 1721.0 1349.0 1149.0 1103.0 598.0 157.0 -339.0 -420.0 -200.0 -697.0 -1082.0,-320.0 66.0 -70.0 -174.0 -342.0 -179.0 -190.0 -148.0 -201.0 -28.0 64.0 -3.0 -32.0 104.0 6.0,-928.0 35.0 298.0 303.0 391.0 359.0 309.0 359.0 444.0 396.0 325.0 172.0 167.0 104.0 -71.0,-255.0 -102.0 29.0 139.0 209.0 261.0 213.0 142.0 205.0 199.0 123.0 1.0 -76.0 -105.0 -98.0,120 116 101 107 93 100 111 102 111 119 122 123 126 125 127,39 19 35 31 42 39 17 35 42 46 50 48 59 59 60,97 104 102 103 98 99 102 106 111 108 109 117 123 124 126,84 92 93 90 70 78 90 90 86 38 51 1 66 79 102,120 120 120 109 102 107 36 93 105 47 96 101 103 95 99,6→1
128,4852.0 2195.0 601.0 201.0 -327.0 -188.0 -173.0 -6.0 -383.0 -1074.0 -826.0 -639.0 -587.0 -625.0 -73.0,-1961.0 -1868.0 -605.0 -167.0 283.0 720.0 701.0 240.0 294.0 698.0 1043.0 511.0 484.0 1194.0 1286.0,5168.0 2020.0 1621.0 1721.0 1349.0 1149.0 1103.0 598.0 157.0 -339.0 -420.0 -200.0 -697.0 -1082.0 -1298.0,66.0 -70.0 -174.0 -342.0 -179.0 -190.0 -148.0 -201.0 -28.0 64.0 -3.0 -32.0 104.0 6.0 -30.0,35.0 298.0 303.0 391.0 359.0 309.0 359.0 444.0 396.0 325.0 172.0 167.0 104.0 -71.0 -169.0,-102.0 29.0 139.0 209.0 261.0 213.0 142.0 205.0 199.0 123.0 1.0 -76.0 -105.0 -98.0 -210.0,116 101 107 93 100 111 102 111 119 122 123 126 125 127 124,19 35 31 42 39 17 35 42 46 50 48 59 59 60 80,104 102 103 98 99 102 106 111 108 109 117 123 124 126 126,92 93 90 70 78 90 90 86 38 51 1 66 79 102 101,120 120 109 102 107 36 93 105 47 96 101 103 95 99 101,6→1
129,2195.0 601.0 201.0 -327.0 -188.0 -173.0 -6.0 -383.0 -1074.0 -826.0 -639.0 -587.0 -625.0 -73.0 -593.0,-1868.0 -605.0 -167.0 283.0 720.0 701.0 240.0 294.0 698.0 1043.0 511.0 484.0 1194.0 1286.0 1569.0,2020.0 1621.0 1721.0 1349.0 1149.0 1103.0 598.0 157.0 -339.0 -420.0 -200.0 -697.0 -1082.0 -1298.0 -2669.0,-70.0 -174.0 -342.0 -179.0 -190.0 -148.0 -201.0 -28.0 64.0 -3.0 -32.0 104.0 6.0 -30.0 -201.0,298.0 303.0 391.0 359.0 309.0 359.0 444.0 396.0 325.0 172.0 167.0 104.0 -71.0 -169.0 -465.0,29.0 139.0 209.0 261.0 213.0 142.0 205.0 199.0 123.0 1.0 -76.0 -105.0 -98.0 -210.0 -390.0,101 107 93 100 111 102 111 119 122 123 126 125 127 124 126,35 31 42 39 17 35 42 46 50 48 59 59 60 80 80,102 103 98 99 102 106 111 108 109 117 123 124 126 126 130,93 90 70 78 90 90 86 38 51 1 66 79 102 101 104,120 109 102 107 36 93 105 47 96 101 103 95 99 101 108,6→1
130,601.0 201.0 -327.0 -188.0 -173.0 -6.0 -383.0 -1074.0 -826.0 -639.0 -587.0 -625.0 -73.0 -593.0 209.0,-605.0 -167.0 283.0 720.0 701.0 240.0 294.0 698.0 1043.0 511.0 484.0 1194.0 1286.0 1569.0 1217.0,1621.0 1721.0 1349.0 1149.0 1103.0 598.0 157.0 -339.0 -420.0 -200.0 -697.0 -1082.0 -1298.0 -2669.0 -2205.0,-174.0 -342.0 -179.0 -190.0 -148.0 -201.0 -28.0 64.0 -3.0 -32.0 104.0 6.0 -30.0 -201.0 -223.0,303.0 391.0 359.0 309.0 359.0 444.0 396.0 325.0 172.0 167.0 104.0 -71.0 -169.0 -465.0 -728.0,139.0 209.0 261.0 213.0 142.0 205.0 199.0 123.0 1.0 -76.0 -105.0 -98.0 -210.0 -390.0 -593.0,107 93 100 111 102 111 119 122 123 126 125 127 124 126 118,31 42 39 17 35 42 46 50 48 59 59 60 80 80 88,103 98 99 102 106 111 108 109 117 123 124 126 126 130 137,90 70 78 90 90 86 38 51 1 66 79 102 101 104 104,109 102 107 36 93 105 47 96 101 103 95 99 101 108 114,6→1
131,5741.0 5417.0 3874.0 169.0 -287.0 -367.0 -84.0 120.0 271.0 285.0 55.0 -257.0 -454.0 -451.0 -274.0,-830.0 -6346.0 -4181.0 -765.0 -104.0 -803.0 -932.0 -957.0 -565.0 -619.0 -410.0 -190.0 494.0 402.0 930.0,-526.0 3203.0 3879.0 636.0 1066.0 378.0 887.0 463.0 731.0 249.0 -70.0 135.0 -296.0 168.0 230.0,-419.0 -603.0 193.0 378.0 226.0 -34.0 110.0 229.0 185.0 294.0 267.0 219.0 243.0 213.0 226.0,-1216.0 -474.0 305.0 523.0 308.0 154.0 98.0 182.0 205.0 218.0 188.0 133.0 13.0 -71.0 -82.0,-695.0 -109.0 140.0 138.0 140.0 121.0 112.0 137.0 215.0 254.0 272.0 285.0 239.0 211.0 185.0,117 131 129 106 117 128 128 127 125 120 103 101 94 100 96,98 94 72 49 66 88 82 65 46 38 36 38 35 38 36,145 147 142 130 139 136 126 121 112 105 106 104 104 99 102,108 108 109 108 110 107 107 83 74 1 80 65 78 91 93,117 116 115 115 118 117 116 113 107 107 108 105 113 115 115,1→6
132,5417.0 3874.0 169.0 -287.0 -367.0 -84.0 120.0 271.0 285.0 55.0 -257.0 -454.0 -451.0 -274.0 -936.0,-6346.0 -4181.0 -765.0 -104.0 -803.0 -932.0 -957.0 -565.0 -619.0 -410.0 -190.0 494.0 402.0 930.0 2980.0,3203.0 3879.0 636.0 1066.0 378.0 887.0 463.0 731.0 249.0 -70.0 135.0 -296.0 168.0 230.0 -378.0,-603.0 193.0 378.0 226.0 -34.0 110.0 229.0 185.0 294.0 267.0 219.0 243.0 213.0 226.0 258.0,-474.0 305.0 523.0 308.0 154.0 98.0 182.0 205.0 218.0 188.0 133.0 13.0 -71.0 -82.0 -89.0,-109.0 140.0 138.0 140.0 121.0 112.0 137.0 215.0 254.0 272.0 285.0 239.0 211.0 185.0 15.0,131 129 106 117 128 128 127 125 120 103 101 94 100 96 99,94 72 49 66 88 82 65 46 38 36 38 35 38 36 39,147 142 130 139 136 126 121 112 105 106 104 104 99 102 101,108 109 108 110 107 107 83 74 1 80 65 78 91 93 84,116 115 115 118 117 116 113 107 107 108 105 113 115 115 119,1→6
133,3874.0 169.0 -287.0 -367.0 -84.0 120.0 271.0 285.0 55.0 -257.0 -454.0 -451.0 -274.0 -936.0 -1763.0,-4181.0 -765.0 -104.0 -803.0 -932.0 -957.0 -565.0 -619.0 -410.0 -190.0 494.0 402.0 930.0 2980.0 3877.0,3879.0 636.0 1066.0 378.0 887.0 463.0 731.0 249.0 -70.0 135.0 -296.0 168.0 230.0 -378.0 -1096.0,193.0 378.0 226.0 -34.0 110.0 229.0 185.0 294.0 267.0 219.0 243.0 213.0 226.0 258.0 209.0,305.0 523.0 308.0 154.0 98.0 182.0 205.0 218.0 188.0 133.0 13.0 -71.0 -82.0 -89.0 -182.0,140.0 138.0 140.0 121.0 112.0 137.0 215.0 254.0 272.0 285.0 239.0 211.0 185.0 15.0 -213.0,129 106 117 128 128 127 125 120 103 101 94 100 96 99 95,72 49 66 88 82 65 46 38 36 38 35 38 36 39 31,142 130 139 136 126 121 112 105 106 104 104 99 102 101 95,109 108 110 107 107 83 74 1 80 65 78 91 93 84 62,115 115 118 117 116 113 107 107 108 105 113 115 115 119 119,1→6
134,169.0 -287.0 -367.0 -84.0 120.0 271.0 285.0 55.0 -257.0 -454.0 -451.0 -274.0 -936.0 -1763.0 -1702.0,-765.0 -104.0 -803.0 -932.0 -957.0 -565.0 -619.0 -410.0 -190.0 494.0 402.0 930.0 2980.0 3877.0 3681.0,636.0 1066.0 378.0 887.0 463.0 731.0 249.0 -70.0 135.0 -296.0 168.0 230.0 -378.0 -1096.0 -979.0,378.0 226.0 -34.0 110.0 229.0 185.0 294.0 267.0 219.0 243.0 213.0 226.0 258.0 209.0 149.0,523.0 308.0 154.0 98.0 182.0 205.0 218.0 188.0 133.0 13.0 -71.0 -82.0 -89.0 -182.0 -431.0,138.0 140.0 121.0 112.0 137.0 215.0 254.0 272.0 285.0 239.0 211.0 185.0 15.0 -213.0 -418.0,106 117 128 128 127 125 120 103 101 94 100 96 99 95 100,49 66 88 82 65 46 38 36 38 35 38 36 39 31 36,130 139 136 126 121 112 105 106 104 104 99 102 101 95 95,108 110 107 107 83 74 1 80 65 78 91 93 84 62 71,115 118 117 116 113 107 107 108 105 113 115 115 119 119 122,1→6
135,6583.0 2384.0 165.0 83.0 -774.0 -538.0 -730.0 -399.0 -484.0 -679.0 -663.0 -714.0 -776.0 -779.0 -607.0,-5621.0 -2730.0 -1522.0 -1170.0 -105.0 670.0 350.0 -55.0 245.0 598.0 378.0 576.0 1121.0 2350.0 2660.0,5096.0 2958.0 1269.0 858.0 773.0 977.0 767.0 705.0 661.0 344.0 482.0 192.0 -528.0 -2091.0 -3924.0,-79.0 66.0 -411.0 -61.0 -101.0 -66.0 -98.0 -87.0 -15.0 -11.0 -2.0 34.0 -23.0 -180.0 -239.0,-186.0 305.0 261.0 171.0 191.0 148.0 135.0 253.0 246.0 221.0 219.0 224.0 182.0 -21.0 -374.0,-124.0 4.0 183.0 166.0 231.0 198.0 148.0 167.0 173.0 145.0 100.0 39.0 -54.0 -290.0 -599.0,117 90 103 107 101 110 122 130 133 137 133 124 124 127 123,34 1 29 34 41 35 40 47 49 59 61 66 69 78 94,109 115 115 112 110 114 117 119 122 131 134 136 137 140 143,85 96 94 77 93 96 96 79 70 80 88 83 64 66 65,125 125 126 126 127 124 109 104 79 52 40 52 61 40 33,6→2
136,2384.0 165.0 83.0 -774.0 -538.0 -730.0 -399.0 -484.0 -679.0 -663.0 -714.0 -776.0 -779.0 -607.0 633.0,-2730.0 -1522.0 -1170.0 -105.0 670.0 350.0 -55.0 245.0 598.0 378.0 576.0 1121.0 2350.0 2660.0 1799.0,2958.0 1269.0 858.0 773.0 977.0 767.0 705.0 661.0 344.0 482.0 192.0 -528.0 -2091.0 -3924.0 -3836.0,66.0 -411.0 -61.0 -101.0 -66.0 -98.0 -87.0 -15.0 -11.0 -2.0 34.0 -23.0 -180.0 -239.0 -134.0,305.0 261.0 171.0 191.0 148.0 135.0 253.0 246.0 221.0 219.0 224.0 182.0 -21.0 -374.0 -832.0,4.0 183.0 166.0 231.0 198.0 148.0 167.0 173.0 145.0 100.0 39.0 -54.0 -290.0 -599.0 -738.0,90 103 107 101 110 122 130 133 137 133 124 124 127 123 127,1 29 34 41 35 40 47 49 59 61 66 69 78 94 98,115 115 112 110 114 117 119 122 131 134 136 137 140 143 144,96 94 77 93 96 96 79 70 80 88 83 64 66 65 73,125 126 126 127 124 109 104 79 52 40 52 61 40 33 33,6→2
137,6809.0 5676.0 1782.0 105.0 112.0 252.0 68.0 -31.0 -31.0 -98.0 -289.0 -210.0 105.0 9.0 -1374.0,-2738.0 -4672.0 -2130.0 -843.0 -1121.0 -883.0 -646.0 -527.0 51.0 236.0 284.0 250.0 340.0 1590.0 3958.0,777.0 3841.0 2161.0 1056.0 1001.0 1099.0 656.0 474.0 152.0 115.0 140.0 261.0 340.0 126.0 -1592.0,-68.0 203.0 245.0 131.0 79.0 131.0 207.0 227.0 212.0 140.0 147.0 128.0 204.0 212.0 139.0,-1123.0 -3.0 421.0 277.0 246.0 292.0 290.0 283.0 257.0 159.0 85.0 44.0 28.0 44.0 -50.0,-504.0 68.0 68.0 97.0 131.0 167.0 220.0 269.0 298.0 299.0 290.0 280.0 267.0 247.0 -88.0,122 129 126 112 124 128 124 133 131 128 128 130 129 124 110,88 57 46 52 77 63 46 48 44 50 48 43 42 48 40,148 147 147 147 146 143 135 128 121 112 111 111 108 108 105,78 81 80 84 87 80 76 78 80 90 75 82 95 95 83,52 52 62 54 54 53 56 61 67 78 73 87 92 85 98,2→6
138,5676.0 1782.0 105.0 112.0 252.0 68.0 -31.0 -31.0 -98.0 -289.0 -210.0 105.0 9.0 -1374.0 -1648.0,-4672.0 -2130.0 -843.0 -1121.0 -883.0 -646.0 -527.0 51.0 236.0 284.0 250.0 340.0 1590.0 3958.0 4274.0,3841.0 2161.0 1056.0 1001.0 1099.0 656.0 474.0 152.0 115.0 140.0 261.0 340.0 126.0 -1592.0 -2635.0,203.0 245.0 131.0 79.0 131.0 207.0 227.0 212.0 140.0 147.0 128.0 204.0 212.0 139.0 128.0,-3.0 421.0 277.0 246.0 292.0 290.0 283.0 257.0 159.0 85.0 44.0 28.0 44.0 -50.0 -322.0,68.0 68.0 97.0 131.0 167.0 220.0 269.0 298.0 299.0 290.0 280.0 267.0 247.0 -88.0 -401.0,129 126 112 124 128 124 133 131 128 128 130 129 124 110 93,57 46 52 77 63 46 48 44 50 48 43 42 48 40 46,147 147 147 146 143 135 128 121 112 111 111 108 108 105 100,81 80 84 87 80 76 78 80 90 75 82 95 95 83 70,52 62 54 54 53 56 61 67 78 73 87 92 85 98 96,2→6
139,1782.0 105.0 112.0 252.0 68.0 -31.0 -31.0 -98.0 -289.0 -210.0 105.0 9.0 -1374.0 -1648.0 -456.0,-2130.0 -843.0 -1121.0 -883.0 -646.0 -527.0 51.0 236.0 284.0 250.0 340.0 1590.0 3958.0 4274.0 3907.0,2161.0 1056.0 1001.0 1099.0 656.0 474.0 152.0 115.0 140.0 261.0 340.0 126.0 -1592.0 -2635.0 -2178.0,245.0 131.0 79.0 131.0 207.0 227.0 212.0 140.0 147.0 128.0 204.0 212.0 139.0 128.0 89.0,421.0 277.0 246.0 292.0 290.0 283.0 257.0 159.0 85.0 44.0 28.0 44.0 -50.0 -322.0 -703.0,68.0 97.0 131.0 167.0 220.0 269.0 298.0 299.0 290.0 280.0 267.0 247.0 -88.0 -401.0 -530.0,126 112 124 128 124 133 131 128 128 130 129 124 110 93 123,46 52 77 63 46 48 44 50 48 43 42 48 40 46 47,147 147 146 143 135 128 121 112 111 111 108 108 105 100 102,80 84 87 80 76 78 80 90 75 82 95 95 83 70 73,62 54 54 53 56 61 67 78 73 87 92 85 98 96 105,2→6
140,4203.0 2907.0 1465.0 298.0 49.0 -162.0 -297.0 -303.0 -175.0 -109.0 -530.0 -394.0 -430.0 -169.0 -1187.0,-1329.0 -1223.0 -1266.0 -241.0 126.0 170.0 487.0 635.0 473.0 388.0 475.0 1218.0 1378.0 1972.0 2534.0,3995.0 4043.0 2571.0 1842.0 1561.0 1116.0 826.0 812.0 622.0 194.0 37.0 -345.0 -1134.0 -2660.0 -5036.0,70.0 -77.0 -79.0 -135.0 -178.0 -168.0 -155.0 -116.0 -74.0 -145.0 -75.0 -42.0 -76.0 27.0 -52.0,-358.0 44.0 210.0 263.0 285.0 310.0 330.0 319.0 375.0 421.0 335.0 322.0 214.0 66.0 -452.0,-103.0 -34.0 35.0 81.0 122.0 131.0 109.0 107.0 109.0 178.0 147.0 62.0 -42.0 -203.0 -484.0,129 129 127 130 120 126 129 122 135 133 132 131 124 115 114,43 45 39 44 33 45 41 48 49 33 53 45 49 56 43,128 127 123 120 120 119 121 122 117 107 111 109 103 101 91,94 92 88 92 89 97 101 96 79 81 86 95 87 60 68,126 126 124 121 65 105 120 120 99 99 73 63 60 31 36,6→0
141,2907.0 1465.0 298.0 49.0 -162.0 -297.0 -303.0 -175.0 -109.0 -530.0 -394.0 -430.0 -169.0 -1187.0 1340.0,-1223.0 -1266.0 -241.0 126.0 170.0 487.0 635.0 473.0 388.0 475.0 1218.0 1378.0 1972.0 2534.0 2259.0,4043.0 2571.0 1842.0 1561.0 1116.0 826.0 812.0 622.0 194.0 37.0 -345.0 -1134.0 -2660.0 -5036.0 -5588.0,-77.0 -79.0 -135.0 -178.0 -168.0 -155.0 -116.0 -74.0 -145.0 -75.0 -42.0 -76.0 27.0 -52.0 -121.0,44.0 210.0 263.0 285.0 310.0 330.0 319.0 375.0 421.0 335.0 322.0 214.0 66.0 -452.0 -1080.0,-34.0 35.0 81.0 122.0 131.0 109.0 107.0 109.0 178.0 147.0 62.0 -42.0 -203.0 -484.0 -718.0,129 127 130 120 126 129 122 135 133 132 131 124 115 114 102,45 39 44 33 45 41 48 49 33 53 45 49 56 43 39,127 123 120 120 119 121 122 117 107 111 109 103 101 91 88,92 88 92 89 97 101 96 79 81 86 95 87 60 68 76,126 124 121 65 105 120 120 99 99 73 63 60 31 36 37,6→0
142,13167.0 3984.0 835.0 -25.0 -175.0 -450.0 -433.0 1547.0 -153.0 -310.0 -770.0 -364.0 -374.0 -543.0 -564.0,-6111.0 -9196.0 -1729.0 -1606.0 -1353.0 -26.0 212.0 1547.0 -639.0 -482.0 -278.0 -113.0 12.0 788.0 2975.0,6347.0 2695.0 1276.0 1145.0 1039.0 711.0 631.0 1547.0 400.0 237.0 -352.0 -76.0 -121.0 -517.0 -2063.0,96.0 261.0 -3.0 -193.0 7.0 21.0 -122.0 193.0 -26.0 -3.0 24.0 61.0 133.0 196.0 154.0,-720.0 242.0 213.0 115.0 208.0 269.0 233.0 134.0 173.0 222.0 151.0 118.0 134.0 82.0 -88.0,-645.0 82.0 345.0 286.0 330.0 267.0 193.0 134.0 143.0 178.0 196.0 205.0 240.0 259.0 73.0,77 71 81 92 100 95 92 99 96 100 106 102 107 110 107,37 38 43 44 40 42 37 38 39 40 42 38 43 39 46,80 87 86 84 83 83 81 82 84 83 83 83 83 85 82,59 55 61 64 61 58 60 62 63 62 63 65 66 65 66,42 42 42 42 42 42 43 43 44 45 44 44 47 44 44,0→0
143,3984.0 835.0 -25.0 -175.0 -450.0 -433.0 1547.0 -153.0 -310.0 -770.0 -364.0 -374.0 -543.0 -564.0 -604.0,-9196.0 -1729.0 -1606.0 -1353.0 -26.0 212.0 1547.0 -639.0 -482.0 -278.0 -113.0 12.0 788.0 2975.0 4687.0,2695.0 1276.0 1145.0 1039.0 711.0 631.0 1547.0 400.0 237.0 -352.0 -76.0 -121.0 -517.0 -2063.0 -3365.0,261.0 -3.0 -193.0 7.0 21.0 -122.0 193.0 -26.0 -3.0 24.0 61.0 133.0 196.0 154.0 -24.0,242.0 213.0 115.0 208.0 269.0 233.0 134.0 173.0 222.0 151.0 118.0 134.0 82.0 -88.0 -326.0,82.0 345.0 286.0 330.0 267.0 193.0 134.0 143.0 178.0 196.0 205.0 240.0 259.0 73.0 -470.0,71 81 92 100 95 92 99 96 100 106 102 107 110 107 113,38 43 44 40 42 37 38 39 40 42 38 43 39 46 44,87 86 84 83 83 81 82 84 83 83 83 83 85 82 80,55 61 64 61 58 60 62 63 62 63 65 66 65 66 60,42 42 42 42 42 43 43 44 45 44 44 47 44 44 44,0→0
144,835.0 -25.0 -175.0 -450.0 -433.0 1547.0 -153.0 -310.0 -770.0 -364.0 -374.0 -543.0 -564.0 -604.0 1081.0,-1729.0 -1606.0 -1353.0 -26.0 212.0 1547.0 -639.0 -482.0 -278.0 -113.0 12.0 788.0 2975.0 4687.0 4146.0,1276.0 1145.0 1039.0 711.0 631.0 1547.0 400.0 237.0 -352.0 -76.0 -121.0 -517.0 -2063.0 -3365.0 -3661.0,-3.0 -193.0 7.0 21.0 -122.0 193.0 -26.0 -3.0 24.0 61.0 133.0 196.0 154.0 -24.0 -194.0,213.0 115.0 208.0 269.0 233.0 134.0 173.0 222.0 151.0 118.0 134.0 82.0 -88.0 -326.0 -789.0,345.0 286.0 330.0 267.0 193.0 134.0 143.0 178.0 196.0 205.0 240.0 259.0 73.0 -470.0 -997.0,81 92 100 95 92 99 96 100 106 102 107 110 107 113 99,43 44 40 42 37 38 39 40 42 38 43 39 46 44 35,86 84 83 83 81 82 84 83 83 83 83 85 82 80 77,61 64 61 58 60 62 63 62 63 65 66 65 66 60 64,42 42 42 42 43 43 44 45 44 44 47 44 44 44 42,0→0
