Sample_ID,ax,ay,az,gx,gy,gz,flex1,flex2,flex3,flex4,flex5,Label
0,7632.0 3403.0 709.0 208.0 12.0 -100.0 -531.0 -251.0 -276.0 -495.0 -517.0 -164.0 -457.0 -859.0 -1653.0,-5761.0 -6838.0 -2078.0 -1340.0 -1820.0 -753.0 -85.0 -154.0 -193.0 -303.0 -387.0 12.0 1016.0 4060.0 3981.0,4192.0 1191.0 504.0 495.0 373.0 454.0 129.0 175.0 305.0 90.0 29.0 373.0 -214.0 -1598.0 -3396.0,-465.0 304.0 64.0 -138.0 -31.0 35.0 -15.0 -125.0 62.0 -14.0 -9.0 107.0 183.0 157.0 31.0,-328.0 286.0 223.0 143.0 141.0 154.0 141.0 99.0 118.0 130.0 78.0 87.0 103.0 41.0 -218.0,-410.0 64.0 271.0 217.0 311.0 350.0 301.0 273.0 183.0 193.0 209.0 229.0 254.0 -40.0 -634.0,80 94 99 101 97 107 119 128 132 134 134 138 138 138 137,39 42 40 42 42 40 41 42 41 40 40 35 35 35 39,75 73 75 75 77 78 80 79 80 80 79 80 77 76 72,58 50 53 51 57 58 59 62 62 62 61 66 63 62 63,48 51 52 52 52 52 52 55 51 54 53 54 53 52 50,0→3
1,10214.0 7422.0 1328.0 -3.0 118.0 104.0 -14.0 -23.0 -247.0 -35.0 -352.0 -571.0 -478.0 -356.0 -1170.0,-2719.0 -10890.0 -2544.0 -1125.0 -1949.0 -1517.0 -725.0 -625.0 -509.0 -467.0 -666.0 -96.0 428.0 997.0 2524.0,1213.0 2291.0 -1308.0 -107.0 1217.0 664.0 368.0 184.0 1.0 193.0 118.0 -54.0 -365.0 -973.0 -2300.0,-629.0 -100.0 410.0 -176.0 -107.0 79.0 32.0 17.0 -8.0 44.0 149.0 223.0 164.0 201.0 122.0,-1115.0 384.0 361.0 160.0 142.0 126.0 176.0 190.0 150.0 141.0 139.0 180.0 100.0 26.0 -73.0,-744.0 -45.0 268.0 187.0 231.0 272.0 296.0 288.0 299.0 279.0 266.0 271.0 301.0 282.0 100.0,148 150 122 152 148 144 146 146 143 145 141 134 130 130 129,29 36 32 43 36 39 38 40 43 41 47 48 53 64 68,73 72 71 76 75 74 76 79 81 83 89 95 108 118 123,60 57 62 57 65 63 62 60 57 63 56 2 90 95 101,51 55 56 58 58 52 55 56 57 56 68 79 94 91 89,3→1
2,7422.0 1328.0 -3.0 118.0 104.0 -14.0 -23.0 -247.0 -35.0 -352.0 -571.0 -478.0 -356.0 -1170.0 -777.0,-10890.0 -2544.0 -1125.0 -1949.0 -1517.0 -725.0 -625.0 -509.0 -467.0 -666.0 -96.0 428.0 997.0 2524.0 3272.0,2291.0 -1308.0 -107.0 1217.0 664.0 368.0 184.0 1.0 193.0 118.0 -54.0 -365.0 -973.0 -2300.0 -2529.0,-100.0 410.0 -176.0 -107.0 79.0 32.0 17.0 -8.0 44.0 149.0 223.0 164.0 201.0 122.0 -49.0,384.0 361.0 160.0 142.0 126.0 176.0 190.0 150.0 141.0 139.0 180.0 100.0 26.0 -73.0 -347.0,-45.0 268.0 187.0 231.0 272.0 296.0 288.0 299.0 279.0 266.0 271.0 301.0 282.0 100.0 -373.0,150 122 152 148 144 146 146 143 145 141 134 130 130 129 132,36 32 43 36 39 38 40 43 41 47 48 53 64 68 63,72 71 76 75 74 76 79 81 83 89 95 108 118 123 128,57 62 57 65 63 62 60 57 63 56 2 90 95 101 102,55 56 58 58 52 55 56 57 56 68 79 94 91 89 94,3→1
3,1328.0 -3.0 118.0 104.0 -14.0 -23.0 -247.0 -35.0 -352.0 -571.0 -478.0 -356.0 -1170.0 -777.0 -646.0,-2544.0 -1125.0 -1949.0 -1517.0 -725.0 -625.0 -509.0 -467.0 -666.0 -96.0 428.0 997.0 2524.0 3272.0 2775.0,-1308.0 -107.0 1217.0 664.0 368.0 184.0 1.0 193.0 118.0 -54.0 -365.0 -973.0 -2300.0 -2529.0 -2479.0,410.0 -176.0 -107.0 79.0 32.0 17.0 -8.0 44.0 149.0 223.0 164.0 201.0 122.0 -49.0 -189.0,361.0 160.0 142.0 126.0 176.0 190.0 150.0 141.0 139.0 180.0 100.0 26.0 -73.0 -347.0 -611.0,268.0 187.0 231.0 272.0 296.0 288.0 299.0 279.0 266.0 271.0 301.0 282.0 100.0 -373.0 -742.0,122 152 148 144 146 146 143 145 141 134 130 130 129 132 133,32 43 36 39 38 40 43 41 47 48 53 64 68 63 76,71 76 75 74 76 79 81 83 89 95 108 118 123 128 134,62 57 65 63 62 60 57 63 56 2 90 95 101 102 98,56 58 58 52 55 56 57 56 68 79 94 91 89 94 99,3→1
4,5945.0 4664.0 3201.0 72.0 -346.0 34.0 -282.0 -186.0 -439.0 47.0 10.0 -593.0 -402.0 -557.0 -1103.0,-2179.0 -8752.0 -3850.0 -1379.0 -893.0 -578.0 -758.0 -724.0 -137.0 -327.0 293.0 295.0 597.0 1349.0 2011.0,620.0 -125.0 741.0 190.0 652.0 871.0 34.0 247.0 501.0 196.0 -64.0 -376.0 -629.0 -915.0 -1729.0,-915.0 -56.0 624.0 534.0 -28.0 -20.0 112.0 42.0 14.0 125.0 145.0 85.0 81.0 103.0 87.0,-944.0 -283.0 -12.0 466.0 216.0 166.0 248.0 250.0 277.0 255.0 285.0 213.0 50.0 22.0 -130.0,-792.0 -220.0 237.0 271.0 312.0 210.0 183.0 230.0 271.0 319.0 281.0 247.0 191.0 57.0 -218.0,143 143 139 143 142 148 148 145 143 140 135 137 138 139 134,95 82 40 78 99 97 78 84 88 86 79 74 68 61 47,141 140 137 134 136 140 140 137 133 133 129 128 124 112 93,106 106 106 106 107 107 106 106 106 104 105 104 102 102 69,110 109 110 106 106 103 103 106 102 98 96 91 79 72 60,1→3
5,4664.0 3201.0 72.0 -346.0 34.0 -282.0 -186.0 -439.0 47.0 10.0 -593.0 -402.0 -557.0 -1103.0 -2052.0,-8752.0 -3850.0 -1379.0 -893.0 -578.0 -758.0 -724.0 -137.0 -327.0 293.0 295.0 597.0 1349.0 2011.0 3135.0,-125.0 741.0 190.0 652.0 871.0 34.0 247.0 501.0 196.0 -64.0 -376.0 -629.0 -915.0 -1729.0 -2579.0,-56.0 624.0 534.0 -28.0 -20.0 112.0 42.0 14.0 125.0 145.0 85.0 81.0 103.0 87.0 -136.0,-283.0 -12.0 466.0 216.0 166.0 248.0 250.0 277.0 255.0 285.0 213.0 50.0 22.0 -130.0 -305.0,-220.0 237.0 271.0 312.0 210.0 183.0 230.0 271.0 319.0 281.0 247.0 191.0 57.0 -218.0 -660.0,143 139 143 142 148 148 145 143 140 135 137 138 139 134 119,82 40 78 99 97 78 84 88 86 79 74 68 61 47 30,140 137 134 136 140 140 137 133 133 129 128 124 112 93 81,106 106 106 107 107 106 106 106 104 105 104 102 102 69 0,109 110 106 106 103 103 106 102 98 96 91 79 72 60 53,1→3
6,7460.0 3408.0 -246.0 930.0 175.0 43.0 156.0 -50.0 31.0 -170.0 77.0 -265.0 -751.0 -412.0 -1069.0,-11436.0 -3136.0 -887.0 -2074.0 -1634.0 -603.0 -658.0 -1155.0 -979.0 -192.0 -195.0 797.0 640.0 744.0 3001.0,2505.0 -3050.0 -291.0 866.0 625.0 522.0 472.0 -450.0 212.0 1947.0 119.0 -196.0 -484.0 -756.0 -1843.0,-58.0 826.0 -95.0 -57.0 71.0 12.0 5.0 83.0 113.0 136.0 267.0 302.0 146.0 220.0 115.0,26.0 321.0 3.0 -37.0 77.0 120.0 161.0 77.0 117.0 261.0 267.0 296.0 180.0 120.0 -54.0,-103.0 259.0 116.0 158.0 259.0 266.0 180.0 230.0 334.0 340.0 360.0 341.0 276.0 242.0 -54.0,149 136 142 147 151 151 149 146 144 129 122 138 135 129 123,36 30 21 31 43 43 43 40 47 39 45 44 56 66 66,73 75 75 76 81 85 97 94 99 104 111 120 125 131 136,64 64 65 67 66 67 68 62 69 70 62 51 48 62 67,43 48 53 54 52 52 50 46 49 48 52 53 53 56 54,3→2
7,3408.0 -246.0 930.0 175.0 43.0 156.0 -50.0 31.0 -170.0 77.0 -265.0 -751.0 -412.0 -1069.0 -1162.0,-3136.0 -887.0 -2074.0 -1634.0 -603.0 -658.0 -1155.0 -979.0 -192.0 -195.0 797.0 640.0 744.0 3001.0 3613.0,-3050.0 -291.0 866.0 625.0 522.0 472.0 -450.0 212.0 1947.0 119.0 -196.0 -484.0 -756.0 -1843.0 -2957.0,826.0 -95.0 -57.0 71.0 12.0 5.0 83.0 113.0 136.0 267.0 302.0 146.0 220.0 115.0 -14.0,321.0 3.0 -37.0 77.0 120.0 161.0 77.0 117.0 261.0 267.0 296.0 180.0 120.0 -54.0 -451.0,259.0 116.0 158.0 259.0 266.0 180.0 230.0 334.0 340.0 360.0 341.0 276.0 242.0 -54.0 -603.0,136 142 147 151 151 149 146 144 129 122 138 135 129 123 112,30 21 31 43 43 43 40 47 39 45 44 56 66 66 70,75 75 76 81 85 97 94 99 104 111 120 125 131 136 141,64 65 67 66 67 68 62 69 70 62 51 48 62 67 65,48 53 54 52 52 50 46 49 48 52 53 53 56 54 49,3→2
8,5863.0 3899.0 96.0 283.0 183.0 147.0 341.0 204.0 -39.0 35.0 -19.0 -646.0 -687.0 -911.0 -1468.0,-7537.0 -3439.0 -1790.0 -1625.0 -1306.0 -1081.0 -702.0 -600.0 -181.0 52.0 6.0 842.0 1278.0 2104.0 2739.0,829.0 872.0 742.0 1148.0 1044.0 686.0 561.0 463.0 195.0 146.0 -167.0 -353.0 -130.0 -767.0 -1957.0,-52.0 352.0 2.0 -86.0 1.0 40.0 49.0 94.0 79.0 -6.0 -8.0 36.0 93.0 119.0 6.0,-207.0 313.0 134.0 38.0 143.0 197.0 222.0 286.0 294.0 297.0 254.0 151.0 76.0 -9.0 -174.0,-109.0 138.0 207.0 205.0 195.0 245.0 268.0 280.0 330.0 358.0 349.0 276.0 71.0 -142.0 -424.0,125 109 112 117 121 122 124 126 127 129 129 128 122 133 135,103 50 64 88 100 93 108 89 107 97 106 89 82 53 27,139 141 142 143 144 143 146 147 145 144 142 141 129 104 95,81 70 66 73 80 80 78 83 77 80 71 65 68 70 70,54 55 55 62 61 56 61 60 59 58 55 67 64 55 54,2→3
9,3899.0 96.0 283.0 183.0 147.0 341.0 204.0 -39.0 35.0 -19.0 -646.0 -687.0 -911.0 -1468.0 398.0,-3439.0 -1790.0 -1625.0 -1306.0 -1081.0 -702.0 -600.0 -181.0 52.0 6.0 842.0 1278.0 2104.0 2739.0 3038.0,872.0 742.0 1148.0 1044.0 686.0 561.0 463.0 195.0 146.0 -167.0 -353.0 -130.0 -767.0 -1957.0 -2508.0,352.0 2.0 -86.0 1.0 40.0 49.0 94.0 79.0 -6.0 -8.0 36.0 93.0 119.0 6.0 -170.0,313.0 134.0 38.0 143.0 197.0 222.0 286.0 294.0 297.0 254.0 151.0 76.0 -9.0 -174.0 -500.0,138.0 207.0 205.0 195.0 245.0 268.0 280.0 330.0 358.0 349.0 276.0 71.0 -142.0 -424.0 -770.0,109 112 117 121 122 124 126 127 129 129 128 122 133 135 137,50 64 88 100 93 108 89 107 97 106 89 82 53 27 20,141 142 143 144 143 146 147 145 144 142 141 129 104 95 87,70 66 73 80 80 78 83 77 80 71 65 68 70 70 73,55 55 62 61 56 61 60 59 58 55 67 64 55 54 46,2→3
10,96.0 283.0 183.0 147.0 341.0 204.0 -39.0 35.0 -19.0 -646.0 -687.0 -911.0 -1468.0 398.0 2173.0,-1790.0 -1625.0 -1306.0 -1081.0 -702.0 -600.0 -181.0 52.0 6.0 842.0 1278.0 2104.0 2739.0 3038.0 1359.0,742.0 1148.0 1044.0 686.0 561.0 463.0 195.0 146.0 -167.0 -353.0 -130.0 -767.0 -1957.0 -2508.0 -1662.0,2.0 -86.0 1.0 40.0 49.0 94.0 79.0 -6.0 -8.0 36.0 93.0 119.0 6.0 -170.0 -266.0,134.0 38.0 143.0 197.0 222.0 286.0 294.0 297.0 254.0 151.0 76.0 -9.0 -174.0 -500.0 -764.0,207.0 205.0 195.0 245.0 268.0 280.0 330.0 358.0 349.0 276.0 71.0 -142.0 -424.0 -770.0 -956.0,112 117 121 122 124 126 127 129 129 128 122 133 135 137 134,64 88 100 93 108 89 107 97 106 89 82 53 27 20 15,142 143 144 143 146 147 145 144 142 141 129 104 95 87 78,66 73 80 80 78 83 77 80 71 65 68 70 70 73 77,55 62 61 56 61 60 59 58 55 67 64 55 54 46 52,2→3
11,6478.0 3541.0 437.0 338.0 793.0 347.0 497.0 267.0 164.0 -62.0 -84.0 -324.0 -525.0 -712.0 -797.0,-8292.0 -6081.0 -1121.0 -1679.0 -3145.0 -1494.0 -796.0 -528.0 -221.0 -91.0 162.0 452.0 774.0 1833.0 3411.0,2575.0 -1826.0 -1517.0 290.0 1258.0 721.0 437.0 421.0 130.0 143.0 -400.0 -68.0 -719.0 -1077.0 -1813.0,-609.0 733.0 -56.0 -130.0 66.0 139.0 54.0 188.0 196.0 137.0 200.0 76.0 112.0 81.0 122.0,-268.0 316.0 153.0 -81.0 51.0 177.0 291.0 257.0 264.0 325.0 237.0 225.0 141.0 80.0 -36.0,-310.0 144.0 192.0 132.0 218.0 341.0 357.0 343.0 340.0 363.0 369.0 303.0 265.0 144.0 -263.0,150 147 146 148 148 148 147 144 142 141 143 134 130 128 114,38 44 35 43 46 43 46 47 45 47 48 30 39 37 37,82 78 80 84 86 88 89 91 92 92 93 90 87 79 75,84 88 85 85 83 82 81 83 71 74 77 69 72 79 69,47 50 57 57 57 57 55 60 54 51 63 63 60 53 52,3→0
12,3541.0 437.0 338.0 793.0 347.0 497.0 267.0 164.0 -62.0 -84.0 -324.0 -525.0 -712.0 -797.0 -171.0,-6081.0 -1121.0 -1679.0 -3145.0 -1494.0 -796.0 -528.0 -221.0 -91.0 162.0 452.0 774.0 1833.0 3411.0 3762.0,-1826.0 -1517.0 290.0 1258.0 721.0 437.0 421.0 130.0 143.0 -400.0 -68.0 -719.0 -1077.0 -1813.0 -3636.0,733.0 -56.0 -130.0 66.0 139.0 54.0 188.0 196.0 137.0 200.0 76.0 112.0 81.0 122.0 21.0,316.0 153.0 -81.0 51.0 177.0 291.0 257.0 264.0 325.0 237.0 225.0 141.0 80.0 -36.0 -368.0,144.0 192.0 132.0 218.0 341.0 357.0 343.0 340.0 363.0 369.0 303.0 265.0 144.0 -263.0 -700.0,147 146 148 148 148 147 144 142 141 143 134 130 128 114 98,44 35 43 46 43 46 47 45 47 48 30 39 37 37 31,78 80 84 86 88 89 91 92 92 93 90 87 79 75 73,88 85 85 83 82 81 83 71 74 77 69 72 79 69 73,50 57 57 57 57 55 60 54 51 63 63 60 53 52 49,3→0
13,9130.0 2843.0 415.0 581.0 -105.0 -293.0 -252.0 -402.0 0.0 -103.0 -425.0 -549.0 -1025.0 -1626.0 -39.0,-8586.0 -7181.0 -875.0 -2103.0 -1840.0 -890.0 -380.0 -498.0 -178.0 -73.0 19.0 273.0 961.0 2311.0 2412.0,3708.0 -1171.0 714.0 791.0 692.0 395.0 338.0 257.0 290.0 351.0 21.0 -382.0 -1343.0 -3292.0 -4976.0,-384.0 833.0 22.0 -125.0 88.0 196.0 215.0 134.0 145.0 145.0 157.0 98.0 107.0 130.0 42.0,-119.0 290.0 143.0 114.0 142.0 133.0 270.0 243.0 216.0 250.0 246.0 197.0 94.0 -260.0 -992.0,-366.0 255.0 302.0 269.0 315.0 257.0 222.0 268.0 265.0 227.0 214.0 213.0 98.0 -200.0 -440.0,86 101 81 121 102 121 129 126 127 129 117 100 87 73 70,40 1 27 47 41 30 31 42 48 43 59 63 65 61 41,78 76 76 81 85 87 88 89 91 90 90 87 83 78 76,75 75 67 68 70 65 74 68 53 65 57 65 68 67 70,52 47 52 53 51 52 55 45 58 58 56 52 47 44 46,0→4
14,7032.0 4024.0 1216.0 518.0 -8.0 77.0 360.0 312.0 156.0 45.0 -291.0 -550.0 -623.0 -654.0 -762.0,-2548.0 -264.0 -465.0 -511.0 -51.0 -228.0 -472.0 -356.0 -488.0 -973.0 -185.0 3.0 126.0 403.0 763.0,5294.0 5519.0 2807.0 1879.0 1595.0 1609.0 1135.0 618.0 647.0 342.0 196.0 49.0 -494.0 -261.0 190.0,412.0 129.0 -31.0 -228.0 -342.0 -339.0 -203.0 -192.0 -145.0 -22.0 71.0 68.0 73.0 -4.0 30.0,-842.0 186.0 274.0 218.0 199.0 279.0 380.0 407.0 389.0 340.0 260.0 229.0 168.0 50.0 99.0,-88.0 -134.0 16.0 115.0 169.0 133.0 132.0 150.0 177.0 208.0 241.0 208.0 163.0 158.0 93.0,86 78 81 81 80 82 88 96 107 105 110 119 115 119 120,65 66 65 77 67 78 57 74 64 59 78 85 85 90 88,87 83 83 83 85 81 87 90 93 100 106 117 124 128 127,75 76 72 74 75 77 75 76 79 73 57 0 66 83 92,51 52 49 50 50 50 51 50 52 47 66 76 89 93 92,4→1
15,4024.0 1216.0 518.0 -8.0 77.0 360.0 312.0 156.0 45.0 -291.0 -550.0 -623.0 -654.0 -762.0 -815.0,-264.0 -465.0 -511.0 -51.0 -228.0 -472.0 -356.0 -488.0 -973.0 -185.0 3.0 126.0 403.0 763.0 1264.0,5519.0 2807.0 1879.0 1595.0 1609.0 1135.0 618.0 647.0 342.0 196.0 49.0 -494.0 -261.0 190.0 -1022.0,129.0 -31.0 -228.0 -342.0 -339.0 -203.0 -192.0 -145.0 -22.0 71.0 68.0 73.0 -4.0 30.0 2.0,186.0 274.0 218.0 199.0 279.0 380.0 407.0 389.0 340.0 260.0 229.0 168.0 50.0 99.0 3.0,-134.0 16.0 115.0 169.0 133.0 132.0 150.0 177.0 208.0 241.0 208.0 163.0 158.0 93.0 8.0,78 81 81 80 82 88 96 107 105 110 119 115 119 120 123,66 65 77 67 78 57 74 64 59 78 85 85 90 88 86,83 83 83 85 81 87 90 93 100 106 117 124 128 127 128,76 72 74 75 77 75 76 79 73 57 0 66 83 92 101,52 49 50 50 50 51 50 52 47 66 76 89 93 92 92,4→1
16,1216.0 518.0 -8.0 77.0 360.0 312.0 156.0 45.0 -291.0 -550.0 -623.0 -654.0 -762.0 -815.0 -861.0,-465.0 -511.0 -51.0 -228.0 -472.0 -356.0 -488.0 -973.0 -185.0 3.0 126.0 403.0 763.0 1264.0 1920.0,2807.0 1879.0 1595.0 1609.0 1135.0 618.0 647.0 342.0 196.0 49.0 -494.0 -261.0 190.0 -1022.0 -2146.0,-31.0 -228.0 -342.0 -339.0 -203.0 -192.0 -145.0 -22.0 71.0 68.0 73.0 -4.0 30.0 2.0 -39.0,274.0 218.0 199.0 279.0 380.0 407.0 389.0 340.0 260.0 229.0 168.0 50.0 99.0 3.0 -210.0,16.0 115.0 169.0 133.0 132.0 150.0 177.0 208.0 241.0 208.0 163.0 158.0 93.0 8.0 -176.0,81 81 80 82 88 96 107 105 110 119 115 119 120 123 124,65 77 67 78 57 74 64 59 78 85 85 90 88 86 86,83 83 85 81 87 90 93 100 106 117 124 128 127 128 129,72 74 75 77 75 76 79 73 57 0 66 83 92 101 101,49 50 50 50 51 50 52 47 66 76 89 93 92 92 95,4→1
17,518.0 -8.0 77.0 360.0 312.0 156.0 45.0 -291.0 -550.0 -623.0 -654.0 -762.0 -815.0 -861.0 -967.0,-511.0 -51.0 -228.0 -472.0 -356.0 -488.0 -973.0 -185.0 3.0 126.0 403.0 763.0 1264.0 1920.0 2086.0,1879.0 1595.0 1609.0 1135.0 618.0 647.0 342.0 196.0 49.0 -494.0 -261.0 190.0 -1022.0 -2146.0 -2246.0,-228.0 -342.0 -339.0 -203.0 -192.0 -145.0 -22.0 71.0 68.0 73.0 -4.0 30.0 2.0 -39.0 -122.0,218.0 199.0 279.0 380.0 407.0 389.0 340.0 260.0 229.0 168.0 50.0 99.0 3.0 -210.0 -429.0,115.0 169.0 133.0 132.0 150.0 177.0 208.0 241.0 208.0 163.0 158.0 93.0 8.0 -176.0 -472.0,81 80 82 88 96 107 105 110 119 115 119 120 123 124 128,77 67 78 57 74 64 59 78 85 85 90 88 86 86 93,83 85 81 87 90 93 100 106 117 124 128 127 128 129 134,74 75 77 75 76 79 73 57 0 66 83 92 101 101 103,50 50 50 51 50 52 47 66 76 89 93 92 92 95 100,4→1
18,5589.0 4186.0 2293.0 264.0 -253.0 -290.0 25.0 378.0 15.0 -65.0 99.0 -367.0 -530.0 -1417.0 -672.0,-3645.0 -6757.0 -3632.0 -1002.0 -737.0 -727.0 -935.0 -1006.0 -696.0 -90.0 -130.0 525.0 1494.0 2391.0 3368.0,1182.0 1314.0 1707.0 1161.0 952.0 204.0 733.0 436.0 89.0 16.0 -127.0 -706.0 -1005.0 -2994.0 -4907.0,-637.0 -79.0 538.0 325.0 -40.0 -191.0 -36.0 34.0 154.0 121.0 187.0 181.0 84.0 107.0 66.0,-881.0 -258.0 321.0 365.0 273.0 157.0 176.0 282.0 371.0 273.0 289.0 195.0 105.0 -232.0 -899.0,-652.0 19.0 244.0 249.0 212.0 191.0 181.0 229.0 303.0 337.0 323.0 287.0 174.0 -178.0 -557.0,127 125 125 129 127 129 122 120 114 97 89 86 74 69 71,94 110 78 87 106 107 90 98 89 89 81 57 63 57 45,144 143 142 142 135 125 111 99 88 82 79 78 72 69 67,108 106 107 107 109 98 69 40 1 39 37 47 53 57 56,108 111 110 101 97 86 76 64 54 46 47 40 42 44 45,1→4
19,6959.0 5514.0 2230.0 485.0 503.0 157.0 451.0 256.0 268.0 -84.0 -31.0 -199.0 -359.0 -513.0 -562.0,-2952.0 -2611.0 -1989.0 -756.0 -775.0 -977.0 -914.0 -777.0 -223.0 -126.0 253.0 217.0 550.0 1311.0 2260.0,2276.0 6247.0 3166.0 1769.0 1799.0 1198.0 1112.0 476.0 536.0 71.0 -21.0 -373.0 -524.0 -936.0 -2221.0,45.0 143.0 171.0 -67.0 -313.0 -277.0 -121.0 3.0 61.0 33.0 13.0 34.0 133.0 79.0 -21.0,-1326.0 -81.0 386.0 322.0 279.0 265.0 355.0 398.0 425.0 360.0 344.0 303.0 265.0 148.0 -50.0,-265.0 -42.0 -17.0 114.0 178.0 216.0 218.0 217.0 231.0 280.0 321.0 285.0 213.0 132.0 -65.0,81 83 84 81 79 87 106 110 116 109 111 114 117 119 116,85 83 83 76 80 89 73 71 67 89 94 96 89 94 90,79 81 80 80 85 88 93 98 105 110 116 123 128 133 136,67 66 67 67 66 70 73 65 72 69 69 44 52 57 60,47 52 52 53 52 52 53 55 44 53 51 58 61 56 54,4→2
20,5514.0 2230.0 485.0 503.0 157.0 451.0 256.0 268.0 -84.0 -31.0 -199.0 -359.0 -513.0 -562.0 -590.0,-2611.0 -1989.0 -756.0 -775.0 -977.0 -914.0 -777.0 -223.0 -126.0 253.0 217.0 550.0 1311.0 2260.0 2753.0,6247.0 3166.0 1769.0 1799.0 1198.0 1112.0 476.0 536.0 71.0 -21.0 -373.0 -524.0 -936.0 -2221.0 -2486.0,143.0 171.0 -67.0 -313.0 -277.0 -121.0 3.0 61.0 33.0 13.0 34.0 133.0 79.0 -21.0 -46.0,-81.0 386.0 322.0 279.0 265.0 355.0 398.0 425.0 360.0 344.0 303.0 265.0 148.0 -50.0 -326.0,-42.0 -17.0 114.0 178.0 216.0 218.0 217.0 231.0 280.0 321.0 285.0 213.0 132.0 -65.0 -436.0,83 84 81 79 87 106 110 116 109 111 114 117 119 116 114,83 83 76 80 89 73 71 67 89 94 96 89 94 90 81,81 80 80 85 88 93 98 105 110 116 123 128 133 136 141,66 67 67 66 70 73 65 72 69 69 44 52 57 60 65,52 52 53 52 52 53 55 44 53 51 58 61 56 54 51,4→2
21,2230.0 485.0 503.0 157.0 451.0 256.0 268.0 -84.0 -31.0 -199.0 -359.0 -513.0 -562.0 -590.0 -129.0,-1989.0 -756.0 -775.0 -977.0 -914.0 -777.0 -223.0 -126.0 253.0 217.0 550.0 1311.0 2260.0 2753.0 2875.0,3166.0 1769.0 1799.0 1198.0 1112.0 476.0 536.0 71.0 -21.0 -373.0 -524.0 -936.0 -2221.0 -2486.0 -3310.0,171.0 -67.0 -313.0 -277.0 -121.0 3.0 61.0 33.0 13.0 34.0 133.0 79.0 -21.0 -46.0 -199.0,386.0 322.0 279.0 265.0 355.0 398.0 425.0 360.0 344.0 303.0 265.0 148.0 -50.0 -326.0 -738.0,-17.0 114.0 178.0 216.0 218.0 217.0 231.0 280.0 321.0 285.0 213.0 132.0 -65.0 -436.0 -789.0,84 81 79 87 106 110 116 109 111 114 117 119 116 114 107,83 76 80 89 73 71 67 89 94 96 89 94 90 81 79,80 80 85 88 93 98 105 110 116 123 128 133 136 141 145,67 67 66 70 73 65 72 69 69 44 52 57 60 65 68,52 53 52 52 53 55 44 53 51 58 61 56 54 51 51,4→2
22,6495.0 2523.0 593.0 176.0 236.0 363.0 278.0 200.0 -133.0 -9.0 -222.0 -566.0 -872.0 -791.0 -1184.0,-6541.0 -3175.0 -1466.0 -1448.0 -1328.0 -1042.0 -873.0 -421.0 -185.0 -124.0 367.0 605.0 1090.0 1460.0 2062.0,1837.0 1702.0 1274.0 1050.0 711.0 609.0 453.0 279.0 158.0 -146.0 -417.0 -659.0 -1299.0 -2289.0 -3941.0,-105.0 322.0 6.0 -130.0 -42.0 36.0 102.0 128.0 136.0 136.0 153.0 110.0 70.0 115.0 228.0,-275.0 334.0 307.0 177.0 213.0 293.0 327.0 370.0 300.0 324.0 301.0 203.0 47.0 -183.0 -673.0,-30.0 98.0 176.0 219.0 208.0 215.0 265.0 303.0 326.0 322.0 279.0 207.0 102.0 -97.0 -397.0,113 99 103 112 116 116 118 120 117 115 119 104 88 72 69,83 67 81 86 103 108 106 96 98 95 85 82 64 61 44,146 143 145 144 143 142 137 127 108 99 93 83 78 72 68,76 66 70 65 62 73 71 76 70 64 55 47 53 73 78,54 53 58 58 57 59 61 63 71 66 59 56 54 42 46,2→4
23,6332.0 4254.0 2154.0 912.0 547.0 419.0 242.0 368.0 252.0 145.0 -7.0 -96.0 -368.0 -883.0 -846.0,-2718.0 -43.0 -596.0 -368.0 -592.0 -581.0 -455.0 -266.0 -89.0 -209.0 -84.0 15.0 685.0 624.0 1151.0,2630.0 6418.0 3771.0 2137.0 1545.0 1349.0 1229.0 935.0 598.0 535.0 272.0 7.0 -395.0 -772.0 -936.0,318.0 428.0 -19.0 -249.0 -382.0 -279.0 -171.0 -100.0 -100.0 -155.0 -124.0 -18.0 -1.0 39.0 -32.0,-1054.0 -68.0 290.0 191.0 192.0 227.0 292.0 376.0 428.0 410.0 377.0 302.0 262.0 149.0 34.0,-154.0 -158.0 -21.0 115.0 199.0 192.0 174.0 149.0 160.0 198.0 208.0 228.0 177.0 123.0 48.0,85 81 76 79 80 88 85 100 108 103 107 119 120 123 123,82 67 76 63 84 85 73 84 75 80 84 68 48 42 31,80 81 81 84 86 87 85 87 88 89 93 94 93 89 88,82 78 77 76 77 79 81 79 81 74 68 68 56 57 67,54 55 56 55 55 55 54 54 55 56 48 62 59 58 57,4→0
24,4254.0 2154.0 912.0 547.0 419.0 242.0 368.0 252.0 145.0 -7.0 -96.0 -368.0 -883.0 -846.0 -571.0,-43.0 -596.0 -368.0 -592.0 -581.0 -455.0 -266.0 -89.0 -209.0 -84.0 15.0 685.0 624.0 1151.0 1915.0,6418.0 3771.0 2137.0 1545.0 1349.0 1229.0 935.0 598.0 535.0 272.0 7.0 -395.0 -772.0 -936.0 -1218.0,428.0 -19.0 -249.0 -382.0 -279.0 -171.0 -100.0 -100.0 -155.0 -124.0 -18.0 -1.0 39.0 -32.0 8.0,-68.0 290.0 191.0 192.0 227.0 292.0 376.0 428.0 410.0 377.0 302.0 262.0 149.0 34.0 -9.0,-158.0 -21.0 115.0 199.0 192.0 174.0 149.0 160.0 198.0 208.0 228.0 177.0 123.0 48.0 -121.0,81 76 79 80 88 85 100 108 103 107 119 120 123 123 127,67 76 63 84 85 73 84 75 80 84 68 48 42 31 29,81 81 84 86 87 85 87 88 89 93 94 93 89 88 82,78 77 76 77 79 81 79 81 74 68 68 56 57 67 61,55 56 55 55 55 54 54 55 56 48 62 59 58 57 52,4→0
25,2154.0 912.0 547.0 419.0 242.0 368.0 252.0 145.0 -7.0 -96.0 -368.0 -883.0 -846.0 -571.0 -617.0,-596.0 -368.0 -592.0 -581.0 -455.0 -266.0 -89.0 -209.0 -84.0 15.0 685.0 624.0 1151.0 1915.0 3818.0,3771.0 2137.0 1545.0 1349.0 1229.0 935.0 598.0 535.0 272.0 7.0 -395.0 -772.0 -936.0 -1218.0 -2910.0,-19.0 -249.0 -382.0 -279.0 -171.0 -100.0 -100.0 -155.0 -124.0 -18.0 -1.0 39.0 -32.0 8.0 108.0,290.0 191.0 192.0 227.0 292.0 376.0 428.0 410.0 377.0 302.0 262.0 149.0 34.0 -9.0 -203.0,-21.0 115.0 199.0 192.0 174.0 149.0 160.0 198.0 208.0 228.0 177.0 123.0 48.0 -121.0 -483.0,76 79 80 88 85 100 108 103 107 119 120 123 123 127 122,76 63 84 85 73 84 75 80 84 68 48 42 31 29 26,81 84 86 87 85 87 88 89 93 94 93 89 88 82 81,77 76 77 79 81 79 81 74 68 68 56 57 67 61 64,56 55 55 55 54 54 55 56 48 62 59 58 57 52 48,4→0
26,912.0 547.0 419.0 242.0 368.0 252.0 145.0 -7.0 -96.0 -368.0 -883.0 -846.0 -571.0 -617.0 610.0,-368.0 -592.0 -581.0 -455.0 -266.0 -89.0 -209.0 -84.0 15.0 685.0 624.0 1151.0 1915.0 3818.0 4306.0,2137.0 1545.0 1349.0 1229.0 935.0 598.0 535.0 272.0 7.0 -395.0 -772.0 -936.0 -1218.0 -2910.0 -4179.0,-249.0 -382.0 -279.0 -171.0 -100.0 -100.0 -155.0 -124.0 -18.0 -1.0 39.0 -32.0 8.0 108.0 -64.0,191.0 192.0 227.0 292.0 376.0 428.0 410.0 377.0 302.0 262.0 149.0 34.0 -9.0 -203.0 -697.0,115.0 199.0 192.0 174.0 149.0 160.0 198.0 208.0 228.0 177.0 123.0 48.0 -121.0 -483.0 -957.0,79 80 88 85 100 108 103 107 119 120 123 123 127 122 117,63 84 85 73 84 75 80 84 68 48 42 31 29 26 27,84 86 87 85 87 88 89 93 94 93 89 88 82 81 77,76 77 79 81 79 81 74 68 68 56 57 67 61 64 77,55 55 55 54 54 55 56 48 62 59 58 57 52 48 51,4→0
27,8303.0 8072.0 1715.0 -1211.0 -870.0 -518.0 -209.0 4.0 -88.0 -264.0 -265.0 -278.0 -111.0 153.0 770.0,893.0 -11021.0 -3726.0 -137.0 -744.0 -617.0 -679.0 -562.0 -459.0 -471.0 -579.0 -712.0 -689.0 -1254.0 -1964.0,800.0 4250.0 703.0 736.0 770.0 623.0 373.0 1003.0 925.0 692.0 517.0 332.0 511.0 620.0 970.0,-176.0 64.0 519.0 68.0 54.0 189.0 192.0 119.0 148.0 174.0 151.0 199.0 206.0 178.0 140.0,-1086.0 168.0 380.0 165.0 86.0 51.0 -35.0 4.0 46.0 70.0 68.0 16.0 -11.0 -47.0 -77.0,-1061.0 -46.0 235.0 139.0 34.0 2.0 -19.0 -2.0 -21.0 -31.0 -42.0 -35.0 -41.0 -16.0 114.0,95 90 101 92 101 99 113 106 111 112 115 111 111 111 112,27 29 24 31 33 36 38 42 43 41 36 35 39 40 40,78 77 67 76 77 78 79 79 79 79 77 78 77 68 77,76 79 79 77 78 79 81 81 81 80 81 79 80 81 80,51 48 54 53 54 54 54 53 53 56 53 48 53 53 53,0→5
28,3520.0 2746.0 427.0 454.0 4.0 -72.0 -245.0 -846.0 -772.0 -1100.0 -807.0 -1028.0 -814.0 -717.0 -600.0,-771.0 2016.0 5409.0 3208.0 1805.0 -116.0 -1152.0 -501.0 -626.0 -703.0 -234.0 326.0 327.0 1082.0 1852.0,2201.0 2252.0 1725.0 1669.0 1265.0 1087.0 348.0 61.0 122.0 271.0 104.0 9.0 239.0 -533.0 -1558.0,-486.0 -271.0 -66.0 30.0 -28.0 -106.0 109.0 127.0 121.0 171.0 109.0 104.0 95.0 50.0 57.0,226.0 300.0 386.0 462.0 408.0 322.0 279.0 174.0 151.0 133.0 123.0 125.0 155.0 126.0 -29.0,1007.0 869.0 208.0 28.0 -97.0 -140.0 -85.0 -39.0 -46.0 19.0 53.0 20.0 10.0 -16.0 -213.0,147 146 146 145 146 145 141 143 138 130 131 130 127 128 127,42 40 30 39 42 41 35 37 46 41 41 55 60 72 76,76 75 77 80 80 81 83 87 96 101 113 117 120 121 124,82 80 74 73 76 76 76 78 49 0 37 69 93 100 104,53 51 49 50 50 53 56 60 69 84 91 97 93 91 91,5→1
29,2746.0 427.0 454.0 4.0 -72.0 -245.0 -846.0 -772.0 -1100.0 -807.0 -1028.0 -814.0 -717.0 -600.0 -664.0,2016.0 5409.0 3208.0 1805.0 -116.0 -1152.0 -501.0 -626.0 -703.0 -234.0 326.0 327.0 1082.0 1852.0 2050.0,2252.0 1725.0 1669.0 1265.0 1087.0 348.0 61.0 122.0 271.0 104.0 9.0 239.0 -533.0 -1558.0 -2092.0,-271.0 -66.0 30.0 -28.0 -106.0 109.0 127.0 121.0 171.0 109.0 104.0 95.0 50.0 57.0 -153.0,300.0 386.0 462.0 408.0 322.0 279.0 174.0 151.0 133.0 123.0 125.0 155.0 126.0 -29.0 -223.0,869.0 208.0 28.0 -97.0 -140.0 -85.0 -39.0 -46.0 19.0 53.0 20.0 10.0 -16.0 -213.0 -518.0,146 146 145 146 145 141 143 138 130 131 130 127 128 127 130,40 30 39 42 41 35 37 46 41 41 55 60 72 76 75,75 77 80 80 81 83 87 96 101 113 117 120 121 124 127,80 74 73 76 76 76 78 49 0 37 69 93 100 104 103,51 49 50 50 53 56 60 69 84 91 97 93 91 91 95,5→1
30,427.0 454.0 4.0 -72.0 -245.0 -846.0 -772.0 -1100.0 -807.0 -1028.0 -814.0 -717.0 -600.0 -664.0 -800.0,5409.0 3208.0 1805.0 -116.0 -1152.0 -501.0 -626.0 -703.0 -234.0 326.0 327.0 1082.0 1852.0 2050.0 1631.0,1725.0 1669.0 1265.0 1087.0 348.0 61.0 122.0 271.0 104.0 9.0 239.0 -533.0 -1558.0 -2092.0 -2493.0,-66.0 30.0 -28.0 -106.0 109.0 127.0 121.0 171.0 109.0 104.0 95.0 50.0 57.0 -153.0 -234.0,386.0 462.0 408.0 322.0 279.0 174.0 151.0 133.0 123.0 125.0 155.0 126.0 -29.0 -223.0 -370.0,208.0 28.0 -97.0 -140.0 -85.0 -39.0 -46.0 19.0 53.0 20.0 10.0 -16.0 -213.0 -518.0 -806.0,146 145 146 145 141 143 138 130 131 130 127 128 127 130 132,30 39 42 41 35 37 46 41 41 55 60 72 76 75 68,77 80 80 81 83 87 96 101 113 117 120 121 124 127 130,74 73 76 76 76 78 49 0 37 69 93 100 104 103 103,49 50 50 53 56 60 69 84 91 97 93 91 91 95 97,5→1
31,6863.0 4639.0 700.0 -523.0 -456.0 -204.0 -192.0 -318.0 -580.0 -578.0 -663.0 -470.0 -626.0 -259.0 661.0,-6520.0 -6010.0 -1240.0 -434.0 -673.0 -855.0 -906.0 -143.0 -145.0 -334.0 -299.0 -197.0 -227.0 -97.0 -1422.0,-36.0 1872.0 1727.0 717.0 1243.0 387.0 613.0 1105.0 408.0 428.0 318.0 536.0 109.0 786.0 1012.0,-497.0 598.0 308.0 -74.0 -73.0 -15.0 174.0 150.0 234.0 152.0 117.0 251.0 337.0 374.0 361.0,-775.0 33.0 421.0 296.0 15.0 39.0 119.0 281.0 158.0 106.0 58.0 37.0 -12.0 -115.0 -70.0,-504.0 98.0 148.0 137.0 70.0 68.0 80.0 58.0 40.0 17.0 -5.0 -31.0 -53.0 -77.0 -52.0,141 133 130 139 144 142 145 143 134 138 139 135 130 130 130,102 59 68 80 99 93 78 60 83 56 45 35 36 42 0,143 142 138 136 139 141 140 136 131 127 123 114 103 93 85,112 108 107 107 110 110 106 97 74 85 51 48 91 69 82,109 111 109 108 109 110 108 106 98 93 87 60 57 45 43,1→5
32,2396.0 2149.0 1759.0 1063.0 243.0 -13.0 -383.0 -386.0 -499.0 -548.0 -821.0 -687.0 -539.0 -673.0 -943.0,-3533.0 -2768.0 -210.0 3075.0 4047.0 3552.0 2437.0 369.0 -494.0 -679.0 -810.0 -635.0 -396.0 91.0 377.0,2528.0 2472.0 1196.0 1974.0 1592.0 1022.0 1039.0 1096.0 912.0 124.0 366.0 34.0 307.0 193.0 -61.0,-189.0 -318.0 -211.0 -251.0 206.0 160.0 13.0 -88.0 -78.0 0.0 18.0 77.0 134.0 156.0 107.0,58.0 198.0 105.0 130.0 277.0 306.0 260.0 211.0 177.0 224.0 178.0 193.0 220.0 243.0 237.0,292.0 590.0 807.0 668.0 189.0 61.0 -139.0 -201.0 -142.0 -125.0 -100.0 -18.0 28.0 41.0 17.0,143 144 144 142 143 143 143 142 143 138 136 134 135 135 133,40 37 37 35 34 38 40 47 43 47 55 60 54 68 78,77 79 79 81 84 84 85 92 95 104 111 116 119 120 124,77 76 77 73 71 63 62 73 70 76 75 66 72 75 74,55 54 54 51 44 51 52 50 54 54 50 57 58 58 58,5→2
33,2149.0 1759.0 1063.0 243.0 -13.0 -383.0 -386.0 -499.0 -548.0 -821.0 -687.0 -539.0 -673.0 -943.0 -886.0,-2768.0 -210.0 3075.0 4047.0 3552.0 2437.0 369.0 -494.0 -679.0 -810.0 -635.0 -396.0 91.0 377.0 550.0,2472.0 1196.0 1974.0 1592.0 1022.0 1039.0 1096.0 912.0 124.0 366.0 34.0 307.0 193.0 -61.0 -188.0,-318.0 -211.0 -251.0 206.0 160.0 13.0 -88.0 -78.0 0.0 18.0 77.0 134.0 156.0 107.0 84.0,198.0 105.0 130.0 277.0 306.0 260.0 211.0 177.0 224.0 178.0 193.0 220.0 243.0 237.0 165.0,590.0 807.0 668.0 189.0 61.0 -139.0 -201.0 -142.0 -125.0 -100.0 -18.0 28.0 41.0 17.0 -73.0,144 144 142 143 143 143 142 143 138 136 134 135 135 133 134,37 37 35 34 38 40 47 43 47 55 60 54 68 78 81,79 79 81 84 84 85 92 95 104 111 116 119 120 124 128,76 77 73 71 63 62 73 70 76 75 66 72 75 74 74,54 54 51 44 51 52 50 54 54 50 57 58 58 58 60,5→2
34,1759.0 1063.0 243.0 -13.0 -383.0 -386.0 -499.0 -548.0 -821.0 -687.0 -539.0 -673.0 -943.0 -886.0 -604.0,-210.0 3075.0 4047.0 3552.0 2437.0 369.0 -494.0 -679.0 -810.0 -635.0 -396.0 91.0 377.0 550.0 976.0,1196.0 1974.0 1592.0 1022.0 1039.0 1096.0 912.0 124.0 366.0 34.0 307.0 193.0 -61.0 -188.0 -607.0,-211.0 -251.0 206.0 160.0 13.0 -88.0 -78.0 0.0 18.0 77.0 134.0 156.0 107.0 84.0 25.0,105.0 130.0 277.0 306.0 260.0 211.0 177.0 224.0 178.0 193.0 220.0 243.0 237.0 165.0 109.0,807.0 668.0 189.0 61.0 -139.0 -201.0 -142.0 -125.0 -100.0 -18.0 28.0 41.0 17.0 -73.0 -145.0,144 142 143 143 143 142 143 138 136 134 135 135 133 134 132,37 35 34 38 40 47 43 47 55 60 54 68 78 81 83,79 81 84 84 85 92 95 104 111 116 119 120 124 128 131,77 73 71 63 62 73 70 76 75 66 72 75 74 74 75,54 51 44 51 52 50 54 54 50 57 58 58 58 60 59,5→2
35,1063.0 243.0 -13.0 -383.0 -386.0 -499.0 -548.0 -821.0 -687.0 -539.0 -673.0 -943.0 -886.0 -604.0 -341.0,3075.0 4047.0 3552.0 2437.0 369.0 -494.0 -679.0 -810.0 -635.0 -396.0 91.0 377.0 550.0 976.0 2043.0,1974.0 1592.0 1022.0 1039.0 1096.0 912.0 124.0 366.0 34.0 307.0 193.0 -61.0 -188.0 -607.0 -2066.0,-251.0 206.0 160.0 13.0 -88.0 -78.0 0.0 18.0 77.0 134.0 156.0 107.0 84.0 25.0 34.0,130.0 277.0 306.0 260.0 211.0 177.0 224.0 178.0 193.0 220.0 243.0 237.0 165.0 109.0 -34.0,668.0 189.0 61.0 -139.0 -201.0 -142.0 -125.0 -100.0 -18.0 28.0 41.0 17.0 -73.0 -145.0 -349.0,142 143 143 143 142 143 138 136 134 135 135 133 134 132 123,35 34 38 40 47 43 47 55 60 54 68 78 81 83 80,81 84 84 85 92 95 104 111 116 119 120 124 128 131 134,73 71 63 62 73 70 76 75 66 72 75 74 74 75 61,51 44 51 52 50 54 54 50 57 58 58 58 60 59 55,5→2
36,243.0 -13.0 -383.0 -386.0 -499.0 -548.0 -821.0 -687.0 -539.0 -673.0 -943.0 -886.0 -604.0 -341.0 -395.0,4047.0 3552.0 2437.0 369.0 -494.0 -679.0 -810.0 -635.0 -396.0 91.0 377.0 550.0 976.0 2043.0 2932.0,1592.0 1022.0 1039.0 1096.0 912.0 124.0 366.0 34.0 307.0 193.0 -61.0 -188.0 -607.0 -2066.0 -3233.0,206.0 160.0 13.0 -88.0 -78.0 0.0 18.0 77.0 134.0 156.0 107.0 84.0 25.0 34.0 -24.0,277.0 306.0 260.0 211.0 177.0 224.0 178.0 193.0 220.0 243.0 237.0 165.0 109.0 -34.0 -384.0,189.0 61.0 -139.0 -201.0 -142.0 -125.0 -100.0 -18.0 28.0 41.0 17.0 -73.0 -145.0 -349.0 -697.0,143 143 143 142 143 138 136 134 135 135 133 134 132 123 105,34 38 40 47 43 47 55 60 54 68 78 81 83 80 81,84 84 85 92 95 104 111 116 119 120 124 128 131 134 140,71 63 62 73 70 76 75 66 72 75 74 74 75 61 43,44 51 52 50 54 54 50 57 58 58 58 60 59 55 49,5→2
37,-13.0 -383.0 -386.0 -499.0 -548.0 -821.0 -687.0 -539.0 -673.0 -943.0 -886.0 -604.0 -341.0 -395.0 297.0,3552.0 2437.0 369.0 -494.0 -679.0 -810.0 -635.0 -396.0 91.0 377.0 550.0 976.0 2043.0 2932.0 2186.0,1022.0 1039.0 1096.0 912.0 124.0 366.0 34.0 307.0 193.0 -61.0 -188.0 -607.0 -2066.0 -3233.0 -3265.0,160.0 13.0 -88.0 -78.0 0.0 18.0 77.0 134.0 156.0 107.0 84.0 25.0 34.0 -24.0 11.0,306.0 260.0 211.0 177.0 224.0 178.0 193.0 220.0 243.0 237.0 165.0 109.0 -34.0 -384.0 -952.0,61.0 -139.0 -201.0 -142.0 -125.0 -100.0 -18.0 28.0 41.0 17.0 -73.0 -145.0 -349.0 -697.0 -946.0,143 143 142 143 138 136 134 135 135 133 134 132 123 105 98,38 40 47 43 47 55 60 54 68 78 81 83 80 81 78,84 85 92 95 104 111 116 119 120 124 128 131 134 140 141,63 62 73 70 76 75 66 72 75 74 74 75 61 43 47,51 52 50 54 54 50 57 58 58 58 60 59 55 49 40,5→2
38,5855.0 4007.0 160.0 -382.0 -253.0 -1.0 169.0 36.0 -223.0 -668.0 -190.0 -351.0 -189.0 542.0 1469.0,-5000.0 -3602.0 -1110.0 -772.0 -553.0 -513.0 -750.0 -481.0 -169.0 -103.0 -402.0 -345.0 -674.0 -1342.0 -2653.0,2102.0 2998.0 1494.0 1030.0 918.0 1257.0 1218.0 951.0 566.0 648.0 976.0 762.0 609.0 1312.0 1810.0,73.0 155.0 229.0 33.0 36.0 133.0 250.0 283.0 238.0 195.0 278.0 295.0 264.0 133.0 -42.0,-812.0 60.0 260.0 102.0 17.0 108.0 229.0 258.0 212.0 127.0 136.0 130.0 49.0 43.0 76.0,-400.0 82.0 58.0 73.0 24.0 -55.0 -71.0 -49.0 -34.0 -69.0 -80.0 -34.0 5.0 105.0 318.0,115 115 115 117 117 116 121 125 126 127 130 131 133 135 139,63 74 98 86 88 87 82 78 79 62 62 41 35 38 34,142 142 137 144 142 142 144 142 141 141 136 122 103 93 82,81 69 75 83 51 81 68 78 68 76 79 82 80 74 84,49 42 48 52 53 49 48 48 46 47 50 48 52 54 56,2→5
39,2288.0 1824.0 1507.0 48.0 291.0 -446.0 -309.0 -667.0 -704.0 -590.0 -430.0 -888.0 -969.0 -605.0 -392.0,-1697.0 1181.0 1335.0 3135.0 2142.0 1880.0 396.0 87.0 195.0 264.0 -274.0 92.0 624.0 771.0 1687.0,2570.0 1946.0 2391.0 1371.0 1608.0 1354.0 911.0 481.0 476.0 436.0 347.0 -236.0 -778.0 -738.0 -1243.0,-341.0 -645.0 -441.0 59.0 206.0 41.0 16.0 105.0 127.0 124.0 12.0 123.0 41.0 50.0 -16.0,200.0 235.0 233.0 297.0 353.0 352.0 310.0 252.0 252.0 291.0 273.0 261.0 153.0 76.0 2.0,656.0 770.0 670.0 272.0 109.0 -11.0 -32.0 -47.0 -74.0 -104.0 -104.0 -91.0 -66.0 -91.0 -204.0,148 149 148 149 148 146 144 141 137 133 131 129 126 133 136,38 43 39 41 46 49 47 45 43 36 45 44 41 41 44,83 83 85 89 90 89 85 84 85 86 82 80 79 74 73,84 82 80 75 71 66 60 63 64 0 0 67 75 49 50,53 53 53 47 52 52 53 54 56 58 58 65 64 60 56,5→0
40,1824.0 1507.0 48.0 291.0 -446.0 -309.0 -667.0 -704.0 -590.0 -430.0 -888.0 -969.0 -605.0 -392.0 -478.0,1181.0 1335.0 3135.0 2142.0 1880.0 396.0 87.0 195.0 264.0 -274.0 92.0 624.0 771.0 1687.0 3183.0,1946.0 2391.0 1371.0 1608.0 1354.0 911.0 481.0 476.0 436.0 347.0 -236.0 -778.0 -738.0 -1243.0 -2230.0,-645.0 -441.0 59.0 206.0 41.0 16.0 105.0 127.0 124.0 12.0 123.0 41.0 50.0 -16.0 -2.0,235.0 233.0 297.0 353.0 352.0 310.0 252.0 252.0 291.0 273.0 261.0 153.0 76.0 2.0 -148.0,770.0 670.0 272.0 109.0 -11.0 -32.0 -47.0 -74.0 -104.0 -104.0 -91.0 -66.0 -91.0 -204.0 -533.0,149 148 149 148 146 144 141 137 133 131 129 126 133 136 120,43 39 41 46 49 47 45 43 36 45 44 41 41 44 30,83 85 89 90 89 85 84 85 86 82 80 79 74 73 74,82 80 75 71 66 60 63 64 0 0 67 75 49 50 55,53 53 47 52 52 53 54 56 58 58 65 64 60 56 43,5→0
41,1507.0 48.0 291.0 -446.0 -309.0 -667.0 -704.0 -590.0 -430.0 -888.0 -969.0 -605.0 -392.0 -478.0 1279.0,1335.0 3135.0 2142.0 1880.0 396.0 87.0 195.0 264.0 -274.0 92.0 624.0 771.0 1687.0 3183.0 2513.0,2391.0 1371.0 1608.0 1354.0 911.0 481.0 476.0 436.0 347.0 -236.0 -778.0 -738.0 -1243.0 -2230.0 -3221.0,-441.0 59.0 206.0 41.0 16.0 105.0 127.0 124.0 12.0 123.0 41.0 50.0 -16.0 -2.0 -23.0,233.0 297.0 353.0 352.0 310.0 252.0 252.0 291.0 273.0 261.0 153.0 76.0 2.0 -148.0 -609.0,670.0 272.0 109.0 -11.0 -32.0 -47.0 -74.0 -104.0 -104.0 -91.0 -66.0 -91.0 -204.0 -533.0 -870.0,148 149 148 146 144 141 137 133 131 129 126 133 136 120 104,39 41 46 49 47 45 43 36 45 44 41 41 44 30 22,85 89 90 89 85 84 85 86 82 80 79 74 73 74 72,80 75 71 66 60 63 64 0 0 67 75 49 50 55 44,53 47 52 52 53 54 56 58 58 65 64 60 56 43 42,5→0
42,9561.0 1677.0 -351.0 44.0 65.0 -171.0 -94.0 -99.0 -205.0 -93.0 -48.0 -413.0 -547.0 -769.0 -1583.0,-9268.0 -2414.0 -752.0 -1634.0 -1262.0 -393.0 -408.0 -254.0 359.0 40.0 171.0 505.0 1089.0 1932.0 2891.0,6142.0 1367.0 719.0 1038.0 1104.0 891.0 681.0 613.0 704.0 736.0 689.0 451.0 388.0 136.0 -490.0,343.0 737.0 139.0 -33.0 215.0 274.0 230.0 214.0 213.0 164.0 157.0 198.0 183.0 121.0 128.0,-461.0 418.0 260.0 56.0 19.0 28.0 47.0 44.0 51.0 80.0 124.0 90.0 35.0 -14.0 -101.0,-43.0 -12.0 181.0 184.0 171.0 119.0 141.0 175.0 136.0 122.0 152.0 124.0 89.0 2.0 -138.0,93 117 93 105 116 129 130 115 134 136 128 137 137 134 138,24 31 32 38 41 27 34 40 40 33 36 34 31 40 42,78 74 75 80 80 79 79 77 77 75 77 77 75 75 75,68 63 52 66 63 45 48 33 27 48 35 51 41 43 57,48 40 50 52 50 51 53 54 56 65 79 83 88 95 101,0→6
43,1677.0 -351.0 44.0 65.0 -171.0 -94.0 -99.0 -205.0 -93.0 -48.0 -413.0 -547.0 -769.0 -1583.0 -1827.0,-2414.0 -752.0 -1634.0 -1262.0 -393.0 -408.0 -254.0 359.0 40.0 171.0 505.0 1089.0 1932.0 2891.0 3142.0,1367.0 719.0 1038.0 1104.0 891.0 681.0 613.0 704.0 736.0 689.0 451.0 388.0 136.0 -490.0 -658.0,737.0 139.0 -33.0 215.0 274.0 230.0 214.0 213.0 164.0 157.0 198.0 183.0 121.0 128.0 117.0,418.0 260.0 56.0 19.0 28.0 47.0 44.0 51.0 80.0 124.0 90.0 35.0 -14.0 -101.0 -214.0,-12.0 181.0 184.0 171.0 119.0 141.0 175.0 136.0 122.0 152.0 124.0 89.0 2.0 -138.0 -293.0,117 93 105 116 129 130 115 134 136 128 137 137 134 138 136,31 32 38 41 27 34 40 40 33 36 34 31 40 42 40,74 75 80 80 79 79 77 77 75 77 77 75 75 75 72,63 52 66 63 45 48 33 27 48 35 51 41 43 57 58,40 50 52 50 51 53 54 56 65 79 83 88 95 101 106,0→6
44,-351.0 44.0 65.0 -171.0 -94.0 -99.0 -205.0 -93.0 -48.0 -413.0 -547.0 -769.0 -1583.0 -1827.0 -891.0,-752.0 -1634.0 -1262.0 -393.0 -408.0 -254.0 359.0 40.0 171.0 505.0 1089.0 1932.0 2891.0 3142.0 2411.0,719.0 1038.0 1104.0 891.0 681.0 613.0 704.0 736.0 689.0 451.0 388.0 136.0 -490.0 -658.0 -203.0,139.0 -33.0 215.0 274.0 230.0 214.0 213.0 164.0 157.0 198.0 183.0 121.0 128.0 117.0 79.0,260.0 56.0 19.0 28.0 47.0 44.0 51.0 80.0 124.0 90.0 35.0 -14.0 -101.0 -214.0 -334.0,181.0 184.0 171.0 119.0 141.0 175.0 136.0 122.0 152.0 124.0 89.0 2.0 -138.0 -293.0 -374.0,93 105 116 129 130 115 134 136 128 137 137 134 138 136 136,32 38 41 27 34 40 40 33 36 34 31 40 42 40 39,75 80 80 79 79 77 77 75 77 77 75 75 75 72 73,52 66 63 45 48 33 27 48 35 51 41 43 57 58 54,50 52 50 51 53 54 56 65 79 83 88 95 101 106 110,0→6
45,44.0 65.0 -171.0 -94.0 -99.0 -205.0 -93.0 -48.0 -413.0 -547.0 -769.0 -1583.0 -1827.0 -891.0 970.0,-1634.0 -1262.0 -393.0 -408.0 -254.0 359.0 40.0 171.0 505.0 1089.0 1932.0 2891.0 3142.0 2411.0 606.0,1038.0 1104.0 891.0 681.0 613.0 704.0 736.0 689.0 451.0 388.0 136.0 -490.0 -658.0 -203.0 937.0,-33.0 215.0 274.0 230.0 214.0 213.0 164.0 157.0 198.0 183.0 121.0 128.0 117.0 79.0 81.0,56.0 19.0 28.0 47.0 44.0 51.0 80.0 124.0 90.0 35.0 -14.0 -101.0 -214.0 -334.0 -340.0,184.0 171.0 119.0 141.0 175.0 136.0 122.0 152.0 124.0 89.0 2.0 -138.0 -293.0 -374.0 -323.0,105 116 129 130 115 134 136 128 137 137 134 138 136 136 135,38 41 27 34 40 40 33 36 34 31 40 42 40 39 38,80 80 79 79 77 77 75 77 77 75 75 75 72 73 72,66 63 45 48 33 27 48 35 51 41 43 57 58 54 65,52 50 51 53 54 56 65 79 83 88 95 101 106 110 112,0→6
46,3953.0 3360.0 1172.0 198.0 -295.0 -170.0 196.0 -213.0 -309.0 -690.0 -855.0 -794.0 -709.0 -486.0 -513.0,-2255.0 -2696.0 -1171.0 -684.0 582.0 367.0 107.0 484.0 657.0 556.0 322.0 446.0 814.0 1059.0 1711.0,3084.0 3291.0 2802.0 921.0 1450.0 875.0 1483.0 839.0 416.0 -156.0 14.0 239.0 -6.0 -852.0 -1951.0,-112.0 -87.0 -267.0 -216.0 -230.0 -235.0 -128.0 -91.0 -37.0 -62.0 -27.0 11.0 8.0 -35.0 -27.0,-385.0 118.0 323.0 307.0 226.0 232.0 347.0 368.0 378.0 284.0 166.0 139.0 154.0 114.0 -31.0,-84.0 18.0 122.0 215.0 243.0 248.0 230.0 227.0 235.0 227.0 202.0 123.0 53.0 4.0 -88.0,97 119 129 123 107 111 126 129 128 126 114 117 120 113 120,21 32 37 42 43 42 41 34 41 41 54 58 61 69 80,79 79 81 80 81 83 87 91 100 113 120 120 120 124 123,63 73 83 74 77 72 68 72 63 91 102 101 101 101 100,116 116 117 115 115 113 111 108 102 102 99 99 101 104 105,6→1
47,3360.0 1172.0 198.0 -295.0 -170.0 196.0 -213.0 -309.0 -690.0 -855.0 -794.0 -709.0 -486.0 -513.0 -1005.0,-2696.0 -1171.0 -684.0 582.0 367.0 107.0 484.0 657.0 556.0 322.0 446.0 814.0 1059.0 1711.0 2238.0,3291.0 2802.0 921.0 1450.0 875.0 1483.0 839.0 416.0 -156.0 14.0 239.0 -6.0 -852.0 -1951.0 -2876.0,-87.0 -267.0 -216.0 -230.0 -235.0 -128.0 -91.0 -37.0 -62.0 -27.0 11.0 8.0 -35.0 -27.0 -111.0,118.0 323.0 307.0 226.0 232.0 347.0 368.0 378.0 284.0 166.0 139.0 154.0 114.0 -31.0 -296.0,18.0 122.0 215.0 243.0 248.0 230.0 227.0 235.0 227.0 202.0 123.0 53.0 4.0 -88.0 -343.0,119 129 123 107 111 126 129 128 126 114 117 120 113 120 118,32 37 42 43 42 41 34 41 41 54 58 61 69 80 75,79 81 80 81 83 87 91 100 113 120 120 120 124 123 125,73 83 74 77 72 68 72 63 91 102 101 101 101 100 101,116 117 115 115 113 111 108 102 102 99 99 101 104 105 110,6→1
48,1172.0 198.0 -295.0 -170.0 196.0 -213.0 -309.0 -690.0 -855.0 -794.0 -709.0 -486.0 -513.0 -1005.0 -5147.0,-1171.0 -684.0 582.0 367.0 107.0 484.0 657.0 556.0 322.0 446.0 814.0 1059.0 1711.0 2238.0 2389.0,2802.0 921.0 1450.0 875.0 1483.0 839.0 416.0 -156.0 14.0 239.0 -6.0 -852.0 -1951.0 -2876.0 -2616.0,-267.0 -216.0 -230.0 -235.0 -128.0 -91.0 -37.0 -62.0 -27.0 11.0 8.0 -35.0 -27.0 -111.0 -291.0,323.0 307.0 226.0 232.0 347.0 368.0 378.0 284.0 166.0 139.0 154.0 114.0 -31.0 -296.0 -590.0,122.0 215.0 243.0 248.0 230.0 227.0 235.0 227.0 202.0 123.0 53.0 4.0 -88.0 -343.0 -682.0,129 123 107 111 126 129 128 126 114 117 120 113 120 118 121,37 42 43 42 41 34 41 41 54 58 61 69 80 75 78,81 80 81 83 87 91 100 113 120 120 120 124 123 125 129,83 74 77 72 68 72 63 91 102 101 101 101 100 101 104,117 115 115 113 111 108 102 102 99 99 101 104 105 110 110,6→1
49,7592.0 3935.0 3039.0 -301.0 -764.0 -753.0 -185.0 40.0 78.0 -96.0 -230.0 -447.0 -426.0 -563.0 -920.0,-2404.0 -6506.0 -3942.0 -504.0 -447.0 -930.0 -1202.0 -793.0 -389.0 -378.0 99.0 488.0 663.0 1067.0 2478.0,1553.0 833.0 539.0 -1645.0 353.0 583.0 564.0 341.0 315.0 260.0 147.0 239.0 468.0 285.0 234.0,-620.0 -80.0 561.0 64.0 248.0 224.0 136.0 248.0 140.0 297.0 327.0 238.0 202.0 255.0 217.0,-1030.0 -209.0 347.0 181.0 184.0 91.0 83.0 148.0 188.0 115.0 70.0 26.0 -4.0 -25.0 -41.0,-756.0 90.0 261.0 224.0 167.0 130.0 171.0 200.0 220.0 209.0 203.0 189.0 131.0 117.0 -1.0,129 135 124 119 123 132 123 116 117 113 111 112 112 112 112,78 100 43 71 47 54 48 29 26 30 30 38 38 34 39,139 141 135 122 118 108 103 96 89 85 85 86 88 88 88,108 109 108 104 100 71 55 66 77 82 71 86 95 96 95,116 117 116 116 118 118 99 114 111 98 98 107 110 114 115,1→6
50,3935.0 3039.0 -301.0 -764.0 -753.0 -185.0 40.0 78.0 -96.0 -230.0 -447.0 -426.0 -563.0 -920.0 -1861.0,-6506.0 -3942.0 -504.0 -447.0 -930.0 -1202.0 -793.0 -389.0 -378.0 99.0 488.0 663.0 1067.0 2478.0 3247.0,833.0 539.0 -1645.0 353.0 583.0 564.0 341.0 315.0 260.0 147.0 239.0 468.0 285.0 234.0 -693.0,-80.0 561.0 64.0 248.0 224.0 136.0 248.0 140.0 297.0 327.0 238.0 202.0 255.0 217.0 135.0,-209.0 347.0 181.0 184.0 91.0 83.0 148.0 188.0 115.0 70.0 26.0 -4.0 -25.0 -41.0 -88.0,90.0 261.0 224.0 167.0 130.0 171.0 200.0 220.0 209.0 203.0 189.0 131.0 117.0 -1.0 -136.0,135 124 119 123 132 123 116 117 113 111 112 112 112 112 111,100 43 71 47 54 48 29 26 30 30 38 38 34 39 34,141 135 122 118 108 103 96 89 85 85 86 88 88 88 86,109 108 104 100 71 55 66 77 82 71 86 95 96 95 94,117 116 116 118 118 99 114 111 98 98 107 110 114 115 117,1→6
51,3039.0 -301.0 -764.0 -753.0 -185.0 40.0 78.0 -96.0 -230.0 -447.0 -426.0 -563.0 -920.0 -1861.0 -1707.0,-3942.0 -504.0 -447.0 -930.0 -1202.0 -793.0 -389.0 -378.0 99.0 488.0 663.0 1067.0 2478.0 3247.0 3072.0,539.0 -1645.0 353.0 583.0 564.0 341.0 315.0 260.0 147.0 239.0 468.0 285.0 234.0 -693.0 -862.0,561.0 64.0 248.0 224.0 136.0 248.0 140.0 297.0 327.0 238.0 202.0 255.0 217.0 135.0 86.0,347.0 181.0 184.0 91.0 83.0 148.0 188.0 115.0 70.0 26.0 -4.0 -25.0 -41.0 -88.0 -232.0,261.0 224.0 167.0 130.0 171.0 200.0 220.0 209.0 203.0 189.0 131.0 117.0 -1.0 -136.0 -317.0,124 119 123 132 123 116 117 113 111 112 112 112 112 111 102,43 71 47 54 48 29 26 30 30 38 38 34 39 34 36,135 122 118 108 103 96 89 85 85 86 88 88 88 86 85,108 104 100 71 55 66 77 82 71 86 95 96 95 94 92,116 116 118 118 99 114 111 98 98 107 110 114 115 117 119,1→6
52,-301.0 -764.0 -753.0 -185.0 40.0 78.0 -96.0 -230.0 -447.0 -426.0 -563.0 -920.0 -1861.0 -1707.0 -421.0,-504.0 -447.0 -930.0 -1202.0 -793.0 -389.0 -378.0 99.0 488.0 663.0 1067.0 2478.0 3247.0 3072.0 1936.0,-1645.0 353.0 583.0 564.0 341.0 315.0 260.0 147.0 239.0 468.0 285.0 234.0 -693.0 -862.0 -150.0,64.0 248.0 224.0 136.0 248.0 140.0 297.0 327.0 238.0 202.0 255.0 217.0 135.0 86.0 116.0,181.0 184.0 91.0 83.0 148.0 188.0 115.0 70.0 26.0 -4.0 -25.0 -41.0 -88.0 -232.0 -367.0,224.0 167.0 130.0 171.0 200.0 220.0 209.0 203.0 189.0 131.0 117.0 -1.0 -136.0 -317.0 -354.0,119 123 132 123 116 117 113 111 112 112 112 112 111 102 117,71 47 54 48 29 26 30 30 38 38 34 39 34 36 37,122 118 108 103 96 89 85 85 86 88 88 88 86 85 87,104 100 71 55 66 77 82 71 86 95 96 95 94 92 94,116 118 118 99 114 111 98 98 107 110 114 115 117 119 118,1→6
53,3481.0 1680.0 569.0 -357.0 -855.0 -695.0 -437.0 -678.0 -529.0 -634.0 -590.0 -593.0 -726.0 -911.0 -927.0,-3386.0 -2539.0 -1542.0 -545.0 725.0 600.0 206.0 100.0 353.0 200.0 -33.0 152.0 108.0 1202.0 2108.0,3367.0 2113.0 1403.0 1083.0 1132.0 1329.0 1031.0 613.0 645.0 746.0 688.0 592.0 262.0 -406.0 -2015.0,35.0 -57.0 -153.0 -83.0 -121.0 -229.0 -222.0 -64.0 -70.0 -134.0 -87.0 -64.0 3.0 69.0 -42.0,55.0 193.0 187.0 176.0 114.0 153.0 201.0 172.0 146.0 151.0 195.0 222.0 263.0 264.0 105.0,-94.0 63.0 149.0 177.0 145.0 123.0 147.0 148.0 104.0 93.0 91.0 127.0 136.0 68.0 -180.0,111 121 106 109 108 111 116 122 122 125 126 126 131 134 126,35 42 39 44 42 41 37 42 39 45 38 71 61 70 71,92 92 92 93 93 95 96 103 110 118 117 118 117 121 125,104 103 103 100 101 100 99 77 40 68 87 97 97 87 60,125 126 125 123 123 122 115 107 101 87 66 51 45 44 36,6→2
54,1680.0 569.0 -357.0 -855.0 -695.0 -437.0 -678.0 -529.0 -634.0 -590.0 -593.0 -726.0 -911.0 -927.0 -1186.0,-2539.0 -1542.0 -545.0 725.0 600.0 206.0 100.0 353.0 200.0 -33.0 152.0 108.0 1202.0 2108.0 2565.0,2113.0 1403.0 1083.0 1132.0 1329.0 1031.0 613.0 645.0 746.0 688.0 592.0 262.0 -406.0 -2015.0 -2943.0,-57.0 -153.0 -83.0 -121.0 -229.0 -222.0 -64.0 -70.0 -134.0 -87.0 -64.0 3.0 69.0 -42.0 -58.0,193.0 187.0 176.0 114.0 153.0 201.0 172.0 146.0 151.0 195.0 222.0 263.0 264.0 105.0 -299.0,63.0 149.0 177.0 145.0 123.0 147.0 148.0 104.0 93.0 91.0 127.0 136.0 68.0 -180.0 -469.0,121 106 109 108 111 116 122 122 125 126 126 131 134 126 124,42 39 44 42 41 37 42 39 45 38 71 61 70 71 75,92 92 93 93 95 96 103 110 118 117 118 117 121 125 132,103 103 100 101 100 99 77 40 68 87 97 97 87 60 31,126 125 123 123 122 115 107 101 87 66 51 45 44 36 29,6→2
55,569.0 -357.0 -855.0 -695.0 -437.0 -678.0 -529.0 -634.0 -590.0 -593.0 -726.0 -911.0 -927.0 -1186.0 126.0,-1542.0 -545.0 725.0 600.0 206.0 100.0 353.0 200.0 -33.0 152.0 108.0 1202.0 2108.0 2565.0 2729.0,1403.0 1083.0 1132.0 1329.0 1031.0 613.0 645.0 746.0 688.0 592.0 262.0 -406.0 -2015.0 -2943.0 -3089.0,-153.0 -83.0 -121.0 -229.0 -222.0 -64.0 -70.0 -134.0 -87.0 -64.0 3.0 69.0 -42.0 -58.0 -158.0,187.0 176.0 114.0 153.0 201.0 172.0 146.0 151.0 195.0 222.0 263.0 264.0 105.0 -299.0 -716.0,149.0 177.0 145.0 123.0 147.0 148.0 104.0 93.0 91.0 127.0 136.0 68.0 -180.0 -469.0 -726.0,106 109 108 111 116 122 122 125 126 126 131 134 126 124 120,39 44 42 41 37 42 39 45 38 71 61 70 71 75 86,92 93 93 95 96 103 110 118 117 118 117 121 125 132 144,103 100 101 100 99 77 40 68 87 97 97 87 60 31 36,125 123 123 122 115 107 101 87 66 51 45 44 36 29 36,6→2
56,6459.0 1586.0 -6.0 250.0 -448.0 -263.0 262.0 -90.0 -326.0 -351.0 -480.0 -601.0 -878.0 -1585.0 -1931.0,-5965.0 -2415.0 -1644.0 -1404.0 -386.0 -394.0 -661.0 -571.0 -2.0 135.0 328.0 563.0 1340.0 2731.0 3340.0,3803.0 1971.0 1248.0 1013.0 473.0 661.0 519.0 148.0 -778.0 162.0 151.0 402.0 241.0 -437.0 -788.0,134.0 327.0 -71.0 118.0 196.0 130.0 207.0 269.0 178.0 110.0 93.0 91.0 157.0 172.0 137.0,53.0 408.0 198.0 261.0 221.0 162.0 217.0 229.0 88.0 2.0 -41.0 -69.0 -55.0 -137.0 -235.0,41.0 98.0 158.0 162.0 147.0 113.0 123.0 172.0 204.0 181.0 156.0 131.0 104.0 -41.0 -201.0,117 110 105 116 120 125 126 127 129 130 131 130 131 120 126,107 71 102 103 82 90 95 78 51 41 37 38 39 34 29,142 138 141 141 141 137 134 119 110 104 93 84 82 80 74,64 74 48 79 37 61 46 38 24 52 72 72 63 66 63,51 45 53 54 51 54 55 60 67 74 66 74 80 92 98,2→6
57,1586.0 -6.0 250.0 -448.0 -263.0 262.0 -90.0 -326.0 -351.0 -480.0 -601.0 -878.0 -1585.0 -1931.0 -1182.0,-2415.0 -1644.0 -1404.0 -386.0 -394.0 -661.0 -571.0 -2.0 135.0 328.0 563.0 1340.0 2731.0 3340.0 3054.0,1971.0 1248.0 1013.0 473.0 661.0 519.0 148.0 -778.0 162.0 151.0 402.0 241.0 -437.0 -788.0 -731.0,327.0 -71.0 118.0 196.0 130.0 207.0 269.0 178.0 110.0 93.0 91.0 157.0 172.0 137.0 167.0,408.0 198.0 261.0 221.0 162.0 217.0 229.0 88.0 2.0 -41.0 -69.0 -55.0 -137.0 -235.0 -364.0,98.0 158.0 162.0 147.0 113.0 123.0 172.0 204.0 181.0 156.0 131.0 104.0 -41.0 -201.0 -348.0,110 105 116 120 125 126 127 129 130 131 130 131 120 126 128,71 102 103 82 90 95 78 51 41 37 38 39 34 29 28,138 141 141 141 137 134 119 110 104 93 84 82 80 74 75,74 48 79 37 61 46 38 24 52 72 72 63 66 63 48,45 53 54 51 54 55 60 67 74 66 74 80 92 98 102,2→6
58,-6.0 250.0 -448.0 -263.0 262.0 -90.0 -326.0 -351.0 -480.0 -601.0 -878.0 -1585.0 -1931.0 -1182.0 1016.0,-1644.0 -1404.0 -386.0 -394.0 -661.0 -571.0 -2.0 135.0 328.0 563.0 1340.0 2731.0 3340.0 3054.0 1619.0,1248.0 1013.0 473.0 661.0 519.0 148.0 -778.0 162.0 151.0 402.0 241.0 -437.0 -788.0 -731.0 432.0,-71.0 118.0 196.0 130.0 207.0 269.0 178.0 110.0 93.0 91.0 157.0 172.0 137.0 167.0 154.0,198.0 261.0 221.0 162.0 217.0 229.0 88.0 2.0 -41.0 -69.0 -55.0 -137.0 -235.0 -364.0 -442.0,158.0 162.0 147.0 113.0 123.0 172.0 204.0 181.0 156.0 131.0 104.0 -41.0 -201.0 -348.0 -350.0,105 116 120 125 126 127 129 130 131 130 131 120 126 128 126,102 103 82 90 95 78 51 41 37 38 39 34 29 28 29,141 141 141 137 134 119 110 104 93 84 82 80 74 75 74,48 79 37 61 46 38 24 52 72 72 63 66 63 48 63,53 54 51 54 55 60 67 74 66 74 80 92 98 102 108,2→6
59,3396.0 2443.0 888.0 -65.0 -276.0 -85.0 -268.0 -316.0 -204.0 -271.0 -395.0 -508.0 -374.0 -507.0 -930.0,-1471.0 -1233.0 -588.0 554.0 800.0 861.0 953.0 1146.0 1015.0 402.0 523.0 830.0 993.0 1875.0 3015.0,4217.0 2973.0 1827.0 1228.0 1391.0 1284.0 828.0 465.0 32.0 12.0 -218.0 -664.0 -1297.0 -2462.0 -3520.0,59.0 -105.0 -69.0 -118.0 -182.0 -183.0 -129.0 -144.0 -236.0 -145.0 -122.0 -130.0 -90.0 30.0 14.0,-94.0 191.0 278.0 243.0 234.0 329.0 379.0 423.0 424.0 397.0 332.0 256.0 171.0 48.0 -322.0,-19.0 91.0 124.0 135.0 156.0 148.0 94.0 80.0 67.0 54.0 66.0 68.0 17.0 -115.0 -489.0,129 132 135 128 130 132 134 133 132 131 133 133 133 135 130,32 36 33 40 33 32 33 42 39 42 42 42 44 44 40,92 92 93 94 95 100 100 99 97 98 98 98 98 91 80,90 94 88 93 92 90 88 80 77 75 78 71 73 76 44,118 120 122 121 122 122 122 121 116 114 108 105 100 95 27,6→0
60,2443.0 888.0 -65.0 -276.0 -85.0 -268.0 -316.0 -204.0 -271.0 -395.0 -508.0 -374.0 -507.0 -930.0 939.0,-1233.0 -588.0 554.0 800.0 861.0 953.0 1146.0 1015.0 402.0 523.0 830.0 993.0 1875.0 3015.0 1919.0,2973.0 1827.0 1228.0 1391.0 1284.0 828.0 465.0 32.0 12.0 -218.0 -664.0 -1297.0 -2462.0 -3520.0 -3826.0,-105.0 -69.0 -118.0 -182.0 -183.0 -129.0 -144.0 -236.0 -145.0 -122.0 -130.0 -90.0 30.0 14.0 -173.0,191.0 278.0 243.0 234.0 329.0 379.0 423.0 424.0 397.0 332.0 256.0 171.0 48.0 -322.0 -909.0,91.0 124.0 135.0 156.0 148.0 94.0 80.0 67.0 54.0 66.0 68.0 17.0 -115.0 -489.0 -831.0,132 135 128 130 132 134 133 132 131 133 133 133 135 130 122,36 33 40 33 32 33 42 39 42 42 42 44 44 40 36,92 93 94 95 100 100 99 97 98 98 98 98 91 80 78,94 88 93 92 90 88 80 77 75 78 71 73 76 44 49,120 122 121 122 122 122 121 116 114 108 105 100 95 27 48,6→0
61,6986.0 2318.0 791.0 418.0 -161.0 -78.0 -506.0 -290.0 -302.0 -156.0 -445.0 -331.0 -335.0 -659.0 -1075.0,-4837.0 -6061.0 -2381.0 -2536.0 -1767.0 -133.0 -180.0 -278.0 -408.0 -727.0 -665.0 -559.0 53.0 2329.0 4486.0,4701.0 1031.0 936.0 766.0 758.0 723.0 283.0 19.0 108.0 252.0 0.0 131.0 135.0 -769.0 -2221.0,-309.0 212.0 -114.0 -177.0 19.0 9.0 -29.0 -64.0 -61.0 -43.0 -2.0 39.0 123.0 207.0 129.0,-125.0 206.0 119.0 143.0 87.0 152.0 151.0 93.0 66.0 85.0 98.0 72.0 79.0 67.0 -56.0,-242.0 50.0 223.0 237.0 368.0 366.0 275.0 169.0 118.0 132.0 165.0 229.0 333.0 231.0 -303.0,84 90 97 100 96 98 99 100 97 98 93 96 95 103 99,34 32 36 38 33 39 41 42 41 41 42 43 41 39 42,66 66 68 69 68 63 70 73 72 72 74 74 72 72 70,50 45 50 49 52 52 53 54 54 56 56 57 55 58 55,45 47 46 46 47 48 47 48 49 53 51 51 48 49 48,0→0
62,2318.0 791.0 418.0 -161.0 -78.0 -506.0 -290.0 -302.0 -156.0 -445.0 -331.0 -335.0 -659.0 -1075.0 -1059.0,-6061.0 -2381.0 -2536.0 -1767.0 -133.0 -180.0 -278.0 -408.0 -727.0 -665.0 -559.0 53.0 2329.0 4486.0 3730.0,1031.0 936.0 766.0 758.0 723.0 283.0 19.0 108.0 252.0 0.0 131.0 135.0 -769.0 -2221.0 -3344.0,212.0 -114.0 -177.0 19.0 9.0 -29.0 -64.0 -61.0 -43.0 -2.0 39.0 123.0 207.0 129.0 -78.0,206.0 119.0 143.0 87.0 152.0 151.0 93.0 66.0 85.0 98.0 72.0 79.0 67.0 -56.0 -581.0,50.0 223.0 237.0 368.0 366.0 275.0 169.0 118.0 132.0 165.0 229.0 333.0 231.0 -303.0 -826.0,90 97 100 96 98 99 100 97 98 93 96 95 103 99 97,32 36 38 33 39 41 42 41 41 42 43 41 39 42 39,66 68 69 68 63 70 73 72 72 74 74 72 72 70 69,45 50 49 52 52 53 54 54 56 56 57 55 58 55 56,47 46 46 47 48 47 48 49 53 51 51 48 49 48 50,0→0
63,6449.0 4328.0 1852.0 233.0 -112.0 -283.0 -169.0 -159.0 -98.0 -104.0 -414.0 -469.0 -320.0 -442.0 -526.0,-4805.0 -7260.0 -3405.0 -1189.0 -871.0 -1268.0 -676.0 -382.0 -332.0 -118.0 43.0 115.0 388.0 1115.0 1758.0,753.0 539.0 876.0 502.0 560.0 537.0 694.0 281.0 318.0 229.0 199.0 69.0 -249.0 -564.0 -1299.0,-927.0 192.0 453.0 318.0 -70.0 9.0 148.0 68.0 62.0 88.0 74.0 74.0 43.0 14.0 5.0,-673.0 -66.0 311.0 347.0 118.0 203.0 258.0 301.0 192.0 231.0 245.0 135.0 87.0 62.0 -52.0,-626.0 24.0 240.0 275.0 251.0 221.0 218.0 199.0 246.0 240.0 223.0 218.0 187.0 142.0 -3.0,146 147 139 144 143 145 144 144 142 141 141 140 140 133 131,63 65 73 72 89 88 81 93 90 86 94 95 92 92 84,142 142 140 140 138 141 141 142 142 140 139 140 139 138 138,94 102 107 104 102 104 104 104 105 108 107 106 106 105 101,107 108 108 108 105 106 106 105 106 108 106 106 106 103 104,1→1
64,4328.0 1852.0 233.0 -112.0 -283.0 -169.0 -159.0 -98.0 -104.0 -414.0 -469.0 -320.0 -442.0 -526.0 -1019.0,-7260.0 -3405.0 -1189.0 -871.0 -1268.0 -676.0 -382.0 -332.0 -118.0 43.0 115.0 388.0 1115.0 1758.0 2530.0,539.0 876.0 502.0 560.0 537.0 694.0 281.0 318.0 229.0 199.0 69.0 -249.0 -564.0 -1299.0 -2263.0,192.0 453.0 318.0 -70.0 9.0 148.0 68.0 62.0 88.0 74.0 74.0 43.0 14.0 5.0 63.0,-66.0 311.0 347.0 118.0 203.0 258.0 301.0 192.0 231.0 245.0 135.0 87.0 62.0 -52.0 -244.0,24.0 240.0 275.0 251.0 221.0 218.0 199.0 246.0 240.0 223.0 218.0 187.0 142.0 -3.0 -265.0,147 139 144 143 145 144 144 142 141 141 140 140 133 131 129,65 73 72 89 88 81 93 90 86 94 95 92 92 84 71,142 140 140 138 141 141 142 142 140 139 140 139 138 138 138,102 107 104 102 104 104 104 105 108 107 106 106 105 101 113,108 108 108 105 106 106 105 106 108 106 106 106 103 104 107,1→1
65,1852.0 233.0 -112.0 -283.0 -169.0 -159.0 -98.0 -104.0 -414.0 -469.0 -320.0 -442.0 -526.0 -1019.0 -578.0,-3405.0 -1189.0 -871.0 -1268.0 -676.0 -382.0 -332.0 -118.0 43.0 115.0 388.0 1115.0 1758.0 2530.0 2871.0,876.0 502.0 560.0 537.0 694.0 281.0 318.0 229.0 199.0 69.0 -249.0 -564.0 -1299.0 -2263.0 -2038.0,453.0 318.0 -70.0 9.0 148.0 68.0 62.0 88.0 74.0 74.0 43.0 14.0 5.0 63.0 -74.0,311.0 347.0 118.0 203.0 258.0 301.0 192.0 231.0 245.0 135.0 87.0 62.0 -52.0 -244.0 -508.0,240.0 275.0 251.0 221.0 218.0 199.0 246.0 240.0 223.0 218.0 187.0 142.0 -3.0 -265.0 -689.0,139 144 143 145 144 144 142 141 141 140 140 133 131 129 129,73 72 89 88 81 93 90 86 94 95 92 92 84 71 82,140 140 138 141 141 142 142 140 139 140 139 138 138 138 139,107 104 102 104 104 104 105 108 107 106 106 105 101 113 104,108 108 105 106 106 105 106 108 106 106 106 103 104 107 109,1→1
66,6174.0 5850.0 3963.0 52.0 108.0 37.0 58.0 103.0 -18.0 -43.0 -195.0 -380.0 -483.0 -417.0 -645.0,-1064.0 -6461.0 -4489.0 -1231.0 -1201.0 -1201.0 -1116.0 -480.0 -480.0 -471.0 34.0 78.0 39.0 440.0 1472.0,-309.0 934.0 1694.0 633.0 1012.0 930.0 725.0 530.0 411.0 250.0 243.0 -28.0 -166.0 -151.0 -692.0,-486.0 -257.0 404.0 192.0 -106.0 -3.0 96.0 21.0 -6.0 67.0 43.0 0.0 46.0 126.0 39.0,-1178.0 -449.0 362.0 258.0 99.0 150.0 204.0 236.0 219.0 215.0 221.0 206.0 170.0 172.0 114.0,-972.0 -169.0 227.0 288.0 259.0 212.0 237.0 289.0 299.0 286.0 264.0 233.0 198.0 178.0 124.0,104 121 108 106 110 118 116 115 120 120 116 119 122 121 120,97 67 50 79 77 88 82 76 87 103 97 96 93 98 104,144 143 143 144 145 146 144 144 145 145 144 145 145 146 145,77 76 67 70 78 47 68 70 73 78 77 83 80 76 78,50 51 44 49 55 55 54 53 53 54 53 56 58 57 57,2→2
67,5850.0 3963.0 52.0 108.0 37.0 58.0 103.0 -18.0 -43.0 -195.0 -380.0 -483.0 -417.0 -645.0 -321.0,-6461.0 -4489.0 -1231.0 -1201.0 -1201.0 -1116.0 -480.0 -480.0 -471.0 34.0 78.0 39.0 440.0 1472.0 1869.0,934.0 1694.0 633.0 1012.0 930.0 725.0 530.0 411.0 250.0 243.0 -28.0 -166.0 -151.0 -692.0 -1344.0,-257.0 404.0 192.0 -106.0 -3.0 96.0 21.0 -6.0 67.0 43.0 0.0 46.0 126.0 39.0 59.0,-449.0 362.0 258.0 99.0 150.0 204.0 236.0 219.0 215.0 221.0 206.0 170.0 172.0 114.0 6.0,-169.0 227.0 288.0 259.0 212.0 237.0 289.0 299.0 286.0 264.0 233.0 198.0 178.0 124.0 -67.0,121 108 106 110 118 116 115 120 120 116 119 122 121 120 118,67 50 79 77 88 82 76 87 103 97 96 93 98 104 111,143 143 144 145 146 144 144 145 145 144 145 145 146 145 146,76 67 70 78 47 68 70 73 78 77 83 80 76 78 81,51 44 49 55 55 54 53 53 54 53 56 58 57 57 57,2→2
68,3963.0 52.0 108.0 37.0 58.0 103.0 -18.0 -43.0 -195.0 -380.0 -483.0 -417.0 -645.0 -321.0 -987.0,-4489.0 -1231.0 -1201.0 -1201.0 -1116.0 -480.0 -480.0 -471.0 34.0 78.0 39.0 440.0 1472.0 1869.0 2438.0,1694.0 633.0 1012.0 930.0 725.0 530.0 411.0 250.0 243.0 -28.0 -166.0 -151.0 -692.0 -1344.0 -2029.0,404.0 192.0 -106.0 -3.0 96.0 21.0 -6.0 67.0 43.0 0.0 46.0 126.0 39.0 59.0 -37.0,362.0 258.0 99.0 150.0 204.0 236.0 219.0 215.0 221.0 206.0 170.0 172.0 114.0 6.0 -254.0,227.0 288.0 259.0 212.0 237.0 289.0 299.0 286.0 264.0 233.0 198.0 178.0 124.0 -67.0 -320.0,108 106 110 118 116 115 120 120 116 119 122 121 120 118 114,50 79 77 88 82 76 87 103 97 96 93 98 104 111 105,143 144 145 146 144 144 145 145 144 145 145 146 145 146 145,67 70 78 47 68 70 73 78 77 83 80 76 78 81 70,44 49 55 55 54 53 53 54 53 56 58 57 57 57 56,2→2
69,52.0 108.0 37.0 58.0 103.0 -18.0 -43.0 -195.0 -380.0 -483.0 -417.0 -645.0 -321.0 -987.0 -740.0,-1231.0 -1201.0 -1201.0 -1116.0 -480.0 -480.0 -471.0 34.0 78.0 39.0 440.0 1472.0 1869.0 2438.0 2737.0,633.0 1012.0 930.0 725.0 530.0 411.0 250.0 243.0 -28.0 -166.0 -151.0 -692.0 -1344.0 -2029.0 -2407.0,192.0 -106.0 -3.0 96.0 21.0 -6.0 67.0 43.0 0.0 46.0 126.0 39.0 59.0 -37.0 -116.0,258.0 99.0 150.0 204.0 236.0 219.0 215.0 221.0 206.0 170.0 172.0 114.0 6.0 -254.0 -618.0,288.0 259.0 212.0 237.0 289.0 299.0 286.0 264.0 233.0 198.0 178.0 124.0 -67.0 -320.0 -746.0,106 110 118 116 115 120 120 116 119 122 121 120 118 114 115,79 77 88 82 76 87 103 97 96 93 98 104 111 105 101,144 145 146 144 144 145 145 144 145 145 146 145 146 145 145,70 78 47 68 70 73 78 77 83 80 76 78 81 70 58,49 55 55 54 53 53 54 53 56 58 57 57 57 56 54,2→2
70,108.0 37.0 58.0 103.0 -18.0 -43.0 -195.0 -380.0 -483.0 -417.0 -645.0 -321.0 -987.0 -740.0 -5966.0,-1201.0 -1201.0 -1116.0 -480.0 -480.0 -471.0 34.0 78.0 39.0 440.0 1472.0 1869.0 2438.0 2737.0 -5966.0,1012.0 930.0 725.0 530.0 411.0 250.0 243.0 -28.0 -166.0 -151.0 -692.0 -1344.0 -2029.0 -2407.0 -5966.0,-106.0 -3.0 96.0 21.0 -6.0 67.0 43.0 0.0 46.0 126.0 39.0 59.0 -37.0 -116.0 -746.0,99.0 150.0 204.0 236.0 219.0 215.0 221.0 206.0 170.0 172.0 114.0 6.0 -254.0 -618.0 -746.0,259.0 212.0 237.0 289.0 299.0 286.0 264.0 233.0 198.0 178.0 124.0 -67.0 -320.0 -746.0 -746.0,110 118 116 115 120 120 116 119 122 121 120 118 114 115 119,77 88 82 76 87 103 97 96 93 98 104 111 105 101 102,145 146 144 144 145 145 144 145 145 146 145 146 145 145 148,78 47 68 70 73 78 77 83 80 76 78 81 70 58 68,55 55 54 53 53 54 53 56 58 57 57 57 56 54 59,2→2
71,8689.0 7811.0 1513.0 126.0 815.0 346.0 -39.0 -328.0 -75.0 -230.0 -412.0 -573.0 -235.0 -497.0 -1044.0,-917.0 -9577.0 -4090.0 -772.0 -1872.0 -1493.0 -256.0 -376.0 -265.0 -264.0 -237.0 59.0 60.0 1408.0 3981.0,-1383.0 4702.0 1177.0 -580.0 789.0 708.0 313.0 27.0 306.0 277.0 -19.0 -177.0 36.0 -849.0 -2164.0,-534.0 -414.0 686.0 -87.0 -179.0 160.0 141.0 -34.0 -28.0 71.0 45.0 23.0 106.0 194.0 145.0,-1288.0 70.0 337.0 212.0 159.0 198.0 245.0 221.0 183.0 209.0 198.0 124.0 107.0 90.0 -31.0,-923.0 -161.0 199.0 227.0 216.0 299.0 316.0 294.0 242.0 255.0 280.0 306.0 296.0 246.0 -120.0,147 150 143 143 150 125 148 131 143 144 144 141 128 126 142,24 28 26 23 45 35 41 41 41 39 39 40 38 42 39,71 72 69 71 80 75 75 76 77 77 81 76 77 77 74,63 62 61 58 69 62 64 62 62 64 66 64 63 64 63,50 54 53 53 59 51 56 54 56 55 56 56 54 54 53,3→3
72,7811.0 1513.0 126.0 815.0 346.0 -39.0 -328.0 -75.0 -230.0 -412.0 -573.0 -235.0 -497.0 -1044.0 -910.0,-9577.0 -4090.0 -772.0 -1872.0 -1493.0 -256.0 -376.0 -265.0 -264.0 -237.0 59.0 60.0 1408.0 3981.0 4487.0,4702.0 1177.0 -580.0 789.0 708.0 313.0 27.0 306.0 277.0 -19.0 -177.0 36.0 -849.0 -2164.0 -3821.0,-414.0 686.0 -87.0 -179.0 160.0 141.0 -34.0 -28.0 71.0 45.0 23.0 106.0 194.0 145.0 -56.0,70.0 337.0 212.0 159.0 198.0 245.0 221.0 183.0 209.0 198.0 124.0 107.0 90.0 -31.0 -361.0,-161.0 199.0 227.0 216.0 299.0 316.0 294.0 242.0 255.0 280.0 306.0 296.0 246.0 -120.0 -792.0,150 143 143 150 125 148 131 143 144 144 141 128 126 142 130,28 26 23 45 35 41 41 41 39 39 40 38 42 39 40,72 69 71 80 75 75 76 77 77 81 76 77 77 74 72,62 61 58 69 62 64 62 62 64 66 64 63 64 63 62,54 53 53 59 51 56 54 56 55 56 56 54 54 53 56,3→3
73,9966.0 5348.0 1751.0 213.0 76.0 -198.0 -546.0 -637.0 -285.0 -215.0 -468.0 -511.0 -343.0 -660.0 -1032.0,-3709.0 -8655.0 -2796.0 -2162.0 -1279.0 -159.0 13.0 -448.0 -706.0 -311.0 -99.0 -250.0 277.0 1878.0 3953.0,4373.0 753.0 -204.0 334.0 639.0 537.0 304.0 53.0 332.0 51.0 -37.0 -16.0 21.0 -680.0 -1823.0,-284.0 76.0 198.0 -117.0 30.0 88.0 -54.0 -207.0 -84.0 22.0 -14.0 39.0 106.0 96.0 146.0,-606.0 269.0 236.0 99.0 117.0 156.0 173.0 110.0 65.0 115.0 110.0 57.0 44.0 23.0 -73.0,-838.0 16.0 359.0 380.0 437.0 336.0 244.0 245.0 266.0 241.0 236.0 222.0 229.0 121.0 -217.0,83 83 86 94 99 105 112 119 129 128 134 136 138 141 144,40 46 44 46 47 45 47 47 51 40 46 46 42 40 47,81 78 77 77 85 88 88 89 90 85 85 83 84 83 81,69 66 66 68 72 75 74 73 75 69 70 72 70 69 72,46 46 46 48 51 52 54 53 54 48 50 49 47 48 48,0→3
74,5348.0 1751.0 213.0 76.0 -198.0 -546.0 -637.0 -285.0 -215.0 -468.0 -511.0 -343.0 -660.0 -1032.0 -1273.0,-8655.0 -2796.0 -2162.0 -1279.0 -159.0 13.0 -448.0 -706.0 -311.0 -99.0 -250.0 277.0 1878.0 3953.0 4368.0,753.0 -204.0 334.0 639.0 537.0 304.0 53.0 332.0 51.0 -37.0 -16.0 21.0 -680.0 -1823.0 -2989.0,76.0 198.0 -117.0 30.0 88.0 -54.0 -207.0 -84.0 22.0 -14.0 39.0 106.0 96.0 146.0 -46.0,269.0 236.0 99.0 117.0 156.0 173.0 110.0 65.0 115.0 110.0 57.0 44.0 23.0 -73.0 -379.0,16.0 359.0 380.0 437.0 336.0 244.0 245.0 266.0 241.0 236.0 222.0 229.0 121.0 -217.0 -650.0,83 86 94 99 105 112 119 129 128 134 136 138 141 144 144,46 44 46 47 45 47 47 51 40 46 46 42 40 47 39,78 77 77 85 88 88 89 90 85 85 83 84 83 81 79,66 66 68 72 75 74 73 75 69 70 72 70 69 72 74,46 46 48 51 52 54 53 54 48 50 49 47 48 48 48,0→3
75,1751.0 213.0 76.0 -198.0 -546.0 -637.0 -285.0 -215.0 -468.0 -511.0 -343.0 -660.0 -1032.0 -1273.0 999.0,-2796.0 -2162.0 -1279.0 -159.0 13.0 -448.0 -706.0 -311.0 -99.0 -250.0 277.0 1878.0 3953.0 4368.0 4566.0,-204.0 334.0 639.0 537.0 304.0 53.0 332.0 51.0 -37.0 -16.0 21.0 -680.0 -1823.0 -2989.0 -2664.0,198.0 -117.0 30.0 88.0 -54.0 -207.0 -84.0 22.0 -14.0 39.0 106.0 96.0 146.0 -46.0 -310.0,236.0 99.0 117.0 156.0 173.0 110.0 65.0 115.0 110.0 57.0 44.0 23.0 -73.0 -379.0 -824.0,359.0 380.0 437.0 336.0 244.0 245.0 266.0 241.0 236.0 222.0 229.0 121.0 -217.0 -650.0 -1055.0,86 94 99 105 112 119 129 128 134 136 138 141 144 144 149,44 46 47 45 47 47 51 40 46 46 42 40 47 39 46,77 77 85 88 88 89 90 85 85 83 84 83 81 79 77,66 68 72 75 74 73 75 69 70 72 70 69 72 74 74,46 48 51 52 54 53 54 48 50 49 47 48 48 48 47,0→3
76,7939.0 2822.0 647.0 131.0 -219.0 -305.0 -323.0 -367.0 -206.0 -183.0 74.0 203.0 -705.0 -449.0 -370.0,-7894.0 -7143.0 -1349.0 -2320.0 -1309.0 -470.0 -393.0 -766.0 -924.0 -767.0 -457.0 -203.0 455.0 373.0 1015.0,3257.0 -1739.0 -62.0 691.0 712.0 714.0 606.0 504.0 515.0 250.0 362.0 336.0 -560.0 -455.0 -852.0,-451.0 562.0 12.0 -44.0 70.0 26.0 -68.0 -140.0 -95.0 -24.0 3.0 101.0 218.0 179.0 139.0,-201.0 204.0 164.0 117.0 142.0 103.0 138.0 117.0 125.0 130.0 180.0 208.0 153.0 138.0 48.0,-379.0 175.0 222.0 206.0 260.0 252.0 147.0 125.0 219.0 278.0 293.0 324.0 291.0 237.0 214.0,147 149 150 150 149 175 157 150 147 150 145 142 141 141 142,46 35 42 51 51 79 56 44 45 48 44 44 44 43 44,81 80 83 84 81 110 86 85 87 90 84 85 89 95 100,76 67 72 79 75 104 81 75 74 77 71 71 67 67 58,51 51 49 54 52 81 55 54 52 56 51 52 58 65 72,3→1
77,2822.0 647.0 131.0 -219.0 -305.0 -323.0 -367.0 -206.0 -183.0 74.0 203.0 -705.0 -449.0 -370.0 -724.0,-7143.0 -1349.0 -2320.0 -1309.0 -470.0 -393.0 -766.0 -924.0 -767.0 -457.0 -203.0 455.0 373.0 1015.0 2128.0,-1739.0 -62.0 691.0 712.0 714.0 606.0 504.0 515.0 250.0 362.0 336.0 -560.0 -455.0 -852.0 -1687.0,562.0 12.0 -44.0 70.0 26.0 -68.0 -140.0 -95.0 -24.0 3.0 101.0 218.0 179.0 139.0 93.0,204.0 164.0 117.0 142.0 103.0 138.0 117.0 125.0 130.0 180.0 208.0 153.0 138.0 48.0 -95.0,175.0 222.0 206.0 260.0 252.0 147.0 125.0 219.0 278.0 293.0 324.0 291.0 237.0 214.0 40.0,149 150 150 149 175 157 150 147 150 145 142 141 141 142 139,35 42 51 51 79 56 44 45 48 44 44 44 43 44 49,80 83 84 81 110 86 85 87 90 84 85 89 95 100 105,67 72 79 75 104 81 75 74 77 71 71 67 67 58 80,51 49 54 52 81 55 54 52 56 51 52 58 65 72 80,3→1
78,647.0 131.0 -219.0 -305.0 -323.0 -367.0 -206.0 -183.0 74.0 203.0 -705.0 -449.0 -370.0 -724.0 -834.0,-1349.0 -2320.0 -1309.0 -470.0 -393.0 -766.0 -924.0 -767.0 -457.0 -203.0 455.0 373.0 1015.0 2128.0 2288.0,-62.0 691.0 712.0 714.0 606.0 504.0 515.0 250.0 362.0 336.0 -560.0 -455.0 -852.0 -1687.0 -2455.0,12.0 -44.0 70.0 26.0 -68.0 -140.0 -95.0 -24.0 3.0 101.0 218.0 179.0 139.0 93.0 35.0,164.0 117.0 142.0 103.0 138.0 117.0 125.0 130.0 180.0 208.0 153.0 138.0 48.0 -95.0 -310.0,222.0 206.0 260.0 252.0 147.0 125.0 219.0 278.0 293.0 324.0 291.0 237.0 214.0 40.0 -287.0,150 150 149 175 157 150 147 150 145 142 141 141 142 139 135,42 51 51 79 56 44 45 48 44 44 44 43 44 49 66,83 84 81 110 86 85 87 90 84 85 89 95 100 105 118,72 79 75 104 81 75 74 77 71 71 67 67 58 80 93,49 54 52 81 55 54 52 56 51 52 58 65 72 80 85,3→1
79,131.0 -219.0 -305.0 -323.0 -367.0 -206.0 -183.0 74.0 203.0 -705.0 -449.0 -370.0 -724.0 -834.0 -212.0,-2320.0 -1309.0 -470.0 -393.0 -766.0 -924.0 -767.0 -457.0 -203.0 455.0 373.0 1015.0 2128.0 2288.0 2309.0,691.0 712.0 714.0 606.0 504.0 515.0 250.0 362.0 336.0 -560.0 -455.0 -852.0 -1687.0 -2455.0 -2396.0,-44.0 70.0 26.0 -68.0 -140.0 -95.0 -24.0 3.0 101.0 218.0 179.0 139.0 93.0 35.0 -88.0,117.0 142.0 103.0 138.0 117.0 125.0 130.0 180.0 208.0 153.0 138.0 48.0 -95.0 -310.0 -532.0,206.0 260.0 252.0 147.0 125.0 219.0 278.0 293.0 324.0 291.0 237.0 214.0 40.0 -287.0 -614.0,150 149 175 157 150 147 150 145 142 141 141 142 139 135 136,51 51 79 56 44 45 48 44 44 44 43 44 49 66 72,84 81 110 86 85 87 90 84 85 89 95 100 105 118 128,79 75 104 81 75 74 77 71 71 67 67 58 80 93 89,54 52 81 55 54 52 56 51 52 58 65 72 80 85 91,3→1
80,-219.0 -305.0 -323.0 -367.0 -206.0 -183.0 74.0 203.0 -705.0 -449.0 -370.0 -724.0 -834.0 -212.0 2236.0,-1309.0 -470.0 -393.0 -766.0 -924.0 -767.0 -457.0 -203.0 455.0 373.0 1015.0 2128.0 2288.0 2309.0 2467.0,712.0 714.0 606.0 504.0 515.0 250.0 362.0 336.0 -560.0 -455.0 -852.0 -1687.0 -2455.0 -2396.0 -1757.0,70.0 26.0 -68.0 -140.0 -95.0 -24.0 3.0 101.0 218.0 179.0 139.0 93.0 35.0 -88.0 -46.0,142.0 103.0 138.0 117.0 125.0 130.0 180.0 208.0 153.0 138.0 48.0 -95.0 -310.0 -532.0 -743.0,260.0 252.0 147.0 125.0 219.0 278.0 293.0 324.0 291.0 237.0 214.0 40.0 -287.0 -614.0 -828.0,149 175 157 150 147 150 145 142 141 141 142 139 135 136 140,51 79 56 44 45 48 44 44 44 43 44 49 66 72 80,81 110 86 85 87 90 84 85 89 95 100 105 118 128 134,75 104 81 75 74 77 71 71 67 67 58 80 93 89 81,52 81 55 54 52 56 51 52 58 65 72 80 85 91 100,3→1
81,5567.0 3913.0 1620.0 -173.0 -70.0 338.0 199.0 -426.0 -181.0 86.0 0.0 -505.0 -432.0 -718.0 -863.0,-6350.0 -5923.0 -2437.0 -1250.0 -1008.0 -917.0 -770.0 -804.0 -210.0 -218.0 72.0 510.0 699.0 1765.0 3446.0,-452.0 -195.0 349.0 395.0 274.0 434.0 689.0 125.0 160.0 432.0 114.0 -412.0 -139.0 -1023.0 -2327.0,-526.0 491.0 456.0 -29.0 -199.0 10.0 86.0 31.0 65.0 133.0 187.0 175.0 -95.0 18.0 99.0,-573.0 114.0 450.0 271.0 31.0 70.0 240.0 274.0 206.0 241.0 239.0 146.0 82.0 32.0 -209.0,-519.0 322.0 249.0 273.0 226.0 217.0 202.0 269.0 355.0 363.0 343.0 307.0 183.0 51.0 -295.0,142 138 133 141 144 143 135 144 146 139 140 144 140 134 122,94 50 65 99 101 103 95 95 91 83 72 62 52 6 18,148 143 141 141 141 143 144 141 139 128 124 115 102 96 89,105 107 107 108 108 108 107 109 110 105 100 97 70 53 56,113 117 112 107 107 106 105 102 99 88 75 66 66 64 50,1→3
82,3913.0 1620.0 -173.0 -70.0 338.0 199.0 -426.0 -181.0 86.0 0.0 -505.0 -432.0 -718.0 -863.0 -21.0,-5923.0 -2437.0 -1250.0 -1008.0 -917.0 -770.0 -804.0 -210.0 -218.0 72.0 510.0 699.0 1765.0 3446.0 2968.0,-195.0 349.0 395.0 274.0 434.0 689.0 125.0 160.0 432.0 114.0 -412.0 -139.0 -1023.0 -2327.0 -2713.0,491.0 456.0 -29.0 -199.0 10.0 86.0 31.0 65.0 133.0 187.0 175.0 -95.0 18.0 99.0 -79.0,114.0 450.0 271.0 31.0 70.0 240.0 274.0 206.0 241.0 239.0 146.0 82.0 32.0 -209.0 -464.0,322.0 249.0 273.0 226.0 217.0 202.0 269.0 355.0 363.0 343.0 307.0 183.0 51.0 -295.0 -673.0,138 133 141 144 143 135 144 146 139 140 144 140 134 122 140,50 65 99 101 103 95 95 91 83 72 62 52 6 18 25,143 141 141 141 143 144 141 139 128 124 115 102 96 89 77,107 107 108 108 108 107 109 110 105 100 97 70 53 56 59,117 112 107 107 106 105 102 99 88 75 66 66 64 50 46,1→3
83,4726.0 -3812.0 -3812.0 -3812.0 -3812.0 -3812.0 -3812.0 -245.0 -245.0 -74.0 -105.0 53.0 0.0 -300.0 2283.0,-5693.0 -3812.0 -3812.0 -3812.0 -3812.0 -3812.0 -3812.0 -413.0 -391.0 -309.0 -394.0 -245.0 -186.0 736.0 2283.0,869.0 -3812.0 -3812.0 -3812.0 -3812.0 -3812.0 -3812.0 414.0 325.0 137.0 -1.0 -462.0 -197.0 -407.0 2283.0,-278.0 -477.0 -477.0 -477.0 -477.0 -477.0 -477.0 -8.0 -30.0 -54.0 -3.0 136.0 212.0 217.0 285.0,-221.0 -477.0 -477.0 -477.0 -477.0 -477.0 -477.0 156.0 167.0 184.0 220.0 235.0 200.0 181.0 285.0,-477.0 -477.0 -477.0 -477.0 -477.0 -477.0 -477.0 212.0 223.0 263.0 305.0 321.0 301.0 285.0 285.0,152 148 145 141 145 150 152 149 148 147 144 144 141 131 128,38 44 45 41 44 43 45 45 41 39 47 47 40 56 64,76 76 78 75 78 78 82 86 89 93 97 101 111 115 124,74 75 77 75 78 77 78 78 77 74 67 67 68 76 69,52 54 55 52 54 51 53 54 55 51 55 57 60 60 57,3→2
84,-3812.0 -3812.0 -3812.0 -3812.0 -3812.0 -3812.0 -245.0 -245.0 -74.0 -105.0 53.0 0.0 -300.0 2283.0 -607.0,-3812.0 -3812.0 -3812.0 -3812.0 -3812.0 -3812.0 -413.0 -391.0 -309.0 -394.0 -245.0 -186.0 736.0 2283.0 2062.0,-3812.0 -3812.0 -3812.0 -3812.0 -3812.0 -3812.0 414.0 325.0 137.0 -1.0 -462.0 -197.0 -407.0 2283.0 -1580.0,-477.0 -477.0 -477.0 -477.0 -477.0 -477.0 -8.0 -30.0 -54.0 -3.0 136.0 212.0 217.0 285.0 103.0,-477.0 -477.0 -477.0 -477.0 -477.0 -477.0 156.0 167.0 184.0 220.0 235.0 200.0 181.0 285.0 -31.0,-477.0 -477.0 -477.0 -477.0 -477.0 -477.0 212.0 223.0 263.0 305.0 321.0 301.0 285.0 285.0 49.0,148 145 141 145 150 152 149 148 147 144 144 141 131 128 122,44 45 41 44 43 45 45 41 39 47 47 40 56 64 67,76 78 75 78 78 82 86 89 93 97 101 111 115 124 130,75 77 75 78 77 78 78 77 74 67 67 68 76 69 71,54 55 52 54 51 53 54 55 51 55 57 60 60 57 54,3→2
85,-3812.0 -3812.0 -3812.0 -3812.0 -3812.0 -245.0 -245.0 -74.0 -105.0 53.0 0.0 -300.0 2283.0 -607.0 -837.0,-3812.0 -3812.0 -3812.0 -3812.0 -3812.0 -413.0 -391.0 -309.0 -394.0 -245.0 -186.0 736.0 2283.0 2062.0 3188.0,-3812.0 -3812.0 -3812.0 -3812.0 -3812.0 414.0 325.0 137.0 -1.0 -462.0 -197.0 -407.0 2283.0 -1580.0 -2464.0,-477.0 -477.0 -477.0 -477.0 -477.0 -8.0 -30.0 -54.0 -3.0 136.0 212.0 217.0 285.0 103.0 137.0,-477.0 -477.0 -477.0 -477.0 -477.0 156.0 167.0 184.0 220.0 235.0 200.0 181.0 285.0 -31.0 -287.0,-477.0 -477.0 -477.0 -477.0 -477.0 212.0 223.0 263.0 305.0 321.0 301.0 285.0 285.0 49.0 -416.0,145 141 145 150 152 149 148 147 144 144 141 131 128 122 115,45 41 44 43 45 45 41 39 47 47 40 56 64 67 77,78 75 78 78 82 86 89 93 97 101 111 115 124 130 137,77 75 78 77 78 78 77 74 67 67 68 76 69 71 73,55 52 54 51 53 54 55 51 55 57 60 60 57 54 51,3→2
86,-3812.0 -3812.0 -3812.0 -3812.0 -245.0 -245.0 -74.0 -105.0 53.0 0.0 -300.0 2283.0 -607.0 -837.0 305.0,-3812.0 -3812.0 -3812.0 -3812.0 -413.0 -391.0 -309.0 -394.0 -245.0 -186.0 736.0 2283.0 2062.0 3188.0 2729.0,-3812.0 -3812.0 -3812.0 -3812.0 414.0 325.0 137.0 -1.0 -462.0 -197.0 -407.0 2283.0 -1580.0 -2464.0 -2872.0,-477.0 -477.0 -477.0 -477.0 -8.0 -30.0 -54.0 -3.0 136.0 212.0 217.0 285.0 103.0 137.0 65.0,-477.0 -477.0 -477.0 -477.0 156.0 167.0 184.0 220.0 235.0 200.0 181.0 285.0 -31.0 -287.0 -700.0,-477.0 -477.0 -477.0 -477.0 212.0 223.0 263.0 305.0 321.0 301.0 285.0 285.0 49.0 -416.0 -777.0,141 145 150 152 149 148 147 144 144 141 131 128 122 115 113,41 44 43 45 45 41 39 47 47 40 56 64 67 77 82,75 78 78 82 86 89 93 97 101 111 115 124 130 137 141,75 78 77 78 78 77 74 67 67 68 76 69 71 73 78,52 54 51 53 54 55 51 55 57 60 60 57 54 51 53,3→2
87,-3812.0 -3812.0 -3812.0 -245.0 -245.0 -74.0 -105.0 53.0 0.0 -300.0 2283.0 -607.0 -837.0 305.0 3263.0,-3812.0 -3812.0 -3812.0 -413.0 -391.0 -309.0 -394.0 -245.0 -186.0 736.0 2283.0 2062.0 3188.0 2729.0 2126.0,-3812.0 -3812.0 -3812.0 414.0 325.0 137.0 -1.0 -462.0 -197.0 -407.0 2283.0 -1580.0 -2464.0 -2872.0 -1227.0,-477.0 -477.0 -477.0 -8.0 -30.0 -54.0 -3.0 136.0 212.0 217.0 285.0 103.0 137.0 65.0 -74.0,-477.0 -477.0 -477.0 156.0 167.0 184.0 220.0 235.0 200.0 181.0 285.0 -31.0 -287.0 -700.0 -1154.0,-477.0 -477.0 -477.0 212.0 223.0 263.0 305.0 321.0 301.0 285.0 285.0 49.0 -416.0 -777.0 -913.0,145 150 152 149 148 147 144 144 141 131 128 122 115 113 114,44 43 45 45 41 39 47 47 40 56 64 67 77 82 88,78 78 82 86 89 93 97 101 111 115 124 130 137 141 148,78 77 78 78 77 74 67 67 68 76 69 71 73 78 61,54 51 53 54 55 51 55 57 60 60 57 54 51 53 55,3→2
88,6849.0 2879.0 785.0 481.0 285.0 157.0 92.0 147.0 -12.0 -25.0 -230.0 -367.0 -384.0 -302.0 -458.0,-6137.0 -4246.0 -2205.0 -1760.0 -1156.0 -904.0 -719.0 -412.0 -399.0 107.0 638.0 718.0 1956.0 2784.0 2651.0,1354.0 2071.0 1123.0 794.0 725.0 681.0 395.0 245.0 157.0 430.0 69.0 -288.0 -864.0 -1737.0 -1667.0,97.0 235.0 -72.0 -84.0 15.0 -9.0 -27.0 -59.0 10.0 49.0 -8.0 57.0 21.0 70.0 176.0,-195.0 348.0 200.0 110.0 177.0 226.0 230.0 218.0 256.0 303.0 288.0 220.0 107.0 -6.0 -223.0,-90.0 99.0 257.0 274.0 246.0 263.0 296.0 331.0 344.0 350.0 291.0 206.0 82.0 -125.0 -473.0,106 106 105 119 120 118 118 122 112 121 122 120 122 123 123,62 57 75 102 109 97 107 105 101 94 82 58 52 7 24,146 145 141 141 145 144 145 145 143 139 125 111 98 86 72,85 93 89 91 88 83 85 92 95 92 86 91 83 84 65,63 63 60 62 62 63 62 67 70 67 61 64 63 57 50,2→3
89,2879.0 785.0 481.0 285.0 157.0 92.0 147.0 -12.0 -25.0 -230.0 -367.0 -384.0 -302.0 -458.0 -47.0,-4246.0 -2205.0 -1760.0 -1156.0 -904.0 -719.0 -412.0 -399.0 107.0 638.0 718.0 1956.0 2784.0 2651.0 2640.0,2071.0 1123.0 794.0 725.0 681.0 395.0 245.0 157.0 430.0 69.0 -288.0 -864.0 -1737.0 -1667.0 -2333.0,235.0 -72.0 -84.0 15.0 -9.0 -27.0 -59.0 10.0 49.0 -8.0 57.0 21.0 70.0 176.0 18.0,348.0 200.0 110.0 177.0 226.0 230.0 218.0 256.0 303.0 288.0 220.0 107.0 -6.0 -223.0 -580.0,99.0 257.0 274.0 246.0 263.0 296.0 331.0 344.0 350.0 291.0 206.0 82.0 -125.0 -473.0 -766.0,106 105 119 120 118 118 122 112 121 122 120 122 123 123 126,57 75 102 109 97 107 105 101 94 82 58 52 7 24 29,145 141 141 145 144 145 145 143 139 125 111 98 86 72 73,93 89 91 88 83 85 92 95 92 86 91 83 84 65 70,63 60 62 62 63 62 67 70 67 61 64 63 57 50 49,2→3
90,8705.0 1768.0 -163.0 436.0 567.0 403.0 -6.0 -151.0 2162.0 -125.0 -118.0 -293.0 -415.0 -578.0 -346.0,-10487.0 -3919.0 -924.0 -2094.0 -1995.0 -929.0 -659.0 -289.0 2162.0 -240.0 -319.0 174.0 1041.0 2338.0 4407.0,3536.0 -1827.0 -1152.0 689.0 998.0 940.0 294.0 476.0 2162.0 416.0 -153.0 -396.0 -545.0 -1409.0 -2440.0,-270.0 243.0 -69.0 -131.0 111.0 209.0 90.0 10.0 270.0 101.0 29.0 83.0 64.0 80.0 110.0,99.0 503.0 86.0 -17.0 61.0 194.0 227.0 207.0 270.0 296.0 302.0 221.0 119.0 17.0 -129.0,-99.0 223.0 237.0 200.0 209.0 244.0 275.0 270.0 270.0 301.0 349.0 353.0 321.0 87.0 -407.0,149 142 133 144 150 145 142 142 132 136 128 133 129 124 113,43 37 38 43 32 33 46 49 36 48 43 36 29 41 31,81 78 79 84 85 89 88 90 88 87 85 81 78 75 74,83 49 63 79 78 84 81 84 73 77 80 83 77 76 65,54 55 56 55 56 57 58 59 59 61 55 56 56 47 50,3→0
91,1768.0 -163.0 436.0 567.0 403.0 -6.0 -151.0 2162.0 -125.0 -118.0 -293.0 -415.0 -578.0 -346.0 -454.0,-3919.0 -924.0 -2094.0 -1995.0 -929.0 -659.0 -289.0 2162.0 -240.0 -319.0 174.0 1041.0 2338.0 4407.0 4128.0,-1827.0 -1152.0 689.0 998.0 940.0 294.0 476.0 2162.0 416.0 -153.0 -396.0 -545.0 -1409.0 -2440.0 -3736.0,243.0 -69.0 -131.0 111.0 209.0 90.0 10.0 270.0 101.0 29.0 83.0 64.0 80.0 110.0 -91.0,503.0 86.0 -17.0 61.0 194.0 227.0 207.0 270.0 296.0 302.0 221.0 119.0 17.0 -129.0 -571.0,223.0 237.0 200.0 209.0 244.0 275.0 270.0 270.0 301.0 349.0 353.0 321.0 87.0 -407.0 -873.0,142 133 144 150 145 142 142 132 136 128 133 129 124 113 110,37 38 43 32 33 46 49 36 48 43 36 29 41 31 30,78 79 84 85 89 88 90 88 87 85 81 78 75 74 71,49 63 79 78 84 81 84 73 77 80 83 77 76 65 67,55 56 55 56 57 58 59 59 61 55 56 56 47 50 50,3→0
92,8855.0 3456.0 1109.0 743.0 360.0 -298.0 -394.0 -394.0 -248.0 -285.0 -373.0 -400.0 -682.0 -948.0 -472.0,-8602.0 -6665.0 -1468.0 -2354.0 -2022.0 -304.0 -285.0 -394.0 -48.0 -66.0 -68.0 64.0 591.0 1745.0 2766.0,3814.0 -572.0 -538.0 813.0 482.0 277.0 37.0 51.0 -218.0 180.0 99.0 -165.0 -1354.0 -3079.0 -5141.0,-315.0 643.0 0.0 -124.0 97.0 142.0 124.0 97.0 55.0 119.0 111.0 118.0 137.0 183.0 165.0,-64.0 391.0 259.0 155.0 192.0 226.0 216.0 185.0 153.0 193.0 181.0 149.0 48.0 -208.0 -809.0,-357.0 197.0 288.0 276.0 350.0 325.0 297.0 293.0 269.0 206.0 196.0 210.0 179.0 -42.0 -353.0,89 95 88 106 102 109 118 117 120 114 105 93 80 71 68,44 17 24 46 44 31 46 38 60 60 67 65 66 46 47,79 77 78 81 84 92 93 97 100 98 96 94 89 82 78,66 48 78 78 73 76 72 63 80 83 83 78 77 73 72,52 52 48 51 52 56 57 61 61 60 60 56 50 46 48,0→4
93,6801.0 3792.0 1652.0 979.0 1002.0 374.0 41.0 -260.0 78.0 -110.0 -301.0 -329.0 -383.0 -439.0 -600.0,-2209.0 328.0 -117.0 -646.0 -705.0 -633.0 119.0 12.0 -359.0 -286.0 -205.0 -238.0 -12.0 312.0 774.0,5615.0 5475.0 3363.0 2482.0 2010.0 1106.0 807.0 312.0 180.0 -56.0 -91.0 420.0 -120.0 -208.0 -732.0,490.0 262.0 -110.0 -339.0 -416.0 -205.0 -115.0 -174.0 -35.0 22.0 104.0 4.0 47.0 11.0 27.0,-750.0 151.0 213.0 228.0 330.0 382.0 378.0 369.0 387.0 344.0 322.0 256.0 229.0 164.0 70.0,-107.0 -188.0 38.0 187.0 257.0 249.0 158.0 139.0 143.0 168.0 165.0 135.0 124.0 139.0 133.0,79 75 72 74 68 69 80 99 92 106 111 112 114 116 118,51 69 74 79 78 81 61 78 62 80 84 82 78 87 90,88 88 87 91 92 93 94 99 106 117 127 128 131 130 130,83 74 70 68 77 80 79 86 85 56 44 87 97 105 106,53 54 50 50 53 52 47 58 59 67 83 91 90 92 92,4→1
94,3792.0 1652.0 979.0 1002.0 374.0 41.0 -260.0 78.0 -110.0 -301.0 -329.0 -383.0 -439.0 -600.0 -393.0,328.0 -117.0 -646.0 -705.0 -633.0 119.0 12.0 -359.0 -286.0 -205.0 -238.0 -12.0 312.0 774.0 1524.0,5475.0 3363.0 2482.0 2010.0 1106.0 807.0 312.0 180.0 -56.0 -91.0 420.0 -120.0 -208.0 -732.0 -1432.0,262.0 -110.0 -339.0 -416.0 -205.0 -115.0 -174.0 -35.0 22.0 104.0 4.0 47.0 11.0 27.0 39.0,151.0 213.0 228.0 330.0 382.0 378.0 369.0 387.0 344.0 322.0 256.0 229.0 164.0 70.0 -1.0,-188.0 38.0 187.0 257.0 249.0 158.0 139.0 143.0 168.0 165.0 135.0 124.0 139.0 133.0 60.0,75 72 74 68 69 80 99 92 106 111 112 114 116 118 120,69 74 79 78 81 61 78 62 80 84 82 78 87 90 89,88 87 91 92 93 94 99 106 117 127 128 131 130 130 132,74 70 68 77 80 79 86 85 56 44 87 97 105 106 106,54 50 50 53 52 47 58 59 67 83 91 90 92 92 96,4→1
95,1652.0 979.0 1002.0 374.0 41.0 -260.0 78.0 -110.0 -301.0 -329.0 -383.0 -439.0 -600.0 -393.0 -749.0,-117.0 -646.0 -705.0 -633.0 119.0 12.0 -359.0 -286.0 -205.0 -238.0 -12.0 312.0 774.0 1524.0 2242.0,3363.0 2482.0 2010.0 1106.0 807.0 312.0 180.0 -56.0 -91.0 420.0 -120.0 -208.0 -732.0 -1432.0 -2979.0,-110.0 -339.0 -416.0 -205.0 -115.0 -174.0 -35.0 22.0 104.0 4.0 47.0 11.0 27.0 39.0 14.0,213.0 228.0 330.0 382.0 378.0 369.0 387.0 344.0 322.0 256.0 229.0 164.0 70.0 -1.0 -271.0,38.0 187.0 257.0 249.0 158.0 139.0 143.0 168.0 165.0 135.0 124.0 139.0 133.0 60.0 -187.0,72 74 68 69 80 99 92 106 111 112 114 116 118 120 117,74 79 78 81 61 78 62 80 84 82 78 87 90 89 94,87 91 92 93 94 99 106 117 127 128 131 130 130 132 133,70 68 77 80 79 86 85 56 44 87 97 105 106 106 106,50 50 53 52 47 58 59 67 83 91 90 92 92 96 98,4→1
96,979.0 1002.0 374.0 41.0 -260.0 78.0 -110.0 -301.0 -329.0 -383.0 -439.0 -600.0 -393.0 -749.0 -385.0,-646.0 -705.0 -633.0 119.0 12.0 -359.0 -286.0 -205.0 -238.0 -12.0 312.0 774.0 1524.0 2242.0 2819.0,2482.0 2010.0 1106.0 807.0 312.0 180.0 -56.0 -91.0 420.0 -120.0 -208.0 -732.0 -1432.0 -2979.0 -2845.0,-339.0 -416.0 -205.0 -115.0 -174.0 -35.0 22.0 104.0 4.0 47.0 11.0 27.0 39.0 14.0 -192.0,228.0 330.0 382.0 378.0 369.0 387.0 344.0 322.0 256.0 229.0 164.0 70.0 -1.0 -271.0 -556.0,187.0 257.0 249.0 158.0 139.0 143.0 168.0 165.0 135.0 124.0 139.0 133.0 60.0 -187.0 -557.0,74 68 69 80 99 92 106 111 112 114 116 118 120 117 128,79 78 81 61 78 62 80 84 82 78 87 90 89 94 86,91 92 93 94 99 106 117 127 128 131 130 130 132 133 137,68 77 80 79 86 85 56 44 87 97 105 106 106 106 100,50 53 52 47 58 59 67 83 91 90 92 92 96 98 102,4→1
97,6266.0 4623.0 2167.0 50.0 1896.0 13.0 74.0 1833.0 2010.0 2010.0 2010.0 2010.0 -619.0 -311.0 -1187.0,-4648.0 -6117.0 -3723.0 -1138.0 -1122.0 -753.0 -766.0 2019.0 2010.0 2010.0 2010.0 2010.0 616.0 939.0 1925.0,771.0 1764.0 1094.0 337.0 -1122.0 1002.0 731.0 450.0 2010.0 2010.0 2010.0 2010.0 -547.0 -2006.0 -2952.0,-566.0 75.0 434.0 170.0 -141.0 -94.0 58.0 151.0 251.0 251.0 251.0 251.0 81.0 128.0 77.0,-806.0 -262.0 176.0 276.0 -141.0 190.0 237.0 311.0 251.0 251.0 251.0 251.0 147.0 -63.0 -436.0,-796.0 50.0 298.0 269.0 -141.0 237.0 229.0 251.0 251.0 251.0 251.0 251.0 141.0 -2.0 -218.0,134 128 134 137 130 133 131 129 117 116 113 105 92 78 69,99 104 88 94 100 112 103 80 90 94 88 87 85 76 64,149 144 147 145 141 142 140 128 112 102 91 82 78 78 71,108 107 112 114 110 109 108 78 82 63 0 35 51 50 58,111 113 115 113 106 103 97 84 67 57 53 45 40 40 38,1→4
98,4623.0 2167.0 50.0 1896.0 13.0 74.0 1833.0 2010.0 2010.0 2010.0 2010.0 -619.0 -311.0 -1187.0 -200.0,-6117.0 -3723.0 -1138.0 -1122.0 -753.0 -766.0 2019.0 2010.0 2010.0 2010.0 2010.0 616.0 939.0 1925.0 3095.0,1764.0 1094.0 337.0 -1122.0 1002.0 731.0 450.0 2010.0 2010.0 2010.0 2010.0 -547.0 -2006.0 -2952.0 -4863.0,75.0 434.0 170.0 -141.0 -94.0 58.0 151.0 251.0 251.0 251.0 251.0 81.0 128.0 77.0 117.0,-262.0 176.0 276.0 -141.0 190.0 237.0 311.0 251.0 251.0 251.0 251.0 147.0 -63.0 -436.0 -1045.0,50.0 298.0 269.0 -141.0 237.0 229.0 251.0 251.0 251.0 251.0 251.0 141.0 -2.0 -218.0 -525.0,128 134 137 130 133 131 129 117 116 113 105 92 78 69 69,104 88 94 100 112 103 80 90 94 88 87 85 76 64 48,144 147 145 141 142 140 128 112 102 91 82 78 78 71 70,107 112 114 110 109 108 78 82 63 0 35 51 50 58 68,113 115 113 106 103 97 84 67 57 53 45 40 40 38 39,1→4
99,7840.0 6056.0 1762.0 473.0 381.0 -84.0 165.0 242.0 -6.0 -109.0 -107.0 -112.0 -394.0 -773.0 -615.0,-4365.0 -1403.0 -1301.0 -474.0 -1089.0 -986.0 -775.0 -298.0 -517.0 -218.0 -20.0 72.0 289.0 1356.0 2508.0,2410.0 6353.0 3301.0 1900.0 2251.0 1049.0 1122.0 513.0 412.0 571.0 289.0 -64.0 -394.0 -1107.0 -2202.0,139.0 371.0 165.0 -203.0 -359.0 -239.0 -56.0 -42.0 -1.0 0.0 -14.0 -46.0 28.0 38.0 32.0,-1370.0 -32.0 413.0 298.0 290.0 232.0 277.0 323.0 377.0 376.0 346.0 317.0 258.0 138.0 -60.0,-260.0 -158.0 -52.0 108.0 182.0 196.0 184.0 150.0 157.0 206.0 236.0 210.0 164.0 89.0 -138.0,73 79 77 62 74 87 103 103 104 102 112 111 115 119 117,87 52 62 50 75 80 83 69 84 74 95 93 90 97 104,78 85 83 84 89 96 110 102 103 112 120 133 135 140 144,68 67 70 67 70 80 91 77 69 69 72 78 58 64 67,44 48 50 51 52 59 68 56 50 50 50 52 55 53 51,4→2
100,6056.0 1762.0 473.0 381.0 -84.0 165.0 242.0 -6.0 -109.0 -107.0 -112.0 -394.0 -773.0 -615.0 -636.0,-1403.0 -1301.0 -474.0 -1089.0 -986.0 -775.0 -298.0 -517.0 -218.0 -20.0 72.0 289.0 1356.0 2508.0 3099.0,6353.0 3301.0 1900.0 2251.0 1049.0 1122.0 513.0 412.0 571.0 289.0 -64.0 -394.0 -1107.0 -2202.0 -3277.0,371.0 165.0 -203.0 -359.0 -239.0 -56.0 -42.0 -1.0 0.0 -14.0 -46.0 28.0 38.0 32.0 -41.0,-32.0 413.0 298.0 290.0 232.0 277.0 323.0 377.0 376.0 346.0 317.0 258.0 138.0 -60.0 -417.0,-158.0 -52.0 108.0 182.0 196.0 184.0 150.0 157.0 206.0 236.0 210.0 164.0 89.0 -138.0 -500.0,79 77 62 74 87 103 103 104 102 112 111 115 119 117 110,52 62 50 75 80 83 69 84 74 95 93 90 97 104 101,85 83 84 89 96 110 102 103 112 120 133 135 140 144 146,67 70 67 70 80 91 77 69 69 72 78 58 64 67 72,48 50 51 52 59 68 56 50 50 50 52 55 53 51 49,4→2
101,1762.0 473.0 381.0 -84.0 165.0 242.0 -6.0 -109.0 -107.0 -112.0 -394.0 -773.0 -615.0 -636.0 288.0,-1301.0 -474.0 -1089.0 -986.0 -775.0 -298.0 -517.0 -218.0 -20.0 72.0 289.0 1356.0 2508.0 3099.0 2142.0,3301.0 1900.0 2251.0 1049.0 1122.0 513.0 412.0 571.0 289.0 -64.0 -394.0 -1107.0 -2202.0 -3277.0 -3342.0,165.0 -203.0 -359.0 -239.0 -56.0 -42.0 -1.0 0.0 -14.0 -46.0 28.0 38.0 32.0 -41.0 -119.0,413.0 298.0 290.0 232.0 277.0 323.0 377.0 376.0 346.0 317.0 258.0 138.0 -60.0 -417.0 -907.0,-52.0 108.0 182.0 196.0 184.0 150.0 157.0 206.0 236.0 210.0 164.0 89.0 -138.0 -500.0 -783.0,77 62 74 87 103 103 104 102 112 111 115 119 117 110 97,62 50 75 80 83 69 84 74 95 93 90 97 104 101 106,83 84 89 96 110 102 103 112 120 133 135 140 144 146 147,70 67 70 80 91 77 69 69 72 78 58 64 67 72 53,50 51 52 59 68 56 50 50 50 52 55 53 51 49 48,4→2
102,5686.0 4157.0 1181.0 451.0 -29.0 -35.0 -51.0 125.0 -211.0 -189.0 -205.0 -477.0 -462.0 -696.0 -1343.0,-4814.0 -4803.0 -1936.0 -1418.0 -1088.0 -841.0 -667.0 -512.0 -397.0 -276.0 -76.0 9.0 106.0 796.0 1753.0,2108.0 2671.0 1680.0 1399.0 1014.0 1071.0 660.0 498.0 491.0 247.0 -268.0 -371.0 -504.0 -1920.0 -4200.0,21.0 285.0 176.0 -67.0 -65.0 -3.0 44.0 22.0 27.0 41.0 43.0 57.0 91.0 183.0 255.0,-607.0 245.0 346.0 256.0 209.0 260.0 326.0 396.0 371.0 339.0 294.0 204.0 105.0 -54.0 -502.0,-316.0 48.0 130.0 160.0 171.0 171.0 166.0 188.0 220.0 227.0 202.0 175.0 144.0 42.0 -183.0,115 107 102 115 115 112 113 102 107 100 97 89 80 73 70,78 110 107 116 117 118 85 97 79 74 55 66 60 59 51,147 151 151 152 148 135 111 103 94 87 88 87 84 80 80,0 84 83 77 80 67 83 72 72 74 67 78 79 75 77,55 64 61 65 66 70 65 62 60 56 56 57 50 49 46,2→4
103,4157.0 1181.0 451.0 -29.0 -35.0 -51.0 125.0 -211.0 -189.0 -205.0 -477.0 -462.0 -696.0 -1343.0 741.0,-4803.0 -1936.0 -1418.0 -1088.0 -841.0 -667.0 -512.0 -397.0 -276.0 -76.0 9.0 106.0 796.0 1753.0 2057.0,2671.0 1680.0 1399.0 1014.0 1071.0 660.0 498.0 491.0 247.0 -268.0 -371.0 -504.0 -1920.0 -4200.0 -4817.0,285.0 176.0 -67.0 -65.0 -3.0 44.0 22.0 27.0 41.0 43.0 57.0 91.0 183.0 255.0 278.0,245.0 346.0 256.0 209.0 260.0 326.0 396.0 371.0 339.0 294.0 204.0 105.0 -54.0 -502.0 -1144.0,48.0 130.0 160.0 171.0 171.0 166.0 188.0 220.0 227.0 202.0 175.0 144.0 42.0 -183.0 -320.0,107 102 115 115 112 113 102 107 100 97 89 80 73 70 66,110 107 116 117 118 85 97 79 74 55 66 60 59 51 43,151 151 152 148 135 111 103 94 87 88 87 84 80 80 74,84 83 77 80 67 83 72 72 74 67 78 79 75 77 78,64 61 65 66 70 65 62 60 56 56 57 50 49 46 50,2→4
104,5372.0 4722.0 2814.0 1511.0 691.0 238.0 98.0 362.0 468.0 143.0 -55.0 -258.0 -621.0 -959.0 -550.0,-642.0 -595.0 -322.0 -500.0 -623.0 -264.0 -78.0 -390.0 -299.0 -193.0 162.0 -512.0 224.0 711.0 1385.0,2380.0 5926.0 4780.0 2753.0 1314.0 1292.0 972.0 1138.0 451.0 392.0 72.0 -280.0 -422.0 -828.0 -1198.0,330.0 278.0 42.0 -214.0 -321.0 -333.0 -265.0 -184.0 -117.0 -112.0 -148.0 -77.0 29.0 -111.0 -110.0,-1077.0 -210.0 241.0 308.0 306.0 279.0 300.0 395.0 484.0 497.0 428.0 345.0 246.0 128.0 -11.0,-107.0 -129.0 -22.0 98.0 207.0 226.0 157.0 123.0 178.0 210.0 243.0 171.0 76.0 51.0 10.0,76 80 83 88 95 103 110 118 111 120 121 125 124 126 127,75 76 81 93 84 76 73 89 86 65 62 49 43 40 29,84 87 88 92 94 95 95 96 97 98 94 95 94 88 85,81 78 74 78 80 76 80 77 77 77 61 67 67 78 69,50 52 54 55 57 58 52 53 57 54 67 68 66 63 58,4→0
105,4722.0 2814.0 1511.0 691.0 238.0 98.0 362.0 468.0 143.0 -55.0 -258.0 -621.0 -959.0 -550.0 -265.0,-595.0 -322.0 -500.0 -623.0 -264.0 -78.0 -390.0 -299.0 -193.0 162.0 -512.0 224.0 711.0 1385.0 3286.0,5926.0 4780.0 2753.0 1314.0 1292.0 972.0 1138.0 451.0 392.0 72.0 -280.0 -422.0 -828.0 -1198.0 -2417.0,278.0 42.0 -214.0 -321.0 -333.0 -265.0 -184.0 -117.0 -112.0 -148.0 -77.0 29.0 -111.0 -110.0 102.0,-210.0 241.0 308.0 306.0 279.0 300.0 395.0 484.0 497.0 428.0 345.0 246.0 128.0 -11.0 -92.0,-129.0 -22.0 98.0 207.0 226.0 157.0 123.0 178.0 210.0 243.0 171.0 76.0 51.0 10.0 -242.0,80 83 88 95 103 110 118 111 120 121 125 124 126 127 121,76 81 93 84 76 73 89 86 65 62 49 43 40 29 26,87 88 92 94 95 95 96 97 98 94 95 94 88 85 82,78 74 78 80 76 80 77 77 77 61 67 67 78 69 71,52 54 55 57 58 52 53 57 54 67 68 66 63 58 45,4→0
106,2814.0 1511.0 691.0 238.0 98.0 362.0 468.0 143.0 -55.0 -258.0 -621.0 -959.0 -550.0 -265.0 -311.0,-322.0 -500.0 -623.0 -264.0 -78.0 -390.0 -299.0 -193.0 162.0 -512.0 224.0 711.0 1385.0 3286.0 3441.0,4780.0 2753.0 1314.0 1292.0 972.0 1138.0 451.0 392.0 72.0 -280.0 -422.0 -828.0 -1198.0 -2417.0 -2722.0,42.0 -214.0 -321.0 -333.0 -265.0 -184.0 -117.0 -112.0 -148.0 -77.0 29.0 -111.0 -110.0 102.0 96.0,241.0 308.0 306.0 279.0 300.0 395.0 484.0 497.0 428.0 345.0 246.0 128.0 -11.0 -92.0 -365.0,-22.0 98.0 207.0 226.0 157.0 123.0 178.0 210.0 243.0 171.0 76.0 51.0 10.0 -242.0 -696.0,83 88 95 103 110 118 111 120 121 125 124 126 127 121 117,81 93 84 76 73 89 86 65 62 49 43 40 29 26 15,88 92 94 95 95 96 97 98 94 95 94 88 85 82 77,74 78 80 76 80 77 77 77 61 67 67 78 69 71 76,54 55 57 58 52 53 57 54 67 68 66 63 58 45 48,4→0
107,8238.0 5941.0 -239.0 -723.0 -341.0 -402.0 -627.0 -258.0 -54.0 45.0 -114.0 -241.0 -444.0 -374.0 508.0,-4669.0 -5958.0 -867.0 -232.0 -1219.0 -394.0 -411.0 -594.0 -288.0 -208.0 -101.0 -57.0 35.0 -208.0 -2025.0,2225.0 2900.0 1353.0 1294.0 2056.0 800.0 332.0 423.0 687.0 950.0 993.0 609.0 880.0 641.0 1194.0,75.0 702.0 353.0 -55.0 35.0 157.0 128.0 135.0 204.0 247.0 234.0 235.0 222.0 209.0 129.0,-795.0 391.0 327.0 136.0 123.0 145.0 66.0 -37.0 -38.0 -10.0 3.0 26.0 52.0 3.0 -81.0,-595.0 102.0 72.0 63.0 39.0 17.0 -5.0 -16.0 -26.0 -37.0 -58.0 -74.0 -101.0 -129.0 -8.0,97 100 94 99 100 104 114 119 119 114 108 113 111 124 127,35 38 36 38 37 36 40 42 39 41 37 37 37 38 35,84 87 86 88 88 89 88 91 89 89 87 80 83 84 80,81 85 84 81 80 81 86 88 87 87 87 85 84 84 84,53 53 51 52 53 51 56 57 58 56 55 55 53 54 52,0→5
108,5941.0 -239.0 -723.0 -341.0 -402.0 -627.0 -258.0 -54.0 45.0 -114.0 -241.0 -444.0 -374.0 508.0 2147.0,-5958.0 -867.0 -232.0 -1219.0 -394.0 -411.0 -594.0 -288.0 -208.0 -101.0 -57.0 35.0 -208.0 -2025.0 -3122.0,2900.0 1353.0 1294.0 2056.0 800.0 332.0 423.0 687.0 950.0 993.0 609.0 880.0 641.0 1194.0 2038.0,702.0 353.0 -55.0 35.0 157.0 128.0 135.0 204.0 247.0 234.0 235.0 222.0 209.0 129.0 -48.0,391.0 327.0 136.0 123.0 145.0 66.0 -37.0 -38.0 -10.0 3.0 26.0 52.0 3.0 -81.0 36.0,102.0 72.0 63.0 39.0 17.0 -5.0 -16.0 -26.0 -37.0 -58.0 -74.0 -101.0 -129.0 -8.0 302.0,100 94 99 100 104 114 119 119 114 108 113 111 124 127 130,38 36 38 37 36 40 42 39 41 37 37 37 38 35 37,87 86 88 88 89 88 91 89 89 87 80 83 84 80 82,85 84 81 80 81 86 88 87 87 87 85 84 84 84 83,53 51 52 53 51 56 57 58 56 55 55 53 54 52 51,0→5
109,3196.0 2130.0 726.0 -259.0 -503.0 275.0 -224.0 -896.0 -579.0 -1107.0 -953.0 -758.0 -764.0 -576.0 -654.0,874.0 3259.0 4816.0 3583.0 1518.0 -720.0 -1268.0 -715.0 -1111.0 -723.0 -416.0 -326.0 172.0 813.0 1591.0,2137.0 2146.0 1396.0 640.0 760.0 1646.0 1528.0 800.0 944.0 442.0 683.0 482.0 303.0 -645.0 -1385.0,-404.0 -356.0 41.0 87.0 33.0 -25.0 -46.0 -27.0 172.0 76.0 70.0 132.0 76.0 50.0 33.0,349.0 383.0 415.0 352.0 203.0 181.0 250.0 198.0 108.0 124.0 150.0 187.0 247.0 134.0 22.0,979.0 756.0 139.0 -33.0 -201.0 -146.0 -79.0 -58.0 -52.0 -22.0 3.0 5.0 3.0 17.0 -113.0,133 146 138 146 139 142 137 140 135 130 132 133 127 130 127,36 42 43 41 42 40 34 41 45 41 45 51 64 66 69,83 83 86 85 83 85 85 88 96 103 112 121 123 123 124,83 80 75 75 76 79 73 81 76 40 38 50 100 104 104,53 51 50 47 48 47 50 55 56 67 80 88 91 88 89,5→1
110,2130.0 726.0 -259.0 -503.0 275.0 -224.0 -896.0 -579.0 -1107.0 -953.0 -758.0 -764.0 -576.0 -654.0 -646.0,3259.0 4816.0 3583.0 1518.0 -720.0 -1268.0 -715.0 -1111.0 -723.0 -416.0 -326.0 172.0 813.0 1591.0 2185.0,2146.0 1396.0 640.0 760.0 1646.0 1528.0 800.0 944.0 442.0 683.0 482.0 303.0 -645.0 -1385.0 -2213.0,-356.0 41.0 87.0 33.0 -25.0 -46.0 -27.0 172.0 76.0 70.0 132.0 76.0 50.0 33.0 -22.0,383.0 415.0 352.0 203.0 181.0 250.0 198.0 108.0 124.0 150.0 187.0 247.0 134.0 22.0 -191.0,756.0 139.0 -33.0 -201.0 -146.0 -79.0 -58.0 -52.0 -22.0 3.0 5.0 3.0 17.0 -113.0 -403.0,146 138 146 139 142 137 140 135 130 132 133 127 130 127 124,42 43 41 42 40 34 41 45 41 45 51 64 66 69 69,83 86 85 83 85 85 88 96 103 112 121 123 123 124 131,80 75 75 76 79 73 81 76 40 38 50 100 104 104 103,51 50 47 48 47 50 55 56 67 80 88 91 88 89 93,5→1
111,726.0 -259.0 -503.0 275.0 -224.0 -896.0 -579.0 -1107.0 -953.0 -758.0 -764.0 -576.0 -654.0 -646.0 -749.0,4816.0 3583.0 1518.0 -720.0 -1268.0 -715.0 -1111.0 -723.0 -416.0 -326.0 172.0 813.0 1591.0 2185.0 2187.0,1396.0 640.0 760.0 1646.0 1528.0 800.0 944.0 442.0 683.0 482.0 303.0 -645.0 -1385.0 -2213.0 -2889.0,41.0 87.0 33.0 -25.0 -46.0 -27.0 172.0 76.0 70.0 132.0 76.0 50.0 33.0 -22.0 -77.0,415.0 352.0 203.0 181.0 250.0 198.0 108.0 124.0 150.0 187.0 247.0 134.0 22.0 -191.0 -436.0,139.0 -33.0 -201.0 -146.0 -79.0 -58.0 -52.0 -22.0 3.0 5.0 3.0 17.0 -113.0 -403.0 -704.0,138 146 139 142 137 140 135 130 132 133 127 130 127 124 122,43 41 42 40 34 41 45 41 45 51 64 66 69 69 78,86 85 83 85 85 88 96 103 112 121 123 123 124 131 133,75 75 76 79 73 81 76 40 38 50 100 104 104 103 102,50 47 48 47 50 55 56 67 80 88 91 88 89 93 97,5→1
112,7013.0 5844.0 3894.0 918.0 -533.0 -645.0 -355.0 19.0 -114.0 -218.0 -242.0 -350.0 -185.0 -347.0 555.0,1574.0 -7464.0 -5554.0 -917.0 -399.0 -991.0 -767.0 -209.0 -501.0 -253.0 375.0 49.0 -393.0 -389.0 -1442.0,1209.0 1050.0 2910.0 2404.0 931.0 529.0 575.0 549.0 668.0 386.0 499.0 634.0 804.0 604.0 1357.0,-382.0 -78.0 412.0 290.0 6.0 -3.0 -62.0 188.0 214.0 241.0 301.0 277.0 404.0 443.0 339.0,-1144.0 -779.0 49.0 334.0 203.0 48.0 6.0 110.0 104.0 43.0 -6.0 -24.0 -4.0 24.0 -14.0,-1000.0 -481.0 148.0 126.0 93.0 82.0 106.0 38.0 26.0 14.0 -42.0 -96.0 -123.0 -153.0 -60.0,135 140 137 132 135 138 142 142 139 126 124 123 123 126 129,95 85 37 89 82 73 47 53 13 24 34 28 28 35 34,143 144 142 140 143 136 131 121 120 109 104 95 88 82 76,110 109 108 109 84 102 35 42 55 51 67 57 73 70 74,107 111 111 110 110 105 103 83 77 66 52 36 37 40 42,1→5
113,2743.0 1403.0 150.0 -393.0 -684.0 -74.0 -100.0 -379.0 -496.0 -634.0 -839.0 -540.0 -735.0 -670.0 -498.0,-1144.0 2492.0 4974.0 4134.0 2355.0 -166.0 -1391.0 -1633.0 -1365.0 -934.0 -649.0 -515.0 -14.0 550.0 723.0,1666.0 1242.0 1752.0 838.0 1041.0 1351.0 1386.0 778.0 590.0 686.0 547.0 188.0 -36.0 -207.0 -442.0,-405.0 -451.0 122.0 197.0 32.0 -53.0 -173.0 -54.0 60.0 184.0 14.0 72.0 133.0 84.0 91.0,331.0 144.0 210.0 301.0 232.0 138.0 199.0 247.0 238.0 231.0 183.0 239.0 224.0 216.0 200.0,839.0 846.0 163.0 -14.0 -216.0 -234.0 -158.0 -126.0 -51.0 12.0 79.0 127.0 123.0 106.0 66.0,136 133 134 140 146 147 142 144 137 129 129 128 125 130 126,41 35 38 43 47 48 38 58 68 59 77 72 88 91 93,88 84 89 91 96 103 110 118 122 125 130 133 137 139 140,84 76 73 71 72 71 65 73 82 61 72 76 70 80 77,52 46 50 50 53 53 50 47 49 52 52 53 53 57 56,5→2
114,1403.0 150.0 -393.0 -684.0 -74.0 -100.0 -379.0 -496.0 -634.0 -839.0 -540.0 -735.0 -670.0 -498.0 -440.0,2492.0 4974.0 4134.0 2355.0 -166.0 -1391.0 -1633.0 -1365.0 -934.0 -649.0 -515.0 -14.0 550.0 723.0 1291.0,1242.0 1752.0 838.0 1041.0 1351.0 1386.0 778.0 590.0 686.0 547.0 188.0 -36.0 -207.0 -442.0 -985.0,-451.0 122.0 197.0 32.0 -53.0 -173.0 -54.0 60.0 184.0 14.0 72.0 133.0 84.0 91.0 101.0,144.0 210.0 301.0 232.0 138.0 199.0 247.0 238.0 231.0 183.0 239.0 224.0 216.0 200.0 147.0,846.0 163.0 -14.0 -216.0 -234.0 -158.0 -126.0 -51.0 12.0 79.0 127.0 123.0 106.0 66.0 -12.0,133 134 140 146 147 142 144 137 129 129 128 125 130 126 124,35 38 43 47 48 38 58 68 59 77 72 88 91 93 97,84 89 91 96 103 110 118 122 125 130 133 137 139 140 140,76 73 71 72 71 65 73 82 61 72 76 70 80 77 84,46 50 50 53 53 50 47 49 52 52 53 53 57 56 53,5→2
115,150.0 -393.0 -684.0 -74.0 -100.0 -379.0 -496.0 -634.0 -839.0 -540.0 -735.0 -670.0 -498.0 -440.0 -363.0,4974.0 4134.0 2355.0 -166.0 -1391.0 -1633.0 -1365.0 -934.0 -649.0 -515.0 -14.0 550.0 723.0 1291.0 1896.0,1752.0 838.0 1041.0 1351.0 1386.0 778.0 590.0 686.0 547.0 188.0 -36.0 -207.0 -442.0 -985.0 -2010.0,122.0 197.0 32.0 -53.0 -173.0 -54.0 60.0 184.0 14.0 72.0 133.0 84.0 91.0 101.0 78.0,210.0 301.0 232.0 138.0 199.0 247.0 238.0 231.0 183.0 239.0 224.0 216.0 200.0 147.0 -21.0,163.0 -14.0 -216.0 -234.0 -158.0 -126.0 -51.0 12.0 79.0 127.0 123.0 106.0 66.0 -12.0 -190.0,134 140 146 147 142 144 137 129 129 128 125 130 126 124 122,38 43 47 48 38 58 68 59 77 72 88 91 93 97 95,89 91 96 103 110 118 122 125 130 133 137 139 140 140 141,73 71 72 71 65 73 82 61 72 76 70 80 77 84 74,50 50 53 53 50 47 49 52 52 53 53 57 56 53 52,5→2
116,-393.0 -684.0 -74.0 -100.0 -379.0 -496.0 -634.0 -839.0 -540.0 -735.0 -670.0 -498.0 -440.0 -363.0 -269.0,4134.0 2355.0 -166.0 -1391.0 -1633.0 -1365.0 -934.0 -649.0 -515.0 -14.0 550.0 723.0 1291.0 1896.0 2815.0,838.0 1041.0 1351.0 1386.0 778.0 590.0 686.0 547.0 188.0 -36.0 -207.0 -442.0 -985.0 -2010.0 -3178.0,197.0 32.0 -53.0 -173.0 -54.0 60.0 184.0 14.0 72.0 133.0 84.0 91.0 101.0 78.0 0.0,301.0 232.0 138.0 199.0 247.0 238.0 231.0 183.0 239.0 224.0 216.0 200.0 147.0 -21.0 -352.0,-14.0 -216.0 -234.0 -158.0 -126.0 -51.0 12.0 79.0 127.0 123.0 106.0 66.0 -12.0 -190.0 -546.0,140 146 147 142 144 137 129 129 128 125 130 126 124 122 109,43 47 48 38 58 68 59 77 72 88 91 93 97 95 90,91 96 103 110 118 122 125 130 133 137 139 140 140 141 142,71 72 71 65 73 82 61 72 76 70 80 77 84 74 60,50 53 53 50 47 49 52 52 53 53 57 56 53 52 54,5→2
117,-684.0 -74.0 -100.0 -379.0 -496.0 -634.0 -839.0 -540.0 -735.0 -670.0 -498.0 -440.0 -363.0 -269.0 363.0,2355.0 -166.0 -1391.0 -1633.0 -1365.0 -934.0 -649.0 -515.0 -14.0 550.0 723.0 1291.0 1896.0 2815.0 2655.0,1041.0 1351.0 1386.0 778.0 590.0 686.0 547.0 188.0 -36.0 -207.0 -442.0 -985.0 -2010.0 -3178.0 -4203.0,32.0 -53.0 -173.0 -54.0 60.0 184.0 14.0 72.0 133.0 84.0 91.0 101.0 78.0 0.0 -96.0,232.0 138.0 199.0 247.0 238.0 231.0 183.0 239.0 224.0 216.0 200.0 147.0 -21.0 -352.0 -853.0,-216.0 -234.0 -158.0 -126.0 -51.0 12.0 79.0 127.0 123.0 106.0 66.0 -12.0 -190.0 -546.0 -867.0,146 147 142 144 137 129 129 128 125 130 126 124 122 109 93,47 48 38 58 68 59 77 72 88 91 93 97 95 90 85,96 103 110 118 122 125 130 133 137 139 140 140 141 142 142,72 71 65 73 82 61 72 76 70 80 77 84 74 60 43,53 53 50 47 49 52 52 53 53 57 56 53 52 54 48,5→2
118,2769.0 2361.0 1494.0 -395.0 -209.0 3.0 -373.0 111.0 -444.0 -514.0 -535.0 -1007.0 -638.0 -729.0 -728.0,-2521.0 226.0 2765.0 5734.0 3037.0 1929.0 -202.0 -1260.0 -766.0 -1584.0 -1105.0 -465.0 -297.0 -43.0 724.0,3012.0 1446.0 1034.0 863.0 1540.0 1930.0 1595.0 1366.0 770.0 1570.0 104.0 -593.0 -248.0 -149.0 -666.0,-253.0 -506.0 -430.0 -147.0 59.0 12.0 -104.0 -172.0 -78.0 115.0 30.0 15.0 0.0 55.0 39.0,286.0 303.0 243.0 185.0 209.0 300.0 256.0 353.0 284.0 297.0 287.0 226.0 170.0 155.0 99.0,600.0 832.0 715.0 80.0 -30.0 -161.0 -204.0 -122.0 -162.0 -126.0 -36.0 14.0 52.0 87.0 128.0,144 146 149 142 149 145 143 135 132 126 120 128 139 136 134,46 48 46 30 50 55 48 34 42 52 49 49 51 45 51,85 85 86 91 96 97 92 87 87 87 86 84 85 84 81,85 85 83 82 80 74 82 66 80 65 80 79 78 80 63,52 50 51 51 54 52 54 47 50 59 53 58 60 67 61,5→0
119,2361.0 1494.0 -395.0 -209.0 3.0 -373.0 111.0 -444.0 -514.0 -535.0 -1007.0 -638.0 -729.0 -728.0 -351.0,226.0 2765.0 5734.0 3037.0 1929.0 -202.0 -1260.0 -766.0 -1584.0 -1105.0 -465.0 -297.0 -43.0 724.0 1825.0,1446.0 1034.0 863.0 1540.0 1930.0 1595.0 1366.0 770.0 1570.0 104.0 -593.0 -248.0 -149.0 -666.0 -1257.0,-506.0 -430.0 -147.0 59.0 12.0 -104.0 -172.0 -78.0 115.0 30.0 15.0 0.0 55.0 39.0 56.0,303.0 243.0 185.0 209.0 300.0 256.0 353.0 284.0 297.0 287.0 226.0 170.0 155.0 99.0 15.0,832.0 715.0 80.0 -30.0 -161.0 -204.0 -122.0 -162.0 -126.0 -36.0 14.0 52.0 87.0 128.0 50.0,146 149 142 149 145 143 135 132 126 120 128 139 136 134 124,48 46 30 50 55 48 34 42 52 49 49 51 45 51 51,85 86 91 96 97 92 87 87 87 86 84 85 84 81 79,85 83 82 80 74 82 66 80 65 80 79 78 80 63 64,50 51 51 54 52 54 47 50 59 53 58 60 67 61 56,5→0
120,1494.0 -395.0 -209.0 3.0 -373.0 111.0 -444.0 -514.0 -535.0 -1007.0 -638.0 -729.0 -728.0 -351.0 -839.0,2765.0 5734.0 3037.0 1929.0 -202.0 -1260.0 -766.0 -1584.0 -1105.0 -465.0 -297.0 -43.0 724.0 1825.0 3577.0,1034.0 863.0 1540.0 1930.0 1595.0 1366.0 770.0 1570.0 104.0 -593.0 -248.0 -149.0 -666.0 -1257.0 -2703.0,-430.0 -147.0 59.0 12.0 -104.0 -172.0 -78.0 115.0 30.0 15.0 0.0 55.0 39.0 56.0 75.0,243.0 185.0 209.0 300.0 256.0 353.0 284.0 297.0 287.0 226.0 170.0 155.0 99.0 15.0 -99.0,715.0 80.0 -30.0 -161.0 -204.0 -122.0 -162.0 -126.0 -36.0 14.0 52.0 87.0 128.0 50.0 -303.0,149 142 149 145 143 135 132 126 120 128 139 136 134 124 110,46 30 50 55 48 34 42 52 49 49 51 45 51 51 39,86 91 96 97 92 87 87 87 86 84 85 84 81 79 77,83 82 80 74 82 66 80 65 80 79 78 80 63 64 76,51 51 54 52 54 47 50 59 53 58 60 67 61 56 51,5→0
121,-395.0 -209.0 3.0 -373.0 111.0 -444.0 -514.0 -535.0 -1007.0 -638.0 -729.0 -728.0 -351.0 -839.0 -114.0,5734.0 3037.0 1929.0 -202.0 -1260.0 -766.0 -1584.0 -1105.0 -465.0 -297.0 -43.0 724.0 1825.0 3577.0 3507.0,863.0 1540.0 1930.0 1595.0 1366.0 770.0 1570.0 104.0 -593.0 -248.0 -149.0 -666.0 -1257.0 -2703.0 -3501.0,-147.0 59.0 12.0 -104.0 -172.0 -78.0 115.0 30.0 15.0 0.0 55.0 39.0 56.0 75.0 40.0,185.0 209.0 300.0 256.0 353.0 284.0 297.0 287.0 226.0 170.0 155.0 99.0 15.0 -99.0 -463.0,80.0 -30.0 -161.0 -204.0 -122.0 -162.0 -126.0 -36.0 14.0 52.0 87.0 128.0 50.0 -303.0 -781.0,142 149 145 143 135 132 126 120 128 139 136 134 124 110 99,30 50 55 48 34 42 52 49 49 51 45 51 51 39 24,91 96 97 92 87 87 87 86 84 85 84 81 79 77 73,82 80 74 82 66 80 65 80 79 78 80 63 64 76 62,51 54 52 54 47 50 59 53 58 60 67 61 56 51 44,5→0
122,8758.0 2897.0 9.0 283.0 -245.0 -488.0 -170.0 29.0 -244.0 -335.0 -36.0 -146.0 -567.0 -1065.0 -1852.0,-5447.0 -487.0 -1444.0 -2262.0 -897.0 -275.0 -584.0 -198.0 88.0 748.0 58.0 503.0 1157.0 2001.0 3153.0,4061.0 5104.0 1968.0 1645.0 755.0 707.0 749.0 700.0 772.0 711.0 802.0 385.0 27.0 -193.0 -670.0,551.0 493.0 30.0 44.0 246.0 183.0 141.0 192.0 236.0 70.0 -13.0 120.0 179.0 100.0 47.0,-793.0 244.0 162.0 165.0 148.0 58.0 37.0 33.0 82.0 53.0 83.0 87.0 53.0 -33.0 -85.0,-270.0 -67.0 61.0 95.0 124.0 103.0 119.0 130.0 166.0 163.0 158.0 114.0 80.0 29.0 -123.0,94 110 102 105 103 112 117 121 126 127 128 127 131 129 130,39 45 51 43 45 42 37 44 42 45 46 45 45 44 45,85 86 91 87 85 82 82 79 80 81 83 81 80 78 78,69 77 81 74 73 59 76 63 57 75 63 71 68 61 63,47 45 61 54 52 54 55 52 59 71 84 80 94 97 104,0→6
123,2897.0 9.0 283.0 -245.0 -488.0 -170.0 29.0 -244.0 -335.0 -36.0 -146.0 -567.0 -1065.0 -1852.0 -2051.0,-487.0 -1444.0 -2262.0 -897.0 -275.0 -584.0 -198.0 88.0 748.0 58.0 503.0 1157.0 2001.0 3153.0 3408.0,5104.0 1968.0 1645.0 755.0 707.0 749.0 700.0 772.0 711.0 802.0 385.0 27.0 -193.0 -670.0 -1101.0,493.0 30.0 44.0 246.0 183.0 141.0 192.0 236.0 70.0 -13.0 120.0 179.0 100.0 47.0 108.0,244.0 162.0 165.0 148.0 58.0 37.0 33.0 82.0 53.0 83.0 87.0 53.0 -33.0 -85.0 -155.0,-67.0 61.0 95.0 124.0 103.0 119.0 130.0 166.0 163.0 158.0 114.0 80.0 29.0 -123.0 -322.0,110 102 105 103 112 117 121 126 127 128 127 131 129 130 131,45 51 43 45 42 37 44 42 45 46 45 45 44 45 44,86 91 87 85 82 82 79 80 81 83 81 80 78 78 79,77 81 74 73 59 76 63 57 75 63 71 68 61 63 60,45 61 54 52 54 55 52 59 71 84 80 94 97 104 108,0→6
124,9.0 283.0 -245.0 -488.0 -170.0 29.0 -244.0 -335.0 -36.0 -146.0 -567.0 -1065.0 -1852.0 -2051.0 -664.0,-1444.0 -2262.0 -897.0 -275.0 -584.0 -198.0 88.0 748.0 58.0 503.0 1157.0 2001.0 3153.0 3408.0 2684.0,1968.0 1645.0 755.0 707.0 749.0 700.0 772.0 711.0 802.0 385.0 27.0 -193.0 -670.0 -1101.0 -736.0,30.0 44.0 246.0 183.0 141.0 192.0 236.0 70.0 -13.0 120.0 179.0 100.0 47.0 108.0 178.0,162.0 165.0 148.0 58.0 37.0 33.0 82.0 53.0 83.0 87.0 53.0 -33.0 -85.0 -155.0 -352.0,61.0 95.0 124.0 103.0 119.0 130.0 166.0 163.0 158.0 114.0 80.0 29.0 -123.0 -322.0 -394.0,102 105 103 112 117 121 126 127 128 127 131 129 130 131 131,51 43 45 42 37 44 42 45 46 45 45 44 45 44 46,91 87 85 82 82 79 80 81 83 81 80 78 78 79 78,81 74 73 59 76 63 57 75 63 71 68 61 63 60 70,61 54 52 54 55 52 59 71 84 80 94 97 104 108 113,0→6
125,3476.0 2504.0 1291.0 422.0 152.0 -14.0 50.0 323.0 268.0 -367.0 -625.0 -1083.0 -619.0 -527.0 -1086.0,-1296.0 -1133.0 -938.0 -34.0 763.0 1475.0 1134.0 20.0 362.0 874.0 647.0 447.0 906.0 1115.0 1870.0,3716.0 2564.0 2423.0 1762.0 1711.0 1415.0 1007.0 1012.0 574.0 37.0 -801.0 -663.0 -853.0 -1800.0 -2963.0,-52.0 -60.0 -78.0 -177.0 -241.0 -408.0 -538.0 -355.0 -85.0 -139.0 -147.0 7.0 39.0 38.0 -13.0,-143.0 93.0 195.0 205.0 262.0 317.0 381.0 448.0 497.0 478.0 358.0 137.0 43.0 -87.0 -307.0,-61.0 30.0 92.0 151.0 187.0 228.0 162.0 164.0 208.0 232.0 183.0 112.0 32.0 -45.0 -226.0,124 122 122 108 108 121 123 124 126 128 135 127 123 120 119,51 43 40 45 44 44 48 32 38 45 51 46 64 65 72,89 91 89 87 90 91 94 96 98 105 115 118 121 125 128,74 86 86 86 87 87 85 85 64 75 64 67 94 108 104,125 124 116 116 121 122 93 117 109 109 103 101 100 101 107,6→1
126,2504.0 1291.0 422.0 152.0 -14.0 50.0 323.0 268.0 -367.0 -625.0 -1083.0 -619.0 -527.0 -1086.0 -192.0,-1133.0 -938.0 -34.0 763.0 1475.0 1134.0 20.0 362.0 874.0 647.0 447.0 906.0 1115.0 1870.0 2489.0,2564.0 2423.0 1762.0 1711.0 1415.0 1007.0 1012.0 574.0 37.0 -801.0 -663.0 -853.0 -1800.0 -2963.0 -3010.0,-60.0 -78.0 -177.0 -241.0 -408.0 -538.0 -355.0 -85.0 -139.0 -147.0 7.0 39.0 38.0 -13.0 -177.0,93.0 195.0 205.0 262.0 317.0 381.0 448.0 497.0 478.0 358.0 137.0 43.0 -87.0 -307.0 -631.0,30.0 92.0 151.0 187.0 228.0 162.0 164.0 208.0 232.0 183.0 112.0 32.0 -45.0 -226.0 -527.0,122 122 108 108 121 123 124 126 128 135 127 123 120 119 123,43 40 45 44 44 48 32 38 45 51 46 64 65 72 79,91 89 87 90 91 94 96 98 105 115 118 121 125 128 134,86 86 86 87 87 85 85 64 75 64 67 94 108 104 105,124 116 116 121 122 93 117 109 109 103 101 100 101 107 114,6→1
127,7891.0 4710.0 4979.0 315.0 -128.0 -331.0 0.0 319.0 162.0 -5.0 63.0 -244.0 -204.0 -466.0 -708.0,-396.0 -6605.0 -4793.0 -1438.0 -633.0 -1088.0 -1348.0 -1112.0 -1262.0 -590.0 -239.0 -361.0 395.0 523.0 1423.0,204.0 -486.0 1693.0 185.0 139.0 533.0 20.0 331.0 62.0 27.0 -222.0 0.0 385.0 184.0 265.0,-621.0 -317.0 408.0 450.0 81.0 72.0 91.0 57.0 386.0 339.0 241.0 287.0 236.0 236.0 279.0,-1052.0 -463.0 132.0 291.0 273.0 105.0 76.0 119.0 207.0 123.0 84.0 48.0 12.0 -28.0 -30.0,-1081.0 -334.0 244.0 265.0 205.0 154.0 187.0 210.0 279.0 307.0 275.0 244.0 175.0 161.0 114.0,129 131 136 139 140 132 125 124 120 121 126 127 116 109 107,95 93 79 107 95 95 78 40 46 41 39 29 35 28 29,151 148 159 154 147 134 130 122 110 104 103 98 94 88 89,114 115 129 125 122 114 110 77 50 46 67 79 86 82 86,124 125 138 137 132 125 123 122 112 118 112 117 114 117 120,1→6
128,4710.0 4979.0 315.0 -128.0 -331.0 0.0 319.0 162.0 -5.0 63.0 -244.0 -204.0 -466.0 -708.0 -1288.0,-6605.0 -4793.0 -1438.0 -633.0 -1088.0 -1348.0 -1112.0 -1262.0 -590.0 -239.0 -361.0 395.0 523.0 1423.0 3297.0,-486.0 1693.0 185.0 139.0 533.0 20.0 331.0 62.0 27.0 -222.0 0.0 385.0 184.0 265.0 15.0,-317.0 408.0 450.0 81.0 72.0 91.0 57.0 386.0 339.0 241.0 287.0 236.0 236.0 279.0 264.0,-463.0 132.0 291.0 273.0 105.0 76.0 119.0 207.0 123.0 84.0 48.0 12.0 -28.0 -30.0 -17.0,-334.0 244.0 265.0 205.0 154.0 187.0 210.0 279.0 307.0 275.0 244.0 175.0 161.0 114.0 -32.0,131 136 139 140 132 125 124 120 121 126 127 116 109 107 106,93 79 107 95 95 78 40 46 41 39 29 35 28 29 39,148 159 154 147 134 130 122 110 104 103 98 94 88 89 89,115 129 125 122 114 110 77 50 46 67 79 86 82 86 84,125 138 137 132 125 123 122 112 118 112 117 114 117 120 123,1→6
129,4979.0 315.0 -128.0 -331.0 0.0 319.0 162.0 -5.0 63.0 -244.0 -204.0 -466.0 -708.0 -1288.0 -2447.0,-4793.0 -1438.0 -633.0 -1088.0 -1348.0 -1112.0 -1262.0 -590.0 -239.0 -361.0 395.0 523.0 1423.0 3297.0 3977.0,1693.0 185.0 139.0 533.0 20.0 331.0 62.0 27.0 -222.0 0.0 385.0 184.0 265.0 15.0 -1097.0,408.0 450.0 81.0 72.0 91.0 57.0 386.0 339.0 241.0 287.0 236.0 236.0 279.0 264.0 211.0,132.0 291.0 273.0 105.0 76.0 119.0 207.0 123.0 84.0 48.0 12.0 -28.0 -30.0 -17.0 -78.0,244.0 265.0 205.0 154.0 187.0 210.0 279.0 307.0 275.0 244.0 175.0 161.0 114.0 -32.0 -235.0,136 139 140 132 125 124 120 121 126 127 116 109 107 106 105,79 107 95 95 78 40 46 41 39 29 35 28 29 39 35,159 154 147 134 130 122 110 104 103 98 94 88 89 89 91,129 125 122 114 110 77 50 46 67 79 86 82 86 84 87,138 137 132 125 123 122 112 118 112 117 114 117 120 123 124,1→6
130,315.0 -128.0 -331.0 0.0 319.0 162.0 -5.0 63.0 -244.0 -204.0 -466.0 -708.0 -1288.0 -2447.0 -1639.0,-1438.0 -633.0 -1088.0 -1348.0 -1112.0 -1262.0 -590.0 -239.0 -361.0 395.0 523.0 1423.0 3297.0 3977.0 3381.0,185.0 139.0 533.0 20.0 331.0 62.0 27.0 -222.0 0.0 385.0 184.0 265.0 15.0 -1097.0 -927.0,450.0 81.0 72.0 91.0 57.0 386.0 339.0 241.0 287.0 236.0 236.0 279.0 264.0 211.0 228.0,291.0 273.0 105.0 76.0 119.0 207.0 123.0 84.0 48.0 12.0 -28.0 -30.0 -17.0 -78.0 -318.0,265.0 205.0 154.0 187.0 210.0 279.0 307.0 275.0 244.0 175.0 161.0 114.0 -32.0 -235.0 -381.0,139 140 132 125 124 120 121 126 127 116 109 107 106 105 110,107 95 95 78 40 46 41 39 29 35 28 29 39 35 39,154 147 134 130 122 110 104 103 98 94 88 89 89 91 91,125 122 114 110 77 50 46 67 79 86 82 86 84 87 91,137 132 125 123 122 112 118 112 117 114 117 120 123 124 128,1→6
131,-128.0 -331.0 0.0 319.0 162.0 -5.0 63.0 -244.0 -204.0 -466.0 -708.0 -1288.0 -2447.0 -1639.0 730.0,-633.0 -1088.0 -1348.0 -1112.0 -1262.0 -590.0 -239.0 -361.0 395.0 523.0 1423.0 3297.0 3977.0 3381.0 2281.0,139.0 533.0 20.0 331.0 62.0 27.0 -222.0 0.0 385.0 184.0 265.0 15.0 -1097.0 -927.0 601.0,81.0 72.0 91.0 57.0 386.0 339.0 241.0 287.0 236.0 236.0 279.0 264.0 211.0 228.0 202.0,273.0 105.0 76.0 119.0 207.0 123.0 84.0 48.0 12.0 -28.0 -30.0 -17.0 -78.0 -318.0 -439.0,205.0 154.0 187.0 210.0 279.0 307.0 275.0 244.0 175.0 161.0 114.0 -32.0 -235.0 -381.0 -424.0,140 132 125 124 120 121 126 127 116 109 107 106 105 110 111,95 95 78 40 46 41 39 29 35 28 29 39 35 39 36,147 134 130 122 110 104 103 98 94 88 89 89 91 91 92,122 114 110 77 50 46 67 79 86 82 86 84 87 91 87,132 125 123 122 112 118 112 117 114 117 120 123 124 128 123,1→6
132,4235.0 3801.0 2045.0 145.0 -790.0 -510.0 -701.0 -422.0 -385.0 -793.0 -479.0 -476.0 -655.0 -1078.0 -645.0,-2379.0 -2923.0 -2590.0 -1131.0 -55.0 716.0 415.0 -276.0 180.0 266.0 513.0 404.0 626.0 1132.0 2083.0,2548.0 3681.0 3459.0 1383.0 1374.0 1401.0 1156.0 655.0 583.0 617.0 503.0 304.0 -364.0 -1292.0 -1673.0,-60.0 -5.0 33.0 -175.0 -100.0 -150.0 -253.0 -163.0 -23.0 -37.0 -23.0 -40.0 -18.0 -102.0 -80.0,-501.0 62.0 165.0 159.0 104.0 203.0 248.0 232.0 268.0 269.0 300.0 311.0 289.0 130.0 -32.0,-304.0 -71.0 61.0 172.0 190.0 183.0 190.0 168.0 156.0 176.0 142.0 130.0 80.0 -52.0 -241.0,110 137 143 113 115 119 136 131 135 144 141 140 130 130 131,42 56 70 40 47 48 62 47 58 76 82 77 77 83 78,98 120 131 99 109 110 125 119 127 144 141 138 131 136 143,86 113 133 101 102 103 107 72 67 93 62 81 70 65 68,114 151 162 130 135 132 140 105 107 98 84 80 63 58 53,6→2
133,3801.0 2045.0 145.0 -790.0 -510.0 -701.0 -422.0 -385.0 -793.0 -479.0 -476.0 -655.0 -1078.0 -645.0 -357.0,-2923.0 -2590.0 -1131.0 -55.0 716.0 415.0 -276.0 180.0 266.0 513.0 404.0 626.0 1132.0 2083.0 2508.0,3681.0 3459.0 1383.0 1374.0 1401.0 1156.0 655.0 583.0 617.0 503.0 304.0 -364.0 -1292.0 -1673.0 -2753.0,-5.0 33.0 -175.0 -100.0 -150.0 -253.0 -163.0 -23.0 -37.0 -23.0 -40.0 -18.0 -102.0 -80.0 -167.0,62.0 165.0 159.0 104.0 203.0 248.0 232.0 268.0 269.0 300.0 311.0 289.0 130.0 -32.0 -302.0,-71.0 61.0 172.0 190.0 183.0 190.0 168.0 156.0 176.0 142.0 130.0 80.0 -52.0 -241.0 -462.0,137 143 113 115 119 136 131 135 144 141 140 130 130 131 131,56 70 40 47 48 62 47 58 76 82 77 77 83 78 96,120 131 99 109 110 125 119 127 144 141 138 131 136 143 152,113 133 101 102 103 107 72 67 93 62 81 70 65 68 52,151 162 130 135 132 140 105 107 98 84 80 63 58 53 47,6→2
134,2045.0 145.0 -790.0 -510.0 -701.0 -422.0 -385.0 -793.0 -479.0 -476.0 -655.0 -1078.0 -645.0 -357.0 523.0,-2590.0 -1131.0 -55.0 716.0 415.0 -276.0 180.0 266.0 513.0 404.0 626.0 1132.0 2083.0 2508.0 2426.0,3459.0 1383.0 1374.0 1401.0 1156.0 655.0 583.0 617.0 503.0 304.0 -364.0 -1292.0 -1673.0 -2753.0 -3365.0,33.0 -175.0 -100.0 -150.0 -253.0 -163.0 -23.0 -37.0 -23.0 -40.0 -18.0 -102.0 -80.0 -167.0 -104.0,165.0 159.0 104.0 203.0 248.0 232.0 268.0 269.0 300.0 311.0 289.0 130.0 -32.0 -302.0 -627.0,61.0 172.0 190.0 183.0 190.0 168.0 156.0 176.0 142.0 130.0 80.0 -52.0 -241.0 -462.0 -674.0,143 113 115 119 136 131 135 144 141 140 130 130 131 131 127,70 40 47 48 62 47 58 76 82 77 77 83 78 96 96,131 99 109 110 125 119 127 144 141 138 131 136 143 152 153,133 101 102 103 107 72 67 93 62 81 70 65 68 52 44,162 130 135 132 140 105 107 98 84 80 63 58 53 47 48,6→2
135,145.0 -790.0 -510.0 -701.0 -422.0 -385.0 -793.0 -479.0 -476.0 -655.0 -1078.0 -645.0 -357.0 523.0 1947.0,-1131.0 -55.0 716.0 415.0 -276.0 180.0 266.0 513.0 404.0 626.0 1132.0 2083.0 2508.0 2426.0 672.0,1383.0 1374.0 1401.0 1156.0 655.0 583.0 617.0 503.0 304.0 -364.0 -1292.0 -1673.0 -2753.0 -3365.0 -2491.0,-175.0 -100.0 -150.0 -253.0 -163.0 -23.0 -37.0 -23.0 -40.0 -18.0 -102.0 -80.0 -167.0 -104.0 54.0,159.0 104.0 203.0 248.0 232.0 268.0 269.0 300.0 311.0 289.0 130.0 -32.0 -302.0 -627.0 -926.0,172.0 190.0 183.0 190.0 168.0 156.0 176.0 142.0 130.0 80.0 -52.0 -241.0 -462.0 -674.0 -683.0,113 115 119 136 131 135 144 141 140 130 130 131 131 127 120,40 47 48 62 47 58 76 82 77 77 83 78 96 96 108,99 109 110 125 119 127 144 141 138 131 136 143 152 153 157,101 102 103 107 72 67 93 62 81 70 65 68 52 44 58,130 135 132 140 105 107 98 84 80 63 58 53 47 48 55,6→2
136,6256.0 2610.0 668.0 402.0 -218.0 -376.0 -31.0 90.0 -164.0 -218.0 -81.0 -124.0 -503.0 -872.0 -1542.0,-4818.0 -2660.0 -1669.0 -1498.0 -588.0 -519.0 -442.0 -636.0 134.0 183.0 -149.0 438.0 877.0 1612.0 2720.0,4524.0 3294.0 1486.0 1084.0 428.0 398.0 307.0 229.0 270.0 20.0 554.0 475.0 482.0 176.0 -268.0,164.0 231.0 -51.0 67.0 192.0 202.0 185.0 191.0 156.0 89.0 86.0 145.0 161.0 125.0 132.0,-125.0 355.0 264.0 277.0 294.0 227.0 179.0 165.0 101.0 28.0 -9.0 9.0 22.0 -1.0 -33.0,-96.0 49.0 128.0 152.0 143.0 141.0 159.0 210.0 216.0 182.0 184.0 182.0 133.0 76.0 -33.0,120 106 108 101 116 127 132 133 133 134 128 128 128 126 124,101 83 100 97 87 102 83 79 64 58 36 37 41 40 45,151 144 148 142 147 150 148 143 132 127 112 105 103 99 98,88 80 77 84 55 85 86 96 79 96 94 94 95 97 96,68 54 59 58 65 76 85 103 80 86 97 105 107 112 115,2→6
137,2610.0 668.0 402.0 -218.0 -376.0 -31.0 90.0 -164.0 -218.0 -81.0 -124.0 -503.0 -872.0 -1542.0 -2096.0,-2660.0 -1669.0 -1498.0 -588.0 -519.0 -442.0 -636.0 134.0 183.0 -149.0 438.0 877.0 1612.0 2720.0 3414.0,3294.0 1486.0 1084.0 428.0 398.0 307.0 229.0 270.0 20.0 554.0 475.0 482.0 176.0 -268.0 -1072.0,231.0 -51.0 67.0 192.0 202.0 185.0 191.0 156.0 89.0 86.0 145.0 161.0 125.0 132.0 173.0,355.0 264.0 277.0 294.0 227.0 179.0 165.0 101.0 28.0 -9.0 9.0 22.0 -1.0 -33.0 -102.0,49.0 128.0 152.0 143.0 141.0 159.0 210.0 216.0 182.0 184.0 182.0 133.0 76.0 -33.0 -223.0,106 108 101 116 127 132 133 133 134 128 128 128 126 124 123,83 100 97 87 102 83 79 64 58 36 37 41 40 45 46,144 148 142 147 150 148 143 132 127 112 105 103 99 98 98,80 77 84 55 85 86 96 79 96 94 94 95 97 96 100,54 59 58 65 76 85 103 80 86 97 105 107 112 115 121,2→6
138,668.0 402.0 -218.0 -376.0 -31.0 90.0 -164.0 -218.0 -81.0 -124.0 -503.0 -872.0 -1542.0 -2096.0 -1938.0,-1669.0 -1498.0 -588.0 -519.0 -442.0 -636.0 134.0 183.0 -149.0 438.0 877.0 1612.0 2720.0 3414.0 3604.0,1486.0 1084.0 428.0 398.0 307.0 229.0 270.0 20.0 554.0 475.0 482.0 176.0 -268.0 -1072.0 -1663.0,-51.0 67.0 192.0 202.0 185.0 191.0 156.0 89.0 86.0 145.0 161.0 125.0 132.0 173.0 187.0,264.0 277.0 294.0 227.0 179.0 165.0 101.0 28.0 -9.0 9.0 22.0 -1.0 -33.0 -102.0 -329.0,128.0 152.0 143.0 141.0 159.0 210.0 216.0 182.0 184.0 182.0 133.0 76.0 -33.0 -223.0 -386.0,108 101 116 127 132 133 133 134 128 128 128 126 124 123 122,100 97 87 102 83 79 64 58 36 37 41 40 45 46 47,148 142 147 150 148 143 132 127 112 105 103 99 98 98 93,77 84 55 85 86 96 79 96 94 94 95 97 96 100 98,59 58 65 76 85 103 80 86 97 105 107 112 115 121 122,2→6
139,402.0 -218.0 -376.0 -31.0 90.0 -164.0 -218.0 -81.0 -124.0 -503.0 -872.0 -1542.0 -2096.0 -1938.0 891.0,-1498.0 -588.0 -519.0 -442.0 -636.0 134.0 183.0 -149.0 438.0 877.0 1612.0 2720.0 3414.0 3604.0 1754.0,1084.0 428.0 398.0 307.0 229.0 270.0 20.0 554.0 475.0 482.0 176.0 -268.0 -1072.0 -1663.0 210.0,67.0 192.0 202.0 185.0 191.0 156.0 89.0 86.0 145.0 161.0 125.0 132.0 173.0 187.0 133.0,277.0 294.0 227.0 179.0 165.0 101.0 28.0 -9.0 9.0 22.0 -1.0 -33.0 -102.0 -329.0 -553.0,152.0 143.0 141.0 159.0 210.0 216.0 182.0 184.0 182.0 133.0 76.0 -33.0 -223.0 -386.0 -395.0,101 116 127 132 133 133 134 128 128 128 126 124 123 122 122,97 87 102 83 79 64 58 36 37 41 40 45 46 47 41,142 147 150 148 143 132 127 112 105 103 99 98 98 93 100,84 55 85 86 96 79 96 94 94 95 97 96 100 98 99,58 65 76 85 103 80 86 97 105 107 112 115 121 122 124,2→6
140,3988.0 2788.0 808.0 -67.0 -561.0 -310.0 -296.0 -304.0 -203.0 -661.0 -479.0 -410.0 -366.0 230.0 -180.0,-2047.0 -1931.0 -914.0 10.0 496.0 430.0 462.0 204.0 536.0 601.0 151.0 334.0 963.0 2100.0 3075.0,4396.0 3272.0 2110.0 1796.0 1599.0 1373.0 1047.0 1069.0 546.0 95.0 -78.0 -72.0 -825.0 -1888.0 -3578.0,-21.0 -118.0 -114.0 -198.0 -242.0 -271.0 -251.0 -146.0 -100.0 -215.0 -191.0 -135.0 -105.0 -106.0 -25.0,-129.0 179.0 263.0 265.0 233.0 291.0 343.0 402.0 438.0 379.0 294.0 256.0 188.0 64.0 -137.0,-41.0 66.0 123.0 136.0 149.0 151.0 150.0 110.0 97.0 115.0 91.0 76.0 38.0 -52.0 -342.0,131 133 135 134 139 142 146 149 138 137 134 134 143 139 133,37 45 55 77 70 70 62 67 56 57 51 59 59 56 53,114 115 117 138 134 130 127 125 114 108 105 102 107 101 99,100 93 99 119 117 103 106 88 71 84 80 78 83 82 86,126 127 127 144 143 138 132 90 89 93 76 67 65 59 59,6→0
141,2788.0 808.0 -67.0 -561.0 -310.0 -296.0 -304.0 -203.0 -661.0 -479.0 -410.0 -366.0 230.0 -180.0 -70.0,-1931.0 -914.0 10.0 496.0 430.0 462.0 204.0 536.0 601.0 151.0 334.0 963.0 2100.0 3075.0 3769.0,3272.0 2110.0 1796.0 1599.0 1373.0 1047.0 1069.0 546.0 95.0 -78.0 -72.0 -825.0 -1888.0 -3578.0 -4482.0,-118.0 -114.0 -198.0 -242.0 -271.0 -251.0 -146.0 -100.0 -215.0 -191.0 -135.0 -105.0 -106.0 -25.0 -34.0,179.0 263.0 265.0 233.0 291.0 343.0 402.0 438.0 379.0 294.0 256.0 188.0 64.0 -137.0 -561.0,66.0 123.0 136.0 149.0 151.0 150.0 110.0 97.0 115.0 91.0 76.0 38.0 -52.0 -342.0 -729.0,133 135 134 139 142 146 149 138 137 134 134 143 139 133 125,45 55 77 70 70 62 67 56 57 51 59 59 56 53 49,115 117 138 134 130 127 125 114 108 105 102 107 101 99 99,93 99 119 117 103 106 88 71 84 80 78 83 82 86 77,127 127 144 143 138 132 90 89 93 76 67 65 59 59 54,6→0
142,9439.0 4705.0 2089.0 1145.0 90.0 85.0 -182.0 -517.0 -487.0 -474.0 -588.0 -410.0 -320.0 -488.0 -807.0,-4446.0 -9023.0 -4011.0 -2295.0 -1694.0 -758.0 -27.0 75.0 -26.0 -6.0 109.0 111.0 -68.0 569.0 2116.0,3369.0 742.0 436.0 713.0 569.0 587.0 388.0 67.0 63.0 145.0 -47.0 121.0 25.0 -263.0 -1007.0,-465.0 256.0 113.0 -21.0 -4.0 16.0 -24.0 -67.0 -31.0 8.0 13.0 36.0 85.0 146.0 137.0,-314.0 215.0 110.0 118.0 69.0 141.0 163.0 118.0 101.0 129.0 101.0 66.0 77.0 86.0 -1.0,-731.0 -181.0 289.0 334.0 359.0 377.0 320.0 252.0 202.0 196.0 187.0 186.0 206.0 253.0 164.0,78 78 80 90 88 92 92 94 93 94 88 95 96 97 96,33 41 41 37 42 43 46 43 44 46 44 42 42 44 45,75 72 71 76 74 75 76 77 78 78 75 76 77 80 79,62 61 62 63 63 65 64 65 66 66 64 65 66 67 67,43 42 43 41 44 44 41 42 45 45 44 43 45 43 45,0→0
143,4705.0 2089.0 1145.0 90.0 85.0 -182.0 -517.0 -487.0 -474.0 -588.0 -410.0 -320.0 -488.0 -807.0 -564.0,-9023.0 -4011.0 -2295.0 -1694.0 -758.0 -27.0 75.0 -26.0 -6.0 109.0 111.0 -68.0 569.0 2116.0 4056.0,742.0 436.0 713.0 569.0 587.0 388.0 67.0 63.0 145.0 -47.0 121.0 25.0 -263.0 -1007.0 -1983.0,256.0 113.0 -21.0 -4.0 16.0 -24.0 -67.0 -31.0 8.0 13.0 36.0 85.0 146.0 137.0 176.0,215.0 110.0 118.0 69.0 141.0 163.0 118.0 101.0 129.0 101.0 66.0 77.0 86.0 -1.0 -84.0,-181.0 289.0 334.0 359.0 377.0 320.0 252.0 202.0 196.0 187.0 186.0 206.0 253.0 164.0 -278.0,78 80 90 88 92 92 94 93 94 88 95 96 97 96 99,41 41 37 42 43 46 43 44 46 44 42 42 44 45 45,72 71 76 74 75 76 77 78 78 75 76 77 80 79 77,61 62 63 63 65 64 65 66 66 64 65 66 67 67 65,42 43 41 44 44 41 42 45 45 44 43 45 43 45 45,0→0
