timestamp,ax,ay,az,gx,gy,gz,flex1,flex2,flex3,flex4,flex5,emg1,emg2,emg3
2025-02-26 15:25:07.645,-427.0,-52.0,957.0,6.0,3.0,-1.0,141,117,111,127,125
2025-02-26 15:25:07.645,-432.0,-46.0,945.0,6.0,2.0,-1.0,140,115,110,126,124
2025-02-26 15:25:07.649,-442.0,-35.0,943.0,4.0,1.0,-1.0,141,117,112,128,126
2025-02-26 15:25:07.651,-440.0,-29.0,951.0,2.0,-1.0,-1.0,141,116,111,127,126
2025-02-26 15:25:07.654,-444.0,-24.0,946.0,0.0,-1.0,-1.0,139,116,110,127,126
2025-02-26 15:25:07.657,-446.0,-21.0,952.0,-1.0,-2.0,-1.0,140,117,111,127,126
2025-02-26 15:25:07.658,-446.0,-25.0,946.0,-2.0,-3.0,-2.0,143,118,112,128,127
2025-02-26 15:25:07.661,-434.0,-31.0,952.0,-4.0,-3.0,-3.0,140,115,110,127,125
2025-02-26 15:25:07.663,-442.0,-45.0,946.0,-5.0,-3.0,-3.0,142,116,110,128,127
2025-02-26 15:25:07.663,-443.0,-61.0,941.0,-5.0,-2.0,-3.0,141,116,111,128,126
2025-02-26 15:25:07.663,-418.0,-58.0,943.0,-4.0,-1.0,-3.0,141,114,111,126,126
2025-02-26 15:25:07.663,-416.0,-60.0,951.0,-3.0,0.0,-2.0,142,117,111,128,126
2025-02-26 15:25:07.663,-423.0,-71.0,942.0,-2.0,1.0,-2.0,140,115,110,128,126
2025-02-26 15:25:07.663,-409.0,-64.0,938.0,0.0,1.0,-2.0,139,115,109,127,126
2025-02-26 15:25:07.677,-421.0,-61.0,919.0,1.0,2.0,-1.0,142,117,113,129,127
2025-02-26 15:25:07.679,-430.0,-56.0,933.0,1.0,3.0,-1.0,141,116,111,128,126
2025-02-26 15:25:07.681,-423.0,-57.0,924.0,0.0,3.0,-1.0,140,115,110,126,124
2025-02-26 15:25:07.682,-431.0,-56.0,925.0,-1.0,3.0,-1.0,140,116,111,128,126
2025-02-26 15:25:07.682,-422.0,-62.0,922.0,-2.0,3.0,-1.0,141,117,112,128,127
2025-02-26 15:25:07.682,-422.0,-65.0,913.0,-2.0,2.0,-1.0,140,116,111,126,125
2025-02-26 15:25:07.682,-428.0,-70.0,917.0,-3.0,2.0,-1.0,139,116,111,127,125
2025-02-26 15:25:07.691,-424.0,-65.0,910.0,-3.0,1.0,-1.0,140,114,110,126,125
2025-02-26 15:25:07.693,-428.0,-67.0,904.0,-3.0,1.0,-1.0,141,116,111,128,125
2025-02-26 15:25:07.693,-424.0,-79.0,902.0,-4.0,-1.0,-1.0,141,116,111,128,126
2025-02-26 15:25:07.693,-430.0,-80.0,895.0,-4.0,-2.0,0.0,141,116,110,128,125
2025-02-26 15:25:07.693,-424.0,-75.0,897.0,-4.0,-2.0,0.0,141,116,110,127,124
2025-02-26 15:25:07.693,-422.0,-69.0,901.0,-3.0,-3.0,0.0,142,117,110,128,125
2025-02-26 15:25:07.693,-421.0,-74.0,899.0,-3.0,-3.0,0.0,140,116,111,128,126
2025-02-26 15:25:07.710,-420.0,-78.0,901.0,-2.0,-3.0,0.0,140,116,110,127,124
2025-02-26 15:25:07.712,-417.0,-74.0,913.0,0.0,-3.0,-1.0,142,116,110,127,125
2025-02-26 15:25:07.718,-412.0,-81.0,922.0,1.0,-2.0,-1.0,140,115,109,127,124
2025-02-26 15:25:07.722,-412.0,-82.0,926.0,2.0,-2.0,-2.0,141,115,109,126,124
2025-02-26 15:25:07.730,-413.0,-82.0,929.0,4.0,-1.0,-2.0,140,116,112,129,126
2025-02-26 15:25:07.734,-413.0,-84.0,932.0,5.0,0.0,-2.0,140,117,110,127,126
2025-02-26 15:25:07.739,-417.0,-79.0,932.0,5.0,0.0,-2.0,140,114,109,127,125
2025-02-26 15:25:07.742,-414.0,-71.0,935.0,6.0,0.0,-1.0,141,117,111,127,125
2025-02-26 15:25:07.751,-415.0,-70.0,936.0,6.0,0.0,-1.0,141,115,111,128,123
2025-02-26 15:25:07.755,-417.0,-74.0,943.0,5.0,0.0,-1.0,141,116,113,127,125
2025-02-26 15:25:07.756,-414.0,-69.0,944.0,4.0,0.0,-1.0,142,116,111,127,125
2025-02-26 15:25:07.763,-413.0,-64.0,951.0,4.0,0.0,-1.0,139,116,110,126,125
2025-02-26 15:25:07.767,-412.0,-58.0,949.0,2.0,0.0,-1.0,142,116,111,127,125
2025-02-26 15:25:07.776,-412.0,-51.0,944.0,0.0,0.0,-1.0,141,115,110,127,124
2025-02-26 15:25:07.779,-412.0,-47.0,942.0,-3.0,-1.0,-2.0,140,115,109,126,124
2025-02-26 15:25:07.784,-414.0,-48.0,936.0,-6.0,-1.0,-2.0,141,117,111,127,127
2025-02-26 15:25:07.788,-413.0,-48.0,932.0,-9.0,-2.0,-2.0,142,117,111,128,126
2025-02-26 15:25:07.796,-409.0,-58.0,928.0,-10.0,-2.0,-3.0,139,115,110,127,125
2025-02-26 15:25:07.800,-411.0,-63.0,916.0,-13.0,-3.0,-3.0,140,116,111,126,125
2025-02-26 15:25:07.805,-414.0,-68.0,910.0,-14.0,-4.0,-3.0,143,116,110,130,126
2025-02-26 15:25:07.809,-403.0,-79.0,916.0,-15.0,-5.0,-3.0,141,116,111,126,126
2025-02-26 15:25:07.817,-398.0,-84.0,908.0,-15.0,-6.0,-2.0,140,117,110,127,124
2025-02-26 15:25:07.820,-392.0,-102.0,913.0,-15.0,-6.0,-2.0,139,113,110,125,124
2025-02-26 15:25:07.827,-398.0,-105.0,909.0,-13.0,-6.0,-1.0,139,115,110,127,125
2025-02-26 15:25:07.827,-399.0,-104.0,916.0,-10.0,-6.0,-1.0,140,116,111,128,126
2025-02-26 15:25:07.838,-385.0,-111.0,916.0,-9.0,-5.0,0.0,141,116,110,127,125
2025-02-26 15:25:07.839,-389.0,-114.0,916.0,-5.0,-4.0,1.0,140,115,109,126,124
2025-02-26 15:25:07.839,-394.0,-111.0,916.0,-1.0,-3.0,1.0,140,115,110,126,125
2025-02-26 15:25:07.853,-400.0,-107.0,917.0,3.0,-1.0,2.0,142,118,112,127,125
2025-02-26 15:25:07.858,-404.0,-103.0,922.0,4.0,0.0,2.0,141,117,111,127,124
2025-02-26 15:25:07.862,-407.0,-95.0,926.0,7.0,0.0,3.0,139,116,111,128,126
2025-02-26 15:25:07.866,-416.0,-91.0,929.0,8.0,1.0,3.0,141,115,111,128,125
2025-02-26 15:25:07.872,-420.0,-74.0,925.0,9.0,1.0,3.0,140,116,110,127,126
2025-02-26 15:25:07.878,-427.0,-62.0,931.0,9.0,1.0,3.0,139,115,111,126,125
2025-02-26 15:25:07.882,-430.0,-53.0,931.0,9.0,0.0,3.0,141,116,111,128,125
2025-02-26 15:25:07.887,-436.0,-36.0,934.0,8.0,0.0,3.0,140,117,111,128,126
2025-02-26 15:25:07.890,-444.0,-26.0,936.0,5.0,-1.0,2.0,140,116,111,126,124
2025-02-26 15:25:07.898,-441.0,-26.0,935.0,2.0,-2.0,2.0,139,116,111,128,126
2025-02-26 15:25:07.901,-442.0,-23.0,937.0,0.0,-3.0,1.0,141,116,111,127,126
2025-02-26 15:25:07.901,-439.0,-17.0,931.0,-3.0,-3.0,0.0,141,115,110,127,125
2025-02-26 15:25:07.912,-437.0,-24.0,931.0,-5.0,-5.0,0.0,142,117,111,127,125
2025-02-26 15:25:07.919,-435.0,-32.0,924.0,-6.0,-6.0,-1.0,140,115,111,127,125
2025-02-26 15:25:07.922,-435.0,-41.0,930.0,-7.0,-6.0,-1.0,142,116,111,126,124
2025-02-26 15:25:07.927,-425.0,-43.0,931.0,-7.0,-7.0,0.0,139,115,110,127,125
2025-02-26 15:25:07.928,-417.0,-56.0,931.0,-5.0,-7.0,0.0,141,117,111,127,126
2025-02-26 15:25:07.928,-414.0,-64.0,942.0,-4.0,-7.0,0.0,140,118,111,126,125
2025-02-26 15:25:07.942,-417.0,-68.0,954.0,-2.0,-6.0,0.0,139,115,110,128,125
2025-02-26 15:25:07.948,-412.0,-64.0,956.0,-1.0,-5.0,0.0,141,117,111,129,127
2025-02-26 15:25:07.952,-410.0,-65.0,962.0,0.0,-4.0,0.0,141,116,110,125,126
2025-02-26 15:25:07.956,-412.0,-58.0,967.0,2.0,-4.0,0.0,141,116,110,126,125
2025-02-26 15:25:07.956,-413.0,-59.0,973.0,3.0,-3.0,0.0,141,116,110,127,125
2025-02-26 15:25:07.956,-420.0,-54.0,973.0,4.0,-2.0,0.0,141,117,111,128,125
2025-02-26 15:25:07.972,-417.0,-48.0,964.0,4.0,-2.0,0.0,141,116,111,127,127
2025-02-26 15:25:07.976,-423.0,-49.0,969.0,3.0,-2.0,0.0,139,115,109,125,124
2025-02-26 15:25:07.978,-422.0,-46.0,971.0,2.0,-1.0,0.0,140,116,111,128,126
2025-02-26 15:25:07.978,-423.0,-39.0,970.0,1.0,-1.0,0.0,141,116,109,127,125
2025-02-26 15:25:07.993,-424.0,-39.0,960.0,0.0,-2.0,-1.0,139,115,109,126,125
2025-02-26 15:25:07.997,-420.0,-39.0,962.0,-3.0,-2.0,-1.0,142,117,111,128,126
2025-02-26 15:25:08.001,-424.0,-41.0,956.0,-4.0,-3.0,-1.0,140,115,109,128,125
2025-02-26 15:25:08.009,-423.0,-42.0,953.0,-6.0,-4.0,0.0,141,116,110,127,121
2025-02-26 15:25:08.013,-417.0,-48.0,952.0,-7.0,-4.0,-1.0,139,116,110,128,126
2025-02-26 15:25:08.017,-407.0,-54.0,950.0,-7.0,-4.0,-1.0,141,115,110,128,126
2025-02-26 15:25:08.021,-404.0,-63.0,953.0,-7.0,-4.0,-1.0,143,118,113,128,127
2025-02-26 15:25:08.030,-398.0,-84.0,955.0,-6.0,-3.0,-1.0,140,115,110,127,124
2025-02-26 15:25:08.033,-398.0,-87.0,952.0,-4.0,-3.0,0.0,141,116,111,128,126
2025-02-26 15:25:08.033,-398.0,-88.0,951.0,-1.0,-2.0,1.0,141,116,111,125,125
2025-02-26 15:25:08.033,-403.0,-91.0,947.0,0.0,-2.0,2.0,142,117,112,128,126
2025-02-26 15:25:08.049,-401.0,-84.0,951.0,2.0,-1.0,2.0,140,115,111,127,126
2025-02-26 15:25:08.054,-402.0,-77.0,947.0,3.0,0.0,3.0,140,115,110,128,126
2025-02-26 15:25:08.058,-404.0,-74.0,950.0,4.0,0.0,3.0,140,114,109,127,122
2025-02-26 15:25:08.058,-406.0,-64.0,946.0,4.0,0.0,3.0,141,116,111,126,125
2025-02-26 15:25:08.067,-411.0,-56.0,946.0,3.0,0.0,3.0,145,118,113,130,129
2025-02-26 15:25:08.069,-406.0,-47.0,952.0,2.0,-1.0,3.0,140,114,109,126,125
2025-02-26 15:25:08.079,-410.0,-45.0,954.0,1.0,-1.0,3.0,140,116,110,126,124
2025-02-26 15:25:08.082,-411.0,-35.0,957.0,-2.0,-2.0,2.0,142,118,113,129,126
2025-02-26 15:25:08.088,-410.0,-40.0,958.0,-2.0,-2.0,2.0,140,117,112,127,125
2025-02-26 15:25:08.091,-409.0,-41.0,965.0,-4.0,-2.0,2.0,138,114,110,127,124
2025-02-26 15:25:08.099,-400.0,-43.0,962.0,-5.0,-1.0,2.0,142,117,111,126,125
2025-02-26 15:25:08.103,-390.0,-50.0,964.0,-5.0,0.0,2.0,142,117,111,128,127
2025-02-26 15:25:08.107,-392.0,-61.0,967.0,-4.0,1.0,2.0,139,116,111,127,124
2025-02-26 15:25:08.112,-388.0,-72.0,962.0,-3.0,2.0,2.0,140,116,111,126,125
2025-02-26 15:25:08.112,-390.0,-72.0,959.0,-1.0,2.0,2.0,140,116,111,127,126
2025-02-26 15:25:08.124,-396.0,-66.0,951.0,1.0,3.0,3.0,142,117,113,128,125
2025-02-26 15:25:08.128,-397.0,-60.0,949.0,1.0,2.0,4.0,140,116,111,128,126
2025-02-26 15:25:08.132,-401.0,-60.0,948.0,2.0,2.0,4.0,141,116,111,128,126
2025-02-26 15:25:08.136,-404.0,-46.0,939.0,1.0,2.0,4.0,139,114,110,126,122
2025-02-26 15:25:08.145,-405.0,-46.0,936.0,1.0,2.0,4.0,141,117,111,128,126
2025-02-26 15:25:08.149,-409.0,-40.0,936.0,0.0,1.0,3.0,140,116,111,128,126
2025-02-26 15:25:08.153,-403.0,-33.0,929.0,0.0,0.0,2.0,139,114,109,126,125
2025-02-26 15:25:08.157,-409.0,-35.0,933.0,-2.0,0.0,2.0,138,115,111,128,125
2025-02-26 15:25:08.161,-401.0,-32.0,931.0,-3.0,-1.0,2.0,141,116,110,127,125
2025-02-26 15:25:08.168,-403.0,-38.0,925.0,-5.0,-1.0,1.0,140,115,109,127,125
2025-02-26 15:25:08.173,-401.0,-39.0,922.0,-7.0,-2.0,1.0,140,116,111,125,126
2025-02-26 15:25:08.177,-396.0,-44.0,918.0,-7.0,-2.0,1.0,138,115,111,129,126
2025-02-26 15:25:08.182,-393.0,-57.0,917.0,-8.0,-2.0,1.0,141,115,109,126,125
2025-02-26 15:25:08.189,-387.0,-58.0,917.0,-7.0,-1.0,2.0,139,114,110,126,125
2025-02-26 15:25:08.193,-383.0,-72.0,916.0,-6.0,0.0,1.0,141,116,110,127,126
2025-02-26 15:25:08.198,-378.0,-76.0,911.0,-5.0,0.0,1.0,140,115,110,127,126
2025-02-26 15:25:08.202,-375.0,-83.0,910.0,-2.0,1.0,2.0,139,115,109,127,126
2025-02-26 15:25:08.206,-373.0,-77.0,906.0,1.0,2.0,2.0,142,117,111,128,127
2025-02-26 15:25:08.211,-383.0,-75.0,906.0,1.0,3.0,3.0,141,116,110,128,126
2025-02-26 15:25:08.217,-383.0,-69.0,906.0,2.0,3.0,3.0,139,115,111,127,125
2025-02-26 15:25:08.222,-376.0,-65.0,920.0,1.0,3.0,3.0,142,117,112,129,125
2025-02-26 15:25:08.226,-374.0,-68.0,943.0,2.0,2.0,3.0,141,116,111,128,126
2025-02-26 15:25:08.228,-403.0,-51.0,899.0,2.0,2.0,3.0,140,115,111,126,124
2025-02-26 15:25:08.238,-404.0,-54.0,897.0,0.0,0.0,3.0,139,117,109,128,126
2025-02-26 15:25:08.242,-389.0,-49.0,898.0,-1.0,-1.0,3.0,137,115,110,127,124
2025-02-26 15:25:08.247,-391.0,-35.0,883.0,-4.0,-1.0,3.0,140,114,110,128,126
2025-02-26 15:25:08.252,-401.0,-16.0,885.0,-7.0,-2.0,3.0,142,117,112,128,126
2025-02-26 15:25:08.259,-415.0,0.0,877.0,-9.0,-3.0,3.0,140,116,110,127,125
2025-02-26 15:25:08.260,-418.0,36.0,859.0,-13.0,-3.0,2.0,139,115,110,127,125
2025-02-26 15:25:08.264,-440.0,53.0,816.0,-17.0,-4.0,2.0,143,116,112,128,126
2025-02-26 15:25:08.271,-450.0,98.0,792.0,-19.0,-4.0,1.0,142,116,111,127,126
2025-02-26 15:25:08.276,-455.0,129.0,759.0,-25.0,-5.0,-1.0,140,116,110,126,124
2025-02-26 15:25:08.284,-465.0,153.0,708.0,-29.0,-6.0,-2.0,140,115,109,125,124
2025-02-26 15:25:08.287,-494.0,166.0,671.0,-32.0,-8.0,-6.0,141,117,110,127,126
2025-02-26 15:25:08.293,-512.0,188.0,601.0,-32.0,-13.0,-12.0,141,116,110,128,125
2025-02-26 15:25:08.300,-537.0,191.0,537.0,-35.0,-18.0,-18.0,139,115,110,127,126
2025-02-26 15:25:08.303,-547.0,166.0,431.0,-32.0,-23.0,-23.0,141,116,110,128,126
2025-02-26 15:25:08.308,-549.0,132.0,444.0,-32.0,-33.0,-25.0,140,116,110,126,124
2025-02-26 15:25:08.314,-585.0,156.0,426.0,-30.0,-45.0,-30.0,140,117,110,128,126
2025-02-26 15:25:08.320,-575.0,138.0,426.0,-25.0,-59.0,-34.0,141,116,110,127,125
2025-02-26 15:25:08.324,-579.0,64.0,451.0,-21.0,-73.0,-37.0,141,117,110,128,126
2025-02-26 15:25:08.332,-583.0,83.0,427.0,-17.0,-81.0,-41.0,141,115,109,128,125
2025-02-26 15:25:08.336,-584.0,72.0,522.0,-16.0,-96.0,-43.0,141,115,110,125,124
2025-02-26 15:25:08.338,-568.0,27.0,560.0,-15.0,-114.0,-47.0,141,116,110,127,126
2025-02-26 15:25:08.346,-556.0,33.0,614.0,-20.0,-135.0,-50.0,141,116,110,126,126
2025-02-26 15:25:08.353,-532.0,-28.0,697.0,-21.0,-160.0,-52.0,141,119,110,127,124
2025-02-26 15:25:08.357,-492.0,-50.0,820.0,-35.0,-187.0,-52.0,145,117,110,131,126
2025-02-26 15:25:08.365,-459.0,-111.0,940.0,-47.0,-200.0,-48.0,140,114,109,126,124
2025-02-26 15:25:08.370,-373.0,-255.0,1195.0,-65.0,-226.0,-40.0,140,115,108,125,124
2025-02-26 15:25:08.374,-259.0,-370.0,1429.0,-82.0,-253.0,-35.0,140,115,109,126,124
2025-02-26 15:25:08.381,-154.0,-433.0,1514.0,-71.0,-280.0,-29.0,140,115,108,126,124
2025-02-26 15:25:08.386,-233.0,-640.0,1903.0,-118.0,-310.0,-16.0,142,117,111,129,126
2025-02-26 15:25:08.391,146.0,-594.0,2350.0,-135.0,-294.0,4.0,141,116,110,128,124
2025-02-26 15:25:08.398,491.0,-646.0,2569.0,-162.0,-259.0,18.0,141,117,111,127,124
2025-02-26 15:25:08.403,565.0,-709.0,2637.0,-175.0,-226.0,26.0,141,115,110,128,124
2025-02-26 15:25:08.407,522.0,-803.0,2773.0,-183.0,-178.0,33.0,142,116,109,127,122
2025-02-26 15:25:08.415,746.0,-739.0,2895.0,-200.0,-113.0,42.0,140,115,109,125,121
2025-02-26 15:25:08.418,870.0,-790.0,2998.0,-213.0,-75.0,50.0,140,115,108,125,121
2025-02-26 15:25:08.427,868.0,-879.0,2806.0,-222.0,-6.0,55.0,142,116,110,127,120
2025-02-26 15:25:08.430,723.0,-900.0,2796.0,-238.0,61.0,67.0,142,117,110,126,120
2025-02-26 15:25:08.435,638.0,-976.0,2696.0,-266.0,130.0,82.0,141,115,107,124,117
2025-02-26 15:25:08.443,624.0,-949.0,2489.0,-289.0,180.0,97.0,142,114,108,125,114
2025-02-26 15:25:08.448,572.0,-1001.0,2425.0,-293.0,236.0,111.0,143,112,106,127,114
2025-02-26 15:25:08.452,676.0,-900.0,2341.0,-314.0,279.0,121.0,141,111,103,122,113
2025-02-26 15:25:08.460,545.0,-1090.0,1897.0,-300.0,285.0,128.0,142,107,104,121,110
2025-02-26 15:25:08.464,326.0,-893.0,1750.0,-306.0,304.0,136.0,142,103,95,121,107
2025-02-26 15:25:08.468,363.0,-788.0,1377.0,-308.0,324.0,143.0,141,97,91,122,104
2025-02-26 15:25:08.476,289.0,-788.0,1400.0,-298.0,341.0,143.0,141,93,88,122,102
2025-02-26 15:25:08.481,261.0,-677.0,1315.0,-292.0,349.0,144.0,141,87,84,120,101
2025-02-26 15:25:08.485,159.0,-639.0,1238.0,-294.0,358.0,152.0,141,84,80,117,99
2025-02-26 15:25:08.492,191.0,-624.0,1180.0,-298.0,362.0,158.0,140,75,75,115,96
2025-02-26 15:25:08.496,207.0,-559.0,1056.0,-303.0,370.0,162.0,140,73,71,111,97
2025-02-26 15:25:08.501,195.0,-541.0,943.0,-306.0,375.0,168.0,141,72,70,109,97
2025-02-26 15:25:08.506,237.0,-358.0,801.0,-309.0,377.0,174.0,141,67,66,106,97
2025-02-26 15:25:08.513,192.0,-405.0,796.0,-305.0,379.0,183.0,142,65,64,103,94
2025-02-26 15:25:08.517,139.0,-407.0,715.0,-297.0,378.0,192.0,139,61,61,96,91
2025-02-26 15:25:08.522,-13.0,-385.0,645.0,-290.0,374.0,193.0,142,61,60,92,89
2025-02-26 15:25:08.526,-68.0,-483.0,645.0,-281.0,372.0,201.0,141,58,60,92,87
2025-02-26 15:25:08.533,-81.0,-421.0,551.0,-274.0,373.0,208.0,139,57,59,91,83
2025-02-26 15:25:08.538,-32.0,-393.0,636.0,-266.0,375.0,218.0,141,55,57,87,80
2025-02-26 15:25:08.542,-17.0,-331.0,506.0,-261.0,378.0,226.0,139,55,57,83,79
2025-02-26 15:25:08.546,-24.0,-358.0,475.0,-247.0,379.0,241.0,141,55,55,82,79
2025-02-26 15:25:08.554,85.0,-259.0,454.0,-236.0,376.0,255.0,139,54,54,84,76
2025-02-26 15:25:08.558,91.0,-187.0,521.0,-214.0,378.0,261.0,139,54,56,84,76
2025-02-26 15:25:08.562,201.0,-82.0,496.0,-181.0,378.0,271.0,140,54,54,80,75
2025-02-26 15:25:08.567,227.0,86.0,450.0,-164.0,372.0,271.0,139,54,55,80,74
2025-02-26 15:25:08.575,210.0,400.0,526.0,-161.0,371.0,269.0,139,55,53,75,71
2025-02-26 15:25:08.579,206.0,579.0,216.0,-144.0,350.0,269.0,141,55,56,79,72
2025-02-26 15:25:08.583,91.0,715.0,92.0,-184.0,313.0,280.0,143,60,59,88,73
2025-02-26 15:25:08.588,241.0,1333.0,-216.0,-193.0,303.0,279.0,148,67,62,91,76
2025-02-26 15:25:08.595,-64.0,1541.0,-517.0,-207.0,261.0,281.0,153,72,73,101,84
2025-02-26 15:25:08.599,-209.0,2136.0,-814.0,-183.0,230.0,272.0,165,89,88,115,96
2025-02-26 15:25:08.603,-507.0,2638.0,-1145.0,-153.0,195.0,243.0,157,79,79,106,89
2025-02-26 15:25:08.611,-756.0,2719.0,-1283.0,-152.0,177.0,182.0,159,81,79,105,88
2025-02-26 15:25:08.615,-558.0,2666.0,-1328.0,-153.0,141.0,113.0,158,84,82,106,87
2025-02-26 15:25:08.619,-623.0,3483.0,-1770.0,-79.0,118.0,10.0,155,82,81,104,87
2025-02-26 15:25:08.627,-846.0,4023.0,-2024.0,24.0,116.0,-47.0,156,82,81,104,87
2025-02-26 15:25:08.630,-530.0,4383.0,-2195.0,75.0,122.0,-168.0,157,85,81,105,88
2025-02-26 15:25:08.635,-744.0,4572.0,-2440.0,116.0,79.0,-294.0,156,85,82,104,87
2025-02-26 15:25:08.640,-1110.0,4962.0,-2598.0,128.0,9.0,-412.0,156,84,82,102,86
2025-02-26 15:25:08.648,-1183.0,4978.0,-2767.0,106.0,-35.0,-519.0,152,81,78,99,84
2025-02-26 15:25:08.653,-1024.0,4767.0,-2928.0,80.0,-133.0,-615.0,151,79,74,96,81
2025-02-26 15:25:08.657,-773.0,4655.0,-2850.0,47.0,-227.0,-661.0,149,76,73,95,79
2025-02-26 15:25:08.664,-543.0,4380.0,-2834.0,18.0,-326.0,-754.0,151,78,76,97,82
2025-02-26 15:25:08.669,-280.0,4158.0,-2865.0,-12.0,-434.0,-858.0,151,78,76,97,83
2025-02-26 15:25:08.673,13.0,4096.0,-2878.0,-29.0,-550.0,-971.0,159,88,81,103,91
2025-02-26 15:25:08.680,413.0,3973.0,-2881.0,-62.0,-619.0,-1080.0,156,81,81,102,88
2025-02-26 15:25:08.686,927.0,4052.0,-2960.0,-117.0,-758.0,-1181.0,150,76,75,94,82
2025-02-26 15:25:08.693,2117.0,3962.0,-2940.0,-190.0,-903.0,-1216.0,151,77,72,94,83
2025-02-26 15:25:08.697,3880.0,3657.0,-2870.0,-274.0,-1046.0,-1256.0,137,59,56,79,67
2025-02-26 15:25:08.702,6250.0,2824.0,-2166.0,-337.0,-1130.0,-1219.0,143,63,58,82,72
2025-02-26 15:25:08.709,8689.0,696.0,-543.0,-386.0,-1063.0,-1101.0,140,67,59,83,71
2025-02-26 15:25:08.714,9674.0,-2384.0,532.0,-349.0,-829.0,-911.0,143,67,63,86,77
2025-02-26 15:25:08.718,9524.0,-5919.0,2364.0,-319.0,-446.0,-652.0,148,72,66,91,82
2025-02-26 15:25:08.725,9714.0,-8934.0,3066.0,-278.0,-39.0,-346.0,151,72,70,93,83
2025-02-26 15:25:08.730,9145.0,-9785.0,2353.0,-149.0,292.0,-121.0,148,70,66,90,79
2025-02-26 15:25:08.734,7931.0,-8657.0,976.0,34.0,389.0,-36.0,148,68,66,89,78
2025-02-26 15:25:08.742,5784.0,-7805.0,-285.0,205.0,519.0,-27.0,149,67,64,89,74
2025-02-26 15:25:08.747,4013.0,-6720.0,-799.0,291.0,537.0,11.0,157,74,72,93,78
2025-02-26 15:25:08.752,2477.0,-5583.0,-1439.0,277.0,554.0,79.0,152,72,70,91,72
2025-02-26 15:25:08.757,1054.0,-5069.0,-2537.0,451.0,461.0,84.0,151,69,67,88,67
2025-02-26 15:25:08.763,1280.0,-1706.0,-1096.0,315.0,210.0,267.0,151,68,65,89,66
2025-02-26 15:25:08.767,121.0,-2719.0,-603.0,211.0,33.0,264.0,154,69,68,92,71
2025-02-26 15:25:08.772,959.0,-2068.0,-1071.0,79.0,-12.0,276.0,155,70,68,93,72
2025-02-26 15:25:08.779,253.0,-1324.0,-384.0,53.0,-69.0,285.0,152,66,67,91,69
2025-02-26 15:25:08.784,494.0,-982.0,-135.0,-203.0,-47.0,300.0,152,70,65,90,70
2025-02-26 15:25:08.796,690.0,-1609.0,70.0,-208.0,-94.0,278.0,152,69,67,93,74
2025-02-26 15:25:08.798,858.0,-1671.0,158.0,-255.0,-59.0,265.0,154,68,69,93,76
2025-02-26 15:25:08.800,712.0,-2697.0,242.0,-227.0,-41.0,245.0,152,70,66,92,76
2025-02-26 15:25:08.804,934.0,-2430.0,470.0,-159.0,-47.0,259.0,151,68,64,90,76
2025-02-26 15:25:08.808,343.0,-2458.0,408.0,-101.0,7.0,260.0,152,66,65,91,76
2025-02-26 15:25:08.812,777.0,-2628.0,469.0,-26.0,46.0,261.0,153,68,69,93,79
2025-02-26 15:25:08.820,503.0,-2455.0,436.0,13.0,86.0,271.0,153,70,68,92,78
2025-02-26 15:25:08.824,488.0,-1820.0,335.0,66.0,84.0,289.0,152,67,63,90,77
2025-02-26 15:25:08.828,381.0,-1973.0,231.0,96.0,113.0,291.0,153,71,64,92,79
2025-02-26 15:25:08.833,159.0,-1476.0,375.0,102.0,114.0,303.0,152,68,64,91,79
2025-02-26 15:25:08.841,204.0,-1323.0,239.0,124.0,130.0,313.0,149,67,62,90,77
2025-02-26 15:25:08.841,72.0,-1131.0,302.0,92.0,150.0,311.0,149,67,64,89,77
2025-02-26 15:25:08.849,91.0,-785.0,159.0,67.0,146.0,316.0,149,69,67,90,81
2025-02-26 15:25:08.852,-121.0,-716.0,166.0,44.0,151.0,307.0,146,67,64,90,80
2025-02-26 15:25:08.858,-22.0,-366.0,162.0,34.0,118.0,312.0,143,66,64,90,79
2025-02-26 15:25:08.866,-140.0,-519.0,228.0,21.0,110.0,313.0,144,69,67,93,82
2025-02-26 15:25:08.870,-188.0,-228.0,63.0,13.0,88.0,299.0,145,71,66,93,83
2025-02-26 15:25:08.871,-295.0,-102.0,130.0,-6.0,86.0,296.0,144,69,66,91,81
2025-02-26 15:25:08.878,-158.0,-154.0,233.0,-33.0,79.0,295.0,146,70,66,93,83
2025-02-26 15:25:08.885,23.0,17.0,250.0,-58.0,74.0,287.0,144,66,63,90,80
2025-02-26 15:25:08.889,-301.0,-226.0,103.0,-81.0,76.0,284.0,143,64,62,88,78
2025-02-26 15:25:08.894,-396.0,-265.0,23.0,-82.0,63.0,276.0,143,65,64,90,80
2025-02-26 15:25:08.898,-269.0,-337.0,261.0,-93.0,78.0,278.0,144,64,62,90,79
2025-02-26 15:25:08.903,-301.0,-345.0,196.0,-99.0,81.0,273.0,142,63,61,87,78
2025-02-26 15:25:08.907,-407.0,-359.0,237.0,-77.0,60.0,268.0,144,67,63,90,79
2025-02-26 15:25:08.913,-238.0,-277.0,201.0,-66.0,66.0,259.0,144,65,64,91,80
2025-02-26 15:25:08.919,-162.0,-151.0,306.0,-66.0,73.0,250.0,143,64,62,89,77
2025-02-26 15:25:08.923,-115.0,-233.0,280.0,-54.0,80.0,245.0,141,64,62,88,78
2025-02-26 15:25:08.930,-150.0,-252.0,298.0,-40.0,87.0,237.0,143,66,65,91,81
2025-02-26 15:25:08.935,-151.0,-213.0,345.0,-35.0,96.0,237.0,142,65,64,91,80
2025-02-26 15:25:08.939,-145.0,-285.0,213.0,-25.0,96.0,239.0,141,61,62,88,78
2025-02-26 15:25:08.944,-213.0,-219.0,296.0,-34.0,110.0,240.0,141,64,61,89,79
2025-02-26 15:25:08.949,-99.0,-170.0,359.0,-30.0,117.0,245.0,143,65,64,91,81
2025-02-26 15:25:08.955,-184.0,-127.0,209.0,-15.0,116.0,252.0,141,63,61,88,77
2025-02-26 15:25:08.960,-243.0,-151.0,199.0,10.0,108.0,255.0,139,63,60,87,78
2025-02-26 15:25:08.963,-311.0,-92.0,137.0,31.0,99.0,263.0,143,66,65,93,82
2025-02-26 15:25:08.968,-431.0,55.0,93.0,42.0,86.0,268.0,141,64,62,90,81
2025-02-26 15:25:08.976,-529.0,185.0,1.0,67.0,80.0,269.0,140,62,61,86,79
2025-02-26 15:25:08.980,-497.0,202.0,19.0,85.0,69.0,280.0,140,63,62,88,79
2025-02-26 15:25:08.984,-613.0,291.0,-61.0,94.0,54.0,287.0,140,65,64,89,81
2025-02-26 15:25:08.988,-530.0,578.0,-74.0,124.0,48.0,288.0,138,64,63,89,79
2025-02-26 15:25:08.993,-571.0,719.0,-89.0,150.0,38.0,291.0,140,64,62,90,80
2025-02-26 15:25:08.998,-547.0,934.0,-122.0,170.0,22.0,291.0,139,65,63,90,81
2025-02-26 15:25:09.004,-546.0,1244.0,-111.0,209.0,19.0,276.0,138,62,61,88,79
2025-02-26 15:25:09.008,-510.0,1378.0,-199.0,258.0,19.0,261.0,140,64,63,92,81
2025-02-26 15:25:09.013,-497.0,1698.0,-228.0,282.0,26.0,218.0,139,64,61,89,80
2025-02-26 15:25:09.021,-523.0,2103.0,-396.0,330.0,39.0,150.0,138,60,62,88,79
2025-02-26 15:25:09.022,-626.0,2348.0,-542.0,388.0,58.0,106.0,140,65,63,91,81
2025-02-26 15:25:09.028,-741.0,2843.0,-651.0,429.0,78.0,2.0,141,64,63,91,82
2025-02-26 15:25:09.034,-907.0,3266.0,-884.0,443.0,81.0,-110.0,139,62,60,90,79
2025-02-26 15:25:09.041,-873.0,3791.0,-1052.0,422.0,79.0,-175.0,140,63,62,89,79
2025-02-26 15:25:09.045,-1166.0,3979.0,-1213.0,368.0,50.0,-291.0,141,66,64,93,82
2025-02-26 15:25:09.047,-1399.0,4448.0,-1311.0,282.0,-1.0,-404.0,140,65,65,90,78
2025-02-26 15:25:09.057,-1220.0,4074.0,-1194.0,228.0,-80.0,-521.0,141,65,62,90,77
2025-02-26 15:25:09.059,-1315.0,4090.0,-1310.0,123.0,-170.0,-641.0,139,65,60,89,74
2025-02-26 15:25:09.064,-1150.0,3667.0,-1254.0,34.0,-216.0,-767.0,140,62,61,89,75
2025-02-26 15:25:09.070,-1006.0,3303.0,-1390.0,-46.0,-329.0,-895.0,139,65,61,88,75
2025-02-26 15:25:09.077,-613.0,3192.0,-1464.0,-125.0,-436.0,-956.0,137,61,59,88,72
2025-02-26 15:25:09.082,179.0,3091.0,-1586.0,-200.0,-558.0,-1077.0,141,64,60,91,76
2025-02-26 15:25:09.091,1127.0,2785.0,-1618.0,-262.0,-705.0,-1179.0,141,63,61,92,76
2025-02-26 15:25:09.095,2813.0,2420.0,-1797.0,-315.0,-838.0,-1249.0,140,63,60,90,78
2025-02-26 15:25:09.102,4958.0,1179.0,-1612.0,-358.0,-943.0,-1251.0,141,64,60,89,80
2025-02-26 15:25:09.107,7181.0,-740.0,-1314.0,-360.0,-969.0,-1160.0,142,65,60,89,82
2025-02-26 15:25:09.112,8035.0,-3447.0,42.0,-287.0,-827.0,-975.0,142,64,59,90,82
2025-02-26 15:25:09.119,8114.0,-6723.0,1632.0,-214.0,-688.0,-713.0,143,63,61,89,79
2025-02-26 15:25:09.123,7766.0,-9187.0,2402.0,-164.0,-353.0,-357.0,144,62,61,88,79
2025-02-26 15:25:09.128,7385.0,-9927.0,1979.0,-83.0,-41.0,-182.0,141,62,61,84,79
2025-02-26 15:25:09.135,7283.0,-9935.0,959.0,-26.0,221.0,88.0,147,64,64,89,79
2025-02-26 15:25:09.140,5743.0,-7905.0,657.0,-4.0,375.0,222.0,147,63,65,85,74
2025-02-26 15:25:09.144,4053.0,-5475.0,438.0,-1.0,424.0,271.0,148,63,62,83,69
2025-02-26 15:25:09.148,2779.0,-4840.0,-128.0,-13.0,456.0,279.0,149,61,62,84,62
2025-02-26 15:25:09.156,2148.0,-3207.0,-1709.0,179.0,343.0,266.0,150,62,62,85,65
2025-02-26 15:25:09.160,1182.0,-4576.0,-1081.0,206.0,154.0,234.0,149,64,62,86,64
2025-02-26 15:25:09.165,397.0,-1060.0,-946.0,202.0,39.0,253.0,157,70,68,94,72
2025-02-26 15:25:09.169,341.0,-1577.0,-803.0,162.0,30.0,246.0,153,66,65,90,69
2025-02-26 15:25:09.177,306.0,-1125.0,-200.0,73.0,-1.0,257.0,151,64,65,89,67
2025-02-26 15:25:09.181,568.0,-800.0,-136.0,-73.0,10.0,261.0,152,65,65,90,71
2025-02-26 15:25:09.185,764.0,-1632.0,-122.0,-110.0,19.0,267.0,153,64,64,91,73
2025-02-26 15:25:09.189,870.0,-1744.0,123.0,-189.0,37.0,283.0,150,63,64,88,72
2025-02-26 15:25:09.197,494.0,-1714.0,-49.0,-178.0,26.0,286.0,151,65,63,89,75
2025-02-26 15:25:09.201,485.0,-2091.0,80.0,-139.0,33.0,299.0,152,65,63,89,75
2025-02-26 15:25:09.205,430.0,-2065.0,180.0,-124.0,40.0,315.0,151,67,64,91,78
2025-02-26 15:25:09.210,286.0,-1917.0,191.0,-53.0,39.0,323.0,151,64,63,88,76
2025-02-26 15:25:09.217,450.0,-2150.0,198.0,21.0,28.0,322.0,151,65,63,92,80
2025-02-26 15:25:09.222,265.0,-1610.0,329.0,34.0,36.0,358.0,151,65,63,91,78
2025-02-26 15:25:09.225,221.0,-1556.0,284.0,84.0,44.0,359.0,152,65,61,89,79
2025-02-26 15:25:09.230,47.0,-1245.0,234.0,100.0,60.0,367.0,151,66,62,92,82
2025-02-26 15:25:09.234,46.0,-973.0,275.0,96.0,76.0,382.0,149,66,61,92,80
2025-02-26 15:25:09.242,31.0,-690.0,318.0,76.0,85.0,380.0,149,68,64,93,84
2025-02-26 15:25:09.245,7.0,-464.0,231.0,56.0,105.0,378.0,158,73,70,99,90
2025-02-26 15:25:09.250,-96.0,-804.0,262.0,39.0,115.0,362.0,152,71,68,97,88
2025-02-26 15:25:09.255,-64.0,-142.0,336.0,7.0,103.0,377.0,150,65,66,94,85
2025-02-26 15:25:09.258,-156.0,-217.0,219.0,-6.0,94.0,363.0,149,73,66,96,86
2025-02-26 15:25:09.266,-158.0,109.0,209.0,-31.0,92.0,349.0,150,74,69,98,88
2025-02-26 15:25:09.270,-281.0,361.0,283.0,-65.0,99.0,346.0,146,68,66,94,85
2025-02-26 15:25:09.274,-181.0,201.0,159.0,-111.0,92.0,340.0,147,68,65,95,86
2025-02-26 15:25:09.279,-302.0,11.0,216.0,-140.0,73.0,332.0,148,69,66,95,86
2025-02-26 15:25:09.282,-348.0,151.0,171.0,-160.0,67.0,320.0,150,70,68,97,87
2025-02-26 15:25:09.291,-275.0,104.0,130.0,-197.0,70.0,316.0,148,65,63,93,84
2025-02-26 15:25:09.294,-404.0,16.0,193.0,-201.0,45.0,309.0,148,68,67,94,86
2025-02-26 15:25:09.294,-439.0,-54.0,49.0,-190.0,22.0,295.0,147,68,65,94,84
2025-02-26 15:25:09.304,-440.0,-37.0,308.0,-191.0,20.0,296.0,148,68,66,95,85
2025-02-26 15:25:09.306,-495.0,135.0,161.0,-203.0,5.0,284.0,150,69,67,96,87
2025-02-26 15:25:09.316,-521.0,-60.0,171.0,-187.0,-7.0,274.0,147,67,65,93,85
2025-02-26 15:25:09.318,-506.0,-49.0,77.0,-173.0,-12.0,262.0,148,67,65,94,85
2025-02-26 15:25:09.324,-453.0,-37.0,156.0,-166.0,-16.0,247.0,151,70,69,97,89
2025-02-26 15:25:09.329,-362.0,-101.0,131.0,-156.0,-16.0,232.0,150,67,68,95,87
2025-02-26 15:25:09.336,-393.0,-5.0,244.0,-149.0,-13.0,218.0,150,67,66,94,87
2025-02-26 15:25:09.340,-306.0,15.0,293.0,-121.0,-3.0,214.0,147,63,64,92,83
2025-02-26 15:25:09.345,-240.0,22.0,324.0,-96.0,18.0,202.0,150,67,67,95,86
2025-02-26 15:25:09.348,-212.0,-143.0,290.0,-71.0,36.0,187.0,147,60,64,90,82
2025-02-26 15:25:09.356,-227.0,-156.0,392.0,-31.0,45.0,181.0,146,59,62,90,82
2025-02-26 15:25:09.361,-241.0,-137.0,338.0,28.0,57.0,168.0,148,61,61,91,84
2025-02-26 15:25:09.365,-247.0,-183.0,338.0,52.0,71.0,163.0,151,64,64,93,85
2025-02-26 15:25:09.366,-274.0,-87.0,304.0,97.0,74.0,165.0,148,61,61,88,82
2025-02-26 15:25:09.366,-303.0,-55.0,357.0,122.0,82.0,167.0,150,63,61,91,85
2025-02-26 15:25:09.382,-472.0,183.0,255.0,146.0,83.0,171.0,150,62,62,89,84
2025-02-26 15:25:09.385,-523.0,411.0,253.0,184.0,81.0,170.0,150,62,62,92,84
2025-02-26 15:25:09.390,-681.0,589.0,235.0,240.0,66.0,167.0,152,64,63,91,83
2025-02-26 15:25:09.395,-796.0,976.0,148.0,260.0,50.0,147.0,151,62,62,90,82
2025-02-26 15:25:09.402,-889.0,1517.0,136.0,307.0,44.0,105.0,152,62,61,91,81
2025-02-26 15:25:09.407,-714.0,2275.0,-14.0,345.0,32.0,94.0,155,63,63,90,83
2025-02-26 15:25:09.411,-905.0,2358.0,-40.0,354.0,36.0,31.0,151,61,63,91,78
2025-02-26 15:25:09.415,-875.0,3020.0,-240.0,359.0,43.0,-56.0,152,61,59,88,77
2025-02-26 15:25:09.422,-1104.0,3355.0,-483.0,347.0,48.0,-105.0,152,61,58,88,74
2025-02-26 15:25:09.426,-1049.0,3750.0,-570.0,307.0,54.0,-214.0,158,65,61,90,77
2025-02-26 15:25:09.431,-1284.0,4026.0,-828.0,257.0,27.0,-320.0,155,64,61,90,74
2025-02-26 15:25:09.436,-1491.0,4163.0,-1079.0,231.0,-34.0,-429.0,152,61,59,88,72
2025-02-26 15:25:09.442,-1524.0,4062.0,-1346.0,164.0,-71.0,-536.0,153,59,57,86,71
2025-02-26 15:25:09.448,-1490.0,3835.0,-1586.0,93.0,-161.0,-585.0,155,63,58,88,72
2025-02-26 15:25:09.455,-1311.0,3660.0,-1824.0,28.0,-265.0,-687.0,154,61,56,88,72
2025-02-26 15:25:09.460,-983.0,3363.0,-1916.0,-34.0,-374.0,-790.0,152,62,56,91,71
2025-02-26 15:25:09.464,-511.0,3125.0,-1999.0,-96.0,-503.0,-887.0,155,60,58,87,72
2025-02-26 15:25:09.471,408.0,2883.0,-2163.0,-134.0,-644.0,-943.0,155,62,57,87,72
2025-02-26 15:25:09.476,1471.0,2445.0,-2282.0,-229.0,-782.0,-957.0,156,59,55,85,73
2025-02-26 15:25:09.480,2082.0,1767.0,-2249.0,-345.0,-843.0,-932.0,156,61,56,85,73
2025-02-26 15:25:09.488,3603.0,335.0,-2143.0,-443.0,-946.0,-863.0,158,61,57,87,76
2025-02-26 15:25:09.491,5028.0,-545.0,-1887.0,-490.0,-974.0,-810.0,160,60,56,85,75
2025-02-26 15:25:09.496,5876.0,-2482.0,-1028.0,-486.0,-899.0,-653.0,158,62,58,86,76
2025-02-26 15:25:09.503,6149.0,-4404.0,-284.0,-509.0,-738.0,-485.0,160,62,58,87,76
2025-02-26 15:25:09.508,6040.0,-6062.0,893.0,-507.0,-469.0,-365.0,163,68,61,90,82
2025-02-26 15:25:09.516,6036.0,-6909.0,1748.0,-466.0,-177.0,-288.0,162,69,62,92,83
2025-02-26 15:25:09.520,5819.0,-7606.0,1543.0,-296.0,76.0,-213.0,166,67,63,90,83
2025-02-26 15:25:09.525,5513.0,-7502.0,546.0,-73.0,190.0,-147.0,164,68,65,91,81
2025-02-26 15:25:09.529,4317.0,-7149.0,-642.0,152.0,351.0,-116.0,162,66,61,90,78
2025-02-26 15:25:09.536,2979.0,-6010.0,-1193.0,237.0,437.0,-67.0,164,69,65,90,75
2025-02-26 15:25:09.539,1652.0,-5021.0,-2154.0,593.0,437.0,-32.0,166,70,65,91,71
2025-02-26 15:25:09.545,740.0,-3268.0,-1047.0,239.0,139.0,71.0,168,71,66,95,71
2025-02-26 15:25:09.553,142.0,-2238.0,1487.0,230.0,113.0,101.0,164,66,63,92,70
2025-02-26 15:25:09.558,449.0,-1902.0,-2231.0,199.0,126.0,128.0,163,66,63,89,69
2025-02-26 15:25:09.561,31.0,-1294.0,-1132.0,15.0,-55.0,148.0,167,68,65,90,71
2025-02-26 15:25:09.567,201.0,-1673.0,-2504.0,62.0,-6.0,145.0,167,68,66,93,74
2025-02-26 15:25:09.574,327.0,-1482.0,-709.0,-160.0,-6.0,150.0,163,67,64,90,74
2025-02-26 15:25:09.575,295.0,-2245.0,-233.0,-126.0,-56.0,148.0,164,66,64,88,74
2025-02-26 15:25:09.582,867.0,-2465.0,-206.0,-132.0,-138.0,174.0,165,69,63,89,77
2025-02-26 15:25:09.590,716.0,-2542.0,142.0,-63.0,-119.0,190.0,164,69,59,90,78
2025-02-26 15:25:09.594,1033.0,-2387.0,300.0,-50.0,-19.0,178.0,163,65,65,90,80
2025-02-26 15:25:09.599,744.0,-2366.0,339.0,-18.0,42.0,185.0,161,66,64,90,77
2025-02-26 15:25:09.603,613.0,-2445.0,204.0,48.0,70.0,183.0,163,67,62,91,80
2025-02-26 15:25:09.611,508.0,-2314.0,273.0,119.0,133.0,208.0,163,68,65,92,83
2025-02-26 15:25:09.615,654.0,-1946.0,405.0,129.0,155.0,242.0,163,66,61,93,81
2025-02-26 15:25:09.619,313.0,-2078.0,352.0,156.0,157.0,287.0,168,65,61,95,79
2025-02-26 15:25:09.624,403.0,-1998.0,217.0,158.0,126.0,303.0,163,67,64,91,82
2025-02-26 15:25:09.631,278.0,-1757.0,58.0,146.0,142.0,330.0,163,62,63,93,80
2025-02-26 15:25:09.636,18.0,-1720.0,-69.0,137.0,145.0,355.0,160,66,62,92,81
2025-02-26 15:25:09.639,46.0,-1245.0,-228.0,127.0,124.0,368.0,160,65,63,89,80
2025-02-26 15:25:09.643,41.0,-1061.0,-219.0,88.0,117.0,379.0,163,66,62,92,82
2025-02-26 15:25:09.652,20.0,-873.0,-289.0,62.0,117.0,387.0,163,67,64,89,81
2025-02-26 15:25:09.656,-94.0,-546.0,-301.0,25.0,108.0,385.0,161,67,63,89,81
2025-02-26 15:25:09.660,-27.0,-210.0,0.0,-27.0,86.0,374.0,166,70,66,95,85
2025-02-26 15:25:09.664,42.0,145.0,229.0,-69.0,110.0,337.0,165,71,65,96,84
2025-02-26 15:25:09.669,76.0,-91.0,152.0,-62.0,110.0,318.0,166,71,67,92,85
2025-02-26 15:25:09.676,204.0,-251.0,254.0,-15.0,90.0,313.0,168,73,70,97,88
2025-02-26 15:25:09.680,185.0,-325.0,334.0,-3.0,73.0,314.0,168,73,69,96,86
2025-02-26 15:25:09.684,161.0,-315.0,418.0,-9.0,66.0,305.0,168,71,66,96,85
2025-02-26 15:25:09.689,51.0,-240.0,452.0,7.0,74.0,302.0,174,75,72,98,89
2025-02-26 15:25:09.692,91.0,-307.0,415.0,2.0,113.0,292.0,170,74,71,99,90
2025-02-26 15:25:09.698,97.0,-336.0,440.0,-20.0,133.0,290.0,167,71,65,97,86
2025-02-26 15:25:09.705,65.0,-296.0,244.0,-42.0,188.0,289.0,168,71,69,99,87
2025-02-26 15:25:09.709,-21.0,-314.0,280.0,-82.0,222.0,295.0,168,71,71,98,86
2025-02-26 15:25:09.714,-39.0,-321.0,101.0,-78.0,218.0,302.0,167,69,66,99,85
2025-02-26 15:25:09.718,-135.0,-383.0,34.0,-26.0,171.0,301.0,165,65,68,96,86
2025-02-26 15:25:09.725,-240.0,-409.0,-26.0,31.0,119.0,306.0,168,71,69,96,85
2025-02-26 15:25:09.727,-165.0,-479.0,-77.0,53.0,103.0,317.0,168,69,67,101,87
2025-02-26 15:25:09.731,-106.0,-454.0,-16.0,71.0,89.0,327.0,165,65,67,95,83
2025-02-26 15:25:09.738,-58.0,-359.0,51.0,61.0,98.0,344.0,166,65,69,97,90
2025-02-26 15:25:09.743,32.0,-348.0,128.0,57.0,116.0,355.0,166,68,68,96,84
2025-02-26 15:25:09.750,0.0,-162.0,115.0,59.0,119.0,363.0,164,70,68,96,83
2025-02-26 15:25:09.754,37.0,-263.0,148.0,96.0,121.0,365.0,168,71,68,96,85
2025-02-26 15:25:09.759,-4.0,-174.0,162.0,122.0,121.0,355.0,164,66,67,96,83
2025-02-26 15:25:09.763,-45.0,-101.0,106.0,196.0,119.0,347.0,166,68,66,95,83
2025-02-26 15:25:09.767,-153.0,15.0,160.0,259.0,127.0,327.0,169,71,65,98,85
2025-02-26 15:25:09.775,-131.0,220.0,82.0,282.0,147.0,309.0,166,69,70,97,85
2025-02-26 15:25:09.779,-124.0,537.0,-44.0,308.0,156.0,292.0,164,68,67,91,82
2025-02-26 15:25:09.783,-302.0,688.0,-112.0,312.0,165.0,284.0,168,73,70,99,86
2025-02-26 15:25:09.787,-361.0,1036.0,-95.0,307.0,162.0,269.0,168,72,74,98,85
2025-02-26 15:25:09.795,-460.0,1246.0,-137.0,304.0,154.0,254.0,166,69,68,96,85
2025-02-26 15:25:09.800,-612.0,1319.0,-225.0,313.0,130.0,245.0,169,73,72,98,86
2025-02-26 15:25:09.804,-695.0,1498.0,-304.0,334.0,102.0,223.0,167,71,70,100,87
2025-02-26 15:25:09.811,-791.0,1688.0,-391.0,344.0,80.0,188.0,166,74,71,96,84
2025-02-26 15:25:09.815,-760.0,1953.0,-489.0,369.0,73.0,141.0,163,68,66,95,83
2025-02-26 15:25:09.817,-804.0,2065.0,-698.0,391.0,65.0,112.0,162,70,67,94,82
2025-02-26 15:25:09.824,-900.0,2269.0,-781.0,406.0,51.0,44.0,162,70,67,94,81
2025-02-26 15:25:09.830,-1092.0,2686.0,-948.0,413.0,29.0,-41.0,161,63,66,92,80
2025-02-26 15:25:09.834,-1141.0,3248.0,-1101.0,407.0,12.0,-146.0,158,66,64,90,78
2025-02-26 15:25:09.841,-1225.0,3492.0,-1247.0,365.0,-19.0,-204.0,159,66,63,92,78
2025-02-26 15:25:09.846,-1255.0,3947.0,-1319.0,297.0,-66.0,-329.0,160,68,66,95,83
2025-02-26 15:25:09.853,-1361.0,4251.0,-1480.0,211.0,-137.0,-458.0,158,67,65,93,80
2025-02-26 15:25:09.857,-1513.0,4304.0,-1552.0,150.0,-214.0,-592.0,158,69,65,91,78
2025-02-26 15:25:09.865,-1395.0,4022.0,-1718.0,51.0,-320.0,-724.0,158,67,64,90,77
2025-02-26 15:25:09.869,-1119.0,3703.0,-1898.0,-26.0,-375.0,-858.0,158,67,63,91,78
2025-02-26 15:25:09.873,-893.0,3013.0,-1998.0,-103.0,-481.0,-972.0,156,65,61,90,77
2025-02-26 15:25:09.881,-377.0,3440.0,-2408.0,-199.0,-628.0,-1017.0,155,65,61,84,75
2025-02-26 15:25:09.885,524.0,3516.0,-2625.0,-297.0,-792.0,-1089.0,156,65,58,87,75
2025-02-26 15:25:09.890,1755.0,3196.0,-2916.0,-460.0,-958.0,-1133.0,156,65,62,90,78
2025-02-26 15:25:09.898,3333.0,2675.0,-3099.0,-602.0,-1115.0,-1138.0,154,62,58,86,75
2025-02-26 15:25:09.902,5347.0,1177.0,-3356.0,-722.0,-1227.0,-1052.0,156,60,56,86,76
2025-02-26 15:25:09.910,7111.0,-1372.0,-3148.0,-754.0,-1226.0,-863.0,156,62,57,87,77
2025-02-26 15:25:09.913,7538.0,-4355.0,-1995.0,-774.0,-1041.0,-624.0,158,60,60,90,77
2025-02-26 15:25:09.918,7336.0,-6746.0,-661.0,-766.0,-750.0,-409.0,157,61,57,88,77
2025-02-26 15:25:09.926,7150.0,-8179.0,1061.0,-750.0,-418.0,-240.0,157,62,57,87,75
2025-02-26 15:25:09.931,6882.0,-8814.0,1454.0,-543.0,-254.0,-116.0,159,61,56,84,77
2025-02-26 15:25:09.933,6971.0,-8373.0,976.0,-212.0,58.0,-57.0,156,59,56,83,75
2025-02-26 15:25:09.942,5568.0,-7982.0,-462.0,127.0,287.0,-45.0,154,60,56,82,74
2025-02-26 15:25:09.944,3836.0,-6773.0,-1020.0,347.0,423.0,-29.0,153,58,57,83,73
2025-02-26 15:25:09.951,2252.0,-5261.0,-2081.0,595.0,484.0,-13.0,155,61,57,82,67
2025-02-26 15:25:09.959,1280.0,-3752.0,-2275.0,542.0,207.0,36.0,154,60,55,79,64
2025-02-26 15:25:09.963,-282.0,-2489.0,-7703.0,457.0,137.0,126.0,153,59,56,80,62
2025-02-26 15:25:09.967,182.0,-2561.0,-2672.0,409.0,181.0,123.0,154,58,58,79,64
2025-02-26 15:25:09.975,-165.0,-605.0,-1687.0,159.0,-88.0,197.0,156,60,56,81,65
2025-02-26 15:25:09.979,477.0,-1295.0,-1278.0,-10.0,-30.0,207.0,154,59,54,79,68
2025-02-26 15:25:09.982,322.0,-1346.0,-667.0,-89.0,70.0,197.0,161,67,63,89,76
2025-02-26 15:25:09.988,1458.0,-1583.0,-62.0,-128.0,-49.0,160.0,154,66,64,85,77
2025-02-26 15:25:09.994,1060.0,-1843.0,284.0,-93.0,-26.0,161.0,162,68,64,90,80
2025-02-26 15:25:10.000,1207.0,-2732.0,696.0,-138.0,-17.0,198.0,164,73,67,93,82
2025-02-26 15:25:10.004,311.0,-3017.0,729.0,-47.0,27.0,217.0,164,70,67,92,82
2025-02-26 15:25:10.008,1165.0,-2934.0,820.0,-8.0,27.0,234.0,162,67,65,93,81
2025-02-26 15:25:10.016,981.0,-2497.0,710.0,34.0,116.0,247.0,163,69,63,93,83
2025-02-26 15:25:10.020,708.0,-2287.0,643.0,70.0,196.0,268.0,167,69,66,90,83
2025-02-26 15:25:10.024,443.0,-2268.0,414.0,108.0,222.0,298.0,162,67,65,93,81
2025-02-26 15:25:10.029,253.0,-1976.0,405.0,156.0,245.0,326.0,162,69,66,94,82
2025-02-26 15:25:10.036,-18.0,-1753.0,312.0,146.0,205.0,348.0,164,69,65,96,84
2025-02-26 15:25:10.040,-50.0,-1361.0,302.0,147.0,155.0,375.0,164,70,67,95,85
2025-02-26 15:25:10.042,18.0,-1118.0,236.0,140.0,147.0,396.0,163,69,65,95,86
2025-02-26 15:25:10.049,27.0,-1184.0,240.0,103.0,138.0,403.0,163,70,67,96,87
2025-02-26 15:25:10.057,105.0,-715.0,376.0,70.0,142.0,405.0,165,71,68,98,88
2025-02-26 15:25:10.061,118.0,-717.0,153.0,67.0,163.0,401.0,165,72,68,98,88
2025-02-26 15:25:10.065,148.0,-177.0,310.0,-9.0,182.0,395.0,162,71,69,97,87
2025-02-26 15:25:10.069,563.0,-127.0,437.0,-102.0,243.0,396.0,166,71,70,98,89
2025-02-26 15:25:10.078,388.0,-229.0,371.0,-129.0,278.0,393.0,164,70,69,98,88
2025-02-26 15:25:10.082,428.0,-431.0,333.0,-139.0,282.0,401.0,165,72,70,98,87
2025-02-26 15:25:10.085,226.0,-436.0,126.0,-105.0,269.0,403.0,164,70,69,97,87
2025-02-26 15:25:10.090,-49.0,-939.0,84.0,-82.0,228.0,403.0,166,72,70,101,91
2025-02-26 15:25:10.098,261.0,-551.0,104.0,-50.0,200.0,405.0,164,70,69,97,90
2025-02-26 15:25:10.102,205.0,-236.0,72.0,26.0,191.0,398.0,163,70,70,97,88
2025-02-26 15:25:10.106,252.0,-346.0,-23.0,72.0,187.0,396.0,165,71,71,100,92
2025-02-26 15:25:10.111,239.0,-376.0,85.0,76.0,189.0,398.0,162,69,70,100,91
2025-02-26 15:25:10.114,245.0,-221.0,-151.0,56.0,192.0,393.0,160,69,69,96,89
2025-02-26 15:25:10.120,217.0,-339.0,-364.0,19.0,225.0,383.0,161,69,72,100,93
2025-02-26 15:25:10.127,75.0,-272.0,-307.0,29.0,299.0,388.0,165,75,75,103,96
2025-02-26 15:25:10.131,-21.0,-337.0,-151.0,11.0,360.0,395.0,159,68,73,102,95
2025-02-26 15:25:10.133,186.0,10.0,-181.0,6.0,379.0,411.0,159,70,75,103,97
2025-02-26 15:25:10.143,253.0,-75.0,-537.0,135.0,325.0,418.0,161,74,77,108,101
2025-02-26 15:25:10.147,-317.0,-118.0,98.0,185.0,258.0,406.0,161,74,78,110,107
2025-02-26 15:25:10.152,-533.0,-235.0,-42.0,307.0,226.0,406.0,159,72,76,107,106
2025-02-26 15:25:10.161,-158.0,-59.0,229.0,383.0,204.0,403.0,156,71,74,104,108
2025-02-26 15:25:10.164,60.0,50.0,-348.0,460.0,184.0,395.0,153,69,75,108,110
2025-02-26 15:25:10.168,8.0,87.0,-536.0,488.0,163.0,378.0,151,67,75,104,110
2025-02-26 15:25:10.172,45.0,295.0,-644.0,482.0,162.0,361.0,148,66,73,110,108
2025-02-26 15:25:10.177,-62.0,472.0,-848.0,435.0,169.0,353.0,145,69,73,111,107
2025-02-26 15:25:10.182,-334.0,799.0,-1013.0,391.0,164.0,340.0,146,70,77,116,110
2025-02-26 15:25:10.189,-553.0,962.0,-794.0,331.0,159.0,326.0,147,73,80,120,112
2025-02-26 15:25:10.193,-696.0,1056.0,-855.0,335.0,128.0,305.0,146,76,79,121,112
2025-02-26 15:25:10.199,-701.0,1099.0,-878.0,319.0,113.0,277.0,145,74,80,122,114
2025-02-26 15:25:10.205,-620.0,1208.0,-1020.0,299.0,72.0,258.0,145,85,83,123,114
2025-02-26 15:25:10.209,-599.0,1526.0,-1367.0,283.0,24.0,206.0,150,95,88,127,118
2025-02-26 15:25:10.216,-675.0,1937.0,-1527.0,262.0,-38.0,148.0,151,97,93,128,120
2025-02-26 15:25:10.221,-851.0,2138.0,-1773.0,244.0,-104.0,85.0,150,99,94,127,117
2025-02-26 15:25:10.224,-1018.0,2361.0,-1904.0,207.0,-162.0,6.0,150,100,96,131,117
2025-02-26 15:25:10.233,-1090.0,2598.0,-2078.0,134.0,-201.0,-90.0,147,101,95,125,114
2025-02-26 15:25:10.237,-1074.0,2703.0,-2069.0,78.0,-277.0,-188.0,148,104,99,126,116
2025-02-26 15:25:10.245,-1154.0,2858.0,-1832.0,33.0,-321.0,-292.0,148,107,96,125,119
2025-02-26 15:25:10.250,-1093.0,2850.0,-1754.0,5.0,-356.0,-398.0,148,109,99,128,122
2025-02-26 15:25:10.254,-1030.0,2871.0,-1698.0,-11.0,-415.0,-454.0,149,112,101,128,122
2025-02-26 15:25:10.262,-874.0,2775.0,-1661.0,-12.0,-465.0,-557.0,147,113,102,127,125
2025-02-26 15:25:10.267,-766.0,2414.0,-1389.0,-15.0,-502.0,-647.0,148,115,105,126,126
2025-02-26 15:25:10.275,-568.0,2134.0,-1216.0,-27.0,-531.0,-734.0,150,116,103,126,128
2025-02-26 15:25:10.278,-302.0,2005.0,-1256.0,-50.0,-569.0,-811.0,149,120,107,128,130
2025-02-26 15:25:10.287,188.0,1980.0,-1333.0,-87.0,-638.0,-863.0,148,121,107,131,131
2025-02-26 15:25:10.290,968.0,1892.0,-1255.0,-131.0,-737.0,-872.0,153,127,112,133,134
2025-02-26 15:25:10.295,1899.0,1515.0,-801.0,-225.0,-822.0,-852.0,156,128,116,138,139
2025-02-26 15:25:10.303,2854.0,807.0,-676.0,-358.0,-888.0,-830.0,157,132,119,136,135
2025-02-26 15:25:10.307,3545.0,60.0,-392.0,-461.0,-964.0,-780.0,159,135,121,138,139
2025-02-26 15:25:10.315,4306.0,-828.0,151.0,-525.0,-1039.0,-726.0,156,132,118,135,135
2025-02-26 15:25:10.320,5544.0,-1634.0,280.0,-550.0,-1087.0,-638.0,156,131,117,134,132
2025-02-26 15:25:10.324,5902.0,-2715.0,161.0,-675.0,-1045.0,-562.0,156,131,119,134,130
2025-02-26 15:25:10.332,5104.0,-4451.0,-249.0,-707.0,-927.0,-447.0,156,133,119,135,130
2025-02-26 15:25:10.336,4218.0,-6031.0,-948.0,-618.0,-744.0,-273.0,156,131,118,133,128
2025-02-26 15:25:10.344,3488.0,-7187.0,-731.0,-437.0,-490.0,-90.0,153,133,118,134,129
2025-02-26 15:25:10.348,3688.0,-7198.0,-252.0,-254.0,-277.0,38.0,155,132,119,134,130
2025-02-26 15:25:10.356,3707.0,-6771.0,88.0,-203.0,-76.0,119.0,153,134,120,133,130
2025-02-26 15:25:10.360,3234.0,-6151.0,-227.0,-145.0,68.0,189.0,160,139,125,140,137
2025-02-26 15:25:10.365,3012.0,-4936.0,-955.0,-120.0,143.0,221.0,157,137,122,138,134
2025-02-26 15:25:10.372,2839.0,-3770.0,-840.0,-101.0,221.0,219.0,157,137,119,140,134
2025-02-26 15:25:10.377,1487.0,-2835.0,-1810.0,110.0,277.0,241.0,156,135,119,136,134
2025-02-26 15:25:10.385,736.0,-1614.0,-1967.0,250.0,130.0,210.0,157,135,120,135,134
2025-02-26 15:25:10.388,1129.0,-1362.0,1441.0,273.0,9.0,191.0,161,136,122,138,138
2025-02-26 15:25:10.394,374.0,-1714.0,1963.0,528.0,248.0,244.0,161,137,122,139,138
2025-02-26 15:25:10.401,59.0,-1427.0,221.0,389.0,175.0,279.0,160,137,123,137,136
2025-02-26 15:25:10.405,161.0,-2090.0,-24.0,196.0,227.0,358.0,159,135,122,138,137
2025-02-26 15:25:10.410,0.0,-1206.0,-834.0,110.0,184.0,386.0,160,136,122,138,137
2025-02-26 15:25:10.418,272.0,-832.0,-282.0,-19.0,148.0,395.0,158,135,120,137,136
2025-02-26 15:25:10.422,153.0,-980.0,699.0,-40.0,153.0,408.0,158,130,121,136,134
2025-02-26 15:25:10.426,14.0,-906.0,850.0,53.0,171.0,412.0,157,135,118,135,136
2025-02-26 15:25:10.430,-260.0,-951.0,855.0,186.0,169.0,401.0,161,138,120,138,138
2025-02-26 15:25:10.438,-408.0,-522.0,847.0,310.0,169.0,363.0,160,136,120,138,137
2025-02-26 15:25:10.442,-191.0,-565.0,-354.0,291.0,88.0,327.0,160,135,122,137,135
2025-02-26 15:25:10.447,131.0,-654.0,-195.0,260.0,46.0,302.0,160,136,119,140,137
2025-02-26 15:25:10.455,113.0,-537.0,59.0,279.0,79.0,262.0,158,133,117,137,135
2025-02-26 15:25:10.458,-86.0,-981.0,-156.0,418.0,166.0,254.0,160,135,117,138,136
2025-02-26 15:25:10.463,-156.0,-1492.0,-313.0,459.0,246.0,269.0,159,135,118,138,136
2025-02-26 15:25:10.471,94.0,-1325.0,500.0,367.0,291.0,228.0,160,133,120,140,137
2025-02-26 15:25:10.475,534.0,-945.0,1413.0,324.0,340.0,205.0,159,136,120,139,136
2025-02-26 15:25:10.480,39.0,-1142.0,981.0,160.0,280.0,234.0,160,132,118,138,139
2025-02-26 15:25:10.487,-331.0,-1017.0,601.0,85.0,234.0,285.0,158,133,119,137,135
2025-02-26 15:25:10.491,-432.0,-579.0,598.0,47.0,247.0,287.0,160,137,120,136,136
2025-02-26 15:25:10.495,61.0,-654.0,149.0,-69.0,288.0,295.0,160,135,120,138,137
2025-02-26 15:25:10.504,102.0,-630.0,-91.0,-196.0,277.0,315.0,159,138,120,138,137
2025-02-26 15:25:10.507,-40.0,-378.0,162.0,-237.0,259.0,318.0,162,136,122,140,139
2025-02-26 15:25:10.512,-187.0,-260.0,62.0,-251.0,213.0,324.0,159,135,120,138,137
2025-02-26 15:25:10.520,-254.0,-185.0,73.0,-177.0,200.0,328.0,157,134,118,135,136
2025-02-26 15:25:10.524,-237.0,-143.0,-25.0,-122.0,191.0,338.0,158,133,119,136,135
2025-02-26 15:25:10.528,-153.0,-161.0,20.0,-96.0,179.0,338.0,158,132,118,137,135
2025-02-26 15:25:10.537,-159.0,26.0,69.0,-84.0,162.0,328.0,159,134,120,140,138
2025-02-26 15:25:10.540,-148.0,8.0,56.0,-66.0,160.0,312.0,158,133,116,136,136
2025-02-26 15:25:10.545,109.0,-126.0,-210.0,-28.0,133.0,325.0,156,126,120,136,135
2025-02-26 15:25:10.551,122.0,186.0,-10.0,-12.0,133.0,309.0,154,111,119,136,136
2025-02-26 15:25:10.557,258.0,336.0,-136.0,9.0,147.0,293.0,153,117,117,136,135
2025-02-26 15:25:10.562,-248.0,201.0,-41.0,34.0,169.0,279.0,155,130,120,137,137
2025-02-26 15:25:10.566,-478.0,192.0,105.0,12.0,190.0,277.0,156,120,118,136,137
2025-02-26 15:25:10.574,-728.0,272.0,13.0,3.0,199.0,246.0,156,128,117,136,136
2025-02-26 15:25:10.575,-817.0,213.0,-688.0,62.0,143.0,249.0,156,129,118,136,135
2025-02-26 15:25:10.582,-918.0,298.0,-243.0,107.0,93.0,241.0,155,130,117,137,137
2025-02-26 15:25:10.589,-890.0,411.0,-144.0,146.0,69.0,221.0,157,130,120,140,139
2025-02-26 15:25:10.593,-712.0,301.0,-241.0,163.0,40.0,204.0,157,130,118,139,138
2025-02-26 15:25:10.598,-541.0,293.0,-73.0,170.0,28.0,187.0,156,127,118,136,136
2025-02-26 15:25:10.606,-502.0,323.0,142.0,186.0,33.0,173.0,156,128,116,137,136
2025-02-26 15:25:10.610,-292.0,301.0,177.0,207.0,43.0,168.0,155,123,117,135,136
2025-02-26 15:25:10.615,-172.0,217.0,290.0,215.0,63.0,163.0,156,126,118,137,138
2025-02-26 15:25:10.622,-149.0,124.0,314.0,233.0,83.0,156.0,157,125,118,135,138
2025-02-26 15:25:10.626,-329.0,137.0,121.0,253.0,98.0,150.0,157,125,116,137,137
2025-02-26 15:25:10.631,-380.0,261.0,28.0,322.0,100.0,147.0,152,126,117,136,137
2025-02-26 15:25:10.636,-544.0,345.0,-23.0,371.0,82.0,148.0,153,119,117,137,136
2025-02-26 15:25:10.642,-566.0,588.0,-128.0,430.0,40.0,143.0,153,119,118,137,137
2025-02-26 15:25:10.648,-467.0,796.0,-285.0,464.0,-9.0,145.0,153,124,119,139,138
2025-02-26 15:25:10.653,-443.0,1153.0,-308.0,478.0,-48.0,124.0,153,125,117,137,138
2025-02-26 15:25:10.660,-593.0,1436.0,-482.0,479.0,-60.0,94.0,149,126,116,137,137
2025-02-26 15:25:10.664,-630.0,1631.0,-950.0,428.0,-58.0,51.0,148,116,112,135,136
2025-02-26 15:25:10.664,-809.0,1746.0,-1621.0,393.0,-66.0,27.0,149,117,115,135,136
2025-02-26 15:25:10.676,-1004.0,1981.0,-1974.0,392.0,-91.0,-40.0,151,129,116,139,138
2025-02-26 15:25:10.676,-1212.0,2337.0,-2129.0,351.0,-142.0,-129.0,150,130,116,135,139
2025-02-26 15:25:10.688,-1261.0,2567.0,-2323.0,301.0,-214.0,-234.0,149,131,115,135,138
2025-02-26 15:25:10.688,-1353.0,2736.0,-2365.0,238.0,-298.0,-349.0,149,130,116,136,139
2025-02-26 15:25:10.700,-1268.0,2935.0,-2223.0,174.0,-375.0,-455.0,147,131,116,136,140
2025-02-26 15:25:10.704,-1170.0,2923.0,-2233.0,127.0,-470.0,-547.0,147,126,115,137,139
2025-02-26 15:25:10.708,-915.0,2730.0,-1707.0,16.0,-557.0,-639.0,147,130,116,137,141
2025-02-26 15:25:10.716,-654.0,2538.0,-1542.0,-80.0,-638.0,-738.0,148,131,115,137,141
2025-02-26 15:25:10.720,-387.0,2427.0,-1180.0,-152.0,-718.0,-828.0,155,131,114,132,140
2025-02-26 15:25:10.729,253.0,2479.0,-992.0,-251.0,-789.0,-905.0,149,130,114,136,142
2025-02-26 15:25:10.732,1270.0,2437.0,-1188.0,-346.0,-880.0,-934.0,147,131,116,137,141
2025-02-26 15:25:10.741,2871.0,2110.0,-1515.0,-448.0,-1014.0,-904.0,148,131,117,135,141
2025-02-26 15:25:10.744,5094.0,743.0,-1018.0,-584.0,-1140.0,-862.0,149,133,118,136,140
2025-02-26 15:25:10.753,6148.0,-1035.0,958.0,-755.0,-1140.0,-833.0,150,134,123,138,139
2025-02-26 15:25:10.757,6196.0,-2122.0,1047.0,-810.0,-1095.0,-740.0,148,133,121,138,140
2025-02-26 15:25:10.762,5713.0,-2680.0,364.0,-870.0,-993.0,-655.0,144,133,122,137,138
2025-02-26 15:25:10.770,4752.0,-4334.0,-311.0,-835.0,-888.0,-494.0,144,136,126,139,139
2025-02-26 15:25:10.775,3997.0,-6148.0,-1903.0,-746.0,-812.0,-274.0,142,136,123,140,139
2025-02-26 15:25:10.782,3671.0,-7337.0,-2208.0,-586.0,-657.0,-69.0,139,133,131,137,139
2025-02-26 15:25:10.786,3600.0,-8065.0,-1476.0,-415.0,-475.0,102.0,141,136,123,140,139
2025-02-26 15:25:10.794,3868.0,-7755.0,-731.0,-309.0,-314.0,226.0,141,135,125,141,140
2025-02-26 15:25:10.799,3917.0,-6659.0,-437.0,-242.0,-166.0,281.0,141,137,124,139,140
2025-02-26 15:25:10.803,3926.0,-5026.0,-1002.0,-238.0,-82.0,283.0,152,143,132,147,147
2025-02-26 15:25:10.811,2923.0,-3459.0,-2917.0,-42.0,-20.0,231.0,145,137,125,142,141
2025-02-26 15:25:10.816,1235.0,-2633.0,-289.0,162.0,149.0,206.0,147,135,124,141,142
2025-02-26 15:25:10.822,2180.0,-1806.0,1233.0,365.0,216.0,110.0,137,130,116,131,135
2025-02-26 15:25:10.828,635.0,-1846.0,1313.0,816.0,239.0,170.0,146,133,123,138,139
2025-02-26 15:25:10.831,161.0,-1148.0,-413.0,702.0,122.0,152.0,143,129,117,135,136
2025-02-26 15:25:10.839,241.0,-1791.0,631.0,287.0,231.0,259.0,143,129,116,134,137
2025-02-26 15:25:10.844,-849.0,-1012.0,-1889.0,107.0,300.0,306.0,143,130,117,134,135
2025-02-26 15:25:10.848,-687.0,-715.0,1078.0,-141.0,73.0,337.0,143,130,116,133,136
2025-02-26 15:25:10.856,114.0,-799.0,1227.0,54.0,49.0,322.0,147,131,119,136,139
2025-02-26 15:25:10.860,-213.0,-997.0,878.0,59.0,23.0,317.0,147,131,117,134,137
2025-02-26 15:25:10.864,-118.0,-708.0,766.0,72.0,30.0,296.0,146,128,116,135,136
2025-02-26 15:25:10.871,-539.0,-706.0,170.0,95.0,67.0,275.0,145,131,116,135,136
2025-02-26 15:25:10.877,-372.0,-768.0,441.0,80.0,110.0,264.0,147,131,116,134,135
2025-02-26 15:25:10.880,-447.0,-780.0,1030.0,125.0,160.0,242.0,146,131,117,135,137
2025-02-26 15:25:10.889,46.0,-734.0,1055.0,346.0,223.0,217.0,146,130,117,134,135
2025-02-26 15:25:10.890,-170.0,-1097.0,470.0,310.0,286.0,210.0,146,130,115,133,136
2025-02-26 15:25:10.895,-234.0,-702.0,-98.0,272.0,208.0,206.0,145,131,116,134,136
2025-02-26 15:25:10.905,-150.0,-1319.0,-667.0,114.0,199.0,223.0,144,128,114,134,134
2025-02-26 15:25:10.909,-47.0,-962.0,704.0,148.0,260.0,221.0,148,130,116,134,136
2025-02-26 15:25:10.913,185.0,-1054.0,279.0,209.0,310.0,226.0,147,129,116,135,136
2025-02-26 15:25:10.921,168.0,-1033.0,502.0,124.0,307.0,228.0,147,128,115,136,135
2025-02-26 15:25:10.926,88.0,-1125.0,62.0,14.0,299.0,234.0,147,128,114,135,136
2025-02-26 15:25:10.930,-284.0,-1158.0,151.0,83.0,263.0,266.0,148,127,116,135,137
2025-02-26 15:25:10.938,-136.0,-788.0,655.0,69.0,272.0,275.0,148,128,116,135,133
2025-02-26 15:25:10.942,46.0,-375.0,687.0,37.0,292.0,267.0,148,126,113,130,134
2025-02-26 15:25:10.946,-76.0,-580.0,281.0,-44.0,327.0,276.0,148,124,112,132,133
2025-02-26 15:25:10.954,-217.0,-555.0,71.0,-147.0,289.0,296.0,149,125,116,135,135
2025-02-26 15:25:10.958,-278.0,-439.0,329.0,-147.0,268.0,314.0,147,123,113,135,134
2025-02-26 15:25:10.962,-166.0,-339.0,128.0,-106.0,258.0,329.0,147,124,113,131,135
2025-02-26 15:25:10.970,-26.0,-228.0,-6.0,-86.0,240.0,345.0,151,122,114,137,136
2025-02-26 15:25:10.974,-33.0,-194.0,211.0,-83.0,238.0,357.0,147,120,112,133,130
2025-02-26 15:25:10.979,-39.0,-219.0,110.0,-91.0,204.0,369.0,147,118,110,133,132
2025-02-26 15:25:10.986,100.0,-75.0,115.0,-74.0,193.0,369.0,145,116,113,131,130
2025-02-26 15:25:10.991,59.0,-89.0,52.0,-51.0,214.0,365.0,148,115,109,133,130
2025-02-26 15:25:10.994,30.0,0.0,-76.0,-32.0,242.0,370.0,145,112,108,133,129
2025-02-26 15:25:11.000,-130.0,24.0,-155.0,28.0,245.0,388.0,145,110,107,131,126
2025-02-26 15:25:11.008,-299.0,0.0,-134.0,80.0,224.0,380.0,145,103,107,133,124
2025-02-26 15:25:11.011,-593.0,189.0,-141.0,122.0,176.0,375.0,142,106,104,133,123
2025-02-26 15:25:11.016,-654.0,263.0,27.0,164.0,167.0,367.0,147,105,102,131,118
2025-02-26 15:25:11.024,-604.0,420.0,-293.0,170.0,148.0,342.0,144,106,99,129,115
2025-02-26 15:25:11.028,-576.0,505.0,-242.0,188.0,144.0,311.0,145,98,96,127,112
2025-02-26 15:25:11.033,-669.0,411.0,-460.0,208.0,135.0,298.0,146,93,91,127,108
2025-02-26 15:25:11.036,-709.0,579.0,-169.0,230.0,124.0,264.0,146,90,87,126,110
2025-02-26 15:25:11.044,-696.0,623.0,-202.0,259.0,117.0,225.0,146,84,84,124,106
2025-02-26 15:25:11.049,-791.0,734.0,-308.0,276.0,106.0,189.0,147,81,83,121,104
2025-02-26 15:25:11.053,-883.0,791.0,-354.0,312.0,101.0,151.0,145,72,78,119,101
2025-02-26 15:25:11.060,-883.0,845.0,-439.0,335.0,86.0,123.0,143,70,76,113,94
2025-02-26 15:25:11.065,-936.0,1481.0,-581.0,346.0,52.0,64.0,145,65,72,110,93
2025-02-26 15:25:11.070,-926.0,1733.0,-377.0,351.0,34.0,11.0,144,60,69,106,87
2025-02-26 15:25:11.073,-945.0,1817.0,-512.0,360.0,21.0,-43.0,145,57,66,100,81
2025-02-26 15:25:11.081,-1023.0,1948.0,-480.0,391.0,-14.0,-82.0,143,58,63,97,77
2025-02-26 15:25:11.084,-1253.0,2118.0,-354.0,372.0,-28.0,-160.0,144,59,63,94,75
2025-02-26 15:25:11.090,-1271.0,2139.0,269.0,320.0,-50.0,-244.0,146,58,63,94,73
2025-02-26 15:25:11.097,-1386.0,2208.0,-542.0,285.0,-108.0,-328.0,146,59,63,94,71
2025-02-26 15:25:11.101,-1318.0,2363.0,-1097.0,254.0,-146.0,-412.0,143,57,64,87,69
2025-02-26 15:25:11.106,-1473.0,2387.0,-1204.0,181.0,-190.0,-501.0,146,55,59,91,70
2025-02-26 15:25:11.114,-1431.0,2360.0,-1331.0,108.0,-226.0,-542.0,143,56,61,91,72
2025-02-26 15:25:11.119,-1099.0,2238.0,-1368.0,26.0,-291.0,-640.0,144,58,61,92,73
2025-02-26 15:25:11.122,-917.0,3195.0,-1653.0,35.0,-424.0,-719.0,146,60,63,89,71
2025-02-26 15:25:11.130,-202.0,3329.0,-1526.0,3.0,-544.0,-766.0,148,61,63,90,72
2025-02-26 15:25:11.135,723.0,3578.0,-1693.0,-60.0,-648.0,-809.0,144,58,60,84,72
2025-02-26 15:25:11.139,845.0,2782.0,-1700.0,-161.0,-693.0,-836.0,144,54,55,85,68
2025-02-26 15:25:11.146,1859.0,2042.0,-1708.0,-275.0,-751.0,-845.0,146,57,56,82,67
2025-02-26 15:25:11.151,2569.0,1445.0,-1636.0,-388.0,-766.0,-849.0,145,56,54,80,68
2025-02-26 15:25:11.155,3105.0,545.0,-1566.0,-484.0,-792.0,-857.0,148,58,56,82,71
2025-02-26 15:25:11.163,3532.0,-105.0,-1500.0,-536.0,-819.0,-837.0,147,54,55,79,70
2025-02-26 15:25:11.168,3934.0,-972.0,-1172.0,-539.0,-828.0,-762.0,149,55,55,79,70
2025-02-26 15:25:11.172,4393.0,-2042.0,-802.0,-533.0,-798.0,-658.0,151,56,54,78,70
2025-02-26 15:25:11.180,4780.0,-3184.0,-23.0,-509.0,-681.0,-516.0,148,55,55,77,70
2025-02-26 15:25:11.184,4837.0,-4498.0,513.0,-488.0,-595.0,-378.0,148,55,56,78,69
2025-02-26 15:25:11.186,4977.0,-5831.0,819.0,-415.0,-383.0,-313.0,151,56,59,77,70
2025-02-26 15:25:11.196,4953.0,-6146.0,977.0,-276.0,-167.0,-181.0,153,55,57,76,66
2025-02-26 15:25:11.198,4777.0,-6613.0,915.0,-92.0,42.0,-89.0,151,55,56,75,64
2025-02-26 15:25:11.204,3984.0,-6127.0,556.0,-9.0,208.0,-34.0,151,54,56,74,60
2025-02-26 15:25:11.212,3460.0,-5364.0,-53.0,141.0,266.0,7.0,151,53,58,73,56
2025-02-26 15:25:11.216,2286.0,-4965.0,-714.0,437.0,361.0,1.0,152,55,56,73,55
2025-02-26 15:25:11.221,1630.0,-3434.0,-11.0,507.0,47.0,86.0,152,56,57,74,57
2025-02-26 15:25:11.225,1308.0,-3404.0,-2709.0,433.0,215.0,127.0,151,55,56,75,58
2025-02-26 15:25:11.233,656.0,-2616.0,-1805.0,348.0,169.0,142.0,153,54,56,75,55
2025-02-26 15:25:11.237,558.0,-1281.0,-834.0,158.0,76.0,179.0,153,56,55,74,58
2025-02-26 15:25:11.242,303.0,-1369.0,-959.0,70.0,65.0,163.0,152,59,56,76,58
2025-02-26 15:25:11.245,271.0,-1486.0,-358.0,19.0,-8.0,183.0,152,56,57,76,60
2025-02-26 15:25:11.254,348.0,-1077.0,-135.0,-69.0,-87.0,174.0,154,55,57,76,64
2025-02-26 15:25:11.258,285.0,-1764.0,-481.0,-95.0,-50.0,157.0,153,56,56,74,64
2025-02-26 15:25:11.262,768.0,-2006.0,-17.0,-121.0,-43.0,145.0,153,59,58,78,66
2025-02-26 15:25:11.269,642.0,-2246.0,440.0,-123.0,-49.0,172.0,153,54,55,77,65
2025-02-26 15:25:11.274,649.0,-2385.0,309.0,-117.0,-21.0,196.0,151,57,57,78,64
2025-02-26 15:25:11.278,881.0,-2425.0,495.0,-97.0,6.0,216.0,151,56,51,69,64
2025-02-26 15:25:11.283,526.0,-2545.0,385.0,-69.0,15.0,256.0,152,57,58,79,66
2025-02-26 15:25:11.287,379.0,-2635.0,314.0,-46.0,45.0,297.0,152,55,55,78,67
2025-02-26 15:25:11.294,403.0,-2287.0,303.0,-22.0,29.0,331.0,153,56,54,76,66
2025-02-26 15:25:11.299,478.0,-2234.0,328.0,12.0,28.0,346.0,153,57,57,79,67
2025-02-26 15:25:11.303,483.0,-2302.0,284.0,23.0,59.0,362.0,153,57,56,79,68
2025-02-26 15:25:11.307,314.0,-2012.0,172.0,10.0,67.0,382.0,153,56,54,78,66
2025-02-26 15:25:11.315,619.0,-1364.0,309.0,19.0,50.0,391.0,153,56,57,79,68
2025-02-26 15:25:11.319,283.0,-1556.0,186.0,17.0,56.0,416.0,155,57,55,78,70
2025-02-26 15:25:11.322,464.0,-1022.0,259.0,7.0,71.0,424.0,153,58,57,78,67
2025-02-26 15:25:11.327,309.0,-953.0,324.0,-3.0,87.0,412.0,154,57,57,79,68
2025-02-26 15:25:11.332,492.0,-447.0,377.0,-24.0,111.0,367.0,154,58,58,79,69
2025-02-26 15:25:11.338,407.0,-81.0,512.0,-21.0,108.0,315.0,153,57,56,79,68
2025-02-26 15:25:11.343,374.0,-168.0,383.0,-41.0,140.0,295.0,152,55,56,79,67
2025-02-26 15:25:11.348,362.0,-147.0,300.0,-37.0,182.0,274.0,155,59,58,79,68
2025-02-26 15:25:11.352,219.0,-288.0,335.0,-47.0,191.0,278.0,155,54,58,80,69
2025-02-26 15:25:11.359,63.0,-484.0,326.0,-26.0,178.0,286.0,153,54,58,82,67
2025-02-26 15:25:11.364,-126.0,-394.0,194.0,-19.0,130.0,288.0,154,54,58,80,69
2025-02-26 15:25:11.368,-142.0,-385.0,198.0,-24.0,121.0,295.0,153,52,58,80,69
2025-02-26 15:25:11.372,-36.0,-319.0,77.0,-57.0,133.0,296.0,152,53,58,78,68
2025-02-26 15:25:11.380,-201.0,-429.0,116.0,-80.0,148.0,296.0,154,56,60,81,68
2025-02-26 15:25:11.384,-194.0,-330.0,14.0,-113.0,158.0,306.0,156,56,59,80,69
2025-02-26 15:25:11.388,-238.0,-310.0,-263.0,-133.0,164.0,326.0,156,60,59,80,70
2025-02-26 15:25:11.393,-373.0,-235.0,-61.0,-142.0,152.0,334.0,153,55,59,81,68
2025-02-26 15:25:11.401,-423.0,-319.0,-167.0,-98.0,85.0,329.0,152,56,58,79,68
2025-02-26 15:25:11.405,-431.0,-313.0,-179.0,-31.0,37.0,319.0,154,55,59,82,69
2025-02-26 15:25:11.409,-459.0,-340.0,-137.0,-13.0,10.0,313.0,155,58,61,83,69
2025-02-26 15:25:11.412,-304.0,-246.0,-92.0,-7.0,6.0,314.0,152,56,58,81,68
2025-02-26 15:25:11.421,-137.0,-290.0,34.0,-10.0,26.0,312.0,153,56,59,82,70
2025-02-26 15:25:11.424,-65.0,-169.0,47.0,3.0,41.0,312.0,153,54,60,82,69
2025-02-26 15:25:11.430,-121.0,-17.0,215.0,21.0,47.0,299.0,154,58,61,83,69
2025-02-26 15:25:11.434,-117.0,-42.0,234.0,68.0,57.0,288.0,154,56,60,83,70
2025-02-26 15:25:11.436,-115.0,10.0,222.0,91.0,60.0,272.0,151,57,58,82,69
2025-02-26 15:25:11.443,-133.0,156.0,235.0,117.0,63.0,258.0,154,55,57,82,66
2025-02-26 15:25:11.450,-152.0,97.0,299.0,139.0,79.0,251.0,154,59,60,85,70
2025-02-26 15:25:11.454,-40.0,244.0,235.0,125.0,102.0,247.0,156,59,60,84,70
2025-02-26 15:25:11.458,-97.0,354.0,207.0,116.0,105.0,249.0,153,57,58,81,68
2025-02-26 15:25:11.463,-308.0,399.0,101.0,107.0,103.0,249.0,153,56,59,83,69
2025-02-26 15:25:11.470,-450.0,380.0,109.0,119.0,90.0,244.0,154,57,61,85,71
2025-02-26 15:25:11.474,-516.0,398.0,63.0,127.0,82.0,238.0,153,56,60,83,69
2025-02-26 15:25:11.479,-553.0,397.0,5.0,148.0,70.0,234.0,153,57,60,83,67
2025-02-26 15:25:11.483,-615.0,450.0,-10.0,177.0,60.0,228.0,154,57,62,85,71
2025-02-26 15:25:11.487,-634.0,602.0,-71.0,191.0,56.0,212.0,155,59,63,85,71
2025-02-26 15:25:11.495,-701.0,711.0,-53.0,224.0,49.0,203.0,153,56,60,83,70
2025-02-26 15:25:11.499,-766.0,943.0,-67.0,257.0,43.0,175.0,154,58,61,83,71
2025-02-26 15:25:11.504,-724.0,1230.0,-92.0,275.0,37.0,139.0,153,57,60,85,70
2025-02-26 15:25:11.508,-710.0,1375.0,-68.0,307.0,36.0,119.0,152,59,60,83,69
2025-02-26 15:25:11.512,-628.0,1678.0,-91.0,326.0,39.0,79.0,154,59,61,83,71
2025-02-26 15:25:11.519,-668.0,2043.0,-161.0,332.0,41.0,32.0,153,59,63,84,70
2025-02-26 15:25:11.524,-731.0,2449.0,-168.0,333.0,44.0,5.0,151,57,63,84,69
2025-02-26 15:25:11.537,-775.0,2707.0,-277.0,323.0,40.0,-63.0,153,61,62,86,69
2025-02-26 15:25:11.539,-803.0,3200.0,-362.0,316.0,27.0,-145.0,152,61,62,84,71
2025-02-26 15:25:11.542,-825.0,3611.0,-525.0,280.0,21.0,-247.0,151,57,60,82,69
2025-02-26 15:25:11.545,-962.0,3784.0,-754.0,224.0,4.0,-304.0,152,62,59,83,70
2025-02-26 15:25:11.548,-1103.0,3860.0,-893.0,163.0,-35.0,-420.0,153,61,61,85,71
2025-02-26 15:25:11.556,-1319.0,3850.0,-1269.0,130.0,-105.0,-540.0,152,59,61,85,68
2025-02-26 15:25:11.560,-1253.0,3686.0,-1499.0,55.0,-185.0,-660.0,151,57,59,82,65
2025-02-26 15:25:11.562,-1273.0,3540.0,-1772.0,-16.0,-227.0,-781.0,149,58,59,84,66
2025-02-26 15:25:11.572,-1029.0,3342.0,-1888.0,-84.0,-329.0,-904.0,152,60,58,84,66
2025-02-26 15:25:11.574,-618.0,3394.0,-2055.0,-162.0,-446.0,-961.0,152,59,59,83,65
2025-02-26 15:25:11.581,114.0,3014.0,-2250.0,-232.0,-552.0,-1072.0,151,59,59,82,68
2025-02-26 15:25:11.586,1240.0,2329.0,-2342.0,-273.0,-665.0,-1150.0,152,60,59,85,68
2025-02-26 15:25:11.593,2686.0,1462.0,-2466.0,-269.0,-769.0,-1175.0,153,59,57,84,70
2025-02-26 15:25:11.598,4134.0,427.0,-2080.0,-270.0,-824.0,-1146.0,153,59,59,84,70
2025-02-26 15:25:11.605,5500.0,-742.0,-919.0,-270.0,-796.0,-1071.0,153,57,59,78,72
2025-02-26 15:25:11.609,6728.0,-2307.0,-25.0,-318.0,-721.0,-916.0,155,58,59,85,73
2025-02-26 15:25:11.618,6784.0,-3639.0,561.0,-401.0,-661.0,-651.0,154,59,59,83,71
2025-02-26 15:25:11.621,6659.0,-5374.0,1145.0,-470.0,-476.0,-517.0,154,57,57,82,72
2025-02-26 15:25:11.626,6680.0,-6167.0,1414.0,-442.0,-220.0,-319.0,152,59,57,84,72
2025-02-26 15:25:11.634,6400.0,-7500.0,1131.0,-262.0,-9.0,-186.0,151,58,59,88,72
2025-02-26 15:25:11.638,5413.0,-8561.0,836.0,1.0,133.0,-94.0,155,59,60,85,68
2025-02-26 15:25:11.642,3991.0,-7961.0,8.0,111.0,220.0,-15.0,152,55,57,80,65
2025-02-26 15:25:11.647,3163.0,-6006.0,-792.0,232.0,257.0,25.0,153,58,58,80,61
2025-02-26 15:25:11.654,2042.0,-5262.0,-1011.0,269.0,426.0,82.0,153,58,58,80,60
2025-02-26 15:25:11.659,371.0,-2683.0,-1599.0,395.0,-55.0,171.0,152,57,57,81,63
2025-02-26 15:25:11.663,1347.0,-2063.0,-1878.0,306.0,74.0,138.0,153,58,58,80,61
2025-02-26 15:25:11.667,477.0,-922.0,-1522.0,142.0,67.0,144.0,151,56,57,80,61
2025-02-26 15:25:11.675,54.0,-631.0,-677.0,33.0,-113.0,158.0,153,56,58,79,61
2025-02-26 15:25:11.679,760.0,-1576.0,-644.0,-87.0,-2.0,117.0,153,57,60,83,64
2025-02-26 15:25:11.683,234.0,-1464.0,-209.0,-99.0,-87.0,96.0,151,56,59,83,64
2025-02-26 15:25:11.687,4.0,-2125.0,155.0,-73.0,-74.0,104.0,153,59,58,81,65
2025-02-26 15:25:11.696,-30.0,-2605.0,305.0,-33.0,-65.0,101.0,152,59,59,83,66
2025-02-26 15:25:11.700,536.0,-2052.0,449.0,-41.0,-46.0,129.0,152,59,60,87,68
2025-02-26 15:25:11.703,176.0,-2267.0,613.0,16.0,-55.0,132.0,153,58,57,84,68
2025-02-26 15:25:11.708,638.0,-1885.0,709.0,20.0,3.0,132.0,153,59,59,84,68
2025-02-26 15:25:11.716,378.0,-1552.0,428.0,10.0,47.0,136.0,152,61,61,85,69
2025-02-26 15:25:11.720,315.0,-1348.0,591.0,20.0,53.0,132.0,151,59,57,84,69
2025-02-26 15:25:11.725,90.0,-1364.0,314.0,25.0,60.0,128.0,153,59,57,84,69
2025-02-26 15:25:11.729,79.0,-1355.0,251.0,-5.0,75.0,129.0,155,61,59,86,71
2025-02-26 15:25:11.733,-163.0,-1288.0,52.0,-6.0,38.0,133.0,153,60,57,84,74
2025-02-26 15:25:11.740,-101.0,-1155.0,48.0,-22.0,20.0,135.0,150,59,57,84,71
2025-02-26 15:25:11.745,-62.0,-1250.0,65.0,-35.0,-18.0,140.0,151,59,59,87,74
2025-02-26 15:25:11.749,119.0,-1237.0,29.0,-41.0,-26.0,143.0,155,61,59,89,74
2025-02-26 15:25:11.753,175.0,-1248.0,38.0,-61.0,-26.0,147.0,148,59,57,84,71
2025-02-26 15:25:11.761,297.0,-1160.0,88.0,-91.0,-16.0,149.0,151,60,59,88,73
2025-02-26 15:25:11.765,355.0,-1063.0,65.0,-104.0,3.0,152.0,150,61,59,86,73
2025-02-26 15:25:11.769,438.0,-958.0,142.0,-128.0,18.0,156.0,152,61,58,86,73
2025-02-26 15:25:11.773,269.0,-1028.0,20.0,-164.0,46.0,156.0,153,59,58,86,70
2025-02-26 15:25:11.778,311.0,-958.0,56.0,-169.0,45.0,161.0,152,60,59,86,72
2025-02-26 15:25:11.786,318.0,-1019.0,76.0,-168.0,41.0,176.0,149,58,58,85,71
2025-02-26 15:25:11.790,315.0,-1048.0,95.0,-140.0,35.0,177.0,153,61,61,86,72
2025-02-26 15:25:11.794,168.0,-1086.0,36.0,-80.0,19.0,179.0,151,61,60,89,73
2025-02-26 15:25:11.798,110.0,-992.0,66.0,-70.0,16.0,185.0,150,59,61,87,71
2025-02-26 15:25:11.805,103.0,-1020.0,114.0,-39.0,18.0,189.0,150,59,59,86,70
2025-02-26 15:25:11.810,119.0,-907.0,183.0,-31.0,37.0,195.0,150,61,62,88,73
2025-02-26 15:25:11.814,63.0,-854.0,128.0,-25.0,65.0,207.0,151,60,60,86,71
2025-02-26 15:25:11.817,121.0,-691.0,135.0,-55.0,92.0,222.0,151,58,59,86,69
2025-02-26 15:25:11.822,6.0,-576.0,165.0,-96.0,125.0,229.0,150,60,61,86,70
2025-02-26 15:25:11.829,-60.0,-464.0,36.0,-102.0,141.0,244.0,151,60,65,87,71
2025-02-26 15:25:11.835,-93.0,-156.0,221.0,-146.0,148.0,260.0,150,58,61,87,69
2025-02-26 15:25:11.839,-178.0,-273.0,-126.0,-100.0,117.0,265.0,149,60,62,86,70
2025-02-26 15:25:11.843,-233.0,-370.0,-102.0,-59.0,52.0,258.0,150,61,62,87,72
2025-02-26 15:25:11.851,-258.0,-356.0,-8.0,-51.0,29.0,255.0,150,60,65,89,74
2025-02-26 15:25:11.855,-225.0,-350.0,35.0,-48.0,37.0,255.0,149,59,61,86,72
2025-02-26 15:25:11.860,-147.0,-334.0,83.0,-64.0,53.0,257.0,150,59,62,87,74
2025-02-26 15:25:11.864,-142.0,-304.0,154.0,-74.0,69.0,251.0,151,58,61,87,73
2025-02-26 15:25:11.872,-151.0,-417.0,221.0,-75.0,78.0,259.0,153,59,64,89,74
2025-02-26 15:25:11.876,-85.0,-440.0,297.0,-79.0,86.0,256.0,150,59,58,86,73
2025-02-26 15:25:11.880,-42.0,-564.0,197.0,-35.0,72.0,259.0,151,61,61,89,73
2025-02-26 15:25:11.885,98.0,-549.0,394.0,-34.0,82.0,262.0,152,58,59,87,72
2025-02-26 15:25:11.888,168.0,-389.0,294.0,-21.0,113.0,261.0,150,60,62,89,73
2025-02-26 15:25:11.896,58.0,-634.0,244.0,-11.0,121.0,272.0,151,59,61,91,76
2025-02-26 15:25:11.900,31.0,-558.0,298.0,-19.0,136.0,293.0,150,59,62,92,73
2025-02-26 15:25:11.905,68.0,-402.0,123.0,-24.0,145.0,300.0,148,57,61,90,72
2025-02-26 15:25:11.909,-73.0,-409.0,128.0,-27.0,153.0,310.0,152,61,65,94,75
2025-02-26 15:25:11.913,-48.0,-375.0,238.0,-7.0,138.0,328.0,151,59,64,93,75
2025-02-26 15:25:11.921,-338.0,-286.0,49.0,21.0,132.0,337.0,148,61,64,92,75
2025-02-26 15:25:11.925,-174.0,-268.0,29.0,72.0,146.0,346.0,150,59,65,93,75
2025-02-26 15:25:11.930,-175.0,-305.0,-23.0,91.0,144.0,364.0,149,62,67,95,75
2025-02-26 15:25:11.932,-170.0,-214.0,-175.0,134.0,142.0,379.0,147,59,67,96,73
2025-02-26 15:25:11.942,-276.0,-19.0,-208.0,178.0,144.0,380.0,147,60,68,95,72
2025-02-26 15:25:11.945,-309.0,201.0,-323.0,226.0,145.0,371.0,146,60,69,96,72
2025-02-26 15:25:11.950,-670.0,568.0,-143.0,264.0,124.0,373.0,149,62,72,98,74
2025-02-26 15:25:11.955,-753.0,886.0,-183.0,295.0,116.0,375.0,147,60,68,95,69
2025-02-26 15:25:11.962,-894.0,436.0,-617.0,358.0,94.0,365.0,147,62,66,96,71
2025-02-26 15:25:11.966,-776.0,837.0,-741.0,424.0,74.0,341.0,146,62,66,96,72
2025-02-26 15:25:11.970,-778.0,992.0,-806.0,458.0,69.0,307.0,148,64,64,95,71
2025-02-26 15:25:11.975,-848.0,1091.0,-962.0,506.0,46.0,278.0,145,63,64,94,70
2025-02-26 15:25:11.982,-776.0,1239.0,-1184.0,546.0,16.0,232.0,147,66,66,94,71
2025-02-26 15:25:11.986,-742.0,1319.0,-1209.0,542.0,-4.0,182.0,148,68,66,97,71
2025-02-26 15:25:11.991,-810.0,1504.0,-1483.0,569.0,-20.0,127.0,147,68,67,97,71
2025-02-26 15:25:11.998,-841.0,1976.0,-1457.0,582.0,-45.0,54.0,146,70,72,95,70
2025-02-26 15:25:12.003,-1082.0,2344.0,-1000.0,568.0,-80.0,0.0,150,74,75,97,70
2025-02-26 15:25:12.008,-1277.0,3050.0,-1129.0,523.0,-138.0,-99.0,148,75,79,98,72
2025-02-26 15:25:12.015,-1474.0,3677.0,-1625.0,491.0,-222.0,-216.0,147,79,83,101,72
2025-02-26 15:25:12.019,-1529.0,3872.0,-1502.0,419.0,-315.0,-355.0,149,84,87,98,71
2025-02-26 15:25:12.024,-1503.0,3736.0,-1194.0,317.0,-362.0,-493.0,149,87,90,99,72
2025-02-26 15:25:12.029,-1386.0,3375.0,-806.0,239.0,-446.0,-608.0,148,93,93,98,72
2025-02-26 15:25:12.035,-775.0,3195.0,-677.0,201.0,-514.0,-647.0,148,98,95,99,71
2025-02-26 15:25:12.040,73.0,2481.0,-666.0,195.0,-571.0,-726.0,150,105,98,101,74
2025-02-26 15:25:12.048,674.0,1747.0,-557.0,181.0,-624.0,-782.0,147,108,102,100,73
2025-02-26 15:25:12.052,1189.0,1219.0,-319.0,158.0,-679.0,-831.0,150,113,106,104,74
2025-02-26 15:25:12.056,1583.0,639.0,-18.0,149.0,-736.0,-857.0,149,115,108,100,74
2025-02-26 15:25:12.064,2107.0,300.0,325.0,107.0,-779.0,-864.0,146,114,112,100,72
2025-02-26 15:25:12.068,2367.0,-28.0,921.0,83.0,-789.0,-837.0,146,120,111,101,73
2025-02-26 15:25:12.072,2702.0,-290.0,959.0,58.0,-813.0,-814.0,141,123,114,104,74
2025-02-26 15:25:12.081,3002.0,-649.0,907.0,22.0,-826.0,-744.0,144,125,115,105,76
2025-02-26 15:25:12.085,3474.0,-1340.0,696.0,-30.0,-817.0,-657.0,143,127,117,102,74
2025-02-26 15:25:12.089,3671.0,-2114.0,979.0,-64.0,-773.0,-542.0,148,131,120,102,75
2025-02-26 15:25:12.097,3863.0,-2917.0,1348.0,-77.0,-681.0,-404.0,143,129,118,101,73
2025-02-26 15:25:12.101,4394.0,-2927.0,1427.0,-104.0,-556.0,-286.0,141,132,119,97,71
2025-02-26 15:25:12.109,4620.0,-3670.0,1416.0,-124.0,-413.0,-163.0,143,132,119,98,71
2025-02-26 15:25:12.113,4632.0,-4308.0,1566.0,-103.0,-253.0,-48.0,142,131,118,101,69
2025-02-26 15:25:12.118,4484.0,-4459.0,1523.0,-57.0,-177.0,29.0,144,131,120,81,68
2025-02-26 15:25:12.125,4265.0,-4064.0,1488.0,-1.0,-44.0,73.0,142,136,119,90,64
2025-02-26 15:25:12.130,3739.0,-3853.0,1653.0,42.0,72.0,86.0,144,133,119,98,64
2025-02-26 15:25:12.133,2947.0,-3456.0,1270.0,79.0,155.0,102.0,146,126,122,94,63
2025-02-26 15:25:12.142,2468.0,-2904.0,1248.0,100.0,206.0,109.0,144,133,122,101,63
2025-02-26 15:25:12.146,1884.0,-2624.0,957.0,122.0,222.0,121.0,145,133,122,102,63
2025-02-26 15:25:12.151,1383.0,-2224.0,790.0,117.0,221.0,130.0,148,134,124,105,66
2025-02-26 15:25:12.158,1267.0,-1896.0,840.0,93.0,219.0,141.0,148,133,124,106,64
2025-02-26 15:25:12.163,939.0,-1868.0,684.0,49.0,208.0,149.0,147,132,121,102,63
2025-02-26 15:25:12.167,862.0,-1639.0,600.0,2.0,186.0,163.0,149,132,124,104,67
2025-02-26 15:25:12.175,783.0,-1519.0,592.0,-19.0,168.0,175.0,150,134,124,112,68
2025-02-26 15:25:12.179,663.0,-1547.0,576.0,-44.0,151.0,191.0,148,133,123,104,69
2025-02-26 15:25:12.183,639.0,-1520.0,575.0,-58.0,143.0,205.0,142,133,123,105,69
2025-02-26 15:25:12.188,592.0,-1506.0,558.0,-67.0,128.0,210.0,150,135,124,103,70
2025-02-26 15:25:12.195,570.0,-1449.0,594.0,-72.0,118.0,216.0,148,135,124,105,73
2025-02-26 15:25:12.199,584.0,-1423.0,600.0,-68.0,117.0,218.0,149,135,123,106,74
2025-02-26 15:25:12.204,561.0,-1432.0,664.0,-61.0,123.0,223.0,146,135,124,106,74
2025-02-26 15:25:12.211,589.0,-1319.0,593.0,-44.0,129.0,222.0,149,136,125,108,77
2025-02-26 15:25:12.215,550.0,-1386.0,613.0,-23.0,133.0,228.0,148,134,123,104,77
2025-02-26 15:25:12.220,490.0,-1437.0,609.0,-3.0,144.0,232.0,147,134,122,108,81
2025-02-26 15:25:12.228,545.0,-1339.0,598.0,20.0,160.0,240.0,150,134,123,107,79
2025-02-26 15:25:12.233,562.0,-1269.0,588.0,36.0,177.0,248.0,151,137,125,109,80
2025-02-26 15:25:12.237,572.0,-1144.0,614.0,43.0,195.0,254.0,151,137,126,106,80
2025-02-26 15:25:12.242,500.0,-1026.0,610.0,48.0,202.0,267.0,147,135,122,106,79
2025-02-26 15:25:12.248,420.0,-905.0,571.0,45.0,217.0,271.0,149,135,122,99,78
2025-02-26 15:25:12.253,311.0,-784.0,599.0,36.0,227.0,284.0,151,137,126,102,81
2025-02-26 15:25:12.257,213.0,-639.0,525.0,32.0,232.0,295.0,150,136,124,100,79
2025-02-26 15:25:12.265,202.0,-520.0,500.0,13.0,232.0,303.0,148,135,122,100,78
2025-02-26 15:25:12.266,164.0,-463.0,506.0,-7.0,232.0,307.0,148,135,122,101,78
2025-02-26 15:25:12.273,102.0,-349.0,507.0,-18.0,229.0,312.0,150,136,124,104,79
2025-02-26 15:25:12.277,59.0,-251.0,440.0,-23.0,220.0,313.0,151,136,124,103,79
2025-02-26 15:25:12.285,8.0,-308.0,396.0,-26.0,212.0,313.0,148,135,123,102,77
2025-02-26 15:25:12.289,20.0,-257.0,368.0,-34.0,211.0,309.0,150,134,124,103,78
2025-02-26 15:25:12.294,93.0,-232.0,371.0,-40.0,212.0,305.0,151,136,123,106,78
2025-02-26 15:25:12.302,107.0,-255.0,423.0,-47.0,221.0,302.0,150,135,124,107,78
2025-02-26 15:25:12.306,89.0,-233.0,418.0,-48.0,233.0,305.0,151,135,123,106,77
2025-02-26 15:25:12.310,104.0,-304.0,373.0,-42.0,236.0,305.0,151,133,123,106,77
2025-02-26 15:25:12.315,83.0,-266.0,358.0,-29.0,244.0,306.0,148,131,121,103,77
2025-02-26 15:25:12.322,3.0,-269.0,298.0,-14.0,253.0,305.0,150,134,123,106,79
2025-02-26 15:25:12.327,7.0,-209.0,309.0,-4.0,256.0,308.0,151,132,122,106,80
2025-02-26 15:25:12.331,-37.0,-106.0,351.0,4.0,261.0,313.0,151,135,123,105,80
2025-02-26 15:25:12.335,-153.0,-88.0,325.0,4.0,261.0,316.0,150,133,122,104,79
2025-02-26 15:25:12.343,-238.0,44.0,253.0,-11.0,259.0,325.0,151,134,123,105,80
2025-02-26 15:25:12.347,-245.0,180.0,231.0,-18.0,253.0,332.0,150,134,122,102,80
2025-02-26 15:25:12.351,-278.0,277.0,169.0,-25.0,250.0,336.0,152,134,124,102,78
2025-02-26 15:25:12.357,-259.0,365.0,65.0,-31.0,242.0,336.0,150,131,122,105,79
2025-02-26 15:25:12.363,-308.0,354.0,-30.0,-24.0,237.0,334.0,150,133,122,103,79
2025-02-26 15:25:12.367,-325.0,427.0,-79.0,-6.0,230.0,328.0,152,132,122,102,79
2025-02-26 15:25:12.372,-360.0,395.0,-280.0,14.0,224.0,314.0,149,124,122,104,79
2025-02-26 15:25:12.380,-330.0,408.0,-401.0,70.0,223.0,290.0,150,119,122,102,78
2025-02-26 15:25:12.385,-304.0,448.0,-547.0,135.0,224.0,275.0,148,118,120,100,81
2025-02-26 15:25:12.388,-373.0,655.0,-668.0,198.0,219.0,243.0,149,127,123,103,78
2025-02-26 15:25:12.396,-581.0,1012.0,-806.0,230.0,208.0,200.0,151,132,122,101,79
2025-02-26 15:25:12.402,-857.0,1593.0,-950.0,234.0,179.0,149.0,150,131,122,101,77
2025-02-26 15:25:12.404,-1257.0,2218.0,-1229.0,213.0,124.0,88.0,150,133,122,101,75
2025-02-26 15:25:12.410,-1413.0,2668.0,-1534.0,159.0,89.0,17.0,150,133,121,103,74
2025-02-26 15:25:12.415,-1557.0,2914.0,-1648.0,103.0,12.0,-68.0,150,133,122,103,76
2025-02-26 15:25:12.421,-1611.0,2902.0,-1826.0,62.0,-66.0,-112.0,149,119,122,99,74
2025-02-26 15:25:12.428,-1604.0,2881.0,-1849.0,40.0,-143.0,-213.0,151,127,122,100,75
2025-02-26 15:25:12.433,-1537.0,2790.0,-1848.0,37.0,-216.0,-321.0,155,134,123,100,76
2025-02-26 15:25:12.440,-1295.0,2704.0,-1741.0,31.0,-283.0,-426.0,153,136,123,102,75
2025-02-26 15:25:12.446,-1067.0,2747.0,-1663.0,28.0,-354.0,-522.0,149,129,123,102,76
2025-02-26 15:25:12.447,-1028.0,2554.0,-1538.0,19.0,-430.0,-607.0,152,138,126,102,77
2025-02-26 15:25:12.457,-987.0,2349.0,-1417.0,10.0,-522.0,-688.0,153,135,123,102,75
2025-02-26 15:25:12.462,-839.0,2224.0,-1415.0,-11.0,-630.0,-763.0,149,135,123,102,74
2025-02-26 15:25:12.470,-395.0,2079.0,-1373.0,-41.0,-742.0,-834.0,149,132,123,104,76
2025-02-26 15:25:12.472,554.0,2014.0,-1299.0,-75.0,-836.0,-900.0,150,130,126,106,72
2025-02-26 15:25:12.478,1129.0,2187.0,-1042.0,-112.0,-873.0,-946.0,150,135,123,106,77
2025-02-26 15:25:12.484,2576.0,1783.0,-649.0,-178.0,-924.0,-979.0,148,135,123,106,78
2025-02-26 15:25:12.491,3714.0,1088.0,-132.0,-267.0,-946.0,-990.0,150,137,123,108,80
2025-02-26 15:25:12.496,4402.0,255.0,-80.0,-324.0,-945.0,-936.0,151,135,122,105,78
2025-02-26 15:25:12.502,4867.0,-515.0,-81.0,-355.0,-914.0,-891.0,147,134,123,103,78
2025-02-26 15:25:12.507,4896.0,-3005.0,-34.0,-323.0,-821.0,-735.0,149,138,125,107,78
2025-02-26 15:25:12.515,4429.0,-4003.0,-138.0,-250.0,-698.0,-527.0,148,137,125,108,74
2025-02-26 15:25:12.520,5259.0,-5291.0,-240.0,-189.0,-544.0,-309.0,147,137,124,109,78
2025-02-26 15:25:12.527,5590.0,-6203.0,247.0,-94.0,-375.0,-103.0,146,137,124,107,75
2025-02-26 15:25:12.531,5668.0,-5880.0,611.0,-15.0,-188.0,44.0,148,138,126,106,74
2025-02-26 15:25:12.536,5278.0,-4909.0,866.0,46.0,-15.0,117.0,147,139,124,103,71
2025-02-26 15:25:12.544,4452.0,-4103.0,1058.0,65.0,117.0,130.0,148,139,125,98,69
2025-02-26 15:25:12.547,3770.0,-3384.0,1227.0,122.0,177.0,126.0,145,132,120,94,63
2025-02-26 15:25:12.551,3102.0,-3197.0,1065.0,188.0,255.0,116.0,151,142,128,107,67
2025-02-26 15:25:12.560,2214.0,-2886.0,742.0,200.0,278.0,112.0,150,141,122,104,61
2025-02-26 15:25:12.564,1536.0,-2504.0,392.0,165.0,256.0,122.0,149,138,124,106,64
2025-02-26 15:25:12.568,1117.0,-2058.0,377.0,120.0,219.0,134.0,165,155,142,124,80
2025-02-26 15:25:12.576,860.0,-2008.0,303.0,89.0,169.0,164.0,163,151,139,121,78
2025-02-26 15:25:12.580,699.0,-1879.0,269.0,13.0,129.0,196.0,157,146,132,115,73
2025-02-26 15:25:12.585,655.0,-1792.0,303.0,-49.0,109.0,225.0,154,143,130,113,70
2025-02-26 15:25:12.593,572.0,-1764.0,385.0,-88.0,76.0,237.0,156,142,127,111,70
2025-02-26 15:25:12.597,453.0,-1815.0,478.0,-107.0,55.0,255.0,158,143,132,117,76
2025-02-26 15:25:12.601,419.0,-1536.0,554.0,-105.0,48.0,262.0,156,145,132,114,77
2025-02-26 15:25:12.608,421.0,-1480.0,591.0,-102.0,52.0,263.0,154,141,128,112,76
2025-02-26 15:25:12.613,458.0,-1457.0,666.0,-80.0,59.0,254.0,153,140,128,112,77
2025-02-26 15:25:12.618,460.0,-1469.0,706.0,-54.0,80.0,252.0,153,142,128,113,79
2025-02-26 15:25:12.621,467.0,-1463.0,882.0,-7.0,118.0,245.0,154,143,128,113,82
2025-02-26 15:25:12.629,576.0,-1437.0,760.0,18.0,152.0,240.0,154,143,129,113,83
2025-02-26 15:25:12.633,504.0,-1388.0,697.0,35.0,191.0,244.0,157,145,130,113,84
2025-02-26 15:25:12.638,531.0,-1281.0,699.0,60.0,210.0,250.0,154,142,127,112,85
2025-02-26 15:25:12.646,523.0,-1250.0,437.0,71.0,239.0,252.0,148,142,128,108,87
2025-02-26 15:25:12.648,556.0,-1093.0,460.0,85.0,262.0,265.0,156,146,130,114,90
2025-02-26 15:25:12.653,363.0,-1057.0,402.0,75.0,274.0,278.0,156,145,130,115,91
2025-02-26 15:25:12.659,407.0,-772.0,423.0,62.0,283.0,298.0,157,143,129,113,91
2025-02-26 15:25:12.665,297.0,-697.0,383.0,48.0,284.0,320.0,154,141,127,107,89
2025-02-26 15:25:12.671,235.0,-599.0,338.0,23.0,284.0,334.0,157,144,128,109,90
2025-02-26 15:25:12.675,248.0,-420.0,308.0,-9.0,275.0,361.0,158,144,129,115,93
2025-02-26 15:25:12.683,231.0,-322.0,330.0,-23.0,270.0,376.0,157,143,126,112,93
2025-02-26 15:25:12.687,157.0,-127.0,215.0,-72.0,266.0,396.0,157,142,126,113,91
2025-02-26 15:25:12.690,77.0,-146.0,178.0,-102.0,245.0,408.0,159,142,125,113,93
2025-02-26 15:25:12.699,-14.0,-112.0,340.0,-127.0,236.0,409.0,157,141,125,114,93
2025-02-26 15:25:12.703,-2.0,-88.0,201.0,-155.0,232.0,413.0,157,139,124,114,94
2025-02-26 15:25:12.708,181.0,43.0,72.0,-170.0,228.0,420.0,156,138,122,113,92
2025-02-26 15:25:12.712,157.0,35.0,325.0,-191.0,234.0,423.0,157,136,119,112,92
2025-02-26 15:25:12.719,169.0,56.0,214.0,-203.0,230.0,420.0,155,133,118,105,92
2025-02-26 15:25:12.723,41.0,125.0,171.0,-234.0,222.0,425.0,158,134,119,100,94
2025-02-26 15:25:12.728,-57.0,54.0,408.0,-201.0,228.0,397.0,157,132,117,111,94
2025-02-26 15:25:12.736,-159.0,-323.0,-180.0,-171.0,199.0,397.0,156,128,116,110,93
2025-02-26 15:25:12.740,-338.0,-60.0,-3.0,-176.0,193.0,404.0,160,131,112,108,95
2025-02-26 15:25:12.745,-180.0,-15.0,-178.0,-149.0,165.0,405.0,157,127,111,104,94
2025-02-26 15:25:12.749,-240.0,-73.0,109.0,-114.0,165.0,398.0,158,126,111,108,98
2025-02-26 15:25:12.756,-218.0,43.0,-19.0,-70.0,155.0,388.0,157,125,109,110,98
2025-02-26 15:25:12.761,-301.0,49.0,56.0,-60.0,154.0,385.0,159,123,107,112,97
2025-02-26 15:25:12.764,-293.0,181.0,38.0,-20.0,154.0,372.0,155,116,103,102,96
2025-02-26 15:25:12.773,-261.0,212.0,28.0,28.0,164.0,364.0,159,117,104,106,100
2025-02-26 15:25:12.774,-375.0,246.0,-25.0,67.0,166.0,334.0,158,113,98,107,98
2025-02-26 15:25:12.781,-469.0,347.0,21.0,96.0,179.0,297.0,156,109,94,110,98
2025-02-26 15:25:12.786,-445.0,383.0,-233.0,167.0,182.0,261.0,154,100,90,114,96
2025-02-26 15:25:12.791,-630.0,576.0,-203.0,214.0,182.0,243.0,158,95,87,112,98
2025-02-26 15:25:12.797,-670.0,881.0,-327.0,289.0,188.0,211.0,156,90,83,112,97
2025-02-26 15:25:12.802,-718.0,1180.0,-462.0,316.0,181.0,175.0,155,83,79,109,94
2025-02-26 15:25:12.805,-699.0,1796.0,-311.0,317.0,184.0,143.0,152,75,73,105,89
2025-02-26 15:25:12.814,-765.0,2280.0,-480.0,301.0,156.0,120.0,153,68,70,106,88
2025-02-26 15:25:12.818,-973.0,2500.0,-481.0,279.0,126.0,68.0,154,72,68,107,87
2025-02-26 15:25:12.822,-1151.0,2913.0,-348.0,218.0,102.0,-1.0,154,71,66,107,85
2025-02-26 15:25:12.830,-1203.0,3183.0,-591.0,199.0,52.0,-84.0,155,69,64,106,83
2025-02-26 15:25:12.834,-1247.0,3301.0,-974.0,189.0,18.0,-175.0,151,68,63,105,84
2025-02-26 15:25:12.839,-1395.0,3256.0,-1285.0,193.0,-65.0,-226.0,153,68,60,105,81
2025-02-26 15:25:12.847,-1337.0,3401.0,-1628.0,189.0,-159.0,-329.0,153,65,60,104,81
2025-02-26 15:25:12.851,-1254.0,3518.0,-2067.0,137.0,-273.0,-431.0,152,68,63,105,82
2025-02-26 15:25:12.855,-729.0,3732.0,-2120.0,112.0,-366.0,-504.0,152,69,63,107,81
2025-02-26 15:25:12.863,-445.0,3426.0,-2059.0,80.0,-417.0,-569.0,151,66,63,109,79
2025-02-26 15:25:12.867,72.0,3065.0,-2028.0,64.0,-480.0,-653.0,151,64,61,108,77
2025-02-26 15:25:12.871,380.0,2970.0,-1965.0,20.0,-497.0,-727.0,152,64,60,107,78
2025-02-26 15:25:12.879,643.0,2477.0,-1639.0,-54.0,-514.0,-787.0,151,60,57,106,77
2025-02-26 15:25:12.888,1177.0,2252.0,-1297.0,-108.0,-543.0,-809.0,150,59,53,106,75
2025-02-26 15:25:12.889,1425.0,1693.0,-1220.0,-146.0,-609.0,-843.0,151,63,58,105,78
2025-02-26 15:25:12.896,1612.0,1250.0,-1205.0,-167.0,-696.0,-852.0,152,64,66,107,80
2025-02-26 15:25:12.900,2304.0,795.0,-1182.0,-217.0,-783.0,-844.0,154,63,58,106,80
2025-02-26 15:25:12.908,3284.0,90.0,-1269.0,-273.0,-862.0,-811.0,155,64,57,108,81
2025-02-26 15:25:12.912,4293.0,-668.0,-973.0,-299.0,-882.0,-757.0,158,62,59,108,83
2025-02-26 15:25:12.917,5471.0,-1787.0,-369.0,-360.0,-824.0,-673.0,157,60,58,106,81
2025-02-26 15:25:12.924,5632.0,-3184.0,289.0,-431.0,-766.0,-557.0,156,61,57,101,82
2025-02-26 15:25:12.929,5886.0,-4795.0,894.0,-466.0,-599.0,-404.0,156,60,56,100,81
2025-02-26 15:25:12.933,5708.0,-5625.0,1288.0,-447.0,-377.0,-323.0,158,61,60,98,81
2025-02-26 15:25:12.941,5524.0,-6814.0,1277.0,-369.0,-144.0,-191.0,159,61,59,100,80
2025-02-26 15:25:12.946,4865.0,-7160.0,944.0,-219.0,54.0,-107.0,158,62,61,100,78
2025-02-26 15:25:12.950,3735.0,-6858.0,747.0,20.0,181.0,-67.0,164,71,69,110,84
2025-02-26 15:25:12.955,2929.0,-6760.0,-83.0,121.0,216.0,-13.0,158,63,59,103,71
2025-02-26 15:25:12.962,1956.0,-5475.0,-139.0,287.0,-36.0,22.0,155,58,55,100,68
2025-02-26 15:25:12.966,1852.0,-5301.0,-1999.0,409.0,228.0,44.0,154,57,56,101,68
2025-02-26 15:25:12.973,1102.0,-3544.0,-951.0,292.0,175.0,95.0,154,58,57,102,66
2025-02-26 15:25:12.978,233.0,-2762.0,-607.0,212.0,126.0,127.0,153,56,55,99,67
2025-02-26 15:25:12.982,729.0,-2133.0,-709.0,171.0,156.0,138.0,152,57,54,98,71
2025-02-26 15:25:12.985,445.0,-1555.0,-585.0,67.0,116.0,136.0,154,55,54,100,71
2025-02-26 15:25:12.994,199.0,-1587.0,-301.0,-13.0,86.0,137.0,152,59,55,101,71
2025-02-26 15:25:12.998,338.0,-1985.0,-238.0,-40.0,44.0,138.0,155,58,56,103,74
2025-02-26 15:25:13.002,287.0,-2444.0,-169.0,-50.0,2.0,141.0,152,57,55,104,75
2025-02-26 15:25:13.004,414.0,-1958.0,74.0,-65.0,8.0,143.0,151,57,53,101,74
2025-02-26 15:25:13.015,152.0,-2066.0,202.0,-56.0,-4.0,144.0,155,60,56,105,76
2025-02-26 15:25:13.019,365.0,-2010.0,260.0,-36.0,9.0,142.0,155,57,55,104,76
2025-02-26 15:25:13.023,255.0,-2027.0,347.0,-17.0,8.0,143.0,153,59,56,109,77
2025-02-26 15:25:13.028,158.0,-2034.0,446.0,26.0,8.0,150.0,153,59,56,104,75
2025-02-26 15:25:13.035,400.0,-2074.0,466.0,54.0,37.0,159.0,155,60,56,105,78
2025-02-26 15:25:13.039,324.0,-1921.0,612.0,58.0,41.0,176.0,155,59,58,106,78
2025-02-26 15:25:13.044,330.0,-1870.0,659.0,58.0,50.0,193.0,152,60,59,104,77
2025-02-26 15:25:13.046,327.0,-1726.0,529.0,60.0,53.0,203.0,155,62,59,108,80
2025-02-26 15:25:13.052,454.0,-1639.0,611.0,58.0,78.0,217.0,156,63,59,108,80
2025-02-26 15:25:13.059,382.0,-1370.0,540.0,43.0,92.0,235.0,155,60,56,108,78
2025-02-26 15:25:13.064,351.0,-1324.0,396.0,17.0,111.0,239.0,152,56,51,106,77
2025-02-26 15:25:13.068,344.0,-1009.0,364.0,-19.0,128.0,245.0,153,59,57,107,79
2025-02-26 15:25:13.076,371.0,-658.0,368.0,-56.0,162.0,239.0,154,60,57,104,78
2025-02-26 15:25:13.080,212.0,-748.0,194.0,-108.0,170.0,233.0,152,62,55,105,75
2025-02-26 15:25:13.084,117.0,-333.0,148.0,-121.0,149.0,226.0,153,53,54,104,76
2025-02-26 15:25:13.089,78.0,-330.0,115.0,-119.0,123.0,225.0,152,59,55,104,76
2025-02-26 15:25:13.096,24.0,-528.0,47.0,-113.0,88.0,221.0,154,60,57,104,77
2025-02-26 15:25:13.101,-132.0,-504.0,-21.0,-93.0,68.0,216.0,153,58,57,104,76
2025-02-26 15:25:13.105,-109.0,-552.0,19.0,-65.0,36.0,216.0,154,59,61,103,74
2025-02-26 15:25:13.109,-147.0,-597.0,-57.0,-53.0,19.0,218.0,154,59,57,105,76
2025-02-26 15:25:13.112,-141.0,-695.0,11.0,-54.0,14.0,226.0,153,60,58,103,76
2025-02-26 15:25:13.121,-94.0,-625.0,118.0,-67.0,13.0,224.0,152,58,56,103,74
2025-02-26 15:25:13.126,-59.0,-618.0,198.0,-75.0,26.0,220.0,154,59,56,103,77
2025-02-26 15:25:13.130,21.0,-491.0,207.0,-84.0,52.0,215.0,154,60,57,105,76
2025-02-26 15:25:13.137,40.0,-607.0,240.0,-100.0,71.0,224.0,154,59,56,104,75
2025-02-26 15:25:13.141,165.0,-554.0,207.0,-103.0,95.0,232.0,155,58,58,105,76
2025-02-26 15:25:13.143,158.0,-548.0,187.0,-85.0,112.0,242.0,154,59,56,104,75
2025-02-26 15:25:13.150,115.0,-600.0,153.0,-63.0,109.0,260.0,154,59,58,105,77
2025-02-26 15:25:13.155,120.0,-601.0,228.0,-33.0,95.0,271.0,154,58,55,104,75
2025-02-26 15:25:13.162,61.0,-648.0,337.0,-10.0,82.0,276.0,154,59,58,105,76
2025-02-26 15:25:13.166,98.0,-639.0,322.0,-4.0,85.0,290.0,155,59,58,105,75
2025-02-26 15:25:13.170,104.0,-614.0,307.0,23.0,97.0,296.0,153,52,56,103,74
2025-02-26 15:25:13.173,67.0,-555.0,359.0,51.0,115.0,294.0,155,52,58,105,76
2025-02-26 15:25:13.182,66.0,-388.0,395.0,68.0,141.0,280.0,154,59,59,105,77
2025-02-26 15:25:13.186,125.0,-224.0,425.0,91.0,161.0,273.0,153,57,57,103,75
2025-02-26 15:25:13.191,158.0,-122.0,433.0,113.0,195.0,271.0,155,58,58,104,76
2025-02-26 15:25:13.195,2.0,95.0,417.0,125.0,197.0,271.0,154,60,58,104,76
2025-02-26 15:25:13.197,-99.0,95.0,305.0,127.0,199.0,270.0,152,59,56,105,76
2025-02-26 15:25:13.207,-199.0,207.0,132.0,126.0,197.0,268.0,152,57,57,103,74
2025-02-26 15:25:13.210,-454.0,342.0,48.0,118.0,186.0,264.0,153,59,61,104,76
2025-02-26 15:25:13.216,-696.0,472.0,0.0,112.0,164.0,262.0,154,60,63,104,76
2025-02-26 15:25:13.219,-693.0,383.0,14.0,103.0,154.0,259.0,153,58,57,104,75
2025-02-26 15:25:13.227,-595.0,283.0,-24.0,112.0,145.0,259.0,153,59,59,105,75
2025-02-26 15:25:13.231,-506.0,181.0,-39.0,121.0,138.0,257.0,153,59,59,105,77
2025-02-26 15:25:13.236,-468.0,179.0,-87.0,142.0,136.0,259.0,152,60,59,104,75
2025-02-26 15:25:13.240,-509.0,174.0,-160.0,166.0,129.0,262.0,151,58,58,104,74
2025-02-26 15:25:13.248,-593.0,215.0,-256.0,196.0,118.0,268.0,152,60,60,104,75
2025-02-26 15:25:13.252,-692.0,294.0,-278.0,227.0,103.0,275.0,154,62,59,105,77
2025-02-26 15:25:13.257,-740.0,401.0,-231.0,251.0,91.0,270.0,152,59,59,105,74
2025-02-26 15:25:13.260,-668.0,596.0,-163.0,300.0,84.0,248.0,151,60,59,104,74
2025-02-26 15:25:13.269,-573.0,642.0,-260.0,366.0,88.0,236.0,151,56,60,105,76
2025-02-26 15:25:13.272,-381.0,1067.0,-287.0,416.0,104.0,202.0,154,65,61,106,77
2025-02-26 15:25:13.277,-566.0,1772.0,-488.0,436.0,101.0,146.0,150,59,60,105,74
2025-02-26 15:25:13.285,-667.0,2755.0,-706.0,439.0,91.0,61.0,149,59,58,103,74
2025-02-26 15:25:13.289,-994.0,3192.0,-990.0,396.0,58.0,8.0,150,60,61,104,75
2025-02-26 15:25:13.293,-1462.0,3958.0,-1169.0,322.0,0.0,-112.0,152,61,59,103,76
2025-02-26 15:25:13.301,-1608.0,4191.0,-1408.0,264.0,-63.0,-243.0,150,60,59,103,75
2025-02-26 15:25:13.306,-1698.0,4505.0,-1791.0,167.0,-107.0,-384.0,149,60,59,102,74
2025-02-26 15:25:13.310,-1628.0,4250.0,-1747.0,100.0,-192.0,-515.0,148,60,59,104,73
2025-02-26 15:25:13.317,-1248.0,3840.0,-1818.0,36.0,-291.0,-636.0,151,59,58,102,73
2025-02-26 15:25:13.321,-937.0,3631.0,-1880.0,-18.0,-370.0,-693.0,149,60,59,101,72
2025-02-26 15:25:13.326,-724.0,3502.0,-1807.0,-89.0,-455.0,-809.0,150,61,60,106,72
2025-02-26 15:25:13.333,-366.0,3264.0,-1833.0,-180.0,-558.0,-928.0,151,62,61,107,75
2025-02-26 15:25:13.338,454.0,3133.0,-1930.0,-277.0,-665.0,-1040.0,151,61,62,99,75
2025-02-26 15:25:13.342,1791.0,2887.0,-2049.0,-377.0,-772.0,-1122.0,152,62,59,107,76
2025-02-26 15:25:13.350,3439.0,2119.0,-2182.0,-432.0,-882.0,-1138.0,153,62,60,105,78
2025-02-26 15:25:13.355,5179.0,974.0,-2311.0,-500.0,-962.0,-1070.0,154,62,57,108,79
2025-02-26 15:25:13.362,5907.0,-934.0,-2337.0,-593.0,-1009.0,-965.0,154,63,59,108,81
2025-02-26 15:25:13.367,6504.0,-2333.0,-2264.0,-686.0,-980.0,-827.0,153,62,60,109,81
2025-02-26 15:25:13.372,6635.0,-4236.0,-1965.0,-758.0,-944.0,-643.0,155,62,61,110,84
2025-02-26 15:25:13.379,6501.0,-6271.0,-1537.0,-809.0,-811.0,-419.0,153,64,59,108,82
2025-02-26 15:25:13.381,6213.0,-8504.0,-621.0,-742.0,-579.0,-209.0,153,61,56,106,83
2025-02-26 15:25:13.391,6126.0,-9792.0,411.0,-539.0,-280.0,-125.0,153,62,58,107,82
2025-02-26 15:25:13.396,5993.0,-9764.0,646.0,-210.0,-32.0,-17.0,175,89,83,135,112
2025-02-26 15:25:13.399,5168.0,-8579.0,-1020.0,144.0,238.0,26.0,157,69,66,107,83
2025-02-26 15:25:13.408,3971.0,-5929.0,-998.0,561.0,256.0,55.0,150,54,56,97,72
2025-02-26 15:25:13.410,2205.0,-4160.0,-1543.0,563.0,345.0,78.0,153,63,62,104,77
2025-02-26 15:25:13.416,1729.0,-3755.0,-1329.0,701.0,407.0,110.0,151,56,55,98,72
2025-02-26 15:25:13.424,582.0,-1045.0,-2405.0,322.0,192.0,130.0,151,56,56,100,74
2025-02-26 15:25:13.428,-347.0,-1046.0,-1523.0,345.0,145.0,166.0,151,56,55,100,74
2025-02-26 15:25:13.433,-322.0,-444.0,-1980.0,88.0,48.0,168.0,155,63,59,107,80
2025-02-26 15:25:13.437,-536.0,101.0,-1582.0,28.0,8.0,145.0,155,66,61,112,83
2025-02-26 15:25:13.445,-360.0,-595.0,-1035.0,-77.0,-31.0,139.0,153,63,56,108,79
2025-02-26 15:25:13.449,-183.0,-1463.0,-489.0,-82.0,-104.0,129.0,152,61,59,108,79
2025-02-26 15:25:13.453,121.0,-1527.0,-135.0,-69.0,-196.0,115.0,153,64,61,112,83
2025-02-26 15:25:13.461,540.0,-1709.0,61.0,-69.0,-172.0,107.0,153,63,58,109,81
2025-02-26 15:25:13.464,744.0,-1963.0,339.0,-36.0,-125.0,111.0,151,60,59,108,82
2025-02-26 15:25:13.470,390.0,-2744.0,704.0,18.0,-120.0,115.0,152,61,59,105,80
2025-02-26 15:25:13.473,706.0,-2066.0,745.0,77.0,-34.0,117.0,155,59,57,107,81
2025-02-26 15:25:13.481,757.0,-2159.0,809.0,113.0,26.0,130.0,151,63,61,107,82
2025-02-26 15:25:13.483,458.0,-2115.0,840.0,130.0,44.0,151.0,150,56,54,105,82
2025-02-26 15:25:13.490,702.0,-2167.0,773.0,146.0,54.0,189.0,153,61,59,106,84
2025-02-26 15:25:13.494,567.0,-2050.0,613.0,145.0,82.0,208.0,151,60,58,105,83
2025-02-26 15:25:13.501,539.0,-1894.0,535.0,152.0,84.0,234.0,151,64,59,107,85
2025-02-26 15:25:13.506,405.0,-1548.0,332.0,131.0,106.0,250.0,150,62,60,105,86
2025-02-26 15:25:13.511,349.0,-1423.0,398.0,91.0,101.0,259.0,153,65,60,105,84
2025-02-26 15:25:13.518,641.0,-1099.0,406.0,10.0,108.0,259.0,152,66,58,103,85
2025-02-26 15:25:13.520,781.0,-971.0,275.0,-71.0,174.0,251.0,150,65,61,101,86
2025-02-26 15:25:13.525,274.0,-1444.0,-38.0,-86.0,246.0,274.0,151,64,61,99,85
2025-02-26 15:25:13.531,54.0,-1073.0,68.0,-50.0,260.0,279.0,151,64,63,97,84
2025-02-26 15:25:13.535,524.0,-913.0,-24.0,-17.0,289.0,281.0,153,62,65,96,85
2025-02-26 15:25:13.543,567.0,-624.0,-57.0,-68.0,305.0,287.0,151,63,65,97,83
2025-02-26 15:25:13.547,326.0,-749.0,-23.0,-40.0,309.0,276.0,151,62,68,96,82
2025-02-26 15:25:13.552,181.0,-1057.0,-399.0,-32.0,256.0,303.0,150,64,70,95,82
2025-02-26 15:25:13.556,48.0,-844.0,-178.0,45.0,159.0,308.0,152,63,73,97,84
2025-02-26 15:25:13.562,114.0,-692.0,-303.0,67.0,146.0,313.0,151,64,72,96,84
2025-02-26 15:25:13.568,269.0,-764.0,-91.0,107.0,170.0,336.0,151,64,73,96,86
2025-02-26 15:25:13.572,394.0,-734.0,2.0,134.0,190.0,347.0,152,69,76,97,88
2025-02-26 15:25:13.576,244.0,-601.0,157.0,129.0,177.0,353.0,152,68,77,98,90
2025-02-26 15:25:13.584,102.0,-350.0,204.0,103.0,191.0,373.0,150,68,77,95,90
2025-02-26 15:25:13.588,285.0,-453.0,107.0,132.0,222.0,385.0,151,69,77,97,91
2025-02-26 15:25:13.593,414.0,-86.0,180.0,172.0,244.0,398.0,153,73,81,99,95
2025-02-26 15:25:13.597,380.0,13.0,286.0,207.0,288.0,402.0,152,72,78,97,95
2025-02-26 15:25:13.601,392.0,17.0,-119.0,246.0,292.0,402.0,151,72,79,97,95
2025-02-26 15:25:13.609,35.0,95.0,-212.0,286.0,286.0,382.0,153,74,80,98,95
2025-02-26 15:25:13.612,-363.0,256.0,-259.0,312.0,267.0,357.0,150,74,80,99,96
2025-02-26 15:25:13.617,-503.0,508.0,-56.0,301.0,261.0,334.0,152,75,79,99,94
2025-02-26 15:25:13.621,-505.0,466.0,0.0,261.0,249.0,320.0,151,75,78,99,95
2025-02-26 15:25:13.629,-428.0,825.0,-405.0,216.0,193.0,285.0,151,75,78,99,94
2025-02-26 15:25:13.633,-429.0,782.0,-93.0,172.0,179.0,254.0,151,77,78,100,95
2025-02-26 15:25:13.637,-272.0,803.0,-153.0,159.0,162.0,244.0,153,77,78,100,95
2025-02-26 15:25:13.642,-638.0,512.0,-119.0,119.0,142.0,239.0,151,77,77,100,95
2025-02-26 15:25:13.649,-717.0,529.0,139.0,104.0,151.0,243.0,150,77,76,103,96
2025-02-26 15:25:13.653,-650.0,578.0,-126.0,137.0,150.0,234.0,150,79,75,100,96
2025-02-26 15:25:13.658,-622.0,527.0,-103.0,153.0,152.0,232.0,150,77,75,101,96
2025-02-26 15:25:13.662,-605.0,463.0,-122.0,172.0,153.0,233.0,150,79,75,102,97
2025-02-26 15:25:13.670,-548.0,574.0,-101.0,184.0,157.0,237.0,148,77,75,102,97
2025-02-26 15:25:13.674,-545.0,722.0,-177.0,196.0,159.0,233.0,149,79,76,103,96
2025-02-26 15:25:13.678,-594.0,1178.0,-146.0,184.0,159.0,227.0,148,76,75,102,97
2025-02-26 15:25:13.684,-776.0,1427.0,-403.0,154.0,137.0,192.0,148,72,71,101,95
2025-02-26 15:25:13.691,-919.0,1769.0,-458.0,121.0,91.0,145.0,146,69,70,102,95
2025-02-26 15:25:13.695,-908.0,1910.0,-585.0,105.0,48.0,87.0,149,68,70,100,96
2025-02-26 15:25:13.699,-893.0,2033.0,-638.0,103.0,44.0,6.0,147,60,66,99,96
2025-02-26 15:25:13.707,-900.0,2061.0,-1138.0,128.0,-1.0,-40.0,144,59,64,102,95
2025-02-26 15:25:13.710,-1074.0,2194.0,-1057.0,166.0,-29.0,-141.0,148,58,64,99,93
2025-02-26 15:25:13.715,-1366.0,2053.0,-839.0,177.0,-47.0,-239.0,148,54,60,97,94
2025-02-26 15:25:13.720,-1478.0,2214.0,-886.0,174.0,-58.0,-336.0,148,53,59,93,88
2025-02-26 15:25:13.727,-1397.0,2407.0,-1051.0,159.0,-99.0,-431.0,147,52,57,88,85
2025-02-26 15:25:13.732,-1286.0,2503.0,-1065.0,125.0,-144.0,-477.0,148,52,56,87,80
2025-02-26 15:25:13.738,-1343.0,2596.0,-854.0,79.0,-195.0,-569.0,148,53,55,85,78
2025-02-26 15:25:13.744,-1414.0,2542.0,-1140.0,56.0,-276.0,-642.0,147,51,53,83,77
2025-02-26 15:25:13.748,-1334.0,2683.0,-1383.0,-4.0,-392.0,-720.0,147,51,52,84,77
2025-02-26 15:25:13.756,-882.0,2923.0,-1658.0,-40.0,-509.0,-803.0,146,52,55,82,80
2025-02-26 15:25:13.760,81.0,3104.0,-1919.0,-110.0,-566.0,-879.0,148,53,51,79,82
2025-02-26 15:25:13.765,618.0,2959.0,-2021.0,-147.0,-687.0,-950.0,143,45,51,77,89
2025-02-26 15:25:13.772,2058.0,2617.0,-1961.0,-181.0,-797.0,-971.0,144,52,52,81,84
2025-02-26 15:25:13.777,3672.0,1200.0,-1428.0,-201.0,-838.0,-964.0,144,54,53,80,86
2025-02-26 15:25:13.781,4784.0,-600.0,-917.0,-150.0,-804.0,-888.0,145,52,54,80,85
2025-02-26 15:25:13.789,5349.0,-2591.0,229.0,-68.0,-672.0,-746.0,143,52,52,78,84
2025-02-26 15:25:13.793,5583.0,-4240.0,1456.0,-14.0,-469.0,-574.0,142,52,54,79,82
2025-02-26 15:25:13.798,5500.0,-5464.0,2375.0,58.0,-356.0,-378.0,139,50,52,76,76
2025-02-26 15:25:13.803,5394.0,-6165.0,2871.0,118.0,-131.0,-191.0,138,51,50,75,74
2025-02-26 15:25:13.809,5348.0,-6100.0,2392.0,166.0,61.0,-119.0,134,51,52,73,71
2025-02-26 15:25:13.813,4958.0,-5672.0,2138.0,200.0,214.0,-29.0,136,51,54,75,68
2025-02-26 15:25:13.821,3646.0,-5109.0,1690.0,203.0,287.0,27.0,136,50,51,73,64
2025-02-26 15:25:13.823,2435.0,-4324.0,1161.0,199.0,289.0,74.0,136,50,52,71,59
2025-02-26 15:25:13.830,1675.0,-3267.0,600.0,184.0,252.0,89.0,136,48,51,70,58
2025-02-26 15:25:13.834,893.0,-2814.0,229.0,129.0,173.0,126.0,135,50,57,72,55
2025-02-26 15:25:13.842,645.0,-2246.0,236.0,89.0,81.0,140.0,135,51,53,72,55
2025-02-26 15:25:13.846,476.0,-1777.0,285.0,6.0,40.0,142.0,134,49,53,70,53
2025-02-26 15:25:13.850,196.0,-1696.0,576.0,-101.0,-16.0,148.0,137,50,55,71,55
2025-02-26 15:25:13.855,472.0,-1663.0,683.0,-180.0,-43.0,153.0,128,51,55,73,55
2025-02-26 15:25:13.859,712.0,-1922.0,796.0,-203.0,-43.0,146.0,136,50,53,73,56
2025-02-26 15:25:13.866,770.0,-2413.0,881.0,-227.0,-34.0,151.0,134,47,53,73,55
2025-02-26 15:25:13.871,937.0,-2459.0,882.0,-222.0,-9.0,163.0,135,50,54,73,57
2025-02-26 15:25:13.875,935.0,-2744.0,894.0,-189.0,30.0,174.0,135,50,55,73,58
2025-02-26 15:25:13.883,827.0,-2775.0,848.0,-166.0,59.0,195.0,135,52,56,74,59
2025-02-26 15:25:13.887,827.0,-2733.0,838.0,-123.0,76.0,220.0,136,50,55,75,60
2025-02-26 15:25:13.892,689.0,-2645.0,755.0,-77.0,106.0,231.0,134,50,56,76,61
2025-02-26 15:25:13.895,581.0,-2436.0,730.0,-37.0,120.0,252.0,136,52,55,76,60
2025-02-26 15:25:13.903,475.0,-2137.0,679.0,-24.0,131.0,270.0,134,53,55,77,62
2025-02-26 15:25:13.907,263.0,-1809.0,632.0,-5.0,135.0,278.0,132,50,55,77,60
2025-02-26 15:25:13.912,375.0,-1617.0,565.0,-3.0,140.0,283.0,134,50,53,76,61
2025-02-26 15:25:13.916,207.0,-1313.0,583.0,-6.0,138.0,287.0,133,53,54,75,63
2025-02-26 15:25:13.924,212.0,-1033.0,576.0,-22.0,138.0,291.0,132,51,53,75,61
2025-02-26 15:25:13.928,199.0,-944.0,617.0,-46.0,141.0,292.0,133,51,52,76,62
2025-02-26 15:25:13.932,231.0,-778.0,637.0,-80.0,151.0,293.0,134,53,56,78,63
2025-02-26 15:25:13.937,203.0,-700.0,613.0,-96.0,158.0,293.0,131,51,53,78,64
2025-02-26 15:25:13.942,210.0,-628.0,551.0,-124.0,164.0,290.0,133,53,54,76,62
2025-02-26 15:25:13.948,135.0,-600.0,519.0,-143.0,167.0,289.0,132,52,54,77,65
2025-02-26 15:25:13.952,45.0,-609.0,486.0,-159.0,171.0,288.0,132,51,55,81,66
2025-02-26 15:25:13.957,-40.0,-569.0,384.0,-163.0,166.0,288.0,131,54,54,77,64
2025-02-26 15:25:13.965,-67.0,-541.0,259.0,-169.0,162.0,289.0,129,53,55,77,64
2025-02-26 15:25:13.969,-81.0,-501.0,145.0,-173.0,162.0,290.0,131,52,56,77,64
2025-02-26 15:25:13.974,-258.0,-454.0,143.0,-171.0,146.0,291.0,132,53,56,79,65
2025-02-26 15:25:13.977,-292.0,-385.0,113.0,-168.0,140.0,292.0,131,51,56,77,64
2025-02-26 15:25:13.985,-283.0,-292.0,121.0,-166.0,130.0,293.0,130,50,55,80,64
2025-02-26 15:25:13.989,-348.0,-297.0,72.0,-169.0,120.0,293.0,132,54,55,80,64
2025-02-26 15:25:13.994,-357.0,-224.0,21.0,-171.0,114.0,287.0,132,54,56,80,64
2025-02-26 15:25:13.998,-331.0,-155.0,14.0,-172.0,111.0,284.0,131,53,55,77,64
2025-02-26 15:25:14.005,-299.0,-120.0,13.0,-171.0,116.0,280.0,129,52,56,77,63
2025-02-26 15:25:14.010,-244.0,-74.0,28.0,-154.0,116.0,271.0,130,55,57,81,65
2025-02-26 15:25:14.016,-175.0,-62.0,85.0,-143.0,120.0,260.0,132,53,56,79,65
2025-02-26 15:25:14.018,-84.0,-50.0,85.0,-116.0,118.0,248.0,129,52,56,78,64
2025-02-26 15:25:14.026,-122.0,-40.0,66.0,-75.0,121.0,238.0,131,51,56,79,65
2025-02-26 15:25:14.030,-148.0,-74.0,105.0,-59.0,132.0,227.0,129,53,56,79,64
2025-02-26 15:25:14.034,-190.0,-40.0,86.0,-48.0,137.0,221.0,133,51,55,80,65
2025-02-26 15:25:14.039,-187.0,20.0,39.0,-26.0,141.0,215.0,133,53,56,79,64
2025-02-26 15:25:14.041,-129.0,136.0,130.0,-38.0,151.0,207.0,132,52,56,80,65
2025-02-26 15:25:14.051,-388.0,250.0,-130.0,-31.0,140.0,196.0,133,54,56,79,64
2025-02-26 15:25:14.055,-482.0,249.0,13.0,-15.0,131.0,191.0,132,53,57,80,65
2025-02-26 15:25:14.059,-642.0,416.0,-88.0,-6.0,110.0,178.0,132,54,56,80,67
2025-02-26 15:25:14.064,-626.0,470.0,-118.0,-5.0,91.0,171.0,133,53,56,81,67
2025-02-26 15:25:14.071,-637.0,503.0,-145.0,-4.0,85.0,171.0,133,55,56,80,65
2025-02-26 15:25:14.075,-600.0,550.0,-158.0,-2.0,71.0,174.0,134,56,56,82,68
2025-02-26 15:25:14.080,-551.0,571.0,-135.0,1.0,64.0,183.0,132,54,58,81,67
2025-02-26 15:25:14.084,-505.0,592.0,-157.0,22.0,62.0,192.0,131,53,55,79,65
2025-02-26 15:25:14.088,-449.0,639.0,-211.0,53.0,60.0,196.0,134,56,57,86,67
2025-02-26 15:25:14.096,-440.0,736.0,-239.0,73.0,61.0,197.0,135,57,58,82,67
2025-02-26 15:25:14.100,-439.0,893.0,-339.0,116.0,63.0,187.0,132,54,57,82,67
2025-02-26 15:25:14.104,-507.0,1040.0,-491.0,154.0,67.0,176.0,134,56,57,83,67
2025-02-26 15:25:14.109,-679.0,1590.0,-561.0,181.0,63.0,137.0,133,58,58,83,67
2025-02-26 15:25:14.116,-814.0,2188.0,-700.0,188.0,47.0,77.0,133,57,59,83,68
2025-02-26 15:25:14.121,-832.0,2810.0,-838.0,193.0,37.0,-7.0,134,54,58,83,66
2025-02-26 15:25:14.125,-879.0,3082.0,-911.0,200.0,18.0,-56.0,132,55,55,79,66
2025-02-26 15:25:14.129,-982.0,3496.0,-1145.0,202.0,-15.0,-169.0,130,54,57,80,66
2025-02-26 15:25:14.137,-1126.0,3817.0,-1462.0,208.0,-65.0,-293.0,130,54,57,72,66
2025-02-26 15:25:14.141,-1061.0,3865.0,-1762.0,205.0,-97.0,-420.0,127,53,57,81,65
2025-02-26 15:25:14.145,-1360.0,3630.0,-1900.0,206.0,-185.0,-478.0,127,51,53,79,64
2025-02-26 15:25:14.154,-1266.0,3548.0,-2106.0,199.0,-277.0,-582.0,125,53,53,78,64
2025-02-26 15:25:14.157,-1174.0,3242.0,-2239.0,193.0,-374.0,-675.0,125,56,54,78,62
2025-02-26 15:25:14.162,-932.0,3046.0,-2306.0,184.0,-483.0,-762.0,125,57,54,77,61
2025-02-26 15:25:14.170,-708.0,3065.0,-2384.0,168.0,-615.0,-860.0,123,54,54,76,62
2025-02-26 15:25:14.174,-174.0,3331.0,-2501.0,156.0,-777.0,-967.0,125,56,55,80,63
2025-02-26 15:25:14.181,847.0,3568.0,-2581.0,107.0,-864.0,-1066.0,127,55,53,75,63
2025-02-26 15:25:14.186,1722.0,3801.0,-2641.0,19.0,-1037.0,-1145.0,127,53,53,73,63
2025-02-26 15:25:14.190,3925.0,3633.0,-2070.0,-89.0,-1179.0,-1157.0,125,52,50,73,64
2025-02-26 15:25:14.198,6743.0,2836.0,-390.0,-217.0,-1198.0,-1121.0,129,54,56,75,67
2025-02-26 15:25:14.202,9198.0,546.0,2040.0,-324.0,-1015.0,-963.0,130,56,54,75,68
2025-02-26 15:25:14.207,10054.0,-3609.0,2910.0,-395.0,-637.0,-701.0,129,56,54,79,67
2025-02-26 15:25:14.215,9280.0,-8169.0,3542.0,-366.0,-211.0,-384.0,129,57,57,79,68
2025-02-26 15:25:14.219,8332.0,-10592.0,2995.0,-298.0,143.0,-111.0,125,55,55,77,69
2025-02-26 15:25:14.223,6492.0,-9748.0,1991.0,-73.0,343.0,29.0,126,55,55,77,68
2025-02-26 15:25:14.231,5608.0,-7805.0,443.0,197.0,398.0,59.0,126,53,54,78,65
2025-02-26 15:25:14.235,3715.0,-7059.0,-603.0,417.0,421.0,71.0,128,57,56,75,63
2025-02-26 15:25:14.240,2445.0,-5265.0,-694.0,420.0,444.0,105.0,129,55,55,75,60
2025-02-26 15:25:14.252,1507.0,-3681.0,-755.0,375.0,408.0,153.0,134,60,61,77,62
2025-02-26 15:25:14.254,1600.0,-2927.0,-1150.0,421.0,305.0,161.0,133,55,56,75,59
2025-02-26 15:25:14.257,997.0,-322.0,-107.0,191.0,196.0,219.0,138,56,57,79,58
2025-02-26 15:25:14.260,32.0,-513.0,-299.0,89.0,76.0,217.0,135,57,60,79,58
2025-02-26 15:25:14.264,311.0,-1028.0,-70.0,21.0,11.0,189.0,134,53,57,77,59
2025-02-26 15:25:14.272,294.0,-1738.0,-122.0,-103.0,-23.0,178.0,133,53,57,78,59
2025-02-26 15:25:14.276,195.0,-2045.0,129.0,-165.0,-19.0,170.0,133,48,57,75,64
2025-02-26 15:25:14.281,761.0,-2320.0,170.0,-158.0,-50.0,173.0,136,55,57,78,64
2025-02-26 15:25:14.288,737.0,-2561.0,447.0,-154.0,-10.0,183.0,136,56,56,81,64
2025-02-26 15:25:14.292,816.0,-2849.0,679.0,-128.0,23.0,202.0,135,54,56,80,66
2025-02-26 15:25:14.296,787.0,-2829.0,883.0,-50.0,41.0,213.0,134,54,55,77,67
2025-02-26 15:25:14.301,939.0,-2695.0,862.0,-6.0,101.0,236.0,137,55,58,80,68
2025-02-26 15:25:14.308,777.0,-2467.0,840.0,14.0,151.0,250.0,136,57,56,80,68
2025-02-26 15:25:14.313,854.0,-2239.0,803.0,55.0,165.0,266.0,137,55,59,79,68
2025-02-26 15:25:14.317,506.0,-2086.0,589.0,83.0,180.0,275.0,136,56,57,80,70
2025-02-26 15:25:14.321,498.0,-1687.0,627.0,92.0,192.0,290.0,137,55,55,80,69
2025-02-26 15:25:14.326,437.0,-1407.0,492.0,99.0,195.0,305.0,132,56,52,80,65
2025-02-26 15:25:14.334,250.0,-1259.0,377.0,101.0,183.0,309.0,137,55,57,81,71
2025-02-26 15:25:14.338,54.0,-1137.0,365.0,87.0,179.0,317.0,142,62,63,87,79
2025-02-26 15:25:14.341,77.0,-841.0,337.0,73.0,179.0,321.0,143,63,65,86,79
2025-02-26 15:25:14.345,101.0,-657.0,291.0,40.0,181.0,327.0,142,61,63,87,78
2025-02-26 15:25:14.353,162.0,-611.0,289.0,13.0,184.0,328.0,144,62,65,88,78
2025-02-26 15:25:14.358,70.0,-549.0,316.0,-4.0,189.0,340.0,144,62,66,89,77
2025-02-26 15:25:14.363,37.0,-461.0,339.0,-31.0,197.0,343.0,141,62,63,86,78
2025-02-26 15:25:14.366,30.0,-310.0,341.0,-84.0,220.0,341.0,143,61,66,89,78
2025-02-26 15:25:14.370,187.0,-142.0,336.0,-95.0,237.0,335.0,145,62,67,86,78
2025-02-26 15:25:14.378,207.0,-81.0,359.0,-135.0,245.0,340.0,142,60,65,85,76
2025-02-26 15:25:14.382,33.0,-158.0,202.0,-104.0,234.0,337.0,145,61,66,89,78
2025-02-26 15:25:14.387,-24.0,-170.0,93.0,-65.0,210.0,328.0,145,62,69,89,79
2025-02-26 15:25:14.391,-120.0,-92.0,79.0,-50.0,200.0,324.0,143,57,67,88,77
2025-02-26 15:25:14.399,-93.0,-293.0,-4.0,-34.0,189.0,325.0,146,61,68,89,79
2025-02-26 15:25:14.403,-94.0,-278.0,-23.0,-35.0,195.0,330.0,144,61,70,90,81
2025-02-26 15:25:14.407,2.0,-245.0,-25.0,-35.0,200.0,337.0,145,60,69,89,79
2025-02-26 15:25:14.412,19.0,-228.0,13.0,-59.0,216.0,344.0,143,59,70,89,78
2025-02-26 15:25:14.415,158.0,-104.0,16.0,-67.0,231.0,359.0,146,63,72,91,83
2025-02-26 15:25:14.423,140.0,-54.0,-144.0,-48.0,227.0,359.0,145,63,71,89,78
2025-02-26 15:25:14.428,54.0,-86.0,-262.0,-10.0,223.0,356.0,145,60,70,90,77
2025-02-26 15:25:14.432,-161.0,-53.0,-415.0,47.0,202.0,347.0,146,65,73,90,80
2025-02-26 15:25:14.436,-394.0,-197.0,-342.0,74.0,188.0,340.0,146,63,75,91,80
2025-02-26 15:25:14.444,-411.0,11.0,-390.0,126.0,184.0,339.0,145,64,71,90,80
2025-02-26 15:25:14.448,-403.0,26.0,-352.0,155.0,172.0,339.0,146,66,73,92,82
2025-02-26 15:25:14.453,-283.0,80.0,-206.0,181.0,176.0,338.0,147,65,73,93,83
2025-02-26 15:25:14.457,-209.0,237.0,-377.0,193.0,171.0,329.0,146,66,71,93,82
2025-02-26 15:25:14.464,-263.0,158.0,-405.0,215.0,169.0,325.0,146,64,67,91,82
2025-02-26 15:25:14.469,-287.0,309.0,-523.0,253.0,164.0,312.0,147,68,69,92,83
2025-02-26 15:25:14.472,-474.0,439.0,-741.0,269.0,140.0,296.0,146,68,66,92,83
2025-02-26 15:25:14.478,-564.0,617.0,-785.0,316.0,126.0,280.0,147,70,64,92,83
2025-02-26 15:25:14.484,-662.0,561.0,-948.0,344.0,95.0,269.0,146,71,63,91,85
2025-02-26 15:25:14.489,-379.0,730.0,-1092.0,293.0,58.0,258.0,146,76,68,93,83
2025-02-26 15:25:14.493,-683.0,1197.0,-871.0,291.0,35.0,238.0,147,80,66,94,84
2025-02-26 15:25:14.498,-553.0,1083.0,-1274.0,303.0,6.0,205.0,146,81,65,89,81
2025-02-26 15:25:14.506,-572.0,1222.0,-1300.0,325.0,-29.0,187.0,147,83,65,92,81
2025-02-26 15:25:14.509,-577.0,1305.0,-1367.0,318.0,-71.0,150.0,146,84,65,93,82
2025-02-26 15:25:14.513,-736.0,1327.0,-1462.0,329.0,-125.0,102.0,149,89,64,91,80
2025-02-26 15:25:14.519,-935.0,1389.0,-1596.0,337.0,-154.0,49.0,147,88,62,89,76
2025-02-26 15:25:14.525,-1146.0,1433.0,-1697.0,340.0,-219.0,-1.0,145,90,60,85,73
2025-02-26 15:25:14.530,-1262.0,1534.0,-2013.0,362.0,-295.0,-28.0,147,95,60,86,72
2025-02-26 15:25:14.535,-1491.0,1579.0,-2050.0,376.0,-385.0,-92.0,148,99,62,85,71
2025-02-26 15:25:14.543,-1429.0,1998.0,-2485.0,374.0,-496.0,-176.0,144,103,60,83,70
2025-02-26 15:25:14.546,-1332.0,2179.0,-3084.0,364.0,-636.0,-262.0,146,96,60,82,68
2025-02-26 15:25:14.555,-855.0,2516.0,-3224.0,363.0,-790.0,-340.0,141,100,59,81,67
2025-02-26 15:25:14.559,-44.0,2330.0,-3232.0,356.0,-927.0,-396.0,140,100,58,79,66
2025-02-26 15:25:14.564,557.0,1850.0,-3011.0,349.0,-988.0,-424.0,138,101,57,78,67
2025-02-26 15:25:14.569,1572.0,1872.0,-2544.0,341.0,-1090.0,-421.0,135,110,55,78,69
2025-02-26 15:25:14.575,2570.0,1292.0,-2151.0,349.0,-1170.0,-398.0,134,110,56,77,68
2025-02-26 15:25:14.580,3173.0,601.0,-1445.0,353.0,-1216.0,-355.0,130,112,56,76,68
2025-02-26 15:25:14.587,3935.0,350.0,-1155.0,382.0,-1240.0,-304.0,126,119,55,77,69
2025-02-26 15:25:14.592,4494.0,30.0,-400.0,442.0,-1231.0,-261.0,126,113,54,78,70
2025-02-26 15:25:14.596,4656.0,-198.0,248.0,477.0,-1191.0,-237.0,124,120,54,79,69
2025-02-26 15:25:14.604,5083.0,-17.0,1096.0,500.0,-1113.0,-227.0,126,115,55,78,70
2025-02-26 15:25:14.608,4560.0,-36.0,1519.0,563.0,-1079.0,-218.0,125,117,53,78,71
2025-02-26 15:25:14.612,4294.0,4.0,2759.0,596.0,-958.0,-202.0,130,120,55,77,74
2025-02-26 15:25:14.620,4322.0,110.0,3014.0,573.0,-806.0,-144.0,131,120,56,79,75
2025-02-26 15:25:14.625,4248.0,472.0,3501.0,529.0,-645.0,-101.0,133,124,56,80,74
2025-02-26 15:25:14.629,3867.0,677.0,4624.0,495.0,-506.0,-69.0,134,122,57,78,74
2025-02-26 15:25:14.636,3754.0,722.0,5390.0,432.0,-433.0,-27.0,133,123,56,79,76
2025-02-26 15:25:14.640,3557.0,797.0,5528.0,284.0,-264.0,-5.0,136,124,55,78,76
2025-02-26 15:25:14.645,3282.0,1089.0,5508.0,122.0,-108.0,26.0,135,124,57,79,76
2025-02-26 15:25:14.649,2773.0,983.0,5253.0,-9.0,14.0,54.0,133,126,56,78,77
2025-02-26 15:25:14.656,2497.0,934.0,4938.0,-65.0,71.0,76.0,131,125,56,80,76
2025-02-26 15:25:14.661,2412.0,821.0,4269.0,-165.0,173.0,85.0,128,125,54,80,76
2025-02-26 15:25:14.666,2241.0,691.0,3844.0,-226.0,241.0,95.0,128,124,57,80,76
2025-02-26 15:25:14.670,1902.0,663.0,3038.0,-250.0,285.0,95.0,124,126,57,80,75
2025-02-26 15:25:14.678,1697.0,523.0,2526.0,-270.0,297.0,83.0,124,124,54,79,75
2025-02-26 15:25:14.682,1571.0,188.0,2183.0,-249.0,319.0,77.0,121,125,54,79,74
2025-02-26 15:25:14.686,1381.0,91.0,1879.0,-221.0,335.0,60.0,121,125,57,75,75
2025-02-26 15:25:14.694,1213.0,-64.0,1765.0,-181.0,345.0,43.0,122,126,55,81,75
2025-02-26 15:25:14.698,1083.0,-124.0,1551.0,-166.0,349.0,24.0,119,126,51,79,75
2025-02-26 15:25:14.703,1221.0,-167.0,1434.0,-139.0,361.0,15.0,120,122,54,80,74
2025-02-26 15:25:14.706,821.0,-90.0,1375.0,-125.0,363.0,9.0,119,122,54,80,73
2025-02-26 15:25:14.714,762.0,-59.0,1353.0,-125.0,367.0,8.0,122,123,56,82,74
2025-02-26 15:25:14.718,689.0,-42.0,1331.0,-126.0,373.0,13.0,123,122,56,82,75
2025-02-26 15:25:14.723,704.0,-54.0,1344.0,-143.0,371.0,20.0,121,122,55,80,73
2025-02-26 15:25:14.727,615.0,-5.0,1365.0,-155.0,374.0,23.0,122,124,56,82,74
2025-02-26 15:25:14.735,527.0,-54.0,1266.0,-162.0,373.0,35.0,122,123,55,80,75
2025-02-26 15:25:14.739,477.0,-152.0,1165.0,-176.0,374.0,47.0,123,124,55,82,73
2025-02-26 15:25:14.743,337.0,-230.0,1030.0,-172.0,362.0,50.0,120,123,56,79,73
2025-02-26 15:25:14.748,334.0,-199.0,953.0,-183.0,354.0,62.0,119,123,57,82,73
2025-02-26 15:25:14.755,343.0,-218.0,839.0,-185.0,340.0,77.0,118,125,58,82,74
2025-02-26 15:25:14.760,244.0,-262.0,750.0,-188.0,332.0,89.0,116,122,55,80,73
2025-02-26 15:25:14.764,277.0,-290.0,672.0,-181.0,316.0,91.0,115,123,55,80,72
2025-02-26 15:25:14.768,283.0,-270.0,631.0,-170.0,300.0,94.0,114,123,57,83,73
2025-02-26 15:25:14.776,222.0,-227.0,611.0,-165.0,287.0,91.0,115,120,55,82,74
2025-02-26 15:25:14.780,228.0,-183.0,618.0,-162.0,283.0,89.0,111,121,55,86,72
2025-02-26 15:25:14.784,208.0,-172.0,622.0,-163.0,280.0,88.0,111,120,54,80,72
2025-02-26 15:25:14.788,203.0,-137.0,638.0,-168.0,283.0,88.0,112,120,54,81,72
2025-02-26 15:25:14.796,175.0,-96.0,652.0,-171.0,291.0,87.0,117,122,58,83,73
2025-02-26 15:25:14.799,180.0,-34.0,674.0,-184.0,296.0,86.0,114,120,56,81,73
2025-02-26 15:25:14.805,140.0,-53.0,710.0,-191.0,308.0,85.0,119,120,56,83,74
2025-02-26 15:25:14.809,142.0,-74.0,727.0,-198.0,325.0,87.0,117,119,57,83,74
2025-02-26 15:25:14.817,118.0,-89.0,642.0,-202.0,342.0,93.0,117,117,57,83,73
2025-02-26 15:25:14.820,88.0,-178.0,525.0,-202.0,347.0,98.0,118,115,54,81,73
2025-02-26 15:25:14.825,-21.0,-228.0,412.0,-186.0,348.0,105.0,116,117,56,81,73
2025-02-26 15:25:14.830,-129.0,-332.0,256.0,-171.0,336.0,112.0,117,117,56,82,73
2025-02-26 15:25:14.838,-174.0,-370.0,145.0,-142.0,328.0,122.0,118,118,56,84,73
2025-02-26 15:25:14.841,-159.0,-291.0,44.0,-120.0,308.0,128.0,115,115,54,81,71
2025-02-26 15:25:14.846,-285.0,-282.0,-21.0,-95.0,286.0,129.0,114,115,55,81,65
2025-02-26 15:25:14.854,-280.0,-161.0,-18.0,-72.0,267.0,126.0,114,116,56,81,71
2025-02-26 15:25:14.858,-348.0,-46.0,-9.0,-60.0,251.0,111.0,113,116,56,81,67
2025-02-26 15:25:14.862,-325.0,99.0,8.0,-44.0,248.0,101.0,111,114,52,81,71
2025-02-26 15:25:14.866,-210.0,181.0,30.0,-37.0,246.0,95.0,110,114,55,79,70
2025-02-26 15:25:14.871,-306.0,242.0,27.0,-33.0,244.0,82.0,112,111,55,81,70
2025-02-26 15:25:14.878,-312.0,263.0,14.0,-25.0,243.0,64.0,115,113,53,80,70
2025-02-26 15:25:14.882,-333.0,299.0,24.0,-23.0,243.0,58.0,114,112,53,81,70
2025-02-26 15:25:14.887,-309.0,327.0,39.0,-25.0,248.0,52.0,113,113,53,79,69
2025-02-26 15:25:14.890,-284.0,287.0,43.0,-27.0,251.0,52.0,114,112,52,78,69
2025-02-26 15:25:14.899,-335.0,319.0,-21.0,-31.0,257.0,53.0,113,117,53,81,72
2025-02-26 15:25:14.903,-386.0,276.0,-103.0,-26.0,255.0,56.0,115,113,54,81,71
2025-02-26 15:25:14.907,-664.0,209.0,-75.0,-22.0,252.0,53.0,114,111,50,80,69
2025-02-26 15:25:14.911,-639.0,300.0,-396.0,-7.0,236.0,54.0,114,111,53,78,69
2025-02-26 15:25:14.915,-722.0,370.0,-467.0,20.0,209.0,57.0,114,110,53,80,71
2025-02-26 15:25:14.923,-722.0,483.0,-798.0,56.0,165.0,45.0,115,112,54,79,68
2025-02-26 15:25:14.926,-781.0,395.0,-756.0,57.0,152.0,43.0,113,111,49,76,68
2025-02-26 15:25:14.931,-851.0,572.0,-1099.0,58.0,111.0,39.0,110,110,53,79,68
2025-02-26 15:25:14.936,-974.0,761.0,-1225.0,83.0,59.0,13.0,109,110,52,79,68
2025-02-26 15:25:14.944,-987.0,910.0,-1656.0,102.0,26.0,-25.0,106,111,52,80,67
2025-02-26 15:25:14.948,-1316.0,1009.0,-1925.0,126.0,-39.0,-48.0,107,109,50,76,67
2025-02-26 15:25:14.952,-1338.0,992.0,-2317.0,157.0,-126.0,-91.0,109,109,52,77,68
2025-02-26 15:25:14.960,-1659.0,996.0,-2542.0,184.0,-235.0,-141.0,107,109,52,76,67
2025-02-26 15:25:14.965,-1815.0,1133.0,-2879.0,214.0,-366.0,-190.0,106,110,52,76,65
2025-02-26 15:25:14.972,-1737.0,1133.0,-3290.0,244.0,-515.0,-229.0,104,113,52,75,64
2025-02-26 15:25:14.977,-1459.0,1061.0,-3547.0,259.0,-673.0,-256.0,103,112,51,76,63
2025-02-26 15:25:14.981,-935.0,883.0,-3869.0,297.0,-841.0,-261.0,103,111,51,77,63
2025-02-26 15:25:14.988,-21.0,766.0,-3970.0,340.0,-919.0,-249.0,107,111,48,75,63
2025-02-26 15:25:14.993,575.0,763.0,-3738.0,356.0,-1058.0,-226.0,101,112,51,75,61
2025-02-26 15:25:14.997,1704.0,739.0,-3348.0,386.0,-1172.0,-217.0,103,112,49,75,62
2025-02-26 15:25:15.005,2842.0,586.0,-2633.0,417.0,-1241.0,-193.0,104,112,50,75,64
2025-02-26 15:25:15.010,3916.0,448.0,-2215.0,463.0,-1269.0,-166.0,105,112,51,78,63
2025-02-26 15:25:15.014,4652.0,188.0,-1137.0,483.0,-1236.0,-133.0,110,114,50,76,67
2025-02-26 15:25:15.021,5069.0,98.0,21.0,489.0,-1174.0,-106.0,111,113,51,76,66
2025-02-26 15:25:15.026,5085.0,161.0,1289.0,519.0,-1126.0,-84.0,112,112,51,75,67
2025-02-26 15:25:15.030,5082.0,225.0,2066.0,559.0,-1034.0,-61.0,116,112,51,76,68
2025-02-26 15:25:15.036,5114.0,398.0,2974.0,499.0,-891.0,-46.0,121,116,54,77,71
2025-02-26 15:25:15.042,4906.0,654.0,3354.0,467.0,-757.0,-29.0,123,115,53,79,71
2025-02-26 15:25:15.046,5022.0,925.0,4094.0,425.0,-590.0,4.0,125,116,53,76,74
2025-02-26 15:25:15.051,4959.0,1060.0,4627.0,325.0,-510.0,32.0,126,116,51,77,74
2025-02-26 15:25:15.059,4372.0,979.0,5134.0,277.0,-371.0,37.0,129,116,53,77,73
2025-02-26 15:25:15.062,3942.0,1103.0,5470.0,165.0,-217.0,60.0,129,118,53,78,74
2025-02-26 15:25:15.067,3784.0,1276.0,5248.0,36.0,-75.0,85.0,130,116,54,77,74
2025-02-26 15:25:15.071,3511.0,1096.0,5146.0,-21.0,60.0,103.0,131,118,53,77,74
2025-02-26 15:25:15.079,3324.0,875.0,4743.0,-110.0,120.0,120.0,129,111,53,78,75
2025-02-26 15:25:15.083,3041.0,810.0,4096.0,-191.0,228.0,127.0,130,119,53,77,75
2025-02-26 15:25:15.088,2628.0,750.0,3799.0,-255.0,308.0,139.0,131,116,54,78,74
2025-02-26 15:25:15.095,2264.0,627.0,3138.0,-280.0,364.0,147.0,130,121,53,80,74
2025-02-26 15:25:15.099,1964.0,459.0,2625.0,-319.0,385.0,150.0,129,117,54,79,74
2025-02-26 15:25:15.104,1842.0,343.0,2186.0,-342.0,418.0,154.0,130,114,54,78,74
2025-02-26 15:25:15.111,1698.0,252.0,1939.0,-350.0,442.0,158.0,131,117,54,80,74
2025-02-26 15:25:15.116,1534.0,87.0,1780.0,-355.0,459.0,167.0,132,117,56,80,76
2025-02-26 15:25:15.120,1387.0,32.0,1558.0,-352.0,468.0,179.0,131,116,54,80,75
2025-02-26 15:25:15.124,1330.0,-4.0,1375.0,-351.0,469.0,190.0,132,115,54,80,75
2025-02-26 15:25:15.133,1192.0,-15.0,1237.0,-356.0,475.0,199.0,132,117,55,80,75
2025-02-26 15:25:15.137,1037.0,0.0,1141.0,-357.0,471.0,210.0,134,115,55,82,78
2025-02-26 15:25:15.141,915.0,-59.0,1097.0,-359.0,472.0,226.0,133,116,57,81,78
2025-02-26 15:25:15.148,833.0,-136.0,988.0,-365.0,471.0,246.0,133,115,54,82,79
2025-02-26 15:25:15.153,787.0,-189.0,890.0,-367.0,470.0,257.0,131,116,57,82,80
2025-02-26 15:25:15.156,824.0,-273.0,874.0,-361.0,474.0,276.0,134,116,61,82,82
2025-02-26 15:25:15.161,790.0,-295.0,793.0,-355.0,478.0,287.0,134,118,59,84,84
2025-02-26 15:25:15.169,843.0,-253.0,858.0,-354.0,487.0,296.0,132,110,61,86,89
2025-02-26 15:25:15.173,876.0,1.0,672.0,-356.0,487.0,293.0,132,113,62,79,88
2025-02-26 15:25:15.177,659.0,110.0,623.0,-366.0,487.0,290.0,133,116,59,81,92
2025-02-26 15:25:15.181,546.0,106.0,532.0,-374.0,489.0,285.0,134,115,65,88,94
2025-02-26 15:25:15.188,399.0,197.0,387.0,-379.0,484.0,268.0,132,115,65,85,97
2025-02-26 15:25:15.193,329.0,31.0,528.0,-373.0,477.0,261.0,135,116,67,88,100
2025-02-26 15:25:15.198,273.0,33.0,508.0,-375.0,471.0,247.0,134,116,70,88,102
2025-02-26 15:25:15.202,303.0,-61.0,500.0,-371.0,480.0,245.0,134,114,73,84,105
2025-02-26 15:25:15.210,376.0,-108.0,392.0,-354.0,481.0,249.0,133,112,74,89,107
2025-02-26 15:25:15.214,364.0,-263.0,258.0,-336.0,473.0,248.0,134,112,76,89,108
2025-02-26 15:25:15.218,311.0,-256.0,133.0,-295.0,463.0,255.0,135,114,79,93,111
2025-02-26 15:25:15.226,217.0,-509.0,252.0,-257.0,465.0,273.0,131,114,83,95,112
2025-02-26 15:25:15.230,166.0,-532.0,137.0,-236.0,459.0,279.0,133,114,85,99,112
2025-02-26 15:25:15.235,110.0,-403.0,-178.0,-192.0,449.0,274.0,133,112,87,103,112
2025-02-26 15:25:15.243,-13.0,-426.0,-98.0,-157.0,423.0,275.0,133,112,88,103,113
2025-02-26 15:25:15.247,-226.0,-548.0,101.0,-110.0,415.0,271.0,131,112,87,103,114
2025-02-26 15:25:15.251,-287.0,-319.0,61.0,-58.0,404.0,263.0,133,111,90,107,114
2025-02-26 15:25:15.255,-248.0,-267.0,-19.0,-15.0,372.0,253.0,134,120,91,108,109
2025-02-26 15:25:15.263,-180.0,-145.0,-4.0,6.0,354.0,236.0,134,115,90,107,113
2025-02-26 15:25:15.267,-297.0,-87.0,-110.0,47.0,341.0,214.0,133,116,92,110,112
2025-02-26 15:25:15.272,-284.0,-18.0,-167.0,71.0,329.0,204.0,132,115,92,110,110
2025-02-26 15:25:15.279,-309.0,-169.0,-183.0,71.0,309.0,184.0,134,115,93,110,110
2025-02-26 15:25:15.284,-295.0,-261.0,-202.0,70.0,299.0,167.0,136,115,93,109,111
2025-02-26 15:25:15.289,-337.0,-252.0,-241.0,72.0,296.0,150.0,133,113,90,109,110
2025-02-26 15:25:15.295,-365.0,-159.0,-372.0,81.0,290.0,141.0,133,113,94,112,112
2025-02-26 15:25:15.300,-442.0,-45.0,-366.0,97.0,272.0,138.0,132,114,93,111,110
2025-02-26 15:25:15.305,-497.0,28.0,-399.0,99.0,252.0,135.0,133,110,93,110,111
2025-02-26 15:25:15.307,-570.0,117.0,-388.0,82.0,224.0,131.0,134,110,95,113,110
2025-02-26 15:25:15.316,-611.0,271.0,-327.0,69.0,197.0,122.0,135,112,94,113,110
2025-02-26 15:25:15.320,-617.0,260.0,-424.0,66.0,179.0,123.0,132,109,94,111,110
2025-02-26 15:25:15.325,-655.0,229.0,-279.0,35.0,156.0,122.0,132,111,93,112,110
2025-02-26 15:25:15.332,-527.0,293.0,-352.0,32.0,138.0,118.0,130,114,94,112,110
2025-02-26 15:25:15.337,-469.0,300.0,-306.0,33.0,130.0,109.0,131,114,93,114,111
2025-02-26 15:25:15.341,-578.0,377.0,-404.0,47.0,118.0,98.0,129,116,93,116,111
2025-02-26 15:25:15.349,-647.0,474.0,-384.0,61.0,118.0,85.0,127,113,93,111,109
2025-02-26 15:25:15.354,-723.0,510.0,-614.0,84.0,110.0,80.0,127,113,94,112,110
2025-02-26 15:25:15.356,-719.0,504.0,-671.0,94.0,90.0,75.0,129,115,95,113,112
2025-02-26 15:25:15.363,-784.0,668.0,-656.0,105.0,65.0,72.0,129,116,96,113,112
2025-02-26 15:25:15.370,-776.0,802.0,-739.0,122.0,45.0,64.0,128,116,93,112,111
2025-02-26 15:25:15.374,-658.0,797.0,-841.0,131.0,29.0,55.0,128,114,95,112,112
2025-02-26 15:25:15.378,-646.0,985.0,-1002.0,139.0,-1.0,37.0,127,115,97,114,112
2025-02-26 15:25:15.382,-686.0,1250.0,-1155.0,143.0,-32.0,8.0,127,116,96,115,112
2025-02-26 15:25:15.390,-806.0,1479.0,-1276.0,139.0,-68.0,-30.0,126,117,97,114,113
2025-02-26 15:25:15.395,-904.0,1801.0,-1522.0,122.0,-89.0,-82.0,126,116,95,115,113
2025-02-26 15:25:15.402,-939.0,1940.0,-1853.0,107.0,-153.0,-147.0,127,115,96,115,113
2025-02-26 15:25:15.407,-956.0,2038.0,-1885.0,75.0,-222.0,-226.0,126,116,94,112,113
2025-02-26 15:25:15.411,-1055.0,2141.0,-1957.0,51.0,-298.0,-269.0,126,117,96,113,114
2025-02-26 15:25:15.419,-1131.0,2214.0,-2077.0,30.0,-391.0,-354.0,127,119,95,114,115
2025-02-26 15:25:15.423,-1129.0,2185.0,-2034.0,4.0,-478.0,-441.0,129,118,97,114,115
2025-02-26 15:25:15.431,-1125.0,2189.0,-1874.0,-32.0,-549.0,-533.0,129,117,97,114,116
2025-02-26 15:25:15.435,-954.0,2210.0,-1777.0,-66.0,-608.0,-625.0,128,116,98,115,119
2025-02-26 15:25:15.440,-668.0,2170.0,-1700.0,-98.0,-662.0,-715.0,130,120,97,113,120
2025-02-26 15:25:15.447,-323.0,2146.0,-1521.0,-135.0,-706.0,-799.0,130,119,98,114,120
2025-02-26 15:25:15.452,210.0,2183.0,-1366.0,-168.0,-749.0,-870.0,130,119,98,113,121
2025-02-26 15:25:15.460,975.0,2137.0,-1506.0,-223.0,-814.0,-910.0,134,125,98,118,124
2025-02-26 15:25:15.464,1868.0,1929.0,-1785.0,-247.0,-917.0,-903.0,129,123,102,115,121
2025-02-26 15:25:15.472,3215.0,1404.0,-1633.0,-326.0,-1011.0,-880.0,128,119,102,115,119
2025-02-26 15:25:15.476,4686.0,147.0,-1523.0,-514.0,-1150.0,-838.0,131,123,105,119,120
2025-02-26 15:25:15.477,6113.0,-696.0,-315.0,-629.0,-1230.0,-766.0,130,121,105,119,119
2025-02-26 15:25:15.489,6828.0,-1787.0,-267.0,-521.0,-1165.0,-632.0,131,122,106,118,118
2025-02-26 15:25:15.489,6786.0,-3732.0,-288.0,-551.0,-1044.0,-484.0,130,124,108,120,117
2025-02-26 15:25:15.501,5796.0,-5529.0,56.0,-573.0,-872.0,-332.0,127,124,107,121,118
2025-02-26 15:25:15.505,4613.0,-6086.0,458.0,-437.0,-566.0,-196.0,127,124,112,122,120
2025-02-26 15:25:15.513,4006.0,-6700.0,431.0,-343.0,-244.0,-60.0,127,124,109,122,119
