timestamp,ax,ay,az,gx,gy,gz,flex1,flex2,flex3,flex4,flex5,emg1,emg2,emg3
2025-02-26 15:18:42.057,-412.0,77.0,934.0,-2.0,-2.0,-1.0,145,122,114,134,122
2025-02-26 15:18:42.057,-417.0,81.0,932.0,-2.0,-2.0,0.0,142,122,114,134,122
2025-02-26 15:18:42.075,-414.0,78.0,931.0,-2.0,-2.0,-1.0,143,120,114,132,120
2025-02-26 15:18:42.080,-419.0,77.0,957.0,-1.0,-2.0,-1.0,143,123,113,132,121
2025-02-26 15:18:42.083,-414.0,77.0,927.0,-2.0,-2.0,-1.0,144,123,116,134,122
2025-02-26 15:18:42.086,-406.0,79.0,949.0,0.0,-2.0,-1.0,144,121,112,131,120
2025-02-26 15:18:42.091,-415.0,79.0,937.0,-1.0,-2.0,-1.0,144,121,114,133,122
2025-02-26 15:18:42.091,-408.0,82.0,934.0,-2.0,-2.0,-1.0,143,122,114,132,121
2025-02-26 15:18:42.096,-410.0,79.0,942.0,-2.0,-1.0,-1.0,143,122,114,133,121
2025-02-26 15:18:42.099,-408.0,78.0,933.0,-2.0,-1.0,-1.0,144,123,115,134,121
2025-02-26 15:18:42.102,-405.0,79.0,943.0,-1.0,-2.0,-1.0,143,121,113,134,121
2025-02-26 15:18:42.104,-411.0,80.0,943.0,-1.0,-2.0,-1.0,144,121,113,131,121
2025-02-26 15:18:42.109,-408.0,77.0,938.0,-1.0,-2.0,-1.0,145,124,116,135,123
2025-02-26 15:18:42.112,-406.0,80.0,942.0,-1.0,-2.0,-1.0,143,122,113,132,121
2025-02-26 15:18:42.113,-409.0,79.0,946.0,-1.0,-2.0,-1.0,141,120,114,132,119
2025-02-26 15:18:42.113,-407.0,77.0,946.0,-1.0,-2.0,-1.0,144,121,116,134,121
2025-02-26 15:18:42.119,-404.0,77.0,942.0,-1.0,-2.0,-1.0,145,123,114,134,122
2025-02-26 15:18:42.123,-404.0,75.0,946.0,-1.0,-2.0,-1.0,143,121,112,132,120
2025-02-26 15:18:42.125,-401.0,77.0,932.0,-1.0,-2.0,0.0,142,122,114,133,122
2025-02-26 15:18:42.125,-407.0,71.0,938.0,-1.0,-2.0,0.0,143,122,114,133,122
2025-02-26 15:18:42.129,-401.0,75.0,951.0,1.0,-1.0,-1.0,145,123,116,135,122
2025-02-26 15:18:42.131,-402.0,75.0,943.0,0.0,-1.0,0.0,145,123,115,134,122
2025-02-26 15:18:42.131,-405.0,75.0,952.0,0.0,-2.0,0.0,143,120,112,132,120
2025-02-26 15:18:42.131,-399.0,77.0,940.0,-1.0,-2.0,0.0,142,120,113,131,119
2025-02-26 15:18:42.139,-402.0,82.0,946.0,-2.0,-2.0,0.0,145,123,116,134,122
2025-02-26 15:18:42.142,-401.0,85.0,954.0,-2.0,-2.0,0.0,143,119,113,133,121
2025-02-26 15:18:42.143,-408.0,83.0,944.0,-3.0,-2.0,0.0,143,121,114,133,120
2025-02-26 15:18:42.143,-401.0,82.0,946.0,-3.0,-2.0,0.0,144,123,114,133,121
2025-02-26 15:18:42.149,-402.0,81.0,943.0,-4.0,-2.0,0.0,142,120,113,133,120
2025-02-26 15:18:42.151,-402.0,80.0,943.0,-4.0,-2.0,0.0,145,123,114,134,123
2025-02-26 15:18:42.153,-401.0,79.0,945.0,-3.0,-2.0,0.0,143,121,114,134,121
2025-02-26 15:18:42.155,-398.0,76.0,944.0,-3.0,-2.0,0.0,142,120,113,128,120
2025-02-26 15:18:42.158,-408.0,73.0,946.0,-3.0,-2.0,0.0,143,123,114,133,122
2025-02-26 15:18:42.161,-402.0,73.0,947.0,-3.0,-2.0,0.0,144,125,113,134,119
2025-02-26 15:18:42.162,-401.0,74.0,945.0,-2.0,-2.0,0.0,142,120,114,133,120
2025-02-26 15:18:42.166,-395.0,73.0,949.0,0.0,-2.0,0.0,145,122,113,134,121
2025-02-26 15:18:42.167,-397.0,76.0,948.0,0.0,-1.0,0.0,143,121,114,133,121
2025-02-26 15:18:42.171,-399.0,78.0,946.0,0.0,-2.0,0.0,145,122,113,133,122
2025-02-26 15:18:42.173,-396.0,83.0,949.0,1.0,-1.0,0.0,144,122,114,133,121
2025-02-26 15:18:42.174,-397.0,90.0,952.0,1.0,-1.0,0.0,143,121,115,132,119
2025-02-26 15:18:42.177,-399.0,90.0,952.0,1.0,-1.0,0.0,141,121,112,130,119
2025-02-26 15:18:42.178,-401.0,89.0,953.0,0.0,-1.0,0.0,144,124,114,133,122
2025-02-26 15:18:42.182,-397.0,94.0,955.0,0.0,-2.0,0.0,140,120,113,132,121
2025-02-26 15:18:42.184,-396.0,94.0,951.0,-1.0,-2.0,0.0,144,121,115,133,122
2025-02-26 15:18:42.185,-402.0,91.0,947.0,-2.0,-2.0,0.0,143,121,115,134,121
2025-02-26 15:18:42.189,-402.0,98.0,947.0,-3.0,-2.0,0.0,144,121,114,133,120
2025-02-26 15:18:42.191,-401.0,97.0,947.0,-3.0,-2.0,0.0,143,122,115,134,122
2025-02-26 15:18:42.193,-401.0,87.0,947.0,-3.0,-2.0,0.0,145,122,114,133,121
2025-02-26 15:18:42.197,-399.0,81.0,943.0,-3.0,-2.0,0.0,141,120,113,131,120
2025-02-26 15:18:42.198,-405.0,83.0,943.0,-2.0,-1.0,0.0,147,124,114,136,122
2025-02-26 15:18:42.203,-400.0,81.0,946.0,-1.0,-1.0,0.0,143,122,113,133,121
2025-02-26 15:18:42.204,-401.0,82.0,947.0,0.0,-1.0,0.0,142,119,112,131,121
2025-02-26 15:18:42.209,-397.0,81.0,947.0,1.0,-1.0,0.0,143,121,114,134,121
2025-02-26 15:18:42.215,-400.0,86.0,948.0,2.0,0.0,0.0,145,124,114,134,122
2025-02-26 15:18:42.219,-411.0,86.0,942.0,3.0,0.0,0.0,142,120,114,132,120
2025-02-26 15:18:42.222,-410.0,94.0,939.0,2.0,0.0,0.0,144,121,114,133,121
2025-02-26 15:18:42.227,-411.0,105.0,938.0,3.0,-1.0,0.0,143,120,112,133,121
2025-02-26 15:18:42.234,-408.0,107.0,941.0,2.0,-1.0,0.0,147,123,114,134,123
2025-02-26 15:18:42.234,-412.0,109.0,934.0,1.0,-1.0,0.0,143,122,115,134,122
2025-02-26 15:18:42.243,-414.0,112.0,936.0,0.0,-1.0,-1.0,145,120,113,133,120
2025-02-26 15:18:42.246,-409.0,108.0,938.0,-1.0,-2.0,-1.0,144,122,114,134,121
2025-02-26 15:18:42.246,-411.0,112.0,936.0,-1.0,-2.0,-1.0,144,122,115,135,123
2025-02-26 15:18:42.258,-408.0,107.0,934.0,-2.0,-2.0,-1.0,142,122,115,133,121
2025-02-26 15:18:42.264,-405.0,109.0,934.0,-3.0,-2.0,-1.0,142,123,115,133,122
2025-02-26 15:18:42.268,-408.0,95.0,939.0,-3.0,-2.0,-1.0,141,122,115,134,122
2025-02-26 15:18:42.270,-406.0,93.0,936.0,-3.0,-2.0,-2.0,146,123,115,134,122
2025-02-26 15:18:42.270,-399.0,86.0,937.0,-1.0,-2.0,-2.0,142,122,114,134,121
2025-02-26 15:18:42.283,-406.0,84.0,937.0,0.0,-2.0,-2.0,144,123,115,134,121
2025-02-26 15:18:42.289,-408.0,85.0,940.0,0.0,-2.0,-2.0,144,122,114,133,121
2025-02-26 15:18:42.293,-410.0,82.0,939.0,1.0,-2.0,-2.0,145,123,115,134,122
2025-02-26 15:18:42.294,-415.0,82.0,940.0,2.0,-2.0,-2.0,148,123,114,134,121
2025-02-26 15:18:42.304,-412.0,91.0,950.0,2.0,-2.0,-2.0,142,122,113,134,122
2025-02-26 15:18:42.307,-404.0,91.0,951.0,2.0,-2.0,-2.0,141,120,112,133,120
2025-02-26 15:18:42.313,-408.0,94.0,952.0,1.0,-3.0,-2.0,143,122,115,134,121
2025-02-26 15:18:42.317,-405.0,94.0,954.0,1.0,-2.0,-2.0,144,121,114,134,121
2025-02-26 15:18:42.325,-407.0,94.0,955.0,0.0,-2.0,-2.0,141,121,112,132,120
2025-02-26 15:18:42.329,-405.0,90.0,955.0,-1.0,-2.0,-2.0,142,121,114,134,121
2025-02-26 15:18:42.334,-403.0,89.0,961.0,-2.0,-1.0,-2.0,143,122,114,133,122
2025-02-26 15:18:42.336,-405.0,85.0,955.0,-2.0,-1.0,-3.0,143,122,112,131,121
2025-02-26 15:18:42.344,-404.0,83.0,952.0,-2.0,-1.0,-3.0,142,119,111,131,120
2025-02-26 15:18:42.344,-404.0,77.0,953.0,-2.0,-1.0,-2.0,146,122,114,134,121
2025-02-26 15:18:42.344,-399.0,78.0,952.0,-2.0,-1.0,-2.0,145,122,115,135,123
2025-02-26 15:18:42.358,-404.0,73.0,954.0,-1.0,-1.0,-2.0,143,121,112,131,121
2025-02-26 15:18:42.363,-403.0,73.0,955.0,0.0,0.0,-2.0,145,122,114,134,121
2025-02-26 15:18:42.369,-403.0,86.0,947.0,0.0,-1.0,-2.0,144,122,114,132,121
2025-02-26 15:18:42.373,-401.0,79.0,959.0,0.0,-1.0,-2.0,144,120,111,132,121
2025-02-26 15:18:42.378,-401.0,78.0,954.0,0.0,-1.0,-2.0,145,122,114,134,121
2025-02-26 15:18:42.383,-397.0,86.0,957.0,0.0,-1.0,-3.0,144,122,114,134,120
2025-02-26 15:18:42.385,-400.0,82.0,954.0,0.0,-1.0,-2.0,142,120,112,133,120
2025-02-26 15:18:42.394,-393.0,87.0,971.0,0.0,-1.0,-2.0,146,121,113,133,122
2025-02-26 15:18:42.397,-396.0,90.0,954.0,-1.0,-1.0,-2.0,144,122,116,135,122
2025-02-26 15:18:42.404,-390.0,91.0,960.0,-1.0,0.0,-2.0,142,120,115,133,121
2025-02-26 15:18:42.407,-390.0,90.0,964.0,-1.0,0.0,-3.0,143,120,113,131,119
2025-02-26 15:18:42.407,-396.0,93.0,959.0,-1.0,0.0,-3.0,143,121,114,134,115
2025-02-26 15:18:42.419,-395.0,101.0,961.0,-1.0,0.0,-3.0,144,119,113,135,121
2025-02-26 15:18:42.424,-398.0,97.0,961.0,-2.0,0.0,-3.0,142,120,113,132,121
2025-02-26 15:18:42.424,-399.0,98.0,954.0,-3.0,0.0,-3.0,143,121,114,134,121
2025-02-26 15:18:42.436,-401.0,102.0,955.0,-3.0,0.0,-3.0,143,121,114,134,122
2025-02-26 15:18:42.440,-395.0,104.0,955.0,-3.0,0.0,-4.0,143,120,112,133,120
2025-02-26 15:18:42.444,-398.0,104.0,955.0,-4.0,0.0,-4.0,142,121,114,135,121
2025-02-26 15:18:42.448,-399.0,107.0,947.0,-4.0,0.0,-4.0,144,121,114,135,121
2025-02-26 15:18:42.452,-398.0,107.0,943.0,-5.0,0.0,-4.0,147,120,115,130,120
2025-02-26 15:18:42.460,-400.0,104.0,940.0,-5.0,0.0,-4.0,144,120,113,133,120
2025-02-26 15:18:42.462,-399.0,99.0,939.0,-5.0,0.0,-4.0,143,121,114,134,121
2025-02-26 15:18:42.462,-401.0,94.0,936.0,-4.0,0.0,-4.0,143,122,113,133,120
2025-02-26 15:18:42.473,-403.0,85.0,929.0,-3.0,0.0,-4.0,143,121,113,133,120
2025-02-26 15:18:42.479,-398.0,84.0,933.0,-2.0,0.0,-5.0,144,124,114,135,121
2025-02-26 15:18:42.485,-405.0,81.0,927.0,-2.0,0.0,-5.0,145,123,115,134,121
2025-02-26 15:18:42.489,-403.0,86.0,922.0,-1.0,0.0,-4.0,142,120,113,131,120
2025-02-26 15:18:42.494,-405.0,80.0,936.0,0.0,0.0,-5.0,142,121,114,134,121
2025-02-26 15:18:42.498,-404.0,79.0,935.0,0.0,0.0,-5.0,144,122,114,134,122
2025-02-26 15:18:42.505,-401.0,78.0,936.0,1.0,0.0,-5.0,143,122,114,133,120
2025-02-26 15:18:42.510,-398.0,81.0,935.0,1.0,0.0,-5.0,144,122,116,133,122
2025-02-26 15:18:42.514,-398.0,79.0,937.0,1.0,0.0,-5.0,146,122,114,134,120
2025-02-26 15:18:42.518,-398.0,77.0,940.0,0.0,0.0,-5.0,143,122,116,133,121
2025-02-26 15:18:42.522,-397.0,74.0,937.0,0.0,1.0,-4.0,146,123,116,134,122
2025-02-26 15:18:42.529,-398.0,74.0,941.0,-1.0,1.0,-4.0,143,120,113,133,120
2025-02-26 15:18:42.534,-394.0,72.0,938.0,-1.0,1.0,-4.0,142,120,112,133,119
2025-02-26 15:18:42.539,-396.0,72.0,941.0,-1.0,0.0,-4.0,141,122,116,136,123
2025-02-26 15:18:42.543,-394.0,67.0,941.0,-1.0,0.0,-4.0,143,121,114,133,121
2025-02-26 15:18:42.547,-401.0,65.0,939.0,-2.0,0.0,-4.0,140,121,113,133,121
2025-02-26 15:18:42.554,-394.0,62.0,937.0,-2.0,1.0,-3.0,146,122,114,132,121
2025-02-26 15:18:42.559,-397.0,58.0,942.0,-2.0,1.0,-3.0,143,122,121,135,122
2025-02-26 15:18:42.563,-400.0,56.0,940.0,-3.0,1.0,-3.0,142,120,113,134,121
2025-02-26 15:18:42.567,-397.0,56.0,937.0,-3.0,2.0,-2.0,141,121,115,133,121
2025-02-26 15:18:42.571,-397.0,56.0,933.0,-3.0,2.0,-2.0,144,120,113,134,121
2025-02-26 15:18:42.579,-397.0,61.0,930.0,-3.0,2.0,-2.0,142,115,113,134,119
2025-02-26 15:18:42.584,-402.0,63.0,922.0,-4.0,2.0,-2.0,143,121,114,135,122
2025-02-26 15:18:42.588,-410.0,63.0,918.0,-4.0,2.0,-2.0,135,121,114,134,121
2025-02-26 15:18:42.592,-412.0,67.0,913.0,-4.0,2.0,-2.0,144,121,112,132,119
2025-02-26 15:18:42.599,-411.0,69.0,906.0,-4.0,2.0,-1.0,145,122,114,134,122
2025-02-26 15:18:42.603,-415.0,67.0,908.0,-5.0,2.0,-2.0,146,121,115,134,122
2025-02-26 15:18:42.608,-417.0,61.0,907.0,-5.0,1.0,-1.0,138,121,112,128,121
2025-02-26 15:18:42.613,-418.0,61.0,898.0,-5.0,1.0,-1.0,143,123,114,134,122
2025-02-26 15:18:42.616,-424.0,62.0,898.0,-5.0,0.0,-1.0,146,124,113,133,122
2025-02-26 15:18:42.624,-422.0,56.0,894.0,-6.0,0.0,-1.0,142,120,113,133,120
2025-02-26 15:18:42.628,-417.0,57.0,895.0,-5.0,-1.0,-1.0,143,119,112,132,121
2025-02-26 15:18:42.633,-423.0,53.0,906.0,-5.0,-1.0,-1.0,144,122,114,132,121
2025-02-26 15:18:42.637,-416.0,54.0,910.0,-4.0,-2.0,-1.0,147,124,116,135,123
2025-02-26 15:18:42.644,-418.0,50.0,905.0,-3.0,-2.0,0.0,143,120,114,132,120
2025-02-26 15:18:42.649,-418.0,48.0,902.0,-3.0,-2.0,0.0,143,121,114,134,122
2025-02-26 15:18:42.653,-419.0,47.0,909.0,-2.0,-2.0,0.0,142,121,115,133,121
2025-02-26 15:18:42.658,-417.0,52.0,905.0,-1.0,-3.0,0.0,143,120,113,133,119
2025-02-26 15:18:42.662,-414.0,51.0,919.0,1.0,-3.0,0.0,144,123,114,132,123
2025-02-26 15:18:42.669,-420.0,55.0,916.0,1.0,-3.0,0.0,142,122,113,133,121
2025-02-26 15:18:42.673,-412.0,59.0,928.0,1.0,-3.0,0.0,143,118,111,132,120
2025-02-26 15:18:42.678,-414.0,63.0,926.0,1.0,-3.0,0.0,147,124,116,133,121
2025-02-26 15:18:42.682,-415.0,65.0,926.0,0.0,-4.0,0.0,145,121,113,134,121
2025-02-26 15:18:42.686,-412.0,65.0,933.0,0.0,-4.0,0.0,144,121,111,133,120
2025-02-26 15:18:42.694,-411.0,75.0,934.0,-1.0,-4.0,0.0,144,123,115,136,121
2025-02-26 15:18:42.698,-413.0,73.0,932.0,-2.0,-5.0,0.0,145,123,115,134,122
2025-02-26 15:18:42.703,-409.0,74.0,944.0,-2.0,-5.0,0.0,142,120,114,133,119
2025-02-26 15:18:42.707,-408.0,75.0,949.0,-3.0,-5.0,0.0,144,121,115,134,121
2025-02-26 15:18:42.710,-403.0,78.0,949.0,-3.0,-5.0,0.0,145,121,113,133,120
2025-02-26 15:18:42.718,-404.0,61.0,953.0,-3.0,-4.0,0.0,142,120,114,133,120
2025-02-26 15:18:42.723,-401.0,65.0,958.0,-1.0,-4.0,0.0,143,123,116,135,122
2025-02-26 15:18:42.727,-399.0,69.0,958.0,-2.0,-4.0,1.0,144,121,113,134,121
2025-02-26 15:18:42.731,-399.0,58.0,955.0,0.0,-4.0,1.0,142,120,112,132,120
2025-02-26 15:18:42.736,-401.0,57.0,965.0,0.0,-4.0,1.0,144,123,116,135,123
2025-02-26 15:18:42.743,-400.0,64.0,962.0,1.0,-3.0,1.0,143,122,115,133,122
2025-02-26 15:18:42.747,-392.0,69.0,968.0,2.0,-3.0,1.0,142,121,114,133,120
2025-02-26 15:18:42.752,-404.0,74.0,967.0,2.0,-3.0,1.0,144,122,115,133,122
2025-02-26 15:18:42.756,-401.0,78.0,969.0,2.0,-2.0,1.0,146,124,116,134,122
2025-02-26 15:18:42.760,-397.0,87.0,970.0,1.0,-2.0,1.0,143,121,112,132,121
2025-02-26 15:18:42.768,-399.0,88.0,973.0,0.0,-2.0,1.0,142,122,115,131,125
2025-02-26 15:18:42.772,-396.0,88.0,969.0,-1.0,-2.0,1.0,142,121,114,132,121
2025-02-26 15:18:42.776,-398.0,89.0,970.0,-2.0,-1.0,0.0,144,122,116,133,121
2025-02-26 15:18:42.780,-401.0,87.0,965.0,-2.0,-1.0,0.0,144,123,114,134,121
2025-02-26 15:18:42.784,-403.0,84.0,963.0,-2.0,-1.0,0.0,142,121,115,134,122
2025-02-26 15:18:42.792,-404.0,88.0,963.0,-2.0,-1.0,0.0,142,120,112,132,120
2025-02-26 15:18:42.796,-402.0,83.0,964.0,-2.0,0.0,0.0,146,124,116,134,123
2025-02-26 15:18:42.800,-399.0,84.0,965.0,-2.0,0.0,0.0,144,123,114,133,121
2025-02-26 15:18:42.805,-400.0,85.0,962.0,-2.0,0.0,0.0,144,120,113,132,120
2025-02-26 15:18:42.806,-399.0,91.0,964.0,-1.0,0.0,0.0,144,122,113,136,123
2025-02-26 15:18:42.816,-397.0,92.0,964.0,-2.0,0.0,0.0,146,123,115,134,123
2025-02-26 15:18:42.821,-396.0,92.0,954.0,-3.0,1.0,-1.0,144,122,114,132,121
2025-02-26 15:18:42.825,-397.0,90.0,957.0,-3.0,1.0,-1.0,144,122,114,133,121
2025-02-26 15:18:42.829,-392.0,94.0,955.0,-3.0,1.0,-1.0,142,122,114,132,122
2025-02-26 15:18:42.830,-395.0,92.0,953.0,-3.0,1.0,-1.0,146,122,114,134,121
2025-02-26 15:18:42.841,-394.0,85.0,955.0,-4.0,1.0,-1.0,144,123,116,135,122
2025-02-26 15:18:42.846,-396.0,82.0,950.0,-3.0,1.0,-1.0,142,121,113,131,121
2025-02-26 15:18:42.850,-397.0,81.0,947.0,-3.0,1.0,-1.0,143,119,112,134,120
2025-02-26 15:18:42.854,-398.0,79.0,942.0,-2.0,1.0,-1.0,146,123,119,138,121
2025-02-26 15:18:42.862,-396.0,81.0,940.0,-2.0,0.0,-1.0,146,121,113,133,122
2025-02-26 15:18:42.866,-403.0,87.0,936.0,-2.0,0.0,-1.0,146,121,113,133,119
2025-02-26 15:18:42.870,-401.0,80.0,938.0,-2.0,0.0,-1.0,144,122,114,134,121
2025-02-26 15:18:42.875,-400.0,83.0,933.0,-2.0,0.0,-2.0,145,123,115,136,121
2025-02-26 15:18:42.879,-401.0,85.0,934.0,-2.0,-1.0,-1.0,142,120,115,132,121
2025-02-26 15:18:42.886,-394.0,87.0,934.0,-2.0,-1.0,-2.0,142,120,113,133,121
2025-02-26 15:18:42.891,-398.0,89.0,937.0,-3.0,0.0,-2.0,141,121,115,134,122
2025-02-26 15:18:42.895,-400.0,83.0,934.0,-3.0,0.0,-2.0,143,121,114,132,121
2025-02-26 15:18:42.899,-399.0,84.0,934.0,-3.0,0.0,-2.0,142,120,115,133,120
2025-02-26 15:18:42.907,-396.0,82.0,934.0,-3.0,-1.0,-2.0,142,121,115,134,122
2025-02-26 15:18:42.911,-393.0,83.0,935.0,-3.0,-1.0,-2.0,146,123,116,135,120
2025-02-26 15:18:42.915,-397.0,82.0,934.0,-3.0,-1.0,-1.0,144,120,114,132,119
2025-02-26 15:18:42.919,-395.0,84.0,930.0,-3.0,-1.0,-1.0,145,122,114,134,122
2025-02-26 15:18:42.924,-396.0,80.0,936.0,-3.0,-1.0,-2.0,142,122,114,134,123
2025-02-26 15:18:42.932,-404.0,78.0,928.0,-2.0,-1.0,-1.0,142,119,113,132,120
2025-02-26 15:18:42.936,-405.0,76.0,928.0,-2.0,-1.0,-2.0,141,120,114,133,120
2025-02-26 15:18:42.940,-405.0,77.0,925.0,-1.0,-1.0,-1.0,145,122,114,137,122
2025-02-26 15:18:42.944,-407.0,75.0,923.0,0.0,-2.0,-1.0,142,121,115,134,122
2025-02-26 15:18:42.952,-406.0,81.0,925.0,0.0,-2.0,-1.0,143,120,114,134,121
2025-02-26 15:18:42.956,-408.0,85.0,927.0,0.0,-3.0,-1.0,142,122,116,135,123
2025-02-26 15:18:42.961,-410.0,88.0,928.0,0.0,-3.0,-1.0,144,121,113,133,121
2025-02-26 15:18:42.965,-412.0,85.0,927.0,0.0,-3.0,-1.0,143,119,112,132,120
2025-02-26 15:18:42.965,-411.0,89.0,934.0,0.0,-3.0,-1.0,144,122,113,134,121
2025-02-26 15:18:42.977,-410.0,89.0,935.0,-1.0,-3.0,-1.0,143,121,113,134,121
2025-02-26 15:18:42.978,-412.0,91.0,937.0,-1.0,-3.0,-1.0,142,121,114,134,122
2025-02-26 15:18:42.985,-407.0,84.0,935.0,-2.0,-4.0,-2.0,144,122,114,133,121
2025-02-26 15:18:42.989,-405.0,84.0,940.0,-2.0,-3.0,-2.0,144,120,114,135,121
2025-02-26 15:18:42.997,-405.0,77.0,943.0,-1.0,-3.0,-2.0,142,121,114,132,118
2025-02-26 15:18:42.998,-410.0,65.0,949.0,-1.0,-3.0,-1.0,143,120,113,133,121
2025-02-26 15:18:42.998,-409.0,66.0,947.0,0.0,-3.0,-1.0,145,121,114,133,121
2025-02-26 15:18:43.010,-398.0,66.0,950.0,1.0,-3.0,-1.0,144,122,114,133,122
2025-02-26 15:18:43.016,-410.0,82.0,963.0,0.0,-2.0,-1.0,144,120,114,133,120
2025-02-26 15:18:43.021,-409.0,76.0,946.0,1.0,-3.0,-1.0,145,121,113,133,122
2025-02-26 15:18:43.024,-404.0,79.0,961.0,2.0,-3.0,-1.0,144,121,114,133,120
2025-02-26 15:18:43.030,-404.0,95.0,947.0,0.0,-3.0,-2.0,142,121,114,133,120
2025-02-26 15:18:43.034,-401.0,90.0,952.0,-1.0,-4.0,-1.0,143,122,114,133,121
2025-02-26 15:18:43.042,-401.0,90.0,960.0,-1.0,-4.0,-2.0,144,122,115,133,121
2025-02-26 15:18:43.044,-407.0,92.0,958.0,-2.0,-5.0,-2.0,143,120,112,132,120
2025-02-26 15:18:43.044,-401.0,85.0,947.0,-4.0,-4.0,-2.0,142,121,113,132,119
2025-02-26 15:18:43.054,-399.0,83.0,961.0,-2.0,-4.0,-2.0,144,122,115,134,122
2025-02-26 15:18:43.062,-401.0,69.0,951.0,-3.0,-4.0,-2.0,144,121,114,134,121
2025-02-26 15:18:43.067,-393.0,61.0,947.0,-2.0,-4.0,-2.0,143,121,114,134,120
2025-02-26 15:18:43.071,-396.0,62.0,951.0,-1.0,-3.0,-2.0,145,122,113,134,121
2025-02-26 15:18:43.075,-403.0,50.0,923.0,-1.0,-3.0,-2.0,144,122,114,135,123
2025-02-26 15:18:43.080,-405.0,54.0,946.0,1.0,-3.0,-2.0,143,121,114,133,120
2025-02-26 15:18:43.087,-404.0,46.0,929.0,4.0,-3.0,-1.0,143,122,115,135,122
2025-02-26 15:18:43.092,-401.0,62.0,941.0,7.0,-3.0,-1.0,143,121,114,133,121
2025-02-26 15:18:43.095,-416.0,51.0,913.0,5.0,-4.0,-1.0,144,123,114,134,121
2025-02-26 15:18:43.098,-397.0,67.0,942.0,4.0,-4.0,-1.0,143,120,113,133,120
2025-02-26 15:18:43.107,-416.0,69.0,920.0,7.0,-5.0,-1.0,144,121,113,133,122
2025-02-26 15:18:43.112,-412.0,69.0,931.0,8.0,-6.0,-1.0,143,121,113,133,119
2025-02-26 15:18:43.116,-407.0,86.0,922.0,8.0,-4.0,-2.0,142,120,114,132,121
2025-02-26 15:18:43.121,-424.0,83.0,928.0,7.0,-5.0,-1.0,144,123,114,134,121
2025-02-26 15:18:43.125,-420.0,81.0,926.0,3.0,-6.0,-1.0,144,120,114,133,120
2025-02-26 15:18:43.132,-416.0,81.0,940.0,0.0,-6.0,-1.0,142,120,113,132,119
2025-02-26 15:18:43.133,-422.0,63.0,944.0,1.0,-7.0,-2.0,144,121,114,134,121
2025-02-26 15:18:43.140,-415.0,61.0,967.0,0.0,-5.0,-2.0,145,121,113,133,122
2025-02-26 15:18:43.145,-415.0,67.0,946.0,2.0,-6.0,-2.0,144,120,112,132,120
2025-02-26 15:18:43.149,-411.0,58.0,971.0,2.0,-5.0,-1.0,143,122,114,133,121
2025-02-26 15:18:43.157,-411.0,47.0,949.0,1.0,-4.0,-1.0,144,122,113,133,121
2025-02-26 15:18:43.161,-411.0,44.0,953.0,1.0,-4.0,-1.0,142,120,113,133,120
2025-02-26 15:18:43.165,-412.0,40.0,955.0,3.0,-4.0,-1.0,146,123,114,134,120
2025-02-26 15:18:43.169,-406.0,37.0,964.0,4.0,-3.0,0.0,143,122,112,134,121
2025-02-26 15:18:43.171,-404.0,43.0,963.0,5.0,-2.0,0.0,142,121,113,134,120
2025-02-26 15:18:43.180,-404.0,43.0,954.0,6.0,-3.0,0.0,143,125,116,133,122
2025-02-26 15:18:43.180,-405.0,58.0,964.0,5.0,-3.0,0.0,142,121,112,133,121
2025-02-26 15:18:43.190,-413.0,64.0,956.0,4.0,-3.0,0.0,143,120,112,132,120
2025-02-26 15:18:43.192,-405.0,64.0,968.0,1.0,-3.0,0.0,149,121,115,132,121
2025-02-26 15:18:43.198,-402.0,68.0,963.0,1.0,-3.0,0.0,143,122,115,136,122
2025-02-26 15:18:43.202,-404.0,71.0,973.0,-1.0,-3.0,0.0,143,121,113,131,120
2025-02-26 15:18:43.210,-400.0,69.0,969.0,-4.0,-3.0,0.0,145,115,115,133,121
2025-02-26 15:18:43.210,-394.0,62.0,976.0,-5.0,-2.0,0.0,143,121,114,133,121
2025-02-26 15:18:43.210,-384.0,57.0,967.0,-7.0,-1.0,0.0,144,119,114,132,121
2025-02-26 15:18:43.225,-384.0,52.0,965.0,-8.0,-1.0,0.0,144,121,115,134,121
2025-02-26 15:18:43.231,-379.0,47.0,964.0,-8.0,0.0,0.0,140,119,111,132,121
2025-02-26 15:18:43.231,-378.0,34.0,959.0,-8.0,1.0,1.0,142,120,113,132,119
2025-02-26 15:18:43.231,-373.0,33.0,961.0,-7.0,1.0,1.0,141,123,115,134,123
2025-02-26 15:18:43.241,-378.0,29.0,952.0,-6.0,1.0,2.0,144,121,114,131,121
2025-02-26 15:18:43.241,-376.0,36.0,958.0,-5.0,1.0,2.0,142,120,113,132,120
2025-02-26 15:18:43.241,-375.0,34.0,952.0,-3.0,2.0,2.0,143,120,114,134,121
2025-02-26 15:18:43.257,-372.0,48.0,952.0,-3.0,2.0,2.0,149,123,115,133,120
2025-02-26 15:18:43.257,-372.0,55.0,959.0,-3.0,2.0,3.0,141,121,112,132,120
2025-02-26 15:18:43.267,-375.0,58.0,952.0,-3.0,2.0,3.0,145,120,113,132,120
2025-02-26 15:18:43.272,-374.0,72.0,964.0,-5.0,2.0,3.0,141,121,114,132,119
2025-02-26 15:18:43.279,-379.0,71.0,940.0,-5.0,1.0,2.0,142,119,112,133,120
2025-02-26 15:18:43.284,-378.0,68.0,965.0,-7.0,1.0,2.0,144,125,116,135,122
2025-02-26 15:18:43.285,-391.0,59.0,948.0,-9.0,1.0,3.0,144,121,112,132,121
2025-02-26 15:18:43.292,-387.0,68.0,966.0,-9.0,1.0,3.0,144,121,114,132,119
2025-02-26 15:18:43.296,-381.0,75.0,949.0,-11.0,1.0,3.0,145,123,118,136,124
2025-02-26 15:18:43.304,-385.0,69.0,958.0,-9.0,1.0,3.0,144,123,116,135,122
2025-02-26 15:18:43.309,-384.0,58.0,947.0,-10.0,2.0,2.0,142,120,113,133,121
2025-02-26 15:18:43.313,-401.0,48.0,941.0,-8.0,1.0,3.0,143,120,115,131,120
2025-02-26 15:18:43.316,-394.0,58.0,948.0,-8.0,2.0,3.0,143,121,113,132,121
2025-02-26 15:18:43.321,-376.0,66.0,957.0,-8.0,2.0,3.0,142,119,111,132,119
2025-02-26 15:18:43.329,-376.0,57.0,971.0,-7.0,3.0,3.0,141,120,114,132,120
2025-02-26 15:18:43.333,-380.0,79.0,958.0,-9.0,5.0,4.0,142,119,111,131,120
2025-02-26 15:18:43.336,-367.0,78.0,940.0,-8.0,4.0,4.0,141,120,111,131,119
2025-02-26 15:18:43.342,-392.0,57.0,946.0,-8.0,5.0,5.0,150,126,119,138,125
2025-02-26 15:18:43.346,-375.0,88.0,964.0,-10.0,6.0,4.0,139,122,114,134,122
2025-02-26 15:18:43.352,-388.0,60.0,963.0,-7.0,5.0,4.0,143,121,113,135,120
2025-02-26 15:18:43.357,-386.0,73.0,958.0,-7.0,6.0,4.0,148,123,116,136,124
2025-02-26 15:18:43.362,-388.0,77.0,921.0,-6.0,4.0,4.0,144,121,113,132,121
2025-02-26 15:18:43.365,-377.0,92.0,921.0,-8.0,6.0,4.0,141,121,114,133,120
2025-02-26 15:18:43.370,-396.0,72.0,943.0,-6.0,5.0,5.0,145,124,116,135,121
2025-02-26 15:18:43.376,-397.0,83.0,929.0,-7.0,4.0,4.0,145,124,115,134,122
2025-02-26 15:18:43.382,-385.0,93.0,937.0,-6.0,3.0,5.0,144,121,114,131,119
2025-02-26 15:18:43.386,-398.0,83.0,932.0,-7.0,3.0,4.0,145,122,115,134,121
2025-02-26 15:18:43.388,-402.0,82.0,928.0,-7.0,2.0,4.0,143,121,113,133,120
2025-02-26 15:18:43.394,-392.0,85.0,931.0,-5.0,1.0,4.0,146,122,115,134,122
2025-02-26 15:18:43.402,-390.0,87.0,951.0,-6.0,1.0,4.0,144,122,115,134,121
2025-02-26 15:18:43.406,-396.0,83.0,934.0,-4.0,0.0,4.0,143,121,112,133,122
2025-02-26 15:18:43.411,-393.0,97.0,941.0,-4.0,0.0,4.0,143,122,114,134,121
2025-02-26 15:18:43.415,-391.0,103.0,949.0,-4.0,0.0,4.0,144,122,112,134,122
2025-02-26 15:18:43.418,-391.0,105.0,952.0,-3.0,0.0,4.0,144,121,112,133,120
2025-02-26 15:18:43.426,-394.0,100.0,943.0,-4.0,-1.0,4.0,144,122,114,132,120
2025-02-26 15:18:43.431,-394.0,119.0,953.0,-4.0,0.0,3.0,144,122,114,133,121
2025-02-26 15:18:43.436,-404.0,125.0,945.0,-3.0,0.0,3.0,143,119,114,132,119
2025-02-26 15:18:43.439,-402.0,111.0,961.0,-4.0,0.0,3.0,144,123,114,134,123
2025-02-26 15:18:43.444,-395.0,112.0,947.0,-2.0,0.0,2.0,141,123,116,132,122
2025-02-26 15:18:43.452,-390.0,107.0,929.0,-1.0,-1.0,2.0,144,120,112,132,120
2025-02-26 15:18:43.456,-405.0,82.0,950.0,-2.0,0.0,2.0,142,121,116,134,121
2025-02-26 15:18:43.460,-405.0,123.0,933.0,-1.0,0.0,1.0,135,121,114,139,122
2025-02-26 15:18:43.465,-403.0,109.0,940.0,0.0,0.0,1.0,143,121,114,133,121
2025-02-26 15:18:43.468,-400.0,102.0,942.0,-1.0,0.0,1.0,144,123,119,134,121
2025-02-26 15:18:43.474,-409.0,111.0,937.0,1.0,-1.0,0.0,144,122,115,134,122
2025-02-26 15:18:43.480,-412.0,109.0,939.0,1.0,-2.0,0.0,143,119,113,134,121
2025-02-26 15:18:43.485,-403.0,106.0,940.0,1.0,-2.0,-1.0,145,124,116,134,122
2025-02-26 15:18:43.489,-413.0,103.0,940.0,2.0,-2.0,-1.0,146,121,115,135,122
2025-02-26 15:18:43.497,-410.0,116.0,944.0,1.0,-2.0,-1.0,141,120,113,132,120
2025-02-26 15:18:43.501,-414.0,102.0,947.0,0.0,-2.0,-2.0,144,118,114,132,120
2025-02-26 15:18:43.505,-409.0,111.0,948.0,0.0,-3.0,-2.0,145,123,113,134,121
2025-02-26 15:18:43.509,-408.0,103.0,954.0,-1.0,-2.0,-2.0,144,121,108,134,121
2025-02-26 15:18:43.517,-405.0,91.0,945.0,0.0,-3.0,-2.0,144,122,112,133,120
2025-02-26 15:18:43.521,-406.0,97.0,936.0,-6.0,-2.0,-2.0,144,121,114,134,123
2025-02-26 15:18:43.525,-398.0,98.0,984.0,0.0,-3.0,-3.0,143,122,114,133,121
2025-02-26 15:18:43.527,-420.0,96.0,986.0,-1.0,-2.0,-3.0,140,120,112,136,119
2025-02-26 15:18:43.534,-412.0,90.0,971.0,2.0,-1.0,-3.0,141,118,112,132,120
2025-02-26 15:18:43.539,-395.0,90.0,947.0,1.0,-2.0,-3.0,144,121,114,133,121
2025-02-26 15:18:43.544,-403.0,66.0,951.0,1.0,-2.0,-3.0,145,120,112,131,119
2025-02-26 15:18:43.550,-396.0,77.0,951.0,1.0,-1.0,-3.0,142,119,111,130,114
2025-02-26 15:18:43.555,-388.0,68.0,970.0,1.0,-1.0,-3.0,143,122,113,133,120
2025-02-26 15:18:43.556,-400.0,56.0,947.0,1.0,0.0,-3.0,138,119,112,136,119
2025-02-26 15:18:43.566,-396.0,61.0,950.0,2.0,0.0,-3.0,142,119,113,132,118
2025-02-26 15:18:43.570,-404.0,59.0,944.0,1.0,0.0,-3.0,141,120,114,132,120
2025-02-26 15:18:43.575,-395.0,61.0,951.0,1.0,0.0,-3.0,142,120,112,131,118
2025-02-26 15:18:43.579,-401.0,61.0,958.0,-1.0,1.0,-2.0,136,121,112,127,120
2025-02-26 15:18:43.587,-400.0,65.0,950.0,-1.0,0.0,-2.0,142,121,112,133,120
2025-02-26 15:18:43.591,-394.0,68.0,958.0,-2.0,0.0,-2.0,145,120,111,129,119
2025-02-26 15:18:43.595,-397.0,64.0,968.0,-4.0,1.0,-2.0,142,119,111,130,118
2025-02-26 15:18:43.600,-405.0,63.0,923.0,-4.0,0.0,-3.0,143,120,114,133,123
2025-02-26 15:18:43.604,-394.0,65.0,944.0,-4.0,0.0,-2.0,142,120,112,131,119
2025-02-26 15:18:43.611,-392.0,68.0,940.0,-5.0,0.0,-3.0,142,119,111,131,119
2025-02-26 15:18:43.616,-385.0,60.0,936.0,-6.0,0.0,-2.0,141,121,113,133,120
2025-02-26 15:18:43.620,-393.0,58.0,934.0,-5.0,0.0,-2.0,146,121,113,134,121
2025-02-26 15:18:43.624,-386.0,44.0,927.0,-4.0,0.0,-2.0,141,120,112,133,120
2025-02-26 15:18:43.629,-382.0,44.0,921.0,-2.0,0.0,-3.0,142,114,113,134,116
2025-02-26 15:18:43.636,-380.0,34.0,929.0,-1.0,0.0,-2.0,143,124,111,132,118
2025-02-26 15:18:43.640,-385.0,34.0,932.0,1.0,0.0,-2.0,141,121,113,132,120
2025-02-26 15:18:43.645,-386.0,40.0,924.0,3.0,0.0,-2.0,142,120,113,132,120
2025-02-26 15:18:43.648,-384.0,48.0,931.0,4.0,0.0,-1.0,141,121,112,131,119
2025-02-26 15:18:43.653,-386.0,54.0,933.0,5.0,0.0,-1.0,141,118,112,131,119
2025-02-26 15:18:43.661,-393.0,57.0,923.0,4.0,-1.0,-1.0,144,122,112,134,119
2025-02-26 15:18:43.665,-398.0,63.0,924.0,4.0,-2.0,-1.0,143,119,113,133,119
2025-02-26 15:18:43.669,-378.0,76.0,936.0,2.0,-2.0,-1.0,141,119,110,132,119
2025-02-26 15:18:43.673,-387.0,83.0,937.0,0.0,-3.0,-1.0,142,120,114,133,120
2025-02-26 15:18:43.680,-385.0,85.0,940.0,-2.0,-3.0,-1.0,143,119,112,133,120
2025-02-26 15:18:43.685,-385.0,73.0,935.0,-4.0,-3.0,-1.0,141,119,112,132,119
2025-02-26 15:18:43.689,-383.0,77.0,946.0,-5.0,-3.0,-1.0,142,120,112,131,120
2025-02-26 15:18:43.694,-379.0,66.0,944.0,-5.0,-3.0,-1.0,143,120,112,132,119
2025-02-26 15:18:43.698,-381.0,58.0,941.0,-4.0,-3.0,0.0,143,120,112,132,119
2025-02-26 15:18:43.703,-378.0,51.0,947.0,-3.0,-3.0,0.0,142,120,112,132,118
2025-02-26 15:18:43.710,-373.0,60.0,937.0,-1.0,-3.0,0.0,143,123,112,132,119
2025-02-26 15:18:43.715,-373.0,51.0,953.0,0.0,-2.0,0.0,141,118,111,132,120
2025-02-26 15:18:43.718,-381.0,54.0,941.0,3.0,-2.0,1.0,141,119,113,133,118
2025-02-26 15:18:43.722,-385.0,74.0,933.0,5.0,-2.0,1.0,142,120,112,133,122
2025-02-26 15:18:43.730,-383.0,90.0,933.0,4.0,-2.0,1.0,140,119,111,130,118
2025-02-26 15:18:43.734,-392.0,89.0,944.0,5.0,-2.0,1.0,141,118,111,130,119
2025-02-26 15:18:43.738,-393.0,108.0,935.0,3.0,-3.0,0.0,145,122,113,133,120
2025-02-26 15:18:43.743,-399.0,117.0,941.0,2.0,-3.0,0.0,142,120,112,132,119
2025-02-26 15:18:43.747,-402.0,117.0,934.0,1.0,-3.0,0.0,140,119,111,130,118
2025-02-26 15:18:43.755,-401.0,112.0,936.0,-1.0,-3.0,-1.0,143,121,112,130,119
2025-02-26 15:18:43.758,-413.0,112.0,920.0,-2.0,-3.0,-2.0,143,121,113,129,121
2025-02-26 15:18:43.763,-402.0,104.0,933.0,-1.0,-4.0,-1.0,142,119,111,131,118
2025-02-26 15:18:43.768,-414.0,108.0,943.0,-3.0,-4.0,-1.0,143,120,112,131,120
2025-02-26 15:18:43.774,-404.0,94.0,935.0,-1.0,-3.0,-2.0,142,120,111,131,119
2025-02-26 15:18:43.779,-414.0,95.0,918.0,0.0,-4.0,-2.0,143,119,111,130,120
2025-02-26 15:18:43.783,-402.0,88.0,921.0,-1.0,-4.0,-2.0,142,120,111,131,118
2025-02-26 15:18:43.786,-412.0,85.0,935.0,1.0,-3.0,-2.0,143,120,113,131,119
2025-02-26 15:18:43.796,-412.0,64.0,927.0,3.0,-2.0,-2.0,143,120,112,131,118
2025-02-26 15:18:43.800,-409.0,74.0,939.0,1.0,-1.0,-3.0,143,121,113,131,120
2025-02-26 15:18:43.804,-403.0,76.0,933.0,5.0,-2.0,-3.0,141,121,112,133,119
2025-02-26 15:18:43.805,-425.0,73.0,931.0,3.0,0.0,-2.0,141,120,112,131,118
2025-02-26 15:18:43.812,-412.0,74.0,923.0,4.0,0.0,-3.0,140,119,111,133,119
2025-02-26 15:18:43.817,-413.0,100.0,923.0,4.0,0.0,-3.0,142,120,115,134,121
2025-02-26 15:18:43.824,-425.0,83.0,928.0,2.0,0.0,-3.0,142,120,113,132,119
2025-02-26 15:18:43.829,-417.0,105.0,924.0,-1.0,0.0,-3.0,141,119,111,132,118
2025-02-26 15:18:43.832,-432.0,90.0,924.0,-2.0,-1.0,-4.0,142,120,112,133,120
2025-02-26 15:18:43.841,-427.0,95.0,929.0,-4.0,-1.0,-4.0,143,119,113,132,120
2025-02-26 15:18:43.845,-422.0,84.0,933.0,-4.0,-1.0,-5.0,142,120,112,131,118
2025-02-26 15:18:43.849,-431.0,64.0,927.0,-6.0,-1.0,-5.0,144,120,112,132,119
2025-02-26 15:18:43.853,-420.0,60.0,906.0,-6.0,-3.0,-5.0,143,119,113,133,119
2025-02-26 15:18:43.858,-414.0,40.0,914.0,-5.0,-4.0,-5.0,142,120,113,133,118
2025-02-26 15:18:43.865,-405.0,36.0,960.0,-5.0,-2.0,-5.0,142,120,111,130,119
2025-02-26 15:18:43.869,-397.0,27.0,908.0,-4.0,-4.0,-5.0,142,119,113,133,119
2025-02-26 15:18:43.874,-408.0,32.0,910.0,-5.0,-1.0,-4.0,140,119,111,132,118
2025-02-26 15:18:43.878,-373.0,20.0,873.0,-2.0,-5.0,-4.0,142,119,112,131,119
2025-02-26 15:18:43.885,-384.0,37.0,939.0,-2.0,-3.0,-4.0,142,119,114,132,119
2025-02-26 15:18:43.889,-400.0,16.0,931.0,4.0,-3.0,-4.0,142,119,112,131,119
2025-02-26 15:18:43.894,-399.0,36.0,914.0,0.0,-4.0,-3.0,143,118,111,130,117
2025-02-26 15:18:43.898,-381.0,32.0,962.0,-1.0,-4.0,-4.0,141,118,111,130,118
2025-02-26 15:18:43.903,-389.0,23.0,945.0,1.0,-4.0,-3.0,143,120,114,129,119
2025-02-26 15:18:43.910,-373.0,41.0,966.0,-2.0,-4.0,-3.0,141,119,112,130,118
2025-02-26 15:18:43.914,-388.0,36.0,937.0,1.0,-5.0,-3.0,141,118,112,132,119
2025-02-26 15:18:43.919,-383.0,15.0,958.0,-3.0,-4.0,-2.0,144,121,113,133,119
2025-02-26 15:18:43.923,-380.0,31.0,962.0,-4.0,-5.0,-1.0,144,119,111,132,119
2025-02-26 15:18:43.930,-386.0,27.0,971.0,-5.0,-5.0,-1.0,142,119,111,130,118
2025-02-26 15:18:43.935,-368.0,23.0,947.0,-7.0,-4.0,-1.0,143,119,112,131,119
2025-02-26 15:18:43.939,-380.0,9.0,956.0,-5.0,-3.0,-1.0,144,121,114,133,119
2025-02-26 15:18:43.944,-369.0,9.0,950.0,-5.0,-3.0,0.0,142,119,112,133,119
2025-02-26 15:18:43.951,-375.0,14.0,958.0,-3.0,-3.0,0.0,141,120,112,132,120
2025-02-26 15:18:43.955,-380.0,5.0,970.0,-3.0,-2.0,1.0,143,121,112,131,118
2025-02-26 15:18:43.959,-378.0,17.0,954.0,-3.0,-3.0,2.0,140,119,110,132,118
2025-02-26 15:18:43.963,-377.0,24.0,970.0,-2.0,-2.0,2.0,142,119,111,132,118
2025-02-26 15:18:43.967,-379.0,33.0,960.0,-2.0,-2.0,2.0,143,121,113,134,120
2025-02-26 15:18:43.975,-376.0,51.0,954.0,-3.0,-3.0,2.0,140,119,110,131,119
2025-02-26 15:18:43.980,-381.0,54.0,969.0,-3.0,-2.0,2.0,142,120,112,129,118
2025-02-26 15:18:43.984,-392.0,66.0,949.0,-3.0,-2.0,2.0,142,121,112,130,120
2025-02-26 15:18:43.988,-395.0,61.0,934.0,-6.0,-2.0,2.0,142,119,112,130,116
2025-02-26 15:18:43.992,-386.0,69.0,962.0,-4.0,-2.0,2.0,140,118,110,130,117
2025-02-26 15:18:44.001,-396.0,61.0,944.0,-6.0,-3.0,2.0,144,122,113,134,120
2025-02-26 15:18:44.005,-397.0,57.0,949.0,-6.0,-4.0,2.0,141,119,113,132,120
2025-02-26 15:18:44.009,-387.0,54.0,960.0,-5.0,-3.0,2.0,143,120,111,129,117
2025-02-26 15:18:44.012,-397.0,59.0,949.0,-4.0,-3.0,2.0,142,120,111,132,119
2025-02-26 15:18:44.017,-394.0,48.0,949.0,-3.0,-3.0,2.0,144,121,113,132,120
2025-02-26 15:18:44.025,-387.0,46.0,950.0,-2.0,-3.0,3.0,140,119,111,133,119
2025-02-26 15:18:44.029,-386.0,53.0,966.0,-1.0,-3.0,3.0,142,119,113,132,119
2025-02-26 15:18:44.033,-395.0,52.0,956.0,0.0,-2.0,3.0,143,120,111,131,118
2025-02-26 15:18:44.038,-383.0,62.0,970.0,0.0,-1.0,3.0,141,120,112,133,119
2025-02-26 15:18:44.042,-394.0,61.0,959.0,1.0,-2.0,3.0,142,121,114,134,119
2025-02-26 15:18:44.049,-398.0,68.0,971.0,1.0,-2.0,3.0,141,120,112,129,119
2025-02-26 15:18:44.053,-392.0,80.0,967.0,0.0,-2.0,3.0,140,119,111,128,118
2025-02-26 15:18:44.058,-396.0,81.0,962.0,-1.0,-2.0,3.0,143,121,114,131,120
2025-02-26 15:18:44.062,-393.0,85.0,974.0,-2.0,-2.0,3.0,144,121,113,131,120
2025-02-26 15:18:44.070,-384.0,87.0,968.0,-3.0,-2.0,3.0,140,119,112,131,119
2025-02-26 15:18:44.074,-388.0,92.0,967.0,-4.0,-3.0,2.0,142,118,112,133,119
2025-02-26 15:18:44.078,-392.0,90.0,973.0,-4.0,-3.0,2.0,144,120,113,132,120
2025-02-26 15:18:44.082,-389.0,87.0,969.0,-5.0,-3.0,2.0,141,120,110,130,118
2025-02-26 15:18:44.086,-389.0,81.0,974.0,-5.0,-3.0,2.0,142,119,113,133,118
2025-02-26 15:18:44.095,-382.0,84.0,975.0,-5.0,-2.0,2.0,142,119,112,133,119
2025-02-26 15:18:44.097,-390.0,78.0,971.0,-4.0,-2.0,2.0,144,121,112,132,118
2025-02-26 15:18:44.102,-381.0,75.0,971.0,-3.0,-1.0,2.0,142,121,113,133,119
2025-02-26 15:18:44.107,-383.0,69.0,972.0,-2.0,0.0,1.0,142,120,113,133,119
2025-02-26 15:18:44.111,-383.0,75.0,950.0,-1.0,0.0,2.0,141,118,111,131,118
2025-02-26 15:18:44.119,-381.0,85.0,960.0,0.0,1.0,2.0,143,121,113,132,118
2025-02-26 15:18:44.122,-387.0,84.0,975.0,2.0,0.0,2.0,141,119,105,134,119
2025-02-26 15:18:44.127,-385.0,91.0,958.0,0.0,0.0,1.0,142,119,110,130,116
2025-02-26 15:18:44.131,-389.0,86.0,980.0,1.0,0.0,1.0,141,118,113,132,118
2025-02-26 15:18:44.136,-394.0,85.0,958.0,1.0,0.0,1.0,142,121,111,132,119
2025-02-26 15:18:44.140,-386.0,88.0,969.0,-1.0,0.0,1.0,142,119,112,131,118
2025-02-26 15:18:44.147,-391.0,87.0,969.0,0.0,0.0,1.0,143,121,114,131,119
2025-02-26 15:18:44.152,-390.0,90.0,966.0,0.0,-1.0,1.0,144,118,112,126,118
2025-02-26 15:18:44.156,-387.0,87.0,963.0,-1.0,0.0,1.0,141,116,110,131,117
2025-02-26 15:18:44.160,-392.0,89.0,963.0,-2.0,0.0,1.0,142,119,112,131,120
2025-02-26 15:18:44.163,-391.0,91.0,959.0,-2.0,0.0,1.0,140,119,111,132,119
2025-02-26 15:18:44.172,-388.0,93.0,958.0,-3.0,0.0,1.0,142,119,112,132,118
2025-02-26 15:18:44.176,-389.0,95.0,962.0,-3.0,0.0,0.0,144,119,111,132,123
2025-02-26 15:18:44.180,-393.0,90.0,959.0,-3.0,1.0,0.0,137,120,114,131,118
2025-02-26 15:18:44.185,-392.0,87.0,952.0,-3.0,0.0,0.0,144,120,112,133,119
2025-02-26 15:18:44.189,-386.0,85.0,956.0,-3.0,1.0,0.0,142,118,112,130,119
2025-02-26 15:18:44.196,-385.0,83.0,941.0,-3.0,1.0,-1.0,142,118,112,131,118
2025-02-26 15:18:44.201,-388.0,81.0,947.0,-2.0,1.0,0.0,143,122,113,132,120
2025-02-26 15:18:44.205,-384.0,74.0,949.0,-2.0,1.0,0.0,142,117,112,133,118
2025-02-26 15:18:44.209,-385.0,73.0,941.0,0.0,1.0,0.0,141,119,111,131,117
2025-02-26 15:18:44.214,-390.0,78.0,941.0,0.0,1.0,0.0,142,120,113,132,118
2025-02-26 15:18:44.218,-389.0,79.0,944.0,0.0,1.0,0.0,143,120,112,133,119
2025-02-26 15:18:44.225,-391.0,80.0,941.0,0.0,1.0,-1.0,141,118,110,130,118
2025-02-26 15:18:44.230,-391.0,81.0,941.0,-1.0,0.0,-1.0,141,118,113,132,119
2025-02-26 15:18:44.234,-391.0,86.0,942.0,0.0,0.0,-1.0,141,119,111,131,118
2025-02-26 15:18:44.238,-393.0,85.0,936.0,-1.0,0.0,-1.0,140,119,112,131,120
2025-02-26 15:18:44.246,-388.0,79.0,940.0,-1.0,-1.0,-1.0,143,120,112,132,120
2025-02-26 15:18:44.249,-388.0,77.0,935.0,-1.0,-1.0,-1.0,141,119,111,132,118
2025-02-26 15:18:44.255,-384.0,71.0,943.0,-1.0,-1.0,-1.0,141,119,112,130,118
2025-02-26 15:18:44.258,-388.0,70.0,942.0,0.0,-1.0,-1.0,143,120,111,133,121
2025-02-26 15:18:44.262,-383.0,67.0,936.0,0.0,-2.0,-1.0,143,118,112,132,119
2025-02-26 15:18:44.271,-377.0,65.0,948.0,1.0,-1.0,-1.0,141,119,111,129,117
2025-02-26 15:18:44.274,-380.0,68.0,942.0,0.0,-1.0,-1.0,143,121,112,132,118
2025-02-26 15:18:44.279,-381.0,69.0,945.0,1.0,-1.0,-1.0,142,121,113,132,120
2025-02-26 15:18:44.283,-378.0,69.0,950.0,0.0,-1.0,-1.0,141,119,113,131,119
2025-02-26 15:18:44.287,-382.0,75.0,943.0,0.0,-1.0,-1.0,143,120,112,132,118
2025-02-26 15:18:44.295,-386.0,73.0,944.0,0.0,-1.0,-1.0,142,119,111,132,118
2025-02-26 15:18:44.299,-387.0,75.0,946.0,-1.0,-1.0,-1.0,143,120,111,132,120
2025-02-26 15:18:44.303,-390.0,73.0,950.0,-2.0,-1.0,-1.0,141,120,112,132,118
2025-02-26 15:18:44.308,-382.0,77.0,950.0,-3.0,-1.0,-2.0,142,119,112,131,119
2025-02-26 15:18:44.316,-385.0,74.0,954.0,-3.0,-1.0,-2.0,141,119,112,130,118
2025-02-26 15:18:44.320,-382.0,61.0,956.0,-2.0,-1.0,-2.0,145,121,112,132,119
2025-02-26 15:18:44.324,-380.0,63.0,938.0,-2.0,-1.0,-2.0,143,121,114,133,120
2025-02-26 15:18:44.328,-380.0,54.0,958.0,-1.0,-1.0,-2.0,140,119,113,131,119
2025-02-26 15:18:44.336,-378.0,50.0,959.0,1.0,-1.0,-1.0,140,117,110,130,117
2025-02-26 15:18:44.340,-378.0,59.0,952.0,3.0,-1.0,-1.0,144,121,113,133,120
2025-02-26 15:18:44.345,-382.0,60.0,950.0,3.0,-1.0,-1.0,142,120,112,133,121
2025-02-26 15:18:44.349,-391.0,71.0,975.0,3.0,0.0,-1.0,141,118,110,130,117
2025-02-26 15:18:44.353,-393.0,70.0,966.0,2.0,-1.0,0.0,142,120,112,133,119
2025-02-26 15:18:44.361,-388.0,71.0,950.0,2.0,0.0,-1.0,142,123,115,133,121
2025-02-26 15:18:44.365,-384.0,86.0,952.0,0.0,-1.0,-1.0,141,117,112,131,118
2025-02-26 15:18:44.369,-386.0,88.0,958.0,-2.0,-1.0,-1.0,142,120,112,131,120
2025-02-26 15:18:44.373,-395.0,85.0,956.0,-2.0,-1.0,-1.0,143,120,112,130,119
2025-02-26 15:18:44.378,-385.0,80.0,967.0,-4.0,0.0,-2.0,144,120,113,132,118
2025-02-26 15:18:44.383,-383.0,66.0,954.0,-4.0,-1.0,-1.0,140,117,107,131,117
2025-02-26 15:18:44.389,-375.0,65.0,954.0,-3.0,0.0,-1.0,142,119,113,131,119
2025-02-26 15:18:44.393,-372.0,52.0,958.0,-1.0,-1.0,-1.0,141,118,111,130,119
2025-02-26 15:18:44.398,-376.0,60.0,960.0,0.0,0.0,0.0,142,119,114,133,120
2025-02-26 15:18:44.402,-383.0,64.0,953.0,1.0,-1.0,0.0,143,121,115,132,119
2025-02-26 15:18:44.409,-381.0,65.0,954.0,1.0,0.0,0.0,141,120,111,131,119
2025-02-26 15:18:44.414,-383.0,75.0,936.0,2.0,0.0,-1.0,139,118,112,130,117
2025-02-26 15:18:44.418,-388.0,86.0,946.0,0.0,-1.0,-1.0,145,121,114,134,120
2025-02-26 15:18:44.422,-396.0,90.0,935.0,1.0,-1.0,-1.0,144,120,110,131,118
2025-02-26 15:18:44.430,-396.0,92.0,940.0,-1.0,-1.0,-1.0,140,117,112,132,118
2025-02-26 15:18:44.435,-392.0,88.0,943.0,-2.0,-1.0,-2.0,143,120,111,131,119
2025-02-26 15:18:44.446,-392.0,84.0,938.0,-2.0,-2.0,-2.0,144,121,113,134,120
2025-02-26 15:18:44.448,-390.0,82.0,942.0,-3.0,-1.0,-2.0,142,120,111,130,118
2025-02-26 15:18:44.448,-395.0,74.0,943.0,-4.0,-2.0,-2.0,142,121,112,132,119
2025-02-26 15:18:44.455,-385.0,69.0,951.0,-4.0,-1.0,-2.0,142,120,112,133,121
2025-02-26 15:18:44.459,-388.0,61.0,943.0,-1.0,-1.0,-2.0,142,119,112,132,119
2025-02-26 15:18:44.464,-381.0,56.0,941.0,0.0,-1.0,-2.0,144,120,111,131,118
2025-02-26 15:18:44.466,-363.0,81.0,967.0,1.0,1.0,-2.0,141,121,113,133,118
2025-02-26 15:18:44.475,-396.0,77.0,888.0,2.0,-2.0,-1.0,141,119,111,129,119
2025-02-26 15:18:44.478,-384.0,62.0,937.0,0.0,-1.0,-1.0,142,119,112,132,119
2025-02-26 15:18:44.484,-385.0,63.0,947.0,2.0,-1.0,-1.0,143,120,113,133,121
2025-02-26 15:18:44.488,-392.0,78.0,939.0,3.0,-2.0,-1.0,143,120,111,131,118
2025-02-26 15:18:44.492,-398.0,84.0,947.0,1.0,-2.0,-1.0,141,117,111,132,117
2025-02-26 15:18:44.500,-394.0,80.0,933.0,0.0,-2.0,-2.0,146,121,114,133,120
2025-02-26 15:18:44.504,-395.0,77.0,938.0,0.0,-3.0,-2.0,142,121,114,132,120
2025-02-26 15:18:44.508,-394.0,76.0,945.0,-2.0,-3.0,-2.0,142,118,111,131,120
2025-02-26 15:18:44.512,-386.0,73.0,939.0,-2.0,-2.0,-2.0,142,121,112,131,119
2025-02-26 15:18:44.521,-390.0,65.0,943.0,-2.0,-2.0,-2.0,143,120,114,133,120
2025-02-26 15:18:44.525,-392.0,63.0,944.0,-2.0,-2.0,-2.0,142,119,112,132,119
2025-02-26 15:18:44.529,-388.0,61.0,936.0,-1.0,-2.0,-1.0,142,119,112,133,119
2025-02-26 15:18:44.533,-390.0,59.0,944.0,-1.0,-2.0,-1.0,139,120,113,132,118
2025-02-26 15:18:44.537,-389.0,61.0,944.0,0.0,-2.0,-1.0,142,120,112,132,121
2025-02-26 15:18:44.545,-383.0,62.0,939.0,0.0,-2.0,-1.0,141,119,111,132,118
2025-02-26 15:18:44.549,-388.0,68.0,939.0,1.0,-2.0,-1.0,140,120,114,132,119
2025-02-26 15:18:44.550,-394.0,75.0,945.0,0.0,-2.0,-1.0,143,120,113,130,119
2025-02-26 15:18:44.557,-394.0,79.0,943.0,0.0,-2.0,-1.0,143,121,113,132,119
2025-02-26 15:18:44.562,-393.0,77.0,950.0,0.0,-2.0,-1.0,143,120,113,132,120
2025-02-26 15:18:44.570,-393.0,74.0,951.0,0.0,-2.0,-2.0,142,122,112,132,119
2025-02-26 15:18:44.574,-392.0,72.0,951.0,0.0,-3.0,-1.0,142,119,110,132,118
2025-02-26 15:18:44.578,-388.0,64.0,951.0,0.0,-2.0,-2.0,145,120,114,133,121
2025-02-26 15:18:44.583,-389.0,66.0,957.0,0.0,-2.0,-2.0,143,119,112,133,119
2025-02-26 15:18:44.590,-390.0,68.0,957.0,0.0,-2.0,-1.0,140,119,111,130,117
2025-02-26 15:18:44.595,-389.0,64.0,967.0,0.0,-2.0,-1.0,142,124,112,132,120
2025-02-26 15:18:44.598,-388.0,58.0,944.0,0.0,-2.0,-1.0,143,120,113,130,119
2025-02-26 15:18:44.603,-386.0,65.0,957.0,0.0,-2.0,-1.0,142,119,110,131,119
2025-02-26 15:18:44.607,-389.0,69.0,953.0,-1.0,-2.0,-1.0,142,121,115,132,119
2025-02-26 15:18:44.612,-388.0,64.0,958.0,-1.0,-2.0,-1.0,142,121,113,133,120
2025-02-26 15:18:44.618,-387.0,63.0,955.0,-1.0,-2.0,-1.0,142,120,112,131,118
2025-02-26 15:18:44.623,-390.0,67.0,950.0,-2.0,-2.0,-1.0,141,119,111,131,117
2025-02-26 15:18:44.628,-388.0,59.0,954.0,-2.0,-2.0,-1.0,142,120,113,131,119
2025-02-26 15:18:44.635,-390.0,56.0,954.0,-2.0,-3.0,-1.0,142,120,112,131,120
2025-02-26 15:18:44.640,-389.0,51.0,955.0,-1.0,-3.0,-1.0,142,120,114,134,120
2025-02-26 15:18:44.644,-390.0,57.0,958.0,-1.0,-2.0,-1.0,143,119,113,132,119
2025-02-26 15:18:44.648,-381.0,55.0,962.0,-1.0,-2.0,-1.0,140,119,112,132,118
2025-02-26 15:18:44.655,-384.0,51.0,962.0,-1.0,-2.0,-1.0,141,119,111,132,119
2025-02-26 15:18:44.660,-377.0,52.0,963.0,-1.0,-2.0,-1.0,141,119,111,132,119
2025-02-26 15:18:44.664,-377.0,50.0,967.0,0.0,-1.0,0.0,142,121,113,134,117
2025-02-26 15:18:44.668,-377.0,55.0,961.0,0.0,-1.0,0.0,141,119,112,131,117
2025-02-26 15:18:44.672,-381.0,57.0,960.0,0.0,-1.0,0.0,141,118,109,130,117
2025-02-26 15:18:44.680,-380.0,61.0,955.0,0.0,-3.0,0.0,143,120,113,131,118
2025-02-26 15:18:44.684,-398.0,60.0,1001.0,0.0,-1.0,0.0,142,120,110,131,119
2025-02-26 15:18:44.688,-374.0,73.0,939.0,-3.0,-3.0,0.0,140,118,111,129,117
2025-02-26 15:18:44.693,-392.0,86.0,977.0,-2.0,-2.0,0.0,142,120,111,132,119
2025-02-26 15:18:44.697,-390.0,69.0,948.0,-3.0,-3.0,0.0,142,121,111,132,118
2025-02-26 15:18:44.705,-384.0,63.0,964.0,-5.0,-2.0,0.0,141,119,112,131,118
2025-02-26 15:18:44.709,-384.0,68.0,951.0,-5.0,-2.0,0.0,141,119,113,134,120
2025-02-26 15:18:44.713,-382.0,61.0,952.0,-5.0,-2.0,0.0,140,120,112,132,119
2025-02-26 15:18:44.718,-373.0,58.0,957.0,-3.0,-2.0,0.0,141,119,111,131,116
2025-02-26 15:18:44.726,-370.0,60.0,954.0,-2.0,-2.0,1.0,141,120,112,132,118
2025-02-26 15:18:44.728,-376.0,53.0,975.0,-1.0,-1.0,1.0,142,120,113,131,119
2025-02-26 15:18:44.734,-370.0,56.0,969.0,0.0,0.0,0.0,141,120,112,131,117
2025-02-26 15:18:44.739,-372.0,71.0,949.0,-1.0,0.0,0.0,141,120,112,132,119
2025-02-26 15:18:44.744,-371.0,74.0,948.0,0.0,1.0,0.0,143,120,112,130,120
2025-02-26 15:18:44.747,-369.0,76.0,945.0,0.0,1.0,1.0,141,118,111,131,117
2025-02-26 15:18:44.751,-374.0,72.0,941.0,0.0,1.0,1.0,146,119,112,125,119
2025-02-26 15:18:44.758,-374.0,73.0,929.0,0.0,1.0,0.0,140,119,111,129,118
2025-02-26 15:18:44.763,-373.0,82.0,927.0,1.0,1.0,0.0,141,120,113,131,118
2025-02-26 15:18:44.767,-368.0,84.0,922.0,1.0,0.0,0.0,141,120,113,132,119
2025-02-26 15:18:44.771,-369.0,92.0,923.0,1.0,0.0,0.0,143,118,109,132,118
2025-02-26 15:18:44.775,-378.0,87.0,904.0,-1.0,0.0,0.0,143,119,112,133,119
2025-02-26 15:18:44.781,-379.0,108.0,911.0,-2.0,0.0,-1.0,143,119,110,132,117
2025-02-26 15:18:44.787,-380.0,114.0,892.0,-2.0,0.0,-1.0,140,118,111,131,118
2025-02-26 15:18:44.792,-387.0,121.0,878.0,-5.0,-2.0,-1.0,143,119,111,132,118
2025-02-26 15:18:44.795,-396.0,152.0,865.0,-7.0,-3.0,-2.0,142,119,111,132,117
2025-02-26 15:18:44.803,-403.0,171.0,849.0,-10.0,-4.0,-3.0,141,119,115,132,118
2025-02-26 15:18:44.808,-406.0,196.0,826.0,-14.0,-5.0,-4.0,142,120,113,131,118
2025-02-26 15:18:44.811,-409.0,209.0,799.0,-19.0,-7.0,-6.0,141,111,112,131,119
2025-02-26 15:18:44.820,-418.0,235.0,781.0,-24.0,-8.0,-8.0,143,119,112,132,120
2025-02-26 15:18:44.824,-430.0,245.0,716.0,-26.0,-8.0,-11.0,141,119,115,132,118
2025-02-26 15:18:44.828,-438.0,241.0,669.0,-31.0,-10.0,-11.0,145,119,111,130,117
2025-02-26 15:18:44.836,-453.0,261.0,639.0,-32.0,-14.0,-12.0,139,116,111,131,118
2025-02-26 15:18:44.840,-459.0,242.0,590.0,-37.0,-20.0,-12.0,143,119,112,132,118
2025-02-26 15:18:44.845,-482.0,231.0,574.0,-37.0,-21.0,-14.0,142,120,112,134,118
2025-02-26 15:18:44.847,-508.0,254.0,484.0,-38.0,-28.0,-16.0,141,119,112,132,117
2025-02-26 15:18:44.856,-511.0,230.0,383.0,-39.0,-35.0,-17.0,140,118,115,132,118
2025-02-26 15:18:44.860,-524.0,218.0,453.0,-34.0,-49.0,-20.0,140,119,111,132,118
2025-02-26 15:18:44.865,-521.0,235.0,385.0,-34.0,-61.0,-22.0,141,119,110,131,117
2025-02-26 15:18:44.873,-526.0,200.0,409.0,-36.0,-74.0,-23.0,143,121,113,133,118
2025-02-26 15:18:44.877,-543.0,258.0,450.0,-34.0,-88.0,-25.0,142,119,113,132,118
2025-02-26 15:18:44.877,-542.0,248.0,474.0,-34.0,-101.0,-27.0,143,120,108,132,118
2025-02-26 15:18:44.889,-536.0,252.0,467.0,-38.0,-109.0,-31.0,141,118,112,131,117
2025-02-26 15:18:44.892,-551.0,305.0,491.0,-45.0,-127.0,-35.0,142,117,105,131,117
2025-02-26 15:18:44.897,-538.0,305.0,547.0,-51.0,-144.0,-37.0,140,119,111,129,116
2025-02-26 15:18:44.905,-549.0,295.0,618.0,-61.0,-164.0,-42.0,143,119,112,131,118
2025-02-26 15:18:44.909,-518.0,270.0,673.0,-74.0,-179.0,-46.0,143,120,111,132,118
2025-02-26 15:18:44.915,-489.0,236.0,746.0,-81.0,-196.0,-50.0,140,119,110,131,119
2025-02-26 15:18:44.921,-427.0,125.0,893.0,-102.0,-212.0,-51.0,141,120,112,131,120
2025-02-26 15:18:44.926,-303.0,-49.0,1025.0,-119.0,-219.0,-47.0,141,119,109,130,117
2025-02-26 15:18:44.935,-233.0,-227.0,1209.0,-141.0,-224.0,-40.0,140,117,108,129,116
2025-02-26 15:18:44.939,-64.0,-512.0,1442.0,-153.0,-224.0,-27.0,140,116,107,131,116
2025-02-26 15:18:44.943,118.0,-736.0,1825.0,-140.0,-207.0,-19.0,142,118,107,125,116
2025-02-26 15:18:44.951,199.0,-768.0,2094.0,-126.0,-172.0,-5.0,140,115,104,128,114
2025-02-26 15:18:44.955,378.0,-755.0,2212.0,-118.0,-142.0,9.0,142,115,106,129,114
2025-02-26 15:18:44.957,430.0,-798.0,2349.0,-111.0,-108.0,31.0,143,118,105,131,114
2025-02-26 15:18:44.968,565.0,-841.0,2487.0,-108.0,-73.0,55.0,145,116,104,131,112
2025-02-26 15:18:44.971,655.0,-755.0,2831.0,-104.0,-32.0,65.0,140,115,102,127,110
2025-02-26 15:18:44.975,648.0,-720.0,2922.0,-108.0,-6.0,76.0,139,114,101,128,107
2025-02-26 15:18:44.983,705.0,-734.0,2997.0,-118.0,33.0,74.0,139,113,100,127,105
2025-02-26 15:18:44.988,668.0,-659.0,3066.0,-134.0,76.0,76.0,141,110,94,126,103
2025-02-26 15:18:44.992,662.0,-644.0,3035.0,-150.0,122.0,77.0,142,109,99,126,102
2025-02-26 15:18:45.000,605.0,-690.0,2941.0,-157.0,162.0,74.0,142,108,94,119,99
2025-02-26 15:18:45.004,554.0,-661.0,2894.0,-166.0,203.0,72.0,143,106,91,122,94
2025-02-26 15:18:45.009,506.0,-564.0,2774.0,-189.0,223.0,70.0,141,100,86,119,92
2025-02-26 15:18:45.012,463.0,-532.0,2612.0,-217.0,258.0,70.0,140,95,84,116,89
2025-02-26 15:18:45.020,363.0,-567.0,2541.0,-240.0,285.0,69.0,141,90,83,114,88
2025-02-26 15:18:45.024,257.0,-541.0,2366.0,-256.0,306.0,67.0,141,87,79,112,86
2025-02-26 15:18:45.028,216.0,-523.0,2164.0,-280.0,317.0,68.0,140,80,75,108,83
2025-02-26 15:18:45.036,164.0,-505.0,1888.0,-296.0,332.0,68.0,141,76,71,101,83
2025-02-26 15:18:45.041,116.0,-632.0,1654.0,-304.0,346.0,79.0,142,74,72,102,86
2025-02-26 15:18:45.046,-84.0,-621.0,1631.0,-323.0,353.0,89.0,144,69,70,96,81
2025-02-26 15:18:45.050,24.0,-646.0,1448.0,-329.0,361.0,99.0,143,66,65,91,78
2025-02-26 15:18:45.055,71.0,-669.0,1280.0,-343.0,361.0,107.0,140,62,64,88,78
2025-02-26 15:18:45.061,8.0,-647.0,1201.0,-355.0,366.0,118.0,142,64,66,90,78
2025-02-26 15:18:45.065,80.0,-545.0,1063.0,-358.0,370.0,130.0,141,63,65,85,74
2025-02-26 15:18:45.070,71.0,-396.0,993.0,-357.0,373.0,142.0,140,60,62,83,72
2025-02-26 15:18:45.078,-73.0,-680.0,893.0,-358.0,376.0,151.0,139,61,62,83,70
2025-02-26 15:18:45.082,53.0,-618.0,832.0,-344.0,380.0,163.0,141,62,63,82,72
2025-02-26 15:18:45.085,18.0,-486.0,689.0,-334.0,378.0,174.0,140,59,59,78,70
2025-02-26 15:18:45.090,-65.0,-416.0,679.0,-323.0,381.0,182.0,137,54,58,78,67
2025-02-26 15:18:45.098,-36.0,-303.0,579.0,-295.0,376.0,184.0,140,58,59,78,68
2025-02-26 15:18:45.102,-113.0,-260.0,565.0,-276.0,370.0,188.0,140,58,61,78,69
2025-02-26 15:18:45.106,-27.0,-84.0,492.0,-279.0,363.0,191.0,138,54,58,75,66
2025-02-26 15:18:45.111,-24.0,232.0,196.0,-281.0,356.0,191.0,137,53,55,75,64
2025-02-26 15:18:45.118,-29.0,212.0,72.0,-280.0,345.0,195.0,136,56,60,76,64
2025-02-26 15:18:45.122,-93.0,332.0,21.0,-286.0,338.0,197.0,136,54,58,76,64
2025-02-26 15:18:45.127,-189.0,505.0,-89.0,-296.0,329.0,193.0,130,53,58,73,62
2025-02-26 15:18:45.132,-251.0,599.0,-157.0,-292.0,308.0,188.0,132,56,58,73,61
2025-02-26 15:18:45.139,-434.0,537.0,-222.0,-267.0,282.0,170.0,129,54,56,74,61
2025-02-26 15:18:45.143,-529.0,584.0,-266.0,-253.0,254.0,151.0,129,54,57,73,61
2025-02-26 15:18:45.147,-455.0,531.0,-257.0,-230.0,240.0,126.0,126,55,55,71,60
2025-02-26 15:18:45.152,-441.0,623.0,-217.0,-219.0,221.0,116.0,127,53,56,68,58
2025-02-26 15:18:45.157,-425.0,723.0,-162.0,-214.0,211.0,103.0,124,54,55,72,59
2025-02-26 15:18:45.164,-334.0,866.0,-258.0,-206.0,201.0,90.0,123,50,56,73,61
2025-02-26 15:18:45.168,-336.0,839.0,-187.0,-193.0,196.0,74.0,121,51,53,69,57
2025-02-26 15:18:45.173,-343.0,838.0,-127.0,-185.0,185.0,65.0,120,53,52,69,56
2025-02-26 15:18:45.180,-317.0,914.0,-161.0,-168.0,173.0,47.0,119,54,54,72,59
2025-02-26 15:18:45.184,-371.0,959.0,-199.0,-158.0,161.0,29.0,121,58,58,78,62
2025-02-26 15:18:45.189,-338.0,1103.0,-226.0,-154.0,159.0,14.0,120,54,55,73,59
2025-02-26 15:18:45.193,-369.0,1124.0,-305.0,-145.0,149.0,8.0,118,53,55,72,59
2025-02-26 15:18:45.201,-389.0,1165.0,-328.0,-122.0,129.0,-6.0,119,55,56,72,59
2025-02-26 15:18:45.205,-398.0,1234.0,-402.0,-108.0,111.0,-20.0,118,57,55,73,60
2025-02-26 15:18:45.209,-369.0,1302.0,-467.0,-76.0,100.0,-34.0,113,56,53,72,57
2025-02-26 15:18:45.216,-436.0,1381.0,-510.0,-43.0,83.0,-39.0,113,58,55,72,56
2025-02-26 15:18:45.221,-480.0,1471.0,-549.0,-3.0,68.0,-53.0,117,62,59,75,61
2025-02-26 15:18:45.225,-489.0,1637.0,-566.0,16.0,54.0,-68.0,114,58,55,72,59
2025-02-26 15:18:45.229,-511.0,1810.0,-646.0,57.0,46.0,-87.0,112,57,53,71,57
2025-02-26 15:18:45.237,-588.0,1943.0,-708.0,102.0,31.0,-100.0,113,58,56,71,57
2025-02-26 15:18:45.242,-668.0,2137.0,-747.0,149.0,16.0,-133.0,114,59,57,73,60
2025-02-26 15:18:45.246,-607.0,2375.0,-842.0,174.0,7.0,-175.0,114,59,55,73,59
2025-02-26 15:18:45.248,-635.0,2688.0,-949.0,215.0,4.0,-230.0,111,56,54,70,57
2025-02-26 15:18:45.258,-642.0,2817.0,-1107.0,244.0,-5.0,-261.0,113,57,55,72,59
2025-02-26 15:18:45.260,-709.0,3042.0,-1187.0,265.0,-31.0,-334.0,111,59,57,75,60
2025-02-26 15:18:45.267,-752.0,3245.0,-1391.0,266.0,-68.0,-409.0,115,59,56,73,59
2025-02-26 15:18:45.272,-784.0,3321.0,-1551.0,252.0,-124.0,-489.0,109,57,55,71,58
2025-02-26 15:18:45.279,-797.0,3304.0,-1662.0,229.0,-159.0,-575.0,110,57,54,71,57
2025-02-26 15:18:45.283,-717.0,3179.0,-1748.0,206.0,-238.0,-618.0,111,57,55,72,59
2025-02-26 15:18:45.291,-408.0,3118.0,-1745.0,176.0,-321.0,-705.0,111,59,55,71,59
2025-02-26 15:18:45.295,-35.0,3050.0,-1765.0,143.0,-412.0,-799.0,112,58,55,72,58
2025-02-26 15:18:45.296,434.0,3037.0,-1805.0,100.0,-514.0,-896.0,112,56,57,74,59
2025-02-26 15:18:45.307,1136.0,3002.0,-1842.0,73.0,-622.0,-983.0,112,56,55,75,59
2025-02-26 15:18:45.308,1583.0,2774.0,-1869.0,14.0,-678.0,-1052.0,109,54,53,69,59
2025-02-26 15:18:45.315,2627.0,2228.0,-1692.0,-50.0,-784.0,-1078.0,110,54,52,70,59
2025-02-26 15:18:45.320,4111.0,1985.0,-524.0,-88.0,-829.0,-1068.0,112,53,51,71,60
2025-02-26 15:18:45.327,6262.0,407.0,1145.0,-127.0,-759.0,-989.0,112,58,55,72,63
2025-02-26 15:18:45.332,7746.0,-1459.0,1904.0,-192.0,-570.0,-857.0,111,56,53,72,62
2025-02-26 15:18:45.340,8136.0,-3645.0,3000.0,-213.0,-330.0,-718.0,111,55,55,72,62
2025-02-26 15:18:45.344,7889.0,-5353.0,3271.0,-224.0,-96.0,-567.0,111,57,54,72,62
2025-02-26 15:18:45.349,7093.0,-6770.0,2850.0,-179.0,-1.0,-435.0,108,58,55,70,61
2025-02-26 15:18:45.356,6337.0,-7412.0,1869.0,-88.0,127.0,-326.0,106,57,54,71,61
2025-02-26 15:18:45.361,5426.0,-7478.0,1045.0,-9.0,200.0,-271.0,108,55,53,71,60
2025-02-26 15:18:45.365,3913.0,-7334.0,685.0,55.0,206.0,-154.0,129,81,81,97,85
2025-02-26 15:18:45.373,3077.0,-6601.0,522.0,76.0,180.0,-27.0,154,105,103,119,105
2025-02-26 15:18:45.377,2312.0,-5848.0,-246.0,101.0,127.0,79.0,140,91,89,105,91
2025-02-26 15:18:45.381,2296.0,-4721.0,-351.0,56.0,61.0,183.0,145,94,94,110,95
2025-02-26 15:18:45.386,1402.0,-4105.0,-11.0,-15.0,0.0,222.0,153,98,99,113,102
2025-02-26 15:18:45.393,1950.0,-3196.0,-373.0,-80.0,-7.0,237.0,155,102,101,117,104
2025-02-26 15:18:45.397,1236.0,-2590.0,-203.0,-121.0,-42.0,249.0,120,67,66,83,70
2025-02-26 15:18:45.401,1403.0,-2437.0,-170.0,-141.0,-36.0,249.0,131,76,78,95,81
2025-02-26 15:18:45.409,1322.0,-2328.0,-284.0,-146.0,-37.0,244.0,129,77,75,91,78
2025-02-26 15:18:45.414,1250.0,-2510.0,-144.0,-129.0,-31.0,247.0,133,80,76,94,83
2025-02-26 15:18:45.418,840.0,-2647.0,-90.0,-100.0,-21.0,254.0,133,79,78,94,84
2025-02-26 15:18:45.426,902.0,-2412.0,-197.0,-60.0,-14.0,264.0,136,81,79,89,86
2025-02-26 15:18:45.430,607.0,-2422.0,-147.0,-37.0,-7.0,279.0,136,81,81,97,87
2025-02-26 15:18:45.434,730.0,-2197.0,-84.0,-8.0,-1.0,293.0,130,79,77,93,85
2025-02-26 15:18:45.439,642.0,-2035.0,-9.0,18.0,-3.0,301.0,135,83,81,99,88
2025-02-26 15:18:45.443,584.0,-1880.0,42.0,31.0,-1.0,311.0,134,82,81,95,87
2025-02-26 15:18:45.451,485.0,-1602.0,156.0,45.0,2.0,322.0,133,78,75,94,85
2025-02-26 15:18:45.454,507.0,-1511.0,215.0,59.0,-1.0,326.0,135,82,78,96,88
2025-02-26 15:18:45.458,494.0,-1283.0,261.0,56.0,8.0,332.0,135,79,79,97,87
2025-02-26 15:18:45.463,430.0,-1048.0,333.0,45.0,13.0,337.0,135,76,75,94,85
2025-02-26 15:18:45.467,406.0,-987.0,384.0,31.0,15.0,340.0,135,83,79,97,88
2025-02-26 15:18:45.475,370.0,-792.0,409.0,8.0,29.0,344.0,134,82,80,97,86
2025-02-26 15:18:45.479,325.0,-623.0,389.0,-6.0,31.0,347.0,132,79,76,93,84
2025-02-26 15:18:45.484,259.0,-562.0,372.0,-40.0,43.0,345.0,136,84,79,98,89
2025-02-26 15:18:45.488,173.0,-432.0,349.0,-67.0,46.0,342.0,134,82,79,98,88
2025-02-26 15:18:45.492,157.0,-349.0,288.0,-78.0,49.0,334.0,127,79,77,95,84
2025-02-26 15:18:45.500,39.0,-248.0,236.0,-93.0,42.0,328.0,132,79,76,94,83
2025-02-26 15:18:45.504,-89.0,-285.0,147.0,-96.0,26.0,317.0,133,83,80,97,85
2025-02-26 15:18:45.508,-174.0,-236.0,176.0,-102.0,15.0,307.0,132,78,77,95,84
2025-02-26 15:18:45.512,-182.0,-215.0,104.0,-104.0,11.0,300.0,128,75,75,95,83
2025-02-26 15:18:45.520,-190.0,-232.0,129.0,-101.0,7.0,285.0,133,81,79,97,90
2025-02-26 15:18:45.524,-136.0,-237.0,183.0,-99.0,17.0,271.0,130,80,78,95,83
2025-02-26 15:18:45.528,-121.0,-212.0,229.0,-91.0,20.0,264.0,130,79,77,95,84
2025-02-26 15:18:45.532,-97.0,-227.0,285.0,-85.0,35.0,255.0,133,81,72,96,87
2025-02-26 15:18:45.540,-5.0,-161.0,289.0,-80.0,51.0,244.0,134,81,78,96,87
2025-02-26 15:18:45.545,-52.0,-178.0,271.0,-68.0,57.0,238.0,131,80,77,95,84
2025-02-26 15:18:45.549,-104.0,-177.0,208.0,-52.0,65.0,229.0,135,82,79,97,87
2025-02-26 15:18:45.552,-175.0,-119.0,261.0,-48.0,74.0,221.0,131,85,78,96,86
2025-02-26 15:18:45.557,-137.0,-45.0,191.0,-51.0,80.0,216.0,130,77,75,93,84
2025-02-26 15:18:45.565,-120.0,-84.0,138.0,-44.0,87.0,213.0,135,81,80,98,89
2025-02-26 15:18:45.569,-175.0,-65.0,170.0,-44.0,93.0,211.0,133,79,79,96,87
2025-02-26 15:18:45.573,-190.0,-51.0,155.0,-48.0,94.0,209.0,131,77,75,93,86
2025-02-26 15:18:45.578,-225.0,-77.0,85.0,-38.0,94.0,206.0,135,79,75,96,86
2025-02-26 15:18:45.582,-316.0,-70.0,76.0,-32.0,87.0,200.0,138,83,79,98,89
2025-02-26 15:18:45.590,-371.0,-31.0,42.0,-27.0,83.0,196.0,132,78,76,96,86
2025-02-26 15:18:45.594,-436.0,-19.0,22.0,-16.0,73.0,195.0,137,82,79,96,89
2025-02-26 15:18:45.598,-466.0,8.0,1.0,-8.0,61.0,193.0,134,82,80,99,91
2025-02-26 15:18:45.602,-483.0,-20.0,-8.0,-3.0,56.0,193.0,134,80,78,95,88
2025-02-26 15:18:45.607,-458.0,9.0,49.0,12.0,48.0,194.0,135,84,80,100,88
2025-02-26 15:18:45.611,-427.0,-49.0,69.0,28.0,44.0,192.0,137,82,79,98,90
2025-02-26 15:18:45.618,-408.0,25.0,122.0,37.0,43.0,196.0,134,81,76,97,88
2025-02-26 15:18:45.623,-408.0,16.0,208.0,53.0,46.0,197.0,131,77,73,90,83
2025-02-26 15:18:45.626,-331.0,50.0,270.0,71.0,53.0,204.0,132,76,73,92,84
2025-02-26 15:18:45.631,-339.0,123.0,314.0,79.0,57.0,211.0,129,74,71,90,80
2025-02-26 15:18:45.635,-332.0,154.0,326.0,98.0,64.0,215.0,128,73,71,90,81
2025-02-26 15:18:45.643,-373.0,196.0,329.0,120.0,69.0,220.0,131,79,74,93,86
2025-02-26 15:18:45.647,-445.0,298.0,262.0,133.0,71.0,223.0,129,74,72,91,82
2025-02-26 15:18:45.651,-487.0,377.0,195.0,162.0,70.0,224.0,127,71,70,89,81
2025-02-26 15:18:45.656,-566.0,524.0,145.0,191.0,67.0,223.0,132,78,75,93,84
2025-02-26 15:18:45.660,-643.0,815.0,44.0,206.0,59.0,214.0,132,77,74,92,84
2025-02-26 15:18:45.666,-712.0,1199.0,-80.0,239.0,53.0,204.0,129,75,73,90,83
2025-02-26 15:18:45.672,-846.0,1393.0,-111.0,266.0,45.0,172.0,131,76,75,92,85
2025-02-26 15:18:45.676,-999.0,1851.0,-249.0,278.0,36.0,116.0,132,77,73,93,84
2025-02-26 15:18:45.680,-1113.0,2450.0,-355.0,301.0,31.0,37.0,131,75,73,92,83
2025-02-26 15:18:45.688,-1260.0,2704.0,-379.0,307.0,22.0,-6.0,129,75,75,92,84
2025-02-26 15:18:45.692,-1130.0,3081.0,-432.0,307.0,22.0,-101.0,128,74,73,91,82
2025-02-26 15:18:45.696,-1132.0,3288.0,-467.0,298.0,19.0,-191.0,127,73,71,90,81
2025-02-26 15:18:45.701,-914.0,3345.0,-519.0,274.0,23.0,-233.0,131,78,77,96,87
2025-02-26 15:18:45.708,-897.0,3309.0,-584.0,262.0,9.0,-315.0,128,76,74,94,84
2025-02-26 15:18:45.712,-825.0,3269.0,-723.0,228.0,7.0,-394.0,127,73,72,89,81
2025-02-26 15:18:45.717,-929.0,3169.0,-872.0,192.0,-21.0,-436.0,125,73,71,89,80
2025-02-26 15:18:45.724,-945.0,3091.0,-930.0,159.0,-63.0,-524.0,128,78,75,94,84
2025-02-26 15:18:45.728,-838.0,2946.0,-1027.0,143.0,-123.0,-621.0,128,76,74,92,83
2025-02-26 15:18:45.734,-744.0,2861.0,-1120.0,103.0,-193.0,-727.0,127,74,76,93,83
2025-02-26 15:18:45.740,-680.0,2802.0,-1234.0,54.0,-237.0,-842.0,125,74,70,89,81
2025-02-26 15:18:45.746,-394.0,2769.0,-1314.0,-2.0,-346.0,-902.0,125,72,73,93,78
2025-02-26 15:18:45.750,319.0,2743.0,-1612.0,-67.0,-472.0,-1023.0,129,76,74,93,82
2025-02-26 15:18:45.758,1460.0,2550.0,-1673.0,-138.0,-589.0,-1098.0,128,76,72,91,82
2025-02-26 15:18:45.762,2615.0,1950.0,-1579.0,-207.0,-711.0,-1157.0,130,79,75,95,86
2025-02-26 15:18:45.766,4404.0,694.0,-1454.0,-247.0,-809.0,-1157.0,129,77,71,94,85
2025-02-26 15:18:45.774,6010.0,-677.0,-874.0,-245.0,-818.0,-1087.0,129,73,72,92,85
2025-02-26 15:18:45.779,7187.0,-2397.0,294.0,-256.0,-712.0,-939.0,129,72,69,91,85
2025-02-26 15:18:45.783,7292.0,-4537.0,1593.0,-256.0,-622.0,-732.0,130,77,69,89,85
2025-02-26 15:18:45.788,7223.0,-6570.0,2015.0,-254.0,-395.0,-471.0,127,75,70,90,83
2025-02-26 15:18:45.803,7060.0,-7366.0,1741.0,-252.0,-147.0,-333.0,126,73,69,87,82
2025-02-26 15:18:45.805,6936.0,-8381.0,1072.0,-221.0,61.0,-108.0,127,76,73,91,84
2025-02-26 15:18:45.805,5566.0,-7925.0,723.0,-139.0,181.0,30.0,156,109,106,121,116
2025-02-26 15:18:45.811,4222.0,-6799.0,196.0,-14.0,236.0,102.0,147,96,96,110,101
2025-02-26 15:18:45.819,3177.0,-5742.0,-528.0,60.0,204.0,129.0,213,161,169,186,179
2025-02-26 15:18:45.824,2672.0,-5102.0,-996.0,169.0,186.0,177.0,157,105,102,119,105
2025-02-26 15:18:45.828,2009.0,-3750.0,-771.0,215.0,118.0,226.0,165,110,104,119,102
2025-02-26 15:18:45.835,1711.0,-3044.0,-682.0,182.0,124.0,243.0,147,95,90,107,94
2025-02-26 15:18:45.840,1430.0,-2007.0,-653.0,131.0,76.0,258.0,140,88,84,101,89
2025-02-26 15:18:45.842,781.0,-1681.0,-545.0,32.0,46.0,288.0,133,81,78,94,83
2025-02-26 15:18:45.848,769.0,-1491.0,-509.0,-15.0,13.0,282.0,123,69,66,84,75
2025-02-26 15:18:45.854,599.0,-1404.0,-569.0,-56.0,-9.0,274.0,121,67,65,83,73
2025-02-26 15:18:45.860,607.0,-1567.0,-353.0,-97.0,-27.0,277.0,123,68,65,84,75
2025-02-26 15:18:45.865,606.0,-1810.0,-337.0,-107.0,-27.0,274.0,122,67,71,85,77
2025-02-26 15:18:45.869,418.0,-1903.0,-354.0,-97.0,-44.0,287.0,123,68,65,83,77
2025-02-26 15:18:45.876,397.0,-2040.0,-81.0,-75.0,-37.0,302.0,122,64,62,82,76
2025-02-26 15:18:45.880,618.0,-1874.0,-442.0,-58.0,-17.0,311.0,121,65,62,81,75
2025-02-26 15:18:45.885,383.0,-1854.0,122.0,-16.0,-11.0,325.0,123,68,66,84,78
2025-02-26 15:18:45.892,584.0,-1727.0,328.0,-10.0,28.0,341.0,123,68,63,82,77
2025-02-26 15:18:45.896,528.0,-1624.0,279.0,30.0,21.0,343.0,120,66,61,81,75
2025-02-26 15:18:45.901,501.0,-1332.0,345.0,56.0,17.0,344.0,125,67,64,85,78
2025-02-26 15:18:45.905,373.0,-1125.0,361.0,41.0,48.0,347.0,123,68,63,84,78
2025-02-26 15:18:45.909,413.0,-795.0,319.0,38.0,56.0,344.0,122,65,62,82,76
2025-02-26 15:18:45.917,252.0,-770.0,326.0,40.0,56.0,340.0,126,69,63,85,76
2025-02-26 15:18:45.920,179.0,-694.0,321.0,4.0,68.0,335.0,126,67,64,83,78
2025-02-26 15:18:45.926,122.0,-443.0,270.0,-11.0,70.0,328.0,124,67,61,84,75
2025-02-26 15:18:45.930,61.0,-351.0,270.0,-66.0,81.0,326.0,124,66,62,83,76
2025-02-26 15:18:45.934,-57.0,-151.0,313.0,-103.0,82.0,316.0,126,67,64,86,78
2025-02-26 15:18:45.939,-122.0,-124.0,104.0,-119.0,66.0,299.0,123,66,63,85,76
2025-02-26 15:18:45.946,-149.0,20.0,67.0,-140.0,61.0,291.0,125,65,62,85,77
2025-02-26 15:18:45.950,-204.0,-86.0,103.0,-165.0,44.0,283.0,125,69,66,85,78
2025-02-26 15:18:45.955,-297.0,-118.0,49.0,-163.0,10.0,278.0,125,67,64,83,76
2025-02-26 15:18:45.962,-281.0,-278.0,116.0,-152.0,2.0,278.0,125,66,63,85,75
2025-02-26 15:18:45.966,-193.0,-144.0,95.0,-167.0,0.0,265.0,126,67,67,86,81
2025-02-26 15:18:45.971,-164.0,-323.0,66.0,-158.0,-2.0,264.0,127,67,65,85,77
2025-02-26 15:18:45.975,-124.0,-302.0,130.0,-179.0,0.0,274.0,126,64,63,83,75
2025-02-26 15:18:45.980,-83.0,-316.0,122.0,-191.0,10.0,274.0,129,68,65,88,78
2025-02-26 15:18:45.987,0.0,-344.0,128.0,-184.0,14.0,273.0,129,69,66,88,79
2025-02-26 15:18:45.992,-79.0,-366.0,102.0,-174.0,13.0,269.0,130,65,64,84,76
2025-02-26 15:18:45.993,-91.0,-414.0,122.0,-150.0,8.0,268.0,127,67,63,84,77
2025-02-26 15:18:45.998,-48.0,-418.0,152.0,-133.0,14.0,271.0,132,67,65,86,78
2025-02-26 15:18:46.004,18.0,-349.0,139.0,-132.0,19.0,274.0,128,67,64,85,78
2025-02-26 15:18:46.010,-141.0,-386.0,88.0,-102.0,22.0,275.0,129,65,61,85,77
2025-02-26 15:18:46.015,-57.0,-207.0,173.0,-100.0,28.0,278.0,132,68,67,86,78
2025-02-26 15:18:46.017,-12.0,-258.0,102.0,-95.0,30.0,284.0,133,68,65,86,79
2025-02-26 15:18:46.022,-149.0,-221.0,115.0,-81.0,32.0,284.0,131,67,64,87,80
2025-02-26 15:18:46.029,-352.0,-175.0,0.0,-45.0,26.0,283.0,134,67,64,88,80
2025-02-26 15:18:46.036,-338.0,-289.0,-77.0,-25.0,12.0,282.0,137,65,64,87,78
2025-02-26 15:18:46.040,-392.0,-108.0,33.0,-9.0,9.0,286.0,136,64,63,85,77
2025-02-26 15:18:46.042,-335.0,-165.0,5.0,21.0,-2.0,283.0,135,66,58,87,79
2025-02-26 15:18:46.049,-414.0,-30.0,155.0,35.0,-8.0,280.0,136,65,64,86,78
2025-02-26 15:18:46.057,-366.0,175.0,56.0,64.0,-10.0,273.0,134,59,62,85,79
2025-02-26 15:18:46.060,-345.0,224.0,84.0,100.0,-11.0,269.0,139,65,63,86,78
2025-02-26 15:18:46.065,-394.0,343.0,132.0,118.0,-10.0,259.0,137,63,63,87,79
2025-02-26 15:18:46.069,-418.0,646.0,192.0,162.0,-11.0,232.0,138,63,62,84,76
2025-02-26 15:18:46.072,-610.0,860.0,227.0,214.0,-7.0,216.0,140,66,64,86,78
2025-02-26 15:18:46.079,-678.0,1240.0,228.0,241.0,3.0,174.0,140,64,61,85,78
2025-02-26 15:18:46.085,-696.0,1454.0,205.0,297.0,8.0,124.0,141,65,62,85,77
2025-02-26 15:18:46.090,-694.0,1564.0,181.0,352.0,23.0,98.0,142,65,64,87,77
2025-02-26 15:18:46.094,-683.0,1851.0,183.0,403.0,42.0,49.0,144,65,65,89,78
2025-02-26 15:18:46.101,-686.0,2180.0,176.0,422.0,50.0,0.0,145,64,63,85,76
2025-02-26 15:18:46.106,-833.0,2354.0,127.0,449.0,57.0,-27.0,147,63,63,86,76
2025-02-26 15:18:46.110,-953.0,2755.0,81.0,463.0,58.0,-90.0,147,66,63,86,75
2025-02-26 15:18:46.114,-941.0,3116.0,-70.0,464.0,55.0,-169.0,146,64,62,82,71
2025-02-26 15:18:46.121,-984.0,3385.0,-319.0,447.0,47.0,-214.0,145,63,59,83,71
2025-02-26 15:18:46.127,-1002.0,3748.0,-430.0,394.0,34.0,-308.0,149,63,66,84,70
2025-02-26 15:18:46.130,-969.0,3857.0,-701.0,317.0,6.0,-399.0,148,63,61,82,69
2025-02-26 15:18:46.134,-1021.0,3759.0,-998.0,275.0,-15.0,-487.0,152,62,64,81,67
2025-02-26 15:18:46.142,-991.0,3361.0,-1232.0,194.0,-68.0,-566.0,149,60,57,80,65
2025-02-26 15:18:46.146,-985.0,3173.0,-1384.0,130.0,-147.0,-607.0,149,60,58,80,65
2025-02-26 15:18:46.152,-847.0,2797.0,-1505.0,81.0,-253.0,-687.0,151,60,59,81,66
2025-02-26 15:18:46.158,-357.0,2296.0,-1600.0,41.0,-344.0,-755.0,150,60,59,81,66
2025-02-26 15:18:46.164,125.0,1890.0,-1549.0,24.0,-447.0,-814.0,154,63,60,85,69
2025-02-26 15:18:46.167,479.0,1603.0,-1477.0,-19.0,-495.0,-869.0,152,59,57,80,66
2025-02-26 15:18:46.175,1194.0,1439.0,-1392.0,-79.0,-594.0,-915.0,154,61,57,77,66
2025-02-26 15:18:46.180,2160.0,1224.0,-1323.0,-152.0,-697.0,-935.0,156,63,59,82,70
2025-02-26 15:18:46.184,3333.0,938.0,-1075.0,-247.0,-773.0,-944.0,160,67,66,86,74
2025-02-26 15:18:46.192,4436.0,267.0,-1118.0,-332.0,-814.0,-900.0,163,67,64,88,78
2025-02-26 15:18:46.194,5594.0,-1641.0,-402.0,-357.0,-789.0,-795.0,164,69,58,86,77
2025-02-26 15:18:46.201,6133.0,-3337.0,429.0,-429.0,-674.0,-668.0,160,66,63,84,73
2025-02-26 15:18:46.208,5958.0,-5230.0,1066.0,-469.0,-591.0,-509.0,162,66,62,85,75
2025-02-26 15:18:46.212,5914.0,-6668.0,1443.0,-427.0,-388.0,-333.0,162,67,61,84,73
2025-02-26 15:18:46.217,5763.0,-7261.0,1506.0,-321.0,-153.0,-264.0,161,65,62,83,74
2025-02-26 15:18:46.224,5431.0,-7331.0,1005.0,-141.0,55.0,-146.0,186,93,88,110,100
2025-02-26 15:18:46.229,4755.0,-6940.0,391.0,46.0,214.0,-81.0,207,116,114,134,123
2025-02-26 15:18:46.236,3549.0,-6063.0,-304.0,308.0,336.0,-64.0,212,120,118,136,124
2025-02-26 15:18:46.241,2514.0,-4612.0,-251.0,390.0,38.0,-14.0,194,98,98,117,106
2025-02-26 15:18:46.245,1802.0,-4979.0,-1291.0,374.0,290.0,24.0,186,95,88,106,92
2025-02-26 15:18:46.250,1511.0,-2312.0,-867.0,275.0,236.0,78.0,171,77,74,93,81
2025-02-26 15:18:46.257,871.0,-1994.0,-1161.0,171.0,134.0,84.0,166,73,67,88,78
2025-02-26 15:18:46.261,510.0,-1916.0,-1118.0,57.0,85.0,115.0,178,82,80,96,88
2025-02-26 15:18:46.265,216.0,-1599.0,-757.0,-3.0,39.0,129.0,173,78,75,96,86
2025-02-26 15:18:46.271,346.0,-1755.0,-556.0,-69.0,31.0,144.0,171,77,73,92,84
2025-02-26 15:18:46.278,311.0,-2087.0,-135.0,-117.0,-14.0,155.0,168,74,72,93,83
2025-02-26 15:18:46.281,605.0,-2252.0,-247.0,-91.0,-26.0,167.0,170,74,71,92,82
2025-02-26 15:18:46.286,558.0,-2102.0,-36.0,-81.0,-32.0,167.0,169,76,72,94,83
2025-02-26 15:18:46.294,783.0,-2271.0,101.0,-63.0,-13.0,173.0,167,73,68,91,80
2025-02-26 15:18:46.298,822.0,-1908.0,338.0,-30.0,-15.0,184.0,167,70,70,90,80
2025-02-26 15:18:46.303,727.0,-2248.0,400.0,-5.0,15.0,200.0,171,79,75,96,84
2025-02-26 15:18:46.307,665.0,-2133.0,393.0,-6.0,41.0,226.0,170,73,73,92,82
2025-02-26 15:18:46.311,705.0,-2198.0,361.0,19.0,38.0,256.0,168,71,68,89,78
2025-02-26 15:18:46.318,579.0,-2023.0,250.0,20.0,38.0,272.0,170,74,70,93,82
2025-02-26 15:18:46.323,546.0,-1677.0,175.0,24.0,49.0,283.0,171,75,72,95,84
2025-02-26 15:18:46.328,573.0,-1272.0,189.0,18.0,53.0,270.0,168,72,68,91,81
2025-02-26 15:18:46.332,620.0,-1216.0,156.0,26.0,57.0,257.0,172,77,74,95,84
2025-02-26 15:18:46.336,544.0,-937.0,134.0,25.0,68.0,238.0,169,73,70,93,82
2025-02-26 15:18:46.343,481.0,-808.0,175.0,-3.0,83.0,236.0,168,72,69,92,82
2025-02-26 15:18:46.348,297.0,-944.0,174.0,-31.0,95.0,233.0,170,74,70,91,82
2025-02-26 15:18:46.351,224.0,-772.0,50.0,-40.0,78.0,234.0,168,74,71,92,81
2025-02-26 15:18:46.357,177.0,-731.0,-17.0,-49.0,70.0,234.0,166,71,66,90,79
2025-02-26 15:18:46.363,107.0,-694.0,-70.0,-47.0,58.0,238.0,169,75,69,92,81
2025-02-26 15:18:46.367,39.0,-759.0,30.0,-50.0,42.0,239.0,169,73,70,90,81
2025-02-26 15:18:46.372,40.0,-811.0,37.0,-56.0,37.0,251.0,165,70,65,89,78
2025-02-26 15:18:46.376,36.0,-917.0,42.0,-59.0,29.0,259.0,167,72,69,91,79
2025-02-26 15:18:46.381,65.0,-908.0,31.0,-65.0,30.0,278.0,166,72,69,92,80
2025-02-26 15:18:46.385,7.0,-845.0,90.0,-77.0,36.0,296.0,166,73,69,92,80
2025-02-26 15:18:46.392,39.0,-863.0,2.0,-80.0,52.0,303.0,164,70,65,89,76
2025-02-26 15:18:46.397,46.0,-797.0,79.0,-80.0,55.0,315.0,166,70,67,89,76
2025-02-26 15:18:46.400,49.0,-562.0,131.0,-70.0,57.0,303.0,163,69,63,85,74
2025-02-26 15:18:46.404,62.0,-396.0,222.0,-33.0,68.0,289.0,164,67,67,87,75
2025-02-26 15:18:46.409,170.0,-198.0,290.0,11.0,78.0,256.0,163,70,66,87,76
2025-02-26 15:18:46.413,229.0,-202.0,320.0,32.0,85.0,235.0,164,66,63,85,74
2025-02-26 15:18:46.421,217.0,-259.0,327.0,62.0,104.0,229.0,162,64,62,85,72
2025-02-26 15:18:46.425,133.0,-346.0,360.0,71.0,118.0,229.0,164,68,64,89,75
2025-02-26 15:18:46.429,27.0,-342.0,241.0,72.0,137.0,240.0,162,67,64,85,73
2025-02-26 15:18:46.434,-19.0,-338.0,160.0,68.0,144.0,245.0,161,65,63,84,71
2025-02-26 15:18:46.442,-89.0,-282.0,154.0,52.0,154.0,254.0,163,68,64,84,74
2025-02-26 15:18:46.446,-111.0,-311.0,67.0,50.0,158.0,260.0,167,68,64,85,73
2025-02-26 15:18:46.450,-68.0,-292.0,2.0,54.0,143.0,261.0,162,68,63,86,73
2025-02-26 15:18:46.454,-209.0,-299.0,-45.0,71.0,125.0,259.0,162,66,64,86,74
2025-02-26 15:18:46.458,-321.0,-291.0,-38.0,73.0,100.0,263.0,161,67,63,85,73
2025-02-26 15:18:46.466,-314.0,-293.0,-113.0,67.0,91.0,272.0,162,71,64,85,75
2025-02-26 15:18:46.471,-306.0,-274.0,-114.0,58.0,85.0,277.0,161,67,62,86,74
2025-02-26 15:18:46.475,-294.0,-276.0,-88.0,53.0,80.0,287.0,160,65,62,86,73
2025-02-26 15:18:46.479,-241.0,-319.0,-57.0,44.0,78.0,297.0,161,64,61,84,70
2025-02-26 15:18:46.483,-182.0,-263.0,19.0,45.0,75.0,299.0,162,66,63,86,75
2025-02-26 15:18:46.491,-242.0,-188.0,111.0,49.0,69.0,298.0,163,65,64,85,73
2025-02-26 15:18:46.495,-262.0,-145.0,219.0,83.0,68.0,282.0,159,64,68,85,71
2025-02-26 15:18:46.499,-206.0,-141.0,334.0,140.0,80.0,268.0,161,65,63,89,74
2025-02-26 15:18:46.503,-13.0,-141.0,358.0,169.0,111.0,244.0,161,67,63,86,73
2025-02-26 15:18:46.511,70.0,-158.0,391.0,218.0,130.0,232.0,159,63,62,85,71
2025-02-26 15:18:46.515,66.0,-177.0,375.0,249.0,166.0,229.0,161,72,64,87,73
2025-02-26 15:18:46.519,-29.0,-226.0,267.0,267.0,189.0,232.0,161,66,64,87,73
2025-02-26 15:18:46.524,-141.0,-144.0,115.0,270.0,195.0,242.0,161,65,61,86,72
2025-02-26 15:18:46.531,-360.0,-107.0,-36.0,277.0,186.0,247.0,160,66,63,86,72
2025-02-26 15:18:46.535,-523.0,-28.0,-128.0,286.0,164.0,253.0,160,65,59,87,72
2025-02-26 15:18:46.540,-661.0,106.0,-229.0,290.0,148.0,254.0,159,63,62,85,71
2025-02-26 15:18:46.545,-688.0,210.0,-304.0,285.0,121.0,252.0,161,64,63,84,70
2025-02-26 15:18:46.552,-823.0,418.0,-280.0,276.0,90.0,240.0,159,66,65,86,72
2025-02-26 15:18:46.556,-848.0,644.0,-330.0,269.0,64.0,224.0,158,64,65,85,70
2025-02-26 15:18:46.561,-855.0,752.0,-349.0,249.0,55.0,218.0,157,64,62,84,72
2025-02-26 15:18:46.565,-898.0,975.0,-282.0,242.0,41.0,196.0,160,66,70,87,72
2025-02-26 15:18:46.569,-826.0,1246.0,-363.0,249.0,37.0,154.0,159,66,65,88,73
2025-02-26 15:18:46.577,-718.0,1537.0,-396.0,263.0,40.0,100.0,155,63,62,82,71
2025-02-26 15:18:46.581,-767.0,1613.0,-446.0,287.0,57.0,70.0,158,65,64,86,72
2025-02-26 15:18:46.585,-836.0,1931.0,-558.0,314.0,60.0,2.0,164,67,64,82,72
2025-02-26 15:18:46.590,-894.0,2300.0,-751.0,321.0,61.0,-79.0,158,64,62,87,71
2025-02-26 15:18:46.597,-1059.0,2505.0,-1115.0,334.0,54.0,-123.0,153,62,61,83,69
2025-02-26 15:18:46.602,-1289.0,2798.0,-1435.0,322.0,32.0,-220.0,156,65,63,85,71
2025-02-26 15:18:46.606,-1563.0,3137.0,-1540.0,286.0,-16.0,-326.0,158,66,59,85,71
2025-02-26 15:18:46.613,-1834.0,3388.0,-1824.0,261.0,-93.0,-442.0,156,65,63,85,71
2025-02-26 15:18:46.617,-2034.0,3535.0,-2016.0,184.0,-196.0,-564.0,156,64,62,84,69
2025-02-26 15:18:46.622,-2122.0,3522.0,-2244.0,86.0,-256.0,-689.0,157,67,64,86,70
2025-02-26 15:18:46.630,-2049.0,3488.0,-2500.0,-7.0,-396.0,-814.0,154,65,62,84,69
2025-02-26 15:18:46.634,-1536.0,3438.0,-2834.0,-105.0,-553.0,-876.0,154,63,60,84,69
2025-02-26 15:18:46.643,-673.0,3473.0,-3256.0,-221.0,-728.0,-977.0,156,65,63,86,70
2025-02-26 15:18:46.647,488.0,3486.0,-3389.0,-373.0,-930.0,-1033.0,157,69,63,85,71
2025-02-26 15:18:46.648,2124.0,2881.0,-3480.0,-548.0,-1117.0,-1051.0,156,65,61,86,72
2025-02-26 15:18:46.659,4279.0,1604.0,-3715.0,-628.0,-1253.0,-1018.0,158,66,62,85,71
2025-02-26 15:18:46.663,6412.0,-390.0,-3233.0,-776.0,-1287.0,-925.0,161,66,62,86,71
2025-02-26 15:18:46.667,7489.0,-2366.0,-2409.0,-891.0,-1220.0,-752.0,161,68,64,88,73
2025-02-26 15:18:46.675,7589.0,-4289.0,-1281.0,-1021.0,-994.0,-561.0,162,67,63,86,73
2025-02-26 15:18:46.678,7181.0,-6114.0,-210.0,-1094.0,-895.0,-355.0,163,69,65,89,75
2025-02-26 15:18:46.687,7134.0,-8018.0,458.0,-934.0,-621.0,-181.0,165,70,67,92,79
2025-02-26 15:18:46.690,7199.0,-9586.0,1358.0,-599.0,-212.0,-111.0,169,75,73,93,82
2025-02-26 15:18:46.696,7073.0,-9759.0,1429.0,-160.0,112.0,-31.0,194,106,101,121,110
2025-02-26 15:18:46.703,5536.0,-9249.0,-25.0,217.0,340.0,20.0,183,91,89,111,98
2025-02-26 15:18:46.708,3756.0,-6742.0,-1145.0,536.0,515.0,39.0,218,132,128,149,138
2025-02-26 15:18:46.712,2360.0,-4698.0,-2467.0,603.0,551.0,66.0,192,97,97,118,103
2025-02-26 15:18:46.720,1701.0,-2990.0,-321.0,499.0,562.0,168.0,216,129,126,146,134
2025-02-26 15:18:46.724,558.0,-2411.0,-3010.0,582.0,218.0,189.0,260,175,172,193,182
2025-02-26 15:18:46.729,-202.0,124.0,-1910.0,366.0,22.0,209.0,157,62,58,83,68
2025-02-26 15:18:46.736,-163.0,102.0,-1994.0,137.0,95.0,191.0,165,72,67,91,77
2025-02-26 15:18:46.740,-930.0,865.0,-1220.0,23.0,27.0,147.0,227,140,139,160,146
2025-02-26 15:18:46.745,-248.0,-828.0,-1055.0,-48.0,-80.0,130.0,234,148,146,167,155
2025-02-26 15:18:46.753,269.0,-980.0,-335.0,-100.0,-106.0,113.0,259,179,174,195,183
2025-02-26 15:18:46.757,130.0,-1812.0,-137.0,-87.0,-85.0,121.0,258,176,177,195,183
2025-02-26 15:18:46.762,242.0,-2875.0,129.0,-31.0,-81.0,128.0,264,182,179,200,189
2025-02-26 15:18:46.769,823.0,-2059.0,477.0,3.0,-23.0,138.0,269,185,185,206,194
2025-02-26 15:18:46.773,289.0,-2046.0,554.0,44.0,7.0,141.0,262,178,175,196,185
2025-02-26 15:18:46.778,778.0,-2106.0,625.0,82.0,35.0,152.0,264,183,180,201,189
2025-02-26 15:18:46.785,864.0,-1958.0,1198.0,61.0,118.0,177.0,278,198,194,216,206
2025-02-26 15:18:46.789,170.0,-1734.0,389.0,114.0,85.0,194.0,278,199,195,215,205
2025-02-26 15:18:46.794,333.0,-1406.0,237.0,124.0,79.0,216.0,267,182,181,201,192
2025-02-26 15:18:46.802,189.0,-1367.0,89.0,94.0,90.0,219.0,194,104,101,125,113
2025-02-26 15:18:46.805,120.0,-1148.0,110.0,55.0,99.0,230.0,232,146,143,166,153
2025-02-26 15:18:46.811,117.0,-1123.0,-2.0,36.0,78.0,237.0,185,95,93,117,103
2025-02-26 15:18:46.815,-60.0,-698.0,27.0,13.0,81.0,232.0,191,101,98,122,109
2025-02-26 15:18:46.823,66.0,-526.0,23.0,-53.0,93.0,230.0,238,154,150,173,161
2025-02-26 15:18:46.824,-36.0,-532.0,74.0,-100.0,83.0,219.0,211,122,117,140,128
2025-02-26 15:18:46.831,-39.0,-520.0,102.0,-98.0,56.0,209.0,210,122,117,142,133
2025-02-26 15:18:46.836,-4.0,-525.0,24.0,-82.0,44.0,196.0,218,133,127,149,136
2025-02-26 15:18:46.843,-1.0,-651.0,159.0,-83.0,36.0,194.0,209,120,115,139,129
2025-02-26 15:18:46.847,41.0,-656.0,272.0,-90.0,30.0,190.0,225,139,136,161,147
2025-02-26 15:18:46.852,41.0,-740.0,353.0,-95.0,36.0,199.0,210,124,119,140,131
2025-02-26 15:18:46.860,84.0,-827.0,254.0,-101.0,54.0,216.0,203,120,115,137,126
2025-02-26 15:18:46.864,22.0,-941.0,368.0,-109.0,65.0,236.0,205,117,114,136,124
2025-02-26 15:18:46.868,77.0,-820.0,366.0,-148.0,98.0,249.0,197,106,103,126,113
2025-02-26 15:18:46.872,182.0,-901.0,275.0,-153.0,134.0,276.0,202,115,113,134,123
2025-02-26 15:18:46.880,176.0,-839.0,241.0,-132.0,160.0,296.0,202,114,112,133,122
2025-02-26 15:18:46.883,96.0,-771.0,258.0,-124.0,161.0,306.0,206,117,115,137,125
2025-02-26 15:18:46.888,57.0,-794.0,131.0,-79.0,150.0,310.0,201,111,110,134,121
2025-02-26 15:18:46.896,60.0,-710.0,154.0,-49.0,144.0,314.0,211,124,119,143,130
2025-02-26 15:18:46.901,43.0,-770.0,150.0,-40.0,150.0,315.0,196,107,105,128,116
2025-02-26 15:18:46.905,74.0,-671.0,64.0,-6.0,174.0,324.0,198,109,108,129,117
2025-02-26 15:18:46.913,-18.0,-609.0,144.0,3.0,198.0,331.0,216,131,128,150,139
2025-02-26 15:18:46.917,-11.0,-576.0,94.0,17.0,205.0,342.0,177,86,86,109,96
2025-02-26 15:18:46.921,102.0,-513.0,70.0,23.0,200.0,347.0,182,93,94,118,105
2025-02-26 15:18:46.925,-15.0,-538.0,75.0,62.0,182.0,356.0,178,88,88,109,98
2025-02-26 15:18:46.930,5.0,-495.0,70.0,79.0,185.0,368.0,177,90,89,113,99
2025-02-26 15:18:46.937,15.0,-442.0,-57.0,106.0,185.0,371.0,174,87,85,107,97
2025-02-26 15:18:46.941,-21.0,-378.0,26.0,146.0,182.0,377.0,189,98,97,122,109
2025-02-26 15:18:46.946,-26.0,-210.0,-22.0,158.0,196.0,383.0,181,93,92,116,107
2025-02-26 15:18:46.950,-62.0,-244.0,-3.0,192.0,203.0,389.0,181,91,89,115,105
2025-02-26 15:18:46.958,59.0,-104.0,-49.0,219.0,209.0,389.0,176,89,89,113,104
2025-02-26 15:18:46.962,139.0,-139.0,202.0,268.0,230.0,393.0,178,93,93,119,111
2025-02-26 15:18:46.966,77.0,-13.0,-29.0,291.0,234.0,387.0,167,76,80,106,93
2025-02-26 15:18:46.971,57.0,176.0,-232.0,331.0,227.0,381.0,165,78,79,106,100
2025-02-26 15:18:46.979,-166.0,474.0,-206.0,363.0,212.0,368.0,163,81,82,113,104
2025-02-26 15:18:46.983,-526.0,1206.0,-969.0,365.0,152.0,347.0,166,82,82,110,106
2025-02-26 15:18:46.987,-751.0,1148.0,-465.0,380.0,140.0,338.0,167,84,82,115,108
2025-02-26 15:18:46.995,-835.0,1233.0,-730.0,378.0,125.0,302.0,163,82,81,113,109
2025-02-26 15:18:46.998,-880.0,1376.0,-1014.0,386.0,79.0,278.0,163,84,82,112,111
2025-02-26 15:18:47.004,-946.0,1335.0,-1300.0,404.0,19.0,231.0,165,90,89,122,117
2025-02-26 15:18:47.010,-1046.0,1375.0,-1332.0,418.0,-18.0,182.0,164,92,87,124,119
2025-02-26 15:18:47.016,-1211.0,1421.0,-1626.0,419.0,-65.0,135.0,164,95,89,129,122
2025-02-26 15:18:47.018,-1222.0,1650.0,-1870.0,428.0,-126.0,73.0,162,97,89,130,123
2025-02-26 15:18:47.027,-1095.0,1994.0,-2073.0,450.0,-191.0,9.0,163,100,90,131,124
2025-02-26 15:18:47.031,-1104.0,2525.0,-2157.0,420.0,-228.0,-85.0,160,103,92,131,123
2025-02-26 15:18:47.039,-1210.0,3131.0,-1985.0,391.0,-292.0,-188.0,156,107,89,128,124
2025-02-26 15:18:47.043,-1499.0,3247.0,-1986.0,340.0,-362.0,-291.0,156,107,91,131,125
2025-02-26 15:18:47.048,-1552.0,3234.0,-1436.0,263.0,-377.0,-406.0,162,116,98,141,134
2025-02-26 15:18:47.055,-1493.0,3235.0,-1808.0,191.0,-409.0,-520.0,165,117,101,138,135
2025-02-26 15:18:47.060,-974.0,3295.0,-2089.0,147.0,-474.0,-620.0,155,113,97,130,130
2025-02-26 15:18:47.066,-432.0,3028.0,-2212.0,91.0,-547.0,-666.0,154,114,103,132,130
2025-02-26 15:18:47.071,445.0,2618.0,-1940.0,39.0,-590.0,-711.0,154,112,104,127,128
2025-02-26 15:18:47.076,1081.0,1822.0,-1482.0,-53.0,-645.0,-762.0,157,113,111,132,132
2025-02-26 15:18:47.085,1681.0,1249.0,-567.0,-175.0,-732.0,-812.0,163,125,119,138,138
2025-02-26 15:18:47.089,2149.0,615.0,962.0,-273.0,-888.0,-843.0,166,131,125,142,141
2025-02-26 15:18:47.097,2928.0,250.0,1169.0,-257.0,-895.0,-828.0,168,131,125,142,139
2025-02-26 15:18:47.102,3616.0,-705.0,649.0,-327.0,-902.0,-768.0,168,131,122,140,136
2025-02-26 15:18:47.109,4656.0,-1499.0,643.0,-364.0,-887.0,-678.0,172,139,129,147,143
2025-02-26 15:18:47.114,4862.0,-2262.0,1292.0,-383.0,-814.0,-613.0,165,131,126,141,135
2025-02-26 15:18:47.118,4807.0,-3313.0,988.0,-395.0,-729.0,-500.0,177,141,135,149,145
2025-02-26 15:18:47.126,4586.0,-4225.0,63.0,-332.0,-677.0,-340.0,175,142,131,146,141
2025-02-26 15:18:47.130,4462.0,-5254.0,200.0,-353.0,-541.0,-186.0,169,137,128,145,139
2025-02-26 15:18:47.138,4172.0,-5633.0,601.0,-395.0,-395.0,-53.0,163,133,122,137,133
2025-02-26 15:18:47.139,4176.0,-5271.0,846.0,-374.0,-243.0,34.0,170,140,129,146,140
2025-02-26 15:18:47.147,3550.0,-5247.0,1041.0,-327.0,-85.0,106.0,172,139,130,145,142
2025-02-26 15:18:47.155,3203.0,-4994.0,581.0,-267.0,-35.0,135.0,166,138,125,139,136
2025-02-26 15:18:47.164,3006.0,-4538.0,429.0,-238.0,47.0,160.0,161,131,123,137,133
2025-02-26 15:18:47.168,2256.0,-4191.0,248.0,-178.0,102.0,193.0,168,138,127,144,138
2025-02-26 15:18:47.168,1281.0,-3650.0,640.0,16.0,200.0,212.0,161,129,120,136,134
2025-02-26 15:18:47.175,1320.0,-2968.0,309.0,92.0,207.0,233.0,161,132,120,136,132
2025-02-26 15:18:47.183,836.0,-2561.0,215.0,189.0,168.0,261.0,160,129,121,136,131
2025-02-26 15:18:47.187,645.0,-2087.0,299.0,184.0,112.0,289.0,160,129,119,135,131
2025-02-26 15:18:47.192,390.0,-1945.0,522.0,192.0,88.0,304.0,159,127,117,134,129
2025-02-26 15:18:47.196,536.0,-2114.0,180.0,159.0,79.0,331.0,156,124,113,132,128
2025-02-26 15:18:47.203,366.0,-1513.0,131.0,112.0,83.0,341.0,155,125,116,132,128
2025-02-26 15:18:47.207,521.0,-1334.0,668.0,88.0,157.0,340.0,157,130,116,133,130
2025-02-26 15:18:47.213,300.0,-1404.0,467.0,61.0,203.0,355.0,158,126,117,133,130
2025-02-26 15:18:47.218,139.0,-1350.0,388.0,67.0,206.0,355.0,161,130,121,138,133
2025-02-26 15:18:47.224,-52.0,-1505.0,200.0,92.0,167.0,351.0,159,129,120,139,132
2025-02-26 15:18:47.228,-44.0,-1563.0,-401.0,47.0,131.0,335.0,159,129,119,135,131
2025-02-26 15:18:47.236,33.0,-1333.0,-103.0,-16.0,104.0,327.0,159,128,118,135,131
2025-02-26 15:18:47.240,191.0,-1259.0,1010.0,122.0,156.0,318.0,159,129,119,136,132
2025-02-26 15:18:47.242,81.0,-1247.0,-382.0,184.0,140.0,305.0,161,130,121,137,132
2025-02-26 15:18:47.252,-84.0,-1224.0,26.0,194.0,161.0,279.0,161,129,121,138,134
2025-02-26 15:18:47.254,234.0,-1165.0,-122.0,195.0,145.0,273.0,157,128,119,136,133
2025-02-26 15:18:47.261,117.0,-1291.0,432.0,115.0,165.0,264.0,160,128,118,137,134
2025-02-26 15:18:47.269,51.0,-1047.0,202.0,63.0,163.0,265.0,158,132,118,137,133
2025-02-26 15:18:47.272,-65.0,-920.0,294.0,-9.0,243.0,270.0,157,124,115,135,134
2025-02-26 15:18:47.278,237.0,-633.0,158.0,6.0,230.0,262.0,159,126,116,135,132
2025-02-26 15:18:47.286,38.0,-437.0,356.0,-78.0,209.0,252.0,158,125,118,135,133
2025-02-26 15:18:47.290,-92.0,-362.0,318.0,-139.0,184.0,255.0,157,124,117,134,132
2025-02-26 15:18:47.294,-188.0,-276.0,433.0,-214.0,194.0,256.0,156,124,115,131,131
2025-02-26 15:18:47.302,-105.0,-232.0,-38.0,-235.0,172.0,265.0,156,122,114,132,131
2025-02-26 15:18:47.307,-342.0,-525.0,-328.0,-192.0,133.0,279.0,157,123,115,132,131
2025-02-26 15:18:47.310,-431.0,104.0,293.0,-293.0,139.0,269.0,157,125,114,133,131
2025-02-26 15:18:47.319,43.0,-186.0,-142.0,-250.0,74.0,280.0,155,123,116,132,133
2025-02-26 15:18:47.323,-362.0,-18.0,-8.0,-278.0,65.0,264.0,156,124,115,134,133
2025-02-26 15:18:47.327,-159.0,-58.0,-19.0,-291.0,53.0,269.0,159,124,116,133,133
2025-02-26 15:18:47.334,-107.0,33.0,84.0,-291.0,44.0,263.0,153,123,115,134,132
2025-02-26 15:18:47.339,-66.0,27.0,163.0,-253.0,43.0,260.0,153,122,117,131,132
2025-02-26 15:18:47.343,-150.0,-89.0,230.0,-191.0,74.0,261.0,154,123,115,133,133
2025-02-26 15:18:47.350,11.0,-119.0,104.0,-116.0,88.0,257.0,153,123,114,133,136
2025-02-26 15:18:47.355,-195.0,-79.0,-263.0,-76.0,67.0,251.0,154,121,114,133,133
2025-02-26 15:18:47.359,-259.0,-74.0,-93.0,0.0,65.0,249.0,152,121,114,132,131
2025-02-26 15:18:47.364,-434.0,-85.0,-85.0,81.0,67.0,248.0,155,122,114,134,133
2025-02-26 15:18:47.369,-474.0,186.0,-180.0,111.0,51.0,246.0,153,123,115,133,133
2025-02-26 15:18:47.376,-454.0,310.0,71.0,113.0,53.0,240.0,153,120,113,131,131
2025-02-26 15:18:47.380,-512.0,474.0,420.0,115.0,60.0,237.0,151,119,112,130,130
2025-02-26 15:18:47.387,-387.0,464.0,107.0,140.0,54.0,233.0,152,120,112,131,131
2025-02-26 15:18:47.392,-396.0,388.0,-4.0,165.0,61.0,228.0,154,118,112,131,131
2025-02-26 15:18:47.396,-440.0,409.0,-43.0,204.0,57.0,220.0,154,120,114,132,132
2025-02-26 15:18:47.401,-502.0,428.0,-140.0,234.0,56.0,215.0,154,122,114,133,133
2025-02-26 15:18:47.409,-458.0,478.0,-115.0,294.0,58.0,205.0,160,115,120,138,139
2025-02-26 15:18:47.410,-410.0,546.0,-108.0,346.0,50.0,192.0,161,126,121,138,139
2025-02-26 15:18:47.417,-331.0,612.0,-336.0,395.0,26.0,182.0,164,120,122,133,139
2025-02-26 15:18:47.425,-213.0,815.0,-128.0,458.0,-4.0,171.0,159,118,119,137,138
2025-02-26 15:18:47.429,-464.0,1079.0,-238.0,511.0,-19.0,161.0,154,123,115,133,133
2025-02-26 15:18:47.434,-642.0,1354.0,-236.0,543.0,-45.0,146.0,152,119,114,130,131
2025-02-26 15:18:47.441,-522.0,1609.0,-530.0,634.0,-58.0,104.0,151,118,112,131,133
2025-02-26 15:18:47.446,-695.0,1781.0,121.0,544.0,-45.0,41.0,153,119,113,131,134
2025-02-26 15:18:47.450,-766.0,1980.0,-449.0,397.0,-44.0,15.0,149,118,111,132,133
2025-02-26 15:18:47.458,-735.0,2023.0,-973.0,341.0,-100.0,-45.0,150,118,113,131,133
2025-02-26 15:18:47.462,-971.0,2078.0,-1140.0,315.0,-163.0,-111.0,151,119,111,130,133
2025-02-26 15:18:47.469,-1065.0,2201.0,-1339.0,265.0,-182.0,-181.0,151,120,111,132,135
2025-02-26 15:18:47.474,-1167.0,2168.0,-1429.0,210.0,-202.0,-251.0,149,119,113,131,135
2025-02-26 15:18:47.482,-1199.0,2150.0,-1331.0,154.0,-235.0,-332.0,150,120,112,130,134
2025-02-26 15:18:47.485,-1145.0,2171.0,-1306.0,109.0,-300.0,-422.0,153,123,114,131,135
2025-02-26 15:18:47.491,-1105.0,2171.0,-1249.0,64.0,-377.0,-514.0,150,122,113,130,134
2025-02-26 15:18:47.496,-971.0,2065.0,-1198.0,14.0,-440.0,-610.0,148,120,113,128,135
2025-02-26 15:18:47.503,-692.0,1865.0,-1107.0,-38.0,-488.0,-706.0,149,122,114,130,135
2025-02-26 15:18:47.511,-122.0,1769.0,-1017.0,-89.0,-548.0,-783.0,149,122,115,130,135
2025-02-26 15:18:47.515,787.0,1690.0,-1093.0,-150.0,-638.0,-800.0,147,122,113,130,136
2025-02-26 15:18:47.523,1789.0,1114.0,-778.0,-260.0,-712.0,-805.0,148,122,114,130,135
2025-02-26 15:18:47.526,2444.0,129.0,-53.0,-390.0,-735.0,-816.0,150,125,116,132,136
2025-02-26 15:18:47.532,3207.0,-788.0,663.0,-440.0,-758.0,-796.0,147,123,116,130,135
2025-02-26 15:18:47.540,3821.0,-1529.0,650.0,-449.0,-783.0,-745.0,151,124,115,132,134
2025-02-26 15:18:47.544,4461.0,-2131.0,257.0,-415.0,-770.0,-670.0,150,124,116,129,134
2025-02-26 15:18:47.551,4678.0,-2939.0,-7.0,-459.0,-712.0,-595.0,152,124,117,131,134
2025-02-26 15:18:47.556,4608.0,-3769.0,391.0,-490.0,-620.0,-493.0,151,124,116,130,132
2025-02-26 15:18:47.560,4541.0,-5174.0,-108.0,-424.0,-564.0,-354.0,151,124,115,131,132
2025-02-26 15:18:47.568,4180.0,-5917.0,-147.0,-407.0,-460.0,-219.0,152,126,117,131,133
2025-02-26 15:18:47.573,3650.0,-5741.0,140.0,-403.0,-281.0,-94.0,152,125,114,130,132
2025-02-26 15:18:47.580,3456.0,-5648.0,57.0,-318.0,-197.0,27.0,151,129,116,132,133
2025-02-26 15:18:47.584,3243.0,-5395.0,-127.0,-255.0,-93.0,115.0,149,124,115,130,132
2025-02-26 15:18:47.589,3091.0,-4971.0,266.0,-122.0,-18.0,159.0,154,128,118,132,135
2025-02-26 15:18:47.597,2645.0,-4193.0,428.0,40.0,95.0,176.0,152,126,117,133,133
2025-02-26 15:18:47.601,2224.0,-3718.0,369.0,141.0,160.0,187.0,155,127,120,135,136
2025-02-26 15:18:47.609,1414.0,-3111.0,369.0,257.0,192.0,206.0,153,127,118,134,133
2025-02-26 15:18:47.612,1142.0,-2657.0,655.0,287.0,188.0,216.0,153,126,118,134,134
2025-02-26 15:18:47.616,780.0,-2213.0,314.0,326.0,186.0,230.0,146,124,116,135,131
2025-02-26 15:18:47.623,296.0,-1970.0,-41.0,350.0,165.0,244.0,152,125,115,132,132
2025-02-26 15:18:47.630,391.0,-1334.0,520.0,273.0,175.0,253.0,152,125,115,131,132
2025-02-26 15:18:47.634,421.0,-1204.0,956.0,217.0,178.0,251.0,151,121,115,131,132
2025-02-26 15:18:47.642,322.0,-1222.0,539.0,201.0,211.0,253.0,153,123,115,131,132
2025-02-26 15:18:47.646,78.0,-1236.0,297.0,202.0,191.0,255.0,153,125,117,133,133
2025-02-26 15:18:47.650,-32.0,-1173.0,438.0,157.0,192.0,245.0,152,125,114,131,132
2025-02-26 15:18:47.658,103.0,-1013.0,252.0,119.0,189.0,225.0,152,122,114,131,131
2025-02-26 15:18:47.662,101.0,-856.0,608.0,48.0,199.0,212.0,150,122,113,131,130
2025-02-26 15:18:47.665,33.0,-1145.0,270.0,-22.0,200.0,209.0,149,121,114,131,132
2025-02-26 15:18:47.671,-108.0,-1069.0,8.0,-45.0,144.0,197.0,151,123,114,132,131
2025-02-26 15:18:47.678,16.0,-1012.0,226.0,-82.0,84.0,185.0,151,123,112,132,132
2025-02-26 15:18:47.683,-121.0,-1047.0,277.0,-79.0,79.0,192.0,150,120,113,130,131
2025-02-26 15:18:47.687,-274.0,-1135.0,338.0,-66.0,110.0,205.0,150,120,113,132,132
2025-02-26 15:18:47.695,42.0,-850.0,42.0,-89.0,141.0,211.0,151,121,112,130,131
2025-02-26 15:18:47.699,93.0,-799.0,670.0,-69.0,108.0,207.0,150,119,112,129,130
2025-02-26 15:18:47.703,-40.0,-906.0,372.0,-69.0,115.0,206.0,148,118,111,133,132
2025-02-26 15:18:47.707,109.0,-719.0,303.0,-75.0,128.0,202.0,149,119,113,130,132
2025-02-26 15:18:47.716,147.0,-646.0,383.0,-95.0,155.0,204.0,149,118,111,130,132
2025-02-26 15:18:47.719,83.0,-561.0,383.0,-135.0,170.0,211.0,149,115,110,131,130
2025-02-26 15:18:47.727,40.0,-480.0,368.0,-156.0,172.0,218.0,150,116,110,131,131
2025-02-26 15:18:47.731,-3.0,-508.0,481.0,-171.0,172.0,223.0,148,114,108,128,130
2025-02-26 15:18:47.737,-72.0,-417.0,433.0,-208.0,181.0,231.0,150,114,108,129,131
2025-02-26 15:18:47.744,-97.0,-403.0,389.0,-258.0,187.0,234.0,148,113,107,128,132
2025-02-26 15:18:47.748,-142.0,-357.0,280.0,-261.0,171.0,239.0,149,112,108,131,131
2025-02-26 15:18:47.752,-42.0,-399.0,199.0,-228.0,151.0,238.0,149,112,107,128,131
2025-02-26 15:18:47.761,-123.0,-291.0,264.0,-260.0,149.0,238.0,147,109,104,126,131
2025-02-26 15:18:47.765,-193.0,-315.0,-27.0,-264.0,123.0,242.0,147,105,104,126,130
2025-02-26 15:18:47.768,-199.0,-281.0,73.0,-230.0,98.0,243.0,147,104,102,127,129
2025-02-26 15:18:47.777,-225.0,-305.0,-17.0,-171.0,87.0,244.0,148,104,103,125,129
2025-02-26 15:18:47.781,-225.0,-303.0,-150.0,-144.0,69.0,243.0,149,101,102,126,129
2025-02-26 15:18:47.785,-247.0,-294.0,-187.0,-110.0,45.0,245.0,147,101,102,127,129
2025-02-26 15:18:47.793,-220.0,-220.0,-40.0,-106.0,42.0,246.0,150,96,98,126,128
2025-02-26 15:18:47.798,-233.0,-235.0,-42.0,-90.0,39.0,248.0,146,93,98,124,125
2025-02-26 15:18:47.802,-242.0,-276.0,111.0,-91.0,48.0,248.0,146,93,96,122,126
2025-02-26 15:18:47.809,-238.0,-283.0,45.0,-71.0,47.0,251.0,148,91,95,124,126
2025-02-26 15:18:47.814,-264.0,-291.0,56.0,-56.0,56.0,253.0,144,91,95,122,126
2025-02-26 15:18:47.818,-263.0,-259.0,61.0,-12.0,60.0,254.0,146,88,87,120,122
2025-02-26 15:18:47.822,-278.0,-323.0,84.0,39.0,64.0,257.0,144,87,89,120,122
2025-02-26 15:18:47.830,-307.0,-426.0,76.0,100.0,65.0,266.0,140,86,90,125,123
2025-02-26 15:18:47.834,-234.0,-297.0,-51.0,137.0,71.0,271.0,146,86,86,119,122
2025-02-26 15:18:47.839,-204.0,-314.0,-4.0,214.0,77.0,283.0,147,84,85,117,122
2025-02-26 15:18:47.840,-84.0,-310.0,-111.0,274.0,93.0,286.0,144,82,82,117,121
2025-02-26 15:18:47.851,-245.0,-201.0,-227.0,343.0,97.0,293.0,146,80,82,116,121
2025-02-26 15:18:47.855,-260.0,77.0,10.0,366.0,110.0,292.0,148,80,80,116,119
2025-02-26 15:18:47.859,-261.0,244.0,152.0,381.0,118.0,291.0,144,76,75,111,118
2025-02-26 15:18:47.863,-360.0,330.0,145.0,429.0,120.0,290.0,145,71,72,110,113
2025-02-26 15:18:47.870,-399.0,438.0,61.0,456.0,144.0,283.0,146,71,70,108,112
2025-02-26 15:18:47.875,-388.0,591.0,7.0,475.0,162.0,274.0,145,67,67,105,107
2025-02-26 15:18:47.879,-442.0,857.0,-83.0,524.0,169.0,244.0,144,63,63,101,101
2025-02-26 15:18:47.883,-444.0,974.0,-310.0,549.0,179.0,218.0,144,62,64,97,96
2025-02-26 15:18:47.892,-664.0,1406.0,-448.0,555.0,170.0,156.0,145,61,62,95,92
2025-02-26 15:18:47.895,-828.0,2089.0,-726.0,539.0,166.0,68.0,144,62,60,95,89
2025-02-26 15:18:47.901,-919.0,2678.0,-1177.0,486.0,159.0,-32.0,143,59,58,90,84
2025-02-26 15:18:47.908,-1256.0,2865.0,-1411.0,440.0,131.0,-83.0,142,59,60,92,82
2025-02-26 15:18:47.912,-1488.0,3090.0,-1832.0,371.0,69.0,-205.0,143,58,59,91,77
2025-02-26 15:18:47.916,-1725.0,3333.0,-2089.0,276.0,-28.0,-348.0,142,58,58,89,73
2025-02-26 15:18:47.924,-2104.0,4074.0,-2407.0,206.0,-124.0,-488.0,142,57,58,88,69
2025-02-26 15:18:47.929,-1849.0,3755.0,-2507.0,180.0,-230.0,-585.0,141,56,55,87,67
2025-02-26 15:18:47.933,-1449.0,3447.0,-2312.0,130.0,-361.0,-685.0,142,53,56,78,63
2025-02-26 15:18:47.938,-1180.0,3303.0,-2441.0,90.0,-441.0,-763.0,141,52,52,66,60
2025-02-26 15:18:47.945,-334.0,2926.0,-2266.0,67.0,-602.0,-797.0,142,52,52,76,58
2025-02-26 15:18:47.949,381.0,2824.0,-2040.0,39.0,-706.0,-860.0,142,52,52,75,59
2025-02-26 15:18:47.957,1227.0,2138.0,-1863.0,-40.0,-772.0,-901.0,144,50,51,74,58
2025-02-26 15:18:47.962,2130.0,1296.0,-1577.0,-131.0,-873.0,-923.0,143,52,50,70,59
2025-02-26 15:18:47.962,2875.0,488.0,-1633.0,-166.0,-993.0,-905.0,146,52,51,72,60
2025-02-26 15:18:47.974,3948.0,-218.0,-1042.0,-208.0,-1022.0,-827.0,145,48,50,70,59
2025-02-26 15:18:47.978,4608.0,-952.0,-14.0,-277.0,-1014.0,-691.0,147,49,48,68,58
2025-02-26 15:18:47.982,5948.0,-2663.0,1071.0,-412.0,-951.0,-607.0,149,51,47,69,59
2025-02-26 15:18:47.990,6540.0,-3870.0,2041.0,-495.0,-765.0,-434.0,149,53,50,69,59
2025-02-26 15:18:47.992,6968.0,-5535.0,2666.0,-479.0,-493.0,-288.0,150,53,49,68,59
2025-02-26 15:18:48.002,6874.0,-6362.0,2736.0,-377.0,-226.0,-179.0,150,53,51,67,60
2025-02-26 15:18:48.004,6270.0,-6552.0,2448.0,-177.0,45.0,-109.0,149,53,49,68,58
2025-02-26 15:18:48.011,4549.0,-6590.0,1776.0,-69.0,227.0,-50.0,149,50,50,67,56
2025-02-26 15:18:48.015,3761.0,-6222.0,831.0,108.0,279.0,17.0,147,51,49,65,53
2025-02-26 15:18:48.022,2131.0,-5459.0,-24.0,199.0,321.0,49.0,147,49,48,65,52
2025-02-26 15:18:48.027,1509.0,-4346.0,-221.0,183.0,320.0,107.0,150,53,52,63,52
2025-02-26 15:18:48.031,390.0,-1957.0,-1412.0,240.0,153.0,116.0,149,52,47,68,53
2025-02-26 15:18:48.039,-501.0,-1243.0,-1704.0,182.0,65.0,89.0,147,51,49,67,51
2025-02-26 15:18:48.040,-229.0,-1099.0,-116.0,21.0,-46.0,120.0,149,51,51,68,54
2025-02-26 15:18:48.047,105.0,-712.0,-473.0,-49.0,-118.0,103.0,151,53,51,69,56
2025-02-26 15:18:48.052,337.0,-1795.0,-244.0,-137.0,-95.0,101.0,152,53,52,68,56
2025-02-26 15:18:48.059,868.0,-2942.0,185.0,-102.0,-104.0,116.0,158,60,58,78,65
2025-02-26 15:18:48.063,687.0,-2555.0,475.0,-103.0,-81.0,116.0,154,55,55,72,60
2025-02-26 15:18:48.064,926.0,-2512.0,493.0,-103.0,-27.0,123.0,153,54,52,71,60
2025-02-26 15:18:48.072,923.0,-2881.0,776.0,-54.0,-4.0,145.0,154,54,58,72,61
2025-02-26 15:18:48.077,686.0,-2585.0,504.0,-24.0,17.0,160.0,154,62,54,71,59
2025-02-26 15:18:48.084,657.0,-1909.0,532.0,-19.0,32.0,174.0,153,54,52,72,60
2025-02-26 15:18:48.089,416.0,-2342.0,479.0,-15.0,61.0,175.0,153,64,53,71,61
2025-02-26 15:18:48.092,386.0,-1983.0,298.0,2.0,44.0,197.0,152,56,53,71,60
2025-02-26 15:18:48.101,253.0,-1752.0,269.0,-4.0,40.0,207.0,153,57,55,70,59
2025-02-26 15:18:48.105,255.0,-1689.0,153.0,-7.0,36.0,216.0,152,59,53,72,62
2025-02-26 15:18:48.109,264.0,-1559.0,229.0,-17.0,13.0,226.0,154,58,54,74,64
2025-02-26 15:18:48.113,206.0,-1489.0,153.0,-33.0,8.0,237.0,151,56,51,73,60
2025-02-26 15:18:48.118,211.0,-1503.0,174.0,-59.0,2.0,245.0,150,53,51,72,58
2025-02-26 15:18:48.125,241.0,-1427.0,161.0,-68.0,-1.0,248.0,151,57,54,73,60
2025-02-26 15:18:48.129,411.0,-999.0,339.0,-71.0,2.0,231.0,155,57,52,72,61
2025-02-26 15:18:48.134,493.0,-844.0,502.0,-76.0,13.0,215.0,151,55,51,71,61
2025-02-26 15:18:48.138,530.0,-857.0,510.0,-74.0,35.0,192.0,148,55,54,68,60
2025-02-26 15:18:48.145,374.0,-952.0,469.0,-80.0,47.0,190.0,152,54,53,72,61
2025-02-26 15:18:48.150,233.0,-1067.0,385.0,-90.0,55.0,196.0,147,56,52,70,61
2025-02-26 15:18:48.154,17.0,-1012.0,245.0,-88.0,54.0,202.0,152,56,53,77,62
2025-02-26 15:18:48.158,41.0,-971.0,281.0,-85.0,54.0,205.0,152,55,52,76,61
2025-02-26 15:18:48.163,59.0,-791.0,291.0,-92.0,59.0,210.0,151,56,53,73,60
2025-02-26 15:18:48.167,15.0,-887.0,5.0,-66.0,59.0,222.0,153,58,54,73,64
2025-02-26 15:18:48.174,41.0,-893.0,213.0,-57.0,52.0,235.0,152,55,53,73,61
2025-02-26 15:18:48.179,-40.0,-842.0,319.0,-82.0,51.0,246.0,153,56,52,73,60
2025-02-26 15:18:48.183,-41.0,-828.0,209.0,-71.0,70.0,253.0,153,56,54,76,61
2025-02-26 15:18:48.187,-153.0,-581.0,204.0,-100.0,60.0,267.0,152,58,54,75,62
2025-02-26 15:18:48.194,-185.0,-607.0,53.0,-102.0,67.0,272.0,152,54,53,74,61
2025-02-26 15:18:48.199,-201.0,-433.0,219.0,-83.0,61.0,266.0,152,58,55,74,61
2025-02-26 15:18:48.203,-98.0,-95.0,299.0,-77.0,58.0,236.0,151,58,56,71,60
2025-02-26 15:18:48.207,-49.0,-35.0,315.0,-55.0,71.0,200.0,152,55,53,74,61
2025-02-26 15:18:48.212,48.0,-53.0,354.0,-24.0,76.0,189.0,153,56,55,75,61
2025-02-26 15:18:48.220,-28.0,-18.0,351.0,-25.0,88.0,181.0,152,56,54,74,61
2025-02-26 15:18:48.224,-46.0,-50.0,251.0,-29.0,95.0,179.0,153,56,54,74,60
2025-02-26 15:18:48.228,-166.0,-21.0,225.0,-29.0,96.0,176.0,154,56,56,75,62
2025-02-26 15:18:48.232,-299.0,-50.0,204.0,-31.0,90.0,172.0,153,55,53,75,63
2025-02-26 15:18:48.237,-315.0,-72.0,224.0,-38.0,90.0,174.0,151,55,52,74,61
2025-02-26 15:18:48.244,-276.0,-65.0,220.0,-44.0,96.0,175.0,152,55,54,74,61
2025-02-26 15:18:48.248,-250.0,-84.0,214.0,-41.0,93.0,174.0,155,56,54,77,63
2025-02-26 15:18:48.253,-300.0,-72.0,248.0,-54.0,91.0,182.0,151,56,54,76,61
2025-02-26 15:18:48.257,-265.0,-137.0,112.0,-75.0,99.0,186.0,152,56,54,77,61
2025-02-26 15:18:48.261,-432.0,-27.0,67.0,-84.0,87.0,190.0,152,56,53,76,62
2025-02-26 15:18:48.268,-617.0,126.0,35.0,-83.0,73.0,185.0,152,57,55,76,62
2025-02-26 15:18:48.273,-616.0,269.0,45.0,-84.0,50.0,177.0,152,55,55,75,61
2025-02-26 15:18:48.277,-619.0,479.0,83.0,-67.0,33.0,150.0,151,55,54,77,63
2025-02-26 15:18:48.278,-576.0,600.0,172.0,-51.0,26.0,112.0,151,55,54,76,62
2025-02-26 15:18:48.285,-521.0,649.0,249.0,-23.0,24.0,93.0,152,57,54,76,61
2025-02-26 15:18:48.291,-462.0,716.0,262.0,-17.0,34.0,63.0,152,57,54,76,62
2025-02-26 15:18:48.297,-568.0,733.0,254.0,-16.0,37.0,44.0,150,57,55,76,60
2025-02-26 15:18:48.301,-648.0,738.0,234.0,-12.0,36.0,37.0,151,56,55,76,59
2025-02-26 15:18:48.305,-732.0,722.0,218.0,-2.0,29.0,27.0,153,57,56,80,64
2025-02-26 15:18:48.309,-797.0,711.0,191.0,11.0,22.0,20.0,151,56,55,76,60
2025-02-26 15:18:48.318,-792.0,675.0,193.0,45.0,21.0,19.0,150,56,52,74,56
2025-02-26 15:18:48.321,-824.0,661.0,203.0,83.0,24.0,18.0,151,55,55,77,61
2025-02-26 15:18:48.326,-875.0,778.0,260.0,105.0,36.0,6.0,153,57,57,77,61
2025-02-26 15:18:48.330,-898.0,1041.0,296.0,146.0,44.0,-5.0,151,56,53,74,61
2025-02-26 15:18:48.335,-960.0,1154.0,280.0,191.0,63.0,-33.0,153,56,54,77,60
2025-02-26 15:18:48.342,-1064.0,1444.0,188.0,210.0,75.0,-71.0,151,57,56,77,61
2025-02-26 15:18:48.347,-1110.0,1795.0,72.0,242.0,81.0,-123.0,153,58,55,76,60
2025-02-26 15:18:48.351,-1227.0,1991.0,58.0,262.0,82.0,-154.0,152,57,56,77,60
2025-02-26 15:18:48.355,-1341.0,2209.0,-56.0,269.0,67.0,-223.0,149,57,55,77,59
2025-02-26 15:18:48.363,-1411.0,2437.0,-258.0,280.0,55.0,-303.0,151,58,54,75,58
2025-02-26 15:18:48.367,-1435.0,2563.0,-503.0,276.0,20.0,-345.0,153,58,56,78,61
2025-02-26 15:18:48.371,-1440.0,2605.0,-635.0,272.0,-29.0,-430.0,151,57,55,78,61
2025-02-26 15:18:48.379,-1377.0,2733.0,-938.0,235.0,-111.0,-496.0,151,56,54,76,60
2025-02-26 15:18:48.384,-1405.0,2713.0,-1080.0,177.0,-161.0,-557.0,150,55,54,79,58
2025-02-26 15:18:48.388,-1156.0,2429.0,-1217.0,100.0,-271.0,-616.0,152,56,54,78,61
2025-02-26 15:18:48.395,-649.0,2336.0,-1270.0,8.0,-383.0,-645.0,152,57,51,76,60
2025-02-26 15:18:48.399,186.0,2315.0,-1432.0,-88.0,-488.0,-706.0,151,58,55,79,60
2025-02-26 15:18:48.404,1106.0,1673.0,-1350.0,-204.0,-586.0,-753.0,153,57,53,79,61
2025-02-26 15:18:48.412,2115.0,1088.0,-1031.0,-263.0,-608.0,-771.0,165,59,53,75,61
2025-02-26 15:18:48.416,3801.0,110.0,-247.0,-413.0,-581.0,-744.0,154,58,54,80,62
2025-02-26 15:18:48.421,4375.0,-1482.0,206.0,-530.0,-543.0,-653.0,153,56,55,78,61
2025-02-26 15:18:48.428,5255.0,-3075.0,269.0,-586.0,-426.0,-603.0,156,58,55,78,62
2025-02-26 15:18:48.433,5556.0,-3935.0,89.0,-533.0,-256.0,-490.0,154,60,55,78,62
2025-02-26 15:18:48.437,5628.0,-5446.0,238.0,-406.0,-96.0,-382.0,153,56,54,78,62
2025-02-26 15:18:48.445,5423.0,-6839.0,160.0,-218.0,54.0,-273.0,153,60,54,78,62
2025-02-26 15:18:48.449,4746.0,-7425.0,-234.0,-116.0,178.0,-154.0,154,58,54,79,62
2025-02-26 15:18:48.453,4238.0,-7044.0,-873.0,54.0,217.0,-50.0,149,57,53,76,60
2025-02-26 15:18:48.460,3106.0,-6627.0,-1796.0,197.0,259.0,-9.0,148,54,53,77,59
2025-02-26 15:18:48.465,2337.0,-4970.0,-1640.0,263.0,247.0,48.0,150,55,54,77,60
2025-02-26 15:18:48.469,1816.0,-4432.0,-1669.0,268.0,155.0,102.0,156,65,58,82,66
2025-02-26 15:18:48.473,996.0,-2476.0,-1467.0,242.0,111.0,144.0,154,60,57,81,64
2025-02-26 15:18:48.482,1297.0,-2358.0,-1752.0,179.0,115.0,162.0,150,60,56,79,63
2025-02-26 15:18:48.486,864.0,-2211.0,-1408.0,104.0,4.0,182.0,152,58,54,81,64
2025-02-26 15:18:48.490,756.0,-1853.0,-1152.0,19.0,14.0,180.0,151,59,59,84,64
2025-02-26 15:18:48.498,638.0,-1867.0,-666.0,1.0,-4.0,172.0,153,61,57,81,65
2025-02-26 15:18:48.502,535.0,-2089.0,-545.0,-36.0,-4.0,185.0,153,59,55,80,65
2025-02-26 15:18:48.506,210.0,-2312.0,-406.0,-31.0,-24.0,190.0,152,59,57,81,64
2025-02-26 15:18:48.510,272.0,-2190.0,-246.0,-19.0,-22.0,208.0,151,60,57,83,67
2025-02-26 15:18:48.518,229.0,-2434.0,-143.0,-11.0,-19.0,224.0,151,57,56,81,64
2025-02-26 15:18:48.521,292.0,-2238.0,-29.0,16.0,-20.0,237.0,152,55,55,81,64
2025-02-26 15:18:48.526,283.0,-2033.0,-2.0,32.0,3.0,242.0,150,59,56,79,65
2025-02-26 15:18:48.532,275.0,-1769.0,65.0,66.0,11.0,246.0,153,59,56,81,66
2025-02-26 15:18:48.542,346.0,-1739.0,216.0,85.0,12.0,244.0,151,56,57,80,65
2025-02-26 15:18:48.544,332.0,-1636.0,345.0,102.0,22.0,244.0,151,58,54,80,64
2025-02-26 15:18:48.547,340.0,-1494.0,329.0,106.0,36.0,239.0,153,58,57,83,65
2025-02-26 15:18:48.552,245.0,-1332.0,296.0,106.0,31.0,236.0,154,61,60,85,68
2025-02-26 15:18:48.556,297.0,-1160.0,233.0,116.0,33.0,233.0,153,59,59,85,69
2025-02-26 15:18:48.563,242.0,-1021.0,255.0,100.0,51.0,227.0,153,61,62,86,71
2025-02-26 15:18:48.567,215.0,-842.0,271.0,85.0,68.0,216.0,153,60,61,88,68
2025-02-26 15:18:48.572,211.0,-760.0,275.0,55.0,79.0,204.0,155,61,59,87,68
2025-02-26 15:18:48.576,248.0,-686.0,292.0,17.0,100.0,198.0,154,60,63,90,71
2025-02-26 15:18:48.580,262.0,-617.0,276.0,2.0,112.0,185.0,154,64,64,90,69
2025-02-26 15:18:48.588,212.0,-708.0,231.0,-21.0,120.0,180.0,153,63,63,89,68
2025-02-26 15:18:48.592,130.0,-808.0,256.0,-31.0,120.0,182.0,155,62,67,90,69
2025-02-26 15:18:48.597,125.0,-805.0,52.0,-26.0,115.0,185.0,154,62,66,93,68
2025-02-26 15:18:48.601,188.0,-1063.0,107.0,-29.0,114.0,205.0,153,60,67,91,69
2025-02-26 15:18:48.608,129.0,-1133.0,52.0,-35.0,111.0,217.0,152,60,67,89,68
2025-02-26 15:18:48.612,78.0,-1047.0,-10.0,-2.0,103.0,238.0,154,61,68,91,69
2025-02-26 15:18:48.616,108.0,-1242.0,-46.0,18.0,82.0,260.0,154,61,67,90,67
2025-02-26 15:18:48.621,222.0,-1211.0,7.0,48.0,86.0,268.0,151,60,67,91,67
2025-02-26 15:18:48.625,345.0,-1045.0,104.0,46.0,107.0,282.0,153,65,68,91,69
2025-02-26 15:18:48.633,408.0,-1080.0,138.0,43.0,118.0,295.0,154,64,69,93,69
2025-02-26 15:18:48.637,345.0,-1030.0,43.0,58.0,117.0,304.0,153,66,69,93,69
2025-02-26 15:18:48.642,468.0,-899.0,211.0,63.0,135.0,319.0,154,66,68,94,69
2025-02-26 15:18:48.645,552.0,-832.0,131.0,58.0,154.0,332.0,153,68,71,94,71
2025-02-26 15:18:48.650,540.0,-748.0,58.0,95.0,154.0,345.0,156,69,74,97,72
2025-02-26 15:18:48.658,388.0,-693.0,65.0,127.0,165.0,351.0,155,75,77,98,74
2025-02-26 15:18:48.661,308.0,-706.0,156.0,138.0,181.0,367.0,155,72,76,96,72
2025-02-26 15:18:48.666,311.0,-548.0,-19.0,160.0,180.0,377.0,154,72,76,95,70
2025-02-26 15:18:48.671,180.0,-495.0,-92.0,201.0,182.0,378.0,156,75,78,96,72
2025-02-26 15:18:48.678,90.0,-500.0,-25.0,229.0,188.0,382.0,152,78,77,95,70
2025-02-26 15:18:48.682,106.0,-359.0,-173.0,245.0,186.0,390.0,151,75,79,95,70
2025-02-26 15:18:48.686,175.0,-379.0,-210.0,260.0,194.0,393.0,153,78,80,94,70
2025-02-26 15:18:48.691,306.0,-225.0,26.0,263.0,202.0,397.0,151,79,81,94,70
2025-02-26 15:18:48.698,97.0,-248.0,-201.0,267.0,211.0,395.0,150,79,82,95,71
2025-02-26 15:18:48.703,155.0,-25.0,-221.0,266.0,205.0,389.0,153,84,86,99,72
2025-02-26 15:18:48.707,121.0,127.0,-345.0,276.0,215.0,385.0,155,89,91,104,77
2025-02-26 15:18:48.711,-4.0,320.0,-325.0,293.0,215.0,375.0,155,93,92,103,76
2025-02-26 15:18:48.719,-198.0,404.0,-220.0,298.0,216.0,364.0,152,89,91,101,74
2025-02-26 15:18:48.723,-255.0,431.0,-332.0,322.0,216.0,356.0,154,90,90,101,72
2025-02-26 15:18:48.728,-325.0,525.0,-488.0,326.0,199.0,340.0,155,95,94,104,76
2025-02-26 15:18:48.732,-439.0,753.0,-535.0,319.0,183.0,322.0,153,95,95,102,74
2025-02-26 15:18:48.740,-557.0,1182.0,-727.0,313.0,157.0,294.0,152,95,93,101,74
2025-02-26 15:18:48.744,-590.0,1623.0,-963.0,280.0,139.0,255.0,152,95,94,100,73
2025-02-26 15:18:48.748,-819.0,1822.0,-1223.0,236.0,96.0,228.0,152,98,97,104,74
2025-02-26 15:18:48.756,-1048.0,2264.0,-1436.0,198.0,36.0,163.0,154,99,97,106,76
2025-02-26 15:18:48.761,-1313.0,2444.0,-1741.0,160.0,-29.0,86.0,154,99,99,105,76
2025-02-26 15:18:48.765,-1422.0,2659.0,-1968.0,155.0,-95.0,-18.0,152,100,97,102,75
2025-02-26 15:18:48.773,-1561.0,2920.0,-1924.0,152.0,-124.0,-124.0,153,98,98,99,73
2025-02-26 15:18:48.777,-1625.0,3147.0,-1929.0,136.0,-187.0,-235.0,153,99,99,101,72
2025-02-26 15:18:48.781,-1617.0,3252.0,-1841.0,125.0,-247.0,-335.0,152,103,98,100,72
2025-02-26 15:18:48.789,-1377.0,3229.0,-1845.0,112.0,-308.0,-383.0,153,105,100,102,70
2025-02-26 15:18:48.793,-1166.0,3156.0,-1828.0,98.0,-375.0,-479.0,151,105,99,102,71
2025-02-26 15:18:48.801,-1191.0,2933.0,-1712.0,92.0,-451.0,-569.0,154,109,99,103,71
2025-02-26 15:18:48.805,-1090.0,2620.0,-1632.0,98.0,-528.0,-653.0,154,110,101,103,71
2025-02-26 15:18:48.809,-607.0,2259.0,-1380.0,89.0,-610.0,-727.0,154,111,100,103,72
2025-02-26 15:18:48.817,51.0,2468.0,-1464.0,52.0,-690.0,-795.0,151,112,103,104,72
2025-02-26 15:18:48.821,1002.0,2680.0,-1251.0,34.0,-751.0,-849.0,152,113,102,113,71
2025-02-26 15:18:48.825,1914.0,2321.0,-728.0,-31.0,-790.0,-877.0,149,115,106,107,73
2025-02-26 15:18:48.834,2531.0,1642.0,-244.0,-123.0,-818.0,-890.0,148,117,106,109,74
2025-02-26 15:18:48.838,2966.0,637.0,336.0,-199.0,-827.0,-864.0,146,118,105,110,74
2025-02-26 15:18:48.846,3093.0,-527.0,408.0,-242.0,-828.0,-802.0,146,118,108,110,74
2025-02-26 15:18:48.849,3359.0,-1773.0,681.0,-245.0,-803.0,-703.0,147,121,108,111,75
2025-02-26 15:18:48.854,3746.0,-2898.0,591.0,-224.0,-747.0,-644.0,145,123,108,111,75
2025-02-26 15:18:48.863,4079.0,-3350.0,668.0,-195.0,-673.0,-504.0,143,124,109,110,74
2025-02-26 15:18:48.866,4653.0,-3721.0,1008.0,-165.0,-570.0,-362.0,141,127,110,112,75
2025-02-26 15:18:48.875,5128.0,-4061.0,1212.0,-116.0,-438.0,-238.0,142,129,111,111,78
2025-02-26 15:18:48.878,5128.0,-4477.0,1517.0,-55.0,-284.0,-123.0,142,121,110,112,77
2025-02-26 15:18:48.884,4935.0,-4646.0,1624.0,13.0,-123.0,-32.0,141,128,110,109,75
2025-02-26 15:18:48.890,4466.0,-4459.0,1589.0,71.0,17.0,36.0,141,129,111,110,75
2025-02-26 15:18:48.896,3836.0,-3922.0,1522.0,95.0,129.0,73.0,140,129,111,107,72
2025-02-26 15:18:48.900,3155.0,-3385.0,1432.0,133.0,172.0,92.0,139,128,114,108,69
2025-02-26 15:18:48.907,2756.0,-2896.0,1214.0,150.0,231.0,105.0,138,128,110,106,67
2025-02-26 15:18:48.911,2071.0,-2441.0,1014.0,144.0,253.0,112.0,144,131,114,112,67
2025-02-26 15:18:48.915,1409.0,-2238.0,770.0,113.0,244.0,127.0,141,131,113,110,65
2025-02-26 15:18:48.924,958.0,-1890.0,676.0,67.0,214.0,142.0,141,131,114,110,66
2025-02-26 15:18:48.927,694.0,-1817.0,633.0,12.0,175.0,162.0,143,131,116,111,67
2025-02-26 15:18:48.932,580.0,-1640.0,553.0,-10.0,144.0,177.0,140,132,114,111,69
2025-02-26 15:18:48.940,487.0,-1629.0,550.0,-49.0,129.0,193.0,138,130,113,108,68
2025-02-26 15:18:48.944,497.0,-1656.0,495.0,-71.0,108.0,201.0,137,130,112,110,70
2025-02-26 15:18:48.949,503.0,-1670.0,515.0,-73.0,95.0,216.0,139,131,114,108,72
2025-02-26 15:18:48.956,472.0,-1655.0,459.0,-61.0,89.0,226.0,136,131,113,111,73
2025-02-26 15:18:48.961,497.0,-1646.0,538.0,-48.0,89.0,231.0,134,131,115,109,74
2025-02-26 15:18:48.964,481.0,-1578.0,515.0,-22.0,89.0,232.0,135,131,115,108,75
2025-02-26 15:18:48.970,389.0,-1453.0,553.0,0.0,96.0,231.0,136,127,111,111,78
2025-02-26 15:18:48.976,384.0,-1407.0,561.0,22.0,104.0,226.0,136,133,114,108,79
2025-02-26 15:18:48.982,277.0,-1323.0,599.0,35.0,114.0,225.0,135,133,113,107,79
2025-02-26 15:18:48.986,210.0,-1223.0,561.0,51.0,132.0,217.0,135,132,115,110,79
2025-02-26 15:18:48.993,211.0,-1000.0,654.0,45.0,130.0,219.0,133,130,115,109,78
2025-02-26 15:18:48.997,171.0,-1055.0,571.0,55.0,130.0,219.0,131,131,115,101,78
2025-02-26 15:18:49.002,138.0,-978.0,580.0,40.0,140.0,224.0,134,134,116,88,80
2025-02-26 15:18:49.006,8.0,-752.0,619.0,37.0,140.0,228.0,135,132,116,97,79
2025-02-26 15:18:49.014,104.0,-710.0,604.0,17.0,140.0,231.0,136,133,117,96,76
2025-02-26 15:18:49.018,59.0,-716.0,498.0,-3.0,138.0,236.0,135,131,115,97,78
2025-02-26 15:18:49.022,15.0,-656.0,532.0,-20.0,136.0,243.0,135,135,118,102,81
2025-02-26 15:18:49.027,6.0,-570.0,455.0,-34.0,134.0,253.0,138,134,118,104,81
2025-02-26 15:18:49.034,25.0,-500.0,439.0,-61.0,128.0,262.0,137,132,115,99,79
2025-02-26 15:18:49.038,71.0,-481.0,465.0,-89.0,123.0,266.0,138,134,116,108,81
2025-02-26 15:18:49.043,-2.0,-465.0,485.0,-114.0,121.0,272.0,139,134,118,110,80
2025-02-26 15:18:49.050,30.0,-361.0,520.0,-120.0,123.0,271.0,142,134,117,112,80
2025-02-26 15:18:49.055,-100.0,-350.0,478.0,-118.0,126.0,269.0,138,133,115,108,79
2025-02-26 15:18:49.060,-77.0,-331.0,377.0,-119.0,124.0,262.0,139,133,114,110,78
2025-02-26 15:18:49.067,-32.0,-383.0,439.0,-108.0,124.0,258.0,139,131,115,109,76
2025-02-26 15:18:49.072,-135.0,-467.0,416.0,-88.0,127.0,254.0,141,133,117,110,79
2025-02-26 15:18:49.075,-116.0,-468.0,428.0,-73.0,132.0,254.0,142,135,117,109,77
2025-02-26 15:18:49.080,-52.0,-390.0,377.0,-71.0,138.0,255.0,139,132,116,106,77
2025-02-26 15:18:49.088,-105.0,-375.0,354.0,-67.0,143.0,260.0,140,130,114,108,76
2025-02-26 15:18:49.092,-79.0,-348.0,342.0,-67.0,152.0,264.0,141,132,117,108,74
2025-02-26 15:18:49.096,-119.0,-342.0,301.0,-55.0,160.0,267.0,143,134,118,110,77
2025-02-26 15:18:49.103,-119.0,-423.0,287.0,-42.0,166.0,267.0,144,132,118,107,77
2025-02-26 15:18:49.108,-104.0,-368.0,309.0,-31.0,169.0,272.0,142,133,117,108,77
2025-02-26 15:18:49.113,-196.0,-418.0,281.0,1.0,175.0,266.0,143,131,116,105,76
2025-02-26 15:18:49.120,-188.0,-379.0,194.0,37.0,177.0,258.0,143,132,116,108,76
2025-02-26 15:18:49.124,-149.0,-292.0,176.0,55.0,183.0,257.0,144,122,118,108,77
2025-02-26 15:18:49.129,-150.0,-173.0,199.0,67.0,189.0,251.0,145,126,119,110,79
2025-02-26 15:18:49.133,-209.0,-29.0,179.0,67.0,192.0,246.0,143,131,118,104,78
2025-02-26 15:18:49.139,-280.0,179.0,115.0,67.0,190.0,238.0,143,131,116,106,78
2025-02-26 15:18:49.146,-345.0,287.0,37.0,60.0,182.0,234.0,143,128,117,106,76
2025-02-26 15:18:49.149,-502.0,451.0,-64.0,54.0,166.0,222.0,146,133,120,110,79
2025-02-26 15:18:49.157,-487.0,480.0,12.0,58.0,155.0,210.0,145,134,116,108,78
2025-02-26 15:18:49.161,-521.0,663.0,-199.0,47.0,147.0,194.0,143,130,117,108,76
2025-02-26 15:18:49.165,-563.0,726.0,-297.0,50.0,132.0,183.0,144,132,117,108,77
2025-02-26 15:18:49.168,-641.0,815.0,-656.0,43.0,108.0,157.0,145,132,117,108,78
2025-02-26 15:18:49.177,-702.0,989.0,-477.0,70.0,101.0,132.0,143,132,117,107,77
2025-02-26 15:18:49.181,-839.0,1211.0,-614.0,72.0,83.0,104.0,146,131,117,109,76
2025-02-26 15:18:49.187,-912.0,1549.0,-799.0,90.0,70.0,62.0,143,130,116,106,75
2025-02-26 15:18:49.194,-1136.0,1733.0,-945.0,96.0,37.0,39.0,143,133,117,104,77
2025-02-26 15:18:49.198,-1285.0,2009.0,-1194.0,104.0,-6.0,-21.0,146,133,118,106,76
2025-02-26 15:18:49.203,-1376.0,2237.0,-1259.0,123.0,-48.0,-92.0,144,133,117,107,76
2025-02-26 15:18:49.211,-1419.0,2421.0,-1349.0,149.0,-92.0,-169.0,146,135,120,107,80
2025-02-26 15:18:49.215,-1481.0,2593.0,-1381.0,160.0,-143.0,-255.0,145,134,118,106,77
2025-02-26 15:18:49.222,-1481.0,2715.0,-1400.0,165.0,-206.0,-345.0,144,134,119,108,75
2025-02-26 15:18:49.227,-1484.0,2846.0,-1528.0,168.0,-283.0,-428.0,143,133,118,107,76
2025-02-26 15:18:49.230,-1243.0,2797.0,-1502.0,160.0,-363.0,-506.0,140,133,117,107,78
2025-02-26 15:18:49.239,-1050.0,2558.0,-1454.0,157.0,-448.0,-581.0,143,135,118,106,77
2025-02-26 15:18:49.243,-629.0,2255.0,-1360.0,162.0,-527.0,-653.0,142,133,119,107,82
2025-02-26 15:18:49.251,19.0,2192.0,-1223.0,156.0,-594.0,-723.0,144,135,119,107,78
2025-02-26 15:18:49.256,394.0,2206.0,-729.0,128.0,-625.0,-786.0,143,136,119,107,77
2025-02-26 15:18:49.260,1302.0,1852.0,-86.0,62.0,-669.0,-844.0,140,135,121,108,78
2025-02-26 15:18:49.266,1889.0,1533.0,554.0,-17.0,-699.0,-867.0,140,136,119,109,78
2025-02-26 15:18:49.272,2500.0,485.0,972.0,-61.0,-705.0,-894.0,146,137,120,110,82
2025-02-26 15:18:49.277,3137.0,476.0,823.0,-84.0,-717.0,-893.0,139,139,122,112,83
2025-02-26 15:18:49.285,3903.0,-265.0,746.0,-104.0,-710.0,-842.0,137,138,123,110,82
2025-02-26 15:18:49.289,4412.0,-1768.0,1108.0,-98.0,-639.0,-732.0,138,138,123,113,83
2025-02-26 15:18:49.297,4403.0,-3519.0,1105.0,-97.0,-546.0,-553.0,138,138,121,110,82
2025-02-26 15:18:49.301,4548.0,-3985.0,1343.0,-101.0,-423.0,-346.0,135,136,121,112,83
2025-02-26 15:18:49.306,5118.0,-4645.0,1353.0,-124.0,-301.0,-168.0,135,136,121,112,83
2025-02-26 15:18:49.313,5066.0,-4895.0,1456.0,-121.0,-173.0,-24.0,136,137,121,113,81
2025-02-26 15:18:49.317,4980.0,-4807.0,1506.0,-98.0,-111.0,72.0,137,136,118,111,79
2025-02-26 15:18:49.321,4515.0,-4274.0,1510.0,-58.0,1.0,112.0,135,137,121,110,78
2025-02-26 15:18:49.329,3791.0,-4002.0,1484.0,-4.0,93.0,119.0,136,127,122,111,76
2025-02-26 15:18:49.333,2988.0,-3365.0,1422.0,45.0,162.0,110.0,138,136,121,113,75
2025-02-26 15:18:49.338,2213.0,-2797.0,1142.0,78.0,190.0,88.0,145,144,128,119,79
2025-02-26 15:18:49.346,1597.0,-2329.0,1019.0,83.0,189.0,68.0,142,142,126,117,71
2025-02-26 15:18:49.350,1083.0,-2142.0,675.0,71.0,180.0,62.0,142,141,125,117,70
2025-02-26 15:18:49.354,878.0,-1951.0,552.0,34.0,157.0,80.0,141,139,123,114,69
2025-02-26 15:18:49.362,570.0,-2046.0,557.0,10.0,131.0,92.0,141,140,123,116,73
2025-02-26 15:18:49.366,476.0,-1987.0,512.0,-17.0,106.0,119.0,141,139,122,116,70
2025-02-26 15:18:49.370,457.0,-1925.0,520.0,-30.0,85.0,140.0,143,140,124,116,71
2025-02-26 15:18:49.379,505.0,-1820.0,538.0,-50.0,79.0,156.0,140,139,123,114,70
2025-02-26 15:18:49.382,496.0,-1730.0,588.0,-61.0,69.0,161.0,146,138,122,112,72
2025-02-26 15:18:49.386,457.0,-1730.0,654.0,-59.0,71.0,169.0,143,139,124,115,77
2025-02-26 15:18:49.391,402.0,-1731.0,694.0,-43.0,72.0,173.0,144,140,122,116,79
2025-02-26 15:18:49.399,390.0,-1619.0,645.0,-38.0,78.0,174.0,146,139,122,114,80
2025-02-26 15:18:49.403,397.0,-1505.0,649.0,-20.0,79.0,172.0,145,138,120,114,80
2025-02-26 15:18:49.407,383.0,-1415.0,662.0,-6.0,83.0,171.0,142,138,121,115,83
2025-02-26 15:18:49.415,412.0,-1372.0,702.0,6.0,92.0,169.0,145,140,121,107,85
2025-02-26 15:18:49.419,379.0,-1342.0,690.0,28.0,95.0,168.0,145,140,121,109,87
2025-02-26 15:18:49.423,286.0,-1316.0,518.0,8.0,112.0,174.0,144,138,120,111,87
2025-02-26 15:18:49.428,418.0,-1171.0,729.0,21.0,106.0,177.0,146,140,122,114,90
2025-02-26 15:18:49.436,303.0,-1053.0,626.0,1.0,116.0,180.0,147,140,120,114,91
2025-02-26 15:18:49.440,339.0,-959.0,625.0,-18.0,119.0,189.0,144,139,122,115,92
2025-02-26 15:18:49.442,205.0,-944.0,655.0,-20.0,120.0,199.0,146,138,118,112,92
2025-02-26 15:18:49.452,297.0,-911.0,617.0,-46.0,123.0,214.0,147,139,120,105,91
2025-02-26 15:18:49.453,273.0,-799.0,574.0,-70.0,124.0,221.0,146,137,117,104,91
2025-02-26 15:18:49.461,240.0,-822.0,548.0,-93.0,124.0,236.0,146,138,118,101,92
2025-02-26 15:18:49.465,244.0,-735.0,505.0,-115.0,123.0,252.0,147,138,117,113,92
2025-02-26 15:18:49.472,191.0,-737.0,490.0,-122.0,122.0,265.0,148,135,117,113,92
2025-02-26 15:18:49.477,158.0,-649.0,470.0,-144.0,123.0,281.0,147,136,115,113,92
2025-02-26 15:18:49.482,170.0,-593.0,432.0,-162.0,121.0,294.0,146,132,112,110,91
2025-02-26 15:18:49.489,98.0,-583.0,397.0,-174.0,118.0,300.0,146,134,113,113,91
2025-02-26 15:18:49.494,126.0,-546.0,421.0,-173.0,120.0,307.0,150,134,110,113,92
2025-02-26 15:18:49.496,60.0,-532.0,382.0,-171.0,119.0,312.0,147,131,109,113,93
2025-02-26 15:18:49.505,2.0,-562.0,459.0,-170.0,120.0,324.0,148,130,109,112,91
2025-02-26 15:18:49.509,4.0,-501.0,570.0,-171.0,126.0,330.0,151,128,107,111,90
2025-02-26 15:18:49.514,34.0,-499.0,567.0,-184.0,137.0,333.0,150,125,105,105,90
2025-02-26 15:18:49.522,129.0,-439.0,598.0,-194.0,155.0,342.0,149,125,105,108,89
2025-02-26 15:18:49.526,83.0,-508.0,607.0,-199.0,176.0,357.0,150,121,101,101,86
2025-02-26 15:18:49.530,111.0,-583.0,617.0,-202.0,200.0,380.0,150,120,99,89,86
2025-02-26 15:18:49.534,161.0,-560.0,529.0,-193.0,207.0,398.0,150,117,97,107,84
2025-02-26 15:18:49.542,97.0,-558.0,529.0,-169.0,227.0,405.0,149,115,95,108,86
2025-02-26 15:18:49.546,292.0,-527.0,638.0,-147.0,237.0,438.0,151,110,91,106,86
2025-02-26 15:18:49.551,-143.0,-634.0,212.0,-112.0,222.0,425.0,152,107,89,110,83
2025-02-26 15:18:49.558,229.0,-643.0,368.0,-85.0,226.0,421.0,149,102,86,104,83
2025-02-26 15:18:49.563,128.0,-480.0,286.0,-53.0,219.0,419.0,153,98,83,104,82
2025-02-26 15:18:49.567,20.0,-363.0,210.0,-15.0,212.0,405.0,152,95,82,107,84
2025-02-26 15:18:49.571,-55.0,-271.0,147.0,3.0,212.0,385.0,150,101,78,106,79
2025-02-26 15:18:49.579,-115.0,21.0,147.0,59.0,210.0,367.0,150,89,77,104,83
2025-02-26 15:18:49.583,-291.0,131.0,82.0,118.0,203.0,357.0,150,87,74,105,83
2025-02-26 15:18:49.588,-222.0,424.0,-19.0,177.0,178.0,324.0,152,87,75,104,82
2025-02-26 15:18:49.592,-438.0,842.0,-155.0,185.0,140.0,274.0,145,84,73,104,80
2025-02-26 15:18:49.599,-480.0,1335.0,-360.0,213.0,120.0,223.0,149,82,72,104,79
2025-02-26 15:18:49.604,-437.0,1324.0,-474.0,236.0,81.0,195.0,149,82,74,103,80
2025-02-26 15:18:49.608,-452.0,1781.0,-550.0,234.0,67.0,138.0,149,81,71,104,77
2025-02-26 15:18:49.613,-511.0,2014.0,-702.0,234.0,60.0,78.0,149,78,70,104,76
2025-02-26 15:18:49.621,-434.0,2330.0,-675.0,219.0,56.0,14.0,148,72,66,99,72
2025-02-26 15:18:49.624,-397.0,2354.0,-834.0,211.0,65.0,-22.0,149,75,66,101,73
2025-02-26 15:18:49.628,-385.0,2589.0,-947.0,210.0,75.0,-108.0,148,71,65,101,72
2025-02-26 15:18:49.633,-812.0,2694.0,-1113.0,209.0,62.0,-179.0,148,67,60,99,70
2025-02-26 15:18:49.641,-880.0,2856.0,-1202.0,187.0,56.0,-258.0,147,62,58,99,68
2025-02-26 15:18:49.645,-1046.0,2868.0,-1323.0,163.0,8.0,-293.0,145,62,59,100,68
2025-02-26 15:18:49.649,-1228.0,2830.0,-1596.0,161.0,-69.0,-350.0,148,62,62,104,69
2025-02-26 15:18:49.657,-1276.0,2659.0,-1709.0,146.0,-147.0,-397.0,147,62,61,102,67
2025-02-26 15:18:49.661,-1091.0,2411.0,-1803.0,125.0,-223.0,-433.0,145,63,59,102,66
2025-02-26 15:18:49.669,-1027.0,2118.0,-1819.0,112.0,-312.0,-471.0,145,62,61,103,67
2025-02-26 15:18:49.673,-865.0,2016.0,-1744.0,111.0,-382.0,-519.0,143,60,66,103,65
2025-02-26 15:18:49.678,-544.0,1996.0,-1622.0,102.0,-446.0,-579.0,143,62,62,104,66
2025-02-26 15:18:49.684,-191.0,1978.0,-1574.0,75.0,-489.0,-639.0,143,61,61,103,66
2025-02-26 15:18:49.690,27.0,1957.0,-1518.0,28.0,-573.0,-691.0,144,61,62,106,67
2025-02-26 15:18:49.694,681.0,1866.0,-1408.0,-49.0,-655.0,-712.0,147,62,62,107,67
2025-02-26 15:18:49.702,1324.0,1736.0,-1310.0,-136.0,-734.0,-747.0,148,63,62,107,68
2025-02-26 15:18:49.706,2119.0,1246.0,-1213.0,-235.0,-818.0,-757.0,151,62,62,107,68
2025-02-26 15:18:49.709,3204.0,460.0,-1010.0,-325.0,-870.0,-705.0,154,63,64,108,70
2025-02-26 15:18:49.719,4234.0,-497.0,-267.0,-371.0,-843.0,-603.0,155,64,64,108,68
2025-02-26 15:18:49.723,5262.0,-1921.0,727.0,-450.0,-721.0,-465.0,154,64,66,115,67
2025-02-26 15:18:49.731,5541.0,-3736.0,1674.0,-519.0,-622.0,-349.0,155,64,63,109,69
2025-02-26 15:18:49.735,5687.0,-5234.0,2403.0,-529.0,-399.0,-281.0,154,64,63,109,70
2025-02-26 15:18:49.740,5470.0,-6167.0,2319.0,-444.0,-187.0,-220.0,154,63,62,110,69
2025-02-26 15:18:49.747,4921.0,-6513.0,1786.0,-280.0,2.0,-191.0,153,62,59,106,67
2025-02-26 15:18:49.751,3794.0,-6695.0,1001.0,-75.0,146.0,-128.0,157,64,62,111,70
2025-02-26 15:18:49.755,2833.0,-6554.0,481.0,91.0,234.0,-65.0,167,78,76,122,84
2025-02-26 15:18:49.759,2012.0,-5571.0,13.0,147.0,253.0,-5.0,168,77,75,122,82
2025-02-26 15:18:49.768,1842.0,-5544.0,-1217.0,268.0,280.0,27.0,159,67,67,108,71
2025-02-26 15:18:49.769,1226.0,-3860.0,-586.0,257.0,212.0,58.0,161,68,72,110,71
2025-02-26 15:18:49.776,796.0,-3422.0,-1014.0,261.0,119.0,94.0,160,65,67,104,72
2025-02-26 15:18:49.782,1024.0,-2352.0,-937.0,183.0,129.0,117.0,162,66,67,107,71
2025-02-26 15:18:49.788,65.0,-1908.0,-500.0,131.0,-6.0,146.0,158,68,67,109,71
2025-02-26 15:18:49.792,291.0,-1935.0,-844.0,20.0,38.0,136.0,155,66,65,102,72
2025-02-26 15:18:49.797,431.0,-1726.0,-391.0,-39.0,10.0,126.0,158,69,66,114,72
2025-02-26 15:18:49.805,311.0,-1805.0,-608.0,-66.0,-31.0,125.0,158,69,69,113,71
2025-02-26 15:18:49.809,310.0,-2517.0,-206.0,-87.0,-11.0,136.0,157,67,67,112,73
2025-02-26 15:18:49.813,399.0,-2567.0,-195.0,-55.0,-22.0,155.0,157,68,66,112,72
2025-02-26 15:18:49.821,283.0,-2547.0,190.0,-52.0,-56.0,162.0,156,67,66,113,72
2025-02-26 15:18:49.825,513.0,-2556.0,305.0,-29.0,-29.0,162.0,158,69,69,115,75
2025-02-26 15:18:49.830,580.0,-2414.0,359.0,23.0,-10.0,161.0,162,72,73,117,77
2025-02-26 15:18:49.834,519.0,-2241.0,465.0,36.0,13.0,172.0,159,70,69,114,75
2025-02-26 15:18:49.841,533.0,-2174.0,496.0,72.0,30.0,177.0,158,70,69,113,74
2025-02-26 15:18:49.846,421.0,-2147.0,557.0,90.0,35.0,194.0,162,70,69,115,73
2025-02-26 15:18:49.848,398.0,-1805.0,617.0,86.0,48.0,210.0,159,69,71,116,76
2025-02-26 15:18:49.853,376.0,-1569.0,521.0,80.0,53.0,218.0,159,70,69,114,74
2025-02-26 15:18:49.862,289.0,-1494.0,457.0,70.0,54.0,216.0,159,72,72,115,75
