timestamp,ax,ay,az,gx,gy,gz,flex1,flex2,flex3,flex4,flex5,emg1,emg2,emg3
2025-02-26 15:33:31.814,-221.0,8.0,1006.0,-3.0,0.0,-5.0,140,108,93,117,108
2025-02-26 15:33:31.820,-222.0,3.0,1008.0,-3.0,0.0,-5.0,141,105,93,117,110
2025-02-26 15:33:31.822,-224.0,2.0,996.0,-3.0,0.0,-5.0,141,105,93,115,109
2025-02-26 15:33:31.824,-223.0,2.0,1000.0,-3.0,0.0,-4.0,139,104,94,118,109
2025-02-26 15:33:31.826,-224.0,2.0,995.0,-3.0,0.0,-5.0,141,106,94,118,109
2025-02-26 15:33:31.828,-219.0,4.0,994.0,-3.0,-1.0,-5.0,141,104,93,117,109
2025-02-26 15:33:31.830,-217.0,1.0,991.0,-3.0,-2.0,-4.0,140,105,94,118,109
2025-02-26 15:33:31.832,-220.0,-4.0,993.0,-3.0,-1.0,-4.0,140,104,93,117,107
2025-02-26 15:33:31.832,-218.0,-2.0,999.0,-4.0,-2.0,-4.0,140,105,93,117,109
2025-02-26 15:33:31.832,-215.0,-3.0,992.0,-4.0,-2.0,-4.0,140,105,95,117,108
2025-02-26 15:33:31.837,-218.0,-2.0,996.0,-4.0,-2.0,-3.0,140,105,93,117,109
2025-02-26 15:33:31.837,-215.0,-11.0,1000.0,-4.0,-2.0,-3.0,140,105,95,117,108
2025-02-26 15:33:31.837,-214.0,-12.0,999.0,-4.0,-3.0,-3.0,141,105,93,116,109
2025-02-26 15:33:31.837,-224.0,-25.0,1003.0,-3.0,-2.0,-2.0,139,105,93,117,109
2025-02-26 15:33:31.837,-209.0,-14.0,1014.0,-3.0,-2.0,-1.0,140,105,93,116,109
2025-02-26 15:33:31.850,-212.0,-12.0,997.0,-3.0,-2.0,-1.0,140,105,93,124,108
2025-02-26 15:33:31.853,-217.0,-8.0,1009.0,-2.0,-2.0,-1.0,138,105,93,117,109
2025-02-26 15:33:31.856,-210.0,-9.0,1005.0,-2.0,-1.0,-1.0,141,104,94,118,110
2025-02-26 15:33:31.856,-216.0,-5.0,1011.0,-2.0,-1.0,-1.0,140,105,93,117,109
2025-02-26 15:33:31.856,-220.0,0.0,1011.0,-1.0,0.0,-1.0,140,105,93,116,110
2025-02-26 15:33:31.862,-212.0,1.0,1004.0,0.0,0.0,-1.0,139,105,95,117,109
2025-02-26 15:33:31.862,-222.0,2.0,1008.0,0.0,0.0,-2.0,140,106,93,118,110
2025-02-26 15:33:31.862,-216.0,7.0,1007.0,1.0,0.0,-2.0,140,105,94,117,110
2025-02-26 15:33:31.868,-226.0,5.0,1002.0,1.0,0.0,-2.0,140,105,95,117,109
2025-02-26 15:33:31.868,-228.0,3.0,1001.0,1.0,0.0,-1.0,140,104,93,117,109
2025-02-26 15:33:31.874,-228.0,3.0,1001.0,1.0,0.0,-1.0,140,104,93,117,109
2025-02-26 15:33:31.876,-229.0,4.0,997.0,1.0,-1.0,-1.0,141,105,93,117,110
2025-02-26 15:33:31.878,-231.0,8.0,1004.0,1.0,-1.0,-1.0,140,104,91,117,109
2025-02-26 15:33:31.880,-235.0,6.0,1001.0,1.0,-2.0,-1.0,140,105,92,117,110
2025-02-26 15:33:31.880,-230.0,5.0,1005.0,0.0,-3.0,-1.0,140,105,95,116,108
2025-02-26 15:33:31.880,-227.0,10.0,1007.0,0.0,-3.0,-1.0,141,104,95,120,108
2025-02-26 15:33:31.886,-228.0,8.0,1013.0,-1.0,-3.0,-1.0,140,105,90,116,110
2025-02-26 15:33:31.889,-223.0,9.0,1018.0,-1.0,-3.0,-1.0,141,105,95,117,109
2025-02-26 15:33:31.892,-224.0,9.0,1020.0,-2.0,-2.0,-2.0,141,105,94,117,109
2025-02-26 15:33:31.892,-218.0,2.0,1020.0,-2.0,-2.0,-1.0,141,104,94,116,109
2025-02-26 15:33:31.896,-219.0,2.0,1023.0,-2.0,-1.0,-1.0,141,107,95,116,108
2025-02-26 15:33:31.898,-220.0,2.0,1027.0,-2.0,0.0,-2.0,140,104,93,117,109
2025-02-26 15:33:31.900,-221.0,2.0,1023.0,-1.0,0.0,-1.0,140,105,94,117,110
2025-02-26 15:33:31.903,-218.0,-3.0,1020.0,-1.0,0.0,-2.0,140,105,93,117,109
2025-02-26 15:33:31.904,-216.0,2.0,1016.0,0.0,1.0,-1.0,140,105,93,116,109
2025-02-26 15:33:31.906,-218.0,0.0,1019.0,1.0,0.0,-1.0,140,106,93,118,109
2025-02-26 15:33:31.909,-224.0,1.0,1027.0,1.0,0.0,-1.0,140,104,94,117,109
2025-02-26 15:33:31.909,-226.0,3.0,1020.0,1.0,1.0,-1.0,140,104,94,116,109
2025-02-26 15:33:31.914,-225.0,10.0,1017.0,1.0,1.0,-1.0,140,105,94,118,109
2025-02-26 15:33:31.916,-224.0,8.0,1010.0,1.0,0.0,-1.0,141,107,94,116,109
2025-02-26 15:33:31.916,-221.0,6.0,1013.0,1.0,0.0,-1.0,141,104,94,118,109
2025-02-26 15:33:31.920,-223.0,13.0,1014.0,1.0,0.0,-1.0,141,104,93,117,110
2025-02-26 15:33:31.922,-225.0,7.0,1015.0,1.0,0.0,0.0,139,104,93,117,109
2025-02-26 15:33:31.924,-220.0,8.0,1011.0,0.0,0.0,-1.0,140,105,94,117,109
2025-02-26 15:33:31.927,-224.0,14.0,1009.0,0.0,0.0,0.0,142,106,94,117,109
2025-02-26 15:33:31.928,-223.0,13.0,1010.0,-1.0,0.0,0.0,140,105,95,118,109
2025-02-26 15:33:31.930,-224.0,12.0,1008.0,-2.0,-1.0,0.0,139,105,94,117,110
2025-02-26 15:33:31.933,-221.0,12.0,1009.0,-2.0,0.0,-1.0,140,104,93,118,110
2025-02-26 15:33:31.935,-223.0,10.0,1010.0,-3.0,0.0,-1.0,141,105,94,118,110
2025-02-26 15:33:31.938,-222.0,10.0,1007.0,-4.0,0.0,-1.0,140,104,93,117,109
2025-02-26 15:33:31.940,-224.0,6.0,1010.0,-4.0,0.0,-1.0,140,105,93,117,110
2025-02-26 15:33:31.943,-221.0,8.0,997.0,-4.0,0.0,-1.0,140,105,93,117,108
2025-02-26 15:33:31.945,-223.0,-26.0,1027.0,-3.0,0.0,-1.0,141,106,95,118,109
2025-02-26 15:33:31.947,-221.0,-9.0,1023.0,-2.0,0.0,-1.0,141,104,91,117,109
2025-02-26 15:33:31.950,-218.0,-2.0,1006.0,-1.0,-1.0,-1.0,140,106,94,116,110
2025-02-26 15:33:31.952,-216.0,0.0,1013.0,0.0,0.0,0.0,140,105,96,118,109
2025-02-26 15:33:31.952,-218.0,-2.0,1002.0,0.0,0.0,0.0,140,104,94,117,109
2025-02-26 15:33:31.960,-218.0,-1.0,1010.0,1.0,0.0,0.0,139,105,100,117,109
2025-02-26 15:33:31.964,-212.0,6.0,1011.0,1.0,0.0,0.0,140,103,94,117,109
2025-02-26 15:33:31.964,-214.0,8.0,1002.0,1.0,0.0,0.0,140,106,94,117,108
2025-02-26 15:33:31.973,-213.0,17.0,1011.0,1.0,0.0,0.0,140,104,93,118,109
2025-02-26 15:33:31.977,-219.0,20.0,1012.0,0.0,0.0,-1.0,140,105,93,115,109
2025-02-26 15:33:31.979,-218.0,20.0,1011.0,-1.0,0.0,-1.0,141,105,94,116,109
2025-02-26 15:33:31.989,-218.0,19.0,1006.0,-1.0,0.0,-1.0,141,105,94,117,110
2025-02-26 15:33:31.993,-217.0,18.0,1000.0,-2.0,0.0,-1.0,141,106,94,117,109
2025-02-26 15:33:31.998,-217.0,14.0,1007.0,-2.0,-1.0,-1.0,140,106,94,117,110
2025-02-26 15:33:32.002,-216.0,14.0,1004.0,-2.0,0.0,-1.0,139,104,93,117,109
2025-02-26 15:33:32.007,-219.0,6.0,1003.0,-3.0,-1.0,-2.0,140,105,93,118,109
2025-02-26 15:33:32.013,-215.0,7.0,1002.0,-3.0,-1.0,-1.0,138,105,93,117,109
2025-02-26 15:33:32.018,-215.0,2.0,1001.0,-3.0,-1.0,-1.0,140,105,94,117,110
2025-02-26 15:33:32.022,-213.0,2.0,1003.0,-3.0,-1.0,-1.0,140,104,93,117,109
2025-02-26 15:33:32.027,-210.0,-1.0,1000.0,-2.0,-1.0,-1.0,140,104,94,117,109
2025-02-26 15:33:32.034,-212.0,-2.0,1000.0,-2.0,0.0,-1.0,141,106,93,117,109
2025-02-26 15:33:32.038,-203.0,4.0,999.0,-1.0,0.0,-1.0,140,105,93,117,108
2025-02-26 15:33:32.042,-210.0,0.0,999.0,-2.0,0.0,-1.0,141,105,93,116,109
2025-02-26 15:33:32.047,-216.0,-1.0,998.0,-2.0,0.0,0.0,139,105,94,118,109
2025-02-26 15:33:32.051,-211.0,5.0,1006.0,-1.0,0.0,0.0,140,104,94,118,109
2025-02-26 15:33:32.055,-214.0,-2.0,997.0,-1.0,0.0,0.0,140,105,93,117,109
2025-02-26 15:33:32.062,-215.0,-3.0,1004.0,-2.0,0.0,0.0,140,105,92,117,110
2025-02-26 15:33:32.067,-218.0,-5.0,1002.0,-1.0,0.0,0.0,140,105,93,117,110
2025-02-26 15:33:32.068,-223.0,-2.0,997.0,-1.0,1.0,0.0,140,105,93,117,111
2025-02-26 15:33:32.075,-223.0,-11.0,1000.0,-1.0,1.0,1.0,141,106,94,116,109
2025-02-26 15:33:32.080,-224.0,-11.0,998.0,0.0,1.0,1.0,141,105,94,116,109
2025-02-26 15:33:32.087,-222.0,-4.0,998.0,0.0,1.0,2.0,141,105,94,117,108
2025-02-26 15:33:32.092,-224.0,-2.0,1000.0,0.0,2.0,1.0,140,105,93,116,110
2025-02-26 15:33:32.093,-227.0,3.0,1000.0,0.0,2.0,2.0,142,105,94,116,109
2025-02-26 15:33:32.100,-227.0,7.0,1000.0,0.0,2.0,2.0,140,105,94,117,109
2025-02-26 15:33:32.104,-226.0,8.0,996.0,0.0,2.0,2.0,141,105,94,117,109
2025-02-26 15:33:32.105,-225.0,11.0,996.0,-1.0,2.0,2.0,142,105,94,117,110
2025-02-26 15:33:32.116,-230.0,12.0,991.0,-2.0,2.0,2.0,140,106,93,118,110
2025-02-26 15:33:32.121,-228.0,17.0,987.0,-2.0,2.0,2.0,137,105,94,116,109
2025-02-26 15:33:32.123,-231.0,15.0,981.0,-3.0,2.0,3.0,141,105,93,117,109
2025-02-26 15:33:32.128,-228.0,16.0,984.0,-4.0,2.0,3.0,139,104,95,118,110
2025-02-26 15:33:32.133,-230.0,9.0,973.0,-3.0,2.0,3.0,140,105,93,118,110
2025-02-26 15:33:32.137,-235.0,12.0,971.0,-3.0,2.0,3.0,141,106,94,118,109
2025-02-26 15:33:32.141,-240.0,13.0,972.0,-3.0,2.0,3.0,140,105,93,116,109
2025-02-26 15:33:32.149,-245.0,17.0,970.0,-3.0,0.0,3.0,139,103,94,117,110
2025-02-26 15:33:32.153,-247.0,13.0,970.0,-2.0,-1.0,3.0,140,105,93,117,109
2025-02-26 15:33:32.158,-246.0,17.0,967.0,-2.0,-1.0,2.0,141,106,94,117,109
2025-02-26 15:33:32.159,-245.0,18.0,966.0,-1.0,-2.0,2.0,140,105,93,116,109
2025-02-26 15:33:32.166,-249.0,23.0,973.0,0.0,-3.0,2.0,141,105,94,117,109
2025-02-26 15:33:32.171,-243.0,20.0,976.0,0.0,-3.0,1.0,141,105,94,116,109
2025-02-26 15:33:32.178,-242.0,24.0,979.0,0.0,-4.0,1.0,141,106,94,117,106
2025-02-26 15:33:32.182,-240.0,19.0,991.0,0.0,-4.0,0.0,140,105,94,117,109
2025-02-26 15:33:32.186,-236.0,27.0,1002.0,1.0,-4.0,0.0,141,105,93,117,110
2025-02-26 15:33:32.190,-237.0,26.0,1002.0,0.0,-5.0,0.0,139,104,94,117,111
2025-02-26 15:33:32.198,-231.0,24.0,1012.0,0.0,-5.0,0.0,141,105,93,117,109
2025-02-26 15:33:32.203,-232.0,22.0,1021.0,-1.0,-6.0,0.0,139,105,93,117,109
2025-02-26 15:33:32.206,-232.0,21.0,1033.0,-1.0,-5.0,0.0,141,105,94,117,110
2025-02-26 15:33:32.208,-216.0,30.0,1024.0,0.0,-6.0,0.0,140,105,94,116,109
2025-02-26 15:33:32.215,-223.0,24.0,1038.0,0.0,-5.0,0.0,141,106,94,117,109
2025-02-26 15:33:32.220,-221.0,23.0,1041.0,0.0,-5.0,-1.0,141,105,94,117,109
2025-02-26 15:33:32.227,-214.0,19.0,1047.0,0.0,-4.0,-1.0,140,105,93,117,109
2025-02-26 15:33:32.231,-211.0,20.0,1045.0,0.0,-3.0,-1.0,140,105,93,116,109
2025-02-26 15:33:32.235,-209.0,19.0,1044.0,1.0,-3.0,-1.0,140,105,94,118,110
2025-02-26 15:33:32.238,-207.0,23.0,1048.0,1.0,-3.0,-1.0,140,105,93,118,109
2025-02-26 15:33:32.247,-209.0,23.0,1050.0,0.0,-2.0,-1.0,140,105,94,117,109
2025-02-26 15:33:32.250,-213.0,26.0,1049.0,-1.0,-2.0,-1.0,140,105,93,118,109
2025-02-26 15:33:32.255,-212.0,19.0,1045.0,-1.0,-2.0,0.0,140,105,92,117,109
2025-02-26 15:33:32.260,-206.0,23.0,1042.0,-2.0,-2.0,-1.0,141,104,94,117,109
2025-02-26 15:33:32.268,-202.0,21.0,1039.0,-2.0,-2.0,-1.0,140,105,94,118,109
2025-02-26 15:33:32.272,-206.0,19.0,1037.0,-3.0,-2.0,-1.0,140,104,94,116,109
2025-02-26 15:33:32.276,-200.0,8.0,1037.0,-3.0,-1.0,-2.0,141,105,93,118,109
2025-02-26 15:33:32.281,-198.0,8.0,1034.0,-2.0,-1.0,-1.0,140,105,93,117,110
2025-02-26 15:33:32.285,-204.0,4.0,1031.0,-2.0,0.0,-1.0,140,104,93,117,109
2025-02-26 15:33:32.292,-198.0,5.0,1029.0,-2.0,1.0,-1.0,140,105,94,116,110
2025-02-26 15:33:32.297,-199.0,2.0,1024.0,-2.0,1.0,-1.0,141,105,93,118,109
2025-02-26 15:33:32.300,-200.0,0.0,1018.0,-1.0,1.0,-1.0,141,104,91,118,110
2025-02-26 15:33:32.305,-204.0,-4.0,1016.0,-1.0,1.0,0.0,140,105,94,117,110
2025-02-26 15:33:32.309,-204.0,0.0,1013.0,0.0,1.0,0.0,139,107,94,117,110
2025-02-26 15:33:32.317,-207.0,2.0,1013.0,0.0,1.0,0.0,140,106,95,116,110
2025-02-26 15:33:32.321,-207.0,0.0,1012.0,0.0,1.0,0.0,141,104,94,119,111
2025-02-26 15:33:32.326,-203.0,5.0,1007.0,0.0,1.0,1.0,141,105,94,117,109
2025-02-26 15:33:32.330,-199.0,6.0,1009.0,0.0,1.0,1.0,141,105,94,116,109
2025-02-26 15:33:32.330,-201.0,3.0,1013.0,0.0,1.0,0.0,142,105,93,117,109
2025-02-26 15:33:32.338,-202.0,13.0,1010.0,0.0,1.0,1.0,141,105,95,117,110
2025-02-26 15:33:32.342,-197.0,16.0,1007.0,-1.0,1.0,0.0,140,105,94,118,109
2025-02-26 15:33:32.350,-198.0,21.0,1005.0,-1.0,2.0,0.0,140,102,91,113,106
2025-02-26 15:33:32.354,-199.0,19.0,997.0,-2.0,2.0,0.0,141,105,92,117,109
2025-02-26 15:33:32.358,-202.0,22.0,998.0,-3.0,2.0,0.0,142,105,93,118,109
2025-02-26 15:33:32.362,-206.0,23.0,989.0,-4.0,2.0,0.0,141,106,94,117,110
2025-02-26 15:33:32.366,-205.0,18.0,979.0,-4.0,2.0,-1.0,140,105,93,117,109
2025-02-26 15:33:32.374,-206.0,10.0,979.0,-4.0,2.0,-1.0,139,106,94,116,109
2025-02-26 15:33:32.378,-211.0,9.0,965.0,-3.0,2.0,-1.0,141,105,94,118,110
2025-02-26 15:33:32.383,-217.0,9.0,964.0,-2.0,1.0,-1.0,140,105,94,117,110
2025-02-26 15:33:32.387,-223.0,8.0,967.0,-1.0,1.0,-1.0,141,105,94,117,109
2025-02-26 15:33:32.391,-223.0,0.0,963.0,0.0,1.0,-1.0,140,107,94,117,109
2025-02-26 15:33:32.395,-229.0,6.0,962.0,1.0,0.0,0.0,142,106,94,117,110
2025-02-26 15:33:32.403,-235.0,10.0,967.0,2.0,0.0,0.0,140,105,93,117,110
2025-02-26 15:33:32.407,-236.0,12.0,977.0,1.0,-1.0,0.0,140,105,94,117,109
2025-02-26 15:33:32.411,-238.0,16.0,969.0,1.0,-1.0,0.0,141,105,93,117,109
2025-02-26 15:33:32.416,-240.0,24.0,979.0,1.0,-1.0,1.0,140,105,93,117,109
2025-02-26 15:33:32.419,-241.0,24.0,985.0,0.0,-2.0,1.0,141,105,94,116,108
2025-02-26 15:33:32.424,-241.0,32.0,984.0,-1.0,-2.0,1.0,142,105,93,118,110
2025-02-26 15:33:32.432,-241.0,32.0,992.0,-2.0,-2.0,0.0,142,103,93,117,109
2025-02-26 15:33:32.435,-249.0,32.0,989.0,-3.0,-2.0,0.0,140,104,94,117,109
2025-02-26 15:33:32.440,-240.0,30.0,985.0,-3.0,-3.0,-1.0,140,105,93,117,110
2025-02-26 15:33:32.445,-243.0,31.0,1001.0,-4.0,-3.0,-2.0,141,105,94,117,109
2025-02-26 15:33:32.449,-239.0,26.0,999.0,-4.0,-3.0,-2.0,139,104,92,117,110
2025-02-26 15:33:32.456,-236.0,18.0,998.0,-3.0,-2.0,-3.0,141,105,93,116,109
2025-02-26 15:33:32.460,-237.0,9.0,997.0,-2.0,-2.0,-3.0,141,105,94,121,109
2025-02-26 15:33:32.464,-238.0,10.0,1001.0,-1.0,-1.0,-3.0,140,105,93,117,109
2025-02-26 15:33:32.469,-229.0,7.0,997.0,0.0,-1.0,-3.0,140,105,95,117,110
2025-02-26 15:33:32.474,-226.0,4.0,997.0,0.0,0.0,-2.0,140,106,93,117,109
2025-02-26 15:33:32.480,-229.0,-1.0,992.0,0.0,0.0,-2.0,141,108,94,117,108
2025-02-26 15:33:32.485,-229.0,9.0,982.0,-1.0,0.0,-2.0,143,104,93,117,109
2025-02-26 15:33:32.489,-229.0,14.0,983.0,-2.0,-1.0,-1.0,140,106,95,118,109
2025-02-26 15:33:32.494,-229.0,14.0,976.0,-4.0,-1.0,-2.0,140,104,94,119,110
2025-02-26 15:33:32.498,-230.0,18.0,971.0,-4.0,-1.0,-2.0,140,105,93,119,109
2025-02-26 15:33:32.505,-233.0,24.0,962.0,-7.0,-1.0,-1.0,139,104,93,116,109
2025-02-26 15:33:32.509,-234.0,24.0,947.0,-9.0,0.0,-1.0,140,106,94,117,110
2025-02-26 15:33:32.514,-234.0,17.0,944.0,-10.0,0.0,-1.0,140,105,93,118,109
2025-02-26 15:33:32.518,-232.0,27.0,933.0,-13.0,-1.0,-1.0,141,105,94,117,109
2025-02-26 15:33:32.522,-240.0,33.0,918.0,-15.0,1.0,0.0,140,106,94,117,109
2025-02-26 15:33:32.530,-246.0,37.0,896.0,-17.0,0.0,0.0,140,105,95,119,109
2025-02-26 15:33:32.534,-253.0,44.0,871.0,-19.0,0.0,0.0,140,104,94,117,109
2025-02-26 15:33:32.535,-257.0,43.0,852.0,-22.0,0.0,0.0,140,105,92,117,110
2025-02-26 15:33:32.542,-260.0,54.0,826.0,-23.0,-1.0,0.0,140,105,94,118,110
2025-02-26 15:33:32.547,-266.0,56.0,811.0,-26.0,-1.0,0.0,140,105,93,118,109
2025-02-26 15:33:32.555,-275.0,53.0,796.0,-28.0,-3.0,-1.0,140,104,94,118,110
2025-02-26 15:33:32.558,-291.0,46.0,760.0,-30.0,-5.0,-1.0,140,106,93,117,110
2025-02-26 15:33:32.563,-284.0,39.0,721.0,-32.0,-7.0,-2.0,140,105,93,117,113
2025-02-26 15:33:32.568,-311.0,45.0,695.0,-37.0,-13.0,-3.0,140,105,94,117,109
2025-02-26 15:33:32.575,-312.0,42.0,739.0,-36.0,-18.0,-4.0,140,105,94,117,109
2025-02-26 15:33:32.579,-335.0,37.0,732.0,-39.0,-21.0,-4.0,140,103,93,117,109
2025-02-26 15:33:32.583,-326.0,15.0,755.0,-43.0,-29.0,-5.0,140,103,92,117,110
2025-02-26 15:33:32.587,-313.0,-31.0,838.0,-46.0,-35.0,-4.0,141,105,92,117,109
2025-02-26 15:33:32.596,-297.0,-49.0,916.0,-52.0,-38.0,-3.0,141,105,92,117,109
2025-02-26 15:33:32.597,-264.0,-57.0,945.0,-64.0,-46.0,-2.0,141,104,91,117,109
2025-02-26 15:33:32.603,-223.0,-55.0,1100.0,-71.0,-51.0,-2.0,141,104,92,118,110
2025-02-26 15:33:32.611,-206.0,-71.0,1266.0,-85.0,-53.0,-1.0,140,103,89,116,109
2025-02-26 15:33:32.615,-190.0,-84.0,1340.0,-110.0,-55.0,3.0,140,102,89,116,107
2025-02-26 15:33:32.620,-146.0,-128.0,1579.0,-123.0,-57.0,6.0,142,101,87,117,106
2025-02-26 15:33:32.628,-121.0,-165.0,1854.0,-153.0,-54.0,10.0,141,100,86,115,104
2025-02-26 15:33:32.633,-52.0,-167.0,2073.0,-183.0,-45.0,10.0,140,98,83,115,102
2025-02-26 15:33:32.637,0.0,-250.0,2243.0,-222.0,-31.0,14.0,140,95,80,114,101
2025-02-26 15:33:32.641,107.0,-236.0,2392.0,-240.0,-13.0,17.0,140,96,80,112,98
2025-02-26 15:33:32.647,210.0,-317.0,2502.0,-277.0,-4.0,19.0,140,93,76,110,95
2025-02-26 15:33:32.652,269.0,-461.0,2641.0,-307.0,21.0,22.0,141,88,73,107,91
2025-02-26 15:33:32.657,328.0,-513.0,2624.0,-336.0,49.0,28.0,140,85,70,104,89
2025-02-26 15:33:32.662,387.0,-590.0,2620.0,-350.0,76.0,33.0,142,80,68,102,84
2025-02-26 15:33:32.669,382.0,-865.0,2346.0,-353.0,67.0,50.0,141,75,65,100,82
2025-02-26 15:33:32.673,388.0,-888.0,2666.0,-406.0,123.0,55.0,140,70,63,97,78
2025-02-26 15:33:32.677,727.0,-867.0,2618.0,-451.0,188.0,80.0,141,65,61,94,75
2025-02-26 15:33:32.681,595.0,-1146.0,1948.0,-451.0,201.0,93.0,140,60,56,91,72
2025-02-26 15:33:32.689,487.0,-1081.0,2151.0,-467.0,217.0,109.0,140,55,54,89,70
2025-02-26 15:33:32.694,423.0,-1124.0,1941.0,-479.0,243.0,120.0,137,51,51,87,67
2025-02-26 15:33:32.698,311.0,-1147.0,1663.0,-482.0,260.0,140.0,138,49,50,81,64
2025-02-26 15:33:32.706,244.0,-1107.0,1435.0,-443.0,257.0,145.0,139,46,45,63,61
2025-02-26 15:33:32.710,206.0,-1093.0,1405.0,-432.0,260.0,151.0,136,44,46,70,58
2025-02-26 15:33:32.714,118.0,-1039.0,1280.0,-419.0,263.0,155.0,135,42,46,71,55
2025-02-26 15:33:32.722,48.0,-1013.0,1109.0,-395.0,261.0,158.0,135,41,45,69,53
2025-02-26 15:33:32.726,2.0,-1019.0,1180.0,-394.0,269.0,168.0,135,41,44,68,53
2025-02-26 15:33:32.730,-56.0,-946.0,794.0,-378.0,254.0,172.0,133,41,44,66,51
2025-02-26 15:33:32.735,-198.0,-837.0,1132.0,-391.0,277.0,195.0,133,40,43,65,50
2025-02-26 15:33:32.743,296.0,-790.0,724.0,-358.0,267.0,205.0,132,40,43,63,50
2025-02-26 15:33:32.747,-55.0,-853.0,706.0,-326.0,264.0,213.0,131,40,42,64,50
2025-02-26 15:33:32.750,-80.0,-718.0,658.0,-312.0,266.0,225.0,130,40,42,63,49
2025-02-26 15:33:32.756,1.0,-656.0,743.0,-284.0,270.0,243.0,132,41,41,63,49
2025-02-26 15:33:32.763,34.0,-608.0,661.0,-246.0,272.0,250.0,129,41,43,63,49
2025-02-26 15:33:32.768,103.0,-484.0,585.0,-223.0,276.0,260.0,128,40,42,63,48
2025-02-26 15:33:32.772,114.0,-360.0,465.0,-214.0,272.0,264.0,125,39,42,62,48
2025-02-26 15:33:32.776,-49.0,109.0,340.0,-207.0,271.0,265.0,121,39,41,57,47
2025-02-26 15:33:32.784,-70.0,-123.0,156.0,-174.0,261.0,263.0,118,40,43,59,47
2025-02-26 15:33:32.788,-243.0,539.0,-181.0,-165.0,244.0,250.0,114,41,41,60,46
2025-02-26 15:33:32.793,-342.0,280.0,-250.0,-174.0,213.0,235.0,111,40,43,58,45
2025-02-26 15:33:32.797,-318.0,631.0,-286.0,-181.0,200.0,216.0,109,39,42,58,44
2025-02-26 15:33:32.804,-704.0,720.0,-293.0,-173.0,164.0,207.0,108,40,41,55,44
2025-02-26 15:33:32.808,-771.0,1031.0,-267.0,-177.0,144.0,185.0,106,39,43,63,43
2025-02-26 15:33:32.813,-719.0,1292.0,-274.0,-171.0,121.0,163.0,106,40,41,61,43
2025-02-26 15:33:32.820,-656.0,1461.0,-288.0,-170.0,112.0,146.0,103,43,42,62,43
2025-02-26 15:33:32.825,-463.0,1621.0,-257.0,-176.0,104.0,134.0,105,39,41,62,44
2025-02-26 15:33:32.829,-680.0,1696.0,-223.0,-174.0,96.0,115.0,102,42,43,62,42
2025-02-26 15:33:32.834,-541.0,2041.0,-165.0,-170.0,103.0,89.0,103,40,40,62,42
2025-02-26 15:33:32.841,-741.0,2085.0,-264.0,-162.0,100.0,62.0,101,40,43,61,42
2025-02-26 15:33:32.846,-743.0,2288.0,-243.0,-142.0,98.0,34.0,101,44,42,61,39
2025-02-26 15:33:32.850,-643.0,2420.0,-419.0,-102.0,103.0,13.0,100,40,42,64,42
2025-02-26 15:33:32.854,-703.0,2632.0,-485.0,-50.0,105.0,-35.0,102,42,42,62,44
2025-02-26 15:33:32.862,-770.0,2912.0,-522.0,-25.0,106.0,-91.0,104,45,43,64,46
2025-02-26 15:33:32.866,-831.0,3139.0,-646.0,27.0,103.0,-150.0,103,45,46,64,45
2025-02-26 15:33:32.871,-833.0,3214.0,-791.0,68.0,96.0,-183.0,101,44,45,65,45
2025-02-26 15:33:32.878,-828.0,3428.0,-841.0,98.0,82.0,-252.0,103,45,45,64,45
2025-02-26 15:33:32.882,-694.0,3596.0,-999.0,105.0,64.0,-324.0,103,45,46,66,47
2025-02-26 15:33:32.887,-717.0,3685.0,-1130.0,103.0,55.0,-405.0,101,45,44,63,45
2025-02-26 15:33:32.891,-732.0,3719.0,-1291.0,91.0,21.0,-446.0,102,45,46,64,45
2025-02-26 15:33:32.898,-682.0,3684.0,-1349.0,66.0,-28.0,-537.0,100,44,44,64,45
2025-02-26 15:33:32.901,-536.0,3610.0,-1516.0,32.0,-83.0,-631.0,103,46,46,64,46
2025-02-26 15:33:32.907,-518.0,3493.0,-1670.0,15.0,-155.0,-735.0,103,45,45,65,46
2025-02-26 15:33:32.913,-466.0,3306.0,-1805.0,-23.0,-198.0,-841.0,101,40,42,60,43
2025-02-26 15:33:32.919,-226.0,3225.0,-1940.0,-54.0,-311.0,-894.0,100,42,43,62,43
2025-02-26 15:33:32.924,186.0,3142.0,-2095.0,-98.0,-425.0,-1009.0,101,43,43,63,45
2025-02-26 15:33:32.932,931.0,3262.0,-2158.0,-144.0,-560.0,-1114.0,101,44,42,62,46
2025-02-26 15:33:32.936,1983.0,3070.0,-2304.0,-214.0,-698.0,-1202.0,103,41,48,64,47
2025-02-26 15:33:32.941,3532.0,2691.0,-2361.0,-262.0,-807.0,-1253.0,101,42,44,63,48
2025-02-26 15:33:32.948,6168.0,1747.0,-1321.0,-275.0,-803.0,-1223.0,103,42,42,62,49
2025-02-26 15:33:32.952,8687.0,-257.0,156.0,-336.0,-648.0,-1103.0,103,43,43,62,50
2025-02-26 15:33:32.960,9462.0,-3247.0,1625.0,-398.0,-515.0,-906.0,101,43,44,64,50
2025-02-26 15:33:32.965,10331.0,-6934.0,1991.0,-396.0,-194.0,-655.0,98,42,44,64,50
2025-02-26 15:33:32.969,9728.0,-9812.0,1217.0,-266.0,103.0,-510.0,97,44,44,65,49
2025-02-26 15:33:32.973,8125.0,-10365.0,-41.0,-80.0,306.0,-248.0,91,44,45,64,46
2025-02-26 15:33:32.981,5922.0,-10331.0,-659.0,156.0,354.0,-60.0,92,40,43,60,43
2025-02-26 15:33:32.985,4450.0,-9145.0,-1847.0,208.0,293.0,69.0,95,41,47,59,41
2025-02-26 15:33:32.989,3581.0,-7378.0,-1747.0,414.0,264.0,178.0,93,43,43,59,41
2025-02-26 15:33:32.997,2774.0,-5797.0,-1855.0,378.0,224.0,202.0,94,36,42,54,40
2025-02-26 15:33:33.001,2353.0,-3979.0,-955.0,272.0,106.0,293.0,96,38,43,63,42
2025-02-26 15:33:33.005,2104.0,-2600.0,-669.0,98.0,76.0,335.0,98,41,43,63,43
2025-02-26 15:33:33.010,1479.0,-1523.0,-407.0,3.0,72.0,370.0,99,42,44,62,44
2025-02-26 15:33:33.017,1620.0,-1836.0,-343.0,-94.0,-20.0,358.0,98,40,43,61,44
2025-02-26 15:33:33.022,1284.0,-1250.0,-84.0,-175.0,-31.0,332.0,98,39,39,63,46
2025-02-26 15:33:33.025,953.0,-1725.0,-264.0,-190.0,-50.0,312.0,98,41,43,64,47
2025-02-26 15:33:33.029,906.0,-1983.0,-59.0,-174.0,-62.0,299.0,98,42,44,66,48
2025-02-26 15:33:33.037,1197.0,-2237.0,-174.0,-163.0,-44.0,300.0,93,45,43,65,49
2025-02-26 15:33:33.043,822.0,-1957.0,-146.0,-116.0,-39.0,297.0,99,44,43,65,51
2025-02-26 15:33:33.047,605.0,-2182.0,91.0,-52.0,-45.0,311.0,92,43,44,66,50
2025-02-26 15:33:33.050,665.0,-2234.0,141.0,-41.0,-33.0,322.0,99,44,43,64,50
2025-02-26 15:33:33.058,455.0,-2063.0,116.0,-25.0,-11.0,334.0,99,44,44,66,49
2025-02-26 15:33:33.063,500.0,-1719.0,95.0,4.0,3.0,346.0,99,44,45,67,52
2025-02-26 15:33:33.066,278.0,-1571.0,130.0,22.0,-7.0,368.0,97,44,45,65,51
2025-02-26 15:33:33.070,257.0,-1495.0,239.0,25.0,3.0,376.0,98,43,43,65,49
2025-02-26 15:33:33.076,235.0,-1258.0,141.0,39.0,-6.0,387.0,98,43,44,66,50
2025-02-26 15:33:33.083,230.0,-870.0,199.0,36.0,-2.0,394.0,98,44,42,65,50
2025-02-26 15:33:33.087,125.0,-925.0,140.0,40.0,-5.0,398.0,100,44,46,67,44
2025-02-26 15:33:33.091,52.0,-563.0,150.0,31.0,-6.0,396.0,99,43,45,67,50
2025-02-26 15:33:33.095,99.0,-362.0,241.0,16.0,2.0,403.0,100,43,44,67,48
2025-02-26 15:33:33.100,52.0,-150.0,257.0,-12.0,2.0,403.0,102,46,46,69,51
2025-02-26 15:33:33.104,-53.0,58.0,206.0,-29.0,-8.0,390.0,101,44,44,66,51
2025-02-26 15:33:33.112,-80.0,266.0,218.0,-45.0,-13.0,379.0,100,44,45,67,50
2025-02-26 15:33:33.115,-141.0,395.0,214.0,-56.0,-18.0,363.0,99,46,44,67,51
2025-02-26 15:33:33.120,-365.0,341.0,209.0,-49.0,-39.0,328.0,101,43,47,69,53
2025-02-26 15:33:33.125,-280.0,489.0,246.0,-51.0,-39.0,291.0,102,44,45,68,52
2025-02-26 15:33:33.132,-342.0,443.0,302.0,-41.0,-36.0,270.0,101,45,46,70,51
2025-02-26 15:33:33.137,-275.0,416.0,310.0,-33.0,-23.0,224.0,103,46,49,73,53
2025-02-26 15:33:33.141,-358.0,445.0,271.0,-25.0,-9.0,182.0,102,46,46,69,52
2025-02-26 15:33:33.145,-306.0,286.0,239.0,-3.0,1.0,143.0,103,44,45,69,52
2025-02-26 15:33:33.149,-272.0,231.0,266.0,23.0,13.0,128.0,104,47,46,70,53
2025-02-26 15:33:33.157,-214.0,212.0,257.0,23.0,31.0,107.0,103,46,45,71,53
2025-02-26 15:33:33.161,-253.0,190.0,191.0,33.0,36.0,96.0,104,46,46,70,54
2025-02-26 15:33:33.165,-269.0,62.0,191.0,41.0,47.0,92.0,105,47,49,70,53
2025-02-26 15:33:33.169,-189.0,28.0,263.0,39.0,60.0,93.0,104,46,45,71,53
2025-02-26 15:33:33.174,-175.0,-52.0,280.0,34.0,66.0,100.0,105,46,48,70,53
2025-02-26 15:33:33.177,-124.0,-130.0,242.0,34.0,75.0,102.0,104,48,49,71,54
2025-02-26 15:33:33.185,-192.0,-165.0,236.0,31.0,84.0,111.0,105,48,47,71,55
2025-02-26 15:33:33.189,-166.0,-244.0,227.0,27.0,85.0,117.0,105,48,49,72,56
2025-02-26 15:33:33.193,-280.0,-236.0,301.0,31.0,87.0,124.0,105,47,46,71,56
2025-02-26 15:33:33.198,-324.0,-293.0,234.0,35.0,88.0,129.0,107,48,48,74,57
2025-02-26 15:33:33.205,-201.0,-287.0,298.0,40.0,88.0,136.0,108,49,49,67,56
2025-02-26 15:33:33.209,-235.0,-300.0,312.0,37.0,89.0,140.0,108,49,51,72,56
2025-02-26 15:33:33.214,-241.0,-207.0,237.0,32.0,96.0,145.0,108,47,51,73,57
2025-02-26 15:33:33.218,-335.0,-185.0,236.0,35.0,93.0,151.0,106,49,50,72,58
2025-02-26 15:33:33.222,-371.0,-172.0,254.0,34.0,91.0,157.0,109,58,53,73,62
2025-02-26 15:33:33.230,-357.0,-178.0,285.0,52.0,81.0,168.0,107,49,49,70,57
2025-02-26 15:33:33.234,-335.0,-106.0,299.0,64.0,79.0,184.0,110,50,51,72,58
2025-02-26 15:33:33.238,-303.0,-64.0,384.0,91.0,75.0,195.0,109,49,49,73,57
2025-02-26 15:33:33.243,-311.0,15.0,409.0,114.0,72.0,218.0,111,50,49,72,60
2025-02-26 15:33:33.248,-366.0,205.0,331.0,125.0,71.0,244.0,111,49,50,72,58
2025-02-26 15:33:33.253,-381.0,326.0,202.0,149.0,69.0,254.0,110,50,50,72,57
2025-02-26 15:33:33.259,-571.0,657.0,200.0,173.0,68.0,270.0,111,50,50,72,59
2025-02-26 15:33:33.263,-745.0,1101.0,12.0,197.0,57.0,261.0,114,49,51,75,58
2025-02-26 15:33:33.268,-887.0,1349.0,-139.0,251.0,59.0,239.0,111,48,50,71,59
2025-02-26 15:33:33.275,-1014.0,2009.0,-229.0,315.0,78.0,152.0,114,50,50,71,59
2025-02-26 15:33:33.279,-1230.0,2743.0,-450.0,350.0,97.0,20.0,111,50,52,73,58
2025-02-26 15:33:33.284,-1305.0,3504.0,-647.0,410.0,102.0,-53.0,111,50,45,71,59
2025-02-26 15:33:33.289,-1382.0,3865.0,-725.0,417.0,106.0,-190.0,110,50,53,74,60
2025-02-26 15:33:33.296,-1414.0,4261.0,-787.0,390.0,88.0,-319.0,111,54,51,73,59
2025-02-26 15:33:33.300,-1430.0,4422.0,-935.0,314.0,66.0,-440.0,111,51,51,72,58
2025-02-26 15:33:33.305,-1542.0,4525.0,-1144.0,196.0,7.0,-506.0,110,50,50,71,59
2025-02-26 15:33:33.312,-1633.0,4410.0,-1167.0,75.0,-74.0,-640.0,110,51,51,72,59
2025-02-26 15:33:33.317,-1432.0,4068.0,-1277.0,17.0,-178.0,-782.0,114,52,51,66,58
2025-02-26 15:33:33.319,-1018.0,3650.0,-1470.0,-85.0,-236.0,-926.0,108,49,48,72,57
2025-02-26 15:33:33.328,-715.0,3199.0,-1657.0,-171.0,-360.0,-1065.0,108,49,49,70,57
2025-02-26 15:33:33.333,124.0,2777.0,-1814.0,-248.0,-503.0,-1179.0,108,48,48,72,56
2025-02-26 15:33:33.337,1429.0,2520.0,-2066.0,-318.0,-660.0,-1226.0,108,48,47,71,57
2025-02-26 15:33:33.345,3319.0,1771.0,-2158.0,-367.0,-803.0,-1292.0,112,52,49,71,60
2025-02-26 15:33:33.349,5723.0,612.0,-1970.0,-397.0,-909.0,-1285.0,111,50,48,70,60
2025-02-26 15:33:33.353,7833.0,-850.0,-1609.0,-389.0,-887.0,-1183.0,112,48,50,71,60
2025-02-26 15:33:33.362,8674.0,-4047.0,-21.0,-347.0,-680.0,-962.0,110,49,49,74,61
2025-02-26 15:33:33.365,9007.0,-7509.0,1205.0,-319.0,-352.0,-628.0,106,49,48,73,60
2025-02-26 15:33:33.374,8632.0,-10879.0,1457.0,-229.0,-10.0,-221.0,105,48,50,72,60
2025-02-26 15:33:33.378,8435.0,-11482.0,493.0,-102.0,128.0,95.0,101,49,49,71,57
2025-02-26 15:33:33.382,7079.0,-8939.0,-374.0,32.0,310.0,197.0,99,42,45,65,49
2025-02-26 15:33:33.390,4990.0,-7425.0,-508.0,240.0,408.0,254.0,101,44,46,60,49
2025-02-26 15:33:33.395,3705.0,-5647.0,-954.0,499.0,294.0,261.0,100,42,45,65,45
2025-02-26 15:33:33.396,1775.0,-4539.0,-1287.0,456.0,267.0,287.0,100,40,45,66,44
2025-02-26 15:33:33.403,1986.0,-2481.0,-1981.0,407.0,275.0,262.0,101,37,46,65,45
2025-02-26 15:33:33.411,1593.0,-1894.0,-1071.0,260.0,177.0,261.0,102,41,45,67,45
2025-02-26 15:33:33.414,962.0,-1215.0,-828.0,117.0,132.0,297.0,105,44,48,71,50
2025-02-26 15:33:33.418,745.0,-949.0,-757.0,-25.0,49.0,313.0,106,47,48,71,49
2025-02-26 15:33:33.426,133.0,-478.0,-754.0,-75.0,-11.0,296.0,104,45,49,67,48
2025-02-26 15:33:33.431,341.0,-1138.0,-721.0,-172.0,-16.0,295.0,106,46,47,67,51
2025-02-26 15:33:33.436,235.0,-1738.0,-477.0,-134.0,-98.0,289.0,103,45,50,69,53
2025-02-26 15:33:33.440,538.0,-2121.0,-678.0,-134.0,-96.0,287.0,103,46,45,67,54
2025-02-26 15:33:33.447,162.0,-2121.0,-147.0,-110.0,-87.0,280.0,103,50,45,67,53
2025-02-26 15:33:33.450,584.0,-2136.0,85.0,-53.0,-96.0,299.0,105,44,42,69,53
2025-02-26 15:33:33.455,105.0,-2009.0,221.0,3.0,-81.0,304.0,105,45,48,70,52
2025-02-26 15:33:33.460,332.0,-1568.0,260.0,41.0,-58.0,330.0,105,45,44,68,54
2025-02-26 15:33:33.467,-4.0,-1533.0,278.0,64.0,-34.0,344.0,107,46,45,69,55
2025-02-26 15:33:33.469,200.0,-1221.0,382.0,89.0,-27.0,349.0,106,44,44,67,55
2025-02-26 15:33:33.477,173.0,-1070.0,397.0,93.0,-2.0,358.0,108,44,47,69,55
2025-02-26 15:33:33.481,292.0,-693.0,425.0,92.0,34.0,351.0,107,44,44,69,56
2025-02-26 15:33:33.484,250.0,-641.0,412.0,65.0,57.0,343.0,111,45,44,68,58
2025-02-26 15:33:33.493,279.0,-355.0,485.0,21.0,79.0,340.0,113,48,45,69,56
2025-02-26 15:33:33.497,124.0,-117.0,402.0,-12.0,113.0,334.0,113,44,44,69,56
2025-02-26 15:33:33.501,69.0,100.0,315.0,-84.0,121.0,312.0,114,44,43,67,55
2025-02-26 15:33:33.506,-73.0,207.0,187.0,-106.0,108.0,298.0,119,45,46,68,57
2025-02-26 15:33:33.509,-326.0,176.0,2.0,-86.0,57.0,264.0,112,45,45,66,56
2025-02-26 15:33:33.517,-382.0,24.0,58.0,-70.0,38.0,239.0,113,46,44,66,56
2025-02-26 15:33:33.517,-419.0,85.0,75.0,-69.0,5.0,227.0,114,45,44,70,58
2025-02-26 15:33:33.523,-335.0,12.0,25.0,-88.0,-7.0,208.0,115,44,44,68,56
2025-02-26 15:33:33.529,-301.0,-108.0,85.0,-116.0,-7.0,204.0,113,44,47,69,57
2025-02-26 15:33:33.534,-290.0,159.0,117.0,-157.0,0.0,212.0,114,47,46,69,55
2025-02-26 15:33:33.542,-174.0,-280.0,209.0,-177.0,15.0,226.0,114,44,46,69,58
2025-02-26 15:33:33.546,13.0,-288.0,148.0,-206.0,16.0,233.0,113,44,46,69,57
2025-02-26 15:33:33.550,-91.0,-318.0,26.0,-184.0,1.0,228.0,115,44,46,66,59
2025-02-26 15:33:33.554,-190.0,-480.0,65.0,-161.0,-12.0,211.0,117,45,47,69,57
2025-02-26 15:33:33.562,-182.0,-566.0,117.0,-124.0,-13.0,214.0,118,45,47,69,58
2025-02-26 15:33:33.566,-49.0,-540.0,207.0,-116.0,-5.0,222.0,120,43,47,70,59
2025-02-26 15:33:33.570,-30.0,-559.0,244.0,-111.0,7.0,235.0,119,45,48,71,60
2025-02-26 15:33:33.575,-2.0,-511.0,162.0,-108.0,15.0,248.0,119,48,46,72,59
2025-02-26 15:33:33.579,122.0,-560.0,248.0,-91.0,29.0,252.0,120,43,46,69,59
2025-02-26 15:33:33.587,135.0,-487.0,191.0,-75.0,37.0,262.0,121,44,48,70,60
2025-02-26 15:33:33.591,-81.0,-651.0,35.0,-62.0,38.0,269.0,121,44,45,70,59
2025-02-26 15:33:33.595,-156.0,-493.0,117.0,-40.0,39.0,271.0,121,44,47,69,60
2025-02-26 15:33:33.598,-285.0,-550.0,140.0,-12.0,39.0,268.0,123,45,46,71,62
2025-02-26 15:33:33.606,-244.0,-404.0,186.0,-2.0,43.0,267.0,124,44,45,69,62
2025-02-26 15:33:33.610,-250.0,-332.0,124.0,8.0,42.0,265.0,124,44,46,69,61
2025-02-26 15:33:33.616,-292.0,-381.0,164.0,51.0,43.0,255.0,128,42,46,68,61
2025-02-26 15:33:33.620,-273.0,-128.0,80.0,66.0,42.0,247.0,130,43,47,68,60
2025-02-26 15:33:33.624,-231.0,26.0,104.0,81.0,39.0,241.0,131,44,47,69,61
2025-02-26 15:33:33.632,-295.0,90.0,188.0,110.0,36.0,235.0,134,44,47,68,61
2025-02-26 15:33:33.635,-12.0,456.0,454.0,76.0,41.0,233.0,134,45,48,69,59
2025-02-26 15:33:33.640,-510.0,579.0,253.0,129.0,40.0,206.0,136,43,46,70,62
2025-02-26 15:33:33.644,-428.0,463.0,678.0,157.0,41.0,201.0,138,40,47,69,63
2025-02-26 15:33:33.648,-491.0,1015.0,280.0,178.0,49.0,184.0,139,42,46,69,60
2025-02-26 15:33:33.656,-517.0,1125.0,354.0,217.0,51.0,148.0,139,41,48,69,60
2025-02-26 15:33:33.660,-855.0,1157.0,406.0,292.0,52.0,123.0,139,40,46,68,60
2025-02-26 15:33:33.665,-862.0,1791.0,372.0,342.0,68.0,75.0,140,41,48,69,60
2025-02-26 15:33:33.669,-905.0,2495.0,276.0,363.0,74.0,14.0,141,42,45,67,59
2025-02-26 15:33:33.677,-1103.0,2791.0,192.0,392.0,84.0,-35.0,141,41,47,68,57
2025-02-26 15:33:33.681,-1287.0,3606.0,56.0,404.0,90.0,-136.0,141,42,46,67,56
2025-02-26 15:33:33.685,-1267.0,4251.0,-114.0,388.0,90.0,-245.0,141,39,47,71,56
2025-02-26 15:33:33.690,-1253.0,4580.0,-358.0,328.0,97.0,-366.0,143,40,46,67,54
2025-02-26 15:33:33.697,-1463.0,4629.0,-602.0,254.0,68.0,-424.0,141,40,47,67,52
2025-02-26 15:33:33.701,-1542.0,4452.0,-728.0,168.0,13.0,-544.0,143,40,46,68,52
2025-02-26 15:33:33.706,-1562.0,4166.0,-1036.0,131.0,-66.0,-653.0,142,41,45,69,52
2025-02-26 15:33:33.713,-1206.0,3608.0,-1397.0,69.0,-161.0,-748.0,143,41,45,66,51
2025-02-26 15:33:33.717,-1034.0,3120.0,-1512.0,13.0,-212.0,-839.0,142,40,43,68,51
2025-02-26 15:33:33.722,-652.0,2610.0,-1650.0,-34.0,-325.0,-925.0,144,42,44,66,51
2025-02-26 15:33:33.730,-25.0,2503.0,-1845.0,-91.0,-463.0,-961.0,144,41,45,66,53
2025-02-26 15:33:33.734,977.0,2016.0,-1841.0,-150.0,-609.0,-1011.0,145,41,44,67,54
2025-02-26 15:33:33.739,2591.0,1222.0,-1762.0,-234.0,-728.0,-1018.0,146,41,44,66,53
2025-02-26 15:33:33.746,4311.0,101.0,-1727.0,-263.0,-803.0,-926.0,146,42,46,66,54
2025-02-26 15:33:33.750,5692.0,-1135.0,-1340.0,-316.0,-815.0,-767.0,146,42,45,65,54
2025-02-26 15:33:33.755,6584.0,-3668.0,-743.0,-319.0,-774.0,-597.0,147,42,44,67,55
2025-02-26 15:33:33.762,6705.0,-5959.0,81.0,-321.0,-636.0,-456.0,146,44,45,69,55
2025-02-26 15:33:33.766,6602.0,-7622.0,1051.0,-306.0,-408.0,-395.0,145,43,46,68,56
2025-02-26 15:33:33.774,6484.0,-8003.0,1474.0,-238.0,-150.0,-267.0,146,43,45,67,56
2025-02-26 15:33:33.779,5894.0,-8000.0,965.0,-96.0,101.0,-151.0,145,42,45,67,55
2025-02-26 15:33:33.783,4791.0,-7624.0,428.0,97.0,295.0,-59.0,147,44,48,65,53
2025-02-26 15:33:33.787,3413.0,-6584.0,-679.0,185.0,356.0,0.0,147,43,46,67,50
2025-02-26 15:33:33.795,2741.0,-5194.0,-1702.0,352.0,408.0,41.0,147,44,45,64,47
2025-02-26 15:33:33.799,1588.0,-4633.0,-1493.0,489.0,203.0,94.0,146,39,47,65,46
2025-02-26 15:33:33.804,688.0,-3465.0,-1779.0,318.0,220.0,131.0,147,42,47,66,46
2025-02-26 15:33:33.812,512.0,-1668.0,-1891.0,271.0,179.0,153.0,146,40,45,66,48
2025-02-26 15:33:33.817,159.0,-735.0,-1053.0,137.0,57.0,178.0,146,41,45,65,47
2025-02-26 15:33:33.822,-127.0,-734.0,-787.0,32.0,-2.0,177.0,147,42,46,67,48
2025-02-26 15:33:33.826,131.0,-727.0,-406.0,-129.0,-22.0,165.0,147,42,46,66,49
2025-02-26 15:33:33.832,412.0,-1588.0,-417.0,-109.0,-116.0,160.0,146,42,47,67,50
2025-02-26 15:33:33.837,467.0,-2146.0,-213.0,-157.0,-104.0,159.0,147,43,47,67,51
2025-02-26 15:33:33.838,560.0,-2227.0,86.0,-115.0,-63.0,166.0,146,43,47,67,51
2025-02-26 15:33:33.845,691.0,-2536.0,511.0,-76.0,-60.0,168.0,146,44,44,69,52
2025-02-26 15:33:33.851,774.0,-2745.0,251.0,-47.0,13.0,188.0,146,43,47,68,53
2025-02-26 15:33:33.857,568.0,-2335.0,515.0,-19.0,18.0,225.0,147,44,52,69,52
2025-02-26 15:33:33.861,305.0,-2896.0,374.0,18.0,30.0,247.0,146,44,48,69,54
2025-02-26 15:33:33.865,397.0,-2006.0,400.0,40.0,31.0,271.0,144,43,47,68,54
2025-02-26 15:33:33.873,447.0,-2057.0,173.0,64.0,32.0,294.0,147,36,47,69,54
2025-02-26 15:33:33.877,331.0,-1603.0,131.0,83.0,45.0,293.0,145,37,45,69,55
2025-02-26 15:33:33.881,396.0,-1169.0,205.0,105.0,48.0,280.0,148,41,45,70,55
2025-02-26 15:33:33.886,402.0,-758.0,312.0,102.0,69.0,248.0,147,43,45,71,54
2025-02-26 15:33:33.887,448.0,-498.0,314.0,89.0,84.0,223.0,147,42,48,71,54
2025-02-26 15:33:33.897,445.0,-597.0,342.0,67.0,97.0,212.0,146,37,49,69,54
2025-02-26 15:33:33.899,232.0,-384.0,312.0,33.0,123.0,209.0,146,42,48,70,56
2025-02-26 15:33:33.906,-18.0,-404.0,310.0,-36.0,133.0,212.0,146,44,47,70,56
2025-02-26 15:33:33.911,105.0,-354.0,133.0,-78.0,136.0,215.0,146,42,46,69,55
2025-02-26 15:33:33.918,40.0,-441.0,164.0,-101.0,132.0,224.0,146,43,48,68,55
2025-02-26 15:33:33.922,-101.0,-301.0,40.0,-118.0,121.0,223.0,147,43,47,71,55
2025-02-26 15:33:33.923,-253.0,-602.0,-125.0,-92.0,66.0,228.0,147,44,47,69,55
2025-02-26 15:33:33.931,-218.0,-492.0,21.0,-104.0,33.0,231.0,148,44,47,70,54
2025-02-26 15:33:33.935,-246.0,-692.0,-165.0,-89.0,11.0,237.0,146,44,44,70,55
2025-02-26 15:33:33.943,-225.0,-625.0,-117.0,-87.0,4.0,249.0,146,42,48,69,54
2025-02-26 15:33:33.947,-247.0,-661.0,69.0,-86.0,-4.0,249.0,139,42,48,68,55
2025-02-26 15:33:33.951,-88.0,-282.0,220.0,-94.0,14.0,231.0,146,43,47,69,55
2025-02-26 15:33:33.956,-81.0,-165.0,321.0,-86.0,33.0,198.0,146,43,49,66,54
2025-02-26 15:33:33.964,-41.0,-114.0,363.0,-56.0,52.0,189.0,145,42,48,71,54
2025-02-26 15:33:33.965,21.0,-273.0,236.0,4.0,60.0,174.0,153,42,48,73,55
2025-02-26 15:33:33.972,24.0,-302.0,395.0,29.0,59.0,181.0,147,41,47,70,54
2025-02-26 15:33:33.976,-23.0,-348.0,389.0,71.0,71.0,188.0,146,43,47,70,53
2025-02-26 15:33:33.980,78.0,-451.0,432.0,78.0,92.0,210.0,148,41,48,70,55
2025-02-26 15:33:33.983,109.0,-332.0,486.0,68.0,126.0,228.0,148,42,43,69,54
2025-02-26 15:33:33.992,85.0,-353.0,472.0,49.0,141.0,237.0,147,41,45,70,53
2025-02-26 15:33:33.996,85.0,-298.0,415.0,32.0,166.0,252.0,145,45,49,70,55
2025-02-26 15:33:34.001,-187.0,-365.0,159.0,53.0,150.0,256.0,146,43,48,68,54
2025-02-26 15:33:34.004,-194.0,-361.0,23.0,69.0,142.0,259.0,147,43,51,70,53
2025-02-26 15:33:34.013,-302.0,-338.0,-21.0,81.0,122.0,264.0,145,42,48,69,55
2025-02-26 15:33:34.016,-386.0,-354.0,-77.0,86.0,104.0,268.0,147,43,49,70,53
2025-02-26 15:33:34.020,-367.0,-292.0,-111.0,91.0,97.0,272.0,147,44,46,69,53
2025-02-26 15:33:34.025,-378.0,-222.0,-55.0,95.0,87.0,275.0,146,43,48,72,56
2025-02-26 15:33:34.029,-240.0,-162.0,82.0,99.0,86.0,273.0,147,43,47,69,54
2025-02-26 15:33:34.037,-276.0,-212.0,161.0,157.0,88.0,260.0,145,42,47,70,53
2025-02-26 15:33:34.038,17.0,-183.0,303.0,192.0,106.0,258.0,146,42,49,70,53
2025-02-26 15:33:34.045,3.0,-64.0,329.0,208.0,130.0,248.0,147,43,48,70,54
2025-02-26 15:33:34.050,-46.0,-72.0,371.0,263.0,137.0,232.0,145,43,49,69,55
2025-02-26 15:33:34.054,-44.0,60.0,340.0,288.0,163.0,226.0,147,43,48,67,53
2025-02-26 15:33:34.061,-131.0,247.0,318.0,292.0,176.0,228.0,147,41,48,71,53
2025-02-26 15:33:34.066,-264.0,257.0,165.0,308.0,177.0,225.0,146,42,46,67,52
2025-02-26 15:33:34.071,-411.0,389.0,50.0,328.0,175.0,224.0,144,43,49,69,54
2025-02-26 15:33:34.082,-568.0,624.0,-35.0,336.0,163.0,222.0,144,43,49,70,54
2025-02-26 15:33:34.084,-648.0,948.0,-151.0,358.0,156.0,214.0,145,42,47,70,52
2025-02-26 15:33:34.087,-786.0,1223.0,-312.0,383.0,139.0,203.0,145,43,49,70,52
2025-02-26 15:33:34.091,-920.0,1947.0,-370.0,407.0,120.0,153.0,143,44,47,69,53
2025-02-26 15:33:34.095,-1122.0,2824.0,-562.0,405.0,104.0,67.0,144,43,47,69,54
2025-02-26 15:33:34.103,-1318.0,3627.0,-793.0,397.0,94.0,-55.0,144,42,47,69,52
2025-02-26 15:33:34.106,-1585.0,3902.0,-1102.0,362.0,63.0,-126.0,143,43,50,69,53
2025-02-26 15:33:34.112,-1734.0,4396.0,-1252.0,297.0,13.0,-277.0,142,45,47,69,53
2025-02-26 15:33:34.117,-1907.0,4617.0,-1675.0,223.0,-47.0,-441.0,141,44,48,69,51
2025-02-26 15:33:34.123,-2026.0,4741.0,-1769.0,184.0,-134.0,-595.0,139,45,48,69,53
2025-02-26 15:33:34.128,-1937.0,3959.0,-2170.0,83.0,-252.0,-746.0,138,45,48,66,53
2025-02-26 15:33:34.135,-1731.0,3905.0,-2357.0,-5.0,-315.0,-884.0,138,44,47,67,52
2025-02-26 15:33:34.140,-1315.0,3851.0,-2665.0,-83.0,-474.0,-955.0,138,45,46,66,52
2025-02-26 15:33:34.144,-540.0,3598.0,-2836.0,-166.0,-651.0,-1072.0,137,44,45,69,53
2025-02-26 15:33:34.152,619.0,3437.0,-3067.0,-296.0,-844.0,-1158.0,136,43,44,68,55
2025-02-26 15:33:34.156,2506.0,2818.0,-3210.0,-404.0,-1045.0,-1181.0,138,43,45,67,53
2025-02-26 15:33:34.164,4577.0,1424.0,-3465.0,-530.0,-1221.0,-1108.0,138,45,46,69,56
2025-02-26 15:33:34.168,6401.0,-454.0,-3443.0,-605.0,-1288.0,-927.0,141,44,46,68,61
2025-02-26 15:33:34.172,7847.0,-2767.0,-2391.0,-637.0,-1175.0,-685.0,142,44,47,68,58
2025-02-26 15:33:34.181,8354.0,-5920.0,-846.0,-721.0,-899.0,-453.0,141,45,46,69,58
2025-02-26 15:33:34.185,7999.0,-8350.0,607.0,-759.0,-566.0,-242.0,143,45,47,68,58
2025-02-26 15:33:34.189,7965.0,-9424.0,1699.0,-648.0,-386.0,-70.0,141,44,47,69,57
2025-02-26 15:33:34.197,8013.0,-9189.0,1731.0,-332.0,-17.0,-14.0,141,44,45,67,58
2025-02-26 15:33:34.201,6994.0,-8616.0,665.0,50.0,283.0,34.0,141,44,45,69,56
2025-02-26 15:33:34.206,5146.0,-7324.0,-135.0,309.0,457.0,47.0,141,45,46,68,52
2025-02-26 15:33:34.213,3134.0,-5825.0,-1350.0,366.0,601.0,59.0,139,43,46,67,50
2025-02-26 15:33:34.217,2523.0,-2717.0,-49.0,413.0,721.0,138.0,141,42,45,63,45
2025-02-26 15:33:34.222,515.0,-3458.0,-3775.0,418.0,241.0,200.0,139,42,45,66,46
2025-02-26 15:33:34.228,1200.0,-2426.0,-3397.0,489.0,317.0,189.0,145,40,44,68,45
2025-02-26 15:33:34.234,13.0,-1016.0,-2017.0,317.0,169.0,252.0,140,42,48,69,47
2025-02-26 15:33:34.238,-573.0,-599.0,-1623.0,115.0,62.0,259.0,140,43,46,67,48
2025-02-26 15:33:34.242,184.0,-134.0,-713.0,-37.0,19.0,216.0,144,42,47,68,48
2025-02-26 15:33:34.250,-305.0,40.0,-504.0,-127.0,-68.0,215.0,142,44,47,69,50
2025-02-26 15:33:34.255,84.0,-1017.0,-48.0,-154.0,-92.0,220.0,142,45,46,68,50
2025-02-26 15:33:34.259,260.0,-1459.0,211.0,-165.0,-61.0,225.0,143,40,47,68,51
2025-02-26 15:33:34.263,75.0,-2251.0,830.0,-98.0,-51.0,239.0,140,43,48,70,52
2025-02-26 15:33:34.269,558.0,-2278.0,681.0,-84.0,50.0,250.0,141,44,47,69,52
2025-02-26 15:33:34.275,481.0,-2254.0,755.0,-36.0,118.0,267.0,141,44,47,71,52
2025-02-26 15:33:34.279,604.0,-2082.0,872.0,-7.0,109.0,293.0,141,43,45,67,53
2025-02-26 15:33:34.283,196.0,-2143.0,672.0,54.0,110.0,298.0,140,44,47,70,54
2025-02-26 15:33:34.291,499.0,-1532.0,526.0,78.0,152.0,306.0,142,44,48,70,55
2025-02-26 15:33:34.295,-138.0,-1658.0,541.0,80.0,114.0,310.0,141,43,45,70,58
2025-02-26 15:33:34.300,150.0,-1511.0,251.0,139.0,107.0,320.0,140,43,47,70,58
2025-02-26 15:33:34.304,173.0,-1058.0,244.0,148.0,114.0,324.0,141,43,47,70,60
2025-02-26 15:33:34.311,250.0,-907.0,168.0,126.0,135.0,325.0,142,43,47,71,60
2025-02-26 15:33:34.316,102.0,-785.0,65.0,112.0,138.0,310.0,141,44,46,71,60
2025-02-26 15:33:34.320,419.0,-50.0,21.0,50.0,139.0,322.0,143,44,46,71,60
2025-02-26 15:33:34.324,142.0,-634.0,121.0,-20.0,146.0,327.0,143,46,48,73,61
2025-02-26 15:33:34.328,166.0,-339.0,291.0,-68.0,150.0,326.0,142,46,48,71,61
2025-02-26 15:33:34.336,15.0,-322.0,373.0,-181.0,163.0,317.0,142,46,47,72,60
2025-02-26 15:33:34.340,126.0,-84.0,94.0,-209.0,165.0,313.0,140,46,47,72,64
2025-02-26 15:33:34.345,39.0,-325.0,228.0,-211.0,188.0,302.0,141,47,49,75,65
2025-02-26 15:33:34.349,-155.0,-393.0,118.0,-124.0,182.0,293.0,141,47,48,68,65
2025-02-26 15:33:34.356,21.0,-355.0,368.0,-98.0,136.0,288.0,141,45,48,74,67
2025-02-26 15:33:34.361,-6.0,-557.0,224.0,-80.0,84.0,295.0,141,46,49,74,67
2025-02-26 15:33:34.365,-31.0,-640.0,213.0,-57.0,59.0,307.0,142,48,49,72,68
2025-02-26 15:33:34.369,-65.0,-679.0,76.0,-52.0,51.0,307.0,142,47,51,76,70
2025-02-26 15:33:34.373,150.0,-701.0,137.0,-29.0,101.0,308.0,142,48,51,79,71
2025-02-26 15:33:34.379,239.0,-665.0,-157.0,-22.0,128.0,320.0,141,48,51,77,71
2025-02-26 15:33:34.385,343.0,-816.0,109.0,-61.0,222.0,328.0,141,47,51,78,73
2025-02-26 15:33:34.389,225.0,-600.0,34.0,-28.0,281.0,347.0,142,52,53,79,75
2025-02-26 15:33:34.394,-47.0,-655.0,-218.0,18.0,250.0,355.0,140,51,52,79,76
2025-02-26 15:33:34.401,-234.0,-363.0,115.0,104.0,223.0,343.0,140,51,52,81,78
2025-02-26 15:33:34.406,-295.0,-266.0,-112.0,144.0,192.0,335.0,141,52,53,84,83
2025-02-26 15:33:34.410,-378.0,-41.0,-458.0,215.0,169.0,330.0,139,53,54,85,84
2025-02-26 15:33:34.415,-452.0,-57.0,-258.0,264.0,162.0,329.0,140,53,54,85,87
2025-02-26 15:33:34.422,-372.0,-51.0,-72.0,324.0,153.0,327.0,139,56,56,86,90
2025-02-26 15:33:34.427,-136.0,-62.0,-7.0,348.0,138.0,322.0,140,56,58,91,95
2025-02-26 15:33:34.431,4.0,70.0,-240.0,363.0,115.0,311.0,138,58,59,93,97
2025-02-26 15:33:34.434,-46.0,-127.0,-99.0,397.0,116.0,303.0,138,56,60,93,98
2025-02-26 15:33:34.439,-193.0,115.0,61.0,413.0,135.0,294.0,137,59,63,96,102
2025-02-26 15:33:34.446,-246.0,-36.0,-170.0,427.0,146.0,282.0,137,64,65,99,104
2025-02-26 15:33:34.451,-352.0,-21.0,-473.0,415.0,149.0,268.0,137,68,65,100,104
2025-02-26 15:33:34.455,-372.0,167.0,-486.0,388.0,149.0,259.0,136,65,69,103,105
2025-02-26 15:33:34.463,-204.0,236.0,-633.0,445.0,121.0,252.0,136,73,69,104,108
2025-02-26 15:33:34.467,-431.0,322.0,-471.0,434.0,99.0,246.0,135,75,70,104,108
2025-02-26 15:33:34.471,-711.0,562.0,-443.0,418.0,83.0,238.0,135,76,72,105,108
2025-02-26 15:33:34.476,-745.0,628.0,-439.0,384.0,75.0,228.0,134,78,73,106,108
2025-02-26 15:33:34.483,-773.0,768.0,-610.0,343.0,51.0,219.0,134,80,75,105,108
2025-02-26 15:33:34.488,-735.0,1137.0,-766.0,299.0,14.0,186.0,134,84,76,105,109
2025-02-26 15:33:34.492,-786.0,1436.0,-1077.0,276.0,-40.0,141.0,134,84,78,106,106
2025-02-26 15:33:34.500,-983.0,1761.0,-1217.0,215.0,-95.0,81.0,132,88,79,111,105
2025-02-26 15:33:34.505,-1125.0,1968.0,-1412.0,143.0,-120.0,9.0,133,86,79,108,106
2025-02-26 15:33:34.508,-1308.0,2119.0,-1379.0,85.0,-166.0,-82.0,133,90,81,106,105
2025-02-26 15:33:34.517,-1322.0,2255.0,-1318.0,67.0,-185.0,-134.0,135,92,82,108,107
2025-02-26 15:33:34.521,-1241.0,2646.0,-1737.0,51.0,-230.0,-255.0,135,88,84,109,108
2025-02-26 15:33:34.529,-1293.0,2778.0,-1943.0,39.0,-314.0,-375.0,134,93,84,108,109
2025-02-26 15:33:34.533,-1408.0,2689.0,-1855.0,23.0,-378.0,-482.0,135,96,86,108,110
2025-02-26 15:33:34.538,-1389.0,2515.0,-1887.0,-3.0,-440.0,-581.0,133,95,86,108,111
2025-02-26 15:33:34.545,-1176.0,2255.0,-2037.0,-18.0,-509.0,-656.0,133,97,86,106,113
2025-02-26 15:33:34.550,-806.0,1982.0,-1769.0,-60.0,-559.0,-739.0,133,93,87,108,112
2025-02-26 15:33:34.554,-247.0,1726.0,-1379.0,-122.0,-592.0,-812.0,133,101,88,108,115
2025-02-26 15:33:34.562,384.0,1621.0,-1083.0,-159.0,-630.0,-852.0,132,102,89,109,116
2025-02-26 15:33:34.566,1435.0,1423.0,-768.0,-192.0,-665.0,-853.0,133,103,90,109,116
2025-02-26 15:33:34.573,2035.0,515.0,-606.0,-261.0,-852.0,-798.0,138,104,91,112,117
2025-02-26 15:33:34.578,3277.0,-487.0,786.0,-396.0,-1033.0,-740.0,136,105,91,110,116
2025-02-26 15:33:34.582,3848.0,-1571.0,301.0,-481.0,-991.0,-681.0,139,106,94,112,117
2025-02-26 15:33:34.591,4150.0,-1876.0,21.0,-557.0,-970.0,-642.0,141,108,96,115,118
2025-02-26 15:33:34.594,4767.0,-2441.0,-146.0,-536.0,-956.0,-528.0,141,111,99,115,117
2025-02-26 15:33:34.602,4973.0,-4011.0,-169.0,-547.0,-881.0,-392.0,141,111,98,115,116
2025-02-26 15:33:34.606,4759.0,-5539.0,-250.0,-550.0,-722.0,-274.0,140,111,100,117,116
2025-02-26 15:33:34.614,4249.0,-5986.0,-147.0,-441.0,-503.0,-160.0,143,112,103,119,117
2025-02-26 15:33:34.618,3816.0,-5914.0,-145.0,-319.0,-296.0,-50.0,141,116,102,117,115
2025-02-26 15:33:34.623,3353.0,-5844.0,488.0,-257.0,-115.0,49.0,143,116,102,118,117
2025-02-26 15:33:34.632,2919.0,-5504.0,270.0,-204.0,53.0,127.0,143,117,103,119,115
2025-02-26 15:33:34.636,2729.0,-4873.0,-803.0,-195.0,127.0,181.0,142,116,103,119,118
2025-02-26 15:33:34.643,2275.0,-3804.0,-464.0,-101.0,245.0,214.0,141,117,104,119,118
2025-02-26 15:33:34.647,1458.0,-3069.0,-710.0,-103.0,269.0,255.0,144,118,104,119,119
2025-02-26 15:33:34.652,993.0,-2084.0,-784.0,-89.0,214.0,263.0,144,117,104,117,119
2025-02-26 15:33:34.660,452.0,-1560.0,-402.0,151.0,7.0,255.0,145,118,105,118,119
2025-02-26 15:33:34.664,395.0,-1904.0,2031.0,238.0,38.0,281.0,146,118,104,118,120
2025-02-26 15:33:34.668,-112.0,-1534.0,892.0,237.0,128.0,322.0,142,116,106,118,122
2025-02-26 15:33:34.676,-48.0,-1444.0,-14.0,186.0,135.0,335.0,144,116,104,120,120
2025-02-26 15:33:34.680,45.0,-1068.0,224.0,131.0,128.0,355.0,145,117,106,120,120
2025-02-26 15:33:34.685,11.0,-983.0,281.0,22.0,124.0,362.0,145,115,103,120,121
2025-02-26 15:33:34.692,-135.0,-851.0,414.0,17.0,124.0,346.0,144,116,106,121,120
2025-02-26 15:33:34.696,-123.0,-796.0,218.0,49.0,120.0,325.0,143,117,103,119,120
2025-02-26 15:33:34.701,-147.0,-606.0,111.0,33.0,89.0,312.0,144,114,104,118,120
2025-02-26 15:33:34.709,-198.0,-601.0,207.0,52.0,61.0,273.0,144,118,102,121,120
2025-02-26 15:33:34.713,-265.0,-641.0,125.0,112.0,45.0,250.0,143,116,104,117,120
2025-02-26 15:33:34.717,-345.0,-735.0,333.0,140.0,58.0,223.0,143,114,101,118,119
2025-02-26 15:33:34.722,-313.0,-920.0,500.0,243.0,79.0,212.0,143,115,100,119,121
2025-02-26 15:33:34.730,-395.0,-945.0,659.0,375.0,150.0,198.0,145,115,101,124,119
2025-02-26 15:33:34.734,-294.0,-1097.0,-1352.0,254.0,110.0,186.0,143,116,101,119,119
2025-02-26 15:33:34.742,-80.0,-1459.0,32.0,156.0,88.0,193.0,144,116,101,119,119
2025-02-26 15:33:34.746,141.0,-1109.0,286.0,197.0,146.0,171.0,143,115,101,120,119
2025-02-26 15:33:34.750,258.0,-999.0,431.0,141.0,149.0,163.0,145,116,101,119,119
2025-02-26 15:33:34.754,-80.0,-1059.0,670.0,77.0,166.0,181.0,144,115,101,119,120
2025-02-26 15:33:34.762,-229.0,-794.0,379.0,31.0,187.0,217.0,143,115,100,119,120
2025-02-26 15:33:34.767,-255.0,-731.0,78.0,20.0,223.0,234.0,144,117,100,119,120
2025-02-26 15:33:34.771,45.0,-582.0,-3.0,-91.0,231.0,249.0,143,116,99,119,120
2025-02-26 15:33:34.778,-100.0,-774.0,14.0,-184.0,204.0,259.0,144,115,101,121,121
2025-02-26 15:33:34.780,-31.0,-184.0,149.0,-204.0,182.0,255.0,145,114,101,118,120
2025-02-26 15:33:34.787,-76.0,-431.0,130.0,-172.0,175.0,269.0,145,116,101,122,120
2025-02-26 15:33:34.795,-306.0,-465.0,66.0,-114.0,152.0,275.0,143,114,100,119,121
2025-02-26 15:33:34.799,-104.0,-370.0,35.0,-94.0,131.0,276.0,143,113,98,120,118
2025-02-26 15:33:34.804,-116.0,-373.0,31.0,-73.0,108.0,278.0,144,116,101,120,119
2025-02-26 15:33:34.811,-179.0,-222.0,84.0,-52.0,91.0,275.0,146,116,100,120,119
2025-02-26 15:33:34.813,-236.0,-283.0,142.0,-34.0,94.0,272.0,144,112,100,118,119
2025-02-26 15:33:34.813,-230.0,-305.0,39.0,15.0,95.0,269.0,142,111,100,119,119
2025-02-26 15:33:34.824,-203.0,-274.0,75.0,38.0,99.0,265.0,144,111,101,120,118
2025-02-26 15:33:34.832,-207.0,-244.0,126.0,33.0,107.0,255.0,143,108,100,120,120
2025-02-26 15:33:34.836,-324.0,-323.0,48.0,36.0,98.0,250.0,143,105,101,117,119
2025-02-26 15:33:34.841,-456.0,-324.0,0.0,31.0,91.0,248.0,143,108,100,117,119
2025-02-26 15:33:34.846,-449.0,-317.0,5.0,48.0,94.0,247.0,141,112,101,120,119
2025-02-26 15:33:34.853,-459.0,-259.0,-303.0,70.0,104.0,241.0,140,109,101,120,119
2025-02-26 15:33:34.857,-355.0,-438.0,-219.0,132.0,79.0,239.0,141,109,100,119,118
2025-02-26 15:33:34.864,-543.0,-176.0,-241.0,188.0,72.0,234.0,140,108,98,119,120
2025-02-26 15:33:34.869,-498.0,-130.0,51.0,198.0,63.0,222.0,141,110,98,118,119
2025-02-26 15:33:34.873,-471.0,-77.0,151.0,205.0,64.0,216.0,140,109,99,119,119
2025-02-26 15:33:34.877,-463.0,-162.0,74.0,209.0,64.0,213.0,141,107,98,120,119
2025-02-26 15:33:34.885,-439.0,-74.0,114.0,227.0,74.0,207.0,142,95,99,118,119
2025-02-26 15:33:34.888,-413.0,-109.0,217.0,228.0,85.0,199.0,141,104,100,120,120
2025-02-26 15:33:34.894,-407.0,-108.0,128.0,235.0,86.0,187.0,140,100,100,118,120
2025-02-26 15:33:34.902,-427.0,-87.0,101.0,251.0,85.0,173.0,139,104,100,116,119
2025-02-26 15:33:34.905,-393.0,-64.0,145.0,263.0,71.0,166.0,140,92,100,119,120
2025-02-26 15:33:34.910,-441.0,-29.0,87.0,296.0,54.0,154.0,140,107,99,119,120
2025-02-26 15:33:34.914,-500.0,46.0,132.0,306.0,36.0,144.0,138,98,100,120,120
2025-02-26 15:33:34.922,-557.0,381.0,75.0,331.0,27.0,140.0,139,105,100,119,119
2025-02-26 15:33:34.924,-728.0,570.0,187.0,317.0,25.0,139.0,139,99,100,120,121
2025-02-26 15:33:34.931,-827.0,966.0,33.0,317.0,8.0,128.0,140,100,98,118,120
2025-02-26 15:33:34.937,-851.0,1256.0,-221.0,320.0,-35.0,110.0,138,103,98,120,120
2025-02-26 15:33:34.942,-884.0,1491.0,-360.0,343.0,-43.0,69.0,139,103,98,118,120
2025-02-26 15:33:34.947,-1035.0,2197.0,-926.0,316.0,-101.0,33.0,138,103,97,119,121
2025-02-26 15:33:34.955,-991.0,2216.0,-360.0,266.0,-99.0,-44.0,137,102,99,118,122
2025-02-26 15:33:34.959,-1416.0,2531.0,-1363.0,232.0,-118.0,-141.0,137,105,96,119,123
2025-02-26 15:33:34.960,-1638.0,2896.0,-1668.0,229.0,-182.0,-250.0,136,106,98,120,124
2025-02-26 15:33:34.971,-1653.0,3250.0,-1929.0,175.0,-255.0,-372.0,136,104,92,118,125
2025-02-26 15:33:34.973,-1684.0,3359.0,-1890.0,106.0,-316.0,-504.0,135,103,97,117,126
2025-02-26 15:33:34.983,-1583.0,3355.0,-1931.0,48.0,-379.0,-625.0,137,111,96,118,125
2025-02-26 15:33:34.988,-1336.0,3202.0,-1607.0,-14.0,-418.0,-738.0,137,109,97,119,126
2025-02-26 15:33:34.992,-1017.0,3033.0,-1358.0,-91.0,-460.0,-853.0,135,112,96,119,124
2025-02-26 15:33:35.000,-358.0,2991.0,-1229.0,-168.0,-558.0,-934.0,132,112,96,126,127
2025-02-26 15:33:35.004,824.0,2902.0,-1180.0,-212.0,-754.0,-940.0,137,114,97,118,127
2025-02-26 15:33:35.012,2137.0,2208.0,-664.0,-336.0,-941.0,-898.0,139,113,99,120,127
2025-02-26 15:33:35.016,3429.0,582.0,-402.0,-458.0,-950.0,-841.0,139,114,100,118,126
2025-02-26 15:33:35.021,4488.0,-1105.0,-558.0,-590.0,-962.0,-750.0,138,114,101,120,126
2025-02-26 15:33:35.029,5718.0,-2480.0,-481.0,-712.0,-967.0,-671.0,140,117,101,118,126
2025-02-26 15:33:35.033,5496.0,-3645.0,-708.0,-800.0,-913.0,-562.0,141,113,102,120,124
2025-02-26 15:33:35.041,5005.0,-4771.0,-845.0,-797.0,-772.0,-425.0,142,117,103,123,125
2025-02-26 15:33:35.045,4457.0,-5646.0,-1140.0,-661.0,-619.0,-282.0,139,116,104,121,123
2025-02-26 15:33:35.050,3979.0,-6303.0,-1167.0,-495.0,-471.0,-128.0,140,118,105,123,124
2025-02-26 15:33:35.057,3773.0,-6749.0,-915.0,-329.0,-285.0,-26.0,140,119,105,120,124
2025-02-26 15:33:35.065,3415.0,-6667.0,-1001.0,-230.0,-112.0,40.0,143,121,106,123,123
2025-02-26 15:33:35.070,3200.0,-5762.0,-855.0,-200.0,22.0,88.0,141,120,105,120,123
2025-02-26 15:33:35.074,2803.0,-4887.0,-2434.0,-245.0,22.0,130.0,141,119,108,121,125
2025-02-26 15:33:35.082,1714.0,-3195.0,-1511.0,-64.0,89.0,169.0,137,120,107,121,125
2025-02-26 15:33:35.086,1692.0,-2341.0,-1109.0,220.0,241.0,192.0,142,120,108,126,127
2025-02-26 15:33:35.094,1072.0,-1399.0,-1836.0,223.0,50.0,212.0,144,120,107,122,125
2025-02-26 15:33:35.098,726.0,-777.0,3122.0,377.0,-63.0,121.0,142,117,106,122,125
2025-02-26 15:33:35.102,123.0,-2428.0,1399.0,658.0,179.0,235.0,149,120,106,123,126
2025-02-26 15:33:35.111,30.0,-872.0,71.0,371.0,113.0,228.0,146,119,106,121,124
2025-02-26 15:33:35.115,-132.0,-1787.0,407.0,237.0,229.0,243.0,145,119,106,124,126
2025-02-26 15:33:35.119,-362.0,-1302.0,-1121.0,-39.0,151.0,292.0,145,119,104,121,125
2025-02-26 15:33:35.125,-53.0,-854.0,125.0,-140.0,118.0,279.0,144,120,106,122,124
2025-02-26 15:33:35.131,-149.0,-935.0,1082.0,-58.0,136.0,270.0,144,117,102,121,125
2025-02-26 15:33:35.136,-104.0,-984.0,1038.0,18.0,128.0,258.0,144,117,105,121,125
2025-02-26 15:33:35.143,-190.0,-938.0,1050.0,43.0,136.0,217.0,144,117,105,122,122
2025-02-26 15:33:35.147,-175.0,-1086.0,594.0,160.0,126.0,184.0,146,118,105,123,124
2025-02-26 15:33:35.152,-55.0,-1107.0,137.0,235.0,110.0,173.0,144,116,103,122,125
2025-02-26 15:33:35.159,-86.0,-1222.0,261.0,259.0,146.0,166.0,144,114,102,122,123
2025-02-26 15:33:35.164,185.0,-1257.0,525.0,309.0,225.0,150.0,145,113,101,121,123
2025-02-26 15:33:35.167,292.0,-1572.0,-734.0,388.0,208.0,165.0,143,110,102,122,123
2025-02-26 15:33:35.176,-122.0,-1456.0,228.0,200.0,138.0,164.0,143,111,100,120,123
2025-02-26 15:33:35.180,173.0,-1136.0,1387.0,44.0,158.0,170.0,144,106,99,123,118
2025-02-26 15:33:35.184,182.0,-939.0,872.0,4.0,132.0,190.0,143,110,97,122,123
2025-02-26 15:33:35.191,233.0,-1156.0,55.0,-18.0,133.0,203.0,144,109,96,120,121
2025-02-26 15:33:35.197,-37.0,-1343.0,125.0,-71.0,191.0,231.0,143,109,98,122,124
2025-02-26 15:33:35.201,-23.0,-945.0,631.0,-107.0,228.0,247.0,144,109,95,120,121
2025-02-26 15:33:35.208,13.0,-965.0,648.0,-210.0,282.0,248.0,145,109,94,121,121
2025-02-26 15:33:35.213,145.0,-684.0,551.0,-270.0,289.0,236.0,142,106,95,121,121
2025-02-26 15:33:35.216,209.0,-676.0,79.0,-262.0,244.0,240.0,144,106,93,120,120
2025-02-26 15:33:35.225,-184.0,-611.0,-9.0,-243.0,178.0,261.0,145,103,92,119,121
2025-02-26 15:33:35.229,-422.0,-507.0,276.0,-184.0,167.0,279.0,144,103,92,120,120
2025-02-26 15:33:35.233,-225.0,-542.0,-143.0,-73.0,132.0,294.0,143,102,90,121,119
2025-02-26 15:33:35.237,-92.0,-415.0,50.0,-17.0,119.0,291.0,138,98,90,115,118
2025-02-26 15:33:35.246,-146.0,-250.0,-35.0,-28.0,104.0,282.0,144,99,91,119,118
2025-02-26 15:33:35.249,-146.0,-253.0,161.0,-30.0,99.0,275.0,143,92,88,120,117
2025-02-26 15:33:35.255,-168.0,-263.0,97.0,-35.0,96.0,271.0,141,95,89,118,115
2025-02-26 15:33:35.262,-240.0,-270.0,73.0,-47.0,99.0,270.0,143,93,90,117,114
2025-02-26 15:33:35.266,-122.0,-105.0,397.0,-106.0,109.0,264.0,141,94,87,118,112
2025-02-26 15:33:35.270,-180.0,-58.0,85.0,-90.0,113.0,251.0,142,91,85,116,111
2025-02-26 15:33:35.274,-303.0,-247.0,65.0,-66.0,111.0,248.0,142,88,86,117,110
2025-02-26 15:33:35.283,-478.0,-320.0,74.0,-41.0,97.0,248.0,142,86,82,115,107
2025-02-26 15:33:35.286,-499.0,-381.0,-119.0,6.0,81.0,247.0,142,85,82,116,106
2025-02-26 15:33:35.291,-451.0,-376.0,-16.0,42.0,92.0,245.0,141,76,80,118,106
2025-02-26 15:33:35.294,-335.0,-436.0,-56.0,102.0,89.0,242.0,142,73,78,114,103
2025-02-26 15:33:35.301,-292.0,-369.0,30.0,135.0,99.0,241.0,141,79,76,115,102
2025-02-26 15:33:35.308,-346.0,-331.0,-88.0,136.0,101.0,243.0,144,78,77,116,102
2025-02-26 15:33:35.312,-252.0,-162.0,79.0,146.0,111.0,241.0,141,75,74,112,100
2025-02-26 15:33:35.319,-260.0,-243.0,61.0,162.0,113.0,239.0,141,71,74,112,99
2025-02-26 15:33:35.323,-304.0,-245.0,42.0,176.0,114.0,235.0,140,71,73,111,98
2025-02-26 15:33:35.328,-344.0,-249.0,-35.0,204.0,108.0,233.0,141,68,72,112,98
2025-02-26 15:33:35.332,-408.0,-205.0,13.0,233.0,102.0,232.0,141,61,70,109,97
2025-02-26 15:33:35.339,-471.0,-163.0,-96.0,253.0,91.0,233.0,142,65,70,109,95
2025-02-26 15:33:35.343,-528.0,-57.0,-166.0,302.0,86.0,233.0,142,59,67,108,95
2025-02-26 15:33:35.348,-525.0,110.0,-145.0,352.0,83.0,230.0,141,56,68,107,96
2025-02-26 15:33:35.352,-530.0,270.0,-180.0,381.0,73.0,226.0,141,64,63,105,95
2025-02-26 15:33:35.360,-566.0,547.0,-103.0,417.0,66.0,212.0,140,59,62,103,92
2025-02-26 15:33:35.364,-600.0,735.0,-56.0,439.0,60.0,206.0,140,58,60,100,89
2025-02-26 15:33:35.368,-547.0,904.0,33.0,439.0,61.0,181.0,140,55,61,98,87
2025-02-26 15:33:35.373,-716.0,1099.0,-46.0,446.0,58.0,142.0,139,52,58,94,85
2025-02-26 15:33:35.378,-738.0,1532.0,369.0,383.0,79.0,95.0,140,50,56,92,81
2025-02-26 15:33:35.385,-702.0,1468.0,24.0,352.0,91.0,67.0,139,47,54,86,76
2025-02-26 15:33:35.389,-834.0,1811.0,-540.0,370.0,71.0,2.0,139,44,53,84,71
2025-02-26 15:33:35.394,-1000.0,2233.0,-752.0,383.0,57.0,-83.0,137,43,52,83,68
2025-02-26 15:33:35.398,-1149.0,2512.0,-1112.0,377.0,33.0,-126.0,136,44,51,80,62
2025-02-26 15:33:35.405,-1311.0,2774.0,-996.0,328.0,22.0,-234.0,136,43,50,78,59
2025-02-26 15:33:35.409,-1611.0,2870.0,-1311.0,304.0,-14.0,-356.0,134,43,51,78,56
2025-02-26 15:33:35.413,-1970.0,3214.0,-1577.0,207.0,-87.0,-500.0,133,42,49,75,54
2025-02-26 15:33:35.422,-1996.0,3542.0,-1582.0,120.0,-129.0,-645.0,131,40,48,73,52
2025-02-26 15:33:35.426,-1597.0,3944.0,-1789.0,61.0,-237.0,-789.0,135,42,47,73,51
2025-02-26 15:33:35.430,-875.0,3955.0,-2068.0,-1.0,-381.0,-854.0,131,42,48,73,51
2025-02-26 15:33:35.439,-580.0,3891.0,-2194.0,-47.0,-582.0,-965.0,134,42,47,71,50
2025-02-26 15:33:35.450,346.0,3782.0,-2480.0,-127.0,-763.0,-1038.0,136,42,45,71,49
2025-02-26 15:33:35.453,2135.0,3390.0,-2417.0,-180.0,-860.0,-1087.0,138,41,45,70,49
2025-02-26 15:33:35.457,3571.0,1924.0,-2233.0,-314.0,-949.0,-1092.0,137,39,43,67,51
2025-02-26 15:33:35.460,4569.0,481.0,-1989.0,-443.0,-1039.0,-1052.0,138,42,43,67,50
2025-02-26 15:33:35.467,5057.0,-750.0,-1567.0,-541.0,-1058.0,-945.0,140,38,41,66,52
2025-02-26 15:33:35.471,5549.0,-2280.0,-927.0,-591.0,-1033.0,-735.0,144,39,41,68,52
2025-02-26 15:33:35.476,6182.0,-4196.0,3.0,-647.0,-895.0,-546.0,141,38,43,65,53
2025-02-26 15:33:35.483,6715.0,-5067.0,1157.0,-711.0,-671.0,-469.0,144,41,44,68,53
2025-02-26 15:33:35.487,6785.0,-6720.0,1554.0,-635.0,-424.0,-305.0,142,41,46,66,54
2025-02-26 15:33:35.491,6832.0,-7473.0,1678.0,-453.0,-164.0,-156.0,142,40,46,67,52
2025-02-26 15:33:35.499,6108.0,-7845.0,1026.0,-330.0,121.0,-46.0,143,41,46,65,50
2025-02-26 15:33:35.504,4335.0,-7640.0,292.0,-48.0,268.0,51.0,141,41,46,61,47
2025-02-26 15:33:35.505,3428.0,-6641.0,-481.0,193.0,306.0,136.0,141,38,45,61,44
2025-02-26 15:33:35.516,2301.0,-5833.0,-1187.0,268.0,364.0,169.0,140,39,47,60,44
2025-02-26 15:33:35.519,1234.0,-4563.0,-2453.0,459.0,340.0,196.0,142,38,45,65,43
2025-02-26 15:33:35.524,-103.0,-1300.0,-216.0,365.0,148.0,245.0,142,37,46,66,44
2025-02-26 15:33:35.531,441.0,-2261.0,-1002.0,438.0,1.0,216.0,142,38,47,67,45
2025-02-26 15:33:35.536,381.0,476.0,-1202.0,217.0,6.0,227.0,142,38,46,66,44
2025-02-26 15:33:35.541,8.0,-306.0,-963.0,53.0,-41.0,208.0,144,39,45,65,41
2025-02-26 15:33:35.545,512.0,-666.0,-330.0,-22.0,-26.0,151.0,144,42,47,68,46
2025-02-26 15:33:35.549,32.0,-1062.0,-20.0,-32.0,-125.0,163.0,142,42,47,68,46
2025-02-26 15:33:35.557,159.0,-1283.0,-236.0,-99.0,-117.0,156.0,143,40,44,67,47
2025-02-26 15:33:35.560,268.0,-1284.0,595.0,-132.0,-71.0,172.0,144,46,45,66,46
2025-02-26 15:33:35.565,312.0,-2210.0,429.0,-135.0,-42.0,184.0,145,42,46,68,48
2025-02-26 15:33:35.573,560.0,-2209.0,382.0,-128.0,-25.0,218.0,145,43,42,67,48
2025-02-26 15:33:35.577,501.0,-2435.0,490.0,-94.0,0.0,236.0,144,40,44,68,48
2025-02-26 15:33:35.582,444.0,-2213.0,575.0,-28.0,13.0,250.0,143,41,45,69,50
2025-02-26 15:33:35.586,512.0,-1947.0,604.0,-13.0,46.0,239.0,144,40,45,69,51
2025-02-26 15:33:35.590,708.0,-1697.0,664.0,37.0,57.0,228.0,143,41,45,71,50
2025-02-26 15:33:35.598,316.0,-1568.0,608.0,91.0,44.0,232.0,144,38,43,68,51
2025-02-26 15:33:35.601,236.0,-1449.0,394.0,101.0,48.0,241.0,145,41,45,69,52
2025-02-26 15:33:35.606,156.0,-1318.0,281.0,86.0,61.0,254.0,144,41,44,69,53
2025-02-26 15:33:35.611,27.0,-1249.0,305.0,49.0,60.0,259.0,143,42,45,69,53
2025-02-26 15:33:35.614,6.0,-928.0,202.0,37.0,64.0,263.0,143,42,45,70,53
2025-02-26 15:33:35.622,12.0,-671.0,228.0,-23.0,72.0,264.0,144,42,46,69,52
2025-02-26 15:33:35.627,-42.0,-648.0,279.0,-71.0,71.0,259.0,144,42,45,71,52
2025-02-26 15:33:35.631,-71.0,-348.0,294.0,-162.0,94.0,252.0,144,42,46,71,52
2025-02-26 15:33:35.635,16.0,-403.0,311.0,-193.0,110.0,250.0,144,42,46,70,52
2025-02-26 15:33:35.642,-170.0,-461.0,115.0,-167.0,68.0,248.0,144,41,47,71,51
2025-02-26 15:33:35.647,-187.0,-537.0,189.0,-162.0,39.0,258.0,146,43,46,69,52
2025-02-26 15:33:35.651,-268.0,-621.0,6.0,-156.0,7.0,277.0,146,45,48,71,51
2025-02-26 15:33:35.656,-288.0,-698.0,29.0,-138.0,-11.0,283.0,144,43,46,72,52
2025-02-26 15:33:35.663,-314.0,-718.0,127.0,-117.0,-21.0,288.0,145,43,47,71,51
2025-02-26 15:33:35.668,-174.0,-597.0,409.0,-113.0,-6.0,263.0,144,42,48,72,52
2025-02-26 15:33:35.672,7.0,-379.0,494.0,-83.0,13.0,225.0,145,42,49,71,53
2025-02-26 15:33:35.676,194.0,-361.0,584.0,-61.0,67.0,212.0,144,41,47,70,51
2025-02-26 15:33:35.680,188.0,-387.0,551.0,-58.0,122.0,203.0,144,43,48,71,51
2025-02-26 15:33:35.688,147.0,-370.0,482.0,-62.0,139.0,217.0,145,43,49,71,51
2025-02-26 15:33:35.692,72.0,-394.0,318.0,-39.0,153.0,224.0,145,44,48,72,51
2025-02-26 15:33:35.697,-138.0,-152.0,325.0,-16.0,139.0,229.0,144,42,47,70,52
2025-02-26 15:33:35.701,-350.0,-194.0,197.0,-7.0,113.0,226.0,146,44,49,72,51
2025-02-26 15:33:35.709,-375.0,-216.0,106.0,1.0,102.0,223.0,144,42,47,71,51
2025-02-26 15:33:35.713,-407.0,-286.0,67.0,3.0,89.0,221.0,145,45,48,73,51
2025-02-26 15:33:35.717,-358.0,-273.0,19.0,3.0,94.0,217.0,144,44,48,71,52
2025-02-26 15:33:35.721,-380.0,-250.0,80.0,-13.0,98.0,219.0,144,42,47,67,51
2025-02-26 15:33:35.726,-261.0,-271.0,40.0,-21.0,98.0,225.0,143,43,47,71,52
2025-02-26 15:33:35.733,-263.0,-282.0,68.0,-28.0,90.0,238.0,144,43,48,73,51
2025-02-26 15:33:35.737,-332.0,-262.0,52.0,-29.0,80.0,249.0,144,43,46,72,51
2025-02-26 15:33:35.742,-411.0,-311.0,-3.0,-18.0,63.0,253.0,143,42,47,72,53
2025-02-26 15:33:35.746,-465.0,-332.0,9.0,-9.0,49.0,261.0,145,43,49,73,52
2025-02-26 15:33:35.750,-451.0,-375.0,174.0,14.0,49.0,268.0,144,43,47,72,56
2025-02-26 15:33:35.758,-302.0,-301.0,300.0,47.0,55.0,269.0,145,43,48,72,51
2025-02-26 15:33:35.762,-172.0,-186.0,386.0,67.0,77.0,265.0,143,41,47,74,50
2025-02-26 15:33:35.766,-132.0,-27.0,425.0,124.0,91.0,249.0,144,43,48,72,50
2025-02-26 15:33:35.770,-121.0,98.0,375.0,172.0,124.0,239.0,142,42,48,73,53
2025-02-26 15:33:35.778,-324.0,433.0,262.0,195.0,145.0,217.0,145,43,47,73,51
2025-02-26 15:33:35.782,-442.0,852.0,117.0,221.0,149.0,197.0,143,43,49,72,52
2025-02-26 15:33:35.786,-790.0,1045.0,-63.0,233.0,135.0,184.0,142,42,49,74,50
2025-02-26 15:33:35.790,-958.0,1584.0,-74.0,233.0,117.0,151.0,144,43,50,74,51
2025-02-26 15:33:35.799,-1084.0,2040.0,-138.0,233.0,96.0,99.0,142,42,49,73,51
2025-02-26 15:33:35.803,-1140.0,2347.0,-228.0,240.0,87.0,28.0,142,46,49,69,51
2025-02-26 15:33:35.807,-1193.0,2540.0,-278.0,232.0,76.0,-15.0,141,42,49,72,52
2025-02-26 15:33:35.812,-1270.0,2967.0,-348.0,231.0,62.0,-116.0,141,42,47,72,52
2025-02-26 15:33:35.819,-1341.0,3309.0,-430.0,231.0,41.0,-229.0,143,43,47,74,51
2025-02-26 15:33:35.822,-1400.0,3523.0,-727.0,223.0,23.0,-355.0,140,43,46,70,51
2025-02-26 15:33:35.828,-1509.0,3628.0,-868.0,191.0,-18.0,-421.0,140,44,48,71,51
2025-02-26 15:33:35.834,-1548.0,3532.0,-1110.0,153.0,-78.0,-550.0,139,44,47,71,53
2025-02-26 15:33:35.840,-1566.0,3449.0,-1257.0,99.0,-163.0,-672.0,141,42,47,71,51
2025-02-26 15:33:35.844,-1559.0,3235.0,-1578.0,73.0,-275.0,-795.0,140,43,47,71,51
2025-02-26 15:33:35.852,-1090.0,3081.0,-1960.0,17.0,-419.0,-909.0,141,45,47,71,52
2025-02-26 15:33:35.856,-827.0,2998.0,-2296.0,-34.0,-489.0,-1018.0,140,42,44,68,52
2025-02-26 15:33:35.860,5.0,2767.0,-2564.0,-111.0,-650.0,-1091.0,141,44,41,69,51
2025-02-26 15:33:35.868,1641.0,2562.0,-2923.0,-201.0,-833.0,-1102.0,141,44,45,70,53
2025-02-26 15:33:35.872,3270.0,2099.0,-2738.0,-332.0,-987.0,-1051.0,141,44,45,71,52
2025-02-26 15:33:35.877,4911.0,1192.0,-2216.0,-500.0,-1013.0,-910.0,146,44,44,69,54
2025-02-26 15:33:35.884,6621.0,-758.0,-858.0,-743.0,-887.0,-736.0,146,43,44,69,57
2025-02-26 15:33:35.888,7584.0,-3785.0,326.0,-896.0,-641.0,-540.0,145,43,45,68,55
2025-02-26 15:33:35.894,8002.0,-6735.0,768.0,-862.0,-287.0,-349.0,145,44,47,69,55
2025-02-26 15:33:35.900,7705.0,-9269.0,1236.0,-628.0,-98.0,-185.0,144,42,45,67,55
2025-02-26 15:33:35.905,7263.0,-10657.0,771.0,-188.0,188.0,-54.0,143,42,45,68,54
2025-02-26 15:33:35.910,5302.0,-10591.0,-585.0,271.0,340.0,5.0,142,42,45,66,52
2025-02-26 15:33:35.918,3166.0,-8399.0,-1520.0,509.0,432.0,103.0,142,41,48,63,50
2025-02-26 15:33:35.922,2056.0,-5141.0,-2525.0,521.0,420.0,172.0,143,40,46,64,49
2025-02-26 15:33:35.926,746.0,-2706.0,-3743.0,546.0,456.0,176.0,143,39,46,64,45
2025-02-26 15:33:35.934,1104.0,397.0,-2782.0,402.0,59.0,193.0,145,40,46,64,45
2025-02-26 15:33:35.937,-599.0,279.0,-2302.0,164.0,40.0,153.0,143,44,48,66,46
2025-02-26 15:33:35.943,-468.0,1695.0,-1915.0,-34.0,-84.0,113.0,143,40,49,66,46
2025-02-26 15:33:35.946,-221.0,695.0,-1264.0,-132.0,-213.0,59.0,146,39,47,65,47
2025-02-26 15:33:35.954,-107.0,-924.0,-682.0,-223.0,-161.0,21.0,144,46,47,68,48
2025-02-26 15:33:35.958,415.0,-2207.0,-653.0,-144.0,-137.0,1.0,142,42,45,66,48
2025-02-26 15:33:35.963,1375.0,-2774.0,-575.0,-191.0,-84.0,43.0,145,43,45,66,50
2025-02-26 15:33:35.970,717.0,-3207.0,846.0,-105.0,-23.0,76.0,145,46,47,67,50
2025-02-26 15:33:35.972,686.0,-3096.0,662.0,-68.0,3.0,112.0,144,43,45,68,50
2025-02-26 15:33:35.979,756.0,-2962.0,486.0,-2.0,56.0,116.0,143,44,47,69,51
2025-02-26 15:33:35.983,628.0,-2216.0,498.0,53.0,106.0,132.0,142,43,45,68,51
2025-02-26 15:33:35.987,307.0,-1689.0,139.0,76.0,129.0,134.0,144,44,47,68,52
2025-02-26 15:33:35.995,300.0,-1284.0,-103.0,93.0,119.0,137.0,143,43,47,68,53
2025-02-26 15:33:35.999,-58.0,-1088.0,-332.0,76.0,109.0,138.0,142,43,45,69,53
2025-02-26 15:33:36.003,-175.0,-1047.0,-413.0,51.0,54.0,143.0,144,44,46,69,53
2025-02-26 15:33:36.008,-114.0,-1119.0,-526.0,45.0,2.0,149.0,145,43,45,69,58
2025-02-26 15:33:36.016,-118.0,-1141.0,-470.0,1.0,-11.0,154.0,143,44,45,69,56
2025-02-26 15:33:36.020,36.0,-1209.0,-264.0,-43.0,-30.0,166.0,141,43,45,71,56
2025-02-26 15:33:36.024,197.0,-1282.0,-320.0,-68.0,-35.0,175.0,144,44,45,69,55
2025-02-26 15:33:36.032,411.0,-1177.0,-251.0,-106.0,-30.0,179.0,145,47,45,69,55
2025-02-26 15:33:36.034,394.0,-1247.0,-109.0,-118.0,-26.0,173.0,143,43,45,72,55
2025-02-26 15:33:36.041,585.0,-990.0,0.0,-146.0,4.0,172.0,146,45,45,72,55
2025-02-26 15:33:36.045,597.0,-1049.0,90.0,-156.0,30.0,170.0,144,44,46,71,56
2025-02-26 15:33:36.049,326.0,-1100.0,76.0,-152.0,42.0,171.0,144,44,46,72,56
2025-02-26 15:33:36.057,458.0,-1210.0,-67.0,-104.0,45.0,171.0,142,44,47,72,55
2025-02-26 15:33:36.061,308.0,-1102.0,-78.0,-57.0,23.0,176.0,142,43,46,73,57
2025-02-26 15:33:36.065,186.0,-1138.0,-133.0,-47.0,7.0,190.0,142,44,47,72,55
2025-02-26 15:33:36.069,145.0,-1000.0,-143.0,-32.0,0.0,201.0,144,45,47,74,56
2025-02-26 15:33:36.077,118.0,-1043.0,-118.0,-41.0,-2.0,206.0,145,44,49,76,57
2025-02-26 15:33:36.081,121.0,-910.0,-145.0,-51.0,8.0,214.0,144,43,49,74,54
2025-02-26 15:33:36.085,91.0,-881.0,-31.0,-88.0,23.0,225.0,142,44,50,75,54
2025-02-26 15:33:36.089,159.0,-774.0,-98.0,-107.0,46.0,227.0,142,45,49,75,54
2025-02-26 15:33:36.097,243.0,-875.0,-110.0,-107.0,80.0,246.0,145,42,50,74,53
2025-02-26 15:33:36.101,293.0,-817.0,-64.0,-106.0,95.0,256.0,144,42,49,75,53
2025-02-26 15:33:36.106,217.0,-922.0,-107.0,-69.0,93.0,263.0,142,44,50,75,53
2025-02-26 15:33:36.110,130.0,-914.0,-121.0,-5.0,78.0,269.0,139,44,50,77,54
2025-02-26 15:33:36.114,152.0,-939.0,-67.0,26.0,58.0,275.0,143,44,51,78,54
2025-02-26 15:33:36.122,207.0,-941.0,-146.0,76.0,50.0,280.0,142,44,51,76,54
2025-02-26 15:33:36.125,341.0,-771.0,105.0,109.0,70.0,289.0,141,47,52,82,55
2025-02-26 15:33:36.130,462.0,-888.0,-15.0,121.0,102.0,306.0,141,45,51,78,55
2025-02-26 15:33:36.135,385.0,-726.0,-96.0,144.0,120.0,321.0,142,46,53,80,55
2025-02-26 15:33:36.142,284.0,-735.0,-163.0,162.0,148.0,332.0,142,46,54,80,55
2025-02-26 15:33:36.147,204.0,-749.0,-184.0,172.0,158.0,348.0,140,46,54,81,56
2025-02-26 15:33:36.151,101.0,-642.0,-264.0,186.0,145.0,364.0,141,48,57,82,56
2025-02-26 15:33:36.155,116.0,-447.0,-217.0,210.0,136.0,374.0,141,47,53,81,54
2025-02-26 15:33:36.163,-124.0,-433.0,-240.0,233.0,120.0,377.0,140,48,51,74,56
2025-02-26 15:33:36.167,-221.0,-317.0,-411.0,265.0,105.0,380.0,141,50,51,79,55
2025-02-26 15:33:36.172,-240.0,-163.0,-137.0,277.0,102.0,367.0,140,50,51,80,56
2025-02-26 15:33:36.176,-276.0,2.0,-235.0,303.0,94.0,354.0,139,53,54,80,56
2025-02-26 15:33:36.183,-353.0,20.0,-70.0,298.0,80.0,349.0,141,55,53,80,57
2025-02-26 15:33:36.185,-227.0,139.0,-49.0,287.0,88.0,345.0,138,55,55,80,57
2025-02-26 15:33:36.190,-192.0,122.0,-176.0,287.0,94.0,346.0,141,57,57,80,57
2025-02-26 15:33:36.196,-140.0,187.0,-141.0,301.0,107.0,339.0,140,59,58,82,58
2025-02-26 15:33:36.203,-337.0,183.0,-151.0,325.0,113.0,326.0,141,50,61,84,57
2025-02-26 15:33:36.208,-470.0,241.0,-228.0,338.0,111.0,325.0,140,62,63,81,58
2025-02-26 15:33:36.212,-508.0,375.0,-300.0,355.0,112.0,323.0,146,58,65,84,58
2025-02-26 15:33:36.216,-600.0,573.0,-421.0,383.0,103.0,302.0,142,63,67,83,60
2025-02-26 15:33:36.225,-880.0,1275.0,-503.0,394.0,75.0,264.0,148,66,68,88,58
2025-02-26 15:33:36.228,-1185.0,1754.0,-758.0,376.0,51.0,213.0,142,69,69,83,58
2025-02-26 15:33:36.233,-1356.0,2475.0,-691.0,314.0,-12.0,175.0,140,70,74,83,59
2025-02-26 15:33:36.237,-1522.0,2568.0,-825.0,240.0,-67.0,88.0,140,72,76,84,59
2025-02-26 15:33:36.245,-1624.0,2885.0,-823.0,156.0,-125.0,-23.0,141,83,78,85,58
2025-02-26 15:33:36.250,-1525.0,3035.0,-952.0,133.0,-163.0,-140.0,140,83,82,85,60
2025-02-26 15:33:36.253,-1471.0,2906.0,-870.0,104.0,-177.0,-252.0,139,89,83,85,57
2025-02-26 15:33:36.261,-1458.0,2778.0,-927.0,125.0,-202.0,-350.0,137,92,84,85,57
2025-02-26 15:33:36.266,-1421.0,2636.0,-882.0,170.0,-229.0,-392.0,136,96,88,86,56
2025-02-26 15:33:36.270,-1394.0,2324.0,-1076.0,220.0,-268.0,-469.0,133,100,91,88,55
2025-02-26 15:33:36.278,-1070.0,2223.0,-1184.0,257.0,-326.0,-544.0,133,101,92,86,54
2025-02-26 15:33:36.282,-956.0,2119.0,-1092.0,273.0,-393.0,-608.0,131,102,97,87,52
2025-02-26 15:33:36.290,-760.0,2010.0,-934.0,245.0,-470.0,-664.0,127,104,98,89,54
2025-02-26 15:33:36.293,-340.0,1904.0,-789.0,216.0,-547.0,-717.0,128,108,99,88,54
2025-02-26 15:33:36.298,48.0,1929.0,-619.0,152.0,-580.0,-765.0,124,109,102,90,54
2025-02-26 15:33:36.306,847.0,1753.0,-286.0,75.0,-631.0,-797.0,125,112,103,91,54
2025-02-26 15:33:36.310,1765.0,1501.0,-35.0,-16.0,-661.0,-805.0,122,114,106,94,56
2025-02-26 15:33:36.315,2434.0,906.0,178.0,-87.0,-680.0,-817.0,122,118,107,93,56
2025-02-26 15:33:36.323,2965.0,-126.0,393.0,-115.0,-694.0,-798.0,120,118,108,93,56
2025-02-26 15:33:36.324,3356.0,-1459.0,443.0,-119.0,-680.0,-744.0,120,118,110,96,58
2025-02-26 15:33:36.332,3689.0,-2786.0,560.0,-72.0,-618.0,-639.0,118,119,110,95,58
2025-02-26 15:33:36.337,3910.0,-4163.0,802.0,8.0,-572.0,-494.0,120,122,109,96,57
2025-02-26 15:33:36.344,4007.0,-4352.0,807.0,76.0,-472.0,-356.0,126,122,109,98,56
2025-02-26 15:33:36.348,4521.0,-4258.0,1192.0,118.0,-354.0,-294.0,120,122,108,94,57
2025-02-26 15:33:36.356,4722.0,-4297.0,1424.0,146.0,-220.0,-177.0,119,124,110,94,56
2025-02-26 15:33:36.360,4447.0,-4300.0,1547.0,154.0,-92.0,-74.0,120,125,111,94,55
2025-02-26 15:33:36.364,3993.0,-3997.0,1781.0,141.0,22.0,10.0,120,107,110,93,54
2025-02-26 15:33:36.372,3409.0,-3598.0,1995.0,128.0,117.0,70.0,120,109,111,94,53
2025-02-26 15:33:36.376,2826.0,-3147.0,1877.0,109.0,152.0,109.0,120,115,111,91,51
2025-02-26 15:33:36.380,2583.0,-2619.0,1599.0,84.0,195.0,134.0,121,120,112,92,50
2025-02-26 15:33:36.388,1984.0,-2722.0,1451.0,56.0,207.0,143.0,122,118,112,92,49
2025-02-26 15:33:36.393,1493.0,-2139.0,1332.0,17.0,195.0,153.0,118,119,112,95,49
2025-02-26 15:33:36.398,1079.0,-1881.0,1129.0,-27.0,173.0,164.0,120,120,112,93,48
2025-02-26 15:33:36.405,851.0,-1747.0,1014.0,-48.0,156.0,174.0,120,118,111,90,48
2025-02-26 15:33:36.409,747.0,-1753.0,920.0,-80.0,149.0,187.0,121,121,111,93,49
2025-02-26 15:33:36.413,692.0,-1773.0,807.0,-102.0,141.0,202.0,120,121,112,94,51
2025-02-26 15:33:36.421,687.0,-1787.0,718.0,-105.0,138.0,210.0,119,118,112,94,51
2025-02-26 15:33:36.425,665.0,-1794.0,680.0,-95.0,138.0,223.0,122,118,112,93,52
2025-02-26 15:33:36.430,608.0,-1776.0,622.0,-87.0,142.0,236.0,122,124,112,95,53
2025-02-26 15:33:36.432,576.0,-1683.0,594.0,-67.0,149.0,243.0,123,126,112,96,53
2025-02-26 15:33:36.442,555.0,-1586.0,525.0,-42.0,152.0,248.0,122,123,110,95,54
2025-02-26 15:33:36.445,493.0,-1546.0,537.0,-20.0,159.0,249.0,123,124,112,95,56
2025-02-26 15:33:36.450,412.0,-1433.0,549.0,-3.0,167.0,250.0,124,125,111,96,57
2025-02-26 15:33:36.457,354.0,-1284.0,544.0,13.0,179.0,249.0,124,124,111,97,57
2025-02-26 15:33:36.462,396.0,-1128.0,500.0,24.0,182.0,252.0,124,124,110,95,55
2025-02-26 15:33:36.467,299.0,-1164.0,459.0,34.0,188.0,253.0,126,124,111,95,56
2025-02-26 15:33:36.471,245.0,-1065.0,457.0,40.0,192.0,259.0,125,128,112,96,61
2025-02-26 15:33:36.476,175.0,-902.0,458.0,39.0,194.0,264.0,126,124,110,97,59
2025-02-26 15:33:36.482,118.0,-726.0,432.0,34.0,192.0,268.0,125,123,112,97,59
2025-02-26 15:33:36.487,128.0,-521.0,401.0,14.0,188.0,269.0,127,124,112,98,59
2025-02-26 15:33:36.491,71.0,-466.0,417.0,-12.0,185.0,273.0,126,125,111,100,58
2025-02-26 15:33:36.499,21.0,-356.0,452.0,-39.0,184.0,277.0,125,124,110,97,59
2025-02-26 15:33:36.503,10.0,-254.0,434.0,-54.0,180.0,280.0,127,125,109,95,59
2025-02-26 15:33:36.507,27.0,-240.0,435.0,-86.0,178.0,281.0,124,123,110,95,60
2025-02-26 15:33:36.515,-5.0,-240.0,367.0,-103.0,172.0,284.0,128,126,108,96,60
2025-02-26 15:33:36.519,-9.0,-235.0,336.0,-109.0,165.0,285.0,128,124,112,97,59
2025-02-26 15:33:36.524,37.0,-295.0,324.0,-118.0,164.0,290.0,125,123,111,96,60
2025-02-26 15:33:36.528,103.0,-295.0,314.0,-118.0,171.0,292.0,127,125,110,96,59
2025-02-26 15:33:36.536,67.0,-380.0,309.0,-110.0,173.0,296.0,129,125,110,96,59
2025-02-26 15:33:36.540,99.0,-378.0,309.0,-109.0,180.0,303.0,127,113,112,95,60
2025-02-26 15:33:36.544,180.0,-396.0,403.0,-107.0,196.0,312.0,128,101,113,95,59
2025-02-26 15:33:36.552,231.0,-361.0,382.0,-103.0,205.0,322.0,130,122,111,94,59
2025-02-26 15:33:36.556,259.0,-357.0,428.0,-84.0,220.0,331.0,126,121,110,95,59
2025-02-26 15:33:36.561,207.0,-359.0,303.0,-67.0,229.0,339.0,128,123,111,95,59
2025-02-26 15:33:36.565,154.0,-414.0,207.0,-61.0,236.0,353.0,129,123,112,93,60
2025-02-26 15:33:36.572,163.0,-330.0,333.0,-38.0,242.0,360.0,129,121,111,94,60
2025-02-26 15:33:36.576,116.0,-61.0,266.0,-20.0,249.0,363.0,130,121,110,93,58
2025-02-26 15:33:36.580,-14.0,-15.0,59.0,-11.0,251.0,368.0,129,120,110,92,59
2025-02-26 15:33:36.585,-209.0,130.0,99.0,2.0,243.0,345.0,131,121,111,92,60
2025-02-26 15:33:36.591,-265.0,221.0,-173.0,28.0,229.0,322.0,130,118,110,92,59
2025-02-26 15:33:36.597,-446.0,207.0,-206.0,47.0,211.0,310.0,131,106,111,90,59
2025-02-26 15:33:36.601,-485.0,285.0,-269.0,88.0,191.0,274.0,131,107,110,91,59
2025-02-26 15:33:36.606,-525.0,309.0,-305.0,111.0,182.0,238.0,131,107,111,91,59
2025-02-26 15:33:36.613,-523.0,396.0,-413.0,150.0,178.0,207.0,134,119,112,96,60
2025-02-26 15:33:36.618,-490.0,688.0,-316.0,189.0,173.0,180.0,130,119,110,90,59
2025-02-26 15:33:36.622,-519.0,772.0,-305.0,212.0,169.0,171.0,129,122,111,91,59
2025-02-26 15:33:36.630,-521.0,954.0,-281.0,232.0,170.0,156.0,130,118,111,91,58
2025-02-26 15:33:36.635,-457.0,1247.0,-295.0,238.0,173.0,143.0,123,110,112,92,59
2025-02-26 15:33:36.638,-548.0,1547.0,-396.0,235.0,170.0,124.0,130,105,109,92,60
2025-02-26 15:33:36.647,-630.0,1849.0,-524.0,217.0,165.0,93.0,130,117,111,91,59
2025-02-26 15:33:36.651,-870.0,2105.0,-801.0,191.0,141.0,73.0,131,119,113,91,59
2025-02-26 15:33:36.654,-1036.0,2181.0,-1124.0,177.0,103.0,21.0,131,117,111,90,58
2025-02-26 15:33:36.663,-1218.0,2297.0,-1350.0,163.0,44.0,-49.0,130,116,110,91,58
2025-02-26 15:33:36.667,-1460.0,2251.0,-1475.0,158.0,-27.0,-129.0,132,117,110,89,57
2025-02-26 15:33:36.669,-1611.0,2318.0,-1602.0,149.0,-105.0,-215.0,129,119,110,90,58
2025-02-26 15:33:36.679,-1719.0,2506.0,-1679.0,143.0,-148.0,-311.0,129,118,110,90,56
2025-02-26 15:33:36.681,-1694.0,2586.0,-1667.0,127.0,-239.0,-408.0,127,115,112,91,63
2025-02-26 15:33:36.691,-1489.0,2578.0,-1640.0,105.0,-327.0,-504.0,129,113,111,91,56
2025-02-26 15:33:36.693,-1286.0,2477.0,-1494.0,90.0,-411.0,-600.0,127,118,111,91,55
2025-02-26 15:33:36.700,-1135.0,2357.0,-1423.0,80.0,-501.0,-650.0,125,119,111,92,56
2025-02-26 15:33:36.708,-985.0,2317.0,-1436.0,72.0,-608.0,-750.0,125,118,111,88,55
2025-02-26 15:33:36.710,-616.0,2202.0,-1401.0,55.0,-731.0,-843.0,127,124,111,93,58
2025-02-26 15:33:36.717,213.0,2154.0,-1332.0,13.0,-854.0,-915.0,127,122,112,93,58
2025-02-26 15:33:36.724,1796.0,2044.0,-950.0,-69.0,-943.0,-953.0,122,121,111,97,58
2025-02-26 15:33:36.729,3099.0,1503.0,-622.0,-101.0,-993.0,-968.0,125,124,114,95,59
2025-02-26 15:33:36.733,4198.0,372.0,-122.0,-160.0,-1007.0,-950.0,122,123,112,98,60
2025-02-26 15:33:36.740,4946.0,-584.0,40.0,-174.0,-1001.0,-885.0,125,125,112,95,62
2025-02-26 15:33:36.745,5176.0,-1938.0,349.0,-175.0,-948.0,-769.0,122,123,113,95,63
2025-02-26 15:33:36.753,5407.0,-3696.0,661.0,-152.0,-830.0,-596.0,124,126,112,96,61
2025-02-26 15:33:36.757,4976.0,-4286.0,851.0,-120.0,-679.0,-493.0,121,123,112,98,62
2025-02-26 15:33:36.761,5578.0,-5115.0,1063.0,-86.0,-483.0,-274.0,122,125,112,96,61
2025-02-26 15:33:36.769,5569.0,-5849.0,1300.0,-20.0,-294.0,-62.0,123,125,111,95,58
2025-02-26 15:33:36.773,5383.0,-5630.0,1361.0,29.0,-119.0,101.0,121,124,113,93,58
2025-02-26 15:33:36.778,4773.0,-4713.0,1425.0,69.0,15.0,187.0,125,125,113,90,55
2025-02-26 15:33:36.786,3830.0,-3719.0,1343.0,94.0,101.0,208.0,124,114,111,93,53
2025-02-26 15:33:36.790,3314.0,-2890.0,1468.0,118.0,138.0,195.0,122,118,113,94,53
2025-02-26 15:33:36.794,2380.0,-2440.0,1375.0,147.0,188.0,181.0,124,110,112,93,50
2025-02-26 15:33:36.806,1490.0,-2299.0,1307.0,155.0,205.0,152.0,126,121,112,93,49
2025-02-26 15:33:36.808,807.0,-1676.0,1136.0,122.0,183.0,131.0,126,122,112,95,49
2025-02-26 15:33:36.812,447.0,-1154.0,927.0,72.0,154.0,114.0,126,124,113,96,48
2025-02-26 15:33:36.818,262.0,-980.0,796.0,34.0,119.0,112.0,128,121,112,94,48
2025-02-26 15:33:36.823,114.0,-1112.0,730.0,-20.0,106.0,119.0,127,122,112,93,48
2025-02-26 15:33:36.827,120.0,-1159.0,730.0,-73.0,89.0,126.0,126,121,113,93,49
2025-02-26 15:33:36.831,108.0,-1282.0,757.0,-111.0,78.0,141.0,128,118,112,93,51
2025-02-26 15:33:36.839,172.0,-1240.0,750.0,-121.0,73.0,155.0,128,122,110,93,51
2025-02-26 15:33:36.842,165.0,-1304.0,825.0,-139.0,75.0,166.0,128,125,111,93,53
2025-02-26 15:33:36.845,118.0,-1464.0,841.0,-139.0,82.0,174.0,129,122,110,92,55
2025-02-26 15:33:36.855,166.0,-1492.0,818.0,-126.0,94.0,182.0,129,124,106,95,57
2025-02-26 15:33:36.860,235.0,-1439.0,804.0,-99.0,109.0,192.0,129,122,107,92,59
2025-02-26 15:33:36.864,314.0,-1472.0,784.0,-89.0,126.0,200.0,133,123,106,93,62
2025-02-26 15:33:36.871,306.0,-1468.0,790.0,-58.0,135.0,209.0,131,124,106,91,65
2025-02-26 15:33:36.875,298.0,-1369.0,798.0,-42.0,157.0,214.0,133,122,104,91,66
2025-02-26 15:33:36.880,415.0,-1308.0,692.0,-31.0,180.0,225.0,132,122,104,91,67
2025-02-26 15:33:36.885,484.0,-1245.0,667.0,-29.0,200.0,238.0,133,121,101,91,69
2025-02-26 15:33:36.892,483.0,-1146.0,691.0,-41.0,222.0,248.0,132,122,103,93,72
2025-02-26 15:33:36.896,463.0,-959.0,748.0,-66.0,233.0,258.0,133,118,98,90,71
2025-02-26 15:33:36.899,596.0,-864.0,718.0,-89.0,259.0,265.0,133,118,97,91,73
2025-02-26 15:33:36.905,639.0,-763.0,660.0,-109.0,274.0,279.0,134,117,99,92,75
2025-02-26 15:33:36.911,578.0,-730.0,558.0,-124.0,281.0,291.0,136,115,96,90,75
2025-02-26 15:33:36.917,537.0,-696.0,456.0,-147.0,280.0,302.0,135,112,92,91,75
2025-02-26 15:33:36.922,399.0,-684.0,383.0,-163.0,276.0,308.0,134,111,91,90,76
2025-02-26 15:33:36.928,300.0,-631.0,308.0,-185.0,264.0,320.0,135,107,90,92,77
2025-02-26 15:33:36.930,123.0,-613.0,221.0,-193.0,246.0,331.0,135,104,88,94,76
2025-02-26 15:33:36.937,4.0,-551.0,150.0,-204.0,220.0,337.0,135,103,87,93,77
2025-02-26 15:33:36.942,-70.0,-499.0,46.0,-222.0,204.0,340.0,136,99,85,94,77
2025-02-26 15:33:36.950,-126.0,-515.0,37.0,-239.0,175.0,345.0,136,98,83,93,78
2025-02-26 15:33:36.953,-256.0,-502.0,0.0,-241.0,150.0,352.0,133,97,83,91,79
2025-02-26 15:33:36.958,-277.0,-501.0,40.0,-246.0,138.0,356.0,137,96,83,93,79
2025-02-26 15:33:36.961,-217.0,-414.0,18.0,-249.0,117.0,356.0,136,95,79,93,80
2025-02-26 15:33:36.970,-232.0,-438.0,57.0,-245.0,108.0,356.0,136,92,77,91,80
2025-02-26 15:33:36.975,-197.0,-509.0,197.0,-251.0,107.0,356.0,138,88,78,91,79
2025-02-26 15:33:36.979,-157.0,-504.0,230.0,-251.0,107.0,359.0,138,87,76,91,81
2025-02-26 15:33:36.982,-123.0,-426.0,140.0,-222.0,109.0,361.0,138,87,74,90,79
2025-02-26 15:33:36.990,-88.0,-377.0,126.0,-177.0,117.0,355.0,138,80,70,91,81
2025-02-26 15:33:36.995,-101.0,-464.0,86.0,-150.0,132.0,340.0,139,74,68,92,81
2025-02-26 15:33:36.998,-163.0,-482.0,-14.0,-94.0,137.0,318.0,138,74,67,90,80
2025-02-26 15:33:37.004,-307.0,-452.0,-64.0,-35.0,150.0,303.0,138,73,64,94,82
2025-02-26 15:33:37.009,-320.0,-286.0,-110.0,30.0,160.0,267.0,140,66,64,93,81
2025-02-26 15:33:37.015,-424.0,-126.0,-97.0,55.0,172.0,234.0,141,65,63,93,80
2025-02-26 15:33:37.020,-483.0,64.0,-112.0,95.0,172.0,201.0,141,64,61,94,79
2025-02-26 15:33:37.021,-505.0,221.0,-174.0,121.0,167.0,187.0,141,62,58,92,80
2025-02-26 15:33:37.031,-561.0,495.0,-193.0,129.0,155.0,158.0,140,59,57,92,79
2025-02-26 15:33:37.036,-816.0,725.0,-123.0,130.0,146.0,134.0,141,57,56,93,79
2025-02-26 15:33:37.040,-887.0,900.0,7.0,118.0,124.0,129.0,142,48,52,95,75
2025-02-26 15:33:37.044,-953.0,983.0,70.0,117.0,95.0,113.0,141,51,51,91,75
2025-02-26 15:33:37.052,-922.0,1032.0,-63.0,119.0,71.0,94.0,140,50,49,89,73
2025-02-26 15:33:37.056,-908.0,937.0,-166.0,120.0,64.0,87.0,140,49,50,88,70
2025-02-26 15:33:37.060,-944.0,1191.0,-271.0,149.0,53.0,59.0,141,49,51,87,66
2025-02-26 15:33:37.065,-1239.0,1269.0,-131.0,168.0,46.0,16.0,138,50,50,87,64
2025-02-26 15:33:37.069,-1251.0,1485.0,-127.0,189.0,38.0,-31.0,139,52,51,86,61
2025-02-26 15:33:37.076,-799.0,1571.0,-467.0,213.0,6.0,-54.0,140,50,50,89,60
2025-02-26 15:33:37.081,-737.0,1870.0,-612.0,226.0,-21.0,-111.0,138,50,52,88,58
2025-02-26 15:33:37.086,-755.0,2083.0,-853.0,226.0,-36.0,-183.0,139,47,50,87,56
2025-02-26 15:33:37.093,-769.0,2396.0,-1051.0,238.0,-42.0,-247.0,139,47,46,85,53
2025-02-26 15:33:37.097,-732.0,2757.0,-1188.0,228.0,-52.0,-281.0,141,45,47,83,50
2025-02-26 15:33:37.101,-683.0,2755.0,-1056.0,197.0,-59.0,-358.0,138,43,48,82,51
2025-02-26 15:33:37.110,-865.0,2502.0,-1023.0,156.0,-102.0,-430.0,139,43,45,82,51
2025-02-26 15:33:37.113,-1115.0,2293.0,-1187.0,129.0,-184.0,-490.0,139,44,45,79,51
2025-02-26 15:33:37.118,-1195.0,2203.0,-1359.0,99.0,-279.0,-536.0,138,42,46,79,50
2025-02-26 15:33:37.126,-734.0,2053.0,-1417.0,75.0,-325.0,-587.0,138,42,44,86,49
2025-02-26 15:33:37.130,-457.0,1981.0,-1455.0,50.0,-418.0,-644.0,137,43,45,81,51
2025-02-26 15:33:37.134,142.0,2036.0,-1293.0,20.0,-483.0,-675.0,138,44,45,80,51
2025-02-26 15:33:37.142,652.0,2162.0,-1170.0,-26.0,-540.0,-739.0,138,43,46,84,51
2025-02-26 15:33:37.146,1383.0,2175.0,-810.0,-109.0,-599.0,-783.0,141,46,48,81,51
2025-02-26 15:33:37.150,2344.0,1866.0,-570.0,-158.0,-635.0,-804.0,141,44,48,82,52
2025-02-26 15:33:37.158,2853.0,1354.0,-286.0,-280.0,-637.0,-816.0,139,44,47,82,53
2025-02-26 15:33:37.160,3679.0,321.0,90.0,-402.0,-608.0,-801.0,139,43,47,83,52
2025-02-26 15:33:37.166,4529.0,-409.0,265.0,-486.0,-563.0,-766.0,140,45,48,84,55
2025-02-26 15:33:37.171,5108.0,-1939.0,290.0,-520.0,-458.0,-648.0,140,46,50,85,55
2025-02-26 15:33:37.178,5356.0,-3848.0,540.0,-502.0,-313.0,-510.0,142,45,48,83,54
2025-02-26 15:33:37.183,4997.0,-5958.0,630.0,-474.0,-161.0,-381.0,136,43,46,84,54
2025-02-26 15:33:37.189,4256.0,-7306.0,468.0,-346.0,-90.0,-259.0,134,44,47,83,54
2025-02-26 15:33:37.195,3865.0,-7659.0,150.0,-157.0,14.0,-139.0,132,43,46,79,53
2025-02-26 15:33:37.195,3100.0,-7447.0,-249.0,22.0,74.0,-83.0,133,45,48,82,53
2025-02-26 15:33:37.201,2760.0,-6537.0,-605.0,159.0,139.0,4.0,135,47,52,90,55
2025-02-26 15:33:37.211,1914.0,-5434.0,-1600.0,267.0,197.0,73.0,136,47,51,89,54
2025-02-26 15:33:37.216,2225.0,-4029.0,-1129.0,334.0,21.0,125.0,134,45,51,86,54
2025-02-26 15:33:37.221,1312.0,-3869.0,-2696.0,472.0,125.0,107.0,136,46,50,86,53
2025-02-26 15:33:37.228,1405.0,-2103.0,-1230.0,186.0,27.0,146.0,134,47,49,85,52
2025-02-26 15:33:37.232,684.0,-2203.0,-673.0,138.0,60.0,138.0,135,44,47,85,52
2025-02-26 15:33:37.236,525.0,-1838.0,-752.0,108.0,9.0,137.0,134,43,48,78,53
2025-02-26 15:33:37.240,574.0,-1797.0,-427.0,-2.0,15.0,137.0,135,44,49,87,53
2025-02-26 15:33:37.249,402.0,-1689.0,-495.0,-59.0,-25.0,147.0,135,47,50,90,53
2025-02-26 15:33:37.252,468.0,-1932.0,-168.0,-44.0,-76.0,139.0,136,46,51,90,54
2025-02-26 15:33:37.257,625.0,-1787.0,-78.0,-60.0,-75.0,135.0,137,47,49,91,55
2025-02-26 15:33:37.262,611.0,-1995.0,339.0,-71.0,-53.0,130.0,136,45,49,89,54
2025-02-26 15:33:37.269,619.0,-1834.0,357.0,-66.0,-30.0,133.0,136,47,49,90,55
2025-02-26 15:33:37.273,497.0,-2050.0,171.0,-30.0,-31.0,134.0,134,45,50,89,54
2025-02-26 15:33:37.277,443.0,-1894.0,278.0,-5.0,-21.0,140.0,136,47,50,88,55
2025-02-26 15:33:37.281,473.0,-1984.0,313.0,14.0,13.0,146.0,135,45,50,89,56
2025-02-26 15:33:37.286,408.0,-1903.0,322.0,29.0,9.0,161.0,136,46,50,89,57
2025-02-26 15:33:37.293,369.0,-1808.0,217.0,26.0,10.0,179.0,135,45,50,89,56
2025-02-26 15:33:37.298,389.0,-1708.0,175.0,15.0,17.0,187.0,136,46,50,91,55
2025-02-26 15:33:37.301,378.0,-1593.0,186.0,8.0,16.0,199.0,137,46,53,90,56
2025-02-26 15:33:37.306,304.0,-1512.0,1.0,2.0,15.0,216.0,136,48,52,91,57
2025-02-26 15:33:37.310,290.0,-1349.0,-11.0,-24.0,21.0,224.0,137,49,52,93,56
2025-02-26 15:33:37.319,210.0,-1035.0,-130.0,-74.0,37.0,233.0,138,46,52,90,55
2025-02-26 15:33:37.322,138.0,-924.0,-125.0,-84.0,30.0,231.0,137,46,52,92,56
2025-02-26 15:33:37.324,64.0,-797.0,-99.0,-87.0,26.0,219.0,137,47,51,89,56
2025-02-26 15:33:37.331,113.0,-713.0,-2.0,-71.0,5.0,206.0,138,47,50,90,56
2025-02-26 15:33:37.338,206.0,-638.0,65.0,-57.0,-6.0,183.0,138,48,52,88,56
2025-02-26 15:33:37.342,205.0,-550.0,161.0,-36.0,-11.0,170.0,136,46,50,89,55
2025-02-26 15:33:37.347,179.0,-627.0,184.0,-37.0,-5.0,166.0,139,45,50,88,56
2025-02-26 15:33:37.351,71.0,-626.0,70.0,-23.0,2.0,168.0,138,47,50,88,56
2025-02-26 15:33:37.355,73.0,-717.0,134.0,-19.0,-1.0,175.0,136,46,50,87,55
2025-02-26 15:33:37.363,44.0,-678.0,128.0,-20.0,3.0,178.0,135,46,51,88,55
2025-02-26 15:33:37.367,123.0,-605.0,88.0,-17.0,29.0,182.0,139,45,50,88,57
2025-02-26 15:33:37.371,73.0,-625.0,131.0,-46.0,39.0,191.0,138,46,51,89,56
2025-02-26 15:33:37.376,44.0,-658.0,60.0,-51.0,45.0,195.0,139,45,52,88,56
2025-02-26 15:33:37.379,39.0,-678.0,106.0,-53.0,51.0,209.0,141,47,51,88,55
2025-02-26 15:33:37.385,10.0,-625.0,-25.0,-52.0,55.0,224.0,139,45,52,88,55
2025-02-26 15:33:37.391,-11.0,-621.0,-103.0,-46.0,48.0,233.0,139,46,52,90,57
2025-02-26 15:33:37.396,-115.0,-625.0,-134.0,-36.0,14.0,247.0,138,46,50,89,56
2025-02-26 15:33:37.400,-160.0,-569.0,64.0,-12.0,1.0,253.0,139,45,50,87,55
2025-02-26 15:33:37.405,-78.0,-461.0,251.0,14.0,-5.0,247.0,140,45,51,87,56
2025-02-26 15:33:37.412,144.0,-278.0,339.0,32.0,17.0,219.0,140,46,52,88,56
2025-02-26 15:33:37.417,185.0,-263.0,507.0,76.0,35.0,194.0,140,46,52,87,56
2025-02-26 15:33:37.421,264.0,-229.0,571.0,93.0,78.0,189.0,140,47,51,84,56
2025-02-26 15:33:37.425,210.0,-148.0,582.0,88.0,121.0,191.0,141,46,52,88,55
2025-02-26 15:33:37.428,128.0,-102.0,522.0,67.0,139.0,204.0,137,45,51,89,56
2025-02-26 15:33:37.437,-78.0,-103.0,404.0,68.0,150.0,211.0,140,48,52,87,56
2025-02-26 15:33:37.441,-272.0,-33.0,400.0,68.0,143.0,220.0,139,45,51,88,56
2025-02-26 15:33:37.446,-353.0,202.0,356.0,71.0,136.0,215.0,140,46,52,88,56
2025-02-26 15:33:37.449,-519.0,332.0,373.0,85.0,120.0,206.0,140,46,52,88,56
2025-02-26 15:33:37.454,-587.0,528.0,357.0,90.0,110.0,183.0,141,46,50,88,56
2025-02-26 15:33:37.462,-635.0,689.0,352.0,93.0,108.0,159.0,139,47,50,87,56
2025-02-26 15:33:37.464,-664.0,751.0,365.0,88.0,105.0,149.0,140,45,51,87,55
2025-02-26 15:33:37.470,-724.0,833.0,341.0,81.0,103.0,137.0,141,47,52,87,57
2025-02-26 15:33:37.474,-799.0,833.0,323.0,82.0,101.0,130.0,140,46,53,89,58
2025-02-26 15:33:37.478,-841.0,848.0,395.0,102.0,101.0,125.0,140,46,52,87,56
2025-02-26 15:33:37.486,-892.0,908.0,415.0,148.0,102.0,108.0,142,47,52,88,55
2025-02-26 15:33:37.490,-939.0,1122.0,443.0,181.0,110.0,78.0,141,47,52,89,56
2025-02-26 15:33:37.494,-939.0,1412.0,386.0,254.0,116.0,59.0,140,46,52,89,57
2025-02-26 15:33:37.499,-933.0,1677.0,292.0,319.0,131.0,4.0,139,45,52,88,56
2025-02-26 15:33:37.506,-1099.0,2421.0,-15.0,339.0,138.0,-76.0,140,46,52,87,56
2025-02-26 15:33:37.511,-1276.0,3145.0,-455.0,354.0,131.0,-174.0,139,46,52,87,57
2025-02-26 15:33:37.515,-1586.0,3463.0,-861.0,325.0,87.0,-227.0,138,48,52,86,56
2025-02-26 15:33:37.523,-1756.0,3965.0,-1035.0,250.0,15.0,-331.0,139,47,52,88,58
2025-02-26 15:33:37.527,-1788.0,4046.0,-1292.0,199.0,-70.0,-447.0,139,49,52,87,57
2025-02-26 15:33:37.532,-1542.0,3709.0,-1507.0,109.0,-119.0,-568.0,139,46,52,87,55
2025-02-26 15:33:37.540,-1348.0,3297.0,-1691.0,31.0,-231.0,-679.0,138,47,51,86,57
2025-02-26 15:33:37.544,-945.0,3086.0,-1926.0,-44.0,-345.0,-736.0,139,47,50,87,56
2025-02-26 15:33:37.548,-324.0,2811.0,-2025.0,-94.0,-466.0,-825.0,136,45,52,87,56
2025-02-26 15:33:37.556,640.0,2484.0,-1906.0,-176.0,-583.0,-894.0,138,49,51,86,57
2025-02-26 15:33:37.560,2197.0,1952.0,-1499.0,-290.0,-668.0,-905.0,139,48,52,89,57
2025-02-26 15:33:37.565,3705.0,1360.0,-943.0,-360.0,-689.0,-874.0,137,51,53,89,57
2025-02-26 15:33:37.572,5044.0,166.0,-158.0,-526.0,-632.0,-814.0,142,47,51,89,57
2025-02-26 15:33:37.577,5570.0,-1861.0,124.0,-672.0,-570.0,-694.0,142,48,52,89,57
2025-02-26 15:33:37.581,5989.0,-3656.0,347.0,-656.0,-416.0,-609.0,140,48,51,90,57
2025-02-26 15:33:37.588,6539.0,-6777.0,716.0,-500.0,-203.0,-414.0,139,49,52,91,57
2025-02-26 15:33:37.589,6540.0,-9492.0,706.0,-237.0,34.0,-221.0,136,46,50,90,58
2025-02-26 15:33:37.596,5509.0,-10101.0,376.0,-80.0,197.0,-68.0,134,47,48,90,56
2025-02-26 15:33:37.605,4400.0,-8493.0,-363.0,185.0,295.0,48.0,136,49,48,90,56
2025-02-26 15:33:37.607,3749.0,-6078.0,-1438.0,320.0,322.0,127.0,135,46,49,85,53
2025-02-26 15:33:37.613,2780.0,-4745.0,-2560.0,409.0,411.0,151.0,135,44,49,89,51
2025-02-26 15:33:37.621,1360.0,-2558.0,-2680.0,393.0,71.0,198.0,136,47,50,90,53
2025-02-26 15:33:37.625,1030.0,-1719.0,-2422.0,334.0,158.0,180.0,135,46,49,86,52
2025-02-26 15:33:37.630,854.0,-935.0,-1795.0,189.0,54.0,161.0,136,45,50,80,52
2025-02-26 15:33:37.634,199.0,-941.0,-977.0,26.0,-46.0,159.0,134,46,50,84,51
2025-02-26 15:33:37.642,348.0,-1165.0,-1217.0,-93.0,24.0,138.0,136,46,52,94,55
2025-02-26 15:33:37.646,303.0,-1375.0,-771.0,-87.0,-122.0,123.0,137,45,50,94,57
2025-02-26 15:33:37.650,526.0,-1802.0,-520.0,-102.0,-92.0,120.0,135,50,53,96,55
2025-02-26 15:33:37.655,968.0,-2399.0,41.0,-135.0,-106.0,128.0,133,45,51,94,56
2025-02-26 15:33:37.662,666.0,-2572.0,-261.0,-21.0,-98.0,122.0,132,47,52,97,55
2025-02-26 15:33:37.667,584.0,-2194.0,-90.0,-16.0,-14.0,133.0,135,48,51,93,55
2025-02-26 15:33:37.671,750.0,-2153.0,295.0,-1.0,4.0,142.0,133,46,49,94,56
2025-02-26 15:33:37.675,523.0,-1938.0,402.0,49.0,-11.0,149.0,133,47,50,94,56
2025-02-26 15:33:37.683,399.0,-1903.0,194.0,56.0,79.0,161.0,132,48,50,93,57
2025-02-26 15:33:37.687,252.0,-1555.0,175.0,79.0,19.0,172.0,134,46,52,92,57
2025-02-26 15:33:37.691,351.0,-1394.0,159.0,111.0,21.0,183.0,132,46,50,93,57
2025-02-26 15:33:37.696,309.0,-1509.0,169.0,81.0,24.0,187.0,134,47,50,94,58
2025-02-26 15:33:37.703,257.0,-1375.0,134.0,55.0,23.0,202.0,132,47,51,94,59
2025-02-26 15:33:37.708,279.0,-1231.0,71.0,52.0,20.0,210.0,133,47,52,94,59
2025-02-26 15:33:37.712,236.0,-1129.0,192.0,33.0,22.0,211.0,132,46,53,93,59
2025-02-26 15:33:37.716,272.0,-1026.0,182.0,-8.0,38.0,206.0,135,49,54,97,58
2025-02-26 15:33:37.720,340.0,-862.0,276.0,-37.0,45.0,195.0,136,48,53,93,58
2025-02-26 15:33:37.727,361.0,-810.0,241.0,-89.0,63.0,194.0,133,47,52,93,58
2025-02-26 15:33:37.732,391.0,-929.0,140.0,-94.0,94.0,190.0,134,48,54,92,58
2025-02-26 15:33:37.736,313.0,-868.0,166.0,-94.0,95.0,189.0,135,43,50,91,57
2025-02-26 15:33:37.741,260.0,-867.0,159.0,-92.0,93.0,187.0,135,49,49,90,59
2025-02-26 15:33:37.745,193.0,-896.0,59.0,-58.0,75.0,192.0,135,52,49,89,58
2025-02-26 15:33:37.752,104.0,-899.0,130.0,-61.0,39.0,208.0,134,48,50,88,62
2025-02-26 15:33:37.757,64.0,-874.0,33.0,-50.0,28.0,211.0,135,52,47,87,56
2025-02-26 15:33:37.761,82.0,-912.0,-104.0,-33.0,27.0,220.0,135,49,49,88,62
2025-02-26 15:33:37.765,246.0,-858.0,70.0,-48.0,36.0,236.0,137,48,50,88,59
2025-02-26 15:33:37.770,257.0,-800.0,165.0,-89.0,60.0,250.0,135,47,51,88,60
2025-02-26 15:33:37.777,320.0,-829.0,127.0,-105.0,101.0,255.0,134,40,52,90,59
2025-02-26 15:33:37.781,431.0,-790.0,270.0,-112.0,125.0,268.0,136,48,50,89,62
2025-02-26 15:33:37.785,449.0,-662.0,321.0,-149.0,136.0,278.0,134,50,49,86,61
2025-02-26 15:33:37.789,474.0,-608.0,106.0,-96.0,119.0,285.0,134,49,52,87,63
2025-02-26 15:33:37.797,242.0,-841.0,92.0,-39.0,96.0,299.0,137,49,51,88,62
2025-02-26 15:33:37.801,205.0,-770.0,38.0,2.0,94.0,302.0,134,45,51,85,64
2025-02-26 15:33:37.805,201.0,-803.0,60.0,57.0,97.0,305.0,142,49,51,81,66
2025-02-26 15:33:37.808,163.0,-690.0,59.0,101.0,109.0,312.0,137,48,52,85,65
2025-02-26 15:33:37.814,212.0,-650.0,100.0,113.0,116.0,324.0,137,52,49,83,67
2025-02-26 15:33:37.822,250.0,-574.0,214.0,98.0,145.0,330.0,135,49,51,84,70
2025-02-26 15:33:37.826,238.0,-436.0,158.0,92.0,162.0,346.0,135,47,51,87,74
2025-02-26 15:33:37.830,172.0,-385.0,240.0,85.0,174.0,367.0,135,51,53,84,72
2025-02-26 15:33:37.834,158.0,-344.0,145.0,68.0,175.0,374.0,132,49,52,90,72
2025-02-26 15:33:37.838,-6.0,-139.0,88.0,69.0,170.0,378.0,138,51,54,87,74
2025-02-26 15:33:37.846,-146.0,-40.0,116.0,70.0,166.0,377.0,139,50,55,86,74
2025-02-26 15:33:37.851,-191.0,-32.0,173.0,78.0,162.0,376.0,137,50,55,84,74
2025-02-26 15:33:37.854,-240.0,-33.0,191.0,75.0,152.0,369.0,139,43,56,86,72
2025-02-26 15:33:37.858,-257.0,-55.0,196.0,75.0,149.0,365.0,137,51,55,86,75
2025-02-26 15:33:37.864,-207.0,-108.0,253.0,77.0,148.0,363.0,133,52,53,84,75
2025-02-26 15:33:37.871,-73.0,-114.0,264.0,78.0,150.0,364.0,136,51,55,86,73
2025-02-26 15:33:37.875,-6.0,-145.0,157.0,76.0,156.0,367.0,134,50,54,88,74
2025-02-26 15:33:37.879,15.0,-148.0,125.0,81.0,161.0,372.0,136,50,55,85,71
2025-02-26 15:33:37.884,-42.0,-179.0,18.0,110.0,168.0,375.0,136,50,51,84,72
2025-02-26 15:33:37.891,-194.0,-132.0,-110.0,131.0,168.0,377.0,134,49,55,86,71
2025-02-26 15:33:37.894,-294.0,49.0,-34.0,171.0,172.0,381.0,136,49,53,84,69
2025-02-26 15:33:37.900,-534.0,236.0,-359.0,213.0,152.0,379.0,136,49,55,83,67
2025-02-26 15:33:37.904,-688.0,555.0,-408.0,235.0,122.0,367.0,137,50,52,82,65
2025-02-26 15:33:37.911,-766.0,1045.0,-513.0,265.0,100.0,352.0,136,47,52,80,61
2025-02-26 15:33:37.916,-892.0,1320.0,-404.0,282.0,60.0,340.0,132,47,51,81,59
2025-02-26 15:33:37.921,-1007.0,1718.0,-159.0,274.0,54.0,305.0,135,47,49,75,56
2025-02-26 15:33:37.925,-1115.0,2014.0,40.0,232.0,42.0,218.0,132,46,51,71,54
2025-02-26 15:33:37.933,-1106.0,2760.0,-647.0,189.0,38.0,107.0,128,46,51,71,51
2025-02-26 15:33:37.937,-1248.0,3304.0,-1342.0,252.0,15.0,36.0,123,40,49,68,50
2025-02-26 15:33:37.941,-1195.0,3699.0,-1732.0,283.0,-9.0,-102.0,115,43,48,67,50
2025-02-26 15:33:37.948,-994.0,4310.0,-2081.0,306.0,-34.0,-272.0,112,44,47,66,48
2025-02-26 15:33:37.953,-865.0,4376.0,-2339.0,301.0,-92.0,-396.0,109,43,46,63,48
2025-02-26 15:33:37.958,-803.0,4458.0,-2616.0,233.0,-120.0,-521.0,104,43,46,64,48
2025-02-26 15:33:37.966,-1340.0,3970.0,-2623.0,175.0,-210.0,-605.0,104,44,47,63,47
2025-02-26 15:33:37.970,-1506.0,3629.0,-2447.0,145.0,-319.0,-649.0,102,42,46,64,47
2025-02-26 15:33:37.974,-1171.0,3257.0,-2489.0,116.0,-437.0,-743.0,104,43,48,64,48
2025-02-26 15:33:37.982,-769.0,2854.0,-2483.0,99.0,-552.0,-826.0,102,43,48,66,49
2025-02-26 15:33:37.986,-249.0,2681.0,-2410.0,78.0,-680.0,-912.0,103,42,48,64,48
2025-02-26 15:33:37.991,429.0,2708.0,-2396.0,74.0,-821.0,-991.0,104,43,47,69,50
2025-02-26 15:33:37.998,728.0,2758.0,-2180.0,37.0,-894.0,-1048.0,103,43,45,69,49
2025-02-26 15:33:38.002,2313.0,2591.0,-1779.0,-37.0,-1022.0,-1063.0,107,43,49,70,49
2025-02-26 15:33:38.007,4366.0,2163.0,-301.0,-128.0,-1073.0,-1051.0,107,44,49,71,51
2025-02-26 15:33:38.015,6850.0,1035.0,1118.0,-267.0,-1004.0,-959.0,106,45,50,71,52
2025-02-26 15:33:38.018,7910.0,-648.0,1700.0,-426.0,-812.0,-816.0,106,45,51,73,52
2025-02-26 15:33:38.022,8194.0,-3125.0,2674.0,-509.0,-535.0,-644.0,105,44,49,72,53
2025-02-26 15:33:38.030,7691.0,-5981.0,2735.0,-502.0,-254.0,-458.0,102,44,47,71,54
2025-02-26 15:33:38.034,6575.0,-7812.0,2418.0,-382.0,-27.0,-266.0,100,44,47,73,54
2025-02-26 15:33:38.040,6251.0,-8571.0,1776.0,-179.0,74.0,-124.0,98,44,48,71,53
2025-02-26 15:33:38.046,5258.0,-8283.0,901.0,56.0,224.0,-65.0,106,44,49,80,52
2025-02-26 15:33:38.052,3885.0,-7373.0,479.0,214.0,304.0,35.0,100,46,48,71,50
2025-02-26 15:33:38.055,2949.0,-5740.0,-220.0,247.0,339.0,116.0,103,45,50,73,51
2025-02-26 15:33:38.060,1968.0,-3856.0,-504.0,258.0,326.0,163.0,100,44,50,69,47
2025-02-26 15:33:38.068,1560.0,-2775.0,-1162.0,295.0,220.0,177.0,101,50,50,68,47
2025-02-26 15:33:38.072,959.0,-2117.0,-627.0,190.0,125.0,205.0,101,42,51,71,47
2025-02-26 15:33:38.076,473.0,-1159.0,-814.0,67.0,40.0,203.0,102,49,50,68,47
2025-02-26 15:33:38.084,431.0,-922.0,-507.0,16.0,-23.0,182.0,102,44,51,69,49
2025-02-26 15:33:38.088,395.0,-1072.0,-433.0,-53.0,-64.0,163.0,102,47,50,69,46
2025-02-26 15:33:38.092,489.0,-1308.0,18.0,-173.0,-28.0,156.0,100,45,51,69,50
2025-02-26 15:33:38.096,653.0,-1552.0,78.0,-196.0,-49.0,154.0,102,46,51,71,50
2025-02-26 15:33:38.104,643.0,-2035.0,163.0,-201.0,-27.0,157.0,101,45,50,70,50
2025-02-26 15:33:38.109,668.0,-2205.0,259.0,-177.0,-16.0,172.0,100,47,50,71,52
2025-02-26 15:33:38.113,691.0,-2312.0,310.0,-133.0,-1.0,185.0,101,47,50,73,53
2025-02-26 15:33:38.117,821.0,-2211.0,183.0,-105.0,24.0,196.0,102,48,51,73,53
2025-02-26 15:33:38.125,472.0,-2200.0,241.0,-68.0,31.0,200.0,102,47,52,71,52
2025-02-26 15:33:38.129,520.0,-1957.0,389.0,-25.0,36.0,203.0,99,45,48,71,53
2025-02-26 15:33:38.133,446.0,-1877.0,285.0,13.0,50.0,207.0,103,48,50,72,54
2025-02-26 15:33:38.137,411.0,-1596.0,310.0,26.0,54.0,211.0,100,47,50,72,53
2025-02-26 15:33:38.142,420.0,-1327.0,299.0,36.0,62.0,215.0,101,47,50,72,53
2025-02-26 15:33:38.149,196.0,-1159.0,323.0,25.0,68.0,217.0,101,46,49,72,54
2025-02-26 15:33:38.154,248.0,-1057.0,362.0,13.0,74.0,223.0,103,47,51,72,54
2025-02-26 15:33:38.158,205.0,-848.0,286.0,-21.0,77.0,228.0,103,47,51,71,53
2025-02-26 15:33:38.172,114.0,-785.0,315.0,-59.0,75.0,232.0,102,46,53,69,54
2025-02-26 15:33:38.173,17.0,-739.0,305.0,-83.0,80.0,234.0,102,47,52,72,55
2025-02-26 15:33:38.176,12.0,-675.0,215.0,-114.0,72.0,241.0,102,46,51,71,53
2025-02-26 15:33:38.178,71.0,-542.0,127.0,-165.0,83.0,244.0,103,49,50,71,54
2025-02-26 15:33:38.182,-169.0,-593.0,159.0,-176.0,77.0,243.0,103,46,49,72,53
2025-02-26 15:33:38.187,-73.0,-529.0,69.0,-182.0,64.0,236.0,101,47,50,72,54
2025-02-26 15:33:38.195,-218.0,-869.0,106.0,-154.0,33.0,235.0,102,47,50,71,54
2025-02-26 15:33:38.198,-250.0,-754.0,53.0,-110.0,3.0,233.0,102,47,51,71,56
2025-02-26 15:33:38.203,-94.0,-732.0,173.0,-110.0,2.0,241.0,103,47,51,68,54
2025-02-26 15:33:38.207,-59.0,-721.0,307.0,-104.0,10.0,242.0,103,47,50,69,53
2025-02-26 15:33:38.214,105.0,-729.0,328.0,-107.0,32.0,248.0,102,49,51,71,55
2025-02-26 15:33:38.219,219.0,-543.0,460.0,-132.0,72.0,263.0,102,43,50,69,55
2025-02-26 15:33:38.224,131.0,-542.0,369.0,-158.0,86.0,275.0,102,46,49,69,53
2025-02-26 15:33:38.227,114.0,-452.0,257.0,-159.0,96.0,277.0,102,49,50,68,53
2025-02-26 15:33:38.232,49.0,-402.0,246.0,-137.0,95.0,271.0,101,48,50,69,54
2025-02-26 15:33:38.238,-160.0,-525.0,132.0,-103.0,84.0,246.0,103,48,51,69,54
2025-02-26 15:33:38.244,-170.0,-501.0,137.0,-34.0,66.0,234.0,103,48,49,69,54
2025-02-26 15:33:38.248,-84.0,-510.0,171.0,-2.0,68.0,226.0,103,48,51,70,53
2025-02-26 15:33:38.252,37.0,-433.0,254.0,-5.0,89.0,226.0,103,48,51,68,55
2025-02-26 15:33:38.260,67.0,-356.0,283.0,-11.0,103.0,227.0,103,46,49,68,53
2025-02-26 15:33:38.263,86.0,-351.0,242.0,-24.0,127.0,229.0,102,47,52,70,56
2025-02-26 15:33:38.269,-49.0,-248.0,169.0,-26.0,135.0,226.0,103,47,51,71,55
2025-02-26 15:33:38.272,-172.0,-262.0,-15.0,-4.0,127.0,222.0,104,46,51,70,55
2025-02-26 15:33:38.277,-396.0,-243.0,-125.0,26.0,105.0,220.0,103,47,51,71,55
2025-02-26 15:33:38.285,-495.0,-292.0,-123.0,41.0,82.0,221.0,103,47,50,70,51
2025-02-26 15:33:38.289,-497.0,-335.0,-82.0,64.0,75.0,228.0,103,47,50,68,54
2025-02-26 15:33:38.293,-320.0,-323.0,3.0,63.0,75.0,233.0,103,48,52,72,55
2025-02-26 15:33:38.297,-229.0,-196.0,26.0,53.0,80.0,249.0,104,47,49,69,55
2025-02-26 15:33:38.301,-279.0,-128.0,66.0,54.0,81.0,258.0,104,48,50,70,51
2025-02-26 15:33:38.309,-324.0,-47.0,60.0,57.0,77.0,260.0,105,47,51,70,53
2025-02-26 15:33:38.313,-467.0,143.0,67.0,58.0,68.0,261.0,105,49,52,70,54
2025-02-26 15:33:38.318,-491.0,324.0,94.0,61.0,63.0,256.0,107,47,52,69,55
2025-02-26 15:33:38.322,-482.0,400.0,85.0,59.0,56.0,253.0,107,47,49,71,54
2025-02-26 15:33:38.326,-616.0,530.0,74.0,66.0,49.0,235.0,106,48,50,71,54
2025-02-26 15:33:38.333,-705.0,627.0,124.0,66.0,40.0,225.0,101,47,51,68,54
2025-02-26 15:33:38.338,-720.0,648.0,73.0,79.0,39.0,220.0,105,47,50,69,54
2025-02-26 15:33:38.343,-723.0,687.0,43.0,123.0,36.0,202.0,107,46,49,70,53
2025-02-26 15:33:38.346,-746.0,732.0,16.0,152.0,41.0,173.0,106,47,49,70,54
2025-02-26 15:33:38.350,-741.0,944.0,-105.0,219.0,45.0,154.0,105,49,49,69,54
2025-02-26 15:33:38.358,-828.0,1133.0,-193.0,296.0,53.0,100.0,107,48,50,69,53
2025-02-26 15:33:38.362,-927.0,1672.0,-356.0,331.0,57.0,27.0,105,45,50,71,55
2025-02-26 15:33:38.367,-950.0,2445.0,-521.0,366.0,56.0,-14.0,105,46,50,69,53
2025-02-26 15:33:38.372,-1122.0,2797.0,-613.0,359.0,44.0,-107.0,103,48,50,70,53
2025-02-26 15:33:38.378,-1307.0,3447.0,-830.0,345.0,15.0,-214.0,104,47,51,69,53
2025-02-26 15:33:38.383,-1398.0,3845.0,-1071.0,301.0,-6.0,-333.0,103,47,50,67,52
2025-02-26 15:33:38.388,-1590.0,3908.0,-1274.0,244.0,-65.0,-393.0,104,48,50,66,53
2025-02-26 15:33:38.395,-1571.0,3835.0,-1348.0,194.0,-134.0,-512.0,107,48,50,68,52
2025-02-26 15:33:38.399,-1395.0,3489.0,-1458.0,162.0,-218.0,-621.0,102,49,50,65,51
2025-02-26 15:33:38.403,-1133.0,3038.0,-1668.0,159.0,-308.0,-731.0,104,47,50,66,52
2025-02-26 15:33:38.411,-710.0,2923.0,-1739.0,142.0,-409.0,-835.0,103,47,49,65,53
2025-02-26 15:33:38.415,-430.0,2891.0,-1404.0,125.0,-458.0,-931.0,104,49,51,66,53
2025-02-26 15:33:38.421,677.0,2814.0,-634.0,78.0,-537.0,-980.0,105,48,49,67,55
2025-02-26 15:33:38.428,2060.0,2972.0,-39.0,-60.0,-591.0,-997.0,104,48,49,67,54
2025-02-26 15:33:38.433,3563.0,2899.0,458.0,-249.0,-581.0,-1001.0,105,48,50,66,54
2025-02-26 15:33:38.437,4543.0,1713.0,819.0,-346.0,-543.0,-976.0,104,48,50,66,56
2025-02-26 15:33:38.445,5504.0,-30.0,923.0,-519.0,-458.0,-912.0,105,47,49,66,54
2025-02-26 15:33:38.449,5709.0,-2566.0,691.0,-617.0,-411.0,-812.0,102,46,50,65,54
2025-02-26 15:33:38.453,6028.0,-3864.0,507.0,-590.0,-299.0,-740.0,100,47,50,64,55
2025-02-26 15:33:38.461,6234.0,-6694.0,501.0,-442.0,-173.0,-561.0,99,47,50,66,55
2025-02-26 15:33:38.465,5793.0,-8907.0,522.0,-224.0,-13.0,-332.0,98,48,48,64,55
2025-02-26 15:33:38.470,5163.0,-9652.0,377.0,-101.0,110.0,-110.0,98,46,46,64,54
2025-02-26 15:33:38.474,4486.0,-8366.0,17.0,111.0,169.0,52.0,100,50,47,63,52
2025-02-26 15:33:38.482,3978.0,-7390.0,-478.0,257.0,219.0,117.0,99,46,47,62,53
2025-02-26 15:33:38.485,3197.0,-4890.0,-402.0,276.0,245.0,170.0,100,46,49,61,51
2025-02-26 15:33:38.490,2017.0,-3262.0,-1780.0,268.0,179.0,185.0,103,45,49,63,48
2025-02-26 15:33:38.498,1281.0,-1477.0,-1277.0,203.0,97.0,204.0,105,46,49,63,50
2025-02-26 15:33:38.502,969.0,-1579.0,-1044.0,164.0,65.0,186.0,102,44,50,63,50
2025-02-26 15:33:38.506,1288.0,-791.0,-670.0,85.0,-11.0,182.0,104,42,49,66,53
2025-02-26 15:33:38.511,485.0,-1944.0,-670.0,-58.0,29.0,163.0,105,46,50,64,51
2025-02-26 15:33:38.518,457.0,-1966.0,-625.0,-62.0,-51.0,150.0,101,47,50,64,52
2025-02-26 15:33:38.523,927.0,-2149.0,-63.0,-53.0,-48.0,144.0,105,47,50,66,52
2025-02-26 15:33:38.527,760.0,-1697.0,-42.0,-79.0,7.0,151.0,105,49,50,63,53
2025-02-26 15:33:38.531,534.0,-1992.0,38.0,-39.0,-29.0,167.0,106,47,51,64,54
2025-02-26 15:33:38.539,555.0,-2280.0,274.0,-40.0,-12.0,190.0,106,47,48,65,53
2025-02-26 15:33:38.543,729.0,-2020.0,169.0,-35.0,2.0,197.0,109,49,51,66,56
2025-02-26 15:33:38.547,553.0,-1814.0,172.0,-26.0,20.0,212.0,107,49,50,67,55
2025-02-26 15:33:38.552,368.0,-1691.0,145.0,-27.0,10.0,230.0,110,45,49,67,56
2025-02-26 15:33:38.559,181.0,-1616.0,239.0,-4.0,8.0,247.0,108,53,49,67,54
2025-02-26 15:33:38.563,264.0,-1525.0,189.0,6.0,23.0,250.0,111,48,50,67,57
2025-02-26 15:33:38.567,219.0,-1559.0,171.0,22.0,7.0,259.0,111,50,49,68,59
2025-02-26 15:33:38.572,116.0,-1367.0,254.0,6.0,20.0,268.0,109,45,51,68,58
2025-02-26 15:33:38.576,261.0,-1221.0,254.0,14.0,16.0,276.0,115,48,51,69,59
2025-02-26 15:33:38.584,208.0,-1258.0,329.0,9.0,28.0,275.0,113,48,52,69,58
2025-02-26 15:33:38.588,246.0,-962.0,268.0,-6.0,39.0,275.0,113,48,52,68,58
2025-02-26 15:33:38.592,73.0,-1051.0,305.0,-20.0,54.0,271.0,113,48,50,68,59
2025-02-26 15:33:38.597,68.0,-892.0,286.0,-21.0,69.0,263.0,113,48,49,68,58
2025-02-26 15:33:38.600,-23.0,-828.0,236.0,-14.0,69.0,244.0,112,46,51,69,57
2025-02-26 15:33:38.608,45.0,-699.0,255.0,-24.0,85.0,241.0,112,47,53,69,57
2025-02-26 15:33:38.612,84.0,-590.0,175.0,-27.0,89.0,229.0,113,47,49,70,58
2025-02-26 15:33:38.617,-36.0,-449.0,216.0,-29.0,98.0,208.0,113,47,50,68,57
2025-02-26 15:33:38.621,-91.0,-517.0,131.0,16.0,76.0,199.0,113,49,50,69,57
2025-02-26 15:33:38.625,-76.0,-442.0,103.0,31.0,63.0,190.0,114,42,51,67,57
2025-02-26 15:33:38.633,-47.0,-389.0,190.0,18.0,65.0,197.0,114,48,50,67,57
2025-02-26 15:33:38.637,-67.0,-437.0,189.0,0.0,71.0,200.0,114,50,49,66,56
2025-02-26 15:33:38.641,-68.0,-435.0,137.0,-37.0,97.0,208.0,115,49,48,68,58
2025-02-26 15:33:38.645,-10.0,-445.0,151.0,-56.0,109.0,220.0,114,48,51,67,58
2025-02-26 15:33:38.649,19.0,-523.0,169.0,-90.0,123.0,227.0,116,49,50,66,57
2025-02-26 15:33:38.657,20.0,-508.0,106.0,-98.0,126.0,247.0,117,50,51,72,57
2025-02-26 15:33:38.661,-122.0,-583.0,15.0,-91.0,118.0,261.0,118,49,51,69,58
2025-02-26 15:33:38.666,-94.0,-591.0,-27.0,-65.0,99.0,266.0,115,52,50,69,59
2025-02-26 15:33:38.671,-142.0,-656.0,-55.0,-15.0,81.0,269.0,119,48,50,71,58
2025-02-26 15:33:38.675,-67.0,-654.0,-88.0,15.0,73.0,263.0,120,49,51,71,59
2025-02-26 15:33:38.682,-115.0,-771.0,70.0,47.0,77.0,266.0,119,48,50,70,59
2025-02-26 15:33:38.686,0.0,-641.0,39.0,59.0,82.0,282.0,121,51,51,72,62
2025-02-26 15:33:38.691,51.0,-648.0,52.0,60.0,91.0,304.0,121,48,50,69,61
2025-02-26 15:33:38.695,60.0,-655.0,115.0,56.0,102.0,315.0,121,49,49,71,62
2025-02-26 15:33:38.699,255.0,-643.0,120.0,46.0,127.0,334.0,121,49,52,71,62
2025-02-26 15:33:38.704,89.0,-459.0,42.0,58.0,142.0,354.0,123,48,50,71,63
2025-02-26 15:33:38.711,0.0,-449.0,-74.0,96.0,140.0,364.0,125,50,50,72,63
2025-02-26 15:33:38.715,-219.0,-425.0,-95.0,154.0,129.0,383.0,125,51,51,72,63
2025-02-26 15:33:38.719,-161.0,-376.0,-166.0,184.0,127.0,394.0,123,49,51,72,64
2025-02-26 15:33:38.724,-125.0,-284.0,-168.0,235.0,127.0,399.0,126,50,50,71,62
2025-02-26 15:33:38.731,-107.0,-265.0,-201.0,272.0,132.0,411.0,124,49,49,71,63
2025-02-26 15:33:38.736,-68.0,-78.0,-215.0,289.0,141.0,418.0,125,50,52,70,62
2025-02-26 15:33:38.739,-103.0,124.0,-420.0,322.0,136.0,426.0,126,47,51,65,62
2025-02-26 15:33:38.742,-77.0,176.0,-632.0,361.0,135.0,421.0,127,51,50,68,62
2025-02-26 15:33:38.752,-338.0,330.0,-835.0,379.0,112.0,398.0,124,55,51,69,62
2025-02-26 15:33:38.756,-407.0,525.0,-817.0,396.0,102.0,377.0,127,56,50,69,60
2025-02-26 15:33:38.760,-512.0,706.0,-931.0,353.0,62.0,354.0,125,61,50,69,62
2025-02-26 15:33:38.765,-554.0,1117.0,-1173.0,362.0,23.0,291.0,127,61,51,71,62
2025-02-26 15:33:38.772,-892.0,1463.0,-1084.0,357.0,-18.0,206.0,130,64,50,69,61
2025-02-26 15:33:38.776,-963.0,1567.0,-1362.0,347.0,-51.0,123.0,128,68,48,70,61
2025-02-26 15:33:38.782,-1116.0,1797.0,-1311.0,351.0,-108.0,76.0,127,70,49,67,60
2025-02-26 15:33:38.789,-1222.0,1942.0,-1365.0,359.0,-162.0,-17.0,130,76,49,70,57
2025-02-26 15:33:38.792,-1294.0,2073.0,-1490.0,342.0,-223.0,-112.0,130,78,50,68,56
2025-02-26 15:33:38.797,-1440.0,2186.0,-1615.0,328.0,-294.0,-205.0,131,84,49,67,55
2025-02-26 15:33:38.803,-1523.0,2199.0,-1879.0,311.0,-373.0,-283.0,129,83,48,65,54
2025-02-26 15:33:38.809,-1474.0,2038.0,-1930.0,291.0,-466.0,-352.0,129,85,49,63,53
2025-02-26 15:33:38.815,-1449.0,1735.0,-2221.0,298.0,-516.0,-405.0,129,89,48,62,54
2025-02-26 15:33:38.820,-1308.0,1532.0,-2708.0,300.0,-648.0,-440.0,129,91,48,64,53
2025-02-26 15:33:38.826,-883.0,1419.0,-2703.0,328.0,-787.0,-446.0,127,93,46,60,53
2025-02-26 15:33:38.831,99.0,1086.0,-2463.0,348.0,-913.0,-446.0,127,95,46,60,51
2025-02-26 15:33:38.837,1240.0,960.0,-2376.0,394.0,-1011.0,-432.0,124,96,46,62,52
2025-02-26 15:33:38.842,1959.0,804.0,-1946.0,423.0,-1090.0,-397.0,122,97,46,61,53
2025-02-26 15:33:38.850,2593.0,634.0,-1339.0,439.0,-1136.0,-358.0,122,89,46,65,52
2025-02-26 15:33:38.855,3245.0,896.0,-734.0,430.0,-1142.0,-319.0,116,90,45,59,53
2025-02-26 15:33:38.859,3848.0,601.0,27.0,438.0,-1144.0,-312.0,117,90,44,62,54
2025-02-26 15:33:38.863,4009.0,211.0,381.0,422.0,-1097.0,-283.0,117,98,43,61,53
2025-02-26 15:33:38.868,4484.0,-189.0,1166.0,448.0,-1014.0,-256.0,117,101,46,61,55
2025-02-26 15:33:38.875,3972.0,-544.0,2304.0,468.0,-893.0,-216.0,121,101,46,63,56
2025-02-26 15:33:38.879,4086.0,-864.0,3261.0,469.0,-730.0,-172.0,121,102,45,62,55
2025-02-26 15:33:38.886,4122.0,-894.0,4187.0,431.0,-639.0,-129.0,122,103,45,62,55
2025-02-26 15:33:38.891,3900.0,-624.0,4941.0,360.0,-451.0,-113.0,121,104,46,64,55
2025-02-26 15:33:38.895,3714.0,-554.0,5177.0,278.0,-274.0,-90.0,120,103,46,63,57
2025-02-26 15:33:38.903,3417.0,-247.0,5176.0,179.0,-120.0,-76.0,116,106,45,60,57
2025-02-26 15:33:38.905,3061.0,-325.0,4766.0,132.0,0.0,-57.0,113,108,45,61,57
2025-02-26 15:33:38.910,2737.0,-318.0,4224.0,64.0,46.0,-35.0,112,106,45,63,55
2025-02-26 15:33:38.920,2581.0,-382.0,3658.0,13.0,113.0,-19.0,109,112,46,64,58
2025-02-26 15:33:38.922,2188.0,-402.0,3335.0,-28.0,147.0,9.0,109,105,44,60,55
2025-02-26 15:33:38.929,1794.0,-317.0,2747.0,-39.0,153.0,28.0,106,107,45,59,55
2025-02-26 15:33:38.932,1500.0,-204.0,2371.0,-65.0,150.0,46.0,107,107,46,65,54
2025-02-26 15:33:38.940,1296.0,-213.0,2223.0,-91.0,143.0,62.0,108,106,45,64,55
2025-02-26 15:33:38.941,1087.0,-244.0,2149.0,-120.0,147.0,68.0,108,107,45,63,54
2025-02-26 15:33:38.949,1049.0,-273.0,2113.0,-141.0,161.0,79.0,108,107,45,64,55
2025-02-26 15:33:38.956,1011.0,-356.0,2038.0,-154.0,185.0,87.0,108,104,44,64,54
2025-02-26 15:33:38.960,974.0,-447.0,1849.0,-168.0,197.0,92.0,108,105,46,63,56
2025-02-26 15:33:38.965,949.0,-427.0,1801.0,-182.0,224.0,93.0,111,107,46,62,54
2025-02-26 15:33:38.969,922.0,-497.0,1774.0,-188.0,253.0,98.0,111,106,48,63,55
2025-02-26 15:33:38.977,903.0,-535.0,1723.0,-191.0,284.0,105.0,114,105,47,65,56
2025-02-26 15:33:38.981,875.0,-535.0,1693.0,-194.0,317.0,112.0,112,105,47,64,56
2025-02-26 15:33:38.983,833.0,-558.0,1614.0,-189.0,333.0,119.0,114,105,46,66,56
2025-02-26 15:33:38.993,770.0,-568.0,1435.0,-178.0,362.0,122.0,113,107,47,65,57
2025-02-26 15:33:38.995,638.0,-537.0,1353.0,-164.0,378.0,130.0,114,108,48,65,56
2025-02-26 15:33:39.001,542.0,-476.0,1138.0,-155.0,379.0,129.0,110,106,46,64,57
2025-02-26 15:33:39.006,408.0,-354.0,964.0,-139.0,368.0,122.0,110,103,47,66,56
2025-02-26 15:33:39.014,344.0,-211.0,818.0,-126.0,359.0,110.0,108,106,48,64,57
2025-02-26 15:33:39.018,243.0,-146.0,727.0,-122.0,338.0,103.0,111,106,50,64,54
2025-02-26 15:33:39.022,185.0,-66.0,710.0,-124.0,316.0,89.0,105,105,49,64,56
2025-02-26 15:33:39.026,157.0,-7.0,634.0,-129.0,299.0,81.0,104,102,49,67,54
2025-02-26 15:33:39.035,154.0,-63.0,637.0,-139.0,294.0,78.0,104,105,50,64,56
2025-02-26 15:33:39.038,159.0,-33.0,691.0,-149.0,289.0,78.0,107,105,47,66,56
2025-02-26 15:33:39.043,208.0,-120.0,764.0,-155.0,297.0,81.0,107,104,50,66,56
2025-02-26 15:33:39.047,244.0,-97.0,784.0,-173.0,305.0,88.0,104,104,49,66,56
2025-02-26 15:33:39.055,295.0,-129.0,786.0,-195.0,327.0,92.0,109,105,50,67,56
2025-02-26 15:33:39.059,335.0,-157.0,771.0,-220.0,352.0,106.0,111,108,50,67,56
2025-02-26 15:33:39.064,255.0,-203.0,635.0,-230.0,364.0,118.0,109,106,50,67,57
2025-02-26 15:33:39.068,142.0,-278.0,435.0,-224.0,366.0,128.0,112,103,49,65,56
2025-02-26 15:33:39.075,66.0,-386.0,272.0,-209.0,362.0,135.0,112,102,50,66,58
2025-02-26 15:33:39.080,-115.0,-500.0,166.0,-177.0,340.0,147.0,111,104,50,66,56
2025-02-26 15:33:39.084,-228.0,-591.0,-29.0,-156.0,311.0,153.0,111,103,50,65,57
2025-02-26 15:33:39.092,-234.0,-592.0,-42.0,-112.0,295.0,154.0,111,103,51,66,56
2025-02-26 15:33:39.096,-222.0,-365.0,-80.0,-76.0,265.0,150.0,110,101,51,66,57
2025-02-26 15:33:39.101,-211.0,-317.0,-24.0,-46.0,245.0,138.0,110,102,50,67,57
2025-02-26 15:33:39.104,-233.0,-238.0,44.0,-23.0,237.0,123.0,108,100,51,66,57
2025-02-26 15:33:39.112,-51.0,-96.0,132.0,-16.0,239.0,116.0,108,100,50,64,56
2025-02-26 15:33:39.116,-128.0,-26.0,176.0,-8.0,242.0,111.0,110,99,50,66,55
2025-02-26 15:33:39.121,-65.0,-7.0,211.0,-7.0,249.0,106.0,109,101,51,66,55
2025-02-26 15:33:39.124,-95.0,25.0,175.0,-12.0,255.0,107.0,108,100,51,66,55
2025-02-26 15:33:39.132,-117.0,-33.0,91.0,-17.0,257.0,108.0,109,100,51,68,56
2025-02-26 15:33:39.135,-130.0,3.0,40.0,-21.0,258.0,112.0,110,99,50,66,56
2025-02-26 15:33:39.140,-200.0,-4.0,41.0,-21.0,257.0,115.0,110,97,50,66,56
2025-02-26 15:33:39.145,-271.0,-37.0,7.0,-18.0,256.0,118.0,110,95,51,65,56
2025-02-26 15:33:39.147,-292.0,-45.0,31.0,-14.0,253.0,122.0,110,95,50,65,56
2025-02-26 15:33:39.154,-285.0,4.0,15.0,-11.0,248.0,131.0,112,96,52,67,57
2025-02-26 15:33:39.159,-256.0,-33.0,-114.0,-6.0,243.0,146.0,112,96,50,66,55
2025-02-26 15:33:39.166,-417.0,-20.0,-293.0,4.0,229.0,153.0,113,95,50,66,56
2025-02-26 15:33:39.170,-529.0,26.0,-419.0,12.0,202.0,163.0,110,95,51,67,55
2025-02-26 15:33:39.174,-678.0,124.0,-529.0,35.0,186.0,160.0,111,97,49,66,56
2025-02-26 15:33:39.182,-742.0,201.0,-687.0,80.0,153.0,151.0,109,99,50,66,55
2025-02-26 15:33:39.186,-813.0,371.0,-818.0,105.0,121.0,114.0,110,95,50,65,54
2025-02-26 15:33:39.190,-741.0,464.0,-1058.0,179.0,106.0,62.0,107,95,49,66,54
2025-02-26 15:33:39.194,-903.0,618.0,-1402.0,254.0,75.0,32.0,106,96,50,65,54
2025-02-26 15:33:39.202,-1106.0,863.0,-1636.0,327.0,21.0,-28.0,106,95,51,65,53
2025-02-26 15:33:39.207,-1470.0,1072.0,-2131.0,359.0,-62.0,-80.0,104,95,50,65,53
2025-02-26 15:33:39.211,-1744.0,1222.0,-2515.0,402.0,-109.0,-121.0,102,96,50,63,51
2025-02-26 15:33:39.219,-1688.0,1424.0,-2871.0,422.0,-226.0,-150.0,102,96,50,66,52
2025-02-26 15:33:39.223,-1766.0,1503.0,-3080.0,416.0,-362.0,-163.0,102,99,50,65,51
2025-02-26 15:33:39.228,-1634.0,1584.0,-3170.0,394.0,-508.0,-191.0,103,99,47,64,50
2025-02-26 15:33:39.234,-1368.0,1704.0,-3246.0,383.0,-661.0,-227.0,103,100,50,64,52
2025-02-26 15:33:39.238,-846.0,1738.0,-3327.0,385.0,-819.0,-263.0,106,99,48,64,52
2025-02-26 15:33:39.244,-3.0,1709.0,-3379.0,391.0,-972.0,-292.0,102,101,48,62,50
2025-02-26 15:33:39.250,1106.0,1620.0,-3068.0,389.0,-1090.0,-297.0,101,99,49,64,51
2025-02-26 15:33:39.256,2223.0,1250.0,-2569.0,400.0,-1139.0,-280.0,103,102,49,65,52
2025-02-26 15:33:39.263,2870.0,630.0,-1561.0,417.0,-1180.0,-239.0,104,101,48,64,54
2025-02-26 15:33:39.268,3851.0,-84.0,-444.0,462.0,-1162.0,-195.0,105,104,48,65,53
2025-02-26 15:33:39.272,4389.0,-308.0,665.0,515.0,-1089.0,-175.0,109,104,46,65,53
2025-02-26 15:33:39.280,4538.0,-417.0,1558.0,550.0,-992.0,-145.0,112,103,48,67,54
2025-02-26 15:33:39.284,4558.0,-94.0,2181.0,567.0,-877.0,-121.0,114,103,46,67,56
2025-02-26 15:33:39.288,4304.0,845.0,3330.0,548.0,-739.0,-101.0,117,104,47,64,56
2025-02-26 15:33:39.296,4184.0,551.0,4218.0,502.0,-667.0,-72.0,118,105,48,65,57
2025-02-26 15:33:39.298,4104.0,891.0,5001.0,443.0,-510.0,-47.0,119,107,49,66,57
2025-02-26 15:33:39.305,3932.0,1009.0,5613.0,341.0,-338.0,-32.0,121,108,48,63,57
2025-02-26 15:33:39.308,3538.0,1165.0,5657.0,204.0,-177.0,3.0,122,107,49,65,58
2025-02-26 15:33:39.316,3196.0,1488.0,5531.0,125.0,-45.0,21.0,124,108,48,65,58
2025-02-26 15:33:39.321,2800.0,1442.0,5216.0,-24.0,24.0,32.0,125,109,48,67,57
2025-02-26 15:33:39.326,2556.0,1553.0,4686.0,-146.0,141.0,34.0,123,107,48,66,58
2025-02-26 15:33:39.333,2164.0,1277.0,4335.0,-222.0,221.0,33.0,123,110,48,65,58
2025-02-26 15:33:39.335,1860.0,1206.0,3481.0,-267.0,265.0,30.0,123,110,50,68,59
2025-02-26 15:33:39.341,1661.0,577.0,2723.0,-273.0,298.0,31.0,124,110,50,66,57
2025-02-26 15:33:39.346,1539.0,343.0,2351.0,-273.0,307.0,28.0,124,109,46,65,57
2025-02-26 15:33:39.353,1326.0,139.0,1891.0,-236.0,311.0,27.0,124,110,48,66,57
2025-02-26 15:33:39.358,1103.0,-49.0,1763.0,-193.0,309.0,23.0,125,112,50,67,58
2025-02-26 15:33:39.362,946.0,-103.0,1651.0,-179.0,306.0,22.0,125,109,47,66,57
2025-02-26 15:33:39.366,823.0,-155.0,1507.0,-151.0,302.0,24.0,124,110,46,65,58
2025-02-26 15:33:39.371,738.0,-124.0,1490.0,-139.0,302.0,25.0,122,111,49,66,58
2025-02-26 15:33:39.379,599.0,-67.0,1510.0,-142.0,303.0,29.0,128,109,47,71,59
2025-02-26 15:33:39.384,523.0,-70.0,1510.0,-141.0,302.0,29.0,126,110,47,66,58
2025-02-26 15:33:39.391,367.0,-164.0,1309.0,-170.0,306.0,49.0,125,111,47,67,54
2025-02-26 15:33:39.395,279.0,-97.0,1297.0,-195.0,302.0,60.0,124,109,48,67,58
2025-02-26 15:33:39.399,188.0,-92.0,1372.0,-232.0,303.0,85.0,124,105,48,66,60
2025-02-26 15:33:39.403,257.0,-21.0,1297.0,-244.0,306.0,107.0,126,107,48,66,58
2025-02-26 15:33:39.411,255.0,-19.0,1231.0,-275.0,307.0,133.0,125,108,48,65,58
2025-02-26 15:33:39.415,322.0,-97.0,1168.0,-303.0,312.0,142.0,124,108,49,67,57
2025-02-26 15:33:39.419,284.0,-158.0,1103.0,-330.0,314.0,179.0,126,111,49,67,57
2025-02-26 15:33:39.424,374.0,-236.0,1190.0,-326.0,329.0,194.0,124,108,49,67,58
2025-02-26 15:33:39.431,455.0,-314.0,1128.0,-322.0,348.0,206.0,124,110,49,68,59
2025-02-26 15:33:39.436,521.0,-325.0,1086.0,-322.0,358.0,215.0,125,108,50,71,60
2025-02-26 15:33:39.440,569.0,-301.0,1004.0,-310.0,378.0,218.0,124,108,50,69,61
2025-02-26 15:33:39.443,546.0,-265.0,997.0,-302.0,400.0,224.0,125,106,50,69,59
2025-02-26 15:33:39.452,620.0,-193.0,973.0,-297.0,418.0,230.0,125,107,51,71,59
2025-02-26 15:33:39.457,541.0,-174.0,889.0,-295.0,431.0,231.0,127,104,50,70,60
2025-02-26 15:33:39.461,498.0,-202.0,857.0,-280.0,434.0,232.0,125,107,49,69,61
2025-02-26 15:33:39.468,384.0,-204.0,884.0,-269.0,444.0,231.0,126,107,51,69,61
2025-02-26 15:33:39.473,346.0,-92.0,780.0,-235.0,437.0,226.0,127,105,51,68,61
2025-02-26 15:33:39.474,213.0,-110.0,752.0,-227.0,435.0,214.0,126,105,51,69,62
2025-02-26 15:33:39.485,232.0,28.0,649.0,-216.0,430.0,198.0,128,103,49,69,62
2025-02-26 15:33:39.489,196.0,70.0,731.0,-210.0,435.0,192.0,128,102,50,68,60
2025-02-26 15:33:39.493,224.0,143.0,615.0,-218.0,433.0,186.0,127,102,51,70,62
2025-02-26 15:33:39.498,193.0,104.0,479.0,-218.0,433.0,184.0,128,100,50,71,63
2025-02-26 15:33:39.502,205.0,32.0,314.0,-212.0,432.0,182.0,129,101,52,70,62
2025-02-26 15:33:39.509,107.0,80.0,306.0,-214.0,430.0,177.0,129,103,51,70,63
2025-02-26 15:33:39.513,-29.0,55.0,226.0,-211.0,423.0,176.0,129,105,52,73,65
2025-02-26 15:33:39.516,-80.0,26.0,139.0,-194.0,417.0,175.0,129,104,53,71,67
2025-02-26 15:33:39.523,-89.0,35.0,27.0,-165.0,407.0,174.0,129,101,53,73,68
2025-02-26 15:33:39.533,-133.0,-38.0,20.0,-126.0,397.0,170.0,127,101,53,74,70
2025-02-26 15:33:39.535,-126.0,-58.0,59.0,-115.0,394.0,165.0,129,102,54,75,73
2025-02-26 15:33:39.535,-149.0,-82.0,161.0,-82.0,398.0,166.0,128,102,49,77,75
2025-02-26 15:33:39.542,-204.0,-89.0,-113.0,-45.0,367.0,160.0,128,100,53,77,78
2025-02-26 15:33:39.551,-215.0,-14.0,-56.0,-27.0,352.0,156.0,129,101,55,79,79
2025-02-26 15:33:39.555,-164.0,-8.0,-182.0,30.0,341.0,138.0,128,102,57,82,82
2025-02-26 15:33:39.559,-175.0,206.0,-367.0,61.0,323.0,133.0,128,101,56,81,83
2025-02-26 15:33:39.563,-399.0,315.0,-429.0,87.0,301.0,126.0,127,100,56,82,84
2025-02-26 15:33:39.571,-527.0,465.0,-893.0,101.0,253.0,116.0,125,97,58,81,87
