timestamp,ax,ay,az,gx,gy,gz,flex1,flex2,flex3,flex4,flex5,emg1,emg2,emg3
2025-02-26 15:10:23.854,-307.0,-223.0,980.0,-1.0,-1.0,-1.0,203,184,172,195,182
2025-02-26 15:10:23.854,-307.0,-227.0,980.0,-2.0,-1.0,-1.0,199,181,169,190,178
2025-02-26 15:10:23.863,-308.0,-228.0,977.0,-2.0,-1.0,-1.0,208,189,177,199,186
2025-02-26 15:10:23.865,-304.0,-223.0,969.0,-2.0,-1.0,-1.0,207,185,173,195,183
2025-02-26 15:10:23.867,-305.0,-227.0,968.0,-2.0,-1.0,-1.0,199,179,168,191,178
2025-02-26 15:10:23.869,-308.0,-226.0,961.0,-2.0,-2.0,-1.0,206,186,175,196,185
2025-02-26 15:10:23.871,-302.0,-229.0,964.0,-3.0,-3.0,-2.0,206,187,174,196,185
2025-02-26 15:10:23.875,-306.0,-226.0,965.0,-2.0,-3.0,-2.0,201,181,169,192,180
2025-02-26 15:10:23.877,-304.0,-229.0,964.0,-2.0,-3.0,-2.0,206,187,175,197,185
2025-02-26 15:10:23.878,-306.0,-234.0,966.0,-2.0,-3.0,-1.0,204,185,173,195,183
2025-02-26 15:10:23.878,-298.0,-238.0,963.0,-2.0,-2.0,-1.0,203,186,170,193,181
2025-02-26 15:10:23.878,-298.0,-237.0,956.0,-1.0,-2.0,-1.0,208,189,176,197,186
2025-02-26 15:10:23.878,-297.0,-237.0,957.0,0.0,-2.0,-1.0,204,186,173,195,184
2025-02-26 15:10:23.878,-298.0,-238.0,958.0,0.0,-1.0,-1.0,200,181,168,191,178
2025-02-26 15:10:23.878,-301.0,-238.0,962.0,0.0,-1.0,-1.0,209,190,178,200,187
2025-02-26 15:10:23.892,-299.0,-236.0,962.0,0.0,-2.0,-2.0,205,186,174,196,184
2025-02-26 15:10:23.895,-304.0,-222.0,957.0,0.0,-2.0,-2.0,200,180,166,190,176
2025-02-26 15:10:23.896,-307.0,-229.0,947.0,1.0,-3.0,-3.0,206,188,175,197,185
2025-02-26 15:10:23.896,-308.0,-211.0,960.0,0.0,-4.0,-3.0,209,188,176,198,185
2025-02-26 15:10:23.896,-310.0,-217.0,960.0,-1.0,-4.0,-2.0,202,182,169,191,179
2025-02-26 15:10:23.896,-304.0,-219.0,969.0,-2.0,-4.0,-2.0,206,187,175,197,184
2025-02-26 15:10:23.896,-298.0,-230.0,974.0,-3.0,-4.0,-2.0,204,184,172,193,181
2025-02-26 15:10:23.896,-294.0,-235.0,972.0,-3.0,-4.0,-1.0,205,185,173,195,182
2025-02-26 15:10:23.908,-292.0,-228.0,969.0,-3.0,-4.0,-1.0,203,182,170,191,179
2025-02-26 15:10:23.908,-296.0,-242.0,971.0,-4.0,-3.0,-1.0,206,187,175,197,184
2025-02-26 15:10:23.908,-292.0,-230.0,931.0,-3.0,-4.0,-2.0,201,183,172,194,182
2025-02-26 15:10:23.908,-309.0,-244.0,998.0,-1.0,-3.0,-1.0,205,184,172,193,181
2025-02-26 15:10:23.908,-298.0,-249.0,975.0,-1.0,-3.0,-1.0,202,181,169,192,179
2025-02-26 15:10:23.908,-289.0,-232.0,978.0,0.0,-3.0,-1.0,204,186,174,198,183
2025-02-26 15:10:23.924,-300.0,-233.0,991.0,1.0,-1.0,-1.0,205,185,173,196,184
2025-02-26 15:10:23.926,-301.0,-241.0,988.0,1.0,-1.0,0.0,202,183,172,193,181
2025-02-26 15:10:23.926,-296.0,-237.0,988.0,1.0,1.0,0.0,200,180,168,190,176
2025-02-26 15:10:23.930,-292.0,-234.0,984.0,1.0,2.0,0.0,206,187,174,197,185
2025-02-26 15:10:23.932,-289.0,-232.0,979.0,1.0,2.0,0.0,201,180,169,192,180
2025-02-26 15:10:23.934,-289.0,-230.0,979.0,0.0,2.0,0.0,201,182,168,191,180
2025-02-26 15:10:23.937,-295.0,-233.0,976.0,0.0,3.0,0.0,208,189,177,198,186
2025-02-26 15:10:23.942,-293.0,-244.0,971.0,0.0,3.0,0.0,203,184,172,194,181
2025-02-26 15:10:23.947,-300.0,-237.0,963.0,1.0,3.0,1.0,201,181,168,192,179
2025-02-26 15:10:23.951,-293.0,-236.0,962.0,1.0,3.0,1.0,209,189,176,199,186
2025-02-26 15:10:23.957,-298.0,-230.0,960.0,0.0,3.0,1.0,207,187,175,196,183
2025-02-26 15:10:23.959,-298.0,-232.0,960.0,1.0,3.0,1.0,201,180,167,191,178
2025-02-26 15:10:23.966,-302.0,-222.0,963.0,0.0,3.0,1.0,206,188,174,196,184
2025-02-26 15:10:23.969,-304.0,-221.0,954.0,0.0,3.0,1.0,207,186,174,196,184
2025-02-26 15:10:23.975,-305.0,-219.0,953.0,-1.0,3.0,1.0,202,180,168,191,179
2025-02-26 15:10:23.979,-305.0,-217.0,947.0,-1.0,3.0,2.0,206,187,175,197,185
2025-02-26 15:10:23.987,-303.0,-216.0,942.0,-2.0,3.0,1.0,204,188,175,197,185
2025-02-26 15:10:23.991,-306.0,-211.0,941.0,-2.0,3.0,1.0,201,184,171,194,183
2025-02-26 15:10:23.996,-310.0,-220.0,938.0,-2.0,2.0,1.0,199,180,168,191,178
2025-02-26 15:10:24.003,-303.0,-217.0,939.0,-3.0,2.0,1.0,206,188,176,197,185
2025-02-26 15:10:24.007,-309.0,-215.0,936.0,-2.0,2.0,1.0,206,186,173,196,184
2025-02-26 15:10:24.008,-314.0,-218.0,936.0,-3.0,2.0,1.0,202,180,168,191,179
2025-02-26 15:10:24.016,-309.0,-217.0,934.0,-3.0,1.0,1.0,207,185,176,198,186
2025-02-26 15:10:24.023,-307.0,-221.0,930.0,-2.0,1.0,1.0,208,188,173,197,184
2025-02-26 15:10:24.028,-310.0,-215.0,931.0,-2.0,1.0,1.0,199,181,169,192,179
2025-02-26 15:10:24.029,-312.0,-223.0,927.0,-1.0,1.0,1.0,202,181,168,190,177
2025-02-26 15:10:24.037,-311.0,-226.0,936.0,-1.0,1.0,1.0,210,189,176,199,186
2025-02-26 15:10:24.040,-308.0,-217.0,924.0,-1.0,-1.0,0.0,203,184,173,195,183
2025-02-26 15:10:24.048,-307.0,-219.0,930.0,0.0,-1.0,0.0,200,180,168,190,178
2025-02-26 15:10:24.048,-314.0,-219.0,934.0,0.0,-2.0,0.0,207,189,178,199,186
2025-02-26 15:10:24.057,-317.0,-218.0,937.0,-1.0,-1.0,0.0,207,188,176,199,186
2025-02-26 15:10:24.060,-313.0,-221.0,941.0,-1.0,-1.0,0.0,201,181,166,191,176
2025-02-26 15:10:24.069,-308.0,-223.0,941.0,0.0,-1.0,1.0,200,180,168,189,178
2025-02-26 15:10:24.070,-304.0,-220.0,940.0,1.0,-1.0,1.0,208,189,178,200,187
2025-02-26 15:10:24.070,-308.0,-226.0,950.0,1.0,-1.0,1.0,205,185,174,196,183
2025-02-26 15:10:24.082,-308.0,-215.0,962.0,1.0,-1.0,1.0,200,180,168,189,176
2025-02-26 15:10:24.086,-308.0,-209.0,957.0,1.0,0.0,1.0,207,184,175,200,186
2025-02-26 15:10:24.093,-307.0,-210.0,955.0,2.0,1.0,1.0,207,190,177,199,187
2025-02-26 15:10:24.098,-306.0,-205.0,954.0,1.0,1.0,1.0,202,182,169,192,179
2025-02-26 15:10:24.102,-310.0,-200.0,954.0,0.0,0.0,1.0,207,188,175,196,185
2025-02-26 15:10:24.106,-310.0,-199.0,961.0,0.0,0.0,1.0,208,189,176,198,184
2025-02-26 15:10:24.114,-314.0,-200.0,955.0,-1.0,0.0,1.0,203,183,171,194,181
2025-02-26 15:10:24.119,-313.0,-203.0,958.0,-1.0,-1.0,0.0,198,181,168,193,177
2025-02-26 15:10:24.120,-316.0,-205.0,956.0,-1.0,-2.0,1.0,206,187,175,199,185
2025-02-26 15:10:24.127,-317.0,-207.0,963.0,-1.0,-2.0,0.0,205,185,174,196,183
2025-02-26 15:10:24.135,-314.0,-206.0,964.0,0.0,-2.0,-1.0,203,183,171,194,182
2025-02-26 15:10:24.138,-310.0,-207.0,974.0,0.0,-2.0,-1.0,203,182,170,192,180
2025-02-26 15:10:24.143,-307.0,-209.0,977.0,0.0,-1.0,-1.0,207,187,175,198,186
2025-02-26 15:10:24.148,-307.0,-205.0,974.0,0.0,0.0,-1.0,212,193,181,202,190
2025-02-26 15:10:24.155,-305.0,-211.0,981.0,0.0,0.0,-1.0,203,182,170,193,180
2025-02-26 15:10:24.155,-304.0,-210.0,975.0,0.0,0.0,0.0,207,188,177,197,186
2025-02-26 15:10:24.163,-311.0,-209.0,979.0,0.0,1.0,0.0,205,186,174,196,184
2025-02-26 15:10:24.167,-310.0,-209.0,979.0,-1.0,1.0,-1.0,208,189,176,199,186
2025-02-26 15:10:24.167,-303.0,-211.0,979.0,-1.0,0.0,-1.0,205,186,173,195,183
2025-02-26 15:10:24.180,-305.0,-212.0,979.0,0.0,0.0,-1.0,206,187,175,198,185
2025-02-26 15:10:24.184,-300.0,-211.0,972.0,0.0,0.0,-1.0,206,188,175,198,185
2025-02-26 15:10:24.188,-302.0,-210.0,978.0,0.0,0.0,-1.0,208,187,174,197,185
2025-02-26 15:10:24.195,-298.0,-220.0,982.0,0.0,0.0,-1.0,209,190,177,199,187
2025-02-26 15:10:24.200,-296.0,-219.0,979.0,-1.0,0.0,-1.0,205,187,175,197,184
2025-02-26 15:10:24.204,-292.0,-222.0,974.0,-1.0,0.0,-1.0,202,183,170,193,180
2025-02-26 15:10:24.208,-293.0,-226.0,972.0,-1.0,0.0,-1.0,205,186,173,196,183
2025-02-26 15:10:24.217,-293.0,-223.0,978.0,-1.0,0.0,-1.0,209,190,179,200,186
2025-02-26 15:10:24.220,-287.0,-228.0,979.0,-1.0,0.0,-1.0,207,187,173,196,182
2025-02-26 15:10:24.225,-288.0,-233.0,977.0,-1.0,0.0,-1.0,202,183,170,194,181
2025-02-26 15:10:24.230,-285.0,-225.0,983.0,0.0,0.0,-1.0,206,187,174,195,182
2025-02-26 15:10:24.237,-286.0,-226.0,978.0,0.0,0.0,-1.0,209,190,177,201,187
2025-02-26 15:10:24.241,-286.0,-228.0,986.0,0.0,0.0,-1.0,206,188,175,197,185
2025-02-26 15:10:24.242,-287.0,-232.0,985.0,0.0,0.0,-1.0,202,183,171,192,180
2025-02-26 15:10:24.249,-286.0,-229.0,992.0,0.0,1.0,-1.0,212,191,179,201,189
2025-02-26 15:10:24.257,-284.0,-229.0,995.0,0.0,1.0,-1.0,208,188,176,198,186
2025-02-26 15:10:24.262,-286.0,-228.0,997.0,0.0,2.0,-1.0,204,183,172,194,180
2025-02-26 15:10:24.266,-282.0,-230.0,994.0,-1.0,2.0,-1.0,207,187,173,196,183
2025-02-26 15:10:24.269,-286.0,-231.0,993.0,-2.0,3.0,-1.0,211,191,179,201,189
2025-02-26 15:10:24.274,-291.0,-232.0,988.0,-2.0,3.0,0.0,208,189,176,199,187
2025-02-26 15:10:24.282,-292.0,-234.0,983.0,-2.0,3.0,0.0,201,182,170,192,179
2025-02-26 15:10:24.286,-296.0,-237.0,979.0,-2.0,3.0,0.0,209,188,177,199,184
2025-02-26 15:10:24.290,-285.0,-225.0,986.0,-3.0,4.0,1.0,210,190,178,202,189
2025-02-26 15:10:24.294,-300.0,-226.0,960.0,-1.0,4.0,0.0,204,185,172,194,181
2025-02-26 15:10:24.296,-316.0,-224.0,962.0,0.0,3.0,0.0,203,182,170,194,179
2025-02-26 15:10:24.306,-323.0,-241.0,952.0,-4.0,5.0,1.0,208,189,177,198,187
2025-02-26 15:10:24.311,-292.0,-211.0,938.0,-1.0,3.0,1.0,206,187,174,197,186
2025-02-26 15:10:24.316,-316.0,-222.0,960.0,-2.0,5.0,1.0,204,185,173,195,183
2025-02-26 15:10:24.322,-310.0,-229.0,940.0,-3.0,4.0,1.0,209,189,176,200,187
2025-02-26 15:10:24.327,-312.0,-222.0,934.0,-2.0,4.0,1.0,207,186,175,198,185
2025-02-26 15:10:24.328,-308.0,-222.0,923.0,-2.0,4.0,1.0,205,184,173,195,182
2025-02-26 15:10:24.336,-307.0,-224.0,929.0,-3.0,4.0,2.0,210,192,179,202,189
2025-02-26 15:10:24.340,-309.0,-217.0,910.0,-2.0,4.0,2.0,211,189,176,201,187
2025-02-26 15:10:24.348,-313.0,-229.0,913.0,-2.0,3.0,2.0,204,184,172,194,181
2025-02-26 15:10:24.352,-319.0,-232.0,909.0,-1.0,3.0,2.0,203,186,173,196,182
2025-02-26 15:10:24.356,-316.0,-228.0,908.0,0.0,3.0,2.0,210,191,179,201,189
2025-02-26 15:10:24.360,-327.0,-222.0,909.0,0.0,2.0,2.0,208,189,174,198,186
2025-02-26 15:10:24.368,-333.0,-222.0,912.0,2.0,2.0,2.0,202,183,171,193,180
2025-02-26 15:10:24.371,-329.0,-218.0,917.0,2.0,1.0,2.0,211,192,180,201,189
2025-02-26 15:10:24.377,-333.0,-206.0,913.0,2.0,1.0,2.0,207,189,176,198,181
2025-02-26 15:10:24.381,-327.0,-202.0,920.0,2.0,1.0,1.0,201,183,169,193,180
2025-02-26 15:10:24.383,-332.0,-198.0,917.0,1.0,1.0,1.0,209,190,178,201,188
2025-02-26 15:10:24.392,-333.0,-200.0,920.0,1.0,1.0,1.0,209,191,174,201,189
2025-02-26 15:10:24.395,-331.0,-199.0,917.0,0.0,1.0,0.0,205,184,172,194,181
2025-02-26 15:10:24.401,-334.0,-202.0,914.0,-1.0,0.0,0.0,209,193,177,198,186
2025-02-26 15:10:24.405,-332.0,-204.0,916.0,-2.0,0.0,0.0,209,189,177,200,187
2025-02-26 15:10:24.413,-336.0,-210.0,907.0,-2.0,0.0,0.0,205,187,171,196,182
2025-02-26 15:10:24.417,-335.0,-212.0,905.0,-2.0,0.0,0.0,203,182,170,192,180
2025-02-26 15:10:24.422,-332.0,-215.0,898.0,-2.0,-1.0,0.0,208,190,175,199,188
2025-02-26 15:10:24.426,-333.0,-217.0,902.0,-2.0,-1.0,-1.0,206,187,176,198,185
2025-02-26 15:10:24.434,-334.0,-222.0,908.0,-1.0,-2.0,0.0,205,184,173,196,182
2025-02-26 15:10:24.437,-335.0,-218.0,908.0,0.0,-2.0,0.0,203,185,172,194,181
2025-02-26 15:10:24.442,-336.0,-220.0,913.0,0.0,-2.0,0.0,209,189,177,199,187
2025-02-26 15:10:24.444,-334.0,-220.0,919.0,0.0,-3.0,0.0,207,188,176,199,185
2025-02-26 15:10:24.454,-332.0,-218.0,920.0,0.0,-3.0,0.0,206,183,171,193,182
2025-02-26 15:10:24.456,-331.0,-216.0,929.0,0.0,-3.0,-1.0,209,192,179,201,188
2025-02-26 15:10:24.463,-324.0,-218.0,933.0,1.0,-3.0,-1.0,208,189,177,200,187
2025-02-26 15:10:24.467,-317.0,-212.0,935.0,1.0,-3.0,-1.0,205,185,172,194,182
2025-02-26 15:10:24.474,-319.0,-218.0,936.0,1.0,-3.0,-1.0,203,183,171,194,182
2025-02-26 15:10:24.479,-319.0,-211.0,941.0,2.0,-3.0,-1.0,209,189,177,202,187
2025-02-26 15:10:24.483,-314.0,-214.0,945.0,1.0,-2.0,-1.0,207,188,176,197,184
2025-02-26 15:10:24.487,-318.0,-214.0,946.0,2.0,-2.0,-1.0,209,189,178,201,188
2025-02-26 15:10:24.494,-320.0,-211.0,947.0,1.0,-2.0,-1.0,202,183,171,194,181
2025-02-26 15:10:24.497,-320.0,-215.0,950.0,1.0,-3.0,-1.0,211,189,176,200,187
2025-02-26 15:10:24.504,-317.0,-212.0,951.0,0.0,-3.0,-2.0,209,187,174,196,184
2025-02-26 15:10:24.508,-315.0,-212.0,955.0,-1.0,-3.0,-2.0,209,190,179,199,187
2025-02-26 15:10:24.516,-313.0,-210.0,958.0,-1.0,-3.0,-2.0,203,183,170,191,180
2025-02-26 15:10:24.520,-308.0,-214.0,958.0,-1.0,-3.0,-2.0,209,189,177,197,186
2025-02-26 15:10:24.524,-309.0,-222.0,958.0,-2.0,-3.0,-2.0,206,187,175,197,185
2025-02-26 15:10:24.532,-301.0,-225.0,958.0,-2.0,-3.0,-2.0,205,186,175,195,184
2025-02-26 15:10:24.535,-295.0,-224.0,960.0,-1.0,-3.0,-2.0,205,185,172,195,183
2025-02-26 15:10:24.541,-302.0,-225.0,958.0,-1.0,-3.0,-2.0,208,189,176,199,186
2025-02-26 15:10:24.545,-302.0,-228.0,960.0,0.0,-2.0,-1.0,209,190,176,198,186
2025-02-26 15:10:24.553,-301.0,-220.0,961.0,0.0,-3.0,-1.0,206,187,173,195,183
2025-02-26 15:10:24.556,-298.0,-227.0,958.0,0.0,-3.0,-1.0,203,185,174,196,184
2025-02-26 15:10:24.559,-298.0,-227.0,961.0,1.0,-3.0,-1.0,210,188,177,197,187
2025-02-26 15:10:24.565,-306.0,-226.0,959.0,1.0,-3.0,0.0,208,188,177,199,186
2025-02-26 15:10:24.571,-305.0,-228.0,964.0,2.0,-3.0,0.0,205,186,173,196,182
2025-02-26 15:10:24.576,-301.0,-227.0,961.0,2.0,-3.0,-1.0,205,185,172,194,182
2025-02-26 15:10:24.581,-307.0,-223.0,963.0,2.0,-4.0,0.0,207,189,177,198,187
2025-02-26 15:10:24.585,-311.0,-224.0,971.0,2.0,-3.0,-1.0,208,188,176,199,186
2025-02-26 15:10:24.593,-306.0,-221.0,976.0,3.0,-3.0,0.0,204,184,171,193,178
2025-02-26 15:10:24.597,-299.0,-227.0,976.0,4.0,-3.0,0.0,211,190,179,201,188
2025-02-26 15:10:24.602,-298.0,-227.0,984.0,4.0,-3.0,0.0,208,190,177,198,187
2025-02-26 15:10:24.606,-301.0,-218.0,980.0,4.0,-2.0,0.0,203,183,171,193,181
2025-02-26 15:10:24.607,-303.0,-219.0,986.0,4.0,-2.0,1.0,200,182,171,194,181
2025-02-26 15:10:24.618,-298.0,-215.0,990.0,3.0,-2.0,1.0,211,191,178,201,188
2025-02-26 15:10:24.622,-310.0,-207.0,985.0,3.0,-2.0,0.0,209,191,178,200,189
2025-02-26 15:10:24.627,-307.0,-203.0,986.0,4.0,-2.0,1.0,207,187,175,197,185
2025-02-26 15:10:24.631,-307.0,-221.0,992.0,3.0,-1.0,0.0,215,196,184,206,193
2025-02-26 15:10:24.639,-306.0,-221.0,969.0,0.0,-1.0,0.0,212,193,180,204,192
2025-02-26 15:10:24.643,-292.0,-200.0,1012.0,-2.0,0.0,-1.0,208,186,175,194,184
2025-02-26 15:10:24.647,-288.0,-187.0,973.0,-3.0,0.0,0.0,219,200,187,210,198
2025-02-26 15:10:24.651,-297.0,-212.0,959.0,-1.0,1.0,-1.0,246,228,216,237,225
2025-02-26 15:10:24.659,-322.0,-227.0,949.0,-3.0,1.0,0.0,260,242,230,250,240
2025-02-26 15:10:24.663,-312.0,-181.0,949.0,-4.0,2.0,0.0,222,203,191,214,201
2025-02-26 15:10:24.668,-299.0,-224.0,943.0,-3.0,-1.0,-1.0,228,209,194,218,205
2025-02-26 15:10:24.672,-327.0,-282.0,1099.0,-4.0,2.0,0.0,227,206,194,215,204
2025-02-26 15:10:24.680,-322.0,-169.0,785.0,-2.0,1.0,0.0,221,201,189,212,200
2025-02-26 15:10:24.683,-311.0,-207.0,861.0,-3.0,-3.0,1.0,207,190,177,198,187
2025-02-26 15:10:24.689,-309.0,-214.0,989.0,-3.0,1.0,0.0,209,191,179,201,188
2025-02-26 15:10:24.693,-316.0,-237.0,956.0,1.0,1.0,1.0,204,184,173,195,183
2025-02-26 15:10:24.700,-315.0,-247.0,810.0,-21.0,-8.0,1.0,213,194,181,204,191
2025-02-26 15:10:24.703,-283.0,-164.0,879.0,-21.0,2.0,3.0,194,176,164,186,173
2025-02-26 15:10:24.708,-324.0,-172.0,1007.0,-21.0,0.0,3.0,195,174,162,185,172
2025-02-26 15:10:24.712,-311.0,-182.0,903.0,-12.0,-3.0,0.0,184,162,151,175,161
2025-02-26 15:10:24.721,-320.0,-227.0,939.0,-5.0,-5.0,0.0,176,155,142,167,153
2025-02-26 15:10:24.725,-365.0,-257.0,962.0,1.0,-4.0,-1.0,179,158,146,169,155
2025-02-26 15:10:24.729,-338.0,-240.0,994.0,2.0,-4.0,-1.0,176,156,145,167,153
2025-02-26 15:10:24.734,-308.0,-223.0,971.0,1.0,-3.0,0.0,191,170,158,183,169
2025-02-26 15:10:24.740,-322.0,-206.0,962.0,0.0,-2.0,0.0,174,154,142,167,153
2025-02-26 15:10:24.745,-314.0,-224.0,977.0,2.0,0.0,1.0,173,154,141,163,151
2025-02-26 15:10:24.749,-315.0,-224.0,967.0,3.0,0.0,0.0,185,166,151,174,163
2025-02-26 15:10:24.754,-312.0,-200.0,968.0,3.0,1.0,1.0,196,177,163,187,173
2025-02-26 15:10:24.761,-333.0,-216.0,958.0,4.0,2.0,0.0,192,171,159,180,168
2025-02-26 15:10:24.766,-330.0,-214.0,970.0,3.0,1.0,0.0,192,173,159,182,171
2025-02-26 15:10:24.770,-318.0,-202.0,964.0,2.0,0.0,0.0,168,148,134,156,143
2025-02-26 15:10:24.774,-327.0,-202.0,968.0,1.0,0.0,0.0,172,153,139,163,150
2025-02-26 15:10:24.778,-326.0,-211.0,962.0,-1.0,-1.0,0.0,181,161,149,173,159
2025-02-26 15:10:24.786,-306.0,-199.0,949.0,-1.0,-1.0,-1.0,184,163,150,173,161
2025-02-26 15:10:24.788,-310.0,-213.0,963.0,-2.0,-1.0,-1.0,182,162,149,171,158
2025-02-26 15:10:24.795,-315.0,-209.0,963.0,-4.0,-1.0,-1.0,181,162,149,171,159
2025-02-26 15:10:24.802,-306.0,-187.0,934.0,-3.0,-1.0,-1.0,189,166,155,178,165
2025-02-26 15:10:24.806,-303.0,-214.0,921.0,-1.0,-1.0,-1.0,188,168,155,177,165
2025-02-26 15:10:24.811,-305.0,-199.0,936.0,-2.0,-2.0,-1.0,186,168,155,177,164
2025-02-26 15:10:24.815,-305.0,-196.0,941.0,-3.0,0.0,-1.0,180,161,147,171,158
2025-02-26 15:10:24.823,-301.0,-217.0,942.0,-1.0,0.0,0.0,184,163,147,171,159
2025-02-26 15:10:24.826,-303.0,-227.0,917.0,0.0,-1.0,0.0,175,156,144,166,151
2025-02-26 15:10:24.832,-308.0,-227.0,934.0,1.0,-1.0,0.0,175,150,143,167,150
2025-02-26 15:10:24.836,-304.0,-217.0,931.0,2.0,-1.0,0.0,182,163,150,173,160
2025-02-26 15:10:24.848,-310.0,-208.0,965.0,1.0,-1.0,0.0,194,175,162,183,169
2025-02-26 15:10:24.849,-307.0,-209.0,922.0,3.0,-1.0,0.0,194,174,161,183,171
2025-02-26 15:10:24.849,-306.0,-222.0,959.0,3.0,-1.0,0.0,192,171,162,182,169
2025-02-26 15:10:24.856,-308.0,-219.0,955.0,2.0,-1.0,0.0,198,180,166,189,176
2025-02-26 15:10:24.860,-297.0,-211.0,948.0,0.0,-2.0,0.0,193,175,161,183,170
2025-02-26 15:10:24.868,-314.0,-213.0,947.0,1.0,-2.0,0.0,189,170,156,179,168
2025-02-26 15:10:24.872,-316.0,-228.0,933.0,1.0,-2.0,0.0,204,182,169,195,179
2025-02-26 15:10:24.874,-329.0,-214.0,916.0,0.0,-3.0,0.0,203,183,169,193,182
2025-02-26 15:10:24.881,-323.0,-228.0,935.0,1.0,-3.0,-1.0,195,176,163,181,171
2025-02-26 15:10:24.888,-298.0,-234.0,969.0,3.0,-3.0,0.0,194,171,161,183,170
2025-02-26 15:10:24.892,-322.0,-216.0,912.0,2.0,-4.0,0.0,200,181,168,188,178
2025-02-26 15:10:24.897,-304.0,-214.0,969.0,2.0,-4.0,0.0,198,178,167,190,177
2025-02-26 15:10:24.901,-307.0,-246.0,974.0,4.0,-4.0,1.0,193,174,163,185,172
2025-02-26 15:10:24.909,-304.0,-247.0,951.0,5.0,-3.0,0.0,201,184,168,192,178
2025-02-26 15:10:24.912,-313.0,-213.0,973.0,6.0,-3.0,0.0,200,181,168,190,178
2025-02-26 15:10:24.918,-314.0,-237.0,992.0,7.0,-2.0,0.0,190,171,160,183,169
2025-02-26 15:10:24.922,-317.0,-217.0,1006.0,5.0,-1.0,0.0,188,167,156,177,166
2025-02-26 15:10:24.929,-308.0,-186.0,982.0,4.0,-1.0,0.0,202,183,171,194,180
2025-02-26 15:10:24.934,-302.0,-217.0,1008.0,5.0,-1.0,0.0,196,175,162,185,172
2025-02-26 15:10:24.937,-306.0,-213.0,979.0,4.0,0.0,-1.0,193,174,161,184,171
2025-02-26 15:10:24.941,-286.0,-202.0,975.0,5.0,0.0,0.0,198,178,166,188,176
2025-02-26 15:10:24.946,-306.0,-211.0,995.0,4.0,1.0,0.0,206,187,172,195,183
2025-02-26 15:10:24.954,-311.0,-191.0,966.0,5.0,1.0,0.0,187,167,152,176,164
2025-02-26 15:10:24.958,-308.0,-230.0,953.0,3.0,2.0,0.0,177,155,142,166,152
2025-02-26 15:10:24.963,-306.0,-201.0,948.0,4.0,2.0,1.0,178,157,144,167,153
2025-02-26 15:10:24.966,-306.0,-203.0,935.0,4.0,2.0,0.0,175,157,143,167,156
2025-02-26 15:10:24.971,-320.0,-189.0,962.0,4.0,2.0,0.0,173,153,141,164,151
2025-02-26 15:10:24.978,-309.0,-206.0,951.0,3.0,2.0,0.0,179,160,146,167,156
2025-02-26 15:10:24.983,-312.0,-203.0,950.0,2.0,1.0,1.0,176,156,144,166,153
2025-02-26 15:10:24.987,-309.0,-182.0,939.0,2.0,1.0,0.0,174,155,141,165,152
2025-02-26 15:10:24.991,-317.0,-210.0,970.0,1.0,0.0,0.0,185,166,153,176,167
2025-02-26 15:10:24.999,-318.0,-205.0,962.0,1.0,0.0,0.0,180,160,148,172,158
2025-02-26 15:10:25.003,-305.0,-196.0,953.0,0.0,0.0,1.0,174,156,143,166,154
2025-02-26 15:10:25.007,-320.0,-205.0,951.0,0.0,0.0,0.0,181,160,147,170,157
2025-02-26 15:10:25.011,-322.0,-199.0,947.0,-2.0,-1.0,0.0,179,158,145,170,155
2025-02-26 15:10:25.019,-312.0,-185.0,942.0,-3.0,-1.0,0.0,174,152,142,163,151
2025-02-26 15:10:25.024,-314.0,-191.0,943.0,-3.0,-1.0,0.0,177,157,143,166,152
2025-02-26 15:10:25.028,-325.0,-207.0,939.0,-2.0,-2.0,0.0,179,162,149,173,160
2025-02-26 15:10:25.032,-315.0,-208.0,959.0,-2.0,-2.0,-1.0,178,158,145,170,156
2025-02-26 15:10:25.038,-313.0,-188.0,954.0,-2.0,-2.0,-1.0,174,155,142,164,151
2025-02-26 15:10:25.044,-311.0,-201.0,938.0,-2.0,-2.0,-1.0,174,154,142,164,149
2025-02-26 15:10:25.048,-313.0,-206.0,954.0,1.0,-1.0,0.0,182,162,150,172,159
2025-02-26 15:10:25.050,-310.0,-210.0,952.0,-1.0,0.0,0.0,178,158,147,170,155
2025-02-26 15:10:25.060,-315.0,-203.0,987.0,1.0,0.0,0.0,174,154,140,163,151
2025-02-26 15:10:25.063,-311.0,-199.0,968.0,1.0,0.0,0.0,179,159,146,170,157
2025-02-26 15:10:25.067,-311.0,-200.0,942.0,1.0,0.0,0.0,182,162,149,172,159
2025-02-26 15:10:25.073,-316.0,-196.0,959.0,1.0,0.0,0.0,176,156,142,166,153
2025-02-26 15:10:25.077,-313.0,-207.0,952.0,1.0,0.0,0.0,179,159,148,170,157
2025-02-26 15:10:25.085,-319.0,-197.0,965.0,1.0,1.0,0.0,180,159,147,169,156
2025-02-26 15:10:25.090,-310.0,-195.0,953.0,1.0,0.0,0.0,180,159,148,169,156
2025-02-26 15:10:25.091,-307.0,-196.0,943.0,3.0,0.0,0.0,182,162,148,170,158
2025-02-26 15:10:25.097,-317.0,-194.0,954.0,3.0,0.0,0.0,178,160,147,170,154
2025-02-26 15:10:25.102,-315.0,-187.0,945.0,4.0,0.0,0.0,177,155,143,167,151
2025-02-26 15:10:25.110,-318.0,-181.0,983.0,4.0,1.0,0.0,181,163,147,170,157
2025-02-26 15:10:25.114,-307.0,-199.0,952.0,2.0,-1.0,0.0,183,163,150,174,162
2025-02-26 15:10:25.118,-303.0,-200.0,958.0,5.0,0.0,-1.0,184,163,151,174,160
2025-02-26 15:10:25.122,-319.0,-208.0,956.0,4.0,-1.0,0.0,182,161,148,172,161
2025-02-26 15:10:25.127,-316.0,-186.0,965.0,3.0,-1.0,-1.0,190,169,158,180,167
2025-02-26 15:10:25.134,-324.0,-188.0,985.0,1.0,1.0,-1.0,186,165,152,174,162
2025-02-26 15:10:25.138,-317.0,-194.0,959.0,2.0,0.0,-2.0,182,162,150,172,159
2025-02-26 15:10:25.143,-310.0,-187.0,930.0,2.0,-1.0,-2.0,185,164,150,173,160
2025-02-26 15:10:25.150,-322.0,-194.0,982.0,-1.0,1.0,-1.0,190,170,156,179,165
2025-02-26 15:10:25.155,-335.0,-215.0,966.0,0.0,-1.0,-1.0,186,166,153,177,164
2025-02-26 15:10:25.158,-318.0,-199.0,968.0,-2.0,-1.0,-1.0,180,159,146,170,157
2025-02-26 15:10:25.163,-321.0,-203.0,944.0,-3.0,-1.0,-1.0,185,165,152,175,162
2025-02-26 15:10:25.171,-322.0,-169.0,944.0,-5.0,-1.0,-1.0,186,167,152,176,163
2025-02-26 15:10:25.175,-304.0,-171.0,925.0,-3.0,-2.0,-2.0,183,163,151,174,160
2025-02-26 15:10:25.179,-327.0,-215.0,966.0,-5.0,-1.0,-1.0,181,160,147,170,159
2025-02-26 15:10:25.187,-305.0,-192.0,936.0,-5.0,-2.0,-1.0,185,164,152,176,161
2025-02-26 15:10:25.191,-305.0,-194.0,974.0,-5.0,-1.0,-1.0,182,160,151,174,159
2025-02-26 15:10:25.196,-313.0,-207.0,964.0,-4.0,-1.0,-1.0,180,158,145,168,155
2025-02-26 15:10:25.200,-305.0,-219.0,962.0,-4.0,0.0,-1.0,167,144,133,157,138
2025-02-26 15:10:25.207,-302.0,-226.0,952.0,-2.0,-1.0,-1.0,209,188,176,197,185
2025-02-26 15:10:25.212,-293.0,-207.0,971.0,-1.0,-1.0,-1.0,179,159,147,169,159
2025-02-26 15:10:25.216,-297.0,-206.0,955.0,-2.0,0.0,0.0,176,156,143,168,154
2025-02-26 15:10:25.220,-311.0,-192.0,945.0,-2.0,0.0,0.0,168,148,135,159,145
2025-02-26 15:10:25.228,-306.0,-203.0,947.0,-1.0,-1.0,-1.0,165,145,132,156,144
2025-02-26 15:10:25.232,-319.0,-228.0,954.0,-1.0,-2.0,0.0,172,149,138,159,147
2025-02-26 15:10:25.236,-309.0,-197.0,953.0,0.0,-3.0,0.0,168,147,135,157,145
2025-02-26 15:10:25.241,-297.0,-198.0,941.0,-2.0,-2.0,0.0,164,143,130,155,142
2025-02-26 15:10:25.248,-315.0,-203.0,952.0,-1.0,-2.0,0.0,165,144,132,155,142
2025-02-26 15:10:25.252,-309.0,-202.0,937.0,-2.0,-2.0,0.0,168,147,134,157,145
2025-02-26 15:10:25.258,-296.0,-194.0,958.0,-2.0,-2.0,0.0,167,146,133,156,143
2025-02-26 15:10:25.261,-310.0,-209.0,958.0,-2.0,-2.0,-1.0,161,142,130,152,140
2025-02-26 15:10:25.269,-309.0,-213.0,962.0,-1.0,-2.0,0.0,171,151,138,160,146
2025-02-26 15:10:25.273,-302.0,-197.0,962.0,-1.0,-2.0,0.0,167,147,133,157,144
2025-02-26 15:10:25.277,-300.0,-190.0,963.0,-1.0,-2.0,-1.0,165,143,131,154,141
2025-02-26 15:10:25.282,-315.0,-204.0,935.0,-1.0,-2.0,0.0,158,139,129,150,137
2025-02-26 15:10:25.290,-301.0,-205.0,972.0,-1.0,-2.0,0.0,167,145,132,157,145
2025-02-26 15:10:25.291,-292.0,-177.0,938.0,0.0,-1.0,-1.0,165,146,131,154,140
2025-02-26 15:10:25.298,-320.0,-208.0,950.0,-2.0,-2.0,-1.0,163,143,131,154,142
2025-02-26 15:10:25.306,-304.0,-202.0,965.0,-1.0,-2.0,-1.0,162,141,127,152,138
2025-02-26 15:10:25.309,-307.0,-189.0,963.0,-1.0,-2.0,-2.0,165,144,131,154,141
2025-02-26 15:10:25.314,-306.0,-197.0,947.0,-2.0,-2.0,-1.0,165,143,132,154,141
2025-02-26 15:10:25.319,-305.0,-188.0,947.0,-3.0,-3.0,-2.0,163,141,130,152,140
2025-02-26 15:10:25.327,-305.0,-201.0,954.0,-3.0,-3.0,-2.0,161,141,127,151,137
2025-02-26 15:10:25.327,-306.0,-210.0,942.0,-3.0,-4.0,-2.0,159,139,127,148,138
2025-02-26 15:10:25.334,-313.0,-206.0,965.0,-3.0,-4.0,-2.0,165,144,131,154,141
2025-02-26 15:10:25.339,-307.0,-203.0,965.0,-4.0,-5.0,-2.0,163,143,130,153,141
2025-02-26 15:10:25.347,-313.0,-207.0,967.0,-4.0,-5.0,-1.0,162,141,127,151,138
2025-02-26 15:10:25.351,-303.0,-211.0,965.0,-4.0,-5.0,-1.0,162,141,128,151,140
2025-02-26 15:10:25.355,-302.0,-205.0,979.0,-3.0,-5.0,-1.0,164,144,131,154,141
2025-02-26 15:10:25.363,-298.0,-213.0,964.0,-4.0,-5.0,-1.0,164,144,130,155,140
2025-02-26 15:10:25.364,-301.0,-200.0,975.0,-4.0,-4.0,-1.0,162,147,130,153,140
2025-02-26 15:10:25.372,-290.0,-206.0,978.0,-4.0,-4.0,-1.0,162,139,126,151,138
2025-02-26 15:10:25.376,-297.0,-205.0,986.0,-5.0,-4.0,-1.0,165,144,131,153,139
2025-02-26 15:10:25.384,-294.0,-209.0,973.0,-4.0,-4.0,-1.0,161,144,130,153,141
2025-02-26 15:10:25.387,-307.0,-209.0,959.0,-4.0,-4.0,-1.0,167,147,134,157,142
2025-02-26 15:10:25.393,-298.0,-223.0,975.0,-3.0,-4.0,0.0,161,140,128,151,138
2025-02-26 15:10:25.394,-290.0,-209.0,980.0,-2.0,-4.0,0.0,159,140,128,149,137
2025-02-26 15:10:25.404,-302.0,-204.0,951.0,-3.0,-3.0,0.0,163,144,131,156,141
2025-02-26 15:10:25.406,-290.0,-228.0,980.0,-2.0,-3.0,1.0,166,145,131,155,143
2025-02-26 15:10:25.413,-297.0,-222.0,974.0,-2.0,-2.0,1.0,160,140,125,150,139
2025-02-26 15:10:25.418,-305.0,-228.0,964.0,0.0,-2.0,2.0,162,142,129,153,140
2025-02-26 15:10:25.425,-300.0,-223.0,975.0,1.0,-2.0,2.0,164,143,130,154,141
2025-02-26 15:10:25.429,-314.0,-212.0,962.0,2.0,-3.0,3.0,161,143,130,153,139
2025-02-26 15:10:25.433,-309.0,-206.0,997.0,3.0,-2.0,2.0,162,140,128,146,137
2025-02-26 15:10:25.436,-312.0,-204.0,966.0,2.0,-2.0,3.0,165,143,130,153,140
2025-02-26 15:10:25.446,-314.0,-195.0,982.0,3.0,-2.0,3.0,161,144,129,151,138
2025-02-26 15:10:25.448,-310.0,-184.0,973.0,3.0,-2.0,2.0,164,142,128,152,139
2025-02-26 15:10:25.453,-313.0,-179.0,980.0,2.0,-2.0,2.0,166,144,130,154,141
2025-02-26 15:10:25.458,-315.0,-176.0,982.0,1.0,-2.0,2.0,163,143,130,154,140
2025-02-26 15:10:25.465,-317.0,-176.0,994.0,1.0,-2.0,2.0,162,140,127,150,137
2025-02-26 15:10:25.470,-318.0,-178.0,985.0,-1.0,-2.0,2.0,159,141,129,151,138
2025-02-26 15:10:25.474,-320.0,-175.0,993.0,-2.0,-1.0,1.0,165,144,131,154,141
2025-02-26 15:10:25.479,-315.0,-181.0,986.0,-2.0,0.0,1.0,164,143,129,151,140
2025-02-26 15:10:25.486,-311.0,-187.0,978.0,-2.0,-1.0,1.0,161,139,126,150,137
2025-02-26 15:10:25.490,-316.0,-199.0,986.0,-1.0,0.0,1.0,162,142,128,152,140
2025-02-26 15:10:25.495,-316.0,-202.0,979.0,1.0,0.0,2.0,166,141,132,154,141
2025-02-26 15:10:25.499,-316.0,-206.0,983.0,2.0,0.0,3.0,155,139,128,154,138
2025-02-26 15:10:25.503,-319.0,-207.0,983.0,4.0,1.0,3.0,160,139,125,149,136
2025-02-26 15:10:25.510,-312.0,-205.0,991.0,6.0,1.0,3.0,165,145,133,155,141
2025-02-26 15:10:25.515,-314.0,-189.0,983.0,7.0,2.0,4.0,164,142,130,153,141
2025-02-26 15:10:25.519,-306.0,-183.0,983.0,7.0,2.0,4.0,162,139,126,149,138
2025-02-26 15:10:25.523,-308.0,-163.0,986.0,7.0,2.0,4.0,163,143,130,153,140
2025-02-26 15:10:25.528,-312.0,-172.0,999.0,6.0,3.0,4.0,164,143,130,153,140
2025-02-26 15:10:25.536,-306.0,-164.0,985.0,5.0,3.0,3.0,160,140,129,151,138
2025-02-26 15:10:25.539,-313.0,-158.0,976.0,4.0,3.0,3.0,162,142,129,152,141
2025-02-26 15:10:25.544,-304.0,-153.0,981.0,3.0,2.0,2.0,162,141,129,152,138
2025-02-26 15:10:25.547,-314.0,-155.0,986.0,2.0,2.0,2.0,162,141,127,152,137
2025-02-26 15:10:25.553,-310.0,-154.0,986.0,1.0,2.0,1.0,164,144,131,154,141
2025-02-26 15:10:25.560,-307.0,-162.0,972.0,0.0,1.0,1.0,162,141,129,153,140
2025-02-26 15:10:25.564,-308.0,-161.0,974.0,0.0,1.0,1.0,163,140,126,150,136
2025-02-26 15:10:25.568,-309.0,-167.0,969.0,-1.0,1.0,1.0,165,144,132,155,141
2025-02-26 15:10:25.577,-307.0,-165.0,975.0,-2.0,2.0,1.0,165,143,130,155,141
2025-02-26 15:10:25.580,-312.0,-172.0,970.0,-2.0,2.0,2.0,161,140,126,150,138
2025-02-26 15:10:25.584,-313.0,-175.0,959.0,-2.0,2.0,2.0,160,139,125,149,136
2025-02-26 15:10:25.589,-310.0,-179.0,956.0,-1.0,2.0,2.0,165,144,132,155,141
2025-02-26 15:10:25.593,-312.0,-184.0,951.0,-1.0,3.0,2.0,163,142,130,153,140
2025-02-26 15:10:25.601,-314.0,-180.0,945.0,-1.0,3.0,2.0,158,136,126,151,133
2025-02-26 15:10:25.605,-319.0,-185.0,929.0,0.0,2.0,2.0,163,143,130,153,141
2025-02-26 15:10:25.608,-326.0,-183.0,924.0,0.0,2.0,2.0,165,147,131,154,139
2025-02-26 15:10:25.614,-322.0,-179.0,914.0,1.0,2.0,2.0,160,141,128,151,139
2025-02-26 15:10:25.621,-334.0,-175.0,905.0,1.0,2.0,2.0,164,143,134,153,141
2025-02-26 15:10:25.625,-337.0,-182.0,911.0,1.0,1.0,2.0,163,142,130,153,141
2025-02-26 15:10:25.629,-338.0,-184.0,906.0,2.0,1.0,1.0,165,141,129,152,140
2025-02-26 15:10:25.634,-342.0,-183.0,905.0,2.0,0.0,1.0,160,141,126,150,137
2025-02-26 15:10:25.638,-336.0,-182.0,901.0,1.0,0.0,0.0,164,141,129,155,139
2025-02-26 15:10:25.646,-334.0,-175.0,894.0,2.0,0.0,0.0,158,139,125,149,136
2025-02-26 15:10:25.650,-344.0,-183.0,909.0,2.0,0.0,-1.0,160,139,125,150,137
2025-02-26 15:10:25.654,-342.0,-185.0,899.0,2.0,-1.0,-1.0,161,142,129,152,140
2025-02-26 15:10:25.659,-340.0,-179.0,911.0,4.0,-2.0,-2.0,163,145,134,154,145
2025-02-26 15:10:25.666,-336.0,-188.0,910.0,5.0,-2.0,-3.0,162,142,129,150,139
2025-02-26 15:10:25.670,-332.0,-185.0,924.0,6.0,-3.0,-3.0,166,151,136,159,149
2025-02-26 15:10:25.675,-326.0,-192.0,911.0,7.0,-3.0,-4.0,169,149,135,160,147
2025-02-26 15:10:25.679,-322.0,-194.0,931.0,7.0,-3.0,-5.0,169,150,135,162,146
2025-02-26 15:10:25.686,-327.0,-193.0,943.0,6.0,-3.0,-5.0,166,145,130,155,141
2025-02-26 15:10:25.692,-328.0,-190.0,952.0,5.0,-3.0,-5.0,170,149,136,158,145
2025-02-26 15:10:25.695,-318.0,-196.0,938.0,4.0,-4.0,-6.0,172,151,141,163,148
2025-02-26 15:10:25.700,-313.0,-204.0,960.0,3.0,-4.0,-6.0,170,149,135,159,148
2025-02-26 15:10:25.704,-305.0,-193.0,953.0,2.0,-4.0,-7.0,166,147,132,156,145
2025-02-26 15:10:25.712,-307.0,-199.0,959.0,0.0,-4.0,-7.0,167,147,133,157,144
2025-02-26 15:10:25.716,-299.0,-200.0,957.0,-1.0,-4.0,-7.0,166,146,133,154,140
2025-02-26 15:10:25.720,-295.0,-204.0,959.0,-2.0,-5.0,-7.0,162,141,129,152,139
2025-02-26 15:10:25.728,-293.0,-211.0,960.0,-3.0,-4.0,-7.0,164,143,131,154,139
2025-02-26 15:10:25.732,-289.0,-210.0,957.0,-5.0,-4.0,-7.0,165,143,131,156,141
2025-02-26 15:10:25.736,-294.0,-220.0,964.0,-6.0,-4.0,-7.0,163,142,130,152,140
2025-02-26 15:10:25.744,-286.0,-225.0,955.0,-6.0,-4.0,-6.0,164,141,128,151,139
2025-02-26 15:10:25.748,-282.0,-235.0,953.0,-6.0,-5.0,-6.0,161,142,130,153,139
2025-02-26 15:10:25.752,-283.0,-224.0,951.0,-6.0,-4.0,-6.0,162,140,128,151,138
2025-02-26 15:10:25.757,-275.0,-240.0,960.0,-7.0,-3.0,-6.0,163,139,128,151,138
2025-02-26 15:10:25.765,-276.0,-238.0,960.0,-6.0,-3.0,-5.0,160,140,127,149,138
2025-02-26 15:10:25.769,-279.0,-243.0,973.0,-6.0,-3.0,-4.0,161,139,126,150,137
2025-02-26 15:10:25.773,-273.0,-233.0,975.0,-4.0,-3.0,-3.0,159,137,125,147,135
2025-02-26 15:10:25.780,-282.0,-242.0,976.0,-4.0,-3.0,-2.0,162,141,130,150,139
2025-02-26 15:10:25.786,-280.0,-229.0,993.0,-4.0,-3.0,-1.0,162,142,130,153,140
2025-02-26 15:10:25.790,-281.0,-217.0,1014.0,-4.0,-3.0,0.0,163,143,130,153,140
2025-02-26 15:10:25.794,-285.0,-203.0,1035.0,-5.0,-3.0,0.0,163,144,132,154,141
2025-02-26 15:10:25.802,-283.0,-193.0,1053.0,-6.0,-2.0,0.0,168,147,134,156,144
2025-02-26 15:10:25.806,-281.0,-169.0,1063.0,-8.0,0.0,0.0,166,147,139,159,147
2025-02-26 15:10:25.810,-284.0,-162.0,1084.0,-11.0,4.0,-1.0,168,150,136,159,146
2025-02-26 15:10:25.814,-282.0,-139.0,1099.0,-16.0,6.0,-1.0,173,153,141,163,149
2025-02-26 15:10:25.823,-297.0,-158.0,1047.0,-21.0,8.0,-1.0,175,155,140,164,151
2025-02-26 15:10:25.827,-309.0,-182.0,1067.0,-23.0,11.0,-2.0,183,162,148,172,158
2025-02-26 15:10:25.831,-306.0,-175.0,1059.0,-23.0,15.0,-3.0,181,162,149,172,160
2025-02-26 15:10:25.837,-331.0,-205.0,980.0,-26.0,13.0,-3.0,181,161,148,170,158
2025-02-26 15:10:25.843,-325.0,-210.0,1027.0,-28.0,15.0,-4.0,178,157,144,167,155
2025-02-26 15:10:25.847,-318.0,-232.0,958.0,-25.0,14.0,-4.0,184,165,152,174,162
2025-02-26 15:10:25.854,-331.0,-244.0,956.0,-17.0,13.0,-4.0,185,167,154,177,164
2025-02-26 15:10:25.859,-329.0,-251.0,923.0,-15.0,12.0,-3.0,187,168,156,177,165
2025-02-26 15:10:25.864,-328.0,-270.0,945.0,-14.0,13.0,-2.0,187,167,154,176,164
2025-02-26 15:10:25.871,-321.0,-283.0,900.0,-11.0,12.0,-1.0,184,164,151,178,163
2025-02-26 15:10:25.875,-316.0,-271.0,877.0,-8.0,10.0,0.0,179,160,147,171,159
2025-02-26 15:10:25.879,-319.0,-241.0,919.0,-2.0,10.0,0.0,185,160,153,176,165
2025-02-26 15:10:25.884,-327.0,-263.0,930.0,0.0,11.0,1.0,183,163,150,173,160
2025-02-26 15:10:25.887,-319.0,-262.0,905.0,1.0,10.0,1.0,182,160,148,171,158
2025-02-26 15:10:25.896,-328.0,-232.0,906.0,4.0,9.0,1.0,185,164,152,175,162
2025-02-26 15:10:25.901,-336.0,-235.0,895.0,5.0,6.0,2.0,184,163,150,173,160
2025-02-26 15:10:25.905,-330.0,-233.0,929.0,6.0,7.0,1.0,179,158,146,169,156
2025-02-26 15:10:25.908,-335.0,-232.0,887.0,7.0,4.0,1.0,182,160,148,170,156
2025-02-26 15:10:25.916,-335.0,-219.0,913.0,10.0,3.0,2.0,185,164,151,173,162
2025-02-26 15:10:25.920,-340.0,-222.0,856.0,7.0,1.0,2.0,175,152,143,165,158
2025-02-26 15:10:25.923,-322.0,-213.0,870.0,8.0,-1.0,2.0,174,155,141,166,152
2025-02-26 15:10:25.929,-335.0,-208.0,922.0,8.0,-1.0,2.0,179,159,147,170,157
2025-02-26 15:10:25.936,-332.0,-229.0,920.0,7.0,-2.0,3.0,176,156,144,166,155
2025-02-26 15:10:25.941,-326.0,-211.0,943.0,8.0,-1.0,3.0,171,152,142,163,151
2025-02-26 15:10:25.945,-328.0,-217.0,936.0,8.0,-2.0,3.0,175,156,145,168,155
2025-02-26 15:10:25.950,-314.0,-208.0,952.0,8.0,-1.0,3.0,176,159,145,170,157
2025-02-26 15:10:25.953,-318.0,-219.0,953.0,8.0,-1.0,3.0,173,153,141,162,151
2025-02-26 15:10:25.961,-318.0,-201.0,946.0,10.0,-1.0,3.0,168,142,137,160,146
2025-02-26 15:10:25.966,-316.0,-205.0,964.0,10.0,-2.0,3.0,174,155,143,166,153
2025-02-26 15:10:25.970,-327.0,-187.0,949.0,9.0,-1.0,3.0,174,154,140,161,152
2025-02-26 15:10:25.974,-326.0,-197.0,954.0,9.0,-1.0,3.0,171,151,139,162,148
2025-02-26 15:10:25.981,-327.0,-196.0,966.0,8.0,-2.0,3.0,173,153,144,164,151
2025-02-26 15:10:25.986,-319.0,-182.0,954.0,8.0,-2.0,3.0,173,153,141,163,152
2025-02-26 15:10:25.990,-312.0,-185.0,968.0,9.0,-3.0,2.0,181,152,139,162,149
2025-02-26 15:10:25.994,-322.0,-197.0,962.0,5.0,-3.0,2.0,171,151,140,161,148
2025-02-26 15:10:26.002,-310.0,-182.0,973.0,5.0,-3.0,1.0,178,153,140,167,151
2025-02-26 15:10:26.007,-337.0,-209.0,976.0,3.0,-3.0,1.0,173,151,138,162,147
2025-02-26 15:10:26.011,-318.0,-194.0,957.0,3.0,-3.0,0.0,169,147,136,159,146
2025-02-26 15:10:26.013,-317.0,-185.0,974.0,3.0,-4.0,0.0,172,153,140,163,149
2025-02-26 15:10:26.022,-320.0,-200.0,967.0,3.0,-4.0,0.0,169,151,138,161,148
2025-02-26 15:10:26.025,-317.0,-184.0,969.0,3.0,-4.0,1.0,167,148,134,158,145
2025-02-26 15:10:26.031,-318.0,-195.0,964.0,2.0,-3.0,0.0,173,149,137,159,147
2025-02-26 15:10:26.036,-318.0,-197.0,964.0,2.0,-4.0,1.0,175,155,141,165,152
2025-02-26 15:10:26.040,-317.0,-192.0,961.0,1.0,-4.0,1.0,175,155,141,164,152
2025-02-26 15:10:26.048,-309.0,-181.0,960.0,1.0,-4.0,1.0,169,150,138,161,149
2025-02-26 15:10:26.052,-315.0,-176.0,957.0,1.0,-4.0,1.0,178,159,146,168,156
2025-02-26 15:10:26.056,-314.0,-168.0,973.0,0.0,-4.0,1.0,181,161,147,170,156
2025-02-26 15:10:26.060,-312.0,-172.0,963.0,0.0,-3.0,1.0,190,171,157,180,168
2025-02-26 15:10:26.068,-311.0,-199.0,965.0,0.0,-3.0,0.0,188,170,157,180,168
2025-02-26 15:10:26.072,-315.0,-185.0,953.0,-1.0,-2.0,0.0,190,172,157,181,168
2025-02-26 15:10:26.077,-315.0,-189.0,959.0,0.0,-2.0,0.0,187,167,153,177,165
2025-02-26 15:10:26.080,-319.0,-186.0,950.0,0.0,-2.0,0.0,182,162,150,174,159
2025-02-26 15:10:26.088,-316.0,-202.0,939.0,0.0,-1.0,0.0,187,168,155,178,161
2025-02-26 15:10:26.093,-322.0,-191.0,947.0,0.0,-1.0,0.0,187,167,154,176,163
2025-02-26 15:10:26.097,-311.0,-201.0,937.0,1.0,-1.0,0.0,181,164,151,173,160
2025-02-26 15:10:26.101,-312.0,-200.0,941.0,1.0,-2.0,0.0,184,165,149,171,160
2025-02-26 15:10:26.109,-316.0,-202.0,936.0,1.0,-2.0,1.0,193,174,160,182,171
2025-02-26 15:10:26.113,-317.0,-202.0,946.0,1.0,-2.0,1.0,188,169,156,179,167
2025-02-26 15:10:26.118,-311.0,-206.0,938.0,3.0,-2.0,1.0,182,163,150,172,160
2025-02-26 15:10:26.121,-322.0,-216.0,918.0,3.0,-3.0,2.0,188,167,154,178,165
2025-02-26 15:10:26.126,-311.0,-204.0,945.0,2.0,-3.0,1.0,193,175,157,181,168
2025-02-26 15:10:26.134,-301.0,-200.0,940.0,3.0,-3.0,1.0,182,163,151,175,162
2025-02-26 15:10:26.138,-320.0,-200.0,963.0,5.0,-3.0,1.0,180,161,149,172,159
2025-02-26 15:10:26.141,-305.0,-191.0,960.0,2.0,-2.0,2.0,184,166,153,176,163
2025-02-26 15:10:26.147,-309.0,-186.0,928.0,5.0,-3.0,2.0,187,171,155,176,164
2025-02-26 15:10:26.154,-305.0,-195.0,960.0,5.0,-3.0,2.0,182,162,149,172,160
2025-02-26 15:10:26.159,-308.0,-198.0,970.0,5.0,-4.0,2.0,186,166,153,175,163
2025-02-26 15:10:26.162,-300.0,-179.0,953.0,6.0,-4.0,3.0,183,165,151,173,161
2025-02-26 15:10:26.167,-310.0,-182.0,964.0,6.0,-4.0,3.0,184,164,149,175,163
2025-02-26 15:10:26.174,-310.0,-184.0,956.0,6.0,-4.0,3.0,187,167,153,177,163
2025-02-26 15:10:26.179,-313.0,-179.0,967.0,8.0,-4.0,3.0,187,166,152,176,164
2025-02-26 15:10:26.183,-302.0,-182.0,977.0,7.0,-3.0,2.0,181,164,150,172,158
2025-02-26 15:10:26.187,-308.0,-169.0,976.0,8.0,-2.0,3.0,185,164,151,175,161
2025-02-26 15:10:26.195,-321.0,-175.0,970.0,8.0,-2.0,2.0,186,166,152,175,162
2025-02-26 15:10:26.199,-311.0,-163.0,991.0,7.0,-2.0,2.0,180,163,149,172,159
2025-02-26 15:10:26.203,-312.0,-161.0,979.0,7.0,-1.0,3.0,179,160,148,171,157
2025-02-26 15:10:26.208,-321.0,-154.0,977.0,5.0,-1.0,2.0,186,166,153,177,165
2025-02-26 15:10:26.222,-323.0,-142.0,961.0,5.0,-1.0,2.0,184,164,149,174,158
2025-02-26 15:10:26.225,-324.0,-164.0,983.0,4.0,-1.0,2.0,180,160,146,170,159
2025-02-26 15:10:26.227,-318.0,-150.0,960.0,4.0,-1.0,2.0,178,158,148,171,157
2025-02-26 15:10:26.229,-319.0,-157.0,966.0,4.0,-1.0,1.0,186,166,152,175,162
2025-02-26 15:10:26.233,-324.0,-157.0,969.0,3.0,-1.0,2.0,184,162,148,172,159
2025-02-26 15:10:26.238,-325.0,-161.0,969.0,3.0,-1.0,2.0,178,157,145,167,155
2025-02-26 15:10:26.244,-323.0,-164.0,964.0,4.0,-2.0,2.0,183,164,150,172,164
2025-02-26 15:10:26.248,-321.0,-156.0,959.0,3.0,-2.0,2.0,185,164,152,176,162
2025-02-26 15:10:26.250,-316.0,-152.0,948.0,4.0,-2.0,2.0,180,159,147,169,157
2025-02-26 15:10:26.260,-328.0,-164.0,959.0,3.0,-2.0,2.0,178,157,144,166,153
2025-02-26 15:10:26.264,-321.0,-170.0,953.0,5.0,-2.0,2.0,184,162,149,172,159
2025-02-26 15:10:26.268,-317.0,-165.0,965.0,5.0,-1.0,3.0,184,164,151,172,159
2025-02-26 15:10:26.273,-325.0,-176.0,957.0,7.0,-1.0,3.0,178,158,145,168,155
2025-02-26 15:10:26.278,-317.0,-191.0,965.0,8.0,0.0,3.0,182,159,149,171,158
2025-02-26 15:10:26.285,-314.0,-169.0,953.0,9.0,0.0,4.0,179,160,149,171,159
2025-02-26 15:10:26.289,-323.0,-159.0,964.0,10.0,0.0,4.0,177,157,147,169,156
2025-02-26 15:10:26.292,-318.0,-173.0,981.0,10.0,1.0,4.0,180,162,149,172,160
2025-02-26 15:10:26.298,-324.0,-157.0,929.0,11.0,0.0,3.0,181,162,148,173,159
2025-02-26 15:10:26.305,-327.0,-164.0,950.0,11.0,-1.0,3.0,176,157,145,167,153
2025-02-26 15:10:26.310,-333.0,-150.0,955.0,11.0,-1.0,3.0,175,157,146,169,157
2025-02-26 15:10:26.314,-328.0,-157.0,944.0,11.0,-1.0,2.0,182,162,150,173,159
2025-02-26 15:10:26.318,-332.0,-147.0,957.0,10.0,-2.0,3.0,183,163,150,172,157
2025-02-26 15:10:26.326,-337.0,-140.0,936.0,10.0,-2.0,3.0,177,156,144,168,155
2025-02-26 15:10:26.330,-334.0,-162.0,944.0,9.0,-2.0,3.0,178,160,145,167,155
2025-02-26 15:10:26.335,-340.0,-142.0,941.0,10.0,-3.0,3.0,184,163,150,172,159
2025-02-26 15:10:26.338,-334.0,-167.0,975.0,10.0,-3.0,3.0,179,158,146,170,156
2025-02-26 15:10:26.346,-333.0,-152.0,978.0,9.0,-3.0,3.0,177,157,143,167,156
2025-02-26 15:10:26.351,-328.0,-130.0,974.0,9.0,-4.0,3.0,181,163,149,171,156
2025-02-26 15:10:26.355,-339.0,-136.0,981.0,7.0,-5.0,2.0,181,161,149,173,160
2025-02-26 15:10:26.359,-328.0,-125.0,1000.0,6.0,-5.0,2.0,178,157,143,167,155
2025-02-26 15:10:26.367,-338.0,-121.0,989.0,3.0,-5.0,1.0,177,155,143,165,154
2025-02-26 15:10:26.369,-331.0,-117.0,993.0,1.0,-5.0,1.0,181,164,151,172,160
2025-02-26 15:10:26.376,-322.0,-125.0,995.0,1.0,-4.0,0.0,179,161,148,172,159
2025-02-26 15:10:26.379,-332.0,-124.0,985.0,-1.0,-4.0,-1.0,176,157,145,168,154
2025-02-26 15:10:26.387,-324.0,-136.0,988.0,-2.0,-3.0,-1.0,173,155,141,165,154
2025-02-26 15:10:26.388,-322.0,-147.0,995.0,-3.0,-2.0,-1.0,182,162,149,172,160
2025-02-26 15:10:26.395,-313.0,-159.0,979.0,-2.0,-1.0,-2.0,179,161,148,169,158
2025-02-26 15:10:26.400,-313.0,-167.0,968.0,-1.0,-1.0,-1.0,176,158,144,165,155
2025-02-26 15:10:26.408,-321.0,-172.0,970.0,0.0,0.0,-2.0,181,162,149,172,159
2025-02-26 15:10:26.412,-314.0,-165.0,960.0,1.0,0.0,-1.0,182,162,148,169,159
2025-02-26 15:10:26.417,-306.0,-167.0,961.0,2.0,0.0,-1.0,178,159,146,169,155
2025-02-26 15:10:26.421,-306.0,-164.0,963.0,2.0,0.0,-1.0,177,157,145,168,154
2025-02-26 15:10:26.429,-305.0,-152.0,958.0,2.0,-1.0,-1.0,185,163,151,173,161
2025-02-26 15:10:26.431,-316.0,-146.0,958.0,1.0,-1.0,-1.0,181,160,148,171,160
2025-02-26 15:10:26.437,-316.0,-153.0,960.0,0.0,-2.0,-2.0,179,158,148,172,159
2025-02-26 15:10:26.441,-311.0,-146.0,964.0,-2.0,-2.0,-2.0,175,156,143,166,154
2025-02-26 15:10:26.449,-312.0,-154.0,943.0,-3.0,-2.0,-2.0,182,163,150,173,161
2025-02-26 15:10:26.453,-312.0,-169.0,949.0,-3.0,-3.0,-2.0,182,160,149,171,158
2025-02-26 15:10:26.457,-304.0,-164.0,953.0,-3.0,-3.0,-2.0,178,160,145,170,157
2025-02-26 15:10:26.461,-310.0,-176.0,950.0,-3.0,-3.0,-1.0,175,158,145,166,153
2025-02-26 15:10:26.469,-304.0,-179.0,948.0,-3.0,-3.0,-1.0,177,156,145,167,156
2025-02-26 15:10:26.474,-307.0,-184.0,955.0,-2.0,-3.0,-1.0,184,161,148,171,157
2025-02-26 15:10:26.478,-305.0,-179.0,952.0,-1.0,-3.0,-1.0,178,158,146,169,156
2025-02-26 15:10:26.486,-305.0,-178.0,953.0,0.0,-3.0,-1.0,176,156,144,168,154
2025-02-26 15:10:26.490,-310.0,-172.0,955.0,1.0,-3.0,-1.0,176,157,144,167,152
2025-02-26 15:10:26.494,-306.0,-169.0,960.0,1.0,-3.0,-1.0,180,160,147,172,159
2025-02-26 15:10:26.499,-310.0,-168.0,967.0,1.0,-3.0,-1.0,176,158,146,169,155
2025-02-26 15:10:26.506,-308.0,-160.0,959.0,1.0,-2.0,-1.0,176,157,144,169,155
2025-02-26 15:10:26.511,-308.0,-167.0,967.0,1.0,-2.0,-1.0,177,157,147,166,153
2025-02-26 15:10:26.515,-305.0,-167.0,970.0,2.0,-2.0,-1.0,180,160,148,171,158
2025-02-26 15:10:26.519,-309.0,-168.0,963.0,2.0,-3.0,-1.0,177,158,147,169,156
2025-02-26 15:10:26.527,-310.0,-168.0,966.0,2.0,-2.0,0.0,174,155,142,167,153
2025-02-26 15:10:26.528,-315.0,-176.0,964.0,2.0,-3.0,0.0,180,160,147,170,159
2025-02-26 15:10:26.533,-313.0,-169.0,972.0,2.0,-3.0,0.0,179,160,147,170,158
2025-02-26 15:10:26.540,-314.0,-169.0,969.0,1.0,-3.0,1.0,176,154,143,166,153
2025-02-26 15:10:26.547,-312.0,-167.0,969.0,1.0,-3.0,0.0,175,155,143,166,153
2025-02-26 15:10:26.551,-309.0,-167.0,969.0,1.0,-4.0,1.0,180,161,149,172,159
2025-02-26 15:10:26.553,-311.0,-161.0,971.0,0.0,-4.0,1.0,178,159,145,169,156
2025-02-26 15:10:26.560,-308.0,-167.0,977.0,0.0,-4.0,1.0,175,154,142,164,153
2025-02-26 15:10:26.567,-305.0,-166.0,980.0,0.0,-4.0,1.0,181,160,147,171,157
2025-02-26 15:10:26.571,-306.0,-164.0,981.0,0.0,-4.0,1.0,180,161,149,172,159
2025-02-26 15:10:26.576,-308.0,-162.0,982.0,0.0,-4.0,1.0,177,156,143,167,153
2025-02-26 15:10:26.581,-310.0,-165.0,987.0,0.0,-3.0,2.0,172,154,142,165,153
2025-02-26 15:10:26.588,-313.0,-159.0,985.0,0.0,-3.0,2.0,183,163,151,173,162
2025-02-26 15:10:26.592,-314.0,-165.0,991.0,1.0,-3.0,2.0,179,158,146,168,157
2025-02-26 15:10:26.597,-311.0,-158.0,988.0,0.0,-2.0,1.0,176,154,141,165,152
2025-02-26 15:10:26.601,-310.0,-156.0,990.0,1.0,-2.0,1.0,177,160,149,169,157
2025-02-26 15:10:26.605,-312.0,-154.0,996.0,1.0,-2.0,1.0,184,163,150,174,162
2025-02-26 15:10:26.613,-314.0,-150.0,995.0,1.0,-1.0,1.0,176,156,145,167,154
2025-02-26 15:10:26.617,-312.0,-151.0,988.0,1.0,-1.0,1.0,176,155,142,166,153
2025-02-26 15:10:26.621,-316.0,-148.0,993.0,0.0,-1.0,1.0,181,159,148,168,157
2025-02-26 15:10:26.626,-315.0,-141.0,989.0,0.0,-1.0,1.0,183,163,150,172,161
2025-02-26 15:10:26.634,-312.0,-142.0,991.0,-1.0,-1.0,1.0,177,156,144,167,153
2025-02-26 15:10:26.638,-313.0,-141.0,997.0,-2.0,-1.0,1.0,182,160,146,170,157
2025-02-26 15:10:26.641,-318.0,-144.0,983.0,-2.0,-1.0,1.0,179,159,148,170,157
2025-02-26 15:10:26.647,-313.0,-146.0,992.0,-2.0,-1.0,0.0,178,159,146,171,157
2025-02-26 15:10:26.653,-317.0,-143.0,991.0,-3.0,-1.0,0.0,177,157,144,168,156
2025-02-26 15:10:26.655,-317.0,-148.0,982.0,-3.0,0.0,0.0,179,160,147,171,158
2025-02-26 15:10:26.660,-319.0,-154.0,983.0,-2.0,0.0,0.0,178,159,148,170,156
2025-02-26 15:10:26.666,-313.0,-154.0,985.0,-2.0,0.0,0.0,178,158,146,169,156
2025-02-26 15:10:26.672,-310.0,-157.0,981.0,-2.0,1.0,0.0,181,160,147,169,158
2025-02-26 15:10:26.678,-312.0,-153.0,978.0,-1.0,0.0,0.0,179,158,147,169,157
2025-02-26 15:10:26.679,-311.0,-161.0,975.0,-1.0,1.0,1.0,177,158,143,166,153
2025-02-26 15:10:26.687,-318.0,-155.0,970.0,0.0,0.0,1.0,178,158,146,168,157
2025-02-26 15:10:26.691,-313.0,-158.0,977.0,0.0,0.0,1.0,180,161,148,171,159
2025-02-26 15:10:26.699,-308.0,-157.0,970.0,0.0,0.0,1.0,178,159,146,171,157
2025-02-26 15:10:26.703,-306.0,-149.0,978.0,-1.0,0.0,1.0,174,155,144,166,153
2025-02-26 15:10:26.707,-309.0,-144.0,975.0,-1.0,0.0,1.0,181,162,150,173,161
2025-02-26 15:10:26.711,-318.0,-147.0,985.0,-1.0,0.0,1.0,179,161,148,170,157
2025-02-26 15:10:26.719,-304.0,-151.0,977.0,-2.0,0.0,1.0,179,157,141,167,153
2025-02-26 15:10:26.723,-311.0,-147.0,979.0,-2.0,0.0,1.0,176,157,145,167,154
2025-02-26 15:10:26.727,-312.0,-146.0,976.0,-3.0,0.0,1.0,180,160,149,173,160
2025-02-26 15:10:26.732,-310.0,-149.0,973.0,-3.0,0.0,1.0,176,159,146,169,157
2025-02-26 15:10:26.739,-313.0,-142.0,976.0,-2.0,0.0,1.0,177,156,146,167,153
2025-02-26 15:10:26.744,-306.0,-140.0,975.0,-3.0,0.0,1.0,182,163,149,173,161
2025-02-26 15:10:26.745,-306.0,-144.0,970.0,-3.0,1.0,0.0,180,162,151,172,159
2025-02-26 15:10:26.752,-308.0,-143.0,972.0,-3.0,1.0,0.0,179,158,147,168,155
2025-02-26 15:10:26.758,-310.0,-145.0,967.0,-3.0,1.0,0.0,178,161,150,171,158
2025-02-26 15:10:26.764,-312.0,-145.0,969.0,-3.0,2.0,0.0,181,161,150,174,160
2025-02-26 15:10:26.768,-307.0,-143.0,961.0,-3.0,2.0,0.0,178,158,145,169,157
2025-02-26 15:10:26.773,-311.0,-146.0,961.0,-3.0,1.0,0.0,179,159,146,171,158
2025-02-26 15:10:26.776,-307.0,-153.0,953.0,-3.0,1.0,0.0,182,163,149,171,158
2025-02-26 15:10:26.785,-316.0,-143.0,947.0,-3.0,1.0,0.0,180,161,145,169,159
2025-02-26 15:10:26.789,-310.0,-141.0,938.0,-3.0,0.0,0.0,181,155,149,172,165
2025-02-26 15:10:26.793,-318.0,-149.0,938.0,-2.0,0.0,0.0,184,165,152,176,163
2025-02-26 15:10:26.794,-321.0,-154.0,947.0,-2.0,-1.0,0.0,184,166,152,177,163
2025-02-26 15:10:26.805,-322.0,-150.0,946.0,-2.0,-1.0,0.0,180,161,150,171,160
2025-02-26 15:10:26.806,-316.0,-149.0,948.0,-2.0,-1.0,0.0,186,163,148,177,160
2025-02-26 15:10:26.813,-315.0,-158.0,944.0,-1.0,-1.0,0.0,186,166,153,175,163
2025-02-26 15:10:26.818,-314.0,-151.0,951.0,-1.0,-1.0,1.0,185,158,152,176,159
2025-02-26 15:10:26.826,-313.0,-149.0,953.0,0.0,-1.0,1.0,185,164,153,174,161
2025-02-26 15:10:26.830,-316.0,-149.0,956.0,0.0,-1.0,1.0,181,163,147,172,158
2025-02-26 15:10:26.831,-318.0,-144.0,952.0,0.0,-1.0,1.0,192,172,159,181,170
2025-02-26 15:10:26.839,-317.0,-143.0,957.0,0.0,-1.0,1.0,189,172,154,180,169
2025-02-26 15:10:26.842,-319.0,-146.0,949.0,0.0,-1.0,1.0,189,169,156,180,167
2025-02-26 15:10:26.850,-315.0,-142.0,948.0,0.0,-1.0,0.0,192,172,166,184,171
2025-02-26 15:10:26.854,-328.0,-137.0,955.0,-1.0,-1.0,0.0,191,174,160,182,170
2025-02-26 15:10:26.859,-327.0,-145.0,949.0,-1.0,-2.0,0.0,187,167,157,180,165
2025-02-26 15:10:26.867,-324.0,-144.0,948.0,-1.0,-2.0,0.0,186,167,155,176,165
2025-02-26 15:10:26.871,-326.0,-146.0,958.0,-2.0,-2.0,0.0,194,173,161,183,170
2025-02-26 15:10:26.875,-323.0,-142.0,954.0,-1.0,-2.0,0.0,189,169,156,179,167
2025-02-26 15:10:26.879,-323.0,-148.0,953.0,-1.0,-2.0,0.0,184,163,151,173,161
2025-02-26 15:10:26.887,-323.0,-149.0,958.0,-1.0,-2.0,0.0,180,163,152,174,160
2025-02-26 15:10:26.892,-316.0,-147.0,959.0,0.0,-2.0,0.0,187,168,159,179,166
2025-02-26 15:10:26.895,-321.0,-148.0,960.0,0.0,-2.0,0.0,187,166,154,175,163
2025-02-26 15:10:26.897,-323.0,-145.0,961.0,0.0,-2.0,0.0,180,162,148,172,159
2025-02-26 15:10:26.907,-319.0,-144.0,963.0,1.0,-2.0,0.0,192,170,158,180,169
2025-02-26 15:10:26.909,-321.0,-140.0,963.0,1.0,-2.0,0.0,187,168,157,178,166
2025-02-26 15:10:26.916,-323.0,-136.0,964.0,1.0,-2.0,0.0,182,161,149,172,160
2025-02-26 15:10:26.920,-319.0,-131.0,975.0,1.0,-2.0,0.0,178,160,146,171,157
2025-02-26 15:10:26.927,-320.0,-136.0,974.0,1.0,-2.0,0.0,189,171,158,181,169
2025-02-26 15:10:26.932,-321.0,-131.0,969.0,1.0,-2.0,-1.0,187,166,154,177,165
2025-02-26 15:10:26.937,-320.0,-135.0,974.0,0.0,-2.0,-1.0,182,162,148,172,160
2025-02-26 15:10:26.941,-324.0,-133.0,979.0,0.0,-2.0,-1.0,186,166,153,176,164
2025-02-26 15:10:26.945,-319.0,-134.0,973.0,0.0,-2.0,-2.0,190,171,158,180,168
2025-02-26 15:10:26.952,-319.0,-141.0,985.0,0.0,-2.0,-1.0,185,164,152,176,163
2025-02-26 15:10:26.957,-318.0,-140.0,980.0,0.0,-2.0,-2.0,180,160,149,171,157
2025-02-26 15:10:26.961,-312.0,-145.0,988.0,-1.0,-2.0,-2.0,185,166,154,175,163
2025-02-26 15:10:26.968,-311.0,-146.0,983.0,-1.0,-2.0,-2.0,187,169,155,177,165
2025-02-26 15:10:26.974,-313.0,-143.0,983.0,-1.0,-2.0,-2.0,184,165,152,175,162
2025-02-26 15:10:26.977,-309.0,-146.0,990.0,-1.0,-1.0,-2.0,180,160,148,171,159
2025-02-26 15:10:26.982,-307.0,-152.0,986.0,-1.0,-1.0,-2.0,185,164,153,174,162
2025-02-26 15:10:26.990,-311.0,-153.0,987.0,-1.0,-1.0,-2.0,187,169,154,177,165
2025-02-26 15:10:26.994,-299.0,-146.0,988.0,-1.0,-1.0,-2.0,183,164,151,173,161
2025-02-26 15:10:26.998,-301.0,-154.0,993.0,-1.0,-1.0,-2.0,181,163,152,174,159
2025-02-26 15:10:27.006,-299.0,-161.0,988.0,-1.0,0.0,-2.0,179,162,149,172,159
2025-02-26 15:10:27.009,-293.0,-158.0,987.0,-1.0,0.0,-2.0,186,166,153,178,165
2025-02-26 15:10:27.014,-294.0,-155.0,984.0,-1.0,1.0,-1.0,185,165,152,175,168
2025-02-26 15:10:27.018,-296.0,-159.0,982.0,-1.0,1.0,-1.0,182,163,145,173,160
2025-02-26 15:10:27.026,-296.0,-158.0,975.0,-1.0,1.0,-1.0,183,162,147,171,159
2025-02-26 15:10:27.030,-301.0,-158.0,974.0,-1.0,1.0,-1.0,192,169,155,181,167
2025-02-26 15:10:27.035,-301.0,-161.0,972.0,-2.0,1.0,-1.0,187,169,153,178,164
2025-02-26 15:10:27.039,-301.0,-158.0,967.0,-2.0,1.0,0.0,181,162,148,172,159
2025-02-26 15:10:27.042,-301.0,-153.0,960.0,-2.0,0.0,0.0,186,170,155,178,166
2025-02-26 15:10:27.051,-303.0,-155.0,961.0,-2.0,0.0,-1.0,187,167,154,177,164
2025-02-26 15:10:27.054,-305.0,-150.0,959.0,-2.0,0.0,0.0,181,163,148,172,160
2025-02-26 15:10:27.059,-306.0,-153.0,957.0,-2.0,0.0,-1.0,181,161,148,173,159
2025-02-26 15:10:27.067,-305.0,-157.0,956.0,-2.0,0.0,0.0,188,168,154,177,165
2025-02-26 15:10:27.072,-308.0,-150.0,950.0,-2.0,0.0,0.0,186,166,155,176,163
2025-02-26 15:10:27.075,-311.0,-154.0,952.0,-1.0,0.0,0.0,179,163,149,171,159
2025-02-26 15:10:27.078,-316.0,-153.0,948.0,-1.0,0.0,0.0,185,165,153,177,164
2025-02-26 15:10:27.084,-311.0,-149.0,945.0,-1.0,0.0,1.0,190,171,158,181,168
2025-02-26 15:10:27.091,-309.0,-146.0,944.0,0.0,0.0,0.0,183,163,151,173,161
2025-02-26 15:10:27.096,-313.0,-145.0,944.0,0.0,0.0,0.0,180,160,146,169,158
2025-02-26 15:10:27.100,-316.0,-141.0,941.0,0.0,0.0,0.0,187,165,153,177,163
2025-02-26 15:10:27.104,-315.0,-136.0,939.0,0.0,0.0,0.0,186,169,151,178,165
2025-02-26 15:10:27.109,-316.0,-134.0,938.0,0.0,0.0,0.0,184,163,149,172,160
2025-02-26 15:10:27.117,-314.0,-135.0,937.0,-1.0,0.0,0.0,186,166,153,177,164
2025-02-26 15:10:27.121,-318.0,-132.0,928.0,-1.0,0.0,0.0,184,164,150,174,161
2025-02-26 15:10:27.125,-320.0,-134.0,926.0,-1.0,-1.0,0.0,185,167,152,176,163
2025-02-26 15:10:27.130,-319.0,-134.0,917.0,-1.0,-1.0,0.0,186,166,154,178,163
2025-02-26 15:10:27.137,-318.0,-135.0,915.0,0.0,-2.0,0.0,186,165,153,175,164
2025-02-26 15:10:27.139,-326.0,-140.0,913.0,0.0,-2.0,-1.0,183,162,150,173,160
2025-02-26 15:10:27.146,-322.0,-137.0,913.0,1.0,-3.0,-1.0,187,166,153,176,164
2025-02-26 15:10:27.149,-322.0,-143.0,917.0,2.0,-4.0,-1.0,185,167,155,176,164
2025-02-26 15:10:27.158,-324.0,-139.0,918.0,3.0,-4.0,-1.0,185,166,154,176,163
2025-02-26 15:10:27.162,-323.0,-144.0,924.0,4.0,-5.0,-1.0,182,161,148,174,159
2025-02-26 15:10:27.166,-322.0,-134.0,934.0,5.0,-6.0,-1.0,184,164,151,175,163
2025-02-26 15:10:27.174,-320.0,-135.0,941.0,5.0,-6.0,-2.0,184,166,153,177,163
2025-02-26 15:10:27.178,-319.0,-137.0,951.0,5.0,-6.0,-2.0,184,165,152,176,164
2025-02-26 15:10:27.182,-317.0,-134.0,964.0,5.0,-6.0,-2.0,181,162,149,170,158
2025-02-26 15:10:27.186,-317.0,-137.0,973.0,5.0,-7.0,-2.0,181,161,150,173,160
2025-02-26 15:10:27.194,-314.0,-136.0,976.0,4.0,-7.0,-2.0,185,165,155,177,164
2025-02-26 15:10:27.198,-311.0,-141.0,983.0,4.0,-7.0,-2.0,185,164,151,174,162
2025-02-26 15:10:27.203,-312.0,-146.0,986.0,5.0,-7.0,-2.0,180,162,149,173,159
2025-02-26 15:10:27.207,-316.0,-156.0,1018.0,6.0,-8.0,-2.0,181,163,150,171,160
2025-02-26 15:10:27.215,-309.0,-148.0,1019.0,5.0,-7.0,-2.0,187,165,154,176,163
2025-02-26 15:10:27.219,-302.0,-144.0,1023.0,4.0,-6.0,-2.0,184,163,152,173,162
2025-02-26 15:10:27.223,-303.0,-146.0,1031.0,3.0,-6.0,-2.0,183,160,154,173,160
2025-02-26 15:10:27.227,-302.0,-145.0,1038.0,2.0,-4.0,-2.0,180,162,152,174,162
2025-02-26 15:10:27.236,-302.0,-151.0,1034.0,2.0,-3.0,-2.0,185,166,155,176,166
2025-02-26 15:10:27.238,-306.0,-148.0,1038.0,3.0,-3.0,-1.0,187,166,154,176,163
2025-02-26 15:10:27.244,-301.0,-152.0,1040.0,3.0,-2.0,-1.0,183,161,149,174,160
2025-02-26 15:10:27.250,-297.0,-152.0,1040.0,2.0,-1.0,-1.0,181,163,150,175,161
2025-02-26 15:10:27.256,-306.0,-150.0,1032.0,2.0,-1.0,-1.0,186,166,155,176,163
2025-02-26 15:10:27.260,-304.0,-152.0,1036.0,1.0,0.0,-1.0,187,166,153,175,162
2025-02-26 15:10:27.262,-304.0,-150.0,1034.0,1.0,1.0,-1.0,185,167,153,176,163
2025-02-26 15:10:27.272,-303.0,-147.0,1026.0,0.0,1.0,-1.0,182,161,149,174,160
2025-02-26 15:10:27.276,-299.0,-146.0,1021.0,-1.0,2.0,-1.0,186,166,154,176,164
2025-02-26 15:10:27.280,-299.0,-148.0,1019.0,-2.0,3.0,-1.0,187,165,152,178,163
2025-02-26 15:10:27.285,-298.0,-148.0,1012.0,-3.0,3.0,-1.0,189,170,157,181,167
2025-02-26 15:10:27.293,-305.0,-150.0,1005.0,-3.0,3.0,-1.0,182,162,150,173,160
2025-02-26 15:10:27.297,-300.0,-155.0,997.0,-4.0,3.0,0.0,183,166,153,175,161
2025-02-26 15:10:27.298,-301.0,-156.0,993.0,-5.0,3.0,0.0,185,166,154,175,163
2025-02-26 15:10:27.305,-304.0,-154.0,986.0,-5.0,3.0,0.0,185,164,152,174,163
2025-02-26 15:10:27.310,-306.0,-157.0,977.0,-5.0,3.0,0.0,182,162,149,173,160
2025-02-26 15:10:27.316,-305.0,-158.0,975.0,-5.0,2.0,0.0,186,167,153,175,163
2025-02-26 15:10:27.321,-302.0,-153.0,970.0,-5.0,2.0,0.0,185,166,151,174,160
2025-02-26 15:10:27.326,-304.0,-156.0,967.0,-5.0,2.0,0.0,182,164,150,174,161
2025-02-26 15:10:27.333,-306.0,-157.0,962.0,-5.0,2.0,0.0,185,166,155,177,165
2025-02-26 15:10:27.338,-306.0,-157.0,961.0,-4.0,1.0,0.0,185,166,154,176,163
2025-02-26 15:10:27.342,-307.0,-156.0,962.0,-4.0,1.0,0.0,181,161,147,172,159
2025-02-26 15:10:27.346,-304.0,-158.0,963.0,-3.0,1.0,-1.0,185,163,151,175,162
2025-02-26 15:10:27.354,-303.0,-160.0,963.0,-2.0,1.0,0.0,185,168,154,177,165
2025-02-26 15:10:27.358,-302.0,-156.0,966.0,-2.0,1.0,0.0,183,163,151,174,161
2025-02-26 15:10:27.363,-302.0,-154.0,968.0,-1.0,1.0,0.0,179,162,147,171,158
2025-02-26 15:10:27.366,-302.0,-151.0,975.0,-1.0,1.0,0.0,187,168,153,177,165
2025-02-26 15:10:27.371,-301.0,-151.0,979.0,-1.0,2.0,0.0,185,166,152,174,162
2025-02-26 15:10:27.378,-303.0,-149.0,974.0,0.0,2.0,0.0,178,160,147,169,157
2025-02-26 15:10:27.381,-306.0,-148.0,971.0,-1.0,2.0,0.0,178,157,145,167,155
2025-02-26 15:10:27.387,-305.0,-152.0,973.0,-2.0,2.0,0.0,184,164,153,175,163
2025-02-26 15:10:27.391,-305.0,-149.0,975.0,-2.0,2.0,0.0,182,162,151,172,162
2025-02-26 15:10:27.399,-300.0,-148.0,971.0,-3.0,1.0,0.0,176,156,143,166,153
2025-02-26 15:10:27.401,-304.0,-147.0,971.0,-4.0,1.0,0.0,182,162,150,172,159
2025-02-26 15:10:27.407,-303.0,-151.0,969.0,-4.0,2.0,0.0,184,165,151,175,163
2025-02-26 15:10:27.412,-303.0,-150.0,962.0,-4.0,2.0,0.0,178,159,147,168,156
2025-02-26 15:10:27.420,-305.0,-155.0,960.0,-4.0,2.0,0.0,177,155,143,166,154
2025-02-26 15:10:27.423,-304.0,-160.0,957.0,-4.0,2.0,1.0,180,162,150,173,160
2025-02-26 15:10:27.428,-304.0,-161.0,957.0,-3.0,3.0,1.0,182,162,153,174,161
2025-02-26 15:10:27.431,-310.0,-157.0,946.0,-3.0,3.0,1.0,178,158,144,169,156
2025-02-26 15:10:27.437,-315.0,-158.0,942.0,-2.0,2.0,1.0,179,162,155,172,159
2025-02-26 15:10:27.442,-312.0,-152.0,937.0,-2.0,2.0,2.0,181,162,148,171,158
2025-02-26 15:10:27.449,-317.0,-146.0,930.0,-2.0,2.0,2.0,177,164,146,169,153
2025-02-26 15:10:27.453,-321.0,-142.0,919.0,-2.0,2.0,2.0,178,157,146,168,155
2025-02-26 15:10:27.454,-326.0,-142.0,917.0,-1.0,1.0,2.0,183,157,148,170,157
2025-02-26 15:10:27.464,-328.0,-135.0,911.0,-1.0,1.0,2.0,177,158,146,168,154
2025-02-26 15:10:27.468,-323.0,-132.0,908.0,-1.0,1.0,2.0,176,158,144,169,154
2025-02-26 15:10:27.473,-332.0,-131.0,910.0,-2.0,0.0,2.0,179,160,150,172,160
2025-02-26 15:10:27.478,-335.0,-136.0,905.0,-2.0,0.0,2.0,177,158,144,168,156
2025-02-26 15:10:27.485,-337.0,-140.0,902.0,-1.0,-1.0,2.0,173,155,143,167,152
2025-02-26 15:10:27.490,-336.0,-135.0,899.0,-1.0,-1.0,2.0,186,156,142,172,153
2025-02-26 15:10:27.493,-332.0,-135.0,897.0,0.0,-2.0,2.0,178,159,146,170,157
2025-02-26 15:10:27.498,-339.0,-133.0,901.0,0.0,-3.0,2.0,175,157,145,172,156
2025-02-26 15:10:27.506,-342.0,-128.0,900.0,0.0,-3.0,2.0,173,153,140,164,151
2025-02-26 15:10:27.510,-341.0,-125.0,898.0,0.0,-3.0,2.0,176,156,141,167,155
2025-02-26 15:10:27.514,-340.0,-123.0,902.0,0.0,-5.0,1.0,175,158,142,167,154
2025-02-26 15:10:27.518,-340.0,-122.0,905.0,1.0,-5.0,1.0,173,151,139,165,150
2025-02-26 15:10:27.526,-339.0,-126.0,906.0,1.0,-6.0,1.0,172,152,141,162,149
2025-02-26 15:10:27.530,-342.0,-126.0,909.0,2.0,-7.0,0.0,178,158,144,167,155
2025-02-26 15:10:27.534,-339.0,-123.0,914.0,3.0,-8.0,0.0,176,155,143,165,154
2025-02-26 15:10:27.539,-338.0,-127.0,927.0,4.0,-8.0,-1.0,173,155,142,164,151
2025-02-26 15:10:27.547,-332.0,-131.0,941.0,5.0,-9.0,-1.0,177,157,146,170,157
2025-02-26 15:10:27.551,-325.0,-135.0,942.0,6.0,-9.0,-1.0,179,160,147,171,156
2025-02-26 15:10:27.553,-326.0,-139.0,957.0,6.0,-9.0,-2.0,176,156,143,165,152
2025-02-26 15:10:27.559,-323.0,-136.0,976.0,7.0,-9.0,-2.0,175,152,142,167,153
2025-02-26 15:10:27.567,-319.0,-138.0,982.0,8.0,-9.0,-2.0,182,160,150,172,161
2025-02-26 15:10:27.576,-314.0,-136.0,994.0,8.0,-9.0,-2.0,178,159,146,168,155
2025-02-26 15:10:27.577,-311.0,-127.0,1008.0,7.0,-9.0,-3.0,173,157,143,166,154
2025-02-26 15:10:27.580,-311.0,-131.0,1021.0,6.0,-9.0,-3.0,172,154,141,164,151
2025-02-26 15:10:27.587,-309.0,-131.0,1027.0,5.0,-9.0,-3.0,182,164,150,171,159
2025-02-26 15:10:27.591,-306.0,-133.0,1035.0,4.0,-8.0,-3.0,178,158,146,169,157
2025-02-26 15:10:27.596,-305.0,-135.0,1047.0,3.0,-8.0,-4.0,175,154,142,164,152
2025-02-26 15:10:27.601,-300.0,-139.0,1054.0,2.0,-7.0,-3.0,174,153,141,165,152
2025-02-26 15:10:27.608,-293.0,-146.0,1058.0,1.0,-6.0,-4.0,180,161,148,171,157
2025-02-26 15:10:27.612,-293.0,-145.0,1054.0,1.0,-6.0,-3.0,179,158,146,169,156
2025-02-26 15:10:27.613,-287.0,-155.0,1071.0,1.0,-4.0,-3.0,178,157,145,169,156
2025-02-26 15:10:27.625,-278.0,-155.0,1049.0,1.0,-3.0,-3.0,175,154,142,164,151
2025-02-26 15:10:27.628,-275.0,-177.0,1085.0,-3.0,-3.0,-2.0,178,156,145,167,154
2025-02-26 15:10:27.633,-285.0,-165.0,1081.0,-4.0,-1.0,-2.0,180,159,147,171,157
2025-02-26 15:10:27.637,-288.0,-167.0,1061.0,-4.0,0.0,-1.0,170,158,146,161,155
2025-02-26 15:10:27.644,-279.0,-170.0,1058.0,-4.0,0.0,-1.0,178,156,143,166,154
2025-02-26 15:10:27.649,-275.0,-167.0,1043.0,-5.0,1.0,-1.0,176,156,144,167,154
2025-02-26 15:10:27.654,-273.0,-171.0,1036.0,-5.0,1.0,-1.0,180,160,147,171,159
2025-02-26 15:10:27.661,-276.0,-170.0,1037.0,-5.0,2.0,0.0,181,158,147,170,157
2025-02-26 15:10:27.666,-282.0,-174.0,1036.0,-5.0,3.0,1.0,179,157,144,168,155
2025-02-26 15:10:27.669,-281.0,-180.0,1024.0,-5.0,4.0,2.0,178,160,146,170,156
2025-02-26 15:10:27.674,-282.0,-179.0,1014.0,-4.0,4.0,2.0,183,162,150,175,161
2025-02-26 15:10:27.682,-281.0,-169.0,1006.0,-4.0,4.0,3.0,183,163,151,174,160
2025-02-26 15:10:27.686,-280.0,-162.0,999.0,-4.0,4.0,2.0,179,162,149,171,162
2025-02-26 15:10:27.690,-276.0,-164.0,999.0,-3.0,5.0,3.0,179,160,146,169,158
2025-02-26 15:10:27.694,-283.0,-154.0,996.0,-3.0,5.0,3.0,184,163,153,175,163
2025-02-26 15:10:27.699,-285.0,-155.0,995.0,-4.0,5.0,4.0,181,164,150,173,160
2025-02-26 15:10:27.706,-280.0,-143.0,985.0,-4.0,5.0,4.0,183,163,151,174,161
2025-02-26 15:10:27.711,-282.0,-139.0,969.0,-5.0,5.0,4.0,186,165,152,175,163
2025-02-26 15:10:27.715,-283.0,-141.0,965.0,-6.0,5.0,3.0,184,164,151,174,162
2025-02-26 15:10:27.719,-282.0,-130.0,965.0,-6.0,5.0,3.0,179,159,146,169,156
2025-02-26 15:10:27.727,-281.0,-138.0,951.0,-7.0,5.0,3.0,184,162,149,172,159
2025-02-26 15:10:27.730,-287.0,-140.0,951.0,-8.0,5.0,3.0,186,165,151,176,162
2025-02-26 15:10:27.733,-287.0,-136.0,937.0,-8.0,4.0,3.0,183,164,152,174,161
2025-02-26 15:10:27.740,-289.0,-134.0,926.0,-8.0,4.0,3.0,178,157,145,168,155
2025-02-26 15:10:27.747,-289.0,-140.0,916.0,-8.0,4.0,3.0,187,168,154,179,166
2025-02-26 15:10:27.752,-288.0,-135.0,911.0,-8.0,4.0,3.0,185,164,152,173,161
2025-02-26 15:10:27.752,-288.0,-134.0,909.0,-9.0,4.0,3.0,178,159,146,169,156
2025-02-26 15:10:27.760,-286.0,-132.0,895.0,-9.0,4.0,3.0,177,158,145,168,154
2025-02-26 15:10:27.768,-292.0,-134.0,891.0,-9.0,4.0,3.0,189,167,154,178,165
2025-02-26 15:10:27.772,-291.0,-133.0,885.0,-8.0,3.0,3.0,182,162,149,173,159
2025-02-26 15:10:27.776,-294.0,-134.0,871.0,-8.0,3.0,3.0,176,157,144,168,155
2025-02-26 15:10:27.778,-302.0,-133.0,859.0,-9.0,3.0,3.0,182,161,150,173,160
2025-02-26 15:10:27.783,-300.0,-136.0,849.0,-8.0,2.0,4.0,183,163,152,174,160
2025-02-26 15:10:27.793,-301.0,-139.0,840.0,-8.0,1.0,4.0,179,157,146,170,156
2025-02-26 15:10:27.795,-306.0,-133.0,828.0,-7.0,1.0,4.0,180,160,148,170,157
2025-02-26 15:10:27.801,-322.0,-110.0,817.0,-7.0,0.0,4.0,181,163,149,172,159
2025-02-26 15:10:27.805,-333.0,-87.0,823.0,-9.0,0.0,4.0,180,160,147,172,158
2025-02-26 15:10:27.813,-332.0,-61.0,756.0,-11.0,-2.0,4.0,177,157,147,168,154
2025-02-26 15:10:27.817,-350.0,-43.0,765.0,-11.0,-5.0,2.0,182,160,148,174,159
2025-02-26 15:10:27.821,-349.0,-11.0,796.0,-12.0,-5.0,-1.0,180,159,146,171,159
2025-02-26 15:10:27.825,-367.0,-9.0,650.0,-11.0,-10.0,-3.0,180,159,147,169,157
2025-02-26 15:10:27.833,-355.0,25.0,682.0,-12.0,-12.0,-5.0,180,157,146,169,157
2025-02-26 15:10:27.838,-353.0,17.0,582.0,-15.0,-23.0,-9.0,181,160,148,172,159
2025-02-26 15:10:27.841,-355.0,34.0,670.0,-8.0,-29.0,-14.0,182,161,148,171,157
2025-02-26 15:10:27.850,-381.0,58.0,473.0,-6.0,-47.0,-20.0,179,159,145,169,157
2025-02-26 15:10:27.854,-408.0,90.0,512.0,-8.0,-53.0,-21.0,177,157,145,173,156
2025-02-26 15:10:27.858,-405.0,85.0,523.0,-10.0,-61.0,-23.0,180,163,148,171,153
2025-02-26 15:10:27.862,-415.0,71.0,503.0,-13.0,-69.0,-25.0,183,161,148,172,159
2025-02-26 15:10:27.870,-417.0,52.0,486.0,-15.0,-79.0,-27.0,174,160,148,167,157
2025-02-26 15:10:27.873,-410.0,30.0,455.0,-16.0,-85.0,-29.0,179,158,146,168,156
2025-02-26 15:10:27.879,-430.0,61.0,518.0,-16.0,-96.0,-33.0,176,156,145,167,154
2025-02-26 15:10:27.886,-436.0,-9.0,511.0,-15.0,-108.0,-33.0,183,162,149,172,160
2025-02-26 15:10:27.890,-455.0,-11.0,563.0,-8.0,-117.0,-35.0,180,161,149,171,159
2025-02-26 15:10:27.895,-457.0,-42.0,548.0,-6.0,-132.0,-36.0,179,160,148,169,158
2025-02-26 15:10:27.903,-456.0,-97.0,664.0,-2.0,-146.0,-38.0,178,157,145,167,155
2025-02-26 15:10:27.907,-445.0,-167.0,675.0,4.0,-156.0,-39.0,178,160,147,168,155
2025-02-26 15:10:27.911,-439.0,-200.0,810.0,12.0,-176.0,-38.0,177,155,141,166,152
2025-02-26 15:10:27.917,-421.0,-231.0,1119.0,22.0,-190.0,-36.0,180,159,144,170,155
2025-02-26 15:10:27.923,-382.0,-298.0,1185.0,9.0,-205.0,-33.0,179,159,144,169,155
2025-02-26 15:10:27.928,-306.0,-376.0,1286.0,-3.0,-216.0,-21.0,173,157,143,164,156
2025-02-26 15:10:27.936,-96.0,-284.0,1616.0,-13.0,-215.0,-11.0,178,156,140,168,154
2025-02-26 15:10:27.940,14.0,-315.0,1901.0,-49.0,-204.0,-2.0,176,154,138,166,149
2025-02-26 15:10:27.944,63.0,-323.0,2107.0,-87.0,-195.0,8.0,179,154,139,168,151
2025-02-26 15:10:27.952,176.0,-274.0,2333.0,-133.0,-173.0,14.0,174,149,132,163,147
2025-02-26 15:10:27.956,288.0,-281.0,2510.0,-169.0,-135.0,25.0,179,152,137,168,149
2025-02-26 15:10:27.961,433.0,-397.0,2549.0,-203.0,-95.0,37.0,180,147,135,168,146
2025-02-26 15:10:27.969,571.0,-605.0,2521.0,-238.0,-61.0,53.0,180,147,135,170,146
2025-02-26 15:10:27.973,675.0,-530.0,2450.0,-257.0,-24.0,65.0,180,142,130,167,142
2025-02-26 15:10:27.978,846.0,-849.0,2608.0,-287.0,24.0,83.0,176,132,121,164,139
2025-02-26 15:10:27.985,915.0,-938.0,2569.0,-313.0,46.0,92.0,178,129,119,162,139
2025-02-26 15:10:27.989,923.0,-910.0,2494.0,-334.0,87.0,98.0,176,129,117,162,140
2025-02-26 15:10:27.994,919.0,-1034.0,2453.0,-360.0,132.0,115.0,181,127,122,167,144
2025-02-26 15:10:27.999,894.0,-1212.0,2416.0,-371.0,175.0,130.0,180,121,116,163,140
2025-02-26 15:10:28.005,857.0,-1183.0,2310.0,-379.0,215.0,135.0,187,122,118,163,140
2025-02-26 15:10:28.010,808.0,-1162.0,2184.0,-380.0,250.0,136.0,181,111,111,152,133
2025-02-26 15:10:28.018,677.0,-1151.0,2011.0,-376.0,280.0,141.0,177,104,106,146,126
2025-02-26 15:10:28.019,526.0,-1146.0,1870.0,-369.0,307.0,148.0,178,104,105,142,121
2025-02-26 15:10:28.030,440.0,-1077.0,1717.0,-359.0,318.0,158.0,178,97,101,138,116
2025-02-26 15:10:28.034,405.0,-1070.0,1507.0,-351.0,333.0,166.0,176,96,100,133,113
2025-02-26 15:10:28.039,288.0,-1048.0,1444.0,-344.0,344.0,171.0,177,93,97,127,107
2025-02-26 15:10:28.046,216.0,-1011.0,1377.0,-344.0,353.0,185.0,181,98,101,128,111
2025-02-26 15:10:28.050,374.0,-997.0,1236.0,-338.0,357.0,205.0,180,97,100,127,108
2025-02-26 15:10:28.055,414.0,-980.0,1158.0,-334.0,359.0,223.0,179,96,97,125,108
2025-02-26 15:10:28.060,358.0,-867.0,1024.0,-330.0,358.0,227.0,177,94,96,122,104
2025-02-26 15:10:28.067,309.0,-737.0,914.0,-323.0,355.0,226.0,177,95,96,121,105
2025-02-26 15:10:28.071,285.0,-614.0,756.0,-316.0,346.0,221.0,174,93,96,120,100
2025-02-26 15:10:28.079,124.0,-495.0,539.0,-310.0,332.0,224.0,177,96,96,124,104
2025-02-26 15:10:28.083,26.0,-314.0,376.0,-305.0,308.0,226.0,176,94,96,120,103
2025-02-26 15:10:28.087,139.0,-357.0,209.0,-298.0,291.0,233.0,180,95,97,115,101
2025-02-26 15:10:28.092,32.0,-273.0,9.0,-291.0,282.0,234.0,169,91,92,117,98
2025-02-26 15:10:28.100,-162.0,-269.0,-68.0,-270.0,253.0,232.0,167,95,91,114,96
2025-02-26 15:10:28.104,-303.0,-339.0,25.0,-270.0,233.0,232.0,171,95,94,117,99
2025-02-26 15:10:28.108,-303.0,-324.0,13.0,-258.0,216.0,231.0,168,94,93,114,98
2025-02-26 15:10:28.112,-378.0,-175.0,93.0,-258.0,213.0,232.0,164,90,90,111,95
2025-02-26 15:10:28.120,-382.0,-167.0,126.0,-251.0,204.0,232.0,159,91,89,111,95
2025-02-26 15:10:28.125,-277.0,-59.0,63.0,-253.0,197.0,235.0,164,93,92,115,97
2025-02-26 15:10:28.129,-293.0,139.0,18.0,-246.0,195.0,233.0,164,96,94,116,100
2025-02-26 15:10:28.137,-439.0,223.0,-44.0,-227.0,177.0,228.0,159,92,87,111,94
2025-02-26 15:10:28.141,-330.0,404.0,-56.0,-213.0,176.0,221.0,157,90,88,109,91
2025-02-26 15:10:28.144,-519.0,465.0,26.0,-192.0,154.0,220.0,163,98,96,116,100
2025-02-26 15:10:28.150,-407.0,547.0,55.0,-187.0,152.0,219.0,159,94,92,114,98
2025-02-26 15:10:28.156,-499.0,753.0,-50.0,-179.0,144.0,210.0,158,93,91,115,96
2025-02-26 15:10:28.160,-496.0,898.0,-66.0,-167.0,143.0,200.0,156,91,91,111,93
2025-02-26 15:10:28.165,-492.0,934.0,-124.0,-144.0,135.0,193.0,162,99,97,116,101
2025-02-26 15:10:28.170,-482.0,1098.0,-113.0,-110.0,127.0,176.0,159,97,95,118,102
2025-02-26 15:10:28.175,-529.0,1217.0,-123.0,-75.0,127.0,155.0,159,97,96,118,99
2025-02-26 15:10:28.182,-505.0,1317.0,-172.0,-58.0,129.0,133.0,160,98,95,118,100
2025-02-26 15:10:28.186,-491.0,1488.0,-231.0,-27.0,133.0,111.0,159,96,97,116,98
2025-02-26 15:10:28.193,-493.0,1638.0,-303.0,4.0,138.0,100.0,156,94,93,114,98
2025-02-26 15:10:28.197,-552.0,1736.0,-357.0,42.0,132.0,73.0,159,99,98,117,100
2025-02-26 15:10:28.202,-669.0,1913.0,-525.0,63.0,113.0,43.0,159,98,96,121,99
2025-02-26 15:10:28.210,-817.0,2181.0,-737.0,99.0,100.0,9.0,154,96,92,113,96
2025-02-26 15:10:28.214,-877.0,2328.0,-938.0,122.0,71.0,-11.0,153,93,90,110,94
2025-02-26 15:10:28.219,-946.0,2546.0,-1034.0,140.0,37.0,-54.0,174,115,114,135,118
2025-02-26 15:10:28.224,-939.0,2776.0,-1200.0,149.0,10.0,-104.0,171,113,110,130,115
2025-02-26 15:10:28.231,-993.0,2911.0,-1412.0,157.0,-20.0,-163.0,172,115,112,133,114
2025-02-26 15:10:28.235,-1000.0,2997.0,-1513.0,162.0,-51.0,-234.0,168,110,106,128,111
2025-02-26 15:10:28.242,-838.0,3060.0,-1542.0,173.0,-83.0,-310.0,168,112,108,129,112
2025-02-26 15:10:28.247,-761.0,3099.0,-1611.0,174.0,-116.0,-395.0,170,113,108,132,112
2025-02-26 15:10:28.254,-791.0,3111.0,-1727.0,166.0,-165.0,-489.0,165,112,108,129,112
2025-02-26 15:10:28.259,-692.0,3190.0,-1829.0,140.0,-226.0,-591.0,167,110,107,128,113
2025-02-26 15:10:28.263,-602.0,3300.0,-1918.0,98.0,-304.0,-699.0,172,115,111,132,116
2025-02-26 15:10:28.271,-485.0,3350.0,-2012.0,41.0,-348.0,-813.0,166,108,106,128,110
2025-02-26 15:10:28.272,-202.0,3406.0,-2121.0,-31.0,-450.0,-928.0,161,104,99,123,106
2025-02-26 15:10:28.284,262.0,3336.0,-2308.0,-110.0,-576.0,-1041.0,160,101,103,124,108
2025-02-26 15:10:28.288,1056.0,3345.0,-2586.0,-195.0,-714.0,-1141.0,153,101,98,120,105
2025-02-26 15:10:28.296,2293.0,3080.0,-2507.0,-269.0,-854.0,-1191.0,158,98,97,118,103
2025-02-26 15:10:28.301,4436.0,1777.0,-1250.0,-314.0,-922.0,-1152.0,155,96,93,115,100
2025-02-26 15:10:28.303,7295.0,-394.0,231.0,-404.0,-843.0,-1032.0,161,102,101,122,107
2025-02-26 15:10:28.313,8511.0,-3122.0,1471.0,-480.0,-630.0,-949.0,155,99,96,118,104
2025-02-26 15:10:28.315,8676.0,-4527.0,2127.0,-475.0,-363.0,-768.0,150,96,94,115,100
2025-02-26 15:10:28.324,8552.0,-6952.0,1879.0,-371.0,-100.0,-580.0,152,98,95,118,103
2025-02-26 15:10:28.329,7500.0,-8725.0,1197.0,-195.0,104.0,-387.0,152,102,99,122,108
2025-02-26 15:10:28.333,6128.0,-9599.0,117.0,38.0,235.0,-204.0,153,101,97,119,105
2025-02-26 15:10:28.341,4368.0,-9436.0,-347.0,268.0,284.0,-49.0,153,101,98,119,103
2025-02-26 15:10:28.345,3292.0,-7717.0,-836.0,370.0,300.0,71.0,160,106,103,124,108
2025-02-26 15:10:28.350,2677.0,-5755.0,-786.0,389.0,265.0,168.0,157,99,95,117,101
2025-02-26 15:10:28.357,2437.0,-4003.0,-771.0,347.0,231.0,234.0,156,96,93,113,96
2025-02-26 15:10:28.362,1874.0,-2500.0,-450.0,265.0,191.0,282.0,158,92,90,113,95
2025-02-26 15:10:28.366,1506.0,-1849.0,-346.0,148.0,102.0,302.0,159,95,92,112,96
2025-02-26 15:10:28.374,1062.0,-1234.0,-348.0,22.0,68.0,293.0,165,102,101,121,102
2025-02-26 15:10:28.378,912.0,-1069.0,-308.0,-63.0,17.0,282.0,159,96,96,120,98
2025-02-26 15:10:28.382,628.0,-1253.0,-299.0,-103.0,10.0,259.0,159,100,96,118,99
2025-02-26 15:10:28.389,656.0,-1631.0,-169.0,-151.0,12.0,243.0,159,97,94,117,97
2025-02-26 15:10:28.394,588.0,-1908.0,-99.0,-142.0,-6.0,240.0,154,95,91,113,97
2025-02-26 15:10:28.399,535.0,-2037.0,-7.0,-128.0,24.0,244.0,160,97,95,117,101
2025-02-26 15:10:28.403,469.0,-2313.0,-9.0,-80.0,30.0,257.0,161,102,98,123,107
2025-02-26 15:10:28.410,427.0,-2381.0,93.0,-53.0,43.0,280.0,155,94,92,115,100
2025-02-26 15:10:28.415,339.0,-2318.0,104.0,-3.0,49.0,307.0,151,91,85,115,96
2025-02-26 15:10:28.419,391.0,-2316.0,119.0,38.0,61.0,319.0,154,97,90,117,99
2025-02-26 15:10:28.424,367.0,-1948.0,135.0,56.0,69.0,339.0,154,96,93,118,101
2025-02-26 15:10:28.431,340.0,-1614.0,143.0,92.0,68.0,353.0,149,90,89,113,96
2025-02-26 15:10:28.435,249.0,-1440.0,107.0,105.0,73.0,356.0,147,87,84,108,92
2025-02-26 15:10:28.439,192.0,-1163.0,113.0,117.0,74.0,361.0,146,89,85,111,95
2025-02-26 15:10:28.444,97.0,-801.0,101.0,117.0,63.0,369.0,153,98,94,118,102
2025-02-26 15:10:28.450,43.0,-620.0,91.0,111.0,64.0,367.0,146,89,87,111,94
2025-02-26 15:10:28.456,-54.0,-415.0,111.0,96.0,56.0,365.0,148,92,88,114,97
2025-02-26 15:10:28.460,-129.0,-97.0,83.0,79.0,52.0,360.0,147,93,90,114,97
2025-02-26 15:10:28.464,-169.0,-12.0,73.0,53.0,44.0,350.0,147,91,90,115,97
2025-02-26 15:10:28.469,-235.0,100.0,119.0,19.0,41.0,345.0,150,93,91,115,98
2025-02-26 15:10:28.476,-260.0,163.0,138.0,6.0,34.0,334.0,149,92,89,115,97
2025-02-26 15:10:28.481,-276.0,219.0,186.0,-27.0,34.0,320.0,144,89,87,111,95
2025-02-26 15:10:28.485,-293.0,208.0,248.0,-55.0,35.0,314.0,154,98,94,120,101
2025-02-26 15:10:28.489,-299.0,270.0,282.0,-70.0,33.0,294.0,150,94,92,116,99
2025-02-26 15:10:28.496,-401.0,204.0,313.0,-88.0,38.0,282.0,143,88,86,112,94
2025-02-26 15:10:28.501,-361.0,178.0,319.0,-84.0,23.0,276.0,143,88,84,110,93
2025-02-26 15:10:28.505,-326.0,62.0,389.0,-93.0,30.0,260.0,151,98,94,121,103
2025-02-26 15:10:28.510,-362.0,12.0,360.0,-87.0,24.0,246.0,148,94,89,116,98
2025-02-26 15:10:28.514,-341.0,7.0,390.0,-88.0,29.0,228.0,144,87,85,112,95
2025-02-26 15:10:28.522,-312.0,53.0,401.0,-87.0,38.0,218.0,148,92,89,116,96
2025-02-26 15:10:28.526,-441.0,-8.0,285.0,-81.0,42.0,204.0,150,94,90,117,100
2025-02-26 15:10:28.530,-427.0,8.0,312.0,-86.0,46.0,192.0,143,88,85,113,95
2025-02-26 15:10:28.534,-286.0,-120.0,282.0,-68.0,55.0,181.0,148,92,89,115,100
2025-02-26 15:10:28.540,-281.0,-100.0,375.0,-63.0,63.0,170.0,146,92,90,117,98
2025-02-26 15:10:28.546,-249.0,-120.0,366.0,-41.0,63.0,163.0,147,90,88,114,99
2025-02-26 15:10:28.550,-195.0,-175.0,424.0,-10.0,66.0,158.0,144,88,85,112,93
2025-02-26 15:10:28.554,-138.0,-168.0,410.0,9.0,79.0,153.0,147,92,89,114,96
2025-02-26 15:10:28.562,-206.0,-189.0,368.0,20.0,87.0,148.0,147,89,88,115,97
2025-02-26 15:10:28.565,-268.0,-100.0,290.0,38.0,91.0,143.0,147,91,88,115,97
2025-02-26 15:10:28.570,-329.0,-75.0,209.0,60.0,95.0,140.0,150,92,91,118,100
2025-02-26 15:10:28.575,-463.0,-27.0,189.0,83.0,87.0,138.0,148,92,89,116,99
2025-02-26 15:10:28.579,-537.0,89.0,116.0,96.0,81.0,140.0,145,87,85,113,96
2025-02-26 15:10:28.587,-533.0,101.0,62.0,119.0,72.0,143.0,150,91,89,114,98
2025-02-26 15:10:28.591,-593.0,218.0,22.0,143.0,62.0,148.0,150,93,90,117,101
2025-02-26 15:10:28.594,-663.0,421.0,-53.0,156.0,52.0,157.0,147,89,86,112,94
2025-02-26 15:10:28.599,-708.0,489.0,-145.0,183.0,47.0,162.0,144,85,85,110,92
2025-02-26 15:10:28.607,-776.0,742.0,-169.0,208.0,36.0,173.0,151,94,91,118,100
2025-02-26 15:10:28.611,-859.0,1116.0,-294.0,222.0,25.0,174.0,149,91,89,116,99
2025-02-26 15:10:28.616,-924.0,1559.0,-374.0,255.0,22.0,152.0,146,88,86,113,96
2025-02-26 15:10:28.620,-907.0,2047.0,-433.0,295.0,19.0,126.0,147,89,87,109,95
2025-02-26 15:10:28.626,-938.0,2311.0,-542.0,350.0,29.0,46.0,152,93,91,119,100
2025-02-26 15:10:28.632,-976.0,2760.0,-622.0,404.0,49.0,-67.0,151,92,91,116,99
2025-02-26 15:10:28.636,-1028.0,3125.0,-823.0,421.0,62.0,-186.0,148,90,85,114,98
2025-02-26 15:10:28.645,-1113.0,3366.0,-957.0,425.0,57.0,-303.0,149,91,88,113,96
2025-02-26 15:10:28.649,-1238.0,3504.0,-1148.0,370.0,21.0,-360.0,149,91,89,114,99
2025-02-26 15:10:28.653,-1245.0,3539.0,-1207.0,276.0,-38.0,-468.0,153,96,92,118,101
2025-02-26 15:10:28.661,-1317.0,3804.0,-1226.0,155.0,-125.0,-584.0,154,97,95,120,103
2025-02-26 15:10:28.665,-1084.0,3723.0,-1250.0,19.0,-228.0,-706.0,158,102,100,126,109
2025-02-26 15:10:28.673,-825.0,3590.0,-1445.0,-113.0,-347.0,-825.0,160,105,104,130,111
2025-02-26 15:10:28.677,-271.0,3188.0,-1619.0,-240.0,-486.0,-934.0,159,103,99,127,111
2025-02-26 15:10:28.682,609.0,2840.0,-1837.0,-358.0,-621.0,-1023.0,157,103,99,126,108
2025-02-26 15:10:28.689,1736.0,2403.0,-1993.0,-470.0,-754.0,-1093.0,160,104,100,129,114
2025-02-26 15:10:28.694,3304.0,1751.0,-2264.0,-557.0,-862.0,-1130.0,161,106,103,126,112
2025-02-26 15:10:28.702,5265.0,423.0,-2138.0,-622.0,-916.0,-1112.0,162,106,102,127,116
2025-02-26 15:10:28.705,7022.0,-1146.0,-1750.0,-606.0,-894.0,-1020.0,167,110,106,134,121
2025-02-26 15:10:28.714,7657.0,-3810.0,-742.0,-509.0,-758.0,-865.0,175,117,112,140,128
2025-02-26 15:10:28.717,7247.0,-6708.0,798.0,-373.0,-512.0,-642.0,178,121,119,144,132
2025-02-26 15:10:28.726,6854.0,-9248.0,1773.0,-222.0,-189.0,-366.0,170,113,110,139,123
2025-02-26 15:10:28.729,6922.0,-10330.0,1615.0,-30.0,105.0,-104.0,149,92,88,117,100
2025-02-26 15:10:28.735,6404.0,-9426.0,686.0,116.0,320.0,76.0,150,90,87,115,100
2025-02-26 15:10:28.743,4602.0,-7055.0,-188.0,152.0,446.0,156.0,147,88,86,111,94
2025-02-26 15:10:28.747,3560.0,-4799.0,-1037.0,244.0,463.0,164.0,174,113,113,137,119
2025-02-26 15:10:28.752,2259.0,-3688.0,-1520.0,371.0,404.0,147.0,166,105,103,129,107
2025-02-26 15:10:28.759,1109.0,-2496.0,-1690.0,381.0,239.0,187.0,170,105,108,131,108
2025-02-26 15:10:28.764,973.0,-1485.0,-1257.0,337.0,143.0,192.0,188,125,124,150,127
2025-02-26 15:10:28.771,470.0,-1175.0,-992.0,172.0,85.0,195.0,177,116,113,138,119
2025-02-26 15:10:28.775,546.0,-1033.0,-990.0,38.0,55.0,217.0,169,106,105,131,111
2025-02-26 15:10:28.780,328.0,-764.0,-858.0,-97.0,-52.0,225.0,168,107,104,130,111
2025-02-26 15:10:28.787,340.0,-774.0,-806.0,-144.0,-102.0,242.0,172,109,106,131,115
2025-02-26 15:10:28.792,376.0,-1207.0,-592.0,-179.0,-142.0,245.0,167,105,102,130,114
2025-02-26 15:10:28.797,423.0,-1901.0,-350.0,-207.0,-142.0,231.0,166,106,102,130,117
2025-02-26 15:10:28.804,584.0,-2490.0,-187.0,-179.0,-114.0,234.0,165,103,99,125,112
2025-02-26 15:10:28.808,815.0,-1955.0,-13.0,-143.0,-100.0,242.0,165,103,100,126,113
2025-02-26 15:10:28.813,722.0,-2131.0,198.0,-91.0,-80.0,256.0,166,99,95,123,111
2025-02-26 15:10:28.820,721.0,-2027.0,264.0,-27.0,-67.0,257.0,162,98,94,121,110
2025-02-26 15:10:28.824,833.0,-1990.0,274.0,26.0,-42.0,268.0,169,108,106,134,120
2025-02-26 15:10:28.830,607.0,-1918.0,291.0,78.0,-22.0,284.0,166,104,103,130,118
2025-02-26 15:10:28.837,584.0,-1673.0,369.0,89.0,4.0,313.0,166,104,102,129,117
2025-02-26 15:10:28.841,448.0,-1548.0,258.0,136.0,2.0,316.0,162,100,98,124,113
2025-02-26 15:10:28.846,553.0,-1278.0,285.0,124.0,46.0,332.0,164,103,99,129,116
2025-02-26 15:10:28.853,314.0,-1084.0,249.0,123.0,75.0,341.0,168,105,103,131,119
2025-02-26 15:10:28.857,265.0,-549.0,208.0,70.0,92.0,348.0,166,105,100,130,113
2025-02-26 15:10:28.862,-13.0,-309.0,92.0,44.0,111.0,360.0,159,99,98,128,114
2025-02-26 15:10:28.866,210.0,-43.0,71.0,-44.0,116.0,363.0,165,102,96,127,116
2025-02-26 15:10:28.873,-57.0,22.0,-70.0,-26.0,87.0,352.0,170,106,100,131,117
2025-02-26 15:10:28.878,-250.0,57.0,18.0,-38.0,45.0,331.0,169,103,101,131,117
2025-02-26 15:10:28.880,-86.0,112.0,119.0,-42.0,33.0,317.0,169,102,101,131,116
2025-02-26 15:10:28.887,-279.0,30.0,27.0,-48.0,-1.0,315.0,168,104,101,135,117
2025-02-26 15:10:28.894,-274.0,9.0,46.0,-61.0,-21.0,308.0,175,109,106,134,121
2025-02-26 15:10:28.899,-239.0,-29.0,220.0,-88.0,-13.0,311.0,172,104,104,134,121
2025-02-26 15:10:28.903,-172.0,-55.0,199.0,-137.0,-3.0,317.0,172,103,102,133,118
2025-02-26 15:10:28.910,-142.0,-132.0,235.0,-168.0,-1.0,324.0,171,104,102,129,118
2025-02-26 15:10:28.915,-74.0,-106.0,167.0,-185.0,7.0,325.0,170,102,101,132,117
2025-02-26 15:10:28.919,-140.0,-221.0,154.0,-158.0,-5.0,313.0,175,107,106,136,121
2025-02-26 15:10:28.926,-259.0,-276.0,186.0,-107.0,-21.0,293.0,179,109,109,139,124
2025-02-26 15:10:28.931,-215.0,-409.0,271.0,-72.0,-22.0,285.0,176,108,106,135,123
2025-02-26 15:10:28.935,-114.0,-479.0,335.0,-65.0,-7.0,288.0,173,103,104,133,118
2025-02-26 15:10:28.943,-150.0,-356.0,399.0,-48.0,2.0,295.0,170,99,98,128,115
2025-02-26 15:10:28.951,-189.0,-436.0,438.0,-40.0,23.0,300.0,171,100,100,127,114
2025-02-26 15:10:28.953,-173.0,-295.0,424.0,-27.0,42.0,292.0,178,104,103,133,118
2025-02-26 15:10:28.957,-250.0,-56.0,364.0,24.0,50.0,271.0,177,103,101,132,116
2025-02-26 15:10:28.964,-281.0,60.0,288.0,48.0,65.0,245.0,177,104,102,131,117
2025-02-26 15:10:28.968,-298.0,118.0,341.0,93.0,70.0,232.0,173,94,97,128,109
2025-02-26 15:10:28.971,-317.0,115.0,313.0,123.0,83.0,225.0,176,104,103,131,118
2025-02-26 15:10:28.980,-359.0,303.0,294.0,143.0,96.0,212.0,177,103,100,131,117
2025-02-26 15:10:28.984,-467.0,546.0,290.0,150.0,101.0,203.0,178,100,99,131,114
2025-02-26 15:10:28.989,-589.0,815.0,301.0,166.0,98.0,182.0,179,100,102,130,113
2025-02-26 15:10:28.994,-753.0,1070.0,251.0,196.0,87.0,165.0,179,100,99,127,112
2025-02-26 15:10:29.001,-872.0,1201.0,317.0,236.0,73.0,124.0,185,103,103,132,115
2025-02-26 15:10:29.005,-911.0,1414.0,315.0,273.0,61.0,79.0,187,106,106,134,120
2025-02-26 15:10:29.009,-964.0,1704.0,306.0,290.0,57.0,33.0,187,102,101,129,115
2025-02-26 15:10:29.016,-956.0,2028.0,367.0,309.0,61.0,-15.0,182,98,99,126,108
2025-02-26 15:10:29.021,-1031.0,2135.0,298.0,336.0,61.0,-46.0,183,98,96,122,105
2025-02-26 15:10:29.026,-1054.0,2519.0,170.0,350.0,65.0,-119.0,189,105,102,129,111
2025-02-26 15:10:29.033,-1137.0,2936.0,114.0,335.0,62.0,-197.0,189,102,101,126,108
2025-02-26 15:10:29.038,-1288.0,3243.0,-108.0,300.0,47.0,-277.0,187,101,100,127,109
2025-02-26 15:10:29.042,-1118.0,3408.0,-301.0,266.0,21.0,-357.0,188,98,99,124,106
2025-02-26 15:10:29.050,-1366.0,3476.0,-715.0,200.0,-28.0,-435.0,186,99,95,123,104
2025-02-26 15:10:29.054,-1220.0,3115.0,-957.0,114.0,-61.0,-495.0,183,93,94,120,101
2025-02-26 15:10:29.058,-1354.0,2606.0,-1367.0,60.0,-153.0,-555.0,184,93,91,120,97
2025-02-26 15:10:29.067,-1035.0,2467.0,-1540.0,10.0,-235.0,-582.0,198,107,107,133,114
2025-02-26 15:10:29.071,-669.0,2069.0,-1650.0,-24.0,-328.0,-634.0,195,104,102,132,110
2025-02-26 15:10:29.078,-248.0,1768.0,-1729.0,-63.0,-436.0,-671.0,209,118,114,144,123
2025-02-26 15:10:29.083,283.0,1534.0,-1706.0,-128.0,-553.0,-700.0,204,114,111,139,120
2025-02-26 15:10:29.091,956.0,1436.0,-1624.0,-223.0,-640.0,-737.0,206,115,111,140,123
2025-02-26 15:10:29.096,1934.0,1212.0,-1496.0,-325.0,-711.0,-749.0,210,118,114,145,127
2025-02-26 15:10:29.100,3182.0,419.0,-961.0,-425.0,-748.0,-730.0,215,123,120,147,129
2025-02-26 15:10:29.108,4282.0,-609.0,-154.0,-519.0,-700.0,-679.0,208,113,111,141,123
2025-02-26 15:10:29.112,5161.0,-2022.0,166.0,-590.0,-579.0,-600.0,205,113,108,134,118
2025-02-26 15:10:29.119,5580.0,-3734.0,760.0,-581.0,-381.0,-508.0,200,105,100,130,109
2025-02-26 15:10:29.124,5482.0,-5801.0,1058.0,-457.0,-165.0,-403.0,195,95,97,127,108
2025-02-26 15:10:29.128,5190.0,-7146.0,1002.0,-256.0,52.0,-303.0,194,98,94,124,108
2025-02-26 15:10:29.135,4449.0,-7713.0,629.0,-144.0,221.0,-221.0,191,96,92,122,103
2025-02-26 15:10:29.140,3486.0,-7342.0,63.0,67.0,306.0,-148.0,192,97,91,122,105
2025-02-26 15:10:29.144,2974.0,-6325.0,-917.0,236.0,333.0,-88.0,189,95,92,118,100
2025-02-26 15:10:29.153,2103.0,-4891.0,-1546.0,330.0,356.0,-37.0,192,95,89,119,98
2025-02-26 15:10:29.157,1252.0,-4328.0,-1628.0,327.0,325.0,-7.0,200,105,105,129,107
2025-02-26 15:10:29.161,709.0,-3238.0,-1504.0,274.0,124.0,38.0,199,105,98,126,106
2025-02-26 15:10:29.169,512.0,-2159.0,-2661.0,215.0,104.0,65.0,202,102,97,122,106
2025-02-26 15:10:29.173,352.0,-1424.0,-1155.0,77.0,12.0,86.0,196,100,96,126,106
2025-02-26 15:10:29.177,144.0,-1351.0,-1029.0,5.0,-45.0,102.0,194,98,95,122,102
2025-02-26 15:10:29.185,370.0,-1751.0,-1135.0,-53.0,-46.0,109.0,197,97,97,125,107
2025-02-26 15:10:29.190,421.0,-1940.0,-501.0,-82.0,-130.0,116.0,191,95,90,119,101
2025-02-26 15:10:29.194,640.0,-2342.0,-115.0,-83.0,-113.0,135.0,188,93,90,119,102
2025-02-26 15:10:29.201,808.0,-2568.0,122.0,-40.0,-96.0,145.0,192,96,91,122,107
2025-02-26 15:10:29.206,1043.0,-2656.0,470.0,-17.0,-45.0,151.0,192,95,88,119,101
2025-02-26 15:10:29.210,1157.0,-2420.0,718.0,25.0,20.0,155.0,189,91,87,117,100
2025-02-26 15:10:29.218,1104.0,-2169.0,797.0,74.0,51.0,156.0,186,88,83,112,95
2025-02-26 15:10:29.222,1001.0,-1997.0,710.0,118.0,103.0,160.0,188,93,87,117,101
2025-02-26 15:10:29.227,731.0,-2021.0,658.0,152.0,141.0,173.0,191,95,89,120,102
2025-02-26 15:10:29.234,515.0,-1678.0,524.0,168.0,134.0,187.0,187,91,85,116,100
2025-02-26 15:10:29.238,446.0,-1510.0,372.0,191.0,130.0,199.0,185,87,84,113,94
2025-02-26 15:10:29.243,451.0,-1282.0,333.0,181.0,132.0,204.0,185,87,84,115,97
2025-02-26 15:10:29.247,328.0,-1157.0,236.0,161.0,132.0,211.0,185,93,89,121,102
2025-02-26 15:10:29.254,197.0,-906.0,166.0,135.0,126.0,209.0,188,92,87,118,100
2025-02-26 15:10:29.259,125.0,-553.0,202.0,110.0,121.0,202.0,187,91,86,116,99
2025-02-26 15:10:29.263,37.0,-323.0,110.0,62.0,119.0,193.0,185,89,85,118,100
2025-02-26 15:10:29.267,-21.0,-227.0,62.0,0.0,116.0,187.0,189,92,88,119,100
2025-02-26 15:10:29.275,-102.0,-210.0,221.0,-34.0,120.0,187.0,187,90,85,116,99
2025-02-26 15:10:29.279,-224.0,-266.0,32.0,-48.0,103.0,180.0,185,87,82,114,96
2025-02-26 15:10:29.283,-140.0,-249.0,203.0,-67.0,67.0,180.0,185,90,87,118,100
2025-02-26 15:10:29.286,-127.0,-359.0,205.0,-74.0,50.0,182.0,187,92,88,120,102
2025-02-26 15:10:29.295,-129.0,-419.0,305.0,-65.0,29.0,184.0,188,93,88,118,101
2025-02-26 15:10:29.298,-141.0,-633.0,288.0,-60.0,33.0,192.0,184,89,85,114,96
2025-02-26 15:10:29.303,-95.0,-660.0,354.0,-76.0,45.0,203.0,187,91,86,116,99
2025-02-26 15:10:29.308,-108.0,-734.0,379.0,-93.0,63.0,212.0,189,93,88,119,100
2025-02-26 15:10:29.316,-94.0,-745.0,385.0,-120.0,84.0,228.0,186,93,86,118,100
2025-02-26 15:10:29.320,-114.0,-705.0,262.0,-120.0,102.0,235.0,184,88,84,114,96
2025-02-26 15:10:29.322,-91.0,-412.0,271.0,-110.0,109.0,218.0,185,90,83,116,98
2025-02-26 15:10:29.333,-52.0,-268.0,270.0,-72.0,123.0,204.0,187,93,88,119,100
2025-02-26 15:10:29.334,-11.0,-249.0,283.0,-16.0,122.0,180.0,184,91,88,118,101
2025-02-26 15:10:29.341,-20.0,-335.0,248.0,7.0,100.0,161.0,186,92,87,118,101
2025-02-26 15:10:29.345,-40.0,-352.0,221.0,45.0,95.0,155.0,183,92,84,116,94
2025-02-26 15:10:29.353,-89.0,-357.0,233.0,60.0,99.0,155.0,187,92,88,120,102
2025-02-26 15:10:29.357,-133.0,-361.0,182.0,60.0,119.0,160.0,185,90,85,118,101
2025-02-26 15:10:29.361,-127.0,-320.0,202.0,58.0,132.0,164.0,182,89,87,114,95
2025-02-26 15:10:29.365,-134.0,-231.0,245.0,51.0,147.0,165.0,181,89,85,116,97
2025-02-26 15:10:29.373,-102.0,-199.0,250.0,48.0,161.0,167.0,186,93,88,119,102
2025-02-26 15:10:29.377,-84.0,-142.0,305.0,52.0,162.0,164.0,185,92,87,116,98
2025-02-26 15:10:29.382,-69.0,-146.0,311.0,78.0,155.0,162.0,182,88,83,115,96
2025-02-26 15:10:29.386,-117.0,-141.0,251.0,97.0,151.0,163.0,183,87,85,117,100
2025-02-26 15:10:29.393,-158.0,-137.0,230.0,101.0,160.0,164.0,186,93,88,120,101
2025-02-26 15:10:29.398,-260.0,-159.0,161.0,107.0,162.0,169.0,186,92,87,117,100
2025-02-26 15:10:29.403,-319.0,-140.0,90.0,107.0,165.0,177.0,182,89,84,116,96
2025-02-26 15:10:29.407,-375.0,-162.0,12.0,114.0,161.0,181.0,183,90,86,116,98
2025-02-26 15:10:29.414,-480.0,-187.0,-43.0,129.0,143.0,192.0,185,90,89,120,100
2025-02-26 15:10:29.419,-526.0,-148.0,-68.0,149.0,127.0,203.0,185,91,87,118,99
2025-02-26 15:10:29.423,-560.0,-77.0,-52.0,160.0,116.0,210.0,187,94,93,122,103
2025-02-26 15:10:29.431,-564.0,207.0,85.0,206.0,113.0,191.0,180,87,85,116,97
2025-02-26 15:10:29.435,-494.0,372.0,219.0,267.0,119.0,173.0,185,90,86,120,100
2025-02-26 15:10:29.439,-450.0,566.0,228.0,333.0,143.0,136.0,185,90,88,118,99
2025-02-26 15:10:29.443,-503.0,712.0,205.0,362.0,170.0,108.0,186,91,88,118,100
2025-02-26 15:10:29.449,-556.0,833.0,42.0,407.0,183.0,95.0,182,87,87,115,96
2025-02-26 15:10:29.456,-719.0,875.0,-212.0,439.0,202.0,91.0,185,91,87,118,100
2025-02-26 15:10:29.459,-847.0,1109.0,-347.0,471.0,213.0,84.0,184,89,88,117,100
2025-02-26 15:10:29.464,-916.0,1334.0,-616.0,486.0,216.0,69.0,185,91,88,117,100
2025-02-26 15:10:29.471,-983.0,1411.0,-921.0,514.0,212.0,43.0,180,87,85,115,97
2025-02-26 15:10:29.473,-1128.0,1447.0,-1307.0,535.0,197.0,24.0,181,88,86,117,96
2025-02-26 15:10:29.480,-1367.0,1583.0,-1542.0,554.0,151.0,-24.0,183,90,88,117,99
2025-02-26 15:10:29.485,-1786.0,2074.0,-1995.0,539.0,74.0,-98.0,181,94,88,119,98
2025-02-26 15:10:29.492,-2274.0,2578.0,-2286.0,519.0,-44.0,-192.0,181,92,87,118,97
2025-02-26 15:10:29.497,-2478.0,3042.0,-2603.0,454.0,-193.0,-300.0,178,88,83,114,96
2025-02-26 15:10:29.504,-2569.0,3597.0,-2797.0,337.0,-279.0,-427.0,179,90,86,117,99
2025-02-26 15:10:29.510,-2504.0,3944.0,-2824.0,178.0,-477.0,-566.0,178,88,84,115,96
2025-02-26 15:10:29.517,-1885.0,4240.0,-2885.0,-3.0,-690.0,-637.0,178,89,84,114,97
2025-02-26 15:10:29.521,-732.0,3910.0,-3085.0,-201.0,-899.0,-767.0,178,88,84,113,95
2025-02-26 15:10:29.526,821.0,3599.0,-3355.0,-407.0,-1112.0,-872.0,183,94,89,120,100
2025-02-26 15:10:29.533,2832.0,2697.0,-3897.0,-631.0,-1316.0,-898.0,186,98,87,119,101
2025-02-26 15:10:29.538,4689.0,923.0,-4052.0,-833.0,-1493.0,-799.0,184,92,88,119,101
2025-02-26 15:10:29.546,6531.0,-1574.0,-3751.0,-979.0,-1537.0,-607.0,185,91,89,119,101
2025-02-26 15:10:29.550,7748.0,-4506.0,-2099.0,-1098.0,-1400.0,-394.0,187,93,90,119,102
2025-02-26 15:10:29.558,8184.0,-6914.0,-21.0,-1153.0,-1115.0,-197.0,185,90,90,119,101
2025-02-26 15:10:29.561,8103.0,-8734.0,1767.0,-1045.0,-752.0,-16.0,186,91,88,120,99
2025-02-26 15:10:29.566,8445.0,-9572.0,2579.0,-735.0,-300.0,71.0,187,93,91,120,104
2025-02-26 15:10:29.574,7920.0,-9015.0,2918.0,-516.0,172.0,77.0,190,93,89,120,101
2025-02-26 15:10:29.578,5977.0,-7913.0,1946.0,-90.0,392.0,51.0,185,91,86,117,100
2025-02-26 15:10:29.583,4977.0,-6686.0,51.0,257.0,467.0,31.0,183,89,84,115,97
2025-02-26 15:10:29.587,3123.0,-6000.0,-2219.0,418.0,590.0,33.0,185,91,87,117,98
2025-02-26 15:10:29.595,1309.0,-4719.0,-3166.0,547.0,620.0,65.0,185,91,86,118,96
2025-02-26 15:10:29.599,366.0,-2308.0,-4980.0,356.0,426.0,116.0,185,88,88,117,95
2025-02-26 15:10:29.603,-1338.0,-1426.0,-5426.0,468.0,255.0,162.0,188,92,90,120,98
2025-02-26 15:10:29.611,-992.0,-298.0,-2931.0,365.0,131.0,191.0,183,87,85,114,93
2025-02-26 15:10:29.613,-797.0,845.0,-2059.0,123.0,-73.0,171.0,181,87,83,113,91
2025-02-26 15:10:29.618,-231.0,397.0,-1494.0,-63.0,28.0,151.0,184,89,85,116,96
2025-02-26 15:10:29.627,-250.0,-3.0,-1064.0,-84.0,-117.0,127.0,187,92,88,119,99
2025-02-26 15:10:29.630,170.0,-839.0,-466.0,-141.0,-202.0,124.0,184,92,87,118,98
2025-02-26 15:10:29.636,268.0,-1819.0,296.0,-118.0,-173.0,121.0,181,86,82,110,95
2025-02-26 15:10:29.642,359.0,-2252.0,749.0,-73.0,-175.0,127.0,182,86,82,114,95
2025-02-26 15:10:29.648,1043.0,-2139.0,862.0,10.0,-109.0,128.0,185,92,85,119,100
2025-02-26 15:10:29.652,1258.0,-2355.0,1464.0,-4.0,6.0,133.0,185,93,88,120,101
2025-02-26 15:10:29.656,1291.0,-1923.0,1334.0,38.0,120.0,141.0,184,90,86,117,99
2025-02-26 15:10:29.661,980.0,-2177.0,1005.0,129.0,205.0,149.0,185,92,89,120,102
2025-02-26 15:10:29.669,952.0,-1618.0,1011.0,134.0,245.0,165.0,182,88,85,116,99
2025-02-26 15:10:29.673,733.0,-1696.0,883.0,181.0,206.0,179.0,183,88,83,116,95
2025-02-26 15:10:29.681,371.0,-1723.0,700.0,184.0,166.0,211.0,185,92,87,117,100
2025-02-26 15:10:29.685,351.0,-1313.0,392.0,179.0,167.0,221.0,187,92,89,121,102
2025-02-26 15:10:29.690,287.0,-1010.0,303.0,152.0,172.0,237.0,183,89,86,118,99
2025-02-26 15:10:29.696,220.0,-740.0,212.0,112.0,173.0,240.0,181,88,84,117,97
2025-02-26 15:10:29.701,188.0,-585.0,129.0,48.0,168.0,242.0,184,90,89,121,100
2025-02-26 15:10:29.706,131.0,-284.0,227.0,-61.0,178.0,244.0,186,92,90,120,103
2025-02-26 15:10:29.709,37.0,-99.0,68.0,-97.0,173.0,246.0,180,88,85,118,97
2025-02-26 15:10:29.717,-2.0,-184.0,-153.0,-149.0,160.0,250.0,180,85,82,115,95
2025-02-26 15:10:29.721,-125.0,-440.0,-114.0,-179.0,137.0,256.0,184,91,87,119,100
2025-02-26 15:10:29.726,-128.0,-161.0,-75.0,-175.0,90.0,247.0,185,88,88,121,102
2025-02-26 15:10:29.730,-65.0,-359.0,62.0,-175.0,48.0,237.0,186,91,88,120,101
2025-02-26 15:10:29.738,-94.0,-484.0,195.0,-163.0,36.0,233.0,180,87,83,120,96
2025-02-26 15:10:29.742,93.0,-515.0,233.0,-153.0,44.0,231.0,185,90,88,122,101
2025-02-26 15:10:29.746,97.0,-564.0,262.0,-150.0,58.0,232.0,186,86,87,122,106
2025-02-26 15:10:29.751,191.0,-663.0,421.0,-165.0,87.0,239.0,181,89,89,119,100
2025-02-26 15:10:29.758,170.0,-745.0,410.0,-184.0,111.0,255.0,180,86,84,116,99
2025-02-26 15:10:29.762,142.0,-774.0,257.0,-206.0,151.0,266.0,182,90,90,123,103
2025-02-26 15:10:29.767,83.0,-834.0,229.0,-192.0,189.0,291.0,185,93,92,125,104
2025-02-26 15:10:29.775,95.0,-829.0,140.0,-173.0,216.0,313.0,183,90,90,123,103
2025-02-26 15:10:29.778,106.0,-820.0,47.0,-155.0,223.0,329.0,182,88,87,121,101
2025-02-26 15:10:29.782,82.0,-745.0,-4.0,-87.0,222.0,333.0,183,90,92,125,106
2025-02-26 15:10:29.789,71.0,-628.0,-11.0,-19.0,203.0,330.0,185,92,96,128,109
2025-02-26 15:10:29.794,26.0,-555.0,91.0,4.0,194.0,335.0,183,91,97,127,110
2025-02-26 15:10:29.800,79.0,-355.0,153.0,62.0,190.0,330.0,179,89,93,127,108
2025-02-26 15:10:29.800,48.0,-191.0,215.0,80.0,199.0,338.0,187,97,103,135,120
2025-02-26 15:10:29.806,255.0,-465.0,701.0,83.0,225.0,345.0,185,96,98,134,122
2025-02-26 15:10:29.812,151.0,34.0,265.0,81.0,224.0,358.0,179,93,96,131,123
2025-02-26 15:10:29.820,124.0,-233.0,459.0,116.0,273.0,358.0,179,94,95,131,125
2025-02-26 15:10:29.824,60.0,38.0,457.0,206.0,317.0,371.0,185,104,103,140,135
2025-02-26 15:10:29.828,-122.0,245.0,-357.0,228.0,291.0,369.0,181,102,100,138,135
2025-02-26 15:10:29.836,-309.0,244.0,-338.0,290.0,272.0,374.0,177,101,99,139,135
2025-02-26 15:10:29.841,-302.0,287.0,-439.0,322.0,254.0,375.0,177,103,99,140,134
2025-02-26 15:10:29.844,-444.0,326.0,-677.0,341.0,196.0,367.0,176,104,101,141,136
2025-02-26 15:10:29.853,-472.0,460.0,-394.0,423.0,156.0,358.0,179,112,110,147,140
2025-02-26 15:10:29.857,-560.0,719.0,-664.0,441.0,116.0,340.0,179,119,110,145,139
2025-02-26 15:10:29.860,-772.0,1098.0,-794.0,436.0,86.0,289.0,176,114,113,148,142
2025-02-26 15:10:29.869,-1020.0,1952.0,-1347.0,393.0,18.0,213.0,177,117,116,146,143
2025-02-26 15:10:29.873,-1237.0,2716.0,-1906.0,374.0,-73.0,123.0,174,116,113,145,140
2025-02-26 15:10:29.881,-1321.0,3001.0,-1822.0,326.0,-106.0,34.0,174,118,113,144,138
2025-02-26 15:10:29.885,-1606.0,2628.0,-1418.0,246.0,-133.0,-63.0,175,122,119,144,141
2025-02-26 15:10:29.890,-1795.0,2211.0,-1117.0,186.0,-162.0,-157.0,174,123,116,137,139
2025-02-26 15:10:29.897,-1650.0,2247.0,-1020.0,139.0,-211.0,-252.0,179,122,118,144,139
2025-02-26 15:10:29.902,-1177.0,2070.0,-1011.0,115.0,-250.0,-346.0,173,128,123,141,140
2025-02-26 15:10:29.910,-918.0,1879.0,-1123.0,99.0,-297.0,-440.0,174,130,122,143,143
2025-02-26 15:10:29.914,-889.0,1565.0,-1084.0,89.0,-345.0,-521.0,174,130,122,142,142
2025-02-26 15:10:29.918,-784.0,1484.0,-795.0,95.0,-364.0,-556.0,174,132,124,144,144
2025-02-26 15:10:29.926,-698.0,1413.0,-629.0,71.0,-384.0,-630.0,171,135,126,145,148
2025-02-26 15:10:29.930,-482.0,1083.0,-1349.0,75.0,-449.0,-668.0,179,139,131,148,149
2025-02-26 15:10:29.939,332.0,527.0,-309.0,16.0,-491.0,-703.0,183,140,131,144,150
2025-02-26 15:10:29.943,885.0,597.0,-273.0,-33.0,-520.0,-735.0,174,140,132,150,151
2025-02-26 15:10:29.947,1313.0,365.0,150.0,-132.0,-568.0,-752.0,176,143,133,153,153
2025-02-26 15:10:29.955,1732.0,85.0,602.0,-179.0,-693.0,-768.0,174,142,132,151,151
2025-02-26 15:10:29.959,2259.0,-413.0,1135.0,-264.0,-772.0,-761.0,175,143,133,151,150
2025-02-26 15:10:29.967,2633.0,-730.0,423.0,-275.0,-767.0,-713.0,175,144,133,152,152
2025-02-26 15:10:29.972,3348.0,-950.0,-174.0,-290.0,-767.0,-629.0,176,143,135,150,151
2025-02-26 15:10:29.976,3821.0,-2009.0,-84.0,-294.0,-784.0,-509.0,175,147,135,151,147
2025-02-26 15:10:29.984,4770.0,-3669.0,-10.0,-311.0,-794.0,-369.0,175,146,137,152,149
2025-02-26 15:10:29.988,4254.0,-5307.0,-126.0,-402.0,-724.0,-215.0,174,147,137,155,150
2025-02-26 15:10:29.996,3211.0,-5896.0,86.0,-429.0,-559.0,-56.0,175,148,136,153,151
2025-02-26 15:10:30.000,3012.0,-5433.0,336.0,-300.0,-419.0,48.0,176,150,138,156,152
2025-02-26 15:10:30.005,3295.0,-5288.0,645.0,-211.0,-249.0,88.0,181,156,147,163,160
2025-02-26 15:10:30.012,2958.0,-5390.0,391.0,-166.0,-94.0,165.0,186,161,152,166,164
2025-02-26 15:10:30.017,2656.0,-5020.0,-189.0,-105.0,20.0,215.0,189,166,152,168,164
2025-02-26 15:10:30.019,2303.0,-4039.0,-279.0,7.0,100.0,233.0,189,165,154,170,166
2025-02-26 15:10:30.028,1848.0,-3244.0,-31.0,68.0,182.0,244.0,189,164,153,170,167
2025-02-26 15:10:30.034,1397.0,-2723.0,-165.0,65.0,215.0,253.0,186,160,150,167,164
2025-02-26 15:10:30.040,1007.0,-2070.0,-332.0,115.0,164.0,257.0,184,158,149,163,161
2025-02-26 15:10:30.042,746.0,-1551.0,-978.0,78.0,120.0,260.0,186,160,151,168,164
2025-02-26 15:10:30.042,477.0,-960.0,20.0,162.0,129.0,259.0,184,158,147,164,163
2025-02-26 15:10:30.057,262.0,-1115.0,-163.0,185.0,111.0,264.0,188,161,149,165,163
2025-02-26 15:10:30.057,196.0,-1109.0,306.0,151.0,101.0,274.0,188,160,150,167,165
2025-02-26 15:10:30.057,149.0,-1043.0,357.0,139.0,132.0,289.0,190,162,152,168,170
2025-02-26 15:10:30.074,12.0,-1076.0,173.0,119.0,153.0,309.0,188,160,149,168,166
2025-02-26 15:10:30.078,-16.0,-843.0,-79.0,66.0,151.0,313.0,184,155,144,162,162
2025-02-26 15:10:30.082,8.0,-713.0,52.0,31.0,157.0,307.0,184,156,144,164,161
2025-02-26 15:10:30.086,-53.0,-662.0,18.0,32.0,154.0,300.0,188,161,151,169,166
2025-02-26 15:10:30.094,-132.0,-653.0,-77.0,50.0,133.0,283.0,189,159,149,168,164
2025-02-26 15:10:30.098,-86.0,-650.0,52.0,80.0,94.0,264.0,186,154,146,165,164
2025-02-26 15:10:30.103,-154.0,-834.0,-285.0,91.0,59.0,241.0,188,159,150,167,165
2025-02-26 15:10:30.110,-184.0,-778.0,46.0,105.0,22.0,237.0,185,156,144,162,160
2025-02-26 15:10:30.115,400.0,-465.0,252.0,164.0,56.0,186.0,188,159,148,168,166
2025-02-26 15:10:30.119,519.0,-634.0,326.0,327.0,151.0,85.0,188,158,147,166,165
2025-02-26 15:10:30.127,-108.0,-1692.0,-122.0,74.0,235.0,138.0,190,161,150,169,169
2025-02-26 15:10:30.132,-933.0,-1504.0,-94.0,133.0,232.0,200.0,186,158,147,165,164
2025-02-26 15:10:30.135,-1073.0,-641.0,749.0,-24.0,203.0,168.0,181,156,149,163,162
2025-02-26 15:10:30.144,232.0,-600.0,369.0,-46.0,136.0,196.0,186,162,144,164,162
2025-02-26 15:10:30.147,265.0,-742.0,-297.0,-78.0,118.0,186.0,192,161,149,168,166
2025-02-26 15:10:30.152,106.0,-825.0,155.0,-147.0,173.0,192.0,190,164,152,167,166
2025-02-26 15:10:30.160,-645.0,-637.0,-214.0,-125.0,173.0,220.0,187,161,150,168,166
2025-02-26 15:10:30.164,-500.0,-651.0,494.0,-98.0,138.0,273.0,192,165,154,171,170
2025-02-26 15:10:30.168,-553.0,-730.0,-225.0,-98.0,73.0,308.0,187,160,148,168,166
2025-02-26 15:10:30.176,-419.0,-402.0,-16.0,-183.0,51.0,318.0,185,158,147,163,162
2025-02-26 15:10:30.181,-22.0,-236.0,354.0,-222.0,27.0,315.0,187,158,145,164,163
2025-02-26 15:10:30.185,75.0,-315.0,236.0,-223.0,11.0,299.0,188,165,153,168,168
2025-02-26 15:10:30.192,-61.0,-270.0,227.0,-172.0,17.0,300.0,190,162,152,168,167
2025-02-26 15:10:30.195,-190.0,-246.0,109.0,-156.0,23.0,302.0,187,155,148,168,167
2025-02-26 15:10:30.201,-174.0,-196.0,345.0,-126.0,41.0,303.0,185,156,148,165,164
2025-02-26 15:10:30.209,-94.0,-140.0,375.0,-69.0,62.0,300.0,184,155,147,163,163
2025-02-26 15:10:30.213,-152.0,-112.0,365.0,-13.0,85.0,298.0,184,152,146,164,162
2025-02-26 15:10:30.218,-298.0,-251.0,-136.0,-7.0,87.0,294.0,188,156,150,168,165
2025-02-26 15:10:30.221,-425.0,-93.0,236.0,-3.0,75.0,292.0,192,160,153,171,170
2025-02-26 15:10:30.229,-376.0,138.0,260.0,5.0,81.0,286.0,185,153,147,169,164
2025-02-26 15:10:30.233,-428.0,464.0,193.0,47.0,81.0,274.0,184,150,144,163,161
2025-02-26 15:10:30.238,-582.0,537.0,757.0,77.0,85.0,262.0,182,151,143,163,162
2025-02-26 15:10:30.246,-675.0,513.0,-68.0,114.0,60.0,255.0,191,157,151,169,168
2025-02-26 15:10:30.249,-701.0,675.0,208.0,134.0,53.0,233.0,188,156,148,166,165
2025-02-26 15:10:30.255,-726.0,509.0,285.0,174.0,58.0,217.0,182,153,145,162,162
2025-02-26 15:10:30.259,-768.0,718.0,176.0,208.0,60.0,199.0,182,151,143,156,161
2025-02-26 15:10:30.267,-602.0,778.0,193.0,282.0,77.0,190.0,187,155,149,165,167
2025-02-26 15:10:30.271,-629.0,853.0,63.0,352.0,75.0,161.0,188,156,147,166,167
2025-02-26 15:10:30.275,-485.0,885.0,95.0,402.0,74.0,136.0,184,153,144,162,168
2025-02-26 15:10:30.283,-504.0,1035.0,-203.0,480.0,67.0,105.0,180,151,143,163,162
2025-02-26 15:10:30.288,-594.0,1229.0,-223.0,566.0,37.0,76.0,182,152,146,162,165
2025-02-26 15:10:30.292,-707.0,1328.0,-269.0,582.0,22.0,63.0,185,154,145,165,167
2025-02-26 15:10:30.299,-882.0,1717.0,-387.0,617.0,0.0,14.0,186,156,144,165,166
2025-02-26 15:10:30.303,-1061.0,1997.0,-705.0,617.0,-53.0,-62.0,189,160,148,170,170
2025-02-26 15:10:30.308,-1205.0,2050.0,-948.0,597.0,-121.0,-147.0,183,155,143,165,167
2025-02-26 15:10:30.316,-1233.0,2199.0,-1280.0,522.0,-182.0,-241.0,184,155,144,164,167
2025-02-26 15:10:30.320,-1310.0,2484.0,-1426.0,445.0,-227.0,-329.0,184,156,144,163,168
2025-02-26 15:10:30.328,-1309.0,2580.0,-1553.0,368.0,-287.0,-411.0,187,157,146,166,170
2025-02-26 15:10:30.333,-1185.0,2349.0,-1411.0,311.0,-350.0,-481.0,186,158,144,164,167
2025-02-26 15:10:30.340,-936.0,2087.0,-1126.0,231.0,-407.0,-540.0,183,158,145,165,169
2025-02-26 15:10:30.344,-363.0,1809.0,-729.0,140.0,-471.0,-599.0,188,161,150,170,174
2025-02-26 15:10:30.348,142.0,1404.0,-216.0,35.0,-552.0,-652.0,182,157,147,163,168
2025-02-26 15:10:30.357,364.0,984.0,5.0,-52.0,-600.0,-672.0,183,157,145,160,165
2025-02-26 15:10:30.360,910.0,825.0,57.0,-77.0,-674.0,-674.0,178,156,145,163,167
2025-02-26 15:10:30.365,1440.0,403.0,45.0,-104.0,-705.0,-675.0,184,162,150,166,171
2025-02-26 15:10:30.370,2357.0,-330.0,189.0,-201.0,-735.0,-668.0,186,163,150,167,171
2025-02-26 15:10:30.377,3311.0,-1010.0,508.0,-285.0,-762.0,-624.0,184,163,150,167,171
2025-02-26 15:10:30.385,4216.0,-1553.0,647.0,-283.0,-765.0,-521.0,187,167,155,171,174
2025-02-26 15:10:30.388,4579.0,-2783.0,560.0,-364.0,-724.0,-428.0,183,165,152,168,170
2025-02-26 15:10:30.394,4171.0,-4295.0,822.0,-472.0,-640.0,-351.0,184,164,153,168,168
2025-02-26 15:10:30.401,3546.0,-5347.0,1005.0,-491.0,-546.0,-265.0,185,165,155,167,169
2025-02-26 15:10:30.406,3183.0,-5211.0,1198.0,-373.0,-444.0,-174.0,187,163,153,169,173
2025-02-26 15:10:30.414,2970.0,-4796.0,1422.0,-274.0,-314.0,-80.0,187,165,154,169,170
2025-02-26 15:10:30.419,2786.0,-4774.0,1504.0,-274.0,-155.0,10.0,186,164,153,169,169
2025-02-26 15:10:30.426,2479.0,-4431.0,1057.0,-290.0,-18.0,88.0,190,164,154,170,170
2025-02-26 15:10:30.429,2183.0,-4134.0,614.0,-252.0,45.0,134.0,188,164,150,168,170
2025-02-26 15:10:30.435,1813.0,-3697.0,410.0,-230.0,44.0,169.0,185,160,149,164,166
2025-02-26 15:10:30.443,1677.0,-3000.0,638.0,-179.0,86.0,174.0,186,159,149,161,165
2025-02-26 15:10:30.447,1401.0,-2751.0,569.0,-155.0,110.0,180.0,185,159,153,167,168
2025-02-26 15:10:30.451,936.0,-2461.0,41.0,-74.0,64.0,181.0,187,160,148,165,166
2025-02-26 15:10:30.459,728.0,-2004.0,121.0,-9.0,39.0,176.0,188,164,152,168,169
2025-02-26 15:10:30.463,587.0,-1805.0,46.0,5.0,52.0,170.0,193,166,156,172,173
2025-02-26 15:10:30.467,478.0,-1721.0,708.0,61.0,72.0,177.0,187,162,149,165,167
2025-02-26 15:10:30.471,317.0,-1721.0,954.0,107.0,125.0,190.0,184,160,149,164,165
2025-02-26 15:10:30.480,360.0,-1730.0,351.0,149.0,109.0,193.0,183,158,148,164,166
2025-02-26 15:10:30.484,245.0,-1652.0,420.0,163.0,113.0,209.0,190,166,156,171,172
2025-02-26 15:10:30.488,180.0,-1593.0,436.0,141.0,153.0,224.0,188,163,152,169,170
2025-02-26 15:10:30.496,149.0,-1465.0,413.0,124.0,216.0,237.0,185,160,150,166,168
2025-02-26 15:10:30.498,102.0,-1548.0,459.0,84.0,257.0,244.0,184,160,148,165,166
2025-02-26 15:10:30.504,142.0,-1396.0,182.0,81.0,258.0,239.0,185,160,149,166,165
2025-02-26 15:10:30.512,250.0,-977.0,2.0,129.0,257.0,243.0,182,157,148,165,163
2025-02-26 15:10:30.516,153.0,-1314.0,31.0,156.0,244.0,239.0,188,162,151,168,165
2025-02-26 15:10:30.522,216.0,-1308.0,-433.0,136.0,216.0,236.0,188,161,151,168,167
2025-02-26 15:10:30.528,190.0,-1283.0,270.0,140.0,268.0,226.0,188,161,149,168,167
2025-02-26 15:10:30.533,302.0,-744.0,22.0,201.0,240.0,209.0,185,156,146,165,164
2025-02-26 15:10:30.537,174.0,-1104.0,290.0,178.0,203.0,213.0,184,157,144,163,162
2025-02-26 15:10:30.545,-182.0,-1496.0,958.0,54.0,186.0,219.0,184,157,146,166,165
2025-02-26 15:10:30.549,-50.0,-964.0,760.0,30.0,246.0,226.0,194,159,149,168,167
2025-02-26 15:10:30.552,-96.0,-858.0,513.0,6.0,264.0,232.0,189,159,146,167,166
2025-02-26 15:10:30.559,87.0,-661.0,221.0,-41.0,251.0,221.0,189,157,146,165,164
2025-02-26 15:10:30.566,131.0,-695.0,136.0,-105.0,246.0,212.0,188,156,145,166,162
2025-02-26 15:10:30.570,204.0,-661.0,40.0,-163.0,224.0,211.0,186,153,144,164,163
2025-02-26 15:10:30.578,139.0,-499.0,300.0,-208.0,217.0,212.0,188,153,147,166,165
2025-02-26 15:10:30.582,-131.0,-344.0,232.0,-236.0,193.0,232.0,188,155,145,167,165
2025-02-26 15:10:30.587,-470.0,-442.0,66.0,-227.0,172.0,257.0,189,156,145,167,167
2025-02-26 15:10:30.594,-409.0,-432.0,237.0,-188.0,174.0,284.0,185,153,142,165,163
2025-02-26 15:10:30.599,-367.0,-529.0,96.0,-210.0,142.0,303.0,186,152,141,165,162
2025-02-26 15:10:30.603,-158.0,-220.0,118.0,-267.0,112.0,290.0,187,148,141,163,161
2025-02-26 15:10:30.611,23.0,-210.0,355.0,-262.0,84.0,290.0,184,144,135,162,155
2025-02-26 15:10:30.615,-170.0,30.0,339.0,-190.0,98.0,286.0,188,142,138,163,154
2025-02-26 15:10:30.619,-34.0,-164.0,352.0,-157.0,117.0,289.0,187,137,136,163,152
2025-02-26 15:10:30.627,-85.0,-163.0,258.0,-149.0,104.0,292.0,189,134,132,165,151
2025-02-26 15:10:30.631,-192.0,-201.0,68.0,-143.0,84.0,293.0,187,131,130,161,147
2025-02-26 15:10:30.636,-246.0,-192.0,289.0,-151.0,83.0,299.0,182,124,126,157,142
2025-02-26 15:10:30.643,-189.0,-229.0,225.0,-105.0,89.0,304.0,183,120,123,158,139
2025-02-26 15:10:30.647,-368.0,-181.0,180.0,-30.0,102.0,307.0,181,118,122,155,139
2025-02-26 15:10:30.651,-277.0,-216.0,115.0,20.0,115.0,306.0,188,119,124,159,139
2025-02-26 15:10:30.659,-241.0,-66.0,96.0,70.0,118.0,301.0,184,116,121,157,138
2025-02-26 15:10:30.662,-303.0,-112.0,108.0,97.0,131.0,297.0,188,118,121,159,140
2025-02-26 15:10:30.668,-338.0,-51.0,220.0,156.0,144.0,293.0,181,107,114,153,131
2025-02-26 15:10:30.673,-342.0,82.0,130.0,212.0,161.0,292.0,184,107,112,150,128
2025-02-26 15:10:30.680,-327.0,336.0,-191.0,271.0,173.0,284.0,183,108,114,151,130
2025-02-26 15:10:30.685,-360.0,491.0,-187.0,333.0,172.0,264.0,185,108,113,151,129
2025-02-26 15:10:30.693,-470.0,837.0,-405.0,407.0,170.0,243.0,185,107,111,141,128
2025-02-26 15:10:30.697,-533.0,931.0,61.0,428.0,177.0,220.0,178,104,106,147,123
2025-02-26 15:10:30.698,-583.0,1046.0,-504.0,487.0,170.0,182.0,178,100,104,144,119
2025-02-26 15:10:30.709,-694.0,1337.0,-388.0,524.0,155.0,139.0,178,100,102,142,117
2025-02-26 15:10:30.713,-657.0,1323.0,-596.0,533.0,126.0,111.0,175,97,100,138,112
2025-02-26 15:10:30.717,-760.0,1839.0,-798.0,497.0,85.0,43.0,182,101,102,140,115
2025-02-26 15:10:30.723,-1040.0,2037.0,-857.0,432.0,62.0,-37.0,186,106,106,143,117
2025-02-26 15:10:30.729,-1016.0,2255.0,-1069.0,377.0,22.0,-132.0,179,100,102,136,111
2025-02-26 15:10:30.734,-1210.0,2531.0,-1185.0,347.0,-28.0,-221.0,176,97,99,135,107
2025-02-26 15:10:30.741,-1327.0,2800.0,-1500.0,294.0,-101.0,-308.0,179,99,99,133,104
2025-02-26 15:10:30.746,-1205.0,2749.0,-1765.0,238.0,-171.0,-406.0,177,95,97,131,100
2025-02-26 15:10:30.750,-942.0,2857.0,-2094.0,188.0,-208.0,-499.0,175,91,94,126,95
2025-02-26 15:10:30.758,-886.0,2816.0,-2107.0,119.0,-280.0,-567.0,174,89,92,122,94
2025-02-26 15:10:30.762,-520.0,2575.0,-1962.0,21.0,-353.0,-603.0,179,95,96,123,100
2025-02-26 15:10:30.770,-450.0,2300.0,-1741.0,-64.0,-432.0,-673.0,176,91,92,118,94
2025-02-26 15:10:30.775,-392.0,1902.0,-1765.0,-139.0,-539.0,-747.0,178,92,93,120,98
2025-02-26 15:10:30.778,-177.0,1648.0,-1858.0,-197.0,-680.0,-819.0,178,93,93,120,97
2025-02-26 15:10:30.786,419.0,1600.0,-2154.0,-255.0,-832.0,-873.0,174,95,93,122,101
2025-02-26 15:10:30.789,1494.0,1382.0,-2378.0,-339.0,-971.0,-915.0,183,94,91,118,103
2025-02-26 15:10:30.799,2960.0,1193.0,-2386.0,-398.0,-1071.0,-920.0,181,92,92,117,99
2025-02-26 15:10:30.801,4193.0,503.0,-1876.0,-525.0,-1121.0,-879.0,185,96,97,121,103
2025-02-26 15:10:30.808,5632.0,-1204.0,-1135.0,-642.0,-1093.0,-748.0,186,96,93,119,102
2025-02-26 15:10:30.813,6006.0,-3231.0,-585.0,-744.0,-940.0,-557.0,186,93,92,118,102
2025-02-26 15:10:30.819,6033.0,-4974.0,201.0,-793.0,-696.0,-369.0,184,91,88,115,98
2025-02-26 15:10:30.824,5787.0,-5959.0,849.0,-761.0,-576.0,-217.0,182,89,89,113,99
2025-02-26 15:10:30.831,5464.0,-6398.0,1147.0,-611.0,-336.0,-126.0,185,90,88,114,98
2025-02-26 15:10:30.836,5350.0,-6575.0,1142.0,-381.0,-84.0,-93.0,185,88,86,114,98
2025-02-26 15:10:30.843,4642.0,-6886.0,736.0,-104.0,113.0,-45.0,189,92,90,118,101
2025-02-26 15:10:30.849,3307.0,-6864.0,422.0,165.0,222.0,-4.0,190,92,91,118,101
2025-02-26 15:10:30.853,2359.0,-5684.0,-544.0,245.0,295.0,29.0,188,93,92,119,100
2025-02-26 15:10:30.856,1478.0,-4137.0,-1276.0,345.0,329.0,68.0,184,90,88,116,96
2025-02-26 15:10:30.865,1198.0,-3027.0,-2790.0,366.0,315.0,120.0,187,93,91,116,96
2025-02-26 15:10:30.868,379.0,-1382.0,-1714.0,313.0,164.0,135.0,186,89,89,115,94
2025-02-26 15:10:30.873,764.0,-1275.0,-1702.0,268.0,147.0,146.0,189,95,92,118,99
2025-02-26 15:10:30.881,197.0,-909.0,-1397.0,173.0,31.0,149.0,189,94,95,121,99
2025-02-26 15:10:30.885,116.0,-642.0,-1024.0,94.0,12.0,145.0,189,95,91,119,96
2025-02-26 15:10:30.890,248.0,-1021.0,-1024.0,9.0,20.0,133.0,188,91,90,117,95
2025-02-26 15:10:30.896,246.0,-1156.0,-443.0,-37.0,-48.0,132.0,187,90,92,119,96
2025-02-26 15:10:30.901,350.0,-1421.0,-331.0,-75.0,-51.0,130.0,190,95,97,123,102
2025-02-26 15:10:30.906,574.0,-1842.0,54.0,-74.0,-32.0,135.0,190,96,92,122,103
2025-02-26 15:10:30.910,612.0,-2439.0,353.0,-49.0,-28.0,150.0,187,89,90,119,99
2025-02-26 15:10:30.916,886.0,-2203.0,425.0,-35.0,2.0,170.0,185,90,87,116,99
2025-02-26 15:10:30.922,886.0,-2141.0,512.0,-21.0,64.0,174.0,190,96,95,123,104
2025-02-26 15:10:30.926,611.0,-2287.0,502.0,22.0,92.0,199.0,191,96,97,123,101
2025-02-26 15:10:30.931,478.0,-2213.0,338.0,57.0,118.0,220.0,187,91,92,122,101
2025-02-26 15:10:30.938,466.0,-2153.0,215.0,90.0,120.0,251.0,190,96,94,122,105
2025-02-26 15:10:30.941,472.0,-2002.0,166.0,101.0,129.0,268.0,200,106,106,133,115
2025-02-26 15:10:30.947,258.0,-1697.0,153.0,127.0,94.0,300.0,197,104,101,129,111
2025-02-26 15:10:30.955,379.0,-1160.0,167.0,132.0,107.0,293.0,194,101,100,128,110
2025-02-26 15:10:30.959,390.0,-747.0,232.0,126.0,119.0,268.0,196,102,100,128,109
2025-02-26 15:10:30.964,420.0,-553.0,220.0,124.0,117.0,239.0,194,102,99,126,107
2025-02-26 15:10:30.969,334.0,-465.0,269.0,103.0,130.0,231.0,191,98,97,126,105
2025-02-26 15:10:30.975,206.0,-409.0,213.0,53.0,152.0,225.0,195,103,94,128,109
2025-02-26 15:10:30.979,119.0,-256.0,195.0,-17.0,163.0,230.0,196,102,97,129,110
2025-02-26 15:10:30.983,-13.0,-305.0,93.0,-37.0,172.0,239.0,192,100,98,127,107
2025-02-26 15:10:30.989,-122.0,-256.0,152.0,-49.0,153.0,234.0,192,97,96,125,104
2025-02-26 15:10:30.996,-214.0,-296.0,61.0,-63.0,130.0,230.0,201,100,96,128,108
2025-02-26 15:10:31.000,-249.0,-359.0,109.0,-59.0,101.0,223.0,195,101,100,130,109
2025-02-26 15:10:31.007,-317.0,-332.0,100.0,-54.0,84.0,210.0,196,106,102,130,108
2025-02-26 15:10:31.012,-372.0,-374.0,166.0,-64.0,73.0,201.0,195,102,99,128,108
2025-02-26 15:10:31.017,-381.0,-460.0,99.0,-63.0,75.0,199.0,190,97,94,123,104
2025-02-26 15:10:31.024,-384.0,-440.0,54.0,-83.0,84.0,204.0,195,104,103,129,109
2025-02-26 15:10:31.029,-424.0,-504.0,81.0,-89.0,88.0,213.0,195,103,101,129,109
2025-02-26 15:10:31.031,-277.0,-477.0,162.0,-93.0,93.0,222.0,193,103,99,127,109
2025-02-26 15:10:31.037,-214.0,-401.0,246.0,-88.0,101.0,216.0,192,97,96,124,103
2025-02-26 15:10:31.045,-170.0,-327.0,420.0,-50.0,96.0,194.0,194,99,96,126,106
2025-02-26 15:10:31.049,-84.0,-297.0,380.0,12.0,91.0,180.0,195,103,102,129,110
2025-02-26 15:10:31.053,-1.0,-369.0,425.0,49.0,111.0,161.0,194,102,101,128,107
2025-02-26 15:10:31.060,-133.0,-381.0,372.0,62.0,128.0,158.0,192,99,99,127,107
2025-02-26 15:10:31.065,-145.0,-401.0,329.0,79.0,137.0,169.0,184,98,97,128,105
2025-02-26 15:10:31.070,-160.0,-335.0,347.0,67.0,157.0,178.0,190,98,97,124,105
2025-02-26 15:10:31.073,-164.0,-259.0,326.0,60.0,174.0,193.0,194,102,101,127,108
2025-02-26 15:10:31.081,-184.0,-176.0,335.0,56.0,182.0,200.0,194,101,101,128,108
2025-02-26 15:10:31.086,-217.0,-146.0,264.0,53.0,188.0,201.0,192,100,101,127,109
2025-02-26 15:10:31.090,-271.0,-161.0,114.0,75.0,184.0,199.0,189,97,97,125,105
2025-02-26 15:10:31.096,-460.0,-100.0,26.0,83.0,168.0,199.0,187,93,95,122,102
2025-02-26 15:10:31.102,-625.0,40.0,-45.0,90.0,152.0,196.0,194,104,104,131,111
2025-02-26 15:10:31.106,-721.0,225.0,-120.0,90.0,132.0,190.0,192,100,100,128,109
2025-02-26 15:10:31.111,-781.0,436.0,-172.0,86.0,125.0,179.0,189,98,97,125,105
2025-02-26 15:10:31.115,-788.0,623.0,-169.0,87.0,110.0,165.0,187,98,97,124,104
2025-02-26 15:10:31.123,-807.0,698.0,-167.0,94.0,94.0,159.0,194,106,104,134,115
2025-02-26 15:10:31.127,-828.0,847.0,-133.0,118.0,83.0,140.0,194,102,102,127,110
2025-02-26 15:10:31.134,-751.0,1028.0,-48.0,137.0,81.0,109.0,190,100,99,127,107
2025-02-26 15:10:31.139,-711.0,1139.0,-22.0,182.0,86.0,73.0,189,98,96,124,105
2025-02-26 15:10:31.144,-725.0,1207.0,-120.0,221.0,105.0,56.0,189,98,97,126,105
2025-02-26 15:10:31.151,-868.0,1353.0,-298.0,249.0,115.0,25.0,193,103,103,131,110
2025-02-26 15:10:31.155,-1028.0,1540.0,-426.0,264.0,113.0,-8.0,191,101,96,127,108
2025-02-26 15:10:31.160,-1229.0,1849.0,-652.0,267.0,100.0,-58.0,190,100,98,128,108
2025-02-26 15:10:31.168,-1363.0,2148.0,-838.0,265.0,63.0,-128.0,199,103,103,126,109
2025-02-26 15:10:31.172,-1534.0,2385.0,-1119.0,258.0,11.0,-215.0,188,98,95,124,105
2025-02-26 15:10:31.176,-1624.0,2582.0,-1442.0,241.0,-26.0,-307.0,185,99,98,125,104
2025-02-26 15:10:31.184,-1698.0,2632.0,-1661.0,200.0,-113.0,-400.0,189,103,101,127,107
2025-02-26 15:10:31.188,-1753.0,2676.0,-1734.0,136.0,-210.0,-495.0,187,98,95,124,104
2025-02-26 15:10:31.196,-1506.0,2539.0,-1732.0,65.0,-320.0,-544.0,187,98,96,127,105
2025-02-26 15:10:31.201,-1036.0,2475.0,-1769.0,-8.0,-432.0,-632.0,184,97,95,123,105
2025-02-26 15:10:31.206,-309.0,2210.0,-1704.0,-67.0,-545.0,-702.0,193,103,102,131,107
2025-02-26 15:10:31.213,427.0,1988.0,-1714.0,-165.0,-653.0,-752.0,193,102,105,131,111
2025-02-26 15:10:31.217,1273.0,1756.0,-1446.0,-295.0,-730.0,-781.0,195,103,101,130,110
2025-02-26 15:10:31.225,2326.0,1261.0,-1106.0,-438.0,-781.0,-778.0,198,106,105,133,115
2025-02-26 15:10:31.229,3358.0,396.0,-764.0,-581.0,-780.0,-735.0,197,103,102,131,114
2025-02-26 15:10:31.237,4110.0,-957.0,-537.0,-676.0,-710.0,-654.0,194,102,101,128,111
2025-02-26 15:10:31.241,4918.0,-2626.0,115.0,-711.0,-563.0,-551.0,198,104,103,129,111
2025-02-26 15:10:31.246,5402.0,-4189.0,798.0,-652.0,-374.0,-429.0,198,104,103,131,113
2025-02-26 15:10:31.254,5818.0,-5640.0,1398.0,-515.0,-161.0,-322.0,197,104,103,129,112
2025-02-26 15:10:31.255,5611.0,-6841.0,1382.0,-290.0,73.0,-227.0,198,102,102,130,112
2025-02-26 15:10:31.265,4711.0,-7600.0,960.0,-65.0,212.0,-122.0,198,105,102,130,113
2025-02-26 15:10:31.268,3706.0,-7382.0,-128.0,76.0,282.0,-24.0,197,102,103,130,111
2025-02-26 15:10:31.274,2513.0,-6415.0,-973.0,227.0,325.0,57.0,196,101,100,126,110
2025-02-26 15:10:31.282,1461.0,-4923.0,-1762.0,311.0,328.0,126.0,193,97,99,117,104
2025-02-26 15:10:31.286,1346.0,-3784.0,-2509.0,399.0,304.0,180.0,199,103,105,130,111
2025-02-26 15:10:31.291,384.0,-2343.0,-1170.0,292.0,177.0,214.0,201,104,105,132,111
2025-02-26 15:10:31.299,807.0,-1802.0,-2153.0,348.0,89.0,213.0,199,102,104,132,111
2025-02-26 15:10:31.303,533.0,-1360.0,-846.0,230.0,54.0,207.0,205,110,111,139,117
2025-02-26 15:10:31.311,532.0,-671.0,-1031.0,86.0,56.0,177.0,205,109,109,138,118
2025-02-26 15:10:31.315,426.0,-498.0,-893.0,-6.0,71.0,150.0,205,107,109,136,117
2025-02-26 15:10:31.320,378.0,-782.0,-526.0,-38.0,8.0,127.0,202,109,108,135,118
2025-02-26 15:10:31.323,69.0,-1314.0,-443.0,-85.0,-25.0,118.0,199,105,105,135,116
2025-02-26 15:10:31.332,-31.0,-1854.0,-585.0,-75.0,-51.0,128.0,200,105,105,135,116
2025-02-26 15:10:31.337,274.0,-1533.0,-450.0,-38.0,-103.0,133.0,197,104,103,132,114
2025-02-26 15:10:31.344,294.0,-1622.0,-318.0,-84.0,-62.0,134.0,204,112,111,140,125
2025-02-26 15:10:31.345,305.0,-1958.0,-142.0,-24.0,-48.0,123.0,202,110,110,140,121
2025-02-26 15:10:31.351,248.0,-1763.0,17.0,57.0,8.0,114.0,203,109,110,138,119
2025-02-26 15:10:31.357,341.0,-1887.0,162.0,57.0,32.0,118.0,199,104,105,138,117
2025-02-26 15:10:31.363,257.0,-1769.0,332.0,95.0,4.0,144.0,201,106,109,139,119
2025-02-26 15:10:31.368,244.0,-1750.0,392.0,142.0,-59.0,158.0,202,109,111,142,121
2025-02-26 15:10:31.368,313.0,-1554.0,310.0,101.0,-37.0,168.0,201,110,111,143,121
2025-02-26 15:10:31.380,388.0,-1605.0,396.0,111.0,-8.0,190.0,202,110,112,144,123
2025-02-26 15:10:31.381,385.0,-1304.0,361.0,104.0,11.0,195.0,201,114,112,144,122
2025-02-26 15:10:31.389,415.0,-1072.0,485.0,75.0,18.0,199.0,199,112,111,141,119
2025-02-26 15:10:31.397,308.0,-831.0,534.0,-2.0,38.0,195.0,193,109,108,141,116
2025-02-26 15:10:31.401,234.0,-700.0,416.0,-88.0,61.0,190.0,201,114,116,147,123
2025-02-26 15:10:31.406,157.0,-716.0,324.0,-98.0,101.0,192.0,203,114,115,145,122
2025-02-26 15:10:31.413,52.0,-649.0,5.0,-88.0,120.0,193.0,199,113,114,144,119
2025-02-26 15:10:31.417,-17.0,-591.0,125.0,-95.0,117.0,192.0,197,107,112,140,115
2025-02-26 15:10:31.421,-22.0,-679.0,163.0,-104.0,97.0,190.0,201,112,120,146,119
2025-02-26 15:10:31.426,-155.0,-787.0,42.0,-86.0,65.0,193.0,202,113,121,146,120
2025-02-26 15:10:31.432,-182.0,-823.0,43.0,-57.0,37.0,199.0,201,112,121,146,120
2025-02-26 15:10:31.438,-154.0,-784.0,120.0,-66.0,39.0,201.0,198,111,118,141,116
2025-02-26 15:10:31.442,-41.0,-862.0,-14.0,-53.0,41.0,209.0,200,113,119,142,117
2025-02-26 15:10:31.450,37.0,-879.0,120.0,-35.0,63.0,212.0,197,111,117,142,115
2025-02-26 15:10:31.454,29.0,-868.0,66.0,-31.0,85.0,220.0,201,115,121,146,118
2025-02-26 15:10:31.459,199.0,-872.0,54.0,-7.0,107.0,228.0,199,115,122,145,119
2025-02-26 15:10:31.462,326.0,-864.0,55.0,6.0,128.0,237.0,197,114,121,145,117
2025-02-26 15:10:31.470,354.0,-890.0,27.0,59.0,127.0,256.0,196,114,120,143,115
2025-02-26 15:10:31.475,231.0,-888.0,25.0,134.0,93.0,267.0,196,120,125,147,118
2025-02-26 15:10:31.479,189.0,-877.0,87.0,191.0,72.0,287.0,197,121,128,147,119
2025-02-26 15:10:31.486,159.0,-839.0,22.0,207.0,99.0,306.0,198,124,128,146,119
2025-02-26 15:10:31.491,269.0,-688.0,61.0,284.0,118.0,307.0,194,123,126,144,115
2025-02-26 15:10:31.496,219.0,-749.0,36.0,330.0,127.0,304.0,192,122,124,142,112
2025-02-26 15:10:31.499,-24.0,-631.0,204.0,304.0,133.0,301.0,196,131,131,148,120
2025-02-26 15:10:31.508,-8.0,-373.0,234.0,284.0,155.0,303.0,199,134,133,152,124
2025-02-26 15:10:31.510,75.0,-315.0,41.0,275.0,166.0,301.0,192,134,132,152,120
2025-02-26 15:10:31.516,-78.0,-218.0,52.0,257.0,171.0,310.0,190,133,128,146,115
2025-02-26 15:10:31.524,-170.0,-227.0,113.0,252.0,183.0,316.0,193,140,134,150,119
2025-02-26 15:10:31.528,-205.0,2.0,-66.0,237.0,187.0,317.0,195,143,134,151,122
2025-02-26 15:10:31.532,-133.0,228.0,-75.0,219.0,180.0,315.0,193,140,136,151,123
2025-02-26 15:10:31.539,-177.0,300.0,-185.0,213.0,172.0,311.0,195,142,138,149,122
2025-02-26 15:10:31.544,-218.0,329.0,-330.0,209.0,168.0,304.0,190,143,137,149,120
2025-02-26 15:10:31.548,-346.0,371.0,-341.0,207.0,157.0,287.0,189,143,135,144,117
2025-02-26 15:10:31.557,-462.0,454.0,-408.0,217.0,148.0,277.0,186,143,136,143,115
2025-02-26 15:10:31.559,-615.0,644.0,-587.0,238.0,138.0,250.0,191,148,144,152,122
2025-02-26 15:10:31.564,-817.0,990.0,-708.0,262.0,115.0,223.0,193,152,145,150,122
2025-02-26 15:10:31.573,-1009.0,1295.0,-963.0,270.0,74.0,179.0,193,150,143,148,121
2025-02-26 15:10:31.576,-1387.0,1862.0,-1134.0,253.0,17.0,117.0,191,152,145,149,119
2025-02-26 15:10:31.582,-1601.0,2283.0,-1248.0,223.0,-44.0,32.0,191,152,147,149,119
2025-02-26 15:10:31.588,-1646.0,2623.0,-1272.0,187.0,-72.0,-65.0,186,150,143,145,116
2025-02-26 15:10:31.594,-1638.0,2794.0,-1294.0,152.0,-129.0,-178.0,185,151,144,145,114
2025-02-26 15:10:31.600,-1689.0,2783.0,-1241.0,131.0,-181.0,-294.0,186,152,145,142,112
2025-02-26 15:10:31.606,-1578.0,2536.0,-1191.0,115.0,-236.0,-408.0,186,158,146,145,113
2025-02-26 15:10:31.612,-1379.0,2266.0,-1073.0,115.0,-290.0,-506.0,183,154,148,143,112
2025-02-26 15:10:31.618,-996.0,2088.0,-907.0,116.0,-340.0,-588.0,182,157,150,143,110
2025-02-26 15:10:31.622,-577.0,1749.0,-792.0,111.0,-390.0,-656.0,182,160,152,145,113
2025-02-26 15:10:31.630,-325.0,1409.0,-575.0,84.0,-448.0,-715.0,180,159,152,145,113
2025-02-26 15:10:31.631,-173.0,1239.0,-279.0,23.0,-515.0,-740.0,173,153,149,143,106
2025-02-26 15:10:31.643,89.0,1082.0,-365.0,-38.0,-585.0,-784.0,181,164,156,151,119
2025-02-26 15:10:31.647,858.0,1116.0,-225.0,-87.0,-639.0,-815.0,179,167,157,154,120
2025-02-26 15:10:31.652,1815.0,937.0,-157.0,-150.0,-680.0,-838.0,177,167,157,154,119
2025-02-26 15:10:31.659,2478.0,426.0,65.0,-208.0,-714.0,-842.0,176,167,157,153,120
2025-02-26 15:10:31.664,3038.0,-274.0,129.0,-230.0,-741.0,-820.0,180,172,160,157,123
2025-02-26 15:10:31.678,3473.0,-1584.0,457.0,-255.0,-719.0,-748.0,176,169,158,154,118
2025-02-26 15:10:31.680,3592.0,-3109.0,492.0,-206.0,-657.0,-620.0,174,170,157,152,118
2025-02-26 15:10:31.683,3386.0,-3843.0,338.0,-149.0,-589.0,-457.0,176,172,157,157,120
2025-02-26 15:10:31.687,4002.0,-4106.0,527.0,-124.0,-485.0,-298.0,175,172,159,158,122
2025-02-26 15:10:31.692,4176.0,-4401.0,504.0,-101.0,-374.0,-142.0,172,171,157,154,119
