timestamp,ax,ay,az,gx,gy,gz,flex1,flex2,flex3,flex4,flex5,emg1,emg2,emg3
2025-02-26 15:13:00.333,-299.0,-31.0,995.0,34.0,25.0,8.0,145,123,116,135,128
2025-02-26 15:13:00.339,-300.0,-4.0,978.0,38.0,26.0,9.0,142,122,114,133,127
2025-02-26 15:13:00.342,-313.0,-9.0,975.0,40.0,26.0,9.0,144,123,116,134,128
2025-02-26 15:13:00.344,-322.0,26.0,973.0,40.0,26.0,10.0,143,123,117,136,128
2025-02-26 15:13:00.346,-311.0,46.0,967.0,39.0,25.0,10.0,142,121,115,133,128
2025-02-26 15:13:00.348,-323.0,61.0,963.0,34.0,23.0,10.0,144,122,115,135,129
2025-02-26 15:13:00.351,-333.0,83.0,962.0,32.0,21.0,8.0,143,122,117,134,128
2025-02-26 15:13:00.351,-343.0,91.0,961.0,26.0,20.0,7.0,143,123,115,134,127
2025-02-26 15:13:00.351,-338.0,97.0,937.0,20.0,17.0,7.0,143,123,116,134,129
2025-02-26 15:13:00.357,-344.0,101.0,939.0,17.0,14.0,5.0,142,122,116,134,128
2025-02-26 15:13:00.357,-337.0,94.0,936.0,10.0,12.0,4.0,141,121,115,132,126
2025-02-26 15:13:00.357,-345.0,94.0,949.0,4.0,9.0,4.0,147,125,117,136,129
2025-02-26 15:13:00.357,-341.0,85.0,939.0,2.0,7.0,2.0,145,123,115,134,128
2025-02-26 15:13:00.357,-338.0,79.0,950.0,-3.0,6.0,2.0,141,121,114,132,127
2025-02-26 15:13:00.357,-341.0,71.0,950.0,-7.0,4.0,2.0,143,123,116,135,128
2025-02-26 15:13:00.372,-340.0,55.0,948.0,-8.0,2.0,2.0,144,124,117,137,129
2025-02-26 15:13:00.374,-340.0,40.0,948.0,-8.0,1.0,3.0,142,123,115,133,127
2025-02-26 15:13:00.375,-333.0,25.0,968.0,-6.0,0.0,3.0,143,123,116,135,129
2025-02-26 15:13:00.375,-307.0,16.0,1002.0,-5.0,0.0,5.0,143,122,115,134,128
2025-02-26 15:13:00.375,-344.0,-3.0,953.0,0.0,1.0,5.0,143,123,117,135,129
2025-02-26 15:13:00.375,-348.0,-9.0,924.0,8.0,-2.0,6.0,143,123,117,135,129
2025-02-26 15:13:00.375,-357.0,-3.0,949.0,13.0,-2.0,7.0,143,123,115,135,129
2025-02-26 15:13:00.375,-331.0,27.0,972.0,16.0,-2.0,7.0,143,122,115,133,127
2025-02-26 15:13:00.375,-324.0,41.0,973.0,21.0,-1.0,8.0,145,124,117,137,131
2025-02-26 15:13:00.391,-352.0,36.0,982.0,21.0,1.0,9.0,143,125,116,135,129
2025-02-26 15:13:00.394,-340.0,76.0,943.0,22.0,0.0,8.0,141,122,114,133,127
2025-02-26 15:13:00.394,-360.0,72.0,995.0,20.0,1.0,8.0,144,123,115,135,128
2025-02-26 15:13:00.398,-351.0,71.0,986.0,19.0,1.0,8.0,145,124,116,135,129
2025-02-26 15:13:00.400,-342.0,99.0,982.0,15.0,1.0,8.0,142,121,115,134,127
2025-02-26 15:13:00.400,-351.0,96.0,983.0,10.0,1.0,7.0,143,123,117,135,129
2025-02-26 15:13:00.400,-353.0,91.0,976.0,8.0,0.0,6.0,142,122,116,134,127
2025-02-26 15:13:00.408,-347.0,99.0,974.0,5.0,0.0,6.0,141,120,113,133,127
2025-02-26 15:13:00.410,-352.0,102.0,968.0,1.0,-1.0,6.0,144,124,117,136,129
2025-02-26 15:13:00.412,-349.0,85.0,967.0,-1.0,-2.0,5.0,142,122,115,133,127
2025-02-26 15:13:00.412,-350.0,89.0,972.0,-3.0,-2.0,5.0,141,121,114,132,126
2025-02-26 15:13:00.417,-342.0,76.0,968.0,-4.0,-2.0,5.0,144,123,116,135,128
2025-02-26 15:13:00.418,-336.0,74.0,969.0,-4.0,-2.0,5.0,146,123,115,134,127
2025-02-26 15:13:00.421,-341.0,75.0,980.0,-4.0,-2.0,5.0,142,122,114,133,127
2025-02-26 15:13:00.424,-332.0,79.0,991.0,-4.0,-1.0,5.0,143,120,115,135,128
2025-02-26 15:13:00.426,-330.0,78.0,985.0,-3.0,0.0,5.0,142,121,114,133,126
2025-02-26 15:13:00.428,-324.0,75.0,1000.0,-2.0,1.0,5.0,142,123,116,133,127
2025-02-26 15:13:00.429,-330.0,67.0,998.0,0.0,3.0,5.0,144,125,118,136,129
2025-02-26 15:13:00.433,-324.0,68.0,987.0,0.0,3.0,5.0,142,123,114,133,125
2025-02-26 15:13:00.435,-327.0,72.0,987.0,2.0,4.0,5.0,143,123,116,134,129
2025-02-26 15:13:00.436,-338.0,69.0,992.0,3.0,6.0,6.0,145,120,117,135,129
2025-02-26 15:13:00.439,-333.0,81.0,976.0,3.0,6.0,6.0,142,122,115,133,127
2025-02-26 15:13:00.441,-328.0,83.0,974.0,3.0,7.0,6.0,143,122,115,135,128
2025-02-26 15:13:00.444,-332.0,87.0,969.0,3.0,7.0,6.0,144,123,116,135,129
2025-02-26 15:13:00.447,-333.0,104.0,941.0,2.0,7.0,5.0,143,122,116,134,127
2025-02-26 15:13:00.451,-331.0,89.0,949.0,1.0,7.0,4.0,143,123,116,136,129
2025-02-26 15:13:00.454,-325.0,87.0,954.0,1.0,7.0,4.0,143,123,115,134,128
2025-02-26 15:13:00.454,-335.0,110.0,921.0,-1.0,7.0,3.0,140,122,115,133,127
2025-02-26 15:13:00.467,-341.0,95.0,935.0,-3.0,6.0,3.0,144,124,117,136,130
2025-02-26 15:13:00.472,-332.0,83.0,949.0,-2.0,5.0,2.0,143,123,116,134,128
2025-02-26 15:13:00.476,-322.0,87.0,935.0,-4.0,5.0,2.0,141,122,115,133,127
2025-02-26 15:13:00.481,-320.0,121.0,931.0,-8.0,4.0,1.0,143,123,117,135,128
2025-02-26 15:13:00.488,-329.0,83.0,968.0,-8.0,3.0,2.0,142,123,116,135,129
2025-02-26 15:13:00.491,-316.0,57.0,924.0,-8.0,2.0,1.0,140,122,114,134,127
2025-02-26 15:13:00.497,-310.0,63.0,914.0,-8.0,2.0,1.0,143,123,116,134,129
2025-02-26 15:13:00.501,-308.0,51.0,936.0,-7.0,0.0,1.0,142,122,116,134,127
2025-02-26 15:13:00.505,-311.0,47.0,974.0,-8.0,2.0,2.0,143,123,115,133,127
2025-02-26 15:13:00.509,-316.0,24.0,904.0,-4.0,0.0,2.0,142,124,117,136,129
2025-02-26 15:13:00.517,-321.0,13.0,894.0,-3.0,0.0,3.0,142,122,115,134,127
2025-02-26 15:13:00.521,-307.0,19.0,921.0,0.0,0.0,4.0,141,121,114,133,126
2025-02-26 15:13:00.521,-293.0,30.0,932.0,5.0,0.0,5.0,145,124,118,136,129
2025-02-26 15:13:00.530,-324.0,9.0,933.0,5.0,1.0,7.0,142,122,115,135,128
2025-02-26 15:13:00.533,-314.0,13.0,954.0,8.0,2.0,7.0,143,121,114,133,127
2025-02-26 15:13:00.533,-331.0,32.0,931.0,11.0,2.0,9.0,142,121,116,134,128
2025-02-26 15:13:00.545,-335.0,28.0,960.0,13.0,3.0,9.0,143,123,116,135,129
2025-02-26 15:13:00.550,-327.0,56.0,944.0,13.0,3.0,9.0,141,122,115,134,128
2025-02-26 15:13:00.554,-334.0,67.0,946.0,14.0,4.0,10.0,144,122,116,134,128
2025-02-26 15:13:00.556,-348.0,68.0,952.0,13.0,4.0,9.0,143,122,115,133,128
2025-02-26 15:13:00.566,-334.0,89.0,948.0,12.0,4.0,8.0,143,123,114,135,128
2025-02-26 15:13:00.570,-340.0,94.0,937.0,10.0,4.0,8.0,144,126,117,134,129
2025-02-26 15:13:00.573,-357.0,88.0,944.0,9.0,3.0,7.0,143,122,115,134,127
2025-02-26 15:13:00.579,-357.0,88.0,936.0,6.0,3.0,7.0,140,120,114,133,127
2025-02-26 15:13:00.581,-362.0,92.0,935.0,4.0,2.0,6.0,145,124,118,136,130
2025-02-26 15:13:00.588,-366.0,87.0,924.0,3.0,1.0,5.0,142,121,116,134,128
2025-02-26 15:13:00.588,-372.0,80.0,928.0,2.0,0.0,4.0,144,120,113,133,127
2025-02-26 15:13:00.588,-373.0,85.0,933.0,-1.0,-1.0,3.0,142,123,116,136,129
2025-02-26 15:13:00.604,-375.0,82.0,927.0,-1.0,-2.0,2.0,143,123,116,135,130
2025-02-26 15:13:00.604,-375.0,71.0,933.0,-2.0,-3.0,2.0,142,121,114,133,126
2025-02-26 15:13:00.604,-373.0,71.0,931.0,-3.0,-5.0,1.0,143,123,115,134,128
2025-02-26 15:13:00.619,-373.0,65.0,939.0,-3.0,-5.0,1.0,143,120,114,134,128
2025-02-26 15:13:00.624,-367.0,61.0,936.0,-3.0,-5.0,0.0,142,121,115,134,127
2025-02-26 15:13:00.628,-364.0,52.0,938.0,-2.0,-6.0,0.0,143,123,117,135,129
2025-02-26 15:13:00.636,-362.0,53.0,945.0,-1.0,-6.0,0.0,142,121,114,133,127
2025-02-26 15:13:00.639,-357.0,51.0,959.0,0.0,-6.0,0.0,144,122,114,134,129
2025-02-26 15:13:00.644,-351.0,48.0,959.0,0.0,-6.0,0.0,143,123,116,135,128
2025-02-26 15:13:00.648,-356.0,52.0,973.0,1.0,-6.0,0.0,143,122,116,131,127
2025-02-26 15:13:00.653,-357.0,49.0,978.0,1.0,-5.0,0.0,144,123,115,135,129
2025-02-26 15:13:00.654,-353.0,50.0,989.0,1.0,-4.0,0.0,141,122,115,135,128
2025-02-26 15:13:00.664,-350.0,62.0,988.0,1.0,-5.0,-1.0,141,121,119,133,127
2025-02-26 15:13:00.666,-345.0,65.0,993.0,1.0,-4.0,-1.0,144,123,116,135,129
2025-02-26 15:13:00.671,-342.0,63.0,995.0,1.0,-4.0,-1.0,143,122,115,135,129
2025-02-26 15:13:00.678,-338.0,77.0,1010.0,-1.0,-4.0,-1.0,135,121,115,132,126
2025-02-26 15:13:00.681,-341.0,73.0,1000.0,-3.0,-3.0,-2.0,143,123,116,134,128
2025-02-26 15:13:00.689,-337.0,83.0,1009.0,-3.0,-3.0,-1.0,142,123,117,134,128
2025-02-26 15:13:00.690,-333.0,76.0,1017.0,-6.0,-2.0,-1.0,142,121,115,134,127
2025-02-26 15:13:00.697,-331.0,83.0,1014.0,-8.0,-1.0,-1.0,143,123,114,134,128
2025-02-26 15:13:00.702,-327.0,77.0,1020.0,-9.0,0.0,-1.0,143,122,115,134,127
2025-02-26 15:13:00.709,-323.0,81.0,1013.0,-12.0,1.0,-1.0,143,124,115,134,127
2025-02-26 15:13:00.713,-322.0,82.0,1012.0,-13.0,2.0,-1.0,144,123,116,135,128
2025-02-26 15:13:00.713,-316.0,74.0,1006.0,-14.0,3.0,-2.0,143,118,116,134,128
2025-02-26 15:13:00.726,-315.0,68.0,999.0,-15.0,3.0,-2.0,142,121,114,133,128
2025-02-26 15:13:00.731,-309.0,63.0,994.0,-15.0,4.0,-2.0,145,124,116,135,129
2025-02-26 15:13:00.733,-305.0,58.0,989.0,-15.0,4.0,-2.0,143,122,116,134,128
2025-02-26 15:13:00.739,-305.0,46.0,977.0,-15.0,4.0,-1.0,142,121,114,132,129
2025-02-26 15:13:00.743,-303.0,43.0,971.0,-13.0,4.0,-1.0,144,123,115,134,127
2025-02-26 15:13:00.751,-300.0,36.0,963.0,-13.0,4.0,0.0,143,124,117,135,129
2025-02-26 15:13:00.754,-303.0,30.0,956.0,-11.0,4.0,1.0,143,122,114,134,127
2025-02-26 15:13:00.759,-307.0,31.0,951.0,-9.0,4.0,1.0,143,123,115,135,128
2025-02-26 15:13:00.763,-309.0,24.0,945.0,-8.0,3.0,2.0,143,122,116,134,128
2025-02-26 15:13:00.771,-305.0,34.0,947.0,-6.0,3.0,3.0,142,123,115,134,130
2025-02-26 15:13:00.775,-313.0,26.0,946.0,-6.0,2.0,4.0,143,124,116,134,129
2025-02-26 15:13:00.780,-320.0,42.0,943.0,-6.0,2.0,5.0,142,123,116,134,128
2025-02-26 15:13:00.783,-319.0,46.0,951.0,-4.0,1.0,5.0,141,121,113,133,127
2025-02-26 15:13:00.788,-317.0,52.0,950.0,-4.0,0.0,6.0,143,124,117,135,129
2025-02-26 15:13:00.794,-329.0,59.0,962.0,-3.0,0.0,6.0,141,122,115,134,127
2025-02-26 15:13:00.794,-333.0,61.0,969.0,-3.0,0.0,6.0,141,121,114,131,126
2025-02-26 15:13:00.794,-333.0,71.0,970.0,-3.0,-1.0,6.0,144,122,116,135,128
2025-02-26 15:13:00.809,-328.0,69.0,978.0,-3.0,0.0,6.0,144,123,117,135,128
2025-02-26 15:13:00.812,-334.0,74.0,986.0,-2.0,-1.0,6.0,142,121,114,133,127
2025-02-26 15:13:00.820,-337.0,81.0,989.0,-1.0,0.0,6.0,144,123,115,134,128
2025-02-26 15:13:00.825,-343.0,80.0,987.0,-1.0,0.0,7.0,143,122,115,134,127
2025-02-26 15:13:00.828,-341.0,80.0,992.0,-1.0,0.0,7.0,144,124,118,136,129
2025-02-26 15:13:00.833,-346.0,82.0,992.0,0.0,1.0,7.0,144,124,117,135,129
2025-02-26 15:13:00.837,-351.0,81.0,996.0,0.0,1.0,7.0,141,121,114,134,127
2025-02-26 15:13:00.844,-354.0,80.0,999.0,1.0,1.0,7.0,144,123,116,134,128
2025-02-26 15:13:00.849,-353.0,87.0,995.0,2.0,2.0,7.0,145,124,116,136,130
2025-02-26 15:13:00.853,-355.0,86.0,995.0,3.0,2.0,6.0,141,122,114,132,127
2025-02-26 15:13:00.857,-361.0,87.0,1000.0,3.0,2.0,6.0,142,123,116,134,128
2025-02-26 15:13:00.862,-365.0,94.0,997.0,3.0,2.0,6.0,142,122,115,135,128
2025-02-26 15:13:00.866,-365.0,102.0,995.0,3.0,2.0,5.0,141,122,115,134,127
2025-02-26 15:13:00.874,-368.0,97.0,998.0,3.0,2.0,5.0,143,123,117,135,129
2025-02-26 15:13:00.878,-366.0,98.0,998.0,3.0,2.0,4.0,143,122,115,133,127
2025-02-26 15:13:00.882,-365.0,99.0,997.0,2.0,3.0,4.0,141,121,114,132,126
2025-02-26 15:13:00.886,-360.0,98.0,996.0,1.0,3.0,3.0,145,123,116,134,128
2025-02-26 15:13:00.891,-362.0,97.0,993.0,0.0,3.0,3.0,143,122,116,134,129
2025-02-26 15:13:00.898,-360.0,100.0,990.0,-1.0,3.0,2.0,141,120,115,134,125
2025-02-26 15:13:00.902,-364.0,99.0,987.0,-2.0,3.0,1.0,142,123,116,135,127
2025-02-26 15:13:00.906,-360.0,98.0,986.0,-3.0,4.0,1.0,142,122,115,133,127
2025-02-26 15:13:00.911,-362.0,96.0,977.0,-4.0,4.0,0.0,142,122,114,130,127
2025-02-26 15:13:00.915,-357.0,99.0,978.0,-4.0,5.0,-1.0,142,122,116,135,128
2025-02-26 15:13:00.922,-361.0,82.0,972.0,-5.0,5.0,-1.0,141,121,116,134,128
2025-02-26 15:13:00.927,-357.0,71.0,968.0,-5.0,5.0,-1.0,141,122,114,133,128
2025-02-26 15:13:00.931,-353.0,71.0,960.0,-4.0,5.0,-1.0,144,123,117,135,128
2025-02-26 15:13:00.935,-353.0,61.0,953.0,-4.0,5.0,-2.0,143,123,116,134,128
2025-02-26 15:13:00.939,-347.0,57.0,956.0,-4.0,5.0,-1.0,140,121,117,132,126
2025-02-26 15:13:00.946,-350.0,53.0,954.0,-4.0,5.0,-2.0,144,122,115,134,129
2025-02-26 15:13:00.951,-346.0,52.0,951.0,-4.0,4.0,-2.0,142,121,116,135,127
2025-02-26 15:13:00.955,-345.0,48.0,951.0,-3.0,4.0,-2.0,141,121,115,133,127
2025-02-26 15:13:00.959,-345.0,54.0,949.0,-3.0,4.0,-2.0,142,121,116,133,128
2025-02-26 15:13:00.964,-339.0,58.0,949.0,-3.0,3.0,-2.0,142,122,115,132,127
2025-02-26 15:13:00.972,-340.0,49.0,948.0,-3.0,4.0,-2.0,142,122,118,132,127
2025-02-26 15:13:00.976,-335.0,53.0,948.0,-5.0,3.0,-2.0,142,123,115,134,128
2025-02-26 15:13:00.978,-336.0,52.0,947.0,-5.0,2.0,-2.0,141,122,114,132,127
2025-02-26 15:13:00.984,-338.0,52.0,948.0,-6.0,2.0,-2.0,141,122,113,132,126
2025-02-26 15:13:00.992,-331.0,47.0,945.0,-8.0,2.0,-2.0,143,124,116,134,129
2025-02-26 15:13:00.996,-336.0,45.0,946.0,-9.0,1.0,-2.0,141,123,114,133,126
2025-02-26 15:13:01.001,-335.0,42.0,953.0,-10.0,1.0,-2.0,141,119,113,132,125
2025-02-26 15:13:01.005,-331.0,37.0,949.0,-11.0,0.0,-2.0,143,123,115,133,128
2025-02-26 15:13:01.009,-326.0,31.0,953.0,-10.0,0.0,-1.0,142,122,115,133,127
2025-02-26 15:13:01.014,-329.0,26.0,954.0,-10.0,0.0,-1.0,141,120,114,133,126
2025-02-26 15:13:01.021,-324.0,20.0,956.0,-9.0,1.0,-1.0,142,122,115,133,128
2025-02-26 15:13:01.026,-317.0,11.0,957.0,-8.0,1.0,0.0,142,121,113,131,127
2025-02-26 15:13:01.026,-318.0,10.0,956.0,-6.0,2.0,0.0,142,122,114,130,127
2025-02-26 15:13:01.031,-324.0,6.0,978.0,-5.0,3.0,1.0,145,123,115,134,129
2025-02-26 15:13:01.041,-323.0,19.0,941.0,-5.0,2.0,2.0,140,121,114,132,126
2025-02-26 15:13:01.044,-327.0,17.0,934.0,-3.0,3.0,2.0,143,122,116,133,127
2025-02-26 15:13:01.050,-326.0,14.0,939.0,-2.0,2.0,3.0,144,125,117,136,129
2025-02-26 15:13:01.054,-328.0,19.0,940.0,-2.0,2.0,4.0,142,121,114,134,127
2025-02-26 15:13:01.058,-338.0,19.0,940.0,-1.0,1.0,4.0,143,122,116,133,128
2025-02-26 15:13:01.066,-342.0,21.0,943.0,-1.0,1.0,5.0,142,122,116,135,128
2025-02-26 15:13:01.069,-346.0,26.0,944.0,-1.0,1.0,5.0,143,122,115,134,128
2025-02-26 15:13:01.075,-352.0,31.0,944.0,-1.0,1.0,6.0,142,122,115,134,129
2025-02-26 15:13:01.079,-355.0,35.0,951.0,0.0,0.0,6.0,144,122,115,133,127
2025-02-26 15:13:01.081,-357.0,41.0,952.0,0.0,-1.0,6.0,141,121,113,131,126
2025-02-26 15:13:01.090,-355.0,47.0,953.0,1.0,-2.0,6.0,144,123,117,136,130
2025-02-26 15:13:01.095,-355.0,52.0,961.0,1.0,-2.0,6.0,143,122,115,134,127
2025-02-26 15:13:01.099,-360.0,53.0,966.0,1.0,-2.0,6.0,140,121,113,132,127
2025-02-26 15:13:01.103,-354.0,59.0,967.0,2.0,-2.0,6.0,142,122,115,135,127
2025-02-26 15:13:01.107,-363.0,59.0,970.0,2.0,-2.0,6.0,142,122,115,132,127
2025-02-26 15:13:01.111,-359.0,62.0,976.0,3.0,-2.0,7.0,141,121,113,132,126
2025-02-26 15:13:01.119,-361.0,61.0,978.0,4.0,-1.0,7.0,141,122,115,133,127
2025-02-26 15:13:01.123,-370.0,70.0,984.0,4.0,-1.0,6.0,141,121,114,133,126
2025-02-26 15:13:01.127,-367.0,77.0,982.0,5.0,-1.0,6.0,140,121,113,132,126
2025-02-26 15:13:01.131,-374.0,78.0,995.0,5.0,0.0,6.0,142,123,115,135,127
2025-02-26 15:13:01.134,-375.0,90.0,998.0,5.0,0.0,6.0,141,121,114,134,126
2025-02-26 15:13:01.144,-373.0,94.0,1010.0,5.0,1.0,5.0,140,120,113,132,126
2025-02-26 15:13:01.148,-375.0,95.0,1006.0,5.0,1.0,5.0,143,120,114,134,127
2025-02-26 15:13:01.152,-378.0,103.0,1016.0,4.0,1.0,4.0,142,121,114,134,128
2025-02-26 15:13:01.156,-373.0,112.0,1017.0,3.0,1.0,4.0,141,121,112,131,126
2025-02-26 15:13:01.161,-370.0,109.0,1016.0,2.0,2.0,3.0,142,121,114,132,126
2025-02-26 15:13:01.168,-370.0,115.0,1020.0,2.0,2.0,2.0,141,120,114,132,127
2025-02-26 15:13:01.173,-364.0,114.0,1019.0,0.0,2.0,2.0,141,122,113,132,126
2025-02-26 15:13:01.177,-362.0,115.0,1018.0,-1.0,3.0,1.0,141,122,115,134,126
2025-02-26 15:13:01.181,-356.0,109.0,1006.0,-2.0,3.0,0.0,141,120,113,126,125
2025-02-26 15:13:01.188,-356.0,108.0,1002.0,-3.0,3.0,0.0,140,119,112,132,125
2025-02-26 15:13:01.193,-355.0,105.0,1001.0,-3.0,4.0,-1.0,142,122,115,134,127
2025-02-26 15:13:01.197,-352.0,96.0,996.0,-4.0,4.0,-1.0,141,121,113,132,126
2025-02-26 15:13:01.202,-351.0,91.0,990.0,-5.0,5.0,-1.0,133,119,112,130,124
2025-02-26 15:13:01.206,-347.0,87.0,986.0,-5.0,5.0,-1.0,141,121,114,132,126
2025-02-26 15:13:01.213,-348.0,82.0,977.0,-5.0,5.0,-1.0,141,121,114,131,125
2025-02-26 15:13:01.217,-348.0,83.0,972.0,-5.0,5.0,-1.0,138,119,112,132,125
2025-02-26 15:13:01.222,-349.0,81.0,972.0,-5.0,5.0,-2.0,141,123,115,133,129
2025-02-26 15:13:01.226,-352.0,77.0,972.0,-6.0,6.0,-2.0,141,120,112,131,126
2025-02-26 15:13:01.233,-351.0,76.0,964.0,-6.0,5.0,-2.0,140,120,113,132,125
2025-02-26 15:13:01.238,-345.0,75.0,962.0,-6.0,6.0,-2.0,141,122,115,133,126
2025-02-26 15:13:01.242,-347.0,74.0,957.0,-6.0,6.0,-2.0,140,120,113,131,125
2025-02-26 15:13:01.244,-344.0,71.0,950.0,-6.0,6.0,-2.0,140,119,112,132,125
2025-02-26 15:13:01.250,-345.0,62.0,948.0,-6.0,6.0,-2.0,142,122,114,132,127
2025-02-26 15:13:01.256,-346.0,59.0,937.0,-6.0,6.0,-2.0,141,121,114,132,129
2025-02-26 15:13:01.263,-351.0,49.0,932.0,-5.0,5.0,-2.0,141,121,113,132,126
2025-02-26 15:13:01.266,-351.0,47.0,925.0,-4.0,5.0,-1.0,140,121,112,133,127
2025-02-26 15:13:01.271,-349.0,34.0,922.0,-3.0,5.0,-1.0,142,121,114,132,126
2025-02-26 15:13:01.276,-350.0,42.0,916.0,-2.0,4.0,0.0,140,121,114,133,126
2025-02-26 15:13:01.283,-351.0,33.0,915.0,-2.0,3.0,0.0,141,121,114,133,127
2025-02-26 15:13:01.287,-355.0,32.0,914.0,-1.0,3.0,1.0,141,119,113,131,125
2025-02-26 15:13:01.291,-360.0,34.0,915.0,0.0,2.0,1.0,142,122,115,134,128
2025-02-26 15:13:01.295,-361.0,43.0,913.0,1.0,1.0,2.0,142,121,114,133,127
2025-02-26 15:13:01.297,-360.0,43.0,916.0,2.0,0.0,2.0,140,120,113,131,125
2025-02-26 15:13:01.307,-362.0,45.0,919.0,2.0,-1.0,2.0,142,120,112,132,127
2025-02-26 15:13:01.311,-366.0,52.0,920.0,2.0,-1.0,2.0,142,123,116,134,128
2025-02-26 15:13:01.316,-371.0,51.0,927.0,3.0,-1.0,2.0,139,120,113,130,125
2025-02-26 15:13:01.320,-371.0,54.0,927.0,4.0,-2.0,2.0,142,121,114,133,126
2025-02-26 15:13:01.324,-371.0,58.0,932.0,4.0,-1.0,2.0,141,121,114,132,125
2025-02-26 15:13:01.328,-369.0,59.0,943.0,4.0,-1.0,2.0,142,119,114,134,126
2025-02-26 15:13:01.336,-363.0,59.0,938.0,5.0,-1.0,2.0,142,121,116,133,127
2025-02-26 15:13:01.341,-370.0,64.0,943.0,5.0,0.0,2.0,140,121,113,132,125
2025-02-26 15:13:01.345,-375.0,63.0,944.0,5.0,0.0,2.0,140,119,113,131,124
2025-02-26 15:13:01.349,-375.0,67.0,948.0,5.0,0.0,2.0,143,122,116,134,128
2025-02-26 15:13:01.353,-379.0,71.0,949.0,4.0,0.0,2.0,143,121,114,133,127
2025-02-26 15:13:01.361,-380.0,77.0,944.0,5.0,0.0,1.0,139,120,112,131,126
2025-02-26 15:13:01.365,-384.0,76.0,950.0,4.0,0.0,1.0,140,121,114,133,127
2025-02-26 15:13:01.369,-381.0,71.0,947.0,3.0,0.0,0.0,140,119,112,131,125
2025-02-26 15:13:01.373,-377.0,78.0,946.0,3.0,0.0,0.0,139,118,112,132,125
2025-02-26 15:13:01.377,-384.0,75.0,942.0,3.0,0.0,0.0,141,121,114,132,126
2025-02-26 15:13:01.382,-378.0,77.0,944.0,3.0,-1.0,-1.0,142,120,112,131,125
2025-02-26 15:13:01.390,-375.0,76.0,940.0,2.0,-1.0,-1.0,141,123,114,132,126
2025-02-26 15:13:01.394,-378.0,75.0,944.0,2.0,-2.0,-1.0,141,122,114,133,128
2025-02-26 15:13:01.398,-375.0,78.0,946.0,1.0,-2.0,-1.0,139,120,113,132,126
2025-02-26 15:13:01.402,-371.0,75.0,947.0,0.0,-3.0,-1.0,145,120,113,134,126
2025-02-26 15:13:01.409,-371.0,79.0,947.0,0.0,-4.0,-2.0,141,121,115,133,126
2025-02-26 15:13:01.414,-369.0,74.0,952.0,-1.0,-4.0,-2.0,148,119,112,131,124
2025-02-26 15:13:01.419,-364.0,74.0,954.0,-2.0,-4.0,-2.0,141,121,114,133,127
2025-02-26 15:13:01.423,-358.0,79.0,956.0,-2.0,-4.0,-2.0,141,120,113,129,125
2025-02-26 15:13:01.427,-357.0,76.0,961.0,-3.0,-3.0,-2.0,138,119,112,131,125
2025-02-26 15:13:01.434,-350.0,71.0,969.0,-4.0,-3.0,-3.0,140,120,108,133,127
2025-02-26 15:13:01.438,-348.0,75.0,970.0,-4.0,-2.0,-3.0,138,121,114,133,126
2025-02-26 15:13:01.443,-350.0,57.0,975.0,-5.0,-1.0,-2.0,139,119,112,130,125
2025-02-26 15:13:01.447,-344.0,60.0,963.0,-4.0,-1.0,-3.0,142,121,113,132,126
2025-02-26 15:13:01.455,-348.0,57.0,970.0,-4.0,0.0,-2.0,142,120,116,132,126
2025-02-26 15:13:01.459,-333.0,61.0,972.0,-3.0,1.0,-2.0,141,120,113,131,125
2025-02-26 15:13:01.461,-337.0,63.0,964.0,-3.0,1.0,-2.0,141,121,114,132,126
2025-02-26 15:13:01.468,-343.0,53.0,965.0,-3.0,1.0,-1.0,140,121,113,132,125
2025-02-26 15:13:01.472,-346.0,68.0,959.0,-3.0,1.0,-1.0,141,119,113,132,125
2025-02-26 15:13:01.479,-347.0,65.0,952.0,-2.0,1.0,-1.0,143,122,114,134,125
2025-02-26 15:13:01.484,-361.0,48.0,962.0,-4.0,1.0,-1.0,140,120,113,132,126
2025-02-26 15:13:01.488,-349.0,63.0,960.0,-2.0,1.0,-1.0,139,120,113,130,127
2025-02-26 15:13:01.492,-332.0,83.0,972.0,-1.0,0.0,-1.0,141,122,115,133,127
2025-02-26 15:13:01.498,-371.0,59.0,929.0,-4.0,0.0,0.0,140,118,114,132,127
2025-02-26 15:13:01.504,-361.0,51.0,966.0,-4.0,0.0,0.0,139,119,112,129,124
2025-02-26 15:13:01.509,-350.0,56.0,935.0,-5.0,-1.0,0.0,141,120,114,133,126
2025-02-26 15:13:01.512,-357.0,53.0,934.0,-3.0,-2.0,1.0,142,121,115,132,127
2025-02-26 15:13:01.516,-370.0,64.0,929.0,-3.0,-2.0,0.0,139,120,114,133,125
2025-02-26 15:13:01.524,-364.0,83.0,939.0,-3.0,-3.0,1.0,141,121,113,131,126
2025-02-26 15:13:01.528,-356.0,73.0,924.0,-4.0,-3.0,1.0,141,121,113,132,126
2025-02-26 15:13:01.533,-359.0,37.0,983.0,-3.0,-2.0,1.0,143,121,113,133,125
2025-02-26 15:13:01.537,-373.0,41.0,929.0,-6.0,-3.0,0.0,142,121,114,134,127
2025-02-26 15:13:01.542,-359.0,195.0,932.0,0.0,-3.0,1.0,142,121,113,132,127
2025-02-26 15:13:01.546,-392.0,31.0,933.0,-1.0,-3.0,1.0,139,120,113,132,124
2025-02-26 15:13:01.553,-374.0,45.0,905.0,1.0,-4.0,0.0,141,119,112,132,125
2025-02-26 15:13:01.557,-394.0,132.0,921.0,9.0,-5.0,1.0,142,121,115,133,126
2025-02-26 15:13:01.562,-381.0,45.0,1006.0,7.0,-4.0,2.0,139,120,112,133,125
2025-02-26 15:13:01.564,-385.0,77.0,996.0,6.0,-2.0,2.0,140,119,111,130,124
2025-02-26 15:13:01.574,-373.0,92.0,958.0,5.0,-2.0,2.0,143,122,115,134,127
2025-02-26 15:13:01.577,-345.0,88.0,979.0,4.0,-1.0,1.0,139,120,114,134,126
2025-02-26 15:13:01.583,-366.0,104.0,981.0,4.0,-1.0,1.0,141,119,112,130,123
2025-02-26 15:13:01.587,-383.0,80.0,972.0,2.0,-1.0,1.0,142,121,115,133,126
2025-02-26 15:13:01.588,-372.0,95.0,954.0,3.0,-2.0,-1.0,142,123,115,134,126
2025-02-26 15:13:01.599,-381.0,105.0,984.0,1.0,-2.0,-1.0,140,121,113,132,126
2025-02-26 15:13:01.602,-384.0,104.0,969.0,1.0,-3.0,-2.0,141,120,113,132,126
2025-02-26 15:13:01.607,-393.0,100.0,980.0,0.0,-4.0,-3.0,141,120,114,132,126
2025-02-26 15:13:01.611,-377.0,78.0,998.0,-1.0,-3.0,-3.0,141,122,114,134,125
2025-02-26 15:13:01.619,-364.0,97.0,979.0,-2.0,-2.0,-3.0,143,122,116,134,128
2025-02-26 15:13:01.623,-374.0,87.0,970.0,-3.0,-4.0,-3.0,143,122,115,133,127
2025-02-26 15:13:01.628,-372.0,85.0,996.0,-4.0,-3.0,-4.0,141,122,113,133,126
2025-02-26 15:13:01.631,-349.0,94.0,976.0,-2.0,-3.0,-4.0,144,123,115,134,129
2025-02-26 15:13:01.639,-376.0,69.0,998.0,-4.0,-3.0,-3.0,142,122,115,134,128
2025-02-26 15:13:01.643,-371.0,69.0,981.0,-4.0,-2.0,-4.0,141,120,114,133,126
2025-02-26 15:13:01.648,-362.0,66.0,987.0,-3.0,-2.0,-4.0,142,121,113,133,126
2025-02-26 15:13:01.652,-354.0,69.0,991.0,-4.0,0.0,-4.0,143,122,115,134,128
2025-02-26 15:13:01.656,-351.0,72.0,994.0,-4.0,0.0,-4.0,142,121,114,133,127
2025-02-26 15:13:01.661,-358.0,67.0,988.0,-5.0,0.0,-3.0,141,119,113,132,125
2025-02-26 15:13:01.668,-354.0,87.0,946.0,-5.0,0.0,-4.0,145,124,117,136,131
2025-02-26 15:13:01.672,-357.0,55.0,985.0,-5.0,1.0,-4.0,144,124,119,136,129
2025-02-26 15:13:01.676,-359.0,84.0,965.0,-8.0,0.0,-4.0,145,125,117,136,130
2025-02-26 15:13:01.684,-360.0,74.0,964.0,-11.0,0.0,-4.0,145,125,118,137,131
2025-02-26 15:13:01.689,-346.0,49.0,949.0,-9.0,2.0,-3.0,146,125,117,138,131
2025-02-26 15:13:01.692,-327.0,40.0,970.0,-13.0,2.0,-2.0,145,124,117,136,129
2025-02-26 15:13:01.697,-355.0,40.0,920.0,-12.0,2.0,-3.0,144,123,120,136,129
2025-02-26 15:13:01.702,-352.0,46.0,891.0,-10.0,-1.0,-3.0,145,124,118,136,129
2025-02-26 15:13:01.709,-332.0,3.0,953.0,-8.0,0.0,-2.0,146,125,117,140,130
2025-02-26 15:13:01.713,-342.0,40.0,916.0,-8.0,-1.0,-2.0,147,125,118,136,130
2025-02-26 15:13:01.717,-349.0,48.0,926.0,-7.0,-2.0,-2.0,145,125,119,137,130
2025-02-26 15:13:01.722,-349.0,23.0,963.0,-6.0,-2.0,-2.0,144,125,117,135,128
2025-02-26 15:13:01.729,-347.0,19.0,925.0,-2.0,-3.0,-1.0,142,122,114,130,127
2025-02-26 15:13:01.733,-355.0,25.0,923.0,1.0,-4.0,-1.0,145,125,118,135,128
2025-02-26 15:13:01.738,-323.0,39.0,949.0,2.0,-5.0,-1.0,145,122,115,134,127
2025-02-26 15:13:01.742,-358.0,45.0,972.0,3.0,-3.0,0.0,142,121,113,134,126
2025-02-26 15:13:01.746,-356.0,56.0,933.0,5.0,-4.0,0.0,144,123,115,134,127
2025-02-26 15:13:01.754,-353.0,56.0,936.0,6.0,-5.0,0.0,144,123,116,136,129
2025-02-26 15:13:01.758,-367.0,71.0,944.0,7.0,-5.0,0.0,140,121,116,133,127
2025-02-26 15:13:01.763,-354.0,71.0,938.0,5.0,-5.0,1.0,144,123,115,135,129
2025-02-26 15:13:01.765,-334.0,82.0,960.0,3.0,-4.0,0.0,146,124,117,137,130
2025-02-26 15:13:01.771,-362.0,84.0,957.0,3.0,-5.0,1.0,146,127,121,137,131
2025-02-26 15:13:01.779,-356.0,63.0,966.0,2.0,-3.0,1.0,151,131,122,142,134
2025-02-26 15:13:01.783,-358.0,90.0,960.0,0.0,-3.0,1.0,149,129,121,140,133
2025-02-26 15:13:01.787,-355.0,80.0,979.0,-2.0,-2.0,1.0,144,126,117,137,131
2025-02-26 15:13:01.791,-349.0,66.0,986.0,-3.0,-1.0,1.0,149,130,122,141,133
2025-02-26 15:13:01.796,-336.0,82.0,968.0,-4.0,-1.0,1.0,146,126,120,137,131
2025-02-26 15:13:01.803,-382.0,79.0,952.0,-4.0,-1.0,-1.0,144,124,117,135,130
2025-02-26 15:13:01.807,-355.0,64.0,988.0,-4.0,-1.0,0.0,145,125,118,137,130
2025-02-26 15:13:01.811,-345.0,70.0,960.0,-3.0,-1.0,0.0,149,128,122,139,131
2025-02-26 15:13:01.815,-361.0,79.0,962.0,-2.0,-1.0,-1.0,145,126,118,136,128
2025-02-26 15:13:01.824,-351.0,81.0,951.0,-2.0,-2.0,-1.0,143,123,116,134,128
2025-02-26 15:13:01.828,-371.0,62.0,976.0,-1.0,-2.0,-1.0,153,131,124,143,136
2025-02-26 15:13:01.832,-347.0,74.0,968.0,-1.0,-2.0,-1.0,164,143,137,155,148
2025-02-26 15:13:01.836,-356.0,74.0,969.0,-1.0,-2.0,-1.0,158,136,129,150,143
2025-02-26 15:13:01.838,-367.0,78.0,955.0,0.0,-2.0,0.0,160,138,132,150,144
2025-02-26 15:13:01.848,-353.0,57.0,970.0,0.0,-2.0,-1.0,156,134,126,144,139
2025-02-26 15:13:01.852,-357.0,69.0,984.0,1.0,-2.0,-1.0,153,135,126,145,138
2025-02-26 15:13:01.857,-352.0,65.0,968.0,0.0,-1.0,0.0,153,135,126,144,139
2025-02-26 15:13:01.861,-335.0,63.0,966.0,-2.0,-1.0,-1.0,153,133,125,144,137
2025-02-26 15:13:01.865,-342.0,71.0,975.0,0.0,0.0,-1.0,151,130,123,141,136
2025-02-26 15:13:01.872,-351.0,56.0,958.0,-2.0,0.0,-2.0,161,142,135,153,145
2025-02-26 15:13:01.877,-352.0,69.0,952.0,-1.0,0.0,-2.0,156,136,128,148,141
2025-02-26 15:13:01.881,-364.0,75.0,954.0,-1.0,0.0,-1.0,153,132,125,144,137
2025-02-26 15:13:01.885,-363.0,53.0,945.0,-3.0,0.0,-2.0,154,133,125,144,138
2025-02-26 15:13:01.892,-355.0,79.0,941.0,-2.0,-1.0,-2.0,146,125,119,138,131
2025-02-26 15:13:01.897,-364.0,83.0,941.0,-2.0,-1.0,-2.0,153,133,128,147,138
2025-02-26 15:13:01.911,-356.0,51.0,934.0,-3.0,-2.0,-2.0,150,130,123,141,133
2025-02-26 15:13:01.913,-369.0,60.0,927.0,-3.0,-3.0,-2.0,153,132,124,142,135
2025-02-26 15:13:01.916,-340.0,69.0,936.0,-3.0,-2.0,-2.0,156,134,126,147,139
2025-02-26 15:13:01.917,-368.0,48.0,943.0,-1.0,-3.0,-2.0,148,128,121,141,134
2025-02-26 15:13:01.922,-350.0,59.0,934.0,-2.0,-3.0,-2.0,151,131,124,143,137
2025-02-26 15:13:01.927,-358.0,62.0,965.0,-1.0,-3.0,-2.0,151,130,123,141,135
2025-02-26 15:13:01.930,-349.0,71.0,969.0,-1.0,-3.0,-1.0,150,128,122,142,135
2025-02-26 15:13:01.938,-360.0,51.0,966.0,-1.0,-3.0,-1.0,146,127,120,138,130
2025-02-26 15:13:01.943,-354.0,51.0,954.0,0.0,-3.0,-1.0,149,128,119,140,133
2025-02-26 15:13:01.947,-357.0,60.0,958.0,0.0,-3.0,-1.0,147,126,120,134,130
2025-02-26 15:13:01.951,-360.0,56.0,969.0,1.0,-3.0,-1.0,147,127,119,137,131
2025-02-26 15:13:01.959,-362.0,63.0,961.0,2.0,-3.0,-1.0,147,125,120,137,132
2025-02-26 15:13:01.963,-354.0,61.0,960.0,2.0,-3.0,-2.0,145,124,117,134,129
2025-02-26 15:13:01.967,-348.0,62.0,980.0,2.0,-3.0,-2.0,144,123,117,136,129
2025-02-26 15:13:01.972,-353.0,84.0,973.0,2.0,-3.0,-3.0,146,125,119,138,131
2025-02-26 15:13:01.976,-367.0,66.0,979.0,2.0,-3.0,-3.0,145,123,117,136,128
2025-02-26 15:13:01.983,-366.0,61.0,971.0,-1.0,-4.0,-3.0,144,124,116,135,128
2025-02-26 15:13:01.988,-356.0,80.0,954.0,-1.0,-4.0,-3.0,144,123,115,135,128
2025-02-26 15:13:01.992,-355.0,71.0,969.0,-1.0,-5.0,-4.0,144,124,117,137,130
2025-02-26 15:13:01.996,-359.0,40.0,989.0,0.0,-5.0,-4.0,144,122,114,133,127
2025-02-26 15:13:02.003,-356.0,48.0,989.0,-1.0,-4.0,-4.0,144,125,116,135,129
2025-02-26 15:13:02.008,-356.0,68.0,982.0,-2.0,-3.0,-4.0,143,124,117,135,129
2025-02-26 15:13:02.012,-351.0,50.0,971.0,-1.0,-3.0,-3.0,143,121,114,135,128
2025-02-26 15:13:02.016,-357.0,55.0,998.0,-4.0,-3.0,-4.0,142,121,112,134,126
2025-02-26 15:13:02.024,-340.0,59.0,972.0,-1.0,-2.0,-3.0,141,122,115,134,127
2025-02-26 15:13:02.028,-348.0,40.0,985.0,-1.0,-2.0,-3.0,142,122,115,133,125
2025-02-26 15:13:02.032,-374.0,50.0,1001.0,-2.0,-1.0,-3.0,140,121,113,132,126
2025-02-26 15:13:02.037,-326.0,63.0,1002.0,-1.0,-1.0,-3.0,143,122,115,133,127
2025-02-26 15:13:02.041,-370.0,19.0,977.0,-3.0,-1.0,-2.0,144,121,112,133,125
2025-02-26 15:13:02.049,-355.0,55.0,1000.0,-5.0,0.0,-2.0,145,122,113,134,128
2025-02-26 15:13:02.053,-338.0,42.0,998.0,-3.0,0.0,-2.0,141,121,115,134,127
2025-02-26 15:13:02.058,-352.0,42.0,1009.0,-5.0,0.0,-2.0,143,124,117,136,128
2025-02-26 15:13:02.062,-361.0,64.0,979.0,-5.0,0.0,-2.0,148,126,119,138,131
2025-02-26 15:13:02.069,-355.0,55.0,982.0,-5.0,0.0,-2.0,146,126,119,137,132
2025-02-26 15:13:02.074,-337.0,67.0,994.0,-6.0,1.0,-2.0,149,128,123,140,133
2025-02-26 15:13:02.075,-344.0,64.0,974.0,-6.0,1.0,-2.0,147,128,120,138,131
2025-02-26 15:13:02.082,-357.0,37.0,983.0,-7.0,2.0,-1.0,146,125,118,136,130
2025-02-26 15:13:02.086,-364.0,37.0,955.0,-6.0,2.0,-1.0,146,126,118,134,127
2025-02-26 15:13:02.094,-337.0,56.0,972.0,-5.0,3.0,-1.0,148,130,123,140,134
2025-02-26 15:13:02.098,-357.0,52.0,944.0,-5.0,3.0,-1.0,145,124,119,136,130
2025-02-26 15:13:02.102,-354.0,39.0,959.0,-5.0,3.0,0.0,145,124,116,135,128
2025-02-26 15:13:02.106,-353.0,47.0,929.0,-5.0,2.0,0.0,143,124,118,136,130
2025-02-26 15:13:02.111,-354.0,42.0,933.0,-5.0,2.0,0.0,145,124,115,135,129
2025-02-26 15:13:02.117,-367.0,41.0,927.0,-4.0,2.0,0.0,146,125,117,136,129
2025-02-26 15:13:02.123,-369.0,47.0,931.0,-6.0,1.0,0.0,143,124,115,135,128
2025-02-26 15:13:02.127,-359.0,51.0,924.0,-5.0,0.0,0.0,142,123,114,132,126
2025-02-26 15:13:02.131,-370.0,51.0,928.0,-6.0,-1.0,0.0,145,125,117,136,129
2025-02-26 15:13:02.135,-369.0,54.0,913.0,-6.0,-3.0,0.0,143,124,115,134,128
2025-02-26 15:13:02.143,-371.0,69.0,941.0,-5.0,-2.0,0.0,142,121,114,133,126
2025-02-26 15:13:02.148,-345.0,70.0,926.0,-6.0,-2.0,-1.0,145,122,114,134,128
2025-02-26 15:13:02.152,-363.0,53.0,929.0,-5.0,-2.0,-1.0,144,124,117,136,129
2025-02-26 15:13:02.156,-367.0,59.0,918.0,-4.0,-2.0,-1.0,141,118,114,133,127
2025-02-26 15:13:02.163,-375.0,60.0,958.0,-5.0,-2.0,0.0,140,120,114,133,125
2025-02-26 15:13:02.168,-337.0,69.0,890.0,-3.0,-3.0,-1.0,143,123,116,133,127
2025-02-26 15:13:02.172,-361.0,58.0,909.0,-1.0,-4.0,-2.0,144,122,116,134,128
2025-02-26 15:13:02.177,-355.0,47.0,963.0,0.0,-3.0,-1.0,143,120,113,133,125
2025-02-26 15:13:02.183,-331.0,61.0,931.0,2.0,-5.0,-1.0,142,121,115,133,127
2025-02-26 15:13:02.189,-350.0,47.0,958.0,3.0,-6.0,-1.0,142,121,114,133,126
2025-02-26 15:13:02.191,-350.0,71.0,930.0,2.0,-6.0,-1.0,142,122,114,132,126
2025-02-26 15:13:02.198,-348.0,73.0,950.0,1.0,-5.0,-1.0,144,122,115,134,126
2025-02-26 15:13:02.200,-343.0,72.0,964.0,1.0,-5.0,-2.0,141,120,114,133,126
2025-02-26 15:13:02.206,-335.0,34.0,950.0,1.0,-7.0,-2.0,141,120,112,131,124
2025-02-26 15:13:02.212,-336.0,76.0,977.0,-3.0,-8.0,-3.0,143,123,116,133,126
2025-02-26 15:13:02.217,-311.0,72.0,1034.0,-1.0,-6.0,-2.0,144,122,116,133,127
2025-02-26 15:13:02.219,-334.0,66.0,986.0,-2.0,-7.0,-3.0,140,120,113,132,125
2025-02-26 15:13:02.224,-308.0,47.0,946.0,-2.0,-8.0,-4.0,138,120,112,131,126
2025-02-26 15:13:02.231,-339.0,42.0,1024.0,-2.0,-5.0,-3.0,144,122,115,135,127
2025-02-26 15:13:02.237,-332.0,51.0,981.0,-2.0,-5.0,-3.0,140,122,114,133,126
2025-02-26 15:13:02.242,-308.0,19.0,977.0,-1.0,-6.0,-2.0,139,120,113,131,125
2025-02-26 15:13:02.246,-338.0,22.0,979.0,-1.0,-5.0,-2.0,142,120,113,133,125
2025-02-26 15:13:02.253,-306.0,65.0,1017.0,0.0,-4.0,-2.0,143,123,115,130,128
2025-02-26 15:13:02.258,-325.0,32.0,1014.0,1.0,-3.0,-2.0,139,120,114,132,126
2025-02-26 15:13:02.261,-322.0,78.0,991.0,1.0,-3.0,-2.0,140,121,113,132,125
2025-02-26 15:13:02.266,-330.0,61.0,1005.0,4.0,-2.0,-1.0,142,123,116,135,127
2025-02-26 15:13:02.273,-324.0,35.0,964.0,3.0,-3.0,-2.0,145,125,118,136,130
2025-02-26 15:13:02.278,-319.0,58.0,1015.0,2.0,-2.0,-1.0,145,123,116,135,129
2025-02-26 15:13:02.282,-322.0,88.0,988.0,3.0,-2.0,0.0,151,131,123,140,134
2025-02-26 15:13:02.287,-320.0,27.0,992.0,1.0,-4.0,-2.0,149,130,121,140,134
2025-02-26 15:13:02.291,-310.0,66.0,1004.0,2.0,-3.0,0.0,149,129,123,141,134
2025-02-26 15:13:02.299,-334.0,48.0,979.0,2.0,-2.0,0.0,151,131,125,143,136
2025-02-26 15:13:02.303,-334.0,69.0,972.0,0.0,-3.0,-1.0,147,127,121,138,132
2025-02-26 15:13:02.307,-333.0,65.0,981.0,-1.0,-3.0,0.0,147,127,122,140,133
2025-02-26 15:13:02.309,-346.0,67.0,969.0,0.0,-3.0,0.0,154,133,126,144,138
2025-02-26 15:13:02.316,-338.0,54.0,970.0,-1.0,-3.0,-1.0,151,130,123,140,133
2025-02-26 15:13:02.323,-339.0,72.0,962.0,-3.0,-3.0,0.0,149,128,121,140,133
2025-02-26 15:13:02.328,-354.0,64.0,958.0,-1.0,-4.0,-1.0,156,135,129,146,140
2025-02-26 15:13:02.332,-358.0,42.0,982.0,-2.0,-3.0,-1.0,153,133,125,145,137
2025-02-26 15:13:02.336,-349.0,73.0,970.0,0.0,-3.0,-1.0,151,131,122,142,134
2025-02-26 15:13:02.340,-336.0,72.0,983.0,1.0,-4.0,-2.0,150,130,124,143,136
2025-02-26 15:13:02.348,-345.0,49.0,982.0,0.0,-3.0,-2.0,153,132,126,144,138
2025-02-26 15:13:02.351,-340.0,56.0,974.0,1.0,-3.0,-2.0,148,127,119,139,132
2025-02-26 15:13:02.357,-347.0,51.0,990.0,2.0,-3.0,-2.0,145,126,117,136,131
2025-02-26 15:13:02.360,-350.0,46.0,993.0,3.0,-2.0,-2.0,150,129,121,141,134
2025-02-26 15:13:02.369,-342.0,51.0,995.0,3.0,-2.0,-1.0,144,125,117,135,129
2025-02-26 15:13:02.373,-348.0,60.0,993.0,3.0,-2.0,-1.0,144,121,115,135,127
2025-02-26 15:13:02.377,-356.0,47.0,1003.0,3.0,-2.0,-1.0,141,121,115,134,127
2025-02-26 15:13:02.381,-362.0,68.0,995.0,3.0,-2.0,-1.0,140,120,112,131,124
2025-02-26 15:13:02.387,-348.0,74.0,986.0,1.0,-2.0,-1.0,141,119,111,130,123
2025-02-26 15:13:02.387,-354.0,70.0,1006.0,1.0,-3.0,-2.0,141,122,113,133,124
2025-02-26 15:13:02.397,-351.0,72.0,992.0,0.0,-4.0,-2.0,141,120,113,132,126
2025-02-26 15:13:02.399,-354.0,67.0,982.0,0.0,-4.0,-3.0,139,119,113,131,124
2025-02-26 15:13:02.406,-347.0,60.0,975.0,1.0,-6.0,-3.0,141,121,112,130,125
2025-02-26 15:13:02.414,-338.0,77.0,993.0,0.0,-6.0,-4.0,142,121,113,133,126
2025-02-26 15:13:02.418,-343.0,54.0,991.0,-1.0,-6.0,-4.0,138,120,112,132,122
2025-02-26 15:13:02.418,-332.0,61.0,980.0,-2.0,-5.0,-3.0,141,120,113,132,125
2025-02-26 15:13:02.426,-341.0,47.0,981.0,-1.0,-6.0,-3.0,146,126,118,137,131
2025-02-26 15:13:02.430,-343.0,35.0,992.0,0.0,-6.0,-2.0,145,124,118,137,131
2025-02-26 15:13:02.438,-337.0,47.0,973.0,1.0,-5.0,-2.0,146,125,117,136,129
2025-02-26 15:13:02.442,-339.0,44.0,987.0,3.0,-5.0,-1.0,144,123,118,135,129
2025-02-26 15:13:02.446,-348.0,47.0,962.0,4.0,-5.0,-1.0,144,124,115,135,129
2025-02-26 15:13:02.451,-337.0,32.0,1012.0,3.0,-4.0,-1.0,144,125,118,135,128
2025-02-26 15:13:02.458,-340.0,58.0,979.0,3.0,-4.0,-1.0,142,123,117,135,129
2025-02-26 15:13:02.463,-351.0,60.0,980.0,3.0,-5.0,-2.0,144,124,116,135,128
2025-02-26 15:13:02.466,-337.0,62.0,994.0,4.0,-4.0,-1.0,142,123,115,133,127
2025-02-26 15:13:02.466,-354.0,69.0,986.0,3.0,-3.0,-1.0,146,125,117,136,130
2025-02-26 15:13:02.473,-348.0,76.0,976.0,1.0,-3.0,-1.0,145,123,115,134,129
2025-02-26 15:13:02.483,-348.0,72.0,980.0,0.0,-3.0,-2.0,141,121,114,134,126
2025-02-26 15:13:02.487,-358.0,68.0,986.0,0.0,-2.0,-2.0,143,123,115,136,127
2025-02-26 15:13:02.492,-349.0,64.0,984.0,-1.0,-2.0,-2.0,146,125,117,136,130
2025-02-26 15:13:02.495,-348.0,72.0,983.0,-1.0,-1.0,-2.0,142,123,115,134,127
2025-02-26 15:13:02.504,-356.0,64.0,987.0,-2.0,-1.0,-2.0,142,121,113,133,125
2025-02-26 15:13:02.508,-356.0,54.0,983.0,-3.0,0.0,-1.0,142,123,115,134,128
2025-02-26 15:13:02.512,-358.0,48.0,978.0,-3.0,0.0,-1.0,144,123,116,135,128
2025-02-26 15:13:02.515,-353.0,40.0,977.0,-3.0,0.0,-1.0,143,122,115,132,126
2025-02-26 15:13:02.523,-346.0,39.0,973.0,-2.0,0.0,-1.0,143,122,114,134,127
2025-02-26 15:13:02.528,-351.0,43.0,974.0,-2.0,1.0,-1.0,144,121,114,134,128
2025-02-26 15:13:02.533,-342.0,41.0,966.0,-1.0,1.0,-1.0,143,124,117,135,126
2025-02-26 15:13:02.536,-352.0,44.0,981.0,-1.0,2.0,0.0,143,123,115,135,128
2025-02-26 15:13:02.541,-344.0,35.0,972.0,-2.0,2.0,-1.0,144,122,115,133,127
2025-02-26 15:13:02.548,-340.0,47.0,984.0,-1.0,3.0,0.0,141,120,114,133,126
2025-02-26 15:13:02.550,-346.0,33.0,966.0,-1.0,3.0,-1.0,144,124,117,136,128
2025-02-26 15:13:02.550,-342.0,56.0,979.0,-1.0,3.0,0.0,141,128,116,133,127
2025-02-26 15:13:02.561,-340.0,37.0,955.0,-2.0,2.0,0.0,139,120,113,133,126
2025-02-26 15:13:02.565,-323.0,41.0,953.0,-2.0,3.0,0.0,139,121,114,133,127
2025-02-26 15:13:02.573,-342.0,40.0,961.0,-3.0,3.0,0.0,144,122,114,133,126
2025-02-26 15:13:02.577,-321.0,45.0,960.0,-3.0,2.0,1.0,141,120,112,131,124
2025-02-26 15:13:02.582,-335.0,34.0,960.0,-4.0,2.0,0.0,143,121,112,131,124
2025-02-26 15:13:02.586,-335.0,45.0,954.0,-4.0,2.0,1.0,140,120,114,132,125
2025-02-26 15:13:02.590,-329.0,49.0,954.0,-4.0,1.0,1.0,140,119,113,131,125
2025-02-26 15:13:02.594,-328.0,47.0,970.0,-3.0,1.0,0.0,142,124,115,133,126
2025-02-26 15:13:02.602,-333.0,36.0,958.0,-5.0,1.0,1.0,141,120,113,132,124
2025-02-26 15:13:02.606,-341.0,70.0,948.0,-3.0,1.0,0.0,139,120,111,130,126
2025-02-26 15:13:02.607,-329.0,20.0,948.0,-3.0,1.0,0.0,140,120,113,132,125
2025-02-26 15:13:02.615,-329.0,50.0,953.0,-4.0,2.0,1.0,143,120,113,131,124
2025-02-26 15:13:02.619,-324.0,44.0,942.0,-4.0,2.0,1.0,140,118,112,133,124
2025-02-26 15:13:02.627,-331.0,46.0,966.0,-4.0,1.0,0.0,141,119,114,132,125
2025-02-26 15:13:02.631,-340.0,30.0,965.0,-3.0,2.0,1.0,140,119,112,131,124
2025-02-26 15:13:02.635,-327.0,37.0,957.0,-2.0,2.0,2.0,140,122,110,130,126
2025-02-26 15:13:02.639,-312.0,46.0,939.0,-1.0,2.0,2.0,141,120,113,133,126
2025-02-26 15:13:02.644,-332.0,42.0,950.0,-2.0,2.0,2.0,139,113,112,130,126
2025-02-26 15:13:02.651,-332.0,43.0,955.0,-1.0,2.0,2.0,141,120,112,131,125
2025-02-26 15:13:02.655,-337.0,47.0,949.0,-1.0,2.0,2.0,141,123,115,132,126
2025-02-26 15:13:02.660,-333.0,49.0,950.0,-1.0,2.0,2.0,139,121,112,132,124
2025-02-26 15:13:02.663,-334.0,61.0,958.0,-2.0,1.0,3.0,133,119,112,132,125
2025-02-26 15:13:02.668,-339.0,61.0,957.0,-2.0,1.0,3.0,146,122,111,128,125
2025-02-26 15:13:02.676,-344.0,68.0,953.0,-2.0,1.0,3.0,138,119,112,129,123
2025-02-26 15:13:02.680,-346.0,55.0,957.0,-3.0,0.0,3.0,142,121,114,132,125
2025-02-26 15:13:02.684,-343.0,64.0,949.0,-3.0,0.0,3.0,139,120,113,128,125
2025-02-26 15:13:02.688,-349.0,70.0,951.0,-3.0,0.0,3.0,139,118,111,132,124
2025-02-26 15:13:02.693,-343.0,62.0,951.0,-3.0,0.0,3.0,143,124,115,133,127
2025-02-26 15:13:02.700,-348.0,62.0,947.0,-3.0,-1.0,3.0,140,120,112,132,125
2025-02-26 15:13:02.704,-351.0,62.0,950.0,-3.0,-1.0,3.0,137,119,112,130,123
2025-02-26 15:13:02.709,-345.0,63.0,945.0,-2.0,-1.0,3.0,140,119,112,132,124
2025-02-26 15:13:02.713,-346.0,65.0,959.0,-2.0,0.0,2.0,141,121,114,132,124
2025-02-26 15:13:02.717,-345.0,76.0,960.0,0.0,0.0,2.0,139,121,111,130,123
2025-02-26 15:13:02.725,-352.0,67.0,956.0,-1.0,1.0,2.0,139,119,112,131,124
2025-02-26 15:13:02.729,-342.0,74.0,957.0,1.0,1.0,1.0,140,119,111,131,124
2025-02-26 15:13:02.733,-354.0,88.0,945.0,0.0,1.0,1.0,138,119,112,131,124
2025-02-26 15:13:02.738,-353.0,87.0,965.0,0.0,1.0,1.0,140,119,112,130,125
2025-02-26 15:13:02.742,-365.0,103.0,933.0,1.0,1.0,0.0,138,118,112,131,124
2025-02-26 15:13:02.746,-355.0,102.0,974.0,-1.0,1.0,0.0,138,118,111,129,122
2025-02-26 15:13:02.754,-358.0,91.0,926.0,-3.0,0.0,-1.0,143,120,113,131,125
2025-02-26 15:13:02.758,-363.0,85.0,953.0,-4.0,-1.0,-1.0,138,118,110,130,123
2025-02-26 15:13:02.762,-355.0,93.0,949.0,-5.0,-2.0,-2.0,138,117,110,129,122
2025-02-26 15:13:02.766,-352.0,72.0,960.0,-6.0,-2.0,-3.0,142,120,111,130,123
2025-02-26 15:13:02.774,-364.0,66.0,941.0,-6.0,-3.0,-3.0,141,121,112,134,126
2025-02-26 15:13:02.778,-354.0,76.0,938.0,-9.0,-3.0,-3.0,139,117,111,129,125
2025-02-26 15:13:02.783,-339.0,74.0,939.0,-7.0,-4.0,-4.0,140,118,112,131,124
2025-02-26 15:13:02.787,-345.0,41.0,958.0,-7.0,-4.0,-3.0,140,119,112,130,125
2025-02-26 15:13:02.794,-357.0,52.0,944.0,-7.0,-4.0,-3.0,139,119,112,130,124
2025-02-26 15:13:02.799,-335.0,51.0,947.0,-5.0,-4.0,-3.0,138,119,110,129,124
2025-02-26 15:13:02.803,-343.0,47.0,932.0,-5.0,-5.0,-3.0,139,118,111,130,124
2025-02-26 15:13:02.807,-346.0,45.0,948.0,-3.0,-5.0,-2.0,140,119,111,131,124
2025-02-26 15:13:02.812,-350.0,58.0,956.0,-2.0,-5.0,-2.0,138,120,111,130,124
2025-02-26 15:13:02.819,-333.0,43.0,962.0,-2.0,-5.0,-2.0,140,120,112,130,124
2025-02-26 15:13:02.824,-336.0,45.0,978.0,-1.0,-5.0,-2.0,139,119,111,130,123
2025-02-26 15:13:02.827,-335.0,56.0,967.0,0.0,-5.0,-2.0,138,118,111,129,123
2025-02-26 15:13:02.832,-326.0,50.0,994.0,1.0,-5.0,-2.0,140,119,112,131,124
2025-02-26 15:13:02.840,-329.0,55.0,981.0,1.0,-5.0,-2.0,141,120,112,130,124
2025-02-26 15:13:02.844,-323.0,62.0,982.0,1.0,-5.0,-2.0,136,119,111,129,122
2025-02-26 15:13:02.848,-329.0,67.0,978.0,1.0,-5.0,-2.0,136,117,111,129,122
2025-02-26 15:13:02.852,-335.0,63.0,989.0,0.0,-4.0,-2.0,140,120,112,132,125
2025-02-26 15:13:02.857,-314.0,56.0,988.0,0.0,-4.0,-3.0,139,118,115,131,122
2025-02-26 15:13:02.864,-321.0,67.0,984.0,0.0,-4.0,-3.0,137,118,109,128,122
2025-02-26 15:13:02.868,-313.0,71.0,1010.0,0.0,-4.0,-2.0,140,119,112,131,125
2025-02-26 15:13:02.872,-313.0,62.0,999.0,-1.0,-3.0,-3.0,140,120,112,132,125
2025-02-26 15:13:02.877,-319.0,67.0,988.0,-1.0,-3.0,-2.0,140,117,111,129,123
2025-02-26 15:13:02.885,-318.0,66.0,1001.0,-1.0,-3.0,-2.0,138,118,113,130,122
2025-02-26 15:13:02.887,-318.0,44.0,992.0,-1.0,-3.0,-2.0,139,117,112,132,124
2025-02-26 15:13:02.893,-312.0,55.0,989.0,0.0,-3.0,-2.0,140,119,111,131,123
2025-02-26 15:13:02.897,-314.0,65.0,995.0,0.0,-2.0,-2.0,141,119,111,127,123
2025-02-26 15:13:02.905,-309.0,55.0,1014.0,0.0,-1.0,-2.0,140,119,112,125,125
2025-02-26 15:13:02.909,-306.0,49.0,995.0,-1.0,-2.0,-2.0,138,118,111,130,123
2025-02-26 15:13:02.914,-305.0,59.0,998.0,-1.0,-1.0,-1.0,139,119,113,132,124
2025-02-26 15:13:02.918,-306.0,62.0,994.0,-1.0,0.0,-1.0,141,121,114,131,127
2025-02-26 15:13:02.922,-306.0,51.0,997.0,-1.0,0.0,-1.0,141,121,114,133,126
2025-02-26 15:13:02.930,-306.0,47.0,992.0,0.0,0.0,-1.0,140,120,112,132,124
2025-02-26 15:13:02.934,-312.0,57.0,977.0,1.0,0.0,-1.0,142,123,115,133,127
2025-02-26 15:13:02.938,-307.0,44.0,983.0,1.0,0.0,-1.0,142,123,115,135,126
2025-02-26 15:13:02.942,-313.0,61.0,976.0,1.0,1.0,-1.0,141,121,112,131,125
2025-02-26 15:13:02.947,-322.0,41.0,971.0,1.0,1.0,0.0,142,121,113,132,126
2025-02-26 15:13:02.954,-315.0,52.0,963.0,2.0,1.0,0.0,143,122,115,133,128
2025-02-26 15:13:02.959,-326.0,59.0,956.0,1.0,0.0,0.0,142,123,112,132,124
2025-02-26 15:13:02.963,-316.0,65.0,961.0,0.0,0.0,0.0,142,122,114,132,125
2025-02-26 15:13:02.967,-330.0,63.0,955.0,0.0,0.0,0.0,141,119,113,132,125
2025-02-26 15:13:02.971,-328.0,73.0,958.0,-2.0,0.0,0.0,143,122,116,135,128
2025-02-26 15:13:02.975,-329.0,61.0,966.0,-2.0,0.0,-1.0,142,122,113,132,126
2025-02-26 15:13:02.983,-333.0,63.0,957.0,-2.0,0.0,0.0,141,121,113,131,125
2025-02-26 15:13:02.987,-336.0,56.0,953.0,-3.0,0.0,0.0,142,122,114,132,127
2025-02-26 15:13:02.990,-334.0,58.0,952.0,-2.0,0.0,0.0,144,123,114,133,126
2025-02-26 15:13:02.995,-350.0,62.0,942.0,-4.0,0.0,0.0,141,119,112,133,126
2025-02-26 15:13:03.000,-335.0,53.0,944.0,-3.0,0.0,1.0,141,120,113,133,127
2025-02-26 15:13:03.007,-344.0,60.0,922.0,-3.0,0.0,1.0,140,119,112,133,125
2025-02-26 15:13:03.012,-353.0,44.0,928.0,-3.0,0.0,1.0,139,119,113,132,126
2025-02-26 15:13:03.013,-348.0,58.0,929.0,-2.0,-1.0,1.0,142,121,115,132,125
2025-02-26 15:13:03.020,-356.0,41.0,938.0,-2.0,-2.0,1.0,142,119,115,133,126
2025-02-26 15:13:03.025,-358.0,72.0,924.0,-1.0,-2.0,1.0,140,121,110,130,124
2025-02-26 15:13:03.031,-363.0,71.0,926.0,-1.0,-3.0,1.0,140,120,113,132,125
2025-02-26 15:13:03.037,-357.0,68.0,933.0,-2.0,-5.0,1.0,141,120,113,132,127
2025-02-26 15:13:03.037,-370.0,70.0,938.0,0.0,-5.0,1.0,140,122,113,130,124
2025-02-26 15:13:03.043,-346.0,92.0,929.0,0.0,-6.0,1.0,141,122,114,134,125
2025-02-26 15:13:03.049,-359.0,73.0,959.0,-1.0,-6.0,1.0,142,121,114,131,125
2025-02-26 15:13:03.055,-358.0,88.0,954.0,0.0,-5.0,0.0,137,118,114,132,125
2025-02-26 15:13:03.061,-355.0,90.0,960.0,0.0,-5.0,0.0,144,123,114,135,129
2025-02-26 15:13:03.061,-358.0,75.0,967.0,0.0,-5.0,-1.0,140,122,115,131,127
2025-02-26 15:13:03.069,-360.0,78.0,968.0,2.0,-5.0,-2.0,141,122,115,132,126
2025-02-26 15:13:03.077,-350.0,82.0,971.0,3.0,-6.0,-1.0,142,122,114,133,129
2025-02-26 15:13:03.082,-355.0,81.0,984.0,3.0,-7.0,-2.0,143,121,114,134,129
2025-02-26 15:13:03.085,-351.0,80.0,997.0,4.0,-7.0,-2.0,142,120,114,134,126
2025-02-26 15:13:03.089,-354.0,73.0,1012.0,4.0,-7.0,-2.0,143,123,117,134,127
2025-02-26 15:13:03.094,-343.0,84.0,1011.0,5.0,-7.0,-2.0,143,122,116,134,128
2025-02-26 15:13:03.101,-343.0,74.0,1021.0,5.0,-7.0,-2.0,141,121,114,134,127
2025-02-26 15:13:03.106,-337.0,83.0,1030.0,5.0,-6.0,-2.0,141,121,113,131,124
2025-02-26 15:13:03.110,-338.0,86.0,1016.0,4.0,-5.0,-2.0,143,123,114,134,126
2025-02-26 15:13:03.114,-321.0,79.0,1063.0,4.0,-4.0,-3.0,144,122,116,135,128
2025-02-26 15:13:03.122,-321.0,87.0,1061.0,3.0,-4.0,-4.0,142,123,116,135,128
2025-02-26 15:13:03.127,-327.0,83.0,1049.0,2.0,-3.0,-4.0,142,123,117,134,128
2025-02-26 15:13:03.129,-320.0,79.0,1050.0,0.0,-2.0,-5.0,142,124,115,134,127
2025-02-26 15:13:03.135,-312.0,80.0,1049.0,-1.0,-2.0,-5.0,146,122,115,134,128
2025-02-26 15:13:03.141,-321.0,84.0,1050.0,-3.0,-1.0,-5.0,142,122,115,134,127
2025-02-26 15:13:03.147,-301.0,83.0,1048.0,-4.0,0.0,-5.0,144,123,115,133,127
2025-02-26 15:13:03.151,-321.0,64.0,1050.0,-5.0,0.0,-5.0,143,124,117,135,127
2025-02-26 15:13:03.155,-306.0,53.0,1045.0,-6.0,1.0,-6.0,142,122,114,132,126
2025-02-26 15:13:03.160,-296.0,64.0,1035.0,-6.0,2.0,-5.0,143,124,115,133,127
2025-02-26 15:13:03.167,-293.0,43.0,1030.0,-6.0,3.0,-6.0,143,122,114,133,127
2025-02-26 15:13:03.171,-295.0,43.0,1017.0,-7.0,3.0,-5.0,141,122,114,133,126
2025-02-26 15:13:03.175,-292.0,41.0,1010.0,-6.0,4.0,-5.0,142,121,114,133,126
2025-02-26 15:13:03.180,-294.0,41.0,1015.0,-6.0,4.0,-5.0,143,124,115,132,129
2025-02-26 15:13:03.187,-298.0,19.0,995.0,-6.0,4.0,-5.0,143,120,115,135,128
2025-02-26 15:13:03.191,-320.0,8.0,1038.0,-3.0,6.0,-4.0,142,120,113,133,126
2025-02-26 15:13:03.196,-300.0,8.0,978.0,-4.0,5.0,-4.0,142,122,117,134,127
2025-02-26 15:13:03.200,-308.0,8.0,1005.0,-4.0,5.0,-3.0,143,122,115,134,128
2025-02-26 15:13:03.204,-295.0,30.0,982.0,-3.0,5.0,-3.0,140,121,113,134,127
2025-02-26 15:13:03.212,-295.0,39.0,939.0,-3.0,5.0,-3.0,142,122,116,135,127
2025-02-26 15:13:03.216,-307.0,8.0,960.0,-4.0,5.0,-2.0,141,122,115,133,128
2025-02-26 15:13:03.220,-305.0,22.0,950.0,-3.0,5.0,-1.0,142,122,115,132,126
2025-02-26 15:13:03.225,-307.0,16.0,943.0,-3.0,4.0,-1.0,142,122,116,133,127
2025-02-26 15:13:03.232,-313.0,27.0,943.0,-2.0,4.0,-1.0,142,122,115,133,127
2025-02-26 15:13:03.237,-310.0,29.0,942.0,-3.0,4.0,-1.0,143,121,114,132,124
2025-02-26 15:13:03.238,-308.0,37.0,931.0,-3.0,3.0,-1.0,141,122,115,134,128
2025-02-26 15:13:03.245,-315.0,32.0,927.0,-3.0,2.0,0.0,143,121,114,134,127
2025-02-26 15:13:03.250,-317.0,39.0,927.0,-3.0,2.0,-1.0,140,119,115,132,126
2025-02-26 15:13:03.260,-318.0,38.0,925.0,-3.0,1.0,0.0,144,123,115,135,128
2025-02-26 15:13:03.261,-320.0,43.0,922.0,-3.0,1.0,0.0,142,122,115,135,128
2025-02-26 15:13:03.266,-320.0,38.0,928.0,-3.0,0.0,0.0,142,123,114,131,125
2025-02-26 15:13:03.269,-319.0,42.0,921.0,-3.0,0.0,0.0,143,123,114,133,127
2025-02-26 15:13:03.274,-323.0,39.0,919.0,-2.0,0.0,1.0,139,124,116,133,127
2025-02-26 15:13:03.281,-327.0,40.0,925.0,-1.0,0.0,1.0,143,122,113,133,126
2025-02-26 15:13:03.286,-330.0,41.0,925.0,-1.0,0.0,1.0,143,124,115,134,126
2025-02-26 15:13:03.290,-331.0,49.0,925.0,0.0,0.0,0.0,143,122,115,133,128
2025-02-26 15:13:03.294,-338.0,51.0,921.0,1.0,0.0,0.0,141,121,114,132,126
2025-02-26 15:13:03.299,-342.0,50.0,926.0,1.0,0.0,0.0,142,122,115,134,128
2025-02-26 15:13:03.303,-338.0,49.0,926.0,1.0,0.0,0.0,144,122,114,133,129
2025-02-26 15:13:03.311,-344.0,52.0,930.0,1.0,-1.0,0.0,141,122,115,133,127
2025-02-26 15:13:03.315,-350.0,65.0,925.0,1.0,-1.0,0.0,145,126,118,134,130
2025-02-26 15:13:03.318,-351.0,55.0,935.0,0.0,-1.0,0.0,141,123,114,131,125
2025-02-26 15:13:03.323,-349.0,72.0,920.0,0.0,-1.0,0.0,141,122,115,134,126
2025-02-26 15:13:03.327,-357.0,64.0,930.0,0.0,-1.0,0.0,142,121,113,133,127
2025-02-26 15:13:03.335,-342.0,52.0,931.0,0.0,-2.0,0.0,141,122,114,133,126
2025-02-26 15:13:03.339,-364.0,53.0,921.0,-2.0,-2.0,0.0,143,122,116,135,126
2025-02-26 15:13:03.343,-357.0,59.0,912.0,-2.0,-3.0,0.0,142,121,114,133,127
2025-02-26 15:13:03.348,-351.0,61.0,918.0,-2.0,-3.0,0.0,142,121,115,132,125
2025-02-26 15:13:03.352,-369.0,46.0,909.0,-1.0,-4.0,0.0,143,122,116,133,128
2025-02-26 15:13:03.360,-354.0,60.0,913.0,-1.0,-5.0,0.0,142,122,115,133,127
2025-02-26 15:13:03.363,-364.0,59.0,915.0,-1.0,-5.0,1.0,141,121,112,132,125
2025-02-26 15:13:03.365,-356.0,58.0,931.0,0.0,-5.0,0.0,143,123,115,134,127
2025-02-26 15:13:03.372,-368.0,53.0,924.0,0.0,-6.0,0.0,139,124,116,136,128
2025-02-26 15:13:03.376,-362.0,63.0,933.0,1.0,-6.0,0.0,143,121,115,132,125
2025-02-26 15:13:03.384,-361.0,65.0,938.0,2.0,-7.0,0.0,142,122,115,133,127
2025-02-26 15:13:03.389,-360.0,62.0,937.0,2.0,-7.0,0.0,143,122,114,133,127
2025-02-26 15:13:03.393,-361.0,65.0,950.0,1.0,-7.0,0.0,143,121,114,132,126
2025-02-26 15:13:03.395,-363.0,59.0,942.0,1.0,-7.0,-1.0,143,121,115,134,127
2025-02-26 15:13:03.401,-364.0,70.0,948.0,1.0,-8.0,-1.0,144,125,114,133,127
2025-02-26 15:13:03.409,-364.0,75.0,955.0,1.0,-8.0,-1.0,140,120,114,132,125
2025-02-26 15:13:03.413,-369.0,64.0,965.0,1.0,-8.0,-1.0,143,124,117,135,129
2025-02-26 15:13:03.418,-366.0,70.0,976.0,1.0,-8.0,-1.0,144,123,116,134,127
2025-02-26 15:13:03.422,-361.0,73.0,980.0,0.0,-8.0,-2.0,142,120,113,133,122
2025-02-26 15:13:03.426,-355.0,70.0,996.0,0.0,-9.0,-2.0,142,122,113,134,127
2025-02-26 15:13:03.434,-352.0,72.0,990.0,0.0,-9.0,-2.0,144,124,117,134,129
2025-02-26 15:13:03.438,-355.0,71.0,1004.0,0.0,-9.0,-2.0,142,121,114,132,126
2025-02-26 15:13:03.442,-346.0,61.0,1007.0,0.0,-9.0,-3.0,141,120,112,131,124
2025-02-26 15:13:03.446,-341.0,66.0,1015.0,0.0,-9.0,-3.0,143,124,115,132,127
2025-02-26 15:13:03.454,-338.0,64.0,1021.0,0.0,-9.0,-3.0,143,124,116,136,128
2025-02-26 15:13:03.457,-339.0,57.0,1024.0,-1.0,-8.0,-3.0,141,122,113,133,125
2025-02-26 15:13:03.462,-331.0,55.0,1031.0,-1.0,-8.0,-3.0,142,122,114,134,127
2025-02-26 15:13:03.467,-328.0,60.0,1039.0,-1.0,-8.0,-3.0,144,122,115,134,127
2025-02-26 15:13:03.475,-331.0,54.0,1045.0,-1.0,-7.0,-3.0,143,122,114,134,127
2025-02-26 15:13:03.479,-324.0,57.0,1048.0,-2.0,-6.0,-3.0,140,121,115,133,126
2025-02-26 15:13:03.483,-320.0,58.0,1053.0,-2.0,-5.0,-3.0,143,121,116,133,126
2025-02-26 15:13:03.487,-315.0,47.0,1051.0,-2.0,-4.0,-3.0,142,122,115,134,127
2025-02-26 15:13:03.495,-320.0,42.0,1050.0,-2.0,-4.0,-3.0,142,120,113,134,126
2025-02-26 15:13:03.497,-316.0,41.0,1047.0,-2.0,-3.0,-3.0,140,124,114,133,126
2025-02-26 15:13:03.503,-314.0,37.0,1051.0,-1.0,-2.0,-2.0,142,123,113,131,126
2025-02-26 15:13:03.507,-309.0,34.0,1046.0,-2.0,-1.0,-2.0,141,122,115,132,126
2025-02-26 15:13:03.515,-306.0,38.0,1049.0,-2.0,-1.0,-2.0,144,120,115,136,125
2025-02-26 15:13:03.519,-309.0,30.0,1046.0,-2.0,0.0,-2.0,143,120,112,131,123
2025-02-26 15:13:03.523,-301.0,39.0,1043.0,-2.0,0.0,-1.0,142,121,113,133,126
2025-02-26 15:13:03.528,-296.0,40.0,1042.0,-3.0,1.0,-1.0,141,122,114,133,126
2025-02-26 15:13:03.536,-300.0,43.0,1039.0,-4.0,1.0,-1.0,146,121,114,131,125
2025-02-26 15:13:03.540,-297.0,41.0,1033.0,-6.0,2.0,-1.0,142,121,113,131,126
2025-02-26 15:13:03.544,-302.0,34.0,1037.0,-6.0,3.0,0.0,141,122,114,133,125
2025-02-26 15:13:03.549,-295.0,32.0,1023.0,-7.0,4.0,0.0,141,119,112,131,126
2025-02-26 15:13:03.556,-300.0,34.0,1014.0,-7.0,4.0,0.0,142,123,108,133,127
2025-02-26 15:13:03.560,-304.0,27.0,1008.0,-6.0,5.0,0.0,141,121,114,133,127
2025-02-26 15:13:03.565,-305.0,26.0,1000.0,-6.0,5.0,1.0,138,120,113,130,124
2025-02-26 15:13:03.566,-304.0,29.0,993.0,-6.0,5.0,0.0,141,120,114,132,125
2025-02-26 15:13:03.573,-311.0,26.0,986.0,-5.0,4.0,1.0,148,122,113,132,128
2025-02-26 15:13:03.580,-310.0,29.0,980.0,-5.0,4.0,1.0,136,119,113,131,124
2025-02-26 15:13:03.584,-309.0,28.0,971.0,-4.0,4.0,1.0,142,122,117,132,125
2025-02-26 15:13:03.589,-311.0,32.0,966.0,-3.0,3.0,1.0,142,120,113,133,126
2025-02-26 15:13:03.594,-317.0,38.0,967.0,-3.0,3.0,2.0,141,120,113,132,126
2025-02-26 15:13:03.596,-314.0,39.0,967.0,-3.0,3.0,2.0,145,121,115,133,126
2025-02-26 15:13:03.602,-314.0,43.0,968.0,-3.0,3.0,2.0,141,122,113,134,126
2025-02-26 15:13:03.609,-318.0,41.0,965.0,-2.0,3.0,2.0,141,120,113,132,125
2025-02-26 15:13:03.613,-318.0,41.0,964.0,-2.0,2.0,2.0,143,122,115,133,127
2025-02-26 15:13:03.618,-317.0,44.0,974.0,-2.0,2.0,2.0,144,121,108,132,126
2025-02-26 15:13:03.622,-326.0,48.0,970.0,-2.0,2.0,2.0,140,119,112,133,126
2025-02-26 15:13:03.627,-319.0,56.0,967.0,-4.0,2.0,2.0,140,121,115,133,125
2025-02-26 15:13:03.632,-329.0,61.0,950.0,-3.0,1.0,2.0,141,122,117,133,127
2025-02-26 15:13:03.638,-323.0,66.0,961.0,-3.0,1.0,2.0,143,119,114,131,125
2025-02-26 15:13:03.642,-325.0,64.0,977.0,-3.0,2.0,2.0,142,120,114,134,126
2025-02-26 15:13:03.647,-321.0,61.0,969.0,-3.0,2.0,2.0,141,120,114,131,127
2025-02-26 15:13:03.651,-320.0,68.0,972.0,-3.0,2.0,1.0,141,119,113,134,127
2025-02-26 15:13:03.658,-336.0,53.0,965.0,-3.0,2.0,1.0,140,120,113,134,126
2025-02-26 15:13:03.662,-332.0,66.0,975.0,-3.0,2.0,1.0,140,121,113,132,125
2025-02-26 15:13:03.667,-333.0,59.0,961.0,-2.0,2.0,1.0,139,121,114,131,125
2025-02-26 15:13:03.671,-340.0,58.0,960.0,-2.0,2.0,1.0,143,123,115,134,127
2025-02-26 15:13:03.675,-335.0,71.0,957.0,-1.0,2.0,1.0,142,121,113,133,126
2025-02-26 15:13:03.683,-335.0,71.0,958.0,-1.0,2.0,0.0,139,120,114,131,123
2025-02-26 15:13:03.687,-336.0,65.0,945.0,-1.0,2.0,0.0,142,121,115,134,126
2025-02-26 15:13:03.692,-331.0,66.0,956.0,-1.0,2.0,-1.0,143,122,114,134,128
2025-02-26 15:13:03.696,-333.0,67.0,948.0,0.0,2.0,-1.0,141,120,113,132,125
2025-02-26 15:13:03.700,-332.0,70.0,949.0,1.0,2.0,-1.0,141,120,115,132,125
2025-02-26 15:13:03.705,-330.0,69.0,943.0,0.0,2.0,-1.0,142,121,115,133,127
2025-02-26 15:13:03.712,-330.0,65.0,936.0,0.0,2.0,-1.0,144,122,114,134,127
2025-02-26 15:13:03.716,-326.0,66.0,940.0,0.0,2.0,-2.0,142,122,114,133,126
2025-02-26 15:13:03.721,-325.0,70.0,931.0,-1.0,1.0,-2.0,141,118,114,130,124
2025-02-26 15:13:03.723,-323.0,63.0,925.0,-1.0,1.0,-2.0,139,119,112,131,125
2025-02-26 15:13:03.733,-323.0,58.0,921.0,-2.0,1.0,-2.0,143,122,115,132,125
2025-02-26 15:13:03.735,-317.0,57.0,914.0,-2.0,1.0,-2.0,140,121,113,131,125
2025-02-26 15:13:03.741,-331.0,61.0,906.0,-3.0,0.0,-2.0,139,119,112,130,124
2025-02-26 15:13:03.745,-326.0,52.0,912.0,-4.0,0.0,-2.0,142,121,112,132,125
2025-02-26 15:13:03.749,-316.0,62.0,898.0,-4.0,0.0,-2.0,141,120,112,132,125
2025-02-26 15:13:03.757,-320.0,51.0,900.0,-4.0,-1.0,-2.0,140,121,111,131,124
2025-02-26 15:13:03.760,-312.0,47.0,901.0,-4.0,0.0,-2.0,143,122,114,132,125
2025-02-26 15:13:03.765,-318.0,43.0,892.0,-4.0,0.0,-1.0,142,119,112,132,124
2025-02-26 15:13:03.770,-317.0,42.0,881.0,-3.0,0.0,-1.0,139,120,112,131,124
2025-02-26 15:13:03.777,-316.0,38.0,880.0,-3.0,-1.0,-1.0,142,121,113,133,126
2025-02-26 15:13:03.782,-325.0,30.0,872.0,-2.0,-1.0,-1.0,141,121,114,133,126
2025-02-26 15:13:03.786,-322.0,36.0,870.0,-1.0,-2.0,0.0,142,120,114,131,124
2025-02-26 15:13:03.789,-329.0,34.0,883.0,1.0,-3.0,0.0,140,121,113,132,125
2025-02-26 15:13:03.794,-328.0,40.0,875.0,1.0,-5.0,-1.0,140,119,114,132,126
2025-02-26 15:13:03.802,-326.0,47.0,876.0,1.0,-5.0,-1.0,140,120,112,132,124
2025-02-26 15:13:03.806,-340.0,52.0,876.0,1.0,-6.0,-1.0,142,122,113,133,125
2025-02-26 15:13:03.807,-338.0,49.0,880.0,1.0,-7.0,-1.0,143,122,113,131,125
2025-02-26 15:13:03.814,-336.0,51.0,877.0,1.0,-8.0,-1.0,141,119,113,131,125
2025-02-26 15:13:03.820,-328.0,54.0,879.0,1.0,-10.0,-1.0,140,121,114,132,127
2025-02-26 15:13:03.826,-331.0,50.0,899.0,2.0,-10.0,-1.0,140,120,106,131,127
2025-02-26 15:13:03.831,-334.0,48.0,903.0,2.0,-11.0,-2.0,140,119,112,131,122
2025-02-26 15:13:03.835,-334.0,49.0,906.0,1.0,-12.0,-2.0,139,120,111,131,124
2025-02-26 15:13:03.840,-342.0,58.0,914.0,2.0,-13.0,-2.0,140,121,114,133,125
2025-02-26 15:13:03.845,-338.0,47.0,929.0,2.0,-14.0,-2.0,140,121,111,132,125
2025-02-26 15:13:03.851,-337.0,49.0,945.0,2.0,-14.0,-2.0,140,120,113,131,124
2025-02-26 15:13:03.856,-343.0,51.0,947.0,3.0,-15.0,-2.0,144,122,115,133,126
2025-02-26 15:13:03.860,-355.0,31.0,953.0,4.0,-17.0,-3.0,142,121,115,133,126
2025-02-26 15:13:03.868,-359.0,52.0,958.0,8.0,-18.0,-2.0,140,120,109,131,124
2025-02-26 15:13:03.872,-355.0,55.0,1011.0,6.0,-19.0,-2.0,140,119,110,130,123
2025-02-26 15:13:03.876,-351.0,51.0,1005.0,7.0,-19.0,-2.0,141,121,114,133,126
2025-02-26 15:13:03.880,-356.0,55.0,1023.0,7.0,-20.0,-2.0,141,121,113,130,124
2025-02-26 15:13:03.888,-339.0,51.0,1038.0,8.0,-20.0,-3.0,142,120,112,130,124
2025-02-26 15:13:03.893,-343.0,52.0,1065.0,10.0,-20.0,-3.0,144,122,113,133,127
2025-02-26 15:13:03.896,-356.0,59.0,1043.0,12.0,-22.0,-3.0,142,121,114,132,125
2025-02-26 15:13:03.899,-334.0,60.0,1114.0,13.0,-19.0,-2.0,141,120,112,132,126
2025-02-26 15:13:03.909,-318.0,71.0,1118.0,10.0,-18.0,-2.0,139,120,111,129,124
2025-02-26 15:13:03.911,-319.0,77.0,1128.0,9.0,-16.0,-2.0,141,120,113,131,126
2025-02-26 15:13:03.916,-318.0,83.0,1144.0,7.0,-13.0,-2.0,142,121,115,133,126
2025-02-26 15:13:03.923,-318.0,83.0,1148.0,6.0,-11.0,-2.0,141,122,113,131,125
2025-02-26 15:13:03.929,-309.0,83.0,1162.0,5.0,-10.0,-2.0,140,120,113,130,124
2025-02-26 15:13:03.933,-306.0,87.0,1173.0,3.0,-8.0,-2.0,142,121,113,131,125
2025-02-26 15:13:03.938,-298.0,84.0,1181.0,2.0,-5.0,-2.0,142,122,112,133,126
2025-02-26 15:13:03.942,-296.0,83.0,1189.0,1.0,-2.0,-2.0,140,121,114,132,125
2025-02-26 15:13:03.947,-293.0,88.0,1176.0,0.0,0.0,-2.0,138,119,113,131,125
2025-02-26 15:13:03.954,-293.0,83.0,1178.0,-3.0,2.0,-2.0,142,121,114,133,127
2025-02-26 15:13:03.958,-291.0,80.0,1170.0,-4.0,4.0,-3.0,142,120,114,132,126
2025-02-26 15:13:03.962,-287.0,75.0,1159.0,-6.0,5.0,-4.0,139,119,112,131,124
2025-02-26 15:13:03.969,-286.0,75.0,1142.0,-8.0,6.0,-3.0,141,119,114,131,126
2025-02-26 15:13:03.971,-281.0,62.0,1141.0,-9.0,7.0,-3.0,141,122,116,133,126
2025-02-26 15:13:03.978,-275.0,53.0,1125.0,-10.0,8.0,-3.0,141,119,112,133,126
2025-02-26 15:13:03.983,-273.0,47.0,1109.0,-12.0,9.0,-3.0,142,121,112,131,124
2025-02-26 15:13:03.991,-270.0,41.0,1102.0,-13.0,10.0,-3.0,141,120,113,132,125
2025-02-26 15:13:03.994,-266.0,33.0,1094.0,-14.0,12.0,-2.0,141,122,115,133,126
2025-02-26 15:13:03.994,-273.0,19.0,1079.0,-14.0,13.0,-2.0,141,120,112,132,126
2025-02-26 15:13:04.004,-281.0,20.0,1072.0,-14.0,14.0,-1.0,139,118,113,132,124
2025-02-26 15:13:04.011,-264.0,23.0,1051.0,-15.0,15.0,-1.0,141,119,112,132,125
2025-02-26 15:13:04.013,-274.0,16.0,1038.0,-15.0,16.0,0.0,138,123,115,133,126
2025-02-26 15:13:04.019,-287.0,5.0,1022.0,-15.0,17.0,1.0,140,122,114,131,126
2025-02-26 15:13:04.024,-285.0,4.0,1005.0,-16.0,17.0,1.0,140,119,106,131,124
2025-02-26 15:13:04.031,-274.0,4.0,992.0,-18.0,18.0,2.0,140,121,113,135,125
2025-02-26 15:13:04.036,-274.0,6.0,993.0,-17.0,18.0,2.0,138,124,115,133,128
2025-02-26 15:13:04.037,-280.0,-2.0,987.0,-18.0,19.0,3.0,140,119,112,130,125
2025-02-26 15:13:04.044,-288.0,13.0,950.0,-17.0,18.0,3.0,140,121,114,131,125
2025-02-26 15:13:04.052,-292.0,-1.0,965.0,-17.0,20.0,4.0,141,121,113,132,125
2025-02-26 15:13:04.056,-273.0,7.0,927.0,-18.0,20.0,4.0,140,122,112,132,123
2025-02-26 15:13:04.060,-296.0,19.0,935.0,-19.0,22.0,5.0,137,118,111,131,125
2025-02-26 15:13:04.064,-280.0,3.0,935.0,-20.0,24.0,5.0,141,121,113,133,125
2025-02-26 15:13:04.069,-287.0,7.0,914.0,-21.0,26.0,6.0,141,120,113,132,126
2025-02-26 15:13:04.077,-285.0,15.0,915.0,-23.0,27.0,6.0,141,120,113,131,125
2025-02-26 15:13:04.080,-283.0,29.0,899.0,-26.0,29.0,7.0,142,122,113,132,126
2025-02-26 15:13:04.084,-286.0,46.0,886.0,-29.0,30.0,7.0,140,126,112,132,126
2025-02-26 15:13:04.090,-292.0,81.0,839.0,-33.0,30.0,7.0,138,119,110,131,124
2025-02-26 15:13:04.096,-309.0,92.0,858.0,-36.0,29.0,7.0,141,117,114,132,129
2025-02-26 15:13:04.101,-312.0,115.0,826.0,-44.0,29.0,5.0,142,121,113,132,126
2025-02-26 15:13:04.106,-314.0,158.0,802.0,-48.0,30.0,3.0,139,121,112,130,124
2025-02-26 15:13:04.110,-314.0,196.0,766.0,-57.0,30.0,0.0,141,120,112,129,124
2025-02-26 15:13:04.118,-339.0,228.0,725.0,-64.0,30.0,-2.0,141,121,113,134,125
2025-02-26 15:13:04.122,-334.0,255.0,723.0,-80.0,33.0,-5.0,141,121,112,132,125
2025-02-26 15:13:04.126,-331.0,311.0,645.0,-84.0,32.0,-11.0,141,118,112,133,124
2025-02-26 15:13:04.134,-340.0,353.0,630.0,-95.0,31.0,-15.0,141,119,111,132,125
2025-02-26 15:13:04.138,-337.0,388.0,589.0,-124.0,34.0,-16.0,140,119,109,131,124
2025-02-26 15:13:04.142,-265.0,495.0,742.0,-142.0,50.0,-23.0,141,118,110,131,125
2025-02-26 15:13:04.147,-413.0,605.0,297.0,-118.0,32.0,-38.0,143,117,110,131,123
2025-02-26 15:13:04.155,-572.0,521.0,133.0,-116.0,10.0,-50.0,143,118,111,131,124
2025-02-26 15:13:04.159,-594.0,586.0,234.0,-137.0,3.0,-62.0,139,113,109,131,122
2025-02-26 15:13:04.163,-624.0,555.0,92.0,-117.0,-25.0,-70.0,139,111,105,128,121
2025-02-26 15:13:04.171,-659.0,526.0,-52.0,-103.0,-65.0,-84.0,140,110,102,129,120
2025-02-26 15:13:04.175,-744.0,453.0,13.0,-92.0,-110.0,-96.0,140,99,99,130,120
2025-02-26 15:13:04.176,-774.0,437.0,162.0,-82.0,-137.0,-111.0,140,104,94,129,117
2025-02-26 15:13:04.187,-796.0,268.0,533.0,-73.0,-135.0,-123.0,138,100,89,127,115
2025-02-26 15:13:04.188,-785.0,135.0,527.0,-96.0,-136.0,-132.0,139,95,86,127,109
2025-02-26 15:13:04.196,-767.0,58.0,473.0,-127.0,-141.0,-138.0,140,90,83,125,105
2025-02-26 15:13:04.203,-756.0,7.0,462.0,-147.0,-180.0,-148.0,142,86,79,122,103
2025-02-26 15:13:04.208,-753.0,-44.0,503.0,-169.0,-216.0,-157.0,139,81,75,120,98
2025-02-26 15:13:04.212,-556.0,-204.0,708.0,-179.0,-257.0,-163.0,140,79,75,116,96
2025-02-26 15:13:04.218,-329.0,-393.0,793.0,-199.0,-294.0,-159.0,140,73,72,113,94
2025-02-26 15:13:04.218,-178.0,-698.0,1261.0,-241.0,-308.0,-142.0,139,70,70,111,93
2025-02-26 15:13:04.228,18.0,-901.0,1601.0,-274.0,-322.0,-116.0,140,68,69,108,92
2025-02-26 15:13:04.236,333.0,-1028.0,1988.0,-295.0,-313.0,-96.0,145,69,71,106,93
2025-02-26 15:13:04.238,698.0,-1348.0,2169.0,-309.0,-275.0,-48.0,142,69,70,107,94
2025-02-26 15:13:04.245,1115.0,-1592.0,2529.0,-318.0,-214.0,22.0,142,68,70,101,93
2025-02-26 15:13:04.250,1538.0,-1918.0,2813.0,-318.0,-128.0,75.0,142,65,69,105,91
2025-02-26 15:13:04.257,1832.0,-2031.0,3166.0,-336.0,-26.0,111.0,141,63,68,103,88
2025-02-26 15:13:04.261,1909.0,-2193.0,3288.0,-349.0,25.0,127.0,141,60,63,99,83
2025-02-26 15:13:04.269,1768.0,-2194.0,3314.0,-339.0,125.0,131.0,142,58,61,96,80
2025-02-26 15:13:04.274,1516.0,-2062.0,3270.0,-326.0,216.0,140.0,145,60,63,96,78
2025-02-26 15:13:04.275,1334.0,-1938.0,3106.0,-309.0,285.0,147.0,144,57,61,92,74
2025-02-26 15:13:04.286,1160.0,-1751.0,2707.0,-303.0,333.0,159.0,143,57,58,89,69
2025-02-26 15:13:04.290,983.0,-1587.0,2500.0,-282.0,353.0,177.0,143,55,56,86,69
2025-02-26 15:13:04.294,914.0,-1428.0,2260.0,-261.0,381.0,188.0,142,55,58,87,67
2025-02-26 15:13:04.298,774.0,-1430.0,1945.0,-245.0,391.0,183.0,142,57,59,87,67
2025-02-26 15:13:04.306,590.0,-1260.0,1836.0,-253.0,381.0,175.0,142,55,58,86,67
2025-02-26 15:13:04.310,326.0,-1047.0,1291.0,-261.0,351.0,168.0,142,57,58,83,66
2025-02-26 15:13:04.315,223.0,-824.0,876.0,-294.0,331.0,170.0,141,56,57,79,65
2025-02-26 15:13:04.322,-2.0,-802.0,621.0,-309.0,292.0,174.0,140,55,56,72,64
2025-02-26 15:13:04.327,-22.0,-809.0,554.0,-318.0,266.0,184.0,140,57,54,80,65
2025-02-26 15:13:04.330,37.0,-750.0,413.0,-317.0,245.0,193.0,140,55,55,79,63
2025-02-26 15:13:04.335,84.0,-827.0,445.0,-331.0,240.0,201.0,138,56,59,81,63
2025-02-26 15:13:04.343,-29.0,-957.0,582.0,-348.0,231.0,206.0,140,57,56,82,63
2025-02-26 15:13:04.346,-94.0,-968.0,550.0,-334.0,222.0,220.0,139,55,55,82,63
2025-02-26 15:13:04.351,-20.0,-1008.0,574.0,-321.0,224.0,233.0,136,56,55,80,62
2025-02-26 15:13:04.356,-37.0,-919.0,472.0,-291.0,226.0,249.0,136,55,53,80,62
2025-02-26 15:13:04.363,-2.0,-888.0,517.0,-264.0,228.0,254.0,135,55,56,82,62
2025-02-26 15:13:04.365,14.0,-889.0,488.0,-244.0,230.0,266.0,136,56,54,82,63
2025-02-26 15:13:04.372,-43.0,-815.0,313.0,-229.0,228.0,276.0,135,58,55,81,62
2025-02-26 15:13:04.376,-80.0,-662.0,247.0,-200.0,227.0,283.0,133,56,53,79,60
2025-02-26 15:13:04.383,-70.0,-539.0,221.0,-175.0,227.0,296.0,133,56,54,80,61
2025-02-26 15:13:04.388,-74.0,-354.0,176.0,-166.0,227.0,305.0,130,55,54,80,60
2025-02-26 15:13:04.392,-115.0,-175.0,118.0,-149.0,227.0,311.0,131,57,55,80,61
2025-02-26 15:13:04.397,-150.0,-90.0,70.0,-136.0,227.0,313.0,127,55,54,78,59
2025-02-26 15:13:04.404,-190.0,165.0,71.0,-125.0,219.0,312.0,128,56,55,80,59
2025-02-26 15:13:04.409,-222.0,426.0,45.0,-118.0,210.0,309.0,126,57,53,79,60
2025-02-26 15:13:04.413,-246.0,712.0,44.0,-122.0,208.0,302.0,126,56,55,80,60
2025-02-26 15:13:04.417,-294.0,834.0,15.0,-131.0,199.0,296.0,128,58,54,81,61
2025-02-26 15:13:04.424,-386.0,1070.0,-1.0,-141.0,189.0,276.0,126,58,56,81,62
2025-02-26 15:13:04.426,-486.0,1208.0,-66.0,-146.0,182.0,250.0,125,56,53,81,60
2025-02-26 15:13:04.433,-485.0,1320.0,-135.0,-154.0,172.0,219.0,124,58,56,81,60
2025-02-26 15:13:04.438,-534.0,1342.0,-192.0,-153.0,160.0,203.0,126,58,55,81,62
2025-02-26 15:13:04.445,-537.0,1354.0,-203.0,-142.0,148.0,169.0,124,58,56,82,61
2025-02-26 15:13:04.450,-580.0,1398.0,-270.0,-133.0,136.0,136.0,126,58,53,82,61
2025-02-26 15:13:04.454,-607.0,1419.0,-279.0,-113.0,131.0,108.0,124,53,54,82,61
2025-02-26 15:13:04.462,-616.0,1367.0,-292.0,-85.0,119.0,95.0,124,57,54,83,60
2025-02-26 15:13:04.466,-530.0,1383.0,-284.0,-58.0,114.0,74.0,124,59,55,83,61
2025-02-26 15:13:04.470,-452.0,1426.0,-292.0,-44.0,113.0,60.0,124,58,55,83,61
2025-02-26 15:13:04.474,-448.0,1477.0,-327.0,-21.0,113.0,51.0,119,57,55,81,60
2025-02-26 15:13:04.482,-551.0,1485.0,-431.0,10.0,105.0,47.0,124,57,55,82,60
2025-02-26 15:13:04.487,-599.0,1579.0,-507.0,42.0,92.0,37.0,123,66,58,87,62
2025-02-26 15:13:04.491,-622.0,1658.0,-639.0,59.0,82.0,27.0,124,59,58,85,63
2025-02-26 15:13:04.494,-646.0,1788.0,-742.0,94.0,76.0,13.0,119,63,57,81,63
2025-02-26 15:13:04.499,-727.0,1812.0,-812.0,136.0,61.0,4.0,127,62,64,89,71
2025-02-26 15:13:04.505,-742.0,1941.0,-923.0,156.0,44.0,-17.0,126,63,58,86,67
2025-02-26 15:13:04.511,-770.0,2173.0,-1033.0,190.0,36.0,-48.0,126,61,57,85,63
2025-02-26 15:13:04.515,-821.0,2301.0,-1153.0,214.0,19.0,-68.0,121,61,59,85,63
2025-02-26 15:13:04.523,-882.0,2577.0,-1214.0,238.0,-10.0,-117.0,127,63,60,87,65
2025-02-26 15:13:04.527,-901.0,2827.0,-1279.0,241.0,-39.0,-179.0,125,62,60,89,66
2025-02-26 15:13:04.529,-1005.0,3009.0,-1394.0,243.0,-79.0,-256.0,126,65,61,88,66
2025-02-26 15:13:04.539,-1036.0,3133.0,-1497.0,234.0,-103.0,-343.0,125,59,58,84,62
2025-02-26 15:13:04.544,-1075.0,3174.0,-1599.0,216.0,-159.0,-432.0,123,61,57,90,64
2025-02-26 15:13:04.548,-964.0,3236.0,-1690.0,185.0,-220.0,-477.0,122,60,57,86,63
2025-02-26 15:13:04.556,-886.0,3211.0,-1713.0,145.0,-287.0,-569.0,125,58,59,87,65
2025-02-26 15:13:04.560,-792.0,3156.0,-1718.0,101.0,-370.0,-667.0,126,62,60,88,66
2025-02-26 15:13:04.565,-458.0,3169.0,-1689.0,46.0,-456.0,-774.0,126,62,59,87,64
2025-02-26 15:13:04.570,-6.0,3196.0,-1665.0,15.0,-548.0,-877.0,125,60,59,87,65
2025-02-26 15:13:04.577,221.0,3200.0,-1685.0,-52.0,-600.0,-981.0,126,62,55,85,65
2025-02-26 15:13:04.580,996.0,3231.0,-1700.0,-129.0,-705.0,-1025.0,126,60,57,85,65
2025-02-26 15:13:04.589,2178.0,2931.0,-1655.0,-190.0,-805.0,-1096.0,127,62,60,88,67
2025-02-26 15:13:04.593,3708.0,2052.0,-1577.0,-251.0,-881.0,-1135.0,132,64,61,90,69
2025-02-26 15:13:04.597,5308.0,766.0,-1324.0,-281.0,-926.0,-1117.0,129,62,60,90,69
2025-02-26 15:13:04.605,6657.0,-489.0,-441.0,-298.0,-891.0,-1045.0,131,63,60,88,69
2025-02-26 15:13:04.608,7550.0,-1984.0,573.0,-316.0,-778.0,-934.0,131,62,59,87,71
2025-02-26 15:13:04.614,7588.0,-3825.0,1435.0,-316.0,-580.0,-767.0,132,63,58,89,71
2025-02-26 15:13:04.620,7557.0,-6650.0,2668.0,-266.0,-448.0,-534.0,132,63,57,89,72
2025-02-26 15:13:04.626,7565.0,-8088.0,2689.0,-225.0,-139.0,-286.0,133,61,60,86,70
2025-02-26 15:13:04.630,7674.0,-8441.0,1948.0,-175.0,131.0,-177.0,133,61,58,87,69
2025-02-26 15:13:04.638,6468.0,-8057.0,967.0,-112.0,325.0,-27.0,135,62,60,90,73
2025-02-26 15:13:04.642,4867.0,-6779.0,468.0,-34.0,401.0,61.0,136,64,60,90,73
2025-02-26 15:13:04.646,3486.0,-5296.0,-198.0,-7.0,402.0,113.0,135,63,58,89,70
2025-02-26 15:13:04.654,2783.0,-4408.0,-888.0,73.0,361.0,126.0,137,62,59,88,67
2025-02-26 15:13:04.656,1846.0,-4089.0,-1214.0,172.0,231.0,142.0,139,63,61,89,68
2025-02-26 15:13:04.661,1551.0,-2827.0,-889.0,117.0,156.0,176.0,136,62,59,88,66
2025-02-26 15:13:04.667,894.0,-2131.0,-1316.0,95.0,71.0,206.0,135,60,58,88,65
2025-02-26 15:13:04.674,828.0,-1529.0,-1325.0,-7.0,42.0,223.0,135,61,58,87,65
2025-02-26 15:13:04.678,484.0,-1430.0,-1155.0,-91.0,-20.0,226.0,135,59,58,86,64
2025-02-26 15:13:04.680,594.0,-1448.0,-1025.0,-165.0,-28.0,222.0,137,60,58,88,68
2025-02-26 15:13:04.691,702.0,-1688.0,-855.0,-173.0,-51.0,213.0,136,59,58,87,69
2025-02-26 15:13:04.695,736.0,-2020.0,-503.0,-167.0,-38.0,211.0,136,61,52,89,71
2025-02-26 15:13:04.699,851.0,-2327.0,-256.0,-132.0,-30.0,220.0,134,60,57,86,69
2025-02-26 15:13:04.704,920.0,-2504.0,68.0,-64.0,-13.0,229.0,135,60,54,87,69
2025-02-26 15:13:04.709,848.0,-2656.0,216.0,11.0,22.0,259.0,135,62,58,88,72
2025-02-26 15:13:04.716,815.0,-2449.0,443.0,42.0,58.0,292.0,134,62,59,88,70
2025-02-26 15:13:04.720,841.0,-2280.0,558.0,99.0,75.0,325.0,135,62,57,87,69
2025-02-26 15:13:04.724,756.0,-1972.0,564.0,138.0,104.0,339.0,134,62,57,88,69
2025-02-26 15:13:04.729,706.0,-1762.0,490.0,151.0,128.0,357.0,134,64,58,89,70
2025-02-26 15:13:04.736,663.0,-1396.0,395.0,163.0,136.0,368.0,132,68,57,87,71
2025-02-26 15:13:04.741,424.0,-1173.0,323.0,152.0,154.0,372.0,132,61,57,86,69
2025-02-26 15:13:04.745,274.0,-875.0,244.0,123.0,157.0,375.0,131,69,59,89,69
2025-02-26 15:13:04.752,125.0,-521.0,111.0,108.0,152.0,376.0,131,62,56,88,72
2025-02-26 15:13:04.757,-9.0,-307.0,52.0,68.0,144.0,372.0,130,61,55,90,72
2025-02-26 15:13:04.760,-42.0,-176.0,-14.0,12.0,135.0,373.0,130,63,59,90,71
2025-02-26 15:13:04.765,-165.0,-19.0,48.0,-14.0,118.0,367.0,129,64,57,89,74
2025-02-26 15:13:04.769,-169.0,140.0,103.0,-65.0,113.0,356.0,130,62,57,89,70
2025-02-26 15:13:04.776,-210.0,80.0,-77.0,-88.0,85.0,349.0,130,63,59,89,74
2025-02-26 15:13:04.781,-301.0,23.0,11.0,-90.0,54.0,322.0,131,63,59,88,73
2025-02-26 15:13:04.785,-324.0,112.0,39.0,-88.0,39.0,308.0,131,59,56,90,67
2025-02-26 15:13:04.790,-274.0,-9.0,28.0,-98.0,24.0,302.0,133,62,58,90,72
2025-02-26 15:13:04.794,-257.0,-30.0,132.0,-102.0,17.0,292.0,131,59,59,89,73
2025-02-26 15:13:04.801,-218.0,-66.0,256.0,-118.0,25.0,284.0,130,61,57,90,75
2025-02-26 15:13:04.806,-114.0,-67.0,309.0,-148.0,48.0,281.0,131,62,59,90,73
2025-02-26 15:13:04.810,-44.0,-79.0,285.0,-173.0,70.0,280.0,132,62,60,90,72
2025-02-26 15:13:04.814,-124.0,-105.0,227.0,-175.0,79.0,274.0,131,60,58,86,72
2025-02-26 15:13:04.822,-184.0,-183.0,168.0,-150.0,77.0,268.0,131,63,57,88,71
2025-02-26 15:13:04.826,-421.0,-213.0,71.0,-97.0,55.0,254.0,132,61,58,96,72
2025-02-26 15:13:04.830,-285.0,-230.0,94.0,-67.0,44.0,241.0,131,61,58,91,73
2025-02-26 15:13:04.834,-308.0,-287.0,203.0,-32.0,44.0,240.0,126,60,57,90,73
2025-02-26 15:13:04.839,-231.0,-280.0,214.0,-18.0,55.0,243.0,131,63,59,92,73
2025-02-26 15:13:04.846,-164.0,-372.0,192.0,-9.0,75.0,245.0,131,60,57,90,73
2025-02-26 15:13:04.849,-199.0,-244.0,223.0,-3.0,82.0,251.0,130,63,58,90,72
2025-02-26 15:13:04.855,-214.0,-167.0,186.0,17.0,89.0,252.0,131,61,55,92,74
2025-02-26 15:13:04.859,-319.0,-170.0,147.0,37.0,84.0,253.0,132,61,59,93,74
2025-02-26 15:13:04.867,-429.0,-104.0,132.0,73.0,81.0,253.0,131,61,50,90,71
2025-02-26 15:13:04.871,-419.0,-64.0,156.0,109.0,76.0,254.0,130,62,60,93,73
2025-02-26 15:13:04.875,-433.0,20.0,134.0,136.0,76.0,259.0,133,62,60,94,75
2025-02-26 15:13:04.880,-353.0,101.0,125.0,151.0,80.0,264.0,129,61,59,90,74
2025-02-26 15:13:04.884,-357.0,99.0,144.0,171.0,86.0,267.0,132,62,54,93,74
2025-02-26 15:13:04.891,-337.0,282.0,133.0,191.0,89.0,276.0,132,63,61,94,75
2025-02-26 15:13:04.896,-316.0,381.0,119.0,202.0,93.0,287.0,131,64,60,94,80
2025-02-26 15:13:04.900,-355.0,499.0,71.0,226.0,96.0,293.0,131,61,58,93,73
2025-02-26 15:13:04.904,-366.0,680.0,9.0,255.0,96.0,300.0,131,62,61,99,76
2025-02-26 15:13:04.909,-496.0,927.0,-125.0,269.0,95.0,299.0,130,61,59,93,74
2025-02-26 15:13:04.916,-575.0,1106.0,-326.0,302.0,91.0,294.0,131,56,62,93,74
2025-02-26 15:13:04.921,-679.0,1470.0,-425.0,333.0,80.0,271.0,133,60,60,94,76
2025-02-26 15:13:04.925,-822.0,2000.0,-680.0,346.0,71.0,219.0,133,62,60,93,75
2025-02-26 15:13:04.929,-908.0,2628.0,-906.0,371.0,68.0,133.0,131,61,59,92,74
2025-02-26 15:13:04.935,-1065.0,2920.0,-1098.0,384.0,59.0,77.0,132,64,67,96,77
2025-02-26 15:13:04.941,-1160.0,3449.0,-1172.0,369.0,56.0,-47.0,131,64,62,95,76
2025-02-26 15:13:04.945,-1198.0,3865.0,-1243.0,355.0,34.0,-168.0,132,62,56,95,75
2025-02-26 15:13:04.953,-1212.0,4035.0,-1230.0,306.0,24.0,-278.0,129,62,60,93,75
2025-02-26 15:13:04.957,-1022.0,4020.0,-1219.0,227.0,-6.0,-328.0,132,61,59,93,75
2025-02-26 15:13:04.961,-1081.0,3916.0,-1289.0,141.0,-54.0,-421.0,132,63,60,94,75
2025-02-26 15:13:04.970,-1137.0,3672.0,-1339.0,49.0,-116.0,-512.0,129,62,59,94,74
2025-02-26 15:13:04.974,-1117.0,3453.0,-1435.0,-29.0,-194.0,-608.0,133,64,62,96,75
2025-02-26 15:13:04.978,-1019.0,3256.0,-1477.0,-65.0,-280.0,-714.0,131,63,60,93,74
2025-02-26 15:13:04.986,-867.0,3041.0,-1532.0,-128.0,-372.0,-833.0,131,63,61,93,73
2025-02-26 15:13:04.990,-478.0,2886.0,-1483.0,-183.0,-421.0,-961.0,130,62,58,93,71
2025-02-26 15:13:04.995,-11.0,2838.0,-1582.0,-246.0,-534.0,-1090.0,131,62,59,92,72
2025-02-26 15:13:05.000,763.0,2840.0,-1708.0,-321.0,-656.0,-1148.0,130,63,60,94,73
2025-02-26 15:13:05.007,2090.0,2685.0,-1895.0,-405.0,-789.0,-1246.0,132,63,62,95,75
2025-02-26 15:13:05.015,3983.0,2312.0,-1916.0,-490.0,-916.0,-1285.0,135,63,61,93,78
2025-02-26 15:13:05.019,6575.0,1117.0,-1738.0,-586.0,-976.0,-1251.0,135,63,59,92,78
2025-02-26 15:13:05.023,8584.0,-738.0,-901.0,-607.0,-879.0,-1137.0,135,64,60,94,80
2025-02-26 15:13:05.031,9075.0,-3552.0,586.0,-595.0,-655.0,-944.0,136,63,60,93,81
2025-02-26 15:13:05.035,8632.0,-6788.0,1272.0,-551.0,-331.0,-675.0,137,66,61,95,80
2025-02-26 15:13:05.039,8011.0,-10060.0,1096.0,-442.0,-153.0,-334.0,137,62,59,93,79
2025-02-26 15:13:05.048,7778.0,-11292.0,349.0,-261.0,119.0,-23.0,131,60,58,93,78
2025-02-26 15:13:05.050,7289.0,-10704.0,-378.0,-106.0,309.0,93.0,134,61,58,92,78
2025-02-26 15:13:05.056,5777.0,-8676.0,-1102.0,27.0,417.0,236.0,137,61,60,91,77
2025-02-26 15:13:05.064,3769.0,-6070.0,-1421.0,86.0,497.0,281.0,144,67,65,96,81
2025-02-26 15:13:05.068,2348.0,-4313.0,-1937.0,112.0,410.0,282.0,150,71,68,95,80
2025-02-26 15:13:05.072,1754.0,-2839.0,-2246.0,308.0,277.0,273.0,147,67,66,96,74
2025-02-26 15:13:05.080,757.0,-1463.0,-1739.0,222.0,105.0,300.0,143,64,64,91,68
2025-02-26 15:13:05.084,754.0,-1224.0,-1736.0,139.0,-9.0,294.0,144,62,63,93,73
2025-02-26 15:13:05.088,630.0,-424.0,-1806.0,-10.0,-88.0,270.0,143,64,62,93,74
2025-02-26 15:13:05.092,232.0,-997.0,-1517.0,-99.0,-84.0,278.0,142,63,63,97,78
2025-02-26 15:13:05.100,198.0,-1117.0,-1274.0,-171.0,-124.0,270.0,141,61,59,92,78
2025-02-26 15:13:05.105,167.0,-1573.0,-1009.0,-181.0,-188.0,277.0,141,61,59,94,79
2025-02-26 15:13:05.110,-22.0,-1877.0,-658.0,-160.0,-187.0,290.0,142,65,61,97,81
2025-02-26 15:13:05.116,345.0,-2253.0,-459.0,-74.0,-198.0,292.0,143,67,62,98,86
2025-02-26 15:13:05.121,-12.0,-2141.0,-444.0,-64.0,-153.0,320.0,142,63,61,96,83
2025-02-26 15:13:05.126,290.0,-2083.0,118.0,3.0,-88.0,330.0,142,61,59,96,83
2025-02-26 15:13:05.127,533.0,-1788.0,82.0,85.0,-115.0,335.0,141,63,59,94,81
2025-02-26 15:13:05.137,561.0,-1495.0,542.0,112.0,-58.0,317.0,143,68,62,99,79
2025-02-26 15:13:05.142,239.0,-1549.0,513.0,133.0,-44.0,348.0,142,66,62,98,83
2025-02-26 15:13:05.146,400.0,-1017.0,513.0,179.0,-42.0,361.0,143,63,61,96,81
2025-02-26 15:13:05.150,540.0,-939.0,504.0,175.0,-11.0,358.0,144,65,62,95,81
2025-02-26 15:13:05.158,515.0,-729.0,532.0,129.0,51.0,359.0,142,65,62,98,81
2025-02-26 15:13:05.159,259.0,-542.0,444.0,122.0,70.0,361.0,140,62,59,96,80
2025-02-26 15:13:05.167,110.0,-321.0,295.0,93.0,81.0,350.0,139,61,59,97,82
2025-02-26 15:13:05.171,-9.0,-92.0,267.0,38.0,99.0,333.0,140,63,61,98,83
2025-02-26 15:13:05.175,-144.0,-48.0,96.0,30.0,107.0,315.0,142,63,62,97,82
2025-02-26 15:13:05.182,-102.0,19.0,-21.0,-34.0,98.0,310.0,141,63,60,96,81
2025-02-26 15:13:05.187,-443.0,21.0,246.0,-67.0,84.0,296.0,143,66,63,100,83
2025-02-26 15:13:05.190,-271.0,-152.0,-20.0,-41.0,46.0,275.0,143,63,62,94,80
2025-02-26 15:13:05.195,-193.0,0.0,-6.0,-30.0,24.0,264.0,141,61,59,96,81
2025-02-26 15:13:05.200,-345.0,47.0,-16.0,-30.0,-5.0,255.0,143,64,60,98,81
2025-02-26 15:13:05.206,-290.0,-268.0,-27.0,-26.0,-26.0,256.0,142,62,61,97,83
2025-02-26 15:13:05.211,-359.0,-261.0,35.0,-49.0,-29.0,255.0,143,62,59,96,80
2025-02-26 15:13:05.216,-201.0,-215.0,33.0,-79.0,-23.0,261.0,145,63,61,99,82
2025-02-26 15:13:05.218,-20.0,-264.0,49.0,-92.0,-1.0,273.0,142,63,60,98,81
2025-02-26 15:13:05.224,55.0,-222.0,195.0,-128.0,8.0,282.0,143,61,60,94,80
2025-02-26 15:13:05.231,85.0,-421.0,136.0,-120.0,14.0,292.0,144,62,61,98,81
2025-02-26 15:13:05.236,-37.0,-426.0,200.0,-113.0,5.0,296.0,144,63,61,97,80
2025-02-26 15:13:05.236,-39.0,-448.0,154.0,-66.0,-2.0,294.0,142,62,59,95,79
2025-02-26 15:13:05.245,-139.0,-422.0,181.0,-19.0,-11.0,291.0,141,63,60,99,81
2025-02-26 15:13:05.252,-168.0,-416.0,275.0,2.0,-6.0,275.0,146,62,60,96,80
2025-02-26 15:13:05.256,-179.0,-355.0,323.0,44.0,3.0,255.0,145,64,61,100,81
2025-02-26 15:13:05.260,-89.0,-347.0,316.0,77.0,29.0,243.0,145,62,60,97,82
2025-02-26 15:13:05.264,-57.0,-306.0,301.0,95.0,61.0,227.0,147,62,61,94,80
2025-02-26 15:13:05.270,-56.0,-308.0,243.0,136.0,75.0,215.0,145,63,60,95,80
2025-02-26 15:13:05.276,-63.0,-255.0,210.0,172.0,96.0,214.0,150,66,63,96,81
2025-02-26 15:13:05.281,-132.0,-235.0,163.0,192.0,101.0,219.0,149,64,61,96,79
2025-02-26 15:13:05.285,-197.0,-122.0,110.0,223.0,100.0,229.0,147,59,61,96,77
2025-02-26 15:13:05.289,-271.0,-54.0,69.0,244.0,95.0,233.0,152,63,60,95,79
2025-02-26 15:13:05.291,-408.0,133.0,34.0,262.0,86.0,238.0,151,71,62,95,81
2025-02-26 15:13:05.301,-487.0,372.0,-43.0,272.0,83.0,231.0,149,63,60,93,76
2025-02-26 15:13:05.303,-499.0,526.0,-77.0,296.0,82.0,223.0,149,62,60,94,79
2025-02-26 15:13:05.309,-675.0,832.0,-103.0,329.0,77.0,203.0,152,66,63,95,78
2025-02-26 15:13:05.314,-726.0,1058.0,-195.0,347.0,71.0,174.0,151,63,60,94,80
2025-02-26 15:13:05.321,-732.0,1467.0,-310.0,383.0,69.0,156.0,152,62,59,93,77
2025-02-26 15:13:05.326,-852.0,1717.0,-363.0,412.0,67.0,110.0,153,59,61,93,82
2025-02-26 15:13:05.327,-920.0,2259.0,-395.0,417.0,69.0,46.0,151,63,61,92,74
2025-02-26 15:13:05.334,-935.0,2752.0,-495.0,426.0,68.0,-30.0,152,68,59,92,75
2025-02-26 15:13:05.342,-1001.0,2933.0,-664.0,415.0,69.0,-74.0,150,60,58,88,70
2025-02-26 15:13:05.347,-1100.0,3267.0,-798.0,374.0,57.0,-169.0,152,63,61,92,70
2025-02-26 15:13:05.350,-1356.0,3637.0,-1061.0,344.0,30.0,-264.0,154,62,59,91,69
2025-02-26 15:13:05.358,-1552.0,3792.0,-1258.0,262.0,-32.0,-353.0,153,62,60,90,70
2025-02-26 15:13:05.360,-1619.0,3665.0,-1453.0,170.0,-68.0,-443.0,152,60,58,89,67
2025-02-26 15:13:05.367,-1716.0,3311.0,-1627.0,83.0,-157.0,-487.0,152,60,57,89,66
2025-02-26 15:13:05.375,-1542.0,3086.0,-1730.0,17.0,-256.0,-573.0,156,62,60,92,68
2025-02-26 15:13:05.379,-1004.0,2614.0,-1608.0,-36.0,-338.0,-655.0,154,63,60,91,67
2025-02-26 15:13:05.384,-747.0,2362.0,-1623.0,-105.0,-446.0,-746.0,153,60,58,91,67
2025-02-26 15:13:05.390,-291.0,2205.0,-1706.0,-139.0,-560.0,-827.0,154,63,60,91,67
2025-02-26 15:13:05.396,333.0,2023.0,-1882.0,-238.0,-670.0,-901.0,158,62,63,93,67
2025-02-26 15:13:05.400,1432.0,1652.0,-2071.0,-340.0,-728.0,-945.0,155,61,59,92,68
2025-02-26 15:13:05.408,2211.0,812.0,-2098.0,-428.0,-846.0,-908.0,155,61,58,90,68
2025-02-26 15:13:05.412,3944.0,-587.0,-1776.0,-473.0,-909.0,-863.0,157,60,57,92,70
2025-02-26 15:13:05.413,5299.0,-1329.0,-673.0,-503.0,-872.0,-756.0,157,66,59,94,72
2025-02-26 15:13:05.424,6052.0,-2745.0,620.0,-562.0,-762.0,-649.0,160,64,60,93,71
2025-02-26 15:13:05.428,6055.0,-4113.0,1144.0,-584.0,-564.0,-542.0,159,63,58,93,73
2025-02-26 15:13:05.436,5790.0,-6332.0,1581.0,-546.0,-310.0,-393.0,160,62,59,95,73
2025-02-26 15:13:05.441,5646.0,-7507.0,1322.0,-392.0,-72.0,-242.0,160,63,58,93,73
2025-02-26 15:13:05.445,5100.0,-7330.0,939.0,-193.0,48.0,-140.0,158,61,62,92,71
2025-02-26 15:13:05.450,4755.0,-6768.0,211.0,5.0,241.0,-82.0,160,62,57,91,71
2025-02-26 15:13:05.456,3558.0,-6502.0,-559.0,182.0,321.0,-60.0,162,63,56,91,74
2025-02-26 15:13:05.461,2402.0,-5307.0,-865.0,285.0,348.0,-19.0,155,56,51,87,65
2025-02-26 15:13:05.466,1301.0,-4340.0,-1896.0,308.0,293.0,25.0,179,87,82,117,94
2025-02-26 15:13:05.473,958.0,-3256.0,-1623.0,351.0,217.0,84.0,181,85,79,114,91
2025-02-26 15:13:05.478,597.0,-2144.0,-1710.0,241.0,79.0,108.0,152,50,47,83,59
2025-02-26 15:13:05.482,496.0,-1636.0,-1775.0,221.0,8.0,114.0,152,52,48,84,60
2025-02-26 15:13:05.486,363.0,-1041.0,-1010.0,141.0,-97.0,122.0,152,54,47,83,62
2025-02-26 15:13:05.494,490.0,-1230.0,-755.0,54.0,-79.0,120.0,154,55,50,85,62
2025-02-26 15:13:05.498,472.0,-1571.0,-302.0,-67.0,-63.0,132.0,153,53,48,82,63
2025-02-26 15:13:05.503,450.0,-1766.0,265.0,-87.0,-95.0,141.0,151,53,51,85,64
2025-02-26 15:13:05.510,594.0,-2337.0,-203.0,-57.0,-63.0,160.0,153,53,49,84,64
2025-02-26 15:13:05.514,715.0,-2284.0,349.0,-29.0,-41.0,163.0,151,51,50,86,65
2025-02-26 15:13:05.519,833.0,-2236.0,581.0,21.0,-26.0,156.0,151,50,48,86,64
2025-02-26 15:13:05.523,794.0,-2138.0,672.0,70.0,31.0,159.0,151,53,50,84,63
2025-02-26 15:13:05.527,599.0,-2058.0,637.0,103.0,66.0,168.0,150,52,49,84,65
2025-02-26 15:13:05.535,673.0,-1567.0,627.0,138.0,69.0,170.0,151,52,51,86,65
2025-02-26 15:13:05.539,399.0,-1680.0,544.0,170.0,112.0,183.0,152,54,52,85,65
2025-02-26 15:13:05.543,322.0,-1643.0,425.0,201.0,98.0,200.0,152,52,50,85,62
2025-02-26 15:13:05.548,150.0,-1374.0,374.0,195.0,99.0,220.0,151,52,50,86,64
2025-02-26 15:13:05.555,104.0,-1426.0,327.0,185.0,104.0,234.0,150,52,51,86,64
2025-02-26 15:13:05.560,156.0,-1270.0,317.0,157.0,117.0,255.0,151,53,52,86,65
2025-02-26 15:13:05.564,226.0,-1044.0,323.0,151.0,131.0,276.0,152,54,51,85,64
2025-02-26 15:13:05.568,247.0,-873.0,388.0,109.0,139.0,294.0,150,53,49,86,64
2025-02-26 15:13:05.576,232.0,-676.0,388.0,49.0,155.0,301.0,151,52,50,85,63
2025-02-26 15:13:05.580,59.0,-784.0,212.0,34.0,148.0,304.0,152,52,51,86,64
2025-02-26 15:13:05.584,94.0,-543.0,155.0,22.0,134.0,302.0,152,52,49,84,63
2025-02-26 15:13:05.589,106.0,-376.0,286.0,17.0,135.0,295.0,151,55,50,85,63
2025-02-26 15:13:05.593,76.0,-105.0,318.0,21.0,122.0,271.0,152,53,50,86,66
2025-02-26 15:13:05.600,56.0,-79.0,313.0,26.0,108.0,245.0,151,52,50,86,64
2025-02-26 15:13:05.604,26.0,-163.0,349.0,35.0,110.0,232.0,151,52,49,85,64
2025-02-26 15:13:05.608,-11.0,-155.0,301.0,31.0,114.0,213.0,152,53,49,86,63
2025-02-26 15:13:05.613,-124.0,-276.0,303.0,24.0,119.0,207.0,152,54,49,85,64
2025-02-26 15:13:05.617,-184.0,-289.0,197.0,16.0,121.0,205.0,153,54,50,86,63
2025-02-26 15:13:05.625,-194.0,-284.0,232.0,3.0,129.0,203.0,151,54,50,83,64
2025-02-26 15:13:05.629,-222.0,-280.0,283.0,-7.0,137.0,197.0,152,53,49,84,63
2025-02-26 15:13:05.633,-233.0,-289.0,285.0,-15.0,140.0,191.0,150,54,49,84,63
2025-02-26 15:13:05.638,-153.0,-328.0,292.0,1.0,140.0,193.0,151,54,49,83,64
2025-02-26 15:13:05.645,-85.0,-440.0,321.0,4.0,139.0,205.0,150,53,48,83,62
2025-02-26 15:13:05.650,-43.0,-427.0,360.0,13.0,142.0,214.0,151,51,48,84,63
2025-02-26 15:13:05.651,-34.0,-442.0,400.0,25.0,150.0,219.0,150,53,50,84,62
2025-02-26 15:13:05.657,-48.0,-468.0,382.0,29.0,162.0,227.0,150,52,49,84,64
2025-02-26 15:13:05.662,-77.0,-555.0,271.0,47.0,165.0,235.0,150,52,48,83,62
2025-02-26 15:13:05.670,-140.0,-572.0,214.0,67.0,173.0,239.0,150,52,50,84,63
2025-02-26 15:13:05.674,-80.0,-596.0,247.0,65.0,187.0,252.0,150,51,51,86,64
2025-02-26 15:13:05.678,-98.0,-509.0,155.0,79.0,193.0,261.0,149,51,50,85,63
2025-02-26 15:13:05.683,-140.0,-395.0,132.0,104.0,198.0,263.0,149,51,51,84,63
2025-02-26 15:13:05.690,-196.0,-405.0,177.0,131.0,199.0,266.0,148,52,50,85,63
2025-02-26 15:13:05.695,-163.0,-357.0,150.0,147.0,199.0,270.0,151,55,50,85,64
2025-02-26 15:13:05.699,-147.0,-249.0,138.0,187.0,198.0,269.0,150,50,51,85,65
2025-02-26 15:13:05.703,-116.0,-217.0,150.0,218.0,203.0,267.0,148,51,49,86,63
2025-02-26 15:13:05.711,-89.0,-200.0,109.0,244.0,217.0,265.0,148,50,49,84,65
2025-02-26 15:13:05.715,-113.0,-149.0,27.0,256.0,228.0,268.0,148,51,50,85,63
2025-02-26 15:13:05.719,-163.0,-9.0,-87.0,272.0,232.0,273.0,149,51,50,85,62
2025-02-26 15:13:05.724,-228.0,84.0,-111.0,279.0,236.0,284.0,148,51,49,85,63
2025-02-26 15:13:05.729,-349.0,271.0,-233.0,283.0,239.0,291.0,146,50,48,86,64
2025-02-26 15:13:05.736,-385.0,451.0,-342.0,292.0,235.0,296.0,147,51,49,82,63
2025-02-26 15:13:05.740,-501.0,568.0,-431.0,305.0,220.0,297.0,146,51,50,84,64
2025-02-26 15:13:05.744,-523.0,798.0,-539.0,333.0,206.0,287.0,145,45,49,84,59
2025-02-26 15:13:05.752,-577.0,977.0,-691.0,350.0,190.0,267.0,145,50,51,85,64
2025-02-26 15:13:05.756,-639.0,1256.0,-881.0,383.0,184.0,227.0,139,51,50,82,62
2025-02-26 15:13:05.760,-770.0,1434.0,-1126.0,431.0,164.0,199.0,142,51,50,85,64
2025-02-26 15:13:05.764,-1046.0,1784.0,-1218.0,446.0,127.0,131.0,138,51,49,86,63
2025-02-26 15:13:05.771,-1362.0,2498.0,-1399.0,425.0,92.0,45.0,140,51,50,83,62
2025-02-26 15:13:05.776,-1653.0,2939.0,-1711.0,415.0,57.0,-67.0,138,52,50,83,61
2025-02-26 15:13:05.781,-1772.0,3482.0,-2036.0,345.0,-28.0,-203.0,139,50,49,83,61
2025-02-26 15:13:05.788,-2055.0,3779.0,-2245.0,245.0,-111.0,-277.0,141,50,48,83,61
2025-02-26 15:13:05.793,-2193.0,4122.0,-2436.0,127.0,-221.0,-435.0,140,54,52,84,62
2025-02-26 15:13:05.797,-2387.0,4131.0,-2491.0,14.0,-347.0,-584.0,139,52,50,82,58
2025-02-26 15:13:05.805,-2247.0,3782.0,-2431.0,-116.0,-503.0,-733.0,139,53,52,83,58
2025-02-26 15:13:05.808,-1460.0,3594.0,-2770.0,-170.0,-652.0,-874.0,140,52,51,83,60
2025-02-26 15:13:05.817,-593.0,3529.0,-2990.0,-299.0,-820.0,-1001.0,143,54,54,81,60
2025-02-26 15:13:05.821,865.0,3455.0,-3383.0,-438.0,-920.0,-1071.0,141,56,51,82,59
2025-02-26 15:13:05.826,1595.0,3028.0,-3896.0,-600.0,-1089.0,-1092.0,141,53,51,83,60
2025-02-26 15:13:05.832,3265.0,1671.0,-4326.0,-787.0,-1245.0,-1027.0,144,51,51,83,61
2025-02-26 15:13:05.839,5168.0,-55.0,-4334.0,-938.0,-1397.0,-908.0,144,52,51,83,62
2025-02-26 15:13:05.846,6735.0,-1316.0,-3945.0,-1048.0,-1462.0,-829.0,147,53,49,82,62
2025-02-26 15:13:05.850,7700.0,-3601.0,-2548.0,-1151.0,-1360.0,-626.0,147,52,50,84,63
2025-02-26 15:13:05.854,7436.0,-6307.0,-1071.0,-1185.0,-1086.0,-395.0,149,53,47,84,64
2025-02-26 15:13:05.862,7190.0,-8972.0,1024.0,-1001.0,-664.0,-153.0,150,53,49,84,65
2025-02-26 15:13:05.866,7785.0,-10359.0,1887.0,-635.0,-238.0,1.0,148,53,47,83,64
2025-02-26 15:13:05.871,8105.0,-9437.0,2507.0,-137.0,167.0,41.0,150,53,48,84,65
2025-02-26 15:13:05.879,6061.0,-7907.0,1031.0,130.0,438.0,18.0,165,71,65,99,83
2025-02-26 15:13:05.883,4864.0,-6558.0,-1032.0,439.0,535.0,8.0,208,118,114,147,129
2025-02-26 15:13:05.886,2546.0,-5251.0,-3439.0,655.0,652.0,26.0,178,83,79,111,90
2025-02-26 15:13:05.893,-952.0,-4776.0,-3521.0,640.0,549.0,76.0,251,165,161,190,169
2025-02-26 15:13:05.899,723.0,-631.0,-4422.0,718.0,220.0,129.0,212,121,117,149,129
2025-02-26 15:13:05.904,-931.0,882.0,-3061.0,411.0,-27.0,218.0,204,113,109,140,119
2025-02-26 15:13:05.911,-804.0,190.0,-3128.0,236.0,-102.0,201.0,177,83,79,110,90
2025-02-26 15:13:05.916,-315.0,1128.0,-1653.0,119.0,-4.0,141.0,168,72,67,101,82
2025-02-26 15:13:05.920,-269.0,357.0,-72.0,-51.0,-171.0,129.0,178,81,78,111,92
2025-02-26 15:13:05.928,-142.0,-328.0,-135.0,-90.0,-134.0,105.0,164,74,69,103,84
2025-02-26 15:13:05.932,84.0,-2106.0,383.0,-87.0,-138.0,105.0,170,77,73,105,86
2025-02-26 15:13:05.936,605.0,-2224.0,456.0,-18.0,-68.0,90.0,170,74,69,104,86
2025-02-26 15:13:05.940,499.0,-2949.0,705.0,39.0,-24.0,102.0,168,72,67,101,81
2025-02-26 15:13:05.947,615.0,-2237.0,1154.0,77.0,26.0,100.0,166,70,66,100,79
2025-02-26 15:13:05.953,885.0,-1833.0,1249.0,136.0,131.0,115.0,165,73,67,101,81
2025-02-26 15:13:05.957,892.0,-1604.0,1090.0,171.0,200.0,121.0,161,67,64,99,77
2025-02-26 15:13:05.964,650.0,-1803.0,787.0,170.0,225.0,146.0,160,64,61,96,75
2025-02-26 15:13:05.968,175.0,-1477.0,561.0,188.0,213.0,165.0,159,64,61,94,74
2025-02-26 15:13:05.973,174.0,-1466.0,234.0,174.0,180.0,178.0,163,68,66,98,77
2025-02-26 15:13:05.977,121.0,-1245.0,-4.0,140.0,169.0,186.0,160,65,63,95,75
2025-02-26 15:13:05.988,9.0,-1257.0,62.0,118.0,161.0,204.0,161,64,61,93,74
2025-02-26 15:13:05.990,12.0,-955.0,14.0,53.0,150.0,211.0,159,63,61,94,74
2025-02-26 15:13:05.994,27.0,-808.0,0.0,-12.0,154.0,222.0,163,66,64,98,76
2025-02-26 15:13:05.996,24.0,-783.0,-184.0,-61.0,157.0,229.0,159,64,61,95,75
2025-02-26 15:13:06.001,86.0,-708.0,351.0,-109.0,130.0,232.0,158,63,58,94,74
2025-02-26 15:13:06.008,73.0,-712.0,138.0,-128.0,112.0,245.0,163,66,59,94,76
2025-02-26 15:13:06.014,269.0,-713.0,114.0,-126.0,86.0,250.0,160,66,59,96,76
2025-02-26 15:13:06.018,211.0,-835.0,281.0,-108.0,72.0,256.0,160,64,58,95,75
2025-02-26 15:13:06.023,261.0,-894.0,422.0,-117.0,62.0,267.0,161,66,61,97,77
2025-02-26 15:13:06.027,333.0,-1041.0,408.0,-111.0,81.0,279.0,160,66,60,96,75
2025-02-26 15:13:06.034,418.0,-1021.0,479.0,-113.0,96.0,287.0,160,66,60,96,75
2025-02-26 15:13:06.038,479.0,-1030.0,501.0,-109.0,145.0,293.0,161,68,62,97,78
2025-02-26 15:13:06.042,408.0,-1000.0,428.0,-111.0,206.0,307.0,160,67,64,98,77
2025-02-26 15:13:06.050,311.0,-920.0,226.0,-100.0,239.0,321.0,158,66,61,96,77
2025-02-26 15:13:06.055,237.0,-758.0,171.0,-84.0,244.0,327.0,163,67,64,99,78
2025-02-26 15:13:06.059,75.0,-703.0,155.0,-56.0,237.0,332.0,160,67,63,100,79
2025-02-26 15:13:06.063,60.0,-638.0,128.0,-19.0,210.0,338.0,161,64,64,99,78
2025-02-26 15:13:06.068,54.0,-509.0,136.0,-13.0,200.0,343.0,159,64,60,97,75
2025-02-26 15:13:06.075,13.0,-508.0,83.0,41.0,207.0,349.0,160,67,65,98,77
2025-02-26 15:13:06.079,-1030.0,-766.0,150.0,106.0,179.0,354.0,158,68,65,99,80
2025-02-26 15:13:06.084,177.0,-347.0,304.0,96.0,219.0,354.0,159,67,62,98,77
2025-02-26 15:13:06.088,154.0,-288.0,179.0,119.0,229.0,357.0,158,66,63,98,77
2025-02-26 15:13:06.096,293.0,-194.0,310.0,104.0,227.0,368.0,161,68,63,100,81
2025-02-26 15:13:06.099,168.0,-218.0,152.0,106.0,233.0,366.0,158,66,63,100,81
2025-02-26 15:13:06.104,181.0,-83.0,103.0,94.0,244.0,361.0,158,64,62,99,82
2025-02-26 15:13:06.109,216.0,-161.0,97.0,125.0,290.0,362.0,159,65,63,102,83
2025-02-26 15:13:06.112,64.0,-145.0,25.0,170.0,296.0,354.0,160,68,69,104,88
2025-02-26 15:13:06.120,-6.0,-162.0,107.0,170.0,286.0,341.0,158,68,66,102,87
2025-02-26 15:13:06.124,27.0,28.0,-67.0,202.0,262.0,338.0,155,63,61,101,85
2025-02-26 15:13:06.129,-25.0,-122.0,-314.0,252.0,233.0,338.0,153,66,66,102,88
2025-02-26 15:13:06.133,-317.0,4.0,-53.0,261.0,238.0,334.0,154,65,68,107,91
2025-02-26 15:13:06.140,-502.0,56.0,-537.0,268.0,234.0,336.0,154,66,68,106,90
2025-02-26 15:13:06.145,-366.0,125.0,-540.0,320.0,226.0,343.0,157,72,73,113,99
2025-02-26 15:13:06.149,-274.0,390.0,-625.0,365.0,207.0,333.0,162,80,81,119,108
2025-02-26 15:13:06.157,-330.0,625.0,-758.0,375.0,184.0,320.0,161,77,78,117,108
2025-02-26 15:13:06.161,-391.0,766.0,-622.0,396.0,168.0,304.0,167,89,90,129,122
2025-02-26 15:13:06.166,-537.0,794.0,-666.0,392.0,130.0,298.0,175,101,100,138,133
2025-02-26 15:13:06.170,-649.0,822.0,-515.0,407.0,126.0,277.0,171,96,99,135,133
2025-02-26 15:13:06.177,-769.0,953.0,-814.0,409.0,125.0,246.0,169,94,98,137,136
2025-02-26 15:13:06.182,-844.0,1137.0,-1130.0,388.0,100.0,212.0,164,91,95,132,134
2025-02-26 15:13:06.187,-950.0,1327.0,-1263.0,387.0,81.0,171.0,165,92,94,132,133
2025-02-26 15:13:06.194,-1026.0,1397.0,-1503.0,400.0,35.0,128.0,172,108,111,148,148
2025-02-26 15:13:06.198,-1051.0,1433.0,-1648.0,384.0,-13.0,103.0,162,102,100,139,139
2025-02-26 15:13:06.206,-1079.0,1684.0,-1930.0,366.0,-71.0,43.0,162,105,101,141,139
2025-02-26 15:13:06.211,-1239.0,1767.0,-1888.0,366.0,-123.0,-11.0,168,115,110,150,143
2025-02-26 15:13:06.214,-1588.0,1748.0,-1975.0,315.0,-182.0,-79.0,188,140,133,172,164
2025-02-26 15:13:06.223,-1640.0,1842.0,-2188.0,238.0,-279.0,-157.0,181,133,126,163,155
2025-02-26 15:13:06.225,-1496.0,2008.0,-2113.0,176.0,-382.0,-239.0,192,147,139,175,165
2025-02-26 15:13:06.235,-1347.0,2135.0,-2076.0,87.0,-480.0,-328.0,192,151,143,176,167
2025-02-26 15:13:06.237,-1111.0,1887.0,-2102.0,-26.0,-595.0,-409.0,184,145,137,166,161
2025-02-26 15:13:06.247,-738.0,1934.0,-879.0,-41.0,-610.0,-507.0,183,148,138,165,160
2025-02-26 15:13:06.249,-577.0,1601.0,-1278.0,-152.0,-671.0,-583.0,186,152,144,168,166
2025-02-26 15:13:06.254,-77.0,1379.0,-1489.0,-220.0,-739.0,-652.0,185,154,146,167,168
2025-02-26 15:13:06.261,453.0,1231.0,-1110.0,-247.0,-745.0,-712.0,185,152,144,164,164
2025-02-26 15:13:06.267,1060.0,963.0,-984.0,-279.0,-744.0,-747.0,180,147,140,161,161
2025-02-26 15:13:06.273,1828.0,976.0,-935.0,-337.0,-775.0,-748.0,182,151,143,164,164
2025-02-26 15:13:06.280,2601.0,708.0,-791.0,-460.0,-856.0,-723.0,183,153,146,163,163
2025-02-26 15:13:06.285,3761.0,-450.0,-139.0,-533.0,-944.0,-680.0,179,152,143,161,161
2025-02-26 15:13:06.291,4147.0,-1266.0,1062.0,-682.0,-970.0,-674.0,178,152,146,155,158
2025-02-26 15:13:06.297,3747.0,-2121.0,1238.0,-758.0,-918.0,-624.0,180,153,146,163,159
2025-02-26 15:13:06.305,3756.0,-3130.0,126.0,-718.0,-893.0,-520.0,180,153,147,162,157
2025-02-26 15:13:06.309,3594.0,-4101.0,-643.0,-704.0,-853.0,-376.0,181,154,146,161,157
2025-02-26 15:13:06.315,3742.0,-4879.0,-600.0,-639.0,-739.0,-227.0,180,149,148,162,161
2025-02-26 15:13:06.322,3588.0,-5562.0,-420.0,-509.0,-577.0,-105.0,176,153,144,159,155
2025-02-26 15:13:06.329,3619.0,-5869.0,-324.0,-329.0,-405.0,4.0,183,161,154,168,162
2025-02-26 15:13:06.333,3535.0,-5628.0,137.0,-171.0,-212.0,84.0,186,164,155,169,165
2025-02-26 15:13:06.338,3190.0,-5074.0,-34.0,-121.0,-124.0,142.0,182,160,151,165,161
2025-02-26 15:13:06.346,3227.0,-4187.0,-570.0,-86.0,8.0,158.0,178,156,145,159,155
2025-02-26 15:13:06.350,2520.0,-3639.0,-707.0,91.0,97.0,170.0,177,155,146,158,155
2025-02-26 15:13:06.354,1810.0,-3261.0,-689.0,289.0,128.0,169.0,181,156,145,159,156
2025-02-26 15:13:06.362,1479.0,-2460.0,-795.0,401.0,46.0,167.0,188,163,153,169,165
2025-02-26 15:13:06.364,1103.0,-1945.0,1588.0,496.0,233.0,161.0,186,156,150,164,161
2025-02-26 15:13:06.371,584.0,-2024.0,2138.0,615.0,414.0,185.0,189,166,155,170,165
2025-02-26 15:13:06.377,479.0,-1994.0,1727.0,551.0,613.0,218.0,190,165,153,169,166
2025-02-26 15:13:06.383,331.0,-1757.0,-440.0,366.0,554.0,301.0,189,165,154,167,167
2025-02-26 15:13:06.391,-65.0,-1608.0,-1872.0,121.0,421.0,353.0,189,166,153,169,166
2025-02-26 15:13:06.394,-97.0,-1211.0,-692.0,-15.0,223.0,376.0,194,169,158,173,170
2025-02-26 15:13:06.400,-158.0,-919.0,-167.0,33.0,38.0,369.0,187,160,149,166,163
2025-02-26 15:13:06.406,14.0,-825.0,779.0,88.0,-19.0,353.0,186,161,150,168,163
2025-02-26 15:13:06.412,96.0,-346.0,1057.0,141.0,44.0,311.0,188,162,150,166,163
2025-02-26 15:13:06.416,45.0,-243.0,783.0,183.0,126.0,272.0,186,161,151,166,164
2025-02-26 15:13:06.420,-106.0,-505.0,51.0,278.0,124.0,254.0,184,158,145,163,161
2025-02-26 15:13:06.427,-8.0,-814.0,404.0,303.0,146.0,224.0,181,156,144,161,159
2025-02-26 15:13:06.431,28.0,-606.0,-379.0,479.0,198.0,193.0,186,161,149,165,164
2025-02-26 15:13:06.437,86.0,-1259.0,174.0,394.0,200.0,196.0,187,162,150,167,164
2025-02-26 15:13:06.444,-728.0,-1381.0,364.0,122.0,228.0,169.0,186,161,148,165,164
2025-02-26 15:13:06.448,-525.0,-1250.0,1260.0,18.0,161.0,192.0,183,158,146,164,162
2025-02-26 15:13:06.449,-345.0,-523.0,1256.0,-38.0,150.0,234.0,185,160,147,165,163
2025-02-26 15:13:06.461,-335.0,-910.0,495.0,-44.0,160.0,238.0,184,158,144,161,160
2025-02-26 15:13:06.465,-201.0,-961.0,444.0,-141.0,193.0,237.0,187,161,152,168,166
2025-02-26 15:13:06.472,-228.0,-825.0,269.0,-179.0,205.0,238.0,182,156,144,162,160
2025-02-26 15:13:06.477,14.0,-771.0,523.0,-212.0,200.0,241.0,185,158,147,163,162
2025-02-26 15:13:06.482,-8.0,-534.0,445.0,-263.0,200.0,233.0,185,159,144,163,161
2025-02-26 15:13:06.489,-222.0,-419.0,144.0,-276.0,171.0,240.0,182,155,144,161,160
2025-02-26 15:13:06.491,-351.0,-501.0,-149.0,-209.0,124.0,256.0,182,157,144,161,161
2025-02-26 15:13:06.498,-320.0,-444.0,-185.0,-139.0,111.0,264.0,181,155,142,159,158
2025-02-26 15:13:06.503,-231.0,-193.0,-91.0,-91.0,91.0,264.0,180,151,140,157,156
2025-02-26 15:13:06.509,-283.0,-271.0,262.0,-102.0,105.0,262.0,175,149,138,156,156
2025-02-26 15:13:06.514,-282.0,35.0,-89.0,-103.0,55.0,257.0,183,154,144,162,159
2025-02-26 15:13:06.522,-143.0,-100.0,196.0,-152.0,51.0,244.0,182,155,141,159,160
2025-02-26 15:13:06.526,-153.0,-64.0,349.0,-194.0,87.0,229.0,190,153,143,156,159
2025-02-26 15:13:06.531,-200.0,68.0,233.0,-220.0,118.0,215.0,182,152,142,162,159
2025-02-26 15:13:06.538,-188.0,-113.0,-84.0,-233.0,126.0,211.0,178,150,140,158,157
2025-02-26 15:13:06.543,-286.0,-153.0,-122.0,-217.0,141.0,212.0,177,148,139,156,155
2025-02-26 15:13:06.546,-478.0,-128.0,0.0,-97.0,109.0,214.0,174,147,136,155,153
2025-02-26 15:13:06.555,-556.0,-212.0,604.0,33.0,58.0,210.0,181,154,143,162,162
2025-02-26 15:13:06.558,-522.0,-176.0,652.0,110.0,63.0,209.0,180,152,141,160,161
2025-02-26 15:13:06.563,-439.0,-15.0,89.0,144.0,56.0,207.0,176,149,141,159,156
2025-02-26 15:13:06.567,-472.0,11.0,-19.0,202.0,49.0,201.0,176,146,137,156,156
2025-02-26 15:13:06.575,-535.0,16.0,224.0,240.0,43.0,198.0,189,162,153,169,170
2025-02-26 15:13:06.580,-534.0,66.0,314.0,260.0,53.0,196.0,188,160,153,172,170
2025-02-26 15:13:06.582,-389.0,239.0,332.0,266.0,66.0,196.0,187,160,153,168,169
2025-02-26 15:13:06.592,-335.0,343.0,129.0,287.0,64.0,195.0,183,156,147,166,166
2025-02-26 15:13:06.596,-398.0,525.0,240.0,307.0,65.0,183.0,192,163,153,173,173
2025-02-26 15:13:06.600,-444.0,691.0,124.0,336.0,56.0,174.0,194,168,159,177,177
2025-02-26 15:13:06.604,-519.0,865.0,143.0,386.0,40.0,166.0,191,166,154,174,174
2025-02-26 15:13:06.612,-675.0,1033.0,-22.0,407.0,18.0,139.0,183,154,146,165,164
2025-02-26 15:13:06.616,-714.0,1373.0,-54.0,419.0,0.0,100.0,177,153,141,159,162
2025-02-26 15:13:06.620,-764.0,1752.0,-420.0,423.0,-16.0,47.0,178,151,140,161,162
2025-02-26 15:13:06.624,-1096.0,1564.0,-665.0,354.0,-33.0,20.0,176,145,136,158,161
2025-02-26 15:13:06.633,-1264.0,1910.0,-856.0,323.0,-44.0,-45.0,183,157,145,166,168
2025-02-26 15:13:06.640,-1470.0,2067.0,-1134.0,353.0,-68.0,-118.0,180,156,142,164,166
2025-02-26 15:13:06.645,-1682.0,2087.0,-1217.0,350.0,-93.0,-200.0,177,153,141,162,166
2025-02-26 15:13:06.649,-1610.0,2376.0,-1247.0,321.0,-136.0,-296.0,180,155,141,162,165
2025-02-26 15:13:06.655,-1523.0,2488.0,-1390.0,262.0,-202.0,-395.0,180,154,146,162,166
2025-02-26 15:13:06.662,-1530.0,2462.0,-1441.0,191.0,-267.0,-489.0,181,156,140,161,167
2025-02-26 15:13:06.667,-1410.0,2315.0,-1363.0,109.0,-326.0,-576.0,178,154,140,159,165
2025-02-26 15:13:06.674,-1053.0,2124.0,-1261.0,11.0,-391.0,-647.0,179,157,141,162,167
2025-02-26 15:13:06.681,-473.0,2044.0,-1325.0,-80.0,-469.0,-683.0,177,150,140,161,165
2025-02-26 15:13:06.684,329.0,1941.0,-1158.0,-168.0,-542.0,-719.0,177,154,145,160,164
2025-02-26 15:13:06.690,1131.0,1433.0,-761.0,-322.0,-626.0,-756.0,173,153,141,158,164
2025-02-26 15:13:06.698,1856.0,716.0,-26.0,-463.0,-732.0,-771.0,171,155,143,160,165
2025-02-26 15:13:06.703,2674.0,-84.0,692.0,-493.0,-731.0,-772.0,172,154,142,158,163
2025-02-26 15:13:06.709,3248.0,-899.0,694.0,-498.0,-667.0,-766.0,172,154,143,158,162
2025-02-26 15:13:06.715,3530.0,-1741.0,390.0,-546.0,-627.0,-749.0,172,154,144,160,164
2025-02-26 15:13:06.719,3710.0,-2211.0,327.0,-560.0,-600.0,-697.0,171,154,142,158,160
2025-02-26 15:13:06.727,3935.0,-2870.0,-15.0,-535.0,-588.0,-602.0,172,154,146,157,157
2025-02-26 15:13:06.731,4121.0,-3774.0,-145.0,-502.0,-553.0,-490.0,177,157,146,162,162
2025-02-26 15:13:06.739,3989.0,-4680.0,-419.0,-423.0,-490.0,-365.0,182,161,154,166,166
2025-02-26 15:13:06.743,3437.0,-4792.0,-451.0,-346.0,-411.0,-232.0,179,160,153,167,164
2025-02-26 15:13:06.751,2943.0,-4940.0,-326.0,-307.0,-296.0,-99.0,179,163,152,165,163
2025-02-26 15:13:06.753,2915.0,-4811.0,-178.0,-184.0,-164.0,27.0,175,156,147,160,160
2025-02-26 15:13:06.759,2650.0,-4722.0,-64.0,-174.0,-72.0,135.0,181,163,155,168,167
2025-02-26 15:13:06.764,2699.0,-4113.0,-39.0,-87.0,28.0,191.0,171,152,142,157,155
2025-02-26 15:13:06.772,2672.0,-3824.0,-97.0,-38.0,70.0,206.0,179,159,148,164,162
2025-02-26 15:13:06.776,2127.0,-3348.0,170.0,28.0,88.0,229.0,175,154,143,160,157
2025-02-26 15:13:06.782,1459.0,-2827.0,226.0,106.0,97.0,242.0,178,155,146,162,159
2025-02-26 15:13:06.788,1221.0,-2189.0,261.0,108.0,93.0,232.0,177,156,143,160,158
2025-02-26 15:13:06.792,934.0,-1920.0,538.0,213.0,153.0,230.0,175,153,142,159,158
2025-02-26 15:13:06.800,752.0,-1736.0,606.0,257.0,163.0,235.0,173,149,139,156,154
2025-02-26 15:13:06.804,532.0,-1547.0,795.0,241.0,191.0,234.0,175,150,139,158,155
2025-02-26 15:13:06.809,331.0,-1446.0,270.0,260.0,198.0,255.0,178,153,146,163,159
2025-02-26 15:13:06.817,97.0,-1439.0,209.0,204.0,179.0,272.0,180,154,144,164,160
2025-02-26 15:13:06.821,264.0,-1209.0,645.0,172.0,197.0,279.0,180,154,142,162,158
2025-02-26 15:13:06.826,118.0,-1173.0,406.0,162.0,175.0,286.0,178,151,140,161,154
2025-02-26 15:13:06.831,36.0,-1076.0,374.0,167.0,159.0,283.0,177,151,139,162,155
2025-02-26 15:13:06.837,-15.0,-1166.0,591.0,208.0,166.0,282.0,165,138,126,150,144
2025-02-26 15:13:06.841,-130.0,-1077.0,26.0,235.0,168.0,281.0,161,132,122,145,138
2025-02-26 15:13:06.850,-138.0,-875.0,-56.0,278.0,153.0,273.0,164,132,124,146,139
2025-02-26 15:13:06.853,-131.0,-1104.0,216.0,192.0,166.0,271.0,167,132,124,146,142
2025-02-26 15:13:06.862,-181.0,-632.0,487.0,134.0,187.0,242.0,163,132,120,145,140
2025-02-26 15:13:06.865,-17.0,-1024.0,614.0,48.0,120.0,243.0,164,130,117,142,139
2025-02-26 15:13:06.870,49.0,-946.0,1051.0,-21.0,122.0,251.0,161,125,116,141,140
2025-02-26 15:13:06.874,1.0,-1157.0,616.0,11.0,151.0,271.0,158,123,115,140,140
2025-02-26 15:13:06.882,34.0,-851.0,192.0,-26.0,165.0,276.0,168,131,123,148,147
2025-02-26 15:13:06.887,167.0,-953.0,325.0,-62.0,199.0,292.0,165,125,118,144,146
2025-02-26 15:13:06.891,186.0,-894.0,531.0,-56.0,223.0,296.0,164,126,116,142,142
2025-02-26 15:13:06.899,271.0,-872.0,399.0,-87.0,238.0,305.0,163,123,119,141,139
2025-02-26 15:13:06.903,205.0,-930.0,361.0,-90.0,240.0,327.0,164,122,114,139,137
2025-02-26 15:13:06.903,-34.0,-946.0,351.0,-97.0,222.0,339.0,163,118,110,138,134
2025-02-26 15:13:06.915,15.0,-754.0,398.0,-83.0,227.0,354.0,168,124,113,144,137
2025-02-26 15:13:06.917,-33.0,-825.0,256.0,-68.0,224.0,369.0,163,121,113,139,131
2025-02-26 15:13:06.923,-104.0,-613.0,267.0,-68.0,225.0,377.0,165,118,108,137,128
2025-02-26 15:13:06.931,-110.0,-475.0,207.0,-80.0,220.0,383.0,162,109,103,136,124
2025-02-26 15:13:06.935,-166.0,-372.0,242.0,-90.0,206.0,383.0,162,106,102,138,122
2025-02-26 15:13:06.940,-145.0,-374.0,330.0,-84.0,192.0,384.0,162,101,100,133,118
2025-02-26 15:13:06.948,-170.0,-271.0,272.0,-75.0,188.0,386.0,169,95,102,132,119
2025-02-26 15:13:06.952,-154.0,-218.0,311.0,-70.0,204.0,385.0,163,95,101,133,117
2025-02-26 15:13:06.956,-184.0,-130.0,139.0,-59.0,214.0,385.0,163,89,101,134,116
2025-02-26 15:13:06.964,-169.0,51.0,133.0,-43.0,215.0,382.0,161,85,96,125,112
2025-02-26 15:13:06.968,-170.0,112.0,56.0,-10.0,208.0,379.0,162,86,96,130,110
2025-02-26 15:13:06.971,-288.0,153.0,-50.0,20.0,199.0,362.0,164,90,98,137,114
2025-02-26 15:13:06.976,-380.0,244.0,-38.0,46.0,177.0,341.0,164,86,95,134,110
2025-02-26 15:13:06.984,-407.0,338.0,-101.0,102.0,169.0,310.0,161,81,92,130,107
2025-02-26 15:13:06.989,-498.0,526.0,-167.0,148.0,149.0,292.0,160,77,91,129,105
2025-02-26 15:13:06.993,-498.0,627.0,-271.0,190.0,135.0,256.0,165,83,95,131,108
2025-02-26 15:13:06.997,-572.0,642.0,-339.0,249.0,111.0,217.0,163,84,90,130,106
2025-02-26 15:13:07.005,-581.0,817.0,-238.0,271.0,96.0,181.0,161,82,89,125,103
2025-02-26 15:13:07.009,-626.0,1063.0,-250.0,310.0,85.0,140.0,159,80,85,122,101
2025-02-26 15:13:07.014,-609.0,1312.0,-304.0,328.0,70.0,119.0,161,79,88,123,101
2025-02-26 15:13:07.021,-781.0,1499.0,-312.0,334.0,48.0,69.0,162,78,86,124,102
2025-02-26 15:13:07.026,-828.0,1921.0,-401.0,319.0,33.0,10.0,163,80,87,123,101
2025-02-26 15:13:07.030,-709.0,2166.0,-586.0,293.0,15.0,-53.0,162,77,82,120,97
2025-02-26 15:13:07.035,-744.0,2357.0,-626.0,260.0,20.0,-109.0,163,77,81,116,94
2025-02-26 15:13:07.043,-835.0,2403.0,-891.0,244.0,-14.0,-140.0,162,77,80,117,93
2025-02-26 15:13:07.046,-924.0,2718.0,-1037.0,200.0,-47.0,-206.0,161,78,80,115,88
2025-02-26 15:13:07.049,-759.0,2877.0,-1299.0,151.0,-59.0,-292.0,163,74,79,110,86
2025-02-26 15:13:07.059,-732.0,2822.0,-1395.0,122.0,-70.0,-375.0,162,73,77,105,83
2025-02-26 15:13:07.062,-769.0,2543.0,-1399.0,75.0,-120.0,-455.0,160,70,72,101,80
2025-02-26 15:13:07.068,-721.0,2234.0,-1418.0,34.0,-140.0,-532.0,164,71,75,102,81
2025-02-26 15:13:07.075,-972.0,2061.0,-1355.0,-2.0,-198.0,-572.0,163,73,74,99,81
2025-02-26 15:13:07.079,-1187.0,1950.0,-1343.0,-39.0,-277.0,-649.0,166,75,77,99,83
2025-02-26 15:13:07.085,-1157.0,1917.0,-1442.0,-62.0,-392.0,-717.0,166,73,74,100,82
2025-02-26 15:13:07.092,-490.0,1751.0,-1859.0,-92.0,-526.0,-774.0,162,69,71,93,76
2025-02-26 15:13:07.095,155.0,1617.0,-2271.0,-104.0,-598.0,-801.0,165,69,70,93,77
2025-02-26 15:13:07.104,619.0,1643.0,-2138.0,-178.0,-692.0,-826.0,164,67,66,92,78
2025-02-26 15:13:07.108,857.0,1601.0,-2072.0,-260.0,-754.0,-861.0,165,65,67,90,75
2025-02-26 15:13:07.112,1671.0,1267.0,-2182.0,-339.0,-880.0,-872.0,166,65,65,92,77
2025-02-26 15:13:07.120,2840.0,1077.0,-2030.0,-430.0,-972.0,-855.0,167,67,64,89,77
2025-02-26 15:13:07.123,4081.0,603.0,-1669.0,-532.0,-1005.0,-807.0,169,69,68,92,80
2025-02-26 15:13:07.129,4605.0,-807.0,-1312.0,-613.0,-992.0,-705.0,170,70,67,91,81
2025-02-26 15:13:07.136,5139.0,-2724.0,-816.0,-664.0,-889.0,-572.0,173,72,71,95,83
2025-02-26 15:13:07.141,5381.0,-4470.0,-250.0,-660.0,-699.0,-421.0,171,70,67,93,82
2025-02-26 15:13:07.146,5306.0,-5712.0,337.0,-574.0,-483.0,-282.0,175,69,66,94,81
2025-02-26 15:13:07.153,5305.0,-6221.0,1077.0,-391.0,-363.0,-182.0,170,68,65,92,79
2025-02-26 15:13:07.157,5271.0,-6447.0,1555.0,-157.0,-109.0,-122.0,169,69,65,90,80
2025-02-26 15:13:07.161,4821.0,-6393.0,1231.0,67.0,126.0,-96.0,170,67,68,91,78
2025-02-26 15:13:07.169,3837.0,-6136.0,720.0,262.0,279.0,-58.0,170,69,66,93,81
2025-02-26 15:13:07.173,2807.0,-4975.0,-173.0,324.0,368.0,-11.0,175,72,70,93,82
2025-02-26 15:13:07.178,1768.0,-4046.0,-1186.0,416.0,376.0,36.0,171,66,67,91,77
2025-02-26 15:13:07.183,1553.0,-3023.0,-1463.0,380.0,330.0,67.0,170,66,67,90,77
2025-02-26 15:13:07.190,1507.0,-2357.0,-1131.0,295.0,250.0,94.0,171,66,65,91,75
2025-02-26 15:13:07.194,99.0,-1451.0,-1431.0,202.0,151.0,137.0,171,70,68,93,77
2025-02-26 15:13:07.198,21.0,-1021.0,-1279.0,154.0,44.0,149.0,171,68,72,92,77
2025-02-26 15:13:07.205,-57.0,-918.0,-822.0,61.0,-4.0,151.0,169,67,65,91,75
2025-02-26 15:13:07.210,50.0,-837.0,-530.0,-47.0,-43.0,146.0,171,66,65,93,77
2025-02-26 15:13:07.215,254.0,-1087.0,-281.0,-85.0,-81.0,135.0,171,70,67,94,82
2025-02-26 15:13:07.219,491.0,-1676.0,42.0,-103.0,-72.0,129.0,170,68,67,94,81
2025-02-26 15:13:07.226,676.0,-1949.0,278.0,-73.0,-73.0,147.0,171,65,64,91,79
2025-02-26 15:13:07.230,626.0,-2277.0,533.0,-54.0,-42.0,147.0,171,68,68,94,83
2025-02-26 15:13:07.235,1038.0,-2184.0,585.0,-27.0,11.0,163.0,172,69,68,97,83
2025-02-26 15:13:07.238,739.0,-2500.0,735.0,-10.0,38.0,188.0,170,68,67,95,83
2025-02-26 15:13:07.247,743.0,-2462.0,764.0,31.0,69.0,201.0,171,68,63,96,83
2025-02-26 15:13:07.250,763.0,-2226.0,660.0,44.0,110.0,236.0,171,72,69,97,86
2025-02-26 15:13:07.256,645.0,-2042.0,583.0,64.0,127.0,265.0,173,69,69,98,85
2025-02-26 15:13:07.260,594.0,-1902.0,509.0,70.0,123.0,288.0,171,70,67,95,84
2025-02-26 15:13:07.267,360.0,-1781.0,312.0,76.0,133.0,293.0,172,69,71,97,83
2025-02-26 15:13:07.272,344.0,-1650.0,319.0,78.0,134.0,314.0,172,73,71,99,85
2025-02-26 15:13:07.276,330.0,-1404.0,232.0,77.0,133.0,331.0,172,69,64,96,83
2025-02-26 15:13:07.280,275.0,-1279.0,166.0,67.0,139.0,334.0,170,67,68,96,82
2025-02-26 15:13:07.284,244.0,-949.0,229.0,52.0,133.0,329.0,171,70,73,98,83
2025-02-26 15:13:07.292,221.0,-743.0,299.0,52.0,129.0,309.0,172,70,70,98,82
2025-02-26 15:13:07.296,200.0,-371.0,320.0,49.0,124.0,279.0,173,68,69,97,81
2025-02-26 15:13:07.300,264.0,-316.0,374.0,52.0,127.0,261.0,172,73,70,99,83
2025-02-26 15:13:07.305,176.0,-260.0,448.0,46.0,130.0,230.0,172,68,68,99,82
2025-02-26 15:13:07.312,161.0,-394.0,470.0,40.0,136.0,214.0,172,68,67,97,81
2025-02-26 15:13:07.317,87.0,-426.0,526.0,21.0,144.0,210.0,172,70,72,102,83
2025-02-26 15:13:07.322,88.0,-568.0,373.0,10.0,163.0,212.0,173,72,69,99,84
2025-02-26 15:13:07.325,-10.0,-542.0,460.0,-15.0,170.0,220.0,170,70,71,97,80
2025-02-26 15:13:07.330,-36.0,-540.0,312.0,-25.0,183.0,222.0,173,73,72,100,84
2025-02-26 15:13:07.335,-107.0,-625.0,274.0,-27.0,190.0,227.0,178,76,79,104,88
2025-02-26 15:13:07.341,-186.0,-631.0,188.0,-31.0,190.0,231.0,178,76,76,102,86
2025-02-26 15:13:07.353,-209.0,-620.0,215.0,-24.0,186.0,232.0,176,74,73,102,85
2025-02-26 15:13:07.357,-355.0,-681.0,92.0,-3.0,167.0,234.0,176,77,76,106,87
2025-02-26 15:13:07.359,-302.0,-639.0,110.0,6.0,151.0,241.0,177,77,74,106,88
2025-02-26 15:13:07.362,-324.0,-646.0,47.0,14.0,146.0,248.0,177,75,74,101,85
2025-02-26 15:13:07.366,-380.0,-650.0,97.0,30.0,134.0,252.0,172,74,66,102,85
2025-02-26 15:13:07.371,-298.0,-554.0,104.0,32.0,126.0,256.0,176,76,75,104,88
2025-02-26 15:13:07.376,-232.0,-507.0,133.0,35.0,132.0,258.0,175,75,76,104,87
2025-02-26 15:13:07.382,-196.0,-471.0,198.0,34.0,140.0,266.0,173,73,73,103,86
2025-02-26 15:13:07.385,-137.0,-452.0,241.0,42.0,150.0,267.0,172,74,73,101,84
2025-02-26 15:13:07.389,-43.0,-297.0,266.0,66.0,165.0,257.0,175,78,76,105,87
2025-02-26 15:13:07.398,48.0,-204.0,307.0,78.0,189.0,237.0,175,76,77,105,88
2025-02-26 15:13:07.401,66.0,-153.0,305.0,101.0,198.0,219.0,172,72,75,101,86
2025-02-26 15:13:07.407,-7.0,-149.0,210.0,114.0,215.0,213.0,174,75,76,106,87
2025-02-26 15:13:07.411,-154.0,-81.0,108.0,115.0,221.0,205.0,174,75,75,103,86
2025-02-26 15:13:07.419,-264.0,128.0,-20.0,116.0,219.0,196.0,173,75,75,103,87
2025-02-26 15:13:07.423,-509.0,234.0,-92.0,99.0,205.0,189.0,170,71,72,100,84
2025-02-26 15:13:07.427,-719.0,399.0,-136.0,83.0,179.0,171.0,174,76,78,105,89
2025-02-26 15:13:07.432,-879.0,471.0,-216.0,75.0,144.0,146.0,175,77,77,105,89
2025-02-26 15:13:07.440,-926.0,550.0,-228.0,60.0,126.0,116.0,171,73,74,103,86
2025-02-26 15:13:07.443,-954.0,568.0,-231.0,46.0,90.0,101.0,175,73,76,104,88
2025-02-26 15:13:07.448,-928.0,552.0,-251.0,38.0,60.0,73.0,171,75,75,105,87
2025-02-26 15:13:07.451,-867.0,522.0,-222.0,35.0,49.0,51.0,176,79,77,106,88
2025-02-26 15:13:07.459,-829.0,480.0,-130.0,30.0,36.0,42.0,172,74,73,101,85
2025-02-26 15:13:07.461,-776.0,418.0,-90.0,31.0,31.0,26.0,175,77,76,105,88
2025-02-26 15:13:07.469,-730.0,354.0,-11.0,33.0,32.0,13.0,172,73,73,103,87
2025-02-26 15:13:07.472,-711.0,307.0,33.0,46.0,35.0,9.0,173,77,75,105,88
2025-02-26 15:13:07.474,-686.0,254.0,41.0,72.0,43.0,8.0,175,77,77,106,89
2025-02-26 15:13:07.481,-710.0,299.0,17.0,91.0,50.0,6.0,173,74,75,104,88
2025-02-26 15:13:07.486,-748.0,630.0,26.0,132.0,56.0,0.0,173,74,74,102,85
2025-02-26 15:13:07.493,-845.0,843.0,-10.0,171.0,63.0,-20.0,174,80,78,107,91
2025-02-26 15:13:07.497,-951.0,1243.0,-132.0,194.0,63.0,-59.0,172,76,74,103,88
2025-02-26 15:13:07.498,-1013.0,1657.0,-358.0,219.0,64.0,-86.0,172,73,74,102,87
2025-02-26 15:13:07.509,-1198.0,1835.0,-519.0,235.0,49.0,-142.0,173,77,75,104,88
2025-02-26 15:13:07.511,-1452.0,2170.0,-872.0,228.0,21.0,-200.0,173,78,77,106,88
2025-02-26 15:13:07.515,-1738.0,2442.0,-1118.0,206.0,0.0,-255.0,173,73,74,103,86
2025-02-26 15:13:07.525,-1810.0,2530.0,-1277.0,172.0,-57.0,-315.0,171,74,73,101,85
2025-02-26 15:13:07.530,-1800.0,2499.0,-1385.0,141.0,-121.0,-348.0,170,73,73,100,86
2025-02-26 15:13:07.534,-1736.0,2290.0,-1392.0,117.0,-183.0,-419.0,173,77,75,102,87
2025-02-26 15:13:07.542,-1572.0,2024.0,-1413.0,113.0,-259.0,-490.0,173,77,76,103,88
2025-02-26 15:13:07.545,-1339.0,1770.0,-1391.0,91.0,-341.0,-550.0,172,76,75,100,87
2025-02-26 15:13:07.551,-836.0,1485.0,-1566.0,66.0,-428.0,-604.0,173,77,74,104,88
2025-02-26 15:13:07.559,-351.0,1691.0,-1459.0,40.0,-521.0,-653.0,174,76,75,103,85
2025-02-26 15:13:07.563,311.0,1784.0,-1413.0,-39.0,-609.0,-702.0,171,75,73,102,88
2025-02-26 15:13:07.570,667.0,1599.0,-1445.0,-141.0,-656.0,-737.0,172,73,70,100,87
2025-02-26 15:13:07.575,1490.0,1079.0,-1571.0,-255.0,-757.0,-731.0,174,76,75,103,91
2025-02-26 15:13:07.579,2440.0,693.0,-1515.0,-375.0,-834.0,-713.0,173,74,71,101,89
2025-02-26 15:13:07.587,3397.0,-438.0,-1055.0,-479.0,-871.0,-655.0,177,75,75,104,91
2025-02-26 15:13:07.589,4274.0,-964.0,-263.0,-597.0,-831.0,-582.0,175,75,75,104,93
2025-02-26 15:13:07.595,5065.0,-2678.0,-13.0,-651.0,-726.0,-486.0,177,79,78,106,94
2025-02-26 15:13:07.603,5428.0,-4472.0,557.0,-625.0,-553.0,-370.0,178,77,78,106,94
2025-02-26 15:13:07.608,5438.0,-5712.0,981.0,-582.0,-346.0,-246.0,176,75,74,104,90
2025-02-26 15:13:07.612,5503.0,-6455.0,1420.0,-457.0,-111.0,-138.0,177,77,77,105,94
2025-02-26 15:13:07.620,5322.0,-6760.0,1324.0,-273.0,-1.0,-51.0,175,75,76,104,92
2025-02-26 15:13:07.624,4698.0,-7550.0,729.0,-52.0,184.0,14.0,175,74,73,103,90
2025-02-26 15:13:07.628,3843.0,-5951.0,193.0,121.0,305.0,45.0,177,76,78,106,92
2025-02-26 15:13:07.636,2430.0,-5271.0,-673.0,227.0,357.0,90.0,180,80,82,106,91
2025-02-26 15:13:07.640,1562.0,-3952.0,-1369.0,306.0,371.0,124.0,177,75,79,105,88
2025-02-26 15:13:07.644,640.0,-3297.0,-1565.0,357.0,308.0,159.0,175,75,77,105,84
2025-02-26 15:13:07.649,781.0,-2194.0,-1745.0,381.0,179.0,184.0,175,76,75,102,82
2025-02-26 15:13:07.656,469.0,-1776.0,-1376.0,216.0,155.0,183.0,178,79,87,107,87
2025-02-26 15:13:07.661,444.0,-671.0,-883.0,52.0,147.0,184.0,177,76,79,105,89
2025-02-26 15:13:07.665,201.0,-881.0,-1192.0,53.0,124.0,160.0,173,74,77,106,88
2025-02-26 15:13:07.673,206.0,-803.0,-710.0,5.0,68.0,148.0,173,72,76,104,89
2025-02-26 15:13:07.674,114.0,-918.0,-736.0,-68.0,33.0,141.0,174,73,79,106,88
2025-02-26 15:13:07.681,62.0,-1455.0,-600.0,-78.0,18.0,137.0,176,76,78,108,92
2025-02-26 15:13:07.686,145.0,-1648.0,-415.0,-57.0,-1.0,132.0,174,75,79,109,92
2025-02-26 15:13:07.693,-25.0,-2168.0,-335.0,-52.0,6.0,144.0,174,75,78,106,91
2025-02-26 15:13:07.698,201.0,-1864.0,-195.0,-29.0,39.0,155.0,175,74,78,108,92
2025-02-26 15:13:07.702,382.0,-2121.0,-143.0,41.0,10.0,145.0,173,72,78,108,91
2025-02-26 15:13:07.706,257.0,-2096.0,111.0,40.0,44.0,160.0,173,73,77,108,91
2025-02-26 15:13:07.714,95.0,-2089.0,146.0,39.0,64.0,207.0,173,73,79,109,91
2025-02-26 15:13:07.718,213.0,-1909.0,460.0,106.0,37.0,199.0,173,74,80,111,92
2025-02-26 15:13:07.722,394.0,-1686.0,369.0,90.0,31.0,246.0,173,76,83,110,91
2025-02-26 15:13:07.727,480.0,-1748.0,409.0,73.0,57.0,253.0,171,74,79,108,90
2025-02-26 15:13:07.734,585.0,-1466.0,375.0,59.0,85.0,253.0,172,77,80,110,91
2025-02-26 15:13:07.738,365.0,-1555.0,480.0,23.0,120.0,269.0,173,80,82,111,94
2025-02-26 15:13:07.743,529.0,-936.0,428.0,-7.0,159.0,261.0,172,80,81,110,89
2025-02-26 15:13:07.747,453.0,-971.0,276.0,-21.0,172.0,268.0,170,79,78,106,89
2025-02-26 15:13:07.753,345.0,-1113.0,509.0,-32.0,198.0,268.0,175,82,84,112,93
2025-02-26 15:13:07.759,195.0,-1051.0,289.0,-4.0,216.0,265.0,172,82,82,113,93
2025-02-26 15:13:07.765,230.0,-597.0,385.0,3.0,217.0,251.0,170,82,83,108,90
2025-02-26 15:13:07.770,351.0,-709.0,146.0,1.0,206.0,260.0,169,79,83,108,89
2025-02-26 15:13:07.776,59.0,-742.0,40.0,36.0,180.0,278.0,173,82,87,111,92
2025-02-26 15:13:07.780,-223.0,-940.0,45.0,57.0,155.0,305.0,171,80,87,109,90
2025-02-26 15:13:07.782,-287.0,-543.0,377.0,42.0,141.0,291.0,168,79,85,107,86
2025-02-26 15:13:07.788,-109.0,-507.0,188.0,3.0,111.0,276.0,170,81,88,109,89
2025-02-26 15:13:07.792,382.0,-880.0,-1.0,16.0,120.0,304.0,169,85,92,111,91
2025-02-26 15:13:07.800,336.0,-801.0,-63.0,31.0,126.0,307.0,166,82,89,108,87
2025-02-26 15:13:07.800,162.0,-635.0,70.0,88.0,115.0,308.0,166,85,91,107,86
2025-02-26 15:13:07.806,185.0,-603.0,18.0,127.0,116.0,309.0,167,88,93,111,89
2025-02-26 15:13:07.812,222.0,-507.0,-38.0,144.0,125.0,305.0,166,88,93,110,89
2025-02-26 15:13:07.820,158.0,-340.0,79.0,171.0,125.0,309.0,164,89,92,109,87
2025-02-26 15:13:07.825,-35.0,-319.0,212.0,197.0,133.0,311.0,165,95,96,112,88
2025-02-26 15:13:07.829,-95.0,-141.0,187.0,195.0,145.0,315.0,164,95,95,111,87
2025-02-26 15:13:07.832,-6.0,-320.0,128.0,197.0,154.0,319.0,163,97,97,112,88
2025-02-26 15:13:07.838,34.0,-297.0,245.0,182.0,180.0,317.0,163,97,95,112,87
2025-02-26 15:13:07.843,-91.0,-21.0,172.0,181.0,190.0,324.0,164,102,97,111,90
2025-02-26 15:13:07.849,-64.0,-91.0,185.0,183.0,199.0,331.0,163,102,98,112,88
2025-02-26 15:13:07.854,-130.0,58.0,21.0,180.0,206.0,336.0,161,104,97,111,88
2025-02-26 15:13:07.861,-167.0,172.0,4.0,168.0,210.0,335.0,163,111,99,113,90
2025-02-26 15:13:07.866,-201.0,210.0,-100.0,160.0,201.0,323.0,161,109,98,113,91
2025-02-26 15:13:07.870,-360.0,270.0,-26.0,168.0,199.0,319.0,161,110,100,112,90
2025-02-26 15:13:07.878,-364.0,182.0,-183.0,187.0,198.0,308.0,161,110,98,112,90
2025-02-26 15:13:07.882,-424.0,310.0,-361.0,205.0,190.0,302.0,158,110,98,112,89
2025-02-26 15:13:07.886,-476.0,386.0,-392.0,219.0,183.0,287.0,160,115,104,116,92
2025-02-26 15:13:07.891,-590.0,521.0,-522.0,237.0,168.0,265.0,162,115,103,115,90
2025-02-26 15:13:07.898,-690.0,649.0,-627.0,243.0,153.0,240.0,162,115,105,115,91
2025-02-26 15:13:07.902,-674.0,674.0,-678.0,264.0,142.0,212.0,160,111,105,110,88
2025-02-26 15:13:07.907,-748.0,851.0,-795.0,268.0,122.0,182.0,160,103,104,93,88
2025-02-26 15:13:07.915,-851.0,951.0,-865.0,270.0,93.0,164.0,164,113,109,110,94
2025-02-26 15:13:07.918,-1079.0,1261.0,-927.0,269.0,60.0,128.0,161,118,107,111,92
2025-02-26 15:13:07.923,-1235.0,1592.0,-1111.0,266.0,16.0,80.0,160,119,108,109,90
2025-02-26 15:13:07.930,-1373.0,1809.0,-1287.0,233.0,-39.0,26.0,162,121,110,111,89
2025-02-26 15:13:07.935,-1419.0,1958.0,-1386.0,193.0,-67.0,-50.0,160,120,111,109,89
2025-02-26 15:13:07.943,-1440.0,2188.0,-1405.0,154.0,-128.0,-139.0,158,122,109,109,88
2025-02-26 15:13:07.945,-1582.0,2145.0,-1349.0,127.0,-188.0,-228.0,158,121,114,106,85
2025-02-26 15:13:07.952,-1581.0,2100.0,-1359.0,107.0,-249.0,-320.0,157,122,109,110,84
2025-02-26 15:13:07.960,-1437.0,2073.0,-1282.0,104.0,-304.0,-410.0,158,124,111,111,84
2025-02-26 15:13:07.965,-1211.0,1895.0,-1211.0,110.0,-359.0,-493.0,157,124,112,109,82
2025-02-26 15:13:07.972,-1139.0,1747.0,-1094.0,109.0,-423.0,-533.0,156,126,113,113,81
2025-02-26 15:13:07.976,-1012.0,1653.0,-1029.0,95.0,-493.0,-602.0,155,131,113,113,81
2025-02-26 15:13:07.981,-781.0,1580.0,-887.0,65.0,-573.0,-662.0,154,128,117,114,83
2025-02-26 15:13:07.988,-173.0,1597.0,-794.0,14.0,-646.0,-717.0,159,131,116,117,85
2025-02-26 15:13:07.993,384.0,1660.0,-717.0,-47.0,-710.0,-765.0,153,131,116,119,87
2025-02-26 15:13:08.001,1151.0,1630.0,-467.0,-135.0,-762.0,-806.0,153,134,120,119,90
2025-02-26 15:13:08.005,1675.0,1336.0,-279.0,-175.0,-815.0,-823.0,151,134,120,119,89
2025-02-26 15:13:08.008,2235.0,948.0,-189.0,-254.0,-860.0,-818.0,151,133,119,117,88
2025-02-26 15:13:08.016,2882.0,27.0,-314.0,-326.0,-886.0,-778.0,150,136,121,119,90
2025-02-26 15:13:08.019,3528.0,-1468.0,66.0,-369.0,-875.0,-698.0,149,138,121,118,89
2025-02-26 15:13:08.025,3633.0,-2934.0,112.0,-338.0,-829.0,-579.0,146,138,120,119,87
2025-02-26 15:13:08.033,3510.0,-3793.0,522.0,-269.0,-736.0,-431.0,147,137,121,117,89
2025-02-26 15:13:08.037,3973.0,-4041.0,629.0,-215.0,-613.0,-282.0,149,142,123,116,88
2025-02-26 15:13:08.046,4162.0,-4082.0,499.0,-142.0,-489.0,-213.0,146,141,123,118,86
2025-02-26 15:13:08.049,4298.0,-4401.0,685.0,-79.0,-352.0,-81.0,147,139,122,117,86
2025-02-26 15:13:08.055,4330.0,-4457.0,915.0,-13.0,-210.0,23.0,151,143,126,120,90
2025-02-26 15:13:08.060,4032.0,-4142.0,968.0,54.0,-75.0,86.0,152,142,125,118,88
2025-02-26 15:13:08.066,3482.0,-3605.0,1120.0,83.0,46.0,111.0,150,142,126,118,87
2025-02-26 15:13:08.071,2863.0,-2998.0,1177.0,127.0,145.0,116.0,153,130,124,115,83
2025-02-26 15:13:08.078,2536.0,-2577.0,1045.0,162.0,179.0,114.0,155,141,123,116,82
2025-02-26 15:13:08.080,1948.0,-2190.0,903.0,172.0,226.0,113.0,148,142,122,113,79
2025-02-26 15:13:08.087,1451.0,-2046.0,651.0,171.0,244.0,115.0,149,140,123,114,78
2025-02-26 15:13:08.092,1065.0,-1833.0,504.0,152.0,236.0,122.0,153,146,126,116,82
2025-02-26 15:13:08.099,808.0,-1693.0,437.0,115.0,215.0,139.0,152,143,125,117,81
2025-02-26 15:13:08.104,610.0,-1556.0,365.0,94.0,186.0,159.0,152,142,124,113,79
2025-02-26 15:13:08.110,499.0,-1474.0,323.0,49.0,171.0,183.0,150,142,123,113,79
