timestamp,ax,ay,az,gx,gy,gz,flex1,flex2,flex3,flex4,flex5,emg1,emg2,emg3
2025-02-26 15:15:32.861,-355.0,-131.0,949.0,-1.0,-1.0,-1.0,173,149,146,164,158
2025-02-26 15:15:32.862,-358.0,-133.0,948.0,0.0,-1.0,-1.0,169,141,139,156,151
2025-02-26 15:15:32.866,-355.0,-127.0,952.0,0.0,-2.0,-1.0,167,145,139,156,151
2025-02-26 15:15:32.868,-355.0,-128.0,952.0,0.0,-2.0,-1.0,168,145,141,158,153
2025-02-26 15:15:32.870,-361.0,-129.0,956.0,0.0,-2.0,-1.0,168,145,143,160,154
2025-02-26 15:15:32.873,-359.0,-125.0,959.0,-1.0,-2.0,-1.0,168,145,143,161,155
2025-02-26 15:15:32.875,-358.0,-126.0,960.0,-1.0,-2.0,-1.0,169,145,142,159,154
2025-02-26 15:15:32.878,-357.0,-130.0,958.0,-1.0,-2.0,-1.0,164,140,138,154,150
2025-02-26 15:15:32.879,-355.0,-129.0,966.0,-2.0,-2.0,-1.0,169,144,142,158,153
2025-02-26 15:15:32.879,-358.0,-134.0,964.0,-1.0,-2.0,-1.0,169,146,144,161,155
2025-02-26 15:15:32.879,-355.0,-135.0,963.0,-1.0,-2.0,-1.0,165,140,138,153,149
2025-02-26 15:15:32.886,-355.0,-137.0,965.0,-2.0,-2.0,-1.0,167,143,141,157,152
2025-02-26 15:15:32.886,-348.0,-136.0,962.0,-1.0,-2.0,-1.0,169,145,142,159,153
2025-02-26 15:15:32.886,-355.0,-139.0,959.0,-1.0,-1.0,-1.0,164,142,139,156,150
2025-02-26 15:15:32.886,-352.0,-139.0,961.0,-1.0,-1.0,-1.0,170,145,142,159,153
2025-02-26 15:15:32.886,-356.0,-138.0,960.0,0.0,-1.0,-1.0,169,144,142,159,152
2025-02-26 15:15:32.898,-355.0,-136.0,965.0,0.0,-1.0,-1.0,164,141,138,154,149
2025-02-26 15:15:32.898,-352.0,-133.0,960.0,0.0,-1.0,-1.0,169,145,143,162,154
2025-02-26 15:15:32.898,-356.0,-132.0,960.0,0.0,-1.0,-1.0,168,145,143,161,155
2025-02-26 15:15:32.904,-353.0,-132.0,960.0,0.0,-1.0,-1.0,164,140,138,151,150
2025-02-26 15:15:32.904,-358.0,-127.0,963.0,0.0,-1.0,-1.0,168,144,143,160,154
2025-02-26 15:15:32.904,-362.0,-134.0,963.0,0.0,0.0,-1.0,167,146,143,157,153
2025-02-26 15:15:32.904,-361.0,-133.0,965.0,0.0,-1.0,0.0,164,140,137,155,149
2025-02-26 15:15:32.913,-358.0,-129.0,966.0,-1.0,-1.0,0.0,169,145,142,159,153
2025-02-26 15:15:32.915,-356.0,-130.0,966.0,-1.0,-2.0,0.0,167,142,140,158,153
2025-02-26 15:15:32.916,-359.0,-125.0,971.0,-2.0,-2.0,0.0,165,141,139,156,152
2025-02-26 15:15:32.916,-357.0,-125.0,973.0,-2.0,-2.0,0.0,162,138,137,153,148
2025-02-26 15:15:32.922,-355.0,-125.0,978.0,-3.0,-2.0,0.0,167,144,144,159,154
2025-02-26 15:15:32.922,-353.0,-127.0,976.0,-3.0,-1.0,-1.0,166,142,140,158,152
2025-02-26 15:15:32.922,-357.0,-127.0,981.0,-3.0,-1.0,-1.0,166,142,139,155,150
2025-02-26 15:15:32.922,-350.0,-130.0,984.0,-3.0,0.0,-1.0,163,139,140,154,149
2025-02-26 15:15:32.922,-347.0,-131.0,984.0,-3.0,1.0,-1.0,167,144,142,158,153
2025-02-26 15:15:32.922,-354.0,-135.0,980.0,-3.0,1.0,-1.0,168,144,141,158,153
2025-02-26 15:15:32.934,-355.0,-133.0,975.0,-2.0,2.0,-1.0,165,142,138,157,150
2025-02-26 15:15:32.937,-354.0,-134.0,976.0,-2.0,2.0,-1.0,163,139,137,153,148
2025-02-26 15:15:32.938,-354.0,-132.0,972.0,-1.0,2.0,0.0,167,144,142,158,154
2025-02-26 15:15:32.938,-355.0,-136.0,970.0,-1.0,2.0,-1.0,173,149,146,163,157
2025-02-26 15:15:32.938,-356.0,-134.0,962.0,-1.0,2.0,-1.0,164,141,138,155,149
2025-02-26 15:15:32.938,-359.0,-132.0,957.0,-2.0,2.0,-1.0,168,145,142,160,154
2025-02-26 15:15:32.951,-362.0,-130.0,955.0,-2.0,1.0,-1.0,167,144,139,159,153
2025-02-26 15:15:32.954,-356.0,-129.0,951.0,-2.0,1.0,-1.0,171,147,147,163,157
2025-02-26 15:15:32.963,-359.0,-128.0,948.0,-3.0,1.0,0.0,163,140,137,153,149
2025-02-26 15:15:32.964,-358.0,-130.0,947.0,-3.0,1.0,0.0,169,145,142,159,154
2025-02-26 15:15:32.971,-356.0,-132.0,948.0,-3.0,0.0,0.0,166,141,141,159,153
2025-02-26 15:15:32.979,-358.0,-135.0,947.0,-3.0,0.0,0.0,166,143,141,158,152
2025-02-26 15:15:32.983,-361.0,-134.0,949.0,-3.0,0.0,0.0,164,141,138,152,150
2025-02-26 15:15:32.983,-357.0,-134.0,951.0,-3.0,0.0,0.0,168,145,143,158,154
2025-02-26 15:15:32.992,-355.0,-133.0,952.0,-3.0,0.0,0.0,165,142,140,157,152
2025-02-26 15:15:32.995,-352.0,-137.0,952.0,-2.0,0.0,-1.0,168,144,141,157,153
2025-02-26 15:15:33.004,-350.0,-138.0,957.0,-1.0,0.0,-1.0,169,145,143,160,155
2025-02-26 15:15:33.007,-356.0,-137.0,955.0,-1.0,0.0,-1.0,168,144,142,160,154
2025-02-26 15:15:33.012,-358.0,-139.0,957.0,-1.0,1.0,0.0,163,140,138,155,149
2025-02-26 15:15:33.020,-355.0,-134.0,958.0,0.0,1.0,0.0,166,142,139,155,150
2025-02-26 15:15:33.024,-360.0,-128.0,956.0,0.0,1.0,0.0,169,145,143,160,155
2025-02-26 15:15:33.029,-355.0,-131.0,954.0,0.0,1.0,0.0,167,143,140,157,153
2025-02-26 15:15:33.033,-355.0,-126.0,957.0,0.0,1.0,0.0,163,141,138,155,149
2025-02-26 15:15:33.037,-360.0,-125.0,954.0,-1.0,1.0,0.0,170,147,142,162,157
2025-02-26 15:15:33.044,-358.0,-127.0,950.0,-1.0,1.0,-1.0,167,145,141,158,153
2025-02-26 15:15:33.049,-355.0,-128.0,947.0,-1.0,1.0,-1.0,165,139,142,154,148
2025-02-26 15:15:33.054,-356.0,-129.0,948.0,-1.0,0.0,-1.0,165,141,138,156,150
2025-02-26 15:15:33.058,-361.0,-129.0,946.0,-1.0,0.0,0.0,170,147,144,162,156
2025-02-26 15:15:33.065,-359.0,-129.0,947.0,-1.0,0.0,0.0,168,144,141,159,153
2025-02-26 15:15:33.069,-363.0,-132.0,944.0,-1.0,0.0,0.0,163,139,136,153,148
2025-02-26 15:15:33.074,-361.0,-136.0,944.0,-1.0,-1.0,0.0,168,143,141,159,153
2025-02-26 15:15:33.078,-362.0,-133.0,942.0,-1.0,-1.0,0.0,171,147,144,161,156
2025-02-26 15:15:33.084,-360.0,-132.0,947.0,-1.0,-1.0,0.0,166,140,137,155,150
2025-02-26 15:15:33.090,-365.0,-131.0,948.0,-1.0,-1.0,0.0,162,139,135,149,147
2025-02-26 15:15:33.094,-365.0,-138.0,948.0,-1.0,-1.0,0.0,169,144,141,159,154
2025-02-26 15:15:33.098,-363.0,-132.0,947.0,0.0,-1.0,0.0,166,144,142,161,150
2025-02-26 15:15:33.106,-363.0,-130.0,950.0,0.0,-1.0,0.0,163,141,139,156,150
2025-02-26 15:15:33.110,-369.0,-129.0,947.0,0.0,-1.0,0.0,170,144,140,157,151
2025-02-26 15:15:33.115,-365.0,-127.0,953.0,0.0,-1.0,0.0,168,144,142,158,153
2025-02-26 15:15:33.119,-367.0,-125.0,950.0,0.0,-1.0,-1.0,166,142,140,156,151
2025-02-26 15:15:33.127,-364.0,-126.0,951.0,0.0,-1.0,-1.0,165,140,138,155,150
2025-02-26 15:15:33.130,-361.0,-122.0,957.0,0.0,-1.0,-1.0,169,145,142,160,152
2025-02-26 15:15:33.135,-359.0,-121.0,957.0,0.0,-1.0,-1.0,168,144,143,159,154
2025-02-26 15:15:33.140,-364.0,-125.0,956.0,0.0,0.0,-1.0,165,141,139,155,150
2025-02-26 15:15:33.147,-363.0,-124.0,954.0,0.0,0.0,-1.0,163,139,136,153,148
2025-02-26 15:15:33.151,-361.0,-123.0,951.0,-1.0,0.0,-1.0,167,144,141,158,154
2025-02-26 15:15:33.155,-364.0,-120.0,951.0,-1.0,0.0,-1.0,166,142,139,157,151
2025-02-26 15:15:33.160,-365.0,-119.0,951.0,-1.0,0.0,-2.0,164,141,138,155,150
2025-02-26 15:15:33.167,-363.0,-122.0,947.0,-1.0,-1.0,-2.0,166,142,140,156,151
2025-02-26 15:15:33.171,-365.0,-122.0,951.0,-2.0,-1.0,-2.0,166,142,142,159,153
2025-02-26 15:15:33.176,-363.0,-131.0,946.0,-2.0,-1.0,-2.0,166,143,141,158,152
2025-02-26 15:15:33.180,-366.0,-131.0,948.0,-2.0,-1.0,-2.0,166,141,139,156,150
2025-02-26 15:15:33.188,-364.0,-131.0,941.0,-2.0,-1.0,-1.0,162,139,137,155,149
2025-02-26 15:15:33.192,-365.0,-130.0,937.0,-2.0,-1.0,-1.0,168,143,141,159,153
2025-02-26 15:15:33.196,-356.0,-136.0,942.0,-2.0,-1.0,-2.0,173,149,147,164,159
2025-02-26 15:15:33.205,-362.0,-136.0,940.0,-2.0,-2.0,-2.0,165,141,139,155,152
2025-02-26 15:15:33.209,-360.0,-136.0,943.0,-1.0,-2.0,-2.0,164,141,137,155,150
2025-02-26 15:15:33.213,-362.0,-137.0,939.0,-1.0,-2.0,-2.0,168,144,140,159,153
2025-02-26 15:15:33.217,-365.0,-138.0,936.0,0.0,-2.0,-2.0,170,148,144,162,157
2025-02-26 15:15:33.225,-362.0,-138.0,942.0,0.0,-2.0,-2.0,166,143,140,158,152
2025-02-26 15:15:33.228,-366.0,-130.0,944.0,0.0,-3.0,-2.0,164,140,137,154,149
2025-02-26 15:15:33.234,-365.0,-134.0,944.0,0.0,-3.0,-2.0,165,144,141,158,153
2025-02-26 15:15:33.238,-365.0,-133.0,942.0,0.0,-3.0,-2.0,171,146,144,161,155
2025-02-26 15:15:33.245,-367.0,-130.0,948.0,0.0,-3.0,-2.0,164,140,139,157,151
2025-02-26 15:15:33.250,-368.0,-133.0,947.0,0.0,-4.0,-2.0,164,141,138,154,149
2025-02-26 15:15:33.254,-361.0,-132.0,956.0,0.0,-4.0,-2.0,167,144,141,158,153
2025-02-26 15:15:33.258,-362.0,-132.0,958.0,0.0,-4.0,-2.0,162,146,143,158,155
2025-02-26 15:15:33.266,-357.0,-132.0,958.0,0.0,-4.0,-1.0,166,142,139,156,151
2025-02-26 15:15:33.270,-355.0,-133.0,964.0,0.0,-4.0,-1.0,165,138,135,154,148
2025-02-26 15:15:33.275,-358.0,-133.0,968.0,0.0,-4.0,-1.0,170,144,142,159,152
2025-02-26 15:15:33.279,-355.0,-134.0,976.0,0.0,-4.0,-1.0,163,145,142,157,153
2025-02-26 15:15:33.286,-358.0,-131.0,977.0,-1.0,-4.0,0.0,164,140,138,154,150
2025-02-26 15:15:33.291,-361.0,-131.0,980.0,-1.0,-4.0,0.0,163,138,135,152,147
2025-02-26 15:15:33.295,-353.0,-123.0,982.0,-2.0,-4.0,0.0,168,145,141,159,153
2025-02-26 15:15:33.300,-361.0,-115.0,980.0,-2.0,-4.0,0.0,168,146,141,158,151
2025-02-26 15:15:33.307,-365.0,-120.0,974.0,-4.0,-4.0,0.0,162,140,136,155,149
2025-02-26 15:15:33.311,-363.0,-115.0,975.0,-4.0,-5.0,-1.0,166,142,140,159,151
2025-02-26 15:15:33.316,-363.0,-116.0,975.0,-4.0,-5.0,-1.0,168,144,142,159,153
2025-02-26 15:15:33.323,-368.0,-111.0,964.0,-4.0,-4.0,-1.0,166,143,140,157,152
2025-02-26 15:15:33.327,-362.0,-111.0,956.0,-4.0,-4.0,-1.0,165,141,137,155,149
2025-02-26 15:15:33.332,-367.0,-109.0,964.0,-4.0,-4.0,-1.0,162,139,135,153,147
2025-02-26 15:15:33.336,-365.0,-113.0,952.0,-4.0,-4.0,-2.0,172,149,147,163,158
2025-02-26 15:15:33.343,-358.0,-109.0,956.0,-4.0,-3.0,-2.0,171,145,143,160,154
2025-02-26 15:15:33.347,-366.0,-115.0,954.0,-4.0,-2.0,-1.0,164,140,137,155,149
2025-02-26 15:15:33.352,-362.0,-123.0,943.0,-4.0,-3.0,0.0,163,139,136,154,149
2025-02-26 15:15:33.356,-364.0,-123.0,942.0,-4.0,-2.0,0.0,171,148,146,159,158
2025-02-26 15:15:33.364,-365.0,-108.0,944.0,-3.0,-2.0,-1.0,170,146,144,160,154
2025-02-26 15:15:33.368,-367.0,-122.0,940.0,-3.0,-2.0,-1.0,165,140,137,154,149
2025-02-26 15:15:33.373,-368.0,-115.0,925.0,-1.0,-3.0,-2.0,164,139,137,154,152
2025-02-26 15:15:33.381,-379.0,-106.0,922.0,0.0,-5.0,-2.0,169,146,144,162,156
2025-02-26 15:15:33.383,-375.0,-111.0,932.0,0.0,-6.0,-2.0,169,146,142,160,154
2025-02-26 15:15:33.388,-370.0,-109.0,931.0,0.0,-7.0,-3.0,165,139,137,155,150
2025-02-26 15:15:33.394,-373.0,-119.0,931.0,0.0,-7.0,-3.0,164,140,137,155,149
2025-02-26 15:15:33.400,-369.0,-124.0,936.0,0.0,-8.0,-3.0,170,145,145,161,155
2025-02-26 15:15:33.405,-370.0,-126.0,932.0,0.0,-8.0,-4.0,170,146,143,159,154
2025-02-26 15:15:33.410,-360.0,-135.0,947.0,0.0,-8.0,-4.0,164,139,141,153,149
2025-02-26 15:15:33.414,-357.0,-146.0,965.0,0.0,-8.0,-4.0,164,140,137,153,148
2025-02-26 15:15:33.420,-355.0,-145.0,955.0,1.0,-8.0,-5.0,169,145,143,160,156
2025-02-26 15:15:33.426,-347.0,-145.0,965.0,1.0,-8.0,-5.0,167,144,141,158,153
2025-02-26 15:15:33.430,-346.0,-149.0,977.0,2.0,-8.0,-5.0,164,141,138,155,150
2025-02-26 15:15:33.434,-342.0,-159.0,986.0,3.0,-8.0,-5.0,163,139,135,153,148
2025-02-26 15:15:33.438,-340.0,-149.0,985.0,3.0,-7.0,-5.0,168,144,143,161,155
2025-02-26 15:15:33.446,-340.0,-154.0,995.0,3.0,-6.0,-4.0,167,143,140,157,152
2025-02-26 15:15:33.450,-332.0,-146.0,1002.0,3.0,-6.0,-4.0,163,140,138,155,149
2025-02-26 15:15:33.455,-336.0,-149.0,1008.0,2.0,-5.0,-4.0,161,139,135,152,147
2025-02-26 15:15:33.463,-338.0,-147.0,1001.0,2.0,-4.0,-4.0,169,147,142,160,154
2025-02-26 15:15:33.467,-336.0,-142.0,1011.0,2.0,-2.0,-3.0,166,142,143,158,152
2025-02-26 15:15:33.468,-341.0,-148.0,1008.0,0.0,-2.0,-3.0,163,140,136,155,149
2025-02-26 15:15:33.475,-345.0,-144.0,1003.0,0.0,-1.0,-3.0,168,145,143,160,154
2025-02-26 15:15:33.481,-341.0,-144.0,999.0,-1.0,0.0,-3.0,169,146,143,160,154
2025-02-26 15:15:33.487,-339.0,-152.0,999.0,-2.0,0.0,-3.0,168,144,142,160,154
2025-02-26 15:15:33.492,-338.0,-152.0,993.0,-2.0,1.0,-3.0,163,140,137,154,149
2025-02-26 15:15:33.499,-340.0,-154.0,983.0,-2.0,1.0,-2.0,169,145,143,159,154
2025-02-26 15:15:33.504,-342.0,-156.0,982.0,-2.0,2.0,-2.0,170,147,143,161,154
2025-02-26 15:15:33.507,-342.0,-164.0,977.0,-3.0,2.0,-1.0,167,142,141,158,152
2025-02-26 15:15:33.511,-342.0,-161.0,971.0,-3.0,3.0,-1.0,165,141,138,154,150
2025-02-26 15:15:33.517,-351.0,-160.0,966.0,-2.0,3.0,-1.0,167,142,139,155,150
2025-02-26 15:15:33.524,-350.0,-160.0,962.0,-2.0,2.0,-1.0,169,145,142,160,154
2025-02-26 15:15:33.528,-352.0,-158.0,952.0,-2.0,2.0,-1.0,167,141,138,155,151
2025-02-26 15:15:33.529,-351.0,-167.0,956.0,-2.0,2.0,0.0,163,139,136,155,149
2025-02-26 15:15:33.540,-349.0,-161.0,957.0,-1.0,2.0,0.0,171,145,143,160,154
2025-02-26 15:15:33.543,-361.0,-154.0,941.0,0.0,2.0,0.0,168,145,141,159,154
2025-02-26 15:15:33.546,-353.0,-162.0,952.0,0.0,2.0,0.0,162,140,137,154,148
2025-02-26 15:15:33.553,-359.0,-157.0,922.0,0.0,1.0,0.0,161,137,135,152,147
2025-02-26 15:15:33.557,-360.0,-158.0,968.0,2.0,2.0,0.0,171,147,144,162,156
2025-02-26 15:15:33.565,-348.0,-130.0,926.0,1.0,1.0,0.0,165,142,139,155,149
2025-02-26 15:15:33.569,-355.0,-135.0,937.0,0.0,2.0,0.0,163,139,136,153,147
2025-02-26 15:15:33.573,-356.0,-139.0,925.0,0.0,1.0,0.0,165,145,141,158,153
2025-02-26 15:15:33.578,-344.0,-144.0,958.0,0.0,2.0,-1.0,170,146,143,161,155
2025-02-26 15:15:33.584,-355.0,-127.0,951.0,-1.0,2.0,-1.0,164,140,137,154,149
2025-02-26 15:15:33.590,-364.0,-127.0,942.0,-1.0,2.0,-1.0,169,144,142,157,153
2025-02-26 15:15:33.591,-350.0,-120.0,945.0,-2.0,2.0,-1.0,168,144,141,158,153
2025-02-26 15:15:33.598,-363.0,-140.0,932.0,-1.0,0.0,-1.0,166,142,140,158,151
2025-02-26 15:15:33.602,-355.0,-134.0,937.0,-2.0,0.0,-1.0,165,141,140,155,150
2025-02-26 15:15:33.610,-353.0,-130.0,936.0,-2.0,0.0,-1.0,169,145,143,160,155
2025-02-26 15:15:33.614,-353.0,-135.0,936.0,-1.0,0.0,-1.0,170,147,144,161,156
2025-02-26 15:15:33.619,-353.0,-138.0,929.0,0.0,0.0,-1.0,168,144,142,159,153
2025-02-26 15:15:33.626,-355.0,-134.0,930.0,1.0,0.0,-1.0,166,141,139,156,151
2025-02-26 15:15:33.631,-347.0,-137.0,929.0,2.0,0.0,-1.0,172,149,145,162,155
2025-02-26 15:15:33.632,-347.0,-130.0,931.0,2.0,0.0,-1.0,171,147,144,161,155
2025-02-26 15:15:33.639,-349.0,-128.0,928.0,3.0,0.0,-1.0,168,144,141,162,153
2025-02-26 15:15:33.643,-350.0,-129.0,933.0,4.0,-1.0,-1.0,173,149,147,163,159
2025-02-26 15:15:33.651,-351.0,-129.0,924.0,4.0,-1.0,-2.0,172,149,146,165,156
2025-02-26 15:15:33.655,-347.0,-120.0,931.0,4.0,-2.0,-2.0,168,144,143,158,153
2025-02-26 15:15:33.659,-343.0,-121.0,935.0,4.0,-2.0,-2.0,169,148,144,162,156
2025-02-26 15:15:33.663,-352.0,-109.0,939.0,4.0,-2.0,-2.0,172,150,147,163,163
2025-02-26 15:15:33.671,-352.0,-111.0,936.0,4.0,-3.0,-3.0,171,149,145,163,157
2025-02-26 15:15:33.674,-346.0,-112.0,940.0,4.0,-3.0,-3.0,167,143,142,156,153
2025-02-26 15:15:33.680,-348.0,-109.0,945.0,4.0,-3.0,-3.0,166,142,141,159,153
2025-02-26 15:15:33.687,-346.0,-109.0,952.0,4.0,-2.0,-3.0,173,151,147,163,158
2025-02-26 15:15:33.691,-342.0,-110.0,950.0,3.0,-1.0,-4.0,170,148,143,162,155
2025-02-26 15:15:33.696,-345.0,-84.0,935.0,1.0,-2.0,-3.0,167,143,141,159,154
2025-02-26 15:15:33.700,-343.0,-101.0,936.0,4.0,-2.0,-3.0,171,146,144,160,157
2025-02-26 15:15:33.708,-344.0,-125.0,955.0,4.0,-1.0,-3.0,173,149,146,162,157
2025-02-26 15:15:33.712,-336.0,-112.0,943.0,4.0,-3.0,-3.0,171,147,144,160,155
2025-02-26 15:15:33.716,-341.0,-112.0,959.0,4.0,-3.0,-3.0,166,144,141,158,152
2025-02-26 15:15:33.721,-347.0,-106.0,964.0,4.0,-3.0,-3.0,174,148,146,164,158
2025-02-26 15:15:33.728,-341.0,-105.0,965.0,3.0,-3.0,-3.0,171,148,146,162,157
2025-02-26 15:15:33.731,-336.0,-103.0,962.0,3.0,-3.0,-4.0,170,146,143,160,155
2025-02-26 15:15:33.737,-336.0,-107.0,964.0,2.0,-3.0,-4.0,171,148,145,162,157
2025-02-26 15:15:33.741,-341.0,-103.0,964.0,2.0,-4.0,-4.0,173,149,147,163,158
2025-02-26 15:15:33.749,-331.0,-107.0,965.0,2.0,-3.0,-4.0,173,148,145,162,157
2025-02-26 15:15:33.753,-329.0,-112.0,971.0,2.0,-3.0,-4.0,168,144,140,158,152
2025-02-26 15:15:33.758,-333.0,-115.0,975.0,2.0,-2.0,-4.0,172,147,146,163,158
2025-02-26 15:15:33.762,-332.0,-117.0,976.0,2.0,0.0,-4.0,174,149,146,164,159
2025-02-26 15:15:33.770,-333.0,-120.0,970.0,2.0,0.0,-4.0,170,147,146,163,157
2025-02-26 15:15:33.774,-331.0,-126.0,970.0,4.0,1.0,-4.0,168,142,141,158,152
2025-02-26 15:15:33.778,-333.0,-125.0,967.0,5.0,2.0,-4.0,173,149,145,163,157
2025-02-26 15:15:33.782,-340.0,-123.0,960.0,5.0,2.0,-4.0,174,149,146,163,158
2025-02-26 15:15:33.787,-345.0,-123.0,955.0,6.0,3.0,-5.0,168,144,143,160,156
2025-02-26 15:15:33.795,-343.0,-121.0,948.0,6.0,3.0,-5.0,166,143,141,158,153
2025-02-26 15:15:33.799,-352.0,-122.0,942.0,5.0,3.0,-6.0,179,152,149,167,160
2025-02-26 15:15:33.803,-355.0,-113.0,939.0,5.0,3.0,-6.0,172,148,145,163,157
2025-02-26 15:15:33.807,-360.0,-120.0,939.0,5.0,3.0,-6.0,167,145,141,157,152
2025-02-26 15:15:33.815,-360.0,-115.0,935.0,3.0,3.0,-6.0,170,148,143,160,155
2025-02-26 15:15:33.818,-358.0,-119.0,936.0,2.0,3.0,-6.0,175,151,148,165,160
2025-02-26 15:15:33.823,-358.0,-125.0,937.0,1.0,3.0,-6.0,169,146,143,157,154
2025-02-26 15:15:33.829,-355.0,-125.0,941.0,-1.0,2.0,-6.0,167,144,142,158,153
2025-02-26 15:15:33.836,-355.0,-125.0,940.0,-1.0,1.0,-7.0,172,148,146,162,158
2025-02-26 15:15:33.838,-358.0,-133.0,944.0,-3.0,1.0,-7.0,172,149,148,162,159
2025-02-26 15:15:33.844,-334.0,-134.0,928.0,-2.0,0.0,-6.0,168,145,142,160,154
2025-02-26 15:15:33.849,-355.0,-157.0,941.0,0.0,0.0,-6.0,165,141,139,156,151
2025-02-26 15:15:33.855,-349.0,-163.0,931.0,0.0,-1.0,-7.0,171,148,145,161,157
2025-02-26 15:15:33.860,-344.0,-157.0,929.0,1.0,-1.0,-7.0,171,148,146,162,157
2025-02-26 15:15:33.862,-343.0,-147.0,939.0,3.0,-1.0,-7.0,168,144,142,161,154
2025-02-26 15:15:33.868,-352.0,-158.0,937.0,3.0,-1.0,-6.0,168,146,142,158,154
2025-02-26 15:15:33.875,-354.0,-167.0,939.0,5.0,-1.0,-6.0,171,147,145,163,156
2025-02-26 15:15:33.881,-346.0,-147.0,939.0,5.0,-1.0,-6.0,173,150,146,165,157
2025-02-26 15:15:33.881,-343.0,-146.0,938.0,6.0,-2.0,-6.0,168,143,141,158,153
2025-02-26 15:15:33.888,-362.0,-154.0,943.0,3.0,-2.0,-6.0,171,149,145,161,158
2025-02-26 15:15:33.897,-347.0,-146.0,942.0,4.0,-3.0,-7.0,171,148,146,162,158
2025-02-26 15:15:33.900,-356.0,-142.0,955.0,4.0,-3.0,-8.0,171,147,145,162,156
2025-02-26 15:15:33.905,-350.0,-147.0,948.0,4.0,-3.0,-8.0,168,144,142,160,153
2025-02-26 15:15:33.909,-346.0,-138.0,947.0,3.0,-4.0,-9.0,172,148,145,162,154
2025-02-26 15:15:33.917,-347.0,-136.0,949.0,3.0,-4.0,-9.0,173,149,145,163,157
2025-02-26 15:15:33.921,-339.0,-138.0,951.0,2.0,-4.0,-9.0,168,145,143,159,153
2025-02-26 15:15:33.926,-340.0,-146.0,955.0,3.0,-4.0,-9.0,169,146,142,159,154
2025-02-26 15:15:33.930,-338.0,-141.0,956.0,3.0,-4.0,-9.0,173,148,145,163,158
2025-02-26 15:15:33.937,-333.0,-141.0,958.0,4.0,-5.0,-8.0,172,148,146,163,158
2025-02-26 15:15:33.942,-331.0,-135.0,956.0,4.0,-5.0,-8.0,168,146,142,159,154
2025-02-26 15:15:33.946,-324.0,-131.0,963.0,4.0,-5.0,-8.0,166,142,140,157,153
2025-02-26 15:15:33.951,-330.0,-132.0,965.0,3.0,-5.0,-7.0,171,148,145,161,157
2025-02-26 15:15:33.958,-322.0,-149.0,977.0,5.0,-4.0,-7.0,174,152,151,166,161
2025-02-26 15:15:33.962,-325.0,-155.0,964.0,5.0,-5.0,-7.0,169,145,143,159,154
2025-02-26 15:15:33.967,-326.0,-147.0,975.0,7.0,-4.0,-6.0,166,142,140,156,150
2025-02-26 15:15:33.974,-335.0,-148.0,969.0,9.0,-4.0,-6.0,170,147,145,163,157
2025-02-26 15:15:33.979,-332.0,-151.0,974.0,10.0,-4.0,-6.0,173,151,149,167,161
2025-02-26 15:15:33.983,-331.0,-147.0,968.0,12.0,-4.0,-5.0,169,145,143,161,154
2025-02-26 15:15:33.987,-339.0,-140.0,967.0,14.0,-5.0,-5.0,165,142,140,156,151
2025-02-26 15:15:33.995,-339.0,-130.0,965.0,16.0,-5.0,-5.0,171,148,143,163,157
2025-02-26 15:15:33.996,-339.0,-105.0,961.0,17.0,-6.0,-6.0,174,151,149,165,160
2025-02-26 15:15:34.004,-346.0,-94.0,967.0,16.0,-7.0,-7.0,169,146,142,160,154
2025-02-26 15:15:34.008,-345.0,-79.0,976.0,16.0,-7.0,-7.0,168,142,141,159,152
2025-02-26 15:15:34.015,-347.0,-76.0,959.0,14.0,-8.0,-8.0,172,149,145,162,156
2025-02-26 15:15:34.020,-331.0,-78.0,965.0,14.0,-8.0,-9.0,173,149,147,162,158
2025-02-26 15:15:34.024,-337.0,-94.0,963.0,13.0,-9.0,-10.0,168,146,142,160,154
2025-02-26 15:15:34.028,-337.0,-108.0,989.0,13.0,-10.0,-9.0,166,143,141,158,155
2025-02-26 15:15:34.036,-313.0,-104.0,979.0,11.0,-10.0,-9.0,172,149,146,163,157
2025-02-26 15:15:34.038,-326.0,-117.0,977.0,10.0,-10.0,-8.0,172,147,147,163,157
2025-02-26 15:15:34.045,-318.0,-120.0,975.0,10.0,-11.0,-8.0,170,148,144,163,156
2025-02-26 15:15:34.050,-320.0,-130.0,983.0,10.0,-11.0,-7.0,165,141,137,155,149
2025-02-26 15:15:34.056,-310.0,-118.0,996.0,10.0,-10.0,-7.0,164,141,138,154,148
2025-02-26 15:15:34.061,-316.0,-115.0,995.0,10.0,-12.0,-6.0,170,147,144,162,155
2025-02-26 15:15:34.069,-310.0,-104.0,1000.0,8.0,-12.0,-6.0,168,147,142,159,155
2025-02-26 15:15:34.073,-317.0,-111.0,1000.0,8.0,-11.0,-5.0,167,146,142,159,153
2025-02-26 15:15:34.077,-310.0,-107.0,1014.0,7.0,-11.0,-6.0,169,146,144,160,155
2025-02-26 15:15:34.081,-309.0,-110.0,1015.0,8.0,-10.0,-6.0,164,142,139,155,149
2025-02-26 15:15:34.089,-306.0,-112.0,1010.0,9.0,-8.0,-6.0,167,143,143,161,154
2025-02-26 15:15:34.094,-312.0,-106.0,1003.0,9.0,-8.0,-6.0,169,145,143,160,154
2025-02-26 15:15:34.098,-320.0,-107.0,1012.0,9.0,-6.0,-6.0,167,145,142,159,154
2025-02-26 15:15:34.105,-322.0,-125.0,992.0,9.0,-6.0,-6.0,165,143,140,156,150
2025-02-26 15:15:34.109,-317.0,-105.0,1000.0,9.0,-6.0,-6.0,168,146,143,160,154
2025-02-26 15:15:34.114,-327.0,-96.0,1003.0,9.0,-6.0,-6.0,169,146,142,159,154
2025-02-26 15:15:34.117,-334.0,-89.0,1001.0,8.0,-6.0,-6.0,165,145,142,158,153
2025-02-26 15:15:34.125,-333.0,-99.0,992.0,9.0,-6.0,-5.0,165,144,141,157,151
2025-02-26 15:15:34.129,-337.0,-104.0,969.0,11.0,-8.0,-5.0,168,147,143,159,154
2025-02-26 15:15:34.135,-334.0,-101.0,988.0,5.0,-4.0,-5.0,167,146,143,158,154
2025-02-26 15:15:34.139,-330.0,-105.0,942.0,6.0,-6.0,-5.0,165,144,145,158,152
2025-02-26 15:15:34.147,-324.0,-109.0,998.0,7.0,-4.0,-5.0,166,142,140,158,152
2025-02-26 15:15:34.151,-337.0,-119.0,977.0,7.0,-3.0,-5.0,166,146,143,157,153
2025-02-26 15:15:34.154,-337.0,-103.0,987.0,8.0,-3.0,-4.0,167,145,142,160,153
2025-02-26 15:15:34.160,-347.0,-97.0,992.0,9.0,-3.0,-5.0,160,144,141,157,152
2025-02-26 15:15:34.166,-348.0,-81.0,961.0,10.0,-3.0,-5.0,164,142,139,155,149
2025-02-26 15:15:34.171,-358.0,-86.0,980.0,9.0,-4.0,-5.0,163,146,143,156,154
2025-02-26 15:15:34.176,-371.0,-84.0,960.0,9.0,-6.0,-5.0,167,145,141,158,152
2025-02-26 15:15:34.179,-358.0,-80.0,991.0,8.0,-6.0,-5.0,163,142,138,154,149
2025-02-26 15:15:34.184,-354.0,-66.0,968.0,9.0,-6.0,-5.0,199,178,175,192,186
2025-02-26 15:15:34.191,-346.0,-71.0,976.0,8.0,-8.0,-5.0,195,173,171,189,181
2025-02-26 15:15:34.196,-356.0,-90.0,940.0,13.0,-10.0,-4.0,178,158,154,171,165
2025-02-26 15:15:34.200,-334.0,-107.0,960.0,14.0,-10.0,-4.0,182,160,156,174,169
2025-02-26 15:15:34.208,-339.0,-75.0,939.0,13.0,-11.0,-5.0,191,168,167,182,177
2025-02-26 15:15:34.213,-350.0,-82.0,987.0,10.0,-13.0,-4.0,188,167,163,179,174
2025-02-26 15:15:34.217,-375.0,-47.0,941.0,17.0,-12.0,-5.0,164,142,139,156,151
2025-02-26 15:15:34.220,-329.0,-44.0,961.0,14.0,-12.0,-5.0,202,182,177,194,189
2025-02-26 15:15:34.228,-355.0,-74.0,1028.0,7.0,-10.0,-6.0,220,200,196,212,207
2025-02-26 15:15:34.233,-328.0,-34.0,939.0,10.0,-13.0,-7.0,225,204,202,218,213
2025-02-26 15:15:34.237,-322.0,-22.0,999.0,3.0,-12.0,-8.0,237,218,216,231,225
2025-02-26 15:15:34.245,-304.0,-26.0,1010.0,5.0,-11.0,-9.0,235,215,210,226,222
2025-02-26 15:15:34.249,-305.0,-17.0,969.0,8.0,-14.0,-8.0,227,207,203,218,214
2025-02-26 15:15:34.253,-291.0,-54.0,983.0,8.0,-14.0,-7.0,192,171,167,184,179
2025-02-26 15:15:34.256,-276.0,-56.0,1012.0,12.0,-15.0,-8.0,246,227,224,238,234
2025-02-26 15:15:34.265,-286.0,-90.0,990.0,9.0,-13.0,-7.0,208,188,182,201,194
2025-02-26 15:15:34.269,-270.0,-37.0,1017.0,13.0,-11.0,-7.0,186,164,162,178,172
2025-02-26 15:15:34.274,-250.0,-64.0,1026.0,10.0,-12.0,-8.0,195,174,172,189,183
2025-02-26 15:15:34.281,-243.0,-105.0,1037.0,13.0,-7.0,-7.0,180,160,155,173,166
2025-02-26 15:15:34.286,-284.0,-100.0,1078.0,10.0,-4.0,-6.0,175,154,151,168,161
2025-02-26 15:15:34.290,-233.0,-98.0,940.0,10.0,-6.0,-6.0,178,161,155,172,165
2025-02-26 15:15:34.292,-263.0,-70.0,1010.0,7.0,-5.0,-6.0,185,165,160,176,171
2025-02-26 15:15:34.301,-286.0,-61.0,986.0,9.0,-5.0,-6.0,185,164,161,176,171
2025-02-26 15:15:34.305,-264.0,-82.0,981.0,9.0,-5.0,-5.0,178,159,155,173,166
2025-02-26 15:15:34.311,-242.0,-84.0,1013.0,5.0,-5.0,-4.0,173,151,151,165,160
2025-02-26 15:15:34.315,-236.0,-67.0,1005.0,7.0,-4.0,-5.0,170,150,146,161,156
2025-02-26 15:15:34.323,-238.0,-72.0,1009.0,6.0,-4.0,-4.0,182,163,159,175,169
2025-02-26 15:15:34.335,-258.0,-117.0,998.0,8.0,-4.0,-4.0,183,161,158,174,168
2025-02-26 15:15:34.335,-244.0,-63.0,1012.0,6.0,-4.0,-4.0,189,171,162,179,175
2025-02-26 15:15:34.341,-251.0,-75.0,1028.0,7.0,-3.0,-3.0,204,185,181,197,192
2025-02-26 15:15:34.343,-268.0,-31.0,1038.0,6.0,-1.0,-2.0,187,167,163,180,174
2025-02-26 15:15:34.347,-254.0,-77.0,986.0,5.0,-3.0,-2.0,180,158,155,172,165
2025-02-26 15:15:34.352,-264.0,-61.0,961.0,6.0,-4.0,-2.0,180,158,153,171,164
2025-02-26 15:15:34.356,-260.0,-59.0,1011.0,8.0,-4.0,-1.0,183,161,157,174,168
2025-02-26 15:15:34.362,-242.0,-35.0,1039.0,7.0,-1.0,-1.0,182,161,156,172,167
2025-02-26 15:15:34.368,-249.0,-29.0,979.0,5.0,-2.0,-2.0,176,154,151,167,162
2025-02-26 15:15:34.372,-265.0,-60.0,991.0,7.0,-2.0,-1.0,183,161,157,172,167
2025-02-26 15:15:34.376,-251.0,-42.0,1050.0,4.0,1.0,-1.0,186,166,163,177,173
2025-02-26 15:15:34.380,-270.0,-66.0,984.0,8.0,0.0,0.0,178,157,151,168,162
2025-02-26 15:15:34.388,-277.0,-77.0,1011.0,7.0,1.0,1.0,179,157,152,169,163
2025-02-26 15:15:34.393,-270.0,-70.0,1004.0,9.0,2.0,1.0,185,163,160,177,172
2025-02-26 15:15:34.397,-266.0,-74.0,1025.0,8.0,2.0,2.0,185,166,161,179,173
2025-02-26 15:15:34.401,-283.0,-77.0,963.0,10.0,2.0,2.0,178,158,154,170,166
2025-02-26 15:15:34.409,-288.0,-45.0,1005.0,18.0,2.0,2.0,216,197,192,207,201
2025-02-26 15:15:34.412,-292.0,-24.0,1011.0,9.0,3.0,3.0,200,178,175,191,185
2025-02-26 15:15:34.415,-314.0,-33.0,976.0,10.0,2.0,3.0,194,175,171,188,183
2025-02-26 15:15:34.422,-300.0,-20.0,1036.0,6.0,3.0,3.0,218,200,193,210,204
2025-02-26 15:15:34.426,-313.0,-19.0,953.0,7.0,1.0,4.0,206,186,182,200,194
2025-02-26 15:15:34.433,-307.0,-2.0,1008.0,4.0,2.0,4.0,200,180,176,193,186
2025-02-26 15:15:34.438,-312.0,16.0,940.0,2.0,0.0,3.0,206,187,183,198,194
2025-02-26 15:15:34.439,-301.0,-22.0,1070.0,3.0,3.0,3.0,202,181,178,195,188
2025-02-26 15:15:34.446,-321.0,-39.0,989.0,-4.0,4.0,3.0,192,172,169,184,180
2025-02-26 15:15:34.450,-344.0,-51.0,938.0,-8.0,1.0,3.0,194,174,169,185,179
2025-02-26 15:15:34.458,-325.0,-32.0,948.0,-8.0,0.0,3.0,194,173,170,186,180
2025-02-26 15:15:34.462,-341.0,-20.0,1015.0,-9.0,2.0,3.0,196,177,174,190,184
2025-02-26 15:15:34.466,-350.0,-57.0,937.0,1.0,-2.0,3.0,225,209,204,220,214
2025-02-26 15:15:34.471,-305.0,-47.0,970.0,5.0,-1.0,2.0,227,204,201,217,212
2025-02-26 15:15:34.475,-325.0,-51.0,965.0,6.0,-1.0,3.0,216,196,193,206,203
2025-02-26 15:15:34.482,-333.0,-49.0,959.0,9.0,-1.0,3.0,228,208,205,221,214
2025-02-26 15:15:34.487,-319.0,-39.0,1012.0,5.0,1.0,3.0,195,174,170,186,181
2025-02-26 15:15:34.491,-306.0,-53.0,947.0,6.0,1.0,3.0,203,184,180,198,192
2025-02-26 15:15:34.495,-319.0,-47.0,987.0,3.0,4.0,3.0,199,174,171,187,181
2025-02-26 15:15:34.499,-318.0,-26.0,958.0,4.0,2.0,4.0,167,146,141,156,155
2025-02-26 15:15:34.507,-310.0,-26.0,1004.0,8.0,4.0,3.0,181,158,156,171,165
2025-02-26 15:15:34.512,-304.0,-25.0,953.0,10.0,7.0,3.0,173,152,147,165,160
2025-02-26 15:15:34.516,-314.0,-31.0,953.0,10.0,4.0,3.0,170,148,146,160,157
2025-02-26 15:15:34.517,-314.0,-43.0,991.0,8.0,5.0,4.0,166,146,143,159,154
2025-02-26 15:15:34.527,-307.0,-27.0,956.0,7.0,4.0,4.0,169,150,146,164,156
2025-02-26 15:15:34.529,-329.0,-5.0,967.0,10.0,3.0,4.0,166,147,143,160,154
2025-02-26 15:15:34.535,-327.0,-22.0,949.0,7.0,3.0,4.0,166,143,139,156,150
2025-02-26 15:15:34.539,-300.0,1.0,960.0,6.0,2.0,4.0,175,150,144,161,155
2025-02-26 15:15:34.544,-324.0,1.0,977.0,4.0,2.0,3.0,168,146,142,158,152
2025-02-26 15:15:34.547,-314.0,11.0,958.0,2.0,1.0,2.0,163,143,138,156,147
2025-02-26 15:15:34.556,-314.0,8.0,1000.0,2.0,2.0,2.0,167,146,142,160,154
2025-02-26 15:15:34.559,-310.0,7.0,1008.0,-3.0,3.0,1.0,166,145,143,160,154
2025-02-26 15:15:34.564,-318.0,-3.0,947.0,-3.0,2.0,1.0,167,146,142,160,153
2025-02-26 15:15:34.568,-311.0,24.0,992.0,-7.0,4.0,1.0,176,154,147,166,160
2025-02-26 15:15:34.573,-313.0,-20.0,967.0,-8.0,3.0,0.0,178,159,154,170,164
2025-02-26 15:15:34.580,-297.0,-12.0,967.0,-9.0,4.0,0.0,174,154,149,166,160
2025-02-26 15:15:34.585,-290.0,-15.0,985.0,-7.0,4.0,0.0,179,155,151,169,162
2025-02-26 15:15:34.589,-281.0,-22.0,991.0,-9.0,5.0,1.0,171,150,145,163,157
2025-02-26 15:15:34.594,-292.0,-51.0,978.0,-5.0,4.0,0.0,170,148,142,159,154
2025-02-26 15:15:34.598,-279.0,-38.0,982.0,-6.0,4.0,1.0,178,155,150,168,163
2025-02-26 15:15:34.605,-295.0,-47.0,966.0,-5.0,4.0,1.0,170,149,146,163,157
2025-02-26 15:15:34.609,-295.0,-46.0,967.0,-4.0,4.0,1.0,168,145,143,161,154
2025-02-26 15:15:34.614,-287.0,-22.0,980.0,-3.0,4.0,1.0,173,152,148,165,159
2025-02-26 15:15:34.616,-298.0,-63.0,969.0,-4.0,5.0,1.0,172,151,148,162,157
2025-02-26 15:15:34.623,-277.0,-34.0,971.0,-4.0,4.0,2.0,168,147,143,159,154
2025-02-26 15:15:34.630,-295.0,-33.0,958.0,-3.0,4.0,1.0,170,152,147,163,158
2025-02-26 15:15:34.634,-300.0,-34.0,984.0,-3.0,3.0,2.0,167,147,145,160,155
2025-02-26 15:15:34.639,-314.0,-42.0,978.0,-4.0,4.0,2.0,168,148,144,161,155
2025-02-26 15:15:34.643,-311.0,-14.0,959.0,-4.0,2.0,2.0,172,150,146,164,158
2025-02-26 15:15:34.650,-308.0,-15.0,972.0,-4.0,2.0,2.0,170,150,144,161,154
2025-02-26 15:15:34.654,-331.0,-38.0,956.0,-3.0,0.0,2.0,167,144,142,156,150
2025-02-26 15:15:34.659,-319.0,-17.0,966.0,-1.0,0.0,2.0,173,150,147,163,157
2025-02-26 15:15:34.663,-308.0,-16.0,979.0,-2.0,0.0,2.0,169,147,143,161,154
2025-02-26 15:15:34.667,-304.0,-21.0,976.0,-3.0,0.0,2.0,165,143,139,156,150
2025-02-26 15:15:34.675,-311.0,-16.0,970.0,-3.0,1.0,2.0,172,148,145,159,154
2025-02-26 15:15:34.679,-314.0,-8.0,961.0,-3.0,0.0,2.0,171,147,144,163,156
2025-02-26 15:15:34.683,-318.0,0.0,962.0,-3.0,0.0,2.0,164,144,140,157,149
2025-02-26 15:15:34.687,-308.0,-7.0,981.0,-3.0,0.0,2.0,169,148,144,161,155
2025-02-26 15:15:34.692,-309.0,3.0,974.0,-5.0,0.0,2.0,167,147,143,159,155
2025-02-26 15:15:34.700,-303.0,1.0,952.0,-5.0,0.0,2.0,168,147,143,160,154
2025-02-26 15:15:34.703,-301.0,-12.0,976.0,-4.0,0.0,1.0,167,148,146,161,155
2025-02-26 15:15:34.708,-301.0,-9.0,967.0,-3.0,0.0,0.0,165,141,139,157,150
2025-02-26 15:15:34.712,-302.0,-26.0,964.0,-2.0,0.0,0.0,163,142,138,154,148
2025-02-26 15:15:34.716,-298.0,-12.0,974.0,-2.0,1.0,0.0,173,152,146,164,157
2025-02-26 15:15:34.723,-300.0,-11.0,951.0,-1.0,1.0,1.0,168,146,144,161,155
2025-02-26 15:15:34.728,-310.0,-24.0,970.0,1.0,1.0,0.0,166,144,140,158,153
2025-02-26 15:15:34.733,-309.0,-25.0,938.0,2.0,0.0,0.0,178,158,152,169,164
2025-02-26 15:15:34.737,-301.0,-11.0,959.0,2.0,0.0,0.0,182,162,158,174,168
2025-02-26 15:15:34.741,-314.0,-28.0,973.0,1.0,1.0,0.0,228,209,205,220,215
2025-02-26 15:15:34.748,-309.0,-12.0,928.0,3.0,0.0,0.0,168,146,143,160,155
2025-02-26 15:15:34.753,-281.0,17.0,987.0,3.0,0.0,0.0,152,133,129,145,139
2025-02-26 15:15:34.757,-315.0,-30.0,956.0,2.0,0.0,-1.0,179,159,155,173,166
2025-02-26 15:15:34.761,-291.0,-5.0,921.0,1.0,-1.0,-1.0,199,178,173,189,182
2025-02-26 15:15:34.765,-329.0,5.0,933.0,2.0,0.0,-1.0,224,205,200,216,210
2025-02-26 15:15:34.773,-336.0,-33.0,957.0,0.0,0.0,-3.0,231,212,207,223,217
2025-02-26 15:15:34.777,-339.0,-52.0,933.0,1.0,-2.0,-2.0,237,216,212,228,223
2025-02-26 15:15:34.780,-318.0,-33.0,949.0,2.0,-2.0,-3.0,214,192,190,207,200
2025-02-26 15:15:34.786,-293.0,-17.0,915.0,3.0,-4.0,-3.0,219,200,195,211,207
2025-02-26 15:15:34.790,-310.0,-20.0,936.0,2.0,-3.0,-3.0,214,195,190,206,200
2025-02-26 15:15:34.798,-295.0,-14.0,947.0,4.0,-4.0,-4.0,210,188,184,199,194
2025-02-26 15:15:34.802,-303.0,-27.0,965.0,4.0,-3.0,-3.0,193,173,168,185,179
2025-02-26 15:15:34.806,-279.0,-33.0,958.0,5.0,-3.0,-3.0,200,177,173,189,184
2025-02-26 15:15:34.810,-292.0,-21.0,961.0,6.0,-3.0,-3.0,195,178,173,188,182
2025-02-26 15:15:34.818,-289.0,-32.0,961.0,7.0,-3.0,-3.0,191,171,169,184,178
2025-02-26 15:15:34.823,-300.0,-16.0,985.0,7.0,-2.0,-3.0,188,167,162,178,173
2025-02-26 15:15:34.827,-287.0,-10.0,963.0,5.0,-2.0,-3.0,191,172,166,182,178
2025-02-26 15:15:34.831,-290.0,9.0,958.0,6.0,-3.0,-4.0,188,166,163,179,173
2025-02-26 15:15:34.839,-301.0,-18.0,976.0,4.0,-3.0,-5.0,185,163,160,176,170
2025-02-26 15:15:34.843,-307.0,2.0,968.0,3.0,-4.0,-5.0,191,169,163,180,171
2025-02-26 15:15:34.846,-301.0,-12.0,992.0,1.0,-4.0,-6.0,188,168,162,178,173
2025-02-26 15:15:34.851,-290.0,-30.0,974.0,0.0,-5.0,-5.0,183,160,156,173,167
2025-02-26 15:15:34.855,-302.0,-19.0,974.0,0.0,-5.0,-5.0,190,166,161,178,172
2025-02-26 15:15:34.863,-280.0,-17.0,994.0,-1.0,-5.0,-6.0,186,167,160,178,172
2025-02-26 15:15:34.868,-291.0,-39.0,984.0,0.0,-5.0,-5.0,185,161,156,174,167
2025-02-26 15:15:34.870,-287.0,-28.0,994.0,1.0,-4.0,-4.0,179,157,153,168,164
2025-02-26 15:15:34.876,-279.0,-46.0,994.0,2.0,-3.0,-4.0,193,170,166,182,176
2025-02-26 15:15:34.883,-288.0,-36.0,1004.0,2.0,-2.0,-4.0,188,166,163,177,171
2025-02-26 15:15:34.887,-300.0,-29.0,1004.0,2.0,-2.0,-3.0,180,159,155,172,166
2025-02-26 15:15:34.892,-303.0,-40.0,980.0,4.0,-2.0,-3.0,183,165,161,179,173
2025-02-26 15:15:34.897,-298.0,-33.0,986.0,6.0,-1.0,-3.0,192,171,168,180,178
2025-02-26 15:15:34.904,-314.0,-39.0,979.0,5.0,-1.0,-2.0,183,162,158,172,168
2025-02-26 15:15:34.908,-316.0,-36.0,972.0,4.0,-2.0,-2.0,180,159,154,171,165
2025-02-26 15:15:34.913,-321.0,-27.0,978.0,4.0,-3.0,-2.0,184,165,160,176,171
2025-02-26 15:15:34.916,-331.0,-25.0,978.0,3.0,-3.0,-1.0,190,168,165,181,176
2025-02-26 15:15:34.924,-324.0,-28.0,967.0,2.0,-4.0,-1.0,181,160,157,174,167
2025-02-26 15:15:34.928,-326.0,-19.0,972.0,2.0,-4.0,-1.0,186,165,161,178,171
2025-02-26 15:15:34.932,-331.0,-23.0,979.0,0.0,-4.0,-1.0,187,163,160,177,172
2025-02-26 15:15:34.937,-329.0,-25.0,975.0,0.0,-4.0,-1.0,188,167,163,178,172
2025-02-26 15:15:34.942,-329.0,-23.0,985.0,-1.0,-4.0,-1.0,179,159,155,171,165
2025-02-26 15:15:34.948,-336.0,-22.0,978.0,-1.0,-5.0,-1.0,186,167,163,177,170
2025-02-26 15:15:34.954,-335.0,-23.0,986.0,0.0,-5.0,-1.0,183,163,159,174,169
2025-02-26 15:15:34.958,-332.0,-28.0,993.0,-1.0,-5.0,-1.0,186,164,159,175,171
2025-02-26 15:15:34.962,-333.0,-33.0,987.0,0.0,-5.0,-1.0,186,166,163,178,173
2025-02-26 15:15:34.970,-334.0,-37.0,1007.0,1.0,-5.0,-2.0,184,164,160,177,170
2025-02-26 15:15:34.972,-339.0,-33.0,998.0,1.0,-5.0,-1.0,183,160,158,174,167
2025-02-26 15:15:34.978,-333.0,-33.0,1003.0,2.0,-4.0,-1.0,183,164,160,176,169
2025-02-26 15:15:34.983,-337.0,-36.0,1017.0,3.0,-5.0,-2.0,186,165,161,176,172
2025-02-26 15:15:34.990,-351.0,-40.0,986.0,4.0,-6.0,-2.0,185,164,160,177,175
2025-02-26 15:15:34.994,-341.0,-39.0,1014.0,5.0,-6.0,-3.0,181,160,156,171,166
2025-02-26 15:15:34.999,-340.0,-36.0,1020.0,5.0,-6.0,-2.0,181,161,157,173,167
2025-02-26 15:15:35.003,-316.0,-31.0,1040.0,6.0,-4.0,-2.0,186,164,161,177,172
2025-02-26 15:15:35.011,-324.0,-40.0,1013.0,6.0,-6.0,-3.0,183,163,159,176,170
2025-02-26 15:15:35.015,-327.0,-12.0,1047.0,4.0,-5.0,-2.0,184,162,159,175,170
2025-02-26 15:15:35.019,-319.0,-35.0,1046.0,3.0,-4.0,-2.0,182,160,157,179,168
2025-02-26 15:15:35.024,-304.0,-26.0,1067.0,2.0,-3.0,-2.0,186,166,160,176,170
2025-02-26 15:15:35.031,-296.0,-40.0,1041.0,1.0,-3.0,-2.0,181,165,160,175,163
2025-02-26 15:15:35.034,-301.0,-50.0,1045.0,-1.0,-3.0,-2.0,179,157,152,170,164
2025-02-26 15:15:35.039,-292.0,-44.0,1056.0,-3.0,-2.0,-2.0,177,157,152,168,163
2025-02-26 15:15:35.047,-290.0,-47.0,1045.0,-4.0,-1.0,-2.0,183,160,157,173,167
2025-02-26 15:15:35.052,-285.0,-67.0,1048.0,-3.0,0.0,-2.0,176,158,154,174,165
2025-02-26 15:15:35.056,-290.0,-70.0,1067.0,-4.0,0.0,-2.0,176,156,152,169,161
2025-02-26 15:15:35.060,-276.0,-82.0,1050.0,-3.0,2.0,-1.0,175,156,152,163,161
2025-02-26 15:15:35.068,-273.0,-89.0,1053.0,-1.0,3.0,-1.0,180,159,155,171,166
2025-02-26 15:15:35.072,-265.0,-86.0,1038.0,0.0,4.0,0.0,180,157,153,169,163
2025-02-26 15:15:35.076,-264.0,-82.0,1047.0,0.0,5.0,1.0,175,153,148,164,159
2025-02-26 15:15:35.081,-267.0,-75.0,1045.0,-1.0,5.0,1.0,181,159,154,171,166
2025-02-26 15:15:35.085,-260.0,-61.0,1046.0,-1.0,6.0,2.0,179,158,153,170,166
2025-02-26 15:15:35.092,-254.0,-58.0,1032.0,-1.0,6.0,3.0,174,153,149,166,160
2025-02-26 15:15:35.097,-261.0,-51.0,1025.0,-3.0,6.0,3.0,178,156,151,167,161
2025-02-26 15:15:35.102,-259.0,-48.0,1029.0,-4.0,7.0,3.0,180,159,157,172,166
2025-02-26 15:15:35.106,-263.0,-54.0,1019.0,-4.0,7.0,3.0,176,155,151,168,162
2025-02-26 15:15:35.112,-252.0,-53.0,1001.0,-5.0,7.0,3.0,175,153,149,167,160
2025-02-26 15:15:35.117,-243.0,-56.0,1008.0,-6.0,9.0,3.0,178,160,154,173,164
2025-02-26 15:15:35.122,-251.0,-65.0,1004.0,-6.0,10.0,4.0,171,158,153,169,165
2025-02-26 15:15:35.124,-246.0,-57.0,987.0,-6.0,11.0,4.0,174,152,150,166,160
2025-02-26 15:15:35.133,-246.0,-54.0,976.0,-6.0,12.0,5.0,176,155,151,168,161
2025-02-26 15:15:35.136,-257.0,-58.0,970.0,-6.0,13.0,6.0,183,162,158,175,169
2025-02-26 15:15:35.142,-258.0,-61.0,939.0,-5.0,12.0,7.0,177,156,151,169,163
2025-02-26 15:15:35.146,-258.0,-50.0,939.0,-5.0,12.0,7.0,174,153,149,165,159
2025-02-26 15:15:35.154,-258.0,-44.0,937.0,-4.0,13.0,7.0,178,159,153,170,164
2025-02-26 15:15:35.158,-264.0,-38.0,922.0,-4.0,13.0,8.0,181,160,156,173,168
2025-02-26 15:15:35.160,-270.0,-25.0,905.0,-4.0,13.0,7.0,175,155,150,167,161
2025-02-26 15:15:35.166,-276.0,-7.0,894.0,-5.0,14.0,8.0,181,153,152,168,164
2025-02-26 15:15:35.171,-295.0,9.0,885.0,-8.0,14.0,8.0,178,158,153,169,165
2025-02-26 15:15:35.179,-301.0,36.0,859.0,-8.0,14.0,7.0,180,157,153,170,164
2025-02-26 15:15:35.183,-327.0,31.0,868.0,-13.0,15.0,7.0,177,157,153,170,163
2025-02-26 15:15:35.187,-347.0,108.0,817.0,-19.0,16.0,6.0,177,159,152,167,162
2025-02-26 15:15:35.192,-361.0,117.0,800.0,-22.0,17.0,5.0,175,153,150,168,161
2025-02-26 15:15:35.199,-369.0,148.0,768.0,-30.0,18.0,4.0,178,157,151,168,161
2025-02-26 15:15:35.203,-367.0,152.0,667.0,-33.0,18.0,3.0,177,157,153,170,163
2025-02-26 15:15:35.207,-421.0,166.0,654.0,-35.0,14.0,0.0,179,159,154,170,165
2025-02-26 15:15:35.212,-439.0,198.0,595.0,-40.0,9.0,-2.0,178,158,153,171,164
2025-02-26 15:15:35.219,-453.0,209.0,519.0,-44.0,5.0,-3.0,181,162,156,172,167
2025-02-26 15:15:35.222,-545.0,242.0,488.0,-42.0,-5.0,-7.0,182,162,157,182,168
2025-02-26 15:15:35.228,-587.0,224.0,471.0,-40.0,-15.0,-10.0,181,160,153,170,166
2025-02-26 15:15:35.234,-603.0,247.0,388.0,-40.0,-27.0,-15.0,178,158,154,170,165
2025-02-26 15:15:35.240,-635.0,275.0,390.0,-39.0,-32.0,-20.0,179,157,151,169,163
2025-02-26 15:15:35.245,-633.0,200.0,344.0,-41.0,-50.0,-22.0,176,157,151,168,166
2025-02-26 15:15:35.251,-646.0,131.0,349.0,-36.0,-64.0,-25.0,174,157,153,172,163
2025-02-26 15:15:35.257,-635.0,153.0,323.0,-31.0,-85.0,-29.0,180,158,154,171,166
2025-02-26 15:15:35.261,-610.0,129.0,376.0,-26.0,-106.0,-34.0,178,160,155,173,166
2025-02-26 15:15:35.269,-569.0,99.0,440.0,-22.0,-128.0,-40.0,180,158,155,170,165
2025-02-26 15:15:35.273,-579.0,66.0,494.0,-19.0,-139.0,-44.0,177,155,149,166,160
2025-02-26 15:15:35.277,-511.0,13.0,552.0,-14.0,-161.0,-47.0,180,158,152,170,165
2025-02-26 15:15:35.282,-467.0,16.0,695.0,-10.0,-181.0,-53.0,180,159,154,172,165
2025-02-26 15:15:35.290,-414.0,-18.0,726.0,-8.0,-201.0,-57.0,177,158,153,171,164
2025-02-26 15:15:35.294,-320.0,-60.0,834.0,-6.0,-221.0,-59.0,178,158,152,169,162
2025-02-26 15:15:35.298,-233.0,-147.0,1017.0,-4.0,-237.0,-58.0,178,158,151,170,162
2025-02-26 15:15:35.305,-185.0,-292.0,1234.0,-3.0,-244.0,-50.0,176,155,149,167,161
2025-02-26 15:15:35.310,-52.0,-432.0,1602.0,-3.0,-247.0,-36.0,182,153,147,165,156
2025-02-26 15:15:35.318,121.0,-464.0,1775.0,-12.0,-237.0,-30.0,173,152,143,165,154
2025-02-26 15:15:35.322,280.0,-419.0,2090.0,-28.0,-223.0,-20.0,183,158,151,171,161
2025-02-26 15:15:35.326,421.0,-437.0,2236.0,-52.0,-193.0,-7.0,178,156,149,169,158
2025-02-26 15:15:35.334,583.0,-497.0,2473.0,-77.0,-154.0,7.0,180,156,148,169,154
2025-02-26 15:15:35.339,698.0,-536.0,2676.0,-89.0,-111.0,20.0,184,158,149,172,156
2025-02-26 15:15:35.343,779.0,-550.0,2898.0,-116.0,-84.0,34.0,175,148,140,163,146
2025-02-26 15:15:35.350,849.0,-481.0,2952.0,-149.0,-31.0,43.0,174,143,132,166,146
2025-02-26 15:15:35.353,907.0,-481.0,2934.0,-182.0,20.0,46.0,174,139,128,159,136
2025-02-26 15:15:35.359,892.0,-470.0,3007.0,-214.0,73.0,50.0,183,142,131,168,143
2025-02-26 15:15:35.367,854.0,-575.0,2976.0,-242.0,121.0,53.0,182,135,126,164,138
2025-02-26 15:15:35.372,746.0,-564.0,2855.0,-254.0,168.0,55.0,177,124,115,159,130
2025-02-26 15:15:35.373,645.0,-567.0,2720.0,-276.0,208.0,56.0,177,115,110,154,126
2025-02-26 15:15:35.384,594.0,-508.0,2567.0,-304.0,225.0,54.0,175,109,105,144,121
2025-02-26 15:15:35.387,544.0,-476.0,2428.0,-326.0,258.0,53.0,176,104,102,136,120
2025-02-26 15:15:35.392,502.0,-476.0,2281.0,-342.0,286.0,52.0,181,104,104,135,120
2025-02-26 15:15:35.400,422.0,-522.0,2229.0,-353.0,318.0,51.0,183,108,109,137,126
2025-02-26 15:15:35.403,454.0,-583.0,1940.0,-373.0,331.0,56.0,180,103,103,129,121
2025-02-26 15:15:35.409,320.0,-668.0,1791.0,-384.0,343.0,79.0,179,99,100,128,118
2025-02-26 15:15:35.416,247.0,-689.0,1666.0,-409.0,349.0,98.0,177,91,93,125,114
2025-02-26 15:15:35.421,274.0,-742.0,1484.0,-417.0,348.0,111.0,179,96,97,127,113
2025-02-26 15:15:35.425,107.0,-723.0,1275.0,-426.0,349.0,120.0,179,98,98,126,112
2025-02-26 15:15:35.433,145.0,-699.0,1182.0,-427.0,349.0,134.0,179,103,100,127,115
2025-02-26 15:15:35.437,180.0,-776.0,1130.0,-421.0,350.0,147.0,180,99,101,127,110
2025-02-26 15:15:35.439,164.0,-756.0,1185.0,-415.0,366.0,167.0,177,100,101,126,109
2025-02-26 15:15:35.449,341.0,-759.0,1201.0,-407.0,386.0,191.0,178,97,98,124,108
2025-02-26 15:15:35.451,449.0,-739.0,1239.0,-397.0,400.0,207.0,176,95,95,121,104
2025-02-26 15:15:35.456,523.0,-748.0,1172.0,-382.0,418.0,210.0,178,99,98,127,109
2025-02-26 15:15:35.463,592.0,-584.0,963.0,-379.0,428.0,217.0,179,100,100,127,109
2025-02-26 15:15:35.468,591.0,-580.0,775.0,-387.0,420.0,234.0,180,101,100,125,107
2025-02-26 15:15:35.474,421.0,-375.0,328.0,-403.0,402.0,255.0,177,101,100,127,107
2025-02-26 15:15:35.482,250.0,-294.0,119.0,-397.0,384.0,276.0,180,103,105,131,109
2025-02-26 15:15:35.486,-37.0,-31.0,-80.0,-390.0,370.0,284.0,182,105,105,131,109
2025-02-26 15:15:35.490,-126.0,33.0,-201.0,-361.0,342.0,286.0,180,106,104,131,110
2025-02-26 15:15:35.498,-346.0,107.0,-232.0,-338.0,313.0,284.0,182,104,103,130,107
2025-02-26 15:15:35.500,-402.0,138.0,-172.0,-314.0,274.0,278.0,191,116,115,143,120
2025-02-26 15:15:35.506,-329.0,41.0,-136.0,-295.0,249.0,270.0,198,125,124,150,128
2025-02-26 15:15:35.512,-218.0,135.0,-57.0,-276.0,234.0,257.0,187,115,113,138,118
2025-02-26 15:15:35.519,-122.0,317.0,-53.0,-265.0,228.0,244.0,189,117,116,142,120
2025-02-26 15:15:35.523,-78.0,407.0,-37.0,-244.0,227.0,226.0,180,108,106,130,110
2025-02-26 15:15:35.531,-113.0,408.0,52.0,-228.0,224.0,209.0,178,107,105,128,108
2025-02-26 15:15:35.535,-86.0,477.0,3.0,-210.0,219.0,202.0,176,106,105,127,106
2025-02-26 15:15:35.540,-143.0,552.0,16.0,-193.0,214.0,188.0,176,105,103,127,106
2025-02-26 15:15:35.543,-134.0,678.0,-31.0,-184.0,207.0,177.0,172,103,99,123,103
2025-02-26 15:15:35.551,-184.0,770.0,-27.0,-163.0,196.0,170.0,164,87,83,111,87
2025-02-26 15:15:35.556,-121.0,1064.0,-57.0,-168.0,199.0,165.0,180,109,108,130,110
2025-02-26 15:15:35.560,-211.0,1116.0,-168.0,-156.0,190.0,164.0,163,89,89,112,91
2025-02-26 15:15:35.567,-330.0,1246.0,-307.0,-131.0,173.0,157.0,167,96,94,116,96
2025-02-26 15:15:35.572,-439.0,1361.0,-401.0,-89.0,147.0,145.0,159,90,87,112,90
2025-02-26 15:15:35.576,-473.0,1540.0,-517.0,-68.0,121.0,133.0,160,91,89,112,92
2025-02-26 15:15:35.584,-451.0,1844.0,-691.0,-26.0,107.0,122.0,148,78,76,99,77
2025-02-26 15:15:35.589,-463.0,2212.0,-918.0,18.0,88.0,115.0,145,77,74,98,76
2025-02-26 15:15:35.593,-417.0,2355.0,-1007.0,61.0,66.0,100.0,147,80,77,98,78
2025-02-26 15:15:35.597,-435.0,2730.0,-1236.0,95.0,44.0,70.0,150,83,80,103,81
2025-02-26 15:15:35.605,-558.0,3146.0,-1395.0,147.0,31.0,21.0,149,82,78,102,82
2025-02-26 15:15:35.609,-500.0,3349.0,-1602.0,192.0,22.0,-12.0,147,82,79,102,80
2025-02-26 15:15:35.613,-453.0,3731.0,-1838.0,238.0,18.0,-92.0,150,85,83,105,85
2025-02-26 15:15:35.619,-594.0,4010.0,-1922.0,288.0,-13.0,-190.0,150,84,81,106,84
2025-02-26 15:15:35.625,-573.0,4288.0,-2139.0,298.0,-38.0,-292.0,180,118,113,137,116
2025-02-26 15:15:35.630,-759.0,4518.0,-2346.0,296.0,-91.0,-399.0,182,121,117,140,121
2025-02-26 15:15:35.637,-844.0,4598.0,-2470.0,268.0,-166.0,-509.0,180,119,115,137,115
2025-02-26 15:15:35.639,-747.0,4574.0,-2538.0,223.0,-253.0,-614.0,171,111,109,131,111
2025-02-26 15:15:35.649,-648.0,4390.0,-2564.0,173.0,-298.0,-731.0,178,116,115,137,116
2025-02-26 15:15:35.654,-558.0,4348.0,-2567.0,118.0,-397.0,-862.0,190,126,123,146,128
2025-02-26 15:15:35.661,-207.0,4458.0,-2573.0,53.0,-511.0,-1003.0,169,106,102,125,106
2025-02-26 15:15:35.667,536.0,4476.0,-2479.0,-34.0,-625.0,-1153.0,166,104,100,122,104
2025-02-26 15:15:35.671,1340.0,4411.0,-2621.0,-128.0,-765.0,-1294.0,176,109,106,126,111
2025-02-26 15:15:35.675,2936.0,4467.0,-2837.0,-237.0,-910.0,-1405.0,170,106,103,123,108
2025-02-26 15:15:35.683,4984.0,3876.0,-2940.0,-335.0,-1044.0,-1447.0,175,109,104,125,112
2025-02-26 15:15:35.690,9260.0,2171.0,-1845.0,-362.0,-1118.0,-1368.0,175,107,103,123,109
2025-02-26 15:15:35.700,11907.0,-1221.0,1035.0,-328.0,-868.0,-1175.0,177,108,103,127,113
2025-02-26 15:15:35.703,12166.0,-5148.0,2832.0,-348.0,-489.0,-897.0,180,112,111,132,121
2025-02-26 15:15:35.707,12233.0,-8507.0,2778.0,-308.0,-53.0,-579.0,179,114,111,133,121
2025-02-26 15:15:35.716,10178.0,-11266.0,1828.0,-226.0,259.0,-300.0,179,114,108,133,120
2025-02-26 15:15:35.719,7522.0,-10994.0,470.0,-18.0,390.0,-109.0,182,115,112,134,120
2025-02-26 15:15:35.724,5146.0,-9614.0,-774.0,233.0,402.0,7.0,181,114,109,134,120
2025-02-26 15:15:35.732,4247.0,-7914.0,-1427.0,380.0,390.0,97.0,175,105,102,129,108
2025-02-26 15:15:35.735,2726.0,-6405.0,-1505.0,401.0,392.0,189.0,201,131,129,151,136
2025-02-26 15:15:35.744,1763.0,-4813.0,-1605.0,433.0,332.0,286.0,167,95,91,114,93
2025-02-26 15:15:35.748,1698.0,-3641.0,-826.0,354.0,65.0,352.0,184,111,107,129,110
2025-02-26 15:15:35.752,872.0,-2835.0,-364.0,222.0,-2.0,386.0,189,112,110,132,113
2025-02-26 15:15:35.761,1113.0,-1419.0,-408.0,68.0,-41.0,373.0,180,104,103,125,108
2025-02-26 15:15:35.765,953.0,-847.0,-42.0,-81.0,-61.0,359.0,172,98,95,117,100
2025-02-26 15:15:35.769,967.0,-1396.0,262.0,-144.0,-60.0,349.0,169,93,92,116,98
2025-02-26 15:15:35.777,1059.0,-1170.0,282.0,-175.0,-95.0,315.0,166,89,87,111,96
2025-02-26 15:15:35.781,942.0,-1495.0,272.0,-191.0,-65.0,304.0,168,91,89,112,97
2025-02-26 15:15:35.785,879.0,-2024.0,480.0,-172.0,-29.0,293.0,170,95,92,115,100
2025-02-26 15:15:35.790,669.0,-2262.0,453.0,-109.0,-16.0,303.0,166,91,88,112,99
2025-02-26 15:15:35.798,614.0,-2382.0,290.0,-75.0,18.0,306.0,166,92,88,112,98
2025-02-26 15:15:35.801,534.0,-2116.0,320.0,-20.0,27.0,310.0,159,88,84,109,96
2025-02-26 15:15:35.806,389.0,-2207.0,350.0,37.0,38.0,323.0,167,95,92,115,101
2025-02-26 15:15:35.810,320.0,-1910.0,333.0,69.0,71.0,342.0,166,94,91,116,103
2025-02-26 15:15:35.818,265.0,-1562.0,264.0,84.0,68.0,357.0,164,94,91,116,101
2025-02-26 15:15:35.822,277.0,-946.0,186.0,94.0,67.0,363.0,163,97,92,120,103
2025-02-26 15:15:35.827,205.0,-1105.0,109.0,82.0,81.0,363.0,170,105,103,127,114
2025-02-26 15:15:35.833,232.0,-813.0,153.0,59.0,88.0,370.0,175,109,104,128,112
2025-02-26 15:15:35.838,13.0,-457.0,176.0,42.0,77.0,385.0,177,113,109,135,120
2025-02-26 15:15:35.843,-21.0,-207.0,113.0,13.0,70.0,385.0,173,106,102,127,113
2025-02-26 15:15:35.847,93.0,-285.0,125.0,-57.0,80.0,379.0,180,114,112,136,122
2025-02-26 15:15:35.855,-171.0,109.0,155.0,-90.0,64.0,374.0,179,113,112,136,121
2025-02-26 15:15:35.858,-165.0,175.0,183.0,-95.0,48.0,358.0,183,120,114,139,124
2025-02-26 15:15:35.863,-83.0,263.0,272.0,-115.0,43.0,345.0,175,109,107,131,117
2025-02-26 15:15:35.868,-92.0,97.0,221.0,-122.0,38.0,337.0,176,109,107,132,118
2025-02-26 15:15:35.875,-178.0,227.0,309.0,-133.0,34.0,316.0,182,114,113,138,122
2025-02-26 15:15:35.880,-145.0,-144.0,289.0,-143.0,36.0,311.0,178,111,108,133,118
2025-02-26 15:15:35.884,-302.0,193.0,310.0,-159.0,51.0,291.0,173,105,104,128,113
2025-02-26 15:15:35.892,-320.0,108.0,130.0,-163.0,53.0,277.0,170,102,97,124,109
2025-02-26 15:15:35.896,-336.0,82.0,245.0,-170.0,61.0,259.0,163,95,95,121,104
2025-02-26 15:15:35.900,-339.0,-14.0,193.0,-121.0,52.0,250.0,168,98,106,126,110
2025-02-26 15:15:35.908,-291.0,-138.0,223.0,-77.0,41.0,238.0,156,86,85,111,94
2025-02-26 15:15:35.912,-231.0,-77.0,284.0,-60.0,52.0,228.0,151,81,80,105,89
2025-02-26 15:15:35.916,-214.0,-37.0,269.0,-45.0,60.0,221.0,150,80,77,103,86
2025-02-26 15:15:35.920,-175.0,-39.0,372.0,-48.0,82.0,222.0,153,84,79,108,91
2025-02-26 15:15:35.928,-118.0,118.0,299.0,-55.0,97.0,221.0,152,83,81,108,91
2025-02-26 15:15:35.932,-249.0,26.0,222.0,-41.0,102.0,215.0,149,79,76,105,87
2025-02-26 15:15:35.936,-315.0,207.0,59.0,-18.0,94.0,211.0,151,80,79,105,89
2025-02-26 15:15:35.941,-488.0,200.0,40.0,17.0,80.0,200.0,152,84,82,109,92
2025-02-26 15:15:35.945,-501.0,195.0,48.0,37.0,73.0,195.0,150,78,79,107,90
2025-02-26 15:15:35.952,-566.0,234.0,98.0,57.0,64.0,196.0,149,78,77,108,87
2025-02-26 15:15:35.954,-594.0,328.0,83.0,78.0,58.0,200.0,152,84,80,108,92
2025-02-26 15:15:35.959,-539.0,331.0,60.0,94.0,50.0,198.0,155,81,81,109,90
2025-02-26 15:15:35.966,-490.0,320.0,147.0,119.0,49.0,201.0,152,80,79,106,90
2025-02-26 15:15:35.970,-489.0,360.0,191.0,150.0,46.0,207.0,152,83,82,109,92
2025-02-26 15:15:35.978,-322.0,432.0,211.0,160.0,54.0,223.0,150,82,79,108,90
2025-02-26 15:15:35.982,-368.0,600.0,166.0,180.0,58.0,230.0,151,82,80,108,92
2025-02-26 15:15:35.986,-425.0,676.0,93.0,210.0,62.0,235.0,154,84,85,110,94
2025-02-26 15:15:35.990,-472.0,843.0,9.0,226.0,68.0,231.0,147,83,82,106,93
2025-02-26 15:15:35.998,-599.0,1126.0,-149.0,263.0,68.0,219.0,151,82,79,107,91
2025-02-26 15:15:36.002,-620.0,1308.0,-266.0,301.0,65.0,209.0,154,84,81,112,95
2025-02-26 15:15:36.007,-748.0,1652.0,-348.0,336.0,59.0,174.0,156,84,83,109,94
2025-02-26 15:15:36.011,-786.0,2008.0,-460.0,354.0,47.0,126.0,157,81,80,106,93
2025-02-26 15:15:36.019,-789.0,2485.0,-616.0,371.0,43.0,63.0,149,81,79,107,91
2025-02-26 15:15:36.023,-947.0,2604.0,-800.0,380.0,31.0,25.0,154,83,83,112,96
2025-02-26 15:15:36.027,-951.0,3168.0,-690.0,367.0,29.0,-75.0,153,82,82,110,94
2025-02-26 15:15:36.031,-1167.0,3346.0,-824.0,360.0,7.0,-183.0,151,81,81,109,94
2025-02-26 15:15:36.039,-1114.0,3590.0,-835.0,318.0,-4.0,-296.0,155,84,83,110,94
2025-02-26 15:15:36.044,-1186.0,3583.0,-912.0,263.0,-40.0,-354.0,150,80,80,108,91
2025-02-26 15:15:36.048,-1064.0,3693.0,-917.0,192.0,-82.0,-462.0,154,85,83,111,94
2025-02-26 15:15:36.056,-989.0,3578.0,-1004.0,113.0,-135.0,-572.0,153,84,81,109,93
2025-02-26 15:15:36.060,-855.0,3423.0,-1042.0,38.0,-200.0,-689.0,155,87,85,110,95
2025-02-26 15:15:36.063,-697.0,3205.0,-1084.0,1.0,-281.0,-810.0,155,85,85,112,94
2025-02-26 15:15:36.071,-240.0,3077.0,-1240.0,-69.0,-323.0,-942.0,152,79,79,106,92
2025-02-26 15:15:36.074,-70.0,3092.0,-1425.0,-151.0,-419.0,-1074.0,150,80,78,107,89
2025-02-26 15:15:36.084,869.0,3071.0,-1496.0,-220.0,-522.0,-1132.0,153,81,81,104,90
2025-02-26 15:15:36.088,2349.0,2306.0,-1610.0,-275.0,-618.0,-1215.0,151,79,75,104,88
2025-02-26 15:15:36.093,3809.0,1323.0,-1532.0,-308.0,-712.0,-1266.0,153,82,80,108,92
2025-02-26 15:15:36.100,5390.0,21.0,-1141.0,-301.0,-774.0,-1250.0,158,86,83,110,99
2025-02-26 15:15:36.105,7025.0,-1914.0,-645.0,-204.0,-743.0,-1139.0,167,94,92,119,107
2025-02-26 15:15:36.112,7547.0,-4370.0,580.0,-118.0,-588.0,-967.0,163,92,89,117,101
2025-02-26 15:15:36.117,7504.0,-6392.0,1665.0,-107.0,-349.0,-720.0,162,90,87,116,103
2025-02-26 15:15:36.121,6691.0,-7879.0,1634.0,-94.0,-147.0,-397.0,164,90,87,115,102
2025-02-26 15:15:36.129,6334.0,-8605.0,1213.0,-86.0,29.0,-104.0,163,88,87,114,101
2025-02-26 15:15:36.133,5376.0,-7943.0,280.0,-74.0,127.0,89.0,163,87,85,113,100
2025-02-26 15:15:36.138,4907.0,-6545.0,293.0,-69.0,179.0,187.0,167,89,88,115,101
2025-02-26 15:15:36.145,3672.0,-5837.0,89.0,2.0,186.0,212.0,165,84,82,109,94
2025-02-26 15:15:36.150,2586.0,-4950.0,-97.0,84.0,145.0,243.0,171,92,91,114,98
2025-02-26 15:15:36.154,2015.0,-4092.0,-299.0,114.0,98.0,268.0,172,92,91,115,97
2025-02-26 15:15:36.158,1679.0,-3419.0,-313.0,148.0,73.0,292.0,173,91,91,116,95
2025-02-26 15:15:36.166,1250.0,-2488.0,-39.0,114.0,13.0,314.0,163,81,80,105,84
2025-02-26 15:15:36.171,1124.0,-2167.0,-61.0,72.0,-11.0,330.0,164,81,81,106,84
2025-02-26 15:15:36.174,1180.0,-1746.0,45.0,11.0,-13.0,336.0,161,78,77,102,82
2025-02-26 15:15:36.179,884.0,-1407.0,139.0,-30.0,-5.0,339.0,159,74,74,101,81
2025-02-26 15:15:36.186,854.0,-1465.0,165.0,-100.0,5.0,342.0,156,72,71,96,78
2025-02-26 15:15:36.191,826.0,-1530.0,222.0,-126.0,11.0,349.0,156,72,73,97,81
2025-02-26 15:15:36.195,683.0,-1509.0,145.0,-135.0,23.0,361.0,154,68,71,98,83
2025-02-26 15:15:36.199,630.0,-1609.0,178.0,-142.0,34.0,377.0,152,71,67,94,81
2025-02-26 15:15:36.207,564.0,-1729.0,185.0,-133.0,49.0,385.0,153,68,68,95,81
2025-02-26 15:15:36.209,423.0,-1717.0,210.0,-97.0,45.0,407.0,156,73,75,101,86
2025-02-26 15:15:36.214,333.0,-1628.0,189.0,-77.0,41.0,422.0,156,73,69,99,84
2025-02-26 15:15:36.220,213.0,-1738.0,214.0,-40.0,40.0,433.0,154,71,68,96,84
2025-02-26 15:15:36.227,185.0,-1475.0,64.0,-8.0,31.0,440.0,156,75,72,101,86
2025-02-26 15:15:36.231,177.0,-1175.0,108.0,20.0,16.0,447.0,157,74,73,101,89
2025-02-26 15:15:36.233,122.0,-939.0,22.0,38.0,13.0,452.0,160,76,76,104,89
2025-02-26 15:15:36.240,238.0,-757.0,18.0,39.0,10.0,452.0,165,86,80,107,100
2025-02-26 15:15:36.247,119.0,-584.0,33.0,12.0,16.0,454.0,168,85,82,110,97
2025-02-26 15:15:36.251,108.0,-354.0,34.0,-7.0,10.0,461.0,165,81,79,103,94
2025-02-26 15:15:36.256,176.0,-278.0,75.0,-48.0,4.0,459.0,167,84,81,108,95
2025-02-26 15:15:36.261,72.0,139.0,92.0,-79.0,-9.0,451.0,173,91,92,118,101
2025-02-26 15:15:36.262,19.0,471.0,158.0,-97.0,-7.0,438.0,170,88,86,114,100
2025-02-26 15:15:36.272,14.0,73.0,266.0,-114.0,-7.0,425.0,175,89,89,116,102
2025-02-26 15:15:36.276,-102.0,296.0,219.0,-124.0,-6.0,391.0,186,103,100,127,112
2025-02-26 15:15:36.281,-107.0,456.0,295.0,-131.0,-3.0,353.0,186,101,98,127,110
2025-02-26 15:15:36.285,-191.0,337.0,245.0,-133.0,-1.0,316.0,175,91,89,115,101
2025-02-26 15:15:36.293,-281.0,333.0,214.0,-120.0,-18.0,305.0,173,94,86,114,101
2025-02-26 15:15:36.297,-281.0,253.0,262.0,-133.0,-15.0,282.0,177,92,89,117,103
2025-02-26 15:15:36.301,-417.0,203.0,253.0,-129.0,-9.0,250.0,179,92,91,117,102
2025-02-26 15:15:36.307,-444.0,107.0,204.0,-114.0,-2.0,219.0,177,89,87,114,99
2025-02-26 15:15:36.313,-332.0,134.0,257.0,-98.0,14.0,197.0,178,90,89,114,101
2025-02-26 15:15:36.318,-185.0,96.0,270.0,-84.0,47.0,190.0,180,92,90,116,101
2025-02-26 15:15:36.322,-255.0,-1.0,221.0,-74.0,56.0,186.0,185,97,96,123,108
2025-02-26 15:15:36.330,-324.0,-87.0,209.0,-36.0,54.0,178.0,181,94,92,117,103
2025-02-26 15:15:36.334,-382.0,-100.0,207.0,2.0,43.0,179.0,179,90,88,115,100
2025-02-26 15:15:36.338,-422.0,19.0,220.0,24.0,39.0,182.0,189,101,97,123,109
2025-02-26 15:15:36.342,-390.0,100.0,243.0,40.0,34.0,179.0,185,95,94,119,106
2025-02-26 15:15:36.346,-436.0,184.0,179.0,67.0,37.0,167.0,181,91,88,116,101
2025-02-26 15:15:36.354,-432.0,256.0,187.0,99.0,45.0,161.0,187,95,95,120,104
2025-02-26 15:15:36.358,-468.0,392.0,158.0,115.0,47.0,152.0,190,98,96,124,109
2025-02-26 15:15:36.360,-444.0,516.0,139.0,153.0,46.0,144.0,182,91,89,116,101
2025-02-26 15:15:36.367,-509.0,665.0,217.0,177.0,44.0,142.0,180,89,89,114,99
2025-02-26 15:15:36.374,-450.0,1436.0,364.0,185.0,56.0,140.0,185,94,91,119,104
2025-02-26 15:15:36.378,-1013.0,1196.0,-28.0,231.0,51.0,108.0,188,98,96,120,106
2025-02-26 15:15:36.384,-710.0,1591.0,217.0,260.0,56.0,82.0,185,91,89,115,102
2025-02-26 15:15:36.389,-750.0,2025.0,252.0,297.0,65.0,59.0,181,91,88,113,100
2025-02-26 15:15:36.395,-965.0,1988.0,129.0,371.0,70.0,7.0,187,95,92,116,103
2025-02-26 15:15:36.400,-1038.0,2306.0,95.0,392.0,75.0,-52.0,192,100,99,122,109
2025-02-26 15:15:36.404,-954.0,2999.0,-55.0,407.0,79.0,-128.0,179,89,84,109,98
2025-02-26 15:15:36.412,-1098.0,3427.0,-296.0,401.0,81.0,-172.0,178,85,82,105,92
2025-02-26 15:15:36.416,-1100.0,3691.0,-624.0,343.0,68.0,-263.0,180,89,84,104,93
2025-02-26 15:15:36.420,-1417.0,4099.0,-822.0,255.0,36.0,-373.0,180,86,84,109,93
2025-02-26 15:15:36.428,-1659.0,4344.0,-1108.0,203.0,-41.0,-504.0,179,85,82,105,95
2025-02-26 15:15:36.433,-1705.0,4390.0,-1443.0,94.0,-139.0,-636.0,179,88,81,104,92
2025-02-26 15:15:36.437,-1470.0,4242.0,-1799.0,-19.0,-187.0,-761.0,173,78,76,100,87
2025-02-26 15:15:36.445,-1331.0,3916.0,-2131.0,-125.0,-304.0,-876.0,175,82,77,100,88
2025-02-26 15:15:36.449,-863.0,3524.0,-2502.0,-221.0,-451.0,-975.0,174,79,75,99,86
2025-02-26 15:15:36.457,-119.0,3409.0,-2705.0,-325.0,-610.0,-1015.0,175,81,75,99,86
2025-02-26 15:15:36.461,966.0,3061.0,-2954.0,-456.0,-771.0,-1073.0,180,85,77,100,90
2025-02-26 15:15:36.465,2565.0,2753.0,-3084.0,-600.0,-920.0,-1093.0,178,84,78,102,91
2025-02-26 15:15:36.473,4607.0,1679.0,-3098.0,-740.0,-1012.0,-1058.0,171,84,78,102,92
2025-02-26 15:15:36.477,6541.0,-693.0,-2722.0,-790.0,-1025.0,-921.0,180,84,80,104,93
2025-02-26 15:15:36.486,7374.0,-2959.0,-2086.0,-812.0,-886.0,-743.0,184,89,84,106,98
2025-02-26 15:15:36.487,7074.0,-5809.0,-1001.0,-759.0,-629.0,-530.0,186,90,83,108,99
2025-02-26 15:15:36.494,6588.0,-8683.0,-77.0,-542.0,-287.0,-330.0,188,93,87,110,100
2025-02-26 15:15:36.501,7086.0,-9769.0,506.0,-381.0,56.0,-180.0,190,95,90,114,103
2025-02-26 15:15:36.506,6539.0,-8726.0,147.0,2.0,342.0,-120.0,187,92,86,108,102
2025-02-26 15:15:36.510,5911.0,-7084.0,-881.0,302.0,443.0,-114.0,183,87,82,106,99
2025-02-26 15:15:36.516,4065.0,-6417.0,-2386.0,479.0,546.0,-106.0,184,87,81,106,97
2025-02-26 15:15:36.523,2380.0,-5168.0,-3315.0,521.0,555.0,-86.0,185,90,85,109,101
2025-02-26 15:15:36.527,916.0,-3911.0,-4549.0,557.0,365.0,-4.0,200,102,98,120,108
2025-02-26 15:15:36.534,-500.0,-1255.0,-3818.0,337.0,168.0,81.0,210,116,110,132,120
2025-02-26 15:15:36.538,166.0,-172.0,-3230.0,168.0,-6.0,108.0,206,111,106,129,118
2025-02-26 15:15:36.543,-461.0,-224.0,-2177.0,34.0,-152.0,122.0,197,103,96,120,110
2025-02-26 15:15:36.548,-73.0,-1111.0,-1529.0,-91.0,-190.0,127.0,191,95,90,115,105
2025-02-26 15:15:36.555,303.0,-1726.0,-738.0,-191.0,-194.0,161.0,192,96,91,115,105
2025-02-26 15:15:36.563,799.0,-2185.0,-369.0,-123.0,-264.0,139.0,184,98,91,111,109
2025-02-26 15:15:36.568,1313.0,-2841.0,506.0,-77.0,-155.0,161.0,194,99,92,118,108
2025-02-26 15:15:36.572,1588.0,-2860.0,841.0,20.0,-67.0,163.0,195,102,97,121,110
2025-02-26 15:15:36.576,1417.0,-2770.0,828.0,119.0,18.0,157.0,197,102,95,123,113
2025-02-26 15:15:36.584,1190.0,-2369.0,852.0,158.0,146.0,164.0,197,99,96,120,112
2025-02-26 15:15:36.588,728.0,-1933.0,755.0,191.0,149.0,170.0,192,98,93,119,110
2025-02-26 15:15:36.592,736.0,-1991.0,409.0,241.0,193.0,207.0,193,96,91,116,109
2025-02-26 15:15:36.600,645.0,-1680.0,252.0,256.0,163.0,224.0,200,106,101,126,117
2025-02-26 15:15:36.604,203.0,-1260.0,106.0,223.0,170.0,248.0,198,103,96,122,113
2025-02-26 15:15:36.609,-352.0,-763.0,110.0,162.0,156.0,277.0,197,102,98,120,112
2025-02-26 15:15:36.614,-63.0,-781.0,-109.0,128.0,136.0,292.0,193,100,95,119,114
2025-02-26 15:15:36.621,-87.0,-815.0,-355.0,75.0,130.0,312.0,193,101,97,120,109
2025-02-26 15:15:36.624,-210.0,-653.0,-100.0,9.0,90.0,317.0,193,98,92,117,107
2025-02-26 15:15:36.633,-147.0,-322.0,-189.0,-67.0,91.0,316.0,198,102,96,122,111
2025-02-26 15:15:36.637,-47.0,-155.0,-63.0,-84.0,42.0,307.0,196,102,97,121,113
2025-02-26 15:15:36.641,61.0,-256.0,28.0,-87.0,-5.0,303.0,194,105,95,118,108
2025-02-26 15:15:36.646,147.0,-541.0,-12.0,-83.0,-7.0,306.0,194,100,94,119,107
2025-02-26 15:15:36.651,165.0,-578.0,157.0,-76.0,-27.0,314.0,195,102,97,123,111
2025-02-26 15:15:36.658,278.0,-601.0,265.0,-84.0,-24.0,317.0,198,101,95,121,110
2025-02-26 15:15:36.661,428.0,-735.0,425.0,-84.0,21.0,313.0,197,100,97,123,112
2025-02-26 15:15:36.664,482.0,-702.0,462.0,-91.0,43.0,305.0,192,96,94,118,104
2025-02-26 15:15:36.673,526.0,-748.0,488.0,-85.0,94.0,302.0,195,99,95,120,108
2025-02-26 15:15:36.678,496.0,-657.0,466.0,-70.0,153.0,290.0,199,105,100,126,113
2025-02-26 15:15:36.683,355.0,-623.0,345.0,-47.0,173.0,278.0,195,98,94,122,109
2025-02-26 15:15:36.688,241.0,-658.0,228.0,17.0,167.0,269.0,192,96,92,117,105
2025-02-26 15:15:36.695,193.0,-668.0,13.0,68.0,161.0,271.0,191,95,89,115,103
2025-02-26 15:15:36.699,65.0,-631.0,39.0,90.0,147.0,279.0,199,106,102,126,113
2025-02-26 15:15:36.699,20.0,-549.0,-50.0,96.0,145.0,289.0,195,96,95,121,109
2025-02-26 15:15:36.711,-24.0,-464.0,-64.0,96.0,151.0,303.0,191,93,92,116,104
2025-02-26 15:15:36.715,25.0,-404.0,-31.0,81.0,163.0,310.0,194,98,95,121,109
2025-02-26 15:15:36.719,-30.0,-367.0,5.0,66.0,161.0,321.0,199,103,100,125,113
2025-02-26 15:15:36.724,-90.0,-310.0,27.0,68.0,153.0,319.0,193,98,93,119,107
2025-02-26 15:15:36.730,-122.0,-402.0,25.0,92.0,147.0,319.0,191,97,92,118,106
2025-02-26 15:15:36.736,-42.0,-406.0,68.0,129.0,132.0,320.0,196,100,95,120,109
2025-02-26 15:15:36.740,44.0,-472.0,148.0,152.0,127.0,333.0,198,100,97,124,113
2025-02-26 15:15:36.744,67.0,-429.0,170.0,163.0,136.0,345.0,191,94,92,120,105
2025-02-26 15:15:36.751,57.0,-302.0,166.0,179.0,141.0,356.0,191,94,94,118,106
2025-02-26 15:15:36.756,8.0,-357.0,162.0,187.0,152.0,364.0,193,101,96,121,108
2025-02-26 15:15:36.760,243.0,25.0,256.0,146.0,166.0,394.0,198,102,98,124,110
2025-02-26 15:15:36.765,-485.0,-135.0,-300.0,170.0,180.0,396.0,193,95,92,117,104
2025-02-26 15:15:36.772,-452.0,-116.0,-255.0,216.0,179.0,384.0,187,92,89,113,101
2025-02-26 15:15:36.776,-453.0,131.0,-105.0,257.0,138.0,384.0,189,94,91,115,102
2025-02-26 15:15:36.779,-330.0,298.0,-264.0,307.0,131.0,370.0,191,95,92,117,104
2025-02-26 15:15:36.789,-504.0,244.0,-424.0,354.0,125.0,342.0,186,93,92,116,103
2025-02-26 15:15:36.791,-508.0,549.0,-398.0,405.0,120.0,325.0,183,88,85,111,97
2025-02-26 15:15:36.797,-438.0,824.0,-456.0,436.0,113.0,312.0,185,88,85,110,98
2025-02-26 15:15:36.804,-429.0,948.0,-507.0,466.0,119.0,300.0,187,92,90,115,101
2025-02-26 15:15:36.809,-493.0,1249.0,-542.0,488.0,120.0,266.0,187,93,92,117,103
2025-02-26 15:15:36.813,-609.0,1567.0,-719.0,502.0,109.0,230.0,186,93,90,114,102
2025-02-26 15:15:36.818,-626.0,1808.0,-905.0,518.0,98.0,186.0,187,96,93,117,104
2025-02-26 15:15:36.825,-704.0,2004.0,-1057.0,521.0,91.0,138.0,181,90,89,113,100
2025-02-26 15:15:36.830,-977.0,2219.0,-1210.0,499.0,64.0,108.0,188,94,89,114,100
2025-02-26 15:15:36.832,-1223.0,2658.0,-1205.0,464.0,22.0,33.0,186,95,93,118,104
2025-02-26 15:15:36.842,-1274.0,3069.0,-1256.0,421.0,-30.0,-57.0,188,97,94,119,105
2025-02-26 15:15:36.846,-1215.0,3414.0,-1250.0,392.0,-69.0,-163.0,187,95,93,116,103
2025-02-26 15:15:36.854,-1269.0,3728.0,-1269.0,316.0,-114.0,-287.0,190,100,96,120,108
2025-02-26 15:15:36.858,-1249.0,3723.0,-1202.0,232.0,-160.0,-415.0,194,105,101,123,111
2025-02-26 15:15:36.860,-1318.0,3529.0,-1190.0,146.0,-226.0,-546.0,193,103,100,124,111
2025-02-26 15:15:36.871,-1252.0,3269.0,-1305.0,67.0,-297.0,-667.0,184,95,90,113,101
2025-02-26 15:15:36.875,-1316.0,3030.0,-1414.0,-10.0,-334.0,-782.0,181,90,86,110,95
2025-02-26 15:15:36.883,-1203.0,2857.0,-1660.0,-80.0,-450.0,-896.0,180,91,86,111,97
2025-02-26 15:15:36.887,-739.0,2889.0,-1957.0,-161.0,-578.0,-996.0,179,90,84,111,96
2025-02-26 15:15:36.892,-6.0,2985.0,-2216.0,-269.0,-726.0,-1039.0,179,87,80,108,94
2025-02-26 15:15:36.899,1104.0,3069.0,-2456.0,-426.0,-884.0,-1108.0,183,91,90,112,99
2025-02-26 15:15:36.902,2756.0,2665.0,-2670.0,-604.0,-1034.0,-1145.0,185,94,89,113,99
2025-02-26 15:15:36.909,4746.0,1347.0,-2750.0,-768.0,-1141.0,-1132.0,185,95,88,114,100
2025-02-26 15:15:36.915,6831.0,-735.0,-2338.0,-842.0,-1161.0,-1019.0,185,93,88,113,100
2025-02-26 15:15:36.918,7869.0,-3504.0,-1520.0,-874.0,-1057.0,-838.0,181,93,89,116,102
2025-02-26 15:15:36.928,7488.0,-6048.0,-848.0,-917.0,-870.0,-607.0,187,94,88,112,100
2025-02-26 15:15:36.932,6810.0,-7534.0,-468.0,-921.0,-625.0,-341.0,185,92,86,110,100
2025-02-26 15:15:36.940,6371.0,-8262.0,-67.0,-755.0,-356.0,-115.0,187,94,90,115,103
2025-02-26 15:15:36.941,6006.0,-8362.0,155.0,-456.0,-94.0,23.0,184,91,87,112,103
2025-02-26 15:15:36.948,5354.0,-7757.0,246.0,-285.0,103.0,62.0,182,90,85,116,101
2025-02-26 15:15:36.953,4791.0,-7139.0,-409.0,32.0,182.0,85.0,181,89,84,109,97
2025-02-26 15:15:36.959,3313.0,-6522.0,-1395.0,310.0,296.0,91.0,183,88,85,109,98
2025-02-26 15:15:36.965,2189.0,-4851.0,-3251.0,474.0,388.0,113.0,184,89,87,108,95
2025-02-26 15:15:36.971,-143.0,-3222.0,-417.0,407.0,192.0,201.0,183,90,87,108,95
2025-02-26 15:15:36.977,508.0,-2353.0,-3208.0,412.0,168.0,230.0,180,88,85,108,96
2025-02-26 15:15:36.977,508.0,-1199.0,-2012.0,357.0,-52.0,271.0,177,90,86,113,96
2025-02-26 15:15:36.989,-223.0,-605.0,-1408.0,236.0,-65.0,256.0,183,88,84,108,95
2025-02-26 15:15:36.993,222.0,-546.0,-1107.0,32.0,168.0,247.0,179,85,83,107,95
2025-02-26 15:15:36.997,327.0,-524.0,-289.0,2.0,-38.0,217.0,190,93,91,112,101
2025-02-26 15:15:37.002,259.0,-1223.0,-299.0,2.0,-26.0,220.0,187,94,89,114,103
2025-02-26 15:15:37.006,394.0,-1793.0,191.0,13.0,-37.0,250.0,183,89,85,111,100
2025-02-26 15:15:37.014,289.0,-1612.0,265.0,41.0,-20.0,242.0,181,88,84,111,99
2025-02-26 15:15:37.018,577.0,-1972.0,362.0,63.0,57.0,264.0,206,116,113,136,126
2025-02-26 15:15:37.022,836.0,-1549.0,519.0,89.0,138.0,283.0,188,95,91,120,106
2025-02-26 15:15:37.024,453.0,-1715.0,483.0,130.0,173.0,292.0,185,92,87,117,104
2025-02-26 15:15:37.034,474.0,-1523.0,475.0,165.0,205.0,302.0,182,90,87,113,100
2025-02-26 15:15:37.037,104.0,-1570.0,286.0,200.0,213.0,322.0,186,93,88,118,103
2025-02-26 15:15:37.046,186.0,-1495.0,370.0,225.0,185.0,344.0,186,93,93,121,108
2025-02-26 15:15:37.048,-7.0,-1442.0,404.0,261.0,140.0,383.0,186,92,92,119,106
2025-02-26 15:15:37.055,75.0,-1019.0,361.0,237.0,163.0,397.0,181,88,88,118,106
2025-02-26 15:15:37.060,197.0,-603.0,317.0,188.0,172.0,409.0,192,98,98,126,114
2025-02-26 15:15:37.069,224.0,-602.0,348.0,168.0,193.0,411.0,196,104,102,132,119
2025-02-26 15:15:37.069,371.0,-28.0,146.0,90.0,238.0,400.0,196,103,101,132,121
2025-02-26 15:15:37.069,279.0,-50.0,406.0,60.0,297.0,392.0,192,103,101,131,120
2025-02-26 15:15:37.082,172.0,47.0,183.0,-40.0,322.0,390.0,192,103,99,131,117
2025-02-26 15:15:37.087,128.0,-256.0,169.0,2.0,332.0,391.0,190,99,97,132,120
2025-02-26 15:15:37.091,46.0,24.0,-358.0,23.0,286.0,393.0,193,107,104,136,126
2025-02-26 15:15:37.091,-119.0,-311.0,195.0,73.0,236.0,404.0,193,105,105,138,127
2025-02-26 15:15:37.103,-468.0,-220.0,139.0,92.0,194.0,409.0,191,102,104,136,127
2025-02-26 15:15:37.108,-81.0,-354.0,91.0,150.0,137.0,418.0,189,103,105,137,132
2025-02-26 15:15:37.113,456.0,-353.0,485.0,66.0,133.0,420.0,193,107,108,139,138
2025-02-26 15:15:37.120,456.0,-383.0,315.0,-19.0,175.0,418.0,195,112,114,147,144
2025-02-26 15:15:37.124,322.0,-276.0,412.0,-13.0,248.0,410.0,190,107,110,146,142
2025-02-26 15:15:37.128,221.0,76.0,-106.0,37.0,320.0,405.0,187,108,106,145,139
2025-02-26 15:15:37.137,128.0,-254.0,-1109.0,113.0,340.0,418.0,187,109,109,145,138
2025-02-26 15:15:37.141,28.0,-88.0,-986.0,240.0,323.0,423.0,188,108,110,148,140
2025-02-26 15:15:37.146,-146.0,69.0,-600.0,325.0,320.0,411.0,190,117,116,153,144
2025-02-26 15:15:37.153,-337.0,219.0,-643.0,384.0,270.0,390.0,189,118,114,150,144
2025-02-26 15:15:37.157,-683.0,242.0,-694.0,427.0,192.0,369.0,188,120,116,148,145
2025-02-26 15:15:37.162,-765.0,347.0,-395.0,456.0,166.0,345.0,185,121,116,154,140
2025-02-26 15:15:37.166,-613.0,346.0,-314.0,484.0,151.0,324.0,184,122,119,151,141
2025-02-26 15:15:37.166,-336.0,341.0,-440.0,478.0,144.0,305.0,183,123,120,149,139
2025-02-26 15:15:37.178,-256.0,522.0,-541.0,444.0,137.0,271.0,192,134,130,162,148
2025-02-26 15:15:37.186,-363.0,563.0,-661.0,407.0,146.0,245.0,191,133,127,161,147
2025-02-26 15:15:37.189,-259.0,708.0,-823.0,378.0,102.0,209.0,186,133,128,159,145
2025-02-26 15:15:37.194,-334.0,581.0,-437.0,370.0,94.0,198.0,187,132,129,159,145
2025-02-26 15:15:37.202,-537.0,594.0,-120.0,335.0,97.0,195.0,185,132,128,158,144
2025-02-26 15:15:37.206,-813.0,673.0,-195.0,295.0,101.0,184.0,184,124,127,159,144
2025-02-26 15:15:37.211,-815.0,654.0,-707.0,265.0,68.0,174.0,188,133,128,158,141
2025-02-26 15:15:37.217,-712.0,824.0,-957.0,222.0,18.0,145.0,189,141,133,160,148
2025-02-26 15:15:37.223,-646.0,1194.0,-1135.0,163.0,-27.0,102.0,188,146,134,162,155
2025-02-26 15:15:37.225,-764.0,1431.0,-1413.0,153.0,-79.0,56.0,187,142,131,160,150
2025-02-26 15:15:37.235,-1020.0,1540.0,-1640.0,143.0,-137.0,0.0,183,142,132,160,152
2025-02-26 15:15:37.240,-1164.0,1717.0,-1836.0,126.0,-167.0,-64.0,186,146,134,161,152
2025-02-26 15:15:37.247,-1227.0,1976.0,-1975.0,104.0,-222.0,-143.0,182,132,131,158,152
2025-02-26 15:15:37.250,-1194.0,2164.0,-2186.0,77.0,-285.0,-228.0,185,144,131,156,152
2025-02-26 15:15:37.256,-1199.0,2195.0,-2316.0,40.0,-371.0,-314.0,184,145,133,156,153
2025-02-26 15:15:37.262,-1233.0,2190.0,-2175.0,5.0,-449.0,-401.0,184,147,135,156,156
2025-02-26 15:15:37.268,-1270.0,2097.0,-2008.0,-40.0,-516.0,-489.0,180,148,131,155,156
2025-02-26 15:15:37.276,-1141.0,2083.0,-1896.0,-104.0,-576.0,-580.0,180,148,134,156,159
2025-02-26 15:15:37.281,-872.0,2128.0,-1797.0,-168.0,-615.0,-667.0,184,155,138,158,163
2025-02-26 15:15:37.288,-452.0,2187.0,-1540.0,-217.0,-641.0,-740.0,183,151,138,155,162
2025-02-26 15:15:37.292,-10.0,2214.0,-1549.0,-251.0,-682.0,-789.0,182,149,137,156,163
2025-02-26 15:15:37.297,678.0,2202.0,-1601.0,-315.0,-749.0,-826.0,183,150,140,158,162
2025-02-26 15:15:37.304,1823.0,1809.0,-1771.0,-391.0,-847.0,-842.0,184,151,141,158,163
2025-02-26 15:15:37.309,2920.0,483.0,-1127.0,-486.0,-906.0,-830.0,183,153,142,160,161
2025-02-26 15:15:37.317,3726.0,-508.0,-36.0,-544.0,-886.0,-797.0,183,152,144,155,162
2025-02-26 15:15:37.322,4238.0,-1484.0,283.0,-558.0,-857.0,-762.0,185,157,147,163,165
2025-02-26 15:15:37.329,4887.0,-1697.0,589.0,-595.0,-904.0,-700.0,183,158,149,162,163
2025-02-26 15:15:37.333,5376.0,-2647.0,355.0,-668.0,-931.0,-594.0,183,159,148,161,163
2025-02-26 15:15:37.338,4911.0,-3388.0,-140.0,-717.0,-874.0,-482.0,189,164,156,168,166
2025-02-26 15:15:37.346,4392.0,-5016.0,-563.0,-734.0,-781.0,-344.0,183,163,155,165,164
2025-02-26 15:15:37.350,4097.0,-5849.0,-770.0,-618.0,-715.0,-188.0,182,161,154,166,164
2025-02-26 15:15:37.358,3848.0,-5957.0,-152.0,-425.0,-539.0,-65.0,179,161,153,166,164
2025-02-26 15:15:37.362,3625.0,-6329.0,-682.0,-243.0,-309.0,43.0,183,165,156,166,166
2025-02-26 15:15:37.370,3258.0,-6257.0,-1250.0,-98.0,-115.0,128.0,185,165,158,169,169
2025-02-26 15:15:37.374,3130.0,-5319.0,-530.0,-19.0,14.0,172.0,184,164,155,169,167
2025-02-26 15:15:37.379,2801.0,-4626.0,-848.0,-17.0,29.0,196.0,195,173,158,176,175
2025-02-26 15:15:37.386,2240.0,-3613.0,-1434.0,13.0,43.0,200.0,194,172,162,177,177
2025-02-26 15:15:37.391,1083.0,-2721.0,-755.0,103.0,83.0,213.0,287,267,258,272,272
2025-02-26 15:15:37.395,871.0,-1716.0,-302.0,211.0,138.0,197.0,268,246,236,252,251
2025-02-26 15:15:37.403,761.0,-1041.0,447.0,284.0,146.0,200.0,216,192,183,195,196
2025-02-26 15:15:37.407,770.0,-1391.0,991.0,353.0,166.0,232.0,191,164,154,168,167
2025-02-26 15:15:37.412,119.0,-1505.0,534.0,437.0,146.0,253.0,184,158,146,162,162
2025-02-26 15:15:37.419,73.0,-1405.0,485.0,313.0,155.0,299.0,192,166,155,171,171
2025-02-26 15:15:37.424,-116.0,-1456.0,157.0,142.0,195.0,350.0,190,166,155,170,172
2025-02-26 15:15:37.428,142.0,-911.0,-112.0,93.0,178.0,363.0,192,166,155,172,171
2025-02-26 15:15:37.435,125.0,-714.0,396.0,115.0,140.0,354.0,190,165,156,171,172
2025-02-26 15:15:37.440,156.0,-877.0,716.0,192.0,128.0,333.0,191,163,152,167,170
2025-02-26 15:15:37.444,-101.0,-926.0,417.0,266.0,100.0,327.0,185,159,147,163,165
2025-02-26 15:15:37.451,-181.0,-945.0,259.0,294.0,89.0,305.0,190,162,151,168,167
2025-02-26 15:15:37.451,-133.0,-855.0,-425.0,215.0,48.0,301.0,188,161,151,167,166
2025-02-26 15:15:37.460,58.0,-1120.0,657.0,230.0,139.0,278.0,190,163,153,169,169
2025-02-26 15:15:37.469,540.0,-418.0,330.0,290.0,205.0,228.0,186,160,148,166,167
2025-02-26 15:15:37.473,335.0,-760.0,550.0,347.0,243.0,184.0,182,156,148,167,162
2025-02-26 15:15:37.477,17.0,-1436.0,481.0,348.0,312.0,199.0,181,153,142,159,160
2025-02-26 15:15:37.485,-143.0,-1322.0,617.0,218.0,314.0,186.0,196,168,160,177,176
2025-02-26 15:15:37.489,111.0,-890.0,766.0,66.0,272.0,177.0,203,176,166,181,182
2025-02-26 15:15:37.492,155.0,-815.0,592.0,69.0,198.0,207.0,199,171,162,176,179
2025-02-26 15:15:37.501,-252.0,-798.0,222.0,73.0,196.0,240.0,195,166,156,172,174
2025-02-26 15:15:37.506,-272.0,-788.0,-12.0,41.0,190.0,267.0,188,160,151,166,168
2025-02-26 15:15:37.506,-193.0,-716.0,341.0,-20.0,185.0,282.0,184,154,144,161,161
2025-02-26 15:15:37.517,-180.0,-384.0,386.0,-51.0,187.0,296.0,189,160,151,166,168
2025-02-26 15:15:37.521,-304.0,-391.0,293.0,-66.0,171.0,308.0,192,163,154,170,172
2025-02-26 15:15:37.526,-300.0,-422.0,-29.0,-101.0,132.0,319.0,188,161,150,165,167
2025-02-26 15:15:37.533,-181.0,-290.0,80.0,-124.0,104.0,320.0,189,158,148,163,165
2025-02-26 15:15:37.538,30.0,-203.0,344.0,-169.0,91.0,309.0,183,154,145,161,162
2025-02-26 15:15:37.542,-40.0,-131.0,372.0,-207.0,76.0,292.0,183,155,145,160,162
2025-02-26 15:15:37.547,-12.0,-97.0,279.0,-225.0,60.0,284.0,185,156,146,162,163
2025-02-26 15:15:37.554,-191.0,-232.0,377.0,-241.0,71.0,279.0,187,157,146,163,165
2025-02-26 15:15:37.559,-200.0,-215.0,274.0,-250.0,87.0,266.0,188,161,151,167,168
2025-02-26 15:15:37.559,4.0,-264.0,251.0,-271.0,95.0,238.0,184,153,145,162,164
2025-02-26 15:15:37.571,-35.0,-104.0,-217.0,-242.0,94.0,229.0,182,147,143,160,160
2025-02-26 15:15:37.575,-90.0,-90.0,-244.0,-141.0,108.0,229.0,182,151,141,158,162
2025-02-26 15:15:37.577,-404.0,14.0,-215.0,-84.0,127.0,224.0,186,154,147,164,166
2025-02-26 15:15:37.587,-568.0,35.0,-45.0,-42.0,137.0,225.0,185,152,144,163,165
2025-02-26 15:15:37.589,-652.0,49.0,68.0,-34.0,116.0,220.0,184,153,145,163,164
2025-02-26 15:15:37.595,-704.0,-66.0,431.0,12.0,115.0,212.0,183,150,141,160,164
2025-02-26 15:15:37.604,-625.0,-69.0,73.0,74.0,58.0,200.0,182,151,142,161,162
2025-02-26 15:15:37.607,-654.0,84.0,303.0,123.0,47.0,189.0,186,155,145,165,166
2025-02-26 15:15:37.612,-586.0,74.0,59.0,143.0,46.0,177.0,184,153,145,161,165
2025-02-26 15:15:37.617,-507.0,48.0,66.0,158.0,37.0,168.0,182,152,143,161,163
2025-02-26 15:15:37.624,-528.0,63.0,89.0,193.0,33.0,159.0,185,151,143,159,162
2025-02-26 15:15:37.625,-425.0,98.0,155.0,252.0,29.0,154.0,185,156,146,164,166
2025-02-26 15:15:37.632,-367.0,88.0,192.0,288.0,31.0,147.0,184,153,145,164,166
2025-02-26 15:15:37.638,-389.0,239.0,292.0,309.0,28.0,136.0,183,153,143,162,163
2025-02-26 15:15:37.644,-499.0,84.0,173.0,369.0,27.0,138.0,182,151,141,160,162
2025-02-26 15:15:37.648,-533.0,96.0,262.0,399.0,33.0,134.0,185,153,143,162,164
2025-02-26 15:15:37.653,-337.0,206.0,308.0,438.0,45.0,125.0,184,155,143,163,166
2025-02-26 15:15:37.661,-456.0,298.0,75.0,460.0,42.0,116.0,187,156,146,165,169
2025-02-26 15:15:37.665,-580.0,414.0,208.0,509.0,47.0,103.0,180,150,142,161,165
2025-02-26 15:15:37.669,-754.0,568.0,225.0,468.0,66.0,99.0,181,149,141,160,162
2025-02-26 15:15:37.674,-763.0,879.0,-124.0,421.0,71.0,85.0,185,154,143,162,166
2025-02-26 15:15:37.681,-785.0,1209.0,-273.0,426.0,40.0,77.0,185,156,145,166,170
2025-02-26 15:15:37.686,-914.0,1462.0,-504.0,422.0,11.0,52.0,184,154,144,163,167
2025-02-26 15:15:37.686,-1010.0,1888.0,-503.0,350.0,5.0,10.0,181,150,139,160,164
2025-02-26 15:15:37.697,-1055.0,2157.0,-1144.0,297.0,-43.0,-39.0,182,151,139,161,164
2025-02-26 15:15:37.703,-1317.0,2298.0,-1491.0,253.0,-104.0,-70.0,185,151,139,161,166
2025-02-26 15:15:37.710,-1451.0,2414.0,-1569.0,196.0,-162.0,-149.0,180,149,140,161,166
2025-02-26 15:15:37.710,-1493.0,2513.0,-1680.0,139.0,-225.0,-247.0,179,151,139,160,166
2025-02-26 15:15:37.722,-1469.0,2600.0,-1599.0,104.0,-302.0,-351.0,183,154,142,163,169
2025-02-26 15:15:37.723,-1376.0,2645.0,-1540.0,55.0,-367.0,-459.0,181,152,139,161,168
2025-02-26 15:15:37.731,-1165.0,2727.0,-1631.0,1.0,-422.0,-566.0,178,152,138,160,161
2025-02-26 15:15:37.735,-868.0,2585.0,-1390.0,-38.0,-460.0,-665.0,183,157,142,163,170
2025-02-26 15:15:37.743,-492.0,2154.0,-1220.0,-100.0,-494.0,-753.0,188,162,150,169,176
2025-02-26 15:15:37.747,52.0,1806.0,-1124.0,-172.0,-536.0,-819.0,185,159,143,167,174
2025-02-26 15:15:37.755,713.0,1501.0,-826.0,-227.0,-574.0,-858.0,185,159,145,165,171
2025-02-26 15:15:37.759,1641.0,927.0,-558.0,-323.0,-615.0,-871.0,186,161,150,167,174
2025-02-26 15:15:37.767,2956.0,38.0,181.0,-452.0,-715.0,-867.0,184,162,150,167,174
2025-02-26 15:15:37.771,4106.0,-1070.0,792.0,-431.0,-783.0,-862.0,178,162,151,165,171
2025-02-26 15:15:37.780,4586.0,-1860.0,1049.0,-395.0,-737.0,-822.0,184,162,151,166,172
2025-02-26 15:15:37.783,4653.0,-2445.0,19.0,-371.0,-714.0,-670.0,184,165,152,167,172
2025-02-26 15:15:37.788,4681.0,-2786.0,12.0,-337.0,-657.0,-523.0,185,166,156,171,172
2025-02-26 15:15:37.795,4276.0,-4158.0,444.0,-365.0,-576.0,-390.0,189,169,157,172,174
2025-02-26 15:15:37.801,3966.0,-5308.0,528.0,-491.0,-488.0,-255.0,191,170,160,175,176
2025-02-26 15:15:37.808,3576.0,-4973.0,209.0,-471.0,-423.0,-110.0,192,170,160,176,176
2025-02-26 15:15:37.813,3317.0,-5074.0,144.0,-400.0,-337.0,23.0,191,170,160,173,174
2025-02-26 15:15:37.820,3179.0,-5360.0,30.0,-407.0,-284.0,119.0,191,167,156,171,172
2025-02-26 15:15:37.825,3131.0,-5032.0,-434.0,-354.0,-210.0,175.0,190,167,155,171,172
2025-02-26 15:15:37.829,2804.0,-4484.0,-357.0,-300.0,-158.0,200.0,189,165,153,170,170
2025-02-26 15:15:37.837,2388.0,-3682.0,-205.0,-208.0,-111.0,204.0,188,164,154,169,171
2025-02-26 15:15:37.841,1866.0,-3180.0,183.0,-109.0,-33.0,209.0,193,168,158,174,174
2025-02-26 15:15:37.846,1326.0,-2653.0,227.0,2.0,27.0,211.0,187,161,151,168,170
2025-02-26 15:15:37.851,1178.0,-2428.0,291.0,86.0,69.0,205.0,189,163,160,172,170
2025-02-26 15:15:37.858,914.0,-2010.0,187.0,160.0,101.0,206.0,189,164,153,169,170
2025-02-26 15:15:37.862,692.0,-1702.0,373.0,165.0,121.0,214.0,212,184,175,193,194
2025-02-26 15:15:37.870,529.0,-1635.0,312.0,203.0,111.0,236.0,207,181,171,189,191
2025-02-26 15:15:37.874,444.0,-1583.0,365.0,210.0,107.0,255.0,203,174,166,185,185
2025-02-26 15:15:37.879,402.0,-1546.0,304.0,200.0,121.0,282.0,209,182,170,190,190
2025-02-26 15:15:37.886,240.0,-1485.0,520.0,172.0,157.0,293.0,203,175,164,183,185
2025-02-26 15:15:37.890,257.0,-1311.0,581.0,176.0,194.0,308.0,201,174,162,182,183
2025-02-26 15:15:37.894,146.0,-1231.0,647.0,197.0,225.0,314.0,206,176,166,186,187
2025-02-26 15:15:37.902,72.0,-1187.0,584.0,210.0,234.0,315.0,207,177,166,187,188
2025-02-26 15:15:37.904,-14.0,-1203.0,621.0,234.0,251.0,314.0,205,171,163,186,183
2025-02-26 15:15:37.911,-25.0,-1034.0,149.0,243.0,238.0,306.0,198,169,157,182,181
2025-02-26 15:15:37.916,-39.0,-1058.0,197.0,301.0,241.0,303.0,202,166,156,182,182
2025-02-26 15:15:37.923,-163.0,-1140.0,36.0,249.0,218.0,301.0,210,173,165,190,188
2025-02-26 15:15:37.927,67.0,-810.0,243.0,256.0,247.0,286.0,208,170,161,187,188
2025-02-26 15:15:37.935,145.0,-660.0,329.0,185.0,286.0,265.0,209,170,161,186,187
2025-02-26 15:15:37.940,188.0,-732.0,1135.0,105.0,304.0,246.0,209,170,161,187,189
2025-02-26 15:15:37.944,349.0,-623.0,676.0,51.0,289.0,226.0,204,166,157,182,184
2025-02-26 15:15:37.952,238.0,-706.0,307.0,55.0,270.0,225.0,200,160,154,180,182
2025-02-26 15:15:37.956,43.0,-737.0,286.0,35.0,288.0,237.0,208,168,159,185,188
2025-02-26 15:15:37.960,73.0,-675.0,292.0,-38.0,306.0,239.0,209,169,160,187,191
2025-02-26 15:15:37.967,228.0,-567.0,176.0,-62.0,286.0,258.0,208,164,158,185,189
2025-02-26 15:15:37.971,93.0,-454.0,383.0,-55.0,286.0,290.0,202,159,152,179,184
2025-02-26 15:15:37.977,-168.0,-546.0,208.0,-35.0,268.0,310.0,201,160,149,178,182
2025-02-26 15:15:37.983,-213.0,-434.0,139.0,-34.0,246.0,332.0,208,163,156,185,189
2025-02-26 15:15:37.989,-87.0,-403.0,202.0,-71.0,242.0,332.0,207,161,154,185,188
2025-02-26 15:15:37.992,-60.0,-400.0,-2.0,-136.0,221.0,338.0,205,161,152,183,186
2025-02-26 15:15:38.001,-85.0,-309.0,91.0,-152.0,207.0,342.0,209,159,151,186,187
2025-02-26 15:15:38.005,-84.0,-144.0,154.0,-195.0,204.0,338.0,204,151,143,178,179
2025-02-26 15:15:38.009,-17.0,-77.0,194.0,-234.0,201.0,334.0,201,147,143,177,175
2025-02-26 15:15:38.017,-86.0,-38.0,-68.0,-261.0,176.0,326.0,207,148,145,180,176
2025-02-26 15:15:38.019,-110.0,-105.0,-183.0,-227.0,129.0,333.0,209,149,150,183,176
2025-02-26 15:15:38.026,-109.0,20.0,124.0,-180.0,137.0,317.0,207,144,146,180,171
2025-02-26 15:15:38.034,-166.0,-196.0,-70.0,-148.0,155.0,317.0,197,139,143,175,166
2025-02-26 15:15:38.038,-206.0,-72.0,-223.0,-91.0,167.0,311.0,200,136,139,175,162
2025-02-26 15:15:38.042,-271.0,-7.0,-21.0,-59.0,181.0,303.0,200,133,139,172,161
2025-02-26 15:15:38.046,-392.0,45.0,11.0,-36.0,199.0,301.0,201,133,135,169,157
2025-02-26 15:15:38.052,-517.0,94.0,-79.0,48.0,174.0,301.0,204,138,142,176,161
2025-02-26 15:15:38.059,-536.0,235.0,-51.0,95.0,143.0,293.0,207,140,143,180,163
2025-02-26 15:15:38.063,-540.0,353.0,-186.0,171.0,119.0,279.0,202,133,135,174,157
2025-02-26 15:15:38.070,-529.0,522.0,-295.0,221.0,108.0,263.0,198,130,131,170,153
2025-02-26 15:15:38.075,-596.0,572.0,-365.0,289.0,83.0,256.0,197,127,130,169,153
2025-02-26 15:15:38.079,-634.0,651.0,-238.0,360.0,69.0,246.0,209,137,138,179,163
2025-02-26 15:15:38.087,-609.0,681.0,-251.0,423.0,54.0,237.0,205,131,136,175,159
2025-02-26 15:15:38.091,-521.0,806.0,-353.0,460.0,39.0,227.0,204,123,130,171,156
2025-02-26 15:15:38.095,-479.0,931.0,-306.0,520.0,50.0,203.0,199,116,125,168,152
2025-02-26 15:15:38.103,-504.0,974.0,-413.0,497.0,50.0,181.0,200,122,123,166,153
2025-02-26 15:15:38.108,-405.0,1066.0,-525.0,513.0,36.0,163.0,199,115,122,162,149
2025-02-26 15:15:38.112,-446.0,1156.0,-782.0,511.0,31.0,127.0,204,122,128,171,152
2025-02-26 15:15:38.119,-529.0,1397.0,-763.0,476.0,53.0,82.0,204,122,127,168,154
2025-02-26 15:15:38.124,-572.0,1742.0,-1021.0,464.0,51.0,17.0,201,121,124,165,149
2025-02-26 15:15:38.128,-824.0,2048.0,-1295.0,436.0,32.0,-63.0,200,120,121,151,142
2025-02-26 15:15:38.136,-962.0,2198.0,-1389.0,402.0,25.0,-148.0,198,116,116,144,133
2025-02-26 15:15:38.140,-1256.0,2564.0,-1645.0,336.0,-8.0,-256.0,198,121,112,152,133
2025-02-26 15:15:38.148,-1594.0,2750.0,-1596.0,250.0,-38.0,-365.0,196,114,112,146,125
2025-02-26 15:15:38.153,-1750.0,3072.0,-1851.0,148.0,-98.0,-484.0,201,112,112,139,122
2025-02-26 15:15:38.157,-1949.0,3149.0,-2087.0,42.0,-189.0,-541.0,195,112,112,142,120
2025-02-26 15:15:38.165,-1880.0,3392.0,-2284.0,-59.0,-307.0,-670.0,192,110,112,141,119
2025-02-26 15:15:38.166,-1480.0,3777.0,-2812.0,-113.0,-447.0,-794.0,191,109,113,142,118
2025-02-26 15:15:38.177,-1037.0,3761.0,-3030.0,-163.0,-621.0,-868.0,192,110,110,139,118
2025-02-26 15:15:38.181,-190.0,3809.0,-3498.0,-209.0,-822.0,-970.0,199,115,116,144,121
2025-02-26 15:15:38.190,1283.0,3351.0,-3286.0,-261.0,-978.0,-1011.0,199,115,116,142,122
2025-02-26 15:15:38.190,2849.0,2166.0,-2926.0,-355.0,-1053.0,-1017.0,200,114,111,134,119
2025-02-26 15:15:38.202,4523.0,544.0,-2027.0,-475.0,-1060.0,-981.0,208,121,120,141,126
2025-02-26 15:15:38.206,5626.0,-1322.0,-1137.0,-545.0,-1041.0,-904.0,202,114,112,133,121
2025-02-26 15:15:38.214,6027.0,-2310.0,-248.0,-564.0,-978.0,-790.0,205,114,115,134,122
2025-02-26 15:15:38.218,5783.0,-2849.0,546.0,-576.0,-911.0,-634.0,206,113,113,132,121
2025-02-26 15:15:38.223,5971.0,-4152.0,1231.0,-647.0,-789.0,-457.0,204,109,108,130,118
2025-02-26 15:15:38.231,6502.0,-5413.0,1367.0,-652.0,-550.0,-310.0,202,107,104,127,115
2025-02-26 15:15:38.233,6558.0,-6138.0,1439.0,-555.0,-291.0,-192.0,200,106,104,126,115
2025-02-26 15:15:38.242,6160.0,-6685.0,1152.0,-349.0,-44.0,-102.0,202,109,107,128,117
2025-02-26 15:15:38.245,4739.0,-7046.0,736.0,-117.0,146.0,-29.0,201,106,103,125,112
2025-02-26 15:15:38.249,3362.0,-6561.0,-43.0,107.0,226.0,27.0,198,104,102,125,105
2025-02-26 15:15:38.259,2439.0,-5966.0,-1373.0,247.0,297.0,59.0,198,102,102,121,108
2025-02-26 15:15:38.263,2040.0,-5129.0,-1128.0,382.0,202.0,119.0,204,108,109,130,114
2025-02-26 15:15:38.269,724.0,-2850.0,-1099.0,361.0,212.0,164.0,209,114,113,132,118
2025-02-26 15:15:38.275,681.0,-1162.0,-1483.0,278.0,166.0,177.0,206,111,108,130,114
2025-02-26 15:15:38.280,539.0,-904.0,-835.0,182.0,43.0,172.0,206,114,113,135,120
2025-02-26 15:15:38.288,805.0,-1068.0,-542.0,101.0,153.0,170.0,201,106,105,126,112
2025-02-26 15:15:38.292,235.0,-832.0,-377.0,-13.0,26.0,156.0,203,106,105,129,113
2025-02-26 15:15:38.296,228.0,-1260.0,-321.0,-42.0,27.0,148.0,197,104,102,123,113
2025-02-26 15:15:38.304,414.0,-1574.0,67.0,-58.0,16.0,151.0,197,105,105,124,112
2025-02-26 15:15:38.309,423.0,-2244.0,130.0,-17.0,15.0,158.0,203,109,106,127,117
2025-02-26 15:15:38.312,461.0,-2184.0,239.0,-20.0,26.0,179.0,199,106,104,126,114
2025-02-26 15:15:38.317,557.0,-2030.0,385.0,-14.0,81.0,193.0,199,105,102,123,112
2025-02-26 15:15:38.325,300.0,-2273.0,447.0,19.0,48.0,220.0,197,103,101,122,110
2025-02-26 15:15:38.329,496.0,-1968.0,203.0,36.0,57.0,242.0,195,102,100,121,109
2025-02-26 15:15:38.334,192.0,-2049.0,190.0,47.0,71.0,261.0,199,108,106,126,115
2025-02-26 15:15:38.341,65.0,-1799.0,278.0,55.0,29.0,294.0,203,111,112,131,117
2025-02-26 15:15:38.345,253.0,-1633.0,133.0,68.0,32.0,321.0,199,106,104,125,114
2025-02-26 15:15:38.350,233.0,-1330.0,142.0,27.0,47.0,335.0,199,107,105,126,114
2025-02-26 15:15:38.354,97.0,-1147.0,188.0,9.0,15.0,336.0,199,107,106,126,114
2025-02-26 15:15:38.361,137.0,-797.0,210.0,-25.0,26.0,326.0,205,111,111,131,118
2025-02-26 15:15:38.366,144.0,-589.0,250.0,-39.0,26.0,295.0,202,107,107,130,118
2025-02-26 15:15:38.370,311.0,-158.0,400.0,-40.0,39.0,247.0,199,105,103,125,112
2025-02-26 15:15:38.378,256.0,-274.0,467.0,-36.0,44.0,207.0,198,103,101,122,109
2025-02-26 15:15:38.382,198.0,-325.0,526.0,-47.0,54.0,196.0,196,101,102,121,108
2025-02-26 15:15:38.386,117.0,-439.0,447.0,-52.0,59.0,191.0,203,109,105,129,115
2025-02-26 15:15:38.395,-92.0,-420.0,332.0,-57.0,46.0,194.0,200,106,102,127,113
2025-02-26 15:15:38.398,-139.0,-564.0,350.0,-71.0,43.0,205.0,198,105,101,124,111
2025-02-26 15:15:38.402,-147.0,-737.0,243.0,-79.0,43.0,219.0,196,101,99,123,109
2025-02-26 15:15:38.410,-246.0,-711.0,181.0,-103.0,45.0,225.0,194,99,96,120,106
2025-02-26 15:15:38.415,-278.0,-772.0,136.0,-121.0,51.0,238.0,200,106,103,126,113
2025-02-26 15:15:38.424,-310.0,-764.0,161.0,-131.0,54.0,250.0,206,110,107,131,117
2025-02-26 15:15:38.427,-295.0,-784.0,86.0,-136.0,49.0,263.0,198,105,103,126,112
2025-02-26 15:15:38.431,-235.0,-747.0,-24.0,-110.0,41.0,275.0,196,101,98,122,106
2025-02-26 15:15:38.435,-214.0,-612.0,10.0,-89.0,33.0,278.0,192,98,96,122,105
2025-02-26 15:15:38.440,-274.0,-615.0,155.0,-48.0,21.0,274.0,201,105,105,129,112
2025-02-26 15:15:38.447,-307.0,-473.0,187.0,-5.0,7.0,252.0,200,104,105,128,115
2025-02-26 15:15:38.451,-127.0,-397.0,346.0,17.0,23.0,218.0,198,101,103,127,110
2025-02-26 15:15:38.456,87.0,-289.0,403.0,74.0,37.0,183.0,197,101,100,123,108
2025-02-26 15:15:38.464,117.0,-284.0,466.0,116.0,74.0,172.0,198,99,100,123,110
2025-02-26 15:15:38.468,83.0,-293.0,450.0,128.0,112.0,163.0,201,104,106,129,114
2025-02-26 15:15:38.472,-79.0,-284.0,406.0,123.0,138.0,168.0,200,105,104,127,112
2025-02-26 15:15:38.480,-141.0,-335.0,388.0,119.0,158.0,179.0,200,103,104,127,112
2025-02-26 15:15:38.484,-282.0,-287.0,274.0,114.0,162.0,188.0,196,100,101,124,109
2025-02-26 15:15:38.489,-292.0,-294.0,215.0,109.0,158.0,196.0,195,100,100,121,107
2025-02-26 15:15:38.493,-351.0,-287.0,117.0,116.0,150.0,197.0,195,98,97,121,107
2025-02-26 15:15:38.501,-485.0,-230.0,40.0,124.0,141.0,195.0,201,109,107,132,117
2025-02-26 15:15:38.505,-652.0,-83.0,-83.0,124.0,125.0,190.0,200,105,104,129,113
2025-02-26 15:15:38.509,-746.0,42.0,-144.0,119.0,98.0,183.0,197,105,103,126,110
2025-02-26 15:15:38.517,-774.0,221.0,-168.0,107.0,92.0,172.0,195,101,100,124,108
2025-02-26 15:15:38.522,-750.0,394.0,-108.0,86.0,76.0,164.0,196,101,101,125,110
2025-02-26 15:15:38.526,-709.0,491.0,8.0,75.0,64.0,142.0,201,108,105,130,113
2025-02-26 15:15:38.534,-656.0,538.0,40.0,73.0,58.0,119.0,199,103,103,129,111
2025-02-26 15:15:38.538,-559.0,582.0,138.0,74.0,59.0,98.0,195,98,100,124,109
2025-02-26 15:15:38.542,-551.0,588.0,208.0,80.0,63.0,89.0,195,98,100,124,110
2025-02-26 15:15:38.546,-550.0,630.0,227.0,84.0,72.0,73.0,200,108,105,128,113
2025-02-26 15:15:38.554,-584.0,666.0,251.0,89.0,85.0,58.0,192,104,102,121,110
2025-02-26 15:15:38.559,-618.0,705.0,191.0,108.0,91.0,40.0,196,100,100,123,108
2025-02-26 15:15:38.563,-740.0,746.0,94.0,144.0,100.0,27.0,198,99,99,126,106
2025-02-26 15:15:38.567,-832.0,1050.0,-10.0,178.0,111.0,-6.0,200,106,106,129,113
2025-02-26 15:15:38.572,-1025.0,1500.0,-168.0,190.0,114.0,-50.0,197,104,104,126,112
2025-02-26 15:15:38.579,-1218.0,1933.0,-361.0,208.0,99.0,-108.0,196,105,103,128,112
2025-02-26 15:15:38.587,-1415.0,2300.0,-618.0,213.0,70.0,-177.0,194,105,102,126,109
2025-02-26 15:15:38.591,-1518.0,2638.0,-872.0,209.0,45.0,-256.0,194,101,100,123,107
2025-02-26 15:15:38.596,-1662.0,2893.0,-1154.0,186.0,-11.0,-347.0,191,100,100,124,107
2025-02-26 15:15:38.603,-1876.0,3021.0,-1401.0,151.0,-77.0,-443.0,193,103,100,125,108
2025-02-26 15:15:38.607,-1981.0,2990.0,-1580.0,105.0,-162.0,-544.0,192,103,101,123,109
2025-02-26 15:15:38.615,-1884.0,2882.0,-1834.0,61.0,-258.0,-644.0,192,102,98,123,107
2025-02-26 15:15:38.620,-1599.0,2747.0,-2009.0,17.0,-364.0,-692.0,195,108,106,130,114
2025-02-26 15:15:38.624,-1092.0,2746.0,-2269.0,-37.0,-490.0,-781.0,191,101,100,122,108
2025-02-26 15:15:38.632,-373.0,2973.0,-2465.0,-128.0,-626.0,-849.0,190,100,99,123,108
2025-02-26 15:15:38.636,575.0,2898.0,-2596.0,-259.0,-769.0,-898.0,189,99,98,119,108
2025-02-26 15:15:38.644,1949.0,2666.0,-2740.0,-430.0,-895.0,-916.0,198,108,106,136,115
2025-02-26 15:15:38.648,3116.0,1385.0,-2684.0,-601.0,-987.0,-873.0,200,109,105,128,115
2025-02-26 15:15:38.656,4689.0,220.0,-2035.0,-728.0,-997.0,-787.0,198,105,105,130,115
2025-02-26 15:15:38.661,5768.0,-1419.0,-1184.0,-821.0,-898.0,-644.0,203,111,112,134,117
2025-02-26 15:15:38.665,6462.0,-3213.0,142.0,-864.0,-681.0,-479.0,200,108,105,129,116
2025-02-26 15:15:38.673,7090.0,-5639.0,1199.0,-782.0,-375.0,-351.0,199,113,104,128,114
2025-02-26 15:15:38.677,7450.0,-7835.0,1509.0,-506.0,-47.0,-229.0,199,107,104,129,115
2025-02-26 15:15:38.685,7139.0,-9104.0,729.0,-112.0,254.0,-141.0,199,107,104,130,115
2025-02-26 15:15:38.689,5648.0,-9039.0,-606.0,243.0,394.0,-56.0,197,105,103,129,116
2025-02-26 15:15:38.694,4078.0,-7313.0,-814.0,436.0,483.0,17.0,213,122,120,145,132
2025-02-26 15:15:38.701,2539.0,-5850.0,-2433.0,517.0,513.0,78.0,205,112,116,139,125
2025-02-26 15:15:38.705,1614.0,-3280.0,-3393.0,598.0,429.0,145.0,201,108,110,134,120
2025-02-26 15:15:38.713,-241.0,-2709.0,-3677.0,496.0,210.0,180.0,188,88,92,122,103
2025-02-26 15:15:38.718,-371.0,-1052.0,-2840.0,340.0,63.0,214.0,193,101,99,126,110
2025-02-26 15:15:38.722,105.0,-702.0,-1500.0,151.0,38.0,202.0,190,97,98,122,108
2025-02-26 15:15:38.730,384.0,-142.0,-1255.0,-63.0,62.0,197.0,233,147,142,167,155
2025-02-26 15:15:38.734,178.0,-370.0,-929.0,-136.0,9.0,148.0,239,151,148,174,162
2025-02-26 15:15:38.739,489.0,-1229.0,-441.0,-137.0,-93.0,134.0,241,155,153,176,164
2025-02-26 15:15:38.746,607.0,-2143.0,-386.0,-116.0,-99.0,133.0,235,149,147,171,158
2025-02-26 15:15:38.751,651.0,-2448.0,-153.0,-121.0,-65.0,149.0,236,150,148,171,160
2025-02-26 15:15:38.755,750.0,-2530.0,-82.0,-71.0,-9.0,170.0,235,151,147,174,159
2025-02-26 15:15:38.763,760.0,-2358.0,125.0,-26.0,10.0,194.0,224,137,136,163,148
2025-02-26 15:15:38.767,696.0,-2376.0,19.0,53.0,29.0,200.0,214,125,121,149,134
2025-02-26 15:15:38.772,724.0,-2147.0,271.0,50.0,84.0,222.0,216,125,124,150,134
2025-02-26 15:15:38.780,454.0,-2360.0,215.0,115.0,40.0,255.0,203,111,111,137,120
2025-02-26 15:15:38.784,542.0,-2119.0,91.0,116.0,39.0,287.0,202,111,109,138,121
2025-02-26 15:15:38.788,778.0,-1865.0,183.0,115.0,50.0,318.0,178,84,83,112,96
2025-02-26 15:15:38.792,33.0,-1548.0,127.0,112.0,70.0,321.0,175,81,84,109,94
2025-02-26 15:15:38.800,478.0,-1306.0,141.0,103.0,61.0,327.0,178,86,83,113,96
2025-02-26 15:15:38.804,342.0,-1084.0,203.0,92.0,81.0,324.0,168,76,77,104,86
2025-02-26 15:15:38.808,402.0,-749.0,271.0,38.0,106.0,317.0,166,71,72,99,84
2025-02-26 15:15:38.812,412.0,-696.0,333.0,3.0,135.0,316.0,167,74,75,105,86
2025-02-26 15:15:38.820,287.0,-432.0,77.0,-2.0,152.0,307.0,166,74,74,105,85
2025-02-26 15:15:38.824,139.0,-167.0,323.0,-11.0,158.0,300.0,165,72,72,105,85
2025-02-26 15:15:38.828,10.0,-288.0,186.0,5.0,145.0,299.0,163,70,71,105,83
2025-02-26 15:15:38.832,-147.0,-164.0,213.0,2.0,109.0,292.0,170,73,75,106,85
2025-02-26 15:15:38.837,-217.0,-166.0,203.0,5.0,85.0,288.0,165,70,75,107,85
2025-02-26 15:15:38.845,-237.0,-82.0,243.0,-11.0,76.0,287.0,166,69,75,105,83
2025-02-26 15:15:38.848,-206.0,-150.0,196.0,-26.0,83.0,283.0,167,72,79,106,84
2025-02-26 15:15:38.852,-124.0,-270.0,230.0,-36.0,93.0,283.0,164,70,77,107,83
2025-02-26 15:15:38.858,-129.0,-465.0,109.0,-53.0,106.0,285.0,165,69,78,108,82
2025-02-26 15:15:38.864,18.0,-493.0,-89.0,-65.0,133.0,292.0,167,73,80,110,85
2025-02-26 15:15:38.870,159.0,-553.0,-77.0,-61.0,169.0,309.0,166,75,80,113,87
2025-02-26 15:15:38.874,171.0,-449.0,-82.0,-57.0,209.0,320.0,168,78,80,110,85
2025-02-26 15:15:38.878,164.0,-719.0,-64.0,1.0,218.0,342.0,170,78,80,113,85
2025-02-26 15:15:38.886,2.0,-774.0,-87.0,84.0,197.0,351.0,169,80,81,112,85
2025-02-26 15:15:38.888,-189.0,-740.0,-140.0,115.0,152.0,354.0,167,79,80,110,84
2025-02-26 15:15:38.894,-166.0,-543.0,-72.0,148.0,132.0,352.0,167,78,80,108,83
2025-02-26 15:15:38.898,-110.0,-379.0,-28.0,178.0,116.0,346.0,170,83,84,112,85
2025-02-26 15:15:38.905,25.0,-318.0,66.0,195.0,130.0,327.0,169,85,86,109,86
2025-02-26 15:15:38.910,-114.0,-381.0,1.0,205.0,130.0,315.0,171,88,89,113,84
2025-02-26 15:15:38.915,-162.0,-94.0,-63.0,222.0,144.0,304.0,171,91,93,115,90
2025-02-26 15:15:38.917,39.0,-151.0,-42.0,242.0,170.0,297.0,175,95,98,120,92
2025-02-26 15:15:38.926,18.0,31.0,-256.0,266.0,183.0,300.0,176,100,100,122,94
2025-02-26 15:15:38.929,-1.0,-74.0,-274.0,278.0,182.0,303.0,175,101,101,120,92
2025-02-26 15:15:38.935,-121.0,-32.0,-253.0,310.0,183.0,306.0,170,100,99,120,90
2025-02-26 15:15:38.943,-128.0,-23.0,-315.0,338.0,179.0,300.0,174,103,101,119,90
2025-02-26 15:15:38.947,-220.0,-7.0,-274.0,352.0,183.0,303.0,176,111,106,124,95
2025-02-26 15:15:38.951,-134.0,83.0,-265.0,372.0,187.0,305.0,194,133,127,141,114
2025-02-26 15:15:38.955,-190.0,76.0,-283.0,387.0,202.0,301.0,210,151,146,159,132
2025-02-26 15:15:38.963,-136.0,208.0,-379.0,411.0,196.0,294.0,199,142,135,149,122
2025-02-26 15:15:38.967,-178.0,502.0,-536.0,421.0,197.0,291.0,200,144,136,148,121
2025-02-26 15:15:38.973,-373.0,463.0,-791.0,416.0,182.0,289.0,197,143,135,145,118
2025-02-26 15:15:38.979,-407.0,686.0,-728.0,418.0,169.0,277.0,204,153,146,155,129
2025-02-26 15:15:38.985,-541.0,892.0,-788.0,407.0,151.0,264.0,201,150,142,151,124
2025-02-26 15:15:38.992,-652.0,1144.0,-951.0,399.0,126.0,241.0,207,157,149,157,132
2025-02-26 15:15:38.996,-727.0,1317.0,-1102.0,385.0,97.0,213.0,219,173,164,172,146
2025-02-26 15:15:39.001,-766.0,1581.0,-1303.0,362.0,80.0,170.0,193,146,138,145,116
2025-02-26 15:15:39.008,-855.0,1757.0,-1458.0,343.0,36.0,119.0,187,141,134,140,113
2025-02-26 15:15:39.013,-947.0,1872.0,-1560.0,323.0,-10.0,88.0,188,137,132,139,112
2025-02-26 15:15:39.017,-1051.0,1932.0,-1785.0,313.0,-65.0,15.0,187,147,138,141,114
2025-02-26 15:15:39.025,-1206.0,2181.0,-1878.0,290.0,-131.0,-71.0,191,150,141,143,116
2025-02-26 15:15:39.028,-1359.0,2474.0,-1849.0,251.0,-212.0,-171.0,188,150,142,142,114
2025-02-26 15:15:39.037,-1512.0,2678.0,-1848.0,202.0,-308.0,-283.0,186,150,141,141,112
2025-02-26 15:15:39.042,-1546.0,2694.0,-1782.0,149.0,-411.0,-399.0,187,155,143,141,114
2025-02-26 15:15:39.050,-1375.0,2603.0,-1737.0,105.0,-512.0,-515.0,186,154,145,143,114
2025-02-26 15:15:39.051,-992.0,2617.0,-1637.0,71.0,-614.0,-629.0,190,154,150,149,115
2025-02-26 15:15:39.058,-673.0,2495.0,-1600.0,22.0,-722.0,-734.0,191,164,152,150,120
2025-02-26 15:15:39.064,-274.0,2432.0,-1498.0,-55.0,-840.0,-827.0,190,165,152,151,121
2025-02-26 15:15:39.071,374.0,2343.0,-1424.0,-150.0,-956.0,-906.0,187,165,152,153,120
2025-02-26 15:15:39.076,1301.0,2333.0,-1478.0,-232.0,-1063.0,-959.0,187,164,149,150,121
2025-02-26 15:15:39.083,2750.0,2261.0,-1405.0,-328.0,-1145.0,-986.0,188,168,152,152,122
2025-02-26 15:15:39.088,4153.0,1773.0,-1232.0,-422.0,-1192.0,-978.0,188,168,155,154,123
2025-02-26 15:15:39.094,5348.0,287.0,-942.0,-477.0,-1204.0,-928.0,186,169,154,152,122
2025-02-26 15:15:39.099,5984.0,-2008.0,-187.0,-456.0,-1127.0,-837.0,190,175,159,157,128
2025-02-26 15:15:39.106,5763.0,-3984.0,547.0,-349.0,-987.0,-693.0,184,170,153,150,120
2025-02-26 15:15:39.112,5254.0,-4589.0,929.0,-259.0,-802.0,-508.0,180,169,152,148,117
2025-02-26 15:15:39.119,5706.0,-4996.0,939.0,-188.0,-619.0,-298.0,175,165,147,144,113
2025-02-26 15:15:39.123,5768.0,-5048.0,664.0,-117.0,-440.0,-117.0,171,163,150,142,111
2025-02-26 15:15:39.132,5813.0,-5373.0,734.0,-50.0,-251.0,44.0,192,184,166,162,132
2025-02-26 15:15:39.136,5488.0,-5191.0,1033.0,-16.0,-72.0,162.0,191,184,165,161,131
2025-02-26 15:15:39.140,4674.0,-4476.0,1114.0,64.0,77.0,225.0,190,178,161,157,125
2025-02-26 15:15:39.148,4097.0,-3663.0,1145.0,151.0,131.0,237.0,185,175,158,150,117
2025-02-26 15:15:39.152,3069.0,-3113.0,1118.0,232.0,220.0,230.0,163,148,133,126,90
2025-02-26 15:15:39.156,2450.0,-1844.0,989.0,267.0,269.0,191.0,159,147,128,122,81
2025-02-26 15:15:39.164,1615.0,-2123.0,794.0,249.0,280.0,191.0,159,149,131,124,86
2025-02-26 15:15:39.168,997.0,-1768.0,861.0,228.0,271.0,194.0,163,150,134,125,86
2025-02-26 15:15:39.173,674.0,-1523.0,453.0,151.0,235.0,182.0,165,157,134,126,90
2025-02-26 15:15:39.180,507.0,-1515.0,624.0,120.0,191.0,208.0,162,152,131,124,92
2025-02-26 15:15:39.185,318.0,-1044.0,411.0,37.0,162.0,223.0,162,151,133,125,93
2025-02-26 15:15:39.189,466.0,-1167.0,631.0,-32.0,133.0,234.0,159,151,133,124,94
2025-02-26 15:15:39.197,416.0,-1234.0,575.0,-59.0,100.0,264.0,159,146,129,119,93
2025-02-26 15:15:39.201,337.0,-1405.0,591.0,-78.0,84.0,277.0,160,148,131,115,93
2025-02-26 15:15:39.206,430.0,-1394.0,441.0,-76.0,67.0,284.0,157,146,127,119,91
2025-02-26 15:15:39.209,233.0,-1297.0,496.0,-56.0,63.0,283.0,155,144,126,115,87
2025-02-26 15:15:39.216,227.0,-1429.0,767.0,-43.0,67.0,274.0,155,144,125,117,87
2025-02-26 15:15:39.222,292.0,-835.0,789.0,-16.0,77.0,271.0,151,144,125,116,88
2025-02-26 15:15:39.225,224.0,-1112.0,661.0,-9.0,94.0,268.0,155,143,125,115,86
2025-02-26 15:15:39.233,271.0,-932.0,469.0,-3.0,109.0,246.0,149,142,123,113,86
2025-02-26 15:15:39.238,309.0,-1176.0,672.0,31.0,122.0,242.0,151,141,124,114,86
2025-02-26 15:15:39.243,223.0,-1115.0,765.0,63.0,150.0,239.0,153,144,123,114,90
2025-02-26 15:15:39.247,352.0,-1121.0,691.0,87.0,183.0,247.0,155,142,124,115,88
2025-02-26 15:15:39.254,224.0,-971.0,678.0,104.0,206.0,256.0,153,144,124,115,88
2025-02-26 15:15:39.259,196.0,-875.0,664.0,106.0,220.0,265.0,152,143,126,115,83
2025-02-26 15:15:39.263,157.0,-601.0,347.0,98.0,224.0,273.0,152,142,123,114,86
2025-02-26 15:15:39.270,272.0,-635.0,453.0,82.0,234.0,278.0,152,140,121,113,84
2025-02-26 15:15:39.275,131.0,-469.0,463.0,60.0,240.0,289.0,154,144,124,114,88
2025-02-26 15:15:39.279,-55.0,-410.0,460.0,54.0,248.0,303.0,156,144,126,117,89
2025-02-26 15:15:39.284,23.0,-197.0,487.0,41.0,248.0,307.0,156,143,123,114,86
2025-02-26 15:15:39.291,-24.0,-146.0,413.0,18.0,241.0,310.0,152,140,122,113,84
2025-02-26 15:15:39.295,-117.0,-66.0,322.0,-12.0,227.0,309.0,155,142,125,114,86
2025-02-26 15:15:39.299,-105.0,-87.0,247.0,-14.0,221.0,302.0,159,143,126,116,85
2025-02-26 15:15:39.307,-124.0,-77.0,341.0,-20.0,219.0,297.0,156,142,125,115,84
2025-02-26 15:15:39.312,-130.0,-184.0,246.0,-23.0,219.0,297.0,154,140,122,112,83
2025-02-26 15:15:39.316,-258.0,-208.0,293.0,-36.0,213.0,297.0,153,140,122,112,83
2025-02-26 15:15:39.323,-85.0,-86.0,224.0,-33.0,214.0,290.0,157,141,125,115,86
2025-02-26 15:15:39.328,-162.0,-200.0,203.0,-26.0,215.0,283.0,157,141,125,114,86
2025-02-26 15:15:39.332,-101.0,-192.0,227.0,-22.0,217.0,271.0,154,140,125,113,84
2025-02-26 15:15:39.337,-167.0,-322.0,208.0,8.0,216.0,259.0,154,139,122,112,83
2025-02-26 15:15:39.344,-219.0,-312.0,136.0,35.0,216.0,254.0,154,135,122,112,80
2025-02-26 15:15:39.349,-273.0,-357.0,114.0,71.0,218.0,243.0,154,141,124,113,84
2025-02-26 15:15:39.353,-247.0,-311.0,82.0,103.0,218.0,230.0,155,142,124,114,84
2025-02-26 15:15:39.360,-270.0,-272.0,42.0,114.0,219.0,220.0,158,143,126,116,85
2025-02-26 15:15:39.365,-298.0,-242.0,123.0,133.0,223.0,212.0,154,140,122,112,82
2025-02-26 15:15:39.370,-314.0,-156.0,66.0,142.0,218.0,206.0,153,139,122,111,81
2025-02-26 15:15:39.374,-374.0,-50.0,81.0,138.0,210.0,198.0,156,141,123,113,83
2025-02-26 15:15:39.381,-463.0,99.0,111.0,127.0,201.0,189.0,159,145,127,116,85
2025-02-26 15:15:39.385,-525.0,241.0,124.0,117.0,190.0,182.0,156,140,123,113,82
2025-02-26 15:15:39.390,-545.0,304.0,87.0,99.0,184.0,173.0,154,139,122,109,81
2025-02-26 15:15:39.397,-580.0,365.0,172.0,79.0,176.0,177.0,157,142,123,113,84
2025-02-26 15:15:39.402,-814.0,317.0,-154.0,63.0,159.0,159.0,157,141,125,113,84
2025-02-26 15:15:39.406,-457.0,463.0,14.0,64.0,150.0,142.0,157,141,125,113,84
2025-02-26 15:15:39.410,-525.0,444.0,-163.0,56.0,148.0,129.0,155,139,122,111,83
2025-02-26 15:15:39.418,-594.0,542.0,-175.0,65.0,144.0,122.0,154,139,121,109,82
2025-02-26 15:15:39.423,-762.0,541.0,-146.0,75.0,145.0,113.0,158,142,125,113,85
2025-02-26 15:15:39.427,-682.0,747.0,-276.0,86.0,141.0,102.0,156,141,126,112,85
2025-02-26 15:15:39.434,-773.0,923.0,-401.0,90.0,132.0,90.0,155,140,123,112,84
2025-02-26 15:15:39.438,-872.0,1256.0,-727.0,97.0,123.0,70.0,155,137,123,112,83
2025-02-26 15:15:39.442,-1064.0,1406.0,-1051.0,101.0,94.0,55.0,156,139,122,110,84
2025-02-26 15:15:39.450,-1348.0,1767.0,-1375.0,104.0,44.0,12.0,154,140,124,101,84
2025-02-26 15:15:39.455,-1554.0,2010.0,-1475.0,97.0,-19.0,-47.0,156,139,124,104,83
2025-02-26 15:15:39.458,-1743.0,2226.0,-1647.0,93.0,-97.0,-127.0,155,141,126,107,85
2025-02-26 15:15:39.467,-1794.0,2384.0,-1726.0,80.0,-178.0,-219.0,181,166,150,126,111
2025-02-26 15:15:39.469,-1767.0,2536.0,-1780.0,66.0,-260.0,-320.0,203,191,174,145,135
2025-02-26 15:15:39.480,-1637.0,2622.0,-1727.0,54.0,-344.0,-427.0,193,179,164,147,123
2025-02-26 15:15:39.481,-1353.0,2707.0,-1665.0,28.0,-434.0,-537.0,190,174,157,143,118
2025-02-26 15:15:39.488,-1109.0,2622.0,-1590.0,-18.0,-536.0,-639.0,178,165,148,134,107
2025-02-26 15:15:39.494,-862.0,2352.0,-1547.0,-68.0,-649.0,-728.0,178,166,149,135,106
2025-02-26 15:15:39.501,-424.0,1961.0,-1532.0,-112.0,-707.0,-800.0,193,179,164,151,124
2025-02-26 15:15:39.506,535.0,1557.0,-1676.0,-158.0,-827.0,-856.0,200,188,172,160,134
2025-02-26 15:15:39.513,1844.0,1370.0,-1579.0,-204.0,-929.0,-885.0,193,173,163,151,128
2025-02-26 15:15:39.518,2952.0,728.0,-1292.0,-231.0,-1000.0,-883.0,180,167,150,139,113
2025-02-26 15:15:39.524,3998.0,90.0,-1034.0,-248.0,-1042.0,-874.0,179,164,147,138,113
2025-02-26 15:15:39.530,4669.0,-26.0,-1050.0,-269.0,-1048.0,-827.0,175,161,144,133,110
2025-02-26 15:15:39.537,5206.0,-2135.0,-39.0,-240.0,-973.0,-750.0,176,162,144,132,111
2025-02-26 15:15:39.541,5735.0,-4123.0,704.0,-112.0,-803.0,-628.0,175,161,141,130,111
2025-02-26 15:15:39.549,5014.0,-4613.0,879.0,59.0,-597.0,-458.0,171,158,141,127,107
2025-02-26 15:15:39.554,4994.0,-4743.0,1070.0,157.0,-383.0,-280.0,168,155,141,125,103
2025-02-26 15:15:39.561,5246.0,-5066.0,1370.0,211.0,-186.0,-119.0,169,157,141,128,105
2025-02-26 15:15:39.566,4703.0,-4554.0,1686.0,241.0,-5.0,-40.0,169,145,137,122,101
2025-02-26 15:15:39.570,4239.0,-4003.0,2022.0,239.0,136.0,71.0,168,142,136,122,98
2025-02-26 15:15:39.578,3488.0,-3336.0,2058.0,218.0,225.0,130.0,170,154,137,123,98
2025-02-26 15:15:39.582,2723.0,-2492.0,1952.0,183.0,271.0,154.0,171,155,138,125,97
2025-02-26 15:15:39.587,1965.0,-2074.0,1751.0,143.0,276.0,165.0,170,155,139,123,94
2025-02-26 15:15:39.594,1350.0,-1546.0,1413.0,115.0,247.0,164.0,176,153,136,125,91
2025-02-26 15:15:39.598,891.0,-1145.0,1107.0,51.0,191.0,152.0,167,151,136,122,90
2025-02-26 15:15:39.603,699.0,-914.0,1069.0,-30.0,164.0,139.0,167,151,134,121,90
2025-02-26 15:15:39.610,519.0,-917.0,982.0,-98.0,117.0,135.0,166,153,135,120,90
2025-02-26 15:15:39.615,473.0,-1023.0,958.0,-149.0,85.0,130.0,169,155,138,126,96
2025-02-26 15:15:39.619,462.0,-1226.0,919.0,-177.0,72.0,132.0,176,160,144,131,102
2025-02-26 15:15:39.626,495.0,-1451.0,840.0,-183.0,68.0,141.0,175,158,143,130,104
2025-02-26 15:15:39.632,530.0,-1651.0,721.0,-175.0,70.0,153.0,184,162,148,137,111
2025-02-26 15:15:39.635,573.0,-1730.0,708.0,-155.0,74.0,166.0,172,157,139,126,102
2025-02-26 15:15:39.643,551.0,-1776.0,717.0,-124.0,87.0,172.0,171,160,140,128,104
2025-02-26 15:15:39.648,594.0,-1726.0,655.0,-90.0,107.0,182.0,170,157,136,126,103
2025-02-26 15:15:39.652,540.0,-1663.0,699.0,-62.0,129.0,193.0,155,142,123,115,91
2025-02-26 15:15:39.660,506.0,-1513.0,679.0,-38.0,153.0,209.0,151,137,116,106,85
2025-02-26 15:15:39.664,446.0,-1316.0,661.0,-33.0,175.0,214.0,149,136,115,108,85
2025-02-26 15:15:39.669,398.0,-1222.0,679.0,-24.0,184.0,225.0,150,134,113,107,85
2025-02-26 15:15:39.675,420.0,-1227.0,605.0,-17.0,204.0,231.0,148,134,113,106,86
2025-02-26 15:15:39.681,375.0,-984.0,627.0,-16.0,220.0,240.0,153,134,114,106,90
2025-02-26 15:15:39.685,315.0,-983.0,652.0,-16.0,233.0,250.0,149,133,111,107,91
2025-02-26 15:15:39.692,219.0,-874.0,591.0,-23.0,238.0,259.0,150,133,111,108,90
2025-02-26 15:15:39.697,183.0,-780.0,549.0,-35.0,238.0,271.0,148,133,110,108,89
2025-02-26 15:15:39.699,138.0,-708.0,480.0,-47.0,240.0,277.0,149,131,110,109,91
2025-02-26 15:15:39.705,124.0,-662.0,400.0,-62.0,233.0,286.0,148,129,108,110,92
2025-02-26 15:15:39.712,108.0,-681.0,420.0,-90.0,227.0,297.0,148,129,105,110,92
2025-02-26 15:15:39.717,55.0,-584.0,398.0,-100.0,221.0,307.0,152,127,107,110,91
2025-02-26 15:15:39.721,31.0,-426.0,402.0,-129.0,219.0,316.0,153,119,103,110,92
2025-02-26 15:15:39.729,-42.0,-421.0,403.0,-143.0,211.0,320.0,151,121,102,110,89
2025-02-26 15:15:39.733,-7.0,-397.0,377.0,-162.0,204.0,325.0,152,116,99,109,89
2025-02-26 15:15:39.738,-90.0,-340.0,417.0,-181.0,197.0,330.0,152,113,95,108,89
2025-02-26 15:15:39.745,-122.0,-320.0,580.0,-188.0,197.0,336.0,152,109,92,108,90
2025-02-26 15:15:39.750,-108.0,-483.0,645.0,-188.0,199.0,338.0,153,103,88,104,88
2025-02-26 15:15:39.753,71.0,-302.0,599.0,-203.0,201.0,344.0,152,99,87,95,86
2025-02-26 15:15:39.758,-129.0,-263.0,466.0,-206.0,206.0,351.0,152,97,86,103,88
2025-02-26 15:15:39.766,-70.0,-210.0,549.0,-189.0,222.0,359.0,153,92,83,102,86
2025-02-26 15:15:39.771,-126.0,-292.0,375.0,-183.0,226.0,361.0,151,89,81,97,86
2025-02-26 15:15:39.774,-207.0,-375.0,376.0,-155.0,225.0,356.0,150,83,78,98,83
2025-02-26 15:15:39.786,-313.0,-416.0,378.0,-103.0,231.0,352.0,155,84,79,102,86
2025-02-26 15:15:39.789,-292.0,-568.0,318.0,-55.0,234.0,342.0,154,82,78,105,86
2025-02-26 15:15:39.791,-149.0,-550.0,186.0,-27.0,242.0,325.0,155,80,77,106,86
2025-02-26 15:15:39.795,-79.0,-415.0,161.0,23.0,249.0,298.0,154,78,80,107,86
2025-02-26 15:15:39.803,-162.0,-291.0,81.0,62.0,258.0,286.0,157,75,75,107,84
2025-02-26 15:15:39.808,-271.0,-207.0,61.0,97.0,257.0,264.0,156,73,74,110,86
2025-02-26 15:15:39.812,-331.0,-64.0,-27.0,121.0,254.0,243.0,156,69,70,109,85
2025-02-26 15:15:39.816,-381.0,70.0,-127.0,149.0,248.0,228.0,153,68,68,109,82
2025-02-26 15:15:39.823,-414.0,208.0,-90.0,142.0,224.0,219.0,158,69,68,109,87
2025-02-26 15:15:39.828,-421.0,271.0,-181.0,129.0,216.0,217.0,155,68,65,107,87
2025-02-26 15:15:39.831,-799.0,366.0,-254.0,127.0,192.0,190.0,155,63,64,106,83
2025-02-26 15:15:39.837,-930.0,573.0,-254.0,141.0,158.0,178.0,153,62,63,108,82
2025-02-26 15:15:39.844,-768.0,881.0,-394.0,119.0,122.0,165.0,156,65,67,108,85
2025-02-26 15:15:39.848,-975.0,1091.0,-544.0,123.0,87.0,131.0,155,63,63,107,83
2025-02-26 15:15:39.852,-1296.0,1259.0,-542.0,127.0,68.0,92.0,153,65,61,107,81
2025-02-26 15:15:39.857,-1328.0,1750.0,-512.0,124.0,54.0,43.0,152,62,61,105,78
2025-02-26 15:15:39.865,-1145.0,1971.0,-560.0,130.0,2.0,17.0,152,62,62,104,76
2025-02-26 15:15:39.869,-1000.0,2189.0,-684.0,138.0,-35.0,-39.0,153,63,61,104,76
2025-02-26 15:15:39.873,-847.0,2333.0,-1040.0,143.0,-39.0,-104.0,153,64,63,104,74
2025-02-26 15:15:39.881,-764.0,2384.0,-1212.0,151.0,-43.0,-187.0,157,66,67,107,77
2025-02-26 15:15:39.885,-826.0,2679.0,-1436.0,164.0,-43.0,-275.0,155,66,66,105,75
2025-02-26 15:15:39.890,-690.0,2684.0,-1408.0,145.0,-34.0,-344.0,154,64,64,104,73
2025-02-26 15:15:39.898,-905.0,2702.0,-1395.0,103.0,-64.0,-373.0,152,64,65,102,71
2025-02-26 15:15:39.900,-1277.0,2416.0,-1420.0,54.0,-137.0,-421.0,155,68,69,107,75
2025-02-26 15:15:39.905,-1463.0,2169.0,-1477.0,20.0,-236.0,-473.0,154,67,66,105,75
2025-02-26 15:15:39.913,-1140.0,2050.0,-1567.0,-4.0,-328.0,-522.0,152,66,61,105,74
2025-02-26 15:15:39.917,-689.0,1928.0,-1680.0,-15.0,-414.0,-559.0,150,65,65,104,73
2025-02-26 15:15:39.926,-455.0,1854.0,-1780.0,-40.0,-495.0,-603.0,149,65,65,103,75
2025-02-26 15:15:39.930,-299.0,1827.0,-1734.0,-85.0,-529.0,-668.0,147,64,66,103,72
2025-02-26 15:15:39.934,208.0,1714.0,-1733.0,-150.0,-600.0,-722.0,148,63,63,102,71
2025-02-26 15:15:39.941,884.0,1653.0,-1816.0,-233.0,-693.0,-741.0,151,64,63,103,73
2025-02-26 15:15:39.947,1775.0,1177.0,-1998.0,-323.0,-771.0,-745.0,155,65,66,105,75
2025-02-26 15:15:39.951,2576.0,522.0,-1958.0,-404.0,-816.0,-714.0,155,66,67,104,74
2025-02-26 15:15:39.958,3522.0,-320.0,-1658.0,-493.0,-844.0,-674.0,156,64,64,102,74
2025-02-26 15:15:39.963,4304.0,-1452.0,-1150.0,-542.0,-829.0,-634.0,160,65,64,105,74
2025-02-26 15:15:39.967,4864.0,-2607.0,-426.0,-567.0,-746.0,-569.0,160,65,66,104,75
2025-02-26 15:15:39.975,5052.0,-3781.0,344.0,-587.0,-605.0,-467.0,162,64,63,103,74
2025-02-26 15:15:39.979,5033.0,-5038.0,981.0,-553.0,-411.0,-340.0,162,66,67,105,77
2025-02-26 15:15:39.988,4966.0,-6135.0,1294.0,-443.0,-303.0,-214.0,165,66,65,106,77
2025-02-26 15:15:39.991,4832.0,-6553.0,1173.0,-274.0,-80.0,-130.0,164,67,64,104,77
2025-02-26 15:15:39.995,4460.0,-6584.0,776.0,-84.0,115.0,-100.0,165,67,64,107,77
2025-02-26 15:15:40.003,3422.0,-6438.0,224.0,127.0,245.0,-54.0,168,69,67,108,79
2025-02-26 15:15:40.008,2309.0,-5843.0,-327.0,287.0,285.0,-4.0,167,67,64,108,78
2025-02-26 15:15:40.012,1422.0,-4695.0,-421.0,299.0,292.0,39.0,164,65,62,104,71
2025-02-26 15:15:40.016,971.0,-3573.0,-1389.0,404.0,283.0,78.0,163,59,63,103,73
2025-02-26 15:15:40.025,1094.0,-2908.0,-1073.0,362.0,203.0,111.0,169,64,62,102,73
2025-02-26 15:15:40.028,267.0,-2110.0,-1486.0,320.0,139.0,137.0,164,66,66,105,74
2025-02-26 15:15:40.032,394.0,-1447.0,-951.0,200.0,81.0,150.0,165,64,65,104,74
2025-02-26 15:15:40.041,399.0,-1156.0,-729.0,135.0,94.0,153.0,165,66,65,105,76
2025-02-26 15:15:40.044,318.0,-1066.0,-685.0,36.0,62.0,151.0,165,63,63,105,76
2025-02-26 15:15:40.049,290.0,-1130.0,-510.0,-34.0,15.0,154.0,161,64,62,103,73
2025-02-26 15:15:40.053,222.0,-1488.0,-472.0,-71.0,7.0,127.0,163,64,64,105,76
2025-02-26 15:15:40.061,263.0,-2150.0,-394.0,-54.0,-16.0,143.0,166,67,68,108,78
2025-02-26 15:15:40.065,321.0,-2099.0,-69.0,-64.0,-22.0,161.0,165,66,66,106,77
2025-02-26 15:15:40.069,357.0,-2354.0,-59.0,-33.0,4.0,171.0,164,66,64,104,76
2025-02-26 15:15:40.076,643.0,-2245.0,410.0,-17.0,14.0,191.0,164,67,69,109,77
2025-02-26 15:15:40.082,450.0,-2323.0,403.0,1.0,57.0,213.0,166,69,67,107,78
2025-02-26 15:15:40.086,325.0,-2288.0,297.0,23.0,74.0,245.0,165,66,68,107,78
2025-02-26 15:15:40.091,500.0,-2218.0,416.0,61.0,42.0,258.0,164,67,69,107,77
2025-02-26 15:15:40.094,430.0,-1875.0,415.0,73.0,44.0,269.0,163,66,68,106,75
2025-02-26 15:15:40.100,538.0,-1671.0,298.0,93.0,73.0,266.0,165,66,68,106,76
2025-02-26 15:15:40.106,433.0,-1355.0,363.0,111.0,80.0,260.0,162,64,68,105,75
2025-02-26 15:15:40.111,369.0,-1129.0,366.0,122.0,87.0,243.0,163,67,68,106,75
2025-02-26 15:15:40.115,289.0,-814.0,253.0,127.0,110.0,227.0,163,66,68,106,76
2025-02-26 15:15:40.123,189.0,-605.0,217.0,96.0,107.0,221.0,163,66,66,105,75
2025-02-26 15:15:40.127,54.0,-454.0,333.0,36.0,101.0,217.0,162,65,63,104,73
2025-02-26 15:15:40.131,-170.0,-215.0,28.0,-2.0,107.0,211.0,162,67,65,106,75
2025-02-26 15:15:40.136,-192.0,-304.0,38.0,-13.0,100.0,206.0,161,65,64,103,74
2025-02-26 15:15:40.143,-262.0,-325.0,48.0,-14.0,83.0,201.0,163,65,63,106,73
2025-02-26 15:15:40.149,-257.0,-275.0,104.0,-44.0,50.0,201.0,162,66,65,105,75
2025-02-26 15:15:40.153,-283.0,-318.0,106.0,-62.0,40.0,201.0,163,65,64,107,75
2025-02-26 15:15:40.157,-293.0,-487.0,96.0,-78.0,35.0,206.0,162,65,63,105,74
2025-02-26 15:15:40.164,-230.0,-640.0,128.0,-86.0,35.0,208.0,164,61,63,104,75
2025-02-26 15:15:40.168,-263.0,-607.0,86.0,-93.0,50.0,215.0,163,66,65,105,74
2025-02-26 15:15:40.171,-244.0,-625.0,211.0,-96.0,59.0,218.0,162,63,66,104,75
2025-02-26 15:15:40.176,-210.0,-421.0,304.0,-78.0,61.0,195.0,162,65,64,103,72
2025-02-26 15:15:40.184,-83.0,-342.0,396.0,-41.0,75.0,179.0,162,66,64,102,74
2025-02-26 15:15:40.188,-38.0,-331.0,399.0,8.0,83.0,155.0,163,64,64,104,74
2025-02-26 15:15:40.192,-49.0,-429.0,341.0,35.0,90.0,147.0,162,58,63,104,71
2025-02-26 15:15:40.197,-57.0,-458.0,338.0,52.0,101.0,150.0,161,62,64,103,72
2025-02-26 15:15:40.204,-146.0,-500.0,301.0,64.0,110.0,163.0,163,64,68,105,74
2025-02-26 15:15:40.209,-197.0,-517.0,291.0,68.0,120.0,175.0,161,62,64,105,74
2025-02-26 15:15:40.213,-187.0,-436.0,299.0,66.0,127.0,181.0,160,64,59,103,72
2025-02-26 15:15:40.218,-157.0,-408.0,234.0,66.0,142.0,181.0,162,60,63,103,73
2025-02-26 15:15:40.225,-202.0,-295.0,192.0,72.0,153.0,181.0,162,58,64,105,73
2025-02-26 15:15:40.229,-257.0,-257.0,161.0,77.0,147.0,181.0,162,63,64,103,74
2025-02-26 15:15:40.233,-280.0,-223.0,83.0,83.0,145.0,182.0,158,60,64,100,71
2025-02-26 15:15:40.237,-333.0,-183.0,49.0,89.0,132.0,185.0,163,64,65,104,72
2025-02-26 15:15:40.242,-367.0,-87.0,18.0,90.0,121.0,185.0,161,64,65,106,74
2025-02-26 15:15:40.249,-370.0,18.0,86.0,85.0,116.0,178.0,159,60,64,102,72
2025-02-26 15:15:40.251,-413.0,107.0,125.0,89.0,113.0,169.0,161,61,65,103,73
2025-02-26 15:15:40.258,-410.0,255.0,144.0,102.0,113.0,147.0,162,63,65,103,71
2025-02-26 15:15:40.262,-387.0,401.0,134.0,110.0,113.0,123.0,160,63,62,103,72
2025-02-26 15:15:40.270,-437.0,537.0,207.0,123.0,113.0,113.0,160,62,64,104,72
2025-02-26 15:15:40.275,-599.0,581.0,190.0,131.0,104.0,97.0,161,63,64,102,72
2025-02-26 15:15:40.279,-701.0,698.0,188.0,133.0,93.0,84.0,160,63,65,102,73
2025-02-26 15:15:40.283,-741.0,860.0,153.0,140.0,90.0,67.0,160,64,63,104,72
2025-02-26 15:15:40.291,-815.0,937.0,112.0,153.0,81.0,56.0,160,65,64,103,73
2025-02-26 15:15:40.295,-894.0,1121.0,78.0,158.0,75.0,30.0,160,63,64,102,72
2025-02-26 15:15:40.299,-933.0,1294.0,-21.0,171.0,72.0,-2.0,160,62,62,101,71
2025-02-26 15:15:40.303,-1061.0,1414.0,-153.0,185.0,65.0,-21.0,158,63,62,101,71
2025-02-26 15:15:40.311,-1232.0,1726.0,-237.0,194.0,47.0,-69.0,158,64,64,102,71
2025-02-26 15:15:40.315,-1387.0,2185.0,-387.0,191.0,24.0,-128.0,160,63,63,102,69
2025-02-26 15:15:40.319,-1471.0,2509.0,-592.0,175.0,-5.0,-198.0,159,64,66,103,73
2025-02-26 15:15:40.328,-1507.0,2682.0,-837.0,159.0,-22.0,-273.0,158,61,63,100,69
2025-02-26 15:15:40.330,-1579.0,2834.0,-1031.0,138.0,-66.0,-313.0,156,61,62,99,69
2025-02-26 15:15:40.336,-1589.0,2888.0,-1174.0,97.0,-121.0,-399.0,157,63,62,100,69
2025-02-26 15:15:40.344,-1428.0,2817.0,-1274.0,44.0,-192.0,-477.0,156,64,62,100,71
2025-02-26 15:15:40.348,-1084.0,2772.0,-1467.0,-22.0,-290.0,-538.0,157,63,63,101,70
2025-02-26 15:15:40.352,-828.0,2903.0,-1541.0,-126.0,-397.0,-603.0,157,62,60,98,69
2025-02-26 15:15:40.361,-299.0,2788.0,-1613.0,-196.0,-499.0,-664.0,157,63,64,99,70
2025-02-26 15:15:40.364,486.0,2260.0,-1799.0,-338.0,-608.0,-703.0,160,64,65,103,72
2025-02-26 15:15:40.369,903.0,1567.0,-2043.0,-476.0,-649.0,-729.0,164,68,66,104,74
2025-02-26 15:15:40.376,1890.0,364.0,-2104.0,-602.0,-712.0,-725.0,163,68,68,106,76
2025-02-26 15:15:40.381,2957.0,-327.0,-2004.0,-679.0,-741.0,-709.0,162,66,66,104,75
2025-02-26 15:15:40.389,3947.0,-2167.0,-1700.0,-680.0,-727.0,-647.0,162,67,66,104,72
2025-02-26 15:15:40.391,4447.0,-4026.0,-1074.0,-620.0,-655.0,-536.0,161,68,66,104,74
2025-02-26 15:15:40.398,4806.0,-5457.0,-560.0,-512.0,-521.0,-395.0,163,66,65,105,75
2025-02-26 15:15:40.403,5136.0,-6390.0,409.0,-362.0,-324.0,-269.0,162,66,64,103,75
2025-02-26 15:15:40.409,5310.0,-6642.0,1206.0,-182.0,-89.0,-180.0,161,66,64,105,76
2025-02-26 15:15:40.414,4907.0,-6758.0,1184.0,-91.0,100.0,-111.0,162,63,63,104,75
2025-02-26 15:15:40.422,3811.0,-6542.0,34.0,131.0,249.0,-60.0,163,67,61,103,74
2025-02-26 15:15:40.426,3097.0,-5451.0,-560.0,250.0,314.0,-16.0,159,62,58,93,73
2025-02-26 15:15:40.430,1789.0,-5071.0,-2253.0,397.0,301.0,20.0,163,64,61,102,72
2025-02-26 15:15:40.438,1066.0,-3140.0,-2615.0,430.0,251.0,58.0,181,81,79,120,91
2025-02-26 15:15:40.442,763.0,-3153.0,-1649.0,317.0,154.0,100.0,178,80,80,119,89
2025-02-26 15:15:40.446,266.0,-2006.0,-2028.0,306.0,62.0,108.0,174,76,78,117,87
2025-02-26 15:15:40.454,592.0,-1443.0,-1329.0,146.0,112.0,126.0,167,74,74,118,85
2025-02-26 15:15:40.459,247.0,-1125.0,-689.0,-1.0,52.0,133.0,172,74,74,114,85
2025-02-26 15:15:40.463,221.0,-1004.0,-575.0,-65.0,40.0,124.0,175,80,79,120,95
2025-02-26 15:15:40.467,212.0,-1839.0,-273.0,-93.0,-44.0,128.0,176,80,79,119,91
2025-02-26 15:15:40.475,277.0,-2105.0,-396.0,-71.0,-33.0,125.0,173,77,77,117,89
2025-02-26 15:15:40.479,402.0,-2186.0,-10.0,-29.0,-42.0,131.0,173,80,76,117,90
2025-02-26 15:15:40.484,637.0,-2216.0,217.0,-24.0,6.0,130.0,179,85,81,125,95
2025-02-26 15:15:40.488,308.0,-2375.0,-153.0,63.0,41.0,129.0,178,84,83,123,94
2025-02-26 15:15:40.495,655.0,-2127.0,370.0,70.0,111.0,132.0,177,83,81,121,93
2025-02-26 15:15:40.499,239.0,-2250.0,285.0,98.0,140.0,150.0,176,84,84,123,94
2025-02-26 15:15:40.504,308.0,-2019.0,402.0,147.0,61.0,180.0,179,86,86,125,96
2025-02-26 15:15:40.508,179.0,-1806.0,294.0,153.0,71.0,204.0,178,86,85,121,97
2025-02-26 15:15:40.516,263.0,-1850.0,368.0,149.0,92.0,214.0,175,83,83,122,94
2025-02-26 15:15:40.520,386.0,-1481.0,220.0,136.0,121.0,216.0,178,87,85,123,97
2025-02-26 15:15:40.524,280.0,-1221.0,238.0,129.0,136.0,219.0,179,87,87,125,99
2025-02-26 15:15:40.530,295.0,-1190.0,274.0,109.0,164.0,218.0,178,86,86,125,99
2025-02-26 15:15:40.537,279.0,-763.0,302.0,72.0,200.0,207.0,174,85,83,121,96
2025-02-26 15:15:40.541,190.0,-999.0,214.0,31.0,208.0,207.0,176,86,83,124,100
2025-02-26 15:15:40.545,117.0,-939.0,204.0,33.0,209.0,192.0,176,87,83,125,100
2025-02-26 15:15:40.552,208.0,-710.0,80.0,49.0,211.0,193.0,174,84,79,120,97
2025-02-26 15:15:40.557,149.0,-794.0,77.0,60.0,202.0,197.0,166,77,74,114,91
2025-02-26 15:15:40.561,206.0,-711.0,112.0,53.0,205.0,194.0,169,82,79,120,98
2025-02-26 15:15:40.565,56.0,-792.0,106.0,76.0,193.0,205.0,169,79,80,117,96
2025-02-26 15:15:40.570,-105.0,-745.0,8.0,80.0,183.0,207.0,166,78,78,114,94
2025-02-26 15:15:40.577,4.0,-672.0,-199.0,40.0,190.0,212.0,166,79,79,115,95
2025-02-26 15:15:40.581,165.0,-571.0,59.0,44.0,204.0,211.0,171,84,86,121,100
2025-02-26 15:15:40.585,143.0,-682.0,-93.0,68.0,190.0,217.0,167,80,81,116,98
2025-02-26 15:15:40.590,91.0,-732.0,-216.0,85.0,188.0,223.0,164,80,81,116,97
2025-02-26 15:15:40.597,110.0,-611.0,71.0,85.0,188.0,231.0,168,81,83,119,102
2025-02-26 15:15:40.602,95.0,-516.0,28.0,109.0,197.0,242.0,167,83,84,118,105
2025-02-26 15:15:40.606,68.0,-462.0,145.0,117.0,203.0,254.0,165,80,82,115,100
2025-02-26 15:15:40.610,109.0,-433.0,261.0,143.0,224.0,256.0,167,84,86,118,102
2025-02-26 15:15:40.618,41.0,-458.0,-24.0,180.0,230.0,257.0,166,86,85,120,104
2025-02-26 15:15:40.620,15.0,-365.0,183.0,180.0,240.0,259.0,169,87,88,121,106
2025-02-26 15:15:40.626,11.0,-459.0,159.0,192.0,250.0,258.0,167,85,85,118,103
2025-02-26 15:15:40.631,192.0,-345.0,79.0,194.0,256.0,256.0,166,89,87,121,106
2025-02-26 15:15:40.638,134.0,-378.0,76.0,211.0,270.0,261.0,170,92,89,122,108
2025-02-26 15:15:40.643,46.0,-392.0,-38.0,212.0,286.0,269.0,166,95,87,125,109
2025-02-26 15:15:40.647,2.0,-403.0,-22.0,214.0,290.0,280.0,166,93,86,123,106
2025-02-26 15:15:40.652,-170.0,-452.0,-65.0,217.0,284.0,284.0,170,96,89,124,110
2025-02-26 15:15:40.659,-279.0,-338.0,-154.0,214.0,294.0,301.0,169,95,88,124,109
2025-02-26 15:15:40.663,-209.0,-152.0,70.0,200.0,283.0,307.0,167,93,86,123,108
2025-02-26 15:15:40.667,-292.0,106.0,-149.0,203.0,266.0,316.0,167,90,85,118,106
2025-02-26 15:15:40.676,-442.0,5.0,274.0,188.0,263.0,322.0,166,87,83,117,104
2025-02-26 15:15:40.679,-235.0,183.0,231.0,179.0,266.0,333.0,169,88,85,121,106
2025-02-26 15:15:40.684,-197.0,173.0,238.0,175.0,270.0,341.0,170,87,84,120,105
2025-02-26 15:15:40.688,-206.0,253.0,287.0,158.0,279.0,346.0,165,84,82,118,102
2025-02-26 15:15:40.694,-79.0,227.0,120.0,151.0,285.0,347.0,165,84,80,118,101
2025-02-26 15:15:40.700,-176.0,256.0,13.0,149.0,276.0,349.0,173,88,82,122,105
2025-02-26 15:15:40.704,-246.0,221.0,-42.0,148.0,268.0,350.0,166,81,79,116,99
