timestamp,ax,ay,az,gx,gy,gz,flex1,flex2,flex3,flex4,flex5,emg1,emg2,emg3
2025-02-26 15:14:52.519,-354.0,-115.0,1030.0,13.0,-9.0,-6.0,192,168,166,183,176
2025-02-26 15:14:52.531,-359.0,-115.0,1001.0,11.0,-8.0,-6.0,189,164,160,177,171
2025-02-26 15:14:52.533,-354.0,-116.0,1009.0,9.0,-6.0,-6.0,192,170,167,181,176
2025-02-26 15:14:52.535,-353.0,-119.0,1001.0,9.0,-3.0,-6.0,195,173,168,185,178
2025-02-26 15:14:52.538,-344.0,-108.0,992.0,9.0,-2.0,-5.0,189,167,162,179,173
2025-02-26 15:14:52.540,-354.0,-105.0,993.0,10.0,-1.0,-5.0,192,170,166,183,176
2025-02-26 15:14:52.542,-355.0,-99.0,972.0,10.0,0.0,-5.0,192,170,166,182,177
2025-02-26 15:14:52.544,-358.0,-97.0,970.0,10.0,0.0,-6.0,191,168,164,181,175
2025-02-26 15:14:52.546,-350.0,-91.0,969.0,9.0,0.0,-6.0,194,171,166,184,176
2025-02-26 15:14:52.549,-347.0,-81.0,970.0,9.0,0.0,-6.0,190,169,165,181,175
2025-02-26 15:14:52.551,-343.0,-77.0,966.0,10.0,1.0,-7.0,187,165,163,178,171
2025-02-26 15:14:52.553,-338.0,-76.0,964.0,10.0,1.0,-8.0,195,173,170,186,179
2025-02-26 15:14:52.555,-342.0,-82.0,969.0,10.0,2.0,-9.0,191,170,167,183,177
2025-02-26 15:14:52.558,-343.0,-80.0,960.0,8.0,2.0,-10.0,187,164,160,177,171
2025-02-26 15:14:52.560,-347.0,-79.0,963.0,8.0,2.0,-10.0,192,169,166,183,176
2025-02-26 15:14:52.562,-342.0,-85.0,954.0,7.0,2.0,-10.0,196,174,170,187,180
2025-02-26 15:14:52.564,-348.0,-93.0,957.0,8.0,3.0,-10.0,188,166,163,179,172
2025-02-26 15:14:52.567,-346.0,-103.0,941.0,6.0,3.0,-10.0,192,170,166,183,175
2025-02-26 15:14:52.569,-341.0,-104.0,932.0,7.0,2.0,-9.0,190,169,166,181,175
2025-02-26 15:14:52.571,-351.0,-106.0,942.0,7.0,2.0,-7.0,193,170,167,182,176
2025-02-26 15:14:52.573,-350.0,-105.0,933.0,8.0,3.0,-7.0,193,174,168,184,177
2025-02-26 15:14:52.576,-349.0,-100.0,942.0,8.0,3.0,-6.0,191,170,165,183,176
2025-02-26 15:14:52.578,-353.0,-93.0,918.0,9.0,3.0,-6.0,188,164,161,178,171
2025-02-26 15:14:52.581,-348.0,-83.0,948.0,8.0,3.0,-6.0,197,176,170,188,181
2025-02-26 15:14:52.582,-356.0,-92.0,933.0,8.0,3.0,-6.0,191,170,166,182,177
2025-02-26 15:14:52.585,-339.0,-83.0,941.0,10.0,3.0,-6.0,188,168,161,178,171
2025-02-26 15:14:52.587,-348.0,-77.0,948.0,10.0,3.0,-6.0,192,171,167,184,175
2025-02-26 15:14:52.589,-334.0,-80.0,958.0,10.0,3.0,-7.0,196,174,171,187,181
2025-02-26 15:14:52.592,-340.0,-77.0,954.0,10.0,3.0,-7.0,189,167,161,179,172
2025-02-26 15:14:52.594,-342.0,-82.0,957.0,10.0,2.0,-7.0,192,171,167,183,177
2025-02-26 15:14:52.596,-349.0,-78.0,955.0,10.0,2.0,-7.0,191,169,165,182,175
2025-02-26 15:14:52.598,-352.0,-72.0,958.0,10.0,2.0,-7.0,192,171,168,184,176
2025-02-26 15:14:52.600,-353.0,-94.0,952.0,9.0,2.0,-7.0,193,171,168,186,178
2025-02-26 15:14:52.603,-346.0,-88.0,964.0,10.0,2.0,-7.0,192,169,165,183,176
2025-02-26 15:14:52.605,-357.0,-86.0,963.0,10.0,3.0,-6.0,188,166,161,179,171
2025-02-26 15:14:52.605,-353.0,-85.0,951.0,9.0,3.0,-6.0,195,172,169,186,179
2025-02-26 15:14:52.605,-342.0,-89.0,969.0,10.0,5.0,-6.0,193,172,168,185,177
2025-02-26 15:14:52.605,-347.0,-87.0,963.0,9.0,5.0,-6.0,188,166,161,178,172
2025-02-26 15:14:52.614,-347.0,-89.0,966.0,10.0,6.0,-6.0,192,170,165,183,177
2025-02-26 15:14:52.616,-354.0,-90.0,967.0,10.0,7.0,-6.0,193,172,168,184,177
2025-02-26 15:14:52.619,-351.0,-97.0,968.0,11.0,7.0,-6.0,188,168,163,180,173
2025-02-26 15:14:52.619,-351.0,-83.0,950.0,10.0,7.0,-5.0,193,172,168,181,178
2025-02-26 15:14:52.619,-361.0,-84.0,963.0,10.0,7.0,-5.0,192,170,167,183,176
2025-02-26 15:14:52.626,-368.0,-80.0,958.0,9.0,8.0,-5.0,187,167,163,179,173
2025-02-26 15:14:52.628,-368.0,-77.0,952.0,7.0,7.0,-5.0,188,164,161,178,171
2025-02-26 15:14:52.632,-368.0,-73.0,979.0,4.0,7.0,-5.0,194,171,167,184,177
2025-02-26 15:14:52.634,-390.0,-64.0,944.0,3.0,6.0,-5.0,189,166,162,179,172
2025-02-26 15:14:52.636,-383.0,-62.0,947.0,1.0,7.0,-5.0,187,166,162,179,172
2025-02-26 15:14:52.636,-388.0,-76.0,933.0,-2.0,6.0,-5.0,193,172,169,185,178
2025-02-26 15:14:52.640,-384.0,-78.0,936.0,-1.0,5.0,-5.0,192,170,167,183,176
2025-02-26 15:14:52.642,-384.0,-84.0,939.0,-3.0,5.0,-6.0,187,166,160,177,170
2025-02-26 15:14:52.645,-384.0,-112.0,924.0,-2.0,3.0,-5.0,193,172,167,184,177
2025-02-26 15:14:52.647,-371.0,-118.0,946.0,1.0,3.0,-6.0,194,173,169,184,178
2025-02-26 15:14:52.648,-382.0,-99.0,913.0,2.0,2.0,-5.0,188,167,163,179,172
2025-02-26 15:14:52.652,-382.0,-104.0,917.0,6.0,1.0,-4.0,186,165,160,177,169
2025-02-26 15:14:52.654,-380.0,-97.0,935.0,7.0,1.0,-4.0,192,172,168,186,178
2025-02-26 15:14:52.657,-396.0,-89.0,936.0,9.0,0.0,-4.0,191,170,165,183,175
2025-02-26 15:14:52.658,-392.0,-72.0,947.0,9.0,0.0,-4.0,188,166,163,179,172
2025-02-26 15:14:52.662,-397.0,-77.0,935.0,9.0,0.0,-3.0,193,170,165,183,175
2025-02-26 15:14:52.664,-384.0,-47.0,927.0,9.0,0.0,-4.0,192,170,167,183,175
2025-02-26 15:14:52.666,-388.0,-53.0,952.0,7.0,0.0,-4.0,190,167,163,180,172
2025-02-26 15:14:52.668,-399.0,-59.0,944.0,4.0,1.0,-3.0,191,171,166,184,177
2025-02-26 15:14:52.669,-387.0,-48.0,936.0,3.0,1.0,-3.0,191,169,164,181,175
2025-02-26 15:14:52.672,-401.0,-65.0,943.0,3.0,1.0,-3.0,187,166,161,178,171
2025-02-26 15:14:52.674,-393.0,-75.0,925.0,3.0,0.0,-3.0,193,171,168,184,178
2025-02-26 15:14:52.676,-389.0,-74.0,939.0,3.0,0.0,-2.0,191,170,165,180,174
2025-02-26 15:14:52.678,-394.0,-81.0,929.0,4.0,-1.0,-2.0,187,165,162,178,171
2025-02-26 15:14:52.679,-395.0,-83.0,927.0,4.0,-1.0,-2.0,192,171,167,184,177
2025-02-26 15:14:52.682,-394.0,-83.0,929.0,4.0,-2.0,-2.0,194,171,166,184,177
2025-02-26 15:14:52.683,-390.0,-80.0,938.0,5.0,-1.0,-1.0,188,166,163,180,172
2025-02-26 15:14:52.685,-395.0,-80.0,940.0,7.0,-2.0,-1.0,186,166,161,179,170
2025-02-26 15:14:52.687,-385.0,-69.0,939.0,7.0,-2.0,-1.0,192,171,168,183,177
2025-02-26 15:14:52.688,-384.0,-66.0,951.0,8.0,-2.0,-1.0,192,171,166,182,175
2025-02-26 15:14:52.688,-389.0,-63.0,965.0,8.0,-2.0,-1.0,187,166,161,176,170
2025-02-26 15:14:52.696,-385.0,-54.0,955.0,8.0,-2.0,-1.0,191,171,166,184,176
2025-02-26 15:14:52.702,-396.0,-57.0,951.0,8.0,-3.0,-1.0,197,176,172,188,182
2025-02-26 15:14:52.707,-392.0,-44.0,958.0,7.0,-3.0,0.0,189,168,163,178,171
2025-02-26 15:14:52.710,-396.0,-55.0,960.0,6.0,-3.0,0.0,186,165,160,178,170
2025-02-26 15:14:52.714,-385.0,-31.0,965.0,4.0,-3.0,-1.0,192,170,166,183,176
2025-02-26 15:14:52.723,-391.0,-27.0,963.0,3.0,-4.0,-1.0,192,173,167,184,178
2025-02-26 15:14:52.726,-384.0,-35.0,974.0,0.0,-3.0,-2.0,188,168,163,178,173
2025-02-26 15:14:52.731,-387.0,-41.0,960.0,-1.0,-2.0,-1.0,191,171,167,183,175
2025-02-26 15:14:52.739,-383.0,-44.0,961.0,-1.0,-2.0,-2.0,190,170,164,183,175
2025-02-26 15:14:52.739,-380.0,-59.0,965.0,-1.0,-2.0,-1.0,193,172,168,184,177
2025-02-26 15:14:52.747,-370.0,-71.0,965.0,-1.0,-1.0,-1.0,186,166,160,177,170
2025-02-26 15:14:52.751,-372.0,-84.0,974.0,1.0,0.0,0.0,192,172,167,183,176
2025-02-26 15:14:52.751,-372.0,-86.0,969.0,2.0,1.0,0.0,189,168,163,181,175
2025-02-26 15:14:52.763,-366.0,-83.0,974.0,5.0,2.0,1.0,191,175,166,182,176
2025-02-26 15:14:52.763,-365.0,-85.0,965.0,7.0,2.0,1.0,195,174,168,183,178
2025-02-26 15:14:52.772,-362.0,-73.0,962.0,7.0,2.0,2.0,188,167,160,179,174
2025-02-26 15:14:52.774,-375.0,-62.0,960.0,9.0,3.0,2.0,186,165,158,177,171
2025-02-26 15:14:52.774,-372.0,-60.0,959.0,8.0,3.0,2.0,197,176,172,188,182
2025-02-26 15:14:52.787,-378.0,-43.0,962.0,7.0,3.0,2.0,190,170,164,179,173
2025-02-26 15:14:52.792,-382.0,-40.0,958.0,6.0,4.0,2.0,185,166,159,176,170
2025-02-26 15:14:52.797,-384.0,-33.0,952.0,4.0,3.0,2.0,192,171,166,182,177
2025-02-26 15:14:52.799,-386.0,-34.0,944.0,4.0,3.0,2.0,190,170,166,182,175
2025-02-26 15:14:52.805,-386.0,-36.0,948.0,1.0,3.0,2.0,186,166,160,178,169
2025-02-26 15:14:52.811,-392.0,-35.0,940.0,-1.0,3.0,2.0,192,171,166,183,177
2025-02-26 15:14:52.813,-389.0,-43.0,937.0,-2.0,3.0,2.0,187,166,161,178,170
2025-02-26 15:14:52.821,-388.0,-39.0,945.0,-4.0,3.0,1.0,185,163,158,176,169
2025-02-26 15:14:52.823,-392.0,-51.0,929.0,-2.0,1.0,1.0,193,173,168,185,177
2025-02-26 15:14:52.823,-386.0,-45.0,943.0,-3.0,2.0,1.0,187,167,161,179,172
2025-02-26 15:14:52.836,-381.0,-47.0,930.0,-3.0,2.0,2.0,184,164,158,175,168
2025-02-26 15:14:52.836,-385.0,-69.0,910.0,-2.0,2.0,2.0,193,173,167,184,177
2025-02-26 15:14:52.845,-381.0,-62.0,922.0,-1.0,2.0,2.0,188,168,163,179,173
2025-02-26 15:14:52.848,-376.0,-70.0,922.0,1.0,2.0,2.0,185,165,160,178,170
2025-02-26 15:14:52.854,-376.0,-75.0,910.0,2.0,2.0,2.0,192,174,166,184,177
2025-02-26 15:14:52.859,-379.0,-47.0,916.0,3.0,2.0,2.0,187,167,161,178,171
2025-02-26 15:14:52.866,-386.0,-54.0,920.0,3.0,2.0,2.0,187,165,162,176,170
2025-02-26 15:14:52.871,-394.0,-37.0,913.0,3.0,2.0,3.0,192,173,169,183,178
2025-02-26 15:14:52.875,-388.0,-33.0,913.0,3.0,2.0,2.0,187,169,161,177,169
2025-02-26 15:14:52.878,-383.0,-36.0,920.0,2.0,2.0,2.0,184,165,157,176,169
2025-02-26 15:14:52.884,-378.0,-37.0,906.0,3.0,2.0,2.0,193,173,168,185,178
2025-02-26 15:14:52.884,-379.0,-33.0,916.0,2.0,3.0,2.0,189,168,162,178,172
2025-02-26 15:14:52.895,-387.0,-40.0,917.0,3.0,3.0,2.0,185,163,159,176,166
2025-02-26 15:14:52.900,-382.0,-45.0,906.0,3.0,3.0,2.0,191,172,166,183,175
2025-02-26 15:14:52.902,-383.0,-41.0,902.0,3.0,3.0,2.0,188,168,162,180,172
2025-02-26 15:14:52.908,-380.0,-36.0,913.0,4.0,2.0,2.0,186,166,160,178,169
2025-02-26 15:14:52.914,-384.0,-36.0,911.0,3.0,2.0,2.0,190,172,165,183,175
2025-02-26 15:14:52.920,-382.0,-31.0,904.0,4.0,2.0,2.0,186,167,160,177,170
2025-02-26 15:14:52.924,-388.0,-29.0,915.0,4.0,2.0,2.0,187,167,161,180,170
2025-02-26 15:14:52.926,-388.0,-28.0,906.0,3.0,2.0,2.0,192,172,167,183,177
2025-02-26 15:14:52.936,-382.0,-22.0,904.0,3.0,1.0,2.0,187,169,161,177,171
2025-02-26 15:14:52.936,-388.0,-28.0,912.0,1.0,1.0,1.0,186,166,159,176,169
2025-02-26 15:14:52.936,-390.0,-25.0,910.0,0.0,0.0,2.0,192,173,168,183,177
2025-02-26 15:14:52.948,-386.0,-18.0,913.0,0.0,0.0,2.0,189,167,162,178,171
2025-02-26 15:14:52.952,-392.0,-16.0,909.0,-1.0,0.0,2.0,191,172,166,182,175
2025-02-26 15:14:52.960,-384.0,-14.0,908.0,-2.0,-1.0,2.0,192,171,167,183,175
2025-02-26 15:14:52.965,-400.0,-23.0,908.0,-2.0,-1.0,1.0,189,169,163,180,172
2025-02-26 15:14:52.969,-394.0,-22.0,917.0,-2.0,-1.0,0.0,192,174,167,184,176
2025-02-26 15:14:52.973,-395.0,-21.0,920.0,-2.0,-1.0,0.0,190,171,165,182,175
2025-02-26 15:14:52.977,-394.0,-24.0,922.0,-1.0,-1.0,-1.0,188,167,161,177,173
2025-02-26 15:14:52.985,-392.0,-21.0,928.0,0.0,-2.0,-1.0,187,168,162,179,171
2025-02-26 15:14:52.989,-391.0,-30.0,926.0,1.0,-2.0,-1.0,192,173,166,181,176
2025-02-26 15:14:52.993,-390.0,-28.0,931.0,2.0,-2.0,-2.0,190,171,164,181,174
2025-02-26 15:14:52.995,-384.0,-29.0,938.0,2.0,-2.0,-2.0,186,166,160,176,170
2025-02-26 15:14:53.005,-384.0,-25.0,946.0,3.0,-2.0,-2.0,193,173,167,185,177
2025-02-26 15:14:53.008,-389.0,-21.0,945.0,3.0,-3.0,-2.0,192,171,166,182,175
2025-02-26 15:14:53.014,-381.0,-17.0,948.0,3.0,-3.0,-3.0,187,166,161,177,171
2025-02-26 15:14:53.018,-380.0,-15.0,958.0,2.0,-3.0,-2.0,188,167,161,177,170
2025-02-26 15:14:53.026,-384.0,-12.0,958.0,0.0,-3.0,-3.0,192,173,168,183,177
2025-02-26 15:14:53.030,-388.0,-6.0,966.0,-1.0,-3.0,-3.0,189,170,164,180,174
2025-02-26 15:14:53.031,-387.0,-9.0,975.0,-3.0,-3.0,-3.0,189,167,160,178,171
2025-02-26 15:14:53.038,-389.0,-23.0,967.0,-6.0,-3.0,-3.0,191,171,166,184,175
2025-02-26 15:14:53.046,-384.0,-22.0,966.0,-6.0,-3.0,-4.0,192,171,165,183,176
2025-02-26 15:14:53.051,-372.0,-20.0,971.0,-6.0,-3.0,-4.0,188,168,162,177,172
2025-02-26 15:14:53.055,-383.0,-24.0,972.0,-7.0,-3.0,-4.0,187,164,159,176,168
2025-02-26 15:14:53.059,-376.0,-26.0,985.0,-5.0,-2.0,-5.0,191,171,166,182,175
2025-02-26 15:14:53.066,-371.0,-33.0,989.0,-6.0,0.0,-5.0,190,167,165,181,173
2025-02-26 15:14:53.068,-371.0,-35.0,984.0,-4.0,0.0,-5.0,188,168,162,177,171
2025-02-26 15:14:53.075,-372.0,-33.0,971.0,-2.0,1.0,-5.0,190,171,166,182,175
2025-02-26 15:14:53.080,-380.0,-31.0,975.0,-2.0,2.0,-5.0,192,171,166,183,174
2025-02-26 15:14:53.087,-388.0,-39.0,967.0,-2.0,3.0,-5.0,188,168,162,177,171
2025-02-26 15:14:53.092,-390.0,-26.0,961.0,-1.0,3.0,-5.0,186,166,161,177,171
2025-02-26 15:14:53.096,-392.0,-20.0,956.0,-1.0,4.0,-6.0,190,171,165,177,174
2025-02-26 15:14:53.100,-401.0,-23.0,958.0,-2.0,3.0,-6.0,189,169,164,180,173
2025-02-26 15:14:53.108,-403.0,-18.0,946.0,-4.0,3.0,-7.0,186,167,162,180,172
2025-02-26 15:14:53.112,-402.0,-19.0,947.0,-5.0,2.0,-7.0,191,172,166,183,176
2025-02-26 15:14:53.116,-409.0,-28.0,940.0,-7.0,1.0,-7.0,189,171,165,183,175
2025-02-26 15:14:53.121,-405.0,-40.0,941.0,-7.0,0.0,-8.0,187,168,161,177,171
2025-02-26 15:14:53.123,-405.0,-52.0,946.0,-7.0,-1.0,-8.0,186,167,161,176,169
2025-02-26 15:14:53.133,-404.0,-62.0,937.0,-6.0,-2.0,-7.0,191,172,166,182,176
2025-02-26 15:14:53.135,-396.0,-65.0,944.0,-6.0,-4.0,-7.0,189,169,163,179,173
2025-02-26 15:14:53.140,-397.0,-70.0,950.0,-4.0,-4.0,-6.0,185,167,160,178,171
2025-02-26 15:14:53.148,-393.0,-80.0,965.0,-2.0,-4.0,-6.0,187,166,160,177,170
2025-02-26 15:14:53.153,-385.0,-82.0,967.0,1.0,-4.0,-5.0,191,171,164,181,174
2025-02-26 15:14:53.157,-379.0,-85.0,984.0,3.0,-4.0,-4.0,190,169,163,182,174
2025-02-26 15:14:53.162,-380.0,-82.0,989.0,5.0,-4.0,-4.0,190,171,165,182,175
2025-02-26 15:14:53.166,-381.0,-84.0,1010.0,7.0,-2.0,-3.0,191,172,167,184,176
2025-02-26 15:14:53.173,-376.0,-71.0,1012.0,9.0,-2.0,-3.0,192,171,166,183,176
2025-02-26 15:14:53.177,-384.0,-59.0,1013.0,8.0,-1.0,-2.0,187,166,160,178,171
2025-02-26 15:14:53.182,-384.0,-55.0,1025.0,8.0,0.0,-2.0,192,172,167,184,176
2025-02-26 15:14:53.186,-391.0,-54.0,1007.0,7.0,1.0,-1.0,192,172,165,184,177
2025-02-26 15:14:53.194,-395.0,-31.0,1001.0,5.0,2.0,-1.0,189,169,164,180,173
2025-02-26 15:14:53.198,-393.0,-42.0,999.0,4.0,1.0,-1.0,185,166,160,177,170
2025-02-26 15:14:53.203,-399.0,-28.0,997.0,3.0,3.0,-1.0,196,177,172,187,182
2025-02-26 15:14:53.207,-400.0,-14.0,990.0,1.0,3.0,-1.0,192,173,167,184,177
2025-02-26 15:14:53.214,-403.0,-24.0,995.0,1.0,4.0,-2.0,187,167,162,178,171
2025-02-26 15:14:53.219,-403.0,-15.0,962.0,0.0,4.0,-2.0,191,170,164,182,175
2025-02-26 15:14:53.220,-405.0,-27.0,966.0,0.0,5.0,-2.0,197,176,172,188,181
2025-02-26 15:14:53.227,-400.0,-34.0,961.0,-1.0,5.0,-3.0,188,168,162,181,173
2025-02-26 15:14:53.232,-401.0,-45.0,935.0,1.0,5.0,-3.0,185,164,158,176,169
2025-02-26 15:14:53.238,-409.0,-50.0,918.0,1.0,6.0,-4.0,191,172,164,182,174
2025-02-26 15:14:53.243,-427.0,-40.0,918.0,2.0,5.0,-4.0,192,173,167,183,177
2025-02-26 15:14:53.248,-402.0,-35.0,906.0,1.0,5.0,-4.0,186,166,160,177,171
2025-02-26 15:14:53.251,-410.0,-51.0,933.0,3.0,5.0,-4.0,191,172,165,182,175
2025-02-26 15:14:53.256,-412.0,-56.0,913.0,4.0,4.0,-4.0,188,170,163,181,174
2025-02-26 15:14:53.264,-405.0,-45.0,924.0,3.0,4.0,-4.0,192,171,165,183,176
2025-02-26 15:14:53.268,-413.0,-64.0,905.0,2.0,4.0,-4.0,192,172,167,182,175
2025-02-26 15:14:53.272,-403.0,-62.0,899.0,3.0,4.0,-5.0,190,170,163,180,173
2025-02-26 15:14:53.276,-404.0,-56.0,886.0,1.0,4.0,-5.0,186,166,160,177,169
2025-02-26 15:14:53.284,-406.0,-73.0,901.0,1.0,3.0,-5.0,196,176,171,186,179
2025-02-26 15:14:53.288,-405.0,-64.0,894.0,0.0,3.0,-5.0,190,170,164,180,173
2025-02-26 15:14:53.293,-406.0,-61.0,896.0,-1.0,3.0,-5.0,185,165,159,176,170
2025-02-26 15:14:53.296,-406.0,-70.0,895.0,-1.0,3.0,-5.0,190,170,166,182,174
2025-02-26 15:14:53.297,-402.0,-73.0,893.0,-2.0,2.0,-5.0,197,175,169,187,180
2025-02-26 15:14:53.308,-398.0,-76.0,895.0,-2.0,2.0,-5.0,188,168,162,179,172
2025-02-26 15:14:53.312,-407.0,-84.0,898.0,-4.0,2.0,-5.0,185,164,159,175,168
2025-02-26 15:14:53.317,-397.0,-69.0,890.0,-3.0,1.0,-5.0,190,171,166,182,176
2025-02-26 15:14:53.321,-397.0,-89.0,913.0,-4.0,0.0,-4.0,195,175,169,186,179
2025-02-26 15:14:53.329,-393.0,-93.0,905.0,-3.0,-1.0,-5.0,187,166,161,178,170
2025-02-26 15:14:53.333,-402.0,-94.0,907.0,-3.0,-1.0,-4.0,190,170,165,182,175
2025-02-26 15:14:53.335,-403.0,-106.0,914.0,-2.0,-1.0,-4.0,191,170,165,182,174
2025-02-26 15:14:53.341,-396.0,-112.0,917.0,-1.0,-1.0,-3.0,193,173,167,184,177
2025-02-26 15:14:53.348,-397.0,-105.0,920.0,0.0,-1.0,-2.0,186,166,161,177,170
2025-02-26 15:14:53.354,-395.0,-105.0,918.0,3.0,-2.0,-2.0,190,170,165,181,175
2025-02-26 15:14:53.358,-402.0,-104.0,926.0,4.0,-2.0,-1.0,190,170,165,181,174
2025-02-26 15:14:53.363,-404.0,-98.0,928.0,4.0,-2.0,0.0,190,170,165,182,175
2025-02-26 15:14:53.369,-407.0,-94.0,935.0,4.0,-3.0,0.0,187,167,161,178,172
2025-02-26 15:14:53.375,-410.0,-94.0,936.0,3.0,-3.0,0.0,191,171,165,183,176
2025-02-26 15:14:53.378,-405.0,-86.0,947.0,3.0,-3.0,1.0,191,170,165,181,174
2025-02-26 15:14:53.383,-401.0,-77.0,955.0,2.0,-3.0,1.0,189,170,163,180,173
2025-02-26 15:14:53.389,-400.0,-80.0,959.0,1.0,-4.0,1.0,193,173,167,184,175
2025-02-26 15:14:53.395,-394.0,-77.0,963.0,1.0,-3.0,1.0,189,169,163,180,173
2025-02-26 15:14:53.399,-394.0,-77.0,965.0,0.0,-4.0,1.0,185,166,158,176,169
2025-02-26 15:14:53.403,-384.0,-80.0,967.0,0.0,-4.0,1.0,195,175,169,186,179
2025-02-26 15:14:53.408,-385.0,-83.0,969.0,0.0,-4.0,2.0,190,172,164,181,175
2025-02-26 15:14:53.414,-376.0,-80.0,972.0,1.0,-4.0,2.0,186,168,159,177,170
2025-02-26 15:14:53.419,-375.0,-80.0,973.0,1.0,-3.0,2.0,192,171,165,182,175
2025-02-26 15:14:53.424,-375.0,-79.0,975.0,1.0,-3.0,3.0,194,174,169,187,179
2025-02-26 15:14:53.427,-372.0,-67.0,966.0,2.0,-3.0,4.0,187,167,161,179,171
2025-02-26 15:14:53.432,-370.0,-66.0,970.0,3.0,-2.0,4.0,191,172,166,183,176
2025-02-26 15:14:53.439,-375.0,-50.0,972.0,1.0,-1.0,4.0,191,171,165,183,176
2025-02-26 15:14:53.443,-376.0,-30.0,965.0,1.0,-1.0,4.0,191,170,163,182,173
2025-02-26 15:14:53.448,-387.0,-41.0,966.0,0.0,-1.0,3.0,188,169,164,180,173
2025-02-26 15:14:53.453,-382.0,-27.0,958.0,-2.0,-1.0,3.0,192,172,166,181,176
2025-02-26 15:14:53.460,-378.0,-15.0,950.0,-3.0,-2.0,3.0,187,167,161,178,170
2025-02-26 15:14:53.464,-386.0,-21.0,967.0,-3.0,-2.0,3.0,189,168,163,180,174
2025-02-26 15:14:53.469,-384.0,-19.0,963.0,-3.0,-3.0,3.0,192,173,166,182,176
2025-02-26 15:14:53.473,-382.0,-19.0,971.0,-3.0,-2.0,3.0,190,170,163,180,173
2025-02-26 15:14:53.477,-385.0,-29.0,971.0,-1.0,-2.0,3.0,185,165,159,176,169
2025-02-26 15:14:53.485,-391.0,-26.0,970.0,0.0,-2.0,3.0,194,175,168,186,179
2025-02-26 15:14:53.489,-394.0,-29.0,960.0,2.0,-2.0,3.0,192,173,167,184,177
2025-02-26 15:14:53.493,-391.0,-30.0,959.0,3.0,-2.0,2.0,187,166,160,178,169
2025-02-26 15:14:53.498,-396.0,-37.0,968.0,6.0,-2.0,2.0,189,169,164,180,172
2025-02-26 15:14:53.504,-396.0,-24.0,971.0,8.0,-2.0,1.0,195,175,169,186,178
2025-02-26 15:14:53.509,-398.0,-20.0,976.0,8.0,-2.0,1.0,188,167,163,179,171
2025-02-26 15:14:53.513,-401.0,-15.0,964.0,8.0,-2.0,1.0,185,165,159,176,168
2025-02-26 15:14:53.516,-392.0,-10.0,1000.0,5.0,1.0,1.0,191,171,166,184,175
2025-02-26 15:14:53.522,-395.0,-10.0,969.0,5.0,0.0,1.0,190,169,164,180,173
2025-02-26 15:14:53.529,-398.0,-10.0,990.0,3.0,1.0,0.0,186,165,158,176,169
2025-02-26 15:14:53.533,-398.0,-7.0,980.0,2.0,2.0,0.0,191,171,165,182,176
2025-02-26 15:14:53.538,-398.0,-5.0,974.0,2.0,2.0,0.0,186,168,159,176,169
2025-02-26 15:14:53.542,-399.0,-9.0,970.0,0.0,3.0,-1.0,194,173,169,185,177
2025-02-26 15:14:53.547,-404.0,-11.0,948.0,-1.0,2.0,-1.0,190,172,167,184,176
2025-02-26 15:14:53.554,-407.0,-14.0,958.0,-2.0,2.0,-1.0,186,166,161,178,171
2025-02-26 15:14:53.558,-402.0,-27.0,950.0,-3.0,2.0,-1.0,186,166,159,175,169
2025-02-26 15:14:53.562,-408.0,-30.0,940.0,-1.0,2.0,-1.0,197,176,171,188,181
2025-02-26 15:14:53.567,-405.0,-37.0,930.0,-2.0,2.0,-1.0,191,170,164,184,175
2025-02-26 15:14:53.575,-401.0,-45.0,924.0,-1.0,2.0,-1.0,187,167,160,178,170
2025-02-26 15:14:53.579,-407.0,-47.0,940.0,0.0,2.0,-1.0,190,172,165,181,175
2025-02-26 15:14:53.583,-404.0,-52.0,927.0,1.0,3.0,-1.0,193,174,169,185,178
2025-02-26 15:14:53.587,-405.0,-44.0,928.0,3.0,2.0,-1.0,187,167,161,178,171
2025-02-26 15:14:53.590,-400.0,-50.0,923.0,5.0,2.0,-2.0,193,171,165,183,174
2025-02-26 15:14:53.599,-400.0,-55.0,929.0,5.0,2.0,-1.0,191,171,164,181,173
2025-02-26 15:14:53.603,-397.0,-56.0,918.0,7.0,2.0,-2.0,191,172,166,184,176
2025-02-26 15:14:53.607,-393.0,-54.0,920.0,7.0,2.0,-2.0,193,171,167,183,176
2025-02-26 15:14:53.612,-391.0,-50.0,926.0,8.0,3.0,-2.0,190,170,166,183,175
2025-02-26 15:14:53.616,-400.0,-41.0,925.0,7.0,3.0,-2.0,186,167,161,177,171
2025-02-26 15:14:53.623,-394.0,-41.0,920.0,6.0,3.0,-2.0,194,174,169,187,178
2025-02-26 15:14:53.628,-395.0,-44.0,928.0,5.0,3.0,-2.0,192,172,165,182,175
2025-02-26 15:14:53.632,-391.0,-39.0,928.0,4.0,3.0,-2.0,187,167,162,179,171
2025-02-26 15:14:53.636,-397.0,-39.0,913.0,3.0,3.0,-2.0,185,165,159,174,167
2025-02-26 15:14:53.644,-401.0,-40.0,918.0,2.0,3.0,-2.0,196,177,171,186,180
2025-02-26 15:14:53.648,-400.0,-38.0,910.0,1.0,1.0,-2.0,187,168,162,180,172
2025-02-26 15:14:53.652,-403.0,-36.0,911.0,0.0,1.0,-2.0,184,164,160,175,169
2025-02-26 15:14:53.657,-405.0,-42.0,913.0,-1.0,-1.0,-1.0,192,171,165,181,174
2025-02-26 15:14:53.661,-399.0,-38.0,910.0,-2.0,-2.0,-1.0,195,174,170,184,178
2025-02-26 15:14:53.669,-400.0,-49.0,919.0,-3.0,-2.0,-2.0,188,168,161,178,170
2025-02-26 15:14:53.674,-394.0,-39.0,906.0,-5.0,-3.0,-2.0,191,170,165,181,174
2025-02-26 15:14:53.678,-402.0,-56.0,915.0,-6.0,-3.0,-2.0,191,172,164,182,174
2025-02-26 15:14:53.682,-391.0,-50.0,914.0,-5.0,-3.0,-2.0,192,176,168,186,178
2025-02-26 15:14:53.690,-404.0,-39.0,915.0,-4.0,-4.0,-1.0,186,168,160,177,171
2025-02-26 15:14:53.694,-394.0,-53.0,911.0,-3.0,-3.0,-1.0,191,170,166,180,174
2025-02-26 15:14:53.698,-400.0,-51.0,929.0,-1.0,-3.0,-1.0,190,171,164,182,173
2025-02-26 15:14:53.705,-390.0,-48.0,936.0,-1.0,-3.0,-1.0,188,169,164,180,174
2025-02-26 15:14:53.710,-395.0,-49.0,944.0,2.0,-3.0,-1.0,186,167,161,178,170
2025-02-26 15:14:53.714,-407.0,-63.0,949.0,5.0,-3.0,-1.0,188,169,165,182,173
2025-02-26 15:14:53.718,-404.0,-56.0,955.0,4.0,-3.0,0.0,189,169,163,179,172
2025-02-26 15:14:53.723,-396.0,-30.0,945.0,6.0,-3.0,-1.0,186,166,163,179,172
2025-02-26 15:14:53.730,-402.0,-26.0,923.0,10.0,-6.0,0.0,191,173,166,181,173
2025-02-26 15:14:53.735,-394.0,-16.0,1009.0,5.0,-2.0,0.0,189,170,163,182,173
2025-02-26 15:14:53.739,-383.0,9.0,943.0,2.0,-2.0,-1.0,185,165,157,177,170
2025-02-26 15:14:53.743,-401.0,0.0,960.0,10.0,-3.0,0.0,184,164,159,176,169
2025-02-26 15:14:53.747,-397.0,10.0,970.0,1.0,-3.0,0.0,196,175,169,186,179
2025-02-26 15:14:53.754,-419.0,-9.0,954.0,4.0,-4.0,-1.0,204,185,181,195,189
2025-02-26 15:14:53.759,-408.0,20.0,975.0,-2.0,-2.0,0.0,199,180,174,189,184
2025-02-26 15:14:53.764,-396.0,14.0,976.0,-7.0,-2.0,-1.0,210,191,186,200,195
2025-02-26 15:14:53.767,-426.0,-17.0,964.0,-7.0,-2.0,-2.0,213,196,188,206,198
2025-02-26 15:14:53.776,-421.0,1.0,969.0,-10.0,-2.0,-2.0,207,191,185,200,193
2025-02-26 15:14:53.779,-418.0,25.0,1023.0,-14.0,-1.0,-2.0,207,187,181,198,192
2025-02-26 15:14:53.784,-418.0,2.0,933.0,-13.0,1.0,-2.0,208,189,181,200,193
2025-02-26 15:14:53.788,-404.0,-25.0,949.0,-11.0,1.0,-2.0,201,182,177,193,186
2025-02-26 15:14:53.795,-434.0,-19.0,944.0,-15.0,1.0,-3.0,196,176,170,187,179
2025-02-26 15:14:53.800,-417.0,-29.0,944.0,-10.0,1.0,-2.0,215,197,190,209,201
2025-02-26 15:14:53.805,-415.0,-54.0,970.0,-11.0,3.0,-2.0,214,193,188,205,199
2025-02-26 15:14:53.808,-428.0,-20.0,953.0,-7.0,3.0,-2.0,203,183,180,195,188
2025-02-26 15:14:53.816,-410.0,-31.0,967.0,-3.0,3.0,-2.0,204,186,178,195,187
2025-02-26 15:14:53.821,-414.0,-40.0,966.0,1.0,3.0,-2.0,217,201,196,211,205
2025-02-26 15:14:53.825,-423.0,-35.0,931.0,1.0,2.0,-2.0,221,204,200,209,206
2025-02-26 15:14:53.829,-423.0,-19.0,924.0,1.0,0.0,-2.0,204,184,179,195,187
2025-02-26 15:14:53.834,-440.0,-17.0,955.0,1.0,2.0,-2.0,213,194,188,204,198
2025-02-26 15:14:53.841,-427.0,-18.0,963.0,5.0,1.0,-3.0,191,170,165,182,174
2025-02-26 15:14:53.845,-423.0,4.0,965.0,0.0,1.0,-3.0,210,189,184,201,193
2025-02-26 15:14:53.850,-433.0,-3.0,936.0,1.0,-1.0,-4.0,225,206,201,217,210
2025-02-26 15:14:53.853,-426.0,-20.0,949.0,-2.0,0.0,-4.0,219,200,195,212,205
2025-02-26 15:14:53.861,-423.0,-21.0,973.0,-5.0,1.0,-4.0,218,199,193,210,202
2025-02-26 15:14:53.866,-397.0,8.0,917.0,-7.0,-3.0,-4.0,229,209,205,219,214
2025-02-26 15:14:53.870,-384.0,-26.0,971.0,-2.0,-2.0,-4.0,199,178,173,190,181
2025-02-26 15:14:53.874,-422.0,-4.0,953.0,-4.0,-2.0,-5.0,207,186,186,196,190
2025-02-26 15:14:53.878,-422.0,-21.0,954.0,-6.0,-2.0,-4.0,204,184,179,198,189
2025-02-26 15:14:53.886,-375.0,-3.0,938.0,-4.0,-3.0,-4.0,193,172,167,183,172
2025-02-26 15:14:53.891,-387.0,-45.0,967.0,-4.0,-3.0,-4.0,190,167,162,181,174
2025-02-26 15:14:53.894,-389.0,-38.0,955.0,-3.0,-1.0,-5.0,194,174,168,185,176
2025-02-26 15:14:53.898,-389.0,-62.0,959.0,0.0,-1.0,-4.0,198,178,171,189,183
2025-02-26 15:14:53.906,-374.0,-79.0,964.0,-1.0,0.0,-5.0,196,176,171,187,181
2025-02-26 15:14:53.910,-370.0,-77.0,938.0,0.0,0.0,-5.0,190,170,165,181,175
2025-02-26 15:14:53.914,-372.0,-62.0,944.0,0.0,1.0,-5.0,191,168,165,183,173
2025-02-26 15:14:53.920,-372.0,-82.0,989.0,2.0,2.0,-4.0,194,173,166,186,177
2025-02-26 15:14:53.927,-380.0,-59.0,946.0,1.0,3.0,-3.0,191,172,165,182,176
2025-02-26 15:14:53.932,-391.0,-57.0,940.0,-2.0,3.0,-3.0,182,163,157,173,166
2025-02-26 15:14:53.936,-384.0,-52.0,904.0,-3.0,0.0,-3.0,188,168,164,180,173
2025-02-26 15:14:53.939,-382.0,-38.0,977.0,-4.0,1.0,-2.0,189,169,164,181,173
2025-02-26 15:14:53.947,-388.0,-45.0,942.0,-3.0,0.0,-2.0,182,164,156,170,167
2025-02-26 15:14:53.952,-393.0,-48.0,950.0,-8.0,-1.0,-1.0,188,167,164,180,171
2025-02-26 15:14:53.955,-396.0,4.0,900.0,-7.0,-1.0,-2.0,186,169,162,179,173
2025-02-26 15:14:53.960,-377.0,-23.0,952.0,-8.0,-1.0,-3.0,181,162,156,172,165
2025-02-26 15:14:53.964,-374.0,-14.0,935.0,-9.0,-4.0,-3.0,177,159,153,170,162
2025-02-26 15:14:53.971,-363.0,31.0,938.0,-7.0,-4.0,-3.0,186,166,159,175,170
2025-02-26 15:14:53.976,-417.0,-51.0,899.0,-9.0,-8.0,-3.0,183,163,155,174,165
2025-02-26 15:14:53.981,-391.0,-39.0,908.0,-17.0,-7.0,-3.0,180,157,152,170,162
2025-02-26 15:14:53.988,-361.0,-47.0,912.0,-7.0,-5.0,-4.0,185,165,159,176,168
2025-02-26 15:14:53.993,-383.0,-42.0,901.0,-4.0,-5.0,-5.0,186,167,162,178,171
2025-02-26 15:14:53.996,-399.0,-74.0,907.0,-3.0,-5.0,-5.0,189,169,163,180,173
2025-02-26 15:14:54.001,-364.0,-77.0,913.0,0.0,-4.0,-4.0,189,169,162,180,173
2025-02-26 15:14:54.005,-362.0,-81.0,891.0,7.0,-5.0,-3.0,189,171,165,182,174
2025-02-26 15:14:54.013,-371.0,-72.0,966.0,11.0,-3.0,-2.0,190,171,166,182,175
2025-02-26 15:14:54.017,-392.0,-63.0,903.0,11.0,-2.0,-2.0,186,165,160,177,170
2025-02-26 15:14:54.022,-385.0,-54.0,948.0,14.0,-1.0,-2.0,194,175,169,187,179
2025-02-26 15:14:54.028,-401.0,-63.0,948.0,10.0,-1.0,-2.0,194,175,168,185,179
2025-02-26 15:14:54.032,-380.0,-32.0,936.0,10.0,-1.0,-2.0,192,173,167,185,177
2025-02-26 15:14:54.038,-413.0,-24.0,945.0,9.0,0.0,-2.0,188,169,165,180,173
2025-02-26 15:14:54.043,-407.0,-15.0,972.0,4.0,0.0,-2.0,196,177,170,185,178
2025-02-26 15:14:54.046,-406.0,-27.0,948.0,0.0,0.0,-3.0,196,175,169,186,180
2025-02-26 15:14:54.054,-403.0,-22.0,963.0,-2.0,-1.0,-3.0,188,170,164,182,173
2025-02-26 15:14:54.058,-407.0,-27.0,951.0,-1.0,0.0,-3.0,190,169,163,180,173
2025-02-26 15:14:54.063,-407.0,-31.0,948.0,-2.0,-1.0,-3.0,197,178,174,189,182
2025-02-26 15:14:54.067,-409.0,-27.0,930.0,-3.0,-3.0,-3.0,186,165,160,176,168
2025-02-26 15:14:54.074,-416.0,-37.0,936.0,-3.0,-4.0,-2.0,182,161,155,173,165
2025-02-26 15:14:54.078,-412.0,-50.0,943.0,-5.0,-4.0,-2.0,181,161,155,171,162
2025-02-26 15:14:54.083,-399.0,-22.0,932.0,-5.0,-5.0,-3.0,188,168,162,178,172
2025-02-26 15:14:54.087,-414.0,-40.0,953.0,-4.0,-5.0,-3.0,185,164,158,175,168
2025-02-26 15:14:54.095,-397.0,-29.0,985.0,-3.0,-3.0,-3.0,175,155,149,166,159
2025-02-26 15:14:54.100,-393.0,-39.0,999.0,-3.0,-3.0,-3.0,175,155,150,167,160
2025-02-26 15:14:54.104,-413.0,-63.0,934.0,-17.0,-2.0,0.0,176,158,151,168,161
2025-02-26 15:14:54.108,-332.0,-55.0,1072.0,-5.0,-1.0,-2.0,178,156,150,168,159
2025-02-26 15:14:54.115,-440.0,-42.0,932.0,-4.0,0.0,-2.0,170,151,144,165,155
2025-02-26 15:14:54.119,-407.0,-47.0,982.0,-5.0,3.0,-2.0,177,155,149,165,158
2025-02-26 15:14:54.124,-403.0,-49.0,949.0,-3.0,0.0,-1.0,176,156,151,167,160
2025-02-26 15:14:54.129,-395.0,-61.0,999.0,2.0,-2.0,-1.0,174,151,146,163,156
2025-02-26 15:14:54.136,-416.0,-32.0,995.0,2.0,-1.0,-1.0,170,149,143,162,153
2025-02-26 15:14:54.140,-416.0,-24.0,956.0,1.0,-1.0,-2.0,172,154,148,165,158
2025-02-26 15:14:54.145,-409.0,-19.0,960.0,1.0,-4.0,-1.0,165,148,144,155,153
2025-02-26 15:14:54.148,-429.0,-22.0,988.0,4.0,-2.0,-2.0,169,146,141,157,150
2025-02-26 15:14:54.156,-401.0,-40.0,945.0,4.0,-1.0,-3.0,169,149,145,161,153
2025-02-26 15:14:54.160,-411.0,-41.0,981.0,3.0,-4.0,-2.0,171,149,143,160,154
2025-02-26 15:14:54.165,-403.0,-35.0,1002.0,3.0,-3.0,-2.0,167,149,140,160,154
2025-02-26 15:14:54.169,-422.0,-44.0,959.0,1.0,-3.0,-2.0,167,146,141,158,150
2025-02-26 15:14:54.177,-420.0,-41.0,979.0,0.0,-3.0,-2.0,171,149,144,159,155
2025-02-26 15:14:54.181,-420.0,-29.0,967.0,-3.0,-2.0,-2.0,168,148,142,160,153
2025-02-26 15:14:54.186,-398.0,-55.0,975.0,0.0,-2.0,-2.0,175,157,150,166,160
2025-02-26 15:14:54.189,-404.0,-42.0,969.0,-2.0,-2.0,-1.0,185,166,160,177,168
2025-02-26 15:14:54.197,-404.0,-51.0,977.0,-3.0,-2.0,-1.0,175,163,159,173,167
2025-02-26 15:14:54.202,-392.0,-45.0,1003.0,-4.0,0.0,-1.0,180,159,153,169,162
2025-02-26 15:14:54.205,-401.0,-55.0,980.0,-2.0,1.0,-1.0,159,137,131,149,142
2025-02-26 15:14:54.210,-393.0,-43.0,971.0,-4.0,1.0,0.0,187,168,162,179,172
2025-02-26 15:14:54.214,-396.0,-38.0,991.0,-5.0,3.0,-1.0,183,164,160,177,167
2025-02-26 15:14:54.222,-384.0,-53.0,943.0,0.0,2.0,0.0,179,157,153,169,162
2025-02-26 15:14:54.225,-396.0,-31.0,968.0,-3.0,2.0,0.0,190,169,164,179,173
2025-02-26 15:14:54.231,-424.0,-45.0,952.0,-2.0,0.0,-1.0,189,170,165,181,174
2025-02-26 15:14:54.235,-392.0,-25.0,964.0,0.0,1.0,-1.0,189,163,158,176,168
2025-02-26 15:14:54.242,-393.0,-10.0,972.0,2.0,0.0,-1.0,190,170,163,179,172
2025-02-26 15:14:54.244,-420.0,-47.0,945.0,-3.0,0.0,-2.0,196,172,169,185,179
2025-02-26 15:14:54.251,-415.0,-71.0,972.0,-1.0,1.0,-2.0,189,170,163,180,173
2025-02-26 15:14:54.255,-396.0,-26.0,958.0,-1.0,1.0,-2.0,195,167,161,178,172
2025-02-26 15:14:54.260,-410.0,-43.0,978.0,-1.0,0.0,-2.0,193,172,167,185,176
2025-02-26 15:14:54.267,-379.0,-22.0,1009.0,0.0,3.0,-2.0,191,167,166,183,176
2025-02-26 15:14:54.271,-392.0,-41.0,946.0,1.0,2.0,-2.0,188,166,163,179,172
2025-02-26 15:14:54.275,-389.0,-38.0,948.0,4.0,3.0,-1.0,189,172,157,180,175
2025-02-26 15:14:54.280,-379.0,-35.0,955.0,2.0,5.0,-1.0,186,171,164,180,172
2025-02-26 15:14:54.287,-365.0,-42.0,915.0,2.0,4.0,-1.0,186,160,155,177,169
2025-02-26 15:14:54.292,-390.0,-37.0,959.0,4.0,4.0,-1.0,187,168,161,180,171
2025-02-26 15:14:54.296,-390.0,-28.0,948.0,0.0,5.0,-1.0,186,162,159,176,169
2025-02-26 15:14:54.300,-372.0,-23.0,936.0,0.0,4.0,-1.0,180,161,154,172,165
2025-02-26 15:14:54.305,-422.0,-56.0,956.0,5.0,2.0,-1.0,189,169,164,181,172
2025-02-26 15:14:54.312,-403.0,-22.0,937.0,0.0,3.0,-1.0,194,175,172,185,177
2025-02-26 15:14:54.316,-397.0,-28.0,936.0,-2.0,2.0,-1.0,187,170,161,178,170
2025-02-26 15:14:54.321,-422.0,-49.0,941.0,1.0,2.0,-1.0,189,169,163,180,172
2025-02-26 15:14:54.323,-406.0,-35.0,918.0,-2.0,2.0,-2.0,195,177,172,187,181
2025-02-26 15:14:54.333,-403.0,-11.0,928.0,-3.0,2.0,-1.0,200,182,176,193,184
2025-02-26 15:14:54.337,-395.0,-11.0,939.0,-6.0,2.0,-1.0,189,169,163,177,173
2025-02-26 15:14:54.341,-402.0,-33.0,935.0,-7.0,1.0,-1.0,192,174,168,182,178
2025-02-26 15:14:54.345,-405.0,-21.0,914.0,-4.0,-1.0,-1.0,191,173,168,185,179
2025-02-26 15:14:54.353,-386.0,-42.0,952.0,-3.0,0.0,-2.0,180,160,153,169,164
2025-02-26 15:14:54.357,-398.0,-24.0,920.0,-3.0,-3.0,-2.0,174,153,148,164,157
2025-02-26 15:14:54.361,-401.0,-41.0,954.0,1.0,-3.0,-2.0,179,159,154,170,163
2025-02-26 15:14:54.366,-380.0,-45.0,967.0,0.0,0.0,-2.0,176,159,153,171,161
2025-02-26 15:14:54.370,-389.0,-75.0,933.0,-1.0,-1.0,-1.0,175,155,148,165,158
2025-02-26 15:14:54.378,-380.0,-56.0,920.0,1.0,0.0,-2.0,179,159,153,170,162
2025-02-26 15:14:54.382,-382.0,-41.0,975.0,2.0,2.0,-1.0,179,159,152,169,162
2025-02-26 15:14:54.386,-372.0,-81.0,971.0,4.0,4.0,-1.0,176,155,150,166,159
2025-02-26 15:14:54.390,-394.0,-70.0,969.0,9.0,5.0,-1.0,176,157,150,171,160
2025-02-26 15:14:54.398,-392.0,-64.0,895.0,8.0,2.0,-1.0,177,157,152,168,160
2025-02-26 15:14:54.402,-395.0,-38.0,988.0,11.0,5.0,-1.0,172,152,147,165,157
2025-02-26 15:14:54.406,-403.0,-42.0,932.0,12.0,3.0,-1.0,173,152,146,164,155
2025-02-26 15:14:54.411,-396.0,-27.0,918.0,10.0,4.0,0.0,179,156,151,168,161
2025-02-26 15:14:54.414,-426.0,-50.0,947.0,9.0,6.0,0.0,173,155,148,165,158
2025-02-26 15:14:54.420,-367.0,11.0,879.0,3.0,3.0,-1.0,172,154,146,163,157
2025-02-26 15:14:54.426,-433.0,-16.0,931.0,1.0,3.0,0.0,179,159,153,169,163
2025-02-26 15:14:54.431,-399.0,1.0,919.0,2.0,1.0,-1.0,174,155,148,165,158
2025-02-26 15:14:54.436,-419.0,-23.0,943.0,-1.0,0.0,-1.0,172,152,146,162,155
2025-02-26 15:14:54.440,-405.0,5.0,937.0,-4.0,1.0,-1.0,177,158,150,168,161
2025-02-26 15:14:54.447,-421.0,-37.0,898.0,-1.0,-1.0,-2.0,174,153,149,164,158
2025-02-26 15:14:54.451,-401.0,-4.0,932.0,-4.0,-1.0,-2.0,174,154,148,165,158
2025-02-26 15:14:54.456,-397.0,-38.0,943.0,-4.0,0.0,-2.0,176,155,151,167,161
2025-02-26 15:14:54.460,-390.0,-36.0,935.0,-4.0,0.0,-1.0,175,155,149,167,159
2025-02-26 15:14:54.468,-407.0,-39.0,931.0,-3.0,0.0,-2.0,174,153,147,165,156
2025-02-26 15:14:54.472,-404.0,-49.0,947.0,-2.0,1.0,-1.0,174,155,150,168,161
2025-02-26 15:14:54.476,-399.0,-50.0,938.0,1.0,1.0,-1.0,175,154,148,166,159
2025-02-26 15:14:54.480,-404.0,-21.0,926.0,0.0,2.0,-1.0,170,151,144,163,155
2025-02-26 15:14:54.484,-380.0,-55.0,937.0,4.0,2.0,-1.0,171,149,145,163,155
2025-02-26 15:14:54.493,-388.0,-38.0,924.0,5.0,1.0,-1.0,175,154,149,167,159
2025-02-26 15:14:54.497,-387.0,-27.0,935.0,6.0,2.0,-1.0,171,152,145,161,155
2025-02-26 15:14:54.497,-406.0,-24.0,895.0,3.0,0.0,-1.0,170,151,144,160,153
2025-02-26 15:14:54.505,-434.0,-64.0,974.0,6.0,2.0,-1.0,177,155,150,168,160
2025-02-26 15:14:54.510,-410.0,-36.0,933.0,7.0,2.0,-1.0,173,152,149,165,159
2025-02-26 15:14:54.517,-393.0,-22.0,963.0,1.0,3.0,-1.0,171,151,145,161,154
2025-02-26 15:14:54.521,-419.0,-31.0,927.0,3.0,3.0,-1.0,177,154,148,167,159
2025-02-26 15:14:54.523,-406.0,-36.0,939.0,0.0,2.0,-1.0,175,155,150,166,159
2025-02-26 15:14:54.529,-404.0,-26.0,940.0,2.0,2.0,-2.0,173,150,148,162,155
2025-02-26 15:14:54.536,-404.0,-29.0,936.0,3.0,1.0,-2.0,177,155,147,167,159
2025-02-26 15:14:54.542,-404.0,-27.0,955.0,2.0,2.0,-1.0,173,154,148,163,156
2025-02-26 15:14:54.546,-405.0,-28.0,922.0,0.0,1.0,-1.0,169,150,145,163,155
2025-02-26 15:14:54.550,-398.0,-25.0,914.0,1.0,1.0,-1.0,177,158,152,167,159
2025-02-26 15:14:54.558,-414.0,-32.0,936.0,-1.0,1.0,-1.0,173,153,152,164,157
2025-02-26 15:14:54.562,-401.0,-33.0,912.0,-1.0,0.0,-1.0,172,152,145,163,155
2025-02-26 15:14:54.566,-416.0,-40.0,938.0,-2.0,1.0,-2.0,174,155,149,165,158
2025-02-26 15:14:54.571,-409.0,-28.0,935.0,-3.0,0.0,-2.0,179,156,149,168,160
2025-02-26 15:14:54.574,-406.0,-23.0,941.0,-4.0,0.0,-2.0,172,152,146,163,155
2025-02-26 15:14:54.582,-412.0,-36.0,937.0,-2.0,0.0,-2.0,173,152,144,162,154
2025-02-26 15:14:54.587,-407.0,-36.0,942.0,-2.0,0.0,-2.0,177,156,149,167,159
2025-02-26 15:14:54.590,-402.0,-34.0,944.0,0.0,0.0,-1.0,173,152,147,164,156
2025-02-26 15:14:54.595,-401.0,-35.0,941.0,0.0,0.0,-1.0,169,149,144,162,154
2025-02-26 15:14:54.602,-415.0,-40.0,965.0,3.0,1.0,-1.0,174,158,150,166,159
2025-02-26 15:14:54.606,-406.0,-32.0,926.0,1.0,0.0,0.0,175,154,148,166,158
2025-02-26 15:14:54.611,-414.0,-35.0,961.0,1.0,1.0,-1.0,171,152,145,162,155
2025-02-26 15:14:54.615,-404.0,-30.0,940.0,0.0,1.0,-1.0,176,154,149,163,158
2025-02-26 15:14:54.620,-411.0,-21.0,942.0,-1.0,1.0,-1.0,173,154,149,164,157
2025-02-26 15:14:54.627,-414.0,-50.0,978.0,3.0,1.0,-2.0,174,151,145,160,155
2025-02-26 15:14:54.631,-417.0,-17.0,966.0,0.0,2.0,-1.0,180,152,148,163,156
2025-02-26 15:14:54.636,-418.0,-19.0,929.0,0.0,0.0,-1.0,173,152,146,162,156
2025-02-26 15:14:54.640,-408.0,-21.0,972.0,0.0,1.0,-1.0,172,151,144,161,154
2025-02-26 15:14:54.644,-402.0,-15.0,958.0,0.0,0.0,-1.0,170,149,142,159,151
2025-02-26 15:14:54.650,-400.0,-6.0,941.0,-1.0,-1.0,-1.0,170,148,142,158,151
2025-02-26 15:14:54.657,-421.0,-20.0,938.0,-2.0,-1.0,-1.0,164,146,138,157,147
2025-02-26 15:14:54.661,-413.0,-18.0,940.0,-2.0,-1.0,-1.0,174,154,147,164,157
2025-02-26 15:14:54.662,-417.0,-10.0,947.0,-2.0,-1.0,-2.0,181,160,156,172,164
2025-02-26 15:14:54.672,-411.0,-39.0,946.0,-3.0,-1.0,-1.0,179,158,154,169,162
2025-02-26 15:14:54.676,-405.0,-34.0,947.0,-2.0,-1.0,-2.0,175,153,148,164,158
2025-02-26 15:14:54.680,-407.0,-47.0,952.0,-1.0,0.0,-1.0,179,159,153,168,161
2025-02-26 15:14:54.685,-408.0,-44.0,949.0,-2.0,2.0,-1.0,178,158,154,171,163
2025-02-26 15:14:54.693,-415.0,-37.0,947.0,2.0,0.0,-1.0,177,156,151,168,159
2025-02-26 15:14:54.697,-415.0,-62.0,945.0,2.0,1.0,0.0,173,153,146,165,157
2025-02-26 15:14:54.702,-382.0,-20.0,913.0,6.0,1.0,-1.0,182,161,155,173,166
2025-02-26 15:14:54.705,-425.0,-43.0,944.0,5.0,1.0,0.0,173,158,152,169,162
2025-02-26 15:14:54.710,-421.0,-17.0,920.0,4.0,1.0,-1.0,173,153,147,164,158
2025-02-26 15:14:54.717,-420.0,-26.0,926.0,5.0,0.0,-1.0,179,158,151,169,162
2025-02-26 15:14:54.721,-429.0,-29.0,940.0,4.0,0.0,-1.0,176,156,151,168,161
2025-02-26 15:14:54.726,-417.0,-11.0,936.0,3.0,-1.0,-1.0,174,153,148,165,158
2025-02-26 15:14:54.731,-418.0,-18.0,938.0,2.0,-1.0,-2.0,179,158,152,167,162
2025-02-26 15:14:54.733,-424.0,-20.0,967.0,3.0,0.0,-2.0,166,146,141,157,150
2025-02-26 15:14:54.742,-430.0,-34.0,937.0,1.0,0.0,-2.0,162,140,136,152,144
2025-02-26 15:14:54.745,-414.0,-31.0,1004.0,0.0,2.0,-2.0,158,137,134,151,143
2025-02-26 15:14:54.750,-414.0,-50.0,931.0,-1.0,1.0,-1.0,165,144,138,153,147
2025-02-26 15:14:54.755,-418.0,-57.0,927.0,4.0,1.0,-2.0,163,142,137,155,147
2025-02-26 15:14:54.762,-427.0,-40.0,974.0,2.0,2.0,-2.0,162,140,135,151,144
2025-02-26 15:14:54.764,-419.0,-30.0,936.0,5.0,1.0,-1.0,165,144,139,157,148
2025-02-26 15:14:54.771,-415.0,-37.0,939.0,2.0,2.0,-1.0,162,141,136,153,145
2025-02-26 15:14:54.776,-422.0,-32.0,934.0,5.0,1.0,-2.0,160,140,134,150,143
2025-02-26 15:14:54.781,-420.0,-29.0,963.0,0.0,2.0,-1.0,164,144,137,154,147
2025-02-26 15:14:54.781,-434.0,-44.0,918.0,1.0,1.0,-1.0,161,142,136,155,147
2025-02-26 15:14:54.791,-417.0,-23.0,949.0,-1.0,2.0,-1.0,161,141,134,150,143
2025-02-26 15:14:54.796,-414.0,-21.0,932.0,0.0,1.0,-1.0,166,145,138,155,149
2025-02-26 15:14:54.800,-417.0,-22.0,944.0,-2.0,0.0,-2.0,167,145,139,155,149
2025-02-26 15:14:54.808,-406.0,-23.0,950.0,-2.0,1.0,-1.0,164,142,136,154,146
2025-02-26 15:14:54.812,-413.0,-27.0,943.0,-2.0,1.0,-1.0,160,140,134,152,144
2025-02-26 15:14:54.815,-413.0,-28.0,945.0,-3.0,1.0,-1.0,165,145,140,156,148
2025-02-26 15:14:54.821,-418.0,-33.0,933.0,-4.0,1.0,-1.0,167,147,141,157,148
2025-02-26 15:14:54.825,-415.0,-36.0,937.0,-5.0,1.0,-1.0,161,142,136,152,146
2025-02-26 15:14:54.832,-422.0,-27.0,936.0,-4.0,1.0,-1.0,164,146,140,157,148
2025-02-26 15:14:54.837,-417.0,-37.0,927.0,-3.0,0.0,-1.0,165,145,139,154,147
2025-02-26 15:14:54.840,-423.0,-38.0,928.0,-1.0,0.0,-1.0,164,145,138,155,148
2025-02-26 15:14:54.848,-408.0,-27.0,934.0,-1.0,0.0,-1.0,163,142,136,153,146
2025-02-26 15:14:54.852,-414.0,-31.0,923.0,1.0,-1.0,-1.0,164,144,139,156,146
2025-02-26 15:14:54.855,-408.0,-43.0,949.0,1.0,0.0,-1.0,162,145,137,154,148
2025-02-26 15:14:54.861,-409.0,-35.0,949.0,3.0,0.0,-1.0,165,145,140,157,149
2025-02-26 15:14:54.865,-408.0,-36.0,942.0,3.0,1.0,-1.0,165,146,138,155,148
2025-02-26 15:14:54.873,-408.0,-33.0,951.0,4.0,1.0,0.0,166,145,140,156,146
2025-02-26 15:14:54.877,-412.0,-34.0,942.0,4.0,2.0,0.0,161,142,134,150,144
2025-02-26 15:14:54.881,-410.0,-38.0,941.0,5.0,2.0,-1.0,167,147,141,160,152
2025-02-26 15:14:54.886,-413.0,-33.0,941.0,5.0,2.0,0.0,167,143,138,156,148
2025-02-26 15:14:54.890,-420.0,-21.0,938.0,5.0,2.0,0.0,157,141,132,149,145
2025-02-26 15:14:54.898,-416.0,-21.0,938.0,4.0,1.0,0.0,164,144,138,158,148
2025-02-26 15:14:54.902,-422.0,-11.0,935.0,4.0,0.0,0.0,160,142,136,153,146
2025-02-26 15:14:54.903,-424.0,-14.0,936.0,3.0,0.0,0.0,160,140,135,152,144
2025-02-26 15:14:54.910,-422.0,-6.0,939.0,1.0,0.0,-1.0,164,143,139,157,149
2025-02-26 15:14:54.915,-420.0,-1.0,941.0,0.0,-1.0,-1.0,162,140,136,153,145
2025-02-26 15:14:54.921,-426.0,-7.0,941.0,-1.0,-1.0,-1.0,162,140,132,151,143
2025-02-26 15:14:54.926,-422.0,-4.0,942.0,-3.0,-2.0,-1.0,165,146,139,155,148
2025-02-26 15:14:54.931,-424.0,-8.0,941.0,-3.0,-2.0,-1.0,164,145,138,155,147
2025-02-26 15:14:54.933,-418.0,-15.0,944.0,-4.0,-2.0,-1.0,161,140,133,152,144
2025-02-26 15:14:54.942,-434.0,-23.0,957.0,-4.0,-2.0,-1.0,165,144,138,154,148
2025-02-26 15:14:54.947,-418.0,-36.0,939.0,-5.0,-1.0,-1.0,166,145,140,156,148
2025-02-26 15:14:54.952,-415.0,-36.0,939.0,-3.0,-1.0,-1.0,162,141,135,152,146
2025-02-26 15:14:54.952,-421.0,-53.0,943.0,0.0,0.0,0.0,158,141,135,152,145
2025-02-26 15:14:54.963,-420.0,-60.0,943.0,3.0,1.0,0.0,168,148,141,159,151
2025-02-26 15:14:54.968,-419.0,-49.0,937.0,5.0,1.0,0.0,165,145,138,156,148
2025-02-26 15:14:54.969,-425.0,-45.0,946.0,7.0,1.0,0.0,160,141,136,152,144
2025-02-26 15:14:54.976,-424.0,-44.0,941.0,9.0,1.0,0.0,163,143,138,155,148
2025-02-26 15:14:54.980,-423.0,-23.0,938.0,9.0,1.0,0.0,162,141,134,151,146
2025-02-26 15:14:54.984,-430.0,-21.0,949.0,9.0,1.0,0.0,160,140,134,152,144
2025-02-26 15:14:54.992,-427.0,-12.0,959.0,6.0,0.0,0.0,165,144,138,156,149
2025-02-26 15:14:54.993,-422.0,18.0,969.0,5.0,1.0,-1.0,159,142,134,152,141
2025-02-26 15:14:55.001,-431.0,14.0,939.0,2.0,-1.0,-1.0,158,139,133,151,144
2025-02-26 15:14:55.005,-419.0,4.0,973.0,0.0,-1.0,-2.0,164,144,140,154,148
2025-02-26 15:14:55.008,-429.0,0.0,955.0,-2.0,-2.0,-2.0,161,141,135,153,146
2025-02-26 15:14:55.017,-426.0,-7.0,968.0,-3.0,-2.0,-2.0,158,137,134,149,142
2025-02-26 15:14:55.021,-419.0,-16.0,932.0,-4.0,-3.0,-2.0,163,142,136,154,147
2025-02-26 15:14:55.024,-412.0,-28.0,961.0,-5.0,-1.0,-2.0,165,144,134,156,147
2025-02-26 15:14:55.032,-414.0,-43.0,956.0,-6.0,-1.0,-2.0,160,140,135,152,144
2025-02-26 15:14:55.036,-397.0,-51.0,949.0,-4.0,0.0,-2.0,164,143,137,154,147
2025-02-26 15:14:55.041,-398.0,-59.0,947.0,-1.0,2.0,-1.0,163,143,138,154,147
2025-02-26 15:14:55.045,-395.0,-63.0,951.0,0.0,4.0,-1.0,162,142,135,152,146
2025-02-26 15:14:55.050,-404.0,-68.0,934.0,3.0,4.0,-1.0,161,139,135,151,143
2025-02-26 15:14:55.058,-410.0,-54.0,945.0,5.0,4.0,0.0,164,144,139,155,146
2025-02-26 15:14:55.062,-403.0,-50.0,945.0,5.0,4.0,0.0,158,141,134,152,144
2025-02-26 15:14:55.066,-415.0,-33.0,928.0,6.0,3.0,0.0,160,139,133,151,143
2025-02-26 15:14:55.070,-417.0,-17.0,941.0,4.0,2.0,0.0,164,144,138,156,148
2025-02-26 15:14:55.075,-422.0,-8.0,928.0,3.0,1.0,0.0,156,141,134,152,143
2025-02-26 15:14:55.082,-427.0,-8.0,939.0,2.0,1.0,0.0,182,162,157,172,165
2025-02-26 15:14:55.086,-421.0,-5.0,934.0,-1.0,0.0,-1.0,192,172,166,182,175
2025-02-26 15:14:55.090,-425.0,-1.0,941.0,-3.0,-1.0,-1.0,186,167,161,178,170
2025-02-26 15:14:55.095,-421.0,-12.0,943.0,-3.0,-1.0,-1.0,188,167,161,178,170
2025-02-26 15:14:55.099,-414.0,0.0,939.0,-4.0,1.0,-1.0,187,167,161,175,169
2025-02-26 15:14:55.106,-412.0,-41.0,932.0,-5.0,2.0,-1.0,187,165,158,174,168
2025-02-26 15:14:55.111,-402.0,-31.0,912.0,-4.0,0.0,-1.0,182,163,157,174,166
2025-02-26 15:14:55.115,-413.0,-45.0,944.0,-1.0,2.0,-1.0,184,165,158,176,168
2025-02-26 15:14:55.120,-417.0,-9.0,938.0,-3.0,3.0,-1.0,185,168,161,179,171
2025-02-26 15:14:55.127,-398.0,-53.0,914.0,2.0,2.0,0.0,176,161,156,169,165
2025-02-26 15:14:55.131,-409.0,-21.0,922.0,3.0,3.0,0.0,182,164,158,175,168
2025-02-26 15:14:55.136,-409.0,-48.0,924.0,5.0,4.0,0.0,178,158,151,168,161
2025-02-26 15:14:55.140,-417.0,-20.0,917.0,4.0,4.0,0.0,172,153,146,164,155
2025-02-26 15:14:55.144,-429.0,-10.0,911.0,5.0,3.0,0.0,183,158,151,164,161
2025-02-26 15:14:55.148,-416.0,-15.0,919.0,4.0,2.0,0.0,177,157,151,167,159
2025-02-26 15:14:55.156,-424.0,5.0,907.0,3.0,2.0,0.0,171,150,141,162,154
2025-02-26 15:14:55.160,-432.0,-1.0,922.0,1.0,1.0,0.0,177,156,149,165,157
2025-02-26 15:14:55.164,-429.0,11.0,909.0,1.0,-1.0,0.0,172,151,147,164,154
2025-02-26 15:14:55.168,-432.0,10.0,923.0,-1.0,0.0,0.0,170,151,144,161,153
2025-02-26 15:14:55.173,-420.0,-4.0,898.0,-5.0,-1.0,-1.0,174,154,148,164,157
2025-02-26 15:14:55.180,-437.0,-16.0,885.0,-2.0,-1.0,-1.0,171,150,148,162,154
2025-02-26 15:14:55.185,-427.0,-7.0,922.0,-5.0,-1.0,-1.0,172,153,147,162,155
2025-02-26 15:14:55.189,-435.0,-29.0,912.0,-5.0,-1.0,-1.0,175,154,151,167,159
2025-02-26 15:14:55.193,-427.0,-32.0,925.0,-3.0,-1.0,0.0,173,150,145,164,154
2025-02-26 15:14:55.201,-425.0,-25.0,926.0,-2.0,0.0,-1.0,169,151,144,160,153
2025-02-26 15:14:55.205,-426.0,-15.0,927.0,1.0,0.0,0.0,175,155,150,166,159
2025-02-26 15:14:55.210,-428.0,-41.0,907.0,3.0,-1.0,0.0,173,155,149,166,156
2025-02-26 15:14:55.214,-415.0,-6.0,938.0,3.0,0.0,0.0,171,158,144,160,155
2025-02-26 15:14:55.218,-412.0,-14.0,917.0,6.0,-1.0,0.0,175,153,148,165,158
2025-02-26 15:14:55.225,-417.0,-25.0,928.0,8.0,-1.0,0.0,206,185,181,196,190
2025-02-26 15:14:55.230,-415.0,36.0,959.0,5.0,1.0,-1.0,207,188,182,198,192
2025-02-26 15:14:55.230,-448.0,-22.0,944.0,6.0,-1.0,0.0,208,186,183,199,192
2025-02-26 15:14:55.238,-436.0,-4.0,919.0,7.0,-2.0,-1.0,208,188,181,197,191
2025-02-26 15:14:55.242,-419.0,46.0,933.0,5.0,-2.0,-1.0,206,186,181,198,191
2025-02-26 15:14:55.249,-424.0,3.0,935.0,4.0,-2.0,-2.0,206,188,183,199,192
2025-02-26 15:14:55.255,-418.0,-2.0,958.0,-4.0,-2.0,-1.0,206,185,178,197,189
2025-02-26 15:14:55.255,-414.0,18.0,920.0,2.0,-2.0,-2.0,201,181,175,192,185
2025-02-26 15:14:55.263,-438.0,-8.0,987.0,-2.0,-1.0,-3.0,203,183,179,194,187
2025-02-26 15:14:55.267,-427.0,-6.0,927.0,-3.0,-1.0,-3.0,204,184,179,196,190
2025-02-26 15:14:55.275,-410.0,6.0,947.0,-6.0,0.0,-3.0,200,181,175,193,185
2025-02-26 15:14:55.279,-412.0,-5.0,924.0,-6.0,0.0,-3.0,194,175,168,189,179
2025-02-26 15:14:55.283,-419.0,-21.0,930.0,-6.0,-1.0,-3.0,199,182,174,190,183
2025-02-26 15:14:55.291,-412.0,-21.0,931.0,-5.0,-1.0,-3.0,195,179,171,184,178
2025-02-26 15:14:55.291,-418.0,-33.0,930.0,-2.0,-1.0,-3.0,187,170,166,182,173
2025-02-26 15:14:55.299,-426.0,-36.0,911.0,-1.0,-2.0,-2.0,192,171,166,182,174
2025-02-26 15:14:55.304,-425.0,-29.0,909.0,0.0,-3.0,-2.0,194,172,167,185,176
2025-02-26 15:14:55.312,-417.0,-25.0,925.0,-1.0,-3.0,-1.0,188,167,162,179,172
2025-02-26 15:14:55.316,-423.0,-31.0,932.0,1.0,-3.0,-1.0,179,163,157,177,167
2025-02-26 15:14:55.320,-413.0,-21.0,917.0,2.0,-3.0,0.0,195,176,171,187,179
2025-02-26 15:14:55.324,-420.0,-22.0,944.0,3.0,-2.0,-1.0,196,172,168,187,176
2025-02-26 15:14:55.328,-416.0,0.0,943.0,1.0,-2.0,0.0,188,169,162,178,172
2025-02-26 15:14:55.336,-430.0,-18.0,952.0,2.0,-2.0,0.0,191,171,167,184,175
2025-02-26 15:14:55.340,-420.0,3.0,942.0,1.0,-2.0,0.0,192,171,164,182,175
2025-02-26 15:14:55.345,-422.0,-15.0,931.0,3.0,-3.0,0.0,189,168,161,181,170
2025-02-26 15:14:55.349,-425.0,-1.0,953.0,3.0,-1.0,0.0,193,175,168,185,176
2025-02-26 15:14:55.353,-423.0,10.0,933.0,2.0,-2.0,0.0,190,171,162,179,173
2025-02-26 15:14:55.358,-424.0,10.0,953.0,0.0,-1.0,0.0,186,165,158,175,168
2025-02-26 15:14:55.364,-414.0,3.0,929.0,-2.0,-2.0,0.0,193,172,168,185,178
2025-02-26 15:14:55.370,-429.0,-10.0,929.0,1.0,-2.0,0.0,191,172,166,182,174
2025-02-26 15:14:55.373,-430.0,8.0,922.0,-2.0,-2.0,-1.0,185,166,159,176,169
2025-02-26 15:14:55.375,-439.0,2.0,962.0,-1.0,-2.0,-1.0,189,171,164,181,173
2025-02-26 15:14:55.382,-421.0,2.0,967.0,-2.0,-2.0,-1.0,191,171,166,182,173
2025-02-26 15:14:55.390,-421.0,10.0,950.0,-1.0,-3.0,-1.0,184,164,160,178,169
2025-02-26 15:14:55.394,-436.0,8.0,960.0,-1.0,-2.0,-1.0,189,169,166,181,175
2025-02-26 15:14:55.397,-436.0,-3.0,965.0,-3.0,-3.0,-1.0,190,170,163,181,174
2025-02-26 15:14:55.405,-417.0,-10.0,972.0,-3.0,-3.0,-1.0,189,170,163,180,174
2025-02-26 15:14:55.410,-415.0,3.0,949.0,-1.0,-2.0,-1.0,186,166,161,179,170
2025-02-26 15:14:55.414,-404.0,-13.0,951.0,-3.0,-1.0,-1.0,193,173,167,183,175
2025-02-26 15:14:55.418,-412.0,-10.0,975.0,-2.0,0.0,-1.0,195,175,168,186,178
2025-02-26 15:14:55.422,-433.0,-9.0,963.0,-1.0,1.0,-1.0,193,174,168,185,174
2025-02-26 15:14:55.430,-418.0,-3.0,920.0,-1.0,0.0,-1.0,200,180,173,190,182
2025-02-26 15:14:55.434,-431.0,-21.0,949.0,1.0,1.0,-1.0,196,177,170,186,178
2025-02-26 15:14:55.439,-420.0,-11.0,934.0,-1.0,1.0,-1.0,192,173,166,183,175
2025-02-26 15:14:55.443,-424.0,-13.0,957.0,1.0,1.0,-1.0,197,176,170,187,180
2025-02-26 15:14:55.450,-425.0,0.0,907.0,4.0,-1.0,-1.0,194,175,171,185,179
2025-02-26 15:14:55.454,-441.0,0.0,949.0,2.0,0.0,-1.0,187,169,163,179,171
2025-02-26 15:14:55.459,-437.0,-4.0,912.0,2.0,-1.0,-1.0,193,171,166,183,176
2025-02-26 15:14:55.463,-437.0,-2.0,933.0,2.0,-1.0,-1.0,192,173,170,185,178
2025-02-26 15:14:55.467,-418.0,9.0,928.0,0.0,-1.0,-1.0,189,167,163,179,172
2025-02-26 15:14:55.473,-428.0,6.0,936.0,-1.0,-2.0,-1.0,192,171,166,183,176
2025-02-26 15:14:55.480,-430.0,-11.0,948.0,-1.0,-1.0,-1.0,191,172,165,182,175
2025-02-26 15:14:55.484,-427.0,-15.0,935.0,-4.0,-1.0,-1.0,189,172,165,181,173
2025-02-26 15:14:55.488,-414.0,0.0,926.0,-4.0,-1.0,-2.0,186,165,161,177,170
2025-02-26 15:14:55.490,-414.0,-8.0,953.0,-4.0,0.0,-2.0,191,171,166,181,174
2025-02-26 15:14:55.500,-423.0,-10.0,937.0,-6.0,0.0,-2.0,190,169,165,181,174
2025-02-26 15:14:55.504,-413.0,-28.0,947.0,-3.0,0.0,-2.0,190,169,163,180,173
2025-02-26 15:14:55.508,-407.0,-17.0,940.0,-3.0,2.0,-2.0,193,173,168,184,176
2025-02-26 15:14:55.509,-421.0,-32.0,919.0,-1.0,1.0,-2.0,190,169,163,180,172
2025-02-26 15:14:55.520,-412.0,-29.0,925.0,-2.0,1.0,-1.0,185,164,160,176,169
2025-02-26 15:14:55.524,-406.0,-19.0,910.0,0.0,1.0,-1.0,193,173,166,184,175
2025-02-26 15:14:55.529,-414.0,-18.0,934.0,2.0,1.0,-1.0,193,173,167,184,177
2025-02-26 15:14:55.533,-416.0,-14.0,912.0,1.0,1.0,-1.0,187,167,161,178,171
2025-02-26 15:14:55.533,-412.0,-14.0,924.0,0.0,0.0,0.0,188,167,161,179,170
2025-02-26 15:14:55.545,-419.0,-5.0,916.0,-1.0,0.0,0.0,201,181,175,192,184
2025-02-26 15:14:55.545,-413.0,-3.0,919.0,-2.0,-1.0,0.0,194,175,167,184,176
2025-02-26 15:14:55.553,-422.0,-1.0,910.0,-3.0,-1.0,0.0,186,167,161,178,171
2025-02-26 15:14:55.558,-412.0,-5.0,925.0,-4.0,-2.0,0.0,192,173,167,182,177
2025-02-26 15:14:55.558,-411.0,0.0,920.0,-4.0,-2.0,0.0,190,170,165,181,173
2025-02-26 15:14:55.570,-416.0,-8.0,909.0,-4.0,-2.0,0.0,186,165,162,177,170
2025-02-26 15:14:55.573,-417.0,-15.0,918.0,-4.0,-3.0,0.0,191,172,168,183,176
2025-02-26 15:14:55.578,-413.0,-19.0,914.0,-4.0,-3.0,1.0,188,166,160,177,169
2025-02-26 15:14:55.583,-415.0,-21.0,907.0,-2.0,-3.0,0.0,187,167,161,178,170
2025-02-26 15:14:55.588,-421.0,-33.0,915.0,-1.0,-3.0,1.0,189,170,164,181,173
2025-02-26 15:14:55.594,-424.0,-24.0,906.0,0.0,-2.0,1.0,188,167,160,176,170
2025-02-26 15:14:55.599,-425.0,-5.0,908.0,2.0,-3.0,1.0,183,163,156,170,165
2025-02-26 15:14:55.603,-420.0,0.0,935.0,2.0,-3.0,1.0,191,172,166,183,175
2025-02-26 15:14:55.606,-420.0,-14.0,933.0,3.0,-3.0,1.0,186,166,161,177,171
2025-02-26 15:14:55.615,-416.0,-1.0,931.0,2.0,-3.0,2.0,182,161,154,173,166
2025-02-26 15:14:55.618,-416.0,-1.0,923.0,3.0,-3.0,2.0,190,170,162,179,172
2025-02-26 15:14:55.623,-416.0,17.0,933.0,2.0,-3.0,1.0,190,170,163,182,174
2025-02-26 15:14:55.627,-429.0,16.0,932.0,1.0,-3.0,1.0,183,164,157,175,167
2025-02-26 15:14:55.632,-427.0,20.0,925.0,0.0,-3.0,1.0,188,167,160,179,172
2025-02-26 15:14:55.639,-431.0,8.0,926.0,0.0,-4.0,1.0,186,167,161,178,170
2025-02-26 15:14:55.643,-427.0,19.0,928.0,-1.0,-4.0,1.0,188,167,161,178,173
2025-02-26 15:14:55.648,-433.0,14.0,916.0,-1.0,-5.0,1.0,188,168,163,177,173
2025-02-26 15:14:55.652,-435.0,-10.0,919.0,1.0,-5.0,1.0,187,166,162,177,170
2025-02-26 15:14:55.656,-429.0,17.0,936.0,-1.0,-5.0,1.0,184,162,156,173,165
2025-02-26 15:14:55.664,-427.0,3.0,920.0,-1.0,-5.0,0.0,191,174,167,183,175
2025-02-26 15:14:55.668,-420.0,4.0,953.0,1.0,-4.0,0.0,187,166,161,178,172
2025-02-26 15:14:55.672,-423.0,16.0,941.0,1.0,-4.0,0.0,181,162,156,173,166
2025-02-26 15:14:55.677,-405.0,18.0,938.0,1.0,-4.0,0.0,186,166,162,179,171
2025-02-26 15:14:55.679,-424.0,-5.0,927.0,3.0,-4.0,0.0,187,168,163,179,170
2025-02-26 15:14:55.688,-423.0,-10.0,909.0,2.0,-4.0,-1.0,183,162,155,172,164
2025-02-26 15:14:55.693,-424.0,9.0,936.0,3.0,-5.0,-1.0,186,166,160,177,170
2025-02-26 15:14:55.697,-420.0,-5.0,963.0,5.0,-5.0,-1.0,183,162,157,173,166
2025-02-26 15:14:55.701,-404.0,12.0,951.0,5.0,-5.0,-1.0,184,165,159,177,170
2025-02-26 15:14:55.705,-416.0,7.0,918.0,2.0,-5.0,-1.0,188,167,162,180,171
2025-02-26 15:14:55.713,-407.0,9.0,939.0,2.0,-6.0,-1.0,184,164,155,176,166
2025-02-26 15:14:55.717,-426.0,-7.0,925.0,4.0,-7.0,-1.0,182,163,156,172,166
2025-02-26 15:14:55.721,-417.0,26.0,937.0,3.0,-6.0,-1.0,198,179,175,191,182
2025-02-26 15:14:55.726,-424.0,7.0,925.0,3.0,-7.0,-1.0,185,165,159,176,168
2025-02-26 15:14:55.730,-416.0,6.0,961.0,5.0,-7.0,-2.0,177,159,152,166,159
2025-02-26 15:14:55.737,-411.0,11.0,955.0,4.0,-8.0,-2.0,196,175,171,186,180
2025-02-26 15:14:55.742,-423.0,4.0,950.0,4.0,-8.0,-1.0,192,172,166,184,177
2025-02-26 15:14:55.746,-422.0,2.0,946.0,3.0,-8.0,-2.0,197,177,172,188,181
2025-02-26 15:14:55.751,-417.0,1.0,951.0,4.0,-8.0,-1.0,208,188,182,198,192
2025-02-26 15:14:55.755,-401.0,-5.0,951.0,6.0,-8.0,-2.0,207,188,182,198,192
2025-02-26 15:14:55.759,-422.0,1.0,947.0,8.0,-8.0,-3.0,194,174,170,184,177
2025-02-26 15:14:55.766,-426.0,-17.0,937.0,5.0,-7.0,-3.0,199,182,175,191,184
2025-02-26 15:14:55.771,-420.0,7.0,939.0,6.0,-8.0,-3.0,197,177,171,188,179
2025-02-26 15:14:55.775,-417.0,21.0,979.0,6.0,-4.0,-3.0,191,172,166,183,176
2025-02-26 15:14:55.783,-416.0,-30.0,958.0,6.0,-7.0,-3.0,197,179,173,192,183
2025-02-26 15:14:55.787,-415.0,14.0,935.0,6.0,-7.0,-4.0,200,180,175,189,182
2025-02-26 15:14:55.790,-421.0,14.0,968.0,7.0,-6.0,-4.0,194,175,169,187,179
2025-02-26 15:14:55.795,-433.0,-4.0,941.0,8.0,-8.0,-4.0,199,177,172,190,182
2025-02-26 15:14:55.799,-408.0,23.0,953.0,7.0,-7.0,-4.0,195,176,169,187,179
2025-02-26 15:14:55.807,-405.0,7.0,956.0,5.0,-8.0,-4.0,193,173,168,184,172
2025-02-26 15:14:55.811,-416.0,7.0,990.0,4.0,-7.0,-4.0,199,179,174,190,183
2025-02-26 15:14:55.816,-402.0,20.0,975.0,6.0,-8.0,-5.0,194,175,170,187,177
2025-02-26 15:14:55.820,-402.0,11.0,980.0,2.0,-7.0,-5.0,192,172,168,182,174
2025-02-26 15:14:55.823,-409.0,12.0,969.0,-1.0,-6.0,-5.0,203,179,169,190,183
2025-02-26 15:14:55.831,-398.0,23.0,971.0,-2.0,-5.0,-5.0,194,176,171,189,180
2025-02-26 15:14:55.836,-398.0,13.0,948.0,-3.0,-5.0,-6.0,188,172,166,189,175
2025-02-26 15:14:55.840,-393.0,17.0,979.0,-5.0,-4.0,-6.0,194,176,170,186,179
2025-02-26 15:14:55.844,-394.0,1.0,952.0,-4.0,-4.0,-6.0,197,178,171,185,181
2025-02-26 15:14:55.852,-386.0,-4.0,949.0,-5.0,-5.0,-6.0,194,172,166,183,176
2025-02-26 15:14:55.856,-377.0,-7.0,960.0,-3.0,-6.0,-5.0,187,171,164,177,175
2025-02-26 15:14:55.861,-375.0,-17.0,965.0,2.0,-4.0,-6.0,197,177,170,187,180
2025-02-26 15:14:55.864,-381.0,-13.0,947.0,2.0,-3.0,-6.0,203,184,178,196,186
2025-02-26 15:14:55.866,-381.0,-33.0,951.0,5.0,-3.0,-5.0,202,182,176,192,184
2025-02-26 15:14:55.876,-371.0,-16.0,930.0,5.0,-3.0,-4.0,195,174,169,186,179
2025-02-26 15:14:55.881,-395.0,-32.0,948.0,7.0,-2.0,-4.0,200,180,172,189,183
2025-02-26 15:14:55.885,-408.0,-15.0,936.0,6.0,-2.0,-4.0,189,171,163,179,171
2025-02-26 15:14:55.890,-389.0,11.0,936.0,7.0,-3.0,-4.0,198,178,172,189,181
2025-02-26 15:14:55.897,-386.0,7.0,967.0,4.0,-4.0,-4.0,202,181,174,191,183
2025-02-26 15:14:55.901,-406.0,8.0,969.0,4.0,-5.0,-5.0,196,176,171,188,180
2025-02-26 15:14:55.906,-403.0,16.0,940.0,1.0,-6.0,-4.0,195,173,171,187,179
2025-02-26 15:14:55.909,-395.0,19.0,955.0,-1.0,-6.0,-5.0,216,198,192,208,200
2025-02-26 15:14:55.914,-389.0,28.0,944.0,-4.0,-6.0,-5.0,213,192,187,203,197
2025-02-26 15:14:55.922,-386.0,6.0,928.0,-4.0,-7.0,-5.0,209,190,185,200,193
2025-02-26 15:14:55.926,-383.0,0.0,960.0,-4.0,-5.0,-5.0,213,195,187,205,197
2025-02-26 15:14:55.930,-389.0,-11.0,920.0,-6.0,-6.0,-5.0,211,192,186,203,195
2025-02-26 15:14:55.935,-373.0,-18.0,939.0,-6.0,-5.0,-4.0,206,186,181,196,191
2025-02-26 15:14:55.942,-384.0,-19.0,940.0,-6.0,-4.0,-4.0,210,192,186,203,194
2025-02-26 15:14:55.947,-386.0,-28.0,904.0,-5.0,-4.0,-3.0,212,194,188,203,196
2025-02-26 15:14:55.951,-391.0,-33.0,897.0,-4.0,-4.0,-3.0,210,191,185,202,195
2025-02-26 15:14:55.955,-395.0,-27.0,926.0,1.0,-4.0,-2.0,204,186,180,196,189
2025-02-26 15:14:55.963,-401.0,-15.0,912.0,-5.0,-4.0,-1.0,215,196,192,207,202
2025-02-26 15:14:55.967,-392.0,-13.0,973.0,5.0,-5.0,-2.0,212,193,186,202,198
2025-02-26 15:14:55.972,-412.0,-54.0,938.0,7.0,-5.0,-2.0,205,187,180,198,189
2025-02-26 15:14:55.976,-394.0,-23.0,955.0,9.0,-2.0,-2.0,205,185,179,197,187
2025-02-26 15:14:55.983,-398.0,-3.0,901.0,7.0,-4.0,-1.0,215,197,192,206,200
2025-02-26 15:14:55.988,-413.0,-14.0,964.0,7.0,-3.0,-1.0,212,191,186,201,195
2025-02-26 15:14:55.990,-409.0,20.0,959.0,5.0,-3.0,-1.0,206,185,179,195,187
2025-02-26 15:14:55.996,-406.0,10.0,887.0,6.0,-6.0,-2.0,210,192,187,200,194
2025-02-26 15:14:56.000,-394.0,13.0,985.0,1.0,-5.0,-1.0,213,194,189,204,198
2025-02-26 15:14:56.008,-393.0,40.0,924.0,0.0,-7.0,-3.0,205,185,179,197,188
2025-02-26 15:14:56.012,-409.0,66.0,1027.0,6.0,-2.0,-4.0,209,190,185,201,193
2025-02-26 15:14:56.016,-379.0,45.0,915.0,-10.0,-7.0,-2.0,193,174,166,183,177
2025-02-26 15:14:56.021,-418.0,-49.0,916.0,4.0,-9.0,-3.0,194,174,165,184,176
2025-02-26 15:14:56.028,-424.0,15.0,1007.0,-8.0,-10.0,-3.0,188,167,162,176,170
2025-02-26 15:14:56.030,-408.0,-10.0,947.0,-1.0,-14.0,-3.0,192,172,167,184,176
2025-02-26 15:14:56.037,-410.0,24.0,927.0,2.0,-11.0,-4.0,193,172,166,184,174
2025-02-26 15:14:56.042,-341.0,-19.0,936.0,12.0,-10.0,-5.0,192,172,166,183,175
2025-02-26 15:14:56.049,-377.0,-40.0,982.0,17.0,-9.0,-5.0,187,168,162,179,170
2025-02-26 15:14:56.053,-395.0,-5.0,951.0,11.0,-8.0,-3.0,192,172,166,181,175
2025-02-26 15:14:56.058,-346.0,41.0,973.0,-9.0,-1.0,-4.0,190,168,164,183,173
2025-02-26 15:14:56.062,-356.0,-27.0,900.0,10.0,-5.0,-2.0,190,171,164,181,173
2025-02-26 15:14:56.069,-342.0,11.0,985.0,4.0,-4.0,-2.0,193,173,167,183,174
2025-02-26 15:14:56.074,-379.0,36.0,989.0,18.0,-1.0,-4.0,192,172,164,182,175
2025-02-26 15:14:56.078,-399.0,-14.0,956.0,14.0,-4.0,-4.0,186,166,160,176,170
2025-02-26 15:14:56.082,-384.0,29.0,1007.0,8.0,-1.0,-3.0,191,171,164,181,173
2025-02-26 15:14:56.090,-363.0,110.0,987.0,1.0,-3.0,-3.0,193,172,168,185,177
2025-02-26 15:14:56.094,-396.0,9.0,1033.0,5.0,-3.0,-2.0,191,169,163,181,173
2025-02-26 15:14:56.098,-384.0,34.0,986.0,-2.0,-2.0,-3.0,185,166,159,176,169
2025-02-26 15:14:56.102,-391.0,29.0,928.0,0.0,-3.0,-3.0,194,174,170,186,178
2025-02-26 15:14:56.110,-394.0,-13.0,1020.0,3.0,-2.0,-3.0,194,174,167,183,175
2025-02-26 15:14:56.115,-365.0,31.0,1005.0,-1.0,-1.0,-3.0,186,167,161,179,170
2025-02-26 15:14:56.118,-412.0,29.0,1062.0,3.0,0.0,-4.0,186,164,158,176,169
2025-02-26 15:14:56.123,-396.0,-6.0,934.0,-2.0,-5.0,-4.0,192,174,170,185,177
2025-02-26 15:14:56.127,-385.0,15.0,986.0,0.0,-3.0,-3.0,190,170,163,180,172
2025-02-26 15:14:56.135,-382.0,7.0,937.0,-4.0,-5.0,-4.0,185,166,158,176,167
2025-02-26 15:14:56.139,-380.0,-9.0,1039.0,1.0,-2.0,-3.0,196,175,171,187,180
2025-02-26 15:14:56.143,-360.0,-17.0,951.0,0.0,-2.0,-4.0,199,178,173,191,183
2025-02-26 15:14:56.147,-364.0,-30.0,974.0,3.0,-2.0,-3.0,192,172,166,183,175
2025-02-26 15:14:56.156,-360.0,-29.0,987.0,3.0,1.0,-3.0,193,175,168,184,176
2025-02-26 15:14:56.169,-366.0,-26.0,997.0,4.0,2.0,-2.0,192,174,169,185,178
2025-02-26 15:14:56.169,-361.0,-11.0,976.0,3.0,2.0,-2.0,190,172,166,183,175
2025-02-26 15:14:56.169,-361.0,-20.0,981.0,2.0,4.0,-1.0,196,177,171,187,181
2025-02-26 15:14:56.176,-363.0,0.0,960.0,0.0,4.0,-1.0,190,168,163,180,170
2025-02-26 15:14:56.180,-370.0,10.0,954.0,0.0,3.0,-1.0,184,164,159,175,167
2025-02-26 15:14:56.181,-371.0,3.0,975.0,0.0,3.0,-1.0,189,169,165,180,172
2025-02-26 15:14:56.188,-376.0,23.0,950.0,0.0,2.0,-1.0,184,168,161,179,171
2025-02-26 15:14:56.192,-391.0,21.0,958.0,0.0,1.0,-1.0,181,161,155,171,164
2025-02-26 15:14:56.193,-378.0,17.0,959.0,0.0,1.0,-2.0,196,176,168,186,179
2025-02-26 15:14:56.205,-380.0,4.0,938.0,-1.0,-1.0,-1.0,190,170,165,181,173
2025-02-26 15:14:56.209,-379.0,7.0,959.0,-4.0,-1.0,-1.0,184,163,158,175,166
2025-02-26 15:14:56.213,-384.0,-10.0,947.0,-4.0,-1.0,-1.0,186,167,161,178,170
2025-02-26 15:14:56.217,-374.0,-1.0,949.0,2.0,-2.0,0.0,186,166,161,177,169
2025-02-26 15:14:56.222,-376.0,5.0,945.0,1.0,-1.0,0.0,183,163,158,173,167
2025-02-26 15:14:56.229,-373.0,-3.0,976.0,3.0,-1.0,0.0,186,166,160,178,169
2025-02-26 15:14:56.230,-379.0,-6.0,935.0,4.0,-2.0,1.0,184,165,159,176,168
2025-02-26 15:14:56.237,-386.0,10.0,944.0,5.0,-1.0,1.0,179,159,152,170,162
2025-02-26 15:14:56.242,-372.0,10.0,965.0,4.0,0.0,1.0,190,169,163,181,174
2025-02-26 15:14:56.245,-392.0,-9.0,951.0,5.0,1.0,1.0,184,164,159,175,167
2025-02-26 15:14:56.250,-390.0,25.0,953.0,5.0,1.0,1.0,179,158,154,169,162
2025-02-26 15:14:56.254,-381.0,31.0,957.0,4.0,2.0,1.0,185,166,159,176,167
2025-02-26 15:14:56.262,-401.0,21.0,968.0,5.0,2.0,1.0,186,167,161,178,172
2025-02-26 15:14:56.266,-385.0,45.0,947.0,3.0,2.0,1.0,179,159,153,170,164
2025-02-26 15:14:56.270,-388.0,47.0,940.0,2.0,2.0,1.0,185,164,159,175,168
2025-02-26 15:14:56.273,-393.0,37.0,949.0,2.0,2.0,0.0,183,163,156,174,165
2025-02-26 15:14:56.282,-388.0,40.0,954.0,-1.0,2.0,0.0,184,164,156,174,167
2025-02-26 15:14:56.286,-391.0,45.0,929.0,0.0,0.0,0.0,187,165,160,176,169
2025-02-26 15:14:56.291,-383.0,47.0,955.0,-2.0,0.0,0.0,184,164,157,174,167
2025-02-26 15:14:56.291,-396.0,45.0,924.0,-2.0,0.0,0.0,180,158,153,171,162
2025-02-26 15:14:56.299,-388.0,41.0,956.0,-2.0,0.0,0.0,185,164,159,175,166
2025-02-26 15:14:56.303,-401.0,18.0,957.0,-2.0,-1.0,0.0,181,160,154,173,164
2025-02-26 15:14:56.309,-371.0,40.0,930.0,-3.0,-1.0,0.0,180,159,153,170,164
2025-02-26 15:14:56.315,-379.0,18.0,963.0,-2.0,-1.0,0.0,185,163,161,175,167
2025-02-26 15:14:56.320,-380.0,16.0,958.0,-2.0,0.0,1.0,180,159,153,172,162
2025-02-26 15:14:56.324,-383.0,12.0,952.0,0.0,0.0,1.0,185,164,159,177,168
2025-02-26 15:14:56.327,-387.0,28.0,962.0,-2.0,0.0,0.0,183,166,159,177,168
2025-02-26 15:14:56.335,-378.0,22.0,963.0,2.0,1.0,1.0,178,159,153,166,162
2025-02-26 15:14:56.339,-378.0,53.0,1004.0,3.0,2.0,0.0,183,165,158,176,167
2025-02-26 15:14:56.344,-423.0,31.0,884.0,1.0,-1.0,0.0,184,164,157,176,167
2025-02-26 15:14:56.348,-367.0,70.0,964.0,-2.0,1.0,0.0,180,160,153,170,163
2025-02-26 15:14:56.352,-396.0,46.0,951.0,1.0,1.0,-1.0,185,164,158,175,167
2025-02-26 15:14:56.360,-409.0,42.0,938.0,0.0,0.0,-1.0,182,162,156,175,168
2025-02-26 15:14:56.364,-378.0,41.0,960.0,0.0,0.0,0.0,184,159,153,164,164
2025-02-26 15:14:56.368,-396.0,34.0,926.0,1.0,-1.0,-1.0,182,166,158,175,169
2025-02-26 15:14:56.373,-388.0,34.0,943.0,1.0,-1.0,-1.0,183,163,158,173,165
2025-02-26 15:14:56.375,-381.0,46.0,960.0,1.0,0.0,-1.0,180,159,154,171,162
2025-02-26 15:14:56.385,-383.0,26.0,937.0,4.0,-2.0,-1.0,187,165,159,177,170
2025-02-26 15:14:56.388,-380.0,26.0,952.0,5.0,-1.0,-1.0,183,163,157,173,167
2025-02-26 15:14:56.393,-395.0,34.0,991.0,4.0,0.0,-1.0,179,159,152,168,162
2025-02-26 15:14:56.397,-393.0,25.0,939.0,6.0,-1.0,0.0,184,163,158,174,167
2025-02-26 15:14:56.402,-383.0,34.0,958.0,6.0,0.0,0.0,182,161,155,173,165
2025-02-26 15:14:56.406,-383.0,27.0,957.0,6.0,0.0,-1.0,177,158,151,169,161
2025-02-26 15:14:56.413,-404.0,7.0,946.0,4.0,1.0,0.0,187,167,162,178,170
2025-02-26 15:14:56.418,-395.0,42.0,947.0,3.0,1.0,0.0,181,162,154,174,165
2025-02-26 15:14:56.421,-377.0,37.0,961.0,2.0,1.0,0.0,186,166,164,176,169
2025-02-26 15:14:56.424,-369.0,55.0,963.0,2.0,1.0,0.0,186,165,159,177,171
2025-02-26 15:14:56.430,-395.0,42.0,967.0,1.0,2.0,0.0,179,163,155,172,164
2025-02-26 15:14:56.436,-389.0,28.0,951.0,-1.0,2.0,-1.0,187,166,160,177,169
2025-02-26 15:14:56.442,-396.0,44.0,945.0,-1.0,2.0,0.0,188,169,162,181,173
2025-02-26 15:14:56.446,-399.0,48.0,944.0,-3.0,2.0,0.0,181,160,154,171,161
2025-02-26 15:14:56.451,-387.0,43.0,937.0,-4.0,1.0,-1.0,186,166,161,175,168
2025-02-26 15:14:56.455,-393.0,51.0,943.0,-4.0,0.0,-1.0,184,166,159,175,168
2025-02-26 15:14:56.462,-401.0,41.0,944.0,-4.0,-1.0,-1.0,185,165,160,177,169
2025-02-26 15:14:56.467,-391.0,47.0,946.0,-6.0,0.0,-1.0,186,165,160,178,168
2025-02-26 15:14:56.471,-392.0,32.0,952.0,-5.0,0.0,-1.0,185,163,158,174,167
2025-02-26 15:14:56.475,-383.0,28.0,941.0,-6.0,0.0,-1.0,181,160,149,171,163
2025-02-26 15:14:56.483,-393.0,24.0,941.0,-4.0,0.0,-1.0,190,171,165,180,173
2025-02-26 15:14:56.485,-388.0,17.0,945.0,-4.0,1.0,-1.0,185,163,158,174,167
2025-02-26 15:14:56.491,-386.0,24.0,940.0,-2.0,1.0,0.0,181,159,153,170,162
2025-02-26 15:14:56.495,-381.0,25.0,945.0,-2.0,1.0,0.0,184,165,158,175,168
2025-02-26 15:14:56.497,-394.0,22.0,939.0,-1.0,1.0,0.0,184,165,156,177,169
2025-02-26 15:14:56.507,-385.0,28.0,938.0,-1.0,1.0,0.0,180,161,154,172,164
2025-02-26 15:14:56.509,-387.0,32.0,938.0,0.0,1.0,-1.0,185,164,159,175,167
2025-02-26 15:14:56.516,-389.0,34.0,935.0,1.0,0.0,0.0,181,160,155,172,166
2025-02-26 15:14:56.520,-392.0,39.0,944.0,1.0,0.0,0.0,178,158,152,169,162
2025-02-26 15:14:56.521,-396.0,32.0,932.0,1.0,0.0,0.0,185,165,160,176,170
2025-02-26 15:14:56.529,-394.0,34.0,934.0,0.0,0.0,0.0,180,161,155,171,164
2025-02-26 15:14:56.533,-393.0,31.0,930.0,1.0,0.0,0.0,189,163,158,177,166
2025-02-26 15:14:56.541,-397.0,37.0,936.0,0.0,0.0,0.0,186,164,158,175,169
2025-02-26 15:14:56.545,-396.0,41.0,940.0,0.0,0.0,-1.0,187,160,154,173,164
2025-02-26 15:14:56.546,-396.0,46.0,926.0,-2.0,0.0,-1.0,185,164,159,176,169
2025-02-26 15:14:56.553,-400.0,28.0,932.0,-1.0,-1.0,-1.0,183,162,155,173,164
2025-02-26 15:14:56.558,-385.0,48.0,934.0,-3.0,-1.0,-1.0,178,159,153,170,162
2025-02-26 15:14:56.565,-392.0,40.0,940.0,-3.0,-2.0,-2.0,186,166,160,178,164
2025-02-26 15:14:56.569,-389.0,41.0,937.0,-3.0,-2.0,-1.0,182,164,159,174,167
2025-02-26 15:14:56.574,-386.0,34.0,939.0,-3.0,-2.0,-2.0,179,159,151,171,163
2025-02-26 15:14:56.580,-391.0,31.0,937.0,-3.0,-3.0,-2.0,183,164,156,173,165
2025-02-26 15:14:56.585,-382.0,33.0,944.0,-4.0,-2.0,-2.0,187,166,159,176,169
2025-02-26 15:14:56.588,-381.0,25.0,953.0,-3.0,-2.0,-2.0,180,161,156,173,164
2025-02-26 15:14:56.594,-386.0,10.0,954.0,-3.0,-2.0,-1.0,177,159,155,171,162
2025-02-26 15:14:56.602,-381.0,24.0,952.0,-3.0,-2.0,-1.0,185,166,159,176,168
2025-02-26 15:14:56.606,-377.0,17.0,955.0,-3.0,-1.0,-1.0,180,162,156,173,165
2025-02-26 15:14:56.610,-378.0,11.0,948.0,-2.0,-1.0,-1.0,179,158,153,168,162
2025-02-26 15:14:56.614,-377.0,27.0,943.0,0.0,-1.0,-1.0,182,162,157,173,164
2025-02-26 15:14:56.618,-380.0,25.0,955.0,0.0,-1.0,-1.0,183,162,156,175,165
2025-02-26 15:14:56.626,-380.0,26.0,951.0,1.0,-1.0,-1.0,180,159,153,171,162
2025-02-26 15:14:56.631,-382.0,30.0,953.0,0.0,-1.0,-1.0,179,159,154,172,162
2025-02-26 15:14:56.635,-381.0,39.0,954.0,-1.0,-2.0,-1.0,183,163,157,172,165
2025-02-26 15:14:56.639,-387.0,39.0,948.0,-1.0,-2.0,-2.0,176,159,153,169,162
2025-02-26 15:14:56.642,-382.0,40.0,955.0,-2.0,-2.0,-2.0,181,158,148,169,162
2025-02-26 15:14:56.650,-380.0,47.0,954.0,-3.0,-2.0,-2.0,183,163,159,174,167
2025-02-26 15:14:56.655,-390.0,39.0,967.0,-3.0,-2.0,-2.0,182,162,154,171,162
2025-02-26 15:14:56.659,-380.0,27.0,959.0,-4.0,-2.0,-2.0,179,155,152,166,160
2025-02-26 15:14:56.663,-373.0,23.0,962.0,-4.0,-1.0,-2.0,184,165,158,172,165
2025-02-26 15:14:56.671,-378.0,17.0,958.0,-3.0,-1.0,-2.0,183,162,158,175,167
2025-02-26 15:14:56.673,-377.0,10.0,958.0,-3.0,-1.0,-2.0,177,160,152,167,161
2025-02-26 15:14:56.680,-377.0,11.0,954.0,-2.0,0.0,-2.0,179,156,151,167,159
2025-02-26 15:14:56.684,-378.0,12.0,954.0,-1.0,0.0,-1.0,185,162,155,165,165
2025-02-26 15:14:56.692,-379.0,12.0,951.0,0.0,0.0,-1.0,182,162,153,171,163
2025-02-26 15:14:56.696,-385.0,15.0,953.0,1.0,0.0,-1.0,177,155,150,167,160
2025-02-26 15:14:56.697,-379.0,26.0,952.0,2.0,0.0,-1.0,183,162,157,172,166
2025-02-26 15:14:56.704,-386.0,23.0,957.0,2.0,-1.0,-1.0,180,157,154,168,164
2025-02-26 15:14:56.709,-383.0,30.0,949.0,1.0,-1.0,-1.0,179,159,152,169,162
2025-02-26 15:14:56.716,-378.0,37.0,954.0,0.0,-1.0,-1.0,184,165,157,177,167
2025-02-26 15:14:56.721,-387.0,34.0,959.0,0.0,-1.0,-1.0,182,161,155,174,166
2025-02-26 15:14:56.724,-383.0,36.0,956.0,-2.0,-1.0,-1.0,181,161,156,172,164
2025-02-26 15:14:56.730,-386.0,34.0,955.0,-3.0,-1.0,-1.0,184,164,159,176,168
2025-02-26 15:14:56.737,-391.0,32.0,949.0,-3.0,-1.0,-1.0,182,163,156,173,166
2025-02-26 15:14:56.741,-386.0,19.0,950.0,-4.0,-1.0,-1.0,179,161,155,170,161
2025-02-26 15:14:56.746,-382.0,12.0,951.0,-4.0,-1.0,-1.0,185,165,157,176,168
2025-02-26 15:14:56.749,-387.0,15.0,953.0,-3.0,-2.0,0.0,185,165,159,175,168
2025-02-26 15:14:56.754,-391.0,20.0,949.0,-2.0,-1.0,0.0,180,152,152,169,162
2025-02-26 15:14:56.761,-383.0,18.0,946.0,-2.0,-1.0,-1.0,179,159,152,169,160
2025-02-26 15:14:56.766,-395.0,21.0,939.0,-2.0,-1.0,0.0,186,161,158,175,172
2025-02-26 15:14:56.770,-392.0,33.0,951.0,-2.0,-1.0,0.0,181,162,156,175,165
2025-02-26 15:14:56.774,-395.0,29.0,952.0,-1.0,-2.0,0.0,178,158,140,169,162
2025-02-26 15:14:56.782,-394.0,35.0,954.0,-1.0,-1.0,0.0,183,162,158,174,164
2025-02-26 15:14:56.784,-396.0,32.0,948.0,0.0,-1.0,-1.0,178,163,156,172,166
2025-02-26 15:14:56.791,-399.0,40.0,956.0,-2.0,-1.0,-1.0,180,157,154,170,162
2025-02-26 15:14:56.795,-401.0,32.0,957.0,-2.0,-1.0,-1.0,182,161,153,172,165
2025-02-26 15:14:56.798,-396.0,22.0,964.0,-1.0,-1.0,-1.0,184,161,155,172,164
2025-02-26 15:14:56.806,-397.0,22.0,966.0,-1.0,0.0,-1.0,182,160,153,172,163
2025-02-26 15:14:56.810,-401.0,15.0,964.0,-2.0,0.0,-1.0,183,163,156,175,167
2025-02-26 15:14:56.814,-407.0,13.0,955.0,0.0,0.0,-1.0,183,164,159,174,166
2025-02-26 15:14:56.819,-403.0,35.0,968.0,-1.0,0.0,-1.0,179,159,152,170,161
2025-02-26 15:14:56.823,-402.0,27.0,953.0,0.0,0.0,-1.0,185,160,157,174,172
2025-02-26 15:14:56.831,-402.0,27.0,956.0,0.0,-1.0,-1.0,186,162,161,175,167
2025-02-26 15:14:56.835,-398.0,36.0,954.0,-1.0,-1.0,-2.0,179,159,152,168,162
2025-02-26 15:14:56.839,-400.0,40.0,968.0,-1.0,-1.0,-1.0,178,157,150,169,160
2025-02-26 15:14:56.844,-401.0,29.0,957.0,0.0,-1.0,-2.0,187,164,158,175,167
2025-02-26 15:14:56.851,-404.0,42.0,958.0,-1.0,-1.0,-2.0,181,158,154,170,163
2025-02-26 15:14:56.855,-397.0,28.0,957.0,-2.0,-1.0,-2.0,180,160,151,168,161
2025-02-26 15:14:56.860,-401.0,20.0,958.0,-2.0,-1.0,-2.0,184,162,156,174,165
2025-02-26 15:14:56.863,-396.0,20.0,955.0,-2.0,-1.0,-2.0,180,161,155,171,165
2025-02-26 15:14:56.872,-396.0,13.0,961.0,-1.0,-1.0,-2.0,178,158,152,169,163
2025-02-26 15:14:56.875,-394.0,15.0,957.0,0.0,0.0,-2.0,184,163,155,173,166
2025-02-26 15:14:56.881,-392.0,16.0,967.0,0.0,0.0,-2.0,183,162,156,173,166
2025-02-26 15:14:56.885,-392.0,14.0,971.0,0.0,0.0,-1.0,180,159,154,168,162
2025-02-26 15:14:56.889,-395.0,12.0,972.0,0.0,1.0,-2.0,183,163,158,174,166
2025-02-26 15:14:56.893,-390.0,16.0,964.0,0.0,1.0,-1.0,181,161,155,171,164
2025-02-26 15:14:56.901,-397.0,19.0,965.0,0.0,1.0,-1.0,178,158,153,168,161
2025-02-26 15:14:56.905,-392.0,20.0,963.0,0.0,1.0,-2.0,181,162,157,176,166
2025-02-26 15:14:56.909,-386.0,20.0,963.0,-1.0,0.0,-2.0,182,163,156,173,165
2025-02-26 15:14:56.913,-389.0,23.0,965.0,-1.0,0.0,-2.0,177,160,155,168,161
2025-02-26 15:14:56.921,-396.0,18.0,965.0,-1.0,0.0,-2.0,182,163,157,174,166
2025-02-26 15:14:56.924,-389.0,19.0,971.0,-2.0,0.0,-1.0,181,162,156,173,164
2025-02-26 15:14:56.930,-393.0,25.0,965.0,-3.0,0.0,-1.0,180,159,152,169,162
2025-02-26 15:14:56.934,-388.0,-2.0,969.0,-1.0,1.0,-1.0,183,163,156,173,165
2025-02-26 15:14:56.938,-381.0,4.0,971.0,-2.0,1.0,-2.0,182,163,157,173,166
2025-02-26 15:14:56.946,-380.0,7.0,965.0,-2.0,1.0,-1.0,182,161,153,170,163
2025-02-26 15:14:56.949,-379.0,1.0,967.0,-1.0,2.0,-1.0,185,164,158,176,166
2025-02-26 15:14:56.953,-381.0,5.0,965.0,-1.0,2.0,-1.0,181,161,156,173,164
2025-02-26 15:14:56.958,-375.0,2.0,957.0,-1.0,2.0,-1.0,178,157,150,169,161
2025-02-26 15:14:56.962,-385.0,1.0,958.0,0.0,2.0,-1.0,184,164,158,175,167
2025-02-26 15:14:56.970,-380.0,17.0,961.0,-1.0,2.0,-1.0,182,163,158,174,165
2025-02-26 15:14:56.975,-383.0,12.0,941.0,-2.0,2.0,0.0,178,157,150,167,160
2025-02-26 15:14:56.979,-389.0,8.0,945.0,-2.0,2.0,0.0,184,164,157,173,166
2025-02-26 15:14:56.983,-385.0,12.0,941.0,-3.0,1.0,0.0,182,162,157,173,166
2025-02-26 15:14:56.987,-391.0,18.0,933.0,-4.0,1.0,-1.0,179,159,152,171,161
2025-02-26 15:14:56.991,-388.0,5.0,945.0,-3.0,1.0,0.0,183,164,158,174,165
2025-02-26 15:14:56.999,-384.0,8.0,949.0,-4.0,1.0,0.0,181,161,153,172,165
2025-02-26 15:14:57.002,-392.0,4.0,937.0,-3.0,0.0,0.0,181,161,156,172,164
2025-02-26 15:14:57.008,-391.0,3.0,945.0,-3.0,1.0,0.0,184,165,159,174,168
2025-02-26 15:14:57.011,-389.0,2.0,928.0,-3.0,1.0,0.0,177,158,152,168,161
2025-02-26 15:14:57.014,-380.0,4.0,932.0,-2.0,1.0,0.0,175,156,148,166,160
2025-02-26 15:14:57.020,-392.0,3.0,940.0,-1.0,1.0,1.0,188,167,158,176,170
2025-02-26 15:14:57.026,-396.0,7.0,935.0,-1.0,0.0,0.0,179,159,152,169,162
2025-02-26 15:14:57.031,-393.0,10.0,939.0,0.0,0.0,1.0,185,162,155,173,165
2025-02-26 15:14:57.036,-391.0,16.0,940.0,-1.0,0.0,1.0,182,162,156,172,165
2025-02-26 15:14:57.040,-391.0,16.0,940.0,0.0,0.0,0.0,183,163,157,173,166
2025-02-26 15:14:57.044,-394.0,17.0,940.0,0.0,0.0,1.0,184,165,159,176,167
2025-02-26 15:14:57.050,-393.0,19.0,947.0,1.0,0.0,0.0,181,161,154,171,164
2025-02-26 15:14:57.057,-396.0,20.0,943.0,1.0,0.0,1.0,178,157,153,169,161
2025-02-26 15:14:57.060,-401.0,23.0,943.0,0.0,0.0,1.0,186,165,158,175,168
2025-02-26 15:14:57.065,-398.0,24.0,941.0,1.0,0.0,0.0,180,162,155,173,166
2025-02-26 15:14:57.069,-391.0,28.0,944.0,1.0,1.0,0.0,177,157,150,167,160
2025-02-26 15:14:57.073,-396.0,26.0,947.0,0.0,1.0,0.0,182,162,156,171,165
2025-02-26 15:14:57.081,-393.0,24.0,954.0,-1.0,1.0,0.0,175,159,152,171,162
2025-02-26 15:14:57.085,-398.0,17.0,948.0,-2.0,0.0,0.0,178,160,154,170,162
2025-02-26 15:14:57.089,-393.0,28.0,949.0,-2.0,0.0,0.0,185,164,157,174,166
2025-02-26 15:14:57.094,-402.0,25.0,947.0,-1.0,0.0,0.0,177,156,152,167,163
2025-02-26 15:14:57.098,-395.0,27.0,941.0,-2.0,0.0,0.0,183,161,156,173,167
2025-02-26 15:14:57.106,-398.0,29.0,946.0,-2.0,0.0,0.0,183,163,158,174,166
2025-02-26 15:14:57.110,-397.0,28.0,943.0,-3.0,-1.0,0.0,178,158,152,170,161
2025-02-26 15:14:57.113,-397.0,29.0,941.0,-4.0,-1.0,0.0,181,157,158,174,167
2025-02-26 15:14:57.118,-397.0,25.0,946.0,-4.0,-1.0,1.0,181,161,155,172,161
2025-02-26 15:14:57.123,-401.0,22.0,940.0,-3.0,-1.0,0.0,180,159,152,169,163
2025-02-26 15:14:57.130,-397.0,17.0,940.0,-3.0,-1.0,0.0,183,162,158,175,165
2025-02-26 15:14:57.134,-403.0,14.0,940.0,-3.0,-1.0,0.0,180,165,157,173,165
2025-02-26 15:14:57.138,-402.0,13.0,940.0,-2.0,-1.0,0.0,177,158,152,169,161
2025-02-26 15:14:57.143,-397.0,16.0,946.0,-1.0,-1.0,0.0,185,166,159,177,168
2025-02-26 15:14:57.146,-397.0,22.0,948.0,-1.0,-1.0,1.0,183,160,152,172,164
2025-02-26 15:14:57.155,-397.0,23.0,947.0,0.0,-1.0,1.0,178,157,152,168,162
2025-02-26 15:14:57.157,-405.0,24.0,949.0,0.0,0.0,0.0,182,162,157,174,165
2025-02-26 15:14:57.163,-400.0,37.0,950.0,-1.0,-1.0,0.0,179,160,155,171,163
2025-02-26 15:14:57.166,-401.0,35.0,955.0,-1.0,-1.0,0.0,177,157,151,171,159
2025-02-26 15:14:57.172,-408.0,33.0,940.0,-2.0,-1.0,0.0,182,162,156,173,165
2025-02-26 15:14:57.179,-405.0,37.0,944.0,-1.0,-1.0,0.0,178,158,151,167,161
2025-02-26 15:14:57.183,-400.0,33.0,948.0,-2.0,-1.0,-1.0,181,160,153,171,162
2025-02-26 15:14:57.188,-402.0,32.0,956.0,-2.0,-1.0,-1.0,184,164,157,174,167
2025-02-26 15:14:57.189,-398.0,25.0,951.0,-2.0,-2.0,-1.0,182,160,154,171,164
2025-02-26 15:14:57.199,-399.0,27.0,952.0,-2.0,-1.0,0.0,177,157,150,167,160
2025-02-26 15:14:57.204,-400.0,18.0,953.0,-1.0,-1.0,0.0,186,167,159,176,168
2025-02-26 15:14:57.208,-397.0,20.0,951.0,-1.0,-1.0,0.0,183,163,156,174,166
2025-02-26 15:14:57.213,-395.0,19.0,947.0,0.0,-1.0,0.0,177,158,152,169,160
2025-02-26 15:14:57.217,-396.0,19.0,949.0,0.0,-1.0,0.0,182,162,156,173,166
2025-02-26 15:14:57.225,-399.0,19.0,953.0,0.0,-1.0,0.0,186,163,157,174,167
2025-02-26 15:14:57.228,-399.0,25.0,957.0,0.0,-2.0,0.0,177,158,155,167,161
2025-02-26 15:14:57.233,-396.0,25.0,956.0,0.0,-1.0,0.0,182,161,155,173,166
2025-02-26 15:14:57.237,-403.0,33.0,949.0,-1.0,-1.0,0.0,181,161,157,172,163
2025-02-26 15:14:57.242,-397.0,34.0,958.0,-2.0,-1.0,0.0,180,160,153,170,163
2025-02-26 15:14:57.249,-392.0,29.0,957.0,-2.0,-1.0,-1.0,183,163,157,174,166
2025-02-26 15:14:57.253,-399.0,28.0,958.0,-2.0,-1.0,-1.0,181,162,155,172,165
2025-02-26 15:14:57.258,-394.0,29.0,954.0,-2.0,-1.0,-1.0,177,156,154,170,161
2025-02-26 15:14:57.262,-396.0,29.0,963.0,-1.0,-1.0,-1.0,179,159,153,170,163
2025-02-26 15:14:57.270,-391.0,27.0,955.0,-1.0,-2.0,-1.0,185,165,158,174,166
2025-02-26 15:14:57.274,-397.0,32.0,953.0,-1.0,-2.0,-1.0,182,160,155,172,165
2025-02-26 15:14:57.278,-396.0,29.0,959.0,-1.0,-2.0,-1.0,180,157,152,170,161
2025-02-26 15:14:57.281,-395.0,32.0,954.0,-1.0,-2.0,-1.0,185,165,158,175,169
2025-02-26 15:14:57.290,-392.0,32.0,967.0,-1.0,-1.0,-1.0,182,161,156,173,166
2025-02-26 15:14:57.292,-391.0,27.0,961.0,-1.0,-2.0,-1.0,176,158,152,169,162
2025-02-26 15:14:57.298,-387.0,27.0,967.0,-1.0,-1.0,-1.0,180,160,154,170,164
2025-02-26 15:14:57.302,-381.0,14.0,964.0,0.0,-1.0,-1.0,185,164,158,175,168
2025-02-26 15:14:57.306,-384.0,18.0,970.0,0.0,-1.0,-1.0,179,158,154,171,163
2025-02-26 15:14:57.314,-386.0,22.0,963.0,0.0,-1.0,-1.0,176,156,152,168,160
2025-02-26 15:14:57.316,-388.0,19.0,961.0,0.0,-1.0,-1.0,183,162,156,172,165
2025-02-26 15:14:57.322,-388.0,27.0,964.0,0.0,-1.0,-1.0,182,164,158,173,167
2025-02-26 15:14:57.327,-390.0,25.0,970.0,0.0,-1.0,-1.0,180,160,154,171,163
2025-02-26 15:14:57.334,-398.0,33.0,957.0,-1.0,0.0,-1.0,182,163,157,172,166
2025-02-26 15:14:57.339,-384.0,38.0,949.0,-3.0,-1.0,-1.0,185,163,156,173,167
2025-02-26 15:14:57.343,-396.0,24.0,956.0,-1.0,-1.0,-1.0,183,162,156,172,163
2025-02-26 15:14:57.347,-396.0,9.0,961.0,-1.0,0.0,-1.0,185,165,159,177,169
2025-02-26 15:14:57.351,-388.0,16.0,969.0,-1.0,1.0,-1.0,183,164,158,176,166
2025-02-26 15:14:57.359,-388.0,11.0,958.0,-3.0,1.0,-1.0,181,162,156,173,163
2025-02-26 15:14:57.364,-393.0,13.0,955.0,-2.0,1.0,0.0,191,170,166,181,173
2025-02-26 15:14:57.368,-381.0,22.0,951.0,-2.0,1.0,0.0,191,171,164,181,174
2025-02-26 15:14:57.372,-388.0,18.0,954.0,-2.0,1.0,-1.0,185,165,159,176,168
2025-02-26 15:14:57.377,-389.0,20.0,951.0,-2.0,1.0,-1.0,190,170,164,181,173
2025-02-26 15:14:57.383,-391.0,24.0,949.0,-1.0,0.0,0.0,193,171,165,181,174
2025-02-26 15:14:57.389,-385.0,23.0,953.0,-2.0,0.0,0.0,184,163,159,175,168
2025-02-26 15:14:57.393,-384.0,29.0,951.0,-2.0,0.0,0.0,189,169,164,182,172
2025-02-26 15:14:57.397,-385.0,28.0,956.0,-2.0,0.0,0.0,186,167,161,178,171
2025-02-26 15:14:57.401,-385.0,29.0,951.0,-3.0,0.0,0.0,186,167,161,179,171
2025-02-26 15:14:57.408,-388.0,26.0,954.0,-3.0,0.0,0.0,189,170,164,180,174
2025-02-26 15:14:57.413,-387.0,33.0,950.0,-3.0,0.0,-1.0,187,167,160,179,171
2025-02-26 15:14:57.417,-388.0,29.0,945.0,-4.0,0.0,-1.0,184,164,159,174,167
2025-02-26 15:14:57.421,-384.0,26.0,952.0,-3.0,0.0,-1.0,193,174,169,185,177
2025-02-26 15:14:57.426,-385.0,20.0,949.0,-3.0,0.0,-1.0,188,168,162,178,170
2025-02-26 15:14:57.433,-386.0,15.0,952.0,-1.0,1.0,-1.0,185,163,157,174,168
2025-02-26 15:14:57.438,-385.0,16.0,954.0,0.0,1.0,-1.0,188,169,163,180,172
2025-02-26 15:14:57.441,-384.0,8.0,949.0,1.0,1.0,0.0,192,173,168,182,177
2025-02-26 15:14:57.445,-388.0,18.0,945.0,3.0,2.0,0.0,183,163,158,174,165
2025-02-26 15:14:57.450,-386.0,22.0,936.0,3.0,2.0,0.0,188,169,162,180,171
2025-02-26 15:14:57.454,-395.0,27.0,938.0,4.0,1.0,0.0,186,166,162,177,169
2025-02-26 15:14:57.462,-394.0,36.0,940.0,3.0,1.0,-1.0,189,170,165,181,174
2025-02-26 15:14:57.466,-397.0,37.0,938.0,2.0,1.0,-1.0,190,170,163,181,175
2025-02-26 15:14:57.470,-403.0,42.0,937.0,1.0,0.0,-1.0,187,168,161,178,171
2025-02-26 15:14:57.474,-400.0,39.0,936.0,-1.0,0.0,-1.0,186,165,158,176,167
2025-02-26 15:14:57.482,-400.0,41.0,936.0,-2.0,-1.0,-1.0,190,169,162,179,172
2025-02-26 15:14:57.487,-404.0,34.0,936.0,-3.0,-2.0,-1.0,189,170,164,181,172
2025-02-26 15:14:57.491,-398.0,33.0,939.0,-4.0,-2.0,-1.0,184,163,158,175,168
2025-02-26 15:14:57.492,-396.0,25.0,944.0,-4.0,-2.0,-1.0,189,170,162,178,171
2025-02-26 15:14:57.499,-395.0,15.0,948.0,-3.0,-1.0,-1.0,188,167,162,179,173
2025-02-26 15:14:57.507,-392.0,11.0,946.0,-2.0,-1.0,0.0,184,162,160,173,167
2025-02-26 15:14:57.511,-386.0,12.0,950.0,0.0,0.0,0.0,189,168,162,177,171
2025-02-26 15:14:57.516,-395.0,14.0,950.0,0.0,0.0,0.0,187,164,160,177,170
2025-02-26 15:14:57.529,-393.0,25.0,951.0,1.0,0.0,0.0,184,162,158,174,166
2025-02-26 15:14:57.530,-398.0,21.0,947.0,2.0,1.0,0.0,189,170,166,180,172
2025-02-26 15:14:57.533,-401.0,30.0,944.0,2.0,1.0,0.0,185,166,160,177,170
2025-02-26 15:14:57.536,-403.0,32.0,949.0,2.0,1.0,0.0,185,161,156,171,165
2025-02-26 15:14:57.540,-404.0,37.0,945.0,1.0,0.0,0.0,188,167,162,178,171
2025-02-26 15:14:57.544,-409.0,43.0,943.0,0.0,0.0,-1.0,189,165,160,174,168
2025-02-26 15:14:57.548,-406.0,46.0,943.0,0.0,-1.0,-1.0,188,168,161,177,170
2025-02-26 15:14:57.556,-404.0,41.0,947.0,-1.0,-1.0,-1.0,188,168,165,179,172
2025-02-26 15:14:57.559,-397.0,36.0,943.0,-1.0,-1.0,-1.0,186,165,158,174,168
2025-02-26 15:14:57.564,-400.0,35.0,955.0,-2.0,-1.0,-1.0,187,165,159,180,169
2025-02-26 15:14:57.569,-396.0,26.0,946.0,-2.0,0.0,-2.0,186,169,162,179,171
2025-02-26 15:14:57.570,-392.0,19.0,952.0,-2.0,0.0,-1.0,186,166,159,177,166
2025-02-26 15:14:57.581,-384.0,18.0,945.0,-1.0,0.0,-1.0,182,164,156,173,166
2025-02-26 15:14:57.583,-386.0,11.0,946.0,0.0,1.0,-1.0,189,170,163,184,174
2025-02-26 15:14:57.589,-390.0,12.0,944.0,1.0,1.0,-1.0,185,166,161,175,168
2025-02-26 15:14:57.593,-393.0,11.0,943.0,1.0,1.0,0.0,182,162,158,172,164
2025-02-26 15:14:57.595,-398.0,15.0,936.0,1.0,1.0,0.0,187,165,161,179,171
2025-02-26 15:14:57.605,-401.0,24.0,936.0,2.0,1.0,0.0,184,164,160,176,169
2025-02-26 15:14:57.606,-401.0,28.0,942.0,1.0,0.0,0.0,184,163,158,175,166
2025-02-26 15:14:57.613,-398.0,32.0,938.0,1.0,-1.0,0.0,188,168,161,179,171
2025-02-26 15:14:57.618,-406.0,31.0,937.0,1.0,-1.0,0.0,183,163,156,174,168
2025-02-26 15:14:57.622,-401.0,38.0,936.0,-1.0,-1.0,0.0,189,171,165,182,174
2025-02-26 15:14:57.630,-403.0,30.0,941.0,-3.0,-1.0,0.0,189,169,162,180,172
2025-02-26 15:14:57.634,-396.0,26.0,931.0,-1.0,-1.0,-1.0,183,164,158,175,167
2025-02-26 15:14:57.639,-398.0,25.0,941.0,-3.0,-1.0,-1.0,188,168,162,178,170
2025-02-26 15:14:57.643,-396.0,19.0,950.0,-1.0,-1.0,0.0,190,170,165,181,173
2025-02-26 15:14:57.647,-395.0,23.0,948.0,-1.0,-1.0,0.0,183,164,158,175,168
2025-02-26 15:14:57.655,-397.0,22.0,941.0,0.0,-1.0,0.0,184,163,159,176,167
2025-02-26 15:14:57.656,-401.0,24.0,936.0,0.0,-1.0,0.0,186,165,161,179,169
2025-02-26 15:14:57.660,-404.0,25.0,942.0,0.0,-1.0,0.0,186,166,160,177,169
2025-02-26 15:14:57.667,-402.0,26.0,943.0,0.0,-1.0,0.0,189,170,164,179,172
2025-02-26 15:14:57.671,-404.0,39.0,939.0,1.0,-2.0,0.0,188,169,162,178,170
2025-02-26 15:14:57.679,-404.0,41.0,944.0,1.0,-1.0,0.0,183,163,158,173,166
2025-02-26 15:14:57.683,-412.0,34.0,964.0,1.0,-1.0,0.0,192,172,166,181,174
2025-02-26 15:14:57.687,-410.0,12.0,936.0,3.0,-2.0,0.0,186,168,162,178,171
2025-02-26 15:14:57.692,-400.0,24.0,953.0,2.0,-1.0,-1.0,183,163,157,175,166
2025-02-26 15:14:57.696,-414.0,34.0,952.0,0.0,-2.0,0.0,188,167,162,177,171
2025-02-26 15:14:57.704,-402.0,38.0,949.0,-1.0,-2.0,-1.0,190,171,165,180,174
2025-02-26 15:14:57.708,-399.0,32.0,952.0,-2.0,-2.0,-1.0,185,165,159,175,168
2025-02-26 15:14:57.710,-401.0,41.0,945.0,-2.0,-2.0,-1.0,187,168,161,178,170
2025-02-26 15:14:57.716,-396.0,40.0,943.0,-1.0,-2.0,-1.0,188,166,163,177,171
2025-02-26 15:14:57.723,-396.0,28.0,950.0,-1.0,-2.0,-1.0,188,168,163,179,173
2025-02-26 15:14:57.728,-397.0,26.0,945.0,-1.0,-1.0,-1.0,185,165,158,176,169
2025-02-26 15:14:57.732,-394.0,24.0,944.0,2.0,-1.0,-1.0,188,167,163,179,172
2025-02-26 15:14:57.734,-386.0,18.0,944.0,2.0,-1.0,-1.0,187,167,159,177,170
2025-02-26 15:14:57.739,-393.0,18.0,943.0,2.0,-1.0,-1.0,188,168,164,177,169
2025-02-26 15:14:57.746,-396.0,23.0,947.0,3.0,-1.0,-1.0,188,168,163,179,172
2025-02-26 15:14:57.751,-387.0,24.0,953.0,3.0,-1.0,-1.0,187,166,160,177,169
2025-02-26 15:14:57.757,-393.0,33.0,953.0,3.0,-1.0,0.0,183,163,157,171,165
2025-02-26 15:14:57.758,-401.0,38.0,952.0,2.0,-1.0,-1.0,193,171,166,183,174
2025-02-26 15:14:57.763,-396.0,32.0,947.0,1.0,-1.0,0.0,188,165,159,174,170
2025-02-26 15:14:57.773,-393.0,39.0,952.0,0.0,-1.0,-1.0,182,164,159,175,167
2025-02-26 15:14:57.778,-385.0,40.0,949.0,-1.0,-2.0,-1.0,190,167,161,178,171
2025-02-26 15:14:57.782,-393.0,39.0,955.0,-1.0,-2.0,-1.0,192,172,167,182,174
2025-02-26 15:14:57.786,-386.0,36.0,956.0,-2.0,-1.0,-1.0,185,165,160,177,168
2025-02-26 15:14:57.794,-394.0,24.0,965.0,-2.0,-1.0,-1.0,182,161,156,173,165
2025-02-26 15:14:57.798,-393.0,23.0,948.0,-2.0,-1.0,-1.0,186,167,165,179,172
2025-02-26 15:14:57.802,-381.0,30.0,958.0,-2.0,0.0,-1.0,190,170,164,182,175
2025-02-26 15:14:57.806,-384.0,21.0,961.0,-1.0,0.0,-1.0,187,165,159,176,169
2025-02-26 15:14:57.811,-381.0,22.0,951.0,0.0,0.0,-1.0,187,169,162,178,171
2025-02-26 15:14:57.819,-387.0,23.0,946.0,1.0,1.0,-1.0,187,167,162,179,171
2025-02-26 15:14:57.823,-385.0,26.0,945.0,1.0,1.0,-1.0,187,168,164,180,171
2025-02-26 15:14:57.827,-391.0,30.0,942.0,1.0,0.0,0.0,188,168,164,180,172
2025-02-26 15:14:57.831,-399.0,30.0,937.0,2.0,0.0,0.0,184,163,158,175,167
2025-02-26 15:14:57.834,-392.0,43.0,938.0,0.0,0.0,-1.0,180,161,155,171,165
2025-02-26 15:14:57.843,-398.0,41.0,934.0,0.0,-1.0,-1.0,191,174,166,183,175
2025-02-26 15:14:57.847,-392.0,46.0,940.0,-1.0,0.0,-1.0,184,165,160,175,169
2025-02-26 15:14:57.852,-394.0,41.0,934.0,-2.0,-1.0,-1.0,182,162,156,172,165
2025-02-26 15:14:57.854,-387.0,38.0,944.0,-2.0,-1.0,-1.0,189,169,161,179,170
2025-02-26 15:14:57.860,-389.0,31.0,933.0,-2.0,-1.0,-1.0,191,169,164,182,175
2025-02-26 15:14:57.868,-391.0,20.0,930.0,-2.0,-1.0,-1.0,185,165,159,176,168
2025-02-26 15:14:57.872,-393.0,20.0,934.0,0.0,0.0,-1.0,187,167,161,178,170
2025-02-26 15:14:57.876,-398.0,20.0,920.0,0.0,-1.0,-1.0,186,166,160,177,168
2025-02-26 15:14:57.880,-392.0,23.0,920.0,1.0,-1.0,0.0,184,166,161,176,170
2025-02-26 15:14:57.888,-396.0,20.0,925.0,2.0,-1.0,-1.0,188,167,164,180,173
2025-02-26 15:14:57.892,-392.0,35.0,928.0,3.0,-2.0,0.0,186,165,160,175,169
2025-02-26 15:14:57.897,-396.0,35.0,922.0,3.0,-2.0,-1.0,182,162,157,172,165
2025-02-26 15:14:57.900,-394.0,40.0,935.0,2.0,-3.0,0.0,191,172,165,183,175
2025-02-26 15:14:57.902,-394.0,41.0,935.0,2.0,-3.0,-1.0,185,167,161,179,170
2025-02-26 15:14:57.913,-393.0,37.0,943.0,2.0,-3.0,0.0,182,162,155,172,165
2025-02-26 15:14:57.917,-392.0,41.0,941.0,1.0,-3.0,0.0,188,166,160,178,171
2025-02-26 15:14:57.921,-392.0,40.0,948.0,1.0,-3.0,0.0,188,166,160,178,169
2025-02-26 15:14:57.925,-395.0,38.0,952.0,0.0,-3.0,0.0,183,163,157,174,166
2025-02-26 15:14:57.929,-400.0,41.0,951.0,-1.0,-3.0,0.0,189,169,161,177,170
2025-02-26 15:14:57.937,-397.0,39.0,947.0,-1.0,-3.0,0.0,187,166,161,177,170
2025-02-26 15:14:57.941,-397.0,37.0,952.0,-1.0,-3.0,0.0,181,163,156,173,164
2025-02-26 15:14:57.946,-397.0,35.0,950.0,-2.0,-4.0,0.0,187,168,161,179,171
2025-02-26 15:14:57.950,-398.0,37.0,954.0,-2.0,-4.0,0.0,185,165,159,178,169
2025-02-26 15:14:57.954,-399.0,36.0,955.0,-2.0,-4.0,0.0,180,161,155,173,164
2025-02-26 15:14:57.960,-400.0,34.0,954.0,-2.0,-4.0,0.0,187,167,161,178,168
2025-02-26 15:14:57.966,-395.0,36.0,953.0,-2.0,-4.0,0.0,184,165,160,178,170
2025-02-26 15:14:57.970,-400.0,35.0,963.0,-1.0,-4.0,0.0,182,163,157,174,166
2025-02-26 15:14:57.975,-390.0,31.0,964.0,0.0,-4.0,0.0,184,165,156,178,170
2025-02-26 15:14:57.978,-393.0,22.0,966.0,0.0,-3.0,0.0,184,165,159,176,170
2025-02-26 15:14:57.986,-393.0,25.0,974.0,1.0,-3.0,0.0,183,162,155,172,164
2025-02-26 15:14:57.990,-398.0,24.0,977.0,3.0,-2.0,0.0,187,166,161,178,170
2025-02-26 15:14:57.994,-396.0,32.0,975.0,3.0,-2.0,0.0,184,165,157,175,168
2025-02-26 15:14:57.998,-405.0,31.0,981.0,3.0,-2.0,0.0,180,160,154,172,163
2025-02-26 15:14:58.003,-401.0,33.0,982.0,3.0,-2.0,0.0,186,166,160,178,170
2025-02-26 15:14:58.010,-402.0,44.0,980.0,3.0,-3.0,0.0,184,165,158,176,168
2025-02-26 15:14:58.013,-404.0,54.0,986.0,2.0,-3.0,0.0,180,163,154,168,166
2025-02-26 15:14:58.020,-402.0,48.0,991.0,0.0,-3.0,0.0,186,165,158,176,169
2025-02-26 15:14:58.024,-402.0,59.0,991.0,-1.0,-3.0,-1.0,188,166,162,176,170
2025-02-26 15:14:58.028,-399.0,56.0,997.0,-3.0,-3.0,-1.0,182,161,155,173,165
2025-02-26 15:14:58.036,-403.0,56.0,1000.0,-5.0,-2.0,-1.0,184,166,159,175,168
2025-02-26 15:14:58.040,-393.0,51.0,993.0,-6.0,-2.0,-1.0,184,165,159,177,169
2025-02-26 15:14:58.044,-394.0,38.0,1005.0,-6.0,-1.0,-2.0,183,163,158,174,171
2025-02-26 15:14:58.048,-394.0,38.0,996.0,-6.0,-1.0,-2.0,179,160,154,171,163
2025-02-26 15:14:58.056,-381.0,38.0,1010.0,-6.0,1.0,-2.0,184,164,160,176,168
2025-02-26 15:14:58.060,-387.0,28.0,1002.0,-4.0,3.0,-1.0,184,163,155,174,166
2025-02-26 15:14:58.064,-384.0,21.0,981.0,-3.0,3.0,-1.0,182,161,154,172,164
2025-02-26 15:14:58.069,-393.0,16.0,979.0,-2.0,3.0,-1.0,187,165,159,176,169
2025-02-26 15:14:58.076,-388.0,19.0,985.0,-1.0,5.0,-1.0,182,163,153,174,167
2025-02-26 15:14:58.081,-382.0,25.0,977.0,1.0,5.0,-1.0,182,161,153,170,163
2025-02-26 15:14:58.085,-391.0,26.0,973.0,1.0,5.0,-1.0,187,170,160,177,165
2025-02-26 15:14:58.089,-393.0,33.0,964.0,1.0,5.0,-1.0,184,164,159,174,169
2025-02-26 15:14:58.093,-396.0,47.0,958.0,0.0,5.0,-1.0,178,160,156,171,164
2025-02-26 15:14:58.101,-390.0,49.0,957.0,-2.0,4.0,-1.0,185,165,159,176,167
2025-02-26 15:14:58.105,-384.0,54.0,952.0,-2.0,4.0,-2.0,184,165,159,176,166
2025-02-26 15:14:58.109,-387.0,52.0,947.0,-3.0,4.0,-2.0,179,160,154,172,164
2025-02-26 15:14:58.114,-382.0,52.0,940.0,-5.0,4.0,-2.0,186,164,153,175,168
2025-02-26 15:14:58.116,-381.0,43.0,939.0,-6.0,3.0,-2.0,185,164,158,176,167
2025-02-26 15:14:58.125,-382.0,43.0,931.0,-7.0,4.0,-2.0,183,162,157,174,165
2025-02-26 15:14:58.128,-380.0,38.0,931.0,-9.0,3.0,-2.0,186,166,160,176,168
2025-02-26 15:14:58.134,-379.0,33.0,924.0,-9.0,2.0,-2.0,184,166,163,176,169
2025-02-26 15:14:58.138,-382.0,25.0,919.0,-8.0,2.0,-2.0,179,161,155,172,164
2025-02-26 15:14:58.142,-375.0,20.0,913.0,-7.0,2.0,-3.0,188,161,157,171,162
2025-02-26 15:14:58.150,-373.0,20.0,906.0,-7.0,1.0,-2.0,184,165,159,176,167
2025-02-26 15:14:58.153,-369.0,13.0,910.0,-6.0,1.0,-2.0,180,160,154,171,164
2025-02-26 15:14:58.158,-369.0,15.0,908.0,-5.0,1.0,-2.0,177,158,152,167,161
2025-02-26 15:14:58.162,-365.0,15.0,904.0,-4.0,1.0,-2.0,185,165,162,177,169
2025-02-26 15:14:58.170,-361.0,15.0,902.0,-4.0,1.0,-2.0,181,161,156,173,165
2025-02-26 15:14:58.175,-358.0,18.0,899.0,-4.0,0.0,-2.0,178,160,152,169,162
2025-02-26 15:14:58.179,-360.0,24.0,896.0,-5.0,0.0,-2.0,183,164,157,174,168
2025-02-26 15:14:58.183,-358.0,23.0,897.0,-5.0,0.0,-2.0,185,163,155,173,168
2025-02-26 15:14:58.187,-359.0,28.0,883.0,-6.0,0.0,-2.0,181,162,154,172,165
2025-02-26 15:14:58.195,-360.0,31.0,881.0,-6.0,-1.0,-2.0,183,163,158,174,168
2025-02-26 15:14:58.199,-354.0,24.0,876.0,-7.0,-2.0,-2.0,183,162,156,174,165
2025-02-26 15:14:58.204,-361.0,36.0,875.0,-8.0,-2.0,-2.0,182,161,155,172,165
2025-02-26 15:14:58.207,-358.0,31.0,875.0,-9.0,-3.0,-2.0,184,166,160,176,168
2025-02-26 15:14:58.214,-356.0,34.0,866.0,-10.0,-4.0,-2.0,185,164,158,176,168
2025-02-26 15:14:58.220,-355.0,41.0,863.0,-11.0,-5.0,-2.0,181,160,155,171,163
2025-02-26 15:14:58.224,-357.0,29.0,865.0,-12.0,-6.0,-2.0,182,162,156,172,165
2025-02-26 15:14:58.228,-353.0,39.0,858.0,-13.0,-7.0,-2.0,184,165,160,175,168
2025-02-26 15:14:58.236,-353.0,46.0,860.0,-15.0,-9.0,-3.0,182,163,161,174,167
2025-02-26 15:14:58.241,-365.0,86.0,845.0,-16.0,-10.0,-3.0,180,159,154,168,163
2025-02-26 15:14:58.245,-367.0,101.0,839.0,-21.0,-12.0,-4.0,183,161,161,172,164
2025-02-26 15:14:58.249,-380.0,121.0,830.0,-27.0,-14.0,-5.0,184,165,159,176,168
2025-02-26 15:14:58.256,-396.0,157.0,815.0,-34.0,-17.0,-8.0,183,163,156,174,167
2025-02-26 15:14:58.261,-396.0,186.0,796.0,-38.0,-21.0,-10.0,183,162,157,174,166
2025-02-26 15:14:58.265,-405.0,221.0,785.0,-46.0,-22.0,-15.0,181,161,154,170,163
2025-02-26 15:14:58.273,-403.0,221.0,783.0,-57.0,-25.0,-19.0,180,159,152,171,163
2025-02-26 15:14:58.277,-430.0,226.0,749.0,-61.0,-28.0,-19.0,181,160,157,172,163
2025-02-26 15:14:58.281,-462.0,275.0,598.0,-74.0,-38.0,-25.0,187,167,161,177,170
2025-02-26 15:14:58.289,-468.0,215.0,709.0,-82.0,-42.0,-29.0,185,163,157,176,167
2025-02-26 15:14:58.294,-452.0,146.0,691.0,-85.0,-46.0,-33.0,184,162,157,174,165
2025-02-26 15:14:58.298,-534.0,203.0,646.0,-83.0,-49.0,-36.0,179,155,150,167,161
2025-02-26 15:14:58.306,-558.0,106.0,631.0,-95.0,-58.0,-37.0,182,155,157,170,163
2025-02-26 15:14:58.309,-561.0,108.0,557.0,-102.0,-68.0,-40.0,185,157,150,176,166
2025-02-26 15:14:58.314,-542.0,106.0,600.0,-95.0,-80.0,-42.0,183,153,151,175,163
2025-02-26 15:14:58.322,-564.0,46.0,604.0,-94.0,-96.0,-43.0,184,152,147,173,162
2025-02-26 15:14:58.326,-601.0,-20.0,692.0,-96.0,-109.0,-48.0,181,147,143,172,159
2025-02-26 15:14:58.330,-605.0,-2.0,630.0,-92.0,-118.0,-53.0,180,141,135,169,154
2025-02-26 15:14:58.338,-655.0,91.0,636.0,-94.0,-140.0,-56.0,180,138,133,171,150
2025-02-26 15:14:58.342,-623.0,76.0,689.0,-95.0,-164.0,-62.0,189,141,142,177,155
2025-02-26 15:14:58.347,-599.0,-9.0,713.0,-107.0,-191.0,-65.0,185,132,133,171,148
2025-02-26 15:14:58.355,-551.0,-14.0,777.0,-111.0,-215.0,-68.0,186,127,132,167,143
2025-02-26 15:14:58.359,-421.0,-42.0,905.0,-118.0,-236.0,-70.0,181,122,126,164,138
2025-02-26 15:14:58.363,-232.0,-154.0,978.0,-136.0,-255.0,-69.0,181,115,123,160,134
2025-02-26 15:14:58.372,-140.0,-234.0,1290.0,-159.0,-258.0,-65.0,181,114,121,158,129
2025-02-26 15:14:58.375,41.0,-312.0,1434.0,-179.0,-256.0,-62.0,179,111,117,150,123
2025-02-26 15:14:58.376,233.0,-550.0,1742.0,-197.0,-246.0,-56.0,182,112,121,153,124
2025-02-26 15:14:58.387,429.0,-713.0,2129.0,-222.0,-208.0,-38.0,182,106,114,144,118
2025-02-26 15:14:58.392,544.0,-818.0,2410.0,-234.0,-164.0,-18.0,185,109,117,146,121
2025-02-26 15:14:58.399,680.0,-961.0,2504.0,-249.0,-106.0,3.0,185,107,115,144,120
2025-02-26 15:14:58.401,715.0,-1100.0,2655.0,-245.0,-45.0,23.0,187,110,115,145,120
2025-02-26 15:14:58.409,723.0,-1204.0,2656.0,-243.0,3.0,36.0,185,106,112,135,118
2025-02-26 15:14:58.416,737.0,-1216.0,2891.0,-242.0,59.0,52.0,181,98,108,129,109
2025-02-26 15:14:58.421,787.0,-1230.0,2688.0,-232.0,78.0,59.0,180,99,105,123,110
2025-02-26 15:14:58.425,705.0,-1120.0,2611.0,-237.0,119.0,61.0,180,100,103,131,110
2025-02-26 15:14:58.433,629.0,-1199.0,2520.0,-233.0,151.0,65.0,184,105,108,136,118
2025-02-26 15:14:58.437,538.0,-1089.0,2426.0,-237.0,186.0,73.0,184,105,107,135,114
2025-02-26 15:14:58.441,321.0,-861.0,2321.0,-249.0,215.0,83.0,190,111,113,140,118
2025-02-26 15:14:58.449,530.0,-987.0,2215.0,-256.0,247.0,91.0,184,105,107,135,115
2025-02-26 15:14:58.454,450.0,-789.0,2120.0,-276.0,274.0,97.0,182,101,103,129,110
2025-02-26 15:14:58.457,369.0,-891.0,1999.0,-291.0,287.0,97.0,180,99,99,127,106
2025-02-26 15:14:58.465,422.0,-890.0,1861.0,-306.0,315.0,98.0,179,99,101,129,107
2025-02-26 15:14:58.469,315.0,-814.0,1672.0,-318.0,333.0,105.0,187,105,107,134,112
2025-02-26 15:14:58.474,249.0,-927.0,1510.0,-335.0,341.0,120.0,184,103,106,132,110
2025-02-26 15:14:58.482,333.0,-908.0,1315.0,-340.0,344.0,131.0,184,106,106,131,110
2025-02-26 15:14:58.486,297.0,-843.0,1191.0,-338.0,349.0,144.0,182,103,104,131,111
2025-02-26 15:14:58.490,296.0,-822.0,990.0,-317.0,346.0,150.0,181,103,106,131,112
2025-02-26 15:14:58.498,97.0,-675.0,654.0,-287.0,344.0,141.0,175,99,100,128,107
2025-02-26 15:14:58.502,79.0,-564.0,483.0,-290.0,339.0,140.0,179,105,106,132,111
2025-02-26 15:14:58.507,-180.0,-742.0,175.0,-292.0,298.0,140.0,176,106,107,136,113
2025-02-26 15:14:58.514,-171.0,-775.0,140.0,-302.0,269.0,159.0,175,104,104,132,111
2025-02-26 15:14:58.517,-261.0,-505.0,80.0,-301.0,254.0,171.0,173,104,104,134,111
2025-02-26 15:14:58.523,-421.0,-638.0,185.0,-296.0,235.0,191.0,170,104,104,134,109
2025-02-26 15:14:58.529,-228.0,-614.0,255.0,-296.0,223.0,202.0,172,103,104,132,109
2025-02-26 15:14:58.535,-281.0,-429.0,83.0,-290.0,221.0,213.0,165,100,100,128,103
2025-02-26 15:14:58.539,-237.0,-377.0,-6.0,-283.0,215.0,215.0,165,99,99,127,103
2025-02-26 15:14:58.548,-218.0,-245.0,-76.0,-271.0,214.0,218.0,168,105,104,132,107
2025-02-26 15:14:58.552,-221.0,-180.0,-33.0,-258.0,207.0,223.0,169,104,104,131,109
2025-02-26 15:14:58.556,-275.0,-152.0,0.0,-243.0,206.0,223.0,166,106,104,133,109
2025-02-26 15:14:58.564,-231.0,-111.0,9.0,-231.0,194.0,227.0,168,105,106,134,110
2025-02-26 15:14:58.568,-268.0,-52.0,72.0,-216.0,190.0,230.0,163,102,101,130,107
2025-02-26 15:14:58.572,-231.0,-44.0,83.0,-198.0,188.0,232.0,160,99,100,127,103
2025-02-26 15:14:58.580,-259.0,-30.0,124.0,-186.0,187.0,233.0,160,100,99,127,101
2025-02-26 15:14:58.584,-257.0,59.0,113.0,-173.0,186.0,232.0,168,106,107,136,110
2025-02-26 15:14:58.589,-286.0,133.0,33.0,-163.0,182.0,227.0,163,104,107,134,109
2025-02-26 15:14:58.595,-408.0,181.0,-44.0,-158.0,174.0,216.0,160,102,101,131,106
2025-02-26 15:14:58.600,-462.0,198.0,-134.0,-138.0,167.0,203.0,157,99,101,129,104
2025-02-26 15:14:58.605,-382.0,258.0,-161.0,-117.0,157.0,185.0,156,99,100,129,104
2025-02-26 15:14:58.613,-454.0,283.0,-166.0,-93.0,146.0,176.0,155,96,98,125,102
2025-02-26 15:14:58.618,-417.0,323.0,-107.0,-79.0,141.0,163.0,158,103,104,133,108
2025-02-26 15:14:58.620,-366.0,411.0,-133.0,-64.0,138.0,150.0,162,107,108,135,112
2025-02-26 15:14:58.629,-367.0,420.0,-78.0,-53.0,131.0,139.0,160,106,104,132,109
2025-02-26 15:14:58.632,-298.0,515.0,-35.0,-44.0,129.0,135.0,156,100,101,129,103
2025-02-26 15:14:58.638,-256.0,596.0,1.0,-36.0,129.0,134.0,157,102,104,132,108
2025-02-26 15:14:58.646,-248.0,649.0,-33.0,-27.0,125.0,134.0,161,108,109,137,111
2025-02-26 15:14:58.650,-313.0,745.0,-93.0,-16.0,118.0,132.0,169,117,116,145,119
2025-02-26 15:14:58.654,-362.0,876.0,-210.0,-3.0,111.0,131.0,168,114,114,142,118
2025-02-26 15:14:58.659,-476.0,980.0,-380.0,7.0,98.0,124.0,163,114,114,141,116
2025-02-26 15:14:58.666,-541.0,1153.0,-570.0,35.0,88.0,116.0,182,132,134,160,137
2025-02-26 15:14:58.670,-642.0,1215.0,-745.0,70.0,65.0,110.0,180,131,132,159,134
2025-02-26 15:14:58.674,-650.0,1471.0,-915.0,100.0,48.0,100.0,187,139,139,166,143
2025-02-26 15:14:58.683,-720.0,1682.0,-1002.0,141.0,23.0,81.0,194,146,146,172,148
2025-02-26 15:14:58.687,-792.0,2100.0,-1177.0,163.0,2.0,48.0,189,141,141,167,144
2025-02-26 15:14:58.691,-860.0,2516.0,-1325.0,203.0,-20.0,-7.0,183,138,138,164,140
2025-02-26 15:14:58.699,-867.0,2991.0,-1515.0,240.0,-31.0,-89.0,184,135,133,161,139
2025-02-26 15:14:58.703,-1003.0,3435.0,-1653.0,267.0,-55.0,-187.0,184,137,135,164,138
2025-02-26 15:14:58.711,-1115.0,3865.0,-1787.0,268.0,-94.0,-295.0,178,133,132,159,135
2025-02-26 15:14:58.716,-1169.0,4075.0,-1907.0,238.0,-142.0,-405.0,177,130,128,156,132
2025-02-26 15:14:58.723,-1169.0,4134.0,-1982.0,187.0,-208.0,-514.0,182,137,134,162,137
2025-02-26 15:14:58.728,-1126.0,4043.0,-2039.0,121.0,-283.0,-620.0,176,133,131,158,132
2025-02-26 15:14:58.732,-877.0,3890.0,-2071.0,49.0,-370.0,-728.0,176,130,127,155,130
2025-02-26 15:14:58.740,-541.0,3754.0,-2069.0,-31.0,-459.0,-784.0,177,131,129,156,130
2025-02-26 15:14:58.745,-89.0,3653.0,-2113.0,-112.0,-557.0,-896.0,176,132,129,155,127
2025-02-26 15:14:58.752,487.0,3392.0,-2233.0,-194.0,-667.0,-1007.0,174,128,127,156,129
2025-02-26 15:14:58.756,1621.0,3111.0,-2256.0,-275.0,-782.0,-1107.0,175,127,124,152,130
2025-02-26 15:14:58.764,3227.0,2257.0,-2177.0,-347.0,-875.0,-1183.0,180,131,129,157,133
2025-02-26 15:14:58.769,5179.0,659.0,-1598.0,-376.0,-928.0,-1208.0,186,138,136,166,143
2025-02-26 15:14:58.777,7178.0,-1764.0,62.0,-324.0,-877.0,-1142.0,185,137,135,163,142
2025-02-26 15:14:58.781,8262.0,-3008.0,1468.0,-278.0,-703.0,-969.0,185,134,133,161,141
2025-02-26 15:14:58.785,7774.0,-5917.0,2234.0,-218.0,-443.0,-735.0,186,137,136,165,143
2025-02-26 15:14:58.793,7824.0,-7240.0,2053.0,-196.0,-146.0,-452.0,183,136,133,163,142
2025-02-26 15:14:58.797,6923.0,-7942.0,1172.0,-154.0,99.0,-223.0,177,129,126,156,135
2025-02-26 15:14:58.805,5497.0,-7447.0,163.0,-34.0,223.0,-90.0,183,133,132,160,138
2025-02-26 15:14:58.810,3689.0,-6389.0,-554.0,119.0,254.0,-34.0,183,134,133,161,140
2025-02-26 15:14:58.814,2356.0,-5653.0,-875.0,258.0,213.0,-16.0,177,127,129,155,129
2025-02-26 15:14:58.822,1845.0,-5022.0,-1123.0,335.0,164.0,8.0,180,128,130,158,131
2025-02-26 15:14:58.826,1533.0,-4276.0,-766.0,351.0,66.0,73.0,173,122,121,148,123
2025-02-26 15:14:58.831,1258.0,-3636.0,-322.0,330.0,45.0,130.0,169,115,116,144,118
2025-02-26 15:14:58.838,1220.0,-3029.0,-58.0,263.0,34.0,179.0,160,104,105,133,109
2025-02-26 15:14:58.843,1096.0,-2389.0,202.0,168.0,-10.0,220.0,160,106,106,134,107
2025-02-26 15:14:58.847,733.0,-2168.0,399.0,73.0,-21.0,232.0,158,103,103,131,108
2025-02-26 15:14:58.855,765.0,-1867.0,614.0,16.0,-56.0,232.0,162,107,107,136,112
2025-02-26 15:14:58.859,823.0,-1838.0,628.0,-34.0,-53.0,229.0,161,107,106,136,112
2025-02-26 15:14:58.862,838.0,-1908.0,729.0,-54.0,-42.0,223.0,162,108,106,137,116
2025-02-26 15:14:58.871,712.0,-2321.0,887.0,-57.0,-25.0,222.0,162,106,104,136,113
2025-02-26 15:14:58.875,802.0,-2361.0,802.0,-41.0,-12.0,234.0,155,102,100,130,108
2025-02-26 15:14:58.880,495.0,-2138.0,716.0,-23.0,8.0,246.0,156,102,100,131,109
2025-02-26 15:14:58.893,427.0,-2099.0,710.0,3.0,29.0,254.0,160,108,106,137,114
2025-02-26 15:14:58.896,305.0,-1812.0,627.0,29.0,48.0,271.0,159,107,103,134,113
2025-02-26 15:14:58.898,163.0,-1725.0,689.0,37.0,62.0,282.0,154,104,102,134,110
2025-02-26 15:14:58.903,215.0,-1499.0,583.0,36.0,74.0,287.0,155,107,103,133,114
2025-02-26 15:14:58.907,262.0,-1310.0,572.0,40.0,84.0,300.0,151,102,100,133,109
2025-02-26 15:14:58.912,197.0,-1127.0,485.0,29.0,94.0,307.0,155,107,104,135,114
2025-02-26 15:14:58.917,73.0,-911.0,470.0,13.0,98.0,317.0,156,105,103,134,114
2025-02-26 15:14:58.924,-97.0,-663.0,392.0,0.0,102.0,326.0,158,107,106,135,115
2025-02-26 15:14:58.928,-38.0,-368.0,496.0,-33.0,99.0,330.0,151,102,100,131,108
2025-02-26 15:14:58.932,94.0,-364.0,442.0,-76.0,101.0,333.0,149,99,95,128,106
2025-02-26 15:14:58.941,-50.0,-282.0,330.0,-113.0,103.0,328.0,157,106,104,135,113
2025-02-26 15:14:58.944,-168.0,-239.0,313.0,-130.0,88.0,315.0,158,108,105,132,115
2025-02-26 15:14:58.949,-252.0,-276.0,269.0,-136.0,75.0,311.0,156,106,104,134,112
2025-02-26 15:14:58.957,-371.0,-181.0,225.0,-151.0,62.0,310.0,152,103,99,129,109
2025-02-26 15:14:58.959,-307.0,-417.0,166.0,-136.0,33.0,298.0,151,101,100,130,107
2025-02-26 15:14:58.965,-161.0,-267.0,254.0,-126.0,28.0,290.0,153,100,99,130,108
2025-02-26 15:14:58.971,-127.0,-242.0,357.0,-126.0,40.0,283.0,157,106,104,135,113
2025-02-26 15:14:58.977,-95.0,-341.0,370.0,-129.0,54.0,285.0,156,105,104,134,112
2025-02-26 15:14:58.982,-31.0,-279.0,394.0,-128.0,81.0,285.0,158,106,104,135,113
2025-02-26 15:14:58.989,111.0,-237.0,484.0,-138.0,98.0,285.0,152,101,99,130,108
2025-02-26 15:14:58.993,-18.0,-212.0,359.0,-129.0,114.0,278.0,152,99,98,130,107
2025-02-26 15:14:58.999,-134.0,-65.0,174.0,-108.0,120.0,275.0,157,103,103,134,112
2025-02-26 15:14:59.005,-188.0,-145.0,280.0,-80.0,121.0,268.0,157,106,105,136,114
2025-02-26 15:14:59.010,-209.0,-56.0,227.0,-54.0,117.0,257.0,157,105,102,136,113
2025-02-26 15:14:59.013,-395.0,89.0,180.0,-45.0,110.0,246.0,155,102,101,133,109
2025-02-26 15:14:59.019,-257.0,53.0,120.0,-19.0,111.0,232.0,152,99,97,130,107
2025-02-26 15:14:59.025,-312.0,57.0,150.0,-3.0,110.0,231.0,150,99,99,130,107
2025-02-26 15:14:59.031,-244.0,55.0,136.0,18.0,106.0,231.0,156,105,104,135,113
2025-02-26 15:14:59.035,-266.0,66.0,153.0,31.0,107.0,232.0,152,101,102,132,110
2025-02-26 15:14:59.039,-230.0,113.0,157.0,54.0,106.0,237.0,153,101,99,130,109
2025-02-26 15:14:59.047,-228.0,149.0,150.0,75.0,103.0,237.0,151,98,97,127,107
2025-02-26 15:14:59.051,-228.0,284.0,139.0,83.0,103.0,238.0,157,105,104,135,113
2025-02-26 15:14:59.055,-301.0,440.0,85.0,89.0,98.0,240.0,155,104,100,132,111
2025-02-26 15:14:59.063,-308.0,511.0,78.0,103.0,96.0,238.0,158,105,103,135,113
2025-02-26 15:14:59.068,-332.0,508.0,24.0,119.0,93.0,238.0,153,99,99,130,109
2025-02-26 15:14:59.072,-446.0,601.0,8.0,141.0,85.0,243.0,160,105,105,136,115
2025-02-26 15:14:59.076,-461.0,760.0,-64.0,154.0,73.0,245.0,164,110,110,141,120
2025-02-26 15:14:59.084,-587.0,907.0,-159.0,184.0,66.0,241.0,167,114,112,143,121
2025-02-26 15:14:59.088,-647.0,1135.0,-276.0,220.0,48.0,227.0,162,109,110,140,119
2025-02-26 15:14:59.090,-840.0,1206.0,-306.0,265.0,31.0,215.0,164,110,110,139,119
2025-02-26 15:14:59.100,-855.0,1445.0,-403.0,313.0,10.0,180.0,167,114,115,145,124
2025-02-26 15:14:59.104,-890.0,1783.0,-437.0,351.0,-3.0,125.0,172,114,114,145,125
2025-02-26 15:14:59.109,-877.0,2215.0,-490.0,366.0,-8.0,57.0,167,114,115,145,123
2025-02-26 15:14:59.117,-853.0,2650.0,-507.0,382.0,-4.0,-25.0,162,108,109,139,119
2025-02-26 15:14:59.121,-845.0,3061.0,-539.0,374.0,-2.0,-117.0,162,106,107,140,118
2025-02-26 15:14:59.125,-908.0,3370.0,-538.0,348.0,-4.0,-213.0,163,109,110,140,119
2025-02-26 15:14:59.133,-990.0,3475.0,-548.0,304.0,-22.0,-260.0,161,106,108,138,116
2025-02-26 15:14:59.138,-872.0,3531.0,-571.0,238.0,-43.0,-350.0,169,115,114,144,122
2025-02-26 15:14:59.145,-951.0,3729.0,-676.0,167.0,-76.0,-438.0,169,116,117,147,125
2025-02-26 15:14:59.149,-799.0,3366.0,-733.0,80.0,-119.0,-525.0,176,124,124,155,132
2025-02-26 15:14:59.154,-721.0,3196.0,-855.0,0.0,-173.0,-616.0,173,121,122,152,127
2025-02-26 15:14:59.161,-611.0,2894.0,-924.0,-40.0,-240.0,-709.0,182,130,130,160,138
2025-02-26 15:14:59.165,-571.0,2434.0,-1032.0,-102.0,-323.0,-803.0,183,130,129,158,137
2025-02-26 15:14:59.174,-152.0,1997.0,-1096.0,-148.0,-419.0,-894.0,176,123,121,151,129
2025-02-26 15:14:59.176,738.0,1551.0,-1119.0,-180.0,-507.0,-977.0,174,121,119,150,130
2025-02-26 15:14:59.182,1754.0,879.0,-1082.0,-202.0,-587.0,-1044.0,180,125,124,153,134
2025-02-26 15:14:59.188,2991.0,160.0,-909.0,-194.0,-661.0,-1077.0,178,122,121,151,134
2025-02-26 15:14:59.195,4179.0,-1107.0,-457.0,-169.0,-687.0,-1054.0,175,119,120,147,133
2025-02-26 15:14:59.201,5768.0,-2404.0,887.0,-104.0,-602.0,-936.0,184,127,124,156,141
2025-02-26 15:14:59.207,6102.0,-3849.0,2265.0,-66.0,-413.0,-761.0,182,121,120,150,135
2025-02-26 15:14:59.215,5752.0,-5030.0,2630.0,-110.0,-204.0,-539.0,176,119,118,148,132
2025-02-26 15:14:59.219,5553.0,-6337.0,2192.0,-141.0,-27.0,-318.0,179,119,118,148,132
2025-02-26 15:14:59.224,4886.0,-6721.0,1402.0,-167.0,97.0,-139.0,168,118,119,140,131
2025-02-26 15:14:59.231,3923.0,-6252.0,784.0,-174.0,135.0,-21.0,176,118,116,146,129
2025-02-26 15:14:59.236,3353.0,-5476.0,261.0,-138.0,166.0,45.0,175,115,113,143,122
2025-02-26 15:14:59.244,2250.0,-4670.0,-158.0,-54.0,143.0,71.0,180,120,120,147,126
2025-02-26 15:14:59.247,1552.0,-4405.0,-271.0,33.0,85.0,86.0,175,112,114,140,117
2025-02-26 15:14:59.250,1041.0,-3592.0,-624.0,48.0,5.0,109.0,182,116,119,147,124
2025-02-26 15:14:59.257,1266.0,-3586.0,-348.0,73.0,16.0,138.0,182,116,119,148,124
2025-02-26 15:14:59.264,1105.0,-3048.0,-188.0,66.0,16.0,171.0,181,116,118,146,123
2025-02-26 15:14:59.268,887.0,-2849.0,-101.0,48.0,42.0,209.0,176,112,112,143,123
2025-02-26 15:14:59.274,777.0,-2487.0,-156.0,41.0,32.0,224.0,172,103,109,138,124
2025-02-26 15:14:59.279,641.0,-2175.0,-164.0,20.0,27.0,230.0,174,110,109,138,120
2025-02-26 15:14:59.285,504.0,-1898.0,-49.0,28.0,17.0,231.0,180,117,112,146,129
2025-02-26 15:14:59.290,420.0,-1820.0,-1.0,32.0,10.0,228.0,179,115,113,144,127
2025-02-26 15:14:59.297,343.0,-1574.0,-51.0,37.0,0.0,221.0,175,111,111,142,123
2025-02-26 15:14:59.299,387.0,-1449.0,93.0,25.0,10.0,207.0,172,108,107,138,119
2025-02-26 15:14:59.305,270.0,-1561.0,174.0,15.0,13.0,202.0,180,118,115,144,127
2025-02-26 15:14:59.310,225.0,-1488.0,199.0,16.0,7.0,202.0,177,114,113,145,126
2025-02-26 15:14:59.317,69.0,-1515.0,225.0,13.0,7.0,207.0,174,111,110,142,124
2025-02-26 15:14:59.322,107.0,-1451.0,240.0,14.0,1.0,215.0,177,115,114,145,127
2025-02-26 15:14:59.326,21.0,-1500.0,264.0,9.0,2.0,221.0,172,110,107,138,121
2025-02-26 15:14:59.330,94.0,-1305.0,240.0,3.0,0.0,231.0,176,113,113,145,129
2025-02-26 15:14:59.338,140.0,-1439.0,294.0,5.0,7.0,241.0,173,113,114,143,127
2025-02-26 15:14:59.340,111.0,-1175.0,341.0,7.0,8.0,252.0,172,112,111,142,124
2025-02-26 15:14:59.346,92.0,-1165.0,352.0,5.0,14.0,259.0,177,117,114,144,128
2025-02-26 15:14:59.352,84.0,-905.0,385.0,-15.0,18.0,261.0,174,115,114,146,126
2025-02-26 15:14:59.358,-31.0,-735.0,391.0,-24.0,26.0,264.0,174,111,109,141,129
2025-02-26 15:14:59.363,62.0,-684.0,406.0,-49.0,31.0,263.0,174,111,113,141,122
2025-02-26 15:14:59.368,96.0,-583.0,428.0,-66.0,38.0,264.0,175,111,110,141,122
2025-02-26 15:14:59.374,259.0,-826.0,479.0,-74.0,41.0,267.0,177,114,114,144,126
2025-02-26 15:14:59.377,52.0,-589.0,426.0,-80.0,38.0,272.0,175,112,111,144,126
2025-02-26 15:14:59.382,44.0,-620.0,371.0,-77.0,36.0,273.0,173,110,112,142,125
2025-02-26 15:14:59.387,-11.0,-554.0,379.0,-86.0,40.0,275.0,175,111,112,143,123
2025-02-26 15:14:59.393,2.0,-463.0,366.0,-94.0,49.0,276.0,178,113,114,144,126
2025-02-26 15:14:59.399,-125.0,-461.0,335.0,-97.0,49.0,278.0,178,114,115,147,127
2025-02-26 15:14:59.404,-52.0,-420.0,340.0,-100.0,51.0,278.0,178,113,115,145,127
2025-02-26 15:14:59.411,-125.0,-484.0,294.0,-93.0,52.0,281.0,171,109,110,140,122
2025-02-26 15:14:59.416,-100.0,-427.0,286.0,-87.0,51.0,281.0,173,108,109,140,123
2025-02-26 15:14:59.417,-69.0,-426.0,246.0,-72.0,56.0,282.0,182,118,119,149,134
2025-02-26 15:14:59.424,-115.0,-490.0,265.0,-59.0,57.0,283.0,179,115,118,147,129
2025-02-26 15:14:59.433,-65.0,-395.0,265.0,-55.0,65.0,286.0,176,112,112,144,126
2025-02-26 15:14:59.436,-160.0,-334.0,235.0,-54.0,70.0,285.0,170,108,109,140,123
2025-02-26 15:14:59.445,-70.0,-221.0,228.0,-47.0,70.0,284.0,175,110,111,143,125
2025-02-26 15:14:59.449,-183.0,-192.0,156.0,-32.0,67.0,282.0,177,110,112,141,126
2025-02-26 15:14:59.453,-246.0,-163.0,145.0,-26.0,66.0,278.0,177,113,114,147,129
2025-02-26 15:14:59.461,-233.0,-121.0,124.0,-10.0,64.0,270.0,179,114,116,146,127
2025-02-26 15:14:59.465,-228.0,-143.0,170.0,-7.0,66.0,270.0,180,118,116,147,124
2025-02-26 15:14:59.468,-210.0,-138.0,148.0,8.0,66.0,266.0,174,109,111,143,125
2025-02-26 15:14:59.474,-224.0,-175.0,201.0,23.0,73.0,266.0,173,105,108,141,122
2025-02-26 15:14:59.480,-206.0,-118.0,189.0,35.0,83.0,267.0,180,113,117,149,130
2025-02-26 15:14:59.486,-237.0,-110.0,184.0,50.0,91.0,264.0,182,116,117,148,132
2025-02-26 15:14:59.489,-300.0,-19.0,208.0,57.0,96.0,261.0,179,110,114,145,128
2025-02-26 15:14:59.498,-328.0,33.0,104.0,89.0,95.0,257.0,177,106,110,141,124
2025-02-26 15:14:59.501,-416.0,58.0,56.0,116.0,92.0,254.0,187,118,124,152,137
2025-02-26 15:14:59.505,-518.0,138.0,32.0,143.0,84.0,251.0,183,115,119,151,133
2025-02-26 15:14:59.510,-591.0,285.0,7.0,158.0,74.0,245.0,183,112,117,148,131
2025-02-26 15:14:59.518,-630.0,451.0,-44.0,186.0,68.0,239.0,177,107,113,142,125
2025-02-26 15:14:59.523,-691.0,578.0,-45.0,215.0,59.0,236.0,187,117,122,153,135
2025-02-26 15:14:59.526,-776.0,758.0,-67.0,248.0,49.0,226.0,185,114,119,148,132
2025-02-26 15:14:59.534,-792.0,1069.0,42.0,266.0,47.0,198.0,184,112,116,147,130
2025-02-26 15:14:59.538,-763.0,1691.0,70.0,311.0,52.0,160.0,180,109,114,144,127
2025-02-26 15:14:59.544,-728.0,1984.0,-50.0,363.0,55.0,101.0,184,109,114,145,129
2025-02-26 15:14:59.547,-728.0,2333.0,-165.0,394.0,70.0,66.0,185,111,117,145,129
2025-02-26 15:14:59.553,-891.0,2722.0,-324.0,423.0,79.0,-11.0,186,117,117,148,127
2025-02-26 15:14:59.559,-911.0,3242.0,-624.0,428.0,85.0,-107.0,188,114,117,145,129
2025-02-26 15:14:59.565,-1149.0,3541.0,-863.0,426.0,79.0,-213.0,189,111,116,147,128
2025-02-26 15:14:59.572,-1203.0,3587.0,-1108.0,397.0,49.0,-319.0,188,111,114,144,123
2025-02-26 15:14:59.576,-1374.0,3765.0,-1392.0,344.0,0.0,-419.0,187,108,112,139,118
2025-02-26 15:14:59.584,-1445.0,3839.0,-1638.0,274.0,-35.0,-518.0,187,111,111,141,120
2025-02-26 15:14:59.588,-1706.0,3874.0,-1833.0,194.0,-137.0,-624.0,187,109,107,138,115
2025-02-26 15:14:59.596,-1711.0,3695.0,-1973.0,109.0,-254.0,-720.0,187,105,107,137,114
2025-02-26 15:14:59.600,-1447.0,3387.0,-2348.0,47.0,-410.0,-783.0,187,105,106,137,112
2025-02-26 15:14:59.604,-888.0,2913.0,-2538.0,-16.0,-555.0,-826.0,191,107,106,137,112
2025-02-26 15:14:59.612,-22.0,2189.0,-2395.0,-85.0,-686.0,-858.0,190,106,105,135,112
2025-02-26 15:14:59.616,932.0,1540.0,-2241.0,-158.0,-833.0,-860.0,191,102,101,133,111
2025-02-26 15:14:59.625,2302.0,470.0,-2146.0,-219.0,-975.0,-803.0,197,109,107,137,114
2025-02-26 15:14:59.629,3834.0,-781.0,-1653.0,-258.0,-1061.0,-758.0,196,108,105,139,115
2025-02-26 15:14:59.637,5070.0,-2427.0,-713.0,-269.0,-1038.0,-615.0,194,105,103,134,113
2025-02-26 15:14:59.641,5924.0,-4148.0,256.0,-324.0,-942.0,-521.0,201,108,107,139,118
2025-02-26 15:14:59.648,6049.0,-5051.0,1286.0,-343.0,-791.0,-433.0,199,105,105,139,117
2025-02-26 15:14:59.654,5985.0,-5698.0,2065.0,-299.0,-596.0,-314.0,198,105,104,135,116
2025-02-26 15:14:59.657,5694.0,-6081.0,2284.0,-223.0,-369.0,-224.0,198,105,104,136,115
2025-02-26 15:14:59.666,5443.0,-5674.0,2181.0,-146.0,-155.0,-165.0,199,107,105,139,118
2025-02-26 15:14:59.668,4719.0,-5433.0,2002.0,-36.0,28.0,-122.0,209,113,113,144,125
2025-02-26 15:14:59.678,3807.0,-4653.0,1548.0,46.0,169.0,-97.0,205,111,112,141,122
2025-02-26 15:14:59.680,2843.0,-4789.0,1198.0,123.0,229.0,-51.0,210,115,117,144,123
2025-02-26 15:14:59.687,2035.0,-4418.0,578.0,198.0,153.0,-3.0,227,135,135,162,139
2025-02-26 15:14:59.694,1372.0,-2970.0,350.0,140.0,184.0,36.0,219,123,123,153,131
2025-02-26 15:14:59.699,770.0,-2602.0,-3.0,145.0,154.0,65.0,216,123,121,152,129
2025-02-26 15:14:59.703,457.0,-2162.0,49.0,94.0,100.0,88.0,211,117,116,145,122
2025-02-26 15:14:59.711,370.0,-2187.0,387.0,-25.0,136.0,123.0,209,115,115,143,122
2025-02-26 15:14:59.714,374.0,-1908.0,324.0,-102.0,72.0,139.0,208,113,112,148,122
2025-02-26 15:14:59.719,-63.0,-1779.0,30.0,-119.0,54.0,153.0,212,120,116,148,128
2025-02-26 15:14:59.727,408.0,-2000.0,291.0,-133.0,60.0,161.0,212,119,121,153,130
2025-02-26 15:14:59.731,419.0,-1951.0,268.0,-112.0,53.0,163.0,208,116,114,145,125
2025-02-26 15:14:59.734,371.0,-1980.0,460.0,-84.0,79.0,160.0,208,112,111,142,123
2025-02-26 15:14:59.744,574.0,-1871.0,296.0,-73.0,89.0,167.0,212,117,115,147,127
2025-02-26 15:14:59.748,501.0,-1795.0,426.0,-58.0,98.0,164.0,206,112,111,143,120
2025-02-26 15:14:59.752,57.0,-2061.0,175.0,-17.0,82.0,184.0,211,118,116,149,128
2025-02-26 15:14:59.756,240.0,-2008.0,234.0,-21.0,75.0,202.0,212,118,116,150,127
2025-02-26 15:14:59.764,199.0,-1868.0,48.0,-14.0,72.0,225.0,212,118,116,148,127
2025-02-26 15:14:59.768,-75.0,-1673.0,4.0,-32.0,61.0,251.0,207,113,110,145,124
2025-02-26 15:14:59.772,137.0,-1652.0,-36.0,-40.0,71.0,263.0,204,112,108,142,119
2025-02-26 15:14:59.780,108.0,-1397.0,14.0,-60.0,76.0,277.0,212,120,115,149,128
2025-02-26 15:14:59.784,76.0,-1166.0,34.0,-97.0,85.0,277.0,214,118,118,150,129
2025-02-26 15:14:59.789,212.0,-710.0,169.0,-104.0,107.0,248.0,211,118,115,148,128
2025-02-26 15:14:59.797,139.0,-298.0,153.0,-97.0,102.0,215.0,205,112,110,142,121
2025-02-26 15:14:59.800,206.0,-315.0,336.0,-85.0,90.0,191.0,207,112,109,144,121
2025-02-26 15:14:59.805,52.0,-517.0,292.0,-58.0,79.0,182.0,211,119,115,149,129
2025-02-26 15:14:59.809,117.0,-595.0,300.0,-43.0,69.0,181.0,211,118,114,147,127
2025-02-26 15:14:59.817,-10.0,-627.0,311.0,-29.0,71.0,183.0,209,116,113,145,124
2025-02-26 15:14:59.821,33.0,-670.0,253.0,-30.0,77.0,186.0,211,119,114,147,125
2025-02-26 15:14:59.826,-26.0,-676.0,359.0,-34.0,79.0,185.0,204,111,109,142,120
2025-02-26 15:14:59.834,-39.0,-578.0,338.0,-46.0,96.0,188.0,210,117,114,147,126
2025-02-26 15:14:59.836,-14.0,-597.0,253.0,-50.0,113.0,198.0,209,117,114,146,126
2025-02-26 15:14:59.842,-37.0,-630.0,311.0,-62.0,123.0,219.0,211,118,117,148,127
2025-02-26 15:14:59.850,-69.0,-608.0,221.0,-79.0,135.0,238.0,206,114,111,142,121
2025-02-26 15:14:59.854,-41.0,-655.0,203.0,-76.0,134.0,255.0,207,112,109,141,120
2025-02-26 15:14:59.859,-170.0,-620.0,59.0,-62.0,120.0,259.0,209,117,115,147,126
2025-02-26 15:14:59.866,-270.0,-456.0,150.0,-38.0,100.0,254.0,214,119,117,148,127
2025-02-26 15:14:59.870,-269.0,-77.0,219.0,7.0,82.0,218.0,210,118,116,148,127
2025-02-26 15:14:59.875,-142.0,39.0,254.0,30.0,94.0,178.0,204,111,109,141,120
2025-02-26 15:14:59.879,-136.0,-7.0,336.0,47.0,106.0,157.0,205,112,110,143,119
2025-02-26 15:14:59.887,-160.0,20.0,393.0,48.0,133.0,156.0,211,116,117,148,126
2025-02-26 15:14:59.891,-169.0,-60.0,390.0,33.0,153.0,165.0,209,116,115,147,124
2025-02-26 15:14:59.896,-216.0,-31.0,396.0,26.0,170.0,180.0,208,115,115,145,122
2025-02-26 15:14:59.903,-197.0,-6.0,359.0,27.0,172.0,185.0,209,115,118,149,124
2025-02-26 15:14:59.904,-214.0,-1.0,306.0,37.0,175.0,184.0,203,113,110,143,120
2025-02-26 15:14:59.911,-289.0,50.0,331.0,44.0,175.0,182.0,208,117,116,145,126
2025-02-26 15:14:59.916,-350.0,57.0,270.0,48.0,173.0,179.0,208,115,114,144,123
2025-02-26 15:14:59.922,-385.0,2.0,146.0,46.0,174.0,183.0,207,115,115,145,123
2025-02-26 15:14:59.928,-445.0,-12.0,-7.0,39.0,170.0,187.0,203,111,111,143,120
2025-02-26 15:14:59.932,-568.0,39.0,-70.0,35.0,153.0,190.0,207,116,115,147,126
2025-02-26 15:14:59.936,-743.0,122.0,-144.0,38.0,121.0,189.0,207,117,115,146,126
2025-02-26 15:14:59.944,-834.0,189.0,-215.0,43.0,81.0,186.0,207,113,115,146,124
2025-02-26 15:14:59.948,-860.0,335.0,-202.0,52.0,62.0,178.0,202,110,110,142,120
2025-02-26 15:14:59.953,-889.0,394.0,-102.0,92.0,32.0,167.0,195,110,108,144,119
2025-02-26 15:14:59.960,-802.0,607.0,2.0,136.0,17.0,136.0,207,116,115,148,126
2025-02-26 15:14:59.963,-643.0,883.0,161.0,161.0,23.0,94.0,207,109,113,147,127
2025-02-26 15:14:59.969,-614.0,951.0,262.0,200.0,36.0,56.0,205,111,111,142,121
2025-02-26 15:14:59.974,-594.0,1020.0,267.0,222.0,63.0,42.0,202,109,108,143,119
2025-02-26 15:14:59.981,-703.0,1032.0,150.0,236.0,78.0,29.0,209,115,116,146,125
2025-02-26 15:14:59.985,-827.0,1139.0,81.0,257.0,90.0,16.0,208,116,116,147,127
2025-02-26 15:14:59.988,-896.0,1343.0,-69.0,270.0,90.0,-6.0,206,113,115,146,124
2025-02-26 15:14:59.997,-916.0,1573.0,-255.0,294.0,90.0,-45.0,201,108,109,139,118
2025-02-26 15:15:00.001,-974.0,1973.0,-513.0,312.0,86.0,-74.0,206,115,117,148,125
2025-02-26 15:15:00.007,-1220.0,2135.0,-847.0,318.0,62.0,-149.0,207,117,115,147,124
2025-02-26 15:15:00.014,-1533.0,2575.0,-1256.0,304.0,21.0,-235.0,205,115,113,146,125
2025-02-26 15:15:00.018,-1652.0,2599.0,-1295.0,278.0,-58.0,-328.0,204,115,114,146,125
2025-02-26 15:15:00.026,-1907.0,3032.0,-1625.0,214.0,-149.0,-433.0,205,117,117,147,128
2025-02-26 15:15:00.031,-1852.0,2853.0,-1822.0,153.0,-251.0,-548.0,203,116,115,148,126
2025-02-26 15:15:00.038,-1780.0,2978.0,-2082.0,91.0,-389.0,-658.0,201,114,114,145,123
2025-02-26 15:15:00.043,-1042.0,2617.0,-2227.0,23.0,-515.0,-752.0,208,121,119,151,129
2025-02-26 15:15:00.047,-302.0,2568.0,-2432.0,-54.0,-675.0,-814.0,204,118,114,147,125
2025-02-26 15:15:00.055,920.0,2136.0,-2479.0,-162.0,-840.0,-828.0,204,114,111,146,124
2025-02-26 15:15:00.060,2290.0,1448.0,-2437.0,-293.0,-983.0,-787.0,205,115,113,147,125
2025-02-26 15:15:00.067,3633.0,691.0,-2132.0,-442.0,-1080.0,-699.0,209,119,115,145,126
2025-02-26 15:15:00.072,5026.0,-746.0,-1362.0,-605.0,-1053.0,-592.0,207,115,111,147,125
2025-02-26 15:15:00.080,6362.0,-2680.0,-263.0,-754.0,-912.0,-475.0,207,114,113,146,126
2025-02-26 15:15:00.084,6101.0,-5507.0,777.0,-803.0,-713.0,-332.0,209,118,117,148,128
2025-02-26 15:15:00.086,6506.0,-6573.0,1441.0,-753.0,-474.0,-205.0,208,117,114,146,127
2025-02-26 15:15:00.096,6617.0,-6957.0,1559.0,-573.0,-181.0,-138.0,207,114,112,145,118
2025-02-26 15:15:00.100,6050.0,-7316.0,1280.0,-292.0,67.0,-83.0,209,117,113,146,126
2025-02-26 15:15:00.108,4808.0,-7554.0,702.0,-142.0,253.0,-38.0,211,120,114,148,129
2025-02-26 15:15:00.110,3518.0,-7209.0,-351.0,166.0,346.0,7.0,222,131,130,158,138
2025-02-26 15:15:00.115,2276.0,-5336.0,-1203.0,360.0,276.0,42.0,214,116,120,149,130
2025-02-26 15:15:00.125,1737.0,-5024.0,-1520.0,443.0,320.0,90.0,198,105,104,134,110
2025-02-26 15:15:00.129,1214.0,-3336.0,-2492.0,384.0,286.0,133.0,194,100,99,131,109
2025-02-26 15:15:00.134,322.0,-1803.0,-1126.0,282.0,251.0,152.0,201,104,104,133,115
2025-02-26 15:15:00.141,439.0,-1642.0,-1497.0,98.0,249.0,186.0,199,105,104,133,114
2025-02-26 15:15:00.145,120.0,-897.0,-990.0,-2.0,133.0,189.0,205,114,111,145,123
2025-02-26 15:15:00.153,81.0,-867.0,-995.0,-89.0,58.0,201.0,204,111,108,140,121
2025-02-26 15:15:00.158,60.0,-1171.0,-799.0,-95.0,20.0,179.0,200,110,105,138,117
2025-02-26 15:15:00.160,155.0,-2056.0,-847.0,-113.0,-3.0,180.0,199,109,105,137,118
2025-02-26 15:15:00.168,389.0,-1974.0,-234.0,-123.0,-29.0,193.0,196,104,102,133,113
2025-02-26 15:15:00.174,200.0,-1949.0,-194.0,-117.0,12.0,204.0,195,104,100,133,113
2025-02-26 15:15:00.177,348.0,-2006.0,113.0,-55.0,14.0,222.0,197,104,103,136,114
2025-02-26 15:15:00.185,318.0,-2237.0,190.0,-31.0,22.0,237.0,201,110,109,142,119
2025-02-26 15:15:00.189,244.0,-2272.0,205.0,-2.0,15.0,268.0,194,103,101,135,114
2025-02-26 15:15:00.195,336.0,-1916.0,206.0,15.0,21.0,291.0,193,100,100,134,110
2025-02-26 15:15:00.198,415.0,-1950.0,199.0,29.0,30.0,311.0,190,97,95,127,107
2025-02-26 15:15:00.206,319.0,-1726.0,135.0,38.0,50.0,316.0,189,97,97,128,106
2025-02-26 15:15:00.211,500.0,-1206.0,145.0,35.0,65.0,320.0,193,102,100,133,111
