timestamp,ax,ay,az,gx,gy,gz,flex1,flex2,flex3,flex4,flex5,emg1,emg2,emg3
2025-02-19 16:23:48.754,-338.0,-712.0,663.0,1.0,-2.0,0.0,156,114,122,137,130,602,358,500
2025-02-19 16:23:48.758,-338.0,-712.0,663.0,1.0,-2.0,0.0,156,114,122,137,130,602,358,500
2025-02-19 16:23:48.763,-306.0,-1130.0,634.0,-36.0,-41.0,-32.0,157,118,124,139,136,499,411,798
2025-02-19 16:23:48.767,-224.0,-1107.0,599.0,-13.0,-38.0,-18.0,158,120,125,140,138,578,407,813
2025-02-19 16:23:48.769,-193.0,-1067.0,619.0,14.0,-37.0,2.0,156,119,123,138,137,660,402,823
2025-02-19 16:23:48.770,-200.0,-1015.0,642.0,45.0,-33.0,20.0,158,122,125,142,140,745,505,823
2025-02-19 16:23:48.770,-147.0,-983.0,602.0,68.0,-32.0,38.0,156,121,123,141,139,800,683,704
2025-02-19 16:23:48.776,-201.0,-924.0,603.0,96.0,-28.0,54.0,158,124,125,143,142,827,729,633
2025-02-19 16:23:48.776,-213.0,-927.0,701.0,135.0,-31.0,71.0,155,123,123,141,140,822,706,601
2025-02-19 16:23:48.783,-159.0,-783.0,704.0,157.0,-25.0,91.0,156,125,124,142,142,814,484,511
2025-02-19 16:23:48.785,-123.0,-624.0,802.0,138.0,-15.0,98.0,157,127,125,143,144,805,44,434
2025-02-19 16:23:48.794,-180.0,-532.0,784.0,131.0,-5.0,93.0,155,126,123,142,143,801,25,381
2025-02-19 16:23:48.812,-230.0,-493.0,805.0,127.0,7.0,85.0,157,128,124,143,146,797,26,370
2025-02-19 16:23:48.836,-273.0,-375.0,822.0,122.0,13.0,74.0,155,126,123,141,141,794,24,495
2025-02-19 16:23:48.853,-335.0,-328.0,771.0,101.0,16.0,67.0,158,128,125,143,146,810,27,826
2025-02-19 16:23:48.873,-343.0,-278.0,893.0,79.0,18.0,57.0,156,126,123,141,144,813,23,1010
2025-02-19 16:23:48.893,-371.0,-257.0,802.0,62.0,10.0,44.0,157,128,124,143,146,800,26,1010
2025-02-19 16:23:48.910,-348.0,-240.0,804.0,48.0,8.0,32.0,158,128,124,144,146,769,45,975
2025-02-19 16:23:48.930,-364.0,-221.0,772.0,38.0,4.0,23.0,156,126,123,142,144,708,114,846
2025-02-19 16:23:48.951,-353.0,-226.0,818.0,32.0,2.0,18.0,158,129,125,144,146,615,155,726
2025-02-19 16:23:48.964,-359.0,-226.0,848.0,26.0,2.0,12.0,155,125,122,142,143,473,163,614
2025-02-19 16:23:48.988,-350.0,-229.0,840.0,18.0,3.0,5.0,158,131,124,144,146,378,323,508
2025-02-19 16:23:49.005,-305.0,-278.0,863.0,25.0,-9.0,-2.0,154,125,122,141,144,322,506,410
2025-02-19 16:23:49.025,-333.0,-254.0,828.0,11.0,-3.0,-9.0,157,128,125,143,146,296,685,320
2025-02-19 16:23:49.045,-309.0,-276.0,881.0,5.0,-2.0,-10.0,157,128,125,144,146,260,1016,256
2025-02-19 16:23:49.062,-306.0,-305.0,916.0,4.0,1.0,-7.0,155,127,122,142,144,226,1017,227
2025-02-19 16:23:49.083,-296.0,-286.0,903.0,3.0,5.0,-7.0,157,128,128,143,146,212,998,175
2025-02-19 16:23:49.102,-333.0,-298.0,903.0,1.0,7.0,-8.0,155,127,123,142,144,190,968,157
2025-02-19 16:23:49.120,-339.0,-312.0,893.0,2.0,9.0,-7.0,157,128,125,144,146,165,982,167
2025-02-19 16:23:49.140,-337.0,-300.0,874.0,1.0,9.0,-4.0,155,125,122,141,144,135,995,173
2025-02-19 16:23:49.157,-349.0,-287.0,870.0,-1.0,9.0,-1.0,156,128,125,144,146,108,1017,184
2025-02-19 16:23:49.177,-347.0,-288.0,857.0,-2.0,7.0,0.0,157,128,125,144,146,77,1018,196
2025-02-19 16:23:49.195,-348.0,-280.0,848.0,-1.0,5.0,-1.0,155,131,123,143,144,47,1018,210
2025-02-19 16:23:49.212,-346.0,-287.0,845.0,-1.0,4.0,-2.0,157,128,123,144,146,30,1017,185
2025-02-19 16:23:49.234,-365.0,-307.0,834.0,3.0,2.0,-3.0,155,124,123,142,145,33,1017,132
2025-02-19 16:23:49.254,-376.0,-320.0,844.0,6.0,-2.0,0.0,156,127,124,144,145,201,725,92
2025-02-19 16:23:49.271,-371.0,-315.0,861.0,8.0,-5.0,2.0,155,126,123,142,144,279,590,36
2025-02-19 16:23:49.291,-365.0,-298.0,885.0,6.0,-5.0,4.0,155,126,123,143,146,328,396,42
2025-02-19 16:23:49.311,-369.0,-296.0,890.0,5.0,-3.0,3.0,156,128,124,144,146,365,187,71
2025-02-19 16:23:49.329,-373.0,-307.0,896.0,6.0,-3.0,2.0,156,125,123,142,144,393,89,184
2025-02-19 16:23:49.347,-360.0,-304.0,903.0,7.0,-3.0,2.0,157,128,125,145,147,422,36,361
2025-02-19 16:23:49.365,-358.0,-319.0,909.0,9.0,-3.0,2.0,155,126,123,142,144,444,45,539
2025-02-19 16:23:49.385,-353.0,-312.0,919.0,11.0,-1.0,5.0,157,127,124,144,147,467,88,692
2025-02-19 16:23:49.406,-361.0,-287.0,907.0,11.0,1.0,5.0,157,127,123,143,145,485,166,786
2025-02-19 16:23:49.422,-371.0,-275.0,886.0,10.0,1.0,4.0,155,125,122,142,144,499,279,836
2025-02-19 16:23:49.443,-389.0,-268.0,873.0,11.0,0.0,4.0,158,130,127,145,146,509,273,865
2025-02-19 16:23:49.463,-397.0,-277.0,877.0,12.0,-2.0,3.0,156,126,123,143,145,512,239,878
2025-02-19 16:23:49.480,-398.0,-273.0,896.0,11.0,-4.0,2.0,158,128,125,144,146,517,237,868
2025-02-19 16:23:49.499,-396.0,-281.0,925.0,9.0,-4.0,2.0,156,126,123,142,144,517,319,829
2025-02-19 16:23:49.520,-378.0,-282.0,944.0,7.0,-3.0,1.0,157,128,124,144,146,518,439,785
2025-02-19 16:23:49.536,-375.0,-283.0,959.0,7.0,-1.0,0.0,158,128,125,145,146,515,610,743
2025-02-19 16:23:49.558,-367.0,-269.0,956.0,5.0,1.0,0.0,156,126,124,142,144,511,727,697
2025-02-19 16:23:49.578,-373.0,-260.0,946.0,1.0,2.0,0.0,157,128,125,144,147,513,813,652
2025-02-19 16:23:49.595,-368.0,-265.0,936.0,-3.0,3.0,-1.0,156,126,123,142,144,510,794,595
2025-02-19 16:23:49.614,-371.0,-270.0,923.0,-3.0,2.0,-1.0,157,127,124,144,146,511,777,544
2025-02-19 16:23:49.634,-367.0,-269.0,916.0,0.0,1.0,-1.0,156,126,123,143,145,508,790,496
2025-02-19 16:23:49.649,-363.0,-265.0,920.0,2.0,1.0,0.0,156,127,124,143,145,511,814,463
2025-02-19 16:23:49.669,-368.0,-269.0,921.0,2.0,0.0,2.0,157,127,125,144,146,516,843,438
2025-02-19 16:23:49.685,-373.0,-258.0,926.0,2.0,-1.0,3.0,155,125,123,143,143,521,857,415
2025-02-19 16:23:49.709,-381.0,-255.0,919.0,3.0,0.0,4.0,157,128,125,145,146,531,751,402
2025-02-19 16:23:49.729,-392.0,-243.0,908.0,6.0,-1.0,4.0,155,125,122,143,144,536,506,408
2025-02-19 16:23:49.746,-400.0,-224.0,920.0,8.0,-1.0,3.0,157,127,125,144,146,547,316,391
2025-02-19 16:23:49.766,-396.0,-214.0,922.0,7.0,-1.0,0.0,154,125,122,142,144,553,234,371
2025-02-19 16:23:49.787,-396.0,-223.0,931.0,5.0,-1.0,-1.0,156,127,124,143,145,562,246,354
2025-02-19 16:23:49.802,-382.0,-221.0,932.0,2.0,0.0,-1.0,157,127,125,143,147,570,224,314
2025-02-19 16:23:49.820,-382.0,-229.0,926.0,1.0,2.0,-2.0,155,126,123,142,145,575,216,283
2025-02-19 16:23:49.844,-385.0,-230.0,907.0,2.0,2.0,-3.0,157,127,124,144,146,584,204,248
2025-02-19 16:23:49.861,-379.0,-228.0,899.0,2.0,2.0,-4.0,154,125,122,142,144,585,171,230
2025-02-19 16:23:49.880,-386.0,-232.0,902.0,2.0,1.0,-5.0,157,127,125,145,146,582,135,242
2025-02-19 16:23:49.897,-382.0,-243.0,911.0,2.0,-2.0,-5.0,154,124,122,142,143,573,98,267
2025-02-19 16:23:49.918,-374.0,-255.0,926.0,1.0,-4.0,-4.0,156,127,124,144,146,569,71,311
2025-02-19 16:23:49.938,-371.0,-257.0,936.0,0.0,-3.0,-3.0,157,127,124,145,146,561,59,348
2025-02-19 16:23:49.955,-368.0,-243.0,936.0,2.0,0.0,-2.0,155,125,123,143,145,548,75,370
2025-02-19 16:23:49.975,-379.0,-233.0,926.0,2.0,1.0,-1.0,157,127,125,144,147,539,133,382
2025-02-19 16:23:49.995,-386.0,-232.0,920.0,2.0,1.0,-3.0,155,125,122,142,144,527,246,375
2025-02-19 16:23:50.013,-401.0,-225.0,916.0,2.0,-1.0,-3.0,157,127,125,144,146,521,430,369
2025-02-19 16:23:50.032,-394.0,-240.0,931.0,1.0,-2.0,-3.0,154,125,122,142,144,512,628,363
2025-02-19 16:23:50.050,-382.0,-241.0,931.0,0.0,0.0,-3.0,157,128,124,144,146,510,813,372
2025-02-19 16:23:50.067,-384.0,-242.0,934.0,1.0,1.0,-3.0,157,127,125,149,146,506,927,398
2025-02-19 16:23:50.091,-388.0,-247.0,923.0,1.0,0.0,-2.0,155,126,122,143,145,504,957,420
2025-02-19 16:23:50.105,-392.0,-249.0,916.0,2.0,0.0,-1.0,157,128,124,144,147,508,983,441
2025-02-19 16:23:50.126,-391.0,-255.0,921.0,2.0,-1.0,0.0,155,125,123,142,144,511,1003,445
2025-02-19 16:23:50.147,-381.0,-261.0,935.0,4.0,-1.0,0.0,158,127,125,145,147,519,1017,444
2025-02-19 16:23:50.164,-372.0,-263.0,936.0,4.0,1.0,2.0,155,125,123,143,144,521,1017,431
2025-02-19 16:23:50.183,-377.0,-248.0,931.0,2.0,3.0,2.0,157,127,125,144,146,528,1017,422
2025-02-19 16:23:50.201,-385.0,-239.0,918.0,2.0,2.0,2.0,158,127,123,145,147,533,1017,425
2025-02-19 16:23:50.221,-391.0,-230.0,911.0,3.0,2.0,1.0,156,125,123,143,145,536,1015,434
2025-02-19 16:23:50.242,-382.0,-243.0,913.0,3.0,2.0,1.0,157,129,125,145,147,542,944,449
2025-02-19 16:23:50.261,-389.0,-242.0,920.0,4.0,0.0,1.0,155,126,123,143,145,544,865,462
2025-02-19 16:23:50.278,-382.0,-230.0,930.0,1.0,1.0,1.0,157,127,124,144,146,548,786,483
2025-02-19 16:23:50.298,-390.0,-233.0,925.0,-2.0,1.0,1.0,157,127,124,143,145,548,688,501
2025-02-19 16:23:50.318,-390.0,-232.0,917.0,-2.0,0.0,1.0,156,126,124,144,145,549,596,516
2025-02-19 16:23:50.336,-394.0,-229.0,921.0,0.0,0.0,1.0,158,126,125,145,146,548,525,527
2025-02-19 16:23:50.356,-393.0,-220.0,919.0,0.0,-1.0,0.0,155,125,122,142,145,543,472,528
2025-02-19 16:23:50.373,-386.0,-224.0,913.0,-1.0,-1.0,0.0,157,127,125,144,146,541,453,527
2025-02-19 16:23:50.393,-383.0,-222.0,912.0,-1.0,-1.0,-1.0,156,126,123,143,145,533,463,518
2025-02-19 16:23:50.413,-384.0,-230.0,920.0,0.0,-3.0,-1.0,157,127,124,144,146,528,498,509
2025-02-19 16:23:50.430,-381.0,-228.0,919.0,-2.0,-2.0,0.0,158,127,124,144,147,523,554,500
2025-02-19 16:23:50.450,-385.0,-230.0,920.0,-1.0,-3.0,0.0,155,125,123,143,145,516,629,488
2025-02-19 16:23:50.470,-393.0,-231.0,918.0,-1.0,-4.0,0.0,157,127,125,145,146,515,794,479
2025-02-19 16:23:50.486,-394.0,-234.0,924.0,-1.0,-4.0,0.0,155,125,123,142,144,510,962,466
2025-02-19 16:23:50.507,-388.0,-239.0,935.0,0.0,-4.0,1.0,157,128,125,144,146,512,1017,461
2025-02-19 16:23:50.528,-381.0,-231.0,947.0,1.0,-3.0,2.0,156,126,123,143,145,510,1018,454
2025-02-19 16:23:50.545,-386.0,-221.0,944.0,0.0,-2.0,1.0,157,127,124,145,146,512,1018,455
2025-02-19 16:23:50.565,-386.0,-220.0,940.0,0.0,-1.0,1.0,157,128,125,145,147,515,1018,454
2025-02-19 16:23:50.583,-385.0,-221.0,934.0,0.0,-1.0,1.0,156,125,123,143,145,516,1017,453
2025-02-19 16:23:50.603,-393.0,-210.0,922.0,0.0,-2.0,0.0,157,127,125,145,147,520,982,457
2025-02-19 16:23:50.622,-401.0,-221.0,930.0,0.0,-2.0,0.0,155,125,123,143,144,517,889,460
2025-02-19 16:23:50.638,-388.0,-226.0,936.0,0.0,-2.0,0.0,157,127,125,145,147,519,821,472
2025-02-19 16:23:50.659,-385.0,-220.0,942.0,1.0,-2.0,0.0,155,125,122,142,144,514,735,482
2025-02-19 16:23:50.680,-389.0,-217.0,946.0,1.0,-1.0,0.0,156,127,124,144,146,513,644,496
2025-02-19 16:23:50.696,-389.0,-214.0,940.0,0.0,-1.0,0.0,157,127,125,145,147,511,536,512
2025-02-19 16:23:50.716,-384.0,-217.0,945.0,-1.0,-1.0,-1.0,155,126,123,142,145,505,425,527
2025-02-19 16:23:50.736,-378.0,-216.0,944.0,-1.0,1.0,-1.0,157,127,124,144,146,502,332,543
2025-02-19 16:23:50.754,-387.0,-226.0,927.0,-1.0,1.0,-1.0,155,126,122,142,145,496,271,546
2025-02-19 16:23:50.774,-385.0,-225.0,928.0,0.0,0.0,-1.0,157,129,126,145,146,493,230,551
2025-02-19 16:23:50.791,-379.0,-217.0,927.0,-1.0,0.0,-1.0,154,126,124,143,144,485,200,554
2025-02-19 16:23:50.811,-379.0,-225.0,929.0,-1.0,0.0,0.0,157,126,124,144,146,483,204,545
2025-02-19 16:23:50.831,-377.0,-221.0,936.0,1.0,0.0,0.0,157,128,124,144,147,480,212,541
2025-02-19 16:23:50.848,-380.0,-210.0,936.0,1.0,1.0,0.0,155,125,121,142,144,474,235,530
2025-02-19 16:23:50.868,-387.0,-210.0,929.0,1.0,0.0,-1.0,157,127,124,145,146,473,271,524
2025-02-19 16:23:50.888,-391.0,-208.0,935.0,1.0,0.0,-1.0,155,125,122,142,145,469,306,511
2025-02-19 16:23:50.906,-387.0,-207.0,934.0,-1.0,1.0,-1.0,157,127,125,145,147,469,340,504
2025-02-19 16:23:50.925,-387.0,-208.0,930.0,-1.0,0.0,-1.0,155,124,122,142,144,463,355,492
2025-02-19 16:23:50.946,-389.0,-204.0,930.0,0.0,0.0,0.0,157,127,124,144,147,463,381,487
2025-02-19 16:23:50.963,-386.0,-204.0,933.0,-1.0,1.0,0.0,157,127,124,145,147,460,382,486
2025-02-19 16:23:50.983,-387.0,-197.0,927.0,0.0,2.0,-1.0,156,126,123,143,145,455,367,482
2025-02-19 16:23:51.000,-389.0,-197.0,924.0,0.0,1.0,-2.0,157,127,125,145,146,453,315,485
2025-02-19 16:23:51.020,-397.0,-206.0,913.0,-1.0,1.0,-3.0,155,125,122,142,145,448,246,486
2025-02-19 16:23:51.039,-396.0,-207.0,910.0,-1.0,-2.0,-4.0,157,127,124,145,146,450,207,490
2025-02-19 16:23:51.057,-390.0,-220.0,913.0,-2.0,-3.0,-3.0,154,125,122,141,144,447,185,489
2025-02-19 16:23:51.075,-389.0,-225.0,916.0,-2.0,-3.0,-3.0,157,126,124,144,146,451,143,494
2025-02-19 16:23:51.097,-384.0,-232.0,925.0,-1.0,-3.0,-2.0,156,127,124,144,148,453,53,496
2025-02-19 16:23:51.115,-379.0,-229.0,932.0,0.0,-3.0,-1.0,155,125,123,143,145,454,25,493
2025-02-19 16:23:51.134,-375.0,-215.0,927.0,0.0,-2.0,-1.0,157,127,125,145,147,460,27,493
2025-02-19 16:23:51.155,-376.0,-215.0,928.0,-1.0,-3.0,0.0,155,125,122,143,145,463,72,487
2025-02-19 16:23:51.172,-376.0,-214.0,925.0,-1.0,-3.0,0.0,157,127,124,145,146,471,127,487
2025-02-19 16:23:51.189,-383.0,-218.0,922.0,-1.0,-3.0,0.0,155,125,123,139,145,477,194,480
2025-02-19 16:23:51.209,-390.0,-203.0,930.0,0.0,-3.0,0.0,157,126,124,144,146,486,273,476
2025-02-19 16:23:51.230,-387.0,-197.0,932.0,0.0,-3.0,-1.0,157,127,124,145,147,494,352,472
2025-02-19 16:23:51.249,-393.0,-202.0,934.0,0.0,-2.0,-1.0,155,125,123,143,145,499,423,464
2025-02-19 16:23:51.266,-389.0,-202.0,937.0,0.0,-2.0,-1.0,157,127,124,144,147,506,502,458
2025-02-19 16:23:51.286,-390.0,-199.0,931.0,-1.0,-2.0,-2.0,155,126,123,143,145,509,596,445
2025-02-19 16:23:51.305,-397.0,-215.0,939.0,-2.0,-3.0,-2.0,157,127,124,144,146,515,686,435
2025-02-19 16:23:51.323,-398.0,-230.0,941.0,1.0,-3.0,-2.0,156,127,123,143,146,517,739,433
2025-02-19 16:23:51.344,-385.0,-229.0,938.0,2.0,-2.0,-1.0,155,125,123,143,145,517,778,431
2025-02-19 16:23:51.364,-378.0,-234.0,961.0,2.0,-2.0,-1.0,157,127,124,145,146,516,828,430
2025-02-19 16:23:51.380,-383.0,-233.0,957.0,0.0,-2.0,0.0,155,125,123,142,145,510,864,427
2025-02-19 16:23:51.400,-382.0,-242.0,960.0,1.0,-1.0,1.0,157,127,125,145,147,507,888,431
2025-02-19 16:23:51.421,-367.0,-233.0,956.0,1.0,0.0,2.0,156,126,123,143,145,499,849,434
2025-02-19 16:23:51.437,-374.0,-225.0,955.0,2.0,2.0,2.0,160,127,124,144,146,493,803,445
2025-02-19 16:23:51.457,-391.0,-216.0,935.0,2.0,3.0,3.0,157,127,126,145,147,484,759,459
2025-02-19 16:23:51.475,-393.0,-209.0,924.0,1.0,3.0,3.0,155,125,123,143,144,472,715,473
2025-02-19 16:23:51.495,-396.0,-209.0,908.0,0.0,2.0,2.0,157,127,124,145,147,464,696,487
2025-02-19 16:23:51.515,-394.0,-209.0,904.0,0.0,1.0,1.0,155,125,123,142,144,452,706,485
2025-02-19 16:23:51.533,-386.0,-209.0,904.0,1.0,0.0,0.0,157,127,125,145,147,447,741,490
2025-02-19 16:23:51.545,-379.0,-208.0,911.0,1.0,0.0,0.0,155,125,122,142,145,440,789,486
2025-02-19 16:23:51.572,-375.0,-207.0,915.0,-1.0,-1.0,0.0,156,126,124,144,146,440,897,469
2025-02-19 16:23:51.589,-372.0,-204.0,922.0,-1.0,-2.0,0.0,157,127,124,145,147,442,959,442
2025-02-19 16:23:51.610,-371.0,-210.0,923.0,-2.0,-1.0,0.0,155,125,123,143,145,443,989,418
2025-02-19 16:23:51.626,-371.0,-215.0,924.0,-1.0,-1.0,1.0,157,127,125,144,146,450,1017,414
2025-02-19 16:23:51.647,-378.0,-212.0,922.0,0.0,-2.0,2.0,155,125,122,143,145,455,1017,412
2025-02-19 16:23:51.666,-379.0,-201.0,928.0,1.0,-3.0,2.0,157,128,124,145,147,466,1017,416
2025-02-19 16:23:51.687,-382.0,-196.0,936.0,2.0,-3.0,2.0,155,125,122,143,144,472,1017,422
2025-02-19 16:23:51.704,-392.0,-190.0,941.0,2.0,-2.0,3.0,157,126,124,145,146,482,970,425
2025-02-19 16:23:51.724,-402.0,-177.0,944.0,3.0,-1.0,2.0,157,128,124,144,147,491,887,432
2025-02-19 16:23:51.741,-405.0,-175.0,936.0,2.0,-2.0,1.0,155,126,123,143,145,493,775,440
2025-02-19 16:23:51.761,-404.0,-174.0,942.0,1.0,-1.0,0.0,157,128,124,145,147,496,659,457
2025-02-19 16:23:51.781,-394.0,-181.0,941.0,1.0,0.0,-1.0,155,125,122,143,144,492,539,477
2025-02-19 16:23:51.796,-396.0,-183.0,938.0,0.0,0.0,-2.0,157,127,125,145,147,491,437,506
2025-02-19 16:23:51.818,-392.0,-195.0,930.0,0.0,0.0,-2.0,155,124,122,142,144,483,346,523
2025-02-19 16:23:51.838,-383.0,-194.0,924.0,-1.0,0.0,-2.0,157,127,124,144,146,481,274,541
2025-02-19 16:23:51.856,-381.0,-203.0,922.0,-1.0,0.0,-2.0,157,127,124,144,146,477,223,551
2025-02-19 16:23:51.876,-382.0,-210.0,926.0,-1.0,-1.0,-1.0,156,125,123,143,145,472,189,554
2025-02-19 16:23:51.896,-381.0,-207.0,929.0,-1.0,-1.0,0.0,157,127,124,144,147,471,186,558
2025-02-19 16:23:51.913,-376.0,-212.0,940.0,0.0,-1.0,1.0,155,125,122,142,144,465,207,552
2025-02-19 16:23:51.933,-377.0,-203.0,939.0,0.0,0.0,1.0,157,127,124,144,147,466,247,550
2025-02-19 16:23:51.950,-380.0,-196.0,939.0,1.0,0.0,2.0,155,125,121,141,145,463,293,542
2025-02-19 16:23:51.970,-386.0,-197.0,931.0,1.0,-1.0,2.0,157,127,124,144,143,467,350,539
2025-02-19 16:23:51.990,-386.0,-197.0,940.0,2.0,-1.0,2.0,157,127,124,145,147,467,407,532
2025-02-19 16:23:52.007,-390.0,-193.0,939.0,2.0,0.0,3.0,156,125,123,143,145,468,438,526
2025-02-19 16:23:52.028,-388.0,-189.0,938.0,3.0,0.0,4.0,158,126,125,145,147,475,464,523
2025-02-19 16:23:52.047,-393.0,-170.0,937.0,2.0,1.0,4.0,155,125,122,143,145,477,473,518
2025-02-19 16:23:52.063,-397.0,-169.0,940.0,1.0,1.0,2.0,157,127,124,145,146,485,471,519
2025-02-19 16:23:52.084,-396.0,-171.0,928.0,0.0,1.0,2.0,155,125,122,142,145,488,449,517
2025-02-19 16:23:52.105,-399.0,-179.0,929.0,0.0,1.0,1.0,157,127,124,145,146,496,416,521
2025-02-19 16:23:52.121,-398.0,-176.0,926.0,0.0,0.0,0.0,157,128,125,148,147,503,365,525
2025-02-19 16:23:52.141,-396.0,-180.0,936.0,-1.0,0.0,0.0,155,125,122,143,145,505,295,531
2025-02-19 16:23:52.160,-378.0,-189.0,937.0,1.0,2.0,0.0,157,127,124,145,147,510,217,542
2025-02-19 16:23:52.178,-385.0,-176.0,919.0,2.0,3.0,1.0,155,125,122,143,143,510,137,548
2025-02-19 16:23:52.199,-385.0,-161.0,915.0,0.0,0.0,0.0,157,126,124,143,147,513,59,560
2025-02-19 16:23:52.216,-389.0,-181.0,916.0,-2.0,-2.0,-1.0,156,126,125,143,146,513,24,570
2025-02-19 16:23:52.236,-382.0,-180.0,921.0,-1.0,-3.0,-1.0,157,126,124,136,146,512,25,573
2025-02-19 16:23:52.256,-385.0,-179.0,927.0,0.0,-2.0,-1.0,157,127,124,145,146,513,31,568
2025-02-19 16:23:52.274,-393.0,-187.0,921.0,1.0,-3.0,-1.0,156,125,123,143,145,511,64,559
2025-02-19 16:23:52.293,-398.0,-173.0,935.0,1.0,-5.0,0.0,158,126,123,145,147,514,118,545
2025-02-19 16:23:52.314,-388.0,-169.0,947.0,0.0,-5.0,-1.0,156,124,122,145,146,512,192,526
2025-02-19 16:23:52.329,-396.0,-175.0,940.0,-1.0,-4.0,-1.0,157,127,123,144,146,511,280,507
2025-02-19 16:23:52.351,-393.0,-179.0,957.0,0.0,-3.0,0.0,157,127,124,145,147,510,389,492
2025-02-19 16:23:52.364,-393.0,-170.0,952.0,0.0,-1.0,0.0,156,125,125,143,145,506,475,480
2025-02-19 16:23:52.388,-391.0,-170.0,951.0,1.0,-1.0,0.0,157,124,124,145,147,509,552,472
2025-02-19 16:23:52.408,-387.0,-157.0,957.0,0.0,0.0,-2.0,155,125,122,143,144,508,602,460
2025-02-19 16:23:52.425,-388.0,-166.0,946.0,-1.0,0.0,-3.0,157,127,124,145,146,512,639,462
2025-02-19 16:23:52.445,-385.0,-173.0,940.0,-2.0,-1.0,-3.0,156,126,123,144,145,512,638,466
2025-02-19 16:23:52.466,-378.0,-175.0,945.0,-2.0,-1.0,-4.0,156,126,124,144,145,513,612,475
2025-02-19 16:23:52.482,-377.0,-190.0,945.0,-3.0,0.0,-4.0,158,127,125,145,147,517,570,485
2025-02-19 16:23:52.502,-387.0,-181.0,936.0,-3.0,0.0,-3.0,155,125,123,143,144,519,506,493
2025-02-19 16:23:52.522,-393.0,-188.0,929.0,-4.0,1.0,-3.0,157,127,125,145,146,527,434,506
2025-02-19 16:23:52.539,-395.0,-192.0,928.0,-3.0,1.0,-3.0,155,125,123,144,145,533,369,512
2025-02-19 16:23:52.559,-396.0,-192.0,919.0,-3.0,-1.0,-3.0,157,128,124,144,149,543,322,518
2025-02-19 16:23:52.579,-398.0,-189.0,920.0,-2.0,-3.0,-3.0,155,125,122,142,145,543,286,516
2025-02-19 16:23:52.596,-395.0,-190.0,917.0,-1.0,-4.0,-2.0,156,126,123,143,145,543,286,515
2025-02-19 16:23:52.617,-386.0,-202.0,929.0,2.0,-6.0,0.0,157,127,124,144,147,541,319,510
2025-02-19 16:23:52.632,-386.0,-192.0,941.0,4.0,-7.0,1.0,155,125,123,143,145,535,380,501
2025-02-19 16:23:52.654,-388.0,-183.0,950.0,4.0,-5.0,2.0,157,128,125,145,147,532,470,497
2025-02-19 16:23:52.674,-396.0,-188.0,946.0,4.0,-5.0,2.0,155,125,122,143,144,523,560,488
2025-02-19 16:23:52.691,-399.0,-176.0,947.0,4.0,-4.0,3.0,157,127,125,145,147,523,663,487
2025-02-19 16:23:52.711,-413.0,-174.0,943.0,3.0,-3.0,2.0,154,124,122,142,144,521,753,480
2025-02-19 16:23:52.732,-412.0,-174.0,937.0,3.0,-2.0,2.0,157,127,124,144,146,525,831,478
2025-02-19 16:23:52.749,-409.0,-169.0,941.0,3.0,-1.0,2.0,158,127,124,145,147,526,892,475
2025-02-19 16:23:52.766,-399.0,-146.0,939.0,0.0,1.0,1.0,155,125,123,143,145,520,938,480
2025-02-19 16:23:52.789,-396.0,-154.0,938.0,-1.0,1.0,-3.0,158,127,125,145,147,517,964,496
2025-02-19 16:23:52.806,-385.0,-157.0,940.0,-3.0,0.0,-5.0,156,125,123,143,145,508,947,505
2025-02-19 16:23:52.826,-360.0,-160.0,954.0,-6.0,0.0,-7.0,158,127,125,145,146,506,883,511
2025-02-19 16:23:52.845,-345.0,-156.0,939.0,-10.0,0.0,-8.0,155,125,122,142,143,499,773,507
2025-02-19 16:23:52.863,-349.0,-190.0,946.0,-12.0,0.0,-9.0,157,127,124,145,146,500,651,510
2025-02-19 16:23:52.880,-339.0,-209.0,932.0,-14.0,-2.0,-8.0,157,127,124,145,146,493,533,502
2025-02-19 16:23:52.898,-343.0,-214.0,938.0,-12.0,-3.0,-5.0,156,126,123,143,145,479,413,480
2025-02-19 16:23:52.921,-362.0,-235.0,939.0,-10.0,-3.0,-2.0,157,127,124,145,147,463,314,463
2025-02-19 16:23:52.933,-383.0,-227.0,912.0,-8.0,-3.0,2.0,155,125,122,143,144,440,223,449
2025-02-19 16:23:52.957,-392.0,-208.0,920.0,-3.0,-4.0,5.0,157,127,124,144,146,421,156,445
2025-02-19 16:23:52.978,-402.0,-184.0,933.0,1.0,-3.0,6.0,154,124,122,142,143,391,147,433
2025-02-19 16:23:52.997,-401.0,-164.0,937.0,1.0,-1.0,6.0,156,125,124,144,146,374,207,444
2025-02-19 16:23:53.014,-388.0,-147.0,952.0,0.0,0.0,5.0,157,127,124,145,145,359,299,464
2025-02-19 16:23:53.035,-374.0,-149.0,963.0,-3.0,2.0,2.0,155,126,122,143,144,350,415,492
2025-02-19 16:23:53.050,-362.0,-158.0,959.0,-6.0,3.0,0.0,157,127,124,145,146,349,535,514
2025-02-19 16:23:53.072,-353.0,-177.0,937.0,-7.0,2.0,-4.0,155,125,122,143,144,347,620,510
2025-02-19 16:23:53.092,-358.0,-200.0,941.0,-8.0,-2.0,-5.0,157,127,124,144,145,350,687,493
2025-02-19 16:23:53.109,-364.0,-204.0,945.0,-10.0,-4.0,-4.0,156,126,123,143,144,352,722,466
2025-02-19 16:23:53.129,-374.0,-222.0,951.0,-10.0,-5.0,-2.0,156,127,124,144,145,357,724,454
2025-02-19 16:23:53.149,-393.0,-218.0,946.0,-8.0,-4.0,1.0,157,127,124,145,146,364,702,451
2025-02-19 16:23:53.165,-397.0,-201.0,946.0,-4.0,-2.0,3.0,155,125,122,143,144,369,624,457
2025-02-19 16:23:53.181,-399.0,-169.0,932.0,0.0,1.0,4.0,157,127,125,145,145,380,500,474
2025-02-19 16:23:53.207,-407.0,-153.0,922.0,-1.0,1.0,2.0,156,126,123,143,144,390,350,493
2025-02-19 16:23:53.224,-397.0,-150.0,928.0,-2.0,-1.0,-1.0,157,126,124,144,145,401,221,514
2025-02-19 16:23:53.244,-366.0,-148.0,936.0,-6.0,-2.0,-4.0,157,126,124,144,144,411,190,532
2025-02-19 16:23:53.264,-375.0,-155.0,945.0,-13.0,-3.0,-8.0,156,126,121,145,144,423,167,544
2025-02-19 16:23:53.281,-380.0,-179.0,967.0,-24.0,-6.0,-11.0,157,127,125,144,145,436,194,557
2025-02-19 16:23:53.298,-386.0,-220.0,972.0,-30.0,-10.0,-12.0,155,125,122,143,143,446,278,567
2025-02-19 16:23:53.321,-378.0,-204.0,1076.0,-43.0,-12.0,-13.0,157,127,124,144,145,456,378,575
2025-02-19 16:23:53.338,-372.0,-154.0,1239.0,-94.0,-12.0,-17.0,156,125,123,143,144,456,428,561
2025-02-19 16:23:53.358,-372.0,-196.0,1314.0,-166.0,-10.0,-31.0,156,126,125,144,143,447,411,522
2025-02-19 16:23:53.376,-388.0,-393.0,1224.0,-214.0,-7.0,-43.0,157,125,125,144,143,428,439,476
2025-02-19 16:23:53.396,-357.0,-568.0,1155.0,-225.0,4.0,-41.0,155,119,122,142,139,397,604,417
2025-02-19 16:23:53.415,-392.0,-696.0,911.0,-208.0,10.0,-24.0,157,116,123,143,138,364,851,281
2025-02-19 16:23:53.430,-291.0,-645.0,931.0,-189.0,17.0,-10.0,155,111,120,140,133,325,1017,262
2025-02-19 16:23:53.452,-337.0,-688.0,730.0,-171.0,27.0,-2.0,157,109,121,141,131,285,1017,304
2025-02-19 16:23:53.472,-311.0,-701.0,631.0,-129.0,39.0,6.0,154,105,118,138,125,231,1017,241
2025-02-19 16:23:53.490,-309.0,-663.0,502.0,-74.0,41.0,15.0,155,105,118,137,125,178,1009,147
2025-02-19 16:23:53.510,-353.0,-655.0,430.0,-19.0,41.0,25.0,156,105,119,139,125,124,1018,93
2025-02-19 16:23:53.527,-379.0,-558.0,350.0,15.0,31.0,32.0,154,104,117,137,124,75,905,76
2025-02-19 16:23:53.547,-400.0,-473.0,416.0,25.0,15.0,31.0,156,106,120,139,127,44,306,26
2025-02-19 16:23:53.567,-414.0,-437.0,451.0,26.0,3.0,25.0,155,107,119,139,128,32,26,27
2025-02-19 16:23:53.584,-425.0,-459.0,515.0,29.0,-4.0,23.0,166,117,130,150,138,37,37,36
2025-02-19 16:23:53.604,-409.0,-476.0,561.0,37.0,-8.0,18.0,190,144,156,175,165,66,83,66
2025-02-19 16:23:53.624,-414.0,-495.0,625.0,42.0,-11.0,14.0,192,147,158,177,167,68,152,67
2025-02-19 16:23:53.642,-409.0,-496.0,696.0,35.0,-11.0,11.0,193,149,159,178,169,69,125,70
2025-02-19 16:23:53.661,-418.0,-529.0,737.0,29.0,-11.0,9.0,187,143,153,171,163,65,77,62
2025-02-19 16:23:53.681,-409.0,-523.0,761.0,25.0,-12.0,8.0,191,148,157,176,168,99,67,211
2025-02-19 16:23:53.699,-417.0,-522.0,811.0,21.0,-9.0,4.0,185,142,151,169,161,163,59,503
2025-02-19 16:23:53.718,-417.0,-529.0,792.0,16.0,-9.0,2.0,188,144,154,172,163,250,63,862
2025-02-19 16:23:53.734,-431.0,-534.0,793.0,13.0,-8.0,1.0,180,138,143,164,156,320,52,1010
2025-02-19 16:23:53.756,-439.0,-546.0,781.0,13.0,-7.0,1.0,184,141,149,168,160,405,58,1010
2025-02-19 16:23:53.776,-431.0,-539.0,778.0,11.0,-9.0,0.0,183,139,148,166,159,507,56,1010
2025-02-19 16:23:53.789,-413.0,-533.0,796.0,7.0,-9.0,-2.0,179,136,144,163,156,617,51,1011
2025-02-19 16:23:53.814,-402.0,-553.0,783.0,4.0,-5.0,-2.0,182,139,147,166,159,718,56,1011
2025-02-19 16:23:53.833,-403.0,-560.0,770.0,7.0,-5.0,0.0,177,141,142,161,155,786,318,1010
2025-02-19 16:23:53.851,-405.0,-543.0,779.0,9.0,-5.0,1.0,182,139,147,166,159,838,639,1010
2025-02-19 16:23:53.870,-389.0,-526.0,796.0,8.0,-3.0,0.0,177,134,142,162,155,858,944,1009
2025-02-19 16:23:53.891,-397.0,-531.0,783.0,7.0,-1.0,-1.0,181,139,146,166,160,869,1018,1010
2025-02-19 16:23:53.907,-403.0,-531.0,776.0,7.0,-2.0,-1.0,182,140,146,166,159,853,1017,1010
2025-02-19 16:23:53.928,-403.0,-537.0,779.0,8.0,-2.0,0.0,177,135,142,162,156,809,468,994
2025-02-19 16:23:53.948,-405.0,-527.0,781.0,11.0,-1.0,0.0,180,138,146,165,158,758,54,992
2025-02-19 16:23:53.965,-412.0,-500.0,781.0,10.0,0.0,-1.0,177,134,141,161,155,689,53,983
2025-02-19 16:23:53.984,-417.0,-500.0,777.0,5.0,-1.0,-1.0,178,136,144,163,157,623,69,976
2025-02-19 16:23:54.002,-417.0,-502.0,780.0,0.0,-3.0,-3.0,176,133,140,159,153,548,61,955
2025-02-19 16:23:54.020,-410.0,-522.0,777.0,-1.0,-5.0,-3.0,178,135,142,162,156,484,59,943
2025-02-19 16:23:54.042,-409.0,-530.0,791.0,1.0,-4.0,-3.0,179,137,144,163,157,431,51,924
2025-02-19 16:23:54.060,-407.0,-535.0,792.0,4.0,-2.0,-2.0,176,134,141,160,153,385,47,903
2025-02-19 16:23:54.079,-418.0,-536.0,814.0,5.0,-2.0,-2.0,179,136,142,163,157,359,50,868
2025-02-19 16:23:54.100,-412.0,-512.0,806.0,0.0,-1.0,-3.0,175,134,141,160,153,341,47,820
2025-02-19 16:23:54.117,-413.0,-529.0,797.0,-2.0,-2.0,-2.0,177,135,142,161,155,341,49,779
2025-02-19 16:23:54.137,-401.0,-528.0,789.0,0.0,-2.0,-1.0,177,135,142,161,154,354,49,734
2025-02-19 16:23:54.156,-413.0,-514.0,781.0,1.0,-2.0,0.0,175,134,141,160,154,382,49,696
2025-02-19 16:23:54.174,-418.0,-513.0,780.0,0.0,-3.0,-1.0,178,136,143,162,156,421,84,666
2025-02-19 16:23:54.194,-413.0,-511.0,788.0,0.0,-3.0,-1.0,174,132,140,160,153,460,147,630
2025-02-19 16:23:54.211,-412.0,-501.0,785.0,0.0,-2.0,-1.0,177,135,143,162,156,512,222,603
2025-02-19 16:23:54.231,-412.0,-504.0,786.0,2.0,-3.0,-2.0,175,134,140,160,154,557,287,566
2025-02-19 16:23:54.251,-417.0,-504.0,784.0,1.0,-3.0,-2.0,176,135,142,161,155,602,368,516
2025-02-19 16:23:54.268,-409.0,-497.0,793.0,1.0,-3.0,-3.0,177,136,143,162,156,639,463,458
2025-02-19 16:23:54.286,-410.0,-504.0,790.0,1.0,-2.0,-3.0,175,133,141,160,154,667,562,408
2025-02-19 16:23:54.308,-410.0,-503.0,784.0,0.0,-1.0,-3.0,178,137,143,163,156,692,663,383
2025-02-19 16:23:54.326,-408.0,-507.0,781.0,-1.0,-2.0,-4.0,174,133,140,159,153,703,722,375
2025-02-19 16:23:54.346,-393.0,-518.0,785.0,0.0,-3.0,-4.0,178,137,143,163,157,714,755,396
2025-02-19 16:23:54.366,-397.0,-518.0,789.0,0.0,-2.0,-3.0,175,134,141,160,154,711,774,427
2025-02-19 16:23:54.383,-398.0,-511.0,781.0,-1.0,-3.0,-3.0,176,135,142,161,155,707,796,462
2025-02-19 16:23:54.403,-387.0,-502.0,779.0,-2.0,-3.0,-3.0,178,137,143,167,157,700,819,494
2025-02-19 16:23:54.423,-384.0,-487.0,763.0,-3.0,-3.0,-3.0,175,134,137,160,154,683,826,514
2025-02-19 16:23:54.440,-394.0,-477.0,753.0,-3.0,-5.0,-4.0,178,137,143,163,157,671,824,540
2025-02-19 16:23:54.460,-401.0,-426.0,730.0,-2.0,-6.0,-5.0,174,133,139,159,153,651,847,566
2025-02-19 16:23:54.478,-425.0,-363.0,705.0,-4.0,-6.0,-8.0,177,136,148,161,155,636,857,594
2025-02-19 16:23:54.498,-431.0,-319.0,644.0,-6.0,-10.0,-15.0,172,132,135,157,151,613,833,610
2025-02-19 16:23:54.516,-454.0,-300.0,597.0,-6.0,-18.0,-21.0,176,134,140,160,153,605,884,645
2025-02-19 16:23:54.535,-477.0,-289.0,561.0,-4.0,-28.0,-28.0,177,136,142,162,155,603,955,667
2025-02-19 16:23:54.554,-546.0,-273.0,583.0,-8.0,-47.0,-42.0,174,132,139,158,150,610,1005,636
2025-02-19 16:23:54.575,-585.0,-254.0,618.0,-37.0,-89.0,-62.0,174,133,140,158,149,643,1017,562
2025-02-19 16:23:54.591,-480.0,-406.0,772.0,-70.0,-138.0,-92.0,174,130,139,157,145,691,1018,151
2025-02-19 16:23:54.612,-265.0,-689.0,947.0,-133.0,-178.0,-103.0,179,133,143,161,143,761,1019,51
2025-02-19 16:23:54.632,-70.0,-1121.0,1259.0,-171.0,-181.0,-89.0,171,124,136,150,131,833,1018,43
2025-02-19 16:23:54.649,370.0,-1602.0,1677.0,-177.0,-127.0,-50.0,175,125,139,150,128,934,1017,46
2025-02-19 16:23:54.669,565.0,-2044.0,1852.0,-152.0,-31.0,9.0,176,121,139,147,121,1018,1018,47
2025-02-19 16:23:54.689,692.0,-2036.0,1679.0,-107.0,80.0,71.0,168,106,129,129,105,1018,1018,53
2025-02-19 16:23:54.706,487.0,-1724.0,1204.0,-98.0,149.0,112.0,171,104,130,121,102,1017,1018,41
2025-02-19 16:23:54.726,265.0,-1412.0,941.0,-124.0,169.0,156.0,167,95,121,107,93,1017,1018,78
2025-02-19 16:23:54.743,115.0,-1241.0,816.0,-148.0,180.0,196.0,175,100,123,103,98,1017,1018,45
2025-02-19 16:23:54.763,-139.0,-1131.0,661.0,-103.0,174.0,232.0,167,93,114,100,91,1017,1017,38
2025-02-19 16:23:54.783,13.0,-857.0,289.0,-133.0,197.0,262.0,167,94,115,99,96,1017,1018,43
2025-02-19 16:23:54.800,-17.0,-484.0,397.0,-98.0,196.0,257.0,162,92,112,97,96,961,1017,38
2025-02-19 16:23:54.820,-61.0,-234.0,199.0,-145.0,191.0,258.0,151,84,104,89,91,896,989,31
2025-02-19 16:23:54.841,-203.0,-225.0,54.0,-127.0,162.0,249.0,144,82,101,86,88,851,1006,30
2025-02-19 16:23:54.856,-304.0,14.0,-149.0,-79.0,139.0,225.0,148,90,109,94,97,895,669,344
2025-02-19 16:23:54.878,-425.0,158.0,-34.0,-79.0,139.0,195.0,141,86,106,90,93,901,91,401
2025-02-19 16:23:54.895,-531.0,395.0,-26.0,-68.0,120.0,163.0,133,79,99,83,85,876,27,533
2025-02-19 16:23:54.915,-503.0,309.0,-85.0,-53.0,120.0,127.0,136,83,102,88,90,839,32,940
2025-02-19 16:23:54.936,-729.0,229.0,-192.0,-28.0,106.0,99.0,199,151,171,156,158,830,525,1010
2025-02-19 16:23:54.953,-587.0,332.0,-125.0,0.0,100.0,76.0,150,100,121,105,108,605,344,1009
2025-02-19 16:23:54.972,-500.0,344.0,-96.0,7.0,111.0,66.0,148,97,118,103,104,425,688,1009
2025-02-19 16:23:54.992,-734.0,490.0,-284.0,37.0,83.0,38.0,139,89,110,94,95,267,1016,1009
2025-02-19 16:23:55.009,-617.0,739.0,-423.0,49.0,50.0,18.0,140,90,110,96,97,106,1016,981
2025-02-19 16:23:55.030,-475.0,1015.0,-738.0,100.0,20.0,-1.0,136,86,107,93,94,33,1017,890
2025-02-19 16:23:55.050,-352.0,1456.0,-1200.0,175.0,-18.0,-59.0,130,81,103,90,90,92,1017,705
2025-02-19 16:23:55.068,-396.0,2179.0,-1774.0,257.0,-129.0,-196.0,131,84,105,92,93,429,1016,377
2025-02-19 16:23:55.087,-604.0,2748.0,-2146.0,219.0,-284.0,-464.0,125,79,99,86,87,954,1016,29
2025-02-19 16:23:55.107,-139.0,2846.0,-2047.0,114.0,-572.0,-721.0,133,85,105,92,92,1016,1015,35
2025-02-19 16:23:55.124,1415.0,2859.0,-2102.0,-78.0,-905.0,-1070.0,134,83,102,91,92,1016,1016,34
2025-02-19 16:23:55.145,8623.0,655.0,-414.0,-317.0,-1132.0,-1113.0,155,102,120,111,114,1016,1017,53
2025-02-19 16:23:55.165,8491.0,-7025.0,3317.0,-216.0,-294.0,-492.0,130,80,99,88,94,1015,263,211
2025-02-19 16:23:55.182,4391.0,-7422.0,870.0,162.0,224.0,45.0,138,89,111,99,113,1015,39,1008
2025-02-19 16:23:55.201,2430.0,-4240.0,719.0,328.0,206.0,226.0,140,88,110,99,110,1015,38,1008
2025-02-19 16:23:55.219,1293.0,-1758.0,1642.0,79.0,210.0,348.0,130,77,97,87,98,1020,24,1008
2025-02-19 16:23:55.239,936.0,-1292.0,1122.0,-40.0,247.0,305.0,132,79,99,89,99,1016,21,1009
2025-02-19 16:23:55.259,280.0,-1308.0,425.0,-34.0,259.0,338.0,131,78,98,88,98,1016,25,998
2025-02-19 16:23:55.276,58.0,-781.0,201.0,-19.0,228.0,366.0,133,81,102,92,99,1015,28,535
2025-02-19 16:23:55.296,-7.0,-42.0,162.0,-52.0,217.0,347.0,138,86,107,97,103,1015,452,674
2025-02-19 16:23:55.313,4.0,-148.0,209.0,-79.0,216.0,346.0,136,83,105,94,100,1016,34,940
2025-02-19 16:23:55.333,-222.0,-256.0,20.0,-47.0,172.0,342.0,139,85,107,97,102,1009,32,995
2025-02-19 16:23:55.353,-208.0,-44.0,21.0,-10.0,146.0,314.0,134,82,104,94,99,872,29,629
2025-02-19 16:23:55.370,-168.0,213.0,40.0,45.0,127.0,277.0,138,86,108,98,103,669,29,739
2025-02-19 16:23:55.389,-106.0,373.0,113.0,60.0,141.0,236.0,133,81,103,93,98,322,28,847
2025-02-19 16:23:55.410,-390.0,366.0,-63.0,76.0,141.0,189.0,132,80,103,93,97,27,28,891
2025-02-19 16:23:55.427,-589.0,487.0,-186.0,82.0,117.0,147.0,131,81,103,92,96,27,29,977
2025-02-19 16:23:55.447,-672.0,943.0,-189.0,42.0,69.0,93.0,137,87,109,100,103,68,381,994
2025-02-19 16:23:55.467,-737.0,1058.0,-230.0,6.0,39.0,26.0,151,104,126,116,119,187,716,997
2025-02-19 16:23:55.485,-604.0,1251.0,-376.0,23.0,24.0,-55.0,145,98,119,105,112,274,501,1008
2025-02-19 16:23:55.505,-539.0,1478.0,-646.0,70.0,-14.0,-132.0,148,101,123,113,115,423,306,940
2025-02-19 16:23:55.522,-473.0,1661.0,-1068.0,137.0,-68.0,-226.0,141,95,116,106,109,568,456,710
2025-02-19 16:23:55.542,-434.0,1968.0,-1424.0,191.0,-162.0,-394.0,146,100,120,112,114,736,1012,757
2025-02-19 16:23:55.562,-258.0,2132.0,-1449.0,111.0,-340.0,-564.0,138,91,111,103,106,881,1016,770
2025-02-19 16:23:55.582,743.0,2125.0,-1301.0,-36.0,-587.0,-856.0,130,81,100,94,97,1015,1016,328
2025-02-19 16:23:55.599,3190.0,1026.0,-1194.0,-178.0,-949.0,-1009.0,135,84,102,97,100,1016,644,77
2025-02-19 16:23:55.618,6653.0,-4075.0,2417.0,-221.0,-656.0,-665.0,141,91,110,105,106,1016,224,377
2025-02-19 16:23:55.636,6054.0,-6943.0,2288.0,-3.0,11.0,-177.0,129,80,99,95,102,1015,24,954
2025-02-19 16:23:55.656,3165.0,-5416.0,963.0,193.0,168.0,62.0,126,83,97,92,103,1016,21,1008
2025-02-19 16:23:55.677,1514.0,-2957.0,868.0,75.0,130.0,249.0,124,73,92,87,98,1014,17,1008
2025-02-19 16:23:55.694,1054.0,-2047.0,738.0,-81.0,105.0,287.0,124,74,93,88,97,1016,16,1008
2025-02-19 16:23:55.714,760.0,-1750.0,542.0,-92.0,123.0,269.0,124,72,91,87,96,1016,1016,1008
2025-02-19 16:23:55.734,445.0,-1630.0,369.0,-39.0,145.0,296.0,125,73,93,89,98,1016,1015,619
2025-02-19 16:23:55.751,380.0,-1102.0,358.0,-48.0,155.0,361.0,123,71,92,88,97,1016,1016,342
2025-02-19 16:23:55.771,340.0,-826.0,288.0,-55.0,142.0,384.0,126,71,93,89,98,1016,1015,251
2025-02-19 16:23:55.788,289.0,-471.0,216.0,-69.0,147.0,405.0,125,67,90,87,94,1016,994,287
2025-02-19 16:23:55.808,19.0,-290.0,149.0,-39.0,122.0,399.0,127,69,91,86,93,1016,12,35
2025-02-19 16:23:55.828,144.0,72.0,165.0,20.0,87.0,363.0,127,69,92,91,93,1016,10,11
2025-02-19 16:23:55.843,202.0,298.0,182.0,25.0,130.0,316.0,126,68,91,89,94,931,11,11
2025-02-19 16:23:55.865,-33.0,436.0,162.0,47.0,127.0,260.0,127,69,91,89,95,683,11,11
2025-02-19 16:23:55.884,-410.0,538.0,-27.0,44.0,94.0,189.0,126,67,90,89,95,25,9,10
2025-02-19 16:23:55.902,-250.0,476.0,-12.0,36.0,109.0,139.0,127,68,92,90,95,11,10,10
2025-02-19 16:23:55.923,-158.0,562.0,-82.0,60.0,148.0,135.0,127,67,90,88,94,9,38,421
2025-02-19 16:23:55.943,-688.0,1576.0,-457.0,4.0,118.0,122.0,157,94,119,117,120,39,525,921
2025-02-19 16:23:55.959,-757.0,2105.0,-635.0,144.0,80.0,-52.0,163,96,122,120,121,43,1016,1008
2025-02-19 16:23:55.980,-1006.0,2844.0,-1114.0,245.0,13.0,-300.0,152,83,109,103,102,35,1016,630
2025-02-19 16:23:56.000,-964.0,2883.0,-1743.0,144.0,-89.0,-526.0,152,83,108,100,96,362,1016,281
2025-02-19 16:23:56.018,-440.0,2784.0,-2202.0,68.0,-352.0,-781.0,147,78,101,90,87,614,1015,150
2025-02-19 16:23:56.038,1912.0,2435.0,-2185.0,-95.0,-732.0,-1015.0,150,79,99,91,88,748,1015,204
2025-02-19 16:23:56.058,5567.0,713.0,-1765.0,-394.0,-1005.0,-1005.0,177,97,115,111,108,1015,1015,655
2025-02-19 16:23:56.075,7593.0,-1804.0,1496.0,-380.0,-793.0,-580.0,176,93,112,106,106,1017,982,981
2025-02-19 16:23:56.095,6489.0,-7322.0,1358.0,19.0,-127.0,-162.0,185,101,122,116,118,1016,693,1010
2025-02-19 16:23:56.112,3066.0,-5691.0,-322.0,500.0,270.0,44.0,170,85,105,100,107,1017,33,1003
2025-02-19 16:23:56.132,642.0,-1878.0,-560.0,238.0,181.0,170.0,161,74,94,89,93,1016,73,885
2025-02-19 16:23:56.152,573.0,-1625.0,-66.0,-67.0,72.0,198.0,158,72,92,86,90,1017,18,913
2025-02-19 16:23:56.169,776.0,-2455.0,268.0,-49.0,71.0,280.0,160,73,94,88,93,1016,19,979
2025-02-19 16:23:56.189,690.0,-1983.0,124.0,49.0,83.0,360.0,157,70,91,85,89,1017,16,711
2025-02-19 16:23:56.202,760.0,-927.0,187.0,117.0,100.0,346.0,157,70,91,85,89,1017,16,718
2025-02-19 16:23:56.226,596.0,-501.0,369.0,146.0,153.0,270.0,158,71,91,85,89,1016,16,964
2025-02-19 16:23:56.246,341.0,-433.0,217.0,95.0,173.0,263.0,156,69,91,85,87,1017,16,827
2025-02-19 16:23:56.264,140.0,-350.0,206.0,38.0,155.0,282.0,158,71,92,86,88,1016,17,801
2025-02-19 16:23:56.284,80.0,-315.0,154.0,8.0,131.0,307.0,157,69,90,85,86,1016,16,675
2025-02-19 16:23:56.304,247.0,182.0,311.0,76.0,153.0,242.0,157,70,91,85,87,1017,15,1009
2025-02-19 16:23:56.320,-36.0,254.0,110.0,140.0,183.0,182.0,157,70,92,86,87,1016,16,1009
2025-02-19 16:23:56.340,-250.0,483.0,31.0,68.0,179.0,178.0,155,69,90,84,85,1017,14,1009
2025-02-19 16:23:56.361,-540.0,527.0,-90.0,42.0,145.0,149.0,156,70,92,87,86,1018,17,927
2025-02-19 16:23:56.378,-680.0,810.0,-51.0,33.0,99.0,119.0,154,68,90,84,84,1017,14,862
2025-02-19 16:23:56.399,-407.0,1387.0,75.0,108.0,117.0,3.0,154,69,92,86,84,1016,16,758
2025-02-19 16:23:56.418,-555.0,1761.0,-367.0,149.0,139.0,-114.0,152,68,91,84,82,1016,14,673
2025-02-19 16:23:56.435,-955.0,2087.0,-1162.0,208.0,62.0,-270.0,149,69,91,84,83,1017,254,700
2025-02-19 16:23:56.455,-1232.0,2538.0,-1889.0,170.0,-78.0,-496.0,145,70,92,85,83,1016,1015,553
2025-02-19 16:23:56.466,-456.0,2525.0,-2219.0,97.0,-445.0,-711.0,144,68,88,84,82,1017,1017,384
2025-02-19 16:23:56.493,1455.0,2342.0,-2574.0,-89.0,-958.0,-835.0,148,69,86,84,85,1017,1013,569
2025-02-19 16:23:56.513,6211.0,-1463.0,-78.0,-398.0,-1076.0,-619.0,163,80,95,95,96,1016,340,144
2025-02-19 16:23:56.533,7737.0,-6417.0,2740.0,-250.0,-345.0,-270.0,167,84,102,98,102,1016,568,190
2025-02-19 16:23:56.549,5061.0,-7138.0,576.0,301.0,250.0,-53.0,167,83,103,99,104,1016,1017,282
2025-02-19 16:23:56.570,1649.0,-3004.0,-37.0,245.0,253.0,138.0,166,82,101,97,101,1016,1016,273
2025-02-19 16:23:56.586,814.0,-1880.0,317.0,-94.0,120.0,195.0,173,88,108,104,108,1016,1017,284
2025-02-19 16:23:56.607,950.0,-2653.0,639.0,-126.0,112.0,258.0,167,81,101,97,101,1020,1016,683
2025-02-19 16:23:56.624,1046.0,-2354.0,544.0,-21.0,175.0,330.0,169,84,105,100,104,1016,1017,855
2025-02-19 16:23:56.644,806.0,-1464.0,418.0,3.0,211.0,378.0,163,78,97,93,99,1017,1016,23
2025-02-19 16:23:56.661,742.0,-813.0,475.0,-34.0,236.0,391.0,163,78,100,94,99,1016,1016,268
2025-02-19 16:23:56.684,818.0,-466.0,472.0,-90.0,276.0,402.0,163,77,100,94,99,1016,1017,904
2025-02-19 16:23:56.701,516.0,-551.0,190.0,-97.0,289.0,407.0,163,79,101,95,99,1017,987,592
2025-02-19 16:23:56.721,154.0,-287.0,-19.0,-4.0,236.0,406.0,165,83,104,99,105,1017,869,244
2025-02-19 16:23:56.739,-128.0,-37.0,104.0,93.0,136.0,395.0,161,82,104,99,106,1017,24,394
2025-02-19 16:23:56.757,188.0,322.0,-134.0,178.0,144.0,330.0,179,103,127,125,134,1017,47,645
2025-02-19 16:23:56.778,347.0,158.0,308.0,260.0,178.0,246.0,167,94,118,120,132,1016,31,684
2025-02-19 16:23:56.796,-160.0,1141.0,-1576.0,305.0,231.0,195.0,166,102,122,133,145,1017,33,675
2025-02-19 16:23:56.813,-342.0,1312.0,-683.0,197.0,181.0,194.0,179,123,138,154,163,1018,50,582
2025-02-19 16:23:56.835,-21.0,1436.0,-1697.0,293.0,207.0,65.0,187,136,147,166,165,1016,59,511
2025-02-19 16:23:56.853,-296.0,1926.0,-1886.0,-63.0,-57.0,-81.0,244,206,211,231,226,1017,474,399
2025-02-19 16:23:56.873,-875.0,2440.0,-2577.0,5.0,-259.0,-351.0,184,150,150,173,167,1016,826,63
2025-02-19 16:23:56.893,42.0,2102.0,-1881.0,-53.0,-416.0,-620.0,210,185,180,202,201,1015,1017,95
2025-02-19 16:23:56.910,2498.0,751.0,753.0,151.0,-882.0,-1018.0,199,178,164,189,194,1017,1018,81
2025-02-19 16:23:56.928,3240.0,1090.0,-1019.0,200.0,-972.0,-1026.0,194,171,156,180,185,1016,1016,181
2025-02-19 16:23:56.950,6483.0,-3456.0,409.0,-185.0,-1010.0,-741.0,193,168,150,175,180,1016,682,300
2025-02-19 16:23:56.967,5329.0,-5221.0,1578.0,-183.0,-435.0,-94.0,187,163,146,169,176,1017,810,621
2025-02-19 16:23:56.988,3687.0,-5179.0,1520.0,187.0,112.0,122.0,233,210,194,215,221,1017,1017,708
2025-02-19 16:23:57.007,1472.0,-2517.0,1063.0,286.0,329.0,187.0,235,212,196,217,224,1018,1017,1010
2025-02-19 16:23:57.024,343.0,-1915.0,786.0,-39.0,256.0,258.0,213,189,171,193,198,1015,1016,1008
2025-02-19 16:23:57.044,322.0,-1960.0,-4574.0,-95.0,73.0,276.0,194,171,152,176,182,1016,1016,673
2025-02-19 16:23:57.062,329.0,-1482.0,258.0,-139.0,115.0,322.0,191,169,151,175,180,1017,1017,56
2025-02-19 16:23:57.080,377.0,-1407.0,465.0,-70.0,160.0,360.0,189,167,148,171,177,1016,1016,295
2025-02-19 16:23:57.102,393.0,-917.0,366.0,-21.0,214.0,390.0,185,162,144,168,173,1016,955,532
2025-02-19 16:23:57.116,263.0,-471.0,459.0,-45.0,187.0,364.0,186,164,145,169,174,1017,180,148
2025-02-19 16:23:57.139,194.0,-52.0,166.0,-66.0,126.0,307.0,182,160,142,166,171,1016,47,45
2025-02-19 16:23:57.156,51.0,187.0,67.0,-50.0,78.0,278.0,181,159,143,166,170,1016,47,47
2025-02-19 16:23:57.176,91.0,157.0,106.0,-11.0,80.0,245.0,180,159,143,166,170,1016,47,128
2025-02-19 16:23:57.196,-217.0,123.0,69.0,-23.0,97.0,229.0,177,157,140,164,168,1016,44,396
2025-02-19 16:23:57.214,-264.0,506.0,186.0,25.0,83.0,213.0,179,159,143,167,170,1017,591,646
2025-02-19 16:23:57.234,-47.0,484.0,-485.0,238.0,49.0,151.0,176,155,139,163,167,1017,1016,1006
2025-02-19 16:23:57.254,-301.0,1146.0,-124.0,108.0,76.0,95.0,177,156,142,165,168,1016,1016,1009
2025-02-19 16:23:57.271,-516.0,1828.0,-374.0,136.0,58.0,-30.0,173,152,138,162,165,1016,1016,1008
2025-02-19 16:23:57.291,-588.0,2093.0,-868.0,245.0,-5.0,-208.0,174,155,141,165,169,1016,1016,988
2025-02-19 16:23:57.311,-698.0,1649.0,-1376.0,277.0,-186.0,-459.0,167,152,136,160,165,1016,445,660
2025-02-19 16:23:57.328,-128.0,2310.0,-1065.0,252.0,-420.0,-711.0,192,178,163,185,190,1017,69,346
2025-02-19 16:23:57.348,1083.0,1086.0,2.0,-13.0,-683.0,-800.0,187,176,159,182,187,1017,64,65
2025-02-19 16:23:57.369,4115.0,-1172.0,2321.0,-199.0,-733.0,-715.0,184,173,155,178,183,1017,60,60
2025-02-19 16:23:57.386,4301.0,-4333.0,591.0,-236.0,-570.0,-461.0,199,187,169,191,197,1016,75,153
2025-02-19 16:23:57.406,4278.0,-4990.0,776.0,57.0,-224.0,-40.0,195,181,165,187,192,1017,87,462
2025-02-19 16:23:57.425,2394.0,-4262.0,1099.0,181.0,199.0,137.0,203,188,172,194,200,1016,533,292
2025-02-19 16:23:57.442,781.0,-2704.0,797.0,149.0,245.0,190.0,194,178,162,184,190,1018,1018,323
2025-02-19 16:23:57.463,337.0,-1824.0,710.0,11.0,173.0,217.0,178,160,144,167,171,1016,1016,166
2025-02-19 16:23:57.479,196.0,-1869.0,564.0,-97.0,108.0,225.0,169,150,134,158,166,1016,1016,35
2025-02-19 16:23:57.498,342.0,-1506.0,520.0,-86.0,111.0,241.0,166,145,130,154,158,1017,1016,35
2025-02-19 16:23:57.520,369.0,-1246.0,525.0,-31.0,141.0,253.0,168,143,131,156,158,1016,1017,202
2025-02-19 16:23:57.535,454.0,-817.0,568.0,-22.0,183.0,290.0,165,133,127,152,152,1016,987,523
2025-02-19 16:23:57.557,198.0,-615.0,302.0,-10.0,160.0,317.0,168,127,128,153,151,1016,121,765
2025-02-19 16:23:57.577,114.0,-418.0,140.0,-85.0,122.0,320.0,164,113,122,146,137,1016,29,894
2025-02-19 16:23:57.594,192.0,-162.0,7.0,-60.0,65.0,309.0,167,108,123,143,126,1016,31,1009
2025-02-19 16:23:57.606,-7.0,-113.0,319.0,-22.0,64.0,277.0,167,100,122,135,116,1016,31,1008
2025-02-19 16:23:57.631,170.0,114.0,217.0,40.0,163.0,237.0,166,92,119,122,110,1017,29,1009
2025-02-19 16:23:57.649,-37.0,450.0,-138.0,29.0,55.0,254.0,167,87,116,119,106,1017,33,1009
2025-02-19 16:23:57.671,-580.0,1163.0,-12.0,20.0,143.0,161.0,164,82,109,102,97,1016,460,1009
2025-02-19 16:23:57.688,-210.0,1833.0,-279.0,159.0,91.0,-7.0,165,83,110,99,97,1016,1016,1009
2025-02-19 16:23:57.708,-791.0,2158.0,-1283.0,158.0,124.0,-169.0,158,79,101,89,86,1017,1016,1009
2025-02-19 16:23:57.729,-1219.0,2804.0,-1672.0,194.0,-52.0,-466.0,210,135,151,140,137,1016,835,965
2025-02-19 16:23:57.746,-1238.0,2448.0,-2098.0,109.0,-391.0,-656.0,186,110,126,116,111,1017,64,755
2025-02-19 16:23:57.766,734.0,2058.0,-1871.0,50.0,-732.0,-855.0,183,104,121,111,112,1017,58,550
2025-02-19 16:23:57.786,4998.0,-179.0,-91.0,-243.0,-860.0,-741.0,199,116,133,123,125,1016,214,447
2025-02-19 16:23:57.804,6406.0,-4796.0,1930.0,-402.0,-475.0,-339.0,189,104,122,111,116,1017,401,289
2025-02-19 16:23:57.823,4625.0,-6954.0,1182.0,33.0,130.0,-84.0,197,112,131,121,126,1017,223,477
2025-02-19 16:23:57.843,2173.0,-4370.0,-183.0,230.0,239.0,125.0,198,114,131,123,129,1016,342,798
2025-02-19 16:23:57.860,886.0,-2247.0,-88.0,46.0,120.0,189.0,194,108,127,120,121,1017,1017,491
2025-02-19 16:23:57.881,798.0,-2592.0,235.0,-27.0,80.0,221.0,194,107,126,118,124,1017,814,320
2025-02-19 16:23:57.897,758.0,-2444.0,398.0,9.0,89.0,328.0,191,106,124,117,122,1016,955,502
2025-02-19 16:23:57.918,853.0,-1509.0,502.0,81.0,128.0,359.0,196,112,131,123,127,1016,1018,544
2025-02-19 16:23:57.938,552.0,-635.0,477.0,136.0,158.0,254.0,181,95,115,107,110,1017,738,452
2025-02-19 16:23:57.954,145.0,-363.0,306.0,38.0,139.0,264.0,194,110,129,120,125,1017,1014,557
2025-02-19 16:23:57.975,160.0,-348.0,228.0,-37.0,119.0,259.0,192,108,126,118,122,1017,690,942
2025-02-19 16:23:57.994,74.0,-197.0,293.0,-49.0,74.0,262.0,190,106,125,117,121,1017,231,1010
2025-02-19 16:23:58.012,149.0,54.0,249.0,58.0,103.0,181.0,192,109,128,119,123,1017,352,1010
2025-02-19 16:23:58.031,-171.0,233.0,87.0,27.0,113.0,153.0,190,106,125,117,116,1017,55,1010
2025-02-19 16:23:58.050,-341.0,323.0,84.0,-13.0,77.0,125.0,192,109,128,120,123,1018,58,945
2025-02-19 16:23:58.069,-460.0,488.0,73.0,-32.0,47.0,83.0,188,106,123,117,120,1017,55,525
2025-02-19 16:23:58.087,-404.0,572.0,167.0,-21.0,46.0,-2.0,188,105,126,117,120,1017,54,551
2025-02-19 16:23:58.106,-584.0,788.0,41.0,-16.0,60.0,-40.0,189,106,126,119,121,1017,56,633
2025-02-19 16:23:58.126,-789.0,1364.0,-153.0,11.0,58.0,-106.0,180,98,117,110,112,1016,218,650
2025-02-19 16:23:58.146,-939.0,2143.0,-381.0,79.0,49.0,-239.0,181,99,119,112,113,1017,252,546
2025-02-19 16:23:58.163,-1397.0,2408.0,-1058.0,85.0,-37.0,-440.0,175,96,115,108,110,1017,218,317
2025-02-19 16:23:58.183,-787.0,2156.0,-1275.0,-30.0,-286.0,-605.0,179,101,117,112,113,1017,133,46
2025-02-19 16:23:58.204,1562.0,447.0,-1119.0,-154.0,-529.0,-756.0,180,100,117,113,115,1017,48,48
2025-02-19 16:23:58.221,4771.0,-1236.0,-286.0,-340.0,-662.0,-617.0,174,91,108,105,108,1017,117,38
2025-02-19 16:23:58.242,6433.0,-5763.0,1450.0,-321.0,-233.0,-272.0,173,91,109,104,107,1017,1016,156
2025-02-19 16:23:58.261,3852.0,-6620.0,-413.0,136.0,299.0,61.0,166,87,106,101,105,1016,1016,115
2025-02-19 16:23:58.279,1524.0,-2793.0,-1120.0,176.0,219.0,167.0,168,89,107,102,106,1016,1016,36
2025-02-19 16:23:58.297,561.0,-1612.0,-804.0,-48.0,57.0,141.0,176,98,116,111,115,1017,1018,632
2025-02-19 16:23:58.317,684.0,-2149.0,-279.0,-24.0,-19.0,152.0,175,94,113,107,112,1017,1017,1008
2025-02-19 16:23:58.334,811.0,-2093.0,161.0,54.0,26.0,200.0,164,83,103,97,101,1016,1016,695
2025-02-19 16:23:58.355,655.0,-1593.0,120.0,87.0,66.0,261.0,163,81,103,96,99,1016,1017,524
2025-02-19 16:23:58.373,523.0,-992.0,106.0,25.0,61.0,300.0,169,88,110,102,106,1017,1016,602
2025-02-19 16:23:58.392,520.0,-473.0,220.0,-20.0,48.0,288.0,169,87,111,102,105,1016,579,1009
2025-02-19 16:23:58.413,409.0,-434.0,328.0,16.0,47.0,276.0,170,89,112,106,107,1016,35,913
2025-02-19 16:23:58.429,425.0,-249.0,367.0,13.0,97.0,272.0,162,80,105,98,99,1016,25,1008
2025-02-19 16:23:58.450,288.0,-221.0,292.0,59.0,147.0,274.0,163,83,109,102,102,1016,750,1008
2025-02-19 16:23:58.470,243.0,-84.0,93.0,58.0,174.0,288.0,173,97,121,115,113,1016,1017,1009
2025-02-19 16:23:58.487,201.0,-148.0,69.0,82.0,162.0,310.0,174,103,123,117,114,1016,849,994
2025-02-19 16:23:58.507,74.0,252.0,23.0,96.0,197.0,323.0,182,118,135,128,122,1016,673,840
2025-02-19 16:23:58.527,-91.0,534.0,-253.0,116.0,225.0,289.0,179,123,134,130,119,1016,944,706
2025-02-19 16:23:58.545,-368.0,561.0,-582.0,190.0,215.0,242.0,179,132,137,135,119,1016,1016,713
2025-02-19 16:23:58.564,-775.0,1062.0,-1272.0,308.0,117.0,140.0,172,132,133,132,115,1016,910,770
2025-02-19 16:23:58.584,-1064.0,1987.0,-1375.0,270.0,-71.0,-30.0,167,134,131,126,110,1017,355,801
2025-02-19 16:23:58.601,-1077.0,2068.0,-1162.0,176.0,-233.0,-281.0,164,140,133,126,111,1016,40,714
2025-02-19 16:23:58.621,-681.0,1486.0,-1127.0,282.0,-457.0,-590.0,184,168,161,153,136,1017,280,437
2025-02-19 16:23:58.638,317.0,1482.0,-557.0,239.0,-777.0,-780.0,183,170,163,156,137,1017,377,233
2025-02-19 16:23:58.659,3710.0,-302.0,723.0,-108.0,-997.0,-748.0,177,170,157,150,126,1017,791,499
2025-02-19 16:23:58.679,4654.0,-3335.0,2134.0,-155.0,-670.0,-408.0,158,156,137,130,107,1017,1017,1008
2025-02-19 16:23:58.697,4683.0,-4853.0,1903.0,-57.0,-209.0,69.0,154,153,132,126,105,1017,1016,1009
2025-02-19 16:23:58.716,2860.0,-3019.0,1967.0,143.0,184.0,115.0,155,153,133,126,108,1017,540,909
2025-02-19 16:23:58.737,904.0,-1821.0,1322.0,93.0,241.0,111.0,151,150,128,120,104,1017,28,271
2025-02-19 16:23:58.754,651.0,-1718.0,877.0,-61.0,148.0,187.0,169,169,147,138,121,1017,1017,49
2025-02-19 16:23:58.771,652.0,-1697.0,688.0,-101.0,109.0,241.0,146,146,124,113,97,1016,1015,23
2025-02-19 16:23:58.790,559.0,-1347.0,688.0,-76.0,133.0,282.0,141,144,122,110,94,1017,775,20
2025-02-19 16:23:58.811,482.0,-976.0,565.0,-19.0,163.0,293.0,139,142,121,110,94,1017,119,19
2025-02-19 16:23:58.831,351.0,-700.0,482.0,17.0,192.0,293.0,137,141,120,109,92,1017,58,18
2025-02-19 16:23:58.848,204.0,-329.0,373.0,29.0,192.0,291.0,138,143,122,111,94,1017,19,19
2025-02-19 16:23:58.868,164.0,-35.0,319.0,-3.0,184.0,279.0,137,142,121,109,92,1016,18,18
2025-02-19 16:23:58.888,65.0,118.0,353.0,-44.0,194.0,256.0,138,143,122,111,94,1017,19,20
2025-02-19 16:23:58.905,42.0,132.0,252.0,-61.0,214.0,254.0,154,157,137,126,109,1017,69,533
2025-02-19 16:23:58.925,-123.0,237.0,126.0,-70.0,226.0,272.0,154,156,136,125,107,1017,36,933
2025-02-19 16:23:58.945,-456.0,648.0,-152.0,-88.0,169.0,249.0,155,157,138,124,108,1017,36,870
2025-02-19 16:23:58.962,-478.0,773.0,-285.0,-59.0,137.0,155.0,152,155,136,120,103,1017,34,684
2025-02-19 16:23:58.982,-606.0,1085.0,-622.0,51.0,91.0,56.0,153,156,137,119,105,1016,354,268
2025-02-19 16:23:59.003,-794.0,1692.0,-1104.0,207.0,31.0,-86.0,151,154,136,116,102,1016,1017,32
2025-02-19 16:23:59.020,-1284.0,2250.0,-1323.0,243.0,-156.0,-321.0,148,153,134,114,100,1017,1017,32
2025-02-19 16:23:59.040,-708.0,2182.0,-979.0,192.0,-372.0,-590.0,169,175,158,137,122,1017,1018,75
2025-02-19 16:23:59.060,270.0,1211.0,-1089.0,163.0,-624.0,-798.0,145,153,136,117,100,1017,893,169
2025-02-19 16:23:59.078,2649.0,50.0,-250.0,72.0,-871.0,-775.0,152,161,141,127,108,1017,959,307
2025-02-19 16:23:59.098,4321.0,-2909.0,1984.0,-110.0,-730.0,-506.0,149,157,137,123,104,1016,1017,372
2025-02-19 16:23:59.114,4831.0,-4447.0,1943.0,-84.0,-215.0,-56.0,147,156,135,121,104,1016,814,786
2025-02-19 16:23:59.134,3467.0,-3646.0,1851.0,99.0,102.0,106.0,149,156,135,121,106,1016,318,1010
2025-02-19 16:23:59.155,1268.0,-2216.0,1336.0,110.0,199.0,107.0,143,150,129,114,98,1017,26,764
2025-02-19 16:23:59.171,583.0,-1843.0,959.0,-43.0,125.0,139.0,151,159,138,123,106,1017,531,786
2025-02-19 16:23:59.189,606.0,-1804.0,768.0,-85.0,87.0,179.0,168,173,153,140,123,1017,1018,1009
2025-02-19 16:23:59.211,589.0,-1575.0,810.0,-55.0,104.0,197.0,160,161,143,130,113,1016,1017,1009
2025-02-19 16:23:59.229,678.0,-1153.0,925.0,-51.0,162.0,220.0,156,154,135,124,108,1017,881,1010
2025-02-19 16:23:59.248,523.0,-980.0,817.0,-40.0,227.0,259.0,157,149,134,123,110,1016,342,1009
2025-02-19 16:23:59.266,503.0,-678.0,544.0,-45.0,245.0,297.0,160,143,133,126,116,1016,923,1009
2025-02-19 16:23:59.284,317.0,-248.0,355.0,-64.0,229.0,315.0,159,131,128,125,120,1017,970,1009
2025-02-19 16:23:59.305,161.0,112.0,266.0,-90.0,206.0,275.0,163,122,127,129,126,1016,1016,1010
2025-02-19 16:23:59.322,38.0,304.0,207.0,-91.0,211.0,196.0,170,111,130,136,130,1017,370,611
2025-02-19 16:23:59.343,-332.0,375.0,216.0,-82.0,220.0,146.0,173,103,130,136,125,1017,39,479
2025-02-19 16:23:59.363,-286.0,457.0,92.0,-61.0,233.0,125.0,168,89,120,126,117,1017,33,441
2025-02-19 16:23:59.380,-225.0,876.0,-242.0,-67.0,167.0,57.0,170,89,119,125,116,1017,545,503
2025-02-19 16:23:59.401,-724.0,890.0,-746.0,-6.0,78.0,-32.0,170,89,115,121,109,1017,1016,775
2025-02-19 16:23:59.419,-730.0,1351.0,-1126.0,64.0,11.0,-159.0,169,89,112,115,104,1016,1017,1009
2025-02-19 16:23:59.438,-628.0,2135.0,-1188.0,133.0,-86.0,-303.0,167,87,109,109,99,1017,1017,1009
2025-02-19 16:23:59.458,-802.0,1700.0,-1175.0,116.0,-221.0,-435.0,164,82,101,103,93,1017,1017,886
2025-02-19 16:23:59.478,-80.0,1683.0,-1268.0,48.0,-451.0,-613.0,166,83,103,103,95,1016,1010,739
2025-02-19 16:23:59.495,2151.0,993.0,-532.0,-175.0,-648.0,-720.0,174,90,110,112,106,1018,932,226
2025-02-19 16:23:59.515,4812.0,-2264.0,1158.0,-413.0,-469.0,-509.0,172,86,104,107,101,1016,617,35
2025-02-19 16:23:59.532,5291.0,-6230.0,1298.0,-144.0,-27.0,-229.0,174,89,109,110,105,1017,445,39
2025-02-19 16:23:59.551,2751.0,-5297.0,-128.0,198.0,214.0,83.0,168,81,102,103,99,1017,159,31
2025-02-19 16:23:59.572,1255.0,-2462.0,-456.0,74.0,136.0,159.0,169,83,104,104,100,1017,284,32
2025-02-19 16:23:59.589,755.0,-2309.0,-266.0,-32.0,33.0,160.0,171,84,105,106,102,1018,1017,267
2025-02-19 16:23:59.608,756.0,-2546.0,17.0,17.0,0.0,213.0,173,87,108,108,104,1017,1017,946
2025-02-19 16:23:59.629,803.0,-1896.0,286.0,65.0,18.0,253.0,167,81,101,102,96,1016,1017,1009
2025-02-19 16:23:59.647,578.0,-1039.0,342.0,83.0,40.0,235.0,169,83,103,103,99,1017,1018,982
2025-02-19 16:23:59.667,463.0,-530.0,362.0,22.0,41.0,210.0,172,88,108,108,104,1017,1001,300
2025-02-19 16:23:59.683,327.0,-597.0,340.0,-13.0,27.0,210.0,170,85,105,105,100,1016,800,695
2025-02-19 16:23:59.704,316.0,-683.0,214.0,-19.0,31.0,247.0,170,85,105,105,96,1017,1017,1009
2025-02-19 16:23:59.721,401.0,-147.0,309.0,46.0,49.0,211.0,167,82,102,103,97,1017,602,1009
2025-02-19 16:23:59.742,44.0,158.0,165.0,58.0,75.0,175.0,170,86,106,106,101,1017,1017,1010
2025-02-19 16:23:59.759,-175.0,251.0,135.0,9.0,54.0,160.0,165,81,102,101,96,1017,641,1009
2025-02-19 16:23:59.781,-273.0,130.0,125.0,-17.0,47.0,151.0,169,84,105,105,99,1016,33,1010
2025-02-19 16:23:59.798,-327.0,708.0,210.0,28.0,50.0,88.0,171,86,107,107,101,1017,32,1009
2025-02-19 16:23:59.818,-674.0,1142.0,29.0,23.0,59.0,15.0,169,84,106,105,99,1016,77,923
2025-02-19 16:23:59.839,-932.0,1423.0,-109.0,49.0,60.0,-54.0,171,87,108,108,101,1016,33,729
2025-02-19 16:23:59.855,-1181.0,2030.0,-412.0,94.0,47.0,-193.0,164,81,100,102,96,1016,27,313
2025-02-19 16:23:59.875,-1233.0,2286.0,-702.0,136.0,-39.0,-383.0,166,83,105,104,98,1017,30,30
2025-02-19 16:23:59.892,-766.0,2083.0,-860.0,7.0,-209.0,-539.0,165,83,103,103,98,1016,29,28
2025-02-19 16:23:59.910,2240.0,317.0,-671.0,-167.0,-445.0,-655.0,172,90,107,110,105,1018,85,37
2025-02-19 16:23:59.932,4561.0,-3479.0,173.0,-177.0,-444.0,-470.0,174,92,105,112,111,1021,420,39
2025-02-19 16:23:59.953,4910.0,-5371.0,1368.0,-119.0,-147.0,-162.0,167,87,100,107,106,1016,64,242
2025-02-19 16:23:59.970,3168.0,-4806.0,460.0,106.0,123.0,22.0,167,86,101,107,106,1017,736,773
2025-02-19 16:23:59.990,1330.0,-2940.0,-48.0,63.0,127.0,134.0,169,89,104,110,108,1017,795,504
2025-02-19 16:24:00.007,668.0,-2196.0,-39.0,0.0,71.0,148.0,168,88,105,110,109,1017,848,137
2025-02-19 16:24:00.025,717.0,-2240.0,174.0,10.0,69.0,185.0,169,89,106,112,111,1016,1017,33
2025-02-19 16:24:00.047,719.0,-2230.0,240.0,46.0,100.0,267.0,161,81,99,104,107,1018,138,26
2025-02-19 16:24:00.065,760.0,-1729.0,231.0,138.0,125.0,307.0,164,85,104,108,114,1019,28,258
2025-02-19 16:24:00.084,803.0,-1171.0,229.0,216.0,169.0,325.0,162,84,103,110,117,1018,25,413
2025-02-19 16:24:00.105,730.0,-608.0,435.0,229.0,221.0,337.0,163,86,107,115,121,1017,28,786
2025-02-19 16:24:00.121,676.0,-311.0,302.0,243.0,262.0,334.0,159,84,105,118,122,1016,25,1010
2025-02-19 16:24:00.142,532.0,104.0,196.0,220.0,303.0,315.0,159,85,106,118,120,1016,25,1008
2025-02-19 16:24:00.159,41.0,224.0,125.0,130.0,305.0,291.0,159,86,107,119,117,1016,26,1008
2025-02-19 16:24:00.176,119.0,373.0,129.0,68.0,288.0,257.0,156,82,104,114,109,1017,23,963
2025-02-19 16:24:00.199,103.0,466.0,129.0,10.0,302.0,223.0,154,83,104,114,105,1016,25,861
2025-02-19 16:24:00.216,-47.0,536.0,-336.0,14.0,296.0,195.0,145,80,101,110,100,1017,23,935
2025-02-19 16:24:00.236,-460.0,397.0,-592.0,12.0,217.0,189.0,133,80,99,106,96,1017,21,1009
2025-02-19 16:24:00.256,-518.0,400.0,-948.0,55.0,100.0,176.0,120,76,95,100,93,1017,121,1009
2025-02-19 16:24:00.274,-404.0,1153.0,-1637.0,197.0,40.0,33.0,129,94,111,114,105,1006,549,953
2025-02-19 16:24:00.293,-1087.0,2617.0,-2606.0,236.0,-145.0,-217.0,129,97,112,116,105,943,979,1009
2025-02-19 16:24:00.314,-916.0,3268.0,-2653.0,53.0,-518.0,-544.0,121,89,105,107,97,897,642,1009
2025-02-19 16:24:00.330,854.0,2898.0,-2964.0,-174.0,-931.0,-808.0,115,80,97,101,94,977,31,1009
2025-02-19 16:24:00.351,4501.0,-3293.0,-1204.0,0.0,-1153.0,-611.0,114,81,97,101,95,1016,219,1009
2025-02-19 16:24:00.371,6775.0,-5666.0,4321.0,505.0,-462.0,-65.0,121,85,105,106,105,1016,348,1009
2025-02-19 16:24:00.388,3231.0,-1123.0,4622.0,242.0,135.0,-23.0,121,86,105,104,109,1017,923,952
2025-02-19 16:24:00.407,615.0,-1904.0,3194.0,-42.0,89.0,41.0,128,99,114,112,114,963,624,207
2025-02-19 16:24:00.423,531.0,-1593.0,2737.0,-212.0,137.0,88.0,121,89,107,105,107,996,218,35
2025-02-19 16:24:00.445,275.0,-1947.0,1911.0,-166.0,198.0,112.0,118,85,104,102,104,1016,1017,31
2025-02-19 16:24:00.465,-4.0,-1271.0,1345.0,-107.0,214.0,110.0,155,122,141,139,141,782,1017,71
2025-02-19 16:24:00.482,-63.0,-994.0,902.0,-123.0,203.0,121.0,130,96,115,114,115,658,1017,43
2025-02-19 16:24:00.502,-92.0,-819.0,562.0,-111.0,182.0,147.0,134,100,118,118,119,651,365,199
2025-02-19 16:24:00.522,-50.0,-553.0,486.0,-108.0,172.0,162.0,129,94,113,113,114,657,437,255
2025-02-19 16:24:00.539,-26.0,-30.0,456.0,-107.0,181.0,127.0,131,97,117,116,116,673,782,43
2025-02-19 16:24:00.559,-139.0,-104.0,154.0,-66.0,159.0,96.0,142,107,126,127,127,639,917,55
2025-02-19 16:24:00.577,-223.0,-97.0,72.0,-65.0,136.0,97.0,131,96,116,116,116,603,1008,42
2025-02-19 16:24:00.594,-94.0,145.0,172.0,-92.0,126.0,89.0,134,99,119,118,119,636,1017,45
2025-02-19 16:24:00.617,-80.0,219.0,43.0,-129.0,133.0,87.0,121,85,106,104,104,741,1017,30
2025-02-19 16:24:00.635,-311.0,74.0,-58.0,-37.0,117.0,24.0,124,87,109,107,107,939,1017,33
2025-02-19 16:24:00.654,-398.0,237.0,-233.0,-8.0,85.0,11.0,122,85,106,106,105,1017,1016,31
2025-02-19 16:24:00.674,-365.0,455.0,-380.0,-13.0,62.0,-1.0,125,88,108,107,106,1018,1017,33
2025-02-19 16:24:00.691,-388.0,680.0,-664.0,32.0,59.0,-26.0,123,87,107,107,104,1018,1018,32
2025-02-19 16:24:00.711,-794.0,705.0,-1709.0,197.0,13.0,-135.0,118,85,104,102,99,1017,1017,30
2025-02-19 16:24:00.731,-1525.0,751.0,-2650.0,401.0,-286.0,-190.0,127,95,114,112,108,1018,1018,42
2025-02-19 16:24:00.748,-940.0,1763.0,-2565.0,431.0,-677.0,-324.0,125,93,108,111,109,930,479,40
2025-02-19 16:24:00.768,2645.0,776.0,-918.0,287.0,-1096.0,-359.0,131,94,109,115,113,959,41,50
2025-02-19 16:24:00.789,5690.0,-2592.0,4799.0,442.0,-798.0,-145.0,141,96,115,116,119,914,41,326
2025-02-19 16:24:00.805,4490.0,-1533.0,5487.0,343.0,48.0,21.0,138,92,114,116,125,961,37,1009
2025-02-19 16:24:00.825,1799.0,-771.0,4163.0,98.0,227.0,-60.0,132,88,107,110,116,1016,54,999
2025-02-19 16:24:00.843,627.0,-1272.0,2871.0,-41.0,225.0,64.0,138,95,114,118,122,966,40,1010
2025-02-19 16:24:00.862,535.0,-1206.0,2266.0,-93.0,262.0,85.0,131,88,106,111,112,1016,32,1009
2025-02-19 16:24:00.882,333.0,-1333.0,1590.0,-27.0,296.0,118.0,121,76,96,101,103,1016,20,1009
2025-02-19 16:24:00.900,137.0,-956.0,1260.0,72.0,318.0,118.0,129,83,104,109,113,1016,162,872
2025-02-19 16:24:00.919,110.0,-464.0,830.0,105.0,346.0,101.0,131,83,104,109,113,1017,1017,942
2025-02-19 16:24:00.939,70.0,-110.0,775.0,58.0,345.0,106.0,131,81,102,106,110,1020,1016,1009
2025-02-19 16:24:00.957,130.0,-81.0,807.0,-15.0,344.0,126.0,136,81,103,106,107,1017,1016,1010
2025-02-19 16:24:00.977,123.0,8.0,517.0,-61.0,339.0,148.0,135,78,100,101,103,1017,1017,1009
2025-02-19 16:24:00.995,32.0,79.0,328.0,-79.0,328.0,133.0,139,80,102,101,101,1017,1017,1010
2025-02-19 16:24:01.015,26.0,117.0,32.0,-59.0,321.0,112.0,140,81,100,99,98,1017,1017,1009
2025-02-19 16:24:01.034,-161.0,113.0,-122.0,-35.0,283.0,107.0,142,88,100,100,97,1017,1017,1009
2025-02-19 16:24:01.051,-186.0,212.0,-372.0,-42.0,236.0,99.0,143,94,100,100,97,1017,1016,1010
2025-02-19 16:24:01.072,-472.0,179.0,-868.0,-26.0,137.0,71.0,141,97,98,98,95,1018,1017,1010
2025-02-19 16:24:01.091,-676.0,352.0,-1220.0,15.0,5.0,43.0,141,102,98,99,95,1017,1017,1009
2025-02-19 16:24:01.109,-916.0,474.0,-1932.0,81.0,-166.0,-66.0,132,106,94,94,91,1017,1017,1009
2025-02-19 16:24:01.129,-1253.0,574.0,-2959.0,206.0,-557.0,-147.0,123,113,94,90,88,1017,578,1010
2025-02-19 16:24:01.146,377.0,783.0,-1934.0,253.0,-951.0,-136.0,116,118,94,90,86,1017,22,973
2025-02-19 16:24:01.165,2596.0,205.0,-2213.0,310.0,-1212.0,-42.0,123,132,106,102,99,1010,34,718
2025-02-19 16:24:01.186,3664.0,87.0,-171.0,488.0,-1131.0,-7.0,129,137,109,106,104,1010,37,721
2025-02-19 16:24:01.205,3938.0,705.0,2525.0,476.0,-762.0,30.0,135,137,108,104,105,967,35,782
2025-02-19 16:24:01.224,3879.0,1651.0,5049.0,199.0,-245.0,72.0,142,143,116,110,114,833,41,385
2025-02-19 16:24:01.243,2763.0,1399.0,4032.0,-116.0,96.0,33.0,123,128,99,95,99,1010,26,148
2025-02-19 16:24:01.264,1827.0,655.0,2387.0,-124.0,212.0,14.0,143,146,120,119,119,999,48,141
2025-02-19 16:24:01.279,1046.0,392.0,2195.0,-112.0,254.0,-20.0,128,133,108,106,107,851,36,35
2025-02-19 16:24:01.301,876.0,202.0,1952.0,-148.0,355.0,-32.0,139,144,118,116,116,589,45,45
2025-02-19 16:24:01.318,590.0,-301.0,1060.0,-118.0,380.0,10.0,137,145,117,115,113,471,43,44
2025-02-19 16:24:01.337,379.0,122.0,1035.0,-99.0,331.0,23.0,130,140,111,109,106,437,37,37
2025-02-19 16:24:01.350,449.0,291.0,1097.0,-162.0,328.0,5.0,133,142,112,111,108,447,122,65
2025-02-19 16:24:01.375,458.0,288.0,1008.0,-184.0,376.0,-12.0,131,136,110,109,105,474,408,248
2025-02-19 16:24:01.394,186.0,41.0,526.0,-158.0,389.0,-3.0,144,146,122,121,118,426,553,351
2025-02-19 16:24:01.415,-75.0,-130.0,140.0,-73.0,328.0,7.0,132,137,114,114,109,337,1016,268
2025-02-19 16:24:01.431,-203.0,255.0,26.0,-72.0,250.0,5.0,136,140,119,119,114,296,1015,336
2025-02-19 16:24:01.452,-134.0,298.0,314.0,-110.0,232.0,-22.0,138,140,120,119,116,261,1015,609
2025-02-19 16:24:01.473,-88.0,-114.0,179.0,-113.0,242.0,-7.0,136,137,117,117,114,237,984,811
2025-02-19 16:24:01.489,-433.0,-222.0,-195.0,-32.0,196.0,13.0,135,135,119,120,115,226,43,533
2025-02-19 16:24:01.508,-421.0,-13.0,-314.0,16.0,106.0,-4.0,132,131,120,120,113,173,43,381
2025-02-19 16:24:01.527,-444.0,232.0,-149.0,-3.0,24.0,-17.0,135,134,122,123,115,130,146,55
2025-02-19 16:24:01.547,-352.0,396.0,-496.0,-44.0,-3.0,-26.0,130,126,117,118,110,110,341,41
2025-02-19 16:24:01.567,-1263.0,236.0,-2146.0,34.0,-229.0,-115.0,129,126,117,118,110,112,507,93
2025-02-19 16:24:01.584,-1102.0,0.0,-3695.0,294.0,-700.0,-149.0,126,123,114,114,107,116,729,46
2025-02-19 16:24:01.604,1221.0,914.0,-2799.0,373.0,-1103.0,-66.0,129,127,113,115,109,86,658,46
2025-02-19 16:24:01.624,3353.0,-72.0,620.0,288.0,-1060.0,9.0,142,140,124,124,120,55,1016,204
2025-02-19 16:24:01.641,3932.0,506.0,4577.0,182.0,-519.0,119.0,136,129,113,110,109,49,40,281
2025-02-19 16:24:01.661,3448.0,1011.0,5025.0,-91.0,-23.0,24.0,133,129,113,109,109,179,38,282
2025-02-19 16:24:01.679,2410.0,198.0,3793.0,-163.0,183.0,-11.0,136,126,115,112,112,267,40,469
2025-02-19 16:24:01.699,1360.0,-12.0,3139.0,-207.0,303.0,-20.0,141,124,118,116,115,281,42,845
2025-02-19 16:24:01.719,1157.0,-380.0,2220.0,-318.0,402.0,5.0,146,121,120,118,116,311,381,1009
2025-02-19 16:24:01.739,604.0,-357.0,1483.0,-409.0,441.0,59.0,147,118,118,117,115,336,868,1009
2025-02-19 16:24:01.756,362.0,-488.0,1068.0,-447.0,445.0,112.0,156,120,126,125,123,261,1016,987
2025-02-19 16:24:01.775,-50.0,-415.0,688.0,-417.0,396.0,153.0,150,111,122,121,116,226,1016,526
2025-02-19 16:24:01.793,327.0,-437.0,552.0,-355.0,386.0,169.0,151,113,125,125,122,228,1016,350
2025-02-19 16:24:01.813,323.0,-614.0,933.0,-246.0,367.0,163.0,153,113,124,129,128,232,1016,418
2025-02-19 16:24:01.833,209.0,-126.0,152.0,-232.0,340.0,195.0,155,116,125,134,133,247,1016,438
2025-02-19 16:24:01.850,-229.0,-118.0,-437.0,-167.0,257.0,183.0,159,121,126,141,139,255,1017,708
2025-02-19 16:24:01.871,-357.0,-117.0,-417.0,77.0,139.0,164.0,157,120,126,143,144,214,1016,1009
2025-02-19 16:24:01.890,-274.0,-170.0,-151.0,109.0,178.0,134.0,150,117,120,141,142,323,1016,1007
2025-02-19 16:24:01.907,-453.0,182.0,-266.0,148.0,198.0,88.0,143,113,113,135,136,524,1016,935
2025-02-19 16:24:01.927,-705.0,185.0,-418.0,78.0,113.0,60.0,159,134,131,154,152,353,699,837
2025-02-19 16:24:01.945,-148.0,337.0,-189.0,-19.0,94.0,7.0,154,133,128,153,151,207,396,739
2025-02-19 16:24:01.965,-690.0,369.0,-744.0,-27.0,32.0,-38.0,160,143,136,162,159,291,49,568
2025-02-19 16:24:01.981,-859.0,694.0,-863.0,-6.0,-105.0,-93.0,158,144,135,162,158,225,47,322
2025-02-19 16:24:02.001,-896.0,916.0,-1521.0,1.0,-241.0,-244.0,159,146,136,162,160,214,48,48
2025-02-19 16:24:02.022,-732.0,1148.0,-835.0,46.0,-392.0,-475.0,164,154,140,166,165,78,53,51
2025-02-19 16:24:02.042,757.0,1964.0,1101.0,-65.0,-685.0,-714.0,180,172,154,182,182,72,70,118
2025-02-19 16:24:02.060,765.0,-236.0,-338.0,-36.0,-1047.0,-782.0,192,188,168,195,196,84,899,111
2025-02-19 16:24:02.078,4193.0,-1687.0,151.0,-135.0,-1167.0,-525.0,186,183,164,188,193,75,1008,159
2025-02-19 16:24:02.098,5864.0,-4487.0,1513.0,-220.0,-463.0,-73.0,192,192,172,196,204,82,347,82
2025-02-19 16:24:02.115,3531.0,-4526.0,2473.0,100.0,168.0,178.0,170,170,151,175,183,57,58,57
2025-02-19 16:24:02.136,1410.0,-2455.0,1325.0,314.0,310.0,179.0,152,150,132,155,163,97,222,35
2025-02-19 16:24:02.157,499.0,-1146.0,1055.0,88.0,319.0,196.0,133,132,110,135,143,529,576,12
2025-02-19 16:24:02.173,414.0,-964.0,732.0,-115.0,251.0,228.0,134,134,111,137,144,1017,119,14
2025-02-19 16:24:02.194,112.0,-1329.0,887.0,-189.0,242.0,270.0,134,134,112,138,144,1016,264,14
2025-02-19 16:24:02.211,270.0,-1221.0,288.0,-93.0,205.0,270.0,138,138,116,142,148,1016,19,69
2025-02-19 16:24:02.231,203.0,-730.0,284.0,-32.0,228.0,281.0,135,134,113,138,144,1017,14,407
2025-02-19 16:24:02.251,-9.0,-472.0,380.0,-12.0,231.0,261.0,136,135,114,138,144,1017,16,1009
2025-02-19 16:24:02.268,-270.0,-356.0,134.0,14.0,162.0,229.0,137,136,113,141,144,1017,16,997
2025-02-19 16:24:02.284,-152.0,-40.0,61.0,-40.0,93.0,201.0,142,143,121,146,151,1017,70,738
2025-02-19 16:24:02.308,-68.0,79.0,243.0,-79.0,94.0,163.0,137,137,116,142,146,1017,17,549
2025-02-19 16:24:02.322,-269.0,-45.0,323.0,-64.0,122.0,149.0,136,138,117,142,147,1017,18,684
2025-02-19 16:24:02.346,-570.0,1.0,-96.0,24.0,111.0,143.0,137,137,116,142,147,1017,19,1009
2025-02-19 16:24:02.366,-322.0,292.0,10.0,34.0,75.0,112.0,134,135,115,140,145,1017,16,1009
2025-02-19 16:24:02.381,-316.0,491.0,10.0,75.0,74.0,59.0,136,136,116,141,146,1018,340,1010
2025-02-19 16:24:02.401,-578.0,868.0,-419.0,70.0,51.0,-42.0,134,134,115,140,144,1017,954,1010
2025-02-19 16:24:02.423,-883.0,1118.0,-632.0,153.0,-24.0,-161.0,136,135,117,141,146,1016,989,1009
2025-02-19 16:24:02.440,-1113.0,1434.0,-1146.0,209.0,-160.0,-330.0,133,133,113,139,143,1017,1003,512
2025-02-19 16:24:02.460,-829.0,1463.0,-829.0,117.0,-406.0,-579.0,149,151,130,154,159,1003,958,33
2025-02-19 16:24:02.477,1404.0,-459.0,-1117.0,85.0,-657.0,-748.0,145,149,128,152,156,1016,995,28
2025-02-19 16:24:02.497,3492.0,-1256.0,504.0,-105.0,-880.0,-613.0,146,152,129,154,159,1015,930,363
2025-02-19 16:24:02.515,4481.0,-3644.0,1280.0,-270.0,-575.0,-314.0,148,154,131,156,161,1016,609,727
2025-02-19 16:24:02.533,3777.0,-4814.0,1669.0,-91.0,-46.0,56.0,159,165,144,167,173,968,46,889
2025-02-19 16:24:02.554,2314.0,-3507.0,1149.0,169.0,286.0,155.0,142,148,125,149,155,1006,25,788
2025-02-19 16:24:02.575,727.0,-2120.0,966.0,199.0,348.0,183.0,138,144,120,145,151,1017,20,493
2025-02-19 16:24:02.592,342.0,-1251.0,761.0,83.0,329.0,203.0,133,139,114,140,144,1016,14,296
2025-02-19 16:24:02.611,-201.0,-1426.0,192.0,-11.0,213.0,190.0,133,139,112,139,144,1017,14,323
2025-02-19 16:24:02.628,402.0,-1371.0,627.0,25.0,169.0,192.0,132,137,110,138,140,1017,50,417
2025-02-19 16:24:02.649,350.0,-1131.0,281.0,90.0,204.0,227.0,135,137,111,138,138,1017,14,553
2025-02-19 16:24:02.667,110.0,-883.0,383.0,105.0,232.0,286.0,133,133,108,133,128,1017,12,618
2025-02-19 16:24:02.686,304.0,-469.0,440.0,136.0,238.0,311.0,135,130,105,126,105,1016,22,1007
2025-02-19 16:24:02.704,138.0,-245.0,528.0,164.0,232.0,295.0,134,123,101,110,89,1017,220,1010
2025-02-19 16:24:02.726,-27.0,20.0,103.0,159.0,261.0,210.0,133,119,100,99,84,1017,80,1010
2025-02-19 16:24:02.743,-231.0,93.0,18.0,176.0,264.0,177.0,130,115,96,89,80,1017,226,1010
2025-02-19 16:24:02.763,-221.0,108.0,-107.0,173.0,251.0,166.0,126,110,93,84,75,1017,76,1009
2025-02-19 16:24:02.783,-172.0,220.0,-333.0,159.0,224.0,151.0,120,107,93,80,75,1016,14,1009
2025-02-19 16:24:02.801,-259.0,368.0,-1038.0,206.0,136.0,73.0,110,105,89,76,72,1017,301,1009
2025-02-19 16:24:02.820,-855.0,607.0,-1386.0,204.0,-66.0,20.0,104,106,87,74,72,1018,1001,1009
2025-02-19 16:24:02.840,-1111.0,562.0,-1956.0,171.0,-321.0,-56.0,97,106,85,72,70,1017,928,852
2025-02-19 16:24:02.858,-600.0,386.0,-2616.0,252.0,-735.0,-107.0,94,108,85,72,71,1017,773,562
2025-02-19 16:24:02.878,948.0,348.0,-1655.0,310.0,-1068.0,-53.0,98,120,90,79,78,1017,458,222
2025-02-19 16:24:02.895,3002.0,-187.0,-373.0,338.0,-1130.0,31.0,90,113,82,70,69,1017,9,10
2025-02-19 16:24:02.914,3358.0,-282.0,2488.0,415.0,-764.0,69.0,95,117,86,73,74,1017,10,10
2025-02-19 16:24:02.934,3299.0,1163.0,4919.0,223.0,-203.0,61.0,99,120,89,76,81,1017,10,97
2025-02-19 16:24:02.950,2514.0,1340.0,4609.0,-84.0,210.0,-21.0,98,119,89,77,84,1017,174,326
2025-02-19 16:24:02.972,1513.0,573.0,2794.0,-160.0,312.0,-34.0,99,117,89,80,84,1017,357,285
2025-02-19 16:24:02.992,732.0,122.0,2370.0,-133.0,358.0,-47.0,100,114,90,83,85,1017,613,12
2025-02-19 16:24:03.010,571.0,-52.0,1766.0,-159.0,403.0,-57.0,143,152,132,127,125,899,916,262
2025-02-19 16:24:03.029,234.0,-240.0,1130.0,-172.0,417.0,-19.0,155,165,144,139,135,155,430,650
2025-02-19 16:24:03.049,-34.0,-363.0,666.0,-121.0,339.0,27.0,160,173,150,145,140,77,387,875
2025-02-19 16:24:03.066,-109.0,63.0,598.0,-117.0,266.0,36.0,151,165,142,137,132,67,127,1009
2025-02-19 16:24:03.086,40.0,92.0,660.0,-135.0,249.0,20.0,156,169,146,139,136,69,71,984
2025-02-19 16:24:03.103,-112.0,-149.0,510.0,-100.0,241.0,23.0,155,167,144,138,135,67,68,1010
2025-02-19 16:24:03.124,-125.0,-147.0,329.0,-52.0,215.0,34.0,148,161,137,133,130,61,108,1010
2025-02-19 16:24:03.143,-275.0,38.0,315.0,-44.0,169.0,24.0,156,169,147,142,138,71,1017,1009
2025-02-19 16:24:03.161,-231.0,189.0,283.0,-82.0,143.0,-4.0,149,162,140,135,132,64,975,1010
2025-02-19 16:24:03.181,-197.0,-3.0,326.0,-114.0,138.0,-6.0,150,160,141,135,133,64,1017,879
2025-02-19 16:24:03.200,-332.0,-108.0,167.0,-86.0,121.0,10.0,150,159,141,139,134,65,990,350
2025-02-19 16:24:03.218,-442.0,-29.0,40.0,-60.0,83.0,27.0,143,149,134,128,126,57,812,56
2025-02-19 16:24:03.237,-433.0,226.0,-81.0,-71.0,66.0,37.0,143,147,134,129,126,57,882,58
2025-02-19 16:24:03.258,-463.0,815.0,-718.0,-86.0,62.0,-45.0,138,138,127,123,121,51,891,51
2025-02-19 16:24:03.275,-1573.0,749.0,-2584.0,112.0,-193.0,-228.0,139,136,128,124,120,56,613,56
2025-02-19 16:24:03.296,-1449.0,843.0,-3074.0,299.0,-643.0,-278.0,132,128,122,116,111,46,50,50
2025-02-19 16:24:03.316,962.0,391.0,-1215.0,199.0,-1086.0,-179.0,133,131,121,116,111,48,48,47
2025-02-19 16:24:03.333,3446.0,-813.0,1392.0,152.0,-1119.0,-75.0,134,134,119,111,105,43,43,81
2025-02-19 16:24:03.352,4525.0,-1260.0,4709.0,159.0,-424.0,116.0,143,142,126,118,112,46,47,193
2025-02-19 16:24:03.370,3544.0,-268.0,4750.0,-20.0,27.0,27.0,143,143,129,120,118,49,49,181
2025-02-19 16:24:03.390,1626.0,-630.0,3634.0,-103.0,216.0,-39.0,121,120,109,102,99,236,27,50
2025-02-19 16:24:03.410,950.0,-754.0,2688.0,-151.0,336.0,0.0,145,138,133,127,123,392,281,70
2025-02-19 16:24:03.426,750.0,-794.0,1779.0,-230.0,391.0,19.0,142,126,127,121,117,259,680,401
2025-02-19 16:24:03.447,445.0,-1019.0,1273.0,-245.0,410.0,85.0,157,134,135,131,126,153,1017,1011
2025-02-19 16:24:03.467,255.0,-755.0,890.0,-255.0,413.0,156.0,151,124,126,122,114,68,1018,1009
2025-02-19 16:24:03.485,273.0,-443.0,775.0,-269.0,406.0,194.0,157,126,130,127,117,48,1017,1010
2025-02-19 16:24:03.505,253.0,-494.0,437.0,-234.0,374.0,208.0,158,125,130,126,119,47,1017,957
2025-02-19 16:24:03.525,126.0,-450.0,230.0,-162.0,336.0,204.0,156,123,127,123,118,65,1017,771
2025-02-19 16:24:03.540,33.0,-191.0,181.0,-123.0,310.0,204.0,161,126,132,130,121,75,1018,1010
2025-02-19 16:24:03.562,-333.0,-195.0,103.0,-103.0,289.0,203.0,155,126,126,122,112,111,1018,1010
2025-02-19 16:24:03.576,-278.0,-136.0,-86.0,-61.0,261.0,187.0,156,131,128,124,114,193,1017,1010
2025-02-19 16:24:03.599,-201.0,-14.0,-208.0,-22.0,243.0,160.0,153,129,126,120,110,278,1018,832
2025-02-19 16:24:03.619,-437.0,172.0,-383.0,34.0,210.0,134.0,155,133,129,125,113,364,1018,488
2025-02-19 16:24:03.636,-582.0,332.0,-481.0,104.0,157.0,90.0,163,144,140,137,124,396,1017,358
2025-02-19 16:24:03.656,-512.0,482.0,-610.0,103.0,124.0,51.0,148,132,122,123,108,392,1017,112
2025-02-19 16:24:03.674,-827.0,871.0,-968.0,77.0,15.0,-14.0,141,126,116,113,98,628,948,21
2025-02-19 16:24:03.691,-1027.0,1137.0,-1725.0,65.0,-175.0,-161.0,142,131,117,109,96,831,151,24
2025-02-19 16:24:03.714,-1069.0,1396.0,-1867.0,87.0,-437.0,-373.0,142,134,120,107,93,1015,24,34
2025-02-19 16:24:03.734,-747.0,1418.0,-1733.0,152.0,-710.0,-578.0,138,135,118,103,91,1017,21,203
2025-02-19 16:24:03.750,1142.0,2026.0,-1649.0,43.0,-1140.0,-672.0,136,139,120,109,91,1017,391,420
2025-02-19 16:24:03.769,3452.0,-40.0,-194.0,-290.0,-1318.0,-614.0,135,143,122,110,90,1016,1013,22
2025-02-19 16:24:03.788,5705.0,-4919.0,1730.0,-92.0,-911.0,-265.0,134,144,121,109,97,1016,1016,20
2025-02-19 16:24:03.808,4929.0,-3896.0,2294.0,162.0,-72.0,92.0,137,148,125,115,111,1016,297,24
2025-02-19 16:24:03.828,2510.0,-1941.0,2349.0,200.0,253.0,104.0,143,153,130,120,121,976,30,30
2025-02-19 16:24:03.845,778.0,-1297.0,1619.0,103.0,281.0,71.0,147,157,133,122,121,972,33,34
2025-02-19 16:24:03.866,600.0,-1327.0,1196.0,-81.0,233.0,131.0,139,154,131,118,116,988,29,29
2025-02-19 16:24:03.884,458.0,-1303.0,776.0,-113.0,215.0,215.0,142,153,130,118,114,933,30,29
2025-02-19 16:24:03.902,295.0,-1103.0,780.0,-102.0,245.0,236.0,140,152,129,115,110,924,28,27
2025-02-19 16:24:03.921,250.0,-814.0,528.0,-33.0,273.0,252.0,134,145,122,109,101,1015,20,19
2025-02-19 16:24:03.939,10.0,-621.0,404.0,35.0,276.0,254.0,136,146,123,111,101,1016,418,21
2025-02-19 16:24:03.959,-96.0,-104.0,125.0,53.0,250.0,240.0,135,145,122,110,97,1016,47,367
2025-02-19 16:24:03.979,-85.0,123.0,346.0,7.0,237.0,215.0,135,145,122,109,95,1016,19,891
2025-02-19 16:24:03.997,-274.0,5.0,186.0,-10.0,220.0,211.0,135,145,123,109,97,1016,19,945
2025-02-19 16:24:04.017,-340.0,66.0,73.0,9.0,194.0,203.0,134,143,122,107,95,1016,18,1008
2025-02-19 16:24:04.036,-289.0,462.0,126.0,-11.0,185.0,162.0,138,146,124,110,99,1016,21,1008
2025-02-19 16:24:04.054,-408.0,442.0,110.0,-74.0,191.0,87.0,136,144,123,107,98,1016,19,854
2025-02-19 16:24:04.074,-779.0,186.0,-98.0,-53.0,118.0,40.0,136,144,124,107,97,1016,110,390
2025-02-19 16:24:04.091,-692.0,677.0,-546.0,1.0,27.0,-17.0,134,143,122,104,96,1017,18,146
2025-02-19 16:24:04.109,-893.0,692.0,-802.0,73.0,-74.0,-118.0,135,142,123,103,98,1017,18,19
2025-02-19 16:24:04.131,-997.0,1012.0,-1201.0,213.0,-182.0,-249.0,133,141,122,100,97,1017,19,37
2025-02-19 16:24:04.143,-1254.0,1433.0,-1254.0,300.0,-418.0,-463.0,129,140,121,98,93,1016,16,16
2025-02-19 16:24:04.169,-5.0,1581.0,-941.0,96.0,-849.0,-578.0,125,142,121,101,94,1016,17,46
2025-02-19 16:24:04.189,2826.0,-252.0,-342.0,-57.0,-1042.0,-523.0,125,142,120,102,93,1016,16,320
2025-02-19 16:24:04.209,4696.0,-3554.0,2015.0,7.0,-571.0,-263.0,129,143,121,106,102,1017,18,623
2025-02-19 16:24:04.226,4525.0,-3408.0,2878.0,109.0,-12.0,8.0,133,147,125,111,116,1016,47,892
2025-02-19 16:24:04.244,1883.0,-1989.0,2631.0,167.0,242.0,41.0,136,149,128,113,120,1003,706,991
2025-02-19 16:24:04.263,665.0,-1068.0,1723.0,17.0,224.0,35.0,132,147,123,110,112,1016,1015,854
2025-02-19 16:24:04.283,602.0,-1525.0,1411.0,-85.0,188.0,86.0,129,145,122,108,104,1017,1017,820
2025-02-19 16:24:04.303,607.0,-1734.0,1140.0,-30.0,196.0,137.0,129,143,120,106,102,1017,1016,675
2025-02-19 16:24:04.321,449.0,-1194.0,1009.0,18.0,218.0,168.0,131,142,119,106,103,1017,810,758
2025-02-19 16:24:04.341,372.0,-1007.0,1010.0,40.0,255.0,165.0,135,142,118,108,105,1017,201,1009
2025-02-19 16:24:04.360,361.0,-690.0,967.0,61.0,296.0,157.0,135,140,114,108,103,1016,14,1010
2025-02-19 16:24:04.376,343.0,-604.0,846.0,55.0,333.0,170.0,137,137,113,110,106,1016,31,1008
2025-02-19 16:24:04.397,229.0,-417.0,646.0,33.0,344.0,209.0,139,133,109,111,106,1016,431,1008
2025-02-19 16:24:04.418,104.0,-359.0,475.0,31.0,344.0,221.0,139,127,104,105,103,1017,446,1009
2025-02-19 16:24:04.434,137.0,-117.0,266.0,68.0,357.0,196.0,140,124,101,102,98,1017,285,1008
2025-02-19 16:24:04.455,-124.0,38.0,-6.0,86.0,356.0,163.0,138,118,95,98,90,1016,81,1007
2025-02-19 16:24:04.472,-375.0,286.0,-192.0,80.0,307.0,129.0,136,113,93,93,89,1016,227,1010
2025-02-19 16:24:04.491,-490.0,328.0,-433.0,21.0,239.0,106.0,137,107,96,96,92,1017,35,890
2025-02-19 16:24:04.512,-479.0,186.0,-769.0,37.0,147.0,76.0,133,101,99,93,94,1017,177,823
2025-02-19 16:24:04.528,-634.0,417.0,-1379.0,57.0,17.0,18.0,125,95,94,89,90,1016,123,878
2025-02-19 16:24:04.549,-883.0,423.0,-1864.0,107.0,-193.0,-46.0,118,97,92,88,86,1017,80,1008
2025-02-19 16:24:04.569,-697.0,533.0,-1988.0,175.0,-491.0,-109.0,116,104,94,90,89,1014,336,1008
2025-02-19 16:24:04.587,145.0,604.0,-2124.0,171.0,-748.0,-96.0,113,103,95,92,88,923,1016,918
2025-02-19 16:24:04.607,1125.0,373.0,-1841.0,225.0,-989.0,-65.0,108,101,95,96,91,893,1016,785
2025-02-19 16:24:04.624,2428.0,-25.0,-385.0,311.0,-1017.0,-15.0,107,102,94,94,88,916,983,583
2025-02-19 16:24:04.644,2877.0,-471.0,2408.0,313.0,-705.0,52.0,113,110,96,95,92,960,276,313
2025-02-19 16:24:04.664,3055.0,731.0,4376.0,112.0,-272.0,40.0,115,113,98,95,96,999,20,21
2025-02-19 16:24:04.680,2610.0,385.0,4148.0,-42.0,45.0,-36.0,116,115,100,98,98,993,22,22
2025-02-19 16:24:04.700,1704.0,104.0,3284.0,-64.0,196.0,-52.0,119,113,102,100,100,964,24,24
2025-02-19 16:24:04.721,1130.0,-74.0,2691.0,-102.0,263.0,-51.0,150,139,132,131,130,576,57,137
2025-02-19 16:24:04.738,577.0,-269.0,1968.0,-143.0,318.0,-30.0,129,111,109,108,102,287,31,753
2025-02-19 16:24:04.759,242.0,-407.0,1286.0,-111.0,284.0,-13.0,131,116,111,111,103,222,32,1010
2025-02-19 16:24:04.779,144.0,-236.0,1213.0,-94.0,264.0,8.0,130,119,111,111,103,165,34,1007
2025-02-19 16:24:04.794,59.0,10.0,1086.0,-114.0,281.0,12.0,132,126,114,113,106,130,35,1008
2025-02-19 16:24:04.816,53.0,-172.0,725.0,-127.0,283.0,32.0,131,126,111,112,105,104,38,932
2025-02-19 16:24:04.835,-144.0,-246.0,493.0,-79.0,239.0,64.0,130,128,112,113,107,90,1016,609
2025-02-19 16:24:04.853,-109.0,180.0,330.0,-85.0,180.0,38.0,126,123,110,111,105,93,1016,477
2025-02-19 16:24:04.872,-126.0,178.0,395.0,-107.0,162.0,-5.0,126,123,110,111,105,107,1016,563
2025-02-19 16:24:04.890,-22.0,41.0,428.0,-136.0,190.0,-12.0,127,122,111,111,106,127,1016,605
2025-02-19 16:24:04.909,-286.0,-323.0,70.0,-89.0,188.0,21.0,131,128,114,118,112,76,1016,219
2025-02-19 16:24:04.930,-305.0,26.0,-171.0,-40.0,136.0,27.0,132,128,117,120,112,40,1016,42
2025-02-19 16:24:04.945,-265.0,273.0,-110.0,-83.0,108.0,22.0,127,124,113,116,108,37,1017,37
2025-02-19 16:24:04.967,-248.0,369.0,-461.0,-115.0,103.0,24.0,130,123,113,117,110,39,1016,39
2025-02-19 16:24:04.987,-1313.0,289.0,-2425.0,77.0,-95.0,-89.0,127,122,111,115,107,40,1017,40
2025-02-19 16:24:05.004,-1150.0,997.0,-2813.0,313.0,-540.0,-205.0,124,124,108,111,103,38,1016,38
2025-02-19 16:24:05.024,323.0,756.0,-1841.0,255.0,-881.0,-164.0,116,121,99,100,94,83,25,27
2025-02-19 16:24:05.043,2686.0,-417.0,92.0,199.0,-1002.0,-69.0,119,124,100,98,94,241,23,23
2025-02-19 16:24:05.059,3934.0,-1025.0,2560.0,240.0,-728.0,18.0,133,132,106,103,99,379,27,154
2025-02-19 16:24:05.080,3645.0,102.0,5083.0,114.0,-233.0,8.0,136,135,101,101,97,482,22,583
2025-02-19 16:24:05.101,2393.0,-15.0,4632.0,-94.0,178.0,-16.0,142,141,108,104,101,555,27,1007
2025-02-19 16:24:05.118,1409.0,-410.0,2936.0,-124.0,269.0,-18.0,139,139,104,101,98,608,24,1009
2025-02-19 16:24:05.139,841.0,-556.0,2291.0,-173.0,311.0,16.0,137,136,103,99,95,674,314,1009
2025-02-19 16:24:05.156,605.0,-747.0,1606.0,-226.0,333.0,56.0,138,134,103,100,97,773,304,1008
2025-02-19 16:24:05.176,367.0,-782.0,1506.0,-251.0,363.0,136.0,138,133,102,100,97,862,19,1009
2025-02-19 16:24:05.196,109.0,-430.0,898.0,-275.0,370.0,171.0,140,129,104,102,98,930,577,1008
2025-02-19 16:24:05.213,238.0,-76.0,697.0,-293.0,331.0,160.0,138,115,102,100,98,992,1016,1008
2025-02-19 16:24:05.230,208.0,-223.0,737.0,-277.0,299.0,122.0,141,96,104,104,102,1016,1016,989
2025-02-19 16:24:05.253,27.0,-231.0,476.0,-271.0,286.0,138.0,140,84,102,103,103,1016,1016,709
2025-02-19 16:24:05.270,-59.0,-193.0,190.0,-283.0,262.0,168.0,142,80,104,106,107,1015,1015,555
2025-02-19 16:24:05.290,251.0,-165.0,33.0,-270.0,251.0,144.0,143,75,103,107,106,1014,1013,910
2025-02-19 16:24:05.301,-127.0,-235.0,-412.0,-157.0,230.0,72.0,141,70,101,105,97,1015,1014,1007
2025-02-19 16:24:05.327,-408.0,221.0,-441.0,-101.0,160.0,59.0,142,70,103,107,99,1015,1014,890
2025-02-19 16:24:05.347,-625.0,495.0,-433.0,-104.0,106.0,38.0,145,72,107,109,100,975,1015,877
2025-02-19 16:24:05.365,-350.0,781.0,-524.0,-32.0,48.0,-24.0,146,72,108,109,97,910,1014,1006
2025-02-19 16:24:05.382,-406.0,963.0,-897.0,55.0,-11.0,-95.0,138,70,105,105,91,869,1015,963
2025-02-19 16:24:05.405,-758.0,1291.0,-1440.0,226.0,-118.0,-232.0,130,71,104,103,90,843,1014,896
2025-02-19 16:24:05.423,-1100.0,2280.0,-2087.0,348.0,-367.0,-393.0,122,72,102,100,87,824,933,775
2025-02-19 16:24:05.441,-490.0,2040.0,-2001.0,225.0,-654.0,-545.0,132,84,112,112,99,617,955,541
2025-02-19 16:24:05.461,3134.0,544.0,-372.0,83.0,-927.0,-540.0,127,77,105,105,95,501,750,30
2025-02-19 16:24:05.480,4907.0,-3101.0,3413.0,-51.0,-500.0,-230.0,123,74,104,101,93,482,617,26
2025-02-19 16:24:05.497,3520.0,-3855.0,3546.0,46.0,-14.0,-154.0,124,80,110,106,101,488,759,45
2025-02-19 16:24:05.515,2019.0,-3368.0,2656.0,56.0,144.0,-7.0,127,86,115,110,106,480,38,37
2025-02-19 16:24:05.537,788.0,-2210.0,1740.0,-131.0,139.0,68.0,119,77,106,102,98,533,116,142
2025-02-19 16:24:05.557,936.0,-2416.0,1433.0,-171.0,179.0,129.0,120,78,106,102,98,541,343,927
2025-02-19 16:24:05.573,574.0,-2187.0,864.0,-109.0,229.0,216.0,113,70,99,94,89,607,585,1007
2025-02-19 16:24:05.593,291.0,-1573.0,510.0,-80.0,208.0,273.0,113,71,99,95,91,699,52,1008
2025-02-19 16:24:05.614,195.0,-828.0,573.0,-98.0,178.0,284.0,111,69,98,93,89,779,18,1003
2025-02-19 16:24:05.631,219.0,-547.0,504.0,-126.0,172.0,279.0,112,70,100,95,91,843,345,978
2025-02-19 16:24:05.650,7.0,-381.0,281.0,-100.0,143.0,277.0,112,69,99,93,90,895,1014,516
2025-02-19 16:24:05.671,-177.0,-145.0,183.0,-89.0,115.0,279.0,113,70,100,95,91,942,1015,19
2025-02-19 16:24:05.688,-202.0,98.0,15.0,-70.0,73.0,245.0,113,70,99,95,90,986,812,83
2025-02-19 16:24:05.708,-164.0,431.0,229.0,-31.0,68.0,143.0,112,69,98,93,88,1016,969,165
2025-02-19 16:24:05.726,-198.0,559.0,171.0,-27.0,109.0,60.0,113,70,99,94,89,1016,325,20
2025-02-19 16:24:05.746,-470.0,518.0,-90.0,-59.0,87.0,30.0,113,70,99,94,89,1016,1015,20
2025-02-19 16:24:05.765,-476.0,485.0,-217.0,-73.0,42.0,12.0,115,72,102,97,92,1016,1015,69
2025-02-19 16:24:05.781,-478.0,680.0,-388.0,-68.0,-2.0,13.0,120,78,106,102,95,889,1016,117
2025-02-19 16:24:05.800,-469.0,1091.0,-401.0,48.0,-6.0,-103.0,119,77,105,101,94,800,917,194
2025-02-19 16:24:05.823,-831.0,1993.0,-875.0,223.0,-6.0,-331.0,119,78,107,101,95,733,746,119
2025-02-19 16:24:05.840,-1332.0,2375.0,-2006.0,230.0,-237.0,-582.0,116,76,104,99,93,686,804,25
2025-02-19 16:24:05.859,92.0,1551.0,-2362.0,111.0,-766.0,-710.0,115,73,101,96,90,672,736,22
2025-02-19 16:24:05.880,4548.0,-1566.0,-570.0,-37.0,-1110.0,-609.0,121,73,99,95,91,714,1015,21
2025-02-19 16:24:05.897,6509.0,-6142.0,3878.0,-21.0,-242.0,-90.0,124,74,99,94,90,749,899,21
2025-02-19 16:24:05.916,3366.0,-4108.0,2234.0,248.0,230.0,-51.0,122,75,101,94,96,776,463,84
2025-02-19 16:24:05.938,891.0,-2488.0,1344.0,175.0,271.0,53.0,127,79,105,99,99,768,26,29
2025-02-19 16:24:05.954,4.0,-1314.0,826.0,-62.0,171.0,122.0,129,80,106,102,101,689,28,339
2025-02-19 16:24:05.975,67.0,-1349.0,867.0,-16.0,127.0,72.0,128,76,105,100,99,655,24,907
2025-02-19 16:24:05.994,162.0,-1583.0,803.0,155.0,169.0,77.0,138,85,115,110,108,545,34,1007
2025-02-19 16:24:06.012,-53.0,-812.0,563.0,264.0,159.0,78.0,137,82,112,108,106,436,30,1007
2025-02-19 16:24:06.032,-105.0,-301.0,520.0,287.0,112.0,52.0,139,82,111,108,108,379,30,1008
2025-02-19 16:24:06.049,-88.0,-165.0,551.0,303.0,85.0,31.0,143,82,113,110,111,339,31,1008
2025-02-19 16:24:06.068,-60.0,-34.0,572.0,343.0,85.0,-11.0,143,80,111,108,110,320,56,611
2025-02-19 16:24:06.089,-126.0,114.0,630.0,360.0,87.0,-51.0,145,81,112,110,112,321,101,152
2025-02-19 16:24:06.103,-146.0,-8.0,618.0,369.0,89.0,-94.0,145,79,110,108,111,328,27,28
2025-02-19 16:24:06.126,-238.0,49.0,596.0,348.0,77.0,-117.0,149,82,112,111,112,333,29,30
2025-02-19 16:24:06.144,-185.0,46.0,693.0,329.0,56.0,-140.0,149,79,110,108,110,337,27,174
2025-02-19 16:24:06.163,-88.0,55.0,841.0,295.0,26.0,-154.0,158,85,116,113,115,304,33,617
2025-02-19 16:24:06.183,-63.0,5.0,988.0,236.0,-6.0,-154.0,161,85,114,112,114,219,32,1008
2025-02-19 16:24:06.203,85.0,-247.0,1088.0,183.0,-31.0,-133.0,154,75,103,102,105,248,22,1008
2025-02-19 16:24:06.221,316.0,-645.0,1334.0,124.0,-27.0,-104.0,150,69,96,95,98,412,15,1008
2025-02-19 16:24:06.240,750.0,-1425.0,1534.0,106.0,3.0,-41.0,155,72,98,98,101,574,18,1008
2025-02-19 16:24:06.259,1284.0,-2043.0,1649.0,93.0,36.0,56.0,160,76,101,102,104,667,22,953
2025-02-19 16:24:06.278,1856.0,-2183.0,2062.0,-7.0,58.0,219.0,157,71,96,97,99,713,17,881
2025-02-19 16:24:06.297,2333.0,-2571.0,2169.0,-106.0,134.0,496.0,162,75,101,100,102,759,21,635
2025-02-19 16:24:06.315,2359.0,-1481.0,1466.0,-285.0,216.0,753.0,176,89,116,115,116,638,462,186
2025-02-19 16:24:06.335,2661.0,-483.0,763.0,-255.0,195.0,904.0,166,79,106,104,104,565,1018,26
2025-02-19 16:24:06.355,1878.0,1814.0,1461.0,-482.0,80.0,790.0,166,78,106,101,101,588,1017,151
2025-02-19 16:24:06.372,1444.0,2439.0,1560.0,-347.0,39.0,588.0,162,75,104,97,99,637,1017,468
2025-02-19 16:24:06.393,622.0,3356.0,1584.0,10.0,62.0,241.0,165,79,108,101,101,691,1017,556
2025-02-19 16:24:06.412,839.0,2983.0,1689.0,185.0,126.0,80.0,190,106,135,127,125,332,1018,869
2025-02-19 16:24:06.430,161.0,3249.0,1389.0,95.0,134.0,-36.0,191,108,136,128,125,54,1018,333
2025-02-19 16:24:06.450,281.0,2565.0,1136.0,37.0,106.0,-152.0,184,100,129,121,117,47,1015,48
2025-02-19 16:24:06.466,270.0,1506.0,987.0,84.0,105.0,-238.0,192,110,139,129,127,58,1015,58
2025-02-19 16:24:06.487,252.0,841.0,772.0,168.0,99.0,-263.0,197,116,146,136,132,65,688,64
2025-02-19 16:24:06.507,62.0,561.0,573.0,194.0,58.0,-288.0,191,113,142,133,129,61,285,343
2025-02-19 16:24:06.524,-95.0,447.0,430.0,244.0,-52.0,-354.0,196,121,149,142,138,70,72,474
2025-02-19 16:24:06.544,-58.0,282.0,499.0,258.0,-134.0,-370.0,202,130,157,151,147,79,80,584
2025-02-19 16:24:06.564,189.0,169.0,594.0,252.0,-220.0,-331.0,204,132,159,154,151,82,82,582
2025-02-19 16:24:06.581,247.0,206.0,993.0,176.0,-260.0,-318.0,210,134,160,156,154,85,85,85
2025-02-19 16:24:06.601,413.0,-315.0,1252.0,115.0,-250.0,-293.0,206,128,153,150,149,79,78,78
2025-02-19 16:24:06.622,457.0,-651.0,1349.0,100.0,-198.0,-262.0,225,148,171,170,169,98,99,125
2025-02-19 16:24:06.638,461.0,-956.0,1400.0,108.0,-153.0,-203.0,218,138,161,159,155,84,971,176
2025-02-19 16:24:06.659,327.0,-805.0,1276.0,97.0,-132.0,-128.0,161,76,100,100,98,293,977,318
2025-02-19 16:24:06.679,608.0,-1231.0,1568.0,32.0,-113.0,-48.0,154,67,89,90,89,663,647,1007
2025-02-19 16:24:06.695,1212.0,-2102.0,2103.0,22.0,21.0,117.0,153,66,89,89,88,1015,1014,1008
2025-02-19 16:24:06.715,1429.0,-2031.0,2039.0,-63.0,137.0,293.0,152,65,90,88,89,1015,1015,1008
2025-02-19 16:24:06.734,1776.0,-2367.0,1828.0,-155.0,223.0,626.0,151,64,89,86,87,1016,1015,841
2025-02-19 16:24:06.752,2290.0,-1216.0,1192.0,-283.0,274.0,855.0,151,64,89,84,84,1015,1014,233
2025-02-19 16:24:06.773,1716.0,1022.0,1496.0,-547.0,216.0,801.0,151,64,88,81,81,1014,1016,11
2025-02-19 16:24:06.788,1045.0,1547.0,1838.0,-417.0,221.0,590.0,152,67,92,82,82,1016,1016,14
2025-02-19 16:24:06.810,192.0,2975.0,1299.0,4.0,184.0,259.0,151,66,91,81,78,1017,1016,12
2025-02-19 16:24:06.830,99.0,3314.0,1660.0,67.0,172.0,96.0,151,66,92,80,78,1016,1017,335
2025-02-19 16:24:06.848,-146.0,3372.0,1660.0,-7.0,164.0,-42.0,152,67,93,82,77,1016,1017,1009
2025-02-19 16:24:06.866,-32.0,2092.0,1226.0,-12.0,160.0,-165.0,156,71,97,86,82,1016,1016,1009
2025-02-19 16:24:06.888,-189.0,1064.0,959.0,76.0,126.0,-259.0,179,98,124,112,109,1016,1018,722
2025-02-19 16:24:06.902,-251.0,324.0,1213.0,164.0,80.0,-307.0,163,80,108,95,92,992,813,358
2025-02-19 16:24:06.925,365.0,-46.0,1850.0,112.0,125.0,-275.0,177,94,122,110,105,983,43,43
2025-02-19 16:24:06.942,221.0,-320.0,2078.0,-91.0,207.0,-253.0,177,94,122,114,110,753,41,41
2025-02-19 16:24:06.962,257.0,-693.0,1780.0,-211.0,294.0,-223.0,174,92,121,110,108,609,1016,38
2025-02-19 16:24:06.982,50.0,-866.0,1069.0,-315.0,324.0,-181.0,172,94,121,112,112,502,1016,395
2025-02-19 16:24:06.999,131.0,-858.0,91.0,-346.0,326.0,-127.0,159,85,113,105,104,534,968,1009
2025-02-19 16:24:07.018,-411.0,-1146.0,-407.0,-239.0,258.0,-88.0,157,89,114,112,113,585,982,1010
2025-02-19 16:24:07.040,-487.0,-1284.0,-181.0,-38.0,239.0,-43.0,149,87,111,117,122,636,1017,1010
2025-02-19 16:24:07.054,-337.0,-1061.0,-340.0,145.0,243.0,-3.0,162,107,129,140,144,616,1017,1010
2025-02-19 16:24:07.076,-355.0,-427.0,-292.0,91.0,226.0,1.0,161,112,129,149,150,488,1017,1009
2025-02-19 16:24:07.096,-257.0,101.0,-994.0,36.0,147.0,6.0,155,114,126,146,147,417,1017,819
2025-02-19 16:24:07.114,-370.0,417.0,-1222.0,-9.0,56.0,-51.0,151,114,123,145,146,409,643,710
2025-02-19 16:24:07.134,-409.0,674.0,-784.0,-62.0,49.0,-120.0,145,109,117,141,143,571,26,425
2025-02-19 16:24:07.154,-527.0,656.0,-1640.0,32.0,-139.0,-217.0,155,122,131,153,154,323,233,163
2025-02-19 16:24:07.171,-864.0,557.0,-1553.0,-48.0,-232.0,-383.0,149,119,122,147,147,342,783,33
2025-02-19 16:24:07.191,-704.0,1208.0,-1114.0,88.0,-311.0,-649.0,169,145,142,166,168,254,745,54
2025-02-19 16:24:07.206,423.0,1780.0,1160.0,58.0,-812.0,-741.0,169,147,141,166,170,53,243,53
2025-02-19 16:24:07.228,3504.0,-605.0,300.0,-84.0,-962.0,-614.0,173,154,144,168,175,55,89,426
2025-02-19 16:24:07.248,4296.0,-3670.0,1123.0,-218.0,-774.0,-336.0,174,158,145,170,177,53,101,742
2025-02-19 16:24:07.265,3331.0,-4424.0,1662.0,-69.0,-314.0,52.0,174,158,145,170,179,52,52,244
2025-02-19 16:24:07.285,2253.0,-3041.0,1448.0,87.0,59.0,154.0,153,136,121,146,155,225,25,25
2025-02-19 16:24:07.306,1068.0,-2190.0,1071.0,100.0,200.0,170.0,142,126,110,135,144,620,12,166
2025-02-19 16:24:07.320,599.0,-1825.0,752.0,23.0,239.0,252.0,141,126,109,135,143,969,11,876
2025-02-19 16:24:07.343,378.0,-1627.0,370.0,-40.0,195.0,318.0,140,127,109,135,143,1017,376,955
2025-02-19 16:24:07.362,166.0,-1073.0,364.0,-65.0,155.0,351.0,140,126,109,135,143,1017,830,564
2025-02-19 16:24:07.380,237.0,-556.0,399.0,-38.0,146.0,323.0,141,130,110,136,143,1017,1017,449
2025-02-19 16:24:07.400,419.0,-697.0,733.0,-257.0,227.0,316.0,139,123,108,135,141,1017,1017,317
2025-02-19 16:24:07.417,18.0,-808.0,218.0,-35.0,202.0,358.0,149,135,120,146,151,1016,957,33
2025-02-19 16:24:07.437,98.0,-335.0,186.0,117.0,196.0,375.0,142,126,113,139,145,1017,796,15
2025-02-19 16:24:07.456,-24.0,478.0,2.0,159.0,187.0,350.0,143,127,114,140,146,1017,1016,18
2025-02-19 16:24:07.474,-470.0,696.0,48.0,226.0,116.0,280.0,148,130,118,145,150,1017,1006,22
2025-02-19 16:24:07.494,-26.0,1077.0,-290.0,180.0,109.0,126.0,180,164,155,180,183,541,462,61
2025-02-19 16:24:07.515,-871.0,1899.0,-491.0,197.0,43.0,-86.0,183,167,158,182,186,66,65,65
2025-02-19 16:24:07.531,-1127.0,2012.0,-1209.0,77.0,-90.0,-341.0,177,164,153,178,181,59,58,59
2025-02-19 16:24:07.551,-957.0,1147.0,-472.0,7.0,-236.0,-515.0,179,169,156,180,184,62,63,62
2025-02-19 16:24:07.572,195.0,882.0,377.0,55.0,-445.0,-626.0,169,163,148,172,176,53,52,163
2025-02-19 16:24:07.588,2490.0,-255.0,640.0,-184.0,-662.0,-619.0,171,165,148,173,178,53,53,334
2025-02-19 16:24:07.609,3038.0,-3113.0,574.0,-249.0,-529.0,-453.0,167,159,140,165,171,44,93,377
2025-02-19 16:24:07.624,3164.0,-4498.0,979.0,0.0,-283.0,-123.0,162,151,135,159,166,56,177,87
2025-02-19 16:24:07.646,1909.0,-3295.0,1163.0,237.0,71.0,109.0,190,180,164,187,194,69,396,69
2025-02-19 16:24:07.666,428.0,-1287.0,1330.0,162.0,161.0,104.0,185,173,155,179,186,60,1018,92
2025-02-19 16:24:07.683,-304.0,-703.0,913.0,6.0,68.0,55.0,170,155,138,162,169,41,1014,137
2025-02-19 16:24:07.703,-336.0,-670.0,1062.0,-15.0,23.0,45.0,165,149,132,156,163,175,1017,172
2025-02-19 16:24:07.721,-51.0,-928.0,945.0,41.0,27.0,66.0,165,147,131,156,162,294,926,190
2025-02-19 16:24:07.740,139.0,-758.0,813.0,108.0,66.0,58.0,163,144,127,152,158,406,513,473
2025-02-19 16:24:07.757,95.0,-465.0,707.0,133.0,95.0,22.0,161,139,124,148,152,585,94,750
2025-02-19 16:24:07.781,48.0,-496.0,765.0,166.0,120.0,5.0,165,141,128,152,155,704,87,894
2025-02-19 16:24:07.797,39.0,-532.0,679.0,220.0,125.0,-5.0,164,134,126,148,150,795,28,1008
2025-02-19 16:24:07.818,49.0,-600.0,634.0,249.0,125.0,-24.0,164,132,126,148,149,875,29,1005
2025-02-19 16:24:07.835,-9.0,-672.0,422.0,308.0,124.0,-34.0,165,130,126,147,144,936,29,1009
2025-02-19 16:24:07.855,-32.0,-646.0,662.0,347.0,146.0,-69.0,163,119,122,128,133,1000,27,1007
2025-02-19 16:24:07.875,-54.0,-560.0,473.0,401.0,153.0,-95.0,155,101,112,131,119,1016,17,1009
2025-02-19 16:24:07.892,-268.0,-470.0,484.0,446.0,116.0,-133.0,158,96,112,125,115,1016,20,1010
2025-02-19 16:24:07.912,-298.0,-493.0,291.0,475.0,51.0,-170.0,150,82,102,110,105,1017,14,1008
2025-02-19 16:24:07.932,-201.0,-497.0,526.0,471.0,-31.0,-173.0,148,74,95,96,94,1017,13,944
2025-02-19 16:24:07.949,477.0,-895.0,690.0,422.0,-114.0,-106.0,150,72,90,89,85,1017,13,523
2025-02-19 16:24:07.968,1391.0,-1634.0,1865.0,308.0,-109.0,28.0,153,70,89,85,85,1017,13,190
2025-02-19 16:24:07.990,2239.0,-1435.0,2891.0,99.0,89.0,243.0,154,67,86,80,81,1017,12,241
2025-02-19 16:24:08.007,2573.0,-1404.0,2336.0,-112.0,247.0,476.0,156,65,84,76,79,1016,12,399
2025-02-19 16:24:08.026,2144.0,-588.0,1853.0,-263.0,300.0,783.0,155,62,81,73,76,1016,11,616
2025-02-19 16:24:08.047,2360.0,782.0,1659.0,-452.0,242.0,844.0,154,62,82,72,74,1016,294,619
2025-02-19 16:24:08.064,1819.0,1952.0,1452.0,-605.0,166.0,767.0,153,60,82,70,74,1016,344,418
2025-02-19 16:24:08.077,274.0,3028.0,1439.0,-386.0,165.0,491.0,153,63,84,71,77,1017,741,487
2025-02-19 16:24:08.101,-467.0,3702.0,1062.0,55.0,124.0,111.0,154,65,85,72,78,1017,1007,344
2025-02-19 16:24:08.120,-176.0,3424.0,1026.0,163.0,123.0,-57.0,153,65,86,71,77,1017,995,177
2025-02-19 16:24:08.141,-252.0,3183.0,827.0,85.0,85.0,-185.0,154,66,88,74,80,1017,1016,55
2025-02-19 16:24:08.157,161.0,1365.0,842.0,79.0,61.0,-264.0,173,86,108,96,101,883,1017,33
2025-02-19 16:24:08.177,216.0,-7.0,719.0,184.0,28.0,-267.0,167,81,103,90,96,837,1017,27
2025-02-19 16:24:08.199,100.0,-539.0,827.0,227.0,-18.0,-236.0,163,77,98,85,92,856,1017,22
2025-02-19 16:24:08.215,105.0,-137.0,925.0,214.0,-62.0,-243.0,162,80,101,89,94,866,1017,58
2025-02-19 16:24:08.236,-74.0,-125.0,979.0,176.0,-94.0,-279.0,166,81,102,90,97,862,1017,105
2025-02-19 16:24:08.256,12.0,-558.0,856.0,195.0,-112.0,-244.0,163,80,101,90,96,846,410,47
2025-02-19 16:24:08.272,-168.0,-309.0,777.0,188.0,-159.0,-195.0,162,82,102,93,99,826,28,28
2025-02-19 16:24:08.293,-129.0,167.0,931.0,169.0,-214.0,-221.0,161,81,99,91,100,814,25,25
2025-02-19 16:24:08.310,102.0,-89.0,1113.0,102.0,-218.0,-205.0,163,82,100,94,102,803,147,27
2025-02-19 16:24:08.327,107.0,-198.0,1219.0,72.0,-202.0,-194.0,154,72,90,84,93,837,69,14
2025-02-19 16:24:08.350,175.0,-336.0,1313.0,58.0,-158.0,-169.0,164,83,101,96,104,947,59,25
2025-02-19 16:24:08.367,451.0,-842.0,1553.0,66.0,-84.0,-113.0,165,83,102,97,105,926,383,315
2025-02-19 16:24:08.387,1125.0,-959.0,1038.0,84.0,5.0,54.0,165,82,101,96,104,901,1018,868
2025-02-19 16:24:08.408,1583.0,-1575.0,2192.0,-65.0,153.0,254.0,167,84,102,97,105,882,1017,1010
2025-02-19 16:24:08.424,1616.0,-1627.0,2008.0,-230.0,223.0,536.0,165,80,99,93,101,870,1018,1010
2025-02-19 16:24:08.444,1455.0,-99.0,1426.0,-409.0,261.0,714.0,165,80,100,90,97,864,1016,1010
2025-02-19 16:24:08.465,462.0,1348.0,985.0,-783.0,112.0,681.0,161,76,98,86,87,858,1017,1010
2025-02-19 16:24:08.483,295.0,1510.0,1618.0,-740.0,-19.0,541.0,160,81,102,88,88,858,1017,1010
2025-02-19 16:24:08.502,-142.0,2326.0,2538.0,-320.0,63.0,228.0,161,83,103,89,89,853,1017,1010
2025-02-19 16:24:08.519,45.0,2105.0,2570.0,4.0,214.0,-52.0,159,82,102,88,88,852,1017,1006
2025-02-19 16:24:08.539,-229.0,1699.0,1804.0,32.0,276.0,-141.0,159,82,103,90,90,850,1004,1009
2025-02-19 16:24:08.559,14.0,248.0,1690.0,-59.0,265.0,-213.0,160,85,107,93,94,696,1017,925
2025-02-19 16:24:08.576,534.0,-1072.0,1670.0,-94.0,342.0,-198.0,157,85,107,94,94,666,1018,312
2025-02-19 16:24:08.595,357.0,-1610.0,989.0,-77.0,368.0,-105.0,170,97,120,105,106,586,1017,39
2025-02-19 16:24:08.616,-334.0,-1312.0,447.0,-102.0,286.0,-29.0,173,104,126,113,113,301,1017,48
2025-02-19 16:24:08.633,-119.0,-1127.0,304.0,-137.0,258.0,-6.0,196,130,151,136,137,72,1017,71
2025-02-19 16:24:08.654,-88.0,-1186.0,157.0,-131.0,278.0,13.0,193,128,148,136,135,68,1017,67
2025-02-19 16:24:08.673,-528.0,-1097.0,-100.0,-70.0,270.0,45.0,200,140,156,146,146,78,1018,78
2025-02-19 16:24:08.690,-510.0,-623.0,-187.0,-14.0,225.0,70.0,186,129,142,133,132,60,165,124
2025-02-19 16:24:08.710,-559.0,-259.0,-175.0,12.0,223.0,67.0,184,132,142,134,131,58,492,58
2025-02-19 16:24:08.730,-804.0,-299.0,-207.0,42.0,201.0,57.0,183,137,143,136,130,55,1016,56
2025-02-19 16:24:08.745,-518.0,-184.0,-163.0,94.0,195.0,36.0,175,134,136,130,123,46,1018,235
2025-02-19 16:24:08.768,-501.0,-24.0,-235.0,160.0,185.0,25.0,178,140,140,139,128,50,1017,648
2025-02-19 16:24:08.786,-565.0,274.0,-409.0,154.0,170.0,33.0,172,136,134,137,123,42,1017,1008
2025-02-19 16:24:08.805,-595.0,530.0,-668.0,183.0,131.0,24.0,181,148,143,148,133,53,1017,1009
2025-02-19 16:24:08.824,-696.0,752.0,-1363.0,204.0,23.0,-36.0,176,147,139,143,129,48,773,1009
2025-02-19 16:24:08.842,-1164.0,1274.0,-1788.0,244.0,-182.0,-210.0,177,151,141,141,125,51,109,1009
2025-02-19 16:24:08.859,-1226.0,1580.0,-2343.0,236.0,-510.0,-452.0,167,150,136,131,113,44,44,1010
2025-02-19 16:24:08.883,-164.0,1656.0,-1726.0,146.0,-944.0,-659.0,155,149,133,129,106,41,40,1010
2025-02-19 16:24:08.897,3177.0,1436.0,-1583.0,-159.0,-1277.0,-697.0,152,156,137,127,107,41,41,1009
2025-02-19 16:24:08.919,4773.0,-2759.0,1679.0,-149.0,-1104.0,-427.0,150,157,134,130,106,101,33,973
2025-02-19 16:24:08.939,5215.0,-4457.0,1689.0,41.0,-374.0,9.0,153,162,137,133,112,50,56,534
2025-02-19 16:24:08.956,3756.0,-2581.0,1797.0,177.0,85.0,121.0,138,146,121,117,102,271,1016,402
2025-02-19 16:24:08.977,1008.0,-1928.0,1783.0,199.0,253.0,29.0,132,140,115,105,95,513,1015,441
2025-02-19 16:24:08.994,553.0,-1437.0,1053.0,60.0,206.0,83.0,148,156,131,119,111,714,1016,33
2025-02-19 16:24:09.014,512.0,-1300.0,834.0,-20.0,184.0,167.0,142,149,123,111,104,854,1017,23
2025-02-19 16:24:09.034,430.0,-1105.0,943.0,-80.0,210.0,196.0,152,156,132,123,112,965,1017,32
2025-02-19 16:24:09.051,417.0,-1143.0,770.0,-28.0,285.0,251.0,146,150,126,114,106,998,1017,170
2025-02-19 16:24:09.071,293.0,-918.0,530.0,49.0,321.0,291.0,151,155,131,120,112,986,1016,620
2025-02-19 16:24:09.092,169.0,-386.0,399.0,87.0,323.0,306.0,146,149,125,114,104,975,953,1010
2025-02-19 16:24:09.109,-19.0,42.0,400.0,76.0,301.0,290.0,147,150,127,115,102,1017,530,1010
2025-02-19 16:24:09.128,-97.0,178.0,290.0,5.0,275.0,264.0,149,150,128,116,104,1016,27,1005
2025-02-19 16:24:09.149,-342.0,186.0,273.0,-39.0,240.0,233.0,144,146,125,113,99,1016,23,878
2025-02-19 16:24:09.165,-474.0,250.0,132.0,-66.0,197.0,181.0,147,148,128,117,105,1017,255,771
2025-02-19 16:24:09.186,-479.0,400.0,-10.0,-45.0,182.0,101.0,147,145,125,115,103,1017,26,823
2025-02-19 16:24:09.203,-712.0,685.0,-303.0,0.0,150.0,24.0,149,146,126,116,105,1017,25,1010
2025-02-19 16:24:09.223,-1132.0,1208.0,-1291.0,20.0,18.0,-88.0,146,142,125,113,101,1017,22,1009
2025-02-19 16:24:09.243,-1625.0,1621.0,-1547.0,105.0,-239.0,-348.0,146,145,127,112,100,1016,776,945
2025-02-19 16:24:09.263,-731.0,2074.0,-1173.0,91.0,-517.0,-648.0,142,147,127,112,100,1017,886,860
2025-02-19 16:24:09.280,578.0,1077.0,-1031.0,-91.0,-802.0,-768.0,135,146,125,112,100,1017,461,579
2025-02-19 16:24:09.301,3743.0,-1811.0,-930.0,151.0,-929.0,-507.0,135,148,126,116,103,1017,862,103
2025-02-19 16:24:09.313,4649.0,-2766.0,1765.0,210.0,-589.0,-139.0,137,148,126,117,108,1017,1016,23
2025-02-19 16:24:09.338,3434.0,-2240.0,2356.0,84.0,-128.0,49.0,154,163,141,134,134,906,604,41
2025-02-19 16:24:09.357,1540.0,-1597.0,2106.0,8.0,18.0,6.0,148,158,135,128,129,743,922,34
2025-02-19 16:24:09.375,1005.0,-1486.0,1750.0,-59.0,83.0,37.0,150,161,137,130,129,610,1017,36
2025-02-19 16:24:09.392,835.0,-1579.0,1408.0,-63.0,181.0,95.0,149,159,136,127,126,577,1017,34
2025-02-19 16:24:09.415,430.0,-1059.0,1124.0,-44.0,221.0,114.0,146,155,132,125,123,581,1018,281
2025-02-19 16:24:09.430,149.0,-848.0,822.0,-7.0,245.0,129.0,165,170,150,143,142,392,1017,226
2025-02-19 16:24:09.452,121.0,-515.0,474.0,68.0,248.0,112.0,161,162,144,139,134,195,479,378
2025-02-19 16:24:09.469,-14.0,-412.0,338.0,139.0,246.0,113.0,163,158,141,144,131,93,44,574
2025-02-19 16:24:09.489,-179.0,-107.0,360.0,211.0,221.0,68.0,164,149,138,147,128,43,42,771
2025-02-19 16:24:09.508,-317.0,-9.0,312.0,240.0,207.0,39.0,154,128,125,138,116,200,30,747
2025-02-19 16:24:09.527,-304.0,-77.0,551.0,272.0,209.0,11.0,155,109,122,136,118,339,30,859
2025-02-19 16:24:09.546,-245.0,-290.0,550.0,296.0,207.0,-10.0,154,96,117,131,116,457,27,1009
2025-02-19 16:24:09.566,-219.0,-461.0,386.0,326.0,186.0,-1.0,156,92,116,128,116,555,29,985
2025-02-19 16:24:09.584,-284.0,-160.0,439.0,373.0,151.0,-33.0,156,85,110,119,108,632,27,948
2025-02-19 16:24:09.604,-548.0,-92.0,299.0,363.0,56.0,-49.0,158,83,105,112,105,703,27,1008
2025-02-19 16:24:09.621,-494.0,31.0,362.0,322.0,-50.0,-60.0,157,80,101,108,98,777,25,986
2025-02-19 16:24:09.641,-178.0,-373.0,814.0,253.0,-160.0,-47.0,160,79,98,104,95,850,25,1009
2025-02-19 16:24:09.661,364.0,-832.0,1046.0,195.0,-175.0,-12.0,162,80,99,103,95,913,25,1010
2025-02-19 16:24:09.678,847.0,-1526.0,1503.0,212.0,-120.0,79.0,165,79,97,101,93,970,24,1010
2025-02-19 16:24:09.698,1063.0,-1411.0,1736.0,161.0,-62.0,178.0,164,80,99,101,95,1014,272,1009
2025-02-19 16:24:09.718,1546.0,-1640.0,2243.0,24.0,-9.0,386.0,163,78,96,99,93,1017,447,1009
2025-02-19 16:24:09.736,2067.0,-1312.0,2266.0,-139.0,96.0,711.0,165,80,99,100,94,1017,991,1009
2025-02-19 16:24:09.756,2021.0,785.0,2475.0,-422.0,91.0,779.0,166,80,100,99,95,1016,1017,1009
2025-02-19 16:24:09.775,973.0,1401.0,1620.0,-716.0,65.0,716.0,165,80,100,97,95,1017,905,1009
2025-02-19 16:24:09.792,703.0,1649.0,2143.0,-737.0,24.0,572.0,167,83,103,98,96,1017,1018,1009
2025-02-19 16:24:09.812,314.0,2141.0,2082.0,-502.0,39.0,282.0,164,83,102,95,93,1017,1017,1010
2025-02-19 16:24:09.833,414.0,1460.0,2055.0,45.0,169.0,97.0,166,84,105,97,94,1016,1017,1009
2025-02-19 16:24:09.850,-108.0,2468.0,1320.0,232.0,212.0,-55.0,165,83,104,96,93,1016,1017,1010
2025-02-19 16:24:09.870,-176.0,1901.0,1008.0,167.0,188.0,-190.0,179,98,119,110,108,1009,1017,1011
2025-02-19 16:24:09.887,-139.0,968.0,671.0,111.0,148.0,-271.0,171,88,109,101,97,792,1017,959
2025-02-19 16:24:09.907,-11.0,-472.0,451.0,271.0,81.0,-344.0,183,103,125,116,114,671,1017,866
2025-02-19 16:24:09.927,104.0,-955.0,414.0,432.0,18.0,-333.0,182,103,127,117,114,376,1017,414
2025-02-19 16:24:09.944,84.0,-513.0,561.0,482.0,-68.0,-298.0,181,103,126,117,116,133,1006,152
2025-02-19 16:24:09.964,-16.0,55.0,847.0,400.0,-179.0,-276.0,170,92,114,107,105,65,186,35
2025-02-19 16:24:09.984,135.0,38.0,1423.0,296.0,-201.0,-280.0,171,93,116,109,107,65,37,36
2025-02-19 16:24:10.000,295.0,-68.0,1676.0,179.0,-137.0,-250.0,174,95,117,112,110,51,39,38
2025-02-19 16:24:10.021,337.0,-97.0,1737.0,86.0,-49.0,-246.0,190,112,134,129,126,56,56,56
2025-02-19 16:24:10.041,234.0,-715.0,1338.0,57.0,1.0,-139.0,183,104,126,120,117,47,47,47
2025-02-19 16:24:10.058,50.0,-481.0,1129.0,25.0,-10.0,-100.0,168,89,110,105,103,122,31,31
2025-02-19 16:24:10.079,91.0,-789.0,1070.0,35.0,-17.0,-66.0,157,77,97,93,91,389,17,18
2025-02-19 16:24:10.096,178.0,-1059.0,1017.0,86.0,-13.0,-19.0,159,79,99,92,93,650,259,19
2025-02-19 16:24:10.116,553.0,-1315.0,1306.0,78.0,-17.0,80.0,158,78,97,93,93,848,1015,18
2025-02-19 16:24:10.136,1151.0,-1262.0,1874.0,-54.0,16.0,274.0,160,78,98,94,93,1006,1015,154
2025-02-19 16:24:10.154,1372.0,-1340.0,1751.0,-266.0,54.0,486.0,160,79,98,94,93,1017,1017,504
2025-02-19 16:24:10.173,1811.0,-1255.0,1323.0,-361.0,98.0,747.0,157,75,96,91,89,1017,1017,1010
2025-02-19 16:24:10.193,958.0,1333.0,1596.0,-557.0,23.0,729.0,159,76,97,89,88,1017,1016,1010
2025-02-19 16:24:10.210,759.0,1719.0,1759.0,-672.0,-46.0,598.0,157,75,96,87,86,1017,1017,1009
2025-02-19 16:24:10.230,567.0,1867.0,2363.0,-440.0,5.0,380.0,158,77,98,89,91,1016,1017,1009
2025-02-19 16:24:10.251,287.0,2010.0,2354.0,-77.0,150.0,98.0,166,88,107,99,103,970,1018,996
2025-02-19 16:24:10.268,29.0,1711.0,1779.0,139.0,236.0,-35.0,180,102,122,114,116,660,1017,929
2025-02-19 16:24:10.284,-163.0,1547.0,1383.0,117.0,223.0,-118.0,178,101,121,114,115,495,1017,1010
2025-02-19 16:24:10.308,161.0,314.0,1484.0,40.0,242.0,-177.0,174,97,118,110,111,377,1018,873
2025-02-19 16:24:10.325,202.0,-617.0,1282.0,5.0,274.0,-174.0,172,98,118,113,114,308,1017,875
2025-02-19 16:24:10.343,22.0,-1127.0,1326.0,15.0,292.0,-151.0,164,94,115,109,112,270,924,774
2025-02-19 16:24:10.362,-24.0,-977.0,1064.0,-51.0,293.0,-103.0,195,130,148,146,148,69,788,704
2025-02-19 16:24:10.382,-500.0,-1154.0,648.0,-153.0,247.0,-67.0,193,130,149,149,150,70,745,225
2025-02-19 16:24:10.399,-543.0,-1525.0,538.0,-129.0,242.0,-17.0,203,143,161,162,161,82,1018,82
2025-02-19 16:24:10.419,-816.0,-1336.0,706.0,-128.0,257.0,20.0,211,148,168,168,167,89,1018,89
2025-02-19 16:24:10.439,-268.0,-866.0,515.0,29.0,308.0,57.0,205,138,159,160,159,81,742,81
2025-02-19 16:24:10.459,-728.0,-343.0,42.0,30.0,311.0,20.0,211,145,165,165,166,88,88,88
2025-02-19 16:24:10.477,-608.0,-15.0,-48.0,-38.0,258.0,-8.0,205,139,159,158,158,79,80,192
2025-02-19 16:24:10.496,-428.0,-234.0,-55.0,-13.0,220.0,-23.0,211,147,167,169,165,87,479,814
2025-02-19 16:24:10.514,-658.0,-44.0,-216.0,-34.0,211.0,-27.0,208,145,164,168,160,83,1017,1010
2025-02-19 16:24:10.534,-372.0,120.0,-236.0,16.0,158.0,-25.0,211,149,168,174,164,86,1017,945
2025-02-19 16:24:10.551,-597.0,503.0,-266.0,-7.0,165.0,-56.0,213,148,169,178,166,87,1018,611
2025-02-19 16:24:10.574,-570.0,554.0,-791.0,-42.0,118.0,-71.0,208,140,161,171,158,81,1016,448
2025-02-19 16:24:10.591,-285.0,1236.0,-807.0,-6.0,81.0,-138.0,211,142,162,170,158,87,1017,786
2025-02-19 16:24:10.611,-614.0,1809.0,-1481.0,66.0,38.0,-265.0,195,133,152,150,145,81,1018,708
2025-02-19 16:24:10.628,-846.0,2297.0,-2079.0,167.0,-222.0,-480.0,170,127,146,138,134,79,383,380
2025-02-19 16:24:10.647,-428.0,2107.0,-2417.0,255.0,-610.0,-708.0,161,122,143,136,132,76,77,593
2025-02-19 16:24:10.668,2300.0,960.0,-1829.0,190.0,-1027.0,-900.0,160,121,140,136,134,77,77,546
2025-02-19 16:24:10.684,6671.0,-814.0,2058.0,-118.0,-856.0,-655.0,161,124,145,136,133,78,78,536
2025-02-19 16:24:10.706,6067.0,-6734.0,3201.0,-100.0,-133.0,-147.0,157,124,149,136,140,78,148,728
2025-02-19 16:24:10.726,2937.0,-5026.0,1389.0,292.0,236.0,43.0,118,81,107,93,99,303,33,996
2025-02-19 16:24:10.739,915.0,-1798.0,797.0,28.0,200.0,144.0,105,71,95,82,89,723,20,963
2025-02-19 16:24:10.762,484.0,-2022.0,690.0,-161.0,110.0,142.0,105,71,96,84,89,1017,295,400
2025-02-19 16:24:10.783,660.0,-2390.0,569.0,-102.0,145.0,197.0,112,75,102,90,94,1017,981,400
2025-02-19 16:24:10.800,386.0,-1760.0,318.0,-32.0,158.0,283.0,117,79,106,95,99,1016,862,944
2025-02-19 16:24:10.820,303.0,-1054.0,262.0,-23.0,137.0,313.0,117,78,103,94,98,1016,28,1010
2025-02-19 16:24:10.838,175.0,-480.0,294.0,-51.0,109.0,293.0,114,76,100,92,96,1018,25,960
2025-02-19 16:24:10.858,80.0,-323.0,361.0,-85.0,106.0,281.0,117,77,102,95,98,1017,26,561
2025-02-19 16:24:10.878,-67.0,-289.0,268.0,-74.0,86.0,273.0,115,75,101,94,96,1016,24,320
2025-02-19 16:24:10.895,-124.0,-156.0,188.0,-49.0,80.0,258.0,117,76,101,95,98,1018,270,518
2025-02-19 16:24:10.914,-175.0,199.0,152.0,-34.0,75.0,219.0,120,80,105,98,100,1017,1016,1008
2025-02-19 16:24:10.926,-368.0,442.0,83.0,-48.0,60.0,157.0,117,77,102,95,98,1017,1017,809
2025-02-19 16:24:10.951,-445.0,640.0,147.0,-44.0,70.0,109.0,118,79,104,97,99,1016,1017,408
2025-02-19 16:24:10.972,-589.0,722.0,-141.0,-1.0,83.0,46.0,115,77,102,95,95,1017,961,22
2025-02-19 16:24:10.990,-846.0,1367.0,-331.0,28.0,54.0,3.0,116,79,104,96,96,1017,740,260
2025-02-19 16:24:11.009,-988.0,2207.0,-1093.0,114.0,25.0,-184.0,112,75,102,92,92,1017,319,484
2025-02-19 16:24:11.029,-1468.0,2432.0,-1628.0,202.0,-159.0,-465.0,112,77,102,93,92,1017,25,200
2025-02-19 16:24:11.048,-699.0,1559.0,-1697.0,257.0,-480.0,-617.0,132,97,120,113,112,1008,47,48
2025-02-19 16:24:11.064,2076.0,514.0,-1284.0,182.0,-866.0,-674.0,140,104,124,119,120,610,55,190
2025-02-19 16:24:11.086,5874.0,-3321.0,2134.0,86.0,-730.0,-401.0,134,95,117,109,110,542,44,274
2025-02-19 16:24:11.103,6157.0,-5675.0,3363.0,249.0,104.0,34.0,140,103,128,118,123,550,950,843
2025-02-19 16:24:11.121,1792.0,-3053.0,1677.0,397.0,334.0,22.0,140,101,127,116,122,391,805,1010
2025-02-19 16:24:11.143,336.0,-1718.0,1252.0,158.0,286.0,116.0,130,91,115,106,111,371,39,1006
2025-02-19 16:24:11.161,-166.0,-1159.0,818.0,-21.0,169.0,117.0,138,98,122,115,119,303,127,834
2025-02-19 16:24:11.180,14.0,-1589.0,652.0,22.0,127.0,126.0,147,107,132,124,128,356,132,862
2025-02-19 16:24:11.200,86.0,-1499.0,479.0,158.0,157.0,158.0,139,95,120,114,119,193,44,1009
2025-02-19 16:24:11.218,-138.0,-711.0,330.0,236.0,157.0,173.0,152,105,129,125,132,68,55,731
2025-02-19 16:24:11.238,-179.0,-222.0,196.0,213.0,123.0,153.0,149,99,122,123,131,49,48,632
2025-02-19 16:24:11.255,-67.0,-146.0,374.0,206.0,87.0,153.0,154,100,123,128,136,54,49,563
2025-02-19 16:24:11.275,78.0,-223.0,387.0,200.0,85.0,162.0,148,90,114,120,128,133,37,662
2025-02-19 16:24:11.296,187.0,-334.0,348.0,226.0,99.0,186.0,156,95,117,126,133,262,42,1008
2025-02-19 16:24:11.309,15.0,-40.0,385.0,169.0,100.0,220.0,158,93,113,125,131,370,39,1009
2025-02-19 16:24:11.332,-107.0,83.0,487.0,105.0,79.0,239.0,157,90,110,122,129,493,36,1005
2025-02-19 16:24:11.352,-204.0,273.0,262.0,37.0,-8.0,222.0,156,87,109,119,129,629,34,1000
2025-02-19 16:24:11.369,-314.0,385.0,365.0,31.0,-66.0,196.0,158,86,108,119,137,777,32,931
2025-02-19 16:24:11.388,-494.0,1015.0,274.0,43.0,-129.0,166.0,162,89,111,119,152,885,35,842
2025-02-19 16:24:11.410,-937.0,2043.0,423.0,36.0,-191.0,33.0,162,86,108,117,154,968,31,1010
2025-02-19 16:24:11.427,-1168.0,2540.0,446.0,116.0,-188.0,-185.0,165,89,111,119,159,1017,58,1010
2025-02-19 16:24:11.446,-1414.0,2982.0,246.0,252.0,-219.0,-343.0,166,88,111,118,162,1017,304,1010
2025-02-19 16:24:11.466,-606.0,2766.0,500.0,220.0,-307.0,-497.0,164,86,109,121,162,1017,153,1010
2025-02-19 16:24:11.482,831.0,1122.0,1078.0,272.0,-338.0,-515.0,166,88,112,123,165,1017,34,1009
2025-02-19 16:24:11.504,1985.0,129.0,2269.0,301.0,-231.0,-417.0,166,85,109,124,162,1017,91,832
2025-02-19 16:24:11.521,2379.0,-295.0,2792.0,149.0,-89.0,-335.0,168,88,111,127,165,1017,451,572
2025-02-19 16:24:11.541,2463.0,-1541.0,2584.0,-84.0,-12.0,-158.0,165,86,110,122,163,1017,1017,187
2025-02-19 16:24:11.561,1977.0,-1921.0,2063.0,-166.0,33.0,60.0,178,99,121,137,175,925,1017,44
2025-02-19 16:24:11.578,1383.0,-1723.0,1539.0,-146.0,80.0,147.0,191,114,135,145,189,605,1017,60
2025-02-19 16:24:11.598,817.0,-920.0,1343.0,-110.0,129.0,212.0,185,108,129,137,183,356,1017,53
2025-02-19 16:24:11.619,360.0,-202.0,1240.0,-95.0,133.0,244.0,182,105,126,134,180,226,1016,50
2025-02-19 16:24:11.636,155.0,210.0,1293.0,-126.0,119.0,279.0,170,92,114,123,167,287,1018,97
2025-02-19 16:24:11.656,1.0,315.0,1004.0,-137.0,101.0,287.0,170,93,115,126,169,416,1017,365
2025-02-19 16:24:11.676,-89.0,595.0,879.0,-120.0,108.0,249.0,168,90,113,124,166,548,1017,959
2025-02-19 16:24:11.693,-192.0,634.0,884.0,-78.0,114.0,178.0,167,90,113,124,167,645,1018,1010
2025-02-19 16:24:11.713,-296.0,751.0,718.0,-9.0,119.0,142.0,167,91,115,125,168,724,1017,1009
2025-02-19 16:24:11.730,-419.0,856.0,625.0,27.0,104.0,132.0,163,89,112,122,165,791,1018,970
2025-02-19 16:24:11.750,-552.0,1161.0,615.0,2.0,58.0,107.0,165,91,114,123,168,847,1017,838
2025-02-19 16:24:11.770,-645.0,1486.0,654.0,-50.0,17.0,29.0,160,87,109,116,163,901,922,714
2025-02-19 16:24:11.787,-745.0,1638.0,508.0,-60.0,-16.0,-106.0,162,90,112,117,166,981,718,586
2025-02-19 16:24:11.807,-815.0,1531.0,382.0,-34.0,-29.0,-164.0,176,105,127,131,180,765,560,369
2025-02-19 16:24:11.828,-1111.0,2035.0,125.0,-60.0,-60.0,-211.0,183,113,134,139,188,466,408,285
2025-02-19 16:24:11.843,-1205.0,2416.0,-83.0,-110.0,-122.0,-343.0,183,115,136,141,190,188,61,80
2025-02-19 16:24:11.865,-670.0,1477.0,-72.0,-49.0,-153.0,-453.0,177,109,131,136,184,54,54,54
2025-02-19 16:24:11.876,495.0,475.0,337.0,179.0,-193.0,-462.0,179,110,133,138,185,56,205,56
2025-02-19 16:24:11.902,1732.0,-426.0,1322.0,283.0,-241.0,-423.0,176,105,129,132,182,51,612,51
2025-02-19 16:24:11.920,2883.0,-1319.0,2438.0,194.0,-139.0,-258.0,173,100,123,125,176,49,1017,45
2025-02-19 16:24:11.942,3002.0,-2042.0,2715.0,-83.0,-12.0,-86.0,189,117,140,141,191,81,1018,62
2025-02-19 16:24:11.957,2136.0,-2410.0,1798.0,-215.0,56.0,101.0,194,123,146,146,196,68,875,68
2025-02-19 16:24:11.974,1292.0,-1989.0,1128.0,-238.0,70.0,200.0,211,142,163,165,214,90,265,90
2025-02-19 16:24:11.994,559.0,-583.0,873.0,-102.0,37.0,211.0,184,115,136,140,189,61,62,62
2025-02-19 16:24:12.016,103.0,-110.0,1558.0,-122.0,48.0,223.0,163,93,115,120,166,227,37,36
2025-02-19 16:24:12.036,5.0,194.0,1991.0,-184.0,96.0,223.0,154,85,107,109,157,572,158,27
2025-02-19 16:24:12.054,78.0,45.0,1664.0,-251.0,161.0,244.0,165,96,119,127,164,807,675,40
2025-02-19 16:24:12.072,65.0,158.0,1880.0,-277.0,229.0,234.0,172,102,126,134,162,959,1016,209
2025-02-19 16:24:12.093,116.0,176.0,1508.0,-293.0,315.0,223.0,162,90,114,124,138,971,1017,597
2025-02-19 16:24:12.108,-222.0,-100.0,1095.0,-265.0,332.0,238.0,161,90,113,125,130,1016,737,796
2025-02-19 16:24:12.130,-63.0,276.0,966.0,-276.0,320.0,227.0,157,86,109,122,125,1017,575,1010
2025-02-19 16:24:12.150,-158.0,346.0,827.0,-240.0,306.0,190.0,159,89,112,125,127,1016,375,1010
2025-02-19 16:24:12.167,-390.0,55.0,351.0,-231.0,273.0,168.0,157,87,110,128,127,1017,145,1010
2025-02-19 16:24:12.187,-802.0,-68.0,-59.0,-160.0,282.0,118.0,194,128,151,168,170,706,1017,1009
2025-02-19 16:24:12.204,-724.0,327.0,-130.0,-51.0,250.0,49.0,191,125,148,167,169,304,1017,925
2025-02-19 16:24:12.225,-848.0,285.0,-417.0,-14.0,142.0,8.0,197,135,157,177,179,75,1018,545
2025-02-19 16:24:12.246,-760.0,-69.0,-645.0,-10.0,70.0,-16.0,199,144,161,182,185,79,1017,116
2025-02-19 16:24:12.259,-643.0,-17.0,-470.0,6.0,16.0,-15.0,191,142,156,178,180,71,1017,71
2025-02-19 16:24:12.283,-566.0,252.0,-504.0,49.0,-61.0,0.0,192,150,161,184,186,77,1018,77
2025-02-19 16:24:12.302,-592.0,840.0,-1026.0,59.0,-127.0,-21.0,167,131,138,161,165,50,1002,50
2025-02-19 16:24:12.320,-706.0,1555.0,-1835.0,15.0,-263.0,-195.0,181,149,153,176,180,66,1017,65
2025-02-19 16:24:12.340,-984.0,2177.0,-1288.0,-112.0,-307.0,-493.0,183,154,152,178,188,66,1017,67
2025-02-19 16:24:12.360,-335.0,2078.0,-253.0,15.0,-603.0,-799.0,192,166,157,183,197,73,1017,246
2025-02-19 16:24:12.375,1808.0,-842.0,2926.0,-280.0,-720.0,-920.0,193,178,162,187,200,76,1018,727
2025-02-19 16:24:12.397,2723.0,-1831.0,308.0,-151.0,-801.0,-669.0,197,187,171,196,206,83,1019,1010
2025-02-19 16:24:12.417,4974.0,-3344.0,612.0,-255.0,-489.0,-225.0,218,213,197,219,229,110,1013,1007
2025-02-19 16:24:12.434,3674.0,-5496.0,591.0,-118.0,-50.0,160.0,164,160,142,167,176,47,1016,847
2025-02-19 16:24:12.455,1876.0,-3262.0,259.0,284.0,331.0,260.0,138,134,118,141,151,152,1013,298
2025-02-19 16:24:12.471,298.0,-1475.0,440.0,241.0,323.0,273.0,132,126,110,134,145,766,490,11
2025-02-19 16:24:12.491,-114.0,-1278.0,615.0,0.0,228.0,319.0,136,131,114,138,149,1016,443,16
2025-02-19 16:24:12.509,-239.0,-1018.0,687.0,-135.0,116.0,323.0,169,162,147,171,180,942,778,53
2025-02-19 16:24:12.528,-83.0,-956.0,408.0,16.0,82.0,276.0,164,157,142,166,174,827,1016,46
2025-02-19 16:24:12.549,-61.0,-667.0,334.0,68.0,131.0,272.0,159,152,137,162,169,867,1015,138
2025-02-19 16:24:12.569,-314.0,-345.0,482.0,42.0,139.0,272.0,161,152,138,163,171,895,714,1008
2025-02-19 16:24:12.586,-307.0,-146.0,452.0,22.0,127.0,241.0,161,152,139,164,172,930,46,1009
2025-02-19 16:24:12.606,-159.0,-85.0,301.0,-12.0,114.0,215.0,152,142,129,153,162,1016,32,1008
2025-02-19 16:24:12.623,-201.0,-103.0,253.0,44.0,126.0,165.0,148,139,127,150,159,1016,28,1008
2025-02-19 16:24:12.643,-368.0,107.0,117.0,40.0,144.0,134.0,160,151,139,162,171,1015,42,889
2025-02-19 16:24:12.663,-829.0,403.0,62.0,40.0,109.0,94.0,164,155,144,167,175,982,47,657
2025-02-19 16:24:12.678,-848.0,888.0,-229.0,-36.0,30.0,44.0,156,146,135,159,167,1013,64,491
2025-02-19 16:24:12.700,-574.0,1238.0,-382.0,25.0,-5.0,-60.0,152,141,131,154,164,1016,196,736
2025-02-19 16:24:12.720,-1019.0,1550.0,-571.0,219.0,-19.0,-301.0,151,141,130,153,164,1015,225,1008
2025-02-19 16:24:12.738,-1315.0,1770.0,-835.0,104.0,-230.0,-538.0,152,144,130,155,165,1016,170,1008
2025-02-19 16:24:12.755,-290.0,-396.0,1086.0,39.0,-429.0,-714.0,149,144,129,152,163,1016,640,1008
2025-02-19 16:24:12.775,2055.0,-1198.0,1547.0,47.0,-608.0,-668.0,148,146,129,153,164,1015,1016,1009
2025-02-19 16:24:12.793,3859.0,-2092.0,-80.0,-155.0,-646.0,-394.0,144,145,127,150,160,1016,1015,1008
2025-02-19 16:24:12.810,3629.0,-4031.0,1216.0,-294.0,-202.0,-66.0,175,178,163,185,195,1003,1017,1012
2025-02-19 16:24:12.834,2376.0,-4349.0,930.0,37.0,132.0,126.0,198,200,185,206,215,413,1013,678
2025-02-19 16:24:12.852,748.0,-2107.0,710.0,241.0,280.0,176.0,183,184,169,190,200,73,1015,171
2025-02-19 16:24:12.871,-5.0,-1123.0,689.0,172.0,275.0,194.0,178,178,163,185,194,66,1014,67
2025-02-19 16:24:12.889,-249.0,-791.0,546.0,81.0,224.0,169.0,168,167,149,173,183,54,679,53
2025-02-19 16:24:12.909,-35.0,-702.0,485.0,42.0,140.0,119.0,166,164,145,171,181,52,216,51
2025-02-19 16:24:12.929,-173.0,-787.0,403.0,93.0,106.0,108.0,168,163,148,173,182,109,162,71
2025-02-19 16:24:12.946,54.0,-859.0,459.0,131.0,119.0,128.0,175,167,156,179,189,61,668,220
2025-02-19 16:24:12.966,24.0,-831.0,438.0,174.0,119.0,165.0,184,170,163,186,196,71,730,276
2025-02-19 16:24:12.987,39.0,-731.0,363.0,203.0,107.0,214.0,160,138,135,160,171,149,45,392
2025-02-19 16:24:13.004,130.0,-629.0,274.0,201.0,99.0,231.0,163,130,137,159,173,264,45,815
2025-02-19 16:24:13.024,-88.0,-669.0,172.0,196.0,115.0,257.0,174,127,145,163,184,343,59,820
2025-02-19 16:24:13.041,-79.0,-579.0,40.0,204.0,66.0,265.0,176,124,145,155,183,61,60,725
2025-02-19 16:24:13.061,-150.0,-516.0,25.0,183.0,13.0,266.0,167,108,133,140,170,50,50,770
2025-02-19 16:24:13.081,-196.0,-250.0,356.0,154.0,-28.0,278.0,173,109,135,137,174,56,55,997
2025-02-19 16:24:13.099,-216.0,473.0,231.0,158.0,-85.0,247.0,176,109,133,133,176,58,57,1008
2025-02-19 16:24:13.118,-504.0,1387.0,584.0,253.0,-92.0,91.0,172,107,130,127,178,58,58,1008
2025-02-19 16:24:13.139,-761.0,2220.0,1058.0,361.0,-24.0,-72.0,169,108,128,128,182,61,61,1007
2025-02-19 16:24:13.156,-1275.0,3274.0,452.0,359.0,1.0,-285.0,160,102,118,120,176,56,55,1009
2025-02-19 16:24:13.175,-1542.0,3264.0,152.0,318.0,-97.0,-440.0,163,107,123,124,183,61,61,1007
2025-02-19 16:24:13.196,-845.0,2451.0,337.0,289.0,-266.0,-528.0,158,101,118,119,179,54,54,1001
2025-02-19 16:24:13.210,833.0,1095.0,1083.0,322.0,-410.0,-488.0,167,108,126,127,185,59,57,1009
