timestamp,ax,ay,az,gx,gy,gz,flex1,flex2,flex3,flex4,flex5,emg1,emg2,emg3
2025-02-26 15:23:58.263,-361.0,-64.0,977.0,-2.0,-3.0,-2.0,140,112,110,130,117
2025-02-26 15:23:58.265,-359.0,-67.0,981.0,-1.0,-3.0,-1.0,140,113,109,130,120
2025-02-26 15:23:58.267,-363.0,-62.0,980.0,-1.0,-3.0,-1.0,137,114,108,126,118
2025-02-26 15:23:58.270,-365.0,-53.0,980.0,0.0,-3.0,-1.0,141,113,109,130,119
2025-02-26 15:23:58.272,-361.0,-54.0,979.0,0.0,-3.0,-1.0,140,114,110,131,120
2025-02-26 15:23:58.275,-362.0,-53.0,982.0,0.0,-3.0,-1.0,139,112,108,130,119
2025-02-26 15:23:58.277,-369.0,-46.0,980.0,-1.0,-3.0,0.0,136,114,109,125,118
2025-02-26 15:23:58.279,-370.0,-38.0,981.0,-1.0,-4.0,0.0,138,112,108,129,118
2025-02-26 15:23:58.281,-363.0,-36.0,981.0,-2.0,-3.0,0.0,141,112,107,128,120
2025-02-26 15:23:58.283,-372.0,-42.0,981.0,-2.0,-3.0,0.0,139,114,106,129,120
2025-02-26 15:23:58.283,-367.0,-42.0,987.0,-2.0,-4.0,1.0,139,113,107,130,118
2025-02-26 15:23:58.283,-373.0,-42.0,986.0,-2.0,-3.0,1.0,138,112,108,128,117
2025-02-26 15:23:58.289,-369.0,-40.0,981.0,-2.0,-3.0,1.0,142,114,110,131,120
2025-02-26 15:23:58.293,-373.0,-41.0,984.0,-2.0,-3.0,1.0,139,113,108,128,118
2025-02-26 15:23:58.296,-370.0,-35.0,983.0,-1.0,-2.0,1.0,138,112,108,127,117
2025-02-26 15:23:58.296,-375.0,-32.0,982.0,0.0,-1.0,1.0,140,115,109,129,119
2025-02-26 15:23:58.296,-376.0,-22.0,987.0,0.0,-2.0,1.0,139,113,108,131,120
2025-02-26 15:23:58.302,-377.0,-24.0,984.0,1.0,-1.0,1.0,140,114,111,130,119
2025-02-26 15:23:58.302,-381.0,-22.0,985.0,2.0,0.0,1.0,140,114,109,129,119
2025-02-26 15:23:58.302,-381.0,-13.0,985.0,1.0,0.0,1.0,138,112,107,128,117
2025-02-26 15:23:58.309,-386.0,-15.0,985.0,1.0,1.0,1.0,141,114,110,130,120
2025-02-26 15:23:58.311,-388.0,-5.0,987.0,1.0,1.0,0.0,140,113,109,128,119
2025-02-26 15:23:58.314,-396.0,-7.0,977.0,1.0,1.0,0.0,138,112,107,128,118
2025-02-26 15:23:58.314,-399.0,-3.0,975.0,0.0,1.0,0.0,139,113,109,130,119
2025-02-26 15:23:58.314,-400.0,-5.0,975.0,0.0,1.0,-1.0,141,114,110,132,120
2025-02-26 15:23:58.314,-407.0,-6.0,972.0,0.0,1.0,-1.0,139,113,108,128,118
2025-02-26 15:23:58.314,-404.0,-6.0,972.0,-1.0,1.0,-1.0,139,113,109,129,119
2025-02-26 15:23:58.314,-403.0,-10.0,967.0,-1.0,1.0,-1.0,138,113,109,129,118
2025-02-26 15:23:58.314,-407.0,-8.0,966.0,-2.0,1.0,-1.0,140,114,110,130,119
2025-02-26 15:23:58.329,-407.0,-9.0,963.0,-2.0,1.0,-1.0,140,113,109,131,120
2025-02-26 15:23:58.332,-404.0,-3.0,964.0,-2.0,1.0,-2.0,139,112,108,127,117
2025-02-26 15:23:58.334,-408.0,0.0,960.0,-2.0,2.0,-2.0,138,111,107,128,117
2025-02-26 15:23:58.337,-402.0,-6.0,955.0,-2.0,2.0,-3.0,140,115,110,131,120
2025-02-26 15:23:58.338,-403.0,-14.0,949.0,-2.0,2.0,-3.0,139,113,109,128,117
2025-02-26 15:23:58.338,-403.0,-15.0,947.0,-2.0,2.0,-3.0,137,115,108,129,119
2025-02-26 15:23:58.338,-399.0,-14.0,945.0,-1.0,2.0,-4.0,139,114,110,129,119
2025-02-26 15:23:58.344,-399.0,-27.0,945.0,-1.0,2.0,-4.0,139,113,109,129,117
2025-02-26 15:23:58.348,-393.0,-25.0,941.0,-1.0,2.0,-4.0,141,113,108,128,118
2025-02-26 15:23:58.349,-391.0,-33.0,939.0,0.0,1.0,-3.0,140,113,110,129,119
2025-02-26 15:23:58.353,-391.0,-37.0,936.0,0.0,1.0,-3.0,138,113,107,127,117
2025-02-26 15:23:58.355,-386.0,-35.0,936.0,0.0,1.0,-3.0,139,114,110,129,119
2025-02-26 15:23:58.356,-382.0,-37.0,940.0,0.0,0.0,-3.0,139,114,109,130,120
2025-02-26 15:23:58.359,-382.0,-37.0,940.0,0.0,1.0,-3.0,138,113,108,128,119
2025-02-26 15:23:58.362,-378.0,-37.0,937.0,0.0,0.0,-3.0,139,111,109,128,121
2025-02-26 15:23:58.362,-376.0,-37.0,939.0,0.0,0.0,-3.0,139,113,107,128,119
2025-02-26 15:23:58.366,-381.0,-39.0,939.0,-1.0,0.0,-3.0,139,113,108,129,118
2025-02-26 15:23:58.371,-378.0,-40.0,934.0,-1.0,0.0,-3.0,139,113,109,130,120
2025-02-26 15:23:58.375,-379.0,-39.0,933.0,-2.0,0.0,-3.0,139,113,109,128,119
2025-02-26 15:23:58.378,-377.0,-37.0,929.0,-2.0,-1.0,-3.0,138,112,108,128,119
2025-02-26 15:23:58.384,-377.0,-40.0,927.0,-2.0,-1.0,-4.0,140,114,109,130,120
2025-02-26 15:23:58.386,-375.0,-44.0,927.0,-2.0,-2.0,-4.0,140,113,109,128,118
2025-02-26 15:23:58.396,-371.0,-41.0,929.0,-2.0,-2.0,-3.0,139,114,107,129,118
2025-02-26 15:23:58.401,-377.0,-44.0,929.0,-1.0,-3.0,-3.0,139,114,109,130,118
2025-02-26 15:23:58.405,-366.0,-42.0,929.0,-1.0,-4.0,-3.0,141,113,108,130,120
2025-02-26 15:23:58.409,-367.0,-41.0,933.0,-1.0,-4.0,-3.0,139,113,108,128,118
2025-02-26 15:23:58.417,-363.0,-40.0,929.0,-1.0,-4.0,-3.0,138,112,104,128,118
2025-02-26 15:23:58.421,-370.0,-43.0,933.0,-1.0,-4.0,-3.0,140,114,109,128,119
2025-02-26 15:23:58.425,-376.0,-48.0,935.0,-1.0,-4.0,-2.0,139,112,109,130,120
2025-02-26 15:23:58.429,-372.0,-49.0,936.0,0.0,-4.0,-2.0,139,113,109,129,118
2025-02-26 15:23:58.437,-369.0,-51.0,940.0,1.0,-5.0,-2.0,141,113,107,128,118
2025-02-26 15:23:58.441,-372.0,-50.0,940.0,2.0,-5.0,-1.0,139,114,109,130,119
2025-02-26 15:23:58.446,-371.0,-53.0,948.0,3.0,-6.0,-1.0,140,114,110,131,120
2025-02-26 15:23:58.447,-372.0,-46.0,956.0,4.0,-6.0,0.0,138,112,108,128,118
2025-02-26 15:23:58.457,-375.0,-45.0,959.0,6.0,-7.0,0.0,139,114,109,130,119
2025-02-26 15:23:58.461,-377.0,-35.0,972.0,6.0,-6.0,1.0,140,113,108,129,119
2025-02-26 15:23:58.465,-375.0,-28.0,982.0,7.0,-6.0,1.0,138,112,108,128,118
2025-02-26 15:23:58.465,-379.0,-22.0,990.0,7.0,-6.0,1.0,142,114,110,129,119
2025-02-26 15:23:58.476,-376.0,-3.0,997.0,6.0,-5.0,1.0,139,114,110,130,119
2025-02-26 15:23:58.476,-382.0,2.0,998.0,6.0,-5.0,1.0,137,111,108,129,119
2025-02-26 15:23:58.487,-381.0,-1.0,1012.0,5.0,-4.0,1.0,139,110,110,129,123
2025-02-26 15:23:58.491,-386.0,-5.0,1015.0,4.0,-3.0,1.0,140,114,109,129,118
2025-02-26 15:23:58.494,-389.0,3.0,1008.0,4.0,-3.0,3.0,137,112,108,127,117
2025-02-26 15:23:58.503,-375.0,-36.0,989.0,0.0,-2.0,4.0,140,114,109,129,119
2025-02-26 15:23:58.505,-403.0,29.0,1013.0,0.0,0.0,5.0,138,114,109,129,119
2025-02-26 15:23:58.511,-376.0,-23.0,1015.0,0.0,1.0,6.0,139,112,108,128,118
2025-02-26 15:23:58.513,-396.0,-15.0,997.0,-1.0,1.0,5.0,140,113,109,128,119
2025-02-26 15:23:58.513,-385.0,13.0,986.0,1.0,2.0,3.0,141,113,109,129,118
2025-02-26 15:23:58.526,-392.0,15.0,997.0,2.0,2.0,1.0,139,113,108,130,119
2025-02-26 15:23:58.526,-392.0,7.0,985.0,1.0,2.0,0.0,139,113,110,130,120
2025-02-26 15:23:58.536,-395.0,12.0,987.0,1.0,3.0,-2.0,139,113,107,128,118
2025-02-26 15:23:58.538,-393.0,12.0,975.0,1.0,3.0,-4.0,138,111,107,127,118
2025-02-26 15:23:58.538,-395.0,-1.0,982.0,1.0,3.0,-4.0,139,114,110,130,120
2025-02-26 15:23:58.548,-396.0,0.0,980.0,1.0,3.0,-5.0,139,113,108,130,119
2025-02-26 15:23:58.552,-396.0,2.0,973.0,-1.0,3.0,-5.0,138,112,108,128,118
2025-02-26 15:23:58.560,-389.0,-1.0,976.0,-2.0,3.0,-5.0,138,113,109,130,119
2025-02-26 15:23:58.562,-388.0,2.0,965.0,-3.0,2.0,-5.0,140,114,110,131,120
2025-02-26 15:23:58.562,-389.0,-7.0,958.0,-6.0,3.0,-5.0,140,113,108,129,118
2025-02-26 15:23:58.573,-391.0,-12.0,960.0,-7.0,3.0,-5.0,140,113,108,129,119
2025-02-26 15:23:58.575,-373.0,-10.0,942.0,-7.0,3.0,-6.0,139,113,108,129,119
2025-02-26 15:23:58.584,-399.0,-34.0,943.0,-7.0,3.0,-6.0,139,112,108,128,119
2025-02-26 15:23:58.586,-396.0,-41.0,936.0,-7.0,3.0,-6.0,141,115,110,129,119
2025-02-26 15:23:58.593,-396.0,-56.0,936.0,-6.0,4.0,-6.0,139,114,109,130,119
2025-02-26 15:23:58.597,-397.0,-58.0,932.0,-6.0,4.0,-5.0,139,112,107,127,117
2025-02-26 15:23:58.604,-398.0,-54.0,926.0,-4.0,4.0,-5.0,140,115,110,131,120
2025-02-26 15:23:58.609,-393.0,-58.0,931.0,-2.0,3.0,-5.0,140,114,110,131,120
2025-02-26 15:23:58.613,-389.0,-60.0,933.0,-1.0,3.0,-5.0,139,112,108,128,119
2025-02-26 15:23:58.617,-386.0,-61.0,932.0,1.0,3.0,-4.0,136,112,107,128,117
2025-02-26 15:23:58.625,-390.0,-61.0,936.0,2.0,3.0,-4.0,142,115,111,129,120
2025-02-26 15:23:58.630,-392.0,-44.0,944.0,2.0,3.0,-4.0,140,113,108,129,118
2025-02-26 15:23:58.631,-387.0,-52.0,938.0,2.0,3.0,-4.0,138,112,108,128,118
2025-02-26 15:23:58.639,-389.0,-37.0,942.0,1.0,3.0,-4.0,140,113,108,130,120
2025-02-26 15:23:58.642,-399.0,-40.0,940.0,-1.0,3.0,-4.0,141,115,109,131,119
2025-02-26 15:23:58.650,-395.0,-41.0,936.0,-3.0,3.0,-4.0,139,113,108,129,118
2025-02-26 15:23:58.654,-393.0,-42.0,933.0,-5.0,3.0,-4.0,139,114,109,130,119
2025-02-26 15:23:58.659,-396.0,-46.0,928.0,-6.0,2.0,-4.0,139,113,109,129,119
2025-02-26 15:23:58.666,-400.0,-48.0,917.0,-8.0,2.0,-4.0,140,113,109,130,120
2025-02-26 15:23:58.670,-389.0,-58.0,912.0,-9.0,2.0,-4.0,138,113,108,129,118
2025-02-26 15:23:58.672,-389.0,-66.0,914.0,-9.0,3.0,-3.0,141,115,109,129,119
2025-02-26 15:23:58.679,-388.0,-77.0,906.0,-8.0,2.0,-3.0,139,112,108,129,118
2025-02-26 15:23:58.687,-390.0,-73.0,895.0,-7.0,2.0,-2.0,139,114,109,130,120
2025-02-26 15:23:58.691,-389.0,-63.0,895.0,-6.0,2.0,-2.0,140,114,109,129,119
2025-02-26 15:23:58.695,-389.0,-72.0,891.0,-5.0,2.0,-2.0,139,113,109,129,119
2025-02-26 15:23:58.700,-398.0,-65.0,886.0,-4.0,2.0,-1.0,138,112,109,128,117
2025-02-26 15:23:58.703,-396.0,-64.0,883.0,-2.0,1.0,-1.0,140,114,110,129,120
2025-02-26 15:23:58.709,-402.0,-53.0,882.0,-2.0,1.0,-1.0,140,114,110,129,119
2025-02-26 15:23:58.716,-403.0,-50.0,881.0,-1.0,0.0,-2.0,139,114,109,128,117
2025-02-26 15:23:58.720,-404.0,-45.0,878.0,-1.0,-1.0,-2.0,138,112,108,129,118
2025-02-26 15:23:58.724,-414.0,-40.0,884.0,-2.0,-2.0,-1.0,143,114,110,127,120
2025-02-26 15:23:58.732,-402.0,-38.0,882.0,-2.0,-3.0,-2.0,140,113,109,129,119
2025-02-26 15:23:58.736,-406.0,-41.0,885.0,-3.0,-3.0,-2.0,138,113,106,127,118
2025-02-26 15:23:58.741,-408.0,-42.0,893.0,-3.0,-5.0,-2.0,138,112,108,130,118
2025-02-26 15:23:58.745,-403.0,-48.0,891.0,-3.0,-5.0,-2.0,140,114,111,130,119
2025-02-26 15:23:58.752,-399.0,-50.0,895.0,-3.0,-6.0,-2.0,139,113,109,128,119
2025-02-26 15:23:58.757,-403.0,-47.0,900.0,-2.0,-7.0,-2.0,138,112,108,130,118
2025-02-26 15:23:58.761,-397.0,-53.0,903.0,-2.0,-8.0,-2.0,138,111,108,127,118
2025-02-26 15:23:58.763,-401.0,-47.0,910.0,-2.0,-9.0,-2.0,139,114,110,129,120
2025-02-26 15:23:58.773,-398.0,-48.0,923.0,-2.0,-9.0,-2.0,139,113,110,130,119
2025-02-26 15:23:58.775,-394.0,-47.0,936.0,-1.0,-9.0,-1.0,138,113,108,128,118
2025-02-26 15:23:58.781,-395.0,-51.0,946.0,-1.0,-9.0,-1.0,139,113,109,130,118
2025-02-26 15:23:58.786,-393.0,-41.0,951.0,0.0,-9.0,-1.0,140,113,111,130,119
2025-02-26 15:23:58.793,-389.0,-45.0,960.0,-1.0,-8.0,-2.0,139,113,108,128,117
2025-02-26 15:23:58.798,-392.0,-37.0,972.0,-1.0,-8.0,-1.0,139,112,108,128,118
2025-02-26 15:23:58.802,-383.0,-40.0,970.0,-1.0,-7.0,-2.0,140,115,110,130,116
2025-02-26 15:23:58.810,-383.0,-39.0,976.0,-1.0,-6.0,-1.0,140,114,109,129,120
2025-02-26 15:23:58.814,-389.0,-42.0,979.0,-1.0,-6.0,-1.0,138,113,109,129,118
2025-02-26 15:23:58.818,-382.0,-44.0,987.0,-1.0,-6.0,-1.0,139,112,107,128,118
2025-02-26 15:23:58.823,-386.0,-42.0,984.0,-1.0,-5.0,-1.0,141,115,111,131,121
2025-02-26 15:23:58.830,-382.0,-46.0,988.0,-1.0,-4.0,-1.0,140,114,109,129,120
2025-02-26 15:23:58.835,-387.0,-44.0,982.0,-1.0,-4.0,-1.0,138,112,108,129,118
2025-02-26 15:23:58.837,-376.0,-39.0,983.0,0.0,-4.0,-2.0,138,112,108,129,118
2025-02-26 15:23:58.843,-382.0,-37.0,980.0,1.0,-4.0,-1.0,141,115,111,131,121
2025-02-26 15:23:58.847,-379.0,-38.0,982.0,0.0,-3.0,-2.0,140,114,109,130,119
2025-02-26 15:23:58.854,-373.0,-29.0,982.0,0.0,-3.0,-2.0,139,113,108,128,118
2025-02-26 15:23:58.859,-376.0,-32.0,984.0,0.0,-3.0,-2.0,140,114,109,130,119
2025-02-26 15:23:58.861,-375.0,-37.0,982.0,-1.0,-3.0,-2.0,141,115,111,131,120
2025-02-26 15:23:58.868,-373.0,-42.0,989.0,-1.0,-3.0,-2.0,139,113,108,128,118
2025-02-26 15:23:58.875,-367.0,-45.0,984.0,-1.0,-3.0,-3.0,139,112,108,129,119
2025-02-26 15:23:58.880,-368.0,-49.0,983.0,-1.0,-3.0,-3.0,139,112,110,130,119
2025-02-26 15:23:58.884,-371.0,-47.0,983.0,-1.0,-3.0,-2.0,140,114,109,130,120
2025-02-26 15:23:58.888,-366.0,-52.0,984.0,-1.0,-3.0,-2.0,138,112,108,129,118
2025-02-26 15:23:58.895,-366.0,-52.0,986.0,0.0,-3.0,-2.0,138,112,108,128,118
2025-02-26 15:23:58.900,-367.0,-57.0,980.0,0.0,-2.0,-1.0,140,114,110,130,119
2025-02-26 15:23:58.904,-367.0,-58.0,987.0,0.0,-2.0,-1.0,140,115,111,131,120
2025-02-26 15:23:58.908,-365.0,-48.0,983.0,0.0,-2.0,-1.0,139,112,108,128,119
2025-02-26 15:23:58.916,-366.0,-48.0,986.0,1.0,-1.0,-1.0,139,114,109,129,119
2025-02-26 15:23:58.920,-365.0,-45.0,981.0,1.0,-1.0,-1.0,140,113,110,129,119
2025-02-26 15:23:58.925,-364.0,-43.0,982.0,0.0,-1.0,-1.0,140,114,109,129,119
2025-02-26 15:23:58.929,-364.0,-40.0,981.0,0.0,0.0,-1.0,137,112,107,128,118
2025-02-26 15:23:58.935,-366.0,-41.0,978.0,0.0,0.0,-1.0,140,114,109,129,119
2025-02-26 15:23:58.940,-367.0,-43.0,978.0,-1.0,0.0,-1.0,139,112,108,129,118
2025-02-26 15:23:58.945,-374.0,-45.0,974.0,-1.0,0.0,-1.0,139,113,108,129,119
2025-02-26 15:23:58.950,-366.0,-52.0,969.0,-1.0,0.0,-2.0,139,114,110,130,119
2025-02-26 15:23:58.956,-366.0,-49.0,971.0,-1.0,1.0,-2.0,139,113,108,128,118
2025-02-26 15:23:58.962,-370.0,-57.0,963.0,0.0,1.0,-2.0,138,112,107,129,117
2025-02-26 15:23:58.965,-377.0,-49.0,958.0,0.0,1.0,-1.0,140,114,110,132,120
2025-02-26 15:23:58.970,-380.0,-49.0,958.0,0.0,1.0,-1.0,140,113,108,129,119
2025-02-26 15:23:58.974,-380.0,-50.0,958.0,0.0,1.0,-1.0,138,112,108,129,118
2025-02-26 15:23:58.982,-381.0,-48.0,948.0,0.0,0.0,-1.0,139,113,109,129,119
2025-02-26 15:23:58.983,-384.0,-45.0,953.0,1.0,0.0,-1.0,140,114,110,129,120
2025-02-26 15:23:58.990,-381.0,-42.0,951.0,0.0,0.0,-1.0,141,113,108,128,119
2025-02-26 15:23:58.995,-386.0,-38.0,953.0,0.0,0.0,-1.0,139,112,108,127,117
2025-02-26 15:23:58.999,-384.0,-40.0,957.0,-1.0,-1.0,-1.0,140,115,108,128,119
2025-02-26 15:23:59.006,-383.0,-33.0,961.0,-1.0,0.0,-2.0,140,113,109,130,120
2025-02-26 15:23:59.011,-387.0,-35.0,963.0,-2.0,0.0,-1.0,138,113,108,129,118
2025-02-26 15:23:59.013,-382.0,-42.0,951.0,-3.0,0.0,-1.0,138,113,109,130,120
2025-02-26 15:23:59.019,-379.0,-34.0,957.0,-3.0,0.0,-1.0,138,115,109,129,119
2025-02-26 15:23:59.027,-389.0,-42.0,956.0,-2.0,0.0,-1.0,140,113,108,128,119
2025-02-26 15:23:59.031,-378.0,-49.0,962.0,-1.0,0.0,-1.0,140,113,109,129,119
2025-02-26 15:23:59.035,-380.0,-48.0,964.0,0.0,0.0,-1.0,139,113,109,130,120
2025-02-26 15:23:59.039,-380.0,-49.0,951.0,0.0,0.0,0.0,138,111,108,129,118
2025-02-26 15:23:59.044,-378.0,-49.0,961.0,0.0,0.0,0.0,139,112,108,129,119
2025-02-26 15:23:59.050,-378.0,-46.0,958.0,1.0,0.0,0.0,139,113,110,130,119
2025-02-26 15:23:59.055,-393.0,-30.0,943.0,0.0,0.0,0.0,138,113,108,127,117
2025-02-26 15:23:59.059,-392.0,-35.0,953.0,0.0,0.0,0.0,139,113,109,129,119
2025-02-26 15:23:59.064,-397.0,-45.0,956.0,-1.0,-1.0,0.0,140,114,111,132,121
2025-02-26 15:23:59.072,-394.0,-29.0,950.0,-1.0,-1.0,0.0,139,112,109,130,119
2025-02-26 15:23:59.076,-399.0,-25.0,954.0,-3.0,-2.0,0.0,137,112,107,129,117
2025-02-26 15:23:59.080,-397.0,-36.0,954.0,-3.0,-2.0,0.0,139,114,108,130,119
2025-02-26 15:23:59.084,-390.0,-33.0,958.0,-3.0,-2.0,-1.0,141,114,109,130,119
2025-02-26 15:23:59.088,-398.0,-40.0,964.0,-4.0,-2.0,0.0,139,112,108,129,118
2025-02-26 15:23:59.097,-393.0,-42.0,959.0,-4.0,-2.0,-1.0,139,113,109,128,119
2025-02-26 15:23:59.101,-393.0,-44.0,954.0,-4.0,-2.0,0.0,141,113,109,129,119
2025-02-26 15:23:59.105,-391.0,-47.0,958.0,-5.0,-2.0,0.0,140,113,109,129,119
2025-02-26 15:23:59.109,-386.0,-42.0,958.0,-4.0,-2.0,0.0,139,111,108,128,117
2025-02-26 15:23:59.117,-384.0,-43.0,955.0,-4.0,-2.0,0.0,139,114,109,128,119
2025-02-26 15:23:59.121,-386.0,-35.0,961.0,-4.0,-2.0,0.0,138,112,109,130,119
2025-02-26 15:23:59.125,-381.0,-36.0,959.0,-4.0,-2.0,0.0,139,113,108,130,118
2025-02-26 15:23:59.129,-379.0,-45.0,965.0,-3.0,-1.0,0.0,140,114,109,129,120
2025-02-26 15:23:59.137,-379.0,-47.0,963.0,-2.0,0.0,0.0,139,113,109,131,119
2025-02-26 15:23:59.141,-379.0,-57.0,963.0,0.0,0.0,0.0,139,113,107,127,117
2025-02-26 15:23:59.146,-385.0,-54.0,959.0,1.0,1.0,1.0,140,114,110,130,120
2025-02-26 15:23:59.150,-383.0,-52.0,959.0,2.0,1.0,1.0,141,114,109,130,119
2025-02-26 15:23:59.154,-386.0,-43.0,958.0,3.0,1.0,2.0,137,113,108,127,119
2025-02-26 15:23:59.162,-386.0,-40.0,955.0,3.0,1.0,2.0,139,113,109,129,119
2025-02-26 15:23:59.166,-386.0,-34.0,955.0,3.0,1.0,2.0,140,115,109,130,121
2025-02-26 15:23:59.170,-386.0,-29.0,955.0,2.0,1.0,2.0,139,111,108,128,118
2025-02-26 15:23:59.174,-390.0,-20.0,954.0,1.0,0.0,1.0,141,114,109,129,120
2025-02-26 15:23:59.178,-387.0,-18.0,955.0,0.0,0.0,1.0,140,113,109,130,119
2025-02-26 15:23:59.186,-380.0,-21.0,955.0,-1.0,0.0,1.0,140,113,107,129,119
2025-02-26 15:23:59.191,-380.0,-17.0,952.0,-3.0,0.0,1.0,139,114,109,128,120
2025-02-26 15:23:59.195,-378.0,-13.0,956.0,-3.0,0.0,0.0,139,113,109,129,118
2025-02-26 15:23:59.199,-371.0,-23.0,951.0,-4.0,0.0,0.0,138,112,108,129,118
2025-02-26 15:23:59.203,-371.0,-23.0,945.0,-5.0,0.0,0.0,141,115,110,130,120
2025-02-26 15:23:59.211,-375.0,-26.0,944.0,-5.0,-1.0,0.0,140,114,109,129,120
2025-02-26 15:23:59.216,-374.0,-37.0,936.0,-4.0,-1.0,0.0,138,112,108,128,117
2025-02-26 15:23:59.220,-369.0,-41.0,937.0,-2.0,-1.0,0.0,138,112,107,128,116
2025-02-26 15:23:59.224,-367.0,-42.0,936.0,0.0,-1.0,0.0,141,114,111,130,121
2025-02-26 15:23:59.231,-372.0,-40.0,938.0,1.0,-1.0,1.0,141,112,108,129,119
2025-02-26 15:23:59.236,-370.0,-42.0,939.0,2.0,-1.0,1.0,138,110,107,129,118
2025-02-26 15:23:59.240,-369.0,-35.0,934.0,3.0,0.0,1.0,140,114,109,129,119
2025-02-26 15:23:59.244,-369.0,-35.0,936.0,3.0,0.0,2.0,140,114,109,131,120
2025-02-26 15:23:59.249,-373.0,-33.0,935.0,3.0,-1.0,2.0,138,112,108,130,117
2025-02-26 15:23:59.256,-379.0,-22.0,934.0,2.0,-1.0,2.0,139,114,110,129,119
2025-02-26 15:23:59.260,-378.0,-17.0,931.0,1.0,-1.0,2.0,139,113,109,130,119
2025-02-26 15:23:59.265,-378.0,-13.0,928.0,0.0,-1.0,1.0,141,113,113,130,119
2025-02-26 15:23:59.275,-384.0,-9.0,927.0,-1.0,-2.0,1.0,140,114,109,130,119
2025-02-26 15:23:59.277,-374.0,-10.0,931.0,-2.0,-2.0,0.0,139,114,109,130,119
2025-02-26 15:23:59.281,-379.0,-9.0,927.0,-2.0,-2.0,0.0,139,113,106,127,117
2025-02-26 15:23:59.285,-381.0,-13.0,926.0,-2.0,-3.0,0.0,141,115,111,131,121
2025-02-26 15:23:59.289,-378.0,-19.0,931.0,-2.0,-3.0,-1.0,140,113,110,128,119
2025-02-26 15:23:59.294,-377.0,-22.0,923.0,-2.0,-3.0,-1.0,138,116,108,128,118
2025-02-26 15:23:59.301,-376.0,-26.0,919.0,-1.0,-3.0,-1.0,138,111,107,129,118
2025-02-26 15:23:59.305,-379.0,-28.0,921.0,0.0,-3.0,-1.0,140,113,110,131,120
2025-02-26 15:23:59.310,-381.0,-31.0,920.0,1.0,-3.0,0.0,139,113,109,130,118
2025-02-26 15:23:59.313,-387.0,-36.0,918.0,1.0,-3.0,0.0,140,112,108,129,118
2025-02-26 15:23:59.322,-388.0,-39.0,918.0,3.0,-3.0,0.0,141,114,110,130,119
2025-02-26 15:23:59.326,-393.0,-37.0,915.0,3.0,-3.0,0.0,141,115,111,133,121
2025-02-26 15:23:59.330,-396.0,-30.0,913.0,4.0,-3.0,0.0,139,113,110,129,120
2025-02-26 15:23:59.335,-398.0,-27.0,915.0,4.0,-4.0,-1.0,148,121,117,138,127
2025-02-26 15:23:59.339,-399.0,-22.0,916.0,4.0,-5.0,-1.0,157,130,125,146,135
2025-02-26 15:23:59.346,-397.0,-20.0,925.0,4.0,-5.0,-2.0,156,130,125,145,135
2025-02-26 15:23:59.350,-401.0,-28.0,918.0,4.0,-6.0,-2.0,156,130,125,146,137
2025-02-26 15:23:59.354,-403.0,-19.0,927.0,4.0,-6.0,-3.0,157,129,125,145,135
2025-02-26 15:23:59.359,-400.0,-23.0,928.0,4.0,-6.0,-3.0,154,129,124,145,134
2025-02-26 15:23:59.365,-396.0,-28.0,932.0,4.0,-6.0,-3.0,151,127,122,143,133
2025-02-26 15:23:59.371,-396.0,-25.0,934.0,4.0,-7.0,-3.0,155,129,126,145,134
2025-02-26 15:23:59.376,-389.0,-28.0,939.0,3.0,-7.0,-3.0,151,128,125,145,134
2025-02-26 15:23:59.380,-394.0,-38.0,944.0,3.0,-7.0,-3.0,151,126,122,142,131
2025-02-26 15:23:59.387,-387.0,-37.0,945.0,3.0,-7.0,-3.0,150,124,120,141,130
2025-02-26 15:23:59.392,-384.0,-37.0,950.0,3.0,-6.0,-3.0,159,134,129,149,139
2025-02-26 15:23:59.396,-388.0,-42.0,950.0,3.0,-7.0,-4.0,156,130,126,146,134
2025-02-26 15:23:59.400,-386.0,-37.0,958.0,3.0,-7.0,-4.0,161,134,129,150,139
2025-02-26 15:23:59.404,-388.0,-38.0,961.0,2.0,-6.0,-4.0,165,142,139,155,145
2025-02-26 15:23:59.411,-386.0,-36.0,964.0,2.0,-6.0,-4.0,164,138,134,154,144
2025-02-26 15:23:59.416,-382.0,-34.0,968.0,2.0,-6.0,-4.0,167,143,139,158,150
2025-02-26 15:23:59.420,-383.0,-39.0,973.0,2.0,-5.0,-4.0,172,144,140,160,150
2025-02-26 15:23:59.425,-393.0,-39.0,971.0,0.0,-4.0,-4.0,170,145,141,161,151
2025-02-26 15:23:59.432,-404.0,-71.0,979.0,2.0,-5.0,-4.0,168,142,137,157,147
2025-02-26 15:23:59.436,-370.0,-40.0,968.0,2.0,-5.0,-4.0,164,137,132,152,142
2025-02-26 15:23:59.441,-397.0,-46.0,984.0,-1.0,-6.0,-3.0,166,141,136,155,145
2025-02-26 15:23:59.444,-385.0,-52.0,988.0,0.0,-6.0,-3.0,155,129,125,146,135
2025-02-26 15:23:59.453,-370.0,-42.0,988.0,-1.0,-5.0,-3.0,167,142,136,158,147
2025-02-26 15:23:59.457,-370.0,-40.0,987.0,-1.0,-4.0,-4.0,174,149,144,162,154
2025-02-26 15:23:59.461,-383.0,-12.0,948.0,-3.0,-3.0,-3.0,174,148,147,163,154
2025-02-26 15:23:59.466,-366.0,-70.0,960.0,1.0,-4.0,-3.0,167,143,139,158,148
2025-02-26 15:23:59.473,-402.0,12.0,981.0,-4.0,-2.0,-4.0,165,140,134,156,145
2025-02-26 15:23:59.477,-399.0,-56.0,983.0,-4.0,-2.0,-4.0,169,144,140,159,150
2025-02-26 15:23:59.482,-399.0,-53.0,949.0,-6.0,-2.0,-4.0,156,130,126,146,135
2025-02-26 15:23:59.487,-366.0,-67.0,965.0,-3.0,-3.0,-4.0,160,133,131,149,140
2025-02-26 15:23:59.494,-384.0,-69.0,981.0,-5.0,-3.0,-4.0,158,131,127,148,137
2025-02-26 15:23:59.498,-370.0,-50.0,963.0,-6.0,-2.0,-6.0,161,137,132,153,142
2025-02-26 15:23:59.502,-383.0,-61.0,965.0,-7.0,-3.0,-5.0,164,138,134,154,144
2025-02-26 15:23:59.507,-381.0,-60.0,973.0,-7.0,-3.0,-5.0,161,135,131,153,142
2025-02-26 15:23:59.515,-364.0,-46.0,953.0,-8.0,-4.0,-5.0,166,140,135,158,146
2025-02-26 15:23:59.517,-355.0,-48.0,980.0,-6.0,-5.0,-5.0,162,137,132,151,142
2025-02-26 15:23:59.522,-351.0,-52.0,981.0,-9.0,-4.0,-5.0,168,141,137,157,148
2025-02-26 15:23:59.527,-376.0,-60.0,955.0,-7.0,-4.0,-4.0,166,140,136,158,147
2025-02-26 15:23:59.535,-350.0,-44.0,973.0,-9.0,-3.0,-4.0,165,139,135,156,146
2025-02-26 15:23:59.539,-369.0,-72.0,947.0,-6.0,-4.0,-4.0,170,144,139,159,149
2025-02-26 15:23:59.544,-358.0,-37.0,995.0,-7.0,-4.0,-4.0,165,140,136,156,146
2025-02-26 15:23:59.547,-379.0,-66.0,991.0,-6.0,-4.0,-4.0,168,142,139,159,148
2025-02-26 15:23:59.555,-350.0,-51.0,985.0,-6.0,-4.0,-4.0,162,137,132,151,141
2025-02-26 15:23:59.560,-362.0,-46.0,1000.0,-6.0,-3.0,-4.0,163,136,131,151,142
2025-02-26 15:23:59.564,-371.0,-46.0,967.0,-4.0,-3.0,-4.0,163,137,135,153,144
2025-02-26 15:23:59.568,-359.0,-52.0,976.0,-5.0,-3.0,-4.0,158,133,128,148,135
2025-02-26 15:23:59.576,-358.0,-66.0,994.0,-5.0,-3.0,-4.0,158,132,128,148,138
2025-02-26 15:23:59.580,-356.0,-53.0,986.0,-6.0,-3.0,-4.0,160,133,130,150,140
2025-02-26 15:23:59.584,-352.0,-40.0,990.0,-6.0,-2.0,-4.0,162,137,134,154,142
2025-02-26 15:23:59.591,-360.0,-44.0,993.0,-7.0,-2.0,-3.0,156,132,127,147,136
2025-02-26 15:23:59.596,-358.0,-58.0,989.0,-8.0,-2.0,-4.0,159,132,129,148,138
2025-02-26 15:23:59.600,-368.0,-53.0,973.0,-6.0,-2.0,-3.0,161,136,131,152,141
2025-02-26 15:23:59.605,-348.0,-46.0,975.0,-7.0,-3.0,-4.0,164,140,134,155,145
2025-02-26 15:23:59.613,-358.0,-60.0,985.0,-5.0,-2.0,-3.0,166,140,135,156,145
2025-02-26 15:23:59.616,-346.0,-54.0,977.0,-6.0,-2.0,-3.0,167,141,137,158,147
2025-02-26 15:23:59.619,-353.0,-62.0,958.0,-7.0,-1.0,-3.0,166,139,136,156,146
2025-02-26 15:23:59.625,-340.0,-40.0,972.0,-7.0,-1.0,-3.0,164,138,136,155,146
2025-02-26 15:23:59.632,-344.0,-60.0,960.0,-3.0,-2.0,-3.0,165,139,136,155,146
2025-02-26 15:23:59.638,-336.0,-48.0,964.0,0.0,-4.0,-2.0,171,145,141,160,152
2025-02-26 15:23:59.642,-339.0,-82.0,958.0,1.0,-3.0,-1.0,171,143,141,160,150
2025-02-26 15:23:59.645,-334.0,-75.0,951.0,1.0,-4.0,-1.0,165,140,137,156,145
2025-02-26 15:23:59.648,-307.0,-64.0,950.0,0.0,-3.0,-1.0,159,133,130,149,138
2025-02-26 15:23:59.654,-351.0,-80.0,992.0,-1.0,-2.0,-1.0,158,134,129,145,139
2025-02-26 15:23:59.660,-326.0,-41.0,979.0,0.0,-3.0,0.0,155,129,127,146,136
2025-02-26 15:23:59.666,-338.0,-50.0,967.0,1.0,-3.0,0.0,158,128,125,143,134
2025-02-26 15:23:59.671,-314.0,-79.0,1009.0,-3.0,0.0,0.0,156,131,128,147,136
2025-02-26 15:23:59.678,-350.0,-66.0,955.0,-1.0,-1.0,1.0,155,127,124,144,134
2025-02-26 15:23:59.678,-338.0,-57.0,956.0,-2.0,-2.0,1.0,153,127,123,143,132
2025-02-26 15:23:59.684,-345.0,-62.0,958.0,2.0,-2.0,1.0,157,137,127,147,135
2025-02-26 15:23:59.691,-338.0,-36.0,977.0,4.0,-3.0,1.0,156,131,125,146,135
2025-02-26 15:23:59.698,-351.0,-39.0,970.0,1.0,-3.0,1.0,153,128,121,141,133
2025-02-26 15:23:59.703,-352.0,-56.0,978.0,3.0,-2.0,1.0,157,128,123,143,133
2025-02-26 15:23:59.703,-359.0,-53.0,975.0,2.0,-2.0,1.0,154,129,127,145,136
2025-02-26 15:23:59.711,-334.0,-41.0,978.0,0.0,-2.0,2.0,151,127,121,141,132
2025-02-26 15:23:59.715,-366.0,-57.0,972.0,1.0,-2.0,2.0,154,127,124,142,133
2025-02-26 15:23:59.723,-344.0,-24.0,991.0,2.0,-2.0,3.0,154,129,124,143,133
2025-02-26 15:23:59.728,-355.0,-27.0,986.0,0.0,-1.0,3.0,159,133,130,149,137
2025-02-26 15:23:59.732,-340.0,-31.0,997.0,1.0,-1.0,3.0,142,114,110,132,121
2025-02-26 15:23:59.735,-378.0,-38.0,942.0,0.0,-2.0,3.0,139,112,107,127,117
2025-02-26 15:23:59.739,-388.0,-37.0,988.0,2.0,-3.0,4.0,138,113,109,130,118
2025-02-26 15:23:59.747,-361.0,-11.0,1024.0,-1.0,-2.0,4.0,138,112,108,130,118
2025-02-26 15:23:59.751,-366.0,-43.0,993.0,-3.0,-3.0,3.0,140,111,108,129,117
2025-02-26 15:23:59.756,-363.0,-7.0,994.0,-1.0,-2.0,2.0,138,113,105,128,118
2025-02-26 15:23:59.760,-384.0,-40.0,978.0,1.0,-2.0,2.0,136,111,108,130,116
2025-02-26 15:23:59.768,-357.0,-18.0,1023.0,2.0,-1.0,2.0,139,113,107,129,119
2025-02-26 15:23:59.773,-366.0,-18.0,993.0,1.0,-2.0,2.0,140,111,107,127,118
2025-02-26 15:23:59.776,-375.0,-7.0,1000.0,2.0,-1.0,3.0,139,111,106,127,116
2025-02-26 15:23:59.781,-393.0,-27.0,1000.0,5.0,-2.0,3.0,137,110,105,127,116
2025-02-26 15:23:59.785,-374.0,-17.0,1009.0,6.0,-1.0,2.0,139,111,109,129,119
2025-02-26 15:23:59.793,-386.0,-7.0,1005.0,5.0,-2.0,3.0,137,111,108,126,118
2025-02-26 15:23:59.797,-373.0,9.0,1000.0,2.0,-1.0,3.0,132,111,108,126,116
2025-02-26 15:23:59.801,-369.0,0.0,1017.0,2.0,-2.0,2.0,138,110,105,126,116
2025-02-26 15:23:59.806,-386.0,-1.0,1009.0,0.0,-1.0,2.0,137,112,106,127,116
2025-02-26 15:23:59.812,-375.0,4.0,1008.0,-1.0,-1.0,2.0,135,110,105,128,117
2025-02-26 15:23:59.817,-367.0,-4.0,1002.0,-3.0,0.0,1.0,138,112,107,129,117
2025-02-26 15:23:59.818,-371.0,-22.0,1017.0,-5.0,2.0,0.0,137,111,108,128,117
2025-02-26 15:23:59.826,-367.0,-1.0,973.0,-3.0,2.0,0.0,139,111,107,126,116
2025-02-26 15:23:59.830,-378.0,-22.0,1010.0,-1.0,3.0,0.0,140,113,108,127,117
2025-02-26 15:23:59.836,-359.0,-9.0,1008.0,0.0,3.0,-1.0,138,113,107,127,117
2025-02-26 15:23:59.842,-351.0,-24.0,993.0,0.0,4.0,0.0,140,111,105,125,115
2025-02-26 15:23:59.846,-356.0,-18.0,980.0,-2.0,6.0,0.0,138,111,109,129,118
2025-02-26 15:23:59.850,-358.0,-8.0,979.0,-1.0,6.0,0.0,137,111,107,128,117
2025-02-26 15:23:59.854,-365.0,-30.0,966.0,-4.0,6.0,0.0,136,109,104,126,116
2025-02-26 15:23:59.862,-367.0,-25.0,980.0,-1.0,8.0,0.0,137,112,105,128,118
2025-02-26 15:23:59.867,-383.0,-32.0,933.0,-2.0,6.0,0.0,138,111,109,128,117
2025-02-26 15:23:59.871,-380.0,-28.0,961.0,-1.0,4.0,-2.0,137,111,107,126,116
2025-02-26 15:23:59.875,-370.0,-5.0,965.0,-6.0,4.0,-2.0,139,110,105,128,115
2025-02-26 15:23:59.883,-347.0,21.0,978.0,-7.0,5.0,-2.0,137,110,106,126,116
2025-02-26 15:23:59.887,-398.0,-16.0,916.0,-8.0,4.0,-3.0,137,109,106,126,118
2025-02-26 15:23:59.891,-381.0,-32.0,916.0,-7.0,3.0,-3.0,135,108,106,126,114
2025-02-26 15:23:59.895,-360.0,-37.0,970.0,-7.0,5.0,-3.0,138,110,106,127,116
2025-02-26 15:23:59.900,-347.0,-51.0,955.0,-6.0,5.0,-4.0,138,111,106,128,116
2025-02-26 15:23:59.908,-356.0,-64.0,948.0,-3.0,6.0,-3.0,138,111,106,126,117
2025-02-26 15:23:59.910,-342.0,-66.0,938.0,-1.0,6.0,-2.0,137,111,107,127,117
2025-02-26 15:23:59.917,-338.0,-62.0,961.0,0.0,8.0,-2.0,136,110,105,126,116
2025-02-26 15:23:59.921,-356.0,-70.0,958.0,2.0,7.0,-2.0,135,110,106,126,116
2025-02-26 15:23:59.928,-334.0,-43.0,948.0,4.0,7.0,-1.0,135,112,106,127,117
2025-02-26 15:23:59.932,-373.0,-75.0,943.0,3.0,6.0,0.0,137,108,106,128,117
2025-02-26 15:23:59.936,-352.0,-56.0,949.0,3.0,5.0,-2.0,136,109,105,126,115
2025-02-26 15:23:59.941,-356.0,-31.0,944.0,2.0,4.0,-1.0,136,110,107,127,116
2025-02-26 15:23:59.945,-359.0,-6.0,959.0,-3.0,4.0,-1.0,139,113,107,126,117
2025-02-26 15:23:59.953,-360.0,-46.0,970.0,-4.0,4.0,-1.0,136,110,105,126,116
2025-02-26 15:23:59.957,-366.0,-49.0,945.0,-6.0,3.0,-2.0,136,108,105,125,114
2025-02-26 15:23:59.961,-351.0,-21.0,934.0,-8.0,2.0,-2.0,137,111,106,127,116
2025-02-26 15:23:59.966,-363.0,-21.0,953.0,-8.0,3.0,-2.0,137,112,107,128,117
2025-02-26 15:23:59.973,-354.0,-51.0,943.0,-8.0,3.0,-2.0,137,110,106,127,116
2025-02-26 15:23:59.977,-360.0,-84.0,944.0,-7.0,3.0,-2.0,138,111,107,128,115
2025-02-26 15:23:59.981,-347.0,-87.0,946.0,-4.0,4.0,-2.0,136,110,106,125,116
2025-02-26 15:23:59.986,-352.0,-92.0,920.0,-3.0,4.0,-1.0,137,112,107,128,116
2025-02-26 15:23:59.990,-358.0,-97.0,940.0,-2.0,5.0,0.0,138,109,106,125,115
2025-02-26 15:23:59.997,-359.0,-63.0,911.0,1.0,4.0,1.0,137,110,107,126,116
2025-02-26 15:24:00.002,-350.0,-64.0,906.0,3.0,5.0,1.0,137,110,104,125,116
2025-02-26 15:24:00.005,-369.0,-53.0,945.0,3.0,3.0,0.0,136,110,106,126,116
2025-02-26 15:24:00.010,-385.0,-55.0,901.0,2.0,2.0,2.0,137,111,107,127,116
2025-02-26 15:24:00.015,-391.0,-44.0,915.0,2.0,1.0,1.0,136,109,105,126,115
2025-02-26 15:24:00.021,-394.0,-51.0,952.0,1.0,0.0,0.0,139,111,106,125,117
2025-02-26 15:24:00.026,-396.0,-27.0,939.0,-1.0,-1.0,0.0,139,111,106,126,116
2025-02-26 15:24:00.030,-385.0,-39.0,960.0,-4.0,0.0,-1.0,136,110,105,124,115
2025-02-26 15:24:00.035,-375.0,-33.0,970.0,-5.0,-1.0,-1.0,135,108,103,125,115
2025-02-26 15:24:00.042,-370.0,-33.0,951.0,-3.0,0.0,0.0,137,109,104,125,116
2025-02-26 15:24:00.046,-369.0,-47.0,951.0,-5.0,1.0,-1.0,136,111,107,127,116
2025-02-26 15:24:00.048,-375.0,-63.0,933.0,-3.0,0.0,0.0,137,110,104,126,114
2025-02-26 15:24:00.055,-364.0,-42.0,984.0,0.0,1.0,0.0,135,109,106,127,117
2025-02-26 15:24:00.060,-389.0,-53.0,950.0,1.0,1.0,1.0,136,110,105,127,115
2025-02-26 15:24:00.067,-374.0,-57.0,989.0,1.0,3.0,1.0,136,110,107,126,115
2025-02-26 15:24:00.071,-372.0,-36.0,948.0,2.0,2.0,1.0,135,111,106,127,116
2025-02-26 15:24:00.072,-385.0,-34.0,965.0,2.0,2.0,2.0,135,109,107,125,116
2025-02-26 15:24:00.080,-404.0,-33.0,950.0,3.0,1.0,1.0,136,108,106,130,115
2025-02-26 15:24:00.084,-396.0,-36.0,966.0,3.0,1.0,1.0,137,110,106,127,117
2025-02-26 15:24:00.091,-389.0,-23.0,976.0,2.0,1.0,1.0,136,110,104,126,116
2025-02-26 15:24:00.095,-393.0,-31.0,956.0,0.0,1.0,1.0,137,110,106,125,115
2025-02-26 15:24:00.100,-400.0,-19.0,978.0,0.0,0.0,0.0,138,114,109,129,119
2025-02-26 15:24:00.105,-388.0,-3.0,1000.0,-2.0,1.0,0.0,141,116,112,133,123
2025-02-26 15:24:00.109,-411.0,-19.0,967.0,-3.0,1.0,0.0,145,120,114,135,125
2025-02-26 15:24:00.116,-405.0,-11.0,980.0,-7.0,2.0,0.0,148,123,118,139,128
2025-02-26 15:24:00.121,-405.0,-15.0,981.0,-3.0,1.0,0.0,149,126,124,140,131
2025-02-26 15:24:00.125,-409.0,-15.0,996.0,-3.0,2.0,0.0,155,125,123,145,134
2025-02-26 15:24:00.129,-403.0,8.0,927.0,-8.0,3.0,-1.0,150,125,121,140,130
2025-02-26 15:24:00.133,-400.0,-79.0,935.0,-1.0,1.0,0.0,147,122,116,137,128
2025-02-26 15:24:00.141,-388.0,-33.0,986.0,0.0,3.0,-1.0,146,121,119,138,127
2025-02-26 15:24:00.146,-417.0,-61.0,908.0,-6.0,5.0,0.0,153,128,121,142,130
2025-02-26 15:24:00.149,-355.0,-31.0,996.0,-6.0,6.0,0.0,150,124,120,139,130
2025-02-26 15:24:00.153,-404.0,-51.0,960.0,-4.0,5.0,0.0,145,121,117,139,127
2025-02-26 15:24:00.161,-370.0,-28.0,945.0,-2.0,5.0,1.0,149,123,119,141,130
2025-02-26 15:24:00.165,-414.0,-67.0,946.0,2.0,3.0,2.0,150,122,118,138,129
2025-02-26 15:24:00.168,-394.0,-36.0,960.0,2.0,3.0,1.0,147,122,116,137,126
2025-02-26 15:24:00.174,-393.0,-34.0,950.0,3.0,2.0,0.0,147,124,119,138,128
2025-02-26 15:24:00.179,-429.0,-41.0,958.0,4.0,1.0,1.0,147,124,119,138,128
2025-02-26 15:24:00.183,-409.0,-26.0,962.0,2.0,1.0,1.0,145,121,117,137,128
2025-02-26 15:24:00.190,-384.0,-33.0,972.0,1.0,2.0,2.0,151,124,120,138,128
2025-02-26 15:24:00.194,-395.0,-11.0,959.0,0.0,3.0,2.0,149,122,117,139,129
2025-02-26 15:24:00.199,-395.0,-37.0,965.0,-3.0,3.0,1.0,145,120,115,136,130
2025-02-26 15:24:00.201,-381.0,-7.0,975.0,-4.0,3.0,0.0,146,122,115,136,127
2025-02-26 15:24:00.206,-407.0,-28.0,979.0,-4.0,3.0,-1.0,145,121,117,136,127
2025-02-26 15:24:00.211,-390.0,-17.0,938.0,-2.0,3.0,-2.0,147,121,116,136,125
2025-02-26 15:24:00.218,-389.0,-37.0,952.0,0.0,2.0,-3.0,145,119,117,136,126
2025-02-26 15:24:00.223,-384.0,-50.0,937.0,-1.0,3.0,-3.0,146,120,114,135,126
2025-02-26 15:24:00.228,-375.0,-44.0,927.0,-2.0,3.0,-3.0,146,121,116,135,125
2025-02-26 15:24:00.234,-388.0,-49.0,926.0,-2.0,4.0,-3.0,146,121,116,135,126
2025-02-26 15:24:00.239,-387.0,-67.0,937.0,-2.0,4.0,-3.0,145,117,113,135,123
2025-02-26 15:24:00.242,-395.0,-55.0,939.0,-2.0,4.0,-2.0,143,115,112,132,122
2025-02-26 15:24:00.248,-373.0,-66.0,921.0,-4.0,3.0,-2.0,142,116,112,133,122
2025-02-26 15:24:00.254,-379.0,-39.0,932.0,-5.0,3.0,-2.0,144,118,112,134,124
2025-02-26 15:24:00.260,-374.0,-49.0,923.0,-6.0,1.0,-3.0,143,118,114,134,123
2025-02-26 15:24:00.264,-375.0,-45.0,932.0,-6.0,1.0,-3.0,141,118,113,130,121
2025-02-26 15:24:00.268,-389.0,-53.0,936.0,-8.0,1.0,-3.0,144,117,113,135,123
2025-02-26 15:24:00.272,-379.0,-30.0,942.0,-7.0,0.0,-4.0,141,116,112,133,123
2025-02-26 15:24:00.280,-390.0,-52.0,918.0,-10.0,-1.0,-4.0,142,116,111,132,121
2025-02-26 15:24:00.284,-389.0,-54.0,913.0,-9.0,-2.0,-5.0,143,116,110,132,121
2025-02-26 15:24:00.289,-378.0,-56.0,930.0,-9.0,-2.0,-5.0,142,117,112,133,123
2025-02-26 15:24:00.296,-376.0,-30.0,944.0,-9.0,-3.0,-5.0,143,119,113,132,122
2025-02-26 15:24:00.296,-377.0,-37.0,947.0,-9.0,-2.0,-5.0,142,117,111,132,122
2025-02-26 15:24:00.302,-385.0,-43.0,964.0,-10.0,-3.0,-4.0,144,117,112,133,123
2025-02-26 15:24:00.309,-368.0,-24.0,965.0,-8.0,-5.0,-5.0,143,117,112,135,125
2025-02-26 15:24:00.317,-377.0,-21.0,951.0,-9.0,-3.0,-6.0,144,115,112,133,122
2025-02-26 15:24:00.321,-390.0,-78.0,1005.0,-13.0,-3.0,-7.0,144,118,112,131,120
2025-02-26 15:24:00.326,-350.0,-1.0,982.0,-16.0,-3.0,-7.0,143,117,111,132,123
2025-02-26 15:24:00.329,-364.0,-12.0,985.0,-16.0,-3.0,-8.0,144,118,112,133,122
2025-02-26 15:24:00.337,-375.0,-10.0,971.0,-17.0,-2.0,-9.0,141,117,113,133,122
2025-02-26 15:24:00.341,-380.0,-30.0,898.0,-17.0,-3.0,-11.0,142,115,110,129,120
2025-02-26 15:24:00.346,-371.0,-42.0,982.0,-19.0,-1.0,-12.0,144,115,110,132,121
2025-02-26 15:24:00.354,-394.0,-58.0,968.0,-19.0,-1.0,-12.0,142,118,111,133,123
2025-02-26 15:24:00.358,-383.0,-67.0,913.0,-20.0,-1.0,-11.0,143,117,104,131,121
2025-02-26 15:24:00.363,-370.0,-67.0,956.0,-19.0,-2.0,-10.0,144,117,112,132,121
2025-02-26 15:24:00.370,-389.0,-114.0,916.0,-14.0,-2.0,-10.0,143,116,109,131,121
2025-02-26 15:24:00.374,-389.0,-119.0,942.0,-10.0,-4.0,-9.0,141,117,111,131,121
2025-02-26 15:24:00.377,-361.0,-109.0,939.0,-8.0,-3.0,-9.0,142,116,112,130,122
2025-02-26 15:24:00.383,-373.0,-102.0,939.0,-7.0,-2.0,-7.0,142,117,110,134,122
2025-02-26 15:24:00.389,-364.0,-102.0,940.0,-7.0,-1.0,-6.0,142,116,112,132,122
2025-02-26 15:24:00.395,-348.0,-107.0,947.0,-7.0,-1.0,-6.0,140,116,111,132,121
2025-02-26 15:24:00.399,-364.0,-98.0,941.0,-7.0,0.0,-6.0,140,114,109,130,120
2025-02-26 15:24:00.404,-366.0,-93.0,941.0,-8.0,0.0,-5.0,144,119,114,132,124
2025-02-26 15:24:00.411,-372.0,-84.0,944.0,-8.0,0.0,-4.0,142,116,112,132,122
2025-02-26 15:24:00.415,-377.0,-109.0,926.0,-7.0,0.0,-5.0,143,116,111,130,120
2025-02-26 15:24:00.420,-366.0,-69.0,965.0,-8.0,-1.0,-4.0,141,117,111,132,122
2025-02-26 15:24:00.424,-371.0,-91.0,929.0,-8.0,-1.0,-4.0,146,119,115,133,123
2025-02-26 15:24:00.432,-381.0,-102.0,943.0,-7.0,-2.0,-3.0,141,118,111,132,120
2025-02-26 15:24:00.436,-371.0,-105.0,949.0,-7.0,-1.0,-3.0,141,116,110,133,121
2025-02-26 15:24:00.441,-368.0,-116.0,957.0,-5.0,-1.0,-3.0,143,116,111,132,121
2025-02-26 15:24:00.448,-371.0,-114.0,961.0,-1.0,-1.0,-2.0,145,118,113,135,123
2025-02-26 15:24:00.453,-377.0,-118.0,972.0,1.0,-1.0,-2.0,142,117,112,133,123
2025-02-26 15:24:00.456,-367.0,-94.0,962.0,2.0,1.0,0.0,141,117,109,130,120
2025-02-26 15:24:00.461,-392.0,-120.0,953.0,1.0,1.0,-1.0,143,117,112,131,122
2025-02-26 15:24:00.465,-389.0,-109.0,969.0,3.0,0.0,0.0,144,119,113,133,124
2025-02-26 15:24:00.473,-381.0,-110.0,948.0,5.0,-1.0,0.0,140,115,111,132,120
2025-02-26 15:24:00.476,-384.0,-96.0,944.0,5.0,-1.0,1.0,141,115,110,134,122
2025-02-26 15:24:00.481,-386.0,-102.0,970.0,4.0,-1.0,1.0,146,120,115,135,124
2025-02-26 15:24:00.485,-391.0,-99.0,982.0,3.0,0.0,1.0,143,117,113,133,122
2025-02-26 15:24:00.490,-364.0,-52.0,981.0,2.0,-1.0,2.0,143,115,111,132,122
2025-02-26 15:24:00.497,-364.0,-54.0,968.0,-1.0,0.0,2.0,148,122,116,138,126
2025-02-26 15:24:00.502,-380.0,-40.0,959.0,-2.0,0.0,1.0,150,125,120,140,130
2025-02-26 15:24:00.504,-378.0,-43.0,963.0,-3.0,-1.0,1.0,153,128,122,140,131
2025-02-26 15:24:00.510,-394.0,-79.0,979.0,-3.0,-1.0,0.0,152,126,121,142,135
2025-02-26 15:24:00.518,-374.0,-32.0,987.0,-5.0,-1.0,0.0,153,127,123,140,130
2025-02-26 15:24:00.522,-379.0,-53.0,966.0,-3.0,-1.0,0.0,150,123,119,138,128
2025-02-26 15:24:00.526,-384.0,-63.0,959.0,-4.0,0.0,0.0,153,127,123,143,134
2025-02-26 15:24:00.530,-380.0,-66.0,951.0,-2.0,0.0,0.0,151,124,118,142,132
2025-02-26 15:24:00.532,-379.0,-84.0,974.0,-2.0,1.0,1.0,149,124,118,139,129
2025-02-26 15:24:00.542,-373.0,-64.0,958.0,-1.0,2.0,0.0,150,125,122,141,131
2025-02-26 15:24:00.547,-371.0,-62.0,943.0,0.0,1.0,0.0,153,128,123,142,133
2025-02-26 15:24:00.550,-388.0,-71.0,959.0,1.0,2.0,1.0,149,123,118,140,129
2025-02-26 15:24:00.555,-384.0,-77.0,941.0,2.0,2.0,1.0,152,127,122,141,131
2025-02-26 15:24:00.559,-391.0,-64.0,956.0,3.0,2.0,1.0,150,124,120,140,131
2025-02-26 15:24:00.567,-380.0,-67.0,942.0,3.0,2.0,1.0,151,125,122,140,130
2025-02-26 15:24:00.571,-381.0,-42.0,954.0,2.0,2.0,1.0,152,127,120,139,132
2025-02-26 15:24:00.575,-368.0,-51.0,938.0,2.0,2.0,1.0,151,126,120,140,130
2025-02-26 15:24:00.579,-381.0,-62.0,934.0,0.0,2.0,1.0,148,123,116,139,128
2025-02-26 15:24:00.583,-386.0,-49.0,935.0,0.0,2.0,0.0,154,128,122,144,133
2025-02-26 15:24:00.591,-380.0,-43.0,936.0,-1.0,2.0,0.0,150,125,121,140,130
2025-02-26 15:24:00.595,-381.0,-45.0,926.0,-3.0,1.0,0.0,150,123,118,137,128
2025-02-26 15:24:00.600,-385.0,-54.0,931.0,-5.0,1.0,0.0,152,125,121,140,130
2025-02-26 15:24:00.605,-389.0,-46.0,936.0,-5.0,0.0,0.0,151,128,120,141,132
2025-02-26 15:24:00.612,-386.0,-57.0,927.0,-6.0,0.0,-1.0,149,124,118,137,128
2025-02-26 15:24:00.616,-392.0,-56.0,921.0,-5.0,-1.0,-1.0,149,123,117,138,129
2025-02-26 15:24:00.621,-387.0,-61.0,935.0,-4.0,0.0,-1.0,146,122,117,138,127
2025-02-26 15:24:00.625,-383.0,-74.0,932.0,-3.0,0.0,-1.0,150,123,118,141,130
2025-02-26 15:24:00.640,-378.0,-63.0,952.0,-2.0,1.0,-1.0,147,119,115,137,125
2025-02-26 15:24:00.642,-362.0,-74.0,928.0,1.0,2.0,-1.0,148,123,118,137,127
2025-02-26 15:24:00.643,-376.0,-88.0,928.0,3.0,3.0,0.0,146,121,118,137,128
2025-02-26 15:24:00.647,-366.0,-75.0,910.0,5.0,2.0,0.0,147,121,116,136,127
2025-02-26 15:24:00.649,-377.0,-82.0,940.0,6.0,2.0,0.0,148,122,117,138,128
2025-02-26 15:24:00.653,-379.0,-75.0,931.0,6.0,2.0,0.0,145,120,116,134,125
2025-02-26 15:24:00.660,-377.0,-81.0,893.0,5.0,1.0,0.0,145,118,115,135,125
2025-02-26 15:24:00.665,-383.0,-61.0,922.0,3.0,0.0,-1.0,147,121,117,136,126
2025-02-26 15:24:00.667,-384.0,-66.0,888.0,4.0,-2.0,-1.0,144,121,115,135,126
2025-02-26 15:24:00.674,-412.0,-65.0,915.0,2.0,-3.0,-1.0,146,119,115,135,125
2025-02-26 15:24:00.680,-391.0,-45.0,921.0,-1.0,-4.0,-2.0,146,120,114,135,125
2025-02-26 15:24:00.686,-385.0,-52.0,929.0,-3.0,-5.0,-2.0,148,123,119,138,130
2025-02-26 15:24:00.690,-392.0,-64.0,932.0,-4.0,-6.0,-2.0,147,120,114,135,125
2025-02-26 15:24:00.695,-391.0,-63.0,912.0,-3.0,-7.0,-3.0,144,120,114,134,124
2025-02-26 15:24:00.702,-387.0,-68.0,949.0,-4.0,-7.0,-2.0,144,120,115,136,126
2025-02-26 15:24:00.706,-366.0,-63.0,944.0,-5.0,-6.0,-2.0,149,122,117,137,130
2025-02-26 15:24:00.711,-378.0,-55.0,958.0,-2.0,-7.0,-2.0,145,120,113,135,125
2025-02-26 15:24:00.715,-386.0,-82.0,949.0,-1.0,-6.0,-1.0,144,119,113,132,123
2025-02-26 15:24:00.722,-373.0,-115.0,994.0,1.0,-4.0,-1.0,147,121,115,135,125
2025-02-26 15:24:00.727,-334.0,-105.0,968.0,-2.0,-2.0,-1.0,147,122,117,138,127
2025-02-26 15:24:00.731,-358.0,-94.0,980.0,0.0,-2.0,0.0,145,118,114,135,125
2025-02-26 15:24:00.735,-375.0,-88.0,972.0,4.0,-1.0,0.0,146,119,115,136,126
2025-02-26 15:24:00.743,-372.0,-81.0,963.0,3.0,-1.0,-1.0,147,122,118,136,126
2025-02-26 15:24:00.747,-371.0,-78.0,973.0,4.0,-1.0,0.0,147,121,116,134,126
2025-02-26 15:24:00.752,-370.0,-67.0,950.0,3.0,0.0,0.0,147,120,116,135,125
2025-02-26 15:24:00.756,-374.0,-55.0,979.0,1.0,0.0,-1.0,150,124,118,138,129
2025-02-26 15:24:00.759,-384.0,-62.0,966.0,0.0,0.0,-1.0,146,117,111,133,123
2025-02-26 15:24:00.768,-388.0,-67.0,967.0,-1.0,0.0,-1.0,144,119,113,135,125
2025-02-26 15:24:00.772,-361.0,-73.0,955.0,-2.0,-1.0,-2.0,144,119,114,134,124
2025-02-26 15:24:00.776,-369.0,-58.0,946.0,-4.0,-1.0,-2.0,151,125,120,141,130
2025-02-26 15:24:00.781,-370.0,-76.0,954.0,-6.0,-1.0,-2.0,147,122,117,139,128
2025-02-26 15:24:00.788,-371.0,-78.0,942.0,-7.0,-2.0,-2.0,151,126,122,141,131
2025-02-26 15:24:00.793,-359.0,-89.0,937.0,-6.0,-3.0,-2.0,151,124,120,141,131
2025-02-26 15:24:00.796,-356.0,-97.0,927.0,-4.0,-3.0,-1.0,149,124,120,139,129
2025-02-26 15:24:00.801,-346.0,-117.0,904.0,-7.0,-3.0,-1.0,148,124,116,138,127
2025-02-26 15:24:00.807,-339.0,-109.0,933.0,-7.0,-3.0,0.0,152,125,120,139,129
2025-02-26 15:24:00.813,-345.0,-109.0,915.0,-6.0,-3.0,0.0,149,124,119,139,130
2025-02-26 15:24:00.817,-353.0,-106.0,929.0,-5.0,-3.0,1.0,152,126,120,142,131
2025-02-26 15:24:00.821,-359.0,-117.0,904.0,-2.0,-4.0,1.0,151,125,120,139,130
2025-02-26 15:24:00.830,-359.0,-125.0,933.0,4.0,-4.0,0.0,153,124,123,142,131
2025-02-26 15:24:00.833,-371.0,-117.0,938.0,5.0,-3.0,2.0,153,128,122,143,131
2025-02-26 15:24:00.838,-350.0,-99.0,917.0,9.0,-4.0,3.0,149,124,117,141,130
2025-02-26 15:24:00.842,-362.0,-97.0,931.0,7.0,-3.0,3.0,150,124,120,141,130
2025-02-26 15:24:00.850,-365.0,-98.0,971.0,4.0,0.0,4.0,152,125,119,141,132
2025-02-26 15:24:00.854,-351.0,-134.0,975.0,11.0,0.0,5.0,149,124,118,136,128
2025-02-26 15:24:00.858,-384.0,-72.0,951.0,8.0,-5.0,5.0,140,120,116,132,125
2025-02-26 15:24:00.862,-419.0,-99.0,955.0,9.0,-6.0,6.0,148,122,116,137,127
2025-02-26 15:24:00.867,-374.0,-56.0,982.0,12.0,-2.0,6.0,146,121,115,136,127
2025-02-26 15:24:00.874,-352.0,-57.0,923.0,8.0,-4.0,6.0,145,119,113,135,125
2025-02-26 15:24:00.879,-411.0,-32.0,926.0,5.0,-3.0,6.0,145,120,117,136,125
2025-02-26 15:24:00.880,-379.0,-37.0,921.0,0.0,-3.0,6.0,145,120,113,134,125
2025-02-26 15:24:00.886,-418.0,-36.0,982.0,-4.0,-1.0,5.0,143,118,114,134,124
2025-02-26 15:24:00.894,-377.0,-32.0,979.0,-4.0,-1.0,4.0,146,120,117,136,126
2025-02-26 15:24:00.899,-387.0,-63.0,984.0,-3.0,0.0,5.0,144,117,114,136,127
2025-02-26 15:24:00.904,-382.0,-46.0,951.0,-3.0,0.0,4.0,143,117,110,133,124
2025-02-26 15:24:00.908,-387.0,-57.0,965.0,1.0,-1.0,5.0,149,120,116,137,125
2025-02-26 15:24:00.910,-396.0,-57.0,949.0,3.0,-1.0,5.0,147,122,116,134,124
2025-02-26 15:24:00.919,-379.0,-70.0,961.0,6.0,-1.0,6.0,144,116,114,133,124
2025-02-26 15:24:00.922,-394.0,-73.0,986.0,8.0,-1.0,6.0,145,119,114,134,124
2025-02-26 15:24:00.928,-405.0,-49.0,942.0,13.0,-2.0,6.0,146,120,117,135,123
2025-02-26 15:24:00.932,-417.0,-69.0,945.0,14.0,-2.0,7.0,143,118,113,133,122
2025-02-26 15:24:00.939,-400.0,-44.0,941.0,7.0,-1.0,6.0,143,117,112,132,121
2025-02-26 15:24:00.944,-413.0,-36.0,988.0,11.0,1.0,6.0,144,116,112,133,124
2025-02-26 15:24:00.948,-431.0,-38.0,939.0,12.0,1.0,5.0,145,120,114,134,124
2025-02-26 15:24:00.952,-421.0,-31.0,947.0,9.0,1.0,5.0,143,116,112,132,123
2025-02-26 15:24:00.957,-421.0,-8.0,966.0,5.0,2.0,5.0,143,118,114,133,123
2025-02-26 15:24:00.964,-437.0,-20.0,936.0,4.0,1.0,4.0,143,118,113,131,124
2025-02-26 15:24:00.968,-417.0,-26.0,938.0,3.0,1.0,4.0,144,117,112,133,123
2025-02-26 15:24:00.970,-434.0,-26.0,934.0,1.0,0.0,3.0,144,118,114,134,123
2025-02-26 15:24:00.977,-425.0,-17.0,954.0,0.0,-1.0,3.0,143,116,111,131,122
2025-02-26 15:24:00.981,-436.0,-32.0,943.0,2.0,-1.0,3.0,141,114,109,131,121
2025-02-26 15:24:00.988,-427.0,-39.0,953.0,2.0,-2.0,2.0,144,120,113,135,124
2025-02-26 15:24:00.993,-420.0,-34.0,951.0,2.0,-1.0,2.0,142,117,112,132,122
2025-02-26 15:24:00.997,-423.0,-25.0,955.0,3.0,-2.0,2.0,142,115,111,132,121
2025-02-26 15:24:01.001,-421.0,-36.0,958.0,2.0,-1.0,2.0,142,117,112,133,123
2025-02-26 15:24:01.005,-426.0,-27.0,955.0,2.0,-2.0,1.0,145,118,113,134,124
2025-02-26 15:24:01.013,-425.0,-19.0,976.0,0.0,-1.0,1.0,142,116,112,132,121
2025-02-26 15:24:01.018,-437.0,-27.0,973.0,1.0,-1.0,1.0,143,118,114,133,123
2025-02-26 15:24:01.021,-419.0,-21.0,980.0,0.0,0.0,0.0,143,117,112,133,122
2025-02-26 15:24:01.025,-415.0,-31.0,981.0,-3.0,-1.0,0.0,143,118,113,133,122
2025-02-26 15:24:01.034,-417.0,-22.0,990.0,-3.0,-1.0,-1.0,144,118,112,133,123
2025-02-26 15:24:01.035,-409.0,-28.0,1003.0,-3.0,1.0,-1.0,143,117,114,132,122
2025-02-26 15:24:01.043,-418.0,-38.0,998.0,-3.0,1.0,-2.0,142,116,111,131,121
2025-02-26 15:24:01.047,-409.0,-37.0,1001.0,-4.0,1.0,-2.0,141,116,112,131,121
2025-02-26 15:24:01.054,-397.0,-30.0,1001.0,-2.0,1.0,-2.0,143,118,113,133,123
2025-02-26 15:24:01.059,-395.0,-32.0,987.0,-1.0,1.0,-2.0,142,116,111,130,122
2025-02-26 15:24:01.062,-395.0,-33.0,1002.0,-2.0,1.0,-2.0,140,115,112,131,121
2025-02-26 15:24:01.067,-384.0,-39.0,987.0,-3.0,1.0,-2.0,143,117,112,134,123
2025-02-26 15:24:01.071,-378.0,-32.0,985.0,-2.0,2.0,-3.0,144,118,112,132,124
2025-02-26 15:24:01.079,-363.0,-45.0,996.0,-2.0,2.0,-3.0,142,116,111,132,121
2025-02-26 15:24:01.083,-370.0,-51.0,989.0,-3.0,3.0,-4.0,142,116,111,131,121
2025-02-26 15:24:01.087,-365.0,-52.0,975.0,-3.0,4.0,-4.0,143,116,112,135,123
2025-02-26 15:24:01.091,-360.0,-62.0,969.0,-2.0,4.0,-4.0,142,116,111,132,122
2025-02-26 15:24:01.099,-363.0,-64.0,962.0,-1.0,5.0,-4.0,139,115,112,130,120
2025-02-26 15:24:01.102,-362.0,-66.0,964.0,0.0,5.0,-4.0,143,116,112,131,122
2025-02-26 15:24:01.108,-358.0,-77.0,949.0,0.0,4.0,-3.0,146,120,115,137,125
2025-02-26 15:24:01.112,-355.0,-72.0,945.0,0.0,4.0,-3.0,143,118,113,134,123
2025-02-26 15:24:01.120,-360.0,-75.0,927.0,0.0,4.0,-2.0,143,118,112,133,122
2025-02-26 15:24:01.124,-350.0,-72.0,930.0,1.0,3.0,-2.0,144,118,113,135,123
2025-02-26 15:24:01.128,-352.0,-70.0,919.0,0.0,3.0,-2.0,144,117,114,133,123
2025-02-26 15:24:01.133,-346.0,-65.0,938.0,-3.0,3.0,-1.0,143,118,112,133,122
2025-02-26 15:24:01.136,-358.0,-77.0,920.0,-3.0,2.0,-1.0,145,119,115,135,124
2025-02-26 15:24:01.144,-348.0,-63.0,918.0,-3.0,2.0,-1.0,146,120,113,135,125
2025-02-26 15:24:01.147,-341.0,-70.0,911.0,-6.0,2.0,-1.0,146,121,115,135,124
2025-02-26 15:24:01.153,-358.0,-70.0,907.0,-7.0,2.0,0.0,147,120,116,136,125
2025-02-26 15:24:01.158,-367.0,-74.0,904.0,-6.0,1.0,0.0,146,121,114,135,124
2025-02-26 15:24:01.165,-368.0,-76.0,907.0,-5.0,0.0,0.0,144,119,115,134,124
2025-02-26 15:24:01.169,-368.0,-64.0,899.0,-4.0,0.0,1.0,149,123,116,137,128
2025-02-26 15:24:01.173,-373.0,-58.0,900.0,-3.0,-2.0,1.0,150,123,119,138,128
2025-02-26 15:24:01.177,-382.0,-62.0,913.0,-2.0,-2.0,1.0,146,120,116,135,123
2025-02-26 15:24:01.182,-370.0,-61.0,899.0,-1.0,-2.0,1.0,145,116,114,134,124
2025-02-26 15:24:01.189,-383.0,-53.0,903.0,-1.0,-2.0,1.0,147,122,119,139,127
2025-02-26 15:24:01.193,-372.0,-52.0,911.0,0.0,-2.0,1.0,147,122,117,137,129
2025-02-26 15:24:01.199,-386.0,-50.0,924.0,1.0,-2.0,1.0,145,120,115,135,124
2025-02-26 15:24:01.199,-367.0,-30.0,901.0,1.0,-2.0,1.0,146,121,115,138,127
2025-02-26 15:24:01.208,-383.0,-37.0,918.0,2.0,-1.0,1.0,147,123,117,137,126
2025-02-26 15:24:01.214,-384.0,-30.0,915.0,3.0,-1.0,1.0,146,118,114,136,125
2025-02-26 15:24:01.218,-397.0,-38.0,919.0,2.0,-2.0,1.0,146,120,116,136,125
2025-02-26 15:24:01.223,-392.0,-33.0,926.0,2.0,-3.0,0.0,144,118,114,134,124
2025-02-26 15:24:01.226,-403.0,-38.0,918.0,3.0,-3.0,0.0,143,119,112,132,123
2025-02-26 15:24:01.235,-394.0,-24.0,912.0,4.0,-4.0,-1.0,145,119,114,133,123
2025-02-26 15:24:01.236,-404.0,-21.0,929.0,3.0,-5.0,-1.0,146,120,116,134,123
2025-02-26 15:24:01.243,-389.0,-34.0,923.0,4.0,-5.0,-1.0,145,119,113,133,123
2025-02-26 15:24:01.247,-399.0,-40.0,944.0,4.0,-7.0,-1.0,145,120,114,133,122
2025-02-26 15:24:01.255,-373.0,-20.0,943.0,3.0,-6.0,-2.0,146,122,117,137,126
2025-02-26 15:24:01.259,-382.0,-27.0,961.0,4.0,-6.0,-2.0,146,119,115,135,125
2025-02-26 15:24:01.263,-386.0,-31.0,942.0,3.0,-6.0,-2.0,142,117,111,132,121
2025-02-26 15:24:01.267,-381.0,-39.0,953.0,2.0,-6.0,-2.0,145,120,115,135,124
2025-02-26 15:24:01.275,-396.0,-41.0,947.0,3.0,-6.0,-2.0,144,117,111,135,123
2025-02-26 15:24:01.280,-388.0,-36.0,958.0,3.0,-5.0,-3.0,146,116,109,129,120
2025-02-26 15:24:01.284,-374.0,-6.0,968.0,2.0,-5.0,-3.0,141,114,111,131,120
2025-02-26 15:24:01.288,-379.0,-12.0,936.0,1.0,-4.0,-3.0,145,120,119,135,124
2025-02-26 15:24:01.292,-372.0,-48.0,966.0,1.0,-3.0,-3.0,162,137,133,153,143
2025-02-26 15:24:01.300,-382.0,-48.0,962.0,2.0,-2.0,-3.0,156,134,125,146,135
2025-02-26 15:24:01.304,-368.0,-42.0,962.0,2.0,-2.0,-3.0,156,132,127,147,139
2025-02-26 15:24:01.309,-381.0,-49.0,974.0,2.0,-2.0,-3.0,156,131,127,148,138
2025-02-26 15:24:01.312,-393.0,-35.0,942.0,2.0,-2.0,-4.0,159,134,129,148,137
2025-02-26 15:24:01.320,-372.0,-44.0,972.0,2.0,-2.0,-3.0,159,134,131,150,139
2025-02-26 15:24:01.324,-382.0,-61.0,964.0,1.0,-3.0,-3.0,158,133,129,150,140
2025-02-26 15:24:01.327,-392.0,-42.0,959.0,1.0,-3.0,-3.0,157,134,128,150,137
2025-02-26 15:24:01.333,-381.0,-42.0,974.0,0.0,-4.0,-3.0,156,131,126,146,136
2025-02-26 15:24:01.341,-378.0,-45.0,960.0,-2.0,-4.0,-3.0,160,134,128,149,139
2025-02-26 15:24:01.345,-382.0,-55.0,975.0,-2.0,-5.0,-3.0,156,132,129,147,138
2025-02-26 15:24:01.349,-376.0,-45.0,1004.0,-4.0,-4.0,-3.0,157,130,124,146,136
2025-02-26 15:24:01.354,-367.0,-49.0,981.0,-3.0,-5.0,-3.0,157,131,123,146,136
2025-02-26 15:24:01.360,-365.0,-52.0,1010.0,-3.0,-5.0,-3.0,158,133,129,149,138
2025-02-26 15:24:01.366,-357.0,-32.0,1022.0,-6.0,-3.0,-3.0,156,131,126,146,136
2025-02-26 15:24:01.370,-380.0,-67.0,980.0,-5.0,-3.0,-2.0,151,125,121,143,131
2025-02-26 15:24:01.374,-354.0,-76.0,1008.0,-5.0,-1.0,-2.0,158,132,128,146,136
2025-02-26 15:24:01.382,-361.0,-75.0,988.0,-1.0,-1.0,-2.0,152,125,122,142,132
2025-02-26 15:24:01.383,-363.0,-89.0,1000.0,-1.0,0.0,-1.0,151,126,121,142,132
2025-02-26 15:24:01.388,-371.0,-74.0,985.0,0.0,1.0,0.0,150,123,122,141,130
2025-02-26 15:24:01.395,-385.0,-91.0,992.0,3.0,2.0,0.0,151,126,122,143,132
2025-02-26 15:24:01.400,-367.0,-81.0,992.0,5.0,2.0,1.0,151,125,120,140,131
2025-02-26 15:24:01.407,-371.0,-59.0,980.0,3.0,1.0,1.0,153,132,126,146,137
2025-02-26 15:24:01.412,-366.0,-39.0,962.0,3.0,1.0,1.0,156,129,124,146,135
2025-02-26 15:24:01.415,-376.0,-33.0,978.0,2.0,2.0,1.0,154,128,123,144,133
2025-02-26 15:24:01.419,-368.0,-25.0,955.0,-1.0,1.0,0.0,153,128,122,143,133
2025-02-26 15:24:01.425,-385.0,-34.0,950.0,-2.0,1.0,0.0,155,130,125,146,135
2025-02-26 15:24:01.431,-373.0,-30.0,955.0,-4.0,1.0,0.0,155,131,125,144,133
2025-02-26 15:24:01.435,-377.0,-42.0,931.0,-5.0,0.0,0.0,152,126,124,142,133
2025-02-26 15:24:01.440,-377.0,-36.0,922.0,-6.0,-1.0,1.0,154,130,124,143,134
2025-02-26 15:24:01.444,-375.0,-47.0,932.0,-7.0,-1.0,0.0,154,129,125,145,135
2025-02-26 15:24:01.449,-376.0,-35.0,935.0,-7.0,-1.0,1.0,152,127,122,143,133
2025-02-26 15:24:01.456,-396.0,-48.0,925.0,-5.0,-2.0,1.0,150,126,122,142,131
2025-02-26 15:24:01.460,-364.0,-42.0,915.0,-5.0,-2.0,1.0,153,128,123,143,133
2025-02-26 15:24:01.464,-380.0,-65.0,912.0,-2.0,-1.0,1.0,152,128,122,142,132
2025-02-26 15:24:01.473,-384.0,-48.0,895.0,-1.0,-1.0,1.0,151,126,121,140,131
2025-02-26 15:24:01.476,-379.0,-55.0,905.0,1.0,0.0,1.0,153,127,122,144,134
2025-02-26 15:24:01.481,-388.0,-44.0,909.0,1.0,0.0,1.0,153,126,121,142,132
2025-02-26 15:24:01.485,-389.0,-60.0,900.0,5.0,0.0,2.0,149,124,120,142,130
2025-02-26 15:24:01.489,-394.0,-48.0,909.0,5.0,-1.0,2.0,153,128,123,143,134
2025-02-26 15:24:01.497,-396.0,-34.0,896.0,7.0,-2.0,1.0,154,127,122,142,131
2025-02-26 15:24:01.501,-393.0,3.0,927.0,8.0,-1.0,1.0,150,125,121,141,129
2025-02-26 15:24:01.505,-396.0,-11.0,916.0,6.0,-2.0,0.0,154,127,123,142,133
2025-02-26 15:24:01.510,-409.0,1.0,904.0,5.0,-4.0,0.0,153,126,119,141,132
2025-02-26 15:24:01.514,-409.0,-14.0,921.0,4.0,-4.0,-1.0,151,125,121,140,130
2025-02-26 15:24:01.521,-411.0,0.0,919.0,3.0,-6.0,-2.0,154,127,122,140,133
2025-02-26 15:24:01.525,-408.0,-13.0,912.0,1.0,-6.0,-3.0,151,124,121,140,131
2025-02-26 15:24:01.530,-417.0,-14.0,906.0,3.0,-7.0,-3.0,151,125,119,141,131
2025-02-26 15:24:01.534,-403.0,-45.0,970.0,-5.0,-7.0,-4.0,153,128,122,143,133
2025-02-26 15:24:01.542,-421.0,-52.0,950.0,-1.0,-8.0,-4.0,150,126,121,143,132
2025-02-26 15:24:01.546,-386.0,-36.0,978.0,-1.0,-6.0,-5.0,152,126,120,141,132
2025-02-26 15:24:01.550,-384.0,-48.0,965.0,-6.0,-6.0,-4.0,153,125,120,140,130
2025-02-26 15:24:01.553,-407.0,-65.0,976.0,-1.0,-7.0,-4.0,152,127,122,142,132
2025-02-26 15:24:01.562,-355.0,-41.0,1002.0,0.0,-6.0,-5.0,151,127,124,142,133
2025-02-26 15:24:01.564,-396.0,-83.0,993.0,3.0,-5.0,-4.0,151,125,120,141,131
2025-02-26 15:24:01.569,-392.0,-77.0,1009.0,4.0,-5.0,-4.0,151,124,119,140,130
2025-02-26 15:24:01.574,-365.0,-56.0,1010.0,4.0,-4.0,-4.0,151,124,122,142,131
2025-02-26 15:24:01.583,-370.0,-62.0,1015.0,4.0,-3.0,-4.0,151,126,122,141,131
2025-02-26 15:24:01.587,-368.0,-61.0,1002.0,4.0,-2.0,-3.0,151,125,121,140,131
2025-02-26 15:24:01.591,-368.0,-51.0,1020.0,1.0,-2.0,-3.0,150,124,120,141,130
2025-02-26 15:24:01.595,-370.0,-62.0,1018.0,-1.0,-1.0,-3.0,153,127,122,142,133
2025-02-26 15:24:01.603,-371.0,-62.0,1015.0,-2.0,-1.0,-3.0,152,126,121,141,131
2025-02-26 15:24:01.607,-373.0,-54.0,1026.0,-3.0,-1.0,-3.0,155,128,123,143,133
2025-02-26 15:24:01.612,-364.0,-59.0,1006.0,-4.0,-1.0,-3.0,150,125,121,140,130
2025-02-26 15:24:01.616,-376.0,-72.0,1018.0,-6.0,-1.0,-3.0,154,127,122,142,132
2025-02-26 15:24:01.624,-364.0,-69.0,1008.0,-6.0,-1.0,-3.0,152,127,123,140,132
2025-02-26 15:24:01.625,-366.0,-72.0,1010.0,-7.0,-1.0,-2.0,153,126,121,142,132
2025-02-26 15:24:01.632,-367.0,-76.0,1001.0,-5.0,-1.0,-2.0,153,126,120,140,130
2025-02-26 15:24:01.637,-369.0,-71.0,1000.0,-5.0,0.0,-1.0,153,126,122,142,132
2025-02-26 15:24:01.644,-367.0,-85.0,999.0,-4.0,1.0,-1.0,152,128,123,141,131
2025-02-26 15:24:01.648,-359.0,-85.0,1005.0,-4.0,2.0,0.0,152,126,122,141,131
2025-02-26 15:24:01.653,-362.0,-79.0,999.0,-2.0,2.0,0.0,151,124,121,140,129
2025-02-26 15:24:01.657,-364.0,-72.0,995.0,-1.0,4.0,0.0,153,126,122,143,132
2025-02-26 15:24:01.665,-364.0,-62.0,984.0,-1.0,4.0,1.0,152,126,121,141,130
2025-02-26 15:24:01.669,-369.0,-64.0,972.0,-1.0,4.0,1.0,152,127,120,141,130
2025-02-26 15:24:01.674,-374.0,-53.0,975.0,0.0,4.0,2.0,153,127,123,143,132
2025-02-26 15:24:01.677,-375.0,-51.0,967.0,0.0,4.0,2.0,152,127,123,143,132
2025-02-26 15:24:01.682,-377.0,-49.0,958.0,-1.0,4.0,2.0,151,124,120,141,130
2025-02-26 15:24:01.689,-378.0,-45.0,955.0,-1.0,4.0,2.0,155,129,123,143,134
2025-02-26 15:24:01.694,-375.0,-43.0,950.0,-2.0,4.0,2.0,154,127,124,143,133
2025-02-26 15:24:01.698,-373.0,-36.0,937.0,-2.0,3.0,2.0,149,124,119,139,129
2025-02-26 15:24:01.702,-379.0,-42.0,944.0,-3.0,4.0,2.0,152,126,122,143,132
2025-02-26 15:24:01.710,-377.0,-34.0,946.0,-4.0,3.0,1.0,154,127,122,142,133
2025-02-26 15:24:01.714,-386.0,-48.0,915.0,-1.0,2.0,2.0,151,124,120,140,129
2025-02-26 15:24:01.718,-374.0,-27.0,927.0,-3.0,3.0,1.0,152,127,122,143,133
2025-02-26 15:24:01.720,-399.0,-21.0,902.0,-3.0,3.0,1.0,151,125,122,142,131
2025-02-26 15:24:01.727,-370.0,-22.0,944.0,2.0,3.0,0.0,151,125,123,141,131
2025-02-26 15:24:01.734,-392.0,-50.0,925.0,-3.0,3.0,1.0,153,127,124,143,134
2025-02-26 15:24:01.739,-383.0,-51.0,901.0,-1.0,1.0,1.0,152,127,123,142,132
2025-02-26 15:24:01.739,-393.0,-35.0,927.0,0.0,2.0,1.0,151,124,119,139,130
2025-02-26 15:24:01.747,-378.0,-35.0,909.0,2.0,2.0,1.0,154,128,125,145,134
2025-02-26 15:24:01.751,-392.0,-40.0,903.0,3.0,1.0,1.0,153,127,121,141,132
2025-02-26 15:24:01.759,-374.0,-27.0,915.0,3.0,1.0,0.0,151,123,120,139,129
2025-02-26 15:24:01.763,-376.0,-26.0,908.0,3.0,1.0,0.0,152,126,122,143,132
2025-02-26 15:24:01.767,-394.0,-39.0,911.0,3.0,0.0,0.0,154,127,124,144,133
2025-02-26 15:24:01.771,-382.0,-13.0,912.0,0.0,0.0,0.0,152,125,120,139,130
2025-02-26 15:24:01.776,-374.0,-29.0,922.0,1.0,-2.0,-1.0,153,126,122,142,132
2025-02-26 15:24:01.781,-375.0,-21.0,937.0,0.0,-1.0,-1.0,152,125,121,140,131
2025-02-26 15:24:01.788,-378.0,-29.0,910.0,1.0,-2.0,-1.0,152,129,123,142,133
2025-02-26 15:24:01.792,-373.0,-30.0,953.0,-1.0,-2.0,-1.0,153,130,124,145,133
2025-02-26 15:24:01.797,-361.0,-33.0,929.0,0.0,-2.0,-1.0,153,126,123,143,133
2025-02-26 15:24:01.804,-360.0,-43.0,939.0,0.0,-2.0,-1.0,152,125,121,141,131
2025-02-26 15:24:01.808,-369.0,-43.0,930.0,1.0,-2.0,-1.0,155,127,124,144,134
2025-02-26 15:24:01.811,-367.0,-42.0,929.0,2.0,-2.0,-1.0,153,128,123,144,133
2025-02-26 15:24:01.816,-385.0,-62.0,938.0,3.0,-2.0,-1.0,153,127,123,142,133
2025-02-26 15:24:01.824,-374.0,-31.0,936.0,3.0,-2.0,0.0,151,124,122,141,131
2025-02-26 15:24:01.828,-371.0,-42.0,942.0,5.0,-2.0,-1.0,160,135,129,150,140
2025-02-26 15:24:01.833,-375.0,-46.0,959.0,3.0,-2.0,0.0,161,136,131,151,140
2025-02-26 15:24:01.836,-371.0,-34.0,957.0,3.0,-2.0,0.0,160,133,128,148,138
2025-02-26 15:24:01.841,-391.0,-42.0,952.0,3.0,-3.0,0.0,159,132,125,146,137
2025-02-26 15:24:01.849,-382.0,-20.0,958.0,1.0,-3.0,0.0,163,138,133,152,143
2025-02-26 15:24:01.853,-397.0,-18.0,954.0,0.0,-3.0,-1.0,161,133,128,148,139
2025-02-26 15:24:01.857,-391.0,-24.0,956.0,-1.0,-4.0,-1.0,158,132,126,146,136
2025-02-26 15:24:01.862,-393.0,-23.0,955.0,-3.0,-4.0,-2.0,159,133,128,149,139
2025-02-26 15:24:01.867,-395.0,-33.0,954.0,-3.0,-4.0,-2.0,160,135,130,150,140
2025-02-26 15:24:01.873,-387.0,-34.0,956.0,-3.0,-4.0,-2.0,156,130,126,147,136
2025-02-26 15:24:01.878,-397.0,-50.0,972.0,-3.0,-4.0,-1.0,154,129,125,144,133
2025-02-26 15:24:01.883,-394.0,-55.0,946.0,-4.0,-3.0,-1.0,157,132,127,148,137
2025-02-26 15:24:01.890,-390.0,-64.0,945.0,-2.0,-3.0,-1.0,158,133,127,148,137
2025-02-26 15:24:01.891,-402.0,-57.0,975.0,0.0,-3.0,0.0,156,130,126,145,134
2025-02-26 15:24:01.898,-386.0,-57.0,952.0,3.0,-3.0,-1.0,157,131,128,148,138
2025-02-26 15:24:01.902,-395.0,-47.0,982.0,5.0,-3.0,0.0,159,134,128,148,137
2025-02-26 15:24:01.910,-396.0,-47.0,971.0,4.0,-4.0,0.0,158,132,127,147,137
2025-02-26 15:24:01.915,-392.0,-24.0,983.0,5.0,-3.0,0.0,156,133,126,147,135
2025-02-26 15:24:01.915,-390.0,-29.0,996.0,5.0,-3.0,-1.0,157,132,127,148,137
2025-02-26 15:24:01.923,-396.0,-19.0,992.0,4.0,-2.0,-1.0,155,130,125,145,134
2025-02-26 15:24:01.928,-394.0,-23.0,995.0,1.0,-2.0,-1.0,158,131,127,147,137
2025-02-26 15:24:01.935,-400.0,-33.0,981.0,0.0,-1.0,-2.0,157,133,128,148,138
2025-02-26 15:24:01.940,-375.0,-25.0,994.0,0.0,-1.0,-2.0,160,131,125,148,136
2025-02-26 15:24:01.944,-379.0,-28.0,999.0,-1.0,0.0,-2.0,155,129,124,145,135
2025-02-26 15:24:01.948,-374.0,-32.0,991.0,-2.0,0.0,-3.0,159,134,127,150,139
2025-02-26 15:24:01.956,-375.0,-42.0,992.0,-3.0,1.0,-2.0,157,133,130,148,137
2025-02-26 15:24:01.959,-375.0,-48.0,980.0,-3.0,1.0,-2.0,155,132,125,145,134
2025-02-26 15:24:01.964,-374.0,-46.0,983.0,-3.0,1.0,-2.0,154,129,124,144,133
2025-02-26 15:24:01.968,-367.0,-51.0,984.0,-2.0,1.0,-2.0,159,134,129,149,139
2025-02-26 15:24:01.976,-369.0,-52.0,981.0,-2.0,2.0,-2.0,158,130,127,146,137
2025-02-26 15:24:01.981,-368.0,-53.0,976.0,-2.0,1.0,-2.0,155,129,122,145,134
2025-02-26 15:24:01.984,-365.0,-48.0,973.0,-2.0,1.0,-2.0,157,125,128,147,136
2025-02-26 15:24:01.988,-366.0,-51.0,971.0,-2.0,1.0,-2.0,161,132,129,148,137
2025-02-26 15:24:01.993,-366.0,-48.0,970.0,-2.0,1.0,-2.0,155,130,124,146,134
2025-02-26 15:24:02.006,-360.0,-49.0,966.0,-3.0,2.0,-2.0,154,128,122,144,133
2025-02-26 15:24:02.007,-361.0,-53.0,960.0,-3.0,2.0,-3.0,157,131,126,147,136
2025-02-26 15:24:02.011,-364.0,-56.0,957.0,-3.0,2.0,-2.0,158,133,127,147,139
2025-02-26 15:24:02.014,-354.0,-52.0,964.0,-3.0,2.0,-1.0,154,129,124,144,133
2025-02-26 15:24:02.021,-367.0,-74.0,954.0,-3.0,2.0,-2.0,164,131,126,151,137
2025-02-26 15:24:02.026,-369.0,-47.0,960.0,-4.0,1.0,-1.0,157,131,126,147,137
2025-02-26 15:24:02.030,-366.0,-63.0,941.0,-1.0,1.0,-1.0,156,127,125,145,133
2025-02-26 15:24:02.033,-376.0,-44.0,946.0,-2.0,1.0,-1.0,153,127,123,143,132
2025-02-26 15:24:02.041,-370.0,-55.0,939.0,-1.0,0.0,-1.0,157,125,125,145,136
2025-02-26 15:24:02.046,-369.0,-54.0,953.0,-1.0,-1.0,-1.0,156,130,124,145,136
2025-02-26 15:24:02.050,-372.0,-49.0,947.0,-2.0,-1.0,-1.0,155,131,124,145,137
2025-02-26 15:24:02.055,-373.0,-48.0,943.0,-1.0,-1.0,0.0,157,132,126,147,138
2025-02-26 15:24:02.062,-375.0,-49.0,955.0,-1.0,-1.0,0.0,157,132,126,147,136
2025-02-26 15:24:02.067,-374.0,-56.0,948.0,-1.0,-1.0,0.0,155,128,122,144,133
2025-02-26 15:24:02.070,-371.0,-49.0,954.0,-2.0,-1.0,0.0,153,128,127,144,133
2025-02-26 15:24:02.075,-380.0,-51.0,954.0,-2.0,0.0,0.0,156,131,127,148,137
2025-02-26 15:24:02.079,-373.0,-40.0,950.0,-1.0,-1.0,0.0,156,131,123,146,137
2025-02-26 15:24:02.085,-376.0,-44.0,955.0,-1.0,-1.0,0.0,153,128,123,142,133
2025-02-26 15:24:02.091,-374.0,-38.0,950.0,0.0,-1.0,0.0,156,131,127,147,138
2025-02-26 15:24:02.095,-379.0,-38.0,949.0,-1.0,-1.0,0.0,156,130,127,146,136
2025-02-26 15:24:02.099,-378.0,-35.0,947.0,-1.0,-1.0,0.0,153,128,124,144,133
2025-02-26 15:24:02.104,-375.0,-42.0,942.0,0.0,-1.0,0.0,156,132,126,147,137
2025-02-26 15:24:02.111,-376.0,-36.0,948.0,0.0,0.0,0.0,158,132,131,147,136
2025-02-26 15:24:02.116,-375.0,-44.0,952.0,0.0,0.0,-1.0,156,128,123,144,134
2025-02-26 15:24:02.120,-374.0,-34.0,950.0,0.0,1.0,0.0,155,129,124,145,133
2025-02-26 15:24:02.124,-371.0,-41.0,946.0,2.0,1.0,0.0,153,128,125,144,133
2025-02-26 15:24:02.132,-382.0,-41.0,943.0,1.0,1.0,0.0,153,127,122,140,131
2025-02-26 15:24:02.134,-380.0,-39.0,940.0,2.0,1.0,0.0,154,127,124,143,133
2025-02-26 15:24:02.140,-383.0,-43.0,944.0,2.0,1.0,0.0,152,126,122,142,131
2025-02-26 15:24:02.144,-383.0,-22.0,940.0,2.0,1.0,0.0,149,124,120,138,129
2025-02-26 15:24:02.146,-380.0,-32.0,936.0,1.0,0.0,0.0,151,126,121,143,132
2025-02-26 15:24:02.156,-377.0,-32.0,938.0,1.0,0.0,0.0,151,126,120,140,131
2025-02-26 15:24:02.161,-378.0,-33.0,932.0,0.0,0.0,0.0,150,123,118,138,128
2025-02-26 15:24:02.165,-382.0,-30.0,935.0,-1.0,0.0,-1.0,151,125,121,141,129
2025-02-26 15:24:02.168,-375.0,-34.0,922.0,-1.0,-1.0,-1.0,151,125,121,142,132
2025-02-26 15:24:02.177,-380.0,-37.0,930.0,-2.0,-1.0,-1.0,150,124,119,139,129
2025-02-26 15:24:02.180,-381.0,-40.0,931.0,-2.0,-1.0,0.0,149,119,116,136,127
2025-02-26 15:24:02.185,-374.0,-46.0,924.0,-2.0,-2.0,-1.0,151,130,120,140,132
2025-02-26 15:24:02.190,-371.0,-50.0,933.0,-1.0,-2.0,0.0,148,128,124,138,133
2025-02-26 15:24:02.194,-374.0,-51.0,921.0,0.0,-2.0,0.0,151,123,119,140,130
2025-02-26 15:24:02.202,-378.0,-48.0,937.0,0.0,-2.0,0.0,151,128,123,144,134
2025-02-26 15:24:02.206,-373.0,-42.0,937.0,1.0,-3.0,0.0,153,127,121,141,131
2025-02-26 15:24:02.210,-385.0,-39.0,930.0,0.0,-3.0,0.0,151,126,122,141,130
2025-02-26 15:24:02.214,-375.0,-40.0,922.0,1.0,-3.0,0.0,151,128,122,142,132
2025-02-26 15:24:02.219,-384.0,-36.0,949.0,1.0,-2.0,0.0,152,125,121,142,131
2025-02-26 15:24:02.226,-381.0,-57.0,952.0,1.0,-3.0,-1.0,150,124,120,140,131
2025-02-26 15:24:02.230,-371.0,-10.0,943.0,0.0,-3.0,0.0,152,128,123,141,130
2025-02-26 15:24:02.235,-395.0,-23.0,937.0,0.0,-3.0,0.0,153,127,120,141,132
2025-02-26 15:24:02.238,-394.0,-31.0,934.0,0.0,-4.0,-1.0,149,125,118,139,129
2025-02-26 15:24:02.246,-379.0,-34.0,960.0,-1.0,-4.0,-1.0,150,121,119,139,128
2025-02-26 15:24:02.249,-410.0,-58.0,936.0,-1.0,-4.0,-1.0,153,128,119,141,131
2025-02-26 15:24:02.255,-385.0,-36.0,953.0,0.0,-4.0,-1.0,152,126,120,142,131
2025-02-26 15:24:02.259,-393.0,-52.0,960.0,1.0,-4.0,0.0,151,121,120,139,129
2025-02-26 15:24:02.267,-398.0,-52.0,958.0,2.0,-4.0,0.0,153,126,121,141,129
2025-02-26 15:24:02.271,-391.0,-50.0,964.0,2.0,-4.0,0.0,151,126,123,142,133
2025-02-26 15:24:02.276,-388.0,-47.0,965.0,3.0,-4.0,0.0,149,122,119,140,129
2025-02-26 15:24:02.280,-400.0,-54.0,974.0,5.0,-4.0,0.0,150,125,121,141,132
2025-02-26 15:24:02.284,-397.0,-48.0,973.0,5.0,-4.0,0.0,152,125,120,140,130
2025-02-26 15:24:02.290,-392.0,-49.0,986.0,5.0,-4.0,0.0,149,125,120,139,131
2025-02-26 15:24:02.295,-399.0,-42.0,993.0,5.0,-4.0,1.0,149,123,118,139,129
2025-02-26 15:24:02.299,-396.0,-42.0,997.0,5.0,-4.0,1.0,151,124,121,141,132
2025-02-26 15:24:02.305,-385.0,-37.0,1005.0,5.0,-3.0,1.0,149,123,121,139,128
2025-02-26 15:24:02.309,-390.0,-30.0,1013.0,4.0,-3.0,1.0,150,125,112,141,130
2025-02-26 15:24:02.316,-385.0,-21.0,1009.0,5.0,-3.0,1.0,152,126,121,141,131
2025-02-26 15:24:02.321,-381.0,-19.0,1023.0,4.0,-2.0,0.0,151,126,118,140,130
2025-02-26 15:24:02.325,-379.0,-12.0,1019.0,1.0,-2.0,0.0,148,123,118,138,128
2025-02-26 15:24:02.332,-382.0,-25.0,1012.0,-1.0,-1.0,0.0,152,119,120,140,129
2025-02-26 15:24:02.336,-375.0,-21.0,1034.0,-3.0,0.0,0.0,152,126,121,142,132
2025-02-26 15:24:02.341,-375.0,-21.0,1014.0,-2.0,1.0,-1.0,149,122,119,139,128
2025-02-26 15:24:02.345,-379.0,-30.0,1019.0,-3.0,1.0,-1.0,150,124,119,138,129
2025-02-26 15:24:02.352,-363.0,-25.0,1003.0,-3.0,2.0,-1.0,153,125,122,142,131
2025-02-26 15:24:02.357,-370.0,-40.0,1011.0,-2.0,3.0,-1.0,152,126,122,142,131
2025-02-26 15:24:02.361,-362.0,-35.0,992.0,-2.0,3.0,-1.0,150,124,127,138,128
2025-02-26 15:24:02.365,-366.0,-39.0,984.0,-2.0,3.0,-2.0,149,124,118,138,128
2025-02-26 15:24:02.370,-360.0,-40.0,987.0,-3.0,4.0,-2.0,150,125,114,140,129
2025-02-26 15:24:02.378,-361.0,-38.0,983.0,-3.0,4.0,-1.0,154,127,122,141,131
2025-02-26 15:24:02.381,-363.0,-39.0,975.0,-3.0,4.0,-1.0,148,122,116,138,128
2025-02-26 15:24:02.386,-364.0,-35.0,960.0,-3.0,3.0,-1.0,151,124,120,141,131
2025-02-26 15:24:02.389,-355.0,-30.0,957.0,-4.0,4.0,-1.0,150,127,122,140,131
2025-02-26 15:24:02.398,-364.0,-41.0,953.0,-6.0,3.0,-1.0,149,123,119,140,129
2025-02-26 15:24:02.400,-363.0,-34.0,945.0,-4.0,3.0,0.0,148,122,118,137,127
2025-02-26 15:24:02.406,-362.0,-41.0,949.0,-4.0,3.0,-1.0,150,124,120,142,131
2025-02-26 15:24:02.411,-363.0,-42.0,937.0,-5.0,2.0,0.0,151,125,119,140,130
2025-02-26 15:24:02.418,-363.0,-45.0,941.0,-6.0,3.0,0.0,150,124,119,139,129
2025-02-26 15:24:02.423,-352.0,-48.0,925.0,-6.0,2.0,0.0,150,125,121,142,130
2025-02-26 15:24:02.424,-356.0,-42.0,918.0,-5.0,2.0,1.0,151,125,121,142,131
2025-02-26 15:24:02.431,-371.0,-46.0,927.0,-4.0,2.0,1.0,150,127,118,139,129
2025-02-26 15:24:02.435,-374.0,-47.0,910.0,-3.0,1.0,1.0,152,127,121,140,131
2025-02-26 15:24:02.443,-365.0,-29.0,917.0,-2.0,1.0,2.0,149,126,119,139,129
2025-02-26 15:24:02.447,-378.0,-37.0,917.0,-1.0,1.0,2.0,149,124,118,139,128
2025-02-26 15:24:02.450,-376.0,-29.0,893.0,0.0,0.0,2.0,150,125,126,141,131
2025-02-26 15:24:02.454,-365.0,7.0,936.0,-1.0,0.0,1.0,150,125,120,141,130
2025-02-26 15:24:02.460,-383.0,7.0,894.0,0.0,0.0,1.0,149,124,117,137,128
2025-02-26 15:24:02.464,-407.0,16.0,903.0,0.0,0.0,0.0,151,125,119,141,131
2025-02-26 15:24:02.472,-398.0,23.0,888.0,0.0,1.0,-1.0,151,124,120,140,130
2025-02-26 15:24:02.475,-401.0,34.0,889.0,-4.0,2.0,-2.0,148,123,117,139,128
2025-02-26 15:24:02.480,-373.0,48.0,889.0,-4.0,3.0,-3.0,152,121,119,141,130
2025-02-26 15:24:02.484,-379.0,31.0,850.0,-6.0,3.0,-5.0,149,123,118,140,128
2025-02-26 15:24:02.492,-387.0,10.0,853.0,-4.0,2.0,-4.0,149,123,118,139,129
2025-02-26 15:24:02.496,-376.0,-4.0,871.0,-3.0,0.0,-5.0,152,126,120,144,131
2025-02-26 15:24:02.500,-391.0,-11.0,843.0,0.0,-2.0,-5.0,153,124,120,135,130
2025-02-26 15:24:02.505,-388.0,-30.0,851.0,2.0,-3.0,-4.0,149,124,118,138,128
2025-02-26 15:24:02.509,-364.0,-42.0,851.0,4.0,-5.0,-4.0,152,123,120,141,131
2025-02-26 15:24:02.516,-355.0,-57.0,856.0,5.0,-7.0,-3.0,149,124,119,141,130
2025-02-26 15:24:02.521,-357.0,-59.0,871.0,6.0,-8.0,-2.0,150,123,119,139,129
2025-02-26 15:24:02.525,-364.0,-62.0,897.0,9.0,-8.0,-1.0,151,126,120,140,129
2025-02-26 15:24:02.529,-357.0,-57.0,884.0,9.0,-8.0,-1.0,152,126,117,140,130
2025-02-26 15:24:02.536,-352.0,-51.0,902.0,10.0,-8.0,-1.0,148,124,118,139,129
2025-02-26 15:24:02.540,-354.0,-35.0,902.0,9.0,-9.0,-1.0,148,123,118,139,128
2025-02-26 15:24:02.546,-364.0,-41.0,916.0,8.0,-10.0,0.0,151,126,127,142,131
2025-02-26 15:24:02.550,-358.0,-12.0,917.0,9.0,-10.0,0.0,150,127,121,141,132
2025-02-26 15:24:02.558,-371.0,-9.0,929.0,8.0,-10.0,0.0,149,123,118,139,129
2025-02-26 15:24:02.561,-391.0,9.0,923.0,6.0,-11.0,0.0,151,126,120,141,131
2025-02-26 15:24:02.565,-394.0,16.0,907.0,4.0,-13.0,-2.0,151,127,121,141,130
2025-02-26 15:24:02.570,-390.0,20.0,927.0,2.0,-14.0,-3.0,147,122,119,137,129
2025-02-26 15:24:02.575,-393.0,18.0,948.0,2.0,-15.0,-4.0,150,121,117,138,127
2025-02-26 15:24:02.582,-397.0,21.0,950.0,2.0,-15.0,-5.0,157,127,120,142,130
2025-02-26 15:24:02.586,-397.0,14.0,958.0,1.0,-14.0,-6.0,150,125,119,140,130
2025-02-26 15:24:02.591,-397.0,-3.0,956.0,1.0,-14.0,-7.0,149,124,120,138,129
2025-02-26 15:24:02.594,-397.0,-4.0,968.0,2.0,-15.0,-7.0,150,125,120,141,131
2025-02-26 15:24:02.602,-395.0,-16.0,966.0,3.0,-14.0,-7.0,149,124,121,139,130
2025-02-26 15:24:02.607,-395.0,-28.0,987.0,5.0,-14.0,-7.0,149,126,120,138,129
2025-02-26 15:24:02.611,-389.0,-34.0,1003.0,7.0,-14.0,-7.0,150,121,119,138,128
2025-02-26 15:24:02.615,-385.0,-39.0,1008.0,8.0,-13.0,-6.0,151,125,121,141,131
2025-02-26 15:24:02.623,-381.0,-42.0,1026.0,9.0,-13.0,-6.0,150,124,119,140,130
2025-02-26 15:24:02.628,-374.0,-42.0,1036.0,10.0,-13.0,-5.0,148,124,118,138,128
2025-02-26 15:24:02.632,-371.0,-36.0,1054.0,11.0,-12.0,-4.0,151,125,120,137,127
2025-02-26 15:24:02.640,-366.0,-32.0,1071.0,9.0,-12.0,-5.0,151,125,121,141,130
2025-02-26 15:24:02.644,-358.0,-33.0,1082.0,8.0,-11.0,-4.0,152,124,121,140,129
2025-02-26 15:24:02.648,-349.0,-27.0,1097.0,7.0,-10.0,-4.0,153,127,122,143,132
2025-02-26 15:24:02.653,-345.0,-15.0,1125.0,4.0,-8.0,-4.0,151,122,118,139,128
2025-02-26 15:24:02.660,-342.0,-23.0,1133.0,2.0,-6.0,-3.0,150,124,118,140,128
2025-02-26 15:24:02.664,-334.0,-10.0,1108.0,-5.0,-5.0,-5.0,150,126,118,140,129
2025-02-26 15:24:02.669,-348.0,-18.0,1148.0,-6.0,-1.0,-4.0,151,125,122,141,131
2025-02-26 15:24:02.673,-348.0,-28.0,1104.0,-8.0,0.0,-4.0,152,125,122,139,125
2025-02-26 15:24:02.681,-342.0,-31.0,1107.0,-10.0,2.0,-4.0,148,123,119,139,127
2025-02-26 15:24:02.684,-334.0,-25.0,1095.0,-13.0,4.0,-4.0,153,125,119,141,131
2025-02-26 15:24:02.689,-347.0,-47.0,1068.0,-13.0,5.0,-4.0,152,125,120,141,131
2025-02-26 15:24:02.697,-344.0,-69.0,1075.0,-11.0,5.0,-4.0,150,123,119,139,129
2025-02-26 15:24:02.701,-339.0,-71.0,1061.0,-8.0,6.0,-4.0,148,123,117,138,129
2025-02-26 15:24:02.706,-346.0,-85.0,1058.0,-6.0,8.0,-3.0,151,125,120,140,128
2025-02-26 15:24:02.709,-337.0,-86.0,1059.0,-5.0,10.0,-3.0,151,128,119,141,131
2025-02-26 15:24:02.717,-331.0,-89.0,1048.0,-3.0,11.0,-2.0,149,121,118,139,128
2025-02-26 15:24:02.722,-338.0,-83.0,1031.0,-2.0,12.0,-1.0,148,122,116,139,130
2025-02-26 15:24:02.726,-340.0,-86.0,1018.0,-2.0,13.0,0.0,153,125,121,141,130
2025-02-26 15:24:02.728,-344.0,-73.0,1009.0,-3.0,13.0,1.0,152,126,121,138,131
2025-02-26 15:24:02.738,-352.0,-69.0,1001.0,-3.0,13.0,2.0,149,123,117,139,126
2025-02-26 15:24:02.742,-352.0,-66.0,991.0,-4.0,12.0,2.0,147,122,116,138,125
2025-02-26 15:24:02.747,-351.0,-55.0,983.0,-7.0,12.0,2.0,152,125,120,141,130
2025-02-26 15:24:02.751,-356.0,-48.0,973.0,-8.0,11.0,2.0,151,124,120,140,130
2025-02-26 15:24:02.758,-354.0,-47.0,957.0,-9.0,10.0,2.0,150,123,120,138,127
2025-02-26 15:24:02.763,-359.0,-54.0,955.0,-10.0,9.0,2.0,148,125,120,141,130
2025-02-26 15:24:02.767,-365.0,-60.0,950.0,-11.0,8.0,2.0,151,123,120,141,131
2025-02-26 15:24:02.770,-365.0,-58.0,949.0,-11.0,8.0,2.0,150,122,119,139,128
2025-02-26 15:24:02.779,-356.0,-61.0,927.0,-10.0,7.0,2.0,148,124,117,138,127
2025-02-26 15:24:02.783,-358.0,-65.0,928.0,-9.0,7.0,3.0,150,124,120,141,130
2025-02-26 15:24:02.788,-367.0,-65.0,931.0,-9.0,6.0,3.0,150,124,120,140,129
2025-02-26 15:24:02.792,-370.0,-65.0,927.0,-9.0,6.0,3.0,149,123,117,138,129
2025-02-26 15:24:02.796,-377.0,-60.0,921.0,-8.0,6.0,3.0,150,126,120,141,131
2025-02-26 15:24:02.803,-373.0,-55.0,918.0,-7.0,6.0,4.0,149,124,119,139,129
2025-02-26 15:24:02.808,-379.0,-47.0,908.0,-6.0,5.0,4.0,148,126,117,138,128
2025-02-26 15:24:02.812,-385.0,-46.0,906.0,-5.0,5.0,4.0,151,125,122,140,131
2025-02-26 15:24:02.816,-390.0,-40.0,905.0,-4.0,5.0,4.0,149,124,121,141,130
2025-02-26 15:24:02.824,-390.0,-30.0,902.0,-3.0,5.0,3.0,151,123,116,136,128
2025-02-26 15:24:02.828,-393.0,-30.0,900.0,-2.0,4.0,3.0,152,123,119,140,129
2025-02-26 15:24:02.831,-394.0,-20.0,898.0,-2.0,4.0,3.0,153,125,120,139,132
2025-02-26 15:24:02.836,-403.0,-20.0,905.0,-2.0,4.0,2.0,148,123,118,138,128
2025-02-26 15:24:02.841,-396.0,-17.0,900.0,-1.0,3.0,2.0,145,125,119,142,131
2025-02-26 15:24:02.849,-396.0,-14.0,889.0,-2.0,2.0,2.0,149,125,119,142,130
2025-02-26 15:24:02.852,-393.0,-10.0,890.0,-2.0,2.0,2.0,149,123,117,139,128
2025-02-26 15:24:02.856,-393.0,-6.0,892.0,-2.0,0.0,1.0,149,124,120,139,129
2025-02-26 15:24:02.861,-391.0,-8.0,894.0,-3.0,0.0,1.0,151,124,118,140,130
2025-02-26 15:24:02.866,-385.0,-10.0,902.0,-3.0,-1.0,1.0,149,122,118,137,127
2025-02-26 15:24:02.873,-391.0,-21.0,887.0,-3.0,-1.0,0.0,148,123,117,137,127
2025-02-26 15:24:02.877,-381.0,-10.0,898.0,-3.0,-2.0,0.0,151,124,121,139,129
2025-02-26 15:24:02.882,-376.0,-24.0,894.0,-3.0,-2.0,0.0,153,124,118,138,130
2025-02-26 15:24:02.886,-365.0,-19.0,898.0,-3.0,-3.0,-1.0,149,122,117,138,126
2025-02-26 15:24:02.893,-364.0,-16.0,900.0,-2.0,-3.0,-1.0,153,126,122,137,130
2025-02-26 15:24:02.898,-362.0,-29.0,913.0,-3.0,-2.0,-1.0,152,127,119,139,130
2025-02-26 15:24:02.902,-353.0,-32.0,909.0,-2.0,-2.0,0.0,148,122,118,139,129
2025-02-26 15:24:02.906,-355.0,-30.0,908.0,-2.0,-1.0,0.0,147,120,116,138,127
2025-02-26 15:24:02.914,-345.0,-27.0,908.0,-2.0,-1.0,-1.0,152,125,119,140,129
2025-02-26 15:24:02.918,-346.0,-29.0,913.0,-2.0,0.0,0.0,149,124,119,139,132
2025-02-26 15:24:02.923,-347.0,-33.0,913.0,-3.0,0.0,-1.0,147,122,116,138,128
2025-02-26 15:24:02.927,-345.0,-31.0,899.0,-3.0,0.0,-1.0,150,125,120,139,129
2025-02-26 15:24:02.934,-351.0,-32.0,896.0,-4.0,0.0,-1.0,151,124,117,141,131
2025-02-26 15:24:02.939,-347.0,-18.0,887.0,-4.0,0.0,-2.0,149,126,118,138,128
2025-02-26 15:24:02.943,-350.0,-17.0,869.0,-4.0,-2.0,-2.0,146,121,117,137,127
2025-02-26 15:24:02.948,-351.0,-11.0,858.0,-5.0,-4.0,-3.0,150,124,120,139,130
2025-02-26 15:24:02.952,-365.0,1.0,843.0,-6.0,-6.0,-3.0,149,124,120,140,129
2025-02-26 15:24:02.958,-374.0,25.0,829.0,-6.0,-7.0,-4.0,149,121,116,137,127
2025-02-26 15:24:02.963,-367.0,35.0,813.0,-8.0,-9.0,-4.0,149,123,118,140,129
2025-02-26 15:24:02.968,-381.0,48.0,823.0,-8.0,-10.0,-5.0,149,124,119,139,129
2025-02-26 15:24:02.972,-388.0,74.0,777.0,-11.0,-11.0,-7.0,148,122,118,139,128
2025-02-26 15:24:02.980,-398.0,108.0,736.0,-14.0,-13.0,-8.0,147,121,117,141,128
2025-02-26 15:24:02.983,-407.0,115.0,696.0,-17.0,-17.0,-11.0,149,126,119,139,129
2025-02-26 15:24:02.988,-410.0,146.0,671.0,-19.0,-22.0,-15.0,151,125,122,142,132
2025-02-26 15:24:02.994,-439.0,166.0,646.0,-21.0,-29.0,-19.0,150,124,119,140,129
2025-02-26 15:24:03.000,-438.0,180.0,575.0,-21.0,-38.0,-24.0,149,122,118,138,126
2025-02-26 15:24:03.005,-450.0,214.0,597.0,-26.0,-40.0,-28.0,148,121,116,138,127
2025-02-26 15:24:03.013,-457.0,225.0,603.0,-24.0,-47.0,-30.0,149,121,118,138,127
2025-02-26 15:24:03.017,-495.0,176.0,452.0,-24.0,-57.0,-35.0,152,125,119,139,130
2025-02-26 15:24:03.021,-498.0,211.0,476.0,-21.0,-69.0,-43.0,151,125,114,140,129
2025-02-26 15:24:03.029,-510.0,193.0,450.0,-24.0,-85.0,-52.0,151,122,119,138,129
2025-02-26 15:24:03.033,-511.0,203.0,481.0,-23.0,-91.0,-60.0,149,119,116,140,129
2025-02-26 15:24:03.037,-516.0,174.0,428.0,-23.0,-110.0,-70.0,149,116,116,139,127
2025-02-26 15:24:03.045,-538.0,177.0,456.0,-22.0,-134.0,-73.0,148,112,111,137,124
2025-02-26 15:24:03.049,-544.0,107.0,553.0,-22.0,-157.0,-75.0,153,115,114,142,125
2025-02-26 15:24:03.054,-566.0,85.0,508.0,-28.0,-187.0,-76.0,150,112,108,139,121
2025-02-26 15:24:03.061,-556.0,102.0,495.0,-33.0,-220.0,-79.0,149,107,104,139,118
2025-02-26 15:24:03.066,-550.0,45.0,693.0,-49.0,-244.0,-81.0,149,105,102,138,115
2025-02-26 15:24:03.070,-542.0,-44.0,747.0,-67.0,-259.0,-80.0,150,102,99,135,110
2025-02-26 15:24:03.078,-446.0,-56.0,842.0,-87.0,-292.0,-80.0,149,99,95,133,106
2025-02-26 15:24:03.082,-335.0,-185.0,1153.0,-101.0,-312.0,-71.0,154,111,100,138,111
2025-02-26 15:24:03.086,-136.0,-220.0,1145.0,-131.0,-333.0,-64.0,152,101,96,133,104
2025-02-26 15:24:03.091,73.0,-394.0,1406.0,-149.0,-333.0,-43.0,152,101,95,132,103
2025-02-26 15:24:03.098,307.0,-597.0,1807.0,-157.0,-303.0,-17.0,152,96,92,128,100
2025-02-26 15:24:03.102,558.0,-675.0,2088.0,-172.0,-264.0,11.0,152,95,89,123,98
2025-02-26 15:24:03.111,694.0,-899.0,2386.0,-176.0,-235.0,46.0,152,95,90,120,99
2025-02-26 15:24:03.115,936.0,-999.0,2538.0,-176.0,-176.0,59.0,149,90,87,112,95
2025-02-26 15:24:03.120,1135.0,-985.0,2665.0,-175.0,-112.0,76.0,151,90,86,121,97
2025-02-26 15:24:03.127,1214.0,-1205.0,2895.0,-177.0,-41.0,89.0,151,88,87,118,97
2025-02-26 15:24:03.131,1234.0,-1276.0,3023.0,-174.0,30.0,94.0,152,86,84,116,98
2025-02-26 15:24:03.136,1216.0,-1337.0,3055.0,-170.0,65.0,93.0,150,83,79,112,95
2025-02-26 15:24:03.140,1218.0,-1216.0,3048.0,-160.0,134.0,94.0,148,78,75,110,93
2025-02-26 15:24:03.148,1106.0,-1231.0,2920.0,-150.0,197.0,98.0,150,80,78,109,93
2025-02-26 15:24:03.151,1031.0,-1142.0,2913.0,-150.0,252.0,106.0,153,78,76,108,90
2025-02-26 15:24:03.156,899.0,-1086.0,2780.0,-152.0,294.0,118.0,151,75,75,105,87
2025-02-26 15:24:03.163,818.0,-958.0,2672.0,-162.0,324.0,122.0,150,74,71,100,82
2025-02-26 15:24:03.168,695.0,-927.0,2403.0,-169.0,337.0,126.0,149,71,70,98,80
2025-02-26 15:24:03.173,576.0,-869.0,2238.0,-179.0,357.0,128.0,152,71,71,99,81
2025-02-26 15:24:03.180,518.0,-838.0,2117.0,-200.0,370.0,137.0,151,70,71,98,80
2025-02-26 15:24:03.182,381.0,-728.0,1955.0,-210.0,378.0,148.0,149,69,71,97,78
2025-02-26 15:24:03.187,335.0,-656.0,1810.0,-239.0,383.0,163.0,149,68,72,96,79
2025-02-26 15:24:03.193,353.0,-595.0,1637.0,-261.0,385.0,167.0,148,66,69,94,77
2025-02-26 15:24:03.201,290.0,-558.0,1577.0,-282.0,388.0,172.0,150,69,70,97,80
2025-02-26 15:24:03.205,249.0,-436.0,1436.0,-294.0,388.0,172.0,150,69,71,98,81
2025-02-26 15:24:03.209,274.0,-472.0,1398.0,-309.0,390.0,172.0,150,69,69,96,81
2025-02-26 15:24:03.217,285.0,-454.0,1239.0,-319.0,393.0,176.0,149,69,71,93,78
2025-02-26 15:24:03.221,269.0,-476.0,965.0,-342.0,385.0,184.0,149,68,70,96,78
2025-02-26 15:24:03.226,253.0,-416.0,783.0,-351.0,364.0,194.0,148,69,69,94,76
2025-02-26 15:24:03.230,235.0,-493.0,617.0,-354.0,357.0,210.0,148,68,67,90,76
2025-02-26 15:24:03.237,242.0,-298.0,608.0,-359.0,355.0,214.0,146,67,67,90,77
2025-02-26 15:24:03.242,179.0,-453.0,575.0,-336.0,349.0,225.0,148,66,66,90,75
2025-02-26 15:24:03.246,152.0,-366.0,526.0,-328.0,351.0,235.0,146,68,68,89,74
2025-02-26 15:24:03.250,161.0,-180.0,339.0,-316.0,352.0,239.0,146,66,65,87,71
2025-02-26 15:24:03.257,33.0,-125.0,227.0,-296.0,345.0,241.0,144,64,63,85,69
2025-02-26 15:24:03.263,-15.0,-113.0,139.0,-274.0,333.0,240.0,144,64,65,86,71
2025-02-26 15:24:03.267,-121.0,61.0,151.0,-270.0,321.0,239.0,147,69,66,88,73
2025-02-26 15:24:03.271,-186.0,193.0,77.0,-260.0,313.0,241.0,148,69,69,88,74
2025-02-26 15:24:03.275,-78.0,242.0,-1.0,-245.0,298.0,241.0,149,72,70,91,75
2025-02-26 15:24:03.283,-137.0,306.0,-21.0,-238.0,284.0,237.0,148,68,71,91,75
2025-02-26 15:24:03.287,-175.0,460.0,-63.0,-231.0,275.0,230.0,149,73,71,91,76
2025-02-26 15:24:03.292,-186.0,534.0,-105.0,-217.0,260.0,226.0,150,76,72,95,78
2025-02-26 15:24:03.299,-224.0,593.0,-80.0,-204.0,246.0,217.0,154,79,74,98,82
2025-02-26 15:24:03.303,-145.0,672.0,-59.0,-182.0,239.0,206.0,152,78,76,96,82
2025-02-26 15:24:03.308,-74.0,726.0,10.0,-173.0,237.0,193.0,150,73,74,93,77
2025-02-26 15:24:03.312,-62.0,786.0,-28.0,-146.0,232.0,185.0,146,70,71,94,76
2025-02-26 15:24:03.316,-61.0,862.0,-16.0,-129.0,234.0,169.0,149,75,75,98,82
2025-02-26 15:24:03.324,-108.0,992.0,-122.0,-115.0,231.0,151.0,149,76,76,95,77
2025-02-26 15:24:03.327,-174.0,1101.0,-249.0,-89.0,227.0,130.0,145,73,72,92,76
2025-02-26 15:24:03.332,-257.0,1187.0,-407.0,-56.0,212.0,122.0,147,74,75,96,80
2025-02-26 15:24:03.340,-369.0,1350.0,-502.0,-28.0,193.0,110.0,146,78,76,95,80
2025-02-26 15:24:03.345,-397.0,1552.0,-651.0,-15.0,173.0,102.0,145,76,73,94,78
2025-02-26 15:24:03.346,-487.0,1810.0,-873.0,17.0,162.0,91.0,143,73,70,94,76
2025-02-26 15:24:03.353,-480.0,1826.0,-1078.0,58.0,137.0,84.0,142,74,71,93,74
2025-02-26 15:24:03.364,-523.0,2163.0,-1107.0,89.0,117.0,72.0,142,75,73,94,77
2025-02-26 15:24:03.367,-579.0,2477.0,-1327.0,104.0,103.0,43.0,139,73,71,92,76
2025-02-26 15:24:03.369,-590.0,2805.0,-1628.0,146.0,86.0,-3.0,140,74,72,93,77
2025-02-26 15:24:03.373,-650.0,3022.0,-1824.0,186.0,44.0,-32.0,139,75,71,91,75
2025-02-26 15:24:03.380,-667.0,3464.0,-1949.0,202.0,16.0,-101.0,136,74,73,94,76
2025-02-26 15:24:03.385,-778.0,3797.0,-2227.0,211.0,-21.0,-195.0,134,74,71,92,76
2025-02-26 15:24:03.387,-859.0,4142.0,-2410.0,215.0,-74.0,-305.0,135,75,72,92,75
2025-02-26 15:24:03.397,-912.0,4360.0,-2544.0,201.0,-106.0,-424.0,134,73,69,89,74
2025-02-26 15:24:03.401,-884.0,4445.0,-2688.0,169.0,-179.0,-485.0,132,70,68,87,71
2025-02-26 15:24:03.406,-835.0,4439.0,-2732.0,124.0,-266.0,-604.0,137,74,69,90,75
2025-02-26 15:24:03.414,-727.0,4364.0,-2764.0,75.0,-367.0,-723.0,140,74,71,94,76
2025-02-26 15:24:03.418,-446.0,4340.0,-2822.0,50.0,-478.0,-844.0,135,74,70,89,76
2025-02-26 15:24:03.423,-21.0,4255.0,-2875.0,-5.0,-600.0,-974.0,134,72,69,87,75
2025-02-26 15:24:03.430,311.0,4353.0,-2954.0,-76.0,-665.0,-1106.0,133,74,68,87,74
2025-02-26 15:24:03.435,943.0,4286.0,-3209.0,-144.0,-827.0,-1169.0,132,71,66,86,73
2025-02-26 15:24:03.439,2301.0,4038.0,-3417.0,-221.0,-996.0,-1278.0,135,72,69,87,76
2025-02-26 15:24:03.447,4343.0,3740.0,-3231.0,-295.0,-1146.0,-1333.0,136,73,69,88,78
2025-02-26 15:24:03.451,7007.0,2705.0,-2917.0,-361.0,-1229.0,-1305.0,138,74,71,87,80
2025-02-26 15:24:03.459,9497.0,1063.0,-1334.0,-383.0,-1132.0,-1171.0,138,74,71,88,81
2025-02-26 15:24:03.461,11232.0,-2591.0,1845.0,-429.0,-833.0,-956.0,135,73,70,89,80
2025-02-26 15:24:03.467,11682.0,-6673.0,3403.0,-404.0,-414.0,-685.0,135,74,70,89,80
2025-02-26 15:24:03.475,11275.0,-9620.0,3319.0,-394.0,38.0,-371.0,129,73,69,88,80
2025-02-26 15:24:03.479,9261.0,-10649.0,2126.0,-263.0,320.0,-159.0,127,70,68,87,79
2025-02-26 15:24:03.484,8011.0,-9419.0,754.0,-56.0,395.0,-59.0,127,70,69,86,77
2025-02-26 15:24:03.491,5476.0,-8824.0,-424.0,175.0,438.0,-27.0,130,72,71,89,78
2025-02-26 15:24:03.495,3985.0,-7489.0,-624.0,245.0,449.0,59.0,133,74,72,90,77
2025-02-26 15:24:03.498,2512.0,-6217.0,-940.0,209.0,416.0,137.0,134,70,71,86,74
2025-02-26 15:24:03.504,2361.0,-4941.0,-879.0,361.0,239.0,228.0,142,80,78,96,81
2025-02-26 15:24:03.512,1252.0,-3164.0,-339.0,189.0,188.0,360.0,142,78,78,95,82
2025-02-26 15:24:03.516,1344.0,-2713.0,-282.0,179.0,67.0,326.0,141,76,75,94,82
2025-02-26 15:24:03.521,923.0,-1097.0,-306.0,-74.0,8.0,391.0,148,86,81,102,89
2025-02-26 15:24:03.528,579.0,-1931.0,38.0,-89.0,-18.0,347.0,145,83,82,102,91
2025-02-26 15:24:03.533,709.0,-1282.0,-117.0,-231.0,-11.0,323.0,138,76,79,92,83
2025-02-26 15:24:03.534,721.0,-1377.0,-210.0,-233.0,-62.0,315.0,135,72,70,90,80
2025-02-26 15:24:03.541,814.0,-1813.0,-61.0,-233.0,-48.0,303.0,140,77,74,91,84
2025-02-26 15:24:03.549,743.0,-2722.0,99.0,-216.0,-11.0,305.0,136,74,70,92,83
2025-02-26 15:24:03.553,624.0,-2441.0,116.0,-152.0,-10.0,309.0,137,72,68,89,81
2025-02-26 15:24:03.558,684.0,-2571.0,192.0,-87.0,23.0,323.0,132,72,66,88,78
2025-02-26 15:24:03.562,578.0,-2430.0,338.0,-29.0,51.0,339.0,133,72,67,90,78
2025-02-26 15:24:03.570,500.0,-1909.0,271.0,15.0,42.0,348.0,133,72,69,88,79
2025-02-26 15:24:03.574,382.0,-1928.0,239.0,67.0,57.0,355.0,131,70,71,87,80
2025-02-26 15:24:03.575,326.0,-1524.0,210.0,76.0,81.0,361.0,136,76,72,93,84
2025-02-26 15:24:03.582,230.0,-1135.0,218.0,78.0,76.0,367.0,134,74,72,91,84
2025-02-26 15:24:03.586,111.0,-933.0,168.0,88.0,73.0,363.0,135,73,70,90,82
2025-02-26 15:24:03.594,206.0,-643.0,164.0,50.0,101.0,368.0,140,80,77,96,89
2025-02-26 15:24:03.598,202.0,-531.0,153.0,26.0,95.0,370.0,142,81,78,100,90
2025-02-26 15:24:03.602,65.0,-202.0,139.0,21.0,86.0,361.0,138,79,76,97,86
2025-02-26 15:24:03.607,-14.0,-50.0,94.0,-26.0,94.0,360.0,143,82,78,99,94
2025-02-26 15:24:03.611,-151.0,-8.0,148.0,-56.0,86.0,345.0,146,85,80,101,92
2025-02-26 15:24:03.619,-145.0,165.0,144.0,-74.0,85.0,328.0,139,81,77,97,88
2025-02-26 15:24:03.623,-231.0,229.0,74.0,-101.0,70.0,319.0,139,80,75,95,86
2025-02-26 15:24:03.625,-328.0,275.0,51.0,-111.0,41.0,301.0,139,80,78,100,90
2025-02-26 15:24:03.631,-464.0,171.0,42.0,-118.0,24.0,285.0,142,82,74,100,89
2025-02-26 15:24:03.638,-554.0,50.0,161.0,-121.0,15.0,276.0,140,77,78,99,89
2025-02-26 15:24:03.643,-417.0,301.0,36.0,-145.0,17.0,265.0,150,92,86,108,95
2025-02-26 15:24:03.647,-287.0,72.0,202.0,-151.0,24.0,255.0,146,86,83,104,93
2025-02-26 15:24:03.649,-294.0,39.0,130.0,-157.0,25.0,254.0,145,83,80,102,95
2025-02-26 15:24:03.656,-324.0,7.0,148.0,-150.0,24.0,242.0,146,85,84,106,95
2025-02-26 15:24:03.661,-359.0,47.0,108.0,-138.0,14.0,224.0,145,84,85,103,92
2025-02-26 15:24:03.668,-368.0,-34.0,212.0,-95.0,11.0,207.0,141,79,76,98,87
2025-02-26 15:24:03.672,-322.0,-34.0,278.0,-74.0,17.0,202.0,150,89,85,109,97
2025-02-26 15:24:03.676,-219.0,-47.0,312.0,-66.0,35.0,197.0,147,85,82,104,94
2025-02-26 15:24:03.684,-183.0,-93.0,311.0,-45.0,43.0,193.0,144,81,77,100,91
2025-02-26 15:24:03.685,-169.0,-96.0,333.0,-23.0,65.0,192.0,144,82,79,98,90
2025-02-26 15:24:03.690,-187.0,-102.0,322.0,6.0,82.0,192.0,151,88,83,109,99
2025-02-26 15:24:03.697,-196.0,-55.0,296.0,24.0,86.0,201.0,152,90,85,108,97
2025-02-26 15:24:03.704,-281.0,-41.0,260.0,58.0,92.0,204.0,148,81,83,106,97
2025-02-26 15:24:03.709,-272.0,61.0,242.0,91.0,96.0,213.0,154,90,88,111,100
2025-02-26 15:24:03.713,-382.0,140.0,177.0,108.0,93.0,222.0,150,84,83,107,95
2025-02-26 15:24:03.717,-445.0,222.0,157.0,141.0,92.0,226.0,149,84,81,106,95
2025-02-26 15:24:03.722,-455.0,275.0,109.0,175.0,88.0,236.0,152,91,86,108,98
2025-02-26 15:24:03.727,-474.0,478.0,55.0,191.0,81.0,246.0,149,84,84,108,96
2025-02-26 15:24:03.733,-535.0,687.0,-33.0,221.0,77.0,252.0,145,78,79,102,91
2025-02-26 15:24:03.738,-594.0,780.0,-143.0,248.0,64.0,253.0,149,83,82,101,95
2025-02-26 15:24:03.742,-726.0,1221.0,-191.0,268.0,46.0,243.0,149,84,78,105,95
2025-02-26 15:24:03.750,-815.0,1756.0,-280.0,272.0,27.0,219.0,150,84,82,105,93
2025-02-26 15:24:03.752,-900.0,2295.0,-319.0,274.0,17.0,174.0,146,81,79,102,92
2025-02-26 15:24:03.758,-930.0,2575.0,-364.0,273.0,8.0,142.0,150,83,82,106,94
2025-02-26 15:24:03.762,-930.0,3028.0,-371.0,271.0,6.0,62.0,148,82,83,105,94
2025-02-26 15:24:03.770,-959.0,3372.0,-432.0,274.0,10.0,-42.0,146,80,80,103,92
2025-02-26 15:24:03.774,-992.0,3634.0,-492.0,278.0,14.0,-155.0,145,79,78,100,90
2025-02-26 15:24:03.776,-998.0,3689.0,-588.0,282.0,12.0,-211.0,146,79,78,101,92
2025-02-26 15:24:03.786,-1010.0,3823.0,-622.0,264.0,-7.0,-318.0,146,81,78,102,92
2025-02-26 15:24:03.789,-1004.0,3913.0,-792.0,227.0,-37.0,-419.0,150,86,84,106,95
2025-02-26 15:24:03.795,-1023.0,3917.0,-880.0,203.0,-86.0,-517.0,147,81,80,102,91
2025-02-26 15:24:03.803,-1010.0,3969.0,-931.0,145.0,-117.0,-630.0,143,81,77,99,88
2025-02-26 15:24:03.807,-904.0,4065.0,-1079.0,76.0,-186.0,-765.0,143,77,75,98,86
2025-02-26 15:24:03.812,-650.0,4137.0,-1213.0,-12.0,-267.0,-841.0,143,84,78,99,88
2025-02-26 15:24:03.818,-323.0,4412.0,-1424.0,-112.0,-369.0,-1002.0,145,81,78,101,90
2025-02-26 15:24:03.824,486.0,4348.0,-1480.0,-243.0,-492.0,-1150.0,144,79,78,99,91
2025-02-26 15:24:03.828,1607.0,4412.0,-1807.0,-389.0,-654.0,-1281.0,144,79,79,99,90
2025-02-26 15:24:03.836,3327.0,4251.0,-2424.0,-461.0,-815.0,-1364.0,147,80,79,99,90
2025-02-26 15:24:03.840,6059.0,3029.0,-2518.0,-623.0,-940.0,-1385.0,146,78,76,97,90
2025-02-26 15:24:03.848,8994.0,674.0,-2362.0,-737.0,-950.0,-1304.0,147,77,76,97,92
2025-02-26 15:24:03.852,10241.0,-2638.0,-829.0,-710.0,-879.0,-1089.0,145,78,76,99,94
2025-02-26 15:24:03.856,11184.0,-7547.0,810.0,-564.0,-583.0,-811.0,144,79,76,96,93
2025-02-26 15:24:03.861,10699.0,-13141.0,1278.0,-343.0,-122.0,-445.0,140,77,70,95,92
2025-02-26 15:24:03.869,10136.0,-14368.0,252.0,-56.0,252.0,-255.0,140,75,74,96,91
2025-02-26 15:24:03.873,8954.0,-13917.0,-1061.0,158.0,516.0,76.0,164,99,98,118,113
2025-02-26 15:24:03.880,5935.0,-10234.0,-1771.0,282.0,599.0,268.0,167,100,95,117,112
2025-02-26 15:24:03.885,3923.0,-6199.0,-2022.0,211.0,681.0,344.0,136,67,64,82,77
2025-02-26 15:24:03.889,2129.0,-3336.0,-2799.0,189.0,426.0,337.0,148,72,73,94,82
2025-02-26 15:24:03.897,1313.0,-1314.0,-2656.0,352.0,149.0,331.0,137,62,61,83,72
2025-02-26 15:24:03.901,756.0,-459.0,-2086.0,230.0,73.0,342.0,134,62,59,82,70
2025-02-26 15:24:03.903,462.0,-1.0,-1639.0,-15.0,-102.0,355.0,137,65,61,85,75
2025-02-26 15:24:03.913,-335.0,-293.0,-1930.0,-148.0,-176.0,318.0,138,65,60,87,77
2025-02-26 15:24:03.916,555.0,-852.0,-1343.0,-233.0,-241.0,311.0,135,64,59,86,78
2025-02-26 15:24:03.922,563.0,-1175.0,-945.0,-315.0,-284.0,297.0,139,70,65,91,85
2025-02-26 15:24:03.928,681.0,-2192.0,-634.0,-306.0,-254.0,292.0,133,64,60,85,81
2025-02-26 15:24:03.934,134.0,-2102.0,-103.0,-212.0,-251.0,280.0,134,65,62,89,80
2025-02-26 15:24:03.939,669.0,-2294.0,407.0,-104.0,-197.0,309.0,132,60,58,83,75
2025-02-26 15:24:03.942,370.0,-3246.0,462.0,-14.0,-154.0,350.0,130,60,57,85,74
2025-02-26 15:24:03.950,679.0,-2505.0,524.0,40.0,-118.0,383.0,131,61,55,83,75
2025-02-26 15:24:03.952,535.0,-2115.0,799.0,118.0,-93.0,428.0,131,57,55,84,75
2025-02-26 15:24:03.957,196.0,-1931.0,674.0,164.0,-47.0,439.0,132,59,58,83,75
2025-02-26 15:24:03.967,488.0,-1218.0,700.0,205.0,-12.0,429.0,133,59,56,83,73
2025-02-26 15:24:03.971,766.0,-854.0,603.0,205.0,41.0,426.0,135,61,60,84,78
2025-02-26 15:24:03.975,486.0,-486.0,552.0,167.0,64.0,421.0,138,63,61,87,79
2025-02-26 15:24:03.979,359.0,80.0,428.0,124.0,83.0,401.0,140,66,65,89,80
2025-02-26 15:24:03.982,189.0,400.0,222.0,96.0,71.0,361.0,139,65,63,89,81
2025-02-26 15:24:03.988,8.0,434.0,210.0,41.0,90.0,338.0,140,68,66,92,84
2025-02-26 15:24:03.993,-66.0,506.0,247.0,-14.0,91.0,295.0,143,70,69,96,86
2025-02-26 15:24:03.999,-270.0,382.0,68.0,-13.0,68.0,249.0,145,69,68,95,85
2025-02-26 15:24:04.004,-153.0,335.0,-6.0,-69.0,63.0,219.0,142,67,66,92,83
2025-02-26 15:24:04.008,-316.0,337.0,3.0,-83.0,31.0,207.0,145,70,67,95,85
2025-02-26 15:24:04.013,-310.0,-64.0,-69.0,-86.0,0.0,186.0,145,70,67,94,86
2025-02-26 15:24:04.020,-264.0,-192.0,-99.0,-112.0,-3.0,182.0,142,68,65,92,83
2025-02-26 15:24:04.025,-189.0,-280.0,-72.0,-131.0,-14.0,189.0,144,69,67,94,85
2025-02-26 15:24:04.029,-128.0,-619.0,-69.0,-146.0,-12.0,200.0,146,69,68,94,85
2025-02-26 15:24:04.032,-116.0,-873.0,-46.0,-145.0,-8.0,214.0,145,67,66,94,84
2025-02-26 15:24:04.041,-56.0,-932.0,-76.0,-128.0,-9.0,221.0,148,71,70,97,87
2025-02-26 15:24:04.044,-26.0,-935.0,-51.0,-111.0,-11.0,228.0,147,69,69,95,88
2025-02-26 15:24:04.049,47.0,-971.0,5.0,-69.0,-6.0,236.0,146,69,68,94,86
2025-02-26 15:24:04.053,125.0,-1032.0,4.0,-18.0,-4.0,242.0,148,71,69,97,87
2025-02-26 15:24:04.058,121.0,-886.0,89.0,-11.0,5.0,250.0,149,72,68,96,87
2025-02-26 15:24:04.065,56.0,-885.0,21.0,26.0,8.0,265.0,146,68,68,95,84
2025-02-26 15:24:04.069,-28.0,-792.0,0.0,43.0,15.0,271.0,148,69,68,97,85
2025-02-26 15:24:04.074,-41.0,-667.0,5.0,49.0,20.0,276.0,150,70,69,97,86
2025-02-26 15:24:04.077,-61.0,-537.0,18.0,64.0,21.0,276.0,149,68,66,95,84
2025-02-26 15:24:04.082,-91.0,-460.0,-84.0,94.0,14.0,275.0,150,70,67,97,86
2025-02-26 15:24:04.086,-195.0,-442.0,60.0,93.0,15.0,277.0,148,66,63,92,82
2025-02-26 15:24:04.093,-76.0,-342.0,8.0,96.0,16.0,283.0,149,66,66,92,81
2025-02-26 15:24:04.098,-104.0,-233.0,62.0,104.0,20.0,281.0,149,65,64,91,81
2025-02-26 15:24:04.102,-154.0,-184.0,105.0,107.0,25.0,274.0,150,64,62,93,80
2025-02-26 15:24:04.106,-169.0,-139.0,172.0,108.0,30.0,267.0,148,63,63,90,80
2025-02-26 15:24:04.111,-190.0,-130.0,148.0,120.0,37.0,263.0,151,65,64,91,83
2025-02-26 15:24:04.118,-174.0,-115.0,193.0,137.0,45.0,254.0,151,64,64,92,83
2025-02-26 15:24:04.122,-152.0,-164.0,259.0,150.0,50.0,249.0,150,60,60,90,80
2025-02-26 15:24:04.127,-124.0,-108.0,312.0,167.0,68.0,248.0,152,61,61,88,78
2025-02-26 15:24:04.131,-125.0,-146.0,301.0,199.0,78.0,248.0,152,62,59,83,81
2025-02-26 15:24:04.138,-191.0,-83.0,314.0,213.0,81.0,251.0,152,60,60,87,78
2025-02-26 15:24:04.143,-223.0,11.0,195.0,239.0,84.0,253.0,152,59,58,89,73
2025-02-26 15:24:04.147,-315.0,190.0,221.0,271.0,83.0,254.0,154,62,61,90,78
2025-02-26 15:24:04.151,-540.0,512.0,170.0,293.0,76.0,245.0,153,60,61,89,78
2025-02-26 15:24:04.156,-610.0,814.0,78.0,340.0,70.0,239.0,152,61,58,87,77
2025-02-26 15:24:04.164,-694.0,985.0,32.0,387.0,64.0,223.0,153,64,61,90,76
2025-02-26 15:24:04.168,-700.0,1438.0,-98.0,414.0,66.0,200.0,153,61,60,89,77
2025-02-26 15:24:04.172,-737.0,1832.0,-278.0,476.0,66.0,182.0,153,61,59,91,76
2025-02-26 15:24:04.176,-687.0,2105.0,-418.0,529.0,82.0,133.0,155,62,61,87,76
2025-02-26 15:24:04.183,-709.0,2706.0,-710.0,549.0,104.0,60.0,153,59,59,85,75
2025-02-26 15:24:04.188,-813.0,3462.0,-1063.0,567.0,114.0,-39.0,152,59,58,84,72
2025-02-26 15:24:04.192,-1058.0,3810.0,-1415.0,553.0,113.0,-92.0,154,60,57,86,72
2025-02-26 15:24:04.200,-1253.0,4351.0,-1545.0,482.0,89.0,-205.0,153,62,59,85,71
2025-02-26 15:24:04.204,-1665.0,4780.0,-1809.0,432.0,31.0,-323.0,153,61,60,83,68
2025-02-26 15:24:04.209,-1861.0,4919.0,-1930.0,318.0,-13.0,-450.0,153,59,57,81,67
2025-02-26 15:24:04.216,-1899.0,4857.0,-2147.0,193.0,-119.0,-581.0,152,58,59,82,65
2025-02-26 15:24:04.219,-1973.0,4759.0,-2259.0,91.0,-233.0,-651.0,151,57,57,81,64
2025-02-26 15:24:04.225,-1733.0,4473.0,-2364.0,-1.0,-369.0,-802.0,152,59,58,82,70
2025-02-26 15:24:04.230,-1304.0,4169.0,-2423.0,-84.0,-521.0,-959.0,155,59,59,84,68
2025-02-26 15:24:04.237,-483.0,3971.0,-2624.0,-126.0,-670.0,-1107.0,154,58,59,83,68
2025-02-26 15:24:04.242,890.0,3691.0,-2763.0,-232.0,-845.0,-1227.0,154,58,59,82,66
2025-02-26 15:24:04.250,2952.0,3407.0,-2917.0,-340.0,-1035.0,-1264.0,151,58,56,83,67
2025-02-26 15:24:04.254,5371.0,2236.0,-2942.0,-473.0,-1116.0,-1200.0,156,59,57,83,69
2025-02-26 15:24:04.261,6531.0,11.0,-2720.0,-592.0,-1221.0,-1027.0,154,59,57,83,70
2025-02-26 15:24:04.266,8455.0,-3311.0,-1951.0,-622.0,-1215.0,-723.0,155,58,56,82,70
2025-02-26 15:24:04.271,9078.0,-6881.0,-978.0,-589.0,-1062.0,-572.0,156,61,57,85,74
2025-02-26 15:24:04.278,8526.0,-8210.0,988.0,-553.0,-772.0,-327.0,157,59,56,83,73
2025-02-26 15:24:04.283,8029.0,-9125.0,2764.0,-475.0,-453.0,-194.0,156,61,56,83,76
2025-02-26 15:24:04.289,7455.0,-8437.0,2923.0,-327.0,-113.0,-127.0,157,59,56,83,76
2025-02-26 15:24:04.295,6747.0,-7692.0,2505.0,-160.0,219.0,-72.0,157,61,58,84,74
2025-02-26 15:24:04.296,5198.0,-7022.0,615.0,-51.0,420.0,-21.0,156,61,58,85,75
2025-02-26 15:24:04.302,4198.0,-6347.0,-1068.0,136.0,493.0,35.0,155,53,57,83,72
2025-02-26 15:24:04.308,2560.0,-5769.0,-2642.0,485.0,471.0,64.0,154,57,56,78,67
2025-02-26 15:24:04.314,1290.0,-4706.0,-2109.0,370.0,318.0,134.0,159,60,59,83,69
2025-02-26 15:24:04.319,417.0,-2352.0,-1020.0,411.0,201.0,164.0,158,61,60,83,70
2025-02-26 15:24:04.320,323.0,-1219.0,-1341.0,472.0,64.0,190.0,156,59,58,83,71
2025-02-26 15:24:04.331,-33.0,187.0,-1111.0,-55.0,79.0,202.0,161,63,62,88,77
2025-02-26 15:24:04.334,-256.0,-826.0,-801.0,128.0,56.0,168.0,168,74,71,97,85
2025-02-26 15:24:04.340,89.0,-431.0,-64.0,-93.0,-78.0,214.0,168,71,70,95,83
2025-02-26 15:24:04.344,180.0,-788.0,-576.0,-150.0,-18.0,184.0,164,70,68,92,83
2025-02-26 15:24:04.351,281.0,-1456.0,-72.0,-102.0,-38.0,176.0,165,72,68,94,84
2025-02-26 15:24:04.356,381.0,-1633.0,766.0,-74.0,-28.0,191.0,165,70,68,95,84
2025-02-26 15:24:04.360,251.0,-1900.0,544.0,-70.0,-13.0,188.0,166,70,68,93,84
2025-02-26 15:24:04.365,532.0,-2006.0,552.0,-32.0,26.0,199.0,164,67,66,91,81
2025-02-26 15:24:04.369,294.0,-2145.0,649.0,13.0,41.0,200.0,164,69,70,95,84
2025-02-26 15:24:04.377,577.0,-1722.0,894.0,62.0,72.0,207.0,166,69,68,94,84
2025-02-26 15:24:04.380,198.0,-1575.0,653.0,99.0,84.0,211.0,164,67,69,94,83
2025-02-26 15:24:04.382,434.0,-1359.0,586.0,119.0,81.0,210.0,163,67,66,91,80
2025-02-26 15:24:04.393,244.0,-1324.0,539.0,116.0,83.0,222.0,164,70,69,94,83
2025-02-26 15:24:04.395,110.0,-1230.0,372.0,107.0,105.0,234.0,164,67,67,91,80
2025-02-26 15:24:04.401,158.0,-893.0,409.0,56.0,128.0,253.0,160,65,64,89,78
2025-02-26 15:24:04.405,13.0,-870.0,230.0,10.0,140.0,261.0,162,65,65,91,79
2025-02-26 15:24:04.410,70.0,-748.0,247.0,-62.0,141.0,279.0,165,68,67,93,82
2025-02-26 15:24:04.417,84.0,-642.0,211.0,-75.0,126.0,284.0,162,64,65,90,78
2025-02-26 15:24:04.421,65.0,-329.0,83.0,-140.0,116.0,286.0,161,63,62,89,79
2025-02-26 15:24:04.426,-27.0,-559.0,-57.0,-141.0,78.0,287.0,162,67,64,91,79
2025-02-26 15:24:04.430,-48.0,-528.0,14.0,-132.0,46.0,279.0,162,68,66,91,79
2025-02-26 15:24:04.438,88.0,-494.0,201.0,-112.0,27.0,275.0,162,66,63,88,77
2025-02-26 15:24:04.442,20.0,-527.0,144.0,-122.0,14.0,272.0,163,67,64,89,78
2025-02-26 15:24:04.446,67.0,-484.0,179.0,-121.0,19.0,265.0,162,64,63,90,78
2025-02-26 15:24:04.450,96.0,-250.0,401.0,-115.0,26.0,255.0,162,66,63,88,80
2025-02-26 15:24:04.455,85.0,-88.0,539.0,-103.0,52.0,221.0,162,66,63,88,79
2025-02-26 15:24:04.462,97.0,-182.0,451.0,-87.0,83.0,186.0,161,65,63,88,78
2025-02-26 15:24:04.466,126.0,-427.0,458.0,-62.0,99.0,180.0,159,64,63,88,77
2025-02-26 15:24:04.470,82.0,-488.0,371.0,-36.0,113.0,188.0,163,68,66,92,80
2025-02-26 15:24:04.474,-35.0,-595.0,350.0,-41.0,119.0,198.0,162,67,63,90,78
2025-02-26 15:24:04.479,-129.0,-655.0,273.0,0.0,115.0,209.0,161,63,63,87,77
2025-02-26 15:24:04.487,-143.0,-668.0,293.0,11.0,112.0,215.0,163,66,65,91,78
2025-02-26 15:24:04.491,-8.0,-575.0,303.0,10.0,125.0,230.0,163,67,67,91,80
2025-02-26 15:24:04.495,-44.0,-613.0,248.0,-9.0,137.0,245.0,162,63,63,89,76
2025-02-26 15:24:04.499,7.0,-565.0,161.0,-10.0,143.0,251.0,160,64,63,91,77
2025-02-26 15:24:04.504,-99.0,-604.0,85.0,-6.0,146.0,260.0,158,62,62,87,75
2025-02-26 15:24:04.512,-76.0,-566.0,61.0,3.0,141.0,271.0,158,59,60,86,73
2025-02-26 15:24:04.516,-127.0,-571.0,45.0,20.0,128.0,277.0,156,60,59,86,73
2025-02-26 15:24:04.520,-28.0,-536.0,123.0,22.0,120.0,294.0,156,57,56,83,70
2025-02-26 15:24:04.524,-64.0,-514.0,102.0,42.0,119.0,310.0,155,57,57,83,69
2025-02-26 15:24:04.529,-44.0,-456.0,40.0,53.0,119.0,322.0,156,59,60,85,73
2025-02-26 15:24:04.534,-52.0,-375.0,136.0,71.0,125.0,341.0,157,58,60,85,72
2025-02-26 15:24:04.540,-130.0,-169.0,266.0,84.0,130.0,337.0,155,56,58,82,71
2025-02-26 15:24:04.545,-252.0,-77.0,278.0,132.0,130.0,324.0,156,56,59,84,70
2025-02-26 15:24:04.549,-211.0,133.0,205.0,190.0,145.0,296.0,156,57,59,84,71
2025-02-26 15:24:04.557,-157.0,257.0,212.0,216.0,158.0,277.0,154,57,58,84,71
2025-02-26 15:24:04.561,-166.0,290.0,48.0,254.0,177.0,273.0,155,56,57,83,69
2025-02-26 15:24:04.565,-358.0,554.0,42.0,274.0,189.0,270.0,156,57,58,82,69
2025-02-26 15:24:04.569,-562.0,802.0,-23.0,280.0,183.0,269.0,153,57,56,83,70
2025-02-26 15:24:04.577,-652.0,922.0,-188.0,297.0,177.0,268.0,154,56,56,83,70
2025-02-26 15:24:04.581,-749.0,976.0,-420.0,313.0,163.0,267.0,153,59,59,85,71
2025-02-26 15:24:04.585,-849.0,1105.0,-569.0,333.0,140.0,255.0,152,57,59,84,71
2025-02-26 15:24:04.590,-974.0,1409.0,-709.0,375.0,130.0,224.0,153,59,59,84,68
2025-02-26 15:24:04.597,-986.0,1995.0,-893.0,402.0,108.0,162.0,152,57,58,83,69
2025-02-26 15:24:04.601,-1212.0,2325.0,-973.0,436.0,64.0,117.0,152,58,60,84,68
2025-02-26 15:24:04.606,-1432.0,3186.0,-1082.0,427.0,46.0,-8.0,152,59,59,84,68
2025-02-26 15:24:04.613,-1667.0,3102.0,-1275.0,415.0,11.0,-127.0,152,60,59,84,71
2025-02-26 15:24:04.618,-1475.0,4001.0,-1367.0,382.0,-11.0,-268.0,149,57,57,81,68
2025-02-26 15:24:04.623,-1689.0,4103.0,-1457.0,324.0,-56.0,-341.0,149,57,58,81,68
2025-02-26 15:24:04.630,-1594.0,4170.0,-1474.0,230.0,-87.0,-481.0,150,59,59,83,67
2025-02-26 15:24:04.634,-1940.0,3737.0,-1389.0,167.0,-193.0,-622.0,151,61,61,83,68
2025-02-26 15:24:04.639,-1452.0,3501.0,-1501.0,92.0,-300.0,-757.0,150,61,57,82,67
2025-02-26 15:24:04.646,-1132.0,3424.0,-1709.0,60.0,-410.0,-892.0,147,58,59,82,66
2025-02-26 15:24:04.651,-594.0,3603.0,-1994.0,-37.0,-549.0,-1027.0,149,59,57,80,66
2025-02-26 15:24:04.655,-196.0,3841.0,-2349.0,-157.0,-625.0,-1138.0,148,59,57,81,67
2025-02-26 15:24:04.663,955.0,3558.0,-2536.0,-314.0,-834.0,-1208.0,149,57,56,82,69
2025-02-26 15:24:04.667,2599.0,3123.0,-3506.0,-499.0,-1050.0,-1218.0,149,58,58,81,66
2025-02-26 15:24:04.671,4669.0,2555.0,-3597.0,-657.0,-1204.0,-1182.0,150,58,59,82,69
2025-02-26 15:24:04.679,6808.0,278.0,-2941.0,-799.0,-1264.0,-1006.0,152,59,58,82,71
2025-02-26 15:24:04.684,8337.0,-2001.0,-2043.0,-881.0,-1168.0,-761.0,152,61,60,84,72
2025-02-26 15:24:04.692,8143.0,-5726.0,-486.0,-917.0,-892.0,-507.0,153,60,58,83,71
2025-02-26 15:24:04.696,8107.0,-8869.0,365.0,-786.0,-501.0,-263.0,153,61,58,82,73
2025-02-26 15:24:04.701,8697.0,-10600.0,1730.0,-643.0,-80.0,-73.0,152,60,57,82,73
2025-02-26 15:24:04.708,8003.0,-10884.0,1694.0,-193.0,230.0,15.0,151,59,58,83,73
2025-02-26 15:24:04.710,7085.0,-8972.0,632.0,219.0,357.0,65.0,149,61,57,81,72
2025-02-26 15:24:04.716,4885.0,-7665.0,-1563.0,460.0,536.0,76.0,147,59,57,81,71
2025-02-26 15:24:04.727,2963.0,-5713.0,-3501.0,633.0,665.0,121.0,148,59,56,75,66
2025-02-26 15:24:04.731,1545.0,-3605.0,-3213.0,-157.0,1181.0,330.0,147,58,57,81,65
2025-02-26 15:24:04.733,292.0,-2120.0,-5700.0,720.0,84.0,265.0,147,58,55,82,67
2025-02-26 15:24:04.737,270.0,-29.0,-2338.0,747.0,-149.0,274.0,148,58,55,82,67
2025-02-26 15:24:04.745,338.0,713.0,-1060.0,55.0,-42.0,352.0,146,58,56,81,62
2025-02-26 15:24:04.749,-81.0,-541.0,-1767.0,-50.0,282.0,237.0,150,60,57,83,70
2025-02-26 15:24:04.753,688.0,-125.0,-734.0,-91.0,-113.0,269.0,151,58,56,84,70
2025-02-26 15:24:04.758,495.0,-769.0,-583.0,-138.0,-112.0,232.0,148,57,55,81,69
2025-02-26 15:24:04.763,634.0,-2520.0,-49.0,-157.0,-66.0,233.0,146,58,54,81,72
2025-02-26 15:24:04.769,678.0,-3509.0,614.0,-134.0,4.0,257.0,146,57,57,82,72
2025-02-26 15:24:04.774,506.0,-3315.0,262.0,-59.0,-12.0,302.0,144,57,59,83,72
2025-02-26 15:24:04.778,928.0,-2942.0,487.0,-57.0,-8.0,351.0,144,57,54,81,73
2025-02-26 15:24:04.786,1124.0,-2632.0,62.0,48.0,110.0,365.0,144,54,53,81,69
2025-02-26 15:24:04.788,892.0,-2043.0,266.0,108.0,142.0,407.0,144,56,56,79,73
2025-02-26 15:24:04.794,81.0,-3102.0,353.0,171.0,190.0,408.0,145,57,56,85,73
2025-02-26 15:24:04.799,606.0,-2121.0,349.0,167.0,232.0,455.0,146,58,56,83,73
2025-02-26 15:24:04.806,300.0,-2226.0,364.0,196.0,148.0,489.0,146,58,56,87,79
2025-02-26 15:24:04.810,617.0,-1206.0,476.0,166.0,73.0,511.0,150,63,61,89,81
2025-02-26 15:24:04.815,616.0,-893.0,362.0,177.0,55.0,527.0,150,63,61,91,82
2025-02-26 15:24:04.818,424.0,-1021.0,322.0,93.0,99.0,520.0,151,63,62,92,82
2025-02-26 15:24:04.827,340.0,-420.0,149.0,96.0,144.0,505.0,152,66,65,95,84
2025-02-26 15:24:04.831,509.0,-285.0,229.0,78.0,188.0,492.0,151,65,64,95,84
2025-02-26 15:24:04.836,451.0,83.0,215.0,-75.0,198.0,485.0,151,66,64,96,86
2025-02-26 15:24:04.837,208.0,422.0,96.0,-183.0,246.0,466.0,153,66,65,98,90
2025-02-26 15:24:04.843,23.0,-246.0,350.0,-197.0,236.0,471.0,151,67,65,101,91
2025-02-26 15:24:04.850,-233.0,-55.0,-158.0,-139.0,213.0,463.0,152,64,65,99,90
2025-02-26 15:24:04.855,183.0,149.0,-62.0,-22.0,201.0,459.0,154,66,68,97,95
2025-02-26 15:24:04.860,119.0,40.0,21.0,-16.0,209.0,451.0,153,68,69,95,97
2025-02-26 15:24:04.864,201.0,104.0,135.0,1.0,205.0,451.0,151,66,68,97,100
2025-02-26 15:24:04.871,26.0,-178.0,328.0,-11.0,165.0,441.0,153,67,70,103,104
2025-02-26 15:24:04.876,58.0,68.0,448.0,66.0,124.0,419.0,153,70,72,105,108
2025-02-26 15:24:04.880,180.0,96.0,132.0,97.0,118.0,396.0,149,69,71,105,107
2025-02-26 15:24:04.885,132.0,138.0,-299.0,136.0,131.0,389.0,149,71,72,105,109
2025-02-26 15:24:04.892,38.0,86.0,-244.0,175.0,178.0,381.0,151,75,76,110,112
2025-02-26 15:24:04.896,-127.0,150.0,-433.0,199.0,213.0,374.0,150,77,75,111,114
2025-02-26 15:24:04.900,-285.0,125.0,-371.0,221.0,229.0,370.0,148,77,74,112,115
2025-02-26 15:24:04.904,-378.0,74.0,-330.0,280.0,238.0,368.0,148,75,77,116,115
2025-02-26 15:24:04.913,-444.0,369.0,-441.0,346.0,223.0,347.0,151,80,85,120,119
2025-02-26 15:24:04.917,-640.0,683.0,-379.0,407.0,189.0,328.0,151,84,87,119,119
2025-02-26 15:24:04.921,-702.0,748.0,-449.0,414.0,130.0,311.0,147,83,87,119,119
2025-02-26 15:24:04.929,-638.0,749.0,-317.0,399.0,99.0,272.0,149,82,88,119,119
2025-02-26 15:24:04.934,-430.0,818.0,-264.0,363.0,47.0,244.0,149,81,92,122,122
2025-02-26 15:24:04.937,-283.0,903.0,-470.0,354.0,14.0,202.0,152,90,92,121,122
2025-02-26 15:24:04.942,-518.0,923.0,-318.0,329.0,54.0,183.0,149,93,92,121,120
2025-02-26 15:24:04.949,-515.0,762.0,-418.0,304.0,70.0,171.0,150,87,92,120,121
2025-02-26 15:24:04.954,-551.0,721.0,-334.0,276.0,88.0,164.0,148,95,93,122,121
2025-02-26 15:24:04.958,-572.0,694.0,-259.0,237.0,86.0,152.0,151,98,93,123,122
2025-02-26 15:24:04.963,-585.0,742.0,-309.0,220.0,67.0,143.0,147,98,97,123,122
2025-02-26 15:24:04.970,-552.0,913.0,-314.0,171.0,62.0,133.0,148,97,93,123,122
2025-02-26 15:24:04.974,-589.0,1019.0,-574.0,154.0,42.0,125.0,147,101,95,121,123
2025-02-26 15:24:04.976,-695.0,1123.0,-846.0,153.0,13.0,108.0,148,102,98,124,124
2025-02-26 15:24:04.986,-739.0,1322.0,-958.0,154.0,-17.0,83.0,148,101,98,126,126
2025-02-26 15:24:04.991,-725.0,1542.0,-1039.0,153.0,-42.0,48.0,148,102,96,122,124
2025-02-26 15:24:04.995,-864.0,1797.0,-1255.0,142.0,-83.0,-1.0,148,104,99,124,125
2025-02-26 15:24:05.001,-922.0,1985.0,-1563.0,112.0,-111.0,-63.0,145,105,97,123,124
2025-02-26 15:24:05.007,-975.0,2203.0,-1692.0,82.0,-182.0,-143.0,144,106,99,121,124
2025-02-26 15:24:05.015,-919.0,2311.0,-1793.0,49.0,-255.0,-232.0,149,109,100,123,126
2025-02-26 15:24:05.019,-1036.0,2378.0,-1740.0,-7.0,-322.0,-281.0,146,108,102,121,126
2025-02-26 15:24:05.024,-1120.0,2420.0,-1732.0,-58.0,-383.0,-380.0,145,109,98,122,127
2025-02-26 15:24:05.031,-1145.0,2558.0,-1871.0,-97.0,-442.0,-486.0,148,111,101,122,128
2025-02-26 15:24:05.036,-976.0,2366.0,-1669.0,-116.0,-464.0,-596.0,145,112,102,123,130
2025-02-26 15:24:05.044,-754.0,2347.0,-1508.0,-120.0,-472.0,-704.0,145,113,103,122,131
2025-02-26 15:24:05.048,-479.0,2349.0,-1262.0,-101.0,-470.0,-813.0,145,111,101,121,131
2025-02-26 15:24:05.056,6.0,2511.0,-1342.0,-121.0,-495.0,-904.0,146,113,104,122,128
2025-02-26 15:24:05.060,691.0,2750.0,-1351.0,-120.0,-568.0,-966.0,147,117,108,124,134
2025-02-26 15:24:05.065,1523.0,2553.0,-1198.0,-181.0,-648.0,-993.0,147,117,105,125,132
2025-02-26 15:24:05.073,2813.0,2209.0,-908.0,-291.0,-872.0,-1019.0,150,120,111,128,136
2025-02-26 15:24:05.077,3610.0,1109.0,544.0,-477.0,-1075.0,-1022.0,148,120,109,125,133
2025-02-26 15:24:05.084,4338.0,-7.0,-494.0,-553.0,-1035.0,-938.0,149,122,110,116,133
2025-02-26 15:24:05.090,5165.0,-1331.0,-814.0,-589.0,-1018.0,-810.0,152,124,113,128,134
2025-02-26 15:24:05.098,6057.0,-3091.0,-358.0,-556.0,-964.0,-679.0,152,126,115,131,132
2025-02-26 15:24:05.101,5951.0,-4875.0,-263.0,-581.0,-812.0,-539.0,151,126,117,130,132
2025-02-26 15:24:05.109,4903.0,-5881.0,-567.0,-494.0,-647.0,-356.0,151,126,118,130,131
2025-02-26 15:24:05.114,4807.0,-6050.0,-715.0,-349.0,-473.0,-197.0,153,129,120,134,132
2025-02-26 15:24:05.118,4541.0,-6380.0,-210.0,-229.0,-289.0,-45.0,153,128,120,134,133
2025-02-26 15:24:05.126,4053.0,-6253.0,-221.0,-160.0,-111.0,71.0,154,128,118,133,133
2025-02-26 15:24:05.130,3563.0,-5601.0,-117.0,-119.0,18.0,154.0,154,130,119,133,134
2025-02-26 15:24:05.138,3157.0,-4795.0,-644.0,-78.0,127.0,203.0,153,127,118,134,135
2025-02-26 15:24:05.140,2363.0,-4032.0,-778.0,-92.0,175.0,256.0,154,128,118,131,134
2025-02-26 15:24:05.146,1611.0,-3120.0,-846.0,-111.0,166.0,286.0,153,128,116,133,134
2025-02-26 15:24:05.155,1052.0,-2046.0,-1179.0,-32.0,30.0,285.0,155,129,119,134,137
2025-02-26 15:24:05.158,842.0,-1370.0,621.0,147.0,31.0,247.0,155,127,116,132,134
2025-02-26 15:24:05.163,829.0,-1479.0,1641.0,236.0,120.0,243.0,154,128,117,131,134
2025-02-26 15:24:05.170,478.0,-1158.0,-147.0,255.0,134.0,232.0,154,127,116,132,135
2025-02-26 15:24:05.176,149.0,-1194.0,157.0,260.0,108.0,265.0,157,127,118,132,137
2025-02-26 15:24:05.179,-18.0,-1829.0,169.0,135.0,42.0,313.0,154,129,118,134,137
2025-02-26 15:24:05.188,-237.0,-2237.0,342.0,45.0,66.0,363.0,154,127,117,132,136
2025-02-26 15:24:05.192,118.0,-1419.0,77.0,2.0,111.0,384.0,156,128,116,132,136
2025-02-26 15:24:05.195,365.0,-1000.0,351.0,-73.0,140.0,383.0,154,127,117,132,136
2025-02-26 15:24:05.204,444.0,-1113.0,880.0,-15.0,198.0,381.0,154,126,116,132,137
2025-02-26 15:24:05.208,114.0,-1167.0,508.0,165.0,221.0,348.0,154,126,117,134,135
2025-02-26 15:24:05.212,-331.0,-1307.0,-245.0,318.0,122.0,335.0,156,127,118,134,136
2025-02-26 15:24:05.220,-216.0,-1157.0,-753.0,306.0,-37.0,319.0,155,129,116,133,136
2025-02-26 15:24:05.224,9.0,-698.0,-589.0,302.0,-69.0,285.0,155,126,119,133,130
2025-02-26 15:24:05.229,430.0,-649.0,325.0,304.0,23.0,253.0,155,128,116,134,134
2025-02-26 15:24:05.236,384.0,-1366.0,248.0,247.0,61.0,274.0,154,127,115,134,132
2025-02-26 15:24:05.241,-247.0,-1194.0,527.0,206.0,151.0,273.0,153,125,116,132,133
2025-02-26 15:24:05.242,-113.0,-940.0,375.0,229.0,236.0,260.0,154,126,116,134,134
2025-02-26 15:24:05.252,179.0,-1338.0,122.0,150.0,275.0,237.0,156,126,116,133,134
2025-02-26 15:24:05.254,125.0,-1062.0,-115.0,-38.0,194.0,229.0,154,126,117,134,134
2025-02-26 15:24:05.262,322.0,-698.0,892.0,-107.0,166.0,170.0,155,125,117,133,134
2025-02-26 15:24:05.266,83.0,-927.0,96.0,-101.0,161.0,229.0,153,124,114,133,134
2025-02-26 15:24:05.273,-406.0,-413.0,522.0,-96.0,178.0,300.0,155,125,117,133,133
2025-02-26 15:24:05.278,-680.0,-538.0,135.0,-74.0,179.0,317.0,155,125,116,132,134
2025-02-26 15:24:05.286,-182.0,-515.0,176.0,-130.0,165.0,326.0,154,126,116,136,136
2025-02-26 15:24:05.290,113.0,-359.0,193.0,-158.0,157.0,310.0,156,127,116,134,136
2025-02-26 15:24:05.294,196.0,-270.0,194.0,-130.0,147.0,292.0,159,126,117,135,135
2025-02-26 15:24:05.302,-37.0,-313.0,242.0,-133.0,142.0,293.0,153,124,116,133,135
2025-02-26 15:24:05.307,-207.0,-391.0,128.0,-181.0,133.0,307.0,153,125,116,131,135
2025-02-26 15:24:05.311,-316.0,-280.0,84.0,-169.0,111.0,312.0,154,127,117,134,137
2025-02-26 15:24:05.319,-157.0,-246.0,-37.0,-133.0,88.0,310.0,152,124,116,134,134
2025-02-26 15:24:05.323,-231.0,83.0,-384.0,-120.0,82.0,311.0,154,123,114,134,135
2025-02-26 15:24:05.327,-182.0,-118.0,-48.0,-31.0,83.0,316.0,154,122,114,133,135
2025-02-26 15:24:05.334,-254.0,-74.0,143.0,13.0,91.0,316.0,153,122,115,137,136
2025-02-26 15:24:05.339,-210.0,5.0,91.0,16.0,82.0,309.0,152,115,115,132,135
2025-02-26 15:24:05.343,-281.0,36.0,179.0,-4.0,83.0,305.0,151,118,113,132,129
2025-02-26 15:24:05.348,-372.0,-6.0,203.0,-10.0,92.0,302.0,151,115,116,133,135
2025-02-26 15:24:05.355,-417.0,74.0,65.0,-3.0,101.0,294.0,154,113,115,133,135
2025-02-26 15:24:05.359,-416.0,255.0,-3.0,32.0,105.0,270.0,152,118,113,129,133
2025-02-26 15:24:05.364,-430.0,264.0,-94.0,106.0,101.0,257.0,150,118,113,128,133
2025-02-26 15:24:05.371,-765.0,179.0,-272.0,136.0,91.0,240.0,154,118,115,134,135
2025-02-26 15:24:05.375,-695.0,163.0,-109.0,150.0,74.0,222.0,154,116,124,132,135
2025-02-26 15:24:05.380,-584.0,323.0,-73.0,165.0,64.0,200.0,152,121,114,133,135
2025-02-26 15:24:05.387,-576.0,339.0,-36.0,186.0,61.0,178.0,151,117,113,132,133
2025-02-26 15:24:05.393,-555.0,347.0,-130.0,216.0,52.0,156.0,152,118,114,133,134
2025-02-26 15:24:05.394,-551.0,347.0,-56.0,247.0,47.0,147.0,152,114,115,134,135
2025-02-26 15:24:05.404,-585.0,305.0,-101.0,292.0,33.0,130.0,152,117,113,134,135
2025-02-26 15:24:05.409,-284.0,396.0,-146.0,320.0,-2.0,112.0,153,119,115,133,134
2025-02-26 15:24:05.413,-535.0,374.0,28.0,368.0,1.0,108.0,154,104,114,134,136
2025-02-26 15:24:05.417,-678.0,543.0,160.0,364.0,7.0,112.0,152,108,113,132,136
2025-02-26 15:24:05.425,-705.0,624.0,67.0,383.0,10.0,112.0,149,117,112,133,136
2025-02-26 15:24:05.429,-496.0,843.0,124.0,428.0,11.0,107.0,152,110,112,133,136
2025-02-26 15:24:05.434,-713.0,1065.0,-81.0,409.0,-12.0,79.0,153,111,112,134,136
2025-02-26 15:24:05.441,-758.0,1221.0,-413.0,344.0,-27.0,51.0,155,116,109,133,136
2025-02-26 15:24:05.446,-946.0,1431.0,-604.0,293.0,-53.0,24.0,148,113,114,132,134
2025-02-26 15:24:05.450,-1082.0,1597.0,-723.0,269.0,-79.0,6.0,151,113,110,130,134
2025-02-26 15:24:05.457,-1111.0,1801.0,-1106.0,279.0,-132.0,-43.0,153,120,115,134,139
2025-02-26 15:24:05.462,-1304.0,1949.0,-1293.0,231.0,-192.0,-110.0,154,119,109,134,137
2025-02-26 15:24:05.470,-1393.0,2136.0,-1319.0,192.0,-238.0,-191.0,152,120,111,133,139
2025-02-26 15:24:05.474,-1455.0,2369.0,-1377.0,171.0,-288.0,-288.0,155,121,114,134,140
2025-02-26 15:24:05.478,-1422.0,2565.0,-1179.0,123.0,-328.0,-397.0,153,123,112,133,138
2025-02-26 15:24:05.486,-1346.0,2656.0,-1064.0,36.0,-341.0,-525.0,155,125,112,127,138
2025-02-26 15:24:05.491,-1050.0,2926.0,-1136.0,-27.0,-351.0,-655.0,153,123,113,133,140
2025-02-26 15:24:05.499,-517.0,2990.0,-1110.0,-77.0,-351.0,-770.0,153,124,112,133,140
2025-02-26 15:24:05.504,-125.0,2773.0,-1187.0,-154.0,-405.0,-867.0,152,124,112,132,139
2025-02-26 15:24:05.511,498.0,2651.0,-1154.0,-222.0,-651.0,-937.0,151,125,113,134,142
2025-02-26 15:24:05.515,821.0,2348.0,390.0,-331.0,-763.0,-985.0,151,126,114,133,141
2025-02-26 15:24:05.519,1697.0,1745.0,-1020.0,-376.0,-819.0,-963.0,150,126,116,135,139
2025-02-26 15:24:05.527,2484.0,640.0,-1406.0,-476.0,-890.0,-886.0,142,125,115,135,139
2025-02-26 15:24:05.532,3382.0,-167.0,-543.0,-522.0,-878.0,-829.0,148,127,116,133,139
2025-02-26 15:24:05.540,4043.0,-852.0,-300.0,-523.0,-817.0,-762.0,149,127,117,135,137
2025-02-26 15:24:05.544,4448.0,-1514.0,-377.0,-506.0,-750.0,-676.0,150,126,117,135,136
2025-02-26 15:24:05.552,5036.0,-2969.0,-575.0,-454.0,-673.0,-553.0,150,126,119,135,136
2025-02-26 15:24:05.556,5101.0,-4528.0,-438.0,-386.0,-539.0,-429.0,151,128,120,135,136
2025-02-26 15:24:05.561,4454.0,-5594.0,-756.0,-377.0,-421.0,-286.0,150,128,120,135,136
2025-02-26 15:24:05.568,4204.0,-5725.0,-911.0,-328.0,-279.0,-164.0,150,129,119,134,136
2025-02-26 15:24:05.570,3878.0,-5764.0,-574.0,-229.0,-124.0,-44.0,152,129,122,137,136
2025-02-26 15:24:05.580,3414.0,-5630.0,-700.0,-233.0,-24.0,64.0,151,128,122,137,136
2025-02-26 15:24:05.582,3034.0,-4914.0,-694.0,-208.0,53.0,129.0,151,130,119,134,134
2025-02-26 15:24:05.593,2769.0,-4016.0,-523.0,-183.0,90.0,163.0,151,128,117,134,134
2025-02-26 15:24:05.595,2416.0,-3527.0,143.0,-134.0,123.0,175.0,150,128,118,135,136
2025-02-26 15:24:05.601,1879.0,-3111.0,105.0,115.0,106.0,179.0,151,127,117,135,135
2025-02-26 15:24:05.609,1303.0,-2326.0,-47.0,162.0,106.0,179.0,152,127,116,134,136
2025-02-26 15:24:05.613,865.0,-2130.0,195.0,206.0,124.0,169.0,156,129,118,136,138
2025-02-26 15:24:05.618,658.0,-1719.0,467.0,258.0,151.0,174.0,155,129,119,136,138
2025-02-26 15:24:05.625,417.0,-1800.0,376.0,226.0,88.0,205.0,152,129,118,136,137
2025-02-26 15:24:05.630,137.0,-1819.0,443.0,187.0,94.0,231.0,152,127,116,134,137
2025-02-26 15:24:05.634,-129.0,-1939.0,-164.0,202.0,93.0,271.0,154,128,118,134,137
2025-02-26 15:24:05.642,269.0,-1185.0,257.0,13.0,72.0,253.0,152,127,115,134,137
2025-02-26 15:24:05.646,636.0,-1196.0,502.0,-4.0,143.0,254.0,149,126,114,129,135
2025-02-26 15:24:05.648,324.0,-1261.0,504.0,39.0,188.0,256.0,152,128,117,136,138
2025-02-26 15:24:05.658,227.0,-1606.0,429.0,140.0,189.0,255.0,152,129,120,137,138
2025-02-26 15:24:05.663,-43.0,-1786.0,-371.0,154.0,58.0,253.0,152,128,116,136,135
2025-02-26 15:24:05.667,50.0,-1497.0,275.0,71.0,19.0,225.0,152,126,114,135,136
2025-02-26 15:24:05.671,314.0,-1120.0,488.0,30.0,25.0,204.0,152,128,115,135,137
2025-02-26 15:24:05.679,386.0,-1175.0,448.0,100.0,68.0,198.0,153,127,117,135,137
2025-02-26 15:24:05.683,208.0,-1302.0,595.0,126.0,130.0,212.0,153,128,116,135,137
2025-02-26 15:24:05.688,223.0,-1224.0,543.0,114.0,162.0,206.0,155,128,115,135,136
2025-02-26 15:24:05.696,371.0,-1166.0,511.0,73.0,176.0,205.0,153,127,116,136,137
2025-02-26 15:24:05.700,378.0,-1115.0,699.0,40.0,184.0,192.0,151,125,116,137,137
2025-02-26 15:24:05.703,407.0,-1127.0,314.0,-10.0,190.0,203.0,152,122,114,134,134
2025-02-26 15:24:05.710,314.0,-1111.0,416.0,-66.0,195.0,211.0,151,125,113,133,135
2025-02-26 15:24:05.716,318.0,-1014.0,267.0,-105.0,221.0,225.0,149,125,116,138,138
2025-02-26 15:24:05.721,153.0,-1097.0,362.0,-151.0,231.0,263.0,154,126,116,135,138
2025-02-26 15:24:05.728,-136.0,-954.0,322.0,-168.0,222.0,306.0,154,126,116,135,137
2025-02-26 15:24:05.732,-48.0,-810.0,-49.0,-174.0,190.0,334.0,153,126,115,136,139
2025-02-26 15:24:05.740,114.0,-654.0,234.0,-172.0,175.0,340.0,152,124,115,135,137
2025-02-26 15:24:05.744,61.0,-538.0,195.0,-149.0,151.0,327.0,154,124,114,134,136
2025-02-26 15:24:05.749,41.0,25.0,43.0,-130.0,135.0,330.0,150,123,112,133,134
2025-02-26 15:24:05.753,100.0,-743.0,-146.0,-90.0,106.0,343.0,155,125,115,137,137
2025-02-26 15:24:05.761,-18.0,-378.0,-37.0,-57.0,91.0,346.0,154,123,114,134,137
2025-02-26 15:24:05.765,-29.0,-261.0,270.0,-66.0,96.0,350.0,154,121,113,135,137
2025-02-26 15:24:05.769,58.0,-264.0,268.0,-84.0,96.0,350.0,151,120,111,133,135
2025-02-26 15:24:05.776,130.0,-226.0,200.0,-89.0,96.0,348.0,157,120,111,131,136
2025-02-26 15:24:05.781,145.0,-196.0,216.0,-83.0,114.0,345.0,153,119,112,134,136
2025-02-26 15:24:05.785,-29.0,-215.0,240.0,-80.0,123.0,345.0,154,119,112,130,134
2025-02-26 15:24:05.793,-64.0,-178.0,299.0,-79.0,138.0,345.0,154,117,112,134,134
2025-02-26 15:24:05.798,-47.0,-119.0,179.0,-50.0,140.0,341.0,151,116,110,134,133
2025-02-26 15:24:05.803,-140.0,-157.0,106.0,2.0,145.0,340.0,152,115,111,133,132
2025-02-26 15:24:05.810,-350.0,-221.0,-34.0,38.0,142.0,340.0,152,115,109,135,132
2025-02-26 15:24:05.814,-403.0,-187.0,257.0,73.0,150.0,335.0,154,116,112,135,134
2025-02-26 15:24:05.818,-373.0,-124.0,-275.0,91.0,127.0,339.0,153,112,109,131,132
2025-02-26 15:24:05.822,-323.0,122.0,15.0,116.0,124.0,334.0,152,110,109,134,132
2025-02-26 15:24:05.831,-292.0,157.0,-22.0,137.0,122.0,328.0,150,106,105,132,131
2025-02-26 15:24:05.835,-293.0,194.0,-37.0,168.0,122.0,324.0,153,111,105,133,131
2025-02-26 15:24:05.839,-331.0,246.0,3.0,215.0,130.0,316.0,151,104,106,129,133
2025-02-26 15:24:05.846,-394.0,256.0,3.0,257.0,142.0,308.0,153,105,105,132,135
2025-02-26 15:24:05.851,-489.0,392.0,-147.0,282.0,138.0,296.0,153,107,104,131,131
2025-02-26 15:24:05.855,-410.0,528.0,-158.0,337.0,135.0,282.0,152,96,98,132,132
2025-02-26 15:24:05.863,-516.0,632.0,-476.0,397.0,105.0,274.0,150,98,98,131,131
2025-02-26 15:24:05.867,-423.0,780.0,-638.0,473.0,57.0,253.0,155,102,96,130,130
2025-02-26 15:24:05.871,-484.0,1224.0,-420.0,532.0,48.0,227.0,153,91,92,131,128
2025-02-26 15:24:05.876,-541.0,1353.0,-438.0,581.0,50.0,202.0,153,90,89,128,127
2025-02-26 15:24:05.884,-616.0,1695.0,-705.0,669.0,36.0,140.0,150,88,82,124,122
2025-02-26 15:24:05.885,-867.0,2265.0,568.0,579.0,81.0,91.0,150,80,78,122,118
2025-02-26 15:24:05.893,-992.0,2092.0,102.0,506.0,101.0,20.0,155,84,78,121,112
2025-02-26 15:24:05.900,-1139.0,2629.0,-716.0,475.0,77.0,-87.0,152,74,73,114,100
2025-02-26 15:24:05.902,-1231.0,2762.0,-1225.0,434.0,41.0,-201.0,150,71,69,106,89
2025-02-26 15:24:05.908,-1376.0,3124.0,-1735.0,372.0,22.0,-327.0,149,66,70,100,81
2025-02-26 15:24:05.914,-1707.0,3217.0,-1961.0,298.0,-21.0,-387.0,149,66,68,98,73
2025-02-26 15:24:05.920,-1843.0,3649.0,-2226.0,208.0,-97.0,-515.0,151,64,69,101,70
2025-02-26 15:24:05.925,-1668.0,3795.0,-2266.0,105.0,-212.0,-643.0,151,66,65,99,70
2025-02-26 15:24:05.932,-1391.0,3803.0,-2355.0,26.0,-352.0,-750.0,150,62,65,96,67
2025-02-26 15:24:05.937,-1188.0,3704.0,-2351.0,-5.0,-482.0,-828.0,151,61,62,95,66
2025-02-26 15:24:05.941,-766.0,3737.0,-2648.0,-73.0,-642.0,-911.0,149,58,60,91,65
2025-02-26 15:24:05.949,-234.0,3969.0,-2623.0,-124.0,-719.0,-968.0,150,55,58,90,63
2025-02-26 15:24:05.954,1537.0,2999.0,-2623.0,-200.0,-869.0,-984.0,150,59,60,88,64
2025-02-26 15:24:05.956,2628.0,2545.0,-2743.0,-270.0,-1014.0,-979.0,150,58,58,86,63
2025-02-26 15:24:05.962,3609.0,1355.0,-2268.0,-365.0,-1081.0,-947.0,153,59,57,85,66
2025-02-26 15:24:05.969,5065.0,191.0,-1716.0,-457.0,-1093.0,-858.0,152,59,58,87,67
2025-02-26 15:24:05.975,5931.0,-1166.0,-1183.0,-492.0,-1041.0,-719.0,155,57,59,85,69
2025-02-26 15:24:05.981,6183.0,-2710.0,-81.0,-519.0,-899.0,-584.0,157,59,59,85,68
2025-02-26 15:24:05.987,6209.0,-3991.0,1091.0,-537.0,-696.0,-462.0,155,57,56,85,69
2025-02-26 15:24:05.995,6226.0,-5258.0,2061.0,-522.0,-459.0,-346.0,157,60,57,84,67
2025-02-26 15:24:05.998,6211.0,-6191.0,2337.0,-417.0,-330.0,-241.0,158,59,56,81,66
2025-02-26 15:24:06.003,6290.0,-6621.0,2076.0,-268.0,-68.0,-151.0,156,57,55,81,65
2025-02-26 15:24:06.011,5565.0,-6569.0,1308.0,-113.0,173.0,-113.0,154,56,54,79,64
2025-02-26 15:24:06.015,4271.0,-6482.0,275.0,73.0,330.0,-45.0,158,58,57,82,65
2025-02-26 15:24:06.019,2757.0,-5566.0,-242.0,218.0,388.0,44.0,158,57,57,80,61
2025-02-26 15:24:06.027,1838.0,-5084.0,-1246.0,268.0,342.0,59.0,156,56,57,77,59
2025-02-26 15:24:06.031,1031.0,-3917.0,-1236.0,429.0,286.0,141.0,154,55,56,78,56
2025-02-26 15:24:06.036,414.0,-1922.0,-1782.0,260.0,104.0,137.0,157,56,57,79,60
2025-02-26 15:24:06.040,39.0,-2619.0,-749.0,330.0,11.0,141.0,159,58,57,82,62
