timestamp,ax,ay,az,gx,gy,gz,flex1,flex2,flex3,flex4,flex5,emg1,emg2,emg3
2025-02-26 15:10:59.123,-349.0,34.0,957.0,-4.0,-6.0,-4.0,156,134,127,151,134
2025-02-26 15:10:59.138,-349.0,23.0,962.0,-5.0,-6.0,-4.0,157,135,128,153,135
2025-02-26 15:10:59.140,-347.0,21.0,957.0,-5.0,-6.0,-4.0,156,134,127,151,134
2025-02-26 15:10:59.142,-342.0,14.0,965.0,-6.0,-5.0,-4.0,156,134,127,151,134
2025-02-26 15:10:59.144,-341.0,20.0,966.0,-5.0,-5.0,-4.0,157,136,129,152,136
2025-02-26 15:10:59.145,-349.0,4.0,970.0,-5.0,-4.0,-4.0,156,133,126,152,133
2025-02-26 15:10:59.146,-341.0,3.0,971.0,-4.0,-3.0,-4.0,157,136,133,153,137
2025-02-26 15:10:59.146,-347.0,0.0,975.0,-2.0,-2.0,-4.0,158,137,130,152,137
2025-02-26 15:10:59.146,-341.0,11.0,964.0,-1.0,-1.0,-4.0,154,132,126,148,133
2025-02-26 15:10:59.152,-338.0,1.0,963.0,0.0,0.0,-4.0,158,137,129,152,137
2025-02-26 15:10:59.156,-343.0,1.0,975.0,1.0,2.0,-4.0,158,135,132,152,136
2025-02-26 15:10:59.158,-339.0,3.0,967.0,4.0,2.0,-4.0,154,133,126,150,133
2025-02-26 15:10:59.158,-337.0,2.0,962.0,5.0,3.0,-5.0,158,136,129,149,135
2025-02-26 15:10:59.158,-347.0,10.0,962.0,5.0,4.0,-5.0,156,136,125,152,134
2025-02-26 15:10:59.158,-345.0,13.0,964.0,7.0,5.0,-5.0,156,133,127,150,135
2025-02-26 15:10:59.167,-343.0,13.0,951.0,8.0,5.0,-4.0,158,137,129,154,137
2025-02-26 15:10:59.169,-357.0,13.0,956.0,8.0,4.0,-4.0,155,133,128,150,134
2025-02-26 15:10:59.171,-349.0,20.0,958.0,7.0,3.0,-4.0,154,132,125,150,133
2025-02-26 15:10:59.171,-353.0,24.0,952.0,6.0,2.0,-4.0,155,137,130,154,137
2025-02-26 15:10:59.171,-352.0,35.0,959.0,5.0,2.0,-3.0,156,135,129,152,135
2025-02-26 15:10:59.178,-347.0,34.0,955.0,3.0,1.0,-3.0,154,133,128,149,131
2025-02-26 15:10:59.181,-351.0,35.0,958.0,1.0,0.0,-3.0,157,136,129,152,135
2025-02-26 15:10:59.183,-359.0,38.0,953.0,-1.0,-1.0,-4.0,158,136,132,153,136
2025-02-26 15:10:59.183,-353.0,30.0,963.0,-3.0,-1.0,-4.0,155,134,127,150,135
2025-02-26 15:10:59.183,-347.0,27.0,960.0,-5.0,-2.0,-5.0,157,133,130,152,136
2025-02-26 15:10:59.189,-348.0,24.0,965.0,-5.0,-1.0,-5.0,156,136,129,152,136
2025-02-26 15:10:59.189,-348.0,2.0,971.0,-6.0,-1.0,-5.0,158,135,128,152,135
2025-02-26 15:10:59.189,-341.0,0.0,974.0,-6.0,1.0,-4.0,157,136,130,154,137
2025-02-26 15:10:59.196,-339.0,0.0,970.0,-6.0,3.0,-4.0,157,135,127,151,135
2025-02-26 15:10:59.198,-334.0,-6.0,975.0,-6.0,5.0,-4.0,155,132,125,148,133
2025-02-26 15:10:59.201,-337.0,-16.0,975.0,-5.0,7.0,-3.0,159,138,131,153,137
2025-02-26 15:10:59.201,-336.0,-17.0,971.0,-5.0,9.0,-2.0,155,135,127,151,135
2025-02-26 15:10:59.201,-334.0,-17.0,958.0,-3.0,10.0,-2.0,153,133,125,148,132
2025-02-26 15:10:59.207,-338.0,-20.0,964.0,-1.0,11.0,-2.0,157,137,129,153,136
2025-02-26 15:10:59.210,-345.0,-19.0,954.0,-1.0,11.0,-2.0,156,136,129,152,135
2025-02-26 15:10:59.213,-345.0,-16.0,949.0,0.0,12.0,-2.0,154,134,127,150,133
2025-02-26 15:10:59.214,-347.0,-11.0,952.0,1.0,11.0,-1.0,158,138,130,153,135
2025-02-26 15:10:59.214,-350.0,-2.0,949.0,1.0,10.0,-2.0,154,134,127,149,133
2025-02-26 15:10:59.219,-351.0,2.0,948.0,2.0,10.0,-2.0,155,134,127,149,134
2025-02-26 15:10:59.221,-356.0,9.0,947.0,1.0,9.0,-2.0,157,137,130,153,137
2025-02-26 15:10:59.223,-365.0,12.0,947.0,0.0,8.0,-2.0,155,133,127,149,133
2025-02-26 15:10:59.225,-366.0,15.0,945.0,-1.0,6.0,-2.0,154,134,126,149,132
2025-02-26 15:10:59.227,-368.0,11.0,945.0,-1.0,5.0,-3.0,161,139,133,155,139
2025-02-26 15:10:59.231,-374.0,10.0,946.0,-8.0,3.0,-2.0,156,136,130,155,134
2025-02-26 15:10:59.237,-353.0,20.0,911.0,-8.0,4.0,-3.0,154,134,126,150,133
2025-02-26 15:10:59.243,-367.0,1.0,961.0,-11.0,4.0,-3.0,157,137,129,152,136
2025-02-26 15:10:59.247,-380.0,-3.0,940.0,-11.0,3.0,-3.0,158,137,131,153,136
2025-02-26 15:10:59.250,-375.0,-1.0,941.0,-11.0,2.0,-3.0,157,135,128,151,134
2025-02-26 15:10:59.250,-366.0,-9.0,943.0,-11.0,0.0,-3.0,158,137,131,153,137
2025-02-26 15:10:59.262,-378.0,-21.0,963.0,-10.0,0.0,-3.0,156,134,127,149,132
2025-02-26 15:10:59.267,-367.0,-23.0,927.0,-9.0,-2.0,-3.0,160,140,133,155,139
2025-02-26 15:10:59.271,-381.0,-21.0,955.0,-6.0,-3.0,-2.0,158,137,130,154,137
2025-02-26 15:10:59.279,-363.0,-15.0,943.0,-6.0,-4.0,-2.0,154,134,128,150,134
2025-02-26 15:10:59.284,-373.0,-19.0,948.0,-2.0,-5.0,-2.0,157,135,128,151,135
2025-02-26 15:10:59.286,-363.0,-11.0,955.0,0.0,-6.0,-2.0,160,140,132,155,139
2025-02-26 15:10:59.289,-362.0,-13.0,974.0,0.0,-5.0,-2.0,154,134,127,150,135
2025-02-26 15:10:59.299,-359.0,-9.0,978.0,2.0,-5.0,-2.0,157,137,130,152,136
2025-02-26 15:10:59.299,-356.0,-8.0,975.0,3.0,-5.0,-2.0,156,135,129,152,136
2025-02-26 15:10:59.308,-353.0,-5.0,1000.0,5.0,-5.0,-2.0,154,134,127,150,134
2025-02-26 15:10:59.310,-352.0,-8.0,993.0,6.0,-5.0,-2.0,156,137,130,153,136
2025-02-26 15:10:59.320,-349.0,3.0,1000.0,7.0,-4.0,-1.0,159,137,129,151,136
2025-02-26 15:10:59.324,-349.0,14.0,1004.0,9.0,-4.0,-2.0,153,133,127,147,133
2025-02-26 15:10:59.328,-349.0,19.0,1016.0,9.0,-4.0,-2.0,157,136,129,151,137
2025-02-26 15:10:59.328,-343.0,33.0,1015.0,9.0,-3.0,-2.0,155,136,129,151,136
2025-02-26 15:10:59.334,-354.0,34.0,1025.0,8.0,-3.0,-2.0,155,133,127,151,133
2025-02-26 15:10:59.345,-347.0,37.0,1015.0,6.0,-2.0,-2.0,157,137,129,151,136
2025-02-26 15:10:59.348,-337.0,38.0,1025.0,5.0,-1.0,-3.0,156,135,129,151,135
2025-02-26 15:10:59.353,-336.0,55.0,1020.0,3.0,-1.0,-2.0,153,134,128,151,133
2025-02-26 15:10:59.353,-341.0,46.0,1008.0,1.0,-2.0,-3.0,157,137,130,153,137
2025-02-26 15:10:59.360,-345.0,50.0,1022.0,0.0,-1.0,-3.0,158,135,128,151,135
2025-02-26 15:10:59.360,-338.0,40.0,1018.0,-2.0,-1.0,-3.0,155,130,126,149,133
2025-02-26 15:10:59.374,-340.0,41.0,1015.0,-3.0,-1.0,-3.0,156,133,127,150,134
2025-02-26 15:10:59.378,-337.0,41.0,1015.0,-4.0,0.0,-3.0,157,137,130,152,136
2025-02-26 15:10:59.385,-334.0,28.0,1007.0,-5.0,1.0,-3.0,157,136,129,151,135
2025-02-26 15:10:59.389,-338.0,28.0,1002.0,-4.0,2.0,-3.0,150,133,127,148,133
2025-02-26 15:10:59.394,-338.0,23.0,996.0,-4.0,2.0,-3.0,157,137,130,153,137
2025-02-26 15:10:59.399,-334.0,21.0,992.0,-3.0,3.0,-3.0,155,136,128,151,135
2025-02-26 15:10:59.403,-338.0,13.0,985.0,-2.0,3.0,-3.0,153,133,127,149,132
2025-02-26 15:10:59.410,-337.0,12.0,977.0,-1.0,4.0,-3.0,157,137,130,152,135
2025-02-26 15:10:59.413,-340.0,14.0,974.0,0.0,4.0,-3.0,159,134,130,153,137
2025-02-26 15:10:59.418,-337.0,12.0,971.0,1.0,4.0,-2.0,154,133,127,150,133
2025-02-26 15:10:59.423,-348.0,14.0,965.0,2.0,5.0,-3.0,158,137,128,151,135
2025-02-26 15:10:59.425,-352.0,14.0,964.0,2.0,5.0,-2.0,158,136,129,151,135
2025-02-26 15:10:59.428,-351.0,20.0,955.0,2.0,5.0,-2.0,157,134,128,150,134
2025-02-26 15:10:59.438,-358.0,27.0,953.0,2.0,5.0,-2.0,157,136,129,149,137
2025-02-26 15:10:59.442,-364.0,24.0,954.0,2.0,4.0,-2.0,155,132,129,151,137
2025-02-26 15:10:59.447,-369.0,28.0,953.0,1.0,4.0,-2.0,153,134,126,148,133
2025-02-26 15:10:59.449,-368.0,18.0,945.0,0.0,4.0,-2.0,158,136,129,154,136
2025-02-26 15:10:59.459,-374.0,24.0,949.0,0.0,3.0,-2.0,154,137,128,153,136
2025-02-26 15:10:59.463,-374.0,25.0,944.0,-1.0,3.0,-2.0,151,132,126,149,133
2025-02-26 15:10:59.468,-372.0,23.0,941.0,-2.0,2.0,-2.0,156,135,128,152,135
2025-02-26 15:10:59.472,-374.0,18.0,946.0,-2.0,2.0,-2.0,156,136,128,153,136
2025-02-26 15:10:59.477,-372.0,17.0,936.0,-1.0,1.0,-2.0,154,133,127,148,133
2025-02-26 15:10:59.480,-372.0,23.0,941.0,-1.0,1.0,-2.0,155,136,128,153,136
2025-02-26 15:10:59.487,-372.0,15.0,937.0,-1.0,0.0,-2.0,156,135,127,150,135
2025-02-26 15:10:59.492,-376.0,17.0,935.0,0.0,0.0,-2.0,153,133,127,150,132
2025-02-26 15:10:59.492,-375.0,14.0,935.0,0.0,0.0,-2.0,156,136,129,152,137
2025-02-26 15:10:59.501,-371.0,17.0,939.0,0.0,-1.0,-2.0,154,135,128,150,135
2025-02-26 15:10:59.505,-370.0,13.0,940.0,0.0,-1.0,-2.0,152,132,126,150,136
2025-02-26 15:10:59.513,-377.0,15.0,943.0,0.0,0.0,-2.0,158,135,130,153,136
2025-02-26 15:10:59.517,-376.0,20.0,940.0,0.0,-1.0,-3.0,156,136,129,152,135
2025-02-26 15:10:59.521,-377.0,21.0,944.0,0.0,0.0,-2.0,153,132,125,149,133
2025-02-26 15:10:59.529,-383.0,21.0,942.0,0.0,-1.0,-2.0,156,136,129,151,135
2025-02-26 15:10:59.533,-375.0,23.0,945.0,0.0,-1.0,-3.0,157,137,129,152,135
2025-02-26 15:10:59.537,-378.0,23.0,945.0,-1.0,-1.0,-3.0,155,139,126,150,133
2025-02-26 15:10:59.542,-379.0,21.0,949.0,-1.0,-2.0,-3.0,156,135,129,151,134
2025-02-26 15:10:59.546,-377.0,27.0,947.0,-1.0,-2.0,-3.0,155,136,129,152,136
2025-02-26 15:10:59.554,-377.0,23.0,950.0,-1.0,-2.0,-3.0,155,134,127,150,134
2025-02-26 15:10:59.558,-373.0,17.0,956.0,-1.0,-2.0,-3.0,153,133,127,148,132
2025-02-26 15:10:59.562,-370.0,20.0,958.0,0.0,-2.0,-3.0,156,136,130,153,136
2025-02-26 15:10:59.566,-366.0,17.0,962.0,0.0,-2.0,-3.0,155,136,129,152,134
2025-02-26 15:10:59.573,-366.0,18.0,968.0,0.0,-1.0,-3.0,154,134,128,150,134
2025-02-26 15:10:59.578,-362.0,19.0,971.0,0.0,-1.0,-3.0,157,137,130,152,136
2025-02-26 15:10:59.582,-364.0,12.0,968.0,1.0,0.0,-3.0,156,136,130,151,134
2025-02-26 15:10:59.587,-359.0,10.0,973.0,1.0,-1.0,-3.0,154,133,126,149,133
2025-02-26 15:10:59.591,-355.0,14.0,973.0,1.0,0.0,-3.0,158,138,133,152,136
2025-02-26 15:10:59.599,-353.0,10.0,975.0,1.0,0.0,-3.0,157,137,127,152,136
2025-02-26 15:10:59.603,-353.0,13.0,974.0,1.0,0.0,-3.0,156,135,127,149,133
2025-02-26 15:10:59.606,-354.0,9.0,976.0,2.0,1.0,-3.0,157,136,129,152,135
2025-02-26 15:10:59.608,-352.0,13.0,974.0,1.0,0.0,-2.0,157,136,131,153,137
2025-02-26 15:10:59.615,-353.0,14.0,967.0,1.0,0.0,-2.0,155,135,127,150,134
2025-02-26 15:10:59.622,-351.0,15.0,967.0,1.0,0.0,-2.0,156,136,129,152,136
2025-02-26 15:10:59.627,-351.0,10.0,966.0,1.0,0.0,-2.0,155,134,127,150,133
2025-02-26 15:10:59.632,-354.0,13.0,963.0,0.0,0.0,-2.0,154,133,126,151,134
2025-02-26 15:10:59.635,-349.0,12.0,962.0,0.0,0.0,-2.0,159,137,130,152,137
2025-02-26 15:10:59.639,-352.0,11.0,963.0,-1.0,0.0,-2.0,153,134,127,150,133
2025-02-26 15:10:59.647,-349.0,12.0,960.0,-1.0,0.0,-2.0,154,133,126,149,133
2025-02-26 15:10:59.652,-346.0,10.0,966.0,-2.0,0.0,-2.0,159,138,132,153,138
2025-02-26 15:10:59.656,-347.0,12.0,964.0,-2.0,0.0,-1.0,154,134,127,150,134
2025-02-26 15:10:59.660,-350.0,11.0,961.0,-2.0,1.0,-2.0,154,132,125,148,131
2025-02-26 15:10:59.664,-349.0,11.0,957.0,-2.0,1.0,-1.0,158,137,130,153,135
2025-02-26 15:10:59.671,-345.0,11.0,958.0,-2.0,1.0,-1.0,157,137,130,153,136
2025-02-26 15:10:59.676,-349.0,12.0,958.0,0.0,1.0,-1.0,156,136,128,150,134
2025-02-26 15:10:59.681,-350.0,-4.0,959.0,0.0,0.0,-1.0,157,137,130,151,136
2025-02-26 15:10:59.683,-349.0,-2.0,966.0,1.0,1.0,0.0,153,133,126,149,131
2025-02-26 15:10:59.689,-364.0,4.0,952.0,1.0,0.0,0.0,157,134,127,151,135
2025-02-26 15:10:59.694,-363.0,-5.0,932.0,1.0,0.0,0.0,158,138,131,152,137
2025-02-26 15:10:59.701,-350.0,-11.0,963.0,2.0,0.0,0.0,153,133,127,149,133
2025-02-26 15:10:59.705,-349.0,19.0,938.0,1.0,-1.0,0.0,156,135,130,152,136
2025-02-26 15:10:59.710,-369.0,2.0,964.0,0.0,-1.0,0.0,159,139,132,155,138
2025-02-26 15:10:59.713,-360.0,-6.0,953.0,-1.0,-1.0,1.0,153,135,127,150,134
2025-02-26 15:10:59.718,-359.0,14.0,923.0,-2.0,-1.0,2.0,157,137,129,153,136
2025-02-26 15:10:59.723,-352.0,5.0,977.0,-2.0,-1.0,1.0,156,135,128,151,134
2025-02-26 15:10:59.730,-357.0,9.0,965.0,-4.0,0.0,2.0,157,136,130,152,136
2025-02-26 15:10:59.734,-375.0,12.0,955.0,-3.0,0.0,2.0,157,137,131,153,138
2025-02-26 15:10:59.738,-363.0,6.0,955.0,-2.0,0.0,2.0,156,134,128,153,136
2025-02-26 15:10:59.743,-354.0,24.0,949.0,-3.0,-1.0,1.0,154,134,127,149,132
2025-02-26 15:10:59.749,-363.0,22.0,940.0,-3.0,0.0,2.0,157,136,130,152,136
2025-02-26 15:10:59.754,-366.0,16.0,950.0,-3.0,0.0,1.0,156,137,130,153,136
2025-02-26 15:10:59.759,-367.0,7.0,939.0,-3.0,0.0,1.0,153,133,127,151,134
2025-02-26 15:10:59.762,-372.0,35.0,945.0,-4.0,0.0,1.0,157,136,130,153,137
2025-02-26 15:10:59.766,-361.0,30.0,944.0,-3.0,0.0,1.0,153,134,126,150,133
2025-02-26 15:10:59.774,-377.0,21.0,925.0,-3.0,0.0,1.0,155,132,126,148,133
2025-02-26 15:10:59.778,-368.0,22.0,921.0,-2.0,-1.0,0.0,157,137,130,151,136
2025-02-26 15:10:59.783,-386.0,11.0,937.0,-3.0,-1.0,0.0,155,135,124,149,133
2025-02-26 15:10:59.787,-367.0,18.0,924.0,-1.0,-1.0,-1.0,152,132,126,149,133
2025-02-26 15:10:59.791,-381.0,2.0,958.0,2.0,0.0,0.0,158,138,130,154,138
2025-02-26 15:10:59.797,-378.0,9.0,931.0,1.0,-2.0,-1.0,157,134,127,150,134
2025-02-26 15:10:59.803,-375.0,16.0,933.0,2.0,-2.0,-1.0,153,136,126,148,131
2025-02-26 15:10:59.807,-352.0,29.0,964.0,3.0,-1.0,-1.0,156,136,129,151,134
2025-02-26 15:10:59.809,-382.0,11.0,953.0,3.0,-1.0,0.0,155,136,128,151,135
2025-02-26 15:10:59.816,-366.0,13.0,997.0,0.0,-2.0,0.0,158,137,129,151,136
2025-02-26 15:10:59.822,-370.0,-62.0,893.0,0.0,0.0,-1.0,157,136,130,152,134
2025-02-26 15:10:59.828,-271.0,-37.0,954.0,1.0,-3.0,0.0,154,133,126,148,133
2025-02-26 15:10:59.833,-375.0,56.0,916.0,2.0,-3.0,-1.0,153,134,127,151,133
2025-02-26 15:10:59.836,-399.0,33.0,991.0,0.0,-3.0,0.0,156,137,130,152,137
2025-02-26 15:10:59.841,-382.0,11.0,960.0,1.0,-2.0,0.0,153,134,127,148,133
2025-02-26 15:10:59.846,-375.0,39.0,993.0,-2.0,-3.0,0.0,156,135,128,151,134
2025-02-26 15:10:59.852,-361.0,64.0,914.0,-3.0,-3.0,-1.0,157,136,127,151,136
2025-02-26 15:10:59.857,-389.0,-4.0,975.0,0.0,-3.0,0.0,155,134,127,150,134
2025-02-26 15:10:59.861,-366.0,6.0,959.0,-4.0,-3.0,-1.0,152,131,126,148,131
2025-02-26 15:10:59.865,-344.0,41.0,967.0,-1.0,-3.0,-2.0,157,136,130,151,135
2025-02-26 15:10:59.870,-376.0,25.0,937.0,-3.0,-1.0,-1.0,155,135,126,151,135
2025-02-26 15:10:59.877,-363.0,-1.0,966.0,-3.0,-2.0,-1.0,154,135,128,150,135
2025-02-26 15:10:59.882,-334.0,34.0,975.0,-2.0,-1.0,-2.0,159,136,128,152,135
2025-02-26 15:10:59.886,-362.0,17.0,958.0,-3.0,-2.0,-2.0,155,135,128,151,134
2025-02-26 15:10:59.893,-362.0,29.0,966.0,-1.0,-1.0,-2.0,153,137,127,149,133
2025-02-26 15:10:59.895,-368.0,0.0,989.0,-1.0,-2.0,-3.0,155,136,129,151,134
2025-02-26 15:10:59.899,-359.0,8.0,976.0,0.0,-2.0,-3.0,158,135,129,151,136
2025-02-26 15:10:59.906,-373.0,15.0,961.0,-1.0,-2.0,-3.0,154,133,126,148,132
2025-02-26 15:10:59.910,-363.0,28.0,948.0,1.0,-3.0,-4.0,153,133,127,148,131
2025-02-26 15:10:59.918,-366.0,27.0,973.0,2.0,-4.0,-3.0,156,137,130,152,136
2025-02-26 15:10:59.923,-359.0,9.0,957.0,1.0,-4.0,-4.0,153,132,126,147,132
2025-02-26 15:10:59.925,-355.0,36.0,970.0,2.0,-4.0,-3.0,151,131,125,148,132
2025-02-26 15:10:59.931,-346.0,42.0,973.0,0.0,-5.0,-4.0,157,136,130,152,136
2025-02-26 15:10:59.938,-345.0,32.0,977.0,-1.0,-5.0,-4.0,153,133,126,149,132
2025-02-26 15:10:59.943,-347.0,25.0,977.0,-2.0,-5.0,-4.0,156,133,125,147,132
2025-02-26 15:10:59.947,-346.0,26.0,969.0,-3.0,-5.0,-4.0,155,135,128,151,134
2025-02-26 15:10:59.950,-342.0,24.0,975.0,-4.0,-5.0,-4.0,154,138,127,150,136
2025-02-26 15:10:59.959,-338.0,-16.0,973.0,-4.0,-5.0,-5.0,151,132,125,148,132
2025-02-26 15:10:59.961,-318.0,39.0,982.0,-5.0,-4.0,-4.0,154,132,125,148,132
2025-02-26 15:10:59.967,-330.0,49.0,987.0,-5.0,-4.0,-5.0,153,133,126,150,134
2025-02-26 15:10:59.972,-335.0,13.0,989.0,-6.0,-4.0,-5.0,153,132,125,148,133
2025-02-26 15:10:59.975,-334.0,-13.0,982.0,-5.0,-3.0,-4.0,154,132,126,148,132
2025-02-26 15:10:59.984,-333.0,5.0,981.0,-4.0,-2.0,-4.0,152,134,127,146,133
2025-02-26 15:10:59.988,-335.0,-3.0,971.0,-3.0,-1.0,-4.0,155,133,126,149,132
2025-02-26 15:10:59.992,-339.0,-5.0,966.0,-2.0,-1.0,-3.0,152,135,125,148,132
2025-02-26 15:10:59.996,-343.0,-15.0,963.0,0.0,0.0,-2.0,152,134,127,150,134
2025-02-26 15:11:00.002,-336.0,0.0,950.0,1.0,0.0,-2.0,155,136,126,149,133
2025-02-26 15:11:00.008,-337.0,2.0,958.0,2.0,0.0,-2.0,151,132,126,148,131
2025-02-26 15:11:00.012,-343.0,4.0,948.0,2.0,0.0,-2.0,156,135,129,151,134
2025-02-26 15:11:00.016,-349.0,5.0,941.0,3.0,0.0,-1.0,153,132,126,149,133
2025-02-26 15:11:00.021,-353.0,13.0,947.0,3.0,0.0,-1.0,151,133,123,146,131
2025-02-26 15:11:00.026,-354.0,16.0,941.0,1.0,-1.0,-1.0,154,134,128,149,133
2025-02-26 15:11:00.033,-359.0,6.0,945.0,0.0,-1.0,-1.0,153,134,127,149,133
2025-02-26 15:11:00.036,-353.0,16.0,942.0,-2.0,-1.0,-1.0,154,132,126,148,132
2025-02-26 15:11:00.040,-352.0,56.0,949.0,-2.0,-2.0,-1.0,154,135,126,149,134
2025-02-26 15:11:00.045,-366.0,39.0,921.0,-4.0,-4.0,-1.0,155,135,127,149,134
2025-02-26 15:11:00.051,-360.0,7.0,968.0,-5.0,-3.0,0.0,152,133,127,150,134
2025-02-26 15:11:00.057,-373.0,36.0,934.0,-3.0,-4.0,-1.0,158,139,131,153,138
2025-02-26 15:11:00.062,-367.0,12.0,933.0,-7.0,-4.0,-1.0,196,177,169,191,176
2025-02-26 15:11:00.065,-354.0,18.0,916.0,-5.0,-3.0,-1.0,191,171,165,187,171
2025-02-26 15:11:00.070,-320.0,-2.0,995.0,-11.0,-3.0,0.0,193,178,167,188,171
2025-02-26 15:11:00.078,-346.0,4.0,957.0,-11.0,0.0,0.0,197,178,173,193,178
2025-02-26 15:11:00.082,-342.0,9.0,991.0,-10.0,2.0,1.0,191,172,163,186,172
2025-02-26 15:11:00.086,-364.0,-6.0,944.0,-14.0,1.0,1.0,185,167,160,181,166
2025-02-26 15:11:00.090,-365.0,15.0,987.0,-12.0,3.0,3.0,196,175,171,192,175
2025-02-26 15:11:00.094,-379.0,8.0,962.0,-11.0,2.0,2.0,191,172,165,187,172
2025-02-26 15:11:00.101,-369.0,32.0,985.0,-13.0,3.0,3.0,182,162,155,178,161
2025-02-26 15:11:00.107,-371.0,31.0,976.0,-10.0,3.0,3.0,181,162,156,177,161
2025-02-26 15:11:00.110,-399.0,9.0,938.0,-9.0,-1.0,2.0,177,157,152,173,157
2025-02-26 15:11:00.115,-373.0,24.0,1009.0,-6.0,-1.0,1.0,174,153,145,170,153
2025-02-26 15:11:00.122,-407.0,-37.0,950.0,-5.0,-2.0,1.0,179,158,152,173,158
2025-02-26 15:11:00.125,-369.0,23.0,936.0,0.0,-5.0,0.0,178,157,150,171,157
2025-02-26 15:11:00.131,-396.0,33.0,971.0,-2.0,-5.0,-1.0,177,156,149,171,155
2025-02-26 15:11:00.136,-375.0,1.0,994.0,-3.0,-5.0,0.0,179,160,153,176,160
2025-02-26 15:11:00.136,-349.0,41.0,986.0,0.0,-4.0,0.0,174,155,148,171,155
2025-02-26 15:11:00.148,-390.0,47.0,987.0,-3.0,-3.0,-1.0,172,152,144,165,151
2025-02-26 15:11:00.152,-354.0,23.0,993.0,0.0,-2.0,-1.0,180,158,152,175,159
2025-02-26 15:11:00.155,-377.0,0.0,1011.0,-1.0,0.0,0.0,176,156,150,173,158
2025-02-26 15:11:00.161,-368.0,24.0,975.0,1.0,0.0,-1.0,177,157,151,171,155
2025-02-26 15:11:00.161,-364.0,49.0,969.0,2.0,1.0,-1.0,178,161,151,174,158
2025-02-26 15:11:00.172,-395.0,12.0,1008.0,1.0,2.0,-1.0,177,159,150,171,156
2025-02-26 15:11:00.174,-357.0,-9.0,977.0,1.0,2.0,-1.0,170,151,144,164,150
2025-02-26 15:11:00.180,-370.0,31.0,974.0,0.0,1.0,-1.0,174,155,148,171,154
2025-02-26 15:11:00.185,-376.0,12.0,975.0,2.0,1.0,-1.0,175,154,145,169,154
2025-02-26 15:11:00.189,-371.0,3.0,980.0,0.0,1.0,-2.0,170,152,144,166,149
2025-02-26 15:11:00.197,-362.0,30.0,930.0,0.0,1.0,-1.0,171,152,145,167,153
2025-02-26 15:11:00.200,-375.0,18.0,958.0,-1.0,0.0,-1.0,169,151,144,166,150
2025-02-26 15:11:00.205,-355.0,-10.0,966.0,-3.0,0.0,0.0,167,148,142,163,148
2025-02-26 15:11:00.209,-361.0,-1.0,943.0,-2.0,0.0,0.0,176,156,151,173,156
2025-02-26 15:11:00.214,-367.0,11.0,966.0,-3.0,0.0,0.0,174,155,148,170,155
2025-02-26 15:11:00.220,-371.0,4.0,944.0,-4.0,0.0,0.0,170,150,144,168,151
2025-02-26 15:11:00.226,-366.0,1.0,962.0,-3.0,1.0,0.0,175,154,148,170,154
2025-02-26 15:11:00.228,-348.0,-5.0,943.0,-4.0,1.0,0.0,174,156,147,170,154
2025-02-26 15:11:00.233,-356.0,-3.0,955.0,-3.0,1.0,0.0,172,154,145,168,152
2025-02-26 15:11:00.238,-364.0,-13.0,944.0,-3.0,1.0,0.0,172,153,147,169,153
2025-02-26 15:11:00.246,-342.0,-35.0,946.0,-1.0,2.0,0.0,168,148,139,163,147
2025-02-26 15:11:00.250,-354.0,-17.0,954.0,-1.0,2.0,1.0,172,154,146,168,153
2025-02-26 15:11:00.254,-367.0,-28.0,942.0,2.0,0.0,0.0,174,152,145,167,152
2025-02-26 15:11:00.259,-361.0,-30.0,975.0,1.0,1.0,1.0,166,147,138,163,146
2025-02-26 15:11:00.263,-360.0,-19.0,927.0,2.0,1.0,1.0,169,147,139,163,146
2025-02-26 15:11:00.270,-357.0,-3.0,927.0,1.0,0.0,1.0,177,156,149,174,157
2025-02-26 15:11:00.274,-364.0,-18.0,871.0,1.0,-1.0,1.0,176,154,147,171,154
2025-02-26 15:11:00.288,-324.0,-9.0,961.0,2.0,-1.0,1.0,178,160,154,175,160
2025-02-26 15:11:00.293,-333.0,-17.0,932.0,-1.0,-1.0,0.0,178,158,151,172,156
2025-02-26 15:11:00.296,-336.0,18.0,960.0,1.0,1.0,2.0,182,164,157,180,164
2025-02-26 15:11:00.298,-382.0,-69.0,909.0,-3.0,-2.0,1.0,188,170,161,184,168
2025-02-26 15:11:00.300,-342.0,5.0,922.0,1.0,-3.0,0.0,186,166,157,182,166
2025-02-26 15:11:00.303,-355.0,3.0,931.0,-1.0,-4.0,1.0,177,157,150,174,158
2025-02-26 15:11:00.307,-341.0,8.0,945.0,0.0,-3.0,2.0,183,164,156,177,164
2025-02-26 15:11:00.312,-340.0,12.0,943.0,1.0,-4.0,2.0,183,162,156,177,164
2025-02-26 15:11:00.316,-337.0,-7.0,941.0,0.0,-5.0,4.0,177,158,150,173,161
2025-02-26 15:11:00.324,-356.0,1.0,959.0,0.0,-3.0,3.0,179,162,153,175,161
2025-02-26 15:11:00.325,-337.0,20.0,932.0,-1.0,-5.0,3.0,178,159,152,175,159
2025-02-26 15:11:00.332,-351.0,22.0,967.0,-1.0,-4.0,2.0,175,155,150,172,155
2025-02-26 15:11:00.337,-349.0,0.0,930.0,-2.0,-3.0,2.0,182,162,155,176,161
2025-02-26 15:11:00.341,-332.0,16.0,952.0,-2.0,-3.0,1.0,179,158,151,174,156
2025-02-26 15:11:00.348,-348.0,11.0,956.0,-3.0,-2.0,1.0,176,155,147,170,154
2025-02-26 15:11:00.353,-354.0,16.0,959.0,-3.0,-1.0,1.0,181,162,154,176,161
2025-02-26 15:11:00.355,-358.0,-1.0,939.0,-2.0,-2.0,1.0,177,158,153,174,159
2025-02-26 15:11:00.361,-350.0,28.0,945.0,0.0,-1.0,1.0,173,153,146,169,152
2025-02-26 15:11:00.368,-360.0,10.0,945.0,0.0,-2.0,2.0,180,160,153,174,160
2025-02-26 15:11:00.373,-341.0,10.0,941.0,0.0,-2.0,2.0,173,153,147,167,152
2025-02-26 15:11:00.377,-365.0,17.0,954.0,-1.0,-2.0,1.0,159,137,132,155,139
2025-02-26 15:11:00.381,-356.0,20.0,937.0,-1.0,-4.0,2.0,167,145,139,163,149
2025-02-26 15:11:00.386,-348.0,15.0,942.0,-1.0,-4.0,1.0,166,146,139,161,146
2025-02-26 15:11:00.391,-346.0,43.0,976.0,-2.0,-4.0,1.0,155,143,137,158,144
2025-02-26 15:11:00.397,-365.0,29.0,954.0,-3.0,-4.0,1.0,168,148,142,163,148
2025-02-26 15:11:00.401,-366.0,26.0,941.0,-2.0,-5.0,0.0,165,145,134,162,145
2025-02-26 15:11:00.404,-359.0,37.0,960.0,-3.0,-5.0,0.0,163,143,137,158,141
2025-02-26 15:11:00.410,-350.0,25.0,958.0,-3.0,-5.0,0.0,162,148,140,163,147
2025-02-26 15:11:00.417,-355.0,20.0,962.0,-4.0,-5.0,0.0,167,146,142,164,147
2025-02-26 15:11:00.422,-350.0,9.0,966.0,-1.0,-5.0,-1.0,162,143,138,157,142
2025-02-26 15:11:00.427,-356.0,10.0,965.0,-1.0,-4.0,-1.0,164,145,138,160,145
2025-02-26 15:11:00.432,-351.0,10.0,975.0,2.0,-4.0,0.0,166,149,143,161,146
2025-02-26 15:11:00.432,-359.0,9.0,963.0,4.0,-4.0,0.0,163,143,137,160,144
2025-02-26 15:11:00.438,-358.0,6.0,974.0,5.0,-3.0,0.0,166,145,140,159,144
2025-02-26 15:11:00.444,-368.0,26.0,979.0,5.0,-3.0,1.0,166,146,139,163,148
2025-02-26 15:11:00.450,-371.0,34.0,982.0,5.0,-3.0,0.0,165,144,137,160,139
2025-02-26 15:11:00.455,-375.0,21.0,972.0,5.0,-5.0,1.0,166,144,137,160,145
2025-02-26 15:11:00.456,-345.0,66.0,1010.0,4.0,-4.0,0.0,163,144,137,158,147
2025-02-26 15:11:00.466,-380.0,33.0,1013.0,2.0,-4.0,0.0,157,141,129,155,137
2025-02-26 15:11:00.471,-362.0,69.0,973.0,0.0,-5.0,-1.0,162,141,135,158,140
2025-02-26 15:11:00.476,-351.0,60.0,1001.0,-1.0,-5.0,-2.0,161,140,135,155,138
2025-02-26 15:11:00.479,-362.0,38.0,991.0,-1.0,-5.0,-2.0,153,135,126,150,134
2025-02-26 15:11:00.487,-356.0,43.0,995.0,-3.0,-5.0,-2.0,152,133,124,148,131
2025-02-26 15:11:00.491,-352.0,47.0,987.0,-4.0,-6.0,-3.0,157,137,131,154,137
2025-02-26 15:11:00.495,-361.0,16.0,998.0,-3.0,-5.0,-3.0,158,137,129,152,136
2025-02-26 15:11:00.500,-354.0,20.0,996.0,-3.0,-5.0,-3.0,153,132,126,148,132
2025-02-26 15:11:00.504,-343.0,8.0,983.0,0.0,-5.0,-3.0,155,136,129,151,135
2025-02-26 15:11:00.512,-347.0,-17.0,989.0,1.0,-3.0,-3.0,156,137,130,152,137
2025-02-26 15:11:00.516,-337.0,-8.0,986.0,4.0,-3.0,-2.0,154,135,128,151,134
2025-02-26 15:11:00.520,-327.0,-7.0,990.0,6.0,-2.0,-2.0,156,136,129,152,135
2025-02-26 15:11:00.524,-336.0,-11.0,999.0,8.0,0.0,-2.0,157,135,128,153,136
2025-02-26 15:11:00.533,-344.0,-7.0,997.0,9.0,0.0,-1.0,155,134,127,149,134
2025-02-26 15:11:00.536,-341.0,-9.0,987.0,11.0,1.0,-1.0,161,141,134,156,140
2025-02-26 15:11:00.541,-341.0,8.0,979.0,12.0,1.0,-1.0,161,139,133,155,138
2025-02-26 15:11:00.545,-344.0,13.0,983.0,11.0,1.0,0.0,153,134,128,152,134
2025-02-26 15:11:00.550,-347.0,10.0,988.0,10.0,0.0,0.0,161,139,132,154,140
2025-02-26 15:11:00.553,-348.0,9.0,974.0,10.0,0.0,0.0,159,138,131,152,137
2025-02-26 15:11:00.562,-344.0,28.0,969.0,8.0,0.0,-1.0,154,134,127,148,133
2025-02-26 15:11:00.566,-344.0,28.0,970.0,6.0,0.0,-1.0,156,134,129,152,134
2025-02-26 15:11:00.570,-348.0,13.0,989.0,6.0,0.0,-1.0,159,138,130,153,136
2025-02-26 15:11:00.573,-339.0,8.0,980.0,6.0,-1.0,-1.0,156,135,126,149,134
2025-02-26 15:11:00.578,-349.0,1.0,957.0,7.0,0.0,-1.0,163,143,137,158,142
2025-02-26 15:11:00.586,-346.0,-8.0,1000.0,8.0,0.0,0.0,169,149,142,164,149
2025-02-26 15:11:00.590,-338.0,3.0,966.0,7.0,-1.0,0.0,182,164,158,179,163
2025-02-26 15:11:00.594,-339.0,3.0,977.0,9.0,-1.0,-1.0,181,160,153,176,160
2025-02-26 15:11:00.598,-354.0,20.0,958.0,7.0,-1.0,0.0,173,154,149,168,152
2025-02-26 15:11:00.603,-346.0,14.0,955.0,7.0,-2.0,-1.0,172,152,145,166,150
2025-02-26 15:11:00.608,-356.0,30.0,1005.0,5.0,-2.0,-1.0,179,157,151,173,158
2025-02-26 15:11:00.614,-352.0,33.0,979.0,3.0,-2.0,-1.0,168,148,141,164,148
2025-02-26 15:11:00.619,-345.0,41.0,977.0,1.0,-2.0,-1.0,161,141,133,156,141
2025-02-26 15:11:00.623,-363.0,19.0,941.0,1.0,-2.0,-2.0,163,144,137,159,144
2025-02-26 15:11:00.630,-366.0,25.0,933.0,-3.0,-2.0,-1.0,169,148,141,163,147
2025-02-26 15:11:00.635,-358.0,3.0,1020.0,-1.0,0.0,-1.0,162,142,134,158,142
2025-02-26 15:11:00.638,-364.0,6.0,933.0,-3.0,-2.0,-2.0,166,146,138,160,145
2025-02-26 15:11:00.643,-362.0,-35.0,960.0,-3.0,0.0,-2.0,162,143,137,159,144
2025-02-26 15:11:00.648,-324.0,-29.0,1001.0,-2.0,1.0,-1.0,166,144,137,160,145
2025-02-26 15:11:00.655,-343.0,-32.0,982.0,3.0,4.0,-1.0,165,146,139,162,145
2025-02-26 15:11:00.659,-333.0,-17.0,955.0,5.0,3.0,0.0,166,145,139,158,146
2025-02-26 15:11:00.663,-353.0,-14.0,1023.0,11.0,6.0,0.0,163,141,135,156,142
2025-02-26 15:11:00.668,-351.0,-24.0,1012.0,12.0,6.0,1.0,166,145,140,160,144
2025-02-26 15:11:00.672,-353.0,3.0,970.0,13.0,7.0,1.0,172,155,148,169,153
2025-02-26 15:11:00.679,-342.0,35.0,999.0,15.0,7.0,1.0,170,149,142,165,149
2025-02-26 15:11:00.683,-354.0,3.0,988.0,15.0,7.0,1.0,154,131,123,145,130
2025-02-26 15:11:00.689,-361.0,42.0,962.0,13.0,6.0,1.0,158,138,132,152,137
2025-02-26 15:11:00.692,-350.0,86.0,977.0,13.0,5.0,0.0,154,132,126,147,132
2025-02-26 15:11:00.697,-371.0,38.0,997.0,8.0,5.0,0.0,152,132,125,147,130
2025-02-26 15:11:00.704,-340.0,74.0,1000.0,5.0,5.0,-1.0,153,133,126,150,134
2025-02-26 15:11:00.709,-376.0,55.0,973.0,1.0,3.0,-1.0,157,135,130,150,134
2025-02-26 15:11:00.713,-360.0,81.0,963.0,-1.0,2.0,-1.0,155,134,125,148,132
2025-02-26 15:11:00.717,-368.0,70.0,966.0,-5.0,0.0,-2.0,155,134,126,150,134
2025-02-26 15:11:00.721,-366.0,56.0,974.0,-6.0,-1.0,-2.0,152,131,125,148,131
2025-02-26 15:11:00.729,-371.0,57.0,969.0,-10.0,-2.0,-2.0,157,134,128,150,133
2025-02-26 15:11:00.734,-360.0,44.0,971.0,-11.0,-3.0,-2.0,155,134,126,149,135
2025-02-26 15:11:00.737,-360.0,40.0,970.0,-13.0,-2.0,-1.0,153,133,125,150,133
2025-02-26 15:11:00.742,-349.0,22.0,966.0,-13.0,-2.0,-1.0,153,130,123,147,129
2025-02-26 15:11:00.749,-348.0,25.0,974.0,-13.0,-1.0,-1.0,156,136,129,151,136
2025-02-26 15:11:00.753,-340.0,23.0,959.0,-11.0,-1.0,-1.0,154,134,127,150,133
2025-02-26 15:11:00.758,-346.0,12.0,963.0,-11.0,0.0,0.0,151,131,125,147,131
2025-02-26 15:11:00.763,-343.0,6.0,967.0,-9.0,1.0,0.0,150,131,123,146,130
2025-02-26 15:11:00.770,-346.0,19.0,959.0,-6.0,1.0,0.0,160,138,131,153,135
2025-02-26 15:11:00.774,-346.0,11.0,952.0,-4.0,1.0,0.0,152,131,125,147,131
2025-02-26 15:11:00.779,-356.0,8.0,965.0,0.0,2.0,-1.0,153,131,121,145,129
2025-02-26 15:11:00.782,-379.0,5.0,898.0,-2.0,1.0,0.0,153,132,127,150,132
2025-02-26 15:11:00.786,-335.0,28.0,956.0,0.0,2.0,0.0,149,132,125,147,131
2025-02-26 15:11:00.791,-355.0,25.0,944.0,0.0,2.0,0.0,152,133,127,152,133
2025-02-26 15:11:00.799,-370.0,44.0,945.0,-1.0,2.0,0.0,153,133,126,149,133
2025-02-26 15:11:00.803,-359.0,61.0,942.0,2.0,1.0,1.0,151,131,124,146,130
2025-02-26 15:11:00.807,-381.0,31.0,955.0,0.0,0.0,1.0,152,135,126,151,132
2025-02-26 15:11:00.811,-377.0,46.0,929.0,2.0,-2.0,1.0,152,131,127,148,132
2025-02-26 15:11:00.816,-372.0,64.0,940.0,1.0,-3.0,0.0,152,130,124,148,131
2025-02-26 15:11:00.823,-380.0,41.0,958.0,0.0,-3.0,1.0,155,131,127,154,132
2025-02-26 15:11:00.827,-375.0,67.0,953.0,0.0,-4.0,0.0,153,133,126,149,132
2025-02-26 15:11:00.832,-375.0,58.0,947.0,-1.0,-5.0,0.0,152,135,126,148,132
2025-02-26 15:11:00.836,-368.0,63.0,963.0,-1.0,-5.0,0.0,153,133,128,150,133
2025-02-26 15:11:00.840,-368.0,46.0,964.0,-2.0,-4.0,0.0,152,132,125,147,132
2025-02-26 15:11:00.848,-361.0,62.0,965.0,-1.0,-5.0,0.0,151,130,124,147,131
2025-02-26 15:11:00.852,-349.0,48.0,964.0,-1.0,-5.0,0.0,154,134,127,150,134
2025-02-26 15:11:00.856,-358.0,42.0,982.0,0.0,-3.0,-1.0,152,132,125,147,132
2025-02-26 15:11:00.860,-349.0,29.0,978.0,1.0,-3.0,-1.0,152,129,123,142,130
2025-02-26 15:11:00.864,-349.0,15.0,965.0,4.0,-2.0,-1.0,154,133,126,149,132
2025-02-26 15:11:00.873,-353.0,17.0,975.0,5.0,-1.0,-1.0,153,132,126,150,134
2025-02-26 15:11:00.877,-350.0,15.0,969.0,8.0,0.0,0.0,153,131,125,147,132
2025-02-26 15:11:00.880,-349.0,20.0,975.0,11.0,1.0,0.0,154,139,126,149,128
2025-02-26 15:11:00.885,-346.0,22.0,975.0,11.0,2.0,1.0,146,123,116,137,122
2025-02-26 15:11:00.889,-346.0,21.0,979.0,12.0,2.0,1.0,142,119,113,136,119
2025-02-26 15:11:00.894,-357.0,33.0,970.0,12.0,2.0,1.0,135,115,110,130,115
2025-02-26 15:11:00.901,-360.0,30.0,962.0,12.0,1.0,1.0,139,119,109,133,118
2025-02-26 15:11:00.905,-349.0,48.0,973.0,10.0,1.0,1.0,142,121,114,138,123
2025-02-26 15:11:00.910,-360.0,50.0,974.0,7.0,1.0,1.0,144,123,114,138,121
2025-02-26 15:11:00.914,-369.0,62.0,983.0,5.0,1.0,1.0,141,121,114,135,119
2025-02-26 15:11:00.918,-357.0,66.0,964.0,3.0,0.0,1.0,139,120,110,132,117
2025-02-26 15:11:00.925,-349.0,71.0,974.0,0.0,0.0,1.0,141,120,113,136,119
2025-02-26 15:11:00.930,-363.0,58.0,971.0,-1.0,0.0,1.0,140,119,112,136,118
2025-02-26 15:11:00.934,-356.0,61.0,968.0,-3.0,0.0,1.0,141,119,111,135,119
2025-02-26 15:11:00.937,-359.0,42.0,958.0,-4.0,0.0,1.0,140,120,112,136,120
2025-02-26 15:11:00.942,-364.0,41.0,965.0,-4.0,0.0,2.0,141,120,110,134,118
2025-02-26 15:11:00.949,-362.0,38.0,953.0,-4.0,0.0,2.0,142,121,113,137,121
2025-02-26 15:11:00.954,-357.0,38.0,948.0,-2.0,-1.0,2.0,140,120,113,136,121
2025-02-26 15:11:00.959,-364.0,40.0,960.0,-1.0,0.0,3.0,140,117,111,134,118
2025-02-26 15:11:00.963,-364.0,12.0,946.0,1.0,0.0,2.0,141,119,113,137,120
2025-02-26 15:11:00.967,-357.0,26.0,943.0,1.0,0.0,2.0,142,122,115,137,121
2025-02-26 15:11:00.975,-368.0,40.0,947.0,3.0,1.0,2.0,139,119,113,135,118
2025-02-26 15:11:00.979,-370.0,37.0,942.0,3.0,0.0,2.0,140,121,112,134,119
2025-02-26 15:11:00.984,-360.0,56.0,945.0,4.0,1.0,2.0,141,118,111,136,119
2025-02-26 15:11:00.987,-383.0,40.0,939.0,5.0,1.0,1.0,141,119,113,136,119
2025-02-26 15:11:00.991,-374.0,31.0,938.0,5.0,0.0,1.0,141,121,113,137,120
2025-02-26 15:11:00.995,-369.0,59.0,962.0,5.0,0.0,1.0,142,121,113,134,118
2025-02-26 15:11:01.003,-384.0,61.0,951.0,4.0,0.0,1.0,140,122,114,139,121
2025-02-26 15:11:01.007,-375.0,73.0,949.0,3.0,-1.0,1.0,144,124,116,139,124
2025-02-26 15:11:01.009,-374.0,78.0,952.0,4.0,-2.0,1.0,141,122,115,138,123
2025-02-26 15:11:01.016,-383.0,66.0,958.0,1.0,-2.0,1.0,141,118,112,136,118
2025-02-26 15:11:01.020,-376.0,56.0,947.0,3.0,-2.0,0.0,142,120,113,137,120
2025-02-26 15:11:01.028,-386.0,58.0,967.0,-3.0,-5.0,-1.0,143,121,116,138,122
2025-02-26 15:11:01.032,-348.0,78.0,975.0,-2.0,-5.0,-1.0,141,119,112,135,121
2025-02-26 15:11:01.037,-376.0,65.0,990.0,-4.0,-4.0,-1.0,141,120,114,137,120
2025-02-26 15:11:01.039,-342.0,65.0,970.0,-3.0,-5.0,-2.0,140,119,113,137,119
2025-02-26 15:11:01.048,-355.0,44.0,987.0,-4.0,-4.0,-2.0,138,118,113,135,120
2025-02-26 15:11:01.052,-367.0,33.0,990.0,-4.0,-4.0,-1.0,143,121,116,139,122
2025-02-26 15:11:01.057,-339.0,36.0,983.0,-3.0,-3.0,-2.0,143,123,116,138,123
2025-02-26 15:11:01.061,-328.0,40.0,984.0,-2.0,-3.0,-2.0,144,124,115,138,121
2025-02-26 15:11:01.066,-344.0,20.0,993.0,0.0,-1.0,-1.0,148,125,116,140,124
2025-02-26 15:11:01.071,-331.0,32.0,988.0,1.0,0.0,-1.0,143,124,116,139,124
2025-02-26 15:11:01.077,-327.0,26.0,988.0,3.0,0.0,-2.0,142,121,114,138,120
2025-02-26 15:11:01.082,-337.0,23.0,984.0,4.0,1.0,-1.0,145,122,110,139,123
2025-02-26 15:11:01.086,-324.0,30.0,981.0,5.0,1.0,-1.0,140,121,114,136,119
2025-02-26 15:11:01.090,-337.0,44.0,975.0,4.0,1.0,-1.0,140,120,112,136,119
2025-02-26 15:11:01.098,-335.0,58.0,981.0,3.0,2.0,-1.0,142,123,114,138,122
2025-02-26 15:11:01.102,-339.0,54.0,982.0,2.0,2.0,-1.0,140,119,111,135,119
2025-02-26 15:11:01.106,-331.0,52.0,976.0,1.0,1.0,-1.0,141,120,114,136,119
2025-02-26 15:11:01.111,-330.0,62.0,967.0,-1.0,1.0,-1.0,135,122,115,141,120
2025-02-26 15:11:01.114,-335.0,60.0,963.0,-2.0,1.0,-1.0,141,120,113,136,119
2025-02-26 15:11:01.122,-336.0,51.0,958.0,-4.0,0.0,-1.0,140,120,114,135,120
2025-02-26 15:11:01.126,-322.0,48.0,959.0,-5.0,1.0,-1.0,142,120,113,138,120
2025-02-26 15:11:01.131,-318.0,41.0,946.0,-6.0,1.0,-1.0,141,119,110,136,120
2025-02-26 15:11:01.135,-322.0,43.0,940.0,-5.0,1.0,-1.0,138,121,114,136,120
2025-02-26 15:11:01.142,-322.0,38.0,939.0,-5.0,2.0,-1.0,140,122,114,137,120
2025-02-26 15:11:01.146,-320.0,36.0,926.0,-5.0,2.0,-1.0,140,120,109,135,120
2025-02-26 15:11:01.149,-320.0,35.0,922.0,-5.0,3.0,0.0,141,119,114,134,119
2025-02-26 15:11:01.155,-330.0,44.0,902.0,-4.0,2.0,0.0,141,119,114,137,120
2025-02-26 15:11:01.159,-326.0,63.0,895.0,-5.0,2.0,0.0,138,120,113,135,113
2025-02-26 15:11:01.167,-345.0,87.0,877.0,-5.0,3.0,-1.0,141,119,110,135,118
2025-02-26 15:11:01.171,-367.0,119.0,861.0,-6.0,2.0,-1.0,142,120,117,135,120
2025-02-26 15:11:01.176,-378.0,151.0,857.0,-8.0,2.0,-2.0,138,118,110,133,117
2025-02-26 15:11:01.180,-392.0,180.0,804.0,-15.0,3.0,-2.0,138,117,116,133,116
2025-02-26 15:11:01.188,-401.0,207.0,774.0,-20.0,3.0,-4.0,139,118,110,136,118
2025-02-26 15:11:01.191,-413.0,209.0,761.0,-19.0,3.0,-6.0,147,118,111,139,119
2025-02-26 15:11:01.197,-437.0,226.0,645.0,-25.0,-1.0,-8.0,139,116,111,130,117
2025-02-26 15:11:01.201,-445.0,212.0,609.0,-27.0,-4.0,-9.0,137,115,109,131,116
2025-02-26 15:11:01.208,-463.0,215.0,659.0,-27.0,-6.0,-11.0,140,118,110,134,118
2025-02-26 15:11:01.212,-473.0,193.0,556.0,-20.0,-14.0,-14.0,141,118,112,134,119
2025-02-26 15:11:01.217,-497.0,172.0,539.0,-19.0,-23.0,-17.0,140,117,111,135,119
2025-02-26 15:11:01.225,-486.0,179.0,515.0,-20.0,-29.0,-20.0,136,116,109,133,117
2025-02-26 15:11:01.229,-487.0,186.0,513.0,-16.0,-38.0,-22.0,139,119,112,134,118
2025-02-26 15:11:01.233,-529.0,168.0,467.0,-8.0,-51.0,-24.0,138,118,111,136,120
2025-02-26 15:11:01.237,-540.0,186.0,512.0,-4.0,-66.0,-28.0,139,117,110,134,118
2025-02-26 15:11:01.245,-558.0,162.0,533.0,-3.0,-81.0,-30.0,137,117,110,133,118
2025-02-26 15:11:01.249,-550.0,166.0,567.0,1.0,-89.0,-33.0,141,117,111,133,117
2025-02-26 15:11:01.253,-526.0,177.0,631.0,-3.0,-106.0,-34.0,137,116,110,133,116
2025-02-26 15:11:01.261,-523.0,178.0,717.0,-9.0,-123.0,-35.0,139,116,110,133,118
2025-02-26 15:11:01.264,-501.0,199.0,763.0,-16.0,-138.0,-36.0,137,115,111,134,118
2025-02-26 15:11:01.270,-456.0,166.0,870.0,-20.0,-156.0,-35.0,139,118,105,133,119
2025-02-26 15:11:01.277,-378.0,55.0,1100.0,-29.0,-171.0,-30.0,138,117,108,133,118
2025-02-26 15:11:01.283,-340.0,10.0,1390.0,-44.0,-174.0,-21.0,135,112,105,127,116
2025-02-26 15:11:01.286,-267.0,32.0,1556.0,-72.0,-172.0,-11.0,138,113,104,131,116
2025-02-26 15:11:01.294,-193.0,16.0,1747.0,-105.0,-167.0,-5.0,136,110,96,130,115
2025-02-26 15:11:01.298,-101.0,-30.0,1904.0,-148.0,-156.0,8.0,139,109,101,131,115
2025-02-26 15:11:01.303,-8.0,5.0,2079.0,-198.0,-137.0,18.0,139,109,98,118,113
2025-02-26 15:11:01.311,108.0,11.0,2179.0,-224.0,-118.0,26.0,141,107,97,132,113
2025-02-26 15:11:01.313,196.0,-140.0,2372.0,-265.0,-103.0,34.0,138,103,94,122,109
2025-02-26 15:11:01.319,265.0,-281.0,2696.0,-317.0,-54.0,37.0,138,97,89,127,107
2025-02-26 15:11:01.327,410.0,-315.0,2703.0,-347.0,-9.0,44.0,139,94,87,116,105
2025-02-26 15:11:01.331,506.0,-446.0,2742.0,-380.0,44.0,49.0,140,88,84,126,108
2025-02-26 15:11:01.335,577.0,-412.0,2621.0,-396.0,89.0,49.0,140,86,80,124,107
2025-02-26 15:11:01.340,577.0,-533.0,2600.0,-425.0,114.0,47.0,138,83,76,119,109
2025-02-26 15:11:01.347,625.0,-551.0,2583.0,-447.0,158.0,45.0,139,76,73,118,104
2025-02-26 15:11:01.349,573.0,-646.0,2493.0,-476.0,200.0,51.0,140,73,72,117,103
2025-02-26 15:11:01.355,522.0,-718.0,2417.0,-485.0,243.0,62.0,137,70,69,111,101
2025-02-26 15:11:01.363,433.0,-799.0,2352.0,-505.0,286.0,76.0,140,65,67,107,95
2025-02-26 15:11:01.367,387.0,-767.0,2262.0,-519.0,307.0,81.0,140,66,65,103,92
2025-02-26 15:11:01.372,336.0,-825.0,2037.0,-523.0,340.0,87.0,139,63,67,101,90
2025-02-26 15:11:01.377,434.0,-946.0,1922.0,-519.0,370.0,98.0,142,62,65,96,82
2025-02-26 15:11:01.384,386.0,-938.0,1699.0,-514.0,391.0,103.0,140,60,65,94,80
2025-02-26 15:11:01.389,276.0,-991.0,1540.0,-496.0,401.0,113.0,141,61,65,92,78
2025-02-26 15:11:01.393,254.0,-984.0,1291.0,-473.0,415.0,120.0,142,60,65,92,76
2025-02-26 15:11:01.397,340.0,-977.0,1203.0,-447.0,421.0,133.0,141,60,65,91,75
2025-02-26 15:11:01.404,379.0,-928.0,1041.0,-434.0,422.0,141.0,140,59,63,90,73
2025-02-26 15:11:01.409,321.0,-769.0,823.0,-412.0,424.0,138.0,140,60,66,90,73
2025-02-26 15:11:01.414,194.0,-785.0,603.0,-399.0,416.0,140.0,139,58,61,88,71
2025-02-26 15:11:01.417,251.0,-659.0,336.0,-410.0,396.0,138.0,140,58,62,86,72
2025-02-26 15:11:01.425,-35.0,-464.0,38.0,-410.0,370.0,149.0,136,57,61,86,69
2025-02-26 15:11:01.429,-173.0,-355.0,-205.0,-393.0,355.0,156.0,137,60,61,86,67
2025-02-26 15:11:01.434,-216.0,-375.0,-238.0,-376.0,328.0,156.0,136,58,59,83,65
2025-02-26 15:11:01.441,-370.0,-426.0,-228.0,-365.0,306.0,156.0,133,58,59,84,67
2025-02-26 15:11:01.446,-405.0,-574.0,-239.0,-359.0,278.0,156.0,135,58,59,82,64
2025-02-26 15:11:01.450,-375.0,-544.0,-188.0,-344.0,256.0,159.0,132,53,58,81,66
2025-02-26 15:11:01.458,-337.0,-442.0,-275.0,-328.0,248.0,164.0,134,56,57,80,63
2025-02-26 15:11:01.463,-402.0,-397.0,-281.0,-306.0,236.0,167.0,132,60,59,81,64
2025-02-26 15:11:01.464,-407.0,-391.0,-221.0,-278.0,219.0,173.0,133,59,59,81,64
2025-02-26 15:11:01.471,-453.0,-393.0,-118.0,-264.0,201.0,175.0,130,59,58,80,64
2025-02-26 15:11:01.479,-295.0,-204.0,-38.0,-248.0,194.0,180.0,128,57,55,77,61
2025-02-26 15:11:01.483,-262.0,5.0,-69.0,-233.0,181.0,183.0,125,57,55,78,61
2025-02-26 15:11:01.487,-257.0,94.0,-107.0,-217.0,173.0,182.0,126,59,56,79,64
2025-02-26 15:11:01.490,-314.0,275.0,-107.0,-210.0,170.0,182.0,125,59,58,79,63
2025-02-26 15:11:01.499,-391.0,463.0,-85.0,-204.0,165.0,182.0,124,57,58,78,59
2025-02-26 15:11:01.504,-358.0,575.0,-97.0,-195.0,157.0,181.0,122,57,55,78,61
2025-02-26 15:11:01.506,-460.0,761.0,-135.0,-178.0,143.0,177.0,127,61,60,83,65
2025-02-26 15:11:01.515,-445.0,1042.0,-123.0,-170.0,130.0,172.0,126,62,60,82,65
2025-02-26 15:11:01.518,-469.0,1282.0,-133.0,-147.0,124.0,166.0,124,60,58,79,62
2025-02-26 15:11:01.524,-462.0,1514.0,-189.0,-121.0,117.0,155.0,125,61,59,80,63
2025-02-26 15:11:01.528,-494.0,1646.0,-267.0,-92.0,111.0,148.0,126,63,62,83,66
2025-02-26 15:11:01.536,-616.0,1890.0,-362.0,-52.0,99.0,124.0,124,65,60,83,65
2025-02-26 15:11:01.540,-716.0,2164.0,-500.0,-30.0,82.0,92.0,123,61,61,82,63
2025-02-26 15:11:01.544,-721.0,2442.0,-686.0,18.0,74.0,55.0,119,59,58,80,62
2025-02-26 15:11:01.549,-695.0,2545.0,-881.0,72.0,62.0,35.0,122,62,62,82,65
2025-02-26 15:11:01.556,-684.0,2818.0,-980.0,100.0,52.0,-14.0,120,61,60,81,63
2025-02-26 15:11:01.560,-705.0,3147.0,-1181.0,164.0,46.0,-81.0,118,61,59,79,61
2025-02-26 15:11:01.565,-738.0,3247.0,-1340.0,221.0,34.0,-118.0,119,59,57,80,61
2025-02-26 15:11:01.569,-709.0,3537.0,-1412.0,261.0,16.0,-200.0,120,64,65,80,64
2025-02-26 15:11:01.577,-737.0,3869.0,-1576.0,267.0,-11.0,-290.0,120,62,60,81,65
2025-02-26 15:11:01.581,-793.0,4051.0,-1710.0,260.0,-53.0,-389.0,119,61,61,81,64
2025-02-26 15:11:01.584,-820.0,4063.0,-1836.0,234.0,-81.0,-496.0,116,62,58,82,62
2025-02-26 15:11:01.593,-851.0,3931.0,-1961.0,201.0,-148.0,-610.0,118,60,59,80,64
2025-02-26 15:11:01.598,-871.0,3818.0,-2080.0,166.0,-236.0,-667.0,118,61,58,80,63
2025-02-26 15:11:01.602,-763.0,3588.0,-2114.0,129.0,-339.0,-780.0,120,61,58,80,65
2025-02-26 15:11:01.609,-496.0,3316.0,-2148.0,86.0,-453.0,-895.0,121,63,60,83,66
2025-02-26 15:11:01.614,-107.0,3512.0,-2241.0,59.0,-590.0,-1015.0,121,60,58,81,65
2025-02-26 15:11:01.619,798.0,3725.0,-2363.0,-10.0,-739.0,-1129.0,120,59,57,79,63
2025-02-26 15:11:01.626,1398.0,3830.0,-2560.0,-105.0,-817.0,-1219.0,120,59,57,79,64
2025-02-26 15:11:01.631,3016.0,3539.0,-2683.0,-214.0,-975.0,-1252.0,122,62,52,80,65
2025-02-26 15:11:01.638,5696.0,2827.0,-1594.0,-292.0,-1041.0,-1237.0,122,59,58,81,65
2025-02-26 15:11:01.642,8378.0,1010.0,-37.0,-374.0,-975.0,-1138.0,122,59,58,82,67
2025-02-26 15:11:01.651,9862.0,-2185.0,1681.0,-415.0,-726.0,-951.0,123,62,61,83,69
2025-02-26 15:11:01.656,10272.0,-5831.0,2236.0,-396.0,-363.0,-698.0,125,62,62,86,70
2025-02-26 15:11:01.659,9846.0,-9044.0,2274.0,-275.0,9.0,-398.0,123,63,63,86,70
2025-02-26 15:11:01.663,8518.0,-10436.0,1472.0,-182.0,296.0,-166.0,122,62,60,83,70
2025-02-26 15:11:01.671,6454.0,-9694.0,136.0,80.0,385.0,-47.0,122,62,57,84,68
2025-02-26 15:11:01.675,5206.0,-9090.0,-1214.0,351.0,468.0,-2.0,174,119,120,148,134
2025-02-26 15:11:01.680,3419.0,-7491.0,-1969.0,494.0,477.0,56.0,139,78,73,98,80
2025-02-26 15:11:01.688,2320.0,-5758.0,-2002.0,579.0,402.0,103.0,198,139,139,159,142
2025-02-26 15:11:01.692,1346.0,-3576.0,-1447.0,471.0,234.0,231.0,185,125,124,146,126
2025-02-26 15:11:01.696,1098.0,-2818.0,-955.0,297.0,156.0,289.0,244,191,191,212,198
2025-02-26 15:11:01.704,474.0,-1394.0,-642.0,220.0,62.0,317.0,199,138,137,160,141
2025-02-26 15:11:01.707,346.0,-892.0,-47.0,32.0,-7.0,295.0,195,134,130,154,137
2025-02-26 15:11:01.712,563.0,-1127.0,286.0,-111.0,3.0,274.0,166,104,103,126,110
2025-02-26 15:11:01.718,747.0,-1260.0,467.0,-163.0,-42.0,258.0,161,98,96,122,102
2025-02-26 15:11:01.725,811.0,-1609.0,416.0,-189.0,-10.0,230.0,172,110,109,134,118
2025-02-26 15:11:01.729,896.0,-2097.0,486.0,-160.0,21.0,215.0,170,110,108,132,116
2025-02-26 15:11:01.737,598.0,-2625.0,439.0,-135.0,36.0,219.0,175,113,111,136,121
2025-02-26 15:11:01.741,485.0,-2575.0,268.0,-104.0,91.0,236.0,175,118,116,141,125
2025-02-26 15:11:01.745,343.0,-2173.0,57.0,-56.0,84.0,251.0,171,113,111,137,121
2025-02-26 15:11:01.753,140.0,-2237.0,124.0,-7.0,68.0,271.0,172,112,112,134,121
2025-02-26 15:11:01.757,125.0,-1987.0,-81.0,-1.0,84.0,290.0,176,117,116,139,123
2025-02-26 15:11:01.762,116.0,-1779.0,-113.0,28.0,61.0,302.0,174,115,112,138,123
2025-02-26 15:11:01.767,27.0,-1488.0,-81.0,37.0,37.0,314.0,178,120,119,141,126
2025-02-26 15:11:01.773,98.0,-1327.0,-45.0,44.0,39.0,329.0,171,112,111,137,121
2025-02-26 15:11:01.777,127.0,-898.0,-3.0,33.0,46.0,338.0,167,111,107,132,117
2025-02-26 15:11:01.779,101.0,-911.0,-6.0,27.0,35.0,340.0,172,113,112,137,122
2025-02-26 15:11:01.790,139.0,-761.0,95.0,10.0,53.0,347.0,174,117,117,140,125
2025-02-26 15:11:01.793,157.0,-540.0,169.0,-9.0,43.0,352.0,169,112,110,131,120
2025-02-26 15:11:01.798,180.0,-319.0,165.0,-40.0,53.0,353.0,169,110,107,131,117
2025-02-26 15:11:01.803,137.0,-207.0,232.0,-75.0,56.0,355.0,172,114,113,138,122
2025-02-26 15:11:01.810,-141.0,-70.0,196.0,-79.0,49.0,335.0,177,118,117,140,123
2025-02-26 15:11:01.814,-89.0,-104.0,208.0,-91.0,38.0,329.0,173,115,112,136,122
2025-02-26 15:11:01.819,-200.0,87.0,140.0,-110.0,36.0,314.0,167,105,102,131,117
2025-02-26 15:11:01.827,-409.0,-47.0,61.0,-98.0,7.0,308.0,167,109,107,131,115
2025-02-26 15:11:01.831,-456.0,-29.0,60.0,-112.0,-4.0,300.0,170,117,114,142,124
2025-02-26 15:11:01.835,-419.0,-47.0,76.0,-114.0,-6.0,291.0,172,114,114,138,122
2025-02-26 15:11:01.840,-350.0,-72.0,69.0,-111.0,2.0,280.0,167,109,109,132,117
2025-02-26 15:11:01.847,-329.0,-84.0,214.0,-116.0,6.0,278.0,167,111,108,131,116
2025-02-26 15:11:01.852,-330.0,6.0,107.0,-95.0,13.0,274.0,173,115,113,137,123
2025-02-26 15:11:01.856,-262.0,-124.0,180.0,-57.0,1.0,267.0,173,113,113,137,123
2025-02-26 15:11:01.864,-286.0,23.0,251.0,-35.0,-5.0,267.0,176,114,111,136,121
2025-02-26 15:11:01.868,-223.0,-30.0,339.0,6.0,-6.0,273.0,170,113,112,139,123
2025-02-26 15:11:01.870,-196.0,-25.0,392.0,35.0,6.0,276.0,172,114,112,137,123
2025-02-26 15:11:01.876,-48.0,26.0,416.0,60.0,27.0,289.0,173,113,113,138,123
2025-02-26 15:11:01.884,8.0,161.0,428.0,63.0,56.0,307.0,170,111,110,133,119
2025-02-26 15:11:01.888,-9.0,219.0,358.0,84.0,69.0,312.0,173,115,114,137,123
2025-02-26 15:11:01.892,-109.0,360.0,305.0,118.0,78.0,319.0,174,114,114,139,124
2025-02-26 15:11:01.896,-146.0,591.0,167.0,150.0,85.0,313.0,172,114,113,137,122
2025-02-26 15:11:01.904,-347.0,905.0,136.0,160.0,80.0,303.0,168,108,108,134,119
2025-02-26 15:11:01.909,-481.0,1058.0,-35.0,201.0,70.0,275.0,169,111,112,137,122
2025-02-26 15:11:01.914,-684.0,1260.0,-96.0,229.0,59.0,256.0,167,109,109,134,117
2025-02-26 15:11:01.919,-796.0,1561.0,-177.0,262.0,52.0,210.0,173,114,113,137,124
2025-02-26 15:11:01.926,-946.0,1901.0,-192.0,293.0,44.0,158.0,172,113,112,138,124
2025-02-26 15:11:01.930,-886.0,2174.0,-251.0,307.0,47.0,100.0,172,113,110,138,123
2025-02-26 15:11:01.935,-942.0,2436.0,-296.0,330.0,47.0,35.0,169,110,111,137,123
2025-02-26 15:11:01.942,-901.0,2651.0,-361.0,349.0,47.0,-33.0,168,108,108,134,120
2025-02-26 15:11:01.946,-893.0,2853.0,-413.0,355.0,51.0,-69.0,168,109,109,135,120
2025-02-26 15:11:01.954,-888.0,2958.0,-480.0,348.0,48.0,-145.0,173,114,117,139,127
2025-02-26 15:11:01.955,-911.0,3163.0,-519.0,320.0,37.0,-230.0,173,113,113,139,125
2025-02-26 15:11:01.962,-969.0,3241.0,-602.0,274.0,17.0,-324.0,171,112,113,138,125
2025-02-26 15:11:01.970,-1034.0,3247.0,-659.0,216.0,-26.0,-423.0,174,118,119,143,127
2025-02-26 15:11:01.975,-1029.0,3195.0,-682.0,180.0,-82.0,-527.0,172,114,114,139,124
2025-02-26 15:11:01.982,-1027.0,2958.0,-724.0,104.0,-156.0,-638.0,171,112,111,137,121
2025-02-26 15:11:01.985,-893.0,2889.0,-822.0,23.0,-243.0,-757.0,171,114,112,138,123
2025-02-26 15:11:01.991,-553.0,2673.0,-902.0,-62.0,-353.0,-888.0,169,110,111,134,120
2025-02-26 15:11:01.997,-375.0,2828.0,-942.0,-140.0,-405.0,-998.0,167,109,107,133,118
2025-02-26 15:11:02.003,704.0,2184.0,-1135.0,-221.0,-514.0,-1091.0,169,110,108,134,119
2025-02-26 15:11:02.009,2024.0,1391.0,-1218.0,-290.0,-616.0,-1148.0,171,110,110,136,122
2025-02-26 15:11:02.016,3485.0,234.0,-1183.0,-336.0,-698.0,-1167.0,168,110,107,134,121
2025-02-26 15:11:02.021,5951.0,-1198.0,-814.0,-354.0,-748.0,-1104.0,169,108,107,133,121
2025-02-26 15:11:02.027,7046.0,-3232.0,463.0,-306.0,-690.0,-961.0,175,113,111,138,129
2025-02-26 15:11:02.033,6838.0,-5165.0,1386.0,-253.0,-525.0,-738.0,170,109,109,134,123
2025-02-26 15:11:02.040,6786.0,-7125.0,1655.0,-240.0,-295.0,-451.0,171,109,107,133,122
2025-02-26 15:11:02.045,6230.0,-8372.0,1213.0,-212.0,-76.0,-155.0,168,108,108,134,121
2025-02-26 15:11:02.052,5727.0,-8472.0,389.0,-175.0,92.0,62.0,171,109,108,133,123
2025-02-26 15:11:02.056,4859.0,-7147.0,-99.0,-124.0,195.0,192.0,171,107,107,133,120
2025-02-26 15:11:02.064,3605.0,-6292.0,-529.0,-28.0,229.0,226.0,192,132,130,155,142
2025-02-26 15:11:02.068,2352.0,-4890.0,-814.0,67.0,226.0,262.0,191,128,128,152,135
2025-02-26 15:11:02.073,1507.0,-3817.0,-1061.0,199.0,150.0,261.0,174,111,111,134,116
2025-02-26 15:11:02.080,1166.0,-2874.0,-903.0,229.0,65.0,277.0,171,103,103,128,106
2025-02-26 15:11:02.085,771.0,-1996.0,-776.0,198.0,30.0,277.0,185,119,122,144,123
2025-02-26 15:11:02.089,856.0,-1515.0,-636.0,171.0,-4.0,269.0,178,110,113,138,118
2025-02-26 15:11:02.095,649.0,-1048.0,-433.0,95.0,-7.0,259.0,166,99,99,126,107
2025-02-26 15:11:02.102,571.0,-1057.0,-390.0,-4.0,-9.0,256.0,164,96,92,124,107
2025-02-26 15:11:02.106,452.0,-1217.0,-273.0,-63.0,-27.0,253.0,172,103,105,131,116
2025-02-26 15:11:02.112,341.0,-1214.0,-273.0,-92.0,-41.0,247.0,192,126,126,151,139
2025-02-26 15:11:02.119,354.0,-1466.0,-174.0,-108.0,-32.0,249.0,198,130,131,158,144
2025-02-26 15:11:02.123,419.0,-1739.0,-22.0,-91.0,-32.0,252.0,196,129,127,154,141
2025-02-26 15:11:02.130,251.0,-1888.0,-93.0,-74.0,-33.0,264.0,195,127,127,155,142
2025-02-26 15:11:02.135,229.0,-1898.0,68.0,-33.0,-17.0,270.0,181,113,113,142,129
2025-02-26 15:11:02.135,575.0,-1800.0,123.0,10.0,-12.0,289.0,178,111,111,137,123
2025-02-26 15:11:02.146,260.0,-1777.0,187.0,40.0,1.0,305.0,181,115,114,142,128
2025-02-26 15:11:02.150,187.0,-1676.0,163.0,72.0,6.0,325.0,183,119,119,145,133
2025-02-26 15:11:02.154,239.0,-1408.0,257.0,76.0,6.0,355.0,183,116,115,143,131
2025-02-26 15:11:02.159,191.0,-1344.0,253.0,73.0,15.0,378.0,179,114,114,142,132
2025-02-26 15:11:02.167,280.0,-1219.0,245.0,53.0,30.0,391.0,180,116,113,140,127
2025-02-26 15:11:02.171,180.0,-968.0,185.0,30.0,35.0,413.0,186,118,117,146,135
2025-02-26 15:11:02.174,148.0,-688.0,237.0,-14.0,42.0,423.0,188,120,118,145,135
2025-02-26 15:11:02.183,64.0,-297.0,217.0,-34.0,44.0,431.0,186,117,118,146,133
2025-02-26 15:11:02.185,63.0,30.0,236.0,-88.0,44.0,423.0,182,112,114,138,127
2025-02-26 15:11:02.192,-78.0,-27.0,141.0,-118.0,24.0,417.0,188,119,118,145,133
2025-02-26 15:11:02.195,-217.0,-71.0,116.0,-102.0,-14.0,394.0,183,114,113,140,131
2025-02-26 15:11:02.204,-197.0,25.0,258.0,-101.0,-40.0,376.0,182,110,112,139,125
2025-02-26 15:11:02.208,-354.0,-13.0,253.0,-106.0,-59.0,355.0,185,115,113,138,127
2025-02-26 15:11:02.212,-419.0,79.0,425.0,-108.0,-64.0,315.0,182,108,108,135,122
2025-02-26 15:11:02.220,-262.0,61.0,427.0,-90.0,-51.0,298.0,181,106,104,134,121
2025-02-26 15:11:02.224,-22.0,87.0,458.0,-112.0,-8.0,277.0,185,110,112,140,126
2025-02-26 15:11:02.228,-48.0,101.0,449.0,-107.0,29.0,261.0,190,114,115,141,129
2025-02-26 15:11:02.236,-3.0,-26.0,455.0,-97.0,52.0,239.0,188,111,112,139,126
2025-02-26 15:11:02.241,-125.0,-136.0,412.0,-56.0,55.0,225.0,176,104,105,130,119
2025-02-26 15:11:02.245,-227.0,-131.0,389.0,-9.0,55.0,222.0,181,100,102,128,114
2025-02-26 15:11:02.249,-183.0,-87.0,423.0,23.0,65.0,216.0,186,107,106,134,121
2025-02-26 15:11:02.257,-242.0,-94.0,379.0,39.0,72.0,216.0,184,104,103,127,116
2025-02-26 15:11:02.261,-360.0,-1.0,381.0,59.0,78.0,216.0,177,94,95,122,107
2025-02-26 15:11:02.265,-343.0,123.0,305.0,73.0,86.0,214.0,177,94,94,120,106
2025-02-26 15:11:02.270,-514.0,506.0,311.0,89.0,89.0,200.0,188,102,100,131,112
2025-02-26 15:11:02.278,-764.0,800.0,294.0,105.0,78.0,168.0,180,97,96,121,107
2025-02-26 15:11:02.281,-818.0,1155.0,220.0,140.0,70.0,127.0,176,92,91,116,103
2025-02-26 15:11:02.286,-873.0,1289.0,203.0,176.0,61.0,106.0,177,91,91,114,101
2025-02-26 15:11:02.290,-860.0,1527.0,227.0,194.0,71.0,68.0,184,97,94,118,106
2025-02-26 15:11:02.298,-949.0,1730.0,183.0,202.0,88.0,32.0,178,93,93,117,100
2025-02-26 15:11:02.302,-982.0,1814.0,166.0,227.0,93.0,-6.0,173,88,87,111,94
2025-02-26 15:11:02.307,-1141.0,1976.0,198.0,246.0,106.0,-28.0,179,96,92,115,99
2025-02-26 15:11:02.312,-1138.0,2286.0,79.0,273.0,109.0,-83.0,177,89,87,111,95
2025-02-26 15:11:02.319,-1219.0,2590.0,-116.0,283.0,102.0,-150.0,174,88,85,109,93
2025-02-26 15:11:02.323,-1434.0,3075.0,-380.0,288.0,72.0,-224.0,174,84,84,107,90
2025-02-26 15:11:02.331,-1540.0,3435.0,-658.0,259.0,48.0,-300.0,174,85,85,109,91
2025-02-26 15:11:02.335,-1605.0,3560.0,-924.0,203.0,-3.0,-339.0,172,83,83,108,90
2025-02-26 15:11:02.339,-1630.0,3576.0,-1109.0,146.0,-76.0,-425.0,175,83,83,107,89
2025-02-26 15:11:02.347,-1466.0,3523.0,-1173.0,83.0,-155.0,-516.0,175,82,81,108,89
2025-02-26 15:11:02.351,-1189.0,3324.0,-1287.0,16.0,-236.0,-608.0,175,83,81,106,90
2025-02-26 15:11:02.356,-868.0,3035.0,-1459.0,-18.0,-326.0,-702.0,175,83,79,107,88
2025-02-26 15:11:02.364,-358.0,2703.0,-1670.0,-90.0,-431.0,-773.0,173,80,77,105,88
2025-02-26 15:11:02.368,-63.0,2267.0,-1925.0,-174.0,-492.0,-799.0,178,84,80,109,93
2025-02-26 15:11:02.372,737.0,1908.0,-2005.0,-269.0,-614.0,-803.0,173,80,77,104,88
2025-02-26 15:11:02.380,1639.0,1662.0,-1965.0,-383.0,-724.0,-797.0,173,79,76,102,87
2025-02-26 15:11:02.384,2861.0,852.0,-1794.0,-503.0,-793.0,-785.0,177,83,79,106,91
2025-02-26 15:11:02.389,4257.0,-349.0,-1240.0,-592.0,-808.0,-744.0,185,87,83,111,94
2025-02-26 15:11:02.397,5418.0,-1858.0,-807.0,-649.0,-715.0,-671.0,183,89,83,109,97
2025-02-26 15:11:02.401,6288.0,-3669.0,431.0,-660.0,-526.0,-564.0,179,90,84,114,96
2025-02-26 15:11:02.409,6392.0,-5937.0,1184.0,-620.0,-254.0,-426.0,181,88,84,111,97
2025-02-26 15:11:02.412,6417.0,-7765.0,1382.0,-460.0,44.0,-301.0,180,87,84,110,97
2025-02-26 15:11:02.417,5660.0,-8281.0,774.0,-213.0,177.0,-207.0,182,90,84,112,98
2025-02-26 15:11:02.425,5020.0,-8159.0,-774.0,59.0,386.0,-131.0,182,87,83,110,98
2025-02-26 15:11:02.429,3306.0,-7763.0,-2139.0,419.0,504.0,-94.0,183,88,85,112,98
2025-02-26 15:11:02.433,1848.0,-6214.0,-3321.0,563.0,195.0,-41.0,205,115,112,137,124
2025-02-26 15:11:02.440,1362.0,-4718.0,-2653.0,446.0,408.0,29.0,207,115,108,135,121
2025-02-26 15:11:02.446,699.0,-2821.0,-2751.0,338.0,205.0,86.0,200,105,106,127,114
2025-02-26 15:11:02.450,467.0,-1222.0,-2566.0,220.0,124.0,109.0,208,114,113,137,123
2025-02-26 15:11:02.457,354.0,-1018.0,-1583.0,122.0,-24.0,126.0,200,107,104,129,118
2025-02-26 15:11:02.462,96.0,-375.0,-1702.0,-60.0,-59.0,133.0,202,110,105,132,121
2025-02-26 15:11:02.470,868.0,-937.0,-1111.0,-142.0,-113.0,109.0,205,112,107,134,123
2025-02-26 15:11:02.475,426.0,-2178.0,-1078.0,-144.0,-154.0,113.0,195,103,100,128,115
2025-02-26 15:11:02.479,607.0,-2258.0,-438.0,-119.0,-158.0,118.0,194,101,99,125,113
2025-02-26 15:11:02.486,783.0,-2621.0,158.0,-87.0,-87.0,122.0,197,103,99,127,113
2025-02-26 15:11:02.491,863.0,-2558.0,318.0,-13.0,-79.0,136.0,203,110,105,132,120
2025-02-26 15:11:02.495,765.0,-2433.0,173.0,68.0,-22.0,145.0,200,107,105,130,119
2025-02-26 15:11:02.503,638.0,-2286.0,447.0,141.0,-17.0,162.0,199,106,103,128,117
2025-02-26 15:11:02.507,637.0,-1843.0,649.0,166.0,26.0,180.0,199,108,104,131,117
2025-02-26 15:11:02.511,520.0,-1596.0,636.0,188.0,47.0,193.0,195,103,100,125,113
2025-02-26 15:11:02.519,420.0,-1371.0,634.0,192.0,91.0,203.0,193,99,96,123,112
2025-02-26 15:11:02.523,433.0,-1217.0,540.0,175.0,137.0,202.0,197,104,102,124,114
2025-02-26 15:11:02.528,296.0,-831.0,594.0,94.0,187.0,213.0,193,101,97,125,112
2025-02-26 15:11:02.532,23.0,-675.0,207.0,84.0,193.0,213.0,189,95,92,120,107
2025-02-26 15:11:02.539,-72.0,-532.0,13.0,24.0,184.0,219.0,185,91,88,115,103
2025-02-26 15:11:02.542,-272.0,-490.0,-181.0,13.0,152.0,224.0,192,96,94,120,107
2025-02-26 15:11:02.548,-368.0,-337.0,-170.0,9.0,65.0,221.0,190,97,93,120,109
2025-02-26 15:11:02.554,-358.0,-182.0,-183.0,11.0,4.0,209.0,191,96,92,120,106
2025-02-26 15:11:02.560,-367.0,-55.0,12.0,9.0,-17.0,192.0,186,92,86,116,102
2025-02-26 15:11:02.564,-205.0,-142.0,111.0,-15.0,-21.0,185.0,189,97,92,121,107
2025-02-26 15:11:02.569,-124.0,-287.0,283.0,-30.0,-10.0,170.0,189,98,91,122,108
2025-02-26 15:11:02.576,1.0,-382.0,444.0,-48.0,27.0,167.0,188,96,91,119,107
2025-02-26 15:11:02.580,44.0,-425.0,602.0,-94.0,50.0,175.0,186,91,85,116,101
2025-02-26 15:11:02.584,24.0,-525.0,526.0,-100.0,88.0,183.0,189,97,91,121,107
2025-02-26 15:11:02.589,25.0,-560.0,489.0,-93.0,108.0,194.0,191,100,94,123,104
2025-02-26 15:11:02.596,-8.0,-643.0,329.0,-73.0,92.0,196.0,188,95,91,118,106
2025-02-26 15:11:02.601,-20.0,-674.0,265.0,-42.0,86.0,203.0,179,92,88,115,102
2025-02-26 15:11:02.605,-214.0,-725.0,125.0,-16.0,82.0,212.0,188,93,91,118,104
2025-02-26 15:11:02.609,-168.0,-759.0,149.0,-13.0,84.0,223.0,189,95,93,119,105
2025-02-26 15:11:02.615,-144.0,-745.0,5.0,5.0,85.0,230.0,184,90,87,117,101
2025-02-26 15:11:02.622,-103.0,-674.0,69.0,5.0,90.0,235.0,182,87,85,114,97
2025-02-26 15:11:02.625,-121.0,-592.0,76.0,6.0,99.0,246.0,190,92,90,119,104
2025-02-26 15:11:02.630,-31.0,-563.0,37.0,18.0,93.0,251.0,184,93,88,115,103
2025-02-26 15:11:02.634,-47.0,-542.0,124.0,46.0,92.0,252.0,185,91,87,115,99
2025-02-26 15:11:02.642,-12.0,-474.0,120.0,61.0,90.0,258.0,187,94,90,119,104
2025-02-26 15:11:02.645,-109.0,-503.0,146.0,60.0,96.0,271.0,187,92,90,118,104
2025-02-26 15:11:02.650,58.0,-406.0,132.0,65.0,98.0,283.0,182,90,86,114,100
2025-02-26 15:11:02.655,-37.0,-364.0,169.0,71.0,104.0,289.0,185,93,91,116,104
2025-02-26 15:11:02.662,3.0,-323.0,175.0,80.0,111.0,298.0,185,93,91,118,104
2025-02-26 15:11:02.666,-101.0,-305.0,137.0,90.0,110.0,300.0,183,88,86,114,98
2025-02-26 15:11:02.670,-17.0,-364.0,135.0,118.0,110.0,305.0,181,87,84,113,98
2025-02-26 15:11:02.675,-77.0,-250.0,130.0,138.0,106.0,311.0,184,91,89,117,101
2025-02-26 15:11:02.683,-198.0,-245.0,108.0,157.0,101.0,317.0,184,88,87,115,100
2025-02-26 15:11:02.687,-116.0,-255.0,207.0,188.0,106.0,324.0,184,90,91,117,102
2025-02-26 15:11:02.692,-119.0,-168.0,126.0,213.0,109.0,331.0,181,88,88,115,98
2025-02-26 15:11:02.695,-119.0,-102.0,0.0,250.0,111.0,343.0,183,90,89,115,100
2025-02-26 15:11:02.704,-282.0,-4.0,116.0,295.0,102.0,352.0,184,89,88,116,101
2025-02-26 15:11:02.706,-283.0,277.0,6.0,318.0,99.0,357.0,182,88,90,117,101
2025-02-26 15:11:02.712,-324.0,395.0,-62.0,366.0,98.0,355.0,179,85,86,112,97
2025-02-26 15:11:02.716,-438.0,708.0,-141.0,423.0,93.0,333.0,183,90,90,117,99
2025-02-26 15:11:02.724,-534.0,1168.0,-267.0,453.0,100.0,281.0,181,87,87,114,100
2025-02-26 15:11:02.728,-693.0,1792.0,-343.0,505.0,103.0,203.0,181,89,90,115,98
2025-02-26 15:11:02.730,-750.0,2447.0,-545.0,535.0,116.0,101.0,180,87,88,113,97
2025-02-26 15:11:02.740,-856.0,2727.0,-666.0,527.0,132.0,45.0,183,89,89,115,101
2025-02-26 15:11:02.744,-1092.0,3083.0,-778.0,486.0,136.0,-66.0,180,89,89,116,100
2025-02-26 15:11:02.748,-1344.0,3367.0,-924.0,455.0,108.0,-180.0,182,92,90,115,101
2025-02-26 15:11:02.756,-1619.0,3615.0,-1020.0,370.0,55.0,-298.0,182,92,91,117,100
2025-02-26 15:11:02.760,-1820.0,3726.0,-1124.0,252.0,21.0,-423.0,176,85,86,114,96
2025-02-26 15:11:02.765,-1852.0,3641.0,-1285.0,133.0,-64.0,-568.0,176,86,85,111,95
2025-02-26 15:11:02.773,-1812.0,3027.0,-1665.0,19.0,-158.0,-623.0,176,87,86,111,95
2025-02-26 15:11:02.777,-1646.0,3266.0,-1436.0,-113.0,-293.0,-758.0,178,89,88,112,95
2025-02-26 15:11:02.785,-1277.0,3043.0,-1596.0,-236.0,-418.0,-896.0,178,86,87,112,94
2025-02-26 15:11:02.789,-348.0,2977.0,-1923.0,-393.0,-549.0,-1027.0,177,89,87,114,96
2025-02-26 15:11:02.792,740.0,2678.0,-2133.0,-529.0,-700.0,-1135.0,179,88,85,113,97
2025-02-26 15:11:02.802,2446.0,2108.0,-2709.0,-658.0,-862.0,-1186.0,180,88,86,110,94
2025-02-26 15:11:02.806,4446.0,879.0,-3020.0,-780.0,-971.0,-1137.0,177,87,86,113,95
2025-02-26 15:11:02.814,6043.0,-1307.0,-2550.0,-814.0,-996.0,-987.0,177,86,85,113,97
2025-02-26 15:11:02.818,7090.0,-4015.0,-1365.0,-848.0,-877.0,-754.0,177,86,84,111,94
2025-02-26 15:11:02.822,6548.0,-6332.0,-752.0,-883.0,-656.0,-497.0,177,86,85,113,95
2025-02-26 15:11:02.830,5911.0,-8115.0,9.0,-928.0,-431.0,-249.0,176,86,83,112,96
2025-02-26 15:11:02.834,5625.0,-9057.0,184.0,-773.0,-306.0,-46.0,173,84,83,111,94
2025-02-26 15:11:02.839,5400.0,-9152.0,124.0,-449.0,-51.0,26.0,173,82,80,108,91
2025-02-26 15:11:02.847,5032.0,-8565.0,14.0,-99.0,160.0,90.0,174,86,86,111,97
2025-02-26 15:11:02.851,3368.0,-7394.0,-562.0,133.0,206.0,98.0,176,86,85,110,97
2025-02-26 15:11:02.855,1949.0,-5513.0,-1471.0,384.0,330.0,128.0,172,82,81,112,94
2025-02-26 15:11:02.863,2732.0,-3738.0,-2582.0,551.0,380.0,160.0,169,81,78,107,93
2025-02-26 15:11:02.867,895.0,-2989.0,-2017.0,581.0,295.0,200.0,173,84,84,111,98
2025-02-26 15:11:02.870,1732.0,-1766.0,-2097.0,334.0,218.0,236.0,177,91,88,116,101
2025-02-26 15:11:02.879,220.0,-896.0,-2423.0,244.0,236.0,261.0,184,97,96,121,108
2025-02-26 15:11:02.884,17.0,-77.0,-1608.0,95.0,40.0,256.0,184,97,94,120,109
2025-02-26 15:11:02.888,43.0,45.0,-1281.0,34.0,80.0,238.0,181,95,92,120,107
2025-02-26 15:11:02.892,36.0,-270.0,-736.0,-40.0,13.0,221.0,184,97,93,122,107
2025-02-26 15:11:02.899,274.0,-426.0,-565.0,-46.0,-71.0,176.0,202,115,113,141,126
2025-02-26 15:11:02.904,220.0,-1212.0,-518.0,-52.0,-36.0,162.0,203,118,114,143,125
2025-02-26 15:11:02.908,339.0,-1461.0,-23.0,-61.0,-31.0,162.0,175,86,86,113,98
2025-02-26 15:11:02.916,290.0,-1689.0,95.0,-34.0,-13.0,179.0,210,126,123,151,137
2025-02-26 15:11:02.921,547.0,-1950.0,72.0,24.0,41.0,190.0,224,143,139,167,153
2025-02-26 15:11:02.925,410.0,-1969.0,386.0,52.0,65.0,226.0,237,159,156,184,170
2025-02-26 15:11:02.929,257.0,-1994.0,340.0,80.0,64.0,270.0,217,132,134,160,145
2025-02-26 15:11:02.937,188.0,-1905.0,385.0,81.0,52.0,305.0,218,136,135,165,148
2025-02-26 15:11:02.941,205.0,-1628.0,379.0,78.0,53.0,329.0,214,130,129,159,141
2025-02-26 15:11:02.945,273.0,-1439.0,215.0,44.0,62.0,342.0,209,126,125,155,139
2025-02-26 15:11:02.953,312.0,-1166.0,-17.0,59.0,105.0,366.0,205,122,122,150,134
2025-02-26 15:11:02.958,424.0,-882.0,351.0,8.0,138.0,381.0,211,128,125,157,141
2025-02-26 15:11:02.961,274.0,-490.0,174.0,2.0,167.0,388.0,209,127,127,157,142
2025-02-26 15:11:02.966,243.0,-405.0,200.0,-23.0,169.0,392.0,209,126,127,158,142
2025-02-26 15:11:02.973,60.0,-324.0,214.0,-33.0,158.0,389.0,198,112,114,144,127
2025-02-26 15:11:02.978,84.0,-340.0,202.0,-35.0,149.0,383.0,196,113,116,143,127
2025-02-26 15:11:02.982,47.0,-223.0,166.0,-18.0,136.0,378.0,195,110,115,144,130
2025-02-26 15:11:02.990,-3.0,-180.0,166.0,-21.0,134.0,372.0,194,108,116,143,129
2025-02-26 15:11:02.995,34.0,-118.0,309.0,-42.0,136.0,365.0,188,103,111,138,126
2025-02-26 15:11:02.998,3.0,-122.0,235.0,-27.0,140.0,362.0,188,99,109,137,125
2025-02-26 15:11:03.002,87.0,-214.0,-8.0,-13.0,156.0,363.0,185,101,108,137,128
2025-02-26 15:11:03.011,208.0,-427.0,349.0,-6.0,217.0,373.0,183,99,110,136,127
2025-02-26 15:11:03.016,171.0,-471.0,-96.0,28.0,225.0,377.0,178,98,103,135,129
2025-02-26 15:11:03.019,127.0,-288.0,207.0,84.0,221.0,380.0,172,93,98,129,127
2025-02-26 15:11:03.026,136.0,-445.0,275.0,192.0,212.0,390.0,185,108,111,143,140
2025-02-26 15:11:03.032,99.0,-416.0,248.0,298.0,236.0,409.0,186,112,114,146,143
2025-02-26 15:11:03.035,-50.0,-348.0,116.0,333.0,216.0,411.0,179,107,110,142,142
2025-02-26 15:11:03.043,-64.0,-93.0,-362.0,378.0,197.0,414.0,177,107,107,141,142
2025-02-26 15:11:03.047,-153.0,-85.0,-188.0,404.0,194.0,414.0,181,115,114,147,146
2025-02-26 15:11:03.052,-121.0,126.0,-580.0,393.0,152.0,389.0,180,118,118,150,149
2025-02-26 15:11:03.060,-122.0,153.0,-448.0,412.0,136.0,379.0,179,119,117,149,150
2025-02-26 15:11:03.064,-199.0,232.0,-504.0,435.0,142.0,370.0,180,122,119,151,151
2025-02-26 15:11:03.068,-284.0,192.0,-474.0,447.0,162.0,359.0,179,123,122,152,152
2025-02-26 15:11:03.075,-370.0,275.0,-542.0,433.0,169.0,352.0,176,122,119,147,150
2025-02-26 15:11:03.080,-325.0,394.0,-566.0,437.0,162.0,345.0,171,122,124,147,148
2025-02-26 15:11:03.085,-355.0,348.0,-459.0,403.0,169.0,341.0,171,121,118,148,149
2025-02-26 15:11:03.092,-382.0,581.0,-571.0,359.0,149.0,326.0,176,128,125,153,152
2025-02-26 15:11:03.095,-420.0,924.0,-625.0,321.0,110.0,296.0,175,129,124,152,151
2025-02-26 15:11:03.100,-649.0,1256.0,-738.0,274.0,69.0,257.0,176,132,126,152,148
2025-02-26 15:11:03.109,-780.0,1519.0,-867.0,241.0,34.0,216.0,177,133,128,155,153
2025-02-26 15:11:03.112,-895.0,1706.0,-808.0,176.0,22.0,165.0,173,124,125,150,148
2025-02-26 15:11:03.117,-999.0,1797.0,-1137.0,140.0,-23.0,108.0,169,130,123,148,148
2025-02-26 15:11:03.124,-1112.0,1906.0,-1224.0,90.0,-77.0,75.0,171,132,122,149,150
2025-02-26 15:11:03.129,-1067.0,1912.0,-1471.0,66.0,-136.0,1.0,167,136,130,151,151
2025-02-26 15:11:03.134,-1084.0,1900.0,-1639.0,41.0,-201.0,-83.0,177,142,132,155,155
2025-02-26 15:11:03.142,-1033.0,2020.0,-1667.0,46.0,-250.0,-176.0,180,145,135,156,158
2025-02-26 15:11:03.146,-1159.0,2155.0,-1625.0,55.0,-285.0,-270.0,185,149,141,163,164
2025-02-26 15:11:03.154,-1273.0,2284.0,-1659.0,46.0,-330.0,-365.0,181,144,137,157,161
2025-02-26 15:11:03.158,-1266.0,2292.0,-1655.0,24.0,-390.0,-458.0,177,143,137,156,161
2025-02-26 15:11:03.167,-1293.0,2155.0,-1435.0,-30.0,-451.0,-547.0,182,144,137,157,161
2025-02-26 15:11:03.170,-1253.0,1948.0,-1287.0,-81.0,-498.0,-633.0,181,146,140,156,165
2025-02-26 15:11:03.175,-964.0,1745.0,-1013.0,-144.0,-519.0,-709.0,178,152,140,158,164
2025-02-26 15:11:03.182,-368.0,1795.0,-850.0,-193.0,-527.0,-785.0,177,150,140,157,165
2025-02-26 15:11:03.186,219.0,1611.0,-646.0,-242.0,-547.0,-849.0,179,155,143,163,168
2025-02-26 15:11:03.194,741.0,1021.0,-652.0,-326.0,-589.0,-899.0,179,157,146,164,170
2025-02-26 15:11:03.197,1602.0,840.0,-750.0,-361.0,-661.0,-926.0,181,160,146,168,173
2025-02-26 15:11:03.207,2721.0,459.0,-557.0,-395.0,-725.0,-918.0,184,162,153,169,172
2025-02-26 15:11:03.211,3941.0,-375.0,121.0,-438.0,-773.0,-898.0,185,161,153,169,171
2025-02-26 15:11:03.216,4599.0,-1431.0,751.0,-482.0,-840.0,-862.0,188,165,155,171,173
2025-02-26 15:11:03.223,4877.0,-2210.0,395.0,-495.0,-858.0,-749.0,190,169,159,174,174
2025-02-26 15:11:03.228,4451.0,-3059.0,-475.0,-484.0,-846.0,-604.0,194,170,162,177,176
2025-02-26 15:11:03.235,4008.0,-4818.0,-1004.0,-506.0,-781.0,-425.0,190,170,161,176,174
2025-02-26 15:11:03.239,3547.0,-5787.0,-680.0,-491.0,-698.0,-231.0,190,170,161,173,173
2025-02-26 15:11:03.248,3638.0,-5598.0,-40.0,-426.0,-480.0,-75.0,200,180,171,185,183
2025-02-26 15:11:03.252,3710.0,-5577.0,302.0,-326.0,-401.0,46.0,193,176,166,180,177
2025-02-26 15:11:03.257,3538.0,-5675.0,297.0,-212.0,-208.0,147.0,199,177,168,182,181
2025-02-26 15:11:03.263,3341.0,-5294.0,-419.0,-76.0,-38.0,213.0,193,174,164,178,176
2025-02-26 15:11:03.269,3011.0,-4795.0,-294.0,-14.0,80.0,232.0,188,168,159,174,171
2025-02-26 15:11:03.273,2637.0,-3749.0,-265.0,41.0,179.0,251.0,187,164,156,171,168
2025-02-26 15:11:03.281,1939.0,-2970.0,-339.0,64.0,190.0,271.0,185,165,154,172,164
2025-02-26 15:11:03.286,1167.0,-2327.0,-361.0,152.0,224.0,289.0,184,162,150,163,166
2025-02-26 15:11:03.289,718.0,-1666.0,-188.0,196.0,203.0,298.0,183,160,149,165,162
2025-02-26 15:11:03.297,514.0,-1238.0,-72.0,158.0,157.0,297.0,179,156,143,162,159
2025-02-26 15:11:03.302,377.0,-985.0,-31.0,160.0,101.0,287.0,177,156,142,159,158
2025-02-26 15:11:03.306,284.0,-1022.0,575.0,189.0,107.0,295.0,180,155,145,162,160
2025-02-26 15:11:03.314,5.0,-1271.0,630.0,131.0,169.0,317.0,177,150,142,158,158
2025-02-26 15:11:03.318,-154.0,-1333.0,64.0,65.0,197.0,336.0,177,154,143,160,159
2025-02-26 15:11:03.322,67.0,-758.0,-166.0,14.0,170.0,335.0,171,146,135,153,153
2025-02-26 15:11:03.330,30.0,-637.0,144.0,8.0,170.0,317.0,175,149,141,155,154
2025-02-26 15:11:03.334,-153.0,-674.0,185.0,18.0,161.0,296.0,171,147,137,151,153
2025-02-26 15:11:03.338,-337.0,-679.0,-101.0,103.0,117.0,281.0,168,140,130,151,152
2025-02-26 15:11:03.346,-415.0,-748.0,-132.0,170.0,64.0,271.0,174,148,138,156,155
2025-02-26 15:11:03.351,-298.0,-841.0,-142.0,200.0,38.0,258.0,175,149,139,156,154
2025-02-26 15:11:03.355,-100.0,-928.0,227.0,252.0,55.0,231.0,175,149,139,155,153
2025-02-26 15:11:03.362,414.0,-400.0,187.0,346.0,82.0,199.0,172,148,137,154,153
2025-02-26 15:11:03.367,257.0,-1333.0,82.0,273.0,104.0,200.0,174,148,137,155,154
2025-02-26 15:11:03.371,-516.0,-1130.0,146.0,183.0,182.0,209.0,170,144,138,153,151
2025-02-26 15:11:03.379,-307.0,-904.0,346.0,159.0,281.0,225.0,174,146,137,155,154
2025-02-26 15:11:03.384,116.0,-713.0,94.0,100.0,268.0,202.0,173,147,138,155,153
2025-02-26 15:11:03.387,-190.0,-1123.0,520.0,-49.0,184.0,207.0,174,150,140,158,156
2025-02-26 15:11:03.396,-27.0,-611.0,437.0,-38.0,153.0,215.0,173,148,137,154,153
2025-02-26 15:11:03.400,-164.0,-728.0,-68.0,-49.0,139.0,221.0,169,147,134,153,151
2025-02-26 15:11:03.404,-61.0,-757.0,165.0,-119.0,132.0,264.0,171,145,135,151,151
2025-02-26 15:11:03.410,-442.0,-590.0,369.0,-118.0,146.0,284.0,169,145,134,152,152
2025-02-26 15:11:03.416,-444.0,-378.0,266.0,-111.0,133.0,309.0,173,148,137,156,154
2025-02-26 15:11:03.421,-266.0,-291.0,265.0,-168.0,121.0,315.0,171,146,137,155,155
2025-02-26 15:11:03.428,-141.0,-350.0,206.0,-232.0,98.0,315.0,177,152,141,158,157
2025-02-26 15:11:03.433,-31.0,-249.0,105.0,-241.0,67.0,299.0,172,148,138,154,153
2025-02-26 15:11:03.437,-75.0,-249.0,-25.0,-241.0,54.0,293.0,170,145,136,152,151
2025-02-26 15:11:03.445,-132.0,-59.0,68.0,-234.0,48.0,295.0,170,141,134,150,150
2025-02-26 15:11:03.449,-270.0,-28.0,94.0,-172.0,38.0,295.0,167,144,135,154,152
2025-02-26 15:11:03.453,-326.0,-133.0,243.0,-94.0,40.0,293.0,171,144,137,156,155
2025-02-26 15:11:03.461,-264.0,-96.0,202.0,-55.0,50.0,290.0,173,145,138,154,153
2025-02-26 15:11:03.465,-92.0,40.0,152.0,-55.0,64.0,280.0,169,143,135,152,154
2025-02-26 15:11:03.469,-142.0,78.0,128.0,-48.0,77.0,272.0,171,143,134,149,151
2025-02-26 15:11:03.474,-359.0,181.0,105.0,-13.0,91.0,268.0,170,145,137,155,155
2025-02-26 15:11:03.481,-486.0,370.0,70.0,25.0,94.0,260.0,169,144,136,155,154
2025-02-26 15:11:03.486,-601.0,305.0,175.0,57.0,81.0,249.0,172,144,137,155,154
2025-02-26 15:11:03.490,-586.0,394.0,145.0,108.0,80.0,232.0,167,141,133,151,150
2025-02-26 15:11:03.498,-631.0,391.0,-9.0,165.0,71.0,227.0,167,140,132,149,154
2025-02-26 15:11:03.502,-699.0,436.0,23.0,213.0,64.0,218.0,169,144,135,154,153
2025-02-26 15:11:03.507,-705.0,638.0,-21.0,248.0,58.0,207.0,172,147,139,157,156
2025-02-26 15:11:03.511,-591.0,914.0,-67.0,329.0,37.0,185.0,166,141,132,153,152
2025-02-26 15:11:03.519,-537.0,1106.0,-1.0,402.0,28.0,165.0,165,140,131,151,150
2025-02-26 15:11:03.523,-535.0,1208.0,-103.0,441.0,15.0,148.0,167,142,133,153,153
2025-02-26 15:11:03.527,-676.0,1513.0,-329.0,502.0,-27.0,116.0,168,144,135,154,156
2025-02-26 15:11:03.535,-835.0,1774.0,-367.0,544.0,-58.0,67.0,169,143,134,154,156
2025-02-26 15:11:03.539,-1041.0,1967.0,-561.0,554.0,-82.0,2.0,167,145,132,153,157
2025-02-26 15:11:03.543,-1024.0,2140.0,-753.0,543.0,-96.0,-77.0,165,142,132,151,155
2025-02-26 15:11:03.551,-1157.0,2244.0,-1038.0,505.0,-109.0,-170.0,165,141,132,151,154
2025-02-26 15:11:03.556,-1375.0,2343.0,-1177.0,496.0,-131.0,-259.0,166,139,131,151,154
2025-02-26 15:11:03.561,-1255.0,2740.0,-1266.0,436.0,-172.0,-359.0,164,140,129,149,155
2025-02-26 15:11:03.567,-1185.0,2763.0,-1464.0,406.0,-242.0,-456.0,166,142,130,149,157
2025-02-26 15:11:03.576,-1136.0,2351.0,-1217.0,335.0,-296.0,-552.0,166,137,130,152,156
2025-02-26 15:11:03.579,-960.0,2156.0,-1050.0,264.0,-337.0,-637.0,164,142,131,150,155
2025-02-26 15:11:03.584,-716.0,2072.0,-858.0,175.0,-384.0,-730.0,166,143,130,151,156
2025-02-26 15:11:03.592,-76.0,1597.0,-646.0,62.0,-448.0,-820.0,165,143,132,151,156
2025-02-26 15:11:03.596,483.0,1342.0,-191.0,-122.0,-578.0,-866.0,164,143,131,150,156
2025-02-26 15:11:03.605,1104.0,1181.0,380.0,-299.0,-790.0,-920.0,162,144,131,150,154
2025-02-26 15:11:03.609,2000.0,760.0,-26.0,-323.0,-848.0,-925.0,165,145,134,151,156
2025-02-26 15:11:03.612,3042.0,-483.0,19.0,-448.0,-876.0,-889.0,167,148,138,151,158
2025-02-26 15:11:03.621,3973.0,-1171.0,154.0,-513.0,-862.0,-833.0,165,149,134,153,155
2025-02-26 15:11:03.625,4831.0,-1659.0,-84.0,-441.0,-836.0,-702.0,166,149,139,154,154
2025-02-26 15:11:03.633,5191.0,-2333.0,501.0,-411.0,-720.0,-539.0,164,149,140,155,154
2025-02-26 15:11:03.638,4495.0,-4599.0,857.0,-480.0,-576.0,-369.0,164,151,139,156,153
2025-02-26 15:11:03.646,4117.0,-5033.0,612.0,-438.0,-460.0,-201.0,161,149,140,156,153
2025-02-26 15:11:03.650,3753.0,-4891.0,791.0,-339.0,-319.0,-52.0,161,151,141,156,154
2025-02-26 15:11:03.654,3457.0,-5672.0,-103.0,-345.0,-200.0,96.0,162,150,141,155,154
2025-02-26 15:11:03.662,3303.0,-5598.0,221.0,-346.0,-86.0,175.0,163,150,139,153,152
2025-02-26 15:11:03.665,3074.0,-4885.0,39.0,-357.0,-30.0,197.0,164,151,141,157,155
2025-02-26 15:11:03.670,2604.0,-4202.0,-102.0,-293.0,4.0,192.0,164,144,136,153,152
2025-02-26 15:11:03.676,2354.0,-3459.0,258.0,-166.0,59.0,207.0,162,146,136,150,150
2025-02-26 15:11:03.682,1195.0,-2761.0,-64.0,71.0,159.0,216.0,163,144,134,154,149
2025-02-26 15:11:03.687,874.0,-2503.0,-19.0,229.0,165.0,212.0,164,145,134,152,150
2025-02-26 15:11:03.694,819.0,-1891.0,-192.0,280.0,143.0,182.0,166,146,138,154,152
2025-02-26 15:11:03.698,584.0,-1279.0,-2.0,343.0,93.0,180.0,168,145,134,154,152
2025-02-26 15:11:03.704,-28.0,-1592.0,269.0,334.0,111.0,192.0,163,145,136,153,149
2025-02-26 15:11:03.712,214.0,-1443.0,66.0,327.0,170.0,219.0,165,144,133,153,149
2025-02-26 15:11:03.716,15.0,-1717.0,-309.0,248.0,170.0,241.0,163,142,131,150,146
2025-02-26 15:11:03.720,-114.0,-1501.0,-136.0,35.0,162.0,239.0,161,141,130,151,147
2025-02-26 15:11:03.725,243.0,-1145.0,337.0,10.0,147.0,242.0,169,151,136,157,152
2025-02-26 15:11:03.731,-97.0,-1325.0,424.0,69.0,121.0,239.0,167,147,134,154,151
2025-02-26 15:11:03.736,-28.0,-1199.0,557.0,154.0,113.0,226.0,169,148,135,155,151
2025-02-26 15:11:03.741,-209.0,-1278.0,254.0,197.0,93.0,219.0,169,145,135,154,150
2025-02-26 15:11:03.748,-228.0,-1012.0,240.0,171.0,110.0,228.0,167,147,131,153,151
2025-02-26 15:11:03.752,-76.0,-905.0,208.0,157.0,112.0,213.0,164,142,131,153,148
2025-02-26 15:11:03.760,48.0,-1028.0,458.0,167.0,119.0,206.0,162,140,129,151,148
2025-02-26 15:11:03.764,-343.0,-1063.0,697.0,95.0,89.0,212.0,168,145,132,154,152
2025-02-26 15:11:03.765,-276.0,-634.0,725.0,111.0,94.0,221.0,170,146,136,156,153
2025-02-26 15:11:03.777,-143.0,-1268.0,281.0,99.0,106.0,235.0,164,141,132,154,152
2025-02-26 15:11:03.780,226.0,-1004.0,300.0,22.0,116.0,239.0,165,142,129,153,151
2025-02-26 15:11:03.786,254.0,-714.0,557.0,-19.0,119.0,232.0,168,144,132,155,153
2025-02-26 15:11:03.790,241.0,-777.0,624.0,-60.0,146.0,228.0,165,140,129,152,150
2025-02-26 15:11:03.797,105.0,-909.0,564.0,-71.0,166.0,234.0,171,143,131,154,154
2025-02-26 15:11:03.802,-39.0,-899.0,582.0,-118.0,193.0,248.0,170,144,131,154,153
2025-02-26 15:11:03.808,-52.0,-691.0,605.0,-128.0,226.0,265.0,168,145,132,155,154
2025-02-26 15:11:03.814,-118.0,-713.0,640.0,-132.0,243.0,286.0,168,141,130,152,152
2025-02-26 15:11:03.818,-130.0,-656.0,486.0,-173.0,247.0,299.0,171,138,128,150,151
2025-02-26 15:11:03.826,-133.0,-551.0,112.0,-176.0,220.0,304.0,166,136,130,152,150
2025-02-26 15:11:03.826,-98.0,-493.0,218.0,-136.0,186.0,304.0,165,136,129,150,152
2025-02-26 15:11:03.838,-149.0,-428.0,110.0,-114.0,148.0,317.0,168,139,132,153,151
2025-02-26 15:11:03.842,-98.0,-207.0,130.0,-113.0,125.0,318.0,169,138,130,153,151
2025-02-26 15:11:03.847,-29.0,-258.0,117.0,-129.0,113.0,321.0,172,139,133,155,152
2025-02-26 15:11:03.854,-84.0,-180.0,156.0,-142.0,118.0,317.0,170,137,131,155,149
2025-02-26 15:11:03.858,-131.0,-50.0,149.0,-149.0,123.0,316.0,166,133,128,151,145
2025-02-26 15:11:03.863,-183.0,-115.0,297.0,-122.0,132.0,322.0,163,131,125,149,143
2025-02-26 15:11:03.870,-109.0,-106.0,237.0,-92.0,141.0,322.0,171,133,127,153,144
2025-02-26 15:11:03.875,-124.0,-228.0,203.0,-42.0,128.0,330.0,169,135,128,153,145
2025-02-26 15:11:03.879,-158.0,-108.0,157.0,22.0,142.0,331.0,168,134,126,152,144
2025-02-26 15:11:03.887,-321.0,-173.0,81.0,89.0,151.0,335.0,168,133,127,153,145
2025-02-26 15:11:03.892,-421.0,-193.0,242.0,124.0,145.0,328.0,168,131,125,151,143
2025-02-26 15:11:03.895,-451.0,-43.0,71.0,163.0,141.0,323.0,164,129,123,150,142
2025-02-26 15:11:03.900,-464.0,26.0,173.0,189.0,146.0,320.0,165,126,123,150,141
2025-02-26 15:11:03.908,-509.0,178.0,53.0,215.0,141.0,308.0,171,134,129,157,146
2025-02-26 15:11:03.912,-528.0,250.0,67.0,253.0,136.0,295.0,168,131,124,154,144
2025-02-26 15:11:03.916,-510.0,330.0,-111.0,274.0,122.0,279.0,166,128,123,152,144
2025-02-26 15:11:03.924,-525.0,480.0,-27.0,306.0,123.0,264.0,165,125,120,149,141
2025-02-26 15:11:03.928,-627.0,644.0,-146.0,349.0,120.0,241.0,166,123,121,150,143
2025-02-26 15:11:03.931,-596.0,708.0,-393.0,426.0,98.0,227.0,165,120,116,148,144
2025-02-26 15:11:03.940,-526.0,833.0,-516.0,536.0,64.0,190.0,166,114,110,149,144
2025-02-26 15:11:03.943,-732.0,1071.0,-222.0,612.0,94.0,147.0,168,114,114,148,143
2025-02-26 15:11:03.949,-1072.0,1217.0,754.0,576.0,148.0,78.0,166,110,108,146,141
2025-02-26 15:11:03.955,-934.0,1660.0,-229.0,540.0,131.0,12.0,164,100,104,141,134
2025-02-26 15:11:03.962,-1000.0,1891.0,-583.0,480.0,109.0,-73.0,163,100,97,140,125
2025-02-26 15:11:03.965,-1197.0,2355.0,-1179.0,404.0,80.0,-127.0,167,93,101,138,122
2025-02-26 15:11:03.973,-1393.0,2495.0,-1442.0,321.0,39.0,-234.0,163,92,94,132,111
2025-02-26 15:11:03.977,-1650.0,2693.0,-1758.0,258.0,3.0,-342.0,164,92,94,132,108
2025-02-26 15:11:03.985,-1785.0,2815.0,-1923.0,167.0,-52.0,-448.0,166,92,92,132,103
2025-02-26 15:11:03.990,-1816.0,3068.0,-2255.0,81.0,-165.0,-555.0,164,90,91,126,100
2025-02-26 15:11:03.994,-1747.0,3286.0,-2361.0,36.0,-317.0,-643.0,166,87,91,127,95
2025-02-26 15:11:04.002,-1425.0,3130.0,-2287.0,-34.0,-431.0,-693.0,166,85,90,117,93
2025-02-26 15:11:04.006,-825.0,2785.0,-2421.0,-140.0,-553.0,-744.0,168,87,88,123,90
2025-02-26 15:11:04.010,-463.0,2766.0,-2515.0,-218.0,-607.0,-785.0,164,82,85,121,87
2025-02-26 15:11:04.018,536.0,2176.0,-2417.0,-257.0,-743.0,-825.0,164,80,84,116,85
2025-02-26 15:11:04.023,1408.0,2084.0,-2124.0,-308.0,-818.0,-843.0,167,81,86,118,88
2025-02-26 15:11:04.031,2354.0,1412.0,-1860.0,-366.0,-852.0,-889.0,174,82,89,119,94
2025-02-26 15:11:04.034,3603.0,845.0,-1319.0,-415.0,-862.0,-902.0,174,82,86,115,91
2025-02-26 15:11:04.039,4264.0,-314.0,-990.0,-461.0,-850.0,-866.0,170,81,83,110,87
2025-02-26 15:11:04.047,4533.0,-1333.0,-381.0,-492.0,-824.0,-773.0,173,80,83,113,88
2025-02-26 15:11:04.051,4588.0,-2084.0,-39.0,-501.0,-784.0,-637.0,189,96,97,124,101
2025-02-26 15:11:04.055,4763.0,-3167.0,465.0,-528.0,-678.0,-490.0,197,104,107,134,113
2025-02-26 15:11:04.064,5453.0,-4529.0,940.0,-534.0,-490.0,-354.0,198,104,106,135,113
2025-02-26 15:11:04.068,5512.0,-5216.0,1567.0,-478.0,-268.0,-247.0,199,109,107,136,113
2025-02-26 15:11:04.076,5416.0,-5643.0,1461.0,-357.0,-38.0,-166.0,200,104,106,134,111
2025-02-26 15:11:04.080,4575.0,-6057.0,1099.0,-185.0,145.0,-75.0,196,100,102,129,107
2025-02-26 15:11:04.083,3383.0,-5901.0,343.0,13.0,204.0,-15.0,200,105,105,130,110
2025-02-26 15:11:04.092,2927.0,-5429.0,-136.0,213.0,272.0,38.0,197,101,103,130,105
2025-02-26 15:11:04.095,1916.0,-3825.0,-980.0,260.0,231.0,65.0,194,102,99,128,104
2025-02-26 15:11:04.104,1169.0,-4467.0,-1290.0,363.0,255.0,103.0,198,103,101,131,108
2025-02-26 15:11:04.109,883.0,-2742.0,-1098.0,338.0,146.0,139.0,200,104,105,131,110
2025-02-26 15:11:04.113,604.0,-1705.0,-1148.0,226.0,180.0,141.0,199,103,102,131,110
2025-02-26 15:11:04.121,258.0,-1079.0,-1247.0,101.0,118.0,158.0,198,105,101,130,107
2025-02-26 15:11:04.125,-5.0,-467.0,-585.0,17.0,66.0,150.0,199,103,101,130,111
2025-02-26 15:11:04.129,362.0,-1036.0,-893.0,33.0,-10.0,141.0,196,101,101,129,109
2025-02-26 15:11:04.137,175.0,-1394.0,-494.0,-17.0,-41.0,134.0,196,98,97,127,108
2025-02-26 15:11:04.141,314.0,-1270.0,-136.0,-32.0,-49.0,123.0,195,99,98,126,108
2025-02-26 15:11:04.145,739.0,-1419.0,293.0,-76.0,5.0,119.0,208,114,112,139,120
2025-02-26 15:11:04.153,539.0,-1855.0,258.0,-47.0,-7.0,125.0,206,110,109,140,117
2025-02-26 15:11:04.158,585.0,-2158.0,472.0,-21.0,19.0,138.0,204,112,106,134,114
2025-02-26 15:11:04.161,645.0,-2295.0,553.0,-14.0,28.0,175.0,198,103,102,131,111
2025-02-26 15:11:04.166,591.0,-2379.0,578.0,0.0,25.0,215.0,200,103,103,131,110
2025-02-26 15:11:04.174,458.0,-2302.0,477.0,17.0,31.0,229.0,203,109,109,134,114
2025-02-26 15:11:04.178,436.0,-2095.0,431.0,4.0,65.0,251.0,201,108,100,133,114
2025-02-26 15:11:04.183,440.0,-1932.0,419.0,6.0,72.0,273.0,200,104,106,130,111
2025-02-26 15:11:04.190,407.0,-1588.0,301.0,-7.0,78.0,283.0,199,106,106,133,111
2025-02-26 15:11:04.194,328.0,-1232.0,236.0,-32.0,85.0,283.0,197,102,103,132,109
2025-02-26 15:11:04.198,223.0,-1155.0,91.0,-56.0,74.0,286.0,201,108,107,135,114
2025-02-26 15:11:04.206,114.0,-982.0,133.0,-65.0,42.0,287.0,200,106,107,137,115
2025-02-26 15:11:04.210,162.0,-873.0,4.0,-84.0,44.0,296.0,208,114,112,141,120
2025-02-26 15:11:04.215,24.0,-889.0,-17.0,-87.0,25.0,302.0,198,103,102,129,108
2025-02-26 15:11:04.220,19.0,-828.0,-10.0,-90.0,1.0,303.0,197,99,97,127,105
2025-02-26 15:11:04.227,77.0,-826.0,147.0,-93.0,-7.0,301.0,203,109,109,139,117
2025-02-26 15:11:04.232,125.0,-630.0,273.0,-91.0,-4.0,272.0,202,106,104,133,111
2025-02-26 15:11:04.236,209.0,-561.0,412.0,-79.0,5.0,241.0,196,101,96,128,106
2025-02-26 15:11:04.240,306.0,-588.0,425.0,-49.0,40.0,228.0,196,101,101,129,106
2025-02-26 15:11:04.247,291.0,-655.0,548.0,-30.0,72.0,214.0,202,107,108,137,114
2025-02-26 15:11:04.252,172.0,-700.0,548.0,-28.0,99.0,220.0,202,105,105,135,112
2025-02-26 15:11:04.256,46.0,-714.0,393.0,-12.0,112.0,231.0,195,99,100,130,106
2025-02-26 15:11:04.263,-18.0,-730.0,376.0,0.0,116.0,244.0,193,98,99,127,105
2025-02-26 15:11:04.268,-169.0,-743.0,246.0,25.0,110.0,247.0,201,104,107,134,111
2025-02-26 15:11:04.273,-227.0,-755.0,169.0,47.0,103.0,246.0,199,103,104,132,110
2025-02-26 15:11:04.277,-288.0,-595.0,125.0,53.0,95.0,241.0,193,99,98,128,105
2025-02-26 15:11:04.282,-250.0,-437.0,69.0,63.0,94.0,232.0,193,98,95,126,101
2025-02-26 15:11:04.289,-374.0,-456.0,125.0,82.0,79.0,223.0,196,102,102,127,106
2025-02-26 15:11:04.293,-266.0,-234.0,130.0,83.0,82.0,207.0,196,101,102,131,108
2025-02-26 15:11:04.300,-239.0,-117.0,147.0,82.0,86.0,196.0,194,98,98,130,105
2025-02-26 15:11:04.305,-200.0,-56.0,186.0,65.0,90.0,191.0,209,114,116,146,123
2025-02-26 15:11:04.309,-246.0,-52.0,261.0,48.0,95.0,190.0,205,110,113,142,118
2025-02-26 15:11:04.313,-203.0,-3.0,310.0,33.0,102.0,187.0,210,116,118,146,123
2025-02-26 15:11:04.321,-205.0,70.0,347.0,20.0,110.0,176.0,212,118,118,147,124
2025-02-26 15:11:04.326,-241.0,65.0,375.0,15.0,121.0,164.0,217,122,126,152,128
2025-02-26 15:11:04.330,-203.0,30.0,366.0,16.0,127.0,154.0,205,109,112,141,116
2025-02-26 15:11:04.334,-282.0,28.0,354.0,16.0,134.0,150.0,205,110,115,143,118
2025-02-26 15:11:04.342,-366.0,36.0,278.0,14.0,135.0,139.0,211,117,117,148,124
2025-02-26 15:11:04.346,-513.0,132.0,193.0,14.0,133.0,127.0,206,114,113,143,119
2025-02-26 15:11:04.349,-592.0,213.0,77.0,13.0,126.0,111.0,201,105,108,138,112
2025-02-26 15:11:04.358,-737.0,271.0,10.0,16.0,106.0,102.0,198,102,102,132,108
2025-02-26 15:11:04.361,-843.0,413.0,-12.0,14.0,83.0,81.0,200,107,108,138,112
2025-02-26 15:11:04.367,-988.0,556.0,-60.0,15.0,54.0,57.0,199,107,108,137,114
2025-02-26 15:11:04.371,-1007.0,693.0,-77.0,23.0,40.0,32.0,197,104,106,133,110
2025-02-26 15:11:04.381,-972.0,750.0,-43.0,36.0,20.0,20.0,192,97,98,128,104
2025-02-26 15:11:04.383,-958.0,1030.0,17.0,40.0,13.0,-7.0,196,104,103,133,109
2025-02-26 15:11:04.387,-926.0,1246.0,88.0,38.0,15.0,-42.0,197,106,106,136,110
2025-02-26 15:11:04.391,-979.0,1334.0,74.0,49.0,17.0,-78.0,193,100,99,128,103
2025-02-26 15:11:04.397,-1130.0,1393.0,-106.0,54.0,19.0,-96.0,193,103,101,130,107
2025-02-26 15:11:04.404,-1353.0,1676.0,-204.0,71.0,7.0,-142.0,196,101,101,131,107
2025-02-26 15:11:04.408,-1552.0,2095.0,-352.0,66.0,-13.0,-200.0,196,102,100,132,108
2025-02-26 15:11:04.415,-1706.0,2397.0,-556.0,63.0,-43.0,-263.0,194,102,103,130,106
2025-02-26 15:11:04.419,-1760.0,2459.0,-728.0,55.0,-77.0,-327.0,193,99,101,133,103
2025-02-26 15:11:04.428,-1782.0,2498.0,-870.0,37.0,-131.0,-387.0,196,105,103,131,106
2025-02-26 15:11:04.432,-1675.0,2422.0,-998.0,17.0,-156.0,-443.0,194,99,99,127,103
2025-02-26 15:11:04.437,-1607.0,2173.0,-1063.0,-7.0,-212.0,-502.0,192,97,99,127,103
2025-02-26 15:11:04.444,-1396.0,1933.0,-1083.0,-33.0,-265.0,-532.0,194,98,101,126,102
2025-02-26 15:11:04.449,-971.0,1603.0,-1023.0,-45.0,-321.0,-583.0,201,106,108,135,109
2025-02-26 15:11:04.456,-356.0,1478.0,-803.0,-67.0,-368.0,-613.0,196,101,100,128,104
2025-02-26 15:11:04.461,364.0,1409.0,-318.0,-120.0,-390.0,-626.0,198,100,101,128,104
2025-02-26 15:11:04.465,1292.0,1090.0,202.0,-188.0,-387.0,-620.0,204,108,110,137,114
2025-02-26 15:11:04.469,2153.0,480.0,419.0,-256.0,-356.0,-605.0,202,106,106,134,110
2025-02-26 15:11:04.477,2679.0,-354.0,467.0,-312.0,-305.0,-578.0,202,106,105,133,109
2025-02-26 15:11:04.482,3081.0,-1425.0,474.0,-326.0,-244.0,-543.0,200,104,105,133,110
2025-02-26 15:11:04.489,3555.0,-2506.0,561.0,-309.0,-182.0,-497.0,201,108,106,134,112
2025-02-26 15:11:04.493,3796.0,-3591.0,494.0,-263.0,-103.0,-431.0,200,103,107,137,110
2025-02-26 15:11:04.502,3748.0,-4489.0,259.0,-189.0,-28.0,-346.0,200,104,103,134,108
2025-02-26 15:11:04.506,3457.0,-4990.0,-44.0,-149.0,35.0,-259.0,203,108,106,139,113
2025-02-26 15:11:04.513,2982.0,-5135.0,-399.0,-58.0,63.0,-175.0,199,103,104,133,107
2025-02-26 15:11:04.518,2546.0,-4929.0,-695.0,15.0,85.0,-102.0,197,102,102,133,107
2025-02-26 15:11:04.522,2435.0,-4516.0,-1143.0,111.0,87.0,-44.0,195,100,99,130,104
2025-02-26 15:11:04.530,2021.0,-3564.0,-1023.0,117.0,19.0,-2.0,196,101,105,129,103
2025-02-26 15:11:04.534,1651.0,-3377.0,-1037.0,144.0,42.0,21.0,195,99,99,131,105
2025-02-26 15:11:04.539,1547.0,-2862.0,-766.0,115.0,22.0,47.0,199,102,103,134,109
2025-02-26 15:11:04.547,1209.0,-2437.0,-748.0,67.0,15.0,62.0,206,109,111,141,114
2025-02-26 15:11:04.550,963.0,-2246.0,-875.0,26.0,41.0,74.0,200,106,106,136,111
2025-02-26 15:11:04.555,665.0,-2026.0,-627.0,0.0,4.0,81.0,196,101,101,131,108
2025-02-26 15:11:04.560,631.0,-2107.0,-546.0,-9.0,3.0,87.0,195,101,100,131,106
2025-02-26 15:11:04.566,626.0,-2043.0,-325.0,-5.0,0.0,91.0,203,108,107,138,114
2025-02-26 15:11:04.572,582.0,-2155.0,-383.0,23.0,-11.0,93.0,200,105,106,137,112
2025-02-26 15:11:04.576,628.0,-1932.0,-175.0,31.0,2.0,99.0,197,102,102,134,109
2025-02-26 15:11:04.583,581.0,-1939.0,-122.0,51.0,25.0,102.0,193,96,99,131,106
2025-02-26 15:11:04.587,637.0,-1890.0,-31.0,64.0,29.0,104.0,193,97,97,129,104
2025-02-26 15:11:04.592,525.0,-1958.0,0.0,68.0,45.0,112.0,197,101,104,134,109
2025-02-26 15:11:04.596,467.0,-1970.0,39.0,75.0,44.0,126.0,196,98,100,128,105
2025-02-26 15:11:04.601,428.0,-1801.0,82.0,62.0,41.0,144.0,191,96,97,130,104
2025-02-26 15:11:04.608,406.0,-1819.0,152.0,49.0,35.0,153.0,196,102,103,134,107
2025-02-26 15:11:04.611,474.0,-1736.0,155.0,32.0,49.0,169.0,195,101,104,136,109
2025-02-26 15:11:04.617,483.0,-1552.0,177.0,22.0,60.0,178.0,193,98,97,135,107
2025-02-26 15:11:04.624,452.0,-1483.0,130.0,-27.0,81.0,191.0,189,96,99,130,106
2025-02-26 15:11:04.627,468.0,-1417.0,160.0,-47.0,99.0,193.0,189,96,99,132,105
2025-02-26 15:11:04.633,328.0,-1363.0,148.0,-52.0,97.0,199.0,196,104,106,138,111
2025-02-26 15:11:04.641,430.0,-1342.0,212.0,-41.0,96.0,213.0,192,100,104,137,109
2025-02-26 15:11:04.645,365.0,-1377.0,181.0,-36.0,88.0,225.0,196,106,110,141,114
2025-02-26 15:11:04.649,315.0,-1175.0,110.0,-25.0,91.0,236.0,188,98,105,136,107
2025-02-26 15:11:04.657,295.0,-1208.0,60.0,-2.0,93.0,245.0,187,98,105,135,107
2025-02-26 15:11:04.661,309.0,-1279.0,27.0,9.0,94.0,255.0,191,101,108,140,111
2025-02-26 15:11:04.663,308.0,-1067.0,61.0,6.0,111.0,264.0,193,103,114,142,114
2025-02-26 15:11:04.669,314.0,-1029.0,47.0,6.0,113.0,280.0,188,98,109,138,107
2025-02-26 15:11:04.677,363.0,-820.0,100.0,19.0,131.0,283.0,188,99,106,134,106
2025-02-26 15:11:04.682,444.0,-813.0,152.0,17.0,142.0,296.0,190,104,112,138,111
2025-02-26 15:11:04.686,466.0,-779.0,175.0,31.0,134.0,310.0,192,107,114,139,112
2025-02-26 15:11:04.690,312.0,-740.0,179.0,25.0,119.0,317.0,190,105,112,138,112
2025-02-26 15:11:04.698,317.0,-847.0,123.0,66.0,118.0,330.0,184,101,106,135,107
2025-02-26 15:11:04.702,209.0,-842.0,-3.0,97.0,103.0,337.0,185,100,109,132,104
2025-02-26 15:11:04.705,290.0,-825.0,12.0,128.0,111.0,348.0,190,110,115,140,113
2025-02-26 15:11:04.714,398.0,-760.0,-2.0,156.0,119.0,358.0,189,111,115,139,111
2025-02-26 15:11:04.718,382.0,-708.0,37.0,167.0,131.0,365.0,185,109,113,136,106
2025-02-26 15:11:04.723,330.0,-492.0,99.0,177.0,136.0,369.0,185,109,115,135,104
2025-02-26 15:11:04.731,244.0,-402.0,103.0,189.0,149.0,369.0,187,112,116,138,108
2025-02-26 15:11:04.735,251.0,-356.0,125.0,200.0,165.0,378.0,188,117,118,141,111
2025-02-26 15:11:04.739,300.0,-231.0,211.0,210.0,181.0,379.0,186,118,120,140,109
2025-02-26 15:11:04.743,148.0,-288.0,13.0,218.0,190.0,384.0,190,123,124,144,112
2025-02-26 15:11:04.752,87.0,-196.0,21.0,212.0,195.0,392.0,184,119,118,139,105
2025-02-26 15:11:04.756,34.0,-191.0,-7.0,211.0,198.0,394.0,179,119,116,134,101
2025-02-26 15:11:04.760,-81.0,-83.0,-61.0,210.0,196.0,401.0,186,128,121,139,107
2025-02-26 15:11:04.768,-88.0,24.0,-123.0,199.0,199.0,400.0,188,131,125,143,111
2025-02-26 15:11:04.771,-80.0,188.0,-146.0,190.0,195.0,394.0,181,127,120,138,107
2025-02-26 15:11:04.777,-113.0,224.0,-108.0,168.0,192.0,384.0,182,127,120,136,104
2025-02-26 15:11:04.784,-119.0,244.0,-96.0,158.0,190.0,381.0,182,130,121,134,105
2025-02-26 15:11:04.789,-174.0,336.0,-104.0,163.0,190.0,367.0,186,136,130,140,110
2025-02-26 15:11:04.791,-315.0,384.0,-99.0,181.0,190.0,351.0,184,132,127,140,110
2025-02-26 15:11:04.801,-291.0,491.0,-263.0,211.0,188.0,332.0,184,135,127,140,111
2025-02-26 15:11:04.804,-399.0,569.0,-361.0,225.0,186.0,306.0,185,128,127,140,110
2025-02-26 15:11:04.809,-438.0,615.0,-495.0,256.0,184.0,277.0,181,134,124,135,108
2025-02-26 15:11:04.815,-577.0,1206.0,-1493.0,243.0,147.0,237.0,180,134,125,135,109
2025-02-26 15:11:04.821,-733.0,946.0,-645.0,257.0,145.0,221.0,176,132,124,136,106
2025-02-26 15:11:04.825,-950.0,1173.0,-739.0,242.0,120.0,191.0,187,140,130,141,114
2025-02-26 15:11:04.834,-833.0,1302.0,-736.0,229.0,100.0,157.0,184,140,130,140,112
2025-02-26 15:11:04.837,-882.0,1283.0,-720.0,218.0,82.0,125.0,181,138,129,138,110
2025-02-26 15:11:04.842,-835.0,1483.0,-805.0,220.0,67.0,89.0,181,138,130,138,111
2025-02-26 15:11:04.849,-991.0,1720.0,-1038.0,205.0,39.0,45.0,183,139,127,136,109
2025-02-26 15:11:04.851,-1023.0,1985.0,-1241.0,175.0,18.0,-11.0,180,137,129,136,109
2025-02-26 15:11:04.861,-1211.0,1990.0,-1405.0,144.0,-30.0,-77.0,180,138,127,135,108
2025-02-26 15:11:04.863,-1291.0,2083.0,-1559.0,118.0,-89.0,-117.0,185,142,132,138,111
2025-02-26 15:11:04.868,-1465.0,2104.0,-1703.0,102.0,-154.0,-202.0,180,138,128,137,107
2025-02-26 15:11:04.878,-1487.0,2156.0,-1652.0,93.0,-225.0,-291.0,181,141,130,134,104
2025-02-26 15:11:04.880,-1505.0,2117.0,-1585.0,80.0,-297.0,-378.0,179,140,129,137,105
2025-02-26 15:11:04.891,-1338.0,2004.0,-1504.0,72.0,-368.0,-459.0,181,145,134,139,107
2025-02-26 15:11:04.892,-1088.0,1860.0,-1372.0,65.0,-433.0,-535.0,183,145,136,139,108
2025-02-26 15:11:04.899,-846.0,1809.0,-1140.0,55.0,-500.0,-609.0,182,150,138,142,109
2025-02-26 15:11:04.907,-649.0,1690.0,-983.0,32.0,-575.0,-684.0,189,157,142,146,113
2025-02-26 15:11:04.911,-343.0,1558.0,-935.0,-11.0,-656.0,-754.0,186,156,143,146,112
2025-02-26 15:11:04.919,173.0,1402.0,-714.0,-65.0,-730.0,-815.0,183,158,143,147,111
2025-02-26 15:11:04.924,916.0,1325.0,-531.0,-122.0,-796.0,-861.0,181,159,145,148,114
2025-02-26 15:11:04.928,1996.0,1028.0,-270.0,-161.0,-830.0,-890.0,182,161,146,147,114
2025-02-26 15:11:04.936,2615.0,375.0,69.0,-216.0,-852.0,-902.0,179,162,146,148,114
2025-02-26 15:11:04.940,3008.0,-159.0,150.0,-248.0,-875.0,-883.0,178,162,147,149,114
2025-02-26 15:11:04.948,3479.0,-858.0,17.0,-298.0,-894.0,-819.0,177,161,145,146,115
2025-02-26 15:11:04.952,3636.0,-1516.0,-20.0,-363.0,-886.0,-731.0,175,162,144,146,112
2025-02-26 15:11:04.957,3828.0,-2661.0,-105.0,-405.0,-849.0,-577.0,172,160,142,142,110
2025-02-26 15:11:04.965,3841.0,-3760.0,-4.0,-420.0,-772.0,-393.0,171,164,143,144,111
2025-02-26 15:11:04.968,4153.0,-4391.0,-43.0,-383.0,-652.0,-235.0,172,163,145,145,109
2025-02-26 15:11:04.977,4424.0,-5131.0,-53.0,-318.0,-518.0,-63.0,171,162,145,143,109
2025-02-26 15:11:04.981,4651.0,-5232.0,160.0,-219.0,-361.0,81.0,171,163,144,144,110
2025-02-26 15:11:04.985,4585.0,-5194.0,200.0,-97.0,-202.0,134.0,174,165,145,144,109
2025-02-26 15:11:04.993,4186.0,-4624.0,328.0,18.0,-61.0,195.0,177,170,150,148,114
2025-02-26 15:11:04.998,3554.0,-3884.0,536.0,134.0,67.0,207.0,194,176,157,156,120
2025-02-26 15:11:05.005,2741.0,-3238.0,745.0,224.0,177.0,202.0,206,197,178,171,138
2025-02-26 15:11:05.010,2036.0,-2621.0,747.0,252.0,252.0,183.0,200,192,172,167,132
2025-02-26 15:11:05.014,1342.0,-2158.0,561.0,287.0,280.0,170.0,205,196,176,173,136
2025-02-26 15:11:05.022,750.0,-1717.0,225.0,271.0,280.0,165.0,184,170,154,151,110
2025-02-26 15:11:05.026,715.0,-1396.0,5.0,227.0,250.0,166.0,184,171,155,152,112
2025-02-26 15:11:05.030,323.0,-1309.0,33.0,158.0,209.0,172.0,187,175,160,154,114
2025-02-26 15:11:05.035,181.0,-1265.0,63.0,85.0,161.0,190.0,185,174,159,156,115
2025-02-26 15:11:05.043,127.0,-1158.0,152.0,16.0,119.0,214.0,187,177,158,156,116
2025-02-26 15:11:05.047,121.0,-1143.0,169.0,-12.0,84.0,235.0,188,176,157,155,118
2025-02-26 15:11:05.051,146.0,-1267.0,240.0,-44.0,69.0,251.0,184,173,154,151,116
2025-02-26 15:11:05.058,135.0,-1304.0,237.0,-54.0,48.0,256.0,184,172,156,149,117
2025-02-26 15:11:05.063,187.0,-1423.0,235.0,-43.0,33.0,264.0,189,176,156,152,122
2025-02-26 15:11:05.067,286.0,-1473.0,274.0,-19.0,31.0,261.0,188,176,154,154,123
2025-02-26 15:11:05.075,323.0,-1397.0,348.0,-11.0,39.0,257.0,186,176,156,152,122
2025-02-26 15:11:05.080,278.0,-1312.0,463.0,15.0,57.0,255.0,184,172,153,147,117
2025-02-26 15:11:05.084,281.0,-1159.0,418.0,34.0,67.0,252.0,185,174,156,149,121
2025-02-26 15:11:05.091,271.0,-1180.0,530.0,48.0,85.0,247.0,187,178,157,152,122
2025-02-26 15:11:05.096,204.0,-1146.0,441.0,62.0,107.0,247.0,186,176,158,153,123
2025-02-26 15:11:05.099,217.0,-1077.0,501.0,69.0,123.0,248.0,186,177,158,153,124
2025-02-26 15:11:05.108,244.0,-1054.0,510.0,74.0,142.0,254.0,187,178,160,154,125
2025-02-26 15:11:05.111,229.0,-957.0,400.0,84.0,147.0,264.0,184,172,155,148,122
2025-02-26 15:11:05.116,155.0,-918.0,370.0,85.0,156.0,272.0,180,171,152,145,118
2025-02-26 15:11:05.121,186.0,-847.0,435.0,81.0,161.0,280.0,186,179,160,152,125
2025-02-26 15:11:05.128,48.0,-685.0,401.0,68.0,161.0,292.0,200,187,174,163,136
2025-02-26 15:11:05.133,-67.0,-569.0,333.0,57.0,152.0,301.0,195,186,168,160,134
2025-02-26 15:11:05.137,82.0,-314.0,331.0,23.0,149.0,309.0,191,181,164,156,129
2025-02-26 15:11:05.144,-96.0,-411.0,336.0,-6.0,139.0,311.0,195,186,166,159,133
2025-02-26 15:11:05.149,-108.0,-228.0,315.0,-24.0,129.0,312.0,201,187,169,165,136
2025-02-26 15:11:05.153,-164.0,-235.0,311.0,-34.0,121.0,310.0,200,188,170,161,133
2025-02-26 15:11:05.160,-176.0,-325.0,357.0,-30.0,114.0,308.0,195,183,167,158,130
2025-02-26 15:11:05.166,-123.0,-90.0,234.0,-36.0,110.0,299.0,197,186,170,161,132
2025-02-26 15:11:05.170,-211.0,-225.0,342.0,-32.0,110.0,290.0,194,180,165,156,127
2025-02-26 15:11:05.177,-214.0,-223.0,374.0,-27.0,118.0,286.0,191,178,163,154,125
2025-02-26 15:11:05.182,-145.0,-224.0,299.0,-24.0,130.0,279.0,196,185,169,160,132
2025-02-26 15:11:05.186,-80.0,-192.0,350.0,-25.0,149.0,273.0,197,185,169,161,134
2025-02-26 15:11:05.194,-107.0,-184.0,338.0,-14.0,165.0,264.0,199,183,169,159,130
2025-02-26 15:11:05.198,-241.0,-227.0,372.0,8.0,177.0,257.0,195,182,160,154,129
2025-02-26 15:11:05.202,-294.0,-308.0,280.0,36.0,178.0,250.0,194,177,164,153,127
2025-02-26 15:11:05.210,-365.0,-312.0,185.0,69.0,184.0,248.0,194,179,162,152,126
2025-02-26 15:11:05.214,-396.0,-224.0,98.0,114.0,183.0,242.0,198,184,168,157,132
2025-02-26 15:11:05.219,-437.0,-179.0,41.0,149.0,181.0,236.0,199,182,169,157,131
2025-02-26 15:11:05.222,-450.0,-75.0,-25.0,163.0,174.0,230.0,199,186,172,159,133
2025-02-26 15:11:05.231,-540.0,33.0,-99.0,180.0,169.0,224.0,190,175,159,149,123
2025-02-26 15:11:05.235,-574.0,130.0,-124.0,204.0,159.0,212.0,186,173,157,147,120
2025-02-26 15:11:05.239,-521.0,284.0,-92.0,217.0,158.0,203.0,189,174,157,147,121
2025-02-26 15:11:05.247,-556.0,539.0,-86.0,213.0,154.0,187.0,197,182,164,153,129
2025-02-26 15:11:05.251,-695.0,718.0,-84.0,198.0,142.0,166.0,197,182,166,155,129
2025-02-26 15:11:05.256,-757.0,854.0,-148.0,194.0,134.0,145.0,194,183,168,159,129
2025-02-26 15:11:05.264,-812.0,977.0,-232.0,173.0,126.0,120.0,194,181,167,155,129
2025-02-26 15:11:05.268,-862.0,1020.0,-306.0,161.0,109.0,94.0,191,177,161,149,124
2025-02-26 15:11:05.273,-895.0,1062.0,-412.0,156.0,92.0,80.0,187,174,158,147,121
2025-02-26 15:11:05.280,-968.0,1217.0,-548.0,145.0,67.0,49.0,190,174,160,150,124
2025-02-26 15:11:05.284,-1067.0,1412.0,-601.0,134.0,35.0,14.0,193,179,164,154,127
2025-02-26 15:11:05.289,-1175.0,1641.0,-750.0,132.0,-4.0,-31.0,188,174,158,147,124
2025-02-26 15:11:05.294,-1333.0,1946.0,-937.0,124.0,-53.0,-89.0,187,174,158,148,121
2025-02-26 15:11:05.300,-1486.0,2247.0,-1060.0,111.0,-83.0,-163.0,184,172,154,144,119
2025-02-26 15:11:05.307,-1525.0,2392.0,-1150.0,93.0,-146.0,-249.0,187,173,156,145,121
2025-02-26 15:11:05.313,-1578.0,2438.0,-1232.0,72.0,-215.0,-346.0,186,172,156,142,119
2025-02-26 15:11:05.321,-1476.0,2506.0,-1128.0,51.0,-281.0,-450.0,184,170,154,142,118
2025-02-26 15:11:05.325,-1297.0,2553.0,-939.0,25.0,-345.0,-555.0,190,174,160,145,120
2025-02-26 15:11:05.329,-1069.0,2532.0,-839.0,-19.0,-416.0,-658.0,183,170,154,141,116
2025-02-26 15:11:05.337,-720.0,2420.0,-757.0,-81.0,-494.0,-752.0,183,171,154,140,114
2025-02-26 15:11:05.342,-302.0,2344.0,-573.0,-159.0,-571.0,-793.0,182,169,155,141,116
2025-02-26 15:11:05.349,288.0,2312.0,-469.0,-255.0,-634.0,-861.0,176,171,153,135,115
2025-02-26 15:11:05.353,1018.0,2182.0,-407.0,-354.0,-685.0,-919.0,182,172,153,139,115
2025-02-26 15:11:05.358,1918.0,1549.0,-39.0,-439.0,-715.0,-961.0,181,174,153,140,118
2025-02-26 15:11:05.366,2784.0,808.0,-35.0,-451.0,-731.0,-995.0,186,180,163,145,124
2025-02-26 15:11:05.371,3442.0,-137.0,-329.0,-423.0,-718.0,-977.0,182,178,156,143,121
2025-02-26 15:11:05.377,4036.0,-1387.0,-282.0,-349.0,-671.0,-889.0,180,176,156,143,120
2025-02-26 15:11:05.383,4048.0,-2789.0,-363.0,-241.0,-609.0,-748.0,179,176,155,142,120
2025-02-26 15:11:05.390,3663.0,-3476.0,-666.0,-223.0,-530.0,-548.0,179,178,162,144,120
2025-02-26 15:11:05.394,4433.0,-4464.0,-574.0,-192.0,-422.0,-337.0,179,177,157,144,118
2025-02-26 15:11:05.398,4565.0,-5406.0,-779.0,-134.0,-307.0,-136.0,179,173,154,146,119
2025-02-26 15:11:05.407,4945.0,-5200.0,-288.0,-77.0,-168.0,27.0,182,178,155,147,121
2025-02-26 15:11:05.411,4637.0,-4705.0,191.0,-10.0,-33.0,130.0,181,176,155,146,119
2025-02-26 15:11:05.414,3972.0,-4001.0,417.0,27.0,78.0,160.0,180,176,155,144,119
2025-02-26 15:11:05.423,3304.0,-3428.0,539.0,113.0,163.0,142.0,190,188,164,157,127
2025-02-26 15:11:05.427,2755.0,-2813.0,500.0,191.0,199.0,97.0,164,159,138,129,96
2025-02-26 15:11:05.431,1991.0,-2037.0,249.0,224.0,232.0,61.0,163,160,138,128,96
2025-02-26 15:11:05.439,1252.0,-1893.0,126.0,210.0,227.0,47.0,166,161,135,129,95
2025-02-26 15:11:05.443,739.0,-1492.0,-14.0,158.0,198.0,37.0,170,163,143,134,99
2025-02-26 15:11:05.446,448.0,-1434.0,-18.0,123.0,159.0,50.0,165,161,140,131,94
2025-02-26 15:11:05.456,389.0,-1641.0,-73.0,57.0,118.0,81.0,161,158,136,129,92
2025-02-26 15:11:05.460,354.0,-1775.0,-107.0,9.0,96.0,115.0,160,157,134,125,91
2025-02-26 15:11:05.464,325.0,-1782.0,-129.0,-26.0,59.0,132.0,169,165,142,132,99
2025-02-26 15:11:05.472,394.0,-1795.0,-103.0,-39.0,28.0,156.0,166,161,139,132,100
2025-02-26 15:11:05.477,354.0,-1741.0,34.0,-37.0,9.0,170.0,164,160,139,132,101
2025-02-26 15:11:05.481,308.0,-1829.0,249.0,-24.0,0.0,176.0,161,157,134,126,93
2025-02-26 15:11:05.485,315.0,-1639.0,338.0,-5.0,1.0,171.0,163,157,137,127,100
2025-02-26 15:11:05.492,357.0,-1604.0,368.0,5.0,4.0,172.0,166,161,138,133,103
2025-02-26 15:11:05.497,323.0,-1514.0,450.0,13.0,22.0,173.0,165,160,136,130,103
2025-02-26 15:11:05.502,369.0,-1507.0,586.0,16.0,42.0,176.0,164,159,136,130,103
2025-02-26 15:11:05.509,315.0,-1414.0,595.0,15.0,56.0,182.0,159,155,135,125,102
2025-02-26 15:11:05.513,445.0,-1395.0,621.0,6.0,81.0,191.0,159,153,133,127,101
2025-02-26 15:11:05.517,430.0,-1463.0,603.0,10.0,105.0,202.0,166,157,136,131,105
2025-02-26 15:11:05.521,519.0,-1421.0,574.0,5.0,124.0,218.0,164,157,136,130,108
2025-02-26 15:11:05.530,531.0,-1393.0,554.0,7.0,135.0,233.0,165,155,135,130,108
2025-02-26 15:11:05.534,519.0,-1390.0,465.0,8.0,140.0,252.0,161,153,131,126,105
2025-02-26 15:11:05.537,419.0,-1373.0,373.0,6.0,140.0,262.0,160,151,131,126,105
2025-02-26 15:11:05.546,334.0,-1226.0,405.0,0.0,141.0,278.0,167,159,137,134,111
2025-02-26 15:11:05.550,284.0,-1099.0,409.0,-8.0,139.0,293.0,165,156,134,131,108
2025-02-26 15:11:05.554,304.0,-928.0,430.0,-15.0,138.0,305.0,163,153,132,130,106
2025-02-26 15:11:05.562,275.0,-843.0,453.0,-40.0,137.0,319.0,162,150,127,128,104
2025-02-26 15:11:05.566,128.0,-710.0,482.0,-57.0,137.0,325.0,163,151,130,129,105
2025-02-26 15:11:05.571,98.0,-619.0,445.0,-87.0,133.0,338.0,167,150,131,133,107
2025-02-26 15:11:05.578,92.0,-548.0,436.0,-108.0,131.0,346.0,166,150,129,128,106
2025-02-26 15:11:05.583,29.0,-616.0,358.0,-119.0,131.0,360.0,166,145,127,130,104
2025-02-26 15:11:05.588,-29.0,-470.0,404.0,-139.0,126.0,362.0,165,142,129,128,104
2025-02-26 15:11:05.595,-33.0,-395.0,413.0,-153.0,126.0,365.0,165,140,122,125,101
2025-02-26 15:11:05.599,65.0,-448.0,420.0,-151.0,132.0,362.0,163,136,119,126,105
2025-02-26 15:11:05.603,5.0,-481.0,431.0,-149.0,151.0,367.0,170,140,125,132,107
2025-02-26 15:11:05.608,14.0,-499.0,606.0,-151.0,170.0,371.0,168,133,120,129,105
2025-02-26 15:11:05.616,-47.0,-529.0,377.0,-145.0,173.0,372.0,168,127,115,125,104
2025-02-26 15:11:05.620,-63.0,-616.0,447.0,-141.0,175.0,374.0,164,120,110,125,103
2025-02-26 15:11:05.624,-77.0,-677.0,263.0,-111.0,173.0,381.0,167,117,108,125,104
2025-02-26 15:11:05.631,-59.0,-683.0,174.0,-68.0,166.0,388.0,167,112,107,126,103
2025-02-26 15:11:05.637,12.0,-566.0,160.0,-32.0,163.0,397.0,169,111,106,128,107
2025-02-26 15:11:05.640,-47.0,-492.0,225.0,11.0,169.0,404.0,170,108,103,128,105
2025-02-26 15:11:05.649,-232.0,-426.0,290.0,36.0,174.0,398.0,167,102,105,129,104
2025-02-26 15:11:05.653,-268.0,-336.0,374.0,82.0,181.0,385.0,166,98,96,126,102
2025-02-26 15:11:05.657,-250.0,-243.0,279.0,125.0,199.0,359.0,167,94,95,125,102
2025-02-26 15:11:05.664,-99.0,-200.0,23.0,181.0,211.0,339.0,170,95,95,127,104
2025-02-26 15:11:05.669,-250.0,-39.0,21.0,232.0,222.0,307.0,171,91,95,128,103
2025-02-26 15:11:05.673,-479.0,92.0,-34.0,253.0,231.0,282.0,169,87,89,125,101
2025-02-26 15:11:05.677,-655.0,311.0,-93.0,294.0,232.0,262.0,168,86,87,120,100
2025-02-26 15:11:05.685,-506.0,551.0,-344.0,322.0,225.0,250.0,172,89,92,130,106
2025-02-26 15:11:05.689,-704.0,814.0,-329.0,306.0,206.0,221.0,170,85,86,128,103
2025-02-26 15:11:05.693,-749.0,1352.0,-424.0,292.0,177.0,188.0,169,82,83,125,101
2025-02-26 15:11:05.700,-794.0,1599.0,-468.0,262.0,154.0,149.0,166,81,82,124,99
2025-02-26 15:11:05.705,-904.0,2121.0,-420.0,231.0,124.0,93.0,167,83,82,126,100
2025-02-26 15:11:05.710,-1192.0,2361.0,-440.0,204.0,98.0,59.0,169,84,84,123,99
2025-02-26 15:11:05.714,-1182.0,2521.0,-531.0,185.0,44.0,-15.0,168,81,81,117,95
2025-02-26 15:11:05.721,-1007.0,2726.0,-744.0,179.0,-5.0,-91.0,166,82,79,117,94
2025-02-26 15:11:05.726,-915.0,2710.0,-1086.0,156.0,-24.0,-166.0,167,79,76,118,90
2025-02-26 15:11:05.731,-901.0,2727.0,-1221.0,148.0,-48.0,-244.0,167,78,80,117,87
2025-02-26 15:11:05.739,-806.0,2684.0,-1377.0,138.0,-78.0,-284.0,167,77,79,115,83
2025-02-26 15:11:05.747,-734.0,2736.0,-1317.0,115.0,-94.0,-355.0,168,80,79,115,87
2025-02-26 15:11:05.749,-750.0,2443.0,-1285.0,85.0,-110.0,-413.0,170,79,83,114,88
2025-02-26 15:11:05.755,-899.0,2060.0,-1146.0,70.0,-163.0,-467.0,168,78,80,113,87
2025-02-26 15:11:05.759,-1039.0,1814.0,-1079.0,49.0,-235.0,-520.0,168,77,80,112,85
2025-02-26 15:11:05.764,-1026.0,1569.0,-1204.0,31.0,-273.0,-572.0,170,81,80,113,87
2025-02-26 15:11:05.771,-809.0,1629.0,-1363.0,19.0,-354.0,-624.0,168,75,76,110,79
2025-02-26 15:11:05.775,-349.0,1699.0,-1433.0,-10.0,-431.0,-650.0,167,75,75,109,81
2025-02-26 15:11:05.780,66.0,1816.0,-1385.0,-60.0,-505.0,-711.0,173,79,79,113,87
2025-02-26 15:11:05.788,666.0,1951.0,-1328.0,-149.0,-592.0,-771.0,173,81,80,115,88
2025-02-26 15:11:05.792,1358.0,1809.0,-1483.0,-262.0,-705.0,-816.0,173,78,81,117,90
2025-02-26 15:11:05.799,2367.0,1311.0,-1705.0,-325.0,-806.0,-814.0,176,75,76,111,88
2025-02-26 15:11:05.804,3615.0,428.0,-1544.0,-449.0,-857.0,-774.0,179,83,85,120,93
2025-02-26 15:11:05.809,4699.0,-709.0,-878.0,-570.0,-850.0,-714.0,174,78,79,114,90
2025-02-26 15:11:05.816,5284.0,-2160.0,72.0,-661.0,-771.0,-618.0,174,76,80,113,88
2025-02-26 15:11:05.821,5540.0,-4038.0,677.0,-728.0,-621.0,-566.0,175,79,77,114,88
2025-02-26 15:11:05.825,5429.0,-4991.0,816.0,-677.0,-421.0,-435.0,177,85,83,117,91
2025-02-26 15:11:05.833,5017.0,-6399.0,703.0,-545.0,-206.0,-277.0,177,80,81,115,92
2025-02-26 15:11:05.837,4565.0,-7074.0,649.0,-324.0,-4.0,-159.0,173,77,80,116,91
2025-02-26 15:11:05.842,3963.0,-6960.0,618.0,-222.0,139.0,-83.0,175,77,76,114,89
2025-02-26 15:11:05.849,3060.0,-6595.0,137.0,-5.0,237.0,-30.0,174,78,74,112,88
2025-02-26 15:11:05.854,2424.0,-5897.0,-1272.0,237.0,269.0,21.0,173,75,72,108,85
2025-02-26 15:11:05.858,1850.0,-5146.0,-1393.0,333.0,246.0,39.0,173,75,73,111,87
2025-02-26 15:11:05.865,1007.0,-3932.0,-1605.0,412.0,233.0,87.0,178,81,81,115,91
2025-02-26 15:11:05.869,821.0,-2617.0,-1558.0,404.0,182.0,119.0,176,79,80,114,90
2025-02-26 15:11:05.874,419.0,-1736.0,-1305.0,368.0,125.0,129.0,174,77,79,114,89
2025-02-26 15:11:05.881,561.0,-888.0,-1262.0,207.0,153.0,126.0,171,75,76,110,86
2025-02-26 15:11:05.886,109.0,-893.0,-1015.0,132.0,82.0,127.0,174,76,76,111,87
2025-02-26 15:11:05.890,176.0,-834.0,-1022.0,17.0,25.0,114.0,176,80,82,114,90
2025-02-26 15:11:05.894,-147.0,-1218.0,-917.0,-20.0,-23.0,117.0,173,77,79,113,88
2025-02-26 15:11:05.900,97.0,-1426.0,-718.0,-34.0,-92.0,107.0,172,76,76,111,87
2025-02-26 15:11:05.906,110.0,-1752.0,-409.0,-44.0,-92.0,103.0,171,75,71,110,88
2025-02-26 15:11:05.910,429.0,-1797.0,135.0,-60.0,-68.0,103.0,172,76,76,113,87
2025-02-26 15:11:05.919,464.0,-1868.0,113.0,-22.0,-58.0,108.0,174,76,79,113,87
2025-02-26 15:11:05.923,501.0,-2072.0,313.0,-3.0,-38.0,120.0,172,78,76,111,86
2025-02-26 15:11:05.927,520.0,-2230.0,583.0,17.0,-35.0,144.0,172,77,76,113,84
2025-02-26 15:11:05.931,774.0,-2298.0,598.0,37.0,-6.0,156.0,174,76,78,109,87
2025-02-26 15:11:05.937,583.0,-2123.0,613.0,60.0,10.0,175.0,174,77,79,112,87
2025-02-26 15:11:05.943,565.0,-1862.0,678.0,66.0,37.0,185.0,172,76,79,112,87
2025-02-26 15:11:05.948,588.0,-1623.0,629.0,78.0,54.0,193.0,172,78,79,111,86
2025-02-26 15:11:05.952,429.0,-1593.0,449.0,83.0,74.0,199.0,175,79,80,113,87
2025-02-26 15:11:05.955,376.0,-1345.0,431.0,73.0,82.0,205.0,173,79,80,113,87
2025-02-26 15:11:05.963,339.0,-1097.0,269.0,57.0,82.0,208.0,172,75,77,113,87
2025-02-26 15:11:05.967,236.0,-996.0,190.0,34.0,87.0,210.0,173,78,79,113,87
2025-02-26 15:11:05.972,74.0,-862.0,160.0,15.0,79.0,211.0,173,78,77,113,87
2025-02-26 15:11:05.976,68.0,-689.0,201.0,2.0,66.0,205.0,171,77,74,110,85
2025-02-26 15:11:05.981,-37.0,-549.0,28.0,-14.0,55.0,205.0,172,74,73,108,84
2025-02-26 15:11:05.988,-171.0,-406.0,51.0,-22.0,29.0,193.0,175,79,76,113,87
2025-02-26 15:11:05.992,-150.0,-441.0,132.0,-29.0,16.0,177.0,171,74,72,109,85
2025-02-26 15:11:05.997,-146.0,-440.0,176.0,-38.0,7.0,169.0,169,74,72,109,81
2025-02-26 15:11:06.001,-85.0,-514.0,199.0,-43.0,11.0,161.0,173,78,76,112,87
2025-02-26 15:11:06.009,-10.0,-616.0,285.0,-45.0,20.0,161.0,173,78,75,111,86
2025-02-26 15:11:06.013,-13.0,-616.0,362.0,-42.0,26.0,167.0,170,73,72,109,83
2025-02-26 15:11:06.017,-29.0,-641.0,371.0,-47.0,46.0,170.0,174,77,78,112,86
2025-02-26 15:11:06.022,-17.0,-684.0,399.0,-37.0,54.0,174.0,174,77,77,111,86
2025-02-26 15:11:06.029,-18.0,-738.0,435.0,-33.0,58.0,176.0,172,77,76,109,84
2025-02-26 15:11:06.034,-20.0,-750.0,296.0,-8.0,80.0,177.0,172,73,73,109,83
2025-02-26 15:11:06.038,-74.0,-692.0,325.0,13.0,80.0,180.0,172,76,77,111,87
2025-02-26 15:11:06.042,-88.0,-699.0,291.0,32.0,83.0,179.0,171,75,75,110,85
2025-02-26 15:11:06.046,-45.0,-665.0,359.0,54.0,84.0,179.0,171,75,75,110,84
2025-02-26 15:11:06.052,-27.0,-604.0,346.0,58.0,94.0,180.0,174,77,77,112,85
2025-02-26 15:11:06.058,-3.0,-613.0,249.0,79.0,104.0,184.0,174,77,78,111,84
2025-02-26 15:11:06.062,-11.0,-450.0,326.0,83.0,110.0,189.0,171,75,74,109,84
2025-02-26 15:11:06.067,-26.0,-403.0,325.0,75.0,126.0,197.0,173,79,78,112,87
2025-02-26 15:11:06.075,-84.0,-358.0,301.0,75.0,133.0,196.0,171,75,76,111,85
2025-02-26 15:11:06.079,-112.0,-281.0,271.0,78.0,134.0,189.0,170,74,74,108,83
2025-02-26 15:11:06.082,-134.0,-292.0,174.0,87.0,141.0,184.0,173,77,77,112,85
2025-02-26 15:11:06.087,-171.0,-209.0,189.0,96.0,143.0,177.0,171,77,78,112,86
2025-02-26 15:11:06.094,-233.0,-175.0,176.0,99.0,131.0,173.0,176,77,76,110,86
2025-02-26 15:11:06.099,-261.0,-39.0,126.0,108.0,126.0,170.0,169,74,73,109,83
2025-02-26 15:11:06.103,-317.0,20.0,107.0,102.0,117.0,167.0,173,79,77,115,87
2025-02-26 15:11:06.108,-365.0,167.0,133.0,90.0,108.0,159.0,172,77,77,112,85
2025-02-26 15:11:06.115,-420.0,329.0,146.0,81.0,107.0,146.0,169,73,74,109,83
2025-02-26 15:11:06.120,-454.0,401.0,155.0,75.0,102.0,137.0,169,73,75,109,83
2025-02-26 15:11:06.124,-555.0,527.0,156.0,73.0,95.0,115.0,173,80,79,113,88
2025-02-26 15:11:06.128,-628.0,623.0,150.0,76.0,85.0,90.0,172,77,75,111,85
2025-02-26 15:11:06.133,-667.0,690.0,138.0,85.0,82.0,70.0,169,71,74,109,82
2025-02-26 15:11:06.140,-733.0,705.0,145.0,96.0,75.0,62.0,171,76,78,115,84
2025-02-26 15:11:06.144,-773.0,794.0,148.0,103.0,73.0,47.0,175,79,79,114,87
2025-02-26 15:11:06.149,-817.0,854.0,174.0,121.0,74.0,30.0,170,74,75,110,82
2025-02-26 15:11:06.153,-907.0,875.0,37.0,141.0,87.0,20.0,173,77,77,110,85
2025-02-26 15:11:06.157,-1057.0,1001.0,0.0,156.0,85.0,-7.0,172,77,76,109,83
2025-02-26 15:11:06.165,-1154.0,1296.0,-134.0,178.0,87.0,-40.0,171,76,77,111,84
2025-02-26 15:11:06.168,-1296.0,1430.0,-357.0,197.0,81.0,-63.0,171,78,78,111,86
2025-02-26 15:11:06.173,-1508.0,1799.0,-481.0,201.0,59.0,-115.0,171,77,76,111,85
2025-02-26 15:11:06.181,-1719.0,2096.0,-733.0,198.0,22.0,-175.0,169,75,76,109,82
2025-02-26 15:11:06.184,-1840.0,2286.0,-982.0,177.0,-32.0,-236.0,171,77,77,111,84
2025-02-26 15:11:06.189,-1893.0,2364.0,-1211.0,151.0,-65.0,-300.0,169,75,75,109,84
2025-02-26 15:11:06.197,-1884.0,2414.0,-1233.0,118.0,-139.0,-336.0,167,74,72,108,84
2025-02-26 15:11:06.201,-1728.0,2431.0,-1232.0,75.0,-225.0,-412.0,165,74,77,107,81
2025-02-26 15:11:06.206,-1381.0,2354.0,-1319.0,18.0,-308.0,-495.0,170,77,77,112,87
2025-02-26 15:11:06.214,-947.0,2161.0,-1252.0,-47.0,-398.0,-569.0,169,78,77,111,86
2025-02-26 15:11:06.218,-335.0,2029.0,-1357.0,-130.0,-500.0,-632.0,171,76,75,110,85
2025-02-26 15:11:06.226,442.0,1981.0,-1535.0,-176.0,-612.0,-670.0,172,80,78,112,87
2025-02-26 15:11:06.231,1482.0,1650.0,-1524.0,-296.0,-706.0,-682.0,170,77,76,111,87
2025-02-26 15:11:06.235,2626.0,1016.0,-1306.0,-445.0,-771.0,-674.0,170,75,74,109,85
2025-02-26 15:11:06.242,3226.0,-282.0,-1033.0,-602.0,-785.0,-628.0,171,76,74,109,84
2025-02-26 15:11:06.245,4181.0,-2166.0,-722.0,-716.0,-765.0,-542.0,170,75,70,109,85
2025-02-26 15:11:06.251,4811.0,-4397.0,-185.0,-745.0,-659.0,-480.0,173,76,73,108,86
2025-02-26 15:11:06.257,5197.0,-5308.0,416.0,-687.0,-486.0,-345.0,169,73,71,108,86
2025-02-26 15:11:06.263,5403.0,-6698.0,967.0,-542.0,-246.0,-221.0,174,80,78,112,90
2025-02-26 15:11:06.269,5353.0,-7528.0,1167.0,-315.0,-17.0,-115.0,173,78,74,111,89
2025-02-26 15:11:06.275,4854.0,-7519.0,886.0,-31.0,171.0,-43.0,182,88,84,122,99
2025-02-26 15:11:06.279,4036.0,-6819.0,-15.0,69.0,316.0,8.0,210,120,116,147,130
2025-02-26 15:11:06.287,3103.0,-5241.0,-1113.0,316.0,317.0,34.0,206,112,110,146,124
2025-02-26 15:11:06.291,2262.0,-4819.0,-1441.0,415.0,366.0,83.0,166,68,68,103,82
2025-02-26 15:11:06.296,1668.0,-4049.0,-1691.0,548.0,343.0,97.0,160,62,61,102,76
2025-02-26 15:11:06.303,644.0,-2296.0,-1444.0,407.0,247.0,115.0,162,65,63,101,78
2025-02-26 15:11:06.308,566.0,-1216.0,-1449.0,243.0,266.0,141.0,162,66,65,103,78
2025-02-26 15:11:06.312,151.0,-779.0,-1619.0,200.0,152.0,135.0,161,66,64,102,80
2025-02-26 15:11:06.317,7.0,-282.0,-1332.0,46.0,132.0,117.0,166,70,68,105,83
2025-02-26 15:11:06.325,-133.0,-446.0,-929.0,-64.0,117.0,116.0,166,69,70,107,84
2025-02-26 15:11:06.329,-162.0,-988.0,-1177.0,-60.0,-50.0,95.0,165,71,70,108,86
2025-02-26 15:11:06.330,19.0,-1484.0,-973.0,-56.0,-82.0,89.0,167,73,70,107,84
2025-02-26 15:11:06.341,227.0,-1376.0,-627.0,-103.0,-69.0,77.0,163,69,67,104,81
2025-02-26 15:11:06.345,274.0,-2047.0,-404.0,-57.0,-85.0,77.0,166,70,69,105,84
2025-02-26 15:11:06.349,409.0,-2021.0,-124.0,-8.0,-79.0,77.0,166,74,71,107,84
2025-02-26 15:11:06.354,661.0,-2151.0,135.0,30.0,-65.0,101.0,166,72,69,106,84
2025-02-26 15:11:06.361,654.0,-2351.0,302.0,55.0,-62.0,122.0,164,71,69,104,82
2025-02-26 15:11:06.365,678.0,-2150.0,627.0,84.0,-46.0,134.0,166,71,71,104,84
2025-02-26 15:11:06.370,743.0,-2054.0,677.0,104.0,9.0,153.0,167,72,73,105,85
2025-02-26 15:11:06.373,867.0,-1972.0,750.0,107.0,65.0,162.0,175,82,82,115,94
2025-02-26 15:11:06.381,865.0,-1768.0,597.0,101.0,111.0,174.0,171,79,79,113,91
2025-02-26 15:11:06.385,778.0,-1844.0,522.0,104.0,143.0,177.0,163,75,73,107,85
2025-02-26 15:11:06.390,632.0,-1398.0,612.0,56.0,182.0,188.0,165,77,75,108,86
2025-02-26 15:11:06.394,716.0,-1413.0,531.0,36.0,207.0,206.0,166,71,73,106,80
2025-02-26 15:11:06.402,425.0,-1179.0,302.0,28.0,231.0,219.0,165,76,71,103,82
2025-02-26 15:11:06.406,407.0,-1192.0,236.0,35.0,232.0,222.0,157,76,72,97,84
2025-02-26 15:11:06.410,392.0,-1192.0,150.0,45.0,209.0,233.0,164,76,75,106,85
2025-02-26 15:11:06.415,209.0,-810.0,41.0,43.0,202.0,232.0,165,76,75,99,83
2025-02-26 15:11:06.422,101.0,-951.0,-71.0,35.0,189.0,247.0,164,75,75,102,81
2025-02-26 15:11:06.426,62.0,-813.0,-40.0,31.0,157.0,247.0,165,78,77,107,87
2025-02-26 15:11:06.431,159.0,-711.0,-49.0,24.0,162.0,252.0,164,76,78,105,84
2025-02-26 15:11:06.435,217.0,-709.0,51.0,5.0,176.0,258.0,160,75,75,103,83
2025-02-26 15:11:06.440,343.0,-700.0,146.0,-2.0,189.0,261.0,164,77,77,104,84
2025-02-26 15:11:06.447,281.0,-609.0,129.0,-6.0,176.0,259.0,163,78,78,105,86
2025-02-26 15:11:06.451,226.0,-604.0,57.0,-3.0,170.0,265.0,162,76,75,102,86
2025-02-26 15:11:06.456,233.0,-653.0,287.0,-5.0,175.0,273.0,159,76,74,102,87
2025-02-26 15:11:06.458,344.0,-624.0,257.0,21.0,189.0,281.0,161,79,77,106,88
2025-02-26 15:11:06.468,212.0,-552.0,-37.0,57.0,196.0,284.0,163,80,77,107,90
2025-02-26 15:11:06.471,234.0,-834.0,459.0,98.0,214.0,291.0,160,78,75,106,89
2025-02-26 15:11:06.476,187.0,-700.0,147.0,126.0,225.0,298.0,161,77,75,107,89
2025-02-26 15:11:06.481,191.0,-423.0,-7.0,149.0,222.0,289.0,162,80,74,108,91
2025-02-26 15:11:06.487,220.0,-393.0,169.0,154.0,231.0,291.0,163,80,72,107,91
2025-02-26 15:11:06.493,61.0,-407.0,-82.0,165.0,237.0,294.0,160,77,73,107,91
2025-02-26 15:11:06.496,-51.0,-406.0,142.0,154.0,236.0,300.0,162,79,75,109,90
2025-02-26 15:11:06.501,-125.0,-141.0,37.0,146.0,238.0,304.0,162,78,74,108,92
2025-02-26 15:11:06.509,-68.0,-309.0,-22.0,154.0,231.0,315.0,159,78,73,108,93
2025-02-26 15:11:06.513,-161.0,-28.0,-113.0,131.0,231.0,310.0,162,76,73,107,92
2025-02-26 15:11:06.517,-196.0,72.0,-99.0,118.0,217.0,311.0,163,79,75,110,93
2025-02-26 15:11:06.521,-362.0,203.0,-53.0,104.0,200.0,315.0,164,78,74,109,91
2025-02-26 15:11:06.529,-470.0,369.0,57.0,72.0,197.0,317.0,160,75,75,110,91
2025-02-26 15:11:06.533,-390.0,422.0,61.0,52.0,191.0,316.0,160,70,76,109,93
2025-02-26 15:11:06.537,-398.0,481.0,75.0,36.0,183.0,310.0,161,74,73,109,91
2025-02-26 15:11:06.541,-362.0,549.0,183.0,28.0,179.0,303.0,161,73,71,108,91
2025-02-26 15:11:06.546,-362.0,451.0,392.0,33.0,197.0,302.0,161,75,74,110,93
2025-02-26 15:11:06.554,-356.0,399.0,253.0,33.0,200.0,295.0,163,73,72,109,90
2025-02-26 15:11:06.558,-365.0,414.0,-6.0,45.0,184.0,289.0,161,71,71,108,89
2025-02-26 15:11:06.560,-402.0,410.0,-17.0,59.0,177.0,286.0,159,67,71,107,90
2025-02-26 15:11:06.567,-443.0,353.0,-64.0,77.0,167.0,287.0,160,67,70,109,91
2025-02-26 15:11:06.572,-451.0,397.0,-83.0,100.0,150.0,283.0,159,66,71,106,89
2025-02-26 15:11:06.578,-462.0,600.0,-441.0,142.0,132.0,270.0,158,63,68,105,88
2025-02-26 15:11:06.582,-653.0,773.0,-162.0,143.0,120.0,262.0,159,63,71,107,90
2025-02-26 15:11:06.587,-830.0,879.0,-182.0,126.0,129.0,239.0,158,63,70,103,89
2025-02-26 15:11:06.594,-883.0,1101.0,-465.0,125.0,132.0,215.0,155,62,69,99,89
2025-02-26 15:11:06.599,-952.0,1167.0,-416.0,153.0,147.0,180.0,155,60,67,96,82
2025-02-26 15:11:06.604,-966.0,1208.0,-722.0,177.0,163.0,154.0,155,60,67,94,83
2025-02-26 15:11:06.611,-1195.0,1246.0,-889.0,223.0,166.0,102.0,156,62,68,92,81
2025-02-26 15:11:06.614,-1133.0,1511.0,-1245.0,262.0,144.0,37.0,154,60,68,91,79
2025-02-26 15:11:06.620,-1238.0,1851.0,-1508.0,260.0,98.0,-43.0,152,59,66,89,77
2025-02-26 15:11:06.623,-1256.0,2372.0,-1643.0,241.0,76.0,-138.0,153,56,65,89,75
2025-02-26 15:11:06.631,-1311.0,2758.0,-2014.0,214.0,20.0,-194.0,148,59,62,86,72
2025-02-26 15:11:06.636,-1516.0,3397.0,-2684.0,244.0,-103.0,-307.0,140,59,64,91,71
2025-02-26 15:11:06.640,-1889.0,3803.0,-2617.0,203.0,-240.0,-422.0,147,60,63,88,71
2025-02-26 15:11:06.648,-1884.0,3331.0,-2639.0,115.0,-384.0,-529.0,143,61,64,88,69
2025-02-26 15:11:06.650,-1664.0,2840.0,-2557.0,69.0,-556.0,-624.0,139,59,63,86,69
2025-02-26 15:11:06.660,-1250.0,2749.0,-2774.0,81.0,-702.0,-752.0,137,58,61,84,67
2025-02-26 15:11:06.664,-766.0,3042.0,-2959.0,29.0,-752.0,-861.0,139,60,62,83,67
2025-02-26 15:11:06.669,509.0,2698.0,-2484.0,-46.0,-800.0,-912.0,135,57,60,82,67
2025-02-26 15:11:06.677,944.0,1840.0,-2349.0,-57.0,-956.0,-1002.0,138,61,61,84,69
2025-02-26 15:11:06.681,2070.0,1680.0,-2216.0,-68.0,-1078.0,-1047.0,141,59,63,82,69
2025-02-26 15:11:06.685,4048.0,835.0,-1866.0,-86.0,-1149.0,-1024.0,134,58,61,85,71
2025-02-26 15:11:06.693,6072.0,-531.0,-900.0,-87.0,-1115.0,-917.0,136,59,63,83,71
2025-02-26 15:11:06.697,7466.0,-2174.0,1413.0,2.0,-957.0,-751.0,139,61,65,83,69
2025-02-26 15:11:06.700,7661.0,-2898.0,3461.0,-13.0,-830.0,-525.0,137,59,61,82,69
2025-02-26 15:11:06.709,7567.0,-4002.0,4672.0,-122.0,-513.0,-396.0,137,59,60,81,69
2025-02-26 15:11:06.713,7005.0,-6146.0,4327.0,-175.0,-193.0,-160.0,136,61,62,83,71
2025-02-26 15:11:06.718,6319.0,-6740.0,4213.0,-167.0,71.0,-15.0,137,62,61,85,71
2025-02-26 15:11:06.726,5148.0,-6268.0,3480.0,-67.0,234.0,60.0,139,64,64,85,72
2025-02-26 15:11:06.730,3726.0,-5406.0,2462.0,-12.0,327.0,101.0,139,59,61,82,69
2025-02-26 15:11:06.735,3117.0,-4551.0,1216.0,100.0,347.0,121.0,138,57,57,80,65
2025-02-26 15:11:06.738,2042.0,-4054.0,562.0,203.0,342.0,130.0,137,58,58,79,65
2025-02-26 15:11:06.746,1426.0,-3206.0,409.0,249.0,308.0,159.0,139,57,59,80,67
2025-02-26 15:11:06.750,902.0,-2571.0,218.0,279.0,245.0,169.0,137,57,59,80,64
2025-02-26 15:11:06.755,645.0,-1409.0,-5.0,208.0,225.0,175.0,135,55,56,78,62
2025-02-26 15:11:06.760,201.0,-1189.0,88.0,145.0,170.0,175.0,137,57,58,78,64
2025-02-26 15:11:06.765,175.0,-999.0,91.0,33.0,127.0,172.0,137,56,60,79,67
2025-02-26 15:11:06.770,60.0,-1087.0,3.0,-8.0,116.0,156.0,135,55,59,78,64
2025-02-26 15:11:06.775,98.0,-1225.0,218.0,-71.0,92.0,155.0,131,55,58,78,64
2025-02-26 15:11:06.779,285.0,-1372.0,242.0,-115.0,88.0,151.0,142,64,65,84,73
2025-02-26 15:11:06.784,419.0,-1642.0,451.0,-124.0,99.0,162.0,141,62,66,85,62
2025-02-26 15:11:06.792,470.0,-1956.0,586.0,-108.0,97.0,173.0,140,62,64,85,72
2025-02-26 15:11:06.796,261.0,-2062.0,595.0,-62.0,111.0,193.0,142,63,64,85,73
2025-02-26 15:11:06.800,381.0,-2263.0,730.0,-52.0,128.0,222.0,144,66,68,90,77
2025-02-26 15:11:06.808,359.0,-2061.0,583.0,-14.0,131.0,236.0,150,72,70,94,80
2025-02-26 15:11:06.812,242.0,-2021.0,632.0,32.0,136.0,243.0,156,81,83,109,91
2025-02-26 15:11:06.816,113.0,-1592.0,558.0,56.0,142.0,236.0,158,86,87,107,93
2025-02-26 15:11:06.821,-165.0,-1525.0,619.0,52.0,149.0,257.0,167,95,95,117,104
2025-02-26 15:11:06.828,-74.0,-1157.0,688.0,60.0,146.0,262.0,165,93,96,114,101
2025-02-26 15:11:06.833,-35.0,-791.0,702.0,22.0,152.0,259.0,163,89,92,113,99
2025-02-26 15:11:06.837,-15.0,-612.0,658.0,-24.0,163.0,262.0,164,94,96,115,100
2025-02-26 15:11:06.841,-174.0,-455.0,632.0,-40.0,158.0,263.0,163,91,93,114,101
2025-02-26 15:11:06.848,-112.0,-307.0,679.0,-89.0,169.0,258.0,161,90,92,112,99
2025-02-26 15:11:06.851,-107.0,-215.0,625.0,-135.0,166.0,241.0,160,84,89,112,99
2025-02-26 15:11:06.857,-218.0,1.0,610.0,-172.0,164.0,228.0,163,91,93,115,101
2025-02-26 15:11:06.863,-193.0,-105.0,580.0,-186.0,161.0,210.0,168,94,95,119,103
2025-02-26 15:11:06.869,-483.0,-321.0,491.0,-190.0,153.0,186.0,163,91,92,115,100
2025-02-26 15:11:06.873,-541.0,-227.0,475.0,-201.0,152.0,171.0,162,89,90,112,98
2025-02-26 15:11:06.878,-515.0,-257.0,398.0,-183.0,135.0,154.0,161,87,88,111,96
2025-02-26 15:11:06.886,-407.0,-297.0,340.0,-174.0,121.0,146.0,166,92,93,116,102
2025-02-26 15:11:06.888,-404.0,-277.0,367.0,-178.0,120.0,138.0,167,91,92,115,101
2025-02-26 15:11:06.892,-345.0,-272.0,300.0,-181.0,124.0,135.0,165,95,92,115,104
2025-02-26 15:11:06.901,-371.0,-311.0,278.0,-191.0,129.0,131.0,163,88,91,113,99
2025-02-26 15:11:06.906,-415.0,-235.0,220.0,-205.0,133.0,131.0,160,87,90,106,98
2025-02-26 15:11:06.911,-297.0,-251.0,103.0,-206.0,140.0,128.0,162,86,90,113,96
2025-02-26 15:11:06.918,-442.0,-320.0,78.0,-192.0,131.0,124.0,166,90,92,115,100
2025-02-26 15:11:06.923,-404.0,-323.0,114.0,-169.0,120.0,128.0,166,89,94,116,100
2025-02-26 15:11:06.924,-381.0,-405.0,168.0,-158.0,110.0,130.0,165,90,93,116,101
2025-02-26 15:11:06.935,-325.0,-416.0,140.0,-139.0,109.0,132.0,162,87,90,113,98
2025-02-26 15:11:06.938,-340.0,-493.0,148.0,-118.0,108.0,133.0,163,85,89,111,96
2025-02-26 15:11:06.943,-324.0,-527.0,52.0,-105.0,110.0,137.0,168,95,95,120,104
2025-02-26 15:11:06.948,-334.0,-550.0,46.0,-88.0,115.0,144.0,164,91,94,117,101
2025-02-26 15:11:06.955,-191.0,-543.0,132.0,-85.0,125.0,156.0,162,88,92,113,99
2025-02-26 15:11:06.959,-138.0,-593.0,131.0,-68.0,132.0,164.0,160,85,89,108,96
