timestamp,ax,ay,az,gx,gy,gz,flex1,flex2,flex3,flex4,flex5,emg1,emg2,emg3
2025-02-19 16:26:23.465,-360.0,-264.0,921.0,0.0,3.0,-2.0,144,110,113,136,140,419,556,508
2025-02-19 16:26:23.475,-369.0,-256.0,931.0,7.0,-7.0,-1.0,143,115,114,138,144,545,577,473
2025-02-19 16:26:23.477,-355.0,-257.0,936.0,7.0,-10.0,-1.0,144,116,115,139,145,541,569,485
2025-02-19 16:26:23.480,-347.0,-281.0,947.0,7.0,-10.0,0.0,145,118,116,139,143,530,559,498
2025-02-19 16:26:23.482,-346.0,-253.0,968.0,9.0,-7.0,0.0,143,118,115,138,144,509,555,509
2025-02-19 16:26:23.485,-337.0,-239.0,966.0,9.0,0.0,0.0,145,120,117,140,146,490,549,527
2025-02-19 16:26:23.485,-344.0,-256.0,967.0,9.0,4.0,0.0,142,119,115,138,144,469,547,540
2025-02-19 16:26:23.485,-335.0,-248.0,957.0,7.0,4.0,-1.0,145,121,117,140,145,456,544,548
2025-02-19 16:26:23.492,-338.0,-238.0,943.0,8.0,5.0,0.0,143,119,115,138,144,447,541,546
2025-02-19 16:26:23.497,-347.0,-228.0,941.0,6.0,5.0,-2.0,144,120,117,140,145,443,542,537
2025-02-19 16:26:23.510,-350.0,-230.0,927.0,4.0,4.0,-2.0,145,121,118,140,146,441,539,528
2025-02-19 16:26:23.533,-351.0,-218.0,918.0,0.0,2.0,-2.0,144,120,115,139,145,437,541,518
2025-02-19 16:26:23.554,-339.0,-234.0,914.0,-1.0,-1.0,-2.0,145,121,116,140,146,438,540,511
2025-02-19 16:26:23.571,-338.0,-240.0,910.0,-1.0,-1.0,-1.0,143,119,116,139,144,441,541,503
2025-02-19 16:26:23.589,-345.0,-234.0,890.0,0.0,-3.0,-1.0,145,121,118,140,145,453,541,512
2025-02-19 16:26:23.611,-361.0,-234.0,892.0,0.0,-4.0,-1.0,143,119,115,139,144,468,538,506
2025-02-19 16:26:23.628,-359.0,-239.0,891.0,1.0,-6.0,-2.0,144,121,117,140,145,504,539,491
2025-02-19 16:26:23.649,-358.0,-237.0,911.0,2.0,-8.0,-3.0,144,121,117,140,146,547,538,475
2025-02-19 16:26:23.668,-349.0,-242.0,943.0,2.0,-8.0,-3.0,143,120,116,139,145,605,538,466
2025-02-19 16:26:23.685,-361.0,-249.0,963.0,2.0,-8.0,-3.0,144,121,117,140,146,665,538,467
2025-02-19 16:26:23.704,-348.0,-250.0,973.0,3.0,-8.0,-2.0,143,120,116,139,144,719,538,472
2025-02-19 16:26:23.723,-332.0,-248.0,994.0,6.0,-6.0,-1.0,144,122,118,140,145,768,538,482
2025-02-19 16:26:23.742,-334.0,-230.0,1000.0,7.0,-3.0,0.0,143,119,115,139,144,800,536,489
2025-02-19 16:26:23.763,-341.0,-196.0,996.0,4.0,-2.0,-1.0,144,121,117,141,146,828,536,501
2025-02-19 16:26:23.779,-344.0,-190.0,983.0,0.0,-2.0,-1.0,144,121,117,140,146,849,535,512
2025-02-19 16:26:23.800,-342.0,-197.0,978.0,0.0,-1.0,-2.0,143,120,116,140,144,858,536,522
2025-02-19 16:26:23.821,-329.0,-190.0,972.0,1.0,0.0,-3.0,144,121,118,140,145,861,534,536
2025-02-19 16:26:23.838,-333.0,-207.0,962.0,1.0,2.0,-4.0,143,120,116,139,144,852,533,547
2025-02-19 16:26:23.858,-333.0,-208.0,955.0,1.0,2.0,-4.0,144,121,117,140,144,843,533,554
2025-02-19 16:26:23.878,-333.0,-216.0,935.0,-1.0,1.0,-4.0,143,119,116,144,144,828,532,553
2025-02-19 16:26:23.895,-329.0,-226.0,931.0,-1.0,1.0,-5.0,145,121,118,141,146,815,534,549
2025-02-19 16:26:23.915,-330.0,-242.0,928.0,0.0,2.0,-5.0,145,121,118,141,145,799,533,537
2025-02-19 16:26:23.932,-334.0,-239.0,927.0,0.0,1.0,-4.0,143,120,115,139,144,782,534,519
2025-02-19 16:26:23.952,-331.0,-248.0,933.0,-2.0,0.0,-3.0,144,121,117,141,145,765,535,502
2025-02-19 16:26:23.972,-333.0,-256.0,932.0,-3.0,0.0,-3.0,143,120,117,139,144,745,536,488
2025-02-19 16:26:23.989,-333.0,-259.0,933.0,-1.0,-1.0,-1.0,144,121,121,140,145,728,539,479
2025-02-19 16:26:24.009,-339.0,-246.0,932.0,-1.0,-2.0,-1.0,143,120,116,139,144,710,539,470
2025-02-19 16:26:24.029,-347.0,-247.0,934.0,-1.0,-3.0,0.0,143,120,116,140,145,695,541,467
2025-02-19 16:26:24.046,-347.0,-242.0,943.0,0.0,-4.0,1.0,144,121,117,141,146,680,539,464
2025-02-19 16:26:24.067,-344.0,-228.0,960.0,0.0,-4.0,1.0,142,119,117,139,144,660,541,459
2025-02-19 16:26:24.086,-340.0,-229.0,977.0,1.0,-3.0,1.0,145,121,115,140,146,640,540,462
2025-02-19 16:26:24.104,-339.0,-224.0,978.0,1.0,-1.0,1.0,145,120,116,139,144,613,542,464
2025-02-19 16:26:24.123,-347.0,-217.0,970.0,1.0,0.0,1.0,143,121,117,140,145,584,542,472
2025-02-19 16:26:24.141,-352.0,-211.0,967.0,0.0,1.0,0.0,144,121,117,140,145,550,541,479
2025-02-19 16:26:24.159,-347.0,-212.0,962.0,-1.0,1.0,0.0,143,120,116,139,144,516,544,483
2025-02-19 16:26:24.178,-338.0,-212.0,951.0,-2.0,2.0,-1.0,144,121,117,140,146,483,543,495
2025-02-19 16:26:24.198,-340.0,-221.0,955.0,-2.0,3.0,-2.0,143,117,116,139,144,444,546,501
2025-02-19 16:26:24.218,-338.0,-225.0,940.0,-2.0,4.0,-2.0,144,120,117,140,145,410,546,504
2025-02-19 16:26:24.238,-338.0,-221.0,922.0,-3.0,3.0,-2.0,143,120,116,140,145,381,547,495
2025-02-19 16:26:24.256,-344.0,-228.0,922.0,-3.0,2.0,-2.0,143,121,117,139,145,360,547,488
2025-02-19 16:26:24.275,-338.0,-239.0,920.0,-2.0,1.0,-2.0,145,121,117,140,145,343,547,477
2025-02-19 16:26:24.295,-334.0,-239.0,921.0,-1.0,-1.0,-1.0,143,120,116,139,144,328,551,465
2025-02-19 16:26:24.312,-339.0,-230.0,935.0,-2.0,-1.0,-1.0,144,121,117,140,146,317,550,450
2025-02-19 16:26:24.330,-340.0,-232.0,940.0,-2.0,-2.0,-1.0,143,120,115,139,144,303,553,429
2025-02-19 16:26:24.353,-334.0,-233.0,939.0,-1.0,-1.0,0.0,145,121,117,140,145,300,553,414
2025-02-19 16:26:24.370,-338.0,-234.0,936.0,0.0,-2.0,1.0,143,120,116,139,144,302,552,403
2025-02-19 16:26:24.390,-344.0,-224.0,942.0,1.0,-4.0,1.0,143,121,117,139,145,313,552,400
2025-02-19 16:26:24.407,-350.0,-219.0,957.0,1.0,-4.0,1.0,144,121,118,140,145,326,551,401
2025-02-19 16:26:24.427,-344.0,-209.0,966.0,2.0,-3.0,1.0,143,120,116,139,144,333,552,403
2025-02-19 16:26:24.445,-348.0,-208.0,963.0,1.0,-2.0,1.0,144,121,117,140,146,332,551,411
2025-02-19 16:26:24.463,-347.0,-209.0,957.0,1.0,-1.0,1.0,143,119,115,139,143,317,552,420
2025-02-19 16:26:24.482,-345.0,-203.0,939.0,2.0,-1.0,1.0,144,121,117,139,146,298,551,435
2025-02-19 16:26:24.504,-347.0,-196.0,934.0,0.0,-1.0,0.0,142,119,115,139,144,279,552,442
2025-02-19 16:26:24.521,-355.0,-212.0,924.0,0.0,-1.0,-1.0,143,121,117,139,145,268,553,452
2025-02-19 16:26:24.541,-345.0,-208.0,924.0,1.0,-2.0,-1.0,144,121,117,140,146,258,552,457
2025-02-19 16:26:24.561,-345.0,-218.0,940.0,0.0,-3.0,-2.0,143,119,116,139,145,247,554,457
2025-02-19 16:26:24.578,-347.0,-222.0,948.0,-3.0,-3.0,-3.0,144,121,117,140,146,243,553,459
2025-02-19 16:26:24.597,-337.0,-240.0,955.0,-5.0,-3.0,-3.0,143,119,116,139,144,237,554,458
2025-02-19 16:26:24.617,-333.0,-241.0,959.0,-4.0,-2.0,-2.0,144,121,117,141,146,231,554,457
2025-02-19 16:26:24.636,-336.0,-236.0,953.0,-5.0,-1.0,-1.0,142,119,115,139,144,224,554,450
2025-02-19 16:26:24.656,-321.0,-269.0,987.0,-3.0,-1.0,-1.0,144,121,117,139,145,217,555,445
2025-02-19 16:26:24.673,-322.0,-230.0,951.0,-4.0,0.0,0.0,144,121,117,142,145,207,552,436
2025-02-19 16:26:24.693,-338.0,-225.0,946.0,-4.0,-1.0,0.0,143,120,116,139,144,185,553,417
2025-02-19 16:26:24.713,-345.0,-220.0,940.0,-3.0,-2.0,1.0,144,121,117,140,145,166,553,405
2025-02-19 16:26:24.731,-342.0,-211.0,922.0,-2.0,-4.0,1.0,143,119,116,139,144,183,553,404
2025-02-19 16:26:24.750,-347.0,-208.0,939.0,0.0,-3.0,1.0,144,121,117,141,146,214,552,419
2025-02-19 16:26:24.767,-349.0,-198.0,946.0,2.0,-3.0,0.0,142,119,115,139,144,235,550,431
2025-02-19 16:26:24.787,-351.0,-196.0,935.0,2.0,-4.0,-1.0,144,120,117,140,145,254,550,452
2025-02-19 16:26:24.807,-344.0,-213.0,956.0,3.0,-2.0,-1.0,144,121,117,140,145,270,547,470
2025-02-19 16:26:24.825,-346.0,-216.0,956.0,3.0,-4.0,-2.0,143,120,116,139,144,281,548,486
2025-02-19 16:26:24.845,-342.0,-217.0,959.0,0.0,-4.0,-1.0,144,121,117,140,140,293,546,509
2025-02-19 16:26:24.865,-332.0,-223.0,963.0,-1.0,-3.0,-2.0,143,119,116,139,144,300,545,545
2025-02-19 16:26:24.881,-323.0,-229.0,955.0,0.0,-3.0,-1.0,144,120,117,140,145,306,544,573
2025-02-19 16:26:24.899,-324.0,-225.0,965.0,0.0,-1.0,-1.0,143,119,115,139,143,307,541,600
2025-02-19 16:26:24.922,-316.0,-231.0,947.0,0.0,-2.0,0.0,144,120,117,140,145,311,541,634
2025-02-19 16:26:24.939,-319.0,-230.0,956.0,-1.0,-2.0,0.0,144,121,118,140,145,310,538,652
2025-02-19 16:26:24.959,-323.0,-229.0,956.0,-2.0,-2.0,0.0,143,120,116,137,144,302,539,652
2025-02-19 16:26:24.980,-323.0,-232.0,939.0,-2.0,-2.0,1.0,145,121,117,140,141,294,537,657
2025-02-19 16:26:24.996,-324.0,-229.0,946.0,-1.0,-3.0,0.0,143,119,116,139,144,283,536,632
2025-02-19 16:26:25.016,-326.0,-222.0,953.0,0.0,-2.0,0.0,144,121,117,140,145,280,537,601
2025-02-19 16:26:25.037,-328.0,-214.0,952.0,0.0,-2.0,0.0,144,120,117,139,144,279,535,554
2025-02-19 16:26:25.054,-322.0,-214.0,958.0,-1.0,-2.0,0.0,143,120,116,140,144,280,538,505
2025-02-19 16:26:25.074,-321.0,-214.0,953.0,-1.0,-2.0,-1.0,144,121,117,140,145,284,537,472
2025-02-19 16:26:25.091,-318.0,-223.0,962.0,-1.0,-2.0,-2.0,143,115,116,139,144,288,538,445
2025-02-19 16:26:25.111,-314.0,-225.0,964.0,-1.0,0.0,-1.0,144,121,118,140,145,313,539,428
2025-02-19 16:26:25.131,-320.0,-213.0,952.0,-2.0,0.0,-1.0,143,118,117,139,144,355,538,421
2025-02-19 16:26:25.149,-322.0,-227.0,953.0,-4.0,0.0,-2.0,143,120,117,139,145,384,538,429
2025-02-19 16:26:25.167,-330.0,-233.0,949.0,-3.0,0.0,-1.0,144,121,118,140,145,409,535,435
2025-02-19 16:26:25.189,-330.0,-239.0,947.0,-1.0,0.0,-1.0,143,120,117,139,144,437,536,436
2025-02-19 16:26:25.202,-330.0,-229.0,946.0,-1.0,-1.0,-1.0,144,121,117,140,145,465,534,442
2025-02-19 16:26:25.226,-323.0,-230.0,963.0,-2.0,-2.0,-1.0,143,119,116,139,143,483,535,439
2025-02-19 16:26:25.245,-317.0,-232.0,964.0,-2.0,-1.0,0.0,144,121,115,140,145,499,534,442
2025-02-19 16:26:25.263,-312.0,-227.0,967.0,-1.0,0.0,0.0,143,120,116,138,143,508,532,458
2025-02-19 16:26:25.283,-322.0,-223.0,963.0,-1.0,0.0,0.0,144,120,117,139,144,519,531,472
2025-02-19 16:26:25.300,-331.0,-218.0,958.0,-2.0,0.0,0.0,144,121,118,140,145,533,529,482
2025-02-19 16:26:25.318,-333.0,-210.0,956.0,-2.0,0.0,1.0,143,120,116,139,143,542,530,473
2025-02-19 16:26:25.340,-334.0,-207.0,949.0,-1.0,0.0,1.0,144,121,118,140,145,552,528,461
2025-02-19 16:26:25.358,-335.0,-215.0,946.0,0.0,0.0,0.0,142,124,116,138,143,550,527,446
2025-02-19 16:26:25.377,-333.0,-211.0,947.0,2.0,1.0,0.0,144,121,118,140,145,548,526,440
2025-02-19 16:26:25.395,-337.0,-202.0,942.0,1.0,1.0,0.0,143,119,116,139,143,539,526,435
2025-02-19 16:26:25.415,-341.0,-209.0,940.0,0.0,0.0,-1.0,143,120,116,139,144,532,526,434
2025-02-19 16:26:25.433,-330.0,-219.0,947.0,1.0,-1.0,-1.0,144,121,117,140,145,522,525,434
2025-02-19 16:26:25.454,-328.0,-219.0,951.0,1.0,0.0,-2.0,143,120,117,139,144,508,527,432
2025-02-19 16:26:25.469,-329.0,-227.0,949.0,1.0,0.0,-2.0,144,121,117,140,144,493,526,430
2025-02-19 16:26:25.491,-329.0,-223.0,938.0,0.0,0.0,-1.0,142,119,116,139,143,479,527,432
2025-02-19 16:26:25.509,-331.0,-230.0,934.0,-1.0,0.0,-2.0,144,121,118,140,145,473,526,442
2025-02-19 16:26:25.529,-331.0,-240.0,931.0,1.0,0.0,-1.0,142,119,116,138,143,469,526,450
2025-02-19 16:26:25.549,-329.0,-236.0,943.0,0.0,0.0,0.0,143,121,117,139,145,471,526,461
2025-02-19 16:26:25.566,-327.0,-231.0,945.0,-2.0,-1.0,0.0,144,121,117,141,145,472,526,472
2025-02-19 16:26:25.584,-335.0,-238.0,945.0,-2.0,-1.0,0.0,143,120,116,139,145,471,527,479
2025-02-19 16:26:25.606,-338.0,-232.0,948.0,-1.0,-1.0,1.0,144,121,118,140,144,473,526,488
2025-02-19 16:26:25.620,-335.0,-226.0,950.0,-1.0,-1.0,1.0,142,119,116,138,143,472,527,499
2025-02-19 16:26:25.643,-334.0,-219.0,959.0,-2.0,-1.0,1.0,144,121,118,141,145,475,526,517
2025-02-19 16:26:25.663,-336.0,-222.0,953.0,-2.0,-1.0,1.0,143,118,115,139,143,472,526,538
2025-02-19 16:26:25.681,-337.0,-215.0,958.0,-2.0,-1.0,1.0,144,121,117,140,145,475,526,554
2025-02-19 16:26:25.698,-335.0,-213.0,956.0,-2.0,-1.0,2.0,144,121,117,140,145,475,525,557
2025-02-19 16:26:25.718,-334.0,-209.0,952.0,-3.0,-1.0,1.0,143,120,116,135,143,470,526,551
2025-02-19 16:26:25.738,-330.0,-212.0,953.0,-1.0,-1.0,1.0,144,121,117,140,145,470,527,542
2025-02-19 16:26:25.758,-332.0,-210.0,954.0,-1.0,0.0,1.0,142,119,116,138,143,469,525,523
2025-02-19 16:26:25.773,-332.0,-205.0,952.0,-1.0,0.0,1.0,144,121,117,140,145,470,524,508
2025-02-19 16:26:25.795,-335.0,-206.0,947.0,-1.0,-1.0,0.0,142,119,116,139,143,465,524,494
2025-02-19 16:26:25.814,-337.0,-207.0,950.0,0.0,-1.0,0.0,144,121,117,140,145,465,525,489
2025-02-19 16:26:25.831,-334.0,-201.0,954.0,0.0,0.0,0.0,144,121,118,140,145,465,523,473
2025-02-19 16:26:25.852,-326.0,-205.0,956.0,-1.0,0.0,0.0,142,120,116,139,144,465,524,460
2025-02-19 16:26:25.869,-333.0,-215.0,952.0,0.0,-1.0,0.0,148,121,118,140,145,467,524,454
2025-02-19 16:26:25.888,-332.0,-208.0,954.0,-1.0,-1.0,0.0,143,119,116,139,143,468,526,447
2025-02-19 16:26:25.910,-335.0,-206.0,952.0,-1.0,-1.0,0.0,143,121,117,140,144,473,526,446
2025-02-19 16:26:25.930,-337.0,-208.0,947.0,-1.0,-1.0,0.0,142,120,116,139,143,476,526,446
2025-02-19 16:26:25.947,-335.0,-218.0,946.0,0.0,-1.0,0.0,143,120,117,140,144,479,526,453
2025-02-19 16:26:25.967,-327.0,-218.0,953.0,1.0,-1.0,0.0,144,121,117,140,145,481,524,461
2025-02-19 16:26:25.984,-334.0,-206.0,955.0,0.0,-1.0,0.0,143,119,116,139,144,478,525,468
2025-02-19 16:26:26.004,-334.0,-204.0,955.0,-2.0,-2.0,-1.0,145,121,117,141,145,480,525,476
2025-02-19 16:26:26.024,-333.0,-214.0,957.0,-1.0,-2.0,-1.0,143,120,116,138,144,478,526,481
2025-02-19 16:26:26.042,-334.0,-217.0,959.0,0.0,-1.0,-1.0,143,120,118,140,145,476,526,486
2025-02-19 16:26:26.061,-332.0,-215.0,967.0,1.0,0.0,-1.0,144,120,117,139,145,472,524,489
2025-02-19 16:26:26.081,-330.0,-211.0,954.0,0.0,0.0,-1.0,143,120,116,139,144,470,525,491
2025-02-19 16:26:26.098,-331.0,-215.0,953.0,-1.0,-1.0,0.0,144,121,117,145,145,469,524,489
2025-02-19 16:26:26.118,-333.0,-214.0,955.0,-1.0,0.0,0.0,143,119,116,139,139,466,524,483
2025-02-19 16:26:26.138,-336.0,-213.0,946.0,-1.0,0.0,0.0,144,121,118,133,145,468,523,480
2025-02-19 16:26:26.156,-335.0,-201.0,940.0,0.0,0.0,0.0,143,120,116,139,144,464,523,473
2025-02-19 16:26:26.176,-338.0,-209.0,936.0,0.0,-1.0,-1.0,144,120,117,141,145,465,523,468
2025-02-19 16:26:26.196,-333.0,-206.0,946.0,-1.0,-1.0,-1.0,144,121,117,140,145,465,523,461
2025-02-19 16:26:26.213,-330.0,-211.0,951.0,0.0,-1.0,-1.0,143,120,122,139,144,468,525,453
2025-02-19 16:26:26.232,-332.0,-208.0,952.0,-1.0,-1.0,0.0,144,120,117,140,145,472,522,449
2025-02-19 16:26:26.250,-333.0,-210.0,950.0,-1.0,-1.0,0.0,143,119,116,139,143,474,524,445
2025-02-19 16:26:26.268,-334.0,-204.0,954.0,0.0,-1.0,-1.0,144,121,117,140,145,478,523,447
2025-02-19 16:26:26.290,-336.0,-197.0,955.0,-1.0,-1.0,-1.0,143,120,116,139,144,482,524,449
2025-02-19 16:26:26.305,-328.0,-199.0,956.0,-1.0,-1.0,-2.0,143,120,116,140,145,486,524,456
2025-02-19 16:26:26.327,-327.0,-212.0,945.0,-1.0,0.0,-1.0,144,122,117,140,145,489,522,462
2025-02-19 16:26:26.346,-335.0,-215.0,940.0,-1.0,-1.0,-1.0,144,119,116,139,144,491,524,469
2025-02-19 16:26:26.364,-338.0,-210.0,943.0,-1.0,-2.0,-1.0,144,119,117,140,145,494,524,478
2025-02-19 16:26:26.382,-339.0,-208.0,948.0,0.0,-2.0,-1.0,142,119,116,139,144,496,524,484
2025-02-19 16:26:26.402,-338.0,-206.0,952.0,1.0,-2.0,-1.0,144,121,118,141,145,499,523,490
2025-02-19 16:26:26.421,-340.0,-209.0,959.0,1.0,-2.0,-1.0,143,119,116,139,143,499,523,492
2025-02-19 16:26:26.442,-332.0,-205.0,963.0,0.0,-1.0,-1.0,143,120,117,140,144,499,524,494
2025-02-19 16:26:26.458,-337.0,-213.0,958.0,0.0,-1.0,-1.0,144,121,118,141,144,498,522,494
2025-02-19 16:26:26.479,-334.0,-221.0,958.0,0.0,-1.0,-1.0,143,119,116,139,144,495,523,489
2025-02-19 16:26:26.498,-335.0,-217.0,958.0,-1.0,0.0,-1.0,144,121,118,140,144,495,522,485
2025-02-19 16:26:26.516,-335.0,-215.0,957.0,-1.0,0.0,0.0,142,119,116,138,143,492,522,477
2025-02-19 16:26:26.537,-335.0,-209.0,955.0,0.0,-1.0,-1.0,144,121,118,141,145,493,521,473
2025-02-19 16:26:26.557,-332.0,-215.0,961.0,0.0,-1.0,-1.0,142,119,115,139,143,489,521,464
2025-02-19 16:26:26.571,-333.0,-215.0,965.0,-1.0,0.0,0.0,144,120,117,139,144,489,521,459
2025-02-19 16:26:26.593,-334.0,-212.0,953.0,-2.0,0.0,0.0,144,121,118,140,145,489,520,456
2025-02-19 16:26:26.614,-327.0,-213.0,958.0,-1.0,0.0,0.0,143,120,117,139,144,485,521,454
2025-02-19 16:26:26.631,-331.0,-210.0,961.0,-1.0,0.0,0.0,144,121,118,140,145,486,520,457
2025-02-19 16:26:26.651,-324.0,-209.0,955.0,-1.0,0.0,0.0,142,119,116,139,143,481,520,458
2025-02-19 16:26:26.668,-338.0,-204.0,948.0,-1.0,0.0,0.0,144,121,118,141,145,481,520,467
2025-02-19 16:26:26.688,-339.0,-209.0,944.0,-1.0,0.0,0.0,142,119,116,138,143,477,520,471
2025-02-19 16:26:26.708,-333.0,-205.0,946.0,-1.0,0.0,0.0,144,120,118,140,144,476,520,479
2025-02-19 16:26:26.725,-333.0,-198.0,947.0,-1.0,0.0,0.0,143,121,118,140,144,473,519,488
2025-02-19 16:26:26.745,-334.0,-201.0,943.0,-1.0,0.0,-1.0,143,120,116,139,144,467,521,495
2025-02-19 16:26:26.765,-337.0,-206.0,940.0,-1.0,0.0,-1.0,144,121,118,140,145,464,520,502
2025-02-19 16:26:26.783,-335.0,-209.0,947.0,0.0,-1.0,-1.0,143,119,116,138,144,459,521,506
2025-02-19 16:26:26.803,-336.0,-204.0,952.0,0.0,-1.0,-1.0,144,120,117,140,145,458,522,509
2025-02-19 16:26:26.821,-338.0,-201.0,952.0,-1.0,-1.0,-1.0,143,119,116,138,143,456,522,504
2025-02-19 16:26:26.839,-331.0,-211.0,952.0,-1.0,-1.0,-1.0,144,120,117,140,145,457,523,504
2025-02-19 16:26:26.857,-334.0,-213.0,957.0,0.0,-2.0,-1.0,144,121,117,140,140,457,522,497
2025-02-19 16:26:26.880,-335.0,-208.0,959.0,-1.0,-1.0,-1.0,143,119,116,139,144,456,523,487
2025-02-19 16:26:26.897,-338.0,-209.0,957.0,0.0,-1.0,0.0,144,121,118,140,145,459,522,481
2025-02-19 16:26:26.917,-335.0,-207.0,955.0,0.0,-1.0,0.0,142,119,116,139,146,459,521,470
2025-02-19 16:26:26.934,-333.0,-206.0,956.0,-1.0,-1.0,0.0,144,120,117,140,145,463,522,466
2025-02-19 16:26:26.953,-334.0,-211.0,960.0,0.0,-1.0,0.0,143,120,117,138,144,464,520,461
2025-02-19 16:26:26.970,-336.0,-198.0,961.0,0.0,0.0,0.0,143,120,117,139,145,467,520,460
2025-02-19 16:26:26.991,-347.0,-199.0,954.0,-1.0,0.0,-1.0,144,121,118,140,145,468,519,460
2025-02-19 16:26:27.012,-338.0,-198.0,957.0,-1.0,0.0,-1.0,143,119,117,139,143,470,520,461
2025-02-19 16:26:27.032,-336.0,-207.0,954.0,-1.0,1.0,-1.0,144,121,117,140,145,470,520,470
2025-02-19 16:26:27.049,-338.0,-205.0,947.0,0.0,1.0,-1.0,143,119,116,139,144,468,520,480
2025-02-19 16:26:27.068,-331.0,-224.0,947.0,1.0,1.0,-1.0,144,120,117,140,145,468,520,495
2025-02-19 16:26:27.086,-333.0,-207.0,952.0,2.0,1.0,-1.0,144,121,117,140,145,466,518,506
2025-02-19 16:26:27.106,-339.0,-203.0,946.0,-1.0,0.0,-1.0,143,120,116,139,144,464,520,519
2025-02-19 16:26:27.126,-336.0,-204.0,950.0,-2.0,-1.0,-1.0,144,121,118,140,144,463,520,530
2025-02-19 16:26:27.143,-334.0,-207.0,948.0,-1.0,0.0,-1.0,143,119,116,139,144,459,520,537
2025-02-19 16:26:27.160,-329.0,-202.0,956.0,-1.0,0.0,0.0,144,121,118,140,145,458,519,543
2025-02-19 16:26:27.183,-334.0,-203.0,952.0,-2.0,0.0,0.0,143,119,117,139,144,452,518,541
2025-02-19 16:26:27.201,-335.0,-198.0,946.0,-2.0,-1.0,0.0,144,120,117,138,145,451,519,535
2025-02-19 16:26:27.220,-334.0,-200.0,942.0,-1.0,-1.0,0.0,144,121,117,141,145,450,518,524
2025-02-19 16:26:27.241,-338.0,-195.0,940.0,-1.0,-1.0,0.0,143,120,116,140,144,449,520,509
2025-02-19 16:26:27.258,-337.0,-193.0,937.0,-2.0,-2.0,-1.0,144,121,117,140,145,453,519,497
2025-02-19 16:26:27.278,-339.0,-202.0,935.0,-1.0,-2.0,-1.0,143,119,116,139,144,455,520,477
2025-02-19 16:26:27.298,-340.0,-204.0,936.0,0.0,-3.0,-1.0,144,121,118,140,145,464,520,459
2025-02-19 16:26:27.316,-351.0,-197.0,943.0,0.0,-3.0,-1.0,143,120,116,139,144,471,519,439
2025-02-19 16:26:27.335,-348.0,-195.0,950.0,0.0,-3.0,-1.0,144,120,117,140,144,481,520,423
2025-02-19 16:26:27.352,-345.0,-202.0,960.0,0.0,-3.0,-2.0,144,115,118,140,144,494,519,413
2025-02-19 16:26:27.372,-339.0,-207.0,965.0,0.0,-3.0,-1.0,143,120,116,139,143,503,521,406
2025-02-19 16:26:27.391,-334.0,-202.0,971.0,-1.0,-2.0,-1.0,144,121,118,140,145,512,519,406
2025-02-19 16:26:27.409,-339.0,-209.0,965.0,-1.0,-2.0,-1.0,142,119,116,139,143,515,520,410
2025-02-19 16:26:27.430,-333.0,-210.0,969.0,0.0,-1.0,-1.0,144,121,118,140,145,520,519,422
2025-02-19 16:26:27.449,-330.0,-203.0,969.0,-1.0,0.0,-1.0,142,119,116,138,143,518,518,432
2025-02-19 16:26:27.466,-331.0,-202.0,972.0,-1.0,0.0,-1.0,143,120,117,139,144,517,519,445
2025-02-19 16:26:27.486,-334.0,-200.0,963.0,-2.0,1.0,-1.0,144,121,117,140,145,513,517,460
2025-02-19 16:26:27.498,-339.0,-200.0,964.0,-1.0,2.0,-1.0,143,119,116,139,143,505,519,469
2025-02-19 16:26:27.523,-343.0,-196.0,957.0,-2.0,1.0,-1.0,144,120,117,140,145,499,517,481
2025-02-19 16:26:27.543,-337.0,-189.0,947.0,-2.0,1.0,-1.0,143,119,116,139,143,490,517,489
2025-02-19 16:26:27.559,-334.0,-196.0,942.0,-2.0,1.0,-2.0,144,121,118,141,145,483,517,499
2025-02-19 16:26:27.580,-337.0,-204.0,939.0,-1.0,0.0,-1.0,141,119,116,138,143,471,517,504
2025-02-19 16:26:27.601,-337.0,-202.0,942.0,-1.0,0.0,-1.0,144,121,118,140,144,466,517,510
2025-02-19 16:26:27.618,-337.0,-197.0,943.0,-1.0,-1.0,-1.0,144,121,118,140,145,462,516,513
2025-02-19 16:26:27.638,-332.0,-204.0,945.0,-1.0,-2.0,-1.0,143,119,117,139,144,459,519,508
2025-02-19 16:26:27.659,-334.0,-206.0,945.0,0.0,-1.0,-1.0,144,121,117,140,144,460,518,501
2025-02-19 16:26:27.674,-335.0,-200.0,948.0,0.0,-1.0,-1.0,143,119,116,139,144,461,517,489
2025-02-19 16:26:27.693,-335.0,-203.0,948.0,-1.0,-2.0,-1.0,144,121,118,140,145,467,517,480
2025-02-19 16:26:27.716,-336.0,-202.0,956.0,-1.0,-1.0,-1.0,142,119,116,138,143,471,517,464
2025-02-19 16:26:27.733,-334.0,-204.0,958.0,0.0,-1.0,-1.0,144,121,118,140,145,481,517,454
2025-02-19 16:26:27.753,-341.0,-200.0,956.0,-2.0,-1.0,-1.0,144,120,117,141,145,489,517,447
2025-02-19 16:26:27.772,-342.0,-202.0,948.0,-2.0,-1.0,-1.0,143,120,117,139,144,496,519,442
2025-02-19 16:26:27.790,-340.0,-205.0,942.0,-1.0,-2.0,-1.0,144,121,118,140,145,504,519,445
2025-02-19 16:26:27.808,-347.0,-207.0,951.0,-1.0,-2.0,-1.0,142,119,116,139,144,510,518,450
2025-02-19 16:26:27.825,-334.0,-209.0,962.0,0.0,-1.0,-1.0,144,120,117,140,145,516,518,459
2025-02-19 16:26:27.844,-339.0,-210.0,958.0,0.0,-1.0,0.0,143,119,115,139,143,519,515,468
2025-02-19 16:26:27.867,-337.0,-208.0,959.0,-2.0,-2.0,0.0,144,120,117,141,145,522,514,480
2025-02-19 16:26:27.885,-334.0,-209.0,968.0,-2.0,-2.0,0.0,144,121,118,141,145,520,516,488
2025-02-19 16:26:27.905,-331.0,-198.0,968.0,-1.0,-1.0,1.0,143,119,116,139,143,513,517,490
2025-02-19 16:26:27.925,-331.0,-190.0,961.0,-3.0,0.0,0.0,144,121,118,140,145,505,514,493
2025-02-19 16:26:27.941,-332.0,-208.0,953.0,-3.0,0.0,-1.0,143,120,117,139,143,493,515,489
2025-02-19 16:26:27.962,-330.0,-210.0,948.0,-1.0,0.0,0.0,144,120,118,140,145,486,515,482
2025-02-19 16:26:27.978,-340.0,-200.0,950.0,-2.0,-1.0,0.0,143,120,117,139,144,482,511,481
2025-02-19 16:26:27.999,-336.0,-204.0,947.0,-3.0,-1.0,0.0,143,120,116,140,144,488,515,487
2025-02-19 16:26:28.019,-333.0,-207.0,944.0,-2.0,-1.0,0.0,144,121,118,141,145,502,514,485
2025-02-19 16:26:28.036,-349.0,-198.0,941.0,-1.0,-1.0,0.0,142,119,116,139,144,512,515,473
2025-02-19 16:26:28.056,-342.0,-192.0,936.0,-2.0,-2.0,0.0,144,121,118,141,145,524,514,471
2025-02-19 16:26:28.076,-336.0,-203.0,937.0,-3.0,-2.0,-1.0,143,120,116,140,144,523,515,466
2025-02-19 16:26:28.093,-331.0,-204.0,940.0,-1.0,-3.0,-1.0,143,121,117,139,145,515,515,461
2025-02-19 16:26:28.113,-327.0,-196.0,961.0,-1.0,-3.0,-1.0,144,121,117,140,144,504,515,444
2025-02-19 16:26:28.133,-317.0,-195.0,972.0,-2.0,-2.0,-1.0,143,120,116,141,144,497,516,419
2025-02-19 16:26:28.151,-323.0,-194.0,962.0,-3.0,-2.0,-1.0,144,121,118,140,145,493,516,400
2025-02-19 16:26:28.171,-335.0,-207.0,953.0,-2.0,-3.0,0.0,142,119,116,139,144,489,517,389
2025-02-19 16:26:28.191,-339.0,-194.0,947.0,-2.0,-3.0,0.0,144,121,118,140,145,492,516,393
2025-02-19 16:26:28.207,-350.0,-187.0,948.0,-1.0,-3.0,0.0,142,119,117,139,144,504,517,412
2025-02-19 16:26:28.227,-356.0,-186.0,937.0,1.0,-2.0,0.0,143,120,117,138,145,526,516,457
2025-02-19 16:26:28.245,-351.0,-170.0,934.0,1.0,-2.0,-1.0,144,121,118,140,145,555,514,516
2025-02-19 16:26:28.265,-340.0,-169.0,936.0,1.0,-2.0,-3.0,143,120,116,139,144,586,513,579
2025-02-19 16:26:28.285,-335.0,-189.0,936.0,2.0,-2.0,-4.0,144,121,118,140,144,608,511,622
2025-02-19 16:26:28.302,-325.0,-196.0,945.0,3.0,-4.0,-4.0,143,119,116,140,144,607,511,634
2025-02-19 16:26:28.322,-302.0,-198.0,968.0,0.0,-6.0,-4.0,144,121,118,141,144,593,509,614
2025-02-19 16:26:28.342,-294.0,-200.0,983.0,-3.0,-6.0,-4.0,142,119,116,137,143,566,510,557
2025-02-19 16:26:28.359,-292.0,-215.0,986.0,-2.0,-5.0,-5.0,143,120,117,140,144,541,511,480
2025-02-19 16:26:28.379,-301.0,-213.0,993.0,-2.0,-4.0,-4.0,144,118,117,140,145,518,511,407
2025-02-19 16:26:28.400,-315.0,-204.0,1008.0,-4.0,-3.0,-3.0,143,119,117,139,143,499,515,356
2025-02-19 16:26:28.417,-326.0,-208.0,1000.0,-5.0,-1.0,-1.0,144,121,117,141,144,492,516,339
2025-02-19 16:26:28.437,-336.0,-197.0,974.0,-3.0,1.0,0.0,142,119,116,137,143,497,515,370
2025-02-19 16:26:28.454,-346.0,-182.0,954.0,-1.0,3.0,-2.0,144,121,117,141,145,521,515,459
2025-02-19 16:26:28.474,-349.0,-184.0,935.0,-1.0,2.0,-3.0,143,118,116,139,143,547,513,543
2025-02-19 16:26:28.492,-327.0,-199.0,938.0,-1.0,1.0,-4.0,143,120,117,140,144,574,513,610
2025-02-19 16:26:28.511,-309.0,-211.0,941.0,-2.0,1.0,-5.0,144,121,118,141,145,585,509,650
2025-02-19 16:26:28.531,-303.0,-222.0,941.0,-4.0,0.0,-5.0,143,119,116,139,144,576,508,668
2025-02-19 16:26:28.546,-294.0,-243.0,941.0,-5.0,-1.0,-5.0,144,120,118,141,145,554,507,647
2025-02-19 16:26:28.568,-282.0,-246.0,947.0,-6.0,-1.0,-4.0,143,118,114,139,143,517,509,592
2025-02-19 16:26:28.589,-283.0,-249.0,939.0,-7.0,-1.0,-3.0,145,121,118,140,145,486,510,540
2025-02-19 16:26:28.608,-297.0,-245.0,939.0,-7.0,-3.0,-1.0,142,119,115,139,143,454,511,463
2025-02-19 16:26:28.626,-306.0,-216.0,949.0,-10.0,-3.0,0.0,144,121,117,140,145,432,514,399
2025-02-19 16:26:28.645,-333.0,-191.0,942.0,-14.0,0.0,-1.0,144,121,117,140,144,424,514,353
2025-02-19 16:26:28.662,-339.0,-227.0,958.0,-15.0,4.0,0.0,142,119,116,139,144,433,517,326
2025-02-19 16:26:28.683,-327.0,-181.0,920.0,-15.0,9.0,-3.0,140,120,117,140,144,468,517,318
2025-02-19 16:26:28.703,-362.0,-132.0,909.0,-25.0,11.0,-2.0,142,118,116,139,143,508,517,326
2025-02-19 16:26:28.720,-437.0,-43.0,788.0,-39.0,10.0,-8.0,143,119,117,139,144,551,517,347
2025-02-19 16:26:28.740,-480.0,-125.0,656.0,-51.0,1.0,-16.0,142,115,114,138,141,593,516,368
2025-02-19 16:26:28.760,-491.0,-230.0,616.0,-42.0,-28.0,-27.0,144,114,116,139,141,662,515,381
2025-02-19 16:26:28.778,-574.0,-195.0,657.0,-35.0,-63.0,-32.0,144,106,114,138,134,738,513,400
2025-02-19 16:26:28.796,-618.0,-201.0,890.0,-88.0,-103.0,-36.0,143,96,111,132,120,810,513,423
2025-02-19 16:26:28.812,-377.0,-346.0,1428.0,-175.0,-123.0,-30.0,144,89,110,124,107,869,511,448
2025-02-19 16:26:28.834,129.0,-781.0,2198.0,-279.0,-60.0,-4.0,144,81,106,109,91,906,510,447
2025-02-19 16:26:28.855,602.0,-1503.0,2444.0,-275.0,59.0,23.0,145,77,104,96,82,840,510,458
2025-02-19 16:26:28.875,542.0,-1564.0,2377.0,-195.0,180.0,57.0,143,73,100,89,75,659,510,470
2025-02-19 16:26:28.892,203.0,-1138.0,1976.0,-210.0,301.0,125.0,144,71,98,80,75,417,514,475
2025-02-19 16:26:28.912,162.0,-847.0,1375.0,-280.0,350.0,155.0,144,70,96,79,75,175,518,524
2025-02-19 16:26:28.929,70.0,-580.0,554.0,-320.0,340.0,174.0,138,70,95,74,71,17,524,583
2025-02-19 16:26:28.949,-355.0,-789.0,-33.0,-269.0,280.0,186.0,132,71,95,75,75,19,523,798
2025-02-19 16:26:28.969,-270.0,-530.0,-126.0,-202.0,247.0,207.0,127,69,94,73,72,21,521,1005
2025-02-19 16:26:28.984,-355.0,-260.0,-149.0,-133.0,214.0,200.0,125,71,96,74,73,789,518,1010
2025-02-19 16:26:29.007,-404.0,-65.0,-131.0,-108.0,190.0,181.0,122,71,95,73,73,1017,510,1010
2025-02-19 16:26:29.018,-476.0,164.0,-227.0,-81.0,166.0,151.0,120,70,95,73,73,1018,508,1010
2025-02-19 16:26:29.044,-471.0,491.0,-375.0,-56.0,125.0,127.0,128,80,104,83,82,1017,447,1010
2025-02-19 16:26:29.062,-432.0,1054.0,-583.0,-46.0,87.0,98.0,141,94,117,98,97,1017,90,950
2025-02-19 16:26:29.083,-522.0,1529.0,-989.0,25.0,16.0,45.0,156,112,135,114,116,1018,61,624
2025-02-19 16:26:29.101,-405.0,2299.0,-1457.0,132.0,-59.0,-63.0,149,106,128,107,109,1019,56,127
2025-02-19 16:26:29.121,-739.0,3158.0,-2232.0,261.0,-189.0,-330.0,146,107,129,108,109,1018,59,58
2025-02-19 16:26:29.141,-683.0,3651.0,-2733.0,250.0,-477.0,-619.0,146,108,130,109,109,1017,60,59
2025-02-19 16:26:29.158,1024.0,3777.0,-2861.0,167.0,-1009.0,-1002.0,143,104,121,104,108,1019,55,133
2025-02-19 16:26:29.178,7308.0,390.0,-1379.0,-87.0,-1342.0,-985.0,164,122,139,123,131,1018,75,239
2025-02-19 16:26:29.198,8346.0,-7253.0,4841.0,3.0,-579.0,-166.0,180,139,161,142,147,1019,91,238
2025-02-19 16:26:29.215,4398.0,-5842.0,2431.0,332.0,268.0,-25.0,116,74,99,77,89,1018,135,23
2025-02-19 16:26:29.235,1704.0,-3412.0,2088.0,322.0,239.0,105.0,111,67,91,70,76,1017,350,398
2025-02-19 16:26:29.253,1272.0,-1289.0,2530.0,-39.0,235.0,223.0,131,88,110,91,99,1017,442,1008
2025-02-19 16:26:29.273,987.0,-1894.0,1905.0,-75.0,317.0,220.0,127,83,106,86,94,1017,296,955
2025-02-19 16:26:29.293,320.0,-1287.0,721.0,-42.0,367.0,305.0,124,79,103,84,92,1017,162,418
2025-02-19 16:26:29.309,-215.0,-232.0,310.0,-79.0,317.0,322.0,123,78,101,82,90,1017,200,26
2025-02-19 16:26:29.330,-343.0,134.0,165.0,-142.0,275.0,285.0,118,75,95,79,86,1018,294,91
2025-02-19 16:26:29.347,-140.0,95.0,53.0,-159.0,243.0,268.0,121,77,99,82,90,1017,390,75
2025-02-19 16:26:29.367,-330.0,-63.0,-159.0,-134.0,196.0,265.0,119,75,96,80,88,1018,455,29
2025-02-19 16:26:29.387,-218.0,-52.0,-173.0,-88.0,148.0,256.0,121,76,99,82,92,1017,529,582
2025-02-19 16:26:29.405,26.0,56.0,98.0,-30.0,150.0,242.0,121,76,99,82,90,1018,585,1010
2025-02-19 16:26:29.424,-135.0,218.0,124.0,9.0,163.0,212.0,119,74,98,79,89,1017,651,1010
2025-02-19 16:26:29.443,-424.0,342.0,-37.0,40.0,154.0,173.0,121,76,99,82,92,1018,699,1010
2025-02-19 16:26:29.461,-467.0,557.0,-215.0,63.0,106.0,123.0,119,74,97,83,90,1018,734,1010
2025-02-19 16:26:29.482,-647.0,971.0,-442.0,54.0,35.0,80.0,121,80,99,83,93,1017,764,934
2025-02-19 16:26:29.502,-519.0,1443.0,-926.0,63.0,-21.0,23.0,121,77,99,86,93,1017,781,730
2025-02-19 16:26:29.519,-535.0,2202.0,-1493.0,178.0,-74.0,-174.0,119,76,97,83,91,1017,761,70
2025-02-19 16:26:29.539,-918.0,3303.0,-2149.0,204.0,-197.0,-453.0,131,92,111,98,105,1018,560,40
2025-02-19 16:26:29.559,-719.0,3538.0,-2492.0,76.0,-539.0,-849.0,127,88,106,92,99,1018,354,35
2025-02-19 16:26:29.576,1034.0,1437.0,-3142.0,-80.0,-1131.0,-1063.0,128,86,100,91,99,1018,249,34
2025-02-19 16:26:29.596,8288.0,-3974.0,122.0,33.0,-1338.0,-700.0,134,81,99,87,96,1018,190,28
2025-02-19 16:26:29.616,7735.0,-7750.0,4815.0,240.0,-104.0,48.0,144,94,120,102,115,1018,188,41
2025-02-19 16:26:29.633,2740.0,-2983.0,2297.0,194.0,263.0,57.0,136,86,108,93,114,1018,69,32
2025-02-19 16:26:29.653,1272.0,-2372.0,2196.0,-32.0,210.0,95.0,136,84,106,93,107,1017,30,263
2025-02-19 16:26:29.669,769.0,-2046.0,2226.0,-211.0,249.0,218.0,135,81,103,91,106,1017,61,952
2025-02-19 16:26:29.690,427.0,-1584.0,1109.0,-200.0,302.0,259.0,139,83,106,95,110,1017,226,933
2025-02-19 16:26:29.711,429.0,-1129.0,790.0,-192.0,340.0,312.0,144,86,110,100,115,1017,127,288
2025-02-19 16:26:29.728,17.0,-807.0,85.0,-189.0,298.0,358.0,139,81,103,95,108,1017,138,33
2025-02-19 16:26:29.748,-157.0,-565.0,-72.0,-225.0,228.0,377.0,143,83,105,96,107,1018,195,439
2025-02-19 16:26:29.768,36.0,-232.0,-36.0,-211.0,171.0,374.0,142,77,100,91,101,1018,286,843
2025-02-19 16:26:29.785,-13.0,-121.0,-18.0,-166.0,134.0,357.0,147,80,104,94,105,1018,379,1011
2025-02-19 16:26:29.805,-87.0,-97.0,-69.0,-89.0,79.0,326.0,161,94,117,107,119,1017,318,1010
2025-02-19 16:26:29.825,-267.0,238.0,-21.0,-67.0,66.0,287.0,162,88,112,102,113,1018,188,975
2025-02-19 16:26:29.842,-455.0,392.0,7.0,38.0,37.0,196.0,159,86,109,99,109,1018,117,928
2025-02-19 16:26:29.862,-334.0,582.0,77.0,49.0,60.0,129.0,158,82,106,95,106,1018,182,872
2025-02-19 16:26:29.879,-490.0,987.0,-27.0,35.0,46.0,79.0,162,83,107,96,106,1018,248,697
2025-02-19 16:26:29.900,-507.0,1636.0,-154.0,116.0,45.0,-23.0,160,82,106,92,101,1018,305,561
2025-02-19 16:26:29.920,-523.0,2304.0,-555.0,174.0,57.0,-188.0,161,81,105,91,97,1018,358,552
2025-02-19 16:26:29.935,-1087.0,2929.0,-1604.0,177.0,0.0,-399.0,165,87,110,95,98,1017,336,251
2025-02-19 16:26:29.954,-1399.0,3349.0,-2356.0,170.0,-287.0,-750.0,153,74,96,80,82,1017,356,21
2025-02-19 16:26:29.977,634.0,3454.0,-2217.0,-56.0,-737.0,-977.0,158,75,96,82,85,1017,397,23
2025-02-19 16:26:29.994,4907.0,981.0,-2539.0,-341.0,-1161.0,-1031.0,157,72,93,80,85,1018,543,20
2025-02-19 16:26:30.014,7473.0,-5235.0,191.0,-330.0,-818.0,-582.0,158,74,94,82,90,1017,658,99
2025-02-19 16:26:30.024,6902.0,-7156.0,1695.0,148.0,16.0,-262.0,157,73,97,82,94,1018,753,288
2025-02-19 16:26:30.050,3108.0,-4977.0,-150.0,555.0,453.0,-25.0,161,78,101,87,100,1017,757,555
2025-02-19 16:26:30.071,1063.0,-2448.0,128.0,187.0,235.0,158.0,165,82,101,91,101,1014,729,925
2025-02-19 16:26:30.092,878.0,-1617.0,811.0,-117.0,144.0,231.0,177,95,114,105,115,1016,514,1009
2025-02-19 16:26:30.109,1117.0,-2496.0,783.0,-89.0,211.0,312.0,176,95,115,104,114,1015,198,912
2025-02-19 16:26:30.129,646.0,-1554.0,310.0,-41.0,273.0,393.0,160,81,103,92,101,1016,138,209
2025-02-19 16:26:30.146,296.0,-725.0,62.0,-9.0,223.0,380.0,157,81,102,91,98,1017,203,27
2025-02-19 16:26:30.166,195.0,-200.0,283.0,27.0,203.0,290.0,156,82,103,93,99,1017,243,844
2025-02-19 16:26:30.184,92.0,-276.0,180.0,-29.0,194.0,311.0,151,80,101,91,97,1019,289,1010
2025-02-19 16:26:30.201,-139.0,-290.0,2.0,-8.0,154.0,301.0,150,80,101,91,100,1017,336,1010
2025-02-19 16:26:30.220,-70.0,-203.0,-15.0,61.0,143.0,270.0,147,76,98,87,92,1017,411,1009
2025-02-19 16:26:30.237,-127.0,63.0,73.0,26.0,132.0,282.0,149,77,98,88,94,1017,511,1010
2025-02-19 16:26:30.260,-49.0,372.0,320.0,15.0,125.0,266.0,146,74,95,86,92,1017,604,1010
2025-02-19 16:26:30.280,-470.0,420.0,108.0,23.0,130.0,201.0,146,74,96,86,93,1017,695,913
2025-02-19 16:26:30.297,-532.0,652.0,16.0,67.0,118.0,113.0,145,75,97,87,92,1017,769,793
2025-02-19 16:26:30.318,-495.0,907.0,-2.0,51.0,107.0,66.0,144,74,96,85,91,1018,830,701
2025-02-19 16:26:30.337,-572.0,1366.0,-153.0,79.0,98.0,22.0,144,75,98,86,90,1017,875,519
2025-02-19 16:26:30.354,-603.0,2304.0,-667.0,161.0,127.0,-135.0,141,73,95,84,86,1018,916,357
2025-02-19 16:26:30.374,-1164.0,2946.0,-1483.0,202.0,13.0,-358.0,140,75,96,85,85,1017,953,288
2025-02-19 16:26:30.395,-1363.0,3157.0,-2536.0,147.0,-233.0,-628.0,139,72,92,81,82,1018,982,365
2025-02-19 16:26:30.412,120.0,3791.0,-3356.0,47.0,-843.0,-1014.0,142,73,91,82,84,1018,1012,530
2025-02-19 16:26:30.432,6499.0,1582.0,-2002.0,-300.0,-1276.0,-1029.0,153,80,97,90,94,1017,970,110
2025-02-19 16:26:30.451,8697.0,-6061.0,2158.0,-518.0,-813.0,-402.0,160,80,100,92,93,1017,865,26
2025-02-19 16:26:30.469,6904.0,-7985.0,1761.0,199.0,273.0,-124.0,160,79,100,88,100,1018,804,25
2025-02-19 16:26:30.489,2819.0,-4161.0,-608.0,343.0,403.0,118.0,162,82,99,91,101,1019,713,243
2025-02-19 16:26:30.506,956.0,-1492.0,191.0,-53.0,143.0,214.0,170,90,108,99,108,1018,37,791
2025-02-19 16:26:30.526,1260.0,-2424.0,587.0,-104.0,142.0,216.0,157,74,94,84,93,1018,20,670
2025-02-19 16:26:30.546,785.0,-2437.0,360.0,-19.0,223.0,340.0,166,85,105,95,106,1018,31,89
2025-02-19 16:26:30.564,483.0,-1307.0,119.0,-25.0,234.0,398.0,174,94,113,104,114,1018,39,39
2025-02-19 16:26:30.584,738.0,-649.0,416.0,-76.0,238.0,389.0,159,78,98,88,97,1017,23,91
2025-02-19 16:26:30.603,506.0,-505.0,291.0,-107.0,239.0,380.0,161,80,101,92,101,1017,26,791
2025-02-19 16:26:30.620,166.0,-540.0,124.0,-73.0,230.0,375.0,159,78,99,90,97,1017,23,1010
2025-02-19 16:26:30.640,335.0,-307.0,61.0,-31.0,225.0,374.0,159,80,102,93,98,1017,347,1010
2025-02-19 16:26:30.661,261.0,-15.0,-41.0,50.0,188.0,374.0,157,78,100,93,98,1017,753,1010
2025-02-19 16:26:30.678,-178.0,202.0,-783.0,132.0,192.0,321.0,160,84,105,100,105,1018,833,947
2025-02-19 16:26:30.698,-351.0,273.0,-228.0,147.0,191.0,260.0,164,90,110,110,115,1018,638,721
2025-02-19 16:26:30.718,93.0,339.0,-52.0,159.0,167.0,211.0,161,89,109,114,119,1017,355,466
2025-02-19 16:26:30.735,56.0,605.0,-301.0,211.0,198.0,200.0,162,95,113,122,128,1018,28,773
2025-02-19 16:26:30.755,-387.0,760.0,-781.0,204.0,136.0,186.0,159,98,113,133,130,1018,25,1010
2025-02-19 16:26:30.772,-326.0,1062.0,-819.0,122.0,85.0,114.0,157,101,113,134,130,1017,23,1005
2025-02-19 16:26:30.793,-688.0,1403.0,-1390.0,73.0,-30.0,-16.0,153,106,111,135,130,1018,20,717
2025-02-19 16:26:30.812,-607.0,1730.0,-1698.0,98.0,-255.0,-226.0,155,117,116,142,135,1018,26,452
2025-02-19 16:26:30.829,-724.0,2141.0,-2028.0,-83.0,-378.0,-548.0,148,117,112,138,134,1017,22,64
2025-02-19 16:26:30.850,-231.0,1240.0,-984.0,-14.0,-404.0,-807.0,145,121,110,137,141,1018,22,23
2025-02-19 16:26:30.870,3454.0,1079.0,394.0,-106.0,-893.0,-999.0,148,131,113,140,145,1017,24,24
2025-02-19 16:26:30.887,5699.0,-1488.0,368.0,-126.0,-1016.0,-707.0,154,135,117,144,149,1017,258,25
2025-02-19 16:26:30.905,4680.0,-4805.0,1121.0,-166.0,-582.0,-332.0,182,160,144,169,174,1018,1018,51
2025-02-19 16:26:30.927,4005.0,-5316.0,1029.0,115.0,-117.0,42.0,177,154,137,162,167,1012,1012,232
2025-02-19 16:26:30.944,1854.0,-3575.0,784.0,239.0,219.0,159.0,163,139,123,147,152,1012,600,993
2025-02-19 16:26:30.964,779.0,-2495.0,1289.0,124.0,306.0,252.0,165,141,124,149,155,1013,28,1007
2025-02-19 16:26:30.984,320.0,-1713.0,810.0,-80.0,244.0,319.0,159,137,117,142,149,1013,20,1007
2025-02-19 16:26:31.001,133.0,-1446.0,642.0,-229.0,202.0,350.0,164,142,123,148,153,1012,26,950
2025-02-19 16:26:31.021,-56.0,-1147.0,486.0,-87.0,224.0,350.0,160,139,120,145,149,1013,23,845
2025-02-19 16:26:31.039,85.0,-807.0,37.0,-15.0,233.0,372.0,160,139,119,145,149,1013,22,822
2025-02-19 16:26:31.058,195.0,-403.0,76.0,-20.0,204.0,368.0,156,135,116,142,145,1014,19,1006
2025-02-19 16:26:31.079,-84.0,-206.0,119.0,-56.0,165.0,356.0,159,140,121,146,150,1015,23,791
2025-02-19 16:26:31.096,-244.0,-44.0,-304.0,9.0,100.0,313.0,159,140,122,147,150,1014,23,792
2025-02-19 16:26:31.116,185.0,98.0,199.0,14.0,119.0,268.0,157,139,122,147,151,1016,24,1006
2025-02-19 16:26:31.136,-586.0,-56.0,-481.0,78.0,122.0,232.0,162,145,127,152,156,1015,30,1008
2025-02-19 16:26:31.153,-372.0,301.0,-105.0,156.0,73.0,211.0,159,141,126,150,153,1015,27,1008
2025-02-19 16:26:31.172,-448.0,595.0,-16.0,187.0,72.0,165.0,159,141,126,150,153,1019,28,1007
2025-02-19 16:26:31.193,-539.0,1037.0,-575.0,190.0,22.0,111.0,159,140,127,151,154,1015,27,901
2025-02-19 16:26:31.210,-581.0,1472.0,-792.0,248.0,-14.0,-18.0,155,139,125,149,152,1015,27,317
2025-02-19 16:26:31.231,-793.0,2313.0,-1336.0,199.0,-113.0,-250.0,148,133,119,144,147,1015,19,20
2025-02-19 16:26:31.251,-1028.0,1844.0,-1209.0,35.0,-198.0,-602.0,147,133,117,142,146,1015,19,18
2025-02-19 16:26:31.261,-99.0,1035.0,-403.0,33.0,-419.0,-801.0,149,139,122,146,151,1015,22,373
2025-02-19 16:26:31.288,-565.0,363.0,161.0,94.0,-924.0,-845.0,148,139,120,144,149,1016,20,804
2025-02-19 16:26:31.304,4803.0,-2870.0,115.0,-151.0,-923.0,-572.0,150,141,121,145,150,1014,21,768
2025-02-19 16:26:31.324,4641.0,-4800.0,1860.0,-29.0,-386.0,-94.0,154,142,123,146,152,1015,21,481
2025-02-19 16:26:31.345,2330.0,-4288.0,1843.0,185.0,131.0,142.0,155,143,124,147,153,1015,22,536
2025-02-19 16:26:31.362,724.0,-2123.0,1232.0,208.0,210.0,123.0,161,147,129,152,157,1015,28,1007
2025-02-19 16:26:31.382,191.0,-1545.0,1041.0,-96.0,167.0,148.0,163,149,130,152,158,1015,28,1007
2025-02-19 16:26:31.401,197.0,-1952.0,869.0,-232.0,100.0,181.0,167,153,134,157,163,1015,33,1008
2025-02-19 16:26:31.420,180.0,-1843.0,357.0,-82.0,102.0,226.0,171,155,138,162,167,1016,39,395
2025-02-19 16:26:31.440,158.0,-1355.0,423.0,-26.0,194.0,291.0,167,149,133,158,162,1016,35,34
2025-02-19 16:26:31.456,351.0,-917.0,341.0,2.0,211.0,317.0,165,143,130,155,158,1015,33,33
2025-02-19 16:26:31.474,173.0,-549.0,400.0,-24.0,209.0,323.0,163,135,126,151,151,1016,31,30
2025-02-19 16:26:31.496,-26.0,-541.0,119.0,-36.0,153.0,322.0,165,128,126,149,144,1015,32,32
2025-02-19 16:26:31.511,49.0,-361.0,-4.0,-45.0,104.0,314.0,160,112,118,137,127,1016,26,26
2025-02-19 16:26:31.534,60.0,-242.0,436.0,-34.0,109.0,312.0,162,105,120,137,120,1016,29,28
2025-02-19 16:26:31.554,-108.0,-229.0,303.0,23.0,165.0,298.0,165,101,122,124,120,1011,32,422
2025-02-19 16:26:31.571,17.0,155.0,2.0,87.0,173.0,253.0,170,98,124,125,119,1017,35,1009
2025-02-19 16:26:31.591,-305.0,699.0,-102.0,25.0,175.0,183.0,169,93,122,117,117,1017,34,1009
2025-02-19 16:26:31.611,-464.0,1472.0,-191.0,29.0,184.0,59.0,161,83,111,100,106,1016,26,1009
2025-02-19 16:26:31.628,-505.0,2558.0,-672.0,103.0,140.0,-148.0,158,81,106,92,97,1015,26,1007
2025-02-19 16:26:31.648,-1024.0,2842.0,-2186.0,108.0,40.0,-410.0,157,80,103,86,91,1017,28,617
2025-02-19 16:26:31.668,-991.0,2436.0,-2343.0,146.0,-286.0,-655.0,160,87,106,91,94,1016,39,85
2025-02-19 16:26:31.685,-146.0,2786.0,-2491.0,127.0,-712.0,-794.0,151,73,91,78,83,1016,25,25
2025-02-19 16:26:31.705,3373.0,1962.0,-2013.0,-209.0,-1029.0,-762.0,159,77,92,83,90,1016,28,28
2025-02-19 16:26:31.723,5576.0,-1259.0,84.0,-619.0,-1002.0,-701.0,163,80,97,87,93,1016,31,31
2025-02-19 16:26:31.740,6520.0,-6423.0,1036.0,-518.0,-413.0,-289.0,154,75,94,82,91,1016,26,25
2025-02-19 16:26:31.757,4136.0,-6471.0,-288.0,329.0,356.0,-50.0,146,69,87,76,89,1017,17,428
2025-02-19 16:26:31.780,1611.0,-2805.0,-1299.0,237.0,333.0,117.0,145,65,82,73,85,1016,14,1008
2025-02-19 16:26:31.800,619.0,-2003.0,-692.0,-63.0,80.0,177.0,148,68,87,76,88,1016,16,1008
2025-02-19 16:26:31.820,907.0,-2803.0,158.0,-38.0,59.0,222.0,149,67,87,76,87,1016,15,865
2025-02-19 16:26:31.836,846.0,-2384.0,-53.0,54.0,115.0,323.0,148,68,86,76,87,1016,15,508
2025-02-19 16:26:31.856,750.0,-1560.0,54.0,97.0,128.0,370.0,149,66,85,76,86,1016,13,144
2025-02-19 16:26:31.873,807.0,-686.0,360.0,146.0,165.0,298.0,147,64,84,75,85,1016,11,12
2025-02-19 16:26:31.894,349.0,-498.0,279.0,95.0,231.0,277.0,148,66,86,76,85,1016,13,12
2025-02-19 16:26:31.915,118.0,-421.0,169.0,15.0,176.0,305.0,147,65,85,75,83,1017,12,11
2025-02-19 16:26:31.931,149.0,-361.0,197.0,-23.0,141.0,313.0,148,66,85,76,83,1016,12,304
2025-02-19 16:26:31.951,164.0,72.0,330.0,50.0,157.0,290.0,148,65,85,75,82,1016,11,941
2025-02-19 16:26:31.971,-297.0,500.0,20.0,84.0,198.0,199.0,147,65,86,76,82,1017,12,1008
2025-02-19 16:26:31.988,-600.0,636.0,-15.0,-5.0,162.0,166.0,147,66,86,76,82,1016,11,1008
2025-02-19 16:26:32.009,-638.0,716.0,-146.0,14.0,112.0,93.0,146,65,88,76,81,1016,11,989
2025-02-19 16:26:32.029,-684.0,1154.0,-110.0,34.0,75.0,-8.0,144,66,86,76,82,1017,12,855
2025-02-19 16:26:32.046,-708.0,1570.0,-249.0,65.0,81.0,-134.0,144,65,85,75,81,1017,11,536
2025-02-19 16:26:32.066,-1116.0,1774.0,-744.0,67.0,22.0,-245.0,142,66,86,76,82,1017,11,199
2025-02-19 16:26:32.086,-1086.0,2212.0,-1255.0,110.0,-107.0,-377.0,142,66,85,75,81,1017,11,112
2025-02-19 16:26:32.103,-699.0,2695.0,-1785.0,72.0,-372.0,-594.0,144,65,83,75,81,1016,11,421
2025-02-19 16:26:32.123,782.0,2442.0,-1763.0,-120.0,-624.0,-780.0,146,66,82,76,83,1016,12,914
2025-02-19 16:26:32.143,3615.0,-168.0,-1280.0,-254.0,-806.0,-758.0,146,59,81,76,85,1017,10,1009
2025-02-19 16:26:32.161,6364.0,-3718.0,1315.0,-324.0,-446.0,-480.0,147,66,84,77,87,1016,12,681
2025-02-19 16:26:32.181,5979.0,-6577.0,533.0,36.0,104.0,-140.0,147,65,85,76,87,1016,11,399
2025-02-19 16:26:32.196,2271.0,-4522.0,-1217.0,275.0,251.0,91.0,148,66,83,77,89,1017,11,549
2025-02-19 16:26:32.218,985.0,-2456.0,-474.0,35.0,49.0,180.0,148,67,84,78,88,1017,12,966
2025-02-19 16:26:32.238,1243.0,-2355.0,157.0,-29.0,36.0,206.0,148,65,85,77,87,1016,11,688
2025-02-19 16:26:32.255,1056.0,-2437.0,168.0,29.0,113.0,281.0,149,68,90,81,89,1016,13,13
2025-02-19 16:26:32.275,952.0,-1791.0,179.0,100.0,182.0,340.0,147,67,91,83,88,1017,11,10
2025-02-19 16:26:32.295,873.0,-1122.0,160.0,165.0,213.0,359.0,148,71,95,87,91,1017,12,92
2025-02-19 16:26:32.310,628.0,-652.0,189.0,119.0,241.0,376.0,145,70,93,86,88,1017,11,9
2025-02-19 16:26:32.327,646.0,-486.0,342.0,96.0,280.0,378.0,144,73,94,86,89,1016,10,10
2025-02-19 16:26:32.350,532.0,-402.0,100.0,75.0,286.0,395.0,143,79,97,88,89,1015,11,10
2025-02-19 16:26:32.369,298.0,-75.0,8.0,91.0,288.0,403.0,141,86,98,91,89,1017,11,9
2025-02-19 16:26:32.389,239.0,220.0,41.0,105.0,295.0,386.0,143,95,101,95,92,1017,11,10
2025-02-19 16:26:32.406,52.0,222.0,-117.0,100.0,283.0,363.0,142,98,102,97,92,1016,11,23
2025-02-19 16:26:32.425,8.0,506.0,-334.0,117.0,288.0,370.0,143,104,104,99,95,1015,11,349
2025-02-19 16:26:32.447,-272.0,797.0,-717.0,144.0,262.0,316.0,143,109,103,97,95,1016,11,801
2025-02-19 16:26:32.464,-668.0,1194.0,-1146.0,183.0,170.0,202.0,144,113,104,98,97,1017,11,1008
2025-02-19 16:26:32.484,-948.0,1753.0,-1602.0,176.0,20.0,53.0,143,116,105,96,98,1017,11,862
2025-02-19 16:26:32.504,-830.0,2080.0,-1822.0,114.0,-154.0,-219.0,144,119,105,91,95,1016,11,737
2025-02-19 16:26:32.521,-705.0,1989.0,-1893.0,163.0,-394.0,-469.0,142,122,107,89,91,1016,12,798
2025-02-19 16:26:32.541,-725.0,1556.0,-1882.0,165.0,-675.0,-668.0,137,122,106,88,88,1017,10,845
2025-02-19 16:26:32.562,1447.0,2109.0,-1891.0,2.0,-1072.0,-764.0,135,126,108,88,89,1016,12,760
2025-02-19 16:26:32.577,4408.0,-167.0,-488.0,-242.0,-1306.0,-729.0,133,130,109,91,94,1017,9,622
2025-02-19 16:26:32.598,5216.0,-3480.0,1175.0,-356.0,-800.0,-365.0,134,135,110,97,101,1016,11,982
2025-02-19 16:26:32.618,5449.0,-4862.0,1096.0,-102.0,-240.0,27.0,133,137,111,98,108,1017,758,1009
2025-02-19 16:26:32.636,3543.0,-3514.0,1299.0,181.0,184.0,68.0,134,135,111,95,106,1016,910,1008
2025-02-19 16:26:32.655,1391.0,-2293.0,1220.0,181.0,332.0,93.0,144,144,122,101,118,1016,22,1009
2025-02-19 16:26:32.673,821.0,-1706.0,848.0,20.0,287.0,221.0,142,143,119,100,112,1017,20,1010
2025-02-19 16:26:32.692,695.0,-1399.0,479.0,-62.0,238.0,273.0,138,139,114,100,106,1016,12,987
2025-02-19 16:26:32.713,617.0,-1347.0,470.0,-28.0,256.0,291.0,134,136,111,96,101,1016,10,175
2025-02-19 16:26:32.730,523.0,-938.0,349.0,8.0,303.0,320.0,140,142,118,101,98,1016,17,18
2025-02-19 16:26:32.749,179.0,-521.0,245.0,65.0,307.0,347.0,142,144,120,104,97,1016,21,78
2025-02-19 16:26:32.767,33.0,-35.0,193.0,52.0,282.0,352.0,146,148,124,106,102,1017,25,25
2025-02-19 16:26:32.787,86.0,-58.0,188.0,38.0,293.0,336.0,145,145,122,104,97,1020,22,22
2025-02-19 16:26:32.808,-262.0,226.0,24.0,22.0,251.0,310.0,143,143,121,101,93,1016,20,20
2025-02-19 16:26:32.824,-312.0,374.0,-98.0,0.0,187.0,256.0,143,143,121,100,93,1016,19,206
2025-02-19 16:26:32.843,-442.0,486.0,-98.0,37.0,147.0,189.0,142,141,119,98,93,1016,17,17
2025-02-19 16:26:32.861,-534.0,520.0,-163.0,87.0,149.0,101.0,143,141,120,98,96,1016,19,18
2025-02-19 16:26:32.880,-679.0,1017.0,-542.0,57.0,104.0,34.0,143,140,120,96,95,1016,19,24
2025-02-19 16:26:32.901,-912.0,1235.0,-1027.0,54.0,-21.0,-87.0,140,139,119,92,94,1017,16,84
2025-02-19 16:26:32.922,-1017.0,1532.0,-1348.0,137.0,-195.0,-251.0,140,140,120,93,95,1016,18,111
2025-02-19 16:26:32.939,-1129.0,1866.0,-1475.0,214.0,-422.0,-528.0,138,139,119,91,92,1016,17,126
2025-02-19 16:26:32.958,-179.0,2312.0,-1578.0,88.0,-840.0,-705.0,137,141,119,94,95,1016,18,427
2025-02-19 16:26:32.979,2358.0,835.0,-358.0,-184.0,-1042.0,-735.0,136,141,119,95,96,1016,17,752
2025-02-19 16:26:32.996,4916.0,-2800.0,1239.0,-49.0,-664.0,-446.0,136,142,120,99,104,1016,512,749
2025-02-19 16:26:33.015,4992.0,-4533.0,2201.0,64.0,-144.0,-60.0,138,143,120,101,114,1015,1016,868
2025-02-19 16:26:33.036,2889.0,-2979.0,2270.0,127.0,164.0,59.0,138,142,120,100,115,1017,993,785
2025-02-19 16:26:33.054,886.0,-1870.0,1615.0,15.0,144.0,71.0,139,142,120,101,113,1016,19,1009
2025-02-19 16:26:33.074,708.0,-1866.0,1311.0,-129.0,100.0,138.0,143,147,124,105,118,1016,23,1009
2025-02-19 16:26:33.091,682.0,-1856.0,1162.0,-132.0,167.0,199.0,139,142,118,101,113,1017,17,812
2025-02-19 16:26:33.111,500.0,-1509.0,864.0,-69.0,218.0,222.0,140,140,117,103,114,1016,17,290
2025-02-19 16:26:33.130,264.0,-929.0,861.0,-54.0,269.0,239.0,143,137,116,105,116,1017,17,426
2025-02-19 16:26:33.147,270.0,-548.0,643.0,-123.0,290.0,262.0,153,142,126,119,126,1016,28,440
2025-02-19 16:26:33.166,-64.0,-559.0,553.0,-175.0,284.0,288.0,151,129,121,121,122,1016,24,255
2025-02-19 16:26:33.188,214.0,-525.0,406.0,-191.0,252.0,311.0,154,117,122,125,123,1016,26,254
2025-02-19 16:26:33.206,-175.0,-646.0,416.0,-208.0,223.0,351.0,153,102,116,121,117,1017,23,356
2025-02-19 16:26:33.225,380.0,-474.0,277.0,-175.0,213.0,354.0,156,93,116,120,113,1017,23,654
2025-02-19 16:26:33.244,-116.0,-97.0,42.0,-131.0,184.0,332.0,158,86,114,115,108,1016,24,1008
2025-02-19 16:26:33.262,-97.0,184.0,5.0,-71.0,213.0,244.0,159,80,113,111,102,1017,320,1009
2025-02-19 16:26:33.282,-772.0,477.0,-120.0,-27.0,166.0,177.0,161,79,112,108,101,1016,758,1009
2025-02-19 16:26:33.298,-639.0,1231.0,-405.0,54.0,32.0,77.0,158,74,106,98,96,1017,726,1009
2025-02-19 16:26:33.317,-448.0,2033.0,-931.0,107.0,11.0,-84.0,154,73,103,94,91,1016,21,986
2025-02-19 16:26:33.340,-913.0,2663.0,-1534.0,117.0,-50.0,-274.0,156,80,108,95,91,1017,27,899
2025-02-19 16:26:33.356,-882.0,2544.0,-1658.0,120.0,-233.0,-523.0,143,66,94,80,77,1016,15,523
2025-02-19 16:26:33.377,-298.0,2406.0,-1483.0,77.0,-426.0,-765.0,146,67,92,80,78,1016,14,463
2025-02-19 16:26:33.397,2258.0,1903.0,-1201.0,-101.0,-701.0,-914.0,157,72,97,87,86,1016,21,871
2025-02-19 16:26:33.414,4691.0,-455.0,-455.0,-421.0,-821.0,-808.0,159,72,95,88,89,1017,20,1006
2025-02-19 16:26:33.434,5497.0,-6487.0,2303.0,-303.0,-488.0,-374.0,156,70,93,85,90,1016,357,794
2025-02-19 16:26:33.454,4380.0,-6046.0,740.0,191.0,167.0,-101.0,150,68,92,85,90,1017,1017,426
2025-02-19 16:26:33.472,2009.0,-3475.0,-861.0,285.0,271.0,46.0,144,69,91,85,92,1017,1017,794
2025-02-19 16:26:33.491,710.0,-1904.0,-654.0,33.0,94.0,157.0,140,64,87,82,86,1016,687,1008
2025-02-19 16:26:33.508,936.0,-2333.0,324.0,-68.0,48.0,177.0,139,66,89,83,86,1016,12,995
2025-02-19 16:26:33.528,831.0,-2375.0,131.0,-26.0,104.0,283.0,136,65,87,82,85,1016,10,955
2025-02-19 16:26:33.549,474.0,-1777.0,-80.0,26.0,97.0,332.0,137,66,89,83,87,1016,12,1008
2025-02-19 16:26:33.565,489.0,-870.0,89.0,106.0,91.0,290.0,136,66,89,82,86,1017,11,997
2025-02-19 16:26:33.586,365.0,-487.0,274.0,85.0,109.0,257.0,138,68,91,84,87,1016,13,696
2025-02-19 16:26:33.606,204.0,-421.0,287.0,35.0,122.0,253.0,135,66,90,83,85,1016,177,221
2025-02-19 16:26:33.623,-33.0,-372.0,200.0,-5.0,107.0,264.0,135,67,91,85,86,1017,873,114
2025-02-19 16:26:33.643,-167.0,-77.0,163.0,25.0,76.0,201.0,134,67,90,84,85,1016,960,98
2025-02-19 16:26:33.660,-255.0,186.0,235.0,5.0,65.0,161.0,134,66,90,83,85,1017,978,385
2025-02-19 16:26:33.681,-174.0,160.0,368.0,-16.0,77.0,132.0,134,67,91,84,85,1017,872,556
2025-02-19 16:26:33.698,-279.0,196.0,249.0,-24.0,103.0,118.0,133,66,90,83,86,1017,10,677
2025-02-19 16:26:33.715,-553.0,722.0,162.0,-19.0,112.0,78.0,133,67,91,84,85,1016,11,1006
2025-02-19 16:26:33.736,-864.0,1416.0,-77.0,55.0,103.0,-29.0,131,66,90,83,82,1016,9,1009
2025-02-19 16:26:33.757,-1168.0,1924.0,-510.0,87.0,54.0,-157.0,131,67,91,84,83,1016,73,952
2025-02-19 16:26:33.775,-1251.0,2381.0,-920.0,118.0,-37.0,-309.0,132,67,91,84,84,1016,355,897
2025-02-19 16:26:33.794,-974.0,2090.0,-1097.0,134.0,-192.0,-534.0,132,66,89,83,84,1016,10,808
2025-02-19 16:26:33.816,750.0,2052.0,-893.0,2.0,-437.0,-692.0,134,67,90,85,87,1017,12,903
2025-02-19 16:26:33.832,3324.0,-1129.0,249.0,-259.0,-566.0,-623.0,133,67,84,84,87,1016,10,984
2025-02-19 16:26:33.853,5377.0,-4274.0,1328.0,-325.0,-187.0,-385.0,131,67,84,83,86,1016,47,679
2025-02-19 16:26:33.872,4208.0,-6265.0,-96.0,55.0,150.0,-88.0,128,66,85,82,86,1017,844,8
2025-02-19 16:26:33.890,1837.0,-3750.0,-783.0,163.0,155.0,128.0,129,67,85,82,87,1016,1017,9
2025-02-19 16:26:33.909,803.0,-2266.0,-160.0,45.0,66.0,146.0,130,67,86,83,87,1016,1016,10
2025-02-19 16:26:33.926,658.0,-2214.0,102.0,21.0,54.0,159.0,130,66,86,82,85,1016,233,65
2025-02-19 16:26:33.946,530.0,-2163.0,194.0,65.0,76.0,213.0,131,67,88,83,86,1017,10,8
2025-02-19 16:26:33.966,378.0,-1693.0,208.0,54.0,79.0,274.0,131,66,87,83,87,1017,9,8
2025-02-19 16:26:33.983,619.0,-1278.0,425.0,48.0,86.0,304.0,131,67,87,85,89,1016,9,8
2025-02-19 16:26:34.003,614.0,-990.0,593.0,75.0,116.0,289.0,130,67,88,87,92,1016,9,8
2025-02-19 16:26:34.024,659.0,-969.0,546.0,90.0,167.0,305.0,129,67,88,88,95,1017,168,8
2025-02-19 16:26:34.040,573.0,-789.0,520.0,88.0,209.0,330.0,129,68,89,91,96,1016,846,129
2025-02-19 16:26:34.060,549.0,-586.0,476.0,71.0,253.0,345.0,129,67,88,91,96,1016,1017,439
2025-02-19 16:26:34.081,0.0,-205.0,160.0,56.0,263.0,355.0,132,69,90,92,98,1017,1017,962
2025-02-19 16:26:34.098,177.0,-112.0,264.0,29.0,232.0,363.0,132,68,89,93,97,1016,1008,1009
2025-02-19 16:26:34.118,401.0,75.0,3.0,31.0,255.0,345.0,131,68,89,92,95,1016,9,1008
2025-02-19 16:26:34.135,61.0,4.0,-293.0,72.0,237.0,336.0,129,68,89,91,91,1016,8,1009
2025-02-19 16:26:34.153,-429.0,898.0,-699.0,103.0,174.0,282.0,122,67,87,87,87,1017,109,1009
2025-02-19 16:26:34.175,-500.0,1684.0,-845.0,116.0,100.0,137.0,116,66,87,83,82,1016,270,1009
2025-02-19 16:26:34.189,-646.0,2966.0,-1847.0,173.0,30.0,-193.0,106,66,84,78,75,1017,20,1000
2025-02-19 16:26:34.212,-969.0,3075.0,-2753.0,118.0,-237.0,-455.0,102,64,83,77,73,1016,8,940
2025-02-19 16:26:34.232,-723.0,1869.0,-3023.0,205.0,-593.0,-594.0,101,63,82,76,72,1017,8,753
2025-02-19 16:26:34.249,1514.0,1587.0,-2493.0,235.0,-991.0,-601.0,103,63,82,79,75,1016,8,770
2025-02-19 16:26:34.270,4972.0,-1233.0,2073.0,306.0,-1047.0,-397.0,111,67,87,81,83,1016,10,1009
2025-02-19 16:26:34.290,4872.0,-1856.0,4920.0,-124.0,-273.0,-127.0,110,69,88,80,83,1017,9,947
2025-02-19 16:26:34.308,2525.0,-4461.0,3548.0,-14.0,113.0,-136.0,109,69,91,83,86,1015,839,867
2025-02-19 16:26:34.327,1267.0,-2910.0,2698.0,34.0,219.0,42.0,112,69,90,84,87,1016,1017,1009
2025-02-19 16:26:34.347,376.0,-1500.0,1904.0,-190.0,209.0,75.0,114,70,91,85,88,1016,1016,1009
2025-02-19 16:26:34.364,459.0,-2007.0,1213.0,-241.0,218.0,115.0,112,67,88,82,85,1016,944,385
2025-02-19 16:26:34.383,111.0,-1605.0,637.0,-179.0,230.0,174.0,114,67,88,82,86,1017,644,10
2025-02-19 16:26:34.400,-170.0,-1199.0,189.0,-81.0,191.0,194.0,113,67,88,83,86,1016,9,9
2025-02-19 16:26:34.420,-142.0,-583.0,385.0,-59.0,171.0,157.0,112,67,88,83,85,1017,9,8
2025-02-19 16:26:34.442,-64.0,-381.0,526.0,-114.0,180.0,160.0,112,67,88,83,87,1016,335,9
2025-02-19 16:26:34.455,-272.0,-495.0,156.0,-108.0,158.0,177.0,112,66,88,83,86,1017,1017,8
2025-02-19 16:26:34.478,-266.0,-412.0,82.0,-87.0,94.0,193.0,112,67,89,84,87,1016,733,8
2025-02-19 16:26:34.498,-37.0,-153.0,300.0,-35.0,102.0,153.0,109,66,87,83,85,1016,1016,8
2025-02-19 16:26:34.516,-321.0,111.0,114.0,-21.0,115.0,105.0,109,67,88,83,85,1016,1017,415
2025-02-19 16:26:34.533,-376.0,64.0,57.0,-55.0,109.0,95.0,110,67,89,83,85,1016,1017,1008
2025-02-19 16:26:34.553,-423.0,62.0,-115.0,-51.0,114.0,82.0,110,67,88,83,83,1016,1017,1009
2025-02-19 16:26:34.572,-543.0,41.0,-261.0,38.0,92.0,61.0,110,68,89,84,83,1018,1018,1009
2025-02-19 16:26:34.593,-583.0,555.0,-532.0,92.0,71.0,30.0,109,67,88,83,82,1017,977,1009
2025-02-19 16:26:34.606,-721.0,1092.0,-1072.0,91.0,5.0,-12.0,108,67,88,83,81,1016,1016,984
2025-02-19 16:26:34.630,-1013.0,1458.0,-2049.0,212.0,-111.0,-140.0,105,66,86,82,78,1017,8,853
2025-02-19 16:26:34.650,-1287.0,1574.0,-2852.0,316.0,-454.0,-313.0,106,67,83,81,78,1017,9,750
2025-02-19 16:26:34.668,-228.0,1368.0,-2551.0,379.0,-842.0,-386.0,109,66,83,81,80,1017,9,943
2025-02-19 16:26:34.685,2723.0,404.0,-977.0,264.0,-1146.0,-343.0,115,65,82,82,83,1017,8,979
2025-02-19 16:26:34.708,5256.0,-2449.0,3368.0,163.0,-834.0,-127.0,122,66,87,81,86,1016,8,331
2025-02-19 16:26:34.724,5093.0,-2440.0,4930.0,79.0,-84.0,-19.0,120,66,88,80,85,1017,731,7
2025-02-19 16:26:34.745,2234.0,-2788.0,4005.0,109.0,242.0,-84.0,119,67,89,82,87,1016,1017,8
2025-02-19 16:26:34.765,1169.0,-2116.0,2951.0,54.0,341.0,30.0,119,66,87,81,86,1016,1018,6
2025-02-19 16:26:34.782,330.0,-1155.0,1922.0,-107.0,347.0,82.0,123,68,89,84,89,1016,776,9
2025-02-19 16:26:34.802,249.0,-1353.0,1226.0,-173.0,328.0,150.0,125,68,90,84,91,1017,10,10
2025-02-19 16:26:34.819,346.0,-1084.0,894.0,-137.0,346.0,182.0,126,68,90,85,91,1017,9,9
2025-02-19 16:26:34.840,140.0,-978.0,413.0,-46.0,374.0,190.0,128,68,90,87,92,1016,10,239
2025-02-19 16:26:34.859,-70.0,-537.0,111.0,-1.0,355.0,210.0,131,67,90,84,91,1017,232,616
2025-02-19 16:26:34.877,-190.0,-175.0,89.0,-6.0,294.0,200.0,133,68,91,87,92,1016,10,851
2025-02-19 16:26:34.897,41.0,-42.0,158.0,-14.0,263.0,188.0,133,69,91,86,93,1016,8,1008
2025-02-19 16:26:34.916,-242.0,-191.0,70.0,8.0,254.0,190.0,134,75,91,89,96,1016,154,1009
2025-02-19 16:26:34.933,-160.0,-186.0,-61.0,36.0,253.0,197.0,134,82,90,90,96,1016,1017,1009
2025-02-19 16:26:34.954,-125.0,42.0,-133.0,68.0,255.0,197.0,132,89,91,88,95,1017,1017,1009
2025-02-19 16:26:34.974,-261.0,195.0,-341.0,44.0,217.0,198.0,132,94,91,89,94,1017,1017,1009
2025-02-19 16:26:34.991,-673.0,264.0,-1292.0,55.0,121.0,141.0,127,96,87,85,88,1017,1017,1009
2025-02-19 16:26:35.012,-1451.0,781.0,-2635.0,239.0,-175.0,13.0,119,100,83,79,81,1016,1017,1009
2025-02-19 16:26:35.031,-1487.0,1186.0,-2669.0,291.0,-525.0,-146.0,114,106,83,77,78,1007,626,975
2025-02-19 16:26:35.049,178.0,973.0,-3832.0,220.0,-1061.0,-155.0,105,109,84,75,74,978,11,704
2025-02-19 16:26:35.068,3121.0,162.0,-2868.0,289.0,-1378.0,-51.0,105,111,86,77,78,953,12,874
2025-02-19 16:26:35.086,4357.0,-244.0,41.0,500.0,-1242.0,9.0,110,113,87,78,81,944,10,1009
2025-02-19 16:26:35.104,3989.0,646.0,2752.0,535.0,-782.0,66.0,126,119,93,86,92,889,14,1009
2025-02-19 16:26:35.126,3868.0,2041.0,5033.0,270.0,-273.0,68.0,127,118,92,85,94,833,12,1008
2025-02-19 16:26:35.143,3078.0,1739.0,4811.0,-89.0,161.0,5.0,125,119,92,86,94,812,12,862
2025-02-19 16:26:35.163,2093.0,1099.0,2893.0,-217.0,311.0,-25.0,124,121,95,89,97,735,998,180
2025-02-19 16:26:35.182,1285.0,381.0,2049.0,-198.0,391.0,-62.0,124,121,95,90,96,673,1017,15
2025-02-19 16:26:35.200,824.0,150.0,1732.0,-195.0,463.0,-96.0,167,163,139,134,139,454,1017,62
2025-02-19 16:26:35.220,610.0,-408.0,948.0,-189.0,486.0,-61.0,173,172,149,146,149,76,1017,76
2025-02-19 16:26:35.238,291.0,-362.0,292.0,-119.0,413.0,-16.0,161,161,141,138,139,68,1016,68
2025-02-19 16:26:35.257,64.0,99.0,454.0,-108.0,323.0,-10.0,156,153,138,135,134,63,1016,63
2025-02-19 16:26:35.277,19.0,115.0,707.0,-152.0,318.0,-18.0,159,152,139,135,136,63,1016,233
2025-02-19 16:26:35.297,-24.0,-207.0,186.0,-105.0,300.0,-1.0,162,152,141,137,139,66,1016,382
2025-02-19 16:26:35.314,-215.0,-78.0,194.0,-31.0,227.0,19.0,195,187,177,174,174,105,1017,663
2025-02-19 16:26:35.335,-345.0,197.0,394.0,-76.0,194.0,24.0,170,163,153,150,150,79,1017,1010
2025-02-19 16:26:35.352,-125.0,112.0,305.0,-119.0,204.0,8.0,161,150,143,140,140,67,1017,1010
2025-02-19 16:26:35.372,-306.0,-147.0,126.0,-62.0,206.0,-5.0,161,150,143,142,140,68,1017,1009
2025-02-19 16:26:35.392,-470.0,-82.0,-4.0,-6.0,173.0,-1.0,135,126,118,117,115,41,1017,1009
2025-02-19 16:26:35.408,-528.0,51.0,-162.0,-4.0,115.0,-10.0,130,124,113,112,111,37,771,944
2025-02-19 16:26:35.429,-676.0,36.0,-306.0,-23.0,76.0,-6.0,128,124,112,112,109,36,565,558
2025-02-19 16:26:35.449,-786.0,197.0,-861.0,-15.0,9.0,-20.0,124,120,109,110,106,33,35,270
2025-02-19 16:26:35.467,-1385.0,-156.0,-2312.0,154.0,-254.0,-72.0,120,118,107,109,102,36,35,140
2025-02-19 16:26:35.486,-1003.0,121.0,-3380.0,355.0,-693.0,-32.0,124,128,112,115,107,43,43,347
2025-02-19 16:26:35.506,920.0,747.0,-2696.0,299.0,-1074.0,27.0,128,133,115,116,109,44,43,741
2025-02-19 16:26:35.523,2686.0,-15.0,76.0,223.0,-1100.0,101.0,126,131,114,110,106,37,38,707
2025-02-19 16:26:35.544,3897.0,-218.0,3251.0,245.0,-639.0,138.0,132,130,115,108,109,35,34,332
2025-02-19 16:26:35.559,3668.0,845.0,4775.0,109.0,-189.0,18.0,131,128,113,107,111,56,32,260
2025-02-19 16:26:35.580,2296.0,774.0,4091.0,-7.0,93.0,-29.0,131,126,113,107,110,108,912,199
2025-02-19 16:26:35.601,1470.0,594.0,3121.0,-145.0,197.0,-18.0,142,134,122,116,120,42,1016,41
2025-02-19 16:26:35.618,1078.0,133.0,2426.0,-201.0,290.0,1.0,150,134,124,118,122,43,1017,43
2025-02-19 16:26:35.638,553.0,-216.0,1883.0,-217.0,398.0,20.0,167,144,137,133,135,55,1016,55
2025-02-19 16:26:35.658,514.0,-318.0,1223.0,-178.0,455.0,41.0,164,138,133,131,131,51,1017,103
2025-02-19 16:26:35.675,299.0,-237.0,1038.0,-159.0,453.0,52.0,156,130,128,124,124,46,1016,304
2025-02-19 16:26:35.692,539.0,-32.0,1033.0,-188.0,490.0,70.0,148,117,118,115,115,51,1017,628
2025-02-19 16:26:35.715,582.0,121.0,729.0,-231.0,511.0,82.0,146,111,115,112,111,84,1017,847
2025-02-19 16:26:35.732,187.0,28.0,491.0,-236.0,483.0,76.0,151,114,116,113,113,131,1017,977
2025-02-19 16:26:35.752,50.0,-349.0,224.0,-149.0,463.0,80.0,150,112,113,113,112,185,1017,1009
2025-02-19 16:26:35.772,-83.0,-398.0,-104.0,-45.0,412.0,74.0,153,115,117,118,117,237,1017,1009
2025-02-19 16:26:35.789,-766.0,-61.0,-5.0,-82.0,382.0,82.0,150,111,113,117,115,285,753,1009
2025-02-19 16:26:35.807,-152.0,126.0,-257.0,-127.0,355.0,75.0,152,111,116,122,117,336,139,932
2025-02-19 16:26:35.826,-572.0,-409.0,-599.0,48.0,207.0,47.0,165,123,129,140,133,320,45,748
2025-02-19 16:26:35.847,-1028.0,18.0,-1013.0,64.0,63.0,45.0,145,107,111,126,121,339,23,452
2025-02-19 16:26:35.867,-928.0,-144.0,-554.0,-26.0,30.0,37.0,135,98,101,119,115,638,12,277
2025-02-19 16:26:35.884,-486.0,426.0,-595.0,-9.0,-78.0,-15.0,134,95,101,122,119,928,11,272
2025-02-19 16:26:35.904,-526.0,355.0,-822.0,-6.0,-145.0,-72.0,133,100,103,126,123,1017,11,216
2025-02-19 16:26:35.925,-990.0,510.0,-1645.0,-104.0,-255.0,-157.0,132,107,103,128,125,1016,9,59
2025-02-19 16:26:35.941,-588.0,1022.0,-2716.0,-261.0,-411.0,-408.0,133,113,102,129,124,1016,10,10
2025-02-19 16:26:35.961,-798.0,789.0,-1784.0,5.0,-533.0,-567.0,134,117,102,130,127,1016,41,16
2025-02-19 16:26:35.982,1054.0,2331.0,-1723.0,68.0,-1017.0,-708.0,133,120,102,130,130,1016,961,403
2025-02-19 16:26:35.999,3214.0,-649.0,407.0,-279.0,-1021.0,-631.0,137,124,104,131,135,1016,1017,489
2025-02-19 16:26:36.018,4431.0,-3908.0,2392.0,-220.0,-682.0,-199.0,138,126,106,134,140,1016,1016,221
2025-02-19 16:26:36.039,2888.0,-4358.0,2410.0,-106.0,-24.0,108.0,138,127,107,135,140,1015,1017,155
2025-02-19 16:26:36.055,1333.0,-2644.0,1228.0,105.0,134.0,109.0,139,126,107,135,140,1015,1017,727
2025-02-19 16:26:36.076,21.0,-1315.0,1346.0,29.0,161.0,87.0,141,127,108,135,139,1016,1017,1008
2025-02-19 16:26:36.092,425.0,-1556.0,1178.0,-162.0,180.0,148.0,141,128,107,135,140,1016,1016,1004
2025-02-19 16:26:36.110,298.0,-1839.0,793.0,-180.0,196.0,233.0,140,129,110,137,147,1016,1017,312
2025-02-19 16:26:36.133,-213.0,-1380.0,505.0,-71.0,206.0,263.0,139,129,110,137,141,1016,363,10
2025-02-19 16:26:36.150,487.0,-651.0,602.0,-70.0,263.0,264.0,137,128,109,136,140,1016,10,116
2025-02-19 16:26:36.170,-89.0,-684.0,307.0,-36.0,213.0,246.0,137,128,109,136,140,1016,10,10
2025-02-19 16:26:36.190,-124.0,-642.0,183.0,-4.0,187.0,242.0,135,127,109,136,140,1016,10,10
2025-02-19 16:26:36.208,111.0,-382.0,131.0,59.0,170.0,230.0,134,127,108,135,139,1017,9,9
2025-02-19 16:26:36.226,-2.0,-112.0,86.0,6.0,142.0,221.0,136,129,111,137,141,1016,12,107
2025-02-19 16:26:36.245,-161.0,-12.0,117.0,-39.0,158.0,199.0,135,128,109,137,140,1017,10,330
2025-02-19 16:26:36.264,-484.0,-137.0,-30.0,-30.0,169.0,180.0,134,127,110,137,140,1016,11,469
2025-02-19 16:26:36.285,-411.0,-315.0,-177.0,19.0,148.0,156.0,133,126,109,136,139,1016,11,550
2025-02-19 16:26:36.302,-379.0,4.0,65.0,85.0,112.0,137.0,132,124,109,137,138,1016,11,27
2025-02-19 16:26:36.322,-463.0,220.0,45.0,70.0,110.0,117.0,135,126,111,139,140,1016,13,83
2025-02-19 16:26:36.341,-516.0,749.0,-293.0,95.0,68.0,76.0,134,124,110,137,139,1016,11,128
2025-02-19 16:26:36.359,-792.0,998.0,-359.0,129.0,4.0,-31.0,138,129,116,142,143,985,17,80
2025-02-19 16:26:36.379,-1061.0,1829.0,-1351.0,212.0,-126.0,-277.0,149,140,123,152,154,899,30,101
2025-02-19 16:26:36.399,-1329.0,1975.0,-1504.0,196.0,-326.0,-545.0,147,138,121,148,151,775,42,310
2025-02-19 16:26:36.417,-1439.0,2600.0,-938.0,323.0,-795.0,-780.0,143,139,121,147,149,693,306,685
2025-02-19 16:26:36.437,3290.0,386.0,-41.0,-47.0,-984.0,-718.0,132,135,114,141,144,741,1014,1008
2025-02-19 16:26:36.457,4527.0,-3263.0,1425.0,-164.0,-901.0,-523.0,132,137,114,141,146,803,1017,1008
2025-02-19 16:26:36.473,3764.0,-5235.0,2101.0,-54.0,-392.0,-36.0,130,137,114,139,146,837,1013,1006
2025-02-19 16:26:36.494,2661.0,-4167.0,1208.0,213.0,170.0,106.0,132,136,114,139,146,882,117,1008
2025-02-19 16:26:36.511,1276.0,-2291.0,958.0,349.0,325.0,97.0,128,132,110,134,140,931,9,1008
2025-02-19 16:26:36.529,370.0,-1466.0,1036.0,248.0,324.0,118.0,129,132,108,132,137,1014,9,1007
2025-02-19 16:26:36.551,231.0,-1322.0,827.0,145.0,309.0,134.0,129,131,100,128,130,1016,8,988
2025-02-19 16:26:36.566,59.0,-884.0,908.0,20.0,285.0,187.0,130,131,100,125,119,1016,10,551
2025-02-19 16:26:36.589,254.0,-886.0,642.0,-13.0,281.0,209.0,130,129,99,122,104,1016,9,324
2025-02-19 16:26:36.608,251.0,-860.0,633.0,35.0,312.0,210.0,130,125,99,120,100,1016,8,192
2025-02-19 16:26:36.626,181.0,-807.0,-73.0,120.0,338.0,213.0,132,121,98,114,97,1017,8,32
2025-02-19 16:26:36.645,212.0,-115.0,469.0,123.0,361.0,213.0,130,115,95,104,92,1016,7,6
2025-02-19 16:26:36.662,14.0,-10.0,270.0,100.0,369.0,204.0,131,110,94,98,89,1016,7,8
2025-02-19 16:26:36.682,-116.0,-16.0,6.0,65.0,341.0,193.0,130,105,91,89,79,1016,170,44
2025-02-19 16:26:36.703,-275.0,142.0,-232.0,45.0,301.0,182.0,131,103,89,83,72,1016,345,218
2025-02-19 16:26:36.720,-327.0,189.0,-453.0,45.0,261.0,170.0,129,100,87,76,69,1016,346,789
2025-02-19 16:26:36.739,-327.0,420.0,-736.0,57.0,187.0,129.0,123,97,85,71,66,1016,203,1009
2025-02-19 16:26:36.759,-582.0,547.0,-909.0,35.0,70.0,80.0,113,95,85,69,65,1016,30,969
2025-02-19 16:26:36.775,-1159.0,501.0,-1982.0,53.0,-154.0,-49.0,99,88,77,62,60,1016,7,577
2025-02-19 16:26:36.797,-1638.0,564.0,-2919.0,206.0,-617.0,-167.0,89,89,74,59,59,1016,8,255
2025-02-19 16:26:36.817,149.0,1076.0,-3141.0,207.0,-1084.0,-143.0,83,95,76,59,62,1017,7,77
2025-02-19 16:26:36.834,2968.0,-144.0,-1569.0,133.0,-1383.0,-35.0,84,101,78,62,65,1016,84,86
2025-02-19 16:26:36.854,4880.0,-1305.0,1430.0,340.0,-1157.0,61.0,89,107,82,65,70,1016,810,443
2025-02-19 16:26:36.875,3686.0,126.0,4675.0,442.0,-469.0,19.0,95,110,84,68,79,1016,1017,1009
2025-02-19 16:26:36.891,2689.0,1682.0,4900.0,41.0,118.0,-68.0,94,111,84,69,84,1015,1017,1009
2025-02-19 16:26:36.912,1610.0,524.0,3120.0,-164.0,264.0,-48.0,93,107,83,70,83,1016,1016,1009
2025-02-19 16:26:36.928,949.0,87.0,2329.0,-169.0,271.0,-18.0,94,104,85,71,80,1016,1017,1008
2025-02-19 16:26:36.948,608.0,14.0,1877.0,-190.0,312.0,-28.0,98,104,88,74,82,1013,1016,382
2025-02-19 16:26:36.968,434.0,-217.0,1386.0,-199.0,382.0,-27.0,106,112,95,83,90,928,1016,117
2025-02-19 16:26:36.983,141.0,-534.0,982.0,-154.0,398.0,4.0,106,114,95,84,88,788,1016,20
2025-02-19 16:26:37.006,-157.0,-341.0,600.0,-85.0,345.0,15.0,101,111,93,82,83,695,719,18
2025-02-19 16:26:37.026,-28.0,-242.0,636.0,-59.0,258.0,22.0,103,111,95,83,85,627,255,19
2025-02-19 16:26:37.043,31.0,-57.0,740.0,-113.0,251.0,32.0,104,108,95,83,86,572,105,18
2025-02-19 16:26:37.063,-243.0,-312.0,523.0,-109.0,230.0,46.0,105,107,96,84,88,525,19,19
2025-02-19 16:26:37.080,-174.0,-300.0,517.0,-49.0,206.0,60.0,106,110,97,85,88,491,20,215
2025-02-19 16:26:37.098,-181.0,-25.0,491.0,-57.0,198.0,64.0,107,110,97,85,88,426,21,833
2025-02-19 16:26:37.120,-270.0,3.0,475.0,-63.0,189.0,40.0,109,111,98,87,90,379,22,1009
2025-02-19 16:26:37.137,-319.0,-126.0,396.0,-70.0,189.0,20.0,109,112,99,87,89,329,21,1009
2025-02-19 16:26:37.157,-455.0,-209.0,214.0,-71.0,180.0,34.0,111,114,99,88,91,289,22,983
2025-02-19 16:26:37.176,-657.0,-227.0,-36.0,-48.0,136.0,53.0,108,111,97,86,88,263,20,931
2025-02-19 16:26:37.195,-637.0,-9.0,-260.0,-12.0,73.0,42.0,108,110,97,87,88,248,21,782
2025-02-19 16:26:37.215,-664.0,419.0,-771.0,20.0,19.0,-10.0,108,109,97,87,89,240,21,399
2025-02-19 16:26:37.235,-1378.0,329.0,-2107.0,141.0,-220.0,-138.0,103,106,92,83,84,242,19,20
2025-02-19 16:26:37.250,-1319.0,363.0,-2813.0,346.0,-643.0,-160.0,102,105,91,82,82,242,21,21
2025-02-19 16:26:37.273,800.0,1294.0,-2619.0,335.0,-1073.0,-83.0,103,114,96,86,87,229,25,24
2025-02-19 16:26:37.284,3155.0,-49.0,-1065.0,244.0,-1227.0,-18.0,107,113,98,88,89,169,499,24
2025-02-19 16:26:37.309,4067.0,-1018.0,4000.0,280.0,-739.0,115.0,111,116,100,87,93,140,1017,65
2025-02-19 16:26:37.329,3625.0,893.0,5380.0,8.0,-56.0,42.0,114,117,102,91,100,117,1017,407
2025-02-19 16:26:37.350,2219.0,235.0,3954.0,-170.0,214.0,-28.0,117,118,105,93,104,60,1017,1004
2025-02-19 16:26:37.365,1224.0,-237.0,3055.0,-133.0,306.0,-24.0,114,112,101,89,98,45,1017,1010
2025-02-19 16:26:37.386,756.0,-114.0,2232.0,-227.0,384.0,-24.0,120,111,101,93,97,78,1016,927
2025-02-19 16:26:37.401,565.0,-391.0,1410.0,-287.0,432.0,-6.0,123,109,100,94,96,123,966,465
2025-02-19 16:26:37.423,293.0,-616.0,1025.0,-299.0,449.0,31.0,128,111,102,97,95,163,532,134
2025-02-19 16:26:37.442,251.0,-635.0,666.0,-280.0,451.0,84.0,128,109,100,93,91,202,306,30
2025-02-19 16:26:37.461,271.0,-335.0,608.0,-255.0,446.0,124.0,133,110,102,96,94,239,21,89
2025-02-19 16:26:37.481,276.0,-211.0,419.0,-236.0,429.0,130.0,135,111,104,98,98,267,53,20
2025-02-19 16:26:37.498,-210.0,-603.0,-92.0,-177.0,377.0,157.0,136,110,104,99,97,296,747,72
2025-02-19 16:26:37.519,-297.0,-433.0,129.0,-98.0,306.0,187.0,137,114,108,102,96,316,1018,297
2025-02-19 16:26:37.539,-188.0,-110.0,-2.0,-99.0,273.0,166.0,137,113,109,101,92,333,1018,710
2025-02-19 16:26:37.556,97.0,18.0,-112.0,-79.0,282.0,138.0,140,117,113,103,93,348,859,932
2025-02-19 16:26:37.576,-433.0,-104.0,-227.0,-7.0,282.0,121.0,138,118,110,102,92,369,265,995
2025-02-19 16:26:37.595,-509.0,102.0,-668.0,49.0,192.0,89.0,139,121,111,105,94,398,19,950
2025-02-19 16:26:37.612,-864.0,315.0,-1335.0,74.0,62.0,75.0,142,125,114,107,95,379,20,677
2025-02-19 16:26:37.632,-728.0,688.0,-1447.0,107.0,-90.0,2.0,138,124,110,103,91,482,16,308
2025-02-19 16:26:37.652,-888.0,1100.0,-1806.0,149.0,-292.0,-129.0,137,126,109,95,87,568,14,72
2025-02-19 16:26:37.669,-1204.0,1805.0,-2149.0,188.0,-582.0,-390.0,133,126,108,90,81,645,13,12
2025-02-19 16:26:37.690,-378.0,1960.0,-2318.0,76.0,-1017.0,-539.0,130,129,110,95,89,714,13,13
2025-02-19 16:26:37.710,3346.0,1627.0,-1881.0,-134.0,-1347.0,-570.0,129,130,110,98,93,776,12,10
2025-02-19 16:26:37.728,4320.0,-2632.0,1499.0,-264.0,-1144.0,-328.0,137,135,113,103,93,825,1016,13
2025-02-19 16:26:37.748,5213.0,-4166.0,2977.0,-155.0,-352.0,-29.0,135,139,116,107,108,833,1017,33
2025-02-19 16:26:37.767,3359.0,-3417.0,2690.0,178.0,202.0,23.0,133,136,113,104,111,857,1016,948
2025-02-19 16:26:37.785,881.0,-1663.0,2050.0,240.0,354.0,-4.0,144,146,124,113,116,844,1017,1009
2025-02-19 16:26:37.805,446.0,-1168.0,1490.0,-13.0,244.0,78.0,151,154,131,118,122,554,1017,1009
2025-02-19 16:26:37.824,619.0,-1341.0,1359.0,-145.0,225.0,152.0,144,148,125,113,115,408,1016,884
2025-02-19 16:26:37.842,289.0,-1293.0,739.0,-114.0,267.0,197.0,139,144,122,109,110,356,1017,267
2025-02-19 16:26:37.862,175.0,-967.0,635.0,-28.0,301.0,210.0,140,146,124,110,109,313,22,45
2025-02-19 16:26:37.879,-93.0,-510.0,425.0,20.0,302.0,196.0,144,148,126,112,107,261,24,539
2025-02-19 16:26:37.898,-189.0,-346.0,294.0,-7.0,261.0,189.0,141,146,123,110,102,234,22,150
2025-02-19 16:26:37.919,-110.0,-178.0,260.0,-33.0,206.0,182.0,139,145,124,108,101,238,21,20
2025-02-19 16:26:37.936,-266.0,-70.0,261.0,-50.0,181.0,185.0,140,148,126,109,102,242,22,24
2025-02-19 16:26:37.956,-367.0,-55.0,318.0,-42.0,167.0,168.0,139,146,124,108,101,220,21,168
2025-02-19 16:26:37.976,-316.0,-48.0,359.0,-44.0,180.0,141.0,139,144,123,107,101,259,20,604
2025-02-19 16:26:37.994,-390.0,-21.0,104.0,-43.0,157.0,120.0,139,144,123,107,101,296,20,995
2025-02-19 16:26:38.013,-408.0,167.0,-97.0,-51.0,110.0,92.0,140,144,124,107,101,326,21,1008
2025-02-19 16:26:38.031,-551.0,292.0,-154.0,-52.0,76.0,44.0,138,142,122,104,97,353,19,991
2025-02-19 16:26:38.050,-796.0,472.0,-584.0,-3.0,10.0,-26.0,141,146,126,105,101,329,23,411
2025-02-19 16:26:38.071,-1012.0,1118.0,-1000.0,157.0,-93.0,-167.0,141,146,127,103,103,274,23,252
2025-02-19 16:26:38.090,-1242.0,1929.0,-1277.0,186.0,-322.0,-407.0,140,144,126,103,103,255,24,298
2025-02-19 16:26:38.108,-683.0,1766.0,-1303.0,50.0,-639.0,-572.0,139,143,126,103,101,250,454,380
2025-02-19 16:26:38.128,2128.0,701.0,-879.0,-103.0,-940.0,-636.0,138,142,124,105,102,262,1017,341
2025-02-19 16:26:38.145,3587.0,-2463.0,1032.0,-146.0,-762.0,-467.0,139,144,126,107,108,281,1017,73
2025-02-19 16:26:38.165,3849.0,-3631.0,2138.0,-31.0,-272.0,-93.0,138,143,122,108,114,306,1017,20
2025-02-19 16:26:38.186,2744.0,-3328.0,2136.0,134.0,98.0,13.0,139,144,125,109,118,344,1017,383
2025-02-19 16:26:38.202,1240.0,-2090.0,1697.0,159.0,204.0,37.0,146,150,129,115,123,341,1017,1010
2025-02-19 16:26:38.223,639.0,-1549.0,1468.0,23.0,169.0,90.0,135,139,118,105,110,452,1017,1009
2025-02-19 16:26:38.236,604.0,-1826.0,1222.0,-9.0,189.0,136.0,136,140,118,106,110,555,1017,981
2025-02-19 16:26:38.254,595.0,-1606.0,962.0,42.0,239.0,179.0,136,137,115,105,110,639,1004,778
2025-02-19 16:26:38.279,553.0,-1139.0,792.0,95.0,281.0,193.0,138,136,114,106,109,715,13,573
2025-02-19 16:26:38.296,391.0,-836.0,658.0,122.0,311.0,182.0,138,134,110,107,106,783,12,277
2025-02-19 16:26:38.317,217.0,-565.0,706.0,104.0,343.0,185.0,140,133,107,111,104,837,14,32
2025-02-19 16:26:38.337,222.0,-491.0,698.0,41.0,358.0,214.0,140,129,103,108,101,882,21,12
2025-02-19 16:26:38.354,198.0,-450.0,378.0,33.0,361.0,243.0,142,125,99,103,98,917,393,272
2025-02-19 16:26:38.374,-8.0,-242.0,168.0,52.0,344.0,252.0,143,120,95,98,92,942,649,496
2025-02-19 16:26:38.394,-79.0,-45.0,-210.0,61.0,334.0,229.0,142,118,91,93,87,960,1013,1005
2025-02-19 16:26:38.411,-295.0,168.0,-281.0,92.0,314.0,209.0,140,117,92,90,86,974,896,1009
2025-02-19 16:26:38.431,-307.0,446.0,-567.0,76.0,262.0,166.0,133,114,90,87,83,988,573,1009
2025-02-19 16:26:38.448,-623.0,515.0,-690.0,37.0,169.0,128.0,127,112,89,86,83,999,16,1008
2025-02-19 16:26:38.468,-882.0,500.0,-1817.0,89.0,9.0,13.0,115,110,83,80,83,1009,12,808
2025-02-19 16:26:38.487,-1392.0,666.0,-2549.0,250.0,-347.0,-137.0,106,107,80,77,75,1016,12,456
2025-02-19 16:26:38.505,-1095.0,855.0,-3189.0,243.0,-767.0,-179.0,99,108,80,75,73,1017,12,295
2025-02-19 16:26:38.527,1581.0,693.0,-3002.0,197.0,-1193.0,-104.0,94,111,76,75,74,1017,61,331
2025-02-19 16:26:38.546,4018.0,-572.0,-1428.0,266.0,-1335.0,26.0,98,115,84,77,77,1017,636,172
2025-02-19 16:26:38.563,4291.0,-1046.0,1974.0,481.0,-1001.0,91.0,106,117,85,79,83,1017,1018,490
2025-02-19 16:26:38.583,4019.0,830.0,4716.0,317.0,-323.0,73.0,117,123,91,84,94,1006,1017,875
2025-02-19 16:26:38.603,2761.0,1552.0,5062.0,-68.0,114.0,-19.0,115,124,87,85,95,984,1018,1009
2025-02-19 16:26:38.620,1918.0,636.0,3083.0,-223.0,309.0,-24.0,121,125,98,93,101,891,1017,978
2025-02-19 16:26:38.640,1194.0,162.0,2041.0,-190.0,334.0,-26.0,121,120,100,96,101,774,1016,381
2025-02-19 16:26:38.661,753.0,-162.0,1697.0,-171.0,395.0,-52.0,117,110,93,92,96,691,1018,14
2025-02-19 16:26:38.677,484.0,-235.0,958.0,-153.0,425.0,-35.0,124,118,100,99,101,627,1015,72
2025-02-19 16:26:38.697,37.0,-558.0,543.0,-89.0,377.0,26.0,117,118,96,96,96,547,1016,192
2025-02-19 16:26:38.714,-67.0,-171.0,335.0,-59.0,276.0,46.0,118,122,98,99,95,482,403,114
2025-02-19 16:26:38.734,-100.0,192.0,626.0,-104.0,227.0,19.0,116,122,96,97,94,427,19,19
2025-02-19 16:26:38.755,53.0,-5.0,609.0,-118.0,229.0,7.0,121,130,100,100,98,393,21,20
2025-02-19 16:26:38.772,-200.0,-286.0,343.0,-45.0,212.0,23.0,118,123,97,97,96,387,18,44
2025-02-19 16:26:38.791,-319.0,30.0,310.0,0.0,165.0,19.0,118,125,98,98,97,401,19,26
2025-02-19 16:26:38.812,-298.0,215.0,358.0,-55.0,135.0,1.0,116,126,96,96,95,455,661,403
2025-02-19 16:26:38.829,-316.0,7.0,330.0,-89.0,120.0,-26.0,116,123,94,94,94,498,1005,1005
2025-02-19 16:26:38.849,-342.0,-58.0,224.0,-91.0,105.0,-31.0,118,123,95,95,95,541,344,1009
2025-02-19 16:26:38.866,-437.0,-134.0,65.0,-66.0,82.0,-25.0,116,124,93,94,93,581,14,854
2025-02-19 16:26:38.885,-542.0,162.0,-278.0,-37.0,38.0,-45.0,115,125,93,94,93,619,15,496
2025-02-19 16:26:38.905,-1111.0,172.0,-1730.0,73.0,-148.0,-117.0,115,125,90,92,91,647,15,606
2025-02-19 16:26:38.927,-1145.0,294.0,-2154.0,230.0,-475.0,-137.0,112,124,88,87,85,673,14,543
2025-02-19 16:26:38.944,215.0,589.0,-1746.0,148.0,-796.0,-49.0,119,134,96,94,92,636,23,101
2025-02-19 16:26:38.963,1510.0,-471.0,-647.0,148.0,-891.0,5.0,116,132,93,89,89,576,17,17
2025-02-19 16:26:38.981,2602.0,-796.0,1318.0,381.0,-727.0,-11.0,120,133,96,92,92,558,180,18
2025-02-19 16:26:39.001,3016.0,641.0,3232.0,348.0,-466.0,-35.0,127,133,97,92,95,540,1013,40
2025-02-19 16:26:39.021,2910.0,351.0,4375.0,109.0,-100.0,-34.0,129,134,98,92,95,526,1017,152
2025-02-19 16:26:39.038,2198.0,265.0,3768.0,-103.0,138.0,5.0,131,134,98,91,96,542,1017,15
2025-02-19 16:26:39.056,1474.0,30.0,2446.0,-194.0,235.0,30.0,134,132,97,91,95,587,1017,32
2025-02-19 16:26:39.078,1008.0,-382.0,1941.0,-199.0,312.0,48.0,138,132,97,94,97,620,1016,191
2025-02-19 16:26:39.096,792.0,-414.0,1477.0,-191.0,368.0,59.0,140,131,98,96,99,644,726,343
2025-02-19 16:26:39.115,546.0,-356.0,1063.0,-203.0,401.0,84.0,144,133,101,100,104,606,19,543
2025-02-19 16:26:39.135,414.0,-366.0,1012.0,-246.0,424.0,124.0,145,132,102,101,103,580,17,786
2025-02-19 16:26:39.152,294.0,-225.0,943.0,-270.0,440.0,160.0,144,121,100,101,103,577,289,868
2025-02-19 16:26:39.170,428.0,38.0,714.0,-298.0,441.0,162.0,146,104,101,102,105,575,333,1008
2025-02-19 16:26:39.190,238.0,-240.0,584.0,-294.0,422.0,163.0,144,88,100,100,105,575,486,1009
2025-02-19 16:26:39.210,-79.0,-171.0,61.0,-246.0,378.0,166.0,146,83,101,105,106,581,874,1008
2025-02-19 16:26:39.230,-198.0,-323.0,19.0,-218.0,331.0,163.0,144,77,101,105,104,591,15,914
2025-02-19 16:26:39.248,54.0,77.0,227.0,-164.0,304.0,147.0,146,73,102,107,102,600,16,945
2025-02-19 16:26:39.267,-355.0,-18.0,-333.0,-180.0,262.0,139.0,146,69,103,108,101,603,17,959
2025-02-19 16:26:39.287,-584.0,13.0,-383.0,-102.0,193.0,83.0,144,64,99,99,92,625,15,793
2025-02-19 16:26:39.296,-750.0,603.0,-587.0,-104.0,107.0,35.0,142,64,99,93,89,662,16,242
2025-02-19 16:26:39.324,-601.0,1525.0,-725.0,-38.0,72.0,-93.0,140,64,98,90,86,598,17,15
2025-02-19 16:26:39.344,-895.0,2041.0,-1649.0,109.0,-37.0,-283.0,129,64,94,86,84,584,357,18
2025-02-19 16:26:39.359,-1273.0,2152.0,-1967.0,168.0,-253.0,-472.0,117,62,89,81,81,574,1016,16
2025-02-19 16:26:39.382,-216.0,2237.0,-1912.0,153.0,-619.0,-717.0,115,63,88,82,84,570,1017,17
2025-02-19 16:26:39.401,1507.0,1404.0,-1733.0,-26.0,-985.0,-806.0,117,64,86,84,86,567,1018,17
2025-02-19 16:26:39.419,5403.0,-2368.0,801.0,-151.0,-1055.0,-515.0,119,63,83,81,87,589,1017,105
2025-02-19 16:26:39.437,5581.0,-5217.0,2567.0,-155.0,-234.0,-102.0,117,64,88,82,92,622,1017,254
2025-02-19 16:26:39.456,3289.0,-4828.0,1625.0,223.0,213.0,-29.0,116,65,89,83,97,647,1017,783
2025-02-19 16:26:39.476,1163.0,-3104.0,1070.0,269.0,307.0,136.0,117,64,87,82,93,662,1017,1010
2025-02-19 16:26:39.496,490.0,-1256.0,1097.0,18.0,254.0,184.0,116,62,86,78,94,705,1018,1009
2025-02-19 16:26:39.513,508.0,-1609.0,1000.0,-108.0,213.0,187.0,117,60,87,83,95,749,1017,1009
2025-02-19 16:26:39.534,479.0,-1779.0,614.0,-94.0,253.0,257.0,120,67,91,87,100,767,743,619
2025-02-19 16:26:39.550,114.0,-1145.0,224.0,-24.0,249.0,302.0,118,64,89,85,96,761,14,25
2025-02-19 16:26:39.569,105.0,-475.0,266.0,-2.0,245.0,289.0,119,65,90,86,95,764,15,57
2025-02-19 16:26:39.590,-116.0,-101.0,147.0,-40.0,217.0,269.0,118,64,89,85,93,772,257,90
2025-02-19 16:26:39.607,-375.0,-68.0,-10.0,-63.0,148.0,246.0,120,65,90,87,94,775,1010,104
2025-02-19 16:26:39.627,-291.0,-76.0,121.0,-22.0,105.0,193.0,119,64,89,85,92,781,739,299
2025-02-19 16:26:39.648,-244.0,31.0,236.0,30.0,128.0,125.0,119,65,90,85,92,799,14,259
2025-02-19 16:26:39.665,-381.0,56.0,118.0,21.0,134.0,110.0,119,65,90,86,92,814,314,327
2025-02-19 16:26:39.684,-338.0,135.0,26.0,-14.0,127.0,97.0,121,64,90,85,93,825,184,991
2025-02-19 16:26:39.705,-609.0,59.0,-51.0,-18.0,85.0,83.0,122,65,91,86,94,833,14,1009
2025-02-19 16:26:39.722,-478.0,126.0,91.0,4.0,87.0,42.0,122,64,90,85,93,839,13,1009
2025-02-19 16:26:39.742,-682.0,213.0,-31.0,45.0,92.0,16.0,123,65,92,86,93,843,13,922
2025-02-19 16:26:39.762,-660.0,564.0,-366.0,108.0,80.0,-15.0,134,78,104,98,104,711,26,546
2025-02-19 16:26:39.779,-1334.0,1398.0,-1473.0,236.0,-8.0,-163.0,125,74,98,91,95,644,26,119
2025-02-19 16:26:39.799,-1747.0,1853.0,-2877.0,387.0,-322.0,-315.0,143,98,120,111,115,378,285,65
2025-02-19 16:26:39.818,-780.0,2273.0,-2739.0,381.0,-781.0,-458.0,141,95,113,107,110,44,526,374
2025-02-19 16:26:39.835,2992.0,1220.0,-1617.0,173.0,-1229.0,-456.0,148,94,112,109,115,44,888,455
2025-02-19 16:26:39.856,5708.0,-3059.0,2261.0,186.0,-991.0,-189.0,142,87,105,96,103,29,1017,238
2025-02-19 16:26:39.875,5261.0,-2626.0,4891.0,295.0,24.0,-13.0,143,81,109,98,111,30,1016,45
2025-02-19 16:26:39.894,1794.0,-1066.0,3600.0,121.0,232.0,-107.0,134,72,98,89,101,26,959,261
2025-02-19 16:26:39.914,435.0,-1109.0,2480.0,-81.0,227.0,22.0,127,65,90,84,94,207,1017,681
2025-02-19 16:26:39.931,61.0,-563.0,1629.0,-206.0,188.0,29.0,129,67,92,87,97,316,1017,252
2025-02-19 16:26:39.951,-76.0,-1064.0,953.0,-130.0,187.0,21.0,126,65,90,85,95,432,1018,12
2025-02-19 16:26:39.970,-230.0,-969.0,554.0,63.0,195.0,10.0,125,67,89,85,94,580,155,10
2025-02-19 16:26:39.988,-505.0,-433.0,268.0,117.0,158.0,-3.0,128,64,89,86,96,680,12,11
2025-02-19 16:26:40.008,-339.0,-260.0,152.0,145.0,53.0,-22.0,130,65,89,87,97,751,13,42
2025-02-19 16:26:40.025,-138.0,-378.0,422.0,195.0,-4.0,-27.0,131,64,89,88,98,810,12,11
2025-02-19 16:26:40.043,-33.0,-292.0,620.0,287.0,2.0,-53.0,132,64,89,89,99,861,12,11
2025-02-19 16:26:40.065,-121.0,-63.0,735.0,323.0,26.0,-78.0,135,64,90,89,100,906,365,12
2025-02-19 16:26:40.082,-111.0,319.0,981.0,255.0,53.0,-88.0,135,64,89,88,99,949,725,10
2025-02-19 16:26:40.102,-30.0,170.0,1081.0,213.0,95.0,-118.0,138,65,90,90,100,980,1016,84
2025-02-19 16:26:40.122,38.0,-72.0,1006.0,232.0,124.0,-134.0,138,64,89,88,99,1002,619,354
2025-02-19 16:26:40.140,-130.0,-179.0,843.0,241.0,108.0,-139.0,141,65,89,89,98,1015,215,726
2025-02-19 16:26:40.160,-204.0,-170.0,837.0,203.0,52.0,-116.0,146,67,91,90,98,997,749,1012
2025-02-19 16:26:40.180,30.0,-488.0,1048.0,145.0,-18.0,-84.0,147,66,88,88,94,976,1017,947
2025-02-19 16:26:40.197,624.0,-1284.0,1617.0,117.0,-1.0,-3.0,155,72,94,93,100,929,1017,877
2025-02-19 16:26:40.217,846.0,-1674.0,1829.0,62.0,42.0,60.0,152,66,88,87,93,893,1017,938
2025-02-19 16:26:40.238,1036.0,-2364.0,1489.0,-11.0,89.0,197.0,152,65,88,86,92,895,12,957
2025-02-19 16:26:40.254,1803.0,-2638.0,2232.0,-124.0,150.0,421.0,152,65,89,86,90,904,12,1001
2025-02-19 16:26:40.274,2127.0,-2114.0,1708.0,-246.0,206.0,666.0,154,66,90,87,89,888,15,1009
2025-02-19 16:26:40.292,2135.0,-1440.0,1619.0,-248.0,124.0,792.0,154,67,91,84,88,879,9,981
2025-02-19 16:26:40.312,1854.0,780.0,1527.0,-382.0,85.0,762.0,154,64,89,82,86,871,426,1009
2025-02-19 16:26:40.332,1602.0,1836.0,1594.0,-417.0,14.0,675.0,154,65,90,82,86,864,865,1008
2025-02-19 16:26:40.349,1525.0,2817.0,1549.0,-307.0,6.0,455.0,153,65,90,81,87,851,880,1010
2025-02-19 16:26:40.369,853.0,2924.0,1672.0,62.0,44.0,178.0,155,67,93,83,90,831,985,1007
2025-02-19 16:26:40.389,674.0,3166.0,1703.0,101.0,86.0,79.0,175,90,116,105,112,606,1015,1008
2025-02-19 16:26:40.406,461.0,2940.0,1490.0,23.0,110.0,-56.0,176,91,116,105,112,235,1016,1008
2025-02-19 16:26:40.424,361.0,2092.0,1048.0,0.0,118.0,-139.0,187,103,127,117,124,50,1016,1009
2025-02-19 16:26:40.446,159.0,1239.0,714.0,55.0,109.0,-217.0,212,130,155,146,151,79,1017,1005
2025-02-19 16:26:40.463,88.0,690.0,461.0,124.0,53.0,-242.0,189,106,131,122,127,55,1017,822
2025-02-19 16:26:40.483,-153.0,357.0,390.0,145.0,-35.0,-263.0,191,108,133,124,128,59,1017,539
2025-02-19 16:26:40.503,-30.0,227.0,442.0,196.0,-121.0,-298.0,199,117,142,133,139,66,1017,395
2025-02-19 16:26:40.520,-31.0,266.0,505.0,269.0,-171.0,-339.0,196,112,138,130,136,62,1017,453
2025-02-19 16:26:40.541,109.0,-168.0,829.0,353.0,-167.0,-341.0,197,113,138,132,137,62,1017,132
2025-02-19 16:26:40.557,37.0,193.0,692.0,357.0,-173.0,-327.0,200,118,141,137,142,68,1017,68
2025-02-19 16:26:40.577,34.0,334.0,990.0,253.0,-227.0,-321.0,206,125,146,142,149,75,1017,75
2025-02-19 16:26:40.598,315.0,-101.0,1323.0,111.0,-260.0,-289.0,220,139,159,157,163,90,1017,90
2025-02-19 16:26:40.615,556.0,-1064.0,1832.0,82.0,-196.0,-240.0,161,74,96,94,100,63,1017,21
2025-02-19 16:26:40.635,973.0,-1960.0,2118.0,98.0,-44.0,-107.0,160,74,98,94,99,260,1016,20
2025-02-19 16:26:40.655,838.0,-1674.0,2054.0,1.0,9.0,0.0,170,84,106,104,109,396,1017,35
2025-02-19 16:26:40.672,1492.0,-2737.0,2252.0,-51.0,62.0,214.0,173,88,109,106,112,235,1017,34
2025-02-19 16:26:40.692,1713.0,-2858.0,2227.0,-128.0,147.0,445.0,169,83,106,103,107,212,1017,88
2025-02-19 16:26:40.712,2031.0,-1177.0,1839.0,-248.0,247.0,719.0,169,82,103,99,102,214,1017,344
2025-02-19 16:26:40.727,1321.0,969.0,1175.0,-562.0,209.0,734.0,170,83,105,97,100,222,1017,1009
2025-02-19 16:26:40.746,1216.0,1864.0,1434.0,-624.0,116.0,670.0,166,80,102,93,97,252,1016,1008
2025-02-19 16:26:40.763,447.0,2743.0,1716.0,-425.0,52.0,409.0,167,81,105,93,99,276,1015,1009
2025-02-19 16:26:40.787,447.0,2847.0,2485.0,4.0,113.0,93.0,164,77,102,91,94,350,1016,1008
2025-02-19 16:26:40.807,368.0,2955.0,2308.0,150.0,255.0,-62.0,162,78,105,92,95,410,1016,1008
2025-02-19 16:26:40.823,132.0,2652.0,1710.0,30.0,289.0,-179.0,175,96,121,109,113,143,1014,874
2025-02-19 16:26:40.844,107.0,856.0,1256.0,-27.0,267.0,-251.0,166,91,115,104,107,39,1016,758
2025-02-19 16:26:40.862,517.0,-553.0,1391.0,18.0,314.0,-219.0,188,117,142,131,134,66,1017,719
2025-02-19 16:26:40.882,272.0,-1037.0,1420.0,43.0,368.0,-168.0,179,109,133,122,126,58,1017,614
2025-02-19 16:26:40.902,68.0,-593.0,1254.0,-63.0,385.0,-141.0,205,136,158,149,153,85,1017,791
2025-02-19 16:26:40.922,-3.0,-674.0,727.0,-219.0,393.0,-139.0,169,96,120,111,115,42,1017,799
2025-02-19 16:26:40.938,-51.0,-875.0,209.0,-235.0,378.0,-122.0,176,105,128,121,125,50,1017,447
2025-02-19 16:26:40.959,-489.0,-741.0,-361.0,-15.0,281.0,-108.0,182,113,136,130,136,59,1016,58
2025-02-19 16:26:40.979,-590.0,-617.0,-724.0,108.0,224.0,-92.0,175,111,133,132,140,55,1017,54
2025-02-19 16:26:40.996,-773.0,-276.0,-211.0,170.0,182.0,-71.0,174,117,138,139,151,57,1017,336
2025-02-19 16:26:41.013,-766.0,-317.0,-678.0,98.0,156.0,-47.0,190,142,157,168,171,77,1017,806
2025-02-19 16:26:41.032,-901.0,-230.0,-876.0,40.0,100.0,-69.0,195,153,165,183,183,82,1017,876
2025-02-19 16:26:41.053,-675.0,309.0,-723.0,44.0,1.0,-116.0,203,164,175,195,195,91,1017,838
2025-02-19 16:26:41.073,-448.0,207.0,-749.0,-8.0,-63.0,-234.0,199,166,170,193,190,87,1017,643
2025-02-19 16:26:41.090,-798.0,185.0,-549.0,-13.0,-56.0,-361.0,204,176,176,199,196,91,1018,280
2025-02-19 16:26:41.110,-644.0,511.0,-1604.0,17.0,-208.0,-486.0,198,171,168,193,189,84,1018,84
2025-02-19 16:26:41.130,-1625.0,224.0,-1252.0,28.0,-519.0,-498.0,204,177,173,198,198,91,1017,226
2025-02-19 16:26:41.148,124.0,133.0,411.0,107.0,-765.0,-524.0,194,170,163,188,189,78,1017,398
2025-02-19 16:26:41.168,3609.0,166.0,-284.0,-140.0,-831.0,-534.0,205,184,173,199,201,87,1018,345
2025-02-19 16:26:41.188,2786.0,-3418.0,791.0,-128.0,-612.0,-315.0,218,198,186,211,217,101,1018,163
2025-02-19 16:26:41.205,3325.0,-4041.0,1591.0,34.0,-193.0,10.0,207,187,175,201,209,88,1018,89
2025-02-19 16:26:41.225,2120.0,-3317.0,1557.0,159.0,131.0,177.0,186,166,154,179,187,64,528,64
2025-02-19 16:26:41.242,1021.0,-1993.0,1611.0,165.0,289.0,260.0,173,154,141,167,174,49,365,49
2025-02-19 16:26:41.262,523.0,-1447.0,1116.0,38.0,366.0,304.0,180,161,146,172,179,187,1017,55
2025-02-19 16:26:41.282,372.0,-1162.0,655.0,-78.0,340.0,379.0,160,140,125,152,159,335,1016,32
2025-02-19 16:26:41.299,-40.0,-976.0,223.0,-69.0,310.0,393.0,161,142,127,154,159,562,1017,34
2025-02-19 16:26:41.316,320.0,-604.0,314.0,-12.0,292.0,412.0,159,138,123,152,155,813,30,421
2025-02-19 16:26:41.339,638.0,-180.0,379.0,-8.0,319.0,393.0,156,136,120,149,151,1016,27,797
2025-02-19 16:26:41.356,-364.0,-112.0,-146.0,12.0,281.0,380.0,194,175,160,188,191,799,72,811
2025-02-19 16:26:41.375,-234.0,-24.0,-878.0,48.0,192.0,353.0,199,181,168,195,197,119,81,449
2025-02-19 16:26:41.393,-321.0,345.0,20.0,118.0,51.0,310.0,201,184,172,198,201,86,85,177
2025-02-19 16:26:41.414,-331.0,731.0,282.0,226.0,41.0,218.0,188,169,159,186,187,70,70,70
2025-02-19 16:26:41.433,-956.0,1073.0,-280.0,89.0,49.0,66.0,189,171,160,186,188,72,72,72
2025-02-19 16:26:41.450,-736.0,1264.0,-474.0,63.0,-19.0,-81.0,195,176,166,193,194,79,78,177
2025-02-19 16:26:41.471,-904.0,1489.0,-959.0,54.0,-99.0,-295.0,194,176,165,192,193,77,77,501
2025-02-19 16:26:41.491,-877.0,1760.0,-1452.0,-13.0,-192.0,-514.0,194,182,169,196,197,81,82,873
2025-02-19 16:26:41.508,33.0,1011.0,-1739.0,-41.0,-461.0,-692.0,185,176,161,188,192,72,72,1010
2025-02-19 16:26:41.528,490.0,513.0,-1128.0,-32.0,-830.0,-739.0,194,185,169,195,199,80,79,1011
2025-02-19 16:26:41.548,3525.0,-510.0,-2114.0,-7.0,-938.0,-728.0,195,186,169,194,200,78,77,960
2025-02-19 16:26:41.564,3964.0,-4691.0,1524.0,-147.0,-384.0,-190.0,209,198,182,207,211,90,96,651
2025-02-19 16:26:41.587,2717.0,-4781.0,1404.0,154.0,105.0,100.0,196,186,170,196,200,77,370,566
2025-02-19 16:26:41.605,481.0,-1727.0,1208.0,269.0,214.0,129.0,200,189,174,197,203,80,483,319
2025-02-19 16:26:41.623,-515.0,-560.0,868.0,32.0,167.0,106.0,166,153,136,163,167,259,1013,40
2025-02-19 16:26:41.642,-290.0,-955.0,899.0,-44.0,84.0,60.0,161,148,132,157,162,583,937,34
2025-02-19 16:26:41.660,-284.0,-846.0,731.0,46.0,96.0,66.0,159,145,129,155,161,898,344,33
2025-02-19 16:26:41.679,-42.0,-971.0,720.0,106.0,128.0,83.0,155,140,125,152,156,1017,28,102
2025-02-19 16:26:41.699,-146.0,-748.0,567.0,197.0,152.0,97.0,159,143,128,154,158,1016,31,679
2025-02-19 16:26:41.716,-221.0,-503.0,601.0,254.0,141.0,90.0,168,145,133,160,164,1017,39,974
2025-02-19 16:26:41.738,-174.0,-389.0,524.0,298.0,119.0,66.0,164,128,128,155,158,1017,34,652
2025-02-19 16:26:41.757,-206.0,-297.0,563.0,309.0,96.0,39.0,164,121,128,149,154,1016,35,35
2025-02-19 16:26:41.775,-340.0,-441.0,490.0,390.0,89.0,13.0,161,109,124,143,140,1018,31,31
2025-02-19 16:26:41.794,-523.0,-350.0,369.0,474.0,89.0,-27.0,163,102,124,137,134,1017,34,34
2025-02-19 16:26:41.815,-433.0,66.0,478.0,469.0,65.0,-74.0,160,90,117,119,120,1016,30,29
2025-02-19 16:26:41.831,-413.0,87.0,226.0,433.0,9.0,-137.0,162,89,116,110,117,1017,32,124
2025-02-19 16:26:41.850,-389.0,-218.0,530.0,390.0,-50.0,-120.0,160,83,109,98,106,1016,30,489
2025-02-19 16:26:41.867,-7.0,-342.0,993.0,293.0,-58.0,-80.0,155,76,98,88,98,1017,23,850
2025-02-19 16:26:41.884,494.0,-982.0,1431.0,182.0,-46.0,-6.0,162,79,102,90,100,1017,27,1009
2025-02-19 16:26:41.909,1193.0,-1668.0,2310.0,78.0,15.0,135.0,159,74,97,83,95,1017,23,715
2025-02-19 16:26:41.925,1646.0,-1924.0,2485.0,-79.0,88.0,304.0,160,73,96,84,93,1017,22,378
2025-02-19 16:26:41.945,1721.0,-2031.0,2250.0,-273.0,143.0,566.0,159,70,93,80,88,1016,19,263
2025-02-19 16:26:41.966,1659.0,-1105.0,1695.0,-353.0,130.0,777.0,156,66,91,76,83,1016,15,488
2025-02-19 16:26:41.983,1186.0,1076.0,1515.0,-572.0,60.0,749.0,157,66,92,76,82,1016,15,757
2025-02-19 16:26:42.003,749.0,2100.0,1696.0,-563.0,23.0,615.0,156,65,91,75,81,1016,14,1008
2025-02-19 16:26:42.023,-432.0,3048.0,2244.0,-145.0,119.0,259.0,157,67,92,76,88,1016,17,1009
2025-02-19 16:26:42.040,149.0,2688.0,1922.0,167.0,168.0,18.0,156,67,92,75,88,1017,13,1009
2025-02-19 16:26:42.060,-224.0,2778.0,1432.0,82.0,187.0,-58.0,157,67,93,76,89,1016,14,1010
2025-02-19 16:26:42.078,-208.0,2086.0,963.0,35.0,148.0,-176.0,158,69,94,77,90,1017,16,937
2025-02-19 16:26:42.098,-88.0,709.0,644.0,24.0,84.0,-246.0,215,132,155,139,152,859,82,791
2025-02-19 16:26:42.118,-178.0,-473.0,416.0,136.0,15.0,-237.0,208,126,150,133,146,250,198,692
2025-02-19 16:26:42.135,-241.0,-470.0,342.0,233.0,-80.0,-208.0,200,117,141,125,138,67,1018,554
2025-02-19 16:26:42.155,-292.0,35.0,467.0,259.0,-170.0,-273.0,196,113,136,121,135,63,1017,665
2025-02-19 16:26:42.175,-90.0,-23.0,736.0,245.0,-201.0,-296.0,193,109,132,118,133,57,1017,795
2025-02-19 16:26:42.193,271.0,-352.0,1217.0,267.0,-150.0,-233.0,198,115,137,124,140,63,1017,783
2025-02-19 16:26:42.212,105.0,-21.0,1279.0,243.0,-92.0,-193.0,199,117,140,126,143,65,1017,727
2025-02-19 16:26:42.233,-164.0,514.0,1236.0,149.0,-85.0,-242.0,205,126,147,134,152,75,1017,451
2025-02-19 16:26:42.248,-240.0,100.0,1052.0,49.0,-99.0,-221.0,175,93,115,103,122,104,1017,42
2025-02-19 16:26:42.268,-67.0,-420.0,1030.0,52.0,-87.0,-152.0,160,79,100,89,107,584,816,24
2025-02-19 16:26:42.290,56.0,-380.0,1066.0,66.0,-61.0,-122.0,163,79,101,90,107,918,816,25
2025-02-19 16:26:42.307,113.0,-1014.0,1363.0,76.0,-43.0,-86.0,164,81,103,92,109,1018,26,27
2025-02-19 16:26:42.326,675.0,-1428.0,1788.0,37.0,38.0,44.0,163,80,102,91,108,1016,26,54
2025-02-19 16:26:42.347,1176.0,-1699.0,2003.0,-163.0,102.0,221.0,163,80,101,91,108,1017,322,177
2025-02-19 16:26:42.364,1124.0,-2076.0,1465.0,-350.0,82.0,465.0,160,77,100,87,105,1017,454,245
2025-02-19 16:26:42.384,1274.0,-1996.0,1023.0,-443.0,64.0,716.0,160,78,101,88,102,1017,73,252
2025-02-19 16:26:42.402,806.0,1280.0,1003.0,-658.0,-34.0,697.0,158,75,98,85,97,1018,184,240
2025-02-19 16:26:42.421,270.0,1708.0,1429.0,-644.0,-190.0,550.0,161,77,103,87,98,1016,205,315
2025-02-19 16:26:42.442,192.0,1909.0,2799.0,-329.0,-117.0,266.0,159,76,102,85,98,1017,766,671
2025-02-19 16:26:42.459,231.0,2278.0,3318.0,-20.0,113.0,-30.0,160,77,103,87,99,1017,1018,1009
2025-02-19 16:26:42.479,373.0,1592.0,2778.0,42.0,261.0,-129.0,160,78,104,87,99,1017,1016,1010
2025-02-19 16:26:42.498,479.0,351.0,2262.0,-43.0,351.0,-164.0,164,84,110,94,104,1018,1017,938
2025-02-19 16:26:42.516,725.0,-765.0,1739.0,-99.0,435.0,-154.0,157,76,104,88,96,1017,1017,788
2025-02-19 16:26:42.535,361.0,-1564.0,777.0,-137.0,442.0,-81.0,155,75,104,89,96,1017,1016,733
2025-02-19 16:26:42.555,-175.0,-1774.0,65.0,-78.0,368.0,-4.0,173,98,124,111,119,989,1017,767
2025-02-19 16:26:42.573,-532.0,-1604.0,-242.0,-24.0,307.0,39.0,169,96,120,108,117,819,1017,691
2025-02-19 16:26:42.593,-215.0,-1072.0,101.0,-1.0,290.0,64.0,174,106,126,115,124,757,1017,750
2025-02-19 16:26:42.610,-468.0,-875.0,-68.0,38.0,294.0,71.0,183,122,138,126,133,640,1017,806
2025-02-19 16:26:42.630,-660.0,-641.0,-336.0,74.0,272.0,67.0,174,118,131,118,124,510,1017,904
2025-02-19 16:26:42.649,-592.0,-397.0,-533.0,117.0,237.0,72.0,180,132,139,125,129,427,1017,1009
2025-02-19 16:26:42.667,-746.0,-22.0,-189.0,137.0,196.0,71.0,172,131,132,120,124,385,1017,928
2025-02-19 16:26:42.686,-608.0,208.0,-366.0,144.0,172.0,73.0,175,138,136,125,126,373,1018,773
2025-02-19 16:26:42.707,-639.0,397.0,-404.0,154.0,153.0,56.0,170,136,131,122,123,376,1017,504
2025-02-19 16:26:42.720,-531.0,618.0,-594.0,177.0,121.0,20.0,173,141,133,124,125,391,1017,280
2025-02-19 16:26:42.745,-908.0,757.0,-1036.0,192.0,19.0,-64.0,174,143,132,123,122,407,1017,322
2025-02-19 16:26:42.764,-1296.0,1631.0,-1618.0,155.0,-162.0,-265.0,170,143,130,115,116,423,1017,545
2025-02-19 16:26:42.782,-1246.0,1657.0,-2247.0,85.0,-515.0,-490.0,170,150,134,115,114,425,1017,669
2025-02-19 16:26:42.802,-724.0,1650.0,-1931.0,44.0,-861.0,-667.0,165,152,134,118,115,358,1017,1010
2025-02-19 16:26:42.822,1812.0,1727.0,-1604.0,-160.0,-1233.0,-712.0,162,158,137,125,121,331,1017,1010
2025-02-19 16:26:42.838,3555.0,-1768.0,-510.0,-345.0,-1218.0,-567.0,158,162,136,122,117,289,1017,997
2025-02-19 16:26:42.859,5819.0,-4115.0,-20.0,-239.0,-715.0,-155.0,150,156,132,114,118,329,905,1010
2025-02-19 16:26:42.876,4513.0,-4148.0,1238.0,93.0,-115.0,51.0,144,151,124,109,118,515,1017,1009
2025-02-19 16:26:42.896,2475.0,-2690.0,1266.0,285.0,223.0,-28.0,142,148,122,104,113,791,941,1009
2025-02-19 16:26:42.916,1082.0,-1679.0,1428.0,150.0,296.0,47.0,144,148,123,103,114,979,1017,1010
2025-02-19 16:26:42.933,714.0,-1597.0,880.0,81.0,286.0,171.0,143,148,121,99,109,1018,1017,1009
2025-02-19 16:26:42.954,410.0,-1248.0,797.0,93.0,281.0,194.0,146,150,123,105,114,1016,1017,1010
2025-02-19 16:26:42.974,117.0,-996.0,483.0,46.0,292.0,203.0,152,157,132,114,119,973,1017,914
2025-02-19 16:26:42.991,149.0,-730.0,532.0,37.0,322.0,243.0,146,150,127,108,114,1015,747,1009
2025-02-19 16:26:43.010,428.0,-723.0,295.0,53.0,360.0,263.0,147,153,128,109,108,1016,30,724
2025-02-19 16:26:43.028,446.0,-702.0,160.0,128.0,394.0,309.0,136,143,118,100,93,982,18,18
2025-02-19 16:26:43.048,-6.0,-241.0,101.0,185.0,351.0,325.0,161,163,138,121,114,931,41,41
2025-02-19 16:26:43.068,-256.0,332.0,199.0,72.0,274.0,285.0,159,158,136,118,110,838,37,36
2025-02-19 16:26:43.085,-429.0,164.0,216.0,-39.0,197.0,237.0,159,157,136,116,112,810,35,275
2025-02-19 16:26:43.105,-496.0,-2.0,226.0,-32.0,159.0,186.0,160,157,134,115,116,810,34,643
2025-02-19 16:26:43.125,-607.0,1.0,116.0,23.0,182.0,143.0,159,155,132,114,117,817,33,1010
2025-02-19 16:26:43.142,-842.0,287.0,157.0,63.0,164.0,108.0,163,156,135,116,119,822,34,1010
2025-02-19 16:26:43.163,-884.0,833.0,-72.0,34.0,111.0,52.0,160,153,132,113,116,830,32,1010
2025-02-19 16:26:43.182,-929.0,1065.0,-471.0,-6.0,35.0,-34.0,162,156,135,115,120,835,35,1010
2025-02-19 16:26:43.200,-1213.0,1180.0,-1148.0,74.0,-78.0,-205.0,160,153,133,110,117,842,31,740
2025-02-19 16:26:43.220,-1725.0,1428.0,-1709.0,135.0,-399.0,-417.0,153,154,133,106,113,858,33,261
2025-02-19 16:26:43.239,-1036.0,1370.0,-1374.0,53.0,-748.0,-560.0,155,155,132,109,116,868,34,50
2025-02-19 16:26:43.256,2523.0,890.0,-1006.0,-107.0,-1080.0,-526.0,152,155,132,110,116,881,31,118
2025-02-19 16:26:43.277,4439.0,-2878.0,-246.0,134.0,-1062.0,-329.0,157,157,134,117,126,887,33,34
2025-02-19 16:26:43.291,4395.0,-2752.0,2768.0,201.0,-417.0,-50.0,157,154,131,117,138,893,31,31
2025-02-19 16:26:43.314,2462.0,-1502.0,3282.0,101.0,65.0,47.0,158,155,132,119,143,893,32,32
2025-02-19 16:26:43.334,922.0,-771.0,2315.0,46.0,125.0,-2.0,146,143,119,107,125,1017,18,18
2025-02-19 16:26:43.350,563.0,-687.0,1978.0,-54.0,128.0,22.0,146,142,117,105,122,1016,17,17
2025-02-19 16:26:43.371,405.0,-869.0,1455.0,-48.0,195.0,40.0,142,137,114,101,116,1017,12,13
2025-02-19 16:26:43.389,232.0,-628.0,1032.0,57.0,250.0,25.0,167,156,139,126,139,940,41,39
2025-02-19 16:26:43.408,-99.0,-335.0,822.0,105.0,268.0,-8.0,159,138,127,117,126,896,30,500
2025-02-19 16:26:43.425,-177.0,-373.0,693.0,144.0,279.0,-28.0,161,114,126,118,124,867,31,553
2025-02-19 16:26:43.448,-117.0,-418.0,428.0,258.0,277.0,-30.0,161,99,121,118,114,860,31,649
2025-02-19 16:26:43.459,-240.0,-327.0,337.0,357.0,247.0,-36.0,157,85,113,111,107,917,24,286
2025-02-19 16:26:43.486,-542.0,79.0,226.0,371.0,174.0,-56.0,161,85,111,111,110,992,26,22
2025-02-19 16:26:43.503,-494.0,151.0,355.0,357.0,108.0,-88.0,163,85,108,111,109,1017,28,27
2025-02-19 16:26:43.521,-322.0,33.0,546.0,337.0,44.0,-96.0,164,84,107,110,108,1016,27,24
2025-02-19 16:26:43.538,-271.0,-41.0,626.0,293.0,-13.0,-96.0,166,84,106,108,105,1017,28,27
2025-02-19 16:26:43.560,-117.0,-151.0,816.0,214.0,-58.0,-69.0,164,80,103,104,101,1017,26,25
2025-02-19 16:26:43.580,25.0,-326.0,1000.0,125.0,-80.0,-42.0,167,83,106,105,102,1017,28,52
2025-02-19 16:26:43.600,169.0,-680.0,1150.0,100.0,-68.0,-14.0,165,80,103,102,101,1018,22,221
2025-02-19 16:26:43.617,498.0,-981.0,1303.0,91.0,-48.0,46.0,169,85,107,106,105,1018,28,442
2025-02-19 16:26:43.636,803.0,-1122.0,1708.0,49.0,-30.0,128.0,169,86,108,107,105,1016,28,701
2025-02-19 16:26:43.658,1146.0,-1145.0,2147.0,-54.0,9.0,284.0,169,85,107,105,104,1017,26,788
2025-02-19 16:26:43.672,1269.0,-1105.0,2126.0,-232.0,62.0,491.0,174,90,113,108,107,1010,32,850
2025-02-19 16:26:43.691,1522.0,-530.0,1832.0,-420.0,103.0,743.0,167,81,104,97,97,1017,24,858
2025-02-19 16:26:43.710,1410.0,721.0,2010.0,-584.0,86.0,768.0,167,81,105,95,95,1018,24,1011
2025-02-19 16:26:43.731,1104.0,1145.0,1815.0,-720.0,59.0,687.0,165,80,103,91,91,1017,21,1010
2025-02-19 16:26:43.752,28.0,2482.0,2241.0,-409.0,101.0,378.0,165,85,106,92,99,1017,23,1010
2025-02-19 16:26:43.769,142.0,2802.0,1823.0,165.0,172.0,42.0,164,86,106,92,96,1017,24,1010
2025-02-19 16:26:43.788,-80.0,2842.0,1388.0,169.0,217.0,-72.0,163,82,104,89,93,1017,784,1010
2025-02-19 16:26:43.809,-346.0,2224.0,1035.0,70.0,153.0,-182.0,160,80,102,87,92,986,1017,633
2025-02-19 16:26:43.824,-10.0,669.0,753.0,76.0,101.0,-284.0,153,73,96,81,85,1012,1018,28
2025-02-19 16:26:43.846,159.0,-480.0,491.0,201.0,32.0,-293.0,152,71,96,81,85,1017,1018,14
2025-02-19 16:26:43.867,-64.0,-868.0,489.0,304.0,-51.0,-255.0,151,70,94,80,85,1017,1018,12
2025-02-19 16:26:43.883,90.0,-833.0,905.0,289.0,-131.0,-172.0,157,75,99,86,91,1017,1017,18
2025-02-19 16:26:43.904,126.0,-709.0,1375.0,180.0,-99.0,-129.0,161,79,102,90,95,1016,664,22
2025-02-19 16:26:43.920,45.0,-339.0,1333.0,124.0,-45.0,-140.0,160,78,101,88,93,1016,21,20
2025-02-19 16:26:43.939,-173.0,-241.0,1125.0,114.0,-2.0,-143.0,161,80,103,91,96,1017,31,22
2025-02-19 16:26:43.960,-381.0,-256.0,819.0,119.0,-11.0,-122.0,159,78,100,88,94,1017,19,19
2025-02-19 16:26:43.978,-397.0,38.0,784.0,126.0,-35.0,-131.0,162,82,104,92,98,1017,23,24
2025-02-19 16:26:43.998,-410.0,22.0,796.0,144.0,-51.0,-150.0,156,75,96,86,91,1017,15,16
2025-02-19 16:26:44.018,-276.0,-261.0,785.0,153.0,-77.0,-143.0,155,76,96,87,92,1016,15,16
2025-02-19 16:26:44.035,332.0,-1280.0,1282.0,195.0,-67.0,-49.0,154,75,96,86,92,1016,16,14
2025-02-19 16:26:44.056,831.0,-1868.0,1891.0,82.0,-33.0,152.0,153,72,93,84,90,1017,13,96
2025-02-19 16:26:44.076,1070.0,-1885.0,1975.0,-180.0,-10.0,353.0,155,72,92,86,90,1016,14,519
2025-02-19 16:26:44.092,1447.0,-1781.0,1782.0,-343.0,30.0,597.0,155,72,91,82,87,1016,12,832
2025-02-19 16:26:44.113,837.0,237.0,1457.0,-563.0,29.0,655.0,156,71,92,80,85,1016,13,1009
2025-02-19 16:26:44.133,590.0,1198.0,1420.0,-601.0,-34.0,597.0,155,71,92,79,84,1016,12,1009
2025-02-19 16:26:44.149,-164.0,2717.0,2091.0,-290.0,-2.0,251.0,155,72,92,78,86,1016,13,1009
2025-02-19 16:26:44.170,334.0,2746.0,2197.0,164.0,126.0,-16.0,156,73,93,78,87,1016,13,1010
2025-02-19 16:26:44.187,-267.0,2836.0,1470.0,149.0,143.0,-143.0,154,72,90,77,85,1016,318,1010
2025-02-19 16:26:44.207,75.0,1264.0,1143.0,41.0,104.0,-208.0,154,71,91,78,86,1016,1016,1009
2025-02-19 16:26:44.225,426.0,-891.0,1091.0,20.0,82.0,-176.0,158,76,97,84,92,1016,1017,1009
2025-02-19 16:26:44.245,267.0,-1334.0,1282.0,22.0,91.0,-104.0,157,78,98,84,93,1017,1017,1008
2025-02-19 16:26:44.264,74.0,-1053.0,1404.0,-29.0,99.0,-95.0,159,77,98,85,93,1016,1017,921
2025-02-19 16:26:44.284,-33.0,-901.0,1615.0,-111.0,153.0,-70.0,157,76,96,84,92,1016,1016,654
2025-02-19 16:26:44.301,-22.0,-674.0,1531.0,-193.0,231.0,-10.0,161,83,104,91,98,971,1017,449
2025-02-19 16:26:44.321,-546.0,-424.0,1244.0,-260.0,220.0,6.0,159,81,101,89,96,936,1017,417
2025-02-19 16:26:44.332,-561.0,-503.0,1036.0,-275.0,213.0,-5.0,160,82,103,91,98,911,1017,382
2025-02-19 16:26:44.358,-436.0,-672.0,909.0,-227.0,239.0,-6.0,157,79,100,89,96,904,1018,281
2025-02-19 16:26:44.375,-334.0,-705.0,691.0,-205.0,288.0,14.0,158,80,101,90,98,932,514,333
2025-02-19 16:26:44.396,-277.0,-638.0,422.0,-206.0,312.0,40.0,157,82,103,91,100,932,730,533
2025-02-19 16:26:44.416,-403.0,-568.0,230.0,-201.0,261.0,66.0,151,79,100,90,97,931,938,1009
2025-02-19 16:26:44.436,-438.0,-389.0,-21.0,-171.0,218.0,75.0,147,82,102,91,98,927,894,1010
2025-02-19 16:26:44.453,-465.0,-52.0,-158.0,-131.0,201.0,50.0,141,80,101,89,96,926,1017,1010
2025-02-19 16:26:44.474,-353.0,349.0,-379.0,-92.0,176.0,35.0,141,82,102,91,98,930,1016,1009
2025-02-19 16:26:44.494,-541.0,765.0,-574.0,-37.0,133.0,8.0,134,78,98,87,94,969,1017,794
2025-02-19 16:26:44.510,-395.0,1439.0,-939.0,111.0,77.0,-81.0,130,79,99,88,93,984,1017,551
2025-02-19 16:26:44.531,-946.0,2333.0,-1715.0,219.0,6.0,-248.0,121,75,94,83,87,1011,1017,435
2025-02-19 16:26:44.550,-1238.0,3161.0,-2341.0,244.0,-245.0,-550.0,123,82,100,88,91,967,1018,775
2025-02-19 16:26:44.568,98.0,2477.0,-2164.0,255.0,-692.0,-743.0,126,86,103,92,96,802,1017,658
2025-02-19 16:26:44.587,3326.0,318.0,-1059.0,209.0,-969.0,-743.0,122,76,98,87,94,719,1017,910
2025-02-19 16:26:44.608,5833.0,-4713.0,2468.0,381.0,-704.0,-399.0,128,81,102,91,102,687,1017,1009
2025-02-19 16:26:44.625,4966.0,-4478.0,3806.0,359.0,40.0,-19.0,123,77,100,88,102,688,1017,1009
2025-02-19 16:26:44.645,1345.0,-1750.0,3022.0,67.0,168.0,-53.0,126,84,106,94,108,695,1017,1009
2025-02-19 16:26:44.660,943.0,-2247.0,2409.0,-210.0,208.0,88.0,119,79,101,89,101,719,366,908
2025-02-19 16:26:44.679,521.0,-1742.0,1557.0,-248.0,249.0,123.0,116,80,104,91,103,772,21,566
2025-02-19 16:26:44.702,311.0,-1779.0,866.0,-165.0,268.0,139.0,120,78,101,89,100,774,19,369
2025-02-19 16:26:44.720,376.0,-1239.0,586.0,-151.0,303.0,208.0,116,73,96,84,96,849,13,263
2025-02-19 16:26:44.739,-62.0,-750.0,133.0,-175.0,261.0,235.0,120,73,97,85,97,940,14,615
2025-02-19 16:26:44.759,-296.0,-622.0,-30.0,-183.0,173.0,238.0,120,72,95,83,94,1011,13,1009
2025-02-19 16:26:44.776,-41.0,-442.0,148.0,-169.0,127.0,224.0,123,73,97,85,96,1016,566,870
2025-02-19 16:26:44.797,-26.0,-353.0,101.0,-139.0,117.0,211.0,124,73,96,85,96,1017,1017,1009
2025-02-19 16:26:44.812,-260.0,-332.0,31.0,-84.0,90.0,195.0,124,72,95,84,96,1016,1017,1009
2025-02-19 16:26:44.834,-305.0,-281.0,46.0,-31.0,69.0,188.0,125,73,96,85,95,1017,1016,1009
2025-02-19 16:26:44.854,-262.0,-113.0,139.0,3.0,68.0,164.0,123,72,96,84,93,1017,1017,1009
2025-02-19 16:26:44.871,-462.0,-163.0,152.0,39.0,96.0,138.0,125,73,96,85,93,1016,1017,1009
2025-02-19 16:26:44.891,-612.0,0.0,154.0,84.0,99.0,108.0,127,77,99,87,95,1007,1017,1009
2025-02-19 16:26:44.911,-879.0,245.0,67.0,52.0,62.0,72.0,138,88,110,99,106,849,1017,1007
2025-02-19 16:26:44.927,-793.0,407.0,19.0,6.0,27.0,43.0,139,90,112,100,107,513,1017,528
2025-02-19 16:26:44.949,-604.0,694.0,-142.0,59.0,10.0,16.0,135,86,108,97,102,359,1017,28
2025-02-19 16:26:44.969,-797.0,1488.0,-1054.0,265.0,15.0,-110.0,134,91,112,100,104,245,32,32
2025-02-19 16:26:44.985,-1652.0,2477.0,-2372.0,358.0,-156.0,-293.0,129,87,108,95,99,162,29,28
2025-02-19 16:26:45.006,-1238.0,3187.0,-2492.0,342.0,-655.0,-555.0,132,87,108,96,101,107,30,29
2025-02-19 16:26:45.023,2307.0,1546.0,-1213.0,195.0,-1006.0,-630.0,135,85,105,96,103,79,27,27
2025-02-19 16:26:45.043,5969.0,-5247.0,2662.0,504.0,-749.0,-314.0,146,88,110,101,116,31,30,444
2025-02-19 16:26:45.063,4935.0,-3068.0,5028.0,511.0,48.0,-14.0,153,93,117,107,126,34,35,399
2025-02-19 16:26:45.079,1126.0,280.0,4088.0,75.0,131.0,-94.0,145,88,109,102,117,29,28,28
2025-02-19 16:26:45.101,886.0,-2254.0,2722.0,-171.0,152.0,43.0,138,81,102,96,112,103,21,20
2025-02-19 16:26:45.120,799.0,-2482.0,1706.0,5.0,223.0,95.0,139,80,102,98,113,264,20,19
2025-02-19 16:26:45.138,329.0,-1771.0,1184.0,166.0,294.0,110.0,147,85,106,104,119,339,25,268
2025-02-19 16:26:45.157,179.0,-851.0,487.0,114.0,277.0,155.0,145,81,102,102,115,408,20,824
2025-02-19 16:26:45.178,-159.0,-380.0,280.0,43.0,215.0,196.0,145,79,101,103,114,507,19,1009
2025-02-19 16:26:45.195,-178.0,-244.0,-49.0,26.0,157.0,206.0,148,80,101,105,114,589,19,1010
2025-02-19 16:26:45.214,-292.0,-93.0,249.0,54.0,117.0,231.0,148,78,99,102,114,659,18,1009
2025-02-19 16:26:45.230,-55.0,291.0,458.0,45.0,78.0,220.0,150,79,101,99,126,711,887,874
2025-02-19 16:26:45.248,-198.0,339.0,285.0,18.0,45.0,202.0,150,78,99,95,132,757,896,747
2025-02-19 16:26:45.271,-254.0,366.0,252.0,18.0,45.0,168.0,151,78,99,95,134,799,996,781
2025-02-19 16:26:45.288,-369.0,481.0,229.0,35.0,31.0,133.0,152,78,99,94,135,839,888,905
2025-02-19 16:26:45.309,-550.0,747.0,277.0,47.0,-27.0,89.0,151,76,97,91,135,887,350,985
2025-02-19 16:26:45.328,-672.0,1229.0,331.0,33.0,-89.0,42.0,152,77,98,91,136,924,467,897
2025-02-19 16:26:45.346,-834.0,1983.0,489.0,43.0,-136.0,-84.0,149,74,96,87,136,977,1018,530
2025-02-19 16:26:45.366,-1028.0,2310.0,434.0,156.0,-164.0,-246.0,149,75,97,88,141,1017,1017,296
2025-02-19 16:26:45.387,-1021.0,3030.0,342.0,222.0,-185.0,-385.0,149,74,97,89,143,1017,13,18
2025-02-19 16:26:45.403,-555.0,2631.0,436.0,223.0,-219.0,-536.0,150,75,98,91,146,1017,13,14
2025-02-19 16:26:45.423,589.0,847.0,1393.0,308.0,-176.0,-549.0,150,75,98,93,147,1016,15,14
2025-02-19 16:26:45.444,1663.0,114.0,1965.0,380.0,-98.0,-505.0,151,75,97,92,147,1017,13,12
2025-02-19 16:26:45.460,1811.0,-436.0,2236.0,304.0,-95.0,-389.0,152,76,97,92,148,1017,14,14
2025-02-19 16:26:45.480,2194.0,-1362.0,2762.0,85.0,-133.0,-146.0,152,75,95,91,148,1017,13,13
2025-02-19 16:26:45.500,2281.0,-1948.0,2848.0,-148.0,-64.0,37.0,153,77,97,92,149,1017,96,424
2025-02-19 16:26:45.515,1751.0,-1983.0,2104.0,-176.0,57.0,141.0,152,75,96,91,148,1017,176,716
2025-02-19 16:26:45.538,731.0,-1374.0,1666.0,-166.0,158.0,228.0,153,76,94,90,149,1016,13,723
2025-02-19 16:26:45.555,388.0,-419.0,1311.0,-170.0,145.0,272.0,155,80,97,94,152,1005,18,669
2025-02-19 16:26:45.574,83.0,203.0,1150.0,-208.0,105.0,300.0,152,78,97,93,150,985,16,303
2025-02-19 16:26:45.595,-202.0,151.0,962.0,-251.0,52.0,322.0,151,80,99,93,151,972,17,105
2025-02-19 16:26:45.612,-67.0,43.0,1074.0,-205.0,52.0,313.0,148,78,98,91,150,962,220,290
2025-02-19 16:26:45.631,24.0,212.0,880.0,-112.0,83.0,327.0,148,79,100,93,150,957,784,415
2025-02-19 16:26:45.653,-75.0,598.0,686.0,-56.0,76.0,296.0,146,77,98,90,149,953,1017,583
2025-02-19 16:26:45.669,-421.0,1026.0,557.0,8.0,31.0,217.0,147,78,100,90,150,950,1017,899
2025-02-19 16:26:45.689,-547.0,1370.0,593.0,20.0,-5.0,139.0,148,78,100,90,151,946,1017,1009
2025-02-19 16:26:45.707,-547.0,1330.0,619.0,-5.0,-34.0,66.0,147,77,99,89,150,943,1017,864
2025-02-19 16:26:45.727,-560.0,1315.0,662.0,-26.0,-66.0,24.0,148,77,99,90,150,947,1017,785
2025-02-19 16:26:45.747,-599.0,1985.0,821.0,-55.0,-81.0,-93.0,147,76,98,89,149,959,1017,841
2025-02-19 16:26:45.764,-666.0,2469.0,821.0,-91.0,-47.0,-220.0,148,78,100,89,151,969,1017,997
2025-02-19 16:26:45.784,-766.0,2580.0,493.0,-55.0,-10.0,-359.0,146,76,98,88,149,974,1017,1009
2025-02-19 16:26:45.804,-455.0,2108.0,341.0,33.0,-25.0,-511.0,147,77,99,90,150,980,464,1009
2025-02-19 16:26:45.821,359.0,880.0,375.0,134.0,-97.0,-581.0,147,76,97,89,151,983,15,984
2025-02-19 16:26:45.841,1503.0,-1354.0,634.0,299.0,-192.0,-508.0,147,75,96,89,149,987,13,753
2025-02-19 16:26:45.862,2554.0,-2819.0,1829.0,338.0,-216.0,-293.0,150,77,98,91,150,992,98,358
2025-02-19 16:26:45.878,2875.0,-1847.0,2971.0,69.0,-94.0,3.0,151,78,99,91,150,974,419,15
2025-02-19 16:26:45.899,1976.0,-1851.0,2433.0,-263.0,-32.0,121.0,153,79,100,93,148,942,17,15
2025-02-19 16:26:45.918,1114.0,-1971.0,1523.0,-322.0,-8.0,228.0,151,78,100,92,142,890,16,16
2025-02-19 16:26:45.935,260.0,-989.0,1599.0,-280.0,45.0,266.0,151,79,101,94,134,845,20,17
2025-02-19 16:26:45.956,203.0,-559.0,2335.0,-240.0,135.0,273.0,153,83,105,99,125,787,21,20
2025-02-19 16:26:45.973,367.0,-358.0,2202.0,-233.0,253.0,286.0,155,85,107,102,118,688,510,58
2025-02-19 16:26:45.994,461.0,-174.0,1741.0,-260.0,384.0,285.0,157,86,109,105,111,588,323,435
2025-02-19 16:26:46.013,255.0,22.0,1540.0,-265.0,437.0,288.0,156,86,108,105,106,512,811,631
2025-02-19 16:26:46.030,-6.0,-175.0,1065.0,-242.0,433.0,286.0,158,89,110,106,101,467,1017,679
2025-02-19 16:26:46.048,-192.0,33.0,484.0,-202.0,395.0,275.0,157,91,109,103,97,423,1017,918
2025-02-19 16:26:46.070,-345.0,15.0,93.0,-176.0,324.0,232.0,157,96,111,102,98,402,1017,1010
2025-02-19 16:26:46.085,-596.0,279.0,-200.0,-79.0,290.0,193.0,158,105,114,103,101,386,1017,1009
2025-02-19 16:26:46.108,-514.0,586.0,-324.0,-62.0,258.0,120.0,156,108,113,100,102,365,1018,972
2025-02-19 16:26:46.126,-576.0,457.0,-456.0,24.0,175.0,69.0,157,113,115,102,107,365,1014,1009
2025-02-19 16:26:46.145,-475.0,648.0,-599.0,96.0,127.0,3.0,153,112,112,104,108,388,1020,1010
2025-02-19 16:26:46.162,-856.0,585.0,-500.0,-2.0,79.0,-28.0,152,111,111,106,109,458,1018,1010
2025-02-19 16:26:46.185,-772.0,253.0,-460.0,-12.0,37.0,-36.0,151,111,110,108,109,506,385,1009
2025-02-19 16:26:46.202,-939.0,87.0,-334.0,20.0,24.0,-48.0,151,110,110,111,111,564,16,913
2025-02-19 16:26:46.222,-723.0,162.0,-108.0,78.0,3.0,-61.0,152,108,111,113,112,615,16,776
2025-02-19 16:26:46.237,-770.0,463.0,-114.0,37.0,-44.0,-101.0,151,105,110,116,113,660,15,1009
2025-02-19 16:26:46.259,-845.0,526.0,-285.0,-33.0,-117.0,-138.0,153,105,110,120,117,693,16,1009
2025-02-19 16:26:46.278,-909.0,1143.0,-1309.0,-91.0,-245.0,-253.0,152,101,108,121,116,720,257,984
2025-02-19 16:26:46.297,-396.0,1820.0,-1558.0,61.0,-456.0,-546.0,151,104,106,125,118,743,1015,452
2025-02-19 16:26:46.316,436.0,1785.0,-1226.0,-156.0,-709.0,-775.0,151,114,105,127,125,762,1017,16
2025-02-19 16:26:46.337,2966.0,-800.0,214.0,-196.0,-928.0,-829.0,145,126,106,129,134,779,1017,14
2025-02-19 16:26:46.353,2165.0,-1893.0,-156.0,-280.0,-831.0,-662.0,140,132,111,133,138,791,1017,15
2025-02-19 16:26:46.374,4853.0,-3827.0,-425.0,-243.0,-517.0,-164.0,138,135,113,137,149,789,1017,16
2025-02-19 16:26:46.394,3493.0,-4795.0,972.0,-56.0,-28.0,143.0,140,136,114,139,146,770,1018,16
2025-02-19 16:26:46.411,1043.0,-3241.0,816.0,295.0,211.0,217.0,142,136,115,139,145,773,1018,120
2025-02-19 16:26:46.431,-131.0,-1139.0,548.0,258.0,233.0,225.0,147,140,118,141,148,729,1017,457
2025-02-19 16:26:46.447,-84.0,-729.0,688.0,3.0,154.0,209.0,146,139,116,141,147,692,333,399
2025-02-19 16:26:46.467,-10.0,-1213.0,753.0,-161.0,154.0,243.0,145,138,118,141,147,684,184,18
2025-02-19 16:26:46.483,17.0,-1367.0,388.0,-23.0,231.0,309.0,142,136,114,140,145,677,16,15
2025-02-19 16:26:46.505,-51.0,-759.0,185.0,75.0,226.0,363.0,140,133,112,135,142,731,13,90
2025-02-19 16:26:46.525,8.0,-74.0,250.0,73.0,220.0,326.0,143,136,113,139,145,747,15,395
2025-02-19 16:26:46.546,-135.0,-263.0,183.0,1.0,174.0,279.0,169,161,143,165,169,398,45,1009
2025-02-19 16:26:46.562,-262.0,-221.0,-124.0,-11.0,123.0,235.0,169,162,142,165,170,47,46,1010
2025-02-19 16:26:46.582,-214.0,-55.0,165.0,30.0,91.0,158.0,166,158,141,163,168,43,43,1009
2025-02-19 16:26:46.600,-429.0,324.0,118.0,-5.0,90.0,74.0,162,154,137,160,166,40,40,974
2025-02-19 16:26:46.620,-681.0,519.0,30.0,30.0,46.0,26.0,164,156,139,163,168,42,43,829
2025-02-19 16:26:46.640,-575.0,1056.0,-409.0,44.0,5.0,-75.0,160,151,136,159,165,39,38,832
2025-02-19 16:26:46.660,-913.0,1600.0,-654.0,116.0,-85.0,-266.0,164,155,140,162,170,43,43,1010
2025-02-19 16:26:46.677,-994.0,1974.0,-614.0,68.0,-230.0,-543.0,159,151,135,157,168,37,38,1010
2025-02-19 16:26:46.697,279.0,1613.0,-129.0,-18.0,-498.0,-789.0,162,156,138,161,170,40,40,1010
2025-02-19 16:26:46.715,1922.0,-314.0,-475.0,-183.0,-611.0,-761.0,155,156,136,159,168,38,38,1010
2025-02-19 16:26:46.734,4697.0,-2584.0,1384.0,-148.0,-356.0,-396.0,147,152,133,155,164,33,33,1008
2025-02-19 16:26:46.753,3029.0,-4988.0,383.0,28.0,-36.0,-13.0,152,158,140,162,171,40,600,445
2025-02-19 16:26:46.770,2190.0,-3120.0,845.0,225.0,162.0,127.0,145,147,130,152,160,30,29,29
2025-02-19 16:26:46.792,201.0,-1693.0,1003.0,196.0,209.0,133.0,148,149,131,153,162,30,31,32
2025-02-19 16:26:46.812,108.0,-1458.0,627.0,125.0,193.0,154.0,141,145,126,149,157,48,26,25
2025-02-19 16:26:46.829,18.0,-1519.0,280.0,116.0,195.0,192.0,154,154,135,158,168,113,37,37
2025-02-19 16:26:46.849,-85.0,-1454.0,298.0,207.0,202.0,237.0,148,143,125,151,162,32,31,30
2025-02-19 16:26:46.865,44.0,-1279.0,330.0,277.0,203.0,296.0,143,119,120,140,155,67,26,318
2025-02-19 16:26:46.885,236.0,-979.0,1.0,302.0,201.0,332.0,142,95,114,133,152,143,24,770
2025-02-19 16:26:46.906,118.0,-607.0,-120.0,276.0,142.0,353.0,140,81,104,115,147,247,21,1009
2025-02-19 16:26:46.921,61.0,-484.0,-177.0,189.0,63.0,334.0,142,78,104,106,146,336,23,1009
2025-02-19 16:26:46.943,19.0,97.0,-209.0,132.0,-4.0,287.0,141,75,99,101,141,412,21,1009
2025-02-19 16:26:46.963,-194.0,418.0,-163.0,158.0,-84.0,204.0,142,75,99,99,144,479,23,1009
2025-02-19 16:26:46.980,-326.0,150.0,499.0,136.0,-81.0,157.0,140,74,96,97,146,531,24,1011
2025-02-19 16:26:47.001,-233.0,173.0,544.0,144.0,-75.0,168.0,133,71,92,95,144,575,20,1010
2025-02-19 16:26:47.021,-392.0,895.0,726.0,155.0,-76.0,138.0,131,73,94,97,143,610,23,1009
2025-02-19 16:26:47.037,-500.0,2026.0,1057.0,159.0,-28.0,-45.0,129,72,94,96,142,637,21,1009
2025-02-19 16:26:47.058,-1044.0,2523.0,871.0,208.0,44.0,-168.0,130,74,97,97,146,660,21,1010
2025-02-19 16:26:47.078,-1383.0,3278.0,274.0,251.0,13.0,-315.0,127,74,97,96,147,677,21,1010
2025-02-19 16:26:47.095,-1147.0,3008.0,78.0,228.0,-107.0,-486.0,126,73,96,94,149,693,21,1011
2025-02-19 16:26:47.115,-175.0,1699.0,230.0,225.0,-271.0,-536.0,128,74,96,95,151,707,157,1009
2025-02-19 16:26:47.134,1245.0,-117.0,1184.0,299.0,-390.0,-499.0,131,73,96,99,151,719,767,1006
2025-02-19 16:26:47.153,2424.0,-1564.0,2597.0,312.0,-374.0,-327.0,141,76,99,105,154,730,1017,672
2025-02-19 16:26:47.173,2707.0,-1437.0,3510.0,42.0,-138.0,-107.0,141,76,99,105,154,743,1017,110
2025-02-19 16:26:47.187,2255.0,-2025.0,2883.0,-235.0,33.0,17.0,140,77,100,104,156,755,1017,21
2025-02-19 16:26:47.209,1525.0,-2271.0,1574.0,-164.0,78.0,108.0,135,76,99,104,155,766,1018,20
2025-02-19 16:26:47.229,514.0,-1327.0,1390.0,-56.0,114.0,178.0,132,75,96,103,155,781,291,20
2025-02-19 16:26:47.247,-17.0,-187.0,1142.0,-79.0,67.0,199.0,135,78,99,106,157,785,66,22
2025-02-19 16:26:47.266,-80.0,-356.0,1809.0,-96.0,38.0,219.0,130,72,94,100,151,837,1016,16
2025-02-19 16:26:47.287,-146.0,-88.0,1198.0,-84.0,70.0,240.0,130,70,94,100,150,924,1018,14
2025-02-19 16:26:47.304,-260.0,324.0,970.0,-69.0,98.0,244.0,130,70,94,101,149,1007,1017,229
2025-02-19 16:26:47.324,-238.0,583.0,770.0,-70.0,96.0,187.0,132,71,96,101,149,1017,1015,1009
2025-02-19 16:26:47.340,-327.0,601.0,746.0,-8.0,99.0,149.0,134,71,96,102,149,1017,1018,1009
2025-02-19 16:26:47.361,-502.0,752.0,621.0,33.0,85.0,128.0,135,71,94,100,149,1017,1017,1009
2025-02-19 16:26:47.381,-593.0,1066.0,604.0,39.0,54.0,93.0,135,71,96,101,150,1017,1017,1009
2025-02-19 16:26:47.398,-673.0,1458.0,699.0,10.0,33.0,27.0,134,70,95,100,149,1018,1017,1009
2025-02-19 16:26:47.418,-798.0,1884.0,663.0,-44.0,35.0,-61.0,135,71,96,100,149,1017,1017,1009
2025-02-19 16:26:47.438,-1005.0,2162.0,254.0,-82.0,36.0,-176.0,133,70,99,98,149,1017,1017,1010
2025-02-19 16:26:47.455,-1181.0,1998.0,-120.0,-55.0,-8.0,-291.0,131,70,94,97,149,1019,1017,1010
2025-02-19 16:26:47.473,-1070.0,1757.0,-310.0,19.0,-79.0,-370.0,131,70,93,98,149,1017,1001,1009
2025-02-19 16:26:47.496,-156.0,617.0,-123.0,57.0,-227.0,-403.0,132,69,92,98,148,1017,953,984
2025-02-19 16:26:47.514,1407.0,-1150.0,450.0,144.0,-321.0,-346.0,135,70,94,102,147,1017,632,755
2025-02-19 16:26:47.533,2653.0,-2708.0,2134.0,197.0,-274.0,-107.0,137,70,94,105,144,1017,834,506
2025-02-19 16:26:47.550,2728.0,-2294.0,3153.0,0.0,-109.0,53.0,140,72,97,110,143,1016,1017,12
2025-02-19 16:26:47.569,1542.0,-1806.0,2426.0,-144.0,-3.0,113.0,140,72,96,109,135,1017,1018,12
2025-02-19 16:26:47.590,626.0,-1413.0,1647.0,-216.0,35.0,189.0,144,76,100,114,124,999,636,17
2025-02-19 16:26:47.607,382.0,-862.0,1875.0,-214.0,81.0,242.0,142,74,99,113,118,971,15,15
2025-02-19 16:26:47.629,138.0,-311.0,2078.0,-252.0,175.0,276.0,141,72,98,113,114,999,16,12
2025-02-19 16:26:47.647,44.0,-81.0,1933.0,-277.0,298.0,279.0,142,74,99,115,114,1017,13,93
2025-02-19 16:26:47.665,-118.0,-78.0,1367.0,-221.0,340.0,267.0,143,75,99,116,115,1016,178,950
2025-02-19 16:26:47.684,-162.0,174.0,977.0,-156.0,336.0,231.0,145,75,100,116,113,1017,15,1010
2025-02-19 16:26:47.705,-158.0,343.0,874.0,-172.0,325.0,188.0,143,73,97,113,111,1017,13,1009
2025-02-19 16:26:47.721,-143.0,254.0,678.0,-186.0,331.0,147.0,145,75,97,115,113,1017,304,1009
2025-02-19 16:26:47.742,-453.0,71.0,223.0,-176.0,314.0,139.0,145,76,98,115,114,1017,115,1010
2025-02-19 16:26:47.759,-655.0,92.0,-22.0,-179.0,267.0,130.0,145,75,97,115,112,1017,14,1009
2025-02-19 16:26:47.775,-426.0,63.0,-184.0,-129.0,217.0,116.0,145,75,96,115,111,1016,30,1009
2025-02-19 16:26:47.799,-417.0,197.0,-122.0,-31.0,161.0,82.0,144,76,97,115,113,1017,880,911
2025-02-19 16:26:47.817,-511.0,375.0,-760.0,14.0,109.0,59.0,155,89,108,127,125,908,1017,770
2025-02-19 16:26:47.836,-780.0,625.0,-1050.0,35.0,30.0,30.0,149,82,103,121,118,837,1018,778
2025-02-19 16:26:47.856,-989.0,1145.0,-1429.0,65.0,-118.0,-102.0,150,88,106,120,117,795,1017,839
2025-02-19 16:26:47.874,-1095.0,1765.0,-1516.0,113.0,-304.0,-285.0,149,95,105,110,112,771,999,836
2025-02-19 16:26:47.891,-325.0,1855.0,-1609.0,120.0,-501.0,-470.0,147,106,106,108,111,782,996,926
2025-02-19 16:26:47.914,249.0,1431.0,-1063.0,94.0,-693.0,-550.0,147,121,110,108,113,791,1017,1002
2025-02-19 16:26:47.931,822.0,752.0,-831.0,70.0,-919.0,-554.0,142,128,112,110,115,802,1018,529
2025-02-19 16:26:47.951,3031.0,-1616.0,444.0,81.0,-964.0,-407.0,140,135,115,114,117,819,811,46
2025-02-19 16:26:47.971,3895.0,-2306.0,2539.0,151.0,-595.0,-196.0,141,139,114,115,117,833,233,13
2025-02-19 16:26:47.987,3663.0,-2259.0,2775.0,73.0,-84.0,-6.0,142,141,115,115,119,853,870,14
2025-02-19 16:26:48.008,2287.0,-2382.0,2496.0,46.0,131.0,48.0,142,141,115,114,119,877,1017,13
2025-02-19 16:26:48.025,1150.0,-1368.0,2163.0,14.0,172.0,93.0,142,140,114,110,117,899,1016,16
2025-02-19 16:26:48.043,747.0,-1238.0,1731.0,-93.0,194.0,141.0,142,141,115,108,118,924,633,13
2025-02-19 16:26:48.065,514.0,-1088.0,1267.0,-88.0,237.0,162.0,143,141,116,106,118,934,13,13
2025-02-19 16:26:48.082,239.0,-805.0,995.0,-72.0,293.0,163.0,145,143,118,108,119,928,15,103
2025-02-19 16:26:48.102,170.0,-574.0,621.0,-66.0,318.0,172.0,144,143,119,109,119,864,15,485
