timestamp,ax,ay,az,gx,gy,gz,flex1,flex2,flex3,flex4,flex5,emg1,emg2,emg3
2025-02-26 15:31:55.508,-441.0,4.0,942.0,-2.0,-7.0,-2.0,126,106,98,115,109
2025-02-26 15:31:55.510,-441.0,-8.0,950.0,-3.0,-6.0,-2.0,127,107,98,116,109
2025-02-26 15:31:55.514,-438.0,-8.0,944.0,-4.0,-5.0,-2.0,127,106,98,115,109
2025-02-26 15:31:55.518,-435.0,-7.0,945.0,-5.0,-5.0,-2.0,127,106,98,117,109
2025-02-26 15:31:55.520,-434.0,-14.0,942.0,-6.0,-4.0,-2.0,127,107,96,116,109
2025-02-26 15:31:55.523,-427.0,-12.0,938.0,-6.0,-3.0,-2.0,127,105,99,117,109
2025-02-26 15:31:55.526,-429.0,-25.0,937.0,-7.0,-3.0,-2.0,126,105,98,115,109
2025-02-26 15:31:55.531,-434.0,-27.0,933.0,-7.0,-1.0,-1.0,128,106,99,115,109
2025-02-26 15:31:55.533,-433.0,-37.0,933.0,-6.0,0.0,-1.0,128,107,99,116,110
2025-02-26 15:31:55.537,-431.0,-41.0,930.0,-6.0,0.0,-1.0,126,106,98,115,109
2025-02-26 15:31:55.540,-432.0,-47.0,927.0,-5.0,2.0,0.0,127,107,98,116,109
2025-02-26 15:31:55.543,-436.0,-49.0,923.0,-5.0,3.0,0.0,127,106,99,115,110
2025-02-26 15:31:55.545,-437.0,-44.0,916.0,-3.0,3.0,0.0,127,106,99,116,109
2025-02-26 15:31:55.548,-444.0,-42.0,916.0,-3.0,3.0,0.0,127,108,99,116,111
2025-02-26 15:31:55.551,-446.0,-43.0,911.0,-2.0,3.0,1.0,127,107,99,116,109
2025-02-26 15:31:55.553,-450.0,-42.0,906.0,-1.0,3.0,0.0,126,106,98,116,110
2025-02-26 15:31:55.556,-453.0,-44.0,910.0,-2.0,3.0,0.0,127,106,99,117,108
2025-02-26 15:31:55.560,-458.0,-42.0,897.0,-2.0,2.0,0.0,127,107,100,114,110
2025-02-26 15:31:55.563,-459.0,-39.0,899.0,-2.0,1.0,0.0,127,106,98,115,108
2025-02-26 15:31:55.566,-465.0,-42.0,896.0,-2.0,1.0,0.0,127,107,99,117,110
2025-02-26 15:31:55.570,-466.0,-36.0,903.0,-4.0,1.0,0.0,128,107,99,114,109
2025-02-26 15:31:55.573,-463.0,-46.0,902.0,-4.0,1.0,0.0,127,106,98,115,109
2025-02-26 15:31:55.576,-464.0,-50.0,895.0,-5.0,1.0,0.0,127,105,99,115,109
2025-02-26 15:31:55.579,-464.0,-60.0,896.0,-5.0,0.0,0.0,128,107,99,116,109
2025-02-26 15:31:55.582,-462.0,-61.0,897.0,-5.0,0.0,0.0,128,107,98,115,109
2025-02-26 15:31:55.584,-467.0,-60.0,896.0,-4.0,0.0,1.0,128,107,98,114,109
2025-02-26 15:31:55.586,-461.0,-62.0,895.0,-4.0,0.0,1.0,127,105,98,116,109
2025-02-26 15:31:55.588,-465.0,-67.0,904.0,-3.0,0.0,1.0,127,107,99,117,110
2025-02-26 15:31:55.592,-465.0,-64.0,900.0,-3.0,0.0,2.0,127,107,99,115,109
2025-02-26 15:31:55.595,-470.0,-64.0,900.0,-2.0,0.0,2.0,127,106,98,116,109
2025-02-26 15:31:55.598,-462.0,-65.0,904.0,0.0,0.0,2.0,127,107,99,115,109
2025-02-26 15:31:55.602,-464.0,-58.0,905.0,1.0,1.0,2.0,128,106,99,116,109
2025-02-26 15:31:55.605,-464.0,-65.0,915.0,2.0,1.0,2.0,128,107,99,117,112
2025-02-26 15:31:55.607,-465.0,-61.0,906.0,4.0,2.0,2.0,127,106,99,116,109
2025-02-26 15:31:55.610,-468.0,-56.0,909.0,4.0,2.0,3.0,127,106,98,115,109
2025-02-26 15:31:55.612,-467.0,-54.0,909.0,5.0,2.0,3.0,128,108,99,116,109
2025-02-26 15:31:55.614,-473.0,-45.0,907.0,5.0,2.0,3.0,128,106,99,115,111
2025-02-26 15:31:55.617,-477.0,-33.0,906.0,4.0,1.0,3.0,127,106,98,116,109
2025-02-26 15:31:55.620,-494.0,-37.0,905.0,4.0,0.0,3.0,127,106,99,116,109
2025-02-26 15:31:55.624,-478.0,-20.0,902.0,2.0,-1.0,2.0,126,106,99,116,109
2025-02-26 15:31:55.627,-491.0,-12.0,897.0,1.0,-2.0,2.0,128,107,98,115,110
2025-02-26 15:31:55.631,-484.0,-7.0,904.0,-1.0,-3.0,1.0,128,107,98,115,108
2025-02-26 15:31:55.634,-488.0,-18.0,912.0,-2.0,-4.0,1.0,129,106,99,115,110
2025-02-26 15:31:55.636,-474.0,-15.0,918.0,-3.0,-4.0,0.0,127,107,99,115,110
2025-02-26 15:31:55.641,-481.0,-22.0,924.0,-3.0,-4.0,0.0,127,106,97,116,108
2025-02-26 15:31:55.642,-471.0,-27.0,930.0,-2.0,-4.0,1.0,127,107,99,117,109
2025-02-26 15:31:55.646,-471.0,-39.0,931.0,-1.0,-4.0,1.0,128,107,99,116,107
2025-02-26 15:31:55.648,-464.0,-37.0,932.0,0.0,-3.0,1.0,128,107,99,116,109
2025-02-26 15:31:55.651,-462.0,-42.0,940.0,1.0,-3.0,1.0,128,107,99,117,109
2025-02-26 15:31:55.654,-458.0,-45.0,943.0,2.0,-2.0,1.0,129,106,97,116,109
2025-02-26 15:31:55.657,-462.0,-36.0,943.0,3.0,-1.0,1.0,128,107,98,116,107
2025-02-26 15:31:55.660,-464.0,-27.0,940.0,4.0,-1.0,1.0,128,106,97,115,109
2025-02-26 15:31:55.662,-470.0,-17.0,937.0,4.0,-1.0,1.0,127,107,100,117,109
2025-02-26 15:31:55.666,-471.0,-16.0,940.0,4.0,0.0,1.0,127,106,99,116,109
2025-02-26 15:31:55.670,-475.0,-10.0,944.0,4.0,0.0,0.0,127,106,99,119,109
2025-02-26 15:31:55.674,-475.0,-11.0,943.0,3.0,0.0,0.0,128,106,98,116,108
2025-02-26 15:31:55.678,-474.0,-16.0,934.0,2.0,1.0,1.0,127,106,99,117,110
2025-02-26 15:31:55.683,-473.0,-11.0,936.0,2.0,1.0,1.0,127,107,98,116,109
2025-02-26 15:31:55.690,-469.0,-14.0,943.0,1.0,1.0,0.0,127,106,98,116,110
2025-02-26 15:31:55.694,-473.0,-19.0,940.0,2.0,1.0,0.0,127,106,99,116,109
2025-02-26 15:31:55.698,-473.0,-20.0,936.0,1.0,0.0,0.0,127,107,99,115,110
2025-02-26 15:31:55.703,-471.0,-14.0,939.0,1.0,1.0,0.0,126,105,99,116,109
2025-02-26 15:31:55.707,-477.0,-10.0,937.0,0.0,0.0,0.0,127,106,98,116,109
2025-02-26 15:31:55.711,-475.0,-5.0,939.0,0.0,0.0,0.0,128,106,98,115,110
2025-02-26 15:31:55.715,-476.0,-7.0,931.0,-2.0,0.0,0.0,126,107,99,116,109
2025-02-26 15:31:55.723,-472.0,-8.0,935.0,-2.0,-1.0,-1.0,127,106,98,117,109
2025-02-26 15:31:55.727,-473.0,-15.0,938.0,-3.0,-1.0,-1.0,127,106,98,115,109
2025-02-26 15:31:55.731,-466.0,-17.0,934.0,-3.0,-1.0,-1.0,128,107,98,115,110
2025-02-26 15:31:55.733,-468.0,-19.0,937.0,-3.0,0.0,-1.0,128,107,99,115,110
2025-02-26 15:31:55.744,-471.0,-26.0,936.0,-3.0,0.0,-1.0,128,106,99,116,109
2025-02-26 15:31:55.745,-463.0,-27.0,936.0,-3.0,0.0,-1.0,127,107,99,116,110
2025-02-26 15:31:55.751,-463.0,-37.0,935.0,-3.0,1.0,-1.0,126,105,99,116,109
2025-02-26 15:31:55.751,-461.0,-42.0,936.0,-3.0,1.0,-1.0,127,106,98,116,110
2025-02-26 15:31:55.764,-464.0,-37.0,930.0,-2.0,2.0,-1.0,127,106,99,115,109
2025-02-26 15:31:55.768,-455.0,-38.0,932.0,-2.0,2.0,0.0,128,106,99,115,109
2025-02-26 15:31:55.772,-465.0,-46.0,930.0,-1.0,2.0,0.0,129,106,98,116,109
2025-02-26 15:31:55.776,-470.0,-43.0,928.0,1.0,2.0,0.0,128,107,99,116,110
2025-02-26 15:31:55.780,-465.0,-40.0,930.0,1.0,3.0,1.0,128,107,99,116,109
2025-02-26 15:31:55.788,-462.0,-41.0,929.0,1.0,3.0,1.0,128,104,97,114,109
2025-02-26 15:31:55.793,-458.0,-44.0,928.0,2.0,3.0,1.0,126,107,99,117,110
2025-02-26 15:31:55.797,-464.0,-37.0,924.0,2.0,3.0,1.0,127,108,99,115,110
2025-02-26 15:31:55.800,-460.0,-33.0,924.0,2.0,4.0,2.0,127,105,98,115,109
2025-02-26 15:31:55.805,-460.0,-28.0,923.0,1.0,4.0,2.0,128,107,98,117,110
2025-02-26 15:31:55.810,-464.0,-21.0,922.0,1.0,4.0,1.0,127,108,100,116,110
2025-02-26 15:31:55.812,-458.0,-19.0,915.0,0.0,3.0,1.0,128,106,98,115,109
2025-02-26 15:31:55.821,-462.0,-12.0,916.0,-2.0,3.0,1.0,128,107,100,116,111
2025-02-26 15:31:55.824,-465.0,-9.0,910.0,-3.0,2.0,0.0,127,106,99,116,110
2025-02-26 15:31:55.824,-466.0,-8.0,910.0,-5.0,2.0,0.0,129,106,98,119,110
2025-02-26 15:31:55.833,-465.0,-14.0,906.0,-6.0,1.0,0.0,127,106,98,116,109
2025-02-26 15:31:55.836,-463.0,-19.0,905.0,-7.0,1.0,0.0,127,106,97,116,110
2025-02-26 15:31:55.846,-455.0,-24.0,907.0,-8.0,0.0,-1.0,128,106,98,115,108
2025-02-26 15:31:55.847,-454.0,-32.0,904.0,-8.0,0.0,0.0,125,107,98,112,109
2025-02-26 15:31:55.854,-456.0,-46.0,904.0,-7.0,0.0,0.0,128,107,99,116,109
2025-02-26 15:31:55.858,-454.0,-44.0,906.0,-6.0,1.0,0.0,128,108,97,116,109
2025-02-26 15:31:55.863,-451.0,-51.0,902.0,-5.0,2.0,1.0,128,107,99,116,109
2025-02-26 15:31:55.866,-450.0,-53.0,905.0,-3.0,2.0,1.0,129,106,99,112,108
2025-02-26 15:31:55.874,-457.0,-50.0,910.0,0.0,2.0,1.0,126,107,99,116,109
2025-02-26 15:31:55.878,-461.0,-36.0,910.0,1.0,2.0,2.0,128,106,98,116,109
2025-02-26 15:31:55.878,-459.0,-29.0,907.0,2.0,3.0,2.0,127,106,98,115,109
2025-02-26 15:31:55.878,-469.0,-17.0,904.0,1.0,3.0,1.0,127,107,99,116,109
2025-02-26 15:31:55.894,-468.0,-6.0,905.0,1.0,2.0,1.0,127,106,98,116,109
2025-02-26 15:31:55.899,-470.0,-3.0,903.0,0.0,2.0,1.0,128,107,98,115,109
2025-02-26 15:31:55.903,-471.0,6.0,904.0,-1.0,1.0,0.0,127,106,98,117,110
2025-02-26 15:31:55.908,-471.0,1.0,905.0,-2.0,1.0,-1.0,128,107,99,117,108
2025-02-26 15:31:55.909,-472.0,-1.0,903.0,-3.0,1.0,-1.0,127,106,98,115,109
2025-02-26 15:31:55.909,-477.0,0.0,900.0,-4.0,0.0,-1.0,128,107,99,115,109
2025-02-26 15:31:55.924,-477.0,-4.0,901.0,-5.0,0.0,-1.0,128,106,99,115,109
2025-02-26 15:31:55.925,-470.0,-8.0,902.0,-4.0,-1.0,-1.0,128,106,99,117,110
2025-02-26 15:31:55.932,-467.0,-18.0,901.0,-4.0,-1.0,-1.0,127,106,98,116,109
2025-02-26 15:31:55.933,-468.0,-17.0,903.0,-3.0,-1.0,-1.0,127,107,99,117,110
2025-02-26 15:31:55.944,-466.0,-20.0,909.0,-1.0,-1.0,-1.0,128,107,99,116,110
2025-02-26 15:31:55.948,-468.0,-21.0,906.0,0.0,0.0,-1.0,127,107,98,115,108
2025-02-26 15:31:55.951,-469.0,-14.0,913.0,2.0,-1.0,-1.0,127,107,98,116,109
2025-02-26 15:31:55.956,-463.0,-8.0,913.0,3.0,0.0,-1.0,127,107,100,117,110
2025-02-26 15:31:55.960,-474.0,-5.0,918.0,3.0,0.0,-1.0,128,107,99,115,108
2025-02-26 15:31:55.963,-473.0,0.0,918.0,3.0,0.0,-2.0,127,106,98,115,110
2025-02-26 15:31:55.972,-476.0,7.0,916.0,2.0,0.0,-2.0,129,107,99,115,110
2025-02-26 15:31:55.974,-471.0,11.0,914.0,1.0,0.0,-3.0,128,106,99,115,109
2025-02-26 15:31:55.981,-477.0,15.0,916.0,0.0,-1.0,-3.0,128,107,98,116,109
2025-02-26 15:31:55.986,-477.0,18.0,911.0,-2.0,-2.0,-4.0,128,106,99,116,109
2025-02-26 15:31:55.989,-476.0,15.0,914.0,-3.0,-2.0,-4.0,126,106,99,116,109
2025-02-26 15:31:55.994,-476.0,13.0,914.0,-4.0,-2.0,-4.0,126,107,99,116,110
2025-02-26 15:31:56.001,-474.0,4.0,917.0,-4.0,-3.0,-4.0,127,106,99,116,110
2025-02-26 15:31:56.005,-468.0,-10.0,913.0,-4.0,-3.0,-4.0,127,106,98,116,110
2025-02-26 15:31:56.009,-466.0,-11.0,915.0,-2.0,-3.0,-4.0,128,106,98,116,109
2025-02-26 15:31:56.012,-469.0,-19.0,915.0,-2.0,-3.0,-4.0,127,107,99,115,105
2025-02-26 15:31:56.022,-469.0,-28.0,918.0,0.0,-3.0,-4.0,126,107,96,117,108
2025-02-26 15:31:56.023,-465.0,-9.0,923.0,1.0,-2.0,-4.0,127,106,98,116,109
2025-02-26 15:31:56.030,-478.0,-13.0,920.0,1.0,-2.0,-4.0,127,106,98,115,110
2025-02-26 15:31:56.034,-476.0,-13.0,927.0,2.0,-2.0,-4.0,127,107,98,115,109
2025-02-26 15:31:56.042,-475.0,-10.0,928.0,3.0,-1.0,-4.0,128,107,99,117,110
2025-02-26 15:31:56.044,-471.0,-10.0,930.0,3.0,-1.0,-4.0,128,107,101,115,109
2025-02-26 15:31:56.050,-475.0,-16.0,926.0,3.0,-1.0,-5.0,127,105,101,115,109
2025-02-26 15:31:56.054,-478.0,-8.0,924.0,3.0,-1.0,-5.0,128,106,99,116,109
2025-02-26 15:31:56.054,-479.0,-2.0,929.0,3.0,0.0,-5.0,128,107,102,116,110
2025-02-26 15:31:56.066,-480.0,-13.0,925.0,2.0,0.0,-5.0,128,106,98,116,108
2025-02-26 15:31:56.071,-480.0,-14.0,922.0,1.0,-1.0,-4.0,123,104,99,117,110
2025-02-26 15:31:56.072,-477.0,-13.0,919.0,1.0,0.0,-4.0,127,106,99,116,110
2025-02-26 15:31:56.078,-479.0,-22.0,924.0,0.0,-1.0,-4.0,127,106,98,115,109
2025-02-26 15:31:56.084,-473.0,-21.0,922.0,-1.0,-1.0,-4.0,127,107,99,115,110
2025-02-26 15:31:56.084,-474.0,-28.0,915.0,-1.0,-1.0,-4.0,128,108,99,117,108
2025-02-26 15:31:56.096,-471.0,-30.0,921.0,-1.0,-1.0,-4.0,127,106,98,115,109
2025-02-26 15:31:56.100,-473.0,-28.0,915.0,-2.0,-1.0,-4.0,127,107,99,115,109
2025-02-26 15:31:56.104,-471.0,-31.0,919.0,-2.0,-1.0,-5.0,128,107,98,116,109
2025-02-26 15:31:56.112,-474.0,-34.0,926.0,-3.0,-1.0,-4.0,127,106,99,115,109
2025-02-26 15:31:56.116,-475.0,-42.0,920.0,-3.0,0.0,-4.0,127,106,97,116,110
2025-02-26 15:31:56.117,-472.0,-42.0,922.0,-3.0,1.0,-4.0,127,107,99,117,110
2025-02-26 15:31:56.124,-469.0,-49.0,925.0,-2.0,1.0,-4.0,127,106,99,116,109
2025-02-26 15:31:56.129,-470.0,-55.0,922.0,-1.0,2.0,-3.0,127,106,99,116,110
2025-02-26 15:31:56.136,-471.0,-58.0,924.0,-1.0,2.0,-3.0,127,106,98,116,109
2025-02-26 15:31:56.141,-472.0,-56.0,918.0,0.0,3.0,-3.0,127,106,99,116,109
2025-02-26 15:31:56.145,-473.0,-62.0,913.0,0.0,4.0,-2.0,127,107,104,116,109
2025-02-26 15:31:56.149,-475.0,-62.0,904.0,0.0,4.0,-2.0,127,107,98,115,109
2025-02-26 15:31:56.154,-475.0,-56.0,903.0,0.0,4.0,-1.0,127,107,100,116,110
2025-02-26 15:31:56.161,-482.0,-51.0,901.0,0.0,4.0,-1.0,127,107,101,119,110
2025-02-26 15:31:56.166,-485.0,-39.0,889.0,-1.0,4.0,-1.0,127,107,99,115,110
2025-02-26 15:31:56.170,-483.0,-52.0,885.0,-2.0,3.0,-2.0,127,107,99,116,109
2025-02-26 15:31:56.174,-479.0,-45.0,882.0,-2.0,3.0,-2.0,127,106,98,117,109
2025-02-26 15:31:56.182,-482.0,-40.0,881.0,-3.0,2.0,-2.0,127,107,99,117,110
2025-02-26 15:31:56.185,-489.0,-40.0,879.0,-4.0,2.0,-2.0,127,106,99,117,110
2025-02-26 15:31:56.190,-491.0,-45.0,882.0,-5.0,1.0,-2.0,127,107,99,116,110
2025-02-26 15:31:56.194,-484.0,-44.0,879.0,-6.0,1.0,-2.0,127,106,98,115,109
2025-02-26 15:31:56.198,-487.0,-47.0,876.0,-6.0,0.0,-2.0,127,107,98,116,109
2025-02-26 15:31:56.206,-479.0,-54.0,879.0,-7.0,0.0,-2.0,128,106,98,116,109
2025-02-26 15:31:56.210,-479.0,-62.0,876.0,-6.0,0.0,-2.0,127,105,98,116,110
2025-02-26 15:31:56.214,-473.0,-64.0,876.0,-5.0,0.0,-2.0,128,106,100,116,108
2025-02-26 15:31:56.219,-476.0,-77.0,881.0,-4.0,1.0,-1.0,128,106,101,117,109
2025-02-26 15:31:56.227,-477.0,-73.0,878.0,-3.0,1.0,-1.0,127,106,99,116,110
2025-02-26 15:31:56.230,-475.0,-71.0,877.0,-1.0,1.0,-1.0,128,105,98,117,109
2025-02-26 15:31:56.233,-472.0,-67.0,878.0,-1.0,1.0,0.0,127,107,98,116,109
2025-02-26 15:31:56.239,-478.0,-59.0,874.0,0.0,1.0,0.0,127,107,98,115,109
2025-02-26 15:31:56.244,-479.0,-57.0,871.0,0.0,0.0,0.0,127,107,99,117,109
2025-02-26 15:31:56.249,-478.0,-42.0,878.0,-1.0,-1.0,0.0,127,105,99,117,110
2025-02-26 15:31:56.255,-481.0,-40.0,880.0,-3.0,-1.0,0.0,127,106,98,116,109
2025-02-26 15:31:56.258,-483.0,-40.0,884.0,-4.0,-2.0,-1.0,128,106,99,116,109
2025-02-26 15:31:56.264,-485.0,-36.0,885.0,-5.0,-3.0,-1.0,127,107,97,115,110
2025-02-26 15:31:56.268,-480.0,-35.0,888.0,-7.0,-4.0,-1.0,127,106,98,115,109
2025-02-26 15:31:56.275,-473.0,-41.0,889.0,-8.0,-4.0,-1.0,127,106,97,116,109
2025-02-26 15:31:56.280,-472.0,-47.0,895.0,-8.0,-5.0,-1.0,127,106,98,116,109
2025-02-26 15:31:56.284,-471.0,-50.0,897.0,-7.0,-5.0,-2.0,126,106,98,118,110
2025-02-26 15:31:56.288,-466.0,-51.0,901.0,-7.0,-5.0,-1.0,129,108,99,116,109
2025-02-26 15:31:56.296,-462.0,-60.0,908.0,-6.0,-4.0,-1.0,127,106,99,115,109
2025-02-26 15:31:56.297,-462.0,-66.0,915.0,-5.0,-4.0,-1.0,128,106,99,116,110
2025-02-26 15:31:56.302,-461.0,-66.0,918.0,-4.0,-3.0,0.0,127,107,98,117,110
2025-02-26 15:31:56.309,-458.0,-66.0,919.0,-2.0,-3.0,0.0,127,107,99,115,109
2025-02-26 15:31:56.313,-455.0,-67.0,924.0,1.0,-2.0,0.0,128,107,99,116,109
2025-02-26 15:31:56.321,-453.0,-68.0,921.0,2.0,-1.0,1.0,126,106,99,116,109
2025-02-26 15:31:56.321,-458.0,-55.0,924.0,2.0,-1.0,1.0,127,106,98,116,109
2025-02-26 15:31:56.329,-463.0,-46.0,927.0,3.0,-1.0,1.0,127,107,99,116,108
2025-02-26 15:31:56.333,-463.0,-42.0,925.0,3.0,0.0,2.0,127,107,99,115,109
2025-02-26 15:31:56.333,-463.0,-40.0,931.0,3.0,-1.0,1.0,127,106,99,116,109
2025-02-26 15:31:56.345,-460.0,-36.0,933.0,2.0,0.0,2.0,127,107,99,116,110
2025-02-26 15:31:56.345,-459.0,-27.0,925.0,2.0,-1.0,1.0,127,106,98,115,109
2025-02-26 15:31:56.351,-459.0,-20.0,923.0,0.0,-1.0,1.0,127,106,98,115,109
2025-02-26 15:31:56.357,-462.0,-20.0,929.0,-2.0,-2.0,1.0,127,107,98,116,110
2025-02-26 15:31:56.362,-461.0,-21.0,928.0,-3.0,-2.0,1.0,128,107,99,117,109
2025-02-26 15:31:56.369,-459.0,-21.0,928.0,-4.0,-2.0,1.0,127,111,99,116,109
2025-02-26 15:31:56.369,-454.0,-28.0,929.0,-5.0,-2.0,1.0,126,106,98,115,109
2025-02-26 15:31:56.378,-456.0,-41.0,935.0,-5.0,-1.0,1.0,127,106,98,116,109
2025-02-26 15:31:56.381,-452.0,-49.0,933.0,-3.0,-1.0,1.0,127,107,98,116,109
2025-02-26 15:31:56.381,-451.0,-51.0,934.0,-2.0,1.0,1.0,127,107,99,116,111
2025-02-26 15:31:56.394,-455.0,-62.0,925.0,-1.0,2.0,2.0,126,106,98,115,110
2025-02-26 15:31:56.398,-455.0,-55.0,920.0,1.0,2.0,2.0,127,106,98,115,109
2025-02-26 15:31:56.402,-459.0,-53.0,923.0,3.0,2.0,2.0,128,107,99,117,109
2025-02-26 15:31:56.406,-460.0,-48.0,917.0,4.0,2.0,2.0,127,107,98,117,110
2025-02-26 15:31:56.412,-468.0,-45.0,909.0,5.0,2.0,3.0,127,106,99,116,111
2025-02-26 15:31:56.415,-471.0,-29.0,910.0,4.0,1.0,3.0,128,106,99,116,110
2025-02-26 15:31:56.418,-475.0,-22.0,905.0,3.0,1.0,3.0,127,106,99,115,109
2025-02-26 15:31:56.427,-479.0,-18.0,910.0,2.0,1.0,3.0,127,106,99,115,109
2025-02-26 15:31:56.430,-475.0,-16.0,903.0,0.0,0.0,2.0,127,107,99,115,109
2025-02-26 15:31:56.436,-481.0,-15.0,907.0,0.0,0.0,2.0,127,106,98,115,109
2025-02-26 15:31:56.440,-481.0,-13.0,908.0,-1.0,-1.0,2.0,128,108,99,115,110
2025-02-26 15:31:56.448,-477.0,-18.0,904.0,-2.0,-1.0,2.0,127,106,99,116,109
2025-02-26 15:31:56.452,-477.0,-21.0,904.0,-2.0,-1.0,1.0,128,106,98,115,109
2025-02-26 15:31:56.457,-478.0,-24.0,907.0,-2.0,-1.0,1.0,127,109,98,116,110
2025-02-26 15:31:56.460,-474.0,-19.0,907.0,-2.0,-1.0,1.0,128,106,98,116,109
2025-02-26 15:31:56.465,-473.0,-18.0,903.0,-1.0,-2.0,1.0,128,106,98,117,110
2025-02-26 15:31:56.472,-478.0,-17.0,908.0,-1.0,-2.0,1.0,128,107,99,117,109
2025-02-26 15:31:56.477,-481.0,-12.0,906.0,-1.0,-2.0,1.0,129,107,99,117,109
2025-02-26 15:31:56.481,-486.0,-14.0,906.0,-1.0,-2.0,1.0,127,106,98,116,108
2025-02-26 15:31:56.485,-485.0,-11.0,907.0,-1.0,-2.0,0.0,126,107,98,118,110
2025-02-26 15:31:56.493,-489.0,-17.0,911.0,-2.0,-2.0,0.0,128,108,99,115,109
2025-02-26 15:31:56.497,-480.0,-16.0,912.0,-2.0,-1.0,0.0,127,106,98,115,110
2025-02-26 15:31:56.501,-480.0,-22.0,917.0,-1.0,-1.0,0.0,128,106,99,115,109
2025-02-26 15:31:56.506,-482.0,-28.0,913.0,-1.0,-1.0,0.0,128,107,99,116,109
2025-02-26 15:31:56.510,-481.0,-26.0,911.0,0.0,-1.0,0.0,128,105,99,116,109
2025-02-26 15:31:56.517,-481.0,-27.0,915.0,0.0,-1.0,0.0,128,105,99,115,110
2025-02-26 15:31:56.521,-480.0,-33.0,916.0,1.0,0.0,0.0,128,106,98,115,109
2025-02-26 15:31:56.526,-473.0,-31.0,915.0,1.0,-1.0,0.0,127,107,100,116,108
2025-02-26 15:31:56.530,-474.0,-33.0,916.0,2.0,0.0,0.0,127,106,99,115,109
2025-02-26 15:31:56.535,-470.0,-35.0,918.0,2.0,0.0,0.0,127,107,99,117,110
2025-02-26 15:31:56.539,-473.0,-38.0,914.0,3.0,0.0,0.0,127,107,98,116,109
2025-02-26 15:31:56.546,-469.0,-35.0,916.0,3.0,0.0,0.0,128,107,99,116,110
2025-02-26 15:31:56.550,-474.0,-31.0,912.0,3.0,0.0,0.0,126,106,99,115,110
2025-02-26 15:31:56.555,-472.0,-29.0,908.0,3.0,0.0,0.0,128,107,97,116,109
2025-02-26 15:31:56.559,-472.0,-21.0,905.0,2.0,-1.0,0.0,126,106,99,115,108
2025-02-26 15:31:56.563,-474.0,-18.0,903.0,1.0,-1.0,0.0,127,107,98,117,109
2025-02-26 15:31:56.571,-477.0,-17.0,907.0,0.0,-2.0,0.0,128,107,99,116,109
2025-02-26 15:31:56.575,-476.0,-20.0,911.0,0.0,-2.0,0.0,128,107,99,116,109
2025-02-26 15:31:56.579,-474.0,-17.0,910.0,-1.0,-2.0,0.0,128,106,100,116,109
2025-02-26 15:31:56.584,-475.0,-11.0,916.0,-2.0,-3.0,0.0,129,106,98,117,108
2025-02-26 15:31:56.588,-465.0,-17.0,919.0,-3.0,-3.0,0.0,127,107,99,111,111
2025-02-26 15:31:56.596,-463.0,-28.0,927.0,-3.0,-3.0,0.0,127,106,99,116,109
2025-02-26 15:31:56.600,-463.0,-29.0,931.0,-2.0,-2.0,1.0,127,107,98,116,109
2025-02-26 15:31:56.604,-462.0,-33.0,929.0,-2.0,-1.0,1.0,128,108,99,117,110
2025-02-26 15:31:56.608,-466.0,-35.0,929.0,-1.0,0.0,1.0,128,106,98,116,109
2025-02-26 15:31:56.612,-466.0,-32.0,930.0,0.0,0.0,1.0,129,107,99,116,109
2025-02-26 15:31:56.620,-470.0,-31.0,928.0,0.0,1.0,2.0,126,107,99,116,110
2025-02-26 15:31:56.624,-467.0,-23.0,926.0,0.0,0.0,2.0,128,106,98,117,110
2025-02-26 15:31:56.628,-468.0,-20.0,925.0,1.0,1.0,1.0,127,106,98,116,109
2025-02-26 15:31:56.632,-471.0,-20.0,922.0,0.0,1.0,1.0,128,107,98,115,109
2025-02-26 15:31:56.636,-475.0,-23.0,918.0,0.0,1.0,2.0,127,107,97,116,109
2025-02-26 15:31:56.641,-464.0,-26.0,920.0,1.0,2.0,1.0,128,108,99,115,109
2025-02-26 15:31:56.648,-464.0,-25.0,919.0,1.0,2.0,1.0,128,107,99,115,110
2025-02-26 15:31:56.650,-461.0,-28.0,914.0,2.0,3.0,2.0,127,106,95,114,109
2025-02-26 15:31:56.656,-467.0,-26.0,909.0,2.0,2.0,2.0,127,106,97,115,109
2025-02-26 15:31:56.661,-466.0,-21.0,902.0,2.0,2.0,2.0,129,107,99,115,109
2025-02-26 15:31:56.665,-472.0,-19.0,900.0,2.0,2.0,2.0,128,106,98,116,109
2025-02-26 15:31:56.670,-471.0,-12.0,896.0,1.0,1.0,2.0,128,106,99,116,109
2025-02-26 15:31:56.675,-481.0,-5.0,894.0,1.0,0.0,1.0,126,106,99,117,109
2025-02-26 15:31:56.681,-476.0,1.0,894.0,0.0,0.0,1.0,126,107,99,114,110
2025-02-26 15:31:56.686,-482.0,5.0,894.0,-2.0,-1.0,0.0,128,106,99,116,108
2025-02-26 15:31:56.690,-479.0,6.0,894.0,-4.0,-1.0,0.0,127,106,99,115,109
2025-02-26 15:31:56.694,-482.0,6.0,907.0,-6.0,-1.0,0.0,127,106,98,115,109
2025-02-26 15:31:56.698,-486.0,-4.0,902.0,-7.0,-1.0,0.0,127,107,101,116,110
2025-02-26 15:31:56.706,-480.0,-13.0,907.0,-7.0,-2.0,0.0,128,106,100,117,109
2025-02-26 15:31:56.710,-482.0,-19.0,906.0,-7.0,-1.0,0.0,128,107,99,116,109
2025-02-26 15:31:56.715,-470.0,-28.0,902.0,-6.0,-1.0,0.0,125,106,98,116,109
2025-02-26 15:31:56.719,-477.0,-32.0,904.0,-5.0,-1.0,0.0,128,107,98,116,109
2025-02-26 15:31:56.727,-475.0,-41.0,905.0,-2.0,0.0,1.0,127,108,99,117,110
2025-02-26 15:31:56.731,-476.0,-48.0,896.0,-1.0,0.0,1.0,128,108,99,115,109
2025-02-26 15:31:56.735,-470.0,-46.0,896.0,3.0,1.0,1.0,128,106,99,116,109
2025-02-26 15:31:56.739,-477.0,-34.0,902.0,5.0,1.0,2.0,127,106,99,115,110
2025-02-26 15:31:56.743,-480.0,-22.0,895.0,5.0,0.0,1.0,128,107,99,117,110
2025-02-26 15:31:56.747,-488.0,-5.0,900.0,6.0,1.0,1.0,127,107,98,115,109
2025-02-26 15:31:56.754,-493.0,-4.0,900.0,5.0,0.0,1.0,128,106,99,116,109
2025-02-26 15:31:56.760,-487.0,7.0,902.0,4.0,-1.0,0.0,126,105,98,113,109
2025-02-26 15:31:56.763,-489.0,8.0,903.0,1.0,-1.0,0.0,127,107,98,115,110
2025-02-26 15:31:56.767,-485.0,10.0,898.0,-2.0,-1.0,-1.0,127,106,99,117,109
2025-02-26 15:31:56.772,-483.0,0.0,900.0,-2.0,-2.0,-1.0,127,106,97,115,109
2025-02-26 15:31:56.776,-476.0,-2.0,903.0,-4.0,-2.0,-1.0,127,107,98,117,110
2025-02-26 15:31:56.784,-474.0,-17.0,899.0,-5.0,-2.0,-1.0,128,107,99,117,111
2025-02-26 15:31:56.788,-471.0,-24.0,904.0,-5.0,-2.0,-1.0,127,106,99,115,109
2025-02-26 15:31:56.792,-470.0,-27.0,903.0,-4.0,-2.0,-1.0,128,106,99,114,109
2025-02-26 15:31:56.796,-468.0,-35.0,901.0,-3.0,-1.0,0.0,128,107,98,117,108
2025-02-26 15:31:56.804,-470.0,-36.0,898.0,-2.0,-1.0,0.0,128,106,98,117,110
2025-02-26 15:31:56.808,-473.0,-40.0,899.0,-1.0,-1.0,0.0,128,107,101,117,110
2025-02-26 15:31:56.814,-470.0,-35.0,897.0,0.0,-1.0,0.0,128,107,98,115,109
2025-02-26 15:31:56.816,-469.0,-28.0,895.0,1.0,-1.0,0.0,128,107,99,116,110
2025-02-26 15:31:56.816,-470.0,-23.0,895.0,1.0,-1.0,0.0,128,107,99,116,109
2025-02-26 15:31:56.816,-469.0,-26.0,897.0,1.0,0.0,-1.0,128,106,98,114,109
2025-02-26 15:31:56.831,-472.0,-17.0,895.0,0.0,-1.0,0.0,127,107,97,117,109
2025-02-26 15:31:56.831,-471.0,-21.0,896.0,0.0,-1.0,0.0,128,106,99,115,106
2025-02-26 15:31:56.831,-475.0,-20.0,897.0,0.0,-1.0,0.0,126,104,99,116,109
2025-02-26 15:31:56.845,-474.0,-24.0,899.0,0.0,-1.0,0.0,127,106,99,115,108
2025-02-26 15:31:56.847,-470.0,-32.0,900.0,0.0,-2.0,0.0,127,106,99,116,109
2025-02-26 15:31:56.847,-471.0,-28.0,906.0,0.0,-2.0,0.0,127,107,99,115,109
2025-02-26 15:31:56.862,-468.0,-29.0,906.0,0.0,-2.0,0.0,128,107,98,117,109
2025-02-26 15:31:56.865,-475.0,-20.0,904.0,0.0,-2.0,0.0,128,108,98,116,110
2025-02-26 15:31:56.865,-475.0,-16.0,905.0,0.0,-2.0,0.0,127,106,98,118,109
2025-02-26 15:31:56.877,-479.0,-20.0,907.0,-1.0,-3.0,0.0,128,106,98,116,109
2025-02-26 15:31:56.882,-481.0,-8.0,907.0,-1.0,-3.0,0.0,127,108,100,116,108
2025-02-26 15:31:56.887,-468.0,-10.0,901.0,-2.0,-3.0,-1.0,128,107,99,115,109
2025-02-26 15:31:56.888,-464.0,0.0,891.0,-1.0,-3.0,-1.0,127,107,99,116,110
2025-02-26 15:31:56.894,-503.0,-11.0,893.0,-1.0,-5.0,0.0,130,107,99,115,110
2025-02-26 15:31:56.897,-480.0,20.0,932.0,-2.0,-2.0,0.0,128,107,98,116,108
2025-02-26 15:31:56.907,-481.0,-53.0,903.0,-6.0,-2.0,0.0,128,107,99,116,110
2025-02-26 15:31:56.909,-456.0,10.0,929.0,-3.0,-3.0,-1.0,128,108,99,118,111
2025-02-26 15:31:56.915,-480.0,-45.0,910.0,-3.0,-3.0,0.0,128,107,99,116,110
2025-02-26 15:31:56.919,-473.0,-30.0,907.0,4.0,-3.0,0.0,128,106,100,116,110
2025-02-26 15:31:56.919,-458.0,-16.0,951.0,2.0,-2.0,-1.0,127,109,99,117,111
2025-02-26 15:31:56.931,-487.0,-5.0,887.0,4.0,-1.0,0.0,127,107,99,117,110
2025-02-26 15:31:56.936,-530.0,13.0,897.0,4.0,-2.0,0.0,128,108,99,117,112
2025-02-26 15:31:56.940,-479.0,-15.0,872.0,4.0,-1.0,-1.0,129,109,100,118,111
2025-02-26 15:31:56.943,-476.0,-27.0,911.0,2.0,-2.0,0.0,129,108,100,117,111
2025-02-26 15:31:56.951,-482.0,14.0,915.0,3.0,-1.0,-1.0,130,109,98,118,112
2025-02-26 15:31:56.955,-452.0,63.0,924.0,-2.0,-1.0,-1.0,129,108,100,117,111
2025-02-26 15:31:56.960,-490.0,23.0,959.0,-5.0,0.0,-2.0,127,108,101,117,111
2025-02-26 15:31:56.965,-480.0,7.0,925.0,-8.0,-2.0,-1.0,131,109,101,119,110
2025-02-26 15:31:56.972,-469.0,34.0,925.0,-5.0,-2.0,-2.0,130,108,100,116,111
2025-02-26 15:31:56.977,-473.0,-24.0,899.0,-10.0,-2.0,-1.0,129,107,101,117,111
2025-02-26 15:31:56.981,-476.0,-46.0,866.0,-8.0,-1.0,-2.0,130,109,101,118,111
2025-02-26 15:31:56.985,-479.0,-56.0,877.0,-9.0,0.0,-1.0,130,109,102,118,112
2025-02-26 15:31:56.990,-441.0,-13.0,872.0,-6.0,-1.0,-1.0,130,109,104,118,112
2025-02-26 15:31:56.997,-517.0,-42.0,893.0,-7.0,1.0,0.0,129,109,101,117,111
2025-02-26 15:31:57.001,-471.0,-48.0,855.0,3.0,-1.0,0.0,130,110,101,119,112
2025-02-26 15:31:57.006,-440.0,-29.0,897.0,5.0,0.0,1.0,131,108,100,119,113
2025-02-26 15:31:57.010,-500.0,-66.0,861.0,7.0,-2.0,1.0,132,107,101,119,112
2025-02-26 15:31:57.016,-459.0,-34.0,933.0,5.0,0.0,1.0,130,109,101,117,112
2025-02-26 15:31:57.021,-491.0,-35.0,892.0,6.0,-1.0,1.0,131,110,101,118,112
2025-02-26 15:31:57.026,-503.0,4.0,872.0,4.0,-3.0,1.0,129,108,100,118,112
2025-02-26 15:31:57.030,-497.0,-17.0,937.0,4.0,-4.0,1.0,129,108,101,119,111
2025-02-26 15:31:57.034,-453.0,-2.0,916.0,0.0,-2.0,-1.0,129,107,100,118,111
2025-02-26 15:31:57.042,-473.0,-33.0,954.0,-5.0,-2.0,-1.0,129,109,101,118,112
2025-02-26 15:31:57.046,-462.0,28.0,869.0,-6.0,-2.0,-2.0,129,109,100,118,112
2025-02-26 15:31:57.051,-485.0,-7.0,920.0,-11.0,-2.0,-1.0,130,108,101,118,111
2025-02-26 15:31:57.054,-481.0,-2.0,931.0,-7.0,-1.0,-2.0,128,108,99,117,108
2025-02-26 15:31:57.062,-480.0,-13.0,894.0,-5.0,-1.0,-3.0,129,109,99,117,111
2025-02-26 15:31:57.067,-475.0,-35.0,891.0,0.0,-3.0,-2.0,129,109,101,118,112
2025-02-26 15:31:57.071,-481.0,-54.0,914.0,0.0,-3.0,-2.0,130,108,100,118,111
2025-02-26 15:31:57.075,-465.0,-50.0,904.0,4.0,-3.0,-1.0,129,107,100,118,111
2025-02-26 15:31:57.083,-472.0,-50.0,907.0,4.0,-3.0,-1.0,128,106,101,117,111
2025-02-26 15:31:57.087,-465.0,-47.0,913.0,4.0,-3.0,-1.0,131,109,101,118,111
2025-02-26 15:31:57.091,-479.0,-39.0,922.0,6.0,-3.0,0.0,130,109,100,117,111
2025-02-26 15:31:57.095,-466.0,-12.0,888.0,3.0,-3.0,-1.0,128,108,99,118,111
2025-02-26 15:31:57.100,-465.0,-45.0,954.0,8.0,-4.0,-1.0,132,109,102,118,111
2025-02-26 15:31:57.101,-495.0,-43.0,862.0,8.0,-8.0,-1.0,129,108,101,119,112
2025-02-26 15:31:57.111,-467.0,-30.0,999.0,1.0,-4.0,-2.0,128,109,101,118,111
2025-02-26 15:31:57.116,-418.0,-13.0,960.0,-11.0,3.0,-1.0,130,108,100,118,112
2025-02-26 15:31:57.120,-455.0,-28.0,926.0,-10.0,1.0,-1.0,129,108,101,118,111
2025-02-26 15:31:57.127,-444.0,-11.0,981.0,-14.0,3.0,0.0,130,104,100,117,108
2025-02-26 15:31:57.129,-464.0,-55.0,852.0,-7.0,0.0,0.0,129,107,102,118,111
2025-02-26 15:31:57.136,-456.0,-23.0,938.0,-5.0,-1.0,-1.0,128,107,103,118,112
2025-02-26 15:31:57.141,-474.0,-43.0,877.0,0.0,-5.0,-1.0,130,108,101,118,111
2025-02-26 15:31:57.148,-508.0,-57.0,914.0,-1.0,-5.0,-1.0,130,108,100,117,110
2025-02-26 15:31:57.153,-464.0,-42.0,941.0,-1.0,-4.0,-1.0,129,108,102,118,111
2025-02-26 15:31:57.153,-474.0,-19.0,882.0,-4.0,-3.0,0.0,128,110,102,117,111
2025-02-26 15:31:57.161,-473.0,-40.0,935.0,-8.0,-1.0,1.0,129,110,99,118,111
2025-02-26 15:31:57.168,-427.0,-17.0,884.0,-7.0,-3.0,0.0,130,114,101,117,108
2025-02-26 15:31:57.172,-445.0,-53.0,995.0,-8.0,-4.0,0.0,129,108,98,118,112
2025-02-26 15:31:57.177,-467.0,-58.0,1022.0,8.0,-5.0,-1.0,129,112,100,118,114
2025-02-26 15:31:57.181,-494.0,-49.0,916.0,3.0,-5.0,1.0,129,109,100,116,111
2025-02-26 15:31:57.186,-439.0,-2.0,949.0,-1.0,-3.0,1.0,130,111,100,119,108
2025-02-26 15:31:57.194,-473.0,-3.0,854.0,0.0,-5.0,0.0,129,109,102,118,112
2025-02-26 15:31:57.196,-494.0,-24.0,976.0,-3.0,-2.0,0.0,130,109,101,117,112
2025-02-26 15:31:57.202,-451.0,-45.0,850.0,-3.0,-3.0,0.0,131,110,100,118,111
2025-02-26 15:31:57.206,-454.0,-10.0,920.0,1.0,-2.0,0.0,129,110,101,117,112
2025-02-26 15:31:57.214,-469.0,-7.0,896.0,-7.0,-3.0,0.0,129,112,100,117,111
2025-02-26 15:31:57.218,-494.0,-15.0,916.0,-2.0,-5.0,0.0,129,108,99,117,110
2025-02-26 15:31:57.222,-474.0,-25.0,912.0,0.0,-6.0,0.0,130,107,100,115,111
2025-02-26 15:31:57.227,-464.0,-21.0,912.0,4.0,-5.0,0.0,130,110,101,118,111
2025-02-26 15:31:57.231,-448.0,-50.0,920.0,6.0,-5.0,0.0,129,108,100,117,111
2025-02-26 15:31:57.238,-459.0,-31.0,858.0,2.0,-4.0,-1.0,129,109,100,116,111
2025-02-26 15:31:57.242,-484.0,-65.0,895.0,3.0,-6.0,1.0,128,108,100,119,111
2025-02-26 15:31:57.245,-459.0,-7.0,954.0,2.0,-5.0,1.0,123,107,99,115,110
2025-02-26 15:31:57.251,-466.0,-68.0,907.0,6.0,-6.0,2.0,130,108,100,118,111
2025-02-26 15:31:57.256,-416.0,-14.0,951.0,10.0,-9.0,1.0,126,110,100,117,112
2025-02-26 15:31:57.263,-491.0,-15.0,1030.0,16.0,-1.0,2.0,128,110,101,117,111
2025-02-26 15:31:57.268,-464.0,-35.0,916.0,11.0,-7.0,2.0,131,109,102,117,111
2025-02-26 15:31:57.269,-457.0,-23.0,954.0,11.0,-4.0,2.0,130,109,99,115,110
2025-02-26 15:31:57.276,-470.0,1.0,943.0,8.0,-3.0,2.0,129,107,99,116,110
2025-02-26 15:31:57.284,-476.0,-16.0,917.0,6.0,-3.0,2.0,129,107,100,118,111
2025-02-26 15:31:57.287,-467.0,4.0,917.0,2.0,-3.0,1.0,129,107,100,118,111
2025-02-26 15:31:57.291,-460.0,5.0,934.0,0.0,-2.0,1.0,131,108,99,117,110
2025-02-26 15:31:57.296,-474.0,-1.0,912.0,-1.0,-2.0,0.0,129,107,99,115,111
2025-02-26 15:31:57.300,-460.0,14.0,921.0,-5.0,-2.0,0.0,130,108,100,118,111
2025-02-26 15:31:57.305,-470.0,4.0,916.0,-5.0,-2.0,0.0,130,108,99,117,110
2025-02-26 15:31:57.312,-480.0,-7.0,922.0,-4.0,-2.0,0.0,128,109,100,118,112
2025-02-26 15:31:57.317,-468.0,-18.0,917.0,-2.0,-3.0,0.0,127,106,100,117,110
2025-02-26 15:31:57.321,-452.0,-3.0,912.0,-2.0,-2.0,0.0,130,107,100,116,109
2025-02-26 15:31:57.325,-442.0,-19.0,928.0,3.0,-2.0,0.0,130,108,101,117,111
2025-02-26 15:31:57.332,-476.0,-28.0,889.0,0.0,-3.0,1.0,128,108,100,117,111
2025-02-26 15:31:57.336,-458.0,-21.0,936.0,3.0,-2.0,2.0,128,110,101,117,110
2025-02-26 15:31:57.341,-459.0,-9.0,942.0,5.0,-1.0,1.0,129,112,100,118,111
2025-02-26 15:31:57.345,-483.0,-15.0,896.0,7.0,-1.0,2.0,129,108,100,118,111
2025-02-26 15:31:57.349,-451.0,27.0,914.0,0.0,-1.0,2.0,130,106,99,117,111
2025-02-26 15:31:57.354,-484.0,6.0,895.0,1.0,-1.0,1.0,130,108,100,118,112
2025-02-26 15:31:57.361,-471.0,0.0,932.0,-1.0,-1.0,0.0,129,108,99,117,111
2025-02-26 15:31:57.366,-473.0,45.0,898.0,-4.0,-2.0,1.0,128,108,101,119,110
2025-02-26 15:31:57.370,-463.0,31.0,921.0,-3.0,-2.0,1.0,130,108,100,117,111
2025-02-26 15:31:57.374,-472.0,20.0,868.0,-4.0,-3.0,0.0,131,109,101,116,110
2025-02-26 15:31:57.382,-453.0,13.0,887.0,-4.0,-5.0,0.0,129,107,100,116,110
2025-02-26 15:31:57.384,-480.0,-9.0,913.0,-2.0,-5.0,0.0,128,109,102,116,110
2025-02-26 15:31:57.390,-466.0,-8.0,934.0,-2.0,-4.0,0.0,128,108,100,116,111
2025-02-26 15:31:57.395,-443.0,-14.0,913.0,1.0,-6.0,0.0,128,104,99,117,110
2025-02-26 15:31:57.398,-452.0,23.0,933.0,3.0,-4.0,1.0,129,108,100,117,111
2025-02-26 15:31:57.406,-447.0,8.0,920.0,2.0,-4.0,0.0,130,109,100,117,110
2025-02-26 15:31:57.408,-462.0,-2.0,919.0,5.0,-2.0,0.0,129,108,99,118,111
2025-02-26 15:31:57.415,-472.0,-27.0,934.0,4.0,-2.0,0.0,129,109,100,117,110
2025-02-26 15:31:57.419,-470.0,18.0,897.0,6.0,-3.0,-1.0,129,108,100,118,110
2025-02-26 15:31:57.420,-463.0,20.0,949.0,8.0,-2.0,0.0,134,108,99,118,111
2025-02-26 15:31:57.427,-467.0,-2.0,907.0,7.0,-2.0,-1.0,129,109,99,118,112
2025-02-26 15:31:57.434,-475.0,15.0,907.0,7.0,-3.0,0.0,127,108,100,118,111
2025-02-26 15:31:57.437,-492.0,-4.0,931.0,5.0,-3.0,-1.0,128,108,98,117,110
2025-02-26 15:31:57.444,-463.0,16.0,917.0,3.0,-3.0,-1.0,129,109,102,118,110
2025-02-26 15:31:57.448,-477.0,0.0,947.0,2.0,-2.0,-1.0,127,107,99,117,111
2025-02-26 15:31:57.451,-467.0,7.0,945.0,1.0,-1.0,-1.0,126,108,100,117,110
2025-02-26 15:31:57.459,-461.0,20.0,905.0,1.0,-3.0,-1.0,128,107,100,117,111
2025-02-26 15:31:57.463,-468.0,9.0,947.0,-2.0,-1.0,-2.0,129,108,99,116,110
2025-02-26 15:31:57.468,-460.0,-2.0,920.0,-2.0,-3.0,-2.0,129,108,98,118,111
2025-02-26 15:31:57.473,-453.0,14.0,925.0,-1.0,-3.0,-2.0,130,107,100,117,109
2025-02-26 15:31:57.474,-458.0,6.0,912.0,-2.0,-3.0,-2.0,131,107,98,117,110
2025-02-26 15:31:57.484,-447.0,-3.0,900.0,-3.0,-3.0,-3.0,129,107,99,117,110
2025-02-26 15:31:57.488,-459.0,-10.0,936.0,0.0,-3.0,-3.0,129,110,102,119,111
2025-02-26 15:31:57.493,-459.0,-9.0,888.0,-1.0,-4.0,-3.0,129,108,100,118,110
2025-02-26 15:31:57.497,-446.0,-10.0,898.0,0.0,-5.0,-3.0,128,109,100,119,111
2025-02-26 15:31:57.505,-455.0,-21.0,925.0,0.0,-4.0,-3.0,129,108,100,118,110
2025-02-26 15:31:57.510,-444.0,-10.0,886.0,3.0,-4.0,-3.0,129,109,100,116,110
2025-02-26 15:31:57.513,-441.0,-16.0,926.0,2.0,-4.0,-3.0,129,108,100,117,110
2025-02-26 15:31:57.517,-459.0,-23.0,934.0,3.0,-4.0,-3.0,128,107,100,117,110
2025-02-26 15:31:57.525,-442.0,-22.0,922.0,4.0,-3.0,-3.0,128,107,101,119,112
2025-02-26 15:31:57.529,-455.0,-24.0,932.0,4.0,-3.0,-3.0,129,106,100,116,109
2025-02-26 15:31:57.534,-448.0,-15.0,934.0,4.0,-3.0,-3.0,128,106,100,117,110
2025-02-26 15:31:57.538,-456.0,-21.0,946.0,3.0,-3.0,-3.0,128,108,100,117,111
2025-02-26 15:31:57.545,-444.0,-20.0,929.0,3.0,-3.0,-3.0,129,108,101,117,111
2025-02-26 15:31:57.547,-452.0,-20.0,943.0,2.0,-2.0,-3.0,128,107,99,117,110
2025-02-26 15:31:57.554,-442.0,-20.0,936.0,2.0,-2.0,-2.0,130,107,100,117,110
2025-02-26 15:31:57.558,-445.0,-27.0,930.0,2.0,-1.0,-2.0,129,107,99,118,111
2025-02-26 15:31:57.562,-445.0,-32.0,928.0,1.0,-1.0,-2.0,129,107,100,118,110
2025-02-26 15:31:57.571,-454.0,-30.0,938.0,0.0,-1.0,-2.0,129,107,99,115,110
2025-02-26 15:31:57.572,-447.0,-30.0,924.0,1.0,-2.0,-2.0,129,107,100,116,111
2025-02-26 15:31:57.579,-451.0,-32.0,931.0,1.0,-3.0,-1.0,128,108,99,117,111
2025-02-26 15:31:57.583,-451.0,-34.0,932.0,0.0,-2.0,-1.0,129,108,100,117,111
2025-02-26 15:31:57.591,-454.0,-32.0,927.0,0.0,-2.0,-1.0,129,109,100,118,111
2025-02-26 15:31:57.595,-446.0,-22.0,911.0,-1.0,-3.0,-1.0,129,108,99,117,111
2025-02-26 15:31:57.599,-449.0,-32.0,943.0,-3.0,-2.0,0.0,128,109,99,117,109
2025-02-26 15:31:57.603,-447.0,-34.0,930.0,-3.0,-2.0,0.0,129,108,99,117,111
2025-02-26 15:31:57.608,-448.0,-26.0,922.0,-3.0,-3.0,0.0,128,108,100,115,110
2025-02-26 15:31:57.615,-450.0,-39.0,941.0,-2.0,-2.0,1.0,128,107,100,119,110
2025-02-26 15:31:57.620,-444.0,-33.0,936.0,-1.0,-2.0,1.0,129,108,98,117,111
2025-02-26 15:31:57.624,-445.0,-39.0,934.0,0.0,-1.0,1.0,130,108,99,118,109
2025-02-26 15:31:57.627,-449.0,-25.0,938.0,0.0,-1.0,1.0,129,108,100,118,110
2025-02-26 15:31:57.632,-449.0,-23.0,953.0,1.0,0.0,2.0,129,107,99,117,110
2025-02-26 15:31:57.640,-440.0,-22.0,937.0,1.0,1.0,2.0,129,108,99,117,111
2025-02-26 15:31:57.644,-448.0,-16.0,936.0,1.0,1.0,2.0,128,107,98,116,111
2025-02-26 15:31:57.648,-456.0,-13.0,933.0,2.0,1.0,2.0,129,108,101,119,111
2025-02-26 15:31:57.652,-457.0,0.0,934.0,1.0,1.0,1.0,130,107,100,117,111
2025-02-26 15:31:57.655,-456.0,3.0,934.0,1.0,1.0,1.0,129,107,100,117,111
2025-02-26 15:31:57.660,-464.0,2.0,932.0,-2.0,1.0,1.0,131,108,101,117,111
2025-02-26 15:31:57.669,-463.0,20.0,922.0,-1.0,0.0,1.0,129,108,101,117,112
2025-02-26 15:31:57.672,-455.0,9.0,932.0,-4.0,0.0,1.0,130,107,99,116,110
2025-02-26 15:31:57.674,-458.0,12.0,916.0,-7.0,0.0,1.0,129,107,97,117,111
2025-02-26 15:31:57.681,-460.0,4.0,918.0,-6.0,0.0,0.0,127,107,99,117,111
2025-02-26 15:31:57.686,-450.0,-13.0,913.0,-5.0,0.0,0.0,130,108,103,117,110
2025-02-26 15:31:57.693,-454.0,-13.0,918.0,-3.0,-1.0,1.0,128,108,100,117,110
2025-02-26 15:31:57.697,-455.0,-12.0,917.0,-3.0,0.0,1.0,131,109,100,115,110
2025-02-26 15:31:57.701,-458.0,-10.0,914.0,-2.0,0.0,1.0,128,108,100,117,109
2025-02-26 15:31:57.706,-464.0,-21.0,925.0,0.0,0.0,2.0,129,107,100,117,111
2025-02-26 15:31:57.710,-461.0,-16.0,916.0,0.0,0.0,2.0,128,106,99,117,110
2025-02-26 15:31:57.718,-459.0,3.0,910.0,0.0,0.0,2.0,131,108,100,116,109
2025-02-26 15:31:57.722,-472.0,1.0,927.0,0.0,1.0,2.0,130,108,100,116,111
2025-02-26 15:31:57.726,-472.0,21.0,906.0,-2.0,0.0,2.0,129,109,100,116,110
2025-02-26 15:31:57.730,-481.0,27.0,914.0,-2.0,0.0,1.0,129,107,100,117,110
2025-02-26 15:31:57.735,-464.0,21.0,937.0,-4.0,0.0,1.0,131,111,99,117,110
2025-02-26 15:31:57.739,-480.0,36.0,901.0,-4.0,0.0,0.0,129,108,100,117,111
2025-02-26 15:31:57.746,-476.0,24.0,935.0,-5.0,0.0,-1.0,130,109,101,117,111
2025-02-26 15:31:57.748,-467.0,14.0,924.0,-5.0,0.0,-1.0,129,109,99,117,110
2025-02-26 15:31:57.754,-462.0,6.0,898.0,-9.0,-1.0,-1.0,128,110,101,118,110
2025-02-26 15:31:57.759,-466.0,10.0,902.0,-5.0,0.0,-1.0,130,107,100,116,110
2025-02-26 15:31:57.763,-455.0,1.0,927.0,-3.0,0.0,-1.0,130,107,99,117,110
2025-02-26 15:31:57.771,-454.0,-5.0,909.0,-1.0,0.0,-1.0,128,107,98,116,105
2025-02-26 15:31:57.775,-470.0,-13.0,912.0,-1.0,0.0,-1.0,128,107,100,116,110
2025-02-26 15:31:57.780,-453.0,5.0,899.0,0.0,0.0,-1.0,129,108,99,116,109
2025-02-26 15:31:57.784,-469.0,-3.0,897.0,0.0,-1.0,-1.0,129,106,98,117,111
2025-02-26 15:31:57.787,-470.0,-6.0,918.0,-2.0,-1.0,-1.0,130,107,99,117,110
2025-02-26 15:31:57.796,-445.0,19.0,895.0,-4.0,-2.0,-1.0,129,107,101,117,110
2025-02-26 15:31:57.799,-454.0,1.0,927.0,-5.0,-2.0,-1.0,129,108,98,115,110
2025-02-26 15:31:57.804,-477.0,-10.0,863.0,-3.0,-3.0,-1.0,129,108,100,118,111
2025-02-26 15:31:57.808,-459.0,-18.0,935.0,-3.0,-3.0,0.0,127,106,100,118,110
2025-02-26 15:31:57.815,-451.0,-2.0,939.0,-2.0,-4.0,0.0,128,107,99,116,110
2025-02-26 15:31:57.819,-445.0,0.0,918.0,-2.0,-3.0,0.0,129,110,101,118,110
2025-02-26 15:31:57.824,-433.0,-22.0,934.0,-1.0,-3.0,1.0,128,108,99,115,109
2025-02-26 15:31:57.828,-444.0,-30.0,929.0,-2.0,-2.0,1.0,129,108,101,118,110
2025-02-26 15:31:57.832,-451.0,-11.0,935.0,0.0,-1.0,1.0,128,109,100,116,110
2025-02-26 15:31:57.838,-438.0,-3.0,957.0,-1.0,-1.0,1.0,128,108,100,117,111
2025-02-26 15:31:57.845,-450.0,21.0,941.0,-3.0,-2.0,0.0,129,107,98,117,110
2025-02-26 15:31:57.849,-452.0,16.0,971.0,-2.0,-2.0,0.0,128,109,101,117,110
2025-02-26 15:31:57.853,-452.0,41.0,960.0,-1.0,-1.0,-1.0,129,108,100,116,109
2025-02-26 15:31:57.858,-434.0,35.0,948.0,-3.0,-1.0,-1.0,130,104,96,113,110
2025-02-26 15:31:57.863,-419.0,37.0,949.0,-4.0,-1.0,-1.0,130,108,99,116,110
2025-02-26 15:31:57.869,-431.0,19.0,905.0,-6.0,-1.0,-1.0,129,108,100,116,111
2025-02-26 15:31:57.874,-436.0,-4.0,941.0,-7.0,-1.0,-1.0,127,108,99,116,110
2025-02-26 15:31:57.878,-436.0,6.0,937.0,-7.0,-1.0,-1.0,129,107,100,118,110
2025-02-26 15:31:57.886,-442.0,-14.0,907.0,-9.0,-1.0,0.0,130,107,102,117,109
2025-02-26 15:31:57.898,-431.0,-26.0,932.0,-5.0,0.0,0.0,129,108,100,116,110
2025-02-26 15:31:57.900,-441.0,-15.0,916.0,-2.0,-1.0,0.0,129,108,100,118,110
2025-02-26 15:31:57.903,-436.0,-20.0,927.0,0.0,-1.0,0.0,129,108,99,117,110
2025-02-26 15:31:57.904,-446.0,-14.0,928.0,0.0,-1.0,1.0,128,108,99,117,109
2025-02-26 15:31:57.910,-436.0,-14.0,914.0,2.0,-2.0,1.0,129,108,100,118,110
2025-02-26 15:31:57.914,-446.0,-8.0,915.0,2.0,-1.0,1.0,130,108,99,117,110
2025-02-26 15:31:57.918,-439.0,-5.0,911.0,2.0,-1.0,1.0,129,109,101,118,109
2025-02-26 15:31:57.923,-448.0,6.0,906.0,2.0,-1.0,1.0,128,106,100,117,111
2025-02-26 15:31:57.927,-453.0,15.0,918.0,2.0,-2.0,1.0,129,108,103,117,110
2025-02-26 15:31:57.934,-449.0,23.0,911.0,3.0,-2.0,0.0,129,108,101,117,110
2025-02-26 15:31:57.939,-458.0,27.0,906.0,2.0,-3.0,0.0,135,108,100,116,111
2025-02-26 15:31:57.943,-458.0,25.0,909.0,1.0,-3.0,-1.0,128,108,100,117,111
2025-02-26 15:31:57.948,-453.0,29.0,913.0,1.0,-3.0,-1.0,128,107,100,117,110
2025-02-26 15:31:57.952,-452.0,22.0,910.0,1.0,-3.0,-1.0,128,109,100,118,110
2025-02-26 15:31:57.959,-453.0,25.0,912.0,1.0,-3.0,-2.0,125,108,100,119,110
2025-02-26 15:31:57.963,-461.0,20.0,903.0,1.0,-3.0,-2.0,128,108,100,117,111
2025-02-26 15:31:57.966,-459.0,17.0,917.0,3.0,-3.0,-3.0,129,106,101,118,108
2025-02-26 15:31:57.972,-463.0,14.0,908.0,3.0,-3.0,-2.0,129,107,100,116,110
2025-02-26 15:31:57.977,-461.0,6.0,916.0,4.0,-3.0,-2.0,129,104,99,117,108
2025-02-26 15:31:57.984,-460.0,16.0,913.0,3.0,-3.0,-2.0,129,108,101,117,110
2025-02-26 15:31:57.988,-462.0,3.0,912.0,5.0,-4.0,-2.0,129,108,100,117,110
2025-02-26 15:31:57.992,-462.0,11.0,934.0,4.0,-4.0,-2.0,129,108,101,117,110
2025-02-26 15:31:57.997,-454.0,-3.0,917.0,4.0,-4.0,-2.0,131,109,100,118,110
2025-02-26 15:31:58.001,-449.0,8.0,930.0,4.0,-4.0,-3.0,129,108,100,118,111
2025-02-26 15:31:58.008,-456.0,1.0,915.0,3.0,-4.0,-3.0,128,108,100,118,110
2025-02-26 15:31:58.013,-446.0,7.0,929.0,4.0,-4.0,-3.0,128,107,99,118,111
2025-02-26 15:31:58.013,-450.0,-1.0,916.0,4.0,-4.0,-3.0,130,108,99,116,110
2025-02-26 15:31:58.021,-445.0,-7.0,919.0,5.0,-4.0,-3.0,129,107,98,118,109
2025-02-26 15:31:58.026,-448.0,-12.0,920.0,4.0,-4.0,-3.0,129,108,99,117,111
2025-02-26 15:31:58.031,-446.0,0.0,914.0,4.0,-4.0,-3.0,129,108,99,116,110
2025-02-26 15:31:58.037,-447.0,-10.0,921.0,4.0,-5.0,-3.0,128,107,99,118,110
2025-02-26 15:31:58.042,-449.0,-13.0,918.0,5.0,-4.0,-3.0,130,107,99,116,110
2025-02-26 15:31:58.045,-453.0,-12.0,924.0,5.0,-5.0,-3.0,129,108,101,116,111
2025-02-26 15:31:58.050,-442.0,-23.0,941.0,5.0,-5.0,-2.0,129,109,99,117,110
2025-02-26 15:31:58.057,-453.0,0.0,930.0,4.0,-6.0,-2.0,127,109,101,116,110
2025-02-26 15:31:58.061,-455.0,-4.0,936.0,5.0,-5.0,-2.0,129,108,97,117,111
2025-02-26 15:31:58.066,-458.0,-8.0,944.0,4.0,-5.0,-2.0,128,107,99,117,110
2025-02-26 15:31:58.070,-460.0,-13.0,925.0,3.0,-6.0,-2.0,129,108,100,117,110
2025-02-26 15:31:58.075,-452.0,-17.0,963.0,3.0,-4.0,-1.0,129,109,99,116,111
2025-02-26 15:31:58.082,-451.0,-12.0,936.0,3.0,-4.0,-1.0,129,107,99,118,110
2025-02-26 15:31:58.086,-449.0,-18.0,952.0,3.0,-4.0,-1.0,129,109,100,118,111
2025-02-26 15:31:58.091,-448.0,-21.0,960.0,3.0,-3.0,0.0,129,107,99,119,110
2025-02-26 15:31:58.094,-445.0,-17.0,946.0,2.0,-3.0,0.0,129,108,99,117,109
2025-02-26 15:31:58.102,-449.0,-18.0,958.0,3.0,-2.0,0.0,129,108,100,117,110
2025-02-26 15:31:58.106,-452.0,-19.0,962.0,3.0,-1.0,0.0,129,109,100,117,112
2025-02-26 15:31:58.111,-448.0,-15.0,942.0,2.0,-1.0,1.0,129,108,100,117,110
2025-02-26 15:31:58.115,-447.0,-20.0,943.0,1.0,-1.0,1.0,128,109,99,119,111
2025-02-26 15:31:58.120,-451.0,-20.0,945.0,1.0,-1.0,1.0,129,108,100,116,110
2025-02-26 15:31:58.128,-449.0,-24.0,948.0,1.0,0.0,2.0,128,108,100,118,111
2025-02-26 15:31:58.132,-445.0,-24.0,943.0,0.0,0.0,2.0,129,108,100,118,107
2025-02-26 15:31:58.136,-447.0,-24.0,916.0,2.0,0.0,2.0,128,107,98,118,110
2025-02-26 15:31:58.140,-439.0,-15.0,940.0,0.0,0.0,3.0,128,106,100,116,111
2025-02-26 15:31:58.140,-447.0,-15.0,909.0,0.0,1.0,3.0,130,105,98,117,111
2025-02-26 15:31:58.146,-443.0,-20.0,942.0,-1.0,1.0,4.0,129,108,100,117,110
2025-02-26 15:31:58.152,-438.0,-21.0,949.0,-2.0,1.0,4.0,128,106,99,117,110
2025-02-26 15:31:58.159,-451.0,-8.0,921.0,-3.0,1.0,5.0,128,108,99,117,109
2025-02-26 15:31:58.164,-443.0,-2.0,929.0,-1.0,2.0,5.0,130,108,100,120,111
2025-02-26 15:31:58.169,-449.0,-9.0,906.0,-3.0,2.0,5.0,128,109,101,117,109
2025-02-26 15:31:58.170,-472.0,-8.0,909.0,-3.0,2.0,5.0,127,107,99,118,111
2025-02-26 15:31:58.179,-480.0,-20.0,902.0,-3.0,2.0,5.0,129,110,103,118,111
2025-02-26 15:31:58.185,-450.0,-25.0,916.0,-1.0,1.0,6.0,130,107,99,115,109
2025-02-26 15:31:58.189,-449.0,-2.0,887.0,-1.0,0.0,5.0,131,108,104,117,110
2025-02-26 15:31:58.193,-457.0,-22.0,916.0,2.0,-1.0,6.0,128,108,98,116,111
2025-02-26 15:31:58.197,-472.0,-14.0,888.0,1.0,-1.0,5.0,133,107,100,113,111
2025-02-26 15:31:58.205,-471.0,-15.0,894.0,0.0,-1.0,6.0,129,108,102,118,109
2025-02-26 15:31:58.209,-454.0,13.0,902.0,1.0,-2.0,6.0,129,108,100,117,111
2025-02-26 15:31:58.213,-466.0,-1.0,908.0,1.0,-3.0,5.0,129,106,100,117,112
2025-02-26 15:31:58.217,-478.0,6.0,908.0,-3.0,-3.0,6.0,127,108,102,117,110
2025-02-26 15:31:58.222,-465.0,19.0,918.0,-3.0,-3.0,5.0,129,107,99,117,112
2025-02-26 15:31:58.229,-459.0,26.0,928.0,-3.0,-3.0,5.0,124,108,99,118,109
2025-02-26 15:31:58.233,-464.0,21.0,922.0,-3.0,-4.0,4.0,129,108,100,117,111
2025-02-26 15:31:58.238,-470.0,-2.0,927.0,-1.0,-4.0,4.0,129,109,99,119,111
2025-02-26 15:31:58.242,-458.0,18.0,956.0,0.0,-3.0,4.0,129,107,96,117,110
2025-02-26 15:31:58.246,-466.0,0.0,951.0,2.0,-3.0,4.0,129,106,100,118,108
2025-02-26 15:31:58.254,-459.0,-1.0,956.0,3.0,-3.0,4.0,128,108,99,117,110
2025-02-26 15:31:58.257,-452.0,11.0,969.0,4.0,-3.0,4.0,129,106,99,115,109
2025-02-26 15:31:58.263,-448.0,17.0,978.0,6.0,-3.0,4.0,129,107,100,117,110
2025-02-26 15:31:58.267,-461.0,30.0,995.0,3.0,-2.0,4.0,129,108,100,117,111
2025-02-26 15:31:58.269,-461.0,40.0,978.0,3.0,-2.0,4.0,130,109,98,118,111
2025-02-26 15:31:58.275,-454.0,62.0,1003.0,2.0,-1.0,3.0,129,106,99,115,110
2025-02-26 15:31:58.281,-446.0,61.0,1007.0,0.0,-1.0,2.0,127,108,99,116,111
2025-02-26 15:31:58.287,-445.0,58.0,998.0,-4.0,0.0,2.0,129,108,101,118,112
2025-02-26 15:31:58.291,-448.0,65.0,1017.0,-5.0,1.0,0.0,129,107,101,118,110
2025-02-26 15:31:58.294,-443.0,70.0,993.0,-7.0,1.0,0.0,126,107,99,117,110
2025-02-26 15:31:58.300,-445.0,38.0,1009.0,-9.0,3.0,-1.0,128,109,98,117,111
2025-02-26 15:31:58.308,-432.0,42.0,1015.0,-10.0,5.0,-1.0,131,109,99,117,110
2025-02-26 15:31:58.311,-444.0,44.0,984.0,-11.0,4.0,-2.0,128,107,99,117,110
2025-02-26 15:31:58.315,-442.0,17.0,1010.0,-9.0,6.0,-2.0,129,107,99,117,109
2025-02-26 15:31:58.320,-438.0,5.0,985.0,-9.0,6.0,-2.0,130,108,99,117,110
2025-02-26 15:31:58.325,-426.0,9.0,992.0,-8.0,7.0,-2.0,128,108,100,117,110
2025-02-26 15:31:58.330,-437.0,4.0,977.0,-8.0,7.0,-2.0,130,108,98,117,110
2025-02-26 15:31:58.336,-426.0,15.0,982.0,-8.0,7.0,-1.0,129,107,99,117,110
2025-02-26 15:31:58.341,-427.0,25.0,977.0,-8.0,7.0,-2.0,128,108,99,117,112
2025-02-26 15:31:58.345,-427.0,21.0,980.0,-10.0,8.0,-2.0,128,109,101,117,110
2025-02-26 15:31:58.349,-427.0,28.0,993.0,-12.0,9.0,-2.0,129,109,100,117,110
2025-02-26 15:31:58.357,-428.0,29.0,1020.0,-17.0,10.0,-2.0,128,107,100,116,110
2025-02-26 15:31:58.361,-415.0,32.0,1020.0,-23.0,12.0,-2.0,130,109,100,118,110
2025-02-26 15:31:58.365,-402.0,25.0,1042.0,-26.0,14.0,-1.0,129,109,100,118,110
2025-02-26 15:31:58.373,-393.0,4.0,1068.0,-33.0,16.0,-1.0,129,108,102,117,111
2025-02-26 15:31:58.377,-401.0,-3.0,1104.0,-39.0,19.0,-1.0,129,108,100,117,111
2025-02-26 15:31:58.381,-390.0,-31.0,1155.0,-47.0,24.0,3.0,127,108,99,117,110
2025-02-26 15:31:58.386,-428.0,13.0,1204.0,-53.0,35.0,5.0,129,107,98,117,111
2025-02-26 15:31:58.393,-416.0,-3.0,1247.0,-63.0,41.0,7.0,128,106,98,116,109
2025-02-26 15:31:58.396,-345.0,17.0,1352.0,-73.0,52.0,10.0,129,106,96,115,109
2025-02-26 15:31:58.402,-326.0,64.0,1421.0,-87.0,75.0,11.0,129,105,97,117,111
2025-02-26 15:31:58.406,-269.0,171.0,1425.0,-87.0,98.0,12.0,130,104,95,116,110
2025-02-26 15:31:58.414,-314.0,155.0,1508.0,-101.0,112.0,11.0,128,101,92,115,108
2025-02-26 15:31:58.418,-299.0,144.0,1500.0,-116.0,136.0,11.0,130,97,87,116,107
2025-02-26 15:31:58.422,-295.0,84.0,1656.0,-128.0,170.0,16.0,130,93,86,115,106
2025-02-26 15:31:58.430,-307.0,120.0,1596.0,-138.0,196.0,14.0,128,87,84,121,105
2025-02-26 15:31:58.434,-313.0,182.0,1424.0,-141.0,213.0,13.0,129,77,75,114,101
2025-02-26 15:31:58.439,-322.0,224.0,1463.0,-147.0,224.0,10.0,125,69,71,110,95
2025-02-26 15:31:58.443,-342.0,280.0,1249.0,-161.0,235.0,7.0,129,62,67,107,92
2025-02-26 15:31:58.451,-312.0,318.0,1131.0,-163.0,230.0,-1.0,130,58,63,97,87
2025-02-26 15:31:58.455,-376.0,408.0,1109.0,-171.0,231.0,-16.0,128,51,59,86,80
2025-02-26 15:31:58.460,-424.0,469.0,1057.0,-180.0,234.0,-30.0,129,47,58,84,76
2025-02-26 15:31:58.464,-457.0,687.0,1018.0,-214.0,236.0,-42.0,130,45,53,80,70
2025-02-26 15:31:58.472,-425.0,768.0,1089.0,-228.0,248.0,-66.0,128,46,54,81,67
2025-02-26 15:31:58.476,-393.0,1053.0,528.0,-248.0,239.0,-96.0,127,43,54,80,65
2025-02-26 15:31:58.479,-382.0,1257.0,251.0,-284.0,240.0,-123.0,128,43,51,78,60
2025-02-26 15:31:58.488,-648.0,1726.0,1.0,-274.0,188.0,-164.0,129,42,51,76,57
2025-02-26 15:31:58.492,-686.0,1814.0,-434.0,-310.0,132.0,-176.0,126,41,49,75,56
2025-02-26 15:31:58.496,-867.0,1843.0,-722.0,-343.0,100.0,-189.0,126,41,48,73,55
2025-02-26 15:31:58.504,-648.0,1786.0,-1048.0,-344.0,79.0,-216.0,125,40,48,72,56
2025-02-26 15:31:58.508,-521.0,1915.0,-1522.0,-334.0,70.0,-270.0,123,42,47,72,58
2025-02-26 15:31:58.513,-641.0,2552.0,-2116.0,-254.0,46.0,-367.0,119,40,47,73,58
2025-02-26 15:31:58.517,-1141.0,2606.0,-3025.0,-193.0,-6.0,-419.0,120,41,45,72,53
2025-02-26 15:31:58.525,-1353.0,2241.0,-3624.0,-206.0,-64.0,-508.0,121,41,45,72,49
2025-02-26 15:31:58.529,-1796.0,1886.0,-3741.0,-179.0,-195.0,-584.0,122,43,45,75,49
2025-02-26 15:31:58.535,-1687.0,1967.0,-3829.0,-59.0,-350.0,-646.0,115,41,41,72,47
2025-02-26 15:31:58.541,-1544.0,2117.0,-3775.0,-39.0,-481.0,-695.0,114,41,40,65,48
2025-02-26 15:31:58.545,-745.0,2144.0,-3288.0,-85.0,-627.0,-754.0,112,42,41,73,48
2025-02-26 15:31:58.554,-397.0,2092.0,-3139.0,-134.0,-727.0,-789.0,115,41,40,65,47
2025-02-26 15:31:58.558,218.0,2229.0,-3116.0,-193.0,-919.0,-803.0,115,42,38,72,48
2025-02-26 15:31:58.562,1648.0,2073.0,-2990.0,-287.0,-1056.0,-800.0,117,43,42,72,47
2025-02-26 15:31:58.570,3351.0,1248.0,-2258.0,-362.0,-1162.0,-777.0,118,45,41,73,48
2025-02-26 15:31:58.574,5351.0,-308.0,-703.0,-406.0,-1149.0,-690.0,120,42,41,73,49
2025-02-26 15:31:58.578,6654.0,-2705.0,173.0,-410.0,-993.0,-542.0,122,43,42,74,49
2025-02-26 15:31:58.586,7011.0,-5282.0,2142.0,-405.0,-711.0,-352.0,121,44,44,73,50
2025-02-26 15:31:58.591,7307.0,-7130.0,3422.0,-363.0,-401.0,-152.0,120,43,43,73,50
2025-02-26 15:31:58.595,7548.0,-7620.0,3865.0,-285.0,-238.0,-9.0,117,42,44,74,50
2025-02-26 15:31:58.602,7214.0,-6867.0,3722.0,-191.0,50.0,46.0,118,40,43,72,49
2025-02-26 15:31:58.607,5634.0,-6281.0,2716.0,-64.0,229.0,51.0,118,45,45,71,50
2025-02-26 15:31:58.611,4067.0,-5219.0,2178.0,27.0,333.0,59.0,118,43,43,71,46
2025-02-26 15:31:58.619,2587.0,-4899.0,816.0,129.0,305.0,66.0,120,45,47,72,47
2025-02-26 15:31:58.623,2164.0,-3240.0,558.0,175.0,263.0,109.0,120,45,49,73,47
2025-02-26 15:31:58.628,1629.0,-3001.0,131.0,118.0,318.0,137.0,120,44,47,73,45
2025-02-26 15:31:58.631,791.0,-1950.0,238.0,51.0,226.0,188.0,120,39,44,72,44
2025-02-26 15:31:58.639,1074.0,-1459.0,463.0,-32.0,199.0,203.0,121,44,43,73,46
2025-02-26 15:31:58.643,666.0,-1771.0,58.0,-105.0,171.0,242.0,118,42,45,74,49
2025-02-26 15:31:58.647,550.0,-1748.0,56.0,-205.0,111.0,246.0,119,45,47,74,50
2025-02-26 15:31:58.652,580.0,-1796.0,156.0,-240.0,90.0,237.0,118,44,46,75,49
2025-02-26 15:31:58.660,716.0,-1907.0,153.0,-249.0,66.0,277.0,117,45,46,75,51
2025-02-26 15:31:58.664,462.0,-2031.0,136.0,-223.0,53.0,303.0,118,43,46,70,51
2025-02-26 15:31:58.668,525.0,-2802.0,323.0,-209.0,47.0,297.0,119,46,47,77,53
2025-02-26 15:31:58.672,695.0,-2446.0,301.0,-190.0,76.0,314.0,119,46,46,76,52
2025-02-26 15:31:58.680,565.0,-2076.0,372.0,-172.0,78.0,344.0,119,43,46,75,48
2025-02-26 15:31:58.684,436.0,-1779.0,502.0,-147.0,71.0,347.0,119,45,46,76,52
2025-02-26 15:31:58.686,741.0,-1856.0,533.0,-117.0,72.0,364.0,119,43,43,76,53
2025-02-26 15:31:58.693,467.0,-1721.0,518.0,-102.0,81.0,380.0,119,44,47,76,54
2025-02-26 15:31:58.701,534.0,-1392.0,439.0,-78.0,79.0,390.0,119,45,41,74,54
2025-02-26 15:31:58.704,470.0,-1367.0,469.0,-59.0,75.0,393.0,119,46,46,76,55
2025-02-26 15:31:58.708,524.0,-1221.0,400.0,-60.0,97.0,394.0,116,46,46,73,55
2025-02-26 15:31:58.713,510.0,-860.0,380.0,-62.0,109.0,392.0,119,44,46,76,55
2025-02-26 15:31:58.717,459.0,-755.0,310.0,-69.0,112.0,392.0,121,44,47,77,54
2025-02-26 15:31:58.725,338.0,-610.0,195.0,-79.0,126.0,393.0,120,46,48,78,55
2025-02-26 15:31:58.730,274.0,-426.0,324.0,-131.0,150.0,398.0,119,46,49,79,55
2025-02-26 15:31:58.734,229.0,3.0,269.0,-163.0,166.0,395.0,120,44,48,76,55
2025-02-26 15:31:58.742,19.0,-59.0,272.0,-179.0,151.0,389.0,123,45,45,77,54
2025-02-26 15:31:58.745,111.0,-101.0,244.0,-159.0,109.0,384.0,121,46,47,78,57
2025-02-26 15:31:58.748,-277.0,111.0,143.0,-134.0,53.0,364.0,119,46,47,77,56
2025-02-26 15:31:58.754,-171.0,-37.0,252.0,-89.0,34.0,359.0,121,45,47,77,57
2025-02-26 15:31:58.759,-125.0,221.0,330.0,-65.0,14.0,348.0,120,44,49,78,58
2025-02-26 15:31:58.766,-21.0,182.0,421.0,-62.0,31.0,354.0,121,45,47,78,57
2025-02-26 15:31:58.771,272.0,218.0,512.0,-98.0,50.0,363.0,121,46,47,78,57
2025-02-26 15:31:58.775,40.0,201.0,529.0,-117.0,82.0,368.0,122,45,47,80,57
2025-02-26 15:31:58.779,-17.0,144.0,475.0,-124.0,107.0,377.0,121,45,47,76,56
2025-02-26 15:31:58.783,25.0,360.0,450.0,-135.0,117.0,378.0,120,44,47,78,58
2025-02-26 15:31:58.791,-83.0,328.0,349.0,-97.0,116.0,373.0,121,46,48,77,60
2025-02-26 15:31:58.794,-213.0,415.0,308.0,-76.0,107.0,362.0,119,45,47,79,59
2025-02-26 15:31:58.799,-196.0,533.0,370.0,-39.0,111.0,349.0,120,43,47,79,57
2025-02-26 15:31:58.803,-195.0,565.0,233.0,-5.0,114.0,346.0,121,45,47,78,58
2025-02-26 15:31:58.811,-308.0,575.0,298.0,22.0,121.0,345.0,121,45,47,79,58
2025-02-26 15:31:58.815,-244.0,686.0,204.0,39.0,125.0,338.0,119,43,47,79,59
2025-02-26 15:31:58.819,-265.0,692.0,89.0,91.0,130.0,333.0,121,45,51,78,60
2025-02-26 15:31:58.824,-503.0,970.0,210.0,140.0,131.0,315.0,120,45,47,78,59
2025-02-26 15:31:58.828,-417.0,1353.0,127.0,166.0,129.0,294.0,122,42,46,77,58
2025-02-26 15:31:58.836,-503.0,1902.0,12.0,222.0,133.0,267.0,121,46,47,79,61
2025-02-26 15:31:58.840,-795.0,1721.0,-44.0,265.0,115.0,227.0,123,46,46,77,60
2025-02-26 15:31:58.845,-573.0,2350.0,-193.0,273.0,123.0,170.0,121,48,48,79,59
2025-02-26 15:31:58.848,-655.0,2469.0,-401.0,290.0,120.0,109.0,122,47,48,78,60
2025-02-26 15:31:58.857,-780.0,2596.0,-559.0,317.0,109.0,77.0,121,46,46,77,59
2025-02-26 15:31:58.861,-796.0,2836.0,-547.0,315.0,98.0,6.0,121,47,47,78,59
2025-02-26 15:31:58.861,-874.0,3108.0,-684.0,311.0,82.0,-66.0,120,46,46,79,60
2025-02-26 15:31:58.873,-841.0,3346.0,-729.0,290.0,70.0,-150.0,121,46,46,79,59
2025-02-26 15:31:58.877,-818.0,3452.0,-846.0,259.0,43.0,-196.0,119,46,46,77,59
2025-02-26 15:31:58.881,-849.0,3597.0,-869.0,217.0,7.0,-286.0,120,46,46,79,58
2025-02-26 15:31:58.886,-820.0,3512.0,-974.0,200.0,-41.0,-375.0,120,47,46,77,57
2025-02-26 15:31:58.891,-754.0,3425.0,-1101.0,158.0,-65.0,-471.0,121,47,46,77,56
2025-02-26 15:31:58.898,-770.0,3285.0,-1294.0,117.0,-123.0,-574.0,120,48,43,78,55
2025-02-26 15:31:58.901,-743.0,3237.0,-1390.0,76.0,-197.0,-627.0,117,44,43,76,55
2025-02-26 15:31:58.910,-542.0,2973.0,-1160.0,31.0,-284.0,-739.0,117,46,43,78,55
2025-02-26 15:31:58.914,-302.0,3039.0,-1603.0,-21.0,-378.0,-856.0,117,48,45,78,54
2025-02-26 15:31:58.918,-151.0,3028.0,-1770.0,-47.0,-494.0,-973.0,116,46,44,72,54
2025-02-26 15:31:58.923,635.0,2895.0,-1878.0,-99.0,-559.0,-1080.0,118,47,43,74,54
2025-02-26 15:31:58.930,1142.0,2639.0,-2054.0,-147.0,-694.0,-1160.0,115,47,44,76,54
2025-02-26 15:31:58.935,2469.0,2173.0,-2171.0,-203.0,-821.0,-1189.0,116,45,44,76,56
2025-02-26 15:31:58.942,4013.0,1652.0,-2031.0,-250.0,-945.0,-1212.0,116,46,43,73,56
2025-02-26 15:31:58.947,5825.0,579.0,-1304.0,-274.0,-1003.0,-1156.0,117,45,44,75,59
2025-02-26 15:31:58.955,7791.0,-1394.0,1000.0,-258.0,-901.0,-998.0,119,46,44,76,58
2025-02-26 15:31:58.959,8525.0,-4182.0,1821.0,-269.0,-654.0,-750.0,117,46,46,74,59
2025-02-26 15:31:58.963,8383.0,-6776.0,2946.0,-295.0,-301.0,-455.0,116,48,45,76,58
2025-02-26 15:31:58.971,8436.0,-9148.0,2805.0,-281.0,25.0,-178.0,116,46,45,75,60
2025-02-26 15:31:58.975,7431.0,-9318.0,1816.0,-194.0,156.0,1.0,115,46,45,75,57
2025-02-26 15:31:58.979,6386.0,-8210.0,820.0,-53.0,317.0,50.0,115,46,41,75,55
2025-02-26 15:31:58.983,4400.0,-7240.0,-48.0,81.0,391.0,100.0,118,46,46,75,51
2025-02-26 15:31:58.991,2621.0,-6580.0,-591.0,192.0,350.0,118.0,116,47,46,78,48
2025-02-26 15:31:58.996,1558.0,-4127.0,-1518.0,333.0,237.0,143.0,119,45,45,73,47
2025-02-26 15:31:59.000,1600.0,-4689.0,-445.0,250.0,264.0,235.0,120,46,46,74,47
2025-02-26 15:31:59.008,1068.0,-2386.0,-757.0,176.0,192.0,244.0,121,46,46,74,46
2025-02-26 15:31:59.012,992.0,-1923.0,-391.0,30.0,55.0,305.0,122,47,48,75,49
2025-02-26 15:31:59.014,985.0,-1663.0,-64.0,-60.0,111.0,324.0,121,45,47,75,52
2025-02-26 15:31:59.020,1089.0,-1080.0,-182.0,-198.0,75.0,317.0,121,47,46,74,54
2025-02-26 15:31:59.028,666.0,-1218.0,-31.0,-219.0,-25.0,321.0,121,47,47,76,55
2025-02-26 15:31:59.032,773.0,-1538.0,-139.0,-259.0,-36.0,328.0,122,47,46,72,57
2025-02-26 15:31:59.037,584.0,-2274.0,-38.0,-240.0,-49.0,317.0,122,48,46,76,57
2025-02-26 15:31:59.042,707.0,-2682.0,-19.0,-237.0,-24.0,318.0,121,48,47,77,57
2025-02-26 15:31:59.049,775.0,-1923.0,30.0,-213.0,-5.0,317.0,122,47,45,77,57
2025-02-26 15:31:59.053,724.0,-2047.0,148.0,-162.0,-12.0,325.0,124,48,46,77,57
2025-02-26 15:31:59.058,430.0,-2185.0,353.0,-115.0,-3.0,342.0,122,47,45,78,57
2025-02-26 15:31:59.062,527.0,-1751.0,321.0,-85.0,9.0,360.0,122,50,48,80,58
2025-02-26 15:31:59.070,455.0,-2041.0,311.0,-38.0,27.0,368.0,122,48,45,77,58
2025-02-26 15:31:59.074,283.0,-1500.0,263.0,6.0,10.0,387.0,122,48,45,76,58
2025-02-26 15:31:59.078,361.0,-1348.0,321.0,11.0,38.0,405.0,122,48,46,78,60
2025-02-26 15:31:59.082,332.0,-999.0,248.0,12.0,56.0,406.0,119,48,46,76,59
2025-02-26 15:31:59.087,407.0,-781.0,311.0,0.0,72.0,418.0,119,47,47,77,59
2025-02-26 15:31:59.094,220.0,-515.0,301.0,-7.0,82.0,420.0,117,48,46,77,61
2025-02-26 15:31:59.098,239.0,-238.0,260.0,-48.0,90.0,428.0,118,48,44,78,59
2025-02-26 15:31:59.099,412.0,240.0,375.0,-123.0,130.0,433.0,119,46,47,79,60
2025-02-26 15:31:59.107,150.0,141.0,302.0,-165.0,148.0,420.0,119,47,48,78,61
2025-02-26 15:31:59.114,126.0,318.0,142.0,-187.0,134.0,399.0,119,49,45,80,61
2025-02-26 15:31:59.118,-86.0,349.0,52.0,-158.0,73.0,390.0,120,49,46,78,60
2025-02-26 15:31:59.123,-380.0,254.0,-139.0,-129.0,19.0,357.0,118,48,47,78,61
2025-02-26 15:31:59.127,-453.0,369.0,69.0,-103.0,3.0,324.0,119,47,45,82,60
2025-02-26 15:31:59.131,-110.0,249.0,218.0,-106.0,6.0,315.0,118,47,47,80,59
2025-02-26 15:31:59.139,-71.0,145.0,268.0,-121.0,42.0,303.0,117,46,49,79,61
2025-02-26 15:31:59.143,123.0,79.0,278.0,-177.0,63.0,294.0,118,47,46,78,59
2025-02-26 15:31:59.148,146.0,194.0,38.0,-195.0,85.0,299.0,118,51,49,80,61
2025-02-26 15:31:59.152,88.0,265.0,247.0,-151.0,80.0,275.0,118,49,47,81,62
2025-02-26 15:31:59.156,-136.0,18.0,55.0,-108.0,62.0,245.0,119,48,47,78,60
2025-02-26 15:31:59.164,-386.0,-5.0,176.0,-55.0,44.0,236.0,117,48,48,80,61
2025-02-26 15:31:59.168,-215.0,-5.0,188.0,-51.0,58.0,223.0,117,48,48,80,61
2025-02-26 15:31:59.172,-140.0,124.0,116.0,-55.0,67.0,219.0,116,47,47,78,61
2025-02-26 15:31:59.176,-50.0,159.0,203.0,-71.0,84.0,217.0,118,47,48,79,62
2025-02-26 15:31:59.176,-68.0,77.0,30.0,-55.0,78.0,212.0,119,47,47,78,61
2025-02-26 15:31:59.188,-212.0,-67.0,21.0,-42.0,68.0,210.0,119,47,47,80,61
2025-02-26 15:31:59.188,-322.0,-145.0,56.0,-8.0,50.0,209.0,120,49,47,79,62
2025-02-26 15:31:59.194,-210.0,14.0,16.0,2.0,44.0,212.0,120,48,46,79,61
2025-02-26 15:31:59.200,-434.0,38.0,-99.0,11.0,40.0,221.0,121,48,46,78,63
2025-02-26 15:31:59.205,-430.0,68.0,-55.0,27.0,27.0,226.0,122,47,46,79,63
2025-02-26 15:31:59.209,-553.0,-112.0,-18.0,74.0,5.0,241.0,124,48,47,79,62
2025-02-26 15:31:59.217,-474.0,-19.0,77.0,96.0,-3.0,247.0,123,48,46,78,63
2025-02-26 15:31:59.220,-590.0,71.0,87.0,171.0,-17.0,249.0,125,46,45,78,62
2025-02-26 15:31:59.225,-568.0,487.0,78.0,266.0,-12.0,245.0,128,46,45,80,64
2025-02-26 15:31:59.229,-434.0,499.0,105.0,310.0,10.0,234.0,127,44,43,77,62
2025-02-26 15:31:59.231,-423.0,771.0,5.0,394.0,18.0,226.0,128,45,45,78,64
2025-02-26 15:31:59.241,-381.0,1451.0,-4.0,472.0,48.0,190.0,129,44,45,78,66
2025-02-26 15:31:59.246,-556.0,2319.0,24.0,501.0,68.0,137.0,133,46,46,78,64
2025-02-26 15:31:59.250,-604.0,3147.0,-23.0,530.0,73.0,100.0,132,48,49,77,64
2025-02-26 15:31:59.254,-571.0,3619.0,-33.0,520.0,86.0,4.0,130,44,46,78,65
2025-02-26 15:31:59.262,-817.0,4093.0,-192.0,498.0,84.0,-105.0,132,45,45,77,63
2025-02-26 15:31:59.272,-849.0,4554.0,-430.0,426.0,74.0,-165.0,133,45,45,78,63
2025-02-26 15:31:59.274,-1042.0,4557.0,-571.0,326.0,48.0,-285.0,132,45,44,77,62
2025-02-26 15:31:59.276,-1415.0,4534.0,-778.0,272.0,-16.0,-399.0,132,44,44,77,60
2025-02-26 15:31:59.282,-1453.0,4145.0,-1207.0,188.0,-62.0,-508.0,135,45,43,75,57
2025-02-26 15:31:59.287,-1503.0,3886.0,-1596.0,130.0,-156.0,-560.0,134,46,42,76,57
2025-02-26 15:31:59.291,-1326.0,3382.0,-1732.0,97.0,-254.0,-656.0,135,44,41,76,56
2025-02-26 15:31:59.299,-944.0,2792.0,-1796.0,81.0,-364.0,-735.0,135,44,41,77,55
2025-02-26 15:31:59.303,-465.0,2429.0,-1822.0,42.0,-463.0,-804.0,136,45,42,75,55
2025-02-26 15:31:59.308,-204.0,2081.0,-1846.0,-12.0,-511.0,-859.0,138,45,39,76,55
2025-02-26 15:31:59.315,439.0,1973.0,-1834.0,-94.0,-614.0,-878.0,137,45,43,75,55
2025-02-26 15:31:59.319,1245.0,1819.0,-1865.0,-191.0,-738.0,-890.0,135,46,44,77,55
2025-02-26 15:31:59.324,2367.0,1532.0,-1899.0,-308.0,-867.0,-887.0,141,45,43,75,57
2025-02-26 15:31:59.332,3685.0,1110.0,-1914.0,-450.0,-952.0,-893.0,142,46,41,76,57
2025-02-26 15:31:59.336,5239.0,-97.0,-1836.0,-522.0,-967.0,-896.0,140,44,41,76,60
2025-02-26 15:31:59.340,6373.0,-1402.0,-1460.0,-625.0,-950.0,-828.0,143,44,40,76,60
2025-02-26 15:31:59.348,6867.0,-3763.0,-1043.0,-654.0,-904.0,-682.0,143,45,39,77,61
2025-02-26 15:31:59.352,6850.0,-6495.0,-185.0,-616.0,-707.0,-472.0,145,45,43,76,60
2025-02-26 15:31:59.360,6576.0,-8873.0,983.0,-488.0,-399.0,-263.0,145,46,43,75,59
2025-02-26 15:31:59.365,6678.0,-9709.0,1501.0,-265.0,-78.0,-180.0,138,45,43,76,61
2025-02-26 15:31:59.369,6501.0,-10046.0,1025.0,33.0,209.0,-78.0,145,45,49,75,60
2025-02-26 15:31:59.376,4971.0,-8706.0,-20.0,417.0,456.0,-38.0,144,45,43,76,58
2025-02-26 15:31:59.381,3546.0,-5911.0,-165.0,310.0,250.0,23.0,146,45,46,72,51
2025-02-26 15:31:59.384,2294.0,-4156.0,-1634.0,712.0,294.0,73.0,145,41,43,72,50
2025-02-26 15:31:59.389,1381.0,-5176.0,-2725.0,526.0,390.0,87.0,147,44,43,74,50
2025-02-26 15:31:59.395,313.0,-2359.0,-2235.0,381.0,296.0,137.0,145,43,44,74,50
2025-02-26 15:31:59.402,-236.0,-1388.0,-1752.0,277.0,180.0,193.0,146,44,43,73,51
2025-02-26 15:31:59.405,-61.0,-764.0,-1664.0,64.0,29.0,215.0,145,46,45,75,54
2025-02-26 15:31:59.414,-103.0,-535.0,-1393.0,-119.0,-46.0,216.0,145,46,44,75,55
2025-02-26 15:31:59.418,35.0,-938.0,-686.0,-184.0,-94.0,191.0,145,46,44,75,59
2025-02-26 15:31:59.422,211.0,-1213.0,-764.0,-262.0,-118.0,187.0,145,46,42,76,59
2025-02-26 15:31:59.426,396.0,-2173.0,-355.0,-226.0,-121.0,180.0,147,47,43,76,60
2025-02-26 15:31:59.434,564.0,-2987.0,156.0,-191.0,-97.0,201.0,147,47,42,77,61
2025-02-26 15:31:59.438,668.0,-2952.0,187.0,-140.0,-52.0,217.0,147,49,44,78,60
2025-02-26 15:31:59.443,1058.0,-2892.0,179.0,-94.0,-28.0,254.0,146,46,43,78,60
2025-02-26 15:31:59.450,828.0,-2784.0,368.0,-71.0,49.0,292.0,147,47,46,80,60
2025-02-26 15:31:59.455,605.0,-2447.0,196.0,-1.0,78.0,306.0,145,46,43,78,60
2025-02-26 15:31:59.459,718.0,-2503.0,315.0,42.0,78.0,313.0,145,44,42,77,59
2025-02-26 15:31:59.463,540.0,-2000.0,224.0,97.0,78.0,316.0,146,46,44,78,60
2025-02-26 15:31:59.467,440.0,-1625.0,9.0,128.0,69.0,330.0,145,47,47,78,59
2025-02-26 15:31:59.475,474.0,-1332.0,53.0,130.0,66.0,332.0,146,48,45,78,61
2025-02-26 15:31:59.479,399.0,-1009.0,142.0,135.0,77.0,319.0,148,48,43,78,59
2025-02-26 15:31:59.483,268.0,-621.0,77.0,129.0,101.0,304.0,147,47,42,78,61
2025-02-26 15:31:59.488,250.0,-369.0,157.0,105.0,111.0,296.0,146,48,45,79,60
2025-02-26 15:31:59.492,197.0,-133.0,75.0,48.0,114.0,281.0,148,46,42,78,62
2025-02-26 15:31:59.500,66.0,-90.0,124.0,49.0,137.0,269.0,145,46,43,78,60
2025-02-26 15:31:59.503,142.0,-225.0,117.0,6.0,146.0,286.0,146,47,43,79,61
2025-02-26 15:31:59.508,10.0,-341.0,354.0,-45.0,137.0,286.0,147,40,42,78,60
2025-02-26 15:31:59.512,55.0,-391.0,312.0,-49.0,140.0,288.0,146,40,44,78,61
2025-02-26 15:31:59.517,25.0,-252.0,259.0,-76.0,148.0,293.0,147,37,43,78,60
2025-02-26 15:31:59.524,-65.0,-130.0,88.0,-109.0,128.0,301.0,146,39,44,76,60
2025-02-26 15:31:59.527,-241.0,-419.0,-41.0,-107.0,93.0,315.0,146,48,47,78,61
2025-02-26 15:31:59.532,-198.0,-327.0,-11.0,-116.0,73.0,316.0,146,46,45,80,60
2025-02-26 15:31:59.536,-252.0,-317.0,-97.0,-116.0,78.0,316.0,145,46,46,79,60
2025-02-26 15:31:59.544,-278.0,-420.0,-67.0,-119.0,62.0,321.0,146,45,45,77,60
2025-02-26 15:31:59.548,-271.0,-448.0,70.0,-110.0,48.0,319.0,146,43,46,78,61
2025-02-26 15:31:59.551,-230.0,-217.0,304.0,-87.0,49.0,292.0,146,46,47,77,60
2025-02-26 15:31:59.557,28.0,-164.0,279.0,-11.0,81.0,271.0,146,45,46,76,61
2025-02-26 15:31:59.565,247.0,-167.0,384.0,32.0,116.0,239.0,148,45,45,79,60
2025-02-26 15:31:59.569,253.0,-322.0,628.0,75.0,124.0,231.0,143,44,45,80,61
2025-02-26 15:31:59.573,273.0,-305.0,526.0,111.0,145.0,235.0,145,46,45,78,62
2025-02-26 15:31:59.578,229.0,-540.0,427.0,147.0,174.0,249.0,145,45,46,80,60
2025-02-26 15:31:59.583,186.0,-425.0,418.0,143.0,188.0,279.0,145,45,46,78,59
2025-02-26 15:31:59.589,38.0,-354.0,328.0,146.0,197.0,292.0,145,46,46,78,59
2025-02-26 15:31:59.594,-131.0,-242.0,231.0,161.0,192.0,310.0,146,48,46,78,60
2025-02-26 15:31:59.598,-234.0,-172.0,41.0,172.0,185.0,315.0,143,45,44,79,60
2025-02-26 15:31:59.602,-272.0,-150.0,-81.0,196.0,177.0,322.0,144,45,45,76,59
2025-02-26 15:31:59.610,-406.0,-106.0,-257.0,222.0,161.0,324.0,146,47,47,80,60
2025-02-26 15:31:59.613,-429.0,124.0,-275.0,241.0,138.0,331.0,142,45,47,80,59
2025-02-26 15:31:59.618,-553.0,307.0,-330.0,250.0,112.0,337.0,141,46,44,80,60
2025-02-26 15:31:59.622,-552.0,425.0,-301.0,278.0,96.0,344.0,142,45,46,78,60
2025-02-26 15:31:59.631,-560.0,492.0,-188.0,314.0,83.0,343.0,140,45,46,80,61
2025-02-26 15:31:59.631,-406.0,710.0,-246.0,349.0,81.0,325.0,141,45,46,78,62
2025-02-26 15:31:59.639,-335.0,1062.0,-255.0,424.0,84.0,288.0,140,45,46,78,59
2025-02-26 15:31:59.643,-217.0,1264.0,-314.0,487.0,99.0,267.0,141,46,45,78,59
2025-02-26 15:31:59.649,-252.0,1659.0,-318.0,523.0,113.0,222.0,137,46,46,77,61
2025-02-26 15:31:59.655,-283.0,2149.0,-452.0,529.0,123.0,160.0,139,46,45,78,60
2025-02-26 15:31:59.660,-490.0,2953.0,-723.0,542.0,120.0,71.0,140,45,47,77,59
2025-02-26 15:31:59.667,-758.0,3371.0,-814.0,501.0,98.0,16.0,140,45,45,78,59
2025-02-26 15:31:59.672,-1064.0,4144.0,-939.0,422.0,55.0,-109.0,139,47,48,76,60
2025-02-26 15:31:59.676,-1517.0,4504.0,-1303.0,373.0,-13.0,-246.0,138,47,45,79,58
2025-02-26 15:31:59.683,-1880.0,4574.0,-1705.0,264.0,-103.0,-382.0,138,46,44,75,56
2025-02-26 15:31:59.688,-1979.0,4436.0,-2006.0,136.0,-157.0,-511.0,138,45,45,78,56
2025-02-26 15:31:59.692,-1873.0,3858.0,-2201.0,46.0,-289.0,-632.0,138,46,44,75,55
2025-02-26 15:31:59.700,-1543.0,3476.0,-2244.0,-34.0,-401.0,-692.0,138,47,44,76,54
2025-02-26 15:31:59.704,-992.0,2971.0,-2098.0,-85.0,-504.0,-801.0,140,48,44,75,55
2025-02-26 15:31:59.708,-375.0,2609.0,-2074.0,-136.0,-611.0,-891.0,140,47,44,81,56
2025-02-26 15:31:59.716,428.0,2559.0,-1975.0,-207.0,-708.0,-975.0,144,48,44,79,57
2025-02-26 15:31:59.720,1213.0,2524.0,-1989.0,-257.0,-790.0,-1050.0,143,47,43,75,57
2025-02-26 15:31:59.723,2456.0,2187.0,-2150.0,-371.0,-909.0,-1100.0,141,49,44,77,58
2025-02-26 15:31:59.733,4006.0,1102.0,-2330.0,-458.0,-966.0,-1047.0,144,47,45,78,59
2025-02-26 15:31:59.736,4773.0,-469.0,-2002.0,-546.0,-1047.0,-918.0,145,46,43,77,59
2025-02-26 15:31:59.745,5988.0,-1807.0,-1402.0,-610.0,-1046.0,-761.0,146,48,43,77,60
2025-02-26 15:31:59.752,6657.0,-3494.0,-468.0,-710.0,-930.0,-675.0,142,47,45,77,61
2025-02-26 15:31:59.753,6794.0,-4604.0,167.0,-776.0,-709.0,-493.0,144,47,45,78,62
2025-02-26 15:31:59.757,6818.0,-6895.0,416.0,-659.0,-426.0,-301.0,146,47,44,79,63
2025-02-26 15:31:59.764,6993.0,-8900.0,1097.0,-374.0,-131.0,-148.0,147,48,44,76,61
2025-02-26 15:31:59.770,6535.0,-9397.0,960.0,-176.0,124.0,-61.0,146,46,38,76,61
2025-02-26 15:31:59.775,5151.0,-8250.0,771.0,101.0,302.0,5.0,145,45,45,77,59
2025-02-26 15:31:59.782,4122.0,-7635.0,-852.0,322.0,359.0,34.0,146,46,44,75,55
2025-02-26 15:31:59.787,2605.0,-6120.0,-947.0,338.0,592.0,129.0,145,48,47,72,50
2025-02-26 15:31:59.788,1740.0,-4271.0,-1586.0,529.0,66.0,145.0,146,41,45,74,50
2025-02-26 15:31:59.794,778.0,-3922.0,-2288.0,459.0,321.0,170.0,146,45,45,73,50
2025-02-26 15:31:59.803,959.0,-1089.0,-1969.0,293.0,246.0,200.0,145,45,46,73,48
2025-02-26 15:31:59.807,370.0,-450.0,-1218.0,68.0,24.0,234.0,145,46,45,74,50
2025-02-26 15:31:59.811,331.0,-1526.0,-929.0,-54.0,-50.0,234.0,145,47,46,75,52
2025-02-26 15:31:59.819,228.0,-160.0,-370.0,-161.0,-86.0,227.0,145,46,46,75,53
2025-02-26 15:31:59.823,666.0,-1925.0,-490.0,-156.0,-136.0,222.0,147,48,46,76,53
2025-02-26 15:31:59.825,816.0,-2019.0,76.0,-211.0,-84.0,223.0,146,47,45,75,55
2025-02-26 15:31:59.834,1087.0,-3192.0,299.0,-170.0,-44.0,239.0,147,48,46,77,57
2025-02-26 15:31:59.839,682.0,-2907.0,416.0,-122.0,38.0,270.0,145,46,45,77,58
2025-02-26 15:31:59.844,559.0,-3072.0,435.0,-88.0,67.0,312.0,145,46,44,77,57
2025-02-26 15:31:59.847,561.0,-2629.0,455.0,-14.0,72.0,327.0,145,47,44,79,57
2025-02-26 15:31:59.855,692.0,-2204.0,488.0,33.0,84.0,360.0,146,47,45,79,58
2025-02-26 15:31:59.860,759.0,-1886.0,401.0,46.0,120.0,397.0,146,46,44,78,58
2025-02-26 15:31:59.864,527.0,-1609.0,451.0,93.0,120.0,406.0,146,45,45,79,58
2025-02-26 15:31:59.868,411.0,-1521.0,339.0,126.0,108.0,413.0,146,47,45,80,60
2025-02-26 15:31:59.873,363.0,-1537.0,363.0,154.0,126.0,423.0,146,47,45,79,61
2025-02-26 15:31:59.880,447.0,-886.0,254.0,156.0,136.0,436.0,145,47,45,77,59
2025-02-26 15:31:59.885,480.0,-439.0,515.0,119.0,155.0,431.0,146,48,46,78,61
2025-02-26 15:31:59.885,362.0,-740.0,431.0,94.0,165.0,437.0,145,47,44,78,60
2025-02-26 15:31:59.893,599.0,-291.0,488.0,59.0,184.0,438.0,147,47,45,80,61
2025-02-26 15:31:59.897,540.0,-37.0,436.0,-14.0,213.0,437.0,146,47,44,77,60
2025-02-26 15:31:59.905,671.0,18.0,287.0,-105.0,272.0,439.0,146,48,45,79,62
2025-02-26 15:31:59.909,397.0,-77.0,328.0,-138.0,280.0,436.0,145,48,46,83,63
2025-02-26 15:31:59.913,256.0,-113.0,204.0,-191.0,296.0,431.0,144,47,47,80,61
2025-02-26 15:31:59.921,297.0,-22.0,208.0,-146.0,301.0,425.0,144,48,47,78,64
2025-02-26 15:31:59.926,112.0,-66.0,186.0,-95.0,268.0,411.0,146,48,49,80,63
2025-02-26 15:31:59.930,198.0,-391.0,-35.0,-76.0,208.0,397.0,144,46,48,80,64
2025-02-26 15:31:59.934,180.0,-113.0,258.0,-36.0,175.0,391.0,145,46,48,80,64
2025-02-26 15:31:59.938,83.0,-102.0,228.0,-47.0,127.0,380.0,140,45,49,79,67
2025-02-26 15:31:59.946,77.0,-196.0,259.0,-42.0,136.0,381.0,142,46,50,81,66
2025-02-26 15:31:59.950,176.0,-196.0,8.0,-17.0,157.0,388.0,142,49,52,81,68
2025-02-26 15:31:59.955,247.0,-95.0,-168.0,1.0,211.0,391.0,139,47,52,82,70
2025-02-26 15:31:59.959,275.0,-9.0,-204.0,12.0,255.0,399.0,138,49,53,81,72
2025-02-26 15:31:59.963,213.0,82.0,-489.0,106.0,253.0,395.0,138,50,54,82,73
2025-02-26 15:31:59.971,-197.0,52.0,-261.0,181.0,231.0,400.0,137,51,57,84,76
2025-02-26 15:31:59.975,-227.0,44.0,-76.0,184.0,200.0,392.0,135,52,57,84,79
2025-02-26 15:31:59.978,-123.0,379.0,-25.0,272.0,180.0,394.0,136,52,57,85,81
2025-02-26 15:31:59.984,-104.0,83.0,32.0,346.0,189.0,398.0,134,53,60,87,85
2025-02-26 15:31:59.991,-276.0,348.0,-117.0,374.0,189.0,395.0,134,55,60,87,89
2025-02-26 15:31:59.995,-357.0,527.0,-279.0,413.0,176.0,377.0,133,56,61,88,91
2025-02-26 15:32:00.000,-589.0,732.0,-568.0,444.0,169.0,372.0,132,58,62,82,92
2025-02-26 15:32:00.003,-648.0,761.0,-705.0,479.0,155.0,367.0,130,54,62,93,95
2025-02-26 15:32:00.011,-699.0,887.0,-722.0,491.0,128.0,349.0,130,58,64,95,98
2025-02-26 15:32:00.015,-672.0,786.0,-951.0,514.0,103.0,337.0,131,66,65,97,99
2025-02-26 15:32:00.019,-655.0,888.0,-750.0,538.0,96.0,331.0,131,54,65,99,102
2025-02-26 15:32:00.025,-498.0,1194.0,-848.0,536.0,62.0,310.0,129,71,67,99,102
2025-02-26 15:32:00.031,-676.0,1585.0,-1018.0,514.0,27.0,276.0,129,80,70,103,106
2025-02-26 15:32:00.037,-686.0,1836.0,-1446.0,500.0,-4.0,231.0,129,73,69,101,104
2025-02-26 15:32:00.041,-710.0,2174.0,-1560.0,460.0,-46.0,171.0,128,77,68,101,105
2025-02-26 15:32:00.047,-753.0,2265.0,-1709.0,379.0,-86.0,134.0,130,79,71,104,107
2025-02-26 15:32:00.052,-932.0,2457.0,-1891.0,265.0,-144.0,45.0,130,85,72,103,106
2025-02-26 15:32:00.056,-1084.0,2634.0,-1873.0,183.0,-216.0,-58.0,130,87,72,102,105
2025-02-26 15:32:00.064,-1162.0,2849.0,-2043.0,91.0,-295.0,-180.0,129,89,74,102,105
2025-02-26 15:32:00.069,-1125.0,2895.0,-2043.0,47.0,-366.0,-305.0,132,92,76,107,106
2025-02-26 15:32:00.077,-996.0,2956.0,-1758.0,-25.0,-399.0,-432.0,134,93,79,107,105
2025-02-26 15:32:00.079,-811.0,2936.0,-1562.0,-94.0,-460.0,-547.0,134,93,80,107,105
2025-02-26 15:32:00.085,-667.0,2903.0,-1833.0,-106.0,-496.0,-656.0,134,95,84,107,105
2025-02-26 15:32:00.091,-525.0,2971.0,-1449.0,-117.0,-516.0,-765.0,136,96,84,107,105
2025-02-26 15:32:00.097,-394.0,2812.0,-1247.0,-141.0,-526.0,-866.0,137,96,87,107,106
2025-02-26 15:32:00.103,-148.0,2689.0,-1359.0,-197.0,-574.0,-916.0,139,98,88,108,107
2025-02-26 15:32:00.110,451.0,2535.0,-1349.0,-255.0,-650.0,-1003.0,140,100,89,108,107
2025-02-26 15:32:00.114,1162.0,2257.0,-1673.0,-307.0,-741.0,-1055.0,139,100,88,106,108
2025-02-26 15:32:00.122,2270.0,1886.0,-1923.0,-342.0,-869.0,-1042.0,139,100,91,107,109
2025-02-26 15:32:00.126,3597.0,1149.0,-1308.0,-371.0,-962.0,-968.0,139,103,92,108,109
2025-02-26 15:32:00.135,4890.0,-448.0,-773.0,-408.0,-993.0,-874.0,142,104,91,109,108
2025-02-26 15:32:00.138,6115.0,-2019.0,-485.0,-491.0,-1012.0,-808.0,140,106,96,111,108
2025-02-26 15:32:00.146,6453.0,-3707.0,213.0,-546.0,-982.0,-715.0,140,107,95,111,108
2025-02-26 15:32:00.150,5689.0,-4627.0,332.0,-542.0,-911.0,-589.0,139,109,97,112,108
2025-02-26 15:32:00.155,5203.0,-5315.0,119.0,-483.0,-790.0,-432.0,144,110,98,113,107
2025-02-26 15:32:00.163,4923.0,-5883.0,-170.0,-393.0,-593.0,-268.0,143,113,99,114,108
2025-02-26 15:32:00.167,4671.0,-6560.0,-595.0,-321.0,-366.0,-111.0,143,112,101,115,109
2025-02-26 15:32:00.175,3879.0,-6600.0,-314.0,-260.0,-126.0,28.0,145,114,101,116,109
2025-02-26 15:32:00.179,3506.0,-6099.0,-217.0,-274.0,69.0,152.0,144,114,100,114,110
2025-02-26 15:32:00.183,3175.0,-5128.0,-714.0,-296.0,198.0,239.0,144,115,100,116,110
2025-02-26 15:32:00.192,2600.0,-4104.0,-814.0,-236.0,268.0,256.0,145,116,101,117,112
2025-02-26 15:32:00.196,821.0,-3747.0,-3824.0,268.0,-53.0,338.0,144,114,99,115,112
2025-02-26 15:32:00.204,2438.0,-1679.0,-3175.0,-31.0,-357.0,142.0,144,114,99,116,112
2025-02-26 15:32:00.208,1981.0,-1737.0,5523.0,288.0,35.0,245.0,144,115,98,116,113
2025-02-26 15:32:00.212,101.0,-1784.0,455.0,217.0,300.0,297.0,144,115,99,116,114
2025-02-26 15:32:00.219,709.0,-1627.0,343.0,-34.0,249.0,316.0,143,114,98,115,112
2025-02-26 15:32:00.224,270.0,-1906.0,79.0,-144.0,314.0,416.0,144,115,99,117,114
2025-02-26 15:32:00.229,-24.0,-1088.0,-659.0,-368.0,202.0,435.0,144,116,100,117,115
2025-02-26 15:32:00.237,569.0,-1008.0,-557.0,-314.0,143.0,421.0,145,117,98,116,115
2025-02-26 15:32:00.241,163.0,-1520.0,820.0,-120.0,148.0,419.0,145,116,98,118,114
2025-02-26 15:32:00.245,66.0,-1181.0,249.0,-120.0,105.0,379.0,143,116,100,116,115
2025-02-26 15:32:00.252,83.0,-812.0,-246.0,-3.0,48.0,324.0,144,115,95,116,113
2025-02-26 15:32:00.257,-167.0,-833.0,13.0,192.0,9.0,305.0,144,114,97,117,114
2025-02-26 15:32:00.262,-231.0,-1069.0,317.0,309.0,37.0,285.0,143,115,98,116,113
2025-02-26 15:32:00.265,-30.0,-1255.0,979.0,369.0,120.0,265.0,145,115,95,116,115
2025-02-26 15:32:00.274,107.0,-698.0,-1187.0,407.0,109.0,235.0,144,114,96,116,114
2025-02-26 15:32:00.278,112.0,-1042.0,-981.0,311.0,80.0,277.0,143,114,96,116,113
2025-02-26 15:32:00.282,210.0,-1208.0,-432.0,146.0,136.0,275.0,143,114,96,115,115
2025-02-26 15:32:00.290,-60.0,-1000.0,-292.0,168.0,222.0,252.0,143,115,97,119,115
2025-02-26 15:32:00.295,420.0,-647.0,-223.0,207.0,249.0,251.0,142,114,98,117,115
2025-02-26 15:32:00.299,115.0,-917.0,491.0,204.0,313.0,259.0,144,114,98,117,116
2025-02-26 15:32:00.306,-159.0,-823.0,-317.0,50.0,290.0,261.0,143,115,96,115,116
2025-02-26 15:32:00.311,81.0,-684.0,457.0,-89.0,248.0,272.0,145,114,97,117,114
2025-02-26 15:32:00.315,-447.0,-802.0,-20.0,-187.0,243.0,312.0,142,116,96,118,117
2025-02-26 15:32:00.322,-485.0,-565.0,-16.0,-145.0,153.0,325.0,145,116,98,113,116
2025-02-26 15:32:00.326,93.0,-203.0,373.0,-137.0,137.0,305.0,144,115,95,116,116
2025-02-26 15:32:00.332,291.0,-430.0,-296.0,-146.0,98.0,305.0,142,114,97,117,117
2025-02-26 15:32:00.339,253.0,-261.0,-9.0,-146.0,87.0,300.0,141,113,97,119,118
2025-02-26 15:32:00.343,17.0,-247.0,212.0,-144.0,74.0,297.0,142,113,98,117,116
2025-02-26 15:32:00.348,-124.0,-431.0,117.0,-159.0,67.0,306.0,143,115,97,117,118
2025-02-26 15:32:00.352,-138.0,-263.0,-17.0,-162.0,56.0,307.0,140,114,98,115,117
2025-02-26 15:32:00.360,-185.0,-79.0,1001.0,-192.0,44.0,303.0,141,114,97,116,118
2025-02-26 15:32:00.364,184.0,-120.0,-132.0,-90.0,35.0,280.0,140,113,97,117,117
2025-02-26 15:32:00.368,26.0,581.0,-553.0,-31.0,28.0,293.0,143,113,98,116,117
2025-02-26 15:32:00.376,-336.0,-90.0,-70.0,24.0,25.0,291.0,140,111,97,116,117
2025-02-26 15:32:00.380,-430.0,36.0,83.0,58.0,13.0,290.0,140,111,97,117,115
2025-02-26 15:32:00.384,-566.0,69.0,228.0,18.0,8.0,288.0,139,109,97,116,118
2025-02-26 15:32:00.389,-404.0,133.0,47.0,14.0,19.0,290.0,140,111,98,116,117
2025-02-26 15:32:00.393,-395.0,343.0,26.0,7.0,36.0,276.0,139,110,99,117,116
2025-02-26 15:32:00.401,-343.0,317.0,-25.0,9.0,39.0,268.0,139,110,96,114,117
2025-02-26 15:32:00.405,-449.0,329.0,202.0,44.0,38.0,262.0,140,109,97,116,116
2025-02-26 15:32:00.407,-610.0,326.0,222.0,109.0,35.0,252.0,139,109,96,115,116
2025-02-26 15:32:00.416,-606.0,292.0,284.0,126.0,42.0,244.0,138,109,98,117,116
2025-02-26 15:32:00.419,-585.0,479.0,109.0,194.0,40.0,235.0,138,112,96,116,118
2025-02-26 15:32:00.425,-785.0,509.0,265.0,238.0,45.0,233.0,137,107,96,117,117
2025-02-26 15:32:00.429,-644.0,733.0,186.0,317.0,55.0,219.0,136,104,95,113,120
2025-02-26 15:32:00.437,-605.0,1018.0,-31.0,351.0,48.0,190.0,138,107,96,116,117
2025-02-26 15:32:00.441,-717.0,1365.0,5.0,417.0,43.0,153.0,133,95,95,112,118
2025-02-26 15:32:00.445,-775.0,1538.0,-226.0,472.0,21.0,131.0,137,96,95,115,118
2025-02-26 15:32:00.450,-910.0,1982.0,-488.0,526.0,-21.0,78.0,137,97,96,116,119
2025-02-26 15:32:00.458,-1043.0,2223.0,-435.0,522.0,-73.0,8.0,138,108,96,115,119
2025-02-26 15:32:00.462,-1081.0,2529.0,-670.0,523.0,-139.0,-72.0,138,108,94,117,120
2025-02-26 15:32:00.470,-1107.0,2919.0,-487.0,499.0,-186.0,-175.0,138,109,94,116,121
2025-02-26 15:32:00.474,-1294.0,3042.0,-710.0,453.0,-215.0,-288.0,138,108,94,116,121
2025-02-26 15:32:00.478,-1392.0,2904.0,-726.0,349.0,-232.0,-401.0,137,111,95,117,119
2025-02-26 15:32:00.487,-1485.0,2833.0,-934.0,242.0,-224.0,-516.0,139,109,92,115,121
2025-02-26 15:32:00.491,-1245.0,2685.0,-969.0,187.0,-230.0,-631.0,137,111,93,113,121
2025-02-26 15:32:00.499,-968.0,2408.0,-801.0,139.0,-243.0,-687.0,138,109,94,114,122
2025-02-26 15:32:00.503,-637.0,2379.0,-906.0,91.0,-261.0,-789.0,137,110,95,118,123
2025-02-26 15:32:00.507,-212.0,2282.0,-1143.0,75.0,-307.0,-874.0,138,112,95,116,123
2025-02-26 15:32:00.515,763.0,2342.0,-1182.0,36.0,-442.0,-949.0,136,111,96,116,122
2025-02-26 15:32:00.520,1537.0,2054.0,-821.0,-82.0,-657.0,-971.0,136,111,96,117,121
2025-02-26 15:32:00.524,2261.0,1582.0,-154.0,-175.0,-761.0,-942.0,136,113,97,116,121
2025-02-26 15:32:00.531,2790.0,1030.0,-125.0,-185.0,-767.0,-893.0,134,113,98,114,120
2025-02-26 15:32:00.536,3699.0,-21.0,-228.0,-206.0,-816.0,-813.0,135,113,98,116,121
2025-02-26 15:32:00.544,5248.0,-1064.0,-172.0,-281.0,-871.0,-753.0,134,111,103,115,117
2025-02-26 15:32:00.548,5697.0,-2446.0,434.0,-455.0,-837.0,-700.0,133,113,99,118,115
2025-02-26 15:32:00.556,4883.0,-3957.0,-149.0,-596.0,-811.0,-569.0,134,113,100,117,118
2025-02-26 15:32:00.560,4321.0,-5183.0,-1170.0,-558.0,-775.0,-405.0,134,112,100,117,116
2025-02-26 15:32:00.566,3915.0,-6024.0,-1340.0,-436.0,-579.0,-223.0,133,113,100,116,117
2025-02-26 15:32:00.573,3983.0,-6846.0,-1333.0,-355.0,-410.0,-53.0,139,111,100,120,117
2025-02-26 15:32:00.577,3719.0,-6550.0,-230.0,-288.0,-202.0,89.0,135,113,100,119,118
2025-02-26 15:32:00.583,3452.0,-5721.0,288.0,-242.0,-24.0,189.0,136,112,100,119,118
2025-02-26 15:32:00.589,3402.0,-5008.0,-346.0,-204.0,30.0,242.0,133,111,100,119,117
2025-02-26 15:32:00.594,3188.0,-4178.0,-1042.0,-235.0,44.0,238.0,136,110,101,119,117
2025-02-26 15:32:00.601,1066.0,-3393.0,-3054.0,148.0,-33.0,264.0,136,111,98,118,116
2025-02-26 15:32:00.605,2804.0,-1980.0,4554.0,254.0,59.0,182.0,137,110,98,119,121
2025-02-26 15:32:00.613,1383.0,-2014.0,202.0,598.0,326.0,151.0,138,109,97,123,118
2025-02-26 15:32:00.625,760.0,-2497.0,-1198.0,366.0,225.0,195.0,137,109,96,118,116
2025-02-26 15:32:00.627,713.0,-1569.0,527.0,89.0,246.0,206.0,137,109,97,120,117
2025-02-26 15:32:00.630,-220.0,-2001.0,-100.0,-37.0,365.0,300.0,137,107,96,120,115
2025-02-26 15:32:00.634,-223.0,-1052.0,-2274.0,-269.0,245.0,311.0,138,107,95,118,116
2025-02-26 15:32:00.638,261.0,-1047.0,1302.0,-292.0,71.0,308.0,139,107,94,118,115
2025-02-26 15:32:00.646,456.0,-1657.0,997.0,-44.0,202.0,312.0,137,104,93,119,114
2025-02-26 15:32:00.651,24.0,-1504.0,253.0,-29.0,224.0,304.0,138,102,93,118,114
2025-02-26 15:32:00.655,38.0,-1036.0,-385.0,-4.0,117.0,274.0,137,99,90,118,113
2025-02-26 15:32:00.659,29.0,-1677.0,-742.0,59.0,17.0,279.0,136,97,89,118,113
2025-02-26 15:32:00.667,-96.0,-1632.0,273.0,184.0,28.0,281.0,137,97,87,118,112
2025-02-26 15:32:00.671,78.0,-1529.0,308.0,150.0,53.0,280.0,136,94,87,123,113
2025-02-26 15:32:00.676,532.0,-1086.0,121.0,164.0,107.0,250.0,137,95,83,117,114
2025-02-26 15:32:00.683,404.0,-1396.0,-610.0,143.0,137.0,258.0,137,95,81,116,113
2025-02-26 15:32:00.687,82.0,-1699.0,-329.0,147.0,179.0,279.0,135,94,81,116,114
2025-02-26 15:32:00.692,172.0,-1387.0,203.0,119.0,217.0,282.0,136,91,82,116,113
2025-02-26 15:32:00.696,290.0,-1402.0,-61.0,150.0,274.0,283.0,138,92,76,116,113
2025-02-26 15:32:00.703,488.0,-1225.0,-70.0,58.0,258.0,295.0,137,90,77,116,113
2025-02-26 15:32:00.708,561.0,-975.0,214.0,-10.0,185.0,292.0,138,90,78,115,111
2025-02-26 15:32:00.711,404.0,-842.0,478.0,-55.0,157.0,291.0,140,90,76,115,113
2025-02-26 15:32:00.720,266.0,-999.0,474.0,-98.0,154.0,304.0,138,88,75,113,112
2025-02-26 15:32:00.724,237.0,-755.0,830.0,-241.0,262.0,314.0,138,86,73,113,110
2025-02-26 15:32:00.729,70.0,-685.0,74.0,-298.0,295.0,346.0,139,85,71,114,107
2025-02-26 15:32:00.733,185.0,-359.0,-365.0,-283.0,247.0,358.0,138,84,70,111,105
2025-02-26 15:32:00.740,133.0,-366.0,-210.0,-279.0,208.0,372.0,137,82,70,109,101
2025-02-26 15:32:00.744,-2.0,-360.0,231.0,-174.0,112.0,376.0,138,80,65,108,99
2025-02-26 15:32:00.747,-69.0,-147.0,345.0,-82.0,69.0,385.0,137,78,66,109,98
2025-02-26 15:32:00.753,-262.0,-276.0,-2.0,-74.0,45.0,400.0,140,77,63,107,94
2025-02-26 15:32:00.759,-258.0,-130.0,-48.0,-33.0,32.0,404.0,138,72,61,106,94
2025-02-26 15:32:00.765,-284.0,-104.0,96.0,9.0,27.0,408.0,138,71,60,104,92
2025-02-26 15:32:00.770,-125.0,-29.0,411.0,7.0,67.0,403.0,137,68,60,104,92
2025-02-26 15:32:00.771,-27.0,-54.0,202.0,-12.0,60.0,409.0,138,65,58,102,89
2025-02-26 15:32:00.781,97.0,84.0,108.0,-11.0,71.0,408.0,138,61,58,102,87
2025-02-26 15:32:00.786,1.0,110.0,19.0,-34.0,56.0,398.0,137,60,59,101,84
2025-02-26 15:32:00.790,-125.0,173.0,142.0,-14.0,65.0,390.0,137,55,56,100,82
2025-02-26 15:32:00.794,-175.0,199.0,80.0,47.0,80.0,384.0,138,51,55,98,79
2025-02-26 15:32:00.799,-440.0,188.0,84.0,105.0,87.0,371.0,137,52,55,98,78
2025-02-26 15:32:00.803,-659.0,263.0,-236.0,118.0,71.0,366.0,136,49,54,97,75
2025-02-26 15:32:00.808,-460.0,214.0,-226.0,169.0,89.0,355.0,138,47,53,96,74
2025-02-26 15:32:00.814,-451.0,345.0,-147.0,210.0,90.0,341.0,138,49,52,94,73
2025-02-26 15:32:00.818,-491.0,429.0,-69.0,224.0,93.0,318.0,135,49,51,93,70
2025-02-26 15:32:00.822,-458.0,523.0,-229.0,274.0,92.0,306.0,135,47,52,89,69
2025-02-26 15:32:00.830,-588.0,788.0,-384.0,308.0,76.0,268.0,136,43,49,89,71
2025-02-26 15:32:00.835,-727.0,854.0,-306.0,344.0,68.0,242.0,135,46,48,84,68
2025-02-26 15:32:00.839,-793.0,818.0,-244.0,388.0,63.0,231.0,136,44,47,85,68
2025-02-26 15:32:00.843,-723.0,1059.0,-343.0,443.0,42.0,202.0,136,49,46,81,67
2025-02-26 15:32:00.850,-650.0,1240.0,-364.0,468.0,17.0,169.0,134,46,46,81,66
2025-02-26 15:32:00.856,-551.0,1913.0,-718.0,499.0,-21.0,105.0,135,46,48,79,66
2025-02-26 15:32:00.860,-661.0,2097.0,-142.0,490.0,-23.0,89.0,136,47,45,78,66
2025-02-26 15:32:00.862,-782.0,2237.0,-197.0,401.0,-50.0,27.0,135,46,46,77,67
2025-02-26 15:32:00.871,-786.0,2952.0,-584.0,372.0,-74.0,-58.0,135,46,44,76,67
2025-02-26 15:32:00.873,-913.0,2915.0,-606.0,332.0,-70.0,-151.0,135,47,45,73,66
2025-02-26 15:32:00.880,-1011.0,3094.0,-806.0,275.0,-62.0,-204.0,133,46,44,68,65
2025-02-26 15:32:00.888,-1121.0,3289.0,-724.0,224.0,-57.0,-313.0,134,45,46,72,66
2025-02-26 15:32:00.891,-1170.0,3498.0,-780.0,178.0,-85.0,-432.0,137,44,41,69,63
2025-02-26 15:32:00.896,-1064.0,3498.0,-782.0,154.0,-139.0,-543.0,135,44,44,68,64
2025-02-26 15:32:00.904,-862.0,3523.0,-1101.0,107.0,-233.0,-652.0,136,44,43,66,62
2025-02-26 15:32:00.908,-759.0,3624.0,-1347.0,73.0,-283.0,-755.0,136,43,41,66,63
2025-02-26 15:32:00.913,-485.0,3556.0,-1638.0,8.0,-379.0,-802.0,137,45,43,65,63
2025-02-26 15:32:00.920,43.0,3577.0,-2000.0,-75.0,-498.0,-897.0,138,42,41,65,62
2025-02-26 15:32:00.923,758.0,3332.0,-2105.0,-165.0,-611.0,-955.0,136,45,41,63,62
2025-02-26 15:32:00.929,1679.0,2694.0,-2265.0,-222.0,-703.0,-988.0,136,43,41,63,61
2025-02-26 15:32:00.935,2441.0,1756.0,-2125.0,-338.0,-791.0,-959.0,137,45,39,61,61
2025-02-26 15:32:00.941,2868.0,623.0,-1958.0,-446.0,-839.0,-908.0,136,43,39,59,63
2025-02-26 15:32:00.946,3722.0,-471.0,-1879.0,-533.0,-902.0,-856.0,136,44,40,61,63
2025-02-26 15:32:00.953,4509.0,-1016.0,-1657.0,-612.0,-914.0,-810.0,139,51,40,60,63
2025-02-26 15:32:00.958,5770.0,-2355.0,-996.0,-654.0,-843.0,-704.0,141,44,40,61,65
2025-02-26 15:32:00.962,6076.0,-4167.0,-593.0,-679.0,-680.0,-576.0,142,44,39,65,64
2025-02-26 15:32:00.969,6257.0,-5734.0,288.0,-626.0,-455.0,-432.0,142,46,41,63,64
2025-02-26 15:32:00.974,6249.0,-7393.0,895.0,-556.0,-210.0,-289.0,141,45,41,62,63
2025-02-26 15:32:00.978,5737.0,-8591.0,1035.0,-314.0,26.0,-159.0,142,44,41,64,59
2025-02-26 15:32:00.986,5001.0,-8881.0,460.0,-14.0,115.0,-46.0,141,44,40,62,57
2025-02-26 15:32:00.990,3809.0,-8360.0,-772.0,342.0,270.0,-27.0,141,43,40,64,53
2025-02-26 15:32:00.995,3334.0,-6774.0,416.0,554.0,165.0,64.0,142,44,41,61,51
2025-02-26 15:32:01.002,1726.0,-4191.0,-1185.0,662.0,233.0,87.0,141,41,41,62,51
2025-02-26 15:32:01.007,1673.0,-2472.0,-1982.0,435.0,325.0,113.0,141,43,41,63,50
2025-02-26 15:32:01.011,439.0,-1055.0,-1593.0,354.0,215.0,124.0,145,41,41,62,50
2025-02-26 15:32:01.015,-185.0,-620.0,-1658.0,198.0,55.0,137.0,142,44,41,63,52
2025-02-26 15:32:01.023,177.0,-649.0,-1355.0,-17.0,73.0,114.0,144,40,40,64,56
2025-02-26 15:32:01.027,-377.0,-374.0,-909.0,-89.0,-103.0,103.0,144,44,40,64,54
2025-02-26 15:32:01.032,-159.0,-1955.0,-779.0,-96.0,-111.0,93.0,140,44,41,58,57
2025-02-26 15:32:01.040,349.0,-1216.0,-298.0,-185.0,-124.0,104.0,144,45,41,64,58
2025-02-26 15:32:01.044,471.0,-2236.0,77.0,-149.0,-109.0,104.0,143,46,39,65,59
2025-02-26 15:32:01.047,619.0,-2695.0,258.0,-115.0,-72.0,122.0,145,45,41,64,58
2025-02-26 15:32:01.052,834.0,-2621.0,520.0,-84.0,-2.0,128.0,143,46,41,66,60
2025-02-26 15:32:01.060,809.0,-2461.0,759.0,-34.0,7.0,145.0,144,46,42,68,61
2025-02-26 15:32:01.064,1010.0,-2128.0,808.0,-21.0,62.0,157.0,143,47,42,66,59
2025-02-26 15:32:01.068,755.0,-2199.0,599.0,7.0,79.0,183.0,144,46,42,66,61
2025-02-26 15:32:01.073,573.0,-2052.0,468.0,38.0,73.0,211.0,145,46,42,66,60
2025-02-26 15:32:01.077,472.0,-1964.0,190.0,40.0,80.0,227.0,145,47,42,65,60
2025-02-26 15:32:01.085,402.0,-1500.0,107.0,23.0,81.0,249.0,145,47,41,64,62
2025-02-26 15:32:01.089,374.0,-1626.0,33.0,16.0,67.0,261.0,145,47,42,68,60
2025-02-26 15:32:01.093,259.0,-1602.0,-10.0,22.0,45.0,266.0,144,47,41,68,61
2025-02-26 15:32:01.097,356.0,-1071.0,25.0,-2.0,52.0,271.0,144,47,43,67,61
2025-02-26 15:32:01.102,237.0,-915.0,143.0,-10.0,52.0,259.0,147,48,42,66,60
2025-02-26 15:32:01.109,341.0,-757.0,248.0,-30.0,46.0,247.0,146,46,42,67,60
2025-02-26 15:32:01.114,311.0,-740.0,179.0,-31.0,52.0,229.0,145,47,43,69,60
2025-02-26 15:32:01.117,281.0,-596.0,243.0,-66.0,65.0,224.0,144,47,43,68,59
2025-02-26 15:32:01.122,77.0,-507.0,63.0,-75.0,88.0,231.0,145,47,42,66,58
2025-02-26 15:32:01.126,84.0,-627.0,25.0,-97.0,86.0,241.0,144,48,43,69,60
2025-02-26 15:32:01.134,71.0,-185.0,218.0,-123.0,83.0,247.0,145,50,42,69,57
2025-02-26 15:32:01.138,-37.0,-466.0,88.0,-98.0,77.0,254.0,144,47,42,68,55
2025-02-26 15:32:01.142,12.0,-687.0,134.0,-96.0,27.0,266.0,145,49,43,69,57
2025-02-26 15:32:01.146,-14.0,-639.0,99.0,-97.0,16.0,272.0,146,47,43,69,56
2025-02-26 15:32:01.151,-48.0,-673.0,125.0,-83.0,20.0,272.0,144,47,43,66,58
2025-02-26 15:32:01.158,5.0,-733.0,83.0,-81.0,33.0,278.0,145,48,42,70,58
2025-02-26 15:32:01.162,28.0,-728.0,183.0,-81.0,37.0,287.0,146,48,43,71,60
2025-02-26 15:32:01.166,-5.0,-597.0,357.0,-72.0,46.0,289.0,145,47,44,69,58
2025-02-26 15:32:01.170,90.0,-467.0,452.0,-49.0,71.0,269.0,147,51,45,69,60
2025-02-26 15:32:01.175,258.0,-345.0,496.0,-26.0,108.0,238.0,145,46,43,71,60
2025-02-26 15:32:01.183,312.0,-403.0,517.0,25.0,133.0,215.0,145,47,42,71,57
2025-02-26 15:32:01.187,238.0,-413.0,425.0,70.0,171.0,210.0,147,52,43,72,57
2025-02-26 15:32:01.192,61.0,-472.0,398.0,80.0,167.0,210.0,152,47,44,69,58
2025-02-26 15:32:01.196,15.0,-383.0,243.0,113.0,157.0,224.0,145,46,43,72,58
2025-02-26 15:32:01.203,-138.0,-436.0,216.0,130.0,152.0,230.0,149,46,43,68,56
2025-02-26 15:32:01.207,-191.0,-314.0,210.0,125.0,145.0,244.0,144,47,44,72,58
2025-02-26 15:32:01.211,-202.0,-316.0,166.0,119.0,137.0,248.0,143,46,41,71,57
2025-02-26 15:32:01.214,-215.0,-259.0,35.0,118.0,156.0,249.0,144,46,44,72,58
2025-02-26 15:32:01.224,-349.0,-213.0,-33.0,120.0,161.0,244.0,142,47,44,71,58
2025-02-26 15:32:01.228,-404.0,-131.0,66.0,100.0,147.0,242.0,143,45,44,69,57
2025-02-26 15:32:01.232,-453.0,-97.0,42.0,93.0,119.0,241.0,142,46,43,71,58
2025-02-26 15:32:01.236,-344.0,21.0,25.0,88.0,109.0,237.0,144,47,44,73,58
2025-02-26 15:32:01.239,-409.0,139.0,83.0,84.0,111.0,229.0,142,47,45,70,60
2025-02-26 15:32:01.248,-435.0,151.0,241.0,89.0,106.0,221.0,143,46,44,71,60
2025-02-26 15:32:01.253,-290.0,217.0,327.0,98.0,114.0,205.0,145,55,44,71,62
2025-02-26 15:32:01.257,-238.0,278.0,416.0,103.0,127.0,189.0,144,47,43,71,59
2025-02-26 15:32:01.261,-200.0,279.0,410.0,128.0,153.0,180.0,142,49,43,71,62
2025-02-26 15:32:01.265,-338.0,408.0,371.0,148.0,174.0,162.0,143,45,43,71,62
2025-02-26 15:32:01.273,-620.0,673.0,244.0,155.0,179.0,145.0,143,46,48,71,60
2025-02-26 15:32:01.277,-708.0,829.0,19.0,169.0,170.0,136.0,140,46,45,71,59
2025-02-26 15:32:01.281,-900.0,1142.0,-70.0,181.0,154.0,114.0,141,47,45,70,60
2025-02-26 15:32:01.286,-1141.0,1578.0,-257.0,186.0,127.0,76.0,141,48,44,71,62
2025-02-26 15:32:01.294,-1308.0,2091.0,-371.0,200.0,110.0,19.0,140,52,45,71,60
2025-02-26 15:32:01.298,-1408.0,2287.0,-426.0,202.0,76.0,-17.0,140,48,44,71,60
2025-02-26 15:32:01.302,-1419.0,2740.0,-512.0,205.0,48.0,-104.0,139,46,43,69,59
2025-02-26 15:32:01.309,-1374.0,3004.0,-513.0,195.0,39.0,-203.0,140,48,43,70,60
2025-02-26 15:32:01.313,-1453.0,3153.0,-598.0,194.0,8.0,-302.0,140,47,44,70,61
2025-02-26 15:32:01.318,-1554.0,3183.0,-953.0,178.0,-41.0,-353.0,140,47,43,68,59
2025-02-26 15:32:01.326,-1596.0,3193.0,-1283.0,161.0,-94.0,-447.0,139,47,44,68,60
2025-02-26 15:32:01.330,-1599.0,3133.0,-1235.0,118.0,-149.0,-536.0,140,48,43,69,61
2025-02-26 15:32:01.335,-1493.0,3160.0,-1409.0,80.0,-235.0,-627.0,139,47,44,68,61
2025-02-26 15:32:01.343,-1070.0,2967.0,-1663.0,67.0,-332.0,-709.0,140,47,44,68,60
2025-02-26 15:32:01.347,-499.0,2999.0,-1927.0,11.0,-437.0,-771.0,141,48,42,67,62
2025-02-26 15:32:01.351,-239.0,2924.0,-2139.0,-50.0,-496.0,-818.0,142,47,44,67,62
2025-02-26 15:32:01.358,405.0,2988.0,-2001.0,-163.0,-612.0,-840.0,144,48,43,67,63
2025-02-26 15:32:01.363,1729.0,3097.0,-1566.0,-337.0,-680.0,-872.0,143,48,44,67,64
2025-02-26 15:32:01.370,3590.0,2687.0,-1232.0,-554.0,-684.0,-881.0,144,47,44,68,66
2025-02-26 15:32:01.375,5140.0,1106.0,-744.0,-721.0,-618.0,-837.0,145,46,44,66,67
2025-02-26 15:32:01.379,6379.0,-1212.0,-346.0,-783.0,-445.0,-756.0,146,48,45,67,67
2025-02-26 15:32:01.384,7321.0,-4599.0,224.0,-778.0,-214.0,-632.0,145,49,43,63,66
2025-02-26 15:32:01.392,7480.0,-8687.0,709.0,-592.0,-97.0,-440.0,145,48,43,65,64
2025-02-26 15:32:01.395,7036.0,-11454.0,365.0,-248.0,90.0,-325.0,141,47,41,67,64
2025-02-26 15:32:01.401,5569.0,-11634.0,-796.0,167.0,182.0,-105.0,140,48,42,66,61
2025-02-26 15:32:01.408,3669.0,-10238.0,-1458.0,407.0,241.0,69.0,143,49,41,63,59
2025-02-26 15:32:01.412,2885.0,-6807.0,-2101.0,489.0,290.0,159.0,141,49,41,66,57
2025-02-26 15:32:01.416,1769.0,-4083.0,-2994.0,341.0,68.0,204.0,140,48,42,64,55
2025-02-26 15:32:01.424,1612.0,-1235.0,-2310.0,393.0,-17.0,194.0,139,44,43,65,59
2025-02-26 15:32:01.429,654.0,-1015.0,-1999.0,233.0,11.0,152.0,140,43,40,66,56
2025-02-26 15:32:01.433,-168.0,526.0,-2031.0,-35.0,-60.0,116.0,142,48,41,66,56
2025-02-26 15:32:01.437,-39.0,-346.0,-893.0,-128.0,-156.0,89.0,141,45,41,66,60
2025-02-26 15:32:01.445,520.0,-1532.0,-719.0,-174.0,-169.0,45.0,141,48,42,68,57
2025-02-26 15:32:01.449,205.0,-2450.0,23.0,-190.0,-176.0,62.0,143,51,42,69,60
2025-02-26 15:32:01.453,659.0,-2866.0,608.0,-140.0,-111.0,71.0,141,48,43,68,59
2025-02-26 15:32:01.458,770.0,-3194.0,781.0,-69.0,-49.0,96.0,142,49,43,69,60
2025-02-26 15:32:01.465,852.0,-3119.0,890.0,-32.0,26.0,128.0,141,48,44,65,59
2025-02-26 15:32:01.469,855.0,-2183.0,1273.0,-27.0,78.0,144.0,142,49,44,73,60
2025-02-26 15:32:01.474,581.0,-2509.0,703.0,49.0,106.0,155.0,144,47,44,71,61
2025-02-26 15:32:01.478,256.0,-1696.0,428.0,54.0,77.0,163.0,142,48,44,70,61
2025-02-26 15:32:01.485,151.0,-1355.0,10.0,51.0,82.0,154.0,142,48,41,69,61
2025-02-26 15:32:01.490,20.0,-1104.0,-168.0,0.0,112.0,154.0,142,47,41,72,62
2025-02-26 15:32:01.494,-176.0,-980.0,-208.0,-24.0,64.0,159.0,142,48,42,70,63
2025-02-26 15:32:01.499,-355.0,-1101.0,-325.0,-64.0,19.0,168.0,142,47,43,72,63
2025-02-26 15:32:01.507,-259.0,-1141.0,-318.0,-81.0,-40.0,172.0,140,47,43,71,62
2025-02-26 15:32:01.511,-29.0,-1339.0,-262.0,-109.0,-65.0,182.0,143,48,44,72,64
2025-02-26 15:32:01.515,176.0,-1432.0,-149.0,-123.0,-70.0,193.0,141,47,46,72,64
2025-02-26 15:32:01.520,280.0,-1524.0,-32.0,-123.0,-84.0,204.0,142,46,44,73,63
2025-02-26 15:32:01.527,322.0,-1628.0,53.0,-111.0,-88.0,210.0,140,48,44,75,64
2025-02-26 15:32:01.532,520.0,-1522.0,35.0,-94.0,-71.0,211.0,141,47,45,73,63
2025-02-26 15:32:01.536,541.0,-1379.0,55.0,-98.0,-46.0,219.0,143,47,45,75,63
2025-02-26 15:32:01.540,514.0,-1328.0,111.0,-105.0,-12.0,227.0,142,46,43,72,63
2025-02-26 15:32:01.548,510.0,-1177.0,78.0,-101.0,1.0,229.0,140,46,42,72,62
2025-02-26 15:32:01.551,502.0,-1029.0,80.0,-116.0,29.0,234.0,142,45,43,76,62
2025-02-26 15:32:01.556,453.0,-990.0,35.0,-113.0,28.0,246.0,142,46,44,75,62
2025-02-26 15:32:01.560,359.0,-947.0,-33.0,-110.0,29.0,256.0,141,45,43,75,60
2025-02-26 15:32:01.568,176.0,-942.0,-250.0,-87.0,18.0,261.0,142,44,45,74,61
2025-02-26 15:32:01.572,185.0,-910.0,-229.0,-56.0,16.0,271.0,143,46,46,75,59
2025-02-26 15:32:01.577,39.0,-837.0,-309.0,-49.0,19.0,282.0,142,44,46,76,59
2025-02-26 15:32:01.581,50.0,-831.0,-237.0,-19.0,13.0,285.0,143,44,47,77,58
2025-02-26 15:32:01.584,-9.0,-797.0,-327.0,16.0,-6.0,291.0,141,45,48,79,57
2025-02-26 15:32:01.592,33.0,-792.0,-305.0,33.0,-10.0,302.0,142,46,49,80,59
2025-02-26 15:32:01.596,70.0,-722.0,-141.0,59.0,-16.0,305.0,141,45,49,78,58
2025-02-26 15:32:01.601,205.0,-724.0,-89.0,86.0,-9.0,310.0,142,47,51,79,57
2025-02-26 15:32:01.605,243.0,-699.0,-28.0,96.0,42.0,311.0,143,46,51,81,58
2025-02-26 15:32:01.609,325.0,-616.0,24.0,106.0,67.0,314.0,143,46,52,81,58
2025-02-26 15:32:01.617,455.0,-619.0,40.0,146.0,102.0,318.0,141,46,53,82,60
2025-02-26 15:32:01.622,408.0,-603.0,100.0,147.0,149.0,321.0,144,49,55,84,59
2025-02-26 15:32:01.625,330.0,-694.0,259.0,169.0,165.0,324.0,141,48,56,82,60
2025-02-26 15:32:01.629,232.0,-815.0,187.0,219.0,169.0,339.0,142,50,56,85,61
2025-02-26 15:32:01.637,356.0,-652.0,341.0,251.0,157.0,348.0,141,48,54,85,60
2025-02-26 15:32:01.641,235.0,-565.0,-190.0,287.0,172.0,363.0,140,50,51,84,60
2025-02-26 15:32:01.643,158.0,-370.0,-328.0,345.0,171.0,377.0,142,51,51,84,61
2025-02-26 15:32:01.651,56.0,-374.0,-32.0,367.0,182.0,379.0,143,53,51,82,61
2025-02-26 15:32:01.658,-215.0,-426.0,-237.0,369.0,173.0,384.0,141,55,53,85,62
2025-02-26 15:32:01.663,-151.0,-347.0,-285.0,394.0,162.0,384.0,143,57,54,83,62
2025-02-26 15:32:01.667,-229.0,-321.0,-316.0,395.0,148.0,380.0,140,59,54,85,63
2025-02-26 15:32:01.670,-253.0,-122.0,-198.0,403.0,145.0,377.0,141,60,55,84,62
2025-02-26 15:32:01.679,40.0,-96.0,-413.0,403.0,146.0,370.0,140,63,56,83,62
2025-02-26 15:32:01.683,105.0,85.0,-288.0,404.0,156.0,362.0,138,60,56,83,63
2025-02-26 15:32:01.687,-54.0,181.0,-284.0,403.0,159.0,363.0,139,63,57,82,63
2025-02-26 15:32:01.691,-59.0,334.0,-209.0,395.0,166.0,373.0,142,62,57,80,63
2025-02-26 15:32:01.699,-86.0,420.0,-302.0,385.0,170.0,371.0,137,65,60,83,63
2025-02-26 15:32:01.703,-33.0,459.0,-389.0,383.0,178.0,366.0,138,72,62,83,64
2025-02-26 15:32:01.708,-124.0,689.0,-667.0,367.0,176.0,344.0,138,66,63,84,64
2025-02-26 15:32:01.711,-399.0,941.0,-384.0,365.0,165.0,318.0,138,70,64,76,66
2025-02-26 15:32:01.719,-501.0,1316.0,-428.0,348.0,163.0,282.0,137,77,66,81,66
2025-02-26 15:32:01.721,-760.0,1498.0,-822.0,320.0,136.0,262.0,138,79,61,85,67
2025-02-26 15:32:01.727,-1018.0,1819.0,-964.0,272.0,88.0,213.0,138,80,68,84,66
2025-02-26 15:32:01.732,-1195.0,1920.0,-1225.0,249.0,33.0,152.0,137,83,71,84,66
2025-02-26 15:32:01.740,-1279.0,2077.0,-1308.0,202.0,5.0,79.0,138,86,72,85,66
2025-02-26 15:32:01.744,-1495.0,2119.0,-1375.0,172.0,-52.0,37.0,139,87,75,86,66
2025-02-26 15:32:01.749,-1387.0,2155.0,-1362.0,163.0,-101.0,-50.0,138,89,76,86,66
2025-02-26 15:32:01.756,-1230.0,2245.0,-1510.0,169.0,-143.0,-149.0,139,91,77,87,66
2025-02-26 15:32:01.760,-1222.0,2291.0,-1491.0,181.0,-185.0,-248.0,136,91,79,86,65
2025-02-26 15:32:01.765,-1338.0,2306.0,-1549.0,194.0,-236.0,-351.0,135,93,81,86,63
2025-02-26 15:32:01.769,-1444.0,2354.0,-1563.0,206.0,-269.0,-444.0,136,95,83,87,62
2025-02-26 15:32:01.777,-1570.0,2311.0,-1670.0,209.0,-339.0,-530.0,136,97,85,87,59
2025-02-26 15:32:01.782,-1555.0,2344.0,-1643.0,224.0,-420.0,-573.0,136,95,85,88,60
2025-02-26 15:32:01.789,-1391.0,2335.0,-1792.0,226.0,-522.0,-652.0,135,99,86,88,57
2025-02-26 15:32:01.793,-1164.0,2392.0,-1902.0,205.0,-647.0,-724.0,135,99,86,88,58
2025-02-26 15:32:01.802,-618.0,2331.0,-1940.0,152.0,-802.0,-784.0,132,96,87,91,59
2025-02-26 15:32:01.806,135.0,2435.0,-1934.0,118.0,-945.0,-826.0,134,91,89,89,61
2025-02-26 15:32:01.810,1442.0,2784.0,-1712.0,34.0,-1059.0,-857.0,136,96,92,92,62
2025-02-26 15:32:01.818,2149.0,2735.0,-1321.0,-80.0,-1100.0,-874.0,135,104,93,93,63
2025-02-26 15:32:01.822,3587.0,1882.0,-737.0,-239.0,-1166.0,-854.0,132,110,94,94,64
2025-02-26 15:32:01.825,4340.0,1272.0,-448.0,-386.0,-1197.0,-831.0,131,113,97,96,66
2025-02-26 15:32:01.830,4939.0,-634.0,-162.0,-475.0,-1167.0,-745.0,132,115,98,97,66
2025-02-26 15:32:01.838,5331.0,-2737.0,445.0,-493.0,-1056.0,-628.0,130,117,98,96,66
2025-02-26 15:32:01.846,4988.0,-3898.0,608.0,-426.0,-886.0,-476.0,130,119,99,98,67
2025-02-26 15:32:01.848,5209.0,-4447.0,715.0,-352.0,-689.0,-320.0,129,119,99,99,68
2025-02-26 15:32:01.855,5550.0,-4973.0,576.0,-308.0,-496.0,-164.0,129,120,100,98,66
2025-02-26 15:32:01.863,5634.0,-5362.0,649.0,-201.0,-294.0,-28.0,129,122,100,96,66
2025-02-26 15:32:01.867,5436.0,-5424.0,728.0,-75.0,-104.0,72.0,130,120,100,95,64
2025-02-26 15:32:01.872,5163.0,-4858.0,984.0,44.0,-16.0,124.0,130,122,102,95,62
2025-02-26 15:32:01.879,4458.0,-4366.0,1160.0,122.0,143.0,135.0,129,122,102,93,59
2025-02-26 15:32:01.883,3410.0,-3561.0,1169.0,183.0,253.0,136.0,130,125,101,92,56
2025-02-26 15:32:01.887,2266.0,-2949.0,1098.0,210.0,313.0,134.0,129,112,99,91,53
2025-02-26 15:32:01.895,1438.0,-2319.0,749.0,211.0,322.0,131.0,129,106,100,90,49
2025-02-26 15:32:01.897,891.0,-2187.0,457.0,244.0,306.0,138.0,129,112,102,84,50
2025-02-26 15:32:01.904,943.0,-1218.0,275.0,115.0,258.0,135.0,131,109,101,89,48
2025-02-26 15:32:01.908,313.0,-1397.0,280.0,84.0,198.0,138.0,130,106,101,93,48
2025-02-26 15:32:01.916,347.0,-1225.0,301.0,-30.0,138.0,164.0,128,111,102,94,48
2025-02-26 15:32:01.920,164.0,-1071.0,219.0,-91.0,91.0,198.0,130,115,102,94,50
2025-02-26 15:32:01.925,152.0,-1257.0,387.0,-158.0,74.0,215.0,130,113,101,92,52
2025-02-26 15:32:01.932,210.0,-1299.0,338.0,-203.0,46.0,227.0,129,120,104,94,53
2025-02-26 15:32:01.936,154.0,-1333.0,291.0,-212.0,24.0,234.0,131,123,102,94,54
2025-02-26 15:32:01.939,220.0,-1556.0,553.0,-183.0,18.0,232.0,131,122,102,92,54
2025-02-26 15:32:01.945,272.0,-1661.0,521.0,-167.0,28.0,235.0,130,121,100,93,57
2025-02-26 15:32:01.953,351.0,-1666.0,548.0,-116.0,37.0,227.0,131,122,102,93,58
2025-02-26 15:32:01.957,410.0,-1660.0,576.0,-56.0,61.0,222.0,128,122,102,96,60
2025-02-26 15:32:01.962,625.0,-1639.0,606.0,-3.0,98.0,213.0,130,123,97,96,61
2025-02-26 15:32:01.970,530.0,-1782.0,720.0,28.0,138.0,212.0,130,121,102,96,61
2025-02-26 15:32:01.974,498.0,-1459.0,483.0,69.0,153.0,215.0,128,123,102,97,63
2025-02-26 15:32:01.978,554.0,-1439.0,616.0,95.0,185.0,220.0,130,123,103,98,63
2025-02-26 15:32:01.982,488.0,-1270.0,413.0,115.0,206.0,228.0,134,123,102,95,64
2025-02-26 15:32:01.990,354.0,-1154.0,407.0,126.0,216.0,240.0,131,123,102,92,65
2025-02-26 15:32:01.997,287.0,-973.0,354.0,122.0,217.0,248.0,130,124,101,87,64
2025-02-26 15:32:01.999,269.0,-917.0,414.0,113.0,217.0,260.0,130,124,104,81,65
2025-02-26 15:32:02.006,242.0,-848.0,188.0,90.0,205.0,265.0,130,123,102,98,65
2025-02-26 15:32:02.010,210.0,-740.0,280.0,71.0,197.0,276.0,131,123,103,96,65
2025-02-26 15:32:02.015,145.0,-562.0,296.0,60.0,193.0,286.0,132,125,104,97,66
2025-02-26 15:32:02.019,121.0,-520.0,254.0,29.0,190.0,290.0,131,122,101,96,65
2025-02-26 15:32:02.026,118.0,-496.0,271.0,5.0,181.0,294.0,132,124,103,99,66
2025-02-26 15:32:02.031,-22.0,-349.0,247.0,-26.0,177.0,301.0,132,123,102,98,66
2025-02-26 15:32:02.035,67.0,-314.0,288.0,-42.0,169.0,303.0,131,123,102,97,65
2025-02-26 15:32:02.040,37.0,-275.0,329.0,-51.0,168.0,301.0,132,123,102,96,65
2025-02-26 15:32:02.047,112.0,-187.0,273.0,-55.0,167.0,300.0,133,123,103,95,63
2025-02-26 15:32:02.052,-53.0,-340.0,366.0,-34.0,171.0,294.0,133,124,104,95,64
2025-02-26 15:32:02.056,-126.0,-295.0,144.0,-39.0,179.0,299.0,133,122,103,93,63
2025-02-26 15:32:02.060,-190.0,-524.0,276.0,-11.0,183.0,288.0,132,122,102,93,62
2025-02-26 15:32:02.068,-16.0,-387.0,329.0,-15.0,189.0,286.0,133,123,103,92,58
2025-02-26 15:32:02.072,-79.0,-332.0,352.0,-18.0,198.0,295.0,136,122,104,92,63
2025-02-26 15:32:02.076,-194.0,-311.0,285.0,-17.0,202.0,298.0,134,122,102,90,61
2025-02-26 15:32:02.084,-189.0,-394.0,157.0,-7.0,206.0,299.0,135,120,101,89,62
2025-02-26 15:32:02.088,-143.0,-217.0,259.0,1.0,210.0,296.0,133,122,105,92,63
2025-02-26 15:32:02.093,-187.0,-200.0,-15.0,27.0,205.0,295.0,134,130,102,93,69
2025-02-26 15:32:02.097,-322.0,-307.0,100.0,55.0,199.0,290.0,133,121,102,92,63
2025-02-26 15:32:02.105,-297.0,-311.0,29.0,72.0,197.0,279.0,133,120,103,87,64
2025-02-26 15:32:02.109,-299.0,-375.0,59.0,109.0,194.0,272.0,135,121,104,92,64
2025-02-26 15:32:02.113,-216.0,-216.0,-48.0,130.0,195.0,266.0,137,121,103,98,64
2025-02-26 15:32:02.121,-299.0,-249.0,-85.0,156.0,194.0,254.0,134,121,103,92,64
2025-02-26 15:32:02.125,-329.0,-162.0,-85.0,169.0,194.0,240.0,133,120,104,93,64
2025-02-26 15:32:02.130,-388.0,-125.0,-40.0,194.0,193.0,228.0,135,121,104,91,63
2025-02-26 15:32:02.134,-405.0,-103.0,-149.0,215.0,186.0,222.0,135,120,103,91,64
2025-02-26 15:32:02.139,-485.0,-20.0,-189.0,229.0,177.0,214.0,135,102,103,92,63
2025-02-26 15:32:02.146,-532.0,90.0,-221.0,234.0,164.0,207.0,135,97,104,93,63
2025-02-26 15:32:02.151,-586.0,140.0,-206.0,233.0,152.0,202.0,134,105,104,93,62
2025-02-26 15:32:02.158,-574.0,339.0,-200.0,227.0,146.0,194.0,134,102,103,91,62
2025-02-26 15:32:02.162,-625.0,480.0,-209.0,209.0,134.0,189.0,134,105,104,93,62
2025-02-26 15:32:02.166,-732.0,742.0,-233.0,166.0,110.0,172.0,134,108,105,93,62
2025-02-26 15:32:02.171,-777.0,895.0,-300.0,135.0,92.0,157.0,133,104,103,91,61
2025-02-26 15:32:02.178,-855.0,1092.0,-382.0,117.0,66.0,136.0,137,105,104,91,62
2025-02-26 15:32:02.183,-890.0,1273.0,-643.0,89.0,52.0,107.0,134,99,104,90,62
2025-02-26 15:32:02.187,-968.0,1342.0,-940.0,69.0,15.0,89.0,134,122,104,90,61
2025-02-26 15:32:02.195,-1155.0,1501.0,-1049.0,74.0,-30.0,44.0,133,121,105,92,62
2025-02-26 15:32:02.199,-1305.0,1518.0,-1110.0,86.0,-74.0,-8.0,135,117,105,92,62
2025-02-26 15:32:02.203,-1346.0,1730.0,-1249.0,112.0,-94.0,-71.0,134,120,106,89,61
2025-02-26 15:32:02.211,-1394.0,2071.0,-1305.0,140.0,-137.0,-146.0,133,122,105,88,60
2025-02-26 15:32:02.216,-1425.0,2521.0,-1382.0,142.0,-186.0,-236.0,134,122,106,90,60
2025-02-26 15:32:02.220,-1403.0,3012.0,-1540.0,106.0,-247.0,-288.0,131,121,106,89,59
2025-02-26 15:32:02.228,-1422.0,3088.0,-1392.0,57.0,-316.0,-403.0,132,122,106,90,58
2025-02-26 15:32:02.232,-1537.0,3360.0,-1535.0,-9.0,-405.0,-535.0,133,124,107,90,59
2025-02-26 15:32:02.240,-1449.0,3453.0,-1699.0,-78.0,-513.0,-673.0,130,109,108,91,59
2025-02-26 15:32:02.244,-1268.0,3611.0,-1794.0,-157.0,-646.0,-806.0,128,123,107,88,59
2025-02-26 15:32:02.248,-702.0,3827.0,-1999.0,-258.0,-799.0,-921.0,128,115,105,93,60
2025-02-26 15:32:02.256,466.0,4002.0,-2102.0,-391.0,-941.0,-1001.0,128,123,108,93,61
2025-02-26 15:32:02.260,1793.0,3835.0,-1898.0,-567.0,-1049.0,-1046.0,126,122,109,95,62
2025-02-26 15:32:02.268,3386.0,3130.0,-1849.0,-736.0,-1091.0,-1065.0,127,125,108,94,64
2025-02-26 15:32:02.273,4608.0,1548.0,-1697.0,-836.0,-1070.0,-1059.0,125,124,110,95,67
2025-02-26 15:32:02.280,5422.0,-108.0,-1711.0,-832.0,-999.0,-996.0,126,125,112,94,65
2025-02-26 15:32:02.285,5904.0,-2598.0,-1559.0,-730.0,-848.0,-867.0,122,122,110,93,70
2025-02-26 15:32:02.290,5796.0,-5324.0,-1401.0,-498.0,-639.0,-673.0,118,123,111,94,67
2025-02-26 15:32:02.297,6095.0,-7110.0,-1289.0,-359.0,-388.0,-436.0,116,126,110,93,68
2025-02-26 15:32:02.301,6846.0,-7799.0,-1359.0,-71.0,-129.0,-215.0,113,125,110,96,70
2025-02-26 15:32:02.309,6570.0,-7021.0,-1137.0,169.0,92.0,-30.0,113,126,110,94,65
2025-02-26 15:32:02.311,5802.0,-5550.0,-832.0,311.0,189.0,73.0,119,127,110,98,62
2025-02-26 15:32:02.318,5220.0,-3974.0,-399.0,339.0,316.0,121.0,115,126,111,96,57
2025-02-26 15:32:02.326,3919.0,-3571.0,-62.0,305.0,384.0,124.0,116,127,117,95,53
2025-02-26 15:32:02.328,2309.0,-2797.0,-11.0,481.0,354.0,72.0,114,124,110,93,52
2025-02-26 15:32:02.335,1438.0,-2445.0,-1202.0,189.0,244.0,117.0,116,126,112,94,49
2025-02-26 15:32:02.342,-337.0,-1521.0,-1249.0,155.0,105.0,117.0,114,124,110,95,49
2025-02-26 15:32:02.346,745.0,-1131.0,-543.0,88.0,-21.0,106.0,114,124,110,90,49
2025-02-26 15:32:02.351,-68.0,-1314.0,-787.0,-29.0,-98.0,157.0,114,124,110,97,50
2025-02-26 15:32:02.358,-22.0,-1422.0,142.0,-141.0,-162.0,173.0,114,122,111,98,52
2025-02-26 15:32:02.362,525.0,-1976.0,360.0,-185.0,-190.0,186.0,115,122,110,95,53
2025-02-26 15:32:02.367,481.0,-1861.0,386.0,-204.0,-183.0,202.0,115,124,108,95,54
2025-02-26 15:32:02.375,839.0,-1846.0,627.0,-156.0,-142.0,213.0,118,124,110,92,57
2025-02-26 15:32:02.379,835.0,-2223.0,777.0,-129.0,-86.0,217.0,115,123,110,94,59
2025-02-26 15:32:02.383,752.0,-2175.0,1036.0,-88.0,-53.0,223.0,117,124,109,96,59
2025-02-26 15:32:02.387,874.0,-2098.0,1168.0,-29.0,18.0,224.0,116,125,108,94,61
2025-02-26 15:32:02.396,782.0,-2141.0,1128.0,21.0,82.0,236.0,117,124,109,95,62
2025-02-26 15:32:02.400,830.0,-1843.0,1132.0,53.0,143.0,240.0,118,124,107,95,63
2025-02-26 15:32:02.404,786.0,-1775.0,996.0,72.0,187.0,247.0,118,124,108,97,63
2025-02-26 15:32:02.412,634.0,-1660.0,888.0,101.0,208.0,258.0,121,124,108,96,65
2025-02-26 15:32:02.416,517.0,-1608.0,803.0,107.0,231.0,264.0,118,123,105,96,68
2025-02-26 15:32:02.420,416.0,-1310.0,557.0,109.0,237.0,275.0,121,125,106,97,71
2025-02-26 15:32:02.428,277.0,-1223.0,431.0,115.0,229.0,285.0,121,123,103,96,74
2025-02-26 15:32:02.433,218.0,-1071.0,403.0,110.0,220.0,292.0,124,123,103,95,77
2025-02-26 15:32:02.437,160.0,-926.0,388.0,94.0,216.0,305.0,125,124,101,96,79
2025-02-26 15:32:02.440,54.0,-822.0,356.0,79.0,202.0,309.0,126,122,101,95,80
2025-02-26 15:32:02.449,31.0,-598.0,360.0,58.0,194.0,319.0,127,122,101,98,81
2025-02-26 15:32:02.452,-8.0,-601.0,427.0,45.0,199.0,328.0,128,122,100,98,81
2025-02-26 15:32:02.457,92.0,-473.0,455.0,26.0,199.0,330.0,130,121,98,96,80
2025-02-26 15:32:02.461,-64.0,-470.0,407.0,2.0,203.0,335.0,129,121,97,98,80
2025-02-26 15:32:02.466,9.0,-302.0,433.0,-19.0,217.0,344.0,128,121,97,97,77
2025-02-26 15:32:02.473,-7.0,-201.0,597.0,-19.0,228.0,345.0,128,118,97,98,78
2025-02-26 15:32:02.478,170.0,-234.0,456.0,-40.0,241.0,347.0,131,118,95,96,77
2025-02-26 15:32:02.482,33.0,-244.0,433.0,-45.0,240.0,355.0,131,114,94,96,77
2025-02-26 15:32:02.486,-130.0,-255.0,402.0,-60.0,240.0,362.0,131,113,94,96,77
2025-02-26 15:32:02.494,-128.0,-270.0,348.0,-120.0,235.0,362.0,132,114,91,96,79
2025-02-26 15:32:02.497,-201.0,-133.0,189.0,-67.0,259.0,368.0,131,112,88,96,78
2025-02-26 15:32:02.502,-119.0,-74.0,255.0,-98.0,235.0,338.0,131,108,86,91,76
2025-02-26 15:32:02.509,58.0,138.0,126.0,-102.0,238.0,321.0,132,106,83,93,75
2025-02-26 15:32:02.514,8.0,-281.0,116.0,-96.0,235.0,323.0,131,103,82,93,75
2025-02-26 15:32:02.518,-248.0,-171.0,197.0,-87.0,227.0,319.0,131,99,79,93,73
2025-02-26 15:32:02.523,-367.0,-308.0,139.0,-87.0,223.0,316.0,130,95,78,92,72
2025-02-26 15:32:02.527,-355.0,-229.0,139.0,-88.0,223.0,309.0,133,91,74,93,72
2025-02-26 15:32:02.535,-205.0,-171.0,-125.0,-76.0,210.0,306.0,131,85,74,91,73
2025-02-26 15:32:02.539,-334.0,-344.0,-110.0,-37.0,200.0,299.0,134,85,70,93,73
2025-02-26 15:32:02.543,-357.0,-333.0,-165.0,-27.0,197.0,286.0,133,81,68,95,75
2025-02-26 15:32:02.551,-244.0,-149.0,-185.0,-1.0,194.0,260.0,133,73,66,93,73
2025-02-26 15:32:02.553,-269.0,-105.0,-351.0,27.0,177.0,247.0,135,74,65,96,72
2025-02-26 15:32:02.560,-603.0,-225.0,-392.0,76.0,151.0,226.0,133,69,61,91,71
2025-02-26 15:32:02.564,-644.0,-221.0,-3.0,89.0,156.0,204.0,133,66,59,91,69
2025-02-26 15:32:02.571,-474.0,55.0,-281.0,107.0,142.0,186.0,134,61,56,92,70
2025-02-26 15:32:02.576,-611.0,165.0,-197.0,130.0,127.0,180.0,137,58,54,91,68
2025-02-26 15:32:02.579,-729.0,145.0,-131.0,144.0,113.0,165.0,136,50,52,89,68
2025-02-26 15:32:02.584,-618.0,356.0,-125.0,155.0,92.0,148.0,133,52,52,89,68
2025-02-26 15:32:02.591,-622.0,487.0,-120.0,168.0,84.0,140.0,134,46,52,91,68
2025-02-26 15:32:02.593,-747.0,554.0,-88.0,183.0,78.0,121.0,135,50,50,89,67
2025-02-26 15:32:02.600,-732.0,657.0,51.0,194.0,79.0,101.0,136,49,49,88,66
2025-02-26 15:32:02.604,-729.0,723.0,4.0,208.0,76.0,87.0,134,47,47,88,64
2025-02-26 15:32:02.606,-896.0,797.0,-48.0,225.0,80.0,79.0,135,48,49,90,65
2025-02-26 15:32:02.613,-957.0,989.0,-60.0,239.0,65.0,59.0,135,48,48,89,63
2025-02-26 15:32:02.621,-1040.0,1280.0,-320.0,252.0,51.0,22.0,135,46,47,90,64
2025-02-26 15:32:02.625,-970.0,1691.0,-491.0,247.0,7.0,-1.0,135,49,47,90,67
2025-02-26 15:32:02.629,-1004.0,2228.0,-677.0,229.0,-38.0,-81.0,135,49,48,91,66
2025-02-26 15:32:02.636,-919.0,2297.0,-624.0,224.0,-51.0,-165.0,134,48,48,90,65
2025-02-26 15:32:02.641,-1077.0,2456.0,-690.0,227.0,-88.0,-207.0,134,47,46,89,62
2025-02-26 15:32:02.646,-995.0,2659.0,-1067.0,213.0,-153.0,-281.0,135,48,46,89,61
2025-02-26 15:32:02.654,-796.0,2939.0,-1220.0,179.0,-226.0,-368.0,134,47,47,90,59
2025-02-26 15:32:02.657,-685.0,2686.0,-1507.0,154.0,-262.0,-448.0,133,46,46,85,59
2025-02-26 15:32:02.662,-202.0,2645.0,-1311.0,120.0,-282.0,-531.0,133,45,45,86,58
2025-02-26 15:32:02.666,-70.0,2612.0,-1268.0,78.0,-292.0,-617.0,133,43,42,82,55
2025-02-26 15:32:02.674,-115.0,2480.0,-1062.0,22.0,-336.0,-658.0,135,44,43,82,55
2025-02-26 15:32:02.679,16.0,2434.0,-963.0,-61.0,-381.0,-736.0,133,45,42,81,56
2025-02-26 15:32:02.682,84.0,2297.0,-1001.0,-134.0,-471.0,-801.0,135,43,40,74,55
2025-02-26 15:32:02.690,323.0,2231.0,-1220.0,-170.0,-594.0,-847.0,134,45,40,79,56
2025-02-26 15:32:02.693,1145.0,1930.0,-1507.0,-243.0,-705.0,-871.0,134,41,41,79,56
2025-02-26 15:32:02.697,1694.0,1284.0,-1724.0,-302.0,-756.0,-865.0,137,44,42,79,57
2025-02-26 15:32:02.707,2800.0,340.0,-1767.0,-373.0,-830.0,-831.0,136,44,42,80,59
2025-02-26 15:32:02.711,3816.0,-150.0,-1452.0,-438.0,-862.0,-804.0,137,44,42,83,62
2025-02-26 15:32:02.716,4737.0,-1369.0,-780.0,-467.0,-826.0,-711.0,138,44,41,82,61
2025-02-26 15:32:02.723,4976.0,-2711.0,-582.0,-466.0,-738.0,-569.0,139,44,42,81,61
2025-02-26 15:32:02.727,5208.0,-4375.0,234.0,-423.0,-576.0,-384.0,139,44,42,80,62
2025-02-26 15:32:02.736,5645.0,-5886.0,1278.0,-394.0,-335.0,-251.0,141,45,42,81,63
2025-02-26 15:32:02.739,5584.0,-6750.0,1882.0,-297.0,-62.0,-170.0,140,44,42,80,64
2025-02-26 15:32:02.741,5402.0,-7012.0,1687.0,-114.0,48.0,-103.0,140,44,42,77,61
2025-02-26 15:32:02.748,4336.0,-6983.0,570.0,85.0,231.0,-71.0,141,44,42,76,59
2025-02-26 15:32:02.756,3132.0,-6457.0,-792.0,180.0,432.0,5.0,142,45,42,75,54
2025-02-26 15:32:02.760,1780.0,-5072.0,-1172.0,410.0,92.0,31.0,139,44,42,75,56
2025-02-26 15:32:02.765,1604.0,-3747.0,-1178.0,430.0,273.0,64.0,143,39,41,74,54
2025-02-26 15:32:02.772,1210.0,-2003.0,-1751.0,364.0,231.0,70.0,141,41,42,72,54
2025-02-26 15:32:02.777,180.0,-1844.0,-1194.0,183.0,145.0,96.0,141,45,43,74,55
2025-02-26 15:32:02.778,234.0,-1867.0,-1082.0,45.0,94.0,128.0,140,45,42,75,57
2025-02-26 15:32:02.784,186.0,-1149.0,-854.0,-31.0,-38.0,129.0,139,45,42,77,60
2025-02-26 15:32:02.793,114.0,-1429.0,-704.0,-121.0,-69.0,132.0,141,46,44,77,60
2025-02-26 15:32:02.796,358.0,-1564.0,-278.0,-165.0,-65.0,117.0,141,46,44,79,63
2025-02-26 15:32:02.801,609.0,-2210.0,-242.0,-169.0,-93.0,118.0,141,46,43,75,62
2025-02-26 15:32:02.808,766.0,-2404.0,1.0,-166.0,-60.0,127.0,141,47,46,80,63
2025-02-26 15:32:02.813,824.0,-2809.0,363.0,-132.0,-28.0,149.0,141,46,45,80,64
2025-02-26 15:32:02.817,945.0,-2910.0,416.0,-95.0,-16.0,164.0,142,47,46,81,63
2025-02-26 15:32:02.821,998.0,-2737.0,448.0,-66.0,27.0,197.0,141,46,44,82,62
2025-02-26 15:32:02.830,670.0,-2808.0,423.0,-58.0,70.0,228.0,142,46,46,82,63
2025-02-26 15:32:02.834,650.0,-2650.0,406.0,-18.0,73.0,271.0,141,45,45,81,62
2025-02-26 15:32:02.838,508.0,-2771.0,209.0,7.0,59.0,285.0,141,47,45,81,63
2025-02-26 15:32:02.842,657.0,-1916.0,254.0,7.0,63.0,313.0,141,46,46,81,62
2025-02-26 15:32:02.846,541.0,-2053.0,147.0,3.0,64.0,336.0,142,46,44,81,63
2025-02-26 15:32:02.854,525.0,-1759.0,285.0,31.0,60.0,334.0,142,47,45,83,62
2025-02-26 15:32:02.858,579.0,-1241.0,377.0,50.0,53.0,317.0,142,48,47,82,65
2025-02-26 15:32:02.862,533.0,-1041.0,269.0,63.0,73.0,290.0,141,46,45,81,59
2025-02-26 15:32:02.867,549.0,-955.0,449.0,69.0,80.0,278.0,141,47,44,82,62
2025-02-26 15:32:02.868,382.0,-928.0,383.0,38.0,88.0,261.0,142,47,44,83,61
2025-02-26 15:32:02.878,340.0,-748.0,235.0,40.0,102.0,254.0,142,48,46,83,61
2025-02-26 15:32:02.883,259.0,-694.0,340.0,-6.0,129.0,254.0,142,47,45,81,61
2025-02-26 15:32:02.887,67.0,-542.0,195.0,-38.0,138.0,251.0,141,49,45,81,58
2025-02-26 15:32:02.891,83.0,-559.0,237.0,-49.0,145.0,251.0,143,47,45,81,57
2025-02-26 15:32:02.896,-33.0,-526.0,221.0,-88.0,159.0,252.0,143,47,46,79,60
2025-02-26 15:32:02.904,-43.0,-475.0,105.0,-65.0,131.0,264.0,143,47,44,78,60
2025-02-26 15:32:02.907,-107.0,-649.0,195.0,-70.0,85.0,276.0,144,46,46,77,59
2025-02-26 15:32:02.911,-59.0,-497.0,121.0,-82.0,81.0,280.0,142,47,45,78,60
2025-02-26 15:32:02.916,-137.0,-619.0,-61.0,-53.0,90.0,286.0,142,46,45,78,60
2025-02-26 15:32:02.924,-175.0,-704.0,61.0,-61.0,71.0,300.0,143,47,46,78,59
2025-02-26 15:32:02.928,-193.0,-736.0,104.0,-41.0,56.0,308.0,143,48,45,78,61
2025-02-26 15:32:02.932,-175.0,-646.0,237.0,-18.0,49.0,300.0,142,48,45,80,62
2025-02-26 15:32:02.933,226.0,-383.0,302.0,0.0,84.0,267.0,143,47,45,79,61
2025-02-26 15:32:02.942,200.0,-387.0,292.0,41.0,103.0,240.0,143,45,46,78,60
2025-02-26 15:32:02.948,216.0,-423.0,343.0,119.0,142.0,230.0,143,47,45,79,60
2025-02-26 15:32:02.953,291.0,-446.0,444.0,117.0,158.0,229.0,142,47,45,79,60
2025-02-26 15:32:02.957,188.0,-274.0,183.0,137.0,170.0,236.0,143,44,44,79,59
2025-02-26 15:32:02.960,-3.0,-105.0,173.0,146.0,174.0,243.0,143,44,44,78,59
2025-02-26 15:32:02.968,-131.0,-216.0,197.0,129.0,160.0,253.0,141,44,44,79,59
2025-02-26 15:32:02.973,-122.0,-131.0,128.0,117.0,149.0,262.0,143,44,45,78,59
2025-02-26 15:32:02.976,-194.0,-198.0,87.0,116.0,149.0,260.0,143,44,45,79,59
2025-02-26 15:32:02.982,-150.0,-110.0,104.0,100.0,157.0,259.0,141,44,46,81,60
2025-02-26 15:32:02.989,-144.0,-80.0,137.0,78.0,160.0,259.0,142,44,45,78,60
2025-02-26 15:32:02.993,-239.0,-183.0,-1.0,74.0,160.0,260.0,142,44,46,80,61
2025-02-26 15:32:02.997,-198.0,-221.0,-60.0,61.0,157.0,261.0,140,43,45,80,59
2025-02-26 15:32:03.001,-362.0,-180.0,-77.0,58.0,135.0,267.0,143,44,45,79,60
2025-02-26 15:32:03.010,-396.0,-155.0,-111.0,61.0,118.0,270.0,142,45,47,80,60
2025-02-26 15:32:03.013,-378.0,-209.0,-7.0,79.0,114.0,269.0,143,42,45,79,59
2025-02-26 15:32:03.018,-384.0,-180.0,33.0,111.0,100.0,266.0,144,45,45,79,60
2025-02-26 15:32:03.022,-243.0,-163.0,47.0,135.0,100.0,259.0,142,44,45,78,59
2025-02-26 15:32:03.027,-187.0,82.0,78.0,170.0,110.0,248.0,141,42,47,79,60
2025-02-26 15:32:03.034,-222.0,192.0,104.0,196.0,119.0,242.0,142,43,46,80,60
2025-02-26 15:32:03.038,-295.0,487.0,106.0,203.0,123.0,227.0,141,43,46,80,61
2025-02-26 15:32:03.042,-445.0,861.0,68.0,205.0,124.0,209.0,141,44,45,79,58
2025-02-26 15:32:03.047,-499.0,1011.0,9.0,206.0,115.0,201.0,140,43,45,79,60
2025-02-26 15:32:03.055,-608.0,1311.0,-35.0,226.0,100.0,170.0,141,44,48,78,60
2025-02-26 15:32:03.059,-693.0,1628.0,-88.0,242.0,86.0,124.0,141,44,49,79,59
2025-02-26 15:32:03.063,-622.0,2114.0,-234.0,232.0,86.0,64.0,140,45,46,78,60
2025-02-26 15:32:03.068,-824.0,2382.0,-361.0,243.0,79.0,26.0,137,43,46,81,61
2025-02-26 15:32:03.075,-949.0,2852.0,-425.0,249.0,63.0,-60.0,139,45,49,79,60
2025-02-26 15:32:03.079,-1025.0,3321.0,-611.0,239.0,51.0,-161.0,139,46,46,78,60
2025-02-26 15:32:03.084,-1130.0,3637.0,-912.0,206.0,28.0,-218.0,133,45,46,78,58
2025-02-26 15:32:03.088,-1307.0,3836.0,-1246.0,180.0,-15.0,-340.0,137,48,46,78,59
2025-02-26 15:32:03.096,-1522.0,3812.0,-1412.0,129.0,-87.0,-460.0,138,48,46,75,59
2025-02-26 15:32:03.100,-1511.0,3784.0,-1629.0,71.0,-156.0,-584.0,138,47,45,77,57
2025-02-26 15:32:03.105,-1439.0,3470.0,-1942.0,56.0,-235.0,-706.0,138,48,45,78,57
2025-02-26 15:32:03.111,-1257.0,3502.0,-2261.0,-29.0,-282.0,-818.0,139,49,46,76,57
2025-02-26 15:32:03.117,-934.0,3419.0,-2356.0,-91.0,-407.0,-909.0,137,48,46,72,57
2025-02-26 15:32:03.124,-382.0,3623.0,-2343.0,-180.0,-545.0,-951.0,137,48,45,78,58
2025-02-26 15:32:03.129,517.0,3500.0,-2372.0,-305.0,-681.0,-1018.0,139,49,48,79,59
2025-02-26 15:32:03.133,1735.0,3110.0,-2459.0,-427.0,-806.0,-1072.0,139,48,46,80,60
2025-02-26 15:32:03.141,3162.0,2470.0,-2767.0,-555.0,-922.0,-1074.0,138,47,48,79,61
2025-02-26 15:32:03.145,4814.0,1777.0,-3108.0,-641.0,-1020.0,-991.0,137,49,49,77,62
2025-02-26 15:32:03.149,6044.0,-486.0,-3059.0,-688.0,-1057.0,-845.0,139,49,48,81,63
2025-02-26 15:32:03.157,6925.0,-2746.0,-2241.0,-756.0,-933.0,-683.0,140,50,48,80,64
2025-02-26 15:32:03.159,7638.0,-5522.0,-627.0,-800.0,-659.0,-509.0,137,50,48,82,64
2025-02-26 15:32:03.170,7757.0,-8787.0,1159.0,-760.0,-470.0,-348.0,138,50,45,80,65
2025-02-26 15:32:03.174,7658.0,-11503.0,1823.0,-452.0,-76.0,-157.0,138,49,44,82,65
2025-02-26 15:32:03.178,7160.0,-11576.0,890.0,7.0,180.0,-71.0,136,49,43,82,65
2025-02-26 15:32:03.182,5852.0,-9860.0,-123.0,361.0,370.0,42.0,179,96,93,127,114
2025-02-26 15:32:03.190,3387.0,-7290.0,-1680.0,399.0,452.0,111.0,139,49,46,78,61
2025-02-26 15:32:03.195,1717.0,-5118.0,-2834.0,819.0,473.0,109.0,134,40,45,75,62
2025-02-26 15:32:03.199,1163.0,-3890.0,-995.0,637.0,463.0,147.0,136,44,43,74,59
2025-02-26 15:32:03.207,652.0,-1377.0,-2394.0,452.0,243.0,132.0,134,48,43,73,58
2025-02-26 15:32:03.211,-666.0,264.0,-2207.0,127.0,179.0,176.0,138,47,44,72,61
2025-02-26 15:32:03.215,-68.0,-633.0,-2051.0,-81.0,92.0,175.0,138,46,44,73,62
2025-02-26 15:32:03.220,-460.0,180.0,-1564.0,-158.0,-20.0,168.0,137,48,44,78,63
2025-02-26 15:32:03.226,-161.0,-396.0,-978.0,-184.0,-212.0,112.0,138,50,44,76,65
2025-02-26 15:32:03.231,409.0,-885.0,-312.0,-212.0,-183.0,89.0,139,51,47,83,68
2025-02-26 15:32:03.236,599.0,-1901.0,-264.0,-210.0,-131.0,52.0,138,48,47,81,66
2025-02-26 15:32:03.244,611.0,-2412.0,-44.0,-186.0,-97.0,71.0,138,50,47,83,66
2025-02-26 15:32:03.247,434.0,-2753.0,19.0,-91.0,-123.0,88.0,138,51,48,85,66
2025-02-26 15:32:03.248,753.0,-2618.0,600.0,-111.0,16.0,116.0,138,50,47,82,66
2025-02-26 15:32:03.255,517.0,-2552.0,394.0,36.0,-20.0,120.0,137,50,46,83,66
2025-02-26 15:32:03.261,551.0,-2522.0,508.0,71.0,50.0,138.0,137,49,45,82,68
2025-02-26 15:32:03.267,631.0,-1767.0,485.0,90.0,83.0,144.0,137,48,45,83,66
2025-02-26 15:32:03.272,370.0,-1683.0,448.0,136.0,70.0,156.0,138,49,44,79,70
2025-02-26 15:32:03.276,244.0,-1608.0,297.0,151.0,46.0,178.0,137,49,46,82,66
2025-02-26 15:32:03.284,237.0,-1616.0,231.0,142.0,68.0,193.0,138,50,45,81,67
2025-02-26 15:32:03.288,520.0,-1125.0,295.0,127.0,84.0,204.0,138,50,44,81,68
2025-02-26 15:32:03.293,383.0,-1180.0,350.0,70.0,103.0,222.0,139,49,46,81,68
2025-02-26 15:32:03.297,160.0,-1304.0,185.0,59.0,108.0,233.0,138,51,46,81,68
