timestamp,ax,ay,az,gx,gy,gz,flex1,flex2,flex3,flex4,flex5,emg1,emg2,emg3
2025-02-18 16:29:53.546,-281.0,34.0,978.0,-2.0,-3.0,-1.0,137,115,112,136,134,471,479,441
2025-02-18 16:29:53.549,-286.0,23.0,958.0,0.0,-2.0,-1.0,137,115,112,136,134,473,479,456
2025-02-18 16:29:53.551,-279.0,39.0,980.0,0.0,-2.0,-1.0,137,115,111,136,133,475,478,470
2025-02-18 16:29:53.553,-273.0,35.0,988.0,0.0,-2.0,-2.0,138,115,112,136,134,476,477,477
2025-02-18 16:29:53.556,-274.0,31.0,983.0,0.0,-2.0,-2.0,137,115,111,136,134,472,475,475
2025-02-18 16:29:53.559,-278.0,20.0,963.0,0.0,-2.0,-2.0,138,115,112,137,134,476,474,478
2025-02-18 16:29:53.561,-277.0,19.0,975.0,0.0,-3.0,-1.0,136,115,112,136,133,477,473,484
2025-02-18 16:29:53.564,-278.0,22.0,982.0,1.0,-3.0,-1.0,137,115,112,137,134,475,471,487
2025-02-18 16:29:53.567,-280.0,30.0,988.0,2.0,-4.0,-1.0,137,116,112,137,134,473,470,476
2025-02-18 16:29:53.569,-284.0,26.0,1002.0,1.0,-4.0,0.0,136,115,111,136,134,472,469,476
2025-02-18 16:29:53.571,-299.0,17.0,1011.0,1.0,-3.0,0.0,138,116,112,136,134,471,470,479
2025-02-18 16:29:53.578,-273.0,31.0,1021.0,1.0,-2.0,0.0,137,114,111,136,133,469,470,500
2025-02-18 16:29:53.598,-276.0,37.0,1009.0,1.0,-2.0,0.0,137,116,112,137,134,472,472,496
2025-02-18 16:29:53.615,-279.0,30.0,1007.0,0.0,-1.0,0.0,136,114,111,135,133,471,473,490
2025-02-18 16:29:53.635,-282.0,27.0,1007.0,0.0,-1.0,0.0,137,115,112,134,134,472,474,488
2025-02-18 16:29:53.655,-281.0,27.0,999.0,-1.0,-2.0,-1.0,138,116,112,136,134,472,476,487
2025-02-18 16:29:53.672,-279.0,32.0,992.0,0.0,-1.0,0.0,137,114,111,136,133,467,476,486
2025-02-18 16:29:53.693,-283.0,23.0,1000.0,1.0,-1.0,0.0,138,115,112,137,134,472,477,487
2025-02-18 16:29:53.709,-278.0,44.0,1012.0,3.0,-2.0,0.0,136,115,112,135,133,473,477,485
2025-02-18 16:29:53.729,-276.0,45.0,1019.0,0.0,0.0,0.0,138,116,112,137,134,475,477,485
2025-02-18 16:29:53.749,-279.0,45.0,1004.0,-1.0,0.0,0.0,136,114,111,135,133,476,477,481
2025-02-18 16:29:53.766,-286.0,36.0,997.0,-1.0,0.0,0.0,138,116,112,137,134,480,478,481
2025-02-18 16:29:53.786,-275.0,41.0,988.0,1.0,0.0,0.0,138,115,112,136,134,481,476,476
2025-02-18 16:29:53.807,-272.0,47.0,997.0,1.0,1.0,0.0,137,115,111,136,133,479,474,457
2025-02-18 16:29:53.823,-275.0,41.0,990.0,0.0,1.0,0.0,138,116,112,137,134,487,475,428
2025-02-18 16:29:53.844,-270.0,41.0,992.0,0.0,1.0,0.0,136,115,111,135,133,484,471,432
2025-02-18 16:29:53.864,-271.0,41.0,987.0,1.0,1.0,0.0,138,116,112,137,134,483,471,439
2025-02-18 16:29:53.881,-272.0,51.0,984.0,0.0,1.0,0.0,136,114,111,136,133,489,468,451
2025-02-18 16:29:53.901,-281.0,45.0,986.0,0.0,1.0,-1.0,137,115,112,137,134,493,470,457
2025-02-18 16:29:53.921,-276.0,50.0,989.0,0.0,1.0,-1.0,137,116,112,136,134,488,469,462
2025-02-18 16:29:53.939,-273.0,46.0,981.0,0.0,1.0,-1.0,137,115,111,136,134,475,470,467
2025-02-18 16:29:53.959,-275.0,55.0,975.0,-2.0,1.0,-2.0,137,115,112,137,134,474,471,475
2025-02-18 16:29:53.976,-271.0,42.0,962.0,-2.0,1.0,-2.0,137,115,111,139,133,469,472,483
2025-02-18 16:29:53.996,-266.0,24.0,956.0,-1.0,0.0,-1.0,137,116,112,136,134,469,474,489
2025-02-18 16:29:54.016,-268.0,20.0,965.0,0.0,-1.0,0.0,137,114,111,136,133,465,474,498
2025-02-18 16:29:54.032,-267.0,42.0,982.0,2.0,-2.0,1.0,137,115,111,136,134,464,476,500
2025-02-18 16:29:54.053,-275.0,43.0,1008.0,1.0,-2.0,1.0,138,115,112,137,135,460,478,501
2025-02-18 16:29:54.073,-273.0,54.0,1009.0,0.0,0.0,0.0,136,115,111,135,133,463,478,502
2025-02-18 16:29:54.090,-284.0,52.0,1006.0,-2.0,0.0,0.0,138,116,112,137,134,465,480,502
2025-02-18 16:29:54.110,-286.0,42.0,1000.0,-2.0,0.0,0.0,137,115,111,136,133,469,479,498
2025-02-18 16:29:54.130,-286.0,49.0,996.0,-1.0,0.0,0.0,137,115,112,136,134,468,477,489
2025-02-18 16:29:54.147,-292.0,48.0,999.0,-1.0,1.0,0.0,138,116,112,136,135,472,476,482
2025-02-18 16:29:54.167,-288.0,45.0,994.0,-2.0,1.0,-1.0,137,114,110,136,134,472,475,475
2025-02-18 16:29:54.185,-289.0,39.0,991.0,-2.0,1.0,0.0,138,116,113,137,134,475,476,470
2025-02-18 16:29:54.205,-294.0,41.0,992.0,-1.0,0.0,0.0,137,115,111,136,133,475,472,466
2025-02-18 16:29:54.225,-285.0,41.0,990.0,-2.0,0.0,0.0,137,116,113,136,134,478,472,462
2025-02-18 16:29:54.241,-289.0,32.0,988.0,-2.0,1.0,0.0,137,115,111,136,134,478,470,459
2025-02-18 16:29:54.261,-285.0,35.0,993.0,-2.0,2.0,1.0,137,115,111,137,133,479,469,458
2025-02-18 16:29:54.282,-282.0,42.0,983.0,-3.0,2.0,1.0,138,115,112,137,134,480,469,458
2025-02-18 16:29:54.299,-285.0,40.0,967.0,-4.0,1.0,0.0,137,115,111,136,133,476,469,457
2025-02-18 16:29:54.319,-290.0,32.0,963.0,-3.0,1.0,1.0,138,116,112,137,134,474,471,463
2025-02-18 16:29:54.339,-290.0,30.0,964.0,-2.0,-1.0,1.0,137,114,111,136,134,474,471,470
2025-02-18 16:29:54.357,-284.0,43.0,975.0,-3.0,-2.0,1.0,138,116,112,136,134,471,473,480
2025-02-18 16:29:54.376,-279.0,50.0,985.0,-4.0,-3.0,1.0,137,114,111,136,134,467,474,488
2025-02-18 16:29:54.393,-283.0,41.0,992.0,-5.0,-3.0,1.0,137,115,112,136,134,465,477,493
2025-02-18 16:29:54.414,-269.0,32.0,1000.0,-4.0,-3.0,1.0,138,116,112,136,134,463,479,496
2025-02-18 16:29:54.434,-271.0,38.0,1006.0,-4.0,-2.0,1.0,137,115,111,136,134,461,477,497
2025-02-18 16:29:54.451,-273.0,35.0,1005.0,-3.0,0.0,1.0,138,115,112,137,134,458,478,499
2025-02-18 16:29:54.471,-286.0,36.0,1009.0,-1.0,0.0,1.0,134,115,112,135,133,460,477,495
2025-02-18 16:29:54.491,-283.0,48.0,1014.0,0.0,0.0,2.0,137,116,113,137,134,466,478,498
2025-02-18 16:29:54.508,-278.0,56.0,1006.0,-2.0,1.0,1.0,136,115,111,136,133,461,476,481
2025-02-18 16:29:54.528,-275.0,56.0,985.0,-4.0,2.0,0.0,137,116,112,136,134,463,474,475
2025-02-18 16:29:54.548,-293.0,54.0,961.0,-4.0,2.0,0.0,138,116,112,137,134,464,473,470
2025-02-18 16:29:54.565,-291.0,41.0,948.0,-1.0,1.0,1.0,136,115,112,136,133,462,471,464
2025-02-18 16:29:54.585,-295.0,50.0,937.0,0.0,1.0,1.0,137,115,113,137,134,463,470,464
2025-02-18 16:29:54.602,-299.0,58.0,932.0,0.0,-2.0,1.0,137,115,111,135,133,461,469,457
2025-02-18 16:29:54.623,-301.0,59.0,948.0,0.0,-4.0,-1.0,137,116,112,137,134,463,470,469
2025-02-18 16:29:54.642,-295.0,60.0,968.0,0.0,-5.0,-2.0,136,115,111,135,132,464,469,484
2025-02-18 16:29:54.660,-293.0,45.0,988.0,0.0,-5.0,-3.0,138,115,112,137,134,463,470,507
2025-02-18 16:29:54.680,-290.0,34.0,1012.0,1.0,-5.0,-2.0,138,116,112,137,134,463,471,496
2025-02-18 16:29:54.700,-283.0,38.0,1028.0,1.0,-4.0,-2.0,137,115,111,136,134,467,472,483
2025-02-18 16:29:54.717,-280.0,39.0,1043.0,0.0,-3.0,-3.0,138,116,112,137,134,476,475,476
2025-02-18 16:29:54.737,-277.0,33.0,1039.0,-2.0,-1.0,-2.0,137,115,111,136,133,475,474,465
2025-02-18 16:29:54.757,-280.0,24.0,1040.0,-3.0,0.0,-1.0,137,116,112,136,134,479,476,455
2025-02-18 16:29:54.774,-277.0,24.0,1026.0,-2.0,1.0,0.0,137,114,111,136,133,476,475,448
2025-02-18 16:29:54.795,-286.0,42.0,1011.0,-2.0,2.0,0.0,138,116,112,137,134,484,477,444
2025-02-18 16:29:54.814,-286.0,49.0,992.0,-2.0,3.0,-1.0,137,116,112,137,134,490,478,443
2025-02-18 16:29:54.832,-289.0,45.0,981.0,-2.0,2.0,-1.0,137,115,111,136,134,489,476,437
2025-02-18 16:29:54.851,-288.0,42.0,973.0,0.0,1.0,-1.0,137,116,112,137,134,495,477,436
2025-02-18 16:29:54.869,-289.0,52.0,972.0,0.0,0.0,-1.0,136,115,111,136,133,496,474,436
2025-02-18 16:29:54.889,-280.0,46.0,983.0,0.0,0.0,-2.0,137,116,112,136,134,501,473,435
2025-02-18 16:29:54.908,-284.0,42.0,993.0,0.0,0.0,-2.0,136,115,111,136,133,497,471,430
2025-02-18 16:29:54.926,-276.0,45.0,996.0,-1.0,1.0,-2.0,138,115,112,136,135,495,472,429
2025-02-18 16:29:54.946,-282.0,43.0,976.0,-1.0,1.0,-2.0,137,116,112,137,134,494,471,437
2025-02-18 16:29:54.966,-288.0,29.0,971.0,-1.0,1.0,-2.0,137,114,111,136,134,492,469,435
2025-02-18 16:29:54.983,-288.0,21.0,981.0,-1.0,0.0,0.0,137,116,113,136,133,490,470,414
2025-02-18 16:29:55.003,-284.0,42.0,982.0,-1.0,0.0,0.0,137,115,111,136,133,486,469,419
2025-02-18 16:29:55.023,-288.0,46.0,971.0,-2.0,1.0,-1.0,137,118,112,137,134,484,470,436
2025-02-18 16:29:55.041,-296.0,37.0,952.0,-2.0,0.0,-1.0,137,115,112,135,133,482,470,450
2025-02-18 16:29:55.061,-294.0,34.0,959.0,0.0,-3.0,0.0,137,116,111,136,134,480,471,463
2025-02-18 16:29:55.078,-294.0,45.0,986.0,1.0,-3.0,0.0,138,115,112,137,134,476,474,478
2025-02-18 16:29:55.098,-294.0,49.0,1011.0,-1.0,-3.0,-1.0,137,115,111,136,134,474,475,500
2025-02-18 16:29:55.118,-284.0,35.0,1015.0,-2.0,-2.0,-2.0,138,116,112,136,134,478,477,519
2025-02-18 16:29:55.135,-281.0,25.0,1012.0,-2.0,0.0,-1.0,137,115,112,136,133,476,477,513
2025-02-18 16:29:55.155,-284.0,33.0,1007.0,-2.0,0.0,-1.0,137,115,112,136,133,471,478,507
2025-02-18 16:29:55.175,-294.0,41.0,1003.0,-2.0,1.0,-1.0,138,116,112,137,134,470,478,497
2025-02-18 16:29:55.192,-291.0,49.0,997.0,-2.0,1.0,0.0,137,115,111,136,133,472,477,463
2025-02-18 16:29:55.212,-288.0,49.0,987.0,-2.0,1.0,-1.0,138,115,112,137,134,474,477,457
2025-02-18 16:29:55.233,-292.0,47.0,973.0,-2.0,2.0,-1.0,137,114,111,136,134,471,475,464
2025-02-18 16:29:55.250,-295.0,43.0,966.0,0.0,0.0,-1.0,138,116,112,136,134,471,474,472
2025-02-18 16:29:55.269,-290.0,39.0,962.0,0.0,-1.0,-1.0,137,115,111,136,134,473,471,467
2025-02-18 16:29:55.290,-288.0,45.0,974.0,0.0,-2.0,-1.0,137,115,112,136,134,474,472,464
2025-02-18 16:29:55.306,-280.0,41.0,987.0,-1.0,-2.0,-1.0,138,116,112,136,134,471,471,468
2025-02-18 16:29:55.327,-286.0,38.0,992.0,0.0,0.0,-1.0,137,115,111,136,134,470,468,472
2025-02-18 16:29:55.343,-286.0,33.0,996.0,-1.0,0.0,-1.0,138,116,113,137,134,471,470,478
2025-02-18 16:29:55.363,-285.0,41.0,995.0,-2.0,-1.0,-1.0,137,115,109,137,133,471,469,479
2025-02-18 16:29:55.384,-286.0,39.0,997.0,-3.0,-1.0,-1.0,137,116,112,137,134,469,471,480
2025-02-18 16:29:55.401,-286.0,36.0,997.0,-1.0,0.0,0.0,136,115,112,136,133,467,471,480
2025-02-18 16:29:55.420,-291.0,44.0,990.0,0.0,1.0,0.0,137,115,112,136,134,470,473,486
2025-02-18 16:29:55.441,-297.0,58.0,987.0,-1.0,0.0,-1.0,138,115,112,136,134,469,475,491
2025-02-18 16:29:55.458,-293.0,43.0,979.0,-2.0,0.0,-1.0,137,114,112,136,133,466,475,491
2025-02-18 16:29:55.478,-294.0,33.0,980.0,0.0,0.0,-1.0,137,116,112,137,134,466,478,491
2025-02-18 16:29:55.495,-295.0,54.0,980.0,1.0,0.0,0.0,137,115,111,136,134,468,477,497
2025-02-18 16:29:55.515,-297.0,65.0,979.0,-1.0,-1.0,-1.0,138,118,112,137,135,473,478,497
2025-02-18 16:29:55.536,-300.0,55.0,976.0,-1.0,-1.0,-2.0,137,115,111,136,133,471,477,492
2025-02-18 16:29:55.553,-301.0,48.0,980.0,1.0,-1.0,-2.0,137,115,112,137,134,470,477,490
2025-02-18 16:29:55.573,-294.0,52.0,987.0,0.0,-1.0,-2.0,138,116,111,137,134,471,477,487
2025-02-18 16:29:55.592,-293.0,49.0,991.0,-2.0,-2.0,-3.0,136,115,111,136,133,472,475,484
2025-02-18 16:29:55.610,-289.0,32.0,993.0,-2.0,-1.0,-2.0,138,115,112,137,134,473,474,483
2025-02-18 16:29:55.630,-287.0,26.0,991.0,0.0,-1.0,-2.0,137,114,111,136,133,473,472,478
2025-02-18 16:29:55.650,-288.0,35.0,991.0,0.0,-1.0,-1.0,139,115,112,137,134,473,471,473
2025-02-18 16:29:55.667,-289.0,37.0,997.0,-2.0,-1.0,-1.0,137,114,111,136,133,469,469,465
2025-02-18 16:29:55.687,-287.0,31.0,995.0,-2.0,0.0,0.0,138,116,112,136,134,471,470,462
2025-02-18 16:29:55.707,-286.0,38.0,989.0,-1.0,0.0,-1.0,137,116,112,136,134,472,469,467
2025-02-18 16:29:55.724,-296.0,44.0,978.0,-1.0,0.0,-1.0,137,115,112,136,133,469,468,471
2025-02-18 16:29:55.744,-296.0,46.0,978.0,-1.0,-1.0,-1.0,138,115,112,137,134,469,470,476
2025-02-18 16:29:55.764,-286.0,46.0,983.0,-2.0,-1.0,-1.0,136,115,111,136,133,466,470,473
2025-02-18 16:29:55.781,-287.0,46.0,984.0,-2.0,-1.0,-1.0,137,116,113,137,133,469,473,477
2025-02-18 16:29:55.801,-288.0,44.0,977.0,-2.0,-1.0,-1.0,136,114,111,135,133,467,473,483
2025-02-18 16:29:55.818,-289.0,39.0,978.0,-2.0,-1.0,-1.0,137,115,112,138,135,467,476,492
2025-02-18 16:29:55.839,-293.0,37.0,980.0,-1.0,-2.0,0.0,137,116,112,137,134,468,477,501
2025-02-18 16:29:55.859,-285.0,47.0,985.0,-1.0,-1.0,-1.0,137,115,111,136,133,467,477,495
2025-02-18 16:29:55.876,-290.0,44.0,982.0,-2.0,0.0,-1.0,138,116,112,137,135,470,477,491
2025-02-18 16:29:55.896,-298.0,30.0,974.0,-1.0,-1.0,0.0,137,115,111,136,134,469,477,489
2025-02-18 16:29:55.916,-294.0,46.0,981.0,0.0,-1.0,0.0,137,115,112,137,134,471,477,493
2025-02-18 16:29:55.933,-300.0,58.0,981.0,-2.0,-2.0,-1.0,137,115,111,136,133,472,476,496
2025-02-18 16:29:55.953,-295.0,51.0,992.0,-1.0,-3.0,-1.0,137,115,111,137,134,475,476,483
2025-02-18 16:29:55.974,-288.0,48.0,1007.0,-1.0,-2.0,-2.0,138,116,112,137,134,476,474,475
2025-02-18 16:29:55.991,-284.0,50.0,1012.0,-2.0,-1.0,-2.0,137,115,111,136,134,476,472,473
2025-02-18 16:29:56.011,-290.0,34.0,1005.0,-3.0,0.0,-2.0,137,115,112,137,134,478,471,471
2025-02-18 16:29:56.028,-289.0,30.0,1001.0,-1.0,-1.0,-1.0,137,115,111,136,133,478,470,464
2025-02-18 16:29:56.048,-288.0,43.0,1005.0,-1.0,-1.0,-1.0,137,115,112,136,134,479,470,462
2025-02-18 16:29:56.068,-280.0,46.0,1004.0,-2.0,1.0,-2.0,137,115,112,136,134,479,469,453
2025-02-18 16:29:56.085,-282.0,46.0,991.0,-2.0,1.0,-1.0,137,115,111,136,134,480,469,455
2025-02-18 16:29:56.105,-281.0,46.0,979.0,-2.0,1.0,-1.0,138,116,112,137,134,482,471,462
2025-02-18 16:29:56.125,-285.0,45.0,970.0,-3.0,0.0,-1.0,137,114,112,136,133,481,471,466
2025-02-18 16:29:56.142,-285.0,39.0,963.0,-1.0,-1.0,-1.0,138,115,112,137,134,479,473,472
2025-02-18 16:29:56.163,-285.0,41.0,974.0,1.0,-2.0,-1.0,137,115,111,136,134,479,475,477
2025-02-18 16:29:56.183,-286.0,50.0,989.0,0.0,-1.0,-1.0,137,115,112,137,133,481,476,482
2025-02-18 16:29:56.200,-293.0,55.0,982.0,-2.0,-1.0,-2.0,138,115,112,136,134,481,478,486
2025-02-18 16:29:56.220,-306.0,42.0,981.0,-1.0,-2.0,-1.0,137,115,112,136,134,478,478,488
2025-02-18 16:29:56.236,-301.0,46.0,996.0,1.0,-1.0,-2.0,138,116,112,137,134,479,479,492
2025-02-18 16:29:56.256,-293.0,54.0,1004.0,0.0,0.0,-3.0,136,115,111,136,133,482,478,489
2025-02-18 16:29:56.276,-290.0,39.0,994.0,-2.0,0.0,-3.0,138,116,112,137,134,481,477,481
2025-02-18 16:29:56.294,-286.0,15.0,984.0,-2.0,0.0,-2.0,137,115,112,136,134,479,476,478
2025-02-18 16:29:56.314,-282.0,22.0,986.0,0.0,0.0,-1.0,137,115,112,136,134,479,474,477
2025-02-18 16:29:56.334,-283.0,35.0,986.0,-1.0,0.0,-1.0,137,116,113,137,134,481,473,471
2025-02-18 16:29:56.351,-295.0,38.0,983.0,-2.0,0.0,-1.0,137,115,112,136,133,477,471,463
2025-02-18 16:29:56.371,-308.0,30.0,978.0,-1.0,-1.0,0.0,138,116,112,137,133,474,470,463
2025-02-18 16:29:56.391,-311.0,45.0,990.0,1.0,-1.0,0.0,137,114,111,136,133,473,468,462
2025-02-18 16:29:56.409,-304.0,64.0,1000.0,-1.0,-1.0,-1.0,137,116,112,137,134,475,469,465
2025-02-18 16:29:56.428,-294.0,52.0,997.0,-3.0,-1.0,-3.0,137,115,111,136,133,473,467,464
2025-02-18 16:29:56.446,-284.0,20.0,998.0,-3.0,-1.0,-2.0,137,116,112,137,134,470,468,468
2025-02-18 16:29:56.466,-277.0,20.0,1005.0,-1.0,0.0,-1.0,137,115,113,136,134,471,470,474
2025-02-18 16:29:56.486,-286.0,29.0,1000.0,-1.0,0.0,0.0,137,115,112,136,133,472,470,475
2025-02-18 16:29:56.503,-292.0,35.0,994.0,-2.0,1.0,-1.0,137,116,112,137,134,470,472,475
2025-02-18 16:29:56.523,-293.0,35.0,984.0,-2.0,1.0,0.0,137,114,111,136,133,467,472,477
2025-02-18 16:29:56.543,-290.0,46.0,982.0,-2.0,1.0,0.0,138,116,112,137,134,470,475,483
2025-02-18 16:29:56.560,-293.0,46.0,974.0,-2.0,1.0,-1.0,137,114,110,136,133,471,475,489
2025-02-18 16:29:56.580,-283.0,41.0,973.0,-1.0,0.0,-1.0,137,115,112,136,134,475,476,490
2025-02-18 16:29:56.600,-279.0,37.0,979.0,-1.0,0.0,0.0,137,116,112,136,134,476,476,492
2025-02-18 16:29:56.617,-292.0,39.0,980.0,0.0,0.0,0.0,137,115,111,135,134,476,475,490
2025-02-18 16:29:56.637,-296.0,51.0,989.0,0.0,-1.0,0.0,138,114,112,137,134,475,475,484
2025-02-18 16:29:56.654,-295.0,58.0,989.0,-2.0,0.0,-1.0,137,115,111,136,133,475,474,479
2025-02-18 16:29:56.674,-291.0,56.0,985.0,-2.0,0.0,-2.0,138,116,112,137,134,479,473,477
2025-02-18 16:29:56.695,-300.0,45.0,976.0,-2.0,0.0,-2.0,136,114,111,135,133,476,469,475
2025-02-18 16:29:56.712,-301.0,33.0,974.0,-1.0,-1.0,-1.0,138,116,112,137,134,481,471,474
2025-02-18 16:29:56.732,-301.0,44.0,984.0,-1.0,-1.0,0.0,137,116,112,137,134,481,468,467
2025-02-18 16:29:56.752,-298.0,52.0,985.0,-1.0,-1.0,-1.0,137,115,112,136,133,477,466,462
2025-02-18 16:29:56.769,-298.0,45.0,991.0,-1.0,0.0,-3.0,137,115,113,137,134,477,466,463
2025-02-18 16:29:56.789,-289.0,34.0,994.0,-1.0,0.0,-2.0,137,115,111,136,134,478,465,467
2025-02-18 16:29:56.809,-282.0,28.0,991.0,-1.0,-1.0,-2.0,138,116,112,137,134,482,466,472
2025-02-18 16:29:56.826,-285.0,30.0,987.0,-2.0,-1.0,-1.0,137,114,111,136,133,476,466,472
2025-02-18 16:29:56.847,-288.0,23.0,990.0,-2.0,-2.0,0.0,137,116,112,137,134,478,468,478
2025-02-18 16:29:56.867,-294.0,32.0,1005.0,0.0,-2.0,1.0,138,115,112,137,134,478,470,481
2025-02-18 16:29:56.884,-305.0,65.0,1009.0,-1.0,0.0,0.0,136,115,112,136,133,477,469,480
2025-02-18 16:29:56.904,-306.0,67.0,998.0,-2.0,1.0,-1.0,138,116,112,137,135,475,472,483
2025-02-18 16:29:56.921,-315.0,47.0,975.0,-2.0,1.0,-1.0,137,115,111,136,134,472,472,484
2025-02-18 16:29:56.941,-303.0,42.0,977.0,-1.0,0.0,-2.0,137,115,112,136,134,480,473,485
2025-02-18 16:29:56.961,-292.0,51.0,978.0,-2.0,-1.0,-2.0,137,115,111,136,130,483,472,484
2025-02-18 16:29:56.978,-280.0,41.0,973.0,-2.0,0.0,-3.0,137,115,112,136,134,487,471,481
2025-02-18 16:29:56.998,-282.0,20.0,968.0,-1.0,0.0,-3.0,137,115,113,136,134,480,472,471
2025-02-18 16:29:57.018,-284.0,23.0,971.0,0.0,0.0,0.0,137,115,111,136,133,476,469,470
2025-02-18 16:29:57.035,-285.0,42.0,982.0,0.0,-2.0,0.0,138,115,112,137,134,473,469,470
2025-02-18 16:29:57.055,-286.0,47.0,994.0,-3.0,-2.0,0.0,137,115,111,136,134,478,467,469
2025-02-18 16:29:57.075,-293.0,44.0,994.0,-3.0,0.0,-1.0,137,115,112,137,134,474,467,463
2025-02-18 16:29:57.093,-308.0,45.0,988.0,0.0,0.0,-1.0,137,115,112,136,134,471,464,461
2025-02-18 16:29:57.113,-322.0,48.0,983.0,-1.0,0.0,-2.0,137,115,111,137,134,471,464,459
2025-02-18 16:29:57.130,-319.0,45.0,980.0,-1.0,-1.0,-2.0,138,116,112,137,134,471,465,458
2025-02-18 16:29:57.149,-313.0,35.0,995.0,0.0,-1.0,-1.0,136,115,112,136,133,468,464,457
2025-02-18 16:29:57.169,-292.0,47.0,1003.0,0.0,1.0,-2.0,138,116,112,137,134,471,465,462
2025-02-18 16:29:57.186,-296.0,40.0,998.0,-1.0,2.0,-3.0,137,115,110,136,134,471,465,468
2025-02-18 16:29:57.207,-281.0,11.0,982.0,-2.0,0.0,-3.0,137,115,112,136,133,472,467,473
2025-02-18 16:29:57.227,-278.0,13.0,982.0,-2.0,0.0,-1.0,137,115,112,136,134,469,468,476
2025-02-18 16:29:57.244,-284.0,8.0,978.0,-2.0,-1.0,1.0,137,115,111,136,133,471,470,481
2025-02-18 16:29:57.264,-291.0,34.0,990.0,-1.0,-1.0,1.0,137,116,112,137,134,470,473,482
2025-02-18 16:29:57.284,-301.0,61.0,997.0,-2.0,-1.0,1.0,137,115,111,136,133,469,472,481
2025-02-18 16:29:57.301,-313.0,61.0,984.0,-2.0,1.0,0.0,137,116,112,138,134,471,474,482
2025-02-18 16:29:57.321,-323.0,59.0,968.0,-2.0,0.0,-1.0,137,115,111,136,132,466,473,478
2025-02-18 16:29:57.341,-312.0,48.0,969.0,-1.0,-1.0,-2.0,137,115,112,137,134,466,472,476
2025-02-18 16:29:57.359,-299.0,50.0,967.0,-1.0,-1.0,-2.0,137,115,112,137,134,467,471,474
2025-02-18 16:29:57.379,-295.0,45.0,963.0,-2.0,0.0,-3.0,137,115,112,136,133,468,470,471
2025-02-18 16:29:57.396,-289.0,24.0,959.0,-1.0,-1.0,-3.0,138,115,112,137,134,468,469,468
2025-02-18 16:29:57.416,-282.0,18.0,972.0,-1.0,-3.0,-2.0,137,115,111,136,133,468,467,463
2025-02-18 16:29:57.436,-275.0,24.0,987.0,-2.0,-4.0,-2.0,138,115,113,137,134,467,467,458
2025-02-18 16:29:57.453,-278.0,20.0,996.0,-2.0,-3.0,-1.0,137,114,111,136,133,465,464,456
2025-02-18 16:29:57.473,-285.0,22.0,1006.0,-1.0,-2.0,0.0,137,115,112,136,134,461,465,458
2025-02-18 16:29:57.493,-296.0,39.0,1012.0,0.0,-1.0,0.0,138,116,112,137,134,453,465,459
2025-02-18 16:29:57.510,-305.0,57.0,1010.0,-2.0,0.0,0.0,136,115,112,136,133,455,464,459
2025-02-18 16:29:57.531,-301.0,51.0,1005.0,-3.0,0.0,-1.0,138,115,112,137,134,458,466,459
2025-02-18 16:29:57.550,-296.0,33.0,995.0,-3.0,1.0,-1.0,137,114,112,136,134,462,466,464
2025-02-18 16:29:57.567,-291.0,35.0,990.0,-2.0,1.0,-1.0,138,116,112,137,134,466,469,468
2025-02-18 16:29:57.588,-291.0,33.0,972.0,-3.0,1.0,-1.0,136,114,111,136,133,467,470,471
2025-02-18 16:29:57.605,-294.0,28.0,959.0,-2.0,0.0,-1.0,137,115,113,136,134,466,472,476
2025-02-18 16:29:57.625,-300.0,31.0,962.0,-1.0,-1.0,0.0,138,116,112,137,135,464,474,475
2025-02-18 16:29:57.645,-299.0,40.0,971.0,-1.0,-2.0,0.0,137,115,111,136,134,466,474,475
2025-02-18 16:29:57.662,-298.0,48.0,980.0,-2.0,-3.0,-1.0,137,115,112,137,133,467,476,478
2025-02-18 16:29:57.683,-297.0,38.0,986.0,-1.0,-2.0,-2.0,137,115,111,136,133,466,476,477
2025-02-18 16:29:57.703,-289.0,33.0,987.0,-1.0,-2.0,-2.0,138,115,112,137,134,468,476,477
2025-02-18 16:29:57.720,-291.0,28.0,991.0,-2.0,-3.0,-1.0,137,114,111,136,133,465,474,471
2025-02-18 16:29:57.739,-290.0,33.0,1001.0,-2.0,-3.0,-1.0,138,115,112,137,134,466,474,468
2025-02-18 16:29:57.759,-292.0,28.0,1012.0,-1.0,-2.0,-1.0,137,116,112,137,134,467,473,462
2025-02-18 16:29:57.776,-298.0,31.0,1014.0,0.0,-1.0,0.0,137,115,111,136,134,468,470,458
2025-02-18 16:29:57.796,-301.0,45.0,1005.0,-1.0,-1.0,0.0,138,116,112,137,134,472,470,455
2025-02-18 16:29:57.813,-309.0,46.0,1002.0,-2.0,0.0,0.0,137,115,111,136,133,470,469,450
2025-02-18 16:29:57.834,-304.0,47.0,995.0,-1.0,1.0,-1.0,137,115,112,137,134,474,469,449
2025-02-18 16:29:57.854,-291.0,49.0,978.0,0.0,2.0,-2.0,136,115,111,136,133,474,468,447
2025-02-18 16:29:57.871,-288.0,44.0,958.0,-1.0,1.0,-3.0,137,115,112,137,134,478,469,453
2025-02-18 16:29:57.891,-279.0,27.0,962.0,-1.0,-2.0,-2.0,138,115,112,137,134,475,470,457
2025-02-18 16:29:57.911,-278.0,17.0,982.0,0.0,-3.0,-1.0,140,115,112,136,133,474,472,461
2025-02-18 16:29:57.929,-279.0,35.0,1002.0,0.0,-2.0,0.0,138,115,113,137,134,476,473,468
2025-02-18 16:29:57.949,-283.0,53.0,1014.0,-1.0,0.0,-1.0,137,115,112,136,133,473,474,473
2025-02-18 16:29:57.968,-294.0,48.0,1009.0,-1.0,0.0,-1.0,137,115,112,136,134,475,477,476
2025-02-18 16:29:57.986,-297.0,46.0,1000.0,0.0,1.0,-1.0,137,115,111,136,134,474,477,475
2025-02-18 16:29:58.006,-307.0,50.0,988.0,-1.0,1.0,-1.0,137,115,112,136,134,480,479,476
2025-02-18 16:29:58.023,-316.0,52.0,976.0,-2.0,1.0,-1.0,138,116,112,137,134,485,480,478
2025-02-18 16:29:58.042,-310.0,45.0,956.0,-2.0,2.0,-2.0,137,115,111,136,133,482,479,476
2025-02-18 16:29:58.062,-307.0,41.0,940.0,0.0,1.0,-2.0,138,115,112,137,134,478,480,473
2025-02-18 16:29:58.080,-306.0,51.0,932.0,1.0,0.0,-4.0,137,115,112,136,133,475,478,469
2025-02-18 16:29:58.100,-293.0,41.0,943.0,0.0,-3.0,-5.0,138,115,112,137,134,472,477,466
2025-02-18 16:29:58.120,-278.0,21.0,970.0,0.0,-5.0,-6.0,137,115,112,137,134,471,477,464
2025-02-18 16:29:58.137,-274.0,7.0,1000.0,-1.0,-5.0,-5.0,137,115,111,136,134,466,475,463
2025-02-18 16:29:58.157,-278.0,10.0,1021.0,0.0,-3.0,-4.0,137,115,112,137,134,468,474,464
2025-02-18 16:29:58.177,-280.0,14.0,1021.0,-2.0,-3.0,-2.0,137,115,111,136,133,466,473,462
2025-02-18 16:29:58.194,-285.0,24.0,1013.0,-4.0,-1.0,-2.0,138,116,112,137,134,466,474,459
2025-02-18 16:29:58.214,-293.0,19.0,1006.0,-3.0,0.0,-1.0,137,115,112,136,133,465,473,452
2025-02-18 16:29:58.232,-294.0,28.0,994.0,-3.0,0.0,0.0,137,115,112,136,134,466,473,455
2025-02-18 16:29:58.252,-290.0,28.0,988.0,-3.0,0.0,0.0,138,115,112,137,134,467,474,461
2025-02-18 16:29:58.272,-291.0,39.0,973.0,-3.0,0.0,0.0,137,115,112,136,133,461,474,465
2025-02-18 16:29:58.289,-303.0,36.0,963.0,-2.0,-1.0,0.0,138,115,112,137,134,467,477,473
2025-02-18 16:29:58.309,-311.0,32.0,964.0,-1.0,-2.0,0.0,137,115,111,135,134,469,478,478
2025-02-18 16:29:58.329,-306.0,41.0,972.0,0.0,-3.0,0.0,137,115,112,137,134,463,480,481
2025-02-18 16:29:58.346,-298.0,41.0,979.0,-1.0,-2.0,-1.0,137,114,111,137,133,467,480,483
2025-02-18 16:29:58.366,-283.0,23.0,987.0,-1.0,-2.0,-1.0,137,115,112,136,134,468,481,488
2025-02-18 16:29:58.386,-272.0,20.0,1008.0,0.0,-2.0,0.0,137,116,112,137,134,469,481,489
2025-02-18 16:29:58.403,-278.0,18.0,1004.0,-2.0,0.0,0.0,136,114,112,136,134,467,480,484
2025-02-18 16:29:58.423,-287.0,21.0,992.0,-6.0,1.0,2.0,138,115,112,137,134,473,481,478
2025-02-18 16:29:58.443,-293.0,18.0,967.0,-6.0,0.0,3.0,137,114,111,136,134,472,478,469
2025-02-18 16:29:58.460,-305.0,29.0,959.0,-3.0,-1.0,4.0,138,116,112,138,135,475,479,466
2025-02-18 16:29:58.480,-316.0,59.0,962.0,-1.0,-2.0,4.0,136,114,111,136,134,473,476,465
2025-02-18 16:29:58.498,-323.0,71.0,975.0,1.0,-4.0,2.0,137,115,112,136,134,474,476,464
2025-02-18 16:29:58.518,-328.0,71.0,1001.0,2.0,-5.0,0.0,138,116,112,137,134,476,475,463
2025-02-18 16:29:58.538,-312.0,62.0,1025.0,3.0,-4.0,-2.0,137,115,111,136,134,480,473,460
2025-02-18 16:29:58.555,-295.0,55.0,1043.0,2.0,-2.0,-3.0,137,116,112,137,134,488,474,464
2025-02-18 16:29:58.575,-274.0,42.0,1030.0,-1.0,0.0,-5.0,136,114,112,141,133,494,473,465
2025-02-18 16:29:58.595,-254.0,14.0,1002.0,-4.0,1.0,-5.0,138,116,112,137,134,495,475,466
2025-02-18 16:29:58.613,-254.0,-12.0,967.0,-4.0,1.0,-4.0,136,114,111,135,133,488,475,465
2025-02-18 16:29:58.633,-254.0,-21.0,948.0,-3.0,-1.0,-1.0,137,116,112,136,134,483,478,469
2025-02-18 16:29:58.652,-253.0,-17.0,948.0,-1.0,-3.0,1.0,138,116,112,137,134,481,479,476
2025-02-18 16:29:58.669,-267.0,19.0,952.0,0.0,-3.0,2.0,137,115,112,136,133,476,480,487
2025-02-18 16:29:58.689,-272.0,54.0,962.0,-3.0,-2.0,1.0,138,116,112,135,134,473,481,497
2025-02-18 16:29:58.706,-283.0,47.0,958.0,-4.0,-4.0,0.0,137,115,112,136,133,469,482,501
2025-02-18 16:29:58.727,-285.0,57.0,936.0,-3.0,-4.0,-1.0,138,116,112,137,134,469,483,523
2025-02-18 16:29:58.747,-280.0,50.0,931.0,-7.0,-7.0,-2.0,136,114,111,136,133,464,482,519
2025-02-18 16:29:58.764,-259.0,67.0,905.0,-6.0,-10.0,-3.0,138,115,112,137,134,463,483,507
2025-02-18 16:29:58.784,-274.0,34.0,922.0,-6.0,-9.0,-2.0,138,115,112,136,134,466,482,493
2025-02-18 16:29:58.804,-278.0,42.0,863.0,-10.0,-14.0,-4.0,137,115,112,136,133,471,480,485
2025-02-18 16:29:58.821,-306.0,21.0,861.0,-9.0,-23.0,-2.0,138,116,111,136,133,459,481,473
2025-02-18 16:29:58.841,-337.0,52.0,920.0,-20.0,-29.0,-3.0,137,112,110,135,131,463,478,463
2025-02-18 16:29:58.861,-322.0,-27.0,990.0,-32.0,-52.0,4.0,138,110,109,135,130,471,483,457
2025-02-18 16:29:58.878,-314.0,-35.0,1296.0,-46.0,-72.0,14.0,137,103,106,133,127,484,482,461
2025-02-18 16:29:58.899,-133.0,30.0,1923.0,-82.0,-2.0,10.0,138,96,105,130,117,441,474,508
2025-02-18 16:29:58.918,48.0,-118.0,2263.0,-111.0,114.0,25.0,140,80,101,122,103,436,473,475
2025-02-18 16:29:58.936,53.0,-348.0,2149.0,-161.0,184.0,37.0,140,70,96,111,89,513,473,427
2025-02-18 16:29:58.956,88.0,-346.0,1966.0,-172.0,268.0,60.0,142,65,92,84,79,559,474,405
2025-02-18 16:29:58.972,-57.0,-438.0,1645.0,-190.0,313.0,84.0,141,60,86,79,69,547,472,380
2025-02-18 16:29:58.993,-216.0,-443.0,1274.0,-185.0,327.0,107.0,140,59,83,73,66,535,479,387
2025-02-18 16:29:59.013,-449.0,-394.0,784.0,-183.0,310.0,113.0,138,59,80,71,65,610,492,401
2025-02-18 16:29:59.030,-454.0,-216.0,550.0,-152.0,260.0,102.0,131,57,80,69,65,659,491,433
2025-02-18 16:29:59.051,-555.0,-53.0,300.0,-160.0,230.0,90.0,124,56,80,68,63,673,495,429
2025-02-18 16:29:59.070,-634.0,57.0,114.0,-141.0,242.0,41.0,118,54,80,65,61,593,539,412
2025-02-18 16:29:59.088,-936.0,270.0,-123.0,-99.0,175.0,34.0,115,56,82,65,62,521,545,426
2025-02-18 16:29:59.108,-724.0,460.0,-239.0,-92.0,130.0,-16.0,109,55,81,64,61,279,508,542
2025-02-18 16:29:59.128,-713.0,509.0,-349.0,-74.0,80.0,-64.0,107,56,82,63,61,199,469,479
2025-02-18 16:29:59.145,-631.0,623.0,-402.0,-74.0,40.0,-95.0,106,56,81,65,61,255,449,467
2025-02-18 16:29:59.165,-596.0,682.0,-438.0,-48.0,-7.0,-128.0,104,56,82,64,61,250,450,485
2025-02-18 16:29:59.182,-585.0,807.0,-711.0,-4.0,-62.0,-174.0,103,57,82,64,62,311,452,544
2025-02-18 16:29:59.202,-667.0,1025.0,-1210.0,66.0,-147.0,-299.0,101,56,81,64,61,559,465,606
2025-02-18 16:29:59.222,-976.0,1467.0,-1191.0,127.0,-343.0,-463.0,100,57,80,63,61,756,469,639
2025-02-18 16:29:59.239,-533.0,1297.0,-1849.0,99.0,-656.0,-635.0,99,55,77,63,61,839,461,521
2025-02-18 16:29:59.260,2374.0,392.0,-1458.0,24.0,-1039.0,-665.0,101,57,76,65,64,933,490,487
2025-02-18 16:29:59.280,5319.0,-3197.0,4030.0,-53.0,-583.0,-295.0,103,59,81,69,66,1018,505,158
2025-02-18 16:29:59.297,3074.0,-4738.0,3419.0,88.0,77.0,18.0,103,62,86,74,73,1010,519,86
2025-02-18 16:29:59.317,1350.0,-2297.0,2304.0,290.0,242.0,88.0,107,66,87,78,78,965,557,18
2025-02-18 16:29:59.337,130.0,-214.0,1578.0,-29.0,200.0,110.0,113,71,93,83,83,1015,568,201
2025-02-18 16:29:59.353,480.0,-1240.0,802.0,-176.0,171.0,105.0,114,72,95,84,84,639,525,510
2025-02-18 16:29:59.374,190.0,-1498.0,475.0,-121.0,188.0,140.0,108,66,90,79,78,194,488,599
2025-02-18 16:29:59.391,58.0,-1102.0,550.0,-54.0,184.0,192.0,108,68,91,81,79,19,466,517
2025-02-18 16:29:59.411,-271.0,-630.0,632.0,-41.0,172.0,180.0,113,74,98,87,85,26,468,405
2025-02-18 16:29:59.431,-261.0,-343.0,494.0,-73.0,156.0,143.0,117,78,101,90,88,35,487,630
2025-02-18 16:29:59.448,-449.0,-355.0,389.0,-92.0,117.0,126.0,121,80,104,92,89,346,494,989
2025-02-18 16:29:59.468,-334.0,-388.0,431.0,-92.0,117.0,123.0,116,76,100,89,87,326,465,581
2025-02-18 16:29:59.488,-547.0,-364.0,476.0,-58.0,105.0,111.0,117,79,103,91,90,244,467,120
2025-02-18 16:29:59.505,-317.0,-413.0,467.0,-45.0,98.0,92.0,114,76,100,87,86,292,463,57
2025-02-18 16:29:59.526,-562.0,-470.0,260.0,-47.0,87.0,83.0,115,77,101,89,86,384,476,193
2025-02-18 16:29:59.545,-483.0,-380.0,344.0,-38.0,68.0,77.0,116,78,103,90,88,674,494,576
2025-02-18 16:29:59.562,-514.0,-321.0,293.0,-46.0,62.0,69.0,114,76,100,88,85,877,500,535
2025-02-18 16:29:59.582,-492.0,-327.0,285.0,-28.0,55.0,57.0,116,78,102,89,88,853,496,326
2025-02-18 16:29:59.603,-444.0,-253.0,272.0,-24.0,68.0,64.0,114,75,100,87,85,848,485,422
2025-02-18 16:29:59.620,-661.0,-119.0,20.0,4.0,54.0,73.0,117,79,103,91,89,702,487,453
2025-02-18 16:29:59.640,-675.0,308.0,-365.0,49.0,21.0,97.0,114,76,99,88,86,592,483,479
2025-02-18 16:29:59.657,-867.0,910.0,-945.0,152.0,-28.0,22.0,118,80,104,92,90,502,492,536
2025-02-18 16:29:59.677,-1327.0,1909.0,-1671.0,325.0,-125.0,-233.0,118,81,103,92,90,385,493,552
2025-02-18 16:29:59.697,-1475.0,2786.0,-677.0,244.0,-404.0,-577.0,116,79,98,90,89,199,468,937
2025-02-18 16:29:59.714,230.0,1791.0,-1779.0,113.0,-948.0,-790.0,121,82,99,93,92,33,504,982
2025-02-18 16:29:59.734,5510.0,-3045.0,2348.0,6.0,-1020.0,-432.0,123,79,96,93,90,238,522,838
2025-02-18 16:29:59.755,5293.0,-4728.0,4436.0,52.0,-180.0,72.0,124,83,105,98,95,760,504,603
2025-02-18 16:29:59.772,2457.0,-2398.0,2356.0,113.0,182.0,69.0,107,65,88,81,82,943,448,13
2025-02-18 16:29:59.792,522.0,-968.0,1315.0,-8.0,174.0,93.0,110,67,88,84,84,1018,504,16
2025-02-18 16:29:59.812,-208.0,-620.0,720.0,-175.0,114.0,103.0,120,77,98,96,94,691,590,26
2025-02-18 16:29:59.829,-11.0,-1189.0,811.0,-168.0,77.0,111.0,119,75,97,92,92,59,559,24
2025-02-18 16:29:59.849,345.0,-1275.0,957.0,-139.0,134.0,145.0,120,76,98,94,94,24,484,40
2025-02-18 16:29:59.866,250.0,-969.0,750.0,-131.0,148.0,178.0,119,72,94,91,91,139,462,181
2025-02-18 16:29:59.886,270.0,-799.0,631.0,-153.0,160.0,180.0,125,74,97,94,95,23,456,874
2025-02-18 16:29:59.906,-87.0,-366.0,462.0,-147.0,147.0,194.0,126,72,96,93,91,85,455,1011
2025-02-18 16:29:59.923,-14.0,-917.0,537.0,-169.0,153.0,234.0,126,73,97,93,90,384,462,1011
2025-02-18 16:29:59.943,-193.0,-842.0,237.0,-137.0,110.0,261.0,130,75,99,95,92,590,446,1011
2025-02-18 16:29:59.963,-331.0,-614.0,-53.0,-84.0,68.0,266.0,134,74,97,92,90,436,429,988
2025-02-18 16:29:59.980,-359.0,-84.0,171.0,-35.0,61.0,239.0,138,75,99,94,92,268,446,701
2025-02-18 16:30:00.000,-519.0,426.0,97.0,26.0,56.0,166.0,142,74,97,93,90,228,447,21
2025-02-18 16:30:00.020,-663.0,1150.0,17.0,107.0,78.0,39.0,149,75,100,92,90,774,474,357
2025-02-18 16:30:00.038,-875.0,1637.0,-332.0,120.0,86.0,-113.0,151,70,100,90,87,1016,522,624
2025-02-18 16:30:00.058,-1174.0,1936.0,-918.0,156.0,-46.0,-387.0,152,71,97,86,83,911,521,601
2025-02-18 16:30:00.078,-1244.0,1601.0,-1579.0,133.0,-308.0,-614.0,151,73,95,84,81,698,504,290
2025-02-18 16:30:00.096,177.0,1381.0,-1681.0,37.0,-688.0,-737.0,152,70,91,84,80,659,513,330
2025-02-18 16:30:00.115,4734.0,-387.0,-442.0,-239.0,-875.0,-635.0,156,72,92,87,84,737,475,302
2025-02-18 16:30:00.135,4928.0,-4480.0,2379.0,-121.0,-578.0,-284.0,158,72,93,88,85,775,483,21
2025-02-18 16:30:00.152,4082.0,-4329.0,2429.0,131.0,96.0,-57.0,161,74,97,91,91,1012,527,23
2025-02-18 16:30:00.172,1519.0,-2862.0,820.0,239.0,263.0,37.0,156,73,95,90,91,968,571,22
2025-02-18 16:30:00.189,461.0,-1031.0,440.0,28.0,129.0,126.0,159,72,92,89,89,813,616,20
2025-02-18 16:30:00.210,491.0,-1261.0,415.0,-125.0,74.0,155.0,158,71,92,89,88,489,582,19
2025-02-18 16:30:00.230,569.0,-1776.0,553.0,-61.0,105.0,203.0,159,73,94,90,89,142,493,21
2025-02-18 16:30:00.246,444.0,-1517.0,391.0,-10.0,130.0,256.0,160,74,95,92,91,402,457,22
2025-02-18 16:30:00.267,447.0,-1078.0,328.0,15.0,110.0,284.0,156,68,90,87,86,458,448,358
2025-02-18 16:30:00.287,411.0,-372.0,519.0,23.0,108.0,246.0,158,71,93,89,87,378,439,1008
2025-02-18 16:30:00.304,207.0,-502.0,460.0,42.0,129.0,162.0,162,75,97,93,91,407,427,1011
2025-02-18 16:30:00.324,16.0,-542.0,395.0,26.0,129.0,167.0,160,74,96,91,89,442,449,1010
2025-02-18 16:30:00.341,-222.0,-602.0,222.0,-7.0,104.0,185.0,160,75,97,92,91,272,451,1011
2025-02-18 16:30:00.360,-218.0,-249.0,392.0,12.0,76.0,174.0,158,73,95,90,88,21,449,1011
2025-02-18 16:30:00.381,-73.0,-95.0,531.0,70.0,123.0,103.0,160,75,97,92,89,80,458,1010
2025-02-18 16:30:00.398,-279.0,-238.0,356.0,61.0,126.0,101.0,157,72,95,90,87,357,457,1010
2025-02-18 16:30:00.418,-525.0,-270.0,145.0,42.0,120.0,88.0,158,74,96,91,88,563,470,1007
2025-02-18 16:30:00.438,-649.0,74.0,188.0,-6.0,77.0,78.0,158,74,97,91,89,507,478,1009
2025-02-18 16:30:00.455,-439.0,337.0,300.0,-10.0,68.0,25.0,156,73,96,90,86,550,477,346
2025-02-18 16:30:00.475,-601.0,655.0,217.0,70.0,80.0,-37.0,157,74,97,91,87,472,478,19
2025-02-18 16:30:00.495,-873.0,1249.0,-428.0,230.0,119.0,-235.0,151,73,95,90,89,480,472,20
2025-02-18 16:30:00.512,-2016.0,1609.0,-1361.0,172.0,-63.0,-414.0,152,76,98,92,88,608,497,126
2025-02-18 16:30:00.533,-1164.0,1704.0,-1879.0,33.0,-475.0,-594.0,151,72,93,90,84,670,510,550
2025-02-18 16:30:00.553,2183.0,-509.0,-1432.0,-159.0,-882.0,-600.0,158,76,94,93,88,688,522,1008
2025-02-18 16:30:00.570,4162.0,-2466.0,1559.0,-243.0,-761.0,-349.0,162,75,93,93,87,636,481,998
2025-02-18 16:30:00.590,4402.0,-4175.0,2776.0,-162.0,-284.0,-98.0,161,73,94,90,86,717,473,782
2025-02-18 16:30:00.608,3003.0,-4013.0,1412.0,145.0,187.0,20.0,162,76,97,93,91,844,514,430
2025-02-18 16:30:00.628,945.0,-1531.0,233.0,120.0,241.0,113.0,160,75,95,91,91,918,570,287
2025-02-18 16:30:00.647,326.0,-943.0,63.0,-94.0,132.0,134.0,160,75,95,92,90,566,566,22
2025-02-18 16:30:00.664,463.0,-1628.0,312.0,-122.0,107.0,170.0,157,72,93,89,87,506,515,20
2025-02-18 16:30:00.684,610.0,-1594.0,511.0,-70.0,137.0,242.0,161,77,97,93,92,309,465,24
2025-02-18 16:30:00.704,566.0,-1200.0,579.0,-28.0,146.0,273.0,160,75,97,92,90,339,433,101
2025-02-18 16:30:00.721,444.0,-823.0,500.0,-30.0,154.0,278.0,155,70,92,87,86,228,413,384
2025-02-18 16:30:00.742,330.0,-727.0,444.0,-46.0,160.0,276.0,158,73,95,91,90,237,435,863
2025-02-18 16:30:00.762,211.0,-677.0,250.0,-59.0,149.0,291.0,154,72,95,91,89,712,444,1010
2025-02-18 16:30:00.779,150.0,-689.0,281.0,-15.0,146.0,277.0,154,75,98,93,93,601,461,1011
2025-02-18 16:30:00.799,15.0,-521.0,197.0,23.0,184.0,259.0,151,74,97,93,96,409,474,974
2025-02-18 16:30:00.816,-147.0,-200.0,-7.0,54.0,178.0,218.0,151,76,100,99,102,222,482,954
2025-02-18 16:30:00.837,39.0,-77.0,494.0,88.0,205.0,164.0,150,79,103,105,107,424,471,1011
2025-02-18 16:30:00.856,-233.0,-11.0,116.0,198.0,124.0,122.0,147,81,106,111,116,615,481,1010
2025-02-18 16:30:00.874,-468.0,199.0,-377.0,373.0,194.0,87.0,147,89,111,122,127,451,499,1010
2025-02-18 16:30:00.894,-1767.0,708.0,882.0,263.0,189.0,77.0,143,92,113,122,123,663,585,626
2025-02-18 16:30:00.914,-967.0,193.0,-429.0,159.0,112.0,-1.0,146,102,114,130,126,996,674,26
2025-02-18 16:30:00.931,-1366.0,653.0,-1264.0,-70.0,-177.0,-120.0,144,108,117,130,122,954,580,641
2025-02-18 16:30:00.950,-389.0,1609.0,-1350.0,-53.0,-180.0,-435.0,143,116,115,136,128,249,530,25
2025-02-18 16:30:00.970,963.0,2033.0,443.0,148.0,-548.0,-627.0,144,126,115,139,133,74,493,24
2025-02-18 16:30:00.988,1333.0,406.0,1931.0,-220.0,-654.0,-770.0,148,134,115,141,142,434,453,315
2025-02-18 16:30:01.008,2497.0,-2794.0,817.0,-312.0,-778.0,-617.0,154,141,118,146,153,491,422,1010
2025-02-18 16:30:01.028,3635.0,-3815.0,446.0,-153.0,-600.0,-268.0,152,141,119,146,153,382,419,816
2025-02-18 16:30:01.045,3024.0,-3457.0,1145.0,6.0,-187.0,102.0,153,142,123,147,154,705,418,378
2025-02-18 16:30:01.065,2082.0,-2357.0,1421.0,168.0,144.0,190.0,154,142,119,146,153,878,438,352
2025-02-18 16:30:01.082,575.0,-1170.0,906.0,187.0,271.0,222.0,158,145,123,150,156,764,479,39
2025-02-18 16:30:01.102,148.0,-777.0,442.0,-18.0,232.0,215.0,160,147,124,152,158,637,457,37
2025-02-18 16:30:01.122,87.0,-921.0,573.0,-170.0,154.0,231.0,154,144,121,148,153,518,415,101
2025-02-18 16:30:01.140,273.0,-1123.0,345.0,-199.0,121.0,220.0,151,141,119,147,152,245,370,424
2025-02-18 16:30:01.160,233.0,-1078.0,324.0,-129.0,105.0,216.0,149,137,118,146,149,21,382,961
2025-02-18 16:30:01.180,243.0,-910.0,177.0,-36.0,106.0,232.0,150,137,119,146,148,102,433,1011
2025-02-18 16:30:01.197,-36.0,-646.0,138.0,31.0,97.0,208.0,151,137,120,147,148,1016,461,1011
2025-02-18 16:30:01.217,-141.0,-550.0,87.0,72.0,67.0,168.0,148,135,117,145,144,1017,469,1010
2025-02-18 16:30:01.237,-262.0,-342.0,160.0,83.0,45.0,147.0,148,135,119,145,145,933,478,771
2025-02-18 16:30:01.254,-361.0,-323.0,218.0,50.0,34.0,123.0,146,133,117,143,143,424,461,457
2025-02-18 16:30:01.274,-294.0,-334.0,248.0,30.0,27.0,93.0,147,134,118,146,145,20,450,189
2025-02-18 16:30:01.291,-306.0,-271.0,383.0,16.0,34.0,71.0,145,132,117,144,143,261,476,19
2025-02-18 16:30:01.312,-507.0,-321.0,278.0,3.0,33.0,47.0,146,133,118,145,144,765,490,134
2025-02-18 16:30:01.332,-505.0,-199.0,241.0,14.0,21.0,30.0,147,133,118,145,144,808,482,191
2025-02-18 16:30:01.348,-535.0,-19.0,235.0,62.0,28.0,4.0,146,131,117,144,142,688,486,18
2025-02-18 16:30:01.368,-652.0,362.0,148.0,184.0,44.0,-50.0,146,132,119,145,144,565,482,19
2025-02-18 16:30:01.389,-1175.0,1086.0,-1015.0,342.0,1.0,-230.0,143,132,117,143,142,516,457,51
2025-02-18 16:30:01.406,-524.0,1649.0,-910.0,225.0,-283.0,-470.0,144,134,118,144,143,557,455,1007
2025-02-18 16:30:01.426,361.0,-70.0,1132.0,-88.0,-471.0,-655.0,143,134,116,143,144,537,468,1010
2025-02-18 16:30:01.446,2686.0,-2580.0,388.0,-129.0,-664.0,-492.0,147,136,117,144,149,518,447,1011
2025-02-18 16:30:01.464,3395.0,-3461.0,1908.0,-91.0,-355.0,-119.0,150,136,119,146,152,364,448,1011
2025-02-18 16:30:01.483,2292.0,-3254.0,1755.0,71.0,23.0,137.0,150,135,118,145,151,645,499,715
2025-02-18 16:30:01.504,887.0,-1582.0,1118.0,119.0,192.0,159.0,150,134,119,145,151,1017,508,19
2025-02-18 16:30:01.520,23.0,-695.0,762.0,36.0,201.0,122.0,149,131,116,142,148,814,504,18
2025-02-18 16:30:01.541,-72.0,-957.0,449.0,-75.0,154.0,105.0,150,129,116,144,148,332,498,18
2025-02-18 16:30:01.558,244.0,-1192.0,379.0,-87.0,103.0,125.0,147,119,112,140,141,22,467,16
2025-02-18 16:30:01.578,277.0,-1236.0,403.0,-50.0,110.0,167.0,149,111,114,140,139,156,453,130
2025-02-18 16:30:01.598,387.0,-1125.0,712.0,-32.0,116.0,207.0,150,103,116,136,129,234,447,804
2025-02-18 16:30:01.615,397.0,-956.0,362.0,-50.0,110.0,236.0,150,96,114,131,117,373,479,1007
2025-02-18 16:30:01.634,98.0,-805.0,409.0,-45.0,85.0,245.0,150,91,113,123,108,621,474,899
2025-02-18 16:30:01.655,-14.0,-758.0,360.0,-58.0,67.0,248.0,148,83,111,113,98,670,470,16
2025-02-18 16:30:01.672,-636.0,-815.0,631.0,68.0,106.0,247.0,150,80,112,108,94,586,461,18
2025-02-18 16:30:01.692,150.0,-707.0,348.0,12.0,107.0,253.0,148,76,109,103,88,370,444,126
2025-02-18 16:30:01.709,-191.0,-292.0,61.0,9.0,100.0,241.0,150,76,109,100,88,226,458,746
2025-02-18 16:30:01.729,-518.0,-63.0,76.0,22.0,97.0,217.0,151,73,106,90,85,349,494,1010
2025-02-18 16:30:01.749,-444.0,508.0,97.0,115.0,80.0,145.0,149,70,101,83,82,763,489,921
2025-02-18 16:30:01.767,-548.0,1457.0,-64.0,216.0,115.0,-14.0,149,70,100,80,81,811,465,740
2025-02-18 16:30:01.787,-901.0,1969.0,-847.0,211.0,87.0,-292.0,146,66,95,75,72,728,454,383
2025-02-18 16:30:01.807,-1442.0,1791.0,-1241.0,148.0,-110.0,-544.0,144,65,88,71,71,634,462,17
2025-02-18 16:30:01.824,-979.0,1367.0,-1469.0,-26.0,-424.0,-733.0,145,61,83,69,69,420,456,333
2025-02-18 16:30:01.844,2400.0,-252.0,-1141.0,-194.0,-813.0,-710.0,150,64,83,71,73,511,501,877
2025-02-18 16:30:01.864,4558.0,-2252.0,1584.0,-293.0,-703.0,-427.0,156,65,87,72,77,521,475,1010
2025-02-18 16:30:01.881,4348.0,-4857.0,2388.0,-61.0,-220.0,-65.0,155,65,88,71,81,635,461,663
2025-02-18 16:30:01.902,1884.0,-3679.0,1235.0,364.0,155.0,94.0,155,66,89,76,85,724,508,18
2025-02-18 16:30:01.919,230.0,-852.0,293.0,155.0,213.0,150.0,154,65,85,77,85,862,623,16
2025-02-18 16:30:01.938,-43.0,-641.0,283.0,-95.0,71.0,116.0,155,66,87,79,87,674,583,17
2025-02-18 16:30:01.958,249.0,-1459.0,452.0,-100.0,48.0,122.0,155,66,87,79,86,541,488,16
2025-02-18 16:30:01.975,245.0,-1349.0,485.0,35.0,76.0,103.0,157,69,91,82,88,92,458,19
2025-02-18 16:30:01.995,166.0,-1079.0,384.0,15.0,101.0,131.0,162,76,98,89,96,451,463,31
2025-02-18 16:30:02.015,18.0,-817.0,315.0,-25.0,87.0,141.0,161,75,97,88,95,454,479,330
2025-02-18 16:30:02.032,125.0,-626.0,403.0,-11.0,61.0,97.0,161,75,98,88,94,609,471,1011
2025-02-18 16:30:02.052,44.0,-745.0,395.0,-13.0,67.0,90.0,161,75,98,88,94,766,457,1010
2025-02-18 16:30:02.072,-31.0,-836.0,389.0,-13.0,49.0,107.0,161,76,99,89,95,556,467,1011
2025-02-18 16:30:02.089,-11.0,-762.0,416.0,-40.0,54.0,140.0,162,79,101,91,97,144,484,1010
2025-02-18 16:30:02.110,-39.0,-718.0,442.0,-35.0,43.0,165.0,162,77,101,91,96,27,481,714
2025-02-18 16:30:02.127,86.0,-689.0,575.0,71.0,88.0,109.0,169,86,110,100,104,63,494,501
2025-02-18 16:30:02.147,-95.0,-492.0,483.0,47.0,111.0,126.0,168,86,108,97,101,256,496,1010
2025-02-18 16:30:02.168,-270.0,-613.0,369.0,13.0,113.0,131.0,170,88,110,101,105,715,507,1011
2025-02-18 16:30:02.184,-477.0,-505.0,151.0,-14.0,89.0,144.0,168,84,108,99,101,675,511,1010
2025-02-18 16:30:02.204,-505.0,-297.0,246.0,2.0,69.0,144.0,168,85,109,99,103,509,513,1011
2025-02-18 16:30:02.224,-137.0,90.0,319.0,111.0,149.0,84.0,169,86,111,101,102,456,517,1001
2025-02-18 16:30:02.241,-780.0,886.0,-458.0,255.0,122.0,-32.0,166,84,107,98,99,522,511,328
2025-02-18 16:30:02.262,-1439.0,1706.0,-1237.0,224.0,0.0,-220.0,166,85,107,100,100,429,519,35
2025-02-18 16:30:02.281,-1445.0,1605.0,-1284.0,56.0,-234.0,-475.0,164,84,106,98,100,345,523,163
2025-02-18 16:30:02.298,314.0,797.0,-896.0,-148.0,-512.0,-617.0,167,87,108,100,103,486,538,261
2025-02-18 16:30:02.318,3182.0,-1526.0,1654.0,-174.0,-525.0,-459.0,169,85,108,99,100,721,492,809
2025-02-18 16:30:02.339,3129.0,-4187.0,2441.0,-56.0,-182.0,-145.0,170,85,108,98,100,862,455,1011
2025-02-18 16:30:02.356,2004.0,-3752.0,1453.0,166.0,72.0,43.0,170,85,109,99,101,1000,448,1010
2025-02-18 16:30:02.376,793.0,-1880.0,706.0,100.0,142.0,135.0,168,83,106,97,101,1018,494,638
2025-02-18 16:30:02.393,217.0,-1129.0,479.0,-61.0,81.0,139.0,171,85,108,99,103,858,512,34
2025-02-18 16:30:02.414,115.0,-1406.0,412.0,-106.0,54.0,147.0,165,81,105,97,102,272,512,31
2025-02-18 16:30:02.433,17.0,-1284.0,422.0,-24.0,38.0,147.0,167,87,112,102,106,219,499,35
2025-02-18 16:30:02.450,-19.0,-1090.0,549.0,26.0,32.0,147.0,165,83,110,100,104,280,481,369
2025-02-18 16:30:02.470,153.0,-854.0,797.0,7.0,53.0,149.0,168,88,114,105,108,353,489,1011
2025-02-18 16:30:02.490,206.0,-857.0,777.0,-38.0,86.0,158.0,168,90,117,108,110,464,497,1011
2025-02-18 16:30:02.507,38.0,-1046.0,464.0,-35.0,104.0,184.0,164,88,116,108,107,627,494,910
2025-02-18 16:30:02.527,-22.0,-929.0,351.0,-1.0,86.0,194.0,165,92,119,112,112,524,511,370
2025-02-18 16:30:02.548,-124.0,-767.0,381.0,-25.0,87.0,226.0,162,93,118,111,110,385,519,31
2025-02-18 16:30:02.565,94.0,-331.0,452.0,-34.0,102.0,207.0,166,103,124,117,114,253,521,770
2025-02-18 16:30:02.585,-193.0,-223.0,345.0,-8.0,129.0,187.0,162,108,124,116,110,304,522,1010
2025-02-18 16:30:02.605,-661.0,146.0,76.0,39.0,105.0,147.0,165,120,130,123,114,420,530,1010
2025-02-18 16:30:02.622,-1016.0,533.0,-446.0,71.0,6.0,78.0,166,127,131,125,117,506,543,989
2025-02-18 16:30:02.642,-982.0,1118.0,-780.0,109.0,-96.0,-120.0,162,132,128,123,114,555,535,658
2025-02-18 16:30:02.662,-1221.0,1385.0,-674.0,291.0,-213.0,-366.0,162,139,131,124,114,599,526,161
2025-02-18 16:30:02.679,-458.0,1155.0,-554.0,256.0,-381.0,-578.0,156,139,128,121,110,583,529,160
2025-02-18 16:30:02.699,855.0,181.0,135.0,90.0,-624.0,-562.0,154,144,131,121,111,600,512,230
2025-02-18 16:30:02.716,3028.0,-685.0,561.0,-24.0,-719.0,-397.0,153,145,129,123,105,485,499,30
2025-02-18 16:30:02.736,2923.0,-2335.0,1750.0,-93.0,-377.0,-122.0,158,152,132,126,109,612,481,39
2025-02-18 16:30:02.757,2897.0,-2662.0,1960.0,6.0,-54.0,49.0,160,153,133,126,113,718,487,34
2025-02-18 16:30:02.774,1864.0,-1726.0,1676.0,105.0,173.0,81.0,158,151,131,122,111,691,488,31
2025-02-18 16:30:02.794,696.0,-982.0,1149.0,39.0,219.0,101.0,160,155,133,122,113,372,492,34
2025-02-18 16:30:02.814,290.0,-943.0,728.0,-54.0,186.0,145.0,156,152,131,118,107,214,508,37
2025-02-18 16:30:02.831,205.0,-1021.0,596.0,-86.0,153.0,171.0,156,154,134,119,108,268,500,34
2025-02-18 16:30:02.851,230.0,-961.0,637.0,-56.0,145.0,182.0,153,152,133,117,104,331,489,31
2025-02-18 16:30:02.868,355.0,-797.0,730.0,-50.0,159.0,171.0,153,154,134,118,105,290,475,33
2025-02-18 16:30:02.888,217.0,-821.0,624.0,-22.0,164.0,178.0,155,154,136,120,105,445,470,158
2025-02-18 16:30:02.908,53.0,-690.0,541.0,11.0,151.0,184.0,154,152,133,118,105,676,490,133
2025-02-18 16:30:02.925,-101.0,-449.0,527.0,12.0,130.0,170.0,157,155,136,120,106,671,486,317
2025-02-18 16:30:02.946,-153.0,-383.0,513.0,8.0,120.0,149.0,155,152,135,118,104,567,477,533
2025-02-18 16:30:02.966,-215.0,-318.0,467.0,12.0,123.0,130.0,156,153,136,120,105,349,477,708
2025-02-18 16:30:02.982,-370.0,-201.0,357.0,3.0,108.0,117.0,154,152,136,120,105,379,480,870
2025-02-18 16:30:03.003,-471.0,-16.0,295.0,-13.0,77.0,91.0,153,151,135,119,105,587,478,1011
2025-02-18 16:30:03.022,-563.0,91.0,292.0,-33.0,68.0,66.0,156,152,138,121,106,583,485,1011
2025-02-18 16:30:03.039,-625.0,291.0,57.0,-34.0,50.0,24.0,154,150,135,117,103,411,485,1010
2025-02-18 16:30:03.060,-875.0,402.0,-216.0,67.0,-9.0,-108.0,158,153,138,117,107,492,485,1011
2025-02-18 16:30:03.080,-1020.0,714.0,-252.0,180.0,-76.0,-284.0,156,151,136,115,105,594,483,991
2025-02-18 16:30:03.098,-637.0,739.0,-185.0,127.0,-248.0,-444.0,154,153,138,117,107,662,507,993
2025-02-18 16:30:03.117,50.0,152.0,-143.0,72.0,-442.0,-497.0,154,153,138,118,108,750,518,821
2025-02-18 16:30:03.134,1211.0,-1234.0,211.0,4.0,-564.0,-390.0,152,150,134,116,105,578,492,458
2025-02-18 16:30:03.155,2338.0,-1909.0,1412.0,-66.0,-408.0,-203.0,156,153,136,119,112,587,478,34
2025-02-18 16:30:03.175,2573.0,-2681.0,1765.0,-22.0,-146.0,22.0,154,150,134,117,115,712,491,31
2025-02-18 16:30:03.192,1666.0,-1940.0,1697.0,60.0,63.0,90.0,159,154,139,122,124,871,527,37
2025-02-18 16:30:03.212,829.0,-1130.0,1226.0,11.0,117.0,99.0,156,152,135,120,119,828,518,34
2025-02-18 16:30:03.232,318.0,-970.0,866.0,-70.0,98.0,112.0,158,153,136,122,118,538,521,35
2025-02-18 16:30:03.249,306.0,-1033.0,826.0,-124.0,101.0,120.0,159,154,137,122,117,351,516,79
2025-02-18 16:30:03.269,405.0,-1128.0,793.0,-127.0,137.0,148.0,158,149,133,120,115,299,497,386
2025-02-18 16:30:03.289,393.0,-1099.0,739.0,-92.0,167.0,171.0,163,150,136,124,119,296,489,1008
2025-02-18 16:30:03.306,342.0,-885.0,693.0,-81.0,181.0,191.0,160,142,134,123,117,439,489,1010
2025-02-18 16:30:03.326,265.0,-784.0,670.0,-105.0,194.0,214.0,166,141,137,129,121,608,514,1006
2025-02-18 16:30:03.343,92.0,-719.0,517.0,-144.0,184.0,237.0,165,127,131,127,114,690,497,1009
2025-02-18 16:30:03.363,-26.0,-705.0,347.0,-159.0,149.0,251.0,165,121,132,129,115,530,492,1011
2025-02-18 16:30:03.384,-167.0,-653.0,269.0,-160.0,120.0,248.0,167,112,133,130,113,360,494,1011
2025-02-18 16:30:03.401,-102.0,-494.0,318.0,-65.0,109.0,210.0,166,101,129,126,107,442,487,1010
2025-02-18 16:30:03.421,-373.0,-375.0,207.0,16.0,117.0,170.0,169,97,125,123,107,419,504,1009
2025-02-18 16:30:03.440,-557.0,116.0,37.0,51.0,121.0,102.0,166,90,121,113,104,365,507,831
2025-02-18 16:30:03.457,-693.0,549.0,-112.0,80.0,91.0,8.0,169,92,122,113,106,401,516,522
2025-02-18 16:30:03.478,-736.0,796.0,-275.0,125.0,60.0,-110.0,165,88,115,104,97,477,507,416
2025-02-18 16:30:03.498,-987.0,1018.0,-630.0,154.0,-32.0,-284.0,165,89,114,101,96,600,494,461
2025-02-18 16:30:03.515,-932.0,899.0,-990.0,136.0,-161.0,-432.0,164,86,112,100,95,698,493,437
2025-02-18 16:30:03.535,-589.0,795.0,-1079.0,86.0,-384.0,-552.0,165,81,108,98,93,695,484,576
2025-02-18 16:30:03.556,1615.0,588.0,-422.0,-103.0,-555.0,-520.0,172,80,111,102,97,575,487,492
2025-02-18 16:30:03.573,2803.0,-2253.0,1370.0,-158.0,-470.0,-323.0,170,83,109,101,96,726,482,309
2025-02-18 16:30:03.593,3059.0,-3936.0,2104.0,-16.0,-99.0,-136.0,173,87,113,105,103,846,486,220
2025-02-18 16:30:03.609,1975.0,-3389.0,1160.0,195.0,138.0,13.0,172,85,111,103,102,917,526,34
2025-02-18 16:30:03.629,815.0,-1543.0,570.0,97.0,137.0,97.0,174,87,113,107,106,660,537,37
2025-02-18 16:30:03.649,292.0,-1458.0,344.0,-80.0,57.0,111.0,174,88,114,107,107,292,537,38
2025-02-18 16:30:03.666,400.0,-1583.0,422.0,-35.0,18.0,102.0,171,85,111,105,103,148,542,83
2025-02-18 16:30:03.686,347.0,-1411.0,526.0,8.0,39.0,126.0,173,89,115,109,107,119,528,54
2025-02-18 16:30:03.707,198.0,-1106.0,506.0,2.0,45.0,150.0,174,87,112,106,104,314,501,137
2025-02-18 16:30:03.724,138.0,-895.0,479.0,-31.0,32.0,158.0,174,89,114,108,107,347,499,421
2025-02-18 16:30:03.744,199.0,-613.0,554.0,-1.0,40.0,111.0,171,85,111,104,102,405,503,287
2025-02-18 16:30:03.761,79.0,-677.0,455.0,-12.0,47.0,113.0,173,88,114,108,106,450,502,203
2025-02-18 16:30:03.781,-14.0,-598.0,368.0,-12.0,45.0,105.0,173,89,115,108,106,417,504,352
2025-02-18 16:30:03.801,-100.0,-413.0,339.0,-19.0,30.0,87.0,172,87,112,106,104,187,502,809
2025-02-18 16:30:03.818,-146.0,-415.0,356.0,-23.0,19.0,77.0,174,90,115,108,106,90,502,1011
2025-02-18 16:30:03.839,-127.0,-340.0,497.0,-13.0,26.0,56.0,172,87,112,106,103,223,488,1011
2025-02-18 16:30:03.858,-186.0,-303.0,469.0,1.0,54.0,33.0,173,89,115,108,105,338,477,874
2025-02-18 16:30:03.875,-337.0,-237.0,353.0,-12.0,56.0,27.0,173,88,115,107,101,345,455,539
2025-02-18 16:30:03.895,-500.0,148.0,337.0,-4.0,54.0,-4.0,171,88,114,107,103,420,470,238
2025-02-18 16:30:03.916,-690.0,779.0,227.0,22.0,66.0,-74.0,172,89,115,108,103,461,490,37
2025-02-18 16:30:03.933,-978.0,1029.0,-404.0,65.0,46.0,-233.0,169,86,113,105,101,578,492,33
2025-02-18 16:30:03.953,-919.0,873.0,-856.0,2.0,-126.0,-335.0,171,90,115,109,105,747,514,521
2025-02-18 16:30:03.973,222.0,-29.0,-613.0,-114.0,-309.0,-406.0,169,88,112,108,104,781,527,976
2025-02-18 16:30:03.991,1916.0,-1654.0,-146.0,-152.0,-387.0,-351.0,171,89,113,111,108,970,508,1013
2025-02-18 16:30:04.011,2799.0,-3547.0,1912.0,-108.0,-240.0,-181.0,172,90,112,112,109,1018,488,809
2025-02-18 16:30:04.028,2546.0,-3566.0,1467.0,-2.0,74.0,-4.0,171,88,111,111,108,1011,493,616
2025-02-18 16:30:04.047,1557.0,-2572.0,651.0,120.0,170.0,96.0,172,91,114,113,110,895,503,629
2025-02-18 16:30:04.067,660.0,-1391.0,164.0,67.0,158.0,122.0,169,87,111,109,107,729,489,570
2025-02-18 16:30:04.084,312.0,-1278.0,72.0,-22.0,107.0,136.0,169,90,114,114,110,139,503,180
2025-02-18 16:30:04.104,526.0,-1345.0,477.0,3.0,107.0,147.0,165,89,114,113,110,34,509,286
2025-02-18 16:30:04.125,496.0,-1528.0,403.0,93.0,142.0,172.0,164,92,117,116,117,46,499,677
2025-02-18 16:30:04.141,263.0,-1327.0,385.0,179.0,153.0,220.0,165,98,121,125,126,207,491,1010
2025-02-18 16:30:04.162,486.0,-757.0,332.0,175.0,192.0,243.0,163,101,121,129,130,505,479,918
2025-02-18 16:30:04.182,158.0,-581.0,240.0,243.0,155.0,238.0,165,107,126,137,138,426,483,955
2025-02-18 16:30:04.199,56.0,-532.0,213.0,250.0,145.0,205.0,161,106,125,138,139,431,493,761
2025-02-18 16:30:04.220,-62.0,-356.0,755.0,79.0,202.0,189.0,162,105,128,143,146,472,505,762
2025-02-18 16:30:04.237,-128.0,-163.0,565.0,53.0,195.0,194.0,157,96,125,141,145,520,518,660
2025-02-18 16:30:04.257,-81.0,-254.0,434.0,38.0,201.0,185.0,157,92,124,141,145,529,530,419
2025-02-18 16:30:04.277,-366.0,-116.0,677.0,-75.0,234.0,162.0,155,90,120,131,135,493,537,307
2025-02-18 16:30:04.294,-353.0,-1.0,68.0,-10.0,259.0,109.0,144,84,112,114,116,388,560,228
2025-02-18 16:30:04.314,-2425.0,526.0,-815.0,120.0,205.0,87.0,131,85,111,102,97,734,588,35
2025-02-18 16:30:04.333,-1865.0,1366.0,-1396.0,154.0,20.0,-119.0,113,79,103,91,88,851,603,32
2025-02-18 16:30:04.351,-1342.0,1392.0,-1770.0,157.0,-296.0,-341.0,110,79,102,91,88,514,558,33
2025-02-18 16:30:04.371,-114.0,1070.0,-1636.0,109.0,-560.0,-461.0,107,75,99,91,86,490,508,364
2025-02-18 16:30:04.391,1927.0,811.0,364.0,-28.0,-725.0,-486.0,110,79,103,97,92,582,516,598
2025-02-18 16:30:04.408,2969.0,-2551.0,2793.0,-144.0,-406.0,-313.0,114,81,107,100,95,573,495,566
2025-02-18 16:30:04.428,2702.0,-4065.0,2894.0,115.0,-51.0,-12.0,114,83,109,101,99,535,459,343
2025-02-18 16:30:04.445,1281.0,-1807.0,2163.0,115.0,137.0,95.0,114,81,107,100,99,805,458,191
2025-02-18 16:30:04.465,184.0,-931.0,1330.0,-73.0,89.0,104.0,110,78,103,98,95,849,489,29
2025-02-18 16:30:04.486,253.0,-1209.0,1170.0,-159.0,56.0,109.0,115,81,106,100,99,776,493,33
2025-02-18 16:30:04.503,161.0,-1430.0,1028.0,-90.0,86.0,122.0,111,77,103,98,95,445,479,91
2025-02-18 16:30:04.522,-113.0,-930.0,828.0,-56.0,100.0,129.0,115,81,106,101,99,364,474,577
2025-02-18 16:30:04.542,-212.0,-510.0,735.0,-67.0,85.0,98.0,117,82,108,101,100,397,462,1011
2025-02-18 16:30:04.560,-350.0,-551.0,656.0,-89.0,74.0,72.0,115,80,107,99,97,415,458,1011
2025-02-18 16:30:04.580,-250.0,-507.0,599.0,-91.0,59.0,64.0,118,82,107,101,99,211,458,1010
2025-02-18 16:30:04.600,-216.0,-445.0,534.0,-97.0,55.0,63.0,114,79,105,98,96,124,464,1010
2025-02-18 16:30:04.617,-206.0,-191.0,950.0,-106.0,65.0,57.0,118,83,109,102,100,73,466,1010
2025-02-18 16:30:04.637,-307.0,-475.0,364.0,-68.0,55.0,42.0,114,79,104,98,97,169,465,1011
2025-02-18 16:30:04.654,-283.0,-443.0,302.0,-54.0,33.0,34.0,118,82,109,102,100,445,472,1011
2025-02-18 16:30:04.675,-154.0,-379.0,454.0,-59.0,43.0,34.0,118,82,108,102,100,515,476,1010
2025-02-18 16:30:04.694,-225.0,-413.0,397.0,-60.0,56.0,44.0,114,80,106,99,97,500,473,1010
2025-02-18 16:30:04.711,-316.0,-363.0,335.0,-64.0,67.0,66.0,117,82,108,101,99,488,477,801
2025-02-18 16:30:04.731,-505.0,-91.0,188.0,-58.0,66.0,91.0,114,79,106,98,96,549,474,383
2025-02-18 16:30:04.751,-594.0,432.0,-247.0,79.0,93.0,0.0,116,81,108,101,97,548,480,536
2025-02-18 16:30:04.768,-1322.0,1271.0,-1400.0,270.0,11.0,-217.0,114,80,104,98,95,454,485,810
2025-02-18 16:30:04.788,-1324.0,1320.0,-1631.0,223.0,-347.0,-395.0,115,81,105,99,96,353,496,791
2025-02-18 16:30:04.808,594.0,269.0,-732.0,116.0,-671.0,-449.0,116,82,104,101,96,477,525,446
2025-02-18 16:30:04.825,2712.0,-3453.0,2404.0,142.0,-682.0,-245.0,118,80,105,100,95,792,522,30
2025-02-18 16:30:04.846,3787.0,-2732.0,3489.0,222.0,-141.0,6.0,121,82,109,102,97,873,509,31
2025-02-18 16:30:04.866,2005.0,-1679.0,2832.0,103.0,168.0,18.0,118,79,107,98,98,991,490,28
2025-02-18 16:30:04.883,384.0,-1365.0,1570.0,-25.0,167.0,60.0,119,81,107,100,100,931,496,30
2025-02-18 16:30:04.903,32.0,-1128.0,924.0,-157.0,114.0,81.0,117,79,105,98,98,602,465,51
2025-02-18 16:30:04.920,135.0,-1374.0,775.0,-115.0,107.0,79.0,118,79,106,99,99,29,522,28
2025-02-18 16:30:04.940,220.0,-1403.0,673.0,22.0,129.0,76.0,122,83,108,102,102,216,513,330
2025-02-18 16:30:04.961,211.0,-1022.0,659.0,62.0,140.0,103.0,122,78,106,100,100,469,497,324
2025-02-18 16:30:04.978,166.0,-700.0,744.0,29.0,133.0,112.0,126,81,109,102,103,460,497,59
2025-02-18 16:30:04.998,176.0,-739.0,731.0,10.0,143.0,122.0,128,80,107,100,101,298,507,266
2025-02-18 16:30:05.017,116.0,-839.0,640.0,28.0,157.0,150.0,134,81,109,103,103,368,507,679
2025-02-18 16:30:05.035,130.0,-639.0,603.0,58.0,169.0,171.0,140,83,111,106,107,375,499,1011
2025-02-18 16:30:05.055,33.0,-426.0,601.0,50.0,188.0,174.0,143,82,110,106,107,399,494,1011
2025-02-18 16:30:05.075,-167.0,-420.0,486.0,45.0,185.0,168.0,148,86,112,110,111,402,495,1011
2025-02-18 16:30:05.092,-277.0,-364.0,517.0,84.0,186.0,160.0,146,86,110,109,110,412,495,975
2025-02-18 16:30:05.112,-211.0,-413.0,324.0,122.0,218.0,166.0,149,94,113,113,114,531,503,687
2025-02-18 16:30:05.129,-579.0,-231.0,90.0,174.0,208.0,166.0,147,100,110,111,112,547,502,220
2025-02-18 16:30:05.149,-1163.0,-151.0,-307.0,200.0,123.0,123.0,147,109,109,108,104,518,503,33
2025-02-18 16:30:05.169,-845.0,181.0,-1052.0,306.0,-13.0,24.0,146,118,108,102,98,494,527,31
2025-02-18 16:30:05.187,-1555.0,386.0,-1998.0,413.0,-365.0,-92.0,135,123,100,91,89,518,542,117
2025-02-18 16:30:05.207,-689.0,772.0,-1848.0,365.0,-734.0,-90.0,127,131,102,90,88,548,553,423
2025-02-18 16:30:05.226,1377.0,615.0,-858.0,289.0,-944.0,-22.0,121,132,98,89,87,703,529,512
2025-02-18 16:30:05.243,2390.0,-71.0,436.0,258.0,-903.0,49.0,124,135,102,94,93,686,535,77
2025-02-18 16:30:05.264,2672.0,36.0,2926.0,283.0,-607.0,84.0,125,133,100,93,95,692,518,29
2025-02-18 16:30:05.284,2274.0,792.0,3922.0,124.0,-147.0,62.0,128,135,103,94,99,647,521,30
2025-02-18 16:30:05.301,1715.0,861.0,3096.0,-63.0,145.0,9.0,127,138,105,98,102,833,525,32
2025-02-18 16:30:05.322,949.0,611.0,1976.0,-112.0,250.0,-32.0,124,135,102,96,100,858,508,30
2025-02-18 16:30:05.342,448.0,271.0,1533.0,-136.0,304.0,-48.0,129,135,105,100,102,619,504,355
2025-02-18 16:30:05.358,287.0,-158.0,1168.0,-153.0,336.0,-31.0,131,133,103,99,99,517,455,1010
2025-02-18 16:30:05.378,336.0,-327.0,942.0,-106.0,337.0,20.0,132,136,106,102,102,428,423,1010
2025-02-18 16:30:05.395,33.0,86.0,786.0,-91.0,271.0,17.0,125,131,103,99,98,674,402,1011
2025-02-18 16:30:05.416,-105.0,-55.0,624.0,-120.0,212.0,-22.0,127,130,106,101,100,736,428,1010
2025-02-18 16:30:05.436,68.0,-112.0,811.0,-106.0,224.0,-8.0,135,131,112,108,106,392,456,1011
2025-02-18 16:30:05.453,-134.0,-296.0,661.0,-54.0,221.0,16.0,132,124,110,105,102,410,469,1010
2025-02-18 16:30:05.473,-222.0,-119.0,604.0,-17.0,166.0,13.0,131,124,113,106,103,360,478,996
2025-02-18 16:30:05.493,-297.0,47.0,610.0,-44.0,123.0,0.0,125,120,106,102,98,134,479,849
2025-02-18 16:30:05.510,-225.0,1.0,718.0,-85.0,124.0,0.0,125,120,106,101,98,136,489,827
2025-02-18 16:30:05.529,-309.0,-188.0,570.0,-87.0,135.0,12.0,122,116,102,97,94,392,484,980
2025-02-18 16:30:05.550,-445.0,-258.0,373.0,-20.0,96.0,25.0,122,116,104,100,96,564,480,1011
2025-02-18 16:30:05.567,-438.0,58.0,541.0,2.0,60.0,-4.0,122,115,104,100,96,551,480,1010
2025-02-18 16:30:05.587,-338.0,29.0,693.0,-37.0,72.0,-17.0,120,111,102,98,94,673,476,994
2025-02-18 16:30:05.604,-410.0,-191.0,440.0,-41.0,78.0,0.0,121,111,104,100,95,685,478,968
2025-02-18 16:30:05.625,-807.0,-129.0,-570.0,32.0,-15.0,-25.0,116,107,99,97,91,513,478,859
2025-02-18 16:30:05.644,-1191.0,30.0,-1427.0,183.0,-319.0,-87.0,116,110,98,96,92,259,475,1010
2025-02-18 16:30:05.661,-603.0,259.0,-1619.0,255.0,-642.0,-69.0,112,109,94,92,88,215,480,1011
2025-02-18 16:30:05.682,1104.0,276.0,-482.0,192.0,-811.0,-10.0,117,121,98,94,92,315,509,944
2025-02-18 16:30:05.702,1919.0,-377.0,1756.0,105.0,-671.0,67.0,120,123,100,96,93,410,513,712
2025-02-18 16:30:05.719,2128.0,-278.0,2983.0,92.0,-368.0,74.0,120,122,98,94,93,327,535,225
2025-02-18 16:30:05.739,1880.0,396.0,3710.0,-11.0,-2.0,12.0,122,124,101,97,97,493,519,27
2025-02-18 16:30:05.759,1412.0,456.0,2871.0,-137.0,237.0,-23.0,121,118,99,97,96,386,514,25
2025-02-18 16:30:05.776,686.0,176.0,1904.0,-208.0,321.0,-25.0,126,115,101,99,98,569,492,173
2025-02-18 16:30:05.797,550.0,-94.0,1532.0,-296.0,363.0,1.0,131,106,101,99,97,291,495,653
2025-02-18 16:30:05.817,413.0,-359.0,1130.0,-364.0,387.0,67.0,135,102,104,102,99,482,488,1010
2025-02-18 16:30:05.834,242.0,-287.0,877.0,-438.0,357.0,128.0,139,100,106,103,100,681,469,1011
2025-02-18 16:30:05.853,104.0,-250.0,770.0,-486.0,308.0,147.0,141,100,106,104,99,812,465,1011
2025-02-18 16:30:05.871,-60.0,-642.0,598.0,-439.0,268.0,139.0,145,104,110,109,102,454,449,1010
2025-02-18 16:30:05.891,-196.0,-927.0,384.0,-332.0,242.0,145.0,143,101,110,112,107,320,450,1011
2025-02-18 16:30:05.911,-181.0,-471.0,349.0,-200.0,188.0,153.0,145,103,114,121,118,380,466,1011
2025-02-18 16:30:05.927,-267.0,-424.0,2.0,-207.0,166.0,150.0,145,103,115,126,123,610,487,318
2025-02-18 16:30:05.948,-483.0,-630.0,103.0,-121.0,125.0,109.0,144,104,116,130,129,853,516,27
2025-02-18 16:30:05.968,-486.0,-626.0,163.0,94.0,92.0,85.0,146,108,120,136,138,864,561,28
2025-02-18 16:30:05.985,-735.0,-313.0,-147.0,24.0,103.0,67.0,143,109,119,138,140,731,568,26
2025-02-18 16:30:06.005,-731.0,-363.0,139.0,-14.0,73.0,49.0,145,115,121,141,144,591,542,28
2025-02-18 16:30:06.023,-487.0,-246.0,172.0,27.0,53.0,34.0,143,116,118,141,143,622,510,163
2025-02-18 16:30:06.042,-574.0,-152.0,-119.0,70.0,39.0,33.0,143,120,121,144,145,409,489,619
2025-02-18 16:30:06.062,-1015.0,0.0,-352.0,55.0,-7.0,11.0,144,124,122,145,147,29,479,829
2025-02-18 16:30:06.079,-797.0,543.0,-447.0,64.0,-92.0,-32.0,143,125,119,143,145,30,470,1001
2025-02-18 16:30:06.100,-874.0,791.0,-1130.0,11.0,-169.0,-179.0,145,129,121,146,146,149,467,939
2025-02-18 16:30:06.119,-932.0,1195.0,-949.0,103.0,-195.0,-442.0,144,132,118,143,144,263,449,557
2025-02-18 16:30:06.136,432.0,373.0,1778.0,-212.0,-434.0,-593.0,146,139,118,146,148,254,431,376
2025-02-18 16:30:06.157,89.0,833.0,-145.0,148.0,-848.0,-756.0,144,140,117,144,147,224,464,519
2025-02-18 16:30:06.177,4018.0,-1391.0,391.0,-161.0,-795.0,-579.0,146,143,120,147,151,519,486,317
2025-02-18 16:30:06.194,3791.0,-3931.0,1542.0,-136.0,-469.0,-168.0,152,149,127,153,160,952,475,32
2025-02-18 16:30:06.215,2655.0,-3500.0,1971.0,103.0,-58.0,122.0,155,152,130,155,162,1018,489,34
2025-02-18 16:30:06.235,1479.0,-2215.0,1484.0,202.0,206.0,134.0,159,155,134,159,164,1017,517,37
2025-02-18 16:30:06.251,526.0,-865.0,943.0,90.0,261.0,136.0,157,153,131,156,161,860,560,34
2025-02-18 16:30:06.271,307.0,-1215.0,510.0,-89.0,233.0,174.0,156,153,130,156,160,483,559,147
2025-02-18 16:30:06.288,115.0,-1354.0,493.0,-151.0,205.0,227.0,152,150,129,154,160,34,514,29
2025-02-18 16:30:06.308,-61.0,-1140.0,728.0,-141.0,167.0,246.0,158,156,135,161,165,335,493,39
2025-02-18 16:30:06.328,191.0,-862.0,323.0,-35.0,176.0,229.0,154,152,132,157,161,189,469,559
2025-02-18 16:30:06.345,190.0,-633.0,446.0,-46.0,160.0,212.0,152,150,130,155,157,60,510,1011
2025-02-18 16:30:06.366,-36.0,-578.0,175.0,-9.0,105.0,186.0,154,152,132,157,159,550,513,1011
2025-02-18 16:30:06.386,-123.0,-309.0,237.0,20.0,82.0,151.0,149,148,129,154,155,733,508,760
2025-02-18 16:30:06.402,-394.0,-327.0,220.0,-1.0,80.0,125.0,148,148,128,152,154,819,493,735
2025-02-18 16:30:06.423,-354.0,-127.0,227.0,-42.0,70.0,95.0,146,145,125,150,152,632,472,1010
2025-02-18 16:30:06.443,-452.0,-318.0,240.0,-47.0,47.0,62.0,148,146,128,152,153,517,470,1010
2025-02-18 16:30:06.460,-390.0,-209.0,176.0,-17.0,34.0,45.0,155,154,136,160,161,624,476,1004
2025-02-18 16:30:06.480,-478.0,-33.0,168.0,24.0,51.0,25.0,150,149,132,156,156,937,481,680
2025-02-18 16:30:06.497,-676.0,172.0,-174.0,136.0,37.0,-19.0,151,151,133,158,158,1015,489,35
2025-02-18 16:30:06.517,-855.0,709.0,-539.0,291.0,-10.0,-147.0,149,148,130,154,155,960,488,44
2025-02-18 16:30:06.538,-1109.0,1024.0,-616.0,341.0,-192.0,-351.0,153,150,133,157,157,542,473,442
2025-02-18 16:30:06.554,-1197.0,865.0,-483.0,213.0,-459.0,-483.0,148,155,129,154,154,361,464,1008
2025-02-18 16:30:06.575,1589.0,46.0,18.0,60.0,-626.0,-473.0,146,149,130,155,157,296,459,1011
2025-02-18 16:30:06.595,2740.0,-1898.0,1759.0,-114.0,-540.0,-319.0,150,153,131,156,161,455,447,1010
2025-02-18 16:30:06.612,2771.0,-3355.0,2151.0,-44.0,-232.0,-56.0,153,155,134,158,165,637,458,1011
2025-02-18 16:30:06.632,2016.0,-2777.0,1949.0,90.0,115.0,91.0,157,158,136,160,168,687,469,971
2025-02-18 16:30:06.652,944.0,-1518.0,1312.0,143.0,233.0,116.0,153,154,130,154,161,839,499,369
2025-02-18 16:30:06.669,166.0,-1027.0,879.0,112.0,243.0,94.0,154,155,131,155,161,483,563,35
2025-02-18 16:30:06.689,114.0,-1006.0,694.0,64.0,202.0,73.0,150,151,124,146,152,159,532,31
2025-02-18 16:30:06.709,324.0,-1246.0,1020.0,45.0,216.0,105.0,155,150,126,141,144,36,504,144
2025-02-18 16:30:06.726,354.0,-1135.0,806.0,67.0,225.0,159.0,155,147,127,132,132,106,506,35
2025-02-18 16:30:06.746,312.0,-1085.0,1216.0,105.0,249.0,190.0,153,140,123,123,113,266,504,154
2025-02-18 16:30:06.764,76.0,-547.0,578.0,80.0,234.0,193.0,158,142,129,129,110,614,517,755
2025-02-18 16:30:06.784,103.0,-464.0,411.0,100.0,229.0,168.0,161,140,126,123,105,751,514,802
2025-02-18 16:30:06.804,-120.0,-377.0,431.0,118.0,234.0,162.0,161,140,126,118,104,819,504,44
2025-02-18 16:30:06.821,-262.0,-250.0,346.0,123.0,220.0,161.0,156,133,123,112,99,668,492,40
2025-02-18 16:30:06.840,-299.0,-84.0,138.0,128.0,194.0,145.0,154,131,120,111,99,631,484,177
2025-02-18 16:30:06.861,-422.0,-116.0,204.0,129.0,176.0,129.0,153,134,123,112,100,973,488,531
2025-02-18 16:30:06.878,-517.0,-50.0,-12.0,146.0,147.0,110.0,144,129,119,106,95,1015,503,798
2025-02-18 16:30:06.898,-701.0,40.0,-216.0,183.0,75.0,67.0,140,130,119,107,97,927,528,756
2025-02-18 16:30:06.918,-1080.0,163.0,-794.0,258.0,-78.0,-8.0,131,122,112,99,92,834,530,975
2025-02-18 16:30:06.935,-1422.0,219.0,-1268.0,306.0,-422.0,-95.0,126,124,108,97,91,733,533,1011
2025-02-18 16:30:06.955,-343.0,400.0,-1328.0,258.0,-782.0,-55.0,122,129,109,97,89,588,531,1010
2025-02-18 16:30:06.973,1658.0,135.0,-346.0,178.0,-959.0,25.0,120,133,107,96,90,443,538,999
2025-02-18 16:30:06.993,2398.0,-548.0,2613.0,125.0,-599.0,107.0,125,140,112,102,98,186,529,571
2025-02-18 16:30:07.013,1881.0,272.0,3858.0,-9.0,-104.0,45.0,120,138,107,99,98,102,524,38
2025-02-18 16:30:07.030,1228.0,289.0,2994.0,13.0,195.0,-19.0,121,136,107,100,100,289,534,36
2025-02-18 16:30:07.050,539.0,397.0,2282.0,-5.0,267.0,-42.0,118,129,104,97,95,505,520,31
2025-02-18 16:30:07.070,30.0,330.0,1599.0,-109.0,289.0,-34.0,121,127,105,100,97,524,482,496
2025-02-18 16:30:07.087,-41.0,-309.0,1108.0,-169.0,282.0,-3.0,124,127,107,101,95,326,456,1011
2025-02-18 16:30:07.107,-55.0,-598.0,928.0,-119.0,235.0,40.0,120,123,105,98,92,212,459,1011
2025-02-18 16:30:07.127,-155.0,-197.0,745.0,-60.0,182.0,26.0,121,125,108,101,91,342,480,1010
2025-02-18 16:30:07.144,-184.0,-116.0,921.0,-45.0,154.0,17.0,120,123,105,98,88,390,476,1011
2025-02-18 16:30:07.164,-240.0,46.0,979.0,-74.0,157.0,17.0,124,126,110,101,93,738,466,1010
2025-02-18 16:30:07.182,-371.0,-177.0,803.0,-103.0,142.0,35.0,122,125,108,101,92,755,456,955
2025-02-18 16:30:07.202,-313.0,-230.0,676.0,-81.0,102.0,48.0,123,126,110,102,94,452,446,716
2025-02-18 16:30:07.222,-192.0,-64.0,771.0,-89.0,102.0,46.0,123,127,111,103,94,170,455,278
2025-02-18 16:30:07.239,-240.0,-158.0,695.0,-106.0,119.0,47.0,117,123,106,97,89,421,459,64
2025-02-18 16:30:07.259,-320.0,-194.0,595.0,-69.0,127.0,45.0,121,125,109,100,91,833,470,297
2025-02-18 16:30:07.278,-510.0,-123.0,397.0,-32.0,117.0,35.0,118,120,106,98,88,861,469,536
2025-02-18 16:30:07.296,-558.0,65.0,196.0,-2.0,74.0,11.0,120,121,109,100,91,727,475,317
2025-02-18 16:30:07.316,-701.0,312.0,-164.0,35.0,25.0,-51.0,116,117,106,97,87,639,474,352
2025-02-18 16:30:07.336,-1063.0,418.0,-876.0,91.0,-125.0,-160.0,116,116,106,99,89,494,483,441
2025-02-18 16:30:07.354,-1222.0,74.0,-1555.0,201.0,-415.0,-192.0,116,116,103,98,89,297,495,1011
2025-02-18 16:30:07.373,56.0,452.0,-1433.0,247.0,-738.0,-130.0,113,118,100,95,85,30,494,1011
2025-02-18 16:30:07.391,1559.0,38.0,-172.0,170.0,-918.0,-45.0,117,125,103,98,88,223,499,962
2025-02-18 16:30:07.411,2609.0,-771.0,2665.0,113.0,-662.0,77.0,118,126,103,97,90,394,503,820
2025-02-18 16:30:07.431,2328.0,66.0,3855.0,-106.0,-158.0,67.0,121,129,106,97,97,530,495,424
2025-02-18 16:30:07.448,1750.0,-214.0,2977.0,-144.0,89.0,14.0,117,125,103,98,96,880,460,27
2025-02-18 16:30:07.467,1012.0,-398.0,2037.0,-89.0,191.0,-11.0,120,125,105,101,99,744,492,29
2025-02-18 16:30:07.487,544.0,-371.0,1531.0,-117.0,241.0,-7.0,122,122,106,102,99,495,489,30
2025-02-18 16:30:07.504,375.0,-712.0,1266.0,-159.0,272.0,36.0,124,118,105,101,97,402,467,28
2025-02-18 16:30:07.525,440.0,-808.0,1009.0,-158.0,284.0,90.0,131,119,108,105,100,404,466,470
2025-02-18 16:30:07.545,286.0,-605.0,963.0,-145.0,272.0,137.0,132,117,107,104,95,439,481,991
2025-02-18 16:30:07.562,319.0,-286.0,1139.0,-157.0,303.0,153.0,138,116,109,107,94,501,473,1011
2025-02-18 16:30:07.582,97.0,-329.0,990.0,-187.0,322.0,167.0,137,111,109,104,90,589,470,1009
2025-02-18 16:30:07.602,20.0,-382.0,794.0,-176.0,321.0,174.0,145,115,115,111,96,564,472,932
2025-02-18 16:30:07.619,-81.0,-276.0,512.0,-146.0,318.0,173.0,146,116,116,113,97,474,465,610
2025-02-18 16:30:07.639,-337.0,-143.0,266.0,-104.0,288.0,164.0,145,113,115,112,95,384,481,88
2025-02-18 16:30:07.656,-313.0,-34.0,96.0,-79.0,263.0,157.0,149,118,118,116,100,266,511,33
2025-02-18 16:30:07.676,-438.0,-17.0,-121.0,-55.0,235.0,134.0,147,118,115,114,97,539,528,30
2025-02-18 16:30:07.697,-621.0,-64.0,-232.0,18.0,174.0,101.0,150,123,121,119,102,773,547,33
2025-02-18 16:30:07.714,-799.0,243.0,-541.0,107.0,116.0,51.0,149,126,122,121,103,764,551,39
2025-02-18 16:30:07.734,-945.0,469.0,-800.0,107.0,-31.0,-23.0,152,132,127,125,108,841,541,463
2025-02-18 16:30:07.754,-1194.0,550.0,-1257.0,105.0,-212.0,-129.0,154,138,128,124,109,758,514,956
2025-02-18 16:30:07.771,-1266.0,673.0,-1519.0,300.0,-422.0,-328.0,150,139,126,117,97,498,474,1011
2025-02-18 16:30:07.792,-697.0,1360.0,-1115.0,237.0,-756.0,-440.0,150,146,128,121,97,81,454,1011
2025-02-18 16:30:07.811,1007.0,1248.0,-480.0,72.0,-1033.0,-424.0,148,146,126,124,97,143,473,1011
2025-02-18 16:30:07.828,3260.0,-2013.0,1522.0,-162.0,-945.0,-287.0,152,152,130,126,105,211,441,1003
2025-02-18 16:30:07.848,3424.0,-2605.0,2922.0,-15.0,-451.0,-23.0,152,153,128,126,111,498,437,1003
2025-02-18 16:30:07.865,2656.0,-1622.0,2595.0,56.0,30.0,119.0,153,156,132,129,117,867,466,37
2025-02-18 16:30:07.885,1254.0,-778.0,2071.0,57.0,185.0,61.0,155,160,135,129,118,824,515,37
2025-02-18 16:30:07.905,331.0,-450.0,1425.0,-43.0,178.0,50.0,154,158,134,127,116,657,529,35
2025-02-18 16:30:07.922,306.0,-821.0,1259.0,-131.0,153.0,79.0,157,161,136,129,120,536,536,38
2025-02-18 16:30:07.943,427.0,-1075.0,1061.0,-130.0,178.0,114.0,149,154,130,120,112,189,506,115
2025-02-18 16:30:07.963,421.0,-941.0,880.0,-103.0,216.0,131.0,146,154,130,117,108,240,483,337
2025-02-18 16:30:07.980,216.0,-744.0,608.0,-54.0,219.0,156.0,147,157,133,118,107,303,480,1010
2025-02-18 16:30:08.000,-82.0,-388.0,622.0,-32.0,197.0,155.0,144,154,130,114,102,61,498,1011
2025-02-18 16:30:08.020,-206.0,-213.0,525.0,-37.0,181.0,142.0,146,154,132,115,102,362,505,940
2025-02-18 16:30:08.037,-253.0,-146.0,571.0,-42.0,163.0,121.0,144,152,130,115,101,470,480,792
2025-02-18 16:30:08.058,-207.0,-219.0,459.0,-38.0,156.0,108.0,145,155,134,118,104,533,473,839
2025-02-18 16:30:08.075,-287.0,-166.0,440.0,-32.0,123.0,86.0,142,152,131,115,102,649,471,479
2025-02-18 16:30:08.095,-261.0,-170.0,386.0,-44.0,92.0,53.0,141,151,130,115,103,501,483,486
2025-02-18 16:30:08.115,-389.0,-207.0,317.0,-46.0,63.0,43.0,142,152,131,115,103,713,490,735
2025-02-18 16:30:08.132,-474.0,103.0,146.0,-53.0,37.0,49.0,141,149,129,113,102,1005,489,1011
2025-02-18 16:30:08.152,-748.0,365.0,-215.0,-2.0,-9.0,-40.0,143,147,131,112,104,1010,491,878
2025-02-18 16:30:08.171,-1031.0,873.0,-713.0,153.0,-105.0,-255.0,139,149,129,108,102,825,475,637
2025-02-18 16:30:08.188,-886.0,1320.0,-613.0,58.0,-328.0,-416.0,138,151,131,110,102,308,480,395
2025-02-18 16:30:08.209,559.0,182.0,300.0,-114.0,-480.0,-456.0,136,149,129,108,99,227,480,709
2025-02-18 16:30:08.229,2353.0,-1819.0,991.0,-13.0,-551.0,-389.0,140,152,130,113,107,468,457,1011
2025-02-18 16:30:08.246,2551.0,-2369.0,2082.0,45.0,-286.0,-178.0,141,153,132,117,117,783,447,1013
2025-02-18 16:30:08.266,2210.0,-2353.0,2047.0,41.0,-22.0,47.0,141,154,132,118,121,761,470,722
2025-02-18 16:30:08.286,1286.0,-1539.0,1822.0,69.0,115.0,81.0,146,159,137,123,126,756,502,130
2025-02-18 16:30:08.303,503.0,-976.0,1243.0,-10.0,112.0,68.0,140,156,134,118,119,655,545,53
2025-02-18 16:30:08.323,217.0,-1162.0,1011.0,-73.0,87.0,73.0,143,159,138,122,121,294,545,35
2025-02-18 16:30:08.340,410.0,-1358.0,952.0,-39.0,109.0,90.0,140,155,133,119,118,217,523,101
2025-02-18 16:30:08.360,473.0,-1231.0,1025.0,10.0,157.0,121.0,145,158,135,124,121,267,515,664
2025-02-18 16:30:08.381,460.0,-999.0,1003.0,47.0,191.0,138.0,150,159,135,127,124,162,509,1011
2025-02-18 16:30:08.398,430.0,-832.0,985.0,66.0,237.0,152.0,150,156,131,129,123,286,532,242
2025-02-18 16:30:08.418,189.0,-732.0,828.0,70.0,273.0,158.0,156,156,131,134,125,402,532,36
2025-02-18 16:30:08.438,1.0,-570.0,739.0,54.0,277.0,181.0,155,149,125,129,121,407,517,39
2025-02-18 16:30:08.455,-72.0,-430.0,636.0,32.0,267.0,192.0,159,147,125,124,120,499,503,36
2025-02-18 16:30:08.475,-74.0,-290.0,482.0,25.0,260.0,191.0,156,139,118,116,112,564,498,42
2025-02-18 16:30:08.495,-348.0,-246.0,234.0,62.0,244.0,170.0,160,138,118,115,111,812,514,37
2025-02-18 16:30:08.512,-536.0,-56.0,79.0,108.0,211.0,127.0,159,132,116,110,106,926,535,36
2025-02-18 16:30:08.532,-522.0,101.0,-40.0,116.0,168.0,90.0,154,121,112,105,101,839,532,32
2025-02-18 16:30:08.549,-600.0,161.0,-265.0,117.0,103.0,49.0,151,120,113,107,103,652,527,35
2025-02-18 16:30:08.570,-846.0,-11.0,-595.0,169.0,8.0,-8.0,140,117,108,103,99,543,488,578
2025-02-18 16:30:08.590,-918.0,39.0,-876.0,309.0,-163.0,-65.0,134,120,108,103,95,503,488,1011
2025-02-18 16:30:08.607,-966.0,279.0,-1308.0,329.0,-405.0,-76.0,123,116,100,95,92,319,495,1009
2025-02-18 16:30:08.627,178.0,786.0,-1780.0,333.0,-792.0,-57.0,119,124,104,96,92,110,516,1010
2025-02-18 16:30:08.647,1540.0,381.0,-695.0,266.0,-971.0,4.0,120,130,103,98,95,208,513,1011
2025-02-18 16:30:08.664,2372.0,-448.0,1371.0,278.0,-806.0,69.0,122,131,102,98,97,347,532,739
2025-02-18 16:30:08.685,2286.0,521.0,3451.0,193.0,-336.0,66.0,127,134,102,99,101,554,520,32
2025-02-18 16:30:08.701,1992.0,847.0,3794.0,-18.0,18.0,3.0,125,130,101,98,101,728,527,29
2025-02-18 16:30:08.722,1289.0,645.0,2653.0,-79.0,206.0,-28.0,125,127,99,99,101,654,511,29
2025-02-18 16:30:08.742,624.0,369.0,1834.0,-95.0,230.0,-39.0,124,122,100,98,98,583,497,540
2025-02-18 16:30:08.761,322.0,75.0,1655.0,-154.0,270.0,-29.0,128,122,102,101,100,263,482,1008
2025-02-18 16:30:08.778,384.0,-294.0,1323.0,-189.0,313.0,7.0,130,119,101,100,98,285,465,1010
2025-02-18 16:30:08.799,261.0,-332.0,1029.0,-141.0,298.0,51.0,125,118,100,99,96,557,483,1011
2025-02-18 16:30:08.816,34.0,-189.0,933.0,-84.0,235.0,28.0,126,122,106,103,96,728,486,1010
2025-02-18 16:30:08.836,-51.0,-151.0,1027.0,-84.0,210.0,19.0,124,121,105,102,95,903,482,1010
2025-02-18 16:30:08.856,46.0,-55.0,1032.0,-109.0,229.0,42.0,139,134,119,116,109,930,490,1011
2025-02-18 16:30:08.873,-115.0,-143.0,690.0,-142.0,231.0,67.0,140,134,119,116,109,720,478,818
2025-02-18 16:30:08.893,-366.0,-64.0,395.0,-102.0,178.0,49.0,137,132,117,115,108,352,479,421
2025-02-18 16:30:08.913,-359.0,203.0,514.0,-71.0,154.0,-9.0,136,136,118,114,108,524,489,331
2025-02-18 16:30:08.930,-342.0,260.0,403.0,-107.0,159.0,-23.0,133,135,114,111,103,901,494,471
2025-02-18 16:30:08.950,-500.0,136.0,52.0,-113.0,130.0,-24.0,137,139,118,113,106,891,502,499
2025-02-18 16:30:08.970,-888.0,90.0,-1033.0,-71.0,16.0,-43.0,133,135,114,110,103,676,501,200
2025-02-18 16:30:08.987,-1226.0,-37.0,-1727.0,102.0,-292.0,-133.0,134,134,113,110,102,512,503,346
2025-02-18 16:30:09.007,-519.0,396.0,-1761.0,177.0,-573.0,-163.0,136,137,114,110,102,101,513,966
2025-02-18 16:30:09.024,1082.0,-56.0,-681.0,160.0,-766.0,-71.0,136,139,113,108,100,46,520,1011
2025-02-18 16:30:09.045,1916.0,-621.0,514.0,182.0,-748.0,-10.0,146,144,117,111,107,244,524,1011
2025-02-18 16:30:09.065,2396.0,-418.0,2664.0,160.0,-516.0,64.0,147,143,115,110,109,462,526,1010
2025-02-18 16:30:09.082,2081.0,272.0,3640.0,-85.0,-112.0,52.0,154,148,119,115,114,610,517,610
2025-02-18 16:30:09.102,1624.0,-171.0,3105.0,-236.0,136.0,32.0,149,144,117,112,113,650,511,37
2025-02-18 16:30:09.122,1120.0,-620.0,2173.0,-239.0,262.0,20.0,152,143,119,114,115,382,521,39
2025-02-18 16:30:09.139,705.0,-865.0,1512.0,-196.0,341.0,41.0,156,137,121,118,118,276,521,411
2025-02-18 16:30:09.160,431.0,-840.0,1164.0,-200.0,386.0,94.0,155,118,118,118,118,427,509,1010
2025-02-18 16:30:09.180,430.0,-474.0,1062.0,-325.0,398.0,147.0,159,106,123,123,124,530,496,1011
2025-02-18 16:30:09.197,163.0,-900.0,1186.0,-381.0,348.0,189.0,155,96,120,121,120,446,493,1011
2025-02-18 16:30:09.217,-74.0,-990.0,451.0,-341.0,260.0,210.0,159,95,125,125,116,376,493,1010
2025-02-18 16:30:09.233,-138.0,-877.0,492.0,-280.0,218.0,244.0,157,88,121,122,110,533,492,929
2025-02-18 16:30:09.254,-289.0,-778.0,362.0,-232.0,184.0,215.0,158,88,122,123,111,602,493,675
2025-02-18 16:30:09.274,-422.0,-590.0,150.0,-147.0,161.0,166.0,158,88,122,122,111,425,502,307
2025-02-18 16:30:09.291,-465.0,-543.0,37.0,-101.0,157.0,116.0,157,84,119,117,106,235,520,35
2025-02-18 16:30:09.311,-521.0,-295.0,172.0,-94.0,132.0,115.0,156,87,122,116,107,316,529,39
2025-02-18 16:30:09.331,-672.0,-187.0,-3.0,-61.0,79.0,85.0,153,84,119,111,103,705,548,36
2025-02-18 16:30:09.348,-655.0,-78.0,20.0,-65.0,49.0,56.0,155,88,122,113,104,775,556,40
2025-02-18 16:30:09.368,-486.0,-140.0,163.0,-46.0,51.0,40.0,148,83,118,106,97,483,525,34
2025-02-18 16:30:09.385,-437.0,16.0,-109.0,29.0,54.0,3.0,150,86,119,109,100,199,503,196
2025-02-18 16:30:09.405,-670.0,69.0,-13.0,26.0,33.0,-29.0,147,87,120,109,101,333,496,616
2025-02-18 16:30:09.425,-625.0,108.0,20.0,21.0,8.0,-54.0,141,84,116,104,98,460,493,988
2025-02-18 16:30:09.442,-527.0,260.0,-58.0,71.0,-2.0,-78.0,138,87,117,105,99,516,500,1011
2025-02-18 16:30:09.463,-691.0,788.0,-458.0,177.0,-5.0,-202.0,130,83,113,99,94,479,492,1010
2025-02-18 16:30:09.483,-1124.0,1323.0,-988.0,236.0,-146.0,-360.0,128,86,114,101,96,331,486,1011
2025-02-18 16:30:09.500,-933.0,1452.0,-1323.0,211.0,-397.0,-548.0,122,81,107,96,92,295,478,978
2025-02-18 16:30:09.520,889.0,565.0,-1155.0,150.0,-744.0,-671.0,128,84,112,102,98,327,480,1011
2025-02-18 16:30:09.540,3097.0,-2128.0,91.0,136.0,-860.0,-463.0,132,87,111,104,102,796,511,732
2025-02-18 16:30:09.557,3972.0,-3841.0,3262.0,158.0,-452.0,-12.0,131,82,109,102,99,1018,524,36
2025-02-18 16:30:09.577,2585.0,-2364.0,2971.0,167.0,38.0,36.0,132,85,112,105,104,1017,552,35
2025-02-18 16:30:09.597,1311.0,-1753.0,2102.0,111.0,183.0,55.0,129,80,109,101,100,880,577,31
2025-02-18 16:30:09.614,348.0,-823.0,1420.0,-59.0,185.0,98.0,131,83,111,104,104,469,592,37
2025-02-18 16:30:09.634,132.0,-954.0,1028.0,-211.0,171.0,103.0,128,80,109,101,100,76,557,30
2025-02-18 16:30:09.654,324.0,-1557.0,729.0,-215.0,181.0,145.0,131,83,111,105,103,64,521,241
2025-02-18 16:30:09.672,186.0,-1488.0,383.0,-116.0,169.0,176.0,131,81,110,104,101,189,495,1010
2025-02-18 16:30:09.692,93.0,-1009.0,363.0,-62.0,148.0,187.0,129,79,107,101,99,342,473,1011
2025-02-18 16:30:09.709,206.0,-651.0,517.0,-72.0,147.0,195.0,132,81,110,104,101,600,461,1009
2025-02-18 16:30:09.729,89.0,-694.0,400.0,-101.0,152.0,210.0,130,79,108,101,98,784,462,902
2025-02-18 16:30:09.748,-245.0,-625.0,307.0,-60.0,88.0,198.0,131,81,109,103,100,636,491,704
2025-02-18 16:30:09.766,-250.0,-625.0,261.0,-23.0,56.0,183.0,130,79,107,102,98,502,500,1010
2025-02-18 16:30:09.786,-136.0,-402.0,311.0,-12.0,61.0,168.0,132,81,109,104,100,293,510,1011
2025-02-18 16:30:09.806,-188.0,-311.0,347.0,-22.0,75.0,153.0,135,83,111,106,101,334,522,1010
2025-02-18 16:30:09.823,-423.0,-311.0,202.0,-10.0,66.0,128.0,133,81,109,104,100,414,527,1010
2025-02-18 16:30:09.844,-502.0,-167.0,132.0,8.0,36.0,120.0,135,83,112,106,102,432,533,1008
2025-02-18 16:30:09.860,-605.0,361.0,-32.0,5.0,12.0,114.0,132,81,109,105,100,362,531,607
2025-02-18 16:30:09.880,-771.0,1122.0,-317.0,60.0,30.0,-18.0,131,81,109,106,100,345,538,145
2025-02-18 16:30:09.900,-1248.0,1825.0,-935.0,206.0,6.0,-266.0,127,82,110,105,99,344,533,80
2025-02-18 16:30:09.921,-1342.0,1934.0,-1550.0,295.0,-238.0,-520.0,120,80,108,103,96,392,517,725
2025-02-18 16:30:09.938,-33.0,1313.0,-1214.0,303.0,-597.0,-611.0,130,82,109,106,99,521,503,1011
2025-02-18 16:30:09.958,2498.0,229.0,128.0,137.0,-837.0,-484.0,134,80,107,105,98,714,498,1011
2025-02-18 16:30:09.975,3862.0,-3251.0,2043.0,131.0,-580.0,-211.0,142,82,110,108,99,796,477,930
2025-02-18 16:30:09.995,4102.0,-2631.0,3373.0,198.0,40.0,12.0,140,80,110,105,103,942,467,645
2025-02-18 16:30:10.015,1464.0,-1179.0,2537.0,151.0,276.0,-22.0,140,81,111,106,104,1010,497,29
2025-02-18 16:30:10.032,264.0,-724.0,1286.0,-20.0,271.0,30.0,140,82,109,106,104,801,513,27
2025-02-18 16:30:10.052,-392.0,-512.0,583.0,-98.0,173.0,2.0,138,79,107,104,102,28,526,27
2025-02-18 16:30:10.071,-112.0,-1346.0,476.0,-7.0,111.0,-10.0,141,82,109,106,104,35,519,28
2025-02-18 16:30:10.089,104.0,-1234.0,545.0,172.0,112.0,13.0,142,81,109,107,104,203,497,85
2025-02-18 16:30:10.109,-64.0,-509.0,549.0,281.0,86.0,2.0,149,85,111,112,110,467,479,358
2025-02-18 16:30:10.126,-103.0,-96.0,696.0,265.0,46.0,-20.0,148,82,111,109,108,549,424,30
2025-02-18 16:30:10.146,106.0,147.0,729.0,227.0,17.0,-40.0,151,84,113,111,110,614,441,87
2025-02-18 16:30:10.167,129.0,-227.0,968.0,240.0,31.0,-50.0,156,87,114,115,113,759,479,577
2025-02-18 16:30:10.184,148.0,-158.0,1042.0,267.0,78.0,-66.0,156,84,112,113,111,684,514,796
2025-02-18 16:30:10.204,95.0,-11.0,1063.0,281.0,113.0,-94.0,162,87,115,115,113,741,517,947
2025-02-18 16:30:10.224,8.0,11.0,1007.0,251.0,133.0,-108.0,161,84,111,111,110,753,518,1009
2025-02-18 16:30:10.241,-111.0,89.0,925.0,173.0,109.0,-104.0,165,87,113,113,112,631,498,944
2025-02-18 16:30:10.262,-10.0,-154.0,932.0,134.0,75.0,-98.0,163,83,109,110,109,461,480,826
2025-02-18 16:30:10.281,271.0,-553.0,995.0,121.0,47.0,-76.0,165,86,111,112,111,574,473,762
2025-02-18 16:30:10.298,539.0,-1024.0,1009.0,110.0,38.0,-32.0,167,86,113,113,112,620,480,804
2025-02-18 16:30:10.318,903.0,-1613.0,1061.0,87.0,14.0,67.0,166,85,107,111,110,467,495,834
2025-02-18 16:30:10.338,1571.0,-2378.0,1503.0,73.0,-26.0,226.0,171,87,112,113,112,352,514,950
2025-02-18 16:30:10.355,2122.0,-2391.0,2367.0,-14.0,34.0,510.0,170,85,110,110,110,396,499,1009
2025-02-18 16:30:10.376,2877.0,-1647.0,1932.0,-135.0,164.0,766.0,174,87,113,113,112,423,483,1010
2025-02-18 16:30:10.393,3081.0,-313.0,1946.0,-175.0,165.0,883.0,171,83,107,105,105,330,464,1006
2025-02-18 16:30:10.413,1928.0,1723.0,1673.0,-328.0,171.0,789.0,175,85,110,104,104,375,454,994
2025-02-18 16:30:10.433,1162.0,2737.0,1425.0,-299.0,207.0,608.0,175,86,113,103,104,379,461,877
2025-02-18 16:30:10.450,-56.0,3856.0,489.0,-97.0,176.0,240.0,172,84,113,100,100,331,452,613
2025-02-18 16:30:10.470,81.0,3245.0,603.0,137.0,116.0,77.0,174,87,116,102,102,187,445,262
2025-02-18 16:30:10.490,-203.0,3602.0,577.0,109.0,78.0,-60.0,171,83,113,99,100,263,446,29
2025-02-18 16:30:10.507,31.0,2575.0,569.0,43.0,35.0,-163.0,174,86,114,103,103,373,473,32
2025-02-18 16:30:10.527,172.0,1357.0,628.0,41.0,15.0,-210.0,171,83,109,100,99,685,484,135
2025-02-18 16:30:10.544,363.0,373.0,752.0,123.0,-6.0,-240.0,174,87,113,105,104,756,499,334
2025-02-18 16:30:10.565,171.0,401.0,978.0,166.0,-16.0,-291.0,172,84,110,103,102,865,506,445
2025-02-18 16:30:10.584,188.0,265.0,867.0,160.0,-27.0,-304.0,169,81,106,100,98,888,516,492
2025-02-18 16:30:10.601,59.0,301.0,770.0,128.0,-57.0,-304.0,169,83,107,103,101,848,516,729
2025-02-18 16:30:10.621,103.0,124.0,801.0,111.0,-94.0,-238.0,167,80,105,101,98,457,519,876
2025-02-18 16:30:10.641,110.0,100.0,1002.0,69.0,-138.0,-260.0,168,82,107,103,101,392,519,936
2025-02-18 16:30:10.659,82.0,-26.0,775.0,55.0,-147.0,-293.0,167,80,105,101,99,414,508,791
2025-02-18 16:30:10.679,169.0,-356.0,1038.0,68.0,-126.0,-287.0,169,84,108,105,104,365,512,680
2025-02-18 16:30:10.699,124.0,-458.0,978.0,135.0,-119.0,-249.0,170,85,109,107,105,470,521,391
2025-02-18 16:30:10.717,200.0,-424.0,1192.0,137.0,-128.0,-180.0,168,83,106,105,104,423,529,229
2025-02-18 16:30:10.737,317.0,-525.0,1392.0,39.0,-140.0,-132.0,170,85,107,107,105,317,543,250
2025-02-18 16:30:10.756,732.0,-1278.0,1639.0,4.0,-98.0,-37.0,169,83,105,104,107,389,539,339
2025-02-18 16:30:10.773,1157.0,-1884.0,2048.0,-5.0,14.0,75.0,170,84,106,107,104,363,532,497
2025-02-18 16:30:10.793,1567.0,-2228.0,1983.0,-82.0,117.0,261.0,170,82,105,103,100,390,503,639
2025-02-18 16:30:10.813,1856.0,-2656.0,1770.0,-121.0,191.0,592.0,170,82,103,100,97,592,474,829
2025-02-18 16:30:10.830,2028.0,-825.0,1629.0,-281.0,205.0,741.0,171,83,104,96,95,816,462,960
2025-02-18 16:30:10.850,1321.0,1093.0,1424.0,-375.0,159.0,691.0,169,80,101,92,90,861,453,1011
2025-02-18 16:30:10.868,563.0,1836.0,1208.0,-245.0,167.0,502.0,168,83,104,93,91,570,454,1010
2025-02-18 16:30:10.888,-462.0,3191.0,604.0,101.0,151.0,184.0,165,81,103,91,87,481,464,855
2025-02-18 16:30:10.908,-556.0,3524.0,979.0,88.0,98.0,69.0,166,83,105,92,90,542,479,368
2025-02-18 16:30:10.925,-388.0,3236.0,1340.0,5.0,95.0,-91.0,169,86,110,95,93,466,479,263
2025-02-18 16:30:10.945,-80.0,1314.0,1375.0,-14.0,102.0,-183.0,166,83,108,94,91,682,482,317
2025-02-18 16:30:10.965,117.0,187.0,1521.0,6.0,150.0,-206.0,166,84,106,95,93,821,494,460
2025-02-18 16:30:10.982,-14.0,-59.0,1675.0,-56.0,170.0,-212.0,163,82,104,95,92,755,479,591
2025-02-18 16:30:11.002,79.0,-170.0,1608.0,-243.0,211.0,-205.0,171,93,115,106,103,759,488,542
2025-02-18 16:30:11.022,52.0,-668.0,1033.0,-373.0,251.0,-208.0,168,91,115,104,101,735,471,765
2025-02-18 16:30:11.040,-159.0,-954.0,574.0,-382.0,255.0,-177.0,167,93,118,107,104,660,464,1000
2025-02-18 16:30:11.060,-221.0,-841.0,113.0,-293.0,237.0,-149.0,165,91,116,107,104,468,464,881
2025-02-18 16:30:11.076,-466.0,-652.0,-79.0,-137.0,207.0,-126.0,162,89,115,109,109,330,462,504
2025-02-18 16:30:11.097,-635.0,-533.0,-258.0,-39.0,155.0,-116.0,162,92,120,117,119,144,470,428
2025-02-18 16:30:11.116,-525.0,-177.0,-140.0,15.0,127.0,-90.0,156,94,119,124,127,50,491,466
2025-02-18 16:30:11.133,-8.0,30.0,-324.0,67.0,260.0,-95.0,155,106,124,135,136,85,549,530
2025-02-18 16:30:11.154,-1057.0,-287.0,-385.0,86.0,173.0,-105.0,152,110,123,135,137,426,588,381
2025-02-18 16:30:11.174,-674.0,54.0,-732.0,10.0,38.0,-163.0,153,118,124,142,142,551,564,675
2025-02-18 16:30:11.191,-561.0,-104.0,-371.0,13.0,-65.0,-221.0,154,120,124,145,144,662,535,622
2025-02-18 16:30:11.212,-402.0,111.0,-867.0,14.0,-85.0,-369.0,153,124,122,144,142,608,481,1007
2025-02-18 16:30:11.232,-1161.0,82.0,-190.0,123.0,-280.0,-474.0,156,133,123,146,148,717,464,1010
2025-02-18 16:30:11.249,-577.0,96.0,-227.0,95.0,-501.0,-550.0,152,135,121,145,148,493,463,1010
2025-02-18 16:30:11.268,988.0,-645.0,-92.0,-41.0,-633.0,-508.0,153,142,124,149,152,443,479,1010
2025-02-18 16:30:11.288,1931.0,-1135.0,702.0,-10.0,-636.0,-370.0,153,141,121,147,152,568,449,1010
2025-02-18 16:30:11.305,2722.0,-2530.0,954.0,-67.0,-472.0,-154.0,160,146,126,153,159,764,491,1010
2025-02-18 16:30:11.326,2604.0,-2888.0,1533.0,46.0,-178.0,17.0,164,149,129,155,163,839,505,752
2025-02-18 16:30:11.343,1696.0,-2225.0,1249.0,120.0,82.0,114.0,162,148,131,155,162,782,518,224
2025-02-18 16:30:11.363,789.0,-1577.0,941.0,86.0,198.0,145.0,164,151,131,157,165,574,519,35
2025-02-18 16:30:11.383,359.0,-1289.0,703.0,77.0,234.0,180.0,160,148,126,153,161,52,506,32
2025-02-18 16:30:11.400,438.0,-1117.0,475.0,-16.0,225.0,198.0,154,142,123,150,156,27,492,27
2025-02-18 16:30:11.420,175.0,-1001.0,455.0,-98.0,199.0,234.0,150,138,119,147,152,189,490,24
2025-02-18 16:30:11.440,94.0,-926.0,279.0,-66.0,155.0,184.0,152,140,123,150,155,428,447,130
2025-02-18 16:30:11.458,15.0,-890.0,342.0,-13.0,115.0,170.0,152,140,124,151,155,709,452,1010
2025-02-18 16:30:11.478,192.0,-885.0,262.0,23.0,100.0,190.0,150,137,121,149,152,691,464,1010
2025-02-18 16:30:11.494,28.0,-824.0,243.0,6.0,78.0,206.0,153,139,123,150,153,226,466,1006
2025-02-18 16:30:11.514,-8.0,-526.0,383.0,18.0,64.0,190.0,149,136,121,148,151,105,479,1011
2025-02-18 16:30:11.534,-124.0,-418.0,467.0,-2.0,63.0,174.0,153,139,125,152,154,146,495,951
2025-02-18 16:30:11.552,-151.0,-387.0,412.0,-8.0,87.0,164.0,150,136,122,149,151,568,494,331
2025-02-18 16:30:11.572,-309.0,-259.0,417.0,3.0,97.0,159.0,153,138,124,152,152,754,500,28
2025-02-18 16:30:11.592,-496.0,174.0,164.0,51.0,100.0,121.0,153,138,125,151,151,809,499,28
2025-02-18 16:30:11.609,-536.0,587.0,42.0,98.0,99.0,26.0,152,136,123,149,149,717,522,26
2025-02-18 16:30:11.629,-988.0,968.0,-561.0,181.0,13.0,-104.0,154,138,125,152,151,845,522,144
2025-02-18 16:30:11.649,-1127.0,1431.0,-929.0,187.0,-168.0,-369.0,151,137,123,149,149,921,484,399
2025-02-18 16:30:11.667,1284.0,936.0,1504.0,-103.0,-355.0,-519.0,152,140,124,150,151,768,460,937
2025-02-18 16:30:11.687,795.0,-355.0,-299.0,77.0,-553.0,-486.0,149,138,121,148,150,136,438,1011
2025-02-18 16:30:11.707,2583.0,-1882.0,718.0,55.0,-564.0,-257.0,153,141,123,150,155,235,457,1011
2025-02-18 16:30:11.724,2450.0,-2438.0,2133.0,-63.0,-297.0,-128.0,158,142,123,150,156,728,490,1011
2025-02-18 16:30:11.744,1784.0,-2424.0,2207.0,1.0,-11.0,-20.0,160,140,122,149,155,981,500,893
2025-02-18 16:30:11.761,916.0,-1722.0,1494.0,111.0,167.0,14.0,158,138,124,149,156,930,511,93
2025-02-18 16:30:11.781,204.0,-1108.0,995.0,101.0,187.0,22.0,157,130,121,147,153,550,504,23
2025-02-18 16:30:11.801,65.0,-740.0,670.0,58.0,142.0,12.0,157,119,119,147,151,146,502,24
2025-02-18 16:30:11.818,-17.0,-737.0,712.0,8.0,91.0,0.0,155,109,117,144,145,146,485,21
2025-02-18 16:30:11.838,90.0,-851.0,616.0,49.0,80.0,-4.0,156,104,117,143,143,166,478,65
2025-02-18 16:30:11.859,256.0,-818.0,749.0,105.0,88.0,0.0,157,102,118,141,141,372,483,603
2025-02-18 16:30:11.876,217.0,-630.0,555.0,139.0,94.0,-1.0,155,96,114,136,134,764,516,328
2025-02-18 16:30:11.896,55.0,-475.0,566.0,125.0,78.0,-1.0,156,92,113,135,130,681,510,102
2025-02-18 16:30:11.913,7.0,-379.0,682.0,102.0,58.0,-13.0,155,84,110,130,119,439,487,336
2025-02-18 16:30:11.933,16.0,-411.0,503.0,100.0,30.0,-18.0,156,81,107,124,110,154,487,489
2025-02-18 16:30:11.953,20.0,-557.0,601.0,133.0,31.0,-18.0,156,79,104,114,100,280,492,550
2025-02-18 16:30:11.969,43.0,-655.0,735.0,174.0,31.0,-34.0,155,75,100,100,92,206,505,680
2025-02-18 16:30:11.989,234.0,-712.0,730.0,213.0,56.0,-43.0,156,74,98,92,86,76,514,1010
2025-02-18 16:30:12.010,511.0,-1196.0,452.0,286.0,57.0,-45.0,155,73,93,87,83,336,524,936
2025-02-18 16:30:12.027,1005.0,-1697.0,942.0,339.0,136.0,22.0,158,72,92,84,83,837,515,503
2025-02-18 16:30:12.047,1359.0,-2293.0,738.0,326.0,214.0,168.0,157,68,88,80,79,1018,504,104
2025-02-18 16:30:12.067,1608.0,-2362.0,768.0,245.0,232.0,439.0,159,69,87,79,79,939,483,22
2025-02-18 16:30:12.084,1586.0,-1560.0,958.0,59.0,94.0,645.0,163,70,87,78,78,746,461,28
2025-02-18 16:30:12.104,1329.0,163.0,1338.0,-157.0,-7.0,728.0,163,68,85,76,76,559,464,235
2025-02-18 16:30:12.121,863.0,1032.0,1812.0,-224.0,-4.0,592.0,165,70,89,78,78,456,461,501
2025-02-18 16:30:12.141,214.0,2089.0,1416.0,-11.0,94.0,247.0,165,69,88,79,75,420,454,744
2025-02-18 16:30:12.161,-165.0,2300.0,1083.0,53.0,124.0,154.0,167,71,91,81,79,338,453,1009
2025-02-18 16:30:12.178,-364.0,2961.0,1030.0,6.0,100.0,28.0,165,70,90,80,78,337,459,1010
2025-02-18 16:30:12.198,-280.0,2091.0,971.0,-1.0,80.0,-102.0,167,72,91,82,80,321,464,959
2025-02-18 16:30:12.218,-33.0,1202.0,836.0,26.0,72.0,-162.0,168,73,94,85,83,301,465,612
2025-02-18 16:30:12.235,11.0,369.0,700.0,34.0,58.0,-182.0,167,73,93,84,83,509,481,693
2025-02-18 16:30:12.256,-40.0,-30.0,620.0,32.0,11.0,-169.0,169,74,95,86,85,668,493,775
2025-02-18 16:30:12.276,-100.0,-77.0,739.0,60.0,-17.0,-190.0,165,70,89,83,81,611,490,608
2025-02-18 16:30:12.293,-114.0,-93.0,748.0,91.0,-46.0,-203.0,166,71,92,86,83,556,492,629
2025-02-18 16:30:12.313,-33.0,-231.0,1023.0,105.0,-57.0,-176.0,165,69,90,84,82,471,491,605
2025-02-18 16:30:12.333,-169.0,115.0,1063.0,121.0,-34.0,-225.0,166,73,93,86,84,569,488,484
2025-02-18 16:30:12.350,-220.0,101.0,980.0,111.0,-49.0,-234.0,166,73,93,88,85,747,489,328
2025-02-18 16:30:12.371,-149.0,299.0,977.0,76.0,-76.0,-279.0,164,71,90,85,84,769,483,346
2025-02-18 16:30:12.387,-49.0,-14.0,948.0,17.0,-99.0,-256.0,166,72,91,89,87,597,487,396
2025-02-18 16:30:12.407,52.0,-401.0,980.0,-10.0,-97.0,-191.0,164,71,89,87,85,427,489,460
2025-02-18 16:30:12.427,162.0,-321.0,1090.0,11.0,-75.0,-207.0,165,73,92,90,88,398,484,570
2025-02-18 16:30:12.444,201.0,-753.0,1093.0,5.0,-63.0,-144.0,163,70,89,89,86,442,489,661
2025-02-18 16:30:12.465,366.0,-866.0,1116.0,-15.0,-57.0,-75.0,166,73,92,92,89,472,493,753
2025-02-18 16:30:12.485,727.0,-1363.0,1422.0,-52.0,-27.0,18.0,168,73,92,92,90,398,486,803
2025-02-18 16:30:12.502,966.0,-1823.0,1429.0,-94.0,21.0,150.0,163,72,90,90,88,218,478,732
2025-02-18 16:30:12.523,1095.0,-2562.0,1200.0,-103.0,37.0,320.0,164,73,92,92,89,217,472,803
2025-02-18 16:30:12.542,1615.0,-2533.0,1191.0,-122.0,69.0,592.0,163,71,91,88,85,350,445,839
2025-02-18 16:30:12.559,1238.0,-786.0,1057.0,-171.0,5.0,659.0,165,73,93,89,86,432,432,714
2025-02-18 16:30:12.579,824.0,942.0,1249.0,-246.0,-39.0,603.0,163,70,91,84,83,393,432,803
2025-02-18 16:30:12.600,-312.0,2500.0,1521.0,-249.0,-30.0,395.0,165,74,94,86,86,433,438,1010
2025-02-18 16:30:12.617,-521.0,2879.0,1895.0,-112.0,2.0,135.0,170,79,103,92,92,468,447,1005
2025-02-18 16:30:12.636,-378.0,2288.0,2104.0,-17.0,58.0,0.0,167,78,103,91,91,468,447,727
2025-02-18 16:30:12.653,-177.0,1870.0,1974.0,-11.0,134.0,-90.0,170,81,108,95,95,452,444,317
2025-02-18 16:30:12.674,68.0,556.0,1766.0,-80.0,186.0,-142.0,168,80,107,94,94,486,446,236
2025-02-18 16:30:12.694,360.0,-510.0,1517.0,-126.0,248.0,-115.0,170,85,112,99,98,444,451,159
2025-02-18 16:30:12.711,113.0,-1151.0,1002.0,-111.0,256.0,-69.0,169,86,112,101,97,550,448,213
2025-02-18 16:30:12.731,-2.0,-1425.0,659.0,-78.0,242.0,-7.0,166,87,112,100,96,705,458,381
2025-02-18 16:30:12.751,-236.0,-911.0,498.0,-24.0,255.0,-3.0,164,91,111,98,92,762,466,533
2025-02-18 16:30:12.768,-449.0,-308.0,362.0,-69.0,236.0,-35.0,162,98,113,97,89,672,467,538
2025-02-18 16:30:12.789,-542.0,-319.0,247.0,-94.0,208.0,-44.0,163,111,116,102,90,549,465,299
2025-02-18 16:30:12.808,-557.0,-424.0,79.0,-52.0,179.0,-42.0,160,119,117,106,89,377,457,270
2025-02-18 16:30:12.825,-606.0,-329.0,169.0,22.0,165.0,-42.0,161,127,120,110,91,273,464,310
2025-02-18 16:30:12.845,-602.0,61.0,228.0,16.0,160.0,-59.0,161,133,122,109,91,167,484,415
2025-02-18 16:30:12.863,-727.0,165.0,-90.0,35.0,134.0,-92.0,160,135,121,108,90,170,487,448
2025-02-18 16:30:12.883,-665.0,271.0,-331.0,89.0,81.0,-167.0,160,138,123,109,91,291,511,159
2025-02-18 16:30:12.903,-810.0,718.0,-622.0,123.0,-5.0,-282.0,158,139,122,108,90,418,486,20
2025-02-18 16:30:12.921,-947.0,651.0,-1116.0,119.0,-230.0,-422.0,159,141,123,111,93,504,480,23
2025-02-18 16:30:12.940,-449.0,87.0,-998.0,171.0,-443.0,-508.0,155,142,123,110,90,528,455,258
2025-02-18 16:30:12.961,659.0,111.0,-1415.0,151.0,-646.0,-447.0,155,144,124,115,90,482,475,1009
2025-02-18 16:30:12.978,1627.0,-422.0,153.0,12.0,-756.0,-360.0,155,146,125,118,96,673,489,1010
2025-02-18 16:30:12.998,2494.0,-2113.0,1457.0,20.0,-583.0,-133.0,156,148,126,119,102,918,485,903
2025-02-18 16:30:13.017,2678.0,-1726.0,1780.0,62.0,-331.0,-42.0,159,150,127,121,108,995,509,170
2025-02-18 16:30:13.034,2072.0,-1766.0,2645.0,34.0,-37.0,8.0,157,148,125,119,108,989,524,22
2025-02-18 16:30:13.054,1305.0,-1452.0,1984.0,32.0,141.0,38.0,158,149,125,119,110,718,524,23
2025-02-18 16:30:13.075,702.0,-1084.0,1438.0,-43.0,177.0,82.0,156,147,124,116,108,176,505,367
2025-02-18 16:30:13.092,459.0,-1168.0,1000.0,-118.0,167.0,122.0,157,147,125,116,108,34,495,610
2025-02-18 16:30:13.112,464.0,-1274.0,673.0,-113.0,168.0,150.0,157,147,125,115,107,184,471,739
2025-02-18 16:30:13.129,323.0,-1154.0,569.0,-71.0,173.0,170.0,155,145,123,114,104,532,452,685
2025-02-18 16:30:13.149,212.0,-894.0,507.0,-18.0,160.0,190.0,162,153,130,120,105,723,454,862
2025-02-18 16:30:13.169,128.0,-562.0,489.0,-16.0,135.0,191.0,161,150,129,118,109,627,477,1009
2025-02-18 16:30:13.187,-21.0,-469.0,546.0,-37.0,108.0,186.0,163,152,131,119,111,369,475,1010
2025-02-18 16:30:13.206,10.0,-470.0,534.0,-45.0,106.0,184.0,161,148,129,115,107,309,473,941
2025-02-18 16:30:13.227,-48.0,-481.0,538.0,-29.0,121.0,195.0,157,144,124,111,103,172,473,867
2025-02-18 16:30:13.244,-139.0,-387.0,493.0,10.0,120.0,200.0,159,145,126,113,106,165,471,1011
2025-02-18 16:30:13.263,-258.0,-107.0,443.0,29.0,116.0,176.0,158,143,125,111,101,319,469,1011
2025-02-18 16:30:13.280,-345.0,77.0,501.0,16.0,121.0,131.0,160,144,126,113,106,622,473,1010
2025-02-18 16:30:13.300,-504.0,324.0,297.0,19.0,121.0,71.0,159,141,125,110,103,456,466,952
2025-02-18 16:30:13.320,-806.0,769.0,-80.0,76.0,68.0,-35.0,160,143,126,111,104,362,471,692
2025-02-18 16:30:13.337,-1152.0,1254.0,-707.0,173.0,-30.0,-234.0,157,141,124,108,99,540,474,401
2025-02-18 16:30:13.357,-1102.0,1213.0,-1158.0,201.0,-315.0,-494.0,158,143,126,108,99,627,465,466
2025-02-18 16:30:13.378,129.0,611.0,-334.0,119.0,-545.0,-546.0,157,142,125,108,96,605,484,786
2025-02-18 16:30:13.395,1865.0,-832.0,-8.0,103.0,-681.0,-447.0,156,142,123,108,100,475,505,703
2025-02-18 16:30:13.415,2968.0,-1846.0,2273.0,109.0,-401.0,-221.0,159,144,123,113,111,414,485,127
2025-02-18 16:30:13.436,2896.0,-1948.0,2800.0,27.0,-66.0,-17.0,159,144,123,113,114,527,505,18
2025-02-18 16:30:13.453,1751.0,-1512.0,2442.0,46.0,152.0,16.0,161,144,123,117,118,706,534,21
2025-02-18 16:30:13.472,586.0,-904.0,1496.0,22.0,199.0,8.0,159,138,121,114,114,934,509,20
2025-02-18 16:30:13.489,128.0,-699.0,986.0,-6.0,191.0,14.0,161,132,121,114,115,429,519,33
2025-02-18 16:30:13.509,109.0,-895.0,804.0,93.0,203.0,2.0,158,118,114,115,112,122,494,39
2025-02-18 16:30:13.529,141.0,-661.0,898.0,197.0,220.0,-12.0,158,105,111,118,113,312,485,17
2025-02-18 16:30:13.546,-54.0,-380.0,798.0,213.0,194.0,-17.0,160,93,112,119,113,473,480,159
2025-02-18 16:30:13.567,22.0,-215.0,778.0,213.0,169.0,-19.0,162,84,110,117,111,530,495,1009
2025-02-18 16:30:13.587,-49.0,-374.0,855.0,225.0,145.0,-19.0,165,82,110,115,109,505,491,1011
2025-02-18 16:30:13.604,32.0,-255.0,651.0,213.0,123.0,-17.0,164,77,102,108,101,254,479,1012
2025-02-18 16:30:13.624,-67.0,-85.0,797.0,224.0,108.0,-47.0,166,78,101,107,99,204,489,978
2025-02-18 16:30:13.644,-220.0,-158.0,819.0,208.0,90.0,-46.0,165,77,98,103,96,278,506,382
2025-02-18 16:30:13.661,-107.0,-141.0,704.0,164.0,53.0,-48.0,164,75,93,99,93,570,509,23
2025-02-18 16:30:13.681,-125.0,-190.0,733.0,128.0,2.0,-53.0,166,76,92,98,93,778,507,24
2025-02-18 16:30:13.698,25.0,-544.0,895.0,114.0,-25.0,-26.0,164,73,89,94,89,651,506,233
2025-02-18 16:30:13.718,491.0,-798.0,1184.0,84.0,-18.0,32.0,166,74,89,94,90,528,503,285
2025-02-18 16:30:13.739,787.0,-1014.0,1429.0,13.0,-4.0,89.0,165,72,89,92,87,401,500,510
2025-02-18 16:30:13.755,1175.0,-1836.0,1638.0,-42.0,19.0,273.0,166,73,90,93,88,400,507,617
2025-02-18 16:30:13.776,1608.0,-1999.0,1741.0,-141.0,94.0,512.0,168,74,92,94,88,396,495,773
2025-02-18 16:30:13.796,2029.0,-1595.0,1632.0,-112.0,110.0,761.0,166,72,91,91,85,479,478,734
2025-02-18 16:30:13.813,1280.0,982.0,1362.0,-255.0,70.0,719.0,167,74,94,89,86,520,468,685
2025-02-18 16:30:13.833,831.0,1951.0,1513.0,-329.0,58.0,560.0,166,73,93,88,85,233,472,812
2025-02-18 16:30:13.853,-239.0,2202.0,794.0,-137.0,102.0,270.0,167,75,94,89,86,82,475,902
2025-02-18 16:30:13.870,-57.0,2227.0,1166.0,84.0,86.0,132.0,166,74,95,90,86,105,461,174
2025-02-18 16:30:13.890,-302.0,2958.0,1123.0,58.0,78.0,-9.0,166,74,96,89,86,359,464,20
2025-02-18 16:30:13.908,-188.0,2436.0,1009.0,6.0,79.0,-124.0,166,76,97,91,88,482,458,186
2025-02-18 16:30:13.927,-10.0,1354.0,879.0,-1.0,82.0,-202.0,164,75,97,91,87,582,453,382
2025-02-18 16:30:13.947,76.0,648.0,743.0,54.0,79.0,-249.0,165,77,97,92,90,760,453,364
2025-02-18 16:30:13.965,104.0,137.0,715.0,95.0,49.0,-253.0,164,76,96,92,88,655,462,544
2025-02-18 16:30:13.985,-25.0,78.0,676.0,100.0,5.0,-249.0,162,76,96,92,88,571,473,677
2025-02-18 16:30:14.005,-89.0,1.0,711.0,154.0,-33.0,-304.0,163,75,96,91,88,541,485,721
2025-02-18 16:30:14.022,-48.0,-245.0,862.0,211.0,-91.0,-308.0,161,74,94,91,87,584,494,777
2025-02-18 16:30:14.042,207.0,-279.0,1190.0,177.0,-70.0,-225.0,163,75,95,93,88,701,512,496
2025-02-18 16:30:14.062,52.0,-21.0,1319.0,53.0,-46.0,-223.0,161,74,93,92,87,864,515,389
2025-02-18 16:30:14.079,64.0,-336.0,1229.0,0.0,-34.0,-237.0,163,74,94,93,88,928,517,379
2025-02-18 16:30:14.099,37.0,-748.0,1034.0,19.0,-37.0,-215.0,161,73,92,92,86,704,503,437
2025-02-18 16:30:14.116,6.0,-915.0,880.0,47.0,-34.0,-136.0,162,74,92,93,87,341,507,426
2025-02-18 16:30:14.137,-7.0,-673.0,886.0,41.0,-57.0,-110.0,163,75,93,94,89,212,514,456
2025-02-18 16:30:14.156,179.0,-992.0,921.0,24.0,-92.0,-78.0,162,74,91,93,88,377,516,571
2025-02-18 16:30:14.174,626.0,-1558.0,1308.0,38.0,-68.0,12.0,164,75,93,95,90,483,528,651
2025-02-18 16:30:14.194,1028.0,-1948.0,1645.0,6.0,12.0,180.0,162,73,91,94,88,401,522,471
2025-02-18 16:30:14.214,1212.0,-2192.0,1484.0,-73.0,60.0,357.0,160,75,94,95,89,377,515,303
2025-02-18 16:30:14.231,1488.0,-2371.0,1059.0,-92.0,75.0,608.0,157,73,92,93,87,457,493,580
2025-02-18 16:30:14.251,824.0,477.0,900.0,-205.0,-13.0,637.0,160,74,93,91,87,516,478,927
2025-02-18 16:30:14.271,311.0,1837.0,1195.0,-334.0,-59.0,504.0,161,76,95,92,90,492,470,735
2025-02-18 16:30:14.288,-483.0,2797.0,1505.0,-267.0,-38.0,236.0,158,76,95,92,92,351,462,580
2025-02-18 16:30:14.308,-321.0,2798.0,1778.0,-31.0,10.0,-8.0,160,80,100,97,98,298,467,260
2025-02-18 16:30:14.328,-266.0,2060.0,1745.0,32.0,54.0,-119.0,161,82,103,102,102,445,465,21
2025-02-18 16:30:14.345,-137.0,1292.0,1624.0,-53.0,56.0,-174.0,164,88,110,110,109,733,471,27
2025-02-18 16:30:14.365,260.0,91.0,1830.0,-203.0,83.0,-156.0,163,90,111,116,110,795,455,171
2025-02-18 16:30:14.385,463.0,-1057.0,1706.0,-273.0,167.0,-72.0,169,95,117,127,121,546,466,166
2025-02-18 16:30:14.402,492.0,-1371.0,1519.0,-210.0,248.0,-17.0,167,95,118,130,128,430,470,195
2025-02-18 16:30:14.422,90.0,-1032.0,1095.0,-95.0,271.0,16.0,159,90,113,126,124,516,479,279
2025-02-18 16:30:14.439,-125.0,-608.0,798.0,-43.0,252.0,11.0,159,93,116,130,127,647,495,367
2025-02-18 16:30:14.460,-576.0,-509.0,461.0,-151.0,220.0,-9.0,157,94,113,127,124,498,492,373
2025-02-18 16:30:14.480,-589.0,-607.0,808.0,-310.0,224.0,-22.0,159,93,116,127,122,25,484,167
2025-02-18 16:30:14.497,-203.0,-744.0,708.0,-258.0,220.0,26.0,155,89,114,126,116,35,491,426
2025-02-18 16:30:14.517,-454.0,-637.0,462.0,-136.0,256.0,32.0,152,89,116,128,120,219,508,1011
2025-02-18 16:30:14.537,-295.0,-374.0,291.0,-145.0,313.0,7.0,148,88,115,122,113,667,542,1011
2025-02-18 16:30:14.554,-746.0,-111.0,208.0,-112.0,272.0,26.0,142,83,110,110,102,1004,561,571
2025-02-18 16:30:14.574,-842.0,178.0,-248.0,-83.0,170.0,7.0,137,81,107,101,95,925,560,24
2025-02-18 16:30:14.592,-736.0,474.0,-628.0,-32.0,83.0,-23.0,126,77,103,94,88,810,537,21
2025-02-18 16:30:14.612,-631.0,689.0,-621.0,20.0,7.0,-55.0,120,78,103,92,87,858,517,72
2025-02-18 16:30:14.632,-511.0,888.0,-573.0,165.0,-36.0,-110.0,111,74,100,84,76,687,504,121
2025-02-18 16:30:14.649,-667.0,1585.0,-1118.0,285.0,-89.0,-259.0,106,73,100,82,81,544,494,60
2025-02-18 16:30:14.668,-1038.0,1968.0,-1478.0,338.0,-293.0,-473.0,103,72,97,80,80,398,467,31
2025-02-18 16:30:14.689,-250.0,1770.0,-1318.0,264.0,-640.0,-713.0,103,70,95,81,81,329,457,720
2025-02-18 16:30:14.706,3599.0,-448.0,-190.0,119.0,-938.0,-644.0,108,72,98,88,87,260,510,1010
2025-02-18 16:30:14.726,5079.0,-4483.0,4342.0,108.0,-379.0,-124.0,110,73,101,90,91,457,479,1000
2025-02-18 16:30:14.746,2954.0,-3300.0,3229.0,122.0,173.0,42.0,116,80,110,100,104,570,489,930
2025-02-18 16:30:14.764,859.0,-1807.0,1611.0,85.0,209.0,43.0,119,85,110,104,107,806,523,290
2025-02-18 16:30:14.783,2.0,-961.0,966.0,-114.0,127.0,83.0,121,87,112,106,109,940,498,34
2025-02-18 16:30:14.801,-125.0,-1670.0,21.0,-139.0,82.0,79.0,108,76,99,94,94,666,503,20
2025-02-18 16:30:14.821,109.0,-1482.0,773.0,-75.0,108.0,119.0,101,66,93,87,87,369,500,23
2025-02-18 16:30:14.840,20.0,-1148.0,813.0,-67.0,106.0,156.0,103,68,95,88,89,380,497,194
2025-02-18 16:30:14.858,-3.0,-730.0,779.0,-91.0,80.0,168.0,105,69,95,90,90,308,496,724
2025-02-18 16:30:14.877,34.0,-722.0,792.0,-98.0,67.0,158.0,106,70,97,90,90,293,504,1010
2025-02-18 16:30:14.897,-18.0,-749.0,721.0,-105.0,86.0,155.0,108,70,98,90,90,328,521,1010
2025-02-18 16:30:14.914,-127.0,-633.0,584.0,-108.0,91.0,155.0,106,69,97,88,89,302,530,989
2025-02-18 16:30:14.934,-181.0,-543.0,524.0,-85.0,87.0,154.0,106,69,97,89,89,189,518,1009
2025-02-18 16:30:14.954,-209.0,-417.0,377.0,-79.0,83.0,158.0,104,67,95,88,88,13,509,852
2025-02-18 16:30:14.972,-374.0,-421.0,253.0,-61.0,71.0,150.0,105,68,96,89,89,105,509,472
2025-02-18 16:30:14.992,-229.0,-373.0,265.0,-19.0,75.0,129.0,104,67,96,89,88,403,511,543
2025-02-18 16:30:15.012,-193.0,-389.0,337.0,31.0,107.0,112.0,105,68,95,90,88,572,497,952
2025-02-18 16:30:15.029,-466.0,-228.0,1.0,66.0,114.0,110.0,105,69,97,90,89,539,489,1010
2025-02-18 16:30:15.049,-811.0,286.0,-297.0,81.0,52.0,118.0,105,68,95,90,89,593,492,1010
2025-02-18 16:30:15.067,-850.0,1087.0,-627.0,130.0,7.0,24.0,103,69,96,90,90,633,498,1009
2025-02-18 16:30:15.087,-1187.0,1937.0,-1028.0,279.0,-49.0,-265.0,102,67,92,90,89,598,500,1010
2025-02-18 16:30:15.107,-1248.0,1996.0,-1218.0,228.0,-328.0,-481.0,102,68,91,90,89,649,495,1009
2025-02-18 16:30:15.124,172.0,1145.0,-897.0,93.0,-658.0,-584.0,102,65,90,89,87,525,478,1009
2025-02-18 16:30:15.144,3447.0,-2179.0,688.0,81.0,-785.0,-436.0,105,66,92,93,88,406,440,587
2025-02-18 16:30:15.163,3809.0,-4540.0,3499.0,355.0,-181.0,-44.0,107,67,95,97,89,564,448,12
2025-02-18 16:30:15.180,1614.0,-1279.0,2701.0,324.0,151.0,35.0,104,66,93,92,94,798,443,11
2025-02-18 16:30:15.201,154.0,49.0,1845.0,13.0,124.0,-34.0,104,67,91,90,91,896,485,12
2025-02-18 16:30:15.221,-135.0,-740.0,1048.0,-201.0,57.0,-5.0,104,65,90,88,88,824,474,718
2025-02-18 16:30:15.238,165.0,-1490.0,872.0,-163.0,27.0,17.0,105,66,92,88,88,524,486,976
2025-02-18 16:30:15.259,423.0,-1957.0,728.0,10.0,87.0,66.0,104,66,91,88,86,106,484,1010
2025-02-18 16:30:15.278,153.0,-1354.0,534.0,110.0,97.0,129.0,107,67,92,90,88,236,474,1010
2025-02-18 16:30:15.295,-53.0,-484.0,540.0,114.0,57.0,108.0,108,68,93,90,91,495,476,923
2025-02-18 16:30:15.316,-167.0,-303.0,619.0,95.0,20.0,64.0,107,67,92,90,90,413,487,22
2025-02-18 16:30:15.333,-45.0,-468.0,713.0,81.0,-7.0,60.0,110,68,94,92,92,273,492,15
2025-02-18 16:30:15.353,119.0,-575.0,853.0,78.0,2.0,76.0,110,67,93,92,92,352,488,178
2025-02-18 16:30:15.373,127.0,-595.0,854.0,77.0,33.0,103.0,112,69,95,92,93,348,456,443
2025-02-18 16:30:15.390,168.0,-508.0,769.0,67.0,53.0,126.0,110,66,92,92,92,505,444,583
2025-02-18 16:30:15.410,33.0,-318.0,666.0,57.0,50.0,129.0,112,68,93,93,94,479,450,921
2025-02-18 16:30:15.430,-162.0,-226.0,585.0,70.0,18.0,109.0,114,68,93,93,94,429,456,948
2025-02-18 16:30:15.446,-84.0,-246.0,692.0,105.0,8.0,91.0,115,66,92,92,94,407,465,688
2025-02-18 16:30:15.467,-176.0,-80.0,774.0,152.0,28.0,57.0,118,67,92,93,98,368,473,398
2025-02-18 16:30:15.484,-317.0,122.0,779.0,179.0,26.0,9.0,117,66,90,92,100,370,481,150
2025-02-18 16:30:15.505,-450.0,485.0,684.0,192.0,-20.0,-17.0,119,67,91,96,102,469,497,13
2025-02-18 16:30:15.524,-562.0,766.0,601.0,217.0,-56.0,-58.0,120,66,88,96,105,645,487,12
2025-02-18 16:30:15.545,-948.0,1608.0,575.0,223.0,-125.0,-112.0,123,67,90,100,114,742,492,13
2025-02-18 16:30:15.561,-995.0,1918.0,693.0,222.0,-184.0,-182.0,127,68,91,93,136,705,507,13
2025-02-18 16:30:15.582,-531.0,1109.0,622.0,235.0,-237.0,-302.0,128,67,89,93,142,630,503,74
2025-02-18 16:30:15.598,222.0,737.0,826.0,332.0,-203.0,-306.0,131,69,90,95,144,594,509,203
2025-02-18 16:30:15.618,743.0,384.0,1624.0,252.0,-161.0,-260.0,133,68,90,95,144,631,502,87
2025-02-18 16:30:15.639,1338.0,-25.0,2098.0,108.0,-104.0,-172.0,134,69,91,97,147,659,498,13
2025-02-18 16:30:15.656,1617.0,-688.0,1936.0,-64.0,-41.0,-54.0,133,68,90,96,142,698,483,38
2025-02-18 16:30:15.676,1414.0,-1116.0,1660.0,-115.0,18.0,50.0,132,69,90,99,147,771,448,165
2025-02-18 16:30:15.696,1098.0,-1048.0,1393.0,-53.0,72.0,101.0,130,68,88,95,147,730,460,370
2025-02-18 16:30:15.713,635.0,-496.0,1334.0,-14.0,102.0,141.0,129,67,86,93,146,664,459,615
2025-02-18 16:30:15.733,357.0,-83.0,1289.0,-40.0,103.0,169.0,130,68,87,93,146,547,451,1004
2025-02-18 16:30:15.750,256.0,130.0,1246.0,-83.0,88.0,184.0,128,67,87,92,146,394,458,1010
2025-02-18 16:30:15.771,161.0,78.0,1140.0,-94.0,78.0,170.0,130,68,89,92,147,309,464,992
2025-02-18 16:30:15.790,109.0,124.0,1025.0,-49.0,83.0,164.0,129,68,91,90,147,216,465,961
2025-02-18 16:30:15.808,-116.0,354.0,928.0,-19.0,90.0,179.0,129,68,91,89,147,114,462,911
2025-02-18 16:30:15.828,-195.0,665.0,851.0,-46.0,78.0,183.0,131,70,93,91,149,254,458,867
2025-02-18 16:30:15.848,-213.0,840.0,764.0,-80.0,53.0,132.0,130,68,92,89,147,412,449,739
2025-02-18 16:30:15.865,-272.0,756.0,824.0,-15.0,53.0,72.0,131,70,93,89,149,580,449,689
2025-02-18 16:30:15.885,-285.0,930.0,765.0,23.0,41.0,37.0,130,69,92,88,148,679,451,670
2025-02-18 16:30:15.905,-421.0,1176.0,742.0,22.0,29.0,3.0,130,69,93,90,148,629,458,722
2025-02-18 16:30:15.922,-555.0,1576.0,634.0,-27.0,26.0,-52.0,129,69,93,88,149,531,466,757
2025-02-18 16:30:15.942,-785.0,1970.0,457.0,-58.0,39.0,-195.0,127,68,91,87,148,494,470,858
2025-02-18 16:30:15.962,-750.0,1525.0,261.0,23.0,42.0,-304.0,125,69,92,87,149,544,471,1009
2025-02-18 16:30:15.979,-544.0,868.0,72.0,125.0,-14.0,-332.0,122,68,91,86,148,489,477,950
2025-02-18 16:30:16.000,168.0,238.0,461.0,210.0,-140.0,-311.0,124,69,92,88,149,270,488,697
2025-02-18 16:30:16.017,949.0,-575.0,1126.0,157.0,-216.0,-238.0,126,69,90,90,148,168,490,492
2025-02-18 16:30:16.037,1693.0,-1241.0,1960.0,39.0,-170.0,-95.0,127,70,91,93,148,14,485,481
2025-02-18 16:30:16.057,1725.0,-1334.0,2151.0,-76.0,-73.0,17.0,128,70,91,96,150,58,490,583
2025-02-18 16:30:16.074,1201.0,-1111.0,1880.0,-83.0,35.0,90.0,126,68,90,95,145,153,486,513
2025-02-18 16:30:16.094,567.0,-806.0,1764.0,-35.0,67.0,122.0,124,68,92,95,145,555,481,617
2025-02-18 16:30:16.114,247.0,50.0,1857.0,-109.0,107.0,149.0,120,67,92,95,141,847,468,820
2025-02-18 16:30:16.131,34.0,168.0,1898.0,-241.0,174.0,164.0,118,68,92,95,138,763,465,729
2025-02-18 16:30:16.151,-10.0,223.0,1621.0,-321.0,208.0,202.0,115,67,90,92,131,493,468,671
2025-02-18 16:30:16.171,74.0,218.0,1639.0,-334.0,257.0,209.0,116,67,92,95,125,544,459,679
2025-02-18 16:30:16.188,97.0,356.0,1265.0,-362.0,296.0,207.0,118,68,92,97,120,603,457,611
2025-02-18 16:30:16.209,-124.0,211.0,976.0,-341.0,291.0,183.0,121,68,93,99,120,608,451,617
2025-02-18 16:30:16.226,-467.0,51.0,729.0,-218.0,248.0,149.0,126,70,95,105,122,553,446,695
2025-02-18 16:30:16.246,-406.0,111.0,684.0,-243.0,243.0,108.0,128,71,96,107,121,629,439,614
2025-02-18 16:30:16.265,-469.0,240.0,349.0,-215.0,218.0,62.0,132,74,100,116,126,612,450,359
2025-02-18 16:30:16.283,-595.0,49.0,-39.0,-143.0,187.0,11.0,132,77,100,121,128,656,486,11
2025-02-18 16:30:16.303,-532.0,143.0,20.0,0.0,161.0,-55.0,133,85,105,127,130,594,522,12
2025-02-18 16:30:16.323,-876.0,75.0,30.0,-1.0,134.0,-79.0,133,92,107,126,130,692,540,12
2025-02-18 16:30:16.340,-794.0,392.0,-254.0,-66.0,-4.0,-114.0,131,96,107,128,130,678,547,11
2025-02-18 16:30:16.360,-577.0,500.0,-431.0,-100.0,-78.0,-167.0,131,103,108,131,131,427,524,11
2025-02-18 16:30:16.380,-545.0,668.0,-819.0,-130.0,-149.0,-304.0,130,101,106,132,133,168,480,117
2025-02-18 16:30:16.398,-689.0,1106.0,-1381.0,-58.0,-211.0,-466.0,132,110,107,134,140,13,437,297
2025-02-18 16:30:16.418,-864.0,275.0,-53.0,-269.0,-247.0,-544.0,133,116,104,130,142,10,420,662
2025-02-18 16:30:16.438,-713.0,-426.0,-215.0,119.0,-597.0,-649.0,135,122,105,132,145,281,412,1009
2025-02-18 16:30:16.455,2347.0,-909.0,1056.0,-149.0,-720.0,-534.0,134,127,106,133,145,500,434,1010
2025-02-18 16:30:16.474,3185.0,-2555.0,1836.0,-136.0,-453.0,-247.0,134,130,107,133,145,909,442,1011
2025-02-18 16:30:16.494,2716.0,-4104.0,1055.0,-120.0,-87.0,62.0,151,148,126,152,162,993,491,974
2025-02-18 16:30:16.512,2119.0,-2667.0,952.0,62.0,122.0,165.0,139,136,114,139,152,1007,467,1011
2025-02-18 16:30:16.532,713.0,-1527.0,556.0,138.0,177.0,170.0,138,134,114,139,150,777,467,757
2025-02-18 16:30:16.549,210.0,-1047.0,481.0,4.0,137.0,182.0,135,131,111,136,147,522,479,104
2025-02-18 16:30:16.569,194.0,-1113.0,487.0,-73.0,88.0,192.0,134,131,112,137,148,283,466,13
2025-02-18 16:30:16.589,218.0,-1077.0,537.0,-62.0,94.0,206.0,133,131,112,137,148,280,456,14
2025-02-18 16:30:16.606,227.0,-1012.0,478.0,-4.0,119.0,208.0,133,130,112,137,148,544,445,99
2025-02-18 16:30:16.626,48.0,-697.0,350.0,71.0,118.0,199.0,135,130,113,139,149,677,468,750
2025-02-18 16:30:16.647,25.0,-367.0,249.0,41.0,99.0,165.0,135,128,112,138,148,679,490,1010
2025-02-18 16:30:16.664,-124.0,-428.0,224.0,21.0,68.0,139.0,136,129,113,138,149,585,485,1011
2025-02-18 16:30:16.683,-109.0,-438.0,254.0,26.0,49.0,131.0,134,128,112,137,148,521,480,927
2025-02-18 16:30:16.700,-86.0,-282.0,354.0,37.0,53.0,120.0,135,129,114,138,149,525,463,741
2025-02-18 16:30:16.720,-124.0,-251.0,419.0,5.0,78.0,88.0,136,128,113,139,149,467,463,760
2025-02-18 16:30:16.741,-381.0,-181.0,318.0,8.0,71.0,68.0,134,126,112,137,147,104,475,821
2025-02-18 16:30:16.758,-499.0,-52.0,263.0,22.0,44.0,61.0,135,127,113,138,148,68,495,943
2025-02-18 16:30:16.778,-656.0,556.0,113.0,33.0,26.0,51.0,135,125,112,137,147,201,473,998
2025-02-18 16:30:16.799,-870.0,1224.0,-61.0,37.0,6.0,-105.0,135,125,113,138,148,397,458,688
2025-02-18 16:30:16.816,-946.0,1179.0,-79.0,108.0,-2.0,-302.0,136,125,113,138,149,479,438,706
2025-02-18 16:30:16.836,-385.0,434.0,121.0,7.0,-102.0,-466.0,136,126,112,137,148,271,424,1010
2025-02-18 16:30:16.856,271.0,-1333.0,351.0,11.0,-203.0,-474.0,137,129,113,139,150,216,411,1011
2025-02-18 16:30:16.873,1277.0,-2031.0,587.0,174.0,-323.0,-351.0,136,128,112,138,148,396,421,1010
2025-02-18 16:30:16.893,2192.0,-1801.0,1283.0,39.0,-274.0,-155.0,137,130,113,139,149,585,447,1010
2025-02-18 16:30:16.913,1988.0,-2659.0,1751.0,-60.0,-67.0,16.0,134,127,110,136,146,560,472,1010
2025-02-18 16:30:16.930,1225.0,-2451.0,1281.0,45.0,146.0,104.0,134,127,111,136,144,601,482,929
2025-02-18 16:30:16.950,431.0,-1668.0,786.0,140.0,205.0,139.0,133,127,111,136,146,637,495,408
2025-02-18 16:30:16.967,-61.0,-1281.0,541.0,134.0,197.0,159.0,132,124,108,135,145,394,492,10
2025-02-18 16:30:16.986,-3.0,-1103.0,632.0,133.0,148.0,167.0,133,122,109,136,146,242,483,10
2025-02-18 16:30:17.007,3.0,-1020.0,460.0,132.0,101.0,187.0,133,112,107,135,145,153,468,257
2025-02-18 16:30:17.025,102.0,-952.0,493.0,155.0,56.0,201.0,135,103,109,135,145,332,464,505
2025-02-18 16:30:17.045,106.0,-872.0,659.0,190.0,39.0,218.0,134,88,107,134,144,162,463,584
2025-02-18 16:30:17.064,95.0,-643.0,387.0,197.0,26.0,249.0,135,77,105,120,144,277,477,215
2025-02-18 16:30:17.081,148.0,-678.0,199.0,195.0,7.0,288.0,135,72,105,132,143,234,477,11
2025-02-18 16:30:17.102,210.0,-433.0,292.0,185.0,-11.0,284.0,135,69,99,125,143,345,485,10
2025-02-18 16:30:17.119,4.0,-209.0,447.0,165.0,-52.0,261.0,136,66,98,120,144,619,510,11
2025-02-18 16:30:17.139,119.0,118.0,661.0,191.0,-61.0,192.0,133,64,96,106,145,767,510,9
2025-02-18 16:30:17.159,149.0,856.0,-187.0,186.0,-20.0,151.0,132,65,96,105,147,983,505,20
2025-02-18 16:30:17.176,-338.0,671.0,857.0,164.0,-17.0,135.0,127,63,94,95,146,812,496,16
2025-02-18 16:30:17.196,-459.0,1440.0,987.0,134.0,3.0,24.0,126,63,94,91,145,257,490,36
2025-02-18 16:30:17.216,-629.0,1797.0,966.0,156.0,58.0,-116.0,123,64,94,87,147,11,485,161
2025-02-18 16:30:17.233,-1015.0,2319.0,664.0,173.0,76.0,-262.0,120,63,92,87,147,329,483,222
2025-02-18 16:30:17.253,-947.0,2506.0,450.0,170.0,11.0,-407.0,117,63,94,87,148,538,497,246
2025-02-18 16:30:17.273,-553.0,1838.0,335.0,137.0,-79.0,-521.0,115,62,92,90,148,769,477,336
2025-02-18 16:30:17.291,161.0,463.0,636.0,129.0,-228.0,-482.0,119,64,94,94,149,889,479,459
2025-02-18 16:30:17.311,1057.0,-641.0,1458.0,123.0,-272.0,-363.0,122,64,94,98,149,976,479,503
2025-02-18 16:30:17.331,1637.0,-1204.0,1797.0,12.0,-201.0,-214.0,125,66,95,100,150,1018,484,511
2025-02-18 16:30:17.348,1893.0,-2107.0,1945.0,-104.0,-102.0,-79.0,124,65,95,99,149,1017,492,629
2025-02-18 16:30:17.367,1544.0,-2369.0,1623.0,-58.0,-13.0,69.0,123,64,94,98,149,1018,490,636
2025-02-18 16:30:17.384,975.0,-1357.0,1418.0,17.0,50.0,129.0,123,66,95,97,150,1017,495,536
2025-02-18 16:30:17.405,206.0,-562.0,1208.0,13.0,47.0,171.0,121,65,94,96,149,877,486,560
2025-02-18 16:30:17.425,-96.0,-178.0,1209.0,-37.0,24.0,190.0,124,67,96,98,149,517,461,814
2025-02-18 16:30:17.442,-80.0,-245.0,1130.0,-85.0,24.0,215.0,125,66,100,97,149,176,436,995
2025-02-18 16:30:17.462,-84.0,25.0,1124.0,-92.0,36.0,232.0,126,68,98,100,150,11,447,1009
2025-02-18 16:30:17.482,-103.0,173.0,950.0,-61.0,40.0,194.0,129,70,100,103,151,12,464,919
2025-02-18 16:30:17.500,-164.0,357.0,904.0,-21.0,61.0,158.0,129,70,100,102,152,13,462,1003
2025-02-18 16:30:17.520,-333.0,407.0,784.0,-4.0,54.0,145.0,130,72,101,103,152,14,456,834
2025-02-18 16:30:17.539,-364.0,455.0,750.0,-14.0,38.0,154.0,129,70,100,103,151,102,445,587
2025-02-18 16:30:17.556,-409.0,757.0,752.0,-33.0,5.0,113.0,132,72,102,104,153,295,450,311
2025-02-18 16:30:17.577,-455.0,915.0,839.0,-41.0,2.0,37.0,130,71,100,103,151,510,457,278
2025-02-18 16:30:17.594,-451.0,800.0,913.0,-3.0,24.0,-35.0,132,72,101,102,153,512,465,487
2025-02-18 16:30:17.614,-611.0,1229.0,753.0,58.0,25.0,-94.0,132,73,101,100,152,513,470,664
2025-02-18 16:30:17.634,-883.0,2028.0,637.0,51.0,23.0,-213.0,131,72,100,98,152,464,481,677
2025-02-18 16:30:17.651,-913.0,2187.0,431.0,-31.0,12.0,-340.0,131,73,100,101,153,422,489,557
2025-02-18 16:30:17.671,-402.0,1036.0,417.0,-68.0,-19.0,-420.0,132,72,98,102,152,432,511,623
2025-02-18 16:30:17.691,256.0,-423.0,676.0,-18.0,-101.0,-351.0,133,73,100,105,152,364,509,850
2025-02-18 16:30:17.709,1099.0,-1111.0,1075.0,7.0,-176.0,-259.0,135,72,100,106,151,521,496,850
2025-02-18 16:30:17.728,1738.0,-2092.0,1473.0,-39.0,-132.0,-108.0,137,73,101,109,152,481,470,919
2025-02-18 16:30:17.748,1656.0,-2246.0,1471.0,-57.0,-48.0,29.0,137,73,101,110,152,424,455,846
2025-02-18 16:30:17.765,1115.0,-1740.0,1300.0,-38.0,-7.0,136.0,135,70,98,108,149,430,484,775
2025-02-18 16:30:17.786,362.0,-1072.0,1346.0,-42.0,15.0,188.0,135,70,98,109,147,790,496,511
2025-02-18 16:30:17.803,264.0,-271.0,1701.0,-81.0,44.0,210.0,135,70,97,112,133,853,486,376
2025-02-18 16:30:17.823,-240.0,-167.0,1621.0,-130.0,71.0,201.0,136,71,98,114,112,290,476,503
2025-02-18 16:30:17.843,-178.0,-247.0,1800.0,-69.0,85.0,165.0,137,71,99,116,92,63,476,624
2025-02-18 16:30:17.860,-107.0,-252.0,1760.0,-69.0,157.0,158.0,137,71,99,115,83,9,470,712
2025-02-18 16:30:17.880,166.0,-5.0,1685.0,-116.0,280.0,181.0,138,74,102,116,76,117,462,609
2025-02-18 16:30:17.900,842.0,266.0,754.0,-145.0,365.0,183.0,138,76,102,116,69,373,454,438
2025-02-18 16:30:17.917,-452.0,-160.0,801.0,-119.0,312.0,164.0,139,79,103,116,65,650,466,238
2025-02-18 16:30:17.937,-459.0,-421.0,515.0,-34.0,264.0,165.0,138,84,106,115,64,860,497,30
2025-02-18 16:30:17.957,-560.0,76.0,96.0,15.0,207.0,124.0,138,94,109,116,65,954,497,13
2025-02-18 16:30:17.974,-427.0,201.0,285.0,-71.0,174.0,105.0,138,100,111,117,64,971,503,23
2025-02-18 16:30:17.995,-756.0,151.0,79.0,-55.0,147.0,75.0,138,105,111,117,62,1018,511,58
2025-02-18 16:30:18.015,-762.0,564.0,-334.0,-48.0,79.0,2.0,139,112,112,118,65,1017,534,117
2025-02-18 16:30:18.032,-931.0,715.0,-757.0,-41.0,-42.0,-92.0,139,116,111,115,63,747,501,305
2025-02-18 16:30:18.052,-961.0,1123.0,-740.0,-53.0,-187.0,-204.0,141,123,112,113,65,375,460,383
2025-02-18 16:30:18.072,-753.0,1172.0,-911.0,-63.0,-309.0,-321.0,141,125,112,107,66,405,435,470
2025-02-18 16:30:18.089,-750.0,1206.0,-1216.0,1.0,-505.0,-495.0,141,128,113,102,66,440,421,605
2025-02-18 16:30:18.109,293.0,1453.0,-1016.0,-9.0,-770.0,-594.0,137,131,113,101,69,284,436,766
2025-02-18 16:30:18.127,2462.0,-278.0,-315.0,-212.0,-951.0,-514.0,134,133,112,100,73,636,482,921
2025-02-18 16:30:18.147,2755.0,-1961.0,418.0,-180.0,-732.0,-260.0,136,137,113,104,77,897,501,745
2025-02-18 16:30:18.167,3747.0,-3272.0,1595.0,-112.0,-359.0,-18.0,132,136,110,102,77,988,535,423
2025-02-18 16:30:18.184,2729.0,-2659.0,1966.0,127.0,56.0,54.0,132,136,112,97,79,1018,531,166
2025-02-18 16:30:18.204,1485.0,-1504.0,1561.0,150.0,198.0,49.0,130,136,111,93,80,1018,533,11
2025-02-18 16:30:18.224,496.0,-759.0,1246.0,-3.0,149.0,73.0,131,137,112,92,81,670,532,375
2025-02-18 16:30:18.241,404.0,-1123.0,864.0,-113.0,106.0,106.0,131,137,113,92,83,221,494,1007
2025-02-18 16:30:18.260,460.0,-1347.0,740.0,-77.0,110.0,137.0,130,137,112,91,81,45,461,1002
2025-02-18 16:30:18.278,593.0,-1019.0,634.0,-4.0,143.0,162.0,130,137,113,94,83,216,448,420
2025-02-18 16:30:18.298,360.0,-693.0,739.0,23.0,155.0,158.0,128,137,112,92,82,187,443,482
2025-02-18 16:30:18.318,64.0,-408.0,539.0,29.0,146.0,148.0,128,138,113,93,82,263,436,495
2025-02-18 16:30:18.335,-24.0,-248.0,514.0,18.0,127.0,124.0,127,137,113,92,81,298,422,649
2025-02-18 16:30:18.355,-96.0,-189.0,418.0,0.0,109.0,94.0,127,137,114,93,82,281,425,473
