timestamp,ax,ay,az,gx,gy,gz,flex1,flex2,flex3,flex4,flex5,emg1,emg2,emg3
2025-02-25 18:27:22.405,-501.0,-823.0,200.0,-6.0,4.0,-3.0,246,222,217,228,226
2025-02-25 18:27:22.408,-513.0,-831.0,181.0,-6.0,3.0,-3.0,240,217,211,222,220
2025-02-25 18:27:22.409,-510.0,-838.0,201.0,-6.0,3.0,-3.0,242,217,213,225,220
2025-02-25 18:27:22.411,-511.0,-837.0,190.0,-6.0,2.0,-3.0,245,222,216,229,225
2025-02-25 18:27:22.413,-523.0,-835.0,184.0,-5.0,1.0,-3.0,242,218,212,224,220
2025-02-25 18:27:22.415,-520.0,-837.0,194.0,-6.0,1.0,-3.0,239,216,210,221,218
2025-02-25 18:27:22.419,-518.0,-835.0,193.0,-6.0,0.0,-3.0,245,222,215,228,225
2025-02-25 18:27:22.421,-520.0,-841.0,191.0,-7.0,-1.0,-3.0,240,217,211,223,220
2025-02-25 18:27:22.422,-517.0,-837.0,193.0,-7.0,-1.0,-3.0,240,216,209,222,219
2025-02-25 18:27:22.424,-517.0,-840.0,195.0,-8.0,-1.0,-3.0,245,222,215,229,224
2025-02-25 18:27:22.426,-515.0,-850.0,203.0,-8.0,-1.0,-4.0,242,218,212,222,222
2025-02-25 18:27:22.428,-504.0,-846.0,196.0,-7.0,-2.0,-3.0,239,216,209,221,219
2025-02-25 18:27:22.431,-511.0,-850.0,197.0,-7.0,-2.0,-3.0,247,224,217,230,231
2025-02-25 18:27:22.433,-510.0,-850.0,198.0,-7.0,-2.0,-3.0,243,219,214,226,223
2025-02-25 18:27:22.434,-512.0,-858.0,197.0,-7.0,-2.0,-3.0,240,217,212,223,220
2025-02-25 18:27:22.436,-515.0,-861.0,203.0,-7.0,-3.0,-3.0,245,222,216,228,224
2025-02-25 18:27:22.439,-518.0,-855.0,195.0,-6.0,-2.0,-3.0,245,222,217,228,226
2025-02-25 18:27:22.441,-516.0,-860.0,193.0,-5.0,-2.0,-3.0,241,218,212,224,222
2025-02-25 18:27:22.442,-520.0,-844.0,200.0,-4.0,-2.0,-3.0,246,222,215,228,226
2025-02-25 18:27:22.445,-526.0,-867.0,178.0,-4.0,-2.0,-2.0,246,221,215,228,224
2025-02-25 18:27:22.445,-536.0,-858.0,205.0,-3.0,-2.0,-1.0,240,218,213,224,220
2025-02-25 18:27:22.448,-520.0,-868.0,204.0,-3.0,-3.0,-2.0,247,223,216,230,227
2025-02-25 18:27:22.450,-535.0,-856.0,212.0,-3.0,-2.0,-1.0,243,220,213,227,223
2025-02-25 18:27:22.452,-533.0,-858.0,212.0,-3.0,-2.0,-1.0,240,216,211,222,220
2025-02-25 18:27:22.454,-524.0,-852.0,216.0,-2.0,-2.0,-1.0,242,218,212,225,218
2025-02-25 18:27:22.456,-525.0,-850.0,215.0,-2.0,-2.0,-1.0,246,223,215,228,226
2025-02-25 18:27:22.458,-520.0,-842.0,216.0,-2.0,-2.0,0.0,244,220,213,225,223
2025-02-25 18:27:22.460,-517.0,-840.0,227.0,-2.0,-2.0,0.0,239,216,210,223,219
2025-02-25 18:27:22.461,-513.0,-843.0,230.0,-2.0,-1.0,-1.0,240,216,209,221,220
2025-02-25 18:27:22.464,-511.0,-834.0,224.0,-2.0,-1.0,-1.0,245,222,217,227,226
2025-02-25 18:27:22.466,-509.0,-832.0,229.0,-2.0,0.0,-2.0,245,222,217,229,224
2025-02-25 18:27:22.468,-506.0,-832.0,222.0,-2.0,0.0,-2.0,244,220,214,224,225
2025-02-25 18:27:22.471,-509.0,-831.0,219.0,-3.0,0.0,-2.0,241,218,212,225,220
2025-02-25 18:27:22.475,-508.0,-834.0,218.0,-3.0,1.0,-3.0,247,224,215,222,226
2025-02-25 18:27:22.483,-504.0,-839.0,211.0,-4.0,0.0,-3.0,243,221,214,228,224
2025-02-25 18:27:22.487,-508.0,-845.0,212.0,-4.0,0.0,-3.0,244,221,217,228,220
2025-02-25 18:27:22.491,-512.0,-849.0,211.0,-4.0,0.0,-3.0,238,215,210,221,218
2025-02-25 18:27:22.495,-518.0,-858.0,210.0,-4.0,-1.0,-4.0,243,222,209,226,223
2025-02-25 18:27:22.504,-521.0,-859.0,214.0,-4.0,-2.0,-3.0,243,220,213,225,222
2025-02-25 18:27:22.508,-519.0,-863.0,218.0,-4.0,-2.0,-3.0,243,217,213,225,221
2025-02-25 18:27:22.512,-512.0,-872.0,219.0,-4.0,-2.0,-2.0,238,216,209,224,219
2025-02-25 18:27:22.520,-512.0,-868.0,228.0,-4.0,-2.0,-2.0,244,221,215,226,223
2025-02-25 18:27:22.524,-508.0,-863.0,225.0,-4.0,-2.0,-2.0,244,219,214,226,223
2025-02-25 18:27:22.528,-499.0,-862.0,230.0,-3.0,-1.0,-2.0,245,222,216,228,224
2025-02-25 18:27:22.533,-501.0,-858.0,233.0,-3.0,-1.0,-1.0,239,215,208,222,218
2025-02-25 18:27:22.540,-501.0,-859.0,231.0,-3.0,0.0,-1.0,240,217,208,222,219
2025-02-25 18:27:22.545,-491.0,-856.0,225.0,-3.0,0.0,-1.0,244,221,215,228,224
2025-02-25 18:27:22.549,-492.0,-849.0,229.0,-3.0,1.0,-2.0,244,220,214,227,224
2025-02-25 18:27:22.553,-490.0,-849.0,222.0,-3.0,2.0,-2.0,239,216,209,222,220
2025-02-25 18:27:22.561,-493.0,-856.0,223.0,-3.0,2.0,-2.0,243,219,211,224,222
2025-02-25 18:27:22.565,-499.0,-854.0,221.0,-4.0,3.0,-2.0,243,220,214,226,225
2025-02-25 18:27:22.569,-498.0,-858.0,215.0,-4.0,3.0,-3.0,244,221,215,227,224
2025-02-25 18:27:22.574,-502.0,-863.0,204.0,-2.0,2.0,-2.0,237,214,208,221,218
2025-02-25 18:27:22.581,-508.0,-866.0,194.0,-3.0,3.0,-2.0,243,222,216,228,224
2025-02-25 18:27:22.585,-505.0,-860.0,187.0,-4.0,2.0,-1.0,243,221,214,228,224
2025-02-25 18:27:22.590,-511.0,-862.0,177.0,-3.0,0.0,-1.0,245,222,215,228,224
2025-02-25 18:27:22.594,-503.0,-875.0,225.0,-5.0,2.0,-1.0,238,216,208,221,217
2025-02-25 18:27:22.601,-510.0,-860.0,181.0,-4.0,0.0,-1.0,245,222,214,226,224
2025-02-25 18:27:22.605,-501.0,-866.0,197.0,-3.0,0.0,-1.0,243,221,216,227,223
2025-02-25 18:27:22.609,-502.0,-871.0,208.0,-3.0,1.0,-1.0,243,220,214,226,223
2025-02-25 18:27:22.614,-492.0,-864.0,195.0,-2.0,0.0,-1.0,238,214,211,220,218
2025-02-25 18:27:22.622,-504.0,-868.0,199.0,-3.0,-1.0,-1.0,243,221,214,225,222
2025-02-25 18:27:22.626,-500.0,-865.0,205.0,-5.0,0.0,0.0,245,225,215,229,225
2025-02-25 18:27:22.630,-494.0,-855.0,188.0,-4.0,-1.0,0.0,237,215,208,220,217
2025-02-25 18:27:22.634,-502.0,-861.0,205.0,-3.0,0.0,0.0,235,211,206,219,214
2025-02-25 18:27:22.642,-503.0,-860.0,193.0,-3.0,-1.0,0.0,241,219,211,222,221
2025-02-25 18:27:22.646,-495.0,-848.0,204.0,-4.0,1.0,0.0,248,225,218,231,227
2025-02-25 18:27:22.651,-513.0,-847.0,181.0,-3.0,0.0,0.0,236,213,207,219,217
2025-02-25 18:27:22.655,-509.0,-860.0,208.0,-3.0,0.0,0.0,233,212,203,217,214
2025-02-25 18:27:22.663,-506.0,-855.0,201.0,-3.0,0.0,0.0,240,219,212,224,222
2025-02-25 18:27:22.667,-504.0,-869.0,200.0,-3.0,-1.0,-1.0,245,224,216,228,225
2025-02-25 18:27:22.671,-513.0,-862.0,191.0,-3.0,-1.0,-1.0,237,212,209,220,218
2025-02-25 18:27:22.675,-508.0,-864.0,172.0,-3.0,-2.0,0.0,235,212,204,215,213
2025-02-25 18:27:22.684,-522.0,-869.0,196.0,-2.0,-1.0,0.0,242,220,213,224,220
2025-02-25 18:27:22.688,-518.0,-869.0,186.0,-1.0,-2.0,0.0,241,218,212,224,223
2025-02-25 18:27:22.692,-516.0,-867.0,196.0,-1.0,-2.0,1.0,237,212,205,218,215
2025-02-25 18:27:22.697,-515.0,-858.0,198.0,1.0,-1.0,2.0,235,211,206,217,214
2025-02-25 18:27:22.704,-507.0,-861.0,186.0,-1.0,-4.0,2.0,242,219,212,226,220
2025-02-25 18:27:22.708,-510.0,-850.0,232.0,0.0,-2.0,2.0,241,217,211,225,221
2025-02-25 18:27:22.712,-520.0,-856.0,175.0,4.0,-3.0,1.0,237,212,206,218,215
2025-02-25 18:27:22.716,-477.0,-859.0,195.0,4.0,-1.0,1.0,239,216,210,223,218
2025-02-25 18:27:22.724,-514.0,-872.0,250.0,-1.0,10.0,2.0,242,218,210,224,220
2025-02-25 18:27:22.728,-521.0,-833.0,153.0,-3.0,4.0,1.0,238,214,208,219,216
2025-02-25 18:27:22.733,-478.0,-855.0,273.0,-18.0,4.0,1.0,240,214,209,222,218
2025-02-25 18:27:22.737,-517.0,-859.0,176.0,-42.0,12.0,1.0,248,225,218,231,228
2025-02-25 18:27:22.745,-478.0,-808.0,183.0,-39.0,11.0,1.0,241,218,211,222,222
2025-02-25 18:27:22.749,-543.0,-833.0,179.0,-27.0,8.0,1.0,236,213,207,221,216
2025-02-25 18:27:22.753,-522.0,-829.0,162.0,-15.0,4.0,0.0,237,215,208,219,218
2025-02-25 18:27:22.758,-522.0,-822.0,272.0,-8.0,5.0,0.0,263,240,234,246,242
2025-02-25 18:27:22.765,-495.0,-844.0,207.0,-8.0,10.0,0.0,238,215,210,222,218
2025-02-25 18:27:22.769,-522.0,-806.0,106.0,-4.0,7.0,0.0,235,212,204,217,213
2025-02-25 18:27:22.774,-507.0,-825.0,178.0,-8.0,3.0,0.0,239,216,211,224,221
2025-02-25 18:27:22.778,-520.0,-860.0,169.0,-3.0,-7.0,-1.0,254,231,225,238,234
2025-02-25 18:27:22.786,-520.0,-858.0,248.0,-3.0,-11.0,-1.0,270,247,242,251,251
2025-02-25 18:27:22.790,-494.0,-826.0,214.0,-3.0,-8.0,-1.0,202,178,173,185,183
2025-02-25 18:27:22.794,-531.0,-855.0,136.0,13.0,-10.0,-1.0,217,194,185,198,196
2025-02-25 18:27:22.802,-533.0,-861.0,190.0,23.0,-12.0,0.0,226,202,195,208,206
2025-02-25 18:27:22.807,-527.0,-839.0,178.0,23.0,-12.0,-1.0,219,192,186,199,196
2025-02-25 18:27:22.811,-532.0,-844.0,135.0,20.0,-17.0,0.0,255,231,225,238,233
2025-02-25 18:27:22.815,-517.0,-853.0,221.0,10.0,-18.0,0.0,241,208,212,219,214
2025-02-25 18:27:22.823,-525.0,-853.0,185.0,7.0,-15.0,0.0,233,211,203,216,215
2025-02-25 18:27:22.827,-496.0,-837.0,192.0,13.0,-21.0,-1.0,252,229,223,234,231
2025-02-25 18:27:22.831,-518.0,-849.0,253.0,20.0,-17.0,-2.0,243,221,214,226,223
2025-02-25 18:27:22.839,-468.0,-828.0,206.0,16.0,-10.0,0.0,244,223,216,228,226
2025-02-25 18:27:22.843,-497.0,-843.0,190.0,16.0,-12.0,-1.0,251,226,221,235,231
2025-02-25 18:27:22.848,-538.0,-862.0,256.0,16.0,-15.0,-1.0,241,220,214,225,222
2025-02-25 18:27:22.852,-485.0,-869.0,281.0,4.0,-13.0,0.0,209,184,178,191,188
2025-02-25 18:27:22.860,-482.0,-865.0,272.0,1.0,-9.0,-1.0,256,234,225,239,235
2025-02-25 18:27:22.864,-504.0,-866.0,259.0,-5.0,-7.0,0.0,221,193,187,200,198
2025-02-25 18:27:22.868,-489.0,-867.0,230.0,-10.0,-1.0,0.0,204,179,173,186,182
2025-02-25 18:27:22.873,-499.0,-854.0,185.0,-6.0,-4.0,0.0,235,214,209,219,217
2025-02-25 18:27:22.880,-481.0,-876.0,316.0,-10.0,3.0,-1.0,288,265,259,269,265
2025-02-25 18:27:22.885,-480.0,-832.0,186.0,-1.0,-1.0,0.0,274,251,245,255,252
2025-02-25 18:27:22.889,-524.0,-871.0,291.0,-1.0,0.0,0.0,249,224,219,230,229
2025-02-25 18:27:22.893,-501.0,-857.0,227.0,0.0,1.0,0.0,247,224,219,230,227
2025-02-25 18:27:22.900,-525.0,-853.0,177.0,3.0,-4.0,0.0,207,184,180,192,189
2025-02-25 18:27:22.905,-547.0,-864.0,270.0,-2.0,-4.0,-1.0,242,218,214,230,223
2025-02-25 18:27:22.909,-497.0,-848.0,224.0,-6.0,-4.0,0.0,242,220,212,223,220
2025-02-25 18:27:22.914,-540.0,-864.0,208.0,-5.0,-4.0,-1.0,268,243,235,249,248
2025-02-25 18:27:22.921,-498.0,-828.0,221.0,-5.0,-3.0,-1.0,283,260,256,267,263
2025-02-25 18:27:22.926,-516.0,-879.0,227.0,3.0,-2.0,-1.0,237,213,206,217,212
2025-02-25 18:27:22.930,-529.0,-855.0,206.0,1.0,-2.0,0.0,207,182,174,189,185
2025-02-25 18:27:22.938,-507.0,-848.0,201.0,-1.0,-3.0,-1.0,210,184,174,190,188
2025-02-25 18:27:22.942,-513.0,-859.0,234.0,-5.0,-3.0,0.0,260,237,232,244,239
2025-02-25 18:27:22.946,-521.0,-856.0,233.0,-5.0,-5.0,0.0,257,226,226,239,236
2025-02-25 18:27:22.950,-507.0,-868.0,222.0,-7.0,-2.0,0.0,257,233,229,242,238
2025-02-25 18:27:22.958,-509.0,-862.0,221.0,-6.0,-1.0,0.0,252,229,222,234,231
2025-02-25 18:27:22.962,-518.0,-853.0,216.0,-5.0,0.0,1.0,250,226,220,231,228
2025-02-25 18:27:22.967,-500.0,-847.0,241.0,-5.0,2.0,1.0,247,224,219,230,227
2025-02-25 18:27:22.971,-510.0,-851.0,217.0,-4.0,3.0,1.0,265,243,236,249,245
2025-02-25 18:27:22.975,-501.0,-828.0,213.0,-3.0,4.0,0.0,259,234,230,241,238
2025-02-25 18:27:22.983,-518.0,-830.0,205.0,1.0,4.0,0.0,253,229,224,236,234
2025-02-25 18:27:22.987,-510.0,-826.0,225.0,-2.0,5.0,0.0,255,232,226,239,232
2025-02-25 18:27:22.991,-524.0,-826.0,169.0,-1.0,2.0,0.0,254,231,227,239,234
2025-02-25 18:27:22.995,-526.0,-835.0,183.0,-2.0,-1.0,-1.0,253,230,224,237,233
2025-02-25 18:27:23.003,-527.0,-834.0,200.0,1.0,-1.0,-1.0,198,174,165,179,175
2025-02-25 18:27:23.007,-534.0,-831.0,185.0,5.0,0.0,-1.0,238,214,206,218,214
2025-02-25 18:27:23.012,-530.0,-826.0,176.0,9.0,-1.0,-2.0,191,164,159,174,168
2025-02-25 18:27:23.016,-525.0,-840.0,205.0,12.0,-2.0,-2.0,226,201,198,209,207
2025-02-25 18:27:23.024,-527.0,-842.0,208.0,11.0,-2.0,-2.0,252,227,220,234,230
2025-02-25 18:27:23.028,-519.0,-826.0,223.0,13.0,-5.0,-2.0,234,210,204,215,212
2025-02-25 18:27:23.032,-524.0,-837.0,189.0,14.0,-6.0,-2.0,199,174,170,181,176
2025-02-25 18:27:23.040,-516.0,-844.0,187.0,14.0,-7.0,-2.0,211,186,181,192,189
2025-02-25 18:27:23.044,-506.0,-844.0,232.0,7.0,-4.0,-3.0,202,179,173,184,182
2025-02-25 18:27:23.048,-492.0,-834.0,208.0,8.0,-3.0,-3.0,225,200,193,206,204
2025-02-25 18:27:23.053,-518.0,-856.0,211.0,9.0,-2.0,-2.0,219,198,192,204,201
2025-02-25 18:27:23.060,-514.0,-855.0,139.0,3.0,-3.0,-2.0,216,194,189,202,197
2025-02-25 18:27:23.065,-478.0,-840.0,240.0,-5.0,0.0,-1.0,211,187,180,191,190
2025-02-25 18:27:23.069,-518.0,-853.0,203.0,-4.0,-2.0,-1.0,227,202,196,209,205
2025-02-25 18:27:23.073,-516.0,-859.0,221.0,-6.0,-5.0,-1.0,249,225,219,231,228
2025-02-25 18:27:23.081,-502.0,-861.0,237.0,-8.0,-3.0,-2.0,256,231,226,237,237
2025-02-25 18:27:23.085,-524.0,-864.0,196.0,-7.0,-3.0,0.0,257,233,228,246,237
2025-02-25 18:27:23.089,-516.0,-861.0,214.0,-7.0,-5.0,-1.0,247,225,218,228,226
2025-02-25 18:27:23.094,-526.0,-859.0,240.0,-9.0,-7.0,0.0,219,196,190,203,199
2025-02-25 18:27:23.101,-500.0,-861.0,198.0,-9.0,-8.0,0.0,230,206,200,212,210
2025-02-25 18:27:23.105,-515.0,-856.0,219.0,-4.0,-7.0,0.0,227,201,198,210,208
2025-02-25 18:27:23.110,-502.0,-867.0,218.0,-3.0,-7.0,0.0,227,205,198,209,206
2025-02-25 18:27:23.117,-506.0,-859.0,205.0,-4.0,-11.0,0.0,233,210,204,216,213
2025-02-25 18:27:23.122,-513.0,-870.0,214.0,-4.0,-16.0,1.0,235,212,206,221,217
2025-02-25 18:27:23.126,-503.0,-868.0,250.0,-5.0,-18.0,0.0,227,204,193,209,208
2025-02-25 18:27:23.130,-500.0,-853.0,238.0,-6.0,-19.0,0.0,222,201,194,205,203
2025-02-25 18:27:23.138,-518.0,-856.0,183.0,0.0,-17.0,1.0,228,206,199,211,208
2025-02-25 18:27:23.142,-510.0,-845.0,198.0,-3.0,-11.0,0.0,240,215,207,222,218
2025-02-25 18:27:23.147,-482.0,-835.0,227.0,-4.0,-5.0,0.0,239,214,209,219,216
2025-02-25 18:27:23.151,-502.0,-853.0,215.0,-9.0,-6.0,-1.0,227,201,195,206,203
2025-02-25 18:27:23.159,-513.0,-841.0,249.0,-9.0,-5.0,-1.0,235,212,206,215,213
2025-02-25 18:27:23.163,-487.0,-840.0,247.0,-13.0,-1.0,-1.0,258,234,227,240,237
2025-02-25 18:27:23.167,-500.0,-821.0,204.0,-12.0,-1.0,-1.0,273,251,245,258,255
2025-02-25 18:27:23.175,-494.0,-843.0,241.0,-11.0,1.0,-1.0,258,236,231,241,239
2025-02-25 18:27:23.179,-508.0,-832.0,220.0,-7.0,4.0,-2.0,212,188,180,193,189
2025-02-25 18:27:23.184,-500.0,-830.0,209.0,-1.0,4.0,-2.0,227,205,199,213,206
2025-02-25 18:27:23.188,-524.0,-843.0,197.0,4.0,2.0,-2.0,248,222,217,229,225
2025-02-25 18:27:23.196,-503.0,-837.0,221.0,4.0,1.0,-2.0,180,154,149,161,159
2025-02-25 18:27:23.200,-518.0,-862.0,194.0,11.0,-3.0,-2.0,237,215,208,220,215
2025-02-25 18:27:23.204,-505.0,-887.0,270.0,14.0,1.0,-2.0,243,220,213,225,222
2025-02-25 18:27:23.209,-539.0,-841.0,118.0,20.0,-8.0,-1.0,216,191,184,201,194
2025-02-25 18:27:23.216,-524.0,-874.0,246.0,26.0,-7.0,-1.0,211,183,178,190,187
2025-02-25 18:27:23.220,-522.0,-871.0,254.0,32.0,-8.0,0.0,242,217,212,224,221
2025-02-25 18:27:23.225,-508.0,-862.0,213.0,35.0,-11.0,0.0,258,234,227,236,235
2025-02-25 18:27:23.228,-507.0,-851.0,282.0,30.0,-4.0,-1.0,271,248,242,254,249
2025-02-25 18:27:23.237,-501.0,-837.0,213.0,28.0,-3.0,0.0,264,242,235,248,244
2025-02-25 18:27:23.241,-510.0,-851.0,250.0,11.0,-2.0,0.0,262,238,231,244,240
2025-02-25 18:27:23.245,-501.0,-837.0,288.0,4.0,-2.0,0.0,257,234,227,241,237
2025-02-25 18:27:23.250,-505.0,-874.0,270.0,-1.0,-5.0,0.0,250,226,219,232,228
2025-02-25 18:27:23.257,-511.0,-850.0,252.0,-5.0,-5.0,-1.0,239,218,210,221,217
2025-02-25 18:27:23.261,-493.0,-851.0,215.0,-2.0,-1.0,1.0,215,192,183,197,195
2025-02-25 18:27:23.266,-527.0,-869.0,271.0,-4.0,1.0,0.0,229,206,198,211,207
2025-02-25 18:27:23.270,-486.0,-854.0,276.0,-5.0,4.0,0.0,200,175,171,183,179
2025-02-25 18:27:23.277,-503.0,-866.0,215.0,-6.0,1.0,1.0,189,163,158,170,166
2025-02-25 18:27:23.282,-514.0,-865.0,218.0,-13.0,0.0,1.0,182,157,150,163,160
2025-02-25 18:27:23.286,-510.0,-860.0,229.0,-14.0,-3.0,1.0,197,172,164,176,173
2025-02-25 18:27:23.291,-518.0,-853.0,239.0,-15.0,-4.0,1.0,192,168,160,174,169
2025-02-25 18:27:23.298,-516.0,-834.0,253.0,-12.0,-1.0,1.0,196,171,163,177,174
2025-02-25 18:27:23.302,-524.0,-843.0,230.0,-11.0,-2.0,1.0,183,158,150,162,159
2025-02-25 18:27:23.306,-508.0,-827.0,238.0,-10.0,-2.0,1.0,256,232,228,240,236
2025-02-25 18:27:23.314,-511.0,-834.0,264.0,-11.0,2.0,0.0,235,212,206,216,216
2025-02-25 18:27:23.319,-515.0,-822.0,213.0,-12.0,0.0,0.0,202,177,172,185,182
2025-02-25 18:27:23.323,-510.0,-825.0,258.0,-15.0,0.0,0.0,188,161,154,167,163
2025-02-25 18:27:23.327,-505.0,-829.0,228.0,-15.0,1.0,-1.0,177,150,143,157,154
2025-02-25 18:27:23.334,-520.0,-829.0,231.0,-12.0,1.0,-1.0,178,152,144,158,155
2025-02-25 18:27:23.339,-510.0,-807.0,232.0,-8.0,2.0,-1.0,177,154,145,159,154
2025-02-25 18:27:23.343,-520.0,-835.0,180.0,-15.0,0.0,-2.0,176,149,144,155,149
2025-02-25 18:27:23.347,-506.0,-823.0,224.0,0.0,-2.0,-2.0,178,151,144,158,154
2025-02-25 18:27:23.356,-526.0,-858.0,254.0,2.0,-1.0,-2.0,178,152,146,159,156
2025-02-25 18:27:23.360,-507.0,-813.0,208.0,6.0,4.0,-2.0,179,152,145,159,156
2025-02-25 18:27:23.364,-526.0,-854.0,189.0,7.0,2.0,-1.0,173,148,141,154,151
2025-02-25 18:27:23.368,-518.0,-833.0,258.0,4.0,1.0,-2.0,179,149,142,156,151
2025-02-25 18:27:23.376,-521.0,-866.0,256.0,2.0,-2.0,-1.0,174,146,143,153,150
2025-02-25 18:27:23.380,-517.0,-830.0,212.0,-1.0,-1.0,-2.0,171,145,137,151,148
2025-02-25 18:27:23.384,-509.0,-819.0,218.0,-1.0,4.0,-2.0,174,145,141,153,147
2025-02-25 18:27:23.389,-502.0,-832.0,270.0,0.0,7.0,-2.0,171,147,139,152,149
2025-02-25 18:27:23.396,-524.0,-840.0,233.0,2.0,4.0,-2.0,169,147,138,151,145
2025-02-25 18:27:23.401,-508.0,-842.0,221.0,0.0,3.0,-3.0,168,143,136,148,143
2025-02-25 18:27:23.405,-507.0,-832.0,252.0,-3.0,5.0,-3.0,171,145,138,150,148
2025-02-25 18:27:23.410,-519.0,-848.0,222.0,-1.0,4.0,-3.0,172,147,140,154,149
2025-02-25 18:27:23.417,-501.0,-837.0,200.0,-1.0,3.0,-3.0,170,140,135,150,148
2025-02-25 18:27:23.423,-510.0,-867.0,217.0,2.0,3.0,-3.0,167,140,134,148,144
2025-02-25 18:27:23.427,-510.0,-862.0,198.0,2.0,1.0,-3.0,173,149,142,153,151
2025-02-25 18:27:23.431,-526.0,-839.0,212.0,3.0,1.0,-3.0,171,146,137,152,147
2025-02-25 18:27:23.438,-517.0,-874.0,204.0,5.0,-1.0,-2.0,168,140,133,147,144
2025-02-25 18:27:23.442,-515.0,-861.0,215.0,4.0,-2.0,-2.0,166,139,134,146,144
2025-02-25 18:27:23.446,-516.0,-862.0,203.0,5.0,-1.0,-1.0,169,144,138,151,147
2025-02-25 18:27:23.451,-503.0,-862.0,215.0,-1.0,-2.0,-1.0,169,142,135,148,145
2025-02-25 18:27:23.458,-519.0,-865.0,215.0,-2.0,-3.0,0.0,165,137,132,146,143
2025-02-25 18:27:23.462,-505.0,-854.0,251.0,-2.0,0.0,0.0,166,139,133,146,142
2025-02-25 18:27:23.467,-520.0,-855.0,174.0,-8.0,0.0,0.0,169,144,138,150,147
2025-02-25 18:27:23.471,-510.0,-861.0,193.0,-12.0,0.0,0.0,166,140,135,147,143
2025-02-25 18:27:23.478,-508.0,-873.0,196.0,-15.0,-2.0,0.0,164,137,132,143,140
2025-02-25 18:27:23.483,-511.0,-851.0,247.0,-17.0,-4.0,0.0,161,138,130,142,139
2025-02-25 18:27:23.487,-512.0,-855.0,259.0,-11.0,-4.0,0.0,167,141,135,147,142
2025-02-25 18:27:23.491,-476.0,-855.0,209.0,-14.0,1.0,0.0,166,140,132,146,143
2025-02-25 18:27:23.499,-515.0,-851.0,202.0,-10.0,1.0,-1.0,161,136,131,144,139
2025-02-25 18:27:23.503,-494.0,-845.0,198.0,-10.0,-2.0,-1.0,163,135,130,143,142
2025-02-25 18:27:23.508,-491.0,-858.0,208.0,-14.0,-7.0,0.0,164,139,132,145,142
2025-02-25 18:27:23.515,-482.0,-867.0,245.0,-14.0,-6.0,0.0,164,138,131,143,140
2025-02-25 18:27:23.520,-485.0,-883.0,203.0,-14.0,-8.0,0.0,162,136,129,142,140
2025-02-25 18:27:23.524,-482.0,-885.0,208.0,-12.0,-10.0,0.0,160,135,128,143,138
2025-02-25 18:27:23.528,-505.0,-889.0,201.0,-6.0,-9.0,0.0,160,134,125,141,138
2025-02-25 18:27:23.536,-493.0,-882.0,213.0,-2.0,-7.0,2.0,163,136,131,143,141
2025-02-25 18:27:23.540,-511.0,-896.0,217.0,-3.0,-7.0,3.0,161,135,130,142,139
2025-02-25 18:27:23.544,-507.0,-878.0,215.0,-8.0,-6.0,3.0,160,131,125,140,136
2025-02-25 18:27:23.549,-495.0,-888.0,187.0,-11.0,-8.0,4.0,159,133,126,139,136
2025-02-25 18:27:23.556,-503.0,-887.0,224.0,-18.0,-9.0,4.0,163,134,131,142,139
2025-02-25 18:27:23.560,-490.0,-871.0,249.0,-21.0,-7.0,4.0,161,134,128,142,140
2025-02-25 18:27:23.564,-501.0,-863.0,214.0,-20.0,-4.0,5.0,162,138,129,142,142
2025-02-25 18:27:23.572,-514.0,-858.0,208.0,-23.0,-2.0,5.0,161,133,127,139,137
2025-02-25 18:27:23.577,-509.0,-841.0,209.0,-22.0,0.0,4.0,161,135,128,142,139
2025-02-25 18:27:23.581,-509.0,-860.0,194.0,-19.0,-3.0,4.0,162,135,128,143,140
2025-02-25 18:27:23.585,-510.0,-862.0,234.0,-19.0,-3.0,3.0,163,131,129,143,141
2025-02-25 18:27:23.593,-506.0,-870.0,194.0,-15.0,-4.0,3.0,159,133,126,139,137
2025-02-25 18:27:23.597,-515.0,-868.0,211.0,-11.0,-5.0,3.0,158,132,125,140,137
2025-02-25 18:27:23.601,-518.0,-881.0,211.0,-5.0,-7.0,3.0,160,133,127,142,139
2025-02-25 18:27:23.605,-519.0,-878.0,223.0,-1.0,-7.0,3.0,162,135,127,141,139
2025-02-25 18:27:23.613,-529.0,-900.0,220.0,2.0,-7.0,4.0,160,133,125,139,135
2025-02-25 18:27:23.617,-542.0,-885.0,210.0,6.0,-7.0,5.0,158,134,125,137,135
2025-02-25 18:27:23.622,-551.0,-887.0,206.0,7.0,-8.0,6.0,160,138,127,139,137
2025-02-25 18:27:23.626,-553.0,-885.0,262.0,6.0,-6.0,7.0,162,134,128,140,137
2025-02-25 18:27:23.634,-564.0,-875.0,235.0,7.0,-5.0,7.0,163,135,129,142,138
2025-02-25 18:27:23.638,-554.0,-863.0,236.0,3.0,-3.0,8.0,161,136,130,144,140
2025-02-25 18:27:23.643,-552.0,-835.0,245.0,1.0,-3.0,8.0,163,137,131,143,141
2025-02-25 18:27:23.647,-545.0,-831.0,243.0,3.0,-3.0,8.0,166,139,131,145,140
2025-02-25 18:27:23.655,-532.0,-818.0,234.0,-4.0,-3.0,7.0,164,139,131,145,141
2025-02-25 18:27:23.659,-532.0,-793.0,246.0,-5.0,-2.0,6.0,166,139,133,146,142
2025-02-25 18:27:23.663,-503.0,-800.0,245.0,-8.0,1.0,3.0,165,138,132,146,142
2025-02-25 18:27:23.667,-520.0,-794.0,236.0,-11.0,2.0,2.0,165,140,131,144,142
2025-02-25 18:27:23.675,-516.0,-792.0,254.0,-16.0,1.0,1.0,161,134,127,140,137
2025-02-25 18:27:23.679,-523.0,-792.0,245.0,-20.0,0.0,0.0,155,129,123,135,132
2025-02-25 18:27:23.683,-533.0,-805.0,256.0,-19.0,-1.0,-1.0,152,125,118,132,129
2025-02-25 18:27:23.687,-533.0,-810.0,233.0,-19.0,-2.0,-2.0,152,124,119,134,128
2025-02-25 18:27:23.695,-537.0,-815.0,229.0,-14.0,-1.0,-2.0,151,127,118,131,132
2025-02-25 18:27:23.699,-558.0,-830.0,206.0,-12.0,-1.0,-2.0,153,127,121,134,131
2025-02-25 18:27:23.704,-575.0,-837.0,223.0,-11.0,-2.0,-2.0,153,127,120,132,130
2025-02-25 18:27:23.711,-554.0,-837.0,204.0,-10.0,-3.0,-2.0,154,127,120,133,130
2025-02-25 18:27:23.716,-564.0,-835.0,230.0,-12.0,-3.0,-2.0,151,119,117,130,130
2025-02-25 18:27:23.720,-559.0,-838.0,237.0,-18.0,-3.0,-2.0,151,126,117,130,127
2025-02-25 18:27:23.724,-556.0,-824.0,214.0,-19.0,-3.0,-2.0,156,128,123,135,132
2025-02-25 18:27:23.732,-557.0,-829.0,220.0,-21.0,-4.0,-3.0,154,128,120,133,131
2025-02-25 18:27:23.737,-538.0,-829.0,212.0,-21.0,-5.0,-3.0,153,129,120,133,130
2025-02-25 18:27:23.741,-535.0,-830.0,212.0,-22.0,-4.0,-3.0,149,123,119,130,128
2025-02-25 18:27:23.749,-543.0,-825.0,214.0,-24.0,-5.0,-3.0,153,126,120,132,130
2025-02-25 18:27:23.753,-538.0,-831.0,219.0,-21.0,-5.0,-3.0,152,125,119,132,130
2025-02-25 18:27:23.757,-535.0,-850.0,232.0,-21.0,-3.0,-3.0,153,126,119,133,131
2025-02-25 18:27:23.765,-547.0,-848.0,217.0,-22.0,-4.0,-2.0,153,124,119,132,129
2025-02-25 18:27:23.769,-545.0,-838.0,205.0,-24.0,-3.0,-2.0,151,125,118,131,129
2025-02-25 18:27:23.773,-535.0,-839.0,181.0,-24.0,-4.0,-2.0,152,125,118,131,128
2025-02-25 18:27:23.778,-531.0,-845.0,225.0,-23.0,-3.0,-2.0,154,128,119,131,130
2025-02-25 18:27:23.786,-518.0,-845.0,244.0,-20.0,-1.0,-3.0,151,128,120,135,129
2025-02-25 18:27:23.790,-518.0,-843.0,220.0,-18.0,-1.0,-3.0,152,125,118,130,129
2025-02-25 18:27:23.794,-526.0,-855.0,236.0,-11.0,-2.0,-3.0,150,122,115,129,127
2025-02-25 18:27:23.801,-514.0,-840.0,226.0,-8.0,-1.0,-3.0,148,121,115,128,124
2025-02-25 18:27:23.806,-496.0,-833.0,217.0,-5.0,1.0,-3.0,149,123,117,129,129
2025-02-25 18:27:23.810,-495.0,-823.0,211.0,-5.0,5.0,-3.0,150,125,119,131,128
2025-02-25 18:27:23.814,-499.0,-823.0,210.0,-5.0,5.0,-4.0,148,124,116,128,127
2025-02-25 18:27:23.822,-507.0,-823.0,216.0,-9.0,5.0,-4.0,150,124,117,130,126
2025-02-25 18:27:23.826,-508.0,-819.0,236.0,-9.0,4.0,-4.0,151,124,115,131,129
2025-02-25 18:27:23.831,-516.0,-831.0,244.0,-10.0,6.0,-3.0,151,125,118,130,127
2025-02-25 18:27:23.835,-525.0,-836.0,221.0,-11.0,8.0,-2.0,149,123,115,128,127
2025-02-25 18:27:23.843,-523.0,-825.0,197.0,-10.0,9.0,-1.0,150,122,112,127,124
2025-02-25 18:27:23.847,-527.0,-828.0,195.0,-11.0,11.0,0.0,150,125,118,130,129
2025-02-25 18:27:23.851,-529.0,-829.0,185.0,-11.0,9.0,1.0,152,126,119,130,129
2025-02-25 18:27:23.859,-536.0,-837.0,168.0,-12.0,7.0,2.0,151,124,119,130,130
2025-02-25 18:27:23.863,-538.0,-842.0,183.0,-13.0,6.0,3.0,150,123,117,129,127
2025-02-25 18:27:23.867,-542.0,-839.0,196.0,-13.0,6.0,3.0,153,126,121,133,131
2025-02-25 18:27:23.872,-533.0,-842.0,181.0,-11.0,4.0,4.0,152,127,118,130,129
2025-02-25 18:27:23.879,-529.0,-845.0,193.0,-10.0,5.0,4.0,152,124,117,128,129
2025-02-25 18:27:23.883,-522.0,-826.0,186.0,-11.0,5.0,4.0,150,124,119,130,130
2025-02-25 18:27:23.888,-524.0,-842.0,197.0,-13.0,4.0,4.0,152,126,121,133,130
2025-02-25 18:27:23.892,-528.0,-835.0,180.0,-15.0,3.0,3.0,154,130,120,132,131
2025-02-25 18:27:23.899,-507.0,-828.0,197.0,-13.0,5.0,3.0,151,124,119,132,132
2025-02-25 18:27:23.905,-506.0,-842.0,178.0,-13.0,5.0,2.0,151,124,117,132,130
2025-02-25 18:27:23.908,-509.0,-844.0,159.0,-17.0,6.0,1.0,153,127,122,134,133
2025-02-25 18:27:23.912,-520.0,-839.0,150.0,-14.0,4.0,1.0,155,129,123,134,133
2025-02-25 18:27:23.921,-521.0,-843.0,183.0,-14.0,4.0,1.0,156,129,126,134,134
2025-02-25 18:27:23.925,-514.0,-841.0,170.0,-7.0,2.0,1.0,157,131,125,135,137
2025-02-25 18:27:23.929,-508.0,-850.0,185.0,-5.0,3.0,1.0,159,130,124,137,135
2025-02-25 18:27:23.934,-509.0,-832.0,178.0,-3.0,5.0,1.0,154,126,121,137,134
2025-02-25 18:27:23.941,-505.0,-832.0,159.0,-1.0,5.0,0.0,155,126,118,131,130
2025-02-25 18:27:23.945,-504.0,-838.0,159.0,-2.0,5.0,0.0,150,130,119,133,132
2025-02-25 18:27:23.950,-499.0,-836.0,172.0,-7.0,6.0,-1.0,154,128,122,134,134
2025-02-25 18:27:23.954,-509.0,-839.0,145.0,-11.0,7.0,-2.0,155,126,122,132,131
2025-02-25 18:27:23.962,-513.0,-825.0,142.0,-15.0,7.0,-2.0,154,126,118,132,131
2025-02-25 18:27:23.966,-512.0,-828.0,156.0,-13.0,9.0,-2.0,151,126,120,131,132
2025-02-25 18:27:23.970,-530.0,-830.0,132.0,-15.0,9.0,-2.0,153,128,127,133,133
2025-02-25 18:27:23.974,-517.0,-827.0,122.0,-13.0,10.0,-2.0,154,127,120,131,132
2025-02-25 18:27:23.982,-515.0,-834.0,129.0,-15.0,12.0,-2.0,151,126,120,133,131
2025-02-25 18:27:23.986,-531.0,-824.0,93.0,-9.0,10.0,-2.0,151,126,119,132,132
2025-02-25 18:27:23.991,-541.0,-820.0,120.0,-8.0,5.0,-2.0,153,128,120,130,132
2025-02-25 18:27:23.995,-523.0,-817.0,139.0,-8.0,8.0,-3.0,152,126,121,133,132
2025-02-25 18:27:24.002,-508.0,-805.0,60.0,-4.0,4.0,-4.0,151,127,118,131,130
2025-02-25 18:27:24.007,-510.0,-813.0,88.0,-6.0,3.0,-5.0,152,124,118,129,130
2025-02-25 18:27:24.011,-492.0,-800.0,76.0,0.0,1.0,-7.0,151,126,118,131,131
2025-02-25 18:27:24.016,-496.0,-813.0,109.0,-2.0,2.0,-8.0,150,125,118,130,130
2025-02-25 18:27:24.023,-489.0,-806.0,85.0,1.0,2.0,-9.0,150,124,118,129,130
2025-02-25 18:27:24.027,-486.0,-810.0,72.0,1.0,2.0,-10.0,150,125,119,129,131
2025-02-25 18:27:24.032,-491.0,-814.0,70.0,2.0,3.0,-9.0,151,125,117,128,130
2025-02-25 18:27:24.036,-493.0,-828.0,74.0,-1.0,4.0,-10.0,150,122,117,128,128
2025-02-25 18:27:24.044,-503.0,-837.0,61.0,2.0,4.0,-9.0,153,124,118,130,130
2025-02-25 18:27:24.048,-508.0,-850.0,86.0,-1.0,5.0,-9.0,152,127,118,131,131
2025-02-25 18:27:24.052,-507.0,-840.0,50.0,-1.0,5.0,-9.0,150,127,118,130,129
2025-02-25 18:27:24.056,-504.0,-834.0,55.0,0.0,5.0,-9.0,150,123,116,128,129
2025-02-25 18:27:24.061,-520.0,-838.0,61.0,-1.0,5.0,-9.0,150,128,118,130,130
2025-02-25 18:27:24.068,-517.0,-836.0,45.0,0.0,3.0,-9.0,151,128,119,130,130
2025-02-25 18:27:24.072,-516.0,-845.0,44.0,1.0,3.0,-9.0,149,125,118,130,129
2025-02-25 18:27:24.076,-514.0,-841.0,42.0,-1.0,1.0,-9.0,150,125,117,129,129
2025-02-25 18:27:24.081,-521.0,-845.0,55.0,0.0,0.0,-10.0,151,127,119,130,130
2025-02-25 18:27:24.088,-523.0,-852.0,53.0,0.0,-1.0,-10.0,149,124,117,130,129
2025-02-25 18:27:24.092,-527.0,-863.0,57.0,1.0,-2.0,-9.0,149,126,117,129,130
2025-02-25 18:27:24.096,-513.0,-864.0,48.0,0.0,-2.0,-9.0,152,125,120,132,131
2025-02-25 18:27:24.101,-510.0,-860.0,57.0,0.0,-3.0,-9.0,151,126,119,131,131
2025-02-25 18:27:24.109,-514.0,-876.0,66.0,1.0,-3.0,-10.0,150,125,118,128,129
2025-02-25 18:27:24.113,-512.0,-879.0,69.0,-1.0,-4.0,-10.0,151,126,117,127,128
2025-02-25 18:27:24.118,-510.0,-882.0,68.0,1.0,-6.0,-9.0,152,127,119,130,130
2025-02-25 18:27:24.122,-507.0,-891.0,76.0,-1.0,-5.0,-9.0,150,126,119,130,132
2025-02-25 18:27:24.130,-501.0,-883.0,68.0,-3.0,-6.0,-9.0,150,125,117,130,129
2025-02-25 18:27:24.134,-505.0,-898.0,62.0,-1.0,-7.0,-8.0,150,126,118,127,129
2025-02-25 18:27:24.138,-491.0,-903.0,87.0,-3.0,-6.0,-9.0,152,128,119,130,131
2025-02-25 18:27:24.142,-480.0,-909.0,74.0,-3.0,-8.0,-8.0,151,125,116,131,132
2025-02-25 18:27:24.150,-495.0,-913.0,103.0,-5.0,-9.0,-8.0,150,126,120,130,130
2025-02-25 18:27:24.154,-481.0,-925.0,105.0,-3.0,-8.0,-7.0,148,125,117,129,129
2025-02-25 18:27:24.158,-489.0,-926.0,94.0,1.0,-9.0,-7.0,153,128,120,132,132
2025-02-25 18:27:24.163,-491.0,-935.0,118.0,3.0,-9.0,-7.0,151,128,120,130,130
2025-02-25 18:27:24.170,-485.0,-928.0,106.0,4.0,-10.0,-7.0,151,126,118,130,130
2025-02-25 18:27:24.174,-480.0,-929.0,122.0,7.0,-12.0,-7.0,148,129,117,128,128
2025-02-25 18:27:24.179,-470.0,-927.0,143.0,8.0,-11.0,-6.0,152,127,119,131,130
2025-02-25 18:27:24.187,-464.0,-920.0,130.0,7.0,-12.0,-5.0,152,130,120,130,132
2025-02-25 18:27:24.191,-456.0,-921.0,141.0,7.0,-11.0,-4.0,149,126,118,130,130
2025-02-25 18:27:24.195,-464.0,-920.0,158.0,5.0,-11.0,-4.0,149,127,117,129,129
2025-02-25 18:27:24.199,-459.0,-920.0,146.0,5.0,-11.0,-4.0,151,128,120,131,131
2025-02-25 18:27:24.208,-462.0,-924.0,163.0,3.0,-10.0,-3.0,153,127,119,131,132
2025-02-25 18:27:24.212,-462.0,-921.0,159.0,2.0,-9.0,-3.0,150,126,119,130,132
2025-02-25 18:27:24.216,-461.0,-931.0,159.0,0.0,-8.0,-3.0,150,126,117,129,130
2025-02-25 18:27:24.220,-464.0,-930.0,155.0,0.0,-9.0,-3.0,151,130,119,131,131
2025-02-25 18:27:24.228,-462.0,-932.0,166.0,-1.0,-9.0,-3.0,152,129,120,132,131
2025-02-25 18:27:24.232,-469.0,-925.0,166.0,-1.0,-8.0,-3.0,151,129,120,131,131
2025-02-25 18:27:24.237,-474.0,-930.0,165.0,-1.0,-9.0,-2.0,150,127,118,131,131
2025-02-25 18:27:24.244,-477.0,-928.0,158.0,-2.0,-8.0,-2.0,151,127,118,131,130
2025-02-25 18:27:24.249,-493.0,-931.0,155.0,-1.0,-10.0,-1.0,151,127,116,129,132
2025-02-25 18:27:24.253,-489.0,-932.0,173.0,-2.0,-10.0,0.0,152,126,119,132,132
2025-02-25 18:27:24.257,-502.0,-928.0,168.0,-2.0,-12.0,1.0,151,126,118,130,131
2025-02-25 18:27:24.265,-505.0,-923.0,190.0,-1.0,-11.0,1.0,151,127,118,131,130
2025-02-25 18:27:24.269,-492.0,-916.0,175.0,-1.0,-12.0,1.0,154,128,120,132,133
2025-02-25 18:27:24.273,-490.0,-907.0,188.0,-2.0,-12.0,1.0,153,127,116,131,133
2025-02-25 18:27:24.277,-482.0,-902.0,196.0,-3.0,-12.0,1.0,152,128,119,133,133
2025-02-25 18:27:24.285,-478.0,-896.0,194.0,-4.0,-13.0,2.0,154,127,120,131,131
2025-02-25 18:27:24.290,-475.0,-890.0,192.0,-5.0,-12.0,2.0,151,127,117,129,130
2025-02-25 18:27:24.294,-468.0,-887.0,206.0,-7.0,-11.0,2.0,153,128,118,132,131
2025-02-25 18:27:24.302,-467.0,-880.0,201.0,-6.0,-10.0,2.0,153,128,119,131,132
2025-02-25 18:27:24.305,-476.0,-878.0,192.0,-7.0,-9.0,2.0,152,129,119,132,132
2025-02-25 18:27:24.310,-477.0,-885.0,190.0,-8.0,-8.0,2.0,152,126,121,131,131
2025-02-25 18:27:24.314,-481.0,-880.0,198.0,-10.0,-7.0,2.0,152,128,120,132,132
2025-02-25 18:27:24.322,-498.0,-884.0,187.0,-12.0,-7.0,2.0,152,129,122,132,133
2025-02-25 18:27:24.327,-499.0,-886.0,203.0,-11.0,-6.0,2.0,150,130,120,131,132
2025-02-25 18:27:24.331,-507.0,-897.0,191.0,-11.0,-5.0,2.0,152,128,117,131,132
2025-02-25 18:27:24.335,-494.0,-893.0,187.0,-11.0,-5.0,2.0,152,126,121,132,132
2025-02-25 18:27:24.343,-502.0,-884.0,190.0,-8.0,-6.0,2.0,153,129,120,132,132
2025-02-25 18:27:24.347,-514.0,-887.0,210.0,-6.0,-4.0,2.0,152,129,120,134,134
2025-02-25 18:27:24.351,-503.0,-874.0,174.0,-8.0,-4.0,1.0,152,127,119,130,131
2025-02-25 18:27:24.355,-506.0,-882.0,221.0,-9.0,-5.0,1.0,153,128,119,132,133
2025-02-25 18:27:24.363,-501.0,-879.0,221.0,-8.0,-4.0,0.0,153,129,120,132,132
2025-02-25 18:27:24.367,-505.0,-876.0,195.0,-8.0,-5.0,-1.0,154,129,120,132,132
2025-02-25 18:27:24.371,-494.0,-865.0,204.0,-8.0,-3.0,-2.0,153,127,118,131,130
2025-02-25 18:27:24.380,-488.0,-864.0,191.0,-5.0,-2.0,-2.0,150,128,118,129,131
2025-02-25 18:27:24.384,-494.0,-874.0,193.0,-5.0,0.0,-3.0,154,130,121,134,133
2025-02-25 18:27:24.388,-487.0,-862.0,200.0,-4.0,1.0,-3.0,153,127,120,131,131
2025-02-25 18:27:24.393,-494.0,-861.0,201.0,-2.0,2.0,-4.0,151,121,118,130,131
2025-02-25 18:27:24.400,-500.0,-859.0,186.0,-1.0,4.0,-5.0,149,125,119,131,131
2025-02-25 18:27:24.404,-493.0,-857.0,179.0,-2.0,5.0,-6.0,155,129,123,134,133
2025-02-25 18:27:24.409,-497.0,-854.0,185.0,-1.0,7.0,-6.0,152,127,118,132,133
2025-02-25 18:27:24.413,-491.0,-852.0,181.0,-1.0,8.0,-5.0,152,121,118,131,128
2025-02-25 18:27:24.420,-487.0,-852.0,167.0,-1.0,8.0,-6.0,153,127,120,131,132
2025-02-25 18:27:24.425,-496.0,-842.0,168.0,-1.0,9.0,-4.0,154,124,121,134,132
2025-02-25 18:27:24.429,-510.0,-838.0,164.0,-1.0,9.0,-3.0,152,128,121,133,132
2025-02-25 18:27:24.433,-501.0,-838.0,168.0,0.0,9.0,-2.0,155,128,117,131,130
2025-02-25 18:27:24.441,-509.0,-847.0,171.0,-1.0,7.0,-2.0,152,127,120,134,133
2025-02-25 18:27:24.445,-518.0,-846.0,163.0,4.0,8.0,-1.0,154,129,122,133,132
2025-02-25 18:27:24.449,-522.0,-849.0,143.0,6.0,8.0,-1.0,152,126,118,131,131
2025-02-25 18:27:24.453,-519.0,-837.0,139.0,8.0,8.0,0.0,151,126,119,130,130
2025-02-25 18:27:24.461,-523.0,-844.0,142.0,8.0,7.0,-1.0,153,130,120,132,133
2025-02-25 18:27:24.466,-522.0,-842.0,146.0,8.0,6.0,-2.0,153,128,121,132,134
2025-02-25 18:27:24.470,-517.0,-840.0,140.0,8.0,6.0,-2.0,152,128,120,131,130
2025-02-25 18:27:24.475,-513.0,-836.0,143.0,6.0,6.0,-3.0,152,128,120,132,131
2025-02-25 18:27:24.479,-512.0,-820.0,144.0,4.0,6.0,-5.0,152,129,120,131,134
2025-02-25 18:27:24.486,-514.0,-823.0,148.0,3.0,6.0,-6.0,151,128,120,131,131
2025-02-25 18:27:24.490,-511.0,-818.0,141.0,1.0,6.0,-8.0,152,127,117,131,132
2025-02-25 18:27:24.494,-511.0,-824.0,138.0,-2.0,7.0,-10.0,152,128,120,132,132
2025-02-25 18:27:24.499,-510.0,-820.0,125.0,-2.0,7.0,-12.0,150,127,120,131,132
2025-02-25 18:27:24.506,-506.0,-814.0,127.0,-3.0,7.0,-15.0,151,127,119,132,131
2025-02-25 18:27:24.511,-512.0,-817.0,128.0,-5.0,5.0,-16.0,151,127,119,131,133
2025-02-25 18:27:24.515,-507.0,-818.0,118.0,-4.0,4.0,-17.0,155,127,120,133,132
2025-02-25 18:27:24.522,-501.0,-822.0,114.0,-3.0,3.0,-18.0,152,128,120,133,132
2025-02-25 18:27:24.527,-510.0,-836.0,111.0,0.0,1.0,-17.0,153,126,121,133,132
2025-02-25 18:27:24.531,-510.0,-841.0,117.0,5.0,0.0,-16.0,152,125,118,132,131
2025-02-25 18:27:24.536,-500.0,-844.0,123.0,5.0,1.0,-15.0,153,127,119,131,132
2025-02-25 18:27:24.543,-504.0,-849.0,125.0,11.0,-1.0,-13.0,153,127,121,132,133
2025-02-25 18:27:24.548,-502.0,-832.0,127.0,5.0,-3.0,-11.0,153,128,121,132,133
2025-02-25 18:27:24.552,-457.0,-877.0,194.0,10.0,0.0,-10.0,150,125,118,128,130
2025-02-25 18:27:24.556,-474.0,-886.0,84.0,-2.0,2.0,-9.0,150,124,124,130,130
2025-02-25 18:27:24.564,-506.0,-847.0,161.0,14.0,0.0,-9.0,153,126,120,132,132
2025-02-25 18:27:24.568,-483.0,-882.0,120.0,10.0,-3.0,-9.0,154,127,118,132,131
2025-02-25 18:27:24.572,-479.0,-875.0,87.0,12.0,-6.0,-9.0,151,122,120,131,127
2025-02-25 18:27:24.577,-496.0,-881.0,171.0,4.0,-5.0,-8.0,150,123,114,129,129
2025-02-25 18:27:24.584,-494.0,-870.0,113.0,2.0,-7.0,-8.0,151,126,121,134,131
2025-02-25 18:27:24.588,-463.0,-871.0,197.0,3.0,0.0,-9.0,152,125,120,132,129
2025-02-25 18:27:24.592,-470.0,-865.0,159.0,3.0,3.0,-10.0,152,124,122,135,130
2025-02-25 18:27:24.600,-467.0,-857.0,123.0,-2.0,0.0,-10.0,151,125,121,133,129
2025-02-25 18:27:24.605,-467.0,-861.0,183.0,-7.0,3.0,-11.0,154,127,122,135,132
2025-02-25 18:27:24.609,-479.0,-873.0,129.0,-9.0,1.0,-12.0,152,124,120,132,129
2025-02-25 18:27:24.613,-475.0,-874.0,92.0,-15.0,0.0,-12.0,152,125,121,132,129
2025-02-25 18:27:24.621,-469.0,-894.0,125.0,-11.0,-6.0,-12.0,150,123,118,130,129
2025-02-25 18:27:24.625,-473.0,-894.0,150.0,-14.0,-12.0,-13.0,153,127,123,133,132
2025-02-25 18:27:24.629,-474.0,-917.0,166.0,-10.0,-11.0,-12.0,154,125,119,132,132
2025-02-25 18:27:24.638,-457.0,-918.0,159.0,0.0,-6.0,-11.0,154,125,120,133,131
2025-02-25 18:27:24.642,-450.0,-843.0,110.0,-1.0,-7.0,-7.0,154,124,118,131,129
2025-02-25 18:27:24.646,-416.0,-937.0,201.0,-6.0,-5.0,-5.0,152,125,120,130,130
2025-02-25 18:27:24.651,-469.0,-929.0,148.0,-7.0,-7.0,-4.0,153,126,119,134,130
2025-02-25 18:27:24.658,-435.0,-941.0,124.0,-15.0,-9.0,-2.0,154,125,120,131,129
2025-02-25 18:27:24.663,-468.0,-954.0,129.0,-19.0,-9.0,-1.0,152,123,119,131,129
2025-02-25 18:27:24.666,-452.0,-953.0,151.0,-17.0,-8.0,0.0,152,125,118,130,128
2025-02-25 18:27:24.674,-449.0,-956.0,149.0,-14.0,-10.0,0.0,152,121,118,129,128
2025-02-25 18:27:24.678,-451.0,-948.0,177.0,-7.0,-7.0,0.0,151,125,120,133,130
2025-02-25 18:27:24.683,-465.0,-957.0,117.0,-6.0,-9.0,1.0,152,125,121,133,130
2025-02-25 18:27:24.687,-449.0,-944.0,154.0,-5.0,-10.0,1.0,151,123,118,131,128
2025-02-25 18:27:24.695,-479.0,-959.0,129.0,-3.0,-12.0,1.0,150,117,116,130,125
2025-02-25 18:27:24.699,-472.0,-938.0,178.0,-3.0,-16.0,2.0,153,126,119,132,129
2025-02-25 18:27:24.704,-471.0,-927.0,182.0,3.0,-13.0,2.0,155,127,122,133,132
2025-02-25 18:27:24.708,-469.0,-921.0,164.0,2.0,-9.0,2.0,152,125,121,133,128
2025-02-25 18:27:24.715,-474.0,-895.0,122.0,-10.0,-9.0,3.0,150,121,119,130,126
2025-02-25 18:27:24.719,-453.0,-895.0,175.0,-8.0,-8.0,3.0,155,127,120,133,128
2025-02-25 18:27:24.723,-465.0,-889.0,201.0,-7.0,-4.0,2.0,154,126,122,133,132
2025-02-25 18:27:24.728,-469.0,-872.0,166.0,-6.0,-3.0,2.0,154,124,120,132,130
2025-02-25 18:27:24.736,-446.0,-870.0,173.0,-7.0,-3.0,2.0,150,122,117,131,128
2025-02-25 18:27:24.740,-451.0,-877.0,159.0,-6.0,-1.0,2.0,152,123,121,131,129
2025-02-25 18:27:24.745,-470.0,-875.0,185.0,-10.0,3.0,3.0,153,126,121,134,131
2025-02-25 18:27:24.749,-451.0,-851.0,121.0,-6.0,0.0,2.0,152,124,119,130,130
2025-02-25 18:27:24.756,-465.0,-891.0,204.0,-1.0,0.0,3.0,151,120,117,130,128
2025-02-25 18:27:24.760,-470.0,-888.0,150.0,0.0,3.0,3.0,153,125,119,132,130
2025-02-25 18:27:24.764,-466.0,-870.0,135.0,5.0,2.0,3.0,153,125,119,131,129
2025-02-25 18:27:24.769,-494.0,-891.0,171.0,5.0,4.0,3.0,152,124,118,130,128
2025-02-25 18:27:24.777,-485.0,-869.0,130.0,11.0,4.0,3.0,153,125,119,132,128
2025-02-25 18:27:24.781,-492.0,-880.0,121.0,14.0,-1.0,4.0,153,124,120,132,129
2025-02-25 18:27:24.785,-491.0,-877.0,203.0,13.0,3.0,3.0,153,124,119,131,128
2025-02-25 18:27:24.790,-482.0,-864.0,125.0,19.0,3.0,3.0,152,123,117,131,127
2025-02-25 18:27:24.797,-498.0,-872.0,141.0,19.0,2.0,3.0,153,123,119,134,129
2025-02-25 18:27:24.802,-500.0,-857.0,163.0,17.0,3.0,2.0,153,125,118,130,128
2025-02-25 18:27:24.805,-493.0,-848.0,146.0,13.0,2.0,1.0,152,123,120,132,131
2025-02-25 18:27:24.809,-497.0,-855.0,174.0,8.0,2.0,0.0,154,122,121,132,129
2025-02-25 18:27:24.814,-494.0,-845.0,159.0,4.0,3.0,-1.0,153,124,119,132,129
2025-02-25 18:27:24.821,-492.0,-845.0,138.0,1.0,4.0,-1.0,152,121,118,132,128
2025-02-25 18:27:24.826,-494.0,-846.0,139.0,-7.0,3.0,-2.0,151,123,117,132,128
2025-02-25 18:27:24.831,-461.0,-834.0,215.0,-7.0,3.0,-2.0,153,124,125,132,129
2025-02-25 18:27:24.838,-496.0,-892.0,158.0,-10.0,3.0,-2.0,153,123,119,132,128
2025-02-25 18:27:24.843,-471.0,-822.0,166.0,-13.0,4.0,-2.0,151,122,118,131,128
2025-02-25 18:27:24.847,-471.0,-850.0,181.0,-19.0,6.0,-2.0,152,124,119,131,128
2025-02-25 18:27:24.851,-477.0,-836.0,169.0,-18.0,8.0,-2.0,154,125,120,132,127
2025-02-25 18:27:24.859,-468.0,-846.0,178.0,-15.0,6.0,-3.0,154,123,121,131,129
2025-02-25 18:27:24.863,-468.0,-858.0,181.0,-13.0,6.0,-3.0,153,122,119,133,130
2025-02-25 18:27:24.867,-483.0,-894.0,180.0,-10.0,8.0,-3.0,151,123,118,131,127
2025-02-25 18:27:24.871,-488.0,-866.0,96.0,-20.0,6.0,-3.0,154,123,118,126,128
2025-02-25 18:27:24.879,-472.0,-865.0,133.0,-17.0,5.0,-3.0,153,125,120,131,129
2025-02-25 18:27:24.883,-490.0,-894.0,208.0,-21.0,8.0,-3.0,154,125,120,133,130
2025-02-25 18:27:24.887,-474.0,-878.0,138.0,-17.0,8.0,-3.0,152,123,120,132,129
2025-02-25 18:27:24.895,-467.0,-891.0,151.0,-21.0,11.0,-3.0,150,121,118,130,128
2025-02-25 18:27:24.899,-478.0,-903.0,153.0,-33.0,18.0,-3.0,153,124,119,132,128
2025-02-25 18:27:24.903,-478.0,-892.0,68.0,-37.0,13.0,-3.0,154,125,122,132,130
2025-02-25 18:27:24.908,-496.0,-920.0,174.0,-40.0,13.0,-3.0,153,124,120,133,131
2025-02-25 18:27:24.916,-482.0,-886.0,126.0,-35.0,10.0,-4.0,152,123,117,130,128
2025-02-25 18:27:24.920,-466.0,-907.0,129.0,-29.0,5.0,-4.0,153,120,117,129,126
2025-02-25 18:27:24.924,-518.0,-919.0,114.0,-27.0,4.0,-3.0,155,124,120,130,130
2025-02-25 18:27:24.932,-489.0,-906.0,83.0,-22.0,1.0,-4.0,151,124,121,133,130
2025-02-25 18:27:24.936,-477.0,-929.0,130.0,-16.0,2.0,-4.0,152,122,117,130,128
2025-02-25 18:27:24.941,-470.0,-912.0,124.0,-13.0,0.0,-4.0,152,122,118,129,129
2025-02-25 18:27:24.945,-467.0,-907.0,119.0,-10.0,-2.0,-3.0,153,125,120,132,130
2025-02-25 18:27:24.953,-440.0,-920.0,154.0,-6.0,1.0,-2.0,152,124,119,132,130
2025-02-25 18:27:24.957,-453.0,-893.0,97.0,-8.0,3.0,-1.0,152,122,119,130,129
2025-02-25 18:27:24.961,-451.0,-887.0,76.0,-11.0,1.0,-1.0,151,123,118,130,128
2025-02-25 18:27:24.965,-444.0,-898.0,123.0,-12.0,-3.0,0.0,153,125,121,132,130
2025-02-25 18:27:24.973,-451.0,-910.0,151.0,-11.0,1.0,0.0,154,124,123,134,131
2025-02-25 18:27:24.978,-445.0,-887.0,113.0,-10.0,3.0,0.0,153,123,118,130,128
2025-02-25 18:27:24.981,-444.0,-889.0,100.0,-9.0,5.0,0.0,148,124,118,127,128
2025-02-25 18:27:24.985,-450.0,-890.0,90.0,-10.0,6.0,0.0,154,123,120,132,131
2025-02-25 18:27:24.993,-448.0,-926.0,87.0,-10.0,5.0,-1.0,152,123,119,132,130
2025-02-25 18:27:24.998,-459.0,-893.0,103.0,-11.0,5.0,-2.0,152,123,117,131,129
2025-02-25 18:27:25.002,-467.0,-873.0,67.0,-10.0,5.0,-3.0,153,124,121,132,131
2025-02-25 18:27:25.007,-474.0,-887.0,83.0,-14.0,5.0,-4.0,153,125,119,132,131
2025-02-25 18:27:25.014,-487.0,-874.0,77.0,-11.0,4.0,-5.0,160,124,119,130,131
2025-02-25 18:27:25.019,-489.0,-897.0,94.0,-7.0,5.0,-6.0,153,122,118,132,129
2025-02-25 18:27:25.023,-487.0,-877.0,59.0,-4.0,4.0,-7.0,158,123,120,133,131
2025-02-25 18:27:25.027,-499.0,-895.0,72.0,-4.0,1.0,-7.0,153,125,119,132,131
2025-02-25 18:27:25.035,-490.0,-889.0,71.0,-3.0,0.0,-7.0,152,119,118,131,129
2025-02-25 18:27:25.039,-483.0,-904.0,88.0,-5.0,2.0,-6.0,150,125,119,131,128
2025-02-25 18:27:25.044,-472.0,-879.0,54.0,-11.0,-1.0,-6.0,154,125,121,135,134
2025-02-25 18:27:25.047,-451.0,-874.0,85.0,-10.0,0.0,-6.0,154,125,122,132,130
2025-02-25 18:27:25.055,-475.0,-898.0,56.0,-10.0,1.0,-5.0,154,124,118,133,131
2025-02-25 18:27:25.059,-453.0,-871.0,65.0,-12.0,1.0,-4.0,151,122,118,131,128
2025-02-25 18:27:25.064,-483.0,-874.0,49.0,-15.0,-3.0,-3.0,154,125,121,133,133
2025-02-25 18:27:25.067,-474.0,-891.0,73.0,-16.0,-4.0,-2.0,154,125,120,132,133
2025-02-25 18:27:25.076,-474.0,-891.0,105.0,-13.0,-2.0,-2.0,152,124,119,132,130
2025-02-25 18:27:25.080,-477.0,-887.0,70.0,-11.0,-2.0,-1.0,153,127,119,132,128
2025-02-25 18:27:25.085,-488.0,-885.0,67.0,-13.0,-5.0,0.0,151,123,118,131,130
2025-02-25 18:27:25.092,-468.0,-874.0,72.0,-5.0,-8.0,0.0,151,127,121,134,133
2025-02-25 18:27:25.096,-484.0,-901.0,104.0,-8.0,-6.0,0.0,152,125,119,131,131
2025-02-25 18:27:25.100,-481.0,-861.0,66.0,-14.0,-6.0,0.0,153,123,118,130,129
2025-02-25 18:27:25.105,-477.0,-883.0,108.0,-17.0,-4.0,0.0,151,123,118,131,131
2025-02-25 18:27:25.113,-493.0,-892.0,56.0,-18.0,-4.0,0.0,153,126,122,134,132
2025-02-25 18:27:25.117,-462.0,-875.0,82.0,-20.0,-5.0,-1.0,153,126,119,132,131
2025-02-25 18:27:25.121,-483.0,-887.0,118.0,-23.0,-3.0,0.0,152,124,118,133,132
2025-02-25 18:27:25.126,-488.0,-881.0,60.0,-18.0,-5.0,-1.0,153,125,118,131,131
2025-02-25 18:27:25.133,-486.0,-887.0,70.0,-22.0,-8.0,0.0,153,127,120,132,133
2025-02-25 18:27:25.138,-474.0,-878.0,68.0,-19.0,-9.0,-1.0,154,126,117,132,132
2025-02-25 18:27:25.142,-490.0,-891.0,78.0,-16.0,-9.0,-1.0,151,126,120,133,131
2025-02-25 18:27:25.146,-470.0,-882.0,73.0,-13.0,-8.0,-1.0,152,125,119,131,131
2025-02-25 18:27:25.154,-460.0,-889.0,92.0,-7.0,-6.0,0.0,153,128,119,132,131
2025-02-25 18:27:25.158,-482.0,-893.0,84.0,-6.0,-5.0,-1.0,152,126,121,134,133
2025-02-25 18:27:25.162,-464.0,-891.0,97.0,-7.0,-6.0,-1.0,155,132,120,133,133
2025-02-25 18:27:25.166,-474.0,-909.0,97.0,0.0,-6.0,-1.0,152,126,119,132,132
2025-02-25 18:27:25.174,-490.0,-913.0,105.0,-5.0,-4.0,-1.0,152,127,128,134,132
2025-02-25 18:27:25.178,-481.0,-884.0,91.0,-6.0,-1.0,0.0,153,126,120,131,133
2025-02-25 18:27:25.183,-487.0,-884.0,102.0,-5.0,0.0,0.0,154,131,120,133,130
2025-02-25 18:27:25.187,-483.0,-850.0,115.0,-9.0,-3.0,0.0,150,125,118,131,131
2025-02-25 18:27:25.194,-465.0,-862.0,125.0,-8.0,0.0,1.0,153,127,123,133,132
2025-02-25 18:27:25.199,-498.0,-890.0,80.0,-11.0,0.0,0.0,156,126,119,131,132
2025-02-25 18:27:25.203,-482.0,-856.0,65.0,-7.0,-1.0,-1.0,152,127,119,133,132
2025-02-25 18:27:25.207,-498.0,-889.0,140.0,-6.0,-1.0,0.0,154,128,121,133,133
2025-02-25 18:27:25.215,-487.0,-863.0,95.0,0.0,-1.0,-1.0,153,128,120,130,131
2025-02-25 18:27:25.219,-473.0,-873.0,89.0,0.0,0.0,0.0,151,127,119,132,131
2025-02-25 18:27:25.223,-481.0,-857.0,125.0,2.0,1.0,0.0,153,129,120,133,131
2025-02-25 18:27:25.228,-478.0,-859.0,86.0,2.0,1.0,0.0,152,128,120,134,132
2025-02-25 18:27:25.232,-463.0,-841.0,86.0,0.0,2.0,0.0,153,124,118,132,131
2025-02-25 18:27:25.239,-472.0,-840.0,80.0,3.0,-1.0,0.0,153,126,117,130,131
2025-02-25 18:27:25.244,-484.0,-850.0,100.0,-1.0,-2.0,-1.0,156,129,122,135,134
2025-02-25 18:27:25.248,-471.0,-838.0,62.0,0.0,1.0,-2.0,149,128,120,132,132
2025-02-25 18:27:25.252,-482.0,-861.0,66.0,4.0,1.0,-3.0,151,125,118,131,130
2025-02-25 18:27:25.260,-483.0,-863.0,89.0,0.0,1.0,-3.0,154,126,122,131,131
2025-02-25 18:27:25.264,-472.0,-868.0,97.0,3.0,-1.0,-4.0,154,128,120,135,135
2025-02-25 18:27:25.268,-503.0,-896.0,90.0,0.0,-5.0,-5.0,152,127,120,132,130
2025-02-25 18:27:25.273,-474.0,-900.0,54.0,-4.0,0.0,-6.0,151,126,118,131,130
2025-02-25 18:27:25.280,-486.0,-884.0,43.0,-5.0,-5.0,-6.0,155,126,120,133,133
2025-02-25 18:27:25.285,-473.0,-902.0,120.0,-7.0,-3.0,-7.0,154,126,119,132,132
2025-02-25 18:27:25.289,-476.0,-908.0,102.0,-1.0,-2.0,-7.0,154,127,118,131,132
2025-02-25 18:27:25.293,-464.0,-907.0,108.0,-4.0,-4.0,-7.0,152,125,118,130,130
2025-02-25 18:27:25.301,-452.0,-902.0,106.0,-1.0,-4.0,-8.0,154,129,119,133,131
2025-02-25 18:27:25.305,-454.0,-917.0,101.0,0.0,-4.0,-9.0,154,129,121,133,134
2025-02-25 18:27:25.309,-443.0,-920.0,135.0,1.0,-3.0,-9.0,152,125,118,131,132
2025-02-25 18:27:25.314,-441.0,-923.0,101.0,4.0,-1.0,-9.0,152,124,120,131,132
2025-02-25 18:27:25.321,-444.0,-941.0,98.0,1.0,-1.0,-8.0,153,128,121,134,133
2025-02-25 18:27:25.325,-433.0,-943.0,112.0,1.0,1.0,-7.0,154,129,120,131,132
2025-02-25 18:27:25.330,-427.0,-933.0,76.0,1.0,0.0,-6.0,153,126,118,132,131
2025-02-25 18:27:25.334,-427.0,-953.0,105.0,0.0,2.0,-6.0,152,126,120,132,132
2025-02-25 18:27:25.342,-425.0,-942.0,84.0,0.0,3.0,-5.0,155,127,120,132,131
2025-02-25 18:27:25.346,-451.0,-972.0,122.0,-2.0,3.0,-3.0,154,125,119,132,133
2025-02-25 18:27:25.350,-459.0,-941.0,83.0,-5.0,2.0,-3.0,152,127,120,133,131
2025-02-25 18:27:25.354,-430.0,-949.0,90.0,-2.0,2.0,-2.0,154,128,120,131,131
2025-02-25 18:27:25.362,-463.0,-964.0,92.0,-2.0,1.0,-1.0,153,125,119,133,133
2025-02-25 18:27:25.366,-458.0,-935.0,69.0,-2.0,1.0,0.0,152,125,119,131,131
2025-02-25 18:27:25.370,-454.0,-947.0,112.0,-1.0,1.0,1.0,157,128,120,133,132
2025-02-25 18:27:25.375,-458.0,-927.0,119.0,-2.0,3.0,1.0,153,129,122,133,131
2025-02-25 18:27:25.379,-456.0,-918.0,69.0,0.0,1.0,2.0,150,124,117,131,131
2025-02-25 18:27:25.387,-457.0,-928.0,91.0,-4.0,0.0,2.0,152,127,119,130,131
2025-02-25 18:27:25.391,-448.0,-909.0,78.0,-6.0,-1.0,2.0,154,128,120,133,133
2025-02-25 18:27:25.395,-458.0,-914.0,95.0,-6.0,0.0,2.0,152,125,118,131,133
2025-02-25 18:27:25.399,-456.0,-904.0,101.0,-5.0,1.0,2.0,153,126,119,132,132
2025-02-25 18:27:25.404,-448.0,-906.0,80.0,-3.0,2.0,2.0,152,128,121,135,135
2025-02-25 18:27:25.412,-458.0,-917.0,73.0,-4.0,3.0,1.0,153,125,120,132,132
2025-02-25 18:27:25.416,-456.0,-903.0,59.0,-3.0,2.0,1.0,151,126,118,130,129
2025-02-25 18:27:25.420,-452.0,-911.0,61.0,-5.0,2.0,0.0,154,126,120,133,132
2025-02-25 18:27:25.424,-457.0,-898.0,62.0,-5.0,3.0,0.0,154,128,121,134,132
2025-02-25 18:27:25.432,-459.0,-901.0,40.0,-5.0,3.0,0.0,151,126,119,132,130
2025-02-25 18:27:25.436,-452.0,-896.0,25.0,-7.0,4.0,1.0,151,126,120,132,133
2025-02-25 18:27:25.440,-459.0,-891.0,38.0,-7.0,4.0,1.0,153,129,121,133,133
2025-02-25 18:27:25.445,-461.0,-890.0,41.0,-7.0,4.0,1.0,151,126,118,132,131
2025-02-25 18:27:25.449,-471.0,-893.0,36.0,-7.0,5.0,1.0,151,125,116,131,131
2025-02-25 18:27:25.457,-475.0,-882.0,29.0,-5.0,4.0,1.0,154,128,121,132,133
2025-02-25 18:27:25.461,-480.0,-884.0,36.0,-4.0,3.0,1.0,149,126,119,131,131
2025-02-25 18:27:25.465,-481.0,-882.0,37.0,-1.0,2.0,1.0,151,127,119,130,131
2025-02-25 18:27:25.470,-480.0,-885.0,29.0,1.0,1.0,0.0,153,129,121,133,133
2025-02-25 18:27:25.474,-480.0,-872.0,32.0,2.0,0.0,0.0,152,125,118,132,131
2025-02-25 18:27:25.481,-475.0,-866.0,43.0,3.0,0.0,-1.0,151,125,118,131,130
2025-02-25 18:27:25.486,-472.0,-855.0,33.0,6.0,-1.0,-1.0,154,126,120,133,133
2025-02-25 18:27:25.490,-461.0,-850.0,49.0,6.0,-1.0,-2.0,153,127,120,133,132
2025-02-25 18:27:25.495,-463.0,-854.0,60.0,7.0,-1.0,-3.0,150,125,120,131,131
2025-02-25 18:27:25.502,-466.0,-848.0,45.0,5.0,-1.0,-3.0,151,128,121,134,132
2025-02-25 18:27:25.506,-470.0,-847.0,46.0,5.0,-1.0,-3.0,153,128,121,134,134
2025-02-25 18:27:25.510,-468.0,-846.0,50.0,4.0,-1.0,-4.0,150,126,119,131,131
2025-02-25 18:27:25.515,-465.0,-847.0,50.0,4.0,-1.0,-5.0,150,124,117,131,130
2025-02-25 18:27:25.522,-470.0,-848.0,48.0,4.0,-1.0,-5.0,152,126,119,131,134
2025-02-25 18:27:25.526,-471.0,-856.0,58.0,4.0,-1.0,-6.0,152,126,120,133,132
2025-02-25 18:27:25.530,-476.0,-862.0,51.0,5.0,-2.0,-7.0,151,126,119,130,128
2025-02-25 18:27:25.535,-477.0,-862.0,54.0,6.0,-3.0,-7.0,152,127,119,132,131
2025-02-25 18:27:25.539,-487.0,-877.0,61.0,7.0,-4.0,-7.0,155,127,121,132,132
2025-02-25 18:27:25.547,-480.0,-873.0,58.0,7.0,-4.0,-8.0,151,125,118,132,131
2025-02-25 18:27:25.551,-480.0,-877.0,66.0,9.0,-5.0,-8.0,151,123,117,131,130
2025-02-25 18:27:25.555,-486.0,-881.0,70.0,9.0,-4.0,-9.0,152,125,120,129,132
2025-02-25 18:27:25.559,-483.0,-885.0,63.0,9.0,-5.0,-9.0,154,125,120,133,130
2025-02-25 18:27:25.567,-477.0,-881.0,45.0,8.0,-5.0,-10.0,152,124,117,131,130
2025-02-25 18:27:25.571,-467.0,-874.0,42.0,7.0,-4.0,-10.0,153,127,118,133,132
2025-02-25 18:27:25.575,-462.0,-909.0,20.0,6.0,-9.0,-11.0,155,127,119,132,130
2025-02-25 18:27:25.580,-463.0,-900.0,123.0,7.0,-5.0,-11.0,153,127,119,132,131
2025-02-25 18:27:25.587,-442.0,-901.0,67.0,5.0,-9.0,-10.0,151,127,120,131,130
2025-02-25 18:27:25.592,-439.0,-914.0,100.0,5.0,-6.0,-10.0,155,126,118,135,131
2025-02-25 18:27:25.596,-435.0,-903.0,96.0,7.0,-5.0,-9.0,155,126,119,130,132
2025-02-25 18:27:25.601,-441.0,-925.0,108.0,5.0,-5.0,-8.0,154,126,120,134,130
2025-02-25 18:27:25.608,-428.0,-907.0,104.0,0.0,-3.0,-8.0,152,124,119,129,131
2025-02-25 18:27:25.612,-425.0,-925.0,93.0,-3.0,0.0,-7.0,151,124,120,133,136
2025-02-25 18:27:25.616,-432.0,-933.0,97.0,-4.0,0.0,-6.0,153,125,118,131,131
2025-02-25 18:27:25.621,-421.0,-934.0,112.0,-3.0,1.0,-5.0,154,124,117,134,133
2025-02-25 18:27:25.628,-431.0,-926.0,80.0,-3.0,1.0,-6.0,151,125,118,131,131
2025-02-25 18:27:25.633,-443.0,-927.0,82.0,-2.0,0.0,-6.0,157,127,119,132,132
2025-02-25 18:27:25.637,-440.0,-929.0,77.0,-1.0,-1.0,-6.0,152,127,118,131,131
2025-02-25 18:27:25.641,-442.0,-940.0,103.0,2.0,0.0,-6.0,154,126,119,131,130
2025-02-25 18:27:25.649,-446.0,-935.0,82.0,1.0,0.0,-7.0,148,124,116,130,129
2025-02-25 18:27:25.653,-441.0,-909.0,74.0,2.0,-1.0,-6.0,154,124,117,131,130
2025-02-25 18:27:25.657,-438.0,-928.0,53.0,0.0,-2.0,-6.0,153,126,117,132,129
2025-02-25 18:27:25.662,-437.0,-917.0,67.0,-2.0,-2.0,-5.0,154,127,117,130,130
2025-02-25 18:27:25.669,-435.0,-919.0,70.0,-4.0,-2.0,-5.0,153,126,117,132,131
2025-02-25 18:27:25.674,-436.0,-920.0,75.0,-2.0,-2.0,-5.0,151,125,121,132,130
2025-02-25 18:27:25.678,-429.0,-924.0,68.0,-2.0,-3.0,-5.0,151,122,117,129,128
2025-02-25 18:27:25.682,-426.0,-933.0,70.0,-1.0,-3.0,-4.0,153,125,115,130,129
2025-02-25 18:27:25.690,-432.0,-933.0,59.0,1.0,-5.0,-4.0,154,128,119,132,129
2025-02-25 18:27:25.694,-416.0,-923.0,72.0,0.0,-4.0,-2.0,153,125,116,132,129
2025-02-25 18:27:25.698,-417.0,-919.0,65.0,1.0,-5.0,-1.0,152,121,117,131,128
2025-02-25 18:27:25.703,-422.0,-921.0,81.0,0.0,-4.0,0.0,151,123,115,130,128
2025-02-25 18:27:25.710,-433.0,-921.0,83.0,0.0,-3.0,0.0,152,125,122,133,130
2025-02-25 18:27:25.715,-436.0,-924.0,78.0,-1.0,-1.0,1.0,151,123,114,129,127
2025-02-25 18:27:25.719,-446.0,-921.0,64.0,-3.0,0.0,1.0,151,123,117,132,129
2025-02-25 18:27:25.723,-461.0,-917.0,64.0,-4.0,-1.0,2.0,154,125,117,132,131
2025-02-25 18:27:25.728,-468.0,-920.0,60.0,-5.0,-3.0,2.0,152,123,118,130,130
2025-02-25 18:27:25.735,-465.0,-917.0,60.0,-4.0,-4.0,2.0,151,123,115,130,128
2025-02-25 18:27:25.740,-481.0,-912.0,61.0,-2.0,-5.0,3.0,153,124,115,131,128
2025-02-25 18:27:25.744,-480.0,-911.0,60.0,0.0,-5.0,3.0,152,124,117,131,130
2025-02-25 18:27:25.749,-480.0,-904.0,76.0,1.0,-5.0,3.0,153,123,115,130,128
2025-02-25 18:27:25.755,-479.0,-904.0,73.0,3.0,-6.0,3.0,150,121,114,129,127
2025-02-25 18:27:25.760,-474.0,-901.0,85.0,3.0,-6.0,3.0,153,123,116,132,130
2025-02-25 18:27:25.764,-471.0,-890.0,72.0,3.0,-6.0,3.0,152,123,116,131,129
2025-02-25 18:27:25.768,-464.0,-883.0,75.0,3.0,-6.0,2.0,152,125,116,130,127
2025-02-25 18:27:25.773,-463.0,-883.0,81.0,3.0,-6.0,2.0,152,124,117,132,129
2025-02-25 18:27:25.780,-459.0,-877.0,95.0,3.0,-6.0,3.0,152,124,116,132,130
2025-02-25 18:27:25.785,-461.0,-874.0,92.0,3.0,-6.0,2.0,153,123,116,130,128
2025-02-25 18:27:25.789,-457.0,-875.0,95.0,2.0,-6.0,2.0,153,124,118,133,130
2025-02-25 18:27:25.793,-459.0,-878.0,112.0,2.0,-6.0,3.0,152,124,116,131,129
2025-02-25 18:27:25.800,-459.0,-870.0,104.0,3.0,-6.0,2.0,152,122,114,130,129
2025-02-25 18:27:25.804,-459.0,-873.0,123.0,1.0,-5.0,3.0,154,125,118,133,129
2025-02-25 18:27:25.809,-457.0,-866.0,115.0,1.0,-5.0,2.0,153,123,118,133,130
2025-02-25 18:27:25.814,-456.0,-874.0,121.0,0.0,-4.0,1.0,153,124,116,130,126
2025-02-25 18:27:25.818,-454.0,-870.0,118.0,0.0,-4.0,1.0,151,123,116,131,127
2025-02-25 18:27:25.825,-453.0,-867.0,118.0,-1.0,-4.0,1.0,152,126,118,132,128
2025-02-25 18:27:25.830,-450.0,-875.0,129.0,-1.0,-3.0,0.0,153,125,117,131,129
2025-02-25 18:27:25.834,-456.0,-875.0,130.0,0.0,-3.0,0.0,153,124,116,132,128
2025-02-25 18:27:25.838,-451.0,-879.0,128.0,1.0,-3.0,0.0,153,123,114,128,128
2025-02-25 18:27:25.846,-452.0,-881.0,135.0,1.0,-3.0,0.0,155,127,119,133,128
2025-02-25 18:27:25.850,-455.0,-882.0,131.0,1.0,-2.0,-1.0,153,125,117,132,130
2025-02-25 18:27:25.855,-457.0,-884.0,129.0,2.0,-2.0,-1.0,150,122,116,128,127
2025-02-25 18:27:25.859,-453.0,-884.0,130.0,3.0,-2.0,-1.0,152,124,116,132,129
2025-02-25 18:27:25.867,-457.0,-882.0,131.0,2.0,-2.0,-1.0,153,123,118,131,129
2025-02-25 18:27:25.871,-456.0,-881.0,127.0,2.0,-2.0,-1.0,152,126,116,131,130
2025-02-25 18:27:25.875,-453.0,-883.0,126.0,2.0,-2.0,-1.0,154,123,113,130,127
2025-02-25 18:27:25.879,-451.0,-889.0,129.0,2.0,-2.0,-2.0,155,125,117,131,130
2025-02-25 18:27:25.887,-455.0,-891.0,128.0,1.0,-2.0,-2.0,152,126,117,133,130
2025-02-25 18:27:25.891,-457.0,-896.0,130.0,1.0,-2.0,-2.0,152,124,117,133,129
2025-02-25 18:27:25.895,-456.0,-902.0,130.0,1.0,-1.0,-3.0,151,121,115,132,129
2025-02-25 18:27:25.899,-455.0,-906.0,128.0,1.0,-1.0,-3.0,153,126,117,133,129
2025-02-25 18:27:25.907,-456.0,-907.0,132.0,0.0,-1.0,-4.0,154,124,117,131,129
2025-02-25 18:27:25.911,-456.0,-910.0,124.0,-1.0,-1.0,-4.0,151,125,117,129,129
2025-02-25 18:27:25.915,-464.0,-914.0,122.0,-1.0,-1.0,-4.0,151,124,117,132,129
2025-02-25 18:27:25.924,-458.0,-917.0,115.0,-2.0,-2.0,-4.0,154,126,119,133,130
2025-02-25 18:27:25.927,-453.0,-913.0,115.0,-2.0,-2.0,-4.0,154,125,117,131,130
2025-02-25 18:27:25.932,-450.0,-919.0,119.0,-2.0,-2.0,-4.0,151,123,118,132,127
2025-02-25 18:27:25.936,-445.0,-920.0,122.0,-1.0,-1.0,-4.0,151,124,114,130,128
2025-02-25 18:27:25.944,-445.0,-919.0,118.0,-1.0,-1.0,-3.0,152,123,117,131,128
2025-02-25 18:27:25.948,-433.0,-917.0,116.0,-2.0,-1.0,-3.0,153,126,117,132,130
2025-02-25 18:27:25.952,-427.0,-914.0,118.0,-2.0,0.0,-1.0,153,122,117,131,130
2025-02-25 18:27:25.957,-419.0,-916.0,122.0,-3.0,0.0,-1.0,150,121,113,130,127
2025-02-25 18:27:25.964,-425.0,-917.0,120.0,-4.0,1.0,-1.0,153,123,115,132,128
2025-02-25 18:27:25.968,-429.0,-922.0,121.0,-5.0,2.0,-1.0,153,124,117,132,129
2025-02-25 18:27:25.974,-439.0,-923.0,118.0,-5.0,2.0,0.0,153,126,117,132,130
2025-02-25 18:27:25.978,-439.0,-930.0,113.0,-6.0,3.0,0.0,152,125,115,131,127
2025-02-25 18:27:25.985,-446.0,-925.0,99.0,-7.0,2.0,0.0,151,124,117,132,129
2025-02-25 18:27:25.989,-453.0,-928.0,102.0,-6.0,2.0,1.0,155,126,116,131,129
2025-02-25 18:27:25.994,-455.0,-925.0,96.0,-6.0,2.0,2.0,151,123,116,130,127
2025-02-25 18:27:25.998,-450.0,-924.0,90.0,-6.0,2.0,2.0,152,123,115,130,127
2025-02-25 18:27:26.005,-449.0,-920.0,95.0,-5.0,1.0,2.0,154,125,117,132,130
2025-02-25 18:27:26.010,-456.0,-923.0,95.0,-5.0,1.0,3.0,153,125,117,131,129
2025-02-25 18:27:26.014,-444.0,-907.0,88.0,-4.0,1.0,2.0,152,122,114,130,128
2025-02-25 18:27:26.018,-442.0,-909.0,86.0,-3.0,1.0,2.0,153,124,117,131,130
2025-02-25 18:27:26.023,-446.0,-913.0,96.0,-3.0,1.0,2.0,153,124,118,132,129
2025-02-25 18:27:26.030,-442.0,-906.0,88.0,-3.0,1.0,1.0,154,123,115,130,127
2025-02-25 18:27:26.034,-444.0,-907.0,85.0,-2.0,0.0,0.0,155,125,116,132,129
2025-02-25 18:27:26.039,-448.0,-903.0,85.0,-1.0,0.0,-1.0,152,124,117,132,129
2025-02-25 18:27:26.043,-443.0,-901.0,82.0,-1.0,0.0,-1.0,151,122,117,130,129
2025-02-25 18:27:26.050,-449.0,-899.0,89.0,-1.0,-1.0,-1.0,150,124,114,129,126
2025-02-25 18:27:26.055,-454.0,-897.0,95.0,0.0,-1.0,-1.0,152,124,116,131,128
2025-02-25 18:27:26.059,-461.0,-894.0,90.0,0.0,0.0,0.0,151,123,117,131,129
2025-02-25 18:27:26.064,-459.0,-899.0,88.0,0.0,-1.0,0.0,153,124,117,129,129
2025-02-25 18:27:26.067,-464.0,-899.0,93.0,0.0,0.0,0.0,152,123,117,131,130
2025-02-25 18:27:26.075,-462.0,-896.0,92.0,-1.0,0.0,1.0,152,124,116,130,129
2025-02-25 18:27:26.079,-468.0,-891.0,87.0,-1.0,0.0,1.0,152,122,115,129,128
2025-02-25 18:27:26.084,-466.0,-888.0,94.0,-1.0,0.0,1.0,154,125,117,134,131
2025-02-25 18:27:26.088,-473.0,-886.0,99.0,-1.0,0.0,1.0,153,125,114,131,131
2025-02-25 18:27:26.092,-469.0,-881.0,93.0,0.0,0.0,1.0,151,123,115,131,127
2025-02-25 18:27:26.100,-477.0,-876.0,86.0,1.0,0.0,1.0,154,124,117,131,129
2025-02-25 18:27:26.104,-477.0,-866.0,82.0,1.0,1.0,0.0,154,125,117,132,130
2025-02-25 18:27:26.108,-475.0,-868.0,92.0,3.0,1.0,1.0,152,123,115,131,128
2025-02-25 18:27:26.112,-473.0,-868.0,91.0,3.0,1.0,0.0,153,125,118,133,131
2025-02-25 18:27:26.116,-466.0,-858.0,91.0,4.0,1.0,0.0,151,125,117,132,129
2025-02-25 18:27:26.124,-467.0,-850.0,86.0,4.0,1.0,0.0,152,124,117,132,130
2025-02-25 18:27:26.128,-470.0,-852.0,88.0,5.0,2.0,-1.0,152,125,117,130,129
2025-02-25 18:27:26.133,-474.0,-843.0,85.0,5.0,2.0,-2.0,152,122,117,130,130
2025-02-25 18:27:26.137,-475.0,-843.0,87.0,6.0,2.0,-3.0,153,123,115,130,127
2025-02-25 18:27:26.141,-479.0,-838.0,80.0,7.0,2.0,-3.0,154,123,117,132,130
2025-02-25 18:27:26.149,-487.0,-820.0,83.0,7.0,2.0,-3.0,154,124,117,133,131
2025-02-25 18:27:26.153,-487.0,-808.0,86.0,8.0,2.0,-4.0,150,121,117,131,129
2025-02-25 18:27:26.157,-477.0,-810.0,91.0,7.0,2.0,-5.0,154,124,115,133,129
2025-02-25 18:27:26.162,-487.0,-809.0,80.0,6.0,1.0,-6.0,154,124,118,133,132
2025-02-25 18:27:26.166,-492.0,-797.0,89.0,6.0,1.0,-8.0,152,122,116,130,129
2025-02-25 18:27:26.173,-489.0,-800.0,75.0,6.0,1.0,-9.0,151,124,115,130,127
2025-02-25 18:27:26.178,-488.0,-811.0,80.0,4.0,0.0,-11.0,153,124,117,132,130
2025-02-25 18:27:26.182,-478.0,-817.0,80.0,4.0,-1.0,-11.0,153,125,118,133,130
2025-02-25 18:27:26.186,-476.0,-835.0,92.0,4.0,-1.0,-12.0,151,122,115,126,128
2025-02-25 18:27:26.194,-472.0,-842.0,92.0,4.0,-2.0,-12.0,152,124,117,131,130
2025-02-25 18:27:26.198,-468.0,-850.0,87.0,6.0,-2.0,-13.0,153,125,118,132,130
2025-02-25 18:27:26.202,-464.0,-865.0,85.0,6.0,-2.0,-13.0,153,123,116,130,130
2025-02-25 18:27:26.206,-461.0,-873.0,96.0,6.0,-2.0,-13.0,152,122,116,131,128
2025-02-25 18:27:26.214,-456.0,-873.0,97.0,7.0,-2.0,-13.0,152,124,117,132,129
2025-02-25 18:27:26.219,-449.0,-885.0,102.0,6.0,-2.0,-13.0,152,124,116,133,130
2025-02-25 18:27:26.223,-443.0,-889.0,95.0,6.0,-1.0,-13.0,153,122,115,132,130
2025-02-25 18:27:26.230,-447.0,-899.0,100.0,6.0,-1.0,-14.0,152,122,115,131,129
2025-02-25 18:27:26.235,-438.0,-903.0,113.0,7.0,-1.0,-14.0,153,121,117,131,129
2025-02-25 18:27:26.239,-428.0,-908.0,116.0,6.0,-1.0,-14.0,152,123,118,131,129
2025-02-25 18:27:26.243,-420.0,-917.0,124.0,6.0,0.0,-14.0,152,124,116,130,131
2025-02-25 18:27:26.251,-418.0,-920.0,119.0,6.0,0.0,-15.0,152,122,115,131,128
2025-02-25 18:27:26.255,-417.0,-935.0,111.0,4.0,0.0,-14.0,152,124,117,133,131
2025-02-25 18:27:26.259,-416.0,-948.0,111.0,4.0,0.0,-14.0,152,126,117,132,130
2025-02-25 18:27:26.264,-412.0,-973.0,119.0,3.0,0.0,-13.0,153,124,117,133,130
2025-02-25 18:27:26.272,-416.0,-999.0,116.0,1.0,0.0,-11.0,152,122,111,130,128
2025-02-25 18:27:26.276,-415.0,-1005.0,110.0,1.0,1.0,-10.0,154,123,116,130,129
2025-02-25 18:27:26.280,-415.0,-1022.0,106.0,2.0,1.0,-8.0,153,123,117,133,129
2025-02-25 18:27:26.284,-412.0,-1042.0,114.0,1.0,1.0,-5.0,153,125,117,132,130
2025-02-25 18:27:26.292,-417.0,-1051.0,114.0,2.0,1.0,-3.0,150,121,110,130,129
2025-02-25 18:27:26.296,-405.0,-1053.0,113.0,1.0,1.0,-3.0,152,124,116,130,131
2025-02-25 18:27:26.301,-401.0,-1059.0,112.0,1.0,1.0,0.0,155,127,120,133,132
2025-02-25 18:27:26.305,-405.0,-1053.0,108.0,1.0,1.0,1.0,152,124,118,132,130
2025-02-25 18:27:26.313,-407.0,-1052.0,120.0,0.0,1.0,2.0,150,110,115,130,133
2025-02-25 18:27:26.317,-400.0,-1039.0,120.0,-1.0,1.0,4.0,152,123,116,130,130
2025-02-25 18:27:26.321,-403.0,-1026.0,113.0,-2.0,0.0,5.0,155,127,125,135,132
2025-02-25 18:27:26.325,-404.0,-1013.0,118.0,-3.0,0.0,6.0,151,122,116,131,129
2025-02-25 18:27:26.333,-405.0,-1002.0,125.0,-4.0,0.0,7.0,151,129,114,129,133
2025-02-25 18:27:26.337,-401.0,-978.0,122.0,-5.0,0.0,7.0,154,124,116,130,130
2025-02-25 18:27:26.342,-396.0,-960.0,124.0,-5.0,-1.0,8.0,153,124,119,133,131
2025-02-25 18:27:26.346,-391.0,-948.0,121.0,-6.0,0.0,8.0,154,123,118,131,129
2025-02-25 18:27:26.353,-394.0,-939.0,126.0,-6.0,-1.0,8.0,152,123,115,129,128
2025-02-25 18:27:26.358,-393.0,-925.0,118.0,-6.0,0.0,8.0,154,122,118,132,131
2025-02-25 18:27:26.362,-403.0,-920.0,115.0,-6.0,0.0,8.0,155,127,116,134,131
2025-02-25 18:27:26.366,-404.0,-905.0,108.0,-7.0,1.0,9.0,152,123,115,130,129
2025-02-25 18:27:26.374,-405.0,-901.0,103.0,-7.0,1.0,9.0,153,125,117,132,132
2025-02-25 18:27:26.378,-414.0,-897.0,109.0,-7.0,1.0,9.0,153,125,119,132,130
2025-02-25 18:27:26.382,-424.0,-883.0,96.0,-6.0,0.0,8.0,151,123,116,131,130
2025-02-25 18:27:26.387,-421.0,-878.0,93.0,-6.0,0.0,8.0,150,123,116,129,129
2025-02-25 18:27:26.391,-433.0,-869.0,95.0,-5.0,0.0,8.0,154,124,118,134,132
2025-02-25 18:27:26.399,-441.0,-864.0,101.0,-5.0,0.0,7.0,152,123,116,132,130
2025-02-25 18:27:26.403,-439.0,-858.0,89.0,-4.0,-1.0,6.0,152,124,116,131,133
2025-02-25 18:27:26.407,-451.0,-864.0,90.0,-4.0,-1.0,6.0,151,125,119,130,131
2025-02-25 18:27:26.412,-458.0,-854.0,98.0,-4.0,-1.0,4.0,152,123,116,130,131
2025-02-25 18:27:26.419,-457.0,-855.0,92.0,-4.0,-2.0,3.0,150,123,115,131,129
2025-02-25 18:27:26.424,-465.0,-856.0,96.0,-4.0,-2.0,3.0,153,125,118,133,132
2025-02-25 18:27:26.428,-470.0,-853.0,98.0,-2.0,-2.0,2.0,153,123,117,132,131
2025-02-25 18:27:26.432,-472.0,-848.0,92.0,-2.0,-3.0,1.0,151,123,116,131,128
2025-02-25 18:27:26.440,-474.0,-850.0,96.0,-1.0,-3.0,1.0,151,124,116,130,129
2025-02-25 18:27:26.444,-474.0,-856.0,101.0,-1.0,-3.0,1.0,154,124,118,133,132
2025-02-25 18:27:26.448,-475.0,-852.0,91.0,-1.0,-3.0,1.0,153,124,117,133,132
2025-02-25 18:27:26.452,-472.0,-856.0,99.0,-1.0,-3.0,0.0,151,122,115,130,129
2025-02-25 18:27:26.460,-472.0,-855.0,105.0,-2.0,-3.0,0.0,150,123,115,129,129
2025-02-25 18:27:26.464,-467.0,-855.0,100.0,-2.0,-3.0,0.0,156,117,116,132,131
2025-02-25 18:27:26.469,-463.0,-851.0,106.0,-2.0,-2.0,-1.0,151,124,116,131,130
2025-02-25 18:27:26.473,-467.0,-849.0,102.0,-1.0,-2.0,-1.0,152,122,115,131,130
2025-02-25 18:27:26.480,-463.0,-848.0,102.0,-1.0,-2.0,-1.0,151,121,114,129,129
2025-02-25 18:27:26.485,-458.0,-851.0,106.0,-1.0,-2.0,-2.0,154,126,118,132,129
2025-02-25 18:27:26.489,-452.0,-857.0,109.0,-1.0,-2.0,-3.0,152,123,116,133,131
2025-02-25 18:27:26.494,-463.0,-856.0,106.0,-1.0,-2.0,-3.0,152,124,116,130,129
2025-02-25 18:27:26.501,-459.0,-856.0,106.0,-1.0,-1.0,-4.0,151,122,115,131,129
2025-02-25 18:27:26.505,-459.0,-859.0,105.0,-1.0,-2.0,-4.0,153,125,118,132,131
2025-02-25 18:27:26.510,-467.0,-864.0,108.0,0.0,-2.0,-5.0,152,125,116,132,131
2025-02-25 18:27:26.518,-462.0,-866.0,105.0,0.0,-1.0,-5.0,153,124,117,131,130
2025-02-25 18:27:26.522,-468.0,-875.0,105.0,1.0,-2.0,-5.0,146,123,117,124,129
2025-02-25 18:27:26.526,-471.0,-874.0,109.0,2.0,-2.0,-5.0,151,127,118,133,130
2025-02-25 18:27:26.530,-465.0,-877.0,109.0,3.0,-2.0,-6.0,152,127,118,131,133
2025-02-25 18:27:26.538,-459.0,-880.0,113.0,3.0,-2.0,-6.0,153,124,117,132,130
2025-02-25 18:27:26.542,-455.0,-883.0,112.0,3.0,-2.0,-7.0,158,125,118,133,131
2025-02-25 18:27:26.546,-451.0,-886.0,119.0,3.0,-2.0,-7.0,153,124,118,131,131
2025-02-25 18:27:26.550,-452.0,-887.0,113.0,3.0,-1.0,-7.0,151,125,117,130,130
2025-02-25 18:27:26.558,-453.0,-889.0,111.0,4.0,-1.0,-7.0,151,123,117,132,129
2025-02-25 18:27:26.563,-449.0,-886.0,108.0,4.0,-1.0,-7.0,154,123,114,131,129
2025-02-25 18:27:26.567,-449.0,-891.0,108.0,5.0,-1.0,-7.0,152,126,118,134,131
2025-02-25 18:27:26.571,-457.0,-890.0,108.0,5.0,-1.0,-6.0,152,125,117,131,131
2025-02-25 18:27:26.579,-448.0,-895.0,115.0,5.0,0.0,-6.0,152,122,116,131,129
2025-02-25 18:27:26.583,-443.0,-897.0,123.0,5.0,-1.0,-7.0,152,124,118,131,131
2025-02-25 18:27:26.588,-447.0,-897.0,119.0,5.0,-1.0,-7.0,152,125,116,132,131
2025-02-25 18:27:26.591,-439.0,-906.0,118.0,5.0,0.0,-7.0,152,125,117,132,130
2025-02-25 18:27:26.599,-436.0,-903.0,116.0,4.0,0.0,-7.0,150,121,116,130,129
2025-02-25 18:27:26.603,-439.0,-908.0,122.0,2.0,0.0,-8.0,152,123,116,130,128
2025-02-25 18:27:26.607,-443.0,-910.0,122.0,1.0,0.0,-7.0,153,125,117,131,130
2025-02-25 18:27:26.612,-439.0,-916.0,117.0,1.0,0.0,-7.0,154,124,117,132,132
2025-02-25 18:27:26.616,-439.0,-911.0,124.0,1.0,0.0,-7.0,152,122,116,130,129
2025-02-25 18:27:26.623,-438.0,-914.0,122.0,2.0,0.0,-7.0,153,125,118,132,131
2025-02-25 18:27:26.628,-429.0,-907.0,124.0,2.0,0.0,-7.0,153,124,117,135,131
2025-02-25 18:27:26.632,-435.0,-918.0,116.0,2.0,0.0,-7.0,151,124,115,131,129
2025-02-25 18:27:26.636,-426.0,-917.0,114.0,3.0,0.0,-7.0,150,122,115,130,129
2025-02-25 18:27:26.645,-423.0,-919.0,118.0,3.0,0.0,-7.0,153,125,117,132,132
2025-02-25 18:27:26.649,-423.0,-920.0,122.0,4.0,0.0,-7.0,153,124,116,130,130
2025-02-25 18:27:26.653,-422.0,-916.0,118.0,5.0,0.0,-7.0,149,122,116,131,129
2025-02-25 18:27:26.657,-424.0,-916.0,120.0,6.0,0.0,-7.0,155,124,118,132,131
2025-02-25 18:27:26.665,-416.0,-917.0,111.0,6.0,0.0,-7.0,154,126,116,131,131
2025-02-25 18:27:26.669,-417.0,-921.0,114.0,6.0,1.0,-7.0,151,123,116,130,131
2025-02-25 18:27:26.674,-418.0,-922.0,110.0,5.0,0.0,-7.0,150,122,115,130,129
2025-02-25 18:27:26.678,-415.0,-926.0,117.0,6.0,1.0,-7.0,152,124,118,133,131
2025-02-25 18:27:26.685,-424.0,-923.0,114.0,5.0,1.0,-7.0,153,123,117,132,131
2025-02-25 18:27:26.690,-417.0,-928.0,116.0,4.0,0.0,-6.0,152,123,116,131,130
2025-02-25 18:27:26.694,-422.0,-928.0,130.0,3.0,1.0,-6.0,152,123,117,132,131
2025-02-25 18:27:26.698,-430.0,-936.0,121.0,2.0,2.0,-5.0,153,126,117,132,131
2025-02-25 18:27:26.703,-431.0,-944.0,113.0,3.0,2.0,-5.0,151,120,112,126,125
2025-02-25 18:27:26.710,-430.0,-951.0,111.0,2.0,2.0,-4.0,150,123,115,130,128
2025-02-25 18:27:26.714,-429.0,-955.0,115.0,1.0,1.0,-4.0,153,123,118,132,131
2025-02-25 18:27:26.719,-427.0,-962.0,121.0,1.0,1.0,-3.0,153,124,117,131,130
2025-02-25 18:27:26.723,-420.0,-958.0,122.0,1.0,1.0,-2.0,152,123,114,130,129
2025-02-25 18:27:26.730,-412.0,-955.0,116.0,2.0,1.0,-2.0,152,125,118,132,130
2025-02-25 18:27:26.734,-410.0,-955.0,117.0,1.0,1.0,-1.0,153,125,118,132,131
2025-02-25 18:27:26.739,-403.0,-953.0,116.0,1.0,1.0,0.0,152,123,116,130,128
2025-02-25 18:27:26.743,-403.0,-951.0,115.0,-1.0,1.0,0.0,150,124,116,130,130
2025-02-25 18:27:26.750,-406.0,-953.0,116.0,-2.0,1.0,0.0,153,125,117,132,131
2025-02-25 18:27:26.755,-405.0,-956.0,115.0,-3.0,2.0,1.0,152,123,116,131,130
2025-02-25 18:27:26.759,-407.0,-952.0,114.0,-4.0,2.0,1.0,151,124,117,130,129
2025-02-25 18:27:26.763,-407.0,-951.0,108.0,-3.0,1.0,2.0,152,125,118,131,132
2025-02-25 18:27:26.771,-407.0,-948.0,105.0,-3.0,1.0,2.0,155,126,118,133,131
2025-02-25 18:27:26.775,-411.0,-949.0,104.0,-3.0,0.0,2.0,150,123,117,130,129
2025-02-25 18:27:26.779,-414.0,-946.0,99.0,-3.0,0.0,2.0,150,122,116,134,129
2025-02-25 18:27:26.784,-417.0,-938.0,102.0,-3.0,-1.0,2.0,152,126,118,133,132
2025-02-25 18:27:26.788,-421.0,-935.0,102.0,-2.0,-2.0,3.0,153,124,118,132,130
2025-02-25 18:27:26.796,-422.0,-935.0,105.0,-3.0,-2.0,3.0,151,123,114,130,129
2025-02-25 18:27:26.801,-416.0,-939.0,107.0,-2.0,-3.0,3.0,153,121,118,133,131
2025-02-25 18:27:26.805,-420.0,-936.0,113.0,-3.0,-3.0,3.0,154,124,118,132,132
2025-02-25 18:27:26.809,-432.0,-939.0,118.0,-3.0,-2.0,3.0,150,125,117,137,131
2025-02-25 18:27:26.817,-425.0,-936.0,111.0,-3.0,-3.0,4.0,152,123,115,130,130
2025-02-25 18:27:26.821,-424.0,-933.0,123.0,-3.0,-3.0,3.0,154,128,120,135,133
2025-02-25 18:27:26.825,-433.0,-925.0,122.0,-4.0,-3.0,4.0,151,126,119,132,132
2025-02-25 18:27:26.833,-420.0,-916.0,119.0,-4.0,-2.0,5.0,152,124,118,133,130
2025-02-25 18:27:26.837,-423.0,-918.0,125.0,-5.0,-2.0,5.0,151,122,115,129,128
2025-02-25 18:27:26.842,-428.0,-919.0,124.0,-5.0,-2.0,6.0,154,128,118,133,133
2025-02-25 18:27:26.845,-423.0,-913.0,121.0,-6.0,-1.0,6.0,153,126,118,133,131
2025-02-25 18:27:26.854,-433.0,-913.0,118.0,-6.0,-1.0,6.0,151,123,117,131,131
2025-02-25 18:27:26.857,-429.0,-907.0,120.0,-6.0,-1.0,6.0,151,122,115,129,129
2025-02-25 18:27:26.861,-434.0,-907.0,118.0,-6.0,-1.0,6.0,153,125,118,133,132
2025-02-25 18:27:26.866,-428.0,-897.0,113.0,-5.0,-1.0,5.0,154,126,118,133,132
2025-02-25 18:27:26.874,-434.0,-889.0,109.0,-5.0,-1.0,6.0,152,123,114,131,130
2025-02-25 18:27:26.878,-439.0,-885.0,108.0,-5.0,-2.0,5.0,150,124,116,132,129
2025-02-25 18:27:26.883,-440.0,-883.0,106.0,-5.0,-2.0,5.0,153,123,119,133,133
2025-02-25 18:27:26.887,-444.0,-877.0,103.0,-5.0,-2.0,5.0,151,125,119,130,132
2025-02-25 18:27:26.895,-441.0,-870.0,103.0,-6.0,-3.0,4.0,151,123,116,130,129
2025-02-25 18:27:26.899,-443.0,-872.0,103.0,-6.0,-3.0,4.0,150,123,118,130,129
2025-02-25 18:27:26.903,-443.0,-875.0,103.0,-6.0,-3.0,3.0,155,125,118,133,133
2025-02-25 18:27:26.907,-443.0,-876.0,105.0,-6.0,-3.0,2.0,152,125,120,132,132
2025-02-25 18:27:26.915,-444.0,-878.0,111.0,-5.0,-3.0,1.0,149,123,116,131,129
2025-02-25 18:27:26.919,-445.0,-885.0,115.0,-4.0,-3.0,1.0,152,123,116,131,130
2025-02-25 18:27:26.923,-449.0,-889.0,107.0,-4.0,-3.0,1.0,154,127,118,132,133
2025-02-25 18:27:26.927,-449.0,-885.0,108.0,-4.0,-3.0,1.0,152,124,119,133,131
2025-02-25 18:27:26.935,-444.0,-883.0,113.0,-3.0,-3.0,1.0,151,124,117,130,129
2025-02-25 18:27:26.939,-444.0,-885.0,120.0,-2.0,-2.0,1.0,153,127,116,130,130
2025-02-25 18:27:26.943,-447.0,-879.0,119.0,-2.0,-1.0,1.0,154,126,118,133,132
2025-02-25 18:27:26.948,-448.0,-878.0,116.0,-2.0,-1.0,1.0,151,123,118,131,132
2025-02-25 18:27:26.956,-446.0,-880.0,113.0,-2.0,0.0,1.0,151,123,115,131,128
2025-02-25 18:27:26.960,-447.0,-882.0,116.0,-1.0,0.0,1.0,150,121,115,129,129
2025-02-25 18:27:26.964,-449.0,-881.0,115.0,-1.0,0.0,1.0,154,124,118,132,132
2025-02-25 18:27:26.968,-454.0,-883.0,110.0,-1.0,0.0,1.0,152,124,118,132,131
2025-02-25 18:27:26.976,-454.0,-886.0,107.0,-1.0,0.0,0.0,150,121,115,130,129
2025-02-25 18:27:26.981,-453.0,-886.0,107.0,-1.0,0.0,0.0,153,126,120,133,131
2025-02-25 18:27:26.985,-455.0,-887.0,103.0,-1.0,0.0,0.0,155,125,120,131,131
2025-02-25 18:27:26.989,-456.0,-890.0,107.0,-1.0,0.0,0.0,150,123,116,130,130
2025-02-25 18:27:26.997,-454.0,-895.0,114.0,-1.0,-1.0,0.0,152,124,115,130,129
2025-02-25 18:27:27.001,-453.0,-892.0,114.0,-2.0,-2.0,-1.0,151,125,118,132,131
2025-02-25 18:27:27.005,-454.0,-887.0,117.0,-2.0,-2.0,-1.0,152,123,119,132,131
2025-02-25 18:27:27.010,-451.0,-902.0,118.0,-3.0,-2.0,-1.0,149,122,116,129,129
2025-02-25 18:27:27.017,-445.0,-899.0,123.0,-3.0,-2.0,-1.0,152,123,116,131,131
2025-02-25 18:27:27.021,-451.0,-901.0,124.0,-3.0,-3.0,-1.0,153,126,120,134,133
2025-02-25 18:27:27.026,-445.0,-899.0,121.0,-3.0,-3.0,-1.0,155,125,118,131,131
2025-02-25 18:27:27.030,-442.0,-902.0,123.0,-3.0,-3.0,-1.0,153,124,117,132,131
2025-02-25 18:27:27.037,-438.0,-901.0,128.0,-3.0,-2.0,-1.0,151,122,117,130,131
2025-02-25 18:27:27.042,-440.0,-895.0,128.0,-3.0,-1.0,-1.0,152,127,117,130,130
2025-02-25 18:27:27.046,-439.0,-896.0,129.0,-3.0,-1.0,-1.0,153,123,118,132,131
2025-02-25 18:27:27.053,-445.0,-893.0,124.0,-3.0,0.0,-2.0,152,126,117,131,131
2025-02-25 18:27:27.058,-445.0,-887.0,115.0,-2.0,0.0,-1.0,151,124,115,131,130
2025-02-25 18:27:27.062,-453.0,-888.0,119.0,-1.0,1.0,-1.0,152,123,115,130,129
2025-02-25 18:27:27.066,-452.0,-885.0,116.0,0.0,1.0,-2.0,154,125,118,133,132
2025-02-25 18:27:27.074,-459.0,-879.0,111.0,0.0,1.0,-1.0,151,124,116,131,132
2025-02-25 18:27:27.078,-461.0,-876.0,111.0,1.0,1.0,-2.0,150,122,116,129,129
2025-02-25 18:27:27.083,-459.0,-874.0,111.0,1.0,1.0,-2.0,152,124,118,131,132
2025-02-25 18:27:27.087,-464.0,-862.0,111.0,1.0,0.0,-3.0,152,125,118,133,131
2025-02-25 18:27:27.091,-456.0,-867.0,110.0,2.0,0.0,-3.0,151,123,116,130,129
2025-02-25 18:27:27.099,-457.0,-866.0,115.0,2.0,0.0,-4.0,153,124,116,129,128
2025-02-25 18:27:27.104,-453.0,-878.0,115.0,2.0,0.0,-4.0,155,125,117,132,131
2025-02-25 18:27:27.107,-447.0,-880.0,122.0,2.0,0.0,-5.0,151,124,116,131,130
2025-02-25 18:27:27.112,-448.0,-881.0,112.0,2.0,0.0,-5.0,151,125,117,130,129
2025-02-25 18:27:27.120,-433.0,-881.0,120.0,2.0,0.0,-5.0,154,125,117,131,131
2025-02-25 18:27:27.124,-438.0,-881.0,116.0,2.0,0.0,-5.0,152,126,120,133,131
2025-02-25 18:27:27.128,-440.0,-875.0,117.0,1.0,0.0,-6.0,150,123,116,131,129
2025-02-25 18:27:27.132,-433.0,-883.0,117.0,1.0,0.0,-6.0,150,122,115,130,129
2025-02-25 18:27:27.140,-436.0,-884.0,116.0,1.0,1.0,-6.0,150,124,117,133,126
2025-02-25 18:27:27.144,-437.0,-881.0,113.0,1.0,0.0,-7.0,152,124,117,131,130
2025-02-25 18:27:27.148,-441.0,-889.0,114.0,1.0,1.0,-6.0,151,124,117,131,128
2025-02-25 18:27:27.152,-440.0,-888.0,110.0,2.0,1.0,-7.0,151,125,118,132,131
2025-02-25 18:27:27.160,-444.0,-891.0,115.0,3.0,1.0,-7.0,153,124,118,131,130
2025-02-25 18:27:27.164,-440.0,-890.0,112.0,3.0,1.0,-8.0,151,124,115,131,131
2025-02-25 18:27:27.168,-437.0,-891.0,106.0,4.0,1.0,-8.0,152,123,116,130,130
2025-02-25 18:27:27.174,-431.0,-897.0,108.0,3.0,1.0,-8.0,152,125,118,132,130
2025-02-25 18:27:27.178,-429.0,-900.0,123.0,3.0,2.0,-8.0,152,124,117,130,129
2025-02-25 18:27:27.185,-426.0,-909.0,123.0,3.0,1.0,-8.0,152,123,115,130,130
2025-02-25 18:27:27.189,-442.0,-916.0,120.0,3.0,2.0,-8.0,153,124,118,132,131
2025-02-25 18:27:27.194,-432.0,-922.0,105.0,3.0,2.0,-7.0,152,124,118,132,130
2025-02-25 18:27:27.198,-437.0,-933.0,112.0,2.0,2.0,-6.0,152,124,115,130,130
2025-02-25 18:27:27.205,-436.0,-945.0,119.0,2.0,1.0,-6.0,149,123,116,131,130
2025-02-25 18:27:27.210,-430.0,-949.0,121.0,2.0,1.0,-5.0,152,125,119,132,130
2025-02-25 18:27:27.214,-433.0,-958.0,124.0,3.0,2.0,-5.0,153,126,117,129,130
2025-02-25 18:27:27.218,-422.0,-955.0,117.0,3.0,2.0,-4.0,151,124,116,131,129
2025-02-25 18:27:27.226,-421.0,-951.0,103.0,2.0,1.0,-4.0,150,125,118,132,131
2025-02-25 18:27:27.231,-418.0,-955.0,105.0,2.0,1.0,-4.0,152,123,118,132,128
2025-02-25 18:27:27.234,-408.0,-950.0,101.0,2.0,0.0,-4.0,151,122,115,130,130
2025-02-25 18:27:27.239,-409.0,-954.0,101.0,1.0,0.0,-4.0,151,122,115,132,128
2025-02-25 18:27:27.246,-409.0,-957.0,103.0,0.0,0.0,-3.0,151,122,116,133,132
2025-02-25 18:27:27.250,-406.0,-966.0,104.0,-1.0,0.0,-3.0,151,125,117,132,131
2025-02-25 18:27:27.255,-411.0,-970.0,110.0,-2.0,0.0,-2.0,151,123,116,130,128
2025-02-25 18:27:27.259,-416.0,-971.0,101.0,-2.0,0.0,-1.0,152,125,119,131,131
2025-02-25 18:27:27.267,-405.0,-973.0,100.0,-2.0,-1.0,0.0,153,124,118,130,130
2025-02-25 18:27:27.271,-401.0,-976.0,101.0,-3.0,-2.0,1.0,151,124,117,131,130
2025-02-25 18:27:27.275,-407.0,-983.0,105.0,-3.0,-2.0,1.0,151,123,113,129,129
2025-02-25 18:27:27.279,-403.0,-986.0,122.0,-4.0,-3.0,2.0,152,125,117,130,130
2025-02-25 18:27:27.287,-396.0,-981.0,117.0,-5.0,-4.0,2.0,153,125,118,132,131
2025-02-25 18:27:27.291,-394.0,-982.0,121.0,-5.0,-3.0,3.0,152,123,116,131,129
2025-02-25 18:27:27.296,-391.0,-992.0,124.0,-6.0,-3.0,4.0,151,122,113,130,128
2025-02-25 18:27:27.300,-380.0,-999.0,116.0,-8.0,-3.0,3.0,153,125,117,131,131
2025-02-25 18:27:27.308,-378.0,-1012.0,118.0,-10.0,-3.0,5.0,154,124,119,131,130
2025-02-25 18:27:27.312,-378.0,-1031.0,116.0,-11.0,-3.0,7.0,152,121,117,131,129
2025-02-25 18:27:27.316,-382.0,-1042.0,116.0,-13.0,-3.0,10.0,152,121,116,129,129
2025-02-25 18:27:27.324,-383.0,-1058.0,116.0,-14.0,-3.0,13.0,151,122,117,131,128
2025-02-25 18:27:27.328,-384.0,-1058.0,128.0,-14.0,-2.0,14.0,152,122,115,129,128
2025-02-25 18:27:27.333,-386.0,-1052.0,134.0,-15.0,0.0,16.0,153,123,116,131,130
2025-02-25 18:27:27.337,-389.0,-1059.0,134.0,-14.0,0.0,18.0,153,124,116,131,130
2025-02-25 18:27:27.345,-394.0,-1052.0,121.0,-13.0,1.0,20.0,153,124,116,132,129
2025-02-25 18:27:27.349,-394.0,-1041.0,114.0,-14.0,0.0,21.0,150,120,114,130,128
2025-02-25 18:27:27.353,-391.0,-1036.0,109.0,-16.0,1.0,22.0,151,119,115,128,126
2025-02-25 18:27:27.361,-408.0,-1022.0,110.0,-17.0,1.0,25.0,153,122,115,132,128
2025-02-25 18:27:27.366,-397.0,-1011.0,111.0,-17.0,2.0,28.0,152,122,116,131,128
2025-02-25 18:27:27.370,-396.0,-1001.0,103.0,-18.0,2.0,31.0,153,122,108,131,127
2025-02-25 18:27:27.377,-396.0,-972.0,104.0,-16.0,3.0,34.0,150,119,113,127,126
2025-02-25 18:27:27.382,-406.0,-974.0,104.0,-14.0,5.0,36.0,154,122,114,128,126
2025-02-25 18:27:27.386,-405.0,-962.0,92.0,-14.0,5.0,38.0,151,121,116,131,127
2025-02-25 18:27:27.391,-411.0,-946.0,95.0,-13.0,5.0,40.0,151,120,117,129,126
2025-02-25 18:27:27.398,-420.0,-937.0,91.0,-14.0,6.0,41.0,151,117,113,128,125
2025-02-25 18:27:27.403,-437.0,-941.0,104.0,-14.0,8.0,42.0,151,119,114,127,125
2025-02-25 18:27:27.407,-439.0,-917.0,102.0,-14.0,11.0,43.0,152,120,114,131,127
2025-02-25 18:27:27.411,-444.0,-925.0,108.0,-12.0,12.0,45.0,153,117,112,129,125
2025-02-25 18:27:27.419,-476.0,-907.0,85.0,-11.0,13.0,47.0,154,118,113,126,124
2025-02-25 18:27:27.423,-482.0,-896.0,102.0,-12.0,14.0,48.0,153,114,110,126,121
2025-02-25 18:27:27.427,-493.0,-896.0,99.0,-9.0,15.0,49.0,152,115,110,126,118
2025-02-25 18:27:27.434,-520.0,-881.0,99.0,-7.0,16.0,49.0,152,114,110,125,119
2025-02-25 18:27:27.439,-536.0,-851.0,85.0,-7.0,17.0,50.0,151,112,108,126,116
2025-02-25 18:27:27.443,-549.0,-854.0,74.0,-6.0,18.0,52.0,151,108,107,122,113
2025-02-25 18:27:27.448,-570.0,-843.0,33.0,-7.0,19.0,53.0,152,105,105,122,112
2025-02-25 18:27:27.455,-577.0,-826.0,35.0,-8.0,18.0,57.0,152,103,105,121,111
2025-02-25 18:27:27.459,-594.0,-749.0,51.0,-8.0,20.0,57.0,153,99,103,119,108
2025-02-25 18:27:27.463,-618.0,-772.0,68.0,-3.0,21.0,59.0,151,95,100,117,104
2025-02-25 18:27:27.468,-646.0,-784.0,27.0,-1.0,23.0,60.0,152,92,102,115,103
2025-02-25 18:27:27.472,-645.0,-748.0,9.0,-2.0,23.0,63.0,154,89,101,114,104
2025-02-25 18:27:27.480,-622.0,-681.0,22.0,-2.0,25.0,67.0,152,83,98,111,96
2025-02-25 18:27:27.484,-589.0,-601.0,-14.0,5.0,26.0,68.0,152,79,97,109,94
2025-02-25 18:27:27.488,-710.0,-564.0,-70.0,7.0,22.0,68.0,153,78,93,107,93
2025-02-25 18:27:27.493,-733.0,-552.0,82.0,6.0,27.0,70.0,151,72,92,104,89
2025-02-25 18:27:27.496,-773.0,-490.0,89.0,6.0,35.0,71.0,150,68,90,103,86
2025-02-25 18:27:27.504,-713.0,-387.0,83.0,15.0,41.0,70.0,154,66,89,103,84
2025-02-25 18:27:27.510,-782.0,-249.0,101.0,21.0,36.0,68.0,150,63,85,102,79
2025-02-25 18:27:27.512,-819.0,-162.0,151.0,41.0,37.0,71.0,147,61,80,101,74
2025-02-25 18:27:27.517,-856.0,-129.0,139.0,46.0,55.0,64.0,152,63,82,100,74
2025-02-25 18:27:27.521,-894.0,-118.0,469.0,35.0,102.0,63.0,151,61,79,99,72
2025-02-25 18:27:27.530,-873.0,-39.0,405.0,21.0,114.0,61.0,150,60,77,96,70
2025-02-25 18:27:27.533,-855.0,21.0,461.0,-10.0,142.0,43.0,151,62,74,95,68
2025-02-25 18:27:27.537,-824.0,95.0,484.0,-35.0,164.0,24.0,154,61,73,93,68
2025-02-25 18:27:27.541,-757.0,419.0,94.0,-71.0,160.0,-2.0,149,60,71,91,67
2025-02-25 18:27:27.546,-684.0,446.0,217.0,-88.0,151.0,-21.0,148,61,73,94,67
2025-02-25 18:27:27.554,-716.0,704.0,-24.0,-90.0,141.0,-56.0,147,60,72,90,66
2025-02-25 18:27:27.558,-651.0,886.0,-349.0,-130.0,128.0,-102.0,145,58,69,91,64
2025-02-25 18:27:27.563,-486.0,1022.0,-301.0,-130.0,147.0,-121.0,148,60,69,93,66
2025-02-25 18:27:27.569,-408.0,1177.0,-195.0,-87.0,167.0,-163.0,146,60,70,90,65
2025-02-25 18:27:27.574,-232.0,1298.0,-368.0,-32.0,138.0,-211.0,142,61,68,92,66
2025-02-25 18:27:27.579,-82.0,1577.0,-1042.0,101.0,87.0,-299.0,137,58,67,90,62
2025-02-25 18:27:27.583,-139.0,1899.0,-1175.0,147.0,-4.0,-342.0,137,58,66,87,62
2025-02-25 18:27:27.591,-538.0,1236.0,-1103.0,130.0,-42.0,-406.0,133,61,68,87,64
2025-02-25 18:27:27.595,-980.0,640.0,-1067.0,119.0,-45.0,-456.0,131,62,70,88,65
2025-02-25 18:27:27.599,-898.0,496.0,-1152.0,124.0,-99.0,-502.0,128,58,69,88,68
2025-02-25 18:27:27.607,-823.0,173.0,-1374.0,142.0,-148.0,-538.0,130,60,67,85,62
2025-02-25 18:27:27.611,-677.0,-73.0,-1395.0,151.0,-245.0,-549.0,130,60,66,85,65
2025-02-25 18:27:27.616,-285.0,-211.0,-1027.0,143.0,-312.0,-546.0,132,61,69,88,66
2025-02-25 18:27:27.623,376.0,-544.0,-779.0,126.0,-332.0,-510.0,131,63,70,88,67
2025-02-25 18:27:27.628,1097.0,-1114.0,-173.0,115.0,-321.0,-454.0,130,61,71,85,68
2025-02-25 18:27:27.632,1702.0,-1663.0,458.0,92.0,-297.0,-385.0,131,63,71,87,66
2025-02-25 18:27:27.640,1902.0,-2317.0,999.0,68.0,-274.0,-303.0,129,60,69,85,66
2025-02-25 18:27:27.644,2223.0,-2509.0,1622.0,42.0,-219.0,-262.0,128,59,68,86,66
2025-02-25 18:27:27.649,2273.0,-3106.0,1886.0,41.0,-100.0,-189.0,129,62,71,86,67
2025-02-25 18:27:27.653,2177.0,-3353.0,1782.0,50.0,17.0,-144.0,130,63,72,86,67
2025-02-25 18:27:27.660,1900.0,-3814.0,1642.0,57.0,88.0,-109.0,128,63,72,85,66
2025-02-25 18:27:27.665,1730.0,-4264.0,1282.0,101.0,110.0,-65.0,127,64,72,82,67
2025-02-25 18:27:27.669,1363.0,-4362.0,961.0,119.0,147.0,-35.0,126,61,72,81,65
2025-02-25 18:27:27.676,1080.0,-4310.0,866.0,122.0,158.0,29.0,127,66,73,83,68
2025-02-25 18:27:27.681,999.0,-4051.0,869.0,103.0,147.0,77.0,124,68,77,87,71
2025-02-25 18:27:27.685,965.0,-3686.0,840.0,86.0,140.0,109.0,124,66,73,83,67
2025-02-25 18:27:27.690,1010.0,-3437.0,839.0,41.0,127.0,118.0,125,63,72,82,66
2025-02-25 18:27:27.697,955.0,-3146.0,810.0,-11.0,105.0,130.0,125,66,70,85,68
2025-02-25 18:27:27.701,928.0,-2936.0,757.0,-40.0,84.0,140.0,126,67,75,87,71
2025-02-25 18:27:27.705,878.0,-2863.0,654.0,-93.0,71.0,154.0,125,65,72,86,68
2025-02-25 18:27:27.710,785.0,-2806.0,523.0,-135.0,42.0,163.0,126,65,70,87,70
2025-02-25 18:27:27.718,747.0,-2764.0,487.0,-163.0,15.0,189.0,127,66,71,88,71
2025-02-25 18:27:27.722,722.0,-2625.0,422.0,-175.0,-2.0,220.0,127,66,71,89,72
2025-02-25 18:27:27.727,728.0,-2433.0,415.0,-189.0,-8.0,250.0,125,65,68,86,70
2025-02-25 18:27:27.731,752.0,-2318.0,416.0,-186.0,-23.0,261.0,127,68,70,88,70
2025-02-25 18:27:27.738,755.0,-2089.0,442.0,-182.0,-30.0,282.0,127,66,68,88,69
2025-02-25 18:27:27.742,711.0,-1782.0,425.0,-178.0,-29.0,300.0,127,66,71,89,70
2025-02-25 18:27:27.746,690.0,-1487.0,367.0,-162.0,-33.0,308.0,127,66,70,86,70
2025-02-25 18:27:27.751,550.0,-1305.0,270.0,-155.0,-33.0,311.0,125,64,68,86,68
2025-02-25 18:27:27.758,453.0,-1004.0,247.0,-148.0,-34.0,314.0,128,67,74,88,70
2025-02-25 18:27:27.763,264.0,-743.0,202.0,-149.0,-34.0,315.0,129,66,72,88,71
2025-02-25 18:27:27.767,154.0,-518.0,125.0,-144.0,-30.0,311.0,128,65,73,87,69
2025-02-25 18:27:27.771,102.0,-411.0,87.0,-143.0,-30.0,308.0,129,64,72,86,64
2025-02-25 18:27:27.779,-15.0,-229.0,66.0,-141.0,-27.0,302.0,131,68,75,87,70
2025-02-25 18:27:27.783,-91.0,-103.0,63.0,-141.0,-25.0,294.0,129,65,74,88,72
2025-02-25 18:27:27.787,-153.0,18.0,32.0,-133.0,-23.0,285.0,128,65,74,86,69
2025-02-25 18:27:27.792,-194.0,53.0,26.0,-125.0,-15.0,280.0,131,65,76,88,71
2025-02-25 18:27:27.800,-278.0,162.0,7.0,-120.0,-8.0,268.0,131,65,76,84,71
2025-02-25 18:27:27.804,-296.0,233.0,1.0,-101.0,-12.0,251.0,130,62,74,84,68
2025-02-25 18:27:27.808,-384.0,253.0,20.0,-84.0,-19.0,244.0,129,66,76,87,70
2025-02-25 18:27:27.812,-431.0,310.0,16.0,-72.0,-18.0,229.0,129,66,75,87,70
2025-02-25 18:27:27.816,-467.0,324.0,19.0,-65.0,-15.0,213.0,129,63,72,86,69
2025-02-25 18:27:27.824,-551.0,340.0,-29.0,-54.0,-7.0,209.0,129,65,72,86,69
2025-02-25 18:27:27.828,-584.0,292.0,-41.0,-40.0,0.0,195.0,130,65,73,88,71
2025-02-25 18:27:27.832,-651.0,280.0,-56.0,-35.0,4.0,187.0,130,63,68,85,68
2025-02-25 18:27:27.837,-650.0,303.0,-40.0,-25.0,15.0,184.0,128,62,68,85,69
2025-02-25 18:27:27.841,-739.0,350.0,-98.0,-15.0,26.0,178.0,131,65,71,89,71
2025-02-25 18:27:27.848,-792.0,325.0,-57.0,-11.0,37.0,177.0,130,64,69,86,70
2025-02-25 18:27:27.853,-824.0,355.0,-109.0,-1.0,43.0,174.0,129,61,69,86,69
2025-02-25 18:27:27.857,-827.0,423.0,-108.0,7.0,35.0,168.0,132,66,71,87,71
2025-02-25 18:27:27.861,-888.0,482.0,-75.0,13.0,32.0,163.0,130,63,73,88,72
2025-02-25 18:27:27.865,-897.0,565.0,-128.0,16.0,35.0,159.0,130,60,70,87,70
2025-02-25 18:27:27.874,-927.0,560.0,-138.0,19.0,51.0,158.0,131,64,72,87,71
2025-02-25 18:27:27.880,-1019.0,631.0,-123.0,20.0,43.0,155.0,131,62,72,87,71
2025-02-25 18:27:27.882,-941.0,678.0,-151.0,23.0,41.0,150.0,130,63,72,87,71
2025-02-25 18:27:27.886,-928.0,689.0,-145.0,27.0,36.0,145.0,133,64,73,88,73
2025-02-25 18:27:27.894,-975.0,732.0,-165.0,26.0,32.0,137.0,133,64,72,86,72
2025-02-25 18:27:27.898,-979.0,774.0,-205.0,31.0,30.0,121.0,131,61,70,86,70
2025-02-25 18:27:27.902,-1011.0,777.0,-219.0,36.0,26.0,112.0,134,64,71,88,72
2025-02-25 18:27:27.906,-1000.0,812.0,-246.0,41.0,18.0,89.0,134,65,73,88,73
2025-02-25 18:27:27.911,-1023.0,842.0,-262.0,44.0,15.0,65.0,132,62,71,86,71
2025-02-25 18:27:27.919,-1017.0,860.0,-258.0,51.0,7.0,54.0,135,63,72,86,70
2025-02-25 18:27:27.923,-968.0,938.0,-270.0,58.0,-1.0,26.0,134,65,73,89,72
2025-02-25 18:27:27.927,-935.0,973.0,-252.0,59.0,-3.0,-1.0,132,63,71,87,71
2025-02-25 18:27:27.931,-911.0,989.0,-227.0,58.0,-4.0,-13.0,134,64,71,87,69
2025-02-25 18:27:27.936,-866.0,1025.0,-199.0,57.0,-8.0,-37.0,135,65,72,87,71
2025-02-25 18:27:27.943,-770.0,1062.0,-167.0,59.0,-14.0,-64.0,135,62,71,88,71
2025-02-25 18:27:27.947,-716.0,1065.0,-125.0,65.0,-17.0,-79.0,135,64,74,86,71
2025-02-25 18:27:27.951,-673.0,1062.0,-97.0,68.0,-18.0,-110.0,134,63,73,88,72
2025-02-25 18:27:27.955,-673.0,1062.0,-61.0,71.0,-15.0,-143.0,136,65,72,88,73
2025-02-25 18:27:27.963,-676.0,1109.0,-16.0,81.0,-15.0,-187.0,137,62,72,87,72
2025-02-25 18:27:27.968,-646.0,1172.0,2.0,95.0,-14.0,-214.0,134,63,71,87,72
2025-02-25 18:27:27.971,-552.0,1160.0,52.0,106.0,-12.0,-280.0,136,63,72,89,73
2025-02-25 18:27:27.976,-416.0,1218.0,69.0,104.0,-5.0,-355.0,136,63,70,88,72
2025-02-25 18:27:27.984,-377.0,1232.0,23.0,96.0,-4.0,-436.0,134,63,70,89,72
2025-02-25 18:27:27.988,-314.0,1235.0,-11.0,78.0,-8.0,-478.0,138,59,70,89,73
2025-02-25 18:27:27.992,-160.0,1181.0,-13.0,47.0,-24.0,-558.0,137,66,71,89,74
2025-02-25 18:27:27.997,123.0,963.0,-95.0,31.0,-45.0,-629.0,134,63,70,90,73
2025-02-25 18:27:28.004,288.0,768.0,-87.0,10.0,-58.0,-660.0,133,64,69,89,71
2025-02-25 18:27:28.007,626.0,302.0,-172.0,-1.0,-91.0,-715.0,136,67,70,92,75
2025-02-25 18:27:28.013,854.0,-360.0,-247.0,-2.0,-133.0,-746.0,136,65,71,92,75
2025-02-25 18:27:28.017,958.0,-1012.0,-249.0,9.0,-153.0,-741.0,136,62,70,91,74
2025-02-25 18:27:28.025,1111.0,-1273.0,-111.0,16.0,-181.0,-717.0,134,62,70,92,73
2025-02-25 18:27:28.029,1860.0,-2225.0,64.0,-4.0,-150.0,-652.0,137,65,72,94,76
2025-02-25 18:27:28.033,2145.0,-3138.0,124.0,-1.0,-132.0,-549.0,138,64,73,93,76
2025-02-25 18:27:28.041,1814.0,-4298.0,626.0,29.0,-89.0,-404.0,136,66,73,92,82
2025-02-25 18:27:28.045,1914.0,-4458.0,494.0,58.0,-57.0,-264.0,134,63,74,91,77
2025-02-25 18:27:28.050,2045.0,-4437.0,273.0,43.0,9.0,-203.0,134,62,74,91,76
2025-02-25 18:27:28.053,1813.0,-4715.0,250.0,50.0,47.0,-100.0,136,64,74,88,78
2025-02-25 18:27:28.062,1708.0,-4790.0,261.0,59.0,40.0,-43.0,138,66,77,90,79
2025-02-25 18:27:28.066,1675.0,-4676.0,73.0,68.0,39.0,-6.0,135,63,76,89,79
2025-02-25 18:27:28.070,1502.0,-4685.0,50.0,77.0,51.0,11.0,138,65,79,89,79
2025-02-25 18:27:28.074,1375.0,-4611.0,-21.0,80.0,65.0,51.0,136,64,79,90,81
2025-02-25 18:27:28.078,1421.0,-4721.0,83.0,90.0,61.0,93.0,135,65,76,90,77
2025-02-25 18:27:28.086,1437.0,-4597.0,109.0,89.0,56.0,114.0,137,66,78,93,83
2025-02-25 18:27:28.091,1442.0,-4473.0,146.0,85.0,51.0,154.0,136,69,77,92,81
2025-02-25 18:27:28.095,1409.0,-4191.0,166.0,55.0,51.0,203.0,135,64,75,92,79
2025-02-25 18:27:28.099,1329.0,-4002.0,168.0,13.0,45.0,226.0,137,66,74,91,82
2025-02-25 18:27:28.107,1267.0,-3623.0,173.0,-24.0,24.0,270.0,137,65,76,94,79
2025-02-25 18:27:28.111,1188.0,-3266.0,202.0,-39.0,-11.0,306.0,136,65,72,92,80
2025-02-25 18:27:28.115,1128.0,-2848.0,216.0,-58.0,-18.0,340.0,133,61,73,93,78
2025-02-25 18:27:28.119,1093.0,-2618.0,227.0,-92.0,-9.0,354.0,140,69,75,94,81
2025-02-25 18:27:28.127,1107.0,-2289.0,199.0,-91.0,-15.0,374.0,137,66,76,95,80
2025-02-25 18:27:28.131,924.0,-1949.0,228.0,-90.0,-48.0,388.0,137,67,74,95,78
2025-02-25 18:27:28.136,853.0,-1591.0,187.0,-89.0,-52.0,405.0,136,65,73,92,78
2025-02-25 18:27:28.140,807.0,-1407.0,193.0,-93.0,-47.0,413.0,139,67,77,94,79
2025-02-25 18:27:28.147,688.0,-1098.0,216.0,-86.0,-54.0,423.0,138,67,76,94,79
2025-02-25 18:27:28.152,610.0,-748.0,219.0,-81.0,-72.0,423.0,140,66,76,93,79
2025-02-25 18:27:28.156,542.0,-446.0,211.0,-74.0,-71.0,420.0,137,64,76,91,78
2025-02-25 18:27:28.160,446.0,-316.0,125.0,-79.0,-56.0,418.0,140,69,80,94,80
2025-02-25 18:27:28.168,340.0,-45.0,163.0,-79.0,-44.0,412.0,140,66,78,93,80
2025-02-25 18:27:28.172,287.0,113.0,184.0,-77.0,-47.0,397.0,138,65,77,90,77
2025-02-25 18:27:28.176,115.0,158.0,213.0,-68.0,-65.0,388.0,135,65,77,89,77
2025-02-25 18:27:28.180,45.0,302.0,192.0,-66.0,-68.0,370.0,140,68,80,93,81
2025-02-25 18:27:28.185,-14.0,378.0,156.0,-70.0,-56.0,354.0,139,66,78,92,79
2025-02-25 18:27:28.192,-58.0,405.0,162.0,-71.0,-37.0,349.0,138,65,78,93,79
2025-02-25 18:27:28.197,-105.0,473.0,164.0,-69.0,-38.0,332.0,142,70,83,96,84
2025-02-25 18:27:28.201,-205.0,526.0,174.0,-68.0,-35.0,311.0,147,74,84,100,85
2025-02-25 18:27:28.205,-230.0,569.0,155.0,-66.0,-23.0,293.0,142,70,80,95,82
2025-02-25 18:27:28.212,-291.0,623.0,103.0,-70.0,2.0,286.0,145,71,81,96,83
2025-02-25 18:27:28.217,-417.0,661.0,121.0,-72.0,20.0,278.0,144,72,81,98,83
2025-02-25 18:27:28.222,-464.0,698.0,123.0,-73.0,23.0,263.0,144,71,79,96,81
2025-02-25 18:27:28.225,-496.0,708.0,216.0,-69.0,23.0,255.0,145,72,78,97,82
2025-02-25 18:27:28.230,-676.0,742.0,175.0,-64.0,18.0,235.0,145,72,78,97,82
2025-02-25 18:27:28.237,-764.0,703.0,106.0,-51.0,14.0,211.0,141,65,75,92,77
2025-02-25 18:27:28.242,-661.0,641.0,85.0,-42.0,21.0,202.0,140,66,72,91,77
2025-02-25 18:27:28.246,-789.0,614.0,99.0,-24.0,13.0,186.0,143,67,76,95,81
2025-02-25 18:27:28.250,-885.0,522.0,108.0,-17.0,2.0,172.0,144,67,75,95,81
2025-02-25 18:27:28.255,-896.0,561.0,40.0,-2.0,-9.0,164.0,142,65,73,94,77
2025-02-25 18:27:28.259,-955.0,591.0,5.0,1.0,1.0,156.0,144,67,74,94,79
2025-02-25 18:27:28.266,-932.0,551.0,39.0,5.0,16.0,145.0,142,64,71,91,76
2025-02-25 18:27:28.271,-966.0,573.0,10.0,10.0,17.0,141.0,138,64,69,90,76
2025-02-25 18:27:28.275,-1034.0,623.0,12.0,14.0,15.0,133.0,140,65,77,92,77
2025-02-25 18:27:28.279,-1025.0,674.0,26.0,16.0,16.0,122.0,142,66,73,92,76
2025-02-25 18:27:28.283,-1026.0,625.0,28.0,16.0,18.0,117.0,141,65,71,91,78
2025-02-25 18:27:28.291,-1032.0,694.0,-1.0,17.0,14.0,107.0,142,65,74,93,79
2025-02-25 18:27:28.295,-1100.0,735.0,2.0,15.0,11.0,93.0,142,65,75,95,80
2025-02-25 18:27:28.299,-1063.0,772.0,29.0,15.0,7.0,87.0,143,67,75,94,80
2025-02-25 18:27:28.303,-1037.0,814.0,20.0,11.0,4.0,70.0,143,67,75,94,81
2025-02-25 18:27:28.308,-1012.0,851.0,50.0,8.0,4.0,55.0,144,67,76,95,80
2025-02-25 18:27:28.312,-1042.0,864.0,45.0,3.0,5.0,48.0,142,68,73,92,79
2025-02-25 18:27:28.316,-1059.0,865.0,50.0,-3.0,2.0,34.0,147,71,77,96,83
2025-02-25 18:27:28.324,-1041.0,855.0,47.0,-7.0,0.0,20.0,146,69,76,95,81
2025-02-25 18:27:28.328,-1038.0,811.0,49.0,-10.0,0.0,15.0,143,69,75,96,79
2025-02-25 18:27:28.332,-1020.0,792.0,60.0,-10.0,0.0,2.0,147,69,77,95,81
2025-02-25 18:27:28.337,-1024.0,796.0,57.0,-9.0,2.0,-13.0,148,70,78,96,83
2025-02-25 18:27:28.341,-1037.0,814.0,49.0,-9.0,2.0,-20.0,145,69,73,94,80
2025-02-25 18:27:28.345,-1089.0,833.0,63.0,-1.0,5.0,-36.0,146,70,79,98,81
2025-02-25 18:27:28.353,-1020.0,866.0,89.0,4.0,6.0,-54.0,146,69,76,97,81
2025-02-25 18:27:28.357,-987.0,899.0,104.0,20.0,8.0,-65.0,149,71,74,97,83
2025-02-25 18:27:28.361,-929.0,1016.0,110.0,35.0,12.0,-91.0,147,70,79,97,83
2025-02-25 18:27:28.365,-861.0,1139.0,101.0,46.0,14.0,-122.0,147,66,78,97,83
2025-02-25 18:27:28.370,-842.0,1264.0,108.0,67.0,16.0,-141.0,149,67,76,97,85
2025-02-25 18:27:28.377,-812.0,1313.0,96.0,89.0,19.0,-179.0,152,75,75,100,88
2025-02-25 18:27:28.382,-759.0,1384.0,118.0,100.0,20.0,-221.0,150,73,79,99,83
2025-02-25 18:27:28.386,-723.0,1476.0,101.0,124.0,20.0,-270.0,147,68,78,104,83
2025-02-25 18:27:28.390,-612.0,1485.0,127.0,146.0,15.0,-295.0,151,72,81,101,86
2025-02-25 18:27:28.398,-558.0,1430.0,166.0,158.0,9.0,-343.0,153,73,81,99,85
2025-02-25 18:27:28.402,-512.0,1442.0,173.0,182.0,3.0,-392.0,152,71,78,100,86
2025-02-25 18:27:28.406,-326.0,1437.0,215.0,210.0,-8.0,-419.0,154,72,81,100,84
2025-02-25 18:27:28.414,-126.0,1393.0,245.0,239.0,-19.0,-479.0,155,73,79,100,86
2025-02-25 18:27:28.418,-94.0,1386.0,232.0,246.0,-25.0,-539.0,152,70,76,98,84
2025-02-25 18:27:28.422,47.0,1356.0,186.0,247.0,-43.0,-570.0,153,68,76,98,83
2025-02-25 18:27:28.426,269.0,1254.0,134.0,226.0,-62.0,-620.0,155,69,78,101,85
2025-02-25 18:27:28.434,401.0,1128.0,-10.0,208.0,-92.0,-653.0,154,66,74,97,81
2025-02-25 18:27:28.438,355.0,996.0,-243.0,168.0,-114.0,-661.0,156,65,74,98,79
2025-02-25 18:27:28.443,250.0,687.0,-356.0,120.0,-179.0,-671.0,156,69,75,100,83
2025-02-25 18:27:28.447,455.0,414.0,-579.0,94.0,-247.0,-669.0,153,66,75,100,81
2025-02-25 18:27:28.455,553.0,6.0,-713.0,41.0,-279.0,-651.0,154,64,75,95,80
2025-02-25 18:27:28.459,823.0,-224.0,-740.0,-3.0,-332.0,-638.0,155,67,74,93,76
2025-02-25 18:27:28.463,1154.0,-924.0,-620.0,-18.0,-362.0,-605.0,155,66,75,96,80
2025-02-25 18:27:28.471,1387.0,-1857.0,-466.0,-40.0,-362.0,-562.0,155,63,75,93,79
2025-02-25 18:27:28.475,1959.0,-3179.0,-129.0,-30.0,-338.0,-484.0,154,63,72,92,78
2025-02-25 18:27:28.480,2368.0,-3898.0,365.0,10.0,-287.0,-432.0,157,62,74,93,80
2025-02-25 18:27:28.484,2742.0,-5171.0,775.0,55.0,-216.0,-323.0,159,64,78,93,83
2025-02-25 18:27:28.491,3089.0,-5898.0,1606.0,62.0,-112.0,-222.0,161,66,80,94,82
2025-02-25 18:27:28.496,3275.0,-6258.0,1671.0,96.0,-11.0,-112.0,163,67,82,92,85
2025-02-25 18:27:28.500,3128.0,-6170.0,1627.0,195.0,-11.0,-45.0,165,70,87,91,89
2025-02-25 18:27:28.508,2853.0,-5714.0,1237.0,264.0,125.0,-26.0,159,65,82,80,79
2025-02-25 18:27:28.513,2204.0,-5840.0,1004.0,316.0,233.0,5.0,166,71,89,86,82
2025-02-25 18:27:28.517,1748.0,-5292.0,574.0,321.0,192.0,69.0,168,70,89,88,84
2025-02-25 18:27:28.521,1179.0,-4868.0,442.0,280.0,165.0,141.0,164,68,89,84,79
2025-02-25 18:27:28.529,854.0,-4340.0,327.0,151.0,188.0,176.0,163,69,89,83,80
2025-02-25 18:27:28.533,851.0,-3916.0,626.0,-33.0,188.0,217.0,166,70,88,86,81
2025-02-25 18:27:28.537,670.0,-3090.0,548.0,-74.0,127.0,253.0,165,69,87,87,81
2025-02-25 18:27:28.542,701.0,-2856.0,714.0,-24.0,83.0,255.0,163,70,85,85,81
2025-02-25 18:27:28.549,771.0,-2557.0,881.0,-20.0,14.0,248.0,162,67,80,86,79
2025-02-25 18:27:28.554,1063.0,-2103.0,1084.0,-28.0,38.0,235.0,164,69,82,91,83
2025-02-25 18:27:28.558,895.0,-2179.0,1023.0,-31.0,71.0,246.0,167,70,80,92,86
2025-02-25 18:27:28.562,757.0,-2002.0,826.0,-62.0,81.0,270.0,164,69,77,93,82
2025-02-25 18:27:28.570,881.0,-2001.0,861.0,-78.0,57.0,267.0,162,66,73,91,81
2025-02-25 18:27:28.574,801.0,-1629.0,729.0,-128.0,54.0,286.0,164,69,77,95,84
2025-02-25 18:27:28.578,547.0,-1383.0,448.0,-144.0,100.0,299.0,167,74,82,96,85
2025-02-25 18:27:28.586,510.0,-1207.0,328.0,-149.0,112.0,302.0,162,69,74,93,82
2025-02-25 18:27:28.590,436.0,-1132.0,241.0,-155.0,92.0,299.0,162,67,75,92,78
2025-02-25 18:27:28.595,284.0,-784.0,197.0,-152.0,85.0,298.0,164,70,77,92,81
2025-02-25 18:27:28.599,86.0,-611.0,119.0,-142.0,80.0,302.0,166,68,78,94,83
2025-02-25 18:27:28.603,34.0,-350.0,15.0,-116.0,67.0,301.0,161,66,77,90,78
2025-02-25 18:27:28.610,26.0,-228.0,20.0,-80.0,30.0,300.0,163,70,78,91,83
2025-02-25 18:27:28.615,-54.0,-20.0,95.0,-79.0,24.0,293.0,162,68,80,89,78
2025-02-25 18:27:28.619,-109.0,212.0,-11.0,-95.0,33.0,290.0,160,66,76,88,78
2025-02-25 18:27:28.623,-198.0,298.0,-2.0,-100.0,32.0,287.0,163,67,79,90,79
2025-02-25 18:27:28.627,-258.0,524.0,7.0,-99.0,15.0,275.0,164,69,77,90,83
2025-02-25 18:27:28.635,-272.0,656.0,19.0,-101.0,12.0,259.0,160,64,77,89,77
2025-02-25 18:27:28.640,-385.0,757.0,37.0,-115.0,23.0,251.0,165,77,81,94,75
2025-02-25 18:27:28.644,-525.0,770.0,60.0,-125.0,33.0,235.0,161,65,77,91,79
2025-02-25 18:27:28.648,-490.0,783.0,41.0,-129.0,31.0,215.0,162,65,80,90,75
2025-02-25 18:27:28.652,-680.0,797.0,109.0,-107.0,22.0,203.0,161,67,76,91,78
2025-02-25 18:27:28.660,-709.0,830.0,145.0,-105.0,31.0,179.0,163,67,79,93,80
2025-02-25 18:27:28.664,-686.0,782.0,173.0,-99.0,37.0,155.0,159,63,74,91,77
2025-02-25 18:27:28.669,-831.0,716.0,133.0,-96.0,33.0,146.0,160,61,74,89,75
2025-02-25 18:27:28.672,-924.0,683.0,89.0,-85.0,25.0,131.0,161,67,74,91,78
2025-02-25 18:27:28.677,-990.0,613.0,8.0,-71.0,24.0,117.0,161,65,74,91,78
2025-02-25 18:27:28.685,-1044.0,634.0,41.0,-53.0,8.0,110.0,160,64,74,89,75
2025-02-25 18:27:28.689,-1095.0,648.0,35.0,-43.0,4.0,98.0,160,65,77,91,79
2025-02-25 18:27:28.693,-1153.0,636.0,79.0,-43.0,5.0,93.0,161,65,74,89,77
2025-02-25 18:27:28.696,-1181.0,725.0,21.0,-28.0,2.0,87.0,159,64,77,89,76
2025-02-25 18:27:28.701,-1160.0,752.0,53.0,-6.0,-15.0,74.0,162,65,79,91,77
2025-02-25 18:27:28.708,-1164.0,828.0,98.0,-6.0,-17.0,61.0,156,67,75,91,77
2025-02-25 18:27:28.713,-1176.0,791.0,89.0,0.0,-17.0,57.0,159,64,75,91,76
2025-02-25 18:27:28.717,-1178.0,779.0,92.0,1.0,-12.0,45.0,158,65,78,88,78
2025-02-25 18:27:28.721,-1118.0,739.0,138.0,13.0,-19.0,37.0,163,64,77,90,76
2025-02-25 18:27:28.726,-1078.0,813.0,174.0,8.0,-18.0,31.0,159,63,75,88,75
2025-02-25 18:27:28.730,-1040.0,778.0,157.0,9.0,-6.0,21.0,162,65,76,92,79
2025-02-25 18:27:28.737,-1019.0,699.0,280.0,6.0,8.0,10.0,164,66,76,90,77
2025-02-25 18:27:28.741,-962.0,713.0,221.0,12.0,8.0,3.0,161,65,76,91,77
2025-02-25 18:27:28.746,-933.0,694.0,222.0,26.0,13.0,-19.0,161,66,75,92,78
2025-02-25 18:27:28.750,-911.0,751.0,259.0,31.0,27.0,-45.0,160,64,75,92,77
2025-02-25 18:27:28.754,-881.0,797.0,258.0,41.0,31.0,-80.0,159,64,74,90,76
2025-02-25 18:27:28.762,-767.0,779.0,257.0,63.0,33.0,-99.0,162,67,78,91,78
2025-02-25 18:27:28.766,-741.0,754.0,231.0,72.0,35.0,-136.0,160,65,75,90,77
2025-02-25 18:27:28.771,-721.0,763.0,153.0,75.0,42.0,-164.0,158,64,75,90,76
2025-02-25 18:27:28.775,-758.0,803.0,88.0,67.0,54.0,-175.0,163,66,74,91,79
2025-02-25 18:27:28.779,-698.0,792.0,85.0,65.0,48.0,-194.0,161,66,76,91,78
2025-02-25 18:27:28.787,-691.0,767.0,31.0,61.0,40.0,-212.0,160,64,75,91,75
2025-02-25 18:27:28.791,-631.0,741.0,23.0,58.0,29.0,-222.0,162,64,75,91,79
2025-02-25 18:27:28.795,-565.0,690.0,19.0,53.0,22.0,-243.0,163,68,77,92,79
2025-02-25 18:27:28.799,-506.0,640.0,18.0,51.0,18.0,-266.0,161,65,77,94,79
2025-02-25 18:27:28.803,-394.0,604.0,2.0,48.0,10.0,-278.0,160,66,76,91,78
2025-02-25 18:27:28.808,-343.0,533.0,9.0,44.0,2.0,-303.0,163,68,76,93,79
2025-02-25 18:27:28.816,-295.0,469.0,14.0,39.0,1.0,-333.0,161,64,75,92,78
2025-02-25 18:27:28.819,-175.0,443.0,32.0,32.0,2.0,-349.0,161,66,75,90,77
2025-02-25 18:27:28.824,12.0,330.0,44.0,25.0,-2.0,-381.0,162,69,77,95,84
2025-02-25 18:27:28.828,82.0,242.0,37.0,22.0,-7.0,-415.0,162,67,74,92,78
2025-02-25 18:27:28.832,282.0,175.0,27.0,23.0,-25.0,-432.0,161,64,76,92,78
2025-02-25 18:27:28.836,490.0,45.0,41.0,18.0,-42.0,-464.0,163,67,78,94,81
2025-02-25 18:27:28.844,640.0,-269.0,-19.0,13.0,-49.0,-490.0,161,65,76,94,79
2025-02-25 18:27:28.848,719.0,-489.0,-103.0,-1.0,-62.0,-494.0,161,67,74,91,78
2025-02-25 18:27:28.852,717.0,-1140.0,-142.0,-8.0,-84.0,-480.0,162,68,79,96,81
2025-02-25 18:27:28.861,674.0,-1879.0,-230.0,-9.0,-106.0,-438.0,162,65,72,95,82
2025-02-25 18:27:28.865,698.0,-2617.0,-180.0,6.0,-102.0,-414.0,160,65,78,92,79
2025-02-25 18:27:28.869,946.0,-2906.0,237.0,17.0,-102.0,-337.0,163,66,79,93,80
2025-02-25 18:27:28.873,786.0,-3697.0,25.0,43.0,-77.0,-254.0,161,66,78,92,81
2025-02-25 18:27:28.881,1026.0,-3754.0,394.0,57.0,-52.0,-205.0,160,65,79,90,82
2025-02-25 18:27:28.885,1377.0,-4063.0,589.0,100.0,-17.0,-185.0,162,68,78,90,81
2025-02-25 18:27:28.890,1622.0,-4121.0,576.0,103.0,12.0,-144.0,161,68,81,89,82
2025-02-25 18:27:28.894,1606.0,-4478.0,643.0,117.0,23.0,-102.0,161,65,79,89,81
2025-02-25 18:27:28.902,1494.0,-4532.0,553.0,135.0,19.0,-80.0,161,66,82,92,84
2025-02-25 18:27:28.906,1188.0,-4588.0,519.0,131.0,37.0,-30.0,163,65,81,90,83
2025-02-25 18:27:28.910,1181.0,-4611.0,400.0,122.0,59.0,12.0,160,65,80,88,82
2025-02-25 18:27:28.914,1015.0,-4510.0,365.0,119.0,77.0,33.0,162,67,81,89,82
2025-02-25 18:27:28.922,924.0,-4407.0,313.0,119.0,52.0,76.0,164,68,83,94,85
2025-02-25 18:27:28.926,830.0,-4073.0,315.0,109.0,45.0,119.0,161,66,79,90,82
2025-02-25 18:27:28.931,718.0,-3914.0,356.0,66.0,48.0,139.0,160,63,73,91,84
2025-02-25 18:27:28.934,799.0,-3514.0,423.0,4.0,47.0,178.0,164,69,80,92,84
2025-02-25 18:27:28.939,795.0,-3052.0,513.0,-29.0,38.0,212.0,162,68,77,94,84
2025-02-25 18:27:28.946,827.0,-2692.0,531.0,-66.0,37.0,221.0,162,66,76,94,83
2025-02-25 18:27:28.951,853.0,-2496.0,539.0,-95.0,38.0,237.0,162,67,78,96,86
2025-02-25 18:27:28.955,924.0,-2163.0,543.0,-109.0,64.0,244.0,160,68,80,94,83
2025-02-25 18:27:28.959,903.0,-1873.0,461.0,-139.0,76.0,251.0,161,67,76,94,82
2025-02-25 18:27:28.967,750.0,-1798.0,456.0,-157.0,82.0,258.0,164,70,78,94,86
2025-02-25 18:27:28.971,685.0,-1648.0,412.0,-173.0,77.0,269.0,165,71,78,94,85
2025-02-25 18:27:28.975,568.0,-1450.0,262.0,-188.0,69.0,281.0,162,69,78,94,84
2025-02-25 18:27:28.980,484.0,-1376.0,222.0,-190.0,47.0,284.0,164,68,78,92,84
2025-02-25 18:27:28.987,371.0,-1214.0,124.0,-178.0,30.0,295.0,165,69,80,95,85
2025-02-25 18:27:28.991,221.0,-1067.0,22.0,-158.0,8.0,305.0,163,69,80,93,84
2025-02-25 18:27:28.996,160.0,-896.0,83.0,-131.0,0.0,312.0,161,68,78,92,83
2025-02-25 18:27:29.000,167.0,-817.0,40.0,-112.0,-10.0,315.0,164,70,82,95,84
2025-02-25 18:27:29.007,118.0,-693.0,64.0,-95.0,-23.0,319.0,163,69,82,93,84
2025-02-25 18:27:29.012,109.0,-573.0,79.0,-91.0,-23.0,317.0,162,68,80,90,83
2025-02-25 18:27:29.016,116.0,-472.0,52.0,-83.0,-13.0,318.0,159,68,81,92,83
2025-02-25 18:27:29.021,106.0,-406.0,151.0,-81.0,-1.0,316.0,164,71,84,94,85
2025-02-25 18:27:29.025,45.0,-294.0,161.0,-81.0,10.0,317.0,160,68,81,92,84
2025-02-25 18:27:29.032,104.0,-209.0,190.0,-85.0,20.0,317.0,161,68,81,91,83
2025-02-25 18:27:29.036,-7.0,-191.0,183.0,-94.0,35.0,320.0,162,70,85,96,87
2025-02-25 18:27:29.041,-29.0,-57.0,187.0,-96.0,48.0,323.0,162,69,83,94,85
2025-02-25 18:27:29.045,-86.0,19.0,149.0,-86.0,50.0,323.0,163,69,81,93,84
2025-02-25 18:27:29.049,-219.0,61.0,157.0,-81.0,56.0,321.0,164,69,84,94,86
2025-02-25 18:27:29.057,-324.0,213.0,66.0,-74.0,61.0,314.0,163,71,83,97,85
2025-02-25 18:27:29.061,-426.0,418.0,-21.0,-55.0,57.0,303.0,161,70,82,96,85
2025-02-25 18:27:29.065,-555.0,436.0,23.0,-29.0,41.0,295.0,164,71,83,98,86
2025-02-25 18:27:29.069,-641.0,596.0,24.0,-15.0,29.0,274.0,161,71,83,96,85
2025-02-25 18:27:29.073,-706.0,716.0,11.0,11.0,25.0,250.0,161,69,81,97,84
2025-02-25 18:27:29.082,-847.0,785.0,8.0,50.0,26.0,238.0,164,73,83,99,86
2025-02-25 18:27:29.086,-909.0,848.0,-82.0,64.0,22.0,216.0,162,70,82,100,86
2025-02-25 18:27:29.090,-876.0,875.0,-88.0,84.0,19.0,191.0,159,72,79,97,84
2025-02-25 18:27:29.094,-885.0,886.0,-113.0,84.0,20.0,180.0,162,73,83,102,87
2025-02-25 18:27:29.099,-903.0,933.0,-79.0,88.0,22.0,157.0,163,74,83,104,90
2025-02-25 18:27:29.106,-940.0,910.0,-78.0,91.0,23.0,143.0,159,71,81,100,85
2025-02-25 18:27:29.110,-1048.0,922.0,41.0,92.0,25.0,141.0,162,76,82,103,90
2025-02-25 18:27:29.114,-1081.0,954.0,3.0,87.0,36.0,132.0,162,75,82,106,85
2025-02-25 18:27:29.119,-1006.0,947.0,45.0,89.0,45.0,115.0,160,74,81,105,89
2025-02-25 18:27:29.123,-885.0,999.0,-34.0,94.0,56.0,108.0,159,75,80,105,90
2025-02-25 18:27:29.130,-871.0,1055.0,-83.0,96.0,58.0,89.0,161,77,82,110,91
2025-02-25 18:27:29.135,-904.0,989.0,-86.0,103.0,54.0,70.0,159,75,81,109,91
2025-02-25 18:27:29.139,-982.0,1034.0,-114.0,108.0,50.0,62.0,160,77,84,111,92
2025-02-25 18:27:29.143,-1038.0,1045.0,-154.0,107.0,40.0,40.0,161,77,85,112,93
2025-02-25 18:27:29.151,-1106.0,1091.0,-156.0,107.0,29.0,15.0,158,78,83,112,94
2025-02-25 18:27:29.155,-1117.0,1145.0,-232.0,109.0,22.0,0.0,159,79,84,113,96
2025-02-25 18:27:29.160,-1101.0,1145.0,-263.0,103.0,4.0,-33.0,163,81,87,117,99
2025-02-25 18:27:29.168,-1047.0,1266.0,-271.0,109.0,-16.0,-68.0,162,81,87,115,100
2025-02-25 18:27:29.171,-1062.0,1299.0,-326.0,106.0,-32.0,-100.0,161,79,90,123,101
2025-02-25 18:27:29.176,-1053.0,1236.0,-347.0,90.0,-39.0,-131.0,159,81,90,119,102
2025-02-25 18:27:29.184,-1028.0,1192.0,-358.0,80.0,-53.0,-161.0,160,81,91,120,103
2025-02-25 18:27:29.188,-922.0,1133.0,-344.0,75.0,-63.0,-174.0,160,84,90,119,104
2025-02-25 18:27:29.193,-812.0,1054.0,-285.0,74.0,-76.0,-200.0,160,86,96,121,108
2025-02-25 18:27:29.200,-721.0,1030.0,-286.0,76.0,-89.0,-229.0,165,91,100,121,114
2025-02-25 18:27:29.205,-600.0,932.0,-194.0,78.0,-95.0,-258.0,161,92,100,124,111
2025-02-25 18:27:29.209,-488.0,868.0,-151.0,79.0,-99.0,-285.0,159,93,100,125,113
2025-02-25 18:27:29.214,-449.0,715.0,-94.0,78.0,-98.0,-312.0,160,97,103,124,114
2025-02-25 18:27:29.221,-394.0,662.0,-184.0,73.0,-101.0,-325.0,161,100,104,125,116
2025-02-25 18:27:29.226,-307.0,535.0,-227.0,62.0,-106.0,-349.0,163,109,110,125,118
2025-02-25 18:27:29.233,-322.0,426.0,-247.0,59.0,-115.0,-373.0,164,110,112,124,118
2025-02-25 18:27:29.237,-385.0,302.0,-329.0,62.0,-128.0,-394.0,162,112,111,124,118
2025-02-25 18:27:29.242,-333.0,165.0,-271.0,65.0,-136.0,-404.0,163,117,113,125,120
2025-02-25 18:27:29.250,-324.0,172.0,-452.0,62.0,-157.0,-435.0,163,117,113,124,120
2025-02-25 18:27:29.254,-355.0,22.0,-721.0,83.0,-186.0,-457.0,163,119,112,124,119
2025-02-25 18:27:29.259,-382.0,-91.0,-967.0,88.0,-213.0,-514.0,163,121,115,127,123
2025-02-25 18:27:29.266,-378.0,279.0,-681.0,84.0,-227.0,-542.0,162,122,114,126,120
2025-02-25 18:27:29.271,628.0,-258.0,-553.0,96.0,-272.0,-541.0,162,121,111,126,120
2025-02-25 18:27:29.275,1213.0,-690.0,400.0,41.0,-295.0,-558.0,163,124,114,129,124
2025-02-25 18:27:29.282,1360.0,-960.0,841.0,25.0,-248.0,-579.0,163,125,115,130,125
2025-02-25 18:27:29.287,1442.0,-1361.0,1151.0,54.0,-232.0,-576.0,163,126,113,130,126
2025-02-25 18:27:29.295,1565.0,-1582.0,1105.0,66.0,-268.0,-542.0,164,128,115,129,125
2025-02-25 18:27:29.299,1653.0,-1502.0,892.0,82.0,-324.0,-500.0,164,132,118,133,134
2025-02-25 18:27:29.304,1662.0,-1874.0,426.0,120.0,-372.0,-457.0,164,131,118,130,127
2025-02-25 18:27:29.311,1582.0,-2524.0,163.0,86.0,-347.0,-394.0,164,133,115,130,129
2025-02-25 18:27:29.315,1436.0,-3024.0,238.0,2.0,-276.0,-313.0,162,132,113,127,127
2025-02-25 18:27:29.323,1379.0,-3188.0,372.0,-56.0,-249.0,-239.0,164,134,118,130,130
2025-02-25 18:27:29.327,1355.0,-3327.0,804.0,-72.0,-208.0,-166.0,162,133,116,128,126
2025-02-25 18:27:29.332,1674.0,-3521.0,1150.0,-79.0,-148.0,-112.0,162,134,116,129,130
2025-02-25 18:27:29.340,1875.0,-3809.0,1052.0,-100.0,-103.0,-62.0,164,135,119,129,130
2025-02-25 18:27:29.344,1811.0,-3899.0,497.0,-141.0,-104.0,-45.0,163,138,117,132,131
2025-02-25 18:27:29.351,1722.0,-3913.0,797.0,-158.0,-112.0,-1.0,163,136,116,130,131
2025-02-25 18:27:29.356,1459.0,-3931.0,584.0,-148.0,-91.0,43.0,162,135,117,129,132
2025-02-25 18:27:29.360,1740.0,-3755.0,1292.0,-76.0,25.0,73.0,166,139,119,132,134
2025-02-25 18:27:29.368,1764.0,-3334.0,1308.0,19.0,93.0,87.0,163,136,118,132,134
2025-02-25 18:27:29.372,1602.0,-3327.0,1058.0,21.0,107.0,111.0,164,136,117,131,133
2025-02-25 18:27:29.376,1228.0,-2821.0,800.0,59.0,77.0,130.0,164,137,119,133,133
2025-02-25 18:27:29.385,1181.0,-2581.0,826.0,51.0,75.0,159.0,168,136,117,130,132
2025-02-25 18:27:29.389,1071.0,-2219.0,340.0,-32.0,62.0,189.0,161,136,115,128,132
2025-02-25 18:27:29.394,926.0,-2060.0,282.0,-64.0,49.0,199.0,165,136,116,130,130
2025-02-25 18:27:29.401,793.0,-1632.0,518.0,-46.0,85.0,230.0,167,139,119,134,136
2025-02-25 18:27:29.406,712.0,-1703.0,631.0,-55.0,96.0,257.0,166,140,118,133,134
2025-02-25 18:27:29.410,728.0,-1540.0,682.0,-55.0,112.0,272.0,165,137,117,131,133
2025-02-25 18:27:29.417,578.0,-1304.0,507.0,-34.0,104.0,280.0,163,137,117,131,132
2025-02-25 18:27:29.421,524.0,-1291.0,446.0,-37.0,90.0,288.0,165,136,118,131,133
2025-02-25 18:27:29.426,473.0,-1184.0,293.0,-55.0,64.0,287.0,162,135,115,129,132
2025-02-25 18:27:29.430,384.0,-998.0,338.0,-44.0,64.0,290.0,164,138,121,132,134
2025-02-25 18:27:29.438,227.0,-853.0,209.0,-40.0,44.0,296.0,164,138,118,130,134
2025-02-25 18:27:29.442,139.0,-734.0,300.0,-24.0,42.0,295.0,166,139,119,132,134
2025-02-25 18:27:29.446,161.0,-588.0,353.0,34.0,43.0,291.0,163,136,119,130,132
2025-02-25 18:27:29.454,108.0,-560.0,479.0,85.0,64.0,291.0,162,136,118,130,131
2025-02-25 18:27:29.459,45.0,-622.0,539.0,127.0,98.0,298.0,167,141,122,139,135
2025-02-25 18:27:29.463,-34.0,-513.0,245.0,146.0,110.0,298.0,165,139,122,134,135
2025-02-25 18:27:29.471,-134.0,-377.0,242.0,164.0,105.0,283.0,161,140,120,133,134
2025-02-25 18:27:29.475,-117.0,-225.0,-395.0,106.0,82.0,262.0,161,136,120,131,133
2025-02-25 18:27:29.479,-147.0,-314.0,-28.0,67.0,84.0,255.0,163,137,120,133,134
2025-02-25 18:27:29.484,-257.0,-278.0,-62.0,19.0,96.0,248.0,164,137,122,134,135
2025-02-25 18:27:29.491,-272.0,-211.0,65.0,8.0,100.0,243.0,164,139,121,132,131
2025-02-25 18:27:29.496,-354.0,-201.0,324.0,2.0,112.0,243.0,163,137,122,132,133
2025-02-25 18:27:29.500,-459.0,-70.0,560.0,-15.0,129.0,237.0,162,137,122,132,133
2025-02-25 18:27:29.508,-496.0,61.0,320.0,-17.0,146.0,231.0,162,136,121,132,132
2025-02-25 18:27:29.512,-591.0,99.0,295.0,-20.0,148.0,226.0,162,135,120,131,134
2025-02-25 18:27:29.516,-616.0,253.0,145.0,-32.0,128.0,210.0,164,138,124,134,135
2025-02-25 18:27:29.524,-680.0,437.0,-167.0,-55.0,91.0,196.0,163,139,123,135,135
2025-02-25 18:27:29.528,-816.0,574.0,-98.0,-57.0,76.0,184.0,163,137,127,136,136
2025-02-25 18:27:29.532,-885.0,652.0,-140.0,-33.0,72.0,175.0,160,136,123,133,135
2025-02-25 18:27:29.540,-945.0,623.0,-64.0,-15.0,69.0,173.0,163,139,124,136,135
2025-02-25 18:27:29.545,-995.0,627.0,19.0,12.0,75.0,169.0,163,140,126,135,135
2025-02-25 18:27:29.548,-1072.0,656.0,52.0,32.0,79.0,154.0,163,139,125,137,135
2025-02-25 18:27:29.554,-972.0,682.0,73.0,39.0,74.0,124.0,161,135,123,134,135
2025-02-25 18:27:29.560,-945.0,705.0,86.0,43.0,70.0,89.0,160,136,123,133,134
2025-02-25 18:27:29.565,-996.0,733.0,40.0,45.0,51.0,71.0,162,139,124,135,135
2025-02-25 18:27:29.569,-1055.0,775.0,35.0,46.0,34.0,34.0,162,138,125,136,135
2025-02-25 18:27:29.573,-1089.0,825.0,-50.0,41.0,25.0,-1.0,158,134,122,134,134
2025-02-25 18:27:29.581,-1105.0,883.0,-58.0,37.0,13.0,-17.0,161,137,124,135,135
2025-02-25 18:27:29.585,-1090.0,916.0,-76.0,35.0,4.0,-47.0,163,138,124,135,136
2025-02-25 18:27:29.590,-1041.0,961.0,-92.0,37.0,-3.0,-71.0,161,137,126,135,135
2025-02-25 18:27:29.594,-1039.0,949.0,-32.0,37.0,-2.0,-95.0,163,138,125,135,134
2025-02-25 18:27:29.602,-1032.0,881.0,-58.0,36.0,-3.0,-114.0,164,136,121,135,135
2025-02-25 18:27:29.606,-1027.0,780.0,-9.0,34.0,0.0,-123.0,161,136,122,134,133
2025-02-25 18:27:29.610,-965.0,732.0,-14.0,35.0,1.0,-140.0,163,138,124,135,135
2025-02-25 18:27:29.618,-882.0,686.0,15.0,45.0,-1.0,-157.0,163,137,124,136,135
2025-02-25 18:27:29.622,-823.0,514.0,20.0,50.0,-8.0,-175.0,162,137,124,136,136
2025-02-25 18:27:29.627,-789.0,433.0,69.0,63.0,-11.0,-191.0,163,135,123,134,134
2025-02-25 18:27:29.631,-676.0,374.0,56.0,75.0,-19.0,-200.0,159,135,121,133,133
2025-02-25 18:27:29.639,-585.0,325.0,106.0,86.0,-27.0,-218.0,165,141,127,138,138
2025-02-25 18:27:29.644,-524.0,247.0,119.0,94.0,-32.0,-235.0,163,135,124,136,136
2025-02-25 18:27:29.647,-450.0,195.0,147.0,101.0,-38.0,-252.0,163,137,122,135,135
2025-02-25 18:27:29.655,-363.0,172.0,198.0,111.0,-40.0,-270.0,161,135,121,135,134
2025-02-25 18:27:29.659,-325.0,134.0,187.0,119.0,-43.0,-286.0,163,135,121,135,133
2025-02-25 18:27:29.664,-281.0,111.0,151.0,122.0,-54.0,-294.0,161,136,121,134,134
2025-02-25 18:27:29.671,-180.0,69.0,133.0,125.0,-66.0,-310.0,163,135,120,137,135
2025-02-25 18:27:29.676,-60.0,-3.0,63.0,118.0,-82.0,-323.0,161,136,122,136,135
2025-02-25 18:27:29.680,61.0,-79.0,41.0,110.0,-101.0,-339.0,163,137,122,136,135
2025-02-25 18:27:29.688,183.0,-212.0,77.0,100.0,-108.0,-347.0,161,134,122,137,134
2025-02-25 18:27:29.693,253.0,-399.0,82.0,71.0,-116.0,-355.0,162,136,121,134,134
2025-02-25 18:27:29.697,411.0,-518.0,68.0,47.0,-124.0,-360.0,161,135,121,133,132
2025-02-25 18:27:29.704,595.0,-863.0,82.0,24.0,-137.0,-364.0,165,137,122,136,134
2025-02-25 18:27:29.709,748.0,-1225.0,125.0,0.0,-155.0,-360.0,163,135,122,136,134
2025-02-25 18:27:29.713,827.0,-1596.0,316.0,-11.0,-162.0,-349.0,163,135,120,134,135
2025-02-25 18:27:29.721,855.0,-1943.0,391.0,-30.0,-172.0,-334.0,164,136,122,135,135
2025-02-25 18:27:29.725,936.0,-2268.0,396.0,-58.0,-190.0,-314.0,162,134,120,134,134
2025-02-25 18:27:29.733,1047.0,-2588.0,504.0,-88.0,-196.0,-288.0,163,133,118,134,132
2025-02-25 18:27:29.737,1085.0,-2853.0,566.0,-106.0,-209.0,-262.0,163,132,118,133,133
2025-02-25 18:27:29.741,1163.0,-3095.0,533.0,-131.0,-203.0,-232.0,163,130,118,134,133
2025-02-25 18:27:29.749,1113.0,-3161.0,-201.0,-162.0,-215.0,-205.0,164,131,116,132,133
2025-02-25 18:27:29.754,1105.0,-3230.0,437.0,-95.0,-280.0,-169.0,161,130,115,132,134
2025-02-25 18:27:29.761,1400.0,-3335.0,1721.0,43.0,-137.0,-133.0,164,130,113,134,134
2025-02-25 18:27:29.766,1587.0,-3545.0,1177.0,90.0,-15.0,-76.0,163,129,112,132,135
2025-02-25 18:27:29.770,1423.0,-3648.0,402.0,94.0,-41.0,-48.0,162,129,111,130,133
2025-02-25 18:27:29.778,1359.0,-3565.0,1133.0,84.0,-65.0,2.0,166,131,112,135,136
2025-02-25 18:27:29.782,1333.0,-3366.0,1223.0,-59.0,-6.0,54.0,166,131,112,134,137
2025-02-25 18:27:29.786,1398.0,-3055.0,404.0,-115.0,-11.0,103.0,157,130,113,133,135
2025-02-25 18:27:29.794,1374.0,-2709.0,547.0,-108.0,36.0,135.0,166,131,113,135,136
2025-02-25 18:27:29.799,1244.0,-2670.0,1300.0,-67.0,129.0,166.0,165,130,114,135,136
2025-02-25 18:27:29.803,1255.0,-2515.0,969.0,-38.0,147.0,191.0,164,129,114,133,135
2025-02-25 18:27:29.811,1124.0,-2321.0,536.0,-23.0,126.0,208.0,163,129,113,133,134
2025-02-25 18:27:29.815,844.0,-2199.0,503.0,-56.0,96.0,218.0,166,128,114,132,135
2025-02-25 18:27:29.820,823.0,-1936.0,336.0,-92.0,83.0,231.0,167,132,116,135,137
2025-02-25 18:27:29.827,840.0,-1792.0,338.0,-99.0,81.0,243.0,166,133,118,135,135
2025-02-25 18:27:29.832,729.0,-1698.0,529.0,-82.0,97.0,251.0,163,130,117,135,136
2025-02-25 18:27:29.836,770.0,-1561.0,376.0,-63.0,102.0,255.0,164,132,118,136,135
2025-02-25 18:27:29.843,776.0,-1460.0,311.0,-70.0,100.0,260.0,163,130,117,135,133
2025-02-25 18:27:29.848,618.0,-1347.0,270.0,-65.0,99.0,264.0,164,127,118,134,133
2025-02-25 18:27:29.852,468.0,-1277.0,281.0,-61.0,90.0,266.0,164,128,116,133,133
2025-02-25 18:27:29.860,480.0,-1125.0,332.0,-60.0,97.0,269.0,165,127,119,136,135
2025-02-25 18:27:29.864,422.0,-1015.0,136.0,-57.0,92.0,273.0,164,126,117,135,134
2025-02-25 18:27:29.868,303.0,-846.0,61.0,-52.0,65.0,275.0,166,124,117,133,132
2025-02-25 18:27:29.876,231.0,-758.0,81.0,-47.0,52.0,279.0,162,120,116,133,131
2025-02-25 18:27:29.881,161.0,-738.0,153.0,-45.0,44.0,281.0,164,119,115,132,129
2025-02-25 18:27:29.885,83.0,-624.0,177.0,-60.0,40.0,285.0,164,118,116,138,130
2025-02-25 18:27:29.889,34.0,-531.0,198.0,-63.0,41.0,286.0,165,115,115,136,132
2025-02-25 18:27:29.897,-15.0,-481.0,211.0,-66.0,48.0,287.0,163,111,113,133,129
2025-02-25 18:27:29.901,-17.0,-461.0,200.0,-86.0,55.0,289.0,162,108,113,135,129
2025-02-25 18:27:29.905,-93.0,-438.0,89.0,-109.0,62.0,290.0,166,108,112,129,128
2025-02-25 18:27:29.913,-170.0,-363.0,45.0,-135.0,58.0,288.0,164,106,114,136,127
2025-02-25 18:27:29.917,-199.0,-292.0,32.0,-145.0,55.0,285.0,166,106,118,136,127
2025-02-25 18:27:29.922,-252.0,-237.0,82.0,-147.0,60.0,280.0,164,102,114,135,126
2025-02-25 18:27:29.930,-264.0,-137.0,77.0,-157.0,60.0,274.0,162,102,110,132,122
2025-02-25 18:27:29.934,-330.0,-78.0,-28.0,-158.0,60.0,271.0,163,98,107,131,122
2025-02-25 18:27:29.938,-452.0,5.0,-3.0,-132.0,47.0,259.0,165,99,111,133,126
2025-02-25 18:27:29.943,-518.0,179.0,58.0,-96.0,35.0,246.0,165,96,108,130,122
2025-02-25 18:27:29.950,-549.0,336.0,26.0,-75.0,22.0,228.0,163,94,106,127,117
2025-02-25 18:27:29.955,-592.0,457.0,59.0,-34.0,15.0,209.0,161,90,106,125,117
2025-02-25 18:27:29.959,-729.0,502.0,182.0,2.0,10.0,198.0,164,93,109,126,119
2025-02-25 18:27:29.963,-611.0,1207.0,1205.0,3.0,27.0,183.0,163,89,106,126,117
2025-02-25 18:27:29.971,-974.0,522.0,-100.0,28.0,7.0,158.0,163,85,101,123,113
2025-02-25 18:27:29.975,-913.0,696.0,-37.0,32.0,1.0,147.0,162,83,101,122,113
2025-02-25 18:27:29.979,-929.0,650.0,162.0,11.0,22.0,134.0,165,84,103,124,113
2025-02-25 18:27:29.983,-1021.0,705.0,-62.0,8.0,26.0,117.0,165,81,99,122,111
2025-02-25 18:27:29.991,-1053.0,751.0,60.0,2.0,33.0,101.0,163,78,99,120,108
2025-02-25 18:27:29.995,-1174.0,680.0,125.0,-16.0,50.0,96.0,165,78,100,122,106
2025-02-25 18:27:30.000,-1136.0,802.0,136.0,-29.0,59.0,79.0,164,78,99,122,106
2025-02-25 18:27:30.004,-1121.0,903.0,72.0,-27.0,69.0,59.0,163,75,96,123,103
2025-02-25 18:27:30.012,-1147.0,917.0,143.0,-14.0,76.0,42.0,161,72,92,118,98
2025-02-25 18:27:30.016,-1141.0,902.0,113.0,7.0,83.0,36.0,163,72,93,121,99
2025-02-25 18:27:30.020,-1093.0,836.0,104.0,22.0,83.0,19.0,162,73,93,124,98
2025-02-25 18:27:30.024,-1096.0,828.0,64.0,47.0,78.0,-3.0,161,70,88,118,94
2025-02-25 18:27:30.028,-1100.0,903.0,158.0,84.0,82.0,-13.0,163,71,88,121,94
2025-02-25 18:27:30.036,-1112.0,835.0,768.0,78.0,136.0,-27.0,163,68,87,121,92
2025-02-25 18:27:30.040,-1031.0,709.0,226.0,68.0,132.0,-45.0,162,65,84,121,89
2025-02-25 18:27:30.044,-961.0,788.0,86.0,86.0,123.0,-74.0,162,66,82,121,89
2025-02-25 18:27:30.049,-918.0,963.0,222.0,79.0,113.0,-90.0,163,67,82,122,87
2025-02-25 18:27:30.056,-919.0,735.0,19.0,86.0,92.0,-116.0,163,66,83,121,88
2025-02-25 18:27:30.061,-963.0,726.0,-178.0,114.0,80.0,-146.0,161,63,79,119,86
2025-02-25 18:27:30.065,-1034.0,805.0,-336.0,127.0,55.0,-162.0,160,63,77,116,85
2025-02-25 18:27:30.072,-1041.0,840.0,-449.0,127.0,24.0,-185.0,163,63,77,115,89
2025-02-25 18:27:30.077,-870.0,721.0,-297.0,137.0,19.0,-198.0,163,62,77,113,86
2025-02-25 18:27:30.082,-647.0,692.0,-146.0,146.0,11.0,-226.0,160,61,75,107,83
2025-02-25 18:27:30.086,-247.0,756.0,-857.0,140.0,-23.0,-257.0,161,61,69,101,80
2025-02-25 18:27:30.094,-515.0,759.0,-550.0,162.0,-53.0,-283.0,161,61,75,100,81
2025-02-25 18:27:30.098,-932.0,419.0,-506.0,153.0,-59.0,-323.0,164,64,79,97,81
2025-02-25 18:27:30.102,-868.0,558.0,-491.0,148.0,-78.0,-351.0,163,61,76,94,80
2025-02-25 18:27:30.110,-863.0,583.0,-390.0,145.0,-97.0,-374.0,160,61,74,91,77
2025-02-25 18:27:30.114,-553.0,549.0,-483.0,133.0,-154.0,-389.0,161,62,75,90,77
2025-02-25 18:27:30.118,-269.0,632.0,-409.0,111.0,-211.0,-416.0,165,67,76,91,79
2025-02-25 18:27:30.122,-33.0,474.0,-373.0,84.0,-239.0,-439.0,163,64,76,89,78
2025-02-25 18:27:30.130,328.0,350.0,-297.0,70.0,-267.0,-464.0,164,65,74,87,76
2025-02-25 18:27:30.134,487.0,71.0,-286.0,31.0,-285.0,-473.0,161,64,73,86,77
2025-02-25 18:27:30.139,725.0,-150.0,-193.0,-5.0,-316.0,-471.0,165,65,75,88,79
2025-02-25 18:27:30.143,963.0,-567.0,-66.0,-47.0,-325.0,-456.0,165,65,76,87,77
2025-02-25 18:27:30.150,1138.0,-1081.0,102.0,-70.0,-299.0,-415.0,164,64,75,88,78
2025-02-25 18:27:30.155,1209.0,-1646.0,255.0,-106.0,-279.0,-369.0,164,64,74,85,79
2025-02-25 18:27:30.159,1361.0,-2296.0,520.0,-116.0,-233.0,-323.0,162,62,75,87,78
2025-02-25 18:27:30.167,1585.0,-2631.0,763.0,-99.0,-179.0,-299.0,163,63,76,85,78
2025-02-25 18:27:30.171,1771.0,-3238.0,883.0,-58.0,-125.0,-240.0,163,64,76,87,80
2025-02-25 18:27:30.175,1893.0,-3644.0,1120.0,-10.0,-58.0,-177.0,164,64,80,87,80
2025-02-25 18:27:30.184,1935.0,-3912.0,1172.0,8.0,57.0,-122.0,165,65,77,86,79
2025-02-25 18:27:30.188,1913.0,-4037.0,931.0,91.0,47.0,-70.0,162,60,77,81,82
2025-02-25 18:27:30.192,1873.0,-4590.0,796.0,201.0,41.0,-54.0,166,66,80,86,81
2025-02-25 18:27:30.197,1537.0,-4016.0,728.0,246.0,108.0,-37.0,168,68,86,81,83
2025-02-25 18:27:30.204,1441.0,-4210.0,572.0,251.0,126.0,-3.0,164,65,83,83,81
