timestamp,ax,ay,az,gx,gy,gz,flex1,flex2,flex3,flex4,flex5,emg1,emg2,emg3
2025-02-25 18:20:27.910,-325.0,-899.0,338.0,-12.0,6.0,2.0,193,165,156,170,172
2025-02-25 18:20:27.911,-321.0,-912.0,334.0,-14.0,5.0,2.0,187,157,148,162,163
2025-02-25 18:20:27.914,-328.0,-913.0,333.0,-16.0,4.0,3.0,188,159,148,162,164
2025-02-25 18:20:27.916,-327.0,-929.0,343.0,-16.0,3.0,3.0,192,162,153,167,169
2025-02-25 18:20:27.918,-329.0,-944.0,336.0,-17.0,3.0,4.0,190,161,150,165,169
2025-02-25 18:20:27.920,-332.0,-952.0,336.0,-16.0,2.0,4.0,186,157,145,160,162
2025-02-25 18:20:27.922,-320.0,-963.0,340.0,-17.0,1.0,5.0,191,162,152,166,169
2025-02-25 18:20:27.925,-328.0,-962.0,327.0,-17.0,0.0,5.0,188,158,147,162,164
2025-02-25 18:20:27.927,-330.0,-968.0,324.0,-17.0,-1.0,5.0,188,160,149,164,166
2025-02-25 18:20:27.929,-330.0,-969.0,323.0,-16.0,-2.0,5.0,192,164,154,168,168
2025-02-25 18:20:27.933,-331.0,-964.0,319.0,-16.0,-2.0,5.0,189,161,149,165,168
2025-02-25 18:20:27.935,-328.0,-958.0,304.0,-14.0,-1.0,6.0,185,159,146,163,165
2025-02-25 18:20:27.938,-327.0,-947.0,301.0,-13.0,-1.0,7.0,194,168,156,171,173
2025-02-25 18:20:27.940,-331.0,-937.0,300.0,-12.0,0.0,7.0,190,162,152,167,169
2025-02-25 18:20:27.942,-333.0,-921.0,296.0,-10.0,0.0,8.0,186,159,146,161,164
2025-02-25 18:20:27.945,-328.0,-916.0,302.0,-8.0,1.0,8.0,191,164,153,168,170
2025-02-25 18:20:27.948,-331.0,-903.0,296.0,-7.0,1.0,9.0,196,169,155,171,173
2025-02-25 18:20:27.950,-329.0,-894.0,301.0,-7.0,2.0,9.0,186,159,146,162,163
2025-02-25 18:20:27.952,-329.0,-894.0,293.0,-5.0,3.0,8.0,191,165,152,167,169
2025-02-25 18:20:27.954,-332.0,-892.0,296.0,-5.0,4.0,8.0,187,162,151,166,167
2025-02-25 18:20:27.956,-342.0,-891.0,289.0,-3.0,5.0,9.0,190,165,151,167,169
2025-02-25 18:20:27.959,-343.0,-892.0,281.0,-1.0,5.0,9.0,192,165,152,170,170
2025-02-25 18:20:27.961,-344.0,-896.0,285.0,-1.0,7.0,8.0,189,162,150,163,167
2025-02-25 18:20:27.964,-343.0,-901.0,295.0,0.0,8.0,8.0,186,159,147,159,163
2025-02-25 18:20:27.966,-350.0,-911.0,299.0,2.0,8.0,8.0,195,170,158,172,175
2025-02-25 18:20:27.968,-351.0,-917.0,295.0,2.0,8.0,8.0,184,163,150,165,167
2025-02-25 18:20:27.971,-352.0,-926.0,312.0,3.0,8.0,7.0,186,159,144,160,163
2025-02-25 18:20:27.973,-354.0,-929.0,301.0,5.0,7.0,6.0,191,166,151,168,170
2025-02-25 18:20:27.975,-355.0,-926.0,312.0,6.0,6.0,6.0,189,164,151,166,168
2025-02-25 18:20:27.978,-351.0,-920.0,309.0,8.0,6.0,6.0,185,160,147,163,165
2025-02-25 18:20:27.980,-355.0,-922.0,318.0,8.0,5.0,6.0,191,165,152,168,170
2025-02-25 18:20:27.983,-353.0,-905.0,312.0,9.0,4.0,6.0,190,163,150,165,168
2025-02-25 18:20:27.985,-351.0,-900.0,321.0,11.0,4.0,5.0,186,160,145,162,164
2025-02-25 18:20:27.987,-345.0,-903.0,308.0,10.0,5.0,6.0,192,166,152,168,170
2025-02-25 18:20:27.989,-353.0,-907.0,309.0,10.0,6.0,6.0,189,163,151,166,169
2025-02-25 18:20:27.992,-358.0,-908.0,321.0,12.0,6.0,6.0,185,160,147,164,165
2025-02-25 18:20:27.994,-360.0,-909.0,324.0,11.0,3.0,7.0,192,165,152,168,172
2025-02-25 18:20:27.996,-353.0,-912.0,320.0,11.0,3.0,7.0,190,165,153,168,170
2025-02-25 18:20:27.999,-358.0,-908.0,299.0,10.0,3.0,8.0,187,161,148,162,165
2025-02-25 18:20:28.001,-364.0,-903.0,316.0,10.0,3.0,8.0,191,166,153,168,170
2025-02-25 18:20:28.003,-358.0,-904.0,321.0,9.0,4.0,8.0,191,167,153,167,170
2025-02-25 18:20:28.006,-364.0,-912.0,316.0,8.0,4.0,9.0,186,160,148,163,165
2025-02-25 18:20:28.008,-363.0,-904.0,332.0,7.0,3.0,9.0,191,165,151,166,169
2025-02-25 18:20:28.010,-359.0,-892.0,328.0,4.0,3.0,9.0,192,167,152,169,171
2025-02-25 18:20:28.013,-365.0,-882.0,326.0,4.0,2.0,9.0,185,161,147,160,166
2025-02-25 18:20:28.015,-358.0,-879.0,319.0,3.0,2.0,9.0,187,162,149,165,166
2025-02-25 18:20:28.017,-360.0,-869.0,327.0,1.0,2.0,9.0,191,165,152,169,171
2025-02-25 18:20:28.020,-354.0,-865.0,330.0,0.0,3.0,8.0,187,162,149,165,166
2025-02-25 18:20:28.022,-356.0,-866.0,330.0,0.0,3.0,9.0,185,159,146,162,163
2025-02-25 18:20:28.024,-362.0,-872.0,324.0,-2.0,2.0,8.0,191,167,154,169,171
2025-02-25 18:20:28.027,-360.0,-864.0,340.0,-2.0,2.0,8.0,191,165,152,167,168
2025-02-25 18:20:28.030,-364.0,-862.0,345.0,-1.0,2.0,8.0,184,159,147,161,163
2025-02-25 18:20:28.032,-361.0,-865.0,340.0,1.0,1.0,9.0,191,167,153,168,170
2025-02-25 18:20:28.036,-364.0,-857.0,346.0,0.0,1.0,9.0,190,165,152,168,170
2025-02-25 18:20:28.041,-367.0,-856.0,357.0,-1.0,2.0,9.0,186,162,148,163,166
2025-02-25 18:20:28.045,-371.0,-855.0,325.0,0.0,0.0,9.0,189,163,150,164,167
2025-02-25 18:20:28.053,-374.0,-845.0,357.0,0.0,2.0,10.0,191,166,152,167,171
2025-02-25 18:20:28.057,-374.0,-852.0,368.0,0.0,5.0,12.0,187,163,148,163,165
2025-02-25 18:20:28.062,-380.0,-860.0,359.0,0.0,6.0,12.0,187,162,148,164,166
2025-02-25 18:20:28.066,-395.0,-871.0,350.0,1.0,6.0,14.0,191,167,153,167,170
2025-02-25 18:20:28.073,-396.0,-879.0,361.0,1.0,7.0,15.0,189,164,150,165,167
2025-02-25 18:20:28.078,-398.0,-876.0,354.0,0.0,7.0,14.0,186,161,147,162,166
2025-02-25 18:20:28.082,-393.0,-875.0,345.0,2.0,8.0,13.0,191,166,153,166,170
2025-02-25 18:20:28.086,-393.0,-869.0,352.0,4.0,9.0,11.0,192,167,153,168,170
2025-02-25 18:20:28.091,-385.0,-859.0,331.0,5.0,10.0,10.0,187,160,147,163,165
2025-02-25 18:20:28.098,-382.0,-848.0,320.0,8.0,10.0,9.0,188,161,147,162,165
2025-02-25 18:20:28.102,-396.0,-852.0,329.0,10.0,11.0,8.0,190,166,152,168,171
2025-02-25 18:20:28.107,-391.0,-825.0,319.0,10.0,12.0,7.0,192,166,152,167,170
2025-02-25 18:20:28.111,-394.0,-807.0,318.0,11.0,12.0,6.0,192,166,152,168,170
2025-02-25 18:20:28.119,-400.0,-800.0,309.0,12.0,14.0,5.0,186,161,147,163,166
2025-02-25 18:20:28.123,-406.0,-801.0,307.0,12.0,14.0,3.0,192,166,152,167,170
2025-02-25 18:20:28.127,-401.0,-789.0,306.0,12.0,15.0,1.0,191,168,151,167,170
2025-02-25 18:20:28.132,-406.0,-787.0,311.0,11.0,15.0,0.0,192,166,153,168,171
2025-02-25 18:20:28.139,-406.0,-794.0,313.0,10.0,16.0,-1.0,185,162,148,163,166
2025-02-25 18:20:28.143,-410.0,-806.0,312.0,10.0,15.0,-2.0,191,166,153,167,171
2025-02-25 18:20:28.148,-412.0,-812.0,324.0,8.0,16.0,-3.0,191,167,153,167,170
2025-02-25 18:20:28.155,-410.0,-825.0,314.0,7.0,16.0,-5.0,190,165,151,167,169
2025-02-25 18:20:28.160,-412.0,-839.0,316.0,7.0,15.0,-5.0,187,163,150,165,167
2025-02-25 18:20:28.164,-407.0,-845.0,312.0,6.0,14.0,-6.0,190,166,153,168,170
2025-02-25 18:20:28.168,-402.0,-854.0,318.0,5.0,12.0,-7.0,192,167,151,166,170
2025-02-25 18:20:28.175,-397.0,-875.0,333.0,4.0,12.0,-8.0,189,166,151,165,168
2025-02-25 18:20:28.180,-398.0,-872.0,323.0,4.0,11.0,-8.0,187,162,148,163,167
2025-02-25 18:20:28.184,-392.0,-873.0,327.0,4.0,10.0,-8.0,191,165,155,168,170
2025-02-25 18:20:28.188,-393.0,-871.0,326.0,4.0,9.0,-7.0,188,165,151,166,169
2025-02-25 18:20:28.196,-392.0,-872.0,297.0,5.0,7.0,-8.0,189,164,150,164,167
2025-02-25 18:20:28.200,-393.0,-870.0,312.0,4.0,6.0,-8.0,186,160,146,161,165
2025-02-25 18:20:28.205,-387.0,-855.0,296.0,1.0,4.0,-8.0,191,166,153,167,171
2025-02-25 18:20:28.209,-380.0,-848.0,299.0,-1.0,3.0,-9.0,190,168,152,166,170
2025-02-25 18:20:28.216,-384.0,-850.0,291.0,-2.0,3.0,-10.0,186,162,149,165,166
2025-02-25 18:20:28.220,-384.0,-853.0,296.0,-4.0,2.0,-10.0,190,167,153,166,170
2025-02-25 18:20:28.226,-388.0,-857.0,294.0,-7.0,1.0,-10.0,192,166,152,167,170
2025-02-25 18:20:28.230,-387.0,-864.0,310.0,-9.0,2.0,-10.0,189,165,149,165,167
2025-02-25 18:20:28.237,-394.0,-869.0,293.0,-8.0,1.0,-10.0,187,161,150,164,167
2025-02-25 18:20:28.242,-406.0,-872.0,305.0,-7.0,0.0,-9.0,185,160,146,161,165
2025-02-25 18:20:28.246,-396.0,-873.0,310.0,-8.0,0.0,-9.0,191,165,153,167,171
2025-02-25 18:20:28.250,-392.0,-892.0,300.0,-9.0,-1.0,-8.0,190,166,151,165,168
2025-02-25 18:20:28.258,-395.0,-901.0,326.0,-11.0,-2.0,-8.0,187,162,148,164,167
2025-02-25 18:20:28.262,-386.0,-913.0,327.0,-13.0,-3.0,-8.0,187,160,149,162,165
2025-02-25 18:20:28.266,-391.0,-921.0,330.0,-14.0,-4.0,-8.0,190,165,153,167,172
2025-02-25 18:20:28.274,-379.0,-930.0,319.0,-13.0,-5.0,-8.0,195,170,157,172,175
2025-02-25 18:20:28.278,-366.0,-931.0,307.0,-14.0,-5.0,-9.0,189,163,150,166,170
2025-02-25 18:20:28.282,-368.0,-939.0,305.0,-14.0,-5.0,-8.0,187,162,148,162,166
2025-02-25 18:20:28.290,-368.0,-938.0,302.0,-13.0,-5.0,-8.0,187,156,148,156,166
2025-02-25 18:20:28.294,-368.0,-936.0,302.0,-12.0,-6.0,-7.0,193,167,155,168,171
2025-02-25 18:20:28.299,-362.0,-933.0,311.0,-8.0,-5.0,-7.0,191,163,152,166,171
2025-02-25 18:20:28.303,-368.0,-933.0,295.0,-8.0,-5.0,-6.0,188,162,150,166,169
2025-02-25 18:20:28.311,-362.0,-924.0,289.0,-7.0,-5.0,-6.0,182,158,148,164,167
2025-02-25 18:20:28.315,-352.0,-924.0,277.0,-7.0,-6.0,-6.0,187,160,148,161,167
2025-02-25 18:20:28.319,-361.0,-941.0,285.0,-6.0,-6.0,-7.0,191,162,152,163,171
2025-02-25 18:20:28.324,-359.0,-938.0,285.0,-5.0,-6.0,-7.0,191,163,152,166,170
2025-02-25 18:20:28.331,-358.0,-955.0,277.0,-5.0,-6.0,-7.0,186,158,147,162,167
2025-02-25 18:20:28.335,-358.0,-963.0,281.0,-2.0,-6.0,-8.0,187,155,146,161,166
2025-02-25 18:20:28.340,-368.0,-978.0,296.0,-1.0,-6.0,-8.0,192,161,149,164,169
2025-02-25 18:20:28.347,-360.0,-980.0,308.0,-1.0,-6.0,-8.0,192,159,150,165,170
2025-02-25 18:20:28.352,-365.0,-1006.0,309.0,0.0,-6.0,-7.0,192,161,152,167,173
2025-02-25 18:20:28.356,-361.0,-1002.0,302.0,2.0,-5.0,-5.0,188,155,142,160,165
2025-02-25 18:20:28.361,-361.0,-995.0,311.0,5.0,-4.0,-5.0,184,152,143,158,163
2025-02-25 18:20:28.368,-361.0,-995.0,311.0,7.0,-3.0,-3.0,192,158,151,165,170
2025-02-25 18:20:28.373,-349.0,-984.0,304.0,9.0,-4.0,-1.0,194,162,152,168,173
2025-02-25 18:20:28.377,-356.0,-973.0,306.0,12.0,-3.0,1.0,185,151,145,160,164
2025-02-25 18:20:28.381,-357.0,-958.0,311.0,13.0,-1.0,2.0,185,152,143,158,163
2025-02-25 18:20:28.389,-351.0,-941.0,305.0,15.0,-1.0,5.0,191,158,150,165,169
2025-02-25 18:20:28.393,-356.0,-932.0,309.0,14.0,-1.0,6.0,193,159,150,167,171
2025-02-25 18:20:28.398,-352.0,-921.0,316.0,15.0,0.0,7.0,185,152,144,159,163
2025-02-25 18:20:28.402,-351.0,-918.0,311.0,15.0,-1.0,8.0,191,155,148,163,167
2025-02-25 18:20:28.409,-355.0,-905.0,311.0,15.0,0.0,8.0,191,157,149,166,168
2025-02-25 18:20:28.414,-353.0,-894.0,324.0,16.0,0.0,9.0,193,159,151,165,170
2025-02-25 18:20:28.418,-345.0,-892.0,316.0,16.0,0.0,8.0,186,151,142,157,161
2025-02-25 18:20:28.422,-364.0,-888.0,316.0,16.0,0.0,8.0,191,156,149,163,167
2025-02-25 18:20:28.430,-364.0,-873.0,318.0,17.0,1.0,6.0,191,156,148,163,166
2025-02-25 18:20:28.434,-377.0,-865.0,329.0,18.0,2.0,5.0,190,154,147,162,165
2025-02-25 18:20:28.438,-383.0,-869.0,325.0,18.0,3.0,5.0,183,150,143,158,160
2025-02-25 18:20:28.443,-385.0,-858.0,325.0,18.0,3.0,4.0,191,155,150,165,166
2025-02-25 18:20:28.450,-389.0,-861.0,320.0,17.0,3.0,2.0,190,155,150,162,165
2025-02-25 18:20:28.454,-392.0,-859.0,338.0,16.0,4.0,1.0,188,153,145,161,162
2025-02-25 18:20:28.459,-390.0,-856.0,344.0,16.0,5.0,0.0,190,156,148,163,165
2025-02-25 18:20:28.463,-398.0,-865.0,330.0,16.0,3.0,0.0,188,156,149,164,166
2025-02-25 18:20:28.467,-399.0,-855.0,336.0,16.0,2.0,0.0,186,150,143,159,161
2025-02-25 18:20:28.474,-403.0,-853.0,340.0,18.0,2.0,-1.0,187,151,146,159,161
2025-02-25 18:20:28.479,-400.0,-840.0,342.0,16.0,2.0,0.0,191,156,150,164,165
2025-02-25 18:20:28.483,-394.0,-820.0,343.0,18.0,1.0,1.0,189,155,146,162,164
2025-02-25 18:20:28.487,-394.0,-814.0,347.0,18.0,1.0,2.0,189,151,143,157,159
2025-02-25 18:20:28.495,-385.0,-810.0,361.0,18.0,1.0,2.0,193,158,151,166,168
2025-02-25 18:20:28.499,-387.0,-790.0,364.0,17.0,1.0,2.0,191,153,149,165,163
2025-02-25 18:20:28.503,-395.0,-791.0,371.0,15.0,2.0,2.0,187,151,144,160,161
2025-02-25 18:20:28.508,-382.0,-779.0,349.0,12.0,2.0,2.0,182,151,144,163,161
2025-02-25 18:20:28.515,-393.0,-787.0,348.0,8.0,2.0,2.0,193,159,151,165,167
2025-02-25 18:20:28.520,-384.0,-793.0,369.0,8.0,4.0,2.0,188,155,147,160,163
2025-02-25 18:20:28.524,-394.0,-814.0,369.0,7.0,5.0,1.0,186,151,144,159,160
2025-02-25 18:20:28.528,-389.0,-821.0,371.0,5.0,5.0,1.0,192,158,150,165,165
2025-02-25 18:20:28.533,-391.0,-846.0,375.0,4.0,3.0,0.0,190,156,152,163,167
2025-02-25 18:20:28.540,-385.0,-852.0,376.0,2.0,3.0,-1.0,185,151,143,160,162
2025-02-25 18:20:28.544,-384.0,-865.0,379.0,0.0,2.0,-2.0,191,156,149,165,166
2025-02-25 18:20:28.549,-381.0,-858.0,373.0,0.0,0.0,-3.0,191,159,150,163,166
2025-02-25 18:20:28.553,-386.0,-869.0,382.0,0.0,0.0,-4.0,188,154,144,161,163
2025-02-25 18:20:28.561,-386.0,-875.0,374.0,-1.0,0.0,-4.0,186,152,144,158,160
2025-02-25 18:20:28.565,-389.0,-873.0,368.0,-1.0,0.0,-5.0,191,158,149,165,166
2025-02-25 18:20:28.569,-385.0,-873.0,375.0,-2.0,-1.0,-5.0,192,155,147,164,165
2025-02-25 18:20:28.574,-385.0,-876.0,365.0,-1.0,-1.0,-5.0,188,154,144,160,162
2025-02-25 18:20:28.581,-384.0,-864.0,346.0,-2.0,-1.0,-4.0,186,152,145,160,162
2025-02-25 18:20:28.585,-384.0,-864.0,352.0,-2.0,-1.0,-4.0,191,156,149,165,166
2025-02-25 18:20:28.590,-385.0,-859.0,353.0,-4.0,-1.0,-4.0,191,157,148,164,166
2025-02-25 18:20:28.598,-385.0,-853.0,343.0,-4.0,0.0,-3.0,190,156,148,164,166
2025-02-25 18:20:28.602,-386.0,-857.0,334.0,-5.0,0.0,-2.0,186,152,143,158,160
2025-02-25 18:20:28.606,-386.0,-855.0,340.0,-6.0,0.0,-2.0,191,157,148,165,167
2025-02-25 18:20:28.610,-381.0,-871.0,334.0,-7.0,0.0,-1.0,192,158,151,167,168
2025-02-25 18:20:28.618,-387.0,-870.0,336.0,-6.0,1.0,0.0,187,155,147,162,165
2025-02-25 18:20:28.622,-395.0,-881.0,352.0,-7.0,2.0,0.0,186,153,143,158,161
2025-02-25 18:20:28.627,-387.0,-878.0,339.0,-6.0,3.0,0.0,192,160,152,164,166
2025-02-25 18:20:28.631,-392.0,-885.0,337.0,-6.0,2.0,0.0,194,162,153,169,170
2025-02-25 18:20:28.635,-390.0,-892.0,346.0,-4.0,3.0,0.0,185,153,144,160,162
2025-02-25 18:20:28.643,-385.0,-891.0,339.0,-3.0,2.0,-1.0,187,154,144,159,162
2025-02-25 18:20:28.647,-388.0,-887.0,322.0,-2.0,2.0,-1.0,191,159,149,164,167
2025-02-25 18:20:28.652,-385.0,-882.0,328.0,-1.0,1.0,-2.0,194,162,153,166,169
2025-02-25 18:20:28.656,-383.0,-875.0,326.0,0.0,1.0,-2.0,187,154,144,159,161
2025-02-25 18:20:28.663,-385.0,-886.0,318.0,3.0,0.0,-3.0,190,159,149,165,166
2025-02-25 18:20:28.667,-373.0,-870.0,308.0,3.0,0.0,-4.0,191,160,149,164,166
2025-02-25 18:20:28.671,-379.0,-873.0,311.0,4.0,0.0,-4.0,190,160,150,164,167
2025-02-25 18:20:28.676,-383.0,-863.0,315.0,3.0,0.0,-5.0,186,155,145,160,163
2025-02-25 18:20:28.684,-384.0,-854.0,310.0,4.0,0.0,-6.0,191,159,149,164,167
2025-02-25 18:20:28.688,-390.0,-848.0,319.0,5.0,0.0,-6.0,188,158,148,162,161
2025-02-25 18:20:28.692,-388.0,-848.0,316.0,6.0,0.0,-7.0,190,160,148,163,165
2025-02-25 18:20:28.697,-392.0,-849.0,305.0,5.0,-2.0,-7.0,190,159,148,163,165
2025-02-25 18:20:28.704,-392.0,-847.0,300.0,5.0,-3.0,-7.0,190,159,149,164,167
2025-02-25 18:20:28.708,-393.0,-835.0,301.0,5.0,-3.0,-8.0,190,161,149,163,166
2025-02-25 18:20:28.713,-399.0,-844.0,304.0,5.0,-3.0,-9.0,189,158,147,162,164
2025-02-25 18:20:28.717,-396.0,-849.0,309.0,4.0,-5.0,-9.0,190,159,150,165,167
2025-02-25 18:20:28.725,-397.0,-857.0,311.0,3.0,-6.0,-10.0,191,161,150,166,167
2025-02-25 18:20:28.729,-400.0,-870.0,309.0,4.0,-8.0,-10.0,190,161,151,165,166
2025-02-25 18:20:28.734,-397.0,-880.0,310.0,3.0,-10.0,-10.0,188,157,147,162,164
2025-02-25 18:20:28.741,-390.0,-888.0,309.0,3.0,-11.0,-10.0,185,154,144,159,161
2025-02-25 18:20:28.745,-385.0,-904.0,306.0,4.0,-13.0,-10.0,190,161,150,165,167
2025-02-25 18:20:28.749,-376.0,-906.0,308.0,3.0,-14.0,-11.0,191,161,149,164,167
2025-02-25 18:20:28.754,-374.0,-905.0,311.0,5.0,-17.0,-10.0,191,161,151,164,166
2025-02-25 18:20:28.762,-378.0,-900.0,312.0,5.0,-18.0,-9.0,186,156,146,160,163
2025-02-25 18:20:28.766,-357.0,-891.0,314.0,5.0,-19.0,-9.0,184,155,143,157,161
2025-02-25 18:20:28.770,-353.0,-894.0,316.0,4.0,-20.0,-8.0,191,159,150,164,167
2025-02-25 18:20:28.778,-343.0,-886.0,328.0,4.0,-20.0,-8.0,190,160,149,165,168
2025-02-25 18:20:28.782,-341.0,-890.0,329.0,4.0,-20.0,-8.0,187,157,146,160,163
2025-02-25 18:20:28.787,-335.0,-891.0,340.0,3.0,-19.0,-8.0,187,158,144,159,163
2025-02-25 18:20:28.791,-333.0,-901.0,332.0,2.0,-18.0,-8.0,195,166,155,167,172
2025-02-25 18:20:28.798,-338.0,-912.0,340.0,0.0,-16.0,-9.0,190,160,150,163,167
2025-02-25 18:20:28.802,-338.0,-926.0,340.0,1.0,-16.0,-10.0,191,160,149,163,167
2025-02-25 18:20:28.807,-345.0,-939.0,366.0,-1.0,-16.0,-10.0,187,158,146,159,163
2025-02-25 18:20:28.814,-347.0,-948.0,365.0,-4.0,-18.0,-11.0,189,160,148,163,167
2025-02-25 18:20:28.819,-347.0,-955.0,357.0,-4.0,-20.0,-10.0,190,160,150,165,168
2025-02-25 18:20:28.823,-351.0,-975.0,382.0,-6.0,-19.0,-10.0,191,161,149,164,167
2025-02-25 18:20:28.831,-358.0,-973.0,375.0,-6.0,-20.0,-9.0,190,160,150,162,167
2025-02-25 18:20:28.835,-355.0,-990.0,382.0,-5.0,-21.0,-7.0,186,158,148,162,165
2025-02-25 18:20:28.839,-360.0,-995.0,384.0,-6.0,-22.0,-5.0,184,155,143,157,162
2025-02-25 18:20:28.844,-343.0,-994.0,386.0,-7.0,-23.0,-4.0,188,158,147,160,163
2025-02-25 18:20:28.851,-339.0,-985.0,388.0,-11.0,-24.0,-1.0,192,160,148,164,166
2025-02-25 18:20:28.856,-329.0,-962.0,419.0,-11.0,-22.0,2.0,192,160,150,166,169
2025-02-25 18:20:28.861,-323.0,-956.0,413.0,-10.0,-21.0,4.0,191,157,146,162,167
2025-02-25 18:20:28.868,-322.0,-939.0,434.0,-10.0,-19.0,5.0,187,156,145,160,162
2025-02-25 18:20:28.872,-321.0,-950.0,427.0,-10.0,-17.0,6.0,189,157,147,162,165
2025-02-25 18:20:28.876,-316.0,-960.0,426.0,-11.0,-16.0,8.0,192,159,149,164,169
2025-02-25 18:20:28.884,-307.0,-966.0,425.0,-13.0,-16.0,10.0,192,158,149,164,168
2025-02-25 18:20:28.888,-300.0,-980.0,422.0,-13.0,-14.0,10.0,190,156,144,162,165
2025-02-25 18:20:28.893,-313.0,-975.0,424.0,-12.0,-14.0,11.0,188,153,145,159,165
2025-02-25 18:20:28.897,-326.0,-983.0,429.0,-12.0,-11.0,12.0,188,152,142,157,163
2025-02-25 18:20:28.904,-337.0,-981.0,419.0,-11.0,-8.0,12.0,191,155,144,162,165
2025-02-25 18:20:28.909,-358.0,-990.0,410.0,-13.0,-7.0,12.0,192,156,146,158,166
2025-02-25 18:20:28.913,-360.0,-987.0,408.0,-13.0,-6.0,14.0,191,155,147,161,165
2025-02-25 18:20:28.921,-363.0,-985.0,399.0,-13.0,-6.0,15.0,188,149,141,157,162
2025-02-25 18:20:28.925,-371.0,-962.0,383.0,-13.0,-5.0,16.0,186,148,141,154,159
2025-02-25 18:20:28.930,-364.0,-952.0,378.0,-12.0,-4.0,17.0,189,151,141,157,161
2025-02-25 18:20:28.938,-364.0,-937.0,377.0,-13.0,-2.0,18.0,192,154,145,160,164
2025-02-25 18:20:28.942,-370.0,-921.0,370.0,-13.0,-1.0,19.0,190,152,143,161,163
2025-02-25 18:20:28.946,-378.0,-904.0,367.0,-14.0,0.0,20.0,188,147,139,155,159
2025-02-25 18:20:28.951,-378.0,-900.0,370.0,-13.0,1.0,20.0,189,151,143,157,160
2025-02-25 18:20:28.958,-381.0,-901.0,375.0,-10.0,1.0,21.0,192,152,142,159,162
2025-02-25 18:20:28.962,-370.0,-895.0,364.0,-7.0,0.0,21.0,191,152,143,157,160
2025-02-25 18:20:28.967,-361.0,-886.0,359.0,-6.0,0.0,21.0,191,150,141,156,158
2025-02-25 18:20:28.971,-358.0,-880.0,371.0,-3.0,1.0,21.0,189,149,142,155,155
2025-02-25 18:20:28.978,-357.0,-882.0,375.0,0.0,3.0,21.0,192,152,142,157,160
2025-02-25 18:20:28.983,-355.0,-877.0,379.0,2.0,4.0,20.0,190,151,144,157,158
2025-02-25 18:20:28.987,-362.0,-876.0,382.0,3.0,6.0,19.0,187,146,139,153,151
2025-02-25 18:20:28.991,-352.0,-871.0,375.0,4.0,6.0,19.0,190,148,141,154,154
2025-02-25 18:20:28.998,-361.0,-857.0,374.0,5.0,7.0,18.0,192,151,144,156,157
2025-02-25 18:20:29.003,-367.0,-851.0,379.0,6.0,8.0,18.0,190,147,142,154,154
2025-02-25 18:20:29.008,-367.0,-836.0,376.0,8.0,9.0,17.0,187,144,136,149,151
2025-02-25 18:20:29.011,-369.0,-834.0,374.0,11.0,8.0,16.0,193,150,146,157,157
2025-02-25 18:20:29.020,-378.0,-814.0,369.0,11.0,9.0,15.0,192,151,144,157,155
2025-02-25 18:20:29.023,-387.0,-800.0,359.0,12.0,9.0,14.0,191,148,142,153,155
2025-02-25 18:20:29.028,-390.0,-790.0,361.0,14.0,10.0,13.0,185,144,139,147,150
2025-02-25 18:20:29.033,-392.0,-789.0,354.0,14.0,10.0,12.0,192,151,142,154,154
2025-02-25 18:20:29.040,-396.0,-782.0,359.0,14.0,10.0,10.0,191,150,143,159,156
2025-02-25 18:20:29.044,-400.0,-775.0,369.0,13.0,10.0,9.0,188,146,141,152,154
2025-02-25 18:20:29.049,-395.0,-772.0,365.0,13.0,11.0,7.0,187,146,138,150,150
2025-02-25 18:20:29.053,-406.0,-770.0,367.0,13.0,11.0,6.0,188,146,140,151,149
2025-02-25 18:20:29.061,-411.0,-782.0,369.0,14.0,12.0,4.0,193,151,143,157,156
2025-02-25 18:20:29.064,-406.0,-784.0,357.0,14.0,12.0,3.0,189,149,140,151,152
2025-02-25 18:20:29.068,-403.0,-785.0,345.0,13.0,12.0,4.0,185,145,139,150,149
2025-02-25 18:20:29.076,-412.0,-793.0,358.0,13.0,13.0,4.0,188,147,139,152,151
2025-02-25 18:20:29.080,-396.0,-791.0,352.0,13.0,13.0,3.0,191,151,145,157,156
2025-02-25 18:20:29.086,-405.0,-785.0,358.0,14.0,13.0,3.0,191,151,143,154,149
2025-02-25 18:20:29.090,-409.0,-784.0,372.0,15.0,13.0,3.0,187,146,139,151,150
2025-02-25 18:20:29.098,-395.0,-772.0,348.0,10.0,12.0,2.0,191,150,142,153,152
2025-02-25 18:20:29.101,-409.0,-777.0,341.0,13.0,9.0,2.0,193,152,145,157,156
2025-02-25 18:20:29.105,-402.0,-778.0,349.0,11.0,7.0,1.0,190,150,144,156,154
2025-02-25 18:20:29.110,-393.0,-787.0,321.0,11.0,4.0,1.0,186,145,140,151,150
2025-02-25 18:20:29.115,-401.0,-778.0,366.0,8.0,3.0,1.0,194,153,145,156,157
2025-02-25 18:20:29.122,-387.0,-774.0,349.0,8.0,0.0,1.0,189,150,143,154,154
2025-02-25 18:20:29.126,-377.0,-790.0,362.0,9.0,-1.0,0.0,187,146,137,150,150
2025-02-25 18:20:29.131,-377.0,-793.0,358.0,12.0,3.0,0.0,191,151,145,158,158
2025-02-25 18:20:29.134,-391.0,-813.0,338.0,10.0,2.0,-1.0,191,153,144,157,156
2025-02-25 18:20:29.142,-373.0,-830.0,393.0,10.0,1.0,-1.0,188,150,141,154,154
2025-02-25 18:20:29.146,-384.0,-834.0,347.0,6.0,0.0,-1.0,185,145,138,149,149
2025-02-25 18:20:29.151,-396.0,-851.0,379.0,4.0,-2.0,-1.0,184,145,136,150,149
2025-02-25 18:20:29.155,-393.0,-839.0,403.0,8.0,-3.0,-2.0,180,139,132,143,145
2025-02-25 18:20:29.163,-395.0,-853.0,364.0,10.0,-4.0,-2.0,176,136,128,141,140
2025-02-25 18:20:29.167,-412.0,-848.0,375.0,7.0,-2.0,-3.0,175,134,127,140,140
2025-02-25 18:20:29.171,-396.0,-844.0,376.0,9.0,-3.0,-3.0,183,140,135,147,147
2025-02-25 18:20:29.175,-410.0,-855.0,373.0,12.0,-2.0,-4.0,178,139,124,145,144
2025-02-25 18:20:29.183,-390.0,-841.0,383.0,13.0,1.0,-4.0,176,137,124,142,143
2025-02-25 18:20:29.188,-396.0,-859.0,366.0,17.0,2.0,-4.0,176,134,128,141,140
2025-02-25 18:20:29.191,-396.0,-871.0,360.0,13.0,1.0,-5.0,181,141,134,146,146
2025-02-25 18:20:29.196,-388.0,-865.0,381.0,14.0,4.0,-4.0,181,141,133,147,147
2025-02-25 18:20:29.203,-407.0,-885.0,390.0,14.0,4.0,-4.0,176,136,131,143,144
2025-02-25 18:20:29.208,-384.0,-909.0,371.0,12.0,4.0,-4.0,175,137,128,140,141
2025-02-25 18:20:29.212,-403.0,-914.0,408.0,21.0,8.0,-4.0,179,140,134,146,147
2025-02-25 18:20:29.216,-395.0,-911.0,388.0,23.0,7.0,-3.0,168,127,122,134,133
2025-02-25 18:20:29.224,-407.0,-926.0,405.0,24.0,8.0,-3.0,167,130,122,134,134
2025-02-25 18:20:29.229,-409.0,-935.0,418.0,24.0,7.0,-1.0,169,129,127,134,135
2025-02-25 18:20:29.232,-408.0,-932.0,413.0,26.0,6.0,0.0,170,132,123,137,137
2025-02-25 18:20:29.238,-426.0,-940.0,440.0,27.0,6.0,1.0,170,130,121,133,137
2025-02-25 18:20:29.244,-414.0,-915.0,434.0,26.0,6.0,3.0,167,127,120,133,134
2025-02-25 18:20:29.249,-412.0,-917.0,430.0,25.0,7.0,4.0,167,127,120,133,133
2025-02-25 18:20:29.253,-406.0,-914.0,435.0,19.0,6.0,6.0,170,130,123,136,137
2025-02-25 18:20:29.258,-409.0,-907.0,429.0,19.0,5.0,7.0,170,128,123,136,138
2025-02-25 18:20:29.266,-412.0,-903.0,438.0,17.0,5.0,8.0,167,127,120,134,133
2025-02-25 18:20:29.270,-405.0,-898.0,405.0,14.0,4.0,9.0,169,130,123,140,138
2025-02-25 18:20:29.274,-397.0,-889.0,434.0,13.0,6.0,8.0,170,132,127,139,137
2025-02-25 18:20:29.278,-399.0,-875.0,427.0,12.0,7.0,8.0,167,129,123,136,134
2025-02-25 18:20:29.286,-396.0,-872.0,423.0,8.0,7.0,8.0,166,126,119,132,134
2025-02-25 18:20:29.290,-395.0,-875.0,418.0,5.0,5.0,8.0,169,128,123,137,137
2025-02-25 18:20:29.295,-397.0,-880.0,420.0,0.0,5.0,8.0,167,129,122,135,134
2025-02-25 18:20:29.299,-394.0,-867.0,395.0,-6.0,4.0,8.0,164,127,121,137,135
2025-02-25 18:20:29.303,-403.0,-876.0,394.0,-13.0,2.0,9.0,170,130,123,138,138
2025-02-25 18:20:29.311,-412.0,-867.0,421.0,-13.0,5.0,9.0,169,130,122,136,138
2025-02-25 18:20:29.315,-407.0,-875.0,416.0,-13.0,4.0,10.0,167,129,122,136,136
2025-02-25 18:20:29.319,-406.0,-868.0,421.0,-14.0,5.0,11.0,165,127,120,135,134
2025-02-25 18:20:29.326,-414.0,-867.0,424.0,-18.0,4.0,12.0,171,134,129,140,140
2025-02-25 18:20:29.331,-437.0,-871.0,398.0,-21.0,0.0,13.0,175,137,130,143,143
2025-02-25 18:20:29.335,-432.0,-877.0,423.0,-21.0,-1.0,13.0,177,138,131,143,145
2025-02-25 18:20:29.339,-426.0,-849.0,413.0,-23.0,-1.0,13.0,200,164,156,170,171
2025-02-25 18:20:29.347,-421.0,-863.0,408.0,-31.0,-1.0,13.0,196,157,150,164,163
2025-02-25 18:20:29.351,-425.0,-842.0,401.0,-28.0,-1.0,13.0,200,163,157,169,169
2025-02-25 18:20:29.355,-428.0,-857.0,421.0,-28.0,-3.0,13.0,194,156,149,164,164
2025-02-25 18:20:29.364,-423.0,-860.0,377.0,-31.0,-6.0,12.0,186,148,142,156,158
2025-02-25 18:20:29.368,-406.0,-845.0,396.0,-35.0,-6.0,12.0,185,146,139,153,151
2025-02-25 18:20:29.372,-418.0,-849.0,392.0,-31.0,-4.0,11.0,184,147,138,153,153
2025-02-25 18:20:29.380,-413.0,-847.0,393.0,-28.0,-2.0,11.0,161,123,113,130,131
2025-02-25 18:20:29.384,-392.0,-846.0,409.0,-27.0,-1.0,11.0,158,121,112,125,127
2025-02-25 18:20:29.389,-408.0,-848.0,334.0,-27.0,-4.0,11.0,173,135,128,139,142
2025-02-25 18:20:29.393,-408.0,-843.0,373.0,-26.0,-5.0,11.0,177,140,131,146,147
2025-02-25 18:20:29.401,-396.0,-838.0,395.0,-29.0,-4.0,11.0,180,138,133,149,149
2025-02-25 18:20:29.405,-387.0,-821.0,376.0,-20.0,-3.0,10.0,202,166,158,173,172
2025-02-25 18:20:29.409,-400.0,-830.0,362.0,-12.0,-3.0,9.0,196,157,152,164,166
2025-02-25 18:20:29.417,-380.0,-802.0,379.0,-12.0,0.0,9.0,180,142,134,149,151
2025-02-25 18:20:29.421,-383.0,-807.0,358.0,-9.0,1.0,8.0,181,144,136,151,153
2025-02-25 18:20:29.426,-396.0,-806.0,359.0,-6.0,3.0,8.0,196,158,151,165,167
2025-02-25 18:20:29.430,-409.0,-802.0,318.0,-5.0,-3.0,8.0,187,148,140,155,156
2025-02-25 18:20:29.437,-394.0,-785.0,371.0,-6.0,-1.0,8.0,183,145,136,151,154
2025-02-25 18:20:29.442,-418.0,-801.0,346.0,-9.0,-2.0,8.0,188,151,141,157,159
2025-02-25 18:20:29.446,-411.0,-801.0,341.0,-8.0,-6.0,7.0,206,167,160,175,176
2025-02-25 18:20:29.450,-405.0,-811.0,404.0,-9.0,-3.0,7.0,207,170,163,178,179
2025-02-25 18:20:29.458,-423.0,-788.0,365.0,-4.0,-1.0,6.0,194,157,152,164,167
2025-02-25 18:20:29.462,-414.0,-799.0,332.0,-4.0,1.0,5.0,208,170,162,176,179
2025-02-25 18:20:29.466,-438.0,-792.0,363.0,-3.0,3.0,5.0,205,169,161,176,179
2025-02-25 18:20:29.470,-460.0,-778.0,313.0,-5.0,-3.0,5.0,216,181,173,187,189
2025-02-25 18:20:29.478,-437.0,-790.0,324.0,-8.0,-8.0,5.0,210,175,168,182,185
2025-02-25 18:20:29.482,-439.0,-797.0,319.0,-4.0,-8.0,5.0,216,180,173,185,185
2025-02-25 18:20:29.487,-445.0,-792.0,369.0,-3.0,-8.0,4.0,192,154,150,164,166
2025-02-25 18:20:29.491,-455.0,-781.0,322.0,-5.0,-6.0,3.0,197,159,152,167,169
2025-02-25 18:20:29.499,-440.0,-767.0,359.0,3.0,-2.0,2.0,208,171,165,179,180
2025-02-25 18:20:29.503,-484.0,-776.0,332.0,5.0,-5.0,2.0,216,178,172,186,189
2025-02-25 18:20:29.507,-446.0,-749.0,368.0,1.0,-2.0,-1.0,196,158,151,165,168
2025-02-25 18:20:29.512,-462.0,-755.0,319.0,3.0,-3.0,-3.0,174,136,128,142,144
2025-02-25 18:20:29.519,-483.0,-754.0,340.0,-2.0,-2.0,-6.0,161,123,115,130,131
2025-02-25 18:20:29.524,-456.0,-744.0,290.0,-3.0,-5.0,-7.0,163,124,121,133,135
2025-02-25 18:20:29.528,-462.0,-741.0,362.0,-7.0,-4.0,-7.0,159,121,114,130,130
2025-02-25 18:20:29.532,-487.0,-738.0,291.0,-8.0,-8.0,-9.0,161,123,116,131,133
2025-02-25 18:20:29.540,-472.0,-729.0,350.0,-14.0,-5.0,-8.0,160,120,115,128,130
2025-02-25 18:20:29.544,-483.0,-729.0,325.0,-14.0,-3.0,-8.0,156,117,110,125,128
2025-02-25 18:20:29.549,-478.0,-746.0,348.0,-3.0,-2.0,-8.0,164,126,121,132,135
2025-02-25 18:20:29.556,-453.0,-758.0,386.0,-1.0,4.0,-7.0,161,120,116,131,134
2025-02-25 18:20:29.561,-491.0,-754.0,305.0,-3.0,2.0,-8.0,162,121,114,128,133
2025-02-25 18:20:29.564,-466.0,-778.0,328.0,-4.0,-2.0,-8.0,162,124,116,132,135
2025-02-25 18:20:29.569,-469.0,-795.0,384.0,-4.0,-7.0,-8.0,165,129,121,134,139
2025-02-25 18:20:29.576,-455.0,-809.0,421.0,-3.0,-6.0,-10.0,166,127,121,137,140
2025-02-25 18:20:29.583,-433.0,-815.0,348.0,-2.0,-7.0,-11.0,168,130,124,140,142
2025-02-25 18:20:29.585,-459.0,-858.0,432.0,7.0,-4.0,-11.0,168,128,123,136,141
2025-02-25 18:20:29.589,-425.0,-867.0,412.0,8.0,7.0,-12.0,167,130,122,139,142
2025-02-25 18:20:29.597,-425.0,-877.0,348.0,4.0,9.0,-13.0,171,134,126,139,142
2025-02-25 18:20:29.602,-442.0,-918.0,397.0,1.0,6.0,-12.0,168,131,122,136,142
2025-02-25 18:20:29.606,-429.0,-932.0,396.0,-5.0,2.0,-11.0,168,127,122,138,141
2025-02-25 18:20:29.613,-413.0,-957.0,384.0,-9.0,-1.0,-10.0,167,129,122,138,141
2025-02-25 18:20:29.617,-421.0,-974.0,388.0,-12.0,0.0,-8.0,172,133,125,140,145
2025-02-25 18:20:29.621,-395.0,-972.0,393.0,-10.0,6.0,-7.0,171,132,127,141,145
2025-02-25 18:20:29.626,-398.0,-1001.0,400.0,-11.0,11.0,-7.0,169,127,123,139,143
2025-02-25 18:20:29.634,-402.0,-1006.0,357.0,-16.0,11.0,-7.0,168,128,124,139,144
2025-02-25 18:20:29.638,-415.0,-1014.0,385.0,-23.0,7.0,-7.0,168,129,121,138,143
2025-02-25 18:20:29.642,-400.0,-998.0,396.0,-25.0,2.0,-8.0,170,132,125,140,145
2025-02-25 18:20:29.651,-397.0,-1018.0,410.0,-23.0,2.0,-6.0,170,127,126,140,144
2025-02-25 18:20:29.655,-399.0,-1016.0,390.0,-19.0,4.0,-5.0,173,134,127,142,147
2025-02-25 18:20:29.659,-373.0,-1039.0,374.0,-15.0,4.0,-3.0,168,130,126,138,143
2025-02-25 18:20:29.663,-376.0,-1047.0,390.0,-13.0,3.0,-3.0,167,129,123,138,141
2025-02-25 18:20:29.671,-373.0,-1078.0,402.0,-14.0,2.0,0.0,175,135,130,144,149
2025-02-25 18:20:29.675,-365.0,-1087.0,398.0,-22.0,0.0,2.0,171,134,127,142,148
2025-02-25 18:20:29.680,-371.0,-1077.0,365.0,-21.0,-3.0,5.0,169,129,124,139,143
2025-02-25 18:20:29.687,-390.0,-1087.0,356.0,-29.0,-3.0,9.0,167,128,123,137,141
2025-02-25 18:20:29.692,-393.0,-1086.0,408.0,-25.0,-5.0,12.0,170,132,124,139,143
2025-02-25 18:20:29.696,-404.0,-1089.0,417.0,-29.0,-5.0,15.0,170,132,124,141,145
2025-02-25 18:20:29.704,-421.0,-1058.0,355.0,-24.0,-2.0,18.0,170,129,126,140,144
2025-02-25 18:20:29.708,-412.0,-1081.0,388.0,-20.0,4.0,19.0,167,130,124,137,143
2025-02-25 18:20:29.712,-421.0,-1050.0,414.0,-20.0,11.0,17.0,168,127,122,136,142
2025-02-25 18:20:29.720,-410.0,-1042.0,291.0,-30.0,19.0,15.0,167,125,126,136,142
2025-02-25 18:20:29.724,-410.0,-1035.0,337.0,-45.0,20.0,14.0,167,125,124,136,143
2025-02-25 18:20:29.728,-403.0,-1035.0,351.0,-54.0,18.0,12.0,168,127,124,137,143
2025-02-25 18:20:29.733,-411.0,-1044.0,336.0,-59.0,13.0,8.0,171,126,125,138,145
2025-02-25 18:20:29.740,-404.0,-1018.0,374.0,-56.0,16.0,6.0,168,124,122,137,144
2025-02-25 18:20:29.744,-417.0,-995.0,381.0,-42.0,20.0,5.0,164,123,120,134,140
2025-02-25 18:20:29.749,-388.0,-1008.0,308.0,-27.0,26.0,6.0,167,123,121,137,144
2025-02-25 18:20:29.756,-406.0,-1026.0,303.0,-24.0,27.0,10.0,168,124,123,137,142
2025-02-25 18:20:29.761,-402.0,-1000.0,309.0,-30.0,28.0,12.0,167,122,123,137,142
2025-02-25 18:20:29.765,-414.0,-1009.0,311.0,-32.0,26.0,17.0,165,120,120,134,140
2025-02-25 18:20:29.773,-431.0,-994.0,332.0,-36.0,28.0,21.0,170,126,126,139,146
2025-02-25 18:20:29.777,-421.0,-979.0,270.0,-37.0,27.0,23.0,177,128,128,141,147
2025-02-25 18:20:29.782,-419.0,-998.0,265.0,-30.0,31.0,26.0,182,135,135,147,154
2025-02-25 18:20:29.787,-458.0,-987.0,271.0,-30.0,35.0,29.0,179,131,135,149,156
2025-02-25 18:20:29.794,-479.0,-978.0,317.0,-28.0,44.0,30.0,184,134,135,149,154
2025-02-25 18:20:29.800,-506.0,-991.0,280.0,-26.0,45.0,31.0,181,129,133,146,151
2025-02-25 18:20:29.805,-485.0,-948.0,294.0,-22.0,45.0,31.0,180,130,134,147,152
2025-02-25 18:20:29.811,-451.0,-941.0,280.0,-12.0,43.0,31.0,193,143,146,158,163
2025-02-25 18:20:29.815,-466.0,-950.0,275.0,-16.0,38.0,31.0,198,146,152,165,169
2025-02-25 18:20:29.819,-472.0,-926.0,275.0,-19.0,37.0,30.0,191,136,141,157,161
2025-02-25 18:20:29.827,-469.0,-900.0,291.0,-23.0,37.0,31.0,198,140,147,159,163
2025-02-25 18:20:29.831,-469.0,-918.0,293.0,-19.0,41.0,33.0,201,141,151,159,164
2025-02-25 18:20:29.835,-448.0,-910.0,245.0,-21.0,38.0,33.0,200,136,149,157,162
2025-02-25 18:20:29.840,-419.0,-874.0,251.0,-21.0,37.0,34.0,202,137,147,157,161
2025-02-25 18:20:29.848,-448.0,-902.0,232.0,-20.0,34.0,35.0,198,130,142,153,159
2025-02-25 18:20:29.852,-454.0,-875.0,208.0,-24.0,32.0,35.0,207,139,151,162,164
2025-02-25 18:20:29.856,-443.0,-875.0,214.0,-25.0,29.0,35.0,209,141,152,160,165
2025-02-25 18:20:29.864,-453.0,-880.0,210.0,-32.0,29.0,35.0,213,145,157,166,175
2025-02-25 18:20:29.868,-450.0,-878.0,215.0,-46.0,31.0,36.0,216,144,161,166,170
2025-02-25 18:20:29.872,-450.0,-866.0,200.0,-48.0,32.0,37.0,216,146,161,166,169
2025-02-25 18:20:29.880,-489.0,-878.0,197.0,-61.0,33.0,36.0,214,139,158,161,164
2025-02-25 18:20:29.884,-483.0,-857.0,248.0,-72.0,35.0,38.0,214,138,154,159,163
2025-02-25 18:20:29.889,-467.0,-869.0,268.0,-69.0,39.0,40.0,224,143,162,165,167
2025-02-25 18:20:29.893,-486.0,-865.0,266.0,-69.0,42.0,42.0,209,128,145,149,152
2025-02-25 18:20:29.901,-509.0,-844.0,271.0,-66.0,49.0,42.0,200,117,136,140,142
2025-02-25 18:20:29.905,-486.0,-856.0,198.0,-65.0,47.0,43.0,194,113,130,132,135
2025-02-25 18:20:29.909,-503.0,-786.0,143.0,-74.0,45.0,42.0,198,112,131,132,134
2025-02-25 18:20:29.916,-529.0,-784.0,176.0,-83.0,43.0,42.0,197,109,128,130,130
2025-02-25 18:20:29.920,-551.0,-761.0,183.0,-81.0,46.0,44.0,197,113,129,132,130
2025-02-25 18:20:29.925,-532.0,-703.0,187.0,-75.0,46.0,45.0,198,114,130,130,128
2025-02-25 18:20:29.929,-546.0,-618.0,174.0,-73.0,46.0,50.0,194,109,126,126,123
2025-02-25 18:20:29.937,-545.0,-511.0,141.0,-59.0,45.0,53.0,191,103,120,122,120
2025-02-25 18:20:29.941,-600.0,-408.0,64.0,-55.0,38.0,55.0,191,104,122,120,116
2025-02-25 18:20:29.946,-696.0,-249.0,93.0,-49.0,41.0,57.0,197,111,128,128,121
2025-02-25 18:20:29.953,-882.0,25.0,147.0,-48.0,56.0,60.0,197,111,127,125,122
2025-02-25 18:20:29.958,-939.0,341.0,140.0,-46.0,65.0,63.0,190,102,124,120,113
2025-02-25 18:20:29.961,-1040.0,597.0,161.0,-57.0,80.0,65.0,203,121,135,136,128
2025-02-25 18:20:29.966,-1168.0,998.0,107.0,-66.0,93.0,63.0,207,129,143,147,134
2025-02-25 18:20:29.974,-1337.0,1387.0,110.0,-74.0,112.0,62.0,214,133,146,142,135
2025-02-25 18:20:29.978,-1237.0,1685.0,170.0,-100.0,120.0,39.0,209,128,143,144,132
2025-02-25 18:20:29.986,-1205.0,1768.0,180.0,-121.0,155.0,2.0,211,129,142,144,132
2025-02-25 18:20:29.990,-1284.0,1944.0,317.0,-83.0,176.0,-35.0,209,131,146,146,132
2025-02-25 18:20:29.995,-1125.0,2093.0,326.0,-15.0,220.0,-87.0,201,121,134,138,123
2025-02-25 18:20:30.002,-1063.0,2009.0,264.0,80.0,248.0,-115.0,202,121,133,137,123
2025-02-25 18:20:30.007,-1119.0,1986.0,11.0,191.0,262.0,-178.0,206,128,140,144,129
2025-02-25 18:20:30.011,-928.0,2094.0,-438.0,301.0,226.0,-239.0,205,131,142,146,131
2025-02-25 18:20:30.019,-1102.0,2045.0,-637.0,365.0,178.0,-304.0,199,126,141,146,133
2025-02-25 18:20:30.023,-1274.0,2206.0,-774.0,380.0,135.0,-378.0,193,127,136,139,123
2025-02-25 18:20:30.031,-1345.0,1953.0,-883.0,354.0,75.0,-449.0,192,126,136,143,127
2025-02-25 18:20:30.036,-980.0,1746.0,-730.0,325.0,4.0,-519.0,193,128,138,145,131
2025-02-25 18:20:30.040,-432.0,1308.0,-294.0,268.0,-65.0,-577.0,192,126,136,142,129
2025-02-25 18:20:30.048,476.0,725.0,179.0,202.0,-128.0,-615.0,186,124,133,139,125
2025-02-25 18:20:30.052,992.0,-173.0,492.0,131.0,-148.0,-631.0,198,135,146,151,138
2025-02-25 18:20:30.056,1892.0,-1334.0,854.0,48.0,-175.0,-609.0,191,128,141,149,139
2025-02-25 18:20:30.064,2385.0,-1952.0,1208.0,-11.0,-175.0,-581.0,184,121,133,138,125
2025-02-25 18:20:30.068,2730.0,-3373.0,1477.0,-28.0,-162.0,-493.0,176,113,126,131,118
2025-02-25 18:20:30.076,3054.0,-4683.0,1799.0,-19.0,-126.0,-373.0,176,115,125,129,118
2025-02-25 18:20:30.080,3254.0,-5666.0,1907.0,7.0,-72.0,-230.0,173,113,124,131,116
2025-02-25 18:20:30.085,3230.0,-6408.0,2017.0,54.0,-4.0,-83.0,174,119,129,132,121
2025-02-25 18:20:30.092,3008.0,-6658.0,1721.0,106.0,63.0,44.0,183,125,136,142,134
2025-02-25 18:20:30.097,2660.0,-6245.0,1378.0,244.0,170.0,153.0,177,120,134,138,124
2025-02-25 18:20:30.101,1991.0,-5387.0,1111.0,241.0,190.0,227.0,174,114,130,134,119
2025-02-25 18:20:30.109,1642.0,-4027.0,928.0,263.0,200.0,263.0,167,106,120,126,111
2025-02-25 18:20:30.113,542.0,-2641.0,814.0,103.0,185.0,294.0,163,100,120,122,106
2025-02-25 18:20:30.118,632.0,-1737.0,392.0,-15.0,163.0,273.0,156,97,116,120,105
2025-02-25 18:20:30.125,424.0,-1428.0,473.0,-105.0,161.0,242.0,160,101,118,116,104
2025-02-25 18:20:30.130,140.0,-1269.0,95.0,-233.0,175.0,240.0,171,113,132,132,116
2025-02-25 18:20:30.137,-187.0,-1205.0,-125.0,-190.0,-38.0,157.0,164,105,122,124,108
2025-02-25 18:20:30.142,-101.0,-1453.0,59.0,-199.0,-146.0,128.0,162,99,121,124,106
2025-02-25 18:20:30.146,453.0,-1630.0,343.0,-177.0,-207.0,77.0,153,91,112,115,96
2025-02-25 18:20:30.154,336.0,-1785.0,111.0,-195.0,-92.0,107.0,150,92,108,114,96
2025-02-25 18:20:30.158,333.0,-2179.0,104.0,-236.0,-40.0,159.0,160,100,121,123,108
2025-02-25 18:20:30.163,273.0,-2244.0,61.0,-208.0,15.0,173.0,154,97,113,121,102
2025-02-25 18:20:30.167,142.0,-2247.0,58.0,-137.0,-2.0,170.0,166,111,123,132,114
2025-02-25 18:20:30.175,78.0,-2091.0,93.0,-70.0,-16.0,182.0,231,181,193,197,180
2025-02-25 18:20:30.179,61.0,-1897.0,173.0,-53.0,-27.0,192.0,212,161,175,179,164
2025-02-25 18:20:30.184,-28.0,-1518.0,208.0,-27.0,-22.0,212.0,175,124,133,140,124
2025-02-25 18:20:30.191,53.0,-1325.0,59.0,-36.0,-10.0,226.0,174,120,134,140,125
2025-02-25 18:20:30.196,-30.0,-1056.0,133.0,-37.0,3.0,232.0,169,113,128,134,117
2025-02-25 18:20:30.200,24.0,-990.0,178.0,-29.0,12.0,234.0,174,121,133,139,123
2025-02-25 18:20:30.208,-75.0,-749.0,339.0,-21.0,-5.0,232.0,175,122,132,138,124
2025-02-25 18:20:30.212,-64.0,-660.0,286.0,-13.0,12.0,233.0,170,116,125,133,118
2025-02-25 18:20:30.216,-78.0,-504.0,254.0,-13.0,30.0,231.0,164,109,120,131,115
2025-02-25 18:20:30.224,-53.0,-426.0,320.0,-10.0,39.0,230.0,165,110,121,131,115
2025-02-25 18:20:30.228,-113.0,-360.0,217.0,-16.0,44.0,225.0,173,118,129,142,122
2025-02-25 18:20:30.233,-199.0,-309.0,163.0,-22.0,36.0,223.0,174,120,128,139,124
2025-02-25 18:20:30.237,-203.0,-243.0,137.0,-22.0,26.0,220.0,173,110,125,137,120
2025-02-25 18:20:30.244,-247.0,-198.0,214.0,-30.0,21.0,216.0,170,110,121,132,117
2025-02-25 18:20:30.249,-227.0,-67.0,109.0,-46.0,22.0,210.0,171,113,125,137,121
2025-02-25 18:20:30.253,-297.0,-33.0,112.0,-65.0,33.0,208.0,167,110,121,131,116
2025-02-25 18:20:30.261,-339.0,33.0,91.0,-81.0,45.0,201.0,176,120,128,138,123
2025-02-25 18:20:30.265,-380.0,96.0,76.0,-85.0,52.0,191.0,173,117,127,139,123
2025-02-25 18:20:30.269,-430.0,199.0,-2.0,-92.0,50.0,181.0,172,113,124,134,121
2025-02-25 18:20:30.273,-466.0,252.0,-6.0,-98.0,51.0,176.0,167,112,122,132,117
2025-02-25 18:20:30.281,-511.0,278.0,-37.0,-102.0,50.0,166.0,175,117,127,137,123
2025-02-25 18:20:30.285,-562.0,344.0,-111.0,-108.0,42.0,154.0,175,119,130,137,123
2025-02-25 18:20:30.290,-608.0,395.0,-164.0,-118.0,35.0,143.0,173,114,126,137,122
2025-02-25 18:20:30.297,-657.0,477.0,-199.0,-134.0,29.0,137.0,171,113,121,133,119
2025-02-25 18:20:30.302,-703.0,543.0,-191.0,-141.0,24.0,133.0,168,113,121,130,116
2025-02-25 18:20:30.307,-743.0,605.0,-194.0,-137.0,19.0,130.0,168,111,118,132,120
2025-02-25 18:20:30.314,-759.0,628.0,-204.0,-120.0,13.0,128.0,169,111,121,131,117
2025-02-25 18:20:30.318,-764.0,650.0,-217.0,-105.0,2.0,123.0,173,115,128,136,121
2025-02-25 18:20:30.323,-774.0,666.0,-228.0,-93.0,-1.0,118.0,174,117,127,137,122
2025-02-25 18:20:30.330,-789.0,717.0,-243.0,-88.0,-1.0,115.0,177,119,129,139,125
2025-02-25 18:20:30.335,-785.0,752.0,-227.0,-73.0,1.0,112.0,169,111,122,131,117
2025-02-25 18:20:30.339,-794.0,762.0,-225.0,-56.0,1.0,106.0,168,107,120,130,115
2025-02-25 18:20:30.347,-794.0,775.0,-229.0,-34.0,2.0,101.0,174,116,128,137,121
2025-02-25 18:20:30.350,-888.0,815.0,-247.0,-12.0,7.0,88.0,178,120,129,139,125
2025-02-25 18:20:30.355,-929.0,964.0,-219.0,-1.0,12.0,65.0,173,116,125,135,120
2025-02-25 18:20:30.359,-906.0,960.0,-253.0,26.0,16.0,37.0,169,110,120,132,117
2025-02-25 18:20:30.367,-922.0,1057.0,-250.0,52.0,21.0,21.0,171,108,121,132,117
2025-02-25 18:20:30.371,-921.0,1098.0,-266.0,81.0,23.0,-12.0,176,119,131,141,125
2025-02-25 18:20:30.376,-936.0,1190.0,-269.0,110.0,21.0,-50.0,175,112,128,139,120
2025-02-25 18:20:30.384,-944.0,1271.0,-267.0,135.0,18.0,-94.0,178,119,128,138,122
2025-02-25 18:20:30.388,-983.0,1354.0,-267.0,146.0,13.0,-139.0,176,116,128,138,124
2025-02-25 18:20:30.393,-956.0,1356.0,-256.0,161.0,8.0,-184.0,174,114,125,135,122
2025-02-25 18:20:30.400,-937.0,1321.0,-232.0,169.0,2.0,-230.0,172,114,125,134,118
2025-02-25 18:20:30.404,-930.0,1300.0,-231.0,178.0,-5.0,-255.0,174,113,122,131,119
2025-02-25 18:20:30.412,-851.0,1204.0,-237.0,178.0,-16.0,-306.0,187,127,135,146,132
2025-02-25 18:20:30.416,-814.0,1093.0,-227.0,174.0,-32.0,-358.0,188,125,136,147,134
2025-02-25 18:20:30.421,-760.0,1004.0,-205.0,171.0,-52.0,-410.0,188,127,138,149,134
2025-02-25 18:20:30.428,-700.0,895.0,-265.0,146.0,-82.0,-465.0,190,124,140,148,134
2025-02-25 18:20:30.433,-518.0,724.0,-245.0,120.0,-107.0,-517.0,186,126,134,145,132
2025-02-25 18:20:30.438,-256.0,451.0,-192.0,109.0,-131.0,-562.0,182,120,131,143,128
2025-02-25 18:20:30.445,-19.0,54.0,-104.0,92.0,-162.0,-591.0,187,123,137,146,132
2025-02-25 18:20:30.450,138.0,-507.0,-6.0,82.0,-174.0,-594.0,188,123,134,145,132
2025-02-25 18:20:30.454,494.0,-1149.0,264.0,71.0,-191.0,-564.0,187,123,134,144,129
2025-02-25 18:20:30.461,936.0,-1504.0,591.0,49.0,-192.0,-536.0,186,123,132,142,129
2025-02-25 18:20:30.466,1353.0,-2329.0,972.0,36.0,-175.0,-462.0,193,129,139,150,135
2025-02-25 18:20:30.474,1538.0,-3188.0,1162.0,23.0,-155.0,-373.0,195,128,141,151,137
2025-02-25 18:20:30.478,1775.0,-3957.0,1385.0,16.0,-124.0,-265.0,196,128,142,152,136
2025-02-25 18:20:30.482,2058.0,-4518.0,1560.0,45.0,-84.0,-163.0,194,130,144,152,138
2025-02-25 18:20:30.490,2171.0,-4947.0,2000.0,180.0,-6.0,-66.0,197,132,146,154,140
2025-02-25 18:20:30.494,2192.0,-5113.0,1534.0,202.0,38.0,2.0,190,122,138,148,134
2025-02-25 18:20:30.499,1787.0,-4815.0,1374.0,227.0,62.0,56.0,185,117,133,139,127
2025-02-25 18:20:30.506,1608.0,-4279.0,960.0,191.0,124.0,117.0,184,116,133,137,124
2025-02-25 18:20:30.511,1210.0,-3540.0,550.0,140.0,200.0,147.0,188,122,138,138,128
2025-02-25 18:20:30.515,690.0,-2989.0,509.0,-6.0,265.0,225.0,187,117,133,137,125
2025-02-25 18:20:30.523,420.0,-2205.0,456.0,-3.0,190.0,234.0,192,123,144,140,130
2025-02-25 18:20:30.527,321.0,-1958.0,328.0,-63.0,73.0,186.0,194,124,141,140,130
2025-02-25 18:20:30.531,257.0,-1475.0,204.0,-97.0,5.0,145.0,192,123,142,141,129
2025-02-25 18:20:30.539,307.0,-1397.0,265.0,-155.0,0.0,134.0,187,116,134,134,123
2025-02-25 18:20:30.543,169.0,-1559.0,45.0,-199.0,-58.0,116.0,189,118,138,136,123
2025-02-25 18:20:30.548,4.0,-1735.0,225.0,-215.0,-132.0,105.0,193,123,142,143,129
2025-02-25 18:20:30.556,225.0,-1760.0,-90.0,-193.0,-138.0,88.0,194,125,144,146,133
2025-02-25 18:20:30.560,209.0,-1996.0,133.0,-212.0,-93.0,96.0,193,125,142,145,137
2025-02-25 18:20:30.564,116.0,-2003.0,-103.0,-130.0,-85.0,116.0,193,126,143,146,133
2025-02-25 18:20:30.572,135.0,-2279.0,197.0,-116.0,-87.0,123.0,192,123,141,146,131
2025-02-25 18:20:30.577,132.0,-2090.0,211.0,-111.0,-87.0,147.0,191,122,137,142,129
2025-02-25 18:20:30.581,93.0,-2004.0,228.0,-70.0,-81.0,171.0,187,120,133,140,127
2025-02-25 18:20:30.588,92.0,-1886.0,264.0,-58.0,-58.0,195.0,192,124,139,145,131
2025-02-25 18:20:30.593,125.0,-1777.0,208.0,-51.0,-33.0,209.0,196,129,143,145,133
2025-02-25 18:20:30.598,37.0,-1659.0,190.0,-12.0,-9.0,228.0,198,129,143,149,136
2025-02-25 18:20:30.605,144.0,-1429.0,327.0,-36.0,18.0,243.0,196,126,141,147,135
2025-02-25 18:20:30.609,69.0,-1201.0,256.0,-31.0,37.0,257.0,197,128,145,150,136
2025-02-25 18:20:30.613,68.0,-1089.0,265.0,-14.0,41.0,263.0,184,115,125,135,121
2025-02-25 18:20:30.621,17.0,-977.0,325.0,-4.0,49.0,264.0,173,102,115,125,110
2025-02-25 18:20:30.625,36.0,-822.0,302.0,-1.0,54.0,270.0,182,109,121,134,118
2025-02-25 18:20:30.630,-79.0,-640.0,235.0,-11.0,46.0,274.0,180,110,119,131,116
2025-02-25 18:20:30.634,-133.0,-421.0,187.0,-30.0,36.0,276.0,176,103,113,125,109
2025-02-25 18:20:30.642,-182.0,-283.0,154.0,-41.0,35.0,276.0,173,100,110,125,110
2025-02-25 18:20:30.646,-237.0,-210.0,100.0,-53.0,32.0,273.0,174,96,110,123,109
2025-02-25 18:20:30.650,-326.0,-131.0,93.0,-72.0,20.0,264.0,184,111,118,133,120
2025-02-25 18:20:30.657,-449.0,-30.0,26.0,-98.0,9.0,255.0,181,109,117,132,119
2025-02-25 18:20:30.662,-511.0,64.0,40.0,-107.0,5.0,244.0,177,102,112,128,112
2025-02-25 18:20:30.666,-547.0,139.0,-67.0,-128.0,0.0,231.0,183,108,118,131,118
2025-02-25 18:20:30.670,-588.0,190.0,19.0,-136.0,-14.0,227.0,184,110,119,132,118
2025-02-25 18:20:30.678,-641.0,279.0,5.0,-133.0,-24.0,217.0,183,111,118,131,117
2025-02-25 18:20:30.682,-694.0,415.0,-70.0,-137.0,-36.0,205.0,182,106,116,128,115
2025-02-25 18:20:30.688,-769.0,564.0,-28.0,-142.0,-39.0,191.0,184,111,118,131,117
2025-02-25 18:20:30.695,-802.0,710.0,-58.0,-140.0,-41.0,176.0,178,103,114,127,112
2025-02-25 18:20:30.699,-852.0,811.0,-48.0,-143.0,-43.0,157.0,177,102,110,125,110
2025-02-25 18:20:30.704,-913.0,850.0,-21.0,-141.0,-47.0,147.0,179,101,112,124,111
2025-02-25 18:20:30.711,-911.0,984.0,0.0,-135.0,-43.0,128.0,187,111,123,134,120
2025-02-25 18:20:30.716,-919.0,1147.0,-1.0,-127.0,-33.0,97.0,183,108,118,130,117
2025-02-25 18:20:30.720,-959.0,1283.0,51.0,-121.0,-32.0,62.0,182,106,117,129,114
2025-02-25 18:20:30.728,-999.0,1400.0,21.0,-106.0,-32.0,29.0,184,106,119,131,117
2025-02-25 18:20:30.732,-1064.0,1485.0,-33.0,-84.0,-35.0,-2.0,178,98,114,125,111
2025-02-25 18:20:30.736,-1085.0,1592.0,-29.0,-59.0,-34.0,-19.0,180,103,113,125,110
2025-02-25 18:20:30.744,-1184.0,1648.0,-25.0,-36.0,-34.0,-55.0,186,109,120,132,116
2025-02-25 18:20:30.748,-1157.0,1716.0,-56.0,-9.0,-37.0,-92.0,188,111,122,134,119
2025-02-25 18:20:30.753,-1129.0,1734.0,-50.0,12.0,-35.0,-126.0,187,111,120,133,117
2025-02-25 18:20:30.760,-1111.0,1730.0,-53.0,28.0,-33.0,-158.0,181,106,117,127,114
2025-02-25 18:20:30.765,-1064.0,1670.0,-15.0,55.0,-39.0,-189.0,183,107,117,129,114
2025-02-25 18:20:30.773,-1022.0,1643.0,-6.0,82.0,-41.0,-220.0,183,104,115,126,113
2025-02-25 18:20:30.777,-1012.0,1593.0,47.0,112.0,-40.0,-250.0,179,101,110,121,109
2025-02-25 18:20:30.781,-892.0,1560.0,89.0,144.0,-40.0,-265.0,179,100,112,125,111
2025-02-25 18:20:30.789,-818.0,1509.0,149.0,178.0,-42.0,-295.0,194,114,128,136,123
2025-02-25 18:20:30.793,-722.0,1486.0,145.0,207.0,-44.0,-331.0,190,110,122,131,119
2025-02-25 18:20:30.798,-583.0,1526.0,178.0,239.0,-44.0,-368.0,186,108,120,131,118
2025-02-25 18:20:30.805,-496.0,1399.0,246.0,252.0,-47.0,-414.0,188,109,119,132,117
2025-02-25 18:20:30.810,-272.0,1419.0,172.0,260.0,-51.0,-458.0,187,107,117,131,115
2025-02-25 18:20:30.814,-89.0,1325.0,187.0,258.0,-51.0,-498.0,181,100,111,124,110
2025-02-25 18:20:30.822,-10.0,1179.0,150.0,245.0,-51.0,-531.0,181,100,109,124,109
2025-02-25 18:20:30.826,211.0,916.0,29.0,232.0,-65.0,-542.0,183,99,109,126,111
2025-02-25 18:20:30.830,376.0,770.0,-5.0,209.0,-91.0,-560.0,188,110,118,131,118
2025-02-25 18:20:30.838,558.0,484.0,-26.0,184.0,-130.0,-579.0,188,107,118,130,118
2025-02-25 18:20:30.843,796.0,185.0,-115.0,159.0,-174.0,-587.0,188,107,116,129,114
2025-02-25 18:20:30.847,1007.0,-311.0,-247.0,124.0,-212.0,-577.0,193,108,120,133,119
2025-02-25 18:20:30.855,1218.0,-1098.0,-214.0,98.0,-234.0,-546.0,186,101,113,128,111
2025-02-25 18:20:30.859,1707.0,-2166.0,-231.0,68.0,-237.0,-498.0,183,102,111,123,110
2025-02-25 18:20:30.867,1915.0,-3202.0,271.0,67.0,-213.0,-440.0,184,101,113,124,110
2025-02-25 18:20:30.871,2414.0,-4253.0,778.0,82.0,-162.0,-367.0,184,98,112,120,111
2025-02-25 18:20:30.876,2994.0,-5209.0,1039.0,50.0,-120.0,-332.0,189,99,113,121,111
2025-02-25 18:20:30.883,3193.0,-5607.0,1264.0,65.0,-90.0,-246.0,185,96,112,120,110
2025-02-25 18:20:30.888,3104.0,-6081.0,1349.0,77.0,-36.0,-143.0,198,111,127,129,122
2025-02-25 18:20:30.892,2930.0,-5702.0,1400.0,127.0,55.0,-23.0,195,106,123,122,115
2025-02-25 18:20:30.900,2738.0,-5249.0,1267.0,116.0,182.0,90.0,194,106,123,117,114
2025-02-25 18:20:30.904,2186.0,-4235.0,1057.0,139.0,312.0,149.0,195,104,123,119,117
2025-02-25 18:20:30.912,1564.0,-3275.0,1105.0,147.0,268.0,246.0,194,106,122,117,112
2025-02-25 18:20:30.916,1645.0,-2302.0,932.0,196.0,25.0,129.0,192,104,120,118,109
2025-02-25 18:20:30.921,902.0,-1930.0,902.0,103.0,-55.0,84.0,189,98,115,112,103
2025-02-25 18:20:30.928,1118.0,-1453.0,824.0,-22.0,-40.0,94.0,195,104,122,120,109
2025-02-25 18:20:30.935,359.0,-1899.0,742.0,-135.0,-57.0,135.0,196,105,123,121,111
2025-02-25 18:20:30.937,413.0,-2238.0,707.0,-190.0,-92.0,130.0,196,105,122,120,109
2025-02-25 18:20:30.945,362.0,-2556.0,724.0,-259.0,-91.0,144.0,196,107,123,121,112
2025-02-25 18:20:30.949,410.0,-2688.0,407.0,-217.0,-55.0,170.0,198,108,125,126,116
2025-02-25 18:20:30.954,415.0,-2644.0,462.0,-198.0,-46.0,184.0,193,103,119,123,109
2025-02-25 18:20:30.961,579.0,-2687.0,440.0,-115.0,-37.0,182.0,191,101,118,120,108
2025-02-25 18:20:30.965,360.0,-2367.0,690.0,-127.0,-27.0,212.0,189,100,114,118,106
2025-02-25 18:20:30.970,340.0,-2049.0,469.0,-114.0,-2.0,232.0,190,100,113,118,108
2025-02-25 18:20:30.977,402.0,-1836.0,516.0,-118.0,23.0,235.0,189,96,112,116,104
2025-02-25 18:20:30.982,362.0,-1526.0,543.0,-119.0,42.0,240.0,196,105,120,125,112
2025-02-25 18:20:30.986,339.0,-1213.0,456.0,-107.0,30.0,245.0,203,111,124,133,120
2025-02-25 18:20:30.994,187.0,-985.0,457.0,-90.0,15.0,244.0,197,107,121,126,114
2025-02-25 18:20:30.998,143.0,-855.0,488.0,-93.0,-6.0,244.0,191,102,115,123,110
2025-02-25 18:20:31.003,126.0,-761.0,379.0,-66.0,-25.0,236.0,188,98,111,118,105
2025-02-25 18:20:31.010,92.0,-750.0,431.0,-31.0,-43.0,233.0,191,103,116,120,108
2025-02-25 18:20:31.014,78.0,-715.0,436.0,5.0,-36.0,225.0,200,113,126,129,120
2025-02-25 18:20:31.019,30.0,-550.0,457.0,11.0,-22.0,228.0,200,112,124,129,122
2025-02-25 18:20:31.023,5.0,-593.0,515.0,21.0,-15.0,227.0,196,105,120,126,114
2025-02-25 18:20:31.031,29.0,-457.0,504.0,-39.0,1.0,229.0,202,109,121,128,117
2025-02-25 18:20:31.035,-70.0,-446.0,553.0,-71.0,11.0,230.0,201,116,126,133,121
2025-02-25 18:20:31.039,-108.0,-367.0,559.0,-108.0,33.0,231.0,202,113,124,133,119
2025-02-25 18:20:31.047,-168.0,-173.0,472.0,-114.0,43.0,228.0,204,109,123,132,118
2025-02-25 18:20:31.051,-178.0,-61.0,460.0,-133.0,63.0,221.0,197,109,121,129,116
2025-02-25 18:20:31.055,-227.0,132.0,432.0,-162.0,69.0,220.0,194,104,118,127,109
2025-02-25 18:20:31.063,-321.0,151.0,345.0,-179.0,75.0,216.0,194,104,117,127,113
2025-02-25 18:20:31.068,-384.0,275.0,326.0,-210.0,86.0,212.0,206,120,129,140,126
2025-02-25 18:20:31.072,-490.0,397.0,201.0,-192.0,83.0,203.0,202,114,125,136,122
2025-02-25 18:20:31.076,-575.0,461.0,152.0,-180.0,61.0,185.0,200,110,124,133,118
2025-02-25 18:20:31.084,-700.0,499.0,165.0,-150.0,41.0,165.0,195,105,120,127,114
2025-02-25 18:20:31.089,-735.0,419.0,-10.0,-123.0,32.0,148.0,199,109,119,129,116
2025-02-25 18:20:31.093,-827.0,463.0,14.0,-94.0,27.0,140.0,195,103,117,125,112
2025-02-25 18:20:31.100,-830.0,491.0,-1.0,-76.0,9.0,125.0,202,114,125,134,123
2025-02-25 18:20:31.104,-910.0,517.0,44.0,-69.0,-9.0,107.0,198,111,123,131,120
2025-02-25 18:20:31.109,-969.0,637.0,74.0,-56.0,-14.0,90.0,197,110,121,132,117
2025-02-25 18:20:31.114,-989.0,753.0,70.0,-47.0,-3.0,79.0,197,107,119,127,114
2025-02-25 18:20:31.121,-974.0,770.0,103.0,-39.0,6.0,60.0,202,114,126,138,121
2025-02-25 18:20:31.125,-997.0,825.0,126.0,-41.0,12.0,40.0,199,113,128,136,121
2025-02-25 18:20:31.130,-1008.0,823.0,191.0,-40.0,12.0,23.0,198,110,124,127,116
2025-02-25 18:20:31.137,-1015.0,836.0,175.0,-40.0,18.0,6.0,194,105,118,126,113
2025-02-25 18:20:31.141,-990.0,816.0,192.0,-28.0,22.0,-3.0,203,114,128,136,120
2025-02-25 18:20:31.145,-980.0,813.0,186.0,-18.0,32.0,-20.0,202,113,126,133,121
2025-02-25 18:20:31.150,-974.0,822.0,163.0,-11.0,44.0,-35.0,199,110,123,134,120
2025-02-25 18:20:31.157,-993.0,811.0,132.0,3.0,49.0,-49.0,197,109,120,129,116
2025-02-25 18:20:31.161,-979.0,801.0,124.0,24.0,50.0,-58.0,196,106,117,127,111
2025-02-25 18:20:31.167,-979.0,826.0,151.0,54.0,40.0,-76.0,205,119,131,140,126
2025-02-25 18:20:31.174,-1069.0,824.0,110.0,80.0,36.0,-95.0,201,113,125,136,122
2025-02-25 18:20:31.179,-1083.0,860.0,67.0,95.0,27.0,-117.0,197,106,115,130,117
2025-02-25 18:20:31.183,-1075.0,886.0,80.0,115.0,25.0,-139.0,195,106,118,128,114
2025-02-25 18:20:31.187,-1098.0,901.0,76.0,139.0,22.0,-151.0,196,108,119,129,115
2025-02-25 18:20:31.195,-1096.0,956.0,103.0,165.0,21.0,-173.0,203,115,126,135,120
2025-02-25 18:20:31.199,-1060.0,986.0,94.0,191.0,16.0,-201.0,201,113,125,136,122
2025-02-25 18:20:31.204,-985.0,960.0,94.0,201.0,7.0,-231.0,201,112,124,134,120
2025-02-25 18:20:31.211,-863.0,911.0,121.0,215.0,3.0,-263.0,199,108,121,130,117
2025-02-25 18:20:31.216,-793.0,774.0,214.0,228.0,5.0,-295.0,194,106,119,128,114
2025-02-25 18:20:31.220,-575.0,689.0,156.0,229.0,14.0,-312.0,202,111,127,135,121
2025-02-25 18:20:31.227,-448.0,528.0,137.0,230.0,28.0,-344.0,204,121,131,142,127
2025-02-25 18:20:31.231,-330.0,349.0,143.0,221.0,44.0,-370.0,203,113,127,139,124
2025-02-25 18:20:31.236,-156.0,149.0,148.0,218.0,48.0,-393.0,200,112,126,135,121
2025-02-25 18:20:31.243,-56.0,-125.0,87.0,205.0,43.0,-411.0,198,108,120,129,116
2025-02-25 18:20:31.248,81.0,-428.0,70.0,196.0,19.0,-416.0,200,110,124,134,119
2025-02-25 18:20:31.252,220.0,-594.0,104.0,179.0,-9.0,-420.0,204,116,128,137,122
2025-02-25 18:20:31.260,383.0,-973.0,114.0,160.0,-32.0,-417.0,203,114,128,136,122
2025-02-25 18:20:31.264,524.0,-1436.0,214.0,150.0,-53.0,-409.0,200,112,126,134,120
2025-02-25 18:20:31.269,841.0,-1875.0,290.0,134.0,-67.0,-393.0,203,114,129,135,124
2025-02-25 18:20:31.276,1203.0,-2403.0,445.0,118.0,-69.0,-361.0,197,106,122,128,116
2025-02-25 18:20:31.280,1398.0,-3094.0,670.0,99.0,-59.0,-306.0,198,109,120,127,117
2025-02-25 18:20:31.285,1739.0,-3634.0,956.0,79.0,-34.0,-238.0,202,117,126,133,122
2025-02-25 18:20:31.293,2094.0,-3809.0,1254.0,68.0,-3.0,-202.0,197,106,122,122,116
2025-02-25 18:20:31.305,2311.0,-4158.0,1551.0,51.0,28.0,-129.0,203,114,129,130,122
2025-02-25 18:20:31.308,2473.0,-4398.0,1638.0,33.0,51.0,-54.0,204,116,130,129,122
2025-02-25 18:20:31.310,2437.0,-4153.0,1534.0,7.0,57.0,9.0,203,117,134,129,125
2025-02-25 18:20:31.314,2159.0,-3828.0,1368.0,-18.0,62.0,64.0,204,114,129,127,123
2025-02-25 18:20:31.318,1962.0,-3385.0,1089.0,-75.0,68.0,93.0,198,109,124,121,116
2025-02-25 18:20:31.326,1617.0,-3083.0,739.0,-128.0,116.0,127.0,196,105,121,119,113
2025-02-25 18:20:31.330,1308.0,-2895.0,387.0,-95.0,9.0,121.0,201,108,125,123,115
2025-02-25 18:20:31.334,948.0,-2838.0,221.0,-115.0,-51.0,105.0,204,113,131,129,120
2025-02-25 18:20:31.342,900.0,-2401.0,104.0,-147.0,-34.0,113.0,202,114,133,128,120
2025-02-25 18:20:31.346,558.0,-2368.0,120.0,-188.0,-14.0,150.0,212,123,139,137,128
2025-02-25 18:20:31.350,433.0,-2537.0,22.0,-199.0,-34.0,172.0,209,122,136,136,127
2025-02-25 18:20:31.358,493.0,-2422.0,29.0,-214.0,-39.0,178.0,206,117,132,134,124
2025-02-25 18:20:31.362,379.0,-2177.0,-145.0,-208.0,-35.0,191.0,204,112,131,131,122
2025-02-25 18:20:31.370,274.0,-2100.0,-75.0,-183.0,-19.0,206.0,206,116,130,133,123
2025-02-25 18:20:31.375,270.0,-1936.0,-127.0,-148.0,-11.0,213.0,204,115,130,133,122
2025-02-25 18:20:31.379,279.0,-1894.0,-70.0,-157.0,-25.0,220.0,201,113,128,132,121
2025-02-25 18:20:31.387,229.0,-1709.0,-30.0,-149.0,-40.0,233.0,215,133,143,145,131
2025-02-25 18:20:31.391,235.0,-1411.0,34.0,-163.0,-61.0,248.0,211,122,138,139,131
2025-02-25 18:20:31.396,230.0,-1297.0,14.0,-166.0,-64.0,251.0,210,122,138,140,130
2025-02-25 18:20:31.403,158.0,-1171.0,38.0,-156.0,-80.0,258.0,208,122,134,140,130
2025-02-25 18:20:31.408,62.0,-1082.0,144.0,-130.0,-87.0,259.0,208,122,137,139,130
2025-02-25 18:20:31.412,61.0,-1015.0,198.0,-99.0,-91.0,259.0,204,117,129,136,126
2025-02-25 18:20:31.420,66.0,-915.0,294.0,-60.0,-101.0,257.0,205,117,129,134,126
2025-02-25 18:20:31.424,82.0,-897.0,454.0,-30.0,-92.0,256.0,209,124,135,140,132
2025-02-25 18:20:31.428,85.0,-808.0,400.0,0.0,-68.0,253.0,211,124,138,142,133
2025-02-25 18:20:31.436,153.0,-693.0,534.0,15.0,-38.0,239.0,208,118,133,138,130
2025-02-25 18:20:31.440,153.0,-630.0,595.0,1.0,-19.0,236.0,204,115,130,135,126
2025-02-25 18:20:31.445,105.0,-591.0,526.0,-26.0,16.0,237.0,209,120,137,139,131
2025-02-25 18:20:31.449,-7.0,-554.0,374.0,-58.0,53.0,243.0,210,123,136,143,133
2025-02-25 18:20:31.456,-129.0,-456.0,319.0,-94.0,80.0,251.0,209,118,139,144,134
2025-02-25 18:20:31.461,-233.0,-328.0,231.0,-114.0,99.0,262.0,208,118,134,141,130
2025-02-25 18:20:31.466,-336.0,-221.0,243.0,-140.0,109.0,271.0,207,119,135,142,132
2025-02-25 18:20:31.473,-381.0,-64.0,205.0,-139.0,119.0,274.0,203,116,133,137,127
2025-02-25 18:20:31.477,-416.0,31.0,151.0,-129.0,112.0,273.0,205,115,132,137,124
2025-02-25 18:20:31.482,-437.0,132.0,73.0,-105.0,95.0,264.0,209,124,138,144,132
2025-02-25 18:20:31.489,-499.0,238.0,83.0,-92.0,76.0,252.0,210,124,139,146,135
2025-02-25 18:20:31.494,-590.0,341.0,-6.0,-88.0,57.0,237.0,205,122,133,140,130
2025-02-25 18:20:31.498,-603.0,464.0,-76.0,-78.0,47.0,219.0,201,115,130,136,126
2025-02-25 18:20:31.502,-694.0,489.0,-88.0,-57.0,28.0,206.0,201,116,129,136,126
2025-02-25 18:20:31.510,-764.0,478.0,-117.0,-50.0,11.0,182.0,206,121,137,141,132
2025-02-25 18:20:31.514,-818.0,556.0,-119.0,-12.0,1.0,157.0,203,118,132,141,130
2025-02-25 18:20:31.518,-903.0,580.0,94.0,17.0,-5.0,135.0,202,116,131,140,129
2025-02-25 18:20:31.526,-921.0,627.0,-2.0,46.0,-14.0,110.0,204,120,131,143,132
2025-02-25 18:20:31.531,-924.0,676.0,-26.0,69.0,-33.0,96.0,199,113,127,139,127
2025-02-25 18:20:31.535,-958.0,719.0,6.0,86.0,-39.0,75.0,205,123,134,146,135
2025-02-25 18:20:31.539,-1035.0,786.0,-55.0,84.0,-39.0,60.0,202,121,135,148,135
2025-02-25 18:20:31.547,-1022.0,966.0,-118.0,77.0,-39.0,45.0,204,125,138,150,139
2025-02-25 18:20:31.551,-1024.0,1075.0,-100.0,64.0,-26.0,36.0,197,118,133,143,133
2025-02-25 18:20:31.555,-1030.0,1103.0,-45.0,56.0,-10.0,30.0,197,119,131,141,134
2025-02-25 18:20:31.563,-1054.0,1166.0,-41.0,53.0,3.0,15.0,203,125,137,151,143
2025-02-25 18:20:31.568,-992.0,1188.0,20.0,61.0,15.0,-4.0,204,130,143,154,147
2025-02-25 18:20:31.572,-897.0,1192.0,63.0,69.0,16.0,-31.0,200,125,138,150,147
2025-02-25 18:20:31.577,-882.0,1087.0,26.0,94.0,13.0,-59.0,197,123,137,149,143
2025-02-25 18:20:31.584,-861.0,1099.0,8.0,117.0,3.0,-72.0,201,132,144,153,152
2025-02-25 18:20:31.588,-910.0,959.0,-72.0,129.0,-12.0,-95.0,202,134,144,154,153
2025-02-25 18:20:31.593,-958.0,893.0,-177.0,139.0,-28.0,-119.0,196,131,142,149,145
2025-02-25 18:20:31.600,-977.0,845.0,-293.0,143.0,-42.0,-138.0,196,133,142,146,149
2025-02-25 18:20:31.605,-937.0,836.0,-385.0,153.0,-49.0,-158.0,210,151,163,163,167
2025-02-25 18:20:31.612,-923.0,814.0,-500.0,160.0,-67.0,-179.0,204,147,152,156,160
2025-02-25 18:20:31.617,-929.0,770.0,-552.0,174.0,-91.0,-190.0,200,147,151,156,156
2025-02-25 18:20:31.621,-920.0,747.0,-681.0,187.0,-131.0,-211.0,207,160,160,166,168
2025-02-25 18:20:31.629,-971.0,776.0,-597.0,185.0,-174.0,-233.0,210,168,162,169,170
2025-02-25 18:20:31.633,-933.0,765.0,-421.0,203.0,-171.0,-268.0,207,165,162,169,169
2025-02-25 18:20:31.638,-809.0,755.0,-398.0,204.0,-174.0,-296.0,206,165,162,170,170
2025-02-25 18:20:31.645,-629.0,907.0,-463.0,191.0,-193.0,-335.0,207,164,158,171,170
2025-02-25 18:20:31.650,-357.0,753.0,1.0,188.0,-170.0,-365.0,204,163,160,170,171
2025-02-25 18:20:31.654,-279.0,75.0,555.0,190.0,-149.0,-372.0,198,162,155,170,168
2025-02-25 18:20:31.662,-238.0,-18.0,422.0,159.0,-149.0,-389.0,198,160,155,164,166
2025-02-25 18:20:31.666,-99.0,-58.0,429.0,185.0,-123.0,-409.0,204,168,159,167,172
2025-02-25 18:20:31.670,-111.0,61.0,56.0,180.0,-160.0,-417.0,201,166,158,165,166
2025-02-25 18:20:31.678,-17.0,-63.0,115.0,170.0,-179.0,-429.0,203,170,164,172,174
2025-02-25 18:20:31.682,220.0,-263.0,-84.0,151.0,-212.0,-440.0,204,170,164,172,175
2025-02-25 18:20:31.690,479.0,-320.0,-142.0,137.0,-258.0,-442.0,204,170,164,173,175
2025-02-25 18:20:31.694,803.0,-648.0,151.0,101.0,-283.0,-437.0,202,170,162,171,172
2025-02-25 18:20:31.698,1249.0,-1138.0,215.0,66.0,-309.0,-436.0,201,169,161,168,171
2025-02-25 18:20:31.706,1504.0,-1853.0,444.0,28.0,-315.0,-428.0,203,173,166,174,174
2025-02-25 18:20:31.711,1986.0,-2663.0,687.0,-24.0,-300.0,-404.0,199,168,160,170,170
2025-02-25 18:20:31.715,2321.0,-3325.0,645.0,-97.0,-295.0,-375.0,198,167,160,167,170
2025-02-25 18:20:31.723,2675.0,-3847.0,872.0,-155.0,-297.0,-332.0,198,170,161,169,171
2025-02-25 18:20:31.728,2808.0,-4470.0,2431.0,-230.0,-175.0,-287.0,201,175,164,170,173
2025-02-25 18:20:31.735,2631.0,-4221.0,1941.0,-225.0,-99.0,-207.0,199,171,158,170,171
2025-02-25 18:20:31.739,2277.0,-3579.0,1264.0,-149.0,-109.0,-142.0,197,170,162,168,171
2025-02-25 18:20:31.747,2266.0,-3624.0,971.0,-93.0,-132.0,-71.0,206,176,168,176,178
2025-02-25 18:20:31.751,2197.0,-3648.0,414.0,-107.0,-139.0,16.0,197,169,162,167,172
2025-02-25 18:20:31.756,1900.0,-3437.0,157.0,-167.0,-118.0,105.0,204,175,168,174,176
2025-02-25 18:20:31.763,1479.0,-3255.0,74.0,-243.0,-82.0,184.0,202,174,167,174,178
2025-02-25 18:20:31.768,1247.0,-3076.0,284.0,-280.0,-33.0,234.0,204,176,168,175,179
2025-02-25 18:20:31.772,1126.0,-2642.0,561.0,-243.0,15.0,264.0,201,176,168,174,178
2025-02-25 18:20:31.780,746.0,-2354.0,179.0,-250.0,-10.0,286.0,201,173,164,172,176
2025-02-25 18:20:31.784,603.0,-1822.0,-424.0,-246.0,-115.0,265.0,206,175,173,178,181
2025-02-25 18:20:31.792,826.0,-2223.0,2021.0,-42.0,-1.0,247.0,200,171,164,171,175
2025-02-25 18:20:31.797,740.0,-1984.0,72.0,-14.0,0.0,242.0,196,169,159,167,172
2025-02-25 18:20:31.801,561.0,-1670.0,-403.0,-19.0,-28.0,239.0,193,165,158,164,170
2025-02-25 18:20:31.809,375.0,-1572.0,-18.0,-37.0,-65.0,231.0,203,175,166,174,179
2025-02-25 18:20:31.813,200.0,-1849.0,-54.0,-77.0,-50.0,238.0,200,175,166,172,178
2025-02-25 18:20:31.817,194.0,-1487.0,-138.0,-87.0,-20.0,237.0,201,175,165,171,176
2025-02-25 18:20:31.825,359.0,-1292.0,249.0,-50.0,-5.0,225.0,202,176,166,173,177
2025-02-25 18:20:31.829,380.0,-1642.0,570.0,26.0,13.0,217.0,204,178,172,177,182
2025-02-25 18:20:31.834,342.0,-1430.0,515.0,91.0,12.0,206.0,205,183,169,176,182
2025-02-25 18:20:31.838,293.0,-1286.0,518.0,142.0,0.0,201.0,212,187,179,186,189
2025-02-25 18:20:31.846,169.0,-1298.0,356.0,148.0,2.0,210.0,220,196,183,195,197
2025-02-25 18:20:31.850,85.0,-1065.0,289.0,152.0,25.0,222.0,221,194,186,194,198
2025-02-25 18:20:31.855,147.0,-895.0,203.0,158.0,49.0,226.0,215,190,181,187,193
2025-02-25 18:20:31.862,116.0,-835.0,85.0,159.0,59.0,236.0,207,182,173,182,187
2025-02-25 18:20:31.866,-50.0,-756.0,49.0,179.0,53.0,237.0,216,191,182,190,191
2025-02-25 18:20:31.871,-64.0,-687.0,186.0,177.0,57.0,239.0,183,160,149,156,160
2025-02-25 18:20:31.874,-17.0,-607.0,420.0,178.0,77.0,238.0,165,142,131,138,144
2025-02-25 18:20:31.883,-13.0,-477.0,463.0,181.0,100.0,238.0,168,142,134,140,145
2025-02-25 18:20:31.887,-60.0,-446.0,791.0,233.0,130.0,237.0,166,143,132,142,145
2025-02-25 18:20:31.892,-91.0,-378.0,746.0,255.0,207.0,236.0,164,142,132,141,143
2025-02-25 18:20:31.899,-67.0,-244.0,476.0,260.0,251.0,237.0,170,146,136,144,147
2025-02-25 18:20:31.904,-148.0,-208.0,321.0,221.0,273.0,235.0,174,149,142,148,154
2025-02-25 18:20:31.908,-252.0,31.0,-44.0,199.0,252.0,214.0,192,169,160,170,172
2025-02-25 18:20:31.916,-399.0,61.0,72.0,152.0,262.0,207.0,173,151,138,148,154
2025-02-25 18:20:31.920,-427.0,104.0,15.0,115.0,277.0,193.0,201,180,172,179,182
2025-02-25 18:20:31.925,-476.0,161.0,94.0,72.0,281.0,188.0,209,189,179,187,190
2025-02-25 18:20:31.932,-530.0,297.0,-8.0,52.0,274.0,175.0,193,172,161,170,173
2025-02-25 18:20:31.936,-664.0,274.0,148.0,43.0,275.0,163.0,201,181,174,184,184
2025-02-25 18:20:31.940,-687.0,339.0,107.0,46.0,271.0,153.0,217,199,188,194,199
2025-02-25 18:20:31.946,-814.0,429.0,36.0,48.0,262.0,147.0,224,205,192,204,207
2025-02-25 18:20:31.952,-906.0,461.0,-146.0,65.0,236.0,130.0,228,210,198,212,211
2025-02-25 18:20:31.957,-1069.0,549.0,-255.0,46.0,185.0,111.0,238,219,210,218,220
2025-02-25 18:20:31.961,-1194.0,672.0,-366.0,49.0,135.0,91.0,223,201,193,203,204
2025-02-25 18:20:31.968,-1201.0,725.0,-409.0,66.0,94.0,71.0,234,217,207,215,218
2025-02-25 18:20:31.973,-1210.0,742.0,-448.0,78.0,78.0,52.0,237,220,211,217,221
2025-02-25 18:20:31.977,-1188.0,752.0,-424.0,83.0,54.0,42.0,229,213,201,209,211
2025-02-25 18:20:31.984,-1191.0,805.0,-410.0,84.0,39.0,21.0,217,200,191,198,201
2025-02-25 18:20:31.989,-1222.0,871.0,-435.0,90.0,19.0,-2.0,238,220,213,221,222
2025-02-25 18:20:31.993,-1254.0,891.0,-386.0,95.0,1.0,-24.0,224,209,197,206,207
2025-02-25 18:20:31.997,-1236.0,912.0,-363.0,81.0,-11.0,-49.0,221,200,196,205,205
2025-02-25 18:20:32.006,-1242.0,939.0,-334.0,66.0,-34.0,-61.0,247,228,222,231,231
2025-02-25 18:20:32.010,-1249.0,950.0,-306.0,54.0,-56.0,-85.0,227,211,202,209,212
2025-02-25 18:20:32.018,-1230.0,993.0,-313.0,37.0,-81.0,-111.0,247,229,221,228,231
2025-02-25 18:20:32.022,-1182.0,991.0,-293.0,23.0,-101.0,-137.0,245,228,221,226,230
2025-02-25 18:20:32.026,-1137.0,932.0,-230.0,10.0,-115.0,-162.0,262,247,239,247,246
2025-02-25 18:20:32.034,-1065.0,875.0,-230.0,2.0,-127.0,-185.0,270,254,246,253,255
2025-02-25 18:20:32.038,-961.0,807.0,-191.0,-2.0,-132.0,-208.0,270,253,245,251,254
2025-02-25 18:20:32.043,-928.0,672.0,-126.0,-12.0,-130.0,-230.0,268,253,245,255,253
2025-02-25 18:20:32.051,-836.0,608.0,-73.0,-16.0,-125.0,-252.0,262,245,236,243,246
2025-02-25 18:20:32.055,-780.0,534.0,-12.0,-4.0,-126.0,-275.0,164,143,131,143,145
2025-02-25 18:20:32.060,-706.0,505.0,-1.0,-2.0,-131.0,-284.0,164,144,133,143,144
2025-02-25 18:20:32.067,-581.0,416.0,48.0,-1.0,-137.0,-303.0,170,152,139,147,149
2025-02-25 18:20:32.071,-498.0,307.0,-2.0,8.0,-161.0,-318.0,164,145,135,147,147
2025-02-25 18:20:32.076,-436.0,227.0,71.0,6.0,-182.0,-334.0,165,144,135,145,147
2025-02-25 18:20:32.084,-359.0,145.0,211.0,17.0,-190.0,-349.0,163,144,134,142,145
2025-02-25 18:20:32.088,-180.0,-27.0,285.0,7.0,-197.0,-359.0,166,144,135,143,146
2025-02-25 18:20:32.092,-26.0,-74.0,321.0,11.0,-206.0,-364.0,166,146,135,145,147
2025-02-25 18:20:32.100,144.0,-277.0,389.0,7.0,-208.0,-370.0,167,144,134,144,147
2025-02-25 18:20:32.104,370.0,-526.0,428.0,-2.0,-214.0,-380.0,167,144,136,147,147
2025-02-25 18:20:32.109,630.0,-875.0,419.0,-9.0,-224.0,-386.0,168,145,134,145,147
2025-02-25 18:20:32.116,883.0,-1268.0,400.0,-39.0,-230.0,-389.0,164,141,131,143,145
2025-02-25 18:20:32.120,998.0,-1706.0,88.0,-98.0,-281.0,-388.0,163,143,131,143,145
2025-02-25 18:20:32.125,1396.0,-2297.0,509.0,-113.0,-292.0,-365.0,170,146,132,145,147
2025-02-25 18:20:32.132,1726.0,-2850.0,394.0,-175.0,-293.0,-345.0,167,141,130,142,145
2025-02-25 18:20:32.137,2083.0,-3322.0,248.0,-235.0,-302.0,-329.0,166,141,129,145,145
2025-02-25 18:20:32.145,2372.0,-3597.0,542.0,-274.0,-258.0,-282.0,166,141,130,143,145
2025-02-25 18:20:32.149,2373.0,-3676.0,484.0,-301.0,-197.0,-231.0,166,141,126,141,144
2025-02-25 18:20:32.157,2283.0,-3451.0,615.0,-297.0,-125.0,-194.0,165,139,126,137,144
2025-02-25 18:20:32.161,2296.0,-3407.0,397.0,-240.0,-43.0,-112.0,167,136,126,142,143
2025-02-25 18:20:32.165,2020.0,-3404.0,-64.0,-228.0,-17.0,-30.0,172,143,131,146,149
2025-02-25 18:20:32.173,1743.0,-3269.0,-254.0,-228.0,-15.0,63.0,170,141,128,145,149
2025-02-25 18:20:32.178,1445.0,-3214.0,-277.0,-240.0,-5.0,153.0,171,138,127,143,148
2025-02-25 18:20:32.182,1174.0,-3129.0,-46.0,-224.0,71.0,217.0,171,138,127,144,148
2025-02-25 18:20:32.190,1132.0,-2607.0,-1018.0,-122.0,-38.0,248.0,169,140,128,145,148
2025-02-25 18:20:32.194,1431.0,-2754.0,1592.0,9.0,7.0,228.0,171,138,125,145,147
2025-02-25 18:20:32.202,744.0,-2487.0,-381.0,53.0,-10.0,234.0,168,137,125,142,145
2025-02-25 18:20:32.207,713.0,-1813.0,-113.0,22.0,-1.0,244.0,169,137,127,143,147
2025-02-25 18:20:32.211,658.0,-1904.0,-302.0,-4.0,-51.0,246.0,168,136,123,143,145
2025-02-25 18:20:32.218,345.0,-1959.0,-46.0,-58.0,-54.0,254.0,172,138,126,147,149
2025-02-25 18:20:32.223,441.0,-1573.0,-21.0,-58.0,-26.0,249.0,172,140,125,145,150
2025-02-25 18:20:32.227,444.0,-1548.0,138.0,-12.0,-6.0,240.0,173,140,125,145,149
2025-02-25 18:20:32.235,469.0,-1614.0,254.0,27.0,-29.0,222.0,172,137,123,144,147
2025-02-25 18:20:32.239,440.0,-1653.0,444.0,74.0,-39.0,215.0,171,139,126,142,146
2025-02-25 18:20:32.243,396.0,-1590.0,276.0,47.0,-23.0,224.0,170,136,122,141,147
2025-02-25 18:20:32.248,268.0,-1328.0,41.0,47.0,-16.0,218.0,170,138,125,143,147
2025-02-25 18:20:32.256,302.0,-1160.0,172.0,59.0,10.0,222.0,174,141,126,145,149
2025-02-25 18:20:32.260,278.0,-1125.0,157.0,80.0,-4.0,220.0,173,142,129,147,151
2025-02-25 18:20:32.265,72.0,-1100.0,113.0,88.0,-30.0,223.0,178,145,132,151,153
2025-02-25 18:20:32.272,-8.0,-1113.0,491.0,107.0,-25.0,231.0,185,151,140,158,161
2025-02-25 18:20:32.276,13.0,-1031.0,670.0,144.0,0.0,234.0,226,196,185,202,205
2025-02-25 18:20:32.280,75.0,-995.0,580.0,162.0,28.0,246.0,244,214,206,221,223
2025-02-25 18:20:32.288,-23.0,-796.0,392.0,163.0,48.0,256.0,250,220,212,226,229
2025-02-25 18:20:32.293,-22.0,-638.0,809.0,193.0,124.0,260.0,235,204,194,212,213
2025-02-25 18:20:32.297,32.0,-564.0,702.0,221.0,163.0,262.0,247,216,211,224,225
2025-02-25 18:20:32.307,-50.0,-392.0,523.0,195.0,223.0,263.0,227,196,187,203,206
2025-02-25 18:20:32.310,-215.0,-437.0,152.0,150.0,236.0,261.0,241,210,201,218,219
2025-02-25 18:20:32.313,-250.0,-369.0,372.0,115.0,246.0,257.0,231,198,192,207,208
2025-02-25 18:20:32.318,-433.0,-394.0,305.0,85.0,228.0,250.0,239,205,196,216,212
2025-02-25 18:20:32.325,-474.0,-226.0,146.0,31.0,212.0,240.0,229,187,182,193,202
2025-02-25 18:20:32.329,-409.0,-8.0,77.0,15.0,200.0,223.0,209,172,169,185,184
2025-02-25 18:20:32.334,-439.0,67.0,322.0,-19.0,193.0,218.0,218,178,177,193,193
2025-02-25 18:20:32.341,-516.0,124.0,363.0,-46.0,221.0,209.0,236,199,199,216,215
2025-02-25 18:20:32.346,-613.0,149.0,296.0,-58.0,233.0,199.0,238,191,193,210,209
2025-02-25 18:20:32.350,-719.0,271.0,204.0,-58.0,221.0,184.0,225,180,182,203,202
2025-02-25 18:20:32.358,-816.0,322.0,-83.0,-53.0,197.0,172.0,219,171,177,196,194
2025-02-25 18:20:32.362,-895.0,340.0,45.0,-70.0,178.0,154.0,220,168,173,195,192
2025-02-25 18:20:32.365,-1024.0,486.0,-146.0,-78.0,141.0,137.0,228,173,182,201,198
2025-02-25 18:20:32.374,-1065.0,551.0,-164.0,-55.0,89.0,111.0,231,172,184,206,201
2025-02-25 18:20:32.379,-1233.0,770.0,-231.0,-58.0,54.0,82.0,230,168,185,204,199
2025-02-25 18:20:32.383,-1189.0,886.0,-250.0,-52.0,41.0,55.0,231,163,184,204,198
2025-02-25 18:20:32.391,-1250.0,828.0,-255.0,-52.0,33.0,25.0,226,152,175,197,189
2025-02-25 18:20:32.395,-1280.0,853.0,-242.0,-45.0,12.0,-6.0,232,153,182,198,194
2025-02-25 18:20:32.399,-1353.0,867.0,-88.0,-53.0,-7.0,-20.0,231,152,179,199,191
2025-02-25 18:20:32.407,-1432.0,897.0,-24.0,-67.0,-18.0,-47.0,238,155,182,200,196
2025-02-25 18:20:32.411,-1481.0,905.0,63.0,-61.0,-30.0,-66.0,234,150,174,193,189
2025-02-25 18:20:32.415,-1519.0,892.0,-148.0,-74.0,-65.0,-88.0,231,146,172,188,183
2025-02-25 18:20:32.423,-1557.0,905.0,-274.0,-94.0,-101.0,-103.0,227,140,167,178,175
2025-02-25 18:20:32.428,-1511.0,1116.0,-168.0,-119.0,-104.0,-122.0,218,132,156,168,165
2025-02-25 18:20:32.432,-1360.0,1251.0,-59.0,-104.0,-72.0,-127.0,220,130,152,165,161
2025-02-25 18:20:32.439,-1241.0,1317.0,-41.0,-70.0,-54.0,-138.0,215,129,154,160,156
2025-02-25 18:20:32.444,-1073.0,1313.0,-138.0,-47.0,-26.0,-169.0,221,128,154,164,162
2025-02-25 18:20:32.452,-1194.0,1103.0,253.0,-23.0,-3.0,-194.0,216,126,149,155,153
2025-02-25 18:20:32.456,-997.0,970.0,61.0,-14.0,24.0,-207.0,213,124,146,152,151
2025-02-25 18:20:32.460,-756.0,940.0,2.0,-6.0,20.0,-234.0,218,130,151,155,154
2025-02-25 18:20:32.464,-669.0,845.0,18.0,17.0,22.0,-265.0,221,131,153,154,154
2025-02-25 18:20:32.473,-637.0,655.0,174.0,40.0,24.0,-283.0,216,124,148,149,145
2025-02-25 18:20:32.477,-688.0,480.0,73.0,42.0,20.0,-302.0,212,118,139,140,137
2025-02-25 18:20:32.481,-688.0,419.0,484.0,76.0,39.0,-312.0,217,123,142,141,136
2025-02-25 18:20:32.488,-320.0,407.0,-1.0,103.0,36.0,-331.0,218,125,147,146,137
2025-02-25 18:20:32.493,-267.0,171.0,84.0,114.0,50.0,-332.0,217,118,142,144,132
2025-02-25 18:20:32.497,-274.0,2.0,-21.0,130.0,48.0,-336.0,212,116,137,137,123
2025-02-25 18:20:32.505,-312.0,-110.0,-106.0,146.0,45.0,-340.0,214,113,135,133,120
2025-02-25 18:20:32.509,-275.0,-54.0,-222.0,145.0,28.0,-343.0,211,113,133,135,119
2025-02-25 18:20:32.514,-39.0,30.0,-333.0,134.0,8.0,-350.0,218,120,141,141,127
2025-02-25 18:20:32.518,168.0,81.0,-235.0,141.0,-19.0,-359.0,217,120,141,146,125
2025-02-25 18:20:32.526,373.0,111.0,-254.0,133.0,-69.0,-387.0,218,120,143,142,127
2025-02-25 18:20:32.531,575.0,-18.0,-226.0,124.0,-114.0,-403.0,214,115,137,136,121
2025-02-25 18:20:32.538,699.0,-475.0,-16.0,113.0,-127.0,-405.0,212,112,133,134,119
2025-02-25 18:20:32.543,1103.0,-1081.0,206.0,89.0,-129.0,-391.0,211,111,133,133,120
2025-02-25 18:20:32.547,1619.0,-1827.0,304.0,70.0,-123.0,-381.0,214,115,135,136,123
2025-02-25 18:20:32.554,2030.0,-2201.0,496.0,65.0,-102.0,-348.0,212,113,135,133,120
2025-02-25 18:20:32.559,2405.0,-3069.0,754.0,61.0,-63.0,-297.0,218,119,139,139,128
2025-02-25 18:20:32.563,2688.0,-3885.0,848.0,64.0,-9.0,-228.0,221,120,143,142,130
2025-02-25 18:20:32.571,2964.0,-4519.0,884.0,75.0,40.0,-139.0,218,118,140,139,125
2025-02-25 18:20:32.575,2788.0,-4719.0,968.0,88.0,97.0,-49.0,216,117,140,137,124
2025-02-25 18:20:32.579,2644.0,-4579.0,1016.0,103.0,143.0,42.0,212,113,132,129,118
2025-02-25 18:20:32.587,2545.0,-4117.0,868.0,92.0,164.0,108.0,212,108,131,127,115
2025-02-25 18:20:32.592,2140.0,-3431.0,576.0,66.0,187.0,140.0,211,112,133,127,116
2025-02-25 18:20:32.596,1770.0,-3161.0,473.0,14.0,229.0,159.0,215,116,138,133,120
2025-02-25 18:20:32.603,1541.0,-2337.0,336.0,57.0,69.0,170.0,241,144,166,161,149
2025-02-25 18:20:32.608,1085.0,-2068.0,497.0,-1.0,-32.0,126.0,232,134,155,148,139
2025-02-25 18:20:32.612,778.0,-1573.0,176.0,-16.0,-30.0,120.0,227,127,149,147,133
2025-02-25 18:20:32.620,357.0,-1788.0,52.0,-97.0,-45.0,150.0,223,125,147,141,131
2025-02-25 18:20:32.624,437.0,-2019.0,106.0,-98.0,-72.0,142.0,224,123,148,146,133
2025-02-25 18:20:32.628,435.0,-2157.0,85.0,-127.0,-98.0,143.0,223,124,145,144,130
2025-02-25 18:20:32.636,295.0,-2167.0,156.0,-115.0,-89.0,164.0,226,127,148,147,134
2025-02-25 18:20:32.640,317.0,-2268.0,209.0,-101.0,-67.0,177.0,225,127,150,149,136
2025-02-25 18:20:32.645,348.0,-2266.0,270.0,-81.0,-34.0,185.0,226,129,152,150,136
2025-02-25 18:20:32.652,341.0,-2092.0,299.0,-85.0,-8.0,202.0,226,127,147,148,136
2025-02-25 18:20:32.657,407.0,-1875.0,395.0,-89.0,-11.0,214.0,224,125,146,147,133
2025-02-25 18:20:32.662,326.0,-1605.0,411.0,-100.0,-17.0,222.0,221,122,140,144,128
2025-02-25 18:20:32.669,236.0,-1436.0,356.0,-87.0,-15.0,231.0,219,120,143,142,129
2025-02-25 18:20:32.673,110.0,-1307.0,318.0,-75.0,-15.0,234.0,216,120,140,139,126
2025-02-25 18:20:32.677,39.0,-1126.0,334.0,-66.0,-12.0,238.0,225,130,147,148,134
2025-02-25 18:20:32.686,-7.0,-917.0,350.0,-41.0,-25.0,233.0,229,131,152,151,138
2025-02-25 18:20:32.689,-11.0,-853.0,376.0,-39.0,-30.0,226.0,223,124,146,148,133
2025-02-25 18:20:32.695,-120.0,-750.0,375.0,-18.0,-32.0,221.0,219,122,142,142,129
2025-02-25 18:20:32.702,-140.0,-652.0,418.0,-13.0,-29.0,220.0,219,122,141,142,129
2025-02-25 18:20:32.707,-232.0,-532.0,439.0,-14.0,-18.0,219.0,221,122,142,144,132
2025-02-25 18:20:32.711,-268.0,-497.0,464.0,-34.0,-5.0,217.0,225,128,147,149,135
2025-02-25 18:20:32.719,-340.0,-376.0,483.0,-47.0,4.0,214.0,225,128,148,148,135
2025-02-25 18:20:32.723,-378.0,-265.0,517.0,-50.0,10.0,205.0,225,128,146,151,135
2025-02-25 18:20:32.727,-493.0,-134.0,479.0,-59.0,23.0,197.0,224,129,146,149,135
2025-02-25 18:20:32.735,-553.0,-51.0,423.0,-69.0,31.0,190.0,218,119,139,145,129
2025-02-25 18:20:32.739,-590.0,-7.0,384.0,-75.0,41.0,184.0,218,118,137,142,128
2025-02-25 18:20:32.743,-647.0,46.0,360.0,-88.0,44.0,173.0,231,134,150,152,141
2025-02-25 18:20:32.751,-724.0,113.0,291.0,-107.0,51.0,165.0,226,130,149,153,138
2025-02-25 18:20:32.755,-778.0,153.0,212.0,-118.0,60.0,158.0,223,126,145,147,134
2025-02-25 18:20:32.759,-806.0,193.0,189.0,-128.0,58.0,147.0,219,123,142,144,130
2025-02-25 18:20:32.764,-840.0,271.0,192.0,-118.0,48.0,139.0,224,124,143,146,132
2025-02-25 18:20:32.771,-854.0,287.0,178.0,-107.0,42.0,123.0,225,128,147,151,137
2025-02-25 18:20:32.776,-883.0,317.0,173.0,-86.0,39.0,107.0,225,129,147,150,136
2025-02-25 18:20:32.780,-926.0,334.0,156.0,-77.0,36.0,90.0,224,128,144,150,136
2025-02-25 18:20:32.788,-1004.0,345.0,104.0,-58.0,36.0,77.0,221,124,141,145,136
2025-02-25 18:20:32.792,-1010.0,383.0,58.0,-43.0,36.0,64.0,219,119,141,143,129
2025-02-25 18:20:32.796,-1055.0,431.0,35.0,-26.0,35.0,57.0,224,129,146,151,137
2025-02-25 18:20:32.800,-1094.0,445.0,22.0,-21.0,34.0,41.0,225,128,146,150,136
2025-02-25 18:20:32.809,-1098.0,494.0,-31.0,-14.0,34.0,23.0,223,129,146,150,134
2025-02-25 18:20:32.813,-1122.0,560.0,-37.0,-5.0,34.0,7.0,218,120,139,147,130
2025-02-25 18:20:32.817,-1142.0,577.0,-63.0,7.0,36.0,-1.0,216,119,138,144,129
2025-02-25 18:20:32.825,-1152.0,615.0,-55.0,23.0,38.0,-18.0,230,137,150,157,138
2025-02-25 18:20:32.829,-1150.0,674.0,-80.0,28.0,36.0,-35.0,225,127,147,151,136
2025-02-25 18:20:32.834,-1125.0,717.0,-80.0,41.0,32.0,-55.0,224,121,139,146,130
2025-02-25 18:20:32.841,-1122.0,738.0,-118.0,53.0,31.0,-75.0,217,118,139,143,128
2025-02-25 18:20:32.846,-1107.0,726.0,-113.0,64.0,31.0,-85.0,220,124,147,147,132
2025-02-25 18:20:32.849,-1124.0,759.0,-131.0,70.0,33.0,-104.0,226,127,146,152,136
2025-02-25 18:20:32.857,-1104.0,766.0,-143.0,81.0,32.0,-123.0,225,127,144,151,137
2025-02-25 18:20:32.861,-1080.0,759.0,-127.0,88.0,26.0,-142.0,223,127,144,149,135
2025-02-25 18:20:32.866,-1040.0,734.0,-122.0,107.0,19.0,-164.0,222,125,144,151,135
2025-02-25 18:20:32.874,-1023.0,676.0,-112.0,127.0,15.0,-185.0,217,119,137,145,131
2025-02-25 18:20:32.878,-946.0,639.0,-136.0,140.0,7.0,-206.0,218,121,139,147,130
2025-02-25 18:20:32.883,-873.0,594.0,-146.0,150.0,0.0,-218.0,221,127,142,149,134
2025-02-25 18:20:32.890,-809.0,541.0,-176.0,152.0,-6.0,-241.0,224,127,146,153,138
2025-02-25 18:20:32.895,-710.0,458.0,-172.0,150.0,-19.0,-264.0,224,127,145,150,136
2025-02-25 18:20:32.898,-586.0,404.0,-184.0,143.0,-36.0,-287.0,223,126,145,151,136
2025-02-25 18:20:32.906,-470.0,336.0,-178.0,139.0,-54.0,-311.0,224,128,144,151,136
2025-02-25 18:20:32.910,-308.0,249.0,-159.0,124.0,-75.0,-335.0,220,122,142,147,133
2025-02-25 18:20:32.915,-220.0,134.0,-106.0,109.0,-84.0,-356.0,219,122,139,146,131
2025-02-25 18:20:32.923,13.0,-128.0,-47.0,96.0,-105.0,-370.0,218,119,136,141,130
2025-02-25 18:20:32.927,279.0,-332.0,197.0,84.0,-121.0,-373.0,218,120,139,145,130
2025-02-25 18:20:32.931,562.0,-843.0,213.0,52.0,-135.0,-366.0,223,126,145,149,137
2025-02-25 18:20:32.939,857.0,-1449.0,284.0,24.0,-129.0,-349.0,222,126,146,148,136
2025-02-25 18:20:32.943,1208.0,-2125.0,496.0,-3.0,-107.0,-320.0,229,133,151,155,141
2025-02-25 18:20:32.948,1535.0,-2870.0,781.0,-8.0,-79.0,-278.0,221,126,144,149,137
2025-02-25 18:20:32.956,1947.0,-3588.0,1008.0,-7.0,-59.0,-225.0,221,129,144,147,136
2025-02-25 18:20:32.960,2312.0,-4172.0,1122.0,-6.0,-42.0,-165.0,218,121,141,144,132
2025-02-25 18:20:32.968,2366.0,-4500.0,1101.0,-13.0,-28.0,-101.0,218,122,144,145,134
2025-02-25 18:20:32.972,2471.0,-4645.0,898.0,-29.0,14.0,-31.0,218,120,141,140,131
2025-02-25 18:20:32.977,2300.0,-4496.0,569.0,-41.0,74.0,3.0,217,121,141,140,132
2025-02-25 18:20:32.984,1966.0,-4226.0,4.0,14.0,199.0,58.0,225,129,155,151,137
2025-02-25 18:20:32.989,1606.0,-3564.0,349.0,-18.0,197.0,147.0,221,127,149,145,136
2025-02-25 18:20:32.993,1267.0,-3019.0,180.0,115.0,78.0,137.0,221,121,147,143,135
2025-02-25 18:20:33.001,1210.0,-2345.0,43.0,68.0,8.0,119.0,217,124,147,145,133
2025-02-25 18:20:33.005,1179.0,-1941.0,3.0,-1.0,7.0,147.0,218,121,144,140,131
2025-02-25 18:20:33.009,458.0,-2002.0,-21.0,-20.0,-24.0,157.0,221,127,150,146,137
2025-02-25 18:20:33.014,584.0,-2008.0,41.0,-98.0,-79.0,153.0,220,127,147,147,137
2025-02-25 18:20:33.021,262.0,-1814.0,-186.0,-117.0,-78.0,170.0,219,126,148,148,138
2025-02-25 18:20:33.026,341.0,-2037.0,-66.0,-112.0,-66.0,174.0,219,126,146,147,136
2025-02-25 18:20:33.033,333.0,-1944.0,-88.0,-103.0,-97.0,173.0,217,124,145,146,134
2025-02-25 18:20:33.038,286.0,-2108.0,64.0,-55.0,-98.0,174.0,214,121,141,143,131
2025-02-25 18:20:33.042,308.0,-2048.0,-88.0,-77.0,-71.0,193.0,217,124,146,148,138
2025-02-25 18:20:33.050,85.0,-1974.0,-16.0,-102.0,-42.0,198.0,213,119,141,141,130
2025-02-25 18:20:33.054,217.0,-1917.0,117.0,-109.0,-45.0,206.0,219,125,152,150,138
2025-02-25 18:20:33.059,164.0,-1748.0,-46.0,-119.0,-55.0,213.0,218,127,146,149,138
2025-02-25 18:20:33.066,46.0,-1571.0,66.0,-116.0,-50.0,228.0,221,128,151,152,142
2025-02-25 18:20:33.070,41.0,-1355.0,229.0,-104.0,-47.0,243.0,218,125,146,146,137
2025-02-25 18:20:33.074,-17.0,-1072.0,312.0,-92.0,-50.0,249.0,213,122,143,145,134
2025-02-25 18:20:33.082,-56.0,-842.0,234.0,-55.0,-56.0,255.0,213,120,142,142,134
2025-02-25 18:20:33.086,-123.0,-837.0,414.0,1.0,-45.0,257.0,212,121,142,143,135
2025-02-25 18:20:33.092,-176.0,-739.0,376.0,51.0,-36.0,259.0,217,127,150,150,142
2025-02-25 18:20:33.096,-201.0,-558.0,458.0,91.0,-18.0,259.0,217,128,151,148,141
2025-02-25 18:20:33.104,-273.0,-408.0,476.0,84.0,5.0,254.0,221,129,156,153,146
2025-02-25 18:20:33.108,-260.0,-262.0,336.0,49.0,13.0,248.0,214,124,147,145,138
2025-02-25 18:20:33.112,-374.0,-219.0,339.0,21.0,25.0,249.0,214,128,148,145,139
2025-02-25 18:20:33.120,-467.0,-109.0,277.0,2.0,40.0,241.0,219,132,154,150,144
2025-02-25 18:20:33.124,-434.0,4.0,277.0,-8.0,61.0,245.0,221,138,158,155,149
2025-02-25 18:20:33.129,-448.0,-219.0,696.0,-8.0,117.0,248.0,216,130,153,151,143
2025-02-25 18:20:33.136,-557.0,-98.0,291.0,-28.0,126.0,238.0,212,130,156,145,137
2025-02-25 18:20:33.140,-595.0,102.0,145.0,-45.0,121.0,238.0,213,130,152,146,135
2025-02-25 18:20:33.145,-456.0,85.0,519.0,-67.0,136.0,242.0,222,141,165,159,148
2025-02-25 18:20:33.149,-479.0,134.0,456.0,-86.0,155.0,229.0,218,140,162,154,145
2025-02-25 18:20:33.157,-421.0,329.0,20.0,-88.0,134.0,222.0,215,141,161,150,142
2025-02-25 18:20:33.161,-564.0,419.0,20.0,-97.0,128.0,210.0,212,137,162,147,140
2025-02-25 18:20:33.165,-696.0,505.0,-161.0,-69.0,102.0,194.0,214,138,162,147,140
2025-02-25 18:20:33.172,-805.0,531.0,16.0,-22.0,96.0,194.0,211,137,159,143,140
2025-02-25 18:20:33.177,-926.0,441.0,-353.0,32.0,56.0,188.0,217,144,163,149,147
2025-02-25 18:20:33.182,-1171.0,497.0,-375.0,60.0,6.0,158.0,212,146,165,150,150
2025-02-25 18:20:33.190,-1070.0,505.0,-82.0,96.0,-15.0,113.0,216,144,156,146,145
2025-02-25 18:20:33.194,-1090.0,728.0,-168.0,110.0,-42.0,73.0,211,147,158,145,144
2025-02-25 18:20:33.198,-1127.0,605.0,520.0,125.0,-59.0,64.0,210,151,160,145,147
2025-02-25 18:20:33.206,-1070.0,440.0,517.0,127.0,-34.0,42.0,222,164,170,155,158
2025-02-25 18:20:33.210,-1262.0,342.0,124.0,50.0,-50.0,22.0,216,165,169,154,157
2025-02-25 18:20:33.214,-1012.0,229.0,262.0,31.0,-35.0,15.0,215,163,167,153,156
2025-02-25 18:20:33.219,-853.0,229.0,35.0,16.0,-31.0,4.0,210,163,163,147,151
2025-02-25 18:20:33.226,-801.0,171.0,23.0,9.0,-26.0,-1.0,212,163,166,149,153
2025-02-25 18:20:33.231,-782.0,202.0,-50.0,16.0,-27.0,-18.0,216,172,173,154,159
2025-02-25 18:20:33.235,-745.0,149.0,104.0,16.0,-9.0,-30.0,215,169,173,152,156
2025-02-25 18:20:33.239,-736.0,158.0,92.0,17.0,0.0,-40.0,207,165,170,150,155
2025-02-25 18:20:33.246,-735.0,240.0,39.0,34.0,9.0,-43.0,210,168,170,148,155
2025-02-25 18:20:33.251,-705.0,195.0,81.0,59.0,23.0,-43.0,212,173,176,153,158
2025-02-25 18:20:33.255,-708.0,229.0,60.0,73.0,34.0,-51.0,208,174,176,152,156
2025-02-25 18:20:33.260,-731.0,260.0,-101.0,94.0,35.0,-58.0,203,170,174,148,153
2025-02-25 18:20:33.267,-784.0,297.0,-197.0,127.0,33.0,-59.0,202,172,175,149,155
2025-02-25 18:20:33.271,-816.0,384.0,-216.0,157.0,24.0,-67.0,204,179,181,154,157
2025-02-25 18:20:33.275,-880.0,582.0,-229.0,184.0,9.0,-74.0,203,180,181,154,156
2025-02-25 18:20:33.283,-1009.0,595.0,-287.0,180.0,-6.0,-82.0,204,181,187,159,157
2025-02-25 18:20:33.287,-968.0,932.0,-75.0,179.0,-10.0,-106.0,199,179,183,153,154
2025-02-25 18:20:33.292,-961.0,849.0,-256.0,182.0,-19.0,-123.0,193,177,179,149,150
2025-02-25 18:20:33.300,-935.0,909.0,-243.0,176.0,-39.0,-150.0,188,177,181,150,151
2025-02-25 18:20:33.304,-934.0,916.0,-195.0,163.0,-47.0,-164.0,190,179,181,152,151
2025-02-25 18:20:33.312,-913.0,732.0,-226.0,142.0,-47.0,-190.0,193,185,188,158,157
2025-02-25 18:20:33.316,-794.0,673.0,-280.0,135.0,-54.0,-225.0,190,187,187,156,156
2025-02-25 18:20:33.320,-722.0,505.0,-174.0,134.0,-56.0,-260.0,190,187,186,156,155
2025-02-25 18:20:33.328,-600.0,468.0,-115.0,142.0,-56.0,-295.0,190,188,187,159,156
2025-02-25 18:20:33.332,-498.0,385.0,-121.0,148.0,-62.0,-331.0,184,184,183,154,153
2025-02-25 18:20:33.337,-409.0,267.0,-102.0,158.0,-61.0,-364.0,181,183,184,153,150
2025-02-25 18:20:33.345,-372.0,281.0,-33.0,154.0,-64.0,-394.0,184,188,189,156,152
2025-02-25 18:20:33.350,-234.0,170.0,87.0,166.0,-67.0,-422.0,180,185,185,152,150
2025-02-25 18:20:33.354,-93.0,126.0,114.0,164.0,-81.0,-437.0,181,184,185,155,151
2025-02-25 18:20:33.361,34.0,-21.0,154.0,157.0,-97.0,-462.0,184,190,190,159,155
2025-02-25 18:20:33.366,164.0,-287.0,173.0,153.0,-120.0,-480.0,186,192,192,161,156
2025-02-25 18:20:33.370,319.0,-664.0,303.0,148.0,-142.0,-488.0,181,186,190,157,152
2025-02-25 18:20:33.378,500.0,-935.0,417.0,134.0,-162.0,-485.0,179,189,187,156,149
2025-02-25 18:20:33.382,632.0,-1343.0,577.0,122.0,-173.0,-466.0,179,189,189,155,149
2025-02-25 18:20:33.387,920.0,-1837.0,734.0,105.0,-184.0,-435.0,178,187,185,154,148
2025-02-25 18:20:33.394,1272.0,-2437.0,1006.0,85.0,-183.0,-392.0,178,189,187,156,147
2025-02-25 18:20:33.399,1648.0,-2664.0,1296.0,77.0,-164.0,-365.0,176,189,185,156,146
2025-02-25 18:20:33.406,1930.0,-3093.0,1589.0,76.0,-127.0,-302.0,175,189,186,156,148
2025-02-25 18:20:33.411,2200.0,-3389.0,1560.0,53.0,-90.0,-227.0,184,196,193,161,152
2025-02-25 18:20:33.415,2308.0,-3651.0,1729.0,29.0,-47.0,-147.0,184,197,190,161,153
2025-02-25 18:20:33.423,2339.0,-3769.0,1694.0,3.0,-13.0,-65.0,188,197,189,160,153
2025-02-25 18:20:33.427,2199.0,-3744.0,1679.0,2.0,31.0,13.0,185,198,192,162,154
2025-02-25 18:20:33.431,1869.0,-3617.0,1764.0,3.0,58.0,80.0,182,195,185,158,148
2025-02-25 18:20:33.439,1684.0,-3361.0,1691.0,-11.0,62.0,135.0,180,192,186,154,145
2025-02-25 18:20:33.443,1361.0,-2840.0,1438.0,-39.0,63.0,165.0,182,192,186,155,147
2025-02-25 18:20:33.447,1042.0,-2682.0,1192.0,-102.0,48.0,175.0,179,191,183,151,144
2025-02-25 18:20:33.456,818.0,-2277.0,1090.0,-148.0,33.0,184.0,184,192,188,155,145
2025-02-25 18:20:33.459,569.0,-2084.0,856.0,-185.0,15.0,185.0,186,195,189,158,149
2025-02-25 18:20:33.464,438.0,-1963.0,841.0,-216.0,-1.0,182.0,186,195,191,158,149
2025-02-25 18:20:33.472,361.0,-1916.0,677.0,-227.0,-12.0,179.0,185,195,190,157,148
2025-02-25 18:20:33.476,371.0,-1894.0,604.0,-226.0,-25.0,174.0,183,192,188,156,147
2025-02-25 18:20:33.484,405.0,-1878.0,560.0,-218.0,-26.0,170.0,187,197,185,158,148
2025-02-25 18:20:33.488,411.0,-1865.0,425.0,-199.0,-29.0,170.0,180,190,184,151,142
2025-02-25 18:20:33.493,398.0,-1834.0,494.0,-170.0,-34.0,174.0,178,188,183,151,141
2025-02-25 18:20:33.500,401.0,-1807.0,473.0,-147.0,-37.0,179.0,175,186,181,149,140
2025-02-25 18:20:33.505,397.0,-1736.0,499.0,-112.0,-37.0,189.0,186,196,188,159,148
2025-02-25 18:20:33.509,369.0,-1636.0,505.0,-79.0,-37.0,201.0,184,193,189,160,148
2025-02-25 18:20:33.517,336.0,-1517.0,525.0,-46.0,-33.0,214.0,183,193,188,158,148
2025-02-25 18:20:33.521,262.0,-1403.0,536.0,-33.0,-22.0,228.0,181,192,185,157,147
2025-02-25 18:20:33.526,175.0,-1291.0,489.0,-11.0,-15.0,239.0,179,190,185,155,144
2025-02-25 18:20:33.533,144.0,-1168.0,480.0,15.0,-12.0,248.0,177,187,182,152,137
2025-02-25 18:20:33.537,42.0,-1052.0,509.0,43.0,1.0,253.0,176,188,183,153,143
2025-02-25 18:20:33.541,-20.0,-945.0,442.0,61.0,13.0,263.0,186,192,191,163,154
2025-02-25 18:20:33.546,-95.0,-804.0,449.0,71.0,28.0,272.0,183,195,189,159,148
2025-02-25 18:20:33.554,-140.0,-604.0,381.0,70.0,41.0,278.0,177,187,181,153,142
2025-02-25 18:20:33.558,-106.0,-450.0,412.0,74.0,49.0,280.0,172,184,180,152,141
2025-02-25 18:20:33.563,-168.0,-374.0,420.0,64.0,62.0,280.0,176,187,180,153,141
2025-02-25 18:20:33.571,-244.0,-243.0,395.0,48.0,73.0,278.0,181,192,186,159,148
2025-02-25 18:20:33.574,-307.0,-125.0,425.0,41.0,80.0,274.0,178,191,185,158,148
2025-02-25 18:20:33.578,-383.0,-20.0,345.0,27.0,85.0,267.0,175,186,182,155,144
2025-02-25 18:20:33.583,-375.0,84.0,382.0,9.0,89.0,256.0,173,185,181,153,143
2025-02-25 18:20:33.590,-393.0,160.0,399.0,-5.0,105.0,251.0,183,193,191,162,151
2025-02-25 18:20:33.595,-513.0,198.0,407.0,-12.0,108.0,240.0,180,193,189,163,152
2025-02-25 18:20:33.599,-605.0,292.0,309.0,-21.0,113.0,231.0,177,194,189,160,149
2025-02-25 18:20:33.607,-700.0,365.0,234.0,-32.0,114.0,221.0,173,189,183,157,141
2025-02-25 18:20:33.611,-725.0,462.0,281.0,-29.0,118.0,211.0,172,185,182,157,144
2025-02-25 18:20:33.616,-782.0,475.0,141.0,-31.0,120.0,207.0,171,185,181,153,144
2025-02-25 18:20:33.623,-816.0,543.0,13.0,-36.0,114.0,196.0,182,197,194,166,157
2025-02-25 18:20:33.627,-844.0,657.0,10.0,-33.0,109.0,182.0,188,206,202,174,165
2025-02-25 18:20:33.632,-933.0,688.0,-118.0,-42.0,92.0,165.0,173,192,190,161,152
2025-02-25 18:20:33.640,-952.0,718.0,-102.0,-51.0,87.0,148.0,175,192,191,159,151
2025-02-25 18:20:33.644,-996.0,728.0,-189.0,-45.0,74.0,128.0,179,196,194,166,157
2025-02-25 18:20:33.649,-1022.0,742.0,-165.0,-47.0,63.0,116.0,197,214,213,186,175
2025-02-25 18:20:33.656,-1021.0,727.0,-198.0,-50.0,52.0,93.0,197,213,214,187,178
2025-02-25 18:20:33.665,-1043.0,763.0,-266.0,-48.0,39.0,71.0,194,209,212,185,174
2025-02-25 18:20:33.667,-1042.0,825.0,-230.0,-50.0,32.0,47.0,192,207,206,181,170
2025-02-25 18:20:33.672,-1031.0,886.0,-253.0,-46.0,28.0,24.0,186,200,199,173,164
2025-02-25 18:20:33.677,-1026.0,987.0,-261.0,-46.0,20.0,-1.0,185,200,200,172,164
2025-02-25 18:20:33.681,-1044.0,1008.0,-279.0,-42.0,13.0,-13.0,190,205,203,179,170
2025-02-25 18:20:33.689,-1067.0,1059.0,-301.0,-38.0,5.0,-35.0,191,205,208,181,171
2025-02-25 18:20:33.693,-1101.0,1104.0,-325.0,-30.0,-3.0,-56.0,192,206,208,179,170
2025-02-25 18:20:33.697,-1093.0,1153.0,-309.0,-24.0,-11.0,-79.0,189,205,206,179,169
2025-02-25 18:20:33.705,-1094.0,1106.0,-312.0,-17.0,-17.0,-101.0,189,208,206,178,171
2025-02-25 18:20:33.710,-1065.0,1057.0,-322.0,-5.0,-21.0,-125.0,188,203,205,175,167
2025-02-25 18:20:33.714,-1032.0,1012.0,-331.0,7.0,-24.0,-148.0,184,200,202,176,166
2025-02-25 18:20:33.722,-1002.0,957.0,-326.0,22.0,-26.0,-172.0,182,197,198,171,162
2025-02-25 18:20:33.726,-993.0,899.0,-321.0,38.0,-31.0,-194.0,178,195,199,170,161
2025-02-25 18:20:33.730,-945.0,884.0,-332.0,56.0,-36.0,-205.0,168,191,191,161,154
2025-02-25 18:20:33.738,-903.0,825.0,-261.0,78.0,-40.0,-226.0,181,195,197,170,163
2025-02-25 18:20:33.742,-820.0,769.0,-242.0,101.0,-46.0,-248.0,185,201,204,176,167
2025-02-25 18:20:33.750,-762.0,683.0,-241.0,127.0,-57.0,-272.0,183,198,201,174,164
2025-02-25 18:20:33.754,-679.0,593.0,-140.0,141.0,-62.0,-298.0,180,197,200,172,161
2025-02-25 18:20:33.759,-569.0,465.0,-151.0,154.0,-62.0,-323.0,181,196,200,174,164
2025-02-25 18:20:33.767,-445.0,340.0,-125.0,169.0,-62.0,-349.0,183,196,195,169,159
2025-02-25 18:20:33.771,-403.0,215.0,-98.0,173.0,-59.0,-372.0,175,192,196,167,157
2025-02-25 18:20:33.775,-314.0,100.0,-9.0,178.0,-59.0,-384.0,176,193,198,170,158
2025-02-25 18:20:33.783,-188.0,29.0,74.0,181.0,-70.0,-406.0,186,204,202,179,170
2025-02-25 18:20:33.787,-14.0,-136.0,138.0,182.0,-87.0,-427.0,185,201,203,179,167
2025-02-25 18:20:33.793,254.0,-363.0,255.0,181.0,-109.0,-446.0,185,201,202,176,164
2025-02-25 18:20:33.800,544.0,-730.0,404.0,179.0,-129.0,-461.0,182,199,198,174,163
2025-02-25 18:20:33.804,841.0,-1166.0,575.0,167.0,-140.0,-469.0,188,201,203,176,168
2025-02-25 18:20:33.808,977.0,-1661.0,798.0,152.0,-143.0,-461.0,184,200,201,175,164
2025-02-25 18:20:33.816,1218.0,-2285.0,1074.0,125.0,-144.0,-436.0,183,199,201,173,164
2025-02-25 18:20:33.821,1481.0,-2890.0,1388.0,98.0,-135.0,-394.0,185,200,201,175,164
2025-02-25 18:20:33.828,1771.0,-3326.0,2039.0,124.0,-111.0,-331.0,184,200,199,175,165
2025-02-25 18:20:33.833,2050.0,-3602.0,1977.0,156.0,-89.0,-292.0,184,206,200,176,162
2025-02-25 18:20:33.837,2238.0,-3590.0,2120.0,164.0,-55.0,-211.0,183,199,197,171,162
2025-02-25 18:20:33.845,2526.0,-3687.0,2037.0,140.0,-5.0,-114.0,185,201,198,175,164
2025-02-25 18:20:33.849,2504.0,-3704.0,2041.0,108.0,28.0,-22.0,191,209,205,179,170
2025-02-25 18:20:33.854,2102.0,-3765.0,2000.0,59.0,51.0,60.0,191,206,205,178,169
2025-02-25 18:20:33.861,1773.0,-3577.0,1818.0,12.0,73.0,133.0,191,205,205,177,169
2025-02-25 18:20:33.866,1473.0,-3179.0,1721.0,-27.0,80.0,176.0,190,203,203,179,166
2025-02-25 18:20:33.873,1175.0,-2769.0,1464.0,-92.0,71.0,197.0,189,205,201,175,166
2025-02-25 18:20:33.877,983.0,-2276.0,1321.0,-152.0,67.0,200.0,188,201,198,172,161
2025-02-25 18:20:33.882,710.0,-1973.0,1012.0,-203.0,54.0,197.0,189,202,201,176,165
2025-02-25 18:20:33.889,424.0,-1817.0,866.0,-248.0,42.0,196.0,184,199,198,173,160
2025-02-25 18:20:33.894,246.0,-1800.0,638.0,-278.0,28.0,193.0,190,203,200,176,165
2025-02-25 18:20:33.899,118.0,-1771.0,534.0,-300.0,11.0,185.0,188,202,201,178,163
2025-02-25 18:20:33.906,145.0,-1732.0,412.0,-304.0,-2.0,177.0,190,206,203,178,166
2025-02-25 18:20:33.910,147.0,-1730.0,384.0,-304.0,-14.0,166.0,185,199,199,174,161
2025-02-25 18:20:33.915,163.0,-1736.0,293.0,-290.0,-30.0,161.0,185,199,199,174,162
2025-02-25 18:20:33.922,147.0,-1703.0,366.0,-277.0,-36.0,162.0,179,194,193,170,158
2025-02-25 18:20:33.926,176.0,-1640.0,155.0,-237.0,-55.0,173.0,177,192,191,166,156
2025-02-25 18:20:33.931,168.0,-1616.0,240.0,-204.0,-56.0,178.0,172,188,188,166,152
2025-02-25 18:20:33.939,151.0,-1550.0,236.0,-156.0,-64.0,187.0,175,192,191,165,153
2025-02-25 18:20:33.943,102.0,-1469.0,339.0,-110.0,-60.0,199.0,176,195,195,171,158
2025-02-25 18:20:33.947,40.0,-1358.0,378.0,-77.0,-53.0,211.0,177,191,190,165,154
2025-02-25 18:20:33.955,13.0,-1250.0,375.0,-55.0,-44.0,223.0,172,189,191,164,154
2025-02-25 18:20:33.960,-27.0,-1095.0,387.0,-18.0,-34.0,231.0,171,189,188,164,151
2025-02-25 18:20:33.964,1.0,-945.0,382.0,20.0,-26.0,236.0,166,184,185,159,147
2025-02-25 18:20:33.971,-19.0,-919.0,411.0,41.0,-13.0,237.0,161,179,181,155,146
2025-02-25 18:20:33.976,-97.0,-843.0,505.0,50.0,6.0,241.0,172,189,189,163,153
2025-02-25 18:20:33.980,-159.0,-685.0,384.0,47.0,8.0,242.0,170,185,182,162,150
2025-02-25 18:20:33.987,-214.0,-588.0,538.0,38.0,17.0,243.0,165,183,182,158,149
2025-02-25 18:20:33.992,-292.0,-485.0,468.0,12.0,33.0,244.0,162,183,185,157,149
2025-02-25 18:20:33.996,-341.0,-376.0,450.0,-16.0,42.0,244.0,169,187,187,160,156
2025-02-25 18:20:34.000,-306.0,-253.0,482.0,-46.0,60.0,241.0,174,192,192,170,164
2025-02-25 18:20:34.008,-276.0,-112.0,458.0,-78.0,80.0,232.0,170,187,188,165,161
2025-02-25 18:20:34.013,-344.0,58.0,664.0,-93.0,112.0,218.0,169,186,185,161,159
2025-02-25 18:20:34.018,-442.0,100.0,600.0,-108.0,121.0,203.0,165,180,179,157,157
2025-02-25 18:20:34.025,-526.0,139.0,329.0,-132.0,125.0,189.0,165,183,181,160,162
2025-02-25 18:20:34.030,-577.0,86.0,-12.0,-144.0,113.0,182.0,165,179,181,159,161
2025-02-25 18:20:34.034,-581.0,300.0,-71.0,-141.0,106.0,172.0,171,186,184,163,167
2025-02-25 18:20:34.042,-585.0,326.0,-66.0,-123.0,104.0,168.0,169,185,185,164,168
2025-02-25 18:20:34.046,-739.0,260.0,114.0,-112.0,111.0,162.0,171,183,181,162,168
2025-02-25 18:20:34.051,-811.0,535.0,60.0,-100.0,113.0,139.0,169,177,176,161,166
2025-02-25 18:20:34.058,-836.0,493.0,22.0,-80.0,116.0,117.0,168,176,174,158,165
2025-02-25 18:20:34.062,-934.0,651.0,-265.0,-62.0,111.0,111.0,173,178,178,159,166
2025-02-25 18:20:34.067,-963.0,470.0,-186.0,-58.0,98.0,97.0,176,180,178,164,171
2025-02-25 18:20:34.074,-1106.0,486.0,-146.0,-62.0,100.0,75.0,176,175,177,162,170
2025-02-25 18:20:34.078,-1197.0,416.0,-162.0,-70.0,91.0,55.0,176,170,171,160,167
2025-02-25 18:20:34.082,-1170.0,434.0,-189.0,-88.0,82.0,43.0,173,163,168,160,164
2025-02-25 18:20:34.090,-1219.0,649.0,0.0,-100.0,83.0,27.0,172,156,161,154,159
2025-02-25 18:20:34.094,-1196.0,702.0,-203.0,-103.0,74.0,20.0,179,154,162,156,160
2025-02-25 18:20:34.099,-1139.0,697.0,-340.0,-103.0,48.0,8.0,182,155,162,161,165
2025-02-25 18:20:34.106,-1210.0,791.0,-258.0,-109.0,31.0,-10.0,183,154,164,161,163
2025-02-25 18:20:34.111,-1241.0,937.0,-195.0,-117.0,14.0,-30.0,183,150,158,157,162
2025-02-25 18:20:34.116,-1329.0,916.0,-271.0,-124.0,-15.0,-53.0,187,148,156,157,161
2025-02-25 18:20:34.123,-1284.0,914.0,-192.0,-120.0,-33.0,-74.0,189,151,156,159,162
2025-02-25 18:20:34.128,-1358.0,934.0,-106.0,-107.0,-36.0,-99.0,186,142,152,153,156
2025-02-25 18:20:34.132,-1398.0,976.0,-375.0,-80.0,-49.0,-131.0,185,135,149,152,156
2025-02-25 18:20:34.140,-1251.0,1047.0,-235.0,-42.0,-50.0,-157.0,188,136,149,151,154
2025-02-25 18:20:34.144,-1161.0,1077.0,-284.0,-8.0,-48.0,-168.0,190,136,154,153,156
2025-02-25 18:20:34.152,-986.0,1106.0,-30.0,31.0,-55.0,-190.0,188,132,146,150,152
2025-02-25 18:20:34.156,-1235.0,989.0,-208.0,28.0,-32.0,-207.0,193,136,147,156,156
2025-02-25 18:20:34.161,-1127.0,1101.0,-229.0,53.0,-26.0,-233.0,201,139,151,162,159
2025-02-25 18:20:34.168,-832.0,1146.0,-87.0,75.0,-20.0,-252.0,198,133,144,158,152
2025-02-25 18:20:34.172,-856.0,1011.0,8.0,66.0,-3.0,-286.0,196,128,141,154,147
2025-02-25 18:20:34.176,-791.0,919.0,-100.0,100.0,-2.0,-314.0,195,125,137,150,141
2025-02-25 18:20:34.185,-599.0,766.0,-55.0,99.0,3.0,-338.0,195,125,136,153,139
2025-02-25 18:20:34.189,-466.0,680.0,-147.0,105.0,-6.0,-350.0,199,128,138,153,139
2025-02-25 18:20:34.193,-377.0,605.0,-167.0,110.0,-24.0,-375.0,199,126,138,154,138
2025-02-25 18:20:34.201,-248.0,447.0,-154.0,102.0,-36.0,-391.0,201,124,140,154,137
2025-02-25 18:20:34.205,-127.0,338.0,-151.0,99.0,-46.0,-403.0,200,126,140,155,135
2025-02-25 18:20:34.209,-5.0,210.0,-116.0,100.0,-60.0,-412.0,202,127,137,152,137
2025-02-25 18:20:34.218,80.0,170.0,-119.0,98.0,-68.0,-418.0,197,118,129,145,129
2025-02-25 18:20:34.222,208.0,62.0,-26.0,99.0,-87.0,-430.0,201,119,135,149,131
2025-02-25 18:20:34.226,376.0,22.0,-22.0,96.0,-98.0,-446.0,206,125,137,151,134
2025-02-25 18:20:34.230,709.0,-169.0,82.0,93.0,-104.0,-442.0,206,121,136,149,133
2025-02-25 18:20:34.237,921.0,-578.0,105.0,92.0,-116.0,-434.0,205,121,133,146,131
2025-02-25 18:20:34.243,1145.0,-883.0,133.0,102.0,-126.0,-435.0,206,122,133,147,134
2025-02-25 18:20:34.250,1358.0,-1299.0,227.0,90.0,-140.0,-429.0,202,116,129,141,129
2025-02-25 18:20:34.254,1672.0,-1891.0,345.0,83.0,-142.0,-403.0,202,117,127,139,127
2025-02-25 18:20:34.259,1954.0,-2490.0,564.0,82.0,-126.0,-385.0,204,119,131,140,130
2025-02-25 18:20:34.266,2277.0,-2764.0,641.0,85.0,-95.0,-337.0,204,117,128,138,130
2025-02-25 18:20:34.271,2459.0,-3318.0,697.0,71.0,-49.0,-280.0,210,126,135,141,132
2025-02-25 18:20:34.275,2492.0,-3570.0,649.0,75.0,10.0,-210.0,212,122,136,143,134
2025-02-25 18:20:34.283,2416.0,-3837.0,761.0,84.0,78.0,-128.0,216,126,139,146,140
2025-02-25 18:20:34.287,2326.0,-3939.0,833.0,82.0,151.0,-41.0,210,121,133,141,132
2025-02-25 18:20:34.291,2133.0,-3887.0,870.0,71.0,196.0,37.0,207,117,129,136,127
2025-02-25 18:20:34.299,2030.0,-3460.0,690.0,54.0,197.0,90.0,206,116,130,134,125
2025-02-25 18:20:34.303,1811.0,-3267.0,286.0,56.0,175.0,103.0,207,117,133,137,126
2025-02-25 18:20:34.308,1410.0,-2996.0,188.0,19.0,186.0,128.0,212,125,136,141,129
2025-02-25 18:20:34.316,1346.0,-2343.0,103.0,72.0,2.0,127.0,211,121,133,139,127
2025-02-25 18:20:34.320,902.0,-2265.0,-38.0,51.0,-34.0,107.0,209,120,133,136,126
2025-02-25 18:20:34.325,914.0,-1831.0,-270.0,-41.0,-9.0,118.0,206,116,129,135,123
2025-02-25 18:20:34.332,731.0,-2078.0,-67.0,-109.0,-9.0,149.0,203,114,124,131,120
2025-02-25 18:20:34.336,610.0,-2166.0,-114.0,-133.0,-61.0,141.0,202,113,125,131,120
2025-02-25 18:20:34.340,678.0,-2175.0,-164.0,-156.0,-91.0,144.0,207,116,127,134,125
2025-02-25 18:20:34.348,516.0,-2309.0,-110.0,-141.0,-97.0,154.0,208,116,128,136,126
2025-02-25 18:20:34.353,633.0,-2178.0,-107.0,-105.0,-89.0,158.0,208,119,128,135,128
2025-02-25 18:20:34.361,526.0,-2176.0,-59.0,-75.0,-58.0,169.0,208,119,128,137,127
2025-02-25 18:20:34.365,603.0,-2140.0,-34.0,-80.0,-23.0,187.0,213,124,133,144,133
2025-02-25 18:20:34.369,563.0,-2050.0,139.0,-86.0,-25.0,207.0,212,122,132,139,131
2025-02-25 18:20:34.377,541.0,-1781.0,241.0,-103.0,-22.0,220.0,211,118,130,138,129
2025-02-25 18:20:34.382,535.0,-1617.0,224.0,-93.0,-24.0,226.0,210,119,128,137,128
2025-02-25 18:20:34.386,469.0,-1508.0,219.0,-78.0,-19.0,234.0,208,120,129,137,130
2025-02-25 18:20:34.394,392.0,-1447.0,183.0,-59.0,-17.0,237.0,208,117,127,137,128
2025-02-25 18:20:34.397,309.0,-1307.0,215.0,-52.0,-22.0,242.0,212,124,134,144,133
2025-02-25 18:20:34.403,223.0,-1209.0,181.0,-27.0,-30.0,247.0,216,128,137,147,138
2025-02-25 18:20:34.410,150.0,-1109.0,218.0,-16.0,-39.0,250.0,213,125,135,144,135
2025-02-25 18:20:34.414,117.0,-989.0,217.0,1.0,-46.0,250.0,211,122,135,143,134
2025-02-25 18:20:34.418,102.0,-860.0,266.0,-3.0,-45.0,251.0,208,118,129,137,128
2025-02-25 18:20:34.422,27.0,-788.0,280.0,-21.0,-36.0,251.0,209,118,130,139,128
2025-02-25 18:20:34.431,-19.0,-688.0,281.0,-38.0,-24.0,247.0,214,124,137,144,134
2025-02-25 18:20:34.435,-151.0,-585.0,298.0,-59.0,-8.0,243.0,213,126,136,144,135
2025-02-25 18:20:34.440,-208.0,-490.0,334.0,-68.0,4.0,239.0,210,124,132,144,132
2025-02-25 18:20:34.447,-219.0,-423.0,369.0,-77.0,7.0,232.0,210,123,134,139,131
2025-02-25 18:20:34.451,-269.0,-344.0,378.0,-79.0,14.0,230.0,211,120,131,139,129
2025-02-25 18:20:34.456,-357.0,-290.0,373.0,-80.0,31.0,223.0,213,126,135,144,135
2025-02-25 18:20:34.463,-436.0,-228.0,358.0,-80.0,47.0,221.0,217,131,141,149,140
2025-02-25 18:20:34.467,-513.0,-156.0,312.0,-67.0,46.0,215.0,215,124,135,146,135
2025-02-25 18:20:34.471,-606.0,-64.0,276.0,-66.0,40.0,207.0,213,124,134,143,134
2025-02-25 18:20:34.480,-626.0,44.0,247.0,-61.0,38.0,197.0,207,120,129,139,128
2025-02-25 18:20:34.484,-684.0,100.0,235.0,-46.0,34.0,191.0,211,121,131,140,131
2025-02-25 18:20:34.488,-693.0,191.0,225.0,-35.0,32.0,178.0,213,125,138,144,134
2025-02-25 18:20:34.493,-735.0,258.0,207.0,-25.0,28.0,164.0,213,125,136,144,134
2025-02-25 18:20:34.500,-781.0,278.0,186.0,-22.0,22.0,146.0,213,125,132,143,134
2025-02-25 18:20:34.504,-793.0,304.0,157.0,-16.0,20.0,129.0,209,122,130,140,130
2025-02-25 18:20:34.509,-848.0,317.0,125.0,-16.0,19.0,122.0,205,118,128,136,127
2025-02-25 18:20:34.517,-902.0,343.0,113.0,-17.0,24.0,106.0,214,126,135,145,135
2025-02-25 18:20:34.521,-919.0,437.0,88.0,-16.0,29.0,97.0,213,124,132,147,135
2025-02-25 18:20:34.525,-944.0,544.0,158.0,-16.0,32.0,83.0,209,121,130,142,130
2025-02-25 18:20:34.530,-1001.0,669.0,194.0,-12.0,34.0,68.0,211,118,127,136,128
2025-02-25 18:20:34.537,-1022.0,735.0,191.0,-11.0,42.0,59.0,212,127,133,144,134
2025-02-25 18:20:34.541,-1040.0,832.0,187.0,-14.0,53.0,42.0,219,134,139,151,140
2025-02-25 18:20:34.546,-1196.0,989.0,239.0,-14.0,57.0,25.0,212,125,134,147,134
2025-02-25 18:20:34.553,-1188.0,1114.0,211.0,3.0,63.0,4.0,209,121,127,140,129
2025-02-25 18:20:34.558,-1218.0,1169.0,195.0,23.0,65.0,-21.0,209,120,128,141,130
2025-02-25 18:20:34.562,-1230.0,1198.0,209.0,38.0,63.0,-34.0,215,131,138,149,139
2025-02-25 18:20:34.569,-1258.0,1204.0,203.0,51.0,55.0,-61.0,212,125,132,146,135
2025-02-25 18:20:34.574,-1279.0,1155.0,167.0,69.0,50.0,-87.0,212,125,133,146,135
2025-02-25 18:20:34.579,-1259.0,1166.0,111.0,82.0,42.0,-111.0,213,125,133,146,134
2025-02-25 18:20:34.586,-1269.0,1076.0,74.0,103.0,40.0,-138.0,213,121,129,143,133
2025-02-25 18:20:34.591,-1211.0,1032.0,-5.0,119.0,34.0,-164.0,207,118,132,141,129
2025-02-25 18:20:34.595,-1200.0,990.0,-65.0,132.0,29.0,-178.0,206,116,127,139,129
2025-02-25 18:20:34.602,-1152.0,913.0,-141.0,135.0,27.0,-201.0,219,126,134,140,135
2025-02-25 18:20:34.607,-1087.0,840.0,-121.0,140.0,20.0,-224.0,215,127,136,148,138
2025-02-25 18:20:34.611,-1022.0,751.0,-162.0,132.0,14.0,-246.0,215,126,133,145,135
2025-02-25 18:20:34.619,-922.0,664.0,-153.0,127.0,6.0,-267.0,210,124,134,145,135
2025-02-25 18:20:34.623,-791.0,580.0,-183.0,125.0,-2.0,-291.0,211,124,133,143,134
2025-02-25 18:20:34.627,-721.0,488.0,-167.0,117.0,-8.0,-318.0,208,121,127,141,132
2025-02-25 18:20:34.635,-561.0,429.0,-142.0,111.0,-27.0,-332.0,210,122,130,141,130
2025-02-25 18:20:34.640,-353.0,350.0,-113.0,99.0,-51.0,-359.0,208,119,128,140,129
2025-02-25 18:20:34.644,-126.0,213.0,-72.0,84.0,-82.0,-385.0,214,128,137,147,138
2025-02-25 18:20:34.652,81.0,-23.0,-52.0,66.0,-118.0,-407.0,212,127,136,147,138
2025-02-25 18:20:34.656,331.0,-319.0,-15.0,52.0,-151.0,-422.0,211,124,133,145,135
2025-02-25 18:20:34.660,585.0,-626.0,25.0,26.0,-171.0,-432.0,209,125,132,145,134
2025-02-25 18:20:34.668,715.0,-1013.0,67.0,-4.0,-176.0,-438.0,210,122,130,141,133
2025-02-25 18:20:34.672,1009.0,-1244.0,180.0,-42.0,-172.0,-437.0,207,118,128,141,132
2025-02-25 18:20:34.676,1404.0,-1735.0,300.0,-77.0,-157.0,-426.0,210,120,132,140,132
2025-02-25 18:20:34.684,1798.0,-2416.0,447.0,-93.0,-134.0,-399.0,215,126,137,148,141
2025-02-25 18:20:34.689,2217.0,-3165.0,482.0,-105.0,-111.0,-348.0,213,126,137,148,140
2025-02-25 18:20:34.696,2480.0,-3954.0,594.0,-104.0,-79.0,-274.0,213,127,137,145,139
2025-02-25 18:20:34.700,2427.0,-4265.0,533.0,-54.0,-14.0,-188.0,219,132,144,150,145
2025-02-25 18:20:34.705,2162.0,-4552.0,23.0,-27.0,151.0,-95.0,215,125,142,147,142
2025-02-25 18:20:34.713,2466.0,-3973.0,538.0,266.0,55.0,-31.0,213,125,138,146,140
2025-02-25 18:20:34.717,2237.0,-4369.0,434.0,246.0,62.0,3.0,213,122,138,146,140
2025-02-25 18:20:34.721,2304.0,-3353.0,-13.0,272.0,47.0,31.0,210,123,137,144,138
2025-02-25 18:20:34.729,2170.0,-3413.0,-13.0,160.0,80.0,93.0,209,119,132,143,135
2025-02-25 18:20:34.733,1406.0,-3270.0,-162.0,119.0,73.0,117.0,215,123,140,148,141
2025-02-25 18:20:34.738,1352.0,-2695.0,-387.0,-38.0,88.0,139.0,212,125,134,149,140
2025-02-25 18:20:34.746,840.0,-2270.0,-388.0,-93.0,81.0,172.0,211,129,141,150,142
2025-02-25 18:20:34.750,511.0,-2047.0,-535.0,-103.0,54.0,190.0,210,125,138,149,139
2025-02-25 18:20:34.755,334.0,-1963.0,-514.0,-56.0,39.0,197.0,210,126,135,146,142
2025-02-25 18:20:34.762,302.0,-1862.0,-496.0,-86.0,35.0,196.0,211,128,139,151,141
2025-02-25 18:20:34.767,395.0,-1709.0,-590.0,-153.0,44.0,193.0,217,135,146,158,150
2025-02-25 18:20:34.771,289.0,-1782.0,-489.0,-192.0,30.0,190.0,223,142,154,165,156
2025-02-25 18:20:34.778,273.0,-1777.0,-403.0,-254.0,-7.0,181.0,217,133,145,157,148
2025-02-25 18:20:34.783,89.0,-1850.0,-414.0,-232.0,-59.0,181.0,220,138,147,161,152
2025-02-25 18:20:34.791,334.0,-1654.0,-30.0,-225.0,-36.0,179.0,217,135,145,158,149
2025-02-25 18:20:34.795,279.0,-1679.0,-282.0,-205.0,2.0,187.0,217,132,145,159,148
2025-02-25 18:20:34.800,51.0,-1571.0,-622.0,-190.0,0.0,202.0,210,129,141,154,146
2025-02-25 18:20:34.807,69.0,-1446.0,-426.0,-121.0,-16.0,209.0,207,123,136,150,140
2025-02-25 18:20:34.812,109.0,-1430.0,130.0,-81.0,-39.0,204.0,207,126,134,149,139
2025-02-25 18:20:34.816,-6.0,-1271.0,-39.0,29.0,-89.0,202.0,206,124,138,151,140
2025-02-25 18:20:34.824,104.0,-1141.0,175.0,128.0,-147.0,196.0,210,129,139,155,145
2025-02-25 18:20:34.828,79.0,-1087.0,81.0,131.0,-159.0,200.0,211,130,142,155,145
2025-02-25 18:20:34.832,127.0,-869.0,120.0,101.0,-140.0,203.0,211,129,141,155,146
2025-02-25 18:20:34.840,103.0,-762.0,219.0,65.0,-107.0,211.0,208,127,140,153,143
2025-02-25 18:20:34.843,37.0,-705.0,279.0,16.0,-95.0,219.0,205,128,142,153,144
2025-02-25 18:20:34.848,-42.0,-691.0,248.0,-8.0,-79.0,218.0,205,125,136,149,138
2025-02-25 18:20:34.853,-46.0,-649.0,262.0,-37.0,-60.0,216.0,209,129,142,155,144
2025-02-25 18:20:34.861,-177.0,-490.0,175.0,-55.0,-32.0,217.0,211,129,141,156,145
2025-02-25 18:20:34.865,-217.0,-451.0,201.0,-64.0,-9.0,221.0,209,129,144,157,145
2025-02-25 18:20:34.870,-268.0,-362.0,240.0,-82.0,12.0,220.0,205,126,139,155,143
2025-02-25 18:20:34.877,-304.0,-235.0,235.0,-118.0,23.0,219.0,203,123,137,152,139
2025-02-25 18:20:34.881,-386.0,-173.0,210.0,-140.0,44.0,218.0,203,123,138,154,139
2025-02-25 18:20:34.885,-448.0,-70.0,155.0,-159.0,55.0,212.0,206,126,141,155,142
2025-02-25 18:20:34.893,-579.0,-125.0,51.0,-140.0,36.0,207.0,208,128,143,160,144
2025-02-25 18:20:34.897,-676.0,78.0,68.0,-43.0,-45.0,187.0,207,130,146,160,145
2025-02-25 18:20:34.901,-858.0,82.0,378.0,-27.0,-105.0,156.0,210,134,148,161,148
2025-02-25 18:20:34.909,-795.0,366.0,119.0,-21.0,-108.0,145.0,200,120,137,151,140
2025-02-25 18:20:34.913,-849.0,291.0,208.0,68.0,-75.0,142.0,200,126,139,153,141
2025-02-25 18:20:34.918,-921.0,333.0,416.0,99.0,-57.0,135.0,206,129,143,156,145
2025-02-25 18:20:34.926,-922.0,423.0,485.0,143.0,-42.0,130.0,207,131,146,159,146
2025-02-25 18:20:34.930,-937.0,545.0,291.0,148.0,-33.0,123.0,204,127,138,151,141
2025-02-25 18:20:34.935,-969.0,562.0,384.0,155.0,-19.0,112.0,202,125,136,148,138
2025-02-25 18:20:34.942,-960.0,607.0,370.0,156.0,-15.0,104.0,200,124,137,148,137
2025-02-25 18:20:34.946,-979.0,711.0,258.0,158.0,-15.0,97.0,199,118,133,147,135
2025-02-25 18:20:34.951,-975.0,686.0,353.0,138.0,-15.0,89.0,205,128,140,153,142
2025-02-25 18:20:34.955,-1097.0,798.0,456.0,79.0,3.0,73.0,205,126,140,156,142
2025-02-25 18:20:34.963,-985.0,1113.0,637.0,55.0,8.0,59.0,200,121,135,150,137
2025-02-25 18:20:34.967,-996.0,893.0,250.0,-2.0,15.0,42.0,200,120,134,148,134
2025-02-25 18:20:34.971,-1029.0,943.0,427.0,-14.0,44.0,30.0,207,128,139,156,140
2025-02-25 18:20:34.975,-1070.0,927.0,360.0,-24.0,64.0,5.0,205,125,142,155,140
2025-02-25 18:20:34.983,-1072.0,919.0,420.0,-19.0,87.0,-21.0,202,125,137,152,138
2025-02-25 18:20:34.987,-1114.0,983.0,408.0,-10.0,98.0,-56.0,199,119,133,148,133
2025-02-25 18:20:34.992,-1096.0,921.0,436.0,1.0,120.0,-90.0,200,120,133,148,130
2025-02-25 18:20:34.999,-1034.0,879.0,399.0,29.0,146.0,-107.0,203,126,135,152,135
2025-02-25 18:20:35.004,-883.0,823.0,358.0,55.0,170.0,-141.0,204,130,139,153,137
2025-02-25 18:20:35.009,-893.0,783.0,315.0,83.0,197.0,-168.0,202,126,135,152,133
2025-02-25 18:20:35.016,-882.0,656.0,193.0,100.0,213.0,-187.0,199,123,135,151,132
2025-02-25 18:20:35.020,-658.0,585.0,38.0,150.0,217.0,-212.0,192,118,128,147,124
2025-02-25 18:20:35.025,-664.0,626.0,-145.0,174.0,203.0,-240.0,190,118,130,141,126
2025-02-25 18:20:35.036,-682.0,668.0,-271.0,202.0,203.0,-252.0,185,116,125,144,122
2025-02-25 18:20:35.039,-640.0,593.0,-330.0,227.0,195.0,-272.0,191,124,134,151,130
2025-02-25 18:20:35.042,-667.0,516.0,-317.0,231.0,177.0,-294.0,194,129,140,157,135
2025-02-25 18:20:35.049,-636.0,543.0,-339.0,198.0,150.0,-331.0,188,125,134,152,130
2025-02-25 18:20:35.054,-611.0,435.0,-218.0,196.0,115.0,-373.0,186,123,135,151,130
2025-02-25 18:20:35.061,-459.0,373.0,-421.0,176.0,31.0,-420.0,181,123,131,153,126
2025-02-25 18:20:35.065,-272.0,213.0,-339.0,160.0,6.0,-460.0,179,118,129,147,126
2025-02-25 18:20:35.069,-116.0,-191.0,-139.0,133.0,-55.0,-483.0,177,118,126,143,123
2025-02-25 18:20:35.078,212.0,-711.0,-25.0,110.0,-88.0,-486.0,178,118,128,144,124
2025-02-25 18:20:35.082,563.0,-1026.0,353.0,106.0,-111.0,-472.0,182,124,133,148,127
2025-02-25 18:20:35.087,968.0,-1729.0,698.0,113.0,-123.0,-438.0,183,122,134,149,129
2025-02-25 18:20:35.094,1383.0,-2536.0,908.0,144.0,-111.0,-381.0,180,123,132,147,129
2025-02-25 18:20:35.098,1822.0,-3309.0,1231.0,186.0,-83.0,-307.0,179,124,133,146,128
2025-02-25 18:20:35.106,2149.0,-3996.0,1513.0,233.0,-34.0,-218.0,181,124,135,149,131
2025-02-25 18:20:35.110,2381.0,-4403.0,1753.0,267.0,31.0,-124.0,180,125,133,146,130
2025-02-25 18:20:35.115,2428.0,-4574.0,1839.0,274.0,100.0,-26.0,179,122,132,144,127
2025-02-25 18:20:35.122,2290.0,-4459.0,1728.0,279.0,153.0,53.0,176,121,133,141,125
2025-02-25 18:20:35.127,1929.0,-3978.0,1520.0,260.0,181.0,104.0,173,117,131,140,123
2025-02-25 18:20:35.131,1666.0,-3259.0,1266.0,205.0,182.0,132.0,171,117,131,137,119
2025-02-25 18:20:35.139,1195.0,-2524.0,1054.0,122.0,167.0,133.0,170,116,128,135,120
2025-02-25 18:20:35.143,825.0,-1966.0,756.0,23.0,126.0,124.0,174,118,134,139,123
2025-02-25 18:20:35.147,519.0,-1802.0,546.0,-79.0,79.0,119.0,175,117,133,140,122
2025-02-25 18:20:35.155,395.0,-1664.0,464.0,-166.0,35.0,107.0,174,123,136,142,126
2025-02-25 18:20:35.160,323.0,-1702.0,273.0,-229.0,-6.0,102.0,176,121,135,144,125
2025-02-25 18:20:35.167,290.0,-1889.0,200.0,-250.0,-36.0,103.0,173,120,134,144,124
2025-02-25 18:20:35.172,271.0,-2033.0,84.0,-269.0,-53.0,106.0,173,119,131,141,124
2025-02-25 18:20:35.176,256.0,-2206.0,67.0,-266.0,-58.0,118.0,169,118,130,140,121
2025-02-25 18:20:35.184,233.0,-2296.0,96.0,-241.0,-62.0,133.0,172,119,131,141,123
2025-02-25 18:20:35.189,238.0,-2314.0,136.0,-206.0,-64.0,143.0,170,122,129,143,123
2025-02-25 18:20:35.193,237.0,-2297.0,188.0,-167.0,-62.0,164.0,175,123,136,146,130
2025-02-25 18:20:35.201,212.0,-2184.0,219.0,-135.0,-56.0,184.0,175,126,137,145,127
2025-02-25 18:20:35.205,183.0,-2003.0,270.0,-104.0,-56.0,200.0,175,125,136,148,129
2025-02-25 18:20:35.209,141.0,-1772.0,341.0,-92.0,-56.0,211.0,174,119,134,146,126
2025-02-25 18:20:35.217,150.0,-1565.0,402.0,-71.0,-53.0,218.0,172,121,132,143,126
2025-02-25 18:20:35.221,156.0,-1374.0,446.0,-58.0,-51.0,224.0,170,117,129,140,122
2025-02-25 18:20:35.226,94.0,-1196.0,462.0,-55.0,-47.0,228.0,172,118,128,140,121
2025-02-25 18:20:35.233,37.0,-1111.0,460.0,-57.0,-41.0,230.0,172,121,132,141,123
2025-02-25 18:20:35.238,-21.0,-964.0,444.0,-61.0,-33.0,231.0,174,124,135,145,126
2025-02-25 18:20:35.242,-96.0,-845.0,421.0,-66.0,-28.0,231.0,180,130,138,152,132
2025-02-25 18:20:35.249,-162.0,-749.0,376.0,-66.0,-25.0,231.0,175,122,132,145,126
2025-02-25 18:20:35.254,-254.0,-672.0,327.0,-67.0,-23.0,232.0,169,117,128,142,123
2025-02-25 18:20:35.258,-304.0,-563.0,283.0,-67.0,-23.0,230.0,169,117,125,140,121
2025-02-25 18:20:35.266,-376.0,-511.0,247.0,-67.0,-25.0,229.0,169,114,125,141,122
2025-02-25 18:20:35.270,-442.0,-365.0,223.0,-71.0,-23.0,226.0,178,124,133,149,129
2025-02-25 18:20:35.275,-463.0,-255.0,231.0,-76.0,-23.0,219.0,175,124,134,147,129
2025-02-25 18:20:35.283,-514.0,-124.0,245.0,-81.0,-23.0,210.0,176,125,134,150,130
2025-02-25 18:20:35.286,-531.0,-35.0,254.0,-84.0,-19.0,199.0,175,122,136,146,126
2025-02-25 18:20:35.291,-555.0,37.0,267.0,-89.0,-17.0,185.0,172,117,127,142,122
2025-02-25 18:20:35.298,-564.0,106.0,270.0,-92.0,-13.0,171.0,171,121,128,143,123
2025-02-25 18:20:35.303,-567.0,126.0,267.0,-92.0,-5.0,163.0,179,126,134,148,129
2025-02-25 18:20:35.308,-618.0,140.0,265.0,-93.0,1.0,147.0,177,123,133,149,129
2025-02-25 18:20:35.311,-656.0,167.0,241.0,-92.0,5.0,133.0,174,122,131,146,126
2025-02-25 18:20:35.319,-684.0,180.0,196.0,-86.0,8.0,119.0,173,119,127,144,122
2025-02-25 18:20:35.323,-706.0,200.0,146.0,-83.0,14.0,114.0,173,120,129,144,126
2025-02-25 18:20:35.327,-740.0,200.0,110.0,-77.0,18.0,103.0,173,126,136,150,128
2025-02-25 18:20:35.335,-757.0,221.0,83.0,-72.0,22.0,94.0,177,125,134,149,130
2025-02-25 18:20:35.339,-796.0,239.0,47.0,-70.0,26.0,86.0,177,121,134,150,129
2025-02-25 18:20:35.344,-810.0,260.0,10.0,-65.0,28.0,80.0,170,119,130,144,124
2025-02-25 18:20:35.348,-822.0,282.0,-21.0,-60.0,31.0,77.0,178,125,137,150,129
2025-02-25 18:20:35.356,-853.0,303.0,-39.0,-53.0,32.0,72.0,177,125,136,148,129
2025-02-25 18:20:35.361,-878.0,314.0,-68.0,-50.0,33.0,68.0,177,124,132,149,127
2025-02-25 18:20:35.364,-906.0,336.0,-84.0,-41.0,33.0,65.0,172,118,127,143,123
2025-02-25 18:20:35.368,-921.0,346.0,-103.0,-30.0,31.0,63.0,168,116,126,139,121
2025-02-25 18:20:35.376,-934.0,376.0,-108.0,-17.0,29.0,58.0,178,123,132,147,129
2025-02-25 18:20:35.380,-934.0,407.0,-101.0,0.0,28.0,52.0,180,127,135,152,132
2025-02-25 18:20:35.385,-935.0,454.0,-87.0,9.0,30.0,43.0,173,118,129,149,125
2025-02-25 18:20:35.392,-924.0,504.0,-63.0,28.0,30.0,38.0,172,120,128,143,123
2025-02-25 18:20:35.397,-908.0,526.0,-36.0,46.0,35.0,27.0,179,124,134,151,131
2025-02-25 18:20:35.401,-902.0,569.0,-37.0,55.0,43.0,13.0,180,125,135,151,131
2025-02-25 18:20:35.406,-912.0,627.0,-36.0,74.0,47.0,-2.0,173,118,128,143,124
2025-02-25 18:20:35.413,-914.0,686.0,-63.0,91.0,57.0,-9.0,172,119,127,144,123
2025-02-25 18:20:35.417,-937.0,699.0,-80.0,107.0,68.0,-25.0,180,125,133,149,130
2025-02-25 18:20:35.421,-947.0,774.0,-124.0,120.0,77.0,-39.0,180,125,134,149,130
2025-02-25 18:20:35.427,-971.0,839.0,-164.0,126.0,86.0,-54.0,177,121,132,149,128
2025-02-25 18:20:35.434,-993.0,855.0,-218.0,140.0,90.0,-73.0,173,117,129,145,123
2025-02-25 18:20:35.439,-958.0,881.0,-296.0,153.0,95.0,-96.0,175,121,129,144,125
2025-02-25 18:20:35.443,-936.0,876.0,-363.0,169.0,97.0,-108.0,179,123,133,150,128
2025-02-25 18:20:35.450,-919.0,828.0,-410.0,191.0,95.0,-134.0,180,119,130,151,127
2025-02-25 18:20:35.454,-903.0,778.0,-495.0,213.0,88.0,-165.0,178,124,133,151,130
2025-02-25 18:20:35.459,-855.0,739.0,-567.0,225.0,76.0,-202.0,177,125,132,150,131
2025-02-25 18:20:35.467,-796.0,705.0,-605.0,245.0,56.0,-242.0,174,119,129,146,125
2025-02-25 18:20:35.471,-752.0,667.0,-621.0,266.0,44.0,-284.0,174,118,127,144,123
2025-02-25 18:20:35.475,-660.0,603.0,-583.0,276.0,14.0,-323.0,176,120,128,145,125
2025-02-25 18:20:35.483,-563.0,522.0,-533.0,285.0,-18.0,-340.0,175,119,129,146,126
2025-02-25 18:20:35.487,-396.0,340.0,-477.0,292.0,-53.0,-370.0,181,126,135,151,130
2025-02-25 18:20:35.495,-269.0,145.0,-443.0,299.0,-89.0,-392.0,180,124,133,152,129
2025-02-25 18:20:35.499,-166.0,-73.0,-392.0,306.0,-129.0,-405.0,179,126,134,152,132
2025-02-25 18:20:35.504,-69.0,-341.0,-344.0,311.0,-178.0,-411.0,179,124,134,152,131
2025-02-25 18:20:35.511,71.0,-549.0,-269.0,320.0,-235.0,-413.0,177,122,132,150,129
2025-02-25 18:20:35.516,291.0,-861.0,-134.0,332.0,-294.0,-412.0,179,119,131,149,125
2025-02-25 18:20:35.520,414.0,-1252.0,193.0,343.0,-320.0,-397.0,178,122,132,149,128
2025-02-25 18:20:35.528,809.0,-1814.0,672.0,371.0,-349.0,-356.0,177,119,128,145,126
2025-02-25 18:20:35.533,1236.0,-2248.0,1187.0,394.0,-349.0,-300.0,177,118,131,145,128
2025-02-25 18:20:35.540,1662.0,-2602.0,1631.0,417.0,-327.0,-237.0,180,121,132,147,129
2025-02-25 18:20:35.545,1913.0,-2802.0,2169.0,430.0,-289.0,-203.0,181,116,133,148,130
2025-02-25 18:20:35.552,2111.0,-2766.0,2606.0,415.0,-235.0,-138.0,180,120,134,145,129
2025-02-25 18:20:35.557,2131.0,-2797.0,2927.0,390.0,-172.0,-80.0,181,117,133,145,130
2025-02-25 18:20:35.561,2042.0,-2651.0,3236.0,333.0,-99.0,-30.0,182,119,134,144,128
2025-02-25 18:20:35.569,1901.0,-2386.0,3311.0,262.0,-25.0,4.0,187,124,141,152,135
2025-02-25 18:20:35.574,1651.0,-2099.0,3362.0,160.0,43.0,23.0,189,125,140,147,135
2025-02-25 18:20:35.578,1333.0,-1793.0,3175.0,52.0,94.0,32.0,192,125,140,153,137
2025-02-25 18:20:35.586,1075.0,-1618.0,2964.0,-6.0,132.0,38.0,187,125,138,148,132
2025-02-25 18:20:35.590,884.0,-1533.0,2589.0,-109.0,145.0,42.0,185,119,134,144,128
2025-02-25 18:20:35.594,748.0,-1505.0,2197.0,-201.0,160.0,49.0,183,119,134,141,127
2025-02-25 18:20:35.602,592.0,-1562.0,1820.0,-265.0,163.0,57.0,185,121,137,145,128
2025-02-25 18:20:35.606,454.0,-1564.0,1454.0,-305.0,159.0,62.0,183,116,134,143,126
2025-02-25 18:20:35.611,332.0,-1662.0,1197.0,-324.0,152.0,71.0,189,124,141,151,135
2025-02-25 18:20:35.618,298.0,-1720.0,1020.0,-322.0,145.0,83.0,191,126,143,153,137
2025-02-25 18:20:35.623,215.0,-1861.0,798.0,-306.0,138.0,96.0,190,126,141,150,135
2025-02-25 18:20:35.627,174.0,-1872.0,652.0,-295.0,125.0,106.0,188,114,140,149,132
2025-02-25 18:20:35.635,103.0,-1856.0,571.0,-262.0,115.0,112.0,192,123,139,150,133
2025-02-25 18:20:35.639,52.0,-1831.0,482.0,-224.0,103.0,120.0,186,120,138,149,132
2025-02-25 18:20:35.643,0.0,-1797.0,483.0,-175.0,86.0,126.0,184,116,134,145,131
2025-02-25 18:20:35.651,5.0,-1731.0,459.0,-129.0,71.0,130.0,185,119,136,146,129
2025-02-25 18:20:35.655,-22.0,-1697.0,503.0,-94.0,63.0,142.0,192,126,144,151,138
2025-02-25 18:20:35.659,-49.0,-1608.0,534.0,-64.0,57.0,155.0,193,128,142,154,139
2025-02-25 18:20:35.667,11.0,-1424.0,542.0,-51.0,54.0,165.0,191,123,142,150,136
2025-02-25 18:20:35.671,0.0,-1287.0,434.0,-34.0,51.0,173.0,185,118,136,146,132
2025-02-25 18:20:35.676,-20.0,-1205.0,538.0,-23.0,55.0,178.0,186,119,135,145,133
2025-02-25 18:20:35.684,-50.0,-1069.0,530.0,-19.0,61.0,185.0,193,129,143,152,141
2025-02-25 18:20:35.688,0.0,-927.0,505.0,-22.0,65.0,191.0,191,126,145,152,142
2025-02-25 18:20:35.692,-41.0,-813.0,454.0,-22.0,75.0,192.0,191,125,141,150,139
2025-02-25 18:20:35.697,-58.0,-789.0,554.0,-32.0,83.0,195.0,188,122,137,149,136
2025-02-25 18:20:35.704,-74.0,-708.0,598.0,-55.0,108.0,198.0,186,119,133,148,136
2025-02-25 18:20:35.709,-81.0,-665.0,353.0,-87.0,123.0,204.0,192,127,145,155,142
2025-02-25 18:20:35.713,-201.0,-578.0,289.0,-116.0,126.0,211.0,192,128,145,153,144
2025-02-25 18:20:35.721,-232.0,-450.0,342.0,-132.0,134.0,217.0,195,131,146,157,145
2025-02-25 18:20:35.725,-321.0,-375.0,208.0,-142.0,139.0,219.0,193,128,141,151,142
2025-02-25 18:20:35.733,-402.0,-288.0,291.0,-141.0,150.0,223.0,190,127,141,149,140
2025-02-25 18:20:35.737,-449.0,-279.0,130.0,-136.0,151.0,221.0,188,130,141,148,140
2025-02-25 18:20:35.741,-545.0,-178.0,144.0,-101.0,161.0,217.0,187,127,138,146,139
2025-02-25 18:20:35.749,-557.0,-207.0,13.0,-64.0,166.0,214.0,186,127,137,147,138
