timestamp,ax,ay,az,gx,gy,gz,flex1,flex2,flex3,flex4,flex5,emg1,emg2,emg3
2025-02-26 14:42:49.579,-210.0,-990.0,158.0,0.0,-2.0,-1.0,157,137,137,141,132
2025-02-26 14:42:49.582,-200.0,-990.0,157.0,0.0,-2.0,-1.0,155,137,138,142,133
2025-02-26 14:42:49.585,-201.0,-981.0,158.0,-1.0,-1.0,-1.0,155,138,137,143,135
2025-02-26 14:42:49.588,-196.0,-981.0,157.0,-2.0,-1.0,-1.0,154,135,137,141,132
2025-02-26 14:42:49.591,-202.0,-983.0,159.0,-2.0,-1.0,-1.0,158,139,139,144,134
2025-02-26 14:42:49.592,-202.0,-978.0,162.0,-2.0,0.0,-1.0,151,138,138,145,135
2025-02-26 14:42:49.597,-208.0,-990.0,166.0,-2.0,0.0,-1.0,153,136,135,140,132
2025-02-26 14:42:49.600,-212.0,-989.0,167.0,-2.0,-1.0,-1.0,156,138,140,143,135
2025-02-26 14:42:49.603,-201.0,-992.0,167.0,-2.0,-1.0,-1.0,153,133,138,143,135
2025-02-26 14:42:49.606,-204.0,-992.0,167.0,-2.0,-1.0,-1.0,152,138,136,140,129
2025-02-26 14:42:49.609,-205.0,-989.0,165.0,-1.0,-1.0,-1.0,156,140,139,142,134
2025-02-26 14:42:49.609,-205.0,-991.0,169.0,-1.0,-1.0,-1.0,158,139,139,143,135
2025-02-26 14:42:49.616,-211.0,-991.0,173.0,-1.0,-1.0,-1.0,154,137,137,142,133
2025-02-26 14:42:49.619,-208.0,-987.0,180.0,0.0,-1.0,-1.0,159,138,139,145,133
2025-02-26 14:42:49.619,-207.0,-987.0,174.0,-1.0,0.0,-1.0,154,138,139,142,133
2025-02-26 14:42:49.619,-207.0,-983.0,173.0,0.0,0.0,-1.0,155,136,136,142,132
2025-02-26 14:42:49.627,-213.0,-980.0,179.0,0.0,0.0,0.0,156,139,138,143,134
2025-02-26 14:42:49.631,-212.0,-975.0,180.0,0.0,1.0,0.0,156,137,138,142,133
2025-02-26 14:42:49.631,-209.0,-972.0,182.0,0.0,1.0,0.0,157,136,136,140,131
2025-02-26 14:42:49.631,-209.0,-976.0,180.0,-1.0,1.0,0.0,156,138,140,144,135
2025-02-26 14:42:49.639,-209.0,-974.0,182.0,-1.0,1.0,0.0,156,138,138,143,134
2025-02-26 14:42:49.640,-209.0,-972.0,180.0,-2.0,1.0,0.0,152,135,136,140,130
2025-02-26 14:42:49.640,-216.0,-978.0,179.0,-2.0,1.0,0.0,156,139,139,142,135
2025-02-26 14:42:49.647,-217.0,-976.0,182.0,-2.0,1.0,0.0,154,137,137,140,132
2025-02-26 14:42:49.650,-211.0,-980.0,173.0,-2.0,1.0,-1.0,152,135,136,140,132
2025-02-26 14:42:49.651,-212.0,-979.0,175.0,-2.0,1.0,-1.0,154,139,138,143,134
2025-02-26 14:42:49.651,-212.0,-976.0,173.0,-2.0,1.0,-1.0,157,138,140,142,134
2025-02-26 14:42:49.657,-214.0,-978.0,177.0,-2.0,1.0,-1.0,154,137,136,139,132
2025-02-26 14:42:49.661,-212.0,-980.0,176.0,-2.0,1.0,0.0,156,139,137,142,135
2025-02-26 14:42:49.663,-225.0,-985.0,179.0,-2.0,1.0,0.0,156,138,139,141,133
2025-02-26 14:42:49.663,-221.0,-987.0,183.0,-2.0,1.0,0.0,157,135,136,140,132
2025-02-26 14:42:49.671,-221.0,-993.0,183.0,-1.0,0.0,0.0,155,135,136,140,133
2025-02-26 14:42:49.673,-218.0,-987.0,182.0,-1.0,0.0,0.0,157,140,136,146,136
2025-02-26 14:42:49.673,-211.0,-980.0,181.0,-1.0,0.0,1.0,157,138,135,142,134
2025-02-26 14:42:49.673,-212.0,-974.0,181.0,-2.0,0.0,1.0,152,136,134,139,132
2025-02-26 14:42:49.683,-215.0,-973.0,177.0,-2.0,0.0,1.0,158,139,137,143,136
2025-02-26 14:42:49.684,-212.0,-974.0,182.0,-2.0,1.0,1.0,157,139,138,143,135
2025-02-26 14:42:49.689,-209.0,-976.0,179.0,-2.0,1.0,1.0,154,136,137,140,132
2025-02-26 14:42:49.692,-215.0,-975.0,174.0,-3.0,2.0,0.0,154,137,137,141,132
2025-02-26 14:42:49.695,-216.0,-973.0,175.0,-3.0,2.0,0.0,157,142,141,144,136
2025-02-26 14:42:49.696,-216.0,-972.0,175.0,-3.0,2.0,0.0,154,138,139,142,134
2025-02-26 14:42:49.700,-216.0,-974.0,176.0,-4.0,2.0,0.0,155,136,136,140,132
2025-02-26 14:42:49.700,-214.0,-978.0,173.0,-4.0,3.0,0.0,156,138,140,143,136
2025-02-26 14:42:49.700,-212.0,-979.0,174.0,-4.0,3.0,-1.0,156,140,139,142,134
2025-02-26 14:42:49.706,-209.0,-980.0,174.0,-4.0,3.0,0.0,153,139,138,142,134
2025-02-26 14:42:49.706,-210.0,-978.0,170.0,-4.0,3.0,0.0,153,136,136,139,132
2025-02-26 14:42:49.706,-210.0,-980.0,172.0,-4.0,3.0,0.0,158,140,141,143,134
2025-02-26 14:42:49.717,-213.0,-983.0,174.0,-4.0,3.0,0.0,156,139,138,144,137
2025-02-26 14:42:49.719,-218.0,-981.0,170.0,-3.0,3.0,0.0,157,138,137,140,133
2025-02-26 14:42:49.723,-213.0,-979.0,165.0,-4.0,3.0,0.0,156,139,138,142,139
2025-02-26 14:42:49.726,-209.0,-977.0,166.0,-4.0,3.0,0.0,156,137,135,143,132
2025-02-26 14:42:49.730,-211.0,-971.0,163.0,-4.0,3.0,0.0,153,137,138,139,133
2025-02-26 14:42:49.730,-214.0,-975.0,161.0,-4.0,3.0,-1.0,157,137,137,143,134
2025-02-26 14:42:49.730,-216.0,-969.0,160.0,-4.0,3.0,-1.0,158,135,138,142,132
2025-02-26 14:42:49.739,-211.0,-972.0,162.0,-5.0,3.0,-1.0,158,140,139,143,133
2025-02-26 14:42:49.740,-215.0,-970.0,160.0,-5.0,3.0,-1.0,155,136,137,142,133
2025-02-26 14:42:49.740,-212.0,-972.0,158.0,-5.0,3.0,-1.0,156,139,138,141,135
2025-02-26 14:42:49.740,-219.0,-978.0,157.0,-5.0,3.0,-1.0,155,139,140,143,132
2025-02-26 14:42:49.750,-219.0,-977.0,154.0,-4.0,4.0,0.0,156,140,139,142,135
2025-02-26 14:42:49.752,-222.0,-979.0,153.0,-4.0,3.0,0.0,155,138,137,141,133
2025-02-26 14:42:49.757,-223.0,-980.0,155.0,-3.0,3.0,0.0,157,140,140,142,132
2025-02-26 14:42:49.759,-220.0,-980.0,160.0,-3.0,2.0,0.0,154,138,139,141,134
2025-02-26 14:42:49.763,-222.0,-980.0,157.0,-3.0,2.0,0.0,155,138,138,142,135
2025-02-26 14:42:49.765,-220.0,-980.0,156.0,-3.0,1.0,0.0,157,137,141,143,134
2025-02-26 14:42:49.769,-214.0,-977.0,159.0,-3.0,1.0,0.0,156,137,138,142,135
2025-02-26 14:42:49.772,-209.0,-972.0,151.0,-3.0,1.0,0.0,154,136,136,140,133
2025-02-26 14:42:49.775,-207.0,-965.0,151.0,-3.0,1.0,0.0,158,138,141,143,135
2025-02-26 14:42:49.777,-207.0,-968.0,151.0,-4.0,1.0,0.0,155,140,140,144,135
2025-02-26 14:42:49.779,-204.0,-975.0,147.0,-4.0,1.0,0.0,155,138,139,143,133
2025-02-26 14:42:49.782,-200.0,-968.0,145.0,-5.0,1.0,0.0,154,138,136,141,132
2025-02-26 14:42:49.784,-201.0,-971.0,143.0,-5.0,1.0,0.0,159,141,141,146,137
2025-02-26 14:42:49.785,-203.0,-976.0,146.0,-5.0,2.0,0.0,157,139,140,143,136
2025-02-26 14:42:49.788,-209.0,-979.0,144.0,-5.0,2.0,0.0,155,137,137,141,133
2025-02-26 14:42:49.788,-205.0,-979.0,143.0,-4.0,1.0,0.0,154,137,137,140,132
2025-02-26 14:42:49.788,-209.0,-981.0,140.0,-4.0,1.0,0.0,159,139,139,144,136
2025-02-26 14:42:49.788,-210.0,-982.0,143.0,-3.0,1.0,0.0,158,139,139,142,134
2025-02-26 14:42:49.796,-212.0,-984.0,144.0,-3.0,0.0,1.0,150,136,136,140,132
2025-02-26 14:42:49.796,-211.0,-980.0,142.0,-2.0,0.0,1.0,157,139,137,143,135
2025-02-26 14:42:49.801,-215.0,-984.0,149.0,-2.0,-1.0,1.0,160,141,142,145,137
2025-02-26 14:42:49.806,-218.0,-988.0,148.0,-2.0,-1.0,2.0,155,138,137,142,134
2025-02-26 14:42:49.809,-219.0,-981.0,145.0,-2.0,-1.0,2.0,154,137,138,142,133
2025-02-26 14:42:49.815,-217.0,-979.0,145.0,-1.0,-1.0,2.0,158,139,139,144,135
2025-02-26 14:42:49.815,-219.0,-972.0,151.0,-2.0,-1.0,2.0,158,139,140,144,137
2025-02-26 14:42:49.827,-214.0,-970.0,147.0,-2.0,-2.0,2.0,155,137,137,141,133
2025-02-26 14:42:49.827,-210.0,-970.0,150.0,-1.0,-1.0,1.0,155,135,135,140,133
2025-02-26 14:42:49.835,-206.0,-963.0,153.0,-1.0,-1.0,1.0,157,138,138,143,135
2025-02-26 14:42:49.839,-205.0,-966.0,154.0,-1.0,-1.0,1.0,156,140,138,142,135
2025-02-26 14:42:49.845,-209.0,-965.0,154.0,-1.0,-1.0,1.0,154,137,138,142,133
2025-02-26 14:42:49.851,-211.0,-969.0,155.0,-1.0,0.0,1.0,153,136,136,140,132
2025-02-26 14:42:49.855,-213.0,-967.0,154.0,-2.0,1.0,0.0,158,138,139,143,135
2025-02-26 14:42:49.855,-214.0,-971.0,155.0,-2.0,0.0,0.0,157,138,139,144,136
2025-02-26 14:42:49.868,-216.0,-973.0,155.0,-2.0,1.0,1.0,155,137,136,140,133
2025-02-26 14:42:49.872,-217.0,-977.0,158.0,-1.0,1.0,1.0,157,139,139,144,137
2025-02-26 14:42:49.875,-217.0,-980.0,157.0,-1.0,1.0,1.0,156,137,137,141,134
2025-02-26 14:42:49.881,-218.0,-983.0,161.0,-1.0,0.0,1.0,158,137,137,141,134
2025-02-26 14:42:49.882,-222.0,-985.0,161.0,0.0,0.0,2.0,152,136,137,142,133
2025-02-26 14:42:49.882,-225.0,-979.0,164.0,1.0,-1.0,2.0,156,139,141,143,134
2025-02-26 14:42:49.897,-224.0,-982.0,164.0,1.0,0.0,2.0,156,137,137,140,132
2025-02-26 14:42:49.899,-220.0,-978.0,165.0,2.0,-1.0,3.0,155,135,136,141,131
2025-02-26 14:42:49.905,-215.0,-983.0,167.0,2.0,0.0,3.0,156,139,138,143,136
2025-02-26 14:42:49.911,-205.0,-991.0,177.0,3.0,1.0,3.0,156,140,138,142,136
2025-02-26 14:42:49.916,-209.0,-987.0,179.0,4.0,1.0,3.0,153,136,137,140,132
2025-02-26 14:42:49.921,-204.0,-978.0,176.0,5.0,2.0,3.0,157,141,140,144,135
2025-02-26 14:42:49.924,-212.0,-975.0,169.0,5.0,3.0,2.0,158,138,138,143,134
2025-02-26 14:42:49.929,-211.0,-972.0,166.0,5.0,4.0,2.0,154,136,137,142,132
2025-02-26 14:42:49.936,-211.0,-970.0,163.0,5.0,4.0,2.0,158,138,139,144,134
2025-02-26 14:42:49.942,-214.0,-969.0,162.0,5.0,5.0,2.0,158,140,140,144,135
2025-02-26 14:42:49.946,-216.0,-959.0,156.0,5.0,6.0,1.0,155,138,137,140,134
2025-02-26 14:42:49.948,-229.0,-959.0,149.0,5.0,6.0,1.0,156,137,138,143,135
2025-02-26 14:42:49.958,-228.0,-962.0,152.0,5.0,6.0,1.0,157,140,137,142,135
2025-02-26 14:42:49.958,-224.0,-958.0,147.0,5.0,6.0,1.0,155,137,138,143,127
2025-02-26 14:42:49.966,-233.0,-960.0,145.0,4.0,5.0,1.0,158,139,139,142,135
2025-02-26 14:42:49.970,-228.0,-958.0,147.0,4.0,5.0,0.0,157,138,138,143,135
2025-02-26 14:42:49.975,-231.0,-963.0,145.0,3.0,4.0,0.0,155,137,137,140,132
2025-02-26 14:42:49.978,-230.0,-962.0,153.0,3.0,3.0,0.0,155,139,138,143,134
2025-02-26 14:42:49.987,-223.0,-974.0,147.0,1.0,2.0,0.0,158,139,139,143,134
2025-02-26 14:42:49.991,-224.0,-966.0,153.0,1.0,2.0,0.0,155,137,137,140,133
2025-02-26 14:42:49.995,-222.0,-968.0,150.0,1.0,1.0,0.0,153,132,135,139,131
2025-02-26 14:42:49.997,-226.0,-973.0,156.0,0.0,1.0,0.0,158,141,140,144,136
2025-02-26 14:42:50.007,-223.0,-970.0,155.0,0.0,1.0,0.0,158,138,137,141,133
2025-02-26 14:42:50.009,-223.0,-976.0,163.0,-1.0,1.0,0.0,153,135,136,141,132
2025-02-26 14:42:50.015,-226.0,-975.0,151.0,-1.0,0.0,1.0,156,137,139,143,134
2025-02-26 14:42:50.020,-229.0,-980.0,166.0,-1.0,0.0,1.0,156,138,140,143,134
2025-02-26 14:42:50.020,-231.0,-983.0,167.0,-1.0,0.0,1.0,154,136,137,141,133
2025-02-26 14:42:50.020,-230.0,-987.0,158.0,-1.0,0.0,2.0,157,138,138,143,134
2025-02-26 14:42:50.033,-229.0,-984.0,167.0,-1.0,0.0,1.0,155,138,138,144,135
2025-02-26 14:42:50.037,-228.0,-982.0,162.0,-1.0,0.0,2.0,154,137,138,141,134
2025-02-26 14:42:50.045,-231.0,-981.0,162.0,1.0,1.0,2.0,155,138,136,139,133
2025-02-26 14:42:50.045,-230.0,-969.0,162.0,1.0,1.0,1.0,157,138,139,143,134
2025-02-26 14:42:50.056,-226.0,-971.0,163.0,1.0,1.0,1.0,154,136,138,142,135
2025-02-26 14:42:50.060,-228.0,-968.0,158.0,2.0,2.0,1.0,153,137,140,143,134
2025-02-26 14:42:50.063,-223.0,-960.0,165.0,2.0,2.0,0.0,156,139,140,143,135
2025-02-26 14:42:50.069,-227.0,-958.0,160.0,1.0,2.0,0.0,156,137,139,143,135
2025-02-26 14:42:50.075,-234.0,-959.0,156.0,1.0,3.0,0.0,155,136,138,142,132
2025-02-26 14:42:50.080,-234.0,-960.0,160.0,1.0,3.0,-1.0,155,139,140,144,135
2025-02-26 14:42:50.085,-231.0,-954.0,161.0,2.0,3.0,-1.0,156,138,138,141,134
2025-02-26 14:42:50.087,-233.0,-957.0,159.0,0.0,3.0,-1.0,153,132,135,140,132
2025-02-26 14:42:50.097,-237.0,-959.0,157.0,0.0,2.0,-2.0,155,137,139,143,134
2025-02-26 14:42:50.100,-233.0,-962.0,153.0,-1.0,2.0,-2.0,157,138,138,143,135
2025-02-26 14:42:50.106,-237.0,-967.0,162.0,0.0,2.0,-2.0,156,137,139,142,134
2025-02-26 14:42:50.106,-240.0,-979.0,162.0,-2.0,3.0,-2.0,156,138,137,141,133
2025-02-26 14:42:50.118,-231.0,-983.0,172.0,-1.0,2.0,-1.0,159,137,138,142,134
2025-02-26 14:42:50.118,-232.0,-972.0,163.0,0.0,3.0,-1.0,156,138,139,143,136
2025-02-26 14:42:50.126,-226.0,-974.0,163.0,-1.0,2.0,-1.0,157,137,137,142,133
2025-02-26 14:42:50.130,-229.0,-978.0,160.0,-2.0,2.0,-1.0,155,135,133,139,132
2025-02-26 14:42:50.138,-236.0,-977.0,158.0,-2.0,1.0,-1.0,157,138,139,142,135
2025-02-26 14:42:50.142,-233.0,-974.0,156.0,-2.0,0.0,-1.0,156,138,144,142,134
2025-02-26 14:42:50.142,-231.0,-967.0,159.0,-2.0,1.0,-1.0,156,136,138,141,132
2025-02-26 14:42:50.154,-232.0,-962.0,126.0,-4.0,1.0,-1.0,150,134,135,140,132
2025-02-26 14:42:50.154,-217.0,-970.0,170.0,-5.0,-3.0,-1.0,157,139,140,143,134
2025-02-26 14:42:50.154,-222.0,-960.0,204.0,-3.0,1.0,-2.0,159,139,138,142,134
2025-02-26 14:42:50.166,-232.0,-965.0,123.0,1.0,1.0,-3.0,156,137,136,141,133
2025-02-26 14:42:50.171,-220.0,-931.0,160.0,-1.0,4.0,-3.0,156,138,138,141,135
2025-02-26 14:42:50.178,-231.0,-962.0,162.0,0.0,1.0,-3.0,156,139,138,144,134
2025-02-26 14:42:50.183,-237.0,-964.0,155.0,0.0,0.0,-3.0,156,137,137,142,136
2025-02-26 14:42:50.187,-229.0,-964.0,147.0,-1.0,0.0,-3.0,156,136,136,141,133
2025-02-26 14:42:50.196,-235.0,-972.0,155.0,-2.0,1.0,-3.0,156,139,140,143,134
2025-02-26 14:42:50.199,-239.0,-980.0,155.0,-1.0,0.0,-2.0,159,138,141,147,137
2025-02-26 14:42:50.203,-236.0,-965.0,178.0,-1.0,1.0,-3.0,155,137,137,141,134
2025-02-26 14:42:50.208,-244.0,-981.0,148.0,0.0,1.0,-2.0,156,138,138,140,132
2025-02-26 14:42:50.209,-239.0,-976.0,145.0,0.0,1.0,-2.0,154,139,140,142,134
2025-02-26 14:42:50.220,-230.0,-969.0,155.0,0.0,1.0,-2.0,157,140,141,144,136
2025-02-26 14:42:50.224,-230.0,-965.0,168.0,0.0,1.0,-2.0,155,135,138,140,133
2025-02-26 14:42:50.224,-229.0,-966.0,174.0,-1.0,1.0,-3.0,156,137,139,141,134
2025-02-26 14:42:50.232,-227.0,-958.0,158.0,0.0,2.0,-3.0,157,137,138,142,134
2025-02-26 14:42:50.239,-228.0,-962.0,158.0,-1.0,1.0,-3.0,157,138,139,142,134
2025-02-26 14:42:50.244,-226.0,-960.0,168.0,-2.0,1.0,-3.0,156,137,136,142,133
2025-02-26 14:42:50.249,-228.0,-960.0,172.0,-1.0,2.0,-2.0,155,137,138,142,134
2025-02-26 14:42:50.251,-233.0,-957.0,161.0,-1.0,2.0,-3.0,157,138,138,143,134
2025-02-26 14:42:50.261,-236.0,-962.0,167.0,0.0,3.0,-3.0,155,138,139,143,134
2025-02-26 14:42:50.263,-239.0,-962.0,153.0,2.0,3.0,-3.0,156,135,136,140,133
2025-02-26 14:42:50.269,-238.0,-960.0,167.0,3.0,3.0,-4.0,156,137,137,142,134
2025-02-26 14:42:50.274,-242.0,-966.0,160.0,3.0,2.0,-4.0,155,138,139,143,134
2025-02-26 14:42:50.281,-241.0,-963.0,174.0,2.0,3.0,-4.0,156,137,137,142,134
2025-02-26 14:42:50.281,-242.0,-969.0,164.0,2.0,2.0,-4.0,157,137,138,143,135
2025-02-26 14:42:50.290,-241.0,-968.0,171.0,3.0,3.0,-4.0,155,138,138,143,135
2025-02-26 14:42:50.294,-240.0,-978.0,162.0,2.0,3.0,-4.0,155,138,136,141,133
2025-02-26 14:42:50.302,-237.0,-980.0,170.0,2.0,3.0,-5.0,154,136,138,141,138
2025-02-26 14:42:50.302,-236.0,-979.0,172.0,2.0,2.0,-5.0,156,138,137,142,134
2025-02-26 14:42:50.310,-236.0,-989.0,161.0,1.0,2.0,-4.0,157,137,138,140,134
2025-02-26 14:42:50.312,-234.0,-988.0,175.0,0.0,3.0,-4.0,155,135,134,140,132
2025-02-26 14:42:50.322,-230.0,-991.0,178.0,2.0,3.0,-4.0,156,138,139,143,135
2025-02-26 14:42:50.324,-229.0,-997.0,169.0,2.0,3.0,-4.0,156,137,137,141,133
2025-02-26 14:42:50.324,-224.0,-993.0,187.0,3.0,4.0,-3.0,154,136,137,139,132
2025-02-26 14:42:50.335,-229.0,-1007.0,156.0,4.0,4.0,-3.0,155,136,136,140,132
2025-02-26 14:42:50.342,-231.0,-999.0,185.0,5.0,6.0,-4.0,155,137,141,143,135
2025-02-26 14:42:50.346,-236.0,-1015.0,157.0,7.0,5.0,-3.0,157,136,137,142,134
2025-02-26 14:42:50.351,-235.0,-1007.0,182.0,7.0,5.0,-4.0,156,135,135,138,131
2025-02-26 14:42:50.356,-228.0,-1000.0,144.0,5.0,5.0,-3.0,156,137,139,140,132
2025-02-26 14:42:50.363,-226.0,-1011.0,158.0,4.0,5.0,-4.0,153,143,139,140,134
2025-02-26 14:42:50.368,-209.0,-1024.0,184.0,3.0,4.0,-3.0,153,137,136,140,132
2025-02-26 14:42:50.369,-229.0,-1006.0,180.0,5.0,6.0,-3.0,154,137,136,140,132
2025-02-26 14:42:50.376,-228.0,-1014.0,158.0,5.0,5.0,-2.0,156,137,137,142,133
2025-02-26 14:42:50.381,-224.0,-1001.0,173.0,3.0,7.0,-2.0,154,136,138,142,133
2025-02-26 14:42:50.387,-218.0,-1007.0,162.0,2.0,7.0,-1.0,153,131,136,141,133
2025-02-26 14:42:50.393,-224.0,-1028.0,178.0,5.0,6.0,-1.0,150,137,136,142,131
2025-02-26 14:42:50.397,-221.0,-1021.0,191.0,3.0,5.0,0.0,155,137,138,142,133
2025-02-26 14:42:50.404,-223.0,-1017.0,165.0,2.0,7.0,0.0,155,137,139,139,133
2025-02-26 14:42:50.409,-233.0,-1014.0,151.0,3.0,8.0,0.0,154,135,137,140,132
2025-02-26 14:42:50.413,-225.0,-1013.0,170.0,-1.0,5.0,0.0,162,136,137,141,134
2025-02-26 14:42:50.417,-213.0,-984.0,191.0,-2.0,8.0,0.0,155,138,138,142,134
2025-02-26 14:42:50.425,-230.0,-1000.0,144.0,-3.0,6.0,0.0,155,135,137,141,133
2025-02-26 14:42:50.428,-226.0,-993.0,145.0,-3.0,6.0,0.0,154,134,136,139,132
2025-02-26 14:42:50.433,-217.0,-999.0,150.0,-5.0,6.0,1.0,155,138,138,142,134
2025-02-26 14:42:50.438,-234.0,-987.0,144.0,-7.0,4.0,1.0,156,136,138,140,129
2025-02-26 14:42:50.445,-227.0,-980.0,162.0,-8.0,4.0,1.0,153,136,134,140,132
2025-02-26 14:42:50.449,-216.0,-985.0,157.0,-8.0,5.0,1.0,156,136,136,141,134
2025-02-26 14:42:50.454,-226.0,-988.0,145.0,-9.0,3.0,1.0,155,137,136,140,133
2025-02-26 14:42:50.458,-234.0,-1000.0,166.0,-8.0,4.0,1.0,153,136,135,140,133
2025-02-26 14:42:50.466,-230.0,-975.0,159.0,-10.0,5.0,1.0,154,136,136,140,133
2025-02-26 14:42:50.470,-238.0,-969.0,169.0,-7.0,3.0,1.0,155,136,137,141,133
2025-02-26 14:42:50.474,-234.0,-977.0,161.0,-8.0,3.0,0.0,158,137,138,142,134
2025-02-26 14:42:50.478,-233.0,-969.0,160.0,-6.0,5.0,-1.0,156,139,138,142,134
2025-02-26 14:42:50.483,-230.0,-963.0,124.0,-3.0,3.0,-1.0,153,134,136,139,131
2025-02-26 14:42:50.491,-227.0,-955.0,140.0,-3.0,4.0,-1.0,156,137,139,141,134
2025-02-26 14:42:50.494,-230.0,-957.0,149.0,-4.0,4.0,-2.0,155,136,136,141,133
2025-02-26 14:42:50.497,-225.0,-953.0,147.0,-5.0,3.0,-3.0,155,138,138,142,134
2025-02-26 14:42:50.497,-224.0,-958.0,156.0,-7.0,3.0,-3.0,154,136,137,140,132
2025-02-26 14:42:50.510,-223.0,-961.0,161.0,-6.0,4.0,-3.0,155,137,136,141,134
2025-02-26 14:42:50.510,-230.0,-968.0,141.0,-7.0,5.0,-3.0,156,135,136,140,132
2025-02-26 14:42:50.510,-217.0,-961.0,164.0,-7.0,6.0,-2.0,154,136,137,141,133
2025-02-26 14:42:50.525,-218.0,-972.0,151.0,-7.0,7.0,-2.0,155,136,138,142,133
2025-02-26 14:42:50.525,-226.0,-983.0,166.0,-7.0,10.0,-2.0,156,137,137,141,134
2025-02-26 14:42:50.536,-220.0,-986.0,150.0,-6.0,10.0,-1.0,155,136,137,138,133
2025-02-26 14:42:50.538,-225.0,-988.0,144.0,-6.0,11.0,-1.0,154,136,137,141,132
2025-02-26 14:42:50.546,-233.0,-1002.0,143.0,-8.0,10.0,0.0,154,136,136,140,132
2025-02-26 14:42:50.549,-232.0,-988.0,151.0,-7.0,9.0,0.0,155,136,137,142,134
2025-02-26 14:42:50.556,-233.0,-997.0,140.0,-7.0,8.0,1.0,154,137,136,140,133
2025-02-26 14:42:50.561,-239.0,-981.0,157.0,-6.0,8.0,1.0,157,136,135,139,132
2025-02-26 14:42:50.568,-229.0,-980.0,159.0,-5.0,9.0,1.0,157,135,139,142,134
2025-02-26 14:42:50.572,-229.0,-969.0,151.0,-3.0,10.0,1.0,156,136,136,142,133
2025-02-26 14:42:50.577,-233.0,-964.0,150.0,-2.0,10.0,2.0,154,135,135,140,131
2025-02-26 14:42:50.581,-221.0,-965.0,152.0,-1.0,10.0,2.0,156,136,131,141,133
2025-02-26 14:42:50.588,-232.0,-959.0,145.0,1.0,11.0,2.0,153,136,137,141,134
2025-02-26 14:42:50.592,-233.0,-958.0,137.0,2.0,11.0,2.0,158,135,136,136,133
2025-02-26 14:42:50.597,-229.0,-957.0,149.0,0.0,12.0,1.0,154,136,135,140,132
2025-02-26 14:42:50.600,-232.0,-955.0,137.0,0.0,13.0,1.0,157,138,139,143,134
2025-02-26 14:42:50.609,-237.0,-963.0,130.0,1.0,13.0,1.0,155,138,138,142,134
2025-02-26 14:42:50.612,-243.0,-989.0,106.0,0.0,9.0,2.0,154,134,136,140,130
2025-02-26 14:42:50.617,-232.0,-976.0,224.0,-5.0,11.0,2.0,153,134,131,140,131
2025-02-26 14:42:50.621,-243.0,-958.0,186.0,4.0,11.0,2.0,156,137,131,142,134
2025-02-26 14:42:50.624,-258.0,-998.0,159.0,1.0,11.0,2.0,156,136,137,141,133
2025-02-26 14:42:50.633,-245.0,-971.0,178.0,-1.0,15.0,1.0,157,136,137,146,131
2025-02-26 14:42:50.638,-241.0,-961.0,166.0,-1.0,16.0,1.0,157,138,143,142,134
2025-02-26 14:42:50.642,-242.0,-974.0,166.0,1.0,16.0,2.0,157,138,138,143,135
2025-02-26 14:42:50.647,-235.0,-971.0,166.0,1.0,16.0,2.0,155,135,138,141,134
2025-02-26 14:42:50.654,-236.0,-959.0,151.0,1.0,16.0,1.0,153,135,136,142,131
2025-02-26 14:42:50.658,-234.0,-959.0,153.0,1.0,16.0,2.0,157,137,136,143,134
2025-02-26 14:42:50.662,-230.0,-955.0,169.0,0.0,16.0,2.0,154,137,138,142,135
2025-02-26 14:42:50.667,-225.0,-954.0,155.0,5.0,17.0,1.0,156,136,134,141,133
2025-02-26 14:42:50.674,-226.0,-958.0,150.0,6.0,18.0,1.0,156,137,136,140,135
2025-02-26 14:42:50.679,-229.0,-956.0,141.0,7.0,18.0,0.0,157,137,138,141,134
2025-02-26 14:42:50.683,-234.0,-961.0,138.0,7.0,17.0,0.0,155,134,137,140,133
2025-02-26 14:42:50.688,-240.0,-963.0,133.0,6.0,17.0,0.0,154,136,136,140,132
2025-02-26 14:42:50.695,-238.0,-969.0,117.0,5.0,14.0,0.0,158,137,138,142,134
2025-02-26 14:42:50.699,-244.0,-970.0,134.0,3.0,13.0,0.0,155,135,137,142,133
2025-02-26 14:42:50.703,-249.0,-980.0,134.0,0.0,12.0,0.0,154,134,136,141,133
2025-02-26 14:42:50.708,-244.0,-977.0,114.0,-5.0,10.0,1.0,156,136,140,143,135
2025-02-26 14:42:50.716,-245.0,-981.0,132.0,-6.0,10.0,1.0,156,137,138,143,134
2025-02-26 14:42:50.720,-238.0,-967.0,135.0,-7.0,9.0,1.0,156,137,138,143,135
2025-02-26 14:42:50.724,-234.0,-965.0,125.0,-9.0,9.0,1.0,154,135,136,140,132
2025-02-26 14:42:50.728,-235.0,-970.0,129.0,-11.0,8.0,1.0,156,137,138,142,135
2025-02-26 14:42:50.736,-230.0,-965.0,132.0,-10.0,7.0,1.0,157,136,137,142,134
2025-02-26 14:42:50.740,-224.0,-970.0,117.0,-8.0,6.0,1.0,156,138,138,142,135
2025-02-26 14:42:50.745,-233.0,-968.0,130.0,-7.0,4.0,1.0,154,133,134,138,133
2025-02-26 14:42:50.749,-226.0,-967.0,126.0,-8.0,4.0,1.0,156,137,138,142,134
2025-02-26 14:42:50.752,-234.0,-975.0,110.0,-7.0,2.0,1.0,156,135,138,141,135
2025-02-26 14:42:50.761,-224.0,-980.0,106.0,-6.0,1.0,2.0,156,137,137,143,135
2025-02-26 14:42:50.765,-231.0,-986.0,132.0,-5.0,2.0,2.0,157,137,139,142,134
2025-02-26 14:42:50.770,-227.0,-980.0,110.0,-2.0,1.0,2.0,155,135,137,144,135
2025-02-26 14:42:50.774,-228.0,-982.0,122.0,0.0,2.0,2.0,154,134,136,140,133
2025-02-26 14:42:50.781,-221.0,-994.0,105.0,-3.0,2.0,2.0,158,138,140,143,135
2025-02-26 14:42:50.786,-215.0,-980.0,144.0,0.0,1.0,3.0,157,134,138,143,135
2025-02-26 14:42:50.789,-223.0,-993.0,112.0,-3.0,0.0,3.0,154,134,136,140,133
2025-02-26 14:42:50.794,-218.0,-980.0,128.0,-4.0,1.0,3.0,154,134,135,140,131
2025-02-26 14:42:50.802,-220.0,-966.0,115.0,-5.0,1.0,4.0,160,138,138,145,136
2025-02-26 14:42:50.805,-232.0,-968.0,125.0,-6.0,1.0,4.0,156,137,138,142,133
2025-02-26 14:42:50.810,-226.0,-963.0,119.0,-6.0,1.0,4.0,154,133,135,139,130
2025-02-26 14:42:50.811,-226.0,-970.0,109.0,-8.0,0.0,4.0,156,136,137,141,133
2025-02-26 14:42:50.819,-231.0,-958.0,133.0,-8.0,1.0,3.0,158,138,139,143,135
2025-02-26 14:42:50.824,-230.0,-955.0,115.0,-6.0,1.0,3.0,155,133,136,141,132
2025-02-26 14:42:50.830,-225.0,-953.0,125.0,-7.0,-1.0,3.0,153,131,135,139,130
2025-02-26 14:42:50.835,-230.0,-940.0,139.0,3.0,1.0,2.0,156,135,136,141,133
2025-02-26 14:42:50.839,-261.0,-967.0,45.0,6.0,-3.0,2.0,158,136,138,142,133
2025-02-26 14:42:50.847,-251.0,-974.0,118.0,6.0,-5.0,2.0,154,133,136,139,131
2025-02-26 14:42:50.850,-229.0,-938.0,114.0,13.0,0.0,2.0,157,134,138,142,133
2025-02-26 14:42:50.855,-241.0,-968.0,82.0,13.0,-5.0,2.0,155,135,137,141,132
2025-02-26 14:42:50.860,-243.0,-966.0,158.0,21.0,-3.0,2.0,156,134,136,140,132
2025-02-26 14:42:50.866,-230.0,-987.0,97.0,19.0,-1.0,2.0,153,133,135,139,130
2025-02-26 14:42:50.871,-242.0,-952.0,92.0,15.0,-2.0,2.0,156,136,137,141,132
2025-02-26 14:42:50.876,-239.0,-932.0,143.0,14.0,-4.0,2.0,154,135,137,141,132
2025-02-26 14:42:50.879,-238.0,-948.0,157.0,7.0,-4.0,1.0,155,134,134,140,131
2025-02-26 14:42:50.887,-235.0,-942.0,126.0,9.0,-2.0,2.0,156,134,138,142,133
2025-02-26 14:42:50.892,-237.0,-963.0,115.0,10.0,-4.0,2.0,156,135,137,141,131
2025-02-26 14:42:50.896,-217.0,-954.0,160.0,4.0,-3.0,1.0,154,135,135,140,129
2025-02-26 14:42:50.900,-237.0,-950.0,175.0,7.0,-3.0,2.0,154,133,135,140,130
2025-02-26 14:42:50.902,-237.0,-976.0,136.0,7.0,-2.0,2.0,155,135,136,141,133
2025-02-26 14:42:50.912,-230.0,-954.0,144.0,9.0,-1.0,1.0,156,134,137,141,132
2025-02-26 14:42:50.916,-233.0,-965.0,140.0,12.0,-2.0,1.0,154,132,133,138,130
2025-02-26 14:42:50.918,-230.0,-963.0,173.0,14.0,-1.0,1.0,155,135,138,142,133
2025-02-26 14:42:50.928,-234.0,-955.0,142.0,11.0,-2.0,2.0,157,133,134,143,130
2025-02-26 14:42:50.930,-229.0,-935.0,204.0,15.0,1.0,1.0,155,134,136,142,132
2025-02-26 14:42:50.930,-246.0,-991.0,109.0,17.0,-3.0,2.0,159,138,139,143,135
2025-02-26 14:42:50.941,-241.0,-961.0,213.0,19.0,-1.0,1.0,162,139,142,147,138
2025-02-26 14:42:50.949,-228.0,-956.0,127.0,20.0,-9.0,2.0,161,138,142,145,137
2025-02-26 14:42:50.953,-243.0,-945.0,250.0,21.0,-5.0,2.0,158,139,138,145,138
2025-02-26 14:42:50.958,-233.0,-957.0,172.0,23.0,-1.0,3.0,160,137,140,145,135
2025-02-26 14:42:50.962,-226.0,-962.0,130.0,20.0,-6.0,2.0,159,136,139,144,134
2025-02-26 14:42:50.969,-233.0,-983.0,226.0,20.0,-4.0,3.0,158,136,138,143,133
2025-02-26 14:42:50.973,-260.0,-931.0,197.0,15.0,0.0,2.0,156,134,136,139,130
2025-02-26 14:42:50.978,-229.0,-936.0,165.0,9.0,-2.0,2.0,153,133,136,138,128
2025-02-26 14:42:50.982,-287.0,-951.0,88.0,17.0,-7.0,3.0,160,135,138,144,137
2025-02-26 14:42:50.987,-226.0,-970.0,269.0,3.0,3.0,1.0,156,134,137,141,131
2025-02-26 14:42:50.994,-256.0,-928.0,230.0,5.0,4.0,0.0,155,132,135,138,130
2025-02-26 14:42:50.998,-268.0,-939.0,85.0,3.0,-1.0,2.0,157,135,136,141,133
2025-02-26 14:42:51.003,-241.0,-951.0,111.0,5.0,-8.0,1.0,156,136,134,140,132
2025-02-26 14:42:51.006,-290.0,-976.0,203.0,10.0,-6.0,2.0,156,133,136,139,130
2025-02-26 14:42:51.015,-253.0,-957.0,220.0,8.0,-3.0,1.0,156,135,138,142,133
2025-02-26 14:42:51.018,-265.0,-925.0,210.0,8.0,6.0,-1.0,156,135,138,142,132
2025-02-26 14:42:51.023,-273.0,-941.0,154.0,13.0,4.0,-1.0,155,132,136,142,131
2025-02-26 14:42:51.027,-264.0,-978.0,140.0,13.0,2.0,-1.0,153,130,134,139,129
2025-02-26 14:42:51.035,-243.0,-968.0,203.0,8.0,-2.0,0.0,154,132,136,139,130
2025-02-26 14:42:51.037,-252.0,-963.0,208.0,5.0,-4.0,1.0,158,137,140,145,134
2025-02-26 14:42:51.043,-268.0,-938.0,232.0,2.0,-4.0,1.0,156,135,137,141,132
2025-02-26 14:42:51.045,-242.0,-939.0,159.0,4.0,-4.0,0.0,158,137,139,144,134
2025-02-26 14:42:51.055,-256.0,-963.0,156.0,-4.0,-1.0,0.0,159,139,141,147,139
2025-02-26 14:42:51.056,-245.0,-919.0,225.0,-2.0,2.0,-1.0,160,136,142,146,136
2025-02-26 14:42:51.056,-245.0,-966.0,165.0,2.0,-1.0,1.0,168,146,146,151,142
2025-02-26 14:42:51.069,-256.0,-982.0,166.0,-3.0,2.0,0.0,160,140,142,146,137
2025-02-26 14:42:51.076,-247.0,-953.0,146.0,-7.0,-2.0,0.0,158,137,137,143,133
2025-02-26 14:42:51.080,-255.0,-972.0,229.0,-7.0,-1.0,0.0,161,140,142,147,137
2025-02-26 14:42:51.085,-257.0,-951.0,212.0,-9.0,-4.0,0.0,189,167,170,174,163
2025-02-26 14:42:51.089,-254.0,-958.0,186.0,-10.0,-4.0,0.0,186,167,169,173,163
2025-02-26 14:42:51.097,-236.0,-966.0,200.0,-5.0,-1.0,0.0,196,177,179,184,176
2025-02-26 14:42:51.100,-289.0,-983.0,145.0,7.0,-2.0,0.0,276,255,257,259,249
2025-02-26 14:42:51.105,-242.0,-968.0,179.0,3.0,-3.0,0.0,219,198,200,205,195
2025-02-26 14:42:51.106,-248.0,-929.0,193.0,8.0,-4.0,0.0,195,176,179,184,176
2025-02-26 14:42:51.113,-265.0,-970.0,195.0,4.0,-4.0,1.0,199,180,183,188,177
2025-02-26 14:42:51.121,-248.0,-943.0,186.0,7.0,-4.0,1.0,196,175,177,181,171
2025-02-26 14:42:51.125,-244.0,-943.0,187.0,7.0,-3.0,1.0,214,193,195,201,191
2025-02-26 14:42:51.127,-244.0,-946.0,213.0,7.0,0.0,0.0,175,155,157,161,151
2025-02-26 14:42:51.133,-262.0,-969.0,199.0,4.0,-1.0,0.0,151,128,132,136,126
2025-02-26 14:42:51.141,-243.0,-922.0,198.0,0.0,-1.0,0.0,152,130,132,135,126
2025-02-26 14:42:51.146,-244.0,-968.0,203.0,1.0,-2.0,0.0,151,130,132,137,125
2025-02-26 14:42:51.151,-257.0,-949.0,206.0,0.0,0.0,0.0,150,128,130,136,126
2025-02-26 14:42:51.155,-234.0,-951.0,194.0,-3.0,0.0,0.0,150,127,130,135,125
2025-02-26 14:42:51.162,-263.0,-958.0,196.0,-2.0,1.0,0.0,155,131,134,139,128
2025-02-26 14:42:51.166,-256.0,-940.0,231.0,3.0,5.0,-1.0,163,141,144,148,137
2025-02-26 14:42:51.171,-261.0,-946.0,193.0,2.0,7.0,-2.0,170,150,152,156,146
2025-02-26 14:42:51.175,-251.0,-934.0,165.0,3.0,8.0,-2.0,204,183,186,189,180
2025-02-26 14:42:51.182,-261.0,-962.0,148.0,5.0,-1.0,-1.0,222,202,204,210,200
2025-02-26 14:42:51.187,-260.0,-959.0,202.0,6.0,-2.0,0.0,210,190,193,197,186
2025-02-26 14:42:51.191,-238.0,-958.0,171.0,6.0,2.0,-1.0,282,266,267,270,263
2025-02-26 14:42:51.195,-225.0,-928.0,242.0,10.0,5.0,-2.0,297,278,282,285,276
2025-02-26 14:42:51.203,-265.0,-939.0,262.0,4.0,13.0,-2.0,254,234,237,239,232
2025-02-26 14:42:51.207,-248.0,-978.0,198.0,6.0,10.0,-2.0,247,228,230,235,226
2025-02-26 14:42:51.211,-262.0,-981.0,222.0,2.0,5.0,-1.0,264,245,247,251,241
2025-02-26 14:42:51.216,-258.0,-990.0,211.0,0.0,5.0,0.0,224,204,205,210,201
2025-02-26 14:42:51.220,-264.0,-1002.0,176.0,-2.0,1.0,2.0,267,249,252,255,246
2025-02-26 14:42:51.227,-260.0,-981.0,272.0,-7.0,1.0,2.0,259,237,239,243,235
2025-02-26 14:42:51.232,-254.0,-978.0,258.0,-2.0,7.0,2.0,258,239,239,247,237
2025-02-26 14:42:51.236,-262.0,-997.0,202.0,-1.0,6.0,4.0,248,229,232,236,227
2025-02-26 14:42:51.240,-269.0,-1015.0,205.0,1.0,5.0,5.0,247,228,229,233,222
2025-02-26 14:42:51.248,-271.0,-990.0,213.0,2.0,6.0,6.0,262,241,243,249,240
2025-02-26 14:42:51.252,-270.0,-993.0,235.0,6.0,8.0,6.0,265,250,247,252,243
2025-02-26 14:42:51.256,-267.0,-996.0,250.0,9.0,9.0,6.0,241,223,226,229,221
2025-02-26 14:42:51.260,-274.0,-985.0,225.0,7.0,10.0,6.0,254,233,236,239,230
2025-02-26 14:42:51.268,-264.0,-974.0,215.0,4.0,10.0,6.0,254,235,237,243,233
2025-02-26 14:42:51.273,-271.0,-982.0,205.0,3.0,10.0,6.0,248,231,235,237,231
2025-02-26 14:42:51.277,-276.0,-979.0,214.0,1.0,11.0,7.0,256,236,239,242,233
2025-02-26 14:42:51.282,-278.0,-968.0,206.0,-1.0,11.0,8.0,265,244,247,249,242
2025-02-26 14:42:51.285,-258.0,-946.0,226.0,-2.0,15.0,7.0,260,239,242,247,239
2025-02-26 14:42:51.293,-266.0,-954.0,203.0,-5.0,15.0,9.0,256,228,237,242,234
2025-02-26 14:42:51.296,-278.0,-963.0,215.0,-8.0,15.0,9.0,258,239,241,245,237
2025-02-26 14:42:51.302,-271.0,-945.0,222.0,-6.0,18.0,9.0,273,253,255,260,253
2025-02-26 14:42:51.310,-291.0,-964.0,177.0,-4.0,16.0,10.0,264,244,248,249,243
2025-02-26 14:42:51.314,-296.0,-959.0,197.0,-8.0,15.0,9.0,260,236,245,245,239
2025-02-26 14:42:51.318,-294.0,-955.0,211.0,-4.0,16.0,9.0,260,240,244,247,238
2025-02-26 14:42:51.322,-302.0,-977.0,186.0,-2.0,15.0,8.0,268,247,249,255,247
2025-02-26 14:42:51.330,-299.0,-972.0,181.0,0.0,15.0,7.0,265,243,248,252,243
2025-02-26 14:42:51.332,-298.0,-975.0,178.0,4.0,17.0,6.0,259,238,243,247,237
2025-02-26 14:42:51.339,-303.0,-966.0,188.0,6.0,18.0,5.0,268,251,255,257,248
2025-02-26 14:42:51.342,-303.0,-965.0,190.0,6.0,19.0,5.0,260,240,244,247,239
2025-02-26 14:42:51.344,-302.0,-968.0,178.0,6.0,18.0,4.0,257,238,242,245,237
2025-02-26 14:42:51.354,-297.0,-968.0,177.0,3.0,18.0,4.0,260,240,244,248,239
2025-02-26 14:42:51.358,-292.0,-972.0,172.0,-3.0,16.0,4.0,273,254,258,260,255
2025-02-26 14:42:51.364,-286.0,-976.0,171.0,-7.0,15.0,4.0,238,218,221,226,217
2025-02-26 14:42:51.369,-287.0,-977.0,186.0,-12.0,15.0,5.0,228,208,211,215,207
2025-02-26 14:42:51.374,-285.0,-982.0,195.0,-16.0,14.0,5.0,228,208,212,213,207
2025-02-26 14:42:51.379,-286.0,-973.0,205.0,-18.0,16.0,4.0,244,224,227,227,222
2025-02-26 14:42:51.383,-274.0,-983.0,179.0,-19.0,17.0,4.0,238,216,220,224,215
2025-02-26 14:42:51.391,-278.0,-991.0,185.0,-19.0,18.0,4.0,234,212,218,220,212
2025-02-26 14:42:51.396,-281.0,-986.0,173.0,-16.0,17.0,4.0,234,215,218,220,213
2025-02-26 14:42:51.400,-282.0,-978.0,172.0,-14.0,16.0,4.0,251,230,234,236,229
2025-02-26 14:42:51.405,-281.0,-985.0,196.0,-12.0,17.0,4.0,248,228,232,237,229
2025-02-26 14:42:51.412,-274.0,-984.0,178.0,-11.0,15.0,4.0,242,222,226,229,221
2025-02-26 14:42:51.416,-278.0,-972.0,173.0,-12.0,15.0,4.0,241,220,224,228,220
2025-02-26 14:42:51.421,-290.0,-974.0,160.0,-11.0,16.0,5.0,249,229,234,236,230
2025-02-26 14:42:51.428,-285.0,-979.0,168.0,-13.0,15.0,6.0,247,226,230,233,226
2025-02-26 14:42:51.430,-282.0,-960.0,150.0,-13.0,15.0,6.0,245,226,228,232,221
2025-02-26 14:42:51.434,-282.0,-965.0,165.0,-11.0,14.0,7.0,239,218,224,227,218
2025-02-26 14:42:51.441,-291.0,-966.0,152.0,-12.0,14.0,7.0,241,220,218,227,219
2025-02-26 14:42:51.449,-294.0,-960.0,153.0,-12.0,15.0,7.0,245,226,230,234,225
2025-02-26 14:42:51.453,-290.0,-966.0,153.0,-12.0,15.0,6.0,233,212,211,220,213
2025-02-26 14:42:51.457,-294.0,-970.0,163.0,-12.0,14.0,6.0,233,211,216,219,212
2025-02-26 14:42:51.462,-291.0,-960.0,151.0,-12.0,17.0,5.0,231,210,212,217,211
2025-02-26 14:42:51.470,-291.0,-950.0,120.0,-15.0,14.0,5.0,240,220,224,225,219
2025-02-26 14:42:51.472,-273.0,-956.0,135.0,-16.0,14.0,4.0,242,220,225,228,222
2025-02-26 14:42:51.477,-291.0,-939.0,168.0,-16.0,18.0,2.0,241,220,223,227,220
2025-02-26 14:42:51.484,-292.0,-945.0,117.0,-18.0,18.0,1.0,228,206,210,214,208
2025-02-26 14:42:51.490,-289.0,-947.0,125.0,-18.0,15.0,1.0,233,213,215,220,213
2025-02-26 14:42:51.494,-298.0,-944.0,126.0,-17.0,15.0,0.0,233,213,216,220,213
2025-02-26 14:42:51.498,-309.0,-952.0,127.0,-16.0,14.0,-1.0,240,219,223,225,221
2025-02-26 14:42:51.506,-302.0,-943.0,119.0,-18.0,14.0,-1.0,235,213,216,220,213
2025-02-26 14:42:51.510,-307.0,-958.0,117.0,-18.0,12.0,-1.0,232,211,213,218,210
2025-02-26 14:42:51.515,-301.0,-943.0,132.0,-16.0,12.0,-2.0,227,206,210,213,206
2025-02-26 14:42:51.520,-303.0,-939.0,127.0,-12.0,11.0,-2.0,190,169,171,174,169
2025-02-26 14:42:51.526,-305.0,-942.0,146.0,-10.0,10.0,-1.0,177,154,158,162,158
2025-02-26 14:42:51.531,-304.0,-934.0,135.0,-10.0,11.0,-1.0,172,152,155,158,152
2025-02-26 14:42:51.535,-302.0,-931.0,121.0,-8.0,10.0,-1.0,171,150,153,156,150
2025-02-26 14:42:51.543,-301.0,-939.0,144.0,-9.0,12.0,-1.0,177,157,158,160,155
2025-02-26 14:42:51.548,-307.0,-925.0,147.0,-9.0,14.0,-2.0,176,154,160,161,155
2025-02-26 14:42:51.552,-303.0,-931.0,148.0,-12.0,15.0,-2.0,174,155,158,161,153
2025-02-26 14:42:51.557,-304.0,-932.0,142.0,-13.0,15.0,-3.0,177,153,157,162,155
2025-02-26 14:42:51.564,-305.0,-918.0,123.0,-18.0,16.0,-3.0,178,156,157,164,158
2025-02-26 14:42:51.568,-292.0,-912.0,102.0,-18.0,14.0,-4.0,173,151,157,158,153
2025-02-26 14:42:51.574,-289.0,-917.0,122.0,-16.0,16.0,-4.0,171,151,152,156,151
2025-02-26 14:42:51.580,-300.0,-923.0,129.0,-15.0,16.0,-4.0,174,153,155,158,152
2025-02-26 14:42:51.593,-295.0,-939.0,111.0,-12.0,14.0,-4.0,169,146,149,153,146
2025-02-26 14:42:51.593,-305.0,-929.0,117.0,-10.0,15.0,-4.0,170,149,149,155,149
2025-02-26 14:42:51.597,-305.0,-917.0,101.0,-10.0,12.0,-4.0,170,147,151,155,149
2025-02-26 14:42:51.601,-323.0,-930.0,76.0,-9.0,11.0,-5.0,170,149,153,157,148
2025-02-26 14:42:51.605,-310.0,-936.0,70.0,-5.0,7.0,-5.0,168,146,149,152,147
2025-02-26 14:42:51.609,-306.0,-944.0,109.0,-7.0,5.0,-6.0,170,149,149,153,147
2025-02-26 14:42:51.616,-310.0,-927.0,139.0,-5.0,6.0,-7.0,169,147,150,153,147
2025-02-26 14:42:51.621,-305.0,-935.0,124.0,-7.0,8.0,-9.0,169,150,151,154,149
2025-02-26 14:42:51.625,-299.0,-929.0,161.0,-8.0,11.0,-10.0,165,143,147,151,145
2025-02-26 14:42:51.633,-310.0,-932.0,111.0,-8.0,8.0,-10.0,168,147,150,152,145
2025-02-26 14:42:51.635,-289.0,-939.0,125.0,-11.0,10.0,-12.0,168,146,149,154,148
2025-02-26 14:42:51.641,-278.0,-919.0,110.0,-13.0,9.0,-13.0,165,150,150,153,150
2025-02-26 14:42:51.646,-260.0,-937.0,113.0,-19.0,10.0,-15.0,166,144,146,152,146
2025-02-26 14:42:51.653,-272.0,-932.0,54.0,-15.0,10.0,-15.0,165,144,149,148,144
2025-02-26 14:42:51.657,-294.0,-952.0,102.0,-18.0,7.0,-16.0,165,144,146,150,145
2025-02-26 14:42:51.660,-279.0,-923.0,97.0,-14.0,9.0,-17.0,168,149,152,154,148
2025-02-26 14:42:51.669,-281.0,-938.0,65.0,-16.0,8.0,-18.0,168,147,148,152,147
2025-02-26 14:42:51.674,-270.0,-907.0,111.0,-17.0,11.0,-18.0,166,145,148,151,146
2025-02-26 14:42:51.679,-260.0,-935.0,68.0,-16.0,11.0,-17.0,169,150,149,153,148
2025-02-26 14:42:51.685,-259.0,-944.0,84.0,-14.0,8.0,-17.0,170,148,149,154,149
2025-02-26 14:42:51.691,-260.0,-956.0,73.0,-15.0,7.0,-15.0,168,147,149,154,149
2025-02-26 14:42:51.695,-250.0,-955.0,84.0,-16.0,6.0,-14.0,166,149,149,151,147
2025-02-26 14:42:51.698,-263.0,-968.0,106.0,-16.0,7.0,-13.0,167,149,150,152,148
2025-02-26 14:42:51.707,-270.0,-967.0,87.0,-14.0,3.0,-12.0,167,146,147,150,146
2025-02-26 14:42:51.708,-250.0,-969.0,78.0,-14.0,3.0,-12.0,168,148,150,153,150
2025-02-26 14:42:51.715,-252.0,-985.0,72.0,-14.0,3.0,-11.0,167,149,149,154,150
2025-02-26 14:42:51.720,-245.0,-989.0,74.0,-10.0,3.0,-10.0,167,147,150,153,148
2025-02-26 14:42:51.727,-245.0,-1000.0,93.0,-6.0,5.0,-9.0,164,146,146,152,148
2025-02-26 14:42:51.731,-247.0,-993.0,85.0,-6.0,6.0,-8.0,167,147,151,152,149
2025-02-26 14:42:51.736,-234.0,-993.0,75.0,-5.0,6.0,-7.0,174,156,156,160,159
2025-02-26 14:42:51.740,-235.0,-1006.0,92.0,-5.0,8.0,-6.0,177,158,162,164,161
2025-02-26 14:42:51.748,-236.0,-1007.0,78.0,-4.0,8.0,-5.0,174,156,157,160,157
2025-02-26 14:42:51.752,-234.0,-1007.0,75.0,-5.0,8.0,-4.0,179,160,162,167,162
2025-02-26 14:42:51.756,-239.0,-986.0,64.0,-6.0,7.0,-4.0,176,160,160,164,160
2025-02-26 14:42:51.760,-227.0,-1008.0,77.0,-5.0,7.0,-4.0,181,158,159,158,159
2025-02-26 14:42:51.768,-240.0,-1000.0,67.0,-4.0,7.0,-4.0,180,161,162,165,163
2025-02-26 14:42:51.772,-225.0,-1004.0,73.0,-3.0,8.0,-3.0,178,163,160,164,163
2025-02-26 14:42:51.776,-239.0,-1006.0,76.0,-2.0,9.0,-3.0,177,159,159,163,161
2025-02-26 14:42:51.781,-240.0,-1008.0,64.0,-1.0,9.0,-3.0,175,155,157,160,157
2025-02-26 14:42:51.789,-238.0,-1012.0,81.0,-1.0,9.0,-3.0,178,161,161,165,161
2025-02-26 14:42:51.793,-237.0,-1021.0,73.0,-1.0,9.0,-2.0,179,159,161,165,160
2025-02-26 14:42:51.797,-243.0,-1020.0,76.0,-1.0,9.0,-2.0,176,157,158,162,159
2025-02-26 14:42:51.805,-242.0,-1011.0,68.0,-1.0,9.0,-2.0,180,162,164,166,165
2025-02-26 14:42:51.809,-238.0,-1011.0,62.0,-3.0,8.0,-1.0,188,172,177,177,175
2025-02-26 14:42:51.813,-236.0,-1000.0,74.0,-5.0,10.0,-1.0,193,174,176,178,178
2025-02-26 14:42:51.817,-231.0,-1001.0,61.0,-7.0,10.0,-1.0,191,173,176,180,175
2025-02-26 14:42:51.825,-234.0,-997.0,61.0,-6.0,10.0,-1.0,190,172,174,177,176
2025-02-26 14:42:51.830,-234.0,-994.0,64.0,-7.0,9.0,0.0,190,169,172,176,174
2025-02-26 14:42:51.834,-245.0,-987.0,62.0,-8.0,9.0,0.0,186,168,169,172,170
2025-02-26 14:42:51.838,-243.0,-994.0,55.0,-8.0,8.0,0.0,185,167,169,172,169
2025-02-26 14:42:51.842,-243.0,-1001.0,67.0,-8.0,6.0,1.0,186,168,169,172,169
2025-02-26 14:42:51.847,-254.0,-993.0,65.0,-8.0,5.0,1.0,185,167,169,172,168
2025-02-26 14:42:51.854,-246.0,-992.0,66.0,-7.0,5.0,2.0,181,162,163,167,164
2025-02-26 14:42:51.859,-253.0,-997.0,75.0,-8.0,5.0,2.0,184,165,168,172,167
2025-02-26 14:42:51.863,-260.0,-994.0,76.0,-7.0,5.0,2.0,187,166,169,172,170
2025-02-26 14:42:51.871,-255.0,-999.0,57.0,-7.0,4.0,3.0,180,161,162,167,164
2025-02-26 14:42:51.881,-263.0,-1000.0,77.0,-8.0,4.0,3.0,177,159,160,164,162
2025-02-26 14:42:51.883,-265.0,-998.0,72.0,-9.0,5.0,4.0,191,170,174,175,172
2025-02-26 14:42:51.883,-258.0,-1003.0,89.0,-9.0,5.0,5.0,185,166,166,168,168
2025-02-26 14:42:51.888,-263.0,-1001.0,70.0,-9.0,7.0,5.0,181,160,163,166,163
2025-02-26 14:42:51.896,-274.0,-1009.0,59.0,-7.0,7.0,5.0,187,167,171,172,169
2025-02-26 14:42:51.899,-266.0,-1002.0,66.0,-10.0,8.0,5.0,189,172,173,172,174
2025-02-26 14:42:51.901,-268.0,-1013.0,45.0,-8.0,7.0,5.0,185,165,167,170,168
2025-02-26 14:42:51.908,-273.0,-1013.0,82.0,-7.0,7.0,5.0,179,161,162,165,162
2025-02-26 14:42:51.915,-282.0,-988.0,64.0,-7.0,8.0,4.0,186,167,169,172,169
2025-02-26 14:42:51.920,-289.0,-999.0,67.0,-7.0,10.0,4.0,188,168,171,175,173
2025-02-26 14:42:51.924,-297.0,-992.0,68.0,-8.0,11.0,4.0,183,162,165,167,166
2025-02-26 14:42:51.928,-293.0,-993.0,73.0,-11.0,11.0,5.0,186,166,168,171,170
2025-02-26 14:42:51.936,-285.0,-1000.0,91.0,-13.0,13.0,5.0,185,166,167,170,167
2025-02-26 14:42:51.940,-288.0,-1007.0,94.0,-11.0,13.0,5.0,184,164,166,169,167
2025-02-26 14:42:51.944,-291.0,-998.0,76.0,-14.0,13.0,5.0,180,160,163,165,163
2025-02-26 14:42:51.949,-290.0,-995.0,43.0,-14.0,14.0,5.0,184,164,167,170,168
2025-02-26 14:42:51.955,-270.0,-1008.0,92.0,-7.0,19.0,5.0,182,163,165,167,165
2025-02-26 14:42:51.960,-259.0,-1002.0,77.0,-16.0,20.0,4.0,182,162,162,167,165
2025-02-26 14:42:51.962,-262.0,-1012.0,38.0,-18.0,18.0,4.0,180,160,163,165,162
2025-02-26 14:42:51.967,-253.0,-1020.0,68.0,-20.0,17.0,3.0,181,163,168,169,167
2025-02-26 14:42:51.975,-239.0,-1023.0,56.0,-16.0,17.0,2.0,184,164,166,169,167
2025-02-26 14:42:51.979,-253.0,-1024.0,66.0,-18.0,20.0,2.0,182,161,164,164,162
2025-02-26 14:42:51.986,-252.0,-990.0,97.0,-24.0,26.0,3.0,179,159,162,162,160
2025-02-26 14:42:51.993,-272.0,-1023.0,85.0,-23.0,23.0,3.0,182,164,166,168,168
2025-02-26 14:42:51.998,-273.0,-1016.0,95.0,-20.0,28.0,5.0,184,164,166,169,166
2025-02-26 14:42:52.002,-286.0,-1005.0,83.0,-19.0,32.0,7.0,182,163,167,168,168
2025-02-26 14:42:52.007,-286.0,-1003.0,53.0,-20.0,33.0,9.0,179,159,160,163,162
2025-02-26 14:42:52.014,-278.0,-1010.0,17.0,-13.0,32.0,10.0,183,161,165,168,165
2025-02-26 14:42:52.018,-286.0,-1012.0,7.0,-10.0,29.0,13.0,182,162,165,168,167
2025-02-26 14:42:52.023,-300.0,-998.0,7.0,-11.0,30.0,16.0,182,161,165,166,164
2025-02-26 14:42:52.027,-301.0,-999.0,7.0,-7.0,30.0,18.0,178,158,162,164,163
2025-02-26 14:42:52.034,-302.0,-1000.0,11.0,-6.0,31.0,19.0,178,158,161,162,162
2025-02-26 14:42:52.039,-296.0,-992.0,18.0,-7.0,31.0,21.0,188,169,172,173,172
2025-02-26 14:42:52.043,-298.0,-992.0,38.0,-8.0,32.0,23.0,183,163,166,169,167
2025-02-26 14:42:52.051,-312.0,-1000.0,13.0,-7.0,32.0,24.0,179,157,161,162,162
2025-02-26 14:42:52.054,-309.0,-997.0,7.0,-14.0,30.0,24.0,180,158,163,165,163
2025-02-26 14:42:52.059,-295.0,-985.0,4.0,-13.0,29.0,25.0,193,170,175,176,176
2025-02-26 14:42:52.064,-299.0,-992.0,-1.0,-13.0,28.0,24.0,183,162,166,168,168
2025-02-26 14:42:52.071,-295.0,-976.0,3.0,-17.0,29.0,23.0,180,159,162,163,163
2025-02-26 14:42:52.076,-310.0,-968.0,-22.0,-21.0,30.0,23.0,180,158,161,165,164
2025-02-26 14:42:52.080,-310.0,-974.0,-16.0,-24.0,31.0,23.0,188,167,172,174,174
2025-02-26 14:42:52.084,-326.0,-960.0,-22.0,-25.0,29.0,23.0,187,164,167,171,171
2025-02-26 14:42:52.091,-315.0,-955.0,-14.0,-26.0,28.0,22.0,180,158,163,164,164
2025-02-26 14:42:52.095,-306.0,-944.0,-22.0,-30.0,28.0,22.0,180,156,162,164,163
2025-02-26 14:42:52.101,-319.0,-925.0,-26.0,-32.0,27.0,21.0,187,164,168,170,170
2025-02-26 14:42:52.108,-319.0,-931.0,-27.0,-32.0,24.0,21.0,187,165,168,172,172
2025-02-26 14:42:52.112,-315.0,-924.0,-33.0,-32.0,21.0,19.0,189,164,168,170,169
2025-02-26 14:42:52.117,-319.0,-916.0,-38.0,-32.0,19.0,18.0,186,162,168,167,168
2025-02-26 14:42:52.124,-321.0,-908.0,-39.0,-32.0,18.0,17.0,186,163,168,169,168
2025-02-26 14:42:52.128,-316.0,-913.0,-54.0,-29.0,16.0,17.0,191,169,174,177,175
2025-02-26 14:42:52.133,-330.0,-917.0,-59.0,-30.0,13.0,16.0,194,171,178,176,178
2025-02-26 14:42:52.138,-330.0,-904.0,-44.0,-29.0,12.0,15.0,195,173,180,183,182
2025-02-26 14:42:52.145,-334.0,-911.0,-65.0,-29.0,10.0,14.0,195,170,177,179,179
2025-02-26 14:42:52.150,-334.0,-914.0,-59.0,-30.0,9.0,13.0,211,188,196,197,197
2025-02-26 14:42:52.154,-345.0,-923.0,-66.0,-30.0,7.0,13.0,212,188,193,196,196
2025-02-26 14:42:52.161,-350.0,-934.0,-65.0,-30.0,7.0,13.0,219,196,203,206,204
2025-02-26 14:42:52.166,-335.0,-944.0,-68.0,-30.0,6.0,13.0,213,190,196,199,199
2025-02-26 14:42:52.169,-341.0,-944.0,-72.0,-30.0,6.0,12.0,205,182,188,191,192
2025-02-26 14:42:52.174,-344.0,-945.0,-73.0,-29.0,5.0,12.0,210,186,193,196,195
2025-02-26 14:42:52.181,-340.0,-945.0,-60.0,-30.0,6.0,13.0,227,202,208,210,211
2025-02-26 14:42:52.186,-335.0,-943.0,-77.0,-30.0,7.0,13.0,223,197,203,205,206
2025-02-26 14:42:52.190,-337.0,-947.0,-70.0,-27.0,7.0,14.0,218,193,200,203,202
2025-02-26 14:42:52.198,-333.0,-936.0,-92.0,-29.0,10.0,14.0,221,195,202,205,205
2025-02-26 14:42:52.202,-332.0,-940.0,-94.0,-26.0,7.0,14.0,234,211,218,219,219
2025-02-26 14:42:52.206,-331.0,-941.0,-72.0,-23.0,7.0,14.0,235,213,218,221,219
2025-02-26 14:42:52.211,-338.0,-944.0,-74.0,-22.0,7.0,15.0,229,203,211,214,214
2025-02-26 14:42:52.219,-334.0,-933.0,-79.0,-21.0,8.0,15.0,228,203,208,212,212
2025-02-26 14:42:52.223,-332.0,-936.0,-78.0,-16.0,6.0,14.0,241,218,227,226,226
2025-02-26 14:42:52.227,-337.0,-942.0,-76.0,-9.0,6.0,15.0,241,218,226,227,226
2025-02-26 14:42:52.232,-334.0,-938.0,-61.0,-6.0,5.0,14.0,238,214,219,224,222
2025-02-26 14:42:52.240,-324.0,-920.0,-61.0,-3.0,5.0,14.0,239,212,219,223,221
2025-02-26 14:42:52.244,-326.0,-921.0,-50.0,-1.0,6.0,14.0,254,229,236,240,239
2025-02-26 14:42:52.248,-334.0,-934.0,-73.0,3.0,6.0,14.0,264,242,245,249,251
2025-02-26 14:42:52.253,-335.0,-918.0,-79.0,0.0,7.0,14.0,244,219,226,228,229
2025-02-26 14:42:52.260,-328.0,-935.0,-74.0,3.0,7.0,14.0,234,208,216,220,218
2025-02-26 14:42:52.264,-350.0,-939.0,-93.0,-5.0,5.0,13.0,263,238,247,248,248
2025-02-26 14:42:52.268,-340.0,-907.0,-72.0,-8.0,6.0,13.0,234,208,216,218,217
2025-02-26 14:42:52.273,-344.0,-927.0,-48.0,-11.0,7.0,13.0,223,197,207,209,208
2025-02-26 14:42:52.280,-351.0,-917.0,-60.0,-14.0,10.0,13.0,218,192,201,203,201
2025-02-26 14:42:52.285,-361.0,-920.0,-87.0,-14.0,11.0,13.0,221,195,204,207,206
2025-02-26 14:42:52.289,-360.0,-912.0,-84.0,-18.0,11.0,13.0,220,193,202,205,205
2025-02-26 14:42:52.296,-364.0,-916.0,-94.0,-17.0,9.0,13.0,220,192,201,203,203
2025-02-26 14:42:52.301,-372.0,-936.0,-99.0,-14.0,7.0,13.0,215,188,198,200,200
2025-02-26 14:42:52.305,-373.0,-941.0,-86.0,-12.0,4.0,13.0,218,192,201,205,204
2025-02-26 14:42:52.309,-370.0,-941.0,-90.0,-11.0,3.0,14.0,218,191,200,202,203
2025-02-26 14:42:52.317,-369.0,-950.0,-84.0,-12.0,4.0,14.0,216,187,197,200,200
2025-02-26 14:42:52.320,-369.0,-954.0,-76.0,-14.0,5.0,16.0,214,186,196,198,198
2025-02-26 14:42:52.326,-346.0,-949.0,-78.0,-16.0,6.0,17.0,210,180,191,194,193
2025-02-26 14:42:52.333,-347.0,-947.0,-85.0,-16.0,7.0,18.0,218,189,199,203,203
2025-02-26 14:42:52.338,-344.0,-952.0,-84.0,-17.0,8.0,20.0,219,188,200,201,201
2025-02-26 14:42:52.342,-352.0,-945.0,-81.0,-19.0,8.0,20.0,211,183,195,192,198
2025-02-26 14:42:52.345,-361.0,-950.0,-79.0,-17.0,8.0,21.0,211,182,192,195,196
2025-02-26 14:42:52.354,-366.0,-956.0,-87.0,-18.0,8.0,21.0,215,186,198,202,201
2025-02-26 14:42:52.358,-369.0,-929.0,-100.0,-15.0,7.0,20.0,218,188,199,201,202
2025-02-26 14:42:52.362,-379.0,-926.0,-113.0,-14.0,6.0,19.0,215,186,198,197,201
2025-02-26 14:42:52.369,-379.0,-929.0,-78.0,-16.0,8.0,19.0,209,179,191,194,195
2025-02-26 14:42:52.375,-387.0,-917.0,-95.0,-15.0,10.0,19.0,209,177,188,192,192
2025-02-26 14:42:52.379,-391.0,-916.0,-135.0,-10.0,6.0,18.0,223,191,203,206,206
2025-02-26 14:42:52.383,-396.0,-925.0,-111.0,-14.0,4.0,16.0,215,183,196,199,200
2025-02-26 14:42:52.391,-401.0,-908.0,-112.0,-13.0,3.0,15.0,211,176,190,194,193
2025-02-26 14:42:52.395,-396.0,-923.0,-95.0,-14.0,5.0,14.0,206,172,187,189,189
2025-02-26 14:42:52.399,-387.0,-922.0,-95.0,-18.0,9.0,14.0,217,181,193,198,199
2025-02-26 14:42:52.405,-393.0,-917.0,-105.0,-20.0,13.0,14.0,214,179,195,199,198
2025-02-26 14:42:52.411,-395.0,-931.0,-114.0,-22.0,17.0,14.0,210,175,189,193,194
2025-02-26 14:42:52.415,-399.0,-956.0,-143.0,-24.0,18.0,14.0,206,170,186,189,189
2025-02-26 14:42:52.423,-391.0,-953.0,-130.0,-23.0,18.0,15.0,207,171,186,190,190
2025-02-26 14:42:52.428,-370.0,-952.0,-132.0,-22.0,13.0,17.0,206,168,183,186,186
2025-02-26 14:42:52.432,-381.0,-958.0,-115.0,-18.0,10.0,18.0,212,175,190,198,195
2025-02-26 14:42:52.437,-375.0,-953.0,-108.0,-16.0,9.0,22.0,214,173,192,196,195
2025-02-26 14:42:52.444,-395.0,-927.0,-108.0,-17.0,8.0,23.0,212,173,193,194,192
2025-02-26 14:42:52.448,-388.0,-935.0,-150.0,-15.0,7.0,25.0,207,165,183,188,186
2025-02-26 14:42:52.453,-399.0,-938.0,-119.0,-15.0,9.0,26.0,207,165,182,187,183
2025-02-26 14:42:52.460,-414.0,-948.0,-134.0,-16.0,10.0,27.0,220,176,196,200,198
2025-02-26 14:42:52.465,-413.0,-957.0,-132.0,-15.0,12.0,29.0,215,172,190,196,192
2025-02-26 14:42:52.469,-416.0,-954.0,-141.0,-16.0,12.0,31.0,210,166,185,190,188
2025-02-26 14:42:52.477,-419.0,-948.0,-146.0,-15.0,13.0,31.0,206,159,181,186,182
2025-02-26 14:42:52.481,-423.0,-955.0,-144.0,-15.0,13.0,33.0,208,161,184,189,184
2025-02-26 14:42:52.485,-419.0,-947.0,-165.0,-14.0,12.0,32.0,206,157,180,185,181
2025-02-26 14:42:52.493,-438.0,-944.0,-152.0,-13.0,9.0,31.0,213,164,186,192,187
2025-02-26 14:42:52.497,-448.0,-933.0,-138.0,-16.0,9.0,29.0,212,162,186,191,187
2025-02-26 14:42:52.502,-458.0,-933.0,-126.0,-16.0,14.0,29.0,213,164,179,191,185
2025-02-26 14:42:52.506,-458.0,-922.0,-122.0,-21.0,16.0,30.0,208,156,179,185,178
2025-02-26 14:42:52.513,-435.0,-907.0,-169.0,-10.0,19.0,31.0,205,149,177,182,175
2025-02-26 14:42:52.518,-433.0,-901.0,-140.0,-7.0,21.0,29.0,215,161,185,190,182
2025-02-26 14:42:52.522,-459.0,-907.0,-149.0,-7.0,25.0,30.0,216,161,184,189,181
2025-02-26 14:42:52.530,-452.0,-894.0,-158.0,-11.0,28.0,31.0,209,154,178,183,174
2025-02-26 14:42:52.535,-453.0,-896.0,-171.0,-5.0,29.0,35.0,206,148,175,179,167
2025-02-26 14:42:52.539,-463.0,-910.0,-132.0,-3.0,31.0,36.0,214,154,181,182,173
2025-02-26 14:42:52.546,-470.0,-908.0,-145.0,0.0,32.0,37.0,214,157,180,185,174
2025-02-26 14:42:52.550,-448.0,-913.0,-169.0,8.0,30.0,37.0,213,152,179,182,170
2025-02-26 14:42:52.555,-455.0,-901.0,-176.0,9.0,31.0,37.0,210,151,174,178,164
2025-02-26 14:42:52.559,-449.0,-858.0,-188.0,7.0,31.0,35.0,209,148,174,176,162
2025-02-26 14:42:52.566,-432.0,-867.0,-204.0,11.0,30.0,35.0,205,142,169,172,157
2025-02-26 14:42:52.568,-496.0,-862.0,-211.0,15.0,32.0,34.0,212,149,174,178,164
2025-02-26 14:42:52.575,-486.0,-875.0,-162.0,3.0,36.0,32.0,211,149,172,177,161
2025-02-26 14:42:52.580,-506.0,-818.0,-220.0,6.0,35.0,31.0,208,143,168,172,155
2025-02-26 14:42:52.588,-496.0,-884.0,-140.0,6.0,38.0,33.0,206,140,165,169,152
2025-02-26 14:42:52.592,-468.0,-845.0,-169.0,1.0,40.0,32.0,210,146,170,175,156
2025-02-26 14:42:52.596,-469.0,-810.0,-205.0,6.0,47.0,34.0,210,145,168,174,155
2025-02-26 14:42:52.604,-456.0,-823.0,-266.0,10.0,51.0,34.0,210,142,167,173,153
2025-02-26 14:42:52.605,-487.0,-850.0,-205.0,11.0,53.0,36.0,204,136,158,164,145
2025-02-26 14:42:52.612,-529.0,-844.0,-166.0,13.0,58.0,34.0,199,131,153,159,141
2025-02-26 14:42:52.617,-480.0,-772.0,-175.0,23.0,54.0,33.0,210,143,162,168,150
2025-02-26 14:42:52.623,-448.0,-773.0,-170.0,31.0,37.0,27.0,211,143,161,167,151
2025-02-26 14:42:52.629,-434.0,-761.0,-208.0,34.0,21.0,22.0,207,136,158,162,145
2025-02-26 14:42:52.633,-452.0,-735.0,-233.0,36.0,20.0,20.0,202,130,151,154,138
2025-02-26 14:42:52.641,-526.0,-725.0,-236.0,36.0,21.0,20.0,209,137,156,160,144
2025-02-26 14:42:52.645,-546.0,-723.0,-176.0,35.0,24.0,22.0,211,140,162,164,146
2025-02-26 14:42:52.649,-514.0,-691.0,-179.0,29.0,27.0,22.0,211,138,159,161,145
2025-02-26 14:42:52.657,-510.0,-669.0,-216.0,27.0,21.0,23.0,206,134,155,156,141
2025-02-26 14:42:52.661,-522.0,-685.0,-250.0,23.0,18.0,23.0,205,131,152,154,138
2025-02-26 14:42:52.666,-588.0,-669.0,-201.0,26.0,14.0,23.0,202,128,149,151,134
2025-02-26 14:42:52.673,-616.0,-665.0,-177.0,35.0,12.0,22.0,208,136,157,157,141
2025-02-26 14:42:52.678,-617.0,-656.0,-163.0,47.0,10.0,18.0,209,136,155,156,141
2025-02-26 14:42:52.682,-614.0,-600.0,-169.0,53.0,7.0,16.0,204,131,151,153,137
2025-02-26 14:42:52.686,-614.0,-563.0,-239.0,67.0,9.0,14.0,200,126,147,148,132
2025-02-26 14:42:52.694,-627.0,-506.0,-139.0,77.0,7.0,12.0,208,136,152,154,140
2025-02-26 14:42:52.696,-647.0,-432.0,-159.0,81.0,5.0,8.0,206,133,153,156,138
2025-02-26 14:42:52.702,-644.0,-358.0,-179.0,84.0,1.0,3.0,206,133,151,154,138
2025-02-26 14:42:52.707,-694.0,-284.0,-114.0,87.0,4.0,-6.0,200,126,144,145,130
2025-02-26 14:42:52.715,-663.0,-233.0,-132.0,85.0,12.0,-10.0,203,132,148,150,135
2025-02-26 14:42:52.719,-601.0,-186.0,-166.0,85.0,21.0,-18.0,209,137,155,159,143
2025-02-26 14:42:52.723,-575.0,-23.0,-172.0,85.0,30.0,-27.0,201,133,151,154,138
2025-02-26 14:42:52.731,-723.0,156.0,-259.0,88.0,36.0,-38.0,191,125,143,145,130
2025-02-26 14:42:52.735,-778.0,352.0,-150.0,91.0,38.0,-46.0,176,111,129,132,115
2025-02-26 14:42:52.740,-825.0,457.0,-149.0,77.0,46.0,-49.0,176,114,130,134,117
2025-02-26 14:42:52.744,-884.0,716.0,-175.0,62.0,50.0,-58.0,177,118,136,140,124
2025-02-26 14:42:52.751,-961.0,983.0,-218.0,46.0,48.0,-73.0,177,119,137,143,129
2025-02-26 14:42:52.756,-950.0,1224.0,-295.0,40.0,35.0,-95.0,172,118,135,144,126
2025-02-26 14:42:52.763,-977.0,1168.0,-316.0,49.0,33.0,-108.0,182,129,147,153,138
2025-02-26 14:42:52.768,-775.0,1338.0,-487.0,62.0,35.0,-124.0,163,114,131,137,123
2025-02-26 14:42:52.772,-754.0,1325.0,-720.0,115.0,37.0,-175.0,165,111,135,140,124
2025-02-26 14:42:52.780,-734.0,1173.0,-711.0,181.0,44.0,-247.0,163,114,130,139,123
2025-02-26 14:42:52.785,-901.0,1026.0,-597.0,245.0,16.0,-331.0,161,112,130,137,122
2025-02-26 14:42:52.787,-799.0,1026.0,-721.0,283.0,-56.0,-424.0,155,108,125,133,117
2025-02-26 14:42:52.797,-629.0,992.0,-757.0,339.0,-104.0,-501.0,156,108,124,131,118
2025-02-26 14:42:52.801,-485.0,967.0,-685.0,368.0,-134.0,-568.0,153,108,123,130,116
2025-02-26 14:42:52.809,-148.0,960.0,-452.0,383.0,-160.0,-627.0,151,104,121,127,114
2025-02-26 14:42:52.813,162.0,815.0,-274.0,398.0,-233.0,-664.0,161,118,135,139,127
2025-02-26 14:42:52.817,976.0,518.0,148.0,398.0,-304.0,-670.0,185,142,158,163,150
2025-02-26 14:42:52.824,1690.0,212.0,935.0,368.0,-321.0,-652.0,229,187,207,209,195
2025-02-26 14:42:52.830,2514.0,-523.0,1624.0,339.0,-304.0,-599.0,187,143,165,165,154
2025-02-26 14:42:52.833,2985.0,-1458.0,1978.0,309.0,-259.0,-513.0,186,145,164,165,155
2025-02-26 14:42:52.841,3429.0,-2633.0,2604.0,283.0,-163.0,-384.0,187,145,166,166,156
2025-02-26 14:42:52.846,3702.0,-3661.0,2979.0,261.0,-53.0,-250.0,183,140,161,161,151
2025-02-26 14:42:52.854,3685.0,-4407.0,2930.0,270.0,39.0,-143.0,176,136,156,156,146
2025-02-26 14:42:52.857,3435.0,-4915.0,2693.0,283.0,114.0,-69.0,182,144,162,162,152
2025-02-26 14:42:52.859,2947.0,-5128.0,2374.0,281.0,171.0,-4.0,166,121,144,144,135
2025-02-26 14:42:52.869,2263.0,-4821.0,2027.0,235.0,200.0,70.0,156,116,133,133,123
2025-02-26 14:42:52.874,1858.0,-4015.0,1612.0,163.0,190.0,147.0,148,111,130,122,113
2025-02-26 14:42:52.879,1167.0,-2796.0,1118.0,46.0,156.0,194.0,149,107,134,121,112
2025-02-26 14:42:52.884,523.0,-1668.0,711.0,-76.0,91.0,206.0,141,101,129,117,107
2025-02-26 14:42:52.891,387.0,-1348.0,659.0,-191.0,42.0,212.0,143,104,128,118,108
2025-02-26 14:42:52.895,403.0,-1018.0,589.0,-273.0,4.0,190.0,142,102,118,120,108
2025-02-26 14:42:52.902,354.0,-1021.0,577.0,-296.0,-33.0,153.0,141,103,114,119,107
2025-02-26 14:42:52.907,413.0,-1234.0,467.0,-319.0,-63.0,120.0,140,102,111,118,106
2025-02-26 14:42:52.912,356.0,-1459.0,372.0,-311.0,-60.0,104.0,135,99,106,113,102
2025-02-26 14:42:52.919,358.0,-1594.0,375.0,-303.0,-48.0,104.0,135,96,108,117,104
2025-02-26 14:42:52.924,436.0,-1661.0,313.0,-279.0,-30.0,102.0,141,101,118,125,109
2025-02-26 14:42:52.931,379.0,-1773.0,245.0,-261.0,-22.0,113.0,151,111,132,133,120
2025-02-26 14:42:52.935,425.0,-1823.0,290.0,-241.0,-30.0,134.0,152,113,134,134,121
2025-02-26 14:42:52.939,278.0,-1881.0,313.0,-221.0,-45.0,157.0,155,115,138,138,126
2025-02-26 14:42:52.948,310.0,-1783.0,403.0,-199.0,-47.0,180.0,152,113,131,135,122
2025-02-26 14:42:52.952,328.0,-1676.0,465.0,-187.0,-50.0,197.0,151,112,125,131,119
2025-02-26 14:42:52.957,321.0,-1513.0,538.0,-167.0,-40.0,204.0,146,106,119,129,116
2025-02-26 14:42:52.963,244.0,-1356.0,552.0,-149.0,-39.0,209.0,147,107,120,130,117
2025-02-26 14:42:52.968,173.0,-1274.0,509.0,-125.0,-35.0,210.0,146,105,122,127,117
2025-02-26 14:42:52.972,151.0,-1258.0,460.0,-94.0,-49.0,210.0,143,103,119,124,114
2025-02-26 14:42:52.981,138.0,-1108.0,492.0,-73.0,-59.0,216.0,157,116,132,138,128
2025-02-26 14:42:52.985,170.0,-976.0,402.0,-61.0,-34.0,225.0,191,151,166,171,163
2025-02-26 14:42:52.989,111.0,-931.0,427.0,-49.0,-47.0,228.0,225,185,199,205,197
2025-02-26 14:42:52.997,103.0,-757.0,395.0,-41.0,-37.0,235.0,177,135,149,157,148
2025-02-26 14:42:53.001,114.0,-667.0,329.0,-45.0,-33.0,244.0,173,134,146,153,145
2025-02-26 14:42:53.005,32.0,-600.0,308.0,-36.0,-33.0,241.0,174,130,145,153,143
2025-02-26 14:42:53.010,63.0,-413.0,336.0,-47.0,-24.0,241.0,243,205,217,225,215
2025-02-26 14:42:53.017,-13.0,-316.0,271.0,-55.0,5.0,238.0,247,211,222,230,220
2025-02-26 14:42:53.022,-89.0,-290.0,252.0,-62.0,0.0,230.0,239,199,215,222,212
2025-02-26 14:42:53.027,-141.0,-261.0,225.0,-74.0,-3.0,227.0,239,199,213,220,209
2025-02-26 14:42:53.034,-248.0,-259.0,172.0,-91.0,2.0,223.0,241,199,211,223,212
2025-02-26 14:42:53.038,-241.0,-159.0,148.0,-98.0,1.0,210.0,247,208,223,231,220
2025-02-26 14:42:53.042,-423.0,-172.0,76.0,-108.0,-4.0,194.0,252,213,229,235,224
2025-02-26 14:42:53.046,-476.0,-135.0,59.0,-112.0,11.0,177.0,248,210,224,231,222
2025-02-26 14:42:53.054,-503.0,-145.0,-7.0,-110.0,14.0,157.0,221,181,195,203,192
2025-02-26 14:42:53.058,-543.0,-150.0,-20.0,-110.0,16.0,147.0,233,192,207,215,204
2025-02-26 14:42:53.066,-500.0,-185.0,-52.0,-108.0,19.0,129.0,179,136,153,162,150
2025-02-26 14:42:53.070,-524.0,-204.0,-57.0,-105.0,23.0,114.0,177,135,151,158,148
2025-02-26 14:42:53.075,-525.0,-261.0,-36.0,-99.0,34.0,102.0,172,128,145,151,141
2025-02-26 14:42:53.082,-492.0,-290.0,-6.0,-95.0,42.0,94.0,174,131,148,154,144
2025-02-26 14:42:53.087,-486.0,-266.0,-28.0,-89.0,46.0,87.0,170,125,144,149,139
2025-02-26 14:42:53.091,-458.0,-282.0,-44.0,-80.0,53.0,85.0,166,122,141,147,137
2025-02-26 14:42:53.099,-464.0,-294.0,-68.0,-75.0,59.0,81.0,179,132,152,148,148
2025-02-26 14:42:53.104,-472.0,-288.0,-75.0,-67.0,54.0,76.0,172,135,151,158,149
2025-02-26 14:42:53.106,-479.0,-298.0,-123.0,-64.0,47.0,72.0,176,132,148,156,146
2025-02-26 14:42:53.112,-501.0,-246.0,-139.0,-56.0,48.0,70.0,170,126,144,153,141
2025-02-26 14:42:53.120,-491.0,-87.0,-242.0,-52.0,52.0,68.0,175,131,149,159,147
2025-02-26 14:42:53.124,-464.0,-242.0,-167.0,-48.0,58.0,76.0,186,143,161,170,156
2025-02-26 14:42:53.125,-570.0,-125.0,-203.0,-41.0,52.0,75.0,186,142,159,171,158
2025-02-26 14:42:53.136,-650.0,-53.0,-230.0,-38.0,41.0,73.0,189,144,163,172,161
2025-02-26 14:42:53.137,-783.0,71.0,-283.0,-30.0,35.0,71.0,186,139,157,166,155
2025-02-26 14:42:53.144,-807.0,258.0,-306.0,-24.0,21.0,70.0,181,135,152,164,151
2025-02-26 14:42:53.149,-898.0,332.0,-327.0,-20.0,6.0,66.0,187,142,159,168,158
2025-02-26 14:42:53.156,-1040.0,593.0,-371.0,-17.0,-14.0,59.0,186,141,154,170,157
2025-02-26 14:42:53.161,-1114.0,853.0,-405.0,-16.0,-32.0,51.0,186,139,156,168,154
2025-02-26 14:42:53.169,-1189.0,1174.0,-382.0,-19.0,-39.0,34.0,182,135,154,163,152
2025-02-26 14:42:53.173,-1193.0,1527.0,-307.0,-15.0,-41.0,3.0,180,134,153,163,146
2025-02-26 14:42:53.177,-1188.0,1877.0,-233.0,2.0,-34.0,-22.0,189,140,162,170,158
2025-02-26 14:42:53.185,-1106.0,2020.0,-158.0,37.0,-20.0,-95.0,209,164,184,192,180
2025-02-26 14:42:53.190,-993.0,2272.0,-109.0,81.0,9.0,-192.0,207,162,184,190,179
2025-02-26 14:42:53.191,-739.0,2315.0,-132.0,129.0,42.0,-296.0,205,159,180,188,174
2025-02-26 14:42:53.201,-574.0,2191.0,-139.0,150.0,72.0,-392.0,210,164,186,193,181
2025-02-26 14:42:53.206,-399.0,1986.0,-274.0,197.0,80.0,-484.0,202,159,180,187,175
2025-02-26 14:42:53.210,-75.0,1688.0,-287.0,241.0,73.0,-570.0,197,153,175,181,168
2025-02-26 14:42:53.218,59.0,1293.0,-283.0,283.0,50.0,-642.0,195,150,170,181,166
2025-02-26 14:42:53.222,400.0,1091.0,-278.0,316.0,24.0,-676.0,199,149,172,174,165
2025-02-26 14:42:53.235,670.0,637.0,-282.0,335.0,-5.0,-733.0,202,157,178,187,173
2025-02-26 14:42:53.237,850.0,19.0,-262.0,347.0,-50.0,-780.0,201,158,178,183,173
2025-02-26 14:42:53.239,987.0,-527.0,-186.0,349.0,-125.0,-775.0,197,152,175,182,170
2025-02-26 14:42:53.243,1746.0,-1137.0,78.0,355.0,-214.0,-740.0,193,148,171,180,168
2025-02-26 14:42:53.251,2466.0,-2226.0,611.0,348.0,-261.0,-651.0,192,147,172,176,166
2025-02-26 14:42:53.255,2844.0,-3834.0,1673.0,325.0,-256.0,-490.0,192,148,172,176,167
2025-02-26 14:42:53.263,3541.0,-5679.0,2644.0,284.0,-210.0,-267.0,196,151,172,178,169
2025-02-26 14:42:53.266,4036.0,-6886.0,3085.0,259.0,-147.0,-40.0,194,149,170,175,169
2025-02-26 14:42:53.271,4460.0,-7122.0,3054.0,251.0,-57.0,113.0,195,147,165,172,168
2025-02-26 14:42:53.278,4407.0,-6368.0,2713.0,245.0,73.0,157.0,194,148,168,168,167
2025-02-26 14:42:53.284,3518.0,-5880.0,2112.0,238.0,183.0,211.0,199,154,182,168,170
2025-02-26 14:42:53.290,2280.0,-4346.0,1384.0,150.0,180.0,236.0,200,156,185,171,170
2025-02-26 14:42:53.295,1244.0,-2808.0,1184.0,41.0,177.0,261.0,199,155,184,170,169
2025-02-26 14:42:53.300,794.0,-1969.0,967.0,-74.0,139.0,295.0,195,151,173,170,167
2025-02-26 14:42:53.308,612.0,-1399.0,854.0,-123.0,100.0,306.0,190,147,161,163,160
2025-02-26 14:42:53.312,544.0,-1150.0,731.0,-216.0,84.0,316.0,181,137,147,156,153
2025-02-26 14:42:53.317,540.0,-946.0,499.0,-283.0,68.0,312.0,173,132,140,151,147
2025-02-26 14:42:53.325,458.0,-811.0,276.0,-313.0,22.0,301.0,168,123,137,142,143
2025-02-26 14:42:53.329,344.0,-967.0,137.0,-303.0,-10.0,263.0,174,130,146,153,149
2025-02-26 14:42:53.333,199.0,-972.0,104.0,-278.0,-25.0,219.0,173,131,152,155,149
2025-02-26 14:42:53.341,-7.0,-1085.0,-125.0,-260.0,3.0,194.0,179,134,161,162,154
2025-02-26 14:42:53.345,37.0,-1022.0,-201.0,-249.0,48.0,172.0,173,127,154,157,147
2025-02-26 14:42:53.350,-60.0,-1136.0,-168.0,-224.0,48.0,149.0,168,122,144,151,143
2025-02-26 14:42:53.357,-126.0,-1177.0,-84.0,-204.0,34.0,132.0,166,122,139,152,141
2025-02-26 14:42:53.362,-129.0,-1054.0,-40.0,-185.0,1.0,130.0,170,126,142,157,147
2025-02-26 14:42:53.366,-9.0,-1168.0,82.0,-176.0,-24.0,134.0,176,134,146,160,152
2025-02-26 14:42:53.374,-112.0,-1142.0,58.0,-174.0,-36.0,140.0,174,130,148,159,150
2025-02-26 14:42:53.378,-146.0,-1147.0,150.0,-174.0,-37.0,156.0,177,131,150,159,150
2025-02-26 14:42:53.382,-86.0,-1032.0,119.0,-166.0,-41.0,168.0,177,132,152,158,151
2025-02-26 14:42:53.390,-59.0,-1068.0,164.0,-160.0,-45.0,184.0,175,129,151,157,151
2025-02-26 14:42:53.395,-18.0,-1032.0,254.0,-159.0,-45.0,204.0,173,124,145,152,146
2025-02-26 14:42:53.399,-71.0,-940.0,285.0,-146.0,-60.0,213.0,174,128,149,155,151
2025-02-26 14:42:53.406,-5.0,-850.0,304.0,-131.0,-84.0,217.0,175,126,144,153,148
2025-02-26 14:42:53.411,9.0,-758.0,288.0,-128.0,-69.0,221.0,178,129,148,158,152
2025-02-26 14:42:53.415,-98.0,-565.0,300.0,-134.0,-47.0,225.0,178,130,150,160,153
2025-02-26 14:42:53.423,-81.0,-459.0,266.0,-131.0,-43.0,226.0,179,131,148,161,154
2025-02-26 14:42:53.427,-237.0,-380.0,244.0,-128.0,-49.0,217.0,177,128,148,157,151
2025-02-26 14:42:53.435,-237.0,-238.0,187.0,-132.0,-47.0,208.0,174,124,145,154,147
2025-02-26 14:42:53.439,-290.0,-76.0,164.0,-140.0,-36.0,197.0,175,127,144,155,147
2025-02-26 14:42:53.444,-334.0,-55.0,147.0,-136.0,-41.0,191.0,175,125,143,154,148
2025-02-26 14:42:53.451,-445.0,-79.0,135.0,-144.0,-38.0,180.0,182,132,150,161,155
2025-02-26 14:42:53.454,-466.0,-7.0,108.0,-151.0,-9.0,174.0,182,132,151,163,156
2025-02-26 14:42:53.460,-510.0,60.0,51.0,-149.0,5.0,167.0,185,136,154,164,157
2025-02-26 14:42:53.464,-527.0,108.0,12.0,-152.0,4.0,156.0,180,128,147,157,150
2025-02-26 14:42:53.472,-545.0,-6.0,-39.0,-150.0,7.0,152.0,177,126,144,154,147
2025-02-26 14:42:53.477,-594.0,115.0,-30.0,-140.0,16.0,143.0,183,134,153,160,154
2025-02-26 14:42:53.481,-613.0,34.0,-64.0,-134.0,27.0,139.0,188,137,155,164,159
2025-02-26 14:42:53.488,-650.0,33.0,-125.0,-129.0,29.0,135.0,186,135,154,161,155
2025-02-26 14:42:53.493,-635.0,69.0,-170.0,-117.0,26.0,132.0,178,127,147,156,150
2025-02-26 14:42:53.497,-574.0,129.0,-135.0,-119.0,40.0,131.0,179,127,145,159,151
2025-02-26 14:42:53.505,-593.0,130.0,-156.0,-114.0,52.0,129.0,183,135,154,159,159
2025-02-26 14:42:53.509,-600.0,67.0,-213.0,-101.0,58.0,128.0,190,135,154,164,158
2025-02-26 14:42:53.514,-571.0,94.0,-236.0,-84.0,56.0,128.0,189,139,153,166,156
2025-02-26 14:42:53.518,-636.0,147.0,-271.0,-74.0,52.0,122.0,194,139,158,170,161
2025-02-26 14:42:53.526,-632.0,234.0,-300.0,-50.0,48.0,108.0,186,130,147,160,152
2025-02-26 14:42:53.529,-667.0,356.0,-270.0,-26.0,44.0,99.0,186,130,145,160,151
2025-02-26 14:42:53.534,-744.0,459.0,-380.0,-5.0,33.0,78.0,192,134,151,166,157
2025-02-26 14:42:53.542,-944.0,661.0,-385.0,19.0,20.0,53.0,199,140,157,172,162
2025-02-26 14:42:53.545,-1078.0,800.0,-432.0,35.0,-2.0,23.0,193,133,150,165,157
2025-02-26 14:42:53.550,-1173.0,981.0,-506.0,60.0,-11.0,-15.0,191,129,148,161,154
2025-02-26 14:42:53.558,-1227.0,1017.0,-505.0,89.0,-45.0,-37.0,190,129,148,162,152
2025-02-26 14:42:53.563,-1164.0,1148.0,-500.0,114.0,-81.0,-85.0,199,137,154,169,159
2025-02-26 14:42:53.567,-1154.0,1291.0,-397.0,133.0,-102.0,-124.0,200,136,155,171,161
2025-02-26 14:42:53.575,-1270.0,1436.0,-285.0,145.0,-108.0,-155.0,200,134,152,170,160
2025-02-26 14:42:53.579,-1123.0,1482.0,-244.0,158.0,-113.0,-192.0,207,142,158,177,168
2025-02-26 14:42:53.586,-994.0,1590.0,-105.0,172.0,-123.0,-238.0,204,139,154,172,161
2025-02-26 14:42:53.592,-860.0,1631.0,-30.0,191.0,-131.0,-288.0,202,136,154,171,159
2025-02-26 14:42:53.593,-764.0,1372.0,93.0,216.0,-133.0,-326.0,203,135,153,173,162
2025-02-26 14:42:53.603,-389.0,1347.0,98.0,233.0,-123.0,-368.0,204,134,150,170,158
2025-02-26 14:42:53.605,-147.0,1250.0,219.0,261.0,-103.0,-406.0,203,133,153,167,158
2025-02-26 14:42:53.612,53.0,984.0,331.0,307.0,-92.0,-450.0,200,128,149,165,154
2025-02-26 14:42:53.620,244.0,741.0,335.0,372.0,-86.0,-496.0,204,131,152,165,155
2025-02-26 14:42:53.624,523.0,590.0,256.0,452.0,-104.0,-521.0,210,135,158,171,160
2025-02-26 14:42:53.628,792.0,321.0,231.0,533.0,-134.0,-565.0,207,133,156,167,159
2025-02-26 14:42:53.636,1098.0,-42.0,91.0,584.0,-163.0,-603.0,210,133,158,167,158
2025-02-26 14:42:53.641,1260.0,-271.0,204.0,597.0,-189.0,-638.0,211,133,157,165,159
2025-02-26 14:42:53.648,1552.0,-442.0,322.0,591.0,-221.0,-652.0,210,130,155,161,158
2025-02-26 14:42:53.653,2042.0,-908.0,526.0,546.0,-244.0,-654.0,204,124,147,153,151
2025-02-26 14:42:53.657,2331.0,-1772.0,666.0,507.0,-274.0,-630.0,207,126,149,155,153
2025-02-26 14:42:53.665,2854.0,-3321.0,1046.0,459.0,-286.0,-556.0,209,126,148,150,152
2025-02-26 14:42:53.669,3149.0,-4893.0,1496.0,441.0,-293.0,-427.0,210,125,147,148,152
2025-02-26 14:42:53.677,3501.0,-6579.0,2169.0,471.0,-270.0,-239.0,212,126,146,145,151
2025-02-26 14:42:53.681,3651.0,-7230.0,3016.0,463.0,-182.0,-48.0,217,129,150,147,153
2025-02-26 14:42:53.686,3530.0,-6702.0,3548.0,430.0,-95.0,13.0,211,125,147,140,147
2025-02-26 14:42:53.694,3271.0,-4850.0,3821.0,337.0,11.0,123.0,223,131,157,146,151
2025-02-26 14:42:53.697,2799.0,-2973.0,3900.0,131.0,163.0,196.0,221,131,159,148,149
2025-02-26 14:42:53.706,2018.0,-1620.0,3471.0,-88.0,257.0,214.0,222,131,161,151,150
2025-02-26 14:42:53.709,1452.0,-864.0,2749.0,-280.0,213.0,210.0,219,130,161,148,148
2025-02-26 14:42:53.714,948.0,-802.0,1923.0,-369.0,118.0,207.0,218,130,160,148,146
2025-02-26 14:42:53.720,742.0,-1011.0,1050.0,-496.0,38.0,218.0,223,134,165,152,153
2025-02-26 14:42:53.726,717.0,-1312.0,663.0,-537.0,22.0,234.0,215,124,155,145,144
2025-02-26 14:42:53.731,608.0,-1486.0,256.0,-509.0,15.0,242.0,213,122,150,141,141
2025-02-26 14:42:53.739,456.0,-1521.0,85.0,-468.0,13.0,240.0,210,122,146,141,141
2025-02-26 14:42:53.743,453.0,-1569.0,72.0,-409.0,5.0,231.0,221,134,149,153,153
2025-02-26 14:42:53.744,291.0,-1636.0,119.0,-363.0,6.0,221.0,218,130,140,153,151
2025-02-26 14:42:53.754,227.0,-1780.0,110.0,-338.0,5.0,218.0,217,127,137,148,147
2025-02-26 14:42:53.759,227.0,-1766.0,221.0,-291.0,4.0,229.0,214,125,134,149,146
2025-02-26 14:42:53.763,229.0,-1705.0,307.0,-236.0,5.0,244.0,217,130,140,151,149
2025-02-26 14:42:53.769,273.0,-1545.0,418.0,-196.0,11.0,255.0,224,138,152,162,159
2025-02-26 14:42:53.775,319.0,-1378.0,457.0,-154.0,26.0,263.0,240,156,172,178,175
2025-02-26 14:42:53.780,311.0,-1108.0,469.0,-121.0,47.0,267.0,257,174,190,195,193
2025-02-26 14:42:53.788,473.0,-708.0,537.0,-114.0,83.0,281.0,251,168,186,191,189
2025-02-26 14:42:53.792,245.0,-791.0,508.0,-105.0,118.0,273.0,246,162,182,185,182
2025-02-26 14:42:53.796,63.0,-748.0,476.0,-81.0,150.0,282.0,244,162,179,184,180
2025-02-26 14:42:53.801,179.0,-650.0,412.0,-89.0,194.0,280.0,249,164,184,185,183
2025-02-26 14:42:53.808,-121.0,-89.0,559.0,-90.0,181.0,284.0,252,169,190,190,190
2025-02-26 14:42:53.812,-138.0,-108.0,534.0,-113.0,167.0,270.0,252,170,188,189,190
2025-02-26 14:42:53.817,-98.0,287.0,374.0,-107.0,141.0,253.0,250,165,185,188,188
2025-02-26 14:42:53.824,-278.0,281.0,328.0,-140.0,110.0,232.0,245,165,180,187,183
2025-02-26 14:42:53.829,-366.0,359.0,260.0,-151.0,100.0,209.0,243,158,178,183,179
2025-02-26 14:42:53.833,-487.0,385.0,131.0,-149.0,94.0,199.0,245,161,178,184,181
2025-02-26 14:42:53.840,-525.0,363.0,76.0,-146.0,96.0,179.0,258,175,192,198,196
2025-02-26 14:42:53.845,-624.0,302.0,53.0,-160.0,80.0,156.0,254,171,183,195,192
2025-02-26 14:42:53.849,-665.0,303.0,49.0,-161.0,40.0,136.0,251,166,182,190,186
2025-02-26 14:42:53.857,-650.0,330.0,78.0,-187.0,26.0,115.0,243,158,173,184,179
2025-02-26 14:42:53.861,-646.0,279.0,21.0,-192.0,18.0,107.0,245,160,178,185,180
2025-02-26 14:42:53.866,-613.0,234.0,-91.0,-193.0,29.0,91.0,248,166,181,187,184
2025-02-26 14:42:53.874,-667.0,101.0,-71.0,-191.0,35.0,79.0,246,163,180,186,184
2025-02-26 14:42:53.878,-675.0,63.0,-74.0,-192.0,31.0,71.0,245,160,175,184,181
2025-02-26 14:42:53.882,-703.0,-3.0,-124.0,-185.0,24.0,62.0,242,158,172,180,176
2025-02-26 14:42:53.886,-712.0,-30.0,-132.0,-173.0,16.0,60.0,240,157,171,182,175
2025-02-26 14:42:53.894,-696.0,-96.0,-164.0,-158.0,10.0,54.0,247,161,181,186,183
2025-02-26 14:42:53.899,-699.0,-138.0,-189.0,-137.0,10.0,49.0,247,163,180,187,183
2025-02-26 14:42:53.902,-663.0,-142.0,-179.0,-122.0,14.0,42.0,246,163,179,186,182
2025-02-26 14:42:53.910,-626.0,-200.0,-125.0,-98.0,12.0,35.0,244,160,177,182,180
2025-02-26 14:42:53.913,-628.0,-183.0,-135.0,-74.0,10.0,29.0,242,156,172,178,174
2025-02-26 14:42:53.919,-606.0,-175.0,-135.0,-49.0,7.0,25.0,244,160,178,184,179
2025-02-26 14:42:53.927,-604.0,-162.0,-152.0,-23.0,14.0,23.0,249,165,183,188,184
2025-02-26 14:42:53.932,-563.0,-129.0,-134.0,-5.0,26.0,18.0,246,164,182,186,182
2025-02-26 14:42:53.936,-613.0,-84.0,-149.0,6.0,28.0,14.0,243,161,180,183,179
2025-02-26 14:42:53.943,-591.0,-51.0,-173.0,31.0,25.0,8.0,242,158,177,182,178
2025-02-26 14:42:53.947,-620.0,-27.0,-183.0,49.0,10.0,5.0,246,163,179,182,179
2025-02-26 14:42:53.951,-606.0,78.0,-197.0,65.0,8.0,-2.0,247,163,180,185,182
2025-02-26 14:42:53.956,-679.0,214.0,-251.0,72.0,11.0,-8.0,241,160,178,184,179
2025-02-26 14:42:53.964,-695.0,371.0,-250.0,89.0,9.0,-19.0,240,158,174,182,180
2025-02-26 14:42:53.967,-745.0,416.0,-231.0,103.0,-2.0,-27.0,247,164,182,188,183
2025-02-26 14:42:53.973,-774.0,541.0,-214.0,122.0,-16.0,-46.0,245,156,180,188,182
2025-02-26 14:42:53.980,-835.0,731.0,-216.0,147.0,-27.0,-71.0,247,165,181,188,183
2025-02-26 14:42:53.984,-878.0,918.0,-199.0,160.0,-38.0,-109.0,245,162,178,186,180
2025-02-26 14:42:53.988,-835.0,1049.0,-216.0,193.0,-50.0,-154.0,241,158,174,181,177
2025-02-26 14:42:53.997,-822.0,1098.0,-166.0,220.0,-52.0,-201.0,241,158,175,181,177
2025-02-26 14:42:54.001,-816.0,1041.0,-129.0,249.0,-53.0,-248.0,244,161,179,184,180
2025-02-26 14:42:54.005,-746.0,998.0,-16.0,283.0,-45.0,-301.0,243,159,178,184,178
2025-02-26 14:42:54.013,-623.0,982.0,28.0,322.0,-34.0,-326.0,245,160,180,186,180
2025-02-26 14:42:54.017,-426.0,947.0,81.0,347.0,-22.0,-372.0,246,160,183,188,185
2025-02-26 14:42:54.022,-337.0,617.0,124.0,367.0,-12.0,-401.0,247,166,186,191,187
2025-02-26 14:42:54.029,-296.0,336.0,37.0,383.0,-12.0,-416.0,245,161,182,188,183
2025-02-26 14:42:54.033,-230.0,171.0,121.0,401.0,-17.0,-426.0,243,156,177,184,179
2025-02-26 14:42:54.037,-40.0,87.0,192.0,405.0,-37.0,-443.0,241,156,176,182,178
2025-02-26 14:42:54.045,268.0,19.0,309.0,404.0,-69.0,-450.0,248,164,183,189,185
2025-02-26 14:42:54.050,536.0,-188.0,401.0,389.0,-98.0,-455.0,249,164,182,191,187
2025-02-26 14:42:54.054,934.0,-482.0,591.0,368.0,-123.0,-454.0,250,164,187,192,187
2025-02-26 14:42:54.060,1270.0,-947.0,761.0,362.0,-147.0,-456.0,251,167,187,194,189
2025-02-26 14:42:54.066,1645.0,-1485.0,866.0,340.0,-171.0,-458.0,243,161,184,188,185
2025-02-26 14:42:54.074,2015.0,-2345.0,985.0,317.0,-185.0,-435.0,244,159,179,186,182
2025-02-26 14:42:54.078,2176.0,-3502.0,1240.0,291.0,-192.0,-364.0,243,157,179,186,182
2025-02-26 14:42:54.083,2363.0,-4454.0,1736.0,259.0,-204.0,-253.0,235,159,179,179,183
2025-02-26 14:42:54.090,2614.0,-5022.0,2291.0,205.0,-183.0,-136.0,244,158,174,182,183
2025-02-26 14:42:54.095,2895.0,-4979.0,2573.0,152.0,-123.0,-25.0,241,157,173,180,181
2025-02-26 14:42:54.103,2905.0,-4458.0,2588.0,76.0,-52.0,66.0,248,163,177,183,185
2025-02-26 14:42:54.107,2634.0,-4072.0,2339.0,8.0,6.0,102.0,244,159,174,176,183
2025-02-26 14:42:54.112,2166.0,-3182.0,2146.0,-85.0,49.0,155.0,249,167,179,181,190
2025-02-26 14:42:54.120,1713.0,-2264.0,1783.0,-189.0,67.0,187.0,251,166,180,183,189
2025-02-26 14:42:54.124,1242.0,-1681.0,1235.0,-276.0,55.0,204.0,252,164,183,184,190
2025-02-26 14:42:54.128,831.0,-1460.0,786.0,-310.0,27.0,210.0,249,164,178,180,187
2025-02-26 14:42:54.136,548.0,-1403.0,494.0,-351.0,-7.0,216.0,244,161,177,175,180
2025-02-26 14:42:54.138,504.0,-1442.0,311.0,-369.0,-21.0,218.0,248,166,181,184,186
2025-02-26 14:42:54.145,401.0,-1503.0,218.0,-363.0,-35.0,217.0,243,162,178,182,183
2025-02-26 14:42:54.150,317.0,-1544.0,200.0,-343.0,-30.0,210.0,241,160,173,178,178
2025-02-26 14:42:54.156,264.0,-1660.0,216.0,-314.0,-30.0,199.0,250,167,179,188,187
2025-02-26 14:42:54.160,219.0,-1777.0,231.0,-270.0,-37.0,192.0,252,169,179,189,189
2025-02-26 14:42:54.169,210.0,-1864.0,275.0,-221.0,-45.0,190.0,249,167,179,190,187
2025-02-26 14:42:54.173,233.0,-1873.0,382.0,-200.0,-46.0,196.0,244,159,174,185,183
2025-02-26 14:42:54.178,293.0,-1805.0,475.0,-164.0,-38.0,209.0,244,164,175,187,184
2025-02-26 14:42:54.185,316.0,-1660.0,580.0,-138.0,-31.0,225.0,244,160,175,187,183
2025-02-26 14:42:54.187,390.0,-1478.0,599.0,-117.0,-15.0,240.0,241,158,172,181,180
2025-02-26 14:42:54.197,390.0,-1382.0,644.0,-99.0,6.0,244.0,241,158,178,184,182
2025-02-26 14:42:54.202,374.0,-1200.0,645.0,-89.0,30.0,256.0,252,172,190,199,193
2025-02-26 14:42:54.206,281.0,-970.0,648.0,-79.0,49.0,262.0,249,166,187,195,192
2025-02-26 14:42:54.210,209.0,-924.0,630.0,-72.0,64.0,269.0,249,164,183,190,187
2025-02-26 14:42:54.215,131.0,-735.0,595.0,-59.0,73.0,272.0,241,159,179,187,184
2025-02-26 14:42:54.222,128.0,-545.0,475.0,-68.0,109.0,274.0,244,162,182,190,189
2025-02-26 14:42:54.226,21.0,-432.0,472.0,-87.0,150.0,273.0,249,168,188,196,194
2025-02-26 14:42:54.234,-121.0,-332.0,460.0,-108.0,185.0,273.0,248,174,187,194,192
2025-02-26 14:42:54.238,-184.0,-315.0,457.0,-118.0,194.0,268.0,249,170,187,193,193
2025-02-26 14:42:54.242,-182.0,-280.0,406.0,-117.0,175.0,261.0,249,168,186,194,192
2025-02-26 14:42:54.250,-161.0,-246.0,354.0,-127.0,155.0,251.0,242,161,178,189,187
2025-02-26 14:42:54.254,-152.0,-230.0,285.0,-136.0,150.0,239.0,243,163,181,187,186
2025-02-26 14:42:54.262,-193.0,-149.0,236.0,-114.0,141.0,233.0,250,167,186,194,192
2025-02-26 14:42:54.266,-281.0,-211.0,181.0,-114.0,140.0,231.0,244,163,176,188,185
2025-02-26 14:42:54.272,-343.0,-163.0,67.0,-120.0,138.0,229.0,249,168,186,194,194
2025-02-26 14:42:54.279,-401.0,-169.0,2.0,-120.0,135.0,224.0,247,169,187,195,193
2025-02-26 14:42:54.283,-510.0,-68.0,-99.0,-117.0,132.0,216.0,252,169,186,196,194
2025-02-26 14:42:54.288,-538.0,27.0,-225.0,-113.0,131.0,206.0,247,169,184,194,192
2025-02-26 14:42:54.295,-530.0,72.0,-357.0,-114.0,131.0,193.0,241,168,176,188,190
2025-02-26 14:42:54.299,-630.0,166.0,-383.0,-119.0,120.0,174.0,242,162,177,186,187
2025-02-26 14:42:54.304,-662.0,139.0,-473.0,-124.0,105.0,162.0,239,163,174,185,187
2025-02-26 14:42:54.312,-734.0,208.0,-523.0,-127.0,74.0,135.0,247,171,185,193,194
2025-02-26 14:42:54.316,-780.0,181.0,-523.0,-119.0,61.0,110.0,244,169,183,195,194
2025-02-26 14:42:54.321,-699.0,242.0,-469.0,-120.0,47.0,86.0,250,176,187,199,198
2025-02-26 14:42:54.327,-703.0,176.0,-507.0,-113.0,28.0,61.0,247,170,185,195,195
2025-02-26 14:42:54.332,-699.0,53.0,-442.0,-101.0,23.0,40.0,236,163,177,189,190
2025-02-26 14:42:54.336,-598.0,100.0,-225.0,-81.0,30.0,32.0,238,161,177,190,191
2025-02-26 14:42:54.341,-563.0,-62.0,-343.0,-63.0,28.0,21.0,248,175,191,202,203
2025-02-26 14:42:54.348,-562.0,-85.0,-212.0,-32.0,24.0,12.0,246,173,187,200,203
2025-02-26 14:42:54.351,-584.0,-142.0,-220.0,-15.0,20.0,6.0,240,172,182,200,200
2025-02-26 14:42:54.355,-620.0,-267.0,-286.0,13.0,18.0,10.0,237,169,178,194,197
2025-02-26 14:42:54.364,-618.0,-195.0,-166.0,40.0,16.0,12.0,238,167,180,195,197
2025-02-26 14:42:54.369,-707.0,-195.0,-208.0,70.0,19.0,20.0,244,173,186,202,205
2025-02-26 14:42:54.374,-764.0,-89.0,-141.0,97.0,23.0,25.0,244,177,187,204,207
2025-02-26 14:42:54.381,-814.0,109.0,-176.0,107.0,16.0,19.0,246,183,193,208,214
2025-02-26 14:42:54.385,-826.0,323.0,-239.0,121.0,9.0,7.0,238,173,181,197,203
2025-02-26 14:42:54.390,-911.0,424.0,-141.0,134.0,1.0,-1.0,244,181,189,203,206
2025-02-26 14:42:54.394,-968.0,662.0,-97.0,155.0,0.0,-21.0,243,182,191,204,208
2025-02-26 14:42:54.402,-988.0,860.0,-19.0,171.0,0.0,-50.0,245,186,195,208,213
2025-02-26 14:42:54.406,-978.0,1036.0,13.0,207.0,0.0,-89.0,240,182,188,200,208
2025-02-26 14:42:54.410,-952.0,1116.0,41.0,244.0,-2.0,-111.0,234,180,186,199,204
2025-02-26 14:42:54.418,-932.0,1259.0,-55.0,285.0,-8.0,-156.0,243,190,196,208,213
2025-02-26 14:42:54.423,-947.0,1327.0,-91.0,332.0,-20.0,-204.0,244,194,200,212,217
2025-02-26 14:42:54.427,-975.0,1326.0,-361.0,380.0,-46.0,-249.0,244,196,203,212,215
2025-02-26 14:42:54.434,-1059.0,1171.0,-513.0,406.0,-62.0,-289.0,240,195,201,208,213
2025-02-26 14:42:54.439,-1170.0,958.0,-840.0,433.0,-89.0,-329.0,244,202,205,210,215
2025-02-26 14:42:54.441,-1209.0,822.0,-975.0,437.0,-120.0,-367.0,239,202,204,208,212
2025-02-26 14:42:54.451,-1108.0,641.0,-1093.0,429.0,-135.0,-408.0,237,200,203,206,209
2025-02-26 14:42:54.456,-1088.0,603.0,-1242.0,423.0,-189.0,-445.0,240,204,206,207,210
2025-02-26 14:42:54.464,-946.0,899.0,-1087.0,404.0,-242.0,-476.0,243,210,213,210,212
2025-02-26 14:42:54.467,-653.0,794.0,-572.0,403.0,-273.0,-491.0,239,208,210,211,210
2025-02-26 14:42:54.472,15.0,792.0,-155.0,373.0,-301.0,-499.0,239,211,213,212,213
2025-02-26 14:42:54.480,1215.0,755.0,855.0,352.0,-301.0,-503.0,247,219,218,216,217
2025-02-26 14:42:54.484,2072.0,442.0,1105.0,379.0,-279.0,-522.0,248,223,220,220,222
2025-02-26 14:42:54.490,2485.0,-239.0,946.0,340.0,-329.0,-536.0,248,224,220,219,221
2025-02-26 14:42:54.496,2532.0,-1131.0,1568.0,355.0,-302.0,-496.0,247,223,221,219,222
2025-02-26 14:42:54.501,2504.0,-2000.0,1709.0,369.0,-255.0,-424.0,252,229,229,223,226
2025-02-26 14:42:54.508,2938.0,-2596.0,1234.0,368.0,-246.0,-346.0,252,228,223,223,225
2025-02-26 14:42:54.513,3409.0,-3113.0,1432.0,364.0,-195.0,-253.0,250,229,219,221,218
2025-02-26 14:42:54.519,3655.0,-4263.0,2370.0,302.0,-96.0,-158.0,250,227,223,223,223
2025-02-26 14:42:54.525,3276.0,-4523.0,2942.0,127.0,-138.0,-152.0,249,226,220,219,222
2025-02-26 14:42:54.530,2476.0,-4992.0,3148.0,-23.0,-178.0,-51.0,249,227,220,218,220
2025-02-26 14:42:54.536,1895.0,-4075.0,4890.0,57.0,-9.0,57.0,223,199,194,195,195
2025-02-26 14:42:54.541,1805.0,-3501.0,3220.0,38.0,56.0,168.0,220,199,192,189,190
2025-02-26 14:42:54.549,1574.0,-2852.0,2161.0,-79.0,153.0,210.0,220,197,191,188,191
2025-02-26 14:42:54.553,1568.0,-2280.0,1895.0,-116.0,223.0,254.0,230,207,202,199,201
2025-02-26 14:42:54.557,1352.0,-1665.0,1813.0,-112.0,260.0,271.0,247,225,221,216,220
2025-02-26 14:42:54.566,1020.0,-1305.0,1187.0,-139.0,240.0,257.0,249,225,222,217,221
2025-02-26 14:42:54.568,751.0,-1230.0,691.0,-207.0,159.0,237.0,255,232,229,226,226
2025-02-26 14:42:54.575,401.0,-1297.0,531.0,-237.0,58.0,226.0,254,229,227,224,227
2025-02-26 14:42:54.582,133.0,-1270.0,404.0,-246.0,-24.0,221.0,259,237,232,230,233
2025-02-26 14:42:54.587,107.0,-1160.0,451.0,-261.0,-68.0,217.0,246,222,218,216,218
2025-02-26 14:42:54.591,176.0,-960.0,392.0,-239.0,-83.0,204.0,237,215,210,208,210
2025-02-26 14:42:54.599,187.0,-1005.0,242.0,-209.0,-84.0,195.0,237,216,212,210,213
2025-02-26 14:42:54.609,116.0,-1008.0,254.0,-193.0,-48.0,190.0,246,232,220,218,220
2025-02-26 14:42:54.613,94.0,-1036.0,254.0,-205.0,2.0,180.0,257,240,230,229,232
2025-02-26 14:42:54.615,87.0,-975.0,275.0,-224.0,23.0,166.0,265,243,238,237,238
2025-02-26 14:42:54.619,95.0,-887.0,341.0,-217.0,15.0,158.0,265,246,242,240,243
2025-02-26 14:42:54.623,59.0,-853.0,430.0,-197.0,11.0,156.0,255,235,229,228,230
2025-02-26 14:42:54.631,38.0,-831.0,495.0,-179.0,14.0,162.0,252,231,226,226,226
2025-02-26 14:42:54.636,-22.0,-855.0,553.0,-163.0,28.0,168.0,258,235,232,232,232
2025-02-26 14:42:54.640,-79.0,-904.0,592.0,-157.0,41.0,177.0,264,244,237,236,237
2025-02-26 14:42:54.647,-22.0,-726.0,-110.0,-169.0,-3.0,179.0,261,238,234,235,235
2025-02-26 14:42:54.651,-55.0,-772.0,376.0,-157.0,10.0,184.0,256,237,234,232,233
2025-02-26 14:42:54.656,2.0,-815.0,337.0,-158.0,18.0,190.0,252,234,228,227,228
2025-02-26 14:42:54.664,-37.0,-819.0,382.0,-176.0,29.0,195.0,260,232,227,227,226
2025-02-26 14:42:54.669,-120.0,-761.0,732.0,-160.0,60.0,199.0,258,238,234,234,235
2025-02-26 14:42:54.673,-60.0,-784.0,459.0,-140.0,93.0,205.0,256,238,226,233,234
2025-02-26 14:42:54.680,-51.0,-815.0,369.0,-133.0,98.0,210.0,254,234,231,232,234
2025-02-26 14:42:54.684,-108.0,-610.0,533.0,-138.0,108.0,206.0,253,234,230,230,231
2025-02-26 14:42:54.689,-87.0,-644.0,416.0,-131.0,111.0,203.0,249,231,227,226,229
2025-02-26 14:42:54.697,-128.0,-591.0,401.0,-140.0,117.0,198.0,252,231,224,225,228
2025-02-26 14:42:54.701,-201.0,-573.0,388.0,-142.0,113.0,194.0,255,235,231,231,230
2025-02-26 14:42:54.705,-277.0,-474.0,360.0,-128.0,110.0,187.0,258,239,235,236,235
2025-02-26 14:42:54.713,-356.0,-373.0,327.0,-119.0,109.0,184.0,258,237,234,234,234
2025-02-26 14:42:54.717,-436.0,-269.0,229.0,-109.0,113.0,176.0,255,237,232,234,233
2025-02-26 14:42:54.722,-519.0,-199.0,130.0,-108.0,120.0,168.0,261,246,244,241,244
2025-02-26 14:42:54.729,-585.0,-136.0,-17.0,-106.0,120.0,158.0,265,246,241,242,243
2025-02-26 14:42:54.734,-683.0,-69.0,-193.0,-114.0,112.0,143.0,259,240,235,235,235
2025-02-26 14:42:54.738,-682.0,-23.0,-84.0,-121.0,100.0,130.0,262,243,237,240,241
2025-02-26 14:42:54.746,-772.0,29.0,-247.0,-110.0,90.0,122.0,256,236,236,235,236
2025-02-26 14:42:54.751,-823.0,-148.0,-328.0,-97.0,71.0,108.0,260,244,243,240,241
2025-02-26 14:42:54.755,-802.0,5.0,-322.0,-85.0,47.0,90.0,262,242,240,240,241
2025-02-26 14:42:54.763,-774.0,54.0,-228.0,-77.0,35.0,72.0,263,244,242,241,241
2025-02-26 14:42:54.767,-761.0,121.0,-261.0,-63.0,29.0,55.0,255,237,235,234,235
2025-02-26 14:42:54.771,-754.0,150.0,-217.0,-38.0,21.0,47.0,254,231,229,231,232
2025-02-26 14:42:54.779,-781.0,212.0,-169.0,-10.0,13.0,30.0,262,243,240,241,241
2025-02-26 14:42:54.783,-786.0,273.0,-154.0,23.0,5.0,13.0,262,241,234,237,239
2025-02-26 14:42:54.787,-813.0,340.0,-156.0,41.0,-4.0,-5.0,254,236,233,234,235
2025-02-26 14:42:54.792,-822.0,435.0,-180.0,77.0,-8.0,-23.0,253,231,234,228,230
2025-02-26 14:42:54.799,-861.0,479.0,-267.0,111.0,-21.0,-33.0,263,241,236,237,237
2025-02-26 14:42:54.804,-939.0,583.0,-313.0,147.0,-33.0,-54.0,259,242,238,245,240
2025-02-26 14:42:54.808,-1030.0,643.0,-312.0,181.0,-38.0,-74.0,261,240,237,239,240
2025-02-26 14:42:54.816,-1130.0,719.0,-363.0,196.0,-44.0,-92.0,259,239,235,235,236
2025-02-26 14:42:54.820,-1186.0,829.0,-515.0,218.0,-59.0,-117.0,265,243,242,243,243
2025-02-26 14:42:54.828,-1227.0,926.0,-439.0,245.0,-62.0,-144.0,256,235,232,235,235
2025-02-26 14:42:54.833,-1208.0,1051.0,-430.0,274.0,-75.0,-175.0,255,233,230,233,234
2025-02-26 14:42:54.837,-1111.0,1115.0,-366.0,297.0,-90.0,-209.0,253,233,229,231,233
2025-02-26 14:42:54.845,-984.0,1152.0,-285.0,317.0,-104.0,-248.0,255,235,231,234,237
2025-02-26 14:42:54.849,-868.0,1157.0,-258.0,331.0,-119.0,-266.0,258,235,232,232,235
2025-02-26 14:42:54.857,-689.0,1154.0,-260.0,344.0,-146.0,-302.0,253,232,229,229,232
2025-02-26 14:42:54.861,-402.0,1166.0,-233.0,350.0,-176.0,-335.0,263,243,239,241,243
2025-02-26 14:42:54.865,-96.0,1166.0,-247.0,357.0,-201.0,-367.0,264,241,236,241,241
2025-02-26 14:42:54.873,126.0,945.0,-296.0,338.0,-226.0,-396.0,261,239,237,239,237
2025-02-26 14:42:54.878,333.0,840.0,-75.0,342.0,-238.0,-416.0,262,243,238,240,241
2025-02-26 14:42:54.882,610.0,14.0,-150.0,332.0,-259.0,-428.0,261,235,239,239,240
2025-02-26 14:42:54.890,955.0,-399.0,99.0,329.0,-274.0,-425.0,260,236,236,238,241
2025-02-26 14:42:54.894,1119.0,-1071.0,270.0,312.0,-285.0,-412.0,256,237,234,234,234
2025-02-26 14:42:54.902,1376.0,-1639.0,716.0,286.0,-309.0,-395.0,260,239,238,238,239
2025-02-26 14:42:54.905,1656.0,-2366.0,1104.0,250.0,-338.0,-358.0,257,237,232,234,234
2025-02-26 14:42:54.910,2047.0,-2380.0,1544.0,189.0,-352.0,-325.0,258,236,232,231,235
2025-02-26 14:42:54.918,2347.0,-3193.0,2236.0,134.0,-336.0,-269.0,259,235,233,233,234
2025-02-26 14:42:54.922,2388.0,-3836.0,2570.0,41.0,-292.0,-232.0,257,236,232,232,233
2025-02-26 14:42:54.931,2548.0,-4059.0,2493.0,-20.0,-274.0,-152.0,259,236,234,232,233
2025-02-26 14:42:54.935,2477.0,-4024.0,2806.0,-76.0,-243.0,-81.0,263,237,234,232,236
2025-02-26 14:42:54.939,2479.0,-3311.0,5023.0,-58.0,-28.0,-47.0,272,248,244,244,247
2025-02-26 14:42:54.944,2430.0,-3160.0,1903.0,-50.0,11.0,50.0,268,244,239,238,242
2025-02-26 14:42:54.951,2115.0,-3296.0,1615.0,-191.0,-89.0,131.0,268,241,240,238,242
2025-02-26 14:42:54.956,1770.0,-2829.0,1768.0,-178.0,-41.0,195.0,268,241,241,238,242
2025-02-26 14:42:54.962,1668.0,-1790.0,1807.0,-185.0,55.0,230.0,269,241,240,237,242
2025-02-26 14:42:54.968,1296.0,-1718.0,1064.0,-214.0,50.0,260.0,267,242,240,237,242
2025-02-26 14:42:54.973,875.0,-1758.0,790.0,-252.0,23.0,286.0,264,240,240,237,241
2025-02-26 14:42:54.980,736.0,-1570.0,821.0,-189.0,21.0,295.0,269,242,243,241,246
2025-02-26 14:42:54.984,534.0,-1300.0,905.0,-140.0,47.0,279.0,265,239,240,239,241
2025-02-26 14:42:54.992,538.0,-1240.0,683.0,-131.0,87.0,269.0,268,241,244,241,242
2025-02-26 14:42:54.996,613.0,-1207.0,505.0,-140.0,99.0,248.0,272,245,245,244,245
2025-02-26 14:42:55.001,418.0,-1271.0,259.0,-133.0,99.0,226.0,273,248,248,247,249
2025-02-26 14:42:55.008,197.0,-1429.0,332.0,-136.0,109.0,203.0,270,243,243,243,244
2025-02-26 14:42:55.013,151.0,-1485.0,489.0,-134.0,118.0,185.0,268,243,244,242,242
2025-02-26 14:42:55.017,227.0,-1398.0,623.0,-131.0,119.0,175.0,265,237,238,238,238
2025-02-26 14:42:55.025,235.0,-1212.0,754.0,-124.0,120.0,170.0,263,232,239,240,236
2025-02-26 14:42:55.029,222.0,-1069.0,724.0,-119.0,134.0,169.0,261,234,237,236,236
2025-02-26 14:42:55.033,133.0,-984.0,817.0,-110.0,180.0,166.0,271,240,243,243,241
2025-02-26 14:42:55.041,68.0,-757.0,431.0,-136.0,178.0,174.0,275,244,251,252,248
2025-02-26 14:42:55.045,66.0,-1077.0,97.0,-145.0,164.0,192.0,270,238,243,248,245
2025-02-26 14:42:55.048,-33.0,-973.0,326.0,-134.0,183.0,203.0,260,226,230,233,231
2025-02-26 14:42:55.057,60.0,-997.0,6.0,-133.0,175.0,221.0,254,221,226,230,227
2025-02-26 14:42:55.062,50.0,-935.0,156.0,-165.0,165.0,229.0,258,222,229,233,231
2025-02-26 14:42:55.066,14.0,-904.0,60.0,-195.0,142.0,242.0,263,226,231,236,235
2025-02-26 14:42:55.071,19.0,-801.0,75.0,-224.0,124.0,246.0,262,225,227,238,236
2025-02-26 14:42:55.078,17.0,-701.0,253.0,-232.0,132.0,242.0,259,222,226,235,231
2025-02-26 14:42:55.083,-27.0,-581.0,252.0,-260.0,135.0,237.0,268,219,227,230,230
2025-02-26 14:42:55.090,-24.0,-540.0,29.0,-273.0,128.0,237.0,254,217,223,231,228
2025-02-26 14:42:55.095,-117.0,-456.0,34.0,-255.0,106.0,234.0,256,216,222,227,227
2025-02-26 14:42:55.098,-259.0,-330.0,103.0,-245.0,91.0,229.0,265,228,235,242,241
2025-02-26 14:42:55.106,-289.0,-240.0,112.0,-251.0,78.0,222.0,263,223,232,238,236
2025-02-26 14:42:55.108,-288.0,-148.0,-35.0,-269.0,60.0,215.0,263,221,231,236,235
2025-02-26 14:42:55.115,-301.0,-30.0,79.0,-305.0,61.0,209.0,259,216,228,233,232
2025-02-26 14:42:55.123,-470.0,112.0,344.0,-267.0,86.0,204.0,259,213,227,231,230
2025-02-26 14:42:55.127,-632.0,93.0,-32.0,-222.0,103.0,203.0,256,207,223,228,228
2025-02-26 14:42:55.131,-588.0,138.0,-12.0,-210.0,98.0,195.0,262,212,230,237,232
2025-02-26 14:42:55.138,-568.0,90.0,-9.0,-180.0,100.0,186.0,260,211,229,234,232
2025-02-26 14:42:55.144,-698.0,70.0,144.0,-150.0,97.0,178.0,257,208,225,230,228
2025-02-26 14:42:55.148,-666.0,165.0,-40.0,-102.0,76.0,145.0,255,202,221,226,229
2025-02-26 14:42:55.149,-643.0,132.0,-53.0,-73.0,38.0,117.0,253,197,219,222,222
2025-02-26 14:42:55.160,-687.0,140.0,-298.0,-61.0,25.0,108.0,262,206,224,232,229
2025-02-26 14:42:55.164,-720.0,155.0,-357.0,-57.0,25.0,92.0,262,205,223,230,229
2025-02-26 14:42:55.169,-757.0,132.0,-324.0,-53.0,19.0,72.0,257,198,220,226,226
2025-02-26 14:42:55.177,-777.0,133.0,-267.0,-45.0,10.0,48.0,255,193,213,221,220
2025-02-26 14:42:55.179,-808.0,64.0,-258.0,-36.0,4.0,29.0,258,195,218,229,226
2025-02-26 14:42:55.185,-818.0,77.0,-221.0,-12.0,-7.0,21.0,261,195,218,227,226
2025-02-26 14:42:55.190,-840.0,43.0,-175.0,11.0,-16.0,8.0,261,192,217,227,224
2025-02-26 14:42:55.197,-825.0,151.0,-239.0,18.0,-27.0,-13.0,257,185,209,220,219
2025-02-26 14:42:55.203,-857.0,193.0,-145.0,39.0,-27.0,-19.0,258,184,209,220,218
2025-02-26 14:42:55.208,-935.0,225.0,-9.0,56.0,-19.0,-20.0,252,177,201,214,213
2025-02-26 14:42:55.210,-965.0,282.0,37.0,74.0,-18.0,-28.0,260,182,208,220,218
2025-02-26 14:42:55.215,-981.0,431.0,50.0,88.0,-22.0,-40.0,259,181,203,219,217
2025-02-26 14:42:55.222,-1007.0,629.0,14.0,95.0,-19.0,-58.0,256,175,199,213,211
2025-02-26 14:42:55.227,-1071.0,681.0,135.0,120.0,-9.0,-74.0,254,171,193,208,206
2025-02-26 14:42:55.234,-1167.0,701.0,36.0,135.0,9.0,-84.0,252,170,190,202,206
2025-02-26 14:42:55.238,-1175.0,962.0,-10.0,169.0,16.0,-106.0,260,176,198,206,212
2025-02-26 14:42:55.244,-1205.0,978.0,147.0,200.0,24.0,-130.0,264,177,199,205,213
2025-02-26 14:42:55.250,-1062.0,917.0,226.0,213.0,29.0,-153.0,257,172,194,202,208
2025-02-26 14:42:55.254,-1081.0,1008.0,84.0,226.0,29.0,-190.0,253,166,189,193,201
2025-02-26 14:42:55.258,-1092.0,924.0,65.0,271.0,31.0,-225.0,257,171,194,197,203
2025-02-26 14:42:55.266,-1123.0,1069.0,203.0,316.0,42.0,-244.0,257,167,189,193,194
2025-02-26 14:42:55.270,-895.0,1075.0,284.0,297.0,64.0,-288.0,259,170,194,195,196
2025-02-26 14:42:55.278,-662.0,1214.0,-287.0,251.0,41.0,-327.0,258,171,194,195,192
2025-02-26 14:42:55.283,-388.0,947.0,41.0,223.0,4.0,-361.0,263,173,195,195,192
2025-02-26 14:42:55.287,-495.0,936.0,-18.0,228.0,-7.0,-399.0,255,167,187,189,185
2025-02-26 14:42:55.291,-396.0,820.0,19.0,236.0,-4.0,-430.0,253,155,183,185,180
2025-02-26 14:42:55.299,-91.0,685.0,333.0,234.0,18.0,-450.0,255,163,183,184,180
2025-02-26 14:42:55.303,153.0,560.0,126.0,235.0,56.0,-474.0,262,171,195,195,195
2025-02-26 14:42:55.307,472.0,330.0,46.0,268.0,47.0,-489.0,262,173,196,194,193
2025-02-26 14:42:55.313,842.0,62.0,-334.0,295.0,-84.0,-480.0,256,165,190,188,190
2025-02-26 14:42:55.319,1088.0,-1172.0,-764.0,298.0,-159.0,-455.0,257,167,196,192,191
2025-02-26 14:42:55.324,1714.0,-1272.0,-378.0,260.0,-165.0,-468.0,256,165,192,189,186
2025-02-26 14:42:55.332,1918.0,-1681.0,320.0,286.0,-100.0,-471.0,254,164,190,188,184
2025-02-26 14:42:55.337,1457.0,-2893.0,998.0,376.0,-129.0,-465.0,254,165,187,188,184
2025-02-26 14:42:55.344,2112.0,-3304.0,1574.0,438.0,-220.0,-427.0,254,165,189,188,182
2025-02-26 14:42:55.349,2825.0,-4130.0,2104.0,454.0,-206.0,-329.0,256,167,191,190,183
2025-02-26 14:42:55.356,3298.0,-4843.0,2790.0,442.0,-99.0,-204.0,261,170,195,190,186
2025-02-26 14:42:55.360,3411.0,-5286.0,3218.0,431.0,-3.0,-81.0,267,179,203,198,195
2025-02-26 14:42:55.365,3315.0,-5028.0,3229.0,397.0,60.0,21.0,265,176,199,190,190
2025-02-26 14:42:55.372,2866.0,-3820.0,2913.0,288.0,133.0,99.0,263,174,199,184,188
2025-02-26 14:42:55.374,2123.0,-2465.0,2407.0,206.0,193.0,143.0,260,171,196,181,182
2025-02-26 14:42:55.382,1413.0,-1528.0,1637.0,17.0,188.0,156.0,263,174,200,186,185
2025-02-26 14:42:55.389,767.0,-1040.0,905.0,-137.0,120.0,151.0,257,168,195,180,177
2025-02-26 14:42:55.393,501.0,-832.0,400.0,-260.0,84.0,148.0,256,168,194,177,174
2025-02-26 14:42:55.398,187.0,-953.0,280.0,-341.0,23.0,147.0,253,166,193,177,174
2025-02-26 14:42:55.406,152.0,-1216.0,223.0,-364.0,-26.0,145.0,264,176,205,188,185
2025-02-26 14:42:55.409,153.0,-1478.0,178.0,-348.0,-57.0,138.0,263,175,204,192,183
2025-02-26 14:42:55.414,233.0,-1636.0,305.0,-341.0,-47.0,140.0,261,175,201,194,185
2025-02-26 14:42:55.422,217.0,-1884.0,307.0,-321.0,-41.0,143.0,264,177,196,198,187
2025-02-26 14:42:55.427,266.0,-1943.0,376.0,-275.0,-43.0,146.0,262,172,187,194,185
2025-02-26 14:42:55.431,287.0,-1940.0,456.0,-235.0,-38.0,149.0,257,168,181,190,179
2025-02-26 14:42:55.439,281.0,-1858.0,494.0,-206.0,-24.0,157.0,255,166,180,188,178
2025-02-26 14:42:55.443,263.0,-1785.0,534.0,-169.0,-29.0,163.0,257,169,181,192,182
2025-02-26 14:42:55.451,303.0,-1708.0,570.0,-147.0,-23.0,175.0,261,175,191,198,187
2025-02-26 14:42:55.453,272.0,-1541.0,603.0,-125.0,-11.0,184.0,262,175,195,196,188
2025-02-26 14:42:55.459,335.0,-1330.0,576.0,-107.0,-4.0,187.0,267,183,205,206,196
2025-02-26 14:42:55.467,243.0,-1204.0,620.0,-95.0,4.0,192.0,260,176,200,199,191
2025-02-26 14:42:55.469,197.0,-992.0,647.0,-92.0,19.0,200.0,256,167,191,191,184
2025-02-26 14:42:55.475,145.0,-885.0,627.0,-96.0,23.0,204.0,253,166,191,189,182
2025-02-26 14:42:55.480,139.0,-763.0,666.0,-115.0,32.0,207.0,266,177,201,198,193
2025-02-26 14:42:55.487,63.0,-566.0,632.0,-135.0,30.0,211.0,263,175,199,199,193
2025-02-26 14:42:55.492,-7.0,-475.0,556.0,-168.0,36.0,208.0,262,174,199,198,191
2025-02-26 14:42:55.496,-164.0,-346.0,358.0,-170.0,30.0,203.0,257,169,192,191,186
2025-02-26 14:42:55.503,-215.0,-273.0,292.0,-187.0,29.0,194.0,259,169,193,193,189
2025-02-26 14:42:55.509,-365.0,-211.0,223.0,-194.0,29.0,187.0,257,170,191,191,186
2025-02-26 14:42:55.513,-427.0,-165.0,194.0,-184.0,19.0,171.0,262,173,192,196,188
2025-02-26 14:42:55.519,-418.0,-144.0,191.0,-178.0,16.0,153.0,265,177,193,198,193
2025-02-26 14:42:55.525,-512.0,-159.0,196.0,-172.0,18.0,140.0,262,176,194,197,193
2025-02-26 14:42:55.528,-544.0,-167.0,186.0,-172.0,17.0,131.0,259,173,189,193,189
2025-02-26 14:42:55.537,-544.0,-79.0,164.0,-166.0,11.0,120.0,257,170,187,191,186
2025-02-26 14:42:55.541,-547.0,-100.0,144.0,-164.0,14.0,113.0,260,172,192,195,188
2025-02-26 14:42:55.545,-567.0,-116.0,129.0,-162.0,24.0,109.0,254,168,188,193,184
2025-02-26 14:42:55.553,-602.0,-117.0,93.0,-153.0,27.0,101.0,262,176,194,197,191
2025-02-26 14:42:55.554,-577.0,-132.0,99.0,-145.0,29.0,95.0,265,176,195,197,191
2025-02-26 14:42:55.562,-595.0,-133.0,54.0,-142.0,39.0,90.0,261,176,194,198,191
2025-02-26 14:42:55.570,-658.0,-126.0,16.0,-132.0,42.0,87.0,258,171,188,192,185
2025-02-26 14:42:55.574,-685.0,-83.0,-34.0,-117.0,45.0,81.0,257,168,182,191,184
2025-02-26 14:42:55.578,-712.0,-68.0,-95.0,-91.0,40.0,77.0,262,177,196,198,192
2025-02-26 14:42:55.585,-730.0,-34.0,-108.0,-74.0,29.0,68.0,264,179,195,200,194
2025-02-26 14:42:55.590,-756.0,24.0,-146.0,-65.0,30.0,59.0,261,177,192,195,189
2025-02-26 14:42:55.594,-789.0,61.0,-159.0,-46.0,28.0,48.0,255,169,186,190,185
2025-02-26 14:42:55.598,-782.0,92.0,-186.0,-28.0,28.0,43.0,257,172,191,195,188
2025-02-26 14:42:55.606,-835.0,166.0,-201.0,-10.0,22.0,30.0,264,177,196,199,194
2025-02-26 14:42:55.610,-830.0,233.0,-233.0,6.0,25.0,18.0,263,175,196,198,192
2025-02-26 14:42:55.615,-873.0,295.0,-246.0,14.0,21.0,2.0,257,170,189,191,183
2025-02-26 14:42:55.619,-806.0,407.0,-239.0,29.0,19.0,-5.0,261,173,195,195,189
2025-02-26 14:42:55.627,-900.0,474.0,-283.0,52.0,14.0,-21.0,264,177,198,197,192
2025-02-26 14:42:55.631,-919.0,526.0,-259.0,65.0,8.0,-36.0,263,175,198,197,192
2025-02-26 14:42:55.636,-957.0,595.0,-298.0,79.0,-3.0,-55.0,258,172,194,193,187
2025-02-26 14:42:55.640,-953.0,687.0,-293.0,94.0,-6.0,-75.0,258,170,194,197,188
2025-02-26 14:42:55.648,-983.0,731.0,-297.0,111.0,-9.0,-86.0,257,171,192,189,185
2025-02-26 14:42:55.652,-1044.0,812.0,-318.0,130.0,-14.0,-107.0,261,176,198,197,192
2025-02-26 14:42:55.660,-1076.0,926.0,-329.0,149.0,-19.0,-132.0,263,177,199,198,192
2025-02-26 14:42:55.663,-1101.0,1060.0,-353.0,162.0,-22.0,-159.0,263,176,198,200,190
2025-02-26 14:42:55.669,-1020.0,1148.0,-399.0,183.0,-36.0,-193.0,261,176,198,198,194
2025-02-26 14:42:55.676,-941.0,1177.0,-423.0,192.0,-45.0,-230.0,259,174,193,195,190
2025-02-26 14:42:55.680,-817.0,1133.0,-457.0,209.0,-53.0,-265.0,267,181,200,202,195
2025-02-26 14:42:55.688,-654.0,1021.0,-388.0,235.0,-70.0,-301.0,259,172,191,194,188
2025-02-26 14:42:55.693,-553.0,884.0,-352.0,263.0,-79.0,-336.0,257,169,190,192,186
2025-02-26 14:42:55.697,-301.0,712.0,-259.0,290.0,-95.0,-366.0,254,169,186,190,185
2025-02-26 14:42:55.705,-20.0,645.0,-113.0,313.0,-112.0,-379.0,256,170,191,193,187
2025-02-26 14:42:55.708,302.0,450.0,110.0,337.0,-134.0,-403.0,263,177,199,201,194
2025-02-26 14:42:55.713,694.0,130.0,250.0,356.0,-150.0,-420.0,264,176,196,200,194
2025-02-26 14:42:55.720,1176.0,-271.0,513.0,380.0,-162.0,-429.0,267,183,202,205,203
2025-02-26 14:42:55.725,1553.0,-772.0,744.0,394.0,-168.0,-425.0,261,176,199,201,196
2025-02-26 14:42:55.733,1829.0,-1336.0,966.0,408.0,-170.0,-411.0,262,175,198,199,195
2025-02-26 14:42:55.737,2130.0,-2061.0,1196.0,422.0,-172.0,-389.0,258,173,195,197,195
2025-02-26 14:42:55.741,2413.0,-2979.0,1503.0,426.0,-167.0,-346.0,260,173,197,196,200
2025-02-26 14:42:55.750,2646.0,-4000.0,1995.0,416.0,-144.0,-268.0,259,172,194,194,193
2025-02-26 14:42:55.754,2840.0,-4870.0,2470.0,391.0,-128.0,-164.0,258,171,192,191,193
2025-02-26 14:42:55.761,2877.0,-5345.0,2977.0,333.0,-76.0,-40.0,266,178,198,197,201
2025-02-26 14:42:55.767,2915.0,-5134.0,3166.0,271.0,-15.0,73.0,257,170,192,189,194
2025-02-26 14:42:55.768,2750.0,-4253.0,2942.0,190.0,48.0,117.0,257,167,190,184,190
2025-02-26 14:42:55.778,2430.0,-3651.0,2625.0,84.0,103.0,176.0,263,175,196,191,195
2025-02-26 14:42:55.780,1896.0,-2412.0,2264.0,-48.0,131.0,202.0,265,179,206,199,202
2025-02-26 14:42:55.791,1410.0,-1399.0,2052.0,-173.0,118.0,199.0,265,179,205,197,201
2025-02-26 14:42:55.792,977.0,-889.0,1496.0,-272.0,82.0,187.0,264,182,205,198,200
2025-02-26 14:42:55.799,671.0,-898.0,1094.0,-309.0,37.0,179.0,264,178,206,197,200
2025-02-26 14:42:55.803,466.0,-996.0,823.0,-370.0,-3.0,178.0,263,179,206,197,199
2025-02-26 14:42:55.811,452.0,-1250.0,571.0,-363.0,-22.0,179.0,256,170,200,189,192
2025-02-26 14:42:55.816,383.0,-1316.0,346.0,-390.0,-21.0,180.0,257,171,197,190,192
2025-02-26 14:42:55.823,284.0,-1409.0,219.0,-384.0,-6.0,180.0,258,174,195,194,195
2025-02-26 14:42:55.827,190.0,-1582.0,189.0,-361.0,-3.0,177.0,265,180,197,203,201
2025-02-26 14:42:55.831,72.0,-1665.0,168.0,-340.0,-15.0,174.0,263,179,193,200,201
2025-02-26 14:42:55.840,102.0,-1793.0,154.0,-322.0,-26.0,175.0,266,179,193,203,202
2025-02-26 14:42:55.844,149.0,-1760.0,278.0,-312.0,-22.0,178.0,262,177,192,201,205
2025-02-26 14:42:55.848,185.0,-1651.0,369.0,-276.0,-24.0,189.0,258,174,192,197,197
2025-02-26 14:42:55.852,216.0,-1521.0,334.0,-235.0,-28.0,199.0,254,170,190,196,195
2025-02-26 14:42:55.861,240.0,-1500.0,391.0,-194.0,-36.0,212.0,264,179,202,202,203
2025-02-26 14:42:55.864,216.0,-1382.0,434.0,-177.0,-26.0,210.0,255,169,194,198,196
2025-02-26 14:42:55.870,295.0,-1238.0,526.0,-154.0,1.0,219.0,263,179,203,206,206
2025-02-26 14:42:55.877,179.0,-1043.0,503.0,-163.0,48.0,231.0,262,181,204,205,206
2025-02-26 14:42:55.881,174.0,-956.0,427.0,-168.0,89.0,241.0,265,181,205,207,209
2025-02-26 14:42:55.889,137.0,-862.0,445.0,-173.0,110.0,252.0,260,174,199,201,204
2025-02-26 14:42:55.893,91.0,-711.0,564.0,-194.0,115.0,255.0,252,171,195,196,201
2025-02-26 14:42:55.897,81.0,-610.0,565.0,-192.0,108.0,255.0,256,175,195,200,200
2025-02-26 14:42:55.905,12.0,-550.0,533.0,-188.0,104.0,255.0,264,186,204,209,212
2025-02-26 14:42:55.910,-39.0,-390.0,464.0,-212.0,102.0,255.0,262,183,203,207,208
2025-02-26 14:42:55.913,-193.0,-368.0,261.0,-224.0,110.0,257.0,262,182,203,205,208
2025-02-26 14:42:55.922,-292.0,-139.0,405.0,-208.0,128.0,253.0,267,190,205,210,212
2025-02-26 14:42:55.924,-378.0,-98.0,403.0,-180.0,122.0,243.0,257,181,195,200,203
2025-02-26 14:42:55.930,-412.0,-27.0,325.0,-182.0,115.0,229.0,253,176,194,198,201
2025-02-26 14:42:55.938,-471.0,52.0,255.0,-176.0,94.0,223.0,254,181,199,202,206
2025-02-26 14:42:55.943,-508.0,71.0,150.0,-193.0,86.0,210.0,264,191,213,212,213
2025-02-26 14:42:55.946,-516.0,68.0,166.0,-199.0,82.0,199.0,262,191,210,212,211
2025-02-26 14:42:55.954,-585.0,92.0,65.0,-197.0,84.0,183.0,261,188,208,209,209
2025-02-26 14:42:55.959,-639.0,63.0,-147.0,-196.0,76.0,168.0,254,185,203,202,203
2025-02-26 14:42:55.963,-702.0,84.0,39.0,-163.0,77.0,162.0,255,185,206,202,204
2025-02-26 14:42:55.971,-762.0,104.0,-144.0,-104.0,75.0,153.0,263,194,212,211,212
2025-02-26 14:42:55.975,-748.0,88.0,-138.0,-76.0,81.0,146.0,260,194,210,211,210
2025-02-26 14:42:55.980,-733.0,142.0,-218.0,-59.0,83.0,139.0,260,196,213,213,214
2025-02-26 14:42:55.984,-752.0,143.0,-202.0,-19.0,80.0,131.0,255,189,206,206,205
2025-02-26 14:42:55.991,-738.0,133.0,-206.0,7.0,80.0,119.0,252,189,205,204,204
2025-02-26 14:42:55.996,-710.0,145.0,-205.0,28.0,85.0,115.0,259,198,211,214,213
2025-02-26 14:42:55.998,-618.0,164.0,-212.0,48.0,88.0,102.0,265,204,219,219,219
2025-02-26 14:42:56.007,-598.0,190.0,-275.0,60.0,91.0,94.0,258,199,212,211,213
2025-02-26 14:42:56.011,-623.0,282.0,-318.0,85.0,88.0,79.0,255,195,209,209,208
2025-02-26 14:42:56.016,-618.0,294.0,-350.0,109.0,82.0,72.0,250,196,206,206,207
2025-02-26 14:42:56.020,-708.0,314.0,-442.0,122.0,73.0,46.0,265,209,218,220,220
2025-02-26 14:42:56.028,-743.0,289.0,-521.0,139.0,67.0,35.0,262,211,213,217,219
2025-02-26 14:42:56.032,-826.0,503.0,-645.0,143.0,43.0,12.0,258,210,212,214,215
2025-02-26 14:42:56.037,-871.0,686.0,-748.0,140.0,29.0,-16.0,252,207,212,211,211
2025-02-26 14:42:56.044,-941.0,813.0,-777.0,141.0,-3.0,-30.0,256,213,215,209,213
2025-02-26 14:42:56.047,-1057.0,1038.0,-856.0,142.0,-44.0,-60.0,262,221,226,219,220
2025-02-26 14:42:56.054,-1166.0,1331.0,-875.0,141.0,-87.0,-98.0,260,224,227,219,220
2025-02-26 14:42:56.060,-1190.0,1649.0,-750.0,142.0,-120.0,-147.0,264,231,234,226,227
2025-02-26 14:42:56.066,-1045.0,1805.0,-627.0,137.0,-134.0,-201.0,259,229,232,221,220
2025-02-26 14:42:56.072,-951.0,1742.0,-618.0,140.0,-130.0,-251.0,257,229,232,221,221
2025-02-26 14:42:56.078,-874.0,1428.0,-503.0,175.0,-110.0,-290.0,258,236,232,222,221
2025-02-26 14:42:56.082,-775.0,1112.0,-365.0,204.0,-87.0,-331.0,257,231,236,222,222
2025-02-26 14:42:56.089,-619.0,820.0,-343.0,285.0,-68.0,-363.0,259,234,237,223,225
2025-02-26 14:42:56.094,-456.0,735.0,-267.0,364.0,-61.0,-392.0,249,229,231,216,219
2025-02-26 14:42:56.102,-396.0,449.0,-47.0,433.0,-44.0,-418.0,255,237,236,220,225
2025-02-26 14:42:56.106,-371.0,341.0,38.0,490.0,-45.0,-430.0,248,235,232,217,222
2025-02-26 14:42:56.110,-298.0,173.0,107.0,542.0,-51.0,-446.0,251,241,239,225,229
2025-02-26 14:42:56.118,-136.0,179.0,69.0,567.0,-69.0,-464.0,251,243,240,227,230
2025-02-26 14:42:56.121,197.0,143.0,49.0,574.0,-100.0,-479.0,250,244,244,228,232
2025-02-26 14:42:56.126,665.0,310.0,-19.0,578.0,-151.0,-496.0,245,240,240,223,228
2025-02-26 14:42:56.133,996.0,414.0,492.0,579.0,-171.0,-520.0,242,239,235,222,224
2025-02-26 14:42:56.139,1285.0,-55.0,767.0,539.0,-219.0,-545.0,241,240,238,221,225
2025-02-26 14:42:56.143,1278.0,-207.0,973.0,494.0,-284.0,-551.0,242,246,237,221,225
2025-02-26 14:42:56.151,1820.0,-580.0,1640.0,433.0,-319.0,-561.0,248,250,244,226,234
2025-02-26 14:42:56.156,2443.0,-1288.0,2251.0,355.0,-334.0,-546.0,247,251,242,227,233
2025-02-26 14:42:56.163,3139.0,-1951.0,2850.0,298.0,-300.0,-505.0,252,256,247,232,240
2025-02-26 14:42:56.167,3570.0,-2949.0,3084.0,235.0,-244.0,-428.0,248,253,246,230,237
2025-02-26 14:42:56.172,3742.0,-3426.0,3795.0,167.0,-156.0,-314.0,246,251,241,230,236
2025-02-26 14:42:56.179,3611.0,-3739.0,3642.0,86.0,-62.0,-184.0,244,255,244,229,238
2025-02-26 14:42:56.183,3281.0,-3884.0,3310.0,-9.0,8.0,-57.0,242,250,238,226,233
2025-02-26 14:42:56.188,2739.0,-3718.0,2847.0,-59.0,53.0,67.0,240,248,238,223,231
2025-02-26 14:42:56.196,2124.0,-3426.0,2449.0,-142.0,69.0,175.0,236,244,233,220,228
2025-02-26 14:42:56.199,1889.0,-2896.0,1877.0,-209.0,75.0,254.0,238,250,241,225,233
2025-02-26 14:42:56.208,1499.0,-2333.0,1461.0,-253.0,60.0,294.0,232,248,237,218,226
2025-02-26 14:42:56.211,1125.0,-1876.0,1222.0,-290.0,38.0,303.0,230,243,234,218,224
2025-02-26 14:42:56.216,855.0,-1698.0,1024.0,-315.0,17.0,307.0,234,246,237,224,226
2025-02-26 14:42:56.223,768.0,-1489.0,882.0,-324.0,2.0,299.0,232,253,242,232,233
2025-02-26 14:42:56.229,707.0,-1332.0,821.0,-318.0,-10.0,282.0,236,253,243,229,232
2025-02-26 14:42:56.233,672.0,-1274.0,803.0,-296.0,-17.0,260.0,235,251,241,228,230
2025-02-26 14:42:56.241,628.0,-1234.0,756.0,-283.0,-15.0,236.0,237,253,244,232,233
2025-02-26 14:42:56.245,625.0,-1212.0,723.0,-257.0,-4.0,212.0,229,247,237,224,225
2025-02-26 14:42:56.250,662.0,-1123.0,633.0,-238.0,0.0,192.0,223,243,235,222,222
2025-02-26 14:42:56.258,631.0,-1084.0,553.0,-215.0,15.0,185.0,227,244,234,221,222
2025-02-26 14:42:56.262,543.0,-1079.0,580.0,-198.0,30.0,178.0,236,255,246,231,234
2025-02-26 14:42:56.266,479.0,-1144.0,572.0,-177.0,42.0,179.0,235,253,245,231,233
2025-02-26 14:42:56.274,423.0,-1167.0,540.0,-150.0,50.0,188.0,233,252,244,230,231
2025-02-26 14:42:56.278,374.0,-1172.0,473.0,-140.0,55.0,200.0,233,250,242,228,230
2025-02-26 14:42:56.282,362.0,-1138.0,406.0,-122.0,57.0,213.0,228,248,238,225,227
2025-02-26 14:42:56.289,315.0,-1071.0,399.0,-103.0,58.0,228.0,228,246,238,224,227
2025-02-26 14:42:56.295,260.0,-1028.0,396.0,-89.0,66.0,235.0,225,243,235,222,225
2025-02-26 14:42:56.299,238.0,-949.0,349.0,-74.0,70.0,248.0,242,258,249,239,239
2025-02-26 14:42:56.307,224.0,-814.0,339.0,-76.0,84.0,257.0,234,253,246,233,235
2025-02-26 14:42:56.311,202.0,-677.0,296.0,-71.0,88.0,264.0,232,249,243,230,231
2025-02-26 14:42:56.315,162.0,-539.0,319.0,-72.0,91.0,267.0,227,244,239,222,226
2025-02-26 14:42:56.319,74.0,-477.0,300.0,-80.0,92.0,267.0,231,247,239,226,228
2025-02-26 14:42:56.326,-21.0,-342.0,316.0,-90.0,88.0,263.0,238,255,246,231,234
2025-02-26 14:42:56.331,-141.0,-250.0,298.0,-104.0,88.0,257.0,237,252,247,231,233
2025-02-26 14:42:56.336,-231.0,-165.0,268.0,-113.0,83.0,246.0,234,252,244,230,231
2025-02-26 14:42:56.343,-319.0,-65.0,302.0,-130.0,82.0,232.0,231,245,240,226,231
2025-02-26 14:42:56.347,-361.0,-2.0,217.0,-147.0,80.0,217.0,230,247,240,224,227
2025-02-26 14:42:56.350,-469.0,44.0,168.0,-166.0,79.0,209.0,234,251,246,236,232
2025-02-26 14:42:56.359,-522.0,91.0,165.0,-176.0,85.0,191.0,239,254,245,232,234
2025-02-26 14:42:56.364,-587.0,161.0,70.0,-181.0,91.0,173.0,235,253,245,228,230
2025-02-26 14:42:56.368,-637.0,191.0,-12.0,-188.0,94.0,157.0,228,250,241,225,225
2025-02-26 14:42:56.376,-680.0,171.0,-108.0,-190.0,95.0,142.0,226,245,240,223,225
2025-02-26 14:42:56.381,-744.0,134.0,-197.0,-189.0,94.0,135.0,235,250,244,230,231
2025-02-26 14:42:56.385,-760.0,78.0,-266.0,-186.0,89.0,121.0,235,253,247,233,234
2025-02-26 14:42:56.393,-759.0,61.0,-267.0,-176.0,81.0,106.0,232,252,247,230,233
2025-02-26 14:42:56.397,-754.0,7.0,-322.0,-168.0,72.0,92.0,227,248,245,230,230
2025-02-26 14:42:56.401,-760.0,-58.0,-360.0,-146.0,68.0,77.0,229,247,244,228,230
2025-02-26 14:42:56.409,-818.0,-74.0,-375.0,-126.0,57.0,65.0,225,245,242,227,228
2025-02-26 14:42:56.413,-864.0,-64.0,-409.0,-101.0,47.0,60.0,232,250,246,234,234
2025-02-26 14:42:56.417,-850.0,-1.0,-342.0,-80.0,39.0,52.0,231,249,247,233,234
2025-02-26 14:42:56.422,-836.0,37.0,-392.0,-65.0,32.0,45.0,232,248,243,233,232
2025-02-26 14:42:56.430,-827.0,80.0,-353.0,-42.0,31.0,37.0,226,242,242,229,228
2025-02-26 14:42:56.434,-816.0,115.0,-366.0,-15.0,29.0,34.0,224,240,241,225,226
2025-02-26 14:42:56.438,-821.0,193.0,-417.0,8.0,23.0,27.0,232,247,247,233,234
2025-02-26 14:42:56.445,-829.0,285.0,-411.0,32.0,16.0,19.0,238,251,249,234,238
2025-02-26 14:42:56.450,-837.0,348.0,-451.0,44.0,9.0,13.0,226,244,243,227,228
2025-02-26 14:42:56.455,-843.0,401.0,-455.0,67.0,5.0,5.0,225,241,241,227,228
2025-02-26 14:42:56.459,-872.0,440.0,-456.0,90.0,-3.0,0.0,234,249,248,236,237
2025-02-26 14:42:56.466,-904.0,471.0,-474.0,103.0,-9.0,-12.0,231,247,247,233,234
2025-02-26 14:42:56.470,-941.0,582.0,-412.0,110.0,-17.0,-26.0,228,240,240,228,230
2025-02-26 14:42:56.475,-961.0,706.0,-481.0,131.0,-24.0,-46.0,226,241,241,226,228
2025-02-26 14:42:56.482,-994.0,833.0,-449.0,150.0,-38.0,-59.0,232,244,244,233,234
2025-02-26 14:42:56.487,-966.0,867.0,-449.0,170.0,-48.0,-89.0,234,248,247,234,236
2025-02-26 14:42:56.491,-928.0,910.0,-407.0,190.0,-56.0,-125.0,232,246,247,233,236
2025-02-26 14:42:56.499,-866.0,894.0,-387.0,218.0,-59.0,-165.0,233,247,248,233,235
2025-02-26 14:42:56.501,-805.0,871.0,-331.0,234.0,-60.0,-206.0,232,248,247,233,237
2025-02-26 14:42:56.507,-709.0,770.0,-256.0,258.0,-57.0,-245.0,232,246,247,234,235
2025-02-26 14:42:56.514,-587.0,707.0,-232.0,288.0,-61.0,-287.0,227,239,240,228,230
2025-02-26 14:42:56.520,-540.0,642.0,-153.0,316.0,-65.0,-327.0,232,246,246,234,236
2025-02-26 14:42:56.525,-384.0,598.0,-96.0,336.0,-71.0,-362.0,229,242,243,232,233
2025-02-26 14:42:56.532,-197.0,580.0,8.0,352.0,-81.0,-379.0,231,244,246,234,235
2025-02-26 14:42:56.537,-7.0,517.0,-16.0,353.0,-101.0,-407.0,233,248,248,236,239
2025-02-26 14:42:56.540,145.0,404.0,39.0,335.0,-124.0,-431.0,236,250,251,240,241
2025-02-26 14:42:56.549,434.0,401.0,197.0,330.0,-149.0,-454.0,231,246,248,236,238
2025-02-26 14:42:56.549,600.0,159.0,265.0,317.0,-164.0,-466.0,226,241,242,231,231
2025-02-26 14:42:56.554,850.0,-175.0,332.0,285.0,-193.0,-480.0,226,240,242,230,231
2025-02-26 14:42:56.564,1246.0,-472.0,764.0,246.0,-210.0,-485.0,229,243,244,232,231
2025-02-26 14:42:56.569,1597.0,-1084.0,1003.0,229.0,-211.0,-482.0,235,252,252,240,241
2025-02-26 14:42:56.572,1881.0,-1688.0,1405.0,203.0,-208.0,-457.0,233,249,250,240,240
2025-02-26 14:42:56.572,2232.0,-2449.0,1959.0,183.0,-197.0,-424.0,241,256,254,247,247
2025-02-26 14:42:56.572,2650.0,-3437.0,2206.0,163.0,-165.0,-372.0,237,251,251,244,243
2025-02-26 14:42:56.592,2867.0,-4303.0,2273.0,164.0,-125.0,-278.0,235,252,251,242,242
2025-02-26 14:42:56.597,3003.0,-4809.0,2474.0,179.0,-78.0,-149.0,236,252,250,242,242
2025-02-26 14:42:56.606,2987.0,-4784.0,2395.0,173.0,-32.0,-17.0,239,249,251,241,242
2025-02-26 14:42:56.610,2943.0,-4435.0,2566.0,163.0,14.0,98.0,237,252,253,238,242
2025-02-26 14:42:56.614,2487.0,-3710.0,2422.0,133.0,46.0,193.0,234,249,248,234,238
2025-02-26 14:42:56.622,1930.0,-2863.0,2216.0,55.0,67.0,258.0,236,250,249,238,241
2025-02-26 14:42:56.626,1708.0,-2089.0,1879.0,-36.0,75.0,291.0,231,243,244,230,234
2025-02-26 14:42:56.627,1254.0,-1604.0,1619.0,-111.0,76.0,302.0,230,243,244,229,233
2025-02-26 14:42:56.639,811.0,-1470.0,1357.0,-170.0,63.0,302.0,226,241,239,227,230
2025-02-26 14:42:56.639,523.0,-1263.0,1210.0,-211.0,51.0,292.0,236,255,250,239,242
2025-02-26 14:42:56.650,354.0,-1087.0,1126.0,-214.0,36.0,275.0,236,250,249,239,240
2025-02-26 14:42:56.652,273.0,-1033.0,974.0,-211.0,21.0,255.0,234,242,250,238,239
2025-02-26 14:42:56.659,222.0,-1105.0,757.0,-207.0,11.0,235.0,235,250,253,242,242
2025-02-26 14:42:56.664,148.0,-1196.0,568.0,-204.0,7.0,214.0,229,243,246,237,234
2025-02-26 14:42:56.672,121.0,-1248.0,455.0,-204.0,10.0,196.0,225,238,242,233,231
2025-02-26 14:42:56.676,102.0,-1272.0,464.0,-204.0,17.0,189.0,226,237,243,233,231
2025-02-26 14:42:56.683,103.0,-1268.0,603.0,-192.0,22.0,178.0,237,250,253,246,243
2025-02-26 14:42:56.688,106.0,-1266.0,527.0,-191.0,12.0,173.0,236,247,251,243,241
2025-02-26 14:42:56.688,83.0,-1230.0,609.0,-188.0,7.0,175.0,232,248,250,242,242
2025-02-26 14:42:56.696,91.0,-1158.0,619.0,-184.0,3.0,185.0,233,245,249,241,239
2025-02-26 14:42:56.700,83.0,-1116.0,681.0,-170.0,7.0,199.0,230,243,246,238,235
2025-02-26 14:42:56.708,108.0,-990.0,607.0,-157.0,16.0,205.0,227,241,244,235,234
2025-02-26 14:42:56.712,119.0,-934.0,537.0,-158.0,28.0,217.0,236,250,253,250,244
2025-02-26 14:42:56.720,162.0,-818.0,562.0,-137.0,34.0,229.0,238,251,255,246,246
2025-02-26 14:42:56.724,121.0,-781.0,615.0,-126.0,33.0,238.0,241,256,260,250,252
2025-02-26 14:42:56.729,59.0,-658.0,538.0,-121.0,48.0,241.0,239,249,254,244,246
2025-02-26 14:42:56.737,36.0,-506.0,517.0,-129.0,59.0,237.0,238,253,256,247,248
2025-02-26 14:42:56.741,24.0,-510.0,395.0,-135.0,69.0,236.0,252,264,266,256,259
2025-02-26 14:42:56.742,-22.0,-384.0,433.0,-136.0,89.0,231.0,244,259,260,254,255
2025-02-26 14:42:56.753,-118.0,-331.0,398.0,-132.0,101.0,226.0,242,256,258,249,253
2025-02-26 14:42:56.757,-201.0,-241.0,326.0,-136.0,113.0,219.0,242,255,259,250,253
2025-02-26 14:42:56.760,-233.0,-146.0,305.0,-152.0,119.0,211.0,238,249,253,243,247
2025-02-26 14:42:56.769,-310.0,-49.0,273.0,-157.0,124.0,200.0,235,247,250,241,247
2025-02-26 14:42:56.773,-317.0,-42.0,105.0,-165.0,120.0,197.0,233,246,250,238,242
2025-02-26 14:42:56.778,-391.0,53.0,141.0,-174.0,117.0,180.0,242,253,256,245,251
2025-02-26 14:42:56.786,-499.0,129.0,164.0,-163.0,121.0,165.0,242,253,255,244,250
2025-02-26 14:42:56.790,-512.0,75.0,66.0,-159.0,129.0,149.0,243,253,254,243,251
2025-02-26 14:42:56.793,-619.0,92.0,-73.0,-162.0,127.0,134.0,239,246,249,237,246
2025-02-26 14:42:56.802,-649.0,12.0,-234.0,-160.0,123.0,121.0,244,253,252,241,248
2025-02-26 14:42:56.806,-747.0,-82.0,-341.0,-151.0,115.0,115.0,238,244,246,234,241
2025-02-26 14:42:56.811,-790.0,-91.0,-402.0,-143.0,105.0,99.0,243,246,247,238,244
2025-02-26 14:42:56.818,-818.0,-107.0,-394.0,-128.0,94.0,82.0,248,248,251,241,247
2025-02-26 14:42:56.822,-798.0,-147.0,-403.0,-104.0,89.0,70.0,253,250,251,243,250
2025-02-26 14:42:56.827,-728.0,-159.0,-427.0,-91.0,86.0,58.0,252,248,249,243,249
2025-02-26 14:42:56.835,-687.0,-167.0,-494.0,-65.0,79.0,48.0,247,240,243,236,240
2025-02-26 14:42:56.839,-659.0,-218.0,-470.0,-45.0,75.0,36.0,248,240,242,236,241
2025-02-26 14:42:56.842,-613.0,-226.0,-463.0,-35.0,65.0,31.0,255,243,245,238,241
2025-02-26 14:42:56.851,-584.0,-274.0,-405.0,-22.0,56.0,25.0,261,247,248,244,245
2025-02-26 14:42:56.856,-526.0,-207.0,-386.0,-12.0,51.0,19.0,263,245,252,242,246
2025-02-26 14:42:56.859,-502.0,-175.0,-428.0,-3.0,42.0,15.0,267,248,254,245,249
2025-02-26 14:42:56.866,-517.0,-62.0,-261.0,11.0,40.0,11.0,259,237,245,236,241
2025-02-26 14:42:56.871,-518.0,-93.0,-302.0,26.0,33.0,7.0,255,229,242,235,238
2025-02-26 14:42:56.876,-580.0,-25.0,-314.0,36.0,19.0,0.0,265,239,250,243,245
2025-02-26 14:42:56.881,-787.0,-50.0,-321.0,39.0,4.0,-7.0,267,235,249,244,247
2025-02-26 14:42:56.888,-884.0,-28.0,-382.0,46.0,-6.0,-10.0,261,225,240,239,241
2025-02-26 14:42:56.893,-946.0,31.0,-288.0,52.0,-9.0,-10.0,260,219,237,237,240
2025-02-26 14:42:56.897,-942.0,105.0,-372.0,64.0,-22.0,-15.0,270,222,242,243,246
2025-02-26 14:42:56.901,-952.0,326.0,-335.0,85.0,-42.0,-15.0,268,220,240,244,249
2025-02-26 14:42:56.909,-1038.0,421.0,-200.0,96.0,-46.0,-18.0,268,216,235,240,245
2025-02-26 14:42:56.913,-1132.0,481.0,-24.0,98.0,-46.0,-27.0,261,208,225,237,242
2025-02-26 14:42:56.917,-1146.0,640.0,-60.0,102.0,-54.0,-48.0,262,204,223,238,237
2025-02-26 14:42:56.926,-1110.0,670.0,-132.0,110.0,-79.0,-66.0,264,202,219,237,237
2025-02-26 14:42:56.930,-1008.0,705.0,-77.0,104.0,-103.0,-108.0,272,209,227,244,244
2025-02-26 14:42:56.936,-787.0,823.0,-304.0,117.0,-138.0,-147.0,270,205,225,245,243
2025-02-26 14:42:56.942,-689.0,864.0,-413.0,142.0,-171.0,-191.0,273,209,228,248,245
2025-02-26 14:42:56.946,-631.0,887.0,-328.0,180.0,-172.0,-239.0,272,204,225,246,241
2025-02-26 14:42:56.954,-430.0,772.0,-228.0,187.0,-151.0,-282.0,270,200,222,244,236
2025-02-26 14:42:56.958,-373.0,805.0,-358.0,192.0,-131.0,-320.0,268,197,223,243,231
2025-02-26 14:42:56.966,-263.0,707.0,-222.0,208.0,-118.0,-350.0,266,196,215,239,228
2025-02-26 14:42:56.970,-171.0,472.0,49.0,229.0,-115.0,-371.0,265,190,218,233,221
2025-02-26 14:42:56.975,5.0,336.0,91.0,248.0,-119.0,-390.0,264,189,217,230,216
2025-02-26 14:42:56.979,162.0,224.0,98.0,257.0,-134.0,-400.0,275,200,233,241,228
2025-02-26 14:42:56.985,261.0,52.0,143.0,261.0,-144.0,-416.0,272,196,223,233,222
2025-02-26 14:42:56.991,520.0,-34.0,269.0,256.0,-133.0,-423.0,272,197,221,230,218
2025-02-26 14:42:56.996,841.0,-273.0,345.0,252.0,-129.0,-427.0,273,192,219,226,216
2025-02-26 14:42:57.003,1017.0,-615.0,517.0,239.0,-128.0,-436.0,269,192,216,222,214
2025-02-26 14:42:57.007,1041.0,-1067.0,730.0,243.0,-132.0,-440.0,267,190,214,216,209
2025-02-26 14:42:57.015,1186.0,-1634.0,929.0,263.0,-138.0,-432.0,263,190,211,213,207
2025-02-26 14:42:57.020,1454.0,-2275.0,1212.0,284.0,-139.0,-417.0,269,188,214,216,210
2025-02-26 14:42:57.024,1846.0,-3043.0,1530.0,312.0,-126.0,-397.0,270,190,215,214,211
2025-02-26 14:42:57.032,2127.0,-3421.0,1795.0,355.0,-108.0,-329.0,270,188,213,210,208
2025-02-26 14:42:57.033,2212.0,-4262.0,2155.0,372.0,-92.0,-229.0,270,188,211,208,208
2025-02-26 14:42:57.044,2312.0,-4823.0,2343.0,382.0,-52.0,-115.0,278,195,216,210,213
2025-02-26 14:42:57.048,2097.0,-4914.0,2457.0,366.0,31.0,-5.0,279,197,218,213,217
2025-02-26 14:42:57.053,2085.0,-4230.0,2472.0,332.0,118.0,86.0,280,201,219,212,215
2025-02-26 14:42:57.060,2195.0,-3224.0,2358.0,212.0,162.0,141.0,278,196,220,212,215
2025-02-26 14:42:57.063,1938.0,-1959.0,1950.0,142.0,191.0,160.0,279,196,222,211,213
2025-02-26 14:42:57.072,1405.0,-809.0,1634.0,4.0,206.0,147.0,277,194,219,207,208
2025-02-26 14:42:57.075,755.0,-437.0,1286.0,-154.0,204.0,131.0,272,190,215,205,205
2025-02-26 14:42:57.081,480.0,-706.0,903.0,-281.0,161.0,122.0,276,193,218,207,206
2025-02-26 14:42:57.089,227.0,-939.0,281.0,-341.0,71.0,117.0,267,185,210,201,201
2025-02-26 14:42:57.093,166.0,-1173.0,26.0,-377.0,3.0,118.0,276,193,216,208,208
2025-02-26 14:42:57.096,81.0,-1453.0,17.0,-394.0,1.0,135.0,275,192,216,210,208
2025-02-26 14:42:57.102,14.0,-1808.0,130.0,-392.0,5.0,138.0,274,199,210,212,208
2025-02-26 14:42:57.108,63.0,-2009.0,270.0,-359.0,-5.0,135.0,270,190,205,205,203
2025-02-26 14:42:57.114,154.0,-2069.0,393.0,-306.0,-21.0,135.0,270,185,198,204,201
2025-02-26 14:42:57.118,241.0,-2078.0,540.0,-262.0,-19.0,140.0,275,194,207,212,210
2025-02-26 14:42:57.126,311.0,-2083.0,656.0,-218.0,-21.0,152.0,275,196,210,217,212
2025-02-26 14:42:57.130,310.0,-1974.0,673.0,-183.0,-25.0,166.0,275,195,210,215,212
2025-02-26 14:42:57.138,380.0,-1788.0,730.0,-161.0,-16.0,178.0,278,196,213,217,212
2025-02-26 14:42:57.142,350.0,-1585.0,736.0,-149.0,-10.0,186.0,275,196,216,216,214
2025-02-26 14:42:57.146,354.0,-1402.0,702.0,-126.0,0.0,192.0,272,191,212,213,208
2025-02-26 14:42:57.154,317.0,-1202.0,693.0,-114.0,8.0,196.0,268,189,209,208,206
2025-02-26 14:42:57.158,231.0,-1131.0,606.0,-111.0,24.0,198.0,268,187,208,208,205
2025-02-26 14:42:57.162,157.0,-932.0,580.0,-109.0,31.0,203.0,277,198,219,219,218
2025-02-26 14:42:57.168,125.0,-775.0,557.0,-107.0,37.0,203.0,276,198,218,218,215
2025-02-26 14:42:57.172,34.0,-620.0,445.0,-109.0,47.0,200.0,273,188,213,214,212
2025-02-26 14:42:57.180,-40.0,-556.0,407.0,-111.0,52.0,198.0,270,192,210,211,208
2025-02-26 14:42:57.184,-174.0,-472.0,322.0,-104.0,53.0,193.0,269,189,209,209,208
2025-02-26 14:42:57.191,-227.0,-459.0,287.0,-100.0,51.0,190.0,258,178,192,197,195
2025-02-26 14:42:57.196,-268.0,-412.0,210.0,-100.0,55.0,185.0,270,188,206,206,207
2025-02-26 14:42:57.200,-337.0,-370.0,225.0,-93.0,55.0,177.0,273,192,207,210,212
2025-02-26 14:42:57.208,-392.0,-304.0,199.0,-94.0,57.0,168.0,271,190,206,209,209
2025-02-26 14:42:57.212,-461.0,-244.0,145.0,-95.0,53.0,159.0,266,186,204,208,206
2025-02-26 14:42:57.217,-459.0,-158.0,172.0,-102.0,49.0,149.0,261,181,197,199,201
2025-02-26 14:42:57.224,-491.0,-146.0,144.0,-110.0,43.0,143.0,264,185,203,204,201
2025-02-26 14:42:57.228,-503.0,-113.0,124.0,-119.0,46.0,131.0,270,193,209,212,212
2025-02-26 14:42:57.232,-540.0,-30.0,146.0,-125.0,51.0,121.0,271,191,208,212,212
2025-02-26 14:42:57.241,-563.0,-37.0,55.0,-125.0,48.0,110.0,269,192,209,210,210
2025-02-26 14:42:57.245,-582.0,-62.0,32.0,-127.0,45.0,100.0,267,189,208,212,209
2025-02-26 14:42:57.247,-592.0,-84.0,-19.0,-130.0,46.0,91.0,265,186,202,205,203
2025-02-26 14:42:57.257,-613.0,-106.0,-82.0,-126.0,48.0,87.0,268,186,205,206,207
2025-02-26 14:42:57.258,-639.0,-142.0,-113.0,-118.0,46.0,82.0,280,203,219,221,221
2025-02-26 14:42:57.265,-644.0,-180.0,-102.0,-110.0,43.0,76.0,274,195,214,215,217
2025-02-26 14:42:57.271,-657.0,-218.0,-131.0,-106.0,41.0,70.0,269,191,211,213,212
2025-02-26 14:42:57.277,-640.0,-229.0,-150.0,-95.0,40.0,62.0,268,188,209,209,209
2025-02-26 14:42:57.282,-625.0,-250.0,-142.0,-84.0,36.0,54.0,268,188,208,209,209
2025-02-26 14:42:57.290,-656.0,-250.0,-102.0,-70.0,30.0,51.0,267,188,209,208,208
2025-02-26 14:42:57.294,-640.0,-270.0,-141.0,-53.0,26.0,43.0,273,197,215,216,216
2025-02-26 14:42:57.298,-613.0,-245.0,-122.0,-41.0,24.0,37.0,276,196,217,218,217
2025-02-26 14:42:57.306,-601.0,-218.0,-119.0,-37.0,25.0,31.0,273,193,206,215,214
2025-02-26 14:42:57.310,-614.0,-164.0,-114.0,-29.0,18.0,26.0,267,189,210,210,211
2025-02-26 14:42:57.314,-616.0,-124.0,-102.0,-21.0,14.0,20.0,264,186,208,208,207
2025-02-26 14:42:57.324,-631.0,-81.0,-120.0,-13.0,6.0,18.0,275,196,215,219,217
2025-02-26 14:42:57.327,-655.0,-21.0,-115.0,-7.0,3.0,14.0,276,199,217,219,218
2025-02-26 14:42:57.331,-688.0,54.0,-113.0,-3.0,-3.0,7.0,271,193,212,215,214
2025-02-26 14:42:57.335,-693.0,145.0,-89.0,1.0,-7.0,-1.0,266,190,208,209,209
2025-02-26 14:42:57.339,-775.0,184.0,-84.0,8.0,-14.0,-5.0,280,201,219,223,223
2025-02-26 14:42:57.344,-873.0,287.0,-72.0,23.0,-19.0,-12.0,276,196,217,218,217
2025-02-26 14:42:57.351,-941.0,396.0,-22.0,30.0,-27.0,-21.0,271,195,214,216,216
2025-02-26 14:42:57.356,-964.0,536.0,58.0,50.0,-29.0,-34.0,266,190,209,211,210
2025-02-26 14:42:57.362,-943.0,592.0,106.0,71.0,-28.0,-45.0,268,190,209,213,212
2025-02-26 14:42:57.368,-912.0,748.0,142.0,100.0,-19.0,-74.0,275,199,218,220,220
