timestamp,ax,ay,az,gx,gy,gz,flex1,flex2,flex3,flex4,flex5,emg1,emg2,emg3
2025-02-25 17:57:18.702,-313.0,-936.0,253.0,-2.0,-1.0,-1.0,161,110,111,136,122
2025-02-25 17:57:18.705,-316.0,-936.0,257.0,-2.0,0.0,-1.0,164,111,113,138,123
2025-02-25 17:57:18.707,-317.0,-935.0,253.0,-2.0,0.0,-1.0,164,113,112,138,124
2025-02-25 17:57:18.710,-315.0,-937.0,252.0,-2.0,0.0,-1.0,160,110,112,137,123
2025-02-25 17:57:18.712,-315.0,-929.0,251.0,-2.0,0.0,0.0,161,108,109,131,120
2025-02-25 17:57:18.714,-313.0,-935.0,252.0,-2.0,0.0,-1.0,165,114,115,140,127
2025-02-25 17:57:18.717,-313.0,-932.0,246.0,-2.0,0.0,0.0,164,112,113,139,123
2025-02-25 17:57:18.719,-314.0,-931.0,251.0,-2.0,0.0,0.0,162,108,110,135,121
2025-02-25 17:57:18.721,-308.0,-928.0,249.0,-2.0,0.0,-1.0,162,111,113,139,124
2025-02-25 17:57:18.723,-314.0,-928.0,247.0,-2.0,0.0,0.0,163,110,113,138,124
2025-02-25 17:57:18.726,-314.0,-930.0,246.0,-2.0,0.0,-1.0,163,110,110,136,122
2025-02-25 17:57:18.728,-314.0,-930.0,246.0,-2.0,0.0,-1.0,162,111,113,138,124
2025-02-25 17:57:18.730,-312.0,-928.0,245.0,-2.0,0.0,-1.0,162,110,112,137,122
2025-02-25 17:57:18.733,-312.0,-928.0,245.0,-2.0,0.0,-1.0,160,107,110,134,120
2025-02-25 17:57:18.735,-321.0,-930.0,246.0,-2.0,0.0,-1.0,165,112,113,140,125
2025-02-25 17:57:18.737,-317.0,-933.0,243.0,-2.0,0.0,-1.0,162,109,110,137,121
2025-02-25 17:57:18.740,-313.0,-928.0,249.0,-2.0,0.0,-1.0,160,108,109,134,121
2025-02-25 17:57:18.742,-319.0,-939.0,249.0,-2.0,0.0,-1.0,164,110,113,141,123
2025-02-25 17:57:18.744,-317.0,-933.0,245.0,-2.0,-1.0,-1.0,162,111,111,137,123
2025-02-25 17:57:18.747,-315.0,-933.0,244.0,-2.0,-1.0,-1.0,160,107,103,135,121
2025-02-25 17:57:18.749,-321.0,-955.0,254.0,-2.0,0.0,-1.0,163,111,111,140,125
2025-02-25 17:57:18.751,-295.0,-935.0,224.0,-2.0,-1.0,-1.0,162,109,111,137,121
2025-02-25 17:57:18.753,-303.0,-936.0,252.0,-3.0,0.0,-1.0,161,107,111,136,122
2025-02-25 17:57:18.755,-317.0,-937.0,242.0,-3.0,-1.0,-1.0,164,112,114,138,124
2025-02-25 17:57:18.757,-308.0,-946.0,247.0,-3.0,-1.0,0.0,161,109,110,136,122
2025-02-25 17:57:18.760,-310.0,-932.0,241.0,-2.0,-1.0,0.0,160,108,110,135,121
2025-02-25 17:57:18.762,-312.0,-937.0,239.0,-2.0,-1.0,-1.0,164,112,113,139,125
2025-02-25 17:57:18.764,-316.0,-934.0,251.0,-1.0,-1.0,0.0,164,112,113,139,124
2025-02-25 17:57:18.767,-307.0,-931.0,239.0,-2.0,-1.0,0.0,161,108,110,135,123
2025-02-25 17:57:18.769,-311.0,-937.0,244.0,-1.0,-1.0,0.0,160,109,110,137,120
2025-02-25 17:57:18.772,-318.0,-929.0,239.0,-1.0,-1.0,0.0,164,114,115,140,125
2025-02-25 17:57:18.774,-318.0,-935.0,244.0,-1.0,-1.0,-1.0,164,110,113,137,124
2025-02-25 17:57:18.777,-315.0,-931.0,244.0,-1.0,-1.0,-1.0,161,108,110,136,121
2025-02-25 17:57:18.780,-318.0,-931.0,244.0,-1.0,-1.0,-1.0,160,108,110,137,122
2025-02-25 17:57:18.782,-321.0,-930.0,242.0,-1.0,-1.0,0.0,165,112,115,139,125
2025-02-25 17:57:18.784,-323.0,-937.0,246.0,-1.0,-1.0,-1.0,163,110,113,139,123
2025-02-25 17:57:18.787,-323.0,-932.0,246.0,-1.0,-1.0,-1.0,162,110,111,138,122
2025-02-25 17:57:18.789,-315.0,-932.0,244.0,-1.0,-1.0,-1.0,163,111,113,139,124
2025-02-25 17:57:18.792,-316.0,-932.0,245.0,-1.0,-1.0,0.0,164,111,113,139,124
2025-02-25 17:57:18.795,-315.0,-930.0,244.0,-1.0,-1.0,-1.0,163,111,114,139,124
2025-02-25 17:57:18.796,-315.0,-930.0,246.0,-1.0,-1.0,-1.0,163,111,113,138,124
2025-02-25 17:57:18.799,-311.0,-928.0,248.0,-1.0,-1.0,-1.0,164,111,114,139,124
2025-02-25 17:57:18.801,-309.0,-925.0,249.0,-1.0,-1.0,0.0,161,109,110,135,120
2025-02-25 17:57:18.803,-311.0,-929.0,248.0,-1.0,-1.0,-1.0,163,111,113,139,124
2025-02-25 17:57:18.806,-311.0,-933.0,254.0,-2.0,-1.0,-1.0,162,110,113,139,124
2025-02-25 17:57:18.808,-308.0,-932.0,255.0,-1.0,-1.0,-1.0,163,112,111,138,124
2025-02-25 17:57:18.810,-310.0,-932.0,252.0,-2.0,-1.0,-1.0,161,110,110,135,122
2025-02-25 17:57:18.813,-312.0,-933.0,251.0,-1.0,-1.0,-1.0,163,112,114,139,125
2025-02-25 17:57:18.815,-315.0,-936.0,246.0,-1.0,0.0,-1.0,165,110,112,139,124
2025-02-25 17:57:18.818,-315.0,-939.0,250.0,-1.0,0.0,-1.0,164,110,112,138,124
2025-02-25 17:57:18.820,-315.0,-931.0,250.0,-2.0,-1.0,-1.0,162,109,111,137,122
2025-02-25 17:57:18.823,-314.0,-935.0,242.0,-2.0,-1.0,-1.0,165,112,114,139,123
2025-02-25 17:57:18.825,-314.0,-933.0,248.0,-2.0,0.0,-1.0,164,111,112,138,124
2025-02-25 17:57:18.827,-318.0,-937.0,247.0,-2.0,-1.0,-1.0,162,110,112,138,124
2025-02-25 17:57:18.830,-314.0,-936.0,246.0,-2.0,-1.0,-1.0,161,109,109,135,121
2025-02-25 17:57:18.832,-317.0,-932.0,243.0,-2.0,-1.0,-1.0,164,113,112,137,123
2025-02-25 17:57:18.835,-317.0,-936.0,247.0,-2.0,-1.0,-1.0,164,111,113,138,125
2025-02-25 17:57:18.837,-319.0,-938.0,243.0,-2.0,-1.0,-1.0,163,111,113,138,122
2025-02-25 17:57:18.839,-317.0,-937.0,248.0,-2.0,-1.0,-1.0,161,111,110,136,122
2025-02-25 17:57:18.843,-311.0,-932.0,250.0,-1.0,-1.0,-1.0,160,109,109,136,121
2025-02-25 17:57:18.844,-316.0,-928.0,242.0,-1.0,0.0,-1.0,167,113,114,139,126
2025-02-25 17:57:18.846,-313.0,-925.0,236.0,-1.0,0.0,-1.0,164,110,113,139,125
2025-02-25 17:57:18.848,-318.0,-929.0,244.0,-1.0,0.0,-1.0,162,108,110,136,122
2025-02-25 17:57:18.850,-321.0,-928.0,243.0,-1.0,0.0,-1.0,160,108,110,136,121
2025-02-25 17:57:18.853,-318.0,-929.0,241.0,-2.0,-1.0,-1.0,166,114,116,143,128
2025-02-25 17:57:18.855,-312.0,-957.0,246.0,-1.0,0.0,-1.0,165,113,114,139,124
2025-02-25 17:57:18.857,-308.0,-937.0,234.0,0.0,-1.0,-1.0,161,110,111,136,121
2025-02-25 17:57:18.859,-300.0,-926.0,248.0,-1.0,0.0,-1.0,160,109,110,136,122
2025-02-25 17:57:18.862,-323.0,-936.0,245.0,0.0,-1.0,-1.0,167,113,115,141,126
2025-02-25 17:57:18.864,-307.0,-937.0,233.0,-1.0,-1.0,-1.0,163,111,112,139,125
2025-02-25 17:57:18.866,-318.0,-935.0,243.0,-1.0,-1.0,-1.0,162,109,111,136,121
2025-02-25 17:57:18.868,-312.0,-933.0,232.0,-1.0,-1.0,-1.0,162,109,111,136,122
2025-02-25 17:57:18.870,-314.0,-935.0,243.0,0.0,-1.0,-1.0,165,112,115,141,125
2025-02-25 17:57:18.872,-314.0,-934.0,240.0,-1.0,-2.0,-1.0,164,112,114,140,126
2025-02-25 17:57:18.875,-315.0,-937.0,244.0,0.0,-1.0,-1.0,161,109,110,137,122
2025-02-25 17:57:18.877,-313.0,-932.0,237.0,0.0,-2.0,-1.0,162,106,110,136,121
2025-02-25 17:57:18.880,-310.0,-931.0,239.0,-1.0,-2.0,-1.0,164,111,113,139,126
2025-02-25 17:57:18.882,-310.0,-930.0,237.0,-1.0,-2.0,-1.0,164,112,113,139,125
2025-02-25 17:57:18.887,-310.0,-932.0,243.0,-1.0,-2.0,-1.0,164,111,114,140,123
2025-02-25 17:57:18.891,-313.0,-935.0,244.0,0.0,-2.0,0.0,160,109,110,135,121
2025-02-25 17:57:18.895,-312.0,-937.0,246.0,0.0,-2.0,0.0,165,113,113,139,125
2025-02-25 17:57:18.903,-312.0,-936.0,250.0,0.0,-1.0,-1.0,162,111,113,138,124
2025-02-25 17:57:18.907,-315.0,-938.0,248.0,0.0,-2.0,0.0,161,109,109,137,122
2025-02-25 17:57:18.911,-317.0,-931.0,248.0,0.0,-1.0,0.0,162,109,110,136,122
2025-02-25 17:57:18.916,-307.0,-932.0,250.0,0.0,-1.0,-1.0,163,112,114,140,125
2025-02-25 17:57:18.923,-312.0,-930.0,248.0,0.0,-1.0,0.0,161,110,112,137,124
2025-02-25 17:57:18.928,-319.0,-934.0,250.0,0.0,-1.0,-1.0,161,108,110,135,121
2025-02-25 17:57:18.932,-315.0,-933.0,249.0,0.0,-1.0,-1.0,160,108,109,135,120
2025-02-25 17:57:18.936,-315.0,-927.0,251.0,0.0,-2.0,-1.0,164,111,113,138,124
2025-02-25 17:57:18.944,-312.0,-928.0,251.0,0.0,-2.0,-1.0,162,111,112,138,123
2025-02-25 17:57:18.948,-316.0,-923.0,251.0,0.0,-1.0,-1.0,163,108,110,136,122
2025-02-25 17:57:18.953,-314.0,-926.0,254.0,-1.0,-1.0,-1.0,160,108,110,135,120
2025-02-25 17:57:18.957,-314.0,-929.0,254.0,0.0,-1.0,-1.0,164,113,113,139,124
2025-02-25 17:57:18.964,-318.0,-930.0,257.0,0.0,-1.0,-1.0,163,109,112,137,123
2025-02-25 17:57:18.969,-311.0,-933.0,254.0,0.0,-1.0,-2.0,162,109,110,136,122
2025-02-25 17:57:18.973,-313.0,-932.0,257.0,0.0,0.0,-1.0,162,111,111,138,124
2025-02-25 17:57:18.977,-316.0,-933.0,255.0,0.0,0.0,-1.0,164,112,113,140,124
2025-02-25 17:57:18.985,-319.0,-936.0,260.0,0.0,0.0,-1.0,165,111,113,138,124
2025-02-25 17:57:18.989,-319.0,-937.0,254.0,-1.0,0.0,-1.0,161,108,111,136,120
2025-02-25 17:57:18.994,-318.0,-935.0,250.0,-1.0,0.0,-1.0,166,109,116,143,125
2025-02-25 17:57:18.998,-319.0,-937.0,251.0,-1.0,0.0,-1.0,163,110,114,138,124
2025-02-25 17:57:19.005,-322.0,-935.0,252.0,-1.0,0.0,-1.0,161,108,112,136,122
2025-02-25 17:57:19.010,-318.0,-937.0,257.0,-2.0,0.0,-1.0,160,109,110,135,121
2025-02-25 17:57:19.014,-324.0,-934.0,250.0,-2.0,0.0,0.0,167,113,115,141,126
2025-02-25 17:57:19.018,-318.0,-927.0,249.0,-2.0,0.0,-1.0,164,112,113,140,124
2025-02-25 17:57:19.026,-314.0,-928.0,245.0,-2.0,0.0,-1.0,161,108,111,136,121
2025-02-25 17:57:19.030,-314.0,-925.0,244.0,-2.0,0.0,-1.0,161,109,112,136,121
2025-02-25 17:57:19.034,-310.0,-924.0,251.0,-2.0,0.0,-1.0,166,112,115,141,126
2025-02-25 17:57:19.039,-305.0,-923.0,251.0,-2.0,0.0,-1.0,164,113,113,138,124
2025-02-25 17:57:19.046,-306.0,-916.0,249.0,-2.0,1.0,-2.0,162,110,110,135,122
2025-02-25 17:57:19.051,-307.0,-913.0,234.0,-3.0,2.0,-2.0,161,107,110,135,122
2025-02-25 17:57:19.055,-315.0,-918.0,232.0,-1.0,0.0,-3.0,167,114,114,140,125
2025-02-25 17:57:19.060,-314.0,-923.0,247.0,-1.0,-1.0,-2.0,163,110,113,139,125
2025-02-25 17:57:19.067,-311.0,-926.0,238.0,-1.0,-2.0,-3.0,161,109,110,136,121
2025-02-25 17:57:19.071,-314.0,-928.0,230.0,-1.0,-1.0,-3.0,163,109,116,136,122
2025-02-25 17:57:19.075,-321.0,-927.0,237.0,0.0,0.0,-2.0,165,112,114,140,125
2025-02-25 17:57:19.079,-314.0,-932.0,245.0,1.0,-1.0,-3.0,164,112,114,139,124
2025-02-25 17:57:19.087,-322.0,-933.0,242.0,1.0,-2.0,-2.0,162,109,111,136,122
2025-02-25 17:57:19.091,-316.0,-936.0,237.0,1.0,-2.0,-2.0,160,109,112,138,122
2025-02-25 17:57:19.096,-310.0,-939.0,242.0,0.0,-1.0,-2.0,164,110,113,139,126
2025-02-25 17:57:19.100,-320.0,-939.0,249.0,-1.0,-1.0,-2.0,165,111,113,139,124
2025-02-25 17:57:19.108,-312.0,-946.0,250.0,-1.0,-1.0,-2.0,161,108,110,136,122
2025-02-25 17:57:19.112,-314.0,-948.0,241.0,0.0,-1.0,-1.0,163,110,110,135,121
2025-02-25 17:57:19.116,-316.0,-950.0,247.0,1.0,-1.0,-1.0,166,112,113,139,125
2025-02-25 17:57:19.124,-314.0,-956.0,251.0,0.0,-1.0,-1.0,163,110,113,139,125
2025-02-25 17:57:19.128,-314.0,-956.0,250.0,0.0,-1.0,-1.0,162,110,111,136,121
2025-02-25 17:57:19.132,-314.0,-955.0,250.0,-1.0,-1.0,-1.0,160,109,111,139,122
2025-02-25 17:57:19.137,-315.0,-952.0,243.0,-1.0,-1.0,0.0,165,112,113,140,125
2025-02-25 17:57:19.144,-311.0,-948.0,248.0,-1.0,-1.0,0.0,163,111,114,139,124
2025-02-25 17:57:19.148,-313.0,-944.0,248.0,-1.0,-1.0,0.0,161,108,110,137,122
2025-02-25 17:57:19.153,-310.0,-940.0,253.0,0.0,-1.0,1.0,167,111,114,140,125
2025-02-25 17:57:19.157,-311.0,-937.0,250.0,0.0,-1.0,1.0,164,112,114,140,125
2025-02-25 17:57:19.165,-309.0,-936.0,247.0,-1.0,-1.0,1.0,163,109,112,139,124
2025-02-25 17:57:19.169,-312.0,-928.0,246.0,-2.0,-1.0,1.0,161,108,110,136,122
2025-02-25 17:57:19.173,-310.0,-930.0,247.0,-2.0,-1.0,0.0,161,109,112,136,126
2025-02-25 17:57:19.178,-316.0,-930.0,249.0,-1.0,-1.0,0.0,164,112,114,139,126
2025-02-25 17:57:19.185,-313.0,-927.0,240.0,-1.0,-1.0,0.0,164,109,113,137,124
2025-02-25 17:57:19.190,-316.0,-920.0,239.0,0.0,-1.0,0.0,161,108,110,135,122
2025-02-25 17:57:19.194,-315.0,-919.0,239.0,-1.0,-1.0,0.0,164,116,114,140,124
2025-02-25 17:57:19.198,-316.0,-919.0,237.0,-1.0,-1.0,0.0,166,112,114,138,125
2025-02-25 17:57:19.206,-322.0,-920.0,240.0,-1.0,-1.0,0.0,163,110,111,138,123
2025-02-25 17:57:19.210,-325.0,-925.0,239.0,-1.0,-1.0,-1.0,161,109,111,135,122
2025-02-25 17:57:19.214,-323.0,-921.0,239.0,0.0,-1.0,-1.0,162,110,111,138,123
2025-02-25 17:57:19.219,-325.0,-917.0,241.0,0.0,-1.0,-1.0,165,112,113,139,124
2025-02-25 17:57:19.226,-322.0,-921.0,240.0,1.0,-1.0,-1.0,162,110,111,137,124
2025-02-25 17:57:19.231,-323.0,-923.0,241.0,0.0,-1.0,-1.0,161,109,110,136,122
2025-02-25 17:57:19.235,-320.0,-925.0,242.0,0.0,-1.0,-1.0,164,112,114,138,124
2025-02-25 17:57:19.239,-327.0,-931.0,244.0,0.0,-1.0,-1.0,164,111,114,139,124
2025-02-25 17:57:19.247,-322.0,-930.0,246.0,1.0,-2.0,-1.0,163,110,112,137,123
2025-02-25 17:57:19.251,-320.0,-937.0,244.0,1.0,-1.0,-1.0,161,109,110,137,121
2025-02-25 17:57:19.256,-319.0,-935.0,249.0,1.0,-1.0,-1.0,165,112,114,138,124
2025-02-25 17:57:19.260,-322.0,-939.0,252.0,0.0,-1.0,-1.0,164,112,113,139,124
2025-02-25 17:57:19.268,-314.0,-945.0,254.0,0.0,-1.0,-1.0,162,110,112,138,123
2025-02-25 17:57:19.272,-317.0,-949.0,251.0,-1.0,-1.0,-1.0,162,108,110,135,121
2025-02-25 17:57:19.276,-314.0,-947.0,259.0,-1.0,-1.0,-1.0,163,111,113,139,123
2025-02-25 17:57:19.281,-313.0,-956.0,254.0,-1.0,-1.0,1.0,163,111,113,138,125
2025-02-25 17:57:19.288,-314.0,-955.0,261.0,-1.0,-1.0,0.0,163,111,112,138,122
2025-02-25 17:57:19.293,-315.0,-955.0,254.0,-1.0,-1.0,1.0,160,107,110,137,121
2025-02-25 17:57:19.297,-313.0,-955.0,253.0,-1.0,-1.0,1.0,165,112,113,139,124
2025-02-25 17:57:19.300,-314.0,-955.0,248.0,0.0,-1.0,1.0,165,109,117,141,127
2025-02-25 17:57:19.308,-305.0,-952.0,270.0,-1.0,0.0,2.0,164,111,113,138,124
2025-02-25 17:57:19.313,-301.0,-943.0,241.0,-2.0,-1.0,2.0,161,107,110,136,121
2025-02-25 17:57:19.317,-307.0,-946.0,253.0,-2.0,-1.0,2.0,164,111,114,140,125
2025-02-25 17:57:19.321,-306.0,-944.0,245.0,-3.0,0.0,2.0,163,111,114,138,124
2025-02-25 17:57:19.329,-305.0,-937.0,244.0,-3.0,-1.0,2.0,161,108,110,135,121
2025-02-25 17:57:19.333,-311.0,-936.0,236.0,-2.0,-1.0,2.0,161,107,110,136,123
2025-02-25 17:57:19.337,-304.0,-926.0,246.0,-2.0,-1.0,2.0,165,113,115,139,124
2025-02-25 17:57:19.342,-310.0,-919.0,239.0,-2.0,-1.0,2.0,165,111,113,139,124
2025-02-25 17:57:19.349,-311.0,-921.0,242.0,-2.0,-1.0,2.0,161,109,110,138,122
2025-02-25 17:57:19.354,-314.0,-911.0,240.0,-2.0,-2.0,2.0,163,111,113,139,124
2025-02-25 17:57:19.358,-312.0,-914.0,246.0,-2.0,-2.0,1.0,165,113,113,140,126
2025-02-25 17:57:19.362,-317.0,-905.0,236.0,-1.0,-2.0,1.0,164,118,113,138,123
2025-02-25 17:57:19.370,-313.0,-907.0,240.0,-1.0,-2.0,0.0,162,108,112,136,121
2025-02-25 17:57:19.374,-323.0,-904.0,242.0,-1.0,-3.0,0.0,163,111,112,138,124
2025-02-25 17:57:19.379,-323.0,-906.0,244.0,-1.0,-3.0,0.0,164,111,114,138,125
2025-02-25 17:57:19.386,-327.0,-910.0,244.0,-1.0,-3.0,-1.0,163,110,112,138,124
2025-02-25 17:57:19.391,-318.0,-916.0,248.0,-1.0,-3.0,-2.0,161,109,110,135,122
2025-02-25 17:57:19.395,-322.0,-918.0,253.0,-1.0,-3.0,-1.0,162,111,112,139,125
2025-02-25 17:57:19.399,-322.0,-915.0,256.0,-1.0,-3.0,-2.0,162,111,114,139,124
2025-02-25 17:57:19.407,-317.0,-926.0,256.0,0.0,-3.0,-1.0,163,110,112,139,124
2025-02-25 17:57:19.411,-317.0,-926.0,255.0,0.0,-3.0,-1.0,161,108,110,136,122
2025-02-25 17:57:19.415,-319.0,-927.0,259.0,0.0,-2.0,-1.0,162,110,112,138,123
2025-02-25 17:57:19.420,-319.0,-922.0,252.0,1.0,-3.0,-1.0,164,111,114,140,124
2025-02-25 17:57:19.427,-317.0,-926.0,271.0,1.0,-1.0,-1.0,164,110,113,140,124
2025-02-25 17:57:19.432,-326.0,-929.0,246.0,1.0,-2.0,-1.0,163,108,111,138,122
2025-02-25 17:57:19.436,-322.0,-934.0,267.0,1.0,-2.0,-1.0,162,109,112,138,123
2025-02-25 17:57:19.440,-319.0,-931.0,257.0,0.0,-1.0,-1.0,164,110,113,139,124
2025-02-25 17:57:19.448,-318.0,-928.0,255.0,0.0,-2.0,-1.0,163,111,113,137,124
2025-02-25 17:57:19.452,-321.0,-933.0,268.0,0.0,-1.0,-1.0,161,109,111,136,121
2025-02-25 17:57:19.456,-315.0,-933.0,259.0,1.0,-1.0,-1.0,163,110,111,136,123
2025-02-25 17:57:19.460,-315.0,-939.0,257.0,1.0,-1.0,-1.0,165,108,113,140,124
2025-02-25 17:57:19.468,-311.0,-936.0,264.0,0.0,-1.0,-2.0,165,112,114,139,122
2025-02-25 17:57:19.472,-314.0,-937.0,258.0,0.0,-1.0,-1.0,161,109,110,135,121
2025-02-25 17:57:19.476,-316.0,-933.0,261.0,-1.0,-1.0,-1.0,161,108,111,137,121
2025-02-25 17:57:19.481,-307.0,-931.0,259.0,-1.0,-1.0,-2.0,163,111,113,139,124
2025-02-25 17:57:19.489,-311.0,-929.0,259.0,-1.0,-1.0,-2.0,163,111,114,138,124
2025-02-25 17:57:19.493,-310.0,-939.0,256.0,-1.0,-1.0,-2.0,161,109,109,137,122
2025-02-25 17:57:19.497,-305.0,-940.0,260.0,-1.0,-1.0,-1.0,162,108,110,136,122
2025-02-25 17:57:19.505,-311.0,-944.0,255.0,-2.0,-1.0,-1.0,164,112,113,139,123
2025-02-25 17:57:19.509,-306.0,-941.0,257.0,-2.0,-1.0,-1.0,164,111,113,139,125
2025-02-25 17:57:19.513,-308.0,-943.0,254.0,-2.0,-1.0,-1.0,166,113,116,140,126
2025-02-25 17:57:19.518,-309.0,-942.0,255.0,-2.0,-1.0,0.0,161,109,110,136,122
2025-02-25 17:57:19.526,-308.0,-943.0,252.0,-2.0,-1.0,0.0,160,108,110,135,121
2025-02-25 17:57:19.530,-315.0,-940.0,252.0,-2.0,-1.0,0.0,164,111,114,139,126
2025-02-25 17:57:19.535,-310.0,-940.0,254.0,-2.0,-1.0,0.0,166,112,114,140,126
2025-02-25 17:57:19.539,-313.0,-939.0,251.0,-2.0,-1.0,0.0,162,110,111,137,121
2025-02-25 17:57:19.546,-315.0,-937.0,246.0,-2.0,-1.0,1.0,163,109,109,137,122
2025-02-25 17:57:19.551,-311.0,-934.0,244.0,-3.0,-1.0,1.0,163,112,112,139,124
2025-02-25 17:57:19.554,-316.0,-933.0,244.0,-3.0,-1.0,0.0,165,113,114,140,125
2025-02-25 17:57:19.559,-317.0,-930.0,246.0,-3.0,-1.0,1.0,163,107,110,135,121
2025-02-25 17:57:19.566,-315.0,-930.0,244.0,-3.0,-1.0,0.0,164,111,114,138,123
2025-02-25 17:57:19.571,-318.0,-924.0,245.0,-2.0,-2.0,0.0,163,110,112,139,125
2025-02-25 17:57:19.575,-316.0,-919.0,243.0,-2.0,-2.0,1.0,166,112,114,141,126
2025-02-25 17:57:19.580,-317.0,-924.0,246.0,-2.0,-1.0,0.0,161,107,109,135,120
2025-02-25 17:57:19.587,-321.0,-922.0,243.0,-2.0,-2.0,0.0,164,111,114,139,123
2025-02-25 17:57:19.592,-323.0,-918.0,244.0,-2.0,-2.0,0.0,164,112,113,139,123
2025-02-25 17:57:19.596,-323.0,-920.0,240.0,-2.0,-2.0,-1.0,163,111,114,139,124
2025-02-25 17:57:19.604,-325.0,-916.0,239.0,-1.0,-2.0,-1.0,160,108,110,135,121
2025-02-25 17:57:19.608,-325.0,-917.0,241.0,-1.0,-2.0,-1.0,162,109,111,136,122
2025-02-25 17:57:19.612,-326.0,-921.0,238.0,-1.0,-2.0,-1.0,163,111,113,139,125
2025-02-25 17:57:19.617,-322.0,-924.0,241.0,-1.0,-3.0,-1.0,164,111,113,139,124
2025-02-25 17:57:19.624,-327.0,-926.0,246.0,-1.0,-2.0,-1.0,161,108,111,136,122
2025-02-25 17:57:19.628,-326.0,-934.0,243.0,-1.0,-2.0,-1.0,162,109,111,137,122
2025-02-25 17:57:19.633,-324.0,-926.0,246.0,0.0,-3.0,0.0,164,109,111,138,124
2025-02-25 17:57:19.637,-325.0,-929.0,248.0,0.0,-2.0,-1.0,164,111,114,138,125
2025-02-25 17:57:19.644,-323.0,-933.0,249.0,0.0,-3.0,-1.0,161,105,111,136,119
2025-02-25 17:57:19.648,-325.0,-935.0,245.0,1.0,-2.0,0.0,160,108,109,135,120
2025-02-25 17:57:19.652,-327.0,-928.0,247.0,0.0,-3.0,0.0,160,112,112,137,124
2025-02-25 17:57:19.657,-322.0,-927.0,254.0,0.0,-3.0,0.0,164,111,112,139,124
2025-02-25 17:57:19.665,-326.0,-923.0,259.0,0.0,-2.0,-1.0,160,102,110,135,121
2025-02-25 17:57:19.669,-322.0,-927.0,255.0,0.0,-3.0,0.0,163,112,113,139,124
2025-02-25 17:57:19.673,-325.0,-923.0,256.0,-1.0,-3.0,-1.0,164,111,117,139,124
2025-02-25 17:57:19.678,-318.0,-920.0,261.0,-1.0,-2.0,-1.0,164,112,114,138,124
2025-02-25 17:57:19.685,-318.0,-923.0,261.0,-1.0,-2.0,-1.0,162,110,111,136,120
2025-02-25 17:57:19.690,-316.0,-919.0,260.0,-1.0,-2.0,-2.0,162,108,110,135,121
2025-02-25 17:57:19.694,-318.0,-924.0,273.0,-1.0,-1.0,-1.0,167,114,115,142,127
2025-02-25 17:57:19.701,-316.0,-926.0,262.0,-1.0,-1.0,-2.0,163,111,112,139,124
2025-02-25 17:57:19.706,-320.0,-926.0,265.0,-1.0,-1.0,-2.0,161,110,111,136,122
2025-02-25 17:57:19.710,-311.0,-924.0,266.0,0.0,-1.0,-2.0,161,109,112,137,121
2025-02-25 17:57:19.715,-316.0,-926.0,264.0,0.0,0.0,-2.0,167,114,116,141,126
2025-02-25 17:57:19.722,-315.0,-918.0,262.0,0.0,0.0,-2.0,164,113,113,136,124
2025-02-25 17:57:19.726,-316.0,-924.0,257.0,0.0,0.0,-3.0,161,109,110,136,121
2025-02-25 17:57:19.730,-320.0,-926.0,256.0,0.0,0.0,-2.0,162,109,111,137,123
2025-02-25 17:57:19.735,-319.0,-919.0,252.0,1.0,0.0,-2.0,166,113,115,140,126
2025-02-25 17:57:19.739,-320.0,-928.0,261.0,1.0,0.0,-2.0,162,109,111,137,124
2025-02-25 17:57:19.747,-317.0,-932.0,249.0,1.0,0.0,-2.0,160,107,110,137,122
2025-02-25 17:57:19.751,-313.0,-924.0,253.0,1.0,0.0,-2.0,164,112,113,138,124
2025-02-25 17:57:19.755,-319.0,-918.0,250.0,1.0,0.0,-1.0,165,112,114,139,125
2025-02-25 17:57:19.760,-314.0,-938.0,252.0,0.0,0.0,-2.0,161,109,111,136,121
2025-02-25 17:57:19.767,-316.0,-938.0,248.0,0.0,0.0,-2.0,161,109,110,135,122
2025-02-25 17:57:19.772,-314.0,-937.0,252.0,0.0,0.0,-2.0,164,111,113,138,124
2025-02-25 17:57:19.775,-313.0,-940.0,257.0,0.0,0.0,-2.0,164,111,113,139,126
2025-02-25 17:57:19.780,-312.0,-932.0,253.0,0.0,-1.0,-2.0,161,108,110,135,121
2025-02-25 17:57:19.787,-313.0,-939.0,265.0,0.0,0.0,-2.0,165,112,113,139,123
2025-02-25 17:57:19.792,-313.0,-937.0,263.0,0.0,0.0,-1.0,164,112,114,139,125
2025-02-25 17:57:19.796,-310.0,-944.0,261.0,-1.0,0.0,-1.0,162,110,112,138,123
2025-02-25 17:57:19.800,-317.0,-941.0,265.0,-1.0,0.0,-1.0,160,107,109,135,121
2025-02-25 17:57:19.808,-314.0,-941.0,265.0,-1.0,0.0,-1.0,164,111,114,140,125
2025-02-25 17:57:19.812,-315.0,-942.0,266.0,0.0,0.0,-1.0,163,111,111,138,124
2025-02-25 17:57:19.816,-312.0,-940.0,261.0,0.0,0.0,-1.0,161,107,110,137,123
2025-02-25 17:57:19.821,-319.0,-942.0,265.0,-1.0,0.0,-1.0,164,109,111,136,123
2025-02-25 17:57:19.828,-317.0,-939.0,262.0,0.0,0.0,-1.0,165,112,113,138,124
2025-02-25 17:57:19.833,-319.0,-937.0,268.0,0.0,0.0,0.0,163,109,113,138,124
2025-02-25 17:57:19.837,-319.0,-929.0,263.0,0.0,0.0,0.0,164,110,111,136,122
2025-02-25 17:57:19.841,-317.0,-931.0,268.0,0.0,1.0,0.0,165,111,112,139,125
2025-02-25 17:57:19.846,-322.0,-925.0,263.0,0.0,1.0,0.0,162,110,112,137,123
2025-02-25 17:57:19.853,-314.0,-920.0,260.0,-1.0,1.0,0.0,159,108,110,136,120
2025-02-25 17:57:19.858,-314.0,-917.0,259.0,-1.0,2.0,-1.0,164,113,114,140,125
2025-02-25 17:57:19.862,-322.0,-918.0,255.0,-1.0,2.0,-1.0,164,112,114,139,124
2025-02-25 17:57:19.867,-322.0,-919.0,259.0,-1.0,2.0,-1.0,162,109,110,136,122
2025-02-25 17:57:19.874,-325.0,-927.0,256.0,-1.0,1.0,-1.0,162,110,111,138,120
2025-02-25 17:57:19.878,-322.0,-920.0,254.0,-1.0,2.0,-1.0,165,112,113,140,124
2025-02-25 17:57:19.883,-325.0,-931.0,253.0,-1.0,1.0,-1.0,164,108,112,139,125
2025-02-25 17:57:19.887,-325.0,-931.0,254.0,0.0,1.0,-1.0,161,108,111,136,122
2025-02-25 17:57:19.894,-327.0,-934.0,255.0,0.0,0.0,-1.0,161,107,111,137,122
2025-02-25 17:57:19.899,-312.0,-922.0,259.0,-1.0,1.0,-1.0,165,112,113,139,125
2025-02-25 17:57:19.903,-335.0,-930.0,254.0,-1.0,1.0,-1.0,167,111,112,139,124
2025-02-25 17:57:19.907,-311.0,-935.0,268.0,-1.0,1.0,-1.0,161,109,111,137,123
2025-02-25 17:57:19.915,-321.0,-937.0,272.0,-1.0,1.0,-1.0,161,103,111,135,122
2025-02-25 17:57:19.919,-315.0,-934.0,260.0,-2.0,1.0,-1.0,164,112,114,139,125
2025-02-25 17:57:19.924,-313.0,-933.0,265.0,-1.0,2.0,-1.0,162,109,108,137,124
2025-02-25 17:57:19.928,-312.0,-931.0,262.0,-2.0,2.0,-1.0,162,108,111,135,121
2025-02-25 17:57:19.935,-306.0,-934.0,261.0,-3.0,2.0,-1.0,161,108,109,135,121
2025-02-25 17:57:19.940,-311.0,-932.0,264.0,-3.0,2.0,-1.0,165,111,113,139,124
2025-02-25 17:57:19.944,-313.0,-936.0,261.0,-4.0,2.0,-1.0,161,109,112,137,123
2025-02-25 17:57:19.948,-311.0,-936.0,254.0,-4.0,2.0,-1.0,161,109,110,136,122
2025-02-25 17:57:19.956,-316.0,-939.0,250.0,-4.0,2.0,0.0,164,112,114,140,124
2025-02-25 17:57:19.960,-311.0,-939.0,241.0,-4.0,2.0,-1.0,164,111,114,139,125
2025-02-25 17:57:19.965,-321.0,-957.0,253.0,-3.0,1.0,-1.0,162,111,113,138,125
2025-02-25 17:57:19.969,-325.0,-939.0,238.0,-4.0,1.0,-1.0,161,108,111,135,122
2025-02-25 17:57:19.977,-309.0,-939.0,236.0,-5.0,2.0,0.0,168,115,116,141,128
2025-02-25 17:57:19.981,-324.0,-931.0,229.0,-4.0,1.0,1.0,165,112,114,139,125
2025-02-25 17:57:19.985,-318.0,-941.0,257.0,-4.0,1.0,-1.0,161,110,111,137,122
2025-02-25 17:57:19.989,-320.0,-929.0,242.0,-4.0,2.0,0.0,161,109,110,137,121
2025-02-25 17:57:19.997,-318.0,-935.0,228.0,-4.0,1.0,0.0,167,116,115,141,126
2025-02-25 17:57:20.001,-315.0,-929.0,234.0,-3.0,1.0,-1.0,162,111,113,138,124
2025-02-25 17:57:20.006,-312.0,-922.0,234.0,-3.0,1.0,-1.0,161,109,110,136,122
2025-02-25 17:57:20.010,-313.0,-918.0,232.0,-2.0,1.0,0.0,160,107,109,135,118
2025-02-25 17:57:20.017,-311.0,-927.0,225.0,-2.0,1.0,-1.0,166,114,117,141,127
2025-02-25 17:57:20.022,-310.0,-921.0,224.0,-2.0,1.0,-1.0,163,109,111,137,122
2025-02-25 17:57:20.026,-310.0,-919.0,234.0,-1.0,1.0,-1.0,163,110,111,134,121
2025-02-25 17:57:20.031,-302.0,-917.0,228.0,-2.0,0.0,-1.0,161,108,110,135,121
2025-02-25 17:57:20.038,-299.0,-916.0,228.0,-1.0,0.0,-2.0,164,114,116,139,126
2025-02-25 17:57:20.042,-305.0,-920.0,231.0,-1.0,-1.0,-2.0,164,111,113,139,123
2025-02-25 17:57:20.047,-302.0,-921.0,232.0,0.0,-1.0,-2.0,161,108,111,136,121
2025-02-25 17:57:20.051,-299.0,-924.0,236.0,0.0,-1.0,-2.0,161,109,109,136,122
2025-02-25 17:57:20.058,-303.0,-924.0,236.0,1.0,-1.0,-2.0,165,112,114,139,126
2025-02-25 17:57:20.062,-299.0,-922.0,236.0,1.0,-2.0,-3.0,162,110,112,137,123
2025-02-25 17:57:20.067,-299.0,-924.0,234.0,0.0,-2.0,-2.0,161,107,111,136,122
2025-02-25 17:57:20.071,-309.0,-926.0,236.0,1.0,-2.0,-2.0,163,110,112,137,123
2025-02-25 17:57:20.079,-313.0,-925.0,237.0,0.0,-2.0,-3.0,164,112,114,139,126
2025-02-25 17:57:20.083,-319.0,-929.0,238.0,0.0,-3.0,-2.0,163,111,112,138,124
2025-02-25 17:57:20.087,-313.0,-930.0,242.0,0.0,-3.0,-2.0,160,104,109,136,123
2025-02-25 17:57:20.095,-317.0,-935.0,263.0,-2.0,-2.0,-3.0,163,113,113,139,123
2025-02-25 17:57:20.099,-319.0,-944.0,236.0,-1.0,-2.0,-2.0,164,112,114,140,126
2025-02-25 17:57:20.103,-326.0,-954.0,249.0,0.0,-3.0,-2.0,162,110,112,139,123
2025-02-25 17:57:20.107,-325.0,-953.0,267.0,0.0,-3.0,-1.0,161,109,111,136,122
2025-02-25 17:57:20.115,-330.0,-955.0,238.0,-1.0,-3.0,-1.0,162,109,111,136,121
2025-02-25 17:57:20.120,-321.0,-953.0,248.0,-1.0,-3.0,0.0,164,112,114,140,125
2025-02-25 17:57:20.125,-331.0,-944.0,250.0,0.0,-3.0,0.0,163,110,113,137,124
2025-02-25 17:57:20.128,-329.0,-938.0,244.0,1.0,-2.0,1.0,161,108,109,135,121
2025-02-25 17:57:20.136,-333.0,-944.0,247.0,3.0,-3.0,1.0,164,111,113,140,124
2025-02-25 17:57:20.141,-323.0,-932.0,244.0,2.0,-3.0,0.0,164,112,114,140,126
2025-02-25 17:57:20.145,-331.0,-916.0,240.0,1.0,-3.0,0.0,162,108,111,137,123
2025-02-25 17:57:20.150,-326.0,-912.0,249.0,0.0,-3.0,0.0,160,109,112,138,122
2025-02-25 17:57:20.156,-324.0,-915.0,235.0,1.0,-3.0,0.0,164,111,111,138,125
2025-02-25 17:57:20.161,-327.0,-911.0,238.0,2.0,-3.0,-1.0,162,109,112,138,123
2025-02-25 17:57:20.165,-327.0,-910.0,234.0,3.0,-3.0,-1.0,161,108,110,136,122
2025-02-25 17:57:20.169,-325.0,-916.0,227.0,4.0,-3.0,-1.0,161,108,110,135,120
2025-02-25 17:57:20.177,-324.0,-917.0,244.0,3.0,-3.0,-1.0,166,114,115,140,127
2025-02-25 17:57:20.181,-321.0,-917.0,246.0,3.0,-3.0,-1.0,163,111,112,137,123
2025-02-25 17:57:20.186,-330.0,-926.0,235.0,3.0,-3.0,-2.0,161,109,111,136,121
2025-02-25 17:57:20.190,-317.0,-924.0,243.0,5.0,-3.0,-2.0,163,109,109,137,121
2025-02-25 17:57:20.198,-314.0,-918.0,248.0,5.0,-3.0,-2.0,166,115,117,143,126
2025-02-25 17:57:20.202,-318.0,-932.0,249.0,5.0,-3.0,-2.0,163,110,112,137,123
2025-02-25 17:57:20.206,-323.0,-928.0,242.0,5.0,-3.0,-2.0,161,108,112,137,125
2025-02-25 17:57:20.210,-320.0,-931.0,257.0,4.0,-3.0,-2.0,164,110,109,136,123
2025-02-25 17:57:20.218,-310.0,-932.0,270.0,4.0,-3.0,-2.0,167,115,116,141,127
2025-02-25 17:57:20.222,-325.0,-949.0,262.0,3.0,-2.0,-3.0,163,110,112,138,124
2025-02-25 17:57:20.227,-316.0,-948.0,250.0,3.0,-3.0,-2.0,161,108,109,135,121
2025-02-25 17:57:20.231,-317.0,-957.0,266.0,3.0,-3.0,-2.0,164,111,113,139,123
2025-02-25 17:57:20.238,-328.0,-955.0,270.0,3.0,-3.0,-1.0,165,113,113,140,126
2025-02-25 17:57:20.242,-314.0,-954.0,262.0,3.0,-3.0,0.0,164,112,113,140,124
2025-02-25 17:57:20.247,-317.0,-957.0,269.0,2.0,-3.0,0.0,160,109,110,136,122
2025-02-25 17:57:20.251,-312.0,-954.0,267.0,1.0,-3.0,0.0,164,110,113,138,124
2025-02-25 17:57:20.259,-319.0,-948.0,263.0,1.0,-3.0,1.0,165,113,114,140,126
2025-02-25 17:57:20.263,-313.0,-945.0,275.0,2.0,-2.0,1.0,161,108,111,136,122
2025-02-25 17:57:20.268,-316.0,-943.0,263.0,2.0,-2.0,1.0,159,107,109,135,120
2025-02-25 17:57:20.272,-316.0,-942.0,276.0,1.0,-2.0,1.0,165,113,112,138,125
2025-02-25 17:57:20.276,-319.0,-943.0,273.0,1.0,-2.0,1.0,165,112,114,139,124
2025-02-25 17:57:20.284,-327.0,-943.0,282.0,1.0,-2.0,1.0,160,106,109,135,121
2025-02-25 17:57:20.287,-324.0,-926.0,277.0,0.0,-2.0,1.0,163,111,113,139,125
2025-02-25 17:57:20.292,-312.0,-927.0,273.0,1.0,-2.0,1.0,163,111,113,139,125
2025-02-25 17:57:20.297,-326.0,-930.0,272.0,1.0,-2.0,1.0,163,111,112,139,124
2025-02-25 17:57:20.304,-314.0,-934.0,277.0,1.0,-2.0,1.0,160,106,108,134,120
2025-02-25 17:57:20.308,-317.0,-927.0,281.0,-1.0,-2.0,2.0,164,112,114,139,126
2025-02-25 17:57:20.312,-310.0,-931.0,281.0,-2.0,-2.0,1.0,163,109,112,138,124
2025-02-25 17:57:20.316,-308.0,-928.0,289.0,-3.0,-2.0,1.0,162,110,112,137,123
2025-02-25 17:57:20.324,-308.0,-933.0,280.0,-3.0,-1.0,1.0,162,109,110,137,123
2025-02-25 17:57:20.329,-312.0,-928.0,278.0,-2.0,-2.0,2.0,163,111,113,139,124
2025-02-25 17:57:20.333,-303.0,-921.0,282.0,-2.0,-1.0,1.0,163,109,113,137,123
2025-02-25 17:57:20.337,-308.0,-927.0,285.0,-2.0,-1.0,1.0,162,109,111,136,123
2025-02-25 17:57:20.345,-306.0,-922.0,281.0,-2.0,-1.0,1.0,163,108,112,140,124
2025-02-25 17:57:20.349,-301.0,-916.0,279.0,-2.0,-1.0,1.0,164,113,114,139,125
2025-02-25 17:57:20.354,-303.0,-913.0,278.0,-2.0,0.0,0.0,163,110,113,140,123
2025-02-25 17:57:20.358,-303.0,-908.0,268.0,-2.0,0.0,0.0,161,107,110,135,121
2025-02-25 17:57:20.365,-303.0,-905.0,273.0,-2.0,-1.0,0.0,166,111,112,138,123
2025-02-25 17:57:20.370,-312.0,-900.0,271.0,-1.0,-1.0,0.0,165,112,112,139,124
2025-02-25 17:57:20.374,-315.0,-901.0,263.0,-1.0,-1.0,-1.0,160,108,110,137,122
2025-02-25 17:57:20.379,-320.0,-907.0,267.0,-2.0,0.0,-1.0,162,109,111,136,122
2025-02-25 17:57:20.386,-330.0,-906.0,259.0,-2.0,0.0,-1.0,163,111,113,139,124
2025-02-25 17:57:20.390,-324.0,-913.0,263.0,-1.0,0.0,-2.0,164,112,113,138,125
2025-02-25 17:57:20.395,-328.0,-918.0,262.0,-1.0,0.0,-1.0,162,108,110,136,121
2025-02-25 17:57:20.399,-330.0,-918.0,257.0,0.0,0.0,-2.0,162,109,108,136,121
2025-02-25 17:57:20.406,-332.0,-918.0,255.0,0.0,0.0,-2.0,164,110,112,139,124
2025-02-25 17:57:20.410,-335.0,-921.0,257.0,0.0,0.0,-2.0,164,110,113,138,124
2025-02-25 17:57:20.415,-337.0,-918.0,259.0,1.0,0.0,-1.0,161,107,110,137,122
2025-02-25 17:57:20.419,-331.0,-922.0,260.0,1.0,0.0,-2.0,162,110,110,136,122
2025-02-25 17:57:20.427,-332.0,-923.0,256.0,2.0,0.0,-2.0,163,111,112,138,125
2025-02-25 17:57:20.431,-331.0,-926.0,252.0,2.0,0.0,-2.0,163,110,112,138,123
2025-02-25 17:57:20.436,-330.0,-927.0,258.0,2.0,1.0,-2.0,163,109,110,136,121
2025-02-25 17:57:20.440,-325.0,-927.0,257.0,2.0,0.0,-2.0,163,109,112,139,125
2025-02-25 17:57:20.447,-323.0,-934.0,254.0,2.0,0.0,-2.0,163,111,112,139,124
2025-02-25 17:57:20.451,-321.0,-934.0,257.0,2.0,0.0,-2.0,160,108,109,137,122
2025-02-25 17:57:20.455,-312.0,-934.0,256.0,2.0,0.0,-2.0,161,109,111,136,122
2025-02-25 17:57:20.459,-314.0,-937.0,258.0,1.0,0.0,-1.0,163,109,114,140,125
2025-02-25 17:57:20.468,-309.0,-942.0,263.0,1.0,0.0,-1.0,163,111,112,138,123
2025-02-25 17:57:20.471,-312.0,-947.0,262.0,1.0,-1.0,-1.0,161,108,110,136,122
2025-02-25 17:57:20.476,-308.0,-948.0,262.0,1.0,-1.0,-1.0,167,114,116,142,127
2025-02-25 17:57:20.480,-305.0,-948.0,265.0,1.0,-1.0,0.0,164,111,113,139,124
2025-02-25 17:57:20.484,-303.0,-955.0,269.0,1.0,0.0,0.0,161,110,111,136,122
2025-02-25 17:57:20.492,-301.0,-952.0,270.0,0.0,-1.0,0.0,160,107,109,135,121
2025-02-25 17:57:20.497,-306.0,-957.0,270.0,0.0,-1.0,2.0,166,113,117,142,128
2025-02-25 17:57:20.501,-309.0,-951.0,269.0,-1.0,0.0,1.0,163,111,112,139,124
2025-02-25 17:57:20.506,-306.0,-956.0,265.0,0.0,-1.0,1.0,161,108,110,135,121
2025-02-25 17:57:20.513,-308.0,-950.0,266.0,-1.0,-1.0,2.0,165,111,113,140,126
2025-02-25 17:57:20.517,-313.0,-952.0,265.0,0.0,0.0,2.0,167,113,114,140,127
2025-02-25 17:57:20.521,-308.0,-949.0,270.0,-1.0,0.0,2.0,161,108,110,136,122
2025-02-25 17:57:20.526,-311.0,-951.0,269.0,0.0,0.0,3.0,160,108,109,136,122
2025-02-25 17:57:20.533,-312.0,-950.0,261.0,-1.0,-1.0,2.0,163,111,114,139,125
2025-02-25 17:57:20.538,-317.0,-940.0,258.0,-1.0,0.0,3.0,167,112,114,140,125
2025-02-25 17:57:20.542,-314.0,-944.0,262.0,-1.0,-1.0,3.0,162,109,109,135,122
2025-02-25 17:57:20.546,-318.0,-937.0,255.0,-2.0,-1.0,3.0,164,111,113,139,124
2025-02-25 17:57:20.554,-313.0,-938.0,267.0,-2.0,-1.0,4.0,163,112,115,140,126
2025-02-25 17:57:20.557,-317.0,-941.0,259.0,-3.0,-1.0,4.0,165,113,114,138,126
2025-02-25 17:57:20.562,-313.0,-939.0,261.0,-3.0,-1.0,4.0,161,108,109,135,122
2025-02-25 17:57:20.566,-315.0,-936.0,263.0,-3.0,-1.0,5.0,164,110,114,138,125
2025-02-25 17:57:20.574,-317.0,-934.0,266.0,-2.0,-1.0,4.0,164,111,113,139,126
2025-02-25 17:57:20.578,-319.0,-935.0,264.0,-3.0,-1.0,4.0,163,111,113,136,124
2025-02-25 17:57:20.582,-319.0,-928.0,264.0,-2.0,-1.0,4.0,162,110,111,136,121
2025-02-25 17:57:20.587,-318.0,-925.0,265.0,-3.0,0.0,4.0,163,111,113,139,125
2025-02-25 17:57:20.594,-321.0,-920.0,267.0,-2.0,-1.0,4.0,163,113,111,138,125
2025-02-25 17:57:20.598,-329.0,-922.0,262.0,-2.0,-1.0,4.0,163,109,111,137,123
2025-02-25 17:57:20.603,-328.0,-919.0,278.0,-4.0,-1.0,4.0,162,110,107,137,123
2025-02-25 17:57:20.608,-322.0,-917.0,262.0,-3.0,0.0,4.0,165,110,114,140,123
2025-02-25 17:57:20.615,-324.0,-921.0,260.0,-3.0,-1.0,4.0,163,113,114,140,126
2025-02-25 17:57:20.619,-328.0,-914.0,263.0,-3.0,0.0,4.0,161,109,111,138,122
2025-02-25 17:57:20.624,-320.0,-917.0,263.0,-3.0,0.0,4.0,160,107,108,135,121
2025-02-25 17:57:20.628,-331.0,-916.0,274.0,-4.0,1.0,3.0,165,112,114,140,124
2025-02-25 17:57:20.635,-338.0,-906.0,263.0,-4.0,-1.0,5.0,164,111,110,139,124
2025-02-25 17:57:20.640,-316.0,-940.0,245.0,-3.0,-1.0,5.0,161,108,110,136,121
2025-02-25 17:57:20.644,-329.0,-933.0,282.0,-2.0,1.0,5.0,164,111,112,140,125
2025-02-25 17:57:20.648,-326.0,-903.0,277.0,-3.0,1.0,4.0,163,111,114,138,125
2025-02-25 17:57:20.656,-337.0,-923.0,255.0,-3.0,-1.0,4.0,160,108,111,136,123
2025-02-25 17:57:20.660,-336.0,-915.0,244.0,-2.0,0.0,4.0,161,108,111,136,122
2025-02-25 17:57:20.664,-327.0,-916.0,250.0,-2.0,2.0,4.0,166,113,114,141,125
2025-02-25 17:57:20.669,-341.0,-916.0,272.0,-2.0,1.0,4.0,163,110,112,139,123
2025-02-25 17:57:20.673,-341.0,-919.0,253.0,-3.0,0.0,4.0,162,106,112,137,122
2025-02-25 17:57:20.681,-340.0,-942.0,241.0,-2.0,-2.0,3.0,161,108,111,137,122
2025-02-25 17:57:20.685,-353.0,-919.0,265.0,-1.0,0.0,3.0,163,111,113,139,126
2025-02-25 17:57:20.689,-329.0,-915.0,242.0,-2.0,-1.0,3.0,163,111,112,139,125
2025-02-25 17:57:20.693,-335.0,-928.0,276.0,-1.0,-1.0,3.0,161,107,110,136,121
2025-02-25 17:57:20.701,-353.0,-910.0,254.0,-2.0,-2.0,4.0,165,112,114,139,125
2025-02-25 17:57:20.705,-333.0,-908.0,255.0,-3.0,-1.0,3.0,164,112,113,139,125
2025-02-25 17:57:20.710,-338.0,-909.0,274.0,-3.0,-1.0,3.0,163,110,113,139,127
2025-02-25 17:57:20.717,-340.0,-906.0,265.0,-3.0,-2.0,3.0,161,109,110,135,122
2025-02-25 17:57:20.722,-329.0,-913.0,256.0,-2.0,-2.0,3.0,164,112,113,139,125
2025-02-25 17:57:20.726,-337.0,-884.0,279.0,-3.0,0.0,2.0,165,111,113,138,125
2025-02-25 17:57:20.730,-333.0,-903.0,275.0,-3.0,0.0,2.0,161,109,110,136,122
2025-02-25 17:57:20.734,-334.0,-894.0,278.0,-2.0,-1.0,2.0,163,112,114,139,125
2025-02-25 17:57:20.742,-331.0,-906.0,267.0,-3.0,-1.0,1.0,163,112,114,138,126
2025-02-25 17:57:20.746,-344.0,-901.0,259.0,-3.0,0.0,0.0,164,112,114,138,124
2025-02-25 17:57:20.751,-330.0,-911.0,268.0,-2.0,0.0,0.0,161,108,110,136,122
2025-02-25 17:57:20.754,-348.0,-912.0,270.0,-2.0,0.0,0.0,162,109,111,137,121
2025-02-25 17:57:20.763,-344.0,-918.0,267.0,-2.0,0.0,1.0,165,112,114,140,125
2025-02-25 17:57:20.767,-347.0,-916.0,264.0,-1.0,0.0,0.0,163,111,113,139,125
2025-02-25 17:57:20.771,-341.0,-920.0,262.0,-1.0,0.0,1.0,160,108,111,135,122
2025-02-25 17:57:20.776,-348.0,-923.0,266.0,-1.0,0.0,1.0,166,112,114,141,127
2025-02-25 17:57:20.783,-341.0,-923.0,267.0,-1.0,0.0,1.0,164,111,114,139,124
2025-02-25 17:57:20.788,-334.0,-922.0,268.0,-1.0,0.0,1.0,161,108,110,137,122
2025-02-25 17:57:20.791,-335.0,-917.0,264.0,-1.0,0.0,0.0,159,105,109,135,121
2025-02-25 17:57:20.796,-334.0,-917.0,269.0,-1.0,0.0,1.0,165,113,115,141,127
2025-02-25 17:57:20.804,-334.0,-919.0,272.0,-1.0,0.0,1.0,163,111,112,138,124
2025-02-25 17:57:20.808,-333.0,-917.0,269.0,-1.0,0.0,0.0,161,108,110,135,121
2025-02-25 17:57:20.812,-336.0,-908.0,271.0,-2.0,0.0,0.0,164,111,113,139,125
2025-02-25 17:57:20.816,-332.0,-912.0,275.0,-2.0,0.0,0.0,166,113,115,141,126
2025-02-25 17:57:20.824,-324.0,-903.0,268.0,-2.0,0.0,-1.0,161,109,112,135,123
2025-02-25 17:57:20.828,-325.0,-907.0,275.0,-3.0,0.0,-1.0,160,108,110,136,122
2025-02-25 17:57:20.833,-330.0,-907.0,272.0,-3.0,0.0,-1.0,164,111,113,139,124
2025-02-25 17:57:20.837,-330.0,-915.0,278.0,-3.0,1.0,-2.0,164,110,114,139,125
2025-02-25 17:57:20.844,-334.0,-928.0,272.0,-4.0,1.0,-1.0,160,111,110,136,122
2025-02-25 17:57:20.849,-341.0,-921.0,271.0,-3.0,1.0,-1.0,160,107,109,135,121
2025-02-25 17:57:20.853,-343.0,-935.0,276.0,-4.0,2.0,-1.0,164,111,113,139,124
2025-02-25 17:57:20.857,-343.0,-933.0,279.0,-5.0,6.0,-1.0,163,109,113,139,125
2025-02-25 17:57:20.865,-347.0,-936.0,242.0,-4.0,6.0,0.0,161,106,111,136,120
2025-02-25 17:57:20.869,-356.0,-923.0,262.0,-3.0,4.0,0.0,161,109,109,135,120
2025-02-25 17:57:20.873,-352.0,-924.0,283.0,-3.0,4.0,0.0,163,111,114,138,125
2025-02-25 17:57:20.877,-362.0,-937.0,242.0,-3.0,1.0,0.0,164,111,113,137,124
2025-02-25 17:57:20.882,-345.0,-927.0,252.0,-3.0,2.0,0.0,161,108,109,135,121
2025-02-25 17:57:20.889,-356.0,-936.0,234.0,-4.0,3.0,1.0,165,111,113,139,125
2025-02-25 17:57:20.894,-350.0,-927.0,260.0,-3.0,2.0,1.0,163,112,114,138,124
2025-02-25 17:57:20.898,-348.0,-927.0,258.0,-2.0,2.0,1.0,161,109,112,137,123
2025-02-25 17:57:20.902,-346.0,-927.0,243.0,-3.0,3.0,1.0,160,107,114,135,121
2025-02-25 17:57:20.910,-352.0,-924.0,247.0,-2.0,3.0,1.0,164,111,116,139,125
2025-02-25 17:57:20.914,-351.0,-919.0,243.0,-3.0,2.0,2.0,162,111,113,139,124
2025-02-25 17:57:20.919,-345.0,-913.0,252.0,-4.0,2.0,1.0,162,108,110,136,122
2025-02-25 17:57:20.923,-345.0,-907.0,246.0,-5.0,3.0,1.0,163,111,113,137,125
2025-02-25 17:57:20.931,-340.0,-905.0,244.0,-4.0,2.0,1.0,164,112,112,139,125
2025-02-25 17:57:20.935,-356.0,-905.0,257.0,-2.0,3.0,0.0,162,110,111,136,122
2025-02-25 17:57:20.939,-349.0,-896.0,248.0,-2.0,3.0,0.0,162,108,109,136,121
2025-02-25 17:57:20.943,-344.0,-898.0,245.0,-3.0,2.0,-1.0,164,111,114,137,125
2025-02-25 17:57:20.951,-346.0,-902.0,246.0,-3.0,2.0,-1.0,162,111,112,137,123
2025-02-25 17:57:20.955,-351.0,-904.0,232.0,-3.0,2.0,-2.0,163,109,110,135,123
2025-02-25 17:57:20.959,-351.0,-901.0,242.0,-3.0,2.0,-2.0,163,111,114,137,124
2025-02-25 17:57:20.963,-335.0,-897.0,261.0,-3.0,5.0,-2.0,164,111,114,139,124
2025-02-25 17:57:20.972,-356.0,-912.0,208.0,0.0,1.0,-1.0,163,110,112,138,124
2025-02-25 17:57:20.979,-356.0,-906.0,242.0,1.0,0.0,-2.0,161,108,111,134,121
2025-02-25 17:57:20.981,-336.0,-907.0,243.0,-2.0,1.0,-2.0,164,112,114,139,125
2025-02-25 17:57:20.984,-338.0,-902.0,215.0,-1.0,0.0,-2.0,163,110,113,138,124
2025-02-25 17:57:20.992,-329.0,-898.0,239.0,-1.0,0.0,-2.0,161,109,110,137,122
2025-02-25 17:57:20.996,-329.0,-896.0,241.0,0.0,0.0,-2.0,162,110,109,136,122
2025-02-25 17:57:21.000,-329.0,-905.0,216.0,2.0,-1.0,-3.0,164,111,113,139,125
2025-02-25 17:57:21.005,-333.0,-903.0,226.0,3.0,0.0,-3.0,164,111,114,139,125
2025-02-25 17:57:21.012,-336.0,-912.0,229.0,3.0,-1.0,-3.0,162,108,111,137,122
2025-02-25 17:57:21.017,-335.0,-909.0,227.0,2.0,-1.0,-3.0,161,108,110,137,122
2025-02-25 17:57:21.021,-344.0,-919.0,229.0,3.0,-1.0,-3.0,164,113,113,139,124
2025-02-25 17:57:21.025,-342.0,-923.0,218.0,2.0,-2.0,-3.0,163,111,113,138,124
2025-02-25 17:57:21.033,-344.0,-932.0,221.0,3.0,-2.0,-3.0,163,110,110,136,122
2025-02-25 17:57:21.037,-344.0,-932.0,224.0,4.0,-3.0,-3.0,163,109,111,137,124
2025-02-25 17:57:21.041,-347.0,-941.0,230.0,3.0,-3.0,-3.0,163,112,113,139,125
2025-02-25 17:57:21.046,-340.0,-949.0,235.0,2.0,-4.0,-2.0,163,110,113,137,123
2025-02-25 17:57:21.053,-341.0,-959.0,237.0,1.0,-4.0,-2.0,162,109,111,136,122
2025-02-25 17:57:21.057,-335.0,-968.0,239.0,1.0,-4.0,-1.0,162,109,110,137,122
2025-02-25 17:57:21.062,-337.0,-965.0,243.0,1.0,-4.0,-1.0,164,111,114,139,124
2025-02-25 17:57:21.066,-329.0,-957.0,251.0,2.0,-4.0,0.0,162,110,112,136,122
2025-02-25 17:57:21.074,-327.0,-961.0,242.0,2.0,-4.0,1.0,161,108,111,136,122
2025-02-25 17:57:21.078,-330.0,-951.0,259.0,2.0,-4.0,1.0,165,112,114,140,125
2025-02-25 17:57:21.082,-323.0,-951.0,257.0,1.0,-4.0,2.0,164,111,114,139,125
2025-02-25 17:57:21.086,-314.0,-942.0,258.0,1.0,-4.0,2.0,161,108,114,136,122
2025-02-25 17:57:21.094,-318.0,-937.0,261.0,1.0,-4.0,2.0,161,109,111,137,122
2025-02-25 17:57:21.099,-320.0,-934.0,264.0,1.0,-4.0,2.0,165,112,114,140,125
2025-02-25 17:57:21.103,-316.0,-937.0,257.0,1.0,-4.0,2.0,162,109,111,137,124
2025-02-25 17:57:21.108,-317.0,-929.0,264.0,2.0,-4.0,2.0,161,108,110,136,122
2025-02-25 17:57:21.111,-327.0,-928.0,264.0,1.0,-4.0,2.0,164,110,112,138,125
2025-02-25 17:57:21.119,-328.0,-933.0,264.0,1.0,-4.0,3.0,164,112,114,138,126
2025-02-25 17:57:21.123,-335.0,-934.0,264.0,1.0,-4.0,3.0,161,109,110,138,123
2025-02-25 17:57:21.127,-336.0,-930.0,267.0,0.0,-4.0,2.0,161,108,111,136,122
2025-02-25 17:57:21.132,-345.0,-931.0,265.0,1.0,-4.0,3.0,164,112,113,139,125
2025-02-25 17:57:21.138,-346.0,-929.0,260.0,2.0,-4.0,3.0,164,111,113,138,124
2025-02-25 17:57:21.144,-341.0,-914.0,265.0,2.0,-4.0,3.0,161,108,109,136,122
2025-02-25 17:57:21.148,-345.0,-920.0,259.0,2.0,-4.0,3.0,165,112,112,138,124
2025-02-25 17:57:21.152,-349.0,-907.0,264.0,2.0,-4.0,3.0,163,113,114,139,125
2025-02-25 17:57:21.160,-352.0,-905.0,267.0,2.0,-4.0,3.0,162,110,113,136,122
2025-02-25 17:57:21.164,-354.0,-903.0,268.0,2.0,-4.0,2.0,162,110,111,136,122
2025-02-25 17:57:21.168,-348.0,-898.0,266.0,3.0,-4.0,2.0,164,112,114,139,125
2025-02-25 17:57:21.172,-354.0,-898.0,275.0,3.0,-3.0,2.0,163,111,113,137,123
2025-02-25 17:57:21.180,-360.0,-898.0,269.0,2.0,-4.0,2.0,161,108,111,136,122
2025-02-25 17:57:21.184,-346.0,-887.0,272.0,2.0,-2.0,2.0,163,111,112,138,124
2025-02-25 17:57:21.188,-351.0,-899.0,270.0,4.0,-3.0,1.0,164,111,114,139,124
2025-02-25 17:57:21.193,-346.0,-891.0,274.0,4.0,-2.0,1.0,161,109,111,137,123
2025-02-25 17:57:21.197,-342.0,-891.0,274.0,3.0,-2.0,1.0,161,109,112,137,123
2025-02-25 17:57:21.204,-342.0,-888.0,291.0,3.0,0.0,1.0,163,114,113,139,126
2025-02-25 17:57:21.210,-344.0,-890.0,279.0,4.0,0.0,0.0,163,110,111,138,124
2025-02-25 17:57:21.214,-342.0,-889.0,280.0,5.0,0.0,1.0,160,107,109,135,121
2025-02-25 17:57:21.218,-351.0,-892.0,280.0,5.0,1.0,0.0,164,111,115,145,126
2025-02-25 17:57:21.226,-343.0,-894.0,273.0,5.0,1.0,0.0,163,111,114,138,124
2025-02-25 17:57:21.230,-342.0,-894.0,279.0,6.0,2.0,1.0,161,108,110,136,122
2025-02-25 17:57:21.234,-363.0,-899.0,276.0,6.0,3.0,1.0,164,113,114,139,126
2025-02-25 17:57:21.239,-365.0,-915.0,267.0,5.0,2.0,0.0,167,112,114,139,125
2025-02-25 17:57:21.243,-368.0,-912.0,270.0,5.0,2.0,-1.0,162,108,110,136,122
2025-02-25 17:57:21.250,-366.0,-909.0,275.0,5.0,1.0,-1.0,160,106,111,135,121
2025-02-25 17:57:21.255,-374.0,-907.0,273.0,5.0,1.0,-2.0,161,111,114,137,124
2025-02-25 17:57:21.259,-373.0,-912.0,269.0,5.0,0.0,-2.0,164,111,114,138,125
2025-02-25 17:57:21.263,-370.0,-926.0,275.0,3.0,0.0,-3.0,160,108,111,135,120
2025-02-25 17:57:21.270,-367.0,-929.0,280.0,1.0,-1.0,-2.0,164,113,114,139,123
2025-02-25 17:57:21.275,-375.0,-942.0,284.0,0.0,-1.0,-2.0,163,111,113,138,125
2025-02-25 17:57:21.279,-373.0,-952.0,293.0,-1.0,-1.0,-2.0,163,109,111,137,123
2025-02-25 17:57:21.283,-369.0,-952.0,288.0,-2.0,-2.0,-1.0,160,107,110,136,121
2025-02-25 17:57:21.291,-360.0,-953.0,286.0,-3.0,-1.0,0.0,164,111,113,139,124
2025-02-25 17:57:21.295,-355.0,-952.0,287.0,-4.0,-1.0,0.0,164,110,115,139,124
2025-02-25 17:57:21.299,-350.0,-944.0,288.0,-4.0,0.0,2.0,163,110,113,138,125
2025-02-25 17:57:21.304,-343.0,-938.0,286.0,-3.0,0.0,3.0,161,108,110,136,122
2025-02-25 17:57:21.311,-343.0,-932.0,284.0,-4.0,-1.0,4.0,163,112,114,137,125
2025-02-25 17:57:21.315,-326.0,-906.0,285.0,-5.0,0.0,3.0,164,110,111,139,125
2025-02-25 17:57:21.320,-326.0,-897.0,267.0,-4.0,1.0,3.0,161,108,112,136,122
2025-02-25 17:57:21.324,-328.0,-895.0,261.0,-3.0,2.0,2.0,160,106,109,134,120
2025-02-25 17:57:21.331,-320.0,-894.0,268.0,-3.0,2.0,1.0,164,112,114,139,125
2025-02-25 17:57:21.336,-326.0,-891.0,258.0,-2.0,1.0,0.0,163,110,113,139,124
2025-02-25 17:57:21.341,-329.0,-887.0,243.0,0.0,1.0,-1.0,161,109,110,135,121
2025-02-25 17:57:21.345,-331.0,-890.0,245.0,2.0,1.0,-1.0,164,111,114,139,124
2025-02-25 17:57:21.352,-339.0,-901.0,243.0,2.0,1.0,-1.0,164,111,113,138,125
2025-02-25 17:57:21.357,-345.0,-912.0,245.0,3.0,0.0,-2.0,162,108,106,135,123
2025-02-25 17:57:21.361,-337.0,-915.0,246.0,3.0,0.0,-2.0,160,107,109,134,121
2025-02-25 17:57:21.365,-336.0,-921.0,240.0,3.0,-2.0,-3.0,164,110,113,138,124
2025-02-25 17:57:21.370,-334.0,-926.0,226.0,2.0,-3.0,-5.0,160,108,110,136,123
2025-02-25 17:57:21.377,-323.0,-928.0,237.0,1.0,-4.0,-7.0,162,110,113,137,123
2025-02-25 17:57:21.381,-330.0,-930.0,233.0,-4.0,-5.0,-7.0,161,108,111,137,122
2025-02-25 17:57:21.385,-333.0,-932.0,236.0,-9.0,-7.0,-7.0,163,110,113,138,124
2025-02-25 17:57:21.393,-328.0,-949.0,218.0,-12.0,-10.0,-6.0,163,110,112,137,124
2025-02-25 17:57:21.397,-316.0,-970.0,209.0,-15.0,-10.0,-4.0,164,112,115,138,125
2025-02-25 17:57:21.402,-334.0,-957.0,236.0,-18.0,-10.0,-3.0,160,109,111,135,122
2025-02-25 17:57:21.409,-314.0,-968.0,225.0,-19.0,-11.0,-2.0,160,106,109,135,121
2025-02-25 17:57:21.414,-324.0,-994.0,208.0,-18.0,-12.0,-1.0,164,111,113,137,124
2025-02-25 17:57:21.418,-306.0,-988.0,212.0,-16.0,-12.0,0.0,164,112,114,140,125
2025-02-25 17:57:21.422,-314.0,-972.0,227.0,-15.0,-13.0,2.0,161,110,112,137,123
2025-02-25 17:57:21.430,-306.0,-990.0,222.0,-12.0,-13.0,4.0,161,109,112,134,122
2025-02-25 17:57:21.434,-314.0,-991.0,230.0,-10.0,-13.0,5.0,162,112,110,136,121
2025-02-25 17:57:21.439,-327.0,-1008.0,229.0,-7.0,-13.0,7.0,166,112,115,139,125
2025-02-25 17:57:21.446,-315.0,-1020.0,237.0,-4.0,-12.0,10.0,164,112,114,138,125
2025-02-25 17:57:21.451,-337.0,-1011.0,240.0,-2.0,-11.0,12.0,164,111,113,137,123
2025-02-25 17:57:21.455,-317.0,-1000.0,263.0,0.0,-9.0,14.0,162,110,110,136,121
2025-02-25 17:57:21.463,-325.0,-987.0,250.0,6.0,-8.0,17.0,160,107,109,134,122
2025-02-25 17:57:21.467,-355.0,-1005.0,253.0,7.0,-8.0,17.0,163,111,114,138,125
2025-02-25 17:57:21.471,-343.0,-962.0,245.0,5.0,-6.0,18.0,163,110,114,137,125
2025-02-25 17:57:21.475,-352.0,-953.0,267.0,6.0,-6.0,19.0,166,113,115,141,127
2025-02-25 17:57:21.484,-366.0,-919.0,262.0,5.0,-7.0,18.0,161,107,110,136,121
2025-02-25 17:57:21.488,-341.0,-924.0,271.0,1.0,-7.0,18.0,164,111,113,138,126
2025-02-25 17:57:21.492,-354.0,-905.0,277.0,1.0,-7.0,17.0,163,112,114,138,125
2025-02-25 17:57:21.496,-358.0,-894.0,291.0,3.0,-8.0,17.0,165,111,114,138,126
2025-02-25 17:57:21.504,-359.0,-882.0,293.0,3.0,-9.0,16.0,161,109,110,134,122
2025-02-25 17:57:21.508,-358.0,-881.0,291.0,-1.0,-6.0,16.0,164,111,113,137,126
2025-02-25 17:57:21.512,-374.0,-870.0,286.0,-4.0,-7.0,16.0,164,111,113,138,124
2025-02-25 17:57:21.516,-367.0,-870.0,290.0,-5.0,-8.0,15.0,165,112,115,140,127
2025-02-25 17:57:21.525,-377.0,-876.0,308.0,-7.0,-8.0,14.0,161,107,110,134,122
2025-02-25 17:57:21.529,-394.0,-871.0,321.0,-7.0,-7.0,14.0,162,110,112,136,123
2025-02-25 17:57:21.533,-377.0,-875.0,306.0,-8.0,-8.0,13.0,163,110,114,138,125
2025-02-25 17:57:21.541,-383.0,-874.0,311.0,-8.0,-7.0,13.0,162,110,113,138,125
2025-02-25 17:57:21.545,-391.0,-874.0,314.0,-9.0,-6.0,13.0,161,107,110,136,122
2025-02-25 17:57:21.549,-375.0,-874.0,330.0,-11.0,-7.0,13.0,160,108,111,135,123
2025-02-25 17:57:21.554,-366.0,-875.0,349.0,0.0,-4.0,12.0,163,111,111,138,125
2025-02-25 17:57:21.561,-393.0,-880.0,322.0,1.0,-3.0,14.0,164,112,114,140,127
2025-02-25 17:57:21.566,-376.0,-880.0,319.0,2.0,-1.0,13.0,161,110,111,136,129
2025-02-25 17:57:21.570,-355.0,-883.0,339.0,5.0,0.0,13.0,162,107,111,137,124
2025-02-25 17:57:21.575,-393.0,-905.0,401.0,-1.0,-2.0,12.0,164,111,114,138,125
2025-02-25 17:57:21.582,-370.0,-875.0,292.0,1.0,-1.0,12.0,165,111,114,139,126
2025-02-25 17:57:21.586,-407.0,-895.0,340.0,-2.0,1.0,11.0,161,109,111,135,122
2025-02-25 17:57:21.591,-401.0,-879.0,299.0,-8.0,1.0,11.0,161,108,111,136,123
2025-02-25 17:57:21.595,-364.0,-872.0,304.0,-6.0,5.0,11.0,164,112,113,139,125
2025-02-25 17:57:21.603,-427.0,-891.0,284.0,-5.0,4.0,11.0,163,110,114,137,125
2025-02-25 17:57:21.607,-396.0,-871.0,311.0,-6.0,4.0,11.0,161,109,112,136,123
2025-02-25 17:57:21.611,-390.0,-873.0,290.0,-7.0,3.0,10.0,161,107,108,135,122
2025-02-25 17:57:21.615,-396.0,-863.0,309.0,-6.0,4.0,9.0,167,114,117,140,128
2025-02-25 17:57:21.623,-391.0,-878.0,289.0,-7.0,3.0,9.0,163,111,113,136,125
2025-02-25 17:57:21.627,-392.0,-862.0,286.0,-7.0,4.0,7.0,160,107,110,135,122
2025-02-25 17:57:21.631,-383.0,-864.0,287.0,-8.0,5.0,7.0,162,111,113,137,124
2025-02-25 17:57:21.636,-375.0,-860.0,276.0,-8.0,4.0,5.0,167,114,118,141,129
2025-02-25 17:57:21.643,-360.0,-865.0,289.0,-8.0,5.0,3.0,162,109,111,135,123
2025-02-25 17:57:21.647,-357.0,-898.0,272.0,-12.0,5.0,2.0,161,109,111,135,123
2025-02-25 17:57:21.651,-349.0,-898.0,273.0,-11.0,4.0,1.0,163,110,113,137,124
2025-02-25 17:57:21.656,-346.0,-914.0,282.0,-10.0,5.0,0.0,166,113,117,141,127
2025-02-25 17:57:21.663,-348.0,-944.0,268.0,-10.0,5.0,-1.0,161,109,111,136,123
2025-02-25 17:57:21.668,-343.0,-963.0,267.0,-8.0,5.0,-1.0,162,108,111,135,123
2025-02-25 17:57:21.672,-333.0,-976.0,275.0,-8.0,6.0,0.0,164,110,114,138,126
2025-02-25 17:57:21.676,-340.0,-986.0,255.0,-7.0,6.0,2.0,165,112,115,140,126
2025-02-25 17:57:21.684,-344.0,-996.0,265.0,-4.0,7.0,4.0,161,108,111,135,123
2025-02-25 17:57:21.688,-356.0,-998.0,257.0,-5.0,7.0,6.0,160,107,111,135,121
2025-02-25 17:57:21.692,-355.0,-982.0,253.0,1.0,6.0,8.0,165,112,114,139,126
2025-02-25 17:57:21.697,-377.0,-976.0,241.0,1.0,6.0,10.0,164,112,114,138,126
2025-02-25 17:57:21.704,-380.0,-964.0,235.0,-2.0,6.0,11.0,160,107,111,134,122
2025-02-25 17:57:21.709,-376.0,-962.0,214.0,-2.0,8.0,11.0,162,111,115,138,124
2025-02-25 17:57:21.713,-412.0,-977.0,168.0,-4.0,2.0,11.0,164,112,114,138,125
2025-02-25 17:57:21.717,-385.0,-964.0,229.0,-11.0,3.0,8.0,162,110,112,136,124
2025-02-25 17:57:21.725,-369.0,-984.0,202.0,-16.0,0.0,5.0,160,108,111,135,122
2025-02-25 17:57:21.729,-370.0,-994.0,220.0,-16.0,0.0,1.0,163,112,114,137,126
2025-02-25 17:57:21.733,-371.0,-1016.0,204.0,-20.0,-1.0,-3.0,164,112,114,137,125
2025-02-25 17:57:21.738,-359.0,-1041.0,208.0,-22.0,-3.0,-6.0,164,111,116,137,126
2025-02-25 17:57:21.745,-363.0,-1051.0,239.0,-26.0,-2.0,-8.0,161,109,111,134,123
2025-02-25 17:57:21.750,-361.0,-1090.0,219.0,-26.0,-3.0,-8.0,161,111,112,134,123
2025-02-25 17:57:21.754,-350.0,-1093.0,233.0,-28.0,-2.0,-7.0,163,111,113,137,126
2025-02-25 17:57:21.762,-378.0,-1111.0,213.0,-35.0,-6.0,-5.0,164,111,114,136,125
2025-02-25 17:57:21.767,-375.0,-1133.0,230.0,-37.0,-5.0,-2.0,163,111,114,136,126
2025-02-25 17:57:21.770,-365.0,-1142.0,232.0,-43.0,-4.0,0.0,161,110,113,137,126
2025-02-25 17:57:21.779,-373.0,-1137.0,209.0,-50.0,-4.0,3.0,163,111,113,136,126
2025-02-25 17:57:21.783,-359.0,-1148.0,192.0,-47.0,-5.0,4.0,160,108,110,133,122
2025-02-25 17:57:21.787,-363.0,-1153.0,204.0,-39.0,-5.0,7.0,164,111,114,136,125
2025-02-25 17:57:21.795,-349.0,-1147.0,218.0,-37.0,-3.0,11.0,164,112,114,136,126
2025-02-25 17:57:21.799,-353.0,-1145.0,185.0,-33.0,-3.0,15.0,164,112,115,136,126
2025-02-25 17:57:21.804,-371.0,-1155.0,209.0,-30.0,-2.0,19.0,161,107,112,133,122
2025-02-25 17:57:21.811,-361.0,-1129.0,203.0,-23.0,-3.0,22.0,160,110,107,133,122
2025-02-25 17:57:21.816,-358.0,-1111.0,232.0,-24.0,-2.0,24.0,163,111,112,133,124
2025-02-25 17:57:21.820,-358.0,-1082.0,229.0,-17.0,-2.0,27.0,164,112,115,135,126
2025-02-25 17:57:21.824,-368.0,-1057.0,240.0,-14.0,0.0,30.0,165,111,115,135,126
2025-02-25 17:57:21.832,-366.0,-1013.0,197.0,-10.0,0.0,33.0,163,111,114,135,124
2025-02-25 17:57:21.836,-353.0,-987.0,227.0,-11.0,-1.0,34.0,161,109,111,131,123
2025-02-25 17:57:21.840,-367.0,-992.0,205.0,-10.0,2.0,35.0,160,108,111,131,121
2025-02-25 17:57:21.848,-372.0,-982.0,205.0,-8.0,1.0,36.0,164,111,114,134,126
2025-02-25 17:57:21.852,-355.0,-927.0,274.0,-6.0,4.0,36.0,162,111,114,133,124
2025-02-25 17:57:21.856,-376.0,-930.0,219.0,1.0,5.0,35.0,163,111,115,135,126
2025-02-25 17:57:21.860,-382.0,-929.0,236.0,7.0,7.0,35.0,160,109,111,131,121
2025-02-25 17:57:21.868,-386.0,-906.0,234.0,8.0,11.0,35.0,164,112,115,134,125
2025-02-25 17:57:21.872,-383.0,-901.0,231.0,7.0,13.0,34.0,163,110,114,134,124
2025-02-25 17:57:21.876,-383.0,-879.0,221.0,3.0,13.0,33.0,163,111,113,133,125
2025-02-25 17:57:21.882,-404.0,-873.0,248.0,5.0,13.0,32.0,164,112,114,133,124
2025-02-25 17:57:21.888,-406.0,-841.0,220.0,4.0,13.0,29.0,163,112,116,135,126
2025-02-25 17:57:21.893,-420.0,-827.0,198.0,8.0,12.0,28.0,163,111,115,133,125
2025-02-25 17:57:21.898,-429.0,-811.0,219.0,9.0,12.0,26.0,162,109,113,132,124
2025-02-25 17:57:21.902,-436.0,-797.0,200.0,11.0,11.0,26.0,164,112,114,133,125
2025-02-25 17:57:21.910,-439.0,-784.0,210.0,10.0,10.0,25.0,164,112,115,134,126
2025-02-25 17:57:21.914,-447.0,-760.0,211.0,4.0,9.0,24.0,163,111,114,132,124
2025-02-25 17:57:21.917,-438.0,-737.0,210.0,2.0,8.0,23.0,161,110,112,131,123
2025-02-25 17:57:21.923,-445.0,-732.0,190.0,4.0,3.0,22.0,163,113,116,134,126
2025-02-25 17:57:21.930,-440.0,-713.0,209.0,3.0,0.0,21.0,164,111,116,133,126
2025-02-25 17:57:21.935,-435.0,-701.0,219.0,4.0,-1.0,20.0,161,110,113,131,124
2025-02-25 17:57:21.939,-440.0,-689.0,220.0,2.0,-1.0,20.0,162,109,114,131,124
2025-02-25 17:57:21.943,-434.0,-694.0,208.0,-2.0,-2.0,19.0,165,112,116,127,126
2025-02-25 17:57:21.951,-432.0,-697.0,231.0,-3.0,-4.0,18.0,164,112,116,134,126
2025-02-25 17:57:21.956,-453.0,-681.0,219.0,-6.0,-4.0,17.0,162,111,114,131,124
2025-02-25 17:57:21.960,-481.0,-675.0,153.0,-3.0,-7.0,16.0,160,109,113,130,123
2025-02-25 17:57:21.964,-433.0,-684.0,178.0,-13.0,-2.0,16.0,163,111,116,134,124
2025-02-25 17:57:21.971,-444.0,-673.0,228.0,-9.0,-3.0,16.0,164,112,115,132,126
2025-02-25 17:57:21.976,-448.0,-694.0,198.0,-10.0,-2.0,14.0,163,112,115,133,125
2025-02-25 17:57:21.979,-448.0,-683.0,231.0,-10.0,-1.0,12.0,162,111,113,131,124
2025-02-25 17:57:21.987,-459.0,-696.0,211.0,-14.0,4.0,10.0,161,109,113,130,123
2025-02-25 17:57:21.991,-457.0,-697.0,181.0,-9.0,2.0,10.0,164,113,116,133,126
2025-02-25 17:57:21.996,-484.0,-701.0,211.0,-10.0,3.0,8.0,165,115,119,136,129
2025-02-25 17:57:22.000,-487.0,-692.0,203.0,-9.0,4.0,5.0,162,111,114,135,125
2025-02-25 17:57:22.007,-481.0,-706.0,169.0,-7.0,5.0,4.0,159,110,113,129,124
2025-02-25 17:57:22.012,-502.0,-689.0,175.0,-5.0,5.0,4.0,164,112,116,133,128
2025-02-25 17:57:22.016,-507.0,-694.0,172.0,-4.0,5.0,2.0,165,114,118,135,128
2025-02-25 17:57:22.020,-519.0,-681.0,199.0,-5.0,6.0,1.0,159,109,112,130,125
2025-02-25 17:57:22.028,-504.0,-690.0,179.0,2.0,6.0,1.0,164,113,116,131,125
2025-02-25 17:57:22.033,-521.0,-702.0,203.0,3.0,7.0,-1.0,163,114,116,133,127
2025-02-25 17:57:22.037,-507.0,-694.0,185.0,4.0,7.0,-2.0,164,114,117,134,127
2025-02-25 17:57:22.041,-505.0,-703.0,190.0,10.0,7.0,-3.0,162,112,115,131,125
2025-02-25 17:57:22.049,-517.0,-706.0,186.0,14.0,6.0,-4.0,164,112,116,132,127
2025-02-25 17:57:22.053,-510.0,-712.0,195.0,15.0,7.0,-6.0,163,113,116,133,127
2025-02-25 17:57:22.057,-513.0,-708.0,196.0,17.0,7.0,-7.0,163,112,117,133,126
2025-02-25 17:57:22.061,-511.0,-720.0,194.0,17.0,8.0,-8.0,161,111,113,130,124
2025-02-25 17:57:22.069,-513.0,-731.0,190.0,16.0,7.0,-10.0,164,112,116,133,127
2025-02-25 17:57:22.073,-514.0,-739.0,208.0,16.0,8.0,-12.0,164,113,116,132,127
2025-02-25 17:57:22.078,-514.0,-757.0,223.0,15.0,12.0,-15.0,163,112,115,133,126
2025-02-25 17:57:22.082,-516.0,-788.0,183.0,17.0,10.0,-16.0,160,110,114,130,124
2025-02-25 17:57:22.090,-525.0,-786.0,196.0,15.0,10.0,-16.0,163,112,116,132,127
2025-02-25 17:57:22.094,-534.0,-791.0,208.0,13.0,11.0,-17.0,164,115,116,132,128
2025-02-25 17:57:22.098,-539.0,-816.0,188.0,10.0,10.0,-18.0,163,115,117,134,128
2025-02-25 17:57:22.106,-507.0,-827.0,203.0,7.0,10.0,-19.0,161,115,115,131,124
2025-02-25 17:57:22.110,-509.0,-847.0,202.0,6.0,10.0,-19.0,161,111,114,132,124
2025-02-25 17:57:22.114,-500.0,-855.0,193.0,6.0,11.0,-19.0,166,115,118,133,128
2025-02-25 17:57:22.119,-504.0,-884.0,205.0,6.0,10.0,-19.0,164,115,118,134,129
2025-02-25 17:57:22.126,-487.0,-915.0,208.0,6.0,11.0,-20.0,164,113,118,135,129
2025-02-25 17:57:22.131,-482.0,-965.0,214.0,5.0,11.0,-20.0,161,112,116,133,127
2025-02-25 17:57:22.135,-463.0,-976.0,206.0,1.0,10.0,-20.0,159,110,113,130,123
2025-02-25 17:57:22.143,-445.0,-992.0,209.0,-3.0,9.0,-20.0,162,114,117,133,127
2025-02-25 17:57:22.148,-443.0,-1040.0,218.0,-5.0,10.0,-20.0,161,113,117,133,127
2025-02-25 17:57:22.151,-440.0,-1070.0,211.0,-9.0,11.0,-20.0,161,112,115,131,124
2025-02-25 17:57:22.159,-427.0,-1099.0,244.0,-10.0,13.0,-19.0,162,114,117,133,128
2025-02-25 17:57:22.163,-426.0,-1126.0,236.0,-11.0,14.0,-19.0,160,112,116,132,126
2025-02-25 17:57:22.168,-418.0,-1140.0,215.0,-12.0,13.0,-17.0,162,115,117,132,128
2025-02-25 17:57:22.176,-424.0,-1160.0,200.0,-16.0,11.0,-14.0,161,115,118,133,128
2025-02-25 17:57:22.180,-432.0,-1174.0,184.0,-21.0,9.0,-11.0,163,116,118,134,129
2025-02-25 17:57:22.184,-425.0,-1180.0,177.0,-24.0,8.0,-9.0,160,113,115,130,126
2025-02-25 17:57:22.188,-424.0,-1219.0,173.0,-27.0,8.0,-6.0,159,112,114,129,125
2025-02-25 17:57:22.196,-426.0,-1232.0,173.0,-29.0,5.0,-4.0,158,112,114,129,125
2025-02-25 17:57:22.200,-415.0,-1252.0,166.0,-32.0,3.0,-3.0,161,114,117,132,128
2025-02-25 17:57:22.204,-419.0,-1256.0,151.0,-33.0,1.0,1.0,161,114,117,132,127
2025-02-25 17:57:22.213,-423.0,-1243.0,110.0,-35.0,0.0,4.0,159,114,115,130,127
2025-02-25 17:57:22.216,-407.0,-1263.0,133.0,-39.0,1.0,9.0,158,112,115,130,124
2025-02-25 17:57:22.221,-412.0,-1262.0,125.0,-37.0,-1.0,12.0,158,110,114,129,125
2025-02-25 17:57:22.228,-408.0,-1261.0,150.0,-38.0,-2.0,18.0,161,114,116,132,128
2025-02-25 17:57:22.232,-416.0,-1238.0,149.0,-38.0,0.0,23.0,162,115,118,133,129
2025-02-25 17:57:22.238,-421.0,-1222.0,120.0,-37.0,-1.0,29.0,165,119,123,137,133
2025-02-25 17:57:22.242,-429.0,-1198.0,124.0,-37.0,-1.0,34.0,164,118,121,135,132
2025-02-25 17:57:22.250,-430.0,-1176.0,126.0,-38.0,-2.0,38.0,162,116,120,132,131
2025-02-25 17:57:22.254,-440.0,-1162.0,128.0,-38.0,-4.0,39.0,163,116,120,134,124
2025-02-25 17:57:22.258,-450.0,-1155.0,122.0,-38.0,-6.0,44.0,167,122,124,139,135
2025-02-25 17:57:22.266,-456.0,-1131.0,127.0,-36.0,-7.0,46.0,167,121,125,136,135
2025-02-25 17:57:22.270,-473.0,-1110.0,127.0,-34.0,-7.0,49.0,165,120,123,136,133
2025-02-25 17:57:22.274,-479.0,-1101.0,106.0,-29.0,-9.0,51.0,164,117,122,135,133
2025-02-25 17:57:22.282,-485.0,-1075.0,125.0,-29.0,-10.0,53.0,164,119,120,133,131
2025-02-25 17:57:22.286,-502.0,-1083.0,89.0,-25.0,-13.0,55.0,162,117,120,133,131
2025-02-25 17:57:22.290,-467.0,-1051.0,116.0,-23.0,-9.0,55.0,167,122,125,138,135
2025-02-25 17:57:22.298,-500.0,-1029.0,107.0,-17.0,-10.0,58.0,169,125,126,139,137
2025-02-25 17:57:22.302,-494.0,-1043.0,144.0,-15.0,-10.0,59.0,166,120,124,137,136
2025-02-25 17:57:22.307,-520.0,-1013.0,101.0,-15.0,-11.0,61.0,166,120,124,137,133
2025-02-25 17:57:22.314,-521.0,-986.0,150.0,-11.0,-10.0,63.0,164,118,121,134,132
2025-02-25 17:57:22.319,-506.0,-975.0,117.0,-2.0,-13.0,64.0,163,120,123,136,132
2025-02-25 17:57:22.323,-504.0,-950.0,156.0,-3.0,-8.0,65.0,166,123,126,138,134
2025-02-25 17:57:22.332,-501.0,-930.0,144.0,3.0,-8.0,67.0,166,119,120,133,135
2025-02-25 17:57:22.335,-493.0,-910.0,163.0,0.0,-4.0,68.0,165,120,124,137,134
2025-02-25 17:57:22.340,-475.0,-872.0,186.0,-1.0,0.0,70.0,164,119,121,133,131
2025-02-25 17:57:22.344,-500.0,-883.0,177.0,-2.0,4.0,70.0,166,120,124,133,134
2025-02-25 17:57:22.351,-502.0,-833.0,196.0,-8.0,9.0,71.0,164,119,121,134,132
2025-02-25 17:57:22.356,-514.0,-847.0,142.0,-6.0,6.0,72.0,162,115,119,131,130
2025-02-25 17:57:22.360,-519.0,-843.0,173.0,-7.0,6.0,71.0,161,115,119,131,128
2025-02-25 17:57:22.365,-558.0,-811.0,189.0,-9.0,11.0,71.0,162,117,120,133,132
2025-02-25 17:57:22.372,-558.0,-802.0,146.0,-5.0,12.0,70.0,162,116,120,132,130
2025-02-25 17:57:22.377,-549.0,-775.0,211.0,-4.0,15.0,68.0,163,116,119,131,129
2025-02-25 17:57:22.381,-576.0,-763.0,138.0,-5.0,12.0,67.0,159,114,118,129,127
2025-02-25 17:57:22.385,-592.0,-777.0,142.0,-9.0,10.0,67.0,159,114,117,128,127
2025-02-25 17:57:22.392,-575.0,-770.0,140.0,-12.0,8.0,65.0,162,117,119,132,128
2025-02-25 17:57:22.397,-578.0,-753.0,144.0,-17.0,6.0,62.0,164,118,122,133,131
2025-02-25 17:57:22.401,-572.0,-757.0,164.0,-18.0,6.0,60.0,159,114,116,129,126
2025-02-25 17:57:22.409,-569.0,-750.0,137.0,-19.0,7.0,59.0,159,114,115,131,128
2025-02-25 17:57:22.413,-583.0,-746.0,148.0,-16.0,5.0,58.0,161,116,119,130,129
2025-02-25 17:57:22.417,-597.0,-754.0,144.0,-24.0,7.0,57.0,163,117,121,132,129
2025-02-25 17:57:22.422,-572.0,-739.0,123.0,-23.0,6.0,55.0,161,117,119,131,127
2025-02-25 17:57:22.429,-565.0,-741.0,170.0,-27.0,7.0,55.0,158,113,115,127,124
2025-02-25 17:57:22.434,-576.0,-747.0,137.0,-29.0,9.0,55.0,161,115,115,130,126
2025-02-25 17:57:22.438,-583.0,-748.0,143.0,-27.0,9.0,55.0,162,116,118,131,127
2025-02-25 17:57:22.442,-587.0,-712.0,138.0,-29.0,12.0,55.0,159,114,116,129,125
2025-02-25 17:57:22.450,-598.0,-713.0,133.0,-32.0,13.0,55.0,158,113,115,126,124
2025-02-25 17:57:22.455,-584.0,-704.0,108.0,-29.0,14.0,55.0,159,111,115,127,123
2025-02-25 17:57:22.458,-619.0,-705.0,94.0,-37.0,14.0,55.0,162,116,118,130,126
2025-02-25 17:57:22.467,-621.0,-686.0,117.0,-39.0,13.0,55.0,160,114,117,130,126
2025-02-25 17:57:22.471,-629.0,-692.0,112.0,-37.0,13.0,56.0,160,114,116,127,124
2025-02-25 17:57:22.475,-631.0,-670.0,96.0,-33.0,13.0,56.0,158,113,115,127,121
2025-02-25 17:57:22.480,-619.0,-663.0,87.0,-29.0,14.0,56.0,158,113,115,127,122
2025-02-25 17:57:22.487,-639.0,-672.0,85.0,-25.0,12.0,57.0,160,115,118,129,124
2025-02-25 17:57:22.492,-634.0,-650.0,98.0,-24.0,12.0,58.0,160,115,117,129,124
2025-02-25 17:57:22.496,-656.0,-643.0,100.0,-22.0,13.0,58.0,161,116,118,129,125
2025-02-25 17:57:22.504,-650.0,-641.0,123.0,-20.0,15.0,58.0,158,111,114,126,121
2025-02-25 17:57:22.508,-624.0,-634.0,139.0,-15.0,19.0,59.0,157,111,112,125,119
2025-02-25 17:57:22.511,-618.0,-608.0,131.0,-8.0,23.0,59.0,160,113,115,128,121
2025-02-25 17:57:22.517,-630.0,-598.0,104.0,-6.0,28.0,59.0,161,114,119,130,123
2025-02-25 17:57:22.524,-618.0,-581.0,98.0,2.0,29.0,59.0,156,110,113,125,119
2025-02-25 17:57:22.528,-629.0,-588.0,110.0,7.0,35.0,60.0,157,110,114,123,118
2025-02-25 17:57:22.532,-624.0,-560.0,84.0,15.0,38.0,60.0,160,112,116,128,120
2025-02-25 17:57:22.537,-642.0,-565.0,64.0,18.0,42.0,60.0,159,111,116,126,122
2025-02-25 17:57:22.544,-649.0,-548.0,68.0,25.0,42.0,62.0,158,109,114,123,117
2025-02-25 17:57:22.548,-671.0,-526.0,77.0,25.0,46.0,62.0,156,107,111,123,116
2025-02-25 17:57:22.553,-670.0,-518.0,61.0,30.0,48.0,64.0,159,109,114,125,118
2025-02-25 17:57:22.561,-702.0,-517.0,50.0,30.0,50.0,64.0,158,109,113,125,119
2025-02-25 17:57:22.565,-707.0,-509.0,67.0,33.0,50.0,64.0,157,105,108,123,116
2025-02-25 17:57:22.570,-733.0,-512.0,63.0,38.0,50.0,65.0,156,104,110,121,113
2025-02-25 17:57:22.574,-737.0,-500.0,70.0,42.0,50.0,64.0,159,106,113,126,116
2025-02-25 17:57:22.581,-709.0,-454.0,69.0,42.0,49.0,62.0,159,104,111,124,115
2025-02-25 17:57:22.585,-707.0,-438.0,44.0,43.0,48.0,60.0,156,101,106,121,112
2025-02-25 17:57:22.589,-710.0,-424.0,41.0,41.0,48.0,59.0,156,100,107,119,110
2025-02-25 17:57:22.594,-706.0,-400.0,48.0,44.0,48.0,55.0,159,103,112,123,112
2025-02-25 17:57:22.601,-710.0,-383.0,29.0,43.0,46.0,50.0,159,100,108,120,111
2025-02-25 17:57:22.606,-705.0,-341.0,31.0,41.0,46.0,44.0,156,97,106,118,107
2025-02-25 17:57:22.610,-707.0,-329.0,19.0,44.0,46.0,41.0,159,100,108,120,109
2025-02-25 17:57:22.614,-760.0,-343.0,-4.0,42.0,45.0,36.0,159,98,108,120,109
2025-02-25 17:57:22.622,-764.0,-313.0,-12.0,41.0,42.0,31.0,159,96,107,120,109
2025-02-25 17:57:22.626,-770.0,-291.0,-28.0,36.0,40.0,26.0,156,91,103,117,104
2025-02-25 17:57:22.630,-748.0,-318.0,5.0,32.0,37.0,25.0,159,93,105,120,105
2025-02-25 17:57:22.635,-748.0,-314.0,-4.0,24.0,33.0,20.0,158,92,104,118,104
2025-02-25 17:57:22.639,-741.0,-313.0,-26.0,24.0,31.0,16.0,156,90,101,116,102
2025-02-25 17:57:22.647,-757.0,-314.0,-23.0,17.0,28.0,14.0,156,88,99,114,100
2025-02-25 17:57:22.651,-772.0,-338.0,-14.0,16.0,28.0,11.0,159,88,101,117,102
2025-02-25 17:57:22.655,-765.0,-328.0,-67.0,12.0,20.0,5.0,160,89,102,117,103
2025-02-25 17:57:22.659,-760.0,-289.0,-22.0,10.0,18.0,-1.0,156,84,97,114,98
2025-02-25 17:57:22.667,-772.0,-302.0,-29.0,6.0,17.0,-3.0,158,84,98,113,98
2025-02-25 17:57:22.671,-799.0,-334.0,-20.0,3.0,16.0,-7.0,158,83,97,113,98
2025-02-25 17:57:22.675,-787.0,-283.0,-26.0,-3.0,15.0,-10.0,156,81,94,110,95
2025-02-25 17:57:22.680,-770.0,-261.0,-59.0,-2.0,13.0,-12.0,159,81,95,111,94
2025-02-25 17:57:22.687,-785.0,-213.0,0.0,-10.0,15.0,-17.0,158,80,93,111,93
2025-02-25 17:57:22.692,-766.0,-213.0,-24.0,-10.0,16.0,-17.0,157,76,91,106,89
2025-02-25 17:57:22.696,-781.0,-167.0,-53.0,-15.0,17.0,-18.0,159,78,92,108,90
2025-02-25 17:57:22.700,-827.0,-137.0,-10.0,-21.0,22.0,-18.0,159,76,91,105,87
2025-02-25 17:57:22.704,-843.0,28.0,73.0,-35.0,31.0,-15.0,159,75,89,102,86
2025-02-25 17:57:22.712,-831.0,140.0,-6.0,-41.0,34.0,-11.0,156,73,87,99,82
2025-02-25 17:57:22.716,-839.0,185.0,-12.0,-65.0,43.0,-10.0,161,78,90,100,85
2025-02-25 17:57:22.720,-860.0,290.0,19.0,-87.0,55.0,-10.0,159,73,86,97,81
2025-02-25 17:57:22.725,-835.0,456.0,19.0,-93.0,60.0,-11.0,153,69,80,91,75
2025-02-25 17:57:22.732,-763.0,542.0,-44.0,-116.0,78.0,-17.0,154,70,81,92,74
2025-02-25 17:57:22.736,-797.0,648.0,-38.0,-136.0,100.0,-34.0,153,69,80,92,73
2025-02-25 17:57:22.741,-769.0,758.0,-196.0,-138.0,134.0,-47.0,150,68,78,91,72
2025-02-25 17:57:22.746,-700.0,903.0,-485.0,-126.0,140.0,-69.0,150,67,78,89,70
2025-02-25 17:57:22.753,-749.0,943.0,-583.0,-92.0,157.0,-81.0,150,70,79,93,72
2025-02-25 17:57:22.757,-853.0,1079.0,-789.0,-26.0,157.0,-111.0,151,72,81,93,75
2025-02-25 17:57:22.762,-797.0,1554.0,-1022.0,11.0,141.0,-153.0,143,68,77,91,71
2025-02-25 17:57:22.767,-828.0,1819.0,-1151.0,72.0,135.0,-194.0,142,67,78,92,71
2025-02-25 17:57:22.774,-1065.0,2224.0,-1307.0,97.0,105.0,-217.0,139,66,76,92,71
2025-02-25 17:57:22.778,-1123.0,2184.0,-1473.0,143.0,44.0,-258.0,140,71,79,96,75
2025-02-25 17:57:22.783,-1216.0,2272.0,-1571.0,162.0,-18.0,-313.0,137,68,78,93,73
2025-02-25 17:57:22.791,-1172.0,2260.0,-1396.0,163.0,-68.0,-370.0,138,70,78,94,73
2025-02-25 17:57:22.795,-1000.0,2082.0,-1035.0,168.0,-109.0,-434.0,137,67,77,93,74
2025-02-25 17:57:22.799,-746.0,1925.0,-837.0,181.0,-156.0,-506.0,135,65,75,92,72
2025-02-25 17:57:22.807,-522.0,1768.0,-608.0,186.0,-178.0,-572.0,134,68,74,90,71
2025-02-25 17:57:22.811,-98.0,1652.0,-334.0,187.0,-211.0,-604.0,132,67,73,89,71
2025-02-25 17:57:22.816,324.0,1390.0,-23.0,176.0,-246.0,-665.0,136,70,77,92,74
2025-02-25 17:57:22.823,974.0,907.0,184.0,151.0,-263.0,-708.0,137,69,75,92,75
2025-02-25 17:57:22.828,1855.0,139.0,676.0,135.0,-264.0,-721.0,134,68,74,90,73
2025-02-25 17:57:22.832,2290.0,-1041.0,1121.0,111.0,-253.0,-686.0,132,68,73,90,72
2025-02-25 17:57:22.839,2754.0,-1704.0,1363.0,90.0,-214.0,-652.0,132,67,74,94,73
2025-02-25 17:57:22.844,2965.0,-3005.0,1605.0,86.0,-168.0,-545.0,135,71,77,91,75
2025-02-25 17:57:22.848,3293.0,-4276.0,2005.0,109.0,-109.0,-397.0,133,69,77,91,74
2025-02-25 17:57:22.856,3492.0,-5409.0,2238.0,125.0,-41.0,-241.0,132,68,78,91,74
2025-02-25 17:57:22.860,3402.0,-6194.0,2407.0,184.0,-10.0,-93.0,131,68,79,88,74
2025-02-25 17:57:22.865,3331.0,-6451.0,2354.0,268.0,61.0,18.0,129,65,80,85,71
2025-02-25 17:57:22.869,3010.0,-6342.0,2084.0,321.0,110.0,63.0,131,68,83,84,71
2025-02-25 17:57:22.876,2224.0,-5661.0,1910.0,326.0,124.0,133.0,132,67,84,85,70
2025-02-25 17:57:22.881,1532.0,-4677.0,1581.0,294.0,119.0,163.0,129,66,86,80,68
2025-02-25 17:57:22.885,1076.0,-3467.0,1548.0,202.0,109.0,193.0,125,64,83,78,66
2025-02-25 17:57:22.888,909.0,-2441.0,1489.0,88.0,96.0,183.0,128,66,83,81,67
2025-02-25 17:57:22.897,449.0,-2214.0,1273.0,-38.0,66.0,155.0,149,83,98,97,83
2025-02-25 17:57:22.901,278.0,-1600.0,945.0,-89.0,27.0,123.0,129,65,78,81,67
2025-02-25 17:57:22.905,173.0,-1874.0,691.0,-176.0,1.0,88.0,138,78,91,96,80
2025-02-25 17:57:22.909,191.0,-2013.0,413.0,-239.0,-21.0,86.0,133,72,84,90,73
2025-02-25 17:57:22.917,135.0,-2183.0,258.0,-252.0,-62.0,62.0,132,72,84,91,73
2025-02-25 17:57:22.921,-50.0,-2372.0,61.0,-245.0,-59.0,70.0,140,80,95,100,82
2025-02-25 17:57:22.926,278.0,-2570.0,42.0,-259.0,-49.0,84.0,137,75,89,95,77
2025-02-25 17:57:22.930,34.0,-2639.0,54.0,-242.0,-61.0,98.0,137,77,91,98,78
2025-02-25 17:57:22.938,102.0,-2784.0,-100.0,-229.0,-73.0,125.0,131,72,86,93,73
2025-02-25 17:57:22.942,77.0,-2623.0,-29.0,-190.0,-76.0,153.0,129,68,82,88,70
2025-02-25 17:57:22.946,124.0,-2352.0,15.0,-172.0,-73.0,174.0,132,73,87,92,74
2025-02-25 17:57:22.954,170.0,-2217.0,134.0,-150.0,-80.0,182.0,143,85,97,103,85
2025-02-25 17:57:22.958,121.0,-2027.0,163.0,-135.0,-93.0,201.0,142,84,96,103,85
2025-02-25 17:57:22.963,139.0,-1717.0,226.0,-130.0,-104.0,214.0,142,83,95,101,85
2025-02-25 17:57:22.967,119.0,-1525.0,323.0,-122.0,-112.0,226.0,134,75,87,94,76
2025-02-25 17:57:22.975,168.0,-1399.0,360.0,-127.0,-106.0,236.0,131,72,85,89,73
2025-02-25 17:57:22.979,182.0,-1211.0,424.0,-126.0,-113.0,238.0,133,75,86,90,75
2025-02-25 17:57:22.983,124.0,-1165.0,380.0,-123.0,-109.0,241.0,133,73,86,91,75
2025-02-25 17:57:22.991,173.0,-1036.0,454.0,-122.0,-115.0,246.0,132,72,86,90,74
2025-02-25 17:57:22.995,182.0,-889.0,403.0,-118.0,-104.0,244.0,136,78,90,96,79
2025-02-25 17:57:22.999,133.0,-784.0,454.0,-107.0,-107.0,243.0,135,74,88,92,77
2025-02-25 17:57:23.004,155.0,-739.0,430.0,-97.0,-95.0,240.0,136,78,90,93,79
2025-02-25 17:57:23.011,42.0,-670.0,409.0,-91.0,-90.0,239.0,136,77,90,94,78
2025-02-25 17:57:23.016,55.0,-558.0,362.0,-90.0,-80.0,242.0,135,75,87,88,75
2025-02-25 17:57:23.020,-23.0,-559.0,387.0,-79.0,-72.0,241.0,134,74,88,92,75
2025-02-25 17:57:23.024,-47.0,-505.0,353.0,-75.0,-53.0,246.0,135,78,88,94,76
2025-02-25 17:57:23.032,-74.0,-495.0,357.0,-68.0,-43.0,245.0,133,73,87,93,76
2025-02-25 17:57:23.036,-88.0,-397.0,332.0,-51.0,-42.0,241.0,132,72,85,91,75
2025-02-25 17:57:23.041,-177.0,-330.0,333.0,-41.0,-26.0,239.0,133,74,87,93,76
2025-02-25 17:57:23.045,-216.0,-248.0,287.0,-36.0,-8.0,239.0,134,76,87,94,79
2025-02-25 17:57:23.049,-250.0,-251.0,237.0,-21.0,-8.0,238.0,134,75,84,92,76
2025-02-25 17:57:23.057,-309.0,-179.0,165.0,-10.0,-4.0,237.0,138,79,88,97,81
2025-02-25 17:57:23.060,-369.0,-146.0,156.0,-2.0,5.0,235.0,144,85,94,104,85
2025-02-25 17:57:23.064,-396.0,23.0,93.0,-3.0,23.0,234.0,142,84,93,103,87
2025-02-25 17:57:23.069,-398.0,119.0,79.0,-4.0,27.0,233.0,140,80,90,97,82
2025-02-25 17:57:23.073,-461.0,201.0,57.0,-8.0,30.0,229.0,141,82,94,100,85
2025-02-25 17:57:23.081,-453.0,331.0,1.0,-14.0,46.0,222.0,141,80,91,99,83
2025-02-25 17:57:23.085,-525.0,445.0,-23.0,-25.0,49.0,214.0,140,81,89,97,80
2025-02-25 17:57:23.089,-557.0,471.0,-35.0,-31.0,44.0,207.0,146,84,95,103,87
2025-02-25 17:57:23.093,-625.0,571.0,-74.0,-36.0,43.0,196.0,149,86,98,104,88
2025-02-25 17:57:23.101,-673.0,682.0,-135.0,-45.0,43.0,182.0,146,86,96,103,89
2025-02-25 17:57:23.106,-736.0,702.0,-180.0,-53.0,37.0,175.0,150,90,100,102,92
2025-02-25 17:57:23.110,-782.0,752.0,-189.0,-54.0,26.0,159.0,151,90,102,109,92
2025-02-25 17:57:23.114,-809.0,804.0,-214.0,-55.0,18.0,145.0,144,81,94,100,85
2025-02-25 17:57:23.122,-816.0,808.0,-227.0,-54.0,13.0,138.0,143,79,91,98,83
2025-02-25 17:57:23.127,-823.0,840.0,-227.0,-48.0,2.0,123.0,143,80,93,99,84
2025-02-25 17:57:23.131,-829.0,854.0,-240.0,-42.0,-4.0,110.0,140,78,88,96,81
2025-02-25 17:57:23.135,-840.0,878.0,-255.0,-28.0,-10.0,97.0,142,79,89,96,81
2025-02-25 17:57:23.143,-887.0,892.0,-245.0,-9.0,-16.0,89.0,146,83,94,100,86
2025-02-25 17:57:23.147,-865.0,940.0,-237.0,8.0,-19.0,79.0,157,94,101,111,97
2025-02-25 17:57:23.151,-846.0,1007.0,-220.0,17.0,-20.0,68.0,160,98,108,115,101
2025-02-25 17:57:23.155,-872.0,1055.0,-210.0,39.0,-21.0,54.0,150,87,98,105,90
2025-02-25 17:57:23.163,-855.0,1145.0,-174.0,59.0,-20.0,47.0,152,89,98,106,91
2025-02-25 17:57:23.167,-852.0,1283.0,-207.0,77.0,-15.0,29.0,151,88,98,106,90
2025-02-25 17:57:23.171,-870.0,1379.0,-151.0,86.0,-8.0,5.0,151,87,98,108,91
2025-02-25 17:57:23.175,-855.0,1509.0,-157.0,104.0,-2.0,-8.0,147,85,96,103,88
2025-02-25 17:57:23.184,-882.0,1600.0,-166.0,126.0,12.0,-41.0,152,89,99,107,91
2025-02-25 17:57:23.187,-873.0,1686.0,-153.0,144.0,21.0,-79.0,150,87,97,104,90
2025-02-25 17:57:23.191,-869.0,1736.0,-176.0,152.0,31.0,-120.0,151,88,98,105,91
2025-02-25 17:57:23.199,-864.0,1751.0,-225.0,174.0,37.0,-160.0,161,98,108,116,102
2025-02-25 17:57:23.204,-883.0,1726.0,-171.0,199.0,34.0,-185.0,163,99,108,117,101
2025-02-25 17:57:23.208,-855.0,1618.0,-272.0,198.0,42.0,-220.0,170,107,116,125,110
2025-02-25 17:57:23.216,-866.0,1654.0,-298.0,197.0,39.0,-262.0,168,104,113,124,107
2025-02-25 17:57:23.220,-705.0,1658.0,-316.0,184.0,42.0,-308.0,168,104,111,122,107
2025-02-25 17:57:23.224,-739.0,1576.0,-354.0,178.0,42.0,-357.0,167,102,110,122,106
2025-02-25 17:57:23.232,-656.0,1434.0,-334.0,162.0,26.0,-415.0,164,99,109,120,103
2025-02-25 17:57:23.236,-546.0,1403.0,-309.0,143.0,14.0,-482.0,162,98,106,116,101
2025-02-25 17:57:23.240,-476.0,1447.0,-281.0,110.0,-14.0,-558.0,161,97,103,115,100
2025-02-25 17:57:23.248,-339.0,1087.0,-60.0,79.0,-40.0,-595.0,159,92,100,112,98
2025-02-25 17:57:23.253,145.0,1205.0,-77.0,31.0,-77.0,-668.0,159,94,100,113,98
2025-02-25 17:57:23.257,587.0,776.0,31.0,10.0,-107.0,-724.0,162,95,103,115,101
2025-02-25 17:57:23.262,1061.0,169.0,107.0,4.0,-138.0,-754.0,161,96,102,116,100
2025-02-25 17:57:23.269,1188.0,-754.0,238.0,10.0,-152.0,-756.0,159,93,100,113,99
2025-02-25 17:57:23.274,1606.0,-2010.0,581.0,45.0,-179.0,-738.0,160,93,102,115,100
2025-02-25 17:57:23.281,2230.0,-2729.0,1215.0,115.0,-175.0,-664.0,172,105,116,127,113
2025-02-25 17:57:23.286,2755.0,-4165.0,1780.0,173.0,-149.0,-535.0,192,126,135,146,135
2025-02-25 17:57:23.290,3000.0,-5403.0,2115.0,223.0,-90.0,-371.0,216,152,165,174,163
2025-02-25 17:57:23.298,2878.0,-6232.0,2065.0,285.0,-10.0,-191.0,178,109,122,130,118
2025-02-25 17:57:23.302,2869.0,-6666.0,2038.0,332.0,79.0,-41.0,186,117,134,134,125
2025-02-25 17:57:23.310,2449.0,-6406.0,1942.0,365.0,136.0,69.0,181,112,130,127,120
2025-02-25 17:57:23.315,2117.0,-5552.0,1958.0,321.0,161.0,140.0,184,116,133,130,122
2025-02-25 17:57:23.319,1513.0,-4527.0,1966.0,253.0,214.0,208.0,186,116,136,132,123
2025-02-25 17:57:23.327,985.0,-3143.0,1368.0,141.0,232.0,223.0,183,113,132,127,118
2025-02-25 17:57:23.331,561.0,-2536.0,1441.0,28.0,192.0,184.0,180,110,130,125,115
2025-02-25 17:57:23.336,363.0,-1665.0,850.0,-64.0,105.0,150.0,170,100,119,115,105
2025-02-25 17:57:23.343,202.0,-1606.0,841.0,-167.0,49.0,140.0,165,95,113,110,99
2025-02-25 17:57:23.348,332.0,-1681.0,613.0,-231.0,15.0,107.0,166,96,113,111,101
2025-02-25 17:57:23.352,210.0,-1830.0,533.0,-270.0,-19.0,88.0,164,94,112,110,98
2025-02-25 17:57:23.360,287.0,-2136.0,376.0,-287.0,-14.0,83.0,161,90,107,106,93
2025-02-25 17:57:23.364,176.0,-2245.0,174.0,-287.0,0.0,93.0,160,87,105,105,91
2025-02-25 17:57:23.368,125.0,-2381.0,188.0,-261.0,-6.0,95.0,156,86,103,106,91
2025-02-25 17:57:23.372,113.0,-2362.0,180.0,-242.0,-1.0,107.0,162,91,109,110,96
2025-02-25 17:57:23.380,65.0,-2258.0,178.0,-218.0,1.0,128.0,161,91,107,108,95
2025-02-25 17:57:23.384,17.0,-2137.0,159.0,-213.0,9.0,151.0,172,101,119,122,107
2025-02-25 17:57:23.389,14.0,-2117.0,204.0,-202.0,17.0,178.0,168,99,114,119,103
2025-02-25 17:57:23.393,72.0,-1935.0,243.0,-181.0,-2.0,186.0,148,77,92,97,79
2025-02-25 17:57:23.400,-38.0,-1884.0,348.0,-147.0,-67.0,198.0,148,77,92,100,80
2025-02-25 17:57:23.405,57.0,-1615.0,383.0,-139.0,-69.0,212.0,149,78,93,99,80
2025-02-25 17:57:23.409,96.0,-1406.0,388.0,-116.0,-59.0,219.0,149,76,91,98,80
2025-02-25 17:57:23.417,209.0,-1444.0,457.0,-105.0,-62.0,224.0,146,74,88,96,79
2025-02-25 17:57:23.421,166.0,-1133.0,458.0,-95.0,-84.0,227.0,148,77,89,97,81
2025-02-25 17:57:23.425,162.0,-945.0,428.0,-96.0,-76.0,233.0,148,72,85,92,76
2025-02-25 17:57:23.430,141.0,-754.0,395.0,-110.0,-65.0,242.0,145,71,84,90,75
2025-02-25 17:57:23.437,88.0,-610.0,347.0,-114.0,-56.0,245.0,147,73,88,93,77
2025-02-25 17:57:23.441,30.0,-512.0,299.0,-117.0,-58.0,241.0,143,68,83,88,73
2025-02-25 17:57:23.445,-66.0,-432.0,227.0,-120.0,-59.0,238.0,141,67,81,85,71
2025-02-25 17:57:23.449,-19.0,-390.0,249.0,-122.0,-58.0,237.0,142,67,81,86,75
2025-02-25 17:57:23.457,-82.0,-447.0,245.0,-117.0,-52.0,239.0,142,67,84,89,72
2025-02-25 17:57:23.462,-140.0,-433.0,198.0,-105.0,-45.0,242.0,143,68,82,89,71
2025-02-25 17:57:23.466,-217.0,-343.0,246.0,-101.0,-44.0,248.0,144,69,84,91,71
2025-02-25 17:57:23.470,-222.0,-279.0,190.0,-87.0,-36.0,250.0,145,70,84,92,74
2025-02-25 17:57:23.478,-174.0,-292.0,223.0,-77.0,-16.0,252.0,146,71,85,93,75
2025-02-25 17:57:23.482,-185.0,-228.0,230.0,-63.0,1.0,250.0,144,68,82,91,72
2025-02-25 17:57:23.486,-192.0,-298.0,198.0,-52.0,12.0,252.0,143,67,80,88,72
2025-02-25 17:57:23.491,-276.0,-129.0,161.0,-39.0,33.0,252.0,143,67,77,89,72
2025-02-25 17:57:23.495,-235.0,-114.0,162.0,-25.0,47.0,253.0,144,69,80,90,73
2025-02-25 17:57:23.503,-322.0,26.0,153.0,-22.0,54.0,257.0,144,68,78,89,72
2025-02-25 17:57:23.507,-284.0,94.0,83.0,-13.0,64.0,259.0,142,67,77,88,71
2025-02-25 17:57:23.511,-401.0,230.0,55.0,-13.0,80.0,260.0,145,69,80,90,72
2025-02-25 17:57:23.516,-317.0,409.0,55.0,-18.0,97.0,247.0,144,67,78,88,71
2025-02-25 17:57:23.520,-447.0,532.0,-7.0,-21.0,102.0,237.0,145,70,80,90,74
2025-02-25 17:57:23.528,-550.0,616.0,-99.0,-28.0,106.0,229.0,143,69,79,89,72
2025-02-25 17:57:23.532,-646.0,712.0,-103.0,-35.0,105.0,211.0,141,66,75,86,70
2025-02-25 17:57:23.536,-680.0,847.0,-219.0,-44.0,108.0,195.0,141,65,76,84,68
2025-02-25 17:57:23.540,-737.0,884.0,-265.0,-45.0,102.0,187.0,141,65,76,84,67
2025-02-25 17:57:23.548,-791.0,975.0,-301.0,-43.0,84.0,172.0,144,67,79,86,71
2025-02-25 17:57:23.552,-809.0,1014.0,-336.0,-46.0,74.0,149.0,143,68,78,85,71
2025-02-25 17:57:23.556,-873.0,999.0,-362.0,-46.0,71.0,125.0,146,69,81,89,74
2025-02-25 17:57:23.561,-909.0,1031.0,-389.0,-39.0,51.0,114.0,151,75,85,93,78
2025-02-25 17:57:23.568,-913.0,1113.0,-421.0,-31.0,34.0,91.0,154,78,90,97,82
2025-02-25 17:57:23.573,-933.0,1112.0,-480.0,-28.0,27.0,71.0,158,82,92,100,87
2025-02-25 17:57:23.577,-902.0,1156.0,-513.0,-17.0,14.0,48.0,156,82,92,100,86
2025-02-25 17:57:23.581,-993.0,1211.0,-536.0,-2.0,-9.0,35.0,162,86,98,105,90
2025-02-25 17:57:23.589,-1042.0,1318.0,-542.0,7.0,-30.0,8.0,162,85,97,105,90
2025-02-25 17:57:23.593,-1066.0,1402.0,-537.0,24.0,-44.0,-28.0,160,85,95,102,87
2025-02-25 17:57:23.597,-1047.0,1519.0,-508.0,33.0,-62.0,-47.0,162,85,96,104,90
2025-02-25 17:57:23.605,-1110.0,1681.0,-492.0,36.0,-77.0,-85.0,164,86,97,106,90
2025-02-25 17:57:23.609,-1104.0,1581.0,-440.0,41.0,-93.0,-121.0,164,86,95,103,90
2025-02-25 17:57:23.614,-1058.0,1641.0,-463.0,44.0,-107.0,-152.0,167,87,97,106,92
2025-02-25 17:57:23.621,-1101.0,1537.0,-432.0,51.0,-111.0,-178.0,168,88,98,108,93
2025-02-25 17:57:23.626,-1059.0,1653.0,-375.0,59.0,-112.0,-207.0,164,82,94,103,86
2025-02-25 17:57:23.630,-917.0,1737.0,-395.0,77.0,-116.0,-241.0,163,82,93,104,88
2025-02-25 17:57:23.638,-829.0,1649.0,-377.0,88.0,-101.0,-262.0,167,85,95,105,89
2025-02-25 17:57:23.642,-825.0,1732.0,-325.0,105.0,-84.0,-297.0,170,86,95,107,90
2025-02-25 17:57:23.646,-673.0,1619.0,-230.0,125.0,-68.0,-334.0,168,87,95,106,90
2025-02-25 17:57:23.655,-540.0,1524.0,-133.0,137.0,-58.0,-373.0,188,106,115,127,111
2025-02-25 17:57:23.659,-387.0,1408.0,-17.0,168.0,-48.0,-415.0,208,128,137,149,134
2025-02-25 17:57:23.663,-285.0,1285.0,46.0,193.0,-46.0,-459.0,181,99,108,119,103
2025-02-25 17:57:23.667,-175.0,1107.0,3.0,218.0,-37.0,-482.0,160,73,84,97,80
2025-02-25 17:57:23.674,12.0,1117.0,-25.0,230.0,-41.0,-530.0,163,76,86,98,82
2025-02-25 17:57:23.679,41.0,1014.0,-144.0,232.0,-69.0,-571.0,162,73,89,97,80
2025-02-25 17:57:23.691,177.0,912.0,-319.0,212.0,-92.0,-596.0,160,72,84,97,79
2025-02-25 17:57:23.693,33.0,816.0,-506.0,152.0,-150.0,-603.0,160,71,83,95,78
2025-02-25 17:57:23.696,134.0,625.0,-641.0,112.0,-227.0,-618.0,163,74,85,99,81
2025-02-25 17:57:23.700,246.0,435.0,-644.0,73.0,-287.0,-620.0,162,73,84,98,81
2025-02-25 17:57:23.704,558.0,-176.0,-561.0,26.0,-305.0,-632.0,162,72,83,96,79
2025-02-25 17:57:23.711,947.0,-497.0,-468.0,-45.0,-307.0,-637.0,164,71,83,97,80
2025-02-25 17:57:23.716,1483.0,-1573.0,-280.0,-28.0,-314.0,-621.0,168,77,88,101,83
2025-02-25 17:57:23.720,2408.0,-2776.0,-69.0,13.0,-324.0,-571.0,171,79,92,104,87
2025-02-25 17:57:23.728,3012.0,-3816.0,489.0,38.0,-303.0,-500.0,170,77,90,102,86
2025-02-25 17:57:23.732,3595.0,-5142.0,1185.0,121.0,-256.0,-404.0,170,76,90,99,85
2025-02-25 17:57:23.737,3812.0,-5575.0,1934.0,226.0,-219.0,-292.0,175,81,97,103,90
2025-02-25 17:57:23.745,4140.0,-6102.0,2546.0,303.0,-112.0,-176.0,173,78,95,97,87
2025-02-25 17:57:23.749,3957.0,-5824.0,2666.0,339.0,30.0,-117.0,188,92,111,111,101
2025-02-25 17:57:23.753,3503.0,-5657.0,2726.0,330.0,172.0,-18.0,191,97,116,113,104
2025-02-25 17:57:23.760,3032.0,-4668.0,2666.0,250.0,270.0,86.0,189,94,113,111,101
2025-02-25 17:57:23.765,2270.0,-3650.0,2203.0,195.0,297.0,136.0,194,100,120,113,106
2025-02-25 17:57:23.770,1412.0,-2975.0,1170.0,171.0,263.0,162.0,191,97,117,113,104
2025-02-25 17:57:23.778,977.0,-2218.0,610.0,33.0,185.0,177.0,185,92,110,106,95
2025-02-25 17:57:23.782,755.0,-1844.0,385.0,-44.0,138.0,173.0,179,84,102,99,89
2025-02-25 17:57:23.786,365.0,-1651.0,-105.0,-89.0,60.0,160.0,177,82,100,97,88
2025-02-25 17:57:23.794,135.0,-1816.0,53.0,-150.0,-37.0,161.0,183,88,106,104,94
2025-02-25 17:57:23.797,339.0,-1714.0,178.0,-184.0,-67.0,166.0,185,91,109,106,96
2025-02-25 17:57:23.801,384.0,-1902.0,226.0,-170.0,-64.0,171.0,185,92,109,107,97
2025-02-25 17:57:23.807,293.0,-1893.0,437.0,-186.0,-74.0,178.0,186,91,109,107,97
2025-02-25 17:57:23.814,275.0,-1970.0,365.0,-189.0,-49.0,190.0,185,92,110,109,96
2025-02-25 17:57:23.819,335.0,-2077.0,629.0,-154.0,-39.0,203.0,201,110,127,127,115
2025-02-25 17:57:23.826,397.0,-2141.0,775.0,-134.0,-32.0,215.0,204,111,128,128,117
2025-02-25 17:57:23.831,450.0,-1662.0,803.0,-126.0,3.0,230.0,203,112,128,128,116
2025-02-25 17:57:23.836,476.0,-1725.0,715.0,-80.0,32.0,230.0,204,115,133,135,123
2025-02-25 17:57:23.840,505.0,-1225.0,842.0,-105.0,36.0,239.0,206,113,131,132,119
2025-02-25 17:57:23.846,387.0,-1140.0,801.0,-73.0,51.0,239.0,201,110,125,128,115
2025-02-25 17:57:23.851,476.0,-871.0,576.0,-81.0,79.0,241.0,200,109,125,128,116
2025-02-25 17:57:23.855,277.0,-840.0,615.0,-101.0,100.0,239.0,217,127,141,145,133
2025-02-25 17:57:23.864,83.0,-707.0,636.0,-91.0,62.0,242.0,216,130,141,144,134
2025-02-25 17:57:23.867,13.0,-465.0,370.0,-86.0,39.0,235.0,176,82,95,101,87
2025-02-25 17:57:23.872,-86.0,-332.0,278.0,-95.0,45.0,228.0,194,102,116,121,110
2025-02-25 17:57:23.879,-74.0,-276.0,132.0,-89.0,59.0,223.0,201,109,121,125,113
2025-02-25 17:57:23.884,-162.0,-321.0,208.0,-77.0,50.0,211.0,192,101,113,118,107
2025-02-25 17:57:23.888,-206.0,-237.0,168.0,-86.0,38.0,209.0,187,90,103,108,95
2025-02-25 17:57:23.892,-316.0,-182.0,106.0,-70.0,6.0,199.0,185,92,106,110,98
2025-02-25 17:57:23.900,-297.0,-131.0,166.0,-74.0,2.0,186.0,192,101,114,120,107
2025-02-25 17:57:23.904,-418.0,-94.0,112.0,-58.0,-10.0,180.0,181,88,101,104,92
2025-02-25 17:57:23.908,-342.0,-36.0,172.0,-66.0,-8.0,164.0,180,87,101,106,93
2025-02-25 17:57:23.913,-404.0,-193.0,74.0,-50.0,10.0,149.0,179,86,100,104,91
2025-02-25 17:57:23.920,-397.0,-71.0,227.0,-61.0,18.0,137.0,178,84,99,103,89
2025-02-25 17:57:23.925,-426.0,-146.0,136.0,-47.0,22.0,135.0,176,84,100,101,91
2025-02-25 17:57:23.929,-467.0,-118.0,151.0,-44.0,35.0,133.0,186,88,107,110,97
2025-02-25 17:57:23.936,-500.0,-280.0,70.0,-48.0,45.0,135.0,186,91,105,111,98
2025-02-25 17:57:23.941,-631.0,-304.0,-76.0,-50.0,48.0,135.0,184,91,106,109,97
2025-02-25 17:57:23.945,-586.0,-416.0,-109.0,-46.0,51.0,130.0,193,101,115,118,105
2025-02-25 17:57:23.951,-680.0,-403.0,-110.0,-55.0,67.0,130.0,200,108,122,125,112
2025-02-25 17:57:23.957,-725.0,-292.0,-193.0,-37.0,74.0,125.0,203,110,123,128,116
2025-02-25 17:57:23.962,-690.0,-217.0,-230.0,-33.0,81.0,125.0,197,106,120,123,111
2025-02-25 17:57:23.967,-788.0,-299.0,-219.0,-25.0,81.0,119.0,195,104,117,120,108
2025-02-25 17:57:23.974,-756.0,-180.0,-222.0,-30.0,83.0,116.0,193,101,114,120,105
2025-02-25 17:57:23.978,-748.0,-163.0,-202.0,-41.0,88.0,113.0,195,101,115,120,107
2025-02-25 17:57:23.983,-814.0,-174.0,-229.0,-26.0,79.0,109.0,192,98,114,118,105
2025-02-25 17:57:23.990,-792.0,-71.0,-165.0,-27.0,59.0,101.0,197,106,120,125,115
2025-02-25 17:57:23.995,-783.0,24.0,-202.0,-28.0,53.0,93.0,194,106,120,123,111
2025-02-25 17:57:23.999,-857.0,55.0,-220.0,-22.0,48.0,85.0,196,105,119,124,111
2025-02-25 17:57:24.007,-848.0,62.0,-165.0,-18.0,41.0,74.0,191,100,114,117,106
2025-02-25 17:57:24.011,-840.0,111.0,-203.0,-11.0,17.0,65.0,194,103,117,116,107
2025-02-25 17:57:24.015,-817.0,155.0,-190.0,-11.0,6.0,51.0,204,114,127,133,119
2025-02-25 17:57:24.019,-814.0,229.0,-166.0,0.0,1.0,34.0,201,110,124,128,116
2025-02-25 17:57:24.027,-851.0,223.0,-151.0,0.0,8.0,24.0,195,104,118,122,109
2025-02-25 17:57:24.031,-849.0,297.0,-169.0,2.0,-2.0,17.0,194,102,115,120,108
2025-02-25 17:57:24.035,-855.0,313.0,-114.0,-2.0,-15.0,2.0,204,114,127,132,120
2025-02-25 17:57:24.043,-932.0,363.0,-91.0,-2.0,-29.0,-12.0,198,109,122,126,113
2025-02-25 17:57:24.048,-983.0,394.0,-118.0,3.0,-29.0,-27.0,196,104,117,123,114
2025-02-25 17:57:24.051,-968.0,388.0,-132.0,15.0,-28.0,-41.0,196,104,117,122,109
2025-02-25 17:57:24.056,-1009.0,401.0,-41.0,17.0,-31.0,-46.0,200,110,122,127,114
2025-02-25 17:57:24.064,-1033.0,445.0,-92.0,33.0,-38.0,-59.0,199,108,121,126,114
2025-02-25 17:57:24.068,-1072.0,511.0,-58.0,24.0,-36.0,-71.0,200,108,122,129,114
2025-02-25 17:57:24.072,-1060.0,561.0,22.0,30.0,-35.0,-85.0,196,106,118,124,111
2025-02-25 17:57:24.080,-1143.0,568.0,-42.0,46.0,-31.0,-98.0,185,93,106,113,98
2025-02-25 17:57:24.084,-1158.0,668.0,-129.0,57.0,-32.0,-109.0,181,89,103,109,93
2025-02-25 17:57:24.089,-1211.0,700.0,-53.0,57.0,-25.0,-121.0,183,91,106,111,96
2025-02-25 17:57:24.097,-1242.0,857.0,-70.0,78.0,-20.0,-139.0,186,91,104,110,97
2025-02-25 17:57:24.101,-1198.0,1021.0,-11.0,82.0,-8.0,-160.0,185,93,106,112,98
2025-02-25 17:57:24.105,-1180.0,1121.0,-24.0,90.0,0.0,-191.0,185,92,104,112,96
2025-02-25 17:57:24.110,-1108.0,976.0,13.0,101.0,21.0,-204.0,178,85,96,105,90
2025-02-25 17:57:24.117,-1087.0,977.0,-5.0,116.0,23.0,-236.0,185,92,104,111,96
2025-02-25 17:57:24.122,-994.0,885.0,-28.0,121.0,19.0,-269.0,183,92,104,111,96
2025-02-25 17:57:24.126,-877.0,799.0,-79.0,133.0,9.0,-304.0,181,88,101,107,93
2025-02-25 17:57:24.130,-831.0,749.0,-66.0,137.0,1.0,-323.0,180,89,101,107,93
2025-02-25 17:57:24.138,-674.0,702.0,-64.0,138.0,-19.0,-358.0,183,90,103,110,96
2025-02-25 17:57:24.141,-427.0,646.0,-4.0,117.0,-49.0,-392.0,182,89,101,110,95
2025-02-25 17:57:24.147,-204.0,527.0,-20.0,106.0,-84.0,-423.0,181,88,102,108,95
2025-02-25 17:57:24.154,-63.0,408.0,1.0,81.0,-104.0,-444.0,179,87,99,106,92
2025-02-25 17:57:24.159,244.0,171.0,179.0,47.0,-132.0,-447.0,184,91,104,111,98
2025-02-25 17:57:24.162,638.0,-257.0,215.0,19.0,-150.0,-456.0,182,87,102,109,96
2025-02-25 17:57:24.167,974.0,-853.0,345.0,6.0,-161.0,-456.0,182,88,99,108,95
2025-02-25 17:57:24.175,1176.0,-1622.0,512.0,-17.0,-161.0,-441.0,179,85,100,106,93
2025-02-25 17:57:24.179,1541.0,-2479.0,632.0,-14.0,-148.0,-413.0,181,87,101,108,95
2025-02-25 17:57:24.183,1892.0,-2883.0,948.0,2.0,-119.0,-387.0,179,84,98,104,93
2025-02-25 17:57:24.191,2305.0,-3843.0,1165.0,8.0,-68.0,-320.0,187,94,109,113,103
2025-02-25 17:57:24.196,2618.0,-4626.0,1375.0,18.0,-6.0,-244.0,174,79,94,100,89
2025-02-25 17:57:24.200,2710.0,-5274.0,1541.0,30.0,49.0,-151.0,174,79,94,98,88
2025-02-25 17:57:24.207,2723.0,-5083.0,1518.0,52.0,74.0,-63.0,172,76,93,94,85
2025-02-25 17:57:24.211,2563.0,-5031.0,1387.0,64.0,120.0,-19.0,172,77,93,92,84
2025-02-25 17:57:24.216,2377.0,-4556.0,1307.0,42.0,158.0,53.0,177,82,99,96,91
2025-02-25 17:57:24.220,2199.0,-4087.0,1303.0,29.0,208.0,105.0,174,80,99,96,90
2025-02-25 17:57:24.228,2201.0,-3648.0,611.0,-49.0,213.0,160.0,172,77,96,93,87
2025-02-25 17:57:24.232,1681.0,-3280.0,336.0,-47.0,158.0,182.0,172,78,96,94,88
2025-02-25 17:57:24.237,1202.0,-2818.0,145.0,-144.0,118.0,204.0,176,83,99,97,91
2025-02-25 17:57:24.241,1010.0,-2040.0,37.0,-194.0,81.0,205.0,175,81,98,98,91
2025-02-25 17:57:24.249,721.0,-1847.0,-127.0,-217.0,17.0,201.0,174,80,95,96,89
2025-02-25 17:57:24.253,574.0,-1964.0,-256.0,-214.0,-15.0,194.0,172,79,96,95,88
2025-02-25 17:57:24.257,496.0,-1979.0,-358.0,-202.0,-55.0,186.0,176,82,99,98,91
2025-02-25 17:57:24.265,359.0,-1958.0,-358.0,-202.0,-60.0,189.0,176,84,100,101,92
2025-02-25 17:57:24.269,396.0,-2030.0,-245.0,-174.0,-61.0,189.0,172,78,96,96,86
2025-02-25 17:57:24.273,376.0,-1967.0,77.0,-179.0,-36.0,200.0,164,69,86,89,78
2025-02-25 17:57:24.281,369.0,-1770.0,125.0,-179.0,-31.0,216.0,164,73,90,86,70
2025-02-25 17:57:24.285,378.0,-1931.0,46.0,-135.0,-30.0,217.0,161,67,83,86,75
2025-02-25 17:57:24.290,328.0,-1668.0,477.0,-199.0,-12.0,239.0,161,68,85,87,76
2025-02-25 17:57:24.294,335.0,-1357.0,123.0,-135.0,-28.0,250.0,162,69,85,88,77
2025-02-25 17:57:24.302,250.0,-1375.0,280.0,-117.0,-14.0,257.0,161,68,84,87,76
2025-02-25 17:57:24.306,230.0,-1100.0,261.0,-82.0,-10.0,261.0,158,65,80,83,72
2025-02-25 17:57:24.310,170.0,-1097.0,273.0,-102.0,16.0,270.0,162,69,84,89,76
2025-02-25 17:57:24.314,-34.0,-856.0,241.0,-78.0,5.0,280.0,163,67,87,90,83
2025-02-25 17:57:24.319,-49.0,-732.0,125.0,-84.0,6.0,279.0,161,68,83,88,78
2025-02-25 17:57:24.326,-197.0,-660.0,146.0,-48.0,-15.0,279.0,165,72,88,88,81
2025-02-25 17:57:24.330,-185.0,-435.0,139.0,-34.0,-20.0,271.0,164,72,87,91,80
2025-02-25 17:57:24.335,-264.0,-382.0,116.0,6.0,-23.0,270.0,165,73,89,92,83
2025-02-25 17:57:24.339,-299.0,-331.0,62.0,33.0,-29.0,266.0,165,72,86,90,80
2025-02-25 17:57:24.346,-441.0,-94.0,59.0,47.0,-38.0,261.0,168,73,89,95,88
2025-02-25 17:57:24.351,-430.0,-7.0,44.0,58.0,-43.0,249.0,163,71,86,91,81
2025-02-25 17:57:24.355,-455.0,74.0,79.0,80.0,-45.0,236.0,159,68,83,89,77
2025-02-25 17:57:24.359,-457.0,294.0,59.0,98.0,-46.0,209.0,162,70,85,91,79
2025-02-25 17:57:24.364,-572.0,305.0,24.0,108.0,-38.0,182.0,168,75,85,96,86
2025-02-25 17:57:24.371,-565.0,311.0,103.0,96.0,-27.0,172.0,167,78,90,97,85
2025-02-25 17:57:24.375,-637.0,327.0,179.0,78.0,19.0,161.0,166,78,90,97,86
2025-02-25 17:57:24.379,-636.0,335.0,-62.0,70.0,35.0,149.0,161,71,85,92,77
2025-02-25 17:57:24.383,-674.0,296.0,23.0,58.0,47.0,140.0,159,67,83,89,79
2025-02-25 17:57:24.388,-771.0,247.0,-77.0,36.0,60.0,137.0,159,69,83,91,80
2025-02-25 17:57:24.396,-752.0,193.0,113.0,44.0,86.0,126.0,162,72,85,95,85
2025-02-25 17:57:24.400,-775.0,105.0,-171.0,21.0,94.0,117.0,158,69,82,92,80
2025-02-25 17:57:24.404,-843.0,100.0,66.0,18.0,122.0,110.0,165,78,89,100,89
2025-02-25 17:57:24.409,-924.0,-5.0,-361.0,22.0,111.0,105.0,165,78,90,99,89
2025-02-25 17:57:24.413,-980.0,-83.0,-346.0,-13.0,101.0,106.0,165,79,90,101,90
2025-02-25 17:57:24.420,-1083.0,34.0,-314.0,-29.0,105.0,108.0,167,82,93,105,94
2025-02-25 17:57:24.425,-1088.0,93.0,-394.0,-31.0,97.0,105.0,167,81,90,104,93
2025-02-25 17:57:24.429,-1013.0,114.0,-387.0,-39.0,97.0,102.0,163,78,89,101,90
2025-02-25 17:57:24.433,-938.0,170.0,-388.0,-37.0,88.0,99.0,164,78,89,103,91
2025-02-25 17:57:24.441,-1062.0,193.0,-404.0,-32.0,83.0,97.0,163,80,90,104,94
2025-02-25 17:57:24.446,-1039.0,290.0,-322.0,-29.0,78.0,88.0,163,80,95,103,93
2025-02-25 17:57:24.449,-968.0,373.0,-273.0,-36.0,79.0,76.0,160,79,90,103,94
2025-02-25 17:57:24.453,-806.0,472.0,-372.0,-33.0,75.0,73.0,164,82,93,107,98
2025-02-25 17:57:24.460,-821.0,508.0,-334.0,-30.0,69.0,64.0,166,85,98,110,102
2025-02-25 17:57:24.466,-811.0,555.0,-221.0,2.0,68.0,44.0,190,113,124,138,132
2025-02-25 17:57:24.470,-813.0,523.0,-254.0,17.0,60.0,24.0,187,109,120,134,129
2025-02-25 17:57:24.478,-769.0,597.0,-168.0,25.0,28.0,11.0,188,111,122,137,133
2025-02-25 17:57:24.482,-864.0,390.0,-54.0,58.0,1.0,5.0,182,104,116,130,126
2025-02-25 17:57:24.486,-955.0,375.0,-157.0,59.0,-42.0,-9.0,157,81,92,107,103
2025-02-25 17:57:24.491,-1019.0,433.0,-147.0,53.0,-56.0,-17.0,157,81,92,108,105
2025-02-25 17:57:24.498,-1054.0,417.0,-323.0,54.0,-74.0,-26.0,161,85,97,112,110
2025-02-25 17:57:24.502,-977.0,696.0,-295.0,108.0,-83.0,-38.0,172,97,107,122,121
2025-02-25 17:57:24.507,-1032.0,766.0,-344.0,125.0,-95.0,-43.0,182,112,121,136,133
2025-02-25 17:57:24.514,-1019.0,924.0,-386.0,144.0,-109.0,-56.0,184,115,125,139,139
2025-02-25 17:57:24.519,-1057.0,1114.0,-465.0,161.0,-123.0,-73.0,184,117,125,138,138
2025-02-25 17:57:24.523,-1137.0,1277.0,-564.0,184.0,-130.0,-100.0,180,115,122,134,136
2025-02-25 17:57:24.531,-1132.0,1286.0,-499.0,202.0,-141.0,-132.0,181,118,123,137,137
2025-02-25 17:57:24.535,-1101.0,1295.0,-472.0,195.0,-136.0,-174.0,178,117,123,132,133
2025-02-25 17:57:24.543,-978.0,1139.0,-545.0,202.0,-130.0,-217.0,177,120,124,132,131
2025-02-25 17:57:24.547,-822.0,938.0,-573.0,201.0,-134.0,-256.0,175,121,124,132,130
2025-02-25 17:57:24.552,-670.0,885.0,-741.0,223.0,-159.0,-290.0,176,124,125,134,131
2025-02-25 17:57:24.560,-540.0,773.0,-884.0,246.0,-196.0,-299.0,174,126,125,133,130
2025-02-25 17:57:24.564,-565.0,906.0,-829.0,246.0,-214.0,-337.0,174,127,127,142,129
2025-02-25 17:57:24.572,-517.0,809.0,-321.0,240.0,-200.0,-363.0,175,130,130,137,132
2025-02-25 17:57:24.577,-325.0,658.0,51.0,232.0,-149.0,-366.0,176,131,130,137,135
2025-02-25 17:57:24.581,-41.0,376.0,382.0,222.0,-133.0,-358.0,176,134,131,139,135
2025-02-25 17:57:24.589,122.0,296.0,551.0,217.0,-145.0,-374.0,176,134,130,138,134
2025-02-25 17:57:24.593,407.0,215.0,434.0,203.0,-187.0,-391.0,174,134,129,136,134
2025-02-25 17:57:24.597,493.0,-53.0,494.0,177.0,-202.0,-405.0,176,137,132,139,136
2025-02-25 17:57:24.605,611.0,-742.0,467.0,130.0,-232.0,-408.0,177,138,132,139,138
2025-02-25 17:57:24.609,1061.0,-1062.0,531.0,51.0,-250.0,-402.0,176,138,132,138,136
2025-02-25 17:57:24.613,1550.0,-2136.0,807.0,-32.0,-257.0,-379.0,179,144,135,144,140
2025-02-25 17:57:24.621,1863.0,-3041.0,1071.0,-115.0,-251.0,-343.0,181,146,137,144,141
2025-02-25 17:57:24.625,2067.0,-3843.0,1354.0,-149.0,-234.0,-294.0,180,145,135,143,140
2025-02-25 17:57:24.633,2177.0,-4349.0,1620.0,-156.0,-189.0,-226.0,179,146,136,143,141
2025-02-25 17:57:24.638,2349.0,-4441.0,1782.0,-164.0,-122.0,-167.0,182,151,139,146,143
2025-02-25 17:57:24.646,2292.0,-4409.0,1406.0,-274.0,-86.0,-129.0,179,148,135,144,142
2025-02-25 17:57:24.650,2034.0,-4483.0,2303.0,-118.0,-190.0,-76.0,179,147,136,143,142
2025-02-25 17:57:24.657,1655.0,-4212.0,3178.0,-89.0,-130.0,-17.0,179,149,137,143,143
2025-02-25 17:57:24.662,1854.0,-3934.0,1668.0,1.0,19.0,89.0,179,149,136,144,144
2025-02-25 17:57:24.666,1523.0,-3307.0,296.0,13.0,49.0,178.0,178,149,137,145,144
2025-02-25 17:57:24.670,921.0,-2894.0,898.0,13.0,30.0,215.0,178,148,137,144,143
2025-02-25 17:57:24.678,955.0,-2892.0,1172.0,-93.0,53.0,258.0,177,148,136,143,143
2025-02-25 17:57:24.682,898.0,-2400.0,899.0,-123.0,88.0,269.0,177,148,137,146,144
2025-02-25 17:57:24.687,418.0,-2227.0,999.0,-163.0,91.0,276.0,180,151,138,146,145
2025-02-25 17:57:24.695,349.0,-1939.0,817.0,-126.0,110.0,275.0,179,150,139,146,146
2025-02-25 17:57:24.699,319.0,-1898.0,701.0,-114.0,116.0,269.0,179,150,138,145,144
2025-02-25 17:57:24.703,-60.0,-1824.0,287.0,-113.0,88.0,260.0,182,153,141,148,148
2025-02-25 17:57:24.711,-126.0,-1700.0,265.0,-92.0,75.0,244.0,200,173,161,169,168
2025-02-25 17:57:24.716,57.0,-1517.0,391.0,-107.0,68.0,224.0,186,156,145,156,153
2025-02-25 17:57:24.720,4.0,-1414.0,491.0,-94.0,52.0,208.0,181,154,143,150,150
2025-02-25 17:57:24.728,38.0,-1402.0,453.0,-60.0,62.0,205.0,181,154,142,150,149
2025-02-25 17:57:24.732,-138.0,-1257.0,393.0,-27.0,46.0,194.0,182,154,143,149,149
2025-02-25 17:57:24.736,-162.0,-1184.0,396.0,-27.0,29.0,183.0,183,155,144,151,151
2025-02-25 17:57:24.744,-105.0,-989.0,531.0,-32.0,47.0,175.0,179,152,141,147,147
2025-02-25 17:57:24.748,-131.0,-933.0,550.0,0.0,66.0,179.0,178,150,139,147,147
2025-02-25 17:57:24.752,-148.0,-789.0,516.0,51.0,68.0,174.0,176,148,137,144,144
2025-02-25 17:57:24.760,-241.0,-716.0,524.0,66.0,90.0,176.0,179,151,140,148,147
2025-02-25 17:57:24.764,-332.0,-591.0,230.0,50.0,73.0,175.0,180,153,141,150,149
2025-02-25 17:57:24.769,-442.0,-469.0,128.0,50.0,34.0,171.0,175,148,136,144,144
2025-02-25 17:57:24.773,-503.0,-599.0,387.0,47.0,36.0,177.0,173,146,134,142,141
2025-02-25 17:57:24.781,-447.0,-253.0,135.0,23.0,31.0,171.0,174,148,135,144,143
2025-02-25 17:57:24.785,-410.0,-253.0,246.0,19.0,13.0,166.0,180,152,141,149,149
2025-02-25 17:57:24.790,-472.0,-220.0,316.0,48.0,27.0,163.0,181,154,142,150,149
2025-02-25 17:57:24.797,-565.0,-159.0,258.0,77.0,35.0,157.0,181,154,137,149,148
2025-02-25 17:57:24.801,-561.0,-142.0,270.0,91.0,47.0,148.0,176,149,136,145,145
2025-02-25 17:57:24.806,-535.0,-158.0,263.0,115.0,71.0,144.0,175,149,138,147,145
2025-02-25 17:57:24.813,-528.0,-63.0,419.0,165.0,105.0,134.0,177,151,139,147,147
2025-02-25 17:57:24.817,-644.0,91.0,-141.0,172.0,102.0,115.0,179,153,139,148,148
2025-02-25 17:57:24.822,-573.0,-84.0,-89.0,152.0,98.0,104.0,177,151,140,147,147
2025-02-25 17:57:24.829,-712.0,-105.0,-42.0,136.0,100.0,89.0,174,148,137,145,145
2025-02-25 17:57:24.834,-745.0,-63.0,-186.0,93.0,95.0,78.0,173,147,134,144,144
2025-02-25 17:57:24.838,-848.0,10.0,-82.0,74.0,71.0,72.0,175,148,136,144,145
2025-02-25 17:57:24.842,-859.0,39.0,-60.0,52.0,75.0,62.0,178,152,140,147,148
2025-02-25 17:57:24.850,-772.0,206.0,50.0,55.0,102.0,53.0,177,152,141,149,149
2025-02-25 17:57:24.855,-776.0,400.0,-24.0,95.0,111.0,42.0,173,149,138,145,145
2025-02-25 17:57:24.858,-853.0,333.0,-143.0,81.0,124.0,32.0,179,153,141,149,145
2025-02-25 17:57:24.862,-894.0,335.0,-185.0,85.0,125.0,17.0,176,152,141,149,149
2025-02-25 17:57:24.871,-957.0,673.0,-164.0,88.0,122.0,3.0,176,151,141,148,148
2025-02-25 17:57:24.875,-1034.0,467.0,-483.0,36.0,114.0,-13.0,171,149,135,146,145
2025-02-25 17:57:24.880,-1038.0,506.0,-603.0,8.0,101.0,-29.0,173,149,139,148,147
2025-02-25 17:57:24.887,-1081.0,589.0,-653.0,-9.0,70.0,-35.0,172,147,136,145,144
2025-02-25 17:57:24.892,-1128.0,689.0,-796.0,-17.0,57.0,-51.0,175,152,141,148,148
2025-02-25 17:57:24.896,-1157.0,419.0,-743.0,-30.0,30.0,-62.0,175,150,140,147,148
2025-02-25 17:57:24.904,-1200.0,421.0,-734.0,-27.0,1.0,-72.0,173,150,139,146,146
2025-02-25 17:57:24.908,-1229.0,395.0,-460.0,-15.0,-14.0,-80.0,172,149,139,147,146
2025-02-25 17:57:24.913,-1152.0,392.0,-368.0,-14.0,-20.0,-95.0,171,148,139,146,146
2025-02-25 17:57:24.920,-1010.0,435.0,-392.0,3.0,-42.0,-107.0,173,150,140,147,147
2025-02-25 17:57:24.924,-985.0,379.0,-423.0,27.0,-53.0,-111.0,174,148,139,147,146
2025-02-25 17:57:24.929,-999.0,436.0,-381.0,48.0,-56.0,-120.0,176,153,142,148,150
2025-02-25 17:57:24.937,-995.0,463.0,-427.0,69.0,-67.0,-126.0,177,152,143,152,149
2025-02-25 17:57:24.941,-1009.0,537.0,-326.0,70.0,-75.0,-131.0,175,151,141,148,148
2025-02-25 17:57:24.945,-1021.0,532.0,-244.0,75.0,-85.0,-141.0,176,150,142,147,147
2025-02-25 17:57:24.953,-948.0,609.0,-302.0,93.0,-103.0,-157.0,176,153,142,151,151
2025-02-25 17:57:24.957,-925.0,548.0,-152.0,112.0,-105.0,-173.0,180,156,148,156,154
2025-02-25 17:57:24.965,-836.0,556.0,-167.0,132.0,-113.0,-195.0,182,157,149,156,156
2025-02-25 17:57:24.969,-741.0,510.0,-63.0,140.0,-125.0,-221.0,183,158,147,155,155
2025-02-25 17:57:24.974,-604.0,512.0,-66.0,133.0,-138.0,-236.0,181,156,147,154,154
2025-02-25 17:57:24.981,-455.0,465.0,61.0,112.0,-156.0,-268.0,188,162,153,160,160
2025-02-25 17:57:24.986,-314.0,379.0,60.0,80.0,-184.0,-301.0,186,161,152,160,159
2025-02-25 17:57:24.990,-138.0,265.0,208.0,43.0,-210.0,-332.0,188,162,153,160,161
2025-02-25 17:57:24.998,131.0,96.0,325.0,24.0,-235.0,-365.0,188,162,154,162,162
2025-02-25 17:57:25.002,259.0,-243.0,450.0,-15.0,-243.0,-391.0,179,153,143,151,152
2025-02-25 17:57:25.007,471.0,-712.0,467.0,-57.0,-265.0,-403.0,180,153,143,152,150
2025-02-25 17:57:25.014,675.0,-1035.0,597.0,-98.0,-288.0,-404.0,182,156,146,156,154
2025-02-25 17:57:25.019,913.0,-1612.0,702.0,-141.0,-296.0,-394.0,181,155,145,154,152
2025-02-25 17:57:25.026,1130.0,-2157.0,848.0,-179.0,-290.0,-364.0,181,155,144,153,152
2025-02-25 17:57:25.031,1409.0,-2716.0,898.0,-216.0,-274.0,-324.0,182,155,144,155,154
2025-02-25 17:57:25.035,1684.0,-3132.0,1122.0,-245.0,-253.0,-277.0,183,156,147,154,154
2025-02-25 17:57:25.043,1980.0,-3314.0,925.0,-279.0,-226.0,-235.0,182,153,142,154,153
2025-02-25 17:57:25.052,2344.0,-3457.0,1132.0,-306.0,-226.0,-197.0,177,146,133,147,146
2025-02-25 17:57:25.055,2103.0,-3636.0,1417.0,-276.0,-132.0,-131.0,177,144,131,148,147
2025-02-25 17:57:25.059,2095.0,-3430.0,1138.0,-213.0,-51.0,-64.0,177,146,131,148,148
2025-02-25 17:57:25.064,1891.0,-3552.0,658.0,-160.0,-5.0,23.0,172,138,123,141,140
2025-02-25 17:57:25.072,1692.0,-3380.0,539.0,-144.0,27.0,94.0,185,151,136,154,154
2025-02-25 17:57:25.076,1533.0,-3162.0,458.0,-142.0,48.0,155.0,185,150,136,154,154
2025-02-25 17:57:25.084,1437.0,-2862.0,230.0,-171.0,37.0,191.0,181,147,131,151,151
2025-02-25 17:57:25.088,1123.0,-2591.0,113.0,-225.0,33.0,222.0,178,144,127,148,146
2025-02-25 17:57:25.092,1063.0,-2165.0,52.0,-233.0,18.0,226.0,180,140,126,147,146
2025-02-25 17:57:25.100,616.0,-2311.0,707.0,-253.0,7.0,237.0,177,141,124,146,144
2025-02-25 17:57:25.105,539.0,-2243.0,471.0,-183.0,48.0,259.0,178,143,125,148,147
2025-02-25 17:57:25.108,332.0,-1663.0,315.0,-183.0,37.0,248.0,186,150,135,155,154
2025-02-25 17:57:25.117,407.0,-1758.0,408.0,-139.0,41.0,246.0,188,151,135,157,155
2025-02-25 17:57:25.120,240.0,-1598.0,251.0,-117.0,28.0,227.0,184,148,131,154,150
2025-02-25 17:57:25.125,191.0,-1441.0,155.0,-114.0,1.0,214.0,188,151,134,157,154
2025-02-25 17:57:25.133,214.0,-1345.0,281.0,-89.0,0.0,208.0,186,148,133,154,152
2025-02-25 17:57:25.137,170.0,-1258.0,83.0,-63.0,-14.0,201.0,185,147,131,154,152
2025-02-25 17:57:25.141,180.0,-1130.0,166.0,-37.0,-9.0,196.0,183,142,128,150,147
2025-02-25 17:57:25.147,70.0,-1185.0,277.0,-16.0,9.0,193.0,180,141,127,150,146
2025-02-25 17:57:25.154,-10.0,-1040.0,11.0,-8.0,11.0,200.0,178,134,120,143,139
2025-02-25 17:57:25.157,25.0,-954.0,131.0,-11.0,11.0,205.0,179,138,125,148,144
2025-02-25 17:57:25.161,-180.0,-978.0,134.0,25.0,-3.0,205.0,179,138,124,146,142
2025-02-25 17:57:25.170,-203.0,-650.0,291.0,78.0,-10.0,203.0,191,149,139,160,156
2025-02-25 17:57:25.174,-257.0,-844.0,509.0,123.0,34.0,217.0,192,151,139,160,156
2025-02-25 17:57:25.179,-422.0,-539.0,193.0,140.0,36.0,213.0,191,148,139,160,156
2025-02-25 17:57:25.186,-432.0,-416.0,171.0,174.0,28.0,208.0,185,142,134,155,148
2025-02-25 17:57:25.191,-466.0,-431.0,616.0,224.0,54.0,208.0,187,143,136,155,151
2025-02-25 17:57:25.195,-550.0,-356.0,319.0,256.0,85.0,201.0,191,148,142,160,156
2025-02-25 17:57:25.199,-525.0,-192.0,337.0,237.0,94.0,192.0,187,142,137,157,152
2025-02-25 17:57:25.207,-536.0,91.0,152.0,244.0,94.0,165.0,182,134,128,151,143
2025-02-25 17:57:25.211,-550.0,8.0,72.0,230.0,105.0,146.0,176,129,126,145,141
2025-02-25 17:57:25.215,-533.0,134.0,70.0,225.0,117.0,127.0,175,128,125,142,138
2025-02-25 17:57:25.223,-601.0,72.0,-68.0,184.0,145.0,119.0,179,128,125,144,140
2025-02-25 17:57:25.228,-589.0,154.0,-176.0,179.0,162.0,100.0,177,128,124,143,139
2025-02-25 17:57:25.232,-670.0,102.0,-133.0,181.0,176.0,86.0,178,125,122,139,137
2025-02-25 17:57:25.239,-696.0,122.0,-185.0,167.0,158.0,72.0,177,123,122,137,136
2025-02-25 17:57:25.244,-713.0,-24.0,430.0,138.0,187.0,65.0,176,121,116,133,133
2025-02-25 17:57:25.248,-653.0,-57.0,-696.0,56.0,142.0,54.0,172,116,116,132,130
2025-02-25 17:57:25.252,-742.0,-213.0,-125.0,6.0,137.0,46.0,176,119,118,133,132
2025-02-25 17:57:25.260,-770.0,-242.0,-86.0,3.0,156.0,42.0,181,119,121,135,136
2025-02-25 17:57:25.265,-814.0,-283.0,-346.0,-1.0,147.0,39.0,172,108,113,125,128
2025-02-25 17:57:25.269,-811.0,-273.0,-202.0,-9.0,150.0,37.0,171,103,109,123,124
2025-02-25 17:57:25.276,-818.0,-91.0,-155.0,-8.0,145.0,31.0,174,99,106,124,122
2025-02-25 17:57:25.280,-813.0,-167.0,-264.0,-17.0,136.0,30.0,176,102,110,122,124
2025-02-25 17:57:25.285,-776.0,-64.0,-364.0,-24.0,110.0,24.0,183,104,120,125,126
2025-02-25 17:57:25.292,-948.0,-110.0,-442.0,-33.0,86.0,19.0,180,100,114,123,122
2025-02-25 17:57:25.296,-906.0,-25.0,-445.0,-69.0,59.0,15.0,182,98,110,119,120
2025-02-25 17:57:25.301,-966.0,63.0,-390.0,-69.0,51.0,16.0,177,90,104,113,110
2025-02-25 17:57:25.306,-884.0,120.0,-337.0,-81.0,36.0,14.0,181,92,108,117,113
2025-02-25 17:57:25.313,-1040.0,45.0,-466.0,-75.0,23.0,10.0,182,94,109,115,109
2025-02-25 17:57:25.318,-1016.0,398.0,-599.0,-49.0,-2.0,-7.0,186,98,114,121,113
2025-02-25 17:57:25.322,-1076.0,296.0,-560.0,-36.0,-7.0,-27.0,196,107,122,129,121
2025-02-25 17:57:25.330,-1011.0,516.0,-425.0,-19.0,-14.0,-52.0,189,98,112,120,112
2025-02-25 17:57:25.334,-1043.0,450.0,-562.0,20.0,-53.0,-62.0,183,90,104,110,102
2025-02-25 17:57:25.338,-1218.0,460.0,-203.0,-2.0,-54.0,-88.0,178,85,101,104,96
2025-02-25 17:57:25.346,-1163.0,466.0,-209.0,-5.0,-58.0,-100.0,180,86,100,107,99
2025-02-25 17:57:25.350,-1136.0,530.0,-552.0,-3.0,-80.0,-118.0,194,101,113,118,109
2025-02-25 17:57:25.355,-1145.0,534.0,-353.0,-2.0,-94.0,-135.0,182,87,101,111,96
2025-02-25 17:57:25.362,-1164.0,621.0,-207.0,2.0,-93.0,-149.0,174,78,92,100,84
2025-02-25 17:57:25.366,-1126.0,642.0,-170.0,39.0,-73.0,-152.0,178,81,96,104,86
2025-02-25 17:57:25.370,-1167.0,554.0,-114.0,77.0,-40.0,-165.0,178,82,96,104,86
2025-02-25 17:57:25.376,-1133.0,708.0,-459.0,84.0,-41.0,-185.0,178,81,94,105,85
2025-02-25 17:57:25.383,-954.0,730.0,-602.0,95.0,-47.0,-205.0,176,80,93,102,81
2025-02-25 17:57:25.388,-928.0,619.0,-697.0,132.0,-57.0,-233.0,174,78,91,101,78
2025-02-25 17:57:25.392,-693.0,691.0,-634.0,152.0,-71.0,-251.0,176,78,91,102,80
2025-02-25 17:57:25.399,-399.0,714.0,-594.0,154.0,-88.0,-289.0,177,79,92,101,81
2025-02-25 17:57:25.403,-376.0,710.0,-377.0,158.0,-108.0,-332.0,175,77,89,98,79
2025-02-25 17:57:25.407,-230.0,516.0,-271.0,150.0,-158.0,-366.0,175,76,88,96,77
2025-02-25 17:57:25.415,-216.0,372.0,-36.0,133.0,-180.0,-393.0,174,73,86,93,76
2025-02-25 17:57:25.419,44.0,232.0,173.0,116.0,-212.0,-400.0,176,76,89,96,78
2025-02-25 17:57:25.424,575.0,-96.0,304.0,89.0,-232.0,-402.0,175,73,87,91,76
2025-02-25 17:57:25.428,989.0,-655.0,601.0,78.0,-232.0,-393.0,174,72,85,92,76
2025-02-25 17:57:25.436,1141.0,-1313.0,757.0,47.0,-237.0,-378.0,166,63,76,83,68
2025-02-25 17:57:25.440,1494.0,-1621.0,907.0,40.0,-241.0,-368.0,162,61,74,79,64
2025-02-25 17:57:25.444,1698.0,-2473.0,1126.0,45.0,-224.0,-338.0,163,59,76,78,64
2025-02-25 17:57:25.448,1970.0,-3052.0,1688.0,44.0,-166.0,-291.0,163,59,75,78,65
2025-02-25 17:57:25.456,2230.0,-3651.0,1754.0,66.0,-100.0,-193.0,161,54,71,75,65
2025-02-25 17:57:25.462,2437.0,-4152.0,2354.0,115.0,-72.0,-173.0,160,56,70,72,61
2025-02-25 17:57:25.466,3390.0,-3783.0,2346.0,163.0,20.0,-129.0,159,55,68,74,61
2025-02-25 17:57:25.473,2427.0,-4021.0,2505.0,152.0,65.0,-43.0,161,59,71,80,66
2025-02-25 17:57:25.478,2502.0,-3830.0,2209.0,104.0,124.0,23.0,176,74,86,94,79
2025-02-25 17:57:25.482,2520.0,-3553.0,1863.0,82.0,165.0,57.0,183,82,92,102,87
2025-02-25 17:57:25.489,2179.0,-2887.0,1349.0,-23.0,177.0,101.0,180,79,90,99,83
2025-02-25 17:57:25.494,1497.0,-2727.0,733.0,-28.0,169.0,115.0,175,73,85,92,77
2025-02-25 17:57:25.498,958.0,-2292.0,695.0,-94.0,118.0,131.0,183,81,93,100,86
2025-02-25 17:57:25.502,844.0,-1938.0,385.0,-134.0,72.0,144.0,193,94,103,108,97
2025-02-25 17:57:25.510,477.0,-2062.0,309.0,-178.0,62.0,152.0,183,82,94,97,86
2025-02-25 17:57:25.514,424.0,-1693.0,146.0,-227.0,67.0,153.0,179,80,89,94,86
2025-02-25 17:57:25.519,511.0,-1740.0,280.0,-253.0,69.0,159.0,188,86,97,101,90
2025-02-25 17:57:25.523,437.0,-1866.0,149.0,-230.0,54.0,166.0,183,81,92,99,86
2025-02-25 17:57:25.531,225.0,-1907.0,393.0,-225.0,42.0,175.0,180,79,91,100,85
2025-02-25 17:57:25.535,180.0,-1743.0,218.0,-209.0,59.0,178.0,180,80,94,100,84
2025-02-25 17:57:25.539,220.0,-1815.0,279.0,-167.0,50.0,180.0,191,92,106,111,97
2025-02-25 17:57:25.547,226.0,-1619.0,411.0,-164.0,44.0,188.0,189,91,103,109,94
2025-02-25 17:57:25.551,104.0,-1531.0,383.0,-151.0,47.0,191.0,184,85,98,105,90
2025-02-25 17:57:25.556,132.0,-1334.0,351.0,-132.0,54.0,197.0,184,81,100,100,87
2025-02-25 17:57:25.560,12.0,-1243.0,311.0,-115.0,42.0,199.0,183,81,97,102,88
2025-02-25 17:57:25.567,-72.0,-1103.0,206.0,-97.0,43.0,205.0,186,80,99,106,94
2025-02-25 17:57:25.571,-199.0,-1051.0,208.0,-85.0,36.0,209.0,185,85,100,105,90
2025-02-25 17:57:25.575,-276.0,-891.0,158.0,-68.0,36.0,209.0,185,86,100,106,91
2025-02-25 17:57:25.583,-235.0,-761.0,201.0,-54.0,35.0,208.0,186,86,100,106,91
2025-02-25 17:57:25.587,-280.0,-703.0,176.0,-45.0,34.0,208.0,178,79,92,100,81
2025-02-25 17:57:25.592,-332.0,-512.0,158.0,-14.0,13.0,201.0,172,72,85,88,74
2025-02-25 17:57:25.596,-359.0,-395.0,157.0,-2.0,18.0,194.0,171,72,85,90,75
2025-02-25 17:57:25.601,-441.0,-280.0,94.0,2.0,26.0,192.0,168,67,80,87,71
2025-02-25 17:57:25.608,-524.0,-235.0,101.0,3.0,30.0,184.0,167,68,82,86,71
2025-02-25 17:57:25.612,-580.0,-162.0,49.0,2.0,25.0,177.0,168,67,80,85,72
2025-02-25 17:57:25.617,-598.0,-128.0,-4.0,-3.0,23.0,172.0,168,68,81,89,73
2025-02-25 17:57:25.621,-681.0,-140.0,-21.0,-10.0,31.0,161.0,168,65,80,86,70
2025-02-25 17:57:25.626,-732.0,-66.0,-64.0,-19.0,37.0,149.0,166,65,78,83,70
2025-02-25 17:57:25.633,-739.0,-70.0,-149.0,-21.0,33.0,142.0,164,64,77,82,68
2025-02-25 17:57:25.637,-770.0,-69.0,-125.0,-27.0,26.0,126.0,168,67,81,87,72
2025-02-25 17:57:25.642,-823.0,-84.0,-179.0,-36.0,26.0,115.0,165,65,80,85,69
2025-02-25 17:57:25.646,-825.0,-101.0,-189.0,-34.0,25.0,103.0,162,62,75,80,67
2025-02-25 17:57:25.653,-773.0,-88.0,-183.0,-37.0,28.0,96.0,163,66,77,81,67
2025-02-25 17:57:25.657,-818.0,-71.0,-192.0,-36.0,34.0,87.0,164,64,78,83,68
2025-02-25 17:57:25.661,-842.0,-125.0,-152.0,-33.0,30.0,78.0,162,62,73,80,66
2025-02-25 17:57:25.666,-819.0,-56.0,-189.0,-34.0,27.0,75.0,168,66,80,87,73
2025-02-25 17:57:25.674,-845.0,-38.0,-226.0,-40.0,37.0,68.0,187,91,102,110,93
2025-02-25 17:57:25.677,-885.0,15.0,-249.0,-37.0,38.0,58.0,191,94,108,114,99
2025-02-25 17:57:25.682,-899.0,73.0,-300.0,-39.0,34.0,48.0,180,81,94,102,87
2025-02-25 17:57:25.687,-934.0,95.0,-315.0,-29.0,23.0,41.0,182,83,96,102,87
2025-02-25 17:57:25.691,-947.0,136.0,-322.0,-28.0,17.0,28.0,180,82,94,100,86
2025-02-25 17:57:25.698,-905.0,171.0,-345.0,-27.0,17.0,18.0,180,81,93,102,86
2025-02-25 17:57:25.703,-960.0,241.0,-300.0,-25.0,7.0,12.0,180,81,93,101,86
2025-02-25 17:57:25.707,-952.0,252.0,-337.0,-13.0,-8.0,-2.0,180,83,94,101,85
2025-02-25 17:57:25.712,-959.0,305.0,-299.0,-17.0,-16.0,-15.0,177,80,92,101,83
2025-02-25 17:57:25.719,-955.0,195.0,-267.0,-4.0,-20.0,-32.0,177,79,92,99,83
2025-02-25 17:57:25.723,-888.0,302.0,-228.0,6.0,-21.0,-36.0,179,81,91,100,85
2025-02-25 17:57:25.727,-869.0,379.0,-184.0,-5.0,-20.0,-47.0,180,81,90,98,85
2025-02-25 17:57:25.731,-909.0,366.0,-284.0,15.0,-16.0,-57.0,177,80,90,96,82
2025-02-25 17:57:25.739,-968.0,263.0,-114.0,61.0,-55.0,-69.0,175,79,90,99,82
2025-02-25 17:57:25.744,-926.0,448.0,-96.0,49.0,-39.0,-77.0,178,80,92,99,83
2025-02-25 17:57:25.748,-1047.0,410.0,-179.0,46.0,-32.0,-89.0,175,77,90,98,83
2025-02-25 17:57:25.752,-1038.0,557.0,-99.0,69.0,-34.0,-105.0,173,74,89,95,79
2025-02-25 17:57:25.760,-978.0,633.0,-138.0,61.0,-19.0,-109.0,185,89,101,107,95
2025-02-25 17:57:25.764,-1035.0,648.0,-152.0,71.0,-7.0,-129.0,190,97,107,111,100
2025-02-25 17:57:25.768,-979.0,674.0,-21.0,72.0,-14.0,-151.0,182,83,94,102,86
2025-02-25 17:57:25.773,-1035.0,605.0,-86.0,102.0,-22.0,-175.0,180,82,93,101,86
2025-02-25 17:57:25.780,-1099.0,664.0,-86.0,105.0,-23.0,-187.0,178,79,93,95,85
2025-02-25 17:57:25.785,-1008.0,582.0,-142.0,138.0,-28.0,-213.0,181,82,95,103,88
2025-02-25 17:57:25.789,-921.0,639.0,-121.0,132.0,-45.0,-242.0,178,79,91,102,85
2025-02-25 17:57:25.796,-823.0,571.0,-146.0,131.0,-58.0,-271.0,174,74,86,95,81
2025-02-25 17:57:25.801,-712.0,493.0,-113.0,133.0,-77.0,-302.0,182,84,96,104,89
2025-02-25 17:57:25.805,-518.0,452.0,37.0,101.0,-123.0,-319.0,171,74,86,92,80
2025-02-25 17:57:25.809,-206.0,334.0,-6.0,88.0,-150.0,-347.0,171,74,86,92,79
2025-02-25 17:57:25.817,159.0,64.0,142.0,72.0,-176.0,-367.0,176,78,87,98,81
2025-02-25 17:57:25.821,360.0,-353.0,226.0,54.0,-190.0,-377.0,172,75,85,95,81
2025-02-25 17:57:25.826,557.0,-608.0,349.0,34.0,-217.0,-378.0,178,82,91,102,85
2025-02-25 17:57:25.830,875.0,-1138.0,481.0,6.0,-219.0,-371.0,176,79,91,101,85
2025-02-25 17:57:25.837,1149.0,-1791.0,648.0,5.0,-199.0,-352.0,178,78,89,97,83
2025-02-25 17:57:25.842,1283.0,-2442.0,804.0,-1.0,-186.0,-310.0,171,74,87,95,81
2025-02-25 17:57:25.846,1633.0,-3021.0,1158.0,-1.0,-163.0,-286.0,173,73,87,94,80
2025-02-25 17:57:25.854,2000.0,-3295.0,1463.0,9.0,-116.0,-226.0,177,81,92,100,86
2025-02-25 17:57:25.858,2350.0,-3738.0,1603.0,17.0,-58.0,-163.0,168,72,85,88,76
2025-02-25 17:57:25.863,2506.0,-4095.0,1547.0,27.0,7.0,-97.0,167,66,84,87,75
2025-02-25 17:57:25.867,2566.0,-4247.0,1332.0,44.0,41.0,-31.0,163,65,79,82,72
2025-02-25 17:57:25.874,2411.0,-4067.0,1238.0,57.0,91.0,-7.0,167,69,83,85,74
2025-02-25 17:57:25.879,2000.0,-3686.0,932.0,77.0,115.0,52.0,171,71,87,90,79
2025-02-25 17:57:25.883,2077.0,-3679.0,1040.0,105.0,110.0,103.0,169,71,85,87,78
2025-02-25 17:57:25.887,1870.0,-3019.0,669.0,69.0,113.0,126.0,169,71,85,89,78
2025-02-25 17:57:25.895,1436.0,-2968.0,654.0,52.0,66.0,144.0,174,77,87,94,81
2025-02-25 17:57:25.899,1305.0,-2416.0,376.0,-39.0,113.0,176.0,175,79,88,98,86
2025-02-25 17:57:25.903,893.0,-2072.0,416.0,-96.0,88.0,197.0,174,75,89,94,82
2025-02-25 17:57:25.908,663.0,-2085.0,320.0,-119.0,75.0,202.0,173,74,89,94,82
2025-02-25 17:57:25.915,716.0,-1824.0,184.0,-122.0,52.0,202.0,174,78,90,97,85
2025-02-25 17:57:25.920,519.0,-1798.0,104.0,-121.0,49.0,192.0,177,80,92,97,87
2025-02-25 17:57:25.924,500.0,-1756.0,214.0,-105.0,49.0,193.0,175,79,93,96,85
2025-02-25 17:57:25.929,285.0,-1607.0,253.0,-106.0,41.0,196.0,176,78,95,97,84
2025-02-25 17:57:25.936,286.0,-1720.0,270.0,-107.0,20.0,200.0,176,77,93,95,85
2025-02-25 17:57:25.940,191.0,-1569.0,310.0,-138.0,7.0,206.0,175,77,93,96,85
2025-02-25 17:57:25.944,151.0,-1287.0,301.0,-132.0,13.0,212.0,173,75,91,93,80
2025-02-25 17:57:25.948,184.0,-1260.0,283.0,-122.0,16.0,214.0,172,77,92,92,81
2025-02-25 17:57:25.957,141.0,-1159.0,254.0,-117.0,19.0,214.0,174,76,95,94,84
2025-02-25 17:57:25.961,92.0,-1100.0,335.0,-92.0,17.0,217.0,180,84,99,101,90
2025-02-25 17:57:25.965,21.0,-959.0,355.0,-89.0,15.0,220.0,177,83,99,99,89
2025-02-25 17:57:25.969,-14.0,-917.0,349.0,-92.0,15.0,222.0,178,82,96,98,86
2025-02-25 17:57:25.977,-167.0,-882.0,328.0,-114.0,18.0,228.0,188,93,107,102,98
2025-02-25 17:57:25.981,-293.0,-882.0,173.0,-87.0,14.0,234.0,179,84,97,99,88
2025-02-25 17:57:25.985,-319.0,-533.0,158.0,-67.0,18.0,238.0,178,81,96,99,88
2025-02-25 17:57:25.989,-330.0,-563.0,127.0,-46.0,23.0,239.0,182,84,99,103,92
2025-02-25 17:57:25.997,-419.0,-472.0,113.0,-40.0,30.0,236.0,178,84,96,97,86
2025-02-25 17:57:26.001,-584.0,-236.0,41.0,-37.0,34.0,234.0,172,75,88,91,82
2025-02-25 17:57:26.006,-556.0,-229.0,83.0,-54.0,38.0,233.0,170,74,92,91,82
2025-02-25 17:57:26.010,-610.0,-75.0,-34.0,-34.0,40.0,224.0,172,76,91,93,82
2025-02-25 17:57:26.014,-647.0,2.0,12.0,-30.0,43.0,206.0,173,80,97,99,85
2025-02-25 17:57:26.022,-653.0,142.0,79.0,-24.0,45.0,196.0,170,76,90,93,81
2025-02-25 17:57:26.026,-722.0,172.0,-12.0,-22.0,56.0,171.0,170,76,91,87,82
2025-02-25 17:57:26.030,-679.0,260.0,24.0,-30.0,55.0,143.0,173,78,95,96,83
2025-02-25 17:57:26.034,-704.0,240.0,-146.0,-41.0,51.0,121.0,167,74,89,94,81
2025-02-25 17:57:26.039,-769.0,97.0,-276.0,-39.0,36.0,115.0,170,78,92,96,82
2025-02-25 17:57:26.046,-822.0,129.0,-192.0,-58.0,40.0,99.0,167,79,90,93,76
2025-02-25 17:57:26.050,-786.0,170.0,-111.0,-83.0,56.0,90.0,164,75,91,93,80
2025-02-25 17:57:26.055,-742.0,-98.0,243.0,-58.0,99.0,85.0,168,80,95,101,85
2025-02-25 17:57:26.059,-876.0,26.0,-94.0,-55.0,105.0,77.0,164,77,93,95,83
2025-02-25 17:57:26.064,-904.0,-6.0,-183.0,-28.0,104.0,63.0,163,74,91,95,82
2025-02-25 17:57:26.071,-791.0,55.0,-194.0,-4.0,97.0,61.0,165,79,93,97,83
2025-02-25 17:57:26.076,-948.0,-126.0,-229.0,-22.0,81.0,61.0,164,79,93,96,83
2025-02-25 17:57:26.080,-962.0,-77.0,-206.0,3.0,76.0,58.0,162,75,91,96,81
2025-02-25 17:57:26.084,-1038.0,-102.0,-375.0,-24.0,52.0,58.0,164,77,93,96,82
2025-02-25 17:57:26.092,-985.0,-25.0,-291.0,-49.0,38.0,58.0,166,80,93,98,83
2025-02-25 17:57:26.096,-952.0,64.0,-330.0,-47.0,28.0,56.0,161,77,92,96,83
2025-02-25 17:57:26.100,-1003.0,91.0,-327.0,-42.0,6.0,55.0,161,79,93,96,84
2025-02-25 17:57:26.104,-942.0,80.0,-326.0,-46.0,-9.0,49.0,162,80,95,97,84
2025-02-25 17:57:26.109,-950.0,239.0,-355.0,-46.0,-13.0,43.0,159,79,95,98,82
2025-02-25 17:57:26.116,-895.0,229.0,-204.0,-50.0,-22.0,44.0,160,80,92,94,81
2025-02-25 17:57:26.120,-973.0,164.0,-240.0,-43.0,-28.0,44.0,162,82,97,99,86
2025-02-25 17:57:26.124,-916.0,165.0,-244.0,-47.0,-28.0,38.0,160,83,97,98,85
2025-02-25 17:57:26.129,-894.0,216.0,-155.0,-46.0,-24.0,34.0,159,84,99,98,86
2025-02-25 17:57:26.136,-887.0,155.0,-179.0,-34.0,-24.0,26.0,162,85,99,101,89
2025-02-25 17:57:26.140,-859.0,188.0,-139.0,-30.0,-19.0,12.0,160,84,99,100,88
2025-02-25 17:57:26.144,-860.0,193.0,-182.0,-2.0,-13.0,-3.0,159,86,101,100,87
2025-02-25 17:57:26.149,-841.0,186.0,-334.0,14.0,-4.0,-11.0,159,84,99,100,89
2025-02-25 17:57:26.156,-773.0,275.0,-364.0,41.0,-5.0,-19.0,165,91,104,103,93
2025-02-25 17:57:26.162,-853.0,336.0,-478.0,65.0,-15.0,-27.0,163,89,108,105,93
2025-02-25 17:57:26.165,-884.0,436.0,-493.0,85.0,-21.0,-36.0,159,89,107,103,95
2025-02-25 17:57:26.170,-904.0,520.0,-408.0,100.0,-33.0,-42.0,158,93,107,104,93
2025-02-25 17:57:26.178,-933.0,462.0,-351.0,127.0,-43.0,-53.0,163,101,116,108,98
2025-02-25 17:57:26.182,-1021.0,553.0,-279.0,131.0,-58.0,-81.0,162,104,116,107,98
2025-02-25 17:57:26.186,-1048.0,670.0,-233.0,132.0,-76.0,-112.0,161,105,115,107,100
2025-02-25 17:57:26.194,-895.0,636.0,-250.0,140.0,-85.0,-136.0,156,105,109,101,92
2025-02-25 17:57:26.198,-814.0,612.0,-301.0,168.0,-86.0,-162.0,156,109,114,103,95
2025-02-25 17:57:26.203,-734.0,557.0,-337.0,187.0,-97.0,-184.0,153,111,115,98,93
2025-02-25 17:57:26.210,-770.0,507.0,-184.0,201.0,-108.0,-199.0,158,119,121,104,97
2025-02-25 17:57:26.215,-726.0,480.0,-47.0,201.0,-120.0,-230.0,151,116,120,100,94
2025-02-25 17:57:26.219,-724.0,438.0,105.0,212.0,-129.0,-258.0,146,115,117,97,90
2025-02-25 17:57:26.227,-717.0,568.0,156.0,218.0,-126.0,-287.0,142,116,123,100,90
2025-02-25 17:57:26.231,-667.0,445.0,345.0,218.0,-124.0,-317.0,141,117,118,95,88
2025-02-25 17:57:26.235,-614.0,396.0,232.0,207.0,-132.0,-356.0,133,115,128,91,84
2025-02-25 17:57:26.243,-312.0,383.0,314.0,193.0,-132.0,-392.0,125,113,117,88,83
2025-02-25 17:57:26.248,-75.0,316.0,306.0,149.0,-138.0,-414.0,124,113,118,92,83
2025-02-25 17:57:26.252,214.0,146.0,424.0,116.0,-144.0,-451.0,124,116,119,93,86
2025-02-25 17:57:26.259,578.0,-189.0,402.0,117.0,-160.0,-465.0,122,119,120,93,86
2025-02-25 17:57:26.263,874.0,-470.0,509.0,119.0,-160.0,-475.0,122,121,124,96,89
2025-02-25 17:57:26.268,981.0,-1313.0,683.0,79.0,-157.0,-490.0,123,123,125,97,88
2025-02-25 17:57:26.276,1078.0,-1593.0,861.0,36.0,-155.0,-483.0,123,127,126,99,90
2025-02-25 17:57:26.280,1533.0,-2199.0,1252.0,60.0,-134.0,-455.0,132,135,134,107,100
2025-02-25 17:57:26.284,1914.0,-2875.0,1562.0,77.0,-101.0,-395.0,134,144,139,109,107
2025-02-25 17:57:26.292,2091.0,-3282.0,1600.0,113.0,-62.0,-309.0,135,146,138,110,104
2025-02-25 17:57:26.296,2391.0,-3406.0,1706.0,153.0,-29.0,-221.0,126,139,131,100,95
2025-02-25 17:57:26.305,2564.0,-3526.0,1687.0,137.0,16.0,-127.0,120,135,124,94,87
2025-02-25 17:57:26.309,2524.0,-3640.0,1726.0,130.0,56.0,-33.0,118,134,124,92,86
2025-02-25 17:57:26.313,2357.0,-3602.0,1621.0,114.0,85.0,50.0,119,136,124,92,87
2025-02-25 17:57:26.317,2165.0,-3326.0,1388.0,59.0,93.0,115.0,120,135,124,94,86
2025-02-25 17:57:26.325,1758.0,-3189.0,1280.0,3.0,97.0,143.0,125,142,130,98,93
2025-02-25 17:57:26.329,1383.0,-2827.0,1153.0,-45.0,93.0,182.0,126,141,130,98,91
2025-02-25 17:57:26.334,1064.0,-2517.0,964.0,-60.0,68.0,201.0,123,139,128,97,90
2025-02-25 17:57:26.342,713.0,-2143.0,782.0,-112.0,51.0,211.0,119,135,123,91,84
2025-02-25 17:57:26.346,572.0,-1988.0,593.0,-150.0,36.0,210.0,118,134,120,89,81
2025-02-25 17:57:26.350,404.0,-1862.0,448.0,-170.0,16.0,208.0,119,136,125,92,85
2025-02-25 17:57:26.358,288.0,-1852.0,340.0,-188.0,-14.0,196.0,124,150,128,98,87
2025-02-25 17:57:26.362,297.0,-1738.0,479.0,-173.0,-22.0,181.0,124,140,131,101,91
2025-02-25 17:57:26.366,198.0,-1700.0,430.0,-169.0,-30.0,167.0,123,137,126,96,88
2025-02-25 17:57:26.374,224.0,-1678.0,541.0,-125.0,-30.0,159.0,121,137,126,98,88
2025-02-25 17:57:26.379,181.0,-1573.0,479.0,-114.0,-19.0,159.0,121,137,129,95,87
2025-02-25 17:57:26.383,183.0,-1509.0,504.0,-84.0,-26.0,159.0,118,138,127,96,86
2025-02-25 17:57:26.387,180.0,-1480.0,517.0,-75.0,-18.0,164.0,120,139,129,95,86
2025-02-25 17:57:26.395,141.0,-1346.0,384.0,-62.0,-16.0,171.0,119,137,129,96,87
2025-02-25 17:57:26.399,91.0,-1259.0,477.0,-52.0,-9.0,178.0,117,138,128,95,86
2025-02-25 17:57:26.403,79.0,-1128.0,468.0,-43.0,-4.0,185.0,118,137,125,96,85
