timestamp,ax,ay,az,gx,gy,gz,flex1,flex2,flex3,flex4,flex5,emg1,emg2,emg3
2025-02-25 18:38:45.150,-317.0,-973.0,95.0,-2.0,-2.0,-2.0,149,86,102,119,104
2025-02-25 18:38:45.156,-329.0,-956.0,116.0,0.0,1.0,-2.0,152,89,104,121,106
2025-02-25 18:38:45.158,-328.0,-959.0,110.0,0.0,1.0,-2.0,152,90,106,121,108
2025-02-25 18:38:45.160,-328.0,-955.0,110.0,-1.0,0.0,-2.0,152,90,105,120,108
2025-02-25 18:38:45.163,-332.0,-958.0,106.0,-1.0,0.0,-2.0,151,90,104,120,107
2025-02-25 18:38:45.165,-327.0,-959.0,108.0,-2.0,0.0,-2.0,153,91,107,122,108
2025-02-25 18:38:45.167,-322.0,-956.0,110.0,-2.0,-1.0,-2.0,150,88,102,120,107
2025-02-25 18:38:45.170,-325.0,-954.0,109.0,-1.0,-1.0,-2.0,150,88,102,118,104
2025-02-25 18:38:45.173,-321.0,-955.0,109.0,-1.0,-1.0,-2.0,153,87,105,122,111
2025-02-25 18:38:45.175,-314.0,-957.0,110.0,-1.0,-1.0,-1.0,153,89,104,120,109
2025-02-25 18:38:45.177,-315.0,-959.0,115.0,0.0,0.0,-1.0,151,87,103,118,105
2025-02-25 18:38:45.180,-314.0,-956.0,109.0,1.0,0.0,-1.0,153,90,106,121,108
2025-02-25 18:38:45.182,-315.0,-954.0,110.0,1.0,0.0,-1.0,152,89,101,120,105
2025-02-25 18:38:45.185,-316.0,-950.0,110.0,1.0,0.0,-1.0,153,90,105,120,108
2025-02-25 18:38:45.188,-320.0,-946.0,108.0,1.0,0.0,-1.0,154,90,106,121,108
2025-02-25 18:38:45.190,-323.0,-946.0,107.0,1.0,0.0,-1.0,151,89,103,119,107
2025-02-25 18:38:45.193,-325.0,-946.0,104.0,1.0,0.0,-1.0,152,90,105,122,108
2025-02-25 18:38:45.195,-325.0,-951.0,101.0,1.0,-1.0,-1.0,153,91,107,122,109
2025-02-25 18:38:45.198,-328.0,-952.0,101.0,1.0,-1.0,-1.0,150,88,103,117,105
2025-02-25 18:38:45.200,-324.0,-950.0,100.0,1.0,-2.0,-1.0,153,91,106,121,108
2025-02-25 18:38:45.203,-323.0,-951.0,103.0,1.0,-2.0,-1.0,152,90,104,121,108
2025-02-25 18:38:45.205,-324.0,-950.0,102.0,1.0,-2.0,-1.0,152,90,104,121,107
2025-02-25 18:38:45.207,-320.0,-957.0,104.0,1.0,-2.0,-1.0,153,90,104,121,108
2025-02-25 18:38:45.209,-318.0,-954.0,105.0,1.0,-3.0,-1.0,152,90,104,122,108
2025-02-25 18:38:45.212,-319.0,-952.0,112.0,1.0,-2.0,-1.0,151,88,103,120,106
2025-02-25 18:38:45.214,-319.0,-952.0,112.0,2.0,-3.0,0.0,154,93,106,123,110
2025-02-25 18:38:45.216,-320.0,-953.0,111.0,1.0,-3.0,-1.0,152,90,104,121,107
2025-02-25 18:38:45.218,-326.0,-949.0,116.0,1.0,-3.0,-1.0,151,88,102,119,105
2025-02-25 18:38:45.220,-327.0,-952.0,118.0,2.0,-3.0,-1.0,153,92,106,122,108
2025-02-25 18:38:45.223,-324.0,-952.0,125.0,1.0,-3.0,-1.0,153,91,107,122,109
2025-02-25 18:38:45.225,-322.0,-944.0,122.0,2.0,-3.0,0.0,150,87,103,120,107
2025-02-25 18:38:45.227,-322.0,-949.0,126.0,2.0,-2.0,-1.0,153,90,105,121,108
2025-02-25 18:38:45.230,-322.0,-942.0,124.0,2.0,-2.0,-1.0,152,90,104,120,107
2025-02-25 18:38:45.232,-328.0,-943.0,125.0,3.0,-2.0,-1.0,153,91,105,119,107
2025-02-25 18:38:45.234,-328.0,-942.0,125.0,3.0,-2.0,-1.0,152,91,106,123,107
2025-02-25 18:38:45.237,-332.0,-935.0,123.0,2.0,-2.0,-1.0,152,89,105,123,108
2025-02-25 18:38:45.239,-334.0,-933.0,125.0,3.0,-2.0,-1.0,152,88,103,118,105
2025-02-25 18:38:45.241,-332.0,-932.0,122.0,2.0,-2.0,-1.0,155,92,109,125,110
2025-02-25 18:38:45.244,-334.0,-935.0,123.0,3.0,-3.0,-2.0,152,91,106,121,108
2025-02-25 18:38:45.246,-335.0,-936.0,123.0,2.0,-3.0,-2.0,151,92,103,120,106
2025-02-25 18:38:45.249,-337.0,-942.0,125.0,2.0,-3.0,-2.0,153,90,105,121,108
2025-02-25 18:38:45.251,-332.0,-942.0,126.0,2.0,-3.0,-2.0,155,93,108,124,110
2025-02-25 18:38:45.254,-333.0,-947.0,126.0,2.0,-3.0,-2.0,153,89,104,120,106
2025-02-25 18:38:45.256,-331.0,-945.0,125.0,1.0,-3.0,-2.0,152,92,106,122,108
2025-02-25 18:38:45.258,-332.0,-957.0,130.0,1.0,-3.0,-2.0,152,90,105,120,108
2025-02-25 18:38:45.261,-330.0,-960.0,133.0,1.0,-3.0,-2.0,153,91,106,122,108
2025-02-25 18:38:45.263,-331.0,-962.0,130.0,1.0,-3.0,-2.0,153,91,106,122,108
2025-02-25 18:38:45.266,-333.0,-963.0,133.0,2.0,-3.0,-2.0,152,90,104,121,108
2025-02-25 18:38:45.268,-335.0,-964.0,137.0,1.0,-3.0,-1.0,151,89,103,120,105
2025-02-25 18:38:45.270,-327.0,-965.0,140.0,1.0,-3.0,-1.0,155,92,107,124,110
2025-02-25 18:38:45.273,-332.0,-965.0,141.0,1.0,-2.0,-1.0,153,89,106,123,108
2025-02-25 18:38:45.275,-328.0,-961.0,142.0,1.0,-2.0,-1.0,150,89,103,120,106
2025-02-25 18:38:45.277,-326.0,-959.0,139.0,1.0,-2.0,-1.0,150,88,103,120,107
2025-02-25 18:38:45.280,-322.0,-959.0,142.0,0.0,-2.0,-1.0,156,92,110,124,111
2025-02-25 18:38:45.282,-323.0,-955.0,146.0,1.0,-1.0,-1.0,152,90,105,120,107
2025-02-25 18:38:45.285,-324.0,-953.0,145.0,1.0,-1.0,-1.0,150,88,104,120,106
2025-02-25 18:38:45.287,-322.0,-954.0,142.0,1.0,-1.0,-1.0,153,91,104,121,108
2025-02-25 18:38:45.290,-319.0,-958.0,141.0,0.0,-1.0,-1.0,156,95,108,125,111
2025-02-25 18:38:45.294,-314.0,-957.0,141.0,1.0,-1.0,-1.0,150,89,103,119,106
2025-02-25 18:38:45.299,-312.0,-958.0,141.0,0.0,0.0,-1.0,151,91,104,119,106
2025-02-25 18:38:45.303,-318.0,-956.0,139.0,0.0,0.0,-1.0,152,91,107,123,108
2025-02-25 18:38:45.307,-318.0,-956.0,134.0,1.0,-1.0,0.0,155,92,108,125,111
2025-02-25 18:38:45.314,-316.0,-952.0,135.0,1.0,-1.0,-1.0,151,89,103,120,106
2025-02-25 18:38:45.318,-319.0,-953.0,134.0,0.0,0.0,-1.0,153,91,105,121,108
2025-02-25 18:38:45.323,-322.0,-950.0,130.0,0.0,-1.0,0.0,152,89,103,120,108
2025-02-25 18:38:45.327,-322.0,-950.0,129.0,0.0,-1.0,-1.0,153,91,106,121,107
2025-02-25 18:38:45.331,-322.0,-943.0,127.0,0.0,-1.0,0.0,153,92,106,122,107
2025-02-25 18:38:45.339,-321.0,-943.0,127.0,-1.0,-1.0,0.0,152,91,105,122,109
2025-02-25 18:38:45.343,-323.0,-945.0,125.0,-1.0,-1.0,-1.0,149,88,103,119,106
2025-02-25 18:38:45.347,-328.0,-943.0,125.0,-1.0,-1.0,-1.0,151,89,104,120,107
2025-02-25 18:38:45.352,-331.0,-943.0,126.0,-1.0,-1.0,-1.0,152,90,105,122,108
2025-02-25 18:38:45.359,-333.0,-939.0,125.0,-1.0,-2.0,-1.0,153,89,105,121,107
2025-02-25 18:38:45.364,-330.0,-939.0,126.0,-1.0,-1.0,-1.0,150,88,96,121,107
2025-02-25 18:38:45.368,-328.0,-940.0,130.0,-1.0,-2.0,-1.0,154,92,107,122,108
2025-02-25 18:38:45.372,-328.0,-938.0,128.0,0.0,-2.0,-1.0,153,90,105,121,108
2025-02-25 18:38:45.380,-332.0,-934.0,122.0,0.0,-1.0,-1.0,151,90,104,122,108
2025-02-25 18:38:45.384,-330.0,-931.0,126.0,0.0,-1.0,-2.0,152,88,104,120,106
2025-02-25 18:38:45.389,-332.0,-940.0,128.0,0.0,-2.0,-2.0,154,92,106,123,109
2025-02-25 18:38:45.393,-332.0,-939.0,129.0,1.0,-2.0,-2.0,152,90,105,121,108
2025-02-25 18:38:45.401,-328.0,-940.0,122.0,1.0,-2.0,-2.0,150,89,102,121,107
2025-02-25 18:38:45.405,-332.0,-944.0,129.0,1.0,-1.0,-3.0,152,90,106,122,108
2025-02-25 18:38:45.409,-325.0,-949.0,129.0,1.0,-1.0,-2.0,152,91,105,122,109
2025-02-25 18:38:45.414,-329.0,-956.0,132.0,1.0,-1.0,-2.0,152,88,103,120,106
2025-02-25 18:38:45.421,-328.0,-955.0,131.0,1.0,-1.0,-2.0,152,89,104,120,107
2025-02-25 18:38:45.425,-326.0,-963.0,131.0,1.0,-1.0,-1.0,152,91,106,120,108
2025-02-25 18:38:45.430,-324.0,-961.0,133.0,1.0,-1.0,-2.0,152,91,105,123,109
2025-02-25 18:38:45.434,-322.0,-963.0,129.0,1.0,-1.0,-1.0,150,88,102,118,106
2025-02-25 18:38:45.438,-326.0,-967.0,131.0,0.0,-1.0,-1.0,152,89,105,121,108
2025-02-25 18:38:45.446,-329.0,-963.0,130.0,0.0,-2.0,-1.0,152,90,105,122,109
2025-02-25 18:38:45.450,-325.0,-963.0,132.0,0.0,-2.0,-1.0,153,91,105,120,107
2025-02-25 18:38:45.454,-319.0,-969.0,131.0,-1.0,-2.0,-1.0,150,88,103,118,106
2025-02-25 18:38:45.459,-325.0,-960.0,131.0,-1.0,-2.0,-1.0,152,92,103,122,108
2025-02-25 18:38:45.465,-321.0,-960.0,138.0,-1.0,-3.0,0.0,152,90,105,120,108
2025-02-25 18:38:45.471,-315.0,-959.0,135.0,-1.0,-2.0,0.0,151,88,104,118,108
2025-02-25 18:38:45.474,-314.0,-959.0,134.0,-1.0,-2.0,0.0,152,91,102,120,107
2025-02-25 18:38:45.478,-316.0,-962.0,134.0,-1.0,-2.0,0.0,153,89,106,123,109
2025-02-25 18:38:45.486,-316.0,-954.0,132.0,0.0,-2.0,1.0,151,85,104,120,106
2025-02-25 18:38:45.491,-313.0,-957.0,134.0,0.0,-2.0,1.0,151,88,103,119,105
2025-02-25 18:38:45.494,-321.0,-956.0,134.0,0.0,-2.0,1.0,152,88,106,122,109
2025-02-25 18:38:45.499,-323.0,-955.0,129.0,0.0,-2.0,1.0,151,90,105,119,109
2025-02-25 18:38:45.503,-329.0,-949.0,133.0,0.0,-2.0,1.0,151,93,103,120,106
2025-02-25 18:38:45.511,-330.0,-947.0,131.0,0.0,-2.0,1.0,153,91,106,123,109
2025-02-25 18:38:45.515,-335.0,-943.0,134.0,0.0,-1.0,1.0,153,93,104,120,108
2025-02-25 18:38:45.519,-334.0,-941.0,134.0,0.0,-2.0,0.0,150,88,102,119,105
2025-02-25 18:38:45.523,-332.0,-936.0,138.0,0.0,-2.0,0.0,157,91,106,121,109
2025-02-25 18:38:45.528,-330.0,-935.0,138.0,1.0,-2.0,0.0,152,91,106,122,108
2025-02-25 18:38:45.535,-330.0,-934.0,139.0,0.0,-2.0,0.0,150,88,102,121,104
2025-02-25 18:38:45.540,-333.0,-937.0,134.0,0.0,-1.0,0.0,153,89,106,121,109
2025-02-25 18:38:45.545,-330.0,-939.0,146.0,1.0,-1.0,0.0,152,90,106,121,108
2025-02-25 18:38:45.549,-328.0,-937.0,141.0,0.0,-1.0,0.0,150,89,104,119,107
2025-02-25 18:38:45.556,-332.0,-940.0,142.0,0.0,-1.0,-1.0,153,91,106,121,108
2025-02-25 18:38:45.561,-328.0,-941.0,142.0,0.0,-1.0,-1.0,153,92,106,123,108
2025-02-25 18:38:45.565,-325.0,-939.0,138.0,0.0,-1.0,-1.0,151,89,104,120,107
2025-02-25 18:38:45.569,-324.0,-941.0,138.0,0.0,-1.0,-1.0,151,89,103,120,106
2025-02-25 18:38:45.576,-330.0,-939.0,136.0,0.0,-1.0,-1.0,153,90,104,122,108
2025-02-25 18:38:45.581,-327.0,-947.0,137.0,0.0,-2.0,-1.0,152,89,104,122,108
2025-02-25 18:38:45.585,-331.0,-948.0,136.0,-1.0,-1.0,-1.0,148,88,103,119,105
2025-02-25 18:38:45.589,-330.0,-947.0,140.0,-1.0,-2.0,-1.0,153,91,106,123,108
2025-02-25 18:38:45.597,-329.0,-950.0,141.0,-1.0,-2.0,-1.0,152,91,106,121,108
2025-02-25 18:38:45.601,-323.0,-948.0,133.0,-1.0,-2.0,-2.0,151,88,104,120,107
2025-02-25 18:38:45.606,-324.0,-950.0,133.0,-2.0,-2.0,-1.0,150,88,103,119,105
2025-02-25 18:38:45.610,-331.0,-951.0,134.0,-1.0,-2.0,-1.0,153,89,105,122,109
2025-02-25 18:38:45.617,-321.0,-949.0,139.0,-1.0,-2.0,-1.0,153,90,111,121,108
2025-02-25 18:38:45.622,-321.0,-950.0,139.0,-1.0,-2.0,-1.0,150,89,103,119,107
2025-02-25 18:38:45.626,-321.0,-952.0,139.0,-1.0,-1.0,-1.0,152,88,103,120,106
2025-02-25 18:38:45.630,-319.0,-950.0,138.0,0.0,-1.0,-1.0,152,91,106,123,108
2025-02-25 18:38:45.638,-326.0,-955.0,137.0,0.0,-1.0,-1.0,153,90,105,121,107
2025-02-25 18:38:45.642,-324.0,-959.0,134.0,0.0,-1.0,-1.0,150,88,103,119,106
2025-02-25 18:38:45.646,-328.0,-955.0,135.0,0.0,-1.0,-1.0,151,90,104,120,106
2025-02-25 18:38:45.651,-331.0,-950.0,133.0,0.0,-1.0,-1.0,153,91,106,122,109
2025-02-25 18:38:45.655,-327.0,-952.0,136.0,0.0,-1.0,-1.0,150,89,105,120,107
2025-02-25 18:38:45.663,-330.0,-958.0,139.0,-1.0,-2.0,-1.0,151,88,104,121,106
2025-02-25 18:38:45.667,-330.0,-962.0,139.0,-1.0,-2.0,-1.0,152,90,105,122,109
2025-02-25 18:38:45.672,-328.0,-962.0,143.0,-2.0,-2.0,0.0,153,91,106,123,109
2025-02-25 18:38:45.676,-326.0,-960.0,145.0,-2.0,-2.0,0.0,149,89,103,119,106
2025-02-25 18:38:45.683,-323.0,-964.0,150.0,-1.0,-1.0,0.0,151,88,102,118,105
2025-02-25 18:38:45.688,-323.0,-966.0,147.0,-1.0,-1.0,0.0,153,91,105,123,110
2025-02-25 18:38:45.692,-328.0,-957.0,149.0,-2.0,-1.0,1.0,152,90,106,121,108
2025-02-25 18:38:45.696,-318.0,-960.0,151.0,-1.0,-1.0,1.0,150,88,101,119,106
2025-02-25 18:38:45.704,-319.0,-954.0,153.0,-2.0,0.0,1.0,153,91,106,122,108
2025-02-25 18:38:45.708,-318.0,-956.0,151.0,-1.0,0.0,1.0,154,92,108,124,110
2025-02-25 18:38:45.712,-318.0,-950.0,153.0,-2.0,0.0,1.0,149,88,102,119,105
2025-02-25 18:38:45.717,-324.0,-947.0,145.0,-2.0,0.0,1.0,152,91,106,122,108
2025-02-25 18:38:45.721,-327.0,-946.0,150.0,-2.0,0.0,0.0,152,90,107,122,109
2025-02-25 18:38:45.728,-330.0,-944.0,146.0,-2.0,0.0,1.0,151,87,103,121,106
2025-02-25 18:38:45.733,-327.0,-945.0,145.0,-2.0,0.0,1.0,152,90,105,121,109
2025-02-25 18:38:45.737,-326.0,-942.0,147.0,-2.0,0.0,0.0,152,91,105,121,108
2025-02-25 18:38:45.741,-331.0,-946.0,140.0,-2.0,0.0,0.0,151,88,103,120,106
2025-02-25 18:38:45.749,-333.0,-942.0,136.0,-2.0,0.0,0.0,150,89,103,120,106
2025-02-25 18:38:45.756,-329.0,-947.0,140.0,-2.0,0.0,0.0,152,92,106,123,106
2025-02-25 18:38:45.758,-333.0,-942.0,135.0,-2.0,0.0,0.0,150,88,102,119,107
2025-02-25 18:38:45.762,-331.0,-941.0,137.0,-2.0,0.0,0.0,150,88,102,118,105
2025-02-25 18:38:45.766,-331.0,-935.0,135.0,-2.0,1.0,0.0,153,92,106,123,109
2025-02-25 18:38:45.773,-330.0,-937.0,132.0,-2.0,1.0,0.0,150,87,104,120,108
2025-02-25 18:38:45.778,-332.0,-936.0,131.0,-2.0,1.0,0.0,149,87,104,120,106
2025-02-25 18:38:45.782,-335.0,-934.0,133.0,-2.0,1.0,0.0,152,90,105,122,109
2025-02-25 18:38:45.786,-337.0,-936.0,132.0,-2.0,0.0,0.0,152,90,106,123,108
2025-02-25 18:38:45.791,-336.0,-934.0,129.0,-2.0,1.0,-1.0,150,88,105,119,106
2025-02-25 18:38:45.798,-335.0,-932.0,127.0,-2.0,0.0,-1.0,153,91,106,121,110
2025-02-25 18:38:45.803,-333.0,-932.0,128.0,-2.0,0.0,-1.0,152,89,106,123,108
2025-02-25 18:38:45.807,-332.0,-937.0,132.0,-2.0,0.0,-1.0,150,88,103,119,108
2025-02-25 18:38:45.811,-334.0,-940.0,125.0,-2.0,0.0,-1.0,153,91,106,122,108
2025-02-25 18:38:45.819,-331.0,-946.0,130.0,-2.0,0.0,-1.0,153,91,106,121,108
2025-02-25 18:38:45.823,-333.0,-952.0,127.0,-2.0,0.0,-2.0,151,89,103,121,106
2025-02-25 18:38:45.827,-333.0,-945.0,124.0,-2.0,0.0,-1.0,151,90,105,121,108
2025-02-25 18:38:45.832,-334.0,-952.0,128.0,-1.0,0.0,-1.0,152,88,104,121,109
2025-02-25 18:38:45.839,-328.0,-955.0,126.0,-2.0,0.0,-1.0,152,89,104,120,107
2025-02-25 18:38:45.843,-334.0,-956.0,123.0,-1.0,0.0,-1.0,152,89,103,119,107
2025-02-25 18:38:45.848,-330.0,-957.0,128.0,-2.0,0.0,-1.0,156,94,108,124,110
2025-02-25 18:38:45.852,-332.0,-953.0,128.0,-1.0,-1.0,-1.0,153,90,106,121,107
2025-02-25 18:38:45.859,-330.0,-946.0,130.0,-1.0,-1.0,-1.0,150,88,103,120,107
2025-02-25 18:38:45.863,-328.0,-946.0,137.0,-2.0,-1.0,-1.0,149,90,104,120,107
2025-02-25 18:38:45.868,-326.0,-940.0,140.0,-2.0,-1.0,-1.0,158,94,109,125,111
2025-02-25 18:38:45.872,-324.0,-937.0,139.0,-2.0,0.0,-1.0,152,90,105,122,108
2025-02-25 18:38:45.879,-321.0,-935.0,144.0,-2.0,0.0,-2.0,151,88,104,120,106
2025-02-25 18:38:45.884,-324.0,-937.0,142.0,-2.0,0.0,-2.0,149,88,102,120,104
2025-02-25 18:38:45.888,-322.0,-936.0,143.0,-2.0,0.0,-2.0,154,93,108,124,111
2025-02-25 18:38:45.892,-320.0,-939.0,145.0,-2.0,0.0,-2.0,152,91,105,122,109
2025-02-25 18:38:45.897,-322.0,-941.0,147.0,-2.0,0.0,-2.0,150,88,103,119,106
2025-02-25 18:38:45.904,-325.0,-941.0,142.0,-2.0,1.0,-2.0,152,91,106,122,108
2025-02-25 18:38:45.908,-328.0,-949.0,144.0,-3.0,1.0,-2.0,153,92,108,123,111
2025-02-25 18:38:45.913,-332.0,-952.0,137.0,-3.0,0.0,-2.0,150,88,104,120,106
2025-02-25 18:38:45.917,-332.0,-950.0,138.0,-3.0,0.0,-2.0,150,89,103,120,107
2025-02-25 18:38:45.924,-334.0,-953.0,137.0,-3.0,1.0,-2.0,153,91,105,121,108
2025-02-25 18:38:45.929,-329.0,-956.0,135.0,-3.0,0.0,-2.0,153,91,105,122,109
2025-02-25 18:38:45.933,-333.0,-956.0,133.0,-3.0,0.0,-2.0,151,89,104,118,106
2025-02-25 18:38:45.938,-334.0,-957.0,135.0,-4.0,0.0,-2.0,153,90,106,123,108
2025-02-25 18:38:45.945,-335.0,-959.0,137.0,-4.0,0.0,-2.0,152,90,105,122,108
2025-02-25 18:38:45.949,-334.0,-959.0,135.0,-4.0,0.0,-1.0,151,90,104,121,107
2025-02-25 18:38:45.954,-332.0,-958.0,137.0,-3.0,0.0,-1.0,152,89,104,121,107
2025-02-25 18:38:45.958,-327.0,-954.0,131.0,-3.0,1.0,-1.0,152,91,106,122,108
2025-02-25 18:38:45.965,-330.0,-955.0,131.0,-3.0,1.0,-1.0,150,88,104,119,106
2025-02-25 18:38:45.970,-331.0,-948.0,129.0,-2.0,1.0,-1.0,152,90,104,121,108
2025-02-25 18:38:45.974,-330.0,-942.0,131.0,-3.0,1.0,-1.0,152,90,106,122,109
2025-02-25 18:38:45.978,-333.0,-946.0,128.0,-3.0,2.0,-1.0,151,90,105,120,107
2025-02-25 18:38:45.983,-325.0,-942.0,126.0,-2.0,1.0,-1.0,149,88,103,119,107
2025-02-25 18:38:45.990,-324.0,-941.0,127.0,-2.0,2.0,-1.0,154,92,107,123,109
2025-02-25 18:38:45.994,-324.0,-940.0,123.0,-2.0,1.0,-1.0,152,90,106,122,108
2025-02-25 18:38:45.998,-327.0,-940.0,117.0,-2.0,1.0,-1.0,151,88,103,119,106
2025-02-25 18:38:46.003,-329.0,-939.0,115.0,-2.0,1.0,-2.0,151,89,103,119,106
2025-02-25 18:38:46.011,-330.0,-940.0,109.0,-2.0,1.0,-1.0,153,92,106,122,109
2025-02-25 18:38:46.016,-324.0,-943.0,118.0,-2.0,0.0,-2.0,150,89,105,121,107
2025-02-25 18:38:46.020,-326.0,-944.0,111.0,-2.0,0.0,-2.0,150,88,104,120,106
2025-02-25 18:38:46.024,-328.0,-944.0,113.0,-2.0,0.0,-2.0,153,91,106,123,108
2025-02-25 18:38:46.032,-321.0,-949.0,116.0,-3.0,-1.0,-2.0,154,92,106,122,109
2025-02-25 18:38:46.036,-326.0,-951.0,117.0,-3.0,-1.0,-2.0,151,88,103,120,106
2025-02-25 18:38:46.040,-322.0,-958.0,122.0,-2.0,-1.0,-2.0,151,89,104,119,107
2025-02-25 18:38:46.045,-321.0,-964.0,123.0,-3.0,-1.0,-1.0,154,92,106,125,109
2025-02-25 18:38:46.052,-318.0,-960.0,126.0,-3.0,-1.0,-1.0,152,91,106,123,109
2025-02-25 18:38:46.056,-320.0,-960.0,118.0,-3.0,-1.0,-1.0,148,89,104,116,106
2025-02-25 18:38:46.061,-321.0,-959.0,119.0,-3.0,-1.0,-1.0,150,87,104,121,107
2025-02-25 18:38:46.064,-324.0,-959.0,118.0,-3.0,-1.0,0.0,153,91,107,123,109
2025-02-25 18:38:46.072,-329.0,-955.0,116.0,-2.0,-2.0,0.0,154,90,105,122,107
2025-02-25 18:38:46.076,-325.0,-954.0,113.0,-2.0,-1.0,0.0,150,89,103,120,106
2025-02-25 18:38:46.080,-328.0,-953.0,111.0,-1.0,-1.0,0.0,153,92,105,122,108
2025-02-25 18:38:46.085,-329.0,-954.0,114.0,-1.0,-1.0,0.0,154,92,104,121,108
2025-02-25 18:38:46.092,-328.0,-952.0,115.0,-1.0,-2.0,0.0,152,91,104,120,106
2025-02-25 18:38:46.097,-328.0,-956.0,117.0,0.0,-2.0,0.0,148,87,103,120,105
2025-02-25 18:38:46.101,-329.0,-944.0,112.0,0.0,-2.0,0.0,153,92,106,123,109
2025-02-25 18:38:46.105,-331.0,-949.0,108.0,1.0,-2.0,0.0,151,90,106,121,108
2025-02-25 18:38:46.109,-334.0,-946.0,113.0,1.0,-2.0,0.0,152,89,104,120,106
2025-02-25 18:38:46.117,-334.0,-946.0,116.0,1.0,-2.0,0.0,153,88,106,123,108
2025-02-25 18:38:46.121,-329.0,-948.0,117.0,2.0,-2.0,1.0,152,90,106,121,107
2025-02-25 18:38:46.125,-327.0,-947.0,114.0,1.0,-3.0,1.0,151,89,103,119,107
2025-02-25 18:38:46.130,-328.0,-950.0,118.0,1.0,-3.0,0.0,155,93,108,125,112
2025-02-25 18:38:46.134,-331.0,-947.0,119.0,1.0,-3.0,1.0,143,80,96,111,98
2025-02-25 18:38:46.142,-327.0,-945.0,121.0,1.0,-3.0,1.0,142,80,95,111,98
2025-02-25 18:38:46.146,-329.0,-949.0,126.0,1.0,-3.0,0.0,163,101,117,132,120
2025-02-25 18:38:46.150,-330.0,-946.0,131.0,1.0,-3.0,0.0,145,82,96,113,100
2025-02-25 18:38:46.155,-330.0,-949.0,130.0,1.0,-3.0,0.0,134,73,87,104,87
2025-02-25 18:38:46.159,-331.0,-953.0,129.0,0.0,-3.0,0.0,136,70,86,102,88
2025-02-25 18:38:46.167,-323.0,-948.0,139.0,0.0,-3.0,0.0,135,69,84,102,87
2025-02-25 18:38:46.171,-327.0,-955.0,139.0,0.0,-3.0,1.0,131,67,82,98,85
2025-02-25 18:38:46.175,-323.0,-952.0,150.0,0.0,-2.0,1.0,130,67,82,99,86
2025-02-25 18:38:46.179,-323.0,-944.0,149.0,0.0,-2.0,1.0,130,67,84,99,85
2025-02-25 18:38:46.183,-328.0,-947.0,144.0,0.0,-2.0,1.0,131,67,84,100,86
2025-02-25 18:38:46.187,-322.0,-947.0,148.0,0.0,-2.0,0.0,131,70,85,102,87
2025-02-25 18:38:46.195,-325.0,-948.0,147.0,0.0,-1.0,0.0,131,65,83,100,86
2025-02-25 18:38:46.199,-331.0,-946.0,147.0,0.0,-1.0,0.0,132,69,83,101,87
2025-02-25 18:38:46.203,-330.0,-949.0,141.0,0.0,-2.0,0.0,132,67,83,100,86
2025-02-25 18:38:46.207,-332.0,-948.0,139.0,-1.0,-1.0,0.0,131,69,84,100,86
2025-02-25 18:38:46.212,-331.0,-950.0,141.0,-1.0,-1.0,0.0,131,68,85,100,86
2025-02-25 18:38:46.216,-331.0,-948.0,140.0,0.0,-1.0,0.0,132,69,86,103,89
2025-02-25 18:38:46.223,-334.0,-949.0,132.0,0.0,-2.0,1.0,134,70,87,103,88
2025-02-25 18:38:46.228,-335.0,-948.0,134.0,0.0,-1.0,1.0,140,77,93,108,94
2025-02-25 18:38:46.232,-334.0,-948.0,125.0,0.0,-1.0,1.0,137,73,90,107,93
2025-02-25 18:38:46.236,-334.0,-950.0,125.0,0.0,-2.0,1.0,142,79,95,111,97
2025-02-25 18:38:46.240,-336.0,-943.0,123.0,1.0,-2.0,1.0,150,88,102,119,107
2025-02-25 18:38:46.249,-335.0,-940.0,123.0,0.0,-2.0,1.0,161,103,117,134,120
2025-02-25 18:38:46.253,-335.0,-942.0,120.0,0.0,-2.0,1.0,160,99,114,128,114
2025-02-25 18:38:46.257,-332.0,-946.0,120.0,0.0,-2.0,1.0,142,80,96,111,98
2025-02-25 18:38:46.261,-338.0,-941.0,114.0,0.0,-2.0,0.0,143,81,96,112,98
2025-02-25 18:38:46.265,-340.0,-947.0,119.0,0.0,-3.0,0.0,158,96,113,130,115
2025-02-25 18:38:46.273,-335.0,-947.0,110.0,-1.0,-4.0,0.0,154,92,107,124,110
2025-02-25 18:38:46.277,-337.0,-956.0,117.0,-1.0,-4.0,1.0,150,89,105,120,107
2025-02-25 18:38:46.281,-323.0,-958.0,120.0,-2.0,-4.0,1.0,155,91,108,124,111
2025-02-25 18:38:46.286,-321.0,-959.0,123.0,-1.0,-4.0,1.0,155,92,109,124,111
2025-02-25 18:38:46.290,-323.0,-965.0,126.0,-1.0,-4.0,1.0,151,86,102,119,102
2025-02-25 18:38:46.297,-323.0,-961.0,127.0,0.0,-4.0,2.0,160,99,117,131,119
2025-02-25 18:38:46.302,-319.0,-966.0,126.0,-1.0,-4.0,2.0,146,82,97,115,102
2025-02-25 18:38:46.306,-323.0,-959.0,123.0,-1.0,-4.0,2.0,146,84,99,116,101
2025-02-25 18:38:46.310,-328.0,-966.0,120.0,-1.0,-4.0,2.0,132,69,85,102,87
2025-02-25 18:38:46.318,-324.0,-956.0,124.0,-1.0,-4.0,2.0,138,75,89,106,95
2025-02-25 18:38:46.322,-323.0,-952.0,130.0,-1.0,-4.0,2.0,133,71,87,102,89
2025-02-25 18:38:46.326,-326.0,-956.0,116.0,-1.0,-4.0,2.0,132,71,86,99,89
2025-02-25 18:38:46.331,-325.0,-946.0,124.0,-1.0,-5.0,3.0,133,71,86,101,87
2025-02-25 18:38:46.335,-324.0,-948.0,123.0,-1.0,-4.0,3.0,132,68,84,102,87
2025-02-25 18:38:46.340,-327.0,-946.0,127.0,0.0,-5.0,3.0,134,70,86,103,88
2025-02-25 18:38:46.347,-334.0,-955.0,124.0,0.0,-5.0,3.0,134,66,83,101,86
2025-02-25 18:38:46.351,-331.0,-949.0,115.0,1.0,-5.0,3.0,130,68,84,101,86
2025-02-25 18:38:46.355,-334.0,-943.0,118.0,0.0,-5.0,2.0,133,69,87,99,87
2025-02-25 18:38:46.359,-331.0,-956.0,125.0,1.0,-6.0,3.0,132,70,84,100,87
2025-02-25 18:38:46.363,-330.0,-951.0,120.0,2.0,-6.0,3.0,131,69,83,101,87
2025-02-25 18:38:46.367,-329.0,-955.0,125.0,1.0,-6.0,3.0,133,70,86,102,88
2025-02-25 18:38:46.375,-326.0,-956.0,121.0,1.0,-7.0,3.0,138,69,85,107,91
2025-02-25 18:38:46.380,-337.0,-961.0,125.0,0.0,-6.0,3.0,133,68,83,101,88
2025-02-25 18:38:46.383,-331.0,-954.0,127.0,0.0,-6.0,3.0,132,68,84,101,88
2025-02-25 18:38:46.388,-334.0,-955.0,141.0,0.0,-5.0,3.0,134,72,85,102,87
2025-02-25 18:38:46.393,-342.0,-950.0,119.0,-1.0,-7.0,4.0,131,69,85,98,86
2025-02-25 18:38:46.396,-339.0,-952.0,129.0,0.0,-5.0,4.0,133,69,84,100,87
2025-02-25 18:38:46.404,-325.0,-941.0,179.0,-1.0,-5.0,4.0,132,69,85,101,86
2025-02-25 18:38:46.408,-344.0,-965.0,116.0,-1.0,-4.0,4.0,136,73,88,105,91
2025-02-25 18:38:46.412,-326.0,-943.0,152.0,-1.0,-5.0,4.0,169,106,122,138,125
2025-02-25 18:38:46.416,-344.0,-956.0,123.0,-3.0,-4.0,4.0,171,110,125,140,128
2025-02-25 18:38:46.424,-345.0,-947.0,148.0,-2.0,-6.0,4.0,173,113,127,142,130
2025-02-25 18:38:46.429,-339.0,-951.0,146.0,-4.0,-4.0,4.0,163,102,117,133,121
2025-02-25 18:38:46.433,-338.0,-950.0,93.0,-6.0,-5.0,4.0,156,94,109,125,114
2025-02-25 18:38:46.437,-328.0,-943.0,144.0,-6.0,-4.0,4.0,157,95,111,127,113
2025-02-25 18:38:46.445,-339.0,-934.0,143.0,-3.0,-5.0,4.0,161,101,114,131,118
2025-02-25 18:38:46.449,-328.0,-940.0,138.0,-3.0,-5.0,4.0,160,99,114,130,116
2025-02-25 18:38:46.453,-320.0,-936.0,130.0,-2.0,-4.0,4.0,167,106,120,138,123
2025-02-25 18:38:46.458,-343.0,-960.0,128.0,-4.0,-6.0,4.0,164,103,117,133,121
2025-02-25 18:38:46.466,-342.0,-959.0,140.0,-2.0,-7.0,4.0,170,109,124,138,127
2025-02-25 18:38:46.470,-345.0,-962.0,125.0,-1.0,-7.0,4.0,172,110,125,142,129
2025-02-25 18:38:46.474,-341.0,-970.0,132.0,1.0,-7.0,4.0,175,114,129,144,132
2025-02-25 18:38:46.479,-348.0,-975.0,145.0,3.0,-8.0,5.0,181,120,135,152,138
2025-02-25 18:38:46.486,-349.0,-976.0,126.0,3.0,-8.0,6.0,175,114,128,145,132
2025-02-25 18:38:46.490,-348.0,-982.0,148.0,3.0,-9.0,6.0,176,114,129,146,134
2025-02-25 18:38:46.495,-348.0,-974.0,122.0,3.0,-8.0,7.0,175,116,131,147,133
2025-02-25 18:38:46.499,-338.0,-975.0,132.0,3.0,-9.0,7.0,173,112,125,142,130
2025-02-25 18:38:46.503,-350.0,-966.0,138.0,4.0,-9.0,8.0,169,109,124,139,126
2025-02-25 18:38:46.511,-339.0,-960.0,138.0,4.0,-9.0,8.0,176,116,130,145,132
2025-02-25 18:38:46.515,-347.0,-959.0,126.0,3.0,-9.0,9.0,172,112,126,144,131
2025-02-25 18:38:46.520,-345.0,-959.0,135.0,2.0,-9.0,9.0,168,108,120,137,125
2025-02-25 18:38:46.524,-347.0,-961.0,136.0,2.0,-11.0,9.0,166,106,121,136,123
2025-02-25 18:38:46.531,-346.0,-950.0,134.0,2.0,-11.0,10.0,173,112,126,143,130
2025-02-25 18:38:46.536,-342.0,-948.0,130.0,1.0,-12.0,9.0,169,109,124,141,126
2025-02-25 18:38:46.540,-337.0,-943.0,134.0,0.0,-12.0,10.0,167,107,121,137,125
2025-02-25 18:38:46.547,-340.0,-946.0,134.0,0.0,-12.0,10.0,167,104,120,136,124
2025-02-25 18:38:46.552,-339.0,-944.0,137.0,0.0,-12.0,10.0,170,111,127,140,129
2025-02-25 18:38:46.556,-340.0,-935.0,140.0,1.0,-11.0,9.0,171,110,121,140,128
2025-02-25 18:38:46.560,-347.0,-945.0,123.0,1.0,-12.0,9.0,167,106,121,137,124
2025-02-25 18:38:46.568,-359.0,-945.0,143.0,1.0,-11.0,9.0,168,107,121,136,123
2025-02-25 18:38:46.572,-360.0,-945.0,145.0,-4.0,-9.0,9.0,171,111,127,141,129
2025-02-25 18:38:46.577,-355.0,-967.0,124.0,1.0,-12.0,9.0,170,108,123,138,126
2025-02-25 18:38:46.581,-381.0,-944.0,157.0,0.0,-11.0,10.0,168,107,121,137,124
2025-02-25 18:38:46.588,-356.0,-948.0,136.0,1.0,-12.0,10.0,166,105,119,137,124
2025-02-25 18:38:46.592,-366.0,-940.0,149.0,2.0,-10.0,10.0,172,112,126,141,129
2025-02-25 18:38:46.597,-367.0,-947.0,147.0,2.0,-11.0,10.0,171,110,125,141,128
2025-02-25 18:38:46.601,-370.0,-938.0,150.0,3.0,-11.0,10.0,168,106,123,137,125
2025-02-25 18:38:46.608,-357.0,-933.0,152.0,2.0,-11.0,11.0,171,109,125,141,128
2025-02-25 18:38:46.614,-360.0,-930.0,161.0,3.0,-10.0,11.0,170,109,124,139,128
2025-02-25 18:38:46.620,-354.0,-933.0,152.0,4.0,-10.0,11.0,171,111,125,140,129
2025-02-25 18:38:46.625,-362.0,-936.0,158.0,5.0,-10.0,11.0,170,110,124,140,129
2025-02-25 18:38:46.631,-361.0,-934.0,160.0,5.0,-9.0,11.0,169,109,123,138,126
2025-02-25 18:38:46.635,-371.0,-939.0,155.0,4.0,-9.0,11.0,172,110,124,138,128
2025-02-25 18:38:46.640,-364.0,-933.0,150.0,6.0,-11.0,12.0,172,111,125,140,128
2025-02-25 18:38:46.646,-348.0,-909.0,162.0,10.0,-7.0,11.0,170,111,124,139,127
2025-02-25 18:38:46.650,-331.0,-938.0,195.0,9.0,-7.0,12.0,169,107,122,138,126
2025-02-25 18:38:46.655,-417.0,-934.0,158.0,7.0,-5.0,12.0,170,109,123,139,126
2025-02-25 18:38:46.659,-383.0,-922.0,162.0,6.0,-6.0,12.0,172,112,127,141,128
2025-02-25 18:38:46.666,-389.0,-919.0,177.0,6.0,-5.0,13.0,171,110,125,140,128
2025-02-25 18:38:46.670,-368.0,-917.0,168.0,6.0,-5.0,12.0,167,107,121,137,125
2025-02-25 18:38:46.674,-381.0,-923.0,165.0,6.0,-6.0,11.0,171,108,124,140,129
2025-02-25 18:38:46.679,-379.0,-908.0,181.0,5.0,-5.0,10.0,170,110,125,141,130
2025-02-25 18:38:46.686,-370.0,-918.0,180.0,5.0,-5.0,9.0,168,107,122,138,127
2025-02-25 18:38:46.691,-366.0,-916.0,177.0,4.0,-6.0,9.0,168,108,122,138,126
2025-02-25 18:38:46.695,-362.0,-923.0,160.0,4.0,-8.0,8.0,174,110,124,144,130
2025-02-25 18:38:46.700,-346.0,-918.0,175.0,6.0,-10.0,8.0,170,109,125,140,129
2025-02-25 18:38:46.707,-352.0,-976.0,167.0,7.0,-9.0,8.0,167,106,121,137,123
2025-02-25 18:38:46.712,-392.0,-956.0,174.0,4.0,-7.0,8.0,169,108,123,138,127
2025-02-25 18:38:46.716,-339.0,-947.0,194.0,1.0,-7.0,9.0,171,110,125,142,130
2025-02-25 18:38:46.721,-400.0,-971.0,198.0,-1.0,-7.0,10.0,168,108,121,138,126
2025-02-25 18:38:46.728,-386.0,-959.0,160.0,1.0,-8.0,12.0,168,107,119,137,124
2025-02-25 18:38:46.732,-396.0,-968.0,160.0,0.0,-6.0,12.0,172,111,126,141,131
2025-02-25 18:38:46.736,-376.0,-963.0,173.0,1.0,-5.0,13.0,168,110,125,142,129
2025-02-25 18:38:46.741,-394.0,-963.0,161.0,2.0,-4.0,14.0,168,107,123,136,125
2025-02-25 18:38:46.748,-402.0,-950.0,161.0,2.0,-5.0,15.0,167,107,122,137,126
2025-02-25 18:38:46.752,-405.0,-930.0,179.0,3.0,-5.0,15.0,172,111,126,142,130
2025-02-25 18:38:46.756,-367.0,-910.0,155.0,9.0,-9.0,15.0,172,111,126,140,129
2025-02-25 18:38:46.761,-413.0,-909.0,162.0,7.0,-10.0,12.0,167,108,122,137,126
2025-02-25 18:38:46.769,-379.0,-880.0,182.0,6.0,-8.0,10.0,171,111,125,141,129
2025-02-25 18:38:46.773,-396.0,-898.0,174.0,1.0,-6.0,10.0,172,111,126,141,133
2025-02-25 18:38:46.777,-393.0,-886.0,157.0,0.0,-9.0,9.0,170,110,125,141,129
2025-02-25 18:38:46.782,-384.0,-914.0,161.0,-2.0,-10.0,10.0,167,106,122,138,127
2025-02-25 18:38:46.789,-382.0,-906.0,152.0,-3.0,-10.0,10.0,170,109,125,139,128
2025-02-25 18:38:46.794,-388.0,-918.0,156.0,-5.0,-9.0,10.0,171,110,126,141,129
2025-02-25 18:38:46.798,-390.0,-917.0,161.0,-5.0,-9.0,10.0,170,111,126,141,129
2025-02-25 18:38:46.805,-387.0,-918.0,183.0,-4.0,-9.0,11.0,170,110,126,140,129
2025-02-25 18:38:46.810,-409.0,-899.0,149.0,-6.0,-9.0,11.0,168,106,122,137,127
2025-02-25 18:38:46.814,-390.0,-898.0,178.0,-1.0,-10.0,11.0,169,108,125,138,127
2025-02-25 18:38:46.819,-390.0,-899.0,179.0,-4.0,-8.0,10.0,171,111,125,140,130
2025-02-25 18:38:46.826,-391.0,-901.0,161.0,-2.0,-6.0,9.0,170,109,124,139,128
2025-02-25 18:38:46.830,-406.0,-917.0,143.0,0.0,-6.0,9.0,169,109,123,137,126
2025-02-25 18:38:46.835,-427.0,-908.0,157.0,1.0,-6.0,10.0,168,106,122,137,127
2025-02-25 18:38:46.839,-391.0,-890.0,145.0,3.0,-8.0,10.0,171,111,125,141,130
2025-02-25 18:38:46.846,-422.0,-920.0,164.0,3.0,-7.0,10.0,169,109,126,141,129
2025-02-25 18:38:46.851,-417.0,-897.0,165.0,4.0,-7.0,10.0,166,106,121,137,126
2025-02-25 18:38:46.855,-414.0,-901.0,163.0,4.0,-7.0,10.0,172,111,125,140,130
2025-02-25 18:38:46.859,-417.0,-887.0,152.0,5.0,-7.0,10.0,171,110,125,140,130
2025-02-25 18:38:46.867,-412.0,-870.0,165.0,5.0,-8.0,9.0,166,110,125,143,130
2025-02-25 18:38:46.872,-417.0,-841.0,159.0,7.0,-8.0,8.0,169,107,122,137,126
2025-02-25 18:38:46.876,-416.0,-845.0,161.0,6.0,-9.0,7.0,172,111,127,139,130
2025-02-25 18:38:46.880,-419.0,-830.0,176.0,5.0,-8.0,5.0,171,109,124,139,129
2025-02-25 18:38:46.887,-418.0,-826.0,183.0,2.0,-8.0,2.0,170,109,124,145,129
2025-02-25 18:38:46.892,-410.0,-822.0,155.0,2.0,-11.0,1.0,170,110,125,138,128
2025-02-25 18:38:46.896,-411.0,-849.0,162.0,-3.0,-12.0,-1.0,171,109,125,140,130
2025-02-25 18:38:46.903,-413.0,-840.0,130.0,-3.0,-14.0,-1.0,170,108,123,139,128
2025-02-25 18:38:46.908,-440.0,-904.0,141.0,-3.0,-15.0,-1.0,172,111,126,140,131
2025-02-25 18:38:46.912,-426.0,-925.0,168.0,-5.0,-15.0,-1.0,170,109,123,138,127
2025-02-25 18:38:46.917,-424.0,-924.0,135.0,-5.0,-16.0,0.0,171,111,126,141,130
2025-02-25 18:38:46.924,-430.0,-942.0,152.0,-6.0,-16.0,2.0,171,110,127,141,130
2025-02-25 18:38:46.929,-440.0,-951.0,156.0,-6.0,-16.0,3.0,172,111,127,142,132
2025-02-25 18:38:46.934,-434.0,-950.0,151.0,-5.0,-16.0,4.0,168,106,121,137,126
2025-02-25 18:38:46.938,-432.0,-956.0,151.0,-3.0,-16.0,4.0,170,106,123,139,128
2025-02-25 18:38:46.945,-429.0,-944.0,148.0,0.0,-16.0,5.0,171,112,126,141,129
2025-02-25 18:38:46.949,-415.0,-945.0,167.0,2.0,-18.0,5.0,171,110,125,142,131
2025-02-25 18:38:46.954,-420.0,-946.0,172.0,2.0,-19.0,6.0,167,107,121,136,125
2025-02-25 18:38:46.961,-405.0,-915.0,174.0,2.0,-14.0,6.0,171,111,124,139,129
2025-02-25 18:38:46.965,-428.0,-908.0,188.0,5.0,-16.0,7.0,171,109,127,140,130
2025-02-25 18:38:46.969,-432.0,-891.0,185.0,6.0,-16.0,7.0,172,112,126,141,130
2025-02-25 18:38:46.974,-427.0,-896.0,185.0,4.0,-15.0,5.0,166,106,121,137,126
2025-02-25 18:38:46.981,-441.0,-857.0,188.0,4.0,-12.0,5.0,172,112,127,140,130
2025-02-25 18:38:46.985,-440.0,-842.0,170.0,2.0,-13.0,4.0,171,111,126,141,130
2025-02-25 18:38:46.990,-458.0,-833.0,172.0,2.0,-14.0,1.0,168,108,127,139,128
2025-02-25 18:38:46.994,-449.0,-803.0,159.0,-1.0,-15.0,-2.0,166,107,122,140,126
2025-02-25 18:38:47.002,-458.0,-792.0,144.0,-5.0,-15.0,-3.0,172,112,125,140,129
2025-02-25 18:38:47.006,-464.0,-797.0,152.0,-6.0,-16.0,-6.0,175,119,129,143,133
2025-02-25 18:38:47.010,-461.0,-808.0,154.0,-7.0,-19.0,-9.0,170,109,125,140,129
2025-02-25 18:38:47.018,-438.0,-826.0,147.0,-12.0,-20.0,-10.0,168,109,122,136,127
2025-02-25 18:38:47.022,-439.0,-860.0,161.0,-14.0,-20.0,-12.0,167,106,122,135,127
2025-02-25 18:38:47.027,-434.0,-875.0,179.0,-16.0,-21.0,-12.0,168,108,123,137,129
2025-02-25 18:38:47.034,-416.0,-898.0,185.0,-14.0,-21.0,-12.0,172,109,127,143,131
2025-02-25 18:38:47.039,-400.0,-918.0,161.0,-15.0,-20.0,-11.0,171,112,127,142,130
2025-02-25 18:38:47.043,-397.0,-942.0,176.0,-14.0,-20.0,-10.0,172,111,128,142,132
2025-02-25 18:38:47.051,-371.0,-945.0,211.0,-12.0,-19.0,-9.0,172,112,126,139,130
2025-02-25 18:38:47.055,-405.0,-943.0,197.0,-10.0,-17.0,-8.0,170,108,123,137,128
2025-02-25 18:38:47.060,-383.0,-941.0,195.0,-7.0,-17.0,-7.0,168,109,124,137,128
2025-02-25 18:38:47.067,-371.0,-936.0,187.0,-5.0,-15.0,-7.0,171,108,126,141,132
2025-02-25 18:38:47.072,-380.0,-922.0,207.0,0.0,-13.0,-6.0,172,111,128,141,131
2025-02-25 18:38:47.076,-387.0,-926.0,208.0,0.0,-13.0,-6.0,170,109,123,141,130
2025-02-25 18:38:47.080,-379.0,-910.0,178.0,2.0,-13.0,-6.0,170,107,123,137,127
2025-02-25 18:38:47.088,-403.0,-924.0,186.0,0.0,-9.0,-6.0,172,108,127,138,129
2025-02-25 18:38:47.092,-387.0,-912.0,154.0,10.0,-10.0,-6.0,171,113,127,141,131
2025-02-25 18:38:47.097,-399.0,-903.0,225.0,4.0,-13.0,-8.0,170,109,126,140,130
2025-02-25 18:38:47.101,-373.0,-900.0,254.0,11.0,-10.0,-7.0,168,106,122,136,127
2025-02-25 18:38:47.109,-414.0,-942.0,224.0,11.0,-9.0,-8.0,170,110,124,139,130
2025-02-25 18:38:47.113,-438.0,-874.0,303.0,21.0,-8.0,-7.0,172,112,126,140,131
2025-02-25 18:38:47.117,-425.0,-931.0,216.0,21.0,-8.0,-9.0,172,111,125,140,131
2025-02-25 18:38:47.125,-403.0,-902.0,243.0,24.0,-13.0,-9.0,170,110,125,139,129
2025-02-25 18:38:47.129,-450.0,-888.0,249.0,24.0,-11.0,-8.0,169,109,123,137,128
2025-02-25 18:38:47.134,-408.0,-950.0,186.0,18.0,-11.0,-8.0,167,107,121,135,125
2025-02-25 18:38:47.138,-413.0,-910.0,274.0,16.0,-13.0,-8.0,172,109,124,140,131
2025-02-25 18:38:47.146,-414.0,-895.0,288.0,17.0,-11.0,-7.0,171,111,128,140,130
2025-02-25 18:38:47.150,-400.0,-910.0,262.0,17.0,-11.0,-6.0,170,109,125,139,129
2025-02-25 18:38:47.154,-414.0,-915.0,282.0,16.0,-9.0,-5.0,167,105,121,135,126
2025-02-25 18:38:47.162,-409.0,-923.0,268.0,12.0,-6.0,-4.0,169,108,123,138,128
2025-02-25 18:38:47.166,-385.0,-924.0,294.0,8.0,-7.0,-2.0,176,119,129,144,133
2025-02-25 18:38:47.170,-367.0,-931.0,286.0,7.0,-6.0,-1.0,171,109,125,139,129
2025-02-25 18:38:47.174,-359.0,-908.0,336.0,9.0,-4.0,-1.0,171,108,122,137,126
2025-02-25 18:38:47.182,-380.0,-933.0,282.0,8.0,-4.0,0.0,169,109,124,137,127
2025-02-25 18:38:47.187,-375.0,-921.0,313.0,14.0,-1.0,0.0,175,113,130,144,133
2025-02-25 18:38:47.191,-385.0,-969.0,301.0,13.0,-1.0,1.0,171,108,125,139,129
2025-02-25 18:38:47.195,-392.0,-942.0,313.0,15.0,0.0,1.0,159,104,118,129,122
2025-02-25 18:38:47.203,-371.0,-938.0,315.0,18.0,1.0,1.0,160,98,115,128,117
2025-02-25 18:38:47.207,-354.0,-945.0,320.0,17.0,0.0,1.0,160,97,113,126,115
2025-02-25 18:38:47.211,-357.0,-939.0,300.0,15.0,1.0,1.0,153,90,106,120,108
2025-02-25 18:38:47.216,-369.0,-928.0,342.0,14.0,4.0,1.0,156,97,111,123,115
2025-02-25 18:38:47.220,-362.0,-952.0,318.0,14.0,5.0,2.0,155,93,109,121,111
2025-02-25 18:38:47.228,-375.0,-936.0,334.0,17.0,6.0,0.0,153,93,109,125,110
2025-02-25 18:38:47.232,-356.0,-967.0,318.0,16.0,7.0,0.0,154,94,109,120,109
2025-02-25 18:38:47.236,-361.0,-962.0,329.0,14.0,8.0,1.0,154,92,108,118,105
2025-02-25 18:38:47.240,-366.0,-953.0,310.0,11.0,8.0,1.0,150,88,103,115,103
2025-02-25 18:38:47.245,-370.0,-959.0,312.0,6.0,9.0,2.0,148,87,103,112,100
2025-02-25 18:38:47.252,-388.0,-972.0,298.0,3.0,10.0,4.0,149,86,102,112,102
2025-02-25 18:38:47.256,-367.0,-965.0,317.0,1.0,10.0,5.0,147,87,99,110,100
2025-02-25 18:38:47.261,-363.0,-958.0,307.0,-2.0,10.0,6.0,147,82,99,108,97
2025-02-25 18:38:47.265,-358.0,-968.0,298.0,-2.0,10.0,7.0,150,87,105,112,102
2025-02-25 18:38:47.273,-372.0,-949.0,298.0,-2.0,10.0,7.0,145,84,100,108,94
2025-02-25 18:38:47.277,-368.0,-942.0,243.0,-1.0,11.0,8.0,144,82,98,107,95
2025-02-25 18:38:47.281,-372.0,-945.0,287.0,-7.0,10.0,8.0,149,87,102,109,98
2025-02-25 18:38:47.286,-395.0,-941.0,270.0,-7.0,9.0,9.0,147,85,101,109,97
2025-02-25 18:38:47.289,-397.0,-943.0,247.0,-9.0,9.0,9.0,146,81,97,106,94
2025-02-25 18:38:47.297,-393.0,-949.0,243.0,-11.0,8.0,9.0,144,82,99,105,94
2025-02-25 18:38:47.301,-381.0,-943.0,244.0,-11.0,8.0,10.0,144,80,98,103,91
2025-02-25 18:38:47.306,-389.0,-947.0,260.0,-7.0,6.0,10.0,142,78,98,101,89
2025-02-25 18:38:47.310,-383.0,-947.0,276.0,-5.0,7.0,10.0,144,82,96,105,92
2025-02-25 18:38:47.314,-383.0,-949.0,242.0,-4.0,7.0,11.0,143,81,95,101,90
2025-02-25 18:38:47.319,-383.0,-951.0,246.0,-3.0,8.0,11.0,142,79,95,102,89
2025-02-25 18:38:47.326,-370.0,-940.0,276.0,-1.0,11.0,11.0,145,83,97,102,91
2025-02-25 18:38:47.330,-374.0,-942.0,267.0,-3.0,10.0,11.0,143,80,96,102,89
2025-02-25 18:38:47.334,-366.0,-941.0,249.0,-4.0,10.0,11.0,141,77,94,101,88
2025-02-25 18:38:47.339,-383.0,-921.0,270.0,-4.0,14.0,13.0,143,82,98,103,90
2025-02-25 18:38:47.346,-394.0,-914.0,235.0,-7.0,15.0,13.0,143,80,93,101,88
2025-02-25 18:38:47.350,-397.0,-904.0,246.0,-4.0,15.0,13.0,152,90,106,111,97
2025-02-25 18:38:47.354,-395.0,-893.0,249.0,-6.0,14.0,13.0,188,130,152,151,138
2025-02-25 18:38:47.359,-407.0,-895.0,231.0,-6.0,15.0,13.0,175,114,130,134,121
2025-02-25 18:38:47.366,-389.0,-896.0,210.0,-11.0,15.0,12.0,168,106,123,126,112
2025-02-25 18:38:47.371,-404.0,-895.0,222.0,-13.0,16.0,12.0,150,89,103,107,93
2025-02-25 18:38:47.375,-400.0,-896.0,219.0,-15.0,16.0,11.0,153,88,105,110,94
2025-02-25 18:38:47.379,-395.0,-896.0,201.0,-15.0,17.0,11.0,150,87,105,108,94
2025-02-25 18:38:47.387,-397.0,-897.0,213.0,-17.0,17.0,11.0,150,86,103,101,90
2025-02-25 18:38:47.391,-394.0,-899.0,221.0,-19.0,18.0,11.0,148,85,102,104,89
2025-02-25 18:38:47.396,-403.0,-889.0,210.0,-18.0,18.0,13.0,149,90,104,107,91
2025-02-25 18:38:47.400,-405.0,-896.0,194.0,-17.0,16.0,13.0,149,86,102,105,91
2025-02-25 18:38:47.408,-415.0,-900.0,189.0,-15.0,15.0,13.0,146,85,104,104,89
2025-02-25 18:38:47.412,-425.0,-897.0,188.0,-13.0,13.0,13.0,149,86,102,106,91
2025-02-25 18:38:47.416,-419.0,-897.0,179.0,-11.0,13.0,13.0,149,81,102,106,89
2025-02-25 18:38:47.421,-429.0,-885.0,193.0,-9.0,13.0,13.0,148,85,102,105,90
2025-02-25 18:38:47.428,-414.0,-892.0,185.0,-8.0,11.0,13.0,149,86,103,106,89
2025-02-25 18:38:47.433,-413.0,-873.0,198.0,-7.0,10.0,13.0,149,88,104,105,90
2025-02-25 18:38:47.437,-419.0,-879.0,188.0,-6.0,9.0,13.0,147,85,99,103,88
2025-02-25 18:38:47.441,-425.0,-884.0,192.0,-4.0,9.0,13.0,147,84,101,103,85
2025-02-25 18:38:47.449,-429.0,-871.0,190.0,-2.0,10.0,13.0,152,89,105,106,90
2025-02-25 18:38:47.453,-422.0,-868.0,194.0,0.0,11.0,13.0,148,85,103,105,89
2025-02-25 18:38:47.457,-415.0,-861.0,185.0,0.0,11.0,13.0,145,83,97,101,85
2025-02-25 18:38:47.461,-430.0,-865.0,194.0,0.0,11.0,13.0,148,83,100,104,87
2025-02-25 18:38:47.465,-420.0,-849.0,193.0,-1.0,13.0,12.0,150,89,102,106,89
2025-02-25 18:38:47.473,-436.0,-858.0,181.0,1.0,12.0,12.0,147,82,98,102,87
2025-02-25 18:38:47.477,-438.0,-848.0,185.0,1.0,11.0,11.0,146,82,100,102,86
2025-02-25 18:38:47.482,-436.0,-841.0,176.0,2.0,12.0,11.0,147,84,100,103,86
2025-02-25 18:38:47.486,-453.0,-848.0,181.0,1.0,13.0,10.0,147,84,100,103,86
2025-02-25 18:38:47.490,-454.0,-846.0,171.0,1.0,11.0,9.0,142,78,94,97,80
2025-02-25 18:38:47.498,-463.0,-838.0,155.0,-1.0,9.0,8.0,141,80,97,99,81
2025-02-25 18:38:47.502,-471.0,-845.0,155.0,-4.0,8.0,7.0,139,74,92,97,79
2025-02-25 18:38:47.506,-469.0,-834.0,158.0,-7.0,8.0,7.0,138,76,96,94,78
2025-02-25 18:38:47.510,-470.0,-848.0,151.0,-10.0,7.0,6.0,140,77,94,95,79
2025-02-25 18:38:47.515,-470.0,-831.0,182.0,-12.0,7.0,5.0,138,74,93,94,78
2025-02-25 18:38:47.519,-464.0,-840.0,174.0,-13.0,6.0,4.0,137,75,91,95,76
2025-02-25 18:38:47.526,-467.0,-852.0,159.0,-13.0,5.0,3.0,142,78,95,97,80
2025-02-25 18:38:47.530,-476.0,-852.0,163.0,-13.0,5.0,2.0,140,77,92,94,77
2025-02-25 18:38:47.534,-484.0,-852.0,170.0,-13.0,4.0,1.0,138,75,91,94,76
2025-02-25 18:38:47.538,-471.0,-849.0,166.0,-14.0,5.0,0.0,141,76,93,97,77
2025-02-25 18:38:47.543,-466.0,-865.0,164.0,-14.0,5.0,-1.0,141,76,92,97,78
2025-02-25 18:38:47.547,-481.0,-862.0,174.0,-13.0,3.0,-1.0,138,76,93,94,75
2025-02-25 18:38:47.554,-474.0,-866.0,166.0,-13.0,3.0,-2.0,140,76,95,95,78
2025-02-25 18:38:47.559,-464.0,-857.0,152.0,-14.0,3.0,-3.0,139,76,91,96,76
2025-02-25 18:38:47.563,-463.0,-875.0,149.0,-15.0,4.0,-3.0,139,76,93,95,77
2025-02-25 18:38:47.568,-457.0,-874.0,153.0,-14.0,4.0,-3.0,140,77,93,98,79
2025-02-25 18:38:47.572,-457.0,-878.0,166.0,-15.0,4.0,-2.0,139,77,92,95,76
2025-02-25 18:38:47.580,-455.0,-903.0,168.0,-14.0,5.0,-2.0,140,77,93,96,78
2025-02-25 18:38:47.584,-454.0,-918.0,136.0,-14.0,5.0,-1.0,140,78,93,97,79
2025-02-25 18:38:47.588,-471.0,-918.0,138.0,-12.0,5.0,0.0,138,77,93,90,78
2025-02-25 18:38:47.592,-453.0,-919.0,135.0,-13.0,5.0,0.0,139,77,93,95,77
2025-02-25 18:38:47.596,-441.0,-890.0,148.0,-13.0,6.0,0.0,142,79,96,99,79
2025-02-25 18:38:47.600,-454.0,-894.0,164.0,-11.0,6.0,1.0,139,77,94,98,78
2025-02-25 18:38:47.608,-450.0,-868.0,138.0,-11.0,8.0,1.0,144,80,95,98,81
2025-02-25 18:38:47.612,-452.0,-881.0,152.0,-11.0,7.0,0.0,146,81,96,98,80
2025-02-25 18:38:47.616,-443.0,-858.0,101.0,-12.0,7.0,0.0,141,78,94,96,79
2025-02-25 18:38:47.620,-450.0,-869.0,144.0,-8.0,6.0,-1.0,144,80,95,99,81
2025-02-25 18:38:47.625,-441.0,-854.0,153.0,-10.0,7.0,-1.0,144,83,98,100,82
2025-02-25 18:38:47.632,-445.0,-859.0,141.0,-9.0,7.0,-2.0,143,80,97,100,81
2025-02-25 18:38:47.637,-438.0,-865.0,164.0,-10.0,6.0,-1.0,144,82,97,101,83
2025-02-25 18:38:47.641,-436.0,-854.0,150.0,-12.0,5.0,-1.0,145,81,97,101,82
2025-02-25 18:38:47.645,-458.0,-841.0,153.0,-18.0,7.0,-1.0,144,81,96,100,82
2025-02-25 18:38:47.649,-434.0,-856.0,155.0,-15.0,6.0,-1.0,146,83,97,101,86
2025-02-25 18:38:47.657,-432.0,-844.0,151.0,-13.0,7.0,-2.0,145,81,99,101,85
2025-02-25 18:38:47.662,-437.0,-847.0,136.0,-10.0,8.0,-3.0,145,83,98,100,85
2025-02-25 18:38:47.666,-423.0,-853.0,125.0,-16.0,3.0,-4.0,148,85,102,106,88
2025-02-25 18:38:47.670,-417.0,-838.0,145.0,-17.0,0.0,-3.0,149,85,102,105,88
2025-02-25 18:38:47.678,-454.0,-867.0,170.0,-5.0,-1.0,-4.0,147,83,99,103,87
2025-02-25 18:38:47.682,-429.0,-864.0,119.0,-11.0,0.0,-4.0,151,89,102,106,91
2025-02-25 18:38:47.686,-426.0,-853.0,164.0,-4.0,-1.0,-4.0,151,88,102,107,93
2025-02-25 18:38:47.691,-448.0,-886.0,170.0,-4.0,0.0,-4.0,149,86,102,106,91
2025-02-25 18:38:47.695,-431.0,-878.0,159.0,-8.0,-4.0,-6.0,151,88,104,109,92
2025-02-25 18:38:47.702,-428.0,-854.0,220.0,-1.0,-2.0,-5.0,149,86,100,107,90
2025-02-25 18:38:47.707,-462.0,-860.0,186.0,0.0,0.0,-5.0,146,84,98,103,89
2025-02-25 18:38:47.712,-440.0,-859.0,167.0,-5.0,0.0,-6.0,148,84,100,104,88
2025-02-25 18:38:47.716,-455.0,-868.0,137.0,-7.0,2.0,-5.0,145,82,98,102,88
2025-02-25 18:38:47.720,-461.0,-891.0,158.0,-10.0,2.0,-5.0,144,82,99,101,86
2025-02-25 18:38:47.727,-454.0,-867.0,149.0,-10.0,2.0,-5.0,147,83,101,103,89
2025-02-25 18:38:47.731,-453.0,-860.0,138.0,-9.0,2.0,-6.0,145,80,99,101,86
2025-02-25 18:38:47.736,-459.0,-872.0,156.0,-6.0,3.0,-6.0,145,80,97,100,87
2025-02-25 18:38:47.740,-472.0,-877.0,140.0,-4.0,2.0,-6.0,147,82,99,105,89
2025-02-25 18:38:47.744,-457.0,-880.0,144.0,-4.0,3.0,-7.0,148,83,99,103,90
2025-02-25 18:38:47.752,-457.0,-897.0,149.0,-2.0,3.0,-7.0,145,81,97,101,87
2025-02-25 18:38:47.756,-465.0,-902.0,156.0,2.0,-1.0,-8.0,145,82,100,103,88
2025-02-25 18:38:47.760,-471.0,-930.0,227.0,1.0,4.0,-7.0,143,80,95,100,87
2025-02-25 18:38:47.764,-449.0,-919.0,159.0,-2.0,1.0,-6.0,144,79,98,100,86
2025-02-25 18:38:47.769,-446.0,-922.0,142.0,3.0,0.0,-5.0,147,83,98,103,90
2025-02-25 18:38:47.776,-444.0,-929.0,155.0,2.0,0.0,-5.0,144,80,94,102,91
2025-02-25 18:38:47.780,-434.0,-928.0,115.0,1.0,0.0,-4.0,145,81,97,102,88
2025-02-25 18:38:47.784,-433.0,-932.0,176.0,0.0,3.0,-3.0,147,82,98,105,91
2025-02-25 18:38:47.789,-447.0,-945.0,174.0,-4.0,2.0,-2.0,143,79,96,100,89
2025-02-25 18:38:47.793,-422.0,-932.0,137.0,-4.0,2.0,-2.0,144,80,97,101,88
2025-02-25 18:38:47.801,-442.0,-924.0,126.0,-8.0,4.0,-2.0,145,80,96,102,89
2025-02-25 18:38:47.805,-439.0,-941.0,113.0,-8.0,4.0,-2.0,144,77,96,101,86
2025-02-25 18:38:47.809,-436.0,-922.0,170.0,-8.0,5.0,-1.0,145,80,96,101,88
2025-02-25 18:38:47.813,-441.0,-936.0,161.0,-10.0,3.0,-1.0,139,80,95,109,88
2025-02-25 18:38:47.817,-432.0,-938.0,130.0,-9.0,4.0,0.0,141,77,92,101,87
2025-02-25 18:38:47.822,-421.0,-934.0,156.0,-7.0,4.0,0.0,144,78,95,101,89
2025-02-25 18:38:47.829,-424.0,-945.0,148.0,-8.0,6.0,1.0,142,79,94,100,87
2025-02-25 18:38:47.834,-421.0,-946.0,164.0,-5.0,5.0,2.0,140,78,93,99,85
2025-02-25 18:38:47.838,-415.0,-952.0,140.0,-4.0,5.0,2.0,142,76,92,99,85
2025-02-25 18:38:47.842,-429.0,-951.0,129.0,-3.0,4.0,2.0,140,77,95,101,86
2025-02-25 18:38:47.846,-412.0,-947.0,128.0,-5.0,3.0,3.0,139,76,94,99,87
2025-02-25 18:38:47.850,-426.0,-943.0,111.0,-6.0,4.0,4.0,145,81,97,106,91
2025-02-25 18:38:47.858,-425.0,-945.0,120.0,-6.0,4.0,5.0,146,83,99,106,92
2025-02-25 18:38:47.862,-431.0,-942.0,96.0,-2.0,2.0,6.0,150,87,102,109,94
2025-02-25 18:38:47.867,-441.0,-941.0,92.0,-1.0,0.0,7.0,153,90,105,112,102
2025-02-25 18:38:47.871,-412.0,-927.0,96.0,-1.0,2.0,8.0,154,89,105,112,99
2025-02-25 18:38:47.875,-435.0,-926.0,84.0,1.0,1.0,9.0,152,88,104,110,97
2025-02-25 18:38:47.879,-437.0,-916.0,71.0,1.0,-1.0,9.0,141,75,93,100,87
2025-02-25 18:38:47.887,-443.0,-923.0,104.0,4.0,-2.0,9.0,139,75,92,99,85
2025-02-25 18:38:47.891,-442.0,-890.0,97.0,3.0,-2.0,9.0,138,74,90,97,83
2025-02-25 18:38:47.895,-441.0,-901.0,97.0,3.0,0.0,10.0,146,81,96,105,91
2025-02-25 18:38:47.900,-444.0,-895.0,131.0,2.0,-3.0,11.0,143,80,94,103,90
2025-02-25 18:38:47.904,-444.0,-898.0,74.0,-5.0,-2.0,11.0,142,78,94,102,88
2025-02-25 18:38:47.908,-407.0,-854.0,130.0,-3.0,-4.0,11.0,145,79,96,102,90
2025-02-25 18:38:47.916,-466.0,-856.0,80.0,-3.0,-3.0,11.0,142,79,91,103,87
2025-02-25 18:38:47.920,-442.0,-867.0,108.0,-1.0,-4.0,10.0,142,77,94,101,88
2025-02-25 18:38:47.924,-421.0,-854.0,128.0,0.0,-4.0,8.0,143,80,95,103,89
2025-02-25 18:38:47.928,-450.0,-852.0,83.0,1.0,-2.0,8.0,142,79,93,101,87
2025-02-25 18:38:47.933,-449.0,-862.0,149.0,-1.0,-2.0,7.0,141,77,93,101,87
2025-02-25 18:38:47.940,-452.0,-865.0,126.0,-3.0,-4.0,6.0,141,78,94,102,88
2025-02-25 18:38:47.944,-449.0,-871.0,126.0,-3.0,-4.0,6.0,141,77,94,102,88
2025-02-25 18:38:47.949,-463.0,-900.0,128.0,-4.0,-5.0,6.0,141,76,92,101,87
2025-02-25 18:38:47.953,-485.0,-884.0,37.0,-3.0,-4.0,7.0,142,77,93,101,88
2025-02-25 18:38:47.957,-447.0,-909.0,147.0,-1.0,-6.0,6.0,137,74,89,99,85
2025-02-25 18:38:47.962,-470.0,-892.0,104.0,0.0,-5.0,7.0,141,76,93,106,87
2025-02-25 18:38:47.969,-452.0,-891.0,155.0,2.0,-4.0,8.0,139,75,92,101,86
2025-02-25 18:38:47.973,-464.0,-898.0,164.0,0.0,-4.0,8.0,137,75,90,98,86
2025-02-25 18:38:47.977,-425.0,-877.0,120.0,5.0,-7.0,8.0,140,73,91,99,86
2025-02-25 18:38:47.981,-470.0,-900.0,138.0,7.0,-6.0,9.0,142,75,92,100,87
2025-02-25 18:38:47.985,-422.0,-916.0,167.0,9.0,-5.0,9.0,138,74,90,99,86
2025-02-25 18:38:47.990,-457.0,-908.0,147.0,11.0,-5.0,9.0,137,75,89,99,86
2025-02-25 18:38:47.997,-459.0,-907.0,123.0,10.0,-4.0,9.0,138,73,88,100,86
2025-02-25 18:38:48.002,-458.0,-893.0,138.0,6.0,-3.0,10.0,135,74,89,99,86
2025-02-25 18:38:48.006,-449.0,-885.0,208.0,2.0,-1.0,11.0,139,74,90,100,86
2025-02-25 18:38:48.010,-433.0,-887.0,239.0,0.0,1.0,12.0,138,73,89,98,85
2025-02-25 18:38:48.014,-446.0,-885.0,183.0,4.0,3.0,12.0,138,74,90,98,84
2025-02-25 18:38:48.019,-470.0,-903.0,112.0,3.0,1.0,11.0,146,80,97,106,92
2025-02-25 18:38:48.026,-442.0,-849.0,127.0,2.0,3.0,10.0,144,80,95,106,92
2025-02-25 18:38:48.030,-462.0,-853.0,121.0,5.0,3.0,9.0,142,78,98,104,91
2025-02-25 18:38:48.035,-480.0,-853.0,198.0,5.0,2.0,9.0,150,87,102,111,98
2025-02-25 18:38:48.039,-486.0,-869.0,146.0,7.0,-2.0,8.0,150,89,102,116,100
2025-02-25 18:38:48.043,-507.0,-854.0,145.0,6.0,-1.0,8.0,149,86,102,110,98
2025-02-25 18:38:48.051,-501.0,-871.0,150.0,5.0,-3.0,7.0,154,88,104,108,101
2025-02-25 18:38:48.055,-508.0,-868.0,129.0,6.0,-7.0,7.0,151,88,102,112,100
2025-02-25 18:38:48.060,-502.0,-863.0,141.0,6.0,-5.0,7.0,152,88,96,110,97
2025-02-25 18:38:48.064,-497.0,-863.0,152.0,5.0,-6.0,6.0,148,85,100,113,97
2025-02-25 18:38:48.067,-499.0,-866.0,167.0,4.0,-5.0,6.0,147,83,99,112,97
2025-02-25 18:38:48.075,-488.0,-859.0,137.0,5.0,-6.0,6.0,147,83,100,109,95
2025-02-25 18:38:48.079,-508.0,-867.0,164.0,4.0,-8.0,6.0,149,87,102,111,98
2025-02-25 18:38:48.083,-500.0,-862.0,145.0,3.0,-8.0,7.0,151,87,101,112,98
2025-02-25 18:38:48.088,-480.0,-849.0,131.0,3.0,-9.0,6.0,147,81,96,108,96
2025-02-25 18:38:48.092,-509.0,-858.0,198.0,1.0,-5.0,6.0,149,85,101,111,96
2025-02-25 18:38:48.099,-483.0,-855.0,175.0,2.0,-4.0,6.0,146,86,99,108,97
2025-02-25 18:38:48.104,-487.0,-856.0,196.0,1.0,-4.0,6.0,149,86,100,110,98
2025-02-25 18:38:48.108,-499.0,-843.0,188.0,-2.0,-1.0,6.0,150,87,103,112,98
2025-02-25 18:38:48.112,-502.0,-836.0,162.0,-1.0,0.0,5.0,147,85,99,110,97
2025-02-25 18:38:48.116,-513.0,-844.0,175.0,-1.0,0.0,5.0,146,82,98,110,95
2025-02-25 18:38:48.124,-503.0,-822.0,176.0,-3.0,0.0,3.0,150,87,102,113,98
2025-02-25 18:38:48.128,-506.0,-826.0,172.0,-3.0,0.0,2.0,147,83,100,109,97
2025-02-25 18:38:48.132,-513.0,-823.0,183.0,-2.0,0.0,1.0,147,83,98,110,97
2025-02-25 18:38:48.137,-507.0,-825.0,174.0,-2.0,-1.0,-1.0,149,84,99,112,99
2025-02-25 18:38:48.141,-519.0,-823.0,180.0,-1.0,-1.0,-2.0,149,85,101,111,98
2025-02-25 18:38:48.149,-512.0,-827.0,162.0,-3.0,-2.0,-2.0,152,88,102,114,100
2025-02-25 18:38:48.153,-517.0,-834.0,173.0,-3.0,-2.0,-3.0,153,89,106,117,104
2025-02-25 18:38:48.158,-510.0,-839.0,174.0,-3.0,-3.0,-4.0,161,97,111,124,109
2025-02-25 18:38:48.162,-504.0,-832.0,191.0,-1.0,-2.0,-5.0,160,95,111,122,110
2025-02-25 18:38:48.169,-507.0,-849.0,181.0,-4.0,-3.0,-5.0,157,93,108,118,105
2025-02-25 18:38:48.174,-504.0,-840.0,148.0,-1.0,-2.0,-5.0,150,87,103,114,100
2025-02-25 18:38:48.178,-484.0,-829.0,224.0,-2.0,-3.0,-5.0,149,89,104,112,98
2025-02-25 18:38:48.182,-480.0,-852.0,201.0,1.0,1.0,-5.0,155,93,106,119,105
2025-02-25 18:38:48.190,-482.0,-836.0,191.0,1.0,1.0,-5.0,150,88,103,114,101
2025-02-25 18:38:48.194,-464.0,-859.0,162.0,2.0,-1.0,-6.0,154,89,105,114,100
2025-02-25 18:38:48.198,-471.0,-840.0,154.0,5.0,2.0,-5.0,149,89,104,114,101
2025-02-25 18:38:48.203,-482.0,-858.0,169.0,5.0,3.0,-6.0,149,87,102,116,100
2025-02-25 18:38:48.207,-473.0,-850.0,153.0,3.0,4.0,-7.0,146,83,96,110,96
2025-02-25 18:38:48.214,-494.0,-881.0,169.0,5.0,3.0,-6.0,145,83,99,109,96
2025-02-25 18:38:48.218,-478.0,-877.0,152.0,4.0,2.0,-7.0,145,81,95,107,96
2025-02-25 18:38:48.223,-489.0,-885.0,143.0,2.0,1.0,-7.0,147,84,98,109,96
2025-02-25 18:38:48.227,-480.0,-906.0,150.0,1.0,1.0,-6.0,146,81,98,109,94
2025-02-25 18:38:48.231,-473.0,-916.0,145.0,-1.0,1.0,-5.0,143,80,94,106,93
2025-02-25 18:38:48.239,-473.0,-921.0,140.0,-2.0,-1.0,-4.0,146,83,97,109,96
2025-02-25 18:38:48.243,-483.0,-937.0,139.0,-3.0,-2.0,-3.0,154,91,103,118,103
2025-02-25 18:38:48.247,-475.0,-941.0,138.0,-3.0,-3.0,-2.0,152,89,104,117,103
2025-02-25 18:38:48.252,-488.0,-954.0,139.0,-3.0,-3.0,-2.0,149,87,102,113,100
2025-02-25 18:38:48.259,-485.0,-950.0,164.0,-3.0,-2.0,-2.0,158,96,113,123,109
2025-02-25 18:38:48.263,-480.0,-956.0,131.0,-5.0,-4.0,-3.0,170,107,123,134,120
2025-02-25 18:38:48.268,-503.0,-959.0,161.0,-4.0,-6.0,-2.0,181,122,135,145,131
2025-02-25 18:38:48.272,-469.0,-964.0,168.0,-3.0,-6.0,-1.0,181,117,131,140,130
2025-02-25 18:38:48.280,-492.0,-953.0,129.0,0.0,-7.0,-1.0,174,112,123,135,122
2025-02-25 18:38:48.284,-498.0,-948.0,158.0,0.0,-6.0,0.0,174,114,128,141,127
2025-02-25 18:38:48.288,-484.0,-938.0,155.0,0.0,-6.0,1.0,172,112,125,137,125
2025-02-25 18:38:48.292,-493.0,-923.0,160.0,1.0,-7.0,2.0,168,108,123,134,115
2025-02-25 18:38:48.300,-479.0,-915.0,166.0,0.0,-6.0,3.0,175,113,128,137,123
2025-02-25 18:38:48.304,-476.0,-906.0,169.0,0.0,-4.0,4.0,177,116,128,141,128
2025-02-25 18:38:48.309,-476.0,-901.0,166.0,0.0,-3.0,5.0,186,125,140,151,137
2025-02-25 18:38:48.313,-475.0,-893.0,175.0,1.0,-2.0,4.0,181,130,138,148,139
2025-02-25 18:38:48.320,-475.0,-880.0,158.0,1.0,-2.0,4.0,183,124,138,148,135
2025-02-25 18:38:48.325,-480.0,-864.0,153.0,1.0,0.0,4.0,182,118,136,146,132
2025-02-25 18:38:48.329,-483.0,-868.0,158.0,1.0,1.0,4.0,184,123,137,147,135
2025-02-25 18:38:48.333,-484.0,-854.0,144.0,2.0,3.0,3.0,170,108,122,135,121
2025-02-25 18:38:48.338,-483.0,-847.0,150.0,3.0,2.0,3.0,178,117,129,141,126
2025-02-25 18:38:48.345,-488.0,-852.0,152.0,2.0,3.0,3.0,180,120,134,146,133
2025-02-25 18:38:48.349,-484.0,-834.0,142.0,2.0,3.0,2.0,182,122,137,146,132
2025-02-25 18:38:48.354,-489.0,-840.0,151.0,2.0,3.0,2.0,175,115,128,139,129
2025-02-25 18:38:48.359,-494.0,-849.0,138.0,2.0,2.0,2.0,181,120,134,145,133
2025-02-25 18:38:48.362,-477.0,-845.0,129.0,2.0,2.0,1.0,180,119,132,145,132
2025-02-25 18:38:48.370,-472.0,-857.0,139.0,2.0,2.0,0.0,179,119,131,143,130
2025-02-25 18:38:48.374,-473.0,-872.0,156.0,2.0,0.0,0.0,177,118,133,145,129
2025-02-25 18:38:48.378,-457.0,-869.0,149.0,0.0,0.0,-1.0,200,140,154,165,151
2025-02-25 18:38:48.383,-460.0,-867.0,133.0,1.0,-1.0,-1.0,182,122,134,147,133
2025-02-25 18:38:48.390,-462.0,-875.0,146.0,0.0,-1.0,-1.0,189,130,142,154,140
2025-02-25 18:38:48.394,-460.0,-892.0,145.0,0.0,-3.0,-1.0,191,131,144,154,141
2025-02-25 18:38:48.399,-468.0,-891.0,157.0,-1.0,-3.0,-1.0,171,111,127,137,123
2025-02-25 18:38:48.403,-455.0,-906.0,137.0,-3.0,-3.0,0.0,177,118,130,141,128
2025-02-25 18:38:48.411,-450.0,-908.0,147.0,-3.0,-4.0,0.0,182,122,135,148,132
2025-02-25 18:38:48.415,-457.0,-913.0,161.0,-5.0,-4.0,1.0,186,125,138,150,136
2025-02-25 18:38:48.419,-454.0,-906.0,147.0,-6.0,-3.0,1.0,180,119,136,146,131
2025-02-25 18:38:48.424,-455.0,-904.0,173.0,-6.0,-4.0,2.0,185,126,141,151,137
2025-02-25 18:38:48.431,-439.0,-901.0,158.0,-6.0,-4.0,2.0,185,125,139,149,135
2025-02-25 18:38:48.436,-444.0,-899.0,166.0,-5.0,-3.0,2.0,180,121,134,144,129
2025-02-25 18:38:48.440,-448.0,-897.0,153.0,-6.0,-3.0,2.0,177,116,131,142,127
2025-02-25 18:38:48.444,-449.0,-880.0,190.0,-4.0,-3.0,3.0,183,122,135,146,131
2025-02-25 18:38:48.452,-452.0,-875.0,187.0,-3.0,-1.0,3.0,172,110,126,137,123
2025-02-25 18:38:48.456,-459.0,-877.0,166.0,-3.0,-1.0,3.0,173,108,126,135,119
2025-02-25 18:38:48.461,-464.0,-876.0,152.0,-2.0,-1.0,3.0,168,108,122,132,117
2025-02-25 18:38:48.464,-474.0,-869.0,166.0,-1.0,-2.0,4.0,170,108,123,134,119
2025-02-25 18:38:48.473,-482.0,-876.0,151.0,-2.0,-2.0,4.0,168,109,122,133,118
2025-02-25 18:38:48.477,-487.0,-861.0,172.0,2.0,-1.0,4.0,164,96,118,128,116
2025-02-25 18:38:48.481,-487.0,-862.0,148.0,2.0,2.0,4.0,168,107,123,132,117
2025-02-25 18:38:48.486,-496.0,-861.0,169.0,3.0,1.0,4.0,170,109,121,128,116
2025-02-25 18:38:48.493,-498.0,-852.0,181.0,4.0,1.0,4.0,165,104,119,129,117
2025-02-25 18:38:48.497,-512.0,-875.0,158.0,2.0,-1.0,3.0,169,109,125,134,118
2025-02-25 18:38:48.502,-470.0,-873.0,157.0,1.0,0.0,2.0,169,107,123,132,118
2025-02-25 18:38:48.506,-503.0,-840.0,129.0,-2.0,0.0,2.0,166,110,119,130,115
2025-02-25 18:38:48.510,-495.0,-857.0,164.0,1.0,-2.0,2.0,166,104,120,129,113
2025-02-25 18:38:48.518,-481.0,-862.0,163.0,1.0,-3.0,1.0,169,109,124,134,115
2025-02-25 18:38:48.522,-495.0,-870.0,134.0,2.0,-2.0,2.0,168,108,122,131,117
2025-02-25 18:38:48.526,-495.0,-856.0,150.0,1.0,-2.0,2.0,169,108,123,132,117
2025-02-25 18:38:48.531,-496.0,-866.0,163.0,2.0,-3.0,2.0,170,111,123,134,117
2025-02-25 18:38:48.538,-493.0,-864.0,144.0,3.0,-4.0,1.0,171,109,121,131,118
2025-02-25 18:38:48.542,-495.0,-856.0,143.0,3.0,-5.0,1.0,165,104,118,129,115
2025-02-25 18:38:48.546,-502.0,-859.0,149.0,4.0,-7.0,1.0,170,108,121,133,120
2025-02-25 18:38:48.551,-505.0,-855.0,150.0,4.0,-5.0,0.0,170,110,126,135,120
2025-02-25 18:38:48.559,-521.0,-859.0,166.0,4.0,-6.0,-1.0,171,109,122,130,118
2025-02-25 18:38:48.563,-508.0,-855.0,153.0,3.0,-5.0,0.0,165,105,120,130,114
2025-02-25 18:38:48.567,-509.0,-863.0,172.0,5.0,-6.0,0.0,173,113,127,137,123
2025-02-25 18:38:48.571,-523.0,-866.0,188.0,5.0,-5.0,0.0,169,109,124,134,120
2025-02-25 18:38:48.579,-520.0,-866.0,171.0,9.0,-6.0,0.0,165,104,118,129,114
2025-02-25 18:38:48.583,-517.0,-859.0,144.0,12.0,-7.0,0.0,164,103,120,129,114
2025-02-25 18:38:48.587,-526.0,-874.0,145.0,12.0,-5.0,0.0,169,110,121,133,120
2025-02-25 18:38:48.592,-503.0,-848.0,179.0,13.0,-5.0,0.0,166,104,120,130,117
2025-02-25 18:38:48.600,-517.0,-852.0,171.0,12.0,-3.0,-1.0,166,105,120,130,115
2025-02-25 18:38:48.604,-509.0,-857.0,150.0,14.0,-3.0,-1.0,176,114,128,139,125
2025-02-25 18:38:48.608,-502.0,-855.0,166.0,17.0,-4.0,-1.0,190,130,145,157,141
2025-02-25 18:38:48.612,-506.0,-837.0,160.0,17.0,-3.0,-3.0,186,127,141,153,137
2025-02-25 18:38:48.620,-492.0,-851.0,171.0,17.0,-3.0,-4.0,181,122,139,149,135
2025-02-25 18:38:48.624,-495.0,-846.0,171.0,17.0,-5.0,-4.0,182,123,137,148,132
2025-02-25 18:38:48.629,-497.0,-838.0,184.0,17.0,-5.0,-4.0,191,131,146,156,142
2025-02-25 18:38:48.636,-491.0,-834.0,180.0,17.0,-6.0,-4.0,195,138,152,164,151
2025-02-25 18:38:48.641,-493.0,-849.0,184.0,15.0,-6.0,-5.0,191,132,146,158,145
2025-02-25 18:38:48.645,-494.0,-847.0,190.0,14.0,-6.0,-6.0,189,135,149,160,148
2025-02-25 18:38:48.649,-485.0,-843.0,180.0,10.0,-5.0,-6.0,198,141,158,168,152
2025-02-25 18:38:48.657,-496.0,-851.0,176.0,8.0,-4.0,-6.0,184,125,142,153,139
2025-02-25 18:38:48.662,-488.0,-855.0,193.0,7.0,-5.0,-5.0,175,118,132,144,129
2025-02-25 18:38:48.666,-492.0,-855.0,180.0,5.0,-4.0,-5.0,176,116,134,140,128
2025-02-25 18:38:48.672,-495.0,-860.0,159.0,4.0,-4.0,-5.0,188,130,145,154,140
2025-02-25 18:38:48.677,-498.0,-861.0,176.0,4.0,-5.0,-5.0,182,124,138,151,135
2025-02-25 18:38:48.681,-488.0,-861.0,189.0,4.0,-5.0,-4.0,180,120,136,150,134
2025-02-25 18:38:48.686,-475.0,-866.0,185.0,4.0,-6.0,-4.0,187,121,143,157,144
2025-02-25 18:38:48.690,-455.0,-859.0,185.0,6.0,-8.0,-4.0,187,129,145,154,141
2025-02-25 18:38:48.697,-478.0,-858.0,194.0,5.0,-5.0,-3.0,184,125,141,152,137
2025-02-25 18:38:48.702,-468.0,-863.0,217.0,3.0,-5.0,-4.0,175,118,132,144,129
2025-02-25 18:38:48.706,-468.0,-862.0,203.0,5.0,-6.0,-4.0,174,111,127,139,122
2025-02-25 18:38:48.711,-457.0,-863.0,195.0,4.0,-4.0,-4.0,170,111,126,140,125
2025-02-25 18:38:48.718,-447.0,-866.0,224.0,5.0,-4.0,-4.0,167,107,124,137,122
2025-02-25 18:38:48.722,-484.0,-851.0,221.0,4.0,-4.0,-4.0,167,108,123,135,119
2025-02-25 18:38:48.726,-457.0,-864.0,186.0,3.0,-4.0,-5.0,167,109,125,141,122
2025-02-25 18:38:48.731,-465.0,-859.0,239.0,3.0,-3.0,-5.0,171,114,128,139,125
2025-02-25 18:38:48.739,-464.0,-852.0,249.0,1.0,-3.0,-5.0,169,110,126,138,122
2025-02-25 18:38:48.743,-473.0,-857.0,215.0,1.0,-3.0,-6.0,167,108,125,137,121
2025-02-25 18:38:48.748,-470.0,-864.0,224.0,1.0,-3.0,-6.0,172,113,129,142,124
2025-02-25 18:38:48.752,-476.0,-868.0,207.0,0.0,-3.0,-6.0,171,112,128,140,126
2025-02-25 18:38:48.760,-490.0,-888.0,214.0,0.0,-4.0,-6.0,171,110,127,140,124
2025-02-25 18:38:48.764,-486.0,-901.0,207.0,0.0,-4.0,-6.0,165,106,122,135,119
2025-02-25 18:38:48.768,-492.0,-900.0,202.0,-1.0,-3.0,-6.0,171,111,126,140,126
2025-02-25 18:38:48.776,-495.0,-912.0,202.0,-2.0,-3.0,-5.0,170,110,127,141,125
2025-02-25 18:38:48.779,-489.0,-930.0,194.0,-1.0,-4.0,-4.0,169,108,126,139,123
2025-02-25 18:38:48.784,-490.0,-931.0,196.0,-1.0,-4.0,-3.0,168,107,123,136,121
2025-02-25 18:38:48.788,-497.0,-939.0,218.0,1.0,-5.0,-2.0,166,107,124,140,121
2025-02-25 18:38:48.796,-484.0,-933.0,209.0,-1.0,-3.0,-1.0,171,112,129,139,124
2025-02-25 18:38:48.800,-493.0,-945.0,206.0,0.0,-3.0,1.0,168,108,125,141,124
2025-02-25 18:38:48.804,-488.0,-938.0,243.0,0.0,-3.0,3.0,167,107,122,136,121
2025-02-25 18:38:48.808,-482.0,-936.0,250.0,1.0,-2.0,3.0,170,113,128,141,126
2025-02-25 18:38:48.816,-486.0,-931.0,226.0,0.0,0.0,4.0,169,111,126,139,126
2025-02-25 18:38:48.820,-480.0,-910.0,229.0,0.0,1.0,5.0,166,106,123,135,120
2025-02-25 18:38:48.825,-490.0,-908.0,244.0,1.0,2.0,5.0,165,106,123,135,122
2025-02-25 18:38:48.829,-483.0,-895.0,224.0,0.0,3.0,4.0,171,110,128,142,126
2025-02-25 18:38:48.833,-494.0,-885.0,232.0,-1.0,3.0,4.0,166,105,123,137,121
2025-02-25 18:38:48.841,-495.0,-873.0,194.0,-3.0,3.0,4.0,166,106,126,136,119
2025-02-25 18:38:48.845,-495.0,-866.0,210.0,-2.0,3.0,3.0,170,110,127,139,124
2025-02-25 18:38:48.850,-496.0,-867.0,213.0,-3.0,3.0,2.0,168,109,124,139,125
2025-02-25 18:38:48.854,-503.0,-862.0,190.0,-3.0,4.0,3.0,165,107,120,134,119
2025-02-25 18:38:48.861,-497.0,-860.0,200.0,-5.0,4.0,3.0,169,112,128,140,124
2025-02-25 18:38:48.866,-494.0,-858.0,191.0,-6.0,3.0,3.0,169,113,126,140,124
2025-02-25 18:38:48.870,-480.0,-848.0,196.0,-4.0,4.0,3.0,164,106,123,137,122
2025-02-25 18:38:48.875,-486.0,-852.0,181.0,-5.0,5.0,3.0,163,102,120,134,117
2025-02-25 18:38:48.882,-483.0,-845.0,173.0,-4.0,6.0,3.0,172,111,128,141,126
2025-02-25 18:38:48.886,-487.0,-841.0,185.0,-4.0,6.0,3.0,173,114,129,143,127
2025-02-25 18:38:48.890,-489.0,-843.0,180.0,-4.0,5.0,3.0,173,114,129,143,127
2025-02-25 18:38:48.895,-482.0,-836.0,177.0,-5.0,5.0,3.0,168,108,125,138,123
2025-02-25 18:38:48.899,-484.0,-833.0,185.0,-5.0,6.0,3.0,169,111,127,142,125
2025-02-25 18:38:48.907,-493.0,-829.0,194.0,-4.0,6.0,1.0,165,107,120,134,120
2025-02-25 18:38:48.911,-498.0,-829.0,158.0,-5.0,5.0,1.0,167,108,125,137,120
2025-02-25 18:38:48.915,-499.0,-822.0,183.0,-3.0,6.0,-1.0,173,112,129,143,126
2025-02-25 18:38:48.919,-529.0,-828.0,145.0,-4.0,5.0,-3.0,172,113,130,143,127
2025-02-25 18:38:48.927,-517.0,-823.0,152.0,-3.0,4.0,-4.0,169,106,125,139,119
2025-02-25 18:38:48.931,-524.0,-820.0,155.0,-1.0,2.0,-5.0,171,113,130,143,127
2025-02-25 18:38:48.935,-549.0,-837.0,130.0,0.0,1.0,-5.0,179,116,134,150,134
2025-02-25 18:38:48.940,-518.0,-844.0,149.0,-1.0,-2.0,-5.0,179,120,135,149,133
2025-02-25 18:38:48.947,-517.0,-851.0,148.0,1.0,-1.0,-5.0,168,111,127,143,125
2025-02-25 18:38:48.952,-497.0,-851.0,229.0,2.0,-1.0,-5.0,179,121,137,150,135
2025-02-25 18:38:48.956,-482.0,-882.0,149.0,1.0,-4.0,-5.0,173,114,132,145,129
2025-02-25 18:38:48.963,-467.0,-870.0,207.0,8.0,-4.0,-4.0,165,106,125,136,122
2025-02-25 18:38:48.968,-473.0,-865.0,197.0,4.0,-2.0,-4.0,170,110,125,140,124
2025-02-25 18:38:48.972,-474.0,-883.0,178.0,2.0,-2.0,-4.0,168,108,125,140,123
2025-02-25 18:38:48.977,-465.0,-876.0,216.0,4.0,-3.0,-3.0,164,106,121,136,120
2025-02-25 18:38:48.985,-452.0,-868.0,189.0,5.0,-3.0,-3.0,166,107,120,137,121
2025-02-25 18:38:48.989,-454.0,-867.0,173.0,4.0,2.0,-2.0,168,116,125,140,123
2025-02-25 18:38:48.993,-439.0,-855.0,215.0,1.0,2.0,-3.0,168,109,127,140,124
2025-02-25 18:38:48.997,-452.0,-873.0,223.0,4.0,-3.0,-4.0,166,107,121,137,121
2025-02-25 18:38:49.005,-469.0,-877.0,186.0,0.0,-3.0,-4.0,169,107,123,140,119
2025-02-25 18:38:49.009,-439.0,-870.0,193.0,-3.0,-1.0,-4.0,167,106,122,136,121
2025-02-25 18:38:49.013,-464.0,-873.0,223.0,-1.0,0.0,-4.0,165,106,121,136,119
2025-02-25 18:38:49.018,-472.0,-881.0,221.0,1.0,-1.0,-4.0,167,108,123,137,120
2025-02-25 18:38:49.025,-471.0,-887.0,198.0,1.0,-2.0,-4.0,163,102,118,133,117
2025-02-25 18:38:49.029,-470.0,-883.0,192.0,-1.0,-2.0,-4.0,163,102,119,134,118
2025-02-25 18:38:49.034,-480.0,-892.0,199.0,-3.0,-4.0,-3.0,162,104,119,135,117
2025-02-25 18:38:49.038,-469.0,-893.0,195.0,-2.0,-4.0,-3.0,161,101,118,132,115
2025-02-25 18:38:49.046,-471.0,-890.0,193.0,-2.0,-5.0,-3.0,162,103,119,133,119
2025-02-25 18:38:49.050,-470.0,-888.0,191.0,-1.0,-3.0,-3.0,163,104,121,135,118
2025-02-25 18:38:49.054,-475.0,-894.0,199.0,0.0,-3.0,-2.0,165,104,123,136,121
2025-02-25 18:38:49.058,-472.0,-894.0,199.0,0.0,-4.0,-2.0,166,105,122,137,119
2025-02-25 18:38:49.066,-477.0,-882.0,189.0,0.0,-4.0,-2.0,163,104,120,134,118
2025-02-25 18:38:49.070,-476.0,-878.0,215.0,1.0,-4.0,-2.0,163,102,119,134,117
2025-02-25 18:38:49.075,-478.0,-874.0,213.0,2.0,-4.0,-2.0,167,106,120,135,121
2025-02-25 18:38:49.079,-492.0,-883.0,160.0,1.0,-5.0,-2.0,165,108,120,135,119
2025-02-25 18:38:49.087,-483.0,-877.0,214.0,2.0,-5.0,-2.0,164,103,120,134,117
2025-02-25 18:38:49.091,-493.0,-874.0,166.0,0.0,-4.0,-1.0,164,105,121,133,117
2025-02-25 18:38:49.096,-484.0,-852.0,215.0,3.0,-5.0,-2.0,165,101,123,136,119
2025-02-25 18:38:49.100,-519.0,-850.0,150.0,2.0,-3.0,-3.0,163,105,122,135,119
2025-02-25 18:38:49.107,-479.0,-848.0,184.0,3.0,-4.0,-3.0,158,104,120,130,119
2025-02-25 18:38:49.112,-495.0,-828.0,176.0,3.0,-3.0,-3.0,166,104,122,136,121
2025-02-25 18:38:49.116,-508.0,-844.0,184.0,3.0,-5.0,-4.0,167,106,122,136,121
2025-02-25 18:38:49.124,-504.0,-826.0,180.0,4.0,-5.0,-5.0,165,103,120,135,120
2025-02-25 18:38:49.128,-500.0,-811.0,177.0,5.0,-5.0,-6.0,166,105,121,136,120
2025-02-25 18:38:49.132,-498.0,-816.0,164.0,5.0,-5.0,-6.0,165,106,122,137,122
2025-02-25 18:38:49.137,-502.0,-810.0,193.0,6.0,-6.0,-7.0,164,106,122,136,120
2025-02-25 18:38:49.144,-514.0,-812.0,180.0,4.0,-6.0,-9.0,163,104,119,133,117
2025-02-25 18:38:49.148,-495.0,-812.0,167.0,6.0,-7.0,-10.0,167,106,123,137,120
2025-02-25 18:38:49.153,-492.0,-817.0,171.0,5.0,-7.0,-10.0,165,106,122,137,121
2025-02-25 18:38:49.157,-473.0,-810.0,185.0,4.0,-6.0,-9.0,163,104,121,135,120
2025-02-25 18:38:49.165,-468.0,-827.0,212.0,4.0,-5.0,-9.0,164,104,120,133,120
2025-02-25 18:38:49.169,-464.0,-826.0,196.0,2.0,-6.0,-9.0,164,105,118,135,118
2025-02-25 18:38:49.174,-459.0,-834.0,199.0,3.0,-3.0,-9.0,164,106,122,138,122
2025-02-25 18:38:49.178,-473.0,-837.0,239.0,6.0,-2.0,-9.0,166,109,121,137,121
2025-02-25 18:38:49.185,-475.0,-849.0,226.0,4.0,-2.0,-10.0,163,101,118,134,117
2025-02-25 18:38:49.190,-473.0,-863.0,206.0,6.0,-3.0,-10.0,164,105,119,135,119
2025-02-25 18:38:49.194,-471.0,-867.0,200.0,5.0,-2.0,-10.0,165,106,123,136,120
2025-02-25 18:38:49.199,-478.0,-876.0,190.0,7.0,-2.0,-10.0,165,107,123,137,120
2025-02-25 18:38:49.206,-472.0,-886.0,193.0,5.0,-2.0,-10.0,164,102,120,136,121
2025-02-25 18:38:49.211,-465.0,-898.0,213.0,7.0,-2.0,-10.0,163,104,122,134,117
2025-02-25 18:38:49.215,-462.0,-910.0,212.0,7.0,-3.0,-10.0,164,103,118,135,118
2025-02-25 18:38:49.222,-461.0,-911.0,206.0,6.0,-4.0,-9.0,164,107,122,138,121
2025-02-25 18:38:49.227,-458.0,-936.0,227.0,5.0,-5.0,-9.0,164,105,120,137,119
2025-02-25 18:38:49.231,-450.0,-940.0,221.0,4.0,-5.0,-9.0,162,102,118,134,118
2025-02-25 18:38:49.235,-462.0,-946.0,247.0,4.0,-4.0,-8.0,167,106,122,135,119
2025-02-25 18:38:49.243,-449.0,-968.0,229.0,2.0,-6.0,-9.0,165,106,121,135,120
2025-02-25 18:38:49.247,-448.0,-975.0,237.0,4.0,-6.0,-8.0,165,101,120,135,124
2025-02-25 18:38:49.252,-448.0,-969.0,252.0,1.0,-7.0,-6.0,162,101,119,133,117
2025-02-25 18:38:49.256,-463.0,-979.0,228.0,1.0,-5.0,-5.0,164,104,122,139,119
2025-02-25 18:38:49.263,-439.0,-974.0,252.0,-1.0,-6.0,-3.0,165,106,122,136,120
2025-02-25 18:38:49.268,-438.0,-974.0,249.0,-1.0,-5.0,-2.0,177,108,124,141,121
2025-02-25 18:38:49.272,-442.0,-959.0,245.0,-1.0,-5.0,-1.0,162,103,119,133,118
2025-02-25 18:38:49.275,-424.0,-952.0,250.0,-3.0,-4.0,-1.0,162,104,121,140,120
2025-02-25 18:38:49.283,-427.0,-942.0,251.0,-3.0,-3.0,0.0,165,106,122,136,120
2025-02-25 18:38:49.287,-430.0,-932.0,249.0,-4.0,-3.0,1.0,169,109,124,138,123
2025-02-25 18:38:49.292,-425.0,-914.0,236.0,-4.0,-4.0,1.0,163,103,117,133,117
2025-02-25 18:38:49.297,-420.0,-914.0,231.0,-5.0,-3.0,2.0,166,107,122,137,120
2025-02-25 18:38:49.304,-422.0,-897.0,229.0,-5.0,-2.0,2.0,164,106,123,138,121
2025-02-25 18:38:49.308,-433.0,-879.0,227.0,-5.0,-4.0,2.0,166,107,124,138,122
2025-02-25 18:38:49.312,-432.0,-843.0,244.0,-3.0,-3.0,2.0,164,100,117,133,117
2025-02-25 18:38:49.316,-420.0,-866.0,229.0,-3.0,-2.0,2.0,165,104,120,135,120
2025-02-25 18:38:49.324,-468.0,-853.0,199.0,0.0,-4.0,2.0,165,104,121,136,121
2025-02-25 18:38:49.328,-439.0,-867.0,212.0,-1.0,-3.0,1.0,165,104,120,135,119
2025-02-25 18:38:49.333,-465.0,-845.0,232.0,-4.0,-1.0,1.0,164,105,119,134,119
2025-02-25 18:38:49.338,-438.0,-836.0,202.0,-6.0,-2.0,0.0,166,106,122,134,126
2025-02-25 18:38:49.345,-455.0,-847.0,216.0,-3.0,-4.0,-1.0,165,105,123,137,118
2025-02-25 18:38:49.350,-474.0,-844.0,212.0,-5.0,-5.0,-2.0,165,102,121,135,118
2025-02-25 18:38:49.354,-470.0,-845.0,203.0,-6.0,-2.0,-2.0,162,104,120,135,118
2025-02-25 18:38:49.361,-461.0,-844.0,219.0,-8.0,-3.0,-2.0,165,106,121,135,120
2025-02-25 18:38:49.366,-470.0,-865.0,225.0,-5.0,-1.0,-2.0,164,104,119,136,120
2025-02-25 18:38:49.370,-476.0,-870.0,209.0,-6.0,-3.0,-1.0,164,105,121,132,121
2025-02-25 18:38:49.374,-472.0,-879.0,210.0,-5.0,-2.0,0.0,162,101,119,132,116
2025-02-25 18:38:49.382,-464.0,-872.0,219.0,-6.0,0.0,0.0,166,107,121,137,121
2025-02-25 18:38:49.386,-478.0,-898.0,220.0,-6.0,-1.0,1.0,165,105,121,136,121
2025-02-25 18:38:49.390,-474.0,-892.0,217.0,-6.0,-2.0,2.0,162,103,119,134,118
2025-02-25 18:38:49.395,-470.0,-894.0,229.0,-5.0,-1.0,2.0,161,99,118,134,120
2025-02-25 18:38:49.402,-469.0,-892.0,220.0,-4.0,0.0,3.0,164,106,123,137,122
2025-02-25 18:38:49.406,-465.0,-873.0,218.0,-3.0,1.0,3.0,164,105,122,137,120
2025-02-25 18:38:49.411,-468.0,-874.0,230.0,-2.0,1.0,2.0,162,104,118,133,118
2025-02-25 18:38:49.415,-479.0,-877.0,222.0,0.0,0.0,2.0,165,107,115,136,120
2025-02-25 18:38:49.423,-475.0,-868.0,217.0,4.0,-2.0,1.0,165,105,122,136,122
2025-02-25 18:38:49.427,-468.0,-883.0,244.0,2.0,4.0,1.0,163,102,118,133,118
2025-02-25 18:38:49.431,-446.0,-853.0,229.0,0.0,3.0,1.0,160,101,119,135,119
2025-02-25 18:38:49.435,-460.0,-873.0,242.0,5.0,0.0,1.0,167,105,123,138,123
2025-02-25 18:38:49.440,-496.0,-851.0,218.0,5.0,1.0,0.0,162,101,119,133,120
2025-02-25 18:38:49.447,-480.0,-860.0,175.0,4.0,2.0,0.0,162,101,119,133,121
2025-02-25 18:38:49.451,-471.0,-859.0,208.0,4.0,3.0,-1.0,166,106,122,137,122
2025-02-25 18:38:49.455,-514.0,-891.0,192.0,3.0,1.0,-1.0,165,103,120,139,122
2025-02-25 18:38:49.460,-488.0,-854.0,189.0,8.0,-2.0,-1.0,162,101,118,132,117
2025-02-25 18:38:49.468,-475.0,-871.0,222.0,7.0,-3.0,-1.0,163,112,121,137,121
2025-02-25 18:38:49.472,-492.0,-868.0,229.0,6.0,-1.0,-2.0,166,105,123,139,124
2025-02-25 18:38:49.476,-508.0,-870.0,205.0,4.0,0.0,-2.0,163,103,113,135,122
2025-02-25 18:38:49.481,-492.0,-862.0,223.0,4.0,-1.0,-2.0,163,103,120,131,121
2025-02-25 18:38:49.488,-495.0,-851.0,223.0,2.0,-2.0,-1.0,169,107,128,138,125
2025-02-25 18:38:49.493,-479.0,-843.0,201.0,2.0,-2.0,-2.0,165,105,123,140,125
2025-02-25 18:38:49.497,-462.0,-852.0,207.0,1.0,-2.0,-2.0,162,104,118,133,123
2025-02-25 18:38:49.501,-466.0,-855.0,195.0,0.0,-2.0,-2.0,161,103,119,135,122
2025-02-25 18:38:49.509,-458.0,-835.0,194.0,3.0,-1.0,-3.0,168,109,126,140,128
2025-02-25 18:38:49.513,-459.0,-834.0,215.0,4.0,-2.0,-3.0,164,105,121,137,124
2025-02-25 18:38:49.517,-465.0,-834.0,197.0,4.0,-2.0,-4.0,161,103,118,134,122
2025-02-25 18:38:49.521,-447.0,-824.0,226.0,7.0,-1.0,-5.0,165,101,119,133,122
2025-02-25 18:38:49.529,-442.0,-834.0,214.0,7.0,-2.0,-6.0,167,109,125,140,129
2025-02-25 18:38:49.533,-449.0,-833.0,213.0,7.0,-2.0,-6.0,165,104,121,137,126
2025-02-25 18:38:49.538,-469.0,-845.0,226.0,10.0,-3.0,-7.0,163,104,120,135,123
2025-02-25 18:38:49.542,-455.0,-851.0,186.0,8.0,-3.0,-7.0,160,103,118,133,122
2025-02-25 18:38:49.550,-461.0,-825.0,218.0,10.0,0.0,-7.0,166,115,125,140,129
2025-02-25 18:38:49.554,-476.0,-839.0,207.0,8.0,-1.0,-7.0,165,105,122,137,126
2025-02-25 18:38:49.558,-481.0,-852.0,219.0,8.0,-1.0,-8.0,162,105,120,135,124
2025-02-25 18:38:49.562,-468.0,-840.0,198.0,8.0,-4.0,-8.0,164,106,122,137,126
2025-02-25 18:38:49.570,-472.0,-852.0,208.0,7.0,-4.0,-9.0,166,107,124,138,128
2025-02-25 18:38:49.575,-466.0,-848.0,229.0,7.0,-1.0,-9.0,166,107,122,139,128
2025-02-25 18:38:49.579,-459.0,-860.0,228.0,6.0,-1.0,-10.0,162,103,120,134,122
2025-02-25 18:38:49.586,-464.0,-861.0,238.0,6.0,-1.0,-10.0,166,106,123,139,129
2025-02-25 18:38:49.591,-458.0,-866.0,232.0,4.0,-3.0,-9.0,166,108,124,139,128
2025-02-25 18:38:49.595,-448.0,-876.0,219.0,3.0,-1.0,-8.0,164,107,121,138,127
2025-02-25 18:38:49.599,-458.0,-875.0,244.0,2.0,-1.0,-7.0,162,104,121,135,123
2025-02-25 18:38:49.607,-452.0,-887.0,241.0,2.0,-1.0,-7.0,164,107,123,139,128
2025-02-25 18:38:49.611,-442.0,-900.0,237.0,4.0,-1.0,-8.0,166,108,123,138,129
2025-02-25 18:38:49.616,-440.0,-912.0,238.0,5.0,-1.0,-7.0,163,105,122,137,128
2025-02-25 18:38:49.620,-437.0,-925.0,216.0,6.0,-1.0,-7.0,161,103,122,135,125
2025-02-25 18:38:49.627,-447.0,-918.0,231.0,11.0,-4.0,-7.0,166,107,123,139,130
2025-02-25 18:38:49.632,-442.0,-927.0,217.0,13.0,-5.0,-7.0,166,109,125,140,129
2025-02-25 18:38:49.636,-471.0,-929.0,194.0,13.0,-7.0,-7.0,164,109,125,139,128
2025-02-25 18:38:49.640,-477.0,-945.0,206.0,16.0,-8.0,-7.0,162,104,122,135,126
2025-02-25 18:38:49.648,-487.0,-930.0,204.0,15.0,-11.0,-9.0,169,111,127,140,130
2025-02-25 18:38:49.652,-473.0,-933.0,202.0,15.0,-13.0,-11.0,166,109,126,140,130
2025-02-25 18:38:49.656,-460.0,-906.0,239.0,13.0,-14.0,-11.0,164,109,125,139,131
2025-02-25 18:38:49.664,-420.0,-903.0,266.0,11.0,-12.0,-10.0,163,106,125,139,130
2025-02-25 18:38:49.669,-400.0,-923.0,283.0,7.0,-11.0,-7.0,166,108,124,138,131
2025-02-25 18:38:49.673,-386.0,-923.0,297.0,2.0,-9.0,-5.0,162,106,122,136,127
2025-02-25 18:38:49.678,-381.0,-954.0,307.0,-2.0,-6.0,0.0,165,111,125,139,133
2025-02-25 18:38:49.685,-384.0,-991.0,307.0,-4.0,-2.0,4.0,164,110,123,138,130
2025-02-25 18:38:49.690,-372.0,-997.0,302.0,-5.0,0.0,7.0,162,112,126,138,132
2025-02-25 18:38:49.694,-384.0,-1003.0,302.0,-5.0,5.0,7.0,166,114,127,138,133
2025-02-25 18:38:49.698,-420.0,-1005.0,302.0,-6.0,7.0,8.0,166,112,127,139,133
2025-02-25 18:38:49.705,-444.0,-998.0,291.0,-6.0,6.0,9.0,165,115,123,137,131
2025-02-25 18:38:49.710,-457.0,-984.0,258.0,-5.0,5.0,10.0,165,111,125,139,132
2025-02-25 18:38:49.714,-481.0,-977.0,249.0,-4.0,4.0,10.0,166,115,127,140,134
2025-02-25 18:38:49.719,-493.0,-969.0,254.0,-2.0,4.0,12.0,166,113,125,141,135
2025-02-25 18:38:49.725,-501.0,-959.0,229.0,-1.0,3.0,12.0,163,119,125,137,131
2025-02-25 18:38:49.730,-507.0,-934.0,227.0,1.0,-1.0,12.0,164,115,126,140,134
2025-02-25 18:38:49.734,-497.0,-923.0,222.0,1.0,-6.0,12.0,165,114,125,140,134
2025-02-25 18:38:49.738,-499.0,-910.0,190.0,0.0,-10.0,11.0,163,116,126,140,135
2025-02-25 18:38:49.747,-479.0,-885.0,188.0,2.0,-12.0,10.0,165,116,132,138,133
2025-02-25 18:38:49.751,-476.0,-888.0,244.0,2.0,-10.0,9.0,165,117,126,141,135
2025-02-25 18:38:49.755,-467.0,-876.0,251.0,1.0,-10.0,8.0,170,122,132,144,141
2025-02-25 18:38:49.763,-458.0,-847.0,260.0,1.0,-11.0,5.0,169,122,132,145,140
2025-02-25 18:38:49.767,-450.0,-851.0,273.0,0.0,-11.0,3.0,168,119,131,142,137
2025-02-25 18:38:49.771,-454.0,-860.0,281.0,-2.0,-12.0,2.0,166,120,129,141,137
2025-02-25 18:38:49.775,-442.0,-881.0,257.0,-5.0,-12.0,2.0,170,122,131,144,142
2025-02-25 18:38:49.784,-458.0,-851.0,279.0,-4.0,-7.0,2.0,171,127,134,146,143
2025-02-25 18:38:49.788,-465.0,-879.0,277.0,-5.0,-5.0,2.0,175,130,137,149,146
2025-02-25 18:38:49.792,-462.0,-910.0,266.0,-5.0,-4.0,3.0,173,126,133,145,142
2025-02-25 18:38:49.796,-464.0,-909.0,226.0,0.0,-5.0,3.0,169,130,136,145,145
2025-02-25 18:38:49.804,-458.0,-919.0,269.0,-3.0,-2.0,6.0,170,127,134,143,142
2025-02-25 18:38:49.808,-461.0,-924.0,232.0,-5.0,-2.0,8.0,171,131,136,147,144
2025-02-25 18:38:49.812,-461.0,-910.0,234.0,-7.0,-4.0,9.0,170,127,134,142,140
2025-02-25 18:38:49.817,-469.0,-891.0,250.0,-9.0,-7.0,10.0,172,128,135,146,144
2025-02-25 18:38:49.824,-462.0,-905.0,251.0,-9.0,-8.0,11.0,171,129,134,145,142
2025-02-25 18:38:49.828,-456.0,-865.0,247.0,-7.0,-10.0,10.0,170,130,136,144,142
2025-02-25 18:38:49.833,-439.0,-839.0,230.0,-4.0,-10.0,10.0,170,129,134,143,141
2025-02-25 18:38:49.843,-442.0,-842.0,204.0,-2.0,-10.0,8.0,170,133,137,145,144
2025-02-25 18:38:49.845,-433.0,-841.0,215.0,-6.0,-9.0,7.0,172,132,137,146,144
2025-02-25 18:38:49.849,-430.0,-830.0,214.0,-6.0,-11.0,5.0,170,134,138,143,143
2025-02-25 18:38:49.853,-422.0,-810.0,259.0,-3.0,-11.0,2.0,167,132,135,142,142
2025-02-25 18:38:49.861,-424.0,-794.0,244.0,1.0,-8.0,1.0,171,135,138,147,147
2025-02-25 18:38:49.865,-436.0,-817.0,270.0,2.0,-3.0,0.0,173,140,139,144,145
2025-02-25 18:38:49.870,-435.0,-814.0,248.0,4.0,0.0,-3.0,168,135,137,142,142
2025-02-25 18:38:49.873,-466.0,-796.0,202.0,8.0,0.0,-4.0,166,132,134,139,140
2025-02-25 18:38:49.881,-454.0,-821.0,209.0,8.0,-2.0,-2.0,168,137,137,142,144
2025-02-25 18:38:49.885,-469.0,-808.0,231.0,9.0,-4.0,-2.0,167,137,138,142,143
2025-02-25 18:38:49.889,-460.0,-782.0,190.0,6.0,-7.0,-2.0,166,134,136,142,142
2025-02-25 18:38:49.894,-450.0,-811.0,188.0,10.0,-13.0,-2.0,168,136,136,140,142
2025-02-25 18:38:49.902,-464.0,-797.0,199.0,9.0,-15.0,-4.0,169,142,140,143,144
2025-02-25 18:38:49.907,-461.0,-768.0,208.0,9.0,-15.0,-7.0,171,142,142,140,144
2025-02-25 18:38:49.911,-463.0,-784.0,175.0,13.0,-15.0,-9.0,171,141,141,144,145
2025-02-25 18:38:49.919,-461.0,-789.0,212.0,12.0,-17.0,-13.0,168,144,142,143,146
2025-02-25 18:38:49.922,-460.0,-780.0,176.0,12.0,-16.0,-16.0,170,145,143,145,147
2025-02-25 18:38:49.927,-459.0,-782.0,178.0,14.0,-19.0,-19.0,171,149,146,146,149
2025-02-25 18:38:49.931,-455.0,-810.0,194.0,13.0,-22.0,-21.0,169,145,143,142,146
2025-02-25 18:38:49.939,-487.0,-809.0,196.0,10.0,-25.0,-25.0,166,140,139,141,145
2025-02-25 18:38:49.943,-486.0,-837.0,196.0,9.0,-29.0,-26.0,165,140,137,140,141
2025-02-25 18:38:49.947,-444.0,-811.0,235.0,6.0,-30.0,-27.0,165,143,138,140,142
2025-02-25 18:38:49.955,-413.0,-785.0,249.0,5.0,-32.0,-28.0,168,145,143,144,146
2025-02-25 18:38:49.959,-422.0,-814.0,223.0,5.0,-35.0,-28.0,168,145,142,142,144
2025-02-25 18:38:49.963,-443.0,-833.0,242.0,4.0,-38.0,-27.0,166,147,140,143,145
2025-02-25 18:38:49.971,-449.0,-842.0,270.0,-1.0,-39.0,-26.0,164,145,140,140,143
2025-02-25 18:38:49.976,-470.0,-843.0,292.0,-6.0,-39.0,-25.0,164,141,136,139,142
2025-02-25 18:38:49.980,-458.0,-872.0,339.0,-12.0,-38.0,-23.0,164,145,138,142,144
2025-02-25 18:38:49.988,-450.0,-867.0,328.0,-17.0,-39.0,-20.0,164,144,139,142,145
2025-02-25 18:38:49.992,-448.0,-886.0,339.0,-18.0,-39.0,-18.0,165,146,139,141,144
2025-02-25 18:38:49.997,-439.0,-897.0,285.0,-21.0,-39.0,-17.0,165,139,139,140,140
2025-02-25 18:38:50.004,-416.0,-924.0,287.0,-20.0,-39.0,-16.0,162,144,136,136,142
2025-02-25 18:38:50.009,-427.0,-945.0,245.0,-27.0,-41.0,-13.0,165,147,139,141,143
2025-02-25 18:38:50.013,-422.0,-910.0,302.0,-38.0,-35.0,-13.0,160,143,133,138,141
2025-02-25 18:38:50.021,-411.0,-929.0,296.0,-37.0,-29.0,-13.0,165,148,139,141,144
2025-02-25 18:38:50.025,-412.0,-945.0,295.0,-30.0,-25.0,-11.0,163,147,138,140,144
2025-02-25 18:38:50.029,-382.0,-945.0,333.0,-29.0,-21.0,-10.0,166,149,138,142,145
2025-02-25 18:38:50.037,-382.0,-939.0,334.0,-31.0,-18.0,-10.0,167,147,138,142,144
2025-02-25 18:38:50.042,-389.0,-929.0,319.0,-31.0,-15.0,-10.0,160,146,135,138,140
2025-02-25 18:38:50.046,-391.0,-901.0,323.0,-24.0,-10.0,-11.0,160,142,133,140,141
2025-02-25 18:38:50.054,-404.0,-905.0,301.0,-18.0,-4.0,-12.0,159,141,133,137,141
2025-02-25 18:38:50.058,-403.0,-903.0,285.0,-12.0,0.0,-13.0,163,146,136,140,143
2025-02-25 18:38:50.062,-426.0,-915.0,269.0,-8.0,1.0,-13.0,164,148,138,141,144
2025-02-25 18:38:50.066,-429.0,-885.0,269.0,-4.0,2.0,-13.0,164,148,140,145,147
2025-02-25 18:38:50.074,-427.0,-883.0,280.0,0.0,2.0,-12.0,162,151,136,140,143
2025-02-25 18:38:50.079,-440.0,-861.0,239.0,1.0,2.0,-12.0,165,149,141,144,146
2025-02-25 18:38:50.083,-438.0,-852.0,234.0,5.0,1.0,-11.0,166,151,140,146,148
2025-02-25 18:38:50.091,-447.0,-847.0,226.0,7.0,0.0,-11.0,166,152,140,145,149
2025-02-25 18:38:50.095,-439.0,-845.0,229.0,10.0,-1.0,-11.0,167,151,140,146,145
2025-02-25 18:38:50.099,-433.0,-858.0,225.0,12.0,-3.0,-11.0,168,153,143,148,152
2025-02-25 18:38:50.104,-425.0,-858.0,242.0,11.0,-6.0,-11.0,169,155,145,148,152
2025-02-25 18:38:50.111,-419.0,-855.0,233.0,9.0,-9.0,-11.0,168,149,142,147,151
2025-02-25 18:38:50.115,-417.0,-862.0,229.0,7.0,-10.0,-11.0,165,150,138,144,148
2025-02-25 18:38:50.119,-424.0,-861.0,218.0,3.0,-15.0,-10.0,165,151,141,144,148
2025-02-25 18:38:50.127,-403.0,-857.0,230.0,5.0,-15.0,-10.0,169,153,143,147,151
2025-02-25 18:38:50.131,-397.0,-870.0,237.0,-1.0,-16.0,-10.0,168,153,143,148,151
2025-02-25 18:38:50.136,-398.0,-878.0,240.0,-4.0,-17.0,-9.0,166,149,139,145,154
2025-02-25 18:38:50.141,-387.0,-863.0,261.0,-4.0,-16.0,-9.0,165,150,140,144,147
2025-02-25 18:38:50.148,-379.0,-882.0,258.0,-7.0,-17.0,-8.0,168,154,142,146,150
2025-02-25 18:38:50.153,-377.0,-885.0,256.0,-10.0,-17.0,-7.0,167,151,142,146,150
2025-02-25 18:38:50.156,-363.0,-879.0,272.0,-11.0,-14.0,-6.0,168,152,146,146,149
2025-02-25 18:38:50.164,-350.0,-881.0,264.0,-12.0,-13.0,-6.0,167,151,140,145,150
2025-02-25 18:38:50.169,-348.0,-883.0,263.0,-13.0,-10.0,-6.0,166,151,141,146,150
2025-02-25 18:38:50.173,-337.0,-884.0,274.0,-10.0,-9.0,-6.0,165,151,140,144,147
2025-02-25 18:38:50.180,-356.0,-889.0,256.0,-11.0,-8.0,-6.0,163,148,136,142,146
2025-02-25 18:38:50.185,-375.0,-879.0,269.0,-6.0,-6.0,-7.0,168,153,143,148,151
2025-02-25 18:38:50.189,-378.0,-876.0,272.0,-4.0,-5.0,-7.0,170,153,142,148,153
2025-02-25 18:38:50.194,-394.0,-878.0,263.0,-3.0,-5.0,-7.0,167,153,139,146,149
2025-02-25 18:38:50.201,-391.0,-864.0,252.0,1.0,-3.0,-7.0,166,153,142,146,149
2025-02-25 18:38:50.205,-382.0,-861.0,262.0,5.0,-2.0,-8.0,169,154,143,150,152
2025-02-25 18:38:50.210,-381.0,-858.0,259.0,7.0,-3.0,-8.0,170,157,146,151,154
2025-02-25 18:38:50.217,-396.0,-855.0,244.0,9.0,-4.0,-7.0,168,153,143,147,151
2025-02-25 18:38:50.222,-405.0,-869.0,266.0,11.0,-3.0,-7.0,168,153,143,150,152
2025-02-25 18:38:50.226,-401.0,-882.0,282.0,13.0,-3.0,-6.0,173,158,149,154,158
2025-02-25 18:38:50.230,-395.0,-887.0,287.0,14.0,-4.0,-6.0,176,161,150,157,162
2025-02-25 18:38:50.237,-406.0,-892.0,276.0,14.0,-5.0,-5.0,172,156,148,150,154
2025-02-25 18:38:50.242,-400.0,-894.0,274.0,15.0,-6.0,-5.0,170,155,145,148,154
2025-02-25 18:38:50.246,-395.0,-891.0,276.0,13.0,-6.0,-5.0,172,155,147,151,156
2025-02-25 18:38:50.251,-382.0,-891.0,282.0,13.0,-5.0,-5.0,172,158,147,153,156
2025-02-25 18:38:50.259,-375.0,-890.0,287.0,12.0,-5.0,-6.0,168,155,144,150,153
2025-02-25 18:38:50.263,-375.0,-896.0,285.0,10.0,-5.0,-6.0,167,153,141,146,150
2025-02-25 18:38:50.267,-379.0,-901.0,299.0,9.0,-4.0,-6.0,171,156,145,149,153
2025-02-25 18:38:50.274,-367.0,-910.0,305.0,6.0,-3.0,-6.0,167,154,144,150,153
2025-02-25 18:38:50.279,-360.0,-915.0,314.0,5.0,-2.0,-6.0,168,153,140,147,151
2025-02-25 18:38:50.283,-360.0,-920.0,318.0,2.0,-2.0,-7.0,166,150,141,145,148
2025-02-25 18:38:50.287,-355.0,-928.0,324.0,1.0,0.0,-7.0,170,155,145,149,154
2025-02-25 18:38:50.295,-356.0,-932.0,320.0,-1.0,2.0,-7.0,169,155,144,148,152
2025-02-25 18:38:50.299,-360.0,-936.0,326.0,-1.0,5.0,-7.0,165,150,140,147,149
2025-02-25 18:38:50.303,-360.0,-940.0,324.0,-1.0,6.0,-7.0,165,151,141,146,148
2025-02-25 18:38:50.308,-368.0,-943.0,307.0,0.0,8.0,-7.0,171,154,146,149,153
2025-02-25 18:38:50.312,-376.0,-950.0,311.0,1.0,8.0,-6.0,167,153,142,147,151
2025-02-25 18:38:50.320,-374.0,-929.0,306.0,3.0,8.0,-6.0,165,150,140,145,149
2025-02-25 18:38:50.324,-371.0,-923.0,289.0,4.0,7.0,-5.0,165,147,138,144,148
2025-02-25 18:38:50.328,-375.0,-920.0,284.0,5.0,6.0,-4.0,169,154,145,149,153
2025-02-25 18:38:50.333,-379.0,-902.0,277.0,6.0,5.0,-4.0,167,154,143,148,152
2025-02-25 18:38:50.340,-367.0,-910.0,307.0,8.0,6.0,-4.0,166,150,140,146,150
2025-02-25 18:38:50.344,-362.0,-914.0,295.0,8.0,6.0,-4.0,168,152,142,150,151
2025-02-25 18:38:50.349,-363.0,-911.0,301.0,10.0,5.0,-3.0,167,154,142,150,154
2025-02-25 18:38:50.354,-369.0,-903.0,295.0,12.0,5.0,-3.0,168,151,142,146,150
2025-02-25 18:38:50.361,-358.0,-891.0,298.0,13.0,5.0,-3.0,164,150,138,144,148
2025-02-25 18:38:50.365,-363.0,-891.0,292.0,14.0,5.0,-3.0,168,154,143,150,155
2025-02-25 18:38:50.369,-357.0,-889.0,291.0,14.0,4.0,-3.0,169,154,144,149,153
2025-02-25 18:38:50.373,-361.0,-892.0,294.0,14.0,4.0,-3.0,167,152,141,147,150
2025-02-25 18:38:50.381,-369.0,-887.0,301.0,14.0,4.0,-3.0,167,150,140,147,150
2025-02-25 18:38:50.385,-366.0,-888.0,297.0,14.0,3.0,-4.0,169,154,143,150,154
2025-02-25 18:38:50.390,-369.0,-882.0,293.0,14.0,2.0,-4.0,168,154,143,150,153
2025-02-25 18:38:50.394,-371.0,-886.0,294.0,13.0,2.0,-5.0,165,151,140,145,150
2025-02-25 18:38:50.401,-372.0,-886.0,295.0,10.0,1.0,-5.0,170,157,144,149,154
2025-02-25 18:38:50.406,-365.0,-890.0,295.0,8.0,1.0,-5.0,169,155,144,149,153
2025-02-25 18:38:50.410,-373.0,-899.0,299.0,7.0,0.0,-5.0,167,153,141,149,152
2025-02-25 18:38:50.414,-367.0,-907.0,296.0,5.0,0.0,-6.0,169,153,141,147,151
2025-02-25 18:38:50.422,-355.0,-911.0,290.0,2.0,0.0,-6.0,169,155,145,151,154
2025-02-25 18:38:50.426,-356.0,-911.0,289.0,1.0,1.0,-6.0,169,154,144,151,153
2025-02-25 18:38:50.430,-360.0,-923.0,282.0,-1.0,2.0,-6.0,166,152,141,149,152
2025-02-25 18:38:50.435,-358.0,-924.0,279.0,-1.0,3.0,-6.0,169,153,142,149,151
2025-02-25 18:38:50.442,-367.0,-935.0,287.0,-1.0,4.0,-5.0,169,155,146,150,154
2025-02-25 18:38:50.446,-353.0,-926.0,296.0,-1.0,4.0,-5.0,168,152,144,150,153
2025-02-25 18:38:50.452,-363.0,-924.0,301.0,0.0,4.0,-5.0,167,153,141,147,152
2025-02-25 18:38:50.456,-372.0,-924.0,311.0,0.0,4.0,-5.0,169,155,142,151,153
2025-02-25 18:38:50.464,-366.0,-913.0,313.0,1.0,4.0,-5.0,172,156,146,152,154
2025-02-25 18:38:50.468,-369.0,-917.0,308.0,1.0,4.0,-5.0,168,154,144,149,152
2025-02-25 18:38:50.472,-367.0,-913.0,294.0,2.0,3.0,-5.0,166,154,143,150,153
2025-02-25 18:38:50.476,-382.0,-903.0,305.0,3.0,4.0,-6.0,172,157,150,153,157
2025-02-25 18:38:50.483,-375.0,-899.0,288.0,3.0,3.0,-6.0,171,155,145,152,155
2025-02-25 18:38:50.488,-380.0,-894.0,292.0,4.0,2.0,-6.0,170,153,143,149,154
2025-02-25 18:38:50.492,-378.0,-888.0,298.0,5.0,1.0,-6.0,173,158,147,154,158
2025-02-25 18:38:50.496,-367.0,-894.0,300.0,6.0,-1.0,-6.0,173,156,148,154,161
2025-02-25 18:38:50.503,-353.0,-901.0,305.0,5.0,-1.0,-6.0,168,155,143,150,155
2025-02-25 18:38:50.508,-347.0,-904.0,310.0,4.0,-4.0,-6.0,172,166,146,154,163
2025-02-25 18:38:50.512,-343.0,-917.0,315.0,2.0,-4.0,-5.0,176,158,149,154,158
2025-02-25 18:38:50.516,-332.0,-923.0,311.0,2.0,-5.0,-4.0,173,156,146,153,156
2025-02-25 18:38:50.524,-333.0,-936.0,317.0,0.0,-5.0,-4.0,170,155,142,150,154
2025-02-25 18:38:50.528,-332.0,-936.0,311.0,-1.0,-3.0,-4.0,172,157,147,154,157
2025-02-25 18:38:50.533,-329.0,-952.0,306.0,0.0,-2.0,-2.0,174,159,148,155,159
2025-02-25 18:38:50.537,-341.0,-956.0,308.0,0.0,-2.0,-1.0,173,158,146,153,157
2025-02-25 18:38:50.545,-350.0,-959.0,334.0,-3.0,0.0,0.0,170,155,148,152,156
2025-02-25 18:38:50.549,-355.0,-957.0,330.0,-8.0,0.0,0.0,175,161,149,155,159
2025-02-25 18:38:50.553,-363.0,-942.0,321.0,-6.0,4.0,1.0,176,163,152,155,159
2025-02-25 18:38:50.557,-362.0,-944.0,289.0,-4.0,2.0,2.0,174,159,148,155,159
2025-02-25 18:38:50.565,-368.0,-937.0,324.0,-5.0,2.0,3.0,176,164,151,158,161
2025-02-25 18:38:50.570,-365.0,-926.0,306.0,-3.0,2.0,3.0,183,169,158,164,169
2025-02-25 18:38:50.574,-373.0,-929.0,281.0,-3.0,0.0,3.0,181,166,155,162,166
2025-02-25 18:38:50.578,-371.0,-908.0,295.0,-4.0,1.0,2.0,177,162,153,158,162
2025-02-25 18:38:50.583,-359.0,-906.0,294.0,-1.0,1.0,2.0,181,167,157,162,165
2025-02-25 18:38:50.590,-380.0,-908.0,284.0,0.0,1.0,2.0,184,169,158,164,169
2025-02-25 18:38:50.594,-366.0,-889.0,312.0,-1.0,2.0,1.0,177,163,156,159,163
2025-02-25 18:38:50.599,-367.0,-876.0,289.0,2.0,2.0,1.0,176,161,149,156,161
2025-02-25 18:38:50.603,-382.0,-888.0,287.0,3.0,3.0,1.0,182,168,155,163,168
2025-02-25 18:38:50.611,-368.0,-877.0,296.0,2.0,3.0,1.0,181,167,155,163,168
2025-02-25 18:38:50.615,-372.0,-882.0,291.0,2.0,2.0,1.0,178,164,153,158,164
2025-02-25 18:38:50.619,-382.0,-883.0,300.0,1.0,2.0,1.0,180,166,155,162,165
2025-02-25 18:38:50.623,-386.0,-882.0,302.0,1.0,2.0,0.0,180,164,155,162,165
2025-02-25 18:38:50.628,-378.0,-878.0,296.0,2.0,3.0,0.0,178,163,152,159,163
2025-02-25 18:38:50.635,-393.0,-882.0,295.0,4.0,4.0,0.0,180,166,157,162,165
2025-02-25 18:38:50.639,-399.0,-886.0,306.0,4.0,5.0,-1.0,178,167,152,159,163
2025-02-25 18:38:50.644,-397.0,-877.0,304.0,5.0,5.0,-2.0,175,160,149,157,161
2025-02-25 18:38:50.648,-394.0,-881.0,297.0,4.0,6.0,-2.0,180,164,155,160,164
2025-02-25 18:38:50.656,-401.0,-879.0,295.0,4.0,5.0,-2.0,177,162,152,159,163
2025-02-25 18:38:50.660,-403.0,-875.0,293.0,3.0,4.0,-2.0,174,159,148,155,159
2025-02-25 18:38:50.664,-403.0,-878.0,302.0,2.0,3.0,-2.0,172,158,147,153,157
2025-02-25 18:38:50.669,-409.0,-874.0,285.0,1.0,2.0,-2.0,179,163,155,157,162
2025-02-25 18:38:50.676,-395.0,-879.0,292.0,-1.0,4.0,-2.0,175,161,150,156,160
2025-02-25 18:38:50.681,-383.0,-869.0,267.0,-1.0,3.0,-3.0,172,157,147,154,157
2025-02-25 18:38:50.685,-388.0,-874.0,279.0,-1.0,3.0,-2.0,176,159,149,155,158
2025-02-25 18:38:50.690,-381.0,-880.0,290.0,-2.0,2.0,-3.0,178,162,154,159,161
2025-02-25 18:38:50.697,-365.0,-880.0,280.0,-3.0,1.0,-2.0,176,161,152,157,158
2025-02-25 18:38:50.701,-372.0,-881.0,284.0,-5.0,0.0,-2.0,172,157,145,152,155
2025-02-25 18:38:50.706,-368.0,-872.0,288.0,-4.0,0.0,-2.0,176,161,152,156,158
2025-02-25 18:38:50.710,-362.0,-869.0,289.0,-5.0,1.0,-2.0,176,161,151,156,160
2025-02-25 18:38:50.718,-352.0,-878.0,296.0,-4.0,1.0,-2.0,172,156,146,154,158
2025-02-25 18:38:50.721,-357.0,-890.0,291.0,-3.0,1.0,-3.0,173,158,146,152,154
2025-02-25 18:38:50.726,-352.0,-891.0,296.0,-3.0,2.0,-3.0,173,158,147,156,159
2025-02-25 18:38:50.730,-345.0,-899.0,287.0,-2.0,1.0,-4.0,176,161,151,156,158
2025-02-25 18:38:50.737,-340.0,-901.0,293.0,-2.0,1.0,-5.0,171,154,144,154,156
2025-02-25 18:38:50.742,-355.0,-910.0,297.0,0.0,0.0,-5.0,172,157,145,152,155
2025-02-25 18:38:50.746,-352.0,-907.0,297.0,2.0,1.0,-6.0,174,157,147,155,159
2025-02-25 18:38:50.751,-344.0,-909.0,294.0,3.0,1.0,-6.0,174,160,147,154,158
2025-02-25 18:38:50.758,-341.0,-911.0,293.0,4.0,1.0,-6.0,168,153,144,151,156
2025-02-25 18:38:50.763,-339.0,-910.0,293.0,5.0,1.0,-6.0,175,158,147,155,158
2025-02-25 18:38:50.767,-349.0,-912.0,296.0,5.0,0.0,-6.0,173,159,147,154,159
2025-02-25 18:38:50.771,-348.0,-911.0,292.0,5.0,0.0,-5.0,172,154,143,153,155
2025-02-25 18:38:50.775,-346.0,-905.0,289.0,5.0,0.0,-5.0,172,155,144,151,158
2025-02-25 18:38:50.783,-350.0,-909.0,284.0,6.0,0.0,-5.0,173,156,146,153,156
2025-02-25 18:38:50.787,-356.0,-911.0,291.0,6.0,-1.0,-4.0,173,156,140,151,154
2025-02-25 18:38:50.791,-359.0,-910.0,299.0,5.0,-1.0,-3.0,170,155,144,151,154
2025-02-25 18:38:50.796,-354.0,-906.0,297.0,5.0,-1.0,-3.0,172,155,144,153,157
2025-02-25 18:38:50.804,-364.0,-907.0,295.0,4.0,-2.0,-3.0,172,155,145,150,154
2025-02-25 18:38:50.807,-371.0,-909.0,298.0,4.0,-4.0,-2.0,179,156,148,157,158
2025-02-25 18:38:50.812,-367.0,-895.0,306.0,3.0,-5.0,-1.0,168,153,142,150,151
2025-02-25 18:38:50.816,-359.0,-896.0,310.0,2.0,-6.0,-1.0,170,153,144,151,155
2025-02-25 18:38:50.824,-358.0,-894.0,309.0,1.0,-7.0,-1.0,171,154,144,151,154
2025-02-25 18:38:50.828,-359.0,-896.0,311.0,0.0,-6.0,-2.0,170,154,144,152,157
2025-02-25 18:38:50.832,-353.0,-901.0,310.0,-1.0,-6.0,-2.0,167,151,140,148,152
2025-02-25 18:38:50.840,-352.0,-904.0,311.0,-3.0,-5.0,-2.0,170,154,143,152,154
2025-02-25 18:38:50.844,-363.0,-905.0,311.0,-3.0,-5.0,-2.0,169,151,143,151,152
2025-02-25 18:38:50.849,-367.0,-910.0,304.0,-3.0,-4.0,-2.0,171,154,145,152,155
2025-02-25 18:38:50.853,-370.0,-914.0,311.0,-4.0,-4.0,-2.0,167,148,139,148,151
2025-02-25 18:38:50.861,-378.0,-914.0,295.0,-5.0,-4.0,-2.0,165,151,138,146,149
2025-02-25 18:38:50.865,-385.0,-907.0,299.0,-4.0,-4.0,-2.0,168,150,142,149,153
2025-02-25 18:38:50.869,-386.0,-913.0,306.0,-4.0,-5.0,-1.0,169,152,143,151,152
2025-02-25 18:38:50.873,-393.0,-913.0,306.0,-3.0,-5.0,-1.0,168,149,139,148,150
2025-02-25 18:38:50.881,-389.0,-911.0,305.0,-3.0,-4.0,-1.0,165,151,140,147,149
2025-02-25 18:38:50.885,-396.0,-910.0,303.0,-3.0,-4.0,-1.0,169,153,142,152,154
2025-02-25 18:38:50.889,-393.0,-914.0,308.0,-2.0,-4.0,-2.0,169,154,143,152,154
2025-02-25 18:38:50.897,-378.0,-905.0,309.0,-1.0,-3.0,-2.0,165,149,141,147,151
2025-02-25 18:38:50.901,-380.0,-907.0,305.0,0.0,-2.0,-3.0,167,148,139,148,151
2025-02-25 18:38:50.906,-371.0,-909.0,308.0,0.0,-1.0,-3.0,170,152,143,151,153
2025-02-25 18:38:50.910,-369.0,-908.0,312.0,1.0,0.0,-3.0,171,154,145,152,155
2025-02-25 18:38:50.917,-362.0,-903.0,310.0,2.0,1.0,-3.0,169,150,139,147,151
2025-02-25 18:38:50.922,-359.0,-904.0,301.0,3.0,2.0,-3.0,164,149,138,147,148
2025-02-25 18:38:50.926,-367.0,-900.0,302.0,5.0,3.0,-2.0,171,153,144,151,154
2025-02-25 18:38:50.930,-366.0,-904.0,301.0,6.0,3.0,-1.0,170,153,144,151,155
2025-02-25 18:38:50.938,-361.0,-898.0,300.0,7.0,3.0,-1.0,166,149,139,149,150
2025-02-25 18:38:50.942,-366.0,-894.0,307.0,7.0,2.0,-1.0,169,151,143,151,154
2025-02-25 18:38:50.947,-362.0,-883.0,309.0,6.0,1.0,-1.0,173,153,143,151,156
2025-02-25 18:38:50.952,-359.0,-876.0,308.0,5.0,1.0,-2.0,168,152,142,149,153
2025-02-25 18:38:50.956,-359.0,-869.0,295.0,4.0,1.0,-2.0,166,145,139,146,152
2025-02-25 18:38:50.963,-353.0,-871.0,291.0,3.0,0.0,-3.0,172,154,144,152,155
2025-02-25 18:38:50.967,-367.0,-880.0,294.0,3.0,-1.0,-4.0,170,153,142,152,155
2025-02-25 18:38:50.972,-367.0,-887.0,305.0,2.0,-1.0,-4.0,169,152,142,149,153
2025-02-25 18:38:50.976,-360.0,-891.0,307.0,0.0,-1.0,-4.0,171,155,145,154,157
2025-02-25 18:38:50.983,-360.0,-899.0,308.0,-1.0,-1.0,-4.0,172,155,146,154,156
2025-02-25 18:38:50.988,-358.0,-906.0,313.0,-2.0,-2.0,-4.0,174,157,151,155,159
2025-02-25 18:38:50.992,-355.0,-908.0,315.0,-3.0,-2.0,-4.0,171,152,145,152,154
2025-02-25 18:38:51.000,-354.0,-908.0,317.0,-4.0,-1.0,-3.0,173,157,148,154,157
2025-02-25 18:38:51.003,-353.0,-915.0,311.0,-5.0,-1.0,-3.0,176,155,149,156,160
2025-02-25 18:38:51.008,-355.0,-914.0,313.0,-5.0,-1.0,-3.0,177,161,152,159,162
2025-02-25 18:38:51.013,-359.0,-919.0,312.0,-5.0,-1.0,-3.0,173,157,146,155,157
2025-02-25 18:38:51.020,-359.0,-921.0,310.0,-5.0,0.0,-2.0,171,153,142,150,156
2025-02-25 18:38:51.024,-362.0,-928.0,312.0,-5.0,-1.0,-2.0,175,160,149,158,159
2025-02-25 18:38:51.028,-365.0,-928.0,312.0,-4.0,-1.0,-1.0,176,160,150,157,162
2025-02-25 18:38:51.033,-363.0,-929.0,314.0,-3.0,-1.0,-1.0,172,153,145,154,155
2025-02-25 18:38:51.041,-359.0,-924.0,318.0,-3.0,0.0,-1.0,171,153,143,153,155
2025-02-25 18:38:51.046,-356.0,-918.0,315.0,-1.0,0.0,-1.0,175,157,148,156,159
2025-02-25 18:38:51.049,-348.0,-914.0,310.0,-1.0,1.0,-1.0,177,157,148,156,159
2025-02-25 18:38:51.053,-351.0,-907.0,307.0,0.0,1.0,-1.0,171,153,144,152,155
2025-02-25 18:38:51.062,-346.0,-903.0,308.0,2.0,1.0,-1.0,171,152,145,151,155
2025-02-25 18:38:51.066,-341.0,-904.0,309.0,3.0,2.0,-2.0,174,157,148,155,160
2025-02-25 18:38:51.069,-340.0,-906.0,305.0,3.0,1.0,-2.0,176,157,149,157,158
2025-02-25 18:38:51.074,-339.0,-903.0,320.0,3.0,2.0,-2.0,171,152,146,152,157
2025-02-25 18:38:51.082,-329.0,-901.0,319.0,4.0,3.0,-2.0,174,157,147,157,159
2025-02-25 18:38:51.086,-326.0,-901.0,314.0,5.0,4.0,-2.0,174,157,148,155,160
2025-02-25 18:38:51.090,-326.0,-906.0,329.0,7.0,4.0,-2.0,175,155,148,156,158
2025-02-25 18:38:51.095,-349.0,-895.0,298.0,5.0,5.0,-2.0,176,157,150,157,158
2025-02-25 18:38:51.102,-348.0,-907.0,311.0,5.0,4.0,-1.0,178,160,152,161,161
2025-02-25 18:38:51.107,-331.0,-899.0,353.0,3.0,6.0,-1.0,177,158,148,157,160
2025-02-25 18:38:51.111,-318.0,-875.0,311.0,1.0,6.0,-1.0,179,160,150,160,164
2025-02-25 18:38:51.115,-345.0,-892.0,301.0,4.0,3.0,0.0,181,163,155,162,166
2025-02-25 18:38:51.123,-350.0,-891.0,365.0,-1.0,7.0,0.0,179,162,152,163,165
2025-02-25 18:38:51.127,-334.0,-883.0,303.0,-2.0,8.0,0.0,177,157,151,161,163
2025-02-25 18:38:51.131,-358.0,-894.0,289.0,-1.0,6.0,0.0,185,165,156,166,169
2025-02-25 18:38:51.136,-373.0,-902.0,328.0,-1.0,6.0,1.0,182,163,155,165,167
2025-02-25 18:38:51.140,-385.0,-919.0,246.0,0.0,1.0,1.0,179,162,152,160,165
2025-02-25 18:38:51.148,-373.0,-901.0,337.0,-6.0,4.0,1.0,179,159,152,160,163
2025-02-25 18:38:51.151,-388.0,-896.0,290.0,0.0,1.0,1.0,184,166,157,166,169
2025-02-25 18:38:51.156,-398.0,-907.0,269.0,1.0,-2.0,1.0,182,161,152,162,166
2025-02-25 18:38:51.161,-398.0,-895.0,320.0,0.0,-2.0,2.0,179,160,152,162,163
2025-02-25 18:38:51.168,-373.0,-902.0,320.0,-1.0,-2.0,1.0,184,166,156,166,168
2025-02-25 18:38:51.172,-385.0,-886.0,255.0,0.0,-6.0,1.0,184,164,155,167,169
2025-02-25 18:38:51.176,-388.0,-888.0,298.0,-1.0,-6.0,0.0,180,162,153,162,165
2025-02-25 18:38:51.180,-370.0,-877.0,289.0,-2.0,-5.0,0.0,179,158,151,162,164
2025-02-25 18:38:51.188,-380.0,-887.0,277.0,0.0,-5.0,0.0,185,165,159,167,170
2025-02-25 18:38:51.193,-380.0,-872.0,311.0,1.0,-3.0,-1.0,185,166,158,168,171
2025-02-25 18:38:51.197,-369.0,-884.0,298.0,1.0,-3.0,-1.0,182,161,147,162,166
2025-02-25 18:38:51.210,-369.0,-888.0,294.0,2.0,-2.0,-1.0,186,166,159,168,169
2025-02-25 18:38:51.213,-372.0,-883.0,296.0,1.0,-2.0,-2.0,187,170,159,167,171
2025-02-25 18:38:51.216,-367.0,-880.0,312.0,1.0,-2.0,-2.0,187,167,160,169,170
2025-02-25 18:38:51.218,-369.0,-881.0,312.0,1.0,-2.0,-3.0,182,162,154,163,166
2025-02-25 18:38:51.221,-362.0,-882.0,305.0,2.0,0.0,-3.0,188,167,158,168,171
2025-02-25 18:38:51.229,-371.0,-881.0,296.0,3.0,1.0,-3.0,190,170,164,171,175
2025-02-25 18:38:51.233,-374.0,-885.0,309.0,3.0,2.0,-4.0,185,165,156,166,168
2025-02-25 18:38:51.237,-373.0,-886.0,312.0,3.0,2.0,-3.0,180,160,154,163,164
2025-02-25 18:38:51.242,-374.0,-889.0,310.0,4.0,2.0,-4.0,187,169,159,168,170
2025-02-25 18:38:51.249,-369.0,-891.0,306.0,4.0,1.0,-3.0,189,172,162,171,175
2025-02-25 18:38:51.254,-374.0,-876.0,310.0,2.0,0.0,-3.0,184,163,155,165,167
2025-02-25 18:38:51.258,-373.0,-875.0,311.0,2.0,0.0,-4.0,187,168,159,168,171
2025-02-25 18:38:51.262,-366.0,-878.0,310.0,2.0,1.0,-4.0,188,167,159,169,171
2025-02-25 18:38:51.266,-363.0,-872.0,315.0,3.0,1.0,-4.0,187,169,159,168,172
2025-02-25 18:38:51.274,-367.0,-872.0,313.0,4.0,0.0,-4.0,183,163,154,163,166
2025-02-25 18:38:51.279,-359.0,-864.0,317.0,4.0,0.0,-5.0,188,169,160,169,170
2025-02-25 18:38:51.283,-359.0,-855.0,305.0,4.0,-1.0,-5.0,186,166,157,166,169
2025-02-25 18:38:51.287,-363.0,-856.0,311.0,4.0,-2.0,-5.0,186,168,158,168,169
2025-02-25 18:38:51.295,-363.0,-855.0,309.0,4.0,-2.0,-6.0,187,167,159,170,170
2025-02-25 18:38:51.299,-363.0,-855.0,311.0,4.0,-3.0,-7.0,188,166,157,168,170
2025-02-25 18:38:51.304,-373.0,-856.0,311.0,4.0,-3.0,-7.0,183,165,157,165,166
2025-02-25 18:38:51.308,-370.0,-855.0,310.0,4.0,-3.0,-8.0,187,165,157,169,167
2025-02-25 18:38:51.315,-369.0,-860.0,307.0,4.0,-3.0,-8.0,185,166,159,170,171
2025-02-25 18:38:51.320,-377.0,-866.0,308.0,3.0,-4.0,-8.0,187,166,159,169,171
2025-02-25 18:38:51.324,-371.0,-872.0,309.0,2.0,-4.0,-8.0,183,162,153,164,165
2025-02-25 18:38:51.328,-371.0,-880.0,308.0,1.0,-3.0,-8.0,184,164,156,166,168
2025-02-25 18:38:51.336,-368.0,-884.0,310.0,1.0,-3.0,-9.0,186,168,159,168,169
2025-02-25 18:38:51.340,-358.0,-893.0,320.0,0.0,-3.0,-9.0,186,166,156,168,169
2025-02-25 18:38:51.344,-357.0,-898.0,312.0,2.0,-3.0,-9.0,182,162,155,166,166
2025-02-25 18:38:51.349,-355.0,-908.0,338.0,1.0,-3.0,-9.0,180,161,150,163,163
2025-02-25 18:38:51.356,-346.0,-917.0,336.0,0.0,-3.0,-10.0,185,165,156,167,167
2025-02-25 18:38:51.360,-349.0,-933.0,338.0,0.0,-3.0,-10.0,184,164,156,165,165
2025-02-25 18:38:51.365,-338.0,-939.0,344.0,0.0,-2.0,-10.0,182,161,152,163,164
2025-02-25 18:38:51.373,-332.0,-944.0,343.0,1.0,-1.0,-10.0,182,161,154,164,165
2025-02-25 18:38:51.377,-329.0,-951.0,359.0,1.0,0.0,-9.0,184,164,154,166,167
2025-02-25 18:38:51.381,-314.0,-954.0,368.0,1.0,1.0,-9.0,184,163,153,164,164
2025-02-25 18:38:51.385,-326.0,-941.0,385.0,0.0,3.0,-8.0,179,158,148,160,162
2025-02-25 18:38:51.393,-309.0,-953.0,358.0,-2.0,5.0,-8.0,180,158,150,160,161
2025-02-25 18:38:51.397,-309.0,-948.0,336.0,-2.0,6.0,-8.0,182,161,152,163,163
2025-02-25 18:38:51.402,-309.0,-957.0,332.0,-3.0,5.0,-7.0,178,157,149,162,161
2025-02-25 18:38:51.406,-318.0,-958.0,345.0,-5.0,5.0,-5.0,176,160,147,159,162
2025-02-25 18:38:51.413,-332.0,-965.0,330.0,-5.0,6.0,-4.0,178,158,148,159,161
2025-02-25 18:38:51.418,-333.0,-964.0,325.0,-5.0,5.0,-3.0,176,157,153,158,158
2025-02-25 18:38:51.422,-355.0,-969.0,327.0,-5.0,5.0,-1.0,174,153,143,155,156
2025-02-25 18:38:51.426,-352.0,-967.0,321.0,-4.0,5.0,0.0,171,144,138,149,151
2025-02-25 18:38:51.434,-354.0,-963.0,319.0,-2.0,3.0,1.0,172,150,141,153,153
2025-02-25 18:38:51.438,-345.0,-961.0,326.0,-3.0,2.0,2.0,168,147,135,149,150
2025-02-25 18:38:51.442,-337.0,-951.0,304.0,-4.0,3.0,2.0,164,143,133,143,147
2025-02-25 18:38:51.446,-341.0,-947.0,307.0,-3.0,1.0,2.0,164,141,133,147,145
2025-02-25 18:38:51.454,-337.0,-941.0,308.0,-3.0,2.0,2.0,168,147,137,149,149
2025-02-25 18:38:51.459,-325.0,-931.0,295.0,-3.0,3.0,2.0,174,145,136,152,149
2025-02-25 18:38:51.463,-324.0,-941.0,292.0,-3.0,2.0,2.0,164,142,131,146,146
2025-02-25 18:38:51.468,-323.0,-940.0,288.0,-3.0,2.0,2.0,168,150,141,154,152
2025-02-25 18:38:51.471,-325.0,-945.0,302.0,-4.0,2.0,3.0,168,146,137,150,150
2025-02-25 18:38:51.479,-330.0,-948.0,292.0,-5.0,1.0,4.0,163,143,135,144,145
2025-02-25 18:38:51.483,-342.0,-957.0,289.0,-6.0,0.0,5.0,168,142,132,145,146
2025-02-25 18:38:51.488,-345.0,-961.0,303.0,-7.0,0.0,6.0,170,148,138,150,152
2025-02-25 18:38:51.491,-336.0,-955.0,298.0,-8.0,0.0,7.0,165,143,135,146,147
2025-02-25 18:38:51.499,-340.0,-946.0,302.0,-8.0,-1.0,8.0,163,142,133,144,145
2025-02-25 18:38:51.504,-345.0,-944.0,301.0,-9.0,0.0,8.0,167,145,135,148,148
2025-02-25 18:38:51.508,-339.0,-932.0,291.0,-9.0,0.0,9.0,168,147,138,149,151
2025-02-25 18:38:51.513,-346.0,-928.0,287.0,-7.0,1.0,10.0,163,141,133,144,145
2025-02-25 18:38:51.520,-349.0,-921.0,293.0,-6.0,1.0,10.0,163,143,132,143,143
2025-02-25 18:38:51.524,-353.0,-906.0,304.0,-5.0,2.0,10.0,166,145,135,148,147
2025-02-25 18:38:51.528,-360.0,-895.0,298.0,-5.0,2.0,11.0,168,146,137,148,149
2025-02-25 18:38:51.533,-363.0,-897.0,277.0,-3.0,2.0,10.0,162,141,132,144,145
2025-02-25 18:38:51.540,-362.0,-875.0,307.0,-3.0,3.0,10.0,165,144,133,145,147
2025-02-25 18:38:51.544,-363.0,-864.0,288.0,-1.0,2.0,10.0,165,145,137,147,147
2025-02-25 18:38:51.549,-357.0,-862.0,305.0,-1.0,2.0,8.0,168,146,138,148,148
2025-02-25 18:38:51.553,-365.0,-853.0,309.0,0.0,2.0,7.0,163,142,131,144,144
2025-02-25 18:38:51.561,-371.0,-858.0,280.0,1.0,2.0,7.0,166,147,136,148,146
2025-02-25 18:38:51.565,-384.0,-853.0,303.0,1.0,2.0,6.0,165,144,135,147,145
2025-02-25 18:38:51.570,-377.0,-838.0,294.0,2.0,1.0,5.0,165,141,133,145,147
2025-02-25 18:38:51.574,-378.0,-837.0,303.0,3.0,2.0,4.0,167,147,137,148,147
2025-02-25 18:38:51.578,-379.0,-839.0,304.0,3.0,1.0,4.0,163,142,134,146,146
2025-02-25 18:38:51.586,-383.0,-835.0,303.0,4.0,1.0,3.0,161,141,132,142,145
2025-02-25 18:38:51.590,-376.0,-829.0,304.0,5.0,0.0,3.0,167,146,136,148,148
2025-02-25 18:38:51.594,-368.0,-832.0,308.0,5.0,1.0,2.0,166,145,135,147,146
2025-02-25 18:38:51.599,-373.0,-839.0,314.0,5.0,1.0,2.0,162,141,131,143,143
2025-02-25 18:38:51.603,-370.0,-841.0,329.0,7.0,1.0,2.0,162,141,132,144,144
2025-02-25 18:38:51.610,-368.0,-847.0,331.0,6.0,0.0,1.0,168,146,137,148,148
2025-02-25 18:38:51.614,-365.0,-846.0,319.0,7.0,0.0,1.0,162,139,132,142,143
2025-02-25 18:38:51.619,-370.0,-850.0,333.0,7.0,1.0,1.0,162,138,129,142,140
2025-02-25 18:38:51.623,-364.0,-848.0,322.0,7.0,1.0,1.0,165,144,133,147,145
2025-02-25 18:38:51.631,-373.0,-867.0,344.0,7.0,0.0,1.0,163,141,133,144,145
2025-02-25 18:38:51.635,-374.0,-869.0,352.0,4.0,0.0,1.0,159,138,131,142,142
2025-02-25 18:38:51.639,-362.0,-856.0,348.0,2.0,0.0,0.0,164,141,130,146,145
2025-02-25 18:38:51.643,-367.0,-867.0,345.0,2.0,1.0,0.0,163,142,134,144,144
2025-02-25 18:38:51.648,-370.0,-867.0,350.0,1.0,1.0,-1.0,164,144,134,145,144
2025-02-25 18:38:51.655,-363.0,-868.0,344.0,0.0,1.0,-2.0,163,142,135,146,145
2025-02-25 18:38:51.659,-370.0,-878.0,339.0,1.0,1.0,-2.0,162,140,132,145,144
2025-02-25 18:38:51.664,-373.0,-883.0,332.0,1.0,1.0,-3.0,162,138,130,143,142
2025-02-25 18:38:51.668,-368.0,-886.0,333.0,0.0,1.0,-2.0,166,143,133,146,145
2025-02-25 18:38:51.676,-370.0,-893.0,331.0,0.0,1.0,-3.0,163,140,133,145,144
2025-02-25 18:38:51.680,-370.0,-891.0,340.0,0.0,1.0,-3.0,161,139,131,142,141
2025-02-25 18:38:51.684,-368.0,-889.0,336.0,0.0,1.0,-3.0,163,138,128,141,142
2025-02-25 18:38:51.688,-366.0,-891.0,338.0,0.0,2.0,-3.0,163,141,132,145,145
2025-02-25 18:38:51.696,-373.0,-894.0,337.0,0.0,3.0,-3.0,162,141,130,144,143
2025-02-25 18:38:51.701,-375.0,-897.0,336.0,0.0,3.0,-3.0,160,138,130,140,140
2025-02-25 18:38:51.705,-377.0,-890.0,329.0,1.0,4.0,-4.0,163,144,131,143,142
2025-02-25 18:38:51.709,-378.0,-890.0,327.0,2.0,4.0,-4.0,163,139,133,146,144
2025-02-25 18:38:51.713,-381.0,-878.0,317.0,3.0,4.0,-4.0,161,137,131,141,140
2025-02-25 18:38:51.721,-389.0,-885.0,316.0,4.0,5.0,-4.0,158,136,129,140,139
2025-02-25 18:38:51.725,-396.0,-881.0,312.0,4.0,5.0,-5.0,163,138,131,143,143
2025-02-25 18:38:51.729,-393.0,-875.0,300.0,5.0,5.0,-4.0,162,139,132,144,142
2025-02-25 18:38:51.734,-396.0,-865.0,296.0,5.0,4.0,-5.0,157,137,128,140,140
2025-02-25 18:38:51.741,-393.0,-862.0,300.0,6.0,4.0,-5.0,162,140,131,143,142
2025-02-25 18:38:51.745,-395.0,-854.0,300.0,5.0,4.0,-5.0,162,140,130,144,143
2025-02-25 18:38:51.749,-396.0,-843.0,294.0,5.0,3.0,-6.0,161,137,130,141,141
2025-02-25 18:38:51.754,-390.0,-839.0,291.0,5.0,3.0,-6.0,158,136,126,139,138
2025-02-25 18:38:51.761,-398.0,-846.0,291.0,5.0,2.0,-7.0,161,138,130,141,142
2025-02-25 18:38:51.765,-394.0,-842.0,294.0,5.0,2.0,-7.0,162,141,131,142,141
2025-02-25 18:38:51.770,-393.0,-852.0,305.0,5.0,2.0,-8.0,160,136,128,140,139
2025-02-25 18:38:51.774,-385.0,-850.0,310.0,5.0,2.0,-8.0,162,139,131,142,141
2025-02-25 18:38:51.782,-381.0,-859.0,308.0,4.0,1.0,-9.0,161,140,130,143,143
2025-02-25 18:38:51.787,-386.0,-868.0,311.0,3.0,1.0,-9.0,159,135,129,140,140
2025-02-25 18:38:51.791,-371.0,-876.0,314.0,2.0,0.0,-9.0,160,136,128,138,138
2025-02-25 18:38:51.795,-358.0,-890.0,318.0,1.0,0.0,-10.0,161,137,132,143,141
2025-02-25 18:38:51.803,-350.0,-900.0,326.0,0.0,0.0,-11.0,162,138,130,143,142
2025-02-25 18:38:51.807,-345.0,-912.0,339.0,-1.0,0.0,-11.0,160,135,127,140,140
2025-02-25 18:38:51.811,-342.0,-930.0,339.0,-4.0,0.0,-11.0,164,139,131,143,142
2025-02-25 18:38:51.815,-332.0,-948.0,337.0,-6.0,1.0,-11.0,162,139,131,144,141
2025-02-25 18:38:51.823,-330.0,-968.0,339.0,-6.0,1.0,-11.0,161,137,128,145,140
2025-02-25 18:38:51.827,-329.0,-985.0,347.0,-8.0,1.0,-10.0,160,137,128,140,142
2025-02-25 18:38:51.831,-318.0,-986.0,351.0,-7.0,2.0,-9.0,158,135,128,140,139
2025-02-25 18:38:51.836,-313.0,-1000.0,358.0,-8.0,4.0,-8.0,162,139,126,143,141
2025-02-25 18:38:51.843,-310.0,-1005.0,354.0,-9.0,5.0,-7.0,161,138,131,142,140
2025-02-25 18:38:51.848,-303.0,-1010.0,333.0,-8.0,5.0,-6.0,160,136,129,140,138
2025-02-25 18:38:51.852,-287.0,-1008.0,351.0,-8.0,6.0,-5.0,159,135,127,141,141
2025-02-25 18:38:51.860,-285.0,-1019.0,356.0,-8.0,6.0,-4.0,162,139,132,144,141
2025-02-25 18:38:51.864,-269.0,-1030.0,363.0,-9.0,6.0,-1.0,160,137,131,142,141
2025-02-25 18:38:51.868,-265.0,-1042.0,375.0,-9.0,7.0,0.0,162,138,130,142,142
2025-02-25 18:38:51.873,-269.0,-1054.0,364.0,-12.0,8.0,2.0,160,134,127,140,138
2025-02-25 18:38:51.881,-263.0,-1065.0,353.0,-13.0,7.0,3.0,161,137,128,141,141
2025-02-25 18:38:51.885,-259.0,-1094.0,360.0,-16.0,7.0,5.0,161,133,129,143,142
2025-02-25 18:38:51.889,-245.0,-1113.0,367.0,-17.0,5.0,7.0,162,137,131,144,142
2025-02-25 18:38:51.894,-248.0,-1135.0,377.0,-21.0,5.0,10.0,159,133,127,139,138
2025-02-25 18:38:51.901,-255.0,-1134.0,355.0,-24.0,5.0,11.0,159,134,127,139,138
2025-02-25 18:38:51.906,-261.0,-1149.0,346.0,-28.0,4.0,14.0,162,136,130,142,142
2025-02-25 18:38:51.910,-271.0,-1149.0,347.0,-29.0,4.0,17.0,161,136,130,143,142
2025-02-25 18:38:51.917,-294.0,-1144.0,337.0,-32.0,4.0,21.0,159,134,127,139,138
2025-02-25 18:38:51.922,-310.0,-1133.0,340.0,-33.0,5.0,26.0,158,134,125,138,139
2025-02-25 18:38:51.926,-319.0,-1126.0,338.0,-34.0,6.0,27.0,159,134,128,139,138
2025-02-25 18:38:51.933,-335.0,-1111.0,333.0,-36.0,7.0,30.0,162,137,130,142,141
2025-02-25 18:38:51.938,-347.0,-1103.0,334.0,-37.0,8.0,33.0,159,135,130,139,142
2025-02-25 18:38:51.942,-363.0,-1068.0,298.0,-36.0,7.0,36.0,160,133,127,140,138
2025-02-25 18:38:51.946,-375.0,-1043.0,349.0,-37.0,10.0,37.0,159,137,126,139,134
2025-02-25 18:38:51.954,-367.0,-1028.0,309.0,-32.0,13.0,38.0,160,132,128,140,140
2025-02-25 18:38:51.958,-379.0,-1006.0,302.0,-32.0,16.0,39.0,163,136,129,143,143
2025-02-25 18:38:51.962,-376.0,-987.0,278.0,-31.0,16.0,40.0,162,136,131,142,142
2025-02-25 18:38:51.971,-369.0,-970.0,251.0,-31.0,13.0,41.0,162,137,131,144,144
2025-02-25 18:38:51.975,-371.0,-945.0,270.0,-32.0,14.0,42.0,160,133,127,142,142
2025-02-25 18:38:51.979,-387.0,-944.0,261.0,-35.0,16.0,42.0,158,129,126,140,139
2025-02-25 18:38:51.987,-387.0,-925.0,280.0,-34.0,19.0,42.0,163,134,131,143,143
2025-02-25 18:38:51.991,-384.0,-901.0,273.0,-30.0,21.0,42.0,165,136,132,143,144
2025-02-25 18:38:51.996,-376.0,-882.0,276.0,-30.0,23.0,42.0,163,132,131,143,143
2025-02-25 18:38:52.000,-357.0,-877.0,243.0,-29.0,23.0,42.0,159,131,128,139,139
2025-02-25 18:38:52.008,-349.0,-882.0,257.0,-32.0,25.0,42.0,160,128,126,138,140
2025-02-25 18:38:52.012,-357.0,-871.0,211.0,-37.0,22.0,43.0,164,134,133,144,144
2025-02-25 18:38:52.016,-355.0,-880.0,229.0,-42.0,19.0,44.0,163,132,130,144,143
2025-02-25 18:38:52.024,-369.0,-882.0,276.0,-46.0,20.0,43.0,162,132,129,141,143
2025-02-25 18:38:52.028,-373.0,-866.0,283.0,-46.0,22.0,42.0,161,132,130,146,145
2025-02-25 18:38:52.033,-379.0,-873.0,281.0,-45.0,25.0,41.0,159,128,127,141,140
2025-02-25 18:38:52.040,-396.0,-869.0,258.0,-46.0,27.0,39.0,161,126,129,141,143
2025-02-25 18:38:52.045,-417.0,-882.0,255.0,-49.0,28.0,38.0,163,129,131,142,143
2025-02-25 18:38:52.049,-418.0,-893.0,221.0,-50.0,26.0,39.0,163,126,130,142,143
2025-02-25 18:38:52.053,-402.0,-876.0,262.0,-54.0,30.0,40.0,158,118,126,138,138
2025-02-25 18:38:52.061,-403.0,-876.0,205.0,-51.0,27.0,40.0,159,118,122,137,138
2025-02-25 18:38:52.065,-414.0,-906.0,188.0,-54.0,26.0,43.0,161,119,127,140,141
2025-02-25 18:38:52.069,-403.0,-863.0,120.0,-57.0,18.0,46.0,164,117,127,140,141
2025-02-25 18:38:52.077,-388.0,-831.0,160.0,-58.0,20.0,45.0,160,112,124,137,138
2025-02-25 18:38:52.081,-387.0,-767.0,252.0,-45.0,28.0,42.0,158,110,122,135,135
2025-02-25 18:38:52.086,-409.0,-808.0,110.0,-41.0,24.0,42.0,160,108,122,135,134
2025-02-25 18:38:52.094,-434.0,-835.0,114.0,-42.0,17.0,42.0,164,110,123,137,136
2025-02-25 18:38:52.098,-426.0,-807.0,153.0,-40.0,10.0,42.0,163,106,123,136,134
2025-02-25 18:38:52.102,-413.0,-823.0,77.0,-55.0,9.0,42.0,160,103,119,132,131
2025-02-25 18:38:52.106,-420.0,-818.0,210.0,-50.0,16.0,41.0,160,103,120,133,131
2025-02-25 18:38:52.114,-428.0,-808.0,180.0,-43.0,22.0,40.0,166,102,122,136,131
2025-02-25 18:38:52.118,-433.0,-843.0,384.0,-48.0,43.0,39.0,163,97,123,134,128
2025-02-25 18:38:52.123,-437.0,-832.0,279.0,-45.0,51.0,37.0,164,97,119,133,126
2025-02-25 18:38:52.130,-455.0,-855.0,115.0,-37.0,51.0,37.0,167,95,119,132,126
2025-02-25 18:38:52.135,-509.0,-856.0,148.0,-36.0,50.0,37.0,160,88,116,127,121
2025-02-25 18:38:52.139,-510.0,-833.0,176.0,-39.0,63.0,38.0,164,88,117,128,122
2025-02-25 18:38:52.144,-518.0,-758.0,151.0,-41.0,69.0,37.0,163,85,113,126,117
2025-02-25 18:38:52.151,-544.0,-757.0,221.0,-43.0,74.0,37.0,164,85,111,122,113
2025-02-25 18:38:52.155,-534.0,-698.0,273.0,-33.0,91.0,37.0,162,83,109,118,110
2025-02-25 18:38:52.160,-580.0,-665.0,276.0,-33.0,108.0,40.0,165,82,109,119,106
2025-02-25 18:38:52.164,-679.0,-602.0,165.0,-37.0,114.0,49.0,164,81,107,115,104
2025-02-25 18:38:52.171,-867.0,-370.0,161.0,-39.0,129.0,59.0,163,81,107,114,101
2025-02-25 18:38:52.175,-907.0,-158.0,171.0,-49.0,139.0,73.0,161,76,102,108,94
2025-02-25 18:38:52.180,-1047.0,-14.0,213.0,-65.0,163.0,82.0,158,74,98,106,89
2025-02-25 18:38:52.188,-1262.0,233.0,302.0,-83.0,200.0,95.0,161,82,102,110,90
2025-02-25 18:38:52.192,-1312.0,608.0,202.0,-98.0,228.0,113.0,161,80,101,109,87
2025-02-25 18:38:52.196,-1216.0,861.0,-125.0,-146.0,230.0,125.0,158,76,95,106,82
2025-02-25 18:38:52.204,-1181.0,930.0,-475.0,-242.0,231.0,108.0,157,76,93,104,80
2025-02-25 18:38:52.208,-1097.0,1043.0,-409.0,-220.0,278.0,106.0,154,76,92,106,80
2025-02-25 18:38:52.212,-1003.0,973.0,-527.0,-169.0,321.0,81.0,155,80,94,108,83
2025-02-25 18:38:52.216,-933.0,960.0,-594.0,-67.0,333.0,55.0,153,79,94,109,81
2025-02-25 18:38:52.224,-690.0,1053.0,-906.0,21.0,287.0,15.0,143,77,90,104,79
2025-02-25 18:38:52.228,-818.0,2213.0,-1480.0,233.0,246.0,-27.0,143,80,91,107,82
2025-02-25 18:38:52.233,-982.0,2398.0,-1994.0,337.0,160.0,-136.0,141,80,94,108,82
2025-02-25 18:38:52.240,-1713.0,2367.0,-1922.0,343.0,96.0,-226.0,139,80,89,106,82
2025-02-25 18:38:52.245,-2304.0,2156.0,-1796.0,295.0,28.0,-330.0,136,82,88,104,82
2025-02-25 18:38:52.249,-2543.0,2311.0,-1725.0,288.0,-90.0,-441.0,135,79,88,104,81
2025-02-25 18:38:52.257,-1922.0,1962.0,-1194.0,290.0,-215.0,-541.0,133,78,85,102,79
2025-02-25 18:38:52.261,-1249.0,1841.0,-893.0,224.0,-276.0,-666.0,135,82,90,105,83
2025-02-25 18:38:52.266,62.0,1255.0,-296.0,141.0,-344.0,-734.0,135,80,85,105,84
2025-02-25 18:38:52.273,1286.0,737.0,416.0,82.0,-385.0,-754.0,136,81,90,106,86
2025-02-25 18:38:52.278,2203.0,-476.0,650.0,48.0,-417.0,-756.0,138,85,93,109,90
2025-02-25 18:38:52.282,2948.0,-2181.0,1041.0,52.0,-395.0,-679.0,138,82,91,107,89
2025-02-25 18:38:52.290,3585.0,-3887.0,1618.0,66.0,-303.0,-522.0,139,86,94,109,92
2025-02-25 18:38:52.294,3774.0,-5359.0,2322.0,90.0,-238.0,-303.0,134,81,92,107,87
2025-02-25 18:38:52.299,3944.0,-6108.0,2609.0,127.0,-96.0,-83.0,133,81,90,104,84
2025-02-25 18:38:52.306,3840.0,-6165.0,2363.0,177.0,46.0,-2.0,137,85,94,108,90
2025-02-25 18:38:52.310,3398.0,-5567.0,2098.0,242.0,167.0,109.0,140,90,102,110,93
2025-02-25 18:38:52.315,2460.0,-4665.0,1532.0,274.0,208.0,158.0,137,85,101,104,90
2025-02-25 18:38:52.323,1971.0,-3646.0,1052.0,297.0,223.0,189.0,135,85,99,103,91
2025-02-25 18:38:52.327,1702.0,-2789.0,798.0,252.0,222.0,211.0,133,84,96,103,88
2025-02-25 18:38:52.332,1157.0,-2506.0,623.0,171.0,192.0,219.0,132,86,92,101,87
2025-02-25 18:38:52.336,663.0,-1892.0,558.0,75.0,153.0,220.0,134,87,94,107,91
2025-02-25 18:38:52.343,517.0,-1583.0,547.0,28.0,100.0,205.0,134,86,93,108,90
2025-02-25 18:38:52.347,279.0,-1421.0,522.0,-53.0,76.0,182.0,134,84,89,105,87
2025-02-25 18:38:52.352,290.0,-1480.0,476.0,-100.0,46.0,171.0,133,81,88,107,89
2025-02-25 18:38:52.360,326.0,-1615.0,371.0,-131.0,33.0,150.0,136,86,93,111,92
2025-02-25 18:38:52.364,188.0,-1629.0,315.0,-139.0,19.0,137.0,137,86,93,107,91
2025-02-25 18:38:52.369,152.0,-1707.0,216.0,-144.0,-1.0,140.0,140,88,93,108,92
2025-02-25 18:38:52.372,129.0,-1611.0,223.0,-148.0,-4.0,146.0,133,83,89,107,88
2025-02-25 18:38:52.380,132.0,-1572.0,229.0,-139.0,-22.0,145.0,136,85,92,106,91
2025-02-25 18:38:52.384,14.0,-1476.0,241.0,-135.0,-38.0,149.0,136,86,92,107,91
2025-02-25 18:38:52.388,70.0,-1307.0,243.0,-138.0,-40.0,151.0,138,87,96,110,94
2025-02-25 18:38:52.393,-26.0,-1276.0,148.0,-137.0,-45.0,158.0,132,81,92,104,89
2025-02-25 18:38:52.401,-48.0,-1278.0,216.0,-143.0,-55.0,164.0,131,84,92,103,87
2025-02-25 18:38:52.406,-54.0,-1159.0,193.0,-145.0,-54.0,178.0,135,88,98,108,91
2025-02-25 18:38:52.409,-47.0,-1169.0,247.0,-143.0,-68.0,192.0,141,90,100,105,94
2025-02-25 18:38:52.417,-100.0,-1024.0,200.0,-146.0,-54.0,211.0,136,88,98,106,92
2025-02-25 18:38:52.421,-76.0,-918.0,184.0,-142.0,-55.0,218.0,133,83,95,104,88
2025-02-25 18:38:52.426,-76.0,-874.0,229.0,-143.0,-51.0,224.0,132,82,95,106,87
2025-02-25 18:38:52.433,-167.0,-741.0,212.0,-144.0,-41.0,230.0,137,86,101,109,93
2025-02-25 18:38:52.438,-221.0,-630.0,195.0,-136.0,-52.0,229.0,136,83,100,108,89
2025-02-25 18:38:52.442,-272.0,-472.0,149.0,-132.0,-53.0,221.0,134,83,97,104,87
2025-02-25 18:38:52.450,-296.0,-334.0,130.0,-122.0,-50.0,209.0,132,83,97,104,87
2025-02-25 18:38:52.454,-370.0,-245.0,99.0,-110.0,-49.0,201.0,132,81,95,99,84
2025-02-25 18:38:52.458,-416.0,-204.0,107.0,-99.0,-50.0,181.0,135,90,97,102,89
2025-02-25 18:38:52.463,-459.0,-165.0,87.0,-99.0,-50.0,167.0,134,86,98,104,89
2025-02-25 18:38:52.470,-520.0,-194.0,75.0,-93.0,-53.0,160.0,136,85,96,103,89
2025-02-25 18:38:52.475,-526.0,-233.0,61.0,-91.0,-49.0,157.0,132,81,91,101,87
2025-02-25 18:38:52.479,-534.0,-289.0,27.0,-87.0,-38.0,156.0,134,84,95,105,89
2025-02-25 18:38:52.483,-517.0,-263.0,25.0,-84.0,-15.0,154.0,134,84,95,101,89
2025-02-25 18:38:52.491,-485.0,-246.0,37.0,-80.0,-5.0,154.0,134,82,92,97,92
2025-02-25 18:38:52.495,-560.0,-241.0,14.0,-73.0,7.0,153.0,136,84,95,99,89
2025-02-25 18:38:52.499,-566.0,-190.0,-3.0,-68.0,18.0,152.0,136,84,94,98,89
2025-02-25 18:38:52.503,-602.0,-107.0,-13.0,-66.0,27.0,154.0,133,79,93,95,86
2025-02-25 18:38:52.507,-700.0,-58.0,-64.0,-65.0,31.0,153.0,137,81,94,105,89
2025-02-25 18:38:52.515,-746.0,120.0,-96.0,-63.0,24.0,150.0,136,87,94,106,90
2025-02-25 18:38:52.520,-829.0,258.0,-117.0,-64.0,24.0,146.0,134,83,94,104,90
2025-02-25 18:38:52.524,-929.0,400.0,-216.0,-65.0,20.0,140.0,133,79,91,101,85
2025-02-25 18:38:52.529,-1021.0,469.0,-300.0,-67.0,9.0,138.0,139,86,95,108,93
2025-02-25 18:38:52.536,-1078.0,613.0,-337.0,-66.0,-3.0,128.0,135,84,91,106,91
2025-02-25 18:38:52.540,-1184.0,716.0,-395.0,-62.0,-15.0,115.0,133,82,89,105,91
2025-02-25 18:38:52.544,-1171.0,806.0,-409.0,-61.0,-20.0,103.0,133,80,88,102,87
2025-02-25 18:38:52.558,-1197.0,839.0,-422.0,-55.0,-25.0,97.0,135,80,90,104,89
2025-02-25 18:38:52.560,-1217.0,937.0,-433.0,-42.0,-22.0,83.0,137,81,92,105,90
2025-02-25 18:38:52.563,-1230.0,964.0,-390.0,-32.0,-22.0,61.0,136,83,92,104,89
2025-02-25 18:38:52.565,-1237.0,1062.0,-303.0,-1.0,-20.0,32.0,134,81,90,103,89
2025-02-25 18:38:52.572,-1111.0,1194.0,-190.0,29.0,-9.0,17.0,135,81,92,105,90
2025-02-25 18:38:52.577,-1132.0,1227.0,-141.0,62.0,11.0,-22.0,137,84,93,104,90
2025-02-25 18:38:52.581,-1130.0,1382.0,-63.0,79.0,21.0,-72.0,137,84,93,107,90
2025-02-25 18:38:52.585,-1173.0,1502.0,-61.0,106.0,26.0,-124.0,135,82,90,102,88
2025-02-25 18:38:52.593,-1208.0,1551.0,-84.0,126.0,39.0,-175.0,135,83,91,104,90
2025-02-25 18:38:52.597,-1197.0,1543.0,-124.0,135.0,43.0,-202.0,140,84,93,102,91
2025-02-25 18:38:52.602,-1227.0,1551.0,-147.0,135.0,37.0,-258.0,138,84,92,105,90
2025-02-25 18:38:52.610,-1250.0,1460.0,-177.0,133.0,23.0,-317.0,140,86,102,109,95
2025-02-25 18:38:52.614,-1160.0,1341.0,-202.0,120.0,4.0,-377.0,139,87,94,105,91
2025-02-25 18:38:52.618,-1094.0,1195.0,-215.0,102.0,-7.0,-440.0,134,80,89,103,88
2025-02-25 18:38:52.626,-954.0,1095.0,-226.0,83.0,-30.0,-471.0,133,80,90,103,87
2025-02-25 18:38:52.630,-734.0,902.0,-218.0,68.0,-58.0,-529.0,139,85,95,107,95
2025-02-25 18:38:52.634,-478.0,555.0,-230.0,58.0,-89.0,-574.0,137,84,94,107,92
2025-02-25 18:38:52.639,-143.0,21.0,-166.0,55.0,-114.0,-596.0,133,81,90,104,90
2025-02-25 18:38:52.646,110.0,-693.0,86.0,48.0,-122.0,-583.0,132,80,89,102,89
2025-02-25 18:38:52.651,639.0,-1068.0,465.0,46.0,-123.0,-557.0,138,85,94,108,94
2025-02-25 18:38:52.655,1136.0,-1904.0,640.0,44.0,-104.0,-486.0,138,83,94,107,94
2025-02-25 18:38:52.662,1502.0,-2780.0,970.0,44.0,-71.0,-392.0,135,84,86,106,93
2025-02-25 18:38:52.667,1628.0,-3559.0,1184.0,59.0,-50.0,-280.0,136,82,92,109,90
2025-02-25 18:38:52.671,1874.0,-4188.0,1352.0,103.0,-2.0,-169.0,134,82,94,108,92
2025-02-25 18:38:52.679,2059.0,-4429.0,1346.0,164.0,52.0,-123.0,134,82,95,105,92
2025-02-25 18:38:52.683,2160.0,-4605.0,1287.0,221.0,116.0,-47.0,136,84,97,107,94
2025-02-25 18:38:52.687,2063.0,-4605.0,1177.0,273.0,167.0,14.0,138,86,100,102,95
2025-02-25 18:38:52.695,1888.0,-4200.0,889.0,300.0,176.0,34.0,137,85,101,93,94
2025-02-25 18:38:52.700,1679.0,-3741.0,869.0,302.0,182.0,67.0,134,80,95,97,91
2025-02-25 18:38:52.704,1641.0,-3508.0,754.0,240.0,189.0,82.0,136,84,99,101,94
2025-02-25 18:38:52.708,960.0,-2969.0,645.0,142.0,140.0,112.0,140,86,103,104,98
2025-02-25 18:38:52.716,904.0,-2555.0,547.0,88.0,102.0,128.0,136,82,96,101,95
2025-02-25 18:38:52.720,848.0,-2326.0,436.0,-9.0,87.0,127.0,134,81,93,99,91
2025-02-25 18:38:52.724,682.0,-2251.0,284.0,-89.0,32.0,125.0,137,86,95,105,93
2025-02-25 18:38:52.729,570.0,-2227.0,301.0,-145.0,9.0,132.0,139,87,96,107,97
2025-02-25 18:38:52.736,561.0,-2238.0,185.0,-158.0,-1.0,131.0,137,84,94,105,95
2025-02-25 18:38:52.741,567.0,-2236.0,32.0,-173.0,-6.0,139.0,134,82,91,102,91
2025-02-25 18:38:52.745,430.0,-2280.0,75.0,-185.0,-11.0,150.0,137,86,93,106,95
2025-02-25 18:38:52.750,455.0,-2257.0,56.0,-171.0,-16.0,165.0,138,86,95,107,95
2025-02-25 18:38:52.757,296.0,-2169.0,20.0,-169.0,-39.0,181.0,137,85,94,107,93
2025-02-25 18:38:52.762,280.0,-1999.0,31.0,-146.0,-41.0,200.0,134,82,92,104,91
2025-02-25 18:38:52.767,156.0,-1958.0,12.0,-130.0,-42.0,208.0,133,80,93,102,90
2025-02-25 18:38:52.774,123.0,-1613.0,48.0,-112.0,-51.0,220.0,137,84,97,107,96
2025-02-25 18:38:52.778,78.0,-1506.0,169.0,-107.0,-55.0,229.0,135,82,94,104,92
2025-02-25 18:38:52.782,124.0,-1358.0,176.0,-102.0,-54.0,243.0,135,81,94,102,90
2025-02-25 18:38:52.786,-26.0,-1295.0,333.0,-102.0,-55.0,252.0,135,88,94,101,93
2025-02-25 18:38:52.794,-3.0,-1119.0,262.0,-108.0,-56.0,261.0,138,87,97,105,96
2025-02-25 18:38:52.798,-3.0,-876.0,254.0,-118.0,-51.0,268.0,139,87,101,104,92
2025-02-25 18:38:52.803,32.0,-680.0,320.0,-122.0,-39.0,265.0,140,87,101,106,97
2025-02-25 18:38:52.810,-23.0,-537.0,320.0,-122.0,-34.0,260.0,140,86,102,107,95
2025-02-25 18:38:52.815,-106.0,-469.0,349.0,-119.0,-22.0,257.0,137,85,99,103,92
2025-02-25 18:38:52.819,-196.0,-241.0,323.0,-109.0,-16.0,247.0,140,88,103,106,94
2025-02-25 18:38:52.823,-323.0,-165.0,261.0,-102.0,-18.0,238.0,140,86,101,104,93
2025-02-25 18:38:52.831,-389.0,-71.0,226.0,-100.0,-17.0,231.0,140,90,102,107,95
2025-02-25 18:38:52.835,-418.0,21.0,188.0,-90.0,-17.0,223.0,137,82,96,102,90
2025-02-25 18:38:52.839,-441.0,59.0,155.0,-82.0,-13.0,219.0,140,85,96,102,91
2025-02-25 18:38:52.843,-448.0,112.0,155.0,-75.0,-7.0,210.0,140,85,97,103,93
2025-02-25 18:38:52.851,-508.0,150.0,122.0,-72.0,-1.0,201.0,140,84,96,103,91
2025-02-25 18:38:52.855,-510.0,214.0,91.0,-73.0,2.0,196.0,138,81,92,103,92
2025-02-25 18:38:52.860,-523.0,228.0,76.0,-75.0,13.0,190.0,154,100,109,119,106
2025-02-25 18:38:52.864,-554.0,284.0,55.0,-82.0,15.0,184.0,147,90,101,112,99
2025-02-25 18:38:52.871,-536.0,289.0,32.0,-83.0,21.0,176.0,146,88,97,108,97
2025-02-25 18:38:52.876,-573.0,296.0,45.0,-93.0,24.0,169.0,135,78,88,98,86
2025-02-25 18:38:52.881,-640.0,392.0,-50.0,-91.0,27.0,164.0,141,81,92,101,89
2025-02-25 18:38:52.885,-616.0,305.0,-20.0,-86.0,30.0,155.0,132,79,88,100,87
