timestamp,ax,ay,az,gx,gy,gz,flex1,flex2,flex3,flex4,flex5,emg1,emg2,emg3
2025-02-25 18:21:24.918,-408.0,-918.0,73.0,1.0,-2.0,-2.0,118,61,78,91,77
2025-02-25 18:21:24.923,-414.0,-926.0,90.0,0.0,-3.0,-1.0,117,59,76,88,77
2025-02-25 18:21:24.925,-408.0,-929.0,97.0,1.0,-2.0,-1.0,116,63,76,89,76
2025-02-25 18:21:24.927,-405.0,-924.0,96.0,1.0,-3.0,-1.0,115,61,76,89,76
2025-02-25 18:21:24.929,-401.0,-924.0,99.0,1.0,-3.0,-1.0,116,61,76,89,77
2025-02-25 18:21:24.932,-404.0,-921.0,96.0,2.0,-2.0,0.0,117,59,79,89,78
2025-02-25 18:21:24.934,-405.0,-930.0,100.0,1.0,-3.0,0.0,115,60,76,90,77
2025-02-25 18:21:24.936,-406.0,-925.0,99.0,2.0,-3.0,0.0,117,60,76,89,77
2025-02-25 18:21:24.939,-401.0,-932.0,106.0,2.0,-2.0,0.0,113,61,77,89,79
2025-02-25 18:21:24.941,-400.0,-922.0,101.0,3.0,-2.0,0.0,116,60,77,88,77
2025-02-25 18:21:24.944,-407.0,-920.0,99.0,3.0,-2.0,0.0,114,61,76,90,77
2025-02-25 18:21:24.945,-407.0,-916.0,93.0,3.0,-1.0,0.0,116,61,78,90,77
2025-02-25 18:21:24.948,-408.0,-913.0,101.0,3.0,-1.0,0.0,116,60,75,87,76
2025-02-25 18:21:24.950,-411.0,-910.0,101.0,3.0,-2.0,0.0,115,61,77,90,77
2025-02-25 18:21:24.951,-417.0,-907.0,94.0,3.0,-2.0,-1.0,119,60,78,92,77
2025-02-25 18:21:24.954,-414.0,-905.0,96.0,3.0,-2.0,-1.0,116,61,76,90,77
2025-02-25 18:21:24.956,-420.0,-910.0,97.0,3.0,-2.0,-1.0,108,63,77,94,78
2025-02-25 18:21:24.958,-423.0,-909.0,97.0,3.0,-3.0,-1.0,117,60,76,91,82
2025-02-25 18:21:24.960,-418.0,-908.0,100.0,3.0,-2.0,-1.0,115,59,76,89,76
2025-02-25 18:21:24.962,-421.0,-912.0,98.0,4.0,-3.0,-1.0,116,61,77,90,77
2025-02-25 18:21:24.964,-415.0,-914.0,100.0,4.0,-2.0,-1.0,116,61,77,90,77
2025-02-25 18:21:24.967,-415.0,-922.0,95.0,5.0,-3.0,-1.0,117,62,77,89,78
2025-02-25 18:21:24.968,-429.0,-916.0,101.0,5.0,-2.0,-1.0,117,60,77,88,77
2025-02-25 18:21:24.970,-422.0,-915.0,104.0,6.0,-2.0,-1.0,118,61,76,88,77
2025-02-25 18:21:24.972,-424.0,-913.0,103.0,6.0,-2.0,-1.0,117,61,76,88,77
2025-02-25 18:21:24.974,-416.0,-912.0,102.0,6.0,-1.0,-1.0,117,62,77,90,77
2025-02-25 18:21:24.976,-410.0,-907.0,104.0,6.0,-1.0,-1.0,115,59,76,88,78
2025-02-25 18:21:24.979,-411.0,-901.0,108.0,6.0,-1.0,-1.0,115,61,76,89,77
2025-02-25 18:21:24.981,-417.0,-909.0,109.0,6.0,0.0,-2.0,115,60,78,90,77
2025-02-25 18:21:24.984,-408.0,-900.0,109.0,5.0,-1.0,-2.0,117,61,76,90,77
2025-02-25 18:21:24.986,-407.0,-899.0,101.0,5.0,0.0,-2.0,116,64,77,88,78
2025-02-25 18:21:24.988,-403.0,-896.0,103.0,4.0,0.0,-2.0,116,60,77,89,77
2025-02-25 18:21:24.989,-412.0,-900.0,108.0,3.0,1.0,-3.0,115,61,76,88,77
2025-02-25 18:21:24.991,-406.0,-908.0,105.0,2.0,0.0,-3.0,116,60,76,90,78
2025-02-25 18:21:24.993,-406.0,-906.0,103.0,2.0,0.0,-3.0,114,60,77,91,79
2025-02-25 18:21:24.996,-409.0,-909.0,105.0,1.0,0.0,-3.0,118,61,77,87,78
2025-02-25 18:21:24.998,-400.0,-918.0,112.0,0.0,0.0,-4.0,117,61,78,89,77
2025-02-25 18:21:25.000,-401.0,-930.0,103.0,-1.0,-1.0,-4.0,117,61,76,89,77
2025-02-25 18:21:25.002,-409.0,-938.0,115.0,0.0,-2.0,-4.0,117,60,76,89,80
2025-02-25 18:21:25.004,-403.0,-945.0,114.0,-1.0,0.0,-3.0,116,61,77,89,77
2025-02-25 18:21:25.006,-402.0,-943.0,91.0,-2.0,-2.0,-3.0,117,61,77,88,77
2025-02-25 18:21:25.008,-415.0,-960.0,105.0,-2.0,-2.0,-3.0,115,60,77,89,77
2025-02-25 18:21:25.010,-426.0,-973.0,94.0,-2.0,-3.0,-2.0,115,59,76,90,77
2025-02-25 18:21:25.012,-411.0,-969.0,107.0,-1.0,-4.0,-1.0,115,60,77,89,78
2025-02-25 18:21:25.014,-419.0,-961.0,95.0,-1.0,-3.0,-1.0,116,61,77,89,78
2025-02-25 18:21:25.016,-408.0,-960.0,108.0,-1.0,-3.0,0.0,115,60,76,89,78
2025-02-25 18:21:25.019,-418.0,-950.0,104.0,-1.0,-3.0,0.0,117,61,76,90,77
2025-02-25 18:21:25.021,-414.0,-946.0,106.0,0.0,-4.0,1.0,117,60,72,90,76
2025-02-25 18:21:25.023,-409.0,-941.0,106.0,0.0,-3.0,1.0,118,61,77,90,76
2025-02-25 18:21:25.025,-402.0,-930.0,109.0,0.0,-3.0,1.0,115,55,76,89,77
2025-02-25 18:21:25.028,-396.0,-925.0,107.0,0.0,-3.0,1.0,116,60,76,88,78
2025-02-25 18:21:25.030,-399.0,-922.0,105.0,0.0,-3.0,1.0,116,60,76,90,78
2025-02-25 18:21:25.032,-399.0,-916.0,104.0,0.0,-2.0,0.0,114,62,79,89,75
2025-02-25 18:21:25.034,-402.0,-913.0,104.0,1.0,-2.0,0.0,115,63,78,89,77
2025-02-25 18:21:25.036,-399.0,-915.0,105.0,1.0,-2.0,0.0,115,61,78,88,77
2025-02-25 18:21:25.038,-396.0,-908.0,104.0,1.0,-2.0,0.0,119,60,76,87,76
2025-02-25 18:21:25.040,-404.0,-914.0,101.0,1.0,-1.0,0.0,117,61,77,90,77
2025-02-25 18:21:25.042,-404.0,-910.0,102.0,1.0,-2.0,0.0,116,60,75,91,77
2025-02-25 18:21:25.044,-404.0,-914.0,102.0,1.0,-2.0,1.0,115,61,78,89,77
2025-02-25 18:21:25.046,-411.0,-913.0,104.0,1.0,-2.0,1.0,116,60,76,89,78
2025-02-25 18:21:25.048,-409.0,-913.0,100.0,1.0,-2.0,0.0,117,60,77,89,78
2025-02-25 18:21:25.050,-404.0,-910.0,103.0,2.0,-3.0,0.0,116,61,76,89,78
2025-02-25 18:21:25.052,-409.0,-911.0,102.0,2.0,-3.0,0.0,117,61,78,89,77
2025-02-25 18:21:25.054,-403.0,-905.0,102.0,2.0,-3.0,0.0,114,60,77,89,75
2025-02-25 18:21:25.056,-406.0,-906.0,102.0,2.0,-3.0,0.0,114,61,79,89,78
2025-02-25 18:21:25.058,-407.0,-898.0,106.0,2.0,-3.0,0.0,115,61,77,90,78
2025-02-25 18:21:25.060,-413.0,-896.0,111.0,2.0,-3.0,0.0,116,61,77,89,77
2025-02-25 18:21:25.062,-412.0,-897.0,110.0,2.0,-4.0,-1.0,117,60,75,88,78
2025-02-25 18:21:25.064,-410.0,-901.0,113.0,1.0,-3.0,-1.0,116,61,77,89,79
2025-02-25 18:21:25.066,-417.0,-904.0,114.0,1.0,-3.0,-2.0,115,60,77,90,77
2025-02-25 18:21:25.068,-412.0,-900.0,115.0,1.0,-3.0,-1.0,117,59,76,88,77
2025-02-25 18:21:25.070,-412.0,-904.0,115.0,0.0,-3.0,-2.0,116,61,76,89,78
2025-02-25 18:21:25.072,-410.0,-909.0,112.0,0.0,-3.0,-2.0,115,61,77,88,76
2025-02-25 18:21:25.074,-407.0,-912.0,117.0,0.0,-2.0,-2.0,115,61,77,90,76
2025-02-25 18:21:25.076,-417.0,-907.0,118.0,0.0,-2.0,-2.0,116,61,77,89,77
2025-02-25 18:21:25.078,-413.0,-911.0,120.0,0.0,-2.0,-2.0,117,60,77,90,77
2025-02-25 18:21:25.080,-413.0,-918.0,119.0,0.0,-2.0,-2.0,117,59,77,89,77
2025-02-25 18:21:25.082,-417.0,-915.0,121.0,0.0,-2.0,-2.0,117,61,76,88,77
2025-02-25 18:21:25.084,-412.0,-922.0,118.0,0.0,-2.0,-2.0,115,59,75,88,77
2025-02-25 18:21:25.086,-416.0,-921.0,123.0,0.0,-2.0,-2.0,116,61,77,91,78
2025-02-25 18:21:25.087,-415.0,-923.0,121.0,0.0,-2.0,-2.0,116,60,77,88,79
2025-02-25 18:21:25.091,-412.0,-929.0,126.0,1.0,-2.0,-2.0,117,59,77,89,77
2025-02-25 18:21:25.099,-413.0,-927.0,122.0,1.0,-2.0,-2.0,117,62,76,88,78
2025-02-25 18:21:25.103,-410.0,-925.0,125.0,1.0,-2.0,-2.0,114,60,77,89,78
2025-02-25 18:21:25.107,-404.0,-926.0,123.0,1.0,-2.0,-1.0,117,62,77,89,77
2025-02-25 18:21:25.111,-408.0,-928.0,129.0,1.0,-2.0,-2.0,120,63,76,88,77
2025-02-25 18:21:25.115,-408.0,-925.0,128.0,1.0,-2.0,-2.0,116,61,77,89,77
2025-02-25 18:21:25.123,-406.0,-929.0,125.0,1.0,-1.0,-2.0,115,60,77,88,76
2025-02-25 18:21:25.127,-410.0,-925.0,126.0,1.0,-1.0,-2.0,113,61,78,88,78
2025-02-25 18:21:25.132,-411.0,-925.0,127.0,1.0,-2.0,-1.0,116,61,78,89,78
2025-02-25 18:21:25.136,-416.0,-927.0,125.0,0.0,-1.0,-2.0,116,60,76,88,77
2025-02-25 18:21:25.140,-414.0,-928.0,124.0,-1.0,-1.0,-1.0,118,61,76,90,78
2025-02-25 18:21:25.144,-413.0,-932.0,126.0,-1.0,-1.0,-1.0,116,61,77,86,77
2025-02-25 18:21:25.152,-418.0,-929.0,134.0,-1.0,-2.0,-1.0,113,61,77,91,77
2025-02-25 18:21:25.156,-406.0,-924.0,134.0,-1.0,-1.0,-1.0,117,64,78,91,78
2025-02-25 18:21:25.160,-402.0,-930.0,132.0,-1.0,-1.0,-1.0,117,60,77,90,77
2025-02-25 18:21:25.164,-402.0,-931.0,132.0,-1.0,-1.0,-1.0,115,60,77,88,78
2025-02-25 18:21:25.168,-403.0,-928.0,135.0,-1.0,0.0,0.0,116,61,77,92,77
2025-02-25 18:21:25.176,-402.0,-925.0,130.0,-1.0,0.0,-1.0,116,63,79,90,77
2025-02-25 18:21:25.180,-401.0,-926.0,129.0,-1.0,0.0,0.0,115,61,76,87,77
2025-02-25 18:21:25.184,-402.0,-919.0,128.0,-1.0,0.0,0.0,117,62,76,88,78
2025-02-25 18:21:25.189,-405.0,-917.0,129.0,-1.0,0.0,0.0,116,60,77,87,76
2025-02-25 18:21:25.193,-408.0,-913.0,125.0,-1.0,0.0,0.0,117,61,78,89,79
2025-02-25 18:21:25.197,-408.0,-913.0,121.0,-1.0,0.0,0.0,117,61,77,89,78
2025-02-25 18:21:25.205,-410.0,-915.0,122.0,0.0,0.0,0.0,115,60,77,88,76
2025-02-25 18:21:25.209,-413.0,-910.0,117.0,0.0,0.0,0.0,116,61,77,90,77
2025-02-25 18:21:25.213,-410.0,-912.0,134.0,0.0,-1.0,-1.0,119,61,77,88,77
2025-02-25 18:21:25.218,-414.0,-920.0,118.0,0.0,-1.0,-1.0,116,61,78,90,78
2025-02-25 18:21:25.221,-411.0,-911.0,115.0,0.0,0.0,-1.0,117,61,76,90,78
2025-02-25 18:21:25.229,-409.0,-912.0,120.0,0.0,-1.0,-1.0,114,61,76,88,77
2025-02-25 18:21:25.233,-412.0,-912.0,120.0,0.0,0.0,-1.0,120,60,76,89,76
2025-02-25 18:21:25.237,-409.0,-911.0,115.0,-1.0,0.0,-1.0,117,60,78,90,79
2025-02-25 18:21:25.241,-414.0,-913.0,117.0,-1.0,0.0,-1.0,116,60,77,89,77
2025-02-25 18:21:25.247,-408.0,-917.0,126.0,-1.0,0.0,-1.0,115,59,77,89,78
2025-02-25 18:21:25.253,-408.0,-919.0,118.0,-1.0,0.0,-2.0,116,61,78,88,77
2025-02-25 18:21:25.258,-406.0,-922.0,115.0,-1.0,0.0,-1.0,116,61,76,92,77
2025-02-25 18:21:25.262,-407.0,-918.0,118.0,-1.0,0.0,-1.0,118,61,76,91,80
2025-02-25 18:21:25.267,-409.0,-917.0,110.0,-1.0,-1.0,-1.0,117,60,76,89,76
2025-02-25 18:21:25.271,-408.0,-926.0,113.0,-1.0,-1.0,-1.0,116,61,77,90,78
2025-02-25 18:21:25.275,-412.0,-921.0,112.0,-1.0,0.0,-1.0,115,61,77,89,77
2025-02-25 18:21:25.283,-413.0,-922.0,103.0,-2.0,-1.0,-1.0,114,59,77,89,77
2025-02-25 18:21:25.287,-411.0,-932.0,118.0,-1.0,-2.0,-1.0,115,61,76,90,77
2025-02-25 18:21:25.291,-410.0,-931.0,104.0,-1.0,-1.0,-1.0,116,61,77,90,78
2025-02-25 18:21:25.296,-406.0,-931.0,115.0,-2.0,-3.0,-1.0,118,61,76,88,77
2025-02-25 18:21:25.300,-407.0,-931.0,102.0,-3.0,-2.0,0.0,115,60,78,91,78
2025-02-25 18:21:25.307,-408.0,-921.0,98.0,-6.0,-1.0,0.0,118,61,76,89,77
2025-02-25 18:21:25.312,-412.0,-937.0,115.0,-10.0,-1.0,0.0,116,62,76,88,77
2025-02-25 18:21:25.316,-417.0,-929.0,69.0,-9.0,-3.0,0.0,119,62,76,88,77
2025-02-25 18:21:25.320,-404.0,-934.0,175.0,-1.0,-6.0,-1.0,117,61,77,90,78
2025-02-25 18:21:25.324,-405.0,-925.0,138.0,-1.0,-2.0,0.0,116,61,80,91,77
2025-02-25 18:21:25.331,-418.0,-943.0,128.0,-6.0,-1.0,0.0,117,61,76,89,77
2025-02-25 18:21:25.336,-406.0,-939.0,81.0,-4.0,-4.0,0.0,116,63,77,89,78
2025-02-25 18:21:25.340,-410.0,-953.0,113.0,0.0,-6.0,2.0,116,60,77,88,77
2025-02-25 18:21:25.344,-415.0,-956.0,105.0,-2.0,-6.0,1.0,115,65,76,88,81
2025-02-25 18:21:25.348,-396.0,-913.0,86.0,-5.0,-4.0,1.0,117,60,76,87,78
2025-02-25 18:21:25.356,-408.0,-926.0,114.0,-1.0,-3.0,2.0,115,61,76,89,77
2025-02-25 18:21:25.361,-398.0,-919.0,115.0,-2.0,-5.0,1.0,116,58,79,88,76
2025-02-25 18:21:25.365,-397.0,-903.0,120.0,0.0,-3.0,1.0,117,66,77,87,81
2025-02-25 18:21:25.369,-390.0,-910.0,112.0,-1.0,-2.0,1.0,116,59,76,88,77
2025-02-25 18:21:25.373,-389.0,-909.0,95.0,0.0,-3.0,1.0,121,61,77,90,76
2025-02-25 18:21:25.378,-394.0,-908.0,114.0,-2.0,-5.0,0.0,115,60,78,89,76
2025-02-25 18:21:25.385,-394.0,-905.0,104.0,-4.0,-4.0,1.0,115,61,77,89,77
2025-02-25 18:21:25.390,-398.0,-909.0,127.0,-2.0,-3.0,0.0,118,63,77,89,78
2025-02-25 18:21:25.394,-393.0,-913.0,100.0,-2.0,-2.0,0.0,119,62,77,88,82
2025-02-25 18:21:25.398,-408.0,-920.0,104.0,-1.0,-2.0,0.0,116,62,76,88,78
2025-02-25 18:21:25.402,-413.0,-933.0,103.0,-2.0,-3.0,0.0,118,60,77,88,77
2025-02-25 18:21:25.410,-427.0,-921.0,104.0,0.0,-3.0,0.0,115,61,77,89,78
2025-02-25 18:21:25.414,-418.0,-923.0,107.0,1.0,-3.0,0.0,115,61,76,89,77
2025-02-25 18:21:25.418,-415.0,-914.0,97.0,0.0,-2.0,0.0,115,59,77,88,77
2025-02-25 18:21:25.423,-420.0,-919.0,113.0,0.0,-1.0,0.0,116,61,77,90,78
2025-02-25 18:21:25.427,-418.0,-924.0,115.0,1.0,-3.0,0.0,116,59,76,89,77
2025-02-25 18:21:25.431,-420.0,-914.0,111.0,1.0,-3.0,0.0,118,60,77,90,79
2025-02-25 18:21:25.439,-412.0,-912.0,124.0,1.0,-3.0,1.0,114,61,76,88,78
2025-02-25 18:21:25.443,-412.0,-907.0,115.0,-1.0,-3.0,1.0,115,60,76,88,77
2025-02-25 18:21:25.447,-408.0,-905.0,120.0,0.0,-1.0,0.0,115,60,78,89,77
2025-02-25 18:21:25.451,-404.0,-913.0,140.0,0.0,-1.0,0.0,117,61,75,89,77
2025-02-25 18:21:25.456,-400.0,-913.0,130.0,1.0,-1.0,0.0,116,63,78,89,78
2025-02-25 18:21:25.463,-399.0,-907.0,124.0,2.0,-1.0,0.0,117,61,77,89,77
2025-02-25 18:21:25.467,-397.0,-907.0,119.0,2.0,0.0,0.0,115,60,78,89,76
2025-02-25 18:21:25.471,-401.0,-917.0,122.0,1.0,0.0,0.0,117,62,78,88,77
2025-02-25 18:21:25.475,-404.0,-920.0,132.0,3.0,-1.0,-1.0,118,61,79,89,78
2025-02-25 18:21:25.480,-412.0,-926.0,128.0,4.0,-1.0,-1.0,117,63,77,89,78
2025-02-25 18:21:25.487,-421.0,-919.0,117.0,2.0,-1.0,-1.0,114,61,77,88,77
2025-02-25 18:21:25.491,-424.0,-919.0,113.0,2.0,-2.0,0.0,117,62,77,90,77
2025-02-25 18:21:25.496,-428.0,-914.0,129.0,1.0,-2.0,0.0,116,60,77,88,77
2025-02-25 18:21:25.500,-421.0,-919.0,125.0,1.0,-3.0,0.0,116,61,78,90,77
2025-02-25 18:21:25.504,-417.0,-925.0,120.0,0.0,-3.0,0.0,118,61,78,88,77
2025-02-25 18:21:25.508,-415.0,-927.0,124.0,-1.0,-3.0,0.0,115,58,77,88,77
2025-02-25 18:21:25.516,-410.0,-920.0,135.0,-3.0,-4.0,0.0,116,61,77,89,78
2025-02-25 18:21:25.521,-403.0,-927.0,144.0,0.0,-2.0,1.0,116,59,77,87,78
2025-02-25 18:21:25.524,-409.0,-921.0,124.0,-1.0,-2.0,1.0,117,62,76,87,76
2025-02-25 18:21:25.529,-404.0,-916.0,130.0,0.0,-1.0,0.0,116,60,77,89,78
2025-02-25 18:21:25.533,-408.0,-924.0,125.0,0.0,0.0,1.0,116,58,78,90,80
2025-02-25 18:21:25.540,-405.0,-913.0,135.0,0.0,0.0,1.0,116,62,77,92,76
2025-02-25 18:21:25.545,-407.0,-918.0,139.0,1.0,0.0,0.0,117,69,78,89,77
2025-02-25 18:21:25.549,-404.0,-922.0,130.0,1.0,0.0,0.0,116,62,76,87,76
2025-02-25 18:21:25.553,-409.0,-921.0,125.0,2.0,1.0,0.0,116,59,76,89,78
2025-02-25 18:21:25.557,-411.0,-909.0,122.0,2.0,1.0,0.0,115,60,77,89,77
2025-02-25 18:21:25.561,-404.0,-924.0,132.0,2.0,1.0,0.0,115,61,77,87,76
2025-02-25 18:21:25.570,-418.0,-915.0,126.0,3.0,1.0,0.0,116,60,76,89,78
2025-02-25 18:21:25.573,-413.0,-915.0,126.0,3.0,2.0,1.0,119,61,77,90,77
2025-02-25 18:21:25.577,-413.0,-931.0,131.0,3.0,1.0,0.0,116,60,76,89,78
2025-02-25 18:21:25.583,-418.0,-932.0,148.0,3.0,3.0,1.0,115,61,76,88,79
2025-02-25 18:21:25.586,-410.0,-926.0,166.0,-1.0,4.0,0.0,117,63,75,89,76
2025-02-25 18:21:25.593,-392.0,-941.0,110.0,1.0,3.0,1.0,117,60,76,89,78
2025-02-25 18:21:25.598,-413.0,-919.0,155.0,11.0,3.0,1.0,119,61,78,90,78
2025-02-25 18:21:25.602,-427.0,-928.0,126.0,10.0,4.0,1.0,116,60,77,87,78
2025-02-25 18:21:25.607,-396.0,-912.0,125.0,13.0,3.0,1.0,116,61,78,88,76
2025-02-25 18:21:25.610,-416.0,-927.0,112.0,8.0,4.0,1.0,117,60,77,89,78
2025-02-25 18:21:25.618,-414.0,-919.0,137.0,9.0,1.0,1.0,116,60,77,90,77
2025-02-25 18:21:25.622,-420.0,-924.0,144.0,7.0,1.0,1.0,117,59,76,88,77
2025-02-25 18:21:25.627,-428.0,-915.0,118.0,7.0,3.0,1.0,116,61,77,89,78
2025-02-25 18:21:25.631,-407.0,-901.0,144.0,6.0,2.0,1.0,115,60,78,89,77
2025-02-25 18:21:25.635,-415.0,-901.0,132.0,5.0,5.0,0.0,116,60,78,90,78
2025-02-25 18:21:25.643,-416.0,-896.0,132.0,7.0,4.0,1.0,116,61,77,88,76
2025-02-25 18:21:25.648,-414.0,-896.0,123.0,6.0,2.0,0.0,116,61,78,89,77
2025-02-25 18:21:25.651,-417.0,-890.0,109.0,5.0,0.0,0.0,116,61,77,89,77
2025-02-25 18:21:25.655,-419.0,-893.0,123.0,1.0,2.0,0.0,116,61,77,88,78
2025-02-25 18:21:25.660,-422.0,-891.0,112.0,0.0,2.0,0.0,116,61,78,90,77
2025-02-25 18:21:25.664,-427.0,-900.0,127.0,1.0,0.0,-1.0,117,61,77,89,77
2025-02-25 18:21:25.672,-419.0,-918.0,151.0,3.0,0.0,0.0,115,59,79,89,77
2025-02-25 18:21:25.676,-426.0,-897.0,143.0,4.0,0.0,-1.0,112,60,76,89,78
2025-02-25 18:21:25.680,-413.0,-906.0,124.0,0.0,3.0,-1.0,117,61,75,90,77
2025-02-25 18:21:25.685,-417.0,-917.0,85.0,-1.0,0.0,-1.0,116,63,77,88,78
2025-02-25 18:21:25.689,-414.0,-942.0,126.0,-3.0,-1.0,-1.0,113,60,77,88,78
2025-02-25 18:21:25.697,-426.0,-917.0,99.0,-3.0,-2.0,0.0,116,61,76,90,77
2025-02-25 18:21:25.701,-432.0,-912.0,107.0,0.0,-1.0,0.0,116,61,77,89,78
2025-02-25 18:21:25.705,-421.0,-898.0,125.0,2.0,0.0,0.0,115,62,76,88,77
2025-02-25 18:21:25.709,-409.0,-896.0,126.0,2.0,2.0,-1.0,116,60,76,89,77
2025-02-25 18:21:25.714,-410.0,-903.0,118.0,0.0,2.0,-1.0,118,62,77,90,74
2025-02-25 18:21:25.718,-418.0,-906.0,120.0,-1.0,0.0,-1.0,117,59,77,89,77
2025-02-25 18:21:25.725,-415.0,-916.0,125.0,0.0,-3.0,-1.0,117,61,76,90,74
2025-02-25 18:21:25.729,-410.0,-914.0,117.0,0.0,-3.0,-2.0,116,61,77,88,77
2025-02-25 18:21:25.733,-398.0,-918.0,120.0,1.0,-1.0,-2.0,118,60,77,88,77
2025-02-25 18:21:25.737,-411.0,-925.0,135.0,2.0,2.0,-2.0,117,62,78,91,77
2025-02-25 18:21:25.742,-411.0,-924.0,105.0,0.0,1.0,-1.0,116,62,78,89,77
2025-02-25 18:21:25.750,-414.0,-922.0,121.0,0.0,2.0,-1.0,116,61,78,89,77
2025-02-25 18:21:25.754,-424.0,-938.0,140.0,0.0,0.0,0.0,117,61,77,89,78
2025-02-25 18:21:25.758,-415.0,-924.0,128.0,-1.0,-1.0,0.0,116,61,78,88,78
2025-02-25 18:21:25.762,-414.0,-921.0,126.0,0.0,-1.0,0.0,117,63,78,89,77
2025-02-25 18:21:25.766,-428.0,-929.0,129.0,0.0,-1.0,0.0,117,62,77,88,76
2025-02-25 18:21:25.770,-432.0,-922.0,134.0,0.0,0.0,0.0,115,62,77,90,77
2025-02-25 18:21:25.778,-434.0,-931.0,109.0,0.0,-2.0,0.0,118,61,78,91,79
2025-02-25 18:21:25.782,-428.0,-917.0,114.0,0.0,-2.0,0.0,116,61,76,89,78
2025-02-25 18:21:25.786,-424.0,-910.0,135.0,0.0,-2.0,0.0,117,61,78,89,78
2025-02-25 18:21:25.790,-419.0,-921.0,119.0,-3.0,-2.0,0.0,117,59,77,88,78
2025-02-25 18:21:25.795,-421.0,-913.0,126.0,-2.0,-3.0,-1.0,118,57,77,90,78
2025-02-25 18:21:25.802,-405.0,-895.0,140.0,-4.0,-3.0,0.0,118,62,77,89,78
2025-02-25 18:21:25.807,-415.0,-900.0,88.0,-2.0,-3.0,0.0,116,61,78,90,78
2025-02-25 18:21:25.811,-383.0,-915.0,139.0,1.0,-2.0,0.0,116,61,76,89,77
2025-02-25 18:21:25.815,-400.0,-914.0,141.0,1.0,-1.0,0.0,118,62,78,90,78
2025-02-25 18:21:25.820,-401.0,-917.0,113.0,-1.0,0.0,0.0,116,60,77,90,78
2025-02-25 18:21:25.827,-388.0,-922.0,137.0,-2.0,-1.0,0.0,115,62,77,88,77
2025-02-25 18:21:25.832,-408.0,-934.0,99.0,-2.0,-2.0,0.0,116,60,76,89,78
2025-02-25 18:21:25.836,-417.0,-918.0,114.0,-3.0,-1.0,1.0,117,63,78,89,77
2025-02-25 18:21:25.840,-411.0,-933.0,148.0,2.0,0.0,1.0,116,60,77,89,77
2025-02-25 18:21:25.844,-426.0,-913.0,119.0,3.0,0.0,1.0,115,61,75,90,78
2025-02-25 18:21:25.848,-417.0,-911.0,127.0,3.0,1.0,1.0,117,62,77,88,77
2025-02-25 18:21:25.856,-427.0,-923.0,127.0,1.0,-1.0,0.0,116,62,77,89,77
2025-02-25 18:21:25.861,-430.0,-917.0,126.0,-1.0,-4.0,1.0,116,61,77,88,77
2025-02-25 18:21:25.865,-423.0,-915.0,101.0,0.0,-4.0,1.0,115,58,77,88,76
2025-02-25 18:21:25.869,-433.0,-915.0,123.0,0.0,-4.0,1.0,117,59,78,88,78
2025-02-25 18:21:25.873,-425.0,-904.0,116.0,0.0,-2.0,1.0,117,62,77,88,77
2025-02-25 18:21:25.881,-422.0,-904.0,122.0,0.0,-1.0,1.0,116,60,77,88,77
2025-02-25 18:21:25.885,-408.0,-901.0,83.0,6.0,0.0,1.0,119,60,77,88,78
2025-02-25 18:21:25.889,-408.0,-920.0,148.0,9.0,-4.0,0.0,118,63,77,89,78
2025-02-25 18:21:25.894,-406.0,-906.0,103.0,6.0,-4.0,0.0,115,64,76,88,76
2025-02-25 18:21:25.898,-391.0,-907.0,144.0,2.0,-1.0,1.0,117,61,77,88,78
2025-02-25 18:21:25.906,-405.0,-928.0,108.0,-2.0,-5.0,1.0,117,58,78,90,78
2025-02-25 18:21:25.910,-422.0,-928.0,156.0,1.0,-7.0,1.0,116,61,77,88,77
2025-02-25 18:21:25.914,-424.0,-924.0,140.0,2.0,-6.0,1.0,119,63,78,88,76
2025-02-25 18:21:25.918,-414.0,-898.0,133.0,4.0,-3.0,1.0,117,61,77,90,78
2025-02-25 18:21:25.923,-420.0,-905.0,136.0,2.0,-2.0,1.0,114,60,78,89,75
2025-02-25 18:21:25.930,-425.0,-898.0,140.0,-1.0,-3.0,1.0,118,61,77,89,78
2025-02-25 18:21:25.934,-421.0,-912.0,163.0,-1.0,-5.0,0.0,117,62,79,89,77
2025-02-25 18:21:25.938,-437.0,-906.0,146.0,-2.0,-5.0,0.0,118,62,78,88,81
2025-02-25 18:21:25.943,-418.0,-919.0,139.0,-2.0,-6.0,1.0,117,62,79,89,78
2025-02-25 18:21:25.947,-420.0,-910.0,127.0,-1.0,-3.0,1.0,117,61,78,89,77
2025-02-25 18:21:25.951,-423.0,-919.0,151.0,0.0,-3.0,1.0,114,61,77,88,77
2025-02-25 18:21:25.959,-439.0,-920.0,134.0,1.0,-2.0,1.0,118,61,78,89,78
2025-02-25 18:21:25.963,-420.0,-900.0,140.0,1.0,-3.0,0.0,115,63,78,88,78
2025-02-25 18:21:25.967,-427.0,-888.0,135.0,1.0,-2.0,0.0,117,63,78,89,76
2025-02-25 18:21:25.971,-413.0,-891.0,108.0,-2.0,-3.0,0.0,116,61,77,89,79
2025-02-25 18:21:25.975,-417.0,-898.0,145.0,0.0,-3.0,0.0,119,61,77,88,78
2025-02-25 18:21:25.983,-431.0,-896.0,142.0,-1.0,-1.0,0.0,117,61,77,89,77
2025-02-25 18:21:25.987,-403.0,-888.0,145.0,0.0,0.0,-1.0,117,63,76,88,78
2025-02-25 18:21:25.991,-425.0,-900.0,112.0,-2.0,-3.0,-1.0,117,63,80,88,77
2025-02-25 18:21:25.996,-419.0,-912.0,113.0,2.0,-3.0,-1.0,116,61,78,88,77
2025-02-25 18:21:26.000,-430.0,-897.0,127.0,3.0,-3.0,-1.0,118,63,77,89,77
2025-02-25 18:21:26.008,-422.0,-916.0,124.0,1.0,-2.0,-1.0,116,61,76,88,78
2025-02-25 18:21:26.012,-434.0,-920.0,125.0,1.0,-3.0,0.0,116,61,77,88,76
2025-02-25 18:21:26.016,-432.0,-916.0,131.0,2.0,-3.0,0.0,116,62,77,88,77
2025-02-25 18:21:26.020,-430.0,-920.0,116.0,0.0,-4.0,0.0,116,60,77,88,77
2025-02-25 18:21:26.025,-424.0,-911.0,159.0,2.0,-4.0,0.0,115,62,79,90,79
2025-02-25 18:21:26.029,-427.0,-926.0,130.0,-1.0,-3.0,-1.0,116,62,78,88,77
2025-02-25 18:21:26.037,-412.0,-901.0,137.0,3.0,-2.0,0.0,114,59,76,87,77
2025-02-25 18:21:26.041,-417.0,-908.0,168.0,3.0,-1.0,0.0,118,63,78,90,76
2025-02-25 18:21:26.045,-420.0,-908.0,138.0,3.0,-1.0,0.0,115,62,77,87,78
2025-02-25 18:21:26.049,-415.0,-921.0,164.0,5.0,-1.0,0.0,118,63,77,87,78
2025-02-25 18:21:26.053,-407.0,-900.0,147.0,4.0,0.0,0.0,116,62,76,87,78
2025-02-25 18:21:26.061,-413.0,-922.0,150.0,2.0,0.0,0.0,117,62,78,88,77
2025-02-25 18:21:26.065,-405.0,-919.0,145.0,4.0,0.0,0.0,116,59,74,88,78
2025-02-25 18:21:26.069,-415.0,-915.0,172.0,8.0,1.0,0.0,113,61,78,89,77
2025-02-25 18:21:26.073,-413.0,-924.0,159.0,10.0,1.0,1.0,118,63,77,87,78
2025-02-25 18:21:26.078,-416.0,-925.0,146.0,10.0,1.0,1.0,118,60,76,88,77
2025-02-25 18:21:26.082,-424.0,-925.0,147.0,11.0,1.0,1.0,118,60,79,88,76
2025-02-25 18:21:26.090,-423.0,-933.0,145.0,10.0,-2.0,1.0,116,60,78,88,78
2025-02-25 18:21:26.094,-420.0,-936.0,144.0,11.0,-2.0,1.0,115,61,77,89,77
2025-02-25 18:21:26.098,-420.0,-926.0,145.0,10.0,-1.0,2.0,117,61,77,88,77
2025-02-25 18:21:26.102,-410.0,-918.0,155.0,11.0,0.0,2.0,117,59,77,89,78
2025-02-25 18:21:26.107,-422.0,-925.0,145.0,12.0,0.0,2.0,117,60,77,88,77
2025-02-25 18:21:26.114,-419.0,-928.0,157.0,12.0,-1.0,2.0,118,63,77,89,78
2025-02-25 18:21:26.119,-429.0,-921.0,154.0,11.0,-1.0,2.0,117,62,77,89,77
2025-02-25 18:21:26.123,-418.0,-906.0,149.0,10.0,0.0,2.0,116,62,77,87,79
2025-02-25 18:21:26.127,-428.0,-907.0,162.0,8.0,0.0,2.0,116,62,77,89,78
2025-02-25 18:21:26.132,-432.0,-902.0,159.0,7.0,0.0,2.0,117,61,79,89,78
2025-02-25 18:21:26.139,-421.0,-896.0,148.0,5.0,0.0,2.0,117,61,77,90,77
2025-02-25 18:21:26.143,-421.0,-904.0,156.0,2.0,0.0,2.0,118,61,79,88,79
2025-02-25 18:21:26.148,-419.0,-896.0,146.0,2.0,-1.0,1.0,117,53,78,89,78
2025-02-25 18:21:26.152,-419.0,-899.0,156.0,3.0,0.0,1.0,116,62,79,89,78
2025-02-25 18:21:26.156,-417.0,-900.0,154.0,2.0,0.0,1.0,118,63,78,88,78
2025-02-25 18:21:26.163,-418.0,-908.0,154.0,1.0,-1.0,1.0,116,60,77,88,78
2025-02-25 18:21:26.167,-403.0,-911.0,159.0,0.0,-2.0,2.0,117,63,78,90,78
2025-02-25 18:21:26.172,-436.0,-931.0,142.0,1.0,-2.0,2.0,116,62,79,90,79
2025-02-25 18:21:26.176,-426.0,-933.0,153.0,3.0,-3.0,2.0,115,60,76,89,77
2025-02-25 18:21:26.180,-437.0,-932.0,174.0,5.0,-3.0,2.0,117,61,76,91,79
2025-02-25 18:21:26.184,-423.0,-929.0,144.0,3.0,-3.0,3.0,118,63,78,89,77
2025-02-25 18:21:26.192,-435.0,-926.0,154.0,6.0,-2.0,3.0,115,61,77,89,77
2025-02-25 18:21:26.196,-431.0,-938.0,167.0,8.0,-3.0,3.0,118,62,77,88,77
2025-02-25 18:21:26.200,-435.0,-916.0,151.0,10.0,-3.0,3.0,118,61,78,89,78
2025-02-25 18:21:26.205,-433.0,-928.0,160.0,10.0,-3.0,4.0,115,60,78,89,77
2025-02-25 18:21:26.209,-428.0,-916.0,150.0,10.0,-1.0,4.0,116,63,78,88,77
2025-02-25 18:21:26.216,-430.0,-923.0,179.0,12.0,-2.0,4.0,117,62,78,89,77
2025-02-25 18:21:26.221,-432.0,-907.0,150.0,10.0,-2.0,4.0,119,59,76,92,77
2025-02-25 18:21:26.225,-418.0,-895.0,165.0,10.0,-1.0,4.0,117,61,78,90,78
2025-02-25 18:21:26.229,-428.0,-897.0,158.0,10.0,0.0,3.0,118,61,76,89,78
2025-02-25 18:21:26.233,-419.0,-906.0,163.0,8.0,0.0,3.0,116,63,81,87,77
2025-02-25 18:21:26.241,-434.0,-908.0,129.0,7.0,-2.0,2.0,116,61,76,89,78
2025-02-25 18:21:26.245,-413.0,-904.0,175.0,8.0,-4.0,3.0,117,62,78,90,78
2025-02-25 18:21:26.249,-431.0,-904.0,261.0,0.0,-3.0,3.0,119,62,79,89,76
2025-02-25 18:21:26.253,-464.0,-902.0,100.0,4.0,-1.0,2.0,118,63,77,89,79
2025-02-25 18:21:26.258,-396.0,-905.0,256.0,6.0,-2.0,2.0,117,61,77,88,78
2025-02-25 18:21:26.266,-441.0,-897.0,116.0,9.0,-1.0,2.0,117,62,77,88,76
2025-02-25 18:21:26.270,-425.0,-882.0,158.0,7.0,1.0,3.0,117,62,79,88,78
2025-02-25 18:21:26.274,-439.0,-918.0,147.0,7.0,0.0,2.0,116,62,79,90,78
2025-02-25 18:21:26.279,-451.0,-900.0,174.0,8.0,-2.0,2.0,117,61,76,87,79
2025-02-25 18:21:26.283,-441.0,-906.0,172.0,7.0,-5.0,2.0,116,61,77,89,78
2025-02-25 18:21:26.291,-423.0,-883.0,176.0,8.0,-4.0,2.0,116,61,77,89,78
2025-02-25 18:21:26.295,-424.0,-873.0,183.0,9.0,-3.0,1.0,118,58,81,88,77
2025-02-25 18:21:26.299,-421.0,-872.0,153.0,6.0,-4.0,1.0,117,61,79,89,79
2025-02-25 18:21:26.303,-410.0,-872.0,159.0,6.0,-2.0,0.0,116,59,77,90,78
2025-02-25 18:21:26.308,-423.0,-858.0,200.0,6.0,-3.0,0.0,116,61,75,90,78
2025-02-25 18:21:26.315,-433.0,-862.0,186.0,9.0,-2.0,0.0,119,63,79,86,79
2025-02-25 18:21:26.319,-436.0,-864.0,156.0,7.0,-3.0,0.0,116,60,76,88,77
2025-02-25 18:21:26.323,-423.0,-868.0,173.0,7.0,-2.0,0.0,119,61,80,88,78
2025-02-25 18:21:26.328,-434.0,-882.0,153.0,5.0,-3.0,0.0,119,61,78,88,78
2025-02-25 18:21:26.332,-431.0,-876.0,171.0,5.0,-5.0,-1.0,115,61,77,88,77
2025-02-25 18:21:26.336,-441.0,-883.0,165.0,5.0,-5.0,-1.0,117,61,78,90,78
2025-02-25 18:21:26.344,-431.0,-880.0,167.0,4.0,-4.0,-1.0,115,61,78,88,78
2025-02-25 18:21:26.348,-430.0,-878.0,162.0,4.0,-3.0,-2.0,116,60,77,88,77
2025-02-25 18:21:26.352,-433.0,-886.0,176.0,5.0,-3.0,-2.0,119,61,77,90,78
2025-02-25 18:21:26.357,-453.0,-892.0,184.0,6.0,-3.0,-2.0,117,61,77,87,79
2025-02-25 18:21:26.361,-443.0,-885.0,172.0,5.0,-3.0,-3.0,117,61,77,88,77
2025-02-25 18:21:26.368,-447.0,-886.0,180.0,5.0,-3.0,-3.0,119,60,77,87,78
2025-02-25 18:21:26.372,-448.0,-889.0,188.0,5.0,-3.0,-2.0,118,63,77,89,78
2025-02-25 18:21:26.377,-443.0,-886.0,194.0,6.0,-3.0,-3.0,117,62,78,87,77
2025-02-25 18:21:26.381,-444.0,-883.0,183.0,5.0,-2.0,-3.0,117,63,78,88,79
2025-02-25 18:21:26.385,-440.0,-883.0,184.0,4.0,-2.0,-3.0,117,60,79,88,79
2025-02-25 18:21:26.393,-442.0,-877.0,186.0,4.0,-2.0,-3.0,117,61,78,88,78
2025-02-25 18:21:26.397,-439.0,-887.0,192.0,4.0,-3.0,-3.0,118,61,77,87,78
2025-02-25 18:21:26.401,-435.0,-880.0,189.0,5.0,-3.0,-4.0,119,62,78,87,78
2025-02-25 18:21:26.406,-433.0,-889.0,187.0,4.0,-3.0,-4.0,115,59,78,88,77
2025-02-25 18:21:26.410,-431.0,-892.0,190.0,3.0,-3.0,-4.0,118,61,78,88,78
2025-02-25 18:21:26.418,-432.0,-892.0,187.0,3.0,-4.0,-5.0,117,61,78,87,78
2025-02-25 18:21:26.422,-422.0,-903.0,191.0,5.0,-4.0,-4.0,118,62,78,88,78
2025-02-25 18:21:26.426,-436.0,-904.0,183.0,5.0,-4.0,-4.0,119,61,79,87,78
2025-02-25 18:21:26.430,-437.0,-891.0,195.0,4.0,-3.0,-5.0,119,60,77,88,79
2025-02-25 18:21:26.434,-420.0,-906.0,175.0,4.0,-3.0,-5.0,118,60,77,88,78
2025-02-25 18:21:26.442,-427.0,-899.0,187.0,5.0,-3.0,-5.0,118,60,77,86,77
2025-02-25 18:21:26.446,-417.0,-909.0,186.0,5.0,-2.0,-4.0,116,61,77,88,79
2025-02-25 18:21:26.450,-418.0,-909.0,199.0,6.0,-2.0,-5.0,118,61,79,89,79
2025-02-25 18:21:26.454,-430.0,-911.0,203.0,3.0,1.0,-5.0,118,62,74,87,78
2025-02-25 18:21:26.458,-434.0,-914.0,198.0,1.0,4.0,-5.0,119,61,77,89,79
2025-02-25 18:21:26.466,-423.0,-917.0,187.0,0.0,4.0,-4.0,118,61,76,89,78
2025-02-25 18:21:26.471,-433.0,-923.0,194.0,-1.0,3.0,-4.0,118,62,79,91,79
2025-02-25 18:21:26.475,-436.0,-911.0,210.0,1.0,2.0,-3.0,117,62,77,87,79
2025-02-25 18:21:26.479,-439.0,-915.0,189.0,1.0,2.0,-3.0,117,59,79,88,78
2025-02-25 18:21:26.483,-428.0,-904.0,214.0,2.0,2.0,-3.0,118,63,78,87,78
2025-02-25 18:21:26.491,-426.0,-903.0,185.0,2.0,2.0,-2.0,118,61,78,86,79
2025-02-25 18:21:26.495,-430.0,-898.0,203.0,2.0,2.0,-2.0,119,61,79,87,77
2025-02-25 18:21:26.499,-419.0,-902.0,202.0,4.0,1.0,-2.0,118,63,78,88,78
2025-02-25 18:21:26.504,-418.0,-904.0,191.0,3.0,1.0,-2.0,118,62,77,87,78
2025-02-25 18:21:26.508,-424.0,-909.0,196.0,4.0,0.0,-2.0,117,61,78,89,80
2025-02-25 18:21:26.512,-430.0,-899.0,197.0,5.0,0.0,-2.0,118,62,78,86,78
2025-02-25 18:21:26.520,-435.0,-896.0,199.0,4.0,-1.0,-2.0,115,61,78,88,79
2025-02-25 18:21:26.524,-439.0,-896.0,191.0,5.0,0.0,-2.0,117,60,80,88,77
2025-02-25 18:21:26.528,-443.0,-898.0,188.0,6.0,0.0,-2.0,117,61,76,87,78
2025-02-25 18:21:26.533,-442.0,-906.0,188.0,6.0,0.0,-2.0,118,60,77,87,77
2025-02-25 18:21:26.537,-451.0,-900.0,205.0,8.0,3.0,-2.0,119,60,82,88,78
2025-02-25 18:21:26.545,-459.0,-911.0,174.0,10.0,6.0,-2.0,119,61,78,87,79
2025-02-25 18:21:26.549,-458.0,-963.0,229.0,22.0,5.0,-3.0,118,60,77,87,79
2025-02-25 18:21:26.552,-456.0,-927.0,198.0,31.0,8.0,-3.0,119,62,71,87,79
2025-02-25 18:21:26.557,-452.0,-904.0,171.0,35.0,7.0,-3.0,120,61,78,89,78
2025-02-25 18:21:26.560,-442.0,-933.0,189.0,36.0,7.0,-3.0,118,61,78,87,74
2025-02-25 18:21:26.569,-459.0,-935.0,206.0,30.0,2.0,-3.0,119,61,77,88,78
2025-02-25 18:21:26.573,-421.0,-921.0,214.0,25.0,-1.0,-3.0,118,61,76,91,79
2025-02-25 18:21:26.577,-424.0,-913.0,201.0,17.0,-1.0,-2.0,120,60,77,87,78
2025-02-25 18:21:26.582,-443.0,-912.0,240.0,20.0,2.0,0.0,119,60,77,87,79
2025-02-25 18:21:26.586,-448.0,-920.0,205.0,23.0,4.0,0.0,120,63,79,87,77
2025-02-25 18:21:26.594,-443.0,-910.0,217.0,32.0,6.0,0.0,114,60,77,83,78
2025-02-25 18:21:26.598,-458.0,-900.0,200.0,43.0,7.0,1.0,121,61,76,87,78
2025-02-25 18:21:26.602,-449.0,-913.0,190.0,37.0,8.0,1.0,118,61,77,87,80
2025-02-25 18:21:26.606,-434.0,-887.0,224.0,44.0,9.0,0.0,118,62,77,86,79
2025-02-25 18:21:26.611,-431.0,-884.0,207.0,38.0,6.0,1.0,118,61,77,86,78
2025-02-25 18:21:26.618,-433.0,-874.0,233.0,35.0,3.0,0.0,119,62,79,87,78
2025-02-25 18:21:26.623,-460.0,-844.0,204.0,29.0,1.0,1.0,119,61,77,85,78
2025-02-25 18:21:26.626,-433.0,-852.0,221.0,22.0,-3.0,0.0,120,61,77,88,80
2025-02-25 18:21:26.630,-463.0,-836.0,179.0,20.0,-6.0,0.0,120,61,79,87,75
2025-02-25 18:21:26.635,-455.0,-851.0,201.0,12.0,-8.0,-2.0,121,63,78,86,78
2025-02-25 18:21:26.642,-443.0,-847.0,211.0,8.0,-9.0,-3.0,119,64,79,87,79
2025-02-25 18:21:26.646,-431.0,-856.0,220.0,0.0,-15.0,-4.0,121,63,79,87,79
2025-02-25 18:21:26.651,-426.0,-869.0,227.0,-11.0,-16.0,-4.0,119,63,79,87,79
2025-02-25 18:21:26.655,-434.0,-864.0,216.0,-19.0,-21.0,-4.0,121,65,79,88,78
2025-02-25 18:21:26.659,-412.0,-898.0,193.0,-21.0,-23.0,-4.0,122,63,79,86,79
2025-02-25 18:21:26.667,-421.0,-914.0,208.0,-26.0,-23.0,-3.0,119,63,78,87,78
2025-02-25 18:21:26.672,-434.0,-937.0,203.0,-30.0,-25.0,-3.0,121,63,80,87,79
2025-02-25 18:21:26.676,-438.0,-940.0,207.0,-31.0,-28.0,-3.0,121,64,79,86,81
2025-02-25 18:21:26.680,-440.0,-951.0,204.0,-33.0,-29.0,-2.0,121,63,79,86,78
2025-02-25 18:21:26.688,-450.0,-960.0,226.0,-33.0,-32.0,-1.0,119,64,78,86,80
2025-02-25 18:21:26.692,-465.0,-960.0,213.0,-35.0,-35.0,-1.0,119,65,78,87,81
2025-02-25 18:21:26.696,-459.0,-968.0,226.0,-36.0,-38.0,0.0,121,64,79,86,81
2025-02-25 18:21:26.700,-451.0,-952.0,224.0,-32.0,-37.0,1.0,121,64,79,87,82
2025-02-25 18:21:26.708,-424.0,-956.0,241.0,-32.0,-37.0,1.0,120,63,80,88,81
2025-02-25 18:21:26.712,-424.0,-935.0,231.0,-32.0,-37.0,2.0,122,62,81,87,83
2025-02-25 18:21:26.717,-425.0,-935.0,253.0,-31.0,-35.0,3.0,121,65,80,86,82
2025-02-25 18:21:26.721,-397.0,-937.0,260.0,-29.0,-32.0,4.0,120,62,81,88,82
2025-02-25 18:21:26.725,-408.0,-929.0,272.0,-23.0,-29.0,5.0,121,63,80,86,83
2025-02-25 18:21:26.733,-405.0,-920.0,267.0,-13.0,-26.0,5.0,119,64,82,87,82
2025-02-25 18:21:26.737,-389.0,-935.0,272.0,-5.0,-21.0,6.0,121,61,81,87,84
2025-02-25 18:21:26.741,-397.0,-919.0,261.0,0.0,-18.0,6.0,121,63,74,86,83
2025-02-25 18:21:26.745,-419.0,-912.0,261.0,10.0,-12.0,6.0,123,66,80,87,83
2025-02-25 18:21:26.750,-420.0,-890.0,305.0,24.0,-6.0,4.0,117,64,80,87,84
2025-02-25 18:21:26.757,-422.0,-876.0,255.0,30.0,-3.0,3.0,120,62,80,85,83
2025-02-25 18:21:26.762,-446.0,-863.0,260.0,38.0,0.0,2.0,119,62,80,85,83
2025-02-25 18:21:26.766,-439.0,-856.0,240.0,44.0,4.0,1.0,120,64,84,85,83
2025-02-25 18:21:26.770,-434.0,-851.0,239.0,46.0,5.0,0.0,121,64,80,86,82
2025-02-25 18:21:26.774,-426.0,-870.0,247.0,48.0,5.0,0.0,120,64,81,87,85
2025-02-25 18:21:26.779,-434.0,-864.0,242.0,50.0,5.0,-1.0,119,64,81,85,83
2025-02-25 18:21:26.782,-426.0,-865.0,249.0,53.0,6.0,-1.0,120,65,80,86,84
2025-02-25 18:21:26.790,-410.0,-875.0,272.0,51.0,6.0,-2.0,121,66,81,83,85
2025-02-25 18:21:26.794,-388.0,-896.0,261.0,52.0,8.0,-3.0,120,66,80,86,86
2025-02-25 18:21:26.798,-379.0,-898.0,256.0,51.0,8.0,-3.0,122,65,79,84,86
2025-02-25 18:21:26.802,-379.0,-903.0,258.0,47.0,8.0,-3.0,121,65,82,88,87
2025-02-25 18:21:26.807,-376.0,-896.0,252.0,43.0,6.0,-3.0,122,65,81,88,87
2025-02-25 18:21:26.814,-374.0,-890.0,270.0,36.0,2.0,-4.0,120,66,83,87,87
2025-02-25 18:21:26.818,-381.0,-874.0,253.0,32.0,2.0,-3.0,120,66,82,85,87
2025-02-25 18:21:26.823,-412.0,-875.0,257.0,28.0,-4.0,-3.0,121,67,81,86,87
2025-02-25 18:21:26.827,-403.0,-855.0,266.0,25.0,-6.0,-3.0,120,67,82,86,90
2025-02-25 18:21:26.831,-389.0,-849.0,231.0,23.0,-7.0,-2.0,124,67,81,87,89
2025-02-25 18:21:26.839,-401.0,-848.0,238.0,17.0,-9.0,-2.0,120,67,83,89,90
2025-02-25 18:21:26.843,-400.0,-832.0,235.0,15.0,-11.0,-1.0,120,66,83,87,89
2025-02-25 18:21:26.847,-408.0,-814.0,278.0,11.0,-18.0,-2.0,120,68,83,89,90
2025-02-25 18:21:26.851,-426.0,-817.0,244.0,11.0,-24.0,-2.0,123,68,83,88,91
2025-02-25 18:21:26.859,-442.0,-809.0,231.0,10.0,-27.0,-4.0,120,70,85,90,91
2025-02-25 18:21:26.864,-441.0,-805.0,244.0,8.0,-31.0,-5.0,118,72,84,90,93
2025-02-25 18:21:26.868,-416.0,-759.0,235.0,5.0,-30.0,-9.0,122,72,86,92,93
2025-02-25 18:21:26.872,-415.0,-792.0,243.0,4.0,-30.0,-11.0,120,70,86,92,93
2025-02-25 18:21:26.876,-413.0,-818.0,313.0,2.0,-30.0,-13.0,121,73,84,92,93
2025-02-25 18:21:26.884,-406.0,-826.0,223.0,4.0,-28.0,-16.0,121,72,86,93,96
2025-02-25 18:21:26.889,-388.0,-875.0,273.0,4.0,-28.0,-17.0,119,74,86,92,97
2025-02-25 18:21:26.893,-375.0,-869.0,282.0,7.0,-29.0,-18.0,120,65,89,94,97
2025-02-25 18:21:26.897,-361.0,-859.0,313.0,18.0,-26.0,-19.0,121,73,88,93,97
2025-02-25 18:21:26.901,-364.0,-902.0,298.0,19.0,-21.0,-21.0,122,76,85,95,99
2025-02-25 18:21:26.909,-353.0,-908.0,258.0,27.0,-22.0,-20.0,120,78,90,93,97
2025-02-25 18:21:26.913,-379.0,-890.0,255.0,34.0,-24.0,-20.0,121,77,87,96,99
2025-02-25 18:21:26.917,-369.0,-911.0,264.0,34.0,-22.0,-19.0,121,82,89,95,99
2025-02-25 18:21:26.921,-348.0,-906.0,270.0,32.0,-20.0,-17.0,124,80,89,94,100
2025-02-25 18:21:26.929,-361.0,-903.0,260.0,30.0,-24.0,-15.0,120,78,91,96,101
2025-02-25 18:21:26.933,-349.0,-859.0,273.0,32.0,-25.0,-14.0,124,74,91,96,102
2025-02-25 18:21:26.938,-342.0,-882.0,360.0,39.0,-21.0,-11.0,121,81,92,96,102
2025-02-25 18:21:26.942,-377.0,-882.0,384.0,32.0,-18.0,-11.0,129,80,93,96,103
2025-02-25 18:21:26.949,-373.0,-886.0,293.0,33.0,-17.0,-10.0,123,84,92,97,103
2025-02-25 18:21:26.954,-382.0,-886.0,298.0,34.0,-17.0,-11.0,122,87,93,98,107
2025-02-25 18:21:26.958,-379.0,-912.0,359.0,31.0,-17.0,-13.0,122,89,95,100,104
2025-02-25 18:21:26.963,-390.0,-878.0,360.0,27.0,-18.0,-17.0,122,93,95,98,103
2025-02-25 18:21:26.971,-379.0,-874.0,348.0,24.0,-19.0,-19.0,123,91,94,100,104
2025-02-25 18:21:26.975,-363.0,-865.0,355.0,20.0,-17.0,-21.0,123,84,94,101,106
2025-02-25 18:21:26.979,-362.0,-862.0,333.0,22.0,-18.0,-25.0,123,96,95,101,107
2025-02-25 18:21:26.987,-374.0,-861.0,360.0,22.0,-16.0,-29.0,126,94,95,95,106
2025-02-25 18:21:26.991,-395.0,-848.0,329.0,18.0,-18.0,-33.0,125,96,94,100,104
2025-02-25 18:21:26.995,-442.0,-835.0,333.0,9.0,-19.0,-37.0,123,99,99,106,112
2025-02-25 18:21:27.000,-445.0,-846.0,292.0,7.0,-24.0,-40.0,123,98,98,104,109
2025-02-25 18:21:27.007,-417.0,-822.0,291.0,3.0,-27.0,-41.0,123,99,97,106,110
2025-02-25 18:21:27.012,-418.0,-802.0,291.0,3.0,-34.0,-42.0,125,100,99,107,110
2025-02-25 18:21:27.016,-429.0,-801.0,341.0,-1.0,-34.0,-45.0,126,101,100,107,112
2025-02-25 18:21:27.024,-413.0,-814.0,436.0,-7.0,-28.0,-46.0,125,101,103,108,109
2025-02-25 18:21:27.028,-413.0,-803.0,355.0,-4.0,-32.0,-45.0,127,104,101,109,112
2025-02-25 18:21:27.032,-374.0,-809.0,360.0,-3.0,-36.0,-43.0,126,101,100,108,112
2025-02-25 18:21:27.036,-370.0,-785.0,428.0,-3.0,-37.0,-43.0,127,105,100,109,113
2025-02-25 18:21:27.044,-347.0,-799.0,324.0,-1.0,-41.0,-41.0,124,105,100,107,113
2025-02-25 18:21:27.049,-369.0,-843.0,349.0,-8.0,-48.0,-37.0,125,106,102,110,115
2025-02-25 18:21:27.053,-314.0,-833.0,367.0,-11.0,-48.0,-35.0,128,105,102,111,116
2025-02-25 18:21:27.061,-343.0,-853.0,333.0,-14.0,-49.0,-32.0,132,114,108,115,119
2025-02-25 18:21:27.065,-276.0,-854.0,398.0,-15.0,-44.0,-31.0,130,111,107,116,121
2025-02-25 18:21:27.070,-294.0,-858.0,383.0,-22.0,-42.0,-28.0,132,112,105,114,119
2025-02-25 18:21:27.077,-312.0,-895.0,364.0,-29.0,-44.0,-27.0,134,114,104,115,120
2025-02-25 18:21:27.081,-299.0,-911.0,419.0,-32.0,-40.0,-26.0,133,112,107,115,119
2025-02-25 18:21:27.086,-283.0,-908.0,419.0,-39.0,-40.0,-25.0,134,116,109,118,123
2025-02-25 18:21:27.093,-313.0,-928.0,416.0,-38.0,-41.0,-26.0,132,114,106,115,120
2025-02-25 18:21:27.098,-309.0,-931.0,455.0,-39.0,-39.0,-25.0,134,115,107,117,121
2025-02-25 18:21:27.102,-306.0,-965.0,467.0,-35.0,-34.0,-25.0,133,115,107,116,122
2025-02-25 18:21:27.110,-301.0,-932.0,408.0,-36.0,-32.0,-25.0,131,113,110,116,120
2025-02-25 18:21:27.114,-274.0,-906.0,408.0,-40.0,-31.0,-25.0,135,117,109,118,123
2025-02-25 18:21:27.122,-266.0,-898.0,371.0,-39.0,-31.0,-25.0,137,118,111,121,127
2025-02-25 18:21:27.126,-255.0,-900.0,402.0,-41.0,-25.0,-26.0,139,122,115,123,129
2025-02-25 18:21:27.130,-244.0,-900.0,349.0,-49.0,-24.0,-26.0,161,145,138,145,151
2025-02-25 18:21:27.138,-233.0,-893.0,361.0,-47.0,-21.0,-26.0,161,142,133,145,150
2025-02-25 18:21:27.142,-222.0,-888.0,416.0,-46.0,-12.0,-27.0,174,159,151,157,164
2025-02-25 18:21:27.147,-207.0,-885.0,389.0,-44.0,-8.0,-28.0,178,162,153,162,168
2025-02-25 18:21:27.154,-213.0,-898.0,322.0,-42.0,-10.0,-27.0,175,156,151,158,164
2025-02-25 18:21:27.159,-227.0,-924.0,369.0,-36.0,-9.0,-28.0,181,164,157,164,166
2025-02-25 18:21:27.163,-236.0,-908.0,401.0,-23.0,-11.0,-29.0,212,196,188,196,202
2025-02-25 18:21:27.171,-236.0,-942.0,405.0,-14.0,-4.0,-28.0,200,188,180,191,194
2025-02-25 18:21:27.175,-249.0,-956.0,315.0,-12.0,-10.0,-27.0,168,152,143,152,158
2025-02-25 18:21:27.180,-249.0,-972.0,356.0,-7.0,-10.0,-25.0,135,118,111,117,124
2025-02-25 18:21:27.184,-255.0,-990.0,312.0,-5.0,-11.0,-23.0,137,119,110,121,127
2025-02-25 18:21:27.192,-248.0,-992.0,356.0,-9.0,-11.0,-22.0,152,135,126,136,141
2025-02-25 18:21:27.196,-217.0,-1007.0,326.0,-10.0,-8.0,-21.0,177,160,153,161,168
2025-02-25 18:21:27.200,-202.0,-993.0,501.0,-12.0,9.0,-21.0,198,186,178,186,193
2025-02-25 18:21:27.208,-228.0,-971.0,330.0,-6.0,8.0,-20.0,179,162,155,162,169
2025-02-25 18:21:27.212,-229.0,-1022.0,325.0,-8.0,6.0,-17.0,185,166,159,168,174
2025-02-25 18:21:27.217,-219.0,-1000.0,299.0,-8.0,5.0,-16.0,192,173,165,173,179
2025-02-25 18:21:27.224,-227.0,-1004.0,265.0,-14.0,-6.0,-16.0,200,183,175,181,187
2025-02-25 18:21:27.228,-233.0,-987.0,315.0,-22.0,-11.0,-16.0,196,174,169,179,183
2025-02-25 18:21:27.233,-210.0,-890.0,58.0,-24.0,-20.0,-18.0,183,164,158,167,173
2025-02-25 18:21:27.240,-190.0,-910.0,492.0,-6.0,0.0,-20.0,188,173,162,170,179
2025-02-25 18:21:27.245,-219.0,-993.0,387.0,4.0,3.0,-20.0,175,158,152,160,164
2025-02-25 18:21:27.249,-228.0,-989.0,339.0,6.0,3.0,-20.0,174,158,151,158,165
2025-02-25 18:21:27.254,-223.0,-970.0,298.0,15.0,-3.0,-21.0,187,172,164,172,178
2025-02-25 18:21:27.261,-245.0,-967.0,327.0,13.0,-6.0,-20.0,187,171,164,172,179
2025-02-25 18:21:27.265,-250.0,-954.0,291.0,13.0,-10.0,-20.0,181,165,157,166,173
2025-02-25 18:21:27.269,-249.0,-935.0,312.0,7.0,-8.0,-19.0,179,164,156,165,170
2025-02-25 18:21:27.277,-233.0,-916.0,352.0,6.0,-4.0,-19.0,182,165,158,166,172
2025-02-25 18:21:27.281,-236.0,-934.0,349.0,5.0,-3.0,-18.0,185,168,162,169,174
2025-02-25 18:21:27.286,-221.0,-956.0,300.0,1.0,-6.0,-17.0,182,166,158,164,173
2025-02-25 18:21:27.290,-217.0,-931.0,335.0,4.0,-5.0,-16.0,178,162,153,161,168
2025-02-25 18:21:27.298,-238.0,-960.0,342.0,2.0,-5.0,-15.0,177,160,154,160,168
2025-02-25 18:21:27.302,-235.0,-963.0,284.0,-4.0,-4.0,-12.0,181,165,158,165,173
2025-02-25 18:21:27.306,-222.0,-925.0,304.0,0.0,0.0,-11.0,181,164,157,165,172
2025-02-25 18:21:27.310,-211.0,-957.0,307.0,2.0,-3.0,-9.0,180,162,154,163,169
2025-02-25 18:21:27.318,-191.0,-981.0,333.0,-4.0,-2.0,-8.0,182,164,157,164,167
2025-02-25 18:21:27.323,-201.0,-954.0,313.0,-1.0,1.0,-7.0,184,167,157,165,172
2025-02-25 18:21:27.327,-203.0,-982.0,317.0,5.0,2.0,-6.0,181,164,159,166,168
2025-02-25 18:21:27.331,-190.0,-998.0,325.0,7.0,-1.0,-6.0,181,164,156,165,172
2025-02-25 18:21:27.338,-196.0,-988.0,311.0,6.0,-1.0,-6.0,186,168,162,169,177
2025-02-25 18:21:27.343,-196.0,-945.0,301.0,11.0,-4.0,-6.0,188,170,161,169,176
2025-02-25 18:21:27.347,-160.0,-1016.0,349.0,5.0,-3.0,-4.0,181,168,156,164,168
2025-02-25 18:21:27.355,-181.0,-984.0,354.0,1.0,-1.0,-3.0,180,163,155,164,171
2025-02-25 18:21:27.359,-186.0,-993.0,296.0,1.0,-1.0,-2.0,181,165,156,163,169
2025-02-25 18:21:27.364,-166.0,-989.0,315.0,-2.0,1.0,-2.0,183,166,159,165,171
2025-02-25 18:21:27.368,-161.0,-988.0,328.0,-5.0,6.0,-1.0,180,163,156,163,170
2025-02-25 18:21:27.376,-173.0,-974.0,296.0,-2.0,4.0,-1.0,179,162,153,160,167
2025-02-25 18:21:27.380,-192.0,-994.0,348.0,1.0,5.0,0.0,178,162,153,164,169
2025-02-25 18:21:27.384,-197.0,-978.0,339.0,6.0,9.0,0.0,181,164,157,166,173
2025-02-25 18:21:27.389,-214.0,-970.0,289.0,6.0,7.0,0.0,179,161,154,162,169
2025-02-25 18:21:27.393,-217.0,-968.0,283.0,6.0,6.0,1.0,175,158,149,159,166
2025-02-25 18:21:27.401,-230.0,-964.0,331.0,5.0,4.0,1.0,182,165,158,167,173
2025-02-25 18:21:27.406,-233.0,-958.0,334.0,4.0,6.0,1.0,181,165,156,163,172
2025-02-25 18:21:27.411,-237.0,-951.0,351.0,-3.0,10.0,1.0,176,159,151,157,165
2025-02-25 18:21:27.415,-240.0,-947.0,277.0,-3.0,8.0,0.0,177,158,149,156,164
2025-02-25 18:21:27.421,-234.0,-962.0,298.0,-1.0,6.0,0.0,185,167,159,168,174
2025-02-25 18:21:27.426,-231.0,-957.0,315.0,-2.0,5.0,0.0,181,165,156,163,170
2025-02-25 18:21:27.429,-234.0,-957.0,251.0,-1.0,2.0,0.0,176,159,150,158,165
2025-02-25 18:21:27.434,-227.0,-964.0,245.0,-2.0,-3.0,1.0,182,164,158,163,170
2025-02-25 18:21:27.441,-231.0,-962.0,253.0,0.0,-7.0,2.0,185,170,160,167,176
2025-02-25 18:21:27.446,-209.0,-976.0,291.0,2.0,-7.0,2.0,175,159,152,158,167
2025-02-25 18:21:27.450,-198.0,-970.0,311.0,3.0,-6.0,3.0,175,157,148,159,165
2025-02-25 18:21:27.454,-197.0,-967.0,324.0,5.0,0.0,3.0,180,165,156,164,172
2025-02-25 18:21:27.458,-191.0,-954.0,285.0,6.0,2.0,4.0,182,163,156,164,172
2025-02-25 18:21:27.465,-196.0,-962.0,294.0,6.0,2.0,4.0,177,159,152,159,166
2025-02-25 18:21:27.470,-203.0,-961.0,281.0,3.0,0.0,5.0,181,165,157,165,171
2025-02-25 18:21:27.474,-211.0,-955.0,268.0,1.0,-3.0,5.0,179,161,153,162,170
2025-02-25 18:21:27.478,-215.0,-953.0,288.0,0.0,-4.0,5.0,179,162,155,162,170
2025-02-25 18:21:27.487,-215.0,-942.0,311.0,-1.0,-3.0,5.0,181,165,158,165,172
2025-02-25 18:21:27.491,-222.0,-940.0,315.0,-4.0,-1.0,5.0,180,165,160,165,171
2025-02-25 18:21:27.495,-231.0,-940.0,313.0,-5.0,1.0,5.0,182,162,153,163,168
2025-02-25 18:21:27.499,-236.0,-937.0,335.0,-9.0,3.0,5.0,178,162,152,159,168
2025-02-25 18:21:27.507,-232.0,-933.0,327.0,-11.0,5.0,5.0,180,164,156,163,171
2025-02-25 18:21:27.511,-225.0,-933.0,326.0,-16.0,6.0,5.0,184,161,155,163,171
2025-02-25 18:21:27.515,-236.0,-928.0,313.0,-16.0,6.0,5.0,177,159,153,157,167
2025-02-25 18:21:27.520,-235.0,-921.0,300.0,-16.0,6.0,5.0,178,160,154,160,168
2025-02-25 18:21:27.527,-247.0,-922.0,288.0,-14.0,4.0,5.0,180,163,155,163,169
2025-02-25 18:21:27.532,-259.0,-925.0,300.0,-11.0,3.0,4.0,180,163,155,164,171
2025-02-25 18:21:27.536,-250.0,-931.0,287.0,-8.0,2.0,5.0,176,159,148,159,166
2025-02-25 18:21:27.540,-252.0,-928.0,309.0,-6.0,-2.0,5.0,176,158,150,157,165
2025-02-25 18:21:27.548,-250.0,-925.0,300.0,-3.0,-2.0,4.0,179,164,154,163,171
2025-02-25 18:21:27.552,-243.0,-927.0,304.0,-3.0,-1.0,4.0,179,161,153,161,167
2025-02-25 18:21:27.556,-234.0,-930.0,303.0,-1.0,-1.0,3.0,179,158,150,159,166
2025-02-25 18:21:27.560,-235.0,-947.0,314.0,-1.0,-1.0,3.0,175,159,150,157,166
2025-02-25 18:21:27.568,-221.0,-951.0,310.0,0.0,0.0,3.0,181,163,154,163,170
2025-02-25 18:21:27.572,-222.0,-959.0,306.0,0.0,1.0,3.0,179,162,154,161,167
2025-02-25 18:21:27.577,-216.0,-954.0,284.0,0.0,0.0,3.0,175,157,148,156,165
2025-02-25 18:21:27.581,-217.0,-957.0,311.0,-3.0,1.0,3.0,179,163,156,164,170
2025-02-25 18:21:27.585,-217.0,-944.0,313.0,-2.0,3.0,3.0,179,161,154,161,168
2025-02-25 18:21:27.593,-214.0,-946.0,292.0,1.0,2.0,4.0,175,158,150,157,166
2025-02-25 18:21:27.597,-221.0,-957.0,317.0,-2.0,2.0,4.0,179,163,155,162,169
2025-02-25 18:21:27.602,-212.0,-941.0,306.0,-3.0,5.0,4.0,181,162,156,164,172
2025-02-25 18:21:27.605,-236.0,-938.0,291.0,-5.0,2.0,3.0,176,161,151,159,166
2025-02-25 18:21:27.613,-224.0,-964.0,312.0,-4.0,2.0,4.0,175,159,149,158,167
2025-02-25 18:21:27.617,-198.0,-952.0,324.0,-4.0,1.0,4.0,182,165,157,166,173
2025-02-25 18:21:27.622,-208.0,-933.0,309.0,-6.0,1.0,3.0,181,163,157,163,172
2025-02-25 18:21:27.626,-228.0,-924.0,231.0,-8.0,1.0,2.0,178,159,150,159,166
2025-02-25 18:21:27.634,-211.0,-923.0,258.0,-4.0,0.0,2.0,180,162,153,160,168
2025-02-25 18:21:27.638,-198.0,-921.0,285.0,-2.0,3.0,2.0,181,165,157,166,171
2025-02-25 18:21:27.642,-211.0,-940.0,253.0,-2.0,-3.0,3.0,184,166,156,165,175
2025-02-25 18:21:27.646,-209.0,-941.0,333.0,-1.0,-1.0,5.0,180,161,159,162,168
2025-02-25 18:21:27.654,-219.0,-933.0,342.0,0.0,-3.0,5.0,181,163,154,162,170
2025-02-25 18:21:27.659,-231.0,-942.0,335.0,-3.0,-1.0,6.0,196,177,175,180,186
2025-02-25 18:21:27.662,-225.0,-956.0,297.0,-2.0,-4.0,7.0,209,194,183,187,198
2025-02-25 18:21:27.667,-243.0,-950.0,322.0,1.0,-3.0,7.0,211,193,185,195,200
2025-02-25 18:21:27.674,-245.0,-961.0,301.0,0.0,-5.0,7.0,224,207,199,208,217
2025-02-25 18:21:27.679,-243.0,-957.0,370.0,-3.0,-2.0,7.0,239,222,214,224,227
2025-02-25 18:21:27.683,-250.0,-946.0,335.0,1.0,-2.0,6.0,186,169,161,172,177
2025-02-25 18:21:27.687,-242.0,-952.0,350.0,-6.0,3.0,5.0,172,158,148,157,163
2025-02-25 18:21:27.695,-244.0,-934.0,289.0,-8.0,-1.0,4.0,176,160,152,160,169
2025-02-25 18:21:27.699,-233.0,-965.0,310.0,-10.0,-2.0,4.0,177,159,152,160,166
2025-02-25 18:21:27.704,-231.0,-929.0,283.0,-16.0,-4.0,3.0,170,154,143,154,161
2025-02-25 18:21:27.708,-228.0,-927.0,298.0,-17.0,-3.0,2.0,168,149,142,151,157
2025-02-25 18:21:27.716,-242.0,-937.0,297.0,-19.0,-2.0,1.0,167,148,138,148,156
2025-02-25 18:21:27.720,-236.0,-912.0,315.0,-16.0,-3.0,0.0,171,149,140,152,159
2025-02-25 18:21:27.724,-226.0,-957.0,293.0,-10.0,-8.0,1.0,162,144,136,146,151
2025-02-25 18:21:27.728,-211.0,-940.0,342.0,-10.0,-8.0,0.0,156,136,128,137,146
2025-02-25 18:21:27.736,-214.0,-944.0,297.0,-7.0,-11.0,1.0,157,139,132,144,149
2025-02-25 18:21:27.740,-229.0,-953.0,293.0,-2.0,-15.0,1.0,167,148,138,147,155
2025-02-25 18:21:27.745,-219.0,-945.0,322.0,1.0,-14.0,2.0,171,155,144,154,162
2025-02-25 18:21:27.753,-216.0,-934.0,361.0,0.0,-11.0,2.0,207,190,182,189,197
2025-02-25 18:21:27.757,-221.0,-944.0,344.0,-1.0,-7.0,1.0,229,210,202,213,219
2025-02-25 18:21:27.761,-222.0,-953.0,317.0,-4.0,-7.0,1.0,244,226,219,229,236
2025-02-25 18:21:27.765,-211.0,-976.0,312.0,-5.0,-9.0,3.0,228,208,200,211,217
2025-02-25 18:21:27.773,-210.0,-982.0,298.0,-11.0,-10.0,4.0,210,191,182,193,199
2025-02-25 18:21:27.777,-207.0,-968.0,325.0,-20.0,-9.0,4.0,200,179,171,184,189
2025-02-25 18:21:27.782,-203.0,-973.0,332.0,-24.0,-7.0,4.0,191,172,162,173,181
2025-02-25 18:21:27.786,-214.0,-972.0,306.0,-25.0,-7.0,5.0,180,162,153,164,172
2025-02-25 18:21:27.794,-209.0,-991.0,321.0,-25.0,-7.0,6.0,192,171,163,175,182
2025-02-25 18:21:27.798,-228.0,-982.0,327.0,-27.0,-7.0,7.0,198,176,167,180,188
2025-02-25 18:21:27.802,-202.0,-1007.0,329.0,-27.0,-7.0,9.0,149,125,116,131,138
2025-02-25 18:21:27.810,-189.0,-1037.0,360.0,-28.0,-7.0,10.0,148,124,116,130,136
2025-02-25 18:21:27.814,-198.0,-1027.0,345.0,-27.0,-7.0,9.0,151,129,119,133,142
2025-02-25 18:21:27.818,-203.0,-1043.0,352.0,-22.0,-7.0,10.0,159,134,125,137,147
2025-02-25 18:21:27.826,-195.0,-1043.0,346.0,-23.0,-5.0,11.0,156,129,121,136,142
2025-02-25 18:21:27.830,-211.0,-1036.0,312.0,-22.0,-3.0,11.0,152,127,120,135,141
2025-02-25 18:21:27.835,-196.0,-1061.0,309.0,-23.0,-3.0,12.0,163,136,128,141,149
2025-02-25 18:21:27.839,-195.0,-1058.0,372.0,-26.0,12.0,8.0,163,131,129,145,150
2025-02-25 18:21:27.847,-236.0,-848.0,698.0,-36.0,49.0,-4.0,154,116,115,134,141
2025-02-25 18:21:27.851,-259.0,-994.0,572.0,-27.0,60.0,3.0,156,112,116,139,141
2025-02-25 18:21:27.856,-378.0,-1046.0,417.0,-18.0,67.0,5.0,173,122,129,152,151
2025-02-25 18:21:27.863,-371.0,-1067.0,457.0,-9.0,75.0,10.0,177,124,134,157,156
2025-02-25 18:21:27.867,-361.0,-1115.0,377.0,-11.0,82.0,27.0,179,126,141,166,158
2025-02-25 18:21:27.871,-415.0,-1111.0,290.0,-19.0,75.0,44.0,188,129,146,167,156
2025-02-25 18:21:27.880,-361.0,-1074.0,686.0,-36.0,99.0,49.0,167,97,120,141,125
2025-02-25 18:21:27.884,-268.0,-1075.0,438.0,-38.0,136.0,53.0,159,91,110,130,114
2025-02-25 18:21:27.888,-230.0,-1085.0,440.0,-43.0,153.0,51.0,163,94,112,130,111
2025-02-25 18:21:27.895,-191.0,-1001.0,490.0,-35.0,173.0,45.0,160,90,105,125,105
2025-02-25 18:21:27.900,-189.0,-1098.0,333.0,-43.0,180.0,47.0,157,83,104,120,97
2025-02-25 18:21:27.904,-147.0,-1104.0,276.0,-39.0,180.0,51.0,152,76,97,110,89
2025-02-25 18:21:27.908,-230.0,-938.0,220.0,-54.0,178.0,46.0,154,74,96,106,85
2025-02-25 18:21:27.916,-247.0,-903.0,272.0,-62.0,189.0,49.0,150,72,94,102,80
2025-02-25 18:21:27.920,-240.0,-977.0,278.0,-81.0,209.0,52.0,151,73,94,99,78
2025-02-25 18:21:27.924,-206.0,-863.0,310.0,-82.0,221.0,60.0,150,69,90,94,74
2025-02-25 18:21:27.929,-204.0,-953.0,223.0,-102.0,229.0,62.0,156,75,97,99,79
2025-02-25 18:21:27.937,-152.0,-815.0,131.0,-105.0,219.0,55.0,183,104,125,127,107
2025-02-25 18:21:27.941,-208.0,-960.0,56.0,-113.0,200.0,50.0,169,91,112,113,92
2025-02-25 18:21:27.945,-271.0,-873.0,76.0,-119.0,193.0,46.0,181,103,122,125,106
2025-02-25 18:21:27.954,-284.0,-932.0,39.0,-127.0,194.0,52.0,193,116,134,135,115
2025-02-25 18:21:27.958,-285.0,-881.0,-57.0,-141.0,202.0,54.0,189,112,130,132,112
2025-02-25 18:21:27.962,-361.0,-926.0,24.0,-183.0,202.0,58.0,191,119,135,135,115
2025-02-25 18:21:27.970,-423.0,-968.0,-37.0,-205.0,204.0,59.0,197,125,142,143,122
2025-02-25 18:21:27.974,-341.0,-949.0,-102.0,-213.0,187.0,64.0,154,78,97,96,77
2025-02-25 18:21:27.978,-312.0,-965.0,-204.0,-208.0,150.0,71.0,157,82,101,102,82
2025-02-25 18:21:27.982,-312.0,-989.0,-253.0,-167.0,125.0,68.0,142,68,86,89,66
2025-02-25 18:21:27.990,-375.0,-964.0,-136.0,-119.0,84.0,63.0,139,66,84,87,67
2025-02-25 18:21:27.994,-297.0,-776.0,-186.0,-76.0,40.0,47.0,144,70,92,95,72
2025-02-25 18:21:27.999,-403.0,-733.0,-418.0,-68.0,9.0,40.0,144,74,92,97,74
2025-02-25 18:21:28.003,-428.0,-988.0,-334.0,-57.0,1.0,44.0,142,75,91,97,73
2025-02-25 18:21:28.011,-427.0,-1042.0,-137.0,-60.0,-3.0,41.0,144,75,91,98,73
2025-02-25 18:21:28.015,-450.0,-982.0,-84.0,-56.0,-5.0,36.0,145,77,95,100,75
2025-02-25 18:21:28.019,-386.0,-982.0,-181.0,-55.0,-8.0,32.0,143,75,93,100,76
2025-02-25 18:21:28.023,-374.0,-984.0,-202.0,-54.0,-12.0,31.0,149,85,103,108,85
2025-02-25 18:21:28.031,-334.0,-996.0,-160.0,-52.0,-5.0,30.0,162,97,115,121,97
2025-02-25 18:21:28.035,-335.0,-1026.0,-181.0,-48.0,-2.0,31.0,161,97,113,123,97
2025-02-25 18:21:28.039,-331.0,-1013.0,-212.0,-44.0,1.0,32.0,169,108,125,130,107
2025-02-25 18:21:28.047,-346.0,-1052.0,-143.0,-34.0,2.0,34.0,169,107,124,129,108
2025-02-25 18:21:28.052,-377.0,-1007.0,-165.0,-26.0,4.0,37.0,164,102,121,124,101
2025-02-25 18:21:28.063,-385.0,-1000.0,-160.0,-23.0,8.0,39.0,172,112,128,134,111
2025-02-25 18:21:28.066,-371.0,-957.0,-151.0,-22.0,12.0,46.0,180,122,137,144,122
2025-02-25 18:21:28.068,-429.0,-926.0,-152.0,-21.0,14.0,50.0,179,121,138,145,123
2025-02-25 18:21:28.072,-441.0,-906.0,-169.0,-19.0,11.0,52.0,184,124,140,147,126
2025-02-25 18:21:28.077,-453.0,-878.0,-182.0,-18.0,9.0,54.0,193,136,151,159,137
2025-02-25 18:21:28.085,-459.0,-884.0,-172.0,-17.0,8.0,55.0,186,129,144,150,128
2025-02-25 18:21:28.089,-452.0,-870.0,-179.0,-15.0,8.0,57.0,187,131,146,154,130
2025-02-25 18:21:28.093,-469.0,-850.0,-179.0,-15.0,8.0,58.0,180,122,138,148,126
2025-02-25 18:21:28.101,-480.0,-827.0,-168.0,-15.0,7.0,59.0,185,127,142,149,127
2025-02-25 18:21:28.105,-478.0,-820.0,-174.0,-14.0,6.0,59.0,177,121,137,144,121
2025-02-25 18:21:28.109,-486.0,-805.0,-164.0,-10.0,6.0,58.0,180,122,138,146,124
2025-02-25 18:21:28.117,-503.0,-810.0,-162.0,-10.0,3.0,59.0,185,127,145,152,131
2025-02-25 18:21:28.122,-474.0,-785.0,-156.0,-10.0,5.0,60.0,183,128,146,152,131
2025-02-25 18:21:28.126,-486.0,-762.0,-124.0,-7.0,2.0,59.0,181,129,141,149,128
2025-02-25 18:21:28.130,-488.0,-733.0,-137.0,-7.0,3.0,59.0,179,124,138,147,124
2025-02-25 18:21:28.138,-481.0,-725.0,-116.0,-6.0,5.0,59.0,186,126,141,145,128
2025-02-25 18:21:28.142,-493.0,-708.0,-99.0,-6.0,3.0,58.0,190,134,149,158,137
2025-02-25 18:21:28.147,-469.0,-683.0,-82.0,-4.0,5.0,56.0,189,136,149,158,136
2025-02-25 18:21:28.151,-498.0,-651.0,-70.0,-4.0,8.0,53.0,186,128,146,152,131
2025-02-25 18:21:28.159,-502.0,-633.0,-70.0,-5.0,13.0,52.0,180,129,140,151,129
2025-02-25 18:21:28.162,-526.0,-592.0,-78.0,-3.0,14.0,50.0,194,138,152,160,140
2025-02-25 18:21:28.167,-558.0,-540.0,-80.0,-2.0,11.0,49.0,195,140,155,162,143
2025-02-25 18:21:28.174,-593.0,-482.0,-91.0,-1.0,13.0,49.0,202,147,163,168,149
2025-02-25 18:21:28.178,-608.0,-403.0,-90.0,-2.0,12.0,50.0,201,145,158,168,146
2025-02-25 18:21:28.183,-644.0,-372.0,-100.0,-1.0,10.0,51.0,202,149,163,170,148
2025-02-25 18:21:28.187,-703.0,-194.0,-123.0,-1.0,9.0,53.0,206,149,165,173,150
2025-02-25 18:21:28.195,-809.0,-79.0,-136.0,-5.0,12.0,54.0,201,147,161,169,148
2025-02-25 18:21:28.199,-855.0,127.0,-120.0,-4.0,10.0,54.0,203,151,163,173,151
2025-02-25 18:21:28.203,-930.0,232.0,-116.0,-4.0,7.0,52.0,198,143,159,166,146
2025-02-25 18:21:28.208,-994.0,443.0,-105.0,-2.0,9.0,46.0,207,153,168,175,156
2025-02-25 18:21:28.215,-1061.0,663.0,-51.0,4.0,22.0,32.0,197,144,160,170,150
2025-02-25 18:21:28.220,-1085.0,892.0,-1.0,22.0,29.0,8.0,207,154,168,177,158
2025-02-25 18:21:28.224,-1097.0,972.0,21.0,48.0,45.0,-9.0,206,150,163,172,151
2025-02-25 18:21:28.232,-1119.0,1227.0,48.0,80.0,65.0,-50.0,214,159,172,181,163
2025-02-25 18:21:28.236,-1112.0,1446.0,40.0,99.0,94.0,-99.0,211,159,170,181,159
2025-02-25 18:21:28.240,-1139.0,1619.0,4.0,132.0,119.0,-159.0,211,160,172,182,162
2025-02-25 18:21:28.248,-1121.0,1758.0,-87.0,161.0,128.0,-227.0,209,151,166,173,156
2025-02-25 18:21:28.252,-1093.0,1848.0,-222.0,183.0,140.0,-307.0,209,156,167,180,157
2025-02-25 18:21:28.257,-1037.0,1883.0,-401.0,194.0,143.0,-350.0,212,157,169,182,161
2025-02-25 18:21:28.265,-1009.0,1860.0,-557.0,192.0,125.0,-436.0,210,157,168,179,160
2025-02-25 18:21:28.269,-959.0,1692.0,-622.0,183.0,87.0,-509.0,215,160,171,185,165
2025-02-25 18:21:28.274,-809.0,1368.0,-720.0,170.0,35.0,-566.0,221,170,178,192,173
2025-02-25 18:21:28.281,-470.0,937.0,-759.0,149.0,-22.0,-610.0,224,173,183,198,177
2025-02-25 18:21:28.286,7.0,352.0,-619.0,132.0,-73.0,-625.0,222,174,180,193,175
2025-02-25 18:21:28.293,491.0,-276.0,-432.0,122.0,-104.0,-609.0,225,170,180,194,174
2025-02-25 18:21:28.298,1057.0,-1166.0,-13.0,108.0,-120.0,-563.0,223,173,181,195,174
2025-02-25 18:21:28.302,1626.0,-1981.0,424.0,106.0,-119.0,-494.0,220,170,179,192,172
2025-02-25 18:21:28.310,1814.0,-2704.0,835.0,121.0,-107.0,-408.0,219,167,174,191,170
2025-02-25 18:21:28.314,2135.0,-3334.0,1291.0,158.0,-70.0,-314.0,217,162,174,188,168
2025-02-25 18:21:28.322,2414.0,-3814.0,1563.0,204.0,-17.0,-218.0,220,170,180,192,173
2025-02-25 18:21:28.326,2542.0,-4095.0,1670.0,268.0,40.0,-138.0,198,143,153,167,146
2025-02-25 18:21:28.331,2588.0,-4160.0,1712.0,315.0,90.0,-108.0,190,138,147,160,139
2025-02-25 18:21:28.338,2240.0,-4080.0,1446.0,314.0,119.0,-46.0,179,127,136,147,127
2025-02-25 18:21:28.342,2053.0,-3806.0,1316.0,288.0,177.0,4.0,165,107,122,132,112
2025-02-25 18:21:28.347,1777.0,-3308.0,1289.0,249.0,152.0,18.0,152,93,108,115,98
2025-02-25 18:21:28.355,1060.0,-2630.0,1125.0,192.0,124.0,45.0,168,108,125,131,114
2025-02-25 18:21:28.358,1498.0,-2240.0,1133.0,85.0,107.0,42.0,168,110,124,131,115
2025-02-25 18:21:28.363,869.0,-2041.0,817.0,-47.0,101.0,39.0,164,108,121,130,115
2025-02-25 18:21:28.371,856.0,-1979.0,611.0,-163.0,86.0,30.0,187,132,146,153,138
2025-02-25 18:21:28.376,811.0,-2003.0,231.0,-227.0,55.0,27.0,181,128,139,151,131
2025-02-25 18:21:28.380,782.0,-2203.0,38.0,-260.0,29.0,24.0,189,135,145,159,141
2025-02-25 18:21:28.388,774.0,-2375.0,-70.0,-262.0,9.0,35.0,184,129,139,153,134
2025-02-25 18:21:28.392,626.0,-2447.0,-168.0,-248.0,-38.0,57.0,179,127,138,153,131
2025-02-25 18:21:28.397,617.0,-2490.0,-260.0,-239.0,-30.0,97.0,175,123,133,147,128
2025-02-25 18:21:28.404,579.0,-2508.0,-232.0,-229.0,-22.0,125.0,176,122,132,147,128
2025-02-25 18:21:28.409,620.0,-2544.0,-271.0,-204.0,-29.0,157.0,178,124,132,147,129
2025-02-25 18:21:28.413,512.0,-2457.0,-204.0,-163.0,-54.0,169.0,177,123,134,149,130
2025-02-25 18:21:28.421,567.0,-2242.0,-67.0,-147.0,-61.0,198.0,184,130,140,154,136
2025-02-25 18:21:28.425,598.0,-2008.0,13.0,-131.0,-70.0,223.0,186,132,145,158,138
2025-02-25 18:21:28.429,565.0,-1787.0,58.0,-117.0,-75.0,243.0,190,137,148,160,143
2025-02-25 18:21:28.437,633.0,-1545.0,170.0,-105.0,-85.0,254.0,189,132,148,162,142
2025-02-25 18:21:28.441,529.0,-1382.0,168.0,-101.0,-73.0,267.0,205,153,163,177,157
2025-02-25 18:21:28.449,518.0,-1162.0,263.0,-97.0,-72.0,270.0,193,144,156,167,150
2025-02-25 18:21:28.453,442.0,-1001.0,245.0,-97.0,-71.0,274.0,193,143,152,162,147
2025-02-25 18:21:28.458,368.0,-895.0,197.0,-107.0,-81.0,275.0,200,148,159,167,151
2025-02-25 18:21:28.465,204.0,-788.0,158.0,-123.0,-91.0,280.0,199,145,156,164,152
2025-02-25 18:21:28.470,204.0,-729.0,114.0,-132.0,-86.0,277.0,202,148,159,168,155
2025-02-25 18:21:28.474,145.0,-693.0,145.0,-132.0,-90.0,269.0,200,147,159,167,153
2025-02-25 18:21:28.482,111.0,-625.0,89.0,-130.0,-88.0,266.0,202,147,160,169,154
2025-02-25 18:21:28.486,135.0,-633.0,106.0,-123.0,-85.0,264.0,196,142,153,165,147
2025-02-25 18:21:28.490,86.0,-597.0,105.0,-115.0,-84.0,266.0,194,141,153,164,146
2025-02-25 18:21:28.498,61.0,-580.0,118.0,-103.0,-74.0,268.0,191,135,151,162,143
2025-02-25 18:21:28.502,-7.0,-537.0,130.0,-90.0,-66.0,270.0,193,138,151,163,144
2025-02-25 18:21:28.507,-57.0,-463.0,120.0,-76.0,-55.0,269.0,192,136,150,162,143
2025-02-25 18:21:28.511,-135.0,-364.0,105.0,-70.0,-50.0,269.0,191,136,148,161,142
2025-02-25 18:21:28.519,-173.0,-226.0,80.0,-56.0,-34.0,268.0,192,138,148,160,143
2025-02-25 18:21:28.524,-222.0,-85.0,33.0,-50.0,-26.0,268.0,183,130,141,153,136
2025-02-25 18:21:28.528,-328.0,-14.0,-34.0,-47.0,-14.0,267.0,184,129,140,152,134
2025-02-25 18:21:28.535,-380.0,126.0,-77.0,-45.0,-7.0,262.0,195,141,150,164,145
2025-02-25 18:21:28.539,-457.0,268.0,-95.0,-45.0,-6.0,250.0,198,144,154,167,150
2025-02-25 18:21:28.543,-519.0,408.0,-140.0,-45.0,-2.0,237.0,193,138,148,161,142
2025-02-25 18:21:28.551,-552.0,532.0,-197.0,-49.0,2.0,222.0,190,135,146,158,140
2025-02-25 18:21:28.556,-627.0,657.0,-239.0,-51.0,9.0,204.0,190,135,146,159,141
2025-02-25 18:21:28.560,-723.0,724.0,-292.0,-55.0,9.0,197.0,199,142,154,166,148
2025-02-25 18:21:28.568,-819.0,854.0,-314.0,-52.0,-2.0,177.0,195,140,149,163,145
2025-02-25 18:21:28.572,-875.0,998.0,-365.0,-51.0,-12.0,159.0,192,138,148,162,144
2025-02-25 18:21:28.576,-944.0,1166.0,-394.0,-50.0,-13.0,144.0,190,131,146,160,139
2025-02-25 18:21:28.585,-968.0,1292.0,-403.0,-48.0,-11.0,132.0,189,132,143,157,140
2025-02-25 18:21:28.588,-1042.0,1444.0,-389.0,-41.0,-18.0,119.0,186,127,137,155,136
2025-02-25 18:21:28.592,-1052.0,1534.0,-423.0,-29.0,-34.0,110.0,186,129,136,156,136
2025-02-25 18:21:28.601,-1150.0,1490.0,-249.0,-6.0,-38.0,92.0,187,129,136,155,137
2025-02-25 18:21:28.605,-1101.0,1690.0,-196.0,24.0,-40.0,62.0,189,129,137,159,139
2025-02-25 18:21:28.609,-1112.0,1805.0,-122.0,64.0,-28.0,14.0,189,130,137,156,138
2025-02-25 18:21:28.617,-986.0,2019.0,39.0,115.0,-7.0,-49.0,179,121,128,149,131
2025-02-25 18:21:28.621,-966.0,2199.0,48.0,138.0,21.0,-123.0,177,119,127,145,127
2025-02-25 18:21:28.626,-959.0,2321.0,13.0,183.0,36.0,-192.0,173,112,122,143,126
2025-02-25 18:21:28.634,-1025.0,2270.0,-45.0,214.0,55.0,-225.0,174,114,123,142,124
2025-02-25 18:21:28.638,-1044.0,2253.0,-90.0,234.0,67.0,-286.0,178,119,126,146,127
2025-02-25 18:21:28.642,-1002.0,2116.0,-133.0,246.0,62.0,-352.0,176,119,128,146,128
2025-02-25 18:21:28.650,-893.0,1977.0,-157.0,240.0,46.0,-420.0,176,118,128,146,127
2025-02-25 18:21:28.654,-786.0,1845.0,-179.0,231.0,28.0,-491.0,177,118,127,145,127
2025-02-25 18:21:28.659,-617.0,1712.0,-184.0,226.0,3.0,-567.0,176,119,126,145,128
2025-02-25 18:21:28.666,-317.0,1468.0,-145.0,210.0,-37.0,-649.0,175,115,125,144,125
2025-02-25 18:21:28.670,-2.0,1145.0,-87.0,182.0,-56.0,-714.0,172,112,120,140,120
2025-02-25 18:21:28.678,250.0,627.0,49.0,146.0,-100.0,-748.0,171,112,121,137,118
2025-02-25 18:21:28.682,812.0,186.0,291.0,105.0,-129.0,-746.0,170,111,120,140,119
2025-02-25 18:21:28.686,1492.0,-860.0,693.0,77.0,-138.0,-701.0,175,117,127,147,126
2025-02-25 18:21:28.695,1947.0,-2138.0,865.0,78.0,-132.0,-599.0,177,118,129,147,127
2025-02-25 18:21:28.699,2354.0,-3550.0,1225.0,121.0,-116.0,-475.0,180,123,134,152,131
2025-02-25 18:21:28.704,2774.0,-5087.0,1549.0,213.0,-97.0,-317.0,173,116,129,146,125
2025-02-25 18:21:28.711,2962.0,-6255.0,1860.0,325.0,-72.0,-168.0,174,116,130,146,125
2025-02-25 18:21:28.715,3192.0,-6882.0,1867.0,367.0,-18.0,-38.0,178,115,129,140,124
2025-02-25 18:21:28.723,3055.0,-6943.0,1698.0,449.0,58.0,71.0,173,115,131,140,122
2025-02-25 18:21:28.728,2578.0,-6043.0,1306.0,482.0,134.0,152.0,163,101,119,125,109
2025-02-25 18:21:28.732,2136.0,-4433.0,1105.0,394.0,320.0,207.0,163,101,123,121,112
2025-02-25 18:21:28.740,1942.0,-3026.0,942.0,319.0,299.0,230.0,167,104,125,125,115
2025-02-25 18:21:28.744,625.0,-2640.0,1021.0,181.0,160.0,213.0,167,107,130,127,116
2025-02-25 18:21:28.748,1077.0,-1396.0,959.0,36.0,61.0,177.0,208,150,168,168,156
2025-02-25 18:21:28.756,344.0,-1221.0,639.0,-157.0,93.0,165.0,180,122,142,145,133
2025-02-25 18:21:28.761,469.0,-1210.0,336.0,-274.0,61.0,141.0,188,132,150,154,139
2025-02-25 18:21:28.765,379.0,-1865.0,60.0,-284.0,46.0,144.0,183,127,138,150,136
2025-02-25 18:21:28.772,480.0,-2375.0,133.0,-288.0,8.0,124.0,190,136,151,160,142
2025-02-25 18:21:28.777,226.0,-2419.0,-143.0,-246.0,-53.0,133.0,197,140,154,165,148
2025-02-25 18:21:28.781,80.0,-2527.0,-167.0,-207.0,-47.0,150.0,206,150,160,174,157
2025-02-25 18:21:28.789,207.0,-2481.0,-143.0,-171.0,12.0,164.0,205,146,158,169,154
2025-02-25 18:21:28.793,204.0,-2314.0,-71.0,-136.0,22.0,172.0,212,151,165,178,160
2025-02-25 18:21:28.797,-82.0,-2171.0,163.0,-119.0,-19.0,190.0,207,151,164,179,160
2025-02-25 18:21:28.805,34.0,-1886.0,111.0,-110.0,-33.0,202.0,208,151,166,179,162
2025-02-25 18:21:28.809,6.0,-1521.0,204.0,-108.0,-81.0,206.0,181,124,136,152,133
2025-02-25 18:21:28.814,-64.0,-1224.0,277.0,-111.0,-98.0,204.0,180,124,137,152,134
2025-02-25 18:21:28.821,-42.0,-1048.0,271.0,-115.0,-124.0,206.0,181,123,136,151,134
2025-02-25 18:21:28.826,-35.0,-822.0,211.0,-130.0,-115.0,202.0,171,111,124,134,120
2025-02-25 18:21:28.834,-22.0,-745.0,414.0,-127.0,-103.0,194.0,169,110,122,131,119
2025-02-25 18:21:28.838,-55.0,-709.0,491.0,-126.0,-101.0,178.0,181,124,137,145,132
2025-02-25 18:21:28.843,-129.0,-630.0,487.0,-130.0,-114.0,168.0,172,114,126,137,126
2025-02-25 18:21:28.850,-157.0,-620.0,400.0,-133.0,-118.0,164.0,173,114,129,138,123
2025-02-25 18:21:28.855,-153.0,-530.0,400.0,-135.0,-130.0,163.0,172,114,126,139,124
2025-02-25 18:21:28.859,-174.0,-573.0,358.0,-137.0,-123.0,167.0,173,113,127,139,124
2025-02-25 18:21:28.867,-195.0,-547.0,352.0,-133.0,-112.0,172.0,171,111,122,136,120
2025-02-25 18:21:28.871,-198.0,-514.0,308.0,-130.0,-90.0,182.0,168,107,120,136,118
2025-02-25 18:21:28.879,-307.0,-482.0,274.0,-120.0,-87.0,186.0,172,112,125,141,123
2025-02-25 18:21:28.883,-280.0,-438.0,337.0,-115.0,-76.0,191.0,165,104,117,132,113
2025-02-25 18:21:28.888,-374.0,-338.0,331.0,-105.0,-68.0,192.0,165,104,119,134,116
2025-02-25 18:21:28.895,-318.0,-213.0,293.0,-110.0,-49.0,189.0,171,111,124,140,121
2025-02-25 18:21:28.900,-410.0,-149.0,287.0,-117.0,-27.0,191.0,177,115,130,144,126
2025-02-25 18:21:28.904,-518.0,-101.0,303.0,-118.0,-26.0,187.0,173,112,127,142,124
2025-02-25 18:21:28.912,-540.0,96.0,330.0,-120.0,-33.0,178.0,173,113,127,140,124
2025-02-25 18:21:28.916,-559.0,88.0,247.0,-121.0,-19.0,172.0,173,110,124,136,121
2025-02-25 18:21:28.921,-598.0,165.0,154.0,-121.0,-10.0,168.0,168,107,119,133,117
2025-02-25 18:21:28.928,-653.0,193.0,141.0,-122.0,0.0,166.0,165,104,117,130,114
2025-02-25 18:21:28.932,-676.0,177.0,68.0,-118.0,4.0,163.0,174,110,126,137,122
2025-02-25 18:21:28.937,-753.0,195.0,92.0,-114.0,3.0,164.0,181,120,133,145,128
2025-02-25 18:21:28.941,-781.0,222.0,14.0,-109.0,7.0,162.0,174,111,125,135,120
2025-02-25 18:21:28.949,-771.0,289.0,1.0,-97.0,9.0,158.0,167,107,120,133,116
2025-02-25 18:21:28.953,-802.0,318.0,10.0,-96.0,11.0,157.0,168,106,118,131,115
2025-02-25 18:21:28.957,-835.0,424.0,15.0,-84.0,22.0,154.0,178,115,130,145,126
2025-02-25 18:21:28.965,-859.0,525.0,9.0,-75.0,31.0,152.0,169,110,127,138,121
2025-02-25 18:21:28.969,-854.0,632.0,33.0,-64.0,34.0,145.0,169,106,120,135,116
2025-02-25 18:21:28.973,-882.0,714.0,19.0,-45.0,33.0,139.0,166,103,119,133,116
2025-02-25 18:21:28.977,-911.0,835.0,14.0,-24.0,35.0,125.0,178,113,126,143,126
2025-02-25 18:21:28.985,-940.0,1018.0,35.0,-3.0,48.0,108.0,177,112,124,142,123
2025-02-25 18:21:28.989,-988.0,1224.0,37.0,9.0,61.0,86.0,174,106,117,138,118
2025-02-25 18:21:28.994,-1032.0,1511.0,147.0,31.0,67.0,44.0,172,105,116,134,116
2025-02-25 18:21:28.998,-1102.0,1650.0,191.0,61.0,72.0,18.0,181,113,123,141,124
2025-02-25 18:21:29.006,-1098.0,1837.0,211.0,91.0,80.0,-37.0,179,118,117,139,118
2025-02-25 18:21:29.010,-1224.0,1894.0,81.0,106.0,90.0,-87.0,178,109,118,139,121
2025-02-25 18:21:29.014,-1228.0,2075.0,12.0,144.0,98.0,-148.0,181,110,123,140,124
2025-02-25 18:21:29.022,-1206.0,2185.0,-35.0,177.0,96.0,-210.0,176,104,116,136,121
2025-02-25 18:21:29.027,-1184.0,2222.0,-3.0,207.0,86.0,-266.0,177,103,114,133,117
2025-02-25 18:21:29.031,-1201.0,2178.0,-41.0,236.0,70.0,-292.0,178,104,113,133,118
2025-02-25 18:21:29.039,-1100.0,2050.0,-114.0,246.0,51.0,-347.0,188,114,124,144,126
2025-02-25 18:21:29.043,-931.0,1896.0,-87.0,254.0,31.0,-395.0,184,111,122,140,122
2025-02-25 18:21:29.051,-714.0,1700.0,-116.0,258.0,13.0,-442.0,185,110,122,140,122
2025-02-25 18:21:29.055,-428.0,1509.0,-100.0,259.0,-5.0,-496.0,184,107,121,138,121
2025-02-25 18:21:29.059,-125.0,1316.0,-118.0,247.0,-31.0,-545.0,187,110,122,141,124
2025-02-25 18:21:29.068,140.0,1072.0,-160.0,236.0,-53.0,-587.0,180,97,114,135,121
2025-02-25 18:21:29.072,260.0,879.0,-190.0,217.0,-68.0,-628.0,181,103,115,136,116
2025-02-25 18:21:29.076,598.0,647.0,-139.0,169.0,-100.0,-645.0,185,108,119,137,120
2025-02-25 18:21:29.084,844.0,450.0,-91.0,123.0,-136.0,-657.0,185,107,118,138,120
2025-02-25 18:21:29.088,1267.0,-295.0,-149.0,116.0,-191.0,-633.0,187,108,120,141,122
2025-02-25 18:21:29.093,1697.0,-1161.0,-37.0,117.0,-244.0,-594.0,190,111,121,142,121
2025-02-25 18:21:29.100,2014.0,-2102.0,188.0,118.0,-285.0,-549.0,189,110,123,142,123
2025-02-25 18:21:29.105,2243.0,-3319.0,773.0,105.0,-281.0,-494.0,192,110,122,137,123
2025-02-25 18:21:29.113,2798.0,-4701.0,1351.0,114.0,-253.0,-404.0,191,108,123,140,123
2025-02-25 18:21:29.117,3456.0,-5608.0,1905.0,114.0,-202.0,-301.0,193,112,128,142,127
2025-02-25 18:21:29.125,3659.0,-6273.0,2181.0,135.0,-137.0,-203.0,192,109,126,136,119
2025-02-25 18:21:29.129,3334.0,-6400.0,2027.0,198.0,7.0,-115.0,161,75,93,93,89
2025-02-25 18:21:29.134,2925.0,-5926.0,1789.0,266.0,107.0,17.0,243,164,184,179,177
2025-02-25 18:21:29.141,3168.0,-4740.0,1407.0,433.0,126.0,57.0,182,94,115,111,106
2025-02-25 18:21:29.146,2047.0,-3386.0,1476.0,340.0,192.0,94.0,163,71,93,93,82
2025-02-25 18:21:29.150,2479.0,-3239.0,834.0,168.0,239.0,112.0,186,99,120,121,109
2025-02-25 18:21:29.157,1214.0,-2079.0,632.0,-31.0,284.0,173.0,187,100,118,123,112
2025-02-25 18:21:29.162,755.0,-1857.0,121.0,-181.0,186.0,191.0,182,93,111,115,103
2025-02-25 18:21:29.166,339.0,-1602.0,-274.0,-243.0,60.0,195.0,187,102,115,122,109
2025-02-25 18:21:29.174,110.0,-2342.0,-510.0,-248.0,4.0,199.0,186,98,113,119,108
2025-02-25 18:21:29.178,192.0,-2274.0,-670.0,-265.0,14.0,199.0,186,97,113,123,107
2025-02-25 18:21:29.183,35.0,-2309.0,-504.0,-147.0,0.0,201.0,182,96,112,122,107
2025-02-25 18:21:29.190,208.0,-2531.0,-233.0,-144.0,15.0,188.0,188,101,115,127,112
2025-02-25 18:21:29.195,414.0,-2507.0,-174.0,-150.0,51.0,190.0,189,102,118,130,115
2025-02-25 18:21:29.199,375.0,-2452.0,-59.0,-144.0,48.0,192.0,188,101,117,128,114
2025-02-25 18:21:29.207,359.0,-2155.0,255.0,-151.0,25.0,224.0,188,100,112,125,109
2025-02-25 18:21:29.211,507.0,-1865.0,161.0,-148.0,-5.0,229.0,184,96,109,122,107
2025-02-25 18:21:29.216,392.0,-1558.0,478.0,-99.0,-8.0,238.0,188,100,115,127,110
2025-02-25 18:21:29.223,565.0,-1400.0,475.0,-113.0,-44.0,240.0,184,95,111,123,107
2025-02-25 18:21:29.228,497.0,-1155.0,254.0,-109.0,-47.0,247.0,185,99,111,124,109
2025-02-25 18:21:29.232,462.0,-1087.0,501.0,-107.0,-48.0,243.0,181,94,108,120,106
2025-02-25 18:21:29.239,427.0,-754.0,379.0,-63.0,-60.0,234.0,185,96,110,120,107
2025-02-25 18:21:29.243,352.0,-732.0,507.0,-48.0,-87.0,225.0,182,95,108,116,104
2025-02-25 18:21:29.248,361.0,-670.0,452.0,-43.0,-96.0,228.0,178,91,103,111,103
2025-02-25 18:21:29.252,260.0,-625.0,472.0,-70.0,-93.0,231.0,179,88,105,111,100
2025-02-25 18:21:29.260,185.0,-504.0,269.0,-95.0,-77.0,234.0,184,96,110,117,106
2025-02-25 18:21:29.264,71.0,-544.0,299.0,-121.0,-69.0,234.0,182,96,110,117,104
2025-02-25 18:21:29.269,-72.0,-504.0,250.0,-121.0,-72.0,232.0,182,94,109,119,105
2025-02-25 18:21:29.276,-107.0,-477.0,196.0,-128.0,-67.0,229.0,178,89,106,116,103
2025-02-25 18:21:29.281,-219.0,-431.0,248.0,-136.0,-36.0,224.0,180,91,107,119,102
2025-02-25 18:21:29.285,-159.0,-397.0,325.0,-154.0,-19.0,221.0,179,88,105,116,101
2025-02-25 18:21:29.292,-229.0,-276.0,337.0,-175.0,11.0,223.0,181,93,110,122,105
2025-02-25 18:21:29.297,-215.0,-135.0,336.0,-176.0,43.0,219.0,186,98,112,124,108
2025-02-25 18:21:29.301,-283.0,-102.0,378.0,-178.0,60.0,215.0,183,94,110,122,106
2025-02-25 18:21:29.309,-316.0,20.0,381.0,-193.0,68.0,215.0,180,92,105,118,102
2025-02-25 18:21:29.314,-387.0,132.0,278.0,-172.0,65.0,204.0,178,90,105,116,101
2025-02-25 18:21:29.318,-520.0,161.0,192.0,-116.0,60.0,194.0,184,96,112,120,106
2025-02-25 18:21:29.322,-505.0,180.0,176.0,-63.0,46.0,176.0,182,96,107,117,105
2025-02-25 18:21:29.330,-595.0,307.0,159.0,-48.0,27.0,157.0,181,92,107,118,102
2025-02-25 18:21:29.334,-666.0,350.0,127.0,-27.0,23.0,146.0,179,91,105,116,101
2025-02-25 18:21:29.339,-756.0,395.0,32.0,-9.0,20.0,139.0,178,91,106,116,101
2025-02-25 18:21:29.343,-775.0,460.0,31.0,0.0,10.0,124.0,182,92,108,121,103
2025-02-25 18:21:29.350,-857.0,504.0,-19.0,4.0,4.0,106.0,183,95,107,118,104
2025-02-25 18:21:29.354,-943.0,544.0,-69.0,22.0,7.0,88.0,177,90,105,116,98
2025-02-25 18:21:29.359,-974.0,628.0,-64.0,19.0,11.0,83.0,184,96,108,121,105
2025-02-25 18:21:29.363,-1036.0,737.0,-72.0,11.0,11.0,67.0,181,93,105,120,103
2025-02-25 18:21:29.371,-1095.0,769.0,-143.0,13.0,17.0,58.0,178,89,105,119,101
2025-02-25 18:21:29.375,-1135.0,804.0,-187.0,1.0,26.0,50.0,180,88,101,117,97
2025-02-25 18:21:29.379,-1073.0,835.0,-139.0,-21.0,39.0,35.0,182,93,106,122,105
2025-02-25 18:21:29.383,-1118.0,918.0,-107.0,-18.0,38.0,20.0,175,92,105,121,105
2025-02-25 18:21:29.391,-1073.0,1043.0,84.0,-7.0,54.0,-6.0,178,89,102,116,99
2025-02-25 18:21:29.395,-1072.0,1054.0,115.0,5.0,61.0,-17.0,179,89,101,115,101
2025-02-25 18:21:29.400,-998.0,1087.0,119.0,15.0,65.0,-40.0,180,92,103,118,103
2025-02-25 18:21:29.407,-1048.0,1075.0,93.0,29.0,60.0,-57.0,179,92,102,117,103
2025-02-25 18:21:29.412,-1049.0,1060.0,66.0,41.0,50.0,-78.0,178,90,102,115,100
2025-02-25 18:21:29.416,-1096.0,1042.0,-13.0,52.0,46.0,-97.0,178,91,103,118,101
2025-02-25 18:21:29.421,-1146.0,1063.0,-89.0,78.0,31.0,-106.0,180,89,100,115,98
2025-02-25 18:21:29.428,-1168.0,1069.0,-129.0,99.0,12.0,-128.0,179,89,101,118,101
2025-02-25 18:21:29.433,-1160.0,1116.0,-141.0,102.0,-3.0,-154.0,180,90,102,118,103
2025-02-25 18:21:29.437,-1163.0,1209.0,-131.0,102.0,-11.0,-181.0,179,89,103,117,101
2025-02-25 18:21:29.445,-1158.0,1219.0,-249.0,118.0,-20.0,-210.0,177,88,101,118,100
2025-02-25 18:21:29.449,-1085.0,1210.0,-238.0,116.0,-23.0,-239.0,175,88,99,115,98
2025-02-25 18:21:29.457,-1042.0,1155.0,-277.0,125.0,-26.0,-276.0,174,86,99,120,98
2025-02-25 18:21:29.461,-903.0,1105.0,-264.0,119.0,-18.0,-292.0,176,86,98,118,99
2025-02-25 18:21:29.465,-839.0,1003.0,-251.0,125.0,-19.0,-326.0,178,90,100,118,104
2025-02-25 18:21:29.473,-576.0,882.0,-248.0,123.0,-33.0,-363.0,181,90,102,119,103
2025-02-25 18:21:29.477,-362.0,718.0,-173.0,122.0,-48.0,-397.0,181,92,104,121,105
2025-02-25 18:21:29.481,-176.0,543.0,-167.0,120.0,-54.0,-427.0,179,91,103,119,101
2025-02-25 18:21:29.489,23.0,334.0,-100.0,110.0,-72.0,-447.0,179,89,101,120,101
2025-02-25 18:21:29.493,118.0,119.0,-71.0,96.0,-78.0,-464.0,176,88,101,117,98
2025-02-25 18:21:29.497,407.0,-5.0,46.0,76.0,-99.0,-470.0,180,90,102,118,102
2025-02-25 18:21:29.502,696.0,-408.0,130.0,72.0,-127.0,-477.0,180,89,102,119,102
2025-02-25 18:21:29.509,1116.0,-959.0,266.0,68.0,-139.0,-473.0,179,89,100,117,101
2025-02-25 18:21:29.514,1588.0,-1764.0,434.0,58.0,-135.0,-454.0,178,88,101,118,100
2025-02-25 18:21:29.518,1822.0,-2727.0,703.0,56.0,-126.0,-417.0,177,86,103,117,98
2025-02-25 18:21:29.526,2186.0,-3818.0,888.0,73.0,-106.0,-359.0,177,85,101,115,99
2025-02-25 18:21:29.530,2441.0,-4309.0,1119.0,88.0,-82.0,-325.0,176,85,102,115,98
2025-02-25 18:21:29.535,2642.0,-4992.0,1220.0,117.0,-39.0,-237.0,182,94,111,116,104
2025-02-25 18:21:29.543,2722.0,-5485.0,1027.0,181.0,116.0,-155.0,181,90,108,112,100
2025-02-25 18:21:29.547,2939.0,-5565.0,1629.0,335.0,83.0,-47.0,180,91,111,110,101
2025-02-25 18:21:29.551,2666.0,-5235.0,1122.0,392.0,53.0,18.0,181,88,109,107,99
2025-02-25 18:21:29.559,2563.0,-4244.0,962.0,299.0,98.0,75.0,180,87,108,105,97
2025-02-25 18:21:29.563,2323.0,-3451.0,677.0,117.0,157.0,146.0,180,89,106,106,94
2025-02-25 18:21:29.568,1438.0,-3169.0,436.0,2.0,191.0,167.0,181,91,110,108,98
2025-02-25 18:21:29.575,1460.0,-2703.0,252.0,-114.0,86.0,192.0,182,89,110,110,98
2025-02-25 18:21:29.580,747.0,-2107.0,-211.0,-144.0,30.0,210.0,180,90,106,112,99
2025-02-25 18:21:29.584,615.0,-2234.0,-237.0,-185.0,33.0,216.0,178,92,103,110,98
2025-02-25 18:21:29.592,512.0,-2161.0,-456.0,-175.0,24.0,205.0,176,86,101,111,97
2025-02-25 18:21:29.596,391.0,-2223.0,-260.0,-157.0,-1.0,200.0,178,87,105,113,98
2025-02-25 18:21:29.600,225.0,-2189.0,-213.0,-165.0,14.0,194.0,180,92,107,116,102
2025-02-25 18:21:29.608,283.0,-2336.0,-195.0,-172.0,34.0,196.0,179,91,106,116,101
2025-02-25 18:21:29.613,179.0,-2349.0,-207.0,-156.0,0.0,207.0,180,93,107,117,100
2025-02-25 18:21:29.617,302.0,-2133.0,117.0,-173.0,-17.0,219.0,180,92,105,118,102
2025-02-25 18:21:29.625,199.0,-1699.0,164.0,-128.0,-16.0,232.0,177,88,103,114,97
2025-02-25 18:21:29.629,154.0,-1533.0,191.0,-86.0,-5.0,234.0,177,87,100,114,98
2025-02-25 18:21:29.634,172.0,-1298.0,417.0,-80.0,-8.0,241.0,180,91,106,117,100
2025-02-25 18:21:29.638,75.0,-1063.0,299.0,-45.0,-29.0,241.0,180,91,105,119,102
2025-02-25 18:21:29.645,79.0,-824.0,452.0,-32.0,-60.0,240.0,179,89,101,114,99
2025-02-25 18:21:29.650,58.0,-603.0,432.0,-10.0,-57.0,235.0,178,88,100,112,98
2025-02-25 18:21:29.654,-36.0,-470.0,420.0,34.0,-68.0,230.0,177,85,99,110,96
2025-02-25 18:21:29.658,-66.0,-346.0,494.0,0.0,-63.0,232.0,181,91,105,113,102
2025-02-25 18:21:29.666,-125.0,-348.0,416.0,-2.0,-64.0,232.0,186,91,104,112,100
2025-02-25 18:21:29.669,-151.0,-354.0,401.0,-23.0,-63.0,233.0,177,87,103,111,98
2025-02-25 18:21:29.674,-252.0,-279.0,350.0,-30.0,-65.0,233.0,177,88,103,111,97
2025-02-25 18:21:29.681,-304.0,-261.0,268.0,-36.0,-68.0,234.0,182,90,103,113,103
2025-02-25 18:21:29.686,-370.0,-259.0,366.0,-41.0,-63.0,229.0,180,91,104,116,102
2025-02-25 18:21:29.690,-370.0,-101.0,302.0,-53.0,-39.0,222.0,179,88,106,118,100
2025-02-25 18:21:29.698,-334.0,-34.0,255.0,-86.0,-8.0,215.0,180,91,105,119,102
2025-02-25 18:21:29.702,-375.0,89.0,389.0,-131.0,11.0,202.0,177,87,102,114,98
2025-02-25 18:21:29.706,-378.0,162.0,376.0,-159.0,37.0,194.0,180,89,105,120,103
2025-02-25 18:21:29.711,-324.0,108.0,454.0,-200.0,61.0,179.0,179,90,104,119,102
2025-02-25 18:21:29.718,-435.0,124.0,424.0,-216.0,84.0,166.0,180,90,106,118,102
2025-02-25 18:21:29.724,-459.0,199.0,346.0,-247.0,97.0,165.0,176,87,100,115,100
2025-02-25 18:21:29.727,-621.0,197.0,242.0,-238.0,121.0,171.0,174,85,100,114,99
2025-02-25 18:21:29.735,-614.0,142.0,161.0,-190.0,114.0,172.0,179,89,105,117,102
2025-02-25 18:21:29.739,-656.0,74.0,124.0,-137.0,75.0,163.0,180,92,106,117,103
2025-02-25 18:21:29.744,-655.0,-24.0,148.0,-118.0,43.0,150.0,178,92,104,116,102
2025-02-25 18:21:29.748,-734.0,28.0,42.0,-92.0,31.0,142.0,177,88,103,114,99
2025-02-25 18:21:29.756,-714.0,-21.0,-24.0,-64.0,18.0,139.0,174,86,95,114,97
2025-02-25 18:21:29.760,-763.0,-38.0,-93.0,-40.0,-8.0,129.0,180,92,107,114,102
2025-02-25 18:21:29.764,-771.0,-19.0,-98.0,-29.0,-36.0,117.0,178,89,105,116,99
2025-02-25 18:21:29.768,-777.0,19.0,-148.0,19.0,-41.0,109.0,178,89,103,117,100
2025-02-25 18:21:29.776,-830.0,8.0,-57.0,52.0,-58.0,105.0,177,87,101,115,101
2025-02-25 18:21:29.780,-872.0,3.0,-65.0,77.0,-64.0,97.0,180,94,110,124,106
2025-02-25 18:21:29.784,-903.0,56.0,-175.0,83.0,-61.0,91.0,177,92,108,122,105
2025-02-25 18:21:29.788,-868.0,165.0,-153.0,76.0,-50.0,84.0,174,88,105,120,103
2025-02-25 18:21:29.796,-861.0,230.0,27.0,54.0,-26.0,78.0,180,94,110,126,108
2025-02-25 18:21:29.800,-810.0,370.0,-160.0,46.0,-16.0,71.0,178,93,110,127,109
2025-02-25 18:21:29.805,-786.0,467.0,-92.0,32.0,-3.0,60.0,178,94,110,127,109
2025-02-25 18:21:29.809,-846.0,598.0,-136.0,27.0,-1.0,46.0,174,89,105,126,109
2025-02-25 18:21:29.817,-930.0,662.0,-43.0,13.0,1.0,37.0,182,99,115,133,116
2025-02-25 18:21:29.821,-985.0,861.0,-61.0,30.0,3.0,14.0,180,98,111,132,116
2025-02-25 18:21:29.826,-1000.0,994.0,-80.0,36.0,1.0,-12.0,175,96,109,129,115
2025-02-25 18:21:29.830,-1047.0,1046.0,-104.0,58.0,-3.0,-25.0,173,92,106,130,113
2025-02-25 18:21:29.838,-1175.0,1137.0,-71.0,89.0,-4.0,-54.0,180,102,118,138,123
2025-02-25 18:21:29.842,-1210.0,1235.0,-67.0,108.0,-14.0,-83.0,178,100,115,137,123
2025-02-25 18:21:29.850,-1212.0,1436.0,-94.0,141.0,-18.0,-123.0,178,101,116,138,125
2025-02-25 18:21:29.854,-1182.0,1380.0,-90.0,164.0,-27.0,-154.0,176,103,115,137,129
2025-02-25 18:21:29.859,-1128.0,1512.0,-49.0,205.0,-36.0,-193.0,178,108,121,141,130
2025-02-25 18:21:29.866,-1069.0,1435.0,46.0,229.0,-30.0,-232.0,174,109,119,135,130
2025-02-25 18:21:29.870,-1048.0,1232.0,-81.0,219.0,-29.0,-270.0,176,110,121,138,131
2025-02-25 18:21:29.875,-1048.0,1096.0,-169.0,237.0,-34.0,-305.0,177,118,127,140,136
2025-02-25 18:21:29.882,-1145.0,914.0,-181.0,247.0,-49.0,-335.0,176,121,125,135,134
2025-02-25 18:21:29.887,-1003.0,847.0,-333.0,248.0,-68.0,-352.0,173,123,127,138,133
2025-02-25 18:21:29.894,-863.0,793.0,-526.0,245.0,-107.0,-385.0,179,131,129,140,137
2025-02-25 18:21:29.899,-739.0,712.0,-625.0,248.0,-162.0,-412.0,180,135,132,143,140
2025-02-25 18:21:29.903,-535.0,741.0,-569.0,240.0,-200.0,-435.0,179,132,133,147,140
2025-02-25 18:21:29.911,-357.0,655.0,-410.0,202.0,-226.0,-474.0,180,142,135,145,142
2025-02-25 18:21:29.915,159.0,965.0,-186.0,147.0,-249.0,-543.0,184,147,140,150,147
2025-02-25 18:21:29.919,1328.0,697.0,370.0,128.0,-240.0,-614.0,178,140,136,147,146
2025-02-25 18:21:29.927,2104.0,170.0,1003.0,120.0,-254.0,-611.0,180,146,136,147,147
2025-02-25 18:21:29.933,2559.0,-1540.0,795.0,149.0,-270.0,-553.0,178,145,139,147,147
2025-02-25 18:21:29.939,2324.0,-2387.0,1504.0,69.0,-235.0,-529.0,178,148,137,146,148
2025-02-25 18:21:29.944,2086.0,-2887.0,901.0,3.0,-219.0,-488.0,180,150,138,145,146
2025-02-25 18:21:29.948,2266.0,-3274.0,577.0,-17.0,-251.0,-442.0,180,151,138,145,149
2025-02-25 18:21:29.956,2788.0,-3923.0,665.0,-52.0,-251.0,-410.0,182,154,143,150,153
2025-02-25 18:21:29.960,3183.0,-4119.0,807.0,-128.0,-193.0,-334.0,178,150,139,146,148
2025-02-25 18:21:29.968,3227.0,-4548.0,375.0,-221.0,-177.0,-255.0,180,150,138,145,148
2025-02-25 18:21:29.973,2715.0,-4310.0,1849.0,-260.0,-61.0,-155.0,181,153,138,145,151
2025-02-25 18:21:29.977,2200.0,-4751.0,1839.0,-329.0,67.0,-64.0,184,155,142,150,154
2025-02-25 18:21:29.985,1869.0,-4332.0,1349.0,-271.0,50.0,15.0,187,157,144,146,155
2025-02-25 18:21:29.989,1659.0,-3437.0,1261.0,-150.0,25.0,90.0,183,158,146,150,155
2025-02-25 18:21:29.994,1317.0,-2923.0,-72.0,-110.0,28.0,165.0,185,158,146,153,158
2025-02-25 18:21:30.001,1127.0,-2549.0,-477.0,-98.0,34.0,216.0,182,157,143,151,156
2025-02-25 18:21:30.006,1143.0,-2563.0,395.0,-21.0,74.0,258.0,182,155,143,150,156
2025-02-25 18:21:30.013,1020.0,-2603.0,592.0,42.0,82.0,266.0,179,154,141,147,152
2025-02-25 18:21:30.017,911.0,-2300.0,149.0,16.0,56.0,257.0,180,154,143,151,153
2025-02-25 18:21:30.022,740.0,-2250.0,-438.0,-37.0,13.0,256.0,183,156,143,151,155
2025-02-25 18:21:30.030,524.0,-1947.0,-850.0,-120.0,-96.0,241.0,182,159,145,151,155
2025-02-25 18:21:30.034,538.0,-1532.0,-985.0,-135.0,-156.0,224.0,187,160,146,154,159
2025-02-25 18:21:30.038,777.0,-1408.0,-29.0,-93.0,-68.0,226.0,183,159,143,151,156
2025-02-25 18:21:30.046,559.0,-1582.0,464.0,-73.0,-1.0,226.0,180,156,143,149,156
2025-02-25 18:21:30.051,685.0,-1648.0,687.0,8.0,30.0,210.0,179,156,143,147,153
2025-02-25 18:21:30.055,687.0,-1288.0,854.0,104.0,42.0,192.0,180,157,143,149,155
2025-02-25 18:21:30.063,572.0,-1231.0,741.0,123.0,76.0,191.0,181,158,146,152,157
2025-02-25 18:21:30.067,493.0,-1199.0,486.0,48.0,69.0,199.0,181,159,146,152,155
2025-02-25 18:21:30.071,275.0,-1133.0,-71.0,20.0,23.0,198.0,183,160,146,153,157
2025-02-25 18:21:30.076,178.0,-790.0,-259.0,-35.0,-11.0,198.0,180,158,145,152,157
2025-02-25 18:21:30.083,93.0,-777.0,-168.0,-57.0,-17.0,205.0,179,155,142,149,153
2025-02-25 18:21:30.088,-20.0,-811.0,-95.0,-38.0,-28.0,212.0,180,158,144,149,153
2025-02-25 18:21:30.092,-89.0,-835.0,229.0,3.0,-27.0,221.0,178,159,147,150,153
2025-02-25 18:21:30.100,3.0,-769.0,516.0,75.0,-22.0,223.0,183,159,147,153,158
2025-02-25 18:21:30.104,-3.0,-736.0,951.0,98.0,19.0,228.0,180,158,145,157,157
2025-02-25 18:21:30.108,-30.0,-554.0,718.0,127.0,37.0,225.0,178,154,142,149,154
2025-02-25 18:21:30.113,-86.0,-434.0,440.0,148.0,52.0,221.0,179,155,141,150,153
2025-02-25 18:21:30.120,-179.0,-280.0,381.0,124.0,51.0,216.0,184,158,145,153,158
2025-02-25 18:21:30.125,-209.0,-298.0,504.0,87.0,69.0,209.0,182,159,144,153,157
2025-02-25 18:21:30.129,-217.0,-237.0,499.0,59.0,95.0,202.0,180,158,145,153,158
2025-02-25 18:21:30.136,-251.0,-100.0,115.0,25.0,88.0,189.0,182,159,145,152,157
2025-02-25 18:21:30.141,-371.0,-78.0,228.0,7.0,79.0,182.0,176,152,138,149,152
2025-02-25 18:21:30.145,-482.0,-34.0,347.0,-1.0,98.0,173.0,182,158,145,153,157
2025-02-25 18:21:30.152,-530.0,-63.0,379.0,-3.0,120.0,160.0,181,158,146,154,157
2025-02-25 18:21:30.157,-605.0,-89.0,295.0,-8.0,133.0,149.0,180,156,145,151,156
2025-02-25 18:21:30.161,-671.0,-114.0,288.0,-12.0,140.0,139.0,179,156,141,149,152
2025-02-25 18:21:30.166,-721.0,-101.0,203.0,-30.0,159.0,134.0,175,154,139,149,153
2025-02-25 18:21:30.174,-777.0,-72.0,-28.0,-54.0,169.0,125.0,182,167,145,154,157
2025-02-25 18:21:30.178,-867.0,-25.0,-46.0,-75.0,156.0,113.0,182,161,147,154,158
2025-02-25 18:21:30.182,-1002.0,8.0,-125.0,-65.0,137.0,101.0,182,156,145,154,154
2025-02-25 18:21:30.190,-1045.0,110.0,-204.0,-63.0,104.0,88.0,178,156,142,152,155
2025-02-25 18:21:30.194,-1049.0,132.0,-165.0,-43.0,91.0,75.0,177,156,142,150,153
2025-02-25 18:21:30.199,-1155.0,157.0,-210.0,-22.0,60.0,69.0,180,158,143,151,155
2025-02-25 18:21:30.206,-1146.0,194.0,-43.0,0.0,31.0,53.0,182,157,145,155,158
2025-02-25 18:21:30.211,-1025.0,211.0,-38.0,23.0,14.0,38.0,179,158,146,153,158
2025-02-25 18:21:30.215,-1017.0,290.0,97.0,38.0,5.0,21.0,183,160,148,156,160
2025-02-25 18:21:30.218,-1015.0,442.0,156.0,74.0,1.0,5.0,177,155,141,151,155
2025-02-25 18:21:30.227,-1023.0,494.0,185.0,112.0,-7.0,-3.0,181,159,146,156,158
2025-02-25 18:21:30.231,-1083.0,539.0,168.0,134.0,-17.0,-19.0,181,160,145,155,159
2025-02-25 18:21:30.236,-1131.0,482.0,164.0,144.0,-30.0,-37.0,183,160,146,155,158
2025-02-25 18:21:30.243,-1108.0,554.0,-98.0,136.0,-34.0,-54.0,179,156,143,152,155
2025-02-25 18:21:30.248,-1145.0,696.0,-140.0,126.0,-35.0,-70.0,179,156,144,151,151
2025-02-25 18:21:30.252,-1248.0,868.0,-158.0,116.0,-29.0,-84.0,177,156,143,151,151
2025-02-25 18:21:30.259,-1407.0,946.0,-157.0,117.0,-11.0,-92.0,177,156,141,151,154
2025-02-25 18:21:30.264,-1514.0,1072.0,-272.0,97.0,5.0,-112.0,178,159,146,148,158
2025-02-25 18:21:30.272,-1569.0,1168.0,-329.0,96.0,14.0,-135.0,181,164,144,156,159
2025-02-25 18:21:30.276,-1730.0,1351.0,-252.0,99.0,31.0,-166.0,184,163,151,157,161
2025-02-25 18:21:30.280,-1730.0,1448.0,-320.0,109.0,35.0,-204.0,181,159,146,154,157
2025-02-25 18:21:30.288,-1609.0,1450.0,-377.0,133.0,31.0,-251.0,183,160,147,155,156
2025-02-25 18:21:30.292,-1388.0,1409.0,-395.0,159.0,19.0,-301.0,179,158,144,152,155
2025-02-25 18:21:30.297,-1181.0,1352.0,-508.0,180.0,8.0,-352.0,180,158,143,152,156
2025-02-25 18:21:30.304,-1064.0,1398.0,-578.0,200.0,-23.0,-401.0,178,155,143,154,154
2025-02-25 18:21:30.309,-789.0,1368.0,-454.0,208.0,-53.0,-439.0,178,155,145,152,153
2025-02-25 18:21:30.316,-443.0,1192.0,-323.0,207.0,-85.0,-455.0,183,160,145,155,158
2025-02-25 18:21:30.321,-7.0,1062.0,-175.0,193.0,-130.0,-483.0,179,158,141,152,152
2025-02-25 18:21:30.325,537.0,805.0,-48.0,176.0,-184.0,-505.0,183,160,145,155,157
2025-02-25 18:21:30.333,1109.0,416.0,62.0,160.0,-228.0,-521.0,183,160,145,155,157
2025-02-25 18:21:30.337,1713.0,-105.0,122.0,146.0,-268.0,-525.0,186,161,147,157,161
2025-02-25 18:21:30.341,2253.0,-924.0,189.0,135.0,-304.0,-512.0,181,158,143,154,156
2025-02-25 18:21:30.350,2564.0,-1984.0,310.0,113.0,-346.0,-470.0,182,158,145,155,156
2025-02-25 18:21:30.354,2904.0,-3195.0,765.0,78.0,-361.0,-403.0,185,157,142,153,156
2025-02-25 18:21:30.362,3421.0,-4095.0,1720.0,-51.0,-340.0,-340.0,181,156,141,154,153
2025-02-25 18:21:30.366,3606.0,-4181.0,1564.0,-204.0,-307.0,-297.0,181,155,138,152,154
2025-02-25 18:21:30.370,4092.0,-3930.0,2370.0,-255.0,-292.0,-212.0,182,155,138,152,152
2025-02-25 18:21:30.378,3738.0,-4131.0,3724.0,-161.0,-71.0,-124.0,182,153,138,151,155
2025-02-25 18:21:30.382,2883.0,-4075.0,2551.0,-207.0,44.0,-48.0,183,153,138,150,154
2025-02-25 18:21:30.390,2674.0,-3785.0,1061.0,-183.0,-6.0,43.0,181,154,135,150,153
2025-02-25 18:21:30.395,2247.0,-3447.0,769.0,-193.0,16.0,93.0,185,154,139,153,155
2025-02-25 18:21:30.399,2143.0,-3157.0,304.0,-280.0,87.0,188.0,184,156,140,151,155
2025-02-25 18:21:30.407,1663.0,-2815.0,-630.0,-279.0,120.0,255.0,186,153,136,153,153
2025-02-25 18:21:30.411,1230.0,-2631.0,-154.0,-147.0,124.0,278.0,186,152,139,154,157
2025-02-25 18:21:30.416,1074.0,-2614.0,387.0,-6.0,102.0,280.0,186,153,138,155,157
2025-02-25 18:21:30.423,920.0,-2593.0,387.0,20.0,82.0,280.0,185,153,136,154,155
2025-02-25 18:21:30.428,919.0,-3099.0,383.0,-1.0,114.0,291.0,184,151,132,152,155
2025-02-25 18:21:30.432,590.0,-1986.0,-893.0,-107.0,84.0,283.0,180,150,133,153,152
2025-02-25 18:21:30.440,128.0,-1229.0,-1763.0,-161.0,-58.0,257.0,183,150,134,151,151
2025-02-25 18:21:30.444,222.0,-1179.0,110.0,-127.0,-44.0,245.0,180,149,134,149,150
2025-02-25 18:21:30.452,293.0,-1433.0,1041.0,-79.0,52.0,243.0,183,153,136,152,151
2025-02-25 18:21:30.456,463.0,-1462.0,712.0,40.0,49.0,210.0,187,155,138,153,154
2025-02-25 18:21:30.460,449.0,-1227.0,1009.0,148.0,55.0,178.0,185,155,139,154,153
2025-02-25 18:21:30.468,452.0,-1098.0,1357.0,166.0,121.0,182.0,183,152,136,154,151
2025-02-25 18:21:30.473,341.0,-1307.0,526.0,118.0,116.0,199.0,182,150,134,151,150
2025-02-25 18:21:30.477,200.0,-678.0,-425.0,22.0,63.0,187.0,182,151,133,152,150
2025-02-25 18:21:30.481,145.0,-567.0,-268.0,-16.0,-49.0,186.0,181,150,134,150,149
2025-02-25 18:21:30.489,81.0,-571.0,268.0,-43.0,-85.0,190.0,183,153,138,154,153
2025-02-25 18:21:30.493,23.0,-635.0,244.0,-14.0,-96.0,191.0,185,153,138,154,153
2025-02-25 18:21:30.498,88.0,-835.0,462.0,-21.0,-90.0,202.0,184,153,137,154,153
2025-02-25 18:21:30.505,24.0,-631.0,814.0,29.0,-91.0,190.0,183,151,134,153,148
2025-02-25 18:21:30.509,18.0,-756.0,1401.0,98.0,-26.0,193.0,183,152,136,153,150
2025-02-25 18:21:30.513,137.0,-742.0,1099.0,134.0,57.0,200.0,187,157,142,158,156
2025-02-25 18:21:30.522,-5.0,-611.0,790.0,144.0,98.0,198.0,186,153,138,154,152
2025-02-25 18:21:30.526,-217.0,-510.0,343.0,142.0,91.0,195.0,184,148,137,153,151
2025-02-25 18:21:30.530,-244.0,-447.0,500.0,60.0,100.0,198.0,184,146,134,152,149
2025-02-25 18:21:30.538,-291.0,-384.0,36.0,-47.0,113.0,194.0,182,146,136,153,150
2025-02-25 18:21:30.542,-297.0,-352.0,54.0,-133.0,101.0,193.0,180,142,133,151,147
2025-02-25 18:21:30.547,-360.0,-308.0,306.0,-173.0,106.0,192.0,185,147,142,155,152
2025-02-25 18:21:30.554,-281.0,-289.0,483.0,-198.0,139.0,191.0,184,143,136,154,153
2025-02-25 18:21:30.559,-279.0,-239.0,277.0,-172.0,136.0,183.0,186,144,137,157,150
2025-02-25 18:21:30.563,-254.0,-327.0,594.0,-158.0,176.0,178.0,184,144,134,156,148
2025-02-25 18:21:30.570,-273.0,-238.0,516.0,-130.0,197.0,182.0,183,140,135,153,148
2025-02-25 18:21:30.575,-338.0,-293.0,256.0,-151.0,203.0,183.0,185,136,135,152,146
2025-02-25 18:21:30.579,-402.0,-144.0,-92.0,-182.0,208.0,184.0,182,131,130,147,140
2025-02-25 18:21:30.587,-584.0,-127.0,-217.0,-185.0,181.0,184.0,181,128,128,147,141
2025-02-25 18:21:30.591,-712.0,-112.0,-236.0,-181.0,160.0,180.0,179,123,123,143,139
2025-02-25 18:21:30.596,-803.0,-173.0,-27.0,-146.0,154.0,174.0,186,123,129,145,143
2025-02-25 18:21:30.603,-803.0,-149.0,-88.0,-103.0,135.0,168.0,180,117,124,142,139
2025-02-25 18:21:30.608,-824.0,-91.0,-175.0,-58.0,94.0,148.0,185,115,124,142,137
2025-02-25 18:21:30.612,-865.0,-17.0,-127.0,-38.0,55.0,127.0,183,108,122,138,133
2025-02-25 18:21:30.620,-995.0,158.0,-270.0,-7.0,18.0,106.0,181,104,118,135,128
2025-02-25 18:21:30.625,-1062.0,321.0,-282.0,14.0,7.0,87.0,180,99,115,130,123
2025-02-25 18:21:30.629,-1099.0,418.0,-233.0,24.0,-4.0,80.0,185,101,117,131,125
2025-02-25 18:21:30.637,-1105.0,579.0,-217.0,29.0,-14.0,58.0,187,100,120,134,126
2025-02-25 18:21:30.641,-1173.0,757.0,-236.0,27.0,-28.0,36.0,186,100,112,126,119
2025-02-25 18:21:30.645,-1275.0,951.0,-353.0,45.0,-56.0,10.0,182,92,111,123,115
2025-02-25 18:21:30.653,-1276.0,1198.0,-199.0,64.0,-60.0,-27.0,181,92,108,122,113
2025-02-25 18:21:30.657,-1398.0,1291.0,-250.0,85.0,-45.0,-46.0,181,91,108,121,113
2025-02-25 18:21:30.661,-1427.0,1292.0,-501.0,74.0,-45.0,-79.0,184,94,108,122,112
2025-02-25 18:21:30.669,-1608.0,1286.0,-482.0,74.0,-25.0,-102.0,182,92,106,122,111
2025-02-25 18:21:30.673,-1685.0,1479.0,-364.0,67.0,10.0,-134.0,184,90,104,127,108
2025-02-25 18:21:30.678,-1654.0,1651.0,-478.0,59.0,32.0,-150.0,183,90,103,120,106
2025-02-25 18:21:30.685,-1712.0,1628.0,-83.0,32.0,83.0,-177.0,182,86,98,118,102
2025-02-25 18:21:30.689,-1680.0,1600.0,-466.0,23.0,82.0,-210.0,181,85,98,117,97
2025-02-25 18:21:30.694,-1729.0,1557.0,-504.0,49.0,78.0,-230.0,183,87,97,118,101
2025-02-25 18:21:30.701,-1848.0,1553.0,-292.0,92.0,82.0,-270.0,183,91,98,118,93
2025-02-25 18:21:30.706,-1602.0,1392.0,-429.0,105.0,78.0,-300.0,183,85,96,116,99
2025-02-25 18:21:30.711,-1190.0,1387.0,-81.0,130.0,83.0,-331.0,182,84,93,115,96
2025-02-25 18:21:30.715,-1017.0,1189.0,-238.0,174.0,68.0,-367.0,182,84,91,112,94
2025-02-25 18:21:30.722,-766.0,1191.0,-225.0,209.0,22.0,-411.0,180,81,91,109,92
2025-02-25 18:21:30.727,-592.0,1161.0,8.0,233.0,-14.0,-430.0,183,84,93,110,93
2025-02-25 18:21:30.731,123.0,1035.0,14.0,244.0,-46.0,-465.0,183,86,94,109,92
2025-02-25 18:21:30.738,981.0,917.0,9.0,238.0,-104.0,-503.0,183,82,94,109,92
2025-02-25 18:21:30.743,1380.0,694.0,-51.0,226.0,-148.0,-546.0,178,80,92,106,90
2025-02-25 18:21:30.747,1549.0,555.0,223.0,202.0,-215.0,-558.0,183,85,95,108,95
2025-02-25 18:21:30.752,2013.0,-11.0,473.0,152.0,-221.0,-550.0,184,84,96,110,94
2025-02-25 18:21:30.760,2096.0,-706.0,860.0,118.0,-201.0,-528.0,183,82,97,107,93
2025-02-25 18:21:30.764,2485.0,-1607.0,1249.0,85.0,-182.0,-501.0,180,80,94,103,91
2025-02-25 18:21:30.768,2831.0,-2681.0,1737.0,82.0,-180.0,-465.0,180,81,96,104,91
2025-02-25 18:21:30.775,3404.0,-3808.0,2490.0,90.0,-162.0,-442.0,184,84,99,109,95
2025-02-25 18:21:30.783,3674.0,-4339.0,3132.0,101.0,-124.0,-371.0,183,83,100,107,94
2025-02-25 18:21:30.785,3668.0,-5099.0,3206.0,104.0,-68.0,-266.0,185,84,100,105,97
2025-02-25 18:21:30.792,3497.0,-5223.0,2885.0,131.0,17.0,-151.0,186,87,102,103,94
2025-02-25 18:21:30.796,3109.0,-4548.0,2280.0,173.0,137.0,-55.0,184,85,105,102,94
2025-02-25 18:21:30.801,2632.0,-3455.0,1278.0,202.0,129.0,-4.0,183,82,105,100,92
2025-02-25 18:21:30.809,2280.0,-2315.0,535.0,172.0,123.0,10.0,180,80,100,98,90
2025-02-25 18:21:30.813,2192.0,-1678.0,-438.0,-36.0,140.0,33.0,184,84,102,104,94
2025-02-25 18:21:30.817,1208.0,-2059.0,-957.0,-195.0,152.0,84.0,185,86,103,104,95
2025-02-25 18:21:30.825,584.0,-2127.0,-952.0,-269.0,130.0,115.0,183,94,99,106,94
2025-02-25 18:21:30.829,361.0,-2415.0,-998.0,-385.0,5.0,151.0,183,86,98,109,96
2025-02-25 18:21:30.834,-225.0,-3013.0,-1554.0,-360.0,-89.0,183.0,180,84,97,109,96
2025-02-25 18:21:30.841,59.0,-2882.0,-584.0,-360.0,-133.0,186.0,179,81,94,108,93
2025-02-25 18:21:30.845,374.0,-3015.0,-435.0,-271.0,-120.0,189.0,178,82,93,107,93
2025-02-25 18:21:30.849,667.0,-2890.0,-124.0,-198.0,-35.0,185.0,180,84,95,108,95
2025-02-25 18:21:30.857,1014.0,-2614.0,150.0,-104.0,3.0,187.0,182,83,98,110,98
2025-02-25 18:21:30.861,1057.0,-2339.0,598.0,-66.0,27.0,203.0,181,85,98,111,97
2025-02-25 18:21:30.866,1107.0,-1941.0,635.0,-49.0,56.0,226.0,179,81,93,108,94
2025-02-25 18:21:30.870,985.0,-1675.0,492.0,-61.0,88.0,236.0,180,82,95,108,95
2025-02-25 18:21:30.878,799.0,-1510.0,695.0,-57.0,50.0,242.0,183,87,101,111,99
2025-02-25 18:21:30.882,597.0,-1098.0,605.0,-47.0,-21.0,248.0,183,86,100,110,99
2025-02-25 18:21:30.886,476.0,-861.0,473.0,-37.0,-70.0,247.0,182,87,100,110,98
2025-02-25 18:21:30.894,472.0,-611.0,490.0,-59.0,-73.0,248.0,181,86,103,107,96
2025-02-25 18:21:30.899,157.0,-628.0,150.0,-59.0,-29.0,247.0,181,85,97,106,96
2025-02-25 18:21:30.903,246.0,-607.0,256.0,-57.0,-38.0,236.0,182,89,103,111,99
2025-02-25 18:21:30.908,15.0,-398.0,191.0,-44.0,-98.0,234.0,183,87,103,108,99
2025-02-25 18:21:30.915,-123.0,-421.0,166.0,-37.0,-128.0,223.0,184,88,103,107,100
2025-02-25 18:21:30.920,-109.0,-318.0,146.0,-63.0,-138.0,215.0,180,85,100,104,97
2025-02-25 18:21:30.924,-97.0,-364.0,344.0,-81.0,-132.0,205.0,184,89,102,108,100
2025-02-25 18:21:30.932,-153.0,-402.0,257.0,-85.0,-129.0,188.0,183,89,104,110,102
2025-02-25 18:21:30.936,-105.0,-427.0,436.0,-95.0,-107.0,173.0,186,90,104,111,103
2025-02-25 18:21:30.940,-243.0,-482.0,372.0,-83.0,-74.0,164.0,182,87,101,110,98
2025-02-25 18:21:30.947,-319.0,-514.0,385.0,-96.0,-55.0,157.0,181,85,100,110,97
2025-02-25 18:21:30.952,-251.0,-526.0,360.0,-96.0,-27.0,148.0,181,84,100,109,96
2025-02-25 18:21:30.957,-318.0,-556.0,304.0,-86.0,-12.0,145.0,183,90,104,113,100
2025-02-25 18:21:30.961,-439.0,-493.0,358.0,-88.0,5.0,140.0,179,87,103,109,98
2025-02-25 18:21:30.968,-502.0,-426.0,202.0,-83.0,31.0,131.0,181,86,103,111,98
2025-02-25 18:21:30.973,-528.0,-392.0,133.0,-84.0,44.0,125.0,184,88,101,108,99
2025-02-25 18:21:30.977,-585.0,-387.0,63.0,-100.0,65.0,123.0,179,85,100,106,96
2025-02-25 18:21:30.984,-634.0,-376.0,33.0,-93.0,68.0,120.0,184,89,104,109,100
2025-02-25 18:21:30.988,-733.0,-354.0,-39.0,-78.0,56.0,118.0,183,90,104,109,100
2025-02-25 18:21:30.993,-750.0,-346.0,-100.0,-72.0,46.0,112.0,185,90,104,110,101
2025-02-25 18:21:30.998,-764.0,-334.0,-131.0,-56.0,41.0,107.0,181,86,100,107,97
2025-02-25 18:21:31.005,-808.0,-331.0,-213.0,-22.0,24.0,104.0,179,84,99,107,96
2025-02-25 18:21:31.009,-785.0,-362.0,-168.0,11.0,7.0,95.0,183,89,105,109,100
2025-02-25 18:21:31.013,-748.0,-365.0,-123.0,28.0,-6.0,85.0,186,92,106,114,103
2025-02-25 18:21:31.021,-727.0,-310.0,-45.0,51.0,-8.0,74.0,181,81,100,107,96
2025-02-25 18:21:31.025,-732.0,-316.0,-73.0,70.0,-7.0,69.0,179,84,98,107,96
2025-02-25 18:21:31.030,-759.0,-282.0,-67.0,71.0,-3.0,61.0,183,89,104,110,101
2025-02-25 18:21:31.034,-771.0,-199.0,40.0,62.0,2.0,57.0,184,92,104,112,103
2025-02-25 18:21:31.038,-796.0,-127.0,25.0,65.0,2.0,52.0,179,85,98,107,97
2025-02-25 18:21:31.046,-846.0,-63.0,45.0,66.0,3.0,49.0,182,92,103,111,100
2025-02-25 18:21:31.050,-949.0,118.0,39.0,62.0,5.0,41.0,181,87,100,109,101
2025-02-25 18:21:31.054,-955.0,360.0,50.0,45.0,9.0,28.0,182,86,98,113,104
2025-02-25 18:21:31.058,-1049.0,448.0,6.0,31.0,24.0,22.0,182,89,101,112,101
2025-02-25 18:21:31.063,-1206.0,578.0,-40.0,21.0,45.0,2.0,182,88,100,111,101
2025-02-25 18:21:31.070,-1247.0,743.0,-50.0,3.0,49.0,-20.0,179,87,97,109,99
2025-02-25 18:21:31.074,-1319.0,831.0,-65.0,-14.0,46.0,-31.0,185,93,103,117,106
2025-02-25 18:21:31.079,-1409.0,943.0,-87.0,-18.0,40.0,-57.0,183,89,99,114,103
2025-02-25 18:21:31.083,-1440.0,1011.0,-87.0,-18.0,31.0,-87.0,181,86,97,112,102
2025-02-25 18:21:31.091,-1421.0,1035.0,2.0,-23.0,38.0,-121.0,181,87,94,108,100
2025-02-25 18:21:31.095,-1427.0,1031.0,-132.0,-4.0,32.0,-138.0,181,89,100,113,103
2025-02-25 18:21:31.099,-1421.0,990.0,-144.0,16.0,26.0,-172.0,182,88,99,115,102
2025-02-25 18:21:31.108,-1382.0,972.0,-152.0,34.0,19.0,-206.0,182,89,100,112,105
2025-02-25 18:21:31.112,-1277.0,969.0,-132.0,44.0,11.0,-241.0,180,86,98,113,103
2025-02-25 18:21:31.116,-1263.0,939.0,-110.0,61.0,7.0,-280.0,180,86,98,111,101
2025-02-25 18:21:31.123,-1046.0,919.0,-108.0,77.0,-1.0,-301.0,174,84,94,111,101
2025-02-25 18:21:31.128,-833.0,845.0,-125.0,94.0,-14.0,-341.0,183,89,100,115,104
2025-02-25 18:21:31.132,-586.0,734.0,-132.0,100.0,-34.0,-377.0,183,87,103,113,106
2025-02-25 18:21:31.140,-328.0,537.0,-167.0,103.0,-58.0,-404.0,182,88,99,114,105
2025-02-25 18:21:31.144,-30.0,310.0,-147.0,104.0,-79.0,-423.0,180,86,96,111,103
2025-02-25 18:21:31.148,159.0,69.0,-69.0,97.0,-88.0,-439.0,180,86,98,110,101
2025-02-25 18:21:31.153,512.0,-66.0,57.0,79.0,-108.0,-443.0,189,92,104,117,108
2025-02-25 18:21:31.160,956.0,-552.0,160.0,63.0,-125.0,-438.0,182,90,102,113,104
2025-02-25 18:21:31.165,1425.0,-1209.0,360.0,53.0,-128.0,-419.0,182,89,101,113,103
2025-02-25 18:21:31.170,1846.0,-1964.0,574.0,37.0,-108.0,-389.0,182,88,103,114,103
2025-02-25 18:21:31.177,2031.0,-2856.0,728.0,42.0,-93.0,-352.0,181,87,102,113,99
2025-02-25 18:21:31.182,2299.0,-3554.0,781.0,70.0,-57.0,-309.0,181,84,99,110,102
2025-02-25 18:21:31.186,2489.0,-3840.0,839.0,152.0,-17.0,-281.0,184,87,103,112,103
2025-02-25 18:21:31.194,2798.0,-4428.0,1045.0,245.0,-9.0,-210.0,184,93,110,115,108
2025-02-25 18:21:31.198,2882.0,-4537.0,1131.0,274.0,37.0,-138.0,185,85,108,111,107
2025-02-25 18:21:31.202,2828.0,-4499.0,1069.0,211.0,121.0,-46.0,183,89,108,108,105
2025-02-25 18:21:31.210,2369.0,-4080.0,901.0,177.0,150.0,42.0,182,86,105,105,104
2025-02-25 18:21:31.214,2157.0,-3423.0,631.0,97.0,134.0,102.0,184,87,106,106,105
2025-02-25 18:21:31.218,1993.0,-2689.0,342.0,-2.0,76.0,143.0,181,83,102,104,102
2025-02-25 18:21:31.226,1662.0,-2415.0,-31.0,-88.0,66.0,158.0,181,86,102,107,103
2025-02-25 18:21:31.231,1264.0,-2113.0,-106.0,-146.0,70.0,174.0,186,88,106,113,106
2025-02-25 18:21:31.235,950.0,-1931.0,-308.0,-173.0,52.0,186.0,185,89,106,113,107
2025-02-25 18:21:31.243,833.0,-1931.0,-194.0,-182.0,36.0,190.0,183,89,106,113,111
2025-02-25 18:21:31.246,806.0,-1999.0,-114.0,-199.0,33.0,190.0,184,88,103,114,105
2025-02-25 18:21:31.251,773.0,-2029.0,96.0,-206.0,25.0,198.0,185,91,104,115,106
2025-02-25 18:21:31.259,746.0,-2022.0,213.0,-219.0,21.0,200.0,182,87,101,112,104
2025-02-25 18:21:31.263,585.0,-1966.0,182.0,-195.0,-4.0,207.0,184,91,104,116,107
2025-02-25 18:21:31.267,679.0,-1875.0,194.0,-158.0,-25.0,217.0,184,89,103,115,106
2025-02-25 18:21:31.275,698.0,-1645.0,236.0,-142.0,-18.0,227.0,185,93,105,116,107
2025-02-25 18:21:31.279,585.0,-1439.0,263.0,-151.0,-6.0,235.0,184,89,103,114,105
2025-02-25 18:21:31.283,505.0,-1277.0,257.0,-146.0,-5.0,247.0,181,87,100,112,104
2025-02-25 18:21:31.292,400.0,-1097.0,184.0,-103.0,-33.0,247.0,181,87,100,111,102
2025-02-25 18:21:31.296,403.0,-1060.0,239.0,-68.0,-74.0,246.0,181,87,102,108,102
2025-02-25 18:21:31.300,193.0,-897.0,208.0,-46.0,-88.0,246.0,184,91,105,113,106
2025-02-25 18:21:31.307,122.0,-765.0,122.0,-43.0,-59.0,248.0,185,91,104,108,105
2025-02-25 18:21:31.312,25.0,-691.0,180.0,-47.0,-54.0,246.0,184,88,105,110,105
2025-02-25 18:21:31.316,-46.0,-676.0,127.0,-29.0,-72.0,246.0,182,87,103,108,101
2025-02-25 18:21:31.325,-111.0,-681.0,146.0,-12.0,-103.0,246.0,182,85,101,106,100
2025-02-25 18:21:31.328,-236.0,-597.0,124.0,-27.0,-97.0,249.0,184,92,108,112,104
2025-02-25 18:21:31.333,-287.0,-455.0,46.0,-51.0,-64.0,253.0,184,93,108,113,106
2025-02-25 18:21:31.337,-385.0,-402.0,87.0,-63.0,-39.0,256.0,183,89,104,112,104
2025-02-25 18:21:31.345,-440.0,-280.0,156.0,-68.0,-36.0,247.0,181,90,103,111,104
2025-02-25 18:21:31.350,-353.0,-135.0,248.0,-64.0,-37.0,226.0,181,88,104,111,101
2025-02-25 18:21:31.353,-337.0,-79.0,286.0,-81.0,-19.0,217.0,183,89,106,116,103
2025-02-25 18:21:31.361,-418.0,-1.0,276.0,-101.0,10.0,203.0,183,90,106,116,111
2025-02-25 18:21:31.365,-421.0,48.0,357.0,-121.0,41.0,196.0,183,90,106,115,105
2025-02-25 18:21:31.369,-517.0,21.0,290.0,-129.0,46.0,190.0,181,87,104,114,101
2025-02-25 18:21:31.374,-549.0,57.0,228.0,-136.0,47.0,184.0,182,89,104,115,103
2025-02-25 18:21:31.382,-577.0,24.0,209.0,-128.0,43.0,183.0,183,88,106,116,105
2025-02-25 18:21:31.386,-701.0,-13.0,147.0,-104.0,35.0,178.0,184,92,107,117,105
2025-02-25 18:21:31.390,-746.0,-74.0,105.0,-89.0,32.0,176.0,184,91,103,112,104
2025-02-25 18:21:31.398,-755.0,-143.0,50.0,-60.0,32.0,176.0,182,88,101,113,103
2025-02-25 18:21:31.402,-798.0,-140.0,-1.0,-21.0,36.0,175.0,178,85,100,111,100
2025-02-25 18:21:31.407,-855.0,-151.0,-65.0,19.0,46.0,178.0,184,92,106,117,106
2025-02-25 18:21:31.411,-897.0,-118.0,-120.0,42.0,42.0,177.0,183,91,105,116,106
2025-02-25 18:21:31.419,-915.0,-165.0,-129.0,69.0,48.0,173.0,180,88,101,115,104
2025-02-25 18:21:31.423,-883.0,-156.0,-188.0,50.0,45.0,163.0,180,89,102,117,104
2025-02-25 18:21:31.427,-851.0,-85.0,-136.0,58.0,54.0,155.0,181,88,104,117,106
2025-02-25 18:21:31.435,-881.0,-72.0,-146.0,70.0,78.0,160.0,186,96,110,125,113
2025-02-25 18:21:31.440,-862.0,-11.0,-220.0,54.0,107.0,148.0,181,92,106,122,110
2025-02-25 18:21:31.443,-734.0,61.0,-141.0,63.0,114.0,138.0,180,91,106,120,109
2025-02-25 18:21:31.447,-677.0,177.0,-83.0,61.0,124.0,131.0,181,92,107,122,109
2025-02-25 18:21:31.455,-613.0,229.0,-4.0,69.0,126.0,121.0,185,98,112,129,116
2025-02-25 18:21:31.460,-609.0,235.0,-27.0,81.0,134.0,106.0,181,95,110,127,115
2025-02-25 18:21:31.464,-675.0,231.0,-41.0,80.0,139.0,99.0,179,94,109,125,113
2025-02-25 18:21:31.468,-756.0,362.0,1.0,95.0,144.0,85.0,176,93,110,126,113
2025-02-25 18:21:31.476,-772.0,425.0,-85.0,104.0,139.0,72.0,184,100,117,133,119
2025-02-25 18:21:31.481,-925.0,588.0,-231.0,109.0,118.0,45.0,181,98,117,131,118
2025-02-25 18:21:31.485,-1148.0,621.0,-158.0,112.0,106.0,23.0,181,98,116,131,119
2025-02-25 18:21:31.492,-1258.0,861.0,-290.0,95.0,98.0,-2.0,174,95,119,131,116
2025-02-25 18:21:31.496,-1394.0,1033.0,-404.0,74.0,75.0,-13.0,177,99,120,127,115
2025-02-25 18:21:31.501,-1447.0,1247.0,-551.0,64.0,46.0,-40.0,179,106,129,133,119
2025-02-25 18:21:31.508,-1403.0,1467.0,-643.0,53.0,9.0,-71.0,179,108,131,133,120
2025-02-25 18:21:31.513,-1382.0,1674.0,-766.0,55.0,-31.0,-91.0,178,110,132,133,120
2025-02-25 18:21:31.518,-1389.0,1633.0,-975.0,51.0,-57.0,-105.0,178,115,129,132,122
2025-02-25 18:21:31.526,-1315.0,1517.0,-553.0,54.0,-71.0,-152.0,176,113,129,132,120
2025-02-25 18:21:31.530,-1293.0,1532.0,-518.0,90.0,-73.0,-211.0,172,114,131,132,119
2025-02-25 18:21:31.538,-806.0,1117.0,-262.0,209.0,-77.0,-261.0,174,121,132,133,121
2025-02-25 18:21:31.542,-670.0,682.0,-366.0,312.0,-98.0,-314.0,172,124,133,127,119
2025-02-25 18:21:31.546,-703.0,479.0,-500.0,364.0,-134.0,-334.0,171,127,133,131,118
2025-02-25 18:21:31.554,-623.0,460.0,-629.0,333.0,-172.0,-383.0,173,134,140,135,124
2025-02-25 18:21:31.558,-511.0,640.0,-576.0,229.0,-196.0,-440.0,172,138,143,137,123
2025-02-25 18:21:31.563,-353.0,1530.0,-373.0,192.0,-163.0,-515.0,170,139,147,136,121
2025-02-25 18:21:31.570,-169.0,1158.0,825.0,165.0,-111.0,-568.0,168,139,145,136,123
2025-02-25 18:21:31.574,-37.0,70.0,855.0,139.0,-211.0,-619.0,169,144,149,139,124
2025-02-25 18:21:31.579,237.0,321.0,943.0,171.0,-275.0,-661.0,165,143,146,136,121
2025-02-25 18:21:31.586,1126.0,49.0,552.0,166.0,-283.0,-691.0,162,142,146,135,120
2025-02-25 18:21:31.591,1473.0,-474.0,-17.0,112.0,-276.0,-708.0,159,147,149,135,118
2025-02-25 18:21:31.599,2107.0,-1304.0,531.0,95.0,-301.0,-717.0,160,148,149,136,121
2025-02-25 18:21:31.603,2411.0,-1722.0,872.0,98.0,-304.0,-708.0,156,150,148,134,119
2025-02-25 18:21:31.607,2881.0,-2523.0,1212.0,106.0,-265.0,-660.0,157,155,150,138,121
2025-02-25 18:21:31.615,3020.0,-3195.0,1439.0,111.0,-222.0,-576.0,160,160,153,140,125
2025-02-25 18:21:31.620,3360.0,-3582.0,1926.0,137.0,-138.0,-478.0,159,162,156,138,121
2025-02-25 18:21:31.627,3395.0,-3837.0,1771.0,134.0,-58.0,-332.0,159,160,153,138,121
2025-02-25 18:21:31.632,3560.0,-4210.0,1685.0,66.0,27.0,-178.0,155,161,153,140,121
2025-02-25 18:21:31.636,3666.0,-4377.0,1628.0,64.0,112.0,-34.0,160,163,155,140,119
2025-02-25 18:21:31.644,3202.0,-4217.0,1399.0,2.0,167.0,104.0,161,162,152,139,117
2025-02-25 18:21:31.648,2671.0,-3810.0,1039.0,-33.0,204.0,217.0,158,164,152,135,116
2025-02-25 18:21:31.653,2078.0,-2963.0,512.0,-73.0,188.0,285.0,159,165,155,141,118
2025-02-25 18:21:31.660,1831.0,-2600.0,252.0,-136.0,174.0,324.0,155,160,149,136,112
2025-02-25 18:21:31.665,1348.0,-2168.0,11.0,-170.0,127.0,336.0,155,160,150,136,113
2025-02-25 18:21:31.673,958.0,-1939.0,-232.0,-192.0,76.0,335.0,155,161,152,137,113
2025-02-25 18:21:31.677,664.0,-1897.0,-293.0,-208.0,24.0,328.0,153,159,149,137,114
2025-02-25 18:21:31.681,629.0,-1814.0,-279.0,-198.0,-18.0,304.0,156,162,154,146,120
2025-02-25 18:21:31.689,581.0,-1790.0,-342.0,-174.0,-60.0,273.0,157,161,155,145,119
2025-02-25 18:21:31.693,528.0,-1723.0,-176.0,-137.0,-86.0,245.0,157,166,156,149,117
2025-02-25 18:21:31.698,492.0,-1679.0,24.0,-89.0,-104.0,223.0,156,164,154,149,119
2025-02-25 18:21:31.705,538.0,-1523.0,161.0,-66.0,-102.0,209.0,154,162,153,146,118
2025-02-25 18:21:31.710,571.0,-1439.0,362.0,-13.0,-97.0,198.0,153,161,154,149,118
2025-02-25 18:21:31.714,584.0,-1341.0,456.0,23.0,-92.0,192.0,153,161,152,147,117
2025-02-25 18:21:31.722,641.0,-1224.0,454.0,36.0,-86.0,189.0,152,162,152,147,116
2025-02-25 18:21:31.726,564.0,-1159.0,675.0,43.0,-72.0,187.0,155,165,154,150,119
2025-02-25 18:21:31.731,474.0,-1045.0,696.0,50.0,-53.0,191.0,155,164,159,149,120
2025-02-25 18:21:31.738,380.0,-991.0,860.0,77.0,-30.0,197.0,157,165,158,149,119
2025-02-25 18:21:31.742,268.0,-887.0,708.0,74.0,-8.0,206.0,155,160,153,150,119
2025-02-25 18:21:31.747,182.0,-803.0,647.0,60.0,-4.0,216.0,153,161,153,147,116
2025-02-25 18:21:31.751,88.0,-783.0,653.0,57.0,16.0,221.0,160,166,159,154,122
2025-02-25 18:21:31.759,-34.0,-658.0,608.0,54.0,27.0,231.0,157,166,154,152,122
2025-02-25 18:21:31.763,-152.0,-515.0,532.0,48.0,42.0,238.0,157,163,155,152,120
2025-02-25 18:21:31.767,-202.0,-363.0,497.0,28.0,46.0,242.0,154,160,152,150,118
2025-02-25 18:21:31.775,-318.0,-248.0,477.0,5.0,49.0,242.0,162,169,162,158,125
2025-02-25 18:21:31.779,-425.0,-210.0,453.0,-22.0,49.0,240.0,165,172,163,160,131
2025-02-25 18:21:31.783,-505.0,-132.0,441.0,-46.0,50.0,235.0,165,172,165,161,130
2025-02-25 18:21:31.791,-547.0,-60.0,462.0,-55.0,47.0,226.0,162,172,162,159,130
2025-02-25 18:21:31.795,-575.0,-34.0,503.0,-66.0,50.0,215.0,161,170,163,159,127
2025-02-25 18:21:31.799,-608.0,-21.0,419.0,-80.0,54.0,202.0,161,170,162,159,127
2025-02-25 18:21:31.804,-599.0,-6.0,399.0,-83.0,62.0,193.0,167,176,168,164,134
2025-02-25 18:21:31.812,-626.0,-54.0,373.0,-86.0,62.0,177.0,165,175,164,164,134
2025-02-25 18:21:31.816,-641.0,-72.0,318.0,-91.0,64.0,161.0,164,172,165,160,132
2025-02-25 18:21:31.820,-672.0,-99.0,283.0,-90.0,64.0,147.0,157,170,163,160,129
2025-02-25 18:21:31.828,-736.0,-121.0,236.0,-72.0,63.0,141.0,161,170,162,159,128
2025-02-25 18:21:31.832,-753.0,-150.0,159.0,-47.0,67.0,128.0,167,177,171,165,135
2025-02-25 18:21:31.836,-800.0,-133.0,99.0,-29.0,68.0,116.0,165,174,166,163,134
2025-02-25 18:21:31.841,-858.0,-85.0,46.0,-20.0,63.0,107.0,163,172,165,163,134
2025-02-25 18:21:31.849,-932.0,8.0,-2.0,-9.0,61.0,99.0,159,169,163,159,130
2025-02-25 18:21:31.853,-947.0,77.0,-41.0,-3.0,56.0,94.0,160,172,163,157,128
2025-02-25 18:21:31.857,-999.0,228.0,-24.0,-4.0,53.0,86.0,165,173,168,161,132
2025-02-25 18:21:31.862,-1026.0,380.0,-64.0,-9.0,47.0,76.0,162,171,165,161,131
2025-02-25 18:21:31.869,-1041.0,423.0,-134.0,-25.0,44.0,67.0,157,167,162,158,128
2025-02-25 18:21:31.874,-1078.0,445.0,-151.0,-41.0,36.0,62.0,160,170,165,160,129
2025-02-25 18:21:31.878,-1100.0,457.0,-127.0,-60.0,29.0,52.0,163,172,166,160,133
2025-02-25 18:21:31.886,-1112.0,466.0,-136.0,-74.0,25.0,43.0,163,172,167,161,131
2025-02-25 18:21:31.890,-1144.0,476.0,-144.0,-76.0,19.0,31.0,163,173,167,162,133
2025-02-25 18:21:31.895,-1162.0,533.0,-130.0,-80.0,16.0,18.0,161,170,164,162,131
2025-02-25 18:21:31.902,-1156.0,601.0,-159.0,-76.0,17.0,0.0,156,168,155,159,129
2025-02-25 18:21:31.907,-1167.0,623.0,-183.0,-63.0,19.0,-9.0,157,168,162,157,128
2025-02-25 18:21:31.910,-1187.0,661.0,-197.0,-44.0,21.0,-31.0,168,176,171,166,137
2025-02-25 18:21:31.918,-1221.0,666.0,-206.0,-17.0,23.0,-57.0,164,173,167,163,134
2025-02-25 18:21:31.923,-1237.0,706.0,-229.0,12.0,26.0,-85.0,163,173,169,161,132
2025-02-25 18:21:31.927,-1276.0,782.0,-276.0,26.0,25.0,-112.0,161,171,166,162,132
2025-02-25 18:21:31.935,-1303.0,851.0,-286.0,54.0,24.0,-138.0,159,169,163,159,131
2025-02-25 18:21:31.939,-1309.0,895.0,-290.0,81.0,22.0,-164.0,156,168,161,156,127
2025-02-25 18:21:31.944,-1289.0,899.0,-292.0,105.0,18.0,-177.0,158,168,162,158,126
2025-02-25 18:21:31.951,-1203.0,877.0,-246.0,128.0,15.0,-206.0,164,174,168,162,132
2025-02-25 18:21:31.956,-1096.0,821.0,-232.0,145.0,11.0,-235.0,165,174,169,163,132
2025-02-25 18:21:31.960,-969.0,718.0,-155.0,165.0,7.0,-266.0,166,176,169,160,132
2025-02-25 18:21:31.967,-833.0,617.0,-70.0,171.0,7.0,-298.0,161,171,166,162,131
2025-02-25 18:21:31.971,-674.0,540.0,-35.0,183.0,5.0,-331.0,161,171,167,164,131
2025-02-25 18:21:31.975,-602.0,469.0,69.0,187.0,-1.0,-364.0,159,169,164,160,128
2025-02-25 18:21:31.984,-452.0,439.0,154.0,184.0,-11.0,-380.0,162,172,168,164,130
2025-02-25 18:21:31.989,-267.0,384.0,205.0,172.0,-24.0,-408.0,162,173,167,164,130
2025-02-25 18:21:31.993,-30.0,258.0,309.0,158.0,-41.0,-432.0,164,173,169,165,133
2025-02-25 18:21:32.000,216.0,97.0,399.0,149.0,-57.0,-449.0,161,171,164,163,128
2025-02-25 18:21:32.004,354.0,-186.0,494.0,123.0,-65.0,-458.0,159,169,163,161,127
2025-02-25 18:21:32.009,635.0,-522.0,594.0,100.0,-79.0,-456.0,158,168,162,161,127
2025-02-25 18:21:32.017,924.0,-746.0,693.0,83.0,-91.0,-451.0,159,170,163,160,124
2025-02-25 18:21:32.021,1261.0,-1298.0,860.0,81.0,-95.0,-433.0,163,178,166,164,124
2025-02-25 18:21:32.025,1640.0,-1888.0,938.0,98.0,-90.0,-405.0,164,174,169,167,133
2025-02-25 18:21:32.033,2010.0,-2449.0,1149.0,125.0,-74.0,-368.0,169,179,177,172,137
2025-02-25 18:21:32.038,2331.0,-2833.0,1329.0,139.0,-53.0,-326.0,166,174,169,168,133
2025-02-25 18:21:32.042,2645.0,-3176.0,1521.0,148.0,-16.0,-266.0,165,173,166,164,131
2025-02-25 18:21:32.050,2830.0,-3293.0,1818.0,139.0,36.0,-203.0,166,174,167,166,132
2025-02-25 18:21:32.054,2849.0,-3382.0,1886.0,124.0,81.0,-132.0,165,171,166,165,131
2025-02-25 18:21:32.062,2855.0,-3276.0,1635.0,68.0,107.0,-62.0,163,169,164,164,125
2025-02-25 18:21:32.066,2494.0,-3164.0,1570.0,2.0,133.0,3.0,163,169,164,163,123
2025-02-25 18:21:32.070,2156.0,-3054.0,1217.0,-71.0,154.0,33.0,167,172,168,167,129
2025-02-25 18:21:32.078,1861.0,-2828.0,787.0,-149.0,151.0,88.0,169,174,168,167,129
2025-02-25 18:21:32.082,1531.0,-2660.0,552.0,-215.0,118.0,135.0,168,172,168,167,125
2025-02-25 18:21:32.087,1220.0,-2555.0,221.0,-253.0,76.0,168.0,168,171,167,166,126
2025-02-25 18:21:32.094,929.0,-2411.0,-26.0,-274.0,34.0,190.0,170,172,169,169,127
2025-02-25 18:21:32.098,691.0,-2284.0,-134.0,-273.0,-3.0,207.0,168,169,166,164,126
2025-02-25 18:21:32.104,560.0,-2163.0,-260.0,-251.0,-33.0,213.0,163,165,164,162,122
2025-02-25 18:21:32.111,544.0,-1973.0,-205.0,-220.0,-48.0,208.0,167,170,168,167,127
2025-02-25 18:21:32.115,488.0,-1896.0,-160.0,-187.0,-72.0,197.0,163,164,162,162,122
2025-02-25 18:21:32.123,431.0,-1771.0,4.0,-153.0,-93.0,191.0,163,163,161,163,123
2025-02-25 18:21:32.127,479.0,-1680.0,129.0,-125.0,-108.0,181.0,167,165,165,167,128
2025-02-25 18:21:32.132,441.0,-1541.0,182.0,-101.0,-120.0,176.0,170,168,167,170,131
2025-02-25 18:21:32.140,395.0,-1415.0,254.0,-80.0,-125.0,176.0,167,165,166,168,130
2025-02-25 18:21:32.143,415.0,-1325.0,330.0,-62.0,-123.0,180.0,166,166,165,166,129
2025-02-25 18:21:32.148,412.0,-1216.0,381.0,-54.0,-115.0,187.0,167,164,165,168,129
2025-02-25 18:21:32.156,323.0,-1151.0,442.0,-39.0,-103.0,198.0,165,167,167,168,130
2025-02-25 18:21:32.161,208.0,-1105.0,423.0,-25.0,-99.0,210.0,162,160,169,162,126
2025-02-25 18:21:32.165,171.0,-1060.0,433.0,-6.0,-87.0,224.0,161,159,164,163,125
2025-02-25 18:21:32.172,49.0,-1048.0,498.0,26.0,-71.0,232.0,161,157,160,161,123
2025-02-25 18:21:32.177,-20.0,-947.0,418.0,34.0,-58.0,243.0,166,164,166,166,132
2025-02-25 18:21:32.181,32.0,-780.0,429.0,42.0,-41.0,247.0,163,162,167,167,132
2025-02-25 18:21:32.189,47.0,-646.0,452.0,45.0,-20.0,250.0,159,159,166,164,132
2025-02-25 18:21:32.193,-8.0,-442.0,351.0,53.0,-15.0,240.0,158,159,164,162,132
2025-02-25 18:21:32.197,-63.0,-398.0,384.0,49.0,1.0,232.0,158,158,164,160,133
2025-02-25 18:21:32.201,-239.0,-316.0,435.0,27.0,24.0,216.0,159,159,165,161,134
2025-02-25 18:21:32.209,-341.0,-245.0,508.0,9.0,53.0,201.0,158,156,162,157,132
2025-02-25 18:21:32.213,-415.0,-214.0,480.0,-11.0,64.0,187.0,159,154,161,157,132
2025-02-25 18:21:32.217,-509.0,-198.0,494.0,-32.0,80.0,174.0,155,149,153,154,131
2025-02-25 18:21:32.225,-495.0,-236.0,331.0,-33.0,82.0,168.0,160,151,157,155,135
2025-02-25 18:21:32.229,-520.0,-225.0,313.0,-41.0,74.0,156.0,160,149,154,152,134
2025-02-25 18:21:32.234,-562.0,-201.0,208.0,-42.0,72.0,145.0,164,150,153,152,135
2025-02-25 18:21:32.242,-655.0,-320.0,65.0,-42.0,65.0,136.0,164,148,150,152,135
2025-02-25 18:21:32.246,-680.0,-306.0,32.0,-43.0,62.0,128.0,160,142,142,145,130
2025-02-25 18:21:32.250,-592.0,-299.0,-203.0,-40.0,55.0,124.0,160,137,131,142,128
2025-02-25 18:21:32.258,-692.0,-332.0,-27.0,-35.0,53.0,120.0,168,143,144,148,133
2025-02-25 18:21:32.263,-659.0,-383.0,-36.0,-29.0,56.0,116.0,168,141,140,145,134
2025-02-25 18:21:32.266,-806.0,-415.0,-237.0,-34.0,42.0,120.0,169,135,139,143,133
2025-02-25 18:21:32.271,-908.0,-354.0,-112.0,-29.0,38.0,119.0,174,140,141,144,136
2025-02-25 18:21:32.279,-890.0,-370.0,-102.0,-25.0,36.0,117.0,168,130,132,135,130
2025-02-25 18:21:32.283,-945.0,-398.0,-119.0,-35.0,23.0,110.0,168,128,131,133,128
2025-02-25 18:21:32.288,-912.0,-357.0,-234.0,-50.0,9.0,109.0,168,125,129,131,128
2025-02-25 18:21:32.295,-828.0,-278.0,-200.0,-57.0,-12.0,104.0,175,130,133,137,134
2025-02-25 18:21:32.299,-780.0,-244.0,-197.0,-75.0,-25.0,97.0,174,123,125,134,133
2025-02-25 18:21:32.308,-778.0,-226.0,-333.0,-97.0,-48.0,88.0,177,120,129,136,134
2025-02-25 18:21:32.312,-808.0,-47.0,-46.0,-98.0,-45.0,86.0,176,115,126,134,133
2025-02-25 18:21:32.316,-844.0,38.0,53.0,-109.0,-41.0,88.0,172,109,120,131,130
2025-02-25 18:21:32.321,-900.0,126.0,50.0,-109.0,-42.0,90.0,174,106,121,130,126
2025-02-25 18:21:32.328,-891.0,198.0,166.0,-106.0,-33.0,89.0,177,109,125,137,132
2025-02-25 18:21:32.332,-1006.0,301.0,134.0,-115.0,-25.0,76.0,181,110,128,140,134
2025-02-25 18:21:32.337,-1200.0,358.0,-19.0,-119.0,-26.0,55.0,178,104,121,135,126
2025-02-25 18:21:32.344,-1252.0,592.0,151.0,-123.0,-15.0,32.0,178,102,120,135,125
2025-02-25 18:21:32.349,-1250.0,731.0,67.0,-122.0,-12.0,14.0,177,99,115,132,120
2025-02-25 18:21:32.353,-1320.0,780.0,146.0,-104.0,-2.0,4.0,174,99,115,133,118
2025-02-25 18:21:32.360,-1420.0,807.0,176.0,-89.0,20.0,-20.0,178,103,118,136,117
2025-02-25 18:21:32.365,-1333.0,893.0,216.0,-72.0,39.0,-53.0,181,102,116,136,118
2025-02-25 18:21:32.369,-1291.0,979.0,206.0,-64.0,60.0,-95.0,179,93,114,133,115
2025-02-25 18:21:32.377,-1313.0,1014.0,34.0,-27.0,61.0,-133.0,178,98,112,134,112
2025-02-25 18:21:32.381,-1325.0,1068.0,133.0,16.0,69.0,-172.0,176,96,110,133,112
2025-02-25 18:21:32.385,-1348.0,1078.0,86.0,70.0,72.0,-188.0,177,97,110,133,111
2025-02-25 18:21:32.394,-1268.0,1039.0,83.0,113.0,68.0,-224.0,180,99,111,137,115
2025-02-25 18:21:32.398,-1298.0,1030.0,91.0,143.0,62.0,-266.0,178,94,107,131,109
2025-02-25 18:21:32.402,-1139.0,991.0,177.0,156.0,49.0,-301.0,177,93,105,131,108
2025-02-25 18:21:32.406,-931.0,1017.0,122.0,166.0,41.0,-339.0,172,89,101,127,104
2025-02-25 18:21:32.414,-761.0,1031.0,82.0,160.0,19.0,-386.0,174,90,103,129,107
2025-02-25 18:21:32.418,-597.0,1035.0,0.0,127.0,-4.0,-413.0,176,93,102,129,109
2025-02-25 18:21:32.422,-321.0,1029.0,-89.0,73.0,-37.0,-456.0,175,92,102,130,107
2025-02-25 18:21:32.430,80.0,845.0,-206.0,48.0,-71.0,-487.0,174,89,97,126,105
2025-02-25 18:21:32.435,288.0,446.0,-202.0,12.0,-83.0,-494.0,173,88,97,124,104
2025-02-25 18:21:32.439,954.0,214.0,-318.0,-4.0,-122.0,-500.0,169,84,92,122,101
2025-02-25 18:21:32.444,1020.0,-476.0,-82.0,-4.0,-147.0,-520.0,177,90,99,126,106
2025-02-25 18:21:32.451,1211.0,-1140.0,144.0,13.0,-167.0,-520.0,175,89,98,121,107
2025-02-25 18:21:32.455,1734.0,-1866.0,-10.0,-8.0,-199.0,-491.0,174,92,97,123,106
2025-02-25 18:21:32.463,1795.0,-2549.0,176.0,21.0,-196.0,-447.0,172,89,96,119,105
2025-02-25 18:21:32.467,2115.0,-3505.0,466.0,44.0,-183.0,-362.0,173,87,98,119,103
2025-02-25 18:21:32.472,2652.0,-4323.0,848.0,46.0,-126.0,-250.0,175,89,98,117,105
2025-02-25 18:21:32.480,2849.0,-4678.0,1032.0,78.0,-43.0,-188.0,174,90,98,114,103
2025-02-25 18:21:32.484,2843.0,-5010.0,808.0,161.0,62.0,-83.0,178,91,101,114,107
2025-02-25 18:21:32.488,2873.0,-4828.0,810.0,283.0,147.0,-14.0,179,91,104,110,105
2025-02-25 18:21:32.496,2940.0,-4184.0,541.0,328.0,146.0,23.0,179,91,106,109,105
2025-02-25 18:21:32.500,2247.0,-3577.0,496.0,342.0,146.0,48.0,176,87,102,104,102
2025-02-25 18:21:32.504,2162.0,-2954.0,197.0,235.0,166.0,96.0,175,88,102,108,101
2025-02-25 18:21:32.509,1557.0,-2744.0,-91.0,102.0,196.0,120.0,175,85,97,103,100
2025-02-25 18:21:32.517,1118.0,-2246.0,-294.0,4.0,120.0,162.0,181,92,104,112,106
2025-02-25 18:21:32.521,749.0,-1897.0,-160.0,-70.0,7.0,175.0,181,94,104,111,105
2025-02-25 18:21:32.525,648.0,-1626.0,-309.0,-89.0,-11.0,178.0,176,92,99,112,105
2025-02-25 18:21:32.533,558.0,-1694.0,-323.0,-125.0,-4.0,174.0,180,91,100,114,106
2025-02-25 18:21:32.537,708.0,-1935.0,-156.0,-137.0,-22.0,165.0,173,88,97,110,101
2025-02-25 18:21:32.541,540.0,-1994.0,22.0,-128.0,-23.0,164.0,174,88,96,112,102
2025-02-25 18:21:32.549,613.0,-1980.0,207.0,-140.0,13.0,170.0,180,94,101,118,108
2025-02-25 18:21:32.553,603.0,-2117.0,256.0,-166.0,36.0,185.0,180,94,103,121,109
2025-02-25 18:21:32.557,562.0,-2061.0,392.0,-158.0,-2.0,208.0,178,90,98,117,105
2025-02-25 18:21:32.566,511.0,-1708.0,402.0,-138.0,-38.0,222.0,176,89,98,116,103
2025-02-25 18:21:32.570,453.0,-1394.0,6.0,-109.0,-32.0,224.0,176,87,98,115,104
2025-02-25 18:21:32.574,372.0,-1495.0,226.0,-140.0,-3.0,223.0,180,94,102,119,108
2025-02-25 18:21:32.578,177.0,-1178.0,45.0,-95.0,4.0,219.0,178,93,100,119,108
2025-02-25 18:21:32.586,48.0,-1110.0,87.0,-74.0,-43.0,217.0,179,91,100,115,106
2025-02-25 18:21:32.590,41.0,-861.0,151.0,-67.0,-64.0,213.0,176,89,100,112,102
2025-02-25 18:21:32.595,-129.0,-841.0,131.0,-47.0,-78.0,210.0,177,89,99,113,104
2025-02-25 18:21:32.603,-253.0,-678.0,170.0,-65.0,-62.0,207.0,181,93,104,118,107
2025-02-25 18:21:32.607,-321.0,-581.0,179.0,-67.0,-71.0,207.0,181,93,105,116,107
2025-02-25 18:21:32.611,-311.0,-564.0,194.0,-52.0,-94.0,200.0,184,95,107,120,111
2025-02-25 18:21:32.619,-356.0,-342.0,218.0,-50.0,-91.0,197.0,177,89,100,114,104
2025-02-25 18:21:32.623,-437.0,-302.0,172.0,-56.0,-79.0,192.0,177,89,100,115,102
2025-02-25 18:21:32.627,-483.0,-247.0,192.0,-66.0,-61.0,188.0,175,88,95,113,102
2025-02-25 18:21:32.635,-610.0,-179.0,211.0,-75.0,-59.0,183.0,180,94,106,119,110
2025-02-25 18:21:32.639,-642.0,-44.0,210.0,-76.0,-52.0,169.0,181,93,104,120,108
2025-02-25 18:21:32.643,-611.0,60.0,288.0,-79.0,-30.0,149.0,180,93,102,118,108
2025-02-25 18:21:32.648,-625.0,96.0,327.0,-81.0,-21.0,130.0,177,92,100,117,104
2025-02-25 18:21:32.655,-618.0,122.0,381.0,-84.0,-5.0,121.0,176,89,98,116,103
2025-02-25 18:21:32.660,-602.0,100.0,449.0,-93.0,11.0,106.0,182,96,102,121,109
2025-02-25 18:21:32.664,-712.0,11.0,355.0,-84.0,25.0,96.0,181,93,103,119,106
2025-02-25 18:21:32.668,-711.0,-38.0,353.0,-75.0,28.0,88.0,177,90,98,114,103
