timestamp,ax,ay,az,gx,gy,gz,flex1,flex2,flex3,flex4,flex5,emg1,emg2,emg3
2025-02-25 18:59:46.581,-238.0,-882.0,447.0,0.0,2.0,-1.0,143,123,112,126,136
2025-02-25 18:59:46.584,-232.0,-881.0,457.0,0.0,2.0,-2.0,144,123,114,127,136
2025-02-25 18:59:46.586,-235.0,-873.0,448.0,0.0,2.0,-2.0,142,121,112,124,134
2025-02-25 18:59:46.588,-244.0,-875.0,447.0,1.0,3.0,-2.0,144,122,114,126,136
2025-02-25 18:59:46.590,-247.0,-867.0,450.0,1.0,3.0,-2.0,144,123,114,127,135
2025-02-25 18:59:46.593,-252.0,-868.0,448.0,1.0,3.0,-2.0,143,123,114,126,135
2025-02-25 18:59:46.596,-252.0,-869.0,449.0,2.0,3.0,-3.0,144,123,114,126,135
2025-02-25 18:59:46.598,-259.0,-864.0,447.0,2.0,2.0,-3.0,144,122,113,126,135
2025-02-25 18:59:46.600,-262.0,-866.0,443.0,2.0,1.0,-3.0,144,122,112,123,135
2025-02-25 18:59:46.603,-255.0,-859.0,457.0,2.0,3.0,-4.0,145,124,116,127,136
2025-02-25 18:59:46.605,-272.0,-861.0,416.0,2.0,0.0,-3.0,144,122,113,126,136
2025-02-25 18:59:46.607,-270.0,-839.0,464.0,0.0,0.0,-4.0,143,122,112,124,134
2025-02-25 18:59:46.609,-259.0,-849.0,469.0,1.0,1.0,-5.0,145,121,114,127,136
2025-02-25 18:59:46.612,-260.0,-862.0,422.0,1.0,-1.0,-5.0,144,124,111,128,135
2025-02-25 18:59:46.615,-261.0,-863.0,438.0,0.0,-1.0,-5.0,144,121,113,126,134
2025-02-25 18:59:46.617,-243.0,-868.0,450.0,0.0,-2.0,-5.0,142,122,115,127,134
2025-02-25 18:59:46.619,-247.0,-876.0,453.0,-1.0,-4.0,-5.0,144,123,114,127,135
2025-02-25 18:59:46.622,-243.0,-876.0,436.0,-3.0,-5.0,-4.0,145,124,114,127,136
2025-02-25 18:59:46.624,-239.0,-877.0,444.0,-3.0,-4.0,-4.0,145,125,114,127,136
2025-02-25 18:59:46.627,-227.0,-881.0,450.0,-4.0,-3.0,-4.0,145,124,114,127,135
2025-02-25 18:59:46.629,-225.0,-891.0,462.0,-4.0,-3.0,-4.0,143,122,113,126,135
2025-02-25 18:59:46.631,-225.0,-901.0,460.0,-4.0,-2.0,-4.0,146,125,115,126,137
2025-02-25 18:59:46.634,-229.0,-907.0,450.0,-4.0,-2.0,-4.0,144,123,114,127,136
2025-02-25 18:59:46.636,-224.0,-904.0,455.0,-4.0,-1.0,-3.0,144,122,112,124,135
2025-02-25 18:59:46.638,-229.0,-899.0,438.0,-5.0,-3.0,-2.0,144,123,114,126,136
2025-02-25 18:59:46.641,-227.0,-908.0,442.0,-5.0,-3.0,-1.0,145,124,114,127,136
2025-02-25 18:59:46.643,-226.0,-900.0,440.0,-6.0,-3.0,-1.0,144,123,112,126,135
2025-02-25 18:59:46.645,-226.0,-903.0,446.0,-5.0,-2.0,-1.0,144,123,113,127,135
2025-02-25 18:59:46.647,-230.0,-904.0,443.0,-5.0,-2.0,-1.0,143,123,115,127,136
2025-02-25 18:59:46.650,-232.0,-901.0,441.0,-4.0,-1.0,-1.0,144,124,115,126,136
2025-02-25 18:59:46.652,-233.0,-900.0,435.0,-3.0,-1.0,-1.0,144,123,113,125,135
2025-02-25 18:59:46.654,-237.0,-899.0,432.0,-2.0,0.0,-1.0,144,123,115,126,136
2025-02-25 18:59:46.656,-237.0,-904.0,430.0,-2.0,0.0,-1.0,145,124,114,125,136
2025-02-25 18:59:46.658,-232.0,-903.0,428.0,-2.0,0.0,-2.0,144,123,114,127,136
2025-02-25 18:59:46.660,-232.0,-897.0,432.0,-1.0,-1.0,-1.0,143,122,112,126,134
2025-02-25 18:59:46.663,-238.0,-900.0,433.0,-1.0,0.0,-1.0,145,123,113,127,135
2025-02-25 18:59:46.665,-231.0,-891.0,436.0,0.0,0.0,-1.0,145,124,114,126,136
2025-02-25 18:59:46.667,-230.0,-895.0,432.0,0.0,0.0,-1.0,144,123,113,126,136
2025-02-25 18:59:46.669,-230.0,-899.0,424.0,1.0,0.0,-1.0,142,122,112,125,135
2025-02-25 18:59:46.672,-233.0,-890.0,427.0,1.0,0.0,-1.0,145,123,114,127,136
2025-02-25 18:59:46.674,-230.0,-888.0,428.0,1.0,0.0,0.0,145,125,115,126,136
2025-02-25 18:59:46.676,-225.0,-886.0,420.0,1.0,0.0,0.0,144,123,114,125,134
2025-02-25 18:59:46.678,-229.0,-893.0,424.0,1.0,0.0,0.0,145,123,114,127,137
2025-02-25 18:59:46.680,-233.0,-892.0,430.0,1.0,-1.0,0.0,145,124,114,126,136
2025-02-25 18:59:46.683,-230.0,-894.0,437.0,1.0,-1.0,0.0,144,124,112,126,135
2025-02-25 18:59:46.685,-235.0,-893.0,435.0,1.0,-1.0,0.0,145,124,114,126,136
2025-02-25 18:59:46.687,-237.0,-890.0,443.0,1.0,-1.0,1.0,145,123,110,126,136
2025-02-25 18:59:46.690,-248.0,-899.0,437.0,1.0,-1.0,1.0,144,122,114,126,135
2025-02-25 18:59:46.692,-247.0,-891.0,439.0,1.0,-2.0,1.0,145,122,111,125,134
2025-02-25 18:59:46.694,-239.0,-884.0,443.0,1.0,-2.0,1.0,145,124,115,126,137
2025-02-25 18:59:46.696,-245.0,-898.0,437.0,1.0,-2.0,1.0,144,123,114,128,136
2025-02-25 18:59:46.698,-242.0,-888.0,449.0,0.0,-2.0,1.0,144,122,113,125,135
2025-02-25 18:59:46.700,-239.0,-886.0,447.0,0.0,-3.0,1.0,144,127,114,127,139
2025-02-25 18:59:46.702,-242.0,-886.0,449.0,0.0,-2.0,0.0,144,124,114,128,136
2025-02-25 18:59:46.704,-240.0,-879.0,444.0,1.0,-2.0,0.0,142,122,114,125,136
2025-02-25 18:59:46.706,-238.0,-879.0,446.0,1.0,-3.0,0.0,144,123,114,125,134
2025-02-25 18:59:46.708,-238.0,-873.0,447.0,1.0,-2.0,0.0,144,128,115,128,138
2025-02-25 18:59:46.713,-231.0,-875.0,444.0,1.0,-2.0,0.0,146,124,114,127,135
2025-02-25 18:59:46.718,-237.0,-870.0,443.0,1.0,-2.0,0.0,143,122,110,126,135
2025-02-25 18:59:46.722,-238.0,-873.0,447.0,1.0,-2.0,0.0,143,125,114,127,136
2025-02-25 18:59:46.726,-236.0,-874.0,445.0,2.0,-2.0,0.0,145,129,114,126,136
2025-02-25 18:59:46.734,-246.0,-871.0,450.0,2.0,-2.0,0.0,143,122,113,125,136
2025-02-25 18:59:46.738,-240.0,-874.0,455.0,2.0,-1.0,0.0,143,121,113,126,135
2025-02-25 18:59:46.742,-244.0,-879.0,456.0,2.0,-1.0,0.0,145,123,112,126,136
2025-02-25 18:59:46.747,-247.0,-880.0,458.0,2.0,-1.0,0.0,151,125,113,128,136
2025-02-25 18:59:46.751,-247.0,-865.0,461.0,3.0,1.0,-1.0,145,122,113,126,135
2025-02-25 18:59:46.758,-251.0,-890.0,442.0,4.0,0.0,0.0,143,121,114,127,139
2025-02-25 18:59:46.763,-240.0,-884.0,460.0,3.0,0.0,-1.0,145,124,114,126,135
2025-02-25 18:59:46.767,-238.0,-883.0,444.0,3.0,0.0,-1.0,143,124,114,124,135
2025-02-25 18:59:46.771,-250.0,-898.0,452.0,-1.0,-2.0,-1.0,145,123,114,126,136
2025-02-25 18:59:46.779,-244.0,-884.0,458.0,-1.0,-2.0,-1.0,145,124,113,129,136
2025-02-25 18:59:46.784,-235.0,-901.0,445.0,0.0,-1.0,-1.0,144,123,113,126,136
2025-02-25 18:59:46.788,-234.0,-908.0,453.0,1.0,-1.0,-1.0,144,123,114,126,136
2025-02-25 18:59:46.792,-233.0,-909.0,450.0,1.0,-2.0,0.0,144,123,113,127,136
2025-02-25 18:59:46.800,-220.0,-902.0,467.0,-2.0,-2.0,0.0,144,124,113,127,136
2025-02-25 18:59:46.804,-231.0,-914.0,446.0,-2.0,-3.0,2.0,144,117,112,126,136
2025-02-25 18:59:46.808,-233.0,-918.0,474.0,-1.0,-2.0,2.0,146,123,113,127,136
2025-02-25 18:59:46.813,-229.0,-920.0,453.0,0.0,-3.0,3.0,147,125,112,126,135
2025-02-25 18:59:46.820,-230.0,-928.0,482.0,1.0,-3.0,3.0,144,123,113,126,136
2025-02-25 18:59:46.825,-246.0,-924.0,459.0,-1.0,-4.0,4.0,143,122,111,126,135
2025-02-25 18:59:46.829,-233.0,-917.0,472.0,-1.0,-3.0,5.0,144,123,114,126,136
2025-02-25 18:59:46.833,-239.0,-936.0,458.0,0.0,-3.0,5.0,144,124,114,128,136
2025-02-25 18:59:46.841,-234.0,-934.0,477.0,0.0,-3.0,6.0,146,123,114,126,135
2025-02-25 18:59:46.845,-235.0,-937.0,468.0,0.0,-3.0,7.0,143,122,114,125,133
2025-02-25 18:59:46.849,-215.0,-938.0,479.0,0.0,-3.0,7.0,147,124,115,128,136
2025-02-25 18:59:46.854,-194.0,-938.0,482.0,1.0,-1.0,7.0,145,123,114,126,137
2025-02-25 18:59:46.861,-194.0,-959.0,467.0,1.0,-2.0,8.0,143,124,113,127,136
2025-02-25 18:59:46.866,-190.0,-951.0,475.0,0.0,-2.0,9.0,143,122,111,125,134
2025-02-25 18:59:46.870,-191.0,-927.0,467.0,1.0,1.0,11.0,145,124,115,128,137
2025-02-25 18:59:46.874,-213.0,-911.0,455.0,2.0,3.0,13.0,146,125,116,127,136
2025-02-25 18:59:46.881,-214.0,-890.0,450.0,4.0,4.0,14.0,144,123,113,126,135
2025-02-25 18:59:46.885,-230.0,-881.0,448.0,5.0,7.0,15.0,144,124,114,127,135
2025-02-25 18:59:46.890,-245.0,-868.0,433.0,5.0,8.0,16.0,146,124,114,127,136
2025-02-25 18:59:46.894,-249.0,-849.0,437.0,6.0,9.0,16.0,143,124,114,125,135
2025-02-25 18:59:46.898,-263.0,-848.0,431.0,7.0,10.0,16.0,143,122,112,126,135
2025-02-25 18:59:46.906,-285.0,-847.0,442.0,10.0,9.0,15.0,146,125,114,125,136
2025-02-25 18:59:46.910,-288.0,-822.0,440.0,11.0,9.0,13.0,145,125,114,129,136
2025-02-25 18:59:46.914,-297.0,-828.0,443.0,13.0,10.0,11.0,144,122,112,125,135
2025-02-25 18:59:46.922,-314.0,-829.0,454.0,13.0,10.0,10.0,144,122,112,125,139
2025-02-25 18:59:46.926,-313.0,-815.0,466.0,16.0,10.0,8.0,143,124,114,126,135
2025-02-25 18:59:46.931,-313.0,-818.0,457.0,17.0,10.0,5.0,144,124,115,126,136
2025-02-25 18:59:46.935,-315.0,-815.0,455.0,18.0,10.0,2.0,143,124,113,125,134
2025-02-25 18:59:46.942,-300.0,-819.0,461.0,19.0,9.0,1.0,144,122,111,126,135
2025-02-25 18:59:46.947,-289.0,-834.0,457.0,17.0,8.0,0.0,145,123,115,125,136
2025-02-25 18:59:46.951,-292.0,-826.0,475.0,14.0,10.0,-1.0,144,124,113,125,136
2025-02-25 18:59:46.955,-258.0,-719.0,407.0,5.0,13.0,-2.0,145,121,111,126,134
2025-02-25 18:59:46.963,-308.0,-967.0,532.0,0.0,19.0,-1.0,144,122,114,128,137
2025-02-25 18:59:46.967,-290.0,-569.0,180.0,-30.0,41.0,2.0,149,125,114,129,136
2025-02-25 18:59:46.972,-388.0,-1345.0,392.0,-11.0,23.0,2.0,145,123,113,126,136
2025-02-25 18:59:46.976,-283.0,-412.0,533.0,15.0,-8.0,0.0,144,122,110,126,136
2025-02-25 18:59:46.984,-164.0,-921.0,924.0,20.0,-29.0,-2.0,145,123,114,128,136
2025-02-25 18:59:46.988,-291.0,-766.0,531.0,-1.0,-6.0,1.0,144,123,115,130,137
2025-02-25 18:59:46.993,-396.0,-961.0,38.0,-2.0,0.0,6.0,143,123,113,126,136
2025-02-25 18:59:46.997,-353.0,-836.0,432.0,-5.0,2.0,6.0,143,121,111,124,135
2025-02-25 18:59:47.005,-243.0,-867.0,656.0,-15.0,6.0,6.0,144,123,113,126,136
2025-02-25 18:59:47.009,-309.0,-912.0,610.0,-2.0,-7.0,6.0,147,125,115,128,137
2025-02-25 18:59:47.013,-321.0,-966.0,409.0,-3.0,-7.0,7.0,145,124,115,126,135
2025-02-25 18:59:47.017,-315.0,-868.0,434.0,-3.0,-1.0,6.0,144,122,118,126,135
2025-02-25 18:59:47.025,-276.0,-791.0,283.0,-31.0,8.0,7.0,147,125,114,127,136
2025-02-25 18:59:47.029,-306.0,-997.0,427.0,-9.0,-2.0,7.0,145,124,113,128,138
2025-02-25 18:59:47.034,-276.0,-920.0,631.0,5.0,-9.0,5.0,144,121,113,125,135
2025-02-25 18:59:47.038,-241.0,-831.0,539.0,-1.0,-14.0,4.0,142,122,111,128,135
2025-02-25 18:59:47.046,-268.0,-869.0,448.0,0.0,-3.0,3.0,147,122,114,127,135
2025-02-25 18:59:47.050,-243.0,-836.0,290.0,1.0,-4.0,3.0,144,122,114,127,137
2025-02-25 18:59:47.054,-238.0,-891.0,492.0,3.0,-4.0,1.0,144,122,114,126,134
2025-02-25 18:59:47.059,-229.0,-857.0,469.0,-1.0,-5.0,2.0,145,122,115,126,136
2025-02-25 18:59:47.066,-215.0,-882.0,473.0,-2.0,-7.0,2.0,145,124,114,128,136
2025-02-25 18:59:47.070,-233.0,-881.0,458.0,-2.0,-6.0,2.0,149,125,117,130,138
2025-02-25 18:59:47.074,-262.0,-875.0,451.0,-7.0,-5.0,3.0,146,125,116,128,138
2025-02-25 18:59:47.079,-253.0,-866.0,461.0,-3.0,-4.0,5.0,149,127,117,131,141
2025-02-25 18:59:47.086,-261.0,-901.0,437.0,-2.0,-3.0,6.0,150,128,118,130,139
2025-02-25 18:59:47.090,-252.0,-877.0,459.0,-5.0,4.0,6.0,146,125,116,128,138
2025-02-25 18:59:47.095,-225.0,-871.0,395.0,3.0,3.0,5.0,147,124,118,129,138
2025-02-25 18:59:47.099,-306.0,-930.0,407.0,3.0,-1.0,8.0,147,125,117,130,138
2025-02-25 18:59:47.106,-286.0,-891.0,443.0,6.0,1.0,9.0,147,126,116,130,138
2025-02-25 18:59:47.111,-265.0,-903.0,437.0,8.0,0.0,9.0,148,126,115,130,138
2025-02-25 18:59:47.115,-286.0,-928.0,443.0,8.0,-3.0,9.0,149,123,117,129,138
2025-02-25 18:59:47.119,-286.0,-891.0,462.0,10.0,-2.0,7.0,149,124,118,130,139
2025-02-25 18:59:47.127,-280.0,-883.0,450.0,10.0,-1.0,6.0,144,123,116,127,137
2025-02-25 18:59:47.131,-277.0,-908.0,455.0,11.0,-3.0,6.0,143,123,113,127,136
2025-02-25 18:59:47.136,-251.0,-906.0,496.0,11.0,-1.0,4.0,147,124,115,129,139
2025-02-25 18:59:47.140,-261.0,-917.0,458.0,16.0,-3.0,4.0,146,125,117,128,137
2025-02-25 18:59:47.147,-266.0,-910.0,437.0,11.0,-5.0,2.0,146,124,116,130,139
2025-02-25 18:59:47.152,-263.0,-903.0,451.0,10.0,-3.0,2.0,147,126,114,129,139
2025-02-25 18:59:47.156,-313.0,-952.0,395.0,14.0,-10.0,2.0,149,125,116,129,138
2025-02-25 18:59:47.161,-287.0,-919.0,501.0,12.0,-4.0,-1.0,146,126,116,129,139
2025-02-25 18:59:47.168,-279.0,-923.0,407.0,7.0,-8.0,0.0,147,126,118,131,139
2025-02-25 18:59:47.172,-282.0,-909.0,561.0,8.0,-5.0,-1.0,150,126,115,128,139
2025-02-25 18:59:47.176,-304.0,-915.0,511.0,3.0,-3.0,0.0,148,126,116,130,142
2025-02-25 18:59:47.181,-300.0,-914.0,461.0,-1.0,-7.0,1.0,148,125,115,129,138
2025-02-25 18:59:47.188,-282.0,-918.0,519.0,-6.0,-5.0,3.0,148,122,116,129,137
2025-02-25 18:59:47.192,-294.0,-937.0,495.0,-6.0,-4.0,4.0,147,124,116,130,140
2025-02-25 18:59:47.197,-306.0,-940.0,448.0,-12.0,-7.0,7.0,147,128,117,130,142
2025-02-25 18:59:47.201,-275.0,-950.0,519.0,-9.0,-5.0,7.0,147,123,115,127,137
2025-02-25 18:59:47.208,-307.0,-1002.0,498.0,-10.0,-7.0,8.0,148,126,114,129,137
2025-02-25 18:59:47.213,-266.0,-984.0,528.0,-8.0,-3.0,7.0,150,126,115,130,138
2025-02-25 18:59:47.217,-291.0,-1017.0,533.0,-8.0,-3.0,7.0,147,127,116,130,139
2025-02-25 18:59:47.221,-257.0,-984.0,585.0,-12.0,2.0,6.0,146,126,117,129,138
2025-02-25 18:59:47.229,-252.0,-976.0,532.0,-10.0,3.0,5.0,151,130,120,133,140
2025-02-25 18:59:47.233,-279.0,-1021.0,508.0,-6.0,-7.0,7.0,153,131,123,136,146
2025-02-25 18:59:47.238,-255.0,-987.0,578.0,-2.0,-5.0,4.0,151,128,122,135,144
2025-02-25 18:59:47.245,-241.0,-1002.0,517.0,-4.0,-9.0,5.0,153,133,123,135,144
2025-02-25 18:59:47.250,-259.0,-986.0,523.0,0.0,-10.0,6.0,152,132,124,139,145
2025-02-25 18:59:47.254,-254.0,-982.0,486.0,12.0,-10.0,7.0,154,131,121,135,145
2025-02-25 18:59:47.259,-248.0,-987.0,534.0,6.0,-11.0,8.0,153,129,122,138,145
2025-02-25 18:59:47.266,-259.0,-973.0,512.0,2.0,-14.0,11.0,154,131,122,134,142
2025-02-25 18:59:47.271,-224.0,-986.0,531.0,7.0,-17.0,17.0,152,130,118,133,142
2025-02-25 18:59:47.275,-254.0,-977.0,542.0,9.0,-16.0,17.0,151,128,121,135,143
2025-02-25 18:59:47.280,-227.0,-928.0,528.0,10.0,-12.0,20.0,151,131,121,134,142
2025-02-25 18:59:47.287,-225.0,-942.0,537.0,10.0,-8.0,23.0,152,131,122,132,139
2025-02-25 18:59:47.291,-240.0,-961.0,496.0,9.0,-12.0,26.0,149,128,119,132,141
2025-02-25 18:59:47.296,-222.0,-918.0,569.0,3.0,-8.0,26.0,156,127,119,129,139
2025-02-25 18:59:47.303,-229.0,-918.0,557.0,4.0,-6.0,27.0,151,129,121,133,142
2025-02-25 18:59:47.308,-253.0,-912.0,543.0,2.0,-6.0,28.0,151,129,120,132,141
2025-02-25 18:59:47.312,-238.0,-908.0,579.0,2.0,-4.0,26.0,150,128,118,134,142
2025-02-25 18:59:47.316,-228.0,-910.0,537.0,2.0,4.0,25.0,149,127,123,131,141
2025-02-25 18:59:47.324,-264.0,-896.0,515.0,-2.0,1.0,24.0,152,131,121,134,142
2025-02-25 18:59:47.328,-246.0,-871.0,607.0,0.0,7.0,22.0,153,128,118,134,141
2025-02-25 18:59:47.332,-258.0,-836.0,555.0,0.0,7.0,21.0,146,124,114,128,136
2025-02-25 18:59:47.337,-251.0,-815.0,584.0,-5.0,16.0,19.0,145,124,118,128,136
2025-02-25 18:59:47.344,-283.0,-786.0,514.0,-5.0,17.0,18.0,142,122,111,123,133
2025-02-25 18:59:47.349,-321.0,-803.0,358.0,5.0,0.0,21.0,142,120,110,123,135
2025-02-25 18:59:47.353,-334.0,-798.0,520.0,15.0,2.0,19.0,142,118,110,122,132
2025-02-25 18:59:47.357,-310.0,-786.0,493.0,8.0,6.0,19.0,142,119,111,123,131
2025-02-25 18:59:47.365,-312.0,-750.0,542.0,5.0,15.0,18.0,142,119,110,124,133
2025-02-25 18:59:47.369,-360.0,-743.0,543.0,8.0,20.0,16.0,142,119,111,124,133
2025-02-25 18:59:47.373,-348.0,-743.0,500.0,18.0,26.0,16.0,142,118,109,124,132
2025-02-25 18:59:47.377,-317.0,-750.0,589.0,9.0,25.0,15.0,143,120,112,124,131
2025-02-25 18:59:47.385,-351.0,-749.0,543.0,5.0,24.0,16.0,142,122,110,123,134
2025-02-25 18:59:47.389,-376.0,-768.0,516.0,-14.0,23.0,15.0,142,119,109,124,133
2025-02-25 18:59:47.394,-362.0,-735.0,485.0,-17.0,21.0,13.0,142,120,111,124,134
2025-02-25 18:59:47.398,-345.0,-740.0,447.0,-9.0,20.0,12.0,145,123,114,128,138
2025-02-25 18:59:47.406,-362.0,-756.0,468.0,-1.0,19.0,12.0,147,125,116,128,137
2025-02-25 18:59:47.410,-363.0,-741.0,520.0,-2.0,28.0,10.0,148,129,119,130,139
2025-02-25 18:59:47.414,-336.0,-726.0,487.0,0.0,30.0,8.0,146,124,113,127,137
2025-02-25 18:59:47.422,-372.0,-736.0,479.0,-3.0,29.0,7.0,148,126,117,131,140
2025-02-25 18:59:47.427,-367.0,-737.0,464.0,-8.0,28.0,7.0,144,121,111,127,135
2025-02-25 18:59:47.431,-363.0,-757.0,493.0,-12.0,29.0,6.0,143,122,111,125,134
2025-02-25 18:59:47.435,-362.0,-750.0,449.0,-20.0,25.0,5.0,144,122,113,126,135
2025-02-25 18:59:47.443,-362.0,-747.0,412.0,-13.0,23.0,4.0,143,121,110,124,135
2025-02-25 18:59:47.447,-360.0,-762.0,464.0,-16.0,23.0,4.0,143,122,113,126,133
2025-02-25 18:59:47.451,-355.0,-732.0,482.0,-11.0,26.0,2.0,142,121,113,126,134
2025-02-25 18:59:47.456,-374.0,-790.0,457.0,-17.0,28.0,2.0,142,119,113,124,131
2025-02-25 18:59:47.463,-386.0,-756.0,316.0,-9.0,19.0,3.0,141,121,111,122,133
2025-02-25 18:59:47.468,-385.0,-769.0,309.0,-14.0,14.0,4.0,143,121,107,125,133
2025-02-25 18:59:47.471,-370.0,-720.0,414.0,-12.0,13.0,2.0,143,120,111,124,134
2025-02-25 18:59:47.478,-371.0,-741.0,445.0,-21.0,14.0,1.0,141,118,109,124,133
2025-02-25 18:59:47.484,-380.0,-765.0,450.0,-16.0,10.0,2.0,141,120,109,122,132
2025-02-25 18:59:47.488,-368.0,-738.0,395.0,-17.0,8.0,0.0,142,123,112,125,135
2025-02-25 18:59:47.493,-355.0,-743.0,369.0,-16.0,5.0,-1.0,143,122,110,125,134
2025-02-25 18:59:47.500,-365.0,-725.0,372.0,-19.0,3.0,-2.0,140,120,111,123,134
2025-02-25 18:59:47.504,-361.0,-684.0,417.0,-21.0,4.0,-2.0,142,118,112,125,132
2025-02-25 18:59:47.509,-348.0,-690.0,367.0,-18.0,4.0,-2.0,142,122,111,125,134
2025-02-25 18:59:47.513,-355.0,-695.0,379.0,-18.0,6.0,-4.0,142,120,111,125,133
2025-02-25 18:59:47.520,-380.0,-725.0,344.0,-14.0,4.0,-4.0,143,120,110,123,133
2025-02-25 18:59:47.525,-340.0,-728.0,359.0,-14.0,2.0,-4.0,141,121,111,124,133
2025-02-25 18:59:47.529,-370.0,-740.0,373.0,-11.0,-1.0,-4.0,141,122,112,125,133
2025-02-25 18:59:47.537,-357.0,-745.0,403.0,-14.0,4.0,-5.0,141,118,112,125,133
2025-02-25 18:59:47.541,-351.0,-743.0,351.0,-13.0,1.0,-6.0,142,121,111,123,132
2025-02-25 18:59:47.545,-334.0,-774.0,365.0,-15.0,0.0,-6.0,143,119,110,123,131
2025-02-25 18:59:47.550,-336.0,-767.0,424.0,-13.0,3.0,-7.0,141,119,105,123,133
2025-02-25 18:59:47.558,-322.0,-770.0,383.0,-13.0,5.0,-9.0,142,120,111,123,134
2025-02-25 18:59:47.562,-331.0,-771.0,390.0,-13.0,3.0,-9.0,141,119,111,123,133
2025-02-25 18:59:47.566,-341.0,-788.0,411.0,-9.0,5.0,-9.0,141,118,110,124,132
2025-02-25 18:59:47.571,-317.0,-768.0,393.0,-18.0,7.0,-11.0,141,120,108,123,133
2025-02-25 18:59:47.578,-350.0,-775.0,366.0,-11.0,4.0,-12.0,143,118,106,124,133
2025-02-25 18:59:47.583,-349.0,-779.0,377.0,-7.0,6.0,-13.0,142,121,109,124,133
2025-02-25 18:59:47.587,-341.0,-780.0,395.0,-6.0,8.0,-15.0,141,120,107,124,131
2025-02-25 18:59:47.594,-343.0,-799.0,375.0,-1.0,8.0,-14.0,141,119,108,122,132
2025-02-25 18:59:47.599,-347.0,-772.0,375.0,3.0,5.0,-15.0,140,118,111,123,132
2025-02-25 18:59:47.603,-355.0,-793.0,379.0,5.0,2.0,-16.0,142,123,112,123,133
2025-02-25 18:59:47.607,-322.0,-801.0,422.0,5.0,3.0,-17.0,142,120,111,124,135
2025-02-25 18:59:47.614,-325.0,-840.0,390.0,9.0,2.0,-18.0,141,118,109,122,133
2025-02-25 18:59:47.618,-325.0,-865.0,382.0,4.0,-3.0,-18.0,141,118,109,123,132
2025-02-25 18:59:47.623,-320.0,-860.0,377.0,6.0,-7.0,-19.0,142,122,111,124,133
2025-02-25 18:59:47.627,-304.0,-904.0,449.0,3.0,-5.0,-19.0,143,120,111,124,133
2025-02-25 18:59:47.635,-310.0,-928.0,468.0,1.0,-4.0,-20.0,139,118,110,123,131
2025-02-25 18:59:47.639,-291.0,-947.0,476.0,3.0,-8.0,-19.0,142,119,110,123,132
2025-02-25 18:59:47.644,-290.0,-1020.0,498.0,-4.0,-4.0,-17.0,143,122,111,124,134
2025-02-25 18:59:47.651,-295.0,-1032.0,464.0,-8.0,-7.0,-15.0,143,122,113,125,134
2025-02-25 18:59:47.656,-287.0,-1076.0,486.0,-10.0,-9.0,-12.0,142,120,111,124,133
2025-02-25 18:59:47.660,-290.0,-1107.0,494.0,-16.0,-8.0,-9.0,143,120,110,124,132
2025-02-25 18:59:47.668,-295.0,-1133.0,525.0,-23.0,-7.0,-7.0,140,120,112,121,132
2025-02-25 18:59:47.672,-268.0,-1127.0,499.0,-26.0,-4.0,-6.0,141,117,110,124,133
2025-02-25 18:59:47.677,-278.0,-1184.0,482.0,-32.0,-5.0,-2.0,142,117,113,124,132
2025-02-25 18:59:47.684,-267.0,-1195.0,525.0,-35.0,-2.0,1.0,142,120,109,125,135
2025-02-25 18:59:47.689,-266.0,-1216.0,497.0,-40.0,-2.0,6.0,143,123,114,125,134
2025-02-25 18:59:47.693,-257.0,-1225.0,488.0,-47.0,-4.0,12.0,142,120,110,123,131
2025-02-25 18:59:47.698,-257.0,-1207.0,503.0,-49.0,-1.0,14.0,141,120,110,124,133
2025-02-25 18:59:47.705,-267.0,-1241.0,496.0,-57.0,-1.0,20.0,143,121,112,123,133
2025-02-25 18:59:47.710,-273.0,-1223.0,529.0,-55.0,3.0,25.0,143,120,111,124,135
2025-02-25 18:59:47.714,-275.0,-1206.0,464.0,-58.0,2.0,32.0,141,120,109,123,134
2025-02-25 18:59:47.721,-276.0,-1186.0,467.0,-65.0,2.0,38.0,143,122,110,123,133
2025-02-25 18:59:47.726,-300.0,-1167.0,468.0,-64.0,5.0,41.0,140,121,112,123,134
2025-02-25 18:59:47.730,-322.0,-1146.0,462.0,-64.0,6.0,46.0,142,120,110,119,134
2025-02-25 18:59:47.738,-333.0,-1100.0,418.0,-65.0,10.0,50.0,142,119,111,124,133
2025-02-25 18:59:47.742,-346.0,-1108.0,440.0,-63.0,14.0,54.0,142,119,111,123,133
2025-02-25 18:59:47.745,-371.0,-1090.0,410.0,-53.0,16.0,58.0,142,119,110,126,134
2025-02-25 18:59:47.754,-402.0,-1062.0,373.0,-48.0,16.0,60.0,143,121,111,125,135
2025-02-25 18:59:47.758,-396.0,-1042.0,351.0,-47.0,21.0,60.0,145,121,103,126,135
2025-02-25 18:59:47.763,-411.0,-1007.0,347.0,-41.0,22.0,62.0,144,122,113,128,137
2025-02-25 18:59:47.770,-436.0,-961.0,328.0,-22.0,22.0,62.0,145,124,113,126,137
2025-02-25 18:59:47.774,-455.0,-961.0,350.0,-21.0,25.0,63.0,143,121,112,125,127
2025-02-25 18:59:47.779,-446.0,-903.0,359.0,-15.0,27.0,62.0,144,120,111,125,134
2025-02-25 18:59:47.783,-463.0,-867.0,340.0,-8.0,37.0,61.0,144,120,110,123,133
2025-02-25 18:59:47.791,-462.0,-836.0,339.0,-1.0,42.0,59.0,145,121,114,127,136
2025-02-25 18:59:47.795,-480.0,-824.0,312.0,2.0,43.0,58.0,144,120,111,128,133
2025-02-25 18:59:47.799,-497.0,-813.0,314.0,2.0,44.0,58.0,143,119,111,124,133
2025-02-25 18:59:47.804,-496.0,-771.0,291.0,7.0,46.0,57.0,142,117,109,125,134
2025-02-25 18:59:47.811,-503.0,-756.0,308.0,8.0,47.0,56.0,144,118,111,124,135
2025-02-25 18:59:47.816,-500.0,-764.0,322.0,7.0,50.0,55.0,142,119,112,124,134
2025-02-25 18:59:47.819,-507.0,-733.0,272.0,7.0,52.0,54.0,142,117,109,125,133
2025-02-25 18:59:47.825,-497.0,-733.0,235.0,8.0,48.0,53.0,142,116,108,123,132
2025-02-25 18:59:47.832,-508.0,-696.0,272.0,10.0,50.0,52.0,142,119,113,124,134
2025-02-25 18:59:47.836,-517.0,-689.0,308.0,7.0,54.0,49.0,142,115,109,124,133
2025-02-25 18:59:47.841,-522.0,-626.0,298.0,4.0,57.0,45.0,141,114,109,123,130
2025-02-25 18:59:47.845,-509.0,-611.0,320.0,6.0,64.0,43.0,141,112,109,123,130
2025-02-25 18:59:47.852,-496.0,-639.0,295.0,0.0,68.0,40.0,143,113,110,123,131
2025-02-25 18:59:47.857,-513.0,-634.0,286.0,1.0,69.0,39.0,142,111,105,122,130
2025-02-25 18:59:47.861,-507.0,-641.0,231.0,3.0,65.0,39.0,142,109,107,122,130
2025-02-25 18:59:47.869,-517.0,-639.0,273.0,-2.0,67.0,38.0,143,109,109,119,128
2025-02-25 18:59:47.873,-516.0,-578.0,221.0,-2.0,65.0,35.0,142,107,109,122,129
2025-02-25 18:59:47.877,-526.0,-564.0,241.0,1.0,66.0,33.0,143,101,106,122,127
2025-02-25 18:59:47.882,-548.0,-554.0,230.0,8.0,66.0,30.0,142,101,105,119,125
2025-02-25 18:59:47.889,-505.0,-542.0,239.0,9.0,68.0,29.0,144,96,106,117,122
2025-02-25 18:59:47.893,-501.0,-548.0,224.0,6.0,67.0,26.0,143,96,105,119,124
2025-02-25 18:59:47.898,-523.0,-510.0,166.0,4.0,62.0,20.0,145,94,105,112,121
2025-02-25 18:59:47.902,-504.0,-450.0,291.0,5.0,64.0,17.0,141,89,103,114,118
2025-02-25 18:59:47.906,-532.0,-458.0,340.0,3.0,73.0,11.0,143,89,103,114,116
2025-02-25 18:59:47.914,-602.0,-433.0,247.0,5.0,72.0,5.0,143,84,102,112,113
2025-02-25 18:59:47.917,-615.0,-432.0,200.0,14.0,70.0,3.0,141,80,99,109,108
2025-02-25 18:59:47.922,-657.0,-406.0,217.0,16.0,78.0,2.0,142,77,100,110,107
2025-02-25 18:59:47.926,-689.0,-311.0,194.0,20.0,82.0,0.0,143,76,98,106,102
2025-02-25 18:59:47.934,-702.0,-220.0,108.0,25.0,83.0,-2.0,142,75,96,104,99
2025-02-25 18:59:47.939,-741.0,-190.0,144.0,32.0,86.0,-2.0,142,69,95,103,94
2025-02-25 18:59:47.943,-813.0,-93.0,177.0,38.0,96.0,-5.0,142,68,94,98,90
2025-02-25 18:59:47.947,-939.0,20.0,259.0,34.0,101.0,-10.0,143,64,93,94,82
2025-02-25 18:59:47.951,-956.0,86.0,217.0,38.0,110.0,-12.0,141,62,90,90,80
2025-02-25 18:59:47.959,-994.0,233.0,220.0,48.0,119.0,-18.0,141,59,87,85,76
2025-02-25 18:59:47.963,-987.0,266.0,100.0,45.0,121.0,-26.0,141,58,84,84,72
2025-02-25 18:59:47.967,-967.0,334.0,-42.0,24.0,116.0,-34.0,140,56,81,84,68
2025-02-25 18:59:47.972,-893.0,405.0,-84.0,1.0,115.0,-55.0,141,57,80,79,66
2025-02-25 18:59:47.975,-821.0,363.0,-27.0,-8.0,118.0,-75.0,141,55,79,76,59
2025-02-25 18:59:47.983,-765.0,320.0,-56.0,-19.0,116.0,-88.0,140,54,77,74,59
2025-02-25 18:59:47.987,-782.0,297.0,-148.0,-28.0,113.0,-112.0,141,52,72,74,59
2025-02-25 18:59:47.992,-792.0,294.0,-92.0,-33.0,117.0,-135.0,141,54,73,73,57
2025-02-25 18:59:47.996,-789.0,277.0,-110.0,-40.0,123.0,-153.0,138,52,62,67,54
2025-02-25 18:59:48.004,-788.0,326.0,-176.0,-46.0,131.0,-163.0,139,53,72,67,53
2025-02-25 18:59:48.008,-809.0,261.0,-158.0,-58.0,130.0,-183.0,138,53,68,67,54
2025-02-25 18:59:48.012,-848.0,269.0,-281.0,-65.0,124.0,-207.0,135,52,70,68,50
2025-02-25 18:59:48.020,-838.0,137.0,-293.0,-70.0,121.0,-230.0,134,49,67,67,49
2025-02-25 18:59:48.024,-1018.0,181.0,-425.0,-84.0,103.0,-242.0,132,48,64,65,48
2025-02-25 18:59:48.029,-1001.0,149.0,-421.0,-87.0,81.0,-267.0,132,51,61,68,50
2025-02-25 18:59:48.033,-909.0,115.0,-650.0,-83.0,30.0,-287.0,128,52,65,68,49
2025-02-25 18:59:48.040,-818.0,162.0,-731.0,-58.0,4.0,-330.0,124,49,64,67,48
2025-02-25 18:59:48.045,-699.0,347.0,-625.0,-42.0,-35.0,-354.0,121,48,61,68,46
2025-02-25 18:59:48.049,-270.0,350.0,-689.0,-41.0,-75.0,-389.0,122,52,63,71,46
2025-02-25 18:59:48.054,100.0,130.0,-325.0,-54.0,-93.0,-418.0,119,50,62,70,48
2025-02-25 18:59:48.060,250.0,-96.0,92.0,-75.0,-97.0,-432.0,114,50,61,70,47
2025-02-25 18:59:48.066,729.0,-428.0,323.0,-86.0,-109.0,-435.0,117,49,61,67,48
2025-02-25 18:59:48.070,1164.0,-983.0,584.0,-85.0,-102.0,-419.0,114,52,63,71,51
2025-02-25 18:59:48.077,1668.0,-1646.0,1060.0,-85.0,-68.0,-381.0,115,52,64,72,50
2025-02-25 18:59:48.082,1944.0,-2364.0,1211.0,-91.0,-21.0,-327.0,112,50,62,71,52
2025-02-25 18:59:48.086,2008.0,-3138.0,1509.0,-73.0,4.0,-255.0,117,50,63,68,48
2025-02-25 18:59:48.090,2247.0,-3500.0,1500.0,-12.0,47.0,-218.0,110,50,60,72,50
2025-02-25 18:59:48.098,2314.0,-4146.0,1452.0,100.0,75.0,-135.0,109,54,67,72,51
2025-02-25 18:59:48.102,2496.0,-4769.0,1480.0,136.0,96.0,-57.0,108,55,68,76,52
2025-02-25 18:59:48.106,2060.0,-4850.0,901.0,167.0,122.0,38.0,103,52,66,76,52
2025-02-25 18:59:48.114,1687.0,-4680.0,682.0,183.0,147.0,85.0,107,52,69,73,52
2025-02-25 18:59:48.119,1464.0,-4617.0,622.0,164.0,150.0,169.0,107,53,73,73,52
2025-02-25 18:59:48.123,1113.0,-3885.0,448.0,154.0,115.0,229.0,107,53,73,73,52
2025-02-25 18:59:48.128,952.0,-3172.0,526.0,101.0,94.0,263.0,105,54,75,71,51
2025-02-25 18:59:48.135,963.0,-2828.0,598.0,16.0,75.0,265.0,104,50,72,69,50
2025-02-25 18:59:48.139,998.0,-2171.0,496.0,-26.0,53.0,257.0,105,50,71,68,50
2025-02-25 18:59:48.143,648.0,-1921.0,723.0,-33.0,-13.0,217.0,103,47,68,68,50
2025-02-25 18:59:48.148,699.0,-1473.0,722.0,-82.0,-10.0,190.0,106,51,72,68,50
2025-02-25 18:59:48.155,878.0,-1575.0,718.0,-132.0,18.0,180.0,102,47,72,70,50
2025-02-25 18:59:48.160,648.0,-1597.0,707.0,-157.0,37.0,170.0,104,51,70,69,49
2025-02-25 18:59:48.164,424.0,-1815.0,504.0,-164.0,40.0,178.0,103,50,70,72,51
2025-02-25 18:59:48.168,362.0,-1919.0,248.0,-151.0,31.0,187.0,103,52,71,73,51
2025-02-25 18:59:48.173,71.0,-1848.0,83.0,-136.0,15.0,193.0,103,52,68,72,52
2025-02-25 18:59:48.180,-27.0,-1783.0,45.0,-126.0,-2.0,209.0,103,51,69,73,52
2025-02-25 18:59:48.184,-64.0,-1656.0,64.0,-107.0,-6.0,226.0,102,50,69,72,50
2025-02-25 18:59:48.188,-123.0,-1593.0,125.0,-82.0,-15.0,234.0,100,52,69,73,51
2025-02-25 18:59:48.193,-31.0,-1510.0,142.0,-56.0,-19.0,245.0,101,51,66,71,48
2025-02-25 18:59:48.200,-56.0,-1320.0,214.0,-47.0,-20.0,257.0,99,50,66,71,49
2025-02-25 18:59:48.204,-6.0,-1078.0,251.0,-27.0,-15.0,266.0,99,52,65,70,48
2025-02-25 18:59:48.210,-72.0,-900.0,286.0,-16.0,-2.0,269.0,99,51,66,72,49
2025-02-25 18:59:48.213,-121.0,-749.0,290.0,-9.0,2.0,273.0,98,50,65,71,48
2025-02-25 18:59:48.217,-155.0,-495.0,269.0,-1.0,8.0,273.0,99,49,63,71,49
2025-02-25 18:59:48.225,-218.0,-374.0,234.0,-6.0,16.0,271.0,101,51,63,71,47
2025-02-25 18:59:48.229,-333.0,-100.0,244.0,-13.0,22.0,263.0,100,54,65,73,52
2025-02-25 18:59:48.233,-373.0,142.0,206.0,-26.0,24.0,248.0,98,52,61,71,51
2025-02-25 18:59:48.237,-444.0,219.0,127.0,-45.0,32.0,239.0,100,50,63,72,51
2025-02-25 18:59:48.245,-535.0,359.0,96.0,-66.0,38.0,218.0,101,52,63,73,47
2025-02-25 18:59:48.250,-602.0,422.0,23.0,-75.0,37.0,194.0,99,52,61,72,52
2025-02-25 18:59:48.254,-663.0,427.0,-42.0,-96.0,36.0,182.0,99,52,60,71,51
2025-02-25 18:59:48.258,-727.0,393.0,-45.0,-109.0,34.0,158.0,101,53,60,72,52
2025-02-25 18:59:48.263,-780.0,339.0,-77.0,-111.0,31.0,135.0,100,50,59,70,52
2025-02-25 18:59:48.270,-787.0,321.0,-107.0,-112.0,20.0,124.0,99,50,59,71,52
2025-02-25 18:59:48.274,-780.0,216.0,-130.0,-106.0,22.0,104.0,100,52,60,74,53
2025-02-25 18:59:48.278,-795.0,130.0,-133.0,-102.0,21.0,87.0,101,52,60,72,51
2025-02-25 18:59:48.283,-780.0,122.0,-135.0,-91.0,22.0,80.0,100,51,58,70,52
2025-02-25 18:59:48.287,-795.0,62.0,-127.0,-83.0,19.0,70.0,102,51,60,72,53
2025-02-25 18:59:48.295,-812.0,40.0,-152.0,-83.0,13.0,62.0,101,52,59,71,52
2025-02-25 18:59:48.299,-812.0,25.0,-154.0,-78.0,10.0,59.0,99,50,61,72,51
2025-02-25 18:59:48.303,-813.0,-9.0,-163.0,-74.0,6.0,54.0,100,51,62,72,53
2025-02-25 18:59:48.307,-812.0,-34.0,-172.0,-73.0,4.0,50.0,103,53,62,73,55
2025-02-25 18:59:48.311,-832.0,-41.0,-175.0,-69.0,0.0,47.0,101,50,60,71,52
2025-02-25 18:59:48.319,-823.0,-22.0,-188.0,-64.0,0.0,41.0,102,52,63,72,54
2025-02-25 18:59:48.323,-822.0,-5.0,-181.0,-63.0,-2.0,36.0,102,53,64,72,53
2025-02-25 18:59:48.327,-814.0,-2.0,-192.0,-62.0,-2.0,33.0,102,52,63,71,53
2025-02-25 18:59:48.332,-791.0,1.0,-185.0,-62.0,-2.0,31.0,102,52,67,73,53
2025-02-25 18:59:48.336,-775.0,18.0,-173.0,-61.0,-4.0,27.0,100,52,65,71,51
2025-02-25 18:59:48.343,-789.0,14.0,-169.0,-57.0,-6.0,25.0,101,52,61,73,53
2025-02-25 18:59:48.348,-764.0,27.0,-179.0,-55.0,-4.0,21.0,103,56,68,73,54
2025-02-25 18:59:48.352,-759.0,56.0,-169.0,-51.0,0.0,16.0,100,52,66,71,51
2025-02-25 18:59:48.356,-803.0,59.0,-160.0,-46.0,-4.0,13.0,100,51,64,69,53
2025-02-25 18:59:48.360,-684.0,83.0,-167.0,-38.0,-1.0,8.0,101,52,65,70,53
2025-02-25 18:59:48.365,-693.0,150.0,-150.0,-36.0,0.0,1.0,99,52,66,71,52
2025-02-25 18:59:48.373,-725.0,168.0,-167.0,-28.0,-1.0,0.0,102,53,64,70,52
2025-02-25 18:59:48.376,-717.0,253.0,-172.0,-21.0,0.0,-7.0,98,53,65,72,53
2025-02-25 18:59:48.381,-718.0,349.0,-171.0,-18.0,0.0,-15.0,100,52,65,72,52
2025-02-25 18:59:48.385,-744.0,394.0,-201.0,-10.0,1.0,-18.0,102,53,65,71,53
2025-02-25 18:59:48.389,-789.0,479.0,-208.0,-5.0,0.0,-25.0,103,53,66,72,54
2025-02-25 18:59:48.397,-812.0,588.0,-231.0,-2.0,2.0,-32.0,100,51,64,71,52
2025-02-25 18:59:48.401,-862.0,633.0,-244.0,9.0,4.0,-37.0,102,53,65,72,52
2025-02-25 18:59:48.405,-911.0,732.0,-257.0,25.0,10.0,-49.0,102,55,64,71,55
2025-02-25 18:59:48.410,-916.0,819.0,-263.0,36.0,13.0,-68.0,102,53,63,70,52
2025-02-25 18:59:48.414,-941.0,853.0,-257.0,61.0,20.0,-79.0,102,54,63,71,56
2025-02-25 18:59:48.422,-965.0,915.0,-257.0,90.0,30.0,-101.0,102,53,65,72,55
2025-02-25 18:59:48.426,-956.0,963.0,-258.0,106.0,33.0,-127.0,102,53,60,72,54
2025-02-25 18:59:48.430,-954.0,962.0,-299.0,137.0,45.0,-140.0,102,53,62,72,54
2025-02-25 18:59:48.434,-958.0,995.0,-309.0,167.0,48.0,-171.0,102,52,67,72,55
2025-02-25 18:59:48.442,-977.0,1018.0,-374.0,179.0,44.0,-207.0,101,53,62,72,53
2025-02-25 18:59:48.446,-971.0,1040.0,-449.0,200.0,41.0,-227.0,102,52,61,73,53
2025-02-25 18:59:48.451,-974.0,1064.0,-472.0,210.0,25.0,-271.0,102,54,64,73,54
2025-02-25 18:59:48.458,-944.0,1061.0,-508.0,210.0,1.0,-320.0,100,54,64,72,55
2025-02-25 18:59:48.463,-903.0,1036.0,-513.0,205.0,-15.0,-376.0,101,48,60,71,52
2025-02-25 18:59:48.467,-809.0,1014.0,-444.0,193.0,-52.0,-406.0,99,51,57,73,52
2025-02-25 18:59:48.471,-560.0,896.0,-365.0,170.0,-86.0,-466.0,102,51,62,74,54
2025-02-25 18:59:48.478,-122.0,671.0,-115.0,154.0,-112.0,-515.0,102,52,62,73,54
2025-02-25 18:59:48.483,485.0,222.0,233.0,112.0,-120.0,-538.0,101,53,62,72,53
2025-02-25 18:59:48.487,752.0,-152.0,574.0,69.0,-123.0,-536.0,104,54,62,73,54
2025-02-25 18:59:48.492,1276.0,-1120.0,714.0,45.0,-106.0,-512.0,103,56,63,74,55
2025-02-25 18:59:48.499,1613.0,-2287.0,1001.0,49.0,-81.0,-460.0,102,53,61,74,56
2025-02-25 18:59:48.504,1841.0,-3410.0,1203.0,67.0,-55.0,-386.0,102,52,62,75,55
2025-02-25 18:59:48.508,1950.0,-4460.0,1363.0,123.0,-44.0,-293.0,102,54,63,72,55
2025-02-25 18:59:48.516,2200.0,-4981.0,1603.0,199.0,-15.0,-241.0,100,52,64,72,54
2025-02-25 18:59:48.520,2394.0,-5627.0,1641.0,263.0,18.0,-132.0,103,54,65,72,55
2025-02-25 18:59:48.524,2426.0,-5771.0,1570.0,291.0,57.0,-15.0,102,54,66,72,54
2025-02-25 18:59:48.532,2180.0,-5529.0,1208.0,272.0,64.0,97.0,104,53,70,72,56
2025-02-25 18:59:48.536,1740.0,-4843.0,1313.0,243.0,56.0,171.0,103,50,69,68,52
2025-02-25 18:59:48.540,1667.0,-4334.0,1159.0,175.0,72.0,196.0,102,50,69,69,48
2025-02-25 18:59:48.545,1260.0,-3371.0,1011.0,73.0,44.0,218.0,106,51,71,67,53
2025-02-25 18:59:48.552,913.0,-2632.0,966.0,16.0,18.0,224.0,104,50,72,66,52
2025-02-25 18:59:48.557,880.0,-2154.0,830.0,-74.0,2.0,216.0,100,50,69,59,50
2025-02-25 18:59:48.561,711.0,-2041.0,743.0,-161.0,15.0,188.0,100,51,71,64,52
2025-02-25 18:59:48.566,378.0,-1731.0,450.0,-225.0,-59.0,187.0,102,51,69,65,51
2025-02-25 18:59:48.573,601.0,-2072.0,573.0,-181.0,-80.0,168.0,103,50,72,63,51
2025-02-25 18:59:48.577,245.0,-1846.0,534.0,-186.0,-53.0,157.0,102,51,70,67,53
2025-02-25 18:59:48.582,659.0,-1786.0,543.0,-199.0,-12.0,151.0,102,51,71,70,53
2025-02-25 18:59:48.586,228.0,-2032.0,473.0,-172.0,-11.0,158.0,103,51,71,69,55
2025-02-25 18:59:48.594,178.0,-2152.0,306.0,-161.0,-16.0,185.0,102,51,68,69,53
2025-02-25 18:59:48.598,77.0,-1947.0,140.0,-121.0,-5.0,198.0,101,51,68,68,52
2025-02-25 18:59:48.602,-68.0,-1751.0,72.0,-96.0,-8.0,206.0,102,51,73,73,53
2025-02-25 18:59:48.607,-159.0,-1532.0,119.0,-84.0,-31.0,218.0,102,54,71,72,54
2025-02-25 18:59:48.614,-182.0,-1317.0,126.0,-53.0,-35.0,227.0,100,52,68,71,55
2025-02-25 18:59:48.619,-204.0,-1301.0,198.0,-43.0,-30.0,232.0,102,55,72,71,53
2025-02-25 18:59:48.623,-143.0,-1086.0,255.0,-40.0,-22.0,240.0,102,52,69,72,54
2025-02-25 18:59:48.627,-209.0,-932.0,312.0,-29.0,-16.0,246.0,104,55,70,73,55
2025-02-25 18:59:48.635,-289.0,-738.0,413.0,-23.0,-20.0,241.0,103,52,69,71,54
2025-02-25 18:59:48.639,-254.0,-554.0,373.0,-26.0,-9.0,242.0,102,53,68,74,54
2025-02-25 18:59:48.643,-287.0,-478.0,383.0,-31.0,5.0,241.0,103,56,67,72,54
2025-02-25 18:59:48.647,-376.0,-388.0,390.0,-33.0,-3.0,234.0,104,56,66,75,55
2025-02-25 18:59:48.655,-391.0,-273.0,397.0,-35.0,0.0,226.0,105,54,66,75,55
2025-02-25 18:59:48.659,-366.0,-198.0,380.0,-35.0,13.0,222.0,105,56,64,73,56
2025-02-25 18:59:48.663,-398.0,-95.0,368.0,-36.0,27.0,211.0,105,55,65,75,56
2025-02-25 18:59:48.667,-408.0,10.0,288.0,-45.0,34.0,198.0,105,54,61,67,56
2025-02-25 18:59:48.672,-479.0,47.0,265.0,-54.0,39.0,191.0,105,54,62,73,58
2025-02-25 18:59:48.680,-517.0,85.0,278.0,-72.0,42.0,178.0,107,54,60,74,57
2025-02-25 18:59:48.684,-535.0,166.0,232.0,-80.0,41.0,161.0,105,53,62,73,56
2025-02-25 18:59:48.688,-521.0,206.0,180.0,-95.0,46.0,152.0,106,53,61,73,57
2025-02-25 18:59:48.692,-557.0,226.0,141.0,-102.0,50.0,135.0,106,54,63,75,57
2025-02-25 18:59:48.700,-566.0,170.0,138.0,-104.0,51.0,119.0,106,53,60,74,57
2025-02-25 18:59:48.704,-606.0,201.0,82.0,-109.0,58.0,112.0,106,52,61,72,56
2025-02-25 18:59:48.708,-602.0,112.0,48.0,-115.0,62.0,101.0,107,51,61,74,59
2025-02-25 18:59:48.713,-635.0,91.0,-13.0,-114.0,56.0,94.0,108,56,61,73,58
2025-02-25 18:59:48.717,-656.0,70.0,-94.0,-121.0,57.0,92.0,106,53,62,73,57
2025-02-25 18:59:48.725,-710.0,42.0,-141.0,-134.0,50.0,92.0,108,53,63,76,59
2025-02-25 18:59:48.729,-719.0,0.0,-169.0,-138.0,47.0,94.0,111,54,64,75,58
2025-02-25 18:59:48.733,-721.0,20.0,-224.0,-138.0,42.0,94.0,108,52,63,74,58
2025-02-25 18:59:48.737,-738.0,-23.0,-230.0,-135.0,33.0,95.0,109,54,65,75,59
2025-02-25 18:59:48.741,-780.0,0.0,-262.0,-129.0,26.0,94.0,110,54,60,78,58
2025-02-25 18:59:48.749,-763.0,18.0,-283.0,-121.0,24.0,94.0,110,53,66,75,59
2025-02-25 18:59:48.753,-743.0,41.0,-281.0,-119.0,16.0,94.0,110,56,68,73,58
2025-02-25 18:59:48.757,-763.0,89.0,-293.0,-117.0,6.0,93.0,109,53,64,75,59
2025-02-25 18:59:48.762,-778.0,122.0,-289.0,-114.0,1.0,94.0,110,53,65,73,58
2025-02-25 18:59:48.766,-785.0,137.0,-328.0,-107.0,-8.0,95.0,112,54,67,76,59
2025-02-25 18:59:48.774,-772.0,186.0,-294.0,-101.0,-19.0,94.0,111,53,66,74,57
2025-02-25 18:59:48.778,-750.0,385.0,-242.0,-94.0,-23.0,85.0,112,52,65,73,57
2025-02-25 18:59:48.782,-720.0,423.0,-205.0,-83.0,-28.0,81.0,115,55,67,75,59
2025-02-25 18:59:48.787,-767.0,520.0,-218.0,-71.0,-29.0,71.0,115,53,68,76,60
2025-02-25 18:59:48.794,-804.0,602.0,-236.0,-66.0,-26.0,56.0,115,52,66,73,57
2025-02-25 18:59:48.798,-786.0,680.0,-187.0,-48.0,-20.0,46.0,115,52,66,73,58
2025-02-25 18:59:48.803,-784.0,835.0,-167.0,-33.0,-10.0,20.0,119,55,69,75,59
2025-02-25 18:59:48.807,-800.0,1026.0,-155.0,-23.0,-6.0,-6.0,119,53,67,75,58
2025-02-25 18:59:48.815,-832.0,1220.0,-207.0,0.0,-6.0,-39.0,118,53,67,73,57
2025-02-25 18:59:48.819,-939.0,1288.0,-277.0,29.0,-8.0,-58.0,123,52,66,74,59
2025-02-25 18:59:48.823,-1059.0,1467.0,-310.0,44.0,-11.0,-100.0,122,53,67,74,58
2025-02-25 18:59:48.827,-1105.0,1589.0,-374.0,73.0,-13.0,-144.0,122,53,68,72,58
2025-02-25 18:59:48.835,-1112.0,1685.0,-408.0,106.0,-11.0,-185.0,123,53,64,74,58
2025-02-25 18:59:48.839,-1144.0,1681.0,-466.0,141.0,-21.0,-209.0,125,53,67,75,58
2025-02-25 18:59:48.843,-1163.0,1732.0,-457.0,172.0,-24.0,-252.0,126,53,67,75,58
2025-02-25 18:59:48.852,-1134.0,1719.0,-463.0,192.0,-28.0,-293.0,128,57,66,75,59
2025-02-25 18:59:48.856,-1127.0,1576.0,-439.0,208.0,-32.0,-333.0,128,52,64,75,58
2025-02-25 18:59:48.861,-1121.0,1424.0,-425.0,226.0,-36.0,-375.0,128,53,64,74,57
2025-02-25 18:59:48.868,-1053.0,1297.0,-440.0,245.0,-54.0,-413.0,129,54,64,75,59
2025-02-25 18:59:48.873,-1016.0,1234.0,-515.0,259.0,-85.0,-432.0,130,55,64,76,59
2025-02-25 18:59:48.876,-911.0,1103.0,-544.0,270.0,-129.0,-466.0,131,53,63,76,58
2025-02-25 18:59:48.885,-815.0,944.0,-554.0,274.0,-183.0,-491.0,131,54,62,77,59
2025-02-25 18:59:48.889,-602.0,906.0,-572.0,272.0,-237.0,-521.0,133,54,65,78,59
2025-02-25 18:59:48.894,-506.0,771.0,-524.0,262.0,-271.0,-545.0,133,52,62,76,58
2025-02-25 18:59:48.898,-2.0,698.0,-421.0,239.0,-331.0,-561.0,132,53,62,75,58
2025-02-25 18:59:48.905,490.0,778.0,-337.0,199.0,-381.0,-608.0,133,55,63,77,58
2025-02-25 18:59:48.909,1123.0,367.0,-216.0,186.0,-422.0,-619.0,134,54,63,77,60
2025-02-25 18:59:48.914,1419.0,-359.0,-11.0,177.0,-437.0,-606.0,135,53,62,76,58
2025-02-25 18:59:48.921,2017.0,-1500.0,341.0,142.0,-446.0,-596.0,137,53,62,76,59
2025-02-25 18:59:48.925,2589.0,-2198.0,936.0,107.0,-419.0,-545.0,138,52,64,75,60
2025-02-25 18:59:48.929,3117.0,-3445.0,1345.0,129.0,-360.0,-433.0,141,54,64,76,59
2025-02-25 18:59:48.937,3653.0,-4598.0,2217.0,135.0,-262.0,-314.0,141,55,65,75,59
2025-02-25 18:59:48.942,4121.0,-5601.0,2810.0,157.0,-166.0,-207.0,143,53,68,73,60
2025-02-25 18:59:48.946,4366.0,-5770.0,2901.0,180.0,-127.0,-118.0,143,51,78,74,60
2025-02-25 18:59:48.953,4310.0,-5602.0,2570.0,197.0,-66.0,-30.0,143,51,70,71,60
2025-02-25 18:59:48.958,3652.0,-5526.0,1821.0,232.0,-18.0,8.0,142,51,69,68,58
2025-02-25 18:59:48.962,2961.0,-4804.0,1482.0,202.0,69.0,70.0,146,52,74,66,56
2025-02-25 18:59:48.966,2228.0,-3818.0,857.0,152.0,210.0,114.0,146,53,75,66,56
2025-02-25 18:59:48.974,1679.0,-2550.0,511.0,-41.0,367.0,221.0,157,65,86,76,66
2025-02-25 18:59:48.979,830.0,-2029.0,-96.0,95.0,152.0,201.0,151,56,77,68,59
2025-02-25 18:59:48.983,506.0,-1532.0,688.0,-30.0,-5.0,156.0,154,57,79,73,63
2025-02-25 18:59:48.988,1199.0,-1578.0,165.0,5.0,-80.0,138.0,153,58,80,72,62
2025-02-25 18:59:48.995,1128.0,-1217.0,641.0,-153.0,-55.0,170.0,151,56,79,71,60
2025-02-25 18:59:48.999,311.0,-1861.0,553.0,-178.0,-43.0,184.0,152,59,78,75,62
2025-02-25 18:59:49.003,860.0,-2409.0,807.0,-207.0,-67.0,194.0,152,60,76,73,62
2025-02-25 18:59:49.011,638.0,-2310.0,504.0,-197.0,-62.0,201.0,153,61,78,78,65
2025-02-25 18:59:49.015,515.0,-2225.0,438.0,-152.0,-55.0,215.0,153,61,78,77,64
2025-02-25 18:59:49.020,513.0,-2280.0,586.0,-128.0,2.0,217.0,152,62,77,79,64
2025-02-25 18:59:49.024,512.0,-2006.0,558.0,-80.0,62.0,220.0,155,62,80,80,66
2025-02-25 18:59:49.028,410.0,-1819.0,451.0,-53.0,74.0,220.0,149,56,77,78,67
2025-02-25 18:59:49.036,308.0,-1406.0,629.0,-94.0,86.0,226.0,153,62,76,79,64
2025-02-25 18:59:49.040,192.0,-1231.0,789.0,-88.0,76.0,240.0,155,63,78,80,66
2025-02-25 18:59:49.044,222.0,-1088.0,716.0,-78.0,44.0,240.0,154,63,78,82,67
2025-02-25 18:59:49.049,141.0,-640.0,366.0,-79.0,52.0,238.0,152,61,76,80,66
2025-02-25 18:59:49.056,-25.0,-769.0,515.0,-30.0,59.0,234.0,155,63,76,80,66
2025-02-25 18:59:49.061,-78.0,-635.0,556.0,-21.0,33.0,231.0,155,64,77,81,65
2025-02-25 18:59:49.065,-91.0,-399.0,465.0,-5.0,21.0,225.0,152,61,72,80,66
2025-02-25 18:59:49.069,-221.0,-370.0,362.0,-3.0,12.0,221.0,153,63,74,82,67
2025-02-25 18:59:49.073,-342.0,-192.0,300.0,10.0,5.0,211.0,156,66,76,80,68
2025-02-25 18:59:49.081,-309.0,-29.0,437.0,3.0,7.0,202.0,157,63,77,82,69
2025-02-25 18:59:49.085,-388.0,41.0,320.0,21.0,8.0,195.0,156,68,76,82,70
2025-02-25 18:59:49.090,-370.0,103.0,446.0,-18.0,4.0,186.0,156,66,77,83,69
2025-02-25 18:59:49.094,-413.0,182.0,365.0,-34.0,7.0,174.0,155,64,75,82,67
2025-02-25 18:59:49.098,-434.0,185.0,272.0,-60.0,30.0,164.0,155,64,74,83,69
2025-02-25 18:59:49.105,-478.0,127.0,324.0,-79.0,54.0,152.0,156,62,76,83,70
2025-02-25 18:59:49.110,-534.0,97.0,331.0,-92.0,60.0,143.0,156,65,76,84,68
2025-02-25 18:59:49.114,-541.0,14.0,327.0,-96.0,62.0,138.0,153,62,73,82,68
2025-02-25 18:59:49.118,-531.0,-38.0,291.0,-106.0,58.0,130.0,156,62,74,84,69
2025-02-25 18:59:49.123,-562.0,-89.0,282.0,-110.0,60.0,122.0,155,63,74,83,68
2025-02-25 18:59:49.130,-558.0,-101.0,283.0,-120.0,66.0,117.0,154,61,75,82,68
2025-02-25 18:59:49.134,-580.0,-116.0,282.0,-128.0,78.0,109.0,156,63,74,83,68
2025-02-25 18:59:49.139,-621.0,-132.0,241.0,-133.0,86.0,103.0,155,62,75,83,69
2025-02-25 18:59:49.143,-577.0,-141.0,240.0,-146.0,87.0,101.0,154,64,74,84,67
2025-02-25 18:59:49.150,-667.0,-91.0,208.0,-151.0,90.0,97.0,156,65,76,84,70
2025-02-25 18:59:49.155,-778.0,-78.0,102.0,-142.0,81.0,93.0,154,62,74,83,68
2025-02-25 18:59:49.159,-786.0,-29.0,0.0,-122.0,74.0,86.0,153,63,74,82,68
2025-02-25 18:59:49.163,-854.0,-2.0,-37.0,-71.0,45.0,78.0,156,62,75,84,68
2025-02-25 18:59:49.168,-829.0,113.0,-37.0,-63.0,29.0,67.0,154,64,78,84,70
2025-02-25 18:59:49.175,-900.0,150.0,-79.0,-38.0,19.0,52.0,152,60,74,82,68
2025-02-25 18:59:49.179,-882.0,215.0,-137.0,-32.0,13.0,47.0,156,64,77,82,68
2025-02-25 18:59:49.183,-916.0,219.0,-102.0,-23.0,-1.0,34.0,156,65,78,83,67
2025-02-25 18:59:49.188,-893.0,290.0,-95.0,-23.0,-3.0,22.0,154,64,73,82,69
2025-02-25 18:59:49.192,-912.0,306.0,-64.0,-12.0,-12.0,15.0,155,65,76,83,69
2025-02-25 18:59:49.200,-910.0,319.0,-62.0,-4.0,-21.0,0.0,154,62,77,83,68
2025-02-25 18:59:49.204,-924.0,369.0,-58.0,9.0,-22.0,-13.0,156,64,77,81,68
2025-02-25 18:59:49.208,-924.0,388.0,-39.0,18.0,-20.0,-21.0,157,66,79,83,69
2025-02-25 18:59:49.213,-964.0,468.0,-41.0,22.0,-12.0,-36.0,155,65,75,83,69
2025-02-25 18:59:49.217,-979.0,528.0,-32.0,23.0,-9.0,-51.0,155,63,74,80,67
2025-02-25 18:59:49.224,-1021.0,551.0,-45.0,23.0,0.0,-58.0,156,64,78,84,70
2025-02-25 18:59:49.228,-1057.0,618.0,-38.0,25.0,6.0,-75.0,155,64,75,84,63
2025-02-25 18:59:49.233,-1087.0,709.0,-54.0,29.0,9.0,-92.0,154,60,76,82,67
2025-02-25 18:59:49.236,-1150.0,758.0,-53.0,36.0,17.0,-101.0,155,65,77,83,69
2025-02-25 18:59:49.241,-1184.0,808.0,-61.0,39.0,22.0,-123.0,155,64,77,86,68
2025-02-25 18:59:49.249,-1198.0,822.0,-66.0,52.0,23.0,-146.0,151,62,74,81,66
2025-02-25 18:59:49.253,-1238.0,826.0,-87.0,72.0,21.0,-158.0,156,65,75,83,67
2025-02-25 18:59:49.257,-1252.0,798.0,-66.0,92.0,15.0,-183.0,156,65,77,83,67
2025-02-25 18:59:49.262,-1241.0,762.0,-89.0,103.0,11.0,-207.0,154,63,74,82,66
2025-02-25 18:59:49.269,-1197.0,729.0,-90.0,127.0,-3.0,-220.0,154,61,75,83,67
2025-02-25 18:59:49.273,-1082.0,699.0,-60.0,144.0,-21.0,-246.0,156,62,74,84,69
2025-02-25 18:59:49.278,-926.0,670.0,-33.0,150.0,-38.0,-274.0,155,64,74,83,68
2025-02-25 18:59:49.283,-850.0,601.0,0.0,155.0,-46.0,-299.0,153,62,72,83,68
2025-02-25 18:59:49.290,-694.0,563.0,56.0,149.0,-63.0,-312.0,157,64,77,84,70
2025-02-25 18:59:49.294,-474.0,491.0,90.0,141.0,-84.0,-340.0,156,64,73,82,68
2025-02-25 18:59:49.298,-186.0,353.0,144.0,135.0,-96.0,-367.0,153,61,72,82,68
2025-02-25 18:59:49.302,-71.0,250.0,181.0,116.0,-116.0,-380.0,154,63,73,82,67
2025-02-25 18:59:49.310,239.0,7.0,236.0,89.0,-128.0,-398.0,155,65,75,83,69
2025-02-25 18:59:49.314,584.0,-401.0,314.0,72.0,-129.0,-403.0,156,62,73,84,69
2025-02-25 18:59:49.318,768.0,-1016.0,453.0,45.0,-129.0,-396.0,155,62,74,83,67
2025-02-25 18:59:49.323,1191.0,-1374.0,590.0,36.0,-129.0,-390.0,155,63,75,84,69
2025-02-25 18:59:49.330,1652.0,-2135.0,653.0,41.0,-129.0,-373.0,156,64,76,84,70
2025-02-25 18:59:49.335,2023.0,-2977.0,809.0,45.0,-125.0,-342.0,155,62,77,85,69
2025-02-25 18:59:49.339,2366.0,-3824.0,961.0,61.0,-119.0,-292.0,154,64,76,80,68
2025-02-25 18:59:49.347,2526.0,-4509.0,1168.0,68.0,-94.0,-220.0,155,63,78,82,68
2025-02-25 18:59:49.351,2823.0,-4758.0,1265.0,62.0,-46.0,-175.0,156,63,80,83,70
2025-02-25 18:59:49.355,2977.0,-5054.0,1277.0,70.0,20.0,-82.0,156,63,80,79,70
2025-02-25 18:59:49.360,2958.0,-5004.0,1213.0,58.0,91.0,7.0,155,62,80,78,67
2025-02-25 18:59:49.368,2885.0,-4645.0,653.0,56.0,120.0,59.0,155,64,80,75,69
2025-02-25 18:59:49.372,2439.0,-4323.0,346.0,30.0,214.0,110.0,156,62,82,75,68
2025-02-25 18:59:49.376,2114.0,-3588.0,599.0,120.0,89.0,138.0,156,61,85,78,67
2025-02-25 18:59:49.381,1430.0,-2653.0,465.0,83.0,42.0,153.0,158,63,85,75,69
2025-02-25 18:59:49.388,1552.0,-2429.0,246.0,35.0,30.0,160.0,161,62,84,77,68
2025-02-25 18:59:49.392,1215.0,-2076.0,172.0,-73.0,31.0,179.0,161,64,84,79,69
2025-02-25 18:59:49.396,817.0,-1958.0,270.0,-126.0,57.0,204.0,158,65,83,79,70
2025-02-25 18:59:49.401,920.0,-1972.0,331.0,-206.0,41.0,204.0,157,63,81,79,68
2025-02-25 18:59:49.409,787.0,-1809.0,280.0,-140.0,-23.0,203.0,158,63,84,78,69
2025-02-25 18:59:49.413,571.0,-2028.0,282.0,-96.0,-37.0,203.0,159,65,83,84,70
2025-02-25 18:59:49.417,542.0,-1953.0,232.0,-61.0,-29.0,206.0,156,64,81,79,69
2025-02-25 18:59:49.422,529.0,-1914.0,530.0,-16.0,-20.0,215.0,157,63,80,81,68
2025-02-25 18:59:49.429,413.0,-1843.0,465.0,-44.0,16.0,219.0,158,65,80,82,69
2025-02-25 18:59:49.433,335.0,-1544.0,481.0,-66.0,66.0,234.0,159,66,80,84,70
2025-02-25 18:59:49.438,336.0,-1379.0,627.0,-89.0,63.0,239.0,156,65,78,83,69
2025-02-25 18:59:49.442,259.0,-1243.0,519.0,-103.0,26.0,246.0,159,66,80,82,70
2025-02-25 18:59:49.450,160.0,-1064.0,359.0,-96.0,8.0,244.0,159,63,80,85,71
2025-02-25 18:59:49.454,100.0,-784.0,395.0,-70.0,26.0,241.0,159,67,80,84,70
2025-02-25 18:59:49.459,3.0,-687.0,376.0,-67.0,32.0,243.0,156,63,80,83,70
2025-02-25 18:59:49.462,-41.0,-658.0,313.0,-47.0,37.0,242.0,156,64,79,85,73
2025-02-25 18:59:49.466,-92.0,-566.0,383.0,-24.0,20.0,238.0,160,65,80,84,71
2025-02-25 18:59:49.474,-75.0,-413.0,443.0,11.0,11.0,230.0,156,66,78,82,70
2025-02-25 18:59:49.479,-149.0,-374.0,434.0,12.0,6.0,227.0,158,65,79,83,70
2025-02-25 18:59:49.483,-193.0,-227.0,396.0,29.0,22.0,219.0,159,66,79,84,71
2025-02-25 18:59:49.487,-195.0,-144.0,378.0,22.0,30.0,212.0,158,64,78,82,70
2025-02-25 18:59:49.491,-226.0,-59.0,509.0,-12.0,58.0,211.0,160,66,79,83,70
2025-02-25 18:59:49.499,-266.0,79.0,433.0,-24.0,63.0,202.0,158,64,80,82,71
2025-02-25 18:59:49.503,-344.0,58.0,442.0,-41.0,65.0,192.0,158,63,78,83,70
2025-02-25 18:59:49.507,-315.0,83.0,354.0,-69.0,78.0,186.0,158,64,77,84,69
2025-02-25 18:59:49.512,-428.0,157.0,281.0,-65.0,84.0,176.0,158,65,77,83,70
2025-02-25 18:59:49.516,-442.0,79.0,358.0,-72.0,84.0,166.0,157,62,78,84,70
2025-02-25 18:59:49.523,-500.0,95.0,294.0,-87.0,96.0,161.0,157,62,78,83,69
2025-02-25 18:59:49.528,-539.0,100.0,258.0,-93.0,99.0,152.0,159,63,79,84,71
2025-02-25 18:59:49.532,-587.0,45.0,270.0,-106.0,109.0,147.0,157,64,76,84,68
2025-02-25 18:59:49.536,-643.0,91.0,115.0,-127.0,116.0,144.0,156,63,76,83,69
2025-02-25 18:59:49.541,-673.0,70.0,146.0,-168.0,127.0,135.0,158,65,77,87,71
2025-02-25 18:59:49.548,-736.0,-7.0,10.0,-182.0,114.0,129.0,157,65,79,84,70
2025-02-25 18:59:49.552,-781.0,23.0,75.0,-181.0,105.0,125.0,155,62,78,86,70
2025-02-25 18:59:49.557,-766.0,68.0,-5.0,-179.0,85.0,117.0,156,65,77,85,72
2025-02-25 18:59:49.561,-947.0,76.0,-67.0,-167.0,81.0,115.0,156,65,80,85,70
2025-02-25 18:59:49.568,-896.0,154.0,-146.0,-159.0,77.0,114.0,155,63,78,83,69
2025-02-25 18:59:49.572,-881.0,130.0,-84.0,-107.0,48.0,103.0,157,65,78,83,71
2025-02-25 18:59:49.577,-855.0,77.0,-119.0,-91.0,13.0,88.0,156,65,80,83,69
2025-02-25 18:59:49.581,-892.0,153.0,-128.0,-52.0,3.0,74.0,155,63,77,83,68
2025-02-25 18:59:49.585,-950.0,177.0,-105.0,-4.0,-6.0,68.0,157,66,81,82,72
2025-02-25 18:59:49.593,-917.0,165.0,-128.0,3.0,-19.0,60.0,157,65,81,83,73
2025-02-25 18:59:49.597,-927.0,182.0,-95.0,25.0,-25.0,51.0,155,64,80,86,71
2025-02-25 18:59:49.602,-957.0,187.0,-99.0,29.0,-25.0,49.0,157,66,82,87,72
2025-02-25 18:59:49.607,-927.0,211.0,-140.0,22.0,-25.0,41.0,156,66,80,88,72
2025-02-25 18:59:49.611,-898.0,279.0,-19.0,24.0,-20.0,30.0,154,66,85,88,73
2025-02-25 18:59:49.618,-849.0,258.0,-42.0,21.0,-17.0,25.0,157,67,87,88,75
2025-02-25 18:59:49.623,-802.0,299.0,-8.0,23.0,-12.0,15.0,156,67,88,91,77
2025-02-25 18:59:49.626,-813.0,334.0,1.0,25.0,-8.0,7.0,155,67,82,89,77
2025-02-25 18:59:49.631,-835.0,359.0,0.0,31.0,0.0,2.0,156,70,89,93,79
2025-02-25 18:59:49.635,-815.0,417.0,49.0,33.0,12.0,-9.0,153,71,86,92,77
2025-02-25 18:59:49.639,-829.0,474.0,-90.0,42.0,12.0,-21.0,153,68,87,90,77
2025-02-25 18:59:49.646,-891.0,480.0,-104.0,57.0,10.0,-28.0,155,69,89,90,79
2025-02-25 18:59:49.651,-975.0,537.0,-77.0,70.0,16.0,-46.0,154,71,88,95,81
2025-02-25 18:59:49.655,-978.0,585.0,-124.0,75.0,21.0,-64.0,153,72,89,95,81
2025-02-25 18:59:49.659,-1038.0,591.0,-192.0,82.0,26.0,-75.0,153,73,92,96,85
2025-02-25 18:59:49.664,-1029.0,638.0,-259.0,93.0,18.0,-99.0,154,73,94,95,85
2025-02-25 18:59:49.671,-1056.0,603.0,-349.0,116.0,9.0,-121.0,151,76,92,96,87
2025-02-25 18:59:49.675,-1056.0,635.0,-264.0,155.0,-3.0,-133.0,156,80,90,99,91
2025-02-25 18:59:49.679,-1136.0,516.0,-263.0,184.0,-15.0,-156.0,154,84,99,98,93
2025-02-25 18:59:49.687,-1135.0,472.0,-329.0,208.0,-22.0,-181.0,153,85,98,99,95
2025-02-25 18:59:49.691,-1073.0,480.0,-375.0,219.0,-28.0,-191.0,155,90,102,102,97
2025-02-25 18:59:49.696,-1013.0,471.0,-419.0,228.0,-37.0,-210.0,156,94,104,102,98
2025-02-25 18:59:49.704,-997.0,482.0,-404.0,235.0,-48.0,-225.0,153,94,106,107,100
2025-02-25 18:59:49.708,-942.0,456.0,-320.0,242.0,-63.0,-246.0,151,103,106,106,101
2025-02-25 18:59:49.712,-924.0,383.0,-357.0,243.0,-74.0,-263.0,153,109,106,108,103
2025-02-25 18:59:49.720,-872.0,302.0,-449.0,242.0,-107.0,-293.0,153,110,108,111,104
2025-02-25 18:59:49.725,-830.0,345.0,-574.0,249.0,-153.0,-310.0,152,117,109,115,109
2025-02-25 18:59:49.729,-919.0,355.0,-436.0,248.0,-203.0,-343.0,154,119,109,116,111
2025-02-25 18:59:49.736,-590.0,500.0,-56.0,239.0,-209.0,-378.0,155,119,110,118,115
2025-02-25 18:59:49.741,-71.0,407.0,-158.0,238.0,-230.0,-395.0,154,121,110,120,115
2025-02-25 18:59:49.745,431.0,256.0,-8.0,212.0,-263.0,-422.0,156,124,111,123,118
2025-02-25 18:59:49.753,753.0,-5.0,349.0,201.0,-274.0,-437.0,154,126,112,121,119
2025-02-25 18:59:49.757,1020.0,-350.0,506.0,233.0,-271.0,-445.0,154,126,111,121,120
2025-02-25 18:59:49.765,1116.0,-760.0,522.0,193.0,-274.0,-431.0,154,126,110,120,121
2025-02-25 18:59:49.770,1298.0,-1265.0,654.0,152.0,-297.0,-405.0,155,130,115,123,124
2025-02-25 18:59:49.774,1697.0,-1841.0,692.0,134.0,-329.0,-390.0,154,129,113,124,124
2025-02-25 18:59:49.781,2195.0,-2233.0,1051.0,97.0,-340.0,-348.0,155,130,116,123,125
2025-02-25 18:59:49.785,2790.0,-2862.0,1268.0,41.0,-338.0,-300.0,158,133,116,126,127
2025-02-25 18:59:49.793,3075.0,-3615.0,1909.0,-16.0,-317.0,-237.0,159,133,119,127,128
2025-02-25 18:59:49.798,3155.0,-4009.0,2354.0,-71.0,-276.0,-185.0,157,132,116,125,127
2025-02-25 18:59:49.802,3174.0,-4232.0,2514.0,-137.0,-236.0,-124.0,156,131,117,126,126
2025-02-25 18:59:49.810,2958.0,-4001.0,2553.0,-145.0,-199.0,-62.0,159,132,118,125,129
2025-02-25 18:59:49.815,2611.0,-3930.0,2222.0,-160.0,-179.0,16.0,156,131,114,123,126
2025-02-25 18:59:49.822,2435.0,-3686.0,1384.0,-141.0,-130.0,97.0,155,124,115,128,127
2025-02-25 18:59:49.827,1896.0,-3303.0,703.0,-270.0,-67.0,131.0,154,124,111,122,123
2025-02-25 18:59:49.831,1430.0,-2916.0,686.0,-313.0,40.0,185.0,155,126,111,120,124
2025-02-25 18:59:49.838,1050.0,-2590.0,366.0,-337.0,80.0,241.0,153,125,111,121,126
2025-02-25 18:59:49.843,1003.0,-2150.0,18.0,-438.0,65.0,290.0,154,124,111,117,125
2025-02-25 18:59:49.847,885.0,-1814.0,-232.0,-480.0,72.0,318.0,153,124,111,121,126
2025-02-25 18:59:49.855,409.0,-1274.0,-1074.0,-422.0,-142.0,263.0,154,128,112,120,125
2025-02-25 18:59:49.859,631.0,-1005.0,1325.0,-178.0,-193.0,208.0,153,124,111,120,125
2025-02-25 18:59:49.867,893.0,-1540.0,2327.0,-4.0,-44.0,198.0,155,124,107,121,127
2025-02-25 18:59:49.871,773.0,-2506.0,1277.0,-2.0,102.0,253.0,155,125,111,121,127
2025-02-25 18:59:49.876,181.0,-1787.0,120.0,59.0,-13.0,227.0,154,125,120,123,127
2025-02-25 18:59:49.884,155.0,-1224.0,-914.0,61.0,-141.0,204.0,154,126,113,122,127
2025-02-25 18:59:49.888,247.0,-898.0,-331.0,22.0,-113.0,190.0,155,126,112,124,127
2025-02-25 18:59:49.892,239.0,-650.0,304.0,34.0,-81.0,180.0,154,127,112,122,126
2025-02-25 18:59:49.900,267.0,-1255.0,1001.0,35.0,2.0,188.0,154,126,113,122,127
2025-02-25 18:59:49.904,317.0,-1260.0,1233.0,117.0,77.0,194.0,155,127,114,123,127
2025-02-25 18:59:49.909,411.0,-1045.0,1003.0,207.0,76.0,191.0,156,128,114,124,129
2025-02-25 18:59:49.917,394.0,-928.0,869.0,282.0,62.0,190.0,156,129,115,123,125
2025-02-25 18:59:49.921,124.0,-1060.0,875.0,253.0,132.0,212.0,154,129,115,123,128
2025-02-25 18:59:49.925,-2.0,-597.0,-6.0,187.0,148.0,212.0,151,127,115,124,127
2025-02-25 18:59:49.933,-107.0,-400.0,-657.0,136.0,103.0,208.0,153,128,112,122,126
2025-02-25 18:59:49.938,-245.0,-254.0,-181.0,113.0,71.0,200.0,154,125,112,122,123
2025-02-25 18:59:49.942,-310.0,-330.0,231.0,106.0,92.0,192.0,155,129,114,121,127
2025-02-25 18:59:49.949,-146.0,-374.0,747.0,120.0,141.0,190.0,155,129,115,125,128
2025-02-25 18:59:49.953,-189.0,-352.0,754.0,143.0,176.0,186.0,155,129,113,124,127
2025-02-25 18:59:49.958,-225.0,-272.0,950.0,211.0,204.0,172.0,151,128,113,123,127
2025-02-25 18:59:49.965,-201.0,-193.0,905.0,248.0,255.0,163.0,153,128,112,124,126
2025-02-25 18:59:49.970,-209.0,-279.0,597.0,210.0,279.0,157.0,152,128,113,121,128
2025-02-25 18:59:49.974,-470.0,-301.0,-990.0,153.0,262.0,132.0,154,128,118,124,127
2025-02-25 18:59:49.982,-472.0,55.0,-654.0,93.0,179.0,112.0,154,130,115,125,129
2025-02-25 18:59:49.987,-653.0,113.0,25.0,78.0,172.0,96.0,154,130,115,125,127
2025-02-25 18:59:49.990,-584.0,30.0,-129.0,40.0,152.0,88.0,154,129,114,125,128
2025-02-25 18:59:49.995,-642.0,68.0,337.0,26.0,153.0,82.0,152,129,116,117,128
2025-02-25 18:59:50.002,-601.0,45.0,367.0,27.0,173.0,71.0,154,129,116,125,128
2025-02-25 18:59:50.007,-607.0,-62.0,350.0,24.0,201.0,69.0,153,128,113,124,128
2025-02-25 18:59:50.011,-778.0,-42.0,226.0,34.0,215.0,63.0,153,130,114,125,128
2025-02-25 18:59:50.016,-777.0,-31.0,-111.0,20.0,216.0,56.0,152,134,114,123,130
2025-02-25 18:59:50.023,-943.0,-112.0,-158.0,-32.0,168.0,48.0,153,131,116,126,130
2025-02-25 18:59:50.027,-1133.0,-62.0,-162.0,-63.0,108.0,43.0,153,132,119,127,130
2025-02-25 18:59:50.032,-1143.0,-45.0,-149.0,-72.0,59.0,39.0,154,131,117,125,128
2025-02-25 18:59:50.039,-1058.0,-17.0,0.0,-71.0,40.0,37.0,150,129,119,126,128
2025-02-25 18:59:50.044,-1039.0,-22.0,-74.0,-60.0,39.0,35.0,151,128,117,125,129
2025-02-25 18:59:50.048,-1085.0,0.0,-212.0,-32.0,36.0,28.0,153,130,118,127,128
2025-02-25 18:59:50.056,-925.0,124.0,-159.0,-11.0,32.0,19.0,153,134,118,122,126
2025-02-25 18:59:50.060,-964.0,174.0,-136.0,-10.0,26.0,9.0,152,131,118,127,130
2025-02-25 18:59:50.064,-971.0,229.0,-158.0,-8.0,21.0,-4.0,151,128,116,125,127
2025-02-25 18:59:50.068,-1016.0,310.0,-207.0,-1.0,1.0,-11.0,152,131,118,125,128
2025-02-25 18:59:50.076,-1039.0,365.0,-250.0,2.0,-31.0,-24.0,152,129,118,126,129
2025-02-25 18:59:50.081,-1092.0,454.0,-188.0,13.0,-52.0,-37.0,154,133,119,126,128
2025-02-25 18:59:50.085,-1147.0,526.0,-159.0,17.0,-63.0,-53.0,153,133,117,126,128
2025-02-25 18:59:50.093,-1218.0,592.0,-214.0,16.0,-64.0,-71.0,151,130,119,125,128
2025-02-25 18:59:50.097,-1251.0,666.0,-181.0,20.0,-54.0,-92.0,150,128,119,126,128
2025-02-25 18:59:50.102,-1225.0,665.0,-340.0,23.0,-38.0,-104.0,153,130,116,125,127
2025-02-25 18:59:50.109,-1260.0,633.0,-284.0,25.0,-31.0,-126.0,153,132,117,125,128
2025-02-25 18:59:50.113,-1243.0,586.0,-227.0,40.0,-29.0,-151.0,152,129,119,126,129
2025-02-25 18:59:50.121,-1229.0,490.0,-198.0,32.0,-46.0,-174.0,153,130,116,129,129
2025-02-25 18:59:50.126,-1179.0,471.0,-53.0,49.0,-59.0,-200.0,153,131,117,125,128
2025-02-25 18:59:50.130,-1082.0,487.0,-16.0,58.0,-71.0,-227.0,152,130,117,126,129
2025-02-25 18:59:50.134,-921.0,499.0,-13.0,64.0,-79.0,-253.0,150,128,115,126,128
2025-02-25 18:59:50.142,-847.0,508.0,-30.0,81.0,-86.0,-278.0,153,128,116,124,128
2025-02-25 18:59:50.146,-720.0,499.0,8.0,92.0,-98.0,-290.0,157,127,114,123,127
2025-02-25 18:59:50.150,-572.0,486.0,62.0,97.0,-107.0,-313.0,153,129,115,123,128
2025-02-25 18:59:50.159,-335.0,410.0,110.0,102.0,-123.0,-333.0,152,129,116,124,129
2025-02-25 18:59:50.163,-124.0,258.0,26.0,105.0,-149.0,-352.0,153,129,115,125,128
2025-02-25 18:59:50.167,138.0,52.0,32.0,105.0,-177.0,-369.0,153,131,117,126,129
2025-02-25 18:59:50.174,270.0,-269.0,132.0,101.0,-190.0,-381.0,151,129,115,125,127
2025-02-25 18:59:50.179,583.0,-448.0,242.0,89.0,-211.0,-384.0,152,129,114,128,127
2025-02-25 18:59:50.183,977.0,-975.0,338.0,74.0,-229.0,-385.0,155,130,117,126,129
2025-02-25 18:59:50.191,1312.0,-1596.0,453.0,44.0,-251.0,-374.0,156,132,118,127,130
2025-02-25 18:59:50.195,1715.0,-2212.0,654.0,12.0,-287.0,-349.0,155,131,116,127,134
2025-02-25 18:59:50.203,2080.0,-2784.0,964.0,-9.0,-316.0,-309.0,157,132,118,130,131
2025-02-25 18:59:50.207,2462.0,-3285.0,1252.0,-64.0,-333.0,-263.0,158,133,118,132,133
2025-02-25 18:59:50.212,2902.0,-3547.0,1265.0,-131.0,-340.0,-216.0,164,137,120,134,135
2025-02-25 18:59:50.220,3223.0,-3389.0,488.0,-214.0,-360.0,-174.0,163,136,119,134,136
2025-02-25 18:59:50.224,3212.0,-3750.0,1130.0,-236.0,-278.0,-106.0,166,138,122,135,139
2025-02-25 18:59:50.232,2894.0,-3570.0,764.0,-235.0,-204.0,-24.0,168,140,123,136,140
2025-02-25 18:59:50.237,2593.0,-3332.0,258.0,-264.0,-148.0,71.0,164,137,118,135,138
2025-02-25 18:59:50.244,2438.0,-3154.0,249.0,-277.0,-119.0,158.0,167,137,117,133,139
2025-02-25 18:59:50.249,2110.0,-3133.0,185.0,-318.0,-61.0,241.0,165,132,115,133,137
2025-02-25 18:59:50.253,1882.0,-2991.0,-149.0,-372.0,-60.0,291.0,162,130,114,131,136
2025-02-25 18:59:50.261,1540.0,-2439.0,-276.0,-399.0,-101.0,309.0,161,130,111,131,136
2025-02-25 18:59:50.273,1108.0,-2111.0,1570.0,-340.0,-10.0,315.0,162,131,111,131,136
2025-02-25 18:59:50.275,701.0,-1911.0,33.0,-228.0,-9.0,328.0,163,128,111,130,135
2025-02-25 18:59:50.277,888.0,-1843.0,613.0,-42.0,1.0,298.0,165,129,112,132,138
2025-02-25 18:59:50.281,683.0,-1631.0,193.0,49.0,-23.0,260.0,164,129,111,134,138
2025-02-25 18:59:50.286,465.0,-1746.0,187.0,61.0,-10.0,265.0,166,130,113,133,138
2025-02-25 18:59:50.294,487.0,-1528.0,85.0,28.0,2.0,263.0,162,128,111,131,136
2025-02-25 18:59:50.298,260.0,-1315.0,-1083.0,-54.0,-38.0,257.0,161,127,109,129,133
2025-02-25 18:59:50.302,16.0,-874.0,-798.0,-57.0,-163.0,226.0,164,130,113,131,136
2025-02-25 18:59:50.310,295.0,-1064.0,713.0,-10.0,-99.0,219.0,163,131,112,130,137
2025-02-25 18:59:50.314,149.0,-1153.0,638.0,78.0,-70.0,199.0,163,129,112,131,136
2025-02-25 18:59:50.319,151.0,-874.0,566.0,140.0,-52.0,187.0,162,128,112,129,135
2025-02-25 18:59:50.327,104.0,-1013.0,1337.0,257.0,-11.0,207.0,161,127,112,130,133
2025-02-25 18:59:50.331,-68.0,-982.0,981.0,278.0,80.0,219.0,162,129,110,129,133
2025-02-25 18:59:50.335,-61.0,-878.0,223.0,227.0,122.0,224.0,160,129,113,134,132
2025-02-25 18:59:50.342,-184.0,-609.0,-83.0,170.0,112.0,221.0,164,131,115,131,134
2025-02-25 18:59:50.347,-174.0,-534.0,-161.0,137.0,114.0,211.0,164,135,117,134,136
2025-02-25 18:59:50.351,-251.0,-403.0,239.0,124.0,136.0,212.0,163,131,113,133,135
2025-02-25 18:59:50.359,-329.0,-432.0,317.0,125.0,128.0,207.0,161,129,115,132,134
2025-02-25 18:59:50.363,-399.0,-377.0,427.0,158.0,120.0,194.0,161,130,115,128,133
2025-02-25 18:59:50.368,-400.0,-318.0,894.0,212.0,142.0,186.0,162,129,116,132,134
2025-02-25 18:59:50.376,-367.0,-270.0,1012.0,252.0,211.0,173.0,163,131,117,132,134
2025-02-25 18:59:50.380,-410.0,-141.0,810.0,281.0,271.0,163.0,163,131,120,132,135
2025-02-25 18:59:50.384,-371.0,-150.0,684.0,309.0,328.0,159.0,162,130,121,133,134
2025-02-25 18:59:50.391,-315.0,-54.0,355.0,302.0,324.0,128.0,163,131,118,132,134
2025-02-25 18:59:50.396,-511.0,60.0,-772.0,180.0,254.0,111.0,161,129,112,131,133
2025-02-25 18:59:50.400,-725.0,-113.0,-30.0,125.0,254.0,101.0,161,128,117,133,133
2025-02-25 18:59:50.408,-824.0,-232.0,-174.0,64.0,218.0,100.0,162,128,117,130,133
2025-02-25 18:59:50.412,-818.0,-30.0,39.0,20.0,169.0,95.0,164,131,120,133,135
2025-02-25 18:59:50.416,-791.0,72.0,198.0,20.0,153.0,82.0,163,130,123,134,135
2025-02-25 18:59:50.421,-799.0,13.0,333.0,23.0,158.0,72.0,162,130,118,129,134
2025-02-25 18:59:50.428,-827.0,-63.0,182.0,6.0,162.0,60.0,165,129,119,133,134
2025-02-25 18:59:50.432,-840.0,23.0,58.0,-9.0,157.0,54.0,163,131,119,133,134
2025-02-25 18:59:50.437,-896.0,67.0,2.0,-27.0,146.0,48.0,164,126,116,133,133
2025-02-25 18:59:50.441,-940.0,106.0,27.0,-39.0,141.0,42.0,162,120,115,129,130
2025-02-25 18:59:50.449,-973.0,121.0,-114.0,-47.0,105.0,38.0,161,121,113,131,132
2025-02-25 18:59:50.454,-1017.0,129.0,-141.0,-32.0,66.0,31.0,163,118,114,130,132
2025-02-25 18:59:50.458,-1038.0,51.0,-72.0,-36.0,49.0,25.0,164,115,110,127,130
2025-02-25 18:59:50.465,-1043.0,117.0,-202.0,-41.0,30.0,14.0,162,109,106,123,128
2025-02-25 18:59:50.470,-1027.0,198.0,-172.0,-21.0,23.0,4.0,163,106,108,123,126
2025-02-25 18:59:50.474,-982.0,241.0,-90.0,-19.0,17.0,-2.0,162,98,105,117,124
2025-02-25 18:59:50.482,-950.0,251.0,-144.0,-35.0,-2.0,-14.0,164,98,104,116,125
2025-02-25 18:59:50.486,-968.0,251.0,-130.0,-40.0,-25.0,-25.0,163,95,104,113,120
2025-02-25 18:59:50.491,-1054.0,237.0,-138.0,-46.0,-50.0,-36.0,161,88,101,107,116
2025-02-25 18:59:50.498,-1088.0,252.0,-114.0,-80.0,-59.0,-42.0,162,84,98,102,110
2025-02-25 18:59:50.503,-1113.0,390.0,-134.0,-102.0,-71.0,-57.0,160,82,98,97,103
2025-02-25 18:59:50.507,-1167.0,650.0,257.0,-84.0,-48.0,-70.0,161,74,93,93,98
2025-02-25 18:59:50.511,-1280.0,577.0,99.0,-59.0,-23.0,-72.0,163,69,94,90,92
2025-02-25 18:59:50.519,-1296.0,453.0,-601.0,-49.0,-59.0,-78.0,164,72,94,88,86
2025-02-25 18:59:50.522,-1416.0,707.0,-177.0,-50.0,-54.0,-94.0,160,67,87,81,79
2025-02-25 18:59:50.527,-1440.0,911.0,-409.0,-32.0,-52.0,-107.0,164,68,87,82,77
2025-02-25 18:59:50.532,-1384.0,1092.0,-493.0,16.0,-73.0,-132.0,164,66,85,81,73
2025-02-25 18:59:50.539,-1343.0,1127.0,513.0,35.0,4.0,-178.0,165,69,86,81,72
2025-02-25 18:59:50.543,-1400.0,662.0,346.0,54.0,28.0,-194.0,164,66,85,77,67
2025-02-25 18:59:50.547,-1076.0,611.0,397.0,91.0,59.0,-203.0,164,65,81,79,65
2025-02-25 18:59:50.552,-916.0,612.0,845.0,77.0,102.0,-235.0,164,66,82,79,66
2025-02-25 18:59:50.559,-734.0,503.0,-14.0,67.0,82.0,-260.0,164,63,81,77,60
2025-02-25 18:59:50.564,-639.0,412.0,93.0,104.0,77.0,-271.0,159,61,79,79,61
2025-02-25 18:59:50.568,-634.0,406.0,30.0,86.0,58.0,-298.0,163,63,80,80,62
2025-02-25 18:59:50.572,-505.0,277.0,-271.0,77.0,22.0,-319.0,163,61,79,82,61
2025-02-25 18:59:50.576,-306.0,303.0,-559.0,44.0,2.0,-337.0,160,60,77,80,59
2025-02-25 18:59:50.585,-37.0,283.0,-526.0,40.0,-46.0,-348.0,163,60,76,81,62
2025-02-25 18:59:50.589,430.0,309.0,-545.0,53.0,-110.0,-384.0,164,62,76,80,62
2025-02-25 18:59:50.593,651.0,51.0,-172.0,42.0,-131.0,-426.0,159,58,74,77,59
2025-02-25 18:59:50.597,575.0,-109.0,214.0,40.0,-129.0,-438.0,161,59,74,77,59
2025-02-25 18:59:50.605,971.0,-603.0,331.0,48.0,-132.0,-448.0,162,60,75,79,62
2025-02-25 18:59:50.609,934.0,-1300.0,440.0,61.0,-158.0,-449.0,163,62,76,80,63
2025-02-25 18:59:50.613,1119.0,-1986.0,466.0,96.0,-182.0,-434.0,161,58,74,76,61
2025-02-25 18:59:50.621,1596.0,-2257.0,611.0,122.0,-230.0,-423.0,162,58,72,77,61
2025-02-25 18:59:50.625,2274.0,-2837.0,934.0,136.0,-238.0,-382.0,162,62,77,79,64
2025-02-25 18:59:50.630,2759.0,-3519.0,1147.0,143.0,-195.0,-304.0,164,62,79,78,64
2025-02-25 18:59:50.638,3128.0,-4089.0,1572.0,134.0,-117.0,-202.0,162,59,79,78,68
2025-02-25 18:59:50.642,3424.0,-4438.0,1858.0,118.0,-28.0,-93.0,164,60,77,74,62
2025-02-25 18:59:50.646,3497.0,-4445.0,1926.0,100.0,8.0,-4.0,162,57,79,74,64
2025-02-25 18:59:50.651,3416.0,-4279.0,1830.0,74.0,68.0,34.0,163,60,81,75,65
2025-02-25 18:59:50.658,2974.0,-3859.0,1713.0,43.0,117.0,97.0,164,62,78,73,64
2025-02-25 18:59:50.662,2461.0,-3311.0,1235.0,21.0,147.0,152.0,163,59,81,72,62
2025-02-25 18:59:50.666,2186.0,-2784.0,946.0,20.0,73.0,171.0,164,61,81,74,72
2025-02-25 18:59:50.670,1649.0,-2474.0,762.0,-1.0,21.0,184.0,164,59,81,75,64
2025-02-25 18:59:50.679,1360.0,-1869.0,579.0,-37.0,41.0,193.0,163,59,81,74,64
2025-02-25 18:59:50.683,1145.0,-1761.0,457.0,-98.0,49.0,206.0,161,58,80,73,62
2025-02-25 18:59:50.687,712.0,-1896.0,610.0,-115.0,28.0,211.0,163,58,80,76,55
2025-02-25 18:59:50.691,725.0,-1988.0,436.0,-115.0,6.0,209.0,165,60,80,77,65
2025-02-25 18:59:50.699,506.0,-1893.0,353.0,-114.0,6.0,211.0,163,62,79,77,64
2025-02-25 18:59:50.703,463.0,-1884.0,311.0,-101.0,12.0,218.0,160,59,80,76,63
2025-02-25 18:59:50.708,341.0,-1814.0,308.0,-82.0,27.0,220.0,164,62,77,78,67
2025-02-25 18:59:50.712,352.0,-1651.0,359.0,-58.0,38.0,222.0,163,63,80,80,66
2025-02-25 18:59:50.720,328.0,-1500.0,390.0,-55.0,40.0,223.0,162,59,78,79,64
2025-02-25 18:59:50.724,216.0,-1290.0,392.0,-56.0,41.0,225.0,160,61,76,78,64
2025-02-25 18:59:50.728,146.0,-1134.0,403.0,-49.0,29.0,229.0,164,63,78,81,67
2025-02-25 18:59:50.732,57.0,-938.0,456.0,-58.0,9.0,227.0,162,62,79,81,66
2025-02-25 18:59:50.737,75.0,-858.0,393.0,-52.0,13.0,219.0,161,61,76,77,64
2025-02-25 18:59:50.744,-110.0,-703.0,307.0,-51.0,31.0,217.0,164,64,79,81,67
2025-02-25 18:59:50.748,-198.0,-737.0,335.0,-38.0,25.0,212.0,164,61,77,80,66
2025-02-25 18:59:50.753,-275.0,-584.0,387.0,-22.0,20.0,210.0,163,61,76,78,64
2025-02-25 18:59:50.757,-337.0,-526.0,363.0,-3.0,3.0,207.0,164,62,77,81,66
2025-02-25 18:59:50.764,-380.0,-388.0,396.0,8.0,-1.0,197.0,162,61,77,78,66
2025-02-25 18:59:50.768,-395.0,-294.0,346.0,22.0,6.0,185.0,163,63,73,81,67
2025-02-25 18:59:50.772,-435.0,-209.0,356.0,21.0,19.0,179.0,162,62,76,80,67
2025-02-25 18:59:50.777,-492.0,-118.0,416.0,18.0,32.0,169.0,161,61,76,82,66
2025-02-25 18:59:50.781,-507.0,-30.0,465.0,3.0,41.0,158.0,161,61,72,79,65
2025-02-25 18:59:50.785,-565.0,16.0,403.0,-16.0,48.0,153.0,164,66,78,82,69
2025-02-25 18:59:50.793,-601.0,27.0,433.0,-25.0,50.0,143.0,162,62,74,81,67
2025-02-25 18:59:50.797,-618.0,77.0,347.0,-47.0,52.0,132.0,161,59,75,79,65
2025-02-25 18:59:50.801,-703.0,33.0,283.0,-66.0,60.0,126.0,162,61,76,81,68
2025-02-25 18:59:50.805,-736.0,4.0,264.0,-78.0,64.0,116.0,164,62,76,85,70
2025-02-25 18:59:50.809,-730.0,-17.0,216.0,-89.0,64.0,104.0,161,61,74,80,67
2025-02-25 18:59:50.818,-783.0,-29.0,212.0,-104.0,56.0,99.0,162,61,74,82,67
2025-02-25 18:59:50.822,-785.0,-88.0,181.0,-124.0,51.0,90.0,162,61,74,82,69
2025-02-25 18:59:50.826,-838.0,-159.0,125.0,-124.0,51.0,82.0,161,61,76,83,69
2025-02-25 18:59:50.830,-817.0,-135.0,125.0,-128.0,50.0,78.0,161,61,74,81,68
2025-02-25 18:59:50.838,-845.0,-202.0,144.0,-127.0,38.0,70.0,161,61,74,83,69
2025-02-25 18:59:50.842,-878.0,-195.0,110.0,-123.0,28.0,64.0,161,62,73,80,68
2025-02-25 18:59:50.846,-888.0,-211.0,37.0,-101.0,12.0,60.0,163,61,74,82,69
2025-02-25 18:59:50.851,-894.0,-216.0,20.0,-66.0,3.0,54.0,161,62,77,83,69
2025-02-25 18:59:50.855,-887.0,-244.0,15.0,-51.0,-5.0,47.0,162,62,74,80,68
2025-02-25 18:59:50.863,-861.0,-203.0,48.0,-34.0,-7.0,44.0,161,60,76,81,68
2025-02-25 18:59:50.867,-841.0,-185.0,45.0,-30.0,-8.0,38.0,163,64,77,84,70
2025-02-25 18:59:50.871,-803.0,-152.0,41.0,-28.0,-7.0,32.0,161,61,78,81,69
2025-02-25 18:59:50.875,-805.0,-140.0,83.0,-29.0,-8.0,28.0,160,60,75,82,68
2025-02-25 18:59:50.879,-782.0,-94.0,80.0,-31.0,-6.0,21.0,163,64,78,83,70
2025-02-25 18:59:50.888,-799.0,-16.0,62.0,-33.0,0.0,15.0,161,61,75,81,69
2025-02-25 18:59:50.892,-801.0,43.0,68.0,-38.0,3.0,12.0,159,59,76,80,67
2025-02-25 18:59:50.896,-829.0,90.0,61.0,-45.0,12.0,3.0,162,63,78,84,70
2025-02-25 18:59:50.900,-834.0,170.0,44.0,-48.0,17.0,-8.0,162,62,77,81,70
2025-02-25 18:59:50.904,-882.0,175.0,29.0,-42.0,22.0,-14.0,160,64,79,81,67
2025-02-25 18:59:50.909,-927.0,226.0,30.0,-35.0,25.0,-25.0,162,63,78,83,69
2025-02-25 18:59:50.916,-985.0,249.0,-10.0,-27.0,28.0,-37.0,164,61,77,82,66
2025-02-25 18:59:50.920,-1002.0,279.0,-42.0,-14.0,28.0,-43.0,161,63,76,79,67
2025-02-25 18:59:50.924,-1084.0,362.0,-47.0,5.0,28.0,-57.0,163,63,83,82,69
2025-02-25 18:59:50.929,-1134.0,475.0,-62.0,16.0,24.0,-73.0,161,62,76,81,68
2025-02-25 18:59:50.933,-1167.0,539.0,-88.0,43.0,22.0,-83.0,160,60,74,80,68
2025-02-25 18:59:50.941,-1209.0,623.0,-100.0,70.0,16.0,-105.0,166,63,77,82,68
2025-02-25 18:59:50.945,-1302.0,654.0,-102.0,84.0,6.0,-128.0,166,61,77,81,70
2025-02-25 18:59:50.949,-1301.0,694.0,-123.0,112.0,0.0,-140.0,161,62,75,81,68
2025-02-25 18:59:50.954,-1299.0,675.0,-124.0,131.0,-9.0,-163.0,161,66,77,84,67
2025-02-25 18:59:50.961,-1248.0,655.0,-112.0,138.0,-12.0,-186.0,162,62,78,83,70
2025-02-25 18:59:50.965,-1196.0,611.0,-83.0,149.0,-13.0,-209.0,162,62,73,83,68
2025-02-25 18:59:50.970,-1107.0,575.0,-75.0,158.0,-19.0,-219.0,162,64,76,83,70
2025-02-25 18:59:50.978,-1003.0,532.0,-62.0,156.0,-25.0,-242.0,163,62,75,85,69
2025-02-25 18:59:50.981,-956.0,494.0,-94.0,161.0,-31.0,-265.0,161,61,74,82,69
2025-02-25 18:59:50.985,-836.0,485.0,-95.0,153.0,-44.0,-277.0,160,62,74,81,68
2025-02-25 18:59:50.991,-718.0,429.0,-112.0,139.0,-58.0,-301.0,163,65,80,84,70
2025-02-25 18:59:50.998,-544.0,406.0,-109.0,130.0,-79.0,-325.0,161,62,75,83,69
2025-02-25 18:59:51.003,-383.0,381.0,-86.0,110.0,-93.0,-351.0,159,61,74,83,69
2025-02-25 18:59:51.007,-112.0,364.0,-57.0,83.0,-121.0,-363.0,162,62,74,82,68
2025-02-25 18:59:51.011,215.0,230.0,-29.0,49.0,-149.0,-385.0,162,62,75,84,71
2025-02-25 18:59:51.019,548.0,-17.0,61.0,31.0,-175.0,-397.0,161,61,76,82,69
2025-02-25 18:59:51.023,725.0,-473.0,185.0,-5.0,-187.0,-397.0,162,62,74,82,69
2025-02-25 18:59:51.027,1088.0,-780.0,351.0,-29.0,-205.0,-393.0,163,67,76,87,72
2025-02-25 18:59:51.031,1557.0,-1557.0,429.0,-33.0,-217.0,-374.0,162,63,73,84,73
2025-02-25 18:59:51.039,2115.0,-2396.0,707.0,-35.0,-214.0,-340.0,162,63,75,83,69
2025-02-25 18:59:51.043,2625.0,-3311.0,1072.0,-24.0,-206.0,-283.0,161,61,74,83,71
2025-02-25 18:59:51.048,2887.0,-4125.0,1451.0,-10.0,-174.0,-213.0,160,63,75,82,71
2025-02-25 18:59:51.056,3235.0,-4416.0,1573.0,18.0,-138.0,-173.0,162,62,77,80,68
2025-02-25 18:59:51.060,3339.0,-4731.0,1460.0,21.0,-94.0,-94.0,163,62,78,82,71
2025-02-25 18:59:51.064,3271.0,-4743.0,1366.0,30.0,-38.0,-19.0,163,62,80,82,71
2025-02-25 18:59:51.072,2908.0,-4486.0,997.0,32.0,27.0,46.0,162,60,80,79,71
2025-02-25 18:59:51.076,2703.0,-3964.0,680.0,-7.0,61.0,74.0,164,59,80,80,70
2025-02-25 18:59:51.080,2265.0,-3556.0,448.0,-86.0,159.0,113.0,162,62,84,78,68
2025-02-25 18:59:51.084,1629.0,-2870.0,-141.0,-115.0,140.0,159.0,163,67,83,75,69
2025-02-25 18:59:51.092,1239.0,-2352.0,-81.0,51.0,-2.0,183.0,160,60,83,75,68
2025-02-25 18:59:51.096,914.0,-1888.0,-119.0,15.0,-37.0,189.0,161,56,82,75,67
2025-02-25 18:59:51.101,1187.0,-1577.0,-97.0,-77.0,-48.0,183.0,162,61,84,76,69
2025-02-25 18:59:51.105,754.0,-1226.0,-48.0,-107.0,-30.0,193.0,167,68,88,83,75
2025-02-25 18:59:51.112,676.0,-1697.0,97.0,-188.0,-14.0,199.0,164,65,87,84,73
2025-02-25 18:59:51.116,679.0,-1896.0,312.0,-151.0,-63.0,197.0,164,63,83,81,74
2025-02-25 18:59:51.122,546.0,-1910.0,257.0,-122.0,-92.0,198.0,168,68,86,85,74
2025-02-25 18:59:51.126,300.0,-1828.0,232.0,-107.0,-47.0,210.0,169,70,86,89,78
2025-02-25 18:59:51.133,395.0,-1680.0,265.0,-79.0,-7.0,214.0,164,65,85,84,74
2025-02-25 18:59:51.138,470.0,-1717.0,328.0,-27.0,2.0,218.0,163,67,83,84,74
2025-02-25 18:59:51.142,298.0,-1629.0,355.0,-6.0,7.0,227.0,166,68,85,84,77
2025-02-25 18:59:51.145,97.0,-1328.0,420.0,-8.0,22.0,236.0,165,69,85,84,74
2025-02-25 18:59:51.153,213.0,-1104.0,536.0,-28.0,7.0,240.0,163,64,82,83,75
2025-02-25 18:59:51.157,142.0,-969.0,512.0,-63.0,5.0,244.0,165,68,84,85,76
2025-02-25 18:59:51.161,13.0,-722.0,275.0,-54.0,7.0,245.0,165,68,84,85,75
2025-02-25 18:59:51.166,-70.0,-726.0,421.0,-25.0,0.0,256.0,164,69,86,86,75
2025-02-25 18:59:51.171,-272.0,-695.0,467.0,-3.0,-12.0,258.0,165,68,86,87,74
2025-02-25 18:59:51.178,-321.0,-478.0,414.0,26.0,-19.0,256.0,164,67,86,85,74
2025-02-25 18:59:51.182,-320.0,-372.0,458.0,53.0,-16.0,248.0,162,66,84,82,72
2025-02-25 18:59:51.186,-328.0,-289.0,422.0,65.0,-3.0,243.0,163,68,86,86,75
2025-02-25 18:59:51.191,-399.0,-195.0,476.0,81.0,29.0,234.0,163,69,84,84,74
2025-02-25 18:59:51.195,-390.0,-56.0,500.0,93.0,50.0,217.0,160,66,82,84,73
2025-02-25 18:59:51.202,-367.0,-20.0,431.0,74.0,95.0,210.0,163,68,86,85,76
2025-02-25 18:59:51.207,-447.0,-91.0,442.0,62.0,119.0,195.0,163,67,85,85,75
2025-02-25 18:59:51.211,-436.0,-35.0,445.0,19.0,116.0,181.0,161,66,84,89,75
2025-02-25 18:59:51.215,-516.0,-46.0,448.0,-21.0,103.0,172.0,163,70,86,86,75
2025-02-25 18:59:51.220,-599.0,-9.0,439.0,-43.0,97.0,163.0,161,70,87,86,77
2025-02-25 18:59:51.227,-622.0,36.0,468.0,-44.0,100.0,153.0,159,70,86,85,78
2025-02-25 18:59:51.231,-576.0,-25.0,521.0,-59.0,105.0,148.0,163,72,89,89,78
2025-02-25 18:59:51.236,-557.0,-67.0,459.0,-62.0,118.0,128.0,161,71,85,87,77
2025-02-25 18:59:51.240,-502.0,-10.0,313.0,-68.0,123.0,113.0,160,71,90,87,76
2025-02-25 18:59:51.248,-493.0,-42.0,367.0,-103.0,140.0,108.0,158,73,89,87,79
2025-02-25 18:59:51.252,-654.0,32.0,320.0,-146.0,153.0,100.0,160,74,93,90,78
2025-02-25 18:59:51.256,-765.0,27.0,97.0,-152.0,134.0,95.0,159,71,94,89,78
2025-02-25 18:59:51.260,-822.0,-47.0,275.0,-152.0,131.0,96.0,157,75,95,86,78
2025-02-25 18:59:51.265,-880.0,-82.0,-16.0,-70.0,85.0,97.0,162,79,101,89,80
2025-02-25 18:59:51.272,-951.0,-84.0,38.0,-42.0,45.0,92.0,159,78,99,88,80
2025-02-25 18:59:51.276,-967.0,-48.0,263.0,-11.0,44.0,81.0,157,77,101,87,78
2025-02-25 18:59:51.281,-937.0,-62.0,137.0,17.0,48.0,79.0,160,80,104,88,81
2025-02-25 18:59:51.286,-851.0,-68.0,4.0,32.0,53.0,78.0,159,82,104,89,81
2025-02-25 18:59:51.290,-871.0,83.0,155.0,42.0,62.0,76.0,156,80,105,88,80
2025-02-25 18:59:51.297,-875.0,133.0,105.0,42.0,79.0,77.0,159,86,108,98,80
2025-02-25 18:59:51.301,-809.0,208.0,205.0,38.0,96.0,73.0,158,87,110,92,84
2025-02-25 18:59:51.305,-762.0,127.0,-21.0,35.0,97.0,66.0,153,91,111,93,82
2025-02-25 18:59:51.309,-748.0,103.0,-360.0,21.0,79.0,64.0,156,91,112,96,86
2025-02-25 18:59:51.313,-834.0,128.0,-425.0,28.0,52.0,64.0,152,93,112,98,87
2025-02-25 18:59:51.321,-814.0,237.0,-518.0,43.0,46.0,48.0,150,93,111,97,83
2025-02-25 18:59:51.326,-814.0,353.0,-707.0,56.0,38.0,32.0,149,93,113,97,86
2025-02-25 18:59:51.330,-743.0,408.0,-723.0,77.0,38.0,3.0,148,100,113,98,87
2025-02-25 18:59:51.334,-753.0,537.0,-798.0,99.0,40.0,-9.0,143,100,115,97,83
2025-02-25 18:59:51.342,-918.0,542.0,-640.0,128.0,18.0,-28.0,142,101,113,94,82
2025-02-25 18:59:51.346,-1335.0,807.0,-739.0,130.0,17.0,-53.0,141,112,117,106,86
2025-02-25 18:59:51.350,-1558.0,1134.0,-750.0,137.0,2.0,-88.0,141,110,117,96,84
2025-02-25 18:59:51.355,-1603.0,1428.0,-558.0,166.0,-9.0,-130.0,140,111,117,96,83
2025-02-25 18:59:51.363,-1657.0,1370.0,-160.0,184.0,-7.0,-148.0,134,112,119,96,83
2025-02-25 18:59:51.367,-1824.0,1089.0,-84.0,201.0,-17.0,-171.0,137,118,125,101,89
2025-02-25 18:59:51.374,-1527.0,851.0,-159.0,223.0,-67.0,-212.0,132,117,124,99,87
2025-02-25 18:59:51.379,-1035.0,648.0,-300.0,243.0,-117.0,-251.0,131,117,126,101,88
2025-02-25 18:59:51.383,-665.0,583.0,-325.0,253.0,-132.0,-288.0,127,120,125,99,87
2025-02-25 18:59:51.391,-525.0,547.0,-354.0,274.0,-128.0,-322.0,127,119,127,100,87
2025-02-25 18:59:51.395,-420.0,479.0,-208.0,282.0,-127.0,-354.0,124,120,126,89,86
2025-02-25 18:59:51.400,-249.0,455.0,-138.0,298.0,-137.0,-385.0,123,120,127,98,86
2025-02-25 18:59:51.408,-37.0,375.0,-13.0,296.0,-158.0,-401.0,121,130,129,98,89
2025-02-25 18:59:51.412,-31.0,236.0,68.0,258.0,-163.0,-428.0,125,126,130,102,90
2025-02-25 18:59:51.416,145.0,194.0,326.0,251.0,-178.0,-445.0,123,129,130,102,89
2025-02-25 18:59:51.424,447.0,-132.0,457.0,240.0,-200.0,-458.0,122,130,131,101,90
2025-02-25 18:59:51.428,604.0,-538.0,673.0,215.0,-210.0,-464.0,123,131,132,103,89
2025-02-25 18:59:51.433,919.0,-979.0,798.0,180.0,-231.0,-457.0,122,130,131,100,88
2025-02-25 18:59:51.440,1236.0,-1167.0,1287.0,141.0,-229.0,-451.0,122,134,131,103,88
2025-02-25 18:59:51.445,1594.0,-1733.0,1536.0,124.0,-233.0,-415.0,123,135,131,104,92
2025-02-25 18:59:51.449,2053.0,-2104.0,2022.0,106.0,-221.0,-370.0,123,137,131,105,93
2025-02-25 18:59:51.457,2407.0,-2390.0,2293.0,83.0,-181.0,-307.0,121,137,135,105,92
2025-02-25 18:59:51.461,2692.0,-2544.0,2446.0,58.0,-123.0,-236.0,123,138,130,104,93
2025-02-25 18:59:51.469,2861.0,-3053.0,2469.0,31.0,-73.0,-162.0,122,139,131,105,87
2025-02-25 18:59:51.473,2907.0,-3213.0,2381.0,23.0,-9.0,-87.0,122,139,131,103,89
2025-02-25 18:59:51.477,2728.0,-3387.0,2126.0,5.0,17.0,-21.0,120,138,132,103,88
2025-02-25 18:59:51.482,2520.0,-3325.0,1922.0,-47.0,66.0,42.0,121,137,130,101,86
2025-02-25 18:59:51.490,2083.0,-3174.0,1733.0,-92.0,95.0,72.0,124,139,132,102,88
2025-02-25 18:59:51.494,1713.0,-2960.0,1686.0,-141.0,105.0,119.0,124,139,132,100,86
2025-02-25 18:59:51.502,1317.0,-2571.0,1092.0,-210.0,87.0,151.0,123,138,132,102,84
2025-02-25 18:59:51.506,939.0,-2151.0,470.0,-340.0,15.0,161.0,124,138,132,99,85
2025-02-25 18:59:51.510,716.0,-2030.0,704.0,-369.0,6.0,183.0,123,137,130,98,82
2025-02-25 18:59:51.515,599.0,-1877.0,684.0,-318.0,-1.0,189.0,121,136,129,99,80
2025-02-25 18:59:51.522,433.0,-1808.0,306.0,-301.0,-36.0,189.0,124,137,132,100,81
2025-02-25 18:59:51.527,367.0,-1700.0,286.0,-267.0,-49.0,187.0,123,137,131,101,83
2025-02-25 18:59:51.531,355.0,-1666.0,271.0,-224.0,-59.0,180.0,122,139,132,100,82
2025-02-25 18:59:51.539,342.0,-1660.0,212.0,-205.0,-78.0,170.0,122,138,129,100,82
2025-02-25 18:59:51.543,387.0,-1603.0,255.0,-168.0,-85.0,165.0,121,136,130,99,81
2025-02-25 18:59:51.548,408.0,-1560.0,325.0,-126.0,-84.0,164.0,123,138,131,100,81
2025-02-25 18:59:51.555,453.0,-1540.0,389.0,-90.0,-81.0,165.0,121,135,128,99,80
2025-02-25 18:59:51.559,479.0,-1471.0,493.0,-49.0,-71.0,170.0,125,138,131,100,80
2025-02-25 18:59:51.564,481.0,-1398.0,500.0,-10.0,-60.0,174.0,124,138,132,103,83
2025-02-25 18:59:51.571,463.0,-1348.0,622.0,5.0,-45.0,180.0,124,137,129,102,82
2025-02-25 18:59:51.576,414.0,-1209.0,566.0,22.0,-36.0,187.0,119,134,129,101,81
2025-02-25 18:59:51.579,344.0,-1160.0,604.0,44.0,-18.0,190.0,121,137,130,101,82
2025-02-25 18:59:51.588,295.0,-1052.0,594.0,57.0,-6.0,194.0,123,142,131,109,85
2025-02-25 18:59:51.592,218.0,-956.0,604.0,73.0,13.0,199.0,121,140,132,104,84
2025-02-25 18:59:51.597,171.0,-824.0,594.0,77.0,35.0,203.0,121,136,131,103,82
2025-02-25 18:59:51.601,125.0,-708.0,508.0,78.0,45.0,204.0,122,136,131,104,84
2025-02-25 18:59:51.605,2.0,-680.0,519.0,71.0,57.0,205.0,122,137,131,104,85
2025-02-25 18:59:51.613,-83.0,-621.0,469.0,66.0,59.0,205.0,123,140,132,106,84
2025-02-25 18:59:51.617,-121.0,-548.0,491.0,57.0,63.0,204.0,118,136,131,105,84
2025-02-25 18:59:51.621,-152.0,-524.0,542.0,54.0,69.0,204.0,118,137,130,106,82
2025-02-25 18:59:51.629,-214.0,-466.0,529.0,49.0,77.0,202.0,121,140,135,111,88
2025-02-25 18:59:51.640,-295.0,-400.0,477.0,44.0,80.0,197.0,120,138,131,108,86
2025-02-25 18:59:51.643,-325.0,-351.0,555.0,49.0,83.0,191.0,120,137,132,108,85
2025-02-25 18:59:51.645,-373.0,-288.0,529.0,44.0,87.0,185.0,117,136,131,108,87
2025-02-25 18:59:51.650,-385.0,-211.0,446.0,48.0,93.0,179.0,119,139,132,111,88
2025-02-25 18:59:51.654,-430.0,-203.0,480.0,42.0,98.0,169.0,119,139,133,108,87
2025-02-25 18:59:51.658,-521.0,-141.0,413.0,39.0,104.0,158.0,117,140,134,112,87
2025-02-25 18:59:51.666,-558.0,-100.0,378.0,35.0,106.0,148.0,115,135,132,110,88
2025-02-25 18:59:51.670,-645.0,-80.0,259.0,20.0,109.0,144.0,113,138,132,108,88
2025-02-25 18:59:51.674,-704.0,-60.0,260.0,10.0,109.0,136.0,117,138,135,111,89
2025-02-25 18:59:51.679,-767.0,-30.0,198.0,7.0,108.0,129.0,115,139,134,109,89
2025-02-25 18:59:51.686,-791.0,-9.0,87.0,-8.0,108.0,122.0,114,139,132,108,88
2025-02-25 18:59:51.690,-817.0,3.0,41.0,-18.0,105.0,119.0,113,138,133,109,87
2025-02-25 18:59:51.694,-857.0,11.0,34.0,-31.0,97.0,112.0,115,139,137,110,89
2025-02-25 18:59:51.698,-893.0,52.0,-11.0,-37.0,84.0,103.0,115,140,136,111,89
2025-02-25 18:59:51.706,-903.0,66.0,-79.0,-46.0,75.0,96.0,112,129,132,108,88
2025-02-25 18:59:51.710,-896.0,91.0,-88.0,-60.0,61.0,92.0,116,142,137,112,90
2025-02-25 18:59:51.714,-893.0,108.0,-94.0,-69.0,49.0,83.0,115,135,135,113,87
2025-02-25 18:59:51.719,-934.0,141.0,-22.0,-69.0,44.0,72.0,111,136,134,112,89
2025-02-25 18:59:51.726,-942.0,209.0,4.0,-70.0,35.0,66.0,113,139,132,109,90
2025-02-25 18:59:51.731,-957.0,223.0,18.0,-68.0,29.0,53.0,117,139,135,112,89
2025-02-25 18:59:51.735,-979.0,308.0,19.0,-65.0,24.0,39.0,115,129,134,112,91
2025-02-25 18:59:51.739,-995.0,395.0,-25.0,-61.0,21.0,23.0,113,137,133,110,89
2025-02-25 18:59:51.747,-1024.0,421.0,-65.0,-61.0,20.0,15.0,112,139,134,112,91
2025-02-25 18:59:51.751,-1050.0,489.0,-84.0,-60.0,17.0,-1.0,117,140,136,112,90
2025-02-25 18:59:51.756,-1089.0,518.0,-137.0,-60.0,13.0,-17.0,115,139,133,112,90
2025-02-25 18:59:51.760,-1112.0,555.0,-167.0,-57.0,14.0,-34.0,113,139,133,110,89
2025-02-25 18:59:51.768,-1168.0,613.0,-194.0,-50.0,8.0,-42.0,116,140,134,110,90
2025-02-25 18:59:51.773,-1195.0,636.0,-274.0,-40.0,3.0,-60.0,117,142,134,113,89
2025-02-25 18:59:51.777,-1203.0,677.0,-264.0,-23.0,-1.0,-78.0,116,138,134,113,89
2025-02-25 18:59:51.784,-1221.0,702.0,-297.0,-16.0,-7.0,-100.0,115,138,134,112,88
2025-02-25 18:59:51.789,-1204.0,732.0,-327.0,8.0,-9.0,-124.0,114,135,134,113,87
2025-02-25 18:59:51.793,-1188.0,736.0,-305.0,32.0,-12.0,-150.0,114,136,132,110,85
2025-02-25 18:59:51.801,-1158.0,710.0,-289.0,61.0,-14.0,-163.0,113,136,131,111,86
2025-02-25 18:59:51.805,-1085.0,650.0,-223.0,90.0,-13.0,-191.0,116,138,137,112,88
2025-02-25 18:59:51.809,-1002.0,582.0,-202.0,118.0,-13.0,-220.0,116,138,136,112,88
2025-02-25 18:59:51.817,-907.0,511.0,-135.0,146.0,-14.0,-251.0,110,137,136,116,87
2025-02-25 18:59:51.822,-762.0,472.0,-78.0,157.0,-20.0,-281.0,113,137,132,112,87
2025-02-25 18:59:51.826,-644.0,396.0,-49.0,174.0,-24.0,-308.0,115,138,134,112,88
2025-02-25 18:59:51.834,-586.0,316.0,20.0,183.0,-35.0,-331.0,114,136,132,111,85
2025-02-25 18:59:51.838,-449.0,283.0,81.0,183.0,-47.0,-342.0,114,138,135,113,87
2025-02-25 18:59:51.842,-307.0,230.0,133.0,173.0,-65.0,-362.0,114,137,134,113,87
2025-02-25 18:59:51.850,-133.0,122.0,204.0,167.0,-89.0,-379.0,114,138,136,115,88
2025-02-25 18:59:51.854,83.0,-68.0,286.0,149.0,-116.0,-393.0,113,136,133,112,87
2025-02-25 18:59:51.858,175.0,-348.0,371.0,131.0,-128.0,-403.0,112,136,133,112,87
2025-02-25 18:59:51.866,450.0,-528.0,518.0,113.0,-150.0,-407.0,114,137,134,113,87
2025-02-25 18:59:51.870,749.0,-932.0,727.0,108.0,-169.0,-411.0,116,138,138,115,89
2025-02-25 18:59:51.875,1095.0,-1357.0,821.0,106.0,-182.0,-408.0,116,138,138,114,89
2025-02-25 18:59:51.883,1463.0,-1863.0,1041.0,100.0,-182.0,-389.0,118,137,137,115,88
2025-02-25 18:59:51.887,1830.0,-2321.0,1408.0,95.0,-161.0,-355.0,121,137,133,116,90
2025-02-25 18:59:51.891,2177.0,-2702.0,1665.0,90.0,-126.0,-302.0,115,138,135,115,89
2025-02-25 18:59:51.899,2491.0,-2974.0,1869.0,73.0,-76.0,-233.0,117,140,135,114,87
2025-02-25 18:59:51.903,2690.0,-3238.0,2012.0,48.0,-48.0,-155.0,116,139,133,111,87
2025-02-25 18:59:51.907,2730.0,-3373.0,2034.0,20.0,9.0,-71.0,117,138,134,114,89
2025-02-25 18:59:51.916,2688.0,-3381.0,1939.0,-18.0,50.0,-33.0,116,135,132,112,86
2025-02-25 18:59:51.920,2458.0,-3336.0,1829.0,-60.0,86.0,37.0,117,139,135,115,88
2025-02-25 18:59:51.925,2146.0,-3199.0,1709.0,-102.0,99.0,97.0,120,137,134,114,86
2025-02-25 18:59:51.932,1844.0,-2894.0,1345.0,-134.0,90.0,144.0,118,135,135,114,86
2025-02-25 18:59:51.936,1450.0,-2621.0,866.0,-201.0,51.0,175.0,117,134,133,112,85
2025-02-25 18:59:51.941,1349.0,-2287.0,893.0,-267.0,41.0,201.0,116,133,131,111,82
2025-02-25 18:59:51.948,963.0,-2034.0,668.0,-295.0,14.0,218.0,119,133,132,113,84
2025-02-25 18:59:51.953,620.0,-1915.0,497.0,-323.0,-24.0,223.0,118,134,133,112,83
2025-02-25 18:59:51.957,529.0,-1784.0,566.0,-306.0,-39.0,230.0,119,134,134,113,83
2025-02-25 18:59:51.965,438.0,-1668.0,321.0,-279.0,-46.0,228.0,118,132,132,114,85
2025-02-25 18:59:51.969,356.0,-1619.0,289.0,-258.0,-51.0,220.0,118,132,134,114,83
2025-02-25 18:59:51.977,337.0,-1563.0,276.0,-233.0,-52.0,212.0,117,130,131,112,83
2025-02-25 18:59:51.981,316.0,-1498.0,253.0,-194.0,-55.0,205.0,117,130,134,112,84
2025-02-25 18:59:51.985,276.0,-1378.0,239.0,-160.0,-53.0,201.0,118,130,133,113,83
2025-02-25 18:59:51.993,227.0,-1360.0,271.0,-125.0,-50.0,201.0,121,130,134,113,84
2025-02-25 18:59:51.998,177.0,-1243.0,246.0,-96.0,-49.0,206.0,119,130,133,115,86
2025-02-25 18:59:52.001,123.0,-1142.0,280.0,-73.0,-45.0,216.0,120,130,134,117,86
2025-02-25 18:59:52.006,63.0,-1058.0,293.0,-57.0,-44.0,226.0,122,131,134,116,87
2025-02-25 18:59:52.013,9.0,-914.0,311.0,-33.0,-40.0,225.0,119,127,131,110,83
2025-02-25 18:59:52.018,144.0,-817.0,118.0,4.0,-58.0,223.0,117,128,131,104,83
2025-02-25 18:59:52.022,119.0,-612.0,321.0,29.0,-52.0,220.0,118,128,132,103,87
2025-02-25 18:59:52.030,-172.0,-600.0,469.0,37.0,-35.0,222.0,119,127,131,103,87
2025-02-25 18:59:52.034,-293.0,-659.0,557.0,46.0,-19.0,221.0,118,127,131,101,87
2025-02-25 18:59:52.039,-393.0,-367.0,555.0,67.0,4.0,214.0,117,127,129,100,88
2025-02-25 18:59:52.043,-334.0,-385.0,569.0,89.0,47.0,211.0,119,128,132,103,91
2025-02-25 18:59:52.051,-349.0,-346.0,496.0,74.0,85.0,196.0,121,128,130,103,93
2025-02-25 18:59:52.055,-395.0,-300.0,383.0,77.0,110.0,187.0,120,126,128,99,91
2025-02-25 18:59:52.060,-450.0,-289.0,490.0,79.0,127.0,178.0,121,126,128,101,92
2025-02-25 18:59:52.064,-432.0,-216.0,411.0,63.0,151.0,170.0,119,126,129,97,95
2025-02-25 18:59:52.071,-429.0,-192.0,336.0,63.0,156.0,161.0,125,129,130,103,98
2025-02-25 18:59:52.076,-563.0,-155.0,218.0,59.0,154.0,148.0,126,132,129,105,94
2025-02-25 18:59:52.080,-588.0,-132.0,236.0,43.0,155.0,139.0,125,125,128,102,98
2025-02-25 18:59:52.087,-613.0,-141.0,182.0,23.0,154.0,133.0,129,127,130,105,102
2025-02-25 18:59:52.092,-610.0,-137.0,143.0,9.0,154.0,126.0,129,125,129,106,101
2025-02-25 18:59:52.096,-684.0,-148.0,168.0,14.0,154.0,118.0,131,125,128,105,102
2025-02-25 18:59:52.104,-729.0,-255.0,132.0,15.0,151.0,111.0,134,125,126,105,103
2025-02-25 18:59:52.108,-749.0,-294.0,71.0,4.0,149.0,107.0,134,123,124,107,103
2025-02-25 18:59:52.112,-760.0,-250.0,7.0,-4.0,147.0,102.0,134,121,122,104,102
2025-02-25 18:59:52.117,-794.0,-246.0,-9.0,-7.0,146.0,101.0,137,122,122,106,104
2025-02-25 18:59:52.125,-811.0,-258.0,-28.0,-13.0,142.0,100.0,137,117,120,109,106
2025-02-25 18:59:52.129,-780.0,-259.0,-33.0,-17.0,142.0,99.0,139,116,118,107,106
2025-02-25 18:59:52.137,-809.0,-204.0,-120.0,-19.0,138.0,100.0,139,112,114,104,105
2025-02-25 18:59:52.141,-802.0,-162.0,-160.0,-23.0,132.0,98.0,140,109,112,106,105
2025-02-25 18:59:52.145,-846.0,-116.0,-168.0,-40.0,115.0,93.0,141,107,115,106,107
2025-02-25 18:59:52.150,-838.0,-85.0,-163.0,-48.0,91.0,89.0,143,102,109,103,105
2025-02-25 18:59:52.157,-852.0,39.0,-192.0,-59.0,63.0,78.0,143,99,109,105,107
2025-02-25 18:59:52.162,-893.0,151.0,-167.0,-66.0,35.0,66.0,144,94,106,102,107
2025-02-25 18:59:52.166,-942.0,271.0,-221.0,-85.0,19.0,48.0,146,91,105,104,107
2025-02-25 18:59:52.173,-1063.0,334.0,-247.0,-101.0,-12.0,41.0,144,84,100,100,105
2025-02-25 18:59:52.178,-1116.0,543.0,-215.0,-101.0,-32.0,22.0,148,85,100,103,106
2025-02-25 18:59:52.182,-1174.0,675.0,-222.0,-95.0,-47.0,4.0,146,83,99,101,106
2025-02-25 18:59:52.190,-1222.0,782.0,-330.0,-94.0,-63.0,-22.0,148,78,96,99,107
2025-02-25 18:59:52.195,-1261.0,764.0,-437.0,-79.0,-68.0,-53.0,146,75,93,97,102
2025-02-25 18:59:52.198,-1295.0,937.0,-536.0,-73.0,-73.0,-90.0,148,73,92,95,103
2025-02-25 18:59:52.203,-1395.0,1003.0,-510.0,-66.0,-63.0,-110.0,149,73,91,97,105
2025-02-25 18:59:52.210,-1400.0,945.0,-664.0,-41.0,-51.0,-129.0,150,71,88,97,105
2025-02-25 18:59:52.214,-1437.0,1048.0,-766.0,-46.0,-66.0,-151.0,149,70,89,97,104
2025-02-25 18:59:52.219,-1321.0,1042.0,-648.0,-45.0,-66.0,-179.0,149,68,87,98,100
2025-02-25 18:59:52.227,-1308.0,1058.0,-320.0,-8.0,-58.0,-214.0,150,62,88,99,96
2025-02-25 18:59:52.231,-1346.0,1030.0,-388.0,9.0,-70.0,-252.0,148,66,83,99,95
2025-02-25 18:59:52.236,-1271.0,988.0,-127.0,38.0,-72.0,-271.0,148,66,84,101,94
2025-02-25 18:59:52.243,-979.0,1002.0,-182.0,45.0,-68.0,-314.0,150,65,83,102,90
2025-02-25 18:59:52.248,-685.0,934.0,-429.0,48.0,-72.0,-347.0,152,66,82,102,86
2025-02-25 18:59:52.252,-600.0,728.0,-414.0,57.0,-68.0,-374.0,148,63,77,99,80
2025-02-25 18:59:52.256,-428.0,646.0,-384.0,49.0,-56.0,-383.0,149,62,75,96,76
2025-02-25 18:59:52.264,-143.0,441.0,-381.0,36.0,-57.0,-394.0,151,65,77,96,75
2025-02-25 18:59:52.268,166.0,305.0,-343.0,41.0,-82.0,-400.0,154,63,73,95,73
2025-02-25 18:59:52.272,180.0,-3.0,-90.0,41.0,-96.0,-419.0,152,59,68,89,69
2025-02-25 18:59:52.277,329.0,-78.0,243.0,42.0,-120.0,-431.0,154,61,73,91,71
2025-02-25 18:59:52.284,655.0,-308.0,411.0,47.0,-145.0,-442.0,155,63,72,90,72
2025-02-25 18:59:52.288,851.0,-730.0,405.0,60.0,-163.0,-447.0,155,61,73,87,70
2025-02-25 18:59:52.293,941.0,-957.0,414.0,79.0,-176.0,-451.0,155,61,70,85,68
2025-02-25 18:59:52.297,1121.0,-1406.0,397.0,84.0,-181.0,-444.0,156,63,73,87,72
2025-02-25 18:59:52.305,1507.0,-1931.0,189.0,86.0,-188.0,-420.0,157,61,75,85,72
2025-02-25 18:59:52.309,1853.0,-2600.0,331.0,99.0,-181.0,-376.0,158,64,74,84,71
2025-02-25 18:59:52.313,2169.0,-3146.0,883.0,94.0,-162.0,-315.0,152,61,73,82,71
2025-02-25 18:59:52.321,2773.0,-3452.0,1440.0,67.0,-94.0,-280.0,159,62,75,83,73
2025-02-25 18:59:52.326,3103.0,-4143.0,1483.0,77.0,-15.0,-197.0,162,60,71,83,75
2025-02-25 18:59:52.330,3351.0,-4657.0,1436.0,74.0,67.0,-93.0,159,64,75,80,74
2025-02-25 18:59:52.334,3257.0,-4774.0,1166.0,166.0,68.0,17.0,153,60,77,77,73
2025-02-25 18:59:52.342,3000.0,-4442.0,1185.0,212.0,43.0,51.0,159,61,77,76,72
2025-02-25 18:59:52.346,2600.0,-3727.0,1131.0,161.0,77.0,87.0,162,62,82,78,74
2025-02-25 18:59:52.350,2326.0,-3150.0,862.0,113.0,123.0,112.0,159,63,80,72,72
2025-02-25 18:59:52.355,1849.0,-2755.0,267.0,27.0,128.0,151.0,159,63,80,78,70
2025-02-25 18:59:52.362,1282.0,-2693.0,171.0,-48.0,72.0,165.0,158,61,76,79,72
2025-02-25 18:59:52.366,923.0,-2100.0,177.0,-97.0,12.0,189.0,161,65,79,85,76
2025-02-25 18:59:52.370,667.0,-1734.0,101.0,-106.0,-2.0,194.0,160,65,79,82,74
2025-02-25 18:59:52.375,709.0,-1687.0,113.0,-138.0,5.0,188.0,157,63,73,81,71
2025-02-25 18:59:52.382,668.0,-1718.0,129.0,-147.0,30.0,182.0,161,64,75,84,75
2025-02-25 18:59:52.387,611.0,-1755.0,150.0,-129.0,31.0,179.0,161,66,78,87,77
2025-02-25 18:59:52.391,421.0,-1825.0,205.0,-127.0,30.0,186.0,158,63,73,86,74
2025-02-25 18:59:52.395,314.0,-1775.0,193.0,-137.0,24.0,193.0,157,63,72,83,73
2025-02-25 18:59:52.403,239.0,-1737.0,145.0,-138.0,11.0,194.0,159,64,75,86,75
2025-02-25 18:59:52.407,157.0,-1521.0,150.0,-134.0,17.0,196.0,162,70,77,89,77
2025-02-25 18:59:52.411,89.0,-1404.0,113.0,-122.0,3.0,196.0,157,66,74,84,74
2025-02-25 18:59:52.416,87.0,-1274.0,173.0,-80.0,-9.0,197.0,158,62,73,87,73
2025-02-25 18:59:52.424,97.0,-1121.0,259.0,-63.0,-42.0,200.0,160,65,75,88,75
2025-02-25 18:59:52.428,-7.0,-963.0,234.0,-41.0,-66.0,200.0,159,66,76,87,75
2025-02-25 18:59:52.432,-68.0,-768.0,280.0,-16.0,-70.0,200.0,159,66,73,87,74
2025-02-25 18:59:52.437,-111.0,-756.0,236.0,-5.0,-59.0,196.0,160,65,76,86,77
2025-02-25 18:59:52.444,-129.0,-690.0,294.0,5.0,-68.0,190.0,160,67,74,87,76
2025-02-25 18:59:52.448,-107.0,-602.0,367.0,7.0,-71.0,188.0,159,64,76,86,75
2025-02-25 18:59:52.453,-163.0,-579.0,407.0,-16.0,-67.0,188.0,161,67,74,85,76
2025-02-25 18:59:52.457,-238.0,-533.0,378.0,-31.0,-47.0,184.0,159,66,78,87,76
2025-02-25 18:59:52.464,-286.0,-514.0,378.0,-41.0,-31.0,180.0,158,64,76,85,76
2025-02-25 18:59:52.468,-347.0,-466.0,365.0,-58.0,-24.0,177.0,161,65,77,88,76
2025-02-25 18:59:52.473,-431.0,-418.0,333.0,-73.0,-11.0,175.0,160,67,77,88,76
2025-02-25 18:59:52.477,-490.0,-322.0,347.0,-93.0,7.0,168.0,160,66,79,88,77
2025-02-25 18:59:52.480,-497.0,-263.0,384.0,-107.0,18.0,157.0,158,65,75,84,73
2025-02-25 18:59:52.489,-550.0,-230.0,379.0,-127.0,38.0,151.0,158,64,77,88,77
2025-02-25 18:59:52.493,-608.0,-172.0,343.0,-140.0,58.0,138.0,159,66,78,87,77
2025-02-25 18:59:52.498,-669.0,-115.0,327.0,-144.0,73.0,127.0,159,66,79,88,77
2025-02-25 18:59:52.502,-703.0,-89.0,260.0,-150.0,76.0,118.0,158,65,77,86,75
2025-02-25 18:59:52.509,-797.0,-98.0,228.0,-130.0,68.0,113.0,161,67,79,89,78
2025-02-25 18:59:52.514,-816.0,-73.0,183.0,-86.0,44.0,102.0,160,64,81,88,76
2025-02-25 18:59:52.518,-809.0,-115.0,166.0,-62.0,28.0,89.0,158,64,76,88,77
2025-02-25 18:59:52.522,-820.0,-86.0,156.0,-19.0,-2.0,81.0,156,64,74,85,75
2025-02-25 18:59:52.530,-785.0,-71.0,159.0,9.0,-17.0,70.0,160,66,78,88,78
2025-02-25 18:59:52.534,-788.0,-111.0,126.0,17.0,-15.0,60.0,157,65,76,88,76
2025-02-25 18:59:52.538,-796.0,-119.0,123.0,27.0,-15.0,56.0,158,64,74,87,76
2025-02-25 18:59:52.543,-810.0,-180.0,96.0,30.0,-17.0,50.0,160,66,77,90,78
2025-02-25 18:59:52.547,-803.0,-205.0,95.0,17.0,-7.0,45.0,160,65,78,88,77
2025-02-25 18:59:52.551,-790.0,-191.0,28.0,-1.0,1.0,42.0,160,65,75,88,75
2025-02-25 18:59:52.559,-810.0,-224.0,13.0,-19.0,20.0,38.0,160,65,78,88,78
2025-02-25 18:59:52.563,-773.0,-209.0,2.0,-27.0,26.0,34.0,159,66,78,88,76
2025-02-25 18:59:52.567,-771.0,-179.0,-8.0,-33.0,32.0,32.0,158,65,77,88,78
2025-02-25 18:59:52.571,-760.0,-154.0,-23.0,-35.0,33.0,27.0,157,66,81,90,77
2025-02-25 18:59:52.576,-742.0,-95.0,-23.0,-35.0,39.0,18.0,158,64,75,88,76
2025-02-25 18:59:52.583,-760.0,-58.0,-31.0,-34.0,42.0,13.0,157,65,76,86,76
2025-02-25 18:59:52.587,-786.0,17.0,-60.0,-22.0,42.0,4.0,161,69,79,89,79
2025-02-25 18:59:52.592,-818.0,125.0,-59.0,-12.0,33.0,-6.0,159,64,76,86,76
2025-02-25 18:59:52.596,-855.0,187.0,-51.0,15.0,26.0,-12.0,156,64,75,87,75
2025-02-25 18:59:52.600,-903.0,274.0,-58.0,35.0,13.0,-25.0,160,66,76,90,79
2025-02-25 18:59:52.607,-941.0,350.0,-55.0,40.0,6.0,-41.0,160,66,77,88,78
2025-02-25 18:59:52.612,-947.0,398.0,-58.0,57.0,0.0,-49.0,159,64,75,85,76
2025-02-25 18:59:52.616,-988.0,470.0,-66.0,73.0,-10.0,-66.0,160,66,75,91,80
2025-02-25 18:59:52.620,-1048.0,505.0,-51.0,76.0,-10.0,-84.0,158,64,73,91,79
2025-02-25 18:59:52.624,-1045.0,563.0,-67.0,84.0,-8.0,-93.0,159,65,76,88,77
2025-02-25 18:59:52.632,-1092.0,616.0,-48.0,88.0,-6.0,-111.0,159,67,77,91,77
2025-02-25 18:59:52.636,-1151.0,665.0,-68.0,90.0,-3.0,-130.0,160,65,75,88,76
2025-02-25 18:59:52.640,-1164.0,675.0,-55.0,90.0,-1.0,-141.0,158,64,75,89,78
2025-02-25 18:59:52.645,-1162.0,672.0,-64.0,92.0,4.0,-163.0,162,70,78,91,79
2025-02-25 18:59:52.649,-1131.0,634.0,-52.0,96.0,7.0,-187.0,160,66,75,90,77
2025-02-25 18:59:52.657,-1095.0,558.0,-32.0,108.0,7.0,-200.0,158,65,76,91,77
2025-02-25 18:59:52.661,-1020.0,523.0,-23.0,123.0,0.0,-223.0,160,66,79,91,78
2025-02-25 18:59:52.666,-920.0,465.0,-9.0,131.0,-10.0,-246.0,161,66,79,91,80
2025-02-25 18:59:52.670,-839.0,459.0,13.0,140.0,-17.0,-257.0,158,67,76,89,77
2025-02-25 18:59:52.677,-686.0,461.0,30.0,144.0,-29.0,-281.0,160,68,75,91,80
2025-02-25 18:59:52.682,-511.0,430.0,64.0,142.0,-44.0,-307.0,160,67,77,88,78
2025-02-25 18:59:52.686,-408.0,372.0,73.0,136.0,-53.0,-331.0,160,65,78,92,79
2025-02-25 18:59:52.690,-176.0,326.0,80.0,120.0,-74.0,-342.0,161,66,78,91,78
2025-02-25 18:59:52.697,104.0,171.0,127.0,112.0,-96.0,-358.0,161,67,77,89,79
2025-02-25 18:59:52.701,258.0,-87.0,244.0,91.0,-105.0,-365.0,158,64,75,90,77
2025-02-25 18:59:52.706,589.0,-247.0,354.0,64.0,-116.0,-366.0,163,68,77,91,81
2025-02-25 18:59:52.711,880.0,-725.0,386.0,47.0,-122.0,-367.0,160,65,75,91,79
2025-02-25 18:59:52.718,1169.0,-1238.0,463.0,40.0,-123.0,-364.0,160,64,75,89,77
2025-02-25 18:59:52.723,1258.0,-1875.0,593.0,36.0,-122.0,-348.0,157,66,77,89,76
2025-02-25 18:59:52.727,1589.0,-2200.0,805.0,42.0,-116.0,-334.0,160,66,75,90,79
2025-02-25 18:59:52.735,1971.0,-2957.0,934.0,50.0,-101.0,-294.0,161,66,71,90,77
2025-02-25 18:59:52.739,2363.0,-3603.0,1186.0,55.0,-66.0,-236.0,164,67,79,90,81
2025-02-25 18:59:52.744,2708.0,-4170.0,1408.0,59.0,-12.0,-167.0,158,65,78,88,78
2025-02-25 18:59:52.748,2777.0,-4525.0,1334.0,76.0,32.0,-96.0,159,66,79,87,78
2025-02-25 18:59:52.755,2757.0,-4673.0,1081.0,153.0,89.0,-62.0,161,63,82,85,80
2025-02-25 18:59:52.760,2695.0,-4480.0,1006.0,202.0,86.0,1.0,161,65,79,83,79
2025-02-25 18:59:52.764,2300.0,-3964.0,642.0,209.0,95.0,50.0,160,64,83,82,79
2025-02-25 18:59:52.768,2108.0,-3323.0,547.0,141.0,110.0,78.0,161,64,82,82,79
2025-02-25 18:59:52.775,1843.0,-2991.0,225.0,42.0,122.0,119.0,164,65,81,83,78
2025-02-25 18:59:52.779,1299.0,-2538.0,95.0,1.0,100.0,161.0,160,65,82,84,79
2025-02-25 18:59:52.784,1212.0,-2052.0,64.0,-102.0,65.0,174.0,158,61,84,85,78
2025-02-25 18:59:52.788,1014.0,-1955.0,-74.0,-148.0,-10.0,181.0,158,67,78,84,77
2025-02-25 18:59:52.796,688.0,-1819.0,-94.0,-174.0,-38.0,190.0,160,68,77,89,80
2025-02-25 18:59:52.800,590.0,-1931.0,-123.0,-190.0,-7.0,187.0,161,66,74,89,79
2025-02-25 18:59:52.804,648.0,-1953.0,-70.0,-188.0,8.0,173.0,160,67,81,89,78
2025-02-25 18:59:52.809,614.0,-2024.0,-12.0,-171.0,17.0,170.0,158,61,75,88,79
2025-02-25 18:59:52.816,428.0,-2046.0,105.0,-160.0,18.0,179.0,161,65,77,94,81
2025-02-25 18:59:52.821,391.0,-1997.0,238.0,-158.0,0.0,188.0,160,68,78,90,79
2025-02-25 18:59:52.825,367.0,-1816.0,250.0,-163.0,-11.0,195.0,159,65,76,91,79
2025-02-25 18:59:52.829,429.0,-1605.0,109.0,-183.0,6.0,195.0,159,67,77,92,80
2025-02-25 18:59:52.837,241.0,-1404.0,123.0,-151.0,0.0,202.0,165,75,85,99,86
2025-02-25 18:59:52.841,189.0,-1183.0,219.0,-142.0,-20.0,209.0,165,72,85,99,86
2025-02-25 18:59:52.845,152.0,-992.0,239.0,-103.0,-41.0,212.0,165,73,84,101,87
2025-02-25 18:59:52.850,69.0,-935.0,206.0,-52.0,-87.0,210.0,163,76,85,101,86
2025-02-25 18:59:52.857,11.0,-841.0,271.0,-13.0,-104.0,210.0,164,73,86,95,86
2025-02-25 18:59:52.861,-40.0,-696.0,289.0,-1.0,-92.0,210.0,163,71,91,98,85
2025-02-25 18:59:52.866,15.0,-632.0,332.0,20.0,-93.0,210.0,163,73,86,95,85
2025-02-25 18:59:52.870,-26.0,-532.0,437.0,5.0,-85.0,208.0,165,75,87,98,88
2025-02-25 18:59:52.878,-185.0,-523.0,535.0,-9.0,-79.0,208.0,162,72,86,96,85
2025-02-25 18:59:52.882,-202.0,-459.0,559.0,-29.0,-76.0,208.0,161,70,83,96,85
2025-02-25 18:59:52.887,-303.0,-415.0,471.0,-64.0,-60.0,205.0,166,76,92,100,88
2025-02-25 18:59:52.891,-371.0,-330.0,401.0,-81.0,-40.0,201.0,165,75,88,99,88
2025-02-25 18:59:52.898,-358.0,-243.0,415.0,-93.0,-32.0,192.0,160,72,87,97,86
2025-02-25 18:59:52.903,-374.0,-166.0,364.0,-111.0,-6.0,189.0,160,72,84,98,85
2025-02-25 18:59:52.907,-417.0,-192.0,359.0,-133.0,25.0,177.0,163,73,89,102,90
2025-02-25 18:59:52.911,-436.0,-98.0,375.0,-152.0,62.0,166.0,161,74,87,102,88
2025-02-25 18:59:52.919,-461.0,-59.0,372.0,-177.0,77.0,157.0,159,70,84,99,86
2025-02-25 18:59:52.923,-551.0,-39.0,427.0,-198.0,103.0,156.0,159,70,86,100,86
2025-02-25 18:59:52.928,-604.0,-86.0,254.0,-189.0,113.0,151.0,162,74,87,103,91
2025-02-25 18:59:52.932,-639.0,-128.0,266.0,-167.0,108.0,143.0,160,74,86,104,88
2025-02-25 18:59:52.940,-636.0,-191.0,245.0,-125.0,92.0,135.0,159,71,85,102,87
2025-02-25 18:59:52.944,-665.0,-217.0,202.0,-75.0,86.0,125.0,157,71,85,101,86
2025-02-25 18:59:52.948,-708.0,-197.0,268.0,-17.0,70.0,120.0,159,74,88,105,88
2025-02-25 18:59:52.952,-822.0,-228.0,182.0,17.0,63.0,114.0,159,76,87,105,89
2025-02-25 18:59:52.960,-834.0,-209.0,221.0,37.0,63.0,104.0,156,71,84,102,87
2025-02-25 18:59:52.964,-854.0,-218.0,264.0,51.0,74.0,99.0,156,72,83,101,86
2025-02-25 18:59:52.968,-836.0,-127.0,300.0,43.0,99.0,91.0,157,74,86,105,90
2025-02-25 18:59:52.973,-834.0,21.0,263.0,43.0,124.0,87.0,156,71,85,102,88
2025-02-25 18:59:52.980,-837.0,72.0,77.0,27.0,128.0,85.0,155,71,84,103,87
2025-02-25 18:59:52.990,-772.0,118.0,134.0,7.0,130.0,76.0,157,72,84,106,90
2025-02-25 18:59:52.993,-772.0,218.0,22.0,3.0,143.0,69.0,156,74,85,106,91
2025-02-25 18:59:52.995,-742.0,312.0,-34.0,-17.0,151.0,67.0,155,71,82,104,91
2025-02-25 18:59:52.998,-773.0,374.0,-64.0,-43.0,166.0,63.0,155,74,83,105,89
2025-02-25 18:59:53.005,-806.0,504.0,-52.0,-47.0,180.0,62.0,154,72,82,105,89
2025-02-25 18:59:53.010,-830.0,596.0,-71.0,-54.0,182.0,58.0,152,66,80,104,88
2025-02-25 18:59:53.014,-842.0,644.0,-72.0,-49.0,183.0,54.0,153,71,82,105,88
2025-02-25 18:59:53.018,-856.0,705.0,-165.0,-41.0,172.0,44.0,150,71,80,103,87
2025-02-25 18:59:53.026,-850.0,797.0,-231.0,-22.0,166.0,29.0,148,69,80,102,87
2025-02-25 18:59:53.030,-910.0,842.0,-244.0,1.0,154.0,21.0,148,70,79,104,88
2025-02-25 18:59:53.034,-954.0,903.0,-261.0,23.0,144.0,1.0,147,73,79,104,87
2025-02-25 18:59:53.039,-1029.0,906.0,-325.0,34.0,140.0,-26.0,143,71,78,103,86
2025-02-25 18:59:53.046,-1052.0,894.0,-438.0,57.0,132.0,-44.0,139,72,77,101,83
2025-02-25 18:59:53.050,-1075.0,874.0,-522.0,86.0,119.0,-82.0,138,72,78,103,87
2025-02-25 18:59:53.055,-1149.0,844.0,-570.0,119.0,99.0,-121.0,134,72,78,103,86
2025-02-25 18:59:53.059,-1186.0,850.0,-615.0,137.0,81.0,-164.0,131,71,78,102,86
2025-02-25 18:59:53.066,-1169.0,904.0,-787.0,174.0,72.0,-210.0,129,73,74,102,85
2025-02-25 18:59:53.070,-1171.0,902.0,-873.0,196.0,52.0,-232.0,126,68,75,98,82
2025-02-25 18:59:53.075,-1194.0,907.0,-901.0,216.0,23.0,-278.0,124,71,79,103,85
2025-02-25 18:59:53.083,-1111.0,952.0,-895.0,223.0,-17.0,-326.0,125,71,76,100,85
2025-02-25 18:59:53.087,-918.0,918.0,-779.0,222.0,-64.0,-378.0,124,73,77,102,85
2025-02-25 18:59:53.092,-785.0,891.0,-627.0,213.0,-86.0,-427.0,122,73,76,98,84
2025-02-25 18:59:53.096,-426.0,845.0,-394.0,192.0,-123.0,-450.0,120,68,76,98,82
2025-02-25 18:59:53.104,30.0,633.0,-230.0,156.0,-147.0,-484.0,122,73,77,99,84
2025-02-25 18:59:53.108,502.0,273.0,61.0,138.0,-158.0,-497.0,121,72,79,99,84
2025-02-25 18:59:53.112,719.0,-417.0,380.0,103.0,-157.0,-485.0,119,70,77,96,83
2025-02-25 18:59:53.120,1145.0,-827.0,709.0,78.0,-143.0,-468.0,118,67,76,95,82
2025-02-25 18:59:53.124,1568.0,-1747.0,848.0,80.0,-114.0,-419.0,119,72,77,97,84
2025-02-25 18:59:53.128,1960.0,-2695.0,1169.0,90.0,-85.0,-354.0,120,72,77,98,85
2025-02-25 18:59:53.133,2288.0,-3680.0,1404.0,138.0,-58.0,-276.0,118,70,77,94,81
2025-02-25 18:59:53.140,2396.0,-4542.0,1611.0,228.0,-40.0,-196.0,115,70,76,94,81
2025-02-25 18:59:53.145,2638.0,-4826.0,1623.0,307.0,-13.0,-152.0,117,72,78,94,79
2025-02-25 18:59:53.149,2702.0,-5117.0,1436.0,326.0,26.0,-55.0,119,73,81,96,83
2025-02-25 18:59:53.157,2410.0,-4897.0,1245.0,316.0,52.0,30.0,118,72,83,95,81
2025-02-25 18:59:53.161,2142.0,-4262.0,1075.0,276.0,90.0,97.0,117,70,82,92,77
2025-02-25 18:59:53.165,1916.0,-3295.0,941.0,178.0,94.0,119.0,118,72,84,92,78
2025-02-25 18:59:53.170,1484.0,-2864.0,855.0,55.0,69.0,146.0,119,72,86,89,78
2025-02-25 18:59:53.177,1286.0,-2242.0,879.0,-3.0,36.0,141.0,120,71,87,89,72
2025-02-25 18:59:53.182,1099.0,-1995.0,716.0,-107.0,1.0,120.0,118,68,84,86,72
2025-02-25 18:59:53.186,984.0,-1967.0,649.0,-162.0,-100.0,105.0,120,69,84,88,76
2025-02-25 18:59:53.190,873.0,-2001.0,623.0,-209.0,-90.0,93.0,119,72,87,90,77
2025-02-25 18:59:53.198,1139.0,-2200.0,576.0,-225.0,-56.0,96.0,121,72,84,85,76
2025-02-25 18:59:53.201,925.0,-2565.0,506.0,-229.0,-45.0,119.0,118,70,79,91,75
2025-02-25 18:59:53.206,641.0,-2606.0,356.0,-204.0,-30.0,132.0,120,70,81,95,76
2025-02-25 18:59:53.211,613.0,-2684.0,32.0,-166.0,-50.0,152.0,121,74,85,97,76
2025-02-25 18:59:53.218,288.0,-2399.0,-17.0,-151.0,-45.0,184.0,121,73,81,97,77
2025-02-25 18:59:53.222,289.0,-2106.0,-43.0,-127.0,-48.0,203.0,119,74,79,96,75
2025-02-25 18:59:53.227,171.0,-1818.0,-1.0,-105.0,-54.0,209.0,118,73,79,96,75
2025-02-25 18:59:53.234,215.0,-1650.0,35.0,-93.0,-64.0,216.0,121,75,80,99,78
2025-02-25 18:59:53.239,102.0,-1509.0,81.0,-91.0,-59.0,223.0,119,75,78,97,78
2025-02-25 18:59:53.243,224.0,-1249.0,169.0,-82.0,-59.0,225.0,119,71,79,96,75
2025-02-25 18:59:53.247,82.0,-1195.0,299.0,-73.0,-73.0,226.0,118,72,76,96,74
2025-02-25 18:59:53.251,31.0,-1043.0,358.0,-66.0,-74.0,224.0,120,74,79,98,79
2025-02-25 18:59:53.259,-18.0,-955.0,405.0,-64.0,-82.0,226.0,121,73,79,99,78
2025-02-25 18:59:53.264,-122.0,-888.0,408.0,-50.0,-79.0,231.0,119,71,77,96,76
2025-02-25 18:59:53.268,-145.0,-841.0,462.0,-35.0,-77.0,232.0,123,77,80,100,79
2025-02-25 18:59:53.275,-199.0,-635.0,454.0,-28.0,-67.0,234.0,120,76,79,100,80
2025-02-25 18:59:53.280,-294.0,-443.0,491.0,-24.0,-50.0,235.0,122,74,78,98,78
2025-02-25 18:59:53.284,-315.0,-252.0,506.0,-24.0,-44.0,230.0,119,70,76,97,77
2025-02-25 18:59:53.288,-371.0,-155.0,507.0,-28.0,-20.0,227.0,121,74,79,99,80
2025-02-25 18:59:53.296,-440.0,-33.0,507.0,-31.0,-8.0,217.0,121,77,79,101,82
2025-02-25 18:59:53.300,-506.0,109.0,474.0,-33.0,-1.0,203.0,119,73,75,96,78
2025-02-25 18:59:53.304,-543.0,156.0,426.0,-36.0,13.0,196.0,119,71,75,96,78
2025-02-25 18:59:53.308,-632.0,211.0,397.0,-38.0,23.0,177.0,123,76,82,99,79
2025-02-25 18:59:53.313,-718.0,265.0,299.0,-38.0,32.0,158.0,120,73,77,98,79
2025-02-25 18:59:53.320,-730.0,278.0,224.0,-41.0,37.0,147.0,121,72,75,97,79
2025-02-25 18:59:53.325,-767.0,272.0,199.0,-42.0,42.0,129.0,125,73,81,93,82
2025-02-25 18:59:53.329,-818.0,221.0,136.0,-42.0,41.0,112.0,122,72,78,99,81
2025-02-25 18:59:53.333,-820.0,185.0,106.0,-38.0,38.0,96.0,120,72,73,96,79
2025-02-25 18:59:53.338,-843.0,167.0,85.0,-38.0,35.0,91.0,122,72,78,99,83
2025-02-25 18:59:53.345,-859.0,124.0,64.0,-37.0,34.0,81.0,121,72,78,98,81
2025-02-25 18:59:53.349,-858.0,71.0,63.0,-33.0,32.0,71.0,121,71,77,96,80
2025-02-25 18:59:53.353,-856.0,33.0,61.0,-24.0,26.0,67.0,124,75,80,98,82
2025-02-25 18:59:53.357,-849.0,-18.0,56.0,-19.0,25.0,60.0,121,73,78,98,83
2025-02-25 18:59:53.362,-844.0,-52.0,50.0,-8.0,26.0,54.0,119,70,77,97,80
2025-02-25 18:59:53.366,-823.0,-60.0,44.0,-1.0,30.0,51.0,123,76,81,99,82
2025-02-25 18:59:53.370,-828.0,-66.0,48.0,3.0,33.0,47.0,121,73,78,97,82
2025-02-25 18:59:53.378,-832.0,-85.0,58.0,11.0,33.0,43.0,121,72,80,96,81
2025-02-25 18:59:53.382,-828.0,-85.0,53.0,17.0,36.0,41.0,122,72,79,98,83
2025-02-25 18:59:53.386,-802.0,-76.0,44.0,18.0,42.0,40.0,123,73,82,97,83
2025-02-25 18:59:53.391,-820.0,-35.0,28.0,21.0,44.0,37.0,122,74,78,93,82
2025-02-25 18:59:53.395,-816.0,-7.0,0.0,23.0,49.0,35.0,122,76,84,98,84
2025-02-25 18:59:53.399,-824.0,79.0,-4.0,24.0,49.0,30.0,122,74,80,95,83
2025-02-25 18:59:53.402,-813.0,175.0,-20.0,25.0,50.0,22.0,121,73,82,96,81
2025-02-25 18:59:53.411,-818.0,199.0,-31.0,25.0,50.0,16.0,125,76,83,97,83
2025-02-25 18:59:53.414,-825.0,305.0,-63.0,25.0,51.0,4.0,123,74,82,97,82
2025-02-25 18:59:53.419,-822.0,391.0,-82.0,26.0,50.0,-12.0,122,71,79,93,81
2025-02-25 18:59:53.424,-873.0,435.0,-91.0,28.0,47.0,-21.0,124,73,84,97,83
2025-02-25 18:59:53.427,-921.0,486.0,-128.0,29.0,44.0,-40.0,123,72,80,96,80
2025-02-25 18:59:53.434,-937.0,523.0,-152.0,32.0,43.0,-59.0,121,68,82,96,81
2025-02-25 18:59:53.440,-970.0,528.0,-181.0,39.0,40.0,-69.0,122,76,80,98,83
2025-02-25 18:59:53.443,-992.0,527.0,-193.0,43.0,41.0,-87.0,123,75,82,96,82
2025-02-25 18:59:53.447,-994.0,531.0,-213.0,54.0,42.0,-107.0,122,72,79,94,82
2025-02-25 18:59:53.456,-978.0,543.0,-216.0,68.0,48.0,-116.0,125,74,81,97,83
2025-02-25 18:59:53.460,-962.0,539.0,-221.0,75.0,53.0,-133.0,122,74,78,96,83
2025-02-25 18:59:53.464,-967.0,552.0,-233.0,90.0,56.0,-151.0,121,73,80,95,82
2025-02-25 18:59:53.468,-947.0,554.0,-248.0,105.0,58.0,-161.0,123,74,81,97,84
2025-02-25 18:59:53.473,-927.0,568.0,-255.0,123.0,56.0,-185.0,124,74,78,97,84
2025-02-25 18:59:53.480,-922.0,561.0,-269.0,131.0,53.0,-212.0,122,75,78,96,82
2025-02-25 18:59:53.485,-901.0,569.0,-300.0,141.0,43.0,-227.0,122,72,79,97,83
2025-02-25 18:59:53.489,-820.0,584.0,-314.0,151.0,26.0,-259.0,124,74,80,98,84
2025-02-25 18:59:53.497,-729.0,567.0,-298.0,153.0,16.0,-293.0,122,71,78,96,83
2025-02-25 18:59:53.501,-669.0,532.0,-294.0,154.0,-5.0,-310.0,121,71,77,94,79
2025-02-25 18:59:53.505,-501.0,461.0,-263.0,152.0,-26.0,-343.0,124,75,82,99,83
2025-02-25 18:59:53.510,-292.0,329.0,-213.0,149.0,-49.0,-377.0,122,75,78,97,83
2025-02-25 18:59:53.517,-201.0,147.0,-186.0,144.0,-62.0,-392.0,121,71,77,96,83
2025-02-25 18:59:53.521,35.0,26.0,-153.0,141.0,-87.0,-418.0,126,73,80,99,84
2025-02-25 18:59:53.525,266.0,-260.0,-114.0,141.0,-110.0,-433.0,125,74,80,99,85
2025-02-25 18:59:53.529,393.0,-698.0,11.0,141.0,-120.0,-433.0,123,73,78,97,81
2025-02-25 18:59:53.537,718.0,-955.0,131.0,145.0,-136.0,-426.0,122,74,80,97,85
2025-02-25 18:59:53.541,1116.0,-1551.0,426.0,148.0,-142.0,-396.0,124,72,80,99,85
2025-02-25 18:59:53.546,1284.0,-2165.0,705.0,154.0,-142.0,-348.0,124,70,81,98,83
2025-02-25 18:59:53.554,1681.0,-2496.0,1038.0,173.0,-130.0,-319.0,124,74,83,100,86
2025-02-25 18:59:53.558,1985.0,-3190.0,1256.0,214.0,-106.0,-254.0,125,74,83,98,85
2025-02-25 18:59:53.563,2222.0,-3711.0,1540.0,240.0,-83.0,-180.0,126,72,84,99,87
2025-02-25 18:59:53.570,2425.0,-4059.0,1761.0,247.0,-40.0,-103.0,125,73,84,103,85
2025-02-25 18:59:53.575,2437.0,-4214.0,1951.0,243.0,-20.0,-21.0,124,68,83,95,83
2025-02-25 18:59:53.579,2406.0,-4097.0,1869.0,226.0,24.0,41.0,124,68,85,93,82
2025-02-25 18:59:53.583,2132.0,-3910.0,1745.0,178.0,81.0,69.0,132,71,87,91,82
2025-02-25 18:59:53.591,1786.0,-3363.0,1705.0,107.0,116.0,108.0,127,73,90,91,82
2025-02-25 18:59:53.595,1507.0,-2728.0,1584.0,61.0,122.0,130.0,125,72,88,88,78
2025-02-25 18:59:53.599,1322.0,-2233.0,1296.0,-18.0,126.0,128.0,126,70,87,86,76
2025-02-25 18:59:53.607,1069.0,-1992.0,1102.0,-87.0,88.0,126.0,129,73,90,88,81
2025-02-25 18:59:53.611,766.0,-1716.0,1000.0,-126.0,14.0,106.0,126,72,89,87,79
2025-02-25 18:59:53.616,532.0,-1645.0,758.0,-154.0,2.0,98.0,127,71,88,88,79
2025-02-25 18:59:53.620,762.0,-1507.0,646.0,-193.0,-3.0,86.0,125,70,86,87,77
2025-02-25 18:59:53.627,534.0,-1645.0,507.0,-230.0,13.0,89.0,127,74,90,94,82
2025-02-25 18:59:53.632,295.0,-1856.0,395.0,-226.0,25.0,107.0,128,72,87,93,81
2025-02-25 18:59:53.636,345.0,-2012.0,388.0,-209.0,-24.0,108.0,125,71,86,93,79
2025-02-25 18:59:53.640,284.0,-2085.0,208.0,-172.0,-29.0,123.0,126,72,82,96,80
2025-02-25 18:59:53.648,114.0,-2006.0,160.0,-142.0,-15.0,134.0,128,74,87,101,85
2025-02-25 18:59:53.652,161.0,-1876.0,138.0,-101.0,5.0,149.0,127,75,88,99,84
2025-02-25 18:59:53.657,32.0,-1845.0,134.0,-80.0,21.0,161.0,126,73,85,98,83
2025-02-25 18:59:53.661,-8.0,-1758.0,188.0,-53.0,21.0,169.0,127,72,81,97,82
2025-02-25 18:59:53.669,28.0,-1513.0,233.0,-23.0,23.0,184.0,130,77,87,100,85
2025-02-25 18:59:53.673,65.0,-1345.0,331.0,-13.0,31.0,192.0,129,74,84,98,83
2025-02-25 18:59:53.677,64.0,-1194.0,333.0,0.0,38.0,201.0,128,72,84,96,82
2025-02-25 18:59:53.681,65.0,-1084.0,379.0,1.0,31.0,203.0,131,74,86,99,85
2025-02-25 18:59:53.686,-21.0,-1024.0,505.0,14.0,10.0,208.0,131,76,86,98,85
2025-02-25 18:59:53.690,-27.0,-846.0,486.0,38.0,3.0,212.0,130,71,83,97,84
2025-02-25 18:59:53.697,-42.0,-838.0,456.0,63.0,15.0,215.0,133,74,85,98,86
2025-02-25 18:59:53.701,-106.0,-726.0,342.0,70.0,40.0,220.0,134,73,88,99,86
2025-02-25 18:59:53.706,-110.0,-557.0,264.0,90.0,52.0,223.0,136,74,85,97,85
2025-02-25 18:59:53.710,-95.0,-508.0,192.0,113.0,62.0,220.0,137,77,86,99,89
2025-02-25 18:59:53.717,-150.0,-289.0,174.0,120.0,68.0,209.0,138,73,86,96,88
2025-02-25 18:59:53.722,-285.0,-347.0,130.0,92.0,70.0,200.0,135,70,85,98,87
2025-02-25 18:59:53.726,-355.0,-353.0,198.0,41.0,79.0,200.0,140,83,91,101,90
2025-02-25 18:59:53.731,-432.0,-187.0,165.0,12.0,72.0,191.0,140,76,88,98,90
2025-02-25 18:59:53.735,-454.0,-185.0,191.0,-31.0,65.0,180.0,140,74,86,96,87
2025-02-25 18:59:53.742,-514.0,-263.0,116.0,-72.0,49.0,171.0,140,75,87,99,91
2025-02-25 18:59:53.746,-476.0,-380.0,231.0,-79.0,62.0,169.0,142,78,90,99,92
2025-02-25 18:59:53.752,-501.0,-190.0,-459.0,-85.0,41.0,151.0,139,75,88,99,90
2025-02-25 18:59:53.755,-470.0,-132.0,-9.0,-83.0,46.0,145.0,137,73,84,95,89
2025-02-25 18:59:53.763,-579.0,-315.0,126.0,-73.0,66.0,144.0,140,79,89,98,92
2025-02-25 18:59:53.767,-604.0,-349.0,150.0,-64.0,46.0,135.0,140,77,91,96,91
2025-02-25 18:59:53.771,-575.0,-234.0,-250.0,-72.0,35.0,126.0,137,73,87,93,87
2025-02-25 18:59:53.776,-579.0,-296.0,-148.0,-55.0,37.0,129.0,140,75,91,94,90
2025-02-25 18:59:53.782,-681.0,-396.0,-87.0,-25.0,47.0,138.0,136,76,90,95,91
2025-02-25 18:59:53.787,-627.0,-333.0,-240.0,-1.0,31.0,125.0,133,72,89,91,89
2025-02-25 18:59:53.792,-627.0,-314.0,-250.0,45.0,21.0,119.0,131,72,87,87,88
2025-02-25 18:59:53.796,-627.0,-396.0,-114.0,86.0,36.0,118.0,131,77,89,92,91
2025-02-25 18:59:53.804,-512.0,-439.0,210.0,98.0,74.0,134.0,128,77,91,92,90
2025-02-25 18:59:53.808,-686.0,-318.0,-604.0,137.0,44.0,118.0,128,80,89,88,84
2025-02-25 18:59:53.812,-798.0,-369.0,-524.0,179.0,25.0,119.0,128,90,91,90,91
2025-02-25 18:59:53.816,-741.0,-594.0,-450.0,230.0,34.0,122.0,129,96,90,90,89
2025-02-25 18:59:53.824,-779.0,-578.0,-504.0,251.0,26.0,115.0,126,100,88,87,88
2025-02-25 18:59:53.828,-777.0,-480.0,-435.0,261.0,27.0,109.0,124,107,89,89,87
2025-02-25 18:59:53.833,-662.0,-304.0,-396.0,291.0,22.0,103.0,125,111,90,87,89
2025-02-25 18:59:53.837,-777.0,-236.0,-306.0,328.0,16.0,92.0,123,115,92,89,89
2025-02-25 18:59:53.845,-857.0,-230.0,-236.0,349.0,39.0,81.0,122,119,91,88,88
2025-02-25 18:59:53.849,-819.0,-159.0,-288.0,392.0,44.0,69.0,116,117,88,85,86
2025-02-25 18:59:53.853,-851.0,-90.0,-444.0,417.0,41.0,63.0,116,118,91,88,87
2025-02-25 18:59:53.857,-875.0,17.0,-466.0,425.0,37.0,52.0,116,119,89,86,87
2025-02-25 18:59:53.865,-856.0,82.0,-472.0,425.0,39.0,41.0,112,118,86,85,85
2025-02-25 18:59:53.869,-860.0,267.0,-701.0,414.0,31.0,32.0,112,119,89,85,85
2025-02-25 18:59:53.874,-940.0,483.0,-787.0,413.0,0.0,17.0,112,119,88,85,85
2025-02-25 18:59:53.878,-1089.0,488.0,-843.0,404.0,-34.0,-8.0,110,118,86,86,81
2025-02-25 18:59:53.885,-1168.0,536.0,-1061.0,369.0,-56.0,-33.0,109,119,81,84,83
2025-02-25 18:59:53.890,-1213.0,502.0,-1180.0,354.0,-103.0,-46.0,110,121,84,87,84
2025-02-25 18:59:53.894,-1316.0,434.0,-1233.0,352.0,-153.0,-75.0,109,125,86,86,84
2025-02-25 18:59:53.902,-1322.0,330.0,-1240.0,361.0,-197.0,-96.0,109,124,85,87,83
2025-02-25 18:59:53.906,-1117.0,322.0,-1243.0,371.0,-237.0,-119.0,108,126,87,88,86
2025-02-25 18:59:53.910,-970.0,315.0,-1357.0,393.0,-282.0,-146.0,106,125,84,87,85
2025-02-25 18:59:53.918,-957.0,239.0,-1146.0,407.0,-299.0,-164.0,107,126,83,86,84
2025-02-25 18:59:53.922,-883.0,366.0,-1169.0,418.0,-327.0,-188.0,105,128,85,87,86
2025-02-25 18:59:53.927,-748.0,356.0,-932.0,438.0,-347.0,-198.0,108,129,84,89,86
2025-02-25 18:59:53.934,-660.0,464.0,-929.0,452.0,-370.0,-218.0,108,123,86,88,87
2025-02-25 18:59:53.939,-611.0,495.0,-678.0,464.0,-386.0,-227.0,108,124,86,91,89
2025-02-25 18:59:53.943,-491.0,551.0,-535.0,466.0,-405.0,-226.0,107,123,85,90,87
2025-02-25 18:59:53.951,-421.0,555.0,-288.0,450.0,-413.0,-217.0,107,125,85,89,88
2025-02-25 18:59:53.955,-266.0,574.0,-43.0,425.0,-426.0,-199.0,106,124,84,90,87
2025-02-25 18:59:53.959,-82.0,551.0,305.0,397.0,-435.0,-183.0,108,127,87,90,90
2025-02-25 18:59:53.964,126.0,429.0,501.0,349.0,-438.0,-147.0,109,130,87,91,91
2025-02-25 18:59:53.972,517.0,389.0,1048.0,328.0,-425.0,-105.0,110,130,86,90,90
2025-02-25 18:59:53.976,715.0,381.0,1549.0,274.0,-417.0,-69.0,104,127,83,87,88
2025-02-25 18:59:53.980,1075.0,426.0,2053.0,213.0,-395.0,-58.0,105,127,82,87,87
2025-02-25 18:59:53.988,1368.0,562.0,2376.0,179.0,-360.0,-41.0,108,130,87,92,91
2025-02-25 18:59:53.992,1591.0,455.0,2758.0,150.0,-314.0,-23.0,107,130,86,90,90
2025-02-25 18:59:53.996,1836.0,36.0,3203.0,132.0,-258.0,-4.0,105,123,85,90,88
2025-02-25 18:59:54.001,2007.0,229.0,3508.0,97.0,-226.0,3.0,103,125,85,88,88
2025-02-25 18:59:54.008,2186.0,145.0,3669.0,75.0,-168.0,5.0,106,132,88,92,90
2025-02-25 18:59:54.013,2178.0,152.0,3714.0,65.0,-110.0,3.0,105,135,85,94,90
2025-02-25 18:59:54.017,2156.0,84.0,3749.0,46.0,-82.0,6.0,105,130,83,90,88
2025-02-25 18:59:54.021,2027.0,0.0,3737.0,25.0,-29.0,7.0,105,131,87,92,90
2025-02-25 18:59:54.025,1902.0,-27.0,3644.0,-1.0,21.0,14.0,106,130,89,93,92
2025-02-25 18:59:54.033,1834.0,-80.0,3548.0,-18.0,44.0,24.0,102,127,87,89,89
2025-02-25 18:59:54.037,1685.0,-65.0,3317.0,-42.0,83.0,28.0,105,130,87,92,90
2025-02-25 18:59:54.041,1062.0,-96.0,3248.0,-76.0,117.0,60.0,105,131,89,90,91
2025-02-25 18:59:54.046,1333.0,-190.0,2919.0,-95.0,138.0,62.0,102,127,88,91,91
2025-02-25 18:59:54.054,1231.0,25.0,2644.0,-126.0,148.0,68.0,103,126,87,88,88
2025-02-25 18:59:54.058,1069.0,-76.0,2281.0,-143.0,162.0,70.0,104,131,89,90,89
2025-02-25 18:59:54.063,865.0,-218.0,2192.0,-155.0,168.0,73.0,105,130,90,92,91
2025-02-25 18:59:54.070,781.0,-300.0,1920.0,-159.0,171.0,79.0,104,130,89,91,91
2025-02-25 18:59:54.074,726.0,-376.0,1644.0,-162.0,169.0,81.0,101,126,86,89,88
2025-02-25 18:59:54.079,618.0,-371.0,1531.0,-153.0,166.0,83.0,103,127,87,88,88
2025-02-25 18:59:54.083,597.0,-409.0,1453.0,-132.0,161.0,80.0,104,129,84,90,92
2025-02-25 18:59:54.090,539.0,-444.0,1348.0,-118.0,158.0,74.0,103,130,88,90,90
2025-02-25 18:59:54.094,500.0,-340.0,1311.0,-96.0,156.0,71.0,102,129,84,88,88
2025-02-25 18:59:54.099,430.0,-271.0,1232.0,-77.0,155.0,69.0,100,128,87,87,88
2025-02-25 18:59:54.103,342.0,-213.0,1204.0,-66.0,155.0,66.0,104,129,91,91,92
2025-02-25 18:59:54.111,234.0,-169.0,1146.0,-64.0,155.0,65.0,102,130,87,89,90
2025-02-25 18:59:54.115,167.0,-81.0,1123.0,-70.0,154.0,69.0,100,124,86,89,87
2025-02-25 18:59:54.119,52.0,-57.0,1009.0,-80.0,154.0,69.0,103,129,86,89,90
2025-02-25 18:59:54.123,-2.0,-28.0,959.0,-92.0,154.0,69.0,106,129,86,93,96
2025-02-25 18:59:54.131,-41.0,-31.0,896.0,-98.0,155.0,69.0,100,128,84,89,88
2025-02-25 18:59:54.135,-141.0,-48.0,811.0,-109.0,156.0,73.0,102,123,85,88,88
2025-02-25 18:59:54.139,-218.0,-125.0,683.0,-115.0,155.0,69.0,104,124,86,91,91
2025-02-25 18:59:54.144,-284.0,-44.0,614.0,-114.0,154.0,66.0,106,129,89,94,92
2025-02-25 18:59:54.151,-335.0,-38.0,485.0,-108.0,152.0,62.0,100,122,84,89,89
2025-02-25 18:59:54.156,-406.0,-85.0,406.0,-101.0,147.0,60.0,104,132,86,91,90
2025-02-25 18:59:54.160,-473.0,-87.0,346.0,-101.0,141.0,58.0,104,136,86,91,90
2025-02-25 18:59:54.164,-518.0,-62.0,298.0,-99.0,130.0,56.0,107,138,88,93,93
2025-02-25 18:59:54.172,-610.0,-107.0,251.0,-99.0,124.0,56.0,103,135,84,89,90
2025-02-25 18:59:54.176,-658.0,-110.0,141.0,-96.0,110.0,54.0,104,138,87,92,90
2025-02-25 18:59:54.181,-677.0,-59.0,129.0,-89.0,94.0,50.0,104,138,88,92,91
2025-02-25 18:59:54.184,-667.0,-37.0,106.0,-90.0,87.0,43.0,103,137,86,90,90
2025-02-25 18:59:54.190,-757.0,-39.0,46.0,-81.0,72.0,40.0,103,134,88,89,90
2025-02-25 18:59:54.197,-765.0,-74.0,83.0,-78.0,60.0,34.0,105,137,85,91,91
2025-02-25 18:59:54.202,-764.0,-119.0,48.0,-73.0,55.0,31.0,103,135,86,93,90
2025-02-25 18:59:54.206,-791.0,-173.0,55.0,-69.0,46.0,28.0,103,136,86,89,89
2025-02-25 18:59:54.210,-781.0,-164.0,59.0,-67.0,41.0,27.0,105,137,87,93,91
2025-02-25 18:59:54.214,-811.0,-142.0,29.0,-63.0,40.0,22.0,100,137,85,89,89
2025-02-25 18:59:54.222,-829.0,-146.0,-1.0,-55.0,39.0,20.0,105,136,84,88,89
2025-02-25 18:59:54.226,-884.0,-153.0,14.0,-45.0,39.0,16.0,107,140,89,93,93
2025-02-25 18:59:54.230,-933.0,-130.0,-50.0,-39.0,38.0,10.0,105,136,82,89,90
2025-02-25 18:59:54.234,-942.0,-136.0,-107.0,-27.0,37.0,8.0,104,137,85,90,88
2025-02-25 18:59:54.242,-980.0,-107.0,-132.0,-15.0,33.0,2.0,107,141,88,91,91
2025-02-25 18:59:54.246,-1022.0,-91.0,-197.0,-10.0,28.0,-3.0,106,139,87,93,92
2025-02-25 18:59:54.251,-1046.0,-83.0,-218.0,1.0,24.0,-11.0,103,135,85,90,89
2025-02-25 18:59:54.255,-1082.0,-49.0,-292.0,11.0,16.0,-14.0,106,139,88,92,90
2025-02-25 18:59:54.262,-1124.0,-32.0,-303.0,21.0,8.0,-22.0,105,138,87,93,91
2025-02-25 18:59:54.267,-1163.0,-22.0,-359.0,28.0,-2.0,-29.0,105,140,89,93,93
2025-02-25 18:59:54.271,-1185.0,-22.0,-412.0,38.0,-8.0,-36.0,105,136,86,90,89
2025-02-25 18:59:54.275,-1234.0,-17.0,-480.0,49.0,-19.0,-41.0,105,137,87,96,91
2025-02-25 18:59:54.283,-1258.0,26.0,-514.0,62.0,-32.0,-50.0,105,138,87,92,91
2025-02-25 18:59:54.287,-1333.0,23.0,-555.0,65.0,-46.0,-57.0,106,137,86,90,91
2025-02-25 18:59:54.291,-1362.0,60.0,-624.0,77.0,-53.0,-67.0,102,136,84,90,89
2025-02-25 18:59:54.296,-1396.0,42.0,-690.0,89.0,-73.0,-71.0,106,140,88,93,90
2025-02-25 18:59:54.303,-1438.0,106.0,-710.0,98.0,-94.0,-82.0,105,137,87,92,92
2025-02-25 18:59:54.307,-1423.0,118.0,-711.0,101.0,-116.0,-91.0,106,138,87,89,89
2025-02-25 18:59:54.313,-1392.0,152.0,-713.0,107.0,-128.0,-101.0,104,135,85,89,87
2025-02-25 18:59:54.319,-1322.0,162.0,-673.0,114.0,-151.0,-106.0,104,136,86,91,87
2025-02-25 18:59:54.324,-1260.0,198.0,-623.0,122.0,-178.0,-117.0,107,140,87,92,91
2025-02-25 18:59:54.328,-1163.0,246.0,-611.0,135.0,-205.0,-129.0,105,136,86,92,91
