timestamp,ax,ay,az,gx,gy,gz,flex1,flex2,flex3,flex4,flex5,emg1,emg2,emg3
2025-02-25 18:06:56.979,-454.0,-844.0,284.0,6.0,11.0,8.0,138,102,102,118,115
2025-02-25 18:06:56.982,-460.0,-843.0,265.0,7.0,10.0,8.0,137,100,100,119,115
2025-02-25 18:06:56.984,-468.0,-841.0,252.0,7.0,8.0,8.0,139,101,103,121,116
2025-02-25 18:06:56.987,-455.0,-821.0,264.0,6.0,7.0,8.0,139,101,102,119,116
2025-02-25 18:06:56.989,-452.0,-816.0,255.0,6.0,6.0,8.0,138,100,103,119,115
2025-02-25 18:06:56.991,-457.0,-817.0,250.0,6.0,4.0,8.0,140,101,102,120,116
2025-02-25 18:06:56.993,-444.0,-812.0,255.0,6.0,3.0,8.0,139,101,101,119,116
2025-02-25 18:06:56.995,-440.0,-805.0,254.0,6.0,3.0,8.0,139,99,102,120,115
2025-02-25 18:06:56.997,-434.0,-801.0,256.0,7.0,2.0,7.0,140,103,103,120,116
2025-02-25 18:06:56.999,-423.0,-806.0,256.0,7.0,2.0,7.0,138,102,100,119,116
2025-02-25 18:06:57.001,-424.0,-807.0,265.0,9.0,3.0,6.0,139,101,100,118,114
2025-02-25 18:06:57.003,-430.0,-817.0,269.0,12.0,3.0,5.0,140,103,103,120,116
2025-02-25 18:06:57.005,-423.0,-823.0,278.0,14.0,3.0,4.0,140,102,102,120,116
2025-02-25 18:06:57.007,-425.0,-814.0,280.0,17.0,3.0,3.0,138,100,101,118,116
2025-02-25 18:06:57.009,-422.0,-820.0,286.0,19.0,4.0,2.0,140,103,104,120,117
2025-02-25 18:06:57.011,-430.0,-818.0,294.0,21.0,5.0,2.0,140,103,103,119,116
2025-02-25 18:06:57.012,-431.0,-821.0,308.0,24.0,5.0,1.0,138,101,102,118,115
2025-02-25 18:06:57.015,-439.0,-815.0,318.0,26.0,6.0,0.0,140,103,104,120,116
2025-02-25 18:06:57.017,-441.0,-813.0,325.0,27.0,7.0,-1.0,140,102,103,120,117
2025-02-25 18:06:57.019,-446.0,-805.0,326.0,29.0,8.0,-2.0,139,100,101,119,116
2025-02-25 18:06:57.021,-452.0,-814.0,332.0,30.0,8.0,-2.0,140,103,102,119,116
2025-02-25 18:06:57.023,-451.0,-807.0,330.0,30.0,8.0,-3.0,138,102,102,120,117
2025-02-25 18:06:57.025,-444.0,-802.0,333.0,29.0,8.0,-5.0,138,101,101,118,115
2025-02-25 18:06:57.027,-444.0,-805.0,334.0,27.0,8.0,-5.0,140,103,101,120,116
2025-02-25 18:06:57.029,-432.0,-801.0,335.0,26.0,8.0,-7.0,139,103,103,120,116
2025-02-25 18:06:57.031,-435.0,-799.0,336.0,24.0,7.0,-8.0,138,101,102,121,115
2025-02-25 18:06:57.033,-429.0,-806.0,335.0,21.0,6.0,-8.0,140,98,104,121,116
2025-02-25 18:06:57.035,-422.0,-800.0,338.0,18.0,5.0,-11.0,138,103,102,119,116
2025-02-25 18:06:57.037,-416.0,-814.0,347.0,15.0,4.0,-12.0,138,102,102,119,117
2025-02-25 18:06:57.039,-414.0,-821.0,349.0,10.0,3.0,-13.0,140,102,101,119,117
2025-02-25 18:06:57.041,-405.0,-832.0,348.0,7.0,2.0,-15.0,140,103,103,119,117
2025-02-25 18:06:57.043,-411.0,-849.0,360.0,4.0,1.0,-15.0,139,103,102,119,116
2025-02-25 18:06:57.045,-419.0,-861.0,351.0,-2.0,-1.0,-16.0,140,103,103,121,116
2025-02-25 18:06:57.047,-415.0,-867.0,350.0,-3.0,-2.0,-17.0,140,102,102,119,117
2025-02-25 18:06:57.049,-420.0,-884.0,349.0,-4.0,-4.0,-16.0,139,101,102,120,115
2025-02-25 18:06:57.051,-424.0,-865.0,368.0,-7.0,-5.0,-16.0,140,102,102,119,115
2025-02-25 18:06:57.053,-436.0,-912.0,353.0,-8.0,-6.0,-14.0,139,103,99,118,117
2025-02-25 18:06:57.055,-425.0,-895.0,366.0,-8.0,-6.0,-14.0,138,103,102,120,116
2025-02-25 18:06:57.058,-411.0,-896.0,363.0,-10.0,-6.0,-15.0,140,103,103,119,115
2025-02-25 18:06:57.060,-418.0,-884.0,363.0,-12.0,-5.0,-15.0,138,101,102,119,115
2025-02-25 18:06:57.062,-409.0,-875.0,352.0,-12.0,-6.0,-16.0,140,102,103,122,117
2025-02-25 18:06:57.069,-392.0,-882.0,352.0,-14.0,-6.0,-18.0,139,102,102,120,117
2025-02-25 18:06:57.073,-382.0,-874.0,361.0,-14.0,-4.0,-19.0,140,103,102,120,116
2025-02-25 18:06:57.078,-383.0,-883.0,359.0,-14.0,-4.0,-21.0,140,102,103,121,117
2025-02-25 18:06:57.085,-375.0,-881.0,364.0,-15.0,-2.0,-24.0,139,101,102,119,116
2025-02-25 18:06:57.090,-370.0,-889.0,350.0,-16.0,-1.0,-24.0,138,102,103,119,116
2025-02-25 18:06:57.094,-379.0,-900.0,344.0,-17.0,-1.0,-27.0,139,103,104,121,115
2025-02-25 18:06:57.102,-383.0,-913.0,348.0,-18.0,0.0,-28.0,140,103,102,122,116
2025-02-25 18:06:57.106,-383.0,-919.0,335.0,-18.0,1.0,-29.0,141,103,103,120,116
2025-02-25 18:06:57.110,-383.0,-933.0,328.0,-19.0,1.0,-30.0,139,102,102,120,115
2025-02-25 18:06:57.114,-396.0,-941.0,330.0,-20.0,2.0,-30.0,138,103,102,119,115
2025-02-25 18:06:57.122,-389.0,-948.0,320.0,-20.0,1.0,-29.0,139,104,103,120,117
2025-02-25 18:06:57.126,-387.0,-954.0,317.0,-21.0,0.0,-29.0,140,103,102,120,117
2025-02-25 18:06:57.131,-379.0,-942.0,314.0,-21.0,-1.0,-27.0,139,103,103,120,115
2025-02-25 18:06:57.139,-376.0,-939.0,317.0,-22.0,-1.0,-24.0,138,103,102,120,116
2025-02-25 18:06:57.143,-365.0,-922.0,304.0,-25.0,-1.0,-22.0,140,102,102,120,116
2025-02-25 18:06:57.147,-353.0,-929.0,318.0,-26.0,-1.0,-20.0,139,103,105,121,116
2025-02-25 18:06:57.155,-358.0,-926.0,307.0,-30.0,-2.0,-18.0,140,103,103,121,116
2025-02-25 18:06:57.159,-351.0,-933.0,312.0,-34.0,-3.0,-15.0,141,104,104,120,117
2025-02-25 18:06:57.164,-340.0,-935.0,303.0,-37.0,-3.0,-13.0,140,103,103,120,116
2025-02-25 18:06:57.172,-343.0,-944.0,296.0,-36.0,-3.0,-12.0,139,102,102,118,115
2025-02-25 18:06:57.176,-350.0,-947.0,291.0,-35.0,-2.0,-9.0,138,97,102,121,115
2025-02-25 18:06:57.180,-356.0,-955.0,286.0,-34.0,-1.0,-8.0,140,105,104,121,117
2025-02-25 18:06:57.185,-357.0,-962.0,276.0,-33.0,-1.0,-6.0,140,102,102,121,117
2025-02-25 18:06:57.192,-367.0,-964.0,275.0,-32.0,-2.0,-5.0,139,102,103,119,116
2025-02-25 18:06:57.196,-360.0,-966.0,270.0,-31.0,-2.0,-2.0,139,103,103,119,116
2025-02-25 18:06:57.201,-373.0,-965.0,270.0,-29.0,-2.0,-1.0,139,104,102,120,115
2025-02-25 18:06:57.208,-373.0,-969.0,264.0,-24.0,-2.0,1.0,139,104,103,121,116
2025-02-25 18:06:57.212,-365.0,-964.0,263.0,-20.0,-2.0,3.0,140,104,102,117,116
2025-02-25 18:06:57.217,-370.0,-949.0,264.0,-18.0,-1.0,4.0,139,104,104,120,116
2025-02-25 18:06:57.222,-364.0,-940.0,266.0,-14.0,-1.0,6.0,139,102,103,120,115
2025-02-25 18:06:57.229,-362.0,-941.0,257.0,-11.0,0.0,6.0,139,102,101,119,115
2025-02-25 18:06:57.233,-360.0,-930.0,255.0,-8.0,0.0,6.0,140,102,103,123,116
2025-02-25 18:06:57.237,-363.0,-918.0,254.0,-6.0,0.0,7.0,140,105,104,119,115
2025-02-25 18:06:57.242,-365.0,-902.0,258.0,-3.0,1.0,6.0,139,105,103,120,115
2025-02-25 18:06:57.249,-369.0,-896.0,254.0,0.0,1.0,6.0,137,105,104,120,115
2025-02-25 18:06:57.254,-375.0,-893.0,244.0,1.0,0.0,5.0,140,103,102,120,116
2025-02-25 18:06:57.258,-373.0,-870.0,258.0,2.0,-1.0,5.0,140,104,103,118,114
2025-02-25 18:06:57.262,-376.0,-878.0,245.0,2.0,-2.0,5.0,140,104,102,120,115
2025-02-25 18:06:57.270,-386.0,-881.0,240.0,1.0,-3.0,6.0,140,106,103,121,116
2025-02-25 18:06:57.273,-400.0,-882.0,235.0,1.0,-3.0,6.0,139,104,104,119,116
2025-02-25 18:06:57.278,-393.0,-878.0,248.0,3.0,-3.0,6.0,140,105,102,120,114
2025-02-25 18:06:57.282,-405.0,-885.0,257.0,4.0,-4.0,7.0,140,105,103,120,116
2025-02-25 18:06:57.286,-410.0,-883.0,258.0,5.0,-4.0,7.0,141,106,107,121,117
2025-02-25 18:06:57.294,-414.0,-882.0,262.0,6.0,-5.0,8.0,138,106,102,120,115
2025-02-25 18:06:57.298,-414.0,-886.0,271.0,5.0,-5.0,8.0,140,105,103,119,114
2025-02-25 18:06:57.302,-413.0,-887.0,270.0,4.0,-6.0,9.0,140,106,103,121,116
2025-02-25 18:06:57.307,-414.0,-889.0,266.0,3.0,-7.0,9.0,139,100,103,119,116
2025-02-25 18:06:57.314,-421.0,-879.0,279.0,4.0,-7.0,11.0,139,105,102,119,115
2025-02-25 18:06:57.319,-420.0,-892.0,294.0,7.0,-8.0,11.0,138,107,104,122,117
2025-02-25 18:06:57.323,-406.0,-859.0,290.0,10.0,-9.0,11.0,140,108,104,122,117
2025-02-25 18:06:57.327,-406.0,-852.0,286.0,12.0,-10.0,11.0,138,106,102,120,115
2025-02-25 18:06:57.335,-408.0,-855.0,290.0,14.0,-9.0,11.0,138,105,103,121,115
2025-02-25 18:06:57.339,-401.0,-851.0,287.0,17.0,-11.0,11.0,140,107,104,120,115
2025-02-25 18:06:57.344,-395.0,-839.0,306.0,18.0,-10.0,10.0,140,108,103,121,117
2025-02-25 18:06:57.351,-386.0,-830.0,315.0,20.0,-10.0,8.0,139,107,104,120,117
2025-02-25 18:06:57.355,-391.0,-823.0,313.0,22.0,-9.0,7.0,139,107,100,120,115
2025-02-25 18:06:57.360,-390.0,-814.0,327.0,24.0,-8.0,6.0,141,108,103,120,117
2025-02-25 18:06:57.364,-395.0,-808.0,329.0,26.0,-7.0,3.0,140,109,104,121,117
2025-02-25 18:06:57.372,-395.0,-798.0,330.0,26.0,-7.0,2.0,139,107,104,120,118
2025-02-25 18:06:57.376,-402.0,-798.0,340.0,26.0,-6.0,0.0,139,108,104,120,117
2025-02-25 18:06:57.381,-397.0,-800.0,331.0,22.0,-8.0,0.0,140,110,103,121,118
2025-02-25 18:06:57.385,-399.0,-802.0,343.0,18.0,-8.0,-2.0,140,109,104,122,117
2025-02-25 18:06:57.393,-405.0,-803.0,342.0,14.0,-9.0,-3.0,140,109,104,120,118
2025-02-25 18:06:57.397,-404.0,-813.0,347.0,12.0,-9.0,-3.0,140,108,102,120,117
2025-02-25 18:06:57.401,-398.0,-823.0,352.0,8.0,-9.0,-3.0,140,108,104,121,117
2025-02-25 18:06:57.409,-400.0,-826.0,360.0,4.0,-10.0,-3.0,141,110,104,121,117
2025-02-25 18:06:57.413,-403.0,-832.0,364.0,0.0,-10.0,-4.0,140,107,105,120,117
2025-02-25 18:06:57.417,-396.0,-843.0,368.0,-3.0,-9.0,-4.0,141,111,104,120,117
2025-02-25 18:06:57.422,-400.0,-856.0,371.0,-6.0,-9.0,-5.0,140,109,104,120,117
2025-02-25 18:06:57.430,-394.0,-867.0,369.0,-10.0,-10.0,-6.0,139,107,103,119,117
2025-02-25 18:06:57.434,-387.0,-871.0,378.0,-12.0,-9.0,-6.0,140,111,106,122,118
2025-02-25 18:06:57.438,-390.0,-882.0,363.0,-12.0,-10.0,-7.0,141,110,105,121,118
2025-02-25 18:06:57.446,-386.0,-886.0,375.0,-13.0,-8.0,-7.0,140,110,102,120,118
2025-02-25 18:06:57.450,-376.0,-895.0,366.0,-13.0,-8.0,-7.0,139,108,103,120,118
2025-02-25 18:06:57.454,-384.0,-898.0,373.0,-11.0,-7.0,-8.0,138,109,103,120,117
2025-02-25 18:06:57.459,-380.0,-901.0,372.0,-10.0,-6.0,-8.0,141,111,106,122,120
2025-02-25 18:06:57.467,-380.0,-908.0,371.0,-8.0,-3.0,-9.0,139,110,104,121,119
2025-02-25 18:06:57.471,-386.0,-913.0,377.0,-7.0,-1.0,-9.0,139,110,104,121,118
2025-02-25 18:06:57.476,-388.0,-911.0,368.0,-4.0,-1.0,-9.0,139,110,103,119,117
2025-02-25 18:06:57.482,-400.0,-917.0,363.0,-2.0,1.0,-9.0,139,109,104,120,118
2025-02-25 18:06:57.486,-393.0,-913.0,360.0,-1.0,1.0,-9.0,140,110,105,121,119
2025-02-25 18:06:57.491,-387.0,-923.0,355.0,-1.0,1.0,-9.0,139,111,104,120,118
2025-02-25 18:06:57.495,-386.0,-922.0,358.0,0.0,1.0,-8.0,138,109,104,120,118
2025-02-25 18:06:57.503,-387.0,-917.0,354.0,1.0,2.0,-7.0,140,110,105,120,119
2025-02-25 18:06:57.507,-386.0,-923.0,355.0,3.0,3.0,-6.0,140,111,105,124,119
2025-02-25 18:06:57.511,-372.0,-922.0,350.0,3.0,4.0,-5.0,138,109,104,120,118
2025-02-25 18:06:57.516,-375.0,-918.0,342.0,3.0,4.0,-3.0,139,110,104,120,118
2025-02-25 18:06:57.520,-371.0,-913.0,342.0,3.0,5.0,-2.0,140,110,104,122,119
2025-02-25 18:06:57.527,-367.0,-916.0,337.0,3.0,5.0,-1.0,141,111,104,120,119
2025-02-25 18:06:57.532,-369.0,-910.0,331.0,2.0,5.0,-1.0,138,109,105,119,119
2025-02-25 18:06:57.536,-365.0,-910.0,327.0,2.0,5.0,0.0,140,112,105,121,119
2025-02-25 18:06:57.540,-368.0,-907.0,323.0,3.0,6.0,0.0,141,111,105,121,119
2025-02-25 18:06:57.548,-366.0,-909.0,328.0,4.0,7.0,0.0,139,110,108,120,118
2025-02-25 18:06:57.552,-365.0,-904.0,317.0,3.0,7.0,0.0,139,109,104,120,119
2025-02-25 18:06:57.556,-375.0,-906.0,324.0,4.0,7.0,-1.0,140,110,104,120,119
2025-02-25 18:06:57.561,-374.0,-900.0,310.0,4.0,7.0,-1.0,139,110,104,122,120
2025-02-25 18:06:57.568,-379.0,-892.0,321.0,4.0,8.0,-2.0,139,110,104,120,118
2025-02-25 18:06:57.573,-375.0,-892.0,311.0,6.0,9.0,-2.0,139,111,104,121,119
2025-02-25 18:06:57.578,-380.0,-885.0,306.0,7.0,10.0,-3.0,139,110,105,121,119
2025-02-25 18:06:57.582,-382.0,-875.0,302.0,9.0,10.0,-3.0,139,110,104,119,119
2025-02-25 18:06:57.589,-378.0,-860.0,296.0,10.0,11.0,-3.0,139,109,104,120,118
2025-02-25 18:06:57.594,-381.0,-861.0,295.0,12.0,12.0,-4.0,138,110,104,121,120
2025-02-25 18:06:57.598,-385.0,-856.0,296.0,13.0,11.0,-5.0,141,112,105,120,117
2025-02-25 18:06:57.602,-375.0,-846.0,292.0,14.0,11.0,-6.0,139,111,104,118,119
2025-02-25 18:06:57.610,-378.0,-836.0,294.0,16.0,12.0,-6.0,139,109,104,120,118
2025-02-25 18:06:57.614,-374.0,-845.0,303.0,18.0,12.0,-7.0,141,110,103,120,120
2025-02-25 18:06:57.619,-380.0,-852.0,303.0,18.0,11.0,-9.0,140,109,105,121,120
2025-02-25 18:06:57.623,-381.0,-860.0,304.0,17.0,11.0,-10.0,139,111,104,121,118
2025-02-25 18:06:57.631,-380.0,-871.0,305.0,15.0,11.0,-11.0,138,109,103,121,118
2025-02-25 18:06:57.635,-381.0,-877.0,305.0,14.0,10.0,-12.0,139,110,104,120,118
2025-02-25 18:06:57.639,-373.0,-878.0,314.0,13.0,10.0,-13.0,140,109,104,121,119
2025-02-25 18:06:57.646,-374.0,-893.0,285.0,9.0,9.0,-13.0,139,109,104,119,118
2025-02-25 18:06:57.650,-365.0,-906.0,295.0,9.0,8.0,-13.0,139,110,104,120,119
2025-02-25 18:06:57.654,-361.0,-948.0,273.0,7.0,7.0,-10.0,139,109,104,120,117
2025-02-25 18:06:57.659,-355.0,-949.0,271.0,4.0,7.0,-9.0,140,110,105,122,119
2025-02-25 18:06:57.667,-367.0,-960.0,266.0,4.0,7.0,-5.0,140,109,104,120,118
2025-02-25 18:06:57.671,-372.0,-976.0,291.0,5.0,7.0,-2.0,140,109,103,119,117
2025-02-25 18:06:57.676,-375.0,-978.0,306.0,2.0,7.0,0.0,139,109,103,118,117
2025-02-25 18:06:57.679,-361.0,-974.0,307.0,4.0,10.0,2.0,141,110,106,122,120
2025-02-25 18:06:57.687,-396.0,-1009.0,270.0,4.0,8.0,5.0,140,109,104,121,117
2025-02-25 18:06:57.691,-369.0,-979.0,313.0,3.0,8.0,7.0,139,108,103,121,117
2025-02-25 18:06:57.696,-375.0,-978.0,308.0,3.0,8.0,8.0,139,108,106,121,118
2025-02-25 18:06:57.700,-368.0,-1010.0,331.0,2.0,7.0,9.0,140,109,105,121,118
2025-02-25 18:06:57.704,-357.0,-1025.0,337.0,-1.0,6.0,10.0,139,106,103,121,117
2025-02-25 18:06:57.712,-336.0,-1049.0,369.0,-3.0,5.0,10.0,139,106,103,124,117
2025-02-25 18:06:57.716,-339.0,-1063.0,376.0,-5.0,6.0,10.0,139,107,104,121,117
2025-02-25 18:06:57.720,-348.0,-1063.0,385.0,-4.0,8.0,11.0,141,109,105,121,118
2025-02-25 18:06:57.729,-381.0,-1066.0,376.0,-5.0,10.0,13.0,141,107,103,119,116
2025-02-25 18:06:57.733,-398.0,-1066.0,376.0,-3.0,11.0,12.0,138,107,103,120,116
2025-02-25 18:06:57.737,-413.0,-1062.0,377.0,-4.0,13.0,12.0,138,106,103,120,116
2025-02-25 18:06:57.745,-425.0,-1042.0,377.0,-8.0,15.0,12.0,140,107,104,121,118
2025-02-25 18:06:57.749,-445.0,-1048.0,337.0,-10.0,16.0,14.0,138,107,102,121,117
2025-02-25 18:06:57.753,-444.0,-1037.0,325.0,-10.0,18.0,13.0,138,105,104,120,116
2025-02-25 18:06:57.757,-432.0,-1027.0,300.0,-11.0,18.0,13.0,138,104,106,120,116
2025-02-25 18:06:57.765,-420.0,-1020.0,284.0,-9.0,16.0,13.0,139,105,103,120,116
2025-02-25 18:06:57.769,-420.0,-1024.0,294.0,-10.0,14.0,13.0,140,104,102,120,115
2025-02-25 18:06:57.773,-411.0,-1003.0,292.0,-10.0,14.0,13.0,139,105,103,119,116
2025-02-25 18:06:57.782,-408.0,-1017.0,277.0,-11.0,13.0,14.0,139,105,103,120,115
2025-02-25 18:06:57.786,-420.0,-1007.0,294.0,-12.0,11.0,16.0,139,105,101,120,115
2025-02-25 18:06:57.791,-420.0,-1003.0,303.0,-12.0,10.0,17.0,140,104,102,118,114
2025-02-25 18:06:57.799,-424.0,-997.0,305.0,-14.0,8.0,19.0,139,105,102,120,114
2025-02-25 18:06:57.803,-417.0,-978.0,311.0,-12.0,6.0,22.0,141,107,104,121,115
2025-02-25 18:06:57.807,-422.0,-976.0,312.0,-12.0,2.0,24.0,139,105,102,119,114
2025-02-25 18:06:57.811,-424.0,-967.0,330.0,-13.0,0.0,26.0,139,103,102,119,114
2025-02-25 18:06:57.819,-412.0,-951.0,347.0,-15.0,1.0,27.0,140,103,102,118,113
2025-02-25 18:06:57.823,-391.0,-931.0,332.0,-9.0,2.0,28.0,140,106,104,121,114
2025-02-25 18:06:57.827,-402.0,-930.0,339.0,-4.0,0.0,29.0,140,106,104,120,113
2025-02-25 18:06:57.832,-396.0,-908.0,373.0,-5.0,2.0,30.0,138,103,102,118,112
2025-02-25 18:06:57.839,-380.0,-899.0,356.0,-1.0,2.0,30.0,139,104,103,119,113
2025-02-25 18:06:57.844,-375.0,-878.0,359.0,-1.0,6.0,31.0,140,106,104,121,110
2025-02-25 18:06:57.848,-381.0,-854.0,349.0,-4.0,8.0,32.0,139,104,103,120,113
2025-02-25 18:06:57.855,-398.0,-803.0,344.0,-7.0,7.0,33.0,138,104,103,120,112
2025-02-25 18:06:57.860,-381.0,-772.0,376.0,-7.0,9.0,33.0,138,103,103,119,112
2025-02-25 18:06:57.864,-394.0,-732.0,349.0,-4.0,10.0,33.0,139,105,104,121,114
2025-02-25 18:06:57.868,-407.0,-724.0,341.0,7.0,11.0,32.0,139,105,107,119,113
2025-02-25 18:06:57.875,-406.0,-692.0,343.0,12.0,14.0,29.0,139,104,103,119,113
2025-02-25 18:06:57.880,-394.0,-663.0,327.0,18.0,14.0,25.0,139,105,100,119,111
2025-02-25 18:06:57.884,-409.0,-654.0,344.0,22.0,14.0,24.0,140,105,104,121,112
2025-02-25 18:06:57.888,-428.0,-656.0,298.0,18.0,13.0,19.0,140,103,103,120,113
2025-02-25 18:06:57.897,-418.0,-625.0,326.0,15.0,12.0,14.0,139,104,103,120,112
2025-02-25 18:06:57.901,-425.0,-603.0,320.0,7.0,13.0,9.0,140,105,102,120,112
2025-02-25 18:06:57.905,-444.0,-620.0,278.0,8.0,11.0,6.0,139,106,103,120,113
2025-02-25 18:06:57.909,-439.0,-613.0,275.0,1.0,11.0,0.0,141,106,104,120,113
2025-02-25 18:06:57.917,-441.0,-625.0,291.0,-1.0,10.0,-3.0,139,105,105,118,111
2025-02-25 18:06:57.921,-442.0,-640.0,272.0,-5.0,9.0,-7.0,138,104,103,118,111
2025-02-25 18:06:57.926,-442.0,-651.0,279.0,-9.0,7.0,-8.0,140,104,104,121,113
2025-02-25 18:06:57.930,-422.0,-683.0,269.0,-13.0,5.0,-11.0,140,105,103,120,112
2025-02-25 18:06:57.938,-432.0,-705.0,266.0,-15.0,4.0,-12.0,139,106,104,119,112
2025-02-25 18:06:57.942,-426.0,-734.0,254.0,-18.0,4.0,-12.0,140,105,103,119,113
2025-02-25 18:06:57.947,-424.0,-762.0,243.0,-20.0,5.0,-12.0,139,104,104,119,112
2025-02-25 18:06:57.954,-436.0,-778.0,263.0,-23.0,4.0,-11.0,140,106,104,119,111
2025-02-25 18:06:57.958,-437.0,-799.0,240.0,-22.0,3.0,-10.0,140,104,98,120,111
2025-02-25 18:06:57.963,-436.0,-830.0,254.0,-22.0,4.0,-10.0,140,107,104,120,112
2025-02-25 18:06:57.970,-436.0,-849.0,237.0,-22.0,3.0,-9.0,138,102,101,120,112
2025-02-25 18:06:57.974,-433.0,-857.0,235.0,-20.0,2.0,-9.0,138,104,103,119,110
2025-02-25 18:06:57.978,-437.0,-868.0,235.0,-18.0,2.0,-9.0,139,106,105,121,111
2025-02-25 18:06:57.983,-438.0,-872.0,226.0,-16.0,2.0,-9.0,140,105,104,120,112
2025-02-25 18:06:57.990,-439.0,-880.0,213.0,-12.0,2.0,-9.0,139,103,103,119,111
2025-02-25 18:06:57.995,-436.0,-882.0,198.0,-13.0,1.0,-8.0,138,105,103,119,111
2025-02-25 18:06:57.999,-430.0,-881.0,208.0,-12.0,2.0,-8.0,140,106,105,120,112
2025-02-25 18:06:58.003,-444.0,-888.0,214.0,-8.0,2.0,-8.0,139,105,104,121,112
2025-02-25 18:06:58.011,-449.0,-887.0,187.0,-5.0,0.0,-5.0,139,104,103,120,112
2025-02-25 18:06:58.015,-447.0,-885.0,217.0,-1.0,0.0,-2.0,138,106,102,120,110
2025-02-25 18:06:58.019,-469.0,-889.0,225.0,2.0,-1.0,0.0,139,104,104,120,113
2025-02-25 18:06:58.024,-481.0,-893.0,229.0,6.0,-4.0,3.0,139,105,105,119,111
2025-02-25 18:06:58.032,-480.0,-889.0,263.0,6.0,-5.0,6.0,138,104,103,119,110
2025-02-25 18:06:58.036,-488.0,-889.0,263.0,7.0,-6.0,7.0,139,104,102,119,111
2025-02-25 18:06:58.040,-491.0,-895.0,265.0,8.0,-7.0,9.0,139,105,104,119,112
2025-02-25 18:06:58.044,-499.0,-892.0,272.0,8.0,-8.0,12.0,139,106,103,122,110
2025-02-25 18:06:58.052,-493.0,-889.0,276.0,8.0,-8.0,13.0,138,104,103,119,110
2025-02-25 18:06:58.056,-494.0,-886.0,284.0,10.0,-9.0,13.0,140,105,105,119,109
2025-02-25 18:06:58.061,-494.0,-878.0,296.0,10.0,-8.0,14.0,141,105,103,119,113
2025-02-25 18:06:58.065,-496.0,-867.0,298.0,10.0,-7.0,14.0,138,104,103,120,110
2025-02-25 18:06:58.073,-495.0,-862.0,306.0,11.0,-7.0,15.0,139,105,103,118,110
2025-02-25 18:06:58.076,-494.0,-855.0,319.0,12.0,-6.0,14.0,137,107,102,120,110
2025-02-25 18:06:58.081,-496.0,-845.0,321.0,13.0,-4.0,14.0,142,107,104,122,112
2025-02-25 18:06:58.089,-483.0,-833.0,343.0,13.0,-2.0,13.0,139,105,104,120,111
2025-02-25 18:06:58.093,-488.0,-824.0,336.0,13.0,-1.0,11.0,139,105,103,120,110
2025-02-25 18:06:58.097,-475.0,-811.0,348.0,12.0,0.0,9.0,138,104,101,118,111
2025-02-25 18:06:58.101,-466.0,-809.0,341.0,11.0,3.0,8.0,140,106,105,119,112
2025-02-25 18:06:58.109,-469.0,-799.0,336.0,10.0,5.0,7.0,139,108,105,120,111
2025-02-25 18:06:58.113,-464.0,-784.0,350.0,10.0,6.0,5.0,139,105,103,120,111
2025-02-25 18:06:58.117,-468.0,-793.0,356.0,9.0,6.0,5.0,138,103,102,119,110
2025-02-25 18:06:58.122,-473.0,-791.0,351.0,6.0,6.0,3.0,141,106,105,120,112
2025-02-25 18:06:58.126,-476.0,-791.0,347.0,4.0,6.0,1.0,139,105,104,120,111
2025-02-25 18:06:58.134,-482.0,-803.0,345.0,2.0,7.0,0.0,139,103,102,119,110
2025-02-25 18:06:58.138,-490.0,-788.0,333.0,2.0,8.0,-2.0,139,105,104,120,111
2025-02-25 18:06:58.142,-500.0,-814.0,331.0,2.0,6.0,-3.0,140,106,105,120,111
2025-02-25 18:06:58.147,-484.0,-789.0,340.0,0.0,7.0,-5.0,139,105,101,118,110
2025-02-25 18:06:58.154,-489.0,-809.0,328.0,-2.0,5.0,-5.0,139,106,104,119,111
2025-02-25 18:06:58.158,-480.0,-813.0,349.0,-5.0,5.0,-7.0,141,106,106,121,111
2025-02-25 18:06:58.163,-484.0,-825.0,325.0,-7.0,6.0,-8.0,140,106,105,121,111
2025-02-25 18:06:58.167,-473.0,-833.0,340.0,-5.0,7.0,-8.0,139,106,104,119,112
2025-02-25 18:06:58.175,-479.0,-826.0,344.0,-8.0,7.0,-9.0,140,103,102,118,112
2025-02-25 18:06:58.179,-460.0,-837.0,335.0,-11.0,7.0,-10.0,140,107,105,119,111
2025-02-25 18:06:58.184,-455.0,-843.0,321.0,-12.0,6.0,-11.0,140,105,105,120,111
2025-02-25 18:06:58.191,-454.0,-852.0,311.0,-14.0,6.0,-11.0,139,102,102,119,114
2025-02-25 18:06:58.196,-445.0,-860.0,317.0,-15.0,6.0,-11.0,139,102,103,119,111
2025-02-25 18:06:58.199,-440.0,-862.0,295.0,-17.0,7.0,-11.0,140,106,107,123,113
2025-02-25 18:06:58.204,-447.0,-879.0,320.0,-16.0,8.0,-12.0,141,102,104,120,112
2025-02-25 18:06:58.211,-454.0,-882.0,323.0,-17.0,8.0,-12.0,143,102,104,116,112
2025-02-25 18:06:58.216,-449.0,-890.0,319.0,-21.0,9.0,-13.0,140,100,103,120,111
2025-02-25 18:06:58.220,-441.0,-894.0,284.0,-19.0,10.0,-14.0,140,99,102,119,111
2025-02-25 18:06:58.228,-443.0,-905.0,263.0,-18.0,10.0,-13.0,141,99,104,121,113
2025-02-25 18:06:58.232,-434.0,-890.0,267.0,-19.0,9.0,-13.0,141,97,103,122,112
2025-02-25 18:06:58.236,-443.0,-902.0,244.0,-19.0,7.0,-13.0,140,98,102,121,111
2025-02-25 18:06:58.241,-442.0,-900.0,241.0,-19.0,6.0,-13.0,141,98,104,120,113
2025-02-25 18:06:58.249,-446.0,-892.0,250.0,-22.0,5.0,-13.0,139,95,100,120,112
2025-02-25 18:06:58.253,-444.0,-898.0,237.0,-21.0,2.0,-12.0,141,96,103,119,112
2025-02-25 18:06:58.257,-447.0,-900.0,229.0,-21.0,0.0,-12.0,140,95,102,120,113
2025-02-25 18:06:58.265,-430.0,-913.0,239.0,-23.0,-1.0,-12.0,140,95,100,121,112
2025-02-25 18:06:58.269,-431.0,-934.0,214.0,-24.0,-2.0,-12.0,140,93,99,119,111
2025-02-25 18:06:58.274,-437.0,-941.0,239.0,-22.0,-4.0,-12.0,142,94,101,120,112
2025-02-25 18:06:58.278,-433.0,-956.0,230.0,-21.0,-5.0,-10.0,141,94,101,120,112
2025-02-25 18:06:58.285,-436.0,-982.0,236.0,-20.0,-5.0,-9.0,141,93,100,119,112
2025-02-25 18:06:58.290,-439.0,-987.0,247.0,-20.0,-5.0,-8.0,141,94,99,120,110
2025-02-25 18:06:58.294,-441.0,-996.0,268.0,-20.0,-4.0,-7.0,140,94,99,117,110
2025-02-25 18:06:58.298,-442.0,-1011.0,260.0,-20.0,-2.0,-6.0,140,91,97,119,111
2025-02-25 18:06:58.306,-438.0,-1019.0,255.0,-20.0,-2.0,-6.0,141,92,102,119,110
2025-02-25 18:06:58.310,-433.0,-1039.0,283.0,-20.0,-1.0,-5.0,139,91,100,120,110
2025-02-25 18:06:58.315,-426.0,-1057.0,269.0,-21.0,0.0,-6.0,140,92,99,118,110
2025-02-25 18:06:58.322,-400.0,-1063.0,279.0,-26.0,5.0,-7.0,143,95,100,119,112
2025-02-25 18:06:58.326,-388.0,-1082.0,287.0,-25.0,6.0,-8.0,141,94,101,120,112
2025-02-25 18:06:58.331,-392.0,-1107.0,300.0,-27.0,7.0,-10.0,141,91,100,118,110
2025-02-25 18:06:58.335,-371.0,-1125.0,303.0,-31.0,7.0,-10.0,140,92,104,119,110
2025-02-25 18:06:58.343,-364.0,-1144.0,306.0,-39.0,10.0,-11.0,140,91,100,118,109
2025-02-25 18:06:58.347,-349.0,-1162.0,295.0,-47.0,10.0,-10.0,142,91,99,117,110
2025-02-25 18:06:58.351,-347.0,-1196.0,275.0,-50.0,8.0,-8.0,141,92,99,118,111
2025-02-25 18:06:58.359,-354.0,-1200.0,290.0,-53.0,10.0,-4.0,141,92,100,118,110
2025-02-25 18:06:58.363,-353.0,-1187.0,291.0,-60.0,11.0,3.0,142,91,100,119,109
2025-02-25 18:06:58.369,-362.0,-1216.0,278.0,-63.0,14.0,6.0,140,90,98,117,107
2025-02-25 18:06:58.374,-388.0,-1223.0,291.0,-68.0,15.0,12.0,140,91,102,118,109
2025-02-25 18:06:58.380,-406.0,-1230.0,258.0,-71.0,14.0,18.0,140,92,97,117,107
2025-02-25 18:06:58.385,-397.0,-1227.0,250.0,-73.0,14.0,25.0,141,89,98,117,108
2025-02-25 18:06:58.389,-405.0,-1207.0,248.0,-73.0,16.0,27.0,141,89,97,115,107
2025-02-25 18:06:58.396,-406.0,-1189.0,219.0,-73.0,21.0,32.0,141,90,99,118,107
2025-02-25 18:06:58.401,-419.0,-1167.0,181.0,-65.0,22.0,38.0,141,86,98,116,106
2025-02-25 18:06:58.405,-428.0,-1142.0,180.0,-63.0,24.0,44.0,141,90,100,117,108
2025-02-25 18:06:58.409,-432.0,-1119.0,139.0,-54.0,24.0,49.0,140,87,97,117,106
2025-02-25 18:06:58.416,-430.0,-1137.0,139.0,-60.0,25.0,50.0,140,87,98,115,107
2025-02-25 18:06:58.421,-425.0,-1090.0,146.0,-49.0,28.0,53.0,143,89,101,117,107
2025-02-25 18:06:58.425,-435.0,-1064.0,104.0,-44.0,29.0,55.0,142,88,99,116,109
2025-02-25 18:06:58.433,-419.0,-1046.0,115.0,-43.0,29.0,56.0,141,86,98,116,107
2025-02-25 18:06:58.437,-414.0,-978.0,82.0,-39.0,33.0,57.0,143,87,98,115,107
2025-02-25 18:06:58.442,-414.0,-994.0,71.0,-36.0,30.0,58.0,142,89,100,114,107
2025-02-25 18:06:58.446,-417.0,-954.0,136.0,-40.0,30.0,57.0,142,87,98,115,107
2025-02-25 18:06:58.453,-429.0,-905.0,114.0,-38.0,31.0,58.0,143,89,97,114,105
2025-02-25 18:06:58.458,-444.0,-899.0,66.0,-34.0,34.0,59.0,141,87,99,115,106
2025-02-25 18:06:58.462,-472.0,-875.0,98.0,-31.0,34.0,61.0,142,87,99,115,106
2025-02-25 18:06:58.466,-485.0,-855.0,43.0,-33.0,30.0,62.0,141,89,98,114,106
2025-02-25 18:06:58.474,-483.0,-824.0,125.0,-24.0,32.0,64.0,140,86,96,114,104
2025-02-25 18:06:58.478,-520.0,-814.0,123.0,-23.0,32.0,65.0,141,89,94,113,104
2025-02-25 18:06:58.483,-506.0,-785.0,100.0,-21.0,28.0,66.0,142,87,97,113,106
2025-02-25 18:06:58.487,-529.0,-799.0,97.0,-21.0,25.0,65.0,142,88,97,111,105
2025-02-25 18:06:58.494,-530.0,-785.0,81.0,-20.0,24.0,64.0,141,87,96,113,104
2025-02-25 18:06:58.498,-531.0,-777.0,86.0,-19.0,21.0,63.0,142,88,97,114,104
2025-02-25 18:06:58.503,-533.0,-763.0,108.0,-17.0,24.0,62.0,143,87,97,112,105
2025-02-25 18:06:58.507,-504.0,-747.0,74.0,-12.0,25.0,60.0,142,88,97,113,105
2025-02-25 18:06:58.511,-513.0,-761.0,101.0,-9.0,26.0,59.0,141,86,96,113,104
2025-02-25 18:06:58.519,-517.0,-755.0,93.0,-11.0,29.0,58.0,142,88,97,111,103
2025-02-25 18:06:58.523,-499.0,-756.0,111.0,-8.0,31.0,57.0,144,88,97,113,105
2025-02-25 18:06:58.527,-500.0,-755.0,123.0,-12.0,33.0,56.0,140,85,97,112,101
2025-02-25 18:06:58.532,-489.0,-754.0,142.0,-6.0,38.0,55.0,143,86,98,113,104
2025-02-25 18:06:58.539,-484.0,-749.0,100.0,-5.0,43.0,53.0,142,86,97,112,102
2025-02-25 18:06:58.544,-502.0,-703.0,128.0,-6.0,54.0,52.0,142,86,99,112,105
2025-02-25 18:06:58.548,-506.0,-687.0,143.0,-6.0,58.0,51.0,142,82,95,112,103
2025-02-25 18:06:58.552,-515.0,-668.0,138.0,-7.0,65.0,51.0,143,82,96,113,103
2025-02-25 18:06:58.560,-514.0,-658.0,194.0,-9.0,67.0,50.0,140,79,97,114,102
2025-02-25 18:06:58.564,-569.0,-652.0,160.0,-13.0,65.0,49.0,141,75,95,110,102
2025-02-25 18:06:58.568,-554.0,-625.0,130.0,-29.0,74.0,50.0,141,71,91,107,94
2025-02-25 18:06:58.572,-519.0,-576.0,148.0,-18.0,88.0,51.0,142,71,92,109,102
2025-02-25 18:06:58.581,-559.0,-541.0,54.0,-8.0,81.0,52.0,143,72,91,108,100
2025-02-25 18:06:58.585,-579.0,-480.0,215.0,-7.0,83.0,52.0,143,70,91,109,100
2025-02-25 18:06:58.589,-601.0,-470.0,85.0,17.0,88.0,55.0,144,69,91,107,100
2025-02-25 18:06:58.593,-652.0,-406.0,20.0,13.0,78.0,55.0,143,66,91,108,97
2025-02-25 18:06:58.597,-645.0,-338.0,30.0,6.0,74.0,56.0,142,62,86,105,94
2025-02-25 18:06:58.604,-652.0,-271.0,103.0,-2.0,74.0,57.0,145,66,89,105,96
2025-02-25 18:06:58.609,-742.0,-125.0,-21.0,3.0,70.0,62.0,144,65,86,102,92
2025-02-25 18:06:58.613,-838.0,14.0,16.0,1.0,75.0,68.0,141,63,82,101,87
2025-02-25 18:06:58.617,-911.0,83.0,-62.0,5.0,96.0,71.0,144,62,85,102,86
2025-02-25 18:06:58.621,-959.0,156.0,-116.0,5.0,105.0,75.0,144,62,82,103,84
2025-02-25 18:06:58.626,-996.0,329.0,-24.0,5.0,110.0,76.0,139,56,77,96,78
2025-02-25 18:06:58.634,-1051.0,422.0,-161.0,10.0,116.0,77.0,141,55,76,95,73
2025-02-25 18:06:58.638,-1085.0,518.0,-265.0,4.0,119.0,72.0,138,57,71,96,72
2025-02-25 18:06:58.642,-1112.0,625.0,-150.0,8.0,123.0,61.0,137,52,69,94,67
2025-02-25 18:06:58.647,-1199.0,613.0,-283.0,19.0,126.0,53.0,137,51,68,93,64
2025-02-25 18:06:58.654,-1235.0,700.0,-223.0,39.0,135.0,37.0,140,51,67,92,62
2025-02-25 18:06:58.658,-1211.0,820.0,-616.0,25.0,133.0,7.0,134,49,63,90,58
2025-02-25 18:06:58.662,-1227.0,1018.0,-702.0,46.0,138.0,-7.0,133,46,59,88,56
2025-02-25 18:06:58.667,-1238.0,1229.0,-889.0,83.0,145.0,-34.0,134,51,61,87,56
2025-02-25 18:06:58.674,-1280.0,1415.0,-1142.0,94.0,140.0,-72.0,134,50,61,85,55
2025-02-25 18:06:58.679,-1329.0,1726.0,-1239.0,117.0,135.0,-115.0,135,46,61,84,53
2025-02-25 18:06:58.683,-1360.0,1742.0,-1376.0,146.0,117.0,-141.0,129,48,60,83,53
2025-02-25 18:06:58.691,-1318.0,2106.0,-1686.0,171.0,52.0,-205.0,132,48,61,83,53
2025-02-25 18:06:58.695,-1173.0,2461.0,-1722.0,201.0,-40.0,-302.0,127,50,61,82,53
2025-02-25 18:06:58.699,-1188.0,2665.0,-1723.0,213.0,-120.0,-415.0,124,51,59,82,53
2025-02-25 18:06:58.707,-899.0,2564.0,-1440.0,196.0,-189.0,-517.0,124,50,59,79,55
2025-02-25 18:06:58.711,-449.0,2112.0,-945.0,162.0,-266.0,-615.0,127,56,61,79,58
2025-02-25 18:06:58.715,-235.0,1503.0,-493.0,139.0,-310.0,-712.0,137,63,70,88,67
2025-02-25 18:06:58.724,356.0,1279.0,-118.0,116.0,-389.0,-751.0,137,66,73,89,72
2025-02-25 18:06:58.728,1322.0,629.0,116.0,91.0,-426.0,-799.0,137,67,72,81,70
2025-02-25 18:06:58.732,2202.0,-456.0,697.0,86.0,-441.0,-785.0,133,61,68,84,67
2025-02-25 18:06:58.736,2853.0,-1859.0,1290.0,94.0,-439.0,-707.0,133,62,69,84,65
2025-02-25 18:06:58.744,3045.0,-3203.0,1881.0,112.0,-396.0,-564.0,130,59,68,81,67
2025-02-25 18:06:58.748,3212.0,-3785.0,2623.0,135.0,-299.0,-474.0,127,60,68,82,66
2025-02-25 18:06:58.753,3692.0,-4870.0,3405.0,171.0,-180.0,-291.0,132,62,73,81,69
2025-02-25 18:06:58.760,3994.0,-5915.0,3642.0,222.0,-2.0,-121.0,131,64,75,81,70
2025-02-25 18:06:58.765,4129.0,-6234.0,3759.0,264.0,166.0,16.0,130,64,79,77,73
2025-02-25 18:06:58.769,3608.0,-5788.0,3098.0,299.0,223.0,90.0,131,64,80,83,70
2025-02-25 18:06:58.777,2972.0,-4804.0,2717.0,317.0,313.0,142.0,128,63,77,82,69
2025-02-25 18:06:58.781,2340.0,-4208.0,1854.0,221.0,348.0,164.0,129,72,79,85,65
2025-02-25 18:06:58.785,1573.0,-2806.0,1591.0,108.0,337.0,183.0,130,69,77,81,69
2025-02-25 18:06:58.790,900.0,-1941.0,981.0,28.0,285.0,179.0,127,68,74,73,67
2025-02-25 18:06:58.797,658.0,-1423.0,544.0,-105.0,256.0,171.0,126,67,70,87,67
2025-02-25 18:06:58.802,363.0,-1397.0,-40.0,-206.0,191.0,164.0,126,65,72,86,65
2025-02-25 18:06:58.806,218.0,-1471.0,-215.0,-260.0,126.0,148.0,127,68,74,90,68
2025-02-25 18:06:58.814,281.0,-1787.0,-354.0,-277.0,83.0,145.0,129,68,73,91,69
2025-02-25 18:06:58.818,137.0,-2146.0,-475.0,-274.0,48.0,150.0,130,71,76,94,71
2025-02-25 18:06:58.822,15.0,-2437.0,-409.0,-246.0,33.0,168.0,140,82,89,107,86
2025-02-25 18:06:58.827,133.0,-2499.0,-315.0,-210.0,-3.0,179.0,122,64,69,87,64
2025-02-25 18:06:58.834,82.0,-2280.0,-282.0,-182.0,-27.0,205.0,122,66,71,87,63
2025-02-25 18:06:58.839,166.0,-2081.0,-84.0,-166.0,-53.0,227.0,116,66,73,88,65
2025-02-25 18:06:58.843,196.0,-1651.0,38.0,-154.0,-54.0,245.0,121,64,70,87,65
2025-02-25 18:06:58.847,185.0,-1570.0,192.0,-147.0,-65.0,248.0,121,64,70,86,64
2025-02-25 18:06:58.855,152.0,-1304.0,300.0,-154.0,-72.0,254.0,126,68,81,91,70
2025-02-25 18:06:58.859,92.0,-1109.0,353.0,-161.0,-78.0,257.0,134,77,86,99,78
2025-02-25 18:06:58.863,166.0,-869.0,405.0,-177.0,-52.0,252.0,131,72,83,92,71
2025-02-25 18:06:58.871,152.0,-895.0,452.0,-175.0,-74.0,245.0,128,71,83,89,70
2025-02-25 18:06:58.876,-30.0,-769.0,551.0,-176.0,-69.0,229.0,132,68,85,93,74
2025-02-25 18:06:58.880,93.0,-657.0,520.0,-171.0,-59.0,219.0,132,76,87,95,74
2025-02-25 18:06:58.884,126.0,-682.0,510.0,-163.0,-59.0,212.0,131,69,81,91,72
2025-02-25 18:06:58.891,-115.0,-690.0,505.0,-152.0,-59.0,213.0,132,72,81,92,73
2025-02-25 18:06:58.895,-1.0,-692.0,480.0,-131.0,-52.0,207.0,132,74,84,93,75
2025-02-25 18:06:58.900,-146.0,-672.0,376.0,-124.0,-42.0,204.0,132,71,85,94,76
2025-02-25 18:06:58.904,-139.0,-650.0,345.0,-114.0,-32.0,209.0,132,73,80,93,73
2025-02-25 18:06:58.912,-125.0,-617.0,309.0,-110.0,-20.0,213.0,131,69,79,91,77
2025-02-25 18:06:58.916,-211.0,-553.0,290.0,-111.0,-8.0,219.0,138,74,82,98,80
2025-02-25 18:06:58.921,-280.0,-436.0,230.0,-106.0,6.0,214.0,137,77,84,95,81
2025-02-25 18:06:58.925,-297.0,-303.0,239.0,-109.0,13.0,212.0,126,67,74,86,71
2025-02-25 18:06:58.933,-413.0,-281.0,159.0,-114.0,22.0,208.0,126,64,69,87,68
2025-02-25 18:06:58.937,-445.0,-99.0,108.0,-115.0,23.0,197.0,128,68,77,87,69
2025-02-25 18:06:58.941,-465.0,-52.0,79.0,-115.0,27.0,184.0,129,70,79,93,73
2025-02-25 18:06:58.945,-547.0,64.0,-7.0,-119.0,25.0,170.0,129,71,79,90,73
2025-02-25 18:06:58.949,-638.0,38.0,-47.0,-112.0,24.0,163.0,133,72,88,92,75
2025-02-25 18:06:58.957,-702.0,57.0,-100.0,-114.0,20.0,151.0,131,70,77,89,72
2025-02-25 18:06:58.961,-695.0,77.0,-149.0,-109.0,20.0,138.0,127,68,78,90,73
2025-02-25 18:06:58.966,-722.0,83.0,-201.0,-104.0,17.0,132.0,131,72,82,90,72
2025-02-25 18:06:58.970,-752.0,97.0,-224.0,-100.0,15.0,122.0,132,71,81,92,74
2025-02-25 18:06:58.981,-762.0,115.0,-254.0,-99.0,14.0,113.0,125,68,75,90,71
2025-02-25 18:06:58.984,-766.0,145.0,-268.0,-96.0,10.0,111.0,126,67,63,87,69
2025-02-25 18:06:58.986,-775.0,163.0,-286.0,-90.0,10.0,104.0,128,70,79,91,74
2025-02-25 18:06:58.990,-800.0,190.0,-261.0,-87.0,7.0,94.0,136,76,79,92,76
2025-02-25 18:06:58.994,-819.0,221.0,-278.0,-81.0,5.0,87.0,133,74,81,92,76
2025-02-25 18:06:59.002,-834.0,237.0,-282.0,-71.0,3.0,84.0,138,77,84,96,78
2025-02-25 18:06:59.006,-842.0,257.0,-297.0,-67.0,-1.0,78.0,134,75,82,96,77
2025-02-25 18:06:59.010,-839.0,273.0,-288.0,-55.0,-1.0,72.0,130,70,87,92,74
2025-02-25 18:06:59.015,-864.0,259.0,-282.0,-45.0,-2.0,70.0,132,75,82,92,76
2025-02-25 18:06:59.022,-859.0,300.0,-278.0,-39.0,-2.0,65.0,132,75,77,91,75
2025-02-25 18:06:59.027,-896.0,342.0,-271.0,-28.0,-2.0,62.0,129,69,80,91,74
2025-02-25 18:06:59.031,-909.0,371.0,-262.0,-19.0,-2.0,59.0,130,68,78,92,74
2025-02-25 18:06:59.035,-898.0,474.0,-259.0,-14.0,-2.0,56.0,129,71,79,93,74
2025-02-25 18:06:59.039,-897.0,586.0,-257.0,-9.0,-2.0,55.0,130,66,79,91,74
2025-02-25 18:06:59.048,-936.0,650.0,-281.0,-6.0,-3.0,54.0,131,69,76,90,71
2025-02-25 18:06:59.052,-1005.0,715.0,-288.0,-4.0,-5.0,52.0,133,69,78,84,72
2025-02-25 18:06:59.056,-1027.0,862.0,-328.0,-3.0,-7.0,47.0,127,69,74,86,72
2025-02-25 18:06:59.060,-1046.0,875.0,-341.0,2.0,-8.0,45.0,127,70,78,91,74
2025-02-25 18:06:59.065,-1069.0,959.0,-348.0,9.0,-13.0,36.0,129,71,80,90,73
2025-02-25 18:06:59.072,-1065.0,1062.0,-355.0,16.0,-14.0,25.0,128,68,75,86,72
2025-02-25 18:06:59.076,-1063.0,1095.0,-338.0,32.0,-13.0,17.0,128,69,75,87,73
2025-02-25 18:06:59.080,-1035.0,1169.0,-317.0,53.0,-10.0,-4.0,134,71,78,87,76
2025-02-25 18:06:59.085,-1070.0,1253.0,-312.0,67.0,-1.0,-28.0,133,72,81,92,76
2025-02-25 18:06:59.092,-1091.0,1338.0,-309.0,100.0,4.0,-55.0,126,68,75,78,72
2025-02-25 18:06:59.097,-1106.0,1385.0,-289.0,140.0,17.0,-70.0,126,65,73,88,70
2025-02-25 18:06:59.101,-1024.0,1461.0,-268.0,186.0,36.0,-104.0,130,71,79,92,74
2025-02-25 18:06:59.108,-1031.0,1599.0,-237.0,211.0,62.0,-144.0,129,70,74,91,72
2025-02-25 18:06:59.113,-972.0,1649.0,-254.0,264.0,80.0,-196.0,127,67,75,91,71
2025-02-25 18:06:59.117,-935.0,1763.0,-295.0,306.0,87.0,-253.0,127,67,76,87,70
2025-02-25 18:06:59.121,-887.0,1809.0,-360.0,334.0,90.0,-285.0,131,70,81,93,75
2025-02-25 18:06:59.129,-897.0,1885.0,-362.0,340.0,75.0,-356.0,133,71,77,91,78
2025-02-25 18:06:59.134,-942.0,1895.0,-356.0,338.0,35.0,-438.0,133,71,78,93,76
2025-02-25 18:06:59.137,-887.0,1952.0,-266.0,316.0,9.0,-542.0,135,73,79,93,79
2025-02-25 18:06:59.142,-664.0,2274.0,-146.0,274.0,-48.0,-590.0,131,72,78,92,76
2025-02-25 18:06:59.149,-246.0,1710.0,-161.0,224.0,-108.0,-709.0,134,75,82,95,79
2025-02-25 18:06:59.154,466.0,1426.0,66.0,182.0,-189.0,-816.0,134,73,77,95,78
2025-02-25 18:06:59.158,1121.0,529.0,216.0,166.0,-283.0,-885.0,131,71,80,96,79
2025-02-25 18:06:59.166,1482.0,-836.0,489.0,159.0,-329.0,-894.0,132,70,77,91,78
2025-02-25 18:06:59.170,2168.0,-1626.0,1194.0,188.0,-380.0,-860.0,132,72,74,92,80
2025-02-25 18:06:59.175,3200.0,-3462.0,2102.0,235.0,-355.0,-727.0,131,72,81,96,83
2025-02-25 18:06:59.182,3906.0,-5243.0,2544.0,287.0,-261.0,-512.0,135,82,85,97,82
2025-02-25 18:06:59.187,4213.0,-6633.0,3284.0,310.0,-113.0,-280.0,134,73,87,99,88
2025-02-25 18:06:59.191,4206.0,-7063.0,3414.0,341.0,39.0,-65.0,134,73,84,93,86
2025-02-25 18:06:59.199,4052.0,-6752.0,3249.0,359.0,106.0,105.0,131,70,86,88,83
2025-02-25 18:06:59.203,3844.0,-6421.0,2575.0,379.0,213.0,138.0,131,66,88,87,84
2025-02-25 18:06:59.207,2938.0,-4672.0,2441.0,318.0,299.0,170.0,133,70,89,88,84
2025-02-25 18:06:59.212,2435.0,-3320.0,2129.0,189.0,346.0,165.0,134,74,90,91,83
2025-02-25 18:06:59.220,1680.0,-2207.0,1539.0,104.0,345.0,148.0,131,70,86,92,84
2025-02-25 18:06:59.224,1480.0,-1691.0,883.0,-63.0,334.0,137.0,129,71,83,87,81
2025-02-25 18:06:59.228,895.0,-1512.0,510.0,-221.0,277.0,136.0,131,71,80,92,80
2025-02-25 18:06:59.236,430.0,-1618.0,185.0,-323.0,197.0,158.0,132,73,81,97,81
2025-02-25 18:06:59.240,236.0,-1992.0,-331.0,-355.0,140.0,184.0,131,74,83,97,82
2025-02-25 18:06:59.244,136.0,-2489.0,-570.0,-361.0,112.0,200.0,130,72,77,95,81
2025-02-25 18:06:59.249,99.0,-2684.0,-721.0,-326.0,40.0,216.0,132,74,80,98,82
2025-02-25 18:06:59.256,149.0,-2712.0,-685.0,-274.0,35.0,226.0,133,76,80,99,83
2025-02-25 18:06:59.261,-11.0,-2686.0,-650.0,-218.0,-8.0,239.0,134,78,86,102,87
2025-02-25 18:06:59.265,-12.0,-2397.0,-462.0,-186.0,-57.0,253.0,136,80,85,104,86
2025-02-25 18:06:59.273,50.0,-1981.0,-249.0,-142.0,-81.0,266.0,147,91,96,112,96
2025-02-25 18:06:59.277,74.0,-1608.0,-64.0,-126.0,-110.0,274.0,149,90,99,117,100
2025-02-25 18:06:59.281,126.0,-1435.0,119.0,-133.0,-123.0,286.0,163,110,115,132,116
2025-02-25 18:06:59.289,5.0,-1101.0,246.0,-136.0,-154.0,289.0,159,101,110,122,109
2025-02-25 18:06:59.293,144.0,-971.0,254.0,-153.0,-166.0,286.0,165,107,113,128,113
2025-02-25 18:06:59.297,61.0,-902.0,370.0,-160.0,-163.0,286.0,174,119,126,140,125
2025-02-25 18:06:59.305,79.0,-739.0,475.0,-174.0,-155.0,280.0,172,115,123,137,121
2025-02-25 18:06:59.310,81.0,-708.0,560.0,-170.0,-151.0,265.0,163,105,114,126,112
2025-02-25 18:06:59.314,168.0,-470.0,643.0,-167.0,-133.0,249.0,164,105,115,122,110
2025-02-25 18:06:59.322,52.0,-480.0,671.0,-163.0,-115.0,241.0,158,100,112,120,109
2025-02-25 18:06:59.326,-14.0,-429.0,666.0,-155.0,-95.0,229.0,167,111,124,132,119
2025-02-25 18:06:59.331,-134.0,-432.0,645.0,-151.0,-75.0,228.0,170,114,122,130,122
2025-02-25 18:06:59.338,-148.0,-352.0,566.0,-133.0,-56.0,223.0,167,112,120,129,118
2025-02-25 18:06:59.342,-159.0,-330.0,527.0,-126.0,-37.0,215.0,166,112,122,131,117
2025-02-25 18:06:59.350,-255.0,-254.0,456.0,-109.0,-22.0,208.0,167,109,121,129,115
2025-02-25 18:06:59.355,-298.0,-184.0,456.0,-97.0,-9.0,203.0,164,108,117,127,115
2025-02-25 18:06:59.359,-380.0,-94.0,374.0,-94.0,-5.0,201.0,168,111,119,130,117
2025-02-25 18:06:59.363,-491.0,-52.0,294.0,-86.0,2.0,198.0,161,101,109,123,110
2025-02-25 18:06:59.371,-532.0,-57.0,306.0,-81.0,7.0,191.0,171,114,120,132,118
2025-02-25 18:06:59.374,-528.0,29.0,222.0,-82.0,12.0,187.0,166,108,113,129,116
2025-02-25 18:06:59.380,-588.0,20.0,199.0,-84.0,15.0,184.0,169,111,116,129,117
2025-02-25 18:06:59.387,-655.0,53.0,151.0,-91.0,18.0,181.0,170,113,123,135,123
2025-02-25 18:06:59.392,-668.0,43.0,102.0,-95.0,21.0,180.0,175,116,125,135,126
2025-02-25 18:06:59.396,-676.0,68.0,46.0,-100.0,22.0,174.0,176,121,126,139,127
2025-02-25 18:06:59.400,-705.0,128.0,-2.0,-102.0,22.0,173.0,181,121,131,143,133
2025-02-25 18:06:59.408,-756.0,124.0,-17.0,-105.0,22.0,169.0,174,116,127,136,123
2025-02-25 18:06:59.412,-788.0,170.0,-48.0,-105.0,20.0,166.0,176,114,121,131,120
2025-02-25 18:06:59.417,-804.0,251.0,-78.0,-110.0,16.0,161.0,185,123,132,145,131
2025-02-25 18:06:59.424,-814.0,345.0,-94.0,-110.0,13.0,157.0,186,126,134,146,132
2025-02-25 18:06:59.428,-884.0,422.0,-93.0,-115.0,8.0,151.0,182,121,130,142,129
2025-02-25 18:06:59.433,-924.0,524.0,-98.0,-123.0,6.0,148.0,182,120,127,142,129
2025-02-25 18:06:59.441,-919.0,583.0,-120.0,-119.0,3.0,144.0,190,129,137,150,139
2025-02-25 18:06:59.444,-953.0,624.0,-132.0,-120.0,-2.0,142.0,190,127,136,149,137
2025-02-25 18:06:59.449,-980.0,681.0,-129.0,-117.0,-6.0,136.0,192,128,136,149,139
2025-02-25 18:06:59.457,-990.0,789.0,-142.0,-111.0,-11.0,126.0,193,130,137,149,137
2025-02-25 18:06:59.462,-1066.0,858.0,-88.0,-107.0,-14.0,114.0,196,133,141,154,141
2025-02-25 18:06:59.466,-1130.0,956.0,-145.0,-92.0,-15.0,97.0,188,127,134,144,134
2025-02-25 18:06:59.473,-1105.0,1072.0,-125.0,-73.0,-14.0,74.0,182,119,127,142,130
2025-02-25 18:06:59.477,-1159.0,1319.0,-50.0,-47.0,-8.0,37.0,183,118,125,141,128
2025-02-25 18:06:59.481,-1181.0,1502.0,-50.0,-9.0,5.0,18.0,186,121,126,139,127
2025-02-25 18:06:59.490,-1213.0,1749.0,-87.0,36.0,23.0,-28.0,193,130,137,149,138
2025-02-25 18:06:59.494,-1254.0,2047.0,-43.0,72.0,42.0,-76.0,191,126,139,146,134
2025-02-25 18:06:59.498,-1240.0,2274.0,-37.0,89.0,53.0,-123.0,197,130,139,149,137
2025-02-25 18:06:59.506,-1181.0,2458.0,-66.0,125.0,67.0,-169.0,189,121,130,142,131
2025-02-25 18:06:59.510,-1172.0,2550.0,-119.0,165.0,72.0,-220.0,186,117,129,139,127
2025-02-25 18:06:59.514,-1211.0,2557.0,-159.0,203.0,75.0,-275.0,186,118,126,138,128
2025-02-25 18:06:59.523,-1237.0,2511.0,-226.0,241.0,67.0,-306.0,193,126,131,142,132
2025-02-25 18:06:59.527,-1147.0,2421.0,-258.0,268.0,54.0,-370.0,193,120,127,140,129
2025-02-25 18:06:59.531,-1057.0,2346.0,-267.0,282.0,36.0,-437.0,200,130,138,147,136
2025-02-25 18:06:59.539,-907.0,2302.0,-165.0,276.0,18.0,-503.0,204,130,138,153,140
2025-02-25 18:06:59.543,-685.0,1922.0,-154.0,257.0,-6.0,-567.0,207,134,143,154,142
2025-02-25 18:06:59.551,-300.0,1613.0,-107.0,245.0,-43.0,-633.0,208,131,137,153,141
2025-02-25 18:06:59.555,-105.0,1256.0,-61.0,230.0,-100.0,-686.0,205,125,135,150,138
2025-02-25 18:06:59.559,359.0,931.0,-180.0,206.0,-159.0,-731.0,211,132,139,152,139
2025-02-25 18:06:59.567,626.0,741.0,-80.0,152.0,-222.0,-750.0,202,122,131,147,132
2025-02-25 18:06:59.572,927.0,334.0,-154.0,94.0,-254.0,-754.0,209,119,129,147,131
2025-02-25 18:06:59.576,1390.0,-525.0,-116.0,45.0,-323.0,-749.0,198,117,128,141,129
2025-02-25 18:06:59.584,1964.0,-911.0,22.0,28.0,-356.0,-723.0,189,104,113,131,117
2025-02-25 18:06:59.588,2633.0,-1945.0,573.0,49.0,-313.0,-679.0,193,110,121,135,122
2025-02-25 18:06:59.592,3185.0,-3351.0,834.0,71.0,-247.0,-586.0,189,104,115,129,115
2025-02-25 18:06:59.600,3625.0,-4428.0,1449.0,172.0,-203.0,-487.0,195,112,123,133,123
2025-02-25 18:06:59.605,3906.0,-5772.0,2050.0,238.0,-148.0,-342.0,191,102,119,127,118
2025-02-25 18:06:59.613,4206.0,-5946.0,2156.0,361.0,-14.0,-230.0,190,101,121,125,116
2025-02-25 18:06:59.617,3989.0,-5605.0,2551.0,381.0,160.0,-113.0,193,103,117,123,118
2025-02-25 18:06:59.625,3645.0,-5305.0,2493.0,379.0,257.0,-14.0,194,103,118,122,117
2025-02-25 18:06:59.629,2784.0,-4599.0,1785.0,316.0,277.0,58.0,191,99,117,120,114
2025-02-25 18:06:59.633,2267.0,-4070.0,1129.0,230.0,294.0,116.0,188,99,114,117,111
2025-02-25 18:06:59.641,1965.0,-3208.0,474.0,113.0,282.0,156.0,193,102,117,121,114
2025-02-25 18:06:59.645,1196.0,-2484.0,-67.0,7.0,209.0,177.0,193,103,115,125,114
2025-02-25 18:06:59.650,826.0,-2360.0,-441.0,-78.0,161.0,182.0,203,114,125,136,126
2025-02-25 18:06:59.658,541.0,-2023.0,-561.0,-131.0,77.0,183.0,189,100,106,121,109
2025-02-25 18:06:59.662,296.0,-1978.0,-355.0,-196.0,19.0,191.0,193,102,113,125,116
2025-02-25 18:06:59.667,418.0,-2028.0,-341.0,-215.0,6.0,190.0,191,103,110,124,113
2025-02-25 18:06:59.674,292.0,-2014.0,-246.0,-216.0,-29.0,198.0,189,100,107,122,110
2025-02-25 18:06:59.679,484.0,-2243.0,-6.0,-220.0,-44.0,210.0,192,98,108,124,112
2025-02-25 18:06:59.683,389.0,-2155.0,166.0,-197.0,-36.0,225.0,204,116,124,139,126
2025-02-25 18:06:59.690,453.0,-1894.0,362.0,-187.0,-20.0,235.0,188,97,106,121,109
2025-02-25 18:06:59.695,579.0,-1980.0,566.0,-177.0,-17.0,236.0,181,92,101,115,103
2025-02-25 18:06:59.699,515.0,-1656.0,641.0,-162.0,-29.0,244.0,194,103,115,127,115
2025-02-25 18:06:59.707,469.0,-1525.0,645.0,-152.0,-33.0,249.0,189,97,109,121,111
2025-02-25 18:06:59.711,419.0,-1191.0,579.0,-161.0,-6.0,260.0,186,93,107,118,106
2025-02-25 18:06:59.715,425.0,-1056.0,543.0,-140.0,-4.0,255.0,186,93,106,119,105
2025-02-25 18:06:59.723,245.0,-994.0,595.0,-123.0,-17.0,250.0,181,91,104,113,102
2025-02-25 18:06:59.728,250.0,-744.0,574.0,-133.0,-38.0,248.0,185,93,104,115,103
2025-02-25 18:06:59.732,81.0,-861.0,505.0,-134.0,-41.0,247.0,191,105,115,125,114
2025-02-25 18:06:59.739,76.0,-700.0,543.0,-143.0,-52.0,249.0,190,101,115,124,111
2025-02-25 18:06:59.744,-26.0,-616.0,436.0,-139.0,-51.0,253.0,189,101,112,123,110
2025-02-25 18:06:59.749,-102.0,-575.0,368.0,-152.0,-26.0,257.0,189,99,111,122,110
2025-02-25 18:06:59.756,-186.0,-445.0,359.0,-165.0,-27.0,255.0,181,91,103,113,100
2025-02-25 18:06:59.760,-244.0,-228.0,297.0,-167.0,-21.0,250.0,191,101,110,121,108
2025-02-25 18:06:59.765,-330.0,-255.0,275.0,-163.0,0.0,245.0,184,94,106,118,104
2025-02-25 18:06:59.772,-378.0,-97.0,342.0,-141.0,0.0,229.0,189,102,113,123,111
2025-02-25 18:06:59.777,-401.0,44.0,351.0,-119.0,13.0,205.0,190,98,110,120,108
2025-02-25 18:06:59.782,-444.0,85.0,362.0,-110.0,19.0,188.0,190,108,112,123,107
2025-02-25 18:06:59.786,-475.0,-5.0,296.0,-97.0,20.0,177.0,186,94,101,116,104
2025-02-25 18:06:59.793,-557.0,1.0,228.0,-93.0,23.0,174.0,182,94,98,114,102
2025-02-25 18:06:59.797,-619.0,-20.0,179.0,-88.0,33.0,170.0,182,94,104,117,105
2025-02-25 18:06:59.802,-645.0,5.0,163.0,-92.0,38.0,167.0,189,96,107,120,106
2025-02-25 18:06:59.806,-642.0,18.0,104.0,-101.0,42.0,161.0,182,91,104,114,100
2025-02-25 18:06:59.814,-693.0,68.0,28.0,-103.0,40.0,156.0,187,95,106,120,104
2025-02-25 18:06:59.817,-725.0,47.0,17.0,-102.0,38.0,149.0,186,94,106,117,105
2025-02-25 18:06:59.821,-798.0,43.0,-51.0,-97.0,31.0,138.0,184,96,107,119,103
2025-02-25 18:06:59.829,-784.0,69.0,-122.0,-91.0,25.0,129.0,183,93,105,114,102
2025-02-25 18:06:59.833,-858.0,82.0,-151.0,-89.0,16.0,125.0,186,98,107,118,105
2025-02-25 18:06:59.838,-850.0,79.0,-152.0,-96.0,9.0,119.0,185,94,105,118,105
2025-02-25 18:06:59.842,-867.0,108.0,-146.0,-103.0,4.0,113.0,184,97,105,119,105
2025-02-25 18:06:59.850,-881.0,174.0,-167.0,-107.0,1.0,105.0,179,87,99,113,99
2025-02-25 18:06:59.854,-896.0,198.0,-167.0,-104.0,-5.0,101.0,178,89,98,108,97
2025-02-25 18:06:59.858,-926.0,201.0,-134.0,-97.0,-10.0,90.0,185,94,104,116,104
2025-02-25 18:06:59.863,-889.0,265.0,-39.0,-91.0,-9.0,71.0,187,96,107,119,106
2025-02-25 18:06:59.870,-849.0,265.0,-1.0,-68.0,-5.0,51.0,182,91,99,112,100
2025-02-25 18:06:59.874,-828.0,268.0,61.0,-53.0,2.0,44.0,179,91,100,112,98
2025-02-25 18:06:59.879,-821.0,266.0,56.0,-44.0,9.0,35.0,189,102,113,123,112
2025-02-25 18:06:59.884,-851.0,236.0,66.0,-38.0,18.0,28.0,185,93,103,117,102
2025-02-25 18:06:59.891,-853.0,198.0,73.0,-27.0,22.0,25.0,182,92,100,114,101
2025-02-25 18:06:59.896,-856.0,186.0,65.0,-17.0,29.0,21.0,188,96,107,121,107
2025-02-25 18:06:59.900,-866.0,178.0,41.0,-9.0,34.0,16.0,189,100,112,124,110
2025-02-25 18:06:59.904,-873.0,161.0,42.0,7.0,35.0,12.0,183,91,102,116,103
2025-02-25 18:06:59.908,-875.0,171.0,26.0,23.0,39.0,10.0,186,97,109,118,105
2025-02-25 18:06:59.916,-896.0,160.0,22.0,37.0,44.0,6.0,187,99,110,119,107
2025-02-25 18:06:59.920,-903.0,180.0,4.0,43.0,46.0,3.0,186,96,110,122,106
2025-02-25 18:06:59.925,-919.0,236.0,-21.0,50.0,47.0,2.0,188,96,110,123,107
2025-02-25 18:06:59.928,-918.0,333.0,-31.0,58.0,50.0,-1.0,189,99,110,123,109
2025-02-25 18:06:59.933,-1058.0,439.0,-98.0,66.0,52.0,-6.0,185,94,107,121,106
2025-02-25 18:06:59.940,-1050.0,571.0,-73.0,76.0,51.0,-12.0,187,99,109,122,107
2025-02-25 18:06:59.945,-1106.0,784.0,-70.0,86.0,52.0,-30.0,189,99,110,123,111
2025-02-25 18:06:59.949,-1118.0,979.0,-81.0,92.0,53.0,-55.0,187,100,110,122,108
2025-02-25 18:06:59.957,-1170.0,1064.0,-134.0,107.0,55.0,-84.0,184,94,105,119,104
2025-02-25 18:06:59.961,-1127.0,1172.0,-186.0,120.0,56.0,-114.0,187,97,108,121,108
2025-02-25 18:06:59.966,-1211.0,1257.0,-213.0,131.0,55.0,-148.0,183,95,105,116,104
2025-02-25 18:06:59.973,-1219.0,1271.0,-345.0,150.0,53.0,-168.0,179,89,103,114,100
2025-02-25 18:06:59.978,-1231.0,1234.0,-409.0,169.0,46.0,-208.0,188,99,109,119,106
2025-02-25 18:06:59.985,-1218.0,1212.0,-403.0,176.0,43.0,-240.0,187,102,112,123,110
2025-02-25 18:06:59.989,-1216.0,1160.0,-421.0,197.0,31.0,-270.0,184,94,102,119,104
2025-02-25 18:06:59.994,-1093.0,1138.0,-373.0,214.0,19.0,-307.0,186,96,108,121,107
2025-02-25 18:07:00.001,-882.0,1134.0,-312.0,217.0,9.0,-348.0,196,107,117,129,117
2025-02-25 18:07:00.006,-693.0,1118.0,-229.0,231.0,-8.0,-397.0,184,97,103,118,105
2025-02-25 18:07:00.011,-507.0,998.0,-147.0,226.0,-14.0,-446.0,184,94,105,117,103
2025-02-25 18:07:00.018,-278.0,993.0,-195.0,214.0,-36.0,-471.0,183,95,103,117,104
2025-02-25 18:07:00.023,77.0,781.0,-25.0,195.0,-57.0,-516.0,184,98,109,121,109
2025-02-25 18:07:00.026,537.0,705.0,-45.0,175.0,-119.0,-561.0,190,98,109,121,110
2025-02-25 18:07:00.031,913.0,172.0,40.0,184.0,-199.0,-603.0,186,98,109,122,106
2025-02-25 18:07:00.039,1311.0,-452.0,56.0,164.0,-248.0,-611.0,186,94,105,119,107
2025-02-25 18:07:00.043,1469.0,-1684.0,232.0,151.0,-253.0,-583.0,185,93,107,118,107
2025-02-25 18:07:00.051,1784.0,-2856.0,631.0,104.0,-226.0,-518.0,183,93,102,117,107
2025-02-25 18:07:00.055,2341.0,-4291.0,1131.0,88.0,-167.0,-469.0,183,91,106,117,104
2025-02-25 18:07:00.059,2878.0,-4857.0,1759.0,119.0,-107.0,-355.0,190,100,113,123,112
2025-02-25 18:07:00.067,3267.0,-5667.0,2144.0,163.0,-34.0,-238.0,190,99,114,122,111
2025-02-25 18:07:00.072,3472.0,-6175.0,2188.0,221.0,36.0,-116.0,188,99,114,122,112
2025-02-25 18:07:00.076,3332.0,-5501.0,1909.0,256.0,165.0,-12.0,188,96,115,119,113
2025-02-25 18:07:00.083,3015.0,-5248.0,1861.0,263.0,235.0,65.0,191,102,114,125,113
2025-02-25 18:07:00.088,2619.0,-4392.0,1291.0,230.0,283.0,150.0,187,97,110,118,110
2025-02-25 18:07:00.095,1876.0,-3564.0,811.0,170.0,278.0,188.0,189,99,112,120,112
2025-02-25 18:07:00.100,1545.0,-2832.0,463.0,64.0,258.0,211.0,185,97,108,116,108
2025-02-25 18:07:00.104,1173.0,-2219.0,93.0,-38.0,192.0,223.0,187,95,108,118,110
2025-02-25 18:07:00.112,658.0,-2109.0,-198.0,-85.0,102.0,230.0,187,95,108,115,107
2025-02-25 18:07:00.116,340.0,-1981.0,-393.0,-129.0,53.0,232.0,188,98,109,122,111
2025-02-25 18:07:00.120,279.0,-1852.0,-438.0,-159.0,35.0,231.0,186,101,111,123,112
2025-02-25 18:07:00.128,260.0,-1844.0,-365.0,-174.0,37.0,223.0,188,96,106,121,109
2025-02-25 18:07:00.133,158.0,-1964.0,-403.0,-187.0,55.0,219.0,184,96,110,118,105
2025-02-25 18:07:00.137,82.0,-2013.0,-247.0,-185.0,61.0,227.0,178,90,98,114,102
2025-02-25 18:07:00.141,74.0,-1875.0,-41.0,-196.0,57.0,234.0,180,90,100,115,101
2025-02-25 18:07:00.149,23.0,-1839.0,-78.0,-191.0,36.0,255.0,184,94,103,117,105
2025-02-25 18:07:00.154,47.0,-1632.0,39.0,-176.0,-7.0,268.0,178,90,98,112,101
2025-02-25 18:07:00.158,115.0,-1331.0,102.0,-173.0,-32.0,272.0,178,86,98,112,98
2025-02-25 18:07:00.166,53.0,-1164.0,220.0,-127.0,-53.0,265.0,173,86,95,109,96
2025-02-25 18:07:00.170,15.0,-1095.0,275.0,-118.0,-79.0,265.0,173,83,94,108,94
2025-02-25 18:07:00.174,-60.0,-838.0,207.0,-116.0,-81.0,269.0,178,89,98,110,98
2025-02-25 18:07:00.182,-160.0,-788.0,233.0,-121.0,-90.0,273.0,180,93,105,115,102
2025-02-25 18:07:00.186,-208.0,-690.0,301.0,-135.0,-98.0,276.0,176,88,98,112,98
2025-02-25 18:07:00.190,-228.0,-542.0,334.0,-152.0,-99.0,277.0,173,82,94,105,92
2025-02-25 18:07:00.194,-234.0,-507.0,313.0,-173.0,-89.0,278.0,169,79,93,104,90
2025-02-25 18:07:00.202,-370.0,-440.0,440.0,-178.0,-62.0,271.0,176,86,98,112,98
2025-02-25 18:07:00.207,-250.0,-113.0,394.0,-156.0,-26.0,244.0,174,85,98,109,96
2025-02-25 18:07:00.211,-311.0,-91.0,496.0,-149.0,9.0,216.0,174,85,99,108,98
2025-02-25 18:07:00.216,-312.0,61.0,416.0,-119.0,24.0,192.0,170,81,91,105,90
2025-02-25 18:07:00.223,-442.0,44.0,434.0,-99.0,40.0,181.0,177,89,100,114,96
2025-02-25 18:07:00.227,-540.0,-37.0,402.0,-96.0,35.0,165.0,174,87,97,109,97
2025-02-25 18:07:00.231,-652.0,4.0,345.0,-100.0,29.0,159.0,172,79,95,103,95
2025-02-25 18:07:00.235,-652.0,35.0,199.0,-87.0,16.0,155.0,174,81,92,103,91
2025-02-25 18:07:00.243,-723.0,-50.0,179.0,-83.0,25.0,149.0,171,85,103,109,98
2025-02-25 18:07:00.247,-705.0,-25.0,95.0,-79.0,39.0,149.0,175,86,96,109,95
2025-02-25 18:07:00.251,-689.0,-66.0,122.0,-80.0,42.0,146.0,170,80,100,105,94
2025-02-25 18:07:00.256,-709.0,-36.0,137.0,-88.0,39.0,143.0,172,84,96,108,96
2025-02-25 18:07:00.263,-712.0,-51.0,130.0,-101.0,39.0,139.0,170,86,97,109,98
2025-02-25 18:07:00.267,-724.0,-13.0,80.0,-106.0,40.0,135.0,171,81,93,105,94
2025-02-25 18:07:00.272,-731.0,-103.0,42.0,-109.0,44.0,133.0,168,79,91,109,93
2025-02-25 18:07:00.277,-722.0,-114.0,-32.0,-109.0,49.0,131.0,175,84,96,109,97
2025-02-25 18:07:00.284,-734.0,-57.0,-8.0,-112.0,51.0,134.0,173,85,97,105,98
2025-02-25 18:07:00.289,-721.0,-73.0,-49.0,-120.0,47.0,134.0,170,80,93,106,95
2025-02-25 18:07:00.293,-757.0,-33.0,-58.0,-119.0,31.0,124.0,166,78,98,104,92
2025-02-25 18:07:00.297,-749.0,-58.0,-42.0,-132.0,37.0,134.0,172,85,98,111,98
2025-02-25 18:07:00.305,-761.0,14.0,-69.0,-139.0,28.0,134.0,171,85,96,109,98
2025-02-25 18:07:00.309,-843.0,93.0,-99.0,-131.0,25.0,125.0,171,83,94,106,99
2025-02-25 18:07:00.313,-784.0,218.0,-105.0,-142.0,22.0,120.0,172,86,99,112,100
2025-02-25 18:07:00.318,-822.0,333.0,-165.0,-149.0,22.0,109.0,171,86,97,112,101
2025-02-25 18:07:00.326,-888.0,401.0,-246.0,-131.0,8.0,90.0,171,86,99,113,101
2025-02-25 18:07:00.330,-940.0,440.0,-248.0,-103.0,1.0,70.0,171,84,95,111,100
2025-02-25 18:07:00.333,-917.0,458.0,-232.0,-85.0,-9.0,59.0,167,84,96,111,100
2025-02-25 18:07:00.338,-946.0,601.0,-244.0,-63.0,-20.0,36.0,172,87,98,116,103
2025-02-25 18:07:00.345,-961.0,630.0,-184.0,-45.0,-21.0,13.0,171,90,103,117,106
2025-02-25 18:07:00.353,-961.0,723.0,-97.0,-3.0,-23.0,1.0,167,88,97,114,104
2025-02-25 18:07:00.356,-971.0,454.0,-13.0,26.0,-17.0,-3.0,167,87,98,115,106
2025-02-25 18:07:00.359,-987.0,557.0,-90.0,43.0,-27.0,-22.0,176,95,105,123,114
2025-02-25 18:07:00.367,-991.0,606.0,-63.0,56.0,-26.0,-37.0,174,93,103,121,112
2025-02-25 18:07:00.371,-992.0,797.0,-58.0,77.0,-26.0,-49.0,168,91,100,124,113
2025-02-25 18:07:00.375,-1000.0,825.0,16.0,106.0,-29.0,-56.0,168,91,100,119,115
2025-02-25 18:07:00.383,-1101.0,1011.0,-180.0,140.0,-46.0,-78.0,173,99,107,127,122
2025-02-25 18:07:00.387,-1251.0,1114.0,-107.0,183.0,-52.0,-86.0,171,99,107,127,123
2025-02-25 18:07:00.392,-1350.0,1243.0,-169.0,224.0,-43.0,-95.0,166,100,106,124,126
2025-02-25 18:07:00.399,-1347.0,1402.0,-293.0,265.0,-35.0,-118.0,171,102,111,132,128
2025-02-25 18:07:00.404,-1383.0,1423.0,-311.0,275.0,-18.0,-152.0,170,104,110,129,131
2025-02-25 18:07:00.411,-1321.0,1489.0,-314.0,297.0,-3.0,-200.0,169,107,112,132,131
2025-02-25 18:07:00.415,-1190.0,1453.0,-338.0,323.0,8.0,-254.0,168,111,116,131,133
2025-02-25 18:07:00.420,-1090.0,1362.0,-415.0,333.0,8.0,-305.0,171,114,118,135,135
2025-02-25 18:07:00.428,-960.0,1316.0,-316.0,337.0,5.0,-359.0,169,116,119,131,134
2025-02-25 18:07:00.433,-837.0,1310.0,-518.0,331.0,-16.0,-384.0,167,119,120,130,134
2025-02-25 18:07:00.437,-730.0,1077.0,-664.0,318.0,-60.0,-425.0,169,124,123,133,132
2025-02-25 18:07:00.444,-531.0,932.0,-706.0,287.0,-115.0,-450.0,168,129,124,133,138
2025-02-25 18:07:00.448,-423.0,708.0,-689.0,237.0,-171.0,-459.0,171,129,130,137,137
2025-02-25 18:07:00.456,-273.0,583.0,-660.0,190.0,-225.0,-475.0,172,130,128,136,136
2025-02-25 18:07:00.460,-260.0,994.0,-261.0,136.0,-259.0,-530.0,174,138,130,142,139
2025-02-25 18:07:00.465,437.0,390.0,-400.0,115.0,-301.0,-565.0,176,137,129,142,138
2025-02-25 18:07:00.472,1480.0,-106.0,297.0,-7.0,-282.0,-608.0,173,138,128,140,138
2025-02-25 18:07:00.477,2310.0,-1135.0,1053.0,-62.0,-219.0,-588.0,171,138,127,138,138
2025-02-25 18:07:00.485,2040.0,-2153.0,1938.0,-37.0,-169.0,-525.0,172,139,127,141,140
2025-02-25 18:07:00.490,1763.0,-2509.0,1625.0,43.0,-82.0,-468.0,173,143,131,141,140
2025-02-25 18:07:00.494,1895.0,-2733.0,1018.0,114.0,-64.0,-388.0,172,139,128,138,139
2025-02-25 18:07:00.502,2396.0,-2509.0,708.0,177.0,-66.0,-355.0,170,140,128,138,139
2025-02-25 18:07:00.506,3145.0,-3293.0,511.0,102.0,-126.0,-387.0,173,143,128,140,141
2025-02-25 18:07:00.510,3370.0,-3824.0,1517.0,35.0,-226.0,-386.0,173,144,128,137,138
2025-02-25 18:07:00.518,2664.0,-4044.0,2727.0,103.0,-272.0,-316.0,173,142,126,138,139
2025-02-25 18:07:00.522,1961.0,-4427.0,1974.0,88.0,-94.0,-169.0,176,145,121,141,145
2025-02-25 18:07:00.530,1679.0,-4103.0,277.0,53.0,44.0,-48.0,179,149,134,142,143
2025-02-25 18:07:00.534,1522.0,-3443.0,41.0,28.0,59.0,33.0,177,147,130,142,145
2025-02-25 18:07:00.538,1527.0,-3825.0,658.0,8.0,108.0,138.0,175,148,130,141,143
2025-02-25 18:07:00.546,1479.0,-3501.0,896.0,-39.0,135.0,218.0,175,146,131,140,142
2025-02-25 18:07:00.551,1394.0,-3168.0,756.0,-14.0,170.0,260.0,173,146,131,139,141
2025-02-25 18:07:00.555,1162.0,-2771.0,512.0,-13.0,182.0,274.0,174,146,129,140,142
2025-02-25 18:07:00.563,937.0,-2549.0,438.0,-2.0,184.0,288.0,176,146,128,141,144
2025-02-25 18:07:00.567,650.0,-2138.0,263.0,3.0,182.0,291.0,176,148,132,145,145
2025-02-25 18:07:00.571,386.0,-1870.0,132.0,-5.0,159.0,293.0,174,148,132,144,144
2025-02-25 18:07:00.579,197.0,-1747.0,63.0,-19.0,134.0,283.0,176,148,128,141,143
2025-02-25 18:07:00.584,190.0,-1595.0,78.0,-36.0,119.0,266.0,170,147,130,138,144
2025-02-25 18:07:00.588,181.0,-1427.0,115.0,-33.0,91.0,242.0,175,148,129,142,144
2025-02-25 18:07:00.596,305.0,-1418.0,113.0,-14.0,67.0,231.0,177,145,128,141,144
2025-02-25 18:07:00.600,143.0,-1246.0,113.0,-5.0,20.0,206.0,176,149,132,144,145
2025-02-25 18:07:00.604,38.0,-1256.0,363.0,5.0,1.0,183.0,178,151,131,145,147
2025-02-25 18:07:00.608,49.0,-1098.0,408.0,4.0,-6.0,169.0,175,146,129,143,143
2025-02-25 18:07:00.616,99.0,-1047.0,424.0,-29.0,-6.0,164.0,173,145,129,142,142
2025-02-25 18:07:00.620,26.0,-875.0,326.0,-51.0,-23.0,153.0,176,148,134,143,147
2025-02-25 18:07:00.624,-3.0,-834.0,343.0,-71.0,-33.0,148.0,177,150,132,145,146
2025-02-25 18:07:00.632,-49.0,-789.0,328.0,-94.0,-37.0,149.0,176,149,130,145,146
2025-02-25 18:07:00.636,-41.0,-767.0,333.0,-134.0,-39.0,155.0,173,146,131,142,144
2025-02-25 18:07:00.641,-78.0,-758.0,383.0,-148.0,-28.0,164.0,175,148,132,146,146
2025-02-25 18:07:00.649,-52.0,-750.0,394.0,-160.0,-11.0,168.0,172,144,130,141,143
2025-02-25 18:07:00.653,-107.0,-763.0,385.0,-164.0,0.0,177.0,178,150,132,144,145
2025-02-25 18:07:00.657,-146.0,-711.0,378.0,-171.0,1.0,182.0,177,148,134,144,146
2025-02-25 18:07:00.661,-169.0,-680.0,356.0,-178.0,1.0,187.0,175,149,136,147,144
2025-02-25 18:07:00.670,-245.0,-657.0,368.0,-183.0,6.0,189.0,174,145,131,143,144
2025-02-25 18:07:00.674,-253.0,-572.0,333.0,-175.0,7.0,188.0,171,147,132,142,142
2025-02-25 18:07:00.678,-301.0,-533.0,329.0,-160.0,6.0,185.0,172,146,128,141,141
2025-02-25 18:07:00.686,-358.0,-515.0,376.0,-140.0,17.0,183.0,177,150,136,146,147
2025-02-25 18:07:00.690,-408.0,-431.0,323.0,-112.0,22.0,178.0,176,148,134,145,146
2025-02-25 18:07:00.695,-478.0,-377.0,295.0,-98.0,28.0,172.0,175,149,131,145,145
2025-02-25 18:07:00.702,-524.0,-318.0,224.0,-90.0,32.0,166.0,178,151,136,149,150
2025-02-25 18:07:00.707,-570.0,-264.0,200.0,-73.0,38.0,161.0,175,146,130,144,143
2025-02-25 18:07:00.710,-633.0,-202.0,117.0,-58.0,43.0,158.0,173,145,129,144,143
2025-02-25 18:07:00.718,-672.0,-164.0,72.0,-41.0,43.0,150.0,175,149,132,145,145
2025-02-25 18:07:00.723,-734.0,-114.0,94.0,-32.0,47.0,144.0,177,150,136,146,146
2025-02-25 18:07:00.727,-765.0,-39.0,18.0,-29.0,43.0,136.0,176,148,134,145,144
2025-02-25 18:07:00.735,-794.0,-17.0,27.0,-23.0,41.0,125.0,173,145,134,143,144
2025-02-25 18:07:00.739,-816.0,43.0,58.0,-25.0,42.0,120.0,173,146,130,143,144
2025-02-25 18:07:00.743,-800.0,91.0,-5.0,-13.0,37.0,106.0,176,150,130,148,148
2025-02-25 18:07:00.747,-834.0,82.0,59.0,-8.0,37.0,92.0,176,148,135,144,144
2025-02-25 18:07:00.751,-871.0,136.0,12.0,-3.0,36.0,76.0,174,146,135,143,143
2025-02-25 18:07:00.760,-878.0,190.0,-36.0,6.0,27.0,68.0,175,146,129,144,143
2025-02-25 18:07:00.764,-931.0,224.0,-26.0,11.0,27.0,54.0,177,151,138,146,147
2025-02-25 18:07:00.768,-980.0,312.0,-46.0,17.0,27.0,43.0,177,149,133,146,149
2025-02-25 18:07:00.776,-1010.0,432.0,-102.0,21.0,25.0,29.0,168,145,131,149,144
2025-02-25 18:07:00.780,-1029.0,457.0,-110.0,20.0,22.0,21.0,177,148,134,145,146
2025-02-25 18:07:00.784,-1083.0,565.0,-125.0,29.0,15.0,2.0,176,149,136,146,146
2025-02-25 18:07:00.788,-1172.0,616.0,-120.0,40.0,6.0,-18.0,175,149,134,146,146
2025-02-25 18:07:00.796,-1202.0,614.0,-106.0,42.0,0.0,-37.0,174,146,136,143,143
2025-02-25 18:07:00.800,-1218.0,659.0,-141.0,50.0,-4.0,-59.0,177,152,136,144,148
2025-02-25 18:07:00.805,-1239.0,669.0,-126.0,63.0,-14.0,-69.0,173,145,130,144,144
2025-02-25 18:07:00.812,-1226.0,665.0,-177.0,69.0,-18.0,-90.0,175,143,136,146,144
2025-02-25 18:07:00.817,-1247.0,678.0,-218.0,85.0,-26.0,-111.0,176,148,137,148,148
2025-02-25 18:07:00.821,-1311.0,699.0,-214.0,105.0,-30.0,-131.0,181,152,139,150,150
2025-02-25 18:07:00.829,-1342.0,726.0,-209.0,112.0,-27.0,-149.0,175,151,138,147,148
2025-02-25 18:07:00.833,-1374.0,776.0,-238.0,127.0,-21.0,-166.0,175,150,138,148,147
2025-02-25 18:07:00.841,-1388.0,819.0,-289.0,143.0,-12.0,-183.0,173,145,133,147,143
2025-02-25 18:07:00.846,-1355.0,811.0,-258.0,152.0,-5.0,-203.0,174,145,133,145,145
2025-02-25 18:07:00.850,-1250.0,797.0,-201.0,164.0,10.0,-228.0,173,145,132,143,143
2025-02-25 18:07:00.858,-1073.0,815.0,-180.0,162.0,17.0,-243.0,173,145,132,146,144
2025-02-25 18:07:00.862,-885.0,785.0,-88.0,148.0,2.0,-282.0,178,150,139,149,150
2025-02-25 18:07:00.866,-698.0,722.0,-25.0,134.0,-21.0,-323.0,176,148,136,149,148
2025-02-25 18:07:00.874,-519.0,619.0,32.0,102.0,-49.0,-360.0,174,146,136,147,145
2025-02-25 18:07:00.879,-322.0,437.0,100.0,83.0,-69.0,-395.0,175,146,135,149,146
2025-02-25 18:07:00.883,-190.0,225.0,161.0,47.0,-78.0,-424.0,173,147,132,140,144
2025-02-25 18:07:00.891,67.0,-113.0,197.0,8.0,-91.0,-445.0,173,144,133,144,142
2025-02-25 18:07:00.895,367.0,-374.0,238.0,-23.0,-102.0,-452.0,176,151,135,147,140
2025-02-25 18:07:00.900,629.0,-982.0,275.0,-47.0,-107.0,-453.0,175,145,133,146,147
2025-02-25 18:07:00.907,955.0,-1606.0,319.0,-75.0,-105.0,-439.0,176,148,135,148,147
2025-02-25 18:07:00.911,1337.0,-2142.0,410.0,-79.0,-94.0,-408.0,174,146,133,147,145
2025-02-25 18:07:00.916,1695.0,-2551.0,435.0,-111.0,-87.0,-370.0,175,147,132,146,144
2025-02-25 18:07:00.923,1930.0,-2876.0,219.0,-154.0,-103.0,-337.0,179,148,133,149,146
2025-02-25 18:07:00.927,2347.0,-3282.0,528.0,-172.0,-62.0,-288.0,178,146,136,149,146
2025-02-25 18:07:00.935,2748.0,-3763.0,779.0,-143.0,-86.0,-281.0,174,147,127,146,143
2025-02-25 18:07:00.940,2803.0,-4162.0,1545.0,-156.0,-85.0,-234.0,176,145,129,148,144
2025-02-25 18:07:00.944,2750.0,-4203.0,2325.0,-20.0,27.0,-116.0,177,145,127,145,145
2025-02-25 18:07:00.952,1956.0,-3460.0,-238.0,22.0,35.0,-32.0,177,145,128,146,145
2025-02-25 18:07:00.956,1673.0,-3267.0,-53.0,-57.0,47.0,22.0,182,148,130,150,150
2025-02-25 18:07:00.960,1637.0,-3109.0,-310.0,-53.0,96.0,111.0,188,153,138,156,155
2025-02-25 18:07:00.968,1583.0,-3204.0,49.0,-65.0,82.0,187.0,184,150,135,155,154
2025-02-25 18:07:00.972,1402.0,-3095.0,72.0,-69.0,71.0,241.0,183,148,132,150,152
2025-02-25 18:07:00.976,1155.0,-2744.0,-279.0,-61.0,40.0,277.0,182,146,129,150,149
2025-02-25 18:07:00.985,933.0,-2465.0,-255.0,-50.0,17.0,291.0,180,147,130,149,151
2025-02-25 18:07:00.990,866.0,-2270.0,-289.0,-58.0,14.0,301.0,181,146,128,149,148
2025-02-25 18:07:00.994,717.0,-2008.0,-205.0,-49.0,21.0,305.0,177,146,128,149,147
2025-02-25 18:07:01.001,544.0,-1883.0,-124.0,-24.0,34.0,306.0,182,149,133,151,151
2025-02-25 18:07:01.006,437.0,-1750.0,-68.0,10.0,44.0,299.0,183,149,135,156,152
2025-02-25 18:07:01.010,440.0,-1569.0,174.0,31.0,43.0,283.0,183,150,132,152,151
2025-02-25 18:07:01.017,381.0,-1421.0,115.0,26.0,34.0,265.0,183,148,134,151,148
2025-02-25 18:07:01.022,311.0,-1255.0,-95.0,15.0,22.0,247.0,180,150,135,152,149
2025-02-25 18:07:01.026,165.0,-1176.0,-158.0,3.0,-19.0,234.0,177,146,128,148,145
2025-02-25 18:07:01.034,131.0,-1044.0,68.0,-12.0,-46.0,220.0,181,148,131,152,150
2025-02-25 18:07:01.038,77.0,-985.0,176.0,-40.0,-45.0,211.0,184,149,135,152,149
2025-02-25 18:07:01.042,60.0,-818.0,104.0,-54.0,-40.0,210.0,179,147,137,152,151
2025-02-25 18:07:01.050,24.0,-732.0,88.0,-75.0,-36.0,216.0,178,142,129,146,146
2025-02-25 18:07:01.054,-97.0,-722.0,125.0,-101.0,-19.0,222.0,178,143,129,148,148
2025-02-25 18:07:01.058,-220.0,-682.0,77.0,-122.0,-16.0,231.0,181,147,135,150,147
2025-02-25 18:07:01.067,-285.0,-610.0,63.0,-142.0,-20.0,240.0,183,148,134,153,150
2025-02-25 18:07:01.071,-363.0,-563.0,156.0,-152.0,-9.0,248.0,182,148,134,153,148
2025-02-25 18:07:01.076,-414.0,-472.0,140.0,-152.0,2.0,252.0,180,145,132,151,148
2025-02-25 18:07:01.083,-499.0,-440.0,229.0,-146.0,13.0,250.0,180,146,133,152,149
2025-02-25 18:07:01.087,-535.0,-372.0,242.0,-129.0,14.0,247.0,177,141,130,148,146
2025-02-25 18:07:01.092,-597.0,-355.0,422.0,-94.0,21.0,246.0,176,140,130,149,144
2025-02-25 18:07:01.099,-710.0,-336.0,394.0,-58.0,40.0,248.0,180,140,134,151,148
2025-02-25 18:07:01.103,-751.0,-187.0,300.0,-34.0,44.0,244.0,181,142,136,152,149
2025-02-25 18:07:01.108,-726.0,-61.0,199.0,-25.0,50.0,233.0,179,139,135,152,147
2025-02-25 18:07:01.112,-735.0,60.0,88.0,-15.0,52.0,220.0,179,135,133,146,142
2025-02-25 18:07:01.120,-746.0,145.0,59.0,-11.0,52.0,202.0,176,132,129,148,142
2025-02-25 18:07:01.124,-755.0,173.0,76.0,-8.0,51.0,194.0,183,133,131,148,143
2025-02-25 18:07:01.128,-727.0,211.0,99.0,-21.0,60.0,176.0,179,131,129,149,143
2025-02-25 18:07:01.133,-758.0,298.0,88.0,-23.0,53.0,154.0,179,126,127,146,138
2025-02-25 18:07:01.141,-822.0,293.0,-18.0,-20.0,50.0,137.0,176,124,123,142,133
2025-02-25 18:07:01.145,-863.0,301.0,-89.0,-38.0,47.0,128.0,179,122,123,144,134
2025-02-25 18:07:01.149,-889.0,388.0,-44.0,-44.0,41.0,113.0,180,121,125,146,135
2025-02-25 18:07:01.157,-1009.0,428.0,-178.0,-56.0,30.0,98.0,180,119,124,146,132
2025-02-25 18:07:01.161,-1065.0,483.0,-131.0,-55.0,27.0,87.0,178,115,123,141,127
2025-02-25 18:07:01.165,-1096.0,497.0,-130.0,-62.0,25.0,75.0,177,109,121,139,125
2025-02-25 18:07:01.173,-1073.0,506.0,-209.0,-71.0,15.0,69.0,176,105,119,136,123
2025-02-25 18:07:01.177,-1108.0,477.0,-245.0,-72.0,5.0,54.0,177,104,117,137,123
2025-02-25 18:07:01.182,-1138.0,561.0,-209.0,-74.0,-3.0,40.0,182,105,121,140,123
2025-02-25 18:07:01.190,-1155.0,544.0,-165.0,-71.0,-9.0,21.0,179,97,117,134,120
2025-02-25 18:07:01.194,-1153.0,519.0,-130.0,-56.0,-12.0,4.0,176,91,114,131,113
2025-02-25 18:07:01.199,-1196.0,621.0,-182.0,-46.0,-15.0,-14.0,174,88,111,128,109
2025-02-25 18:07:01.206,-1177.0,643.0,-208.0,-26.0,-21.0,-25.0,177,88,109,128,109
2025-02-25 18:07:01.210,-1145.0,691.0,-152.0,-15.0,-31.0,-45.0,181,89,113,133,113
2025-02-25 18:07:01.215,-1118.0,719.0,-188.0,-3.0,-35.0,-66.0,178,86,111,130,112
2025-02-25 18:07:01.219,-1199.0,716.0,-227.0,5.0,-33.0,-84.0,178,86,106,129,110
2025-02-25 18:07:01.227,-1210.0,700.0,-37.0,27.0,-8.0,-95.0,178,84,104,128,107
2025-02-25 18:07:01.231,-1155.0,846.0,4.0,61.0,3.0,-105.0,173,81,103,125,105
2025-02-25 18:07:01.235,-1121.0,846.0,147.0,100.0,14.0,-107.0,178,84,102,127,110
2025-02-25 18:07:01.243,-1258.0,866.0,200.0,128.0,41.0,-114.0,182,89,102,131,113
2025-02-25 18:07:01.247,-1294.0,887.0,114.0,147.0,70.0,-126.0,181,83,97,127,110
2025-02-25 18:07:01.252,-1165.0,953.0,194.0,194.0,78.0,-131.0,178,81,96,126,105
2025-02-25 18:07:01.259,-1221.0,988.0,295.0,225.0,127.0,-164.0,177,76,90,125,103
2025-02-25 18:07:01.264,-1015.0,1254.0,147.0,274.0,131.0,-184.0,178,83,98,128,105
2025-02-25 18:07:01.268,-901.0,1276.0,-88.0,289.0,111.0,-229.0,181,85,98,126,104
2025-02-25 18:07:01.276,-634.0,1080.0,-400.0,267.0,54.0,-269.0,179,80,97,123,103
2025-02-25 18:07:01.279,-301.0,1139.0,-598.0,280.0,-2.0,-314.0,176,78,92,120,96
2025-02-25 18:07:01.284,-253.0,1003.0,-464.0,284.0,-12.0,-351.0,175,78,89,116,92
2025-02-25 18:07:01.288,-100.0,740.0,-334.0,247.0,-13.0,-387.0,175,77,89,109,91
2025-02-25 18:07:01.296,-378.0,627.0,-57.0,246.0,8.0,-407.0,178,76,90,109,92
2025-02-25 18:07:01.300,-402.0,463.0,-34.0,223.0,3.0,-442.0,179,79,94,108,92
2025-02-25 18:07:01.304,-517.0,508.0,13.0,222.0,-50.0,-477.0,177,77,89,105,89
2025-02-25 18:07:01.309,-151.0,307.0,-243.0,203.0,-90.0,-506.0,180,81,94,105,90
2025-02-25 18:07:01.316,652.0,86.0,-149.0,164.0,-155.0,-518.0,182,81,96,108,94
2025-02-25 18:07:01.321,1065.0,-443.0,-156.0,162.0,-241.0,-536.0,182,82,95,107,94
2025-02-25 18:07:01.325,1587.0,-1314.0,369.0,158.0,-280.0,-537.0,182,84,98,108,95
2025-02-25 18:07:01.333,1970.0,-2266.0,695.0,152.0,-268.0,-510.0,181,82,96,105,92
2025-02-25 18:07:01.337,2251.0,-3394.0,1110.0,193.0,-244.0,-430.0,181,80,94,103,91
2025-02-25 18:07:01.341,2659.0,-4298.0,1666.0,216.0,-185.0,-312.0,174,75,90,96,86
2025-02-25 18:07:01.349,3021.0,-4704.0,2274.0,226.0,-117.0,-255.0,172,70,90,96,83
2025-02-25 18:07:01.353,3059.0,-4974.0,2581.0,218.0,-46.0,-155.0,177,75,94,102,87
2025-02-25 18:07:01.357,3201.0,-4710.0,2585.0,225.0,11.0,-78.0,176,75,94,97,87
2025-02-25 18:07:01.366,3041.0,-4700.0,2151.0,212.0,97.0,-2.0,175,75,94,95,87
2025-02-25 18:07:01.370,2672.0,-4355.0,1589.0,188.0,136.0,80.0,175,73,90,93,85
2025-02-25 18:07:01.375,2248.0,-3787.0,1392.0,95.0,152.0,107.0,172,71,92,89,82
2025-02-25 18:07:01.378,1719.0,-3185.0,940.0,-13.0,147.0,153.0,176,76,92,96,87
2025-02-25 18:07:01.386,1352.0,-2474.0,493.0,-63.0,119.0,178.0,177,79,95,96,88
2025-02-25 18:07:01.390,944.0,-2268.0,185.0,-126.0,66.0,192.0,174,73,89,96,85
2025-02-25 18:07:01.394,747.0,-2100.0,57.0,-159.0,40.0,188.0,173,73,88,94,84
2025-02-25 18:07:01.399,666.0,-2122.0,-9.0,-175.0,15.0,187.0,175,76,91,99,87
2025-02-25 18:07:01.406,483.0,-2268.0,-37.0,-182.0,8.0,192.0,176,75,91,99,87
2025-02-25 18:07:01.411,443.0,-2312.0,19.0,-164.0,10.0,205.0,173,75,89,98,85
2025-02-25 18:07:01.415,414.0,-2332.0,211.0,-141.0,3.0,211.0,175,73,88,96,84
2025-02-25 18:07:01.419,473.0,-2209.0,318.0,-134.0,17.0,231.0,177,76,89,99,90
2025-02-25 18:07:01.427,477.0,-1887.0,416.0,-130.0,20.0,246.0,176,76,91,100,91
2025-02-25 18:07:01.431,477.0,-1648.0,466.0,-118.0,15.0,255.0,172,74,86,95,84
2025-02-25 18:07:01.436,433.0,-1492.0,510.0,-115.0,12.0,259.0,174,73,89,100,86
2025-02-25 18:07:01.443,339.0,-1227.0,515.0,-121.0,5.0,263.0,177,78,90,101,90
2025-02-25 18:07:01.448,199.0,-1042.0,426.0,-124.0,-8.0,264.0,174,73,91,97,86
2025-02-25 18:07:01.452,159.0,-846.0,367.0,-136.0,-16.0,266.0,173,73,88,96,83
2025-02-25 18:07:01.456,-53.0,-787.0,295.0,-152.0,-18.0,266.0,174,74,89,96,85
2025-02-25 18:07:01.464,-145.0,-625.0,291.0,-156.0,-27.0,262.0,178,78,92,100,90
2025-02-25 18:07:01.468,-225.0,-521.0,307.0,-152.0,-36.0,253.0,173,75,87,97,87
2025-02-25 18:07:01.473,-220.0,-383.0,312.0,-142.0,-34.0,240.0,172,72,87,95,83
2025-02-25 18:07:01.477,-294.0,-345.0,276.0,-129.0,-23.0,235.0,169,72,87,96,82
2025-02-25 18:07:01.485,-414.0,-300.0,297.0,-110.0,-19.0,227.0,175,73,90,101,88
2025-02-25 18:07:01.489,-481.0,-192.0,336.0,-93.0,-14.0,219.0,175,75,85,100,88
2025-02-25 18:07:01.493,-494.0,-54.0,365.0,-84.0,-3.0,206.0,170,77,88,97,84
2025-02-25 18:07:01.497,-521.0,32.0,348.0,-69.0,4.0,200.0,171,72,88,95,84
2025-02-25 18:07:01.505,-606.0,64.0,328.0,-53.0,19.0,186.0,176,77,92,100,88
2025-02-25 18:07:01.509,-656.0,128.0,302.0,-51.0,34.0,174.0,174,78,90,98,87
2025-02-25 18:07:01.513,-716.0,109.0,235.0,-44.0,38.0,163.0,170,71,82,97,84
2025-02-25 18:07:01.517,-800.0,152.0,228.0,-41.0,45.0,160.0,174,75,93,99,87
2025-02-25 18:07:01.522,-820.0,194.0,174.0,-40.0,44.0,147.0,173,75,93,99,88
2025-02-25 18:07:01.529,-852.0,196.0,139.0,-35.0,44.0,136.0,171,73,87,98,84
2025-02-25 18:07:01.534,-869.0,205.0,66.0,-37.0,45.0,130.0,172,73,92,101,86
2025-02-25 18:07:01.538,-868.0,176.0,57.0,-39.0,41.0,119.0,173,73,90,101,86
2025-02-25 18:07:01.542,-897.0,169.0,24.0,-41.0,40.0,109.0,173,73,88,100,85
2025-02-25 18:07:01.549,-936.0,153.0,-19.0,-52.0,38.0,106.0,176,77,91,101,87
2025-02-25 18:07:01.554,-967.0,159.0,-59.0,-58.0,34.0,98.0,174,75,91,100,88
2025-02-25 18:07:01.559,-973.0,168.0,-81.0,-65.0,32.0,91.0,172,72,90,96,85
2025-02-25 18:07:01.563,-990.0,203.0,-105.0,-74.0,31.0,86.0,172,74,88,99,86
2025-02-25 18:07:01.567,-1000.0,256.0,-129.0,-75.0,28.0,76.0,174,76,90,100,89
2025-02-25 18:07:01.575,-1040.0,314.0,-98.0,-76.0,28.0,62.0,171,70,87,99,86
2025-02-25 18:07:01.579,-1021.0,401.0,-88.0,-74.0,28.0,52.0,171,73,90,97,84
2025-02-25 18:07:01.583,-1034.0,435.0,-99.0,-68.0,28.0,32.0,176,79,93,103,89
2025-02-25 18:07:01.587,-1080.0,499.0,-151.0,-66.0,25.0,15.0,174,75,91,100,86
2025-02-25 18:07:01.595,-1091.0,546.0,-177.0,-64.0,24.0,-1.0,171,74,90,98,85
2025-02-25 18:07:01.599,-1144.0,576.0,-192.0,-56.0,19.0,-10.0,173,78,91,100,88
2025-02-25 18:07:01.603,-1172.0,591.0,-194.0,-45.0,14.0,-28.0,176,77,93,101,89
2025-02-25 18:07:01.608,-1174.0,622.0,-179.0,-40.0,9.0,-47.0,173,76,91,99,86
2025-02-25 18:07:01.615,-1169.0,616.0,-158.0,-23.0,6.0,-65.0,171,68,88,98,85
2025-02-25 18:07:01.620,-1184.0,646.0,-161.0,-9.0,2.0,-74.0,173,75,92,102,88
2025-02-25 18:07:01.624,-1197.0,678.0,-142.0,6.0,-1.0,-89.0,168,77,92,100,89
2025-02-25 18:07:01.629,-1210.0,690.0,-137.0,14.0,-3.0,-105.0,172,74,90,99,86
2025-02-25 18:07:01.636,-1203.0,735.0,-144.0,25.0,-3.0,-113.0,172,77,88,98,80
2025-02-25 18:07:01.640,-1236.0,792.0,-153.0,39.0,-1.0,-129.0,173,75,93,102,88
2025-02-25 18:07:01.644,-1254.0,879.0,-147.0,49.0,0.0,-148.0,175,77,84,103,90
2025-02-25 18:07:01.649,-1270.0,940.0,-142.0,56.0,3.0,-167.0,172,74,89,104,88
2025-02-25 18:07:01.656,-1265.0,969.0,-150.0,66.0,6.0,-178.0,171,74,89,100,86
2025-02-25 18:07:01.661,-1267.0,945.0,-125.0,85.0,14.0,-201.0,175,76,89,100,88
2025-02-25 18:07:01.665,-1209.0,909.0,-112.0,106.0,22.0,-225.0,174,78,91,103,90
2025-02-25 18:07:01.669,-1156.0,897.0,-110.0,118.0,30.0,-251.0,175,76,90,102,89
2025-02-25 18:07:01.677,-1108.0,792.0,-68.0,140.0,31.0,-281.0,170,72,89,99,85
2025-02-25 18:07:01.681,-938.0,759.0,-1.0,164.0,30.0,-297.0,169,69,86,99,84
2025-02-25 18:07:01.685,-743.0,703.0,26.0,178.0,18.0,-334.0,172,74,89,100,87
2025-02-25 18:07:01.690,-499.0,694.0,83.0,179.0,5.0,-373.0,168,72,87,98,85
2025-02-25 18:07:01.698,-364.0,640.0,122.0,177.0,-6.0,-393.0,169,71,86,97,84
2025-02-25 18:07:01.702,0.0,526.0,154.0,150.0,-35.0,-429.0,171,73,87,100,87
2025-02-25 18:07:01.707,448.0,302.0,163.0,131.0,-62.0,-463.0,171,72,88,102,87
2025-02-25 18:07:01.718,690.0,-239.0,271.0,89.0,-71.0,-481.0,170,72,86,96,85
2025-02-25 18:07:01.720,1113.0,-632.0,437.0,38.0,-109.0,-480.0,169,73,89,101,87
2025-02-25 18:07:01.723,1418.0,-1655.0,472.0,40.0,-176.0,-464.0,171,73,88,101,89
2025-02-25 18:07:01.726,1830.0,-2615.0,661.0,39.0,-169.0,-414.0,170,73,91,101,87
2025-02-25 18:07:01.734,2231.0,-3552.0,919.0,42.0,-97.0,-353.0,169,71,88,97,89
2025-02-25 18:07:01.738,2429.0,-4324.0,1307.0,81.0,-64.0,-271.0,168,71,88,97,86
2025-02-25 18:07:01.742,2747.0,-4630.0,1619.0,102.0,-4.0,-226.0,174,75,94,100,89
2025-02-25 18:07:01.747,2850.0,-4607.0,1926.0,128.0,26.0,-133.0,172,74,93,97,88
2025-02-25 18:07:01.755,2717.0,-4917.0,1504.0,150.0,73.0,-48.0,170,72,92,97,88
2025-02-25 18:07:01.759,2684.0,-4733.0,1134.0,149.0,166.0,33.0,168,70,90,95,86
2025-02-25 18:07:01.763,2422.0,-4182.0,969.0,108.0,184.0,90.0,168,72,89,98,88
2025-02-25 18:07:01.771,2189.0,-3714.0,635.0,57.0,175.0,112.0,171,74,93,100,89
2025-02-25 18:07:01.775,1844.0,-3394.0,383.0,-3.0,159.0,156.0,167,72,91,99,90
2025-02-25 18:07:01.779,1341.0,-2845.0,25.0,-20.0,124.0,179.0,167,73,86,98,88
2025-02-25 18:07:01.784,1046.0,-2501.0,-158.0,-72.0,99.0,203.0,167,67,87,99,88
2025-02-25 18:07:01.792,877.0,-2345.0,-297.0,-105.0,76.0,214.0,169,73,90,101,91
2025-02-25 18:07:01.796,609.0,-2079.0,-311.0,-156.0,50.0,228.0,172,74,91,98,88
2025-02-25 18:07:01.800,441.0,-1951.0,-351.0,-165.0,32.0,234.0,167,70,84,101,87
2025-02-25 18:07:01.804,430.0,-1992.0,-244.0,-156.0,33.0,233.0,166,72,86,99,87
2025-02-25 18:07:01.812,302.0,-1901.0,-196.0,-142.0,28.0,233.0,166,71,86,100,87
2025-02-25 18:07:01.817,266.0,-1894.0,-83.0,-134.0,28.0,241.0,168,76,92,101,89
2025-02-25 18:07:01.821,169.0,-1735.0,-77.0,-146.0,20.0,250.0,169,73,89,101,89
2025-02-25 18:07:01.828,155.0,-1569.0,54.0,-135.0,-3.0,261.0,169,76,90,101,89
2025-02-25 18:07:01.832,93.0,-1348.0,158.0,-129.0,-14.0,264.0,164,70,86,99,87
2025-02-25 18:07:01.837,83.0,-1206.0,200.0,-114.0,-37.0,262.0,167,73,89,102,89
2025-02-25 18:07:01.841,74.0,-982.0,234.0,-101.0,-54.0,252.0,170,76,90,104,91
2025-02-25 18:07:01.849,-10.0,-848.0,299.0,-101.0,-53.0,246.0,167,73,89,102,89
2025-02-25 18:07:01.853,-49.0,-722.0,354.0,-112.0,-51.0,244.0,164,71,88,99,86
2025-02-25 18:07:01.857,-110.0,-694.0,368.0,-129.0,-52.0,244.0,169,72,89,101,87
2025-02-25 18:07:01.862,-187.0,-621.0,331.0,-148.0,-50.0,246.0,170,75,92,104,89
2025-02-25 18:07:01.870,-283.0,-530.0,301.0,-157.0,-41.0,249.0,167,73,88,102,88
2025-02-25 18:07:01.874,-367.0,-417.0,301.0,-159.0,-22.0,248.0,165,70,87,99,87
2025-02-25 18:07:01.878,-421.0,-303.0,275.0,-149.0,-10.0,244.0,165,72,87,100,85
2025-02-25 18:07:01.886,-460.0,-257.0,292.0,-137.0,-9.0,239.0,168,77,90,104,90
2025-02-25 18:07:01.890,-559.0,-169.0,261.0,-147.0,-25.0,227.0,166,75,90,102,90
2025-02-25 18:07:01.895,-595.0,-65.0,196.0,-152.0,-24.0,218.0,170,72,91,101,88
2025-02-25 18:07:01.899,-632.0,-37.0,197.0,-162.0,-20.0,211.0,165,71,88,101,88
2025-02-25 18:07:01.906,-693.0,20.0,240.0,-152.0,-15.0,205.0,161,71,89,98,86
2025-02-25 18:07:01.911,-725.0,22.0,207.0,-136.0,-4.0,196.0,168,74,89,105,90
2025-02-25 18:07:01.915,-722.0,86.0,133.0,-135.0,5.0,184.0,164,72,87,100,89
2025-02-25 18:07:01.919,-755.0,126.0,188.0,-125.0,10.0,173.0,163,70,89,100,88
2025-02-25 18:07:01.926,-823.0,53.0,96.0,-117.0,18.0,168.0,166,75,93,105,91
2025-02-25 18:07:01.931,-759.0,107.0,125.0,-108.0,27.0,160.0,165,76,92,106,90
2025-02-25 18:07:01.935,-723.0,125.0,82.0,-106.0,31.0,152.0,162,73,91,103,91
2025-02-25 18:07:01.939,-771.0,118.0,64.0,-101.0,36.0,145.0,161,72,91,102,89
2025-02-25 18:07:01.947,-812.0,132.0,39.0,-93.0,42.0,136.0,164,75,94,107,92
2025-02-25 18:07:01.951,-862.0,161.0,-24.0,-89.0,44.0,128.0,162,76,94,105,92
2025-02-25 18:07:01.955,-871.0,231.0,-66.0,-81.0,47.0,118.0,159,72,91,103,89
2025-02-25 18:07:01.960,-905.0,206.0,-152.0,-82.0,43.0,115.0,162,78,88,105,92
2025-02-25 18:07:01.967,-942.0,263.0,-152.0,-77.0,40.0,106.0,162,79,95,107,93
2025-02-25 18:07:01.972,-993.0,280.0,-210.0,-78.0,40.0,97.0,158,76,95,106,92
2025-02-25 18:07:01.976,-984.0,375.0,-187.0,-68.0,41.0,91.0,159,73,93,105,91
2025-02-25 18:07:01.981,-942.0,373.0,-222.0,-53.0,38.0,82.0,159,79,95,108,94
2025-02-25 18:07:01.985,-970.0,306.0,-224.0,-47.0,33.0,70.0,160,75,97,106,93
2025-02-25 18:07:01.993,-964.0,348.0,-204.0,-39.0,33.0,62.0,158,75,97,105,90
2025-02-25 18:07:01.996,-960.0,275.0,-198.0,-18.0,32.0,57.0,159,79,99,106,92
2025-02-25 18:07:02.001,-868.0,372.0,-209.0,7.0,31.0,46.0,162,81,101,108,94
2025-02-25 18:07:02.005,-844.0,259.0,-101.0,19.0,36.0,39.0,159,77,100,108,92
2025-02-25 18:07:02.012,-851.0,197.0,-159.0,46.0,37.0,35.0,159,77,101,109,92
2025-02-25 18:07:02.017,-805.0,140.0,-84.0,80.0,45.0,22.0,160,78,106,110,96
2025-02-25 18:07:02.021,-736.0,178.0,-77.0,94.0,53.0,11.0,161,80,107,107,94
2025-02-25 18:07:02.025,-730.0,186.0,-146.0,115.0,57.0,2.0,156,80,106,108,94
2025-02-25 18:07:02.033,-742.0,281.0,-270.0,140.0,61.0,-3.0,160,83,112,111,98
2025-02-25 18:07:02.037,-730.0,338.0,-335.0,160.0,62.0,-10.0,160,84,112,112,98
2025-02-25 18:07:02.041,-762.0,446.0,-407.0,172.0,61.0,-17.0,161,87,115,110,96
2025-02-25 18:07:02.046,-792.0,564.0,-495.0,195.0,55.0,-26.0,158,84,113,109,98
2025-02-25 18:07:02.053,-907.0,636.0,-919.0,206.0,30.0,-33.0,159,87,111,112,98
2025-02-25 18:07:02.058,-1021.0,746.0,-1106.0,198.0,-19.0,-33.0,161,85,112,111,98
2025-02-25 18:07:02.062,-1122.0,985.0,-883.0,197.0,-47.0,-59.0,161,90,113,116,104
2025-02-25 18:07:02.070,-1220.0,1170.0,-718.0,181.0,-69.0,-109.0,156,90,113,115,103
2025-02-25 18:07:02.074,-970.0,1103.0,-691.0,191.0,-80.0,-149.0,156,92,112,112,99
2025-02-25 18:07:02.078,-896.0,970.0,-543.0,202.0,-84.0,-179.0,156,92,114,112,101
2025-02-25 18:07:02.087,-861.0,880.0,-586.0,212.0,-89.0,-195.0,156,95,118,114,103
2025-02-25 18:07:02.091,-801.0,811.0,-689.0,218.0,-109.0,-232.0,156,103,116,111,102
2025-02-25 18:07:02.095,-856.0,535.0,-777.0,222.0,-130.0,-266.0,154,110,122,114,102
2025-02-25 18:07:02.103,-858.0,729.0,-704.0,243.0,-141.0,-291.0,154,115,124,112,103
2025-02-25 18:07:02.107,-688.0,1011.0,-417.0,264.0,-141.0,-328.0,150,117,127,114,105
2025-02-25 18:07:02.115,-634.0,1020.0,142.0,290.0,-138.0,-374.0,148,120,119,114,104
2025-02-25 18:07:02.119,-662.0,772.0,147.0,278.0,-140.0,-422.0,147,123,126,114,105
2025-02-25 18:07:02.124,-512.0,703.0,71.0,273.0,-151.0,-456.0,137,123,131,114,103
2025-02-25 18:07:02.132,-253.0,640.0,46.0,262.0,-158.0,-473.0,132,120,125,116,102
2025-02-25 18:07:02.136,-86.0,754.0,63.0,249.0,-178.0,-491.0,131,123,127,113,100
2025-02-25 18:07:02.141,285.0,754.0,239.0,232.0,-207.0,-503.0,130,123,128,113,100
2025-02-25 18:07:02.148,497.0,302.0,58.0,175.0,-252.0,-550.0,132,127,131,117,104
2025-02-25 18:07:02.152,810.0,-257.0,83.0,131.0,-294.0,-582.0,132,130,130,119,104
2025-02-25 18:07:02.157,1458.0,-1080.0,354.0,121.0,-313.0,-600.0,129,133,136,122,105
2025-02-25 18:07:02.164,2008.0,-2018.0,935.0,122.0,-312.0,-572.0,132,134,134,125,106
2025-02-25 18:07:02.168,2357.0,-2583.0,1723.0,187.0,-266.0,-523.0,129,136,132,124,104
2025-02-25 18:07:02.176,2743.0,-3381.0,2024.0,223.0,-219.0,-451.0,130,138,136,122,103
2025-02-25 18:07:02.180,2811.0,-3323.0,2276.0,264.0,-156.0,-351.0,129,142,136,126,102
2025-02-25 18:07:02.186,3054.0,-3355.0,2347.0,191.0,-89.0,-242.0,128,143,132,126,103
2025-02-25 18:07:02.194,3262.0,-3614.0,2599.0,179.0,3.0,-126.0,126,140,133,124,101
2025-02-25 18:07:02.198,3264.0,-4224.0,2683.0,131.0,61.0,-12.0,125,140,132,123,100
2025-02-25 18:07:02.206,2844.0,-3973.0,1987.0,101.0,137.0,91.0,128,143,134,124,102
2025-02-25 18:07:02.210,2438.0,-3791.0,1708.0,50.0,189.0,133.0,126,141,130,119,97
2025-02-25 18:07:02.215,2035.0,-3497.0,1272.0,-10.0,215.0,207.0,125,144,133,122,100
2025-02-25 18:07:02.222,1517.0,-3048.0,1144.0,-54.0,208.0,253.0,127,147,134,123,99
2025-02-25 18:07:02.227,1034.0,-2708.0,765.0,-102.0,186.0,279.0,126,144,141,126,101
2025-02-25 18:07:02.231,673.0,-2410.0,593.0,-118.0,161.0,292.0,126,145,134,126,99
2025-02-25 18:07:02.238,471.0,-2226.0,334.0,-117.0,130.0,287.0,123,141,129,126,96
2025-02-25 18:07:02.242,415.0,-2018.0,200.0,-110.0,111.0,269.0,120,139,132,125,96
2025-02-25 18:07:02.247,367.0,-1878.0,114.0,-93.0,64.0,243.0,121,142,132,125,95
2025-02-25 18:07:02.254,203.0,-1761.0,253.0,-90.0,22.0,231.0,119,141,132,123,93
2025-02-25 18:07:02.258,146.0,-1693.0,381.0,-81.0,-6.0,212.0,121,143,136,129,96
2025-02-25 18:07:02.263,149.0,-1588.0,498.0,-88.0,-29.0,198.0,123,145,136,131,98
2025-02-25 18:07:02.270,224.0,-1465.0,604.0,-97.0,-43.0,190.0,121,141,131,129,97
2025-02-25 18:07:02.275,217.0,-1363.0,657.0,-91.0,-47.0,186.0,118,141,133,125,94
2025-02-25 18:07:02.279,213.0,-1274.0,700.0,-98.0,-56.0,188.0,120,142,133,127,92
2025-02-25 18:07:02.287,263.0,-1267.0,693.0,-94.0,-56.0,191.0,124,143,140,131,97
2025-02-25 18:07:02.292,240.0,-1222.0,745.0,-95.0,-48.0,199.0,122,142,134,129,96
2025-02-25 18:07:02.296,253.0,-1097.0,760.0,-96.0,-36.0,207.0,124,142,133,128,98
2025-02-25 18:07:02.300,168.0,-1015.0,706.0,-94.0,-23.0,215.0,124,142,132,132,99
2025-02-25 18:07:02.308,151.0,-911.0,732.0,-100.0,-14.0,221.0,123,140,131,128,96
2025-02-25 18:07:02.312,89.0,-783.0,665.0,-100.0,-1.0,227.0,119,139,134,129,95
2025-02-25 18:07:02.317,-29.0,-747.0,628.0,-94.0,11.0,229.0,123,143,135,131,97
2025-02-25 18:07:02.324,-145.0,-607.0,533.0,-94.0,16.0,234.0,126,142,135,133,100
2025-02-25 18:07:02.329,-238.0,-495.0,529.0,-92.0,18.0,238.0,123,139,133,129,97
2025-02-25 18:07:02.333,-283.0,-393.0,465.0,-86.0,20.0,239.0,124,141,136,129,95
2025-02-25 18:07:02.340,-374.0,-288.0,411.0,-73.0,22.0,238.0,122,140,134,129,97
2025-02-25 18:07:02.344,-471.0,-240.0,394.0,-68.0,24.0,235.0,126,141,136,132,99
2025-02-25 18:07:02.349,-536.0,-151.0,385.0,-71.0,28.0,231.0,128,140,135,130,101
2025-02-25 18:07:02.353,-587.0,-77.0,398.0,-73.0,31.0,224.0,125,141,136,129,97
2025-02-25 18:07:02.361,-645.0,-12.0,363.0,-74.0,33.0,216.0,122,140,136,130,96
2025-02-25 18:07:02.365,-646.0,51.0,363.0,-82.0,40.0,211.0,125,141,134,128,94
2025-02-25 18:07:02.369,-667.0,70.0,346.0,-88.0,46.0,199.0,124,141,136,133,101
2025-02-25 18:07:02.377,-708.0,107.0,315.0,-94.0,52.0,186.0,126,143,134,133,100
2025-02-25 18:07:02.381,-716.0,145.0,311.0,-99.0,58.0,173.0,123,139,132,131,99
2025-02-25 18:07:02.386,-741.0,155.0,194.0,-102.0,57.0,162.0,126,137,135,130,97
2025-02-25 18:07:02.390,-844.0,197.0,194.0,-101.0,58.0,157.0,122,137,135,129,95
2025-02-25 18:07:02.398,-906.0,225.0,84.0,-104.0,54.0,144.0,124,138,133,126,97
2025-02-25 18:07:02.402,-959.0,287.0,41.0,-105.0,48.0,132.0,126,143,140,130,100
2025-02-25 18:07:02.406,-979.0,296.0,24.0,-104.0,45.0,119.0,127,142,136,130,99
2025-02-25 18:07:02.414,-982.0,334.0,-37.0,-106.0,45.0,105.0,127,141,138,132,99
2025-02-25 18:07:02.418,-1004.0,336.0,-64.0,-101.0,45.0,99.0,129,144,138,135,103
2025-02-25 18:07:02.422,-1004.0,353.0,-64.0,-99.0,48.0,85.0,136,150,147,141,111
2025-02-25 18:07:02.430,-1010.0,364.0,-101.0,-96.0,47.0,70.0,133,149,144,137,103
2025-02-25 18:07:02.435,-1031.0,333.0,-158.0,-88.0,45.0,59.0,132,149,143,137,106
2025-02-25 18:07:02.439,-1027.0,367.0,-145.0,-82.0,42.0,45.0,125,141,138,131,99
2025-02-25 18:07:02.443,-1007.0,354.0,-152.0,-67.0,39.0,38.0,127,140,138,132,102
2025-02-25 18:07:02.451,-1021.0,321.0,-173.0,-54.0,33.0,26.0,130,143,142,135,103
2025-02-25 18:07:02.455,-1009.0,386.0,-150.0,-40.0,27.0,14.0,128,145,141,133,101
2025-02-25 18:07:02.460,-1017.0,397.0,-149.0,-34.0,21.0,4.0,129,143,140,132,101
2025-02-25 18:07:02.467,-1016.0,441.0,-154.0,-24.0,19.0,-6.0,127,142,142,132,100
2025-02-25 18:07:02.472,-1018.0,450.0,-180.0,-13.0,16.0,-16.0,125,141,138,132,100
2025-02-25 18:07:02.477,-1026.0,451.0,-132.0,-3.0,15.0,-22.0,126,141,137,131,98
2025-02-25 18:07:02.484,-1023.0,471.0,-184.0,5.0,15.0,-32.0,130,144,139,134,101
2025-02-25 18:07:02.489,-1047.0,509.0,-170.0,16.0,16.0,-43.0,131,141,138,134,103
2025-02-25 18:07:02.493,-1063.0,538.0,-226.0,21.0,15.0,-55.0,128,142,139,133,101
2025-02-25 18:07:02.501,-1058.0,508.0,-231.0,30.0,14.0,-70.0,124,138,136,132,99
2025-02-25 18:07:02.505,-1064.0,516.0,-280.0,42.0,13.0,-77.0,128,144,141,134,102
2025-02-25 18:07:02.509,-1084.0,512.0,-280.0,56.0,12.0,-91.0,130,144,145,136,101
2025-02-25 18:07:02.517,-1116.0,517.0,-269.0,75.0,9.0,-108.0,128,144,141,134,101
2025-02-25 18:07:02.521,-1064.0,533.0,-245.0,86.0,5.0,-124.0,128,141,136,134,101
2025-02-25 18:07:02.525,-1052.0,542.0,-266.0,91.0,5.0,-144.0,128,143,142,138,102
2025-02-25 18:07:02.533,-1017.0,505.0,-289.0,118.0,3.0,-166.0,129,141,140,132,100
2025-02-25 18:07:02.537,-1017.0,518.0,-209.0,133.0,-1.0,-191.0,125,145,134,130,99
2025-02-25 18:07:02.542,-932.0,498.0,-193.0,155.0,-2.0,-203.0,125,139,136,130,98
2025-02-25 18:07:02.549,-916.0,476.0,-183.0,173.0,-5.0,-229.0,128,143,141,135,103
2025-02-25 18:07:02.553,-828.0,476.0,-108.0,186.0,-11.0,-257.0,128,141,141,135,101
2025-02-25 18:07:02.558,-736.0,483.0,-36.0,188.0,-15.0,-288.0,127,140,137,132,101
2025-02-25 18:07:02.566,-637.0,481.0,14.0,187.0,-21.0,-321.0,129,143,142,136,105
2025-02-25 18:07:02.570,-608.0,484.0,44.0,182.0,-27.0,-355.0,124,141,139,133,101
2025-02-25 18:07:02.574,-513.0,467.0,89.0,161.0,-37.0,-372.0,124,140,137,133,99
2025-02-25 18:07:02.579,-333.0,424.0,142.0,134.0,-48.0,-407.0,124,138,139,134,100
2025-02-25 18:07:02.587,-69.0,289.0,137.0,101.0,-64.0,-443.0,127,137,139,135,101
2025-02-25 18:07:02.591,212.0,43.0,194.0,75.0,-80.0,-474.0,125,141,138,136,102
2025-02-25 18:07:02.595,466.0,-360.0,236.0,63.0,-99.0,-499.0,120,139,142,133,99
2025-02-25 18:07:02.603,583.0,-841.0,335.0,57.0,-111.0,-510.0,121,134,133,133,97
2025-02-25 18:07:02.607,812.0,-1178.0,448.0,72.0,-134.0,-506.0,124,137,133,132,97
2025-02-25 18:07:02.612,1112.0,-1833.0,661.0,88.0,-151.0,-484.0,123,138,136,135,102
2025-02-25 18:07:02.619,1434.0,-2417.0,891.0,125.0,-150.0,-440.0,125,138,138,135,99
2025-02-25 18:07:02.624,1749.0,-3012.0,995.0,150.0,-143.0,-368.0,127,141,136,135,101
2025-02-25 18:07:02.631,2182.0,-3248.0,1275.0,168.0,-121.0,-285.0,124,138,133,133,100
2025-02-25 18:07:02.636,2445.0,-3415.0,1482.0,162.0,-83.0,-191.0,125,139,137,135,103
2025-02-25 18:07:02.641,2604.0,-3496.0,1669.0,166.0,-43.0,-103.0,124,136,133,132,99
2025-02-25 18:07:02.648,2642.0,-3391.0,1769.0,94.0,7.0,-24.0,122,140,131,132,95
2025-02-25 18:07:02.652,2646.0,-3212.0,2074.0,54.0,41.0,46.0,122,133,129,130,97
2025-02-25 18:07:02.656,2547.0,-3050.0,1849.0,-1.0,93.0,74.0,120,133,130,127,96
2025-02-25 18:07:02.664,2281.0,-3000.0,1331.0,-67.0,118.0,122.0,123,135,133,130,97
2025-02-25 18:07:02.669,1955.0,-2880.0,1309.0,-107.0,133.0,163.0,123,134,129,129,97
2025-02-25 18:07:02.673,1499.0,-2775.0,985.0,-129.0,133.0,197.0,122,135,130,128,97
2025-02-25 18:07:02.680,1083.0,-2571.0,701.0,-150.0,128.0,220.0,121,133,133,130,97
2025-02-25 18:07:02.684,762.0,-2271.0,535.0,-154.0,122.0,237.0,121,135,129,131,96
2025-02-25 18:07:02.689,480.0,-2143.0,386.0,-162.0,111.0,250.0,117,130,129,130,94
2025-02-25 18:07:02.696,381.0,-2007.0,226.0,-161.0,103.0,255.0,116,130,123,130,93
2025-02-25 18:07:02.701,218.0,-1858.0,114.0,-152.0,72.0,254.0,116,129,128,129,92
2025-02-25 18:07:02.705,80.0,-1821.0,104.0,-140.0,45.0,251.0,121,132,132,134,92
2025-02-25 18:07:02.713,35.0,-1699.0,168.0,-132.0,16.0,244.0,120,130,131,132,96
2025-02-25 18:07:02.717,-1.0,-1502.0,151.0,-131.0,-12.0,237.0,118,128,133,132,92
2025-02-25 18:07:02.722,-3.0,-1326.0,236.0,-128.0,-29.0,234.0,117,126,130,130,93
2025-02-25 18:07:02.730,-9.0,-1199.0,299.0,-135.0,-38.0,235.0,117,128,132,131,95
2025-02-25 18:07:02.734,-16.0,-1172.0,327.0,-153.0,-46.0,235.0,118,125,128,128,92
2025-02-25 18:07:02.739,-17.0,-1070.0,392.0,-163.0,-52.0,238.0,120,128,132,131,96
2025-02-25 18:07:02.746,-31.0,-982.0,395.0,-175.0,-45.0,243.0,122,129,135,135,97
2025-02-25 18:07:02.751,-21.0,-924.0,453.0,-180.0,-30.0,248.0,121,126,130,131,97
2025-02-25 18:07:02.755,-4.0,-823.0,301.0,-169.0,-20.0,249.0,119,124,131,127,96
2025-02-25 18:07:02.762,-23.0,-735.0,231.0,-162.0,-13.0,252.0,117,125,130,123,95
2025-02-25 18:07:02.767,-105.0,-646.0,355.0,-170.0,-7.0,251.0,109,122,130,123,98
2025-02-25 18:07:02.771,-396.0,-504.0,292.0,-179.0,-10.0,243.0,118,126,131,122,98
2025-02-25 18:07:02.779,-573.0,-364.0,411.0,-177.0,-4.0,231.0,116,122,129,123,97
2025-02-25 18:07:02.783,-650.0,-268.0,319.0,-167.0,9.0,214.0,119,121,127,122,98
2025-02-25 18:07:02.788,-730.0,-285.0,208.0,-143.0,15.0,204.0,118,118,127,121,96
2025-02-25 18:07:02.792,-767.0,-381.0,206.0,-117.0,21.0,201.0,118,114,121,119,98
2025-02-25 18:07:02.800,-838.0,-216.0,196.0,-103.0,28.0,197.0,121,114,118,117,95
2025-02-25 18:07:02.803,-889.0,-100.0,143.0,-95.0,29.0,185.0,126,116,120,120,99
2025-02-25 18:07:02.808,-911.0,-32.0,108.0,-85.0,30.0,175.0,127,115,119,119,97
2025-02-25 18:07:02.816,-854.0,40.0,51.0,-81.0,31.0,163.0,129,110,116,118,96
2025-02-25 18:07:02.820,-827.0,36.0,36.0,-73.0,31.0,150.0,128,104,114,116,96
2025-02-25 18:07:02.824,-787.0,93.0,64.0,-75.0,29.0,141.0,136,110,114,118,97
2025-02-25 18:07:02.828,-834.0,133.0,36.0,-75.0,29.0,122.0,135,107,111,118,98
2025-02-25 18:07:02.836,-865.0,76.0,-80.0,-78.0,25.0,108.0,134,103,111,116,94
2025-02-25 18:07:02.840,-889.0,-29.0,-173.0,-78.0,16.0,103.0,135,102,109,113,95
2025-02-25 18:07:02.845,-940.0,-41.0,-121.0,-82.0,9.0,91.0,138,102,108,117,97
2025-02-25 18:07:02.849,-1002.0,-15.0,-83.0,-94.0,2.0,80.0,141,99,108,117,96
2025-02-25 18:07:02.856,-1014.0,-30.0,-185.0,-97.0,0.0,74.0,136,92,101,112,93
2025-02-25 18:07:02.860,-1007.0,42.0,-219.0,-105.0,-9.0,70.0,139,91,99,111,93
2025-02-25 18:07:02.865,-998.0,9.0,-127.0,-97.0,-2.0,65.0,139,91,105,107,95
2025-02-25 18:07:02.870,-973.0,16.0,-134.0,-98.0,-1.0,60.0,142,87,98,109,93
2025-02-25 18:07:02.878,-966.0,-4.0,-260.0,-109.0,-7.0,60.0,138,84,99,108,91
2025-02-25 18:07:02.881,-1071.0,104.0,91.0,-123.0,-2.0,51.0,142,84,99,106,91
2025-02-25 18:07:02.886,-1014.0,130.0,-475.0,-124.0,-15.0,61.0,143,81,97,101,91
2025-02-25 18:07:02.889,-975.0,240.0,-136.0,-108.0,0.0,61.0,143,81,92,106,89
2025-02-25 18:07:02.898,-979.0,226.0,-184.0,-90.0,-1.0,60.0,143,76,87,100,85
2025-02-25 18:07:02.902,-946.0,320.0,-23.0,-70.0,18.0,55.0,143,76,87,104,87
2025-02-25 18:07:02.906,-884.0,430.0,-60.0,-62.0,35.0,36.0,143,75,85,106,85
2025-02-25 18:07:02.911,-877.0,490.0,-118.0,-37.0,42.0,20.0,143,71,81,104,82
2025-02-25 18:07:02.915,-1017.0,498.0,-23.0,-13.0,62.0,11.0,142,72,82,103,81
2025-02-25 18:07:02.922,-1050.0,627.0,36.0,18.0,83.0,-13.0,146,72,80,103,82
2025-02-25 18:07:02.926,-989.0,751.0,-58.0,39.0,97.0,-37.0,147,67,77,105,81
2025-02-25 18:07:02.931,-976.0,728.0,-282.0,56.0,97.0,-47.0,145,69,79,104,81
2025-02-25 18:07:02.935,-1116.0,762.0,-2.0,75.0,115.0,-59.0,146,70,78,107,83
2025-02-25 18:07:02.943,-1283.0,879.0,10.0,87.0,127.0,-75.0,147,67,80,106,81
2025-02-25 18:07:02.947,-1281.0,1047.0,-101.0,111.0,129.0,-91.0,146,63,75,106,74
2025-02-25 18:07:02.951,-1269.0,1036.0,-149.0,137.0,118.0,-101.0,144,67,73,106,79
2025-02-25 18:07:02.959,-1191.0,1046.0,-187.0,142.0,86.0,-135.0,147,70,74,108,84
2025-02-25 18:07:02.964,-1190.0,1058.0,-267.0,156.0,37.0,-184.0,148,69,77,109,82
2025-02-25 18:07:02.968,-1092.0,1114.0,-459.0,172.0,-8.0,-229.0,149,68,73,107,81
2025-02-25 18:07:02.975,-859.0,1313.0,-611.0,197.0,-29.0,-278.0,145,64,71,104,80
2025-02-25 18:07:02.980,-829.0,1206.0,-517.0,199.0,-24.0,-311.0,146,64,73,103,78
2025-02-25 18:07:02.984,-780.0,1090.0,-386.0,197.0,-2.0,-326.0,150,65,71,104,79
2025-02-25 18:07:02.988,-805.0,848.0,-229.0,188.0,18.0,-352.0,149,64,69,103,80
2025-02-25 18:07:02.996,-776.0,818.0,-222.0,193.0,-2.0,-379.0,148,62,67,101,78
2025-02-25 18:07:03.000,-753.0,854.0,-117.0,191.0,-33.0,-410.0,150,63,67,100,82
2025-02-25 18:07:03.004,-522.0,835.0,-139.0,186.0,-52.0,-443.0,149,62,70,101,79
2025-02-25 18:07:03.012,-116.0,802.0,-72.0,164.0,-81.0,-456.0,149,62,65,98,79
2025-02-25 18:07:03.016,326.0,698.0,-7.0,152.0,-119.0,-486.0,153,65,72,99,80
2025-02-25 18:07:03.020,678.0,436.0,128.0,138.0,-147.0,-508.0,152,63,69,99,79
2025-02-25 18:07:03.025,851.0,50.0,552.0,114.0,-146.0,-518.0,154,60,69,99,80
2025-02-25 18:07:03.032,1353.0,-315.0,309.0,78.0,-181.0,-520.0,156,61,71,98,80
2025-02-25 18:07:03.037,1427.0,-933.0,439.0,77.0,-176.0,-508.0,154,64,71,97,82
2025-02-25 18:07:03.041,2032.0,-1682.0,599.0,74.0,-165.0,-490.0,155,63,70,96,81
2025-02-25 18:07:03.045,2212.0,-2739.0,778.0,108.0,-156.0,-440.0,154,65,70,92,81
2025-02-25 18:07:03.053,2400.0,-3646.0,891.0,183.0,-141.0,-410.0,157,65,73,98,82
2025-02-25 18:07:03.057,2600.0,-3774.0,1092.0,248.0,-124.0,-337.0,159,66,75,93,80
2025-02-25 18:07:03.061,2922.0,-4016.0,1318.0,268.0,-16.0,-263.0,159,64,75,92,84
2025-02-25 18:07:03.069,2797.0,-4036.0,1401.0,272.0,33.0,-193.0,160,66,78,93,81
2025-02-25 18:07:03.082,2547.0,-4125.0,1562.0,242.0,63.0,-103.0,161,64,77,91,83
2025-02-25 18:07:03.084,2315.0,-3699.0,1491.0,192.0,67.0,-18.0,158,63,76,89,80
2025-02-25 18:07:03.086,2232.0,-3579.0,1288.0,59.0,77.0,11.0,160,64,75,91,83
2025-02-25 18:07:03.090,1886.0,-3092.0,755.0,-6.0,127.0,64.0,160,63,74,91,82
2025-02-25 18:07:03.094,1645.0,-2946.0,363.0,-38.0,87.0,94.0,159,62,73,92,84
2025-02-25 18:07:03.098,1348.0,-2839.0,67.0,-101.0,58.0,125.0,158,62,68,91,82
2025-02-25 18:07:03.106,1136.0,-2743.0,-172.0,-119.0,13.0,128.0,162,67,73,95,85
2025-02-25 18:07:03.111,869.0,-2466.0,-215.0,-138.0,-15.0,149.0,161,65,72,94,84
2025-02-25 18:07:03.115,640.0,-2538.0,-156.0,-147.0,-35.0,164.0,159,63,73,92,82
2025-02-25 18:07:03.119,676.0,-2282.0,-168.0,-152.0,-32.0,178.0,158,63,73,93,82
2025-02-25 18:07:03.127,540.0,-2297.0,13.0,-150.0,-21.0,189.0,160,64,73,92,83
2025-02-25 18:07:03.131,556.0,-2234.0,57.0,-129.0,-23.0,192.0,160,65,73,94,83
2025-02-25 18:07:03.135,538.0,-2049.0,174.0,-108.0,-37.0,196.0,160,65,76,92,80
2025-02-25 18:07:03.140,566.0,-1834.0,252.0,-107.0,-28.0,202.0,159,62,73,92,81
2025-02-25 18:07:03.147,561.0,-1671.0,354.0,-99.0,-25.0,202.0,161,64,75,92,82
2025-02-25 18:07:03.151,550.0,-1608.0,400.0,-95.0,-32.0,202.0,161,65,75,94,84
2025-02-25 18:07:03.156,439.0,-1449.0,404.0,-103.0,-37.0,205.0,161,67,79,93,83
2025-02-25 18:07:03.163,408.0,-1376.0,407.0,-108.0,-32.0,213.0,160,66,74,93,82
2025-02-25 18:07:03.168,296.0,-1298.0,337.0,-114.0,-36.0,222.0,158,63,74,91,80
2025-02-25 18:07:03.172,304.0,-1305.0,341.0,-130.0,-33.0,224.0,159,65,77,93,82
2025-02-25 18:07:03.176,266.0,-1171.0,381.0,-141.0,-20.0,228.0,160,66,73,94,82
2025-02-25 18:07:03.184,163.0,-1154.0,348.0,-134.0,-12.0,232.0,160,67,73,93,82
2025-02-25 18:07:03.188,181.0,-1013.0,368.0,-140.0,-5.0,231.0,160,64,74,91,83
2025-02-25 18:07:03.192,67.0,-933.0,334.0,-127.0,7.0,231.0,158,63,71,92,81
2025-02-25 18:07:03.197,-42.0,-858.0,355.0,-124.0,1.0,234.0,161,65,76,95,84
2025-02-25 18:07:03.205,-158.0,-737.0,296.0,-115.0,-8.0,234.0,158,65,75,94,83
2025-02-25 18:07:03.209,-250.0,-648.0,283.0,-87.0,-8.0,233.0,160,64,73,92,81
2025-02-25 18:07:03.213,-306.0,-591.0,286.0,-77.0,2.0,229.0,160,64,75,94,83
2025-02-25 18:07:03.217,-383.0,-416.0,271.0,-68.0,13.0,223.0,162,66,75,94,83
2025-02-25 18:07:03.222,-437.0,-341.0,272.0,-55.0,14.0,215.0,160,66,73,92,82
2025-02-25 18:07:03.229,-473.0,-303.0,251.0,-54.0,17.0,211.0,160,66,77,93,82
2025-02-25 18:07:03.233,-515.0,-204.0,229.0,-48.0,24.0,200.0,161,65,76,95,85
2025-02-25 18:07:03.238,-595.0,-127.0,187.0,-45.0,34.0,189.0,160,65,74,94,83
2025-02-25 18:07:03.242,-587.0,-101.0,185.0,-43.0,35.0,184.0,159,66,76,94,82
2025-02-25 18:07:03.250,-662.0,-53.0,152.0,-47.0,36.0,173.0,159,67,72,97,85
2025-02-25 18:07:03.254,-736.0,-42.0,108.0,-47.0,41.0,163.0,166,67,77,94,82
2025-02-25 18:07:03.258,-735.0,-19.0,85.0,-57.0,42.0,154.0,159,65,76,94,82
2025-02-25 18:07:03.262,-731.0,-28.0,51.0,-62.0,49.0,149.0,161,68,77,95,84
2025-02-25 18:07:03.266,-817.0,-26.0,50.0,-66.0,50.0,140.0,161,66,77,95,84
2025-02-25 18:07:03.275,-795.0,-16.0,-5.0,-71.0,50.0,132.0,159,65,74,94,82
2025-02-25 18:07:03.279,-848.0,-70.0,-32.0,-69.0,51.0,128.0,156,67,77,94,85
2025-02-25 18:07:03.283,-892.0,-41.0,-70.0,-70.0,48.0,123.0,160,66,79,96,86
2025-02-25 18:07:03.287,-924.0,-56.0,-89.0,-68.0,47.0,118.0,161,65,73,95,82
2025-02-25 18:07:03.292,-895.0,4.0,-136.0,-69.0,45.0,113.0,162,67,74,98,81
2025-02-25 18:07:03.299,-928.0,21.0,-122.0,-69.0,44.0,104.0,160,67,76,96,84
2025-02-25 18:07:03.304,-921.0,104.0,-115.0,-69.0,42.0,91.0,160,66,77,95,82
2025-02-25 18:07:03.308,-935.0,127.0,-109.0,-63.0,36.0,84.0,158,65,75,94,81
2025-02-25 18:07:03.312,-915.0,188.0,-114.0,-58.0,35.0,69.0,160,66,75,96,84
2025-02-25 18:07:03.320,-947.0,210.0,-107.0,-57.0,31.0,57.0,160,66,75,94,83
2025-02-25 18:07:03.324,-950.0,241.0,-92.0,-60.0,28.0,52.0,159,66,76,94,82
2025-02-25 18:07:03.328,-961.0,261.0,-105.0,-55.0,25.0,43.0,162,68,75,97,84
2025-02-25 18:07:03.332,-946.0,315.0,-81.0,-52.0,27.0,31.0,161,66,77,96,81
2025-02-25 18:07:03.336,-959.0,351.0,-49.0,-46.0,27.0,24.0,159,66,78,96,82
2025-02-25 18:07:03.341,-986.0,389.0,-62.0,-39.0,28.0,8.0,160,67,77,97,85
2025-02-25 18:07:03.348,-1023.0,465.0,-55.0,-33.0,32.0,-7.0,160,69,77,96,86
2025-02-25 18:07:03.353,-1038.0,520.0,-103.0,-24.0,33.0,-20.0,159,65,78,95,83
2025-02-25 18:07:03.357,-1087.0,576.0,-100.0,-18.0,36.0,-25.0,162,68,76,97,84
2025-02-25 18:07:03.361,-1144.0,645.0,-146.0,-13.0,38.0,-39.0,161,68,78,96,85
2025-02-25 18:07:03.369,-1194.0,732.0,-181.0,-3.0,39.0,-56.0,160,68,75,95,82
2025-02-25 18:07:03.373,-1245.0,758.0,-215.0,10.0,41.0,-66.0,159,70,79,98,87
2025-02-25 18:07:03.377,-1310.0,846.0,-243.0,28.0,41.0,-88.0,159,68,79,98,84
2025-02-25 18:07:03.382,-1385.0,971.0,-296.0,38.0,43.0,-107.0,157,67,78,96,84
2025-02-25 18:07:03.389,-1413.0,1020.0,-283.0,59.0,42.0,-118.0,159,68,78,96,83
2025-02-25 18:07:03.393,-1418.0,1078.0,-259.0,84.0,37.0,-144.0,160,69,77,97,87
2025-02-25 18:07:03.398,-1383.0,1076.0,-240.0,110.0,36.0,-174.0,160,67,80,99,83
2025-02-25 18:07:03.405,-1295.0,1049.0,-236.0,124.0,41.0,-204.0,160,71,78,96,83
2025-02-25 18:07:03.410,-1250.0,971.0,-222.0,147.0,41.0,-232.0,158,67,76,96,84
2025-02-25 18:07:03.414,-1099.0,937.0,-200.0,165.0,41.0,-246.0,157,67,76,95,82
2025-02-25 18:07:03.418,-956.0,851.0,-183.0,175.0,35.0,-274.0,159,68,77,98,85
2025-02-25 18:07:03.426,-755.0,820.0,-163.0,179.0,21.0,-307.0,160,69,79,99,86
2025-02-25 18:07:03.430,-659.0,791.0,-102.0,175.0,12.0,-343.0,157,67,77,97,85
2025-02-25 18:07:03.434,-399.0,785.0,-44.0,162.0,-8.0,-362.0,155,67,76,95,84
2025-02-25 18:07:03.439,-74.0,673.0,12.0,134.0,-30.0,-401.0,159,68,77,98,86
2025-02-25 18:07:03.446,276.0,473.0,56.0,117.0,-50.0,-436.0,160,71,81,101,89
2025-02-25 18:07:03.450,475.0,41.0,123.0,76.0,-59.0,-459.0,157,68,78,96,84
2025-02-25 18:07:03.455,838.0,-306.0,154.0,44.0,-75.0,-462.0,159,67,78,99,87
2025-02-25 18:07:03.459,1097.0,-1071.0,201.0,34.0,-84.0,-454.0,160,70,77,98,85
2025-02-25 18:07:03.467,1258.0,-1924.0,385.0,41.0,-95.0,-423.0,160,70,80,94,86
2025-02-25 18:07:03.471,1651.0,-2374.0,594.0,73.0,-131.0,-405.0,157,66,78,98,86
2025-02-25 18:07:03.475,1952.0,-3315.0,901.0,108.0,-120.0,-341.0,159,68,78,100,86
2025-02-25 18:07:03.483,2426.0,-4051.0,1003.0,149.0,-48.0,-273.0,160,66,80,97,86
2025-02-25 18:07:03.487,2818.0,-4382.0,1330.0,144.0,11.0,-202.0,161,62,82,98,86
2025-02-25 18:07:03.492,2969.0,-4678.0,1217.0,196.0,83.0,-104.0,160,67,81,93,87
2025-02-25 18:07:03.496,2702.0,-4794.0,1255.0,175.0,88.0,-24.0,157,64,87,96,86
2025-02-25 18:07:03.504,2510.0,-4643.0,855.0,122.0,150.0,29.0,161,69,84,98,88
2025-02-25 18:07:03.508,2312.0,-4028.0,824.0,87.0,153.0,84.0,161,69,83,98,88
2025-02-25 18:07:03.512,2065.0,-3615.0,606.0,18.0,155.0,136.0,160,68,80,97,88
2025-02-25 18:07:03.516,1831.0,-2971.0,-87.0,16.0,137.0,146.0,158,65,76,96,86
2025-02-25 18:07:03.524,1368.0,-2772.0,-310.0,-24.0,95.0,149.0,160,71,80,98,88
2025-02-25 18:07:03.528,965.0,-2461.0,-379.0,-95.0,43.0,169.0,159,66,77,100,89
2025-02-25 18:07:03.533,607.0,-2094.0,-591.0,-109.0,-24.0,174.0,160,71,79,100,88
2025-02-25 18:07:03.540,481.0,-2086.0,-645.0,-150.0,-45.0,182.0,157,66,77,98,84
2025-02-25 18:07:03.545,502.0,-2003.0,-645.0,-187.0,-50.0,184.0,157,70,77,96,86
2025-02-25 18:07:03.549,362.0,-1958.0,-705.0,-194.0,-24.0,188.0,159,68,76,100,86
2025-02-25 18:07:03.553,251.0,-1981.0,-655.0,-196.0,2.0,192.0,161,69,78,101,88
2025-02-25 18:07:03.561,265.0,-1915.0,-486.0,-198.0,-5.0,199.0,159,68,79,102,87
2025-02-25 18:07:03.565,187.0,-1840.0,-410.0,-185.0,-22.0,208.0,158,68,79,99,87
2025-02-25 18:07:03.569,202.0,-1639.0,-314.0,-169.0,-47.0,211.0,158,67,76,97,88
2025-02-25 18:07:03.578,234.0,-1563.0,-123.0,-140.0,-81.0,213.0,159,68,78,100,87
2025-02-25 18:07:03.582,247.0,-1345.0,-11.0,-107.0,-114.0,204.0,158,65,78,102,87
2025-02-25 18:07:03.586,194.0,-1252.0,90.0,-92.0,-121.0,204.0,159,67,84,100,89
2025-02-25 18:07:03.594,117.0,-1161.0,148.0,-76.0,-114.0,210.0,157,66,76,99,86
2025-02-25 18:07:03.599,127.0,-1078.0,243.0,-84.0,-93.0,216.0,155,68,77,93,85
2025-02-25 18:07:03.603,92.0,-1039.0,287.0,-98.0,-90.0,226.0,158,68,77,99,88
2025-02-25 18:07:03.607,-13.0,-978.0,323.0,-114.0,-66.0,235.0,159,68,73,100,87
2025-02-25 18:07:03.614,-121.0,-768.0,266.0,-126.0,-53.0,242.0,157,67,76,100,86
2025-02-25 18:07:03.619,-125.0,-710.0,239.0,-120.0,-33.0,243.0,154,65,79,99,85
2025-02-25 18:07:03.623,-186.0,-627.0,175.0,-118.0,-10.0,244.0,158,70,78,101,86
2025-02-25 18:07:03.627,-320.0,-542.0,146.0,-104.0,-6.0,242.0,159,68,78,101,87
2025-02-25 18:07:03.635,-442.0,-435.0,123.0,-101.0,-21.0,241.0,156,66,75,100,86
2025-02-25 18:07:03.639,-472.0,-382.0,69.0,-94.0,-26.0,240.0,158,67,78,101,84
2025-02-25 18:07:03.643,-545.0,-327.0,49.0,-83.0,-25.0,239.0,157,66,76,101,85
2025-02-25 18:07:03.651,-593.0,-213.0,-1.0,-62.0,-23.0,230.0,157,68,79,102,87
2025-02-25 18:07:03.655,-604.0,-146.0,20.0,-58.0,-18.0,219.0,158,67,77,101,87
2025-02-25 18:07:03.660,-646.0,-30.0,35.0,-59.0,-17.0,207.0,155,66,76,100,85
2025-02-25 18:07:03.664,-705.0,-21.0,15.0,-64.0,-16.0,201.0,157,65,78,99,87
2025-02-25 18:07:03.669,-743.0,92.0,-21.0,-69.0,-14.0,188.0,159,70,78,101,87
2025-02-25 18:07:03.676,-796.0,131.0,-63.0,-76.0,-16.0,176.0,156,66,75,101,86
2025-02-25 18:07:03.680,-832.0,252.0,-149.0,-81.0,-18.0,164.0,158,66,78,99,83
2025-02-25 18:07:03.684,-900.0,258.0,-138.0,-90.0,-24.0,158.0,159,69,81,105,88
2025-02-25 18:07:03.692,-943.0,278.0,-160.0,-96.0,-32.0,145.0,155,66,78,103,87
2025-02-25 18:07:03.697,-959.0,337.0,-173.0,-97.0,-36.0,132.0,156,68,77,103,87
2025-02-25 18:07:03.700,-964.0,336.0,-217.0,-109.0,-37.0,118.0,156,67,75,101,85
2025-02-25 18:07:03.705,-1000.0,419.0,-184.0,-124.0,-43.0,112.0,157,67,77,102,87
2025-02-25 18:07:03.713,-1030.0,372.0,-190.0,-135.0,-43.0,101.0,157,67,79,105,89
2025-02-25 18:07:03.717,-993.0,452.0,-194.0,-136.0,-50.0,88.0,156,65,79,105,88
2025-02-25 18:07:03.721,-969.0,380.0,-219.0,-134.0,-56.0,78.0,156,69,81,104,88
2025-02-25 18:07:03.729,-1059.0,476.0,-206.0,-127.0,-62.0,61.0,156,69,85,105,87
2025-02-25 18:07:03.733,-1130.0,421.0,-141.0,-96.0,-62.0,53.0,152,69,78,104,87
2025-02-25 18:07:03.738,-1080.0,464.0,-104.0,-59.0,-63.0,37.0,155,65,79,106,88
2025-02-25 18:07:03.742,-1068.0,400.0,-62.0,-46.0,-65.0,25.0,155,69,79,106,89
2025-02-25 18:07:03.750,-1081.0,384.0,-82.0,-14.0,-66.0,12.0,153,67,83,107,90
2025-02-25 18:07:03.754,-1031.0,370.0,-50.0,7.0,-76.0,6.0,152,68,79,109,88
2025-02-25 18:07:03.758,-1018.0,290.0,-298.0,-5.0,-91.0,-16.0,154,71,81,107,89
2025-02-25 18:07:03.762,-1139.0,384.0,263.0,11.0,-75.0,-27.0,154,72,80,109,92
2025-02-25 18:07:03.770,-1073.0,441.0,179.0,68.0,-64.0,-40.0,153,70,81,110,92
2025-02-25 18:07:03.774,-1081.0,494.0,192.0,132.0,-42.0,-40.0,152,72,86,112,92
2025-02-25 18:07:03.778,-1070.0,505.0,176.0,165.0,-27.0,-50.0,153,71,83,113,94
2025-02-25 18:07:03.782,-1123.0,551.0,121.0,181.0,-13.0,-58.0,153,72,83,112,94
2025-02-25 18:07:03.791,-1129.0,626.0,111.0,207.0,-9.0,-67.0,152,72,84,112,93
2025-02-25 18:07:03.795,-1230.0,701.0,103.0,227.0,-2.0,-73.0,148,71,82,112,93
2025-02-25 18:07:03.799,-1346.0,789.0,112.0,249.0,7.0,-83.0,151,74,84,115,95
2025-02-25 18:07:03.804,-1363.0,857.0,157.0,260.0,16.0,-92.0,152,74,87,114,95
2025-02-25 18:07:03.811,-1349.0,901.0,220.0,286.0,24.0,-100.0,150,71,86,113,93
2025-02-25 18:07:03.816,-1288.0,922.0,144.0,311.0,39.0,-104.0,148,72,83,111,91
2025-02-25 18:07:03.820,-1105.0,851.0,142.0,340.0,53.0,-124.0,150,74,85,114,94
2025-02-25 18:07:03.828,-1034.0,834.0,69.0,352.0,66.0,-151.0,150,75,85,118,97
2025-02-25 18:07:03.832,-960.0,828.0,37.0,377.0,72.0,-178.0,146,72,83,114,92
2025-02-25 18:07:03.836,-942.0,779.0,-109.0,416.0,77.0,-194.0,142,69,81,111,88
2025-02-25 18:07:03.840,-922.0,624.0,-120.0,469.0,74.0,-226.0,143,71,85,114,91
2025-02-25 18:07:03.848,-825.0,540.0,-288.0,492.0,56.0,-258.0,144,73,84,114,92
2025-02-25 18:07:03.852,-744.0,650.0,-380.0,523.0,26.0,-282.0,139,70,83,111,88
2025-02-25 18:07:03.856,-734.0,742.0,-345.0,533.0,8.0,-312.0,137,71,81,109,86
2025-02-25 18:07:03.861,-603.0,694.0,-238.0,541.0,-29.0,-330.0,137,73,81,110,88
2025-02-25 18:07:03.869,-319.0,847.0,-85.0,542.0,-65.0,-368.0,136,76,84,106,87
2025-02-25 18:07:03.873,67.0,861.0,61.0,535.0,-104.0,-408.0,135,76,85,109,87
2025-02-25 18:07:03.877,277.0,703.0,283.0,483.0,-123.0,-441.0,130,72,82,104,83
2025-02-25 18:07:03.882,426.0,582.0,652.0,420.0,-159.0,-454.0,130,73,80,104,85
2025-02-25 18:07:03.889,764.0,324.0,827.0,367.0,-189.0,-462.0,129,74,85,103,85
2025-02-25 18:07:03.893,1066.0,-165.0,1105.0,337.0,-217.0,-448.0,127,73,80,101,84
2025-02-25 18:07:03.898,1363.0,-753.0,1523.0,280.0,-229.0,-406.0,122,71,79,98,82
2025-02-25 18:07:03.906,1561.0,-1495.0,1995.0,235.0,-224.0,-360.0,123,71,76,97,81
2025-02-25 18:07:03.910,1973.0,-1904.0,2528.0,224.0,-191.0,-330.0,121,71,78,97,83
2025-02-25 18:07:03.914,2268.0,-2625.0,2787.0,239.0,-137.0,-271.0,124,71,80,97,82
2025-02-25 18:07:03.922,2370.0,-3084.0,3028.0,259.0,-64.0,-216.0,120,70,81,97,83
2025-02-25 18:07:03.926,2311.0,-3340.0,3220.0,258.0,15.0,-167.0,123,74,83,95,83
2025-02-25 18:07:03.930,2133.0,-3160.0,3165.0,241.0,84.0,-131.0,118,69,80,91,79
2025-02-25 18:07:03.938,1962.0,-2931.0,2939.0,174.0,116.0,-98.0,115,68,79,91,77
2025-02-25 18:07:03.942,1647.0,-2704.0,2680.0,66.0,161.0,-82.0,115,63,78,88,75
2025-02-25 18:07:03.946,1366.0,-2465.0,2444.0,-73.0,186.0,-61.0,119,70,90,91,77
2025-02-25 18:07:03.954,1207.0,-2334.0,1835.0,-147.0,181.0,-39.0,117,69,84,87,74
2025-02-25 18:07:03.958,873.0,-2268.0,1211.0,-264.0,144.0,-29.0,119,66,83,89,78
2025-02-25 18:07:03.963,765.0,-2323.0,768.0,-360.0,124.0,-5.0,115,64,81,86,73
2025-02-25 18:07:03.967,659.0,-2465.0,459.0,-425.0,87.0,9.0,117,67,80,87,74
2025-02-25 18:07:03.975,600.0,-2707.0,386.0,-441.0,61.0,48.0,116,67,83,89,77
2025-02-25 18:07:03.979,471.0,-2912.0,231.0,-435.0,33.0,97.0,112,66,77,89,71
2025-02-25 18:07:03.984,455.0,-3014.0,165.0,-391.0,21.0,120.0,114,66,78,89,74
2025-02-25 18:07:03.987,468.0,-2966.0,274.0,-331.0,0.0,159.0,115,62,77,91,77
2025-02-25 18:07:03.995,427.0,-2713.0,347.0,-300.0,-15.0,188.0,117,66,75,90,75
2025-02-25 18:07:03.999,400.0,-2353.0,447.0,-246.0,-21.0,202.0,114,65,73,90,74
2025-02-25 18:07:04.003,436.0,-1968.0,625.0,-211.0,-24.0,205.0,112,67,75,91,74
2025-02-25 18:07:04.008,448.0,-1777.0,763.0,-196.0,-18.0,207.0,115,69,75,89,77
2025-02-25 18:07:04.015,417.0,-1410.0,806.0,-203.0,-11.0,203.0,117,68,76,92,76
2025-02-25 18:07:04.020,307.0,-1159.0,870.0,-211.0,-5.0,196.0,115,64,77,92,76
2025-02-25 18:07:04.024,257.0,-965.0,872.0,-231.0,-2.0,187.0,114,65,74,90,74
2025-02-25 18:07:04.028,241.0,-927.0,837.0,-251.0,5.0,181.0,116,67,79,94,77
2025-02-25 18:07:04.036,167.0,-831.0,810.0,-262.0,9.0,169.0,117,67,76,92,77
2025-02-25 18:07:04.040,124.0,-796.0,681.0,-274.0,11.0,156.0,113,66,77,89,73
2025-02-25 18:07:04.044,-12.0,-787.0,533.0,-284.0,10.0,152.0,115,66,79,90,74
2025-02-25 18:07:04.049,-102.0,-780.0,461.0,-289.0,6.0,146.0,117,69,82,94,77
2025-02-25 18:07:04.056,-204.0,-744.0,316.0,-288.0,-4.0,143.0,113,67,78,92,75
2025-02-25 18:07:04.061,-238.0,-742.0,205.0,-283.0,-9.0,145.0,113,64,75,90,75
2025-02-25 18:07:04.065,-335.0,-744.0,105.0,-272.0,-20.0,147.0,116,71,79,95,79
2025-02-25 18:07:04.069,-412.0,-762.0,89.0,-253.0,-30.0,153.0,116,67,73,92,75
2025-02-25 18:07:04.077,-490.0,-709.0,47.0,-242.0,-39.0,158.0,115,67,75,94,74
2025-02-25 18:07:04.081,-519.0,-652.0,52.0,-220.0,-41.0,162.0,114,64,70,90,74
2025-02-25 18:07:04.086,-543.0,-614.0,87.0,-196.0,-45.0,163.0,117,69,79,96,77
2025-02-25 18:07:04.090,-544.0,-529.0,113.0,-177.0,-43.0,166.0,115,65,74,93,76
2025-02-25 18:07:04.098,-564.0,-409.0,130.0,-168.0,-37.0,164.0,117,69,75,91,75
2025-02-25 18:07:04.102,-580.0,-335.0,129.0,-155.0,-33.0,163.0,113,66,74,92,73
2025-02-25 18:07:04.107,-617.0,-291.0,113.0,-146.0,-27.0,161.0,115,69,78,96,76
2025-02-25 18:07:04.111,-633.0,-239.0,110.0,-135.0,-19.0,155.0,116,68,79,95,77
2025-02-25 18:07:04.118,-649.0,-187.0,86.0,-130.0,-12.0,146.0,115,69,75,93,74
2025-02-25 18:07:04.123,-671.0,-184.0,57.0,-117.0,-8.0,138.0,115,67,73,93,74
2025-02-25 18:07:04.127,-735.0,-148.0,-26.0,-103.0,-2.0,133.0,116,67,76,93,76
2025-02-25 18:07:04.131,-846.0,-120.0,-56.0,-85.0,2.0,124.0,115,68,77,95,77
2025-02-25 18:07:04.139,-896.0,-71.0,-110.0,-76.0,4.0,114.0,109,66,75,95,76
2025-02-25 18:07:04.143,-924.0,24.0,-147.0,-56.0,5.0,108.0,118,66,72,91,74
2025-02-25 18:07:04.147,-977.0,68.0,-154.0,-43.0,7.0,97.0,117,67,74,96,76
2025-02-25 18:07:04.152,-1014.0,184.0,-173.0,-39.0,8.0,87.0,115,70,77,94,78
2025-02-25 18:07:04.156,-1006.0,242.0,-159.0,-32.0,9.0,76.0,114,67,72,92,76
2025-02-25 18:07:04.164,-1023.0,279.0,-152.0,-30.0,11.0,71.0,116,69,75,95,76
2025-02-25 18:07:04.168,-1033.0,353.0,-149.0,-29.0,11.0,60.0,118,69,75,94,76
2025-02-25 18:07:04.172,-1048.0,377.0,-142.0,-27.0,12.0,50.0,114,66,72,94,75
2025-02-25 18:07:04.176,-1068.0,378.0,-142.0,-22.0,12.0,45.0,117,65,77,95,76
2025-02-25 18:07:04.184,-1080.0,386.0,-125.0,-15.0,13.0,34.0,117,67,75,95,77
2025-02-25 18:07:04.188,-1091.0,380.0,-126.0,-10.0,14.0,23.0,116,72,74,94,76
2025-02-25 18:07:04.193,-1105.0,408.0,-139.0,-2.0,15.0,18.0,116,66,72,93,76
2025-02-25 18:07:04.196,-1118.0,470.0,-134.0,4.0,18.0,9.0,118,70,72,95,76
2025-02-25 18:07:04.200,-1160.0,568.0,-149.0,7.0,21.0,-2.0,117,67,75,92,75
2025-02-25 18:07:04.208,-1185.0,629.0,-167.0,12.0,24.0,-7.0,118,71,76,94,75
2025-02-25 18:07:04.212,-1235.0,735.0,-176.0,14.0,28.0,-21.0,118,68,75,96,77
2025-02-25 18:07:04.216,-1316.0,872.0,-220.0,15.0,33.0,-36.0,117,66,75,95,77
2025-02-25 18:07:04.221,-1355.0,1012.0,-248.0,15.0,35.0,-51.0,116,68,73,93,76
2025-02-25 18:07:04.228,-1440.0,1074.0,-275.0,21.0,40.0,-59.0,119,70,76,96,77
2025-02-25 18:07:04.233,-1492.0,1169.0,-283.0,39.0,45.0,-81.0,116,69,76,96,78
2025-02-25 18:07:04.237,-1474.0,1246.0,-298.0,52.0,52.0,-113.0,121,67,73,96,73
2025-02-25 18:07:04.242,-1470.0,1276.0,-296.0,86.0,55.0,-149.0,117,66,72,94,75
2025-02-25 18:07:04.249,-1431.0,1220.0,-297.0,128.0,59.0,-169.0,118,74,76,96,76
2025-02-25 18:07:04.254,-1311.0,1161.0,-305.0,170.0,59.0,-205.0,118,70,74,94,79
2025-02-25 18:07:04.258,-1223.0,1067.0,-279.0,191.0,54.0,-242.0,116,67,76,95,76
2025-02-25 18:07:04.266,-1083.0,1031.0,-255.0,224.0,49.0,-280.0,117,68,75,96,76
2025-02-25 18:07:04.270,-1005.0,979.0,-243.0,245.0,34.0,-321.0,117,66,75,96,74
2025-02-25 18:07:04.274,-868.0,955.0,-205.0,249.0,9.0,-343.0,117,68,73,95,77
2025-02-25 18:07:04.278,-669.0,934.0,-167.0,240.0,-19.0,-387.0,119,67,74,96,78
2025-02-25 18:07:04.286,-401.0,910.0,-72.0,231.0,-51.0,-433.0,117,67,73,95,76
2025-02-25 18:07:04.290,-272.0,767.0,60.0,204.0,-68.0,-477.0,116,67,74,97,78
2025-02-25 18:07:04.294,107.0,612.0,255.0,166.0,-95.0,-495.0,118,67,72,96,78
2025-02-25 18:07:04.299,597.0,114.0,350.0,149.0,-115.0,-509.0,119,68,73,97,78
2025-02-25 18:07:04.306,833.0,-605.0,515.0,139.0,-123.0,-498.0,117,66,74,97,78
2025-02-25 18:07:04.310,1283.0,-1467.0,879.0,138.0,-121.0,-486.0,118,68,75,98,78
2025-02-25 18:07:04.315,1662.0,-2115.0,1267.0,156.0,-100.0,-428.0,120,70,76,100,81
2025-02-25 18:07:04.322,2075.0,-3374.0,1410.0,217.0,-66.0,-336.0,122,69,77,100,80
2025-02-25 18:07:04.328,2481.0,-4331.0,1747.0,300.0,-17.0,-238.0,122,71,78,101,80
2025-02-25 18:07:04.332,2694.0,-4916.0,2006.0,351.0,40.0,-143.0,120,68,78,97,81
2025-02-25 18:07:04.340,2954.0,-4621.0,2158.0,413.0,80.0,-80.0,118,67,83,95,79
2025-02-25 18:07:04.344,2572.0,-4271.0,2078.0,426.0,135.0,-16.0,119,67,79,91,78
2025-02-25 18:07:04.348,2596.0,-3908.0,1935.0,383.0,188.0,-2.0,120,66,83,95,82
2025-02-25 18:07:04.353,2028.0,-3174.0,1837.0,295.0,220.0,33.0,123,69,84,92,81
2025-02-25 18:07:04.360,1713.0,-2612.0,1524.0,226.0,228.0,53.0,121,73,82,92,78
2025-02-25 18:07:04.365,1585.0,-2288.0,1254.0,92.0,225.0,58.0,119,67,81,94,80
2025-02-25 18:07:04.369,1240.0,-2105.0,871.0,-46.0,201.0,61.0,123,66,78,96,78
2025-02-25 18:07:04.373,946.0,-1909.0,640.0,-158.0,167.0,72.0,121,69,78,98,82
2025-02-25 18:07:04.380,801.0,-1917.0,304.0,-198.0,127.0,83.0,122,69,77,97,80
2025-02-25 18:07:04.384,665.0,-2013.0,-4.0,-249.0,108.0,102.0,124,67,71,98,80
2025-02-25 18:07:04.389,559.0,-2168.0,-239.0,-261.0,69.0,112.0,122,68,71,99,80
2025-02-25 18:07:04.397,503.0,-2439.0,-197.0,-238.0,39.0,139.0,122,69,73,101,80
2025-02-25 18:07:04.401,379.0,-2454.0,-343.0,-214.0,9.0,161.0,122,68,73,98,79
2025-02-25 18:07:04.405,399.0,-2389.0,-290.0,-158.0,-3.0,180.0,121,66,71,100,79
2025-02-25 18:07:04.409,325.0,-2139.0,-204.0,-109.0,-29.0,188.0,124,66,73,98,79
2025-02-25 18:07:04.417,325.0,-1993.0,-21.0,-70.0,-45.0,201.0,125,71,75,98,81
2025-02-25 18:07:04.421,335.0,-1723.0,58.0,-54.0,-54.0,211.0,124,66,75,96,70
2025-02-25 18:07:04.425,336.0,-1320.0,274.0,-46.0,-53.0,215.0,124,65,76,96,77
2025-02-25 18:07:04.430,324.0,-1028.0,442.0,-46.0,-42.0,212.0,124,66,76,96,78
2025-02-25 18:07:04.441,285.0,-915.0,538.0,-60.0,-28.0,210.0,125,66,79,97,79
2025-02-25 18:07:04.442,182.0,-779.0,534.0,-68.0,-11.0,209.0,126,67,76,96,79
2025-02-25 18:07:04.446,143.0,-681.0,527.0,-90.0,-7.0,210.0,128,66,80,97,77
2025-02-25 18:07:04.450,47.0,-689.0,506.0,-106.0,3.0,210.0,128,64,78,97,78
2025-02-25 18:07:04.455,4.0,-731.0,475.0,-115.0,15.0,213.0,129,68,77,95,78
2025-02-25 18:07:04.463,-56.0,-743.0,347.0,-111.0,20.0,216.0,128,65,79,95,77
2025-02-25 18:07:04.467,-126.0,-745.0,272.0,-97.0,26.0,219.0,134,67,79,95,80
2025-02-25 18:07:04.471,-209.0,-790.0,202.0,-75.0,29.0,225.0,134,68,80,98,79
2025-02-25 18:07:04.475,-279.0,-652.0,68.0,-58.0,29.0,229.0,132,68,77,96,80
2025-02-25 18:07:04.483,-373.0,-636.0,-34.0,-28.0,29.0,232.0,132,70,78,97,80
2025-02-25 18:07:04.487,-465.0,-526.0,-21.0,-3.0,30.0,233.0,136,70,82,100,81
2025-02-25 18:07:04.492,-470.0,-403.0,-34.0,6.0,37.0,229.0,133,69,79,97,82
2025-02-25 18:07:04.498,-470.0,-258.0,-56.0,37.0,44.0,220.0,131,70,77,96,79
2025-02-25 18:07:04.503,-614.0,-222.0,-144.0,62.0,47.0,213.0,134,68,78,100,83
2025-02-25 18:07:04.508,-714.0,-73.0,-83.0,70.0,55.0,199.0,134,72,83,103,86
2025-02-25 18:07:04.511,-661.0,-33.0,29.0,81.0,62.0,186.0,133,67,77,101,81
2025-02-25 18:07:04.516,-686.0,100.0,-239.0,66.0,57.0,179.0,134,67,78,101,81
2025-02-25 18:07:04.521,-654.0,295.0,-250.0,67.0,59.0,164.0,134,68,78,101,84
2025-02-25 18:07:04.527,-591.0,198.0,89.0,72.0,80.0,147.0,134,69,81,104,86
2025-02-25 18:07:04.532,-674.0,131.0,-323.0,65.0,64.0,132.0,134,67,79,101,85
2025-02-25 18:07:04.536,-881.0,107.0,-60.0,25.0,57.0,112.0,138,68,80,104,84
2025-02-25 18:07:04.540,-648.0,-77.0,-49.0,22.0,67.0,114.0,134,68,80,103,86
2025-02-25 18:07:04.548,-801.0,-131.0,-223.0,-7.0,61.0,104.0,136,68,81,103,85
2025-02-25 18:07:04.552,-841.0,-152.0,-167.0,-25.0,56.0,101.0,135,66,79,105,85
2025-02-25 18:07:04.556,-555.0,-194.0,-116.0,-2.0,69.0,102.0,134,65,77,103,84
2025-02-25 18:07:04.561,-907.0,-272.0,-514.0,-12.0,43.0,97.0,134,66,78,102,83
2025-02-25 18:07:04.568,-861.0,-358.0,-113.0,-31.0,42.0,106.0,136,65,78,101,83
2025-02-25 18:07:04.572,-616.0,-360.0,-328.0,-12.0,52.0,110.0,133,65,80,100,84
2025-02-25 18:07:04.577,-842.0,-324.0,-359.0,-24.0,41.0,108.0,135,65,79,100,85
2025-02-25 18:07:04.581,-623.0,-266.0,-138.0,-11.0,47.0,108.0,133,67,77,98,84
2025-02-25 18:07:04.589,-648.0,-300.0,-359.0,31.0,48.0,109.0,135,67,79,99,80
2025-02-25 18:07:04.593,-860.0,-252.0,-365.0,54.0,43.0,104.0,136,70,80,97,83
2025-02-25 18:07:04.598,-796.0,-345.0,-337.0,84.0,36.0,95.0,133,79,79,96,80
2025-02-25 18:07:04.602,-750.0,-280.0,-372.0,98.0,30.0,97.0,134,78,75,94,83
2025-02-25 18:07:04.610,-815.0,-305.0,-347.0,132.0,25.0,94.0,132,82,79,93,84
2025-02-25 18:07:04.614,-835.0,-305.0,-375.0,172.0,25.0,91.0,130,91,78,92,84
2025-02-25 18:07:04.618,-824.0,-215.0,-476.0,198.0,22.0,74.0,121,95,78,89,83
2025-02-25 18:07:04.623,-886.0,-308.0,-381.0,238.0,27.0,72.0,126,99,78,89,83
2025-02-25 18:07:04.627,-877.0,-267.0,-578.0,279.0,35.0,70.0,128,103,83,90,82
2025-02-25 18:07:04.635,-896.0,-88.0,-613.0,325.0,36.0,63.0,124,104,78,89,84
2025-02-25 18:07:04.639,-926.0,-133.0,-671.0,345.0,46.0,69.0,120,104,77,88,82
2025-02-25 18:07:04.643,-833.0,-213.0,-739.0,390.0,49.0,72.0,117,103,75,87,80
2025-02-25 18:07:04.650,-990.0,-223.0,-956.0,421.0,52.0,75.0,119,106,71,85,81
2025-02-25 18:07:04.655,-1036.0,16.0,-970.0,421.0,46.0,71.0,118,105,76,86,82
2025-02-25 18:07:04.659,-1004.0,372.0,-1201.0,439.0,37.0,59.0,121,103,72,85,79
2025-02-25 18:07:04.663,-1124.0,418.0,-1373.0,436.0,16.0,53.0,112,102,73,84,79
2025-02-25 18:07:04.671,-1111.0,648.0,-1375.0,443.0,-12.0,33.0,109,108,74,82,80
2025-02-25 18:07:04.675,-1251.0,651.0,-1279.0,457.0,-38.0,18.0,110,106,73,84,79
2025-02-25 18:07:04.679,-1318.0,593.0,-1439.0,460.0,-72.0,9.0,110,109,69,82,77
2025-02-25 18:07:04.684,-1315.0,611.0,-1587.0,458.0,-93.0,-13.0,108,108,70,80,75
2025-02-25 18:07:04.692,-1254.0,646.0,-1693.0,436.0,-149.0,-27.0,109,109,72,81,76
2025-02-25 18:07:04.696,-1178.0,791.0,-1593.0,432.0,-206.0,-55.0,110,110,72,81,76
2025-02-25 18:07:04.701,-1165.0,715.0,-1513.0,435.0,-256.0,-73.0,108,111,70,83,77
2025-02-25 18:07:04.708,-1102.0,648.0,-1368.0,415.0,-305.0,-89.0,110,115,70,82,78
2025-02-25 18:07:04.713,-913.0,699.0,-1231.0,406.0,-358.0,-106.0,108,113,71,83,77
2025-02-25 18:07:04.717,-698.0,770.0,-970.0,391.0,-403.0,-120.0,108,114,70,81,76
2025-02-25 18:07:04.725,-580.0,737.0,-667.0,372.0,-425.0,-137.0,104,115,68,82,77
2025-02-25 18:07:04.729,-286.0,787.0,-275.0,335.0,-462.0,-148.0,99,114,69,83,78
2025-02-25 18:07:04.733,58.0,780.0,-200.0,301.0,-504.0,-170.0,101,114,71,84,80
2025-02-25 18:07:04.741,279.0,754.0,280.0,277.0,-536.0,-187.0,103,114,73,84,76
2025-02-25 18:07:04.745,561.0,731.0,824.0,272.0,-551.0,-194.0,101,117,72,82,76
2025-02-25 18:07:04.750,720.0,602.0,1282.0,247.0,-553.0,-187.0,100,117,72,83,79
2025-02-25 18:07:04.757,916.0,543.0,1639.0,231.0,-555.0,-178.0,100,118,70,84,80
2025-02-25 18:07:04.762,1153.0,429.0,1928.0,201.0,-544.0,-159.0,100,119,71,85,82
2025-02-25 18:07:04.766,1298.0,202.0,2538.0,184.0,-519.0,-138.0,99,117,72,86,82
2025-02-25 18:07:04.770,1488.0,145.0,3009.0,155.0,-480.0,-115.0,98,119,73,85,81
2025-02-25 18:07:04.778,1557.0,107.0,3453.0,109.0,-454.0,-98.0,94,117,71,83,80
2025-02-25 18:07:04.782,1729.0,21.0,3763.0,57.0,-391.0,-94.0,93,119,69,85,80
2025-02-25 18:07:04.786,1853.0,-189.0,3890.0,4.0,-319.0,-86.0,94,122,70,87,83
2025-02-25 18:07:04.794,1970.0,-529.0,4033.0,-17.0,-238.0,-80.0,92,122,73,84,81
