timestamp,ax,ay,az,gx,gy,gz,flex1,flex2,flex3,flex4,flex5,emg1,emg2,emg3
2025-02-25 18:33:09.972,-324.0,-854.0,453.0,2.0,-4.0,2.0,146,118,109,122,122
2025-02-25 18:33:09.975,-326.0,-845.0,456.0,2.0,-4.0,2.0,147,120,112,126,125
2025-02-25 18:33:09.978,-326.0,-850.0,454.0,2.0,-4.0,2.0,146,118,111,125,124
2025-02-25 18:33:09.980,-327.0,-842.0,458.0,1.0,-4.0,2.0,145,118,109,123,123
2025-02-25 18:33:09.982,-326.0,-841.0,458.0,2.0,-4.0,2.0,146,119,110,125,123
2025-02-25 18:33:09.984,-330.0,-838.0,459.0,1.0,-4.0,1.0,147,119,111,125,125
2025-02-25 18:33:09.987,-332.0,-838.0,462.0,0.0,-4.0,1.0,146,117,109,124,123
2025-02-25 18:33:09.989,-334.0,-846.0,464.0,1.0,-4.0,1.0,145,118,111,125,121
2025-02-25 18:33:09.992,-340.0,-847.0,469.0,1.0,-3.0,1.0,147,120,111,125,123
2025-02-25 18:33:09.994,-339.0,-851.0,467.0,1.0,-3.0,1.0,145,117,109,123,122
2025-02-25 18:33:09.997,-345.0,-850.0,465.0,1.0,-3.0,1.0,145,118,110,124,123
2025-02-25 18:33:09.999,-349.0,-858.0,464.0,1.0,-3.0,1.0,145,120,111,126,124
2025-02-25 18:33:10.001,-347.0,-859.0,473.0,1.0,-3.0,2.0,145,117,109,124,123
2025-02-25 18:33:10.004,-345.0,-855.0,468.0,0.0,-4.0,2.0,146,117,109,123,122
2025-02-25 18:33:10.006,-346.0,-854.0,471.0,-1.0,-4.0,2.0,147,120,110,124,124
2025-02-25 18:33:10.008,-344.0,-849.0,481.0,-1.0,-3.0,3.0,146,118,110,123,122
2025-02-25 18:33:10.011,-341.0,-850.0,479.0,-1.0,-2.0,3.0,148,120,111,124,122
2025-02-25 18:33:10.013,-327.0,-843.0,477.0,-2.0,-1.0,4.0,147,119,110,124,124
2025-02-25 18:33:10.016,-326.0,-838.0,478.0,-2.0,-1.0,4.0,145,117,109,123,123
2025-02-25 18:33:10.018,-327.0,-835.0,477.0,-3.0,0.0,4.0,147,117,111,123,124
2025-02-25 18:33:10.020,-319.0,-830.0,477.0,-2.0,0.0,4.0,147,118,110,125,123
2025-02-25 18:33:10.022,-316.0,-814.0,467.0,-3.0,0.0,4.0,145,120,109,124,124
2025-02-25 18:33:10.025,-312.0,-826.0,466.0,-2.0,1.0,4.0,146,118,110,125,124
2025-02-25 18:33:10.027,-319.0,-818.0,468.0,-2.0,1.0,3.0,148,119,112,124,123
2025-02-25 18:33:10.029,-318.0,-814.0,461.0,-2.0,1.0,2.0,146,118,110,123,123
2025-02-25 18:33:10.032,-326.0,-816.0,466.0,-2.0,1.0,2.0,146,119,111,124,125
2025-02-25 18:33:10.034,-331.0,-820.0,458.0,-1.0,2.0,1.0,146,119,111,125,124
2025-02-25 18:33:10.036,-336.0,-818.0,459.0,-1.0,2.0,1.0,146,117,109,121,124
2025-02-25 18:33:10.039,-335.0,-815.0,460.0,-1.0,2.0,0.0,145,118,110,123,122
2025-02-25 18:33:10.041,-340.0,-817.0,454.0,-1.0,2.0,0.0,147,119,111,125,123
2025-02-25 18:33:10.044,-344.0,-826.0,452.0,-1.0,2.0,0.0,146,118,109,124,122
2025-02-25 18:33:10.047,-348.0,-827.0,450.0,-1.0,2.0,0.0,146,121,109,124,124
2025-02-25 18:33:10.050,-353.0,-827.0,446.0,-2.0,1.0,-1.0,146,118,112,125,124
2025-02-25 18:33:10.052,-359.0,-832.0,452.0,-2.0,0.0,0.0,145,116,109,125,123
2025-02-25 18:33:10.054,-356.0,-834.0,445.0,-3.0,0.0,0.0,146,119,111,126,124
2025-02-25 18:33:10.056,-360.0,-835.0,446.0,-3.0,-1.0,-1.0,145,118,112,125,125
2025-02-25 18:33:10.059,-354.0,-838.0,451.0,-4.0,-1.0,0.0,145,117,110,123,125
2025-02-25 18:33:10.062,-359.0,-840.0,446.0,-5.0,-2.0,0.0,146,118,110,124,123
2025-02-25 18:33:10.064,-353.0,-840.0,449.0,-5.0,-2.0,0.0,146,119,111,123,125
2025-02-25 18:33:10.066,-351.0,-848.0,447.0,-5.0,-2.0,1.0,146,120,113,123,124
2025-02-25 18:33:10.069,-349.0,-851.0,435.0,-5.0,-3.0,0.0,144,117,110,124,123
2025-02-25 18:33:10.071,-350.0,-847.0,442.0,-5.0,-3.0,1.0,145,118,111,124,124
2025-02-25 18:33:10.073,-345.0,-847.0,442.0,-6.0,-2.0,0.0,146,120,111,125,124
2025-02-25 18:33:10.076,-341.0,-849.0,442.0,-6.0,-3.0,0.0,147,120,110,124,124
2025-02-25 18:33:10.078,-343.0,-854.0,437.0,-5.0,-2.0,0.0,144,117,110,123,123
2025-02-25 18:33:10.081,-343.0,-851.0,442.0,-4.0,-2.0,0.0,146,119,110,124,124
2025-02-25 18:33:10.083,-344.0,-849.0,436.0,-3.0,-1.0,0.0,147,123,110,124,126
2025-02-25 18:33:10.085,-345.0,-857.0,436.0,-2.0,-2.0,-1.0,146,119,110,125,124
2025-02-25 18:33:10.088,-340.0,-853.0,431.0,-1.0,-2.0,-1.0,145,118,109,124,124
2025-02-25 18:33:10.091,-338.0,-852.0,435.0,-1.0,-2.0,-2.0,146,118,111,124,124
2025-02-25 18:33:10.098,-337.0,-852.0,434.0,1.0,-1.0,-1.0,147,119,111,125,123
2025-02-25 18:33:10.104,-340.0,-852.0,440.0,1.0,-1.0,-2.0,147,119,109,124,123
2025-02-25 18:33:10.107,-338.0,-853.0,443.0,2.0,-1.0,-2.0,145,118,109,123,124
2025-02-25 18:33:10.112,-344.0,-850.0,446.0,3.0,-1.0,-2.0,146,118,110,124,123
2025-02-25 18:33:10.119,-344.0,-849.0,439.0,5.0,-2.0,-2.0,146,119,110,124,125
2025-02-25 18:33:10.123,-347.0,-845.0,438.0,5.0,-2.0,-2.0,146,120,111,124,125
2025-02-25 18:33:10.128,-345.0,-839.0,437.0,5.0,-2.0,-2.0,145,118,110,124,124
2025-02-25 18:33:10.133,-344.0,-839.0,444.0,5.0,-2.0,-2.0,147,121,112,126,126
2025-02-25 18:33:10.139,-348.0,-834.0,445.0,5.0,-3.0,-2.0,146,119,110,124,124
2025-02-25 18:33:10.144,-348.0,-838.0,443.0,5.0,-3.0,-3.0,146,119,111,125,125
2025-02-25 18:33:10.149,-352.0,-836.0,448.0,5.0,-4.0,-2.0,144,118,110,123,122
2025-02-25 18:33:10.156,-350.0,-834.0,447.0,6.0,-4.0,-2.0,148,121,113,125,126
2025-02-25 18:33:10.160,-342.0,-829.0,452.0,6.0,-4.0,-2.0,146,119,111,124,125
2025-02-25 18:33:10.164,-344.0,-824.0,448.0,5.0,-5.0,-2.0,146,120,110,125,125
2025-02-25 18:33:10.169,-343.0,-833.0,459.0,5.0,-5.0,-2.0,144,117,109,124,124
2025-02-25 18:33:10.177,-347.0,-829.0,463.0,4.0,-5.0,-2.0,148,120,110,126,126
2025-02-25 18:33:10.181,-339.0,-831.0,469.0,3.0,-5.0,-3.0,146,120,111,125,126
2025-02-25 18:33:10.185,-330.0,-830.0,468.0,3.0,-5.0,-3.0,146,120,111,123,125
2025-02-25 18:33:10.190,-331.0,-836.0,478.0,2.0,-4.0,-4.0,145,118,110,124,126
2025-02-25 18:33:10.197,-324.0,-834.0,487.0,2.0,-3.0,-4.0,146,120,112,126,125
2025-02-25 18:33:10.201,-323.0,-843.0,489.0,2.0,-2.0,-5.0,147,120,112,123,125
2025-02-25 18:33:10.206,-326.0,-855.0,490.0,2.0,-2.0,-6.0,145,118,110,123,124
2025-02-25 18:33:10.210,-331.0,-860.0,492.0,1.0,-1.0,-5.0,145,118,110,122,125
2025-02-25 18:33:10.217,-323.0,-859.0,499.0,2.0,-1.0,-5.0,147,120,112,126,125
2025-02-25 18:33:10.222,-329.0,-866.0,499.0,1.0,-1.0,-5.0,147,120,112,126,125
2025-02-25 18:33:10.226,-326.0,-863.0,502.0,2.0,-1.0,-5.0,145,119,110,123,124
2025-02-25 18:33:10.231,-326.0,-859.0,496.0,1.0,0.0,-5.0,146,119,110,124,123
2025-02-25 18:33:10.238,-326.0,-867.0,497.0,1.0,0.0,-5.0,146,121,111,124,125
2025-02-25 18:33:10.242,-323.0,-862.0,495.0,1.0,1.0,-4.0,145,118,111,124,124
2025-02-25 18:33:10.247,-326.0,-861.0,496.0,1.0,1.0,-3.0,144,119,109,124,124
2025-02-25 18:33:10.251,-329.0,-858.0,495.0,1.0,2.0,-3.0,145,119,112,123,124
2025-02-25 18:33:10.258,-325.0,-860.0,496.0,1.0,3.0,-2.0,147,119,111,124,126
2025-02-25 18:33:10.263,-326.0,-860.0,494.0,1.0,3.0,-2.0,146,119,109,124,124
2025-02-25 18:33:10.267,-323.0,-863.0,489.0,0.0,3.0,-1.0,145,118,111,124,124
2025-02-25 18:33:10.271,-324.0,-868.0,486.0,0.0,4.0,-1.0,146,119,112,125,125
2025-02-25 18:33:10.276,-323.0,-865.0,485.0,0.0,5.0,0.0,146,119,112,125,125
2025-02-25 18:33:10.283,-324.0,-853.0,485.0,1.0,5.0,0.0,146,119,109,123,123
2025-02-25 18:33:10.288,-329.0,-853.0,480.0,1.0,6.0,0.0,146,118,111,125,125
2025-02-25 18:33:10.292,-328.0,-849.0,475.0,1.0,6.0,0.0,145,119,110,125,125
2025-02-25 18:33:10.296,-325.0,-843.0,478.0,0.0,7.0,-1.0,145,119,111,123,123
2025-02-25 18:33:10.304,-320.0,-839.0,471.0,0.0,7.0,-1.0,145,115,108,122,124
2025-02-25 18:33:10.308,-323.0,-838.0,466.0,-1.0,7.0,-2.0,147,120,112,125,125
2025-02-25 18:33:10.312,-331.0,-836.0,458.0,-1.0,6.0,-2.0,146,118,113,125,125
2025-02-25 18:33:10.317,-336.0,-837.0,466.0,-1.0,6.0,-2.0,145,118,110,124,124
2025-02-25 18:33:10.324,-333.0,-842.0,461.0,-2.0,6.0,-3.0,145,122,111,124,123
2025-02-25 18:33:10.329,-340.0,-836.0,465.0,-3.0,5.0,-3.0,147,119,112,124,123
2025-02-25 18:33:10.333,-338.0,-833.0,472.0,-3.0,6.0,-3.0,146,119,111,123,124
2025-02-25 18:33:10.337,-343.0,-831.0,467.0,-3.0,5.0,-4.0,145,118,110,122,124
2025-02-25 18:33:10.345,-344.0,-829.0,459.0,-3.0,5.0,-4.0,146,118,110,125,125
2025-02-25 18:33:10.349,-349.0,-825.0,456.0,-3.0,4.0,-4.0,146,121,111,124,125
2025-02-25 18:33:10.353,-348.0,-826.0,443.0,-3.0,3.0,-3.0,146,120,111,126,125
2025-02-25 18:33:10.358,-355.0,-819.0,437.0,-3.0,3.0,-3.0,145,119,109,124,123
2025-02-25 18:33:10.365,-349.0,-817.0,442.0,-3.0,2.0,-3.0,146,119,111,129,125
2025-02-25 18:33:10.370,-347.0,-819.0,437.0,-4.0,0.0,-2.0,146,120,112,125,125
2025-02-25 18:33:10.374,-355.0,-828.0,437.0,-4.0,-1.0,-2.0,147,120,113,125,126
2025-02-25 18:33:10.378,-356.0,-829.0,439.0,-4.0,-1.0,-3.0,144,118,109,122,123
2025-02-25 18:33:10.386,-346.0,-824.0,440.0,-4.0,-2.0,-3.0,145,119,109,123,125
2025-02-25 18:33:10.390,-347.0,-817.0,437.0,-4.0,-3.0,-3.0,147,120,110,124,124
2025-02-25 18:33:10.395,-341.0,-830.0,445.0,-4.0,-3.0,-3.0,147,120,112,125,124
2025-02-25 18:33:10.402,-346.0,-835.0,448.0,-5.0,-2.0,-3.0,146,118,110,124,123
2025-02-25 18:33:10.406,-338.0,-841.0,441.0,-6.0,-3.0,-3.0,145,120,110,123,123
2025-02-25 18:33:10.411,-341.0,-858.0,440.0,-6.0,-2.0,-3.0,147,119,112,125,125
2025-02-25 18:33:10.415,-345.0,-863.0,435.0,-6.0,-2.0,-4.0,146,119,111,125,125
2025-02-25 18:33:10.423,-348.0,-875.0,442.0,-6.0,-2.0,-3.0,146,119,111,123,123
2025-02-25 18:33:10.427,-341.0,-875.0,458.0,-7.0,-2.0,-3.0,145,117,110,123,123
2025-02-25 18:33:10.431,-347.0,-878.0,447.0,-7.0,-2.0,-3.0,146,119,111,125,121
2025-02-25 18:33:10.435,-340.0,-875.0,442.0,-6.0,-2.0,-2.0,146,120,111,125,125
2025-02-25 18:33:10.443,-342.0,-874.0,440.0,-7.0,-1.0,-2.0,146,118,110,123,123
2025-02-25 18:33:10.447,-336.0,-867.0,449.0,-7.0,0.0,-2.0,146,115,110,123,123
2025-02-25 18:33:10.451,-335.0,-870.0,448.0,-6.0,0.0,-2.0,145,118,109,124,123
2025-02-25 18:33:10.459,-333.0,-877.0,441.0,-6.0,-1.0,-1.0,147,119,111,124,123
2025-02-25 18:33:10.463,-325.0,-859.0,454.0,-6.0,0.0,-2.0,146,119,111,123,125
2025-02-25 18:33:10.468,-332.0,-875.0,436.0,-6.0,0.0,-1.0,146,120,110,123,123
2025-02-25 18:33:10.472,-333.0,-883.0,421.0,-4.0,-2.0,0.0,145,118,109,123,123
2025-02-25 18:33:10.479,-332.0,-870.0,446.0,-5.0,-1.0,-1.0,148,120,112,125,124
2025-02-25 18:33:10.484,-327.0,-864.0,454.0,-5.0,1.0,-2.0,146,118,110,123,124
2025-02-25 18:33:10.489,-331.0,-866.0,448.0,-3.0,1.0,-2.0,146,118,109,122,123
2025-02-25 18:33:10.499,-334.0,-861.0,444.0,-2.0,2.0,-2.0,145,117,109,122,122
2025-02-25 18:33:10.501,-334.0,-873.0,446.0,-2.0,2.0,-2.0,147,118,110,123,125
2025-02-25 18:33:10.504,-337.0,-862.0,447.0,-1.0,2.0,-2.0,147,118,110,124,123
2025-02-25 18:33:10.509,-341.0,-883.0,449.0,-1.0,1.0,-2.0,146,118,109,124,123
2025-02-25 18:33:10.513,-343.0,-878.0,450.0,-2.0,1.0,-2.0,146,119,111,123,124
2025-02-25 18:33:10.520,-337.0,-879.0,459.0,-3.0,-1.0,-2.0,146,119,112,124,125
2025-02-25 18:33:10.525,-340.0,-885.0,459.0,-4.0,-1.0,-3.0,146,119,111,123,124
2025-02-25 18:33:10.529,-349.0,-899.0,458.0,-4.0,-1.0,-4.0,146,119,110,123,123
2025-02-25 18:33:10.533,-335.0,-905.0,452.0,-6.0,-1.0,-4.0,147,119,111,124,124
2025-02-25 18:33:10.541,-319.0,-904.0,458.0,-7.0,-1.0,-4.0,146,118,111,124,124
2025-02-25 18:33:10.545,-316.0,-909.0,456.0,-10.0,-2.0,-3.0,147,120,110,124,124
2025-02-25 18:33:10.550,-315.0,-905.0,464.0,-10.0,-3.0,-3.0,148,120,111,124,123
2025-02-25 18:33:10.557,-314.0,-905.0,461.0,-11.0,-3.0,-2.0,147,120,111,124,124
2025-02-25 18:33:10.562,-309.0,-881.0,467.0,-13.0,-3.0,-1.0,144,118,109,123,123
2025-02-25 18:33:10.566,-303.0,-869.0,439.0,-14.0,-5.0,0.0,146,119,111,125,125
2025-02-25 18:33:10.570,-322.0,-846.0,445.0,-13.0,-4.0,0.0,151,119,111,125,125
2025-02-25 18:33:10.578,-321.0,-844.0,429.0,-14.0,-3.0,2.0,148,119,111,123,124
2025-02-25 18:33:10.582,-329.0,-845.0,439.0,-13.0,-2.0,2.0,147,117,109,124,123
2025-02-25 18:33:10.586,-345.0,-834.0,435.0,-11.0,-2.0,3.0,148,119,110,126,125
2025-02-25 18:33:10.595,-345.0,-825.0,442.0,-8.0,-2.0,4.0,147,118,109,125,125
2025-02-25 18:33:10.599,-363.0,-823.0,439.0,-7.0,-2.0,5.0,148,119,111,125,124
2025-02-25 18:33:10.603,-366.0,-833.0,448.0,-5.0,-3.0,5.0,147,117,109,122,123
2025-02-25 18:33:10.607,-362.0,-830.0,459.0,-2.0,-3.0,5.0,147,117,110,125,125
2025-02-25 18:33:10.615,-369.0,-838.0,459.0,0.0,-2.0,5.0,147,120,112,125,126
2025-02-25 18:33:10.619,-375.0,-827.0,452.0,2.0,-1.0,5.0,147,119,111,122,124
2025-02-25 18:33:10.623,-367.0,-824.0,459.0,5.0,-1.0,4.0,147,118,109,123,124
2025-02-25 18:33:10.628,-366.0,-814.0,475.0,10.0,1.0,4.0,147,119,111,125,124
2025-02-25 18:33:10.632,-368.0,-821.0,466.0,11.0,2.0,3.0,146,119,110,123,125
2025-02-25 18:33:10.639,-371.0,-809.0,447.0,14.0,3.0,2.0,147,119,109,122,123
2025-02-25 18:33:10.644,-360.0,-818.0,458.0,13.0,3.0,2.0,146,119,110,123,124
2025-02-25 18:33:10.648,-362.0,-808.0,477.0,13.0,3.0,1.0,148,119,111,124,124
2025-02-25 18:33:10.653,-336.0,-811.0,464.0,12.0,5.0,0.0,148,119,110,125,125
2025-02-25 18:33:10.661,-330.0,-822.0,456.0,13.0,6.0,-1.0,145,118,110,123,123
2025-02-25 18:33:10.664,-324.0,-818.0,449.0,12.0,7.0,-1.0,148,120,111,123,124
2025-02-25 18:33:10.668,-312.0,-811.0,462.0,12.0,5.0,-3.0,148,119,110,122,124
2025-02-25 18:33:10.673,-287.0,-792.0,492.0,9.0,5.0,-2.0,149,120,111,125,125
2025-02-25 18:33:10.681,-311.0,-799.0,466.0,13.0,5.0,-2.0,147,118,110,122,123
2025-02-25 18:33:10.685,-325.0,-806.0,387.0,10.0,5.0,-3.0,146,118,111,124,126
2025-02-25 18:33:10.689,-316.0,-807.0,430.0,10.0,4.0,-3.0,148,121,111,123,124
2025-02-25 18:33:10.694,-312.0,-823.0,443.0,9.0,3.0,-2.0,147,120,110,125,125
2025-02-25 18:33:10.701,-320.0,-831.0,445.0,5.0,0.0,-3.0,147,118,109,122,122
2025-02-25 18:33:10.705,-315.0,-828.0,453.0,4.0,-1.0,-3.0,148,119,112,124,125
2025-02-25 18:33:10.710,-319.0,-836.0,456.0,2.0,-2.0,-2.0,146,118,111,123,124
2025-02-25 18:33:10.714,-323.0,-863.0,459.0,1.0,-2.0,-2.0,148,120,110,123,125
2025-02-25 18:33:10.722,-314.0,-865.0,471.0,-1.0,-4.0,-3.0,146,117,110,123,124
2025-02-25 18:33:10.726,-320.0,-875.0,454.0,-3.0,-5.0,-2.0,149,120,111,123,125
2025-02-25 18:33:10.730,-326.0,-888.0,451.0,-5.0,-6.0,-1.0,147,119,111,126,124
2025-02-25 18:33:10.738,-323.0,-893.0,464.0,-9.0,-6.0,-1.0,148,119,110,124,124
2025-02-25 18:33:10.742,-331.0,-891.0,451.0,-11.0,-6.0,-1.0,146,119,110,126,123
2025-02-25 18:33:10.747,-334.0,-902.0,448.0,-11.0,-6.0,0.0,149,120,111,119,125
2025-02-25 18:33:10.751,-342.0,-907.0,441.0,-12.0,-5.0,0.0,147,121,112,125,125
2025-02-25 18:33:10.759,-330.0,-906.0,424.0,-12.0,-5.0,2.0,147,119,111,124,125
2025-02-25 18:33:10.762,-331.0,-911.0,423.0,-14.0,-5.0,3.0,147,121,110,122,125
2025-02-25 18:33:10.767,-335.0,-904.0,422.0,-14.0,-6.0,3.0,149,120,112,125,125
2025-02-25 18:33:10.774,-334.0,-912.0,427.0,-15.0,-7.0,3.0,148,120,112,123,124
2025-02-25 18:33:10.779,-330.0,-901.0,444.0,-15.0,-6.0,4.0,148,119,110,123,125
2025-02-25 18:33:10.783,-334.0,-896.0,439.0,-13.0,-6.0,5.0,148,119,110,125,123
2025-02-25 18:33:10.788,-334.0,-891.0,444.0,-10.0,-4.0,5.0,146,118,110,124,124
2025-02-25 18:33:10.795,-343.0,-890.0,417.0,-5.0,-5.0,7.0,147,118,112,125,125
2025-02-25 18:33:10.800,-334.0,-883.0,409.0,-5.0,-5.0,9.0,145,121,111,124,124
2025-02-25 18:33:10.804,-325.0,-867.0,419.0,-4.0,-5.0,9.0,147,120,109,124,123
2025-02-25 18:33:10.808,-336.0,-868.0,417.0,-2.0,-7.0,10.0,146,119,109,123,125
2025-02-25 18:33:10.816,-345.0,-877.0,425.0,1.0,-7.0,11.0,149,122,113,125,126
2025-02-25 18:33:10.820,-344.0,-874.0,421.0,4.0,-6.0,11.0,148,120,111,124,125
2025-02-25 18:33:10.824,-341.0,-881.0,415.0,4.0,-5.0,11.0,147,119,110,124,124
2025-02-25 18:33:10.829,-346.0,-879.0,432.0,6.0,-3.0,12.0,147,119,108,122,123
2025-02-25 18:33:10.836,-355.0,-892.0,441.0,7.0,-3.0,11.0,149,122,112,124,126
2025-02-25 18:33:10.841,-363.0,-871.0,441.0,7.0,-5.0,11.0,146,122,111,124,125
2025-02-25 18:33:10.845,-370.0,-872.0,459.0,9.0,-5.0,10.0,146,116,109,122,124
2025-02-25 18:33:10.849,-375.0,-886.0,439.0,9.0,-4.0,10.0,147,121,110,124,124
2025-02-25 18:33:10.857,-374.0,-854.0,416.0,9.0,-6.0,10.0,148,121,112,126,126
2025-02-25 18:33:10.861,-368.0,-862.0,456.0,8.0,-7.0,9.0,148,119,111,123,124
2025-02-25 18:33:10.865,-375.0,-850.0,407.0,8.0,-8.0,9.0,146,121,112,125,124
2025-02-25 18:33:10.870,-370.0,-841.0,428.0,6.0,-10.0,9.0,146,121,111,122,124
2025-02-25 18:33:10.877,-372.0,-825.0,459.0,5.0,-9.0,9.0,148,121,111,125,126
2025-02-25 18:33:10.882,-357.0,-799.0,439.0,5.0,-6.0,9.0,147,120,111,125,125
2025-02-25 18:33:10.886,-371.0,-808.0,408.0,5.0,-7.0,9.0,145,119,110,124,123
2025-02-25 18:33:10.890,-353.0,-823.0,419.0,2.0,-8.0,10.0,148,120,111,124,125
2025-02-25 18:33:10.897,-359.0,-806.0,423.0,3.0,-11.0,11.0,148,121,111,125,126
2025-02-25 18:33:10.902,-364.0,-810.0,446.0,-1.0,-11.0,11.0,146,121,111,124,124
2025-02-25 18:33:10.907,-355.0,-789.0,444.0,-2.0,-10.0,11.0,145,121,111,123,124
2025-02-25 18:33:10.914,-360.0,-795.0,460.0,-2.0,-8.0,11.0,145,119,109,122,124
2025-02-25 18:33:10.919,-372.0,-793.0,457.0,0.0,-6.0,9.0,147,122,112,126,126
2025-02-25 18:33:10.923,-360.0,-780.0,445.0,0.0,-7.0,6.0,148,121,111,123,124
2025-02-25 18:33:10.927,-360.0,-798.0,448.0,-2.0,-7.0,4.0,145,120,111,123,124
2025-02-25 18:33:10.931,-340.0,-797.0,426.0,-4.0,-7.0,3.0,147,122,112,126,131
2025-02-25 18:33:10.939,-341.0,-806.0,398.0,-6.0,-10.0,2.0,147,123,108,124,126
2025-02-25 18:33:10.943,-319.0,-809.0,454.0,-5.0,-10.0,1.0,146,117,112,125,127
2025-02-25 18:33:10.947,-334.0,-810.0,448.0,-2.0,-10.0,-1.0,146,119,112,124,124
2025-02-25 18:33:10.955,-329.0,-825.0,472.0,-2.0,-9.0,-1.0,145,121,111,124,125
2025-02-25 18:33:10.959,-337.0,-823.0,455.0,-2.0,-11.0,-1.0,150,126,114,126,127
2025-02-25 18:33:10.963,-344.0,-828.0,452.0,-3.0,-9.0,-1.0,149,124,114,127,128
2025-02-25 18:33:10.968,-353.0,-834.0,448.0,-1.0,-11.0,-1.0,152,126,116,130,130
2025-02-25 18:33:10.976,-356.0,-833.0,458.0,-8.0,-11.0,-2.0,151,128,117,129,130
2025-02-25 18:33:10.979,-355.0,-826.0,464.0,-6.0,-9.0,-1.0,152,134,116,128,128
2025-02-25 18:33:10.984,-398.0,-866.0,448.0,-8.0,-11.0,-2.0,153,128,117,131,131
2025-02-25 18:33:10.992,-394.0,-859.0,467.0,-6.0,-11.0,-2.0,153,129,117,129,131
2025-02-25 18:33:10.996,-392.0,-888.0,476.0,-7.0,-11.0,-2.0,151,126,115,128,130
2025-02-25 18:33:11.001,-391.0,-920.0,489.0,-9.0,-11.0,-2.0,152,125,116,125,129
2025-02-25 18:33:11.009,-365.0,-917.0,517.0,-11.0,-12.0,-2.0,152,126,114,128,128
2025-02-25 18:33:11.013,-328.0,-970.0,551.0,-13.0,-10.0,-3.0,152,127,108,131,131
2025-02-25 18:33:11.017,-265.0,-1026.0,558.0,-15.0,-10.0,-4.0,153,130,118,129,130
2025-02-25 18:33:11.025,-222.0,-1102.0,603.0,-15.0,-6.0,-3.0,153,127,113,130,130
2025-02-25 18:33:11.029,-191.0,-1134.0,600.0,-19.0,-4.0,-1.0,152,126,114,129,130
2025-02-25 18:33:11.033,-177.0,-1175.0,651.0,-24.0,-3.0,3.0,151,126,116,130,128
2025-02-25 18:33:11.038,-179.0,-1183.0,669.0,-29.0,-1.0,5.0,150,126,114,129,130
2025-02-25 18:33:11.046,-167.0,-1195.0,696.0,-38.0,2.0,11.0,151,128,117,131,131
2025-02-25 18:33:11.050,-169.0,-1216.0,695.0,-41.0,5.0,17.0,153,130,116,130,130
2025-02-25 18:33:11.054,-189.0,-1232.0,686.0,-46.0,8.0,24.0,150,126,116,129,129
2025-02-25 18:33:11.062,-205.0,-1229.0,653.0,-52.0,10.0,31.0,149,125,115,128,129
2025-02-25 18:33:11.066,-214.0,-1211.0,646.0,-48.0,16.0,33.0,150,125,114,130,129
2025-02-25 18:33:11.070,-233.0,-1229.0,568.0,-47.0,19.0,40.0,155,130,119,130,132
2025-02-25 18:33:11.078,-254.0,-1183.0,550.0,-51.0,21.0,46.0,153,130,120,132,132
2025-02-25 18:33:11.082,-265.0,-1149.0,577.0,-47.0,28.0,50.0,152,127,116,129,131
2025-02-25 18:33:11.086,-306.0,-1173.0,522.0,-45.0,29.0,54.0,151,126,116,129,129
2025-02-25 18:33:11.094,-305.0,-1123.0,530.0,-45.0,28.0,56.0,157,131,121,133,134
2025-02-25 18:33:11.098,-278.0,-1063.0,532.0,-38.0,33.0,58.0,154,132,118,132,133
2025-02-25 18:33:11.102,-349.0,-1098.0,505.0,-35.0,39.0,59.0,153,131,119,134,135
2025-02-25 18:33:11.110,-346.0,-1033.0,499.0,-29.0,44.0,61.0,155,130,119,133,133
2025-02-25 18:33:11.115,-367.0,-1016.0,423.0,-29.0,42.0,62.0,154,129,118,130,131
2025-02-25 18:33:11.119,-380.0,-971.0,470.0,-30.0,41.0,62.0,152,128,117,130,132
2025-02-25 18:33:11.124,-385.0,-947.0,423.0,-27.0,41.0,61.0,153,127,117,128,130
2025-02-25 18:33:11.132,-398.0,-928.0,491.0,-28.0,45.0,61.0,155,128,118,132,132
2025-02-25 18:33:11.136,-410.0,-880.0,409.0,-18.0,52.0,59.0,154,130,121,134,134
2025-02-25 18:33:11.140,-454.0,-863.0,351.0,-11.0,50.0,58.0,153,129,119,131,131
2025-02-25 18:33:11.148,-439.0,-835.0,442.0,-14.0,57.0,57.0,152,127,116,130,131
2025-02-25 18:33:11.152,-463.0,-822.0,372.0,-5.0,59.0,56.0,153,132,119,130,130
2025-02-25 18:33:11.156,-474.0,-810.0,332.0,-12.0,61.0,56.0,155,131,121,133,134
2025-02-25 18:33:11.164,-482.0,-780.0,348.0,-12.0,58.0,55.0,156,131,119,135,133
2025-02-25 18:33:11.168,-510.0,-746.0,334.0,-9.0,55.0,55.0,153,129,119,132,132
2025-02-25 18:33:11.173,-551.0,-757.0,313.0,-7.0,53.0,55.0,153,126,119,131,132
2025-02-25 18:33:11.177,-518.0,-718.0,350.0,-4.0,57.0,55.0,153,129,119,132,131
2025-02-25 18:33:11.184,-523.0,-708.0,358.0,4.0,63.0,55.0,149,130,120,128,133
2025-02-25 18:33:11.189,-532.0,-700.0,335.0,5.0,65.0,53.0,153,129,120,131,136
2025-02-25 18:33:11.193,-550.0,-705.0,294.0,3.0,59.0,51.0,151,127,117,128,128
2025-02-25 18:33:11.197,-563.0,-707.0,390.0,-8.0,59.0,50.0,150,126,116,128,128
2025-02-25 18:33:11.205,-546.0,-686.0,343.0,-22.0,64.0,47.0,154,129,119,132,131
2025-02-25 18:33:11.209,-578.0,-688.0,313.0,-24.0,57.0,45.0,154,127,118,132,132
2025-02-25 18:33:11.213,-571.0,-687.0,287.0,-22.0,49.0,42.0,154,130,120,132,132
2025-02-25 18:33:11.221,-586.0,-694.0,354.0,-31.0,51.0,37.0,152,127,118,130,131
2025-02-25 18:33:11.226,-572.0,-642.0,337.0,-39.0,56.0,36.0,153,129,118,130,131
2025-02-25 18:33:11.230,-584.0,-642.0,307.0,-36.0,58.0,31.0,156,130,121,134,131
2025-02-25 18:33:11.234,-582.0,-656.0,323.0,-35.0,56.0,28.0,155,131,121,133,134
2025-02-25 18:33:11.242,-583.0,-667.0,302.0,-33.0,58.0,25.0,153,129,120,132,132
2025-02-25 18:33:11.246,-595.0,-648.0,297.0,-41.0,60.0,23.0,154,126,120,131,132
2025-02-25 18:33:11.250,-589.0,-660.0,279.0,-46.0,58.0,22.0,155,127,121,131,131
2025-02-25 18:33:11.258,-572.0,-656.0,260.0,-47.0,58.0,19.0,155,129,121,136,133
2025-02-25 18:33:11.262,-572.0,-676.0,230.0,-49.0,50.0,17.0,155,128,122,134,133
2025-02-25 18:33:11.266,-569.0,-658.0,276.0,-49.0,45.0,16.0,156,128,122,132,132
2025-02-25 18:33:11.274,-557.0,-681.0,243.0,-47.0,41.0,16.0,156,128,122,133,133
2025-02-25 18:33:11.278,-569.0,-697.0,211.0,-56.0,34.0,17.0,154,127,121,132,131
2025-02-25 18:33:11.283,-550.0,-727.0,149.0,-46.0,25.0,16.0,155,126,128,133,132
2025-02-25 18:33:11.287,-595.0,-738.0,216.0,-49.0,27.0,17.0,155,127,121,133,138
2025-02-25 18:33:11.295,-567.0,-756.0,171.0,-50.0,19.0,16.0,156,126,123,133,131
2025-02-25 18:33:11.299,-593.0,-721.0,302.0,-37.0,28.0,18.0,155,123,120,132,131
2025-02-25 18:33:11.304,-561.0,-739.0,224.0,-23.0,39.0,16.0,154,122,119,132,130
2025-02-25 18:33:11.311,-598.0,-743.0,184.0,-36.0,32.0,14.0,157,124,121,133,131
2025-02-25 18:33:11.316,-532.0,-760.0,175.0,-21.0,22.0,12.0,159,123,123,134,134
2025-02-25 18:33:11.320,-574.0,-804.0,348.0,-17.0,31.0,10.0,155,122,122,132,133
2025-02-25 18:33:11.327,-613.0,-788.0,121.0,-14.0,23.0,7.0,154,118,121,132,129
2025-02-25 18:33:11.332,-552.0,-766.0,325.0,-17.0,37.0,5.0,155,117,119,131,129
2025-02-25 18:33:11.336,-553.0,-795.0,192.0,-18.0,48.0,5.0,155,117,122,134,130
2025-02-25 18:33:11.340,-570.0,-768.0,171.0,-31.0,52.0,4.0,153,115,120,131,127
2025-02-25 18:33:11.348,-590.0,-783.0,166.0,-31.0,52.0,3.0,156,117,123,133,130
2025-02-25 18:33:11.352,-584.0,-826.0,147.0,-38.0,48.0,2.0,153,113,119,131,129
2025-02-25 18:33:11.356,-631.0,-835.0,226.0,-48.0,44.0,1.0,153,111,116,129,126
2025-02-25 18:33:11.361,-589.0,-786.0,244.0,-36.0,51.0,2.0,155,115,121,132,128
2025-02-25 18:33:11.368,-609.0,-781.0,113.0,-19.0,49.0,8.0,153,113,120,131,128
2025-02-25 18:33:11.372,-625.0,-824.0,34.0,-10.0,41.0,13.0,155,111,120,127,125
2025-02-25 18:33:11.377,-626.0,-805.0,208.0,-15.0,32.0,14.0,150,109,118,128,124
2025-02-25 18:33:11.384,-617.0,-801.0,201.0,-13.0,31.0,16.0,152,109,118,129,123
2025-02-25 18:33:11.389,-641.0,-806.0,211.0,-4.0,21.0,18.0,151,109,116,127,122
2025-02-25 18:33:11.393,-625.0,-804.0,204.0,-6.0,20.0,17.0,148,106,114,127,121
2025-02-25 18:33:11.397,-611.0,-799.0,185.0,-3.0,20.0,17.0,150,106,113,126,117
2025-02-25 18:33:11.405,-608.0,-803.0,171.0,-7.0,26.0,16.0,149,104,114,126,120
2025-02-25 18:33:11.409,-600.0,-815.0,173.0,-10.0,30.0,15.0,150,106,116,127,119
2025-02-25 18:33:11.414,-596.0,-801.0,172.0,-12.0,30.0,13.0,152,105,116,128,121
2025-02-25 18:33:11.421,-610.0,-835.0,164.0,-17.0,28.0,11.0,148,101,113,126,117
2025-02-25 18:33:11.426,-583.0,-869.0,201.0,-19.0,29.0,9.0,149,99,113,125,117
2025-02-25 18:33:11.430,-616.0,-830.0,171.0,-28.0,26.0,8.0,150,98,113,125,115
2025-02-25 18:33:11.434,-602.0,-832.0,186.0,-32.0,35.0,7.0,151,98,114,126,115
2025-02-25 18:33:11.443,-599.0,-834.0,188.0,-24.0,46.0,5.0,148,95,112,125,112
2025-02-25 18:33:11.447,-617.0,-808.0,194.0,-18.0,50.0,3.0,147,90,109,121,108
2025-02-25 18:33:11.451,-603.0,-790.0,158.0,-27.0,54.0,2.0,147,92,110,121,110
2025-02-25 18:33:11.456,-599.0,-819.0,88.0,-27.0,47.0,2.0,148,92,112,123,111
2025-02-25 18:33:11.463,-589.0,-814.0,15.0,-28.0,33.0,5.0,147,89,109,121,109
2025-02-25 18:33:11.467,-567.0,-805.0,104.0,-26.0,31.0,9.0,148,88,109,119,107
2025-02-25 18:33:11.472,-555.0,-776.0,86.0,-13.0,30.0,15.0,148,88,109,121,108
2025-02-25 18:33:11.476,-571.0,-795.0,23.0,-14.0,24.0,18.0,149,85,108,120,108
2025-02-25 18:33:11.484,-572.0,-775.0,122.0,-19.0,28.0,23.0,148,85,107,120,106
2025-02-25 18:33:11.487,-600.0,-792.0,110.0,-11.0,26.0,23.0,149,84,108,118,103
2025-02-25 18:33:11.491,-584.0,-803.0,154.0,-17.0,29.0,26.0,150,86,106,120,103
2025-02-25 18:33:11.497,-573.0,-771.0,42.0,-22.0,27.0,26.0,151,86,109,119,103
2025-02-25 18:33:11.504,-580.0,-750.0,98.0,-22.0,28.0,24.0,153,84,106,122,103
2025-02-25 18:33:11.508,-555.0,-769.0,104.0,-22.0,26.0,23.0,150,81,105,116,100
2025-02-25 18:33:11.512,-570.0,-740.0,104.0,-26.0,28.0,21.0,151,84,108,116,98
2025-02-25 18:33:11.517,-567.0,-719.0,84.0,-24.0,29.0,20.0,151,79,106,115,98
2025-02-25 18:33:11.525,-590.0,-719.0,87.0,-26.0,27.0,18.0,157,80,106,118,98
2025-02-25 18:33:11.528,-582.0,-723.0,102.0,-24.0,27.0,18.0,151,80,104,113,96
2025-02-25 18:33:11.532,-617.0,-716.0,55.0,-31.0,28.0,16.0,151,80,106,118,96
2025-02-25 18:33:11.538,-612.0,-683.0,65.0,-32.0,29.0,14.0,150,78,104,112,92
2025-02-25 18:33:11.545,-628.0,-664.0,66.0,-32.0,25.0,14.0,149,76,101,110,90
2025-02-25 18:33:11.549,-634.0,-662.0,84.0,-23.0,27.0,12.0,147,75,101,108,89
2025-02-25 18:33:11.553,-616.0,-644.0,11.0,-24.0,21.0,10.0,151,77,103,109,90
2025-02-25 18:33:11.558,-599.0,-634.0,55.0,-22.0,23.0,8.0,151,75,101,107,88
2025-02-25 18:33:11.565,-608.0,-593.0,10.0,-21.0,19.0,6.0,147,71,98,104,85
2025-02-25 18:33:11.569,-597.0,-607.0,57.0,-19.0,20.0,3.0,149,73,101,104,84
2025-02-25 18:33:11.573,-567.0,-589.0,0.0,-19.0,15.0,1.0,150,70,98,100,83
2025-02-25 18:33:11.578,-578.0,-610.0,36.0,-18.0,16.0,1.0,148,70,96,101,82
2025-02-25 18:33:11.583,-555.0,-544.0,-23.0,-21.0,18.0,0.0,150,70,96,101,81
2025-02-25 18:33:11.587,-601.0,-570.0,-6.0,-22.0,16.0,0.0,148,70,96,99,78
2025-02-25 18:33:11.594,-588.0,-578.0,-17.0,-31.0,15.0,0.0,145,66,90,97,77
2025-02-25 18:33:11.598,-617.0,-594.0,-22.0,-29.0,12.0,0.0,145,67,93,97,77
2025-02-25 18:33:11.602,-630.0,-587.0,46.0,-23.0,14.0,2.0,148,66,91,94,75
2025-02-25 18:33:11.607,-628.0,-571.0,3.0,-17.0,17.0,2.0,142,63,89,93,75
2025-02-25 18:33:11.611,-661.0,-572.0,-26.0,-11.0,16.0,2.0,145,63,89,95,73
2025-02-25 18:33:11.619,-689.0,-597.0,44.0,-6.0,20.0,4.0,145,64,89,95,74
2025-02-25 18:33:11.623,-668.0,-539.0,24.0,-7.0,19.0,4.0,143,59,87,94,73
2025-02-25 18:33:11.627,-692.0,-547.0,27.0,4.0,21.0,5.0,145,62,88,92,72
2025-02-25 18:33:11.632,-682.0,-509.0,16.0,5.0,24.0,5.0,144,62,81,89,70
2025-02-25 18:33:11.635,-710.0,-503.0,-60.0,-5.0,22.0,4.0,142,59,83,87,67
2025-02-25 18:33:11.640,-680.0,-446.0,-27.0,-4.0,25.0,4.0,142,57,83,87,67
2025-02-25 18:33:11.644,-715.0,-369.0,-33.0,-6.0,29.0,6.0,142,59,81,86,67
2025-02-25 18:33:11.651,-721.0,-370.0,-57.0,-9.0,29.0,7.0,141,57,83,85,65
2025-02-25 18:33:11.656,-715.0,-325.0,-64.0,-7.0,33.0,8.0,143,57,82,86,64
2025-02-25 18:33:11.660,-710.0,-293.0,-114.0,-11.0,36.0,9.0,142,59,80,88,64
2025-02-25 18:33:11.664,-746.0,-211.0,-124.0,-11.0,39.0,10.0,140,56,78,85,63
2025-02-25 18:33:11.672,-763.0,-154.0,-154.0,-10.0,43.0,10.0,143,58,80,88,64
2025-02-25 18:33:11.676,-805.0,-50.0,-233.0,-12.0,49.0,6.0,141,58,74,85,61
2025-02-25 18:33:11.680,-838.0,117.0,-255.0,-23.0,51.0,2.0,140,55,77,86,60
2025-02-25 18:33:11.684,-948.0,192.0,-258.0,-39.0,58.0,-3.0,141,57,76,86,61
2025-02-25 18:33:11.689,-995.0,417.0,-272.0,-50.0,69.0,-13.0,140,56,78,86,61
2025-02-25 18:33:11.697,-994.0,513.0,-298.0,-72.0,73.0,-23.0,140,54,74,85,58
2025-02-25 18:33:11.701,-988.0,506.0,-395.0,-91.0,81.0,-28.0,139,55,75,86,59
2025-02-25 18:33:11.705,-995.0,617.0,-439.0,-104.0,86.0,-46.0,138,57,73,84,58
2025-02-25 18:33:11.709,-1035.0,664.0,-410.0,-112.0,92.0,-60.0,136,55,70,85,57
2025-02-25 18:33:11.717,-976.0,686.0,-488.0,-89.0,87.0,-69.0,135,55,72,88,59
2025-02-25 18:33:11.721,-1029.0,802.0,-560.0,-78.0,91.0,-98.0,132,54,68,86,57
2025-02-25 18:33:11.725,-1055.0,934.0,-479.0,-69.0,93.0,-123.0,130,54,68,86,55
2025-02-25 18:33:11.730,-959.0,931.0,-564.0,-30.0,95.0,-134.0,129,53,66,83,56
2025-02-25 18:33:11.737,-828.0,818.0,-616.0,26.0,71.0,-161.0,127,53,68,86,57
2025-02-25 18:33:11.741,-847.0,978.0,-940.0,59.0,37.0,-207.0,124,53,65,84,55
2025-02-25 18:33:11.746,-882.0,1006.0,-985.0,111.0,19.0,-228.0,122,53,65,82,56
2025-02-25 18:33:11.750,-944.0,950.0,-942.0,136.0,-29.0,-270.0,123,53,66,85,58
2025-02-25 18:33:11.758,-1112.0,927.0,-933.0,143.0,-92.0,-327.0,121,54,64,81,56
2025-02-25 18:33:11.762,-1208.0,941.0,-957.0,149.0,-128.0,-382.0,119,53,64,81,56
2025-02-25 18:33:11.766,-1137.0,716.0,-719.0,192.0,-207.0,-440.0,119,54,64,80,56
2025-02-25 18:33:11.774,-608.0,972.0,-584.0,157.0,-256.0,-474.0,118,58,67,80,59
2025-02-25 18:33:11.778,-188.0,971.0,-498.0,127.0,-283.0,-525.0,116,55,65,81,57
2025-02-25 18:33:11.782,305.0,706.0,-171.0,112.0,-305.0,-565.0,116,54,63,80,57
2025-02-25 18:33:11.786,836.0,304.0,132.0,80.0,-313.0,-579.0,114,53,65,80,56
2025-02-25 18:33:11.795,1083.0,39.0,537.0,44.0,-307.0,-570.0,113,52,64,78,57
2025-02-25 18:33:11.799,1579.0,-797.0,802.0,21.0,-273.0,-523.0,113,56,65,79,59
2025-02-25 18:33:11.803,1961.0,-1759.0,1209.0,14.0,-223.0,-444.0,111,57,64,78,57
2025-02-25 18:33:11.811,2205.0,-2662.0,1604.0,27.0,-154.0,-349.0,111,56,64,77,57
2025-02-25 18:33:11.815,2337.0,-3466.0,1914.0,73.0,-116.0,-259.0,109,55,66,77,58
2025-02-25 18:33:11.820,2563.0,-3906.0,2125.0,157.0,-33.0,-218.0,108,55,67,77,56
2025-02-25 18:33:11.827,2728.0,-4419.0,2042.0,252.0,53.0,-137.0,110,56,69,78,58
2025-02-25 18:33:11.832,2619.0,-4887.0,1953.0,346.0,129.0,-52.0,109,56,71,78,57
2025-02-25 18:33:11.837,2218.0,-4860.0,1574.0,375.0,181.0,30.0,109,56,74,77,58
2025-02-25 18:33:11.841,1991.0,-4466.0,1301.0,400.0,194.0,106.0,108,54,76,70,56
2025-02-25 18:33:11.848,1756.0,-4056.0,898.0,376.0,182.0,131.0,105,53,76,69,56
2025-02-25 18:33:11.854,1292.0,-2930.0,899.0,302.0,154.0,164.0,108,53,78,73,58
2025-02-25 18:33:11.869,838.0,-2280.0,977.0,203.0,111.0,180.0,110,56,78,74,56
2025-02-25 18:33:11.872,918.0,-1800.0,1073.0,153.0,107.0,152.0,106,52,71,75,57
2025-02-25 18:33:11.876,785.0,-1720.0,1021.0,33.0,85.0,133.0,105,54,69,75,57
2025-02-25 18:33:11.879,589.0,-1656.0,1015.0,-61.0,60.0,124.0,108,56,69,80,59
2025-02-25 18:33:11.882,481.0,-1824.0,867.0,-94.0,38.0,105.0,108,57,68,78,59
2025-02-25 18:33:11.885,554.0,-1935.0,766.0,-145.0,29.0,100.0,108,56,68,77,56
2025-02-25 18:33:11.888,476.0,-2002.0,679.0,-184.0,16.0,104.0,106,56,64,78,59
2025-02-25 18:33:11.893,583.0,-2117.0,738.0,-191.0,7.0,111.0,109,57,62,80,59
2025-02-25 18:33:11.897,520.0,-2150.0,606.0,-201.0,10.0,117.0,107,58,67,80,60
2025-02-25 18:33:11.901,382.0,-2280.0,543.0,-194.0,9.0,139.0,106,59,65,82,58
2025-02-25 18:33:11.909,353.0,-2202.0,457.0,-183.0,6.0,148.0,110,60,67,80,59
2025-02-25 18:33:11.913,321.0,-2270.0,493.0,-169.0,3.0,166.0,111,62,66,80,65
2025-02-25 18:33:11.917,305.0,-2068.0,469.0,-169.0,-2.0,188.0,108,57,66,80,60
2025-02-25 18:33:11.922,273.0,-1809.0,398.0,-163.0,-2.0,202.0,110,58,67,79,61
2025-02-25 18:33:11.930,258.0,-1694.0,384.0,-160.0,-8.0,208.0,109,60,68,81,63
2025-02-25 18:33:11.934,195.0,-1531.0,353.0,-154.0,-11.0,214.0,112,60,72,80,63
2025-02-25 18:33:11.938,146.0,-1364.0,347.0,-151.0,-9.0,217.0,111,60,72,78,61
2025-02-25 18:33:11.943,55.0,-1141.0,299.0,-146.0,-16.0,216.0,109,61,70,77,61
2025-02-25 18:33:11.950,-11.0,-1067.0,280.0,-145.0,-22.0,217.0,109,58,72,79,62
2025-02-25 18:33:11.955,-62.0,-963.0,270.0,-151.0,-22.0,219.0,110,59,73,81,62
2025-02-25 18:33:11.959,-163.0,-956.0,271.0,-152.0,-29.0,226.0,110,61,71,79,61
2025-02-25 18:33:11.967,-188.0,-917.0,260.0,-150.0,-33.0,234.0,109,59,70,79,61
2025-02-25 18:33:11.971,-167.0,-880.0,256.0,-140.0,-22.0,238.0,110,58,70,80,62
2025-02-25 18:33:11.975,-212.0,-829.0,246.0,-123.0,-24.0,245.0,112,63,74,82,63
2025-02-25 18:33:11.979,-240.0,-713.0,278.0,-113.0,-14.0,249.0,111,61,72,83,64
2025-02-25 18:33:11.987,-185.0,-487.0,277.0,-98.0,-10.0,248.0,109,62,71,82,61
2025-02-25 18:33:11.991,-240.0,-451.0,275.0,-85.0,-1.0,245.0,110,62,69,82,64
2025-02-25 18:33:11.996,-290.0,-294.0,274.0,-79.0,12.0,241.0,113,65,72,82,64
2025-02-25 18:33:12.000,-373.0,-113.0,237.0,-75.0,18.0,230.0,112,62,72,82,63
2025-02-25 18:33:12.008,-436.0,-20.0,169.0,-74.0,20.0,219.0,110,60,70,81,64
2025-02-25 18:33:12.012,-488.0,72.0,112.0,-72.0,23.0,211.0,113,65,71,83,65
2025-02-25 18:33:12.016,-548.0,153.0,84.0,-71.0,23.0,194.0,114,62,73,83,66
2025-02-25 18:33:12.020,-587.0,249.0,22.0,-72.0,26.0,176.0,112,63,72,81,64
2025-02-25 18:33:12.024,-652.0,293.0,-57.0,-73.0,26.0,166.0,114,62,74,84,66
2025-02-25 18:33:12.032,-699.0,328.0,-95.0,-74.0,25.0,146.0,115,64,75,83,65
2025-02-25 18:33:12.036,-727.0,372.0,-131.0,-75.0,26.0,128.0,113,63,73,84,65
2025-02-25 18:33:12.040,-785.0,389.0,-172.0,-78.0,22.0,120.0,114,63,74,83,64
2025-02-25 18:33:12.044,-821.0,361.0,-171.0,-80.0,22.0,110.0,114,62,74,82,66
2025-02-25 18:33:12.049,-801.0,349.0,-217.0,-80.0,23.0,97.0,112,62,75,81,63
2025-02-25 18:33:12.056,-841.0,331.0,-231.0,-77.0,22.0,92.0,112,62,73,83,62
2025-02-25 18:33:12.061,-857.0,336.0,-240.0,-72.0,25.0,83.0,114,64,76,84,67
2025-02-25 18:33:12.065,-854.0,321.0,-232.0,-67.0,23.0,74.0,113,63,74,81,65
2025-02-25 18:33:12.069,-821.0,288.0,-214.0,-56.0,24.0,70.0,112,63,74,81,64
2025-02-25 18:33:12.078,-815.0,289.0,-221.0,-46.0,24.0,65.0,114,63,73,82,65
2025-02-25 18:33:12.082,-823.0,283.0,-215.0,-39.0,27.0,60.0,113,63,72,82,66
2025-02-25 18:33:12.086,-821.0,296.0,-224.0,-24.0,26.0,54.0,113,62,71,82,63
2025-02-25 18:33:12.090,-849.0,298.0,-234.0,-10.0,27.0,52.0,112,65,72,83,66
2025-02-25 18:33:12.094,-849.0,307.0,-240.0,-2.0,25.0,45.0,114,62,70,84,67
2025-02-25 18:33:12.102,-838.0,325.0,-231.0,13.0,25.0,40.0,113,62,67,82,66
2025-02-25 18:33:12.106,-867.0,358.0,-258.0,26.0,25.0,37.0,114,63,68,83,67
2025-02-25 18:33:12.110,-877.0,404.0,-254.0,31.0,24.0,31.0,114,65,68,82,67
2025-02-25 18:33:12.114,-911.0,485.0,-268.0,39.0,24.0,27.0,115,63,69,83,66
2025-02-25 18:33:12.118,-896.0,553.0,-267.0,41.0,24.0,24.0,116,66,72,85,68
2025-02-25 18:33:12.127,-932.0,657.0,-288.0,40.0,20.0,17.0,116,66,71,85,69
2025-02-25 18:33:12.131,-943.0,763.0,-300.0,38.0,21.0,11.0,114,64,70,83,68
2025-02-25 18:33:12.135,-984.0,785.0,-313.0,34.0,22.0,7.0,118,67,74,88,71
2025-02-25 18:33:12.139,-1007.0,876.0,-327.0,31.0,18.0,-2.0,118,68,74,87,70
2025-02-25 18:33:12.144,-1033.0,974.0,-352.0,29.0,17.0,-15.0,115,61,72,81,68
2025-02-25 18:33:12.151,-1125.0,1007.0,-367.0,32.0,12.0,-24.0,115,64,71,84,68
2025-02-25 18:33:12.155,-1113.0,1032.0,-385.0,41.0,5.0,-47.0,118,67,74,86,69
2025-02-25 18:33:12.160,-1100.0,1074.0,-412.0,51.0,0.0,-80.0,114,64,71,84,69
2025-02-25 18:33:12.164,-1107.0,1070.0,-374.0,78.0,-1.0,-99.0,114,62,71,83,67
2025-02-25 18:33:12.172,-1063.0,1059.0,-358.0,112.0,-3.0,-148.0,117,63,71,85,68
2025-02-25 18:33:12.176,-965.0,1044.0,-332.0,130.0,-2.0,-198.0,117,66,74,85,69
2025-02-25 18:33:12.180,-921.0,1042.0,-308.0,159.0,-3.0,-247.0,114,64,70,83,67
2025-02-25 18:33:12.184,-913.0,963.0,-265.0,183.0,-6.0,-269.0,114,62,71,83,68
2025-02-25 18:33:12.192,-827.0,977.0,-283.0,190.0,-13.0,-319.0,117,65,73,85,69
2025-02-25 18:33:12.196,-739.0,981.0,-287.0,185.0,-30.0,-371.0,116,65,71,85,68
2025-02-25 18:33:12.200,-642.0,917.0,-292.0,180.0,-54.0,-423.0,114,64,70,83,67
2025-02-25 18:33:12.208,-586.0,832.0,-260.0,160.0,-67.0,-473.0,114,64,70,82,66
2025-02-25 18:33:12.212,-353.0,762.0,-175.0,133.0,-93.0,-497.0,114,64,71,83,66
2025-02-25 18:33:12.216,-10.0,539.0,-110.0,102.0,-119.0,-537.0,115,62,72,83,67
2025-02-25 18:33:12.221,403.0,102.0,43.0,89.0,-140.0,-561.0,114,62,70,82,67
2025-02-25 18:33:12.228,602.0,-660.0,234.0,71.0,-148.0,-557.0,113,62,69,82,65
2025-02-25 18:33:12.233,936.0,-1125.0,392.0,73.0,-161.0,-545.0,115,64,72,83,67
2025-02-25 18:33:12.237,1122.0,-2065.0,513.0,95.0,-176.0,-506.0,115,63,74,84,69
2025-02-25 18:33:12.241,1363.0,-2986.0,832.0,114.0,-179.0,-434.0,113,66,73,82,70
2025-02-25 18:33:12.249,1957.0,-3930.0,1287.0,165.0,-169.0,-336.0,112,58,73,81,67
2025-02-25 18:33:12.253,2229.0,-4896.0,1699.0,227.0,-121.0,-220.0,112,61,73,79,66
2025-02-25 18:33:12.258,2571.0,-5296.0,1954.0,297.0,-52.0,-160.0,114,60,74,79,67
2025-02-25 18:33:12.265,2703.0,-5757.0,2021.0,353.0,30.0,-40.0,116,58,79,78,68
2025-02-25 18:33:12.269,2629.0,-5777.0,1942.0,392.0,107.0,69.0,115,62,80,77,68
2025-02-25 18:33:12.274,2344.0,-5223.0,1838.0,392.0,146.0,149.0,115,62,83,75,67
2025-02-25 18:33:12.281,1905.0,-4274.0,1512.0,378.0,149.0,213.0,115,58,80,74,63
2025-02-25 18:33:12.286,1818.0,-3881.0,1516.0,313.0,179.0,237.0,114,56,79,76,63
2025-02-25 18:33:12.291,1354.0,-3123.0,1294.0,224.0,172.0,254.0,115,60,79,76,64
2025-02-25 18:33:12.295,893.0,-2355.0,1217.0,102.0,157.0,256.0,117,61,79,78,66
2025-02-25 18:33:12.302,456.0,-1852.0,1070.0,48.0,128.0,239.0,116,61,75,78,66
2025-02-25 18:33:12.307,405.0,-1510.0,893.0,-58.0,104.0,217.0,116,60,75,81,66
2025-02-25 18:33:12.311,174.0,-1346.0,678.0,-155.0,69.0,208.0,116,62,76,82,67
2025-02-25 18:33:12.315,76.0,-1386.0,611.0,-211.0,41.0,185.0,116,62,76,81,67
2025-02-25 18:33:12.323,-148.0,-1580.0,450.0,-223.0,11.0,166.0,115,61,73,80,66
2025-02-25 18:33:12.327,5.0,-1801.0,477.0,-241.0,12.0,156.0,115,62,73,83,68
2025-02-25 18:33:12.331,-41.0,-1843.0,346.0,-235.0,-4.0,156.0,116,61,74,84,67
2025-02-25 18:33:12.336,-1.0,-1922.0,394.0,-223.0,0.0,164.0,118,62,74,83,68
2025-02-25 18:33:12.343,68.0,-1993.0,417.0,-206.0,-7.0,175.0,115,61,73,81,66
2025-02-25 18:33:12.348,49.0,-1861.0,455.0,-185.0,-10.0,184.0,116,62,73,81,65
2025-02-25 18:33:12.352,25.0,-1714.0,424.0,-159.0,-5.0,197.0,116,63,76,83,67
2025-02-25 18:33:12.356,-35.0,-1485.0,461.0,-150.0,-3.0,210.0,119,63,77,82,68
2025-02-25 18:33:12.364,-100.0,-1226.0,430.0,-133.0,1.0,218.0,118,61,74,80,68
2025-02-25 18:33:12.368,-118.0,-1142.0,427.0,-118.0,0.0,221.0,117,64,76,81,69
2025-02-25 18:33:12.372,-164.0,-949.0,444.0,-114.0,4.0,229.0,116,61,71,80,68
2025-02-25 18:33:12.376,-239.0,-782.0,420.0,-116.0,6.0,239.0,116,61,75,81,68
2025-02-25 18:33:12.384,-203.0,-644.0,409.0,-116.0,9.0,243.0,117,58,74,81,65
2025-02-25 18:33:12.388,-236.0,-567.0,398.0,-120.0,13.0,249.0,118,60,74,83,68
2025-02-25 18:33:12.393,-239.0,-431.0,414.0,-119.0,21.0,254.0,120,61,73,79,69
2025-02-25 18:33:12.397,-241.0,-281.0,363.0,-118.0,21.0,256.0,118,62,73,82,69
2025-02-25 18:33:12.405,-318.0,-231.0,327.0,-116.0,26.0,255.0,118,65,71,82,68
2025-02-25 18:33:12.409,-339.0,-54.0,283.0,-108.0,31.0,251.0,118,63,72,83,70
2025-02-25 18:33:12.414,-381.0,107.0,283.0,-113.0,37.0,243.0,122,65,71,84,69
2025-02-25 18:33:12.418,-437.0,251.0,239.0,-112.0,36.0,231.0,120,63,70,82,67
2025-02-25 18:33:12.426,-438.0,325.0,208.0,-120.0,36.0,223.0,115,64,72,86,68
2025-02-25 18:33:12.430,-522.0,439.0,166.0,-131.0,35.0,206.0,120,63,72,83,68
2025-02-25 18:33:12.434,-536.0,462.0,148.0,-134.0,36.0,187.0,123,62,70,85,69
2025-02-25 18:33:12.439,-551.0,554.0,107.0,-142.0,35.0,176.0,122,61,72,82,68
2025-02-25 18:33:12.443,-594.0,536.0,98.0,-147.0,35.0,153.0,121,60,72,83,68
2025-02-25 18:33:12.450,-613.0,498.0,66.0,-149.0,37.0,136.0,120,62,73,83,69
2025-02-25 18:33:12.454,-608.0,431.0,24.0,-153.0,37.0,123.0,122,65,73,83,73
2025-02-25 18:33:12.458,-631.0,388.0,-31.0,-155.0,38.0,119.0,123,63,74,84,70
2025-02-25 18:33:12.463,-622.0,311.0,-27.0,-155.0,41.0,114.0,124,64,76,85,72
2025-02-25 18:33:12.470,-653.0,271.0,-85.0,-152.0,42.0,113.0,122,61,73,83,68
2025-02-25 18:33:12.474,-652.0,223.0,-121.0,-147.0,44.0,115.0,121,60,74,81,66
2025-02-25 18:33:12.479,-663.0,155.0,-97.0,-141.0,47.0,120.0,125,65,74,84,70
2025-02-25 18:33:12.483,-699.0,234.0,-97.0,-137.0,52.0,121.0,127,63,78,84,69
2025-02-25 18:33:12.491,-685.0,240.0,-102.0,-128.0,54.0,122.0,126,61,75,86,69
2025-02-25 18:33:12.495,-683.0,242.0,-131.0,-116.0,58.0,120.0,127,62,75,86,70
2025-02-25 18:33:12.499,-737.0,312.0,-154.0,-106.0,59.0,114.0,126,62,72,86,71
2025-02-25 18:33:12.503,-798.0,375.0,-191.0,-100.0,56.0,107.0,127,64,72,85,71
2025-02-25 18:33:12.511,-844.0,485.0,-211.0,-88.0,54.0,97.0,127,63,70,84,69
2025-02-25 18:33:12.516,-912.0,539.0,-269.0,-76.0,48.0,91.0,130,62,74,86,73
2025-02-25 18:33:12.519,-888.0,666.0,-281.0,-70.0,44.0,81.0,129,63,70,85,70
2025-02-25 18:33:12.525,-901.0,787.0,-286.0,-54.0,39.0,65.0,129,63,70,84,69
2025-02-25 18:33:12.529,-939.0,840.0,-307.0,-37.0,36.0,56.0,129,63,72,87,74
2025-02-25 18:33:12.536,-964.0,1006.0,-351.0,-26.0,29.0,36.0,131,64,73,87,72
2025-02-25 18:33:12.540,-1101.0,1272.0,-437.0,-28.0,18.0,15.0,130,64,71,87,70
2025-02-25 18:33:12.544,-1048.0,1343.0,-415.0,-10.0,15.0,0.0,131,63,71,85,70
2025-02-25 18:33:12.549,-1153.0,1480.0,-453.0,0.0,6.0,-33.0,132,65,76,87,71
2025-02-25 18:33:12.557,-1160.0,1682.0,-457.0,5.0,1.0,-69.0,135,65,73,86,72
2025-02-25 18:33:12.561,-1173.0,1780.0,-400.0,34.0,-3.0,-111.0,134,61,72,83,70
2025-02-25 18:33:12.565,-1269.0,1903.0,-469.0,57.0,-14.0,-135.0,134,64,72,86,73
2025-02-25 18:33:12.570,-1327.0,2071.0,-500.0,81.0,-23.0,-180.0,135,64,74,86,71
2025-02-25 18:33:12.577,-1325.0,2125.0,-438.0,96.0,-32.0,-224.0,137,64,72,86,72
2025-02-25 18:33:12.581,-1388.0,2327.0,-583.0,129.0,-47.0,-273.0,137,62,69,85,69
2025-02-25 18:33:12.585,-1228.0,2008.0,-390.0,177.0,-59.0,-318.0,136,62,70,85,70
2025-02-25 18:33:12.593,-1217.0,2104.0,-324.0,224.0,-87.0,-337.0,135,62,70,85,70
2025-02-25 18:33:12.598,-992.0,1622.0,-301.0,270.0,-120.0,-375.0,138,64,70,88,73
2025-02-25 18:33:12.602,-854.0,1851.0,-256.0,280.0,-128.0,-434.0,137,65,70,89,71
2025-02-25 18:33:12.610,-687.0,1804.0,-33.0,277.0,-125.0,-485.0,138,62,72,88,70
2025-02-25 18:33:12.614,-345.0,1542.0,47.0,282.0,-123.0,-548.0,137,61,73,88,72
2025-02-25 18:33:12.618,-180.0,1313.0,25.0,276.0,-130.0,-585.0,137,61,69,87,72
2025-02-25 18:33:12.623,29.0,1120.0,-9.0,251.0,-156.0,-640.0,138,61,70,87,70
2025-02-25 18:33:12.630,270.0,800.0,-59.0,233.0,-186.0,-669.0,141,62,70,88,71
2025-02-25 18:33:12.635,453.0,455.0,-133.0,186.0,-207.0,-669.0,140,59,66,89,73
2025-02-25 18:33:12.639,696.0,-26.0,-176.0,146.0,-266.0,-657.0,140,59,70,90,71
2025-02-25 18:33:12.647,1054.0,-300.0,-70.0,124.0,-320.0,-629.0,142,58,69,88,72
2025-02-25 18:33:12.651,1542.0,-1054.0,-24.0,95.0,-345.0,-603.0,143,59,72,88,71
2025-02-25 18:33:12.655,1942.0,-2043.0,306.0,81.0,-338.0,-581.0,145,62,73,88,71
2025-02-25 18:33:12.660,2221.0,-3196.0,758.0,98.0,-333.0,-516.0,144,58,71,85,71
2025-02-25 18:33:12.667,3129.0,-4328.0,1502.0,126.0,-299.0,-469.0,146,56,73,85,71
2025-02-25 18:33:12.671,3794.0,-5045.0,2485.0,143.0,-202.0,-349.0,149,60,75,83,71
2025-02-25 18:33:12.676,4179.0,-6032.0,2758.0,206.0,-72.0,-217.0,150,59,78,82,71
2025-02-25 18:33:12.683,4154.0,-6133.0,2929.0,298.0,53.0,-100.0,150,60,79,78,71
2025-02-25 18:33:12.688,3875.0,-5660.0,2813.0,310.0,179.0,-11.0,151,58,81,77,69
2025-02-25 18:33:12.692,3417.0,-5224.0,2113.0,350.0,248.0,44.0,150,57,85,74,65
2025-02-25 18:33:12.699,2859.0,-4025.0,1500.0,395.0,256.0,65.0,151,58,81,77,66
2025-02-25 18:33:12.704,2280.0,-4150.0,1718.0,276.0,258.0,125.0,152,59,83,77,65
2025-02-25 18:33:12.709,1784.0,-2798.0,1017.0,206.0,246.0,153.0,153,59,81,79,66
2025-02-25 18:33:12.712,932.0,-2306.0,547.0,41.0,209.0,198.0,147,60,81,77,68
2025-02-25 18:33:12.721,720.0,-1890.0,387.0,-134.0,170.0,210.0,151,57,73,78,65
2025-02-25 18:33:12.724,834.0,-1738.0,292.0,-228.0,59.0,196.0,154,60,74,81,70
2025-02-25 18:33:12.728,558.0,-1440.0,184.0,-244.0,-14.0,178.0,152,62,73,79,68
2025-02-25 18:33:12.733,468.0,-1667.0,43.0,-262.0,3.0,174.0,152,62,73,82,68
2025-02-25 18:33:12.741,400.0,-1987.0,173.0,-244.0,26.0,159.0,153,59,72,82,68
2025-02-25 18:33:12.745,410.0,-2062.0,423.0,-180.0,31.0,161.0,152,61,74,83,69
2025-02-25 18:33:12.749,389.0,-2542.0,458.0,-154.0,21.0,170.0,150,61,72,82,69
2025-02-25 18:33:12.753,235.0,-2442.0,257.0,-143.0,43.0,202.0,151,61,71,82,68
2025-02-25 18:33:12.761,227.0,-2180.0,654.0,-169.0,89.0,216.0,152,57,71,81,69
2025-02-25 18:33:12.765,200.0,-1999.0,566.0,-159.0,27.0,239.0,153,62,75,82,69
2025-02-25 18:33:12.770,316.0,-1566.0,625.0,-152.0,-2.0,248.0,151,60,73,81,70
2025-02-25 18:33:12.774,235.0,-1344.0,544.0,-128.0,-9.0,248.0,152,59,73,79,68
2025-02-25 18:33:12.782,237.0,-1128.0,349.0,-106.0,18.0,251.0,151,57,73,79,68
2025-02-25 18:33:12.786,160.0,-940.0,394.0,-74.0,37.0,248.0,152,62,77,80,68
2025-02-25 18:33:12.791,-9.0,-757.0,494.0,-53.0,15.0,241.0,151,61,75,78,69
2025-02-25 18:33:12.795,-4.0,-542.0,502.0,-56.0,7.0,241.0,152,61,75,80,69
2025-02-25 18:33:12.802,-32.0,-545.0,500.0,-101.0,24.0,240.0,152,61,75,79,70
2025-02-25 18:33:12.807,-202.0,-435.0,454.0,-117.0,33.0,244.0,152,57,73,82,69
2025-02-25 18:33:12.811,-172.0,-343.0,479.0,-141.0,33.0,242.0,151,61,71,80,68
2025-02-25 18:33:12.815,-172.0,-324.0,420.0,-137.0,31.0,239.0,152,62,73,82,69
2025-02-25 18:33:12.823,-226.0,-139.0,371.0,-119.0,41.0,232.0,153,61,75,83,70
2025-02-25 18:33:12.827,-246.0,-25.0,383.0,-119.0,70.0,223.0,153,61,72,83,71
2025-02-25 18:33:12.831,-320.0,42.0,399.0,-128.0,78.0,215.0,152,58,71,81,68
2025-02-25 18:33:12.836,-357.0,58.0,330.0,-122.0,73.0,210.0,154,60,69,84,72
2025-02-25 18:33:12.840,-454.0,140.0,263.0,-135.0,69.0,203.0,152,61,73,82,69
2025-02-25 18:33:12.847,-488.0,173.0,176.0,-138.0,71.0,194.0,151,60,74,83,69
2025-02-25 18:33:12.851,-530.0,276.0,76.0,-149.0,71.0,189.0,153,63,73,81,69
2025-02-25 18:33:12.856,-645.0,235.0,75.0,-138.0,60.0,174.0,153,62,74,82,70
2025-02-25 18:33:12.860,-696.0,289.0,16.0,-133.0,41.0,155.0,151,59,73,81,69
2025-02-25 18:33:12.868,-706.0,321.0,-85.0,-114.0,39.0,147.0,152,59,72,80,68
2025-02-25 18:33:12.872,-774.0,288.0,-54.0,-101.0,29.0,132.0,151,60,75,82,69
2025-02-25 18:33:12.876,-829.0,241.0,-100.0,-92.0,10.0,121.0,152,62,76,83,69
2025-02-25 18:33:12.880,-855.0,273.0,-103.0,-70.0,2.0,110.0,152,60,76,81,65
2025-02-25 18:33:12.884,-848.0,287.0,-80.0,-66.0,2.0,106.0,152,60,76,82,66
2025-02-25 18:33:12.893,-898.0,344.0,-82.0,-64.0,14.0,96.0,152,62,74,82,69
2025-02-25 18:33:12.897,-897.0,406.0,-95.0,-62.0,17.0,86.0,152,60,74,83,70
2025-02-25 18:33:12.901,-926.0,437.0,-83.0,-48.0,12.0,79.0,151,61,74,82,68
2025-02-25 18:33:12.905,-932.0,513.0,-73.0,-38.0,9.0,66.0,152,61,75,82,69
2025-02-25 18:33:12.910,-947.0,547.0,-123.0,-33.0,12.0,54.0,154,61,71,81,68
2025-02-25 18:33:12.917,-1000.0,550.0,-104.0,-30.0,17.0,48.0,153,62,72,84,70
2025-02-25 18:33:12.921,-1011.0,576.0,-110.0,-27.0,22.0,36.0,152,60,69,84,69
2025-02-25 18:33:12.926,-1052.0,615.0,-123.0,-26.0,22.0,25.0,151,59,70,82,67
2025-02-25 18:33:12.930,-1080.0,664.0,-141.0,-14.0,18.0,19.0,150,58,69,83,68
2025-02-25 18:33:12.938,-1073.0,604.0,-106.0,-1.0,13.0,5.0,153,61,70,83,69
2025-02-25 18:33:12.942,-1056.0,715.0,-110.0,3.0,10.0,-10.0,153,60,69,82,68
2025-02-25 18:33:12.946,-1065.0,702.0,-116.0,15.0,10.0,-18.0,151,58,66,80,67
2025-02-25 18:33:12.950,-1101.0,805.0,-124.0,31.0,7.0,-35.0,153,63,68,81,70
2025-02-25 18:33:12.955,-1146.0,808.0,-105.0,38.0,-6.0,-54.0,154,62,71,84,71
2025-02-25 18:33:12.962,-1153.0,895.0,-151.0,57.0,-11.0,-75.0,149,58,70,82,67
2025-02-25 18:33:12.967,-1188.0,871.0,-184.0,73.0,-21.0,-85.0,153,62,70,82,67
2025-02-25 18:33:12.971,-1219.0,906.0,-179.0,78.0,-19.0,-106.0,152,62,73,83,68
2025-02-25 18:33:12.978,-1242.0,872.0,-193.0,84.0,-18.0,-125.0,153,60,70,82,69
2025-02-25 18:33:12.982,-1230.0,840.0,-177.0,89.0,-18.0,-145.0,151,59,72,83,69
2025-02-25 18:33:12.987,-1225.0,829.0,-178.0,99.0,-21.0,-155.0,151,60,70,83,70
2025-02-25 18:33:12.991,-1187.0,764.0,-151.0,105.0,-22.0,-175.0,153,59,71,83,68
2025-02-25 18:33:12.999,-1166.0,742.0,-140.0,109.0,-17.0,-193.0,151,61,72,83,71
2025-02-25 18:33:13.003,-1106.0,681.0,-102.0,123.0,-16.0,-213.0,151,59,68,82,69
2025-02-25 18:33:13.007,-1073.0,631.0,-75.0,133.0,-16.0,-232.0,151,59,69,83,66
2025-02-25 18:33:13.015,-1011.0,618.0,-39.0,145.0,-18.0,-243.0,155,61,71,88,70
2025-02-25 18:33:13.019,-897.0,573.0,-17.0,154.0,-23.0,-266.0,152,63,72,84,69
2025-02-25 18:33:13.024,-796.0,544.0,-27.0,159.0,-30.0,-292.0,152,59,71,82,70
2025-02-25 18:33:13.028,-730.0,477.0,8.0,164.0,-36.0,-320.0,152,59,69,82,69
2025-02-25 18:33:13.032,-568.0,443.0,37.0,157.0,-51.0,-333.0,153,63,76,85,71
2025-02-25 18:33:13.040,-390.0,351.0,36.0,151.0,-70.0,-360.0,153,62,73,84,70
2025-02-25 18:33:13.044,-297.0,250.0,89.0,143.0,-83.0,-385.0,149,59,71,81,68
2025-02-25 18:33:13.048,-53.0,199.0,182.0,122.0,-105.0,-394.0,152,59,72,83,70
2025-02-25 18:33:13.053,242.0,-84.0,218.0,100.0,-127.0,-415.0,153,60,74,84,76
2025-02-25 18:33:13.060,546.0,-430.0,323.0,84.0,-144.0,-427.0,153,61,74,84,71
2025-02-25 18:33:13.065,706.0,-1017.0,506.0,59.0,-149.0,-424.0,152,58,73,85,68
2025-02-25 18:33:13.069,1078.0,-1434.0,711.0,48.0,-152.0,-419.0,153,59,73,83,69
2025-02-25 18:33:13.077,1515.0,-2383.0,827.0,43.0,-143.0,-395.0,155,61,75,84,73
2025-02-25 18:33:13.081,1947.0,-3327.0,1117.0,53.0,-115.0,-346.0,154,62,76,83,72
2025-02-25 18:33:13.085,2325.0,-4197.0,1454.0,59.0,-65.0,-273.0,153,59,76,80,68
2025-02-25 18:33:13.090,2505.0,-4750.0,1687.0,82.0,-31.0,-185.0,154,60,75,79,70
2025-02-25 18:33:13.097,2769.0,-5151.0,1837.0,109.0,48.0,-132.0,153,61,79,78,69
2025-02-25 18:33:13.102,2848.0,-5152.0,1762.0,114.0,128.0,-32.0,153,60,80,78,70
2025-02-25 18:33:13.106,2663.0,-4927.0,1620.0,138.0,179.0,46.0,154,59,81,76,69
2025-02-25 18:33:13.114,2378.0,-4418.0,1225.0,137.0,159.0,98.0,156,62,84,77,67
2025-02-25 18:33:13.118,2072.0,-3567.0,901.0,152.0,129.0,134.0,154,56,81,77,67
2025-02-25 18:33:13.122,1820.0,-3522.0,925.0,61.0,140.0,153.0,154,59,78,79,67
2025-02-25 18:33:13.127,1485.0,-2805.0,639.0,-29.0,129.0,170.0,155,60,78,79,68
2025-02-25 18:33:13.134,1076.0,-2463.0,522.0,-67.0,92.0,189.0,156,62,78,79,69
2025-02-25 18:33:13.139,710.0,-2203.0,340.0,-163.0,64.0,206.0,154,59,75,79,68
2025-02-25 18:33:13.143,779.0,-2217.0,169.0,-180.0,24.0,208.0,153,57,82,78,67
2025-02-25 18:33:13.147,645.0,-2113.0,169.0,-163.0,-2.0,201.0,157,60,77,81,69
2025-02-25 18:33:13.155,508.0,-2105.0,200.0,-158.0,21.0,198.0,153,61,77,82,66
2025-02-25 18:33:13.159,454.0,-2114.0,228.0,-121.0,40.0,209.0,154,61,75,79,68
2025-02-25 18:33:13.163,373.0,-2079.0,205.0,-96.0,46.0,212.0,153,65,75,78,73
2025-02-25 18:33:13.168,300.0,-1987.0,314.0,-93.0,48.0,220.0,153,59,75,81,70
2025-02-25 18:33:13.175,168.0,-1719.0,442.0,-105.0,62.0,241.0,151,62,79,86,72
2025-02-25 18:33:13.179,146.0,-1489.0,351.0,-134.0,62.0,256.0,154,62,78,81,69
2025-02-25 18:33:13.183,73.0,-1351.0,434.0,-124.0,27.0,256.0,152,61,77,82,71
2025-02-25 18:33:13.188,94.0,-1177.0,418.0,-126.0,-3.0,258.0,152,59,77,81,70
2025-02-25 18:33:13.196,33.0,-879.0,322.0,-114.0,-7.0,250.0,154,60,78,81,71
2025-02-25 18:33:13.199,-78.0,-771.0,301.0,-95.0,3.0,249.0,154,60,76,79,69
2025-02-25 18:33:13.204,-102.0,-639.0,325.0,-80.0,7.0,250.0,157,61,77,80,71
2025-02-25 18:33:13.214,-207.0,-533.0,341.0,-77.0,5.0,247.0,153,59,77,83,70
2025-02-25 18:33:13.216,-228.0,-477.0,379.0,-98.0,10.0,249.0,154,62,80,82,71
2025-02-25 18:33:13.220,-288.0,-358.0,362.0,-148.0,29.0,258.0,153,61,78,84,72
2025-02-25 18:33:13.224,-387.0,-321.0,369.0,-165.0,35.0,265.0,151,62,80,87,73
2025-02-25 18:33:13.228,-480.0,-201.0,253.0,-186.0,27.0,263.0,153,61,76,83,72
2025-02-25 18:33:13.236,-435.0,-105.0,174.0,-181.0,18.0,257.0,145,59,75,85,74
2025-02-25 18:33:13.240,-570.0,105.0,251.0,-157.0,40.0,247.0,153,64,75,86,75
2025-02-25 18:33:13.245,-553.0,299.0,158.0,-142.0,66.0,231.0,152,62,74,84,75
2025-02-25 18:33:13.249,-537.0,412.0,173.0,-124.0,77.0,213.0,153,63,75,86,75
2025-02-25 18:33:13.253,-529.0,397.0,161.0,-127.0,88.0,202.0,155,65,77,89,78
2025-02-25 18:33:13.261,-597.0,429.0,227.0,-143.0,85.0,182.0,155,64,76,86,78
2025-02-25 18:33:13.265,-678.0,477.0,158.0,-154.0,77.0,161.0,153,64,78,88,77
2025-02-25 18:33:13.269,-672.0,480.0,90.0,-166.0,58.0,151.0,151,62,78,90,80
2025-02-25 18:33:13.273,-690.0,456.0,101.0,-158.0,51.0,135.0,156,67,80,91,79
2025-02-25 18:33:13.281,-742.0,430.0,58.0,-150.0,43.0,119.0,154,66,81,93,80
2025-02-25 18:33:13.285,-734.0,347.0,59.0,-118.0,37.0,106.0,152,62,77,88,76
2025-02-25 18:33:13.290,-827.0,263.0,35.0,-93.0,33.0,103.0,154,63,79,91,78
2025-02-25 18:33:13.294,-835.0,218.0,-25.0,-87.0,26.0,95.0,155,67,80,90,79
2025-02-25 18:33:13.298,-826.0,207.0,-80.0,-81.0,23.0,89.0,154,65,80,88,78
2025-02-25 18:33:13.306,-826.0,165.0,-128.0,-88.0,17.0,87.0,154,67,82,89,82
2025-02-25 18:33:13.310,-827.0,125.0,-147.0,-88.0,12.0,83.0,154,65,80,89,80
2025-02-25 18:33:13.315,-831.0,128.0,-133.0,-91.0,13.0,81.0,150,65,81,90,80
2025-02-25 18:33:13.319,-846.0,134.0,-146.0,-91.0,15.0,80.0,152,67,82,92,83
2025-02-25 18:33:13.323,-842.0,175.0,-157.0,-91.0,15.0,77.0,153,67,77,90,81
2025-02-25 18:33:13.331,-850.0,196.0,-179.0,-80.0,15.0,71.0,150,68,82,90,80
2025-02-25 18:33:13.335,-864.0,212.0,-187.0,-67.0,10.0,67.0,155,66,82,95,83
2025-02-25 18:33:13.339,-877.0,238.0,-195.0,-59.0,4.0,57.0,152,70,83,95,85
2025-02-25 18:33:13.343,-875.0,314.0,-168.0,-51.0,0.0,44.0,152,68,85,91,83
2025-02-25 18:33:13.348,-877.0,349.0,-166.0,-33.0,-7.0,38.0,151,68,83,93,87
2025-02-25 18:33:13.355,-868.0,371.0,-167.0,-11.0,-16.0,25.0,155,70,86,98,85
2025-02-25 18:33:13.359,-875.0,412.0,-190.0,-1.0,-21.0,9.0,153,72,89,95,87
2025-02-25 18:33:13.364,-913.0,453.0,-207.0,21.0,-35.0,2.0,150,68,83,96,87
2025-02-25 18:33:13.368,-937.0,458.0,-194.0,48.0,-45.0,-9.0,153,72,87,98,91
2025-02-25 18:33:13.376,-976.0,486.0,-196.0,59.0,-49.0,-20.0,152,72,88,98,92
2025-02-25 18:33:13.380,-980.0,504.0,-214.0,80.0,-53.0,-25.0,152,71,87,98,92
2025-02-25 18:33:13.385,-1023.0,561.0,-224.0,98.0,-57.0,-35.0,151,73,90,100,94
2025-02-25 18:33:13.389,-1039.0,639.0,-245.0,106.0,-59.0,-47.0,152,74,91,100,96
2025-02-25 18:33:13.396,-1060.0,658.0,-247.0,119.0,-58.0,-58.0,151,75,93,101,99
2025-02-25 18:33:13.401,-1066.0,721.0,-224.0,136.0,-54.0,-73.0,151,75,92,102,97
2025-02-25 18:33:13.405,-1069.0,722.0,-235.0,160.0,-48.0,-80.0,152,77,96,104,101
2025-02-25 18:33:13.413,-1018.0,765.0,-236.0,183.0,-43.0,-103.0,152,80,97,104,103
2025-02-25 18:33:13.417,-1010.0,772.0,-238.0,206.0,-36.0,-127.0,151,84,98,106,106
2025-02-25 18:33:13.421,-1036.0,769.0,-247.0,217.0,-29.0,-151.0,151,85,100,107,106
2025-02-25 18:33:13.429,-1068.0,693.0,-306.0,239.0,-31.0,-175.0,152,88,103,105,106
2025-02-25 18:33:13.434,-1070.0,646.0,-304.0,250.0,-26.0,-196.0,150,90,102,105,108
2025-02-25 18:33:13.438,-1162.0,553.0,-487.0,266.0,-41.0,-209.0,150,96,103,106,108
2025-02-25 18:33:13.446,-1230.0,535.0,-538.0,283.0,-62.0,-218.0,151,96,105,106,108
2025-02-25 18:33:13.450,-1204.0,494.0,-621.0,294.0,-80.0,-238.0,150,103,106,109,108
2025-02-25 18:33:13.458,-1174.0,540.0,-729.0,308.0,-113.0,-262.0,152,108,108,112,112
2025-02-25 18:33:13.462,-1104.0,631.0,-667.0,311.0,-141.0,-285.0,153,113,108,113,111
2025-02-25 18:33:13.467,-877.0,742.0,-388.0,298.0,-165.0,-317.0,152,114,110,115,113
2025-02-25 18:33:13.474,-584.0,936.0,-403.0,281.0,-203.0,-369.0,152,116,108,117,114
2025-02-25 18:33:13.479,-186.0,655.0,-66.0,256.0,-221.0,-403.0,152,120,108,116,116
2025-02-25 18:33:13.483,173.0,202.0,655.0,244.0,-217.0,-426.0,154,119,108,118,115
2025-02-25 18:33:13.491,298.0,-45.0,636.0,210.0,-241.0,-441.0,153,122,111,117,116
2025-02-25 18:33:13.495,368.0,-49.0,478.0,173.0,-254.0,-467.0,153,125,111,118,120
2025-02-25 18:33:13.500,557.0,-322.0,295.0,159.0,-282.0,-476.0,154,123,112,119,118
2025-02-25 18:33:13.507,762.0,-515.0,252.0,127.0,-292.0,-478.0,153,123,111,119,118
2025-02-25 18:33:13.512,1005.0,-1012.0,352.0,81.0,-281.0,-467.0,155,128,112,120,120
2025-02-25 18:33:13.519,1582.0,-1625.0,373.0,62.0,-269.0,-442.0,155,128,114,122,121
2025-02-25 18:33:13.524,2120.0,-2277.0,645.0,28.0,-261.0,-401.0,156,129,114,122,120
2025-02-25 18:33:13.528,2485.0,-2819.0,1034.0,5.0,-233.0,-337.0,155,130,114,124,121
2025-02-25 18:33:13.536,2915.0,-3373.0,1344.0,-3.0,-179.0,-255.0,156,132,114,124,120
2025-02-25 18:33:13.540,2976.0,-3585.0,1865.0,-23.0,-100.0,-167.0,153,130,113,122,122
2025-02-25 18:33:13.547,2694.0,-3789.0,2119.0,-84.0,-109.0,-150.0,155,131,115,122,122
2025-02-25 18:33:13.552,2481.0,-3635.0,1595.0,-262.0,-216.0,-140.0,156,132,113,120,123
2025-02-25 18:33:13.557,2042.0,-4061.0,3586.0,-255.0,-140.0,-27.0,157,131,116,122,124
2025-02-25 18:33:13.564,1858.0,-3579.0,2193.0,-201.0,-93.0,61.0,155,133,114,122,125
2025-02-25 18:33:13.569,1796.0,-3591.0,236.0,-259.0,-94.0,143.0,156,130,113,121,125
2025-02-25 18:33:13.576,1614.0,-3433.0,568.0,-290.0,13.0,232.0,156,130,114,122,124
2025-02-25 18:33:13.580,1259.0,-2839.0,244.0,-314.0,124.0,294.0,156,131,110,121,125
2025-02-25 18:33:13.585,1114.0,-2406.0,233.0,-345.0,142.0,310.0,156,132,114,121,124
2025-02-25 18:33:13.593,902.0,-2349.0,172.0,-308.0,75.0,302.0,154,131,114,122,124
2025-02-25 18:33:13.597,845.0,-2106.0,785.0,-231.0,47.0,290.0,155,131,114,123,127
2025-02-25 18:33:13.602,842.0,-1651.0,1087.0,-89.0,107.0,284.0,157,131,116,124,128
2025-02-25 18:33:13.610,633.0,-1954.0,1471.0,-6.0,174.0,296.0,157,133,112,123,127
2025-02-25 18:33:13.614,176.0,-1760.0,-90.0,-9.0,83.0,268.0,156,132,114,126,126
2025-02-25 18:33:13.618,-3.0,-1429.0,-745.0,-20.0,16.0,227.0,155,132,113,123,126
2025-02-25 18:33:13.626,0.0,-1460.0,-86.0,-16.0,-79.0,212.0,154,130,110,123,127
2025-02-25 18:33:13.630,287.0,-1276.0,589.0,20.0,-55.0,200.0,159,132,115,125,127
2025-02-25 18:33:13.634,368.0,-1016.0,560.0,127.0,-41.0,183.0,159,133,116,130,127
2025-02-25 18:33:13.642,291.0,-1050.0,861.0,193.0,5.0,177.0,157,132,113,124,126
2025-02-25 18:33:13.646,242.0,-986.0,854.0,218.0,36.0,162.0,154,130,114,124,126
2025-02-25 18:33:13.651,251.0,-1069.0,710.0,193.0,56.0,161.0,153,132,114,123,126
2025-02-25 18:33:13.655,77.0,-1063.0,-303.0,110.0,19.0,157.0,154,132,113,122,125
2025-02-25 18:33:13.663,-126.0,-795.0,-491.0,18.0,-76.0,140.0,156,133,114,124,126
2025-02-25 18:33:13.667,-190.0,-598.0,-312.0,44.0,-125.0,140.0,157,135,117,123,126
2025-02-25 18:33:13.672,-77.0,-622.0,695.0,54.0,-41.0,168.0,156,135,116,125,127
2025-02-25 18:33:13.679,-196.0,-585.0,757.0,65.0,57.0,192.0,156,136,117,126,129
2025-02-25 18:33:13.684,-251.0,-536.0,520.0,96.0,91.0,207.0,154,133,115,124,126
2025-02-25 18:33:13.687,-249.0,-591.0,349.0,111.0,142.0,208.0,154,131,115,125,127
2025-02-25 18:33:13.695,-199.0,-456.0,373.0,67.0,179.0,216.0,159,143,120,128,137
2025-02-25 18:33:13.699,-214.0,-204.0,284.0,23.0,181.0,215.0,157,139,118,126,129
2025-02-25 18:33:13.704,-383.0,-197.0,-199.0,-6.0,130.0,204.0,157,133,114,126,128
2025-02-25 18:33:13.712,-504.0,-225.0,128.0,-43.0,113.0,195.0,156,135,115,126,128
2025-02-25 18:33:13.716,-521.0,-151.0,361.0,-27.0,115.0,187.0,155,136,116,126,129
2025-02-25 18:33:13.720,-466.0,-60.0,310.0,-1.0,127.0,171.0,155,134,116,124,126
2025-02-25 18:33:13.728,-439.0,-94.0,320.0,9.0,132.0,162.0,156,135,118,125,128
2025-02-25 18:33:13.732,-534.0,-67.0,238.0,12.0,135.0,148.0,153,134,119,126,127
2025-02-25 18:33:13.736,-605.0,-67.0,129.0,15.0,136.0,142.0,156,135,118,127,128
2025-02-25 18:33:13.744,-739.0,-35.0,24.0,-7.0,128.0,129.0,153,134,117,126,126
2025-02-25 18:33:13.748,-745.0,0.0,124.0,-17.0,114.0,123.0,154,131,117,126,127
2025-02-25 18:33:13.753,-784.0,1.0,59.0,-39.0,102.0,113.0,156,135,119,125,129
2025-02-25 18:33:13.757,-834.0,81.0,22.0,-47.0,84.0,100.0,155,136,119,128,129
2025-02-25 18:33:13.765,-901.0,123.0,-10.0,-49.0,71.0,87.0,154,134,118,125,127
2025-02-25 18:33:13.769,-922.0,188.0,-89.0,-59.0,65.0,75.0,149,132,118,126,126
2025-02-25 18:33:13.773,-1012.0,223.0,-142.0,-62.0,50.0,69.0,155,133,119,128,129
2025-02-25 18:33:13.781,-1075.0,218.0,-169.0,-68.0,42.0,62.0,155,135,119,127,130
2025-02-25 18:33:13.785,-1125.0,226.0,-187.0,-70.0,30.0,53.0,154,134,119,128,129
2025-02-25 18:33:13.789,-1093.0,212.0,-158.0,-71.0,19.0,43.0,154,135,118,128,131
2025-02-25 18:33:13.794,-1080.0,241.0,-120.0,-76.0,13.0,29.0,153,131,117,126,127
2025-02-25 18:33:13.802,-1072.0,264.0,-129.0,-71.0,-9.0,22.0,154,133,117,128,129
2025-02-25 18:33:13.806,-1060.0,281.0,-40.0,-78.0,-22.0,7.0,154,132,120,128,127
2025-02-25 18:33:13.811,-1065.0,346.0,-72.0,-72.0,-34.0,-8.0,155,135,119,128,128
2025-02-25 18:33:13.818,-1103.0,386.0,-59.0,-70.0,-41.0,-23.0,153,133,120,128,130
2025-02-25 18:33:13.823,-1127.0,451.0,-99.0,-62.0,-44.0,-38.0,154,134,119,126,127
2025-02-25 18:33:13.827,-1132.0,511.0,-99.0,-51.0,-44.0,-51.0,153,135,117,125,127
2025-02-25 18:33:13.835,-1173.0,586.0,-109.0,-34.0,-41.0,-66.0,155,133,120,126,126
2025-02-25 18:33:13.839,-1233.0,615.0,-151.0,-10.0,-43.0,-73.0,154,132,116,127,128
2025-02-25 18:33:13.843,-1251.0,629.0,-120.0,16.0,-40.0,-88.0,159,135,118,130,129
2025-02-25 18:33:13.851,-1271.0,653.0,-57.0,55.0,-20.0,-105.0,154,133,118,128,129
2025-02-25 18:33:13.856,-1309.0,583.0,-219.0,79.0,-32.0,-122.0,154,135,120,129,130
2025-02-25 18:33:13.863,-1270.0,467.0,-103.0,82.0,-24.0,-138.0,153,134,118,127,128
2025-02-25 18:33:13.867,-1260.0,466.0,-125.0,119.0,-29.0,-156.0,153,134,119,128,127
2025-02-25 18:33:13.872,-1204.0,413.0,-21.0,143.0,-25.0,-173.0,153,135,118,124,125
2025-02-25 18:33:13.880,-1156.0,431.0,29.0,171.0,-22.0,-191.0,154,132,118,127,127
2025-02-25 18:33:13.885,-1078.0,425.0,-14.0,184.0,-22.0,-198.0,154,132,117,127,127
2025-02-25 18:33:13.890,-1046.0,453.0,-4.0,198.0,-21.0,-214.0,153,133,114,127,126
2025-02-25 18:33:13.896,-950.0,443.0,-10.0,206.0,-28.0,-231.0,155,133,117,126,129
2025-02-25 18:33:13.901,-834.0,430.0,56.0,206.0,-35.0,-250.0,155,135,119,128,128
2025-02-25 18:33:13.905,-725.0,428.0,79.0,199.0,-43.0,-271.0,153,129,118,128,122
2025-02-25 18:33:13.913,-599.0,431.0,60.0,187.0,-59.0,-295.0,153,131,117,124,127
2025-02-25 18:33:13.917,-507.0,394.0,81.0,169.0,-66.0,-319.0,155,133,117,127,128
2025-02-25 18:33:13.922,-331.0,351.0,121.0,143.0,-82.0,-333.0,153,131,116,126,128
2025-02-25 18:33:13.929,-113.0,258.0,125.0,115.0,-100.0,-362.0,154,134,118,128,125
2025-02-25 18:33:13.933,138.0,84.0,132.0,92.0,-121.0,-388.0,155,134,119,128,129
2025-02-25 18:33:13.938,408.0,-250.0,163.0,76.0,-140.0,-410.0,156,136,119,129,127
2025-02-25 18:33:13.945,636.0,-687.0,303.0,46.0,-157.0,-420.0,155,135,119,127,126
2025-02-25 18:33:13.950,750.0,-1330.0,277.0,12.0,-168.0,-412.0,152,129,117,127,126
2025-02-25 18:33:13.954,1040.0,-2021.0,453.0,-22.0,-185.0,-387.0,152,132,115,126,126
2025-02-25 18:33:13.962,1434.0,-2619.0,621.0,-55.0,-190.0,-350.0,154,130,114,125,128
2025-02-25 18:33:13.966,1889.0,-3193.0,754.0,-91.0,-193.0,-327.0,154,133,114,126,127
2025-02-25 18:33:13.974,2249.0,-3410.0,1011.0,-126.0,-170.0,-268.0,153,131,112,125,126
2025-02-25 18:33:13.978,2581.0,-3551.0,1076.0,-172.0,-136.0,-202.0,154,130,113,127,128
2025-02-25 18:33:13.986,2742.0,-3370.0,1241.0,-264.0,-146.0,-146.0,153,130,111,125,127
2025-02-25 18:33:13.990,2618.0,-3727.0,1739.0,-233.0,-76.0,-74.0,155,129,111,125,128
2025-02-25 18:33:13.994,2404.0,-3546.0,1379.0,-239.0,-68.0,-24.0,154,130,112,124,125
2025-02-25 18:33:14.002,2305.0,-3671.0,1570.0,-211.0,-56.0,40.0,156,131,112,126,129
2025-02-25 18:33:14.007,1959.0,-3543.0,919.0,-164.0,18.0,127.0,157,130,111,126,128
2025-02-25 18:33:14.011,1595.0,-3347.0,513.0,-192.0,80.0,204.0,157,130,110,126,127
2025-02-25 18:33:14.019,1391.0,-2903.0,127.0,-227.0,110.0,249.0,158,127,107,126,127
2025-02-25 18:33:14.023,1142.0,-2616.0,108.0,-239.0,109.0,282.0,157,129,110,125,126
2025-02-25 18:33:14.028,843.0,-2318.0,88.0,-248.0,74.0,298.0,157,125,107,124,125
2025-02-25 18:33:14.036,655.0,-2034.0,185.0,-247.0,64.0,305.0,156,126,106,124,124
2025-02-25 18:33:14.040,613.0,-1877.0,362.0,-230.0,55.0,305.0,155,126,107,125,125
2025-02-25 18:33:14.048,555.0,-1820.0,646.0,-167.0,89.0,294.0,157,122,106,121,125
2025-02-25 18:33:14.052,332.0,-1781.0,-411.0,-121.0,102.0,280.0,157,130,108,125,126
2025-02-25 18:33:14.056,133.0,-1460.0,-741.0,-63.0,-24.0,241.0,158,126,109,126,124
2025-02-25 18:33:14.064,126.0,-1500.0,89.0,-13.0,-49.0,217.0,157,128,111,130,124
2025-02-25 18:33:14.068,204.0,-1221.0,138.0,4.0,-43.0,195.0,156,126,108,126,124
2025-02-25 18:33:14.073,199.0,-1076.0,257.0,49.0,-39.0,177.0,155,127,107,125,122
2025-02-25 18:33:14.080,193.0,-1094.0,380.0,100.0,-27.0,169.0,156,126,108,124,122
2025-02-25 18:33:14.084,-6.0,-1103.0,354.0,165.0,-40.0,167.0,155,125,106,126,121
2025-02-25 18:33:14.088,-43.0,-1029.0,641.0,195.0,-33.0,168.0,157,129,110,127,122
2025-02-25 18:33:14.093,-57.0,-979.0,524.0,151.0,-8.0,180.0,152,129,109,126,123
2025-02-25 18:33:14.101,-59.0,-820.0,-1.0,117.0,-13.0,196.0,156,127,109,125,122
2025-02-25 18:33:14.105,-148.0,-545.0,-74.0,93.0,-21.0,203.0,153,122,108,127,121
2025-02-25 18:33:14.109,-139.0,-613.0,268.0,111.0,0.0,213.0,155,128,109,125,119
2025-02-25 18:33:14.117,-281.0,-659.0,408.0,92.0,68.0,225.0,158,128,110,127,121
2025-02-25 18:33:14.121,-267.0,-573.0,223.0,71.0,95.0,236.0,156,129,110,127,120
2025-02-25 18:33:14.125,-266.0,-451.0,253.0,68.0,132.0,245.0,158,128,112,127,120
2025-02-25 18:33:14.133,-294.0,-320.0,400.0,66.0,173.0,248.0,157,128,113,127,120
2025-02-25 18:33:14.137,-296.0,-234.0,222.0,45.0,182.0,254.0,156,129,112,124,119
2025-02-25 18:33:14.142,-331.0,-112.0,-65.0,-7.0,182.0,251.0,155,126,114,126,120
2025-02-25 18:33:14.150,-471.0,-104.0,42.0,-43.0,190.0,242.0,156,129,114,127,121
2025-02-25 18:33:14.154,-536.0,61.0,-52.0,-70.0,163.0,226.0,154,128,118,127,121
2025-02-25 18:33:14.158,-574.0,99.0,-65.0,-83.0,122.0,206.0,157,128,117,125,122
2025-02-25 18:33:14.163,-656.0,141.0,254.0,-75.0,103.0,187.0,156,126,116,125,119
2025-02-25 18:33:14.170,-656.0,173.0,143.0,-62.0,97.0,168.0,154,127,114,126,120
2025-02-25 18:33:14.175,-682.0,194.0,-84.0,-43.0,93.0,161.0,155,127,114,125,119
2025-02-25 18:33:14.179,-853.0,302.0,-277.0,-38.0,75.0,146.0,156,128,115,128,120
2025-02-25 18:33:14.187,-852.0,285.0,-170.0,-52.0,65.0,135.0,157,128,118,125,118
2025-02-25 18:33:14.191,-904.0,410.0,-169.0,-59.0,52.0,123.0,158,131,115,125,117
2025-02-25 18:33:14.195,-928.0,436.0,-214.0,-78.0,43.0,111.0,155,128,115,124,117
2025-02-25 18:33:14.203,-991.0,447.0,-187.0,-102.0,21.0,96.0,155,126,112,122,114
2025-02-25 18:33:14.207,-987.0,420.0,-174.0,-114.0,15.0,90.0,156,125,112,121,113
2025-02-25 18:33:14.212,-1014.0,432.0,13.0,-123.0,8.0,72.0,155,125,113,122,112
2025-02-25 18:33:14.220,-1086.0,425.0,-210.0,-129.0,2.0,59.0,156,120,112,122,112
2025-02-25 18:33:14.224,-1038.0,446.0,-182.0,-136.0,0.0,45.0,152,116,108,119,108
2025-02-25 18:33:14.229,-1044.0,469.0,-61.0,-152.0,0.0,29.0,154,110,107,118,105
2025-02-25 18:33:14.236,-1077.0,592.0,-415.0,-171.0,-29.0,18.0,153,106,105,115,104
2025-02-25 18:33:14.240,-1181.0,631.0,-285.0,-166.0,-41.0,3.0,156,104,104,116,103
2025-02-25 18:33:14.245,-1213.0,625.0,-261.0,-166.0,-44.0,-12.0,155,97,100,112,98
2025-02-25 18:33:14.252,-1281.0,680.0,-340.0,-139.0,-60.0,-32.0,156,92,99,108,94
2025-02-25 18:33:14.257,-1273.0,663.0,-304.0,-115.0,-71.0,-54.0,157,89,100,107,93
2025-02-25 18:33:14.260,-1201.0,696.0,-211.0,-83.0,-71.0,-76.0,155,87,98,104,89
2025-02-25 18:33:14.265,-1183.0,775.0,-128.0,-37.0,-64.0,-94.0,154,82,95,101,86
2025-02-25 18:33:14.273,-1126.0,755.0,98.0,8.0,-42.0,-106.0,157,79,97,98,84
2025-02-25 18:33:14.277,-1116.0,837.0,105.0,59.0,-18.0,-131.0,157,71,95,97,80
2025-02-25 18:33:14.281,-1141.0,865.0,171.0,87.0,9.0,-155.0,155,74,94,93,76
2025-02-25 18:33:14.285,-1151.0,880.0,27.0,131.0,17.0,-169.0,156,68,92,88,72
2025-02-25 18:33:14.293,-1190.0,852.0,54.0,168.0,42.0,-190.0,156,65,89,87,70
2025-02-25 18:33:14.298,-1332.0,832.0,94.0,184.0,72.0,-204.0,156,60,85,81,66
2025-02-25 18:33:14.301,-1352.0,739.0,165.0,213.0,90.0,-206.0,157,57,80,76,62
2025-02-25 18:33:14.306,-1206.0,674.0,-58.0,241.0,89.0,-205.0,156,56,79,75,61
2025-02-25 18:33:14.313,-1065.0,349.0,240.0,239.0,120.0,-206.0,154,54,78,73,60
2025-02-25 18:33:14.318,-1222.0,16.0,1244.0,197.0,209.0,-203.0,155,54,74,74,59
2025-02-25 18:33:14.322,-1131.0,196.0,145.0,243.0,209.0,-210.0,154,53,71,72,58
2025-02-25 18:33:14.326,-1339.0,75.0,70.0,350.0,206.0,-216.0,154,52,70,72,59
2025-02-25 18:33:14.334,-1379.0,-17.0,228.0,397.0,193.0,-223.0,155,51,71,74,60
2025-02-25 18:33:14.339,-1072.0,217.0,-372.0,396.0,101.0,-253.0,155,54,70,76,60
2025-02-25 18:33:14.343,-450.0,766.0,-1229.0,352.0,32.0,-295.0,155,53,70,75,61
2025-02-25 18:33:14.351,-299.0,813.0,-1662.0,274.0,-89.0,-311.0,154,55,68,74,62
2025-02-25 18:33:14.355,-94.0,1176.0,-1193.0,230.0,-111.0,-364.0,155,54,69,73,61
2025-02-25 18:33:14.359,-154.0,1136.0,-778.0,187.0,-75.0,-426.0,157,55,66,72,62
2025-02-25 18:33:14.364,-419.0,655.0,-34.0,175.0,-125.0,-493.0,154,55,66,69,62
2025-02-25 18:33:14.371,7.0,499.0,-64.0,163.0,-197.0,-536.0,155,55,66,68,63
2025-02-25 18:33:14.376,484.0,429.0,-250.0,126.0,-345.0,-543.0,156,53,63,69,64
2025-02-25 18:33:14.380,1122.0,125.0,7.0,57.0,-378.0,-544.0,156,54,64,70,64
2025-02-25 18:33:14.384,1802.0,-552.0,362.0,20.0,-323.0,-533.0,156,55,66,70,59
2025-02-25 18:33:14.392,2101.0,-1782.0,1047.0,1.0,-306.0,-505.0,154,54,66,67,66
2025-02-25 18:33:14.396,2947.0,-2433.0,1788.0,38.0,-297.0,-477.0,157,55,67,67,65
2025-02-25 18:33:14.400,3601.0,-3795.0,2620.0,91.0,-260.0,-387.0,156,55,68,68,67
2025-02-25 18:33:14.408,3873.0,-4768.0,2943.0,120.0,-149.0,-252.0,158,55,68,68,66
2025-02-25 18:33:14.412,3949.0,-5385.0,3262.0,137.0,-11.0,-110.0,157,55,67,67,66
2025-02-25 18:33:14.416,3966.0,-5344.0,3127.0,165.0,104.0,1.0,157,56,71,65,67
2025-02-25 18:33:14.424,3832.0,-5006.0,2444.0,175.0,150.0,83.0,155,55,71,64,65
2025-02-25 18:33:14.429,3205.0,-4735.0,1704.0,146.0,231.0,116.0,156,58,74,65,67
2025-02-25 18:33:14.433,2439.0,-3537.0,1401.0,52.0,288.0,178.0,157,57,79,64,66
2025-02-25 18:33:14.437,1773.0,-2296.0,692.0,-4.0,274.0,204.0,157,56,76,64,64
2025-02-25 18:33:14.445,1439.0,-1410.0,184.0,-82.0,226.0,185.0,156,57,76,63,63
2025-02-25 18:33:14.449,957.0,-1362.0,18.0,-167.0,101.0,182.0,155,55,72,66,63
2025-02-25 18:33:14.453,822.0,-1367.0,6.0,-227.0,-11.0,156.0,156,59,73,66,64
2025-02-25 18:33:14.458,715.0,-1555.0,-15.0,-254.0,-18.0,156.0,158,59,69,66,66
2025-02-25 18:33:14.465,809.0,-1971.0,361.0,-302.0,-25.0,159.0,155,57,65,66,62
2025-02-25 18:33:14.470,517.0,-2333.0,242.0,-252.0,-25.0,168.0,156,58,67,66,62
2025-02-25 18:33:14.474,637.0,-2500.0,216.0,-197.0,-80.0,177.0,157,64,71,69,66
2025-02-25 18:33:14.482,442.0,-2473.0,228.0,-165.0,-70.0,200.0,157,59,69,69,65
2025-02-25 18:33:14.486,655.0,-2267.0,396.0,-128.0,-53.0,213.0,156,49,69,69,63
2025-02-25 18:33:14.490,504.0,-1907.0,458.0,-76.0,-10.0,223.0,155,58,69,68,66
2025-02-25 18:33:14.495,575.0,-1765.0,492.0,-39.0,-2.0,227.0,157,59,73,71,67
2025-02-25 18:33:14.502,361.0,-1453.0,486.0,-23.0,-37.0,236.0,157,58,70,68,67
2025-02-25 18:33:14.506,236.0,-1246.0,474.0,-8.0,-48.0,242.0,157,58,71,68,65
2025-02-25 18:33:14.510,210.0,-1054.0,332.0,-36.0,-39.0,244.0,154,57,71,66,66
2025-02-25 18:33:14.515,32.0,-964.0,346.0,-41.0,-33.0,251.0,158,61,76,68,68
2025-02-25 18:33:14.522,16.0,-757.0,329.0,-37.0,-31.0,246.0,156,57,73,67,67
2025-02-25 18:33:14.526,-21.0,-603.0,347.0,-29.0,-29.0,242.0,155,58,73,67,67
2025-02-25 18:33:14.531,-71.0,-588.0,328.0,-26.0,-25.0,243.0,157,60,75,68,67
2025-02-25 18:33:14.535,-223.0,-468.0,308.0,-25.0,-11.0,236.0,157,57,73,68,66
2025-02-25 18:33:14.539,-245.0,-311.0,361.0,-43.0,-7.0,233.0,154,58,72,70,67
2025-02-25 18:33:14.547,-301.0,-201.0,350.0,-51.0,12.0,229.0,155,58,70,68,66
2025-02-25 18:33:14.552,-397.0,-138.0,351.0,-62.0,24.0,222.0,157,60,71,70,68
2025-02-25 18:33:14.555,-487.0,5.0,317.0,-74.0,42.0,214.0,157,62,71,74,69
2025-02-25 18:33:14.560,-521.0,189.0,269.0,-89.0,48.0,203.0,155,58,65,72,69
2025-02-25 18:33:14.568,-597.0,219.0,180.0,-104.0,55.0,196.0,157,58,66,71,70
2025-02-25 18:33:14.572,-618.0,249.0,208.0,-95.0,49.0,174.0,156,58,66,71,67
2025-02-25 18:33:14.584,-652.0,236.0,131.0,-84.0,44.0,158.0,156,59,67,71,67
2025-02-25 18:33:14.586,-707.0,291.0,125.0,-79.0,51.0,147.0,155,57,67,72,67
2025-02-25 18:33:14.588,-789.0,186.0,7.0,-74.0,54.0,130.0,156,58,68,72,68
2025-02-25 18:33:14.592,-811.0,141.0,54.0,-69.0,44.0,119.0,154,58,68,72,69
2025-02-25 18:33:14.596,-875.0,65.0,-21.0,-64.0,31.0,114.0,156,60,70,72,70
2025-02-25 18:33:14.600,-985.0,-28.0,-7.0,-76.0,32.0,112.0,156,59,70,72,70
2025-02-25 18:33:14.605,-841.0,14.0,-84.0,-78.0,32.0,105.0,154,58,70,72,69
2025-02-25 18:33:14.609,-991.0,-8.0,-80.0,-71.0,14.0,101.0,155,58,70,72,69
2025-02-25 18:33:14.613,-962.0,4.0,-66.0,-76.0,10.0,93.0,158,58,72,75,71
2025-02-25 18:33:14.621,-1006.0,69.0,-191.0,-69.0,14.0,86.0,155,59,72,71,70
2025-02-25 18:33:14.625,-1011.0,79.0,-120.0,-72.0,15.0,81.0,154,58,70,71,68
2025-02-25 18:33:14.629,-1033.0,129.0,-125.0,-62.0,7.0,71.0,156,58,72,75,70
2025-02-25 18:33:14.633,-1001.0,200.0,-59.0,-64.0,-1.0,56.0,156,57,69,71,74
2025-02-25 18:33:14.641,-997.0,233.0,-89.0,-65.0,-6.0,49.0,155,57,70,70,68
2025-02-25 18:33:14.646,-1023.0,250.0,-64.0,-54.0,-11.0,31.0,155,59,74,72,68
2025-02-25 18:33:14.650,-1002.0,281.0,-46.0,-50.0,-14.0,15.0,157,59,74,72,69
2025-02-25 18:33:14.654,-1035.0,266.0,-64.0,-31.0,-18.0,8.0,155,56,74,73,71
2025-02-25 18:33:14.658,-1023.0,241.0,-28.0,-29.0,-22.0,-3.0,157,59,73,73,70
2025-02-25 18:33:14.666,-1039.0,215.0,-55.0,-28.0,-22.0,-11.0,156,57,72,71,70
2025-02-25 18:33:14.670,-1033.0,210.0,-32.0,-21.0,-21.0,-15.0,157,58,71,72,68
2025-02-25 18:33:14.674,-1031.0,223.0,-23.0,-10.0,-15.0,-27.0,157,60,69,71,70
2025-02-25 18:33:14.679,-1047.0,233.0,-1.0,-1.0,-9.0,-38.0,155,59,71,75,70
2025-02-25 18:33:14.686,-1051.0,292.0,6.0,11.0,-7.0,-51.0,154,60,72,66,67
2025-02-25 18:33:14.691,-1046.0,314.0,-12.0,14.0,1.0,-56.0,157,60,74,75,71
2025-02-25 18:33:14.695,-1074.0,354.0,-20.0,17.0,9.0,-68.0,158,59,74,73,70
2025-02-25 18:33:14.699,-1107.0,358.0,3.0,26.0,11.0,-82.0,156,58,73,73,68
2025-02-25 18:33:14.704,-1100.0,340.0,-18.0,40.0,12.0,-90.0,158,59,77,73,69
2025-02-25 18:33:14.711,-1131.0,355.0,-24.0,52.0,12.0,-105.0,158,62,74,72,70
2025-02-25 18:33:14.716,-1145.0,394.0,-45.0,60.0,11.0,-119.0,155,59,75,73,70
2025-02-25 18:33:14.720,-1167.0,409.0,-60.0,72.0,11.0,-126.0,157,60,74,73,71
2025-02-25 18:33:14.724,-1222.0,496.0,-100.0,89.0,7.0,-142.0,156,58,71,73,71
2025-02-25 18:33:14.732,-1269.0,577.0,-100.0,93.0,3.0,-159.0,157,59,71,72,71
2025-02-25 18:33:14.736,-1250.0,625.0,-120.0,107.0,-2.0,-168.0,154,67,71,72,63
2025-02-25 18:33:14.740,-1197.0,658.0,-95.0,104.0,-5.0,-189.0,156,58,73,75,71
2025-02-25 18:33:14.744,-1166.0,615.0,-69.0,108.0,-15.0,-212.0,157,57,73,75,70
2025-02-25 18:33:14.752,-1042.0,603.0,-57.0,111.0,-19.0,-237.0,156,58,70,74,70
2025-02-25 18:33:14.756,-1020.0,546.0,-87.0,114.0,-22.0,-264.0,156,59,71,75,70
2025-02-25 18:33:14.760,-864.0,489.0,-67.0,113.0,-26.0,-279.0,154,58,71,71,72
2025-02-25 18:33:14.765,-718.0,434.0,-65.0,108.0,-36.0,-304.0,155,60,72,74,70
2025-02-25 18:33:14.772,-532.0,362.0,-42.0,104.0,-47.0,-330.0,155,58,71,74,70
2025-02-25 18:33:14.776,-432.0,321.0,-55.0,86.0,-56.0,-357.0,155,59,71,75,72
2025-02-25 18:33:14.781,-202.0,275.0,-31.0,64.0,-78.0,-370.0,156,59,71,74,71
2025-02-25 18:33:14.785,116.0,214.0,-13.0,48.0,-102.0,-395.0,156,59,70,75,71
2025-02-25 18:33:14.792,288.0,15.0,36.0,11.0,-113.0,-414.0,156,60,71,79,69
2025-02-25 18:33:14.798,582.0,-178.0,98.0,-23.0,-135.0,-419.0,156,58,69,75,72
2025-02-25 18:33:14.802,896.0,-658.0,176.0,-50.0,-150.0,-417.0,157,60,72,75,72
2025-02-25 18:33:14.805,1270.0,-1363.0,346.0,-60.0,-150.0,-399.0,155,60,72,76,73
2025-02-25 18:33:14.813,1507.0,-2223.0,519.0,-60.0,-145.0,-371.0,155,59,72,75,73
2025-02-25 18:33:14.817,1942.0,-3095.0,763.0,-51.0,-124.0,-320.0,157,58,74,76,74
2025-02-25 18:33:14.823,2337.0,-3499.0,1028.0,-26.0,-86.0,-285.0,155,59,76,73,72
2025-02-25 18:33:14.830,2727.0,-4172.0,1138.0,0.0,-27.0,-209.0,157,60,75,76,74
2025-02-25 18:33:14.835,2858.0,-4491.0,1328.0,14.0,36.0,-121.0,157,60,76,75,74
2025-02-25 18:33:14.838,2902.0,-4529.0,1356.0,28.0,63.0,-39.0,156,61,78,73,71
2025-02-25 18:33:14.842,2778.0,-4359.0,1222.0,52.0,120.0,1.0,158,60,77,71,69
2025-02-25 18:33:14.850,2653.0,-4197.0,893.0,83.0,132.0,53.0,158,61,78,72,71
2025-02-25 18:33:14.854,2269.0,-3675.0,546.0,117.0,108.0,94.0,156,61,78,71,69
2025-02-25 18:33:14.859,2135.0,-3354.0,383.0,102.0,104.0,134.0,161,61,76,73,69
2025-02-25 18:33:14.863,1835.0,-3155.0,257.0,33.0,95.0,149.0,159,58,73,75,67
2025-02-25 18:33:14.871,1397.0,-2690.0,68.0,-20.0,73.0,173.0,157,61,74,76,71
2025-02-25 18:33:14.875,1026.0,-2384.0,20.0,-67.0,45.0,197.0,158,62,77,74,71
2025-02-25 18:33:14.879,994.0,-2134.0,-109.0,-103.0,28.0,211.0,155,56,72,73,71
2025-02-25 18:33:14.884,838.0,-2085.0,68.0,-114.0,-14.0,197.0,154,56,72,75,67
2025-02-25 18:33:14.891,1034.0,-1930.0,78.0,-122.0,-18.0,181.0,157,59,74,76,72
2025-02-25 18:33:14.896,605.0,-1939.0,-37.0,-109.0,10.0,183.0,159,61,75,77,72
2025-02-25 18:33:14.900,507.0,-1993.0,174.0,-93.0,19.0,190.0,157,61,75,74,69
2025-02-25 18:33:14.905,439.0,-1968.0,126.0,-66.0,19.0,197.0,156,60,70,77,73
2025-02-25 18:33:14.912,356.0,-1805.0,208.0,-63.0,14.0,206.0,156,61,78,77,73
2025-02-25 18:33:14.916,311.0,-1595.0,193.0,-83.0,23.0,226.0,155,58,76,72,72
2025-02-25 18:33:14.920,273.0,-1528.0,259.0,-93.0,19.0,232.0,156,60,77,75,72
2025-02-25 18:33:14.924,120.0,-1407.0,309.0,-123.0,10.0,245.0,160,61,76,74,72
2025-02-25 18:33:14.932,146.0,-1184.0,321.0,-142.0,15.0,249.0,156,60,78,77,73
2025-02-25 18:33:14.936,112.0,-914.0,282.0,-184.0,16.0,261.0,158,63,81,77,75
2025-02-25 18:33:14.941,-156.0,-885.0,151.0,-210.0,29.0,268.0,155,59,75,76,71
2025-02-25 18:33:14.945,-245.0,-732.0,162.0,-180.0,23.0,279.0,156,60,79,77,72
2025-02-25 18:33:14.953,-270.0,-624.0,244.0,-174.0,2.0,275.0,155,62,76,77,73
2025-02-25 18:33:14.957,-328.0,-454.0,222.0,-181.0,-4.0,274.0,154,60,76,79,72
2025-02-25 18:33:14.961,-393.0,-343.0,123.0,-185.0,-8.0,276.0,156,60,75,77,72
2025-02-25 18:33:14.966,-436.0,-234.0,178.0,-157.0,-8.0,278.0,156,61,77,79,73
2025-02-25 18:33:14.973,-420.0,-167.0,228.0,-156.0,-4.0,271.0,158,62,77,78,74
2025-02-25 18:33:14.977,-452.0,-88.0,258.0,-153.0,10.0,263.0,155,61,76,78,73
2025-02-25 18:33:14.982,-554.0,49.0,245.0,-166.0,19.0,257.0,154,61,77,78,76
2025-02-25 18:33:14.986,-593.0,137.0,310.0,-174.0,13.0,243.0,155,62,77,79,73
2025-02-25 18:33:14.994,-500.0,222.0,286.0,-163.0,11.0,221.0,154,61,77,79,72
2025-02-25 18:33:14.998,-523.0,204.0,193.0,-133.0,7.0,209.0,154,62,79,81,74
2025-02-25 18:33:15.002,-604.0,223.0,174.0,-122.0,18.0,187.0,154,63,80,82,74
2025-02-25 18:33:15.006,-721.0,242.0,45.0,-108.0,22.0,169.0,154,62,79,81,75
2025-02-25 18:33:15.011,-771.0,225.0,37.0,-94.0,17.0,157.0,154,63,80,80,73
2025-02-25 18:33:15.018,-846.0,271.0,110.0,-96.0,15.0,134.0,154,66,82,84,76
2025-02-25 18:33:15.023,-829.0,306.0,43.0,-101.0,16.0,117.0,151,59,82,84,75
2025-02-25 18:33:15.027,-881.0,265.0,-2.0,-75.0,14.0,100.0,151,61,82,82,75
2025-02-25 18:33:15.031,-922.0,264.0,23.0,-58.0,10.0,90.0,151,63,81,83,77
2025-02-25 18:33:15.035,-954.0,298.0,-21.0,-52.0,10.0,75.0,151,65,83,86,78
2025-02-25 18:33:15.043,-1001.0,334.0,-176.0,-49.0,10.0,62.0,148,66,84,84,76
2025-02-25 18:33:15.047,-1095.0,325.0,-132.0,-39.0,13.0,57.0,151,63,82,84,78
2025-02-25 18:33:15.052,-1072.0,332.0,-142.0,-32.0,18.0,45.0,151,65,84,84,78
2025-02-25 18:33:15.056,-1033.0,264.0,-146.0,-13.0,14.0,37.0,149,66,83,84,76
2025-02-25 18:33:15.063,-1026.0,283.0,-44.0,10.0,2.0,32.0,151,66,83,86,76
2025-02-25 18:33:15.067,-994.0,225.0,-57.0,17.0,-10.0,22.0,150,66,82,84,78
2025-02-25 18:33:15.072,-957.0,270.0,-141.0,17.0,-13.0,16.0,148,66,83,83,76
2025-02-25 18:33:15.075,-908.0,244.0,-41.0,35.0,0.0,14.0,149,67,85,86,77
2025-02-25 18:33:15.080,-912.0,203.0,-36.0,49.0,12.0,9.0,149,67,86,86,77
2025-02-25 18:33:15.085,-882.0,191.0,-5.0,62.0,18.0,5.0,148,66,83,84,76
2025-02-25 18:33:15.089,-879.0,194.0,-27.0,85.0,23.0,4.0,146,65,85,85,78
2025-02-25 18:33:15.096,-896.0,213.0,-54.0,110.0,28.0,0.0,149,68,89,89,80
2025-02-25 18:33:15.100,-905.0,334.0,-159.0,117.0,31.0,-1.0,147,70,88,86,79
2025-02-25 18:33:15.104,-974.0,336.0,-87.0,134.0,40.0,-3.0,147,70,90,87,79
2025-02-25 18:33:15.108,-1033.0,438.0,-56.0,154.0,54.0,-8.0,146,73,91,91,81
2025-02-25 18:33:15.116,-1155.0,570.0,-221.0,166.0,56.0,-24.0,146,73,92,86,81
2025-02-25 18:33:15.120,-1128.0,586.0,-380.0,178.0,48.0,-31.0,145,75,94,91,82
2025-02-25 18:33:15.125,-1186.0,695.0,-432.0,221.0,46.0,-41.0,144,77,97,91,82
2025-02-25 18:33:15.129,-1289.0,756.0,-476.0,228.0,34.0,-71.0,141,77,98,93,83
2025-02-25 18:33:15.137,-1271.0,814.0,-527.0,243.0,23.0,-88.0,141,77,99,93,82
2025-02-25 18:33:15.141,-1082.0,769.0,-482.0,281.0,2.0,-111.0,144,83,102,93,85
2025-02-25 18:33:15.145,-913.0,670.0,-459.0,301.0,-4.0,-144.0,143,80,101,93,85
2025-02-25 18:33:15.149,-886.0,644.0,-458.0,325.0,-2.0,-188.0,142,84,103,94,82
2025-02-25 18:33:15.158,-799.0,544.0,-503.0,336.0,-2.0,-206.0,140,88,104,95,84
2025-02-25 18:33:15.162,-745.0,354.0,-705.0,351.0,-32.0,-239.0,140,94,107,97,83
2025-02-25 18:33:15.166,-818.0,336.0,-622.0,338.0,-66.0,-285.0,136,100,109,95,84
2025-02-25 18:33:15.174,-749.0,636.0,-684.0,312.0,-126.0,-334.0,135,104,112,98,85
2025-02-25 18:33:15.178,-726.0,892.0,17.0,302.0,-136.0,-373.0,132,109,114,97,84
2025-02-25 18:33:15.182,-683.0,621.0,268.0,288.0,-152.0,-390.0,132,111,114,96,82
2025-02-25 18:33:15.190,-750.0,576.0,101.0,242.0,-187.0,-424.0,132,115,112,94,80
2025-02-25 18:33:15.195,-448.0,540.0,410.0,202.0,-196.0,-460.0,129,118,114,100,84
2025-02-25 18:33:15.199,-187.0,41.0,488.0,158.0,-225.0,-468.0,127,117,120,100,87
2025-02-25 18:33:15.207,515.0,-84.0,126.0,146.0,-243.0,-479.0,126,119,121,100,88
2025-02-25 18:33:15.211,803.0,-632.0,476.0,122.0,-246.0,-473.0,123,121,119,101,84
2025-02-25 18:33:15.216,1041.0,-1351.0,625.0,85.0,-243.0,-464.0,124,116,121,104,84
2025-02-25 18:33:15.223,1232.0,-1625.0,847.0,74.0,-237.0,-453.0,122,123,120,105,85
2025-02-25 18:33:15.227,1770.0,-2157.0,1154.0,93.0,-218.0,-413.0,123,128,121,108,87
2025-02-25 18:33:15.232,2082.0,-2599.0,1440.0,105.0,-182.0,-366.0,123,129,123,109,89
2025-02-25 18:33:15.240,2412.0,-2930.0,1522.0,121.0,-137.0,-311.0,126,133,124,113,90
2025-02-25 18:33:15.244,2749.0,-3219.0,1848.0,147.0,-75.0,-241.0,122,135,124,112,87
2025-02-25 18:33:15.252,2952.0,-3508.0,1852.0,113.0,-15.0,-161.0,122,133,123,111,87
2025-02-25 18:33:15.256,2873.0,-3558.0,1853.0,124.0,37.0,-80.0,124,136,124,110,91
2025-02-25 18:33:15.260,2649.0,-3494.0,1783.0,80.0,96.0,0.0,122,135,123,108,84
2025-02-25 18:33:15.265,2506.0,-3278.0,1695.0,51.0,116.0,78.0,121,131,123,105,84
2025-02-25 18:33:15.273,2044.0,-3174.0,1367.0,7.0,140.0,112.0,120,135,122,103,82
2025-02-25 18:33:15.277,1653.0,-2897.0,971.0,-58.0,130.0,167.0,121,135,123,106,81
2025-02-25 18:33:15.281,1284.0,-2605.0,899.0,-94.0,100.0,198.0,120,137,124,106,82
2025-02-25 18:33:15.289,978.0,-2377.0,502.0,-119.0,59.0,214.0,120,137,123,105,82
2025-02-25 18:33:15.293,750.0,-2212.0,456.0,-142.0,25.0,222.0,119,136,123,106,81
2025-02-25 18:33:15.297,640.0,-2101.0,331.0,-152.0,14.0,222.0,118,135,124,107,80
2025-02-25 18:33:15.305,597.0,-1917.0,270.0,-146.0,-12.0,216.0,118,135,123,108,80
2025-02-25 18:33:15.309,508.0,-1915.0,207.0,-134.0,-35.0,205.0,118,138,124,109,80
2025-02-25 18:33:15.314,482.0,-1882.0,226.0,-113.0,-51.0,194.0,118,134,124,111,84
2025-02-25 18:33:15.322,526.0,-1799.0,299.0,-89.0,-54.0,187.0,118,137,124,114,82
2025-02-25 18:33:15.325,549.0,-1723.0,412.0,-77.0,-53.0,187.0,118,134,123,113,83
2025-02-25 18:33:15.330,524.0,-1633.0,485.0,-49.0,-53.0,192.0,116,134,122,115,82
2025-02-25 18:33:15.337,533.0,-1507.0,446.0,-38.0,-45.0,200.0,119,136,123,117,84
2025-02-25 18:33:15.342,521.0,-1486.0,637.0,-17.0,-39.0,205.0,118,134,125,116,83
2025-02-25 18:33:15.346,474.0,-1364.0,606.0,-18.0,-29.0,216.0,120,137,125,115,84
2025-02-25 18:33:15.354,434.0,-1217.0,681.0,-12.0,-14.0,228.0,120,137,125,117,84
2025-02-25 18:33:15.358,355.0,-1067.0,721.0,-12.0,0.0,237.0,119,139,127,120,85
2025-02-25 18:33:15.362,310.0,-899.0,590.0,-29.0,4.0,243.0,118,136,125,116,82
2025-02-25 18:33:15.367,192.0,-851.0,589.0,-51.0,13.0,246.0,117,134,123,116,83
2025-02-25 18:33:15.375,59.0,-731.0,564.0,-66.0,17.0,252.0,120,136,125,118,85
2025-02-25 18:33:15.379,-29.0,-613.0,548.0,-70.0,23.0,256.0,120,137,128,119,84
2025-02-25 18:33:15.383,-87.0,-478.0,492.0,-73.0,24.0,259.0,117,136,124,118,84
2025-02-25 18:33:15.391,-209.0,-355.0,403.0,-79.0,29.0,259.0,117,136,123,118,83
2025-02-25 18:33:15.395,-345.0,-328.0,350.0,-88.0,27.0,258.0,119,135,125,118,85
2025-02-25 18:33:15.399,-462.0,-149.0,342.0,-94.0,24.0,256.0,119,137,126,119,87
2025-02-25 18:33:15.403,-537.0,-11.0,340.0,-99.0,23.0,248.0,118,137,127,118,84
2025-02-25 18:33:15.411,-561.0,93.0,358.0,-103.0,23.0,237.0,117,135,125,118,84
2025-02-25 18:33:15.415,-624.0,142.0,319.0,-112.0,25.0,231.0,121,135,125,115,85
2025-02-25 18:33:15.420,-674.0,223.0,280.0,-118.0,23.0,215.0,120,136,126,120,86
2025-02-25 18:33:15.427,-729.0,235.0,326.0,-121.0,22.0,196.0,118,137,128,119,85
2025-02-25 18:33:15.432,-758.0,276.0,354.0,-118.0,24.0,176.0,118,137,124,118,86
2025-02-25 18:33:15.437,-769.0,234.0,351.0,-106.0,28.0,155.0,118,137,129,118,86
2025-02-25 18:33:15.444,-795.0,195.0,213.0,-92.0,26.0,145.0,118,136,126,117,83
2025-02-25 18:33:15.449,-821.0,186.0,236.0,-84.0,27.0,127.0,118,136,127,119,86
2025-02-25 18:33:15.453,-860.0,157.0,209.0,-77.0,30.0,112.0,118,137,125,118,84
2025-02-25 18:33:15.457,-906.0,136.0,240.0,-72.0,36.0,100.0,118,135,124,119,84
2025-02-25 18:33:15.465,-924.0,123.0,143.0,-63.0,35.0,91.0,116,133,126,120,84
2025-02-25 18:33:15.469,-954.0,130.0,83.0,-57.0,34.0,86.0,118,135,125,119,84
2025-02-25 18:33:15.473,-1007.0,166.0,118.0,-53.0,34.0,80.0,118,135,128,119,84
2025-02-25 18:33:15.477,-1019.0,191.0,125.0,-50.0,35.0,71.0,118,134,127,118,82
2025-02-25 18:33:15.485,-1021.0,204.0,50.0,-42.0,34.0,63.0,116,130,125,116,82
2025-02-25 18:33:15.489,-1040.0,241.0,60.0,-36.0,32.0,59.0,117,136,129,121,86
2025-02-25 18:33:15.493,-1062.0,247.0,17.0,-30.0,29.0,50.0,116,130,127,119,85
2025-02-25 18:33:15.498,-1057.0,257.0,48.0,-24.0,28.0,41.0,117,135,128,119,84
2025-02-25 18:33:15.506,-1077.0,255.0,13.0,-11.0,27.0,31.0,116,132,125,116,83
2025-02-25 18:33:15.510,-1093.0,258.0,6.0,-1.0,22.0,26.0,117,133,125,119,86
2025-02-25 18:33:15.514,-1126.0,268.0,-55.0,5.0,15.0,17.0,117,136,129,120,84
2025-02-25 18:33:15.519,-1142.0,327.0,22.0,16.0,14.0,8.0,118,135,126,120,84
2025-02-25 18:33:15.526,-1156.0,342.0,-5.0,26.0,10.0,3.0,117,134,127,118,83
2025-02-25 18:33:15.530,-1169.0,393.0,-14.0,35.0,8.0,-8.0,117,136,127,121,84
2025-02-25 18:33:15.534,-1177.0,415.0,-16.0,40.0,6.0,-22.0,117,135,127,121,84
2025-02-25 18:33:15.539,-1169.0,458.0,-6.0,55.0,6.0,-37.0,117,133,126,120,85
2025-02-25 18:33:15.543,-1158.0,483.0,-2.0,68.0,8.0,-46.0,117,134,127,120,84
2025-02-25 18:33:15.551,-1158.0,514.0,-27.0,70.0,9.0,-63.0,118,137,129,120,85
2025-02-25 18:33:15.555,-1140.0,511.0,6.0,80.0,10.0,-82.0,118,134,127,121,85
2025-02-25 18:33:15.559,-1143.0,506.0,12.0,88.0,14.0,-92.0,117,133,126,120,83
2025-02-25 18:33:15.567,-1125.0,518.0,11.0,94.0,17.0,-113.0,118,135,126,121,85
2025-02-25 18:33:15.571,-1111.0,512.0,7.0,100.0,21.0,-133.0,119,134,127,121,86
2025-02-25 18:33:15.576,-1096.0,487.0,-8.0,113.0,22.0,-156.0,118,132,127,118,83
2025-02-25 18:33:15.580,-1049.0,476.0,-40.0,128.0,23.0,-178.0,112,132,125,121,84
2025-02-25 18:33:15.588,-1015.0,464.0,-127.0,148.0,26.0,-190.0,115,132,128,119,84
2025-02-25 18:33:15.592,-964.0,405.0,-70.0,150.0,26.0,-213.0,118,134,127,122,82
2025-02-25 18:33:15.596,-914.0,358.0,-94.0,156.0,27.0,-235.0,117,134,128,121,86
2025-02-25 18:33:15.603,-843.0,302.0,-74.0,162.0,23.0,-258.0,115,132,126,120,84
2025-02-25 18:33:15.608,-814.0,216.0,-77.0,172.0,22.0,-278.0,115,133,126,119,84
2025-02-25 18:33:15.612,-712.0,207.0,-52.0,177.0,17.0,-287.0,113,132,125,120,83
2025-02-25 18:33:15.620,-583.0,142.0,-23.0,176.0,7.0,-304.0,115,133,128,121,86
2025-02-25 18:33:15.625,-447.0,109.0,-19.0,174.0,-6.0,-319.0,115,133,127,122,84
2025-02-25 18:33:15.628,-322.0,57.0,50.0,171.0,-24.0,-333.0,115,133,127,122,84
2025-02-25 18:33:15.634,-243.0,-21.0,94.0,157.0,-34.0,-347.0,115,132,126,121,84
2025-02-25 18:33:15.640,-97.0,-66.0,175.0,137.0,-57.0,-354.0,114,132,125,121,85
2025-02-25 18:33:15.645,89.0,-237.0,268.0,113.0,-80.0,-366.0,116,134,128,123,87
2025-02-25 18:33:15.649,347.0,-573.0,395.0,105.0,-99.0,-374.0,115,132,127,123,86
2025-02-25 18:33:15.657,618.0,-966.0,525.0,87.0,-111.0,-374.0,117,133,128,124,85
2025-02-25 18:33:15.661,751.0,-1447.0,648.0,82.0,-117.0,-367.0,116,132,125,123,85
2025-02-25 18:33:15.666,1070.0,-1899.0,884.0,86.0,-124.0,-363.0,116,132,126,121,85
2025-02-25 18:33:15.673,1383.0,-2236.0,1159.0,100.0,-127.0,-343.0,114,131,127,121,83
2025-02-25 18:33:15.678,1749.0,-2820.0,1453.0,105.0,-116.0,-307.0,116,132,127,124,86
2025-02-25 18:33:15.682,2095.0,-3148.0,1867.0,121.0,-83.0,-264.0,117,134,126,122,87
2025-02-25 18:33:15.690,2377.0,-3360.0,1869.0,108.0,-40.0,-200.0,116,133,126,122,86
2025-02-25 18:33:15.695,2577.0,-3437.0,1886.0,77.0,5.0,-126.0,117,132,126,121,87
2025-02-25 18:33:15.702,2620.0,-3371.0,2055.0,77.0,55.0,-52.0,116,133,126,119,85
2025-02-25 18:33:15.707,2441.0,-3475.0,1751.0,36.0,82.0,19.0,116,131,131,117,84
2025-02-25 18:33:15.711,2270.0,-3358.0,1529.0,-22.0,89.0,86.0,115,130,125,115,81
2025-02-25 18:33:15.715,1924.0,-3269.0,1375.0,-74.0,100.0,114.0,117,135,125,116,77
2025-02-25 18:33:15.723,1583.0,-3012.0,1094.0,-130.0,97.0,161.0,116,131,125,115,83
2025-02-25 18:33:15.727,1241.0,-2646.0,937.0,-170.0,77.0,189.0,117,129,124,115,83
2025-02-25 18:33:15.735,913.0,-2398.0,729.0,-188.0,59.0,207.0,116,131,124,115,81
2025-02-25 18:33:15.739,664.0,-2160.0,498.0,-195.0,33.0,214.0,117,130,126,116,82
2025-02-25 18:33:15.744,553.0,-2039.0,423.0,-195.0,26.0,217.0,116,128,123,115,82
2025-02-25 18:33:15.748,498.0,-1900.0,332.0,-187.0,5.0,213.0,112,126,122,117,81
2025-02-25 18:33:15.756,382.0,-1855.0,246.0,-169.0,-16.0,211.0,114,128,125,117,83
2025-02-25 18:33:15.760,280.0,-1780.0,294.0,-155.0,-31.0,210.0,116,130,127,120,82
2025-02-25 18:33:15.764,271.0,-1621.0,322.0,-135.0,-39.0,206.0,114,130,125,119,84
2025-02-25 18:33:15.772,278.0,-1473.0,355.0,-123.0,-39.0,203.0,115,129,125,119,84
2025-02-25 18:33:15.776,230.0,-1349.0,394.0,-110.0,-38.0,206.0,118,128,127,127,86
2025-02-25 18:33:15.781,183.0,-1257.0,384.0,-99.0,-38.0,213.0,114,128,123,121,84
2025-02-25 18:33:15.789,90.0,-1167.0,365.0,-85.0,-39.0,219.0,116,128,125,121,85
2025-02-25 18:33:15.793,-20.0,-1102.0,407.0,-73.0,-35.0,232.0,115,131,126,122,86
2025-02-25 18:33:15.797,-105.0,-992.0,439.0,-42.0,-22.0,245.0,116,129,127,125,87
2025-02-25 18:33:15.804,-193.0,-838.0,414.0,-40.0,-3.0,257.0,115,129,126,125,87
2025-02-25 18:33:15.809,-302.0,-680.0,292.0,-29.0,14.0,268.0,113,128,127,125,87
2025-02-25 18:33:15.813,-343.0,-553.0,233.0,-25.0,25.0,275.0,113,128,129,126,86
2025-02-25 18:33:15.821,-396.0,-466.0,338.0,-76.0,16.0,276.0,114,127,126,125,87
2025-02-25 18:33:15.825,-479.0,-272.0,309.0,-96.0,3.0,280.0,114,128,125,125,87
2025-02-25 18:33:15.830,-538.0,-160.0,396.0,-103.0,16.0,283.0,113,127,125,126,87
2025-02-25 18:33:15.834,-525.0,17.0,421.0,-108.0,31.0,275.0,112,128,127,125,89
2025-02-25 18:33:15.842,-508.0,244.0,454.0,-98.0,41.0,250.0,112,126,125,125,88
2025-02-25 18:33:15.846,-507.0,234.0,482.0,-101.0,53.0,237.0,111,126,127,124,89
2025-02-25 18:33:15.850,-604.0,309.0,350.0,-120.0,58.0,217.0,113,126,127,123,88
2025-02-25 18:33:15.858,-626.0,266.0,438.0,-135.0,61.0,199.0,113,125,125,123,87
2025-02-25 18:33:15.862,-557.0,397.0,366.0,-166.0,60.0,175.0,110,123,124,118,88
2025-02-25 18:33:15.866,-509.0,380.0,390.0,-193.0,66.0,149.0,108,125,125,114,86
2025-02-25 18:33:15.874,-515.0,328.0,380.0,-210.0,80.0,134.0,108,125,125,111,87
2025-02-25 18:33:15.879,-750.0,307.0,278.0,-199.0,77.0,108.0,108,124,127,111,91
2025-02-25 18:33:15.883,-863.0,255.0,113.0,-180.0,76.0,90.0,111,124,125,111,91
2025-02-25 18:33:15.888,-967.0,153.0,-49.0,-144.0,76.0,74.0,107,120,121,111,93
2025-02-25 18:33:15.895,-1013.0,43.0,-105.0,-132.0,66.0,58.0,108,119,119,108,93
2025-02-25 18:33:15.899,-1020.0,35.0,-94.0,-119.0,62.0,53.0,111,120,120,108,95
2025-02-25 18:33:15.903,-1007.0,-5.0,-79.0,-115.0,55.0,42.0,110,119,117,107,95
2025-02-25 18:33:15.911,-1074.0,-73.0,-59.0,-114.0,51.0,32.0,112,119,115,108,95
2025-02-25 18:33:15.915,-1097.0,-60.0,-105.0,-122.0,47.0,20.0,111,110,114,104,96
2025-02-25 18:33:15.920,-1049.0,-109.0,-110.0,-115.0,40.0,15.0,113,109,112,105,97
2025-02-25 18:33:15.924,-1048.0,-144.0,-83.0,-96.0,37.0,9.0,117,108,111,102,95
2025-02-25 18:33:15.932,-1003.0,-145.0,-46.0,-72.0,44.0,4.0,121,102,106,105,97
2025-02-25 18:33:15.937,-995.0,-116.0,-114.0,-62.0,44.0,-2.0,122,108,107,106,96
2025-02-25 18:33:15.940,-1008.0,-125.0,-70.0,-35.0,44.0,-5.0,123,98,101,104,96
2025-02-25 18:33:15.948,-1007.0,-131.0,-69.0,-17.0,44.0,-6.0,125,94,103,103,96
2025-02-25 18:33:15.956,-986.0,-100.0,-142.0,2.0,40.0,-7.0,128,95,98,106,98
2025-02-25 18:33:15.959,-975.0,-55.0,-109.0,13.0,43.0,-5.0,129,97,99,105,101
2025-02-25 18:33:15.961,-998.0,-64.0,-134.0,31.0,46.0,-3.0,129,92,99,105,94
2025-02-25 18:33:15.966,-975.0,17.0,-160.0,52.0,44.0,-3.0,132,89,98,104,98
2025-02-25 18:33:15.973,-1022.0,105.0,-59.0,74.0,50.0,1.0,132,92,97,106,97
2025-02-25 18:33:15.977,-1046.0,257.0,-163.0,86.0,51.0,0.0,132,82,95,103,95
2025-02-25 18:33:15.981,-1152.0,334.0,-165.0,113.0,53.0,-3.0,134,85,94,103,97
2025-02-25 18:33:15.986,-1238.0,479.0,-113.0,134.0,55.0,-13.0,129,82,93,98,94
2025-02-25 18:33:15.993,-1347.0,605.0,-171.0,136.0,56.0,-28.0,136,82,89,101,95
2025-02-25 18:33:15.997,-1356.0,656.0,-103.0,119.0,58.0,-55.0,135,79,91,102,95
2025-02-25 18:33:16.001,-1370.0,785.0,-173.0,88.0,49.0,-70.0,136,75,90,101,93
2025-02-25 18:33:16.006,-1373.0,883.0,-258.0,78.0,28.0,-105.0,138,74,92,99,92
2025-02-25 18:33:16.013,-1268.0,1061.0,-198.0,75.0,10.0,-154.0,137,70,88,98,90
2025-02-25 18:33:16.018,-1216.0,1237.0,-419.0,81.0,-2.0,-203.0,143,71,79,100,89
2025-02-25 18:33:16.022,-1005.0,1291.0,-500.0,120.0,-14.0,-223.0,137,65,77,101,86
2025-02-25 18:33:16.030,-781.0,1471.0,-656.0,164.0,-31.0,-258.0,140,65,73,100,87
2025-02-25 18:33:16.034,-778.0,1189.0,-661.0,217.0,-42.0,-294.0,140,64,73,101,85
2025-02-25 18:33:16.039,-827.0,1200.0,-716.0,252.0,-46.0,-345.0,142,62,71,100,84
2025-02-25 18:33:16.046,-414.0,1140.0,-605.0,246.0,-44.0,-384.0,142,62,68,100,81
2025-02-25 18:33:16.051,-236.0,894.0,-440.0,220.0,-45.0,-408.0,141,58,66,94,78
2025-02-25 18:33:16.055,-235.0,798.0,-307.0,200.0,-61.0,-415.0,139,55,65,92,77
2025-02-25 18:33:16.059,-274.0,643.0,-184.0,182.0,-97.0,-433.0,144,56,65,95,80
2025-02-25 18:33:16.067,-360.0,622.0,-159.0,168.0,-143.0,-460.0,142,56,62,90,79
2025-02-25 18:33:16.071,-149.0,536.0,31.0,138.0,-175.0,-492.0,141,55,64,92,78
2025-02-25 18:33:16.075,85.0,374.0,159.0,119.0,-187.0,-519.0,142,53,64,89,77
2025-02-25 18:33:16.079,806.0,217.0,195.0,80.0,-225.0,-526.0,143,55,66,90,79
2025-02-25 18:33:16.087,1284.0,-389.0,-179.0,65.0,-294.0,-537.0,144,59,65,87,85
2025-02-25 18:33:16.092,1591.0,-853.0,27.0,58.0,-302.0,-538.0,147,56,60,88,80
2025-02-25 18:33:16.096,1803.0,-1641.0,413.0,39.0,-283.0,-527.0,146,54,62,87,83
2025-02-25 18:33:16.104,2333.0,-2135.0,865.0,30.0,-218.0,-472.0,148,57,67,87,80
2025-02-25 18:33:16.108,2929.0,-3263.0,1064.0,67.0,-163.0,-382.0,151,58,69,85,78
2025-02-25 18:33:16.112,3420.0,-4317.0,1694.0,88.0,-104.0,-280.0,151,57,70,85,79
2025-02-25 18:33:16.120,3552.0,-5052.0,1957.0,121.0,-31.0,-165.0,155,58,72,81,78
2025-02-25 18:33:16.124,3499.0,-5124.0,2054.0,187.0,5.0,-67.0,153,56,71,76,76
2025-02-25 18:33:16.129,3401.0,-4877.0,1850.0,251.0,41.0,-31.0,151,57,73,78,76
2025-02-25 18:33:16.133,3138.0,-4325.0,1853.0,286.0,122.0,30.0,155,59,72,77,76
2025-02-25 18:33:16.141,2601.0,-4237.0,1409.0,265.0,193.0,109.0,154,58,70,79,75
2025-02-25 18:33:16.145,2555.0,-3597.0,1130.0,174.0,185.0,149.0,152,56,68,76,75
2025-02-25 18:33:16.149,2094.0,-2879.0,628.0,53.0,184.0,198.0,155,56,66,80,75
2025-02-25 18:33:16.154,1436.0,-2745.0,138.0,-50.0,146.0,211.0,154,60,68,80,77
2025-02-25 18:33:16.162,1018.0,-2166.0,-21.0,-105.0,78.0,228.0,156,61,67,81,77
2025-02-25 18:33:16.166,795.0,-1955.0,-1.0,-141.0,85.0,230.0,155,59,66,80,77
2025-02-25 18:33:16.170,834.0,-1566.0,15.0,-157.0,86.0,225.0,156,57,65,78,75
2025-02-25 18:33:16.174,558.0,-1799.0,211.0,-166.0,46.0,217.0,155,60,68,81,78
2025-02-25 18:33:16.181,578.0,-1819.0,162.0,-152.0,-7.0,206.0,155,59,69,80,78
2025-02-25 18:33:16.186,538.0,-1816.0,187.0,-144.0,9.0,207.0,154,59,66,78,76
2025-02-25 18:33:16.190,378.0,-1895.0,402.0,-131.0,-7.0,209.0,152,58,68,77,78
2025-02-25 18:33:16.198,437.0,-1900.0,309.0,-118.0,-42.0,219.0,156,60,73,79,78
2025-02-25 18:33:16.202,427.0,-1783.0,311.0,-109.0,-43.0,227.0,156,60,73,79,77
2025-02-25 18:33:16.207,371.0,-1561.0,378.0,-107.0,-34.0,240.0,155,58,72,79,76
2025-02-25 18:33:16.211,383.0,-1399.0,543.0,-102.0,-9.0,247.0,154,58,74,81,76
2025-02-25 18:33:16.219,320.0,-1316.0,496.0,-102.0,-20.0,249.0,155,61,75,82,79
2025-02-25 18:33:16.223,303.0,-1128.0,625.0,-117.0,-43.0,250.0,154,59,74,82,78
2025-02-25 18:33:16.227,228.0,-878.0,551.0,-129.0,-15.0,250.0,155,60,72,81,78
2025-02-25 18:33:16.231,144.0,-795.0,446.0,-134.0,-2.0,249.0,155,59,72,79,77
2025-02-25 18:33:16.239,-8.0,-756.0,417.0,-133.0,-2.0,249.0,155,61,75,83,79
2025-02-25 18:33:16.243,-88.0,-702.0,383.0,-134.0,-2.0,248.0,155,62,73,82,78
2025-02-25 18:33:16.248,-110.0,-550.0,311.0,-129.0,2.0,249.0,156,60,72,80,77
2025-02-25 18:33:16.252,-200.0,-490.0,323.0,-137.0,6.0,251.0,154,59,70,79,76
2025-02-25 18:33:16.259,-332.0,-435.0,284.0,-122.0,-2.0,246.0,158,61,72,82,78
2025-02-25 18:33:16.264,-401.0,-325.0,276.0,-117.0,-10.0,243.0,157,60,71,81,79
2025-02-25 18:33:16.268,-405.0,-242.0,256.0,-92.0,-3.0,233.0,155,60,72,80,76
2025-02-25 18:33:16.272,-372.0,-167.0,324.0,-78.0,8.0,223.0,156,62,74,82,77
2025-02-25 18:33:16.276,-493.0,-101.0,343.0,-62.0,7.0,209.0,156,62,74,84,77
2025-02-25 18:33:16.284,-512.0,-21.0,319.0,-61.0,7.0,194.0,154,59,74,81,77
2025-02-25 18:33:16.289,-498.0,6.0,395.0,-66.0,17.0,189.0,154,60,73,81,79
2025-02-25 18:33:16.293,-553.0,13.0,270.0,-79.0,41.0,181.0,155,61,74,83,76
2025-02-25 18:33:16.297,-630.0,44.0,264.0,-82.0,45.0,173.0,155,61,73,83,78
2025-02-25 18:33:16.301,-641.0,42.0,250.0,-94.0,40.0,168.0,156,60,72,82,77
2025-02-25 18:33:16.309,-665.0,60.0,204.0,-88.0,37.0,157.0,154,61,72,83,77
2025-02-25 18:33:16.313,-713.0,111.0,180.0,-88.0,44.0,146.0,156,60,70,85,77
2025-02-25 18:33:16.317,-750.0,76.0,152.0,-85.0,46.0,139.0,155,61,70,83,77
2025-02-25 18:33:16.321,-790.0,82.0,108.0,-85.0,40.0,125.0,156,63,69,83,79
2025-02-25 18:33:16.325,-811.0,90.0,8.0,-90.0,32.0,116.0,155,62,66,84,77
2025-02-25 18:33:16.333,-849.0,120.0,-62.0,-103.0,31.0,111.0,154,60,66,82,75
2025-02-25 18:33:16.338,-908.0,192.0,-64.0,-104.0,29.0,102.0,156,63,71,88,79
2025-02-25 18:33:16.341,-939.0,197.0,-87.0,-100.0,28.0,89.0,156,62,71,86,78
2025-02-25 18:33:16.346,-971.0,248.0,-112.0,-94.0,18.0,74.0,153,61,70,85,75
2025-02-25 18:33:16.350,-992.0,277.0,-125.0,-81.0,1.0,67.0,154,60,71,86,76
2025-02-25 18:33:16.358,-1027.0,289.0,-167.0,-75.0,-4.0,52.0,156,62,72,87,78
2025-02-25 18:33:16.362,-1022.0,372.0,-157.0,-66.0,-4.0,38.0,152,60,71,83,76
2025-02-25 18:33:16.366,-1049.0,353.0,-99.0,-53.0,-19.0,30.0,154,62,73,85,78
2025-02-25 18:33:16.371,-1047.0,404.0,-95.0,-47.0,-26.0,13.0,156,62,75,87,78
2025-02-25 18:33:16.378,-1032.0,465.0,-44.0,-36.0,-26.0,-4.0,155,62,72,85,79
2025-02-25 18:33:16.382,-1030.0,411.0,-46.0,-26.0,-26.0,-14.0,152,60,73,86,78
2025-02-25 18:33:16.387,-1023.0,457.0,-10.0,-13.0,-21.0,-28.0,157,60,74,85,77
2025-02-25 18:33:16.391,-1040.0,480.0,15.0,-3.0,-16.0,-45.0,154,59,74,84,77
2025-02-25 18:33:16.399,-1053.0,496.0,26.0,13.0,-14.0,-52.0,157,63,73,87,78
2025-02-25 18:33:16.402,-1156.0,581.0,15.0,38.0,-18.0,-65.0,154,61,75,88,79
2025-02-25 18:33:16.406,-1197.0,698.0,29.0,48.0,-24.0,-74.0,156,62,70,85,78
2025-02-25 18:33:16.411,-1227.0,814.0,82.0,62.0,-27.0,-94.0,154,62,71,86,77
2025-02-25 18:33:16.416,-1250.0,921.0,85.0,80.0,-27.0,-104.0,155,62,75,87,77
2025-02-25 18:33:16.424,-1323.0,895.0,61.0,91.0,-21.0,-130.0,154,61,70,87,79
2025-02-25 18:33:16.428,-1262.0,945.0,16.0,111.0,-17.0,-156.0,152,59,72,85,76
2025-02-25 18:33:16.432,-1279.0,940.0,38.0,116.0,-11.0,-168.0,155,60,69,86,75
2025-02-25 18:33:16.436,-1287.0,895.0,25.0,122.0,-3.0,-192.0,156,63,72,91,80
2025-02-25 18:33:16.444,-1266.0,777.0,-18.0,127.0,9.0,-211.0,154,61,71,89,79
2025-02-25 18:33:16.448,-1224.0,664.0,-53.0,144.0,14.0,-231.0,152,59,69,88,78
2025-02-25 18:33:16.453,-1113.0,656.0,-29.0,161.0,16.0,-240.0,154,61,71,89,76
2025-02-25 18:33:16.457,-1009.0,569.0,-38.0,167.0,19.0,-262.0,154,63,71,87,80
2025-02-25 18:33:16.465,-918.0,518.0,-12.0,170.0,17.0,-286.0,154,61,71,88,81
2025-02-25 18:33:16.469,-803.0,476.0,-24.0,185.0,12.0,-299.0,152,60,71,87,78
2025-02-25 18:33:16.473,-675.0,448.0,-37.0,185.0,-3.0,-326.0,154,61,72,89,79
2025-02-25 18:33:16.477,-511.0,442.0,-68.0,184.0,-25.0,-352.0,154,61,72,89,80
2025-02-25 18:33:16.485,-381.0,431.0,-81.0,173.0,-41.0,-383.0,156,61,70,87,78
2025-02-25 18:33:16.489,-168.0,412.0,-48.0,141.0,-70.0,-398.0,152,59,69,87,80
2025-02-25 18:33:16.493,145.0,279.0,-31.0,105.0,-100.0,-425.0,156,62,73,90,80
2025-02-25 18:33:16.498,494.0,79.0,17.0,87.0,-138.0,-442.0,156,63,75,90,80
2025-02-25 18:33:16.505,704.0,-298.0,218.0,45.0,-152.0,-451.0,153,60,72,88,80
2025-02-25 18:33:16.509,1124.0,-620.0,391.0,7.0,-164.0,-452.0,154,60,70,89,83
2025-02-25 18:33:16.513,1528.0,-1390.0,495.0,-29.0,-156.0,-448.0,154,63,74,87,81
2025-02-25 18:33:16.517,1821.0,-2291.0,709.0,-38.0,-137.0,-421.0,154,62,72,89,82
2025-02-25 18:33:16.525,2223.0,-3207.0,992.0,-26.0,-124.0,-366.0,155,61,74,88,84
2025-02-25 18:33:16.529,2472.0,-3981.0,1285.0,-16.0,-79.0,-292.0,154,60,73,86,80
2025-02-25 18:33:16.535,2920.0,-4472.0,1455.0,-10.0,-9.0,-252.0,153,60,74,85,81
2025-02-25 18:33:16.542,2856.0,-4789.0,1341.0,79.0,69.0,-170.0,156,63,77,85,82
2025-02-25 18:33:16.546,2986.0,-4978.0,1397.0,148.0,100.0,-90.0,154,63,73,85,81
2025-02-25 18:33:16.550,2865.0,-4779.0,957.0,233.0,81.0,-23.0,154,60,78,88,79
2025-02-25 18:33:16.558,2832.0,-4662.0,1087.0,249.0,133.0,74.0,151,62,76,91,79
2025-02-25 18:33:16.562,2379.0,-4423.0,623.0,270.0,190.0,109.0,154,63,77,86,82
2025-02-25 18:33:16.566,2024.0,-3855.0,645.0,137.0,190.0,187.0,156,61,75,90,82
2025-02-25 18:33:16.571,1787.0,-2817.0,366.0,77.0,173.0,229.0,154,62,74,88,82
2025-02-25 18:33:16.578,1550.0,-2217.0,283.0,16.0,133.0,224.0,152,61,74,88,81
2025-02-25 18:33:16.583,1375.0,-1966.0,81.0,-93.0,95.0,218.0,155,64,75,89,82
2025-02-25 18:33:16.587,875.0,-1527.0,-195.0,-123.0,104.0,224.0,153,62,74,87,81
2025-02-25 18:33:16.591,524.0,-1499.0,-210.0,-140.0,102.0,223.0,154,62,74,89,83
2025-02-25 18:33:16.599,469.0,-1895.0,57.0,-146.0,75.0,216.0,153,66,74,87,82
2025-02-25 18:33:16.603,423.0,-1806.0,43.0,-160.0,-3.0,210.0,153,60,72,86,80
2025-02-25 18:33:16.608,273.0,-1882.0,31.0,-155.0,-66.0,202.0,154,62,75,90,84
2025-02-25 18:33:16.612,430.0,-1757.0,9.0,-128.0,-76.0,198.0,154,62,77,90,83
2025-02-25 18:33:16.620,324.0,-1707.0,109.0,-114.0,-50.0,206.0,153,62,74,87,83
2025-02-25 18:33:16.624,129.0,-1611.0,265.0,-91.0,-6.0,214.0,153,63,78,86,81
2025-02-25 18:33:16.628,266.0,-1550.0,256.0,-94.0,-9.0,222.0,154,63,76,89,83
2025-02-25 18:33:16.633,101.0,-1360.0,422.0,-107.0,-35.0,238.0,154,63,75,88,83
2025-02-25 18:33:16.640,125.0,-1111.0,375.0,-116.0,-50.0,249.0,152,61,77,90,81
2025-02-25 18:33:16.645,43.0,-1113.0,348.0,-128.0,-55.0,250.0,153,62,77,90,85
2025-02-25 18:33:16.649,-2.0,-832.0,315.0,-132.0,-30.0,255.0,154,65,74,89,82
2025-02-25 18:33:16.653,-67.0,-676.0,249.0,-127.0,-12.0,253.0,152,62,75,91,79
2025-02-25 18:33:16.661,-137.0,-603.0,333.0,-131.0,-5.0,256.0,152,62,73,89,82
2025-02-25 18:33:16.665,-269.0,-480.0,339.0,-140.0,-2.0,257.0,151,63,74,89,81
2025-02-25 18:33:16.669,-339.0,-286.0,287.0,-156.0,0.0,255.0,155,64,76,90,83
2025-02-25 18:33:16.674,-405.0,-223.0,330.0,-166.0,-4.0,252.0,153,62,74,90,82
2025-02-25 18:33:16.681,-448.0,-77.0,255.0,-185.0,-2.0,246.0,151,63,76,88,83
2025-02-25 18:33:16.685,-455.0,95.0,279.0,-169.0,4.0,233.0,154,63,77,90,82
2025-02-25 18:33:16.690,-500.0,167.0,322.0,-161.0,22.0,214.0,154,63,76,88,82
2025-02-25 18:33:16.694,-558.0,203.0,321.0,-128.0,26.0,196.0,153,60,73,89,80
2025-02-25 18:33:16.702,-595.0,245.0,415.0,-115.0,15.0,180.0,152,63,76,91,81
2025-02-25 18:33:16.706,-653.0,299.0,403.0,-103.0,-15.0,152.0,153,63,77,91,87
2025-02-25 18:33:16.711,-654.0,298.0,395.0,-111.0,-18.0,134.0,149,61,77,94,82
2025-02-25 18:33:16.715,-651.0,254.0,339.0,-111.0,-3.0,127.0,150,63,75,91,80
2025-02-25 18:33:16.722,-706.0,212.0,302.0,-96.0,5.0,113.0,149,63,81,93,83
2025-02-25 18:33:16.726,-741.0,200.0,275.0,-92.0,9.0,104.0,149,63,75,93,82
2025-02-25 18:33:16.730,-773.0,187.0,222.0,-94.0,15.0,96.0,149,62,74,93,81
2025-02-25 18:33:16.734,-923.0,199.0,177.0,-86.0,17.0,94.0,147,64,72,94,84
2025-02-25 18:33:16.739,-935.0,140.0,185.0,-85.0,18.0,89.0,148,62,74,95,82
2025-02-25 18:33:16.744,-918.0,-25.0,57.0,-77.0,18.0,85.0,146,61,70,92,81
2025-02-25 18:33:16.751,-922.0,208.0,65.0,-78.0,20.0,78.0,149,62,73,95,83
2025-02-25 18:33:16.755,-981.0,247.0,47.0,-78.0,23.0,69.0,149,63,73,95,82
2025-02-25 18:33:16.759,-989.0,237.0,53.0,-68.0,19.0,58.0,147,62,73,96,84
2025-02-25 18:33:16.763,-945.0,222.0,10.0,-75.0,16.0,54.0,145,62,75,98,83
2025-02-25 18:33:16.768,-959.0,207.0,-63.0,-72.0,18.0,38.0,146,63,76,97,83
2025-02-25 18:33:16.775,-1026.0,260.0,-41.0,-55.0,17.0,26.0,145,60,75,96,84
2025-02-25 18:33:16.779,-1031.0,276.0,-4.0,-46.0,18.0,20.0,147,63,76,99,86
2025-02-25 18:33:16.784,-1029.0,250.0,-18.0,-33.0,20.0,9.0,146,66,77,97,84
2025-02-25 18:33:16.788,-1080.0,345.0,10.0,-27.0,22.0,-7.0,146,62,74,98,84
2025-02-25 18:33:16.792,-1122.0,313.0,81.0,-31.0,33.0,-14.0,143,63,76,102,85
2025-02-25 18:33:16.800,-1097.0,385.0,25.0,-22.0,42.0,-26.0,145,62,76,100,84
2025-02-25 18:33:16.804,-1022.0,386.0,6.0,-13.0,45.0,-37.0,142,63,75,100,84
2025-02-25 18:33:16.809,-987.0,364.0,-60.0,-1.0,51.0,-44.0,146,61,75,97,83
2025-02-25 18:33:16.813,-957.0,502.0,-55.0,23.0,61.0,-54.0,141,61,75,97,82
2025-02-25 18:33:16.817,-963.0,593.0,-54.0,30.0,66.0,-69.0,141,61,73,98,83
2025-02-25 18:33:16.825,-994.0,613.0,-72.0,41.0,69.0,-79.0,139,62,75,98,82
2025-02-25 18:33:16.829,-1026.0,687.0,-112.0,52.0,74.0,-98.0,140,65,75,99,85
2025-02-25 18:33:16.833,-1078.0,670.0,-133.0,56.0,78.0,-117.0,139,61,74,99,83
2025-02-25 18:33:16.838,-1108.0,686.0,-147.0,61.0,78.0,-127.0,140,63,75,100,84
2025-02-25 18:33:16.845,-1111.0,718.0,-167.0,66.0,80.0,-148.0,140,64,76,100,85
2025-02-25 18:33:16.849,-1158.0,760.0,-188.0,73.0,80.0,-165.0,139,63,75,98,83
2025-02-25 18:33:16.854,-1126.0,840.0,-219.0,88.0,81.0,-189.0,138,61,74,100,82
2025-02-25 18:33:16.858,-1069.0,843.0,-197.0,112.0,80.0,-203.0,137,62,75,100,84
2025-02-25 18:33:16.866,-1015.0,772.0,-172.0,137.0,75.0,-240.0,136,63,74,102,84
2025-02-25 18:33:16.870,-851.0,739.0,-173.0,151.0,76.0,-279.0,134,62,74,101,84
2025-02-25 18:33:16.875,-798.0,674.0,-152.0,179.0,73.0,-327.0,132,61,73,99,83
2025-02-25 18:33:16.882,-689.0,731.0,-246.0,205.0,58.0,-353.0,133,64,74,100,83
2025-02-25 18:33:16.887,-618.0,740.0,-248.0,216.0,28.0,-407.0,131,63,74,100,84
2025-02-25 18:33:16.891,-473.0,717.0,-165.0,212.0,-3.0,-465.0,127,62,72,99,81
2025-02-25 18:33:16.895,-357.0,639.0,20.0,198.0,-23.0,-519.0,125,62,71,96,81
2025-02-25 18:33:16.902,0.0,653.0,-74.0,171.0,-70.0,-543.0,125,62,71,97,84
2025-02-25 18:33:16.906,486.0,438.0,-6.0,141.0,-104.0,-578.0,124,63,71,94,81
2025-02-25 18:33:16.911,952.0,-203.0,179.0,127.0,-121.0,-588.0,122,63,69,93,80
2025-02-25 18:33:16.915,1193.0,-1011.0,297.0,128.0,-147.0,-582.0,116,62,70,99,82
2025-02-25 18:33:16.923,1640.0,-1421.0,524.0,148.0,-160.0,-553.0,121,64,70,96,81
2025-02-25 18:33:16.927,2151.0,-2497.0,760.0,187.0,-144.0,-482.0,119,62,67,95,82
2025-02-25 18:33:16.931,2750.0,-3698.0,1346.0,250.0,-80.0,-365.0,120,63,73,94,82
2025-02-25 18:33:16.939,3261.0,-4707.0,1791.0,287.0,19.0,-228.0,120,64,73,92,83
2025-02-25 18:33:16.943,3433.0,-5216.0,1990.0,356.0,73.0,-97.0,116,62,73,88,79
2025-02-25 18:33:16.947,3551.0,-5355.0,1954.0,403.0,172.0,-39.0,114,62,74,82,78
2025-02-25 18:33:16.952,3396.0,-4950.0,1710.0,420.0,231.0,29.0,116,64,76,83,77
2025-02-25 18:33:16.959,2709.0,-4032.0,1318.0,402.0,265.0,75.0,117,62,77,84,74
2025-02-25 18:33:16.964,2356.0,-3483.0,1247.0,358.0,269.0,118.0,115,58,74,84,75
2025-02-25 18:33:16.968,2071.0,-2832.0,939.0,263.0,258.0,145.0,112,61,73,85,72
2025-02-25 18:33:16.976,1540.0,-2459.0,666.0,116.0,223.0,159.0,113,61,72,86,75
2025-02-25 18:33:16.980,1015.0,-1903.0,506.0,-13.0,162.0,174.0,113,61,71,88,75
2025-02-25 18:33:16.985,810.0,-1583.0,330.0,-79.0,104.0,169.0,112,63,70,85,76
2025-02-25 18:33:16.989,665.0,-1429.0,183.0,-179.0,75.0,162.0,113,62,67,86,76
2025-02-25 18:33:16.996,443.0,-1492.0,-2.0,-239.0,14.0,158.0,115,62,67,86,74
2025-02-25 18:33:17.000,495.0,-1786.0,92.0,-264.0,-21.0,161.0,114,64,69,87,76
2025-02-25 18:33:17.005,478.0,-2098.0,55.0,-268.0,-51.0,168.0,113,64,68,89,78
2025-02-25 18:33:17.009,426.0,-2209.0,122.0,-249.0,-64.0,180.0,110,63,67,87,76
2025-02-25 18:33:17.017,542.0,-2161.0,300.0,-214.0,-66.0,184.0,114,63,67,86,78
2025-02-25 18:33:17.022,598.0,-2115.0,416.0,-171.0,-59.0,190.0,113,66,69,87,78
2025-02-25 18:33:17.026,519.0,-2013.0,491.0,-154.0,-47.0,206.0,108,65,70,86,76
2025-02-25 18:33:17.031,477.0,-1800.0,513.0,-122.0,-48.0,222.0,111,63,70,84,74
2025-02-25 18:33:17.037,446.0,-1789.0,506.0,-100.0,-40.0,228.0,113,64,70,86,77
2025-02-25 18:33:17.042,391.0,-1518.0,507.0,-83.0,-33.0,238.0,114,65,70,88,77
2025-02-25 18:33:17.046,257.0,-1264.0,530.0,-78.0,-25.0,240.0,112,65,71,86,79
2025-02-25 18:33:17.054,114.0,-994.0,506.0,-71.0,-24.0,237.0,113,63,72,85,75
2025-02-25 18:33:17.058,48.0,-837.0,475.0,-68.0,-27.0,236.0,114,67,72,87,71
2025-02-25 18:33:17.062,-51.0,-658.0,462.0,-74.0,-28.0,231.0,115,65,74,87,76
2025-02-25 18:33:17.067,-120.0,-560.0,451.0,-79.0,-29.0,227.0,115,71,75,85,76
2025-02-25 18:33:17.071,-206.0,-451.0,393.0,-88.0,-31.0,219.0,113,64,75,81,75
2025-02-25 18:33:17.079,-237.0,-353.0,381.0,-89.0,-31.0,216.0,115,58,76,86,78
2025-02-25 18:33:17.083,-290.0,-308.0,352.0,-94.0,-30.0,209.0,116,66,75,85,75
2025-02-25 18:33:17.087,-324.0,-237.0,317.0,-95.0,-27.0,204.0,115,67,76,88,76
2025-02-25 18:33:17.091,-362.0,-186.0,299.0,-98.0,-25.0,195.0,114,66,75,86,75
2025-02-25 18:33:17.099,-424.0,-156.0,277.0,-96.0,-21.0,191.0,118,68,76,87,77
2025-02-25 18:33:17.104,-504.0,-103.0,254.0,-92.0,-19.0,180.0,115,66,74,86,76
2025-02-25 18:33:17.108,-557.0,-88.0,250.0,-90.0,-14.0,170.0,116,67,74,87,75
2025-02-25 18:33:17.112,-571.0,-56.0,245.0,-82.0,-10.0,160.0,115,65,73,88,71
2025-02-25 18:33:17.120,-573.0,-82.0,229.0,-73.0,-2.0,153.0,116,67,71,87,78
2025-02-25 18:33:17.124,-594.0,-94.0,236.0,-70.0,9.0,143.0,117,66,71,87,77
2025-02-25 18:33:17.128,-609.0,-102.0,217.0,-62.0,15.0,134.0,116,65,68,88,77
2025-02-25 18:33:17.132,-632.0,-75.0,180.0,-53.0,27.0,129.0,119,66,68,89,77
2025-02-25 18:33:17.140,-680.0,-89.0,142.0,-48.0,35.0,122.0,118,69,72,90,78
2025-02-25 18:33:17.144,-709.0,-102.0,70.0,-47.0,37.0,118.0,117,68,69,90,76
2025-02-25 18:33:17.148,-732.0,-124.0,20.0,-42.0,41.0,115.0,117,64,67,88,78
2025-02-25 18:33:17.152,-809.0,-117.0,-11.0,-35.0,42.0,109.0,117,66,71,88,79
2025-02-25 18:33:17.157,-823.0,-62.0,-60.0,-33.0,38.0,100.0,117,67,69,90,79
2025-02-25 18:33:17.165,-833.0,-44.0,-96.0,-29.0,36.0,96.0,115,66,68,89,79
2025-02-25 18:33:17.169,-885.0,-14.0,-96.0,-27.0,31.0,88.0,119,67,70,89,77
2025-02-25 18:33:17.173,-897.0,44.0,-107.0,-27.0,26.0,76.0,117,67,73,90,78
2025-02-25 18:33:17.177,-909.0,85.0,-102.0,-25.0,23.0,70.0,121,68,72,90,78
2025-02-25 18:33:17.181,-884.0,62.0,-91.0,-24.0,18.0,58.0,117,66,72,86,78
2025-02-25 18:33:17.189,-918.0,67.0,-99.0,-24.0,14.0,47.0,117,67,72,90,77
2025-02-25 18:33:17.193,-909.0,91.0,-91.0,-24.0,12.0,38.0,118,66,73,89,76
2025-02-25 18:33:17.198,-915.0,70.0,-95.0,-23.0,9.0,34.0,118,68,75,90,78
2025-02-25 18:33:17.201,-911.0,91.0,-113.0,-23.0,5.0,25.0,117,68,75,89,77
2025-02-25 18:33:17.205,-911.0,99.0,-96.0,-22.0,4.0,19.0,116,65,72,87,78
2025-02-25 18:33:17.210,-930.0,134.0,-100.0,-19.0,3.0,15.0,116,68,74,90,78
2025-02-25 18:33:17.217,-911.0,115.0,-89.0,-18.0,5.0,9.0,118,65,72,90,79
2025-02-25 18:33:17.222,-907.0,127.0,-91.0,-10.0,7.0,3.0,118,66,72,88,78
2025-02-25 18:33:17.226,-927.0,137.0,-88.0,4.0,12.0,-2.0,118,70,73,89,75
2025-02-25 18:33:17.230,-954.0,152.0,-92.0,12.0,19.0,-10.0,118,66,72,89,78
2025-02-25 18:33:17.234,-973.0,187.0,-110.0,33.0,22.0,-22.0,119,65,70,89,77
2025-02-25 18:33:17.238,-970.0,217.0,-143.0,57.0,30.0,-28.0,119,66,73,90,78
2025-02-25 18:33:17.246,-1026.0,259.0,-161.0,68.0,38.0,-39.0,118,66,72,89,79
2025-02-25 18:33:17.250,-1051.0,315.0,-209.0,91.0,43.0,-50.0,116,65,70,89,76
2025-02-25 18:33:17.255,-1130.0,341.0,-240.0,113.0,48.0,-54.0,118,72,72,90,83
2025-02-25 18:33:17.259,-1158.0,424.0,-267.0,122.0,55.0,-65.0,120,66,73,91,80
2025-02-25 18:33:17.267,-1175.0,591.0,-326.0,140.0,56.0,-78.0,119,68,71,88,79
2025-02-25 18:33:17.271,-1172.0,573.0,-327.0,155.0,63.0,-86.0,118,66,71,90,79
2025-02-25 18:33:17.275,-1205.0,705.0,-330.0,168.0,67.0,-104.0,118,66,67,92,80
2025-02-25 18:33:17.280,-1201.0,760.0,-369.0,174.0,67.0,-127.0,116,66,72,89,78
2025-02-25 18:33:17.287,-1175.0,778.0,-379.0,187.0,66.0,-139.0,116,67,71,88,78
2025-02-25 18:33:17.292,-1095.0,793.0,-386.0,200.0,61.0,-167.0,120,67,72,90,81
2025-02-25 18:33:17.296,-1014.0,786.0,-386.0,206.0,51.0,-200.0,118,60,73,90,80
2025-02-25 18:33:17.308,-958.0,781.0,-395.0,215.0,43.0,-238.0,118,66,72,88,78
2025-02-25 18:33:17.310,-888.0,776.0,-390.0,216.0,22.0,-258.0,122,67,73,86,79
2025-02-25 18:33:17.313,-775.0,767.0,-389.0,209.0,-12.0,-304.0,117,65,72,90,78
2025-02-25 18:33:17.317,-630.0,742.0,-354.0,208.0,-53.0,-350.0,119,68,72,91,79
2025-02-25 18:33:17.324,-506.0,590.0,-298.0,190.0,-73.0,-393.0,119,66,71,90,79
2025-02-25 18:33:17.329,-331.0,541.0,-242.0,173.0,-127.0,-415.0,117,65,72,88,78
2025-02-25 18:33:17.332,-32.0,296.0,-203.0,155.0,-186.0,-454.0,119,67,73,90,81
2025-02-25 18:33:17.337,353.0,-136.0,8.0,148.0,-236.0,-473.0,122,69,73,91,81
2025-02-25 18:33:17.344,565.0,-738.0,286.0,142.0,-256.0,-469.0,119,67,71,91,79
2025-02-25 18:33:17.349,1013.0,-1087.0,614.0,146.0,-285.0,-456.0,119,65,70,90,79
2025-02-25 18:33:17.353,1491.0,-1890.0,1040.0,165.0,-294.0,-413.0,120,66,74,87,80
2025-02-25 18:33:17.361,1959.0,-2720.0,1326.0,200.0,-278.0,-348.0,121,67,75,94,76
2025-02-25 18:33:17.365,2423.0,-3456.0,1865.0,243.0,-228.0,-266.0,122,66,75,90,81
2025-02-25 18:33:17.369,2764.0,-4009.0,2377.0,264.0,-147.0,-176.0,122,66,77,91,80
2025-02-25 18:33:17.377,2962.0,-4284.0,2729.0,297.0,-97.0,-85.0,126,64,75,89,79
2025-02-25 18:33:17.381,2996.0,-4190.0,2836.0,308.0,7.0,-5.0,123,64,75,86,80
2025-02-25 18:33:17.386,2838.0,-4020.0,2718.0,283.0,99.0,27.0,122,65,78,89,78
2025-02-25 18:33:17.391,2470.0,-3403.0,2624.0,220.0,162.0,73.0,124,65,79,86,78
2025-02-25 18:33:17.398,1980.0,-2779.0,2378.0,169.0,195.0,107.0,122,69,80,84,72
2025-02-25 18:33:17.402,1610.0,-1995.0,1837.0,55.0,199.0,112.0,121,65,78,83,75
2025-02-25 18:33:17.406,1370.0,-1900.0,1703.0,-62.0,188.0,119.0,125,65,78,82,74
2025-02-25 18:33:17.414,1000.0,-1643.0,1390.0,-148.0,169.0,117.0,124,64,79,85,75
2025-02-25 18:33:17.418,706.0,-1755.0,1063.0,-190.0,139.0,128.0,124,66,80,89,78
2025-02-25 18:33:17.423,467.0,-1959.0,747.0,-241.0,111.0,150.0,123,64,76,87,76
2025-02-25 18:33:17.430,449.0,-1935.0,488.0,-266.0,96.0,163.0,122,63,75,86,74
2025-02-25 18:33:17.435,422.0,-1963.0,380.0,-260.0,73.0,168.0,125,64,74,88,77
2025-02-25 18:33:17.439,269.0,-2003.0,309.0,-222.0,62.0,167.0,125,67,77,91,79
2025-02-25 18:33:17.443,286.0,-1908.0,219.0,-197.0,49.0,163.0,124,66,76,87,78
2025-02-25 18:33:17.452,129.0,-1866.0,142.0,-142.0,34.0,164.0,124,64,75,86,76
2025-02-25 18:33:17.456,52.0,-1840.0,58.0,-91.0,14.0,164.0,125,66,77,88,78
2025-02-25 18:33:17.460,45.0,-1704.0,117.0,-69.0,-7.0,168.0,128,66,77,90,80
2025-02-25 18:33:17.463,42.0,-1569.0,245.0,-30.0,-5.0,175.0,126,63,77,87,80
2025-02-25 18:33:17.468,48.0,-1467.0,342.0,-8.0,-23.0,178.0,129,64,78,89,79
2025-02-25 18:33:17.476,113.0,-1288.0,354.0,38.0,-12.0,183.0,133,65,77,91,80
2025-02-25 18:33:17.480,147.0,-927.0,395.0,48.0,-5.0,188.0,130,65,77,91,80
2025-02-25 18:33:17.484,143.0,-928.0,362.0,48.0,0.0,191.0,130,65,78,90,82
2025-02-25 18:33:17.488,-92.0,-819.0,319.0,-7.0,-13.0,191.0,131,66,78,93,83
2025-02-25 18:33:17.492,-114.0,-693.0,575.0,-32.0,-12.0,206.0,132,66,76,91,82
2025-02-25 18:33:17.501,-231.0,-693.0,417.0,-73.0,-12.0,207.0,132,65,77,93,83
2025-02-25 18:33:17.505,-405.0,-472.0,370.0,-83.0,-2.0,205.0,132,71,78,93,86
2025-02-25 18:33:17.509,-218.0,-218.0,452.0,-88.0,8.0,202.0,132,67,78,93,84
2025-02-25 18:33:17.513,-277.0,-228.0,206.0,-82.0,9.0,188.0,131,66,76,93,84
2025-02-25 18:33:17.521,-538.0,-99.0,392.0,-89.0,3.0,182.0,135,67,79,92,85
2025-02-25 18:33:17.525,-558.0,-111.0,332.0,-98.0,-3.0,177.0,135,67,78,93,83
2025-02-25 18:33:17.529,-574.0,-71.0,271.0,-130.0,-8.0,170.0,133,65,79,95,85
2025-02-25 18:33:17.534,-545.0,-108.0,265.0,-125.0,-9.0,164.0,136,65,79,93,84
2025-02-25 18:33:17.538,-603.0,-119.0,291.0,-89.0,10.0,155.0,135,66,81,94,86
2025-02-25 18:33:17.545,-493.0,-93.0,228.0,-62.0,20.0,143.0,136,65,78,94,86
2025-02-25 18:33:17.550,-546.0,-152.0,137.0,-20.0,24.0,130.0,133,65,77,92,85
2025-02-25 18:33:17.554,-695.0,-173.0,61.0,-13.0,20.0,125.0,136,68,81,93,85
2025-02-25 18:33:17.558,-570.0,-123.0,250.0,-2.0,31.0,122.0,135,67,80,93,84
2025-02-25 18:33:17.566,-520.0,-217.0,214.0,7.0,40.0,116.0,134,68,81,92,84
2025-02-25 18:33:17.570,-546.0,-237.0,-8.0,23.0,47.0,111.0,136,70,80,94,84
2025-02-25 18:33:17.574,-695.0,-314.0,10.0,27.0,53.0,105.0,136,73,82,92,85
2025-02-25 18:33:17.578,-561.0,-351.0,40.0,38.0,63.0,109.0,134,74,80,93,85
2025-02-25 18:33:17.582,-630.0,-374.0,24.0,52.0,67.0,108.0,135,76,85,92,86
2025-02-25 18:33:17.591,-647.0,-398.0,53.0,71.0,80.0,109.0,135,80,80,91,84
2025-02-25 18:33:17.595,-605.0,-417.0,-159.0,118.0,84.0,103.0,135,87,80,90,84
2025-02-25 18:33:17.599,-761.0,-448.0,-362.0,156.0,75.0,100.0,134,91,82,91,84
2025-02-25 18:33:17.603,-786.0,-401.0,-266.0,191.0,70.0,98.0,134,95,80,92,84
2025-02-25 18:33:17.611,-845.0,-303.0,-375.0,213.0,65.0,92.0,133,98,78,92,81
2025-02-25 18:33:17.615,-833.0,-353.0,-244.0,255.0,65.0,90.0,131,103,80,91,84
2025-02-25 18:33:17.619,-783.0,-358.0,-203.0,273.0,67.0,89.0,132,105,81,94,85
2025-02-25 18:33:17.623,-707.0,-355.0,-226.0,283.0,65.0,89.0,129,110,79,91,84
2025-02-25 18:33:17.631,-748.0,-298.0,-259.0,307.0,61.0,83.0,126,108,79,90,83
2025-02-25 18:33:17.635,-733.0,-198.0,-256.0,323.0,56.0,79.0,123,109,77,89,83
2025-02-25 18:33:17.640,-725.0,-229.0,-251.0,343.0,52.0,71.0,123,114,80,92,85
2025-02-25 18:33:17.645,-712.0,-139.0,-184.0,348.0,52.0,54.0,122,114,79,92,84
2025-02-25 18:33:17.652,-716.0,-92.0,-248.0,361.0,49.0,39.0,119,115,77,88,83
2025-02-25 18:33:17.656,-736.0,15.0,-290.0,370.0,43.0,31.0,116,116,78,89,82
2025-02-25 18:33:17.660,-848.0,75.0,-371.0,366.0,33.0,15.0,118,118,78,91,85
2025-02-25 18:33:17.664,-910.0,168.0,-256.0,364.0,20.0,-2.0,115,119,77,88,83
2025-02-25 18:33:17.669,-944.0,169.0,-263.0,343.0,16.0,-10.0,115,120,77,88,82
2025-02-25 18:33:17.676,-999.0,181.0,-439.0,320.0,1.0,-21.0,117,121,76,89,82
2025-02-25 18:33:17.681,-1075.0,319.0,-417.0,298.0,-11.0,-33.0,114,122,78,91,84
2025-02-25 18:33:17.685,-1005.0,386.0,-597.0,281.0,-18.0,-49.0,109,122,76,88,82
2025-02-25 18:33:17.693,-1003.0,428.0,-724.0,257.0,-40.0,-65.0,107,122,77,88,81
2025-02-25 18:33:17.698,-1156.0,372.0,-638.0,244.0,-61.0,-73.0,109,125,76,90,81
2025-02-25 18:33:17.702,-1229.0,312.0,-772.0,247.0,-86.0,-90.0,107,125,78,90,83
2025-02-25 18:33:17.709,-1213.0,283.0,-831.0,255.0,-111.0,-111.0,105,122,76,90,80
2025-02-25 18:33:17.714,-1167.0,301.0,-893.0,272.0,-142.0,-135.0,103,116,77,90,82
2025-02-25 18:33:17.718,-1143.0,262.0,-1349.0,272.0,-172.0,-152.0,102,115,76,85,82
2025-02-25 18:33:17.726,-1022.0,269.0,-936.0,328.0,-187.0,-177.0,100,118,75,89,82
2025-02-25 18:33:17.730,-952.0,169.0,-751.0,358.0,-222.0,-187.0,102,117,75,88,81
2025-02-25 18:33:17.735,-880.0,239.0,-538.0,391.0,-247.0,-200.0,104,119,76,90,84
2025-02-25 18:33:17.742,-740.0,293.0,-470.0,417.0,-268.0,-210.0,101,118,79,90,85
2025-02-25 18:33:17.746,-617.0,352.0,-309.0,424.0,-290.0,-223.0,100,117,77,89,82
2025-02-25 18:33:17.751,-396.0,358.0,-87.0,448.0,-322.0,-231.0,98,118,75,89,82
2025-02-25 18:33:17.755,-471.0,148.0,534.0,414.0,-309.0,-200.0,99,117,76,89,82
