timestamp,ax,ay,az,gx,gy,gz,flex1,flex2,flex3,flex4,flex5,emg1,emg2,emg3
2025-02-25 18:06:23.949,-271.0,-962.0,224.0,-4.0,1.0,0.0,141,121,108,122,121
2025-02-25 18:06:23.951,-271.0,-964.0,222.0,-4.0,1.0,1.0,143,124,112,124,123
2025-02-25 18:06:23.954,-267.0,-951.0,211.0,-4.0,0.0,1.0,141,121,108,123,122
2025-02-25 18:06:23.956,-268.0,-949.0,214.0,-3.0,1.0,1.0,141,122,109,122,122
2025-02-25 18:06:23.958,-267.0,-947.0,209.0,-4.0,0.0,1.0,142,123,111,124,122
2025-02-25 18:06:23.960,-270.0,-946.0,198.0,-5.0,-1.0,0.0,142,123,110,123,121
2025-02-25 18:06:23.962,-272.0,-944.0,204.0,-4.0,-2.0,0.0,142,122,110,122,122
2025-02-25 18:06:23.965,-269.0,-942.0,205.0,-5.0,-3.0,-1.0,143,124,109,124,122
2025-02-25 18:06:23.968,-266.0,-931.0,205.0,-5.0,-3.0,-2.0,141,122,111,123,121
2025-02-25 18:06:23.970,-270.0,-930.0,208.0,-5.0,-4.0,-2.0,141,123,109,122,120
2025-02-25 18:06:23.974,-272.0,-938.0,208.0,-5.0,-4.0,-3.0,141,123,110,124,122
2025-02-25 18:06:23.976,-273.0,-943.0,207.0,-5.0,-4.0,-2.0,141,122,108,123,120
2025-02-25 18:06:23.979,-274.0,-938.0,199.0,-6.0,-5.0,-2.0,141,122,109,123,120
2025-02-25 18:06:23.981,-275.0,-948.0,199.0,-5.0,-5.0,-1.0,142,123,110,124,121
2025-02-25 18:06:23.984,-271.0,-946.0,205.0,-4.0,-5.0,0.0,141,122,108,123,120
2025-02-25 18:06:23.986,-271.0,-953.0,213.0,-5.0,-5.0,0.0,141,123,109,122,118
2025-02-25 18:06:23.988,-271.0,-959.0,220.0,-4.0,-4.0,0.0,143,125,110,122,121
2025-02-25 18:06:23.991,-271.0,-957.0,230.0,-5.0,-4.0,1.0,143,124,109,123,119
2025-02-25 18:06:23.993,-264.0,-957.0,228.0,-5.0,-3.0,1.0,140,121,106,122,121
2025-02-25 18:06:23.995,-269.0,-960.0,227.0,-4.0,-3.0,2.0,143,124,109,123,120
2025-02-25 18:06:23.997,-268.0,-954.0,224.0,-3.0,-3.0,2.0,143,123,109,123,118
2025-02-25 18:06:23.999,-272.0,-957.0,230.0,-3.0,-2.0,2.0,141,122,108,122,116
2025-02-25 18:06:24.002,-274.0,-956.0,226.0,-2.0,-2.0,2.0,143,124,109,124,117
2025-02-25 18:06:24.003,-269.0,-944.0,230.0,-2.0,-2.0,1.0,142,123,109,123,117
2025-02-25 18:06:24.005,-271.0,-939.0,226.0,-2.0,-2.0,1.0,141,123,109,123,120
2025-02-25 18:06:24.008,-271.0,-939.0,230.0,-1.0,-2.0,0.0,143,124,110,124,118
2025-02-25 18:06:24.010,-276.0,-934.0,233.0,-1.0,-2.0,1.0,142,124,110,123,117
2025-02-25 18:06:24.013,-274.0,-937.0,231.0,-1.0,-2.0,-1.0,142,123,109,124,116
2025-02-25 18:06:24.016,-278.0,-935.0,225.0,0.0,-1.0,0.0,143,126,110,122,117
2025-02-25 18:06:24.018,-283.0,-938.0,223.0,1.0,-1.0,-1.0,143,124,110,124,117
2025-02-25 18:06:24.021,-281.0,-941.0,227.0,1.0,-1.0,-1.0,142,124,110,124,115
2025-02-25 18:06:24.023,-286.0,-940.0,227.0,2.0,-1.0,-1.0,141,123,108,124,116
2025-02-25 18:06:24.025,-284.0,-940.0,228.0,1.0,-1.0,-1.0,140,124,109,125,116
2025-02-25 18:06:24.028,-286.0,-948.0,228.0,1.0,0.0,-1.0,142,125,109,124,117
2025-02-25 18:06:24.030,-286.0,-946.0,227.0,1.0,0.0,0.0,141,124,107,123,116
2025-02-25 18:06:24.033,-285.0,-948.0,229.0,0.0,0.0,0.0,141,123,109,122,115
2025-02-25 18:06:24.035,-286.0,-947.0,229.0,0.0,0.0,0.0,140,125,109,123,117
2025-02-25 18:06:24.037,-287.0,-948.0,229.0,0.0,0.0,0.0,143,123,109,123,116
2025-02-25 18:06:24.040,-283.0,-950.0,227.0,0.0,0.0,0.0,141,123,108,127,115
2025-02-25 18:06:24.043,-285.0,-948.0,221.0,-1.0,0.0,0.0,142,124,110,124,117
2025-02-25 18:06:24.045,-280.0,-946.0,226.0,-1.0,-1.0,0.0,142,125,109,124,116
2025-02-25 18:06:24.047,-281.0,-946.0,224.0,-1.0,-1.0,0.0,141,122,109,123,115
2025-02-25 18:06:24.050,-276.0,-942.0,222.0,-1.0,-1.0,0.0,141,124,114,122,115
2025-02-25 18:06:24.052,-273.0,-942.0,224.0,-1.0,-1.0,0.0,142,125,109,123,116
2025-02-25 18:06:24.054,-278.0,-947.0,228.0,-1.0,-1.0,0.0,143,124,110,122,115
2025-02-25 18:06:24.057,-276.0,-951.0,227.0,-1.0,-1.0,0.0,141,123,109,123,116
2025-02-25 18:06:24.060,-275.0,-952.0,224.0,0.0,-1.0,0.0,140,124,110,123,116
2025-02-25 18:06:24.062,-278.0,-950.0,226.0,1.0,0.0,-1.0,143,124,110,125,117
2025-02-25 18:06:24.064,-273.0,-946.0,224.0,1.0,0.0,-1.0,142,124,108,122,115
2025-02-25 18:06:24.066,-271.0,-949.0,225.0,2.0,0.0,-1.0,142,124,108,123,115
2025-02-25 18:06:24.068,-277.0,-950.0,230.0,2.0,0.0,-2.0,142,124,112,123,116
2025-02-25 18:06:24.071,-274.0,-953.0,227.0,2.0,0.0,-1.0,143,125,109,123,116
2025-02-25 18:06:24.073,-273.0,-952.0,227.0,2.0,0.0,-1.0,141,121,108,123,115
2025-02-25 18:06:24.076,-274.0,-954.0,229.0,3.0,1.0,-1.0,143,123,109,124,117
2025-02-25 18:06:24.078,-273.0,-954.0,229.0,4.0,2.0,-1.0,144,123,110,125,116
2025-02-25 18:06:24.080,-274.0,-958.0,233.0,4.0,3.0,-1.0,143,122,108,122,116
2025-02-25 18:06:24.082,-273.0,-947.0,235.0,5.0,3.0,-1.0,142,123,108,121,115
2025-02-25 18:06:24.085,-268.0,-953.0,238.0,4.0,4.0,-1.0,142,122,110,124,117
2025-02-25 18:06:24.087,-268.0,-953.0,239.0,4.0,4.0,0.0,141,123,109,123,116
2025-02-25 18:06:24.089,-270.0,-957.0,236.0,3.0,5.0,0.0,141,122,108,123,116
2025-02-25 18:06:24.092,-265.0,-951.0,246.0,2.0,6.0,0.0,143,123,110,124,116
2025-02-25 18:06:24.094,-267.0,-952.0,247.0,2.0,6.0,1.0,143,124,109,124,120
2025-02-25 18:06:24.096,-269.0,-956.0,246.0,2.0,7.0,1.0,142,122,108,122,114
2025-02-25 18:06:24.098,-272.0,-964.0,249.0,2.0,8.0,1.0,142,123,109,122,115
2025-02-25 18:06:24.100,-266.0,-958.0,244.0,2.0,9.0,1.0,143,123,110,124,116
2025-02-25 18:06:24.102,-273.0,-967.0,239.0,2.0,9.0,1.0,141,122,109,121,114
2025-02-25 18:06:24.105,-274.0,-964.0,233.0,2.0,9.0,2.0,140,121,108,123,115
2025-02-25 18:06:24.107,-276.0,-967.0,247.0,0.0,10.0,1.0,143,123,110,124,116
2025-02-25 18:06:24.110,-281.0,-958.0,227.0,1.0,9.0,1.0,142,123,109,124,116
2025-02-25 18:06:24.113,-283.0,-966.0,237.0,0.0,8.0,1.0,142,122,108,123,116
2025-02-25 18:06:24.117,-283.0,-964.0,232.0,-1.0,8.0,1.0,141,122,110,125,116
2025-02-25 18:06:24.124,-287.0,-968.0,217.0,-1.0,8.0,1.0,142,122,109,123,116
2025-02-25 18:06:24.128,-290.0,-970.0,227.0,-1.0,8.0,1.0,141,122,110,121,114
2025-02-25 18:06:24.133,-295.0,-965.0,228.0,-2.0,9.0,1.0,142,123,110,124,116
2025-02-25 18:06:24.137,-297.0,-968.0,227.0,-1.0,9.0,1.0,141,122,110,123,117
2025-02-25 18:06:24.145,-295.0,-967.0,222.0,-1.0,8.0,1.0,141,120,108,122,116
2025-02-25 18:06:24.149,-296.0,-964.0,225.0,-2.0,8.0,1.0,142,120,109,122,116
2025-02-25 18:06:24.153,-293.0,-965.0,220.0,-3.0,8.0,2.0,143,120,110,124,117
2025-02-25 18:06:24.157,-293.0,-965.0,213.0,-3.0,8.0,1.0,141,120,110,124,118
2025-02-25 18:06:24.162,-296.0,-963.0,216.0,-3.0,8.0,2.0,141,120,108,122,115
2025-02-25 18:06:24.169,-290.0,-967.0,217.0,-3.0,7.0,1.0,142,121,109,122,117
2025-02-25 18:06:24.173,-289.0,-956.0,213.0,-2.0,7.0,1.0,142,121,110,123,118
2025-02-25 18:06:24.178,-282.0,-947.0,208.0,-2.0,7.0,1.0,141,119,108,122,116
2025-02-25 18:06:24.182,-279.0,-944.0,210.0,-2.0,8.0,0.0,141,120,108,123,117
2025-02-25 18:06:24.190,-271.0,-936.0,213.0,-2.0,8.0,-1.0,142,121,110,123,117
2025-02-25 18:06:24.194,-269.0,-933.0,212.0,-2.0,7.0,-2.0,143,121,110,124,120
2025-02-25 18:06:24.199,-265.0,-935.0,209.0,-2.0,7.0,-3.0,141,118,108,123,117
2025-02-25 18:06:24.203,-268.0,-934.0,195.0,-1.0,8.0,-3.0,141,118,108,122,117
2025-02-25 18:06:24.210,-269.0,-935.0,185.0,0.0,8.0,-2.0,142,121,109,123,118
2025-02-25 18:06:24.214,-276.0,-936.0,186.0,1.0,8.0,-2.0,140,119,109,122,116
2025-02-25 18:06:24.219,-277.0,-941.0,179.0,3.0,8.0,-2.0,140,116,108,123,116
2025-02-25 18:06:24.224,-285.0,-952.0,203.0,6.0,7.0,-1.0,142,120,110,123,116
2025-02-25 18:06:24.231,-271.0,-930.0,167.0,5.0,6.0,-1.0,143,120,110,123,117
2025-02-25 18:06:24.235,-309.0,-921.0,177.0,5.0,4.0,-2.0,142,118,108,122,116
2025-02-25 18:06:24.240,-284.0,-925.0,194.0,5.0,3.0,-2.0,140,118,108,123,116
2025-02-25 18:06:24.244,-286.0,-912.0,208.0,2.0,3.0,-2.0,142,118,110,123,117
2025-02-25 18:06:24.252,-318.0,-941.0,185.0,3.0,2.0,-2.0,143,119,109,124,117
2025-02-25 18:06:24.256,-303.0,-944.0,205.0,5.0,1.0,-2.0,141,116,109,123,117
2025-02-25 18:06:24.260,-290.0,-941.0,218.0,2.0,1.0,-2.0,141,116,108,124,117
2025-02-25 18:06:24.264,-299.0,-938.0,208.0,2.0,2.0,-2.0,142,119,110,124,117
2025-02-25 18:06:24.269,-303.0,-954.0,216.0,3.0,2.0,-2.0,141,117,109,123,117
2025-02-25 18:06:24.276,-295.0,-939.0,229.0,2.0,2.0,-3.0,140,116,108,124,117
2025-02-25 18:06:24.281,-282.0,-953.0,232.0,2.0,3.0,-3.0,142,119,110,123,117
2025-02-25 18:06:24.285,-292.0,-958.0,226.0,3.0,3.0,-4.0,141,117,109,123,117
2025-02-25 18:06:24.289,-283.0,-959.0,235.0,5.0,3.0,-4.0,141,117,108,123,116
2025-02-25 18:06:24.297,-283.0,-951.0,207.0,4.0,4.0,-5.0,141,116,107,123,116
2025-02-25 18:06:24.301,-261.0,-928.0,245.0,4.0,6.0,-6.0,142,118,109,123,117
2025-02-25 18:06:24.305,-283.0,-935.0,220.0,6.0,5.0,-5.0,141,117,110,125,117
2025-02-25 18:06:24.309,-281.0,-952.0,220.0,7.0,5.0,-5.0,141,117,109,124,117
2025-02-25 18:06:24.317,-287.0,-949.0,227.0,8.0,5.0,-4.0,143,118,108,123,117
2025-02-25 18:06:24.321,-289.0,-948.0,216.0,9.0,4.0,-3.0,142,117,109,124,118
2025-02-25 18:06:24.326,-295.0,-944.0,219.0,10.0,4.0,-2.0,145,117,109,122,117
2025-02-25 18:06:24.330,-292.0,-930.0,229.0,9.0,1.0,-1.0,141,118,109,124,117
2025-02-25 18:06:24.337,-297.0,-940.0,228.0,7.0,1.0,-1.0,142,118,108,124,117
2025-02-25 18:06:24.342,-292.0,-940.0,224.0,7.0,0.0,0.0,142,116,109,124,117
2025-02-25 18:06:24.346,-291.0,-939.0,231.0,5.0,0.0,0.0,141,114,107,121,116
2025-02-25 18:06:24.350,-286.0,-946.0,230.0,4.0,-1.0,1.0,145,119,110,125,115
2025-02-25 18:06:24.355,-284.0,-942.0,230.0,3.0,-2.0,2.0,142,117,110,123,118
2025-02-25 18:06:24.362,-286.0,-949.0,227.0,2.0,-2.0,2.0,142,118,109,123,115
2025-02-25 18:06:24.366,-286.0,-947.0,231.0,1.0,-2.0,2.0,142,117,107,123,116
2025-02-25 18:06:24.371,-272.0,-946.0,239.0,1.0,-2.0,2.0,144,120,111,124,118
2025-02-25 18:06:24.375,-275.0,-941.0,244.0,-1.0,-1.0,2.0,141,116,108,124,116
2025-02-25 18:06:24.382,-271.0,-945.0,244.0,-2.0,-1.0,1.0,141,116,107,123,116
2025-02-25 18:06:24.387,-269.0,-956.0,243.0,-3.0,-1.0,1.0,142,117,108,123,116
2025-02-25 18:06:24.391,-280.0,-959.0,241.0,-4.0,-1.0,1.0,143,119,110,125,118
2025-02-25 18:06:24.395,-279.0,-959.0,236.0,-3.0,-2.0,1.0,140,116,108,123,117
2025-02-25 18:06:24.403,-272.0,-957.0,243.0,-3.0,-1.0,1.0,141,115,108,122,117
2025-02-25 18:06:24.407,-284.0,-960.0,237.0,-1.0,-1.0,1.0,142,116,108,124,116
2025-02-25 18:06:24.411,-278.0,-957.0,238.0,-1.0,-2.0,2.0,143,118,109,124,116
2025-02-25 18:06:24.416,-285.0,-959.0,238.0,-1.0,-1.0,3.0,141,115,107,123,118
2025-02-25 18:06:24.424,-288.0,-958.0,237.0,-1.0,-1.0,3.0,141,117,108,123,115
2025-02-25 18:06:24.428,-287.0,-965.0,237.0,0.0,-1.0,4.0,140,118,109,124,117
2025-02-25 18:06:24.433,-289.0,-960.0,234.0,1.0,-1.0,5.0,143,116,108,123,117
2025-02-25 18:06:24.437,-292.0,-957.0,236.0,2.0,-1.0,4.0,140,113,107,123,116
2025-02-25 18:06:24.444,-293.0,-952.0,232.0,3.0,0.0,5.0,141,115,106,123,114
2025-02-25 18:06:24.449,-298.0,-951.0,237.0,4.0,0.0,5.0,144,115,108,124,118
2025-02-25 18:06:24.453,-303.0,-949.0,237.0,4.0,0.0,4.0,141,116,105,122,116
2025-02-25 18:06:24.457,-304.0,-951.0,230.0,5.0,1.0,4.0,141,114,107,123,115
2025-02-25 18:06:24.462,-299.0,-937.0,229.0,5.0,1.0,4.0,142,116,108,123,116
2025-02-25 18:06:24.469,-304.0,-941.0,224.0,5.0,1.0,4.0,143,117,109,123,116
2025-02-25 18:06:24.473,-303.0,-939.0,234.0,5.0,1.0,4.0,141,117,110,123,116
2025-02-25 18:06:24.477,-298.0,-937.0,231.0,4.0,0.0,4.0,142,116,109,124,117
2025-02-25 18:06:24.482,-295.0,-938.0,228.0,3.0,0.0,4.0,142,116,108,122,115
2025-02-25 18:06:24.489,-298.0,-944.0,235.0,2.0,1.0,4.0,140,116,103,121,114
2025-02-25 18:06:24.494,-300.0,-943.0,247.0,3.0,2.0,4.0,142,116,107,124,116
2025-02-25 18:06:24.498,-292.0,-962.0,232.0,2.0,2.0,5.0,141,111,108,123,118
2025-02-25 18:06:24.502,-300.0,-941.0,238.0,2.0,2.0,5.0,141,115,106,122,114
2025-02-25 18:06:24.506,-292.0,-933.0,236.0,1.0,3.0,5.0,142,117,107,124,115
2025-02-25 18:06:24.514,-294.0,-936.0,236.0,-1.0,3.0,6.0,142,116,108,123,116
2025-02-25 18:06:24.518,-300.0,-925.0,226.0,-2.0,3.0,7.0,140,114,106,122,114
2025-02-25 18:06:24.523,-292.0,-934.0,230.0,-3.0,3.0,7.0,140,115,106,120,113
2025-02-25 18:06:24.527,-283.0,-927.0,235.0,-4.0,2.0,6.0,143,118,106,122,115
2025-02-25 18:06:24.534,-290.0,-924.0,231.0,-4.0,1.0,6.0,142,116,107,123,116
2025-02-25 18:06:24.539,-293.0,-924.0,234.0,-4.0,1.0,5.0,141,114,106,120,114
2025-02-25 18:06:24.543,-301.0,-926.0,231.0,-5.0,0.0,5.0,142,116,107,123,115
2025-02-25 18:06:24.547,-308.0,-934.0,235.0,-4.0,-1.0,4.0,142,116,107,123,117
2025-02-25 18:06:24.555,-305.0,-935.0,236.0,-5.0,-2.0,4.0,141,116,109,122,115
2025-02-25 18:06:24.559,-309.0,-942.0,237.0,-4.0,-2.0,3.0,141,115,106,122,116
2025-02-25 18:06:24.563,-305.0,-947.0,243.0,-5.0,-3.0,2.0,142,117,108,122,115
2025-02-25 18:06:24.568,-301.0,-957.0,242.0,-7.0,-3.0,1.0,142,117,104,122,114
2025-02-25 18:06:24.574,-303.0,-960.0,235.0,-8.0,-3.0,1.0,142,115,107,123,115
2025-02-25 18:06:24.579,-305.0,-954.0,228.0,-10.0,-4.0,1.0,141,115,102,121,113
2025-02-25 18:06:24.584,-305.0,-954.0,226.0,-11.0,-3.0,3.0,141,115,107,123,115
2025-02-25 18:06:24.588,-308.0,-935.0,219.0,-12.0,-3.0,5.0,142,116,105,122,115
2025-02-25 18:06:24.596,-309.0,-931.0,220.0,-13.0,-3.0,6.0,142,116,106,122,114
2025-02-25 18:06:24.600,-312.0,-938.0,222.0,-15.0,-2.0,8.0,141,115,105,122,114
2025-02-25 18:06:24.604,-322.0,-948.0,216.0,-15.0,-3.0,8.0,140,115,107,122,115
2025-02-25 18:06:24.612,-308.0,-939.0,210.0,-14.0,-3.0,9.0,142,117,106,123,115
2025-02-25 18:06:24.616,-314.0,-942.0,204.0,-14.0,-3.0,10.0,141,116,107,121,115
2025-02-25 18:06:24.620,-316.0,-940.0,211.0,-11.0,-2.0,10.0,140,115,106,122,113
2025-02-25 18:06:24.625,-323.0,-946.0,212.0,-9.0,-3.0,9.0,141,115,105,122,114
2025-02-25 18:06:24.632,-331.0,-944.0,214.0,-6.0,-2.0,9.0,143,116,108,124,117
2025-02-25 18:06:24.636,-337.0,-947.0,213.0,-3.0,0.0,8.0,142,117,107,122,115
2025-02-25 18:06:24.641,-340.0,-962.0,199.0,-2.0,-1.0,7.0,142,115,105,121,114
2025-02-25 18:06:24.645,-342.0,-952.0,225.0,-1.0,0.0,7.0,140,113,106,121,114
2025-02-25 18:06:24.652,-329.0,-957.0,208.0,2.0,0.0,6.0,144,118,108,122,116
2025-02-25 18:06:24.657,-322.0,-974.0,204.0,4.0,1.0,5.0,142,117,107,124,115
2025-02-25 18:06:24.661,-318.0,-975.0,214.0,7.0,2.0,3.0,141,115,105,120,114
2025-02-25 18:06:24.666,-308.0,-979.0,217.0,10.0,3.0,4.0,142,117,107,122,115
2025-02-25 18:06:24.670,-309.0,-983.0,224.0,11.0,4.0,4.0,144,118,106,122,114
2025-02-25 18:06:24.677,-291.0,-979.0,220.0,12.0,5.0,6.0,140,115,108,121,115
2025-02-25 18:06:24.681,-288.0,-978.0,210.0,12.0,6.0,7.0,141,115,106,120,113
2025-02-25 18:06:24.686,-281.0,-993.0,217.0,13.0,7.0,10.0,142,116,106,122,115
2025-02-25 18:06:24.690,-271.0,-998.0,225.0,13.0,7.0,12.0,144,119,108,123,117
2025-02-25 18:06:24.698,-272.0,-1001.0,229.0,12.0,7.0,15.0,140,115,106,120,116
2025-02-25 18:06:24.703,-280.0,-1010.0,248.0,14.0,7.0,16.0,142,117,107,122,115
2025-02-25 18:06:24.707,-287.0,-1012.0,241.0,15.0,7.0,17.0,142,116,107,123,116
2025-02-25 18:06:24.714,-285.0,-1005.0,236.0,14.0,7.0,19.0,142,116,107,123,116
2025-02-25 18:06:24.718,-292.0,-988.0,229.0,17.0,7.0,19.0,141,115,106,123,115
2025-02-25 18:06:24.723,-304.0,-982.0,235.0,19.0,6.0,20.0,142,117,106,119,114
2025-02-25 18:06:24.727,-293.0,-962.0,233.0,18.0,5.0,20.0,143,118,107,121,116
2025-02-25 18:06:24.735,-294.0,-940.0,259.0,17.0,5.0,20.0,142,116,106,122,116
2025-02-25 18:06:24.739,-303.0,-930.0,225.0,16.0,5.0,19.0,138,115,106,120,115
2025-02-25 18:06:24.743,-303.0,-918.0,224.0,14.0,3.0,19.0,140,116,105,120,115
2025-02-25 18:06:24.747,-310.0,-916.0,223.0,14.0,3.0,18.0,143,118,106,122,116
2025-02-25 18:06:24.755,-314.0,-902.0,223.0,13.0,3.0,17.0,141,117,107,122,117
2025-02-25 18:06:24.759,-312.0,-903.0,216.0,13.0,2.0,15.0,141,116,106,120,115
2025-02-25 18:06:24.764,-328.0,-900.0,237.0,12.0,1.0,14.0,141,117,105,121,115
2025-02-25 18:06:24.768,-324.0,-879.0,233.0,11.0,0.0,14.0,142,118,108,122,117
2025-02-25 18:06:24.776,-342.0,-881.0,239.0,11.0,-1.0,13.0,142,118,108,123,117
2025-02-25 18:06:24.780,-343.0,-879.0,240.0,9.0,-1.0,12.0,140,118,106,121,115
2025-02-25 18:06:24.784,-359.0,-889.0,231.0,8.0,-2.0,12.0,141,119,107,121,116
2025-02-25 18:06:24.789,-365.0,-885.0,240.0,5.0,-3.0,12.0,143,119,108,123,117
2025-02-25 18:06:24.796,-373.0,-869.0,244.0,4.0,-3.0,11.0,142,119,107,122,117
2025-02-25 18:06:24.800,-377.0,-877.0,222.0,4.0,-4.0,11.0,141,118,106,121,116
2025-02-25 18:06:24.805,-385.0,-876.0,231.0,0.0,-5.0,11.0,141,119,107,122,116
2025-02-25 18:06:24.809,-387.0,-867.0,234.0,-3.0,-6.0,10.0,142,121,109,123,117
2025-02-25 18:06:24.817,-382.0,-870.0,219.0,-3.0,-7.0,11.0,142,119,106,123,117
2025-02-25 18:06:24.821,-389.0,-870.0,219.0,-6.0,-7.0,10.0,141,120,108,122,117
2025-02-25 18:06:24.825,-382.0,-865.0,227.0,-8.0,-8.0,10.0,141,119,106,121,118
2025-02-25 18:06:24.833,-378.0,-862.0,237.0,-10.0,-7.0,8.0,143,122,110,123,119
2025-02-25 18:06:24.837,-375.0,-864.0,234.0,-11.0,-8.0,7.0,142,120,107,124,118
2025-02-25 18:06:24.842,-365.0,-859.0,250.0,-10.0,-9.0,6.0,141,120,107,122,117
2025-02-25 18:06:24.846,-380.0,-867.0,276.0,-11.0,-9.0,4.0,142,120,109,121,117
2025-02-25 18:06:24.854,-367.0,-868.0,252.0,-10.0,-7.0,3.0,142,122,109,123,119
2025-02-25 18:06:24.858,-369.0,-882.0,251.0,-8.0,-6.0,1.0,142,121,108,124,119
2025-02-25 18:06:24.862,-374.0,-882.0,268.0,-8.0,-6.0,-1.0,142,122,108,123,119
2025-02-25 18:06:24.867,-372.0,-885.0,261.0,-6.0,-5.0,-3.0,142,121,106,121,119
2025-02-25 18:06:24.874,-371.0,-891.0,251.0,-4.0,-5.0,-4.0,141,120,108,123,118
2025-02-25 18:06:24.878,-370.0,-885.0,244.0,-1.0,-4.0,-6.0,142,121,108,124,118
2025-02-25 18:06:24.883,-368.0,-887.0,246.0,0.0,-4.0,-6.0,142,120,107,122,119
2025-02-25 18:06:24.890,-365.0,-895.0,233.0,2.0,-4.0,-7.0,139,121,108,120,118
2025-02-25 18:06:24.895,-358.0,-907.0,239.0,2.0,-5.0,-7.0,141,121,108,122,118
2025-02-25 18:06:24.899,-352.0,-906.0,241.0,2.0,-4.0,-8.0,139,123,109,124,119
2025-02-25 18:06:24.903,-364.0,-928.0,230.0,3.0,-6.0,-6.0,142,121,107,123,120
2025-02-25 18:06:24.911,-360.0,-916.0,262.0,1.0,-5.0,-6.0,138,120,107,128,119
2025-02-25 18:06:24.915,-364.0,-919.0,252.0,0.0,-4.0,-5.0,141,122,107,123,119
2025-02-25 18:06:24.920,-363.0,-953.0,254.0,1.0,-4.0,-3.0,142,123,108,123,119
2025-02-25 18:06:24.924,-352.0,-935.0,249.0,1.0,-3.0,-3.0,141,121,109,123,119
2025-02-25 18:06:24.932,-350.0,-948.0,255.0,1.0,-3.0,-1.0,142,123,109,123,119
2025-02-25 18:06:24.936,-353.0,-950.0,262.0,2.0,-2.0,-1.0,140,122,108,122,119
2025-02-25 18:06:24.940,-356.0,-951.0,256.0,1.0,-2.0,1.0,143,122,108,123,120
2025-02-25 18:06:24.945,-354.0,-948.0,263.0,1.0,-2.0,1.0,144,124,110,123,120
2025-02-25 18:06:24.952,-358.0,-953.0,265.0,2.0,-1.0,1.0,141,122,108,122,119
2025-02-25 18:06:24.956,-352.0,-931.0,268.0,3.0,-1.0,1.0,141,124,109,124,120
2025-02-25 18:06:24.961,-343.0,-932.0,262.0,4.0,0.0,0.0,141,122,109,123,119
2025-02-25 18:06:24.965,-341.0,-918.0,263.0,7.0,1.0,0.0,141,122,110,123,120
2025-02-25 18:06:24.970,-327.0,-921.0,247.0,10.0,1.0,0.0,142,123,110,124,120
2025-02-25 18:06:24.977,-335.0,-912.0,277.0,12.0,3.0,0.0,142,123,109,124,120
2025-02-25 18:06:24.981,-344.0,-923.0,255.0,14.0,1.0,0.0,140,121,107,122,120
2025-02-25 18:06:24.985,-344.0,-903.0,254.0,13.0,1.0,-1.0,141,123,110,122,120
2025-02-25 18:06:24.990,-342.0,-894.0,250.0,12.0,2.0,-2.0,142,123,109,124,120
2025-02-25 18:06:24.997,-347.0,-917.0,240.0,13.0,1.0,-2.0,143,123,108,123,121
2025-02-25 18:06:25.002,-348.0,-914.0,256.0,13.0,1.0,-3.0,141,121,108,122,119
2025-02-25 18:06:25.006,-343.0,-917.0,249.0,14.0,1.0,-2.0,141,122,108,121,120
2025-02-25 18:06:25.010,-353.0,-921.0,246.0,15.0,1.0,-2.0,142,122,109,124,120
2025-02-25 18:06:25.018,-348.0,-942.0,250.0,15.0,0.0,-1.0,143,123,109,124,121
2025-02-25 18:06:25.022,-344.0,-935.0,255.0,13.0,0.0,0.0,141,121,108,123,119
2025-02-25 18:06:25.026,-344.0,-940.0,263.0,10.0,-1.0,1.0,142,122,108,122,119
2025-02-25 18:06:25.031,-353.0,-948.0,259.0,8.0,-2.0,1.0,142,122,109,124,122
2025-02-25 18:06:25.038,-353.0,-943.0,262.0,7.0,-2.0,2.0,141,123,109,122,120
2025-02-25 18:06:25.043,-362.0,-946.0,261.0,8.0,-2.0,2.0,141,121,109,122,120
2025-02-25 18:06:25.047,-364.0,-939.0,258.0,9.0,-1.0,2.0,142,122,109,123,121
2025-02-25 18:06:25.051,-357.0,-924.0,250.0,8.0,-2.0,2.0,143,123,110,124,122
2025-02-25 18:06:25.059,-354.0,-915.0,248.0,7.0,-3.0,4.0,142,122,108,123,120
2025-02-25 18:06:25.063,-371.0,-957.0,241.0,8.0,-7.0,4.0,141,121,108,122,120
2025-02-25 18:06:25.068,-349.0,-884.0,280.0,2.0,-9.0,4.0,141,122,110,125,120
2025-02-25 18:06:25.072,-338.0,-916.0,268.0,0.0,-10.0,4.0,142,123,109,123,121
2025-02-25 18:06:25.079,-336.0,-931.0,234.0,2.0,-11.0,4.0,141,122,110,121,120
2025-02-25 18:06:25.084,-338.0,-904.0,278.0,2.0,-8.0,4.0,141,121,107,121,119
2025-02-25 18:06:25.088,-334.0,-916.0,216.0,11.0,-13.0,5.0,142,121,110,124,120
2025-02-25 18:06:25.092,-328.0,-918.0,317.0,6.0,-10.0,5.0,141,121,108,124,122
2025-02-25 18:06:25.100,-311.0,-898.0,267.0,-1.0,-10.0,6.0,140,121,108,122,121
2025-02-25 18:06:25.104,-330.0,-919.0,283.0,-4.0,-13.0,7.0,141,119,109,124,120
2025-02-25 18:06:25.109,-332.0,-929.0,258.0,-6.0,-16.0,9.0,143,121,110,120,120
2025-02-25 18:06:25.113,-332.0,-937.0,294.0,-7.0,-15.0,9.0,142,120,109,124,122
2025-02-25 18:06:25.120,-345.0,-947.0,275.0,-2.0,-14.0,9.0,141,119,110,122,119
2025-02-25 18:06:25.124,-356.0,-932.0,297.0,4.0,-10.0,9.0,140,121,109,122,118
2025-02-25 18:06:25.128,-373.0,-928.0,312.0,5.0,-8.0,8.0,143,128,108,123,118
2025-02-25 18:06:25.133,-369.0,-916.0,318.0,6.0,-7.0,6.0,144,119,108,122,121
2025-02-25 18:06:25.140,-366.0,-916.0,325.0,7.0,-6.0,4.0,141,118,108,123,119
2025-02-25 18:06:25.144,-344.0,-910.0,299.0,7.0,-6.0,4.0,141,117,106,121,119
2025-02-25 18:06:25.149,-337.0,-917.0,291.0,6.0,-7.0,2.0,142,117,109,123,121
2025-02-25 18:06:25.153,-339.0,-908.0,273.0,5.0,-8.0,1.0,142,119,107,123,122
2025-02-25 18:06:25.161,-329.0,-912.0,306.0,6.0,-8.0,1.0,143,118,107,122,120
2025-02-25 18:06:25.165,-318.0,-925.0,300.0,4.0,-9.0,1.0,142,119,107,122,121
2025-02-25 18:06:25.170,-316.0,-943.0,293.0,4.0,-10.0,1.0,142,117,107,128,121
2025-02-25 18:06:25.174,-310.0,-954.0,312.0,1.0,-10.0,3.0,142,118,108,122,119
2025-02-25 18:06:25.181,-314.0,-958.0,304.0,-1.0,-10.0,4.0,139,116,105,122,119
2025-02-25 18:06:25.186,-315.0,-986.0,310.0,-3.0,-10.0,6.0,141,116,108,122,119
2025-02-25 18:06:25.190,-314.0,-981.0,320.0,-3.0,-10.0,9.0,142,118,110,124,119
2025-02-25 18:06:25.198,-334.0,-1000.0,310.0,-3.0,-8.0,10.0,141,116,105,121,117
2025-02-25 18:06:25.202,-329.0,-1000.0,304.0,-4.0,-10.0,12.0,142,116,107,121,118
2025-02-25 18:06:25.206,-326.0,-992.0,310.0,-4.0,-9.0,13.0,142,114,107,122,117
2025-02-25 18:06:25.210,-321.0,-992.0,313.0,-5.0,-9.0,15.0,143,117,108,123,118
2025-02-25 18:06:25.218,-333.0,-987.0,301.0,-4.0,-8.0,17.0,142,115,105,124,118
2025-02-25 18:06:25.222,-331.0,-978.0,302.0,-3.0,-8.0,18.0,141,114,107,121,118
2025-02-25 18:06:25.227,-333.0,-963.0,302.0,-1.0,-8.0,20.0,141,113,107,122,116
2025-02-25 18:06:25.231,-346.0,-964.0,320.0,-1.0,-8.0,20.0,144,116,108,124,118
2025-02-25 18:06:25.239,-331.0,-947.0,315.0,4.0,-7.0,20.0,143,114,107,123,118
2025-02-25 18:06:25.243,-361.0,-939.0,311.0,7.0,-5.0,20.0,142,111,107,123,116
2025-02-25 18:06:25.247,-357.0,-922.0,293.0,11.0,-5.0,20.0,141,113,105,123,116
2025-02-25 18:06:25.255,-361.0,-896.0,289.0,14.0,-4.0,20.0,142,114,108,123,116
2025-02-25 18:06:25.259,-376.0,-890.0,291.0,16.0,-2.0,19.0,143,113,107,123,116
2025-02-25 18:06:25.264,-370.0,-880.0,274.0,14.0,-2.0,18.0,141,114,108,121,117
2025-02-25 18:06:25.268,-357.0,-896.0,267.0,13.0,-3.0,17.0,142,114,107,121,117
2025-02-25 18:06:25.276,-355.0,-878.0,266.0,12.0,-4.0,19.0,141,113,105,121,115
2025-02-25 18:06:25.280,-395.0,-871.0,278.0,9.0,-4.0,18.0,145,112,105,130,116
2025-02-25 18:06:25.285,-400.0,-841.0,280.0,10.0,-2.0,18.0,142,114,107,123,116
2025-02-25 18:06:25.289,-412.0,-853.0,284.0,11.0,-2.0,18.0,142,111,106,122,115
2025-02-25 18:06:25.296,-426.0,-826.0,297.0,10.0,-2.0,17.0,141,112,105,121,115
2025-02-25 18:06:25.300,-417.0,-832.0,270.0,8.0,-3.0,16.0,142,115,108,122,117
2025-02-25 18:06:25.305,-434.0,-829.0,267.0,3.0,-4.0,14.0,142,113,107,123,116
2025-02-25 18:06:25.312,-437.0,-819.0,267.0,2.0,-4.0,14.0,141,113,106,122,115
2025-02-25 18:06:25.317,-435.0,-809.0,257.0,-1.0,-6.0,13.0,142,112,106,122,116
2025-02-25 18:06:25.322,-439.0,-807.0,272.0,-1.0,-6.0,12.0,144,112,105,122,115
2025-02-25 18:06:25.327,-436.0,-802.0,276.0,-2.0,-5.0,10.0,141,113,107,123,117
2025-02-25 18:06:25.333,-441.0,-813.0,273.0,-4.0,-6.0,9.0,142,114,107,122,115
2025-02-25 18:06:25.337,-439.0,-811.0,267.0,-5.0,-6.0,7.0,141,114,105,120,116
2025-02-25 18:06:25.341,-444.0,-804.0,312.0,-11.0,-8.0,6.0,142,115,107,122,116
2025-02-25 18:06:25.346,-431.0,-806.0,279.0,-10.0,-8.0,5.0,144,113,106,122,116
2025-02-25 18:06:25.353,-439.0,-834.0,272.0,-7.0,-9.0,3.0,143,115,109,123,115
2025-02-25 18:06:25.358,-428.0,-841.0,272.0,-6.0,-9.0,1.0,140,113,105,122,116
2025-02-25 18:06:25.362,-399.0,-842.0,312.0,-4.0,-8.0,0.0,142,114,104,123,117
2025-02-25 18:06:25.366,-396.0,-866.0,300.0,-1.0,-8.0,-1.0,142,116,108,121,116
2025-02-25 18:06:25.374,-397.0,-879.0,289.0,0.0,-8.0,-2.0,142,114,108,123,117
2025-02-25 18:06:25.378,-392.0,-894.0,330.0,-2.0,-8.0,-3.0,142,116,105,121,117
2025-02-25 18:06:25.383,-380.0,-885.0,301.0,1.0,-7.0,-4.0,143,114,107,121,115
2025-02-25 18:06:25.387,-405.0,-913.0,300.0,2.0,-8.0,-2.0,143,115,108,122,117
2025-02-25 18:06:25.394,-378.0,-894.0,338.0,2.0,-6.0,-2.0,142,116,108,122,118
2025-02-25 18:06:25.398,-383.0,-907.0,317.0,2.0,-4.0,1.0,141,115,107,121,115
2025-02-25 18:06:25.403,-395.0,-915.0,313.0,0.0,-4.0,2.0,142,114,108,124,117
2025-02-25 18:06:25.407,-407.0,-908.0,331.0,-2.0,-2.0,5.0,143,117,109,123,117
2025-02-25 18:06:25.415,-420.0,-911.0,315.0,-4.0,-1.0,6.0,142,118,108,122,117
2025-02-25 18:06:25.420,-424.0,-919.0,326.0,-5.0,0.0,7.0,141,115,106,122,117
2025-02-25 18:06:25.424,-420.0,-911.0,360.0,-6.0,3.0,7.0,143,116,107,120,117
2025-02-25 18:06:25.428,-432.0,-906.0,287.0,-6.0,3.0,7.0,145,123,108,123,117
2025-02-25 18:06:25.436,-418.0,-902.0,329.0,-1.0,4.0,7.0,142,116,108,122,116
2025-02-25 18:06:25.440,-419.0,-909.0,301.0,1.0,4.0,6.0,141,118,104,125,116
2025-02-25 18:06:25.444,-401.0,-897.0,324.0,2.0,6.0,6.0,143,118,108,121,117
2025-02-25 18:06:25.448,-398.0,-897.0,287.0,2.0,6.0,5.0,142,116,105,121,117
2025-02-25 18:06:25.456,-399.0,-900.0,321.0,3.0,7.0,5.0,142,117,106,122,117
2025-02-25 18:06:25.460,-404.0,-894.0,297.0,2.0,6.0,4.0,141,119,108,123,118
2025-02-25 18:06:25.464,-380.0,-880.0,336.0,2.0,9.0,3.0,143,119,108,122,117
2025-02-25 18:06:25.468,-375.0,-895.0,274.0,5.0,7.0,2.0,143,121,108,123,115
2025-02-25 18:06:25.473,-378.0,-889.0,270.0,5.0,6.0,2.0,143,118,107,123,119
2025-02-25 18:06:25.481,-361.0,-865.0,306.0,3.0,9.0,0.0,142,119,107,123,118
2025-02-25 18:06:25.485,-375.0,-888.0,267.0,8.0,9.0,0.0,141,117,106,121,118
2025-02-25 18:06:25.489,-390.0,-893.0,337.0,4.0,8.0,-1.0,142,118,110,123,116
2025-02-25 18:06:25.493,-374.0,-860.0,298.0,3.0,8.0,-2.0,142,120,107,123,119
2025-02-25 18:06:25.500,-388.0,-882.0,261.0,1.0,8.0,-1.0,142,119,108,122,117
2025-02-25 18:06:25.505,-416.0,-895.0,330.0,-2.0,5.0,-1.0,141,117,105,121,116
2025-02-25 18:06:25.510,-386.0,-876.0,299.0,-7.0,4.0,0.0,143,119,111,125,120
2025-02-25 18:06:25.514,-410.0,-897.0,265.0,-8.0,2.0,0.0,143,121,109,123,118
2025-02-25 18:06:25.518,-396.0,-915.0,282.0,-13.0,0.0,1.0,144,121,111,133,121
2025-02-25 18:06:25.525,-387.0,-921.0,291.0,-19.0,0.0,1.0,142,119,106,125,118
2025-02-25 18:06:25.529,-401.0,-927.0,271.0,-17.0,-4.0,2.0,144,120,107,119,119
2025-02-25 18:06:25.534,-383.0,-930.0,290.0,-18.0,-9.0,2.0,145,122,111,126,120
2025-02-25 18:06:25.542,-385.0,-941.0,340.0,-25.0,-8.0,1.0,148,127,116,130,127
2025-02-25 18:06:25.546,-362.0,-963.0,251.0,-39.0,-16.0,4.0,145,124,114,126,121
2025-02-25 18:06:25.550,-372.0,-918.0,367.0,-27.0,-11.0,2.0,147,125,114,129,122
2025-02-25 18:06:25.555,-382.0,-988.0,261.0,-28.0,-12.0,4.0,146,124,112,125,121
2025-02-25 18:06:25.562,-375.0,-957.0,290.0,-29.0,-9.0,4.0,150,128,118,133,128
2025-02-25 18:06:25.566,-380.0,-978.0,329.0,-26.0,-6.0,5.0,145,124,110,128,124
2025-02-25 18:06:25.571,-378.0,-959.0,292.0,-19.0,-5.0,5.0,147,126,114,129,123
2025-02-25 18:06:25.579,-370.0,-978.0,324.0,-16.0,-2.0,5.0,148,125,114,128,122
2025-02-25 18:06:25.583,-378.0,-961.0,289.0,-16.0,1.0,6.0,147,124,111,127,123
2025-02-25 18:06:25.587,-385.0,-953.0,297.0,-14.0,2.0,6.0,151,129,115,131,127
2025-02-25 18:06:25.591,-370.0,-946.0,293.0,-15.0,2.0,7.0,150,125,116,130,126
2025-02-25 18:06:25.599,-374.0,-945.0,297.0,-18.0,2.0,7.0,152,130,116,131,126
2025-02-25 18:06:25.604,-379.0,-930.0,288.0,-18.0,0.0,7.0,152,130,116,131,128
2025-02-25 18:06:25.608,-374.0,-925.0,281.0,-16.0,1.0,7.0,154,132,121,134,130
2025-02-25 18:06:25.612,-382.0,-923.0,266.0,-16.0,-1.0,7.0,151,129,115,131,127
2025-02-25 18:06:25.619,-388.0,-911.0,293.0,-12.0,0.0,8.0,153,132,120,134,129
2025-02-25 18:06:25.623,-387.0,-909.0,269.0,-10.0,0.0,9.0,152,130,116,130,125
2025-02-25 18:06:25.629,-394.0,-891.0,278.0,-8.0,0.0,11.0,150,127,114,129,125
2025-02-25 18:06:25.633,-394.0,-892.0,271.0,-6.0,-1.0,12.0,149,126,115,127,124
2025-02-25 18:06:25.640,-395.0,-876.0,270.0,-7.0,-2.0,12.0,148,126,114,126,123
2025-02-25 18:06:25.645,-439.0,-887.0,255.0,-7.0,-1.0,14.0,149,127,116,127,124
2025-02-25 18:06:25.649,-426.0,-859.0,255.0,-10.0,-1.0,14.0,147,123,117,126,123
2025-02-25 18:06:25.656,-408.0,-872.0,268.0,-14.0,-2.0,14.0,146,122,110,125,120
2025-02-25 18:06:25.661,-439.0,-852.0,266.0,-19.0,-3.0,14.0,149,121,114,128,119
2025-02-25 18:06:25.665,-449.0,-858.0,277.0,-20.0,-5.0,13.0,143,118,108,123,118
2025-02-25 18:06:25.670,-442.0,-840.0,270.0,-19.0,-6.0,12.0,140,117,105,116,112
2025-02-25 18:06:25.677,-431.0,-840.0,271.0,-17.0,-5.0,10.0,140,114,104,120,116
2025-02-25 18:06:25.682,-439.0,-836.0,217.0,-16.0,-5.0,9.0,138,114,105,121,115
2025-02-25 18:06:25.686,-455.0,-833.0,248.0,-16.0,-4.0,9.0,141,112,107,121,116
2025-02-25 18:06:25.693,-440.0,-813.0,256.0,-19.0,-2.0,7.0,140,112,104,124,116
2025-02-25 18:06:25.697,-444.0,-804.0,243.0,-21.0,-3.0,4.0,142,112,104,121,115
2025-02-25 18:06:25.701,-448.0,-816.0,269.0,-24.0,-2.0,3.0,139,109,105,119,113
2025-02-25 18:06:25.706,-455.0,-809.0,233.0,-20.0,-3.0,2.0,140,108,104,120,115
2025-02-25 18:06:25.713,-454.0,-803.0,253.0,-14.0,-2.0,-1.0,141,108,104,119,114
2025-02-25 18:06:25.718,-455.0,-807.0,268.0,-12.0,1.0,-4.0,139,107,104,121,113
2025-02-25 18:06:25.722,-456.0,-815.0,251.0,-7.0,2.0,-6.0,139,104,104,121,114
2025-02-25 18:06:25.727,-447.0,-819.0,253.0,0.0,1.0,-6.0,141,98,104,120,112
2025-02-25 18:06:25.735,-438.0,-829.0,236.0,6.0,0.0,-7.0,140,103,104,121,113
2025-02-25 18:06:25.739,-404.0,-859.0,260.0,6.0,4.0,-8.0,140,103,104,120,114
2025-02-25 18:06:25.742,-401.0,-885.0,243.0,7.0,4.0,-10.0,140,101,102,120,112
2025-02-25 18:06:25.747,-404.0,-908.0,261.0,3.0,5.0,-11.0,142,100,104,123,114
2025-02-25 18:06:25.754,-431.0,-941.0,282.0,-7.0,6.0,-11.0,141,96,103,122,113
2025-02-25 18:06:25.759,-417.0,-970.0,282.0,-13.0,7.0,-10.0,141,94,100,120,110
2025-02-25 18:06:25.763,-422.0,-980.0,266.0,-24.0,7.0,-9.0,139,89,98,118,108
2025-02-25 18:06:25.771,-419.0,-1003.0,309.0,-31.0,10.0,-8.0,139,91,100,119,109
2025-02-25 18:06:25.775,-397.0,-996.0,285.0,-36.0,14.0,-7.0,141,89,99,119,108
2025-02-25 18:06:25.779,-399.0,-1018.0,289.0,-36.0,17.0,-6.0,140,86,98,118,106
2025-02-25 18:06:25.784,-401.0,-1058.0,251.0,-39.0,18.0,-3.0,138,85,99,116,105
2025-02-25 18:06:25.791,-420.0,-1084.0,285.0,-49.0,18.0,-2.0,138,85,99,116,104
2025-02-25 18:06:25.796,-361.0,-1108.0,223.0,-55.0,20.0,0.0,140,84,95,116,105
2025-02-25 18:06:25.800,-348.0,-1155.0,246.0,-53.0,26.0,2.0,139,84,95,114,100
2025-02-25 18:06:25.804,-344.0,-1202.0,274.0,-58.0,28.0,3.0,138,82,94,113,102
2025-02-25 18:06:25.812,-329.0,-1211.0,221.0,-64.0,32.0,5.0,138,83,94,113,102
2025-02-25 18:06:25.816,-303.0,-1258.0,285.0,-73.0,34.0,10.0,141,80,97,113,102
2025-02-25 18:06:25.820,-257.0,-1253.0,327.0,-76.0,38.0,15.0,139,80,97,113,101
2025-02-25 18:06:25.825,-282.0,-1284.0,195.0,-66.0,37.0,22.0,142,82,96,116,103
2025-02-25 18:06:25.832,-307.0,-1351.0,281.0,-84.0,24.0,26.0,143,80,98,117,102
2025-02-25 18:06:25.837,-305.0,-1321.0,206.0,-87.0,29.0,31.0,146,84,100,119,106
2025-02-25 18:06:25.841,-353.0,-1305.0,259.0,-79.0,42.0,33.0,143,78,97,115,104
2025-02-25 18:06:25.849,-354.0,-1318.0,221.0,-79.0,54.0,36.0,141,73,92,114,99
2025-02-25 18:06:25.853,-355.0,-1253.0,150.0,-74.0,58.0,41.0,143,75,94,114,100
2025-02-25 18:06:25.857,-344.0,-1250.0,85.0,-64.0,62.0,43.0,146,76,95,113,99
2025-02-25 18:06:25.862,-384.0,-1240.0,71.0,-69.0,62.0,48.0,145,75,95,113,96
2025-02-25 18:06:25.869,-395.0,-1195.0,-9.0,-73.0,55.0,52.0,146,74,96,112,97
2025-02-25 18:06:25.873,-374.0,-1185.0,-11.0,-84.0,50.0,56.0,143,70,91,111,93
2025-02-25 18:06:25.878,-399.0,-1164.0,2.0,-90.0,40.0,57.0,143,71,91,110,92
2025-02-25 18:06:25.882,-394.0,-1129.0,19.0,-95.0,33.0,59.0,142,65,90,109,91
2025-02-25 18:06:25.889,-418.0,-1065.0,-103.0,-113.0,22.0,61.0,143,70,94,109,90
2025-02-25 18:06:25.894,-396.0,-1047.0,131.0,-97.0,34.0,64.0,142,68,93,107,88
2025-02-25 18:06:25.898,-410.0,-1025.0,46.0,-94.0,32.0,66.0,143,66,91,108,87
2025-02-25 18:06:25.902,-403.0,-985.0,27.0,-94.0,25.0,67.0,144,65,88,107,85
2025-02-25 18:06:25.907,-399.0,-998.0,36.0,-92.0,24.0,66.0,142,67,90,107,89
2025-02-25 18:06:25.914,-436.0,-1020.0,29.0,-90.0,21.0,67.0,144,66,89,107,84
2025-02-25 18:06:25.918,-439.0,-993.0,49.0,-91.0,24.0,68.0,144,67,90,107,84
2025-02-25 18:06:25.923,-477.0,-961.0,-13.0,-93.0,23.0,68.0,142,65,88,104,80
2025-02-25 18:06:25.928,-475.0,-957.0,12.0,-97.0,25.0,68.0,145,67,89,107,83
2025-02-25 18:06:25.935,-502.0,-953.0,-32.0,-95.0,25.0,68.0,146,65,89,106,81
2025-02-25 18:06:25.939,-534.0,-949.0,35.0,-94.0,28.0,68.0,144,64,88,105,80
2025-02-25 18:06:25.943,-545.0,-902.0,60.0,-79.0,30.0,67.0,145,65,87,103,78
2025-02-25 18:06:25.948,-547.0,-879.0,83.0,-58.0,25.0,68.0,146,65,88,104,80
2025-02-25 18:06:25.952,-535.0,-896.0,116.0,-52.0,22.0,70.0,144,64,85,101,76
2025-02-25 18:06:25.960,-517.0,-838.0,22.0,-33.0,22.0,73.0,142,61,84,99,75
2025-02-25 18:06:25.964,-490.0,-822.0,14.0,-26.0,27.0,74.0,144,63,86,99,73
2025-02-25 18:06:25.968,-480.0,-770.0,12.0,-16.0,34.0,77.0,145,63,86,103,76
2025-02-25 18:06:25.972,-501.0,-756.0,4.0,-7.0,36.0,80.0,144,60,83,97,72
2025-02-25 18:06:25.976,-540.0,-754.0,-30.0,-2.0,36.0,81.0,143,62,85,99,72
2025-02-25 18:06:25.984,-529.0,-723.0,5.0,5.0,24.0,81.0,143,61,82,97,71
2025-02-25 18:06:25.988,-563.0,-663.0,-46.0,-3.0,22.0,80.0,145,62,82,97,70
2025-02-25 18:06:25.992,-575.0,-651.0,-48.0,-8.0,27.0,80.0,145,61,82,98,71
2025-02-25 18:06:25.996,-586.0,-604.0,-18.0,-10.0,32.0,79.0,144,61,79,99,70
2025-02-25 18:06:26.001,-620.0,-562.0,-18.0,-13.0,36.0,76.0,141,59,80,94,69
2025-02-25 18:06:26.008,-643.0,-550.0,16.0,-10.0,44.0,74.0,144,63,83,98,70
2025-02-25 18:06:26.013,-651.0,-500.0,1.0,-11.0,48.0,72.0,144,62,81,97,69
2025-02-25 18:06:26.017,-670.0,-471.0,-5.0,-11.0,45.0,68.0,143,60,80,96,67
2025-02-25 18:06:26.022,-721.0,-478.0,-25.0,-13.0,35.0,68.0,144,60,79,96,67
2025-02-25 18:06:26.026,-700.0,-439.0,-15.0,-11.0,29.0,65.0,143,60,77,97,68
2025-02-25 18:06:26.030,-699.0,-421.0,37.0,-7.0,27.0,63.0,141,59,77,93,65
2025-02-25 18:06:26.038,-735.0,-420.0,-38.0,-3.0,23.0,61.0,144,60,73,94,64
2025-02-25 18:06:26.042,-747.0,-423.0,35.0,-16.0,27.0,59.0,143,61,77,95,65
2025-02-25 18:06:26.046,-675.0,-378.0,-61.0,-22.0,20.0,57.0,143,59,75,93,63
2025-02-25 18:06:26.050,-698.0,-346.0,-76.0,-9.0,16.0,57.0,142,58,74,92,63
2025-02-25 18:06:26.055,-693.0,-389.0,39.0,-12.0,23.0,59.0,143,60,78,96,66
2025-02-25 18:06:26.062,-598.0,-309.0,-77.0,-12.0,23.0,57.0,142,58,72,95,64
2025-02-25 18:06:26.066,-722.0,-81.0,-25.0,-6.0,22.0,53.0,143,61,75,93,64
2025-02-25 18:06:26.070,-697.0,-334.0,-26.0,-11.0,29.0,58.0,144,61,76,94,65
2025-02-25 18:06:26.075,-680.0,-191.0,-24.0,-5.0,28.0,56.0,142,58,74,95,65
2025-02-25 18:06:26.079,-683.0,-81.0,-29.0,7.0,29.0,56.0,141,57,77,95,64
2025-02-25 18:06:26.086,-728.0,0.0,-38.0,10.0,36.0,56.0,142,59,72,94,63
2025-02-25 18:06:26.091,-813.0,98.0,63.0,16.0,49.0,54.0,145,60,74,93,63
2025-02-25 18:06:26.095,-859.0,205.0,75.0,20.0,54.0,54.0,143,59,70,94,62
2025-02-25 18:06:26.099,-848.0,329.0,109.0,19.0,69.0,50.0,145,60,74,94,63
2025-02-25 18:06:26.104,-907.0,480.0,123.0,17.0,88.0,45.0,141,60,74,94,63
2025-02-25 18:06:26.107,-888.0,569.0,142.0,21.0,100.0,43.0,140,57,80,93,62
2025-02-25 18:06:26.115,-853.0,693.0,166.0,25.0,116.0,31.0,141,61,73,96,63
2025-02-25 18:06:26.118,-734.0,865.0,82.0,35.0,129.0,15.0,139,58,82,97,61
2025-02-25 18:06:26.124,-750.0,1108.0,-144.0,55.0,126.0,-16.0,138,59,68,95,63
2025-02-25 18:06:26.128,-689.0,1378.0,-301.0,101.0,133.0,-33.0,137,61,75,98,64
2025-02-25 18:06:26.136,-700.0,1526.0,-561.0,118.0,141.0,-71.0,135,60,70,99,65
2025-02-25 18:06:26.140,-717.0,1587.0,-760.0,145.0,147.0,-113.0,132,60,67,95,63
2025-02-25 18:06:26.144,-1074.0,1655.0,-950.0,158.0,134.0,-136.0,132,60,70,97,63
2025-02-25 18:06:26.148,-1401.0,1602.0,-997.0,176.0,98.0,-188.0,127,61,68,97,63
2025-02-25 18:06:26.156,-1550.0,1687.0,-964.0,191.0,75.0,-241.0,131,58,68,94,63
2025-02-25 18:06:26.160,-1613.0,1680.0,-916.0,214.0,38.0,-268.0,129,58,66,93,62
2025-02-25 18:06:26.165,-1443.0,1639.0,-959.0,224.0,-12.0,-327.0,126,61,65,93,63
2025-02-25 18:06:26.172,-1193.0,1719.0,-978.0,225.0,-60.0,-392.0,128,58,66,94,62
2025-02-25 18:06:26.177,-1072.0,1659.0,-923.0,218.0,-85.0,-464.0,126,60,65,89,59
2025-02-25 18:06:26.181,-828.0,1573.0,-708.0,203.0,-136.0,-498.0,125,59,65,89,65
2025-02-25 18:06:26.189,-504.0,1374.0,-466.0,177.0,-187.0,-560.0,128,61,66,89,66
2025-02-25 18:06:26.193,12.0,1095.0,-355.0,140.0,-229.0,-613.0,128,61,69,90,65
2025-02-25 18:06:26.197,638.0,641.0,-45.0,120.0,-252.0,-639.0,128,63,71,93,67
2025-02-25 18:06:26.202,961.0,-64.0,316.0,77.0,-258.0,-628.0,127,63,71,89,65
2025-02-25 18:06:26.210,1458.0,-609.0,690.0,49.0,-259.0,-606.0,129,66,73,93,71
2025-02-25 18:06:26.214,1881.0,-1802.0,856.0,52.0,-235.0,-538.0,128,63,71,92,69
2025-02-25 18:06:26.218,2141.0,-2970.0,1267.0,52.0,-211.0,-434.0,123,60,68,86,64
2025-02-25 18:06:26.225,2564.0,-4068.0,1736.0,109.0,-158.0,-307.0,121,56,69,84,63
2025-02-25 18:06:26.230,2704.0,-4841.0,2368.0,189.0,-72.0,-194.0,123,57,67,80,65
2025-02-25 18:06:26.234,2984.0,-5300.0,2441.0,293.0,20.0,-145.0,122,56,68,76,62
2025-02-25 18:06:26.242,2980.0,-5585.0,2536.0,406.0,106.0,-44.0,121,57,70,78,65
2025-02-25 18:06:26.246,2930.0,-5841.0,2466.0,461.0,195.0,54.0,122,57,69,77,64
2025-02-25 18:06:26.251,2358.0,-5234.0,2220.0,467.0,242.0,131.0,122,61,66,79,60
2025-02-25 18:06:26.255,1873.0,-4299.0,1933.0,434.0,257.0,184.0,120,57,65,79,63
2025-02-25 18:06:26.269,1458.0,-3622.0,1702.0,338.0,270.0,200.0,120,57,62,84,62
2025-02-25 18:06:26.271,1086.0,-2590.0,1521.0,204.0,249.0,199.0,119,58,66,78,63
2025-02-25 18:06:26.274,642.0,-1613.0,1268.0,60.0,224.0,173.0,121,57,63,77,63
2025-02-25 18:06:26.279,395.0,-1136.0,1022.0,-16.0,203.0,126.0,119,58,65,72,61
2025-02-25 18:06:26.283,272.0,-991.0,686.0,-152.0,156.0,79.0,120,60,68,76,66
2025-02-25 18:06:26.287,157.0,-1104.0,502.0,-258.0,119.0,62.0,121,60,69,78,66
2025-02-25 18:06:26.292,125.0,-1466.0,328.0,-298.0,89.0,42.0,121,60,67,76,64
2025-02-25 18:06:26.299,113.0,-1887.0,101.0,-348.0,57.0,38.0,119,59,67,74,62
2025-02-25 18:06:26.304,-10.0,-2079.0,-4.0,-356.0,17.0,46.0,117,57,65,83,64
2025-02-25 18:06:26.308,111.0,-2330.0,-50.0,-340.0,5.0,70.0,119,59,73,85,64
2025-02-25 18:06:26.312,93.0,-2491.0,-77.0,-326.0,-14.0,93.0,118,59,69,81,63
2025-02-25 18:06:26.317,98.0,-2452.0,20.0,-283.0,-23.0,110.0,117,56,65,80,63
2025-02-25 18:06:26.325,127.0,-2384.0,47.0,-247.0,-36.0,141.0,117,59,68,81,64
2025-02-25 18:06:26.329,191.0,-2239.0,113.0,-228.0,-47.0,167.0,118,60,67,78,64
2025-02-25 18:06:26.333,179.0,-1965.0,209.0,-201.0,-50.0,196.0,118,56,68,79,62
2025-02-25 18:06:26.337,200.0,-1589.0,258.0,-193.0,-34.0,207.0,118,57,69,78,61
2025-02-25 18:06:26.345,226.0,-1427.0,367.0,-170.0,-23.0,218.0,118,59,72,76,62
2025-02-25 18:06:26.349,416.0,-1389.0,233.0,-166.0,-15.0,216.0,121,61,74,76,62
2025-02-25 18:06:26.353,77.0,-931.0,354.0,-157.0,-14.0,216.0,120,59,73,76,63
2025-02-25 18:06:26.361,204.0,-926.0,478.0,-160.0,-16.0,217.0,118,57,71,73,60
2025-02-25 18:06:26.365,-16.0,-793.0,341.0,-163.0,-14.0,219.0,120,58,73,74,61
2025-02-25 18:06:26.370,17.0,-734.0,308.0,-146.0,-20.0,218.0,121,60,73,77,64
2025-02-25 18:06:26.374,-50.0,-688.0,258.0,-140.0,-21.0,215.0,118,60,72,78,62
2025-02-25 18:06:26.381,-42.0,-692.0,214.0,-128.0,-26.0,217.0,118,58,71,81,61
2025-02-25 18:06:26.386,-113.0,-695.0,179.0,-115.0,-34.0,218.0,120,61,69,83,63
2025-02-25 18:06:26.390,-189.0,-567.0,142.0,-113.0,-19.0,230.0,123,61,71,83,65
2025-02-25 18:06:26.394,-217.0,-486.0,99.0,-109.0,-24.0,233.0,119,57,67,83,64
2025-02-25 18:06:26.402,-247.0,-396.0,128.0,-106.0,-24.0,235.0,119,59,67,82,63
2025-02-25 18:06:26.406,-154.0,-267.0,47.0,-107.0,-8.0,235.0,119,60,69,83,64
2025-02-25 18:06:26.411,-345.0,-172.0,49.0,-103.0,1.0,227.0,116,59,71,87,64
2025-02-25 18:06:26.415,-369.0,-6.0,57.0,-104.0,7.0,217.0,120,58,69,84,62
2025-02-25 18:06:26.419,-438.0,39.0,15.0,-105.0,8.0,208.0,117,56,67,82,63
2025-02-25 18:06:26.426,-476.0,125.0,6.0,-109.0,13.0,194.0,121,61,69,85,63
2025-02-25 18:06:26.430,-589.0,177.0,-58.0,-110.0,15.0,181.0,121,60,70,82,62
2025-02-25 18:06:26.435,-594.0,205.0,-107.0,-117.0,18.0,177.0,119,59,72,83,62
2025-02-25 18:06:26.439,-626.0,225.0,-130.0,-120.0,18.0,164.0,121,60,70,84,64
2025-02-25 18:06:26.446,-672.0,214.0,-168.0,-119.0,21.0,153.0,120,60,71,85,63
2025-02-25 18:06:26.451,-683.0,251.0,-205.0,-122.0,20.0,144.0,120,62,72,86,63
2025-02-25 18:06:26.455,-754.0,229.0,-231.0,-117.0,21.0,139.0,121,62,71,85,64
2025-02-25 18:06:26.459,-782.0,311.0,-245.0,-115.0,18.0,133.0,120,59,69,83,64
2025-02-25 18:06:26.467,-860.0,337.0,-293.0,-113.0,13.0,124.0,121,58,70,84,63
2025-02-25 18:06:26.471,-853.0,417.0,-326.0,-108.0,11.0,114.0,120,55,64,82,67
2025-02-25 18:06:26.476,-874.0,407.0,-345.0,-101.0,5.0,108.0,120,61,71,85,64
2025-02-25 18:06:26.480,-889.0,501.0,-357.0,-94.0,-3.0,98.0,117,60,72,82,63
2025-02-25 18:06:26.487,-930.0,590.0,-375.0,-92.0,-5.0,87.0,121,59,68,83,62
2025-02-25 18:06:26.492,-941.0,629.0,-377.0,-86.0,-15.0,82.0,120,59,69,83,63
2025-02-25 18:06:26.496,-963.0,685.0,-378.0,-80.0,-22.0,73.0,122,62,70,85,64
2025-02-25 18:06:26.500,-971.0,768.0,-359.0,-73.0,-26.0,65.0,120,61,68,86,64
2025-02-25 18:06:26.505,-982.0,844.0,-343.0,-62.0,-28.0,53.0,119,59,69,82,63
2025-02-25 18:06:26.513,-1008.0,860.0,-312.0,-44.0,-28.0,46.0,119,60,72,83,64
2025-02-25 18:06:26.517,-1002.0,919.0,-287.0,-21.0,-26.0,29.0,121,60,72,83,65
2025-02-25 18:06:26.522,-965.0,977.0,-236.0,-9.0,-24.0,9.0,120,61,73,83,55
2025-02-25 18:06:26.526,-957.0,1011.0,-164.0,17.0,-18.0,-1.0,120,58,69,82,63
2025-02-25 18:06:26.533,-990.0,1085.0,-137.0,46.0,-7.0,-21.0,124,61,69,84,64
2025-02-25 18:06:26.538,-967.0,1180.0,-97.0,60.0,5.0,-45.0,123,63,70,83,64
2025-02-25 18:06:26.542,-954.0,1295.0,-65.0,86.0,12.0,-58.0,120,64,67,82,65
2025-02-25 18:06:26.546,-955.0,1325.0,-69.0,113.0,25.0,-82.0,120,58,71,84,64
2025-02-25 18:06:26.554,-965.0,1414.0,-79.0,124.0,37.0,-109.0,124,61,69,85,65
2025-02-25 18:06:26.558,-976.0,1476.0,-78.0,148.0,42.0,-140.0,120,59,68,83,64
2025-02-25 18:06:26.562,-956.0,1489.0,-131.0,167.0,51.0,-156.0,120,60,65,83,64
2025-02-25 18:06:26.567,-965.0,1503.0,-147.0,181.0,56.0,-191.0,122,60,70,84,66
2025-02-25 18:06:26.574,-919.0,1530.0,-193.0,186.0,55.0,-230.0,121,59,70,84,66
2025-02-25 18:06:26.578,-902.0,1537.0,-210.0,190.0,50.0,-277.0,120,62,70,84,64
2025-02-25 18:06:26.583,-819.0,1511.0,-218.0,184.0,42.0,-304.0,119,59,68,83,63
2025-02-25 18:06:26.587,-718.0,1500.0,-167.0,167.0,25.0,-363.0,122,61,70,85,66
2025-02-25 18:06:26.595,-585.0,1493.0,-184.0,140.0,7.0,-438.0,121,63,70,84,66
2025-02-25 18:06:26.599,-321.0,1423.0,-134.0,120.0,-23.0,-525.0,121,59,69,85,63
2025-02-25 18:06:26.603,-227.0,1223.0,-52.0,80.0,-32.0,-605.0,121,59,69,84,63
2025-02-25 18:06:26.611,198.0,1126.0,-1.0,36.0,-55.0,-644.0,122,61,72,88,68
2025-02-25 18:06:26.615,749.0,615.0,28.0,6.0,-79.0,-705.0,123,61,69,87,67
2025-02-25 18:06:26.619,958.0,-454.0,138.0,2.0,-84.0,-725.0,120,59,68,86,66
2025-02-25 18:06:26.624,1419.0,-1011.0,242.0,21.0,-93.0,-719.0,121,61,68,87,66
2025-02-25 18:06:26.628,1863.0,-2422.0,372.0,69.0,-92.0,-657.0,123,63,71,91,69
2025-02-25 18:06:26.636,2286.0,-3981.0,675.0,97.0,-75.0,-530.0,120,61,71,88,67
2025-02-25 18:06:26.640,2437.0,-5404.0,998.0,163.0,-61.0,-348.0,119,58,71,87,67
2025-02-25 18:06:26.644,2735.0,-6037.0,886.0,216.0,-4.0,-262.0,119,58,71,83,67
2025-02-25 18:06:26.652,2792.0,-6801.0,1493.0,293.0,90.0,-71.0,124,66,75,82,69
2025-02-25 18:06:26.656,2365.0,-6201.0,1038.0,308.0,121.0,60.0,122,60,76,80,69
2025-02-25 18:06:26.661,2802.0,-6146.0,1141.0,379.0,168.0,147.0,120,57,72,85,68
2025-02-25 18:06:26.665,2101.0,-4988.0,880.0,362.0,177.0,206.0,121,59,69,82,67
2025-02-25 18:06:26.673,1886.0,-4526.0,554.0,320.0,179.0,220.0,121,60,74,85,69
2025-02-25 18:06:26.677,1289.0,-3364.0,583.0,222.0,181.0,233.0,123,59,69,86,70
2025-02-25 18:06:26.681,932.0,-2468.0,440.0,168.0,158.0,236.0,119,58,71,86,68
2025-02-25 18:06:26.686,761.0,-1681.0,151.0,40.0,132.0,214.0,121,57,64,85,68
2025-02-25 18:06:26.693,331.0,-1613.0,151.0,-66.0,87.0,205.0,124,59,71,84,69
2025-02-25 18:06:26.697,194.0,-1400.0,82.0,-146.0,59.0,179.0,120,59,71,88,69
2025-02-25 18:06:26.701,51.0,-1454.0,-79.0,-179.0,9.0,163.0,121,58,73,86,65
2025-02-25 18:06:26.706,100.0,-1801.0,-163.0,-208.0,0.0,158.0,120,60,71,87,66
2025-02-25 18:06:26.713,41.0,-1736.0,-141.0,-223.0,-16.0,145.0,122,60,74,89,69
2025-02-25 18:06:26.718,-37.0,-1857.0,-234.0,-220.0,-54.0,139.0,124,63,75,89,68
2025-02-25 18:06:26.721,-62.0,-2032.0,-117.0,-209.0,-61.0,149.0,122,62,63,87,67
2025-02-25 18:06:26.729,-38.0,-2013.0,-64.0,-189.0,-71.0,161.0,123,60,72,85,67
2025-02-25 18:06:26.733,-35.0,-1983.0,-40.0,-173.0,-83.0,168.0,122,60,72,86,68
2025-02-25 18:06:26.738,39.0,-1899.0,34.0,-159.0,-88.0,190.0,123,60,71,88,69
2025-02-25 18:06:26.742,16.0,-1714.0,129.0,-154.0,-100.0,211.0,122,60,72,88,68
2025-02-25 18:06:26.750,33.0,-1545.0,174.0,-146.0,-100.0,225.0,121,59,72,87,67
2025-02-25 18:06:26.755,29.0,-1461.0,329.0,-136.0,-96.0,234.0,122,60,70,86,68
2025-02-25 18:06:26.758,16.0,-1281.0,275.0,-124.0,-91.0,237.0,122,61,74,90,68
2025-02-25 18:06:26.763,3.0,-1101.0,384.0,-117.0,-79.0,241.0,123,59,72,86,67
2025-02-25 18:06:26.771,67.0,-870.0,387.0,-107.0,-73.0,237.0,122,61,73,85,67
2025-02-25 18:06:26.775,-99.0,-789.0,386.0,-105.0,-67.0,235.0,124,63,74,86,68
2025-02-25 18:06:26.779,-132.0,-585.0,364.0,-100.0,-50.0,230.0,125,62,75,85,67
2025-02-25 18:06:26.784,-147.0,-455.0,311.0,-99.0,-44.0,222.0,124,62,75,86,68
2025-02-25 18:06:26.791,-231.0,-328.0,252.0,-93.0,-40.0,211.0,125,61,76,87,68
2025-02-25 18:06:26.796,-280.0,-317.0,199.0,-84.0,-29.0,206.0,125,62,76,87,68
2025-02-25 18:06:26.800,-301.0,-223.0,216.0,-79.0,-24.0,196.0,123,62,74,86,68
2025-02-25 18:06:26.804,-331.0,-194.0,144.0,-81.0,-21.0,189.0,124,62,75,88,69
2025-02-25 18:06:26.812,-363.0,-155.0,125.0,-79.0,-18.0,183.0,125,60,77,88,68
2025-02-25 18:06:26.816,-461.0,-125.0,104.0,-87.0,-18.0,181.0,126,64,74,90,68
2025-02-25 18:06:26.821,-380.0,-162.0,90.0,-90.0,-11.0,173.0,127,60,74,89,68
2025-02-25 18:06:26.825,-378.0,-70.0,57.0,-94.0,-12.0,172.0,125,58,70,87,69
2025-02-25 18:06:26.832,-473.0,-119.0,70.0,-96.0,-11.0,169.0,126,61,71,87,67
2025-02-25 18:06:26.837,-493.0,-118.0,72.0,-99.0,-11.0,165.0,128,62,69,89,69
2025-02-25 18:06:26.841,-466.0,-109.0,58.0,-98.0,-11.0,163.0,126,62,71,89,71
2025-02-25 18:06:26.845,-486.0,-115.0,54.0,-99.0,-7.0,161.0,127,62,70,87,66
2025-02-25 18:06:26.849,-488.0,-100.0,35.0,-93.0,2.0,159.0,128,64,73,91,69
2025-02-25 18:06:26.857,-499.0,-31.0,43.0,-93.0,7.0,157.0,128,62,68,88,69
2025-02-25 18:06:26.861,-582.0,10.0,-1.0,-94.0,11.0,163.0,127,61,71,87,69
2025-02-25 18:06:26.865,-643.0,57.0,13.0,-105.0,13.0,165.0,128,61,73,87,68
2025-02-25 18:06:26.869,-691.0,191.0,-20.0,-105.0,20.0,166.0,130,65,73,90,71
2025-02-25 18:06:26.873,-701.0,284.0,-47.0,-104.0,23.0,160.0,128,61,72,88,68
2025-02-25 18:06:26.881,-741.0,358.0,-52.0,-102.0,27.0,158.0,131,63,71,88,69
2025-02-25 18:06:26.886,-721.0,470.0,-67.0,-94.0,30.0,150.0,129,64,72,87,69
2025-02-25 18:06:26.890,-715.0,570.0,-115.0,-93.0,33.0,143.0,131,62,75,88,70
2025-02-25 18:06:26.895,-744.0,610.0,-141.0,-85.0,37.0,140.0,128,59,71,86,68
2025-02-25 18:06:26.902,-796.0,688.0,-161.0,-84.0,36.0,135.0,132,64,71,87,70
2025-02-25 18:06:26.906,-822.0,856.0,-184.0,-78.0,35.0,130.0,131,63,72,88,68
2025-02-25 18:06:26.910,-876.0,976.0,-208.0,-69.0,33.0,121.0,133,63,70,87,69
2025-02-25 18:06:26.915,-962.0,1090.0,-263.0,-49.0,32.0,111.0,131,63,73,88,70
2025-02-25 18:06:26.922,-1064.0,1273.0,-269.0,-25.0,28.0,82.0,133,61,71,88,69
2025-02-25 18:06:26.927,-1196.0,1546.0,-341.0,-5.0,20.0,42.0,132,62,71,86,69
2025-02-25 18:06:26.931,-1173.0,1884.0,-443.0,43.0,15.0,17.0,133,63,72,87,69
2025-02-25 18:06:26.935,-1265.0,1981.0,-478.0,95.0,8.0,-35.0,133,63,73,88,71
2025-02-25 18:06:26.943,-1335.0,2144.0,-543.0,119.0,-3.0,-89.0,133,63,72,86,69
2025-02-25 18:06:26.947,-1387.0,2250.0,-549.0,163.0,-7.0,-138.0,133,61,70,86,68
2025-02-25 18:06:26.952,-1322.0,2319.0,-510.0,193.0,-15.0,-164.0,134,63,73,89,71
2025-02-25 18:06:26.959,-1337.0,2292.0,-442.0,221.0,-25.0,-208.0,135,63,71,87,70
2025-02-25 18:06:26.964,-1241.0,2290.0,-399.0,252.0,-42.0,-248.0,135,62,66,87,69
2025-02-25 18:06:26.968,-1218.0,2198.0,-309.0,269.0,-60.0,-283.0,136,63,72,88,68
2025-02-25 18:06:26.972,-1007.0,1982.0,-303.0,306.0,-80.0,-322.0,135,62,71,88,69
2025-02-25 18:06:26.980,-945.0,1949.0,-247.0,336.0,-82.0,-368.0,138,62,71,88,69
2025-02-25 18:06:26.984,-825.0,1921.0,-93.0,356.0,-87.0,-393.0,137,60,71,87,69
2025-02-25 18:06:26.988,-714.0,1847.0,-23.0,369.0,-83.0,-452.0,138,64,73,89,71
2025-02-25 18:06:26.996,-281.0,1555.0,41.0,378.0,-89.0,-512.0,140,61,72,90,71
2025-02-25 18:06:27.000,-120.0,1087.0,-25.0,377.0,-99.0,-554.0,140,60,70,88,69
2025-02-25 18:06:27.005,-42.0,624.0,-100.0,353.0,-131.0,-591.0,142,60,69,88,69
2025-02-25 18:06:27.009,-14.0,594.0,37.0,304.0,-161.0,-593.0,143,60,73,90,70
2025-02-25 18:06:27.017,59.0,414.0,-2.0,258.0,-205.0,-587.0,142,61,71,88,70
2025-02-25 18:06:27.021,238.0,85.0,-32.0,234.0,-229.0,-583.0,142,59,69,88,68
2025-02-25 18:06:27.024,490.0,-242.0,98.0,196.0,-261.0,-582.0,141,55,69,86,68
2025-02-25 18:06:27.029,854.0,-835.0,160.0,181.0,-266.0,-555.0,144,60,72,89,72
2025-02-25 18:06:27.036,1486.0,-1792.0,604.0,178.0,-253.0,-491.0,145,60,73,87,70
2025-02-25 18:06:27.041,2077.0,-2751.0,1229.0,187.0,-226.0,-419.0,145,59,71,86,69
2025-02-25 18:06:27.045,2459.0,-3537.0,2037.0,217.0,-206.0,-352.0,147,57,72,85,68
2025-02-25 18:06:27.053,3093.0,-4165.0,3027.0,240.0,-149.0,-321.0,147,59,75,87,70
2025-02-25 18:06:27.057,3413.0,-4525.0,3521.0,272.0,-99.0,-253.0,148,59,77,84,71
2025-02-25 18:06:27.061,3381.0,-5007.0,3535.0,277.0,-40.0,-168.0,150,59,79,80,69
2025-02-25 18:06:27.069,3355.0,-4735.0,3375.0,274.0,70.0,-100.0,151,59,78,78,68
2025-02-25 18:06:27.073,2656.0,-4942.0,3355.0,290.0,140.0,-32.0,151,58,76,77,68
2025-02-25 18:06:27.078,2562.0,-4227.0,2904.0,195.0,158.0,39.0,150,55,73,76,66
2025-02-25 18:06:27.083,2105.0,-4000.0,2158.0,63.0,238.0,54.0,148,55,70,76,67
2025-02-25 18:06:27.090,1489.0,-3038.0,1718.0,-118.0,213.0,85.0,152,58,71,80,66
2025-02-25 18:06:27.094,1023.0,-2630.0,1146.0,-181.0,178.0,104.0,153,56,68,80,68
2025-02-25 18:06:27.099,593.0,-2191.0,122.0,-320.0,82.0,112.0,150,56,67,81,65
2025-02-25 18:06:27.106,556.0,-2502.0,-162.0,-356.0,64.0,133.0,151,57,67,80,66
2025-02-25 18:06:27.110,349.0,-2706.0,-580.0,-357.0,98.0,140.0,150,60,69,86,69
2025-02-25 18:06:27.115,243.0,-2308.0,-523.0,-327.0,84.0,149.0,151,58,70,84,67
2025-02-25 18:06:27.119,104.0,-2512.0,-503.0,-309.0,65.0,159.0,149,58,70,85,67
2025-02-25 18:06:27.127,142.0,-2590.0,-374.0,-248.0,46.0,166.0,148,56,71,83,64
2025-02-25 18:06:27.132,-37.0,-2375.0,-253.0,-255.0,3.0,176.0,152,54,72,83,66
2025-02-25 18:06:27.136,-46.0,-2282.0,-230.0,-204.0,-51.0,195.0,150,57,73,84,66
2025-02-25 18:06:27.143,214.0,-1958.0,18.0,-200.0,-61.0,219.0,150,58,72,81,65
2025-02-25 18:06:27.148,215.0,-1658.0,-48.0,-165.0,-55.0,235.0,148,55,73,79,66
2025-02-25 18:06:27.152,300.0,-1746.0,261.0,-162.0,-75.0,236.0,149,58,72,80,66
2025-02-25 18:06:27.156,387.0,-1169.0,298.0,-183.0,-26.0,248.0,151,58,76,80,66
2025-02-25 18:06:27.164,306.0,-1298.0,298.0,-123.0,-72.0,230.0,153,60,74,84,66
2025-02-25 18:06:27.168,379.0,-1019.0,627.0,-127.0,-97.0,225.0,151,56,72,78,63
2025-02-25 18:06:27.173,260.0,-1057.0,493.0,-104.0,-92.0,223.0,149,56,73,79,66
2025-02-25 18:06:27.177,311.0,-961.0,540.0,-114.0,-82.0,228.0,149,60,73,83,67
2025-02-25 18:06:27.185,202.0,-1006.0,604.0,-106.0,-95.0,236.0,151,64,72,82,65
2025-02-25 18:06:27.189,195.0,-857.0,652.0,-110.0,-77.0,239.0,151,59,72,82,66
2025-02-25 18:06:27.193,71.0,-742.0,778.0,-116.0,-60.0,231.0,150,61,70,84,66
2025-02-25 18:06:27.197,249.0,-590.0,536.0,-99.0,-14.0,226.0,152,60,71,84,67
2025-02-25 18:06:27.205,52.0,-625.0,665.0,-103.0,1.0,226.0,151,58,70,83,68
2025-02-25 18:06:27.209,135.0,-422.0,487.0,-94.0,8.0,225.0,150,58,71,82,67
2025-02-25 18:06:27.213,-115.0,-400.0,539.0,-103.0,16.0,227.0,151,59,72,84,66
2025-02-25 18:06:27.218,-229.0,-354.0,473.0,-103.0,36.0,225.0,152,59,73,83,68
2025-02-25 18:06:27.225,-261.0,-144.0,394.0,-102.0,40.0,222.0,150,58,72,82,67
2025-02-25 18:06:27.229,-311.0,-121.0,349.0,-105.0,34.0,214.0,149,56,73,82,67
2025-02-25 18:06:27.233,-329.0,-92.0,242.0,-107.0,42.0,212.0,152,59,79,84,68
2025-02-25 18:06:27.238,-403.0,22.0,276.0,-110.0,56.0,206.0,152,60,75,84,68
2025-02-25 18:06:27.245,-367.0,-4.0,284.0,-115.0,55.0,199.0,151,61,73,82,67
2025-02-25 18:06:27.249,-426.0,44.0,228.0,-128.0,49.0,194.0,148,57,74,82,64
2025-02-25 18:06:27.254,-472.0,83.0,224.0,-123.0,47.0,181.0,152,59,71,83,67
2025-02-25 18:06:27.258,-488.0,80.0,138.0,-119.0,58.0,166.0,150,58,71,84,67
2025-02-25 18:06:27.262,-512.0,88.0,77.0,-104.0,54.0,160.0,149,57,70,83,66
2025-02-25 18:06:27.270,-588.0,91.0,46.0,-99.0,55.0,148.0,151,58,72,83,67
2025-02-25 18:06:27.274,-657.0,98.0,-23.0,-94.0,63.0,141.0,151,59,72,82,66
2025-02-25 18:06:27.278,-675.0,172.0,-99.0,-92.0,61.0,138.0,152,57,69,83,65
2025-02-25 18:06:27.283,-748.0,150.0,-100.0,-93.0,59.0,132.0,150,59,72,80,66
2025-02-25 18:06:27.287,-814.0,263.0,-171.0,-89.0,57.0,123.0,150,58,73,81,67
2025-02-25 18:06:27.295,-858.0,365.0,-238.0,-81.0,58.0,111.0,150,60,71,81,68
2025-02-25 18:06:27.300,-928.0,387.0,-236.0,-73.0,51.0,104.0,149,59,73,86,68
2025-02-25 18:06:27.304,-963.0,475.0,-246.0,-71.0,40.0,90.0,150,58,72,83,66
2025-02-25 18:06:27.307,-968.0,590.0,-302.0,-64.0,35.0,76.0,149,58,70,81,65
2025-02-25 18:06:27.315,-1010.0,645.0,-312.0,-59.0,29.0,68.0,150,60,76,83,67
2025-02-25 18:06:27.319,-1032.0,735.0,-302.0,-53.0,23.0,52.0,151,59,75,85,67
2025-02-25 18:06:27.324,-1058.0,783.0,-276.0,-51.0,17.0,31.0,149,58,66,81,65
2025-02-25 18:06:27.328,-1070.0,801.0,-268.0,-37.0,15.0,21.0,148,56,70,85,66
2025-02-25 18:06:27.332,-1107.0,860.0,-248.0,-17.0,8.0,-1.0,150,59,72,83,65
2025-02-25 18:06:27.340,-1117.0,909.0,-207.0,-9.0,5.0,-20.0,149,58,72,82,67
2025-02-25 18:06:27.344,-1119.0,938.0,-189.0,12.0,5.0,-40.0,149,57,68,81,65
2025-02-25 18:06:27.348,-1109.0,948.0,-144.0,31.0,6.0,-49.0,151,58,74,84,66
2025-02-25 18:06:27.353,-1112.0,974.0,-117.0,38.0,8.0,-65.0,148,58,71,83,67
2025-02-25 18:06:27.361,-1113.0,1018.0,-106.0,56.0,10.0,-81.0,150,58,69,82,66
2025-02-25 18:06:27.364,-1134.0,1045.0,-85.0,71.0,16.0,-88.0,149,56,69,82,66
2025-02-25 18:06:27.369,-1171.0,1145.0,-85.0,93.0,21.0,-105.0,148,58,71,82,66
2025-02-25 18:06:27.373,-1170.0,1238.0,-63.0,102.0,29.0,-126.0,150,61,72,84,68
2025-02-25 18:06:27.381,-1176.0,1305.0,-81.0,126.0,32.0,-151.0,149,57,71,83,65
2025-02-25 18:06:27.386,-1185.0,1306.0,-125.0,147.0,36.0,-163.0,148,57,71,81,64
2025-02-25 18:06:27.390,-1189.0,1289.0,-146.0,163.0,43.0,-188.0,149,59,68,82,65
2025-02-25 18:06:27.396,-1249.0,1235.0,-223.0,177.0,44.0,-211.0,151,59,71,83,67
2025-02-25 18:06:27.402,-1209.0,1142.0,-281.0,204.0,39.0,-237.0,150,59,71,84,66
2025-02-25 18:06:27.407,-1158.0,1061.0,-283.0,227.0,35.0,-267.0,148,58,70,81,65
2025-02-25 18:06:27.412,-1059.0,1015.0,-304.0,250.0,26.0,-283.0,150,57,71,85,66
2025-02-25 18:06:27.418,-917.0,953.0,-288.0,263.0,12.0,-314.0,151,59,73,83,66
2025-02-25 18:06:27.422,-750.0,928.0,-240.0,268.0,-8.0,-348.0,149,59,70,83,67
2025-02-25 18:06:27.426,-619.0,850.0,-152.0,265.0,-19.0,-381.0,149,57,69,81,66
2025-02-25 18:06:27.431,-415.0,796.0,-52.0,246.0,-50.0,-397.0,150,57,69,82,65
2025-02-25 18:06:27.438,-148.0,709.0,19.0,217.0,-81.0,-432.0,152,61,71,83,67
2025-02-25 18:06:27.442,144.0,567.0,150.0,198.0,-104.0,-470.0,150,59,71,81,66
2025-02-25 18:06:27.447,283.0,194.0,322.0,162.0,-111.0,-496.0,151,60,71,83,66
2025-02-25 18:06:27.451,632.0,-98.0,428.0,121.0,-127.0,-508.0,150,59,71,83,66
2025-02-25 18:06:27.458,850.0,-737.0,428.0,90.0,-142.0,-520.0,151,59,70,83,67
2025-02-25 18:06:27.463,1212.0,-1650.0,540.0,79.0,-140.0,-504.0,150,58,60,85,68
2025-02-25 18:06:27.468,1405.0,-2736.0,693.0,80.0,-133.0,-460.0,150,57,71,83,66
2025-02-25 18:06:27.475,1717.0,-3812.0,928.0,103.0,-112.0,-424.0,151,59,71,77,67
2025-02-25 18:06:27.479,2077.0,-4275.0,1250.0,151.0,-73.0,-332.0,151,58,74,86,68
2025-02-25 18:06:27.483,2340.0,-4990.0,1316.0,180.0,-9.0,-228.0,151,58,75,83,68
2025-02-25 18:06:27.491,2324.0,-5237.0,1665.0,232.0,88.0,-135.0,153,61,76,80,67
2025-02-25 18:06:27.495,2635.0,-5290.0,1755.0,325.0,55.0,-67.0,151,59,78,80,68
2025-02-25 18:06:27.500,2452.0,-5204.0,1808.0,389.0,57.0,33.0,151,58,75,80,69
2025-02-25 18:06:27.504,2498.0,-5395.0,1414.0,383.0,87.0,56.0,152,60,74,82,70
2025-02-25 18:06:27.512,2258.0,-4260.0,1435.0,297.0,157.0,126.0,151,59,75,80,70
2025-02-25 18:06:27.516,1846.0,-3578.0,1325.0,223.0,150.0,187.0,154,59,74,82,70
2025-02-25 18:06:27.520,1661.0,-2813.0,893.0,110.0,158.0,207.0,151,60,74,81,69
2025-02-25 18:06:27.525,1533.0,-2530.0,494.0,-19.0,138.0,208.0,150,58,74,81,69
2025-02-25 18:06:27.533,1022.0,-1993.0,547.0,-125.0,123.0,215.0,153,60,77,83,71
2025-02-25 18:06:27.537,614.0,-1858.0,241.0,-152.0,79.0,197.0,151,61,77,83,72
2025-02-25 18:06:27.541,583.0,-1807.0,253.0,-225.0,45.0,184.0,151,60,73,81,70
2025-02-25 18:06:27.549,379.0,-1709.0,297.0,-263.0,25.0,179.0,151,61,73,83,69
2025-02-25 18:06:27.554,541.0,-1900.0,296.0,-267.0,0.0,166.0,152,58,75,84,70
2025-02-25 18:06:27.558,341.0,-1875.0,212.0,-266.0,-21.0,171.0,151,58,76,83,69
2025-02-25 18:06:27.562,329.0,-2097.0,302.0,-257.0,-5.0,192.0,151,58,74,84,69
2025-02-25 18:06:27.569,227.0,-2017.0,413.0,-223.0,1.0,202.0,150,63,74,81,68
2025-02-25 18:06:27.574,177.0,-1914.0,392.0,-203.0,-24.0,226.0,149,62,75,83,69
2025-02-25 18:06:27.578,144.0,-1842.0,399.0,-192.0,-35.0,247.0,151,61,74,83,70
2025-02-25 18:06:27.582,217.0,-1389.0,484.0,-187.0,-37.0,260.0,152,58,77,83,67
2025-02-25 18:06:27.590,176.0,-1196.0,411.0,-209.0,-48.0,266.0,151,56,71,83,69
2025-02-25 18:06:27.594,72.0,-1104.0,333.0,-227.0,-57.0,277.0,152,60,71,85,70
2025-02-25 18:06:27.599,-43.0,-883.0,251.0,-239.0,-67.0,290.0,151,59,73,85,71
2025-02-25 18:06:27.603,-53.0,-786.0,331.0,-254.0,-87.0,294.0,150,60,75,84,70
2025-02-25 18:06:27.611,-121.0,-543.0,291.0,-267.0,-90.0,292.0,150,60,71,82,70
2025-02-25 18:06:27.615,-202.0,-414.0,328.0,-262.0,-88.0,285.0,151,55,77,80,71
2025-02-25 18:06:27.619,-261.0,-320.0,429.0,-227.0,-75.0,269.0,152,62,76,84,71
2025-02-25 18:06:27.624,-190.0,-1.0,561.0,-202.0,-54.0,231.0,151,59,74,83,70
2025-02-25 18:06:27.631,-192.0,126.0,636.0,-168.0,-42.0,197.0,151,61,73,84,71
2025-02-25 18:06:27.637,-150.0,163.0,661.0,-148.0,-13.0,187.0,152,59,75,88,73
2025-02-25 18:06:27.639,-318.0,35.0,637.0,-143.0,10.0,180.0,152,59,76,86,73
2025-02-25 18:06:27.643,-470.0,132.0,552.0,-141.0,24.0,183.0,150,59,74,86,71
2025-02-25 18:06:27.651,-482.0,124.0,440.0,-135.0,45.0,190.0,151,58,75,88,73
2025-02-25 18:06:27.655,-548.0,52.0,407.0,-132.0,56.0,195.0,156,62,77,88,74
2025-02-25 18:06:27.659,-593.0,91.0,335.0,-131.0,67.0,185.0,151,61,75,89,75
2025-02-25 18:06:27.664,-685.0,180.0,208.0,-107.0,73.0,185.0,152,59,74,88,73
2025-02-25 18:06:27.671,-653.0,65.0,203.0,-114.0,79.0,179.0,150,61,76,91,76
2025-02-25 18:06:27.676,-698.0,226.0,88.0,-106.0,78.0,170.0,151,61,77,93,76
2025-02-25 18:06:27.680,-764.0,231.0,34.0,-111.0,75.0,165.0,150,59,74,92,76
2025-02-25 18:06:27.684,-780.0,279.0,-58.0,-109.0,68.0,161.0,151,62,77,94,77
2025-02-25 18:06:27.688,-881.0,514.0,-157.0,-103.0,70.0,167.0,152,59,77,95,78
2025-02-25 18:06:27.696,-852.0,220.0,-50.0,-109.0,58.0,155.0,151,63,79,95,78
2025-02-25 18:06:27.700,-912.0,427.0,-174.0,-122.0,51.0,151.0,150,64,76,94,77
2025-02-25 18:06:27.705,-896.0,505.0,-42.0,-97.0,51.0,141.0,147,64,77,96,81
2025-02-25 18:06:27.709,-895.0,539.0,-147.0,-95.0,54.0,129.0,150,64,78,99,81
2025-02-25 18:06:27.717,-850.0,573.0,-121.0,-92.0,54.0,104.0,150,64,78,101,81
2025-02-25 18:06:27.721,-809.0,687.0,-60.0,-105.0,52.0,89.0,150,64,78,99,82
2025-02-25 18:06:27.725,-688.0,583.0,-91.0,-95.0,57.0,74.0,150,69,81,102,84
2025-02-25 18:06:27.730,-833.0,676.0,-157.0,-102.0,50.0,47.0,150,67,80,101,83
2025-02-25 18:06:27.737,-872.0,703.0,-105.0,-113.0,36.0,35.0,151,67,82,102,85
2025-02-25 18:06:27.741,-872.0,787.0,-260.0,-112.0,26.0,6.0,150,68,81,104,88
2025-02-25 18:06:27.745,-1050.0,694.0,-437.0,-96.0,21.0,-4.0,149,66,82,105,87
2025-02-25 18:06:27.750,-1050.0,744.0,-398.0,-52.0,19.0,-19.0,150,69,85,105,90
2025-02-25 18:06:27.757,-983.0,556.0,-380.0,-7.0,-1.0,-29.0,151,71,83,104,90
2025-02-25 18:06:27.762,-1095.0,521.0,-499.0,-21.0,-21.0,-37.0,149,70,86,107,94
2025-02-25 18:06:27.766,-1059.0,545.0,-542.0,-10.0,-29.0,-54.0,150,72,85,107,95
2025-02-25 18:06:27.770,-1104.0,611.0,-264.0,28.0,-30.0,-63.0,150,74,86,110,96
2025-02-25 18:06:27.778,-1058.0,625.0,-189.0,58.0,-30.0,-74.0,148,73,87,109,94
2025-02-25 18:06:27.782,-878.0,655.0,-91.0,68.0,-34.0,-80.0,150,77,89,109,98
2025-02-25 18:06:27.787,-893.0,707.0,-90.0,91.0,-32.0,-97.0,149,78,91,112,99
2025-02-25 18:06:27.791,-908.0,707.0,-70.0,107.0,-27.0,-116.0,148,79,93,111,100
2025-02-25 18:06:27.798,-870.0,685.0,11.0,147.0,-25.0,-134.0,148,81,91,112,101
2025-02-25 18:06:27.803,-809.0,668.0,-87.0,162.0,-29.0,-146.0,150,84,95,112,103
2025-02-25 18:06:27.807,-805.0,777.0,-154.0,196.0,-50.0,-176.0,149,84,94,114,105
2025-02-25 18:06:27.815,-910.0,728.0,-144.0,208.0,-58.0,-202.0,150,95,96,113,107
2025-02-25 18:06:27.819,-1041.0,745.0,-296.0,241.0,-60.0,-224.0,150,88,96,112,106
2025-02-25 18:06:27.824,-1079.0,699.0,-396.0,271.0,-59.0,-235.0,149,91,100,112,107
2025-02-25 18:06:27.831,-1124.0,656.0,-554.0,294.0,-62.0,-245.0,149,98,100,110,105
2025-02-25 18:06:27.836,-1121.0,569.0,-529.0,302.0,-73.0,-250.0,149,100,99,111,107
2025-02-25 18:06:27.840,-1015.0,419.0,-532.0,306.0,-82.0,-262.0,151,103,103,111,108
2025-02-25 18:06:27.848,-946.0,329.0,-557.0,310.0,-108.0,-277.0,149,105,103,111,109
2025-02-25 18:06:27.852,-823.0,398.0,-503.0,315.0,-136.0,-306.0,153,106,106,115,112
2025-02-25 18:06:27.860,-656.0,645.0,-463.0,313.0,-166.0,-348.0,151,110,106,114,109
2025-02-25 18:06:27.864,-453.0,653.0,-280.0,301.0,-172.0,-387.0,151,112,106,114,111
2025-02-25 18:06:27.868,-160.0,538.0,-11.0,288.0,-167.0,-424.0,150,113,107,115,110
2025-02-25 18:06:27.877,107.0,340.0,510.0,255.0,-154.0,-451.0,151,113,107,116,112
2025-02-25 18:06:27.881,215.0,107.0,741.0,240.0,-159.0,-476.0,149,114,105,113,110
2025-02-25 18:06:27.885,401.0,3.0,540.0,211.0,-183.0,-505.0,149,114,107,115,112
2025-02-25 18:06:27.893,643.0,-84.0,211.0,183.0,-227.0,-520.0,151,116,109,119,114
2025-02-25 18:06:27.897,895.0,-347.0,158.0,143.0,-253.0,-532.0,150,116,108,117,115
2025-02-25 18:06:27.901,1276.0,-967.0,-2.0,82.0,-268.0,-522.0,151,119,109,117,114
2025-02-25 18:06:27.909,1825.0,-1626.0,240.0,53.0,-254.0,-491.0,151,119,108,119,116
2025-02-25 18:06:27.913,2354.0,-2283.0,221.0,2.0,-256.0,-459.0,151,120,108,121,115
2025-02-25 18:06:27.922,2614.0,-3200.0,408.0,-42.0,-242.0,-410.0,151,121,108,117,115
2025-02-25 18:06:27.926,2987.0,-3941.0,540.0,-71.0,-227.0,-325.0,150,123,105,117,114
2025-02-25 18:06:27.930,3071.0,-4432.0,903.0,-80.0,-157.0,-250.0,152,122,105,117,114
2025-02-25 18:06:27.938,2871.0,-4592.0,1090.0,-240.0,-149.0,-242.0,151,123,104,118,116
2025-02-25 18:06:27.942,2763.0,-4892.0,2223.0,-389.0,-176.0,-187.0,152,124,107,119,115
2025-02-25 18:06:27.950,2417.0,-4040.0,2608.0,-210.0,-146.0,-68.0,152,124,110,115,116
2025-02-25 18:06:27.954,1711.0,-3873.0,678.0,86.0,-3.0,59.0,152,124,104,117,116
2025-02-25 18:06:27.959,2097.0,-3477.0,-268.0,81.0,-55.0,88.0,151,123,107,118,116
2025-02-25 18:06:27.966,1607.0,-3688.0,1668.0,132.0,192.0,184.0,149,125,108,115,117
2025-02-25 18:06:27.971,1729.0,-3145.0,269.0,106.0,254.0,265.0,151,124,108,118,119
2025-02-25 18:06:27.975,1177.0,-2843.0,-13.0,76.0,216.0,304.0,151,124,108,117,119
2025-02-25 18:06:27.983,995.0,-2714.0,507.0,98.0,199.0,338.0,152,125,107,118,118
2025-02-25 18:06:27.987,954.0,-2279.0,520.0,-8.0,209.0,346.0,150,123,107,116,116
2025-02-25 18:06:27.992,926.0,-1747.0,-474.0,-57.0,153.0,345.0,152,123,103,119,117
2025-02-25 18:06:27.999,526.0,-1727.0,255.0,-69.0,141.0,341.0,153,125,107,117,118
2025-02-25 18:06:28.003,434.0,-1566.0,154.0,-38.0,118.0,341.0,150,121,107,116,117
2025-02-25 18:06:28.008,356.0,-1300.0,297.0,7.0,69.0,304.0,150,125,107,118,120
2025-02-25 18:06:28.016,506.0,-1485.0,756.0,41.0,98.0,286.0,154,125,107,113,118
2025-02-25 18:06:28.020,420.0,-1243.0,689.0,55.0,123.0,271.0,150,123,108,118,119
2025-02-25 18:06:28.025,357.0,-1057.0,184.0,81.0,116.0,250.0,148,125,107,119,117
2025-02-25 18:06:28.032,149.0,-992.0,-131.0,59.0,64.0,236.0,149,123,105,118,118
2025-02-25 18:06:28.036,59.0,-938.0,-77.0,19.0,24.0,216.0,148,125,107,118,120
2025-02-25 18:06:28.040,58.0,-742.0,-80.0,-35.0,-4.0,209.0,148,125,106,119,119
2025-02-25 18:06:28.045,98.0,-754.0,369.0,-57.0,-7.0,208.0,151,126,107,118,118
2025-02-25 18:06:28.053,76.0,-558.0,54.0,-102.0,-26.0,200.0,149,123,107,118,118
2025-02-25 18:06:28.057,77.0,-626.0,227.0,-142.0,-44.0,199.0,149,123,109,119,118
2025-02-25 18:06:28.061,45.0,-564.0,467.0,-148.0,-23.0,201.0,149,123,109,122,119
2025-02-25 18:06:28.069,-31.0,-575.0,522.0,-164.0,-7.0,210.0,150,125,108,119,119
2025-02-25 18:06:28.073,-133.0,-575.0,520.0,-168.0,8.0,217.0,150,125,108,120,121
2025-02-25 18:06:28.078,-157.0,-483.0,353.0,-166.0,9.0,223.0,150,122,109,119,120
2025-02-25 18:06:28.085,-181.0,-397.0,363.0,-158.0,17.0,223.0,148,126,107,118,118
2025-02-25 18:06:28.089,-175.0,-345.0,155.0,-160.0,20.0,221.0,149,123,105,120,119
2025-02-25 18:06:28.094,-227.0,-257.0,219.0,-166.0,6.0,214.0,146,126,108,119,120
2025-02-25 18:06:28.101,-326.0,-265.0,277.0,-153.0,-4.0,211.0,149,126,108,119,117
2025-02-25 18:06:28.106,-350.0,-239.0,389.0,-139.0,-9.0,199.0,148,124,107,121,118
2025-02-25 18:06:28.110,-366.0,-208.0,398.0,-110.0,-7.0,187.0,150,125,108,120,119
2025-02-25 18:06:28.119,-420.0,-195.0,400.0,-82.0,-3.0,175.0,148,124,110,120,118
2025-02-25 18:06:28.123,-536.0,-182.0,355.0,-70.0,8.0,171.0,148,123,107,119,118
2025-02-25 18:06:28.127,-554.0,-178.0,341.0,-66.0,21.0,159.0,149,123,109,120,120
2025-02-25 18:06:28.135,-586.0,-132.0,278.0,-70.0,32.0,150.0,150,126,110,121,120
2025-02-25 18:06:28.139,-645.0,-93.0,232.0,-75.0,42.0,138.0,149,126,108,121,120
2025-02-25 18:06:28.143,-719.0,-18.0,194.0,-80.0,50.0,127.0,148,124,106,120,118
2025-02-25 18:06:28.147,-762.0,27.0,170.0,-80.0,55.0,116.0,148,121,108,120,118
2025-02-25 18:06:28.155,-790.0,39.0,59.0,-83.0,60.0,110.0,149,125,110,121,120
2025-02-25 18:06:28.159,-885.0,61.0,40.0,-88.0,55.0,100.0,149,125,108,121,119
2025-02-25 18:06:28.163,-916.0,72.0,4.0,-92.0,46.0,87.0,149,122,104,120,119
2025-02-25 18:06:28.167,-941.0,118.0,12.0,-86.0,42.0,79.0,149,123,108,120,117
2025-02-25 18:06:28.176,-992.0,132.0,20.0,-78.0,39.0,73.0,147,123,106,121,118
2025-02-25 18:06:28.180,-1027.0,236.0,-48.0,-73.0,31.0,62.0,149,122,108,120,119
2025-02-25 18:06:28.185,-1045.0,324.0,-13.0,-68.0,23.0,50.0,150,122,108,120,119
2025-02-25 18:06:28.189,-1065.0,374.0,6.0,-57.0,21.0,38.0,147,122,107,120,118
2025-02-25 18:06:28.196,-1146.0,435.0,7.0,-42.0,16.0,31.0,147,125,107,120,119
2025-02-25 18:06:28.200,-1164.0,509.0,4.0,-20.0,23.0,14.0,148,126,109,121,119
2025-02-25 18:06:28.204,-1184.0,547.0,-15.0,-3.0,22.0,-3.0,148,124,111,123,119
2025-02-25 18:06:28.212,-1229.0,549.0,-12.0,22.0,22.0,-26.0,148,124,109,121,117
2025-02-25 18:06:28.216,-1203.0,546.0,-189.0,26.0,16.0,-36.0,148,123,109,120,118
2025-02-25 18:06:28.221,-1179.0,462.0,-191.0,27.0,4.0,-58.0,147,124,112,121,118
2025-02-25 18:06:28.226,-1135.0,429.0,-177.0,36.0,2.0,-77.0,148,125,111,121,119
2025-02-25 18:06:28.234,-1118.0,398.0,-279.0,36.0,-5.0,-92.0,146,125,111,122,119
2025-02-25 18:06:28.238,-1098.0,408.0,-197.0,39.0,-4.0,-103.0,148,123,110,122,120
2025-02-25 18:06:28.242,-1105.0,375.0,-170.0,54.0,3.0,-110.0,148,123,112,121,118
2025-02-25 18:06:28.250,-1102.0,391.0,-39.0,75.0,10.0,-114.0,148,123,111,122,119
2025-02-25 18:06:28.254,-1118.0,392.0,-16.0,99.0,16.0,-121.0,149,126,112,122,121
2025-02-25 18:06:28.258,-1137.0,444.0,-2.0,124.0,13.0,-131.0,149,124,113,122,121
2025-02-25 18:06:28.266,-1140.0,508.0,-5.0,137.0,7.0,-143.0,148,124,112,123,119
2025-02-25 18:06:28.270,-1112.0,514.0,-9.0,156.0,3.0,-161.0,148,123,111,122,118
2025-02-25 18:06:28.275,-1041.0,509.0,-23.0,174.0,0.0,-170.0,150,123,112,116,119
2025-02-25 18:06:28.282,-950.0,498.0,-2.0,184.0,-3.0,-191.0,149,122,113,123,121
2025-02-25 18:06:28.286,-873.0,486.0,-12.0,193.0,-1.0,-213.0,147,121,111,122,119
2025-02-25 18:06:28.290,-736.0,480.0,-10.0,199.0,2.0,-236.0,149,122,111,125,119
2025-02-25 18:06:28.298,-564.0,474.0,-3.0,196.0,0.0,-265.0,147,123,112,121,118
2025-02-25 18:06:28.303,-486.0,439.0,40.0,182.0,-3.0,-298.0,148,121,106,121,118
2025-02-25 18:06:28.307,-284.0,390.0,71.0,165.0,-15.0,-315.0,152,122,109,121,119
2025-02-25 18:06:28.311,-83.0,295.0,101.0,142.0,-35.0,-354.0,150,125,111,124,121
2025-02-25 18:06:28.319,150.0,112.0,83.0,118.0,-65.0,-394.0,150,123,109,121,119
2025-02-25 18:06:28.324,397.0,-164.0,98.0,101.0,-96.0,-437.0,148,122,110,122,119
2025-02-25 18:06:28.328,552.0,-505.0,-1.0,61.0,-114.0,-477.0,148,122,109,121,118
2025-02-25 18:06:28.335,784.0,-1015.0,-77.0,18.0,-150.0,-492.0,150,126,111,122,119
2025-02-25 18:06:28.340,1029.0,-1309.0,-230.0,-27.0,-191.0,-504.0,149,123,110,121,117
2025-02-25 18:06:28.348,1354.0,-1992.0,-312.0,-69.0,-224.0,-487.0,150,122,108,121,119
2025-02-25 18:06:28.352,1566.0,-2662.0,-387.0,-89.0,-249.0,-443.0,150,124,108,122,119
2025-02-25 18:06:28.356,1769.0,-3183.0,-201.0,-114.0,-240.0,-385.0,149,123,108,122,120
2025-02-25 18:06:28.364,2014.0,-3529.0,-136.0,-135.0,-226.0,-326.0,151,121,106,123,119
2025-02-25 18:06:28.369,2234.0,-3766.0,-144.0,-158.0,-223.0,-270.0,150,121,105,122,119
2025-02-25 18:06:28.377,2348.0,-3929.0,422.0,-198.0,-239.0,-219.0,151,121,103,123,119
2025-02-25 18:06:28.381,2298.0,-4080.0,1409.0,-140.0,-149.0,-139.0,152,121,105,121,120
2025-02-25 18:06:28.388,1983.0,-3809.0,549.0,-32.0,-19.0,-39.0,151,120,103,118,118
2025-02-25 18:06:28.393,1784.0,-3480.0,-400.0,5.0,-29.0,39.0,151,119,103,121,119
2025-02-25 18:06:28.397,1721.0,-3327.0,-564.0,14.0,9.0,126.0,152,118,102,121,118
2025-02-25 18:06:28.405,1459.0,-3201.0,-76.0,12.0,62.0,214.0,151,116,102,120,118
2025-02-25 18:06:28.409,1375.0,-2462.0,49.0,30.0,49.0,252.0,151,115,101,119,117
2025-02-25 18:06:28.413,1444.0,-2589.0,885.0,62.0,100.0,274.0,151,117,101,119,118
2025-02-25 18:06:28.417,1422.0,-2493.0,131.0,72.0,99.0,300.0,152,116,101,120,118
2025-02-25 18:06:28.426,844.0,-2284.0,-41.0,33.0,68.0,317.0,152,116,106,120,117
2025-02-25 18:06:28.430,639.0,-1875.0,-230.0,14.0,22.0,324.0,152,114,101,120,119
2025-02-25 18:06:28.434,565.0,-1837.0,169.0,2.0,16.0,327.0,153,117,106,122,119
2025-02-25 18:06:28.441,524.0,-1607.0,579.0,5.0,23.0,316.0,151,116,101,120,117
2025-02-25 18:06:28.446,614.0,-1495.0,766.0,31.0,34.0,310.0,152,116,99,119,118
2025-02-25 18:06:28.450,436.0,-1379.0,605.0,34.0,59.0,299.0,151,117,100,120,117
2025-02-25 18:06:28.459,292.0,-1175.0,487.0,36.0,63.0,284.0,151,117,100,121,117
2025-02-25 18:06:28.463,146.0,-1109.0,380.0,37.0,58.0,278.0,151,117,99,119,115
2025-02-25 18:06:28.467,115.0,-1029.0,437.0,35.0,69.0,267.0,152,115,100,119,116
2025-02-25 18:06:28.472,105.0,-871.0,328.0,26.0,56.0,261.0,152,119,102,121,115
2025-02-25 18:06:28.478,42.0,-899.0,473.0,12.0,64.0,256.0,151,119,101,122,116
2025-02-25 18:06:28.483,-9.0,-734.0,593.0,8.0,91.0,254.0,152,118,103,121,115
2025-02-25 18:06:28.487,-96.0,-623.0,376.0,-19.0,93.0,256.0,150,116,102,121,115
2025-02-25 18:06:28.491,-175.0,-596.0,235.0,-40.0,93.0,257.0,151,119,106,122,115
2025-02-25 18:06:28.499,-328.0,-477.0,245.0,-69.0,79.0,259.0,151,119,106,124,117
2025-02-25 18:06:28.503,-336.0,-336.0,368.0,-93.0,94.0,257.0,155,120,110,121,115
2025-02-25 18:06:28.508,-383.0,-298.0,389.0,-98.0,110.0,265.0,151,119,107,122,119
2025-02-25 18:06:28.516,-514.0,-155.0,180.0,-137.0,106.0,257.0,150,119,107,122,117
2025-02-25 18:06:28.520,-592.0,-47.0,19.0,-164.0,89.0,244.0,149,119,109,122,116
2025-02-25 18:06:28.525,-617.0,48.0,71.0,-190.0,67.0,236.0,150,117,106,121,116
2025-02-25 18:06:28.532,-615.0,78.0,148.0,-205.0,53.0,219.0,151,118,111,123,116
2025-02-25 18:06:28.537,-689.0,133.0,221.0,-205.0,55.0,197.0,153,122,113,124,116
2025-02-25 18:06:28.541,-696.0,150.0,312.0,-195.0,52.0,187.0,151,121,110,121,117
2025-02-25 18:06:28.549,-800.0,238.0,213.0,-178.0,45.0,164.0,149,120,110,122,116
2025-02-25 18:06:28.553,-816.0,281.0,335.0,-163.0,48.0,156.0,153,118,111,121,114
2025-02-25 18:06:28.557,-887.0,323.0,147.0,-166.0,47.0,141.0,150,120,109,123,115
2025-02-25 18:06:28.565,-930.0,398.0,113.0,-161.0,40.0,122.0,151,120,108,123,116
2025-02-25 18:06:28.569,-989.0,343.0,181.0,-165.0,40.0,112.0,151,119,108,122,115
2025-02-25 18:06:28.573,-987.0,365.0,114.0,-171.0,40.0,100.0,151,118,111,125,115
2025-02-25 18:06:28.578,-962.0,373.0,51.0,-168.0,43.0,87.0,149,119,106,123,113
2025-02-25 18:06:28.585,-936.0,348.0,51.0,-165.0,48.0,80.0,149,115,107,122,111
2025-02-25 18:06:28.589,-919.0,332.0,74.0,-158.0,54.0,68.0,151,117,108,122,111
2025-02-25 18:06:28.594,-900.0,277.0,42.0,-153.0,61.0,58.0,148,116,109,125,112
2025-02-25 18:06:28.601,-924.0,279.0,-73.0,-146.0,62.0,47.0,151,115,107,122,109
2025-02-25 18:06:28.606,-914.0,261.0,-94.0,-127.0,66.0,37.0,151,108,104,119,109
2025-02-25 18:06:28.610,-896.0,229.0,-109.0,-105.0,69.0,32.0,150,114,106,120,108
2025-02-25 18:06:28.618,-926.0,239.0,-232.0,-83.0,59.0,18.0,156,117,108,122,108
2025-02-25 18:06:28.622,-920.0,223.0,-265.0,-70.0,53.0,5.0,151,111,106,121,105
2025-02-25 18:06:28.626,-964.0,185.0,-253.0,-45.0,54.0,-6.0,150,110,106,119,104
2025-02-25 18:06:28.631,-961.0,140.0,-286.0,-19.0,54.0,-15.0,154,105,104,119,105
2025-02-25 18:06:28.638,-987.0,138.0,-295.0,7.0,56.0,-19.0,150,103,103,117,103
2025-02-25 18:06:28.642,-1021.0,135.0,-277.0,36.0,53.0,-28.0,150,101,102,118,104
2025-02-25 18:06:28.647,-1045.0,159.0,-227.0,73.0,55.0,-32.0,151,99,102,116,102
2025-02-25 18:06:28.655,-1066.0,227.0,-205.0,88.0,56.0,-34.0,150,97,98,117,102
2025-02-25 18:06:28.659,-1108.0,313.0,-270.0,113.0,53.0,-41.0,149,92,96,113,99
2025-02-25 18:06:28.664,-1153.0,335.0,-273.0,150.0,57.0,-44.0,150,88,93,114,99
2025-02-25 18:06:28.668,-1256.0,334.0,-201.0,172.0,59.0,-49.0,150,85,95,112,95
2025-02-25 18:06:28.676,-1281.0,522.0,-220.0,186.0,62.0,-57.0,149,80,91,110,92
2025-02-25 18:06:28.680,-1299.0,641.0,-270.0,211.0,62.0,-67.0,150,76,91,109,88
2025-02-25 18:06:28.684,-1295.0,645.0,-188.0,232.0,64.0,-77.0,148,71,89,108,85
2025-02-25 18:06:28.692,-1332.0,840.0,-272.0,251.0,62.0,-94.0,149,71,89,107,84
2025-02-25 18:06:28.696,-1304.0,888.0,-201.0,260.0,67.0,-117.0,151,67,89,107,81
2025-02-25 18:06:28.700,-1296.0,897.0,-271.0,281.0,62.0,-142.0,149,65,86,105,79
2025-02-25 18:06:28.705,-1245.0,941.0,-204.0,299.0,60.0,-171.0,148,60,82,104,76
2025-02-25 18:06:28.712,-1205.0,882.0,-296.0,304.0,52.0,-185.0,147,59,83,106,75
2025-02-25 18:06:28.716,-1147.0,936.0,-321.0,306.0,41.0,-212.0,147,59,81,105,74
2025-02-25 18:06:28.721,-1056.0,847.0,-301.0,304.0,26.0,-246.0,151,57,78,104,71
2025-02-25 18:06:28.728,-999.0,811.0,-388.0,298.0,14.0,-285.0,148,54,77,102,69
2025-02-25 18:06:28.733,-928.0,828.0,-228.0,297.0,2.0,-325.0,148,50,74,100,65
2025-02-25 18:06:28.737,-719.0,784.0,-289.0,272.0,-30.0,-349.0,148,52,73,100,64
2025-02-25 18:06:28.741,-573.0,780.0,-348.0,241.0,-86.0,-397.0,149,50,70,98,64
2025-02-25 18:06:28.749,-393.0,697.0,-519.0,219.0,-149.0,-439.0,148,50,67,93,62
2025-02-25 18:06:28.753,-295.0,626.0,293.0,177.0,-143.0,-468.0,148,49,67,90,60
2025-02-25 18:06:28.758,-28.0,721.0,542.0,123.0,-98.0,-475.0,147,47,64,89,58
2025-02-25 18:06:28.762,582.0,706.0,467.0,109.0,-142.0,-497.0,150,48,65,88,57
2025-02-25 18:06:28.770,975.0,240.0,395.0,93.0,-210.0,-529.0,149,49,65,86,58
2025-02-25 18:06:28.774,1013.0,-314.0,345.0,37.0,-234.0,-540.0,151,50,66,85,57
2025-02-25 18:06:28.778,1340.0,-623.0,423.0,-1.0,-243.0,-535.0,150,48,62,85,55
2025-02-25 18:06:28.786,1956.0,-1414.0,479.0,-36.0,-220.0,-509.0,150,48,63,83,56
2025-02-25 18:06:28.790,2457.0,-2387.0,714.0,-42.0,-188.0,-465.0,149,50,62,83,58
2025-02-25 18:06:28.794,2782.0,-3430.0,940.0,-32.0,-152.0,-396.0,151,47,68,85,60
2025-02-25 18:06:28.802,2906.0,-4231.0,1162.0,-3.0,-128.0,-306.0,148,49,66,79,60
2025-02-25 18:06:28.806,3004.0,-4640.0,1283.0,41.0,-59.0,-188.0,147,47,62,77,60
2025-02-25 18:06:28.811,3120.0,-4992.0,1583.0,99.0,54.0,-137.0,149,49,67,77,59
2025-02-25 18:06:28.815,2765.0,-4928.0,1085.0,178.0,119.0,-9.0,150,46,69,71,59
2025-02-25 18:06:28.822,2806.0,-4427.0,945.0,236.0,142.0,74.0,150,48,66,76,59
2025-02-25 18:06:28.827,2507.0,-3478.0,503.0,276.0,143.0,132.0,149,50,66,73,57
2025-02-25 18:06:28.832,2689.0,-3461.0,604.0,264.0,185.0,143.0,148,49,62,74,58
2025-02-25 18:06:28.836,1919.0,-3070.0,454.0,166.0,156.0,165.0,149,51,62,73,60
2025-02-25 18:06:28.844,1469.0,-2078.0,213.0,134.0,174.0,187.0,151,49,60,75,59
2025-02-25 18:06:28.848,1049.0,-1781.0,44.0,59.0,140.0,189.0,149,51,60,75,59
2025-02-25 18:06:28.852,1113.0,-2131.0,-21.0,18.0,94.0,199.0,150,48,59,76,58
2025-02-25 18:06:28.856,685.0,-1719.0,-135.0,-15.0,22.0,173.0,150,51,61,79,60
2025-02-25 18:06:28.863,574.0,-1552.0,-217.0,-61.0,2.0,173.0,148,50,61,78,59
2025-02-25 18:06:28.868,502.0,-1401.0,-14.0,-121.0,0.0,175.0,149,51,62,80,58
2025-02-25 18:06:28.872,434.0,-1499.0,-200.0,-152.0,-15.0,174.0,151,52,65,81,59
2025-02-25 18:06:28.880,437.0,-1586.0,-46.0,-137.0,-83.0,157.0,151,53,61,78,59
2025-02-25 18:06:28.884,419.0,-1692.0,119.0,-149.0,-81.0,156.0,150,51,64,80,58
2025-02-25 18:06:28.888,395.0,-1734.0,77.0,-147.0,-52.0,179.0,149,52,66,78,58
2025-02-25 18:06:28.892,336.0,-1851.0,166.0,-152.0,-29.0,192.0,152,54,66,78,57
2025-02-25 18:06:28.900,297.0,-1690.0,489.0,-147.0,-51.0,211.0,150,53,66,77,67
2025-02-25 18:06:28.904,332.0,-1560.0,365.0,-147.0,-57.0,219.0,149,51,66,77,59
2025-02-25 18:06:28.909,504.0,-1465.0,384.0,-142.0,-35.0,227.0,153,49,62,78,60
2025-02-25 18:06:28.913,235.0,-1202.0,339.0,-133.0,-33.0,236.0,151,52,63,77,59
2025-02-25 18:06:28.921,183.0,-1224.0,335.0,-122.0,-31.0,237.0,151,52,64,78,59
2025-02-25 18:06:28.926,122.0,-1138.0,364.0,-117.0,-32.0,244.0,150,52,63,79,61
2025-02-25 18:06:28.930,82.0,-960.0,248.0,-114.0,-29.0,247.0,151,53,63,79,60
2025-02-25 18:06:28.934,23.0,-935.0,288.0,-116.0,-22.0,247.0,146,46,60,80,55
2025-02-25 18:06:28.941,-67.0,-767.0,229.0,-112.0,-33.0,247.0,150,53,67,80,60
2025-02-25 18:06:28.946,-190.0,-687.0,226.0,-106.0,-15.0,244.0,150,50,65,80,62
2025-02-25 18:06:28.950,-159.0,-548.0,163.0,-99.0,4.0,231.0,154,52,68,80,62
2025-02-25 18:06:28.955,-108.0,-439.0,199.0,-91.0,8.0,223.0,149,51,65,82,59
2025-02-25 18:06:28.962,-258.0,-435.0,211.0,-72.0,12.0,209.0,150,52,67,80,61
2025-02-25 18:06:28.966,-347.0,-356.0,174.0,-65.0,12.0,200.0,150,52,67,80,59
2025-02-25 18:06:28.970,-399.0,-326.0,153.0,-65.0,10.0,192.0,150,53,67,77,59
2025-02-25 18:06:28.974,-512.0,-283.0,109.0,-49.0,3.0,187.0,154,54,64,78,60
2025-02-25 18:06:28.982,-601.0,-233.0,67.0,-42.0,0.0,181.0,153,53,65,79,60
2025-02-25 18:06:28.994,-621.0,-140.0,110.0,-46.0,-5.0,175.0,150,51,66,82,59
2025-02-25 18:06:28.996,-605.0,-232.0,61.0,-44.0,-7.0,169.0,151,51,63,78,58
2025-02-25 18:06:28.998,-696.0,-165.0,54.0,-49.0,1.0,161.0,153,54,65,78,60
2025-02-25 18:06:29.001,-694.0,-261.0,19.0,-44.0,4.0,155.0,151,52,65,80,60
2025-02-25 18:06:29.007,-726.0,-234.0,0.0,-51.0,3.0,152.0,150,51,63,80,59
2025-02-25 18:06:29.011,-742.0,-217.0,21.0,-62.0,-1.0,147.0,151,53,65,81,61
2025-02-25 18:06:29.015,-789.0,-202.0,-56.0,-57.0,11.0,140.0,150,51,63,80,60
2025-02-25 18:06:29.019,-804.0,-189.0,-15.0,-56.0,13.0,137.0,149,55,65,82,60
2025-02-25 18:06:29.024,-755.0,-160.0,-19.0,-57.0,4.0,125.0,151,55,66,83,61
2025-02-25 18:06:29.032,-740.0,-147.0,-29.0,-56.0,5.0,113.0,151,53,66,82,59
2025-02-25 18:06:29.036,-738.0,-161.0,-15.0,-48.0,9.0,107.0,149,50,64,82,66
2025-02-25 18:06:29.040,-736.0,-128.0,22.0,-48.0,20.0,96.0,150,54,64,83,62
2025-02-25 18:06:29.045,-750.0,-122.0,3.0,-46.0,19.0,88.0,150,53,64,82,60
2025-02-25 18:06:29.049,-799.0,-122.0,-36.0,-45.0,19.0,82.0,150,51,64,82,61
2025-02-25 18:06:29.056,-835.0,-86.0,-32.0,-44.0,21.0,79.0,151,54,59,82,62
2025-02-25 18:06:29.060,-863.0,-79.0,-36.0,-43.0,18.0,73.0,150,54,63,82,63
2025-02-25 18:06:29.064,-878.0,-63.0,-49.0,-43.0,17.0,66.0,150,57,65,81,59
2025-02-25 18:06:29.069,-914.0,-16.0,-82.0,-42.0,15.0,62.0,151,53,67,81,60
2025-02-25 18:06:29.073,-909.0,17.0,-75.0,-41.0,10.0,53.0,151,53,66,84,62
2025-02-25 18:06:29.081,-927.0,50.0,-109.0,-32.0,6.0,41.0,149,52,65,84,61
2025-02-25 18:06:29.085,-917.0,100.0,-111.0,-27.0,6.0,37.0,147,53,65,82,61
2025-02-25 18:06:29.089,-975.0,165.0,-130.0,-23.0,-1.0,28.0,151,54,69,84,60
2025-02-25 18:06:29.093,-997.0,196.0,-133.0,-18.0,-7.0,22.0,148,53,67,84,60
2025-02-25 18:06:29.098,-1046.0,217.0,-131.0,-15.0,-18.0,18.0,151,53,67,84,61
2025-02-25 18:06:29.106,-1075.0,269.0,-129.0,-10.0,-21.0,10.0,151,54,64,82,61
2025-02-25 18:06:29.110,-1133.0,386.0,-46.0,-3.0,-19.0,-2.0,149,56,66,81,59
2025-02-25 18:06:29.114,-1119.0,450.0,5.0,13.0,-14.0,-12.0,149,53,63,83,62
2025-02-25 18:06:29.118,-1107.0,579.0,60.0,27.0,-7.0,-36.0,149,54,66,82,61
2025-02-25 18:06:29.125,-1106.0,666.0,118.0,35.0,-1.0,-60.0,148,52,65,84,62
2025-02-25 18:06:29.130,-1144.0,716.0,160.0,51.0,14.0,-73.0,148,53,64,83,61
2025-02-25 18:06:29.134,-1192.0,827.0,145.0,72.0,30.0,-100.0,149,55,69,85,63
2025-02-25 18:06:29.138,-1199.0,845.0,131.0,79.0,36.0,-123.0,146,51,65,84,62
2025-02-25 18:06:29.143,-1239.0,823.0,70.0,93.0,50.0,-135.0,146,52,64,83,62
2025-02-25 18:06:29.150,-1258.0,826.0,52.0,118.0,55.0,-157.0,147,53,64,84,62
2025-02-25 18:06:29.154,-1262.0,781.0,-1.0,128.0,57.0,-177.0,147,54,67,85,62
2025-02-25 18:06:29.159,-1263.0,737.0,-102.0,148.0,57.0,-188.0,146,54,66,85,61
2025-02-25 18:06:29.163,-1225.0,720.0,-155.0,164.0,52.0,-209.0,146,51,65,85,62
2025-02-25 18:06:29.171,-1157.0,759.0,-205.0,173.0,43.0,-234.0,148,55,65,83,61
2025-02-25 18:06:29.175,-1021.0,780.0,-236.0,172.0,23.0,-268.0,146,57,66,86,63
2025-02-25 18:06:29.179,-930.0,794.0,-281.0,166.0,9.0,-307.0,144,52,66,86,63
2025-02-25 18:06:29.183,-733.0,759.0,-273.0,147.0,-26.0,-329.0,145,52,64,86,63
2025-02-25 18:06:29.191,-482.0,732.0,-287.0,118.0,-65.0,-371.0,146,53,65,86,63
2025-02-25 18:06:29.195,-234.0,603.0,-243.0,103.0,-103.0,-410.0,146,57,73,87,63
2025-02-25 18:06:29.200,-18.0,356.0,-144.0,63.0,-122.0,-444.0,146,53,66,87,63
2025-02-25 18:06:29.208,329.0,152.0,-64.0,19.0,-154.0,-458.0,145,54,57,86,62
2025-02-25 18:06:29.212,702.0,-343.0,-8.0,-20.0,-179.0,-471.0,147,54,65,89,64
2025-02-25 18:06:29.216,976.0,-1023.0,41.0,-36.0,-199.0,-466.0,148,52,67,89,64
2025-02-25 18:06:29.221,1133.0,-1763.0,210.0,-68.0,-204.0,-437.0,147,54,63,87,64
2025-02-25 18:06:29.228,1479.0,-2570.0,488.0,-94.0,-193.0,-415.0,148,54,66,86,65
2025-02-25 18:06:29.232,1894.0,-3003.0,738.0,-104.0,-163.0,-360.0,148,58,67,86,64
2025-02-25 18:06:29.237,2254.0,-3762.0,887.0,-107.0,-113.0,-286.0,148,54,68,85,65
2025-02-25 18:06:29.244,2557.0,-4409.0,936.0,-22.0,-24.0,-203.0,147,53,69,83,65
2025-02-25 18:06:29.249,2706.0,-4832.0,973.0,31.0,37.0,-112.0,148,55,70,81,64
2025-02-25 18:06:29.253,2505.0,-4365.0,836.0,95.0,0.0,-37.0,147,56,68,81,66
2025-02-25 18:06:29.257,2846.0,-5545.0,1151.0,235.0,-22.0,-1.0,146,57,65,81,66
2025-02-25 18:06:29.266,2619.0,-4542.0,739.0,222.0,94.0,65.0,146,55,66,83,66
2025-02-25 18:06:29.270,2101.0,-4032.0,591.0,184.0,228.0,147.0,145,54,67,86,64
2025-02-25 18:06:29.274,1887.0,-3302.0,232.0,142.0,246.0,190.0,146,55,68,86,65
2025-02-25 18:06:29.278,1495.0,-2931.0,150.0,56.0,207.0,203.0,147,57,68,86,68
2025-02-25 18:06:29.286,1105.0,-2439.0,-150.0,5.0,204.0,236.0,144,56,66,86,66
2025-02-25 18:06:29.290,730.0,-1631.0,-393.0,1.0,185.0,238.0,143,56,70,86,65
2025-02-25 18:06:29.295,536.0,-1419.0,-275.0,-35.0,160.0,238.0,144,54,71,87,67
2025-02-25 18:06:29.302,570.0,-1404.0,-196.0,-96.0,103.0,230.0,146,57,69,87,66
2025-02-25 18:06:29.307,194.0,-1442.0,-515.0,-68.0,16.0,208.0,144,56,71,89,68
2025-02-25 18:06:29.311,179.0,-1381.0,-185.0,-96.0,-30.0,189.0,145,55,69,86,66
2025-02-25 18:06:29.315,163.0,-1393.0,-377.0,-129.0,-38.0,182.0,144,54,68,87,67
2025-02-25 18:06:29.323,2.0,-1444.0,-148.0,-127.0,-32.0,181.0,145,57,69,86,66
2025-02-25 18:06:29.327,41.0,-1477.0,-132.0,-133.0,-34.0,183.0,144,55,68,88,65
2025-02-25 18:06:29.331,26.0,-1613.0,0.0,-137.0,-54.0,191.0,144,55,70,85,67
2025-02-25 18:06:29.335,5.0,-1524.0,-3.0,-131.0,-65.0,202.0,146,54,69,84,66
2025-02-25 18:06:29.343,32.0,-1475.0,79.0,-135.0,-59.0,207.0,143,54,67,85,67
2025-02-25 18:06:29.347,52.0,-1321.0,53.0,-144.0,-38.0,220.0,144,55,67,84,68
2025-02-25 18:06:29.352,52.0,-1246.0,64.0,-140.0,-37.0,233.0,142,52,66,85,66
2025-02-25 18:06:29.356,-59.0,-1207.0,163.0,-128.0,-42.0,235.0,146,55,66,87,67
2025-02-25 18:06:29.364,-88.0,-1082.0,200.0,-114.0,-42.0,240.0,146,56,67,88,67
2025-02-25 18:06:29.368,-221.0,-844.0,228.0,-115.0,-47.0,240.0,147,54,68,90,69
2025-02-25 18:06:29.372,-279.0,-813.0,220.0,-130.0,-42.0,245.0,144,53,69,91,68
2025-02-25 18:06:29.376,-279.0,-667.0,154.0,-131.0,-18.0,246.0,144,53,70,91,67
2025-02-25 18:06:29.384,-426.0,-600.0,193.0,-126.0,4.0,250.0,142,54,69,94,69
2025-02-25 18:06:29.388,-482.0,-439.0,147.0,-100.0,12.0,248.0,145,55,69,93,70
2025-02-25 18:06:29.393,-533.0,-300.0,143.0,-86.0,13.0,236.0,144,55,71,92,68
2025-02-25 18:06:29.397,-542.0,-224.0,174.0,-80.0,16.0,230.0,144,55,70,93,67
2025-02-25 18:06:29.405,-623.0,-167.0,166.0,-65.0,23.0,216.0,143,56,70,92,69
2025-02-25 18:06:29.409,-654.0,-23.0,145.0,-57.0,25.0,201.0,143,55,71,94,69
2025-02-25 18:06:29.413,-667.0,51.0,148.0,-53.0,21.0,185.0,146,58,69,91,68
2025-02-25 18:06:29.417,-713.0,75.0,113.0,-46.0,28.0,181.0,144,56,71,93,70
2025-02-25 18:06:29.421,-742.0,91.0,54.0,-47.0,33.0,167.0,146,59,73,89,69
2025-02-25 18:06:29.429,-763.0,118.0,106.0,-43.0,31.0,154.0,140,56,70,93,70
2025-02-25 18:06:29.433,-798.0,72.0,38.0,-47.0,26.0,148.0,141,56,72,94,70
2025-02-25 18:06:29.437,-792.0,81.0,100.0,-50.0,6.0,129.0,141,55,71,94,71
2025-02-25 18:06:29.441,-789.0,121.0,63.0,-54.0,3.0,118.0,141,55,70,94,68
2025-02-25 18:06:29.446,-833.0,114.0,64.0,-52.0,8.0,110.0,142,57,70,94,69
2025-02-25 18:06:29.450,-918.0,112.0,26.0,-50.0,8.0,103.0,139,58,71,95,71
2025-02-25 18:06:29.457,-925.0,220.0,83.0,-57.0,8.0,97.0,141,55,71,97,71
2025-02-25 18:06:29.462,-922.0,245.0,-13.0,-59.0,11.0,96.0,143,57,70,96,71
2025-02-25 18:06:29.466,-946.0,230.0,41.0,-58.0,14.0,90.0,140,55,72,102,73
2025-02-25 18:06:29.470,-989.0,204.0,-49.0,-60.0,13.0,87.0,141,57,71,101,72
2025-02-25 18:06:29.474,-1029.0,283.0,-39.0,-61.0,16.0,85.0,141,58,74,101,71
2025-02-25 18:06:29.482,-956.0,376.0,-117.0,-56.0,17.0,74.0,142,60,75,101,73
2025-02-25 18:06:29.486,-978.0,435.0,-21.0,-55.0,21.0,64.0,141,58,72,98,75
2025-02-25 18:06:29.491,-1022.0,351.0,-41.0,-44.0,24.0,57.0,139,57,73,100,73
2025-02-25 18:06:29.495,-1041.0,447.0,-33.0,-44.0,23.0,44.0,141,55,75,100,72
2025-02-25 18:06:29.503,-1012.0,491.0,-61.0,-56.0,27.0,30.0,140,62,76,100,74
2025-02-25 18:06:29.507,-1009.0,557.0,-57.0,-50.0,29.0,24.0,139,59,76,99,80
2025-02-25 18:06:29.511,-1086.0,521.0,-25.0,-27.0,36.0,9.0,140,60,76,101,77
2025-02-25 18:06:29.515,-1051.0,464.0,-14.0,-16.0,43.0,-9.0,143,57,78,107,77
2025-02-25 18:06:29.520,-995.0,416.0,7.0,16.0,46.0,-28.0,139,61,79,103,76
2025-02-25 18:06:29.527,-974.0,378.0,-33.0,44.0,54.0,-34.0,140,61,78,110,79
2025-02-25 18:06:29.532,-949.0,308.0,46.0,58.0,60.0,-48.0,139,62,78,107,78
2025-02-25 18:06:29.536,-937.0,264.0,16.0,87.0,63.0,-59.0,139,63,80,107,80
2025-02-25 18:06:29.540,-852.0,280.0,-43.0,124.0,77.0,-65.0,140,64,79,108,80
2025-02-25 18:06:29.545,-935.0,256.0,-77.0,135.0,88.0,-70.0,142,64,81,105,83
2025-02-25 18:06:29.552,-966.0,321.0,-107.0,166.0,95.0,-69.0,141,69,83,107,80
2025-02-25 18:06:29.556,-1042.0,340.0,-188.0,207.0,101.0,-67.0,140,67,85,109,80
2025-02-25 18:06:29.561,-1181.0,398.0,-124.0,235.0,99.0,-73.0,140,71,85,106,82
2025-02-25 18:06:29.568,-1222.0,499.0,-291.0,246.0,95.0,-86.0,142,72,88,107,82
2025-02-25 18:06:29.572,-1144.0,551.0,-324.0,261.0,101.0,-92.0,141,73,87,107,83
2025-02-25 18:06:29.576,-1177.0,670.0,-426.0,291.0,98.0,-109.0,140,82,87,107,85
2025-02-25 18:06:29.581,-1175.0,773.0,-558.0,319.0,83.0,-131.0,140,82,95,107,86
2025-02-25 18:06:29.589,-1079.0,690.0,-678.0,338.0,53.0,-155.0,140,85,93,108,86
2025-02-25 18:06:29.593,-1015.0,860.0,-962.0,362.0,33.0,-185.0,139,86,98,109,87
2025-02-25 18:06:29.597,-943.0,863.0,-842.0,364.0,-5.0,-204.0,137,90,98,110,86
2025-02-25 18:06:29.605,-769.0,821.0,-847.0,388.0,-25.0,-251.0,136,93,102,110,89
2025-02-25 18:06:29.609,-562.0,676.0,-558.0,379.0,-52.0,-301.0,135,96,103,110,86
2025-02-25 18:06:29.613,-474.0,533.0,-788.0,382.0,-107.0,-339.0,136,99,104,108,87
2025-02-25 18:06:29.621,-424.0,644.0,-594.0,386.0,-132.0,-375.0,132,104,107,107,86
2025-02-25 18:06:29.626,-392.0,777.0,-137.0,362.0,-186.0,-417.0,130,105,108,107,86
2025-02-25 18:06:29.630,-300.0,691.0,336.0,337.0,-247.0,-453.0,128,108,111,107,84
2025-02-25 18:06:29.638,-251.0,618.0,584.0,303.0,-269.0,-462.0,123,110,109,103,85
2025-02-25 18:06:29.642,-191.0,267.0,875.0,248.0,-277.0,-484.0,125,111,112,108,86
2025-02-25 18:06:29.646,115.0,-71.0,737.0,213.0,-295.0,-490.0,123,108,114,108,85
2025-02-25 18:06:29.654,578.0,-452.0,647.0,196.0,-308.0,-492.0,121,115,112,110,87
2025-02-25 18:06:29.658,1199.0,-1051.0,681.0,155.0,-323.0,-476.0,117,112,116,112,88
2025-02-25 18:06:29.663,1643.0,-1445.0,956.0,143.0,-329.0,-446.0,118,116,117,114,86
2025-02-25 18:06:29.671,1878.0,-2120.0,1178.0,132.0,-330.0,-408.0,116,115,116,112,87
2025-02-25 18:06:29.675,2287.0,-2671.0,1670.0,123.0,-303.0,-352.0,116,119,116,114,86
2025-02-25 18:06:29.683,2770.0,-2854.0,1989.0,147.0,-240.0,-283.0,115,119,115,113,86
2025-02-25 18:06:29.688,3115.0,-3121.0,2155.0,150.0,-153.0,-247.0,117,120,116,118,86
2025-02-25 18:06:29.692,3033.0,-3272.0,2234.0,132.0,-65.0,-165.0,114,119,115,114,84
2025-02-25 18:06:29.700,2775.0,-3389.0,2169.0,105.0,26.0,-80.0,115,124,115,114,85
2025-02-25 18:06:29.704,2497.0,-3438.0,2070.0,74.0,108.0,-1.0,114,123,118,114,82
2025-02-25 18:06:29.708,2142.0,-3316.0,1807.0,24.0,164.0,73.0,113,123,116,112,81
2025-02-25 18:06:29.716,1813.0,-3058.0,1551.0,-2.0,192.0,131.0,114,125,118,110,79
2025-02-25 18:06:29.720,1475.0,-2746.0,1181.0,-54.0,193.0,169.0,114,123,115,109,77
2025-02-25 18:06:29.725,1315.0,-2500.0,947.0,-97.0,181.0,195.0,113,122,115,107,75
2025-02-25 18:06:29.732,960.0,-2187.0,776.0,-135.0,158.0,203.0,113,124,115,108,75
2025-02-25 18:06:29.737,627.0,-2107.0,553.0,-139.0,138.0,216.0,114,123,120,109,77
2025-02-25 18:06:29.741,389.0,-1918.0,523.0,-149.0,96.0,222.0,112,124,115,109,74
2025-02-25 18:06:29.749,276.0,-1862.0,225.0,-163.0,56.0,220.0,112,121,114,110,76
2025-02-25 18:06:29.753,287.0,-1707.0,248.0,-143.0,20.0,211.0,111,122,114,111,75
2025-02-25 18:06:29.757,272.0,-1596.0,328.0,-119.0,14.0,195.0,112,122,113,112,77
2025-02-25 18:06:29.764,295.0,-1575.0,301.0,-80.0,-6.0,182.0,111,122,115,115,75
2025-02-25 18:06:29.769,241.0,-1576.0,365.0,-63.0,-23.0,176.0,111,124,116,115,76
2025-02-25 18:06:29.773,285.0,-1408.0,383.0,-57.0,-39.0,170.0,111,122,116,116,75
2025-02-25 18:06:29.781,276.0,-1412.0,501.0,-49.0,-43.0,168.0,112,124,117,116,76
2025-02-25 18:06:29.785,326.0,-1325.0,588.0,-46.0,-38.0,168.0,112,123,117,117,76
2025-02-25 18:06:29.790,296.0,-1199.0,588.0,-42.0,-37.0,170.0,109,122,117,116,76
2025-02-25 18:06:29.798,259.0,-1145.0,593.0,-56.0,-30.0,171.0,112,124,117,117,77
2025-02-25 18:06:29.802,249.0,-1133.0,606.0,-64.0,-24.0,176.0,112,123,116,119,77
2025-02-25 18:06:29.806,245.0,-1033.0,650.0,-75.0,-16.0,181.0,109,124,117,116,78
2025-02-25 18:06:29.814,176.0,-941.0,677.0,-83.0,-7.0,184.0,112,124,117,119,77
2025-02-25 18:06:29.818,114.0,-878.0,599.0,-95.0,-2.0,190.0,113,123,117,123,77
2025-02-25 18:06:29.822,82.0,-813.0,602.0,-106.0,1.0,194.0,110,124,116,118,77
2025-02-25 18:06:29.826,45.0,-765.0,569.0,-109.0,6.0,196.0,113,130,119,119,82
2025-02-25 18:06:29.834,-27.0,-711.0,549.0,-112.0,13.0,198.0,112,125,118,120,79
2025-02-25 18:06:29.839,-106.0,-658.0,445.0,-113.0,14.0,201.0,110,124,118,120,79
2025-02-25 18:06:29.843,-137.0,-615.0,397.0,-114.0,14.0,204.0,111,123,119,119,78
2025-02-25 18:06:29.851,-230.0,-561.0,392.0,-122.0,18.0,206.0,111,124,119,119,77
2025-02-25 18:06:29.855,-293.0,-538.0,331.0,-127.0,19.0,208.0,113,127,117,122,76
2025-02-25 18:06:29.860,-370.0,-464.0,298.0,-136.0,21.0,209.0,111,126,120,120,79
2025-02-25 18:06:29.867,-455.0,-424.0,318.0,-140.0,26.0,212.0,113,125,119,121,78
2025-02-25 18:06:29.871,-528.0,-353.0,260.0,-142.0,31.0,211.0,112,125,120,120,78
2025-02-25 18:06:29.876,-559.0,-299.0,234.0,-145.0,33.0,210.0,111,124,120,118,78
2025-02-25 18:06:29.884,-629.0,-233.0,205.0,-141.0,34.0,210.0,111,124,118,119,77
2025-02-25 18:06:29.888,-678.0,-211.0,141.0,-133.0,35.0,208.0,112,124,118,121,81
2025-02-25 18:06:29.892,-716.0,-120.0,165.0,-127.0,37.0,204.0,113,125,119,119,78
2025-02-25 18:06:29.896,-758.0,-53.0,167.0,-115.0,38.0,199.0,112,123,119,121,76
2025-02-25 18:06:29.904,-806.0,-21.0,164.0,-107.0,41.0,194.0,112,123,120,121,79
2025-02-25 18:06:29.908,-806.0,41.0,148.0,-99.0,43.0,186.0,113,122,117,118,78
2025-02-25 18:06:29.913,-825.0,46.0,142.0,-86.0,45.0,183.0,111,124,119,121,78
2025-02-25 18:06:29.920,-846.0,93.0,111.0,-76.0,48.0,174.0,112,123,120,118,79
2025-02-25 18:06:29.924,-852.0,156.0,77.0,-72.0,51.0,162.0,109,124,119,120,77
2025-02-25 18:06:29.929,-876.0,183.0,23.0,-60.0,51.0,149.0,110,123,119,119,77
2025-02-25 18:06:29.934,-916.0,217.0,-26.0,-49.0,51.0,143.0,110,125,117,120,77
2025-02-25 18:06:29.941,-952.0,253.0,-34.0,-41.0,51.0,127.0,111,122,119,121,77
2025-02-25 18:06:29.945,-983.0,310.0,-73.0,-35.0,49.0,110.0,109,125,121,121,78
2025-02-25 18:06:29.949,-1015.0,370.0,-130.0,-20.0,45.0,93.0,110,123,119,120,76
2025-02-25 18:06:29.954,-1052.0,421.0,-146.0,-12.0,41.0,83.0,110,122,118,119,77
2025-02-25 18:06:29.961,-1077.0,521.0,-179.0,-2.0,35.0,65.0,111,123,122,121,78
2025-02-25 18:06:29.965,-1156.0,582.0,-205.0,5.0,27.0,45.0,110,122,120,121,76
2025-02-25 18:06:29.970,-1178.0,688.0,-224.0,7.0,18.0,22.0,110,122,119,119,76
2025-02-25 18:06:29.977,-1209.0,733.0,-245.0,18.0,13.0,-1.0,110,122,121,121,79
2025-02-25 18:06:29.982,-1244.0,729.0,-254.0,25.0,3.0,-13.0,110,122,123,120,79
2025-02-25 18:06:29.987,-1238.0,769.0,-271.0,31.0,-4.0,-39.0,114,123,121,120,77
2025-02-25 18:06:29.991,-1254.0,729.0,-219.0,38.0,-13.0,-65.0,110,121,119,121,77
2025-02-25 18:06:29.999,-1240.0,763.0,-188.0,44.0,-14.0,-90.0,109,124,126,120,77
2025-02-25 18:06:30.003,-1219.0,724.0,-195.0,54.0,-15.0,-115.0,109,121,120,121,79
2025-02-25 18:06:30.007,-1168.0,685.0,-183.0,66.0,-14.0,-129.0,107,122,120,122,77
2025-02-25 18:06:30.015,-1127.0,675.0,-177.0,77.0,-14.0,-155.0,110,121,120,118,77
2025-02-25 18:06:30.019,-1078.0,665.0,-189.0,88.0,-12.0,-181.0,110,123,122,122,78
2025-02-25 18:06:30.023,-1040.0,647.0,-159.0,94.0,-11.0,-207.0,110,121,120,119,77
2025-02-25 18:06:30.031,-983.0,606.0,-131.0,104.0,-9.0,-232.0,110,122,120,121,78
2025-02-25 18:06:30.035,-950.0,546.0,-104.0,113.0,-8.0,-255.0,110,120,123,124,78
2025-02-25 18:06:30.040,-882.0,481.0,-59.0,119.0,-9.0,-266.0,108,122,118,122,78
2025-02-25 18:06:30.047,-771.0,451.0,-50.0,123.0,-10.0,-289.0,110,122,119,122,78
2025-02-25 18:06:30.051,-648.0,380.0,17.0,126.0,-13.0,-312.0,110,122,119,121,78
2025-02-25 18:06:30.056,-531.0,295.0,38.0,125.0,-21.0,-337.0,109,121,122,123,79
2025-02-25 18:06:30.064,-407.0,195.0,92.0,123.0,-34.0,-362.0,109,121,117,124,78
2025-02-25 18:06:30.068,-329.0,92.0,162.0,111.0,-42.0,-388.0,108,125,117,121,75
2025-02-25 18:06:30.073,-106.0,23.0,182.0,99.0,-57.0,-401.0,110,122,118,122,79
2025-02-25 18:06:30.077,75.0,-179.0,231.0,83.0,-73.0,-423.0,109,115,121,125,80
2025-02-25 18:06:30.084,315.0,-498.0,274.0,75.0,-86.0,-437.0,109,122,120,123,79
2025-02-25 18:06:30.089,393.0,-928.0,366.0,71.0,-93.0,-438.0,109,121,120,123,76
2025-02-25 18:06:30.093,583.0,-1443.0,463.0,67.0,-106.0,-425.0,112,120,118,122,80
2025-02-25 18:06:30.101,805.0,-1729.0,703.0,77.0,-114.0,-414.0,111,122,119,123,81
2025-02-25 18:06:30.105,1085.0,-2288.0,838.0,89.0,-115.0,-380.0,111,122,120,125,79
2025-02-25 18:06:30.110,1360.0,-2602.0,997.0,104.0,-102.0,-333.0,112,124,120,123,80
2025-02-25 18:06:30.117,1611.0,-2842.0,1208.0,110.0,-77.0,-271.0,111,123,118,125,80
2025-02-25 18:06:30.122,1799.0,-2906.0,1281.0,110.0,-46.0,-198.0,114,124,119,124,81
2025-02-25 18:06:30.129,1932.0,-3067.0,1311.0,98.0,-14.0,-130.0,113,124,124,123,79
2025-02-25 18:06:30.133,2015.0,-3120.0,1482.0,75.0,27.0,-67.0,113,122,117,123,80
2025-02-25 18:06:30.137,2005.0,-3139.0,1354.0,58.0,45.0,-9.0,111,123,118,127,79
2025-02-25 18:06:30.142,1871.0,-3144.0,1233.0,23.0,78.0,19.0,112,122,117,122,78
2025-02-25 18:06:30.149,1619.0,-2949.0,1159.0,-8.0,104.0,63.0,113,124,117,121,80
2025-02-25 18:06:30.154,1391.0,-2766.0,944.0,-53.0,109.0,95.0,115,122,117,121,79
2025-02-25 18:06:30.158,1232.0,-2605.0,934.0,-60.0,106.0,124.0,113,120,117,120,77
2025-02-25 18:06:30.166,843.0,-2427.0,630.0,-91.0,96.0,140.0,112,120,115,120,76
2025-02-25 18:06:30.170,778.0,-2263.0,565.0,-102.0,84.0,157.0,111,121,116,120,76
2025-02-25 18:06:30.175,575.0,-2217.0,293.0,-128.0,70.0,161.0,113,122,115,121,79
2025-02-25 18:06:30.182,409.0,-2068.0,268.0,-135.0,50.0,171.0,111,117,115,123,78
2025-02-25 18:06:30.187,293.0,-1941.0,77.0,-138.0,24.0,176.0,114,119,116,123,77
2025-02-25 18:06:30.191,276.0,-1912.0,83.0,-133.0,5.0,181.0,111,117,115,123,77
2025-02-25 18:06:30.199,233.0,-1830.0,129.0,-125.0,-1.0,182.0,111,117,117,123,77
2025-02-25 18:06:30.203,185.0,-1804.0,68.0,-125.0,-12.0,182.0,112,117,118,125,78
2025-02-25 18:06:30.207,129.0,-1661.0,165.0,-115.0,-26.0,183.0,111,115,112,126,80
2025-02-25 18:06:30.215,107.0,-1619.0,195.0,-102.0,-34.0,187.0,112,116,117,125,79
2025-02-25 18:06:30.219,151.0,-1472.0,292.0,-91.0,-37.0,188.0,113,117,117,126,80
2025-02-25 18:06:30.224,104.0,-1353.0,296.0,-90.0,-38.0,194.0,115,117,117,126,81
2025-02-25 18:06:30.232,73.0,-1244.0,283.0,-102.0,-37.0,200.0,110,114,115,125,79
2025-02-25 18:06:30.236,40.0,-1134.0,327.0,-106.0,-37.0,204.0,112,112,119,126,81
2025-02-25 18:06:30.240,-36.0,-1104.0,349.0,-108.0,-29.0,212.0,115,115,118,127,82
2025-02-25 18:06:30.248,-60.0,-998.0,350.0,-114.0,-23.0,222.0,113,114,114,125,81
2025-02-25 18:06:30.253,-133.0,-900.0,328.0,-121.0,-17.0,230.0,117,116,121,127,80
2025-02-25 18:06:30.257,-193.0,-765.0,354.0,-123.0,-11.0,237.0,114,114,118,127,82
2025-02-25 18:06:30.265,-267.0,-699.0,405.0,-121.0,-4.0,243.0,114,114,117,125,83
2025-02-25 18:06:30.269,-302.0,-575.0,353.0,-126.0,6.0,247.0,119,112,116,128,82
2025-02-25 18:06:30.272,-349.0,-543.0,303.0,-119.0,12.0,247.0,115,111,116,131,83
2025-02-25 18:06:30.278,-334.0,-427.0,375.0,-111.0,27.0,240.0,117,116,116,124,83
2025-02-25 18:06:30.285,-350.0,-302.0,186.0,-101.0,29.0,232.0,116,112,116,124,84
2025-02-25 18:06:30.290,-408.0,-304.0,223.0,-102.0,28.0,218.0,116,109,115,121,83
2025-02-25 18:06:30.294,-521.0,-143.0,174.0,-124.0,25.0,200.0,115,109,113,118,85
2025-02-25 18:06:30.301,-632.0,-177.0,108.0,-123.0,15.0,185.0,115,107,110,116,85
2025-02-25 18:06:30.305,-754.0,-93.0,83.0,-121.0,10.0,174.0,116,107,111,115,85
2025-02-25 18:06:30.310,-801.0,-41.0,-56.0,-131.0,-6.0,157.0,117,107,110,113,87
2025-02-25 18:06:30.318,-773.0,-85.0,-83.0,-124.0,-9.0,150.0,118,108,106,114,89
2025-02-25 18:06:30.322,-793.0,-90.0,-26.0,-103.0,-1.0,145.0,117,106,108,111,90
2025-02-25 18:06:30.326,-825.0,-117.0,111.0,-83.0,23.0,142.0,117,103,105,110,91
2025-02-25 18:06:30.331,-954.0,-101.0,5.0,-57.0,36.0,137.0,120,107,104,111,93
2025-02-25 18:06:30.338,-1047.0,-56.0,-210.0,-48.0,17.0,123.0,122,104,104,114,95
2025-02-25 18:06:30.342,-1032.0,-98.0,-523.0,-60.0,-24.0,111.0,123,102,103,112,92
2025-02-25 18:06:30.347,-1084.0,-143.0,-308.0,-72.0,-41.0,101.0,123,96,102,115,94
2025-02-25 18:06:30.354,-1130.0,-86.0,80.0,-76.0,-35.0,90.0,123,96,99,110,94
2025-02-25 18:06:30.362,-1110.0,-7.0,64.0,-77.0,-23.0,85.0,128,96,98,106,94
2025-02-25 18:06:30.364,-970.0,80.0,-36.0,-65.0,-19.0,72.0,128,92,94,109,94
2025-02-25 18:06:30.367,-857.0,162.0,-14.0,-60.0,-19.0,62.0,130,89,91,114,93
2025-02-25 18:06:30.375,-879.0,214.0,49.0,-53.0,-14.0,58.0,127,85,91,109,94
2025-02-25 18:06:30.379,-896.0,233.0,48.0,-54.0,-3.0,51.0,133,83,93,108,92
2025-02-25 18:06:30.384,-964.0,235.0,1.0,-53.0,-2.0,45.0,130,79,87,108,93
2025-02-25 18:06:30.388,-993.0,290.0,-85.0,-48.0,-4.0,41.0,129,75,85,106,90
2025-02-25 18:06:30.392,-1050.0,337.0,-52.0,-50.0,-5.0,35.0,131,77,86,108,91
2025-02-25 18:06:30.400,-1081.0,427.0,2.0,-48.0,-3.0,31.0,134,74,89,113,91
2025-02-25 18:06:30.404,-1106.0,563.0,-15.0,-37.0,-3.0,23.0,130,73,85,106,90
2025-02-25 18:06:30.408,-1176.0,576.0,-26.0,-28.0,2.0,19.0,131,68,83,108,91
2025-02-25 18:06:30.412,-1205.0,688.0,-87.0,-29.0,-1.0,1.0,131,69,82,107,88
2025-02-25 18:06:30.416,-1172.0,672.0,-128.0,-32.0,-6.0,-18.0,127,68,79,103,88
2025-02-25 18:06:30.424,-1140.0,733.0,-65.0,-38.0,-3.0,-32.0,134,67,80,106,86
2025-02-25 18:06:30.429,-1246.0,928.0,-129.0,-36.0,-7.0,-68.0,134,64,78,108,84
2025-02-25 18:06:30.433,-1335.0,949.0,-145.0,-27.0,-4.0,-104.0,134,63,73,106,81
2025-02-25 18:06:30.441,-1329.0,1063.0,-55.0,-11.0,0.0,-138.0,135,61,72,104,78
2025-02-25 18:06:30.445,-1216.0,1101.0,10.0,11.0,11.0,-153.0,135,60,69,103,75
2025-02-25 18:06:30.449,-1171.0,1117.0,-6.0,52.0,15.0,-179.0,136,58,71,103,72
2025-02-25 18:06:30.454,-1116.0,929.0,141.0,75.0,22.0,-204.0,135,58,70,103,71
2025-02-25 18:06:30.462,-1070.0,1042.0,5.0,95.0,25.0,-229.0,136,58,68,100,70
2025-02-25 18:06:30.466,-964.0,949.0,-27.0,121.0,17.0,-242.0,134,55,67,96,67
2025-02-25 18:06:30.469,-945.0,949.0,21.0,145.0,13.0,-265.0,137,57,68,97,66
2025-02-25 18:06:30.474,-818.0,901.0,171.0,145.0,19.0,-290.0,138,53,63,94,65
2025-02-25 18:06:30.482,-681.0,800.0,225.0,153.0,24.0,-311.0,137,53,65,93,63
2025-02-25 18:06:30.486,-378.0,623.0,181.0,170.0,22.0,-323.0,136,51,64,91,62
2025-02-25 18:06:30.490,-249.0,589.0,231.0,168.0,20.0,-341.0,137,52,64,91,61
2025-02-25 18:06:30.494,-185.0,572.0,148.0,156.0,20.0,-371.0,138,57,60,86,58
2025-02-25 18:06:30.498,2.0,399.0,255.0,140.0,21.0,-387.0,140,53,60,85,59
2025-02-25 18:06:30.506,206.0,255.0,340.0,122.0,10.0,-417.0,140,52,62,85,60
2025-02-25 18:06:30.510,581.0,94.0,378.0,102.0,2.0,-446.0,139,49,59,83,58
2025-02-25 18:06:30.514,685.0,27.0,235.0,82.0,-28.0,-459.0,141,49,59,82,58
2025-02-25 18:06:30.519,854.0,-334.0,200.0,61.0,-61.0,-477.0,137,51,59,83,60
2025-02-25 18:06:30.523,1015.0,-804.0,104.0,54.0,-78.0,-476.0,141,52,59,81,60
2025-02-25 18:06:30.531,1065.0,-1388.0,172.0,43.0,-77.0,-471.0,142,52,59,81,63
2025-02-25 18:06:30.535,1362.0,-1700.0,144.0,20.0,-70.0,-454.0,143,50,62,80,62
2025-02-25 18:06:30.540,1627.0,-2509.0,301.0,27.0,-59.0,-408.0,144,52,61,77,61
2025-02-25 18:06:30.548,1842.0,-3254.0,500.0,43.0,-53.0,-344.0,143,51,59,80,61
2025-02-25 18:06:30.552,1847.0,-3932.0,1191.0,94.0,-12.0,-252.0,144,53,65,71,59
2025-02-25 18:06:30.556,2295.0,-4021.0,634.0,191.0,-31.0,-225.0,146,52,66,76,62
2025-02-25 18:06:30.560,2243.0,-4479.0,760.0,259.0,19.0,-148.0,146,51,63,76,61
2025-02-25 18:06:30.568,2265.0,-4684.0,1164.0,312.0,99.0,-79.0,146,51,57,76,61
2025-02-25 18:06:30.572,2415.0,-4432.0,1418.0,296.0,123.0,24.0,146,52,58,78,61
2025-02-25 18:06:30.577,1838.0,-4091.0,1090.0,273.0,141.0,65.0,147,53,58,79,63
2025-02-25 18:06:30.584,1983.0,-3703.0,920.0,197.0,197.0,114.0,147,50,60,79,62
2025-02-25 18:06:30.589,1770.0,-2931.0,836.0,95.0,197.0,131.0,148,53,59,78,62
2025-02-25 18:06:30.593,1234.0,-2565.0,378.0,64.0,179.0,149.0,146,50,57,78,62
2025-02-25 18:06:30.596,964.0,-1988.0,201.0,33.0,148.0,139.0,148,52,65,81,62
2025-02-25 18:06:30.602,679.0,-1796.0,12.0,-64.0,94.0,133.0,147,51,61,80,63
2025-02-25 18:06:30.609,386.0,-1663.0,-98.0,-100.0,63.0,135.0,149,50,61,79,62
2025-02-25 18:06:30.613,294.0,-1648.0,-260.0,-144.0,42.0,139.0,146,50,61,81,62
2025-02-25 18:06:30.617,246.0,-1731.0,-264.0,-201.0,16.0,140.0,145,49,59,80,62
2025-02-25 18:06:30.625,151.0,-1701.0,-249.0,-214.0,10.0,142.0,149,52,60,78,63
2025-02-25 18:06:30.629,135.0,-1715.0,-88.0,-224.0,28.0,145.0,147,51,61,76,65
2025-02-25 18:06:30.633,124.0,-1815.0,-11.0,-190.0,20.0,145.0,149,53,60,78,62
2025-02-25 18:06:30.637,106.0,-1773.0,120.0,-164.0,4.0,148.0,148,57,61,80,66
2025-02-25 18:06:30.646,147.0,-1770.0,137.0,-138.0,-18.0,153.0,147,53,61,80,63
2025-02-25 18:06:30.650,125.0,-1621.0,170.0,-128.0,-8.0,164.0,147,54,68,81,61
2025-02-25 18:06:30.654,94.0,-1508.0,223.0,-115.0,-3.0,172.0,147,52,62,79,62
2025-02-25 18:06:30.658,122.0,-1408.0,254.0,-94.0,-12.0,172.0,145,51,66,81,62
2025-02-25 18:06:30.666,41.0,-1259.0,264.0,-88.0,-17.0,174.0,147,53,65,81,64
2025-02-25 18:06:30.670,26.0,-1092.0,247.0,-91.0,-5.0,178.0,145,53,63,78,62
2025-02-25 18:06:30.674,-8.0,-996.0,238.0,-98.0,-1.0,179.0,148,53,64,79,61
2025-02-25 18:06:30.678,-80.0,-933.0,160.0,-108.0,-5.0,179.0,148,53,70,80,64
2025-02-25 18:06:30.682,-168.0,-809.0,150.0,-113.0,5.0,179.0,148,52,64,81,63
2025-02-25 18:06:30.691,-149.0,-783.0,163.0,-113.0,10.0,177.0,146,51,64,80,62
2025-02-25 18:06:30.695,-209.0,-618.0,143.0,-121.0,17.0,176.0,148,53,62,79,62
2025-02-25 18:06:30.699,-283.0,-631.0,144.0,-117.0,15.0,173.0,148,53,65,81,64
2025-02-25 18:06:30.703,-361.0,-558.0,180.0,-114.0,13.0,169.0,149,55,63,79,63
2025-02-25 18:06:30.711,-368.0,-484.0,133.0,-99.0,10.0,165.0,146,53,63,78,62
2025-02-25 18:06:30.715,-396.0,-502.0,185.0,-88.0,4.0,161.0,148,55,67,82,64
2025-02-25 18:06:30.720,-429.0,-420.0,159.0,-71.0,1.0,154.0,149,55,63,81,64
2025-02-25 18:06:30.724,-454.0,-388.0,210.0,-65.0,2.0,148.0,148,53,64,81,63
2025-02-25 18:06:30.731,-453.0,-361.0,189.0,-55.0,11.0,144.0,147,51,62,81,64
2025-02-25 18:06:30.735,-504.0,-343.0,174.0,-51.0,22.0,137.0,149,51,64,83,64
2025-02-25 18:06:30.740,-564.0,-270.0,161.0,-54.0,30.0,133.0,148,54,64,82,65
2025-02-25 18:06:30.744,-587.0,-311.0,105.0,-43.0,32.0,127.0,148,54,62,81,64
2025-02-25 18:06:30.751,-646.0,-252.0,89.0,-49.0,40.0,125.0,150,57,63,82,64
2025-02-25 18:06:30.756,-691.0,-205.0,50.0,-51.0,46.0,120.0,147,56,64,83,65
2025-02-25 18:06:30.760,-710.0,-117.0,-3.0,-52.0,46.0,113.0,148,55,64,80,63
2025-02-25 18:06:30.764,-759.0,-94.0,-64.0,-50.0,39.0,108.0,148,54,65,84,65
2025-02-25 18:06:30.769,-795.0,-29.0,-99.0,-58.0,38.0,98.0,149,55,65,83,65
2025-02-25 18:06:30.776,-784.0,37.0,-155.0,-64.0,38.0,87.0,147,54,63,83,65
2025-02-25 18:06:30.780,-808.0,59.0,-198.0,-71.0,39.0,82.0,148,54,65,83,64
2025-02-25 18:06:30.784,-816.0,96.0,-221.0,-80.0,36.0,70.0,148,54,65,83,64
2025-02-25 18:06:30.789,-856.0,146.0,-261.0,-83.0,34.0,58.0,149,56,57,83,63
2025-02-25 18:06:30.793,-868.0,179.0,-299.0,-88.0,29.0,53.0,147,54,64,82,63
2025-02-25 18:06:30.801,-900.0,220.0,-301.0,-89.0,21.0,40.0,151,54,67,84,66
2025-02-25 18:06:30.805,-953.0,268.0,-340.0,-88.0,14.0,30.0,148,53,64,82,65
2025-02-25 18:06:30.810,-982.0,332.0,-351.0,-83.0,10.0,24.0,149,55,63,81,65
2025-02-25 18:06:30.814,-1019.0,352.0,-344.0,-77.0,1.0,14.0,148,56,65,84,66
2025-02-25 18:06:30.818,-1052.0,464.0,-345.0,-68.0,-9.0,-2.0,148,57,63,86,66
2025-02-25 18:06:30.825,-1074.0,519.0,-323.0,-56.0,-10.0,-9.0,147,55,65,82,65
2025-02-25 18:06:30.830,-1123.0,556.0,-313.0,-35.0,-14.0,-27.0,150,57,66,88,65
2025-02-25 18:06:30.835,-1169.0,603.0,-305.0,-12.0,-19.0,-50.0,148,57,65,84,65
2025-02-25 18:06:30.842,-1161.0,651.0,-318.0,-2.0,-17.0,-72.0,148,57,65,83,64
2025-02-25 18:06:30.847,-1161.0,693.0,-324.0,19.0,-16.0,-93.0,147,54,65,83,65
2025-02-25 18:06:30.851,-1230.0,717.0,-320.0,40.0,-13.0,-102.0,148,54,64,83,66
2025-02-25 18:06:30.855,-1252.0,742.0,-301.0,56.0,-11.0,-120.0,149,55,63,85,64
2025-02-25 18:06:30.862,-1287.0,769.0,-299.0,67.0,-4.0,-138.0,148,55,64,85,66
2025-02-25 18:06:30.866,-1232.0,750.0,-229.0,92.0,-2.0,-161.0,149,54,63,84,65
2025-02-25 18:06:30.871,-1155.0,720.0,-189.0,111.0,5.0,-172.0,148,54,65,86,66
2025-02-25 18:06:30.876,-1099.0,694.0,-188.0,136.0,10.0,-194.0,150,56,64,86,66
2025-02-25 18:06:30.883,-994.0,639.0,-169.0,146.0,12.0,-218.0,149,57,66,85,64
2025-02-25 18:06:30.888,-955.0,611.0,-159.0,159.0,10.0,-243.0,146,55,63,84,64
2025-02-25 18:06:30.892,-845.0,572.0,-153.0,166.0,0.0,-258.0,149,55,64,86,67
2025-02-25 18:06:30.896,-706.0,571.0,-122.0,156.0,-17.0,-287.0,150,56,65,87,66
2025-02-25 18:06:30.904,-510.0,497.0,-68.0,150.0,-38.0,-321.0,148,57,66,86,67
2025-02-25 18:06:30.908,-393.0,391.0,-64.0,129.0,-49.0,-356.0,149,57,61,84,65
2025-02-25 18:06:30.912,-135.0,287.0,-12.0,98.0,-72.0,-373.0,150,54,62,85,66
2025-02-25 18:06:30.917,150.0,-18.0,33.0,71.0,-95.0,-399.0,149,56,66,88,67
2025-02-25 18:06:30.924,263.0,-359.0,110.0,57.0,-104.0,-408.0,147,56,60,88,66
2025-02-25 18:06:30.928,571.0,-586.0,270.0,30.0,-115.0,-410.0,146,55,65,87,66
2025-02-25 18:06:30.932,904.0,-1134.0,398.0,5.0,-116.0,-406.0,149,57,65,87,67
2025-02-25 18:06:30.936,1261.0,-1846.0,621.0,-5.0,-111.0,-387.0,148,52,66,89,66
2025-02-25 18:06:30.944,1453.0,-2617.0,787.0,-9.0,-102.0,-348.0,148,55,65,86,67
2025-02-25 18:06:30.949,1686.0,-3306.0,1617.0,26.0,-56.0,-329.0,147,56,67,86,67
2025-02-25 18:06:30.953,1945.0,-3806.0,1507.0,59.0,-38.0,-253.0,147,55,67,86,68
2025-02-25 18:06:30.961,2354.0,-4129.0,1093.0,219.0,-135.0,-217.0,143,50,66,90,69
2025-02-25 18:06:30.965,2562.0,-4417.0,1351.0,178.0,22.0,-124.0,149,57,65,86,69
2025-02-25 18:06:30.970,2122.0,-4315.0,1253.0,179.0,171.0,-42.0,147,57,62,87,70
2025-02-25 18:06:30.974,2386.0,-4281.0,895.0,148.0,200.0,37.0,146,55,64,86,68
2025-02-25 18:06:30.982,1997.0,-4026.0,643.0,137.0,185.0,67.0,146,55,63,88,70
2025-02-25 18:06:30.986,1893.0,-3632.0,578.0,51.0,141.0,108.0,146,55,63,89,70
2025-02-25 18:06:30.989,1479.0,-3090.0,-3.0,41.0,139.0,143.0,144,56,65,88,69
2025-02-25 18:06:30.994,1229.0,-2528.0,-292.0,7.0,149.0,163.0,141,55,66,88,68
2025-02-25 18:06:31.002,941.0,-2315.0,-345.0,-65.0,154.0,175.0,143,58,66,90,67
2025-02-25 18:06:31.007,894.0,-1834.0,-557.0,-91.0,108.0,195.0,142,58,66,89,71
2025-02-25 18:06:31.011,317.0,-1813.0,-392.0,-127.0,33.0,205.0,140,57,67,88,69
2025-02-25 18:06:31.018,422.0,-1509.0,-616.0,-199.0,13.0,205.0,141,57,67,89,70
2025-02-25 18:06:31.024,362.0,-1494.0,-440.0,-222.0,-15.0,198.0,141,56,65,88,70
2025-02-25 18:06:31.029,307.0,-1484.0,-415.0,-240.0,-1.0,188.0,140,57,69,88,70
2025-02-25 18:06:31.033,297.0,-1470.0,-431.0,-216.0,-10.0,175.0,140,56,66,89,70
2025-02-25 18:06:31.039,89.0,-1569.0,-290.0,-186.0,-52.0,171.0,140,57,69,88,69
2025-02-25 18:06:31.044,35.0,-1642.0,-208.0,-140.0,-78.0,172.0,142,59,68,88,67
2025-02-25 18:06:31.048,177.0,-1596.0,-125.0,-115.0,-103.0,177.0,140,58,70,90,70
2025-02-25 18:06:31.055,159.0,-1556.0,-104.0,-109.0,-86.0,192.0,141,57,68,88,70
2025-02-25 18:06:31.060,145.0,-1425.0,-37.0,-109.0,-78.0,204.0,141,59,60,90,70
2025-02-25 18:06:31.064,117.0,-1349.0,36.0,-91.0,-75.0,214.0,140,55,67,91,71
2025-02-25 18:06:31.068,97.0,-1269.0,75.0,-99.0,-51.0,219.0,139,55,68,91,74
2025-02-25 18:06:31.076,26.0,-1056.0,120.0,-111.0,-24.0,229.0,141,55,70,95,72
2025-02-25 18:06:31.080,-25.0,-931.0,101.0,-126.0,-7.0,236.0,140,55,70,100,71
2025-02-25 18:06:31.085,-95.0,-761.0,89.0,-147.0,-4.0,238.0,139,57,71,95,72
2025-02-25 18:06:31.089,-126.0,-696.0,117.0,-157.0,-1.0,239.0,141,59,68,95,72
2025-02-25 18:06:31.096,-265.0,-607.0,116.0,-144.0,-45.0,234.0,141,57,72,95,70
2025-02-25 18:06:31.100,-306.0,-447.0,186.0,-136.0,-62.0,222.0,140,57,71,97,71
2025-02-25 18:06:31.104,-293.0,-409.0,87.0,-112.0,-55.0,217.0,139,59,70,96,71
2025-02-25 18:06:31.109,-400.0,-383.0,136.0,-81.0,-53.0,215.0,142,57,72,96,71
2025-02-25 18:06:31.116,-538.0,-353.0,129.0,-63.0,-55.0,210.0,140,58,72,96,72
2025-02-25 18:06:31.121,-564.0,-270.0,79.0,-47.0,-51.0,203.0,140,57,71,96,73
2025-02-25 18:06:31.125,-567.0,-308.0,93.0,-31.0,-47.0,197.0,138,57,69,97,71
2025-02-25 18:06:31.130,-605.0,-217.0,94.0,-32.0,-41.0,193.0,139,60,70,97,72
2025-02-25 18:06:31.137,-606.0,-63.0,97.0,-19.0,-30.0,182.0,138,57,69,97,72
2025-02-25 18:06:31.141,-636.0,-32.0,130.0,-13.0,-24.0,169.0,139,58,70,97,70
2025-02-25 18:06:31.145,-651.0,23.0,92.0,-12.0,-13.0,162.0,138,58,68,98,69
2025-02-25 18:06:31.149,-666.0,84.0,65.0,-3.0,-2.0,148.0,138,58,70,100,73
2025-02-25 18:06:31.154,-701.0,159.0,64.0,-6.0,4.0,134.0,137,58,71,96,69
2025-02-25 18:06:31.159,-711.0,118.0,39.0,-8.0,11.0,130.0,137,57,69,97,69
2025-02-25 18:06:31.166,-758.0,125.0,-55.0,-9.0,16.0,119.0,138,60,69,101,72
2025-02-25 18:06:31.170,-808.0,142.0,-39.0,-15.0,18.0,110.0,142,60,70,96,72
2025-02-25 18:06:31.174,-841.0,154.0,-73.0,-21.0,22.0,107.0,137,58,68,99,69
2025-02-25 18:06:31.178,-870.0,166.0,-92.0,-32.0,23.0,106.0,138,59,69,97,70
2025-02-25 18:06:31.186,-937.0,212.0,-127.0,-35.0,21.0,104.0,138,58,68,100,70
2025-02-25 18:06:31.190,-952.0,272.0,-163.0,-49.0,20.0,103.0,136,52,69,100,71
2025-02-25 18:06:31.194,-996.0,344.0,-237.0,-56.0,16.0,101.0,138,58,70,98,71
2025-02-25 18:06:31.199,-1000.0,395.0,-212.0,-60.0,12.0,94.0,138,61,71,101,66
2025-02-25 18:06:31.207,-1011.0,494.0,-246.0,-59.0,8.0,81.0,137,58,71,98,70
2025-02-25 18:06:31.211,-1055.0,588.0,-254.0,-60.0,0.0,75.0,136,62,64,98,71
2025-02-25 18:06:31.216,-1113.0,652.0,-256.0,-59.0,-8.0,58.0,136,58,68,101,71
2025-02-25 18:06:31.220,-1163.0,669.0,-239.0,-55.0,-13.0,37.0,135,53,73,102,71
2025-02-25 18:06:31.227,-1219.0,709.0,-169.0,-43.0,-18.0,25.0,134,59,70,102,72
2025-02-25 18:06:31.231,-1231.0,695.0,-116.0,-23.0,-20.0,2.0,134,59,71,101,70
2025-02-25 18:06:31.235,-1175.0,659.0,-139.0,-1.0,-20.0,-22.0,135,61,71,102,70
2025-02-25 18:06:31.240,-1097.0,655.0,-82.0,10.0,-15.0,-44.0,134,60,72,101,70
2025-02-25 18:06:31.247,-1068.0,673.0,-41.0,41.0,-12.0,-55.0,133,59,72,103,71
2025-02-25 18:06:31.251,-1055.0,674.0,25.0,68.0,-3.0,-76.0,135,58,69,105,73
2025-02-25 18:06:31.256,-1057.0,727.0,46.0,82.0,9.0,-97.0,134,60,69,105,77
2025-02-25 18:06:31.260,-1066.0,811.0,62.0,105.0,16.0,-119.0,134,60,72,103,71
2025-02-25 18:06:31.267,-1074.0,830.0,48.0,119.0,28.0,-127.0,135,60,70,101,71
2025-02-25 18:06:31.272,-1093.0,871.0,1.0,133.0,38.0,-149.0,134,59,70,103,71
2025-02-25 18:06:31.276,-1068.0,922.0,-21.0,141.0,48.0,-169.0,129,62,71,105,72
2025-02-25 18:06:31.280,-1035.0,962.0,-16.0,158.0,52.0,-195.0,129,59,70,102,70
2025-02-25 18:06:31.288,-972.0,945.0,-11.0,176.0,58.0,-210.0,129,58,68,103,70
2025-02-25 18:06:31.292,-860.0,926.0,-59.0,189.0,59.0,-250.0,128,57,68,103,71
2025-02-25 18:06:31.297,-794.0,922.0,-65.0,191.0,53.0,-293.0,129,62,71,102,70
2025-02-25 18:06:31.301,-759.0,885.0,-85.0,195.0,46.0,-343.0,125,59,68,101,69
2025-02-25 18:06:31.309,-635.0,835.0,-77.0,191.0,29.0,-370.0,125,60,69,101,70
2025-02-25 18:06:31.313,-519.0,779.0,-12.0,178.0,9.0,-425.0,124,60,66,100,69
2025-02-25 18:06:31.317,-286.0,659.0,75.0,168.0,-11.0,-473.0,123,60,67,98,70
2025-02-25 18:06:31.321,-146.0,497.0,103.0,144.0,-24.0,-517.0,121,60,65,98,68
2025-02-25 18:06:31.329,167.0,371.0,126.0,121.0,-47.0,-536.0,120,57,64,98,69
2025-02-25 18:06:31.334,442.0,-45.0,185.0,111.0,-70.0,-559.0,120,62,70,96,69
2025-02-25 18:06:31.338,584.0,-547.0,231.0,101.0,-81.0,-568.0,119,60,67,96,70
2025-02-25 18:06:31.342,944.0,-850.0,352.0,94.0,-103.0,-563.0,116,58,64,97,70
2025-02-25 18:06:31.350,1377.0,-1724.0,464.0,111.0,-107.0,-527.0,116,57,67,97,71
2025-02-25 18:06:31.354,1883.0,-2721.0,786.0,147.0,-86.0,-454.0,114,58,70,96,68
2025-02-25 18:06:31.359,2311.0,-3701.0,1095.0,174.0,-37.0,-350.0,115,58,67,94,68
2025-02-25 18:06:31.366,2441.0,-4409.0,1295.0,231.0,-6.0,-230.0,114,56,66,92,69
2025-02-25 18:06:31.370,2596.0,-4618.0,1447.0,282.0,63.0,-171.0,112,60,67,88,70
2025-02-25 18:06:31.375,2499.0,-5050.0,1898.0,340.0,142.0,-52.0,114,59,72,79,68
2025-02-25 18:06:31.379,2496.0,-4279.0,1008.0,349.0,195.0,15.0,112,53,69,78,67
2025-02-25 18:06:31.387,2480.0,-4209.0,1554.0,348.0,232.0,74.0,113,59,71,77,66
2025-02-25 18:06:31.391,2067.0,-3277.0,1158.0,278.0,244.0,114.0,111,56,69,80,65
2025-02-25 18:06:31.395,1559.0,-2908.0,811.0,174.0,238.0,130.0,109,55,62,79,65
2025-02-25 18:06:31.403,1315.0,-2360.0,769.0,52.0,212.0,145.0,110,58,67,82,65
2025-02-25 18:06:31.407,906.0,-1894.0,436.0,-11.0,160.0,144.0,109,57,65,83,63
2025-02-25 18:06:31.411,687.0,-1678.0,156.0,-126.0,132.0,143.0,110,56,61,82,64
2025-02-25 18:06:31.416,594.0,-1714.0,31.0,-199.0,88.0,141.0,107,55,63,84,63
2025-02-25 18:06:31.423,497.0,-1714.0,-66.0,-246.0,45.0,134.0,109,57,65,85,64
2025-02-25 18:06:31.428,338.0,-1931.0,-163.0,-264.0,9.0,143.0,109,57,65,86,63
2025-02-25 18:06:31.432,259.0,-2038.0,-228.0,-254.0,-7.0,144.0,108,58,65,84,62
2025-02-25 18:06:31.436,306.0,-2041.0,-202.0,-238.0,-30.0,142.0,108,58,68,85,65
2025-02-25 18:06:31.444,234.0,-2081.0,-129.0,-206.0,-40.0,150.0,109,55,66,87,65
2025-02-25 18:06:31.448,248.0,-1937.0,9.0,-177.0,-56.0,157.0,109,58,66,85,63
2025-02-25 18:06:31.452,237.0,-1862.0,0.0,-163.0,-53.0,170.0,108,57,65,84,63
2025-02-25 18:06:31.457,163.0,-1787.0,117.0,-150.0,-66.0,178.0,109,60,64,85,64
2025-02-25 18:06:31.464,216.0,-1660.0,156.0,-141.0,-66.0,193.0,110,59,65,85,64
2025-02-25 18:06:31.469,164.0,-1452.0,145.0,-135.0,-68.0,201.0,110,58,68,87,65
2025-02-25 18:06:31.473,84.0,-1281.0,212.0,-135.0,-66.0,206.0,109,59,67,84,64
2025-02-25 18:06:31.477,76.0,-1120.0,230.0,-139.0,-69.0,211.0,110,58,66,85,63
2025-02-25 18:06:31.485,2.0,-1129.0,264.0,-134.0,-65.0,209.0,110,60,67,87,66
2025-02-25 18:06:31.490,-71.0,-939.0,258.0,-134.0,-62.0,207.0,110,60,67,85,64
2025-02-25 18:06:31.493,-221.0,-869.0,272.0,-131.0,-61.0,200.0,111,59,64,85,64
2025-02-25 18:06:31.501,-230.0,-697.0,254.0,-125.0,-57.0,197.0,109,58,69,83,64
2025-02-25 18:06:31.506,-279.0,-624.0,245.0,-115.0,-54.0,186.0,111,57,67,85,65
2025-02-25 18:06:31.510,-383.0,-542.0,216.0,-111.0,-52.0,176.0,111,59,68,86,66
2025-02-25 18:06:31.514,-447.0,-451.0,194.0,-108.0,-50.0,168.0,112,58,70,86,64
2025-02-25 18:06:31.522,-458.0,-428.0,179.0,-101.0,-49.0,159.0,111,58,63,85,65
2025-02-25 18:06:31.526,-522.0,-423.0,153.0,-91.0,-45.0,155.0,111,59,67,86,65
2025-02-25 18:06:31.530,-524.0,-306.0,122.0,-84.0,-42.0,149.0,111,57,67,86,66
2025-02-25 18:06:31.535,-564.0,-374.0,160.0,-79.0,-37.0,142.0,112,59,68,87,66
2025-02-25 18:06:31.542,-569.0,-325.0,136.0,-70.0,-34.0,136.0,109,58,67,86,65
2025-02-25 18:06:31.547,-635.0,-353.0,109.0,-63.0,-29.0,132.0,112,59,67,88,65
2025-02-25 18:06:31.551,-633.0,-285.0,111.0,-57.0,-22.0,124.0,111,60,66,89,64
2025-02-25 18:06:31.555,-639.0,-214.0,86.0,-55.0,-14.0,116.0,114,61,67,89,66
2025-02-25 18:06:31.563,-619.0,-264.0,78.0,-53.0,-12.0,108.0,112,58,64,89,66
2025-02-25 18:06:31.567,-748.0,-187.0,41.0,-48.0,-6.0,104.0,113,59,64,89,67
2025-02-25 18:06:31.571,-731.0,-260.0,26.0,-45.0,-2.0,98.0,112,63,65,86,65
2025-02-25 18:06:31.575,-777.0,-201.0,-77.0,-46.0,-2.0,91.0,111,60,67,88,66
2025-02-25 18:06:31.579,-791.0,-233.0,-91.0,-38.0,4.0,88.0,112,60,65,90,66
2025-02-25 18:06:31.587,-830.0,-240.0,-94.0,-39.0,4.0,84.0,113,60,66,89,66
2025-02-25 18:06:31.592,-879.0,-204.0,-164.0,-35.0,5.0,83.0,112,59,64,88,66
2025-02-25 18:06:31.596,-936.0,-159.0,-176.0,-33.0,5.0,82.0,112,67,67,91,66
2025-02-25 18:06:31.601,-929.0,-82.0,-183.0,-31.0,6.0,79.0,112,60,68,89,68
2025-02-25 18:06:31.605,-957.0,40.0,-201.0,-31.0,6.0,75.0,112,58,66,89,65
2025-02-25 18:06:31.613,-996.0,110.0,-213.0,-34.0,5.0,72.0,113,60,66,95,65
2025-02-25 18:06:31.616,-1025.0,198.0,-222.0,-37.0,4.0,67.0,112,60,68,90,65
2025-02-25 18:06:31.621,-1022.0,272.0,-230.0,-38.0,3.0,59.0,112,61,67,89,65
2025-02-25 18:06:31.625,-1054.0,333.0,-226.0,-40.0,1.0,55.0,112,59,66,88,65
2025-02-25 18:06:31.629,-1061.0,360.0,-231.0,-40.0,0.0,49.0,113,61,64,91,66
2025-02-25 18:06:31.637,-1104.0,434.0,-231.0,-38.0,-1.0,40.0,113,61,65,91,66
2025-02-25 18:06:31.641,-1116.0,453.0,-197.0,-31.0,0.0,35.0,113,57,65,90,66
2025-02-25 18:06:31.645,-1111.0,500.0,-181.0,-20.0,1.0,23.0,113,61,65,89,65
2025-02-25 18:06:31.649,-1153.0,575.0,-156.0,-13.0,6.0,10.0,114,65,63,89,67
2025-02-25 18:06:31.654,-1178.0,625.0,-118.0,4.0,9.0,4.0,115,62,66,90,65
2025-02-25 18:06:31.661,-1174.0,707.0,-103.0,23.0,19.0,-10.0,113,54,67,90,64
2025-02-25 18:06:31.665,-1195.0,770.0,-75.0,34.0,30.0,-28.0,114,61,65,90,66
2025-02-25 18:06:31.670,-1201.0,868.0,-79.0,60.0,35.0,-40.0,114,61,64,89,65
