timestamp,ax,ay,az,gx,gy,gz,flex1,flex2,flex3,flex4,flex5,emg1,emg2,emg3
2025-02-26 14:55:03.098,-437.0,-853.0,5.0,3.0,-10.0,14.0,157,132,131,140,144
2025-02-26 14:55:03.112,-453.0,-931.0,-41.0,1.0,-4.0,-11.0,155,127,123,137,140
2025-02-26 14:55:03.114,-453.0,-927.0,-34.0,1.0,-4.0,-11.0,156,128,126,139,142
2025-02-26 14:55:03.117,-440.0,-919.0,-33.0,0.0,-4.0,-10.0,157,131,126,141,142
2025-02-26 14:55:03.119,-431.0,-919.0,-17.0,-3.0,-4.0,-8.0,156,126,124,138,139
2025-02-26 14:55:03.120,-430.0,-916.0,-32.0,-6.0,-3.0,-7.0,155,129,126,140,142
2025-02-26 14:55:03.120,-429.0,-926.0,-40.0,-6.0,-2.0,-6.0,156,127,123,138,141
2025-02-26 14:55:03.126,-425.0,-930.0,-32.0,-8.0,-2.0,-6.0,154,126,122,137,138
2025-02-26 14:55:03.126,-420.0,-934.0,-21.0,-9.0,-2.0,-6.0,157,130,126,139,140
2025-02-26 14:55:03.126,-420.0,-936.0,-17.0,-9.0,-1.0,-6.0,156,126,125,138,140
2025-02-26 14:55:03.133,-427.0,-945.0,-25.0,-10.0,-1.0,-6.0,154,124,122,138,138
2025-02-26 14:55:03.136,-432.0,-943.0,-24.0,-10.0,0.0,-6.0,157,130,125,138,140
2025-02-26 14:55:03.139,-429.0,-941.0,-38.0,-9.0,0.0,-6.0,156,127,125,139,139
2025-02-26 14:55:03.140,-434.0,-949.0,-24.0,-9.0,0.0,-6.0,154,125,122,135,139
2025-02-26 14:55:03.140,-443.0,-917.0,-6.0,-8.0,-1.0,-6.0,158,127,124,138,139
2025-02-26 14:55:03.140,-441.0,-955.0,-42.0,-8.0,-1.0,-6.0,155,129,124,138,137
2025-02-26 14:55:03.148,-435.0,-936.0,-32.0,-8.0,-1.0,-6.0,155,128,123,137,138
2025-02-26 14:55:03.150,-436.0,-939.0,-46.0,-7.0,-1.0,-6.0,156,128,125,140,141
2025-02-26 14:55:03.151,-433.0,-947.0,-37.0,-7.0,-2.0,-6.0,156,127,124,138,139
2025-02-26 14:55:03.151,-431.0,-944.0,-48.0,-6.0,-2.0,-5.0,156,126,123,137,138
2025-02-26 14:55:03.151,-430.0,-934.0,-45.0,-5.0,-4.0,-4.0,156,127,125,137,139
2025-02-26 14:55:03.151,-433.0,-939.0,-51.0,-6.0,-5.0,-3.0,155,129,125,139,138
2025-02-26 14:55:03.151,-430.0,-935.0,-22.0,-6.0,-5.0,-1.0,154,126,123,137,137
2025-02-26 14:55:03.163,-430.0,-936.0,-33.0,-8.0,-5.0,-1.0,155,128,123,138,137
2025-02-26 14:55:03.163,-429.0,-927.0,-24.0,-8.0,-6.0,1.0,157,129,126,141,140
2025-02-26 14:55:03.163,-431.0,-921.0,-28.0,-10.0,-6.0,2.0,157,127,124,140,139
2025-02-26 14:55:03.163,-433.0,-913.0,-43.0,-11.0,-6.0,3.0,155,127,123,137,137
2025-02-26 14:55:03.163,-435.0,-905.0,-28.0,-13.0,-6.0,3.0,158,129,127,139,139
2025-02-26 14:55:03.163,-432.0,-904.0,-16.0,-14.0,-6.0,3.0,157,128,125,139,140
2025-02-26 14:55:03.163,-438.0,-906.0,-21.0,-14.0,-5.0,4.0,157,128,125,140,139
2025-02-26 14:55:03.179,-443.0,-898.0,-31.0,-13.0,-5.0,3.0,154,127,125,137,139
2025-02-26 14:55:03.183,-443.0,-894.0,-43.0,-11.0,-5.0,3.0,156,127,124,140,139
2025-02-26 14:55:03.185,-460.0,-898.0,-35.0,-11.0,-6.0,3.0,157,130,125,138,139
2025-02-26 14:55:03.187,-461.0,-881.0,-33.0,-10.0,-6.0,2.0,156,128,125,139,139
2025-02-26 14:55:03.187,-450.0,-899.0,-35.0,-10.0,-6.0,1.0,156,128,124,138,138
2025-02-26 14:55:03.198,-464.0,-887.0,-59.0,-9.0,-8.0,0.0,156,128,124,138,137
2025-02-26 14:55:03.199,-489.0,-875.0,3.0,-11.0,-7.0,1.0,154,126,124,137,138
2025-02-26 14:55:03.205,-468.0,-877.0,-42.0,-8.0,-8.0,0.0,156,128,125,138,140
2025-02-26 14:55:03.210,-479.0,-876.0,-4.0,-10.0,-9.0,-1.0,156,128,125,138,138
2025-02-26 14:55:03.217,-476.0,-880.0,-4.0,-8.0,-9.0,-2.0,156,127,122,138,137
2025-02-26 14:55:03.223,-464.0,-874.0,-38.0,-6.0,-6.0,-2.0,157,129,126,139,139
2025-02-26 14:55:03.227,-456.0,-871.0,-63.0,-1.0,-7.0,-2.0,157,127,124,137,140
2025-02-26 14:55:03.230,-454.0,-888.0,-48.0,-1.0,-8.0,-2.0,155,127,125,137,137
2025-02-26 14:55:03.239,-454.0,-889.0,-5.0,-3.0,-8.0,-2.0,155,124,124,136,141
2025-02-26 14:55:03.242,-450.0,-901.0,3.0,-4.0,-8.0,-2.0,155,125,123,137,136
2025-02-26 14:55:03.248,-449.0,-895.0,-12.0,-8.0,-8.0,-2.0,156,131,124,138,138
2025-02-26 14:55:03.254,-440.0,-898.0,-20.0,-9.0,-6.0,-1.0,157,127,125,138,138
2025-02-26 14:55:03.260,-436.0,-908.0,4.0,-9.0,-6.0,-1.0,155,129,124,136,136
2025-02-26 14:55:03.264,-438.0,-912.0,0.0,-10.0,-4.0,-1.0,158,129,126,139,139
2025-02-26 14:55:03.268,-440.0,-911.0,-6.0,-11.0,-2.0,0.0,156,129,125,138,140
2025-02-26 14:55:03.272,-448.0,-924.0,-19.0,-12.0,-2.0,0.0,157,130,126,138,139
2025-02-26 14:55:03.280,-446.0,-917.0,-26.0,-12.0,-2.0,1.0,157,128,125,137,139
2025-02-26 14:55:03.284,-456.0,-917.0,-25.0,-11.0,-3.0,0.0,156,128,125,137,138
2025-02-26 14:55:03.284,-460.0,-921.0,-26.0,-11.0,-3.0,1.0,157,129,125,139,139
2025-02-26 14:55:03.296,-462.0,-915.0,-30.0,-10.0,-3.0,1.0,158,130,126,141,141
2025-02-26 14:55:03.300,-460.0,-911.0,-40.0,-9.0,-3.0,1.0,156,126,124,138,137
2025-02-26 14:55:03.305,-464.0,-913.0,-40.0,-9.0,-3.0,0.0,155,127,122,138,137
2025-02-26 14:55:03.308,-462.0,-898.0,-37.0,-9.0,-4.0,0.0,156,129,125,138,139
2025-02-26 14:55:03.317,-461.0,-904.0,-35.0,-9.0,-4.0,0.0,156,131,127,141,140
2025-02-26 14:55:03.321,-467.0,-908.0,-44.0,-8.0,-4.0,-1.0,155,126,124,136,137
2025-02-26 14:55:03.326,-463.0,-896.0,-46.0,-8.0,-5.0,-1.0,155,125,124,137,137
2025-02-26 14:55:03.327,-464.0,-896.0,-31.0,-9.0,-4.0,-2.0,156,130,126,138,139
2025-02-26 14:55:03.337,-461.0,-886.0,-43.0,-9.0,-6.0,-2.0,157,130,127,142,138
2025-02-26 14:55:03.342,-463.0,-892.0,-45.0,-8.0,-6.0,-2.0,154,130,126,139,139
2025-02-26 14:55:03.349,-465.0,-898.0,-55.0,-8.0,-6.0,-1.0,153,126,123,137,137
2025-02-26 14:55:03.350,-457.0,-898.0,-42.0,-9.0,-6.0,0.0,158,130,126,138,139
2025-02-26 14:55:03.350,-445.0,-905.0,-40.0,-8.0,-7.0,0.0,157,130,127,139,142
2025-02-26 14:55:03.362,-443.0,-905.0,-36.0,-10.0,-8.0,1.0,155,128,124,138,138
2025-02-26 14:55:03.370,-436.0,-910.0,-21.0,-11.0,-8.0,2.0,155,128,122,137,138
2025-02-26 14:55:03.370,-434.0,-910.0,-26.0,-12.0,-7.0,2.0,156,131,124,140,140
2025-02-26 14:55:03.378,-426.0,-895.0,-21.0,-11.0,-7.0,3.0,156,133,133,140,141
2025-02-26 14:55:03.382,-432.0,-899.0,-8.0,-11.0,-5.0,3.0,155,130,127,138,140
2025-02-26 14:55:03.388,-432.0,-896.0,-17.0,-11.0,-4.0,3.0,155,130,122,137,137
2025-02-26 14:55:03.394,-435.0,-896.0,-19.0,-13.0,-4.0,3.0,157,130,124,139,141
2025-02-26 14:55:03.399,-437.0,-896.0,-29.0,-14.0,-3.0,2.0,157,131,127,139,141
2025-02-26 14:55:03.407,-441.0,-886.0,-37.0,-14.0,-4.0,1.0,158,130,129,142,143
2025-02-26 14:55:03.411,-441.0,-891.0,-48.0,-15.0,-4.0,-1.0,154,129,123,137,138
2025-02-26 14:55:03.415,-441.0,-893.0,-69.0,-16.0,-5.0,-1.0,157,132,126,141,140
2025-02-26 14:55:03.419,-440.0,-903.0,-40.0,-14.0,-5.0,-2.0,157,132,127,138,140
2025-02-26 14:55:03.425,-453.0,-893.0,-45.0,-15.0,-6.0,-4.0,157,134,126,138,139
2025-02-26 14:55:03.431,-443.0,-886.0,-46.0,-15.0,-7.0,-4.0,156,132,126,139,138
2025-02-26 14:55:03.435,-427.0,-886.0,-55.0,-15.0,-8.0,-4.0,157,131,124,138,140
2025-02-26 14:55:03.443,-432.0,-886.0,-66.0,-15.0,-9.0,-5.0,155,130,125,136,138
2025-02-26 14:55:03.447,-430.0,-894.0,-56.0,-17.0,-9.0,-5.0,157,133,127,139,139
2025-02-26 14:55:03.452,-431.0,-896.0,-53.0,-17.0,-10.0,-5.0,157,131,125,139,140
2025-02-26 14:55:03.460,-424.0,-895.0,-48.0,-17.0,-10.0,-6.0,157,134,126,139,140
2025-02-26 14:55:03.464,-417.0,-886.0,-54.0,-18.0,-10.0,-6.0,155,131,127,137,138
2025-02-26 14:55:03.469,-415.0,-895.0,-54.0,-18.0,-10.0,-7.0,153,130,126,136,138
2025-02-26 14:55:03.473,-430.0,-887.0,-63.0,-17.0,-11.0,-7.0,157,131,126,141,141
2025-02-26 14:55:03.479,-420.0,-898.0,-59.0,-16.0,-11.0,-7.0,157,134,129,140,140
2025-02-26 14:55:03.485,-421.0,-899.0,-61.0,-15.0,-9.0,-6.0,157,132,126,139,139
2025-02-26 14:55:03.489,-419.0,-907.0,-73.0,-13.0,-9.0,-5.0,154,132,126,137,138
2025-02-26 14:55:03.497,-423.0,-918.0,-62.0,-10.0,-7.0,-3.0,159,134,127,140,140
2025-02-26 14:55:03.501,-432.0,-924.0,-50.0,-9.0,-6.0,-2.0,158,134,128,140,141
2025-02-26 14:55:03.506,-439.0,-921.0,-46.0,-6.0,-5.0,-1.0,156,132,127,140,140
2025-02-26 14:55:03.513,-443.0,-914.0,-47.0,-5.0,-4.0,0.0,156,132,127,139,140
2025-02-26 14:55:03.515,-438.0,-907.0,-48.0,-2.0,-3.0,1.0,156,131,126,139,139
2025-02-26 14:55:03.522,-437.0,-901.0,-63.0,0.0,-1.0,1.0,158,133,129,141,142
2025-02-26 14:55:03.526,-442.0,-891.0,-65.0,3.0,-1.0,1.0,156,133,128,139,140
2025-02-26 14:55:03.530,-439.0,-889.0,-51.0,4.0,-2.0,1.0,154,132,127,137,141
2025-02-26 14:55:03.533,-442.0,-891.0,-56.0,6.0,-2.0,1.0,155,133,127,139,141
2025-02-26 14:55:03.540,-439.0,-884.0,-58.0,7.0,-3.0,0.0,159,135,127,139,141
2025-02-26 14:55:03.546,-423.0,-880.0,-59.0,7.0,-2.0,0.0,157,133,126,138,140
2025-02-26 14:55:03.551,-423.0,-876.0,-46.0,9.0,-2.0,0.0,153,131,126,138,139
2025-02-26 14:55:03.558,-426.0,-871.0,-39.0,10.0,-2.0,0.0,158,135,130,142,142
2025-02-26 14:55:03.563,-425.0,-872.0,-41.0,10.0,-2.0,-1.0,157,136,129,140,141
2025-02-26 14:55:03.567,-431.0,-867.0,-34.0,10.0,-2.0,0.0,156,132,128,140,141
2025-02-26 14:55:03.571,-433.0,-875.0,-31.0,9.0,-2.0,0.0,154,131,125,137,138
2025-02-26 14:55:03.578,-436.0,-871.0,-38.0,8.0,-2.0,0.0,157,136,129,140,143
2025-02-26 14:55:03.582,-434.0,-866.0,-44.0,8.0,-1.0,0.0,158,135,128,140,141
2025-02-26 14:55:03.588,-445.0,-864.0,-42.0,8.0,-1.0,0.0,154,132,125,137,140
2025-02-26 14:55:03.592,-446.0,-862.0,-38.0,8.0,0.0,1.0,154,132,126,138,140
2025-02-26 14:55:03.599,-451.0,-862.0,-34.0,7.0,0.0,1.0,156,135,129,141,143
2025-02-26 14:55:03.604,-453.0,-858.0,-38.0,7.0,0.0,0.0,156,133,127,138,140
2025-02-26 14:55:03.608,-458.0,-863.0,-44.0,6.0,0.0,0.0,155,131,125,136,139
2025-02-26 14:55:03.612,-463.0,-860.0,-57.0,5.0,-1.0,-1.0,156,133,129,140,142
2025-02-26 14:55:03.619,-456.0,-864.0,-55.0,5.0,-1.0,-1.0,155,132,125,138,144
2025-02-26 14:55:03.624,-461.0,-869.0,-55.0,6.0,-2.0,-2.0,156,132,126,138,140
2025-02-26 14:55:03.628,-465.0,-874.0,-39.0,5.0,-3.0,-2.0,157,134,132,139,141
2025-02-26 14:55:03.632,-463.0,-882.0,-42.0,5.0,-4.0,-2.0,157,135,131,139,142
2025-02-26 14:55:03.640,-447.0,-879.0,-32.0,4.0,-3.0,-3.0,157,135,130,140,142
2025-02-26 14:55:03.644,-446.0,-889.0,-26.0,4.0,-3.0,-3.0,155,135,127,138,140
2025-02-26 14:55:03.648,-438.0,-896.0,-16.0,5.0,-2.0,-3.0,156,135,129,141,143
2025-02-26 14:55:03.653,-442.0,-897.0,-14.0,4.0,-1.0,-3.0,152,135,128,138,142
2025-02-26 14:55:03.661,-438.0,-893.0,-14.0,5.0,1.0,-3.0,158,133,125,142,142
2025-02-26 14:55:03.665,-426.0,-900.0,-4.0,7.0,2.0,-2.0,157,133,127,137,141
2025-02-26 14:55:03.668,-422.0,-881.0,-31.0,8.0,2.0,-2.0,158,133,126,140,143
2025-02-26 14:55:03.674,-433.0,-878.0,-26.0,9.0,2.0,-1.0,156,135,127,140,141
2025-02-26 14:55:03.677,-427.0,-880.0,-17.0,11.0,3.0,-1.0,157,131,125,138,139
2025-02-26 14:55:03.685,-439.0,-883.0,-43.0,12.0,2.0,-1.0,156,133,128,140,142
2025-02-26 14:55:03.690,-445.0,-886.0,-35.0,11.0,2.0,-1.0,156,135,128,139,142
2025-02-26 14:55:03.694,-462.0,-900.0,-33.0,12.0,3.0,-1.0,155,132,127,140,143
2025-02-26 14:55:03.699,-467.0,-899.0,-55.0,15.0,3.0,-1.0,154,132,126,139,142
2025-02-26 14:55:03.705,-473.0,-899.0,-75.0,13.0,3.0,-1.0,155,134,129,140,143
2025-02-26 14:55:03.710,-486.0,-916.0,-46.0,15.0,4.0,0.0,157,133,129,140,142
2025-02-26 14:55:03.714,-492.0,-918.0,-52.0,16.0,4.0,0.0,158,133,128,139,143
2025-02-26 14:55:03.718,-503.0,-925.0,-39.0,11.0,1.0,-1.0,153,132,128,138,141
2025-02-26 14:55:03.726,-505.0,-912.0,-52.0,13.0,1.0,-1.0,157,132,127,141,143
2025-02-26 14:55:03.729,-509.0,-909.0,-60.0,12.0,0.0,-2.0,156,133,128,139,142
2025-02-26 14:55:03.735,-496.0,-910.0,-52.0,9.0,1.0,-2.0,158,136,129,140,143
2025-02-26 14:55:03.739,-505.0,-907.0,-56.0,11.0,0.0,-2.0,156,133,126,138,141
2025-02-26 14:55:03.747,-500.0,-919.0,-43.0,9.0,1.0,-2.0,158,133,130,140,142
2025-02-26 14:55:03.750,-501.0,-908.0,-58.0,8.0,0.0,-3.0,155,132,128,141,142
2025-02-26 14:55:03.754,-502.0,-912.0,-33.0,6.0,0.0,-3.0,156,134,130,140,138
2025-02-26 14:55:03.760,-500.0,-917.0,-37.0,5.0,0.0,-3.0,158,133,128,139,141
2025-02-26 14:55:03.766,-480.0,-912.0,-25.0,6.0,3.0,-3.0,157,133,127,140,142
2025-02-26 14:55:03.771,-486.0,-911.0,-40.0,6.0,4.0,-3.0,154,131,125,137,141
2025-02-26 14:55:03.776,-478.0,-911.0,-42.0,6.0,5.0,-4.0,156,134,129,140,138
2025-02-26 14:55:03.779,-477.0,-908.0,-34.0,6.0,8.0,-3.0,157,133,127,141,143
2025-02-26 14:55:03.787,-478.0,-916.0,-32.0,6.0,9.0,-4.0,156,132,126,140,141
2025-02-26 14:55:03.789,-474.0,-905.0,-46.0,5.0,9.0,-4.0,154,131,125,138,140
2025-02-26 14:55:03.796,-469.0,-906.0,-50.0,6.0,10.0,-4.0,159,135,127,143,144
2025-02-26 14:55:03.800,-468.0,-906.0,-49.0,6.0,10.0,-5.0,157,133,127,141,143
2025-02-26 14:55:03.808,-459.0,-905.0,-63.0,5.0,10.0,-4.0,155,130,126,138,140
2025-02-26 14:55:03.812,-457.0,-897.0,-66.0,5.0,9.0,-4.0,155,131,123,137,139
2025-02-26 14:55:03.816,-450.0,-908.0,-54.0,4.0,8.0,-4.0,157,134,128,141,144
2025-02-26 14:55:03.820,-455.0,-911.0,-69.0,2.0,7.0,-4.0,157,133,127,141,142
2025-02-26 14:55:03.826,-452.0,-920.0,-61.0,1.0,6.0,-4.0,157,131,124,137,140
2025-02-26 14:55:03.832,-445.0,-926.0,-51.0,-1.0,5.0,-4.0,158,132,126,139,142
2025-02-26 14:55:03.837,-446.0,-927.0,-50.0,-2.0,4.0,-4.0,158,134,129,141,143
2025-02-26 14:55:03.841,-428.0,-925.0,-43.0,-2.0,4.0,-5.0,156,131,125,141,141
2025-02-26 14:55:03.849,-427.0,-915.0,-50.0,-3.0,4.0,-5.0,155,131,125,137,140
2025-02-26 14:55:03.853,-425.0,-921.0,-43.0,-3.0,3.0,-5.0,154,134,128,141,143
2025-02-26 14:55:03.856,-421.0,-921.0,-50.0,-3.0,2.0,-4.0,158,132,129,141,147
2025-02-26 14:55:03.861,-401.0,-921.0,-37.0,-4.0,4.0,-4.0,155,131,127,136,141
2025-02-26 14:55:03.870,-405.0,-911.0,-54.0,-3.0,2.0,-4.0,156,131,119,136,141
2025-02-26 14:55:03.873,-414.0,-925.0,-37.0,-2.0,2.0,-4.0,157,133,127,140,142
2025-02-26 14:55:03.878,-403.0,-925.0,-45.0,-2.0,3.0,-4.0,156,133,128,140,141
2025-02-26 14:55:03.882,-407.0,-924.0,-55.0,-2.0,2.0,-4.0,156,134,126,138,142
2025-02-26 14:55:03.890,-394.0,-918.0,-53.0,-1.0,2.0,-4.0,153,130,125,136,139
2025-02-26 14:55:03.894,-399.0,-921.0,-43.0,-1.0,2.0,-4.0,158,133,128,136,142
2025-02-26 14:55:03.898,-385.0,-924.0,-46.0,-1.0,1.0,-4.0,156,131,130,140,142
2025-02-26 14:55:03.902,-388.0,-924.0,-36.0,-1.0,1.0,-4.0,155,130,126,137,141
2025-02-26 14:55:03.911,-397.0,-917.0,-38.0,-1.0,2.0,-3.0,155,129,125,138,140
2025-02-26 14:55:03.915,-390.0,-917.0,-51.0,-3.0,3.0,-3.0,156,133,127,140,142
2025-02-26 14:55:03.920,-390.0,-923.0,-63.0,-1.0,3.0,-2.0,158,132,127,139,143
2025-02-26 14:55:03.923,-390.0,-934.0,-33.0,-1.0,3.0,-1.0,153,130,126,137,140
2025-02-26 14:55:03.931,-409.0,-901.0,-55.0,0.0,3.0,0.0,159,133,128,141,143
2025-02-26 14:55:03.936,-407.0,-916.0,-42.0,3.0,3.0,1.0,158,134,128,140,143
2025-02-26 14:55:03.939,-395.0,-920.0,-52.0,1.0,3.0,1.0,157,132,127,139,142
2025-02-26 14:55:03.944,-405.0,-933.0,-50.0,2.0,3.0,1.0,157,133,129,140,142
2025-02-26 14:55:03.949,-418.0,-931.0,-39.0,2.0,3.0,2.0,158,135,128,141,144
2025-02-26 14:55:03.956,-415.0,-902.0,-50.0,2.0,1.0,2.0,158,131,127,140,142
2025-02-26 14:55:03.960,-426.0,-911.0,-49.0,4.0,1.0,2.0,158,132,126,140,143
2025-02-26 14:55:03.964,-434.0,-894.0,-55.0,4.0,1.0,3.0,161,136,131,144,144
2025-02-26 14:55:03.969,-442.0,-892.0,-63.0,3.0,-1.0,2.0,158,135,129,140,142
2025-02-26 14:55:03.975,-442.0,-895.0,-41.0,2.0,1.0,3.0,159,134,129,141,143
2025-02-26 14:55:03.978,-460.0,-877.0,-60.0,6.0,-1.0,3.0,161,136,131,142,146
2025-02-26 14:55:03.984,-446.0,-884.0,-54.0,7.0,-4.0,2.0,161,134,129,141,144
2025-02-26 14:55:03.989,-448.0,-880.0,-51.0,8.0,-3.0,2.0,158,132,128,139,142
2025-02-26 14:55:03.993,-448.0,-888.0,-47.0,7.0,-4.0,2.0,159,138,133,147,144
2025-02-26 14:55:04.001,-447.0,-874.0,-41.0,9.0,-4.0,1.0,159,135,131,142,146
2025-02-26 14:55:04.005,-439.0,-872.0,-45.0,10.0,-4.0,1.0,157,132,128,143,143
2025-02-26 14:55:04.008,-443.0,-878.0,-23.0,11.0,-5.0,0.0,157,132,128,139,142
2025-02-26 14:55:04.013,-450.0,-887.0,-26.0,10.0,-5.0,-1.0,162,137,133,145,145
2025-02-26 14:55:04.021,-444.0,-876.0,-43.0,8.0,-5.0,-2.0,162,137,132,143,146
2025-02-26 14:55:04.025,-452.0,-886.0,-28.0,10.0,-5.0,-2.0,159,134,130,142,144
2025-02-26 14:55:04.030,-458.0,-886.0,-24.0,10.0,-5.0,-3.0,158,135,129,142,145
2025-02-26 14:55:04.038,-447.0,-898.0,-18.0,10.0,-3.0,-3.0,163,138,134,145,148
2025-02-26 14:55:04.042,-452.0,-887.0,-18.0,12.0,-2.0,-3.0,162,137,132,146,147
2025-02-26 14:55:04.046,-443.0,-899.0,-16.0,12.0,0.0,-3.0,160,135,130,143,145
2025-02-26 14:55:04.050,-451.0,-901.0,-20.0,13.0,0.0,-3.0,159,134,128,141,144
2025-02-26 14:55:04.058,-454.0,-890.0,-12.0,13.0,0.0,-3.0,162,133,131,147,148
2025-02-26 14:55:04.062,-452.0,-902.0,-16.0,11.0,-1.0,-3.0,161,136,132,144,148
2025-02-26 14:55:04.067,-447.0,-908.0,-21.0,12.0,-4.0,-2.0,160,135,130,141,145
2025-02-26 14:55:04.071,-446.0,-903.0,-18.0,8.0,-4.0,-1.0,158,135,129,141,144
2025-02-26 14:55:04.079,-436.0,-898.0,-26.0,7.0,-8.0,0.0,162,139,133,144,148
2025-02-26 14:55:04.083,-444.0,-895.0,-19.0,6.0,-11.0,1.0,163,136,131,144,148
2025-02-26 14:55:04.087,-446.0,-909.0,1.0,6.0,-10.0,3.0,160,132,129,143,144
2025-02-26 14:55:04.091,-440.0,-917.0,-13.0,6.0,-11.0,4.0,160,134,127,141,142
2025-02-26 14:55:04.099,-435.0,-924.0,-13.0,8.0,-11.0,4.0,162,138,131,146,149
2025-02-26 14:55:04.103,-442.0,-934.0,12.0,10.0,-8.0,5.0,162,138,128,144,146
2025-02-26 14:55:04.108,-446.0,-927.0,-9.0,10.0,-8.0,5.0,160,135,122,142,146
2025-02-26 14:55:04.111,-452.0,-929.0,6.0,10.0,-7.0,4.0,162,138,132,143,147
2025-02-26 14:55:04.119,-457.0,-925.0,20.0,9.0,-6.0,3.0,163,135,133,145,148
2025-02-26 14:55:04.123,-453.0,-924.0,8.0,7.0,-4.0,2.0,160,133,129,142,145
2025-02-26 14:55:04.128,-455.0,-908.0,9.0,9.0,-5.0,1.0,162,137,132,145,148
2025-02-26 14:55:04.132,-452.0,-923.0,5.0,9.0,-4.0,0.0,162,135,131,145,147
2025-02-26 14:55:04.137,-445.0,-955.0,13.0,10.0,-3.0,1.0,160,133,131,141,144
2025-02-26 14:55:04.141,-454.0,-909.0,-31.0,11.0,-2.0,1.0,163,135,129,143,147
2025-02-26 14:55:04.149,-414.0,-926.0,9.0,13.0,-2.0,2.0,160,135,130,141,146
2025-02-26 14:55:04.153,-450.0,-945.0,-13.0,13.0,0.0,3.0,158,132,128,141,144
2025-02-26 14:55:04.157,-464.0,-950.0,-9.0,13.0,0.0,3.0,159,134,130,142,145
2025-02-26 14:55:04.161,-453.0,-951.0,6.0,12.0,-1.0,4.0,161,134,131,143,148
2025-02-26 14:55:04.169,-452.0,-963.0,41.0,12.0,0.0,5.0,160,136,131,141,144
2025-02-26 14:55:04.173,-466.0,-957.0,21.0,9.0,0.0,5.0,159,130,128,141,144
2025-02-26 14:55:04.177,-450.0,-945.0,-4.0,9.0,-2.0,4.0,160,136,132,143,147
2025-02-26 14:55:04.182,-451.0,-952.0,-7.0,9.0,-4.0,4.0,162,135,130,143,147
2025-02-26 14:55:04.189,-459.0,-949.0,26.0,5.0,-4.0,4.0,158,131,127,139,145
2025-02-26 14:55:04.193,-460.0,-945.0,22.0,2.0,-4.0,5.0,160,133,129,142,145
2025-02-26 14:55:04.197,-474.0,-959.0,32.0,4.0,-1.0,6.0,161,133,129,143,146
2025-02-26 14:55:04.202,-471.0,-942.0,22.0,5.0,0.0,6.0,158,131,127,140,144
2025-02-26 14:55:04.206,-468.0,-942.0,27.0,4.0,2.0,7.0,160,134,131,141,146
2025-02-26 14:55:04.214,-464.0,-948.0,23.0,5.0,3.0,7.0,160,133,129,141,144
2025-02-26 14:55:04.218,-459.0,-943.0,8.0,5.0,2.0,7.0,158,131,128,139,143
2025-02-26 14:55:04.220,-471.0,-959.0,7.0,3.0,1.0,7.0,162,134,130,142,146
2025-02-26 14:55:04.226,-473.0,-943.0,49.0,4.0,2.0,7.0,161,131,127,140,145
2025-02-26 14:55:04.231,-476.0,-933.0,75.0,3.0,3.0,6.0,155,130,127,137,143
2025-02-26 14:55:04.235,-473.0,-926.0,72.0,3.0,5.0,6.0,161,136,131,142,147
2025-02-26 14:55:04.242,-463.0,-910.0,61.0,2.0,7.0,5.0,158,134,130,141,145
2025-02-26 14:55:04.245,-455.0,-914.0,49.0,2.0,7.0,4.0,159,132,128,140,143
2025-02-26 14:55:04.251,-468.0,-917.0,53.0,-1.0,10.0,4.0,161,133,127,141,145
2025-02-26 14:55:04.255,-470.0,-919.0,36.0,-2.0,10.0,3.0,162,134,128,142,147
2025-02-26 14:55:04.263,-455.0,-905.0,56.0,-5.0,11.0,2.0,159,131,127,139,144
2025-02-26 14:55:04.267,-454.0,-900.0,36.0,-7.0,11.0,2.0,159,134,127,141,145
2025-02-26 14:55:04.271,-439.0,-911.0,62.0,-9.0,12.0,2.0,157,131,128,139,144
2025-02-26 14:55:04.275,-450.0,-899.0,15.0,-10.0,14.0,1.0,159,131,128,139,145
2025-02-26 14:55:04.280,-446.0,-902.0,2.0,-9.0,11.0,1.0,162,134,130,141,145
2025-02-26 14:55:04.288,-451.0,-896.0,31.0,-10.0,12.0,0.0,160,132,129,140,146
2025-02-26 14:55:04.292,-459.0,-904.0,-25.0,-10.0,10.0,0.0,157,131,126,138,144
2025-02-26 14:55:04.297,-451.0,-908.0,3.0,-12.0,10.0,1.0,159,131,127,139,144
2025-02-26 14:55:04.304,-451.0,-922.0,-12.0,-8.0,10.0,1.0,160,133,130,141,146
2025-02-26 14:55:04.304,-459.0,-930.0,6.0,-9.0,9.0,1.0,158,132,130,142,145
2025-02-26 14:55:04.304,-462.0,-930.0,-4.0,-10.0,10.0,2.0,156,130,126,136,143
2025-02-26 14:55:04.304,-463.0,-936.0,-15.0,-11.0,8.0,2.0,159,133,129,140,145
2025-02-26 14:55:04.319,-464.0,-924.0,10.0,-11.0,9.0,2.0,158,133,128,141,147
2025-02-26 14:55:04.319,-463.0,-920.0,-16.0,-10.0,8.0,2.0,159,131,128,140,144
2025-02-26 14:55:04.319,-454.0,-922.0,-13.0,-11.0,7.0,1.0,157,129,126,136,143
2025-02-26 14:55:04.335,-455.0,-917.0,-15.0,-13.0,8.0,1.0,161,135,129,143,146
2025-02-26 14:55:04.341,-459.0,-917.0,-18.0,-13.0,6.0,0.0,159,133,130,141,147
2025-02-26 14:55:04.349,-454.0,-907.0,-3.0,-16.0,6.0,-1.0,157,123,128,139,143
2025-02-26 14:55:04.353,-458.0,-900.0,-6.0,-17.0,7.0,-2.0,158,131,126,136,144
2025-02-26 14:55:04.358,-449.0,-889.0,-29.0,-19.0,7.0,-3.0,160,136,130,142,146
2025-02-26 14:55:04.365,-439.0,-888.0,-33.0,-18.0,7.0,-3.0,161,134,130,140,144
2025-02-26 14:55:04.369,-444.0,-891.0,-33.0,-18.0,7.0,-4.0,157,130,127,135,143
2025-02-26 14:55:04.371,-436.0,-877.0,-48.0,-20.0,6.0,-4.0,158,131,125,138,143
2025-02-26 14:55:04.378,-433.0,-879.0,-53.0,-20.0,5.0,-4.0,161,133,130,140,145
2025-02-26 14:55:04.386,-444.0,-911.0,-39.0,-22.0,3.0,-4.0,160,136,127,140,145
2025-02-26 14:55:04.390,-435.0,-908.0,-46.0,-24.0,2.0,-3.0,157,132,128,140,145
2025-02-26 14:55:04.395,-422.0,-927.0,-44.0,-25.0,1.0,-3.0,159,133,125,141,144
2025-02-26 14:55:04.399,-435.0,-923.0,-38.0,-25.0,1.0,-1.0,157,131,125,139,143
2025-02-26 14:55:04.406,-420.0,-928.0,-19.0,-24.0,2.0,1.0,157,133,129,140,145
2025-02-26 14:55:04.408,-437.0,-959.0,-23.0,-21.0,3.0,3.0,158,133,128,139,144
2025-02-26 14:55:04.415,-424.0,-959.0,-29.0,-19.0,3.0,5.0,160,134,131,141,146
2025-02-26 14:55:04.419,-452.0,-963.0,-9.0,-20.0,5.0,6.0,160,132,127,140,144
2025-02-26 14:55:04.426,-444.0,-957.0,-54.0,-20.0,3.0,7.0,160,132,129,142,146
2025-02-26 14:55:04.431,-449.0,-951.0,-38.0,-20.0,3.0,9.0,160,132,128,141,146
2025-02-26 14:55:04.436,-451.0,-959.0,-18.0,-16.0,4.0,11.0,160,132,128,141,145
2025-02-26 14:55:04.443,-453.0,-953.0,-30.0,-14.0,6.0,12.0,159,134,131,141,145
2025-02-26 14:55:04.446,-447.0,-926.0,-24.0,-14.0,8.0,13.0,159,134,131,141,146
2025-02-26 14:55:04.452,-454.0,-910.0,-37.0,-13.0,10.0,15.0,160,131,128,139,144
2025-02-26 14:55:04.456,-459.0,-900.0,-34.0,-16.0,10.0,16.0,157,131,130,139,144
2025-02-26 14:55:04.462,-461.0,-896.0,-22.0,-21.0,9.0,15.0,157,131,127,139,144
2025-02-26 14:55:04.468,-455.0,-894.0,-32.0,-26.0,11.0,16.0,159,132,128,141,144
2025-02-26 14:55:04.472,-465.0,-880.0,-63.0,-30.0,8.0,15.0,160,133,129,140,145
2025-02-26 14:55:04.480,-467.0,-898.0,-55.0,-31.0,7.0,14.0,158,132,129,141,145
2025-02-26 14:55:04.484,-480.0,-900.0,-64.0,-31.0,6.0,14.0,157,131,127,137,144
2025-02-26 14:55:04.488,-479.0,-892.0,-70.0,-34.0,4.0,14.0,159,132,131,141,145
2025-02-26 14:55:04.493,-486.0,-886.0,-56.0,-36.0,3.0,13.0,160,133,129,140,144
2025-02-26 14:55:04.499,-488.0,-889.0,-62.0,-34.0,2.0,14.0,160,132,127,141,146
2025-02-26 14:55:04.505,-490.0,-886.0,-67.0,-32.0,2.0,13.0,157,131,126,138,142
2025-02-26 14:55:04.509,-500.0,-908.0,-111.0,-33.0,0.0,13.0,156,128,126,137,142
2025-02-26 14:55:04.513,-458.0,-890.0,-53.0,-31.0,0.0,11.0,160,133,130,141,147
2025-02-26 14:55:04.521,-470.0,-879.0,-72.0,-28.0,-1.0,11.0,160,134,130,142,146
2025-02-26 14:55:04.525,-470.0,-909.0,-29.0,-20.0,3.0,11.0,156,132,127,143,143
2025-02-26 14:55:04.530,-478.0,-891.0,-61.0,-18.0,4.0,11.0,156,132,126,138,143
2025-02-26 14:55:04.537,-439.0,-913.0,-72.0,-7.0,7.0,11.0,160,135,132,143,148
2025-02-26 14:55:04.541,-461.0,-899.0,-56.0,-9.0,8.0,13.0,160,134,130,143,147
2025-02-26 14:55:04.546,-443.0,-913.0,-68.0,-7.0,8.0,16.0,157,132,128,139,145
2025-02-26 14:55:04.550,-464.0,-939.0,-41.0,-3.0,9.0,18.0,156,131,126,138,142
2025-02-26 14:55:04.558,-474.0,-938.0,-92.0,-12.0,8.0,19.0,160,136,131,143,147
2025-02-26 14:55:04.562,-469.0,-931.0,-62.0,-10.0,12.0,23.0,161,134,130,142,146
2025-02-26 14:55:04.567,-482.0,-938.0,-126.0,-12.0,8.0,24.0,160,132,130,141,145
2025-02-26 14:55:04.572,-489.0,-958.0,-68.0,-14.0,9.0,27.0,157,132,128,139,144
2025-02-26 14:55:04.578,-470.0,-940.0,-113.0,-14.0,9.0,28.0,160,132,127,140,143
2025-02-26 14:55:04.582,-474.0,-954.0,-75.0,-12.0,10.0,29.0,160,135,131,144,146
2025-02-26 14:55:04.587,-487.0,-957.0,-64.0,-9.0,13.0,31.0,162,133,130,143,150
2025-02-26 14:55:04.595,-485.0,-934.0,-102.0,-11.0,15.0,30.0,152,124,125,134,138
2025-02-26 14:55:04.599,-472.0,-939.0,-115.0,-4.0,16.0,32.0,151,126,125,134,136
2025-02-26 14:55:04.603,-508.0,-940.0,-90.0,0.0,19.0,33.0,158,132,128,142,144
2025-02-26 14:55:04.610,-518.0,-907.0,-130.0,1.0,18.0,32.0,163,139,135,147,151
2025-02-26 14:55:04.614,-487.0,-904.0,-98.0,7.0,21.0,33.0,170,146,142,152,157
2025-02-26 14:55:04.619,-502.0,-911.0,-93.0,3.0,23.0,33.0,176,151,147,160,162
2025-02-26 14:55:04.624,-504.0,-898.0,-116.0,8.0,23.0,31.0,185,160,153,167,169
2025-02-26 14:55:04.632,-493.0,-884.0,-123.0,2.0,20.0,31.0,189,165,160,172,174
2025-02-26 14:55:04.636,-523.0,-892.0,-103.0,2.0,17.0,29.0,195,171,164,177,180
2025-02-26 14:55:04.638,-517.0,-864.0,-117.0,-1.0,16.0,28.0,199,174,168,183,184
2025-02-26 14:55:04.644,-497.0,-861.0,-137.0,-2.0,15.0,28.0,195,169,165,177,181
2025-02-26 14:55:04.652,-534.0,-863.0,-99.0,-6.0,15.0,27.0,198,173,167,181,184
2025-02-26 14:55:04.656,-575.0,-881.0,-109.0,-7.0,15.0,28.0,199,175,172,185,186
2025-02-26 14:55:04.661,-570.0,-870.0,-71.0,-8.0,17.0,28.0,198,170,167,180,182
2025-02-26 14:55:04.668,-574.0,-872.0,-135.0,-11.0,17.0,28.0,192,164,160,174,174
2025-02-26 14:55:04.670,-572.0,-849.0,-197.0,-20.0,8.0,26.0,190,160,156,171,174
2025-02-26 14:55:04.677,-562.0,-832.0,-176.0,-21.0,1.0,24.0,200,170,169,181,182
2025-02-26 14:55:04.681,-595.0,-839.0,-169.0,-29.0,-4.0,22.0,199,167,168,180,181
2025-02-26 14:55:04.689,-610.0,-855.0,-153.0,-25.0,-6.0,20.0,195,169,161,175,179
2025-02-26 14:55:04.690,-614.0,-861.0,-116.0,-22.0,-4.0,20.0,191,156,157,170,170
2025-02-26 14:55:04.697,-615.0,-811.0,-211.0,-22.0,-7.0,19.0,192,156,158,170,171
2025-02-26 14:55:04.697,-591.0,-795.0,-167.0,-21.0,-12.0,16.0,196,159,158,175,174
2025-02-26 14:55:04.710,-581.0,-820.0,-156.0,-19.0,-8.0,17.0,195,157,158,170,170
2025-02-26 14:55:04.713,-557.0,-799.0,-167.0,-17.0,-10.0,15.0,203,162,165,176,175
2025-02-26 14:55:04.720,-548.0,-792.0,-112.0,-18.0,-7.0,14.0,194,154,155,169,168
2025-02-26 14:55:04.726,-547.0,-774.0,-116.0,-20.0,-6.0,13.0,189,145,152,164,161
2025-02-26 14:55:04.730,-541.0,-808.0,-124.0,-20.0,-2.0,14.0,189,146,150,162,159
2025-02-26 14:55:04.738,-528.0,-785.0,-145.0,-25.0,-1.0,14.0,196,151,157,170,164
2025-02-26 14:55:04.741,-557.0,-786.0,-125.0,-25.0,3.0,15.0,197,150,157,166,162
2025-02-26 14:55:04.741,-564.0,-803.0,-99.0,-23.0,8.0,17.0,191,146,152,163,160
2025-02-26 14:55:04.754,-572.0,-808.0,-125.0,-18.0,11.0,19.0,189,140,147,157,154
2025-02-26 14:55:04.759,-586.0,-787.0,-137.0,-12.0,14.0,19.0,186,138,148,160,152
2025-02-26 14:55:04.762,-603.0,-790.0,-118.0,-8.0,12.0,18.0,191,136,147,156,150
2025-02-26 14:55:04.771,-625.0,-804.0,-126.0,-3.0,14.0,18.0,194,138,148,158,152
2025-02-26 14:55:04.771,-629.0,-792.0,-137.0,0.0,14.0,19.0,194,137,146,156,146
2025-02-26 14:55:04.779,-582.0,-758.0,-106.0,4.0,15.0,20.0,190,133,144,149,144
2025-02-26 14:55:04.781,-603.0,-750.0,-119.0,3.0,16.0,20.0,189,126,139,147,139
2025-02-26 14:55:04.791,-588.0,-776.0,-156.0,5.0,16.0,20.0,193,130,143,150,142
2025-02-26 14:55:04.793,-600.0,-743.0,-158.0,8.0,14.0,20.0,197,133,147,155,148
2025-02-26 14:55:04.793,-632.0,-721.0,-108.0,3.0,17.0,19.0,193,126,142,148,139
2025-02-26 14:55:04.807,-620.0,-713.0,-119.0,7.0,16.0,20.0,188,117,134,141,132
2025-02-26 14:55:04.812,-580.0,-729.0,-101.0,14.0,23.0,22.0,192,122,138,143,135
2025-02-26 14:55:04.816,-590.0,-703.0,-137.0,14.0,24.0,21.0,196,126,142,148,140
2025-02-26 14:55:04.821,-561.0,-687.0,-105.0,15.0,30.0,20.0,192,120,137,142,132
2025-02-26 14:55:04.826,-579.0,-683.0,-84.0,9.0,34.0,19.0,186,113,132,136,126
2025-02-26 14:55:04.833,-570.0,-665.0,-163.0,10.0,33.0,19.0,184,112,129,134,126
2025-02-26 14:55:04.837,-582.0,-625.0,-160.0,-1.0,32.0,15.0,192,119,137,142,133
2025-02-26 14:55:04.844,-605.0,-634.0,-187.0,3.0,32.0,15.0,191,117,134,140,131
2025-02-26 14:55:04.849,-618.0,-585.0,-117.0,1.0,36.0,12.0,189,114,135,136,125
2025-02-26 14:55:04.853,-595.0,-569.0,-153.0,3.0,37.0,8.0,185,109,128,130,120
2025-02-26 14:55:04.857,-656.0,-558.0,-171.0,11.0,34.0,8.0,189,113,137,135,125
2025-02-26 14:55:04.862,-688.0,-566.0,-148.0,18.0,35.0,6.0,191,114,132,135,126
2025-02-26 14:55:04.869,-711.0,-524.0,-208.0,24.0,31.0,3.0,188,110,124,129,117
2025-02-26 14:55:04.874,-712.0,-417.0,-183.0,26.0,28.0,-1.0,187,109,123,126,115
2025-02-26 14:55:04.878,-721.0,-313.0,-46.0,38.0,33.0,0.0,185,106,123,123,113
2025-02-26 14:55:04.886,-716.0,-284.0,-4.0,47.0,47.0,2.0,189,109,127,129,117
2025-02-26 14:55:04.886,-730.0,-143.0,70.0,45.0,67.0,3.0,187,107,123,124,114
2025-02-26 14:55:04.893,-782.0,60.0,-124.0,37.0,74.0,1.0,184,106,121,121,109
2025-02-26 14:55:04.898,-844.0,214.0,-35.0,23.0,99.0,0.0,189,111,125,127,115
2025-02-26 14:55:04.905,-756.0,424.0,-147.0,18.0,121.0,-2.0,188,108,123,126,111
2025-02-26 14:55:04.910,-723.0,575.0,-62.0,12.0,153.0,-15.0,187,107,121,125,111
2025-02-26 14:55:04.915,-727.0,892.0,-153.0,-6.0,166.0,-38.0,186,109,119,126,110
2025-02-26 14:55:04.922,-709.0,1159.0,-167.0,-1.0,189.0,-50.0,181,103,117,121,105
2025-02-26 14:55:04.927,-777.0,1278.0,-200.0,-4.0,196.0,-78.0,179,105,119,127,109
2025-02-26 14:55:04.931,-951.0,1138.0,-343.0,-12.0,186.0,-98.0,176,106,118,120,107
2025-02-26 14:55:04.939,-1191.0,1798.0,-444.0,77.0,145.0,-126.0,166,104,119,130,112
2025-02-26 14:55:04.942,-551.0,2111.0,-1471.0,168.0,-2.0,-209.0,158,107,121,129,113
2025-02-26 14:55:04.951,986.0,2693.0,-2625.0,266.0,-108.0,-269.0,161,104,117,125,109
2025-02-26 14:55:04.955,-818.0,1458.0,-2826.0,303.0,-55.0,-327.0,158,105,117,126,110
2025-02-26 14:55:04.959,-2341.0,1877.0,-1351.0,345.0,-6.0,-426.0,152,101,115,125,107
2025-02-26 14:55:04.967,-1583.0,1524.0,-1427.0,428.0,-84.0,-520.0,150,101,112,121,106
2025-02-26 14:55:04.970,-1000.0,1629.0,-1652.0,542.0,-305.0,-615.0,149,101,113,122,106
2025-02-26 14:55:04.979,-223.0,1629.0,-760.0,590.0,-353.0,-663.0,150,101,117,123,109
2025-02-26 14:55:04.984,382.0,1437.0,178.0,612.0,-365.0,-687.0,152,103,116,124,109
2025-02-26 14:55:04.989,1803.0,845.0,1382.0,652.0,-433.0,-664.0,145,102,113,121,108
2025-02-26 14:55:04.996,3402.0,423.0,2685.0,618.0,-407.0,-621.0,148,100,113,122,107
2025-02-26 14:55:05.000,4180.0,-892.0,3666.0,536.0,-258.0,-462.0,156,109,121,129,115
2025-02-26 14:55:05.009,4404.0,-2776.0,4050.0,492.0,-131.0,-282.0,153,106,121,128,112
2025-02-26 14:55:05.012,4364.0,-4581.0,4010.0,510.0,-23.0,-157.0,154,108,122,127,112
2025-02-26 14:55:05.017,4103.0,-5756.0,3820.0,541.0,87.0,-81.0,153,110,124,131,116
2025-02-26 14:55:05.025,3327.0,-6457.0,3266.0,547.0,158.0,-10.0,153,108,127,128,114
2025-02-26 14:55:05.029,2179.0,-5835.0,2704.0,447.0,171.0,85.0,152,108,125,126,113
2025-02-26 14:55:05.033,1131.0,-4519.0,2230.0,355.0,144.0,181.0,151,107,125,122,109
2025-02-26 14:55:05.038,192.0,-2642.0,2015.0,136.0,47.0,234.0,150,106,124,120,109
2025-02-26 14:55:05.045,-31.0,-1036.0,1696.0,-104.0,18.0,226.0,146,103,122,118,106
2025-02-26 14:55:05.053,-265.0,-450.0,1640.0,-297.0,-43.0,170.0,146,105,121,117,106
2025-02-26 14:55:05.057,-352.0,-480.0,1443.0,-410.0,-129.0,139.0,150,107,122,120,108
2025-02-26 14:55:05.062,202.0,-735.0,1341.0,-457.0,-108.0,93.0,150,107,121,121,110
2025-02-26 14:55:05.070,225.0,-1418.0,1150.0,-446.0,-94.0,49.0,154,108,118,126,113
2025-02-26 14:55:05.074,248.0,-1795.0,1009.0,-394.0,-74.0,27.0,154,109,126,127,114
2025-02-26 14:55:05.078,272.0,-1850.0,821.0,-354.0,-16.0,23.0,154,109,123,129,116
2025-02-26 14:55:05.086,125.0,-1954.0,632.0,-328.0,-22.0,22.0,151,107,119,128,113
2025-02-26 14:55:05.090,107.0,-1932.0,472.0,-281.0,-22.0,30.0,148,104,119,124,112
2025-02-26 14:55:05.092,0.0,-2051.0,373.0,-250.0,-29.0,54.0,153,108,123,129,116
2025-02-26 14:55:05.102,28.0,-2026.0,456.0,-225.0,-29.0,69.0,148,102,116,124,110
2025-02-26 14:55:05.105,41.0,-2039.0,505.0,-200.0,-42.0,97.0,154,108,121,130,116
2025-02-26 14:55:05.112,27.0,-2039.0,557.0,-171.0,-49.0,124.0,154,109,121,129,116
2025-02-26 14:55:05.116,140.0,-1976.0,687.0,-163.0,-43.0,146.0,154,108,120,130,117
2025-02-26 14:55:05.123,173.0,-1741.0,766.0,-148.0,-36.0,163.0,152,106,118,128,114
2025-02-26 14:55:05.128,157.0,-1636.0,813.0,-129.0,-40.0,177.0,150,107,117,124,111
2025-02-26 14:55:05.136,126.0,-1498.0,750.0,-118.0,-40.0,188.0,148,103,115,121,111
2025-02-26 14:55:05.140,92.0,-1292.0,770.0,-122.0,-37.0,196.0,149,103,115,123,112
2025-02-26 14:55:05.144,76.0,-1200.0,721.0,-132.0,-40.0,209.0,155,109,122,128,117
2025-02-26 14:55:05.152,54.0,-1035.0,694.0,-137.0,-36.0,217.0,154,106,120,126,117
2025-02-26 14:55:05.156,-12.0,-795.0,588.0,-151.0,-28.0,218.0,160,113,126,133,121
2025-02-26 14:55:05.160,-96.0,-753.0,585.0,-156.0,-18.0,216.0,155,107,121,129,116
2025-02-26 14:55:05.168,-215.0,-599.0,480.0,-168.0,-18.0,209.0,149,104,117,124,113
2025-02-26 14:55:05.172,-199.0,-535.0,484.0,-182.0,-20.0,200.0,154,102,118,123,112
2025-02-26 14:55:05.177,-344.0,-510.0,424.0,-185.0,-32.0,198.0,153,106,120,126,115
2025-02-26 14:55:05.184,-351.0,-488.0,426.0,-193.0,-40.0,192.0,153,106,120,126,114
2025-02-26 14:55:05.189,-276.0,-442.0,398.0,-197.0,-32.0,184.0,156,109,123,128,117
2025-02-26 14:55:05.197,-288.0,-386.0,399.0,-195.0,-23.0,170.0,161,113,128,133,122
2025-02-26 14:55:05.200,-289.0,-387.0,366.0,-188.0,-13.0,157.0,160,110,125,131,120
2025-02-26 14:55:05.205,-262.0,-326.0,322.0,-185.0,2.0,147.0,156,108,121,128,116
2025-02-26 14:55:05.213,-292.0,-311.0,295.0,-181.0,15.0,140.0,152,105,118,125,114
2025-02-26 14:55:05.217,-313.0,-277.0,239.0,-177.0,23.0,134.0,156,108,121,125,114
2025-02-26 14:55:05.221,-313.0,-279.0,176.0,-171.0,37.0,131.0,154,104,118,124,113
2025-02-26 14:55:05.230,-337.0,-237.0,94.0,-165.0,54.0,128.0,158,105,123,130,117
2025-02-26 14:55:05.234,-375.0,-209.0,67.0,-156.0,61.0,125.0,158,110,123,130,119
2025-02-26 14:55:05.238,-411.0,-141.0,-36.0,-153.0,69.0,122.0,160,111,123,131,119
2025-02-26 14:55:05.246,-408.0,-112.0,-90.0,-145.0,77.0,119.0,157,108,123,129,119
2025-02-26 14:55:05.249,-440.0,-61.0,-147.0,-138.0,77.0,117.0,153,102,118,125,114
2025-02-26 14:55:05.255,-444.0,-28.0,-202.0,-131.0,77.0,116.0,159,108,122,130,119
2025-02-26 14:55:05.262,-462.0,-32.0,-232.0,-129.0,80.0,115.0,156,106,118,127,115
2025-02-26 14:55:05.267,-479.0,32.0,-281.0,-124.0,81.0,114.0,159,109,122,131,120
2025-02-26 14:55:05.268,-463.0,84.0,-280.0,-116.0,77.0,108.0,158,109,122,132,120
2025-02-26 14:55:05.278,-501.0,147.0,-315.0,-112.0,71.0,102.0,162,111,124,129,119
2025-02-26 14:55:05.282,-547.0,148.0,-330.0,-94.0,62.0,91.0,156,106,120,126,115
2025-02-26 14:55:05.288,-563.0,195.0,-375.0,-73.0,55.0,81.0,154,101,116,125,114
2025-02-26 14:55:05.292,-566.0,208.0,-411.0,-52.0,44.0,77.0,160,110,124,130,119
2025-02-26 14:55:05.299,-548.0,288.0,-413.0,-32.0,34.0,66.0,161,110,128,133,121
2025-02-26 14:55:05.304,-586.0,399.0,-435.0,-25.0,25.0,56.0,156,109,123,130,120
2025-02-26 14:55:05.308,-652.0,503.0,-458.0,-10.0,21.0,45.0,154,105,117,124,114
2025-02-26 14:55:05.316,-699.0,641.0,-478.0,1.0,10.0,35.0,155,104,117,127,114
2025-02-26 14:55:05.320,-788.0,735.0,-492.0,5.0,-6.0,29.0,161,113,125,132,120
2025-02-26 14:55:05.324,-846.0,909.0,-505.0,6.0,-18.0,18.0,161,109,122,132,119
2025-02-26 14:55:05.329,-874.0,1092.0,-490.0,7.0,-25.0,3.0,155,104,115,126,115
2025-02-26 14:55:05.336,-913.0,1250.0,-457.0,6.0,-26.0,-16.0,160,109,120,131,119
2025-02-26 14:55:05.340,-952.0,1315.0,-424.0,12.0,-26.0,-26.0,159,107,121,130,119
2025-02-26 14:55:05.345,-1002.0,1459.0,-364.0,35.0,-21.0,-56.0,159,108,121,130,120
2025-02-26 14:55:05.353,-1031.0,1594.0,-263.0,70.0,-14.0,-98.0,159,111,123,130,120
2025-02-26 14:55:05.357,-1001.0,1719.0,-190.0,128.0,3.0,-155.0,162,113,123,133,123
2025-02-26 14:55:05.365,-965.0,1828.0,-218.0,159.0,27.0,-231.0,159,107,120,130,119
2025-02-26 14:55:05.370,-837.0,1842.0,-267.0,226.0,49.0,-312.0,156,104,116,125,117
2025-02-26 14:55:05.373,-734.0,1714.0,-316.0,292.0,52.0,-389.0,156,105,115,127,116
2025-02-26 14:55:05.381,-512.0,1508.0,-334.0,351.0,43.0,-460.0,158,104,116,126,115
2025-02-26 14:55:05.385,-255.0,1399.0,-271.0,400.0,19.0,-490.0,154,103,113,124,114
2025-02-26 14:55:05.390,2.0,1115.0,-169.0,440.0,-18.0,-546.0,160,110,121,131,121
2025-02-26 14:55:05.395,308.0,837.0,-129.0,468.0,-58.0,-598.0,166,113,126,136,125
2025-02-26 14:55:05.401,677.0,418.0,152.0,476.0,-93.0,-637.0,160,113,124,131,124
2025-02-26 14:55:05.406,1297.0,-183.0,765.0,482.0,-121.0,-632.0,159,109,120,130,121
2025-02-26 14:55:05.414,2105.0,-1069.0,1369.0,481.0,-123.0,-576.0,156,105,117,127,119
2025-02-26 14:55:05.418,2391.0,-2256.0,1844.0,476.0,-104.0,-507.0,158,107,120,128,121
2025-02-26 14:55:05.426,2860.0,-3626.0,2247.0,475.0,-88.0,-428.0,157,106,117,128,123
2025-02-26 14:55:05.430,3219.0,-4980.0,2624.0,474.0,-56.0,-321.0,153,104,120,126,120
2025-02-26 14:55:05.435,3518.0,-6211.0,2813.0,443.0,15.0,-194.0,160,110,125,130,125
2025-02-26 14:55:05.442,3433.0,-6598.0,2798.0,384.0,78.0,-124.0,154,105,121,125,121
2025-02-26 14:55:05.447,2996.0,-6669.0,2430.0,285.0,120.0,21.0,157,107,123,126,121
2025-02-26 14:55:05.451,2178.0,-5758.0,1982.0,153.0,112.0,146.0,158,111,127,128,124
2025-02-26 14:55:05.456,1294.0,-4443.0,1770.0,-8.0,66.0,222.0,159,117,131,128,123
2025-02-26 14:55:05.463,607.0,-3065.0,1345.0,-146.0,-1.0,244.0,160,110,129,128,123
2025-02-26 14:55:05.471,178.0,-2052.0,1138.0,-216.0,-78.0,245.0,155,110,124,124,120
2025-02-26 14:55:05.474,335.0,-1497.0,969.0,-323.0,-111.0,237.0,161,114,130,132,127
2025-02-26 14:55:05.480,440.0,-1398.0,904.0,-385.0,-123.0,230.0,157,109,123,126,119
2025-02-26 14:55:05.488,447.0,-1454.0,820.0,-406.0,-117.0,220.0,154,106,121,124,119
2025-02-26 14:55:05.492,463.0,-1580.0,714.0,-393.0,-89.0,197.0,153,104,119,124,118
2025-02-26 14:55:05.496,360.0,-1625.0,643.0,-351.0,-43.0,184.0,156,107,120,126,119
2025-02-26 14:55:05.504,263.0,-1762.0,586.0,-285.0,-16.0,160.0,160,113,127,132,126
2025-02-26 14:55:05.508,212.0,-1820.0,536.0,-218.0,12.0,146.0,159,111,125,127,125
2025-02-26 14:55:05.523,205.0,-1876.0,467.0,-164.0,42.0,143.0,159,112,126,132,124
2025-02-26 14:55:05.525,50.0,-1792.0,370.0,-139.0,54.0,157.0,161,110,125,132,124
2025-02-26 14:55:05.528,10.0,-1723.0,349.0,-97.0,55.0,178.0,155,104,119,127,121
2025-02-26 14:55:05.530,62.0,-1630.0,335.0,-61.0,52.0,200.0,154,106,119,124,120
2025-02-26 14:55:05.537,41.0,-1606.0,388.0,-39.0,49.0,213.0,163,115,128,137,130
2025-02-26 14:55:05.541,41.0,-1374.0,379.0,-27.0,54.0,234.0,162,112,126,133,127
2025-02-26 14:55:05.545,1.0,-1148.0,368.0,-24.0,44.0,246.0,158,109,123,130,125
2025-02-26 14:55:05.551,31.0,-891.0,443.0,-23.0,43.0,252.0,154,106,119,126,122
2025-02-26 14:55:05.557,-49.0,-615.0,411.0,-41.0,50.0,251.0,157,110,123,130,124
2025-02-26 14:55:05.562,46.0,-583.0,333.0,-67.0,47.0,244.0,162,112,124,133,128
2025-02-26 14:55:05.564,-118.0,-283.0,355.0,-99.0,39.0,235.0,159,110,125,130,124
2025-02-26 14:55:05.573,-127.0,-69.0,337.0,-110.0,35.0,219.0,157,109,121,129,123
2025-02-26 14:55:05.578,-155.0,127.0,329.0,-157.0,36.0,196.0,156,109,116,128,125
2025-02-26 14:55:05.583,-205.0,93.0,284.0,-188.0,32.0,175.0,156,106,121,128,121
2025-02-26 14:55:05.590,-261.0,138.0,245.0,-218.0,24.0,166.0,161,112,124,132,125
2025-02-26 14:55:05.595,-329.0,21.0,226.0,-250.0,19.0,152.0,162,110,127,132,126
2025-02-26 14:55:05.598,-325.0,-18.0,195.0,-262.0,18.0,140.0,161,112,125,132,125
2025-02-26 14:55:05.606,-358.0,-40.0,145.0,-278.0,23.0,129.0,157,108,118,126,121
2025-02-26 14:55:05.610,-323.0,-60.0,62.0,-284.0,27.0,119.0,155,106,118,126,119
2025-02-26 14:55:05.613,-355.0,-113.0,37.0,-292.0,36.0,116.0,162,113,124,131,125
2025-02-26 14:55:05.623,-395.0,-78.0,-38.0,-292.0,43.0,110.0,164,114,127,132,125
2025-02-26 14:55:05.626,-415.0,-75.0,-122.0,-287.0,51.0,107.0,162,112,125,132,123
2025-02-26 14:55:05.631,-458.0,-45.0,-233.0,-281.0,56.0,102.0,159,110,123,130,121
2025-02-26 14:55:05.638,-514.0,-40.0,-332.0,-266.0,56.0,98.0,159,107,122,129,123
2025-02-26 14:55:05.643,-543.0,-73.0,-459.0,-254.0,56.0,97.0,157,105,119,125,120
2025-02-26 14:55:05.648,-588.0,-79.0,-474.0,-243.0,49.0,98.0,152,103,117,124,117
2025-02-26 14:55:05.655,-627.0,-109.0,-516.0,-226.0,42.0,96.0,161,111,123,132,124
2025-02-26 14:55:05.660,-629.0,-116.0,-552.0,-202.0,36.0,93.0,164,112,125,133,125
2025-02-26 14:55:05.664,-595.0,-113.0,-503.0,-198.0,28.0,90.0,159,109,122,130,122
2025-02-26 14:55:05.672,-601.0,-127.0,-513.0,-173.0,24.0,87.0,158,108,120,128,121
2025-02-26 14:55:05.676,-588.0,-155.0,-494.0,-153.0,19.0,87.0,161,111,123,132,124
2025-02-26 14:55:05.680,-551.0,-127.0,-460.0,-129.0,16.0,88.0,157,106,121,126,118
2025-02-26 14:55:05.686,-495.0,-127.0,-429.0,-105.0,14.0,89.0,159,105,118,126,119
2025-02-26 14:55:05.693,-482.0,-118.0,-423.0,-83.0,17.0,93.0,161,111,124,132,123
2025-02-26 14:55:05.697,-484.0,-91.0,-397.0,-63.0,18.0,98.0,164,112,123,131,124
2025-02-26 14:55:05.701,-459.0,-60.0,-401.0,-52.0,19.0,104.0,174,123,137,143,136
2025-02-26 14:55:05.708,-461.0,-35.0,-415.0,-26.0,19.0,110.0,194,154,164,172,165
2025-02-26 14:55:05.710,-543.0,36.0,-444.0,6.0,19.0,111.0,219,174,185,191,183
2025-02-26 14:55:05.718,-647.0,87.0,-449.0,39.0,17.0,108.0,224,178,190,195,187
2025-02-26 14:55:05.722,-726.0,168.0,-490.0,75.0,11.0,98.0,218,169,181,187,180
2025-02-26 14:55:05.729,-787.0,348.0,-512.0,90.0,1.0,81.0,206,154,170,175,167
2025-02-26 14:55:05.734,-820.0,559.0,-541.0,120.0,-2.0,59.0,205,154,165,172,164
2025-02-26 14:55:05.738,-984.0,718.0,-602.0,149.0,-15.0,44.0,190,135,147,156,148
2025-02-26 14:55:05.746,-1210.0,1076.0,-551.0,165.0,-29.0,3.0,187,131,145,150,143
2025-02-26 14:55:05.747,-1339.0,1363.0,-565.0,169.0,-54.0,-42.0,190,132,144,151,144
2025-02-26 14:55:05.758,-1431.0,1647.0,-520.0,167.0,-80.0,-89.0,194,133,145,150,144
2025-02-26 14:55:05.762,-1507.0,1855.0,-427.0,155.0,-95.0,-141.0,190,129,142,149,141
2025-02-26 14:55:05.767,-1482.0,1996.0,-263.0,154.0,-106.0,-198.0,188,125,130,144,136
2025-02-26 14:55:05.774,-1385.0,2130.0,-160.0,160.0,-110.0,-262.0,190,125,135,143,137
2025-02-26 14:55:05.778,-1195.0,2168.0,58.0,172.0,-109.0,-322.0,194,126,136,147,138
2025-02-26 14:55:05.786,-1109.0,2041.0,70.0,193.0,-105.0,-388.0,191,123,132,145,136
2025-02-26 14:55:05.790,-915.0,1946.0,235.0,224.0,-105.0,-451.0,193,124,134,143,135
2025-02-26 14:55:05.796,-650.0,1810.0,314.0,265.0,-98.0,-483.0,200,128,140,147,139
2025-02-26 14:55:05.802,-300.0,1525.0,246.0,317.0,-95.0,-532.0,203,129,141,152,143
2025-02-26 14:55:05.807,174.0,1380.0,417.0,375.0,-95.0,-579.0,202,126,139,150,141
2025-02-26 14:55:05.813,608.0,1231.0,416.0,409.0,-102.0,-631.0,206,126,139,150,142
2025-02-26 14:55:05.819,1016.0,984.0,350.0,421.0,-130.0,-674.0,207,128,142,151,144
2025-02-26 14:55:05.825,1278.0,526.0,155.0,430.0,-192.0,-705.0,207,126,142,149,142
2025-02-26 14:55:05.831,1449.0,-221.0,-211.0,403.0,-228.0,-706.0,202,120,134,145,135
2025-02-26 14:55:05.835,1502.0,-610.0,-210.0,390.0,-271.0,-680.0,213,128,141,149,143
2025-02-26 14:55:05.842,1614.0,-1491.0,202.0,354.0,-224.0,-594.0,207,119,136,144,134
2025-02-26 14:55:05.848,2342.0,-2741.0,614.0,351.0,-165.0,-472.0,206,118,133,142,135
2025-02-26 14:55:05.850,3391.0,-4161.0,1186.0,368.0,-133.0,-388.0,208,121,137,144,138
2025-02-26 14:55:05.860,4275.0,-5308.0,1844.0,419.0,-108.0,-348.0,210,120,139,145,140
2025-02-26 14:55:05.862,4561.0,-6170.0,2203.0,454.0,-58.0,-243.0,210,121,139,140,138
2025-02-26 14:55:05.869,4318.0,-7536.0,2390.0,468.0,31.0,-89.0,214,121,137,141,139
2025-02-26 14:55:05.877,3826.0,-7895.0,2144.0,465.0,145.0,86.0,224,133,151,150,147
2025-02-26 14:55:05.880,3336.0,-6529.0,1990.0,394.0,253.0,230.0,219,129,148,144,142
2025-02-26 14:55:05.885,2741.0,-4446.0,1921.0,254.0,327.0,314.0,219,128,145,139,137
2025-02-26 14:55:05.893,2041.0,-2520.0,1712.0,189.0,332.0,342.0,218,126,145,141,135
2025-02-26 14:55:05.898,1397.0,-1251.0,1646.0,101.0,261.0,327.0,213,128,147,143,136
2025-02-26 14:55:05.905,976.0,-769.0,1471.0,-6.0,155.0,290.0,216,125,142,140,134
2025-02-26 14:55:05.910,692.0,-507.0,1094.0,-110.0,124.0,260.0,211,121,139,135,131
2025-02-26 14:55:05.914,474.0,-507.0,783.0,-175.0,90.0,235.0,212,123,141,139,135
2025-02-26 14:55:05.922,250.0,-585.0,475.0,-210.0,48.0,222.0,219,131,144,145,140
2025-02-26 14:55:05.922,55.0,-802.0,423.0,-231.0,11.0,197.0,219,130,143,144,141
2025-02-26 14:55:05.930,-47.0,-1008.0,322.0,-243.0,11.0,187.0,217,129,142,143,140
2025-02-26 14:55:05.938,-57.0,-1160.0,292.0,-259.0,31.0,185.0,220,131,145,145,142
2025-02-26 14:55:05.943,18.0,-1284.0,343.0,-267.0,42.0,186.0,212,125,138,143,137
2025-02-26 14:55:05.947,-126.0,-1359.0,387.0,-242.0,50.0,193.0,213,123,136,141,134
2025-02-26 14:55:05.953,22.0,-1361.0,466.0,-208.0,58.0,202.0,213,123,137,143,137
2025-02-26 14:55:05.959,1.0,-1350.0,595.0,-182.0,62.0,210.0,218,134,143,151,144
2025-02-26 14:55:05.963,34.0,-1262.0,758.0,-167.0,69.0,207.0,220,130,141,148,144
2025-02-26 14:55:05.967,3.0,-941.0,819.0,-178.0,105.0,211.0,218,128,139,145,144
2025-02-26 14:55:05.975,146.0,-777.0,786.0,-167.0,108.0,204.0,212,121,131,140,135
2025-02-26 14:55:05.980,-8.0,-517.0,780.0,-186.0,97.0,201.0,213,125,136,143,138
2025-02-26 14:55:05.984,-68.0,-450.0,883.0,-231.0,54.0,211.0,218,128,140,146,142
2025-02-26 14:55:05.991,-204.0,-269.0,510.0,-229.0,27.0,196.0,218,128,137,145,140
2025-02-26 14:55:05.995,-253.0,-307.0,518.0,-250.0,13.0,189.0,221,132,145,154,147
2025-02-26 14:55:06.000,-299.0,-266.0,377.0,-290.0,8.0,189.0,217,127,138,146,139
2025-02-26 14:55:06.008,-312.0,-33.0,186.0,-277.0,3.0,174.0,212,119,135,140,134
2025-02-26 14:55:06.011,-337.0,-12.0,105.0,-255.0,10.0,167.0,211,120,134,138,131
2025-02-26 14:55:06.016,-422.0,122.0,110.0,-270.0,26.0,157.0,220,131,144,150,142
2025-02-26 14:55:06.024,-539.0,41.0,83.0,-257.0,15.0,148.0,219,128,144,149,141
2025-02-26 14:55:06.025,-566.0,-110.0,71.0,-252.0,-20.0,140.0,216,125,138,145,139
2025-02-26 14:55:06.030,-527.0,-140.0,103.0,-255.0,-35.0,137.0,212,122,134,142,135
2025-02-26 14:55:06.041,-556.0,-153.0,53.0,-262.0,-50.0,133.0,213,120,136,142,135
2025-02-26 14:55:06.043,-530.0,-110.0,27.0,-258.0,-35.0,134.0,210,118,136,141,132
2025-02-26 14:55:06.050,-530.0,-275.0,90.0,-250.0,-22.0,132.0,218,127,144,147,139
2025-02-26 14:55:06.057,-451.0,-135.0,123.0,-217.0,1.0,118.0,223,135,149,153,147
2025-02-26 14:55:06.061,-445.0,-96.0,220.0,-191.0,19.0,102.0,219,129,144,148,142
2025-02-26 14:55:06.066,-467.0,-186.0,213.0,-177.0,28.0,90.0,217,126,142,148,137
2025-02-26 14:55:06.073,-465.0,-238.0,202.0,-156.0,34.0,88.0,213,122,136,140,133
2025-02-26 14:55:06.078,-532.0,-304.0,101.0,-133.0,49.0,90.0,215,125,139,143,135
2025-02-26 14:55:06.082,-629.0,-302.0,43.0,-106.0,66.0,95.0,218,129,143,148,140
2025-02-26 14:55:06.086,-649.0,-280.0,-8.0,-74.0,79.0,98.0,215,128,143,144,140
2025-02-26 14:55:06.094,-675.0,-265.0,-87.0,-58.0,89.0,101.0,216,125,139,145,138
2025-02-26 14:55:06.098,-685.0,-191.0,-104.0,-33.0,93.0,102.0,214,124,133,144,135
2025-02-26 14:55:06.102,-718.0,-164.0,-125.0,-12.0,92.0,102.0,214,121,136,141,134
2025-02-26 14:55:06.110,-712.0,-148.0,-159.0,7.0,92.0,102.0,210,119,133,140,131
2025-02-26 14:55:06.115,-687.0,-63.0,-192.0,23.0,97.0,102.0,221,132,147,153,144
2025-02-26 14:55:06.119,-701.0,28.0,-202.0,41.0,102.0,99.0,218,128,142,149,141
2025-02-26 14:55:06.127,-688.0,143.0,-216.0,47.0,99.0,94.0,212,123,135,141,134
2025-02-26 14:55:06.130,-715.0,285.0,-244.0,52.0,96.0,86.0,211,120,135,139,133
2025-02-26 14:55:06.135,-777.0,383.0,-306.0,68.0,93.0,80.0,223,135,147,152,144
2025-02-26 14:55:06.139,-788.0,565.0,-339.0,82.0,87.0,66.0,218,128,142,148,139
2025-02-26 14:55:06.147,-907.0,776.0,-394.0,91.0,73.0,41.0,215,124,141,146,138
2025-02-26 14:55:06.152,-982.0,960.0,-449.0,108.0,62.0,7.0,210,119,133,139,132
2025-02-26 14:55:06.152,-1109.0,1041.0,-534.0,129.0,35.0,-13.0,217,127,140,145,138
2025-02-26 14:55:06.163,-1273.0,1249.0,-641.0,152.0,13.0,-52.0,218,127,142,147,139
2025-02-26 14:55:06.168,-1443.0,1478.0,-651.0,171.0,-12.0,-93.0,218,127,139,154,138
2025-02-26 14:55:06.172,-1539.0,1649.0,-671.0,194.0,-41.0,-140.0,216,126,139,146,138
2025-02-26 14:55:06.177,-1544.0,1741.0,-674.0,219.0,-67.0,-192.0,217,127,143,148,140
2025-02-26 14:55:06.184,-1416.0,1801.0,-622.0,225.0,-89.0,-250.0,217,124,137,145,135
2025-02-26 14:55:06.189,-1262.0,1676.0,-484.0,243.0,-102.0,-302.0,213,124,135,142,135
2025-02-26 14:55:06.196,-1044.0,1666.0,-430.0,264.0,-112.0,-352.0,217,128,138,147,140
2025-02-26 14:55:06.204,-735.0,1546.0,-289.0,272.0,-119.0,-404.0,216,126,138,144,137
2025-02-26 14:55:06.208,-455.0,1320.0,-224.0,280.0,-126.0,-452.0,208,119,131,139,133
2025-02-26 14:55:06.213,-75.0,963.0,-163.0,302.0,-126.0,-491.0,209,122,131,138,132
2025-02-26 14:55:06.219,79.0,645.0,-76.0,320.0,-125.0,-526.0,209,120,132,140,133
2025-02-26 14:55:06.225,445.0,558.0,-47.0,350.0,-133.0,-539.0,209,119,129,137,130
2025-02-26 14:55:06.230,715.0,261.0,115.0,371.0,-144.0,-555.0,215,124,137,144,137
2025-02-26 14:55:06.237,1004.0,-206.0,187.0,384.0,-152.0,-554.0,220,131,144,148,143
2025-02-26 14:55:06.242,1396.0,-774.0,406.0,402.0,-160.0,-536.0,216,126,138,145,140
2025-02-26 14:55:06.246,1806.0,-1289.0,751.0,407.0,-173.0,-506.0,213,122,135,142,138
2025-02-26 14:55:06.254,2317.0,-1870.0,1229.0,416.0,-173.0,-471.0,213,122,135,142,138
2025-02-26 14:55:06.258,2973.0,-2883.0,1912.0,421.0,-142.0,-416.0,216,119,138,145,142
2025-02-26 14:55:06.266,3539.0,-4302.0,2753.0,411.0,-89.0,-329.0,216,123,140,144,140
2025-02-26 14:55:06.268,3766.0,-5822.0,3390.0,393.0,-21.0,-201.0,212,119,134,141,136
2025-02-26 14:55:06.275,3605.0,-6774.0,3741.0,389.0,20.0,-43.0,216,123,140,142,141
2025-02-26 14:55:06.280,3552.0,-6529.0,3690.0,328.0,117.0,107.0,211,121,135,138,135
2025-02-26 14:55:06.286,3103.0,-5163.0,3137.0,229.0,211.0,212.0,212,117,132,132,131
2025-02-26 14:55:06.295,2420.0,-4201.0,2641.0,60.0,290.0,239.0,208,118,133,132,131
2025-02-26 14:55:06.299,1611.0,-2292.0,2104.0,-104.0,289.0,259.0,218,125,141,140,137
2025-02-26 14:55:06.304,959.0,-1025.0,1476.0,-211.0,203.0,228.0,215,124,141,137,137
2025-02-26 14:55:06.309,550.0,-513.0,1254.0,-323.0,97.0,188.0,216,125,141,139,134
2025-02-26 14:55:06.315,312.0,-356.0,770.0,-379.0,19.0,157.0,221,130,145,145,140
2025-02-26 14:55:06.320,270.0,-513.0,434.0,-378.0,-41.0,133.0,214,122,137,138,135
2025-02-26 14:55:06.327,219.0,-697.0,269.0,-378.0,-59.0,113.0,207,118,134,133,130
2025-02-26 14:55:06.331,114.0,-1004.0,35.0,-371.0,-80.0,97.0,208,115,128,133,131
2025-02-26 14:55:06.335,32.0,-1044.0,-97.0,-371.0,-67.0,94.0,209,119,132,133,130
2025-02-26 14:55:06.343,-36.0,-1548.0,-99.0,-363.0,-20.0,99.0,214,123,136,140,138
2025-02-26 14:55:06.347,-58.0,-1622.0,-29.0,-353.0,11.0,104.0,212,117,133,140,132
2025-02-26 14:55:06.352,-103.0,-1863.0,68.0,-348.0,15.0,122.0,211,119,132,140,136
2025-02-26 14:55:06.359,69.0,-1861.0,109.0,-291.0,12.0,147.0,211,117,131,138,134
2025-02-26 14:55:06.365,155.0,-1679.0,338.0,-252.0,5.0,165.0,207,115,127,134,131
2025-02-26 14:55:06.369,239.0,-1607.0,464.0,-236.0,6.0,168.0,204,114,125,134,129
2025-02-26 14:55:06.377,247.0,-1285.0,394.0,-216.0,33.0,180.0,218,126,140,147,143
2025-02-26 14:55:06.381,209.0,-1196.0,448.0,-215.0,76.0,191.0,213,123,133,141,139
2025-02-26 14:55:06.385,40.0,-1016.0,311.0,-222.0,103.0,209.0,212,123,134,140,137
2025-02-26 14:55:06.393,-3.0,-876.0,446.0,-243.0,73.0,221.0,213,120,132,140,136
2025-02-26 14:55:06.395,-41.0,-882.0,392.0,-269.0,41.0,220.0,209,118,130,137,133
2025-02-26 14:55:06.402,-165.0,-562.0,155.0,-273.0,-32.0,223.0,207,115,128,137,131
2025-02-26 14:55:06.407,-210.0,-584.0,-20.0,-277.0,-64.0,218.0,212,120,136,143,135
2025-02-26 14:55:06.413,-142.0,-440.0,-246.0,-255.0,-38.0,212.0,212,123,137,142,136
2025-02-26 14:55:06.417,-230.0,-106.0,-356.0,-224.0,17.0,208.0,214,122,137,144,137
2025-02-26 14:55:06.426,-327.0,-166.0,-174.0,-214.0,20.0,198.0,213,121,135,142,136
2025-02-26 14:55:06.430,-354.0,-321.0,-37.0,-212.0,-12.0,178.0,209,121,134,138,133
2025-02-26 14:55:06.437,-279.0,-178.0,136.0,-212.0,-53.0,155.0,213,121,136,144,138
2025-02-26 14:55:06.442,-280.0,-241.0,202.0,-225.0,-65.0,139.0,211,115,131,137,131
2025-02-26 14:55:06.446,-205.0,-297.0,240.0,-235.0,-66.0,139.0,206,115,127,132,129
2025-02-26 14:55:06.454,-222.0,-329.0,210.0,-242.0,-33.0,136.0,205,113,129,133,127
2025-02-26 14:55:06.456,-223.0,-283.0,283.0,-240.0,11.0,139.0,214,124,133,143,137
2025-02-26 14:55:06.463,-275.0,-313.0,265.0,-246.0,38.0,148.0,214,122,138,144,140
2025-02-26 14:55:06.471,-347.0,-318.0,206.0,-240.0,46.0,155.0,212,121,137,142,135
2025-02-26 14:55:06.475,-470.0,-253.0,47.0,-232.0,50.0,159.0,213,121,137,143,137
2025-02-26 14:55:06.480,-534.0,-351.0,-51.0,-220.0,49.0,165.0,208,117,132,140,131
2025-02-26 14:55:06.487,-551.0,-328.0,-180.0,-204.0,48.0,161.0,206,115,129,136,129
2025-02-26 14:55:06.491,-627.0,-299.0,-347.0,-177.0,40.0,161.0,207,114,130,138,131
2025-02-26 14:55:06.496,-697.0,-247.0,-434.0,-155.0,35.0,154.0,214,125,139,146,139
2025-02-26 14:55:06.504,-684.0,-126.0,-446.0,-141.0,26.0,149.0,213,126,138,146,139
2025-02-26 14:55:06.508,-704.0,-38.0,-454.0,-131.0,16.0,137.0,208,123,136,138,139
2025-02-26 14:55:06.512,-666.0,35.0,-380.0,-118.0,6.0,122.0,210,127,134,147,139
2025-02-26 14:55:06.517,-654.0,-28.0,-191.0,-94.0,20.0,121.0,208,122,125,143,137
2025-02-26 14:55:06.523,-624.0,155.0,-459.0,-90.0,12.0,110.0,206,119,130,142,136
2025-02-26 14:55:06.528,-577.0,55.0,-230.0,-64.0,15.0,107.0,204,120,132,141,136
2025-02-26 14:55:06.534,-591.0,100.0,-270.0,-34.0,16.0,98.0,217,134,146,154,151
2025-02-26 14:55:06.541,-545.0,150.0,-235.0,-3.0,23.0,88.0,213,131,142,152,148
2025-02-26 14:55:06.545,-588.0,244.0,-184.0,16.0,24.0,80.0,207,127,138,148,145
2025-02-26 14:55:06.547,-576.0,359.0,-395.0,49.0,20.0,66.0,204,125,135,147,146
2025-02-26 14:55:06.557,-649.0,357.0,-249.0,70.0,10.0,59.0,215,139,149,161,159
2025-02-26 14:55:06.559,-737.0,378.0,-269.0,94.0,6.0,45.0,213,138,149,157,157
2025-02-26 14:55:06.565,-760.0,433.0,-306.0,105.0,-13.0,25.0,210,139,147,156,158
2025-02-26 14:55:06.571,-795.0,564.0,-373.0,135.0,-24.0,2.0,206,135,143,153,156
2025-02-26 14:55:06.577,-868.0,548.0,-308.0,160.0,-43.0,-11.0,206,140,147,156,160
2025-02-26 14:55:06.581,-871.0,657.0,-297.0,196.0,-49.0,-43.0,212,149,156,163,166
2025-02-26 14:55:06.590,-909.0,734.0,-339.0,227.0,-58.0,-65.0,210,154,156,163,171
2025-02-26 14:55:06.593,-1008.0,849.0,-293.0,262.0,-62.0,-91.0,210,152,156,163,169
2025-02-26 14:55:06.595,-1076.0,1004.0,-424.0,279.0,-70.0,-116.0,210,158,157,162,167
2025-02-26 14:55:06.605,-1114.0,1119.0,-408.0,322.0,-68.0,-143.0,211,164,160,164,168
2025-02-26 14:55:06.610,-1208.0,1122.0,-661.0,360.0,-88.0,-173.0,206,159,160,163,166
2025-02-26 14:55:06.618,-1216.0,1110.0,-725.0,390.0,-99.0,-201.0,211,169,163,170,171
2025-02-26 14:55:06.620,-1272.0,1075.0,-854.0,379.0,-133.0,-230.0,205,168,161,168,168
2025-02-26 14:55:06.627,-1339.0,1035.0,-567.0,404.0,-126.0,-257.0,204,166,154,169,169
2025-02-26 14:55:06.631,-1097.0,1053.0,-551.0,433.0,-120.0,-306.0,207,171,161,169,171
2025-02-26 14:55:06.639,-794.0,1164.0,-605.0,426.0,-131.0,-359.0,207,171,165,172,174
2025-02-26 14:55:06.646,-308.0,889.0,-108.0,515.0,-115.0,-384.0,206,174,165,172,176
2025-02-26 14:55:06.650,-164.0,1040.0,41.0,528.0,-92.0,-400.0,206,173,165,172,175
2025-02-26 14:55:06.655,-25.0,491.0,492.0,530.0,-64.0,-418.0,217,186,177,184,189
2025-02-26 14:55:06.663,275.0,314.0,502.0,536.0,-69.0,-430.0,213,184,173,183,186
2025-02-26 14:55:06.668,613.0,136.0,429.0,539.0,-120.0,-438.0,213,183,171,182,183
2025-02-26 14:55:06.672,1027.0,-21.0,337.0,520.0,-187.0,-438.0,211,182,172,181,182
2025-02-26 14:55:06.680,1192.0,-305.0,383.0,498.0,-218.0,-429.0,212,177,169,179,185
2025-02-26 14:55:06.684,1539.0,-653.0,471.0,469.0,-274.0,-414.0,207,182,171,180,183
2025-02-26 14:55:06.688,1804.0,-1058.0,766.0,449.0,-318.0,-402.0,209,183,171,181,181
2025-02-26 14:55:06.696,2124.0,-1344.0,1085.0,410.0,-341.0,-396.0,214,187,175,185,187
2025-02-26 14:55:06.700,2570.0,-2150.0,1349.0,376.0,-367.0,-357.0,208,185,170,179,181
2025-02-26 14:55:06.708,2899.0,-3268.0,1751.0,306.0,-383.0,-293.0,209,182,170,180,182
2025-02-26 14:55:06.710,2583.0,-3858.0,2673.0,129.0,-327.0,-228.0,213,185,172,182,184
2025-02-26 14:55:06.720,2728.0,-5496.0,3368.0,-50.0,-230.0,-109.0,218,193,176,183,189
2025-02-26 14:55:06.723,2460.0,-5387.0,3507.0,-75.0,-228.0,-7.0,217,190,176,187,189
2025-02-26 14:55:06.729,1966.0,-4314.0,4089.0,-29.0,-215.0,82.0,218,191,183,188,190
2025-02-26 14:55:06.736,1662.0,-3632.0,4892.0,8.0,-5.0,173.0,225,197,185,195,196
2025-02-26 14:55:06.741,1619.0,-2751.0,3000.0,-72.0,50.0,244.0,218,192,176,188,190
2025-02-26 14:55:06.746,1232.0,-2681.0,2265.0,-210.0,97.0,288.0,217,191,178,186,188
2025-02-26 14:55:06.754,1095.0,-2214.0,2207.0,-213.0,168.0,309.0,214,187,172,187,186
2025-02-26 14:55:06.758,835.0,-1832.0,1560.0,-227.0,163.0,322.0,217,191,174,183,187
2025-02-26 14:55:06.766,768.0,-1513.0,1292.0,-312.0,98.0,314.0,212,186,172,183,185
2025-02-26 14:55:06.770,749.0,-1296.0,1180.0,-342.0,17.0,297.0,213,187,172,181,183
2025-02-26 14:55:06.774,689.0,-1197.0,954.0,-313.0,-68.0,291.0,218,192,175,187,190
2025-02-26 14:55:06.782,514.0,-999.0,920.0,-268.0,-107.0,280.0,217,192,179,189,191
2025-02-26 14:55:06.786,287.0,-937.0,846.0,-193.0,-57.0,274.0,215,191,176,187,189
2025-02-26 14:55:06.791,93.0,-1075.0,459.0,-171.0,39.0,256.0,216,192,176,188,189
2025-02-26 14:55:06.798,102.0,-1340.0,-48.0,-161.0,132.0,234.0,216,192,175,189,191
2025-02-26 14:55:06.803,-12.0,-1419.0,-340.0,-133.0,161.0,219.0,211,186,169,182,184
2025-02-26 14:55:06.807,-28.0,-1185.0,-33.0,-89.0,172.0,208.0,206,184,170,179,181
2025-02-26 14:55:06.815,56.0,-1025.0,682.0,-41.0,205.0,204.0,208,184,172,182,183
2025-02-26 14:55:06.819,38.0,-889.0,769.0,-17.0,245.0,200.0,214,190,176,188,189
2025-02-26 14:55:06.824,-126.0,-733.0,910.0,-9.0,278.0,197.0,213,189,176,186,187
2025-02-26 14:55:06.831,-306.0,-459.0,217.0,-44.0,226.0,194.0,211,186,174,184,186
2025-02-26 14:55:06.836,-384.0,-559.0,462.0,-34.0,211.0,187.0,216,193,180,187,189
2025-02-26 14:55:06.840,-211.0,-537.0,320.0,-38.0,206.0,187.0,209,186,171,181,184
2025-02-26 14:55:06.848,-238.0,-334.0,341.0,-69.0,209.0,185.0,208,184,173,183,183
2025-02-26 14:55:06.852,-353.0,-214.0,192.0,-94.0,220.0,182.0,210,188,176,183,186
2025-02-26 14:55:06.856,-374.0,-156.0,164.0,-87.0,221.0,185.0,216,192,178,189,191
2025-02-26 14:55:06.864,-369.0,-88.0,68.0,-115.0,226.0,171.0,216,192,180,187,188
2025-02-26 14:55:06.872,-407.0,131.0,277.0,-137.0,236.0,142.0,210,195,174,184,186
2025-02-26 14:55:06.875,-298.0,-77.0,8.0,-137.0,218.0,128.0,209,187,171,182,183
2025-02-26 14:55:06.880,-250.0,-132.0,-45.0,-151.0,207.0,111.0,208,186,177,181,183
2025-02-26 14:55:06.884,-364.0,-182.0,-192.0,-165.0,179.0,107.0,206,182,169,180,182
2025-02-26 14:55:06.886,-476.0,-50.0,61.0,-176.0,152.0,88.0,214,189,176,186,189
2025-02-26 14:55:06.896,-499.0,84.0,44.0,-184.0,133.0,74.0,218,198,185,193,195
2025-02-26 14:55:06.901,-544.0,108.0,104.0,-175.0,95.0,67.0,212,188,178,187,188
2025-02-26 14:55:06.905,-625.0,56.0,184.0,-160.0,79.0,59.0,209,186,171,181,183
2025-02-26 14:55:06.910,-683.0,12.0,83.0,-183.0,58.0,57.0,209,187,171,181,183
2025-02-26 14:55:06.917,-705.0,28.0,-278.0,-230.0,26.0,54.0,216,196,183,191,191
2025-02-26 14:55:06.921,-718.0,40.0,-274.0,-258.0,-8.0,56.0,215,192,181,187,190
2025-02-26 14:55:06.926,-724.0,61.0,-276.0,-252.0,-31.0,47.0,211,188,176,185,187
2025-02-26 14:55:06.934,-717.0,-55.0,-354.0,-224.0,-40.0,43.0,206,185,172,181,182
2025-02-26 14:55:06.938,-804.0,-102.0,-447.0,-204.0,-49.0,39.0,210,186,174,184,186
2025-02-26 14:55:06.942,-874.0,-138.0,-600.0,-177.0,-52.0,31.0,209,186,175,185,184
2025-02-26 14:55:06.950,-889.0,-207.0,-580.0,-146.0,-42.0,26.0,211,190,177,188,189
2025-02-26 14:55:06.955,-827.0,-245.0,-599.0,-110.0,-20.0,18.0,213,190,178,188,188
2025-02-26 14:55:06.959,-754.0,-205.0,-592.0,-73.0,-2.0,9.0,214,191,176,189,189
2025-02-26 14:55:06.965,-741.0,-189.0,-468.0,-53.0,13.0,2.0,209,188,174,187,186
2025-02-26 14:55:06.970,-751.0,-101.0,-352.0,-19.0,14.0,-4.0,207,185,167,181,182
2025-02-26 14:55:06.975,-754.0,-51.0,-274.0,8.0,6.0,-8.0,211,185,171,186,187
2025-02-26 14:55:06.983,-765.0,-17.0,-244.0,33.0,0.0,-13.0,216,190,174,187,189
2025-02-26 14:55:06.987,-732.0,128.0,-237.0,45.0,-4.0,-19.0,211,187,170,185,185
2025-02-26 14:55:06.991,-737.0,286.0,-254.0,68.0,-7.0,-27.0,208,183,166,180,183
2025-02-26 14:55:06.996,-755.0,409.0,-192.0,104.0,-9.0,-35.0,210,186,170,185,184
2025-02-26 14:55:07.003,-813.0,473.0,-142.0,154.0,-9.0,-41.0,212,190,173,187,188
2025-02-26 14:55:07.008,-876.0,604.0,-151.0,208.0,-10.0,-54.0,213,195,171,186,189
2025-02-26 14:55:07.012,-942.0,647.0,-228.0,261.0,-20.0,-70.0,212,188,173,186,187
2025-02-26 14:55:07.019,-986.0,722.0,-336.0,274.0,-35.0,-95.0,212,186,173,184,186
2025-02-26 14:55:07.024,-1022.0,773.0,-218.0,305.0,-37.0,-125.0,207,184,170,181,182
2025-02-26 14:55:07.032,-1035.0,624.0,-159.0,339.0,-37.0,-155.0,203,183,170,183,183
2025-02-26 14:55:07.035,-1108.0,837.0,-278.0,367.0,-53.0,-183.0,211,187,176,187,188
2025-02-26 14:55:07.040,-1225.0,1026.0,-218.0,399.0,-59.0,-200.0,208,184,173,184,185
2025-02-26 14:55:07.048,-1197.0,1086.0,-42.0,432.0,-49.0,-240.0,206,180,168,180,181
2025-02-26 14:55:07.051,-1021.0,1120.0,28.0,448.0,-37.0,-280.0,213,188,177,186,188
2025-02-26 14:55:07.057,-719.0,1133.0,135.0,436.0,-22.0,-326.0,213,192,178,187,191
2025-02-26 14:55:07.062,-409.0,1134.0,210.0,446.0,-27.0,-369.0,214,189,178,189,189
2025-02-26 14:55:07.067,-100.0,942.0,345.0,446.0,-45.0,-403.0,210,187,178,186,189
2025-02-26 14:55:07.073,394.0,771.0,326.0,441.0,-82.0,-434.0,216,193,182,193,191
2025-02-26 14:55:07.079,627.0,425.0,384.0,436.0,-101.0,-456.0,209,184,173,184,183
2025-02-26 14:55:07.086,1044.0,-55.0,461.0,424.0,-142.0,-463.0,207,181,171,183,182
2025-02-26 14:55:07.091,1318.0,-230.0,592.0,407.0,-189.0,-463.0,206,181,169,179,179
2025-02-26 14:55:07.098,1658.0,-567.0,907.0,380.0,-221.0,-454.0,217,193,179,190,188
2025-02-26 14:55:07.102,2053.0,-1274.0,1340.0,332.0,-241.0,-442.0,215,189,178,189,187
2025-02-26 14:55:07.110,2328.0,-2359.0,1556.0,257.0,-266.0,-414.0,215,187,174,186,185
2025-02-26 14:55:07.114,2711.0,-3483.0,2009.0,135.0,-329.0,-359.0,216,189,176,186,185
2025-02-26 14:55:07.122,2982.0,-4344.0,2545.0,-19.0,-453.0,-306.0,216,189,171,188,187
2025-02-26 14:55:07.126,2889.0,-4359.0,3575.0,-115.0,-506.0,-231.0,214,188,170,186,185
2025-02-26 14:55:07.128,2428.0,-3718.0,4099.0,-134.0,-328.0,-133.0,216,187,169,186,186
2025-02-26 14:55:07.139,1782.0,-3928.0,3808.0,-191.0,-133.0,2.0,219,191,172,189,190
2025-02-26 14:55:07.142,1438.0,-3434.0,2463.0,-251.0,-44.0,105.0,217,188,165,187,187
2025-02-26 14:55:07.151,1433.0,-3157.0,1969.0,-182.0,84.0,211.0,215,184,163,184,184
2025-02-26 14:55:07.155,1333.0,-2385.0,2002.0,-175.0,202.0,269.0,217,189,168,188,187
2025-02-26 14:55:07.159,1109.0,-1910.0,1540.0,-209.0,225.0,291.0,216,187,163,184,183
2025-02-26 14:55:07.167,968.0,-1773.0,1263.0,-215.0,214.0,293.0,211,181,158,181,179
2025-02-26 14:55:07.169,861.0,-1655.0,716.0,-194.0,185.0,278.0,211,179,158,178,178
2025-02-26 14:55:07.179,785.0,-1542.0,426.0,-210.0,108.0,261.0,209,180,160,180,177
2025-02-26 14:55:07.183,795.0,-1507.0,528.0,-221.0,49.0,252.0,209,179,157,178,178
2025-02-26 14:55:07.188,824.0,-1428.0,575.0,-222.0,27.0,233.0,213,191,164,184,175
2025-02-26 14:55:07.195,561.0,-1366.0,497.0,-207.0,33.0,220.0,214,185,165,184,183
2025-02-26 14:55:07.200,226.0,-1404.0,408.0,-172.0,73.0,198.0,214,186,167,185,183
2025-02-26 14:55:07.204,-49.0,-1589.0,92.0,-161.0,116.0,173.0,209,182,163,183,180
2025-02-26 14:55:07.211,-7.0,-1532.0,-708.0,-174.0,119.0,163.0,210,182,164,182,179
2025-02-26 14:55:07.213,17.0,-1325.0,-789.0,-162.0,116.0,160.0,209,182,167,183,181
2025-02-26 14:55:07.221,0.0,-1152.0,-485.0,-141.0,125.0,164.0,210,182,165,180,180
2025-02-26 14:55:07.229,190.0,-1128.0,20.0,-134.0,152.0,171.0,210,182,166,183,180
2025-02-26 14:55:07.232,79.0,-1000.0,296.0,-119.0,188.0,182.0,214,184,169,184,182
2025-02-26 14:55:07.238,-56.0,-996.0,331.0,-93.0,205.0,196.0,214,186,178,185,184
2025-02-26 14:55:07.244,36.0,-973.0,327.0,-80.0,189.0,213.0,211,183,170,183,182
2025-02-26 14:55:07.249,82.0,-981.0,9.0,-60.0,169.0,224.0,208,177,165,179,180
2025-02-26 14:55:07.253,103.0,-823.0,274.0,-74.0,154.0,222.0,205,179,166,177,176
2025-02-26 14:55:07.257,53.0,-639.0,281.0,-99.0,144.0,220.0,213,185,172,185,186
2025-02-26 14:55:07.265,-29.0,-478.0,260.0,-117.0,57.0,210.0,214,185,173,183,185
2025-02-26 14:55:07.270,-167.0,-344.0,728.0,-132.0,23.0,196.0,209,182,172,183,182
2025-02-26 14:55:07.274,-114.0,-298.0,318.0,-178.0,37.0,182.0,213,186,173,187,186
2025-02-26 14:55:07.281,-134.0,-47.0,-172.0,-190.0,41.0,170.0,208,182,167,179,182
2025-02-26 14:55:07.286,-278.0,59.0,171.0,-169.0,44.0,162.0,207,180,166,179,179
2025-02-26 14:55:07.290,-342.0,-38.0,165.0,-177.0,46.0,147.0,211,185,174,185,186
2025-02-26 14:55:07.298,-421.0,-120.0,122.0,-219.0,43.0,131.0,215,188,175,187,189
2025-02-26 14:55:07.302,-470.0,-67.0,15.0,-247.0,23.0,116.0,212,182,174,185,185
2025-02-26 14:55:07.306,-466.0,-68.0,-59.0,-308.0,7.0,100.0,207,179,169,179,182
2025-02-26 14:55:07.315,-613.0,-124.0,-120.0,-363.0,-33.0,86.0,206,180,167,178,181
2025-02-26 14:55:07.316,-597.0,-100.0,-100.0,-351.0,-39.0,81.0,208,179,170,179,181
2025-02-26 14:55:07.322,-625.0,-207.0,-195.0,-323.0,-38.0,73.0,214,182,174,185,186
2025-02-26 14:55:07.331,-668.0,-273.0,-138.0,-291.0,-30.0,71.0,214,182,173,185,187
2025-02-26 14:55:07.335,-689.0,-275.0,-129.0,-243.0,-12.0,67.0,219,187,180,190,191
2025-02-26 14:55:07.339,-708.0,-249.0,-232.0,-220.0,-9.0,65.0,211,180,175,185,186
2025-02-26 14:55:07.345,-737.0,-273.0,-260.0,-199.0,-12.0,60.0,210,177,171,182,184
2025-02-26 14:55:07.351,-746.0,-222.0,-327.0,-191.0,-15.0,54.0,208,172,169,180,181
2025-02-26 14:55:07.357,-694.0,-217.0,-332.0,-176.0,-23.0,49.0,209,172,164,180,182
2025-02-26 14:55:07.363,-661.0,-246.0,-332.0,-167.0,-31.0,46.0,209,172,166,182,181
2025-02-26 14:55:07.368,-623.0,-255.0,-269.0,-147.0,-30.0,43.0,213,176,171,182,183
2025-02-26 14:55:07.376,-631.0,-201.0,-254.0,-125.0,-28.0,36.0,216,179,177,188,189
2025-02-26 14:55:07.380,-601.0,-151.0,-245.0,-94.0,-21.0,30.0,216,177,174,186,185
2025-02-26 14:55:07.385,-587.0,-165.0,-170.0,-75.0,-10.0,25.0,214,169,170,183,183
2025-02-26 14:55:07.390,-598.0,-125.0,-139.0,-40.0,3.0,20.0,212,162,167,182,182
2025-02-26 14:55:07.397,-639.0,-120.0,-177.0,-1.0,9.0,15.0,209,162,165,179,179
2025-02-26 14:55:07.400,-655.0,-123.0,-204.0,38.0,22.0,13.0,208,159,161,176,175
2025-02-26 14:55:07.408,-733.0,-120.0,-222.0,60.0,30.0,10.0,212,161,163,179,177
2025-02-26 14:55:07.412,-751.0,35.0,-272.0,70.0,30.0,4.0,213,157,160,177,175
2025-02-26 14:55:07.417,-777.0,42.0,-240.0,98.0,31.0,-1.0,209,149,157,173,167
2025-02-26 14:55:07.421,-824.0,57.0,-339.0,122.0,26.0,-4.0,206,144,151,165,162
2025-02-26 14:55:07.429,-866.0,91.0,-349.0,148.0,20.0,-7.0,211,147,157,167,164
2025-02-26 14:55:07.432,-893.0,177.0,-292.0,162.0,17.0,-13.0,212,142,153,165,159
2025-02-26 14:55:07.438,-990.0,325.0,-419.0,180.0,-2.0,-24.0,209,131,149,161,155
2025-02-26 14:55:07.445,-1025.0,419.0,-425.0,207.0,-12.0,-34.0,208,130,143,153,144
2025-02-26 14:55:07.449,-1064.0,583.0,-393.0,237.0,-34.0,-58.0,206,129,141,150,138
2025-02-26 14:55:07.454,-1172.0,611.0,-261.0,235.0,-54.0,-70.0,210,129,143,149,137
2025-02-26 14:55:07.462,-1191.0,662.0,-270.0,240.0,-73.0,-97.0,211,127,143,149,134
2025-02-26 14:55:07.466,-1044.0,767.0,-166.0,251.0,-72.0,-130.0,210,123,139,146,129
2025-02-26 14:55:07.471,-977.0,802.0,-94.0,259.0,-60.0,-165.0,209,120,134,141,123
2025-02-26 14:55:07.478,-923.0,880.0,-209.0,273.0,-66.0,-205.0,211,118,131,136,120
2025-02-26 14:55:07.483,-935.0,948.0,-5.0,309.0,-29.0,-240.0,208,115,128,134,115
2025-02-26 14:55:07.487,-862.0,916.0,946.0,224.0,24.0,-279.0,199,110,122,125,110
2025-02-26 14:55:07.495,-610.0,647.0,364.0,139.0,60.0,-294.0,204,107,118,127,110
2025-02-26 14:55:07.498,-264.0,534.0,471.0,153.0,25.0,-336.0,209,114,129,131,117
2025-02-26 14:55:07.503,-214.0,297.0,746.0,260.0,-11.0,-370.0,209,114,127,133,119
2025-02-26 14:55:07.510,-130.0,2.0,714.0,303.0,-38.0,-388.0,208,110,127,133,121
2025-02-26 14:55:07.515,226.0,-200.0,624.0,355.0,-61.0,-408.0,210,114,128,134,122
2025-02-26 14:55:07.520,429.0,70.0,144.0,337.0,-68.0,-454.0,204,108,124,128,118
2025-02-26 14:55:07.528,977.0,98.0,-556.0,314.0,-82.0,-472.0,201,105,118,126,114
2025-02-26 14:55:07.531,926.0,199.0,-337.0,307.0,-24.0,-481.0,209,114,128,133,122
2025-02-26 14:55:07.535,1064.0,-507.0,-24.0,304.0,41.0,-467.0,209,114,131,136,125
2025-02-26 14:55:07.543,746.0,-1242.0,332.0,287.0,-7.0,-484.0,208,112,127,132,123
2025-02-26 14:55:07.547,937.0,-1713.0,623.0,317.0,-96.0,-491.0,202,109,133,132,122
2025-02-26 14:55:07.552,1716.0,-2580.0,1128.0,363.0,-137.0,-474.0,203,108,123,127,119
2025-02-26 14:55:07.560,2198.0,-3495.0,1359.0,398.0,-177.0,-395.0,204,108,127,130,120
2025-02-26 14:55:07.564,2807.0,-4358.0,1860.0,413.0,-133.0,-249.0,203,109,125,126,119
2025-02-26 14:55:07.573,2627.0,-4843.0,2701.0,369.0,-40.0,-93.0,203,108,128,127,119
2025-02-26 14:55:07.577,2796.0,-4941.0,3135.0,300.0,40.0,24.0,207,110,129,128,122
2025-02-26 14:55:07.581,2547.0,-4544.0,2944.0,210.0,72.0,69.0,207,113,129,128,121
2025-02-26 14:55:07.589,2141.0,-3197.0,2347.0,66.0,111.0,139.0,209,121,132,130,128
2025-02-26 14:55:07.593,1792.0,-2060.0,1972.0,-101.0,141.0,176.0,209,115,135,132,125
2025-02-26 14:55:07.598,1262.0,-1222.0,1233.0,-236.0,103.0,180.0,211,115,132,133,125
2025-02-26 14:55:07.605,747.0,-895.0,768.0,-331.0,25.0,169.0,209,115,135,131,125
2025-02-26 14:55:07.609,373.0,-1075.0,321.0,-368.0,-34.0,160.0,209,112,130,131,124
2025-02-26 14:55:07.613,240.0,-1304.0,-39.0,-423.0,-48.0,150.0,209,113,131,132,127
2025-02-26 14:55:07.622,222.0,-1582.0,-251.0,-435.0,-66.0,142.0,205,109,125,129,120
2025-02-26 14:55:07.625,268.0,-1860.0,-211.0,-416.0,-78.0,136.0,203,106,125,129,119
2025-02-26 14:55:07.634,321.0,-2005.0,-22.0,-365.0,-83.0,133.0,203,106,122,127,118
2025-02-26 14:55:07.638,396.0,-2147.0,191.0,-309.0,-84.0,136.0,213,116,132,136,128
2025-02-26 14:55:07.642,418.0,-2197.0,287.0,-254.0,-83.0,146.0,210,114,130,135,127
2025-02-26 14:55:07.650,553.0,-2180.0,453.0,-197.0,-90.0,159.0,208,114,127,134,126
2025-02-26 14:55:07.654,548.0,-2063.0,555.0,-173.0,-88.0,176.0,212,119,133,138,131
2025-02-26 14:55:07.659,543.0,-1863.0,605.0,-139.0,-67.0,189.0,209,114,127,135,127
2025-02-26 14:55:07.667,485.0,-1671.0,619.0,-117.0,-58.0,200.0,204,110,126,130,124
2025-02-26 14:55:07.671,432.0,-1485.0,599.0,-105.0,-48.0,211.0,204,111,128,129,121
2025-02-26 14:55:07.675,359.0,-1306.0,575.0,-98.0,-43.0,217.0,205,115,127,133,124
2025-02-26 14:55:07.684,247.0,-1184.0,530.0,-100.0,-44.0,219.0,209,117,133,136,127
2025-02-26 14:55:07.688,174.0,-1002.0,545.0,-111.0,-47.0,223.0,210,116,132,133,127
2025-02-26 14:55:07.693,67.0,-805.0,559.0,-123.0,-52.0,223.0,207,113,133,136,125
2025-02-26 14:55:07.700,-6.0,-724.0,508.0,-123.0,-56.0,221.0,210,116,131,136,127
2025-02-26 14:55:07.704,-84.0,-593.0,457.0,-136.0,-41.0,219.0,204,110,127,132,123
2025-02-26 14:55:07.710,-145.0,-474.0,430.0,-141.0,-33.0,214.0,202,108,125,130,122
2025-02-26 14:55:07.716,-216.0,-429.0,469.0,-145.0,-23.0,202.0,210,115,130,136,128
2025-02-26 14:55:07.720,-267.0,-348.0,460.0,-141.0,-19.0,195.0,205,109,126,131,122
2025-02-26 14:55:07.728,-314.0,-340.0,458.0,-130.0,-14.0,182.0,209,116,135,137,128
2025-02-26 14:55:07.732,-344.0,-314.0,486.0,-127.0,-8.0,170.0,211,116,131,137,128
2025-02-26 14:55:07.736,-342.0,-271.0,454.0,-124.0,5.0,160.0,218,118,133,135,129
2025-02-26 14:55:07.745,-344.0,-282.0,469.0,-123.0,23.0,152.0,211,117,132,137,128
2025-02-26 14:55:07.748,-376.0,-278.0,401.0,-124.0,35.0,147.0,205,113,126,131,123
2025-02-26 14:55:07.753,-395.0,-272.0,351.0,-114.0,55.0,142.0,203,110,124,129,123
2025-02-26 14:55:07.760,-386.0,-275.0,305.0,-107.0,67.0,141.0,204,110,124,130,122
2025-02-26 14:55:07.765,-437.0,-292.0,242.0,-102.0,71.0,137.0,210,118,132,136,128
2025-02-26 14:55:07.769,-459.0,-266.0,226.0,-101.0,71.0,134.0,209,117,130,136,128
2025-02-26 14:55:07.777,-507.0,-271.0,124.0,-95.0,74.0,133.0,214,120,133,140,132
2025-02-26 14:55:07.781,-520.0,-244.0,55.0,-94.0,81.0,133.0,208,116,129,136,128
2025-02-26 14:55:07.783,-542.0,-226.0,-35.0,-87.0,85.0,133.0,204,109,124,128,121
2025-02-26 14:55:07.793,-586.0,-228.0,-96.0,-81.0,88.0,132.0,202,107,123,129,120
2025-02-26 14:55:07.795,-599.0,-138.0,-188.0,-75.0,85.0,126.0,209,119,133,143,132
2025-02-26 14:55:07.803,-649.0,-82.0,-201.0,-73.0,78.0,120.0,209,117,132,137,129
2025-02-26 14:55:07.807,-683.0,-6.0,-266.0,-72.0,68.0,107.0,208,113,138,135,126
2025-02-26 14:55:07.815,-648.0,66.0,-291.0,-66.0,61.0,94.0,204,111,126,130,123
2025-02-26 14:55:07.818,-713.0,83.0,-334.0,-65.0,49.0,80.0,205,113,130,133,123
2025-02-26 14:55:07.823,-699.0,80.0,-339.0,-54.0,39.0,73.0,209,117,131,136,129
2025-02-26 14:55:07.831,-718.0,95.0,-343.0,-49.0,32.0,59.0,209,117,132,136,128
2025-02-26 14:55:07.835,-726.0,110.0,-336.0,-42.0,24.0,47.0,213,119,135,139,134
2025-02-26 14:55:07.839,-727.0,118.0,-302.0,-31.0,19.0,36.0,205,112,127,132,123
2025-02-26 14:55:07.843,-733.0,137.0,-274.0,-16.0,13.0,30.0,203,110,125,129,122
2025-02-26 14:55:07.851,-729.0,160.0,-254.0,2.0,8.0,20.0,209,116,131,136,129
2025-02-26 14:55:07.855,-768.0,199.0,-235.0,11.0,5.0,9.0,212,120,135,137,130
2025-02-26 14:55:07.859,-784.0,275.0,-224.0,31.0,3.0,-6.0,205,112,127,132,123
2025-02-26 14:55:07.867,-822.0,314.0,-229.0,50.0,0.0,-12.0,207,114,130,134,126
2025-02-26 14:55:07.871,-890.0,387.0,-242.0,69.0,-3.0,-26.0,210,116,133,135,128
2025-02-26 14:55:07.874,-993.0,486.0,-252.0,79.0,-9.0,-40.0,210,116,132,140,131
2025-02-26 14:55:07.880,-1101.0,657.0,-273.0,99.0,-11.0,-57.0,206,113,128,133,124
2025-02-26 14:55:07.886,-1186.0,849.0,-306.0,118.0,-16.0,-77.0,202,108,124,128,122
2025-02-26 14:55:07.892,-1419.0,1108.0,-328.0,147.0,-24.0,-87.0,202,112,126,130,122
2025-02-26 14:55:07.898,-1562.0,1232.0,-304.0,174.0,-33.0,-113.0,210,114,127,137,126
2025-02-26 14:55:07.905,-1544.0,1480.0,-212.0,207.0,-41.0,-149.0,207,117,130,138,130
2025-02-26 14:55:07.908,-1398.0,1742.0,-139.0,241.0,-48.0,-206.0,208,117,133,136,131
2025-02-26 14:55:07.916,-1196.0,1931.0,-118.0,270.0,-48.0,-274.0,213,120,136,142,134
2025-02-26 14:55:07.920,-906.0,1968.0,-78.0,292.0,-51.0,-345.0,210,120,132,138,130
2025-02-26 14:55:07.927,-543.0,1812.0,-50.0,301.0,-57.0,-415.0,209,118,131,135,129
2025-02-26 14:55:07.933,-90.0,1554.0,-35.0,306.0,-70.0,-478.0,207,115,128,134,129
2025-02-26 14:55:07.936,383.0,1190.0,12.0,311.0,-86.0,-526.0,206,115,118,136,128
2025-02-26 14:55:07.941,610.0,709.0,71.0,307.0,-94.0,-554.0,205,111,124,132,126
2025-02-26 14:55:07.947,1030.0,379.0,155.0,310.0,-115.0,-563.0,203,111,124,127,124
2025-02-26 14:55:07.953,1497.0,-293.0,281.0,311.0,-141.0,-562.0,209,119,131,138,132
2025-02-26 14:55:07.961,1944.0,-839.0,368.0,295.0,-162.0,-547.0,210,118,132,138,133
2025-02-26 14:55:07.966,2251.0,-1557.0,615.0,276.0,-167.0,-521.0,208,116,131,139,133
2025-02-26 14:55:07.970,2515.0,-2525.0,784.0,280.0,-170.0,-488.0,209,116,131,137,132
2025-02-26 14:55:07.978,2724.0,-3520.0,1012.0,298.0,-182.0,-438.0,213,120,136,139,136
2025-02-26 14:55:07.982,3027.0,-4633.0,1560.0,301.0,-165.0,-356.0,210,117,137,140,134
2025-02-26 14:55:07.990,3278.0,-5778.0,2151.0,305.0,-102.0,-237.0,208,114,132,134,136
2025-02-26 14:55:07.995,3159.0,-6295.0,2611.0,270.0,-3.0,-96.0,215,119,136,138,137
2025-02-26 14:55:07.999,2847.0,-5820.0,2497.0,259.0,95.0,40.0,209,113,132,132,132
2025-02-26 14:55:08.006,2651.0,-4599.0,2045.0,238.0,134.0,142.0,206,109,132,128,128
2025-02-26 14:55:08.011,2223.0,-3077.0,1695.0,132.0,184.0,198.0,207,111,131,124,127
2025-02-26 14:55:08.013,1764.0,-1761.0,1339.0,-9.0,198.0,212.0,208,112,133,130,129
2025-02-26 14:55:08.023,1217.0,-1204.0,873.0,-133.0,151.0,210.0,212,117,135,134,131
2025-02-26 14:55:08.027,805.0,-644.0,506.0,-220.0,57.0,199.0,212,117,130,133,131
2025-02-26 14:55:08.035,567.0,-635.0,371.0,-283.0,-30.0,185.0,213,116,135,135,132
2025-02-26 14:55:08.039,404.0,-878.0,153.0,-292.0,-84.0,176.0,211,118,134,136,133
2025-02-26 14:55:08.043,273.0,-1184.0,60.0,-290.0,-87.0,164.0,209,117,130,135,132
2025-02-26 14:55:08.051,267.0,-1496.0,-6.0,-336.0,-72.0,147.0,206,111,126,132,129
2025-02-26 14:55:08.055,200.0,-1664.0,-103.0,-336.0,-33.0,130.0,211,118,131,138,134
2025-02-26 14:55:08.061,132.0,-1817.0,45.0,-295.0,-22.0,122.0,205,111,124,130,126
2025-02-26 14:55:08.068,261.0,-2035.0,153.0,-237.0,-34.0,115.0,209,118,128,138,136
2025-02-26 14:55:08.072,130.0,-2023.0,220.0,-188.0,-53.0,122.0,211,120,128,138,133
2025-02-26 14:55:08.076,297.0,-2082.0,363.0,-160.0,-64.0,144.0,212,119,123,139,138
2025-02-26 14:55:08.084,404.0,-2036.0,448.0,-133.0,-67.0,165.0,208,118,129,138,137
2025-02-26 14:55:08.087,458.0,-1838.0,522.0,-101.0,-55.0,184.0,208,117,128,137,135
2025-02-26 14:55:08.091,534.0,-1648.0,596.0,-89.0,-41.0,204.0,211,116,127,138,136
2025-02-26 14:55:08.101,492.0,-1483.0,657.0,-85.0,-7.0,218.0,206,112,124,133,131
2025-02-26 14:55:08.105,469.0,-1420.0,683.0,-94.0,20.0,227.0,205,112,125,133,131
2025-02-26 14:55:08.110,391.0,-1290.0,685.0,-120.0,39.0,240.0,210,118,131,141,137
2025-02-26 14:55:08.117,359.0,-1146.0,759.0,-175.0,41.0,254.0,214,120,134,141,137
2025-02-26 14:55:08.122,299.0,-1097.0,743.0,-213.0,34.0,265.0,208,117,129,137,136
2025-02-26 14:55:08.126,143.0,-840.0,459.0,-185.0,22.0,274.0,200,114,128,131,131
2025-02-26 14:55:08.134,162.0,-693.0,358.0,-156.0,25.0,278.0,204,115,127,132,130
2025-02-26 14:55:08.135,106.0,-632.0,380.0,-186.0,60.0,284.0,204,113,129,133,129
2025-02-26 14:55:08.142,30.0,-412.0,348.0,-175.0,105.0,286.0,211,120,139,140,134
2025-02-26 14:55:08.150,-10.0,-352.0,389.0,-147.0,139.0,295.0,211,119,136,140,134
2025-02-26 14:55:08.154,-133.0,-155.0,472.0,-135.0,111.0,283.0,208,119,133,141,132
2025-02-26 14:55:08.159,-240.0,-8.0,556.0,-138.0,37.0,257.0,211,121,137,139,132
2025-02-26 14:55:08.166,-251.0,-43.0,646.0,-183.0,26.0,240.0,205,115,132,135,128
2025-02-26 14:55:08.170,-235.0,44.0,303.0,-199.0,54.0,234.0,205,114,129,136,127
2025-02-26 14:55:08.175,-272.0,238.0,180.0,-165.0,87.0,222.0,213,124,142,146,139
2025-02-26 14:55:08.183,-360.0,252.0,216.0,-137.0,107.0,204.0,211,125,139,142,137
2025-02-26 14:55:08.187,-441.0,108.0,180.0,-130.0,123.0,188.0,209,121,135,139,133
2025-02-26 14:55:08.191,-483.0,90.0,128.0,-111.0,144.0,173.0,207,119,134,138,133
2025-02-26 14:55:08.199,-523.0,-23.0,-123.0,-90.0,143.0,155.0,202,122,134,134,134
2025-02-26 14:55:08.203,-652.0,-108.0,-270.0,-93.0,134.0,148.0,205,120,132,141,134
2025-02-26 14:55:08.208,-712.0,-114.0,-324.0,-99.0,113.0,136.0,207,123,135,143,137
2025-02-26 14:55:08.213,-675.0,-163.0,-297.0,-90.0,101.0,130.0,211,128,143,151,144
2025-02-26 14:55:08.220,-713.0,-184.0,-306.0,-74.0,94.0,125.0,208,127,139,147,142
2025-02-26 14:55:08.224,-630.0,-209.0,-283.0,-67.0,86.0,122.0,210,124,137,147,140
2025-02-26 14:55:08.236,-494.0,-216.0,-201.0,-52.0,89.0,125.0,206,125,140,147,140
2025-02-26 14:55:08.238,-492.0,-187.0,-161.0,-30.0,94.0,123.0,207,126,138,147,141
2025-02-26 14:55:08.241,-430.0,-55.0,-174.0,-2.0,106.0,116.0,203,126,139,144,139
2025-02-26 14:55:08.249,-446.0,-72.0,-309.0,17.0,121.0,114.0,203,128,142,146,141
2025-02-26 14:55:08.252,-559.0,135.0,-400.0,42.0,120.0,109.0,207,135,147,150,146
2025-02-26 14:55:08.256,-665.0,311.0,-411.0,68.0,116.0,98.0,208,139,150,152,149
2025-02-26 14:55:08.263,-769.0,319.0,-650.0,82.0,110.0,87.0,204,139,149,151,147
2025-02-26 14:55:08.269,-810.0,460.0,-789.0,125.0,100.0,69.0,201,138,146,143,143
2025-02-26 14:55:08.274,-913.0,522.0,-921.0,146.0,76.0,56.0,199,140,144,144,143
2025-02-26 14:55:08.280,-1030.0,537.0,-1062.0,166.0,61.0,30.0,206,151,154,153,153
2025-02-26 14:55:08.285,-1022.0,898.0,-1089.0,164.0,39.0,-12.0,206,150,153,148,149
2025-02-26 14:55:08.290,-976.0,952.0,-878.0,175.0,-10.0,-45.0,205,152,154,149,150
2025-02-26 14:55:08.297,-1059.0,889.0,-526.0,167.0,-45.0,-83.0,209,160,159,156,156
2025-02-26 14:55:08.302,-1089.0,1035.0,-683.0,165.0,-64.0,-106.0,200,152,154,145,147
2025-02-26 14:55:08.306,-1176.0,1095.0,-441.0,219.0,-75.0,-111.0,199,153,160,145,146
2025-02-26 14:55:08.313,-1489.0,905.0,-629.0,258.0,-96.0,-133.0,197,154,160,144,146
2025-02-26 14:55:08.317,-1385.0,708.0,-491.0,259.0,-117.0,-163.0,201,158,163,148,149
2025-02-26 14:55:08.321,-1115.0,709.0,-651.0,302.0,-121.0,-176.0,198,154,158,143,145
2025-02-26 14:55:08.330,-858.0,782.0,-320.0,335.0,-108.0,-209.0,196,157,163,145,143
2025-02-26 14:55:08.334,-770.0,723.0,-521.0,363.0,-83.0,-246.0,205,170,176,156,155
2025-02-26 14:55:08.343,-650.0,734.0,-559.0,416.0,-68.0,-282.0,202,167,173,152,150
2025-02-26 14:55:08.347,-535.0,573.0,-641.0,467.0,-62.0,-315.0,202,167,171,152,147
2025-02-26 14:55:08.351,-424.0,595.0,-540.0,485.0,-68.0,-342.0,199,167,175,153,149
2025-02-26 14:55:08.359,-218.0,504.0,-594.0,521.0,-88.0,-366.0,199,162,176,155,146
2025-02-26 14:55:08.364,55.0,388.0,-616.0,548.0,-102.0,-405.0,195,166,171,151,144
2025-02-26 14:55:08.367,357.0,422.0,-520.0,558.0,-136.0,-427.0,192,164,168,149,143
2025-02-26 14:55:08.376,496.0,334.0,-125.0,565.0,-175.0,-436.0,194,172,174,155,151
2025-02-26 14:55:08.380,750.0,260.0,350.0,576.0,-214.0,-451.0,194,175,176,156,150
2025-02-26 14:55:08.387,1145.0,46.0,517.0,590.0,-259.0,-456.0,193,176,177,156,153
2025-02-26 14:55:08.389,1393.0,-355.0,904.0,579.0,-309.0,-437.0,193,176,174,155,152
2025-02-26 14:55:08.397,1432.0,-1007.0,1528.0,561.0,-355.0,-420.0,194,183,177,158,155
2025-02-26 14:55:08.401,1767.0,-1335.0,1807.0,517.0,-390.0,-383.0,192,185,174,158,154
2025-02-26 14:55:08.409,2387.0,-2056.0,2586.0,455.0,-384.0,-321.0,189,185,172,151,152
2025-02-26 14:55:08.416,2776.0,-2628.0,3376.0,380.0,-335.0,-233.0,194,189,175,156,156
2025-02-26 14:55:08.421,3039.0,-3230.0,3716.0,295.0,-255.0,-134.0,190,188,174,154,154
2025-02-26 14:55:08.425,3140.0,-3355.0,4116.0,189.0,-154.0,-27.0,189,189,173,153,154
2025-02-26 14:55:08.433,2804.0,-3225.0,4139.0,82.0,-57.0,68.0,185,184,171,150,152
2025-02-26 14:55:08.437,2652.0,-3049.0,3963.0,-40.0,-17.0,154.0,185,188,172,149,149
2025-02-26 14:55:08.445,2102.0,-2670.0,3456.0,-161.0,52.0,219.0,182,187,172,148,148
2025-02-26 14:55:08.448,1509.0,-2429.0,2698.0,-254.0,85.0,241.0,180,186,169,145,147
2025-02-26 14:55:08.454,1041.0,-2039.0,2111.0,-326.0,88.0,270.0,182,188,171,150,149
2025-02-26 14:55:08.462,695.0,-1720.0,1663.0,-372.0,78.0,280.0,187,193,177,153,153
2025-02-26 14:55:08.466,499.0,-1407.0,1426.0,-390.0,60.0,276.0,184,191,173,153,152
2025-02-26 14:55:08.468,388.0,-1238.0,1059.0,-373.0,39.0,258.0,182,191,174,153,151
2025-02-26 14:55:08.478,294.0,-1178.0,858.0,-361.0,26.0,230.0,182,192,175,152,152
2025-02-26 14:55:08.480,160.0,-1264.0,741.0,-317.0,13.0,199.0,179,188,172,151,147
2025-02-26 14:55:08.487,125.0,-1284.0,664.0,-274.0,7.0,167.0,185,185,170,149,144
2025-02-26 14:55:08.494,98.0,-1243.0,687.0,-238.0,3.0,154.0,176,186,170,148,146
2025-02-26 14:55:08.498,159.0,-1223.0,698.0,-207.0,0.0,133.0,177,194,177,153,151
2025-02-26 14:55:08.503,251.0,-1112.0,694.0,-183.0,-1.0,118.0,179,192,178,156,152
2025-02-26 14:55:08.511,262.0,-1044.0,720.0,-176.0,-3.0,111.0,178,189,178,154,150
2025-02-26 14:55:08.515,283.0,-1030.0,794.0,-162.0,-3.0,113.0,184,193,180,158,154
2025-02-26 14:55:08.515,258.0,-1060.0,810.0,-151.0,-5.0,123.0,175,186,172,152,146
2025-02-26 14:55:08.527,222.0,-1056.0,805.0,-141.0,-7.0,136.0,173,185,171,149,145
2025-02-26 14:55:08.531,250.0,-1033.0,819.0,-140.0,-2.0,143.0,176,187,171,151,145
2025-02-26 14:55:08.536,228.0,-1022.0,874.0,-133.0,4.0,160.0,181,194,178,158,154
2025-02-26 14:55:08.541,183.0,-983.0,817.0,-131.0,11.0,179.0,180,191,180,157,152
2025-02-26 14:55:08.547,106.0,-868.0,779.0,-127.0,19.0,196.0,176,185,174,150,148
2025-02-26 14:55:08.552,55.0,-760.0,712.0,-121.0,22.0,212.0,176,188,171,150,146
2025-02-26 14:55:08.560,30.0,-600.0,622.0,-131.0,26.0,223.0,176,188,175,155,148
2025-02-26 14:55:08.564,-35.0,-515.0,589.0,-143.0,34.0,228.0,179,192,180,158,153
2025-02-26 14:55:08.565,-87.0,-367.0,540.0,-157.0,35.0,231.0,180,191,178,155,152
2025-02-26 14:55:08.576,-158.0,-242.0,508.0,-170.0,36.0,229.0,181,194,180,161,154
2025-02-26 14:55:08.580,-224.0,-122.0,504.0,-189.0,40.0,221.0,178,190,180,157,151
2025-02-26 14:55:08.584,-291.0,-88.0,449.0,-205.0,38.0,211.0,173,184,173,152,145
2025-02-26 14:55:08.589,-372.0,-39.0,383.0,-219.0,36.0,205.0,175,185,171,151,144
2025-02-26 14:55:08.595,-370.0,-43.0,395.0,-238.0,37.0,193.0,182,194,181,160,154
2025-02-26 14:55:08.601,-371.0,-25.0,357.0,-244.0,39.0,179.0,180,191,180,157,151
2025-02-26 14:55:08.605,-395.0,-56.0,288.0,-245.0,45.0,164.0,179,190,178,157,149
2025-02-26 14:55:08.613,-442.0,-65.0,241.0,-243.0,54.0,153.0,176,187,176,155,148
2025-02-26 14:55:08.617,-456.0,-79.0,188.0,-233.0,60.0,143.0,174,184,175,152,146
2025-02-26 14:55:08.619,-507.0,-100.0,100.0,-217.0,66.0,140.0,173,185,176,154,144
2025-02-26 14:55:08.629,-581.0,-103.0,19.0,-204.0,73.0,134.0,179,189,182,158,149
2025-02-26 14:55:08.634,-627.0,-101.0,-20.0,-185.0,78.0,132.0,181,189,181,158,149
2025-02-26 14:55:08.638,-674.0,-70.0,-74.0,-169.0,82.0,130.0,180,188,179,157,150
2025-02-26 14:55:08.644,-707.0,-5.0,-160.0,-160.0,83.0,127.0,176,184,178,155,148
2025-02-26 14:55:08.650,-708.0,61.0,-250.0,-145.0,81.0,123.0,173,182,176,153,147
2025-02-26 14:55:08.655,-759.0,96.0,-300.0,-129.0,73.0,121.0,176,186,179,155,148
2025-02-26 14:55:08.661,-799.0,135.0,-318.0,-115.0,68.0,118.0,179,188,181,156,150
2025-02-26 14:55:08.666,-823.0,171.0,-333.0,-99.0,62.0,112.0,176,185,181,157,148
2025-02-26 14:55:08.668,-852.0,203.0,-343.0,-83.0,57.0,104.0,178,187,179,159,149
2025-02-26 14:55:08.679,-840.0,271.0,-336.0,-72.0,52.0,94.0,176,186,184,156,148
2025-02-26 14:55:08.682,-866.0,326.0,-364.0,-48.0,51.0,82.0,170,181,173,151,143
2025-02-26 14:55:08.687,-859.0,353.0,-426.0,-20.0,46.0,75.0,171,171,174,150,143
2025-02-26 14:55:08.695,-871.0,436.0,-436.0,12.0,39.0,59.0,179,185,178,158,148
2025-02-26 14:55:08.698,-905.0,528.0,-436.0,28.0,36.0,42.0,175,184,182,159,148
2025-02-26 14:55:08.704,-995.0,607.0,-349.0,56.0,39.0,21.0,174,181,176,153,143
2025-02-26 14:55:08.708,-996.0,681.0,-477.0,84.0,35.0,9.0,171,178,175,152,142
2025-02-26 14:55:08.715,-1041.0,753.0,-494.0,111.0,29.0,-18.0,178,183,181,156,149
2025-02-26 14:55:08.720,-1104.0,907.0,-503.0,136.0,21.0,-50.0,178,184,179,158,149
2025-02-26 14:55:08.724,-1181.0,1013.0,-515.0,149.0,11.0,-85.0,175,182,177,156,146
2025-02-26 14:55:08.732,-1228.0,1093.0,-494.0,173.0,0.0,-125.0,176,180,177,155,145
2025-02-26 14:55:08.736,-1257.0,1150.0,-490.0,198.0,-6.0,-166.0,175,180,179,154,144
2025-02-26 14:55:08.740,-1254.0,1179.0,-495.0,217.0,-20.0,-207.0,175,179,178,153,142
2025-02-26 14:55:08.748,-1202.0,1205.0,-430.0,233.0,-32.0,-248.0,170,175,173,150,140
2025-02-26 14:55:08.752,-1077.0,1207.0,-385.0,247.0,-38.0,-293.0,172,175,175,151,142
2025-02-26 14:55:08.760,-890.0,1161.0,-305.0,267.0,-44.0,-316.0,173,177,176,150,141
2025-02-26 14:55:08.765,-651.0,1050.0,-248.0,291.0,-50.0,-358.0,173,178,177,152,143
2025-02-26 14:55:08.769,-403.0,815.0,-190.0,330.0,-54.0,-395.0,173,179,180,156,147
2025-02-26 14:55:08.777,-96.0,544.0,-165.0,368.0,-57.0,-428.0,178,182,184,159,154
2025-02-26 14:55:08.781,176.0,302.0,-143.0,395.0,-68.0,-455.0,174,181,181,157,148
2025-02-26 14:55:08.785,497.0,127.0,-106.0,407.0,-86.0,-475.0,171,177,177,154,146
2025-02-26 14:55:08.793,769.0,-159.0,-51.0,443.0,-114.0,-489.0,167,174,176,153,145
2025-02-26 14:55:08.795,895.0,-433.0,42.0,479.0,-132.0,-499.0,171,176,174,152,145
2025-02-26 14:55:08.805,1158.0,-652.0,270.0,504.0,-173.0,-502.0,171,175,176,153,147
2025-02-26 14:55:08.810,1472.0,-863.0,614.0,505.0,-217.0,-498.0,170,174,173,151,145
2025-02-26 14:55:08.814,1818.0,-1322.0,1233.0,501.0,-261.0,-486.0,181,185,183,162,154
2025-02-26 14:55:08.821,2138.0,-2107.0,1756.0,492.0,-299.0,-445.0,176,178,177,158,155
2025-02-26 14:55:08.825,2493.0,-2720.0,2414.0,489.0,-311.0,-377.0,177,179,177,157,152
2025-02-26 14:55:08.834,2956.0,-3553.0,2759.0,468.0,-283.0,-280.0,176,181,177,157,154
2025-02-26 14:55:08.838,3294.0,-3898.0,3387.0,426.0,-210.0,-170.0,179,173,179,157,153
2025-02-26 14:55:08.843,3270.0,-3962.0,3793.0,340.0,-115.0,-49.0,178,181,177,155,154
2025-02-26 14:55:08.850,3040.0,-3473.0,3965.0,212.0,-18.0,56.0,179,181,177,153,154
2025-02-26 14:55:08.855,2589.0,-2898.0,3905.0,49.0,62.0,142.0,185,187,182,159,158
2025-02-26 14:55:08.863,1972.0,-2309.0,3577.0,-38.0,119.0,199.0,180,182,178,152,151
2025-02-26 14:55:08.867,1437.0,-1711.0,2955.0,-200.0,142.0,233.0,173,177,172,148,145
2025-02-26 14:55:08.872,1209.0,-1396.0,2231.0,-334.0,139.0,248.0,174,176,173,147,145
2025-02-26 14:55:08.879,865.0,-1242.0,1739.0,-427.0,128.0,249.0,178,173,172,150,148
2025-02-26 14:55:08.884,668.0,-1169.0,1286.0,-478.0,113.0,244.0,173,175,171,147,144
2025-02-26 14:55:08.887,517.0,-1258.0,896.0,-483.0,94.0,240.0,171,170,171,148,142
2025-02-26 14:55:08.896,427.0,-1289.0,644.0,-458.0,78.0,229.0,179,179,181,160,153
2025-02-26 14:55:08.897,409.0,-1421.0,500.0,-411.0,61.0,214.0,174,176,178,155,148
2025-02-26 14:55:08.904,310.0,-1655.0,353.0,-362.0,45.0,201.0,172,174,179,156,149
2025-02-26 14:55:08.910,213.0,-1817.0,372.0,-332.0,33.0,190.0,166,171,174,152,145
2025-02-26 14:55:08.916,176.0,-1770.0,402.0,-281.0,27.0,184.0,169,173,175,153,146
2025-02-26 14:55:08.920,204.0,-1569.0,490.0,-245.0,18.0,188.0,167,170,173,150,143
2025-02-26 14:55:08.928,267.0,-1483.0,545.0,-224.0,12.0,192.0,170,166,171,147,142
2025-02-26 14:55:08.933,289.0,-1361.0,517.0,-215.0,6.0,208.0,174,175,181,156,151
2025-02-26 14:55:08.935,305.0,-1262.0,543.0,-206.0,1.0,231.0,174,175,179,158,151
2025-02-26 14:55:08.945,286.0,-1224.0,520.0,-201.0,1.0,256.0,174,173,177,156,150
2025-02-26 14:55:08.947,285.0,-1195.0,548.0,-190.0,4.0,277.0,173,171,176,152,146
2025-02-26 14:55:08.953,278.0,-1143.0,587.0,-168.0,6.0,293.0,175,172,179,157,152
2025-02-26 14:55:08.961,258.0,-1103.0,665.0,-146.0,19.0,299.0,170,169,173,150,144
2025-02-26 14:55:08.965,250.0,-950.0,645.0,-119.0,37.0,307.0,175,174,180,157,150
2025-02-26 14:55:08.970,263.0,-818.0,683.0,-94.0,59.0,311.0,177,174,178,158,151
2025-02-26 14:55:08.976,258.0,-739.0,743.0,-89.0,88.0,311.0,178,174,180,159,151
2025-02-26 14:55:08.982,201.0,-588.0,646.0,-74.0,102.0,312.0,176,170,176,153,147
2025-02-26 14:55:08.986,171.0,-406.0,666.0,-70.0,123.0,311.0,174,168,173,153,143
2025-02-26 14:55:08.993,139.0,-344.0,595.0,-67.0,144.0,309.0,178,169,173,154,145
2025-02-26 14:55:08.998,74.0,-194.0,520.0,-81.0,160.0,307.0,182,173,178,159,153
2025-02-26 14:55:09.002,13.0,13.0,466.0,-99.0,171.0,300.0,181,174,177,160,151
2025-02-26 14:55:09.006,-94.0,218.0,462.0,-110.0,177.0,287.0,176,173,172,153,142
2025-02-26 14:55:09.014,-160.0,337.0,341.0,-128.0,181.0,273.0,175,168,171,152,144
2025-02-26 14:55:09.018,-325.0,360.0,231.0,-155.0,178.0,262.0,176,169,170,153,144
2025-02-26 14:55:09.023,-409.0,481.0,54.0,-168.0,168.0,239.0,182,175,174,157,151
2025-02-26 14:55:09.031,-463.0,534.0,31.0,-188.0,157.0,212.0,186,174,175,158,153
2025-02-26 14:55:09.034,-570.0,555.0,42.0,-204.0,154.0,182.0,185,178,179,162,156
2025-02-26 14:55:09.039,-630.0,514.0,-147.0,-217.0,148.0,154.0,181,171,172,157,150
2025-02-26 14:55:09.047,-667.0,496.0,-162.0,-230.0,149.0,127.0,179,168,170,154,150
2025-02-26 14:55:09.052,-659.0,492.0,-242.0,-225.0,149.0,101.0,179,168,171,154,150
2025-02-26 14:55:09.059,-686.0,414.0,-182.0,-220.0,153.0,85.0,182,169,171,158,151
2025-02-26 14:55:09.064,-767.0,341.0,-808.0,-206.0,132.0,72.0,189,176,176,161,160
2025-02-26 14:55:09.068,-784.0,304.0,-432.0,-179.0,130.0,53.0,190,174,174,162,158
2025-02-26 14:55:09.076,-799.0,187.0,-562.0,-170.0,117.0,45.0,191,176,174,158,160
2025-02-26 14:55:09.080,-783.0,151.0,-529.0,-171.0,108.0,36.0,190,172,169,162,161
2025-02-26 14:55:09.084,-762.0,216.0,-599.0,-175.0,100.0,28.0,187,166,164,158,157
2025-02-26 14:55:09.092,-799.0,210.0,-708.0,-166.0,79.0,26.0,185,163,159,158,156
2025-02-26 14:55:09.096,-811.0,268.0,-643.0,-169.0,56.0,22.0,196,169,165,166,164
2025-02-26 14:55:09.100,-743.0,287.0,-642.0,-172.0,35.0,18.0,195,165,163,164,165
2025-02-26 14:55:09.105,-700.0,383.0,-661.0,-166.0,11.0,12.0,195,159,158,163,164
2025-02-26 14:55:09.110,-717.0,493.0,-627.0,-155.0,-11.0,3.0,195,157,155,159,163
2025-02-26 14:55:09.117,-767.0,598.0,-651.0,-124.0,-23.0,-15.0,194,149,152,158,162
2025-02-26 14:55:09.123,-821.0,614.0,-542.0,-103.0,-47.0,-38.0,190,144,148,155,159
2025-02-26 14:55:09.129,-1008.0,464.0,-498.0,-83.0,-60.0,-49.0,191,136,142,152,158
2025-02-26 14:55:09.134,-1164.0,468.0,-483.0,-46.0,-74.0,-72.0,202,143,147,161,168
2025-02-26 14:55:09.141,-1200.0,536.0,-440.0,3.0,-93.0,-96.0,198,137,141,156,161
2025-02-26 14:55:09.145,-1162.0,580.0,-364.0,56.0,-102.0,-120.0,199,134,140,153,162
2025-02-26 14:55:09.150,-1170.0,708.0,-391.0,86.0,-112.0,-140.0,197,128,134,149,159
2025-02-26 14:55:09.158,-1142.0,809.0,-397.0,157.0,-117.0,-150.0,200,128,136,149,159
2025-02-26 14:55:09.162,-1084.0,946.0,-219.0,228.0,-104.0,-154.0,197,124,133,148,153
2025-02-26 14:55:09.165,-1242.0,976.0,-52.0,296.0,-78.0,-172.0,195,119,127,145,142
2025-02-26 14:55:09.174,-1335.0,1160.0,-112.0,353.0,-69.0,-212.0,195,115,125,147,143
2025-02-26 14:55:09.179,-1290.0,1223.0,278.0,401.0,-27.0,-242.0,196,116,124,147,141
2025-02-26 14:55:09.186,-935.0,1359.0,162.0,366.0,44.0,-258.0,197,114,126,148,138
2025-02-26 14:55:09.190,-654.0,1329.0,5.0,380.0,28.0,-294.0,201,119,128,152,139
2025-02-26 14:55:09.194,-583.0,1175.0,-73.0,409.0,5.0,-338.0,203,121,128,153,139
2025-02-26 14:55:09.203,-387.0,1147.0,-180.0,416.0,-31.0,-385.0,202,116,124,149,130
2025-02-26 14:55:09.207,-293.0,1173.0,-361.0,404.0,-62.0,-432.0,198,110,119,143,127
2025-02-26 14:55:09.211,104.0,1156.0,-242.0,415.0,-48.0,-464.0,199,109,118,136,124
2025-02-26 14:55:09.219,394.0,858.0,183.0,422.0,-34.0,-473.0,199,109,118,137,125
2025-02-26 14:55:09.223,940.0,441.0,-338.0,393.0,-78.0,-471.0,198,107,114,135,125
2025-02-26 14:55:09.228,776.0,131.0,-169.0,430.0,-153.0,-469.0,200,110,121,137,127
2025-02-26 14:55:09.236,1261.0,-377.0,-114.0,464.0,-227.0,-451.0,207,117,125,142,133
2025-02-26 14:55:09.239,1783.0,-923.0,141.0,500.0,-250.0,-432.0,203,112,122,137,129
2025-02-26 14:55:09.247,1893.0,-1720.0,733.0,532.0,-209.0,-407.0,203,112,122,137,128
2025-02-26 14:55:09.252,2330.0,-2733.0,1401.0,574.0,-189.0,-351.0,204,112,122,134,129
2025-02-26 14:55:09.257,2661.0,-3955.0,2095.0,616.0,-188.0,-277.0,206,114,115,137,130
2025-02-26 14:55:09.262,2704.0,-5045.0,2610.0,628.0,-154.0,-206.0,207,114,124,134,130
2025-02-26 14:55:09.269,2623.0,-5831.0,3144.0,610.0,-89.0,-103.0,202,109,124,132,128
2025-02-26 14:55:09.276,2291.0,-5544.0,3450.0,549.0,-47.0,37.0,209,117,128,133,132
2025-02-26 14:55:09.281,2148.0,-4045.0,3678.0,422.0,13.0,121.0,202,109,122,126,123
2025-02-26 14:55:09.285,2078.0,-2083.0,3683.0,230.0,43.0,152.0,202,108,122,117,122
2025-02-26 14:55:09.292,1673.0,-769.0,3110.0,-4.0,75.0,133.0,201,105,121,122,119
2025-02-26 14:55:09.297,1289.0,-402.0,2255.0,-223.0,68.0,115.0,206,113,125,122,125
2025-02-26 14:55:09.302,792.0,-229.0,1492.0,-394.0,35.0,89.0,208,115,126,129,129
2025-02-26 14:55:09.309,358.0,-666.0,1149.0,-481.0,-21.0,79.0,205,113,127,131,126
2025-02-26 14:55:09.310,126.0,-1298.0,636.0,-503.0,-54.0,88.0,206,112,122,122,126
2025-02-26 14:55:09.316,76.0,-1843.0,252.0,-501.0,-53.0,95.0,206,112,124,129,125
2025-02-26 14:55:09.326,79.0,-2102.0,149.0,-463.0,-49.0,99.0,201,106,117,128,122
2025-02-26 14:55:09.330,13.0,-2236.0,181.0,-408.0,-45.0,101.0,201,107,118,128,122
2025-02-26 14:55:09.334,12.0,-2376.0,343.0,-339.0,-51.0,111.0,212,121,129,140,135
2025-02-26 14:55:09.341,101.0,-2428.0,393.0,-266.0,-59.0,124.0,208,117,125,138,131
2025-02-26 14:55:09.347,189.0,-2373.0,563.0,-210.0,-59.0,140.0,208,116,123,135,131
2025-02-26 14:55:09.350,259.0,-2210.0,681.0,-182.0,-62.0,158.0,206,112,122,134,130
2025-02-26 14:55:09.359,365.0,-2067.0,877.0,-143.0,-76.0,179.0,205,115,123,135,131
2025-02-26 14:55:09.363,380.0,-1825.0,964.0,-114.0,-80.0,200.0,203,112,121,133,129
2025-02-26 14:55:09.365,478.0,-1569.0,1035.0,-92.0,-63.0,218.0,201,108,117,129,126
2025-02-26 14:55:09.374,416.0,-1211.0,999.0,-101.0,-27.0,225.0,205,111,123,134,131
2025-02-26 14:55:09.377,343.0,-1042.0,957.0,-118.0,5.0,231.0,207,114,125,138,134
2025-02-26 14:55:09.383,218.0,-845.0,922.0,-144.0,13.0,231.0,208,116,125,136,134
2025-02-26 14:55:09.389,138.0,-672.0,838.0,-174.0,10.0,228.0,208,117,123,135,133
2025-02-26 14:55:09.395,1.0,-604.0,733.0,-186.0,4.0,223.0,209,116,127,138,133
2025-02-26 14:55:09.399,-50.0,-354.0,629.0,-202.0,2.0,217.0,202,110,117,130,127
2025-02-26 14:55:09.408,-165.0,-393.0,502.0,-214.0,2.0,212.0,207,116,122,133,131
2025-02-26 14:55:09.412,-272.0,-317.0,479.0,-216.0,8.0,202.0,206,116,125,138,132
2025-02-26 14:55:09.416,-285.0,-259.0,484.0,-213.0,14.0,191.0,210,118,128,139,136
2025-02-26 14:55:09.424,-280.0,-309.0,516.0,-210.0,12.0,178.0,208,115,125,137,131
2025-02-26 14:55:09.428,-312.0,-352.0,520.0,-201.0,9.0,168.0,203,111,121,132,128
2025-02-26 14:55:09.433,-322.0,-395.0,556.0,-199.0,16.0,167.0,202,110,121,131,126
2025-02-26 14:55:09.440,-342.0,-404.0,571.0,-195.0,24.0,166.0,204,110,120,132,128
2025-02-26 14:55:09.445,-343.0,-367.0,492.0,-192.0,38.0,166.0,209,117,127,137,132
2025-02-26 14:55:09.449,-365.0,-346.0,498.0,-187.0,57.0,168.0,208,118,127,138,133
2025-02-26 14:55:09.457,-408.0,-319.0,409.0,-188.0,77.0,170.0,213,120,129,141,137
2025-02-26 14:55:09.461,-457.0,-285.0,310.0,-189.0,94.0,171.0,208,117,127,137,132
2025-02-26 14:55:09.465,-457.0,-247.0,217.0,-177.0,97.0,170.0,204,109,121,133,128
2025-02-26 14:55:09.473,-525.0,-213.0,140.0,-172.0,96.0,167.0,204,112,121,132,126
2025-02-26 14:55:09.477,-584.0,-159.0,4.0,-160.0,91.0,165.0,205,113,122,135,126
2025-02-26 14:55:09.481,-663.0,-107.0,-42.0,-144.0,86.0,161.0,208,116,127,139,134
2025-02-26 14:55:09.490,-674.0,-71.0,-104.0,-134.0,80.0,154.0,208,116,132,139,132
2025-02-26 14:55:09.494,-690.0,6.0,-169.0,-131.0,75.0,145.0,204,115,124,136,131
2025-02-26 14:55:09.498,-740.0,41.0,-203.0,-106.0,74.0,134.0,205,112,121,135,130
2025-02-26 14:55:09.506,-723.0,146.0,-210.0,-93.0,70.0,118.0,201,112,120,134,126
2025-02-26 14:55:09.510,-721.0,161.0,-208.0,-77.0,62.0,109.0,206,115,123,137,132
2025-02-26 14:55:09.515,-703.0,218.0,-221.0,-70.0,56.0,96.0,212,120,131,145,138
2025-02-26 14:55:09.519,-736.0,307.0,-225.0,-65.0,50.0,84.0,209,117,125,139,132
2025-02-26 14:55:09.526,-766.0,335.0,-198.0,-53.0,39.0,71.0,204,110,119,133,127
2025-02-26 14:55:09.531,-757.0,409.0,-193.0,-48.0,35.0,57.0,202,109,120,133,125
2025-02-26 14:55:09.535,-760.0,442.0,-172.0,-37.0,27.0,49.0,206,115,127,137,130
2025-02-26 14:55:09.543,-794.0,503.0,-162.0,-25.0,19.0,34.0,210,118,127,139,134
2025-02-26 14:55:09.546,-818.0,547.0,-147.0,-16.0,10.0,18.0,206,121,126,138,130
2025-02-26 14:55:09.552,-833.0,585.0,-147.0,3.0,1.0,1.0,203,112,122,132,128
2025-02-26 14:55:09.556,-871.0,592.0,-139.0,24.0,-4.0,-7.0,202,110,127,135,127
2025-02-26 14:55:09.563,-925.0,625.0,-141.0,43.0,-12.0,-24.0,209,117,128,140,132
2025-02-26 14:55:09.568,-1015.0,666.0,-162.0,65.0,-18.0,-42.0,200,118,127,149,132
2025-02-26 14:55:09.572,-1106.0,725.0,-156.0,76.0,-19.0,-64.0,205,114,122,140,131
2025-02-26 14:55:09.580,-1198.0,838.0,-161.0,99.0,-19.0,-91.0,204,115,121,138,130
2025-02-26 14:55:09.584,-1245.0,956.0,-133.0,129.0,-19.0,-122.0,203,111,118,133,127
2025-02-26 14:55:09.592,-1276.0,1095.0,-73.0,144.0,-13.0,-159.0,201,110,120,136,129
2025-02-26 14:55:09.596,-1271.0,1167.0,-3.0,170.0,-8.0,-178.0,204,115,123,134,128
2025-02-26 14:55:09.606,-1188.0,1251.0,86.0,198.0,-8.0,-218.0,206,117,129,142,136
2025-02-26 14:55:09.609,-1098.0,1315.0,123.0,220.0,-7.0,-260.0,206,115,123,139,135
2025-02-26 14:55:09.612,-942.0,1296.0,114.0,236.0,-3.0,-304.0,206,118,126,140,134
2025-02-26 14:55:09.617,-797.0,1267.0,65.0,240.0,2.0,-343.0,206,118,128,140,134
2025-02-26 14:55:09.624,-698.0,1154.0,31.0,243.0,3.0,-379.0,202,114,121,137,130
2025-02-26 14:55:09.629,-516.0,982.0,-63.0,247.0,-3.0,-394.0,201,111,119,134,129
2025-02-26 14:55:09.633,-272.0,887.0,-133.0,252.0,-19.0,-426.0,207,117,126,139,136
2025-02-26 14:55:09.641,-2.0,680.0,-182.0,254.0,-39.0,-458.0,207,119,128,142,136
2025-02-26 14:55:09.645,301.0,437.0,-192.0,265.0,-58.0,-487.0,207,118,125,139,135
2025-02-26 14:55:09.650,673.0,104.0,-120.0,275.0,-80.0,-513.0,205,116,124,138,134
2025-02-26 14:55:09.658,1138.0,-214.0,19.0,295.0,-92.0,-534.0,206,116,125,139,134
2025-02-26 14:55:09.662,1335.0,-559.0,196.0,316.0,-112.0,-550.0,202,111,120,136,132
2025-02-26 14:55:09.666,1784.0,-1217.0,354.0,345.0,-117.0,-552.0,202,112,123,138,131
2025-02-26 14:55:09.674,2338.0,-1744.0,561.0,390.0,-129.0,-536.0,199,110,119,135,131
2025-02-26 14:55:09.678,2542.0,-2986.0,969.0,425.0,-158.0,-476.0,205,114,127,139,136
2025-02-26 14:55:09.686,2814.0,-4395.0,1835.0,415.0,-163.0,-396.0,208,115,129,141,140
2025-02-26 14:55:09.690,3261.0,-5875.0,2795.0,361.0,-111.0,-276.0,207,116,127,140,140
2025-02-26 14:55:09.695,3620.0,-7059.0,3301.0,294.0,-37.0,-114.0,212,121,130,141,143
2025-02-26 14:55:09.703,3369.0,-7042.0,3251.0,251.0,26.0,50.0,208,117,131,139,141
2025-02-26 14:55:09.707,2895.0,-5688.0,2813.0,175.0,88.0,172.0,208,116,129,133,137
2025-02-26 14:55:09.711,2287.0,-3605.0,2333.0,113.0,165.0,229.0,205,116,127,131,135
2025-02-26 14:55:09.719,1682.0,-1584.0,1979.0,-52.0,212.0,242.0,208,115,131,134,136
2025-02-26 14:55:09.723,1092.0,-212.0,1313.0,-177.0,168.0,220.0,202,112,125,129,131
2025-02-26 14:55:09.728,929.0,-5.0,791.0,-286.0,127.0,192.0,202,112,126,129,129
2025-02-26 14:55:09.735,684.0,-223.0,345.0,-364.0,39.0,181.0,206,117,131,135,135
2025-02-26 14:55:09.740,384.0,-395.0,39.0,-392.0,-13.0,165.0,205,118,129,137,137
2025-02-26 14:55:09.747,136.0,-701.0,-68.0,-413.0,-18.0,145.0,206,118,129,139,136
2025-02-26 14:55:09.752,-94.0,-1014.0,-329.0,-406.0,-11.0,124.0,204,116,128,139,138
2025-02-26 14:55:09.756,-254.0,-1398.0,-442.0,-396.0,-7.0,100.0,208,118,125,147,138
2025-02-26 14:55:09.764,-304.0,-1787.0,-386.0,-347.0,-5.0,77.0,200,116,126,139,137
2025-02-26 14:55:09.768,-243.0,-2022.0,-211.0,-292.0,-9.0,73.0,199,110,118,131,135
2025-02-26 14:55:09.772,-224.0,-2060.0,-84.0,-250.0,-25.0,88.0,197,110,120,136,133
2025-02-26 14:55:09.780,-9.0,-2072.0,103.0,-212.0,-61.0,96.0,198,111,119,139,136
2025-02-26 14:55:09.783,109.0,-2106.0,279.0,-156.0,-96.0,128.0,204,117,125,143,142
2025-02-26 14:55:09.789,275.0,-2000.0,365.0,-110.0,-100.0,154.0,202,119,125,143,141
2025-02-26 14:55:09.796,315.0,-1817.0,459.0,-83.0,-74.0,180.0,206,119,129,147,146
2025-02-26 14:55:09.800,378.0,-1567.0,557.0,-70.0,-33.0,201.0,202,118,124,142,141
2025-02-26 14:55:09.805,398.0,-1369.0,559.0,-74.0,-11.0,219.0,200,111,123,146,140
2025-02-26 14:55:09.813,307.0,-1145.0,666.0,-89.0,-4.0,232.0,199,115,120,140,137
2025-02-26 14:55:09.817,276.0,-952.0,713.0,-120.0,-8.0,234.0,198,115,122,141,133
2025-02-26 14:55:09.820,238.0,-847.0,657.0,-159.0,-16.0,234.0,203,120,128,147,143
2025-02-26 14:55:09.830,159.0,-561.0,609.0,-180.0,-20.0,228.0,204,116,126,149,143
2025-02-26 14:55:09.834,-14.0,-280.0,428.0,-214.0,-6.0,221.0,206,124,133,148,146
2025-02-26 14:55:09.838,-157.0,-118.0,451.0,-219.0,26.0,209.0,203,117,127,143,141
2025-02-26 14:55:09.846,-236.0,10.0,229.0,-207.0,42.0,192.0,197,114,123,139,135
2025-02-26 14:55:09.850,-315.0,27.0,319.0,-170.0,53.0,179.0,196,113,124,140,134
2025-02-26 14:55:09.854,-354.0,52.0,437.0,-182.0,62.0,173.0,206,122,133,151,146
2025-02-26 14:55:09.862,-399.0,-39.0,390.0,-194.0,49.0,156.0,203,121,129,149,143
2025-02-26 14:55:09.867,-443.0,-138.0,417.0,-202.0,28.0,134.0,201,117,127,146,140
2025-02-26 14:55:09.871,-375.0,-197.0,424.0,-220.0,8.0,113.0,198,114,124,143,137
2025-02-26 14:55:09.878,-320.0,-283.0,425.0,-241.0,7.0,101.0,191,115,127,141,137
2025-02-26 14:55:09.883,-365.0,-309.0,208.0,-228.0,26.0,101.0,195,113,128,142,136
2025-02-26 14:55:09.887,-379.0,-388.0,41.0,-203.0,60.0,107.0,199,118,133,149,142
2025-02-26 14:55:09.892,-484.0,-444.0,68.0,-172.0,97.0,119.0,204,120,133,150,144
2025-02-26 14:55:09.899,-467.0,-530.0,14.0,-156.0,124.0,130.0,200,119,130,151,144
2025-02-26 14:55:09.903,-591.0,-541.0,-17.0,-119.0,128.0,137.0,195,116,128,146,141
2025-02-26 14:55:09.910,-590.0,-539.0,27.0,-84.0,121.0,132.0,193,115,126,146,139
2025-02-26 14:55:09.915,-657.0,-498.0,-196.0,-50.0,65.0,123.0,200,121,131,152,145
2025-02-26 14:55:09.920,-630.0,-412.0,-277.0,-61.0,51.0,119.0,202,124,131,154,145
2025-02-26 14:55:09.927,-630.0,-271.0,-399.0,-58.0,57.0,114.0,198,121,131,154,146
2025-02-26 14:55:09.932,-683.0,-97.0,-391.0,-40.0,49.0,102.0,198,120,132,154,144
2025-02-26 14:55:09.936,-670.0,-79.0,-225.0,-30.0,47.0,91.0,198,121,137,155,145
2025-02-26 14:55:09.941,-643.0,-41.0,-157.0,-9.0,47.0,83.0,196,119,128,152,142
2025-02-26 14:55:09.948,-615.0,-29.0,-148.0,0.0,44.0,79.0,194,114,118,148,138
2025-02-26 14:55:09.952,-584.0,46.0,-149.0,6.0,44.0,69.0,197,123,133,155,147
2025-02-26 14:55:09.957,-513.0,79.0,-161.0,9.0,50.0,59.0,197,120,131,153,144
2025-02-26 14:55:09.961,-516.0,121.0,-153.0,23.0,54.0,52.0,196,117,126,150,142
2025-02-26 14:55:09.969,-513.0,113.0,-223.0,39.0,62.0,47.0,191,115,126,149,140
2025-02-26 14:55:09.974,-577.0,140.0,-213.0,55.0,68.0,40.0,198,119,133,156,145
2025-02-26 14:55:09.977,-671.0,163.0,-284.0,66.0,68.0,35.0,196,118,133,154,144
2025-02-26 14:55:09.985,-711.0,199.0,-290.0,81.0,66.0,27.0,193,113,128,150,140
2025-02-26 14:55:09.989,-807.0,232.0,-257.0,97.0,67.0,24.0,191,111,122,149,139
2025-02-26 14:55:09.994,-930.0,308.0,-240.0,99.0,74.0,12.0,203,124,138,162,150
2025-02-26 14:55:09.998,-1045.0,413.0,-341.0,111.0,71.0,-1.0,200,121,131,155,146
2025-02-26 14:55:10.006,-1130.0,567.0,-265.0,117.0,73.0,-16.0,197,117,128,153,142
2025-02-26 14:55:10.010,-1148.0,661.0,-253.0,114.0,75.0,-31.0,195,116,126,148,138
2025-02-26 14:55:10.015,-1158.0,732.0,-190.0,109.0,83.0,-50.0,195,115,127,151,139
2025-02-26 14:55:10.020,-1087.0,789.0,-251.0,108.0,92.0,-60.0,194,113,126,146,135
2025-02-26 14:55:10.026,-1045.0,792.0,-192.0,98.0,93.0,-85.0,196,119,129,149,138
2025-02-26 14:55:10.031,-941.0,780.0,-189.0,90.0,95.0,-109.0,195,118,128,147,138
2025-02-26 14:55:10.038,-788.0,849.0,-242.0,109.0,90.0,-136.0,194,118,124,142,134
2025-02-26 14:55:10.043,-562.0,994.0,-509.0,156.0,91.0,-183.0,189,115,123,140,131
2025-02-26 14:55:10.051,-512.0,1238.0,-519.0,212.0,102.0,-232.0,185,112,120,136,128
2025-02-26 14:55:10.055,-566.0,1242.0,-634.0,256.0,121.0,-298.0,190,118,127,140,134
2025-02-26 14:55:10.059,-791.0,1288.0,-616.0,299.0,106.0,-342.0,181,111,120,133,126
2025-02-26 14:55:10.067,-834.0,1266.0,-639.0,362.0,51.0,-445.0,183,116,124,137,130
2025-02-26 14:55:10.071,-418.0,1304.0,-928.0,422.0,-14.0,-553.0,180,116,126,138,131
2025-02-26 14:55:10.075,-138.0,1449.0,-941.0,483.0,-44.0,-654.0,180,121,127,141,132
2025-02-26 14:55:10.084,224.0,1102.0,-492.0,532.0,-90.0,-726.0,180,119,125,141,132
2025-02-26 14:55:10.088,932.0,659.0,107.0,549.0,-133.0,-741.0,174,114,124,137,130
2025-02-26 14:55:10.092,1799.0,-276.0,774.0,562.0,-118.0,-671.0,172,113,124,138,129
2025-02-26 14:55:10.098,2553.0,-1472.0,1321.0,548.0,-95.0,-547.0,170,114,126,136,127
2025-02-26 14:55:10.104,2769.0,-2793.0,1798.0,546.0,-43.0,-408.0,167,111,123,136,127
2025-02-26 14:55:10.112,2950.0,-3967.0,2375.0,565.0,15.0,-284.0,165,112,121,134,127
2025-02-26 14:55:10.116,3173.0,-4737.0,2733.0,588.0,69.0,-177.0,167,113,125,140,130
2025-02-26 14:55:10.121,3437.0,-5045.0,2972.0,621.0,120.0,-131.0,164,111,124,136,126
2025-02-26 14:55:10.126,3419.0,-5511.0,2941.0,614.0,171.0,-36.0,165,116,127,141,128
2025-02-26 14:55:10.134,2908.0,-5034.0,2725.0,521.0,205.0,57.0,170,120,131,141,130
2025-02-26 14:55:10.140,2023.0,-3640.0,2582.0,326.0,187.0,125.0,169,119,131,141,129
2025-02-26 14:55:10.146,1114.0,-1629.0,2242.0,73.0,121.0,142.0,168,118,130,138,127
2025-02-26 14:55:10.149,246.0,-314.0,1887.0,-73.0,28.0,137.0,168,117,130,138,126
2025-02-26 14:55:10.157,98.0,-80.0,1397.0,-318.0,-68.0,96.0,167,118,129,138,127
2025-02-26 14:55:10.161,209.0,-716.0,964.0,-486.0,-92.0,61.0,165,113,124,135,123
2025-02-26 14:55:10.166,461.0,-1234.0,722.0,-552.0,-131.0,52.0,161,109,122,134,122
2025-02-26 14:55:10.171,644.0,-2136.0,735.0,-541.0,-144.0,55.0,167,116,127,144,129
2025-02-26 14:55:10.178,932.0,-2700.0,735.0,-495.0,-111.0,83.0,169,121,133,144,129
2025-02-26 14:55:10.183,894.0,-2903.0,766.0,-427.0,-94.0,114.0,169,122,129,144,131
2025-02-26 14:55:10.190,900.0,-2775.0,722.0,-396.0,-63.0,148.0,166,117,124,142,129
2025-02-26 14:55:10.195,779.0,-2556.0,643.0,-334.0,-46.0,176.0,172,121,129,151,136
2025-02-26 14:55:10.199,680.0,-2316.0,551.0,-279.0,-40.0,200.0,164,115,123,139,128
2025-02-26 14:55:10.206,640.0,-2033.0,472.0,-234.0,-38.0,217.0,162,113,121,138,127
2025-02-26 14:55:10.211,601.0,-1831.0,463.0,-192.0,-39.0,224.0,162,115,121,138,128
2025-02-26 14:55:10.213,559.0,-1821.0,495.0,-158.0,-35.0,237.0,169,120,127,143,133
2025-02-26 14:55:10.223,545.0,-1606.0,502.0,-137.0,-29.0,250.0,171,122,128,145,135
2025-02-26 14:55:10.227,401.0,-1435.0,511.0,-126.0,-23.0,264.0,171,122,126,144,137
2025-02-26 14:55:10.235,251.0,-1109.0,522.0,-126.0,-27.0,275.0,172,120,128,142,133
2025-02-26 14:55:10.238,247.0,-1092.0,562.0,-131.0,-32.0,278.0,169,118,127,141,132
2025-02-26 14:55:10.243,192.0,-921.0,534.0,-146.0,-34.0,283.0,166,115,123,138,130
2025-02-26 14:55:10.250,70.0,-666.0,500.0,-167.0,-37.0,282.0,164,114,122,137,128
2025-02-26 14:55:10.256,-2.0,-522.0,489.0,-189.0,-40.0,279.0,170,117,129,140,132
2025-02-26 14:55:10.259,-39.0,-482.0,479.0,-209.0,-44.0,273.0,172,120,129,145,135
2025-02-26 14:55:10.267,-63.0,-379.0,488.0,-230.0,-42.0,264.0,171,118,129,141,134
2025-02-26 14:55:10.272,-133.0,-280.0,427.0,-242.0,-40.0,254.0,172,121,129,142,133
2025-02-26 14:55:10.276,-189.0,-273.0,375.0,-248.0,-37.0,244.0,181,120,128,150,133
2025-02-26 14:55:10.284,-298.0,-264.0,303.0,-249.0,-37.0,231.0,171,118,125,137,128
2025-02-26 14:55:10.286,-298.0,-250.0,256.0,-245.0,-37.0,217.0,167,115,126,136,128
2025-02-26 14:55:10.293,-373.0,-249.0,253.0,-240.0,-33.0,205.0,169,118,128,139,133
2025-02-26 14:55:10.300,-361.0,-223.0,241.0,-232.0,-24.0,199.0,167,115,123,135,128
2025-02-26 14:55:10.305,-359.0,-212.0,231.0,-224.0,-15.0,188.0,174,122,128,142,133
2025-02-26 14:55:10.308,-342.0,-198.0,228.0,-212.0,-3.0,179.0,174,121,129,141,133
2025-02-26 14:55:10.317,-356.0,-173.0,216.0,-206.0,8.0,172.0,174,122,132,144,136
2025-02-26 14:55:10.321,-399.0,-121.0,193.0,-201.0,19.0,163.0,172,119,126,141,133
2025-02-26 14:55:10.325,-413.0,-97.0,142.0,-197.0,25.0,157.0,174,115,122,144,129
2025-02-26 14:55:10.333,-397.0,-68.0,54.0,-192.0,37.0,152.0,166,113,123,135,127
2025-02-26 14:55:10.337,-448.0,-58.0,-2.0,-194.0,49.0,151.0,172,120,127,141,130
2025-02-26 14:55:10.342,-553.0,21.0,-62.0,-187.0,57.0,145.0,176,123,128,143,134
2025-02-26 14:55:10.349,-591.0,76.0,-115.0,-186.0,62.0,140.0,172,119,127,140,133
2025-02-26 14:55:10.354,-661.0,135.0,-215.0,-174.0,63.0,132.0,170,117,125,138,128
2025-02-26 14:55:10.359,-709.0,220.0,-307.0,-160.0,63.0,121.0,170,116,122,138,129
2025-02-26 14:55:10.365,-744.0,252.0,-360.0,-140.0,61.0,114.0,170,116,123,136,129
2025-02-26 14:55:10.369,-770.0,294.0,-415.0,-127.0,56.0,103.0,174,120,127,140,133
2025-02-26 14:55:10.374,-748.0,390.0,-406.0,-113.0,49.0,92.0,178,124,133,147,137
2025-02-26 14:55:10.383,-787.0,395.0,-456.0,-94.0,44.0,80.0,175,121,128,142,134
2025-02-26 14:55:10.387,-761.0,427.0,-445.0,-87.0,38.0,68.0,172,120,127,140,133
2025-02-26 14:55:10.391,-749.0,448.0,-439.0,-65.0,35.0,55.0,168,114,122,137,130
2025-02-26 14:55:10.396,-757.0,461.0,-430.0,-46.0,28.0,48.0,165,115,123,134,127
2025-02-26 14:55:10.403,-738.0,481.0,-446.0,-24.0,23.0,34.0,174,122,130,142,136
2025-02-26 14:55:10.405,-760.0,496.0,-440.0,-4.0,17.0,20.0,173,120,132,143,135
2025-02-26 14:55:10.412,-795.0,491.0,-441.0,7.0,12.0,7.0,168,116,124,138,130
2025-02-26 14:55:10.419,-803.0,541.0,-433.0,26.0,11.0,1.0,168,118,120,137,131
2025-02-26 14:55:10.423,-830.0,584.0,-408.0,40.0,6.0,-12.0,177,122,129,144,135
2025-02-26 14:55:10.427,-895.0,689.0,-396.0,57.0,3.0,-27.0,175,120,129,144,134
2025-02-26 14:55:10.432,-991.0,787.0,-390.0,65.0,-1.0,-45.0,171,117,125,137,130
2025-02-26 14:55:10.436,-1042.0,881.0,-343.0,83.0,-4.0,-65.0,171,116,121,138,130
2025-02-26 14:55:10.444,-1104.0,921.0,-288.0,106.0,-6.0,-77.0,170,115,123,136,129
2025-02-26 14:55:10.448,-1170.0,1048.0,-221.0,131.0,-2.0,-105.0,174,120,129,142,135
2025-02-26 14:55:10.454,-1160.0,1216.0,-180.0,166.0,8.0,-142.0,179,125,132,146,140
2025-02-26 14:55:10.460,-1105.0,1396.0,-68.0,199.0,25.0,-193.0,177,123,128,143,136
2025-02-26 14:55:10.465,-958.0,1500.0,182.0,218.0,51.0,-250.0,174,118,128,141,133
2025-02-26 14:55:10.472,-1030.0,1741.0,-2.0,245.0,69.0,-315.0,172,117,124,139,131
2025-02-26 14:55:10.478,-978.0,1689.0,30.0,286.0,81.0,-382.0,173,119,128,140,132
2025-02-26 14:55:10.479,-819.0,1594.0,-28.0,327.0,97.0,-415.0,172,117,124,138,132
2025-02-26 14:55:10.489,-627.0,1676.0,-83.0,360.0,109.0,-487.0,174,120,129,145,136
2025-02-26 14:55:10.490,-290.0,1543.0,-142.0,394.0,110.0,-553.0,180,127,133,150,141
2025-02-26 14:55:10.501,67.0,1345.0,-157.0,430.0,97.0,-610.0,178,121,129,144,138
2025-02-26 14:55:10.502,486.0,1308.0,-211.0,446.0,87.0,-657.0,174,118,126,142,135
2025-02-26 14:55:10.508,1238.0,752.0,126.0,479.0,76.0,-693.0,170,116,125,141,136
2025-02-26 14:55:10.517,1648.0,-8.0,666.0,510.0,78.0,-694.0,170,116,126,141,136
2025-02-26 14:55:10.521,2536.0,-649.0,826.0,576.0,64.0,-680.0,170,115,123,138,133
2025-02-26 14:55:10.525,2712.0,-2211.0,1201.0,597.0,57.0,-609.0,167,120,127,146,139
2025-02-26 14:55:10.533,3275.0,-3468.0,1391.0,626.0,37.0,-493.0,176,121,129,144,141
2025-02-26 14:55:10.539,3521.0,-4626.0,1618.0,645.0,-4.0,-390.0,173,122,132,144,143
2025-02-26 14:55:10.542,3813.0,-6049.0,2316.0,628.0,-17.0,-257.0,176,122,130,142,140
2025-02-26 14:55:10.551,4016.0,-6837.0,2862.0,588.0,23.0,-88.0,175,120,131,141,138
2025-02-26 14:55:10.554,3665.0,-6652.0,3137.0,460.0,71.0,102.0,178,125,134,144,142
2025-02-26 14:55:10.559,2947.0,-5261.0,3156.0,285.0,92.0,224.0,170,116,127,136,136
2025-02-26 14:55:10.567,2466.0,-3199.0,2773.0,84.0,107.0,263.0,167,112,124,133,132
2025-02-26 14:55:10.570,1458.0,-1600.0,2208.0,-108.0,85.0,260.0,170,115,125,133,132
2025-02-26 14:55:10.579,743.0,-1195.0,1653.0,-280.0,52.0,238.0,170,111,126,134,133
2025-02-26 14:55:10.582,544.0,-866.0,1235.0,-376.0,32.0,200.0,177,123,132,141,136
2025-02-26 14:55:10.588,459.0,-1138.0,1044.0,-422.0,24.0,176.0,174,118,131,141,136
2025-02-26 14:55:10.596,499.0,-1458.0,683.0,-414.0,27.0,162.0,179,124,136,146,142
2025-02-26 14:55:10.600,428.0,-1757.0,433.0,-398.0,31.0,151.0,173,120,129,142,137
2025-02-26 14:55:10.604,336.0,-1858.0,165.0,-354.0,33.0,157.0,169,116,125,138,132
2025-02-26 14:55:10.611,273.0,-1943.0,1.0,-293.0,29.0,165.0,168,114,123,137,132
2025-02-26 14:55:10.616,258.0,-1994.0,-62.0,-231.0,17.0,171.0,172,118,127,140,134
2025-02-26 14:55:10.620,260.0,-1986.0,-45.0,-160.0,6.0,179.0,176,123,131,146,139
2025-02-26 14:55:10.628,179.0,-1864.0,-35.0,-113.0,-17.0,189.0,175,121,129,147,138
2025-02-26 14:55:10.631,249.0,-1832.0,115.0,-90.0,-31.0,205.0,173,121,128,143,139
2025-02-26 14:55:10.637,285.0,-1745.0,289.0,-45.0,-37.0,222.0,176,122,130,145,139
2025-02-26 14:55:10.643,383.0,-1617.0,452.0,-4.0,-35.0,236.0,172,117,124,140,136
2025-02-26 14:55:10.648,391.0,-1408.0,590.0,22.0,-27.0,254.0,170,116,122,140,134
2025-02-26 14:55:10.653,315.0,-1311.0,687.0,40.0,-13.0,258.0,181,126,133,150,146
2025-02-26 14:55:10.661,383.0,-1100.0,676.0,39.0,7.0,273.0,181,121,135,147,141
2025-02-26 14:55:10.665,193.0,-826.0,631.0,31.0,25.0,285.0,174,119,128,143,138
2025-02-26 14:55:10.668,207.0,-886.0,715.0,9.0,49.0,300.0,175,116,126,139,132
2025-02-26 14:55:10.673,-151.0,-9.0,427.0,-38.0,51.0,295.0,175,118,128,142,137
2025-02-26 14:55:10.681,-33.0,-174.0,708.0,-105.0,60.0,296.0,180,122,130,145,140
2025-02-26 14:55:10.686,-151.0,415.0,395.0,-169.0,71.0,280.0,180,120,133,146,137
2025-02-26 14:55:10.690,-377.0,574.0,159.0,-189.0,70.0,246.0,179,121,129,144,137
2025-02-26 14:55:10.697,-431.0,395.0,75.0,-205.0,65.0,209.0,178,117,127,142,135
2025-02-26 14:55:10.701,-519.0,221.0,65.0,-227.0,48.0,195.0,178,118,128,143,133
2025-02-26 14:55:10.706,-513.0,104.0,73.0,-248.0,36.0,168.0,184,120,133,147,138
2025-02-26 14:55:10.710,-574.0,58.0,30.0,-239.0,28.0,142.0,183,122,134,147,139
2025-02-26 14:55:10.718,-493.0,-19.0,123.0,-231.0,31.0,123.0,186,121,132,148,140
2025-02-26 14:55:10.722,-414.0,-196.0,150.0,-222.0,40.0,116.0,181,117,129,144,136
2025-02-26 14:55:10.727,-367.0,-142.0,-12.0,-224.0,45.0,115.0,181,117,126,143,134
2025-02-26 14:55:10.735,-369.0,-290.0,67.0,-219.0,57.0,116.0,188,125,135,152,143
2025-02-26 14:55:10.739,-337.0,-380.0,-17.0,-216.0,63.0,125.0,188,123,135,152,143
2025-02-26 14:55:10.744,-328.0,-400.0,-55.0,-181.0,81.0,129.0,188,123,137,150,143
2025-02-26 14:55:10.751,-367.0,-649.0,-128.0,-159.0,98.0,147.0,187,124,135,149,142
2025-02-26 14:55:10.756,-542.0,-347.0,-282.0,-127.0,117.0,163.0,188,123,134,153,145
2025-02-26 14:55:10.763,-424.0,-423.0,-443.0,-97.0,113.0,183.0,188,120,131,148,140
2025-02-26 14:55:10.764,-326.0,-432.0,-438.0,-60.0,117.0,198.0,184,118,129,147,139
2025-02-26 14:55:10.772,-327.0,-257.0,-543.0,-41.0,112.0,196.0,183,119,130,148,138
2025-02-26 14:55:10.780,-439.0,-273.0,-536.0,8.0,121.0,196.0,191,124,134,151,145
2025-02-26 14:55:10.783,-529.0,-214.0,-473.0,38.0,130.0,198.0,192,122,134,153,145
2025-02-26 14:55:10.789,-355.0,-105.0,-424.0,58.0,129.0,201.0,191,124,136,152,143
2025-02-26 14:55:10.795,-395.0,-38.0,-567.0,78.0,122.0,195.0,196,126,139,154,147
2025-02-26 14:55:10.800,-493.0,122.0,-626.0,127.0,120.0,175.0,189,122,132,149,141
2025-02-26 14:55:10.804,-459.0,143.0,-598.0,152.0,113.0,161.0,185,123,130,144,137
2025-02-26 14:55:10.812,-433.0,108.0,-693.0,185.0,104.0,159.0,184,119,127,143,135
2025-02-26 14:55:10.817,-352.0,132.0,-770.0,210.0,91.0,153.0,195,128,136,152,144
2025-02-26 14:55:10.820,-333.0,157.0,-868.0,234.0,73.0,146.0,193,128,136,150,144
2025-02-26 14:55:10.829,-392.0,259.0,-833.0,248.0,65.0,133.0,189,128,131,146,140
2025-02-26 14:55:10.833,-595.0,167.0,-932.0,278.0,47.0,134.0,188,127,129,144,139
2025-02-26 14:55:10.837,-593.0,241.0,-1029.0,325.0,39.0,134.0,192,127,128,142,138
2025-02-26 14:55:10.845,-722.0,195.0,-1163.0,371.0,29.0,133.0,183,130,127,139,137
2025-02-26 14:55:10.850,-802.0,213.0,-1248.0,414.0,12.0,133.0,189,139,133,143,141
2025-02-26 14:55:10.854,-786.0,325.0,-1060.0,455.0,6.0,124.0,193,146,137,149,147
2025-02-26 14:55:10.861,-872.0,627.0,-1176.0,502.0,6.0,105.0,186,147,131,142,142
2025-02-26 14:55:10.866,-865.0,854.0,-1514.0,533.0,-32.0,82.0,182,145,127,137,138
2025-02-26 14:55:10.870,-933.0,963.0,-1604.0,562.0,-54.0,41.0,176,143,125,132,133
2025-02-26 14:55:10.877,-807.0,882.0,-1599.0,569.0,-86.0,6.0,174,145,125,132,134
2025-02-26 14:55:10.880,-769.0,912.0,-1636.0,569.0,-126.0,-15.0,175,152,129,135,136
2025-02-26 14:55:10.886,-811.0,906.0,-1760.0,590.0,-166.0,-51.0,172,155,121,134,135
2025-02-26 14:55:10.894,-869.0,943.0,-1731.0,620.0,-206.0,-83.0,168,156,128,133,135
2025-02-26 14:55:10.898,-788.0,874.0,-1605.0,645.0,-241.0,-112.0,167,158,129,133,135
2025-02-26 14:55:10.903,-623.0,767.0,-1811.0,673.0,-313.0,-138.0,166,158,126,127,135
2025-02-26 14:55:10.910,-547.0,829.0,-1640.0,675.0,-380.0,-178.0,164,162,128,127,133
2025-02-26 14:55:10.915,-240.0,746.0,-1382.0,696.0,-427.0,-203.0,163,164,129,126,134
2025-02-26 14:55:10.923,86.0,547.0,-839.0,736.0,-473.0,-197.0,159,154,126,119,133
2025-02-26 14:55:10.928,377.0,872.0,-906.0,747.0,-514.0,-194.0,148,160,122,124,129
2025-02-26 14:55:10.931,695.0,962.0,-429.0,747.0,-590.0,-185.0,149,162,121,119,129
2025-02-26 14:55:10.940,1065.0,1056.0,125.0,723.0,-679.0,-183.0,151,165,124,121,129
2025-02-26 14:55:10.943,1372.0,1122.0,1457.0,731.0,-744.0,-172.0,148,154,119,115,127
2025-02-26 14:55:10.951,2061.0,1176.0,2502.0,739.0,-756.0,-140.0,152,167,124,119,132
2025-02-26 14:55:10.958,2351.0,1479.0,4124.0,738.0,-732.0,-114.0,156,162,127,131,138
2025-02-26 14:55:10.958,2831.0,1226.0,5302.0,701.0,-664.0,-103.0,149,166,126,128,135
2025-02-26 14:55:10.968,2496.0,1721.0,6074.0,599.0,-579.0,-124.0,147,171,125,128,133
2025-02-26 14:55:10.972,2607.0,1499.0,7145.0,423.0,-441.0,-110.0,148,172,125,133,135
2025-02-26 14:55:10.980,2338.0,1542.0,7794.0,199.0,-243.0,-104.0,150,173,127,132,134
2025-02-26 14:55:10.985,1981.0,888.0,7997.0,-36.0,-14.0,-69.0,147,174,126,132,131
2025-02-26 14:55:10.989,1664.0,343.0,6970.0,-117.0,207.0,-20.0,146,173,124,131,129
2025-02-26 14:55:10.997,1331.0,-284.0,5514.0,-240.0,302.0,27.0,144,174,124,133,129
2025-02-26 14:55:11.000,1364.0,-767.0,4104.0,-346.0,436.0,68.0,139,171,122,129,124
2025-02-26 14:55:11.005,1545.0,-1216.0,2659.0,-397.0,497.0,90.0,141,169,123,127,124
