timestamp,ax,ay,az,gx,gy,gz,flex1,flex2,flex3,flex4,flex5,emg1,emg2,emg3
2025-02-26 14:25:46.713,-311.0,-922.0,277.0,-1.0,-1.0,0.0,154,127,131,132,132
2025-02-26 14:25:46.717,-310.0,-920.0,277.0,-1.0,0.0,-1.0,156,129,132,133,134
2025-02-26 14:25:46.720,-312.0,-916.0,273.0,-1.0,0.0,-2.0,159,130,134,136,136
2025-02-26 14:25:46.722,-316.0,-916.0,270.0,0.0,0.0,-2.0,154,127,132,131,133
2025-02-26 14:25:46.724,-315.0,-915.0,272.0,0.0,0.0,-2.0,156,129,134,134,135
2025-02-26 14:25:46.727,-317.0,-912.0,269.0,0.0,-1.0,-3.0,156,128,132,133,134
2025-02-26 14:25:46.729,-316.0,-917.0,263.0,-1.0,-1.0,-3.0,152,126,131,132,133
2025-02-26 14:25:46.732,-320.0,-920.0,266.0,-1.0,-1.0,-4.0,155,129,133,133,133
2025-02-26 14:25:46.735,-318.0,-924.0,266.0,-1.0,-1.0,-3.0,154,129,132,132,133
2025-02-26 14:25:46.737,-313.0,-929.0,270.0,-1.0,-1.0,-3.0,153,127,130,132,133
2025-02-26 14:25:46.739,-314.0,-938.0,270.0,-2.0,-1.0,-3.0,157,128,133,132,134
2025-02-26 14:25:46.741,-308.0,-944.0,268.0,-2.0,-1.0,-2.0,154,127,132,132,134
2025-02-26 14:25:46.744,-307.0,-947.0,264.0,-3.0,-2.0,-1.0,151,126,131,131,133
2025-02-26 14:25:46.746,-311.0,-944.0,273.0,-1.0,-2.0,-1.0,157,128,132,133,135
2025-02-26 14:25:46.749,-311.0,-910.0,272.0,-2.0,-2.0,0.0,155,127,132,133,134
2025-02-26 14:25:46.752,-284.0,-968.0,266.0,-5.0,-2.0,0.0,155,127,132,132,133
2025-02-26 14:25:46.754,-306.0,-976.0,256.0,-3.0,-1.0,0.0,158,130,133,133,135
2025-02-26 14:25:46.756,-315.0,-923.0,256.0,-1.0,-2.0,0.0,156,127,132,132,134
2025-02-26 14:25:46.758,-283.0,-926.0,308.0,-2.0,-2.0,1.0,155,127,132,130,133
2025-02-26 14:25:46.761,-303.0,-942.0,283.0,-3.0,-1.0,1.0,156,129,134,133,135
2025-02-26 14:25:46.763,-307.0,-928.0,232.0,-3.0,-2.0,0.0,156,129,133,133,136
2025-02-26 14:25:46.765,-304.0,-932.0,282.0,-3.0,-2.0,0.0,156,127,131,131,135
2025-02-26 14:25:46.767,-306.0,-931.0,289.0,-3.0,-2.0,0.0,157,130,133,133,135
2025-02-26 14:25:46.767,-319.0,-926.0,260.0,-3.0,-2.0,0.0,155,129,134,134,137
2025-02-26 14:25:46.770,-318.0,-925.0,270.0,-1.0,-2.0,0.0,154,127,130,130,133
2025-02-26 14:25:46.773,-317.0,-928.0,272.0,-2.0,-1.0,-1.0,156,128,133,132,134
2025-02-26 14:25:46.776,-312.0,-932.0,273.0,-1.0,-2.0,0.0,154,128,132,133,135
2025-02-26 14:25:46.779,-323.0,-922.0,276.0,0.0,-2.0,-1.0,155,126,133,132,133
2025-02-26 14:25:46.781,-313.0,-929.0,289.0,1.0,-2.0,-1.0,155,126,130,131,133
2025-02-26 14:25:46.783,-297.0,-937.0,276.0,1.0,-3.0,-1.0,155,129,133,133,134
2025-02-26 14:25:46.785,-315.0,-912.0,265.0,0.0,-2.0,-1.0,155,128,134,135,133
2025-02-26 14:25:46.785,-326.0,-896.0,277.0,0.0,-1.0,0.0,155,127,131,131,133
2025-02-26 14:25:46.790,-295.0,-926.0,267.0,-1.0,-1.0,0.0,153,125,132,132,132
2025-02-26 14:25:46.792,-325.0,-926.0,270.0,1.0,-1.0,0.0,156,129,132,134,134
2025-02-26 14:25:46.794,-318.0,-915.0,274.0,1.0,-2.0,0.0,156,129,133,136,137
2025-02-26 14:25:46.796,-304.0,-918.0,282.0,-2.0,-2.0,0.0,153,132,131,131,134
2025-02-26 14:25:46.798,-322.0,-918.0,266.0,-2.0,-1.0,0.0,155,128,132,132,132
2025-02-26 14:25:46.801,-314.0,-910.0,268.0,-2.0,-2.0,-1.0,156,128,133,132,135
2025-02-26 14:25:46.803,-308.0,-926.0,286.0,-2.0,-3.0,-2.0,157,129,133,135,137
2025-02-26 14:25:46.805,-306.0,-926.0,279.0,-2.0,-3.0,-2.0,152,127,130,132,134
2025-02-26 14:25:46.808,-313.0,-920.0,267.0,0.0,-2.0,-2.0,155,125,129,130,132
2025-02-26 14:25:46.809,-327.0,-911.0,270.0,-2.0,-2.0,-1.0,157,128,133,133,134
2025-02-26 14:25:46.812,-286.0,-928.0,285.0,-3.0,-3.0,-1.0,158,128,134,133,135
2025-02-26 14:25:46.813,-297.0,-940.0,262.0,-3.0,-3.0,-2.0,150,127,131,133,134
2025-02-26 14:25:46.817,-308.0,-923.0,286.0,-2.0,-4.0,-3.0,153,127,131,132,133
2025-02-26 14:25:46.821,-289.0,-923.0,281.0,-3.0,-2.0,-3.0,157,128,133,132,135
2025-02-26 14:25:46.826,-311.0,-930.0,263.0,-2.0,-2.0,-3.0,156,129,135,134,136
2025-02-26 14:25:46.833,-305.0,-926.0,274.0,-3.0,-3.0,-2.0,154,127,131,131,134
2025-02-26 14:25:46.837,-309.0,-931.0,289.0,-4.0,-3.0,-1.0,152,126,130,129,133
2025-02-26 14:25:46.842,-315.0,-932.0,270.0,-4.0,-3.0,-1.0,156,128,133,133,134
2025-02-26 14:25:46.849,-310.0,-944.0,279.0,-4.0,-2.0,-1.0,155,126,133,132,135
2025-02-26 14:25:46.853,-312.0,-939.0,280.0,-4.0,-2.0,1.0,155,128,134,134,135
2025-02-26 14:25:46.858,-309.0,-918.0,285.0,-2.0,-1.0,0.0,154,127,131,130,132
2025-02-26 14:25:46.863,-321.0,-914.0,286.0,-4.0,-2.0,1.0,156,129,134,133,134
2025-02-26 14:25:46.870,-307.0,-929.0,284.0,-5.0,-1.0,2.0,156,127,132,134,135
2025-02-26 14:25:46.874,-320.0,-947.0,251.0,-5.0,-2.0,1.0,154,127,132,130,133
2025-02-26 14:25:46.878,-321.0,-912.0,268.0,-5.0,-1.0,0.0,153,125,130,131,133
2025-02-26 14:25:46.882,-293.0,-938.0,295.0,-3.0,-1.0,0.0,156,127,133,134,135
2025-02-26 14:25:46.890,-303.0,-910.0,287.0,-2.0,0.0,-1.0,157,129,134,135,135
2025-02-26 14:25:46.895,-318.0,-921.0,254.0,-2.0,0.0,-1.0,156,127,131,132,133
2025-02-26 14:25:46.899,-310.0,-917.0,269.0,-3.0,0.0,-1.0,155,127,131,131,133
2025-02-26 14:25:46.900,-297.0,-931.0,271.0,-3.0,0.0,-1.0,157,128,134,136,135
2025-02-26 14:25:46.911,-321.0,-929.0,268.0,-3.0,-1.0,-1.0,156,129,133,134,135
2025-02-26 14:25:46.914,-315.0,-918.0,261.0,-2.0,0.0,-1.0,153,126,131,131,133
2025-02-26 14:25:46.919,-311.0,-918.0,270.0,-2.0,0.0,-1.0,156,125,131,131,133
2025-02-26 14:25:46.924,-314.0,-923.0,263.0,-3.0,-1.0,-1.0,157,130,135,136,137
2025-02-26 14:25:46.931,-313.0,-923.0,264.0,-4.0,-1.0,-1.0,157,129,134,132,135
2025-02-26 14:25:46.934,-309.0,-937.0,263.0,-4.0,-1.0,-1.0,152,128,131,132,134
2025-02-26 14:25:46.936,-309.0,-934.0,264.0,-4.0,-1.0,-1.0,153,126,130,131,134
2025-02-26 14:25:46.947,-308.0,-933.0,265.0,-3.0,0.0,-1.0,158,130,133,134,136
2025-02-26 14:25:46.952,-307.0,-926.0,273.0,-2.0,0.0,0.0,158,128,133,133,137
2025-02-26 14:25:46.956,-304.0,-931.0,262.0,-2.0,-1.0,0.0,153,127,131,130,133
2025-02-26 14:25:46.961,-311.0,-937.0,253.0,-2.0,-1.0,0.0,154,126,130,132,133
2025-02-26 14:25:46.968,-306.0,-934.0,259.0,-2.0,-1.0,-1.0,157,129,135,135,136
2025-02-26 14:25:46.972,-311.0,-934.0,257.0,-2.0,-1.0,-1.0,156,130,135,133,136
2025-02-26 14:25:46.977,-309.0,-922.0,258.0,-2.0,-1.0,0.0,154,125,131,131,134
2025-02-26 14:25:46.981,-311.0,-925.0,260.0,-1.0,-1.0,0.0,156,127,132,131,133
2025-02-26 14:25:46.989,-310.0,-927.0,254.0,-1.0,-2.0,0.0,155,130,135,134,137
2025-02-26 14:25:46.993,-315.0,-937.0,254.0,-1.0,-2.0,0.0,156,128,133,134,136
2025-02-26 14:25:46.997,-313.0,-934.0,261.0,-1.0,-2.0,0.0,154,125,131,130,133
2025-02-26 14:25:47.001,-311.0,-931.0,260.0,-1.0,-2.0,0.0,154,127,130,129,134
2025-02-26 14:25:47.009,-316.0,-925.0,263.0,-1.0,-2.0,0.0,156,130,134,135,136
2025-02-26 14:25:47.013,-311.0,-928.0,269.0,-1.0,-2.0,0.0,156,129,133,132,135
2025-02-26 14:25:47.017,-314.0,-928.0,263.0,0.0,-2.0,0.0,154,126,128,130,133
2025-02-26 14:25:47.022,-312.0,-929.0,265.0,0.0,-3.0,-1.0,155,126,131,131,133
2025-02-26 14:25:47.030,-314.0,-929.0,263.0,0.0,-2.0,-1.0,156,129,134,133,135
2025-02-26 14:25:47.034,-317.0,-929.0,271.0,0.0,-2.0,-1.0,156,128,133,133,135
2025-02-26 14:25:47.038,-310.0,-929.0,269.0,0.0,-2.0,-1.0,154,126,132,130,133
2025-02-26 14:25:47.042,-317.0,-915.0,280.0,1.0,-2.0,-1.0,156,128,133,132,135
2025-02-26 14:25:47.050,-309.0,-918.0,266.0,0.0,-3.0,-1.0,162,129,134,133,136
2025-02-26 14:25:47.051,-314.0,-917.0,270.0,0.0,-2.0,-1.0,158,128,134,133,136
2025-02-26 14:25:47.058,-314.0,-917.0,270.0,-1.0,-2.0,-1.0,154,126,130,130,133
2025-02-26 14:25:47.062,-309.0,-921.0,281.0,-1.0,-2.0,-1.0,156,129,134,132,135
2025-02-26 14:25:47.071,-317.0,-930.0,280.0,-1.0,-2.0,-1.0,155,129,134,134,136
2025-02-26 14:25:47.075,-323.0,-947.0,270.0,0.0,-3.0,-1.0,154,128,132,132,135
2025-02-26 14:25:47.079,-307.0,-925.0,285.0,0.0,-1.0,-1.0,153,126,131,131,133
2025-02-26 14:25:47.087,-312.0,-935.0,279.0,-1.0,-2.0,-1.0,154,129,135,136,137
2025-02-26 14:25:47.090,-308.0,-925.0,286.0,0.0,-2.0,-1.0,155,129,134,133,135
2025-02-26 14:25:47.095,-306.0,-920.0,278.0,0.0,-1.0,-1.0,157,128,133,132,134
2025-02-26 14:25:47.100,-306.0,-923.0,276.0,0.0,-1.0,-1.0,154,126,130,129,133
2025-02-26 14:25:47.107,-308.0,-925.0,274.0,-1.0,-1.0,-1.0,158,130,134,134,137
2025-02-26 14:25:47.111,-314.0,-928.0,277.0,-1.0,-2.0,-1.0,156,128,133,133,136
2025-02-26 14:25:47.115,-309.0,-927.0,278.0,-2.0,-2.0,-1.0,155,128,132,132,134
2025-02-26 14:25:47.120,-308.0,-928.0,280.0,-2.0,-1.0,-1.0,153,126,131,131,133
2025-02-26 14:25:47.126,-311.0,-928.0,280.0,-1.0,-1.0,-1.0,155,127,131,132,133
2025-02-26 14:25:47.132,-307.0,-933.0,277.0,-1.0,-1.0,-1.0,155,129,134,134,135
2025-02-26 14:25:47.137,-308.0,-933.0,275.0,-1.0,-1.0,-1.0,155,130,133,131,135
2025-02-26 14:25:47.144,-310.0,-935.0,276.0,-1.0,-1.0,-1.0,155,128,131,131,133
2025-02-26 14:25:47.148,-304.0,-933.0,280.0,-2.0,-1.0,-1.0,156,127,133,131,135
2025-02-26 14:25:47.153,-297.0,-933.0,279.0,-1.0,0.0,-1.0,157,127,133,133,135
2025-02-26 14:25:47.157,-301.0,-933.0,278.0,-1.0,0.0,-1.0,155,128,132,133,135
2025-02-26 14:25:47.165,-299.0,-926.0,277.0,-1.0,0.0,-1.0,154,126,132,131,133
2025-02-26 14:25:47.168,-300.0,-935.0,272.0,-1.0,0.0,-1.0,154,127,131,132,133
2025-02-26 14:25:47.173,-307.0,-924.0,269.0,-1.0,0.0,-1.0,155,128,133,135,136
2025-02-26 14:25:47.178,-308.0,-926.0,274.0,-1.0,0.0,-1.0,154,127,132,132,133
2025-02-26 14:25:47.185,-309.0,-936.0,273.0,-2.0,0.0,-1.0,155,127,133,133,133
2025-02-26 14:25:47.189,-313.0,-936.0,269.0,-1.0,0.0,-1.0,153,125,132,131,133
2025-02-26 14:25:47.193,-315.0,-927.0,270.0,-2.0,0.0,-1.0,156,129,132,132,136
2025-02-26 14:25:47.198,-312.0,-936.0,265.0,-2.0,0.0,-1.0,154,127,133,131,134
2025-02-26 14:25:47.206,-315.0,-937.0,264.0,-2.0,-1.0,0.0,153,127,131,132,134
2025-02-26 14:25:47.210,-313.0,-934.0,275.0,-3.0,-1.0,0.0,154,126,131,131,133
2025-02-26 14:25:47.214,-311.0,-939.0,268.0,-3.0,-1.0,1.0,157,128,133,132,135
2025-02-26 14:25:47.218,-317.0,-937.0,269.0,-3.0,0.0,0.0,155,128,132,132,135
2025-02-26 14:25:47.222,-309.0,-944.0,275.0,-3.0,0.0,1.0,155,127,131,133,135
2025-02-26 14:25:47.229,-308.0,-945.0,283.0,-3.0,-1.0,1.0,156,130,134,133,136
2025-02-26 14:25:47.235,-312.0,-946.0,271.0,-2.0,-1.0,1.0,156,128,131,133,136
2025-02-26 14:25:47.239,-312.0,-947.0,274.0,-2.0,0.0,2.0,154,126,130,131,133
2025-02-26 14:25:47.247,-306.0,-937.0,286.0,-2.0,0.0,2.0,155,128,134,133,135
2025-02-26 14:25:47.251,-312.0,-939.0,272.0,-2.0,0.0,2.0,156,128,134,134,136
2025-02-26 14:25:47.253,-313.0,-951.0,276.0,-2.0,0.0,2.0,157,127,132,133,134
2025-02-26 14:25:47.259,-311.0,-939.0,277.0,-2.0,1.0,2.0,153,125,130,130,133
2025-02-26 14:25:47.265,-311.0,-944.0,256.0,-2.0,1.0,2.0,158,130,135,135,137
2025-02-26 14:25:47.271,-317.0,-944.0,262.0,-2.0,1.0,2.0,156,129,135,134,136
2025-02-26 14:25:47.275,-313.0,-945.0,274.0,-1.0,1.0,2.0,155,126,130,131,133
2025-02-26 14:25:47.277,-311.0,-935.0,282.0,-1.0,1.0,2.0,153,125,132,130,133
2025-02-26 14:25:47.284,-315.0,-939.0,259.0,-2.0,1.0,3.0,156,130,136,136,138
2025-02-26 14:25:47.289,-302.0,-940.0,266.0,-3.0,1.0,3.0,156,129,134,133,135
2025-02-26 14:25:47.296,-304.0,-915.0,231.0,-3.0,1.0,4.0,154,125,131,130,133
2025-02-26 14:25:47.300,-313.0,-953.0,282.0,-5.0,0.0,3.0,154,127,132,134,135
2025-02-26 14:25:47.304,-305.0,-930.0,277.0,-5.0,0.0,5.0,158,130,135,135,137
2025-02-26 14:25:47.312,-307.0,-917.0,263.0,-4.0,1.0,3.0,154,126,131,131,133
2025-02-26 14:25:47.316,-311.0,-985.0,249.0,-7.0,-2.0,3.0,154,125,129,130,132
2025-02-26 14:25:47.321,-314.0,-917.0,248.0,-6.0,1.0,4.0,156,128,134,133,136
2025-02-26 14:25:47.325,-305.0,-932.0,254.0,-5.0,1.0,4.0,157,130,133,133,136
2025-02-26 14:25:47.332,-313.0,-954.0,283.0,-4.0,-1.0,4.0,154,126,131,131,133
2025-02-26 14:25:47.337,-328.0,-950.0,239.0,-5.0,-3.0,4.0,156,128,133,133,135
2025-02-26 14:25:47.341,-313.0,-933.0,234.0,-3.0,-2.0,4.0,156,129,132,132,136
2025-02-26 14:25:47.346,-319.0,-901.0,253.0,-3.0,0.0,4.0,154,128,133,132,135
2025-02-26 14:25:47.353,-316.0,-945.0,263.0,-3.0,-1.0,4.0,155,128,131,131,133
2025-02-26 14:25:47.358,-337.0,-940.0,234.0,0.0,-2.0,4.0,155,129,133,133,135
2025-02-26 14:25:47.362,-304.0,-888.0,252.0,0.0,-1.0,3.0,155,128,132,132,134
2025-02-26 14:25:47.366,-320.0,-920.0,235.0,0.0,-1.0,4.0,155,127,131,132,134
2025-02-26 14:25:47.373,-321.0,-900.0,258.0,0.0,0.0,2.0,155,126,131,131,133
2025-02-26 14:25:47.377,-324.0,-924.0,226.0,0.0,-2.0,2.0,155,129,133,133,136
2025-02-26 14:25:47.380,-330.0,-907.0,239.0,-1.0,-2.0,2.0,153,127,131,130,133
2025-02-26 14:25:47.386,-327.0,-906.0,242.0,-1.0,-2.0,3.0,154,128,132,133,135
2025-02-26 14:25:47.393,-331.0,-883.0,227.0,3.0,-2.0,3.0,157,129,133,133,135
2025-02-26 14:25:47.398,-355.0,-878.0,88.0,-6.0,3.0,2.0,154,128,133,132,136
2025-02-26 14:25:47.402,-225.0,-940.0,182.0,11.0,2.0,3.0,154,126,131,131,133
2025-02-26 14:25:47.403,-385.0,-957.0,354.0,6.0,-1.0,-1.0,157,128,134,133,136
2025-02-26 14:25:47.409,-345.0,-935.0,257.0,-2.0,-5.0,3.0,156,130,134,132,135
2025-02-26 14:25:47.419,-330.0,-880.0,291.0,5.0,-6.0,2.0,155,128,132,132,136
2025-02-26 14:25:47.421,-362.0,-910.0,258.0,0.0,-5.0,1.0,153,125,129,130,133
2025-02-26 14:25:47.427,-322.0,-955.0,231.0,1.0,-6.0,1.0,158,130,134,134,136
2025-02-26 14:25:47.432,-344.0,-905.0,260.0,3.0,-3.0,0.0,157,130,136,134,136
2025-02-26 14:25:47.439,-325.0,-933.0,261.0,6.0,-3.0,1.0,154,126,131,131,133
2025-02-26 14:25:47.440,-346.0,-920.0,245.0,4.0,-5.0,1.0,156,127,132,131,134
2025-02-26 14:25:47.447,-323.0,-913.0,273.0,6.0,-4.0,1.0,158,128,135,135,141
2025-02-26 14:25:47.452,-308.0,-912.0,258.0,4.0,-3.0,0.0,156,130,134,133,136
2025-02-26 14:25:47.459,-321.0,-925.0,247.0,3.0,-4.0,0.0,155,128,132,132,134
2025-02-26 14:25:47.464,-322.0,-914.0,253.0,3.0,-6.0,1.0,157,130,135,134,137
2025-02-26 14:25:47.468,-311.0,-922.0,269.0,3.0,-6.0,0.0,159,129,140,134,137
2025-02-26 14:25:47.472,-317.0,-942.0,283.0,4.0,-7.0,0.0,155,128,132,131,135
2025-02-26 14:25:47.480,-322.0,-896.0,268.0,6.0,-5.0,0.0,159,130,134,136,137
2025-02-26 14:25:47.482,-329.0,-920.0,275.0,9.0,-3.0,-1.0,157,129,136,133,136
2025-02-26 14:25:47.488,-331.0,-916.0,276.0,9.0,-4.0,-1.0,156,130,133,135,138
2025-02-26 14:25:47.493,-321.0,-904.0,270.0,9.0,-4.0,-1.0,156,128,132,132,135
2025-02-26 14:25:47.500,-321.0,-908.0,295.0,7.0,-2.0,-2.0,158,129,134,134,137
2025-02-26 14:25:47.506,-343.0,-922.0,259.0,10.0,-3.0,1.0,158,130,134,134,137
2025-02-26 14:25:47.511,-288.0,-892.0,313.0,9.0,-3.0,-3.0,157,130,134,132,135
2025-02-26 14:25:47.515,-311.0,-1002.0,280.0,3.0,-6.0,-4.0,156,128,133,134,136
2025-02-26 14:25:47.520,-382.0,-900.0,243.0,11.0,-5.0,-1.0,156,130,135,135,137
2025-02-26 14:25:47.525,-292.0,-867.0,300.0,7.0,0.0,0.0,158,130,134,134,137
2025-02-26 14:25:47.530,-329.0,-956.0,327.0,7.0,2.0,-2.0,156,129,133,133,135
2025-02-26 14:25:47.534,-354.0,-957.0,242.0,10.0,-6.0,-2.0,154,127,132,132,134
2025-02-26 14:25:47.541,-340.0,-937.0,292.0,9.0,-4.0,-2.0,155,129,135,135,137
2025-02-26 14:25:47.545,-293.0,-938.0,311.0,6.0,-1.0,-3.0,160,131,136,135,138
2025-02-26 14:25:47.550,-326.0,-924.0,282.0,12.0,-1.0,0.0,156,128,133,131,136
2025-02-26 14:25:47.554,-332.0,-901.0,317.0,14.0,-1.0,0.0,154,126,132,131,134
2025-02-26 14:25:47.562,-303.0,-964.0,336.0,11.0,-2.0,-1.0,156,129,134,134,136
2025-02-26 14:25:47.566,-337.0,-928.0,264.0,14.0,-1.0,-1.0,159,131,136,136,138
2025-02-26 14:25:47.569,-301.0,-1000.0,324.0,12.0,-2.0,-3.0,155,128,133,132,136
2025-02-26 14:25:47.575,-332.0,-932.0,309.0,12.0,-3.0,-1.0,155,128,132,133,135
2025-02-26 14:25:47.581,-328.0,-891.0,279.0,16.0,-1.0,2.0,158,129,134,134,137
2025-02-26 14:25:47.587,-311.0,-945.0,320.0,13.0,0.0,2.0,159,130,136,137,138
2025-02-26 14:25:47.591,-314.0,-971.0,315.0,15.0,-1.0,1.0,158,128,133,134,135
2025-02-26 14:25:47.596,-316.0,-985.0,299.0,15.0,-2.0,2.0,153,127,131,134,134
2025-02-26 14:25:47.603,-311.0,-956.0,321.0,16.0,1.0,1.0,158,130,133,135,137
2025-02-26 14:25:47.606,-307.0,-989.0,330.0,16.0,2.0,1.0,158,130,136,133,137
2025-02-26 14:25:47.611,-331.0,-965.0,315.0,19.0,3.0,5.0,156,128,133,133,135
2025-02-26 14:25:47.615,-318.0,-929.0,329.0,25.0,4.0,6.0,157,130,134,134,137
2025-02-26 14:25:47.623,-293.0,-977.0,340.0,24.0,6.0,5.0,158,129,135,134,136
2025-02-26 14:25:47.627,-309.0,-998.0,321.0,23.0,7.0,4.0,156,129,133,133,135
2025-02-26 14:25:47.632,-318.0,-1029.0,319.0,24.0,5.0,4.0,154,125,132,130,135
2025-02-26 14:25:47.636,-325.0,-990.0,329.0,28.0,7.0,6.0,157,130,134,134,136
2025-02-26 14:25:47.641,-308.0,-948.0,318.0,31.0,9.0,9.0,156,128,132,133,139
2025-02-26 14:25:47.647,-314.0,-966.0,367.0,36.0,11.0,10.0,155,127,134,133,136
2025-02-26 14:25:47.652,-338.0,-939.0,353.0,35.0,8.0,11.0,155,128,133,133,135
2025-02-26 14:25:47.657,-301.0,-942.0,319.0,33.0,7.0,9.0,158,130,134,134,135
2025-02-26 14:25:47.664,-330.0,-928.0,279.0,32.0,7.0,10.0,157,129,134,134,136
2025-02-26 14:25:47.669,-327.0,-899.0,299.0,30.0,8.0,11.0,155,127,133,130,136
2025-02-26 14:25:47.672,-332.0,-884.0,286.0,29.0,9.0,12.0,157,129,134,134,137
2025-02-26 14:25:47.677,-329.0,-862.0,291.0,26.0,9.0,13.0,158,130,135,134,137
2025-02-26 14:25:47.683,-357.0,-913.0,298.0,24.0,6.0,13.0,157,127,132,132,135
2025-02-26 14:25:47.689,-351.0,-933.0,332.0,17.0,4.0,10.0,156,125,133,132,138
2025-02-26 14:25:47.693,-348.0,-931.0,322.0,14.0,3.0,11.0,158,129,136,134,138
2025-02-26 14:25:47.696,-352.0,-895.0,328.0,10.0,3.0,13.0,157,132,134,134,135
2025-02-26 14:25:47.705,-336.0,-867.0,329.0,10.0,5.0,15.0,156,128,132,131,135
2025-02-26 14:25:47.707,-333.0,-871.0,364.0,9.0,4.0,16.0,156,127,132,132,136
2025-02-26 14:25:47.714,-328.0,-883.0,345.0,5.0,2.0,15.0,158,130,135,134,137
2025-02-26 14:25:47.718,-320.0,-888.0,338.0,3.0,-1.0,13.0,157,129,134,133,135
2025-02-26 14:25:47.726,-311.0,-858.0,350.0,0.0,0.0,11.0,155,127,132,131,135
2025-02-26 14:25:47.730,-278.0,-842.0,340.0,-4.0,-1.0,10.0,157,130,136,135,137
2025-02-26 14:25:47.734,-271.0,-838.0,347.0,-8.0,1.0,9.0,158,129,134,133,139
2025-02-26 14:25:47.738,-277.0,-860.0,315.0,-10.0,-1.0,7.0,157,128,132,134,138
2025-02-26 14:25:47.746,-280.0,-892.0,318.0,-16.0,-1.0,6.0,157,132,134,133,137
2025-02-26 14:25:47.750,-305.0,-910.0,312.0,-23.0,-1.0,6.0,156,128,134,134,136
2025-02-26 14:25:47.755,-337.0,-925.0,315.0,-28.0,-1.0,7.0,158,130,135,134,137
2025-02-26 14:25:47.762,-380.0,-932.0,321.0,-29.0,0.0,10.0,156,128,134,132,136
2025-02-26 14:25:47.767,-379.0,-929.0,347.0,-28.0,1.0,13.0,155,128,134,134,137
2025-02-26 14:25:47.771,-384.0,-939.0,345.0,-26.0,2.0,14.0,155,127,132,132,135
2025-02-26 14:25:47.776,-421.0,-949.0,335.0,-23.0,0.0,16.0,157,129,135,133,137
2025-02-26 14:25:47.781,-427.0,-953.0,343.0,-23.0,-3.0,17.0,159,128,134,133,137
2025-02-26 14:25:47.788,-423.0,-915.0,351.0,-22.0,-3.0,19.0,156,127,133,132,136
2025-02-26 14:25:47.792,-433.0,-802.0,354.0,-17.0,-2.0,21.0,156,127,133,131,135
2025-02-26 14:25:47.800,-413.0,-879.0,341.0,-13.0,0.0,22.0,155,126,131,132,135
2025-02-26 14:25:47.804,-348.0,-928.0,308.0,-6.0,5.0,22.0,158,129,134,133,136
2025-02-26 14:25:47.808,-363.0,-890.0,290.0,-2.0,8.0,21.0,156,129,134,134,136
2025-02-26 14:25:47.811,-334.0,-956.0,373.0,-1.0,11.0,19.0,156,127,133,132,135
2025-02-26 14:25:47.820,-282.0,-955.0,363.0,1.0,17.0,18.0,156,129,131,130,137
2025-02-26 14:25:47.824,-299.0,-939.0,364.0,5.0,21.0,18.0,157,129,134,132,137
2025-02-26 14:25:47.828,-312.0,-980.0,392.0,8.0,25.0,16.0,157,132,133,134,137
2025-02-26 14:25:47.832,-326.0,-991.0,437.0,10.0,27.0,15.0,155,126,132,131,135
2025-02-26 14:25:47.840,-338.0,-998.0,385.0,10.0,29.0,15.0,156,127,129,130,135
2025-02-26 14:25:47.845,-349.0,-989.0,311.0,20.0,27.0,14.0,156,128,135,133,137
2025-02-26 14:25:47.849,-377.0,-1001.0,316.0,20.0,28.0,15.0,156,128,134,132,137
2025-02-26 14:25:47.853,-414.0,-976.0,284.0,26.0,29.0,18.0,155,126,133,129,133
2025-02-26 14:25:47.859,-437.0,-952.0,286.0,32.0,29.0,18.0,156,125,131,130,136
2025-02-26 14:25:47.866,-464.0,-935.0,258.0,37.0,28.0,20.0,160,131,133,133,140
2025-02-26 14:25:47.869,-474.0,-926.0,270.0,42.0,27.0,20.0,159,129,134,132,139
2025-02-26 14:25:47.877,-502.0,-911.0,258.0,43.0,24.0,23.0,156,126,132,129,135
2025-02-26 14:25:47.881,-485.0,-869.0,248.0,45.0,22.0,22.0,156,125,133,129,135
2025-02-26 14:25:47.885,-502.0,-862.0,254.0,45.0,20.0,21.0,160,131,138,133,139
2025-02-26 14:25:47.890,-499.0,-843.0,270.0,41.0,17.0,22.0,159,128,134,131,137
2025-02-26 14:25:47.898,-450.0,-899.0,266.0,41.0,12.0,21.0,157,127,133,131,137
2025-02-26 14:25:47.902,-462.0,-875.0,307.0,39.0,9.0,20.0,155,125,132,129,135
2025-02-26 14:25:47.907,-443.0,-873.0,318.0,37.0,7.0,20.0,158,129,134,131,137
2025-02-26 14:25:47.911,-408.0,-866.0,340.0,34.0,6.0,16.0,159,128,135,132,138
2025-02-26 14:25:47.918,-391.0,-856.0,376.0,30.0,6.0,13.0,159,126,134,132,138
2025-02-26 14:25:47.920,-379.0,-900.0,385.0,23.0,6.0,10.0,155,125,132,129,135
2025-02-26 14:25:47.926,-344.0,-904.0,392.0,20.0,6.0,7.0,159,129,135,133,139
2025-02-26 14:25:47.931,-373.0,-896.0,363.0,14.0,7.0,4.0,158,128,136,133,138
2025-02-26 14:25:47.939,-368.0,-894.0,379.0,12.0,8.0,1.0,155,126,132,129,135
2025-02-26 14:25:47.943,-376.0,-912.0,361.0,6.0,11.0,-1.0,155,125,131,130,134
2025-02-26 14:25:47.947,-400.0,-916.0,375.0,-3.0,16.0,-3.0,158,130,135,133,136
2025-02-26 14:25:47.951,-378.0,-898.0,354.0,-6.0,15.0,-5.0,159,127,134,132,138
2025-02-26 14:25:47.959,-405.0,-926.0,319.0,-9.0,13.0,-4.0,156,122,132,129,136
2025-02-26 14:25:47.963,-413.0,-935.0,286.0,-13.0,9.0,-3.0,156,126,132,130,136
2025-02-26 14:25:47.968,-453.0,-959.0,309.0,-19.0,6.0,2.0,158,128,135,134,139
2025-02-26 14:25:47.975,-467.0,-902.0,323.0,-24.0,5.0,6.0,159,129,136,133,139
2025-02-26 14:25:47.980,-492.0,-891.0,308.0,-27.0,3.0,10.0,154,125,132,130,135
2025-02-26 14:25:47.984,-491.0,-950.0,387.0,-28.0,0.0,13.0,158,125,133,129,136
2025-02-26 14:25:47.989,-486.0,-966.0,385.0,-27.0,0.0,17.0,158,128,134,130,139
2025-02-26 14:25:47.996,-506.0,-928.0,369.0,-27.0,-3.0,19.0,157,127,134,131,138
2025-02-26 14:25:48.000,-467.0,-978.0,355.0,-23.0,-8.0,20.0,158,127,134,130,137
2025-02-26 14:25:48.005,-455.0,-969.0,340.0,-22.0,-9.0,21.0,157,128,135,131,138
2025-02-26 14:25:48.013,-455.0,-943.0,356.0,-20.0,-11.0,21.0,155,125,134,130,136
2025-02-26 14:25:48.017,-437.0,-925.0,328.0,-22.0,-11.0,20.0,158,129,135,131,138
2025-02-26 14:25:48.021,-379.0,-990.0,353.0,-35.0,-13.0,23.0,158,127,134,131,138
2025-02-26 14:25:48.029,-380.0,-867.0,416.0,-26.0,-8.0,19.0,158,127,135,131,139
2025-02-26 14:25:48.033,-387.0,-908.0,363.0,-16.0,-7.0,17.0,157,126,133,129,136
2025-02-26 14:25:48.037,-373.0,-914.0,357.0,-13.0,-2.0,14.0,157,126,132,130,136
2025-02-26 14:25:48.042,-357.0,-909.0,324.0,-3.0,6.0,12.0,159,127,132,131,139
2025-02-26 14:25:48.048,-385.0,-918.0,323.0,0.0,6.0,11.0,159,129,134,135,140
2025-02-26 14:25:48.053,-363.0,-859.0,339.0,4.0,9.0,11.0,156,126,134,130,137
2025-02-26 14:25:48.058,-371.0,-878.0,349.0,3.0,10.0,12.0,155,125,133,129,137
2025-02-26 14:25:48.069,-390.0,-873.0,371.0,-7.0,16.0,14.0,158,128,134,131,139
2025-02-26 14:25:48.072,-398.0,-863.0,335.0,-12.0,14.0,18.0,159,126,135,132,141
2025-02-26 14:25:48.074,-439.0,-880.0,357.0,-14.0,13.0,21.0,156,126,134,130,138
2025-02-26 14:25:48.079,-466.0,-882.0,354.0,-14.0,12.0,23.0,156,124,132,129,135
2025-02-26 14:25:48.086,-479.0,-886.0,338.0,-9.0,13.0,24.0,158,127,134,131,138
2025-02-26 14:25:48.091,-480.0,-869.0,343.0,-8.0,12.0,25.0,159,128,136,132,139
2025-02-26 14:25:48.095,-468.0,-834.0,337.0,-5.0,15.0,25.0,158,127,133,131,137
2025-02-26 14:25:48.099,-456.0,-835.0,313.0,4.0,13.0,25.0,156,125,133,130,136
2025-02-26 14:25:48.107,-459.0,-826.0,364.0,3.0,13.0,23.0,157,127,134,130,138
2025-02-26 14:25:48.111,-480.0,-817.0,287.0,2.0,9.0,22.0,160,129,134,132,139
2025-02-26 14:25:48.116,-455.0,-784.0,273.0,-1.0,4.0,21.0,158,128,135,131,137
2025-02-26 14:25:48.120,-448.0,-769.0,339.0,-4.0,6.0,18.0,156,125,132,129,136
2025-02-26 14:25:48.127,-452.0,-769.0,329.0,-8.0,7.0,18.0,161,130,137,134,141
2025-02-26 14:25:48.131,-454.0,-771.0,331.0,-7.0,8.0,15.0,158,133,135,133,141
2025-02-26 14:25:48.135,-432.0,-774.0,314.0,-8.0,11.0,15.0,158,127,133,131,138
2025-02-26 14:25:48.139,-443.0,-766.0,304.0,-4.0,11.0,12.0,156,125,131,129,136
2025-02-26 14:25:48.148,-484.0,-764.0,286.0,-9.0,11.0,12.0,159,129,135,132,138
2025-02-26 14:25:48.152,-426.0,-797.0,361.0,-12.0,18.0,13.0,159,129,136,130,138
2025-02-26 14:25:48.156,-466.0,-770.0,285.0,-12.0,18.0,11.0,157,128,133,130,137
2025-02-26 14:25:48.163,-471.0,-793.0,321.0,-12.0,20.0,13.0,157,125,133,129,136
2025-02-26 14:25:48.168,-435.0,-778.0,332.0,-11.0,26.0,11.0,157,127,133,130,137
2025-02-26 14:25:48.172,-479.0,-793.0,278.0,-1.0,31.0,11.0,159,129,135,132,139
2025-02-26 14:25:48.177,-490.0,-799.0,230.0,2.0,28.0,11.0,157,128,136,131,138
2025-02-26 14:25:48.184,-473.0,-794.0,224.0,5.0,24.0,12.0,157,128,135,131,138
2025-02-26 14:25:48.189,-470.0,-780.0,257.0,4.0,23.0,13.0,157,126,132,129,137
2025-02-26 14:25:48.193,-478.0,-774.0,279.0,2.0,20.0,13.0,157,129,135,132,139
2025-02-26 14:25:48.197,-487.0,-773.0,248.0,-3.0,14.0,15.0,158,128,134,131,138
2025-02-26 14:25:48.204,-480.0,-766.0,295.0,-2.0,15.0,14.0,156,127,132,130,137
2025-02-26 14:25:48.209,-503.0,-765.0,238.0,-2.0,14.0,13.0,156,126,132,129,136
2025-02-26 14:25:48.214,-498.0,-762.0,262.0,-2.0,10.0,13.0,157,128,135,131,138
2025-02-26 14:25:48.221,-492.0,-751.0,259.0,3.0,10.0,12.0,158,129,134,131,137
2025-02-26 14:25:48.223,-514.0,-759.0,243.0,4.0,9.0,11.0,158,128,133,132,137
2025-02-26 14:25:48.230,-510.0,-736.0,268.0,3.0,9.0,10.0,156,127,132,130,135
2025-02-26 14:25:48.234,-507.0,-735.0,262.0,5.0,9.0,9.0,158,128,133,131,139
2025-02-26 14:25:48.238,-522.0,-738.0,245.0,5.0,5.0,8.0,157,127,134,131,138
2025-02-26 14:25:48.246,-511.0,-725.0,240.0,5.0,4.0,8.0,156,126,132,129,135
2025-02-26 14:25:48.250,-513.0,-736.0,245.0,5.0,0.0,7.0,159,130,136,132,138
2025-02-26 14:25:48.254,-512.0,-729.0,243.0,2.0,-4.0,7.0,158,129,134,131,138
2025-02-26 14:25:48.258,-494.0,-728.0,294.0,1.0,-3.0,6.0,155,125,131,129,136
2025-02-26 14:25:48.266,-502.0,-731.0,299.0,0.0,-2.0,5.0,154,126,131,130,135
2025-02-26 14:25:48.271,-501.0,-740.0,287.0,-1.0,-3.0,5.0,159,128,134,131,138
2025-02-26 14:25:48.275,-494.0,-742.0,297.0,-3.0,-1.0,5.0,157,129,133,130,136
2025-02-26 14:25:48.279,-488.0,-745.0,317.0,-4.0,0.0,5.0,155,126,131,128,136
2025-02-26 14:25:48.287,-478.0,-751.0,310.0,-9.0,1.0,4.0,160,131,136,134,141
2025-02-26 14:25:48.291,-466.0,-749.0,335.0,-8.0,5.0,4.0,158,128,134,131,137
2025-02-26 14:25:48.295,-482.0,-754.0,301.0,-7.0,5.0,3.0,155,126,132,130,137
2025-02-26 14:25:48.300,-481.0,-759.0,305.0,-6.0,4.0,3.0,155,126,130,128,135
2025-02-26 14:25:48.307,-465.0,-759.0,317.0,-4.0,5.0,1.0,160,131,135,134,140
2025-02-26 14:25:48.311,-477.0,-766.0,303.0,-3.0,4.0,0.0,157,128,133,131,138
2025-02-26 14:25:48.314,-474.0,-774.0,292.0,-3.0,3.0,-1.0,155,126,132,130,136
2025-02-26 14:25:48.320,-478.0,-764.0,291.0,-1.0,0.0,-2.0,157,128,134,132,138
2025-02-26 14:25:48.327,-481.0,-783.0,299.0,1.0,-1.0,-2.0,162,127,135,133,140
2025-02-26 14:25:48.332,-494.0,-789.0,314.0,1.0,-1.0,-3.0,157,127,134,131,139
2025-02-26 14:25:48.336,-493.0,-787.0,318.0,2.0,0.0,-3.0,155,125,130,128,134
2025-02-26 14:25:48.341,-497.0,-791.0,312.0,2.0,0.0,-3.0,158,128,134,130,137
2025-02-26 14:25:48.345,-496.0,-793.0,309.0,2.0,0.0,-3.0,159,131,137,132,140
2025-02-26 14:25:48.352,-496.0,-795.0,313.0,2.0,0.0,-3.0,156,126,131,130,137
2025-02-26 14:25:48.357,-497.0,-801.0,321.0,1.0,0.0,-3.0,156,126,132,129,135
2025-02-26 14:25:48.361,-493.0,-793.0,311.0,0.0,1.0,-3.0,158,128,134,129,138
2025-02-26 14:25:48.366,-490.0,-792.0,321.0,0.0,2.0,-4.0,158,129,134,132,138
2025-02-26 14:25:48.373,-494.0,-798.0,311.0,-1.0,3.0,-5.0,155,126,133,130,136
2025-02-26 14:25:48.377,-502.0,-798.0,307.0,-1.0,3.0,-5.0,156,127,135,133,137
2025-02-26 14:25:48.381,-493.0,-803.0,308.0,-1.0,3.0,-6.0,158,127,133,131,138
2025-02-26 14:25:48.386,-491.0,-804.0,306.0,-1.0,3.0,-7.0,157,127,132,130,137
2025-02-26 14:25:48.393,-489.0,-806.0,311.0,-2.0,4.0,-7.0,157,127,132,131,136
2025-02-26 14:25:48.398,-494.0,-796.0,307.0,-1.0,4.0,-7.0,157,128,134,131,138
2025-02-26 14:25:48.402,-497.0,-809.0,328.0,-3.0,6.0,-8.0,156,127,133,130,136
2025-02-26 14:25:48.406,-505.0,-807.0,303.0,-4.0,6.0,-8.0,157,127,133,130,136
2025-02-26 14:25:48.414,-500.0,-805.0,281.0,-3.0,5.0,-8.0,155,125,131,129,134
2025-02-26 14:25:48.418,-494.0,-790.0,285.0,-3.0,5.0,-8.0,158,128,133,132,137
2025-02-26 14:25:48.423,-484.0,-789.0,273.0,0.0,4.0,-8.0,157,127,132,129,136
2025-02-26 14:25:48.426,-475.0,-798.0,310.0,-1.0,5.0,-8.0,156,127,131,131,136
2025-02-26 14:25:48.435,-473.0,-809.0,289.0,-2.0,4.0,-8.0,158,127,133,133,138
2025-02-26 14:25:48.438,-489.0,-814.0,294.0,-1.0,3.0,-8.0,157,128,133,131,137
2025-02-26 14:25:48.443,-463.0,-801.0,278.0,0.0,1.0,-9.0,158,128,133,131,136
2025-02-26 14:25:48.448,-474.0,-815.0,305.0,-4.0,1.0,-9.0,155,126,136,129,135
2025-02-26 14:25:48.455,-474.0,-820.0,298.0,-6.0,2.0,-9.0,157,128,133,131,137
2025-02-26 14:25:48.460,-480.0,-822.0,296.0,-7.0,0.0,-10.0,156,129,132,131,139
2025-02-26 14:25:48.464,-479.0,-834.0,292.0,-8.0,0.0,-10.0,156,125,134,130,136
2025-02-26 14:25:48.471,-473.0,-848.0,289.0,-10.0,0.0,-10.0,158,128,134,131,138
2025-02-26 14:25:48.476,-468.0,-843.0,298.0,-13.0,-2.0,-10.0,161,131,136,135,139
2025-02-26 14:25:48.480,-474.0,-843.0,301.0,-13.0,-2.0,-10.0,161,131,137,135,140
2025-02-26 14:25:48.487,-464.0,-838.0,271.0,-13.0,-2.0,-11.0,163,134,139,136,143
2025-02-26 14:25:48.490,-486.0,-872.0,250.0,-15.0,-3.0,-10.0,162,131,138,135,141
2025-02-26 14:25:48.497,-478.0,-861.0,297.0,-12.0,-1.0,-11.0,160,130,136,133,139
2025-02-26 14:25:48.500,-446.0,-886.0,248.0,-14.0,-2.0,-10.0,160,130,136,134,139
2025-02-26 14:25:48.508,-460.0,-885.0,311.0,-18.0,1.0,-10.0,163,132,139,138,142
2025-02-26 14:25:48.513,-454.0,-886.0,281.0,-21.0,-2.0,-9.0,164,134,138,137,143
2025-02-26 14:25:48.517,-472.0,-918.0,275.0,-18.0,0.0,-7.0,161,132,137,136,140
2025-02-26 14:25:48.524,-483.0,-879.0,279.0,-17.0,3.0,-7.0,161,131,138,134,140
2025-02-26 14:25:48.529,-462.0,-879.0,240.0,-16.0,7.0,-6.0,165,136,139,141,147
2025-02-26 14:25:48.533,-490.0,-907.0,236.0,-13.0,6.0,-5.0,167,138,145,141,148
2025-02-26 14:25:48.537,-501.0,-908.0,227.0,-13.0,4.0,-4.0,169,138,145,143,149
2025-02-26 14:25:48.545,-493.0,-918.0,235.0,-15.0,5.0,-3.0,168,137,142,141,146
2025-02-26 14:25:48.549,-498.0,-900.0,278.0,-17.0,8.0,-3.0,168,139,145,141,148
2025-02-26 14:25:48.553,-500.0,-893.0,235.0,-14.0,11.0,-3.0,171,141,148,146,150
2025-02-26 14:25:48.562,-508.0,-914.0,216.0,-7.0,8.0,-1.0,169,140,146,144,151
2025-02-26 14:25:48.562,-529.0,-909.0,262.0,-4.0,11.0,0.0,169,139,147,145,150
2025-02-26 14:25:48.570,-515.0,-902.0,221.0,0.0,11.0,0.0,168,138,144,142,148
2025-02-26 14:25:48.574,-520.0,-910.0,260.0,-4.0,11.0,1.0,172,141,148,146,151
2025-02-26 14:25:48.581,-523.0,-871.0,243.0,-5.0,9.0,1.0,170,141,147,146,151
2025-02-26 14:25:48.586,-517.0,-885.0,309.0,-8.0,11.0,1.0,170,140,146,144,150
2025-02-26 14:25:48.590,-524.0,-876.0,186.0,0.0,15.0,1.0,165,134,142,141,146
2025-02-26 14:25:48.595,-543.0,-865.0,172.0,-5.0,10.0,2.0,169,140,145,143,149
2025-02-26 14:25:48.600,-541.0,-838.0,227.0,0.0,13.0,2.0,165,135,142,141,146
2025-02-26 14:25:48.607,-519.0,-876.0,244.0,-6.0,16.0,0.0,165,136,142,142,144
2025-02-26 14:25:48.611,-533.0,-854.0,284.0,1.0,20.0,-1.0,164,135,140,139,144
2025-02-26 14:25:48.615,-538.0,-848.0,209.0,16.0,11.0,-1.0,164,134,141,139,145
2025-02-26 14:25:48.623,-515.0,-890.0,250.0,7.0,15.0,-1.0,163,133,138,137,144
2025-02-26 14:25:48.627,-509.0,-819.0,148.0,16.0,11.0,-1.0,165,135,140,138,143
2025-02-26 14:25:48.629,-545.0,-874.0,176.0,3.0,3.0,0.0,162,132,138,137,142
2025-02-26 14:25:48.636,-544.0,-842.0,130.0,4.0,-10.0,1.0,164,133,140,138,143
2025-02-26 14:25:48.641,-517.0,-892.0,298.0,0.0,-5.0,1.0,161,131,139,136,142
2025-02-26 14:25:48.648,-521.0,-837.0,273.0,-4.0,-2.0,1.0,163,132,138,137,143
2025-02-26 14:25:48.652,-512.0,-864.0,234.0,2.0,-3.0,2.0,163,134,140,139,145
2025-02-26 14:25:48.653,-508.0,-869.0,268.0,1.0,0.0,1.0,165,132,138,135,142
2025-02-26 14:25:48.661,-511.0,-892.0,199.0,3.0,-1.0,2.0,159,129,135,134,140
2025-02-26 14:25:48.668,-520.0,-850.0,301.0,-5.0,-2.0,2.0,163,133,138,136,141
2025-02-26 14:25:48.672,-485.0,-884.0,271.0,-14.0,1.0,2.0,163,133,140,135,142
2025-02-26 14:25:48.677,-498.0,-880.0,218.0,-15.0,-1.0,2.0,162,132,138,136,142
2025-02-26 14:25:48.684,-512.0,-852.0,252.0,-14.0,1.0,1.0,158,129,135,132,139
2025-02-26 14:25:48.688,-479.0,-854.0,259.0,-16.0,7.0,1.0,163,133,139,138,142
2025-02-26 14:25:48.693,-484.0,-871.0,255.0,-19.0,7.0,0.0,161,132,139,137,142
2025-02-26 14:25:48.697,-482.0,-846.0,211.0,-20.0,3.0,0.0,161,131,138,136,141
2025-02-26 14:25:48.702,-481.0,-863.0,231.0,-26.0,5.0,0.0,157,126,134,131,137
2025-02-26 14:25:48.708,-477.0,-856.0,213.0,-28.0,6.0,-1.0,162,129,137,135,140
2025-02-26 14:25:48.713,-494.0,-867.0,192.0,-22.0,6.0,-1.0,162,129,136,133,138
2025-02-26 14:25:48.717,-501.0,-860.0,153.0,-18.0,6.0,-1.0,162,128,133,130,137
2025-02-26 14:25:48.725,-482.0,-852.0,210.0,-23.0,9.0,-2.0,156,127,132,131,137
2025-02-26 14:25:48.730,-490.0,-853.0,144.0,-20.0,1.0,-1.0,158,127,136,131,136
2025-02-26 14:25:48.734,-482.0,-875.0,213.0,-14.0,2.0,-1.0,159,127,135,133,139
2025-02-26 14:25:48.739,-471.0,-866.0,170.0,-16.0,2.0,-1.0,157,130,133,131,139
2025-02-26 14:25:48.746,-455.0,-843.0,201.0,-16.0,4.0,-3.0,156,126,131,130,136
2025-02-26 14:25:48.750,-483.0,-824.0,189.0,-16.0,0.0,-3.0,157,126,129,131,136
2025-02-26 14:25:48.754,-474.0,-898.0,161.0,-12.0,-4.0,-1.0,159,129,134,133,137
2025-02-26 14:25:48.761,-482.0,-864.0,130.0,-17.0,-8.0,-2.0,158,128,135,133,139
2025-02-26 14:25:48.766,-473.0,-873.0,160.0,-14.0,-9.0,0.0,160,131,137,135,140
2025-02-26 14:25:48.770,-498.0,-882.0,141.0,-11.0,-12.0,1.0,157,125,129,130,136
2025-02-26 14:25:48.775,-460.0,-884.0,129.0,-7.0,-13.0,0.0,157,127,132,130,136
2025-02-26 14:25:48.783,-465.0,-892.0,214.0,-5.0,-12.0,1.0,156,126,133,129,135
2025-02-26 14:25:48.787,-473.0,-899.0,165.0,-3.0,-14.0,1.0,155,125,131,131,135
2025-02-26 14:25:48.791,-464.0,-888.0,234.0,-4.0,-13.0,2.0,152,122,129,126,132
2025-02-26 14:25:48.798,-469.0,-875.0,188.0,-11.0,-12.0,3.0,151,121,126,125,131
2025-02-26 14:25:48.803,-454.0,-868.0,221.0,-14.0,-10.0,3.0,153,121,128,127,133
2025-02-26 14:25:48.808,-477.0,-878.0,180.0,-12.0,-10.0,5.0,153,122,130,126,133
2025-02-26 14:25:48.810,-484.0,-880.0,184.0,-9.0,-11.0,6.0,154,123,128,127,132
2025-02-26 14:25:48.819,-483.0,-865.0,222.0,-10.0,-9.0,6.0,150,119,126,124,130
2025-02-26 14:25:48.823,-469.0,-857.0,211.0,-10.0,-6.0,6.0,150,119,125,123,131
2025-02-26 14:25:48.828,-502.0,-867.0,184.0,-10.0,-7.0,7.0,153,123,130,128,133
2025-02-26 14:25:48.835,-480.0,-866.0,208.0,-12.0,-6.0,8.0,151,121,128,127,132
2025-02-26 14:25:48.840,-478.0,-829.0,230.0,-17.0,-7.0,8.0,150,120,128,126,132
2025-02-26 14:25:48.845,-487.0,-845.0,179.0,-20.0,-9.0,9.0,150,120,125,124,130
2025-02-26 14:25:48.848,-498.0,-839.0,181.0,-25.0,-15.0,9.0,151,119,125,127,131
2025-02-26 14:25:48.853,-492.0,-832.0,217.0,-20.0,-14.0,9.0,149,120,124,122,130
2025-02-26 14:25:48.860,-495.0,-803.0,196.0,-16.0,-13.0,7.0,149,118,125,122,128
2025-02-26 14:25:48.865,-492.0,-798.0,208.0,-9.0,-13.0,6.0,149,118,127,125,129
2025-02-26 14:25:48.872,-490.0,-804.0,218.0,-6.0,-13.0,6.0,148,118,123,123,128
2025-02-26 14:25:48.877,-498.0,-794.0,222.0,-13.0,-15.0,6.0,148,119,125,123,129
2025-02-26 14:25:48.881,-486.0,-794.0,225.0,-18.0,-16.0,4.0,148,118,125,123,127
2025-02-26 14:25:48.885,-498.0,-814.0,250.0,-18.0,-16.0,5.0,148,119,124,121,129
2025-02-26 14:25:48.893,-509.0,-816.0,188.0,-20.0,-23.0,4.0,147,116,123,121,127
2025-02-26 14:25:48.897,-496.0,-812.0,270.0,-20.0,-22.0,4.0,149,118,125,124,130
2025-02-26 14:25:48.901,-480.0,-804.0,306.0,-18.0,-15.0,3.0,147,118,125,124,129
2025-02-26 14:25:48.910,-498.0,-827.0,262.0,-20.0,-16.0,3.0,151,119,124,123,129
2025-02-26 14:25:48.914,-492.0,-805.0,276.0,-18.0,-16.0,3.0,149,118,125,122,128
2025-02-26 14:25:48.918,-501.0,-845.0,208.0,-22.0,-16.0,3.0,148,117,118,121,127
2025-02-26 14:25:48.926,-500.0,-816.0,222.0,-26.0,-21.0,3.0,150,118,126,124,129
2025-02-26 14:25:48.930,-494.0,-823.0,249.0,-29.0,-21.0,3.0,149,120,125,124,130
2025-02-26 14:25:48.935,-498.0,-817.0,244.0,-29.0,-22.0,4.0,149,119,125,120,128
2025-02-26 14:25:48.938,-480.0,-802.0,279.0,-29.0,-19.0,3.0,147,115,122,122,127
2025-02-26 14:25:48.945,-472.0,-779.0,250.0,-20.0,-9.0,2.0,148,117,123,124,129
2025-02-26 14:25:48.951,-494.0,-807.0,244.0,-16.0,-9.0,1.0,150,117,126,125,129
2025-02-26 14:25:48.955,-520.0,-811.0,226.0,-14.0,-7.0,1.0,150,118,126,122,128
2025-02-26 14:25:48.963,-509.0,-807.0,178.0,-14.0,-10.0,1.0,150,120,125,124,127
2025-02-26 14:25:48.966,-497.0,-804.0,263.0,-21.0,-9.0,0.0,149,118,126,126,129
2025-02-26 14:25:48.972,-493.0,-811.0,188.0,-14.0,-14.0,0.0,148,115,125,121,128
2025-02-26 14:25:48.976,-510.0,-828.0,202.0,-13.0,-17.0,1.0,150,119,126,125,129
2025-02-26 14:25:48.984,-493.0,-814.0,229.0,-9.0,-14.0,0.0,150,118,126,123,130
2025-02-26 14:25:48.988,-505.0,-809.0,202.0,-4.0,-15.0,0.0,149,118,124,122,129
2025-02-26 14:25:48.991,-511.0,-822.0,191.0,-2.0,-18.0,-1.0,148,118,125,123,128
2025-02-26 14:25:49.000,-479.0,-837.0,232.0,-2.0,-16.0,-2.0,150,117,125,122,128
2025-02-26 14:25:49.004,-482.0,-832.0,238.0,0.0,-12.0,-3.0,150,119,125,123,128
2025-02-26 14:25:49.008,-500.0,-820.0,215.0,5.0,-12.0,-5.0,149,117,126,123,129
2025-02-26 14:25:49.013,-494.0,-871.0,186.0,12.0,-16.0,-6.0,149,117,123,121,128
2025-02-26 14:25:49.016,-503.0,-826.0,279.0,19.0,-6.0,-7.0,146,118,122,120,130
2025-02-26 14:25:49.024,-502.0,-851.0,159.0,34.0,-9.0,-7.0,150,118,125,122,129
2025-02-26 14:25:49.028,-524.0,-840.0,186.0,44.0,-8.0,-7.0,150,119,126,124,129
2025-02-26 14:25:49.036,-498.0,-836.0,204.0,48.0,-2.0,-7.0,149,118,126,122,127
2025-02-26 14:25:49.041,-502.0,-877.0,171.0,60.0,-4.0,-6.0,146,114,122,120,126
2025-02-26 14:25:49.045,-493.0,-890.0,175.0,53.0,-6.0,-6.0,147,116,122,119,126
2025-02-26 14:25:49.049,-501.0,-884.0,205.0,56.0,-14.0,-4.0,146,115,119,118,124
2025-02-26 14:25:49.057,-493.0,-886.0,219.0,51.0,-16.0,-3.0,147,115,122,119,123
2025-02-26 14:25:49.062,-490.0,-861.0,253.0,46.0,-15.0,-2.0,144,115,122,119,125
2025-02-26 14:25:49.065,-467.0,-875.0,277.0,41.0,-11.0,-3.0,146,115,120,123,126
2025-02-26 14:25:49.074,-470.0,-865.0,299.0,36.0,-5.0,-3.0,145,116,120,120,126
2025-02-26 14:25:49.078,-459.0,-857.0,304.0,31.0,-5.0,-3.0,144,115,121,118,125
2025-02-26 14:25:49.082,-461.0,-850.0,298.0,25.0,-4.0,-3.0,145,113,122,119,125
2025-02-26 14:25:49.086,-484.0,-849.0,222.0,26.0,-4.0,-2.0,145,115,120,118,125
2025-02-26 14:25:49.094,-471.0,-855.0,199.0,22.0,-8.0,-3.0,145,114,121,119,124
2025-02-26 14:25:49.098,-497.0,-879.0,224.0,18.0,-14.0,-1.0,144,113,121,120,124
2025-02-26 14:25:49.103,-497.0,-850.0,292.0,13.0,-16.0,-2.0,146,113,119,118,123
2025-02-26 14:25:49.108,-486.0,-866.0,240.0,13.0,-20.0,-1.0,145,106,119,121,126
2025-02-26 14:25:49.115,-489.0,-852.0,324.0,3.0,-16.0,-1.0,144,113,119,118,123
2025-02-26 14:25:49.118,-474.0,-834.0,312.0,7.0,-8.0,-3.0,144,113,120,117,125
2025-02-26 14:25:49.123,-514.0,-888.0,244.0,7.0,-11.0,-1.0,144,116,121,118,124
2025-02-26 14:25:49.131,-480.0,-845.0,336.0,3.0,-4.0,-2.0,144,113,117,119,124
2025-02-26 14:25:49.134,-428.0,-821.0,304.0,-9.0,-3.0,-2.0,145,114,120,119,125
2025-02-26 14:25:49.139,-522.0,-894.0,266.0,-10.0,-13.0,-1.0,145,114,120,117,124
2025-02-26 14:25:49.147,-475.0,-832.0,340.0,-19.0,-10.0,-1.0,146,114,120,117,124
2025-02-26 14:25:49.152,-461.0,-820.0,324.0,-21.0,-6.0,-3.0,144,115,120,120,125
2025-02-26 14:25:49.155,-517.0,-899.0,283.0,-14.0,-6.0,-3.0,146,114,120,118,124
2025-02-26 14:25:49.160,-524.0,-877.0,209.0,-5.0,-11.0,-3.0,143,112,120,117,124
2025-02-26 14:25:49.167,-457.0,-885.0,310.0,-6.0,-10.0,-4.0,147,115,121,120,126
2025-02-26 14:25:49.171,-490.0,-900.0,307.0,-3.0,-9.0,-4.0,146,115,121,118,124
2025-02-26 14:25:49.173,-494.0,-887.0,271.0,0.0,-15.0,-4.0,144,114,119,118,123
2025-02-26 14:25:49.184,-497.0,-893.0,299.0,-4.0,-17.0,-4.0,143,114,119,117,124
2025-02-26 14:25:49.188,-478.0,-883.0,354.0,3.0,-10.0,-5.0,146,115,118,117,123
2025-02-26 14:25:49.192,-502.0,-900.0,295.0,5.0,-11.0,-4.0,144,115,123,120,125
2025-02-26 14:25:49.196,-479.0,-875.0,317.0,10.0,-8.0,-4.0,144,115,121,120,124
2025-02-26 14:25:49.205,-473.0,-871.0,293.0,10.0,-7.0,-2.0,143,112,118,119,124
2025-02-26 14:25:49.209,-493.0,-878.0,289.0,8.0,-9.0,0.0,144,113,120,119,123
2025-02-26 14:25:49.213,-487.0,-889.0,288.0,7.0,-11.0,1.0,145,114,120,115,125
2025-02-26 14:25:49.217,-461.0,-870.0,380.0,5.0,-2.0,1.0,144,114,120,117,124
2025-02-26 14:25:49.224,-481.0,-866.0,304.0,4.0,1.0,2.0,144,114,119,119,122
2025-02-26 14:25:49.228,-485.0,-881.0,306.0,3.0,-1.0,2.0,146,114,118,118,122
2025-02-26 14:25:49.233,-473.0,-868.0,291.0,-4.0,-2.0,2.0,145,115,120,119,124
2025-02-26 14:25:49.237,-476.0,-856.0,326.0,-7.0,-2.0,3.0,143,114,120,119,123
2025-02-26 14:25:49.245,-478.0,-850.0,309.0,-15.0,-2.0,2.0,143,114,119,117,123
2025-02-26 14:25:49.247,-487.0,-836.0,319.0,-20.0,3.0,2.0,146,115,112,118,123
2025-02-26 14:25:49.254,-480.0,-805.0,317.0,-28.0,5.0,2.0,146,116,120,119,123
2025-02-26 14:25:49.258,-486.0,-844.0,292.0,-30.0,4.0,1.0,144,114,119,118,124
2025-02-26 14:25:49.266,-481.0,-833.0,302.0,-40.0,4.0,2.0,144,113,118,119,124
2025-02-26 14:25:49.270,-509.0,-838.0,229.0,-50.0,-8.0,2.0,145,114,120,119,126
2025-02-26 14:25:49.275,-502.0,-866.0,253.0,-54.0,-15.0,3.0,145,113,121,118,124
2025-02-26 14:25:49.282,-510.0,-827.0,241.0,-54.0,-17.0,3.0,146,114,119,119,122
2025-02-26 14:25:49.287,-509.0,-832.0,264.0,-50.0,-17.0,3.0,145,116,121,118,124
2025-02-26 14:25:49.291,-516.0,-822.0,223.0,-41.0,-17.0,6.0,144,113,118,118,124
2025-02-26 14:25:49.295,-497.0,-785.0,324.0,-44.0,-20.0,3.0,146,116,121,118,124
2025-02-26 14:25:49.303,-525.0,-844.0,307.0,-40.0,-10.0,1.0,147,118,124,121,127
2025-02-26 14:25:49.307,-479.0,-816.0,216.0,-36.0,-18.0,1.0,152,119,125,126,132
2025-02-26 14:25:49.312,-500.0,-855.0,139.0,-46.0,-30.0,3.0,148,117,124,122,128
2025-02-26 14:25:49.319,-493.0,-832.0,198.0,-49.0,-35.0,4.0,149,118,122,122,127
2025-02-26 14:25:49.323,-494.0,-831.0,300.0,-47.0,-22.0,2.0,149,120,127,125,131
2025-02-26 14:25:49.326,-500.0,-792.0,270.0,-47.0,-17.0,-1.0,153,121,125,125,133
2025-02-26 14:25:49.335,-493.0,-810.0,227.0,-47.0,-19.0,-1.0,152,122,128,126,131
2025-02-26 14:25:49.338,-507.0,-823.0,239.0,-38.0,-18.0,-2.0,152,123,128,124,130
2025-02-26 14:25:49.344,-504.0,-835.0,262.0,-35.0,-16.0,-3.0,156,124,131,128,135
2025-02-26 14:25:49.350,-512.0,-822.0,217.0,-22.0,-13.0,-5.0,161,128,136,133,139
2025-02-26 14:25:49.356,-508.0,-824.0,211.0,-12.0,-13.0,-6.0,158,128,135,133,138
2025-02-26 14:25:49.360,-513.0,-870.0,194.0,-7.0,-18.0,-7.0,158,129,136,132,140
2025-02-26 14:25:49.365,-495.0,-859.0,234.0,6.0,-16.0,-8.0,159,130,136,135,141
2025-02-26 14:25:49.372,-502.0,-844.0,262.0,15.0,-13.0,-7.0,158,126,134,130,137
2025-02-26 14:25:49.377,-493.0,-854.0,264.0,24.0,-11.0,-7.0,160,128,135,133,139
2025-02-26 14:25:49.381,-510.0,-874.0,186.0,28.0,-13.0,-7.0,158,128,136,134,138
2025-02-26 14:25:49.388,-470.0,-897.0,242.0,35.0,-13.0,-8.0,161,129,136,133,139
2025-02-26 14:25:49.393,-466.0,-876.0,272.0,27.0,-10.0,-7.0,159,128,136,132,138
2025-02-26 14:25:49.397,-467.0,-898.0,217.0,41.0,-14.0,-6.0,156,125,134,131,137
2025-02-26 14:25:49.400,-472.0,-898.0,216.0,46.0,-15.0,-7.0,162,132,139,135,141
2025-02-26 14:25:49.410,-445.0,-861.0,294.0,49.0,-7.0,-7.0,168,134,140,139,144
2025-02-26 14:25:49.414,-495.0,-889.0,196.0,53.0,-10.0,-7.0,160,131,140,136,142
2025-02-26 14:25:49.418,-472.0,-854.0,300.0,45.0,-9.0,-6.0,159,129,137,137,139
2025-02-26 14:25:49.426,-444.0,-858.0,235.0,43.0,-8.0,-6.0,159,128,137,133,139
2025-02-26 14:25:49.441,-485.0,-886.0,248.0,33.0,-8.0,-6.0,162,133,139,137,142
2025-02-26 14:25:49.443,-449.0,-837.0,294.0,41.0,0.0,-7.0,162,132,137,135,142
2025-02-26 14:25:49.445,-473.0,-858.0,264.0,44.0,3.0,-8.0,159,130,129,133,139
2025-02-26 14:25:49.448,-491.0,-880.0,213.0,31.0,-2.0,-7.0,159,128,135,132,138
2025-02-26 14:25:49.451,-427.0,-878.0,338.0,10.0,-2.0,-6.0,160,130,140,133,141
2025-02-26 14:25:49.455,-443.0,-855.0,362.0,0.0,-3.0,-5.0,161,131,137,133,141
2025-02-26 14:25:49.459,-447.0,-870.0,290.0,-8.0,-4.0,-5.0,158,130,135,132,139
2025-02-26 14:25:49.466,-436.0,-855.0,299.0,-11.0,-1.0,-6.0,160,131,137,136,141
2025-02-26 14:25:49.470,-459.0,-862.0,213.0,-7.0,2.0,-6.0,161,130,138,135,142
2025-02-26 14:25:49.475,-457.0,-877.0,239.0,-10.0,0.0,-7.0,161,131,136,132,141
2025-02-26 14:25:49.483,-449.0,-869.0,308.0,-9.0,1.0,-7.0,159,129,136,135,141
2025-02-26 14:25:49.487,-461.0,-872.0,248.0,-7.0,-1.0,-7.0,162,130,137,134,140
2025-02-26 14:25:49.491,-488.0,-880.0,255.0,-6.0,-7.0,-6.0,160,130,138,136,143
2025-02-26 14:25:49.497,-463.0,-863.0,288.0,0.0,-6.0,-7.0,160,130,137,134,140
2025-02-26 14:25:49.502,-506.0,-910.0,264.0,0.0,-8.0,-6.0,161,130,137,137,140
2025-02-26 14:25:49.508,-501.0,-890.0,268.0,3.0,-8.0,-5.0,160,129,136,132,140
2025-02-26 14:25:49.512,-453.0,-857.0,276.0,0.0,-12.0,-5.0,161,130,137,135,140
2025-02-26 14:25:49.516,-490.0,-881.0,317.0,4.0,-11.0,-4.0,159,131,137,134,141
2025-02-26 14:25:49.524,-486.0,-881.0,253.0,6.0,-12.0,-3.0,160,131,138,134,141
2025-02-26 14:25:49.528,-477.0,-875.0,318.0,6.0,-9.0,-3.0,160,129,136,135,140
2025-02-26 14:25:49.532,-457.0,-853.0,258.0,8.0,-8.0,-2.0,162,132,137,134,141
2025-02-26 14:25:49.538,-477.0,-887.0,270.0,10.0,-9.0,-1.0,160,129,137,132,137
2025-02-26 14:25:49.544,-446.0,-873.0,327.0,8.0,-6.0,-1.0,162,129,137,134,141
2025-02-26 14:25:49.548,-449.0,-855.0,285.0,4.0,-7.0,-1.0,160,128,135,134,140
2025-02-26 14:25:49.553,-449.0,-873.0,325.0,7.0,-5.0,-2.0,162,131,137,137,141
2025-02-26 14:25:49.561,-437.0,-846.0,327.0,7.0,-2.0,-3.0,161,131,138,138,141
2025-02-26 14:25:49.565,-455.0,-848.0,297.0,6.0,-2.0,-4.0,162,130,137,134,141
2025-02-26 14:25:49.569,-457.0,-843.0,314.0,6.0,0.0,-4.0,159,128,134,135,142
2025-02-26 14:25:49.573,-454.0,-847.0,308.0,2.0,0.0,-4.0,160,132,138,135,140
2025-02-26 14:25:49.581,-460.0,-845.0,287.0,1.0,-2.0,-4.0,161,131,138,135,141
2025-02-26 14:25:49.585,-445.0,-839.0,301.0,-3.0,-2.0,-5.0,160,129,137,133,138
2025-02-26 14:25:49.590,-453.0,-845.0,311.0,-4.0,2.0,-5.0,160,132,138,135,141
2025-02-26 14:25:49.594,-469.0,-853.0,285.0,-6.0,0.0,-5.0,163,132,138,135,141
2025-02-26 14:25:49.602,-460.0,-861.0,311.0,-8.0,0.0,-4.0,160,132,137,134,139
2025-02-26 14:25:49.606,-459.0,-863.0,290.0,-9.0,-1.0,-3.0,160,129,135,133,139
2025-02-26 14:25:49.611,-460.0,-865.0,303.0,-15.0,-4.0,-3.0,160,132,138,134,140
2025-02-26 14:25:49.615,-445.0,-864.0,323.0,-17.0,-1.0,-2.0,162,132,136,135,141
2025-02-26 14:25:49.622,-469.0,-866.0,278.0,-18.0,-4.0,-2.0,161,132,136,134,141
2025-02-26 14:25:49.626,-449.0,-855.0,312.0,-18.0,0.0,-3.0,163,133,138,137,142
2025-02-26 14:25:49.630,-445.0,-855.0,276.0,-18.0,-1.0,-3.0,158,129,135,133,139
2025-02-26 14:25:49.638,-455.0,-860.0,303.0,-23.0,-1.0,-3.0,157,128,135,133,138
2025-02-26 14:25:49.643,-451.0,-853.0,318.0,-25.0,0.0,-3.0,162,132,138,134,141
2025-02-26 14:25:49.647,-458.0,-862.0,287.0,-30.0,1.0,-2.0,162,133,140,136,142
2025-02-26 14:25:49.652,-458.0,-855.0,287.0,-32.0,1.0,-3.0,161,130,137,132,139
2025-02-26 14:25:49.659,-466.0,-859.0,282.0,-33.0,0.0,-2.0,159,128,135,131,138
2025-02-26 14:25:49.663,-467.0,-864.0,333.0,-39.0,3.0,-3.0,162,132,137,135,141
2025-02-26 14:25:49.668,-448.0,-840.0,305.0,-43.0,5.0,-3.0,162,133,141,136,141
2025-02-26 14:25:49.676,-447.0,-841.0,283.0,-45.0,5.0,-3.0,162,131,138,134,141
2025-02-26 14:25:49.680,-445.0,-836.0,285.0,-38.0,7.0,-3.0,158,127,132,132,139
2025-02-26 14:25:49.684,-453.0,-834.0,277.0,-39.0,9.0,-4.0,158,129,135,132,139
2025-02-26 14:25:49.688,-460.0,-840.0,253.0,-37.0,8.0,-6.0,163,132,136,136,141
2025-02-26 14:25:49.696,-461.0,-835.0,190.0,-34.0,2.0,-5.0,160,130,138,134,141
2025-02-26 14:25:49.700,-472.0,-827.0,262.0,-25.0,2.0,-6.0,160,132,135,132,141
2025-02-26 14:25:49.705,-454.0,-837.0,238.0,-18.0,2.0,-7.0,159,129,135,132,138
2025-02-26 14:25:49.709,-466.0,-849.0,251.0,-8.0,2.0,-7.0,161,131,136,135,144
2025-02-26 14:25:49.716,-476.0,-833.0,200.0,-5.0,-1.0,-7.0,162,132,137,135,141
2025-02-26 14:25:49.720,-490.0,-868.0,246.0,-2.0,-1.0,-7.0,158,129,134,131,139
2025-02-26 14:25:49.725,-478.0,-851.0,381.0,-5.0,0.0,-8.0,160,130,137,134,141
2025-02-26 14:25:49.730,-486.0,-828.0,243.0,2.0,0.0,-7.0,162,131,137,135,141
2025-02-26 14:25:49.737,-455.0,-858.0,216.0,-2.0,-4.0,-8.0,159,129,137,134,140
2025-02-26 14:25:49.741,-450.0,-858.0,262.0,1.0,0.0,-8.0,160,127,134,130,138
2025-02-26 14:25:49.745,-458.0,-855.0,271.0,-2.0,-1.0,-9.0,160,129,138,133,139
2025-02-26 14:25:49.753,-440.0,-860.0,252.0,-3.0,2.0,-9.0,161,129,137,134,140
2025-02-26 14:25:49.757,-452.0,-866.0,219.0,0.0,-1.0,-8.0,161,129,136,132,139
2025-02-26 14:25:49.762,-448.0,-869.0,232.0,-7.0,0.0,-8.0,158,127,134,131,138
2025-02-26 14:25:49.762,-449.0,-867.0,235.0,-2.0,1.0,-8.0,159,128,136,131,138
2025-02-26 14:25:49.774,-443.0,-873.0,239.0,-8.0,1.0,-8.0,159,130,136,133,141
2025-02-26 14:25:49.778,-429.0,-874.0,233.0,-10.0,-2.0,-7.0,159,128,135,133,139
2025-02-26 14:25:49.783,-444.0,-888.0,237.0,-9.0,-3.0,-7.0,156,124,133,131,139
2025-02-26 14:25:49.787,-429.0,-859.0,247.0,-10.0,-3.0,-8.0,158,130,136,131,139
2025-02-26 14:25:49.794,-431.0,-876.0,246.0,-12.0,1.0,-8.0,159,129,132,134,140
2025-02-26 14:25:49.798,-441.0,-864.0,204.0,-9.0,-2.0,-9.0,158,128,137,134,141
2025-02-26 14:25:49.803,-449.0,-876.0,203.0,-8.0,-5.0,-9.0,157,129,135,132,138
2025-02-26 14:25:49.811,-447.0,-859.0,213.0,-9.0,-5.0,-9.0,158,126,133,131,138
2025-02-26 14:25:49.815,-446.0,-861.0,196.0,-8.0,-5.0,-10.0,160,129,136,133,139
2025-02-26 14:25:49.816,-459.0,-860.0,193.0,-6.0,-6.0,-10.0,164,130,136,129,139
2025-02-26 14:25:49.824,-470.0,-871.0,190.0,-4.0,-9.0,-10.0,158,128,134,133,139
2025-02-26 14:25:49.831,-444.0,-867.0,190.0,-4.0,-11.0,-10.0,158,127,135,130,138
2025-02-26 14:25:49.836,-450.0,-864.0,212.0,-4.0,-12.0,-11.0,155,127,133,131,136
2025-02-26 14:25:49.840,-448.0,-866.0,218.0,-7.0,-10.0,-12.0,157,126,131,131,137
2025-02-26 14:25:49.847,-454.0,-875.0,216.0,-8.0,-11.0,-14.0,161,130,137,135,141
2025-02-26 14:25:49.852,-442.0,-865.0,219.0,-5.0,-10.0,-14.0,158,128,137,134,139
2025-02-26 14:25:49.856,-446.0,-877.0,181.0,-6.0,-13.0,-15.0,159,129,135,133,142
2025-02-26 14:25:49.864,-440.0,-894.0,240.0,-13.0,-14.0,-16.0,157,131,135,131,138
2025-02-26 14:25:49.868,-432.0,-890.0,223.0,-13.0,-13.0,-16.0,160,127,134,131,138
2025-02-26 14:25:49.872,-425.0,-891.0,229.0,-15.0,-14.0,-17.0,158,128,134,133,135
2025-02-26 14:25:49.880,-411.0,-892.0,191.0,-14.0,-11.0,-18.0,154,129,135,138,140
2025-02-26 14:25:49.884,-413.0,-904.0,193.0,-16.0,-16.0,-17.0,158,130,138,134,142
2025-02-26 14:25:49.889,-407.0,-903.0,219.0,-14.0,-16.0,-18.0,160,136,137,135,139
2025-02-26 14:25:49.897,-401.0,-904.0,219.0,-15.0,-17.0,-18.0,161,130,136,133,141
2025-02-26 14:25:49.901,-402.0,-902.0,202.0,-12.0,-17.0,-18.0,158,128,134,133,140
2025-02-26 14:25:49.905,-403.0,-894.0,179.0,-9.0,-20.0,-18.0,165,132,138,135,140
2025-02-26 14:25:49.913,-392.0,-894.0,212.0,-5.0,-17.0,-17.0,160,130,137,134,141
2025-02-26 14:25:49.918,-389.0,-892.0,212.0,-5.0,-19.0,-15.0,158,131,137,134,141
2025-02-26 14:25:49.921,-399.0,-923.0,195.0,-3.0,-20.0,-12.0,161,130,135,134,141
2025-02-26 14:25:49.930,-402.0,-906.0,239.0,1.0,-17.0,-10.0,161,131,138,135,141
2025-02-26 14:25:49.933,-418.0,-937.0,180.0,8.0,-20.0,-9.0,158,129,134,132,139
2025-02-26 14:25:49.938,-399.0,-931.0,276.0,11.0,-14.0,-8.0,157,127,133,129,137
2025-02-26 14:25:49.942,-400.0,-944.0,254.0,6.0,-10.0,-8.0,161,131,138,136,141
2025-02-26 14:25:49.949,-397.0,-955.0,233.0,4.0,-12.0,-9.0,157,129,135,136,141
2025-02-26 14:25:49.954,-400.0,-959.0,227.0,9.0,-14.0,-9.0,158,127,133,130,138
2025-02-26 14:25:49.956,-392.0,-942.0,207.0,7.0,-11.0,-8.0,158,128,130,131,137
2025-02-26 14:25:49.966,-375.0,-922.0,325.0,4.0,-1.0,-10.0,159,129,136,134,139
2025-02-26 14:25:49.968,-443.0,-948.0,168.0,12.0,-7.0,-9.0,159,129,135,133,141
2025-02-26 14:25:49.974,-407.0,-955.0,220.0,11.0,-5.0,-10.0,157,129,133,132,139
2025-02-26 14:25:49.979,-391.0,-922.0,264.0,11.0,-1.0,-9.0,157,124,131,129,133
2025-02-26 14:25:49.987,-403.0,-945.0,194.0,8.0,-5.0,-9.0,157,129,135,133,138
2025-02-26 14:25:49.991,-406.0,-928.0,241.0,13.0,-7.0,-8.0,159,128,134,133,139
2025-02-26 14:25:49.996,-404.0,-924.0,254.0,9.0,-5.0,-7.0,157,127,135,130,137
2025-02-26 14:25:49.999,-402.0,-911.0,267.0,9.0,-2.0,-7.0,157,126,132,129,137
2025-02-26 14:25:50.007,-422.0,-918.0,201.0,9.0,-5.0,-6.0,161,130,136,134,141
2025-02-26 14:25:50.012,-417.0,-919.0,220.0,5.0,-8.0,-8.0,158,125,133,133,140
2025-02-26 14:25:50.016,-413.0,-908.0,289.0,7.0,-5.0,-9.0,160,128,134,132,139
2025-02-26 14:25:50.024,-435.0,-909.0,222.0,2.0,-7.0,-12.0,156,125,136,135,138
2025-02-26 14:25:50.028,-413.0,-896.0,239.0,3.0,-9.0,-12.0,160,130,137,134,141
2025-02-26 14:25:50.032,-419.0,-897.0,248.0,1.0,-10.0,-14.0,155,125,131,131,138
2025-02-26 14:25:50.036,-422.0,-893.0,274.0,0.0,-10.0,-15.0,155,126,132,128,136
2025-02-26 14:25:50.044,-415.0,-883.0,254.0,-5.0,-11.0,-17.0,152,124,130,128,135
2025-02-26 14:25:50.048,-413.0,-891.0,250.0,-6.0,-13.0,-17.0,156,125,130,130,136
2025-02-26 14:25:50.053,-436.0,-879.0,267.0,-7.0,-13.0,-17.0,157,127,133,132,138
2025-02-26 14:25:50.061,-419.0,-891.0,252.0,-8.0,-15.0,-16.0,157,127,132,130,138
2025-02-26 14:25:50.065,-410.0,-909.0,262.0,-5.0,-15.0,-16.0,152,123,129,126,133
2025-02-26 14:25:50.069,-412.0,-909.0,186.0,-5.0,-17.0,-17.0,158,127,134,131,137
2025-02-26 14:25:50.077,-385.0,-885.0,218.0,1.0,-18.0,-17.0,155,125,130,129,137
2025-02-26 14:25:50.081,-405.0,-932.0,245.0,3.0,-19.0,-16.0,155,123,130,127,138
2025-02-26 14:25:50.085,-391.0,-940.0,309.0,4.0,-18.0,-15.0,157,128,134,131,140
2025-02-26 14:25:50.090,-403.0,-957.0,295.0,6.0,-17.0,-17.0,156,127,133,131,137
2025-02-26 14:25:50.097,-410.0,-949.0,228.0,5.0,-19.0,-18.0,154,127,132,130,137
2025-02-26 14:25:50.101,-381.0,-937.0,328.0,8.0,-15.0,-19.0,154,125,132,130,135
2025-02-26 14:25:50.107,-384.0,-933.0,270.0,12.0,-13.0,-19.0,158,126,132,131,137
2025-02-26 14:25:50.114,-404.0,-923.0,349.0,4.0,-10.0,-19.0,157,127,134,131,139
2025-02-26 14:25:50.118,-380.0,-933.0,311.0,2.0,-8.0,-19.0,156,126,131,131,139
2025-02-26 14:25:50.123,-377.0,-916.0,268.0,2.0,-7.0,-19.0,155,126,133,130,137
2025-02-26 14:25:50.130,-373.0,-901.0,308.0,0.0,-6.0,-18.0,154,126,130,128,131
2025-02-26 14:25:50.132,-370.0,-901.0,348.0,-2.0,-3.0,-18.0,155,124,129,127,136
2025-02-26 14:25:50.137,-365.0,-890.0,323.0,-2.0,3.0,-16.0,156,127,131,129,137
2025-02-26 14:25:50.143,-348.0,-872.0,286.0,-2.0,4.0,-14.0,153,124,130,128,135
2025-02-26 14:25:50.151,-342.0,-899.0,267.0,-4.0,4.0,-11.0,154,125,133,129,136
2025-02-26 14:25:50.154,-353.0,-918.0,250.0,-5.0,1.0,-10.0,153,126,130,127,135
2025-02-26 14:25:50.159,-351.0,-923.0,302.0,-8.0,0.0,-8.0,155,125,129,129,137
2025-02-26 14:25:50.163,-352.0,-931.0,308.0,-10.0,3.0,-7.0,154,126,131,130,137
2025-02-26 14:25:50.171,-366.0,-939.0,320.0,-13.0,5.0,-8.0,153,125,131,128,134
2025-02-26 14:25:50.175,-369.0,-968.0,337.0,-13.0,6.0,-8.0,153,124,129,127,135
2025-02-26 14:25:50.180,-343.0,-959.0,280.0,-13.0,4.0,-9.0,154,126,131,130,137
2025-02-26 14:25:50.187,-355.0,-931.0,292.0,-16.0,3.0,-11.0,154,126,133,130,138
2025-02-26 14:25:50.192,-360.0,-943.0,305.0,-18.0,4.0,-13.0,155,125,132,130,136
2025-02-26 14:25:50.196,-358.0,-917.0,284.0,-22.0,2.0,-15.0,152,125,133,127,135
2025-02-26 14:25:50.200,-372.0,-949.0,279.0,-21.0,0.0,-16.0,152,123,128,127,134
2025-02-26 14:25:50.208,-356.0,-944.0,249.0,-25.0,-2.0,-18.0,155,127,131,129,137
2025-02-26 14:25:50.212,-361.0,-914.0,241.0,-24.0,-3.0,-20.0,155,126,130,130,135
2025-02-26 14:25:50.217,-356.0,-928.0,274.0,-27.0,-1.0,-21.0,151,124,128,127,135
2025-02-26 14:25:50.224,-357.0,-919.0,236.0,-31.0,-2.0,-20.0,151,122,128,127,135
2025-02-26 14:25:50.229,-358.0,-893.0,255.0,-32.0,-2.0,-18.0,150,123,128,126,135
2025-02-26 14:25:50.233,-351.0,-876.0,263.0,-30.0,3.0,-18.0,151,124,128,128,135
2025-02-26 14:25:50.240,-369.0,-891.0,246.0,-31.0,0.0,-13.0,151,124,129,128,137
2025-02-26 14:25:50.245,-359.0,-905.0,262.0,-30.0,2.0,-12.0,152,125,131,128,135
2025-02-26 14:25:50.249,-335.0,-890.0,189.0,-24.0,1.0,-9.0,150,124,129,127,134
2025-02-26 14:25:50.256,-340.0,-904.0,215.0,-20.0,1.0,-6.0,151,125,128,128,134
2025-02-26 14:25:50.260,-351.0,-907.0,234.0,-19.0,6.0,-5.0,152,126,130,128,135
2025-02-26 14:25:50.266,-353.0,-937.0,212.0,-16.0,5.0,-1.0,151,126,128,127,135
2025-02-26 14:25:50.270,-344.0,-960.0,244.0,-16.0,6.0,1.0,152,125,128,128,135
2025-02-26 14:25:50.278,-337.0,-934.0,252.0,-14.0,7.0,2.0,148,123,127,123,134
2025-02-26 14:25:50.282,-352.0,-940.0,268.0,-11.0,9.0,2.0,151,125,129,126,135
2025-02-26 14:25:50.286,-331.0,-980.0,259.0,-11.0,10.0,3.0,153,126,130,128,137
2025-02-26 14:25:50.290,-341.0,-919.0,212.0,-10.0,9.0,2.0,152,125,129,126,135
2025-02-26 14:25:50.298,-353.0,-909.0,259.0,-8.0,12.0,1.0,149,124,129,125,134
2025-02-26 14:25:50.302,-347.0,-909.0,221.0,-5.0,13.0,1.0,152,124,130,126,133
2025-02-26 14:25:50.307,-363.0,-902.0,207.0,-4.0,10.0,1.0,153,128,130,129,137
2025-02-26 14:25:50.312,-349.0,-886.0,260.0,-1.0,11.0,0.0,151,124,129,127,135
2025-02-26 14:25:50.318,-371.0,-904.0,196.0,3.0,7.0,-1.0,151,123,127,126,134
2025-02-26 14:25:50.323,-375.0,-893.0,224.0,5.0,6.0,-1.0,149,126,129,127,135
2025-02-26 14:25:50.326,-353.0,-866.0,211.0,6.0,4.0,-2.0,153,127,129,129,137
2025-02-26 14:25:50.331,-379.0,-882.0,201.0,3.0,5.0,-2.0,150,123,127,126,134
2025-02-26 14:25:50.338,-358.0,-875.0,261.0,3.0,9.0,-2.0,149,122,126,123,131
2025-02-26 14:25:50.343,-341.0,-872.0,223.0,1.0,11.0,-1.0,146,121,124,123,132
2025-02-26 14:25:50.347,-355.0,-878.0,180.0,-2.0,10.0,1.0,147,121,124,121,130
2025-02-26 14:25:50.351,-340.0,-875.0,216.0,2.0,14.0,2.0,146,118,123,122,130
2025-02-26 14:25:50.359,-350.0,-885.0,196.0,-3.0,16.0,3.0,146,120,123,121,128
2025-02-26 14:25:50.364,-342.0,-898.0,180.0,-6.0,14.0,3.0,144,117,121,120,128
2025-02-26 14:25:50.368,-339.0,-923.0,168.0,-4.0,9.0,4.0,142,115,119,118,128
2025-02-26 14:25:50.372,-348.0,-917.0,178.0,-5.0,7.0,4.0,144,116,121,119,127
2025-02-26 14:25:50.380,-316.0,-917.0,195.0,-10.0,8.0,4.0,142,115,119,119,127
2025-02-26 14:25:50.384,-319.0,-912.0,205.0,-8.0,8.0,3.0,144,119,121,121,127
2025-02-26 14:25:50.387,-340.0,-936.0,176.0,-6.0,7.0,2.0,143,117,120,118,129
2025-02-26 14:25:50.393,-328.0,-928.0,223.0,-4.0,10.0,2.0,143,117,122,119,127
2025-02-26 14:25:50.400,-327.0,-922.0,173.0,-4.0,10.0,1.0,141,116,119,118,127
2025-02-26 14:25:50.405,-339.0,-925.0,167.0,-6.0,10.0,1.0,142,118,119,119,126
2025-02-26 14:25:50.409,-333.0,-916.0,157.0,-2.0,7.0,1.0,140,115,119,118,125
2025-02-26 14:25:50.413,-330.0,-923.0,179.0,-5.0,6.0,1.0,143,115,119,117,126
2025-02-26 14:25:50.417,-331.0,-901.0,166.0,-3.0,3.0,2.0,135,115,120,113,125
2025-02-26 14:25:50.422,-339.0,-919.0,164.0,-1.0,1.0,2.0,142,118,121,118,125
2025-02-26 14:25:50.429,-339.0,-904.0,183.0,-2.0,4.0,2.0,145,121,122,122,130
2025-02-26 14:25:50.433,-336.0,-900.0,151.0,2.0,1.0,1.0,158,133,137,135,142
2025-02-26 14:25:50.437,-349.0,-913.0,196.0,2.0,4.0,-1.0,158,129,135,127,139
2025-02-26 14:25:50.445,-343.0,-912.0,175.0,6.0,3.0,-1.0,155,130,133,132,140
2025-02-26 14:25:50.449,-342.0,-897.0,175.0,6.0,0.0,-3.0,158,129,133,134,140
2025-02-26 14:25:50.453,-333.0,-891.0,229.0,4.0,5.0,-4.0,156,130,135,135,139
2025-02-26 14:25:50.458,-375.0,-881.0,95.0,6.0,-1.0,-5.0,155,129,133,130,138
2025-02-26 14:25:50.466,-336.0,-903.0,166.0,9.0,-5.0,-5.0,156,131,135,132,143
2025-02-26 14:25:50.470,-356.0,-910.0,206.0,10.0,-4.0,-6.0,156,127,136,133,144
2025-02-26 14:25:50.474,-379.0,-922.0,145.0,17.0,-6.0,-6.0,156,131,134,133,141
2025-02-26 14:25:50.479,-365.0,-917.0,211.0,13.0,-5.0,-6.0,157,129,133,130,138
2025-02-26 14:25:50.487,-341.0,-886.0,239.0,17.0,2.0,-6.0,155,129,131,131,139
2025-02-26 14:25:50.490,-386.0,-928.0,155.0,32.0,-7.0,-5.0,157,131,135,134,142
2025-02-26 14:25:50.495,-364.0,-921.0,190.0,34.0,-5.0,-6.0,155,129,133,131,139
2025-02-26 14:25:50.503,-362.0,-931.0,220.0,20.0,-2.0,-6.0,155,128,133,131,139
2025-02-26 14:25:50.507,-370.0,-926.0,201.0,17.0,-2.0,-5.0,157,130,134,134,140
2025-02-26 14:25:50.511,-376.0,-943.0,229.0,13.0,-6.0,-5.0,156,131,137,134,142
2025-02-26 14:25:50.515,-360.0,-934.0,254.0,7.0,-4.0,-4.0,155,131,135,133,142
2025-02-26 14:25:50.523,-355.0,-903.0,258.0,-2.0,-1.0,-4.0,154,128,133,131,140
2025-02-26 14:25:50.527,-367.0,-890.0,214.0,0.0,-1.0,-4.0,157,130,137,135,141
2025-02-26 14:25:50.532,-372.0,-894.0,208.0,-8.0,-2.0,-4.0,157,132,135,134,141
2025-02-26 14:25:50.536,-356.0,-885.0,259.0,-5.0,1.0,-5.0,156,129,135,132,140
2025-02-26 14:25:50.543,-369.0,-903.0,174.0,-3.0,-3.0,-5.0,154,128,131,131,139
2025-02-26 14:25:50.548,-365.0,-895.0,250.0,0.0,-5.0,-6.0,157,129,133,132,141
2025-02-26 14:25:50.552,-368.0,-904.0,220.0,1.0,-4.0,-6.0,157,130,136,134,142
2025-02-26 14:25:50.556,-370.0,-923.0,218.0,-2.0,-4.0,-6.0,156,130,134,135,139
2025-02-26 14:25:50.564,-359.0,-925.0,236.0,0.0,-4.0,-6.0,154,128,133,131,139
2025-02-26 14:25:50.568,-369.0,-938.0,240.0,-3.0,-3.0,-6.0,155,129,135,133,141
2025-02-26 14:25:50.573,-355.0,-931.0,230.0,-2.0,-1.0,-7.0,157,131,136,135,141
2025-02-26 14:25:50.581,-374.0,-948.0,219.0,-2.0,-3.0,-6.0,165,129,134,133,141
2025-02-26 14:25:50.584,-351.0,-942.0,237.0,-4.0,-1.0,-7.0,156,129,133,131,140
2025-02-26 14:25:50.590,-355.0,-959.0,219.0,-1.0,-2.0,-7.0,154,129,136,133,139
2025-02-26 14:25:50.594,-363.0,-955.0,216.0,-2.0,-2.0,-7.0,157,130,134,133,141
2025-02-26 14:25:50.600,-356.0,-949.0,222.0,-2.0,0.0,-8.0,158,132,135,131,142
2025-02-26 14:25:50.606,-359.0,-943.0,219.0,-1.0,2.0,-8.0,159,130,137,133,142
2025-02-26 14:25:50.610,-357.0,-939.0,181.0,1.0,2.0,-7.0,155,130,138,134,140
2025-02-26 14:25:50.614,-361.0,-951.0,209.0,1.0,2.0,-7.0,158,132,137,134,142
2025-02-26 14:25:50.622,-347.0,-944.0,212.0,2.0,4.0,-7.0,157,131,133,134,142
2025-02-26 14:25:50.626,-351.0,-952.0,188.0,2.0,2.0,-7.0,156,129,134,132,139
2025-02-26 14:25:50.630,-348.0,-948.0,228.0,3.0,4.0,-7.0,153,128,132,131,139
2025-02-26 14:25:50.634,-343.0,-951.0,196.0,7.0,3.0,-7.0,156,130,135,133,141
2025-02-26 14:25:50.641,-337.0,-970.0,173.0,4.0,4.0,-6.0,155,130,134,132,138
2025-02-26 14:25:50.646,-325.0,-960.0,162.0,6.0,3.0,-5.0,154,127,131,130,139
2025-02-26 14:25:50.650,-355.0,-966.0,174.0,6.0,0.0,-4.0,155,128,130,134,141
2025-02-26 14:25:50.653,-333.0,-972.0,220.0,5.0,2.0,-3.0,154,129,132,131,138
2025-02-26 14:25:50.658,-339.0,-980.0,205.0,3.0,1.0,-1.0,153,127,132,132,138
2025-02-26 14:25:50.667,-339.0,-973.0,203.0,0.0,2.0,-1.0,154,132,130,129,138
2025-02-26 14:25:50.671,-328.0,-969.0,209.0,-2.0,3.0,-1.0,155,129,134,132,140
2025-02-26 14:25:50.675,-348.0,-984.0,189.0,-3.0,2.0,0.0,155,130,133,132,140
2025-02-26 14:25:50.680,-341.0,-967.0,189.0,-6.0,1.0,0.0,153,126,131,129,137
2025-02-26 14:25:50.686,-346.0,-973.0,195.0,-8.0,1.0,0.0,157,134,136,134,141
2025-02-26 14:25:50.691,-350.0,-977.0,159.0,-8.0,-2.0,0.0,154,128,134,131,137
2025-02-26 14:25:50.696,-360.0,-959.0,156.0,-8.0,-5.0,0.0,153,127,130,129,136
2025-02-26 14:25:50.700,-349.0,-961.0,208.0,-9.0,-4.0,0.0,153,126,134,128,136
2025-02-26 14:25:50.708,-337.0,-926.0,204.0,-7.0,-5.0,0.0,156,130,135,133,141
2025-02-26 14:25:50.712,-378.0,-962.0,177.0,-8.0,-5.0,-1.0,155,127,131,131,138
2025-02-26 14:25:50.716,-365.0,-923.0,162.0,-5.0,-5.0,-1.0,153,126,130,129,138
2025-02-26 14:25:50.724,-357.0,-940.0,163.0,-5.0,-8.0,-1.0,152,127,131,129,137
2025-02-26 14:25:50.728,-355.0,-923.0,178.0,-7.0,-7.0,-2.0,156,128,134,133,140
2025-02-26 14:25:50.732,-369.0,-921.0,189.0,-9.0,-9.0,-3.0,156,128,133,132,139
2025-02-26 14:25:50.737,-368.0,-908.0,195.0,-9.0,-11.0,-3.0,152,127,129,129,138
2025-02-26 14:25:50.744,-375.0,-921.0,196.0,-9.0,-10.0,-5.0,153,127,131,128,138
2025-02-26 14:25:50.749,-357.0,-911.0,182.0,-12.0,-9.0,-6.0,154,127,133,131,138
2025-02-26 14:25:50.753,-366.0,-907.0,177.0,-14.0,-11.0,-8.0,155,129,133,131,139
2025-02-26 14:25:50.761,-364.0,-905.0,193.0,-13.0,-11.0,-11.0,156,129,133,133,139
2025-02-26 14:25:50.765,-355.0,-909.0,193.0,-12.0,-11.0,-14.0,157,126,134,136,140
2025-02-26 14:25:50.768,-360.0,-892.0,186.0,-12.0,-11.0,-18.0,153,126,130,129,138
2025-02-26 14:25:50.777,-363.0,-896.0,206.0,-14.0,-10.0,-22.0,152,125,130,129,136
2025-02-26 14:25:50.780,-359.0,-893.0,212.0,-14.0,-11.0,-25.0,152,125,129,129,137
2025-02-26 14:25:50.787,-364.0,-882.0,194.0,-13.0,-11.0,-29.0,156,128,135,134,142
2025-02-26 14:25:50.800,-357.0,-876.0,202.0,-13.0,-11.0,-33.0,153,126,133,133,141
2025-02-26 14:25:50.802,-356.0,-864.0,189.0,-12.0,-12.0,-36.0,154,127,133,132,139
2025-02-26 14:25:50.804,-359.0,-859.0,182.0,-12.0,-15.0,-38.0,152,128,133,131,139
2025-02-26 14:25:50.810,-348.0,-841.0,208.0,-11.0,-15.0,-39.0,154,126,132,131,138
2025-02-26 14:25:50.815,-344.0,-823.0,237.0,-12.0,-15.0,-40.0,153,126,130,129,137
2025-02-26 14:25:50.818,-327.0,-837.0,248.0,-14.0,-16.0,-39.0,153,124,131,129,137
2025-02-26 14:25:50.826,-324.0,-843.0,237.0,-13.0,-15.0,-39.0,155,130,132,131,140
2025-02-26 14:25:50.831,-316.0,-852.0,203.0,-14.0,-17.0,-38.0,155,127,132,132,139
2025-02-26 14:25:50.833,-323.0,-868.0,195.0,-15.0,-18.0,-37.0,154,127,134,131,138
2025-02-26 14:25:50.843,-320.0,-892.0,207.0,-14.0,-20.0,-34.0,154,128,132,131,139
2025-02-26 14:25:50.845,-323.0,-906.0,231.0,-13.0,-21.0,-31.0,154,127,134,132,139
2025-02-26 14:25:50.852,-314.0,-910.0,257.0,-16.0,-22.0,-27.0,152,127,130,129,139
2025-02-26 14:25:50.857,-308.0,-918.0,268.0,-16.0,-23.0,-26.0,152,124,131,130,136
2025-02-26 14:25:50.864,-298.0,-934.0,262.0,-19.0,-25.0,-24.0,153,127,132,132,139
2025-02-26 14:25:50.868,-293.0,-938.0,246.0,-21.0,-26.0,-22.0,154,125,132,134,143
2025-02-26 14:25:50.876,-282.0,-953.0,239.0,-21.0,-27.0,-21.0,154,128,133,132,139
2025-02-26 14:25:50.880,-262.0,-964.0,258.0,-21.0,-27.0,-20.0,152,123,132,131,135
2025-02-26 14:25:50.884,-263.0,-983.0,253.0,-22.0,-28.0,-20.0,153,126,130,130,137
2025-02-26 14:25:50.888,-262.0,-978.0,265.0,-26.0,-29.0,-20.0,152,126,131,131,139
2025-02-26 14:25:50.896,-232.0,-972.0,245.0,-26.0,-30.0,-20.0,153,127,132,131,138
2025-02-26 14:25:50.900,-222.0,-994.0,262.0,-29.0,-29.0,-20.0,153,128,133,131,139
2025-02-26 14:25:50.906,-223.0,-988.0,257.0,-31.0,-27.0,-21.0,155,130,134,134,141
2025-02-26 14:25:50.912,-224.0,-1006.0,263.0,-30.0,-24.0,-22.0,153,128,132,132,139
2025-02-26 14:25:50.917,-211.0,-1010.0,230.0,-30.0,-23.0,-22.0,153,127,133,131,139
2025-02-26 14:25:50.924,-217.0,-1011.0,258.0,-31.0,-21.0,-23.0,151,125,131,131,137
2025-02-26 14:25:50.929,-216.0,-1022.0,245.0,-30.0,-19.0,-22.0,153,127,132,132,139
2025-02-26 14:25:50.936,-197.0,-1021.0,232.0,-27.0,-18.0,-21.0,152,126,131,131,138
2025-02-26 14:25:50.941,-200.0,-1039.0,242.0,-24.0,-15.0,-19.0,152,128,132,131,139
2025-02-26 14:25:50.942,-196.0,-1028.0,238.0,-19.0,-11.0,-16.0,155,130,135,134,141
2025-02-26 14:25:50.954,-176.0,-1024.0,251.0,-13.0,-6.0,-13.0,154,128,133,133,140
2025-02-26 14:25:50.954,-186.0,-1026.0,226.0,-13.0,-2.0,-10.0,154,128,130,133,139
2025-02-26 14:25:50.962,-180.0,-1045.0,196.0,-5.0,2.0,-6.0,153,128,132,132,140
2025-02-26 14:25:50.967,-179.0,-1038.0,156.0,1.0,3.0,-3.0,153,127,133,132,139
2025-02-26 14:25:50.974,-177.0,-1028.0,162.0,6.0,4.0,-2.0,155,129,132,132,139
2025-02-26 14:25:50.978,-215.0,-1045.0,200.0,9.0,8.0,0.0,155,128,133,131,138
2025-02-26 14:25:50.982,-194.0,-1060.0,220.0,11.0,12.0,1.0,152,125,131,132,138
2025-02-26 14:25:50.990,-195.0,-1053.0,203.0,15.0,13.0,2.0,152,125,131,132,139
2025-02-26 14:25:50.994,-219.0,-1039.0,174.0,16.0,15.0,2.0,153,128,133,133,140
2025-02-26 14:25:50.999,-216.0,-1034.0,162.0,24.0,14.0,3.0,154,127,133,132,139
2025-02-26 14:25:51.003,-221.0,-1035.0,194.0,26.0,16.0,4.0,155,127,133,132,138
2025-02-26 14:25:51.011,-222.0,-1017.0,192.0,19.0,17.0,4.0,153,126,131,131,138
2025-02-26 14:25:51.015,-232.0,-1020.0,192.0,20.0,16.0,4.0,152,124,129,130,138
2025-02-26 14:25:51.019,-223.0,-1016.0,189.0,19.0,14.0,5.0,154,127,132,128,139
2025-02-26 14:25:51.024,-211.0,-994.0,192.0,19.0,16.0,6.0,152,127,131,133,139
2025-02-26 14:25:51.029,-219.0,-1001.0,175.0,17.0,16.0,7.0,161,126,131,129,138
2025-02-26 14:25:51.036,-227.0,-985.0,168.0,20.0,16.0,7.0,151,129,130,130,137
2025-02-26 14:25:51.039,-224.0,-989.0,179.0,19.0,15.0,8.0,153,128,132,132,140
2025-02-26 14:25:51.047,-235.0,-1000.0,177.0,21.0,14.0,9.0,153,127,130,131,139
2025-02-26 14:25:51.051,-228.0,-975.0,175.0,19.0,14.0,9.0,153,125,129,133,139
2025-02-26 14:25:51.056,-252.0,-976.0,205.0,20.0,15.0,9.0,149,125,130,130,136
2025-02-26 14:25:51.060,-236.0,-966.0,199.0,25.0,17.0,10.0,153,128,134,133,140
2025-02-26 14:25:51.068,-249.0,-996.0,161.0,24.0,15.0,10.0,156,129,135,135,142
2025-02-26 14:25:51.072,-247.0,-984.0,226.0,20.0,18.0,11.0,152,126,131,132,140
2025-02-26 14:25:51.077,-236.0,-979.0,202.0,24.0,17.0,12.0,152,125,132,133,137
2025-02-26 14:25:51.081,-246.0,-981.0,148.0,24.0,13.0,14.0,153,127,132,133,139
2025-02-26 14:25:51.089,-223.0,-982.0,232.0,21.0,18.0,16.0,155,129,133,134,141
2025-02-26 14:25:51.093,-237.0,-972.0,220.0,25.0,22.0,18.0,152,128,130,131,139
2025-02-26 14:25:51.097,-231.0,-976.0,195.0,28.0,21.0,20.0,151,124,130,131,137
2025-02-26 14:25:51.105,-241.0,-984.0,226.0,27.0,23.0,21.0,153,127,132,133,140
2025-02-26 14:25:51.109,-251.0,-987.0,221.0,31.0,24.0,23.0,156,129,131,133,140
2025-02-26 14:25:51.113,-255.0,-1002.0,176.0,28.0,22.0,25.0,152,126,132,133,140
2025-02-26 14:25:51.118,-276.0,-969.0,230.0,25.0,23.0,25.0,153,125,128,132,136
2025-02-26 14:25:51.126,-285.0,-960.0,261.0,23.0,26.0,26.0,152,122,129,129,138
2025-02-26 14:25:51.130,-278.0,-974.0,273.0,19.0,31.0,25.0,154,127,131,131,141
2025-02-26 14:25:51.134,-308.0,-961.0,245.0,18.0,34.0,24.0,153,128,133,132,140
2025-02-26 14:25:51.138,-339.0,-969.0,200.0,15.0,33.0,23.0,151,125,130,131,138
2025-02-26 14:25:51.146,-334.0,-953.0,221.0,9.0,33.0,22.0,151,124,130,130,138
2025-02-26 14:25:51.150,-328.0,-944.0,224.0,10.0,33.0,21.0,154,127,134,132,141
2025-02-26 14:25:51.154,-342.0,-942.0,226.0,11.0,31.0,21.0,153,126,133,133,140
2025-02-26 14:25:51.162,-357.0,-927.0,196.0,12.0,28.0,21.0,153,125,129,131,138
2025-02-26 14:25:51.166,-346.0,-922.0,219.0,14.0,28.0,20.0,151,124,129,129,137
2025-02-26 14:25:51.168,-353.0,-921.0,201.0,17.0,26.0,21.0,155,128,132,134,140
2025-02-26 14:25:51.175,-363.0,-915.0,213.0,17.0,25.0,21.0,153,127,132,132,139
2025-02-26 14:25:51.182,-348.0,-907.0,255.0,16.0,27.0,21.0,153,127,131,132,139
2025-02-26 14:25:51.187,-352.0,-909.0,244.0,14.0,27.0,21.0,152,126,132,132,140
2025-02-26 14:25:51.191,-352.0,-908.0,236.0,12.0,26.0,22.0,153,126,130,131,138
2025-02-26 14:25:51.196,-341.0,-920.0,236.0,8.0,27.0,22.0,154,128,131,133,139
2025-02-26 14:25:51.203,-351.0,-915.0,228.0,6.0,25.0,21.0,151,126,131,131,138
2025-02-26 14:25:51.207,-347.0,-919.0,235.0,2.0,24.0,21.0,152,127,133,133,140
2025-02-26 14:25:51.211,-341.0,-918.0,274.0,-2.0,24.0,21.0,152,125,130,131,139
2025-02-26 14:25:51.219,-333.0,-918.0,256.0,-6.0,21.0,21.0,155,127,131,132,139
2025-02-26 14:25:51.224,-332.0,-919.0,245.0,-10.0,21.0,20.0,153,126,132,131,137
2025-02-26 14:25:51.228,-361.0,-919.0,267.0,-15.0,22.0,19.0,151,125,131,131,139
2025-02-26 14:25:51.232,-353.0,-924.0,248.0,-20.0,19.0,19.0,151,125,130,132,138
2025-02-26 14:25:51.240,-347.0,-921.0,262.0,-22.0,20.0,18.0,153,130,131,133,136
2025-02-26 14:25:51.245,-355.0,-904.0,224.0,-24.0,17.0,17.0,151,125,132,133,139
2025-02-26 14:25:51.249,-366.0,-910.0,249.0,-26.0,18.0,16.0,155,125,138,132,140
2025-02-26 14:25:51.256,-352.0,-908.0,215.0,-22.0,16.0,16.0,152,125,129,130,138
2025-02-26 14:25:51.260,-352.0,-912.0,246.0,-23.0,14.0,16.0,149,124,130,129,138
2025-02-26 14:25:51.265,-354.0,-907.0,241.0,-23.0,13.0,16.0,152,125,130,134,141
2025-02-26 14:25:51.271,-348.0,-909.0,236.0,-21.0,12.0,16.0,153,127,130,133,140
2025-02-26 14:25:51.277,-366.0,-891.0,227.0,-20.0,13.0,16.0,152,125,130,131,138
2025-02-26 14:25:51.281,-369.0,-899.0,217.0,-19.0,13.0,16.0,152,125,129,132,137
2025-02-26 14:25:51.285,-355.0,-901.0,212.0,-19.0,13.0,16.0,153,127,131,132,140
2025-02-26 14:25:51.294,-346.0,-902.0,229.0,-18.0,15.0,16.0,152,126,131,132,140
2025-02-26 14:25:51.298,-350.0,-899.0,229.0,-18.0,16.0,15.0,151,126,132,133,139
2025-02-26 14:25:51.302,-345.0,-900.0,222.0,-18.0,16.0,14.0,151,124,130,132,139
2025-02-26 14:25:51.308,-341.0,-914.0,197.0,-18.0,15.0,12.0,151,124,131,131,137
2025-02-26 14:25:51.314,-349.0,-913.0,192.0,-17.0,14.0,11.0,151,124,130,130,141
2025-02-26 14:25:51.318,-346.0,-902.0,192.0,-16.0,15.0,9.0,152,126,131,132,139
2025-02-26 14:25:51.323,-347.0,-915.0,172.0,-17.0,13.0,7.0,154,125,131,134,139
2025-02-26 14:25:51.330,-361.0,-910.0,196.0,-15.0,12.0,5.0,153,125,130,131,139
2025-02-26 14:25:51.335,-372.0,-928.0,171.0,-11.0,10.0,3.0,151,125,129,132,138
2025-02-26 14:25:51.337,-357.0,-929.0,171.0,-14.0,9.0,2.0,152,126,131,132,139
2025-02-26 14:25:51.346,-360.0,-913.0,178.0,-15.0,9.0,0.0,153,126,130,132,140
2025-02-26 14:25:51.350,-368.0,-914.0,173.0,-16.0,9.0,-1.0,152,128,129,133,138
2025-02-26 14:25:51.355,-370.0,-907.0,162.0,-14.0,8.0,-1.0,151,124,130,132,139
2025-02-26 14:25:51.359,-373.0,-911.0,145.0,-13.0,7.0,-1.0,152,126,130,132,138
2025-02-26 14:25:51.367,-357.0,-901.0,132.0,-14.0,4.0,0.0,153,125,130,133,139
2025-02-26 14:25:51.371,-358.0,-888.0,180.0,-15.0,5.0,1.0,151,126,130,132,139
2025-02-26 14:25:51.376,-355.0,-884.0,162.0,-14.0,4.0,2.0,150,123,129,124,138
2025-02-26 14:25:51.380,-354.0,-888.0,152.0,-14.0,3.0,3.0,154,126,130,133,139
2025-02-26 14:25:51.386,-361.0,-886.0,162.0,-14.0,3.0,3.0,155,127,133,134,141
2025-02-26 14:25:51.392,-357.0,-892.0,139.0,-15.0,4.0,1.0,151,124,131,133,139
2025-02-26 14:25:51.396,-360.0,-892.0,115.0,-14.0,2.0,0.0,150,124,128,128,138
2025-02-26 14:25:51.400,-373.0,-895.0,121.0,-13.0,1.0,0.0,152,126,130,134,140
2025-02-26 14:25:51.408,-373.0,-888.0,112.0,-8.0,-2.0,-2.0,155,127,132,133,141
2025-02-26 14:25:51.412,-361.0,-906.0,133.0,-8.0,-5.0,-4.0,153,126,130,131,138
2025-02-26 14:25:51.417,-354.0,-884.0,180.0,-7.0,-4.0,-5.0,151,124,128,129,137
2025-02-26 14:25:51.421,-368.0,-893.0,127.0,0.0,-9.0,-6.0,151,126,131,132,138
2025-02-26 14:25:51.428,-371.0,-913.0,142.0,-3.0,-11.0,-7.0,154,129,131,132,141
2025-02-26 14:25:51.432,-339.0,-889.0,159.0,-5.0,-9.0,-8.0,154,126,129,132,139
2025-02-26 14:25:51.437,-355.0,-880.0,164.0,-5.0,-6.0,-9.0,152,126,129,130,138
2025-02-26 14:25:51.445,-368.0,-884.0,152.0,-6.0,-7.0,-10.0,151,124,128,129,137
2025-02-26 14:25:51.450,-366.0,-892.0,139.0,-11.0,-8.0,-11.0,153,127,131,132,141
2025-02-26 14:25:51.454,-363.0,-894.0,139.0,-16.0,-7.0,-11.0,152,128,130,136,140
2025-02-26 14:25:51.461,-357.0,-884.0,136.0,-15.0,-10.0,-12.0,152,127,131,129,139
2025-02-26 14:25:51.466,-359.0,-891.0,76.0,-6.0,-16.0,-10.0,153,128,129,131,137
2025-02-26 14:25:51.469,-333.0,-891.0,138.0,-5.0,-10.0,-10.0,150,127,132,131,139
2025-02-26 14:25:51.477,-343.0,-885.0,124.0,-9.0,-12.0,-9.0,154,127,131,132,139
2025-02-26 14:25:51.481,-340.0,-870.0,149.0,-5.0,-12.0,-8.0,152,127,129,132,138
2025-02-26 14:25:51.486,-317.0,-934.0,112.0,-5.0,-15.0,-7.0,156,129,131,133,141
2025-02-26 14:25:51.490,-332.0,-896.0,203.0,-10.0,-13.0,-6.0,152,126,130,131,138
2025-02-26 14:25:51.498,-340.0,-876.0,200.0,-6.0,-4.0,-5.0,151,126,128,130,137
2025-02-26 14:25:51.502,-347.0,-899.0,166.0,-5.0,-8.0,-4.0,153,128,129,132,140
2025-02-26 14:25:51.507,-333.0,-937.0,150.0,-3.0,-10.0,-4.0,154,129,130,134,141
2025-02-26 14:25:51.514,-332.0,-943.0,135.0,-5.0,-14.0,-3.0,152,128,130,132,139
2025-02-26 14:25:51.519,-328.0,-945.0,95.0,-2.0,-18.0,-3.0,152,126,129,131,138
2025-02-26 14:25:51.523,-347.0,-951.0,178.0,-8.0,-19.0,-3.0,152,126,128,132,137
2025-02-26 14:25:51.527,-322.0,-943.0,196.0,-7.0,-13.0,-5.0,154,131,132,134,140
2025-02-26 14:25:51.535,-316.0,-951.0,132.0,-12.0,-10.0,-5.0,152,128,131,132,139
2025-02-26 14:25:51.539,-300.0,-957.0,140.0,-15.0,-10.0,-7.0,153,126,130,132,138
2025-02-26 14:25:51.544,-320.0,-954.0,121.0,-10.0,-10.0,-8.0,150,126,131,131,137
2025-02-26 14:25:51.551,-336.0,-967.0,150.0,-6.0,-14.0,-8.0,155,128,129,129,140
2025-02-26 14:25:51.556,-332.0,-965.0,128.0,-6.0,-14.0,-8.0,153,128,130,132,139
2025-02-26 14:25:51.560,-329.0,-960.0,106.0,-5.0,-15.0,-7.0,152,127,132,133,139
2025-02-26 14:25:51.568,-328.0,-951.0,122.0,-3.0,-14.0,-5.0,153,127,129,132,140
2025-02-26 14:25:51.572,-324.0,-939.0,162.0,-4.0,-13.0,-4.0,152,126,130,133,139
2025-02-26 14:25:51.575,-334.0,-940.0,142.0,-6.0,-8.0,-2.0,152,128,129,131,137
2025-02-26 14:25:51.581,-334.0,-945.0,143.0,-5.0,-9.0,-2.0,152,129,132,133,139
2025-02-26 14:25:51.588,-323.0,-952.0,185.0,0.0,-8.0,-2.0,155,131,132,134,141
2025-02-26 14:25:51.592,-345.0,-946.0,125.0,2.0,-10.0,-1.0,151,128,131,131,139
2025-02-26 14:25:51.597,-344.0,-943.0,104.0,5.0,-13.0,-2.0,153,127,131,131,136
2025-02-26 14:25:51.605,-347.0,-945.0,158.0,6.0,-15.0,-1.0,153,127,131,133,140
2025-02-26 14:25:51.609,-344.0,-944.0,164.0,11.0,-13.0,-3.0,155,130,134,133,139
2025-02-26 14:25:51.613,-342.0,-950.0,152.0,13.0,-11.0,-5.0,152,129,130,133,138
2025-02-26 14:25:51.617,-340.0,-940.0,156.0,15.0,-10.0,-5.0,150,127,128,130,139
2025-02-26 14:25:51.625,-328.0,-957.0,173.0,13.0,-9.0,-5.0,153,126,129,131,138
2025-02-26 14:25:51.629,-340.0,-960.0,166.0,12.0,-11.0,-6.0,155,129,131,133,141
2025-02-26 14:25:51.634,-338.0,-967.0,171.0,11.0,-12.0,-6.0,153,129,131,131,139
2025-02-26 14:25:51.641,-324.0,-974.0,189.0,13.0,-12.0,-6.0,155,129,129,134,139
2025-02-26 14:25:51.646,-334.0,-952.0,205.0,15.0,-11.0,-6.0,152,127,129,130,137
2025-02-26 14:25:51.650,-328.0,-950.0,218.0,13.0,-7.0,-5.0,150,127,129,132,138
2025-02-26 14:25:51.654,-325.0,-939.0,198.0,12.0,-5.0,-6.0,153,131,131,132,139
2025-02-26 14:25:51.662,-332.0,-961.0,188.0,9.0,-5.0,-5.0,153,128,130,132,140
2025-02-26 14:25:51.667,-315.0,-944.0,197.0,1.0,-4.0,-5.0,151,129,132,130,138
2025-02-26 14:25:51.671,-321.0,-945.0,202.0,-6.0,-1.0,-5.0,152,128,128,130,137
2025-02-26 14:25:51.678,-312.0,-942.0,197.0,-12.0,0.0,-5.0,152,129,130,132,138
2025-02-26 14:25:51.682,-297.0,-912.0,189.0,-11.0,2.0,-5.0,153,128,131,132,139
2025-02-26 14:25:51.687,-302.0,-954.0,186.0,-10.0,4.0,-4.0,153,130,131,133,139
2025-02-26 14:25:51.691,-304.0,-973.0,177.0,-9.0,4.0,-3.0,151,127,129,131,137
2025-02-26 14:25:51.699,-305.0,-960.0,179.0,-5.0,3.0,-2.0,152,129,132,133,139
2025-02-26 14:25:51.703,-309.0,-951.0,185.0,-2.0,3.0,0.0,154,129,132,133,140
2025-02-26 14:25:51.707,-315.0,-947.0,190.0,-1.0,3.0,0.0,154,129,132,132,140
2025-02-26 14:25:51.712,-310.0,-934.0,156.0,0.0,3.0,1.0,151,128,129,130,137
2025-02-26 14:25:51.715,-319.0,-944.0,175.0,2.0,4.0,2.0,153,130,131,133,140
2025-02-26 14:25:51.724,-312.0,-957.0,207.0,3.0,7.0,1.0,152,129,130,131,138
2025-02-26 14:25:51.728,-310.0,-959.0,207.0,2.0,6.0,0.0,153,130,129,132,140
2025-02-26 14:25:51.732,-318.0,-949.0,218.0,3.0,7.0,0.0,154,131,131,133,140
2025-02-26 14:25:51.737,-315.0,-943.0,211.0,3.0,8.0,-1.0,153,130,132,133,139
2025-02-26 14:25:51.743,-311.0,-939.0,182.0,4.0,7.0,-2.0,151,128,130,130,136
2025-02-26 14:25:51.748,-313.0,-938.0,209.0,4.0,6.0,-2.0,153,132,133,135,140
2025-02-26 14:25:51.753,-324.0,-933.0,218.0,4.0,6.0,-2.0,153,130,131,134,140
2025-02-26 14:25:51.755,-320.0,-939.0,229.0,5.0,6.0,-2.0,152,128,130,132,134
2025-02-26 14:25:51.764,-331.0,-941.0,243.0,4.0,8.0,-2.0,152,128,130,131,138
2025-02-26 14:25:51.768,-342.0,-926.0,206.0,5.0,8.0,-3.0,155,133,133,133,141
2025-02-26 14:25:51.773,-338.0,-930.0,208.0,5.0,8.0,-4.0,153,130,133,133,139
2025-02-26 14:25:51.777,-346.0,-937.0,208.0,8.0,9.0,-5.0,152,128,129,131,138
2025-02-26 14:25:51.782,-342.0,-933.0,208.0,11.0,9.0,-6.0,153,128,131,132,139
2025-02-26 14:25:51.789,-351.0,-930.0,201.0,13.0,10.0,-7.0,152,132,133,133,140
2025-02-26 14:25:51.793,-352.0,-927.0,213.0,15.0,10.0,-7.0,153,130,131,132,139
2025-02-26 14:25:51.797,-348.0,-924.0,195.0,16.0,10.0,-8.0,151,128,130,130,137
2025-02-26 14:25:51.805,-335.0,-925.0,234.0,15.0,12.0,-8.0,153,130,131,131,139
2025-02-26 14:25:51.810,-348.0,-921.0,229.0,15.0,12.0,-8.0,154,131,133,136,141
2025-02-26 14:25:51.814,-349.0,-921.0,231.0,14.0,11.0,-8.0,153,130,136,132,139
2025-02-26 14:25:51.818,-342.0,-917.0,264.0,14.0,13.0,-9.0,150,129,130,132,137
2025-02-26 14:25:51.826,-348.0,-914.0,227.0,13.0,13.0,-9.0,152,131,130,133,139
2025-02-26 14:25:51.830,-334.0,-917.0,233.0,11.0,13.0,-10.0,154,131,130,133,143
2025-02-26 14:25:51.834,-334.0,-916.0,242.0,11.0,14.0,-10.0,152,130,133,134,138
2025-02-26 14:25:51.841,-335.0,-907.0,221.0,9.0,13.0,-10.0,150,128,131,131,138
2025-02-26 14:25:51.846,-321.0,-906.0,228.0,8.0,15.0,-10.0,152,130,130,131,138
2025-02-26 14:25:51.851,-328.0,-910.0,237.0,6.0,16.0,-10.0,153,130,134,133,140
2025-02-26 14:25:51.855,-318.0,-906.0,224.0,7.0,17.0,-11.0,153,131,134,133,138
2025-02-26 14:25:51.863,-318.0,-909.0,192.0,9.0,15.0,-11.0,152,128,131,132,138
2025-02-26 14:25:51.867,-321.0,-910.0,218.0,7.0,16.0,-10.0,152,130,133,133,139
2025-02-26 14:25:51.871,-332.0,-914.0,216.0,6.0,18.0,-10.0,154,130,133,133,140
2025-02-26 14:25:51.876,-322.0,-919.0,166.0,7.0,12.0,-9.0,154,130,132,131,140
2025-02-26 14:25:51.883,-320.0,-942.0,212.0,3.0,13.0,-8.0,153,131,132,131,140
2025-02-26 14:25:51.887,-337.0,-919.0,202.0,1.0,14.0,-7.0,152,129,131,131,138
2025-02-26 14:25:51.889,-331.0,-917.0,220.0,-1.0,16.0,-7.0,154,132,132,133,139
2025-02-26 14:25:51.899,-312.0,-936.0,163.0,0.0,18.0,-6.0,152,130,131,133,139
2025-02-26 14:25:51.903,-325.0,-927.0,170.0,-3.0,18.0,-7.0,152,129,133,131,139
2025-02-26 14:25:51.908,-327.0,-923.0,160.0,0.0,17.0,-8.0,152,128,132,132,139
2025-02-26 14:25:51.912,-337.0,-935.0,156.0,-1.0,17.0,-8.0,154,131,131,133,139
2025-02-26 14:25:51.920,-335.0,-919.0,171.0,-2.0,16.0,-9.0,153,129,133,132,139
2025-02-26 14:25:51.924,-318.0,-936.0,170.0,0.0,17.0,-10.0,152,129,131,134,140
2025-02-26 14:25:51.928,-333.0,-894.0,187.0,-2.0,20.0,-11.0,154,129,132,132,138
2025-02-26 14:25:51.930,-320.0,-872.0,144.0,8.0,20.0,-12.0,151,129,130,130,137
2025-02-26 14:25:51.941,-331.0,-884.0,118.0,12.0,19.0,-13.0,152,129,136,132,139
2025-02-26 14:25:51.942,-318.0,-877.0,126.0,11.0,20.0,-15.0,156,130,131,133,139
2025-02-26 14:25:51.949,-328.0,-857.0,143.0,13.0,22.0,-16.0,153,128,130,131,139
2025-02-26 14:25:51.954,-345.0,-865.0,108.0,17.0,22.0,-17.0,152,129,132,131,137
2025-02-26 14:25:51.961,-361.0,-852.0,120.0,16.0,23.0,-17.0,150,127,130,131,138
2025-02-26 14:25:51.965,-334.0,-875.0,57.0,14.0,21.0,-17.0,154,129,132,132,140
2025-02-26 14:25:51.973,-339.0,-849.0,100.0,16.0,20.0,-18.0,154,130,134,132,140
2025-02-26 14:25:51.977,-351.0,-872.0,91.0,19.0,18.0,-19.0,152,128,131,131,137
2025-02-26 14:25:51.978,-337.0,-894.0,121.0,22.0,19.0,-19.0,152,128,129,130,138
2025-02-26 14:25:51.986,-329.0,-875.0,61.0,24.0,17.0,-21.0,155,132,134,136,141
2025-02-26 14:25:51.993,-341.0,-868.0,78.0,30.0,15.0,-22.0,154,129,133,132,139
2025-02-26 14:25:51.997,-335.0,-915.0,79.0,30.0,14.0,-23.0,152,129,132,131,138
2025-02-26 14:25:52.003,-328.0,-912.0,17.0,31.0,8.0,-24.0,151,127,130,130,137
2025-02-26 14:25:52.006,-342.0,-927.0,74.0,23.0,4.0,-24.0,155,130,134,133,140
2025-02-26 14:25:52.014,-359.0,-923.0,98.0,24.0,3.0,-25.0,154,130,134,135,142
2025-02-26 14:25:52.015,-356.0,-925.0,90.0,26.0,3.0,-26.0,155,130,134,135,140
2025-02-26 14:25:52.023,-343.0,-930.0,118.0,23.0,5.0,-27.0,153,128,132,132,138
2025-02-26 14:25:52.027,-344.0,-931.0,85.0,19.0,6.0,-27.0,156,131,134,135,142
2025-02-26 14:25:52.035,-351.0,-953.0,91.0,18.0,-1.0,-26.0,155,130,134,134,141
2025-02-26 14:25:52.039,-331.0,-961.0,74.0,19.0,-9.0,-26.0,155,131,134,133,141
2025-02-26 14:25:52.043,-319.0,-952.0,109.0,17.0,-10.0,-26.0,154,128,133,133,137
2025-02-26 14:25:52.051,-328.0,-945.0,123.0,17.0,-12.0,-25.0,155,129,132,135,140
2025-02-26 14:25:52.055,-324.0,-955.0,117.0,19.0,-13.0,-24.0,157,131,134,133,141
2025-02-26 14:25:52.057,-319.0,-954.0,108.0,20.0,-15.0,-22.0,155,134,133,135,138
2025-02-26 14:25:52.067,-321.0,-963.0,116.0,19.0,-15.0,-20.0,154,128,134,137,140
2025-02-26 14:25:52.072,-324.0,-985.0,118.0,20.0,-17.0,-16.0,154,130,133,133,140
2025-02-26 14:25:52.075,-328.0,-992.0,108.0,22.0,-18.0,-13.0,152,129,133,131,138
2025-02-26 14:25:52.084,-338.0,-990.0,164.0,20.0,-20.0,-12.0,152,128,131,132,138
2025-02-26 14:25:52.087,-334.0,-1005.0,168.0,20.0,-20.0,-9.0,157,132,136,135,143
2025-02-26 14:25:52.092,-321.0,-1017.0,173.0,19.0,-21.0,-8.0,153,130,135,135,141
2025-02-26 14:25:52.100,-316.0,-1005.0,182.0,20.0,-22.0,-7.0,155,128,135,133,139
2025-02-26 14:25:52.104,-307.0,-1003.0,196.0,20.0,-21.0,-7.0,153,128,134,132,139
2025-02-26 14:25:52.109,-306.0,-1008.0,211.0,19.0,-21.0,-8.0,154,128,132,134,140
2025-02-26 14:25:52.113,-293.0,-1002.0,220.0,19.0,-21.0,-8.0,155,130,134,132,141
2025-02-26 14:25:52.118,-273.0,-1007.0,213.0,19.0,-20.0,-8.0,154,130,134,134,141
2025-02-26 14:25:52.124,-280.0,-1013.0,215.0,19.0,-18.0,-8.0,156,130,135,135,140
2025-02-26 14:25:52.130,-276.0,-1025.0,234.0,19.0,-17.0,-8.0,156,130,133,136,141
2025-02-26 14:25:52.137,-285.0,-1033.0,272.0,19.0,-15.0,-8.0,155,127,133,133,139
2025-02-26 14:25:52.142,-281.0,-1053.0,239.0,20.0,-14.0,-7.0,154,128,133,132,139
2025-02-26 14:25:52.146,-267.0,-1043.0,283.0,20.0,-13.0,-6.0,157,131,136,137,143
2025-02-26 14:25:52.153,-272.0,-1042.0,299.0,20.0,-10.0,-4.0,156,131,135,133,140
2025-02-26 14:25:52.160,-267.0,-1061.0,298.0,19.0,-9.0,-3.0,155,131,135,134,142
2025-02-26 14:25:52.160,-254.0,-1053.0,300.0,19.0,-7.0,-1.0,154,128,134,134,140
2025-02-26 14:25:52.170,-248.0,-1061.0,316.0,17.0,-6.0,0.0,154,131,135,133,140
2025-02-26 14:25:52.174,-247.0,-1054.0,297.0,17.0,-4.0,2.0,157,130,134,134,142
2025-02-26 14:25:52.178,-249.0,-1054.0,306.0,16.0,-2.0,4.0,155,131,135,136,141
2025-02-26 14:25:52.178,-245.0,-1049.0,327.0,16.0,0.0,7.0,155,130,134,134,141
2025-02-26 14:25:52.191,-238.0,-1041.0,330.0,13.0,1.0,10.0,155,130,134,134,139
2025-02-26 14:25:52.195,-247.0,-1047.0,325.0,12.0,3.0,12.0,154,129,134,133,140
2025-02-26 14:25:52.199,-252.0,-1042.0,308.0,11.0,4.0,15.0,160,130,135,132,142
2025-02-26 14:25:52.204,-259.0,-1025.0,308.0,11.0,5.0,19.0,155,128,135,136,141
2025-02-26 14:25:52.209,-263.0,-1029.0,319.0,9.0,6.0,21.0,158,130,134,130,139
2025-02-26 14:25:52.215,-263.0,-1032.0,315.0,8.0,6.0,22.0,152,127,132,131,140
2025-02-26 14:25:52.220,-262.0,-1012.0,333.0,6.0,6.0,23.0,155,129,135,136,143
2025-02-26 14:25:52.227,-261.0,-1017.0,319.0,5.0,6.0,24.0,156,130,132,133,141
2025-02-26 14:25:52.231,-250.0,-990.0,266.0,2.0,5.0,24.0,154,128,133,133,139
2025-02-26 14:25:52.235,-267.0,-987.0,303.0,0.0,5.0,23.0,155,128,135,133,140
2025-02-26 14:25:52.240,-261.0,-959.0,310.0,-1.0,5.0,22.0,155,127,136,135,142
2025-02-26 14:25:52.244,-260.0,-977.0,279.0,-3.0,4.0,21.0,155,128,132,131,140
2025-02-26 14:25:52.251,-262.0,-932.0,272.0,-4.0,3.0,20.0,154,127,133,131,140
2025-02-26 14:25:52.256,-272.0,-927.0,267.0,-5.0,3.0,20.0,156,130,137,135,141
2025-02-26 14:25:52.260,-272.0,-919.0,274.0,-7.0,4.0,20.0,155,131,136,133,138
2025-02-26 14:25:52.268,-280.0,-906.0,284.0,-8.0,4.0,19.0,156,129,134,134,141
2025-02-26 14:25:52.271,-287.0,-926.0,239.0,-9.0,3.0,19.0,154,126,132,132,140
2025-02-26 14:25:52.276,-281.0,-915.0,264.0,-9.0,1.0,18.0,155,133,134,135,141
2025-02-26 14:25:52.280,-293.0,-897.0,264.0,-8.0,1.0,18.0,155,128,133,135,141
2025-02-26 14:25:52.288,-300.0,-911.0,261.0,-8.0,0.0,18.0,154,128,133,134,141
2025-02-26 14:25:52.293,-299.0,-903.0,278.0,-9.0,0.0,17.0,155,127,132,132,139
2025-02-26 14:25:52.297,-300.0,-906.0,270.0,-7.0,-1.0,17.0,154,128,134,133,140
2025-02-26 14:25:52.301,-314.0,-882.0,268.0,-7.0,-2.0,15.0,154,127,134,134,141
2025-02-26 14:25:52.307,-311.0,-897.0,265.0,-6.0,-2.0,15.0,153,127,134,133,140
2025-02-26 14:25:52.313,-307.0,-886.0,266.0,-5.0,-3.0,14.0,156,126,131,133,138
2025-02-26 14:25:52.318,-324.0,-879.0,286.0,-4.0,-4.0,14.0,156,128,134,133,140
2025-02-26 14:25:52.322,-330.0,-880.0,289.0,-3.0,-4.0,12.0,155,127,136,134,140
2025-02-26 14:25:52.330,-336.0,-867.0,261.0,-1.0,-5.0,10.0,155,130,134,134,141
2025-02-26 14:25:52.335,-349.0,-873.0,271.0,0.0,-4.0,9.0,155,127,133,131,139
2025-02-26 14:25:52.339,-334.0,-867.0,264.0,3.0,-4.0,8.0,158,129,134,133,139
2025-02-26 14:25:52.343,-354.0,-866.0,268.0,5.0,-4.0,6.0,155,128,134,135,140
2025-02-26 14:25:52.350,-353.0,-861.0,296.0,5.0,-3.0,4.0,154,127,132,132,139
2025-02-26 14:25:52.355,-345.0,-857.0,283.0,9.0,-4.0,3.0,152,125,130,131,139
2025-02-26 14:25:52.359,-342.0,-848.0,289.0,12.0,-3.0,1.0,154,128,134,132,141
2025-02-26 14:25:52.360,-343.0,-840.0,282.0,13.0,-2.0,0.0,153,126,134,133,140
2025-02-26 14:25:52.371,-339.0,-848.0,294.0,15.0,-1.0,-1.0,152,127,132,133,140
2025-02-26 14:25:52.372,-337.0,-848.0,319.0,17.0,3.0,-1.0,151,126,133,131,140
2025-02-26 14:25:52.378,-351.0,-858.0,318.0,20.0,5.0,0.0,157,128,133,133,142
2025-02-26 14:25:52.383,-358.0,-867.0,323.0,22.0,8.0,0.0,153,128,133,133,140
2025-02-26 14:25:52.391,-348.0,-869.0,328.0,24.0,10.0,1.0,154,127,132,132,140
2025-02-26 14:25:52.395,-366.0,-871.0,332.0,28.0,14.0,2.0,155,129,135,133,142
2025-02-26 14:25:52.399,-378.0,-879.0,323.0,32.0,16.0,2.0,155,128,134,134,138
2025-02-26 14:25:52.404,-357.0,-886.0,338.0,35.0,19.0,3.0,154,126,129,132,138
2025-02-26 14:25:52.412,-344.0,-864.0,340.0,39.0,21.0,4.0,153,128,133,133,139
2025-02-26 14:25:52.416,-357.0,-856.0,351.0,43.0,24.0,4.0,156,130,135,132,140
2025-02-26 14:25:52.420,-350.0,-835.0,356.0,47.0,27.0,4.0,155,129,135,135,141
2025-02-26 14:25:52.425,-331.0,-835.0,327.0,53.0,28.0,3.0,154,127,133,132,139
2025-02-26 14:25:52.432,-331.0,-818.0,311.0,57.0,28.0,2.0,155,128,133,132,138
2025-02-26 14:25:52.436,-342.0,-798.0,302.0,57.0,28.0,1.0,155,127,134,132,140
2025-02-26 14:25:52.441,-363.0,-792.0,366.0,55.0,29.0,-1.0,154,128,135,134,140
2025-02-26 14:25:52.449,-348.0,-776.0,330.0,63.0,29.0,-3.0,155,128,133,134,141
2025-02-26 14:25:52.453,-352.0,-784.0,323.0,63.0,27.0,-4.0,154,129,134,133,140
2025-02-26 14:25:52.457,-375.0,-781.0,339.0,59.0,27.0,-7.0,155,130,134,135,140
2025-02-26 14:25:52.461,-395.0,-791.0,320.0,59.0,25.0,-10.0,155,130,135,135,141
2025-02-26 14:25:52.469,-396.0,-789.0,291.0,58.0,18.0,-12.0,157,131,135,136,142
2025-02-26 14:25:52.474,-404.0,-789.0,320.0,53.0,16.0,-16.0,153,128,130,133,139
2025-02-26 14:25:52.478,-399.0,-788.0,309.0,47.0,13.0,-17.0,153,128,133,132,139
2025-02-26 14:25:52.486,-406.0,-801.0,306.0,41.0,8.0,-20.0,156,130,136,134,140
2025-02-26 14:25:52.490,-389.0,-803.0,293.0,38.0,3.0,-23.0,156,131,136,135,141
2025-02-26 14:25:52.494,-396.0,-811.0,304.0,31.0,1.0,-25.0,155,130,134,133,140
2025-02-26 14:25:52.498,-387.0,-818.0,321.0,25.0,-1.0,-27.0,152,128,133,133,138
2025-02-26 14:25:52.505,-372.0,-842.0,306.0,20.0,-5.0,-28.0,154,131,134,134,141
2025-02-26 14:25:52.507,-360.0,-865.0,311.0,12.0,-8.0,-29.0,155,132,135,135,139
2025-02-26 14:25:52.515,-349.0,-881.0,320.0,10.0,-11.0,-31.0,154,130,136,135,141
2025-02-26 14:25:52.519,-338.0,-904.0,315.0,4.0,-14.0,-31.0,156,128,132,127,139
2025-02-26 14:25:52.527,-332.0,-897.0,338.0,-2.0,-19.0,-31.0,154,128,134,134,139
2025-02-26 14:25:52.531,-315.0,-892.0,337.0,-5.0,-20.0,-31.0,156,131,135,135,143
2025-02-26 14:25:52.539,-291.0,-909.0,317.0,-5.0,-20.0,-30.0,156,132,136,135,141
2025-02-26 14:25:52.543,-276.0,-922.0,337.0,-6.0,-18.0,-30.0,156,131,136,135,142
2025-02-26 14:25:52.547,-280.0,-946.0,369.0,-7.0,-16.0,-29.0,158,133,136,137,144
2025-02-26 14:25:52.555,-276.0,-963.0,337.0,-9.0,-16.0,-28.0,154,129,134,133,141
2025-02-26 14:25:52.559,-256.0,-972.0,373.0,-12.0,-18.0,-27.0,155,131,134,133,139
2025-02-26 14:25:52.564,-245.0,-962.0,399.0,-10.0,-10.0,-26.0,155,130,135,135,144
2025-02-26 14:25:52.568,-230.0,-981.0,354.0,-9.0,-9.0,-24.0,156,129,136,136,141
2025-02-26 14:25:52.576,-222.0,-1005.0,378.0,-10.0,-4.0,-22.0,157,131,135,136,143
2025-02-26 14:25:52.580,-235.0,-1015.0,353.0,-2.0,-6.0,-20.0,161,131,136,137,141
2025-02-26 14:25:52.585,-222.0,-1033.0,361.0,-3.0,-6.0,-19.0,153,129,134,133,140
2025-02-26 14:25:52.592,-224.0,-1030.0,358.0,-2.0,-4.0,-18.0,155,130,135,133,139
2025-02-26 14:25:52.597,-222.0,-1043.0,351.0,-2.0,-5.0,-17.0,155,131,135,134,142
2025-02-26 14:25:52.601,-224.0,-1050.0,392.0,1.0,-1.0,-16.0,157,133,136,137,141
2025-02-26 14:25:52.608,-225.0,-1051.0,398.0,2.0,3.0,-15.0,159,136,139,138,143
2025-02-26 14:25:52.613,-227.0,-1047.0,404.0,4.0,4.0,-13.0,155,131,134,134,141
2025-02-26 14:25:52.617,-215.0,-1039.0,346.0,8.0,6.0,-12.0,155,130,134,135,141
2025-02-26 14:25:52.625,-212.0,-1037.0,382.0,10.0,5.0,-11.0,156,134,138,138,142
2025-02-26 14:25:52.629,-216.0,-1029.0,391.0,14.0,5.0,-9.0,156,134,138,138,143
2025-02-26 14:25:52.633,-211.0,-1034.0,377.0,13.0,5.0,-6.0,157,133,138,135,143
2025-02-26 14:25:52.637,-212.0,-1034.0,408.0,18.0,8.0,-3.0,155,130,134,133,140
2025-02-26 14:25:52.645,-198.0,-1037.0,417.0,20.0,11.0,-2.0,157,131,135,134,141
2025-02-26 14:25:52.650,-200.0,-1046.0,406.0,24.0,15.0,2.0,156,134,135,136,143
2025-02-26 14:25:52.654,-200.0,-1043.0,387.0,25.0,19.0,6.0,155,132,135,135,142
2025-02-26 14:25:52.658,-202.0,-1045.0,406.0,28.0,21.0,9.0,155,130,130,131,140
2025-02-26 14:25:52.665,-208.0,-1051.0,425.0,29.0,28.0,11.0,154,130,133,133,140
2025-02-26 14:25:52.670,-206.0,-1050.0,401.0,32.0,34.0,14.0,152,132,137,135,142
2025-02-26 14:25:52.674,-216.0,-1040.0,409.0,33.0,38.0,16.0,157,133,136,135,142
2025-02-26 14:25:52.682,-223.0,-1024.0,424.0,35.0,44.0,19.0,156,130,136,136,143
2025-02-26 14:25:52.686,-230.0,-1013.0,397.0,37.0,47.0,21.0,153,131,133,133,141
2025-02-26 14:25:52.690,-223.0,-1017.0,359.0,39.0,49.0,22.0,154,130,134,135,140
2025-02-26 14:25:52.699,-237.0,-1000.0,339.0,41.0,49.0,23.0,155,132,135,136,142
2025-02-26 14:25:52.703,-240.0,-973.0,370.0,39.0,50.0,25.0,156,132,135,135,141
2025-02-26 14:25:52.706,-240.0,-936.0,405.0,40.0,58.0,23.0,157,133,136,136,143
2025-02-26 14:25:52.711,-234.0,-938.0,292.0,35.0,55.0,26.0,154,130,135,134,141
2025-02-26 14:25:52.719,-249.0,-909.0,354.0,40.0,53.0,26.0,157,131,134,133,141
2025-02-26 14:25:52.723,-268.0,-866.0,354.0,53.0,46.0,28.0,157,131,136,134,142
2025-02-26 14:25:52.728,-287.0,-854.0,352.0,53.0,41.0,28.0,157,132,136,134,142
2025-02-26 14:25:52.735,-296.0,-826.0,351.0,54.0,40.0,28.0,155,130,133,135,141
2025-02-26 14:25:52.738,-314.0,-809.0,342.0,49.0,36.0,28.0,154,128,132,131,138
2025-02-26 14:25:52.743,-330.0,-796.0,332.0,49.0,30.0,28.0,157,131,135,135,141
2025-02-26 14:25:52.748,-339.0,-791.0,365.0,46.0,25.0,28.0,156,132,137,136,142
2025-02-26 14:25:52.756,-356.0,-803.0,373.0,36.0,20.0,26.0,155,130,134,132,140
2025-02-26 14:25:52.760,-357.0,-791.0,369.0,32.0,17.0,24.0,154,131,134,132,136
2025-02-26 14:25:52.762,-372.0,-801.0,373.0,27.0,10.0,22.0,156,132,134,135,142
2025-02-26 14:25:52.768,-350.0,-796.0,391.0,19.0,9.0,19.0,156,131,137,136,143
2025-02-26 14:25:52.775,-351.0,-800.0,381.0,15.0,6.0,16.0,154,129,133,133,138
2025-02-26 14:25:52.780,-356.0,-806.0,387.0,8.0,3.0,14.0,153,131,134,133,139
2025-02-26 14:25:52.784,-357.0,-802.0,391.0,2.0,-1.0,11.0,153,130,134,133,141
2025-02-26 14:25:52.789,-350.0,-806.0,387.0,-2.0,-5.0,8.0,155,132,134,133,144
2025-02-26 14:25:52.797,-356.0,-801.0,387.0,-10.0,-5.0,6.0,153,129,135,133,138
2025-02-26 14:25:52.801,-357.0,-794.0,386.0,-16.0,-7.0,5.0,153,126,132,131,137
2025-02-26 14:25:52.805,-358.0,-797.0,399.0,-21.0,-8.0,4.0,155,131,135,135,141
2025-02-26 14:25:52.811,-357.0,-821.0,414.0,-21.0,-7.0,3.0,156,132,133,135,142
2025-02-26 14:25:52.817,-360.0,-826.0,393.0,-22.0,-9.0,3.0,154,129,133,134,138
2025-02-26 14:25:52.822,-355.0,-823.0,411.0,-24.0,-9.0,2.0,152,128,132,132,138
2025-02-26 14:25:52.825,-366.0,-822.0,386.0,-24.0,-9.0,2.0,157,133,137,138,145
2025-02-26 14:25:52.834,-370.0,-826.0,390.0,-26.0,-10.0,1.0,155,130,134,133,141
2025-02-26 14:25:52.838,-364.0,-818.0,400.0,-27.0,-9.0,1.0,154,129,134,131,139
2025-02-26 14:25:52.841,-371.0,-834.0,403.0,-27.0,-9.0,0.0,153,128,132,133,140
2025-02-26 14:25:52.846,-375.0,-837.0,405.0,-27.0,-9.0,0.0,154,130,133,135,140
2025-02-26 14:25:52.854,-365.0,-838.0,400.0,-27.0,-8.0,-2.0,157,132,137,136,142
2025-02-26 14:25:52.858,-362.0,-843.0,421.0,-26.0,-6.0,-3.0,156,130,136,134,141
2025-02-26 14:25:52.863,-364.0,-846.0,397.0,-23.0,-9.0,-4.0,154,131,132,132,139
2025-02-26 14:25:52.870,-382.0,-854.0,391.0,-20.0,-9.0,-5.0,155,130,133,133,139
2025-02-26 14:25:52.874,-364.0,-862.0,365.0,-18.0,-10.0,-5.0,155,131,133,133,140
2025-02-26 14:25:52.878,-358.0,-862.0,354.0,-17.0,-11.0,-5.0,155,132,136,134,141
2025-02-26 14:25:52.887,-372.0,-857.0,370.0,-8.0,-12.0,-5.0,156,132,135,136,143
2025-02-26 14:25:52.889,-351.0,-873.0,381.0,-9.0,-8.0,-5.0,156,129,137,135,140
2025-02-26 14:25:52.896,-354.0,-862.0,361.0,-9.0,-6.0,-4.0,153,129,134,134,141
2025-02-26 14:25:52.900,-360.0,-868.0,350.0,-8.0,-6.0,-3.0,154,132,135,134,141
2025-02-26 14:25:52.907,-357.0,-870.0,353.0,-10.0,-6.0,-3.0,156,131,136,135,142
2025-02-26 14:25:52.912,-354.0,-880.0,368.0,-11.0,-5.0,-3.0,156,129,136,134,142
2025-02-26 14:25:52.915,-361.0,-882.0,356.0,-12.0,-6.0,-3.0,153,130,135,133,140
2025-02-26 14:25:52.924,-369.0,-875.0,350.0,-11.0,-6.0,-3.0,155,129,133,134,140
2025-02-26 14:25:52.928,-359.0,-883.0,373.0,-10.0,-7.0,-4.0,157,133,138,139,144
2025-02-26 14:25:52.933,-370.0,-887.0,374.0,-8.0,-7.0,-5.0,157,131,136,137,142
2025-02-26 14:25:52.937,-366.0,-887.0,359.0,-8.0,-8.0,-6.0,154,131,136,134,141
2025-02-26 14:25:52.945,-360.0,-891.0,370.0,-8.0,-8.0,-6.0,155,130,135,134,140
2025-02-26 14:25:52.948,-351.0,-880.0,379.0,-9.0,-8.0,-6.0,155,129,134,134,142
2025-02-26 14:25:52.952,-340.0,-875.0,385.0,-10.0,-7.0,-6.0,157,132,136,135,142
2025-02-26 14:25:52.960,-334.0,-875.0,385.0,-12.0,-6.0,-7.0,156,131,135,135,142
2025-02-26 14:25:52.964,-337.0,-863.0,365.0,-13.0,-7.0,-7.0,153,131,135,134,141
2025-02-26 14:25:52.969,-336.0,-873.0,353.0,-14.0,-8.0,-8.0,156,129,135,133,140
2025-02-26 14:25:52.977,-329.0,-873.0,357.0,-16.0,-9.0,-7.0,155,130,133,134,141
2025-02-26 14:25:52.981,-320.0,-881.0,359.0,-16.0,-10.0,-7.0,154,132,136,135,141
2025-02-26 14:25:52.985,-338.0,-890.0,343.0,-17.0,-13.0,-6.0,156,132,138,137,141
2025-02-26 14:25:52.989,-305.0,-883.0,383.0,-20.0,-13.0,-6.0,156,132,136,138,143
2025-02-26 14:25:52.998,-310.0,-902.0,374.0,-15.0,-12.0,-5.0,154,130,136,133,141
2025-02-26 14:25:53.002,-332.0,-900.0,351.0,-17.0,-17.0,-6.0,154,129,133,133,141
2025-02-26 14:25:53.006,-310.0,-916.0,381.0,-21.0,-13.0,-6.0,159,134,138,137,144
2025-02-26 14:25:53.014,-309.0,-916.0,360.0,-19.0,-15.0,-6.0,156,132,136,137,142
2025-02-26 14:25:53.016,-304.0,-912.0,363.0,-18.0,-17.0,-6.0,155,131,136,135,143
2025-02-26 14:25:53.022,-301.0,-903.0,367.0,-18.0,-17.0,-6.0,154,132,135,133,140
2025-02-26 14:25:53.030,-297.0,-911.0,344.0,-20.0,-18.0,-6.0,155,131,136,135,140
2025-02-26 14:25:53.034,-292.0,-903.0,348.0,-20.0,-21.0,-6.0,154,130,134,133,140
2025-02-26 14:25:53.039,-290.0,-901.0,356.0,-21.0,-20.0,-4.0,156,132,136,135,140
2025-02-26 14:25:53.046,-280.0,-899.0,348.0,-21.0,-19.0,-4.0,155,132,136,135,142
2025-02-26 14:25:53.051,-286.0,-905.0,340.0,-22.0,-19.0,-3.0,157,131,135,140,143
2025-02-26 14:25:53.056,-293.0,-911.0,353.0,-21.0,-19.0,-3.0,156,133,134,132,141
2025-02-26 14:25:53.063,-293.0,-923.0,371.0,-22.0,-19.0,-2.0,154,131,135,132,141
2025-02-26 14:25:53.065,-284.0,-919.0,383.0,-21.0,-18.0,-2.0,155,130,134,135,142
2025-02-26 14:25:53.071,-298.0,-909.0,362.0,-17.0,-19.0,-2.0,156,132,136,135,144
2025-02-26 14:25:53.079,-254.0,-1049.0,170.0,-9.0,-28.0,-2.0,155,132,137,136,143
2025-02-26 14:25:53.084,-347.0,-921.0,438.0,-10.0,-20.0,-4.0,154,131,137,135,142
2025-02-26 14:25:53.087,-313.0,-896.0,377.0,-13.0,-19.0,-4.0,156,132,137,136,142
2025-02-26 14:25:53.095,-302.0,-888.0,358.0,-9.0,-21.0,-5.0,154,130,135,137,143
2025-02-26 14:25:53.100,-327.0,-892.0,342.0,-3.0,-24.0,-5.0,155,131,136,135,144
2025-02-26 14:25:53.104,-327.0,-890.0,353.0,-3.0,-23.0,-5.0,155,132,135,135,144
2025-02-26 14:25:53.108,-323.0,-896.0,354.0,-3.0,-23.0,-6.0,155,135,138,136,143
2025-02-26 14:25:53.116,-324.0,-889.0,324.0,0.0,-25.0,-7.0,155,130,135,136,143
2025-02-26 14:25:53.120,-310.0,-885.0,344.0,0.0,-26.0,-7.0,159,131,135,131,141
2025-02-26 14:25:53.125,-315.0,-885.0,358.0,-5.0,-24.0,-8.0,154,131,137,137,144
2025-02-26 14:25:53.132,-299.0,-877.0,365.0,-6.0,-22.0,-9.0,157,134,138,141,144
2025-02-26 14:25:53.137,-299.0,-874.0,354.0,-6.0,-21.0,-9.0,157,133,137,136,142
2025-02-26 14:25:53.141,-301.0,-868.0,349.0,-6.0,-20.0,-9.0,153,130,135,135,141
2025-02-26 14:25:53.146,-298.0,-875.0,338.0,-3.0,-20.0,-10.0,154,131,137,135,144
2025-02-26 14:25:53.153,-292.0,-873.0,330.0,0.0,-21.0,-10.0,157,134,138,136,143
2025-02-26 14:25:53.158,-304.0,-870.0,319.0,3.0,-24.0,-10.0,156,131,137,135,143
2025-02-26 14:25:53.162,-299.0,-871.0,348.0,4.0,-26.0,-10.0,156,132,137,136,142
2025-02-26 14:25:53.169,-296.0,-894.0,342.0,6.0,-26.0,-11.0,156,133,137,135,143
2025-02-26 14:25:53.173,-308.0,-883.0,355.0,6.0,-27.0,-12.0,154,130,134,135,141
2025-02-26 14:25:53.178,-299.0,-877.0,380.0,8.0,-26.0,-13.0,156,132,137,138,143
2025-02-26 14:25:53.185,-292.0,-873.0,386.0,7.0,-25.0,-15.0,154,130,137,137,143
2025-02-26 14:25:53.190,-301.0,-870.0,388.0,7.0,-23.0,-16.0,158,135,139,138,145
2025-02-26 14:25:53.194,-309.0,-853.0,366.0,6.0,-22.0,-19.0,155,130,136,137,142
2025-02-26 14:25:53.198,-306.0,-853.0,355.0,7.0,-23.0,-19.0,156,130,135,137,142
2025-02-26 14:25:53.206,-301.0,-860.0,356.0,6.0,-25.0,-21.0,156,133,138,136,144
2025-02-26 14:25:53.210,-314.0,-859.0,354.0,7.0,-27.0,-22.0,156,136,138,138,142
2025-02-26 14:25:53.215,-326.0,-864.0,347.0,8.0,-29.0,-23.0,156,132,136,138,144
2025-02-26 14:25:53.222,-316.0,-868.0,354.0,8.0,-28.0,-25.0,153,130,136,135,142
2025-02-26 14:25:53.227,-313.0,-873.0,347.0,8.0,-30.0,-25.0,154,130,135,134,141
2025-02-26 14:25:53.231,-308.0,-875.0,352.0,8.0,-30.0,-25.0,155,134,140,138,146
2025-02-26 14:25:53.239,-301.0,-880.0,365.0,8.0,-29.0,-26.0,156,134,139,137,143
2025-02-26 14:25:53.244,-292.0,-865.0,358.0,8.0,-30.0,-26.0,155,132,138,137,144
2025-02-26 14:25:53.246,-287.0,-891.0,358.0,8.0,-31.0,-26.0,156,132,138,139,145
2025-02-26 14:25:53.252,-280.0,-898.0,336.0,8.0,-35.0,-26.0,154,131,136,136,141
2025-02-26 14:25:53.257,-274.0,-895.0,353.0,7.0,-37.0,-27.0,154,134,138,137,144
2025-02-26 14:25:53.264,-287.0,-892.0,355.0,7.0,-39.0,-27.0,156,133,138,138,144
2025-02-26 14:25:53.268,-279.0,-900.0,337.0,7.0,-41.0,-28.0,155,133,138,137,145
2025-02-26 14:25:53.275,-271.0,-905.0,329.0,9.0,-44.0,-29.0,155,133,137,136,142
2025-02-26 14:25:53.281,-265.0,-913.0,333.0,7.0,-47.0,-29.0,151,130,137,137,142
2025-02-26 14:25:53.284,-250.0,-897.0,343.0,4.0,-47.0,-29.0,157,133,138,139,145
2025-02-26 14:25:53.289,-241.0,-884.0,343.0,5.0,-49.0,-28.0,157,134,131,138,145
2025-02-26 14:25:53.296,-240.0,-878.0,349.0,7.0,-50.0,-28.0,156,132,138,137,145
2025-02-26 14:25:53.300,-225.0,-877.0,352.0,6.0,-51.0,-28.0,155,132,136,138,142
2025-02-26 14:25:53.306,-196.0,-868.0,378.0,8.0,-51.0,-28.0,155,131,136,136,142
2025-02-26 14:25:53.312,-189.0,-903.0,353.0,6.0,-52.0,-27.0,157,134,139,138,145
2025-02-26 14:25:53.317,-183.0,-902.0,374.0,7.0,-53.0,-26.0,155,133,138,138,144
2025-02-26 14:25:53.321,-162.0,-920.0,386.0,5.0,-53.0,-25.0,154,132,137,136,143
2025-02-26 14:25:53.329,-153.0,-919.0,415.0,-2.0,-52.0,-24.0,156,133,137,139,146
2025-02-26 14:25:53.331,-135.0,-918.0,456.0,-3.0,-49.0,-25.0,154,132,135,136,142
2025-02-26 14:25:53.338,-162.0,-958.0,457.0,-2.0,-47.0,-24.0,157,134,139,137,144
2025-02-26 14:25:53.346,-136.0,-945.0,479.0,-6.0,-44.0,-23.0,155,134,139,140,144
2025-02-26 14:25:53.349,-129.0,-954.0,485.0,-7.0,-41.0,-22.0,157,133,138,137,144
2025-02-26 14:25:53.354,-122.0,-969.0,482.0,-7.0,-41.0,-21.0,154,133,138,137,143
2025-02-26 14:25:53.362,-124.0,-974.0,478.0,-5.0,-38.0,-20.0,155,132,131,135,142
2025-02-26 14:25:53.366,-118.0,-980.0,474.0,-4.0,-35.0,-19.0,156,134,136,137,143
2025-02-26 14:25:53.371,-124.0,-986.0,480.0,-4.0,-31.0,-16.0,157,136,140,139,146
2025-02-26 14:25:53.375,-116.0,-974.0,479.0,0.0,-27.0,-13.0,158,136,142,138,144
2025-02-26 14:25:53.383,-108.0,-995.0,511.0,1.0,-22.0,-9.0,155,133,139,137,144
2025-02-26 14:25:53.387,-101.0,-996.0,511.0,3.0,-19.0,-5.0,154,132,137,136,143
2025-02-26 14:25:53.391,-93.0,-1002.0,509.0,4.0,-15.0,-3.0,155,136,139,137,144
2025-02-26 14:25:53.399,-89.0,-1000.0,506.0,6.0,-9.0,2.0,156,135,139,138,144
2025-02-26 14:25:53.403,-88.0,-990.0,499.0,7.0,-4.0,4.0,156,133,138,137,144
2025-02-26 14:25:53.405,-88.0,-998.0,526.0,7.0,-1.0,8.0,157,135,139,139,144
2025-02-26 14:25:53.412,-98.0,-996.0,513.0,8.0,3.0,9.0,158,135,140,141,145
2025-02-26 14:25:53.416,-108.0,-992.0,508.0,8.0,6.0,11.0,156,134,138,137,145
2025-02-26 14:25:53.422,-109.0,-976.0,510.0,6.0,9.0,13.0,155,132,136,137,141
2025-02-26 14:25:53.428,-116.0,-978.0,510.0,0.0,13.0,14.0,159,136,140,141,146
2025-02-26 14:25:53.432,-118.0,-971.0,513.0,-1.0,17.0,15.0,157,135,140,140,145
2025-02-26 14:25:53.436,-141.0,-965.0,496.0,0.0,18.0,16.0,156,132,137,137,143
2025-02-26 14:25:53.440,-152.0,-958.0,480.0,0.0,19.0,17.0,154,134,137,137,144
2025-02-26 14:25:53.448,-149.0,-955.0,469.0,0.0,22.0,18.0,159,136,141,136,146
2025-02-26 14:25:53.452,-167.0,-941.0,457.0,0.0,20.0,18.0,158,136,141,140,145
2025-02-26 14:25:53.457,-178.0,-934.0,459.0,1.0,19.0,19.0,156,134,138,139,142
2025-02-26 14:25:53.464,-183.0,-927.0,463.0,1.0,18.0,18.0,155,134,139,136,144
2025-02-26 14:25:53.469,-197.0,-925.0,452.0,1.0,16.0,18.0,157,136,140,142,147
2025-02-26 14:25:53.470,-210.0,-929.0,443.0,-1.0,15.0,17.0,154,134,138,138,145
2025-02-26 14:25:53.478,-223.0,-917.0,434.0,-3.0,15.0,16.0,155,133,137,137,142
2025-02-26 14:25:53.482,-228.0,-914.0,425.0,-5.0,15.0,15.0,154,131,136,137,143
2025-02-26 14:25:53.490,-227.0,-914.0,405.0,-7.0,13.0,15.0,158,134,140,141,146
2025-02-26 14:25:53.494,-234.0,-912.0,410.0,-9.0,12.0,13.0,158,135,139,139,145
2025-02-26 14:25:53.501,-236.0,-921.0,409.0,-10.0,10.0,11.0,155,133,137,137,142
2025-02-26 14:25:53.505,-237.0,-912.0,405.0,-12.0,9.0,10.0,155,132,136,138,143
2025-02-26 14:25:53.510,-243.0,-915.0,401.0,-14.0,8.0,9.0,155,134,146,138,145
2025-02-26 14:25:53.522,-250.0,-916.0,398.0,-16.0,5.0,8.0,157,135,140,139,145
2025-02-26 14:25:53.524,-245.0,-914.0,429.0,-16.0,3.0,7.0,157,132,140,140,144
2025-02-26 14:25:53.527,-246.0,-911.0,420.0,-17.0,3.0,7.0,154,131,135,137,142
2025-02-26 14:25:53.531,-250.0,-916.0,410.0,-18.0,3.0,7.0,158,135,141,139,145
2025-02-26 14:25:53.532,-239.0,-907.0,384.0,-18.0,2.0,6.0,156,134,139,139,145
2025-02-26 14:25:53.542,-240.0,-908.0,393.0,-17.0,3.0,5.0,154,132,138,137,144
2025-02-26 14:25:53.546,-239.0,-900.0,391.0,-16.0,3.0,5.0,153,132,138,138,142
2025-02-26 14:25:53.551,-231.0,-901.0,392.0,-14.0,3.0,4.0,158,134,139,138,145
2025-02-26 14:25:53.555,-230.0,-900.0,392.0,-13.0,3.0,4.0,158,134,140,139,144
2025-02-26 14:25:53.561,-230.0,-894.0,382.0,-13.0,2.0,4.0,154,131,137,137,143
2025-02-26 14:25:53.567,-230.0,-898.0,382.0,-10.0,3.0,4.0,155,132,137,138,144
2025-02-26 14:25:53.571,-232.0,-897.0,392.0,-8.0,3.0,5.0,157,134,139,139,145
2025-02-26 14:25:53.572,-228.0,-893.0,398.0,-7.0,4.0,5.0,156,133,137,138,142
2025-02-26 14:25:53.583,-231.0,-879.0,400.0,-6.0,4.0,5.0,154,131,137,136,142
2025-02-26 14:25:53.587,-230.0,-877.0,394.0,-4.0,5.0,5.0,158,136,140,140,146
2025-02-26 14:25:53.592,-228.0,-875.0,380.0,-4.0,5.0,5.0,157,133,141,140,145
2025-02-26 14:25:53.596,-231.0,-877.0,386.0,-4.0,5.0,5.0,153,132,137,137,142
2025-02-26 14:25:53.604,-234.0,-875.0,380.0,-4.0,5.0,5.0,156,131,137,136,142
2025-02-26 14:25:53.608,-230.0,-879.0,387.0,-4.0,6.0,4.0,158,136,141,141,146
2025-02-26 14:25:53.610,-228.0,-875.0,400.0,-3.0,6.0,4.0,156,133,138,137,144
2025-02-26 14:25:53.616,-218.0,-887.0,411.0,-5.0,7.0,5.0,154,129,136,137,142
2025-02-26 14:25:53.624,-207.0,-882.0,412.0,-5.0,10.0,6.0,156,134,138,139,143
2025-02-26 14:25:53.628,-197.0,-873.0,417.0,-6.0,14.0,7.0,158,135,141,141,146
2025-02-26 14:25:53.632,-188.0,-871.0,426.0,-6.0,18.0,9.0,158,133,138,138,144
2025-02-26 14:25:53.637,-178.0,-865.0,437.0,-5.0,20.0,10.0,155,130,135,136,141
2025-02-26 14:25:53.644,-182.0,-868.0,436.0,-5.0,25.0,11.0,155,132,138,140,144
2025-02-26 14:25:53.649,-183.0,-869.0,430.0,-4.0,28.0,12.0,159,135,141,141,145
2025-02-26 14:25:53.653,-193.0,-875.0,417.0,-3.0,29.0,13.0,156,132,137,139,144
2025-02-26 14:25:53.658,-201.0,-891.0,411.0,-3.0,29.0,13.0,155,131,135,136,141
2025-02-26 14:25:53.665,-216.0,-897.0,413.0,-4.0,29.0,13.0,154,129,136,136,140
2025-02-26 14:25:53.669,-229.0,-896.0,400.0,-5.0,29.0,13.0,158,134,137,139,143
2025-02-26 14:25:53.670,-255.0,-896.0,383.0,-6.0,26.0,12.0,158,132,137,139,143
2025-02-26 14:25:53.682,-270.0,-910.0,362.0,-6.0,23.0,9.0,154,133,135,136,140
2025-02-26 14:25:53.686,-273.0,-899.0,357.0,-7.0,20.0,8.0,154,128,133,135,141
2025-02-26 14:25:53.690,-283.0,-894.0,349.0,-8.0,16.0,6.0,160,132,139,137,143
2025-02-26 14:25:53.695,-288.0,-890.0,337.0,-8.0,13.0,5.0,156,131,131,139,142
2025-02-26 14:25:53.702,-289.0,-879.0,329.0,-9.0,11.0,4.0,155,129,131,136,141
2025-02-26 14:25:53.706,-302.0,-883.0,316.0,-10.0,9.0,4.0,154,127,135,137,140
2025-02-26 14:25:53.711,-299.0,-876.0,307.0,-10.0,5.0,3.0,158,133,137,139,145
2025-02-26 14:25:53.714,-292.0,-889.0,291.0,-10.0,1.0,3.0,154,132,136,138,142
2025-02-26 14:25:53.717,-285.0,-900.0,302.0,-11.0,0.0,3.0,153,129,134,137,141
2025-02-26 14:25:53.726,-282.0,-902.0,300.0,-10.0,-2.0,3.0,156,130,136,137,141
2025-02-26 14:25:53.731,-272.0,-900.0,301.0,-9.0,-4.0,3.0,156,131,138,140,142
2025-02-26 14:25:53.735,-265.0,-901.0,313.0,-9.0,-5.0,3.0,156,130,135,139,141
2025-02-26 14:25:53.743,-267.0,-917.0,313.0,-8.0,-5.0,3.0,155,129,132,135,140
2025-02-26 14:25:53.747,-254.0,-923.0,314.0,-6.0,-6.0,3.0,157,130,136,138,143
2025-02-26 14:25:53.751,-253.0,-925.0,303.0,-6.0,-7.0,3.0,157,134,137,138,142
2025-02-26 14:25:53.756,-239.0,-931.0,320.0,-4.0,-7.0,2.0,157,130,132,138,142
2025-02-26 14:25:53.763,-239.0,-932.0,333.0,-5.0,-6.0,2.0,154,129,134,135,140
2025-02-26 14:25:53.767,-231.0,-930.0,328.0,-4.0,-7.0,2.0,158,133,138,142,144
2025-02-26 14:25:53.772,-227.0,-942.0,333.0,-3.0,-7.0,3.0,157,131,136,138,142
2025-02-26 14:25:53.776,-224.0,-946.0,343.0,-3.0,-8.0,4.0,156,130,134,135,141
2025-02-26 14:25:53.784,-226.0,-945.0,354.0,-3.0,-8.0,4.0,156,128,133,136,140
2025-02-26 14:25:53.788,-224.0,-950.0,357.0,-3.0,-7.0,4.0,158,132,137,140,144
2025-02-26 14:25:53.792,-225.0,-934.0,358.0,-3.0,-7.0,5.0,156,130,136,140,144
2025-02-26 14:25:53.797,-222.0,-939.0,363.0,-4.0,-6.0,4.0,155,127,133,137,140
2025-02-26 14:25:53.804,-219.0,-935.0,372.0,-3.0,-5.0,5.0,156,128,133,135,139
2025-02-26 14:25:53.809,-225.0,-927.0,371.0,-3.0,-4.0,5.0,158,132,138,140,141
2025-02-26 14:25:53.813,-232.0,-930.0,369.0,-3.0,-3.0,5.0,158,130,135,138,141
2025-02-26 14:25:53.817,-230.0,-924.0,372.0,-2.0,-2.0,4.0,154,127,132,136,140
2025-02-26 14:25:53.825,-237.0,-922.0,371.0,-1.0,-2.0,4.0,155,127,132,135,138
2025-02-26 14:25:53.829,-241.0,-918.0,369.0,0.0,-2.0,3.0,157,132,135,139,143
2025-02-26 14:25:53.833,-244.0,-921.0,364.0,0.0,-2.0,3.0,156,129,135,137,140
2025-02-26 14:25:53.838,-256.0,-919.0,348.0,2.0,-2.0,3.0,154,127,133,135,140
2025-02-26 14:25:53.846,-247.0,-918.0,349.0,3.0,-4.0,3.0,157,130,134,140,140
2025-02-26 14:25:53.849,-258.0,-915.0,352.0,10.0,-9.0,5.0,157,131,135,139,140
2025-02-26 14:25:53.854,-303.0,-848.0,468.0,3.0,-4.0,3.0,156,128,133,136,140
2025-02-26 14:25:53.859,-244.0,-916.0,386.0,4.0,-3.0,2.0,153,128,132,135,139
2025-02-26 14:25:53.864,-258.0,-923.0,370.0,6.0,-5.0,1.0,155,129,135,137,140
2025-02-26 14:25:53.870,-260.0,-907.0,375.0,7.0,-6.0,1.0,155,131,133,137,141
2025-02-26 14:25:53.874,-254.0,-908.0,380.0,5.0,-6.0,1.0,154,127,133,136,138
2025-02-26 14:25:53.878,-252.0,-909.0,381.0,3.0,-5.0,1.0,156,130,135,139,139
2025-02-26 14:25:53.886,-262.0,-915.0,372.0,3.0,-6.0,1.0,155,129,135,138,140
2025-02-26 14:25:53.890,-255.0,-919.0,390.0,3.0,-6.0,2.0,155,134,133,136,137
2025-02-26 14:25:53.895,-245.0,-918.0,390.0,1.0,-6.0,2.0,155,128,133,137,138
2025-02-26 14:25:53.900,-247.0,-918.0,380.0,0.0,-6.0,3.0,157,130,128,137,140
2025-02-26 14:25:53.901,-249.0,-921.0,381.0,0.0,-6.0,3.0,158,132,133,136,137
2025-02-26 14:25:53.912,-248.0,-925.0,390.0,0.0,-5.0,3.0,155,129,134,136,135
2025-02-26 14:25:53.918,-244.0,-927.0,392.0,-1.0,-5.0,3.0,157,128,135,137,140
2025-02-26 14:25:53.923,-241.0,-931.0,395.0,-1.0,-4.0,3.0,157,130,131,137,139
2025-02-26 14:25:53.924,-240.0,-928.0,404.0,-1.0,-4.0,3.0,153,128,133,137,138
2025-02-26 14:25:53.930,-241.0,-929.0,395.0,-2.0,-3.0,4.0,155,129,130,136,138
2025-02-26 14:25:53.936,-244.0,-928.0,393.0,-2.0,-2.0,4.0,158,130,130,137,140
2025-02-26 14:25:53.936,-251.0,-926.0,406.0,-1.0,-1.0,5.0,158,131,130,138,140
2025-02-26 14:25:53.942,-257.0,-924.0,405.0,-1.0,-1.0,6.0,153,133,138,139,142
2025-02-26 14:25:53.948,-263.0,-922.0,399.0,0.0,0.0,6.0,155,129,132,134,137
2025-02-26 14:25:53.956,-270.0,-917.0,402.0,0.0,1.0,6.0,158,130,135,137,139
2025-02-26 14:25:53.960,-265.0,-914.0,385.0,0.0,1.0,6.0,155,129,134,135,138
2025-02-26 14:25:53.965,-264.0,-915.0,386.0,0.0,1.0,5.0,155,129,132,135,137
2025-02-26 14:25:53.972,-268.0,-903.0,381.0,0.0,0.0,4.0,156,130,134,138,139
2025-02-26 14:25:53.977,-266.0,-904.0,381.0,1.0,1.0,4.0,157,130,134,137,140
2025-02-26 14:25:53.980,-270.0,-897.0,378.0,2.0,1.0,4.0,154,132,133,134,133
2025-02-26 14:25:53.985,-272.0,-895.0,378.0,3.0,1.0,4.0,156,129,134,136,138
2025-02-26 14:25:53.989,-269.0,-896.0,382.0,3.0,2.0,4.0,156,129,136,135,138
2025-02-26 14:25:53.997,-270.0,-896.0,385.0,4.0,2.0,4.0,156,129,133,135,136
2025-02-26 14:25:54.001,-268.0,-901.0,391.0,5.0,2.0,4.0,156,130,132,135,139
2025-02-26 14:25:54.005,-263.0,-898.0,388.0,5.0,2.0,4.0,156,130,133,135,138
2025-02-26 14:25:54.009,-261.0,-914.0,392.0,6.0,2.0,5.0,154,129,134,134,137
2025-02-26 14:25:54.013,-266.0,-910.0,392.0,7.0,3.0,5.0,158,130,135,138,139
2025-02-26 14:25:54.022,-244.0,-892.0,403.0,7.0,4.0,4.0,156,127,134,137,141
2025-02-26 14:25:54.025,-244.0,-899.0,426.0,7.0,4.0,1.0,155,128,131,134,136
2025-02-26 14:25:54.030,-229.0,-903.0,435.0,6.0,6.0,1.0,158,130,134,136,141
2025-02-26 14:25:54.034,-221.0,-885.0,402.0,2.0,8.0,-2.0,156,131,134,135,139
2025-02-26 14:25:54.042,-207.0,-872.0,429.0,2.0,10.0,-4.0,160,128,131,136,136
2025-02-26 14:25:54.046,-215.0,-869.0,407.0,0.0,10.0,-5.0,154,127,133,134,137
2025-02-26 14:25:54.050,-210.0,-886.0,416.0,-1.0,13.0,-6.0,155,129,135,138,139
2025-02-26 14:25:54.053,-230.0,-889.0,417.0,-2.0,14.0,-6.0,157,130,135,136,137
2025-02-26 14:25:54.062,-255.0,-885.0,403.0,-2.0,15.0,-4.0,154,129,131,136,136
2025-02-26 14:25:54.067,-267.0,-887.0,405.0,-2.0,15.0,-3.0,155,127,131,134,136
2025-02-26 14:25:54.070,-298.0,-894.0,409.0,-2.0,14.0,-2.0,158,129,134,134,137
2025-02-26 14:25:54.078,-312.0,-906.0,414.0,-1.0,13.0,0.0,156,128,134,135,137
2025-02-26 14:25:54.083,-323.0,-912.0,422.0,0.0,13.0,3.0,155,129,132,134,137
2025-02-26 14:25:54.087,-330.0,-920.0,405.0,1.0,11.0,5.0,156,128,134,137,138
2025-02-26 14:25:54.091,-320.0,-924.0,392.0,0.0,8.0,6.0,157,129,133,135,138
2025-02-26 14:25:54.096,-311.0,-921.0,392.0,0.0,6.0,7.0,155,127,132,135,137
2025-02-26 14:25:54.101,-303.0,-927.0,364.0,0.0,3.0,7.0,154,127,132,134,135
2025-02-26 14:25:54.107,-295.0,-923.0,377.0,-4.0,0.0,7.0,160,131,135,137,141
2025-02-26 14:25:54.112,-287.0,-915.0,394.0,-5.0,-1.0,6.0,157,132,134,136,138
2025-02-26 14:25:54.116,-282.0,-900.0,411.0,-6.0,-1.0,5.0,156,127,131,133,137
2025-02-26 14:25:54.124,-286.0,-907.0,419.0,-9.0,2.0,5.0,155,127,131,132,136
2025-02-26 14:25:54.125,-279.0,-910.0,401.0,-11.0,2.0,6.0,158,133,136,136,139
2025-02-26 14:25:54.130,-270.0,-923.0,404.0,-11.0,3.0,7.0,156,128,132,134,137
2025-02-26 14:25:54.137,-276.0,-925.0,403.0,-12.0,4.0,8.0,155,129,133,133,135
2025-02-26 14:25:54.144,-267.0,-923.0,416.0,-14.0,4.0,8.0,155,127,131,133,135
2025-02-26 14:25:54.149,-266.0,-941.0,419.0,-14.0,5.0,9.0,158,130,136,136,140
2025-02-26 14:25:54.149,-259.0,-939.0,413.0,-15.0,5.0,10.0,158,128,133,134,137
2025-02-26 14:25:54.157,-254.0,-930.0,409.0,-15.0,6.0,11.0,156,127,132,134,137
2025-02-26 14:25:54.165,-254.0,-936.0,395.0,-16.0,8.0,11.0,154,127,132,132,135
2025-02-26 14:25:54.169,-263.0,-932.0,390.0,-15.0,9.0,12.0,157,130,135,136,139
2025-02-26 14:25:54.174,-281.0,-922.0,385.0,-15.0,9.0,13.0,156,129,133,135,138
2025-02-26 14:25:54.181,-289.0,-924.0,369.0,-15.0,10.0,15.0,155,127,132,134,136
2025-02-26 14:25:54.186,-290.0,-939.0,374.0,-13.0,10.0,15.0,154,127,132,134,135
2025-02-26 14:25:54.190,-286.0,-920.0,375.0,-13.0,11.0,16.0,158,127,134,134,139
2025-02-26 14:25:54.192,-312.0,-911.0,377.0,-12.0,11.0,16.0,157,129,135,135,139
2025-02-26 14:25:54.202,-315.0,-908.0,363.0,-11.0,11.0,16.0,156,129,133,134,134
2025-02-26 14:25:54.204,-314.0,-901.0,369.0,-10.0,11.0,15.0,155,128,130,131,136
2025-02-26 14:25:54.210,-318.0,-894.0,358.0,-10.0,11.0,15.0,154,127,132,132,136
2025-02-26 14:25:54.216,-316.0,-892.0,363.0,-9.0,10.0,13.0,156,128,132,136,139
2025-02-26 14:25:54.222,-318.0,-892.0,362.0,-9.0,9.0,12.0,156,128,134,135,138
2025-02-26 14:25:54.227,-317.0,-890.0,353.0,-9.0,9.0,9.0,157,129,134,136,140
2025-02-26 14:25:54.231,-323.0,-888.0,348.0,-9.0,8.0,8.0,155,127,133,133,136
2025-02-26 14:25:54.239,-317.0,-887.0,347.0,-10.0,8.0,6.0,157,129,132,134,139
2025-02-26 14:25:54.243,-313.0,-882.0,353.0,-10.0,8.0,5.0,156,129,133,135,137
2025-02-26 14:25:54.247,-314.0,-887.0,346.0,-10.0,7.0,4.0,157,130,134,134,139
2025-02-26 14:25:54.251,-318.0,-890.0,337.0,-11.0,6.0,4.0,153,127,131,133,137
2025-02-26 14:25:54.259,-311.0,-882.0,339.0,-11.0,7.0,4.0,159,128,134,135,138
2025-02-26 14:25:54.263,-308.0,-887.0,327.0,-11.0,6.0,4.0,156,128,132,134,136
2025-02-26 14:25:54.264,-303.0,-892.0,334.0,-12.0,7.0,4.0,155,127,133,136,138
2025-02-26 14:25:54.272,-309.0,-902.0,330.0,-13.0,7.0,3.0,155,128,132,132,134
2025-02-26 14:25:54.276,-312.0,-906.0,327.0,-14.0,6.0,3.0,156,128,133,134,138
2025-02-26 14:25:54.284,-303.0,-919.0,331.0,-14.0,6.0,3.0,156,126,133,135,137
2025-02-26 14:25:54.288,-301.0,-924.0,323.0,-15.0,6.0,2.0,155,127,132,134,137
2025-02-26 14:25:54.293,-304.0,-918.0,330.0,-15.0,5.0,2.0,157,129,134,135,138
2025-02-26 14:25:54.300,-292.0,-917.0,334.0,-14.0,5.0,2.0,156,129,133,134,137
2025-02-26 14:25:54.305,-301.0,-916.0,332.0,-15.0,4.0,2.0,153,128,134,135,138
2025-02-26 14:25:54.307,-296.0,-915.0,325.0,-14.0,3.0,2.0,156,126,131,135,136
2025-02-26 14:25:54.312,-301.0,-918.0,329.0,-14.0,3.0,3.0,158,129,133,135,139
2025-02-26 14:25:54.320,-303.0,-915.0,333.0,-14.0,3.0,3.0,157,129,134,133,138
2025-02-26 14:25:54.325,-296.0,-913.0,338.0,-13.0,2.0,2.0,154,127,130,133,136
2025-02-26 14:25:54.329,-297.0,-909.0,337.0,-12.0,2.0,2.0,155,128,131,132,137
2025-02-26 14:25:54.333,-302.0,-903.0,319.0,-12.0,2.0,1.0,157,128,134,134,139
2025-02-26 14:25:54.341,-299.0,-906.0,316.0,-11.0,3.0,0.0,157,127,133,135,137
2025-02-26 14:25:54.343,-298.0,-904.0,322.0,-10.0,3.0,-1.0,155,127,132,133,135
2025-02-26 14:25:54.350,-302.0,-902.0,317.0,-9.0,3.0,-2.0,157,127,131,134,138
2025-02-26 14:25:54.357,-304.0,-905.0,306.0,-7.0,4.0,-3.0,157,129,134,135,138
2025-02-26 14:25:54.362,-311.0,-897.0,302.0,-6.0,4.0,-4.0,157,131,133,133,134
2025-02-26 14:25:54.365,-305.0,-892.0,300.0,-5.0,4.0,-4.0,156,126,131,132,136
2025-02-26 14:25:54.370,-308.0,-892.0,296.0,-4.0,4.0,-4.0,149,127,133,138,136
2025-02-26 14:25:54.378,-311.0,-897.0,303.0,-3.0,4.0,-3.0,157,129,133,134,138
2025-02-26 14:25:54.382,-308.0,-901.0,306.0,-3.0,3.0,-3.0,157,128,132,133,136
2025-02-26 14:25:54.386,-312.0,-909.0,313.0,-2.0,3.0,-3.0,153,127,131,132,136
2025-02-26 14:25:54.391,-305.0,-909.0,321.0,-2.0,3.0,-2.0,154,126,131,132,135
2025-02-26 14:25:54.398,-301.0,-918.0,327.0,-2.0,3.0,-1.0,156,128,133,134,138
2025-02-26 14:25:54.402,-299.0,-925.0,334.0,-3.0,4.0,0.0,155,128,132,134,136
2025-02-26 14:25:54.407,-294.0,-927.0,335.0,-2.0,3.0,2.0,155,126,131,132,136
2025-02-26 14:25:54.411,-303.0,-925.0,336.0,-3.0,4.0,2.0,158,128,135,136,139
2025-02-26 14:25:54.415,-304.0,-924.0,342.0,-3.0,5.0,3.0,157,129,134,133,135
2025-02-26 14:25:54.422,-297.0,-925.0,344.0,-4.0,5.0,3.0,153,126,131,133,135
2025-02-26 14:25:54.427,-301.0,-922.0,339.0,-5.0,4.0,3.0,156,130,134,135,137
2025-02-26 14:25:54.432,-304.0,-924.0,338.0,-7.0,5.0,3.0,157,130,136,136,137
2025-02-26 14:25:54.433,-299.0,-910.0,328.0,-7.0,5.0,3.0,156,129,132,132,136
2025-02-26 14:25:54.443,-303.0,-912.0,331.0,-8.0,5.0,2.0,153,126,131,131,135
2025-02-26 14:25:54.448,-310.0,-912.0,324.0,-8.0,6.0,2.0,158,130,134,138,138
2025-02-26 14:25:54.452,-308.0,-902.0,324.0,-8.0,6.0,2.0,158,129,136,135,137
2025-02-26 14:25:54.456,-307.0,-906.0,314.0,-8.0,6.0,3.0,155,127,131,132,135
2025-02-26 14:25:54.464,-309.0,-910.0,316.0,-9.0,5.0,3.0,154,125,131,132,133
2025-02-26 14:25:54.468,-311.0,-909.0,316.0,-9.0,5.0,3.0,158,130,138,136,140
2025-02-26 14:25:54.472,-314.0,-919.0,322.0,-9.0,5.0,3.0,156,129,134,133,135
2025-02-26 14:25:54.477,-321.0,-919.0,332.0,-10.0,5.0,4.0,156,126,132,131,133
2025-02-26 14:25:54.483,-332.0,-921.0,324.0,-9.0,5.0,4.0,157,128,133,134,135
2025-02-26 14:25:54.489,-329.0,-920.0,317.0,-9.0,5.0,3.0,158,130,135,135,137
2025-02-26 14:25:54.493,-314.0,-911.0,291.0,-8.0,5.0,4.0,155,127,132,132,134
2025-02-26 14:25:54.494,-312.0,-914.0,310.0,-8.0,6.0,4.0,154,126,132,131,132
2025-02-26 14:25:54.501,-317.0,-917.0,317.0,-8.0,7.0,4.0,157,127,133,134,134
2025-02-26 14:25:54.509,-313.0,-920.0,308.0,-7.0,7.0,4.0,160,128,135,135,135
2025-02-26 14:25:54.513,-309.0,-921.0,302.0,-5.0,8.0,4.0,155,125,131,132,132
