timestamp,ax,ay,az,gx,gy,gz,flex1,flex2,flex3,flex4,flex5,emg1,emg2,emg3
2025-02-25 18:05:05.706,-445.0,-694.0,618.0,-1.0,-1.0,-1.0,141,113,105,122,113
2025-02-25 18:05:05.709,-441.0,-689.0,623.0,0.0,0.0,-1.0,140,113,105,122,113
2025-02-25 18:05:05.712,-445.0,-690.0,621.0,1.0,0.0,-1.0,142,113,106,123,115
2025-02-25 18:05:05.714,-445.0,-693.0,615.0,0.0,0.0,-1.0,142,113,104,121,112
2025-02-25 18:05:05.717,-447.0,-689.0,622.0,0.0,0.0,-1.0,140,113,104,121,111
2025-02-25 18:05:05.719,-453.0,-692.0,621.0,-1.0,0.0,-1.0,141,114,105,122,114
2025-02-25 18:05:05.721,-460.0,-690.0,620.0,-1.0,0.0,-1.0,140,113,104,121,113
2025-02-25 18:05:05.724,-453.0,-690.0,615.0,-1.0,0.0,0.0,139,112,104,121,112
2025-02-25 18:05:05.726,-449.0,-684.0,619.0,-1.0,0.0,-1.0,140,113,105,123,114
2025-02-25 18:05:05.728,-456.0,-683.0,614.0,-1.0,1.0,0.0,140,114,104,122,114
2025-02-25 18:05:05.730,-454.0,-681.0,615.0,-2.0,0.0,0.0,140,113,105,123,112
2025-02-25 18:05:05.733,-453.0,-682.0,613.0,-2.0,0.0,-1.0,141,114,106,122,115
2025-02-25 18:05:05.735,-452.0,-683.0,608.0,-2.0,0.0,-1.0,137,114,106,122,114
2025-02-25 18:05:05.738,-452.0,-677.0,610.0,-3.0,0.0,-1.0,141,112,105,122,114
2025-02-25 18:05:05.740,-452.0,-681.0,608.0,-3.0,0.0,-1.0,141,113,105,122,114
2025-02-25 18:05:05.743,-451.0,-682.0,608.0,-3.0,0.0,-1.0,141,112,104,122,114
2025-02-25 18:05:05.745,-451.0,-682.0,606.0,-2.0,0.0,-1.0,140,113,106,124,113
2025-02-25 18:05:05.747,-451.0,-684.0,605.0,-2.0,0.0,-2.0,140,113,106,122,113
2025-02-25 18:05:05.750,-450.0,-683.0,606.0,-3.0,0.0,-2.0,140,113,104,121,113
2025-02-25 18:05:05.752,-452.0,-687.0,608.0,-2.0,0.0,-2.0,140,113,105,122,114
2025-02-25 18:05:05.755,-449.0,-687.0,607.0,-2.0,0.0,-2.0,141,114,105,122,114
2025-02-25 18:05:05.757,-450.0,-689.0,611.0,-2.0,0.0,-2.0,139,112,104,122,112
2025-02-25 18:05:05.759,-453.0,-689.0,609.0,-2.0,0.0,-2.0,140,112,105,122,114
2025-02-25 18:05:05.762,-448.0,-688.0,606.0,-2.0,0.0,-2.0,141,113,106,123,114
2025-02-25 18:05:05.764,-446.0,-684.0,605.0,-2.0,0.0,-1.0,140,114,104,122,112
2025-02-25 18:05:05.766,-448.0,-686.0,609.0,-2.0,0.0,-2.0,140,114,105,122,114
2025-02-25 18:05:05.769,-444.0,-687.0,608.0,-2.0,0.0,-1.0,141,114,105,121,115
2025-02-25 18:05:05.772,-448.0,-692.0,606.0,-2.0,0.0,-1.0,141,114,105,122,113
2025-02-25 18:05:05.774,-451.0,-695.0,605.0,-2.0,0.0,-1.0,139,113,105,121,113
2025-02-25 18:05:05.776,-445.0,-693.0,606.0,-2.0,0.0,-1.0,140,112,105,123,114
2025-02-25 18:05:05.778,-453.0,-694.0,599.0,-2.0,0.0,-1.0,141,119,105,123,114
2025-02-25 18:05:05.781,-449.0,-691.0,599.0,-1.0,0.0,-1.0,142,112,104,121,113
2025-02-25 18:05:05.783,-453.0,-696.0,608.0,-3.0,0.0,-1.0,141,112,104,120,113
2025-02-25 18:05:05.786,-448.0,-692.0,598.0,-2.0,1.0,-1.0,141,114,105,122,114
2025-02-25 18:05:05.789,-456.0,-696.0,604.0,0.0,0.0,-1.0,144,114,105,123,114
2025-02-25 18:05:05.792,-456.0,-695.0,599.0,-1.0,0.0,-1.0,139,113,105,121,113
2025-02-25 18:05:05.794,-455.0,-701.0,594.0,-1.0,0.0,-1.0,139,114,104,121,111
2025-02-25 18:05:05.796,-457.0,-702.0,585.0,-2.0,-1.0,-1.0,140,113,106,123,114
2025-02-25 18:05:05.798,-455.0,-698.0,612.0,-2.0,-1.0,0.0,139,113,105,121,114
2025-02-25 18:05:05.801,-457.0,-692.0,603.0,0.0,0.0,-1.0,140,113,104,120,113
2025-02-25 18:05:05.803,-456.0,-695.0,601.0,0.0,-1.0,0.0,140,110,104,121,112
2025-02-25 18:05:05.806,-451.0,-689.0,615.0,0.0,1.0,-1.0,141,115,105,122,113
2025-02-25 18:05:05.808,-451.0,-690.0,601.0,1.0,0.0,-1.0,142,114,105,123,113
2025-02-25 18:05:05.810,-454.0,-687.0,606.0,-1.0,0.0,0.0,140,112,103,121,113
2025-02-25 18:05:05.813,-451.0,-679.0,604.0,-1.0,0.0,0.0,141,114,106,123,115
2025-02-25 18:05:05.815,-447.0,-685.0,604.0,-1.0,0.0,0.0,140,113,106,122,113
2025-02-25 18:05:05.817,-448.0,-687.0,608.0,-2.0,0.0,0.0,140,111,104,121,113
2025-02-25 18:05:05.819,-448.0,-689.0,610.0,-2.0,0.0,0.0,139,112,104,121,112
2025-02-25 18:05:05.822,-439.0,-685.0,613.0,-1.0,0.0,0.0,141,113,103,122,113
2025-02-25 18:05:05.824,-447.0,-681.0,613.0,-2.0,1.0,0.0,140,113,105,122,113
2025-02-25 18:05:05.826,-443.0,-680.0,605.0,-2.0,0.0,-1.0,139,111,104,121,113
2025-02-25 18:05:05.829,-447.0,-678.0,613.0,-1.0,0.0,0.0,140,114,107,124,113
2025-02-25 18:05:05.831,-453.0,-675.0,610.0,-2.0,0.0,-1.0,140,113,105,122,114
2025-02-25 18:05:05.833,-448.0,-676.0,611.0,-2.0,0.0,-1.0,139,113,104,121,113
2025-02-25 18:05:05.836,-455.0,-668.0,604.0,-2.0,0.0,-1.0,138,113,105,123,112
2025-02-25 18:05:05.839,-453.0,-660.0,599.0,-1.0,0.0,-2.0,141,114,105,122,114
2025-02-25 18:05:05.842,-458.0,-658.0,598.0,-1.0,-1.0,-1.0,140,112,107,123,114
2025-02-25 18:05:05.844,-460.0,-659.0,601.0,-2.0,-1.0,-3.0,141,114,105,121,113
2025-02-25 18:05:05.847,-459.0,-663.0,597.0,-2.0,-1.0,-3.0,140,113,104,121,113
2025-02-25 18:05:05.849,-464.0,-664.0,595.0,-2.0,-1.0,-3.0,141,113,106,123,114
2025-02-25 18:05:05.852,-460.0,-662.0,597.0,-2.0,-1.0,-3.0,140,113,106,123,114
2025-02-25 18:05:05.854,-465.0,-667.0,590.0,-1.0,0.0,-4.0,141,114,105,123,113
2025-02-25 18:05:05.856,-460.0,-669.0,592.0,-1.0,-1.0,-3.0,139,113,106,121,113
2025-02-25 18:05:05.859,-465.0,-669.0,598.0,0.0,0.0,-4.0,140,112,103,120,112
2025-02-25 18:05:05.861,-463.0,-668.0,591.0,0.0,-1.0,-5.0,140,113,104,121,113
2025-02-25 18:05:05.863,-461.0,-665.0,592.0,0.0,-1.0,-5.0,141,113,104,122,114
2025-02-25 18:05:05.866,-459.0,-668.0,590.0,1.0,-1.0,-6.0,141,113,106,121,113
2025-02-25 18:05:05.868,-459.0,-668.0,599.0,1.0,0.0,-6.0,139,114,104,120,113
2025-02-25 18:05:05.875,-458.0,-668.0,601.0,1.0,-1.0,-6.0,141,112,105,121,114
2025-02-25 18:05:05.879,-447.0,-669.0,594.0,0.0,-2.0,-7.0,140,113,105,122,115
2025-02-25 18:05:05.884,-444.0,-667.0,588.0,1.0,-1.0,-8.0,141,112,104,121,112
2025-02-25 18:05:05.887,-444.0,-680.0,582.0,0.0,-1.0,-7.0,140,114,106,122,114
2025-02-25 18:05:05.895,-438.0,-675.0,640.0,2.0,-1.0,-8.0,140,113,105,122,113
2025-02-25 18:05:05.899,-439.0,-706.0,614.0,1.0,-1.0,-8.0,141,112,105,122,113
2025-02-25 18:05:05.903,-443.0,-684.0,607.0,0.0,-1.0,-7.0,140,113,104,122,113
2025-02-25 18:05:05.908,-436.0,-691.0,624.0,-1.0,-1.0,-8.0,141,114,105,122,113
2025-02-25 18:05:05.915,-443.0,-720.0,587.0,1.0,-1.0,-7.0,141,114,105,123,114
2025-02-25 18:05:05.919,-439.0,-705.0,603.0,-1.0,-1.0,-7.0,141,112,107,123,112
2025-02-25 18:05:05.924,-436.0,-702.0,619.0,0.0,-2.0,-6.0,140,114,105,121,113
2025-02-25 18:05:05.928,-444.0,-715.0,625.0,0.0,-2.0,-6.0,140,113,105,121,113
2025-02-25 18:05:05.936,-442.0,-711.0,611.0,0.0,-1.0,-6.0,141,113,105,122,113
2025-02-25 18:05:05.940,-443.0,-719.0,615.0,0.0,-1.0,-6.0,140,113,107,123,113
2025-02-25 18:05:05.944,-440.0,-726.0,614.0,-1.0,-1.0,-5.0,140,113,105,121,114
2025-02-25 18:05:05.949,-441.0,-722.0,617.0,-1.0,-1.0,-5.0,141,113,105,120,115
2025-02-25 18:05:05.956,-443.0,-716.0,605.0,-2.0,-1.0,-5.0,140,113,105,123,113
2025-02-25 18:05:05.960,-428.0,-725.0,619.0,0.0,-1.0,-4.0,140,113,106,123,113
2025-02-25 18:05:05.965,-435.0,-730.0,619.0,0.0,0.0,-5.0,140,113,106,121,112
2025-02-25 18:05:05.972,-430.0,-724.0,616.0,-1.0,0.0,-4.0,140,113,105,122,113
2025-02-25 18:05:05.977,-429.0,-725.0,612.0,0.0,1.0,-3.0,140,113,106,122,113
2025-02-25 18:05:05.981,-427.0,-731.0,618.0,1.0,1.0,-2.0,140,112,105,122,113
2025-02-25 18:05:05.986,-432.0,-727.0,618.0,0.0,1.0,-2.0,141,113,104,119,112
2025-02-25 18:05:05.990,-430.0,-723.0,613.0,0.0,2.0,-2.0,141,112,103,121,113
2025-02-25 18:05:05.997,-432.0,-724.0,610.0,0.0,2.0,-1.0,140,113,106,122,113
2025-02-25 18:05:06.002,-432.0,-720.0,608.0,0.0,2.0,-1.0,139,112,105,122,113
2025-02-25 18:05:06.006,-432.0,-720.0,614.0,-1.0,2.0,0.0,141,112,105,121,112
2025-02-25 18:05:06.010,-430.0,-714.0,600.0,0.0,2.0,0.0,141,113,105,123,113
2025-02-25 18:05:06.018,-428.0,-712.0,612.0,0.0,1.0,0.0,139,112,105,121,113
2025-02-25 18:05:06.022,-423.0,-705.0,606.0,1.0,1.0,1.0,140,112,104,120,112
2025-02-25 18:05:06.026,-422.0,-701.0,602.0,1.0,0.0,1.0,141,114,106,123,114
2025-02-25 18:05:06.031,-412.0,-697.0,602.0,1.0,1.0,1.0,141,113,105,122,114
2025-02-25 18:05:06.035,-416.0,-694.0,597.0,1.0,1.0,1.0,140,112,105,122,112
2025-02-25 18:05:06.042,-422.0,-694.0,601.0,1.0,1.0,1.0,142,114,105,123,114
2025-02-25 18:05:06.047,-426.0,-694.0,602.0,1.0,1.0,1.0,140,113,105,122,114
2025-02-25 18:05:06.051,-431.0,-697.0,600.0,0.0,1.0,1.0,140,112,104,120,113
2025-02-25 18:05:06.055,-439.0,-693.0,599.0,-1.0,0.0,1.0,142,112,106,120,114
2025-02-25 18:05:06.063,-439.0,-697.0,599.0,-3.0,2.0,1.0,142,114,105,122,113
2025-02-25 18:05:06.067,-441.0,-692.0,590.0,-2.0,2.0,1.0,141,113,104,122,113
2025-02-25 18:05:06.072,-457.0,-701.0,596.0,-2.0,1.0,1.0,140,111,104,121,112
2025-02-25 18:05:06.076,-452.0,-697.0,614.0,-2.0,2.0,1.0,141,114,105,123,113
2025-02-25 18:05:06.080,-467.0,-706.0,600.0,-1.0,0.0,2.0,141,114,105,123,114
2025-02-25 18:05:06.087,-465.0,-709.0,603.0,-3.0,0.0,2.0,139,112,104,120,112
2025-02-25 18:05:06.091,-470.0,-709.0,607.0,-2.0,0.0,2.0,140,113,105,121,113
2025-02-25 18:05:06.096,-471.0,-718.0,605.0,-2.0,-1.0,3.0,142,113,105,121,114
2025-02-25 18:05:06.100,-475.0,-709.0,602.0,-2.0,-1.0,3.0,141,113,105,121,113
2025-02-25 18:05:06.107,-473.0,-709.0,608.0,-2.0,0.0,3.0,137,112,105,121,112
2025-02-25 18:05:06.112,-466.0,-706.0,608.0,-1.0,1.0,3.0,140,113,105,122,113
2025-02-25 18:05:06.117,-475.0,-703.0,606.0,-1.0,1.0,3.0,141,114,107,121,113
2025-02-25 18:05:06.120,-469.0,-697.0,603.0,-2.0,0.0,4.0,141,113,105,120,112
2025-02-25 18:05:06.128,-473.0,-701.0,617.0,-2.0,2.0,4.0,142,114,105,122,113
2025-02-25 18:05:06.132,-474.0,-709.0,607.0,-4.0,0.0,4.0,140,113,106,122,113
2025-02-25 18:05:06.136,-474.0,-705.0,610.0,-4.0,0.0,5.0,141,112,105,121,112
2025-02-25 18:05:06.141,-469.0,-696.0,616.0,-5.0,0.0,4.0,139,112,105,121,112
2025-02-25 18:05:06.149,-458.0,-689.0,624.0,-4.0,1.0,4.0,141,112,106,122,113
2025-02-25 18:05:06.153,-477.0,-703.0,616.0,-4.0,1.0,4.0,139,112,105,122,113
2025-02-25 18:05:06.157,-456.0,-694.0,612.0,-4.0,1.0,4.0,139,112,105,121,112
2025-02-25 18:05:06.161,-471.0,-693.0,598.0,-5.0,1.0,4.0,139,114,105,122,113
2025-02-25 18:05:06.169,-463.0,-684.0,608.0,-5.0,1.0,4.0,141,113,105,122,114
2025-02-25 18:05:06.173,-469.0,-688.0,603.0,-5.0,1.0,4.0,141,112,104,122,112
2025-02-25 18:05:06.178,-462.0,-687.0,602.0,-4.0,1.0,4.0,139,112,105,121,113
2025-02-25 18:05:06.182,-467.0,-687.0,596.0,-4.0,1.0,3.0,142,114,106,123,113
2025-02-25 18:05:06.187,-461.0,-685.0,597.0,-4.0,1.0,3.0,140,112,105,121,114
2025-02-25 18:05:06.194,-461.0,-681.0,589.0,-4.0,1.0,3.0,139,112,105,122,113
2025-02-25 18:05:06.198,-457.0,-685.0,596.0,-4.0,0.0,3.0,140,111,105,121,113
2025-02-25 18:05:06.203,-467.0,-685.0,595.0,-3.0,1.0,3.0,140,112,105,122,113
2025-02-25 18:05:06.207,-459.0,-681.0,595.0,-3.0,0.0,3.0,141,111,105,122,114
2025-02-25 18:05:06.214,-451.0,-674.0,590.0,-3.0,0.0,3.0,139,112,106,121,112
2025-02-25 18:05:06.219,-462.0,-675.0,590.0,-4.0,0.0,3.0,141,114,106,122,114
2025-02-25 18:05:06.223,-459.0,-678.0,600.0,-3.0,0.0,2.0,142,114,106,122,114
2025-02-25 18:05:06.228,-467.0,-680.0,599.0,-4.0,-1.0,1.0,139,111,104,121,113
2025-02-25 18:05:06.235,-458.0,-675.0,601.0,-2.0,0.0,1.0,139,111,104,120,112
2025-02-25 18:05:06.238,-464.0,-669.0,590.0,-3.0,-1.0,1.0,141,113,105,121,114
2025-02-25 18:05:06.243,-454.0,-660.0,604.0,-3.0,-1.0,0.0,140,111,105,122,113
2025-02-25 18:05:06.247,-461.0,-663.0,590.0,-4.0,-2.0,0.0,140,111,104,121,112
2025-02-25 18:05:06.255,-454.0,-662.0,596.0,-4.0,-2.0,0.0,140,112,105,122,113
2025-02-25 18:05:06.259,-463.0,-656.0,590.0,-4.0,-2.0,-1.0,140,112,105,122,113
2025-02-25 18:05:06.263,-461.0,-660.0,595.0,-4.0,-2.0,-1.0,141,113,106,122,114
2025-02-25 18:05:06.268,-460.0,-658.0,588.0,-5.0,-1.0,-2.0,140,111,105,122,114
2025-02-25 18:05:06.275,-459.0,-660.0,592.0,-4.0,-4.0,-2.0,140,112,104,121,113
2025-02-25 18:05:06.279,-453.0,-668.0,606.0,-6.0,-4.0,-3.0,136,113,106,121,114
2025-02-25 18:05:06.284,-447.0,-671.0,585.0,-5.0,-5.0,-2.0,140,114,107,121,113
2025-02-25 18:05:06.292,-436.0,-675.0,608.0,-5.0,-5.0,-3.0,141,113,104,121,114
2025-02-25 18:05:06.296,-445.0,-684.0,600.0,-5.0,-6.0,-3.0,140,113,106,120,112
2025-02-25 18:05:06.300,-442.0,-685.0,612.0,-6.0,-6.0,-3.0,141,113,109,123,114
2025-02-25 18:05:06.305,-429.0,-684.0,614.0,-5.0,-5.0,-3.0,141,112,105,121,114
2025-02-25 18:05:06.312,-435.0,-686.0,611.0,-5.0,-5.0,-4.0,140,114,104,122,112
2025-02-25 18:05:06.317,-435.0,-693.0,622.0,-5.0,-5.0,-3.0,138,111,102,122,112
2025-02-25 18:05:06.321,-443.0,-698.0,610.0,-6.0,-5.0,-4.0,138,113,105,121,113
2025-02-25 18:05:06.325,-439.0,-704.0,620.0,-7.0,-5.0,-3.0,139,112,105,123,112
2025-02-25 18:05:06.333,-438.0,-702.0,622.0,-7.0,-4.0,-3.0,140,113,106,121,113
2025-02-25 18:05:06.337,-441.0,-706.0,637.0,-8.0,-3.0,-3.0,140,111,105,120,113
2025-02-25 18:05:06.342,-443.0,-716.0,631.0,-7.0,-4.0,-3.0,140,112,105,121,113
2025-02-25 18:05:06.349,-442.0,-715.0,610.0,-7.0,-3.0,-3.0,140,113,104,123,114
2025-02-25 18:05:06.354,-445.0,-716.0,615.0,-6.0,-3.0,-3.0,139,112,106,121,114
2025-02-25 18:05:06.358,-446.0,-720.0,622.0,-7.0,-3.0,-3.0,142,112,99,122,113
2025-02-25 18:05:06.362,-446.0,-722.0,617.0,-7.0,-3.0,-2.0,139,111,104,122,113
2025-02-25 18:05:06.370,-452.0,-725.0,616.0,-7.0,-3.0,-2.0,143,114,105,122,112
2025-02-25 18:05:06.374,-453.0,-725.0,611.0,-6.0,-4.0,-2.0,140,113,105,121,113
2025-02-25 18:05:06.378,-448.0,-723.0,608.0,-5.0,-4.0,-2.0,140,113,106,122,112
2025-02-25 18:05:06.386,-444.0,-714.0,609.0,-6.0,-4.0,-2.0,141,110,105,120,112
2025-02-25 18:05:06.390,-441.0,-712.0,604.0,-5.0,-3.0,-1.0,139,111,107,121,113
2025-02-25 18:05:06.394,-444.0,-713.0,603.0,-5.0,-3.0,-1.0,142,112,105,122,113
2025-02-25 18:05:06.399,-449.0,-715.0,602.0,-4.0,-4.0,-1.0,137,112,105,125,114
2025-02-25 18:05:06.406,-447.0,-711.0,598.0,-4.0,-4.0,-1.0,140,111,104,122,112
2025-02-25 18:05:06.411,-442.0,-709.0,598.0,-4.0,-4.0,-1.0,138,111,101,122,112
2025-02-25 18:05:06.415,-443.0,-712.0,590.0,-4.0,-5.0,-1.0,141,112,104,122,114
2025-02-25 18:05:06.419,-442.0,-709.0,590.0,-3.0,-6.0,-2.0,141,111,106,122,114
2025-02-25 18:05:06.427,-442.0,-704.0,592.0,-3.0,-6.0,-2.0,140,112,104,122,114
2025-02-25 18:05:06.431,-439.0,-699.0,585.0,-3.0,-7.0,-3.0,139,112,104,121,112
2025-02-25 18:05:06.435,-434.0,-696.0,581.0,-2.0,-8.0,-3.0,139,111,105,121,109
2025-02-25 18:05:06.443,-425.0,-688.0,579.0,-2.0,-9.0,-2.0,141,113,106,120,114
2025-02-25 18:05:06.447,-425.0,-682.0,576.0,-2.0,-9.0,-3.0,141,113,105,122,113
2025-02-25 18:05:06.452,-428.0,-683.0,582.0,-3.0,-9.0,-3.0,140,113,104,121,112
2025-02-25 18:05:06.456,-423.0,-689.0,589.0,-3.0,-11.0,-3.0,140,112,105,121,113
2025-02-25 18:05:06.464,-421.0,-690.0,592.0,-3.0,-11.0,-3.0,141,113,107,122,113
2025-02-25 18:05:06.469,-424.0,-690.0,593.0,-2.0,-12.0,-4.0,141,114,105,123,114
2025-02-25 18:05:06.473,-422.0,-694.0,595.0,-2.0,-12.0,-4.0,139,112,103,120,113
2025-02-25 18:05:06.481,-425.0,-698.0,599.0,-2.0,-12.0,-4.0,140,111,105,122,114
2025-02-25 18:05:06.485,-425.0,-692.0,603.0,-2.0,-13.0,-5.0,139,111,105,122,112
2025-02-25 18:05:06.489,-432.0,-692.0,597.0,-3.0,-12.0,-4.0,140,111,106,122,115
2025-02-25 18:05:06.493,-442.0,-686.0,599.0,-4.0,-11.0,-4.0,141,112,106,122,114
2025-02-25 18:05:06.501,-457.0,-692.0,600.0,-5.0,-10.0,-4.0,139,112,104,120,114
2025-02-25 18:05:06.505,-459.0,-697.0,603.0,-7.0,-10.0,-3.0,139,112,105,121,113
2025-02-25 18:05:06.509,-457.0,-696.0,600.0,-8.0,-12.0,-3.0,140,111,101,122,112
2025-02-25 18:05:06.517,-470.0,-690.0,596.0,-8.0,-11.0,-3.0,142,114,105,123,112
2025-02-25 18:05:06.521,-480.0,-700.0,597.0,-8.0,-13.0,-3.0,142,113,105,123,114
2025-02-25 18:05:06.526,-495.0,-710.0,588.0,-10.0,-14.0,-2.0,140,113,106,121,113
2025-02-25 18:05:06.533,-494.0,-713.0,589.0,-10.0,-16.0,-1.0,139,111,105,122,112
2025-02-25 18:05:06.538,-501.0,-726.0,586.0,-9.0,-17.0,-1.0,139,111,105,122,113
2025-02-25 18:05:06.542,-489.0,-723.0,594.0,-11.0,-18.0,-1.0,139,112,104,120,112
2025-02-25 18:05:06.550,-499.0,-717.0,581.0,-12.0,-19.0,-2.0,140,113,105,122,114
2025-02-25 18:05:06.554,-487.0,-712.0,590.0,-12.0,-18.0,-1.0,140,113,106,123,114
2025-02-25 18:05:06.558,-468.0,-707.0,581.0,-12.0,-18.0,-1.0,141,113,105,122,115
2025-02-25 18:05:06.566,-464.0,-711.0,582.0,-12.0,-18.0,-1.0,140,112,105,122,113
2025-02-25 18:05:06.570,-455.0,-703.0,586.0,-12.0,-18.0,-2.0,135,113,105,124,113
2025-02-25 18:05:06.575,-439.0,-701.0,587.0,-12.0,-17.0,-2.0,142,114,103,121,113
2025-02-25 18:05:06.579,-423.0,-697.0,591.0,-13.0,-15.0,-2.0,141,112,107,123,115
2025-02-25 18:05:06.587,-412.0,-692.0,594.0,-12.0,-12.0,-1.0,137,113,105,124,114
2025-02-25 18:05:06.591,-412.0,-692.0,600.0,-12.0,-9.0,-1.0,141,114,106,121,114
2025-02-25 18:05:06.595,-410.0,-693.0,606.0,-12.0,-7.0,-1.0,140,113,104,121,114
2025-02-25 18:05:06.603,-403.0,-698.0,600.0,-10.0,-5.0,-1.0,141,112,105,121,115
2025-02-25 18:05:06.607,-417.0,-701.0,598.0,-8.0,-4.0,-1.0,141,114,107,121,115
2025-02-25 18:05:06.612,-417.0,-709.0,594.0,-6.0,-2.0,-2.0,140,113,105,122,115
2025-02-25 18:05:06.616,-413.0,-709.0,603.0,-5.0,-1.0,-1.0,144,112,105,122,114
2025-02-25 18:05:06.624,-411.0,-714.0,589.0,-2.0,-2.0,0.0,141,113,105,122,113
2025-02-25 18:05:06.628,-421.0,-722.0,600.0,-4.0,-3.0,-1.0,142,112,105,121,114
2025-02-25 18:05:06.633,-411.0,-705.0,595.0,-1.0,-3.0,0.0,142,113,105,122,114
2025-02-25 18:05:06.640,-409.0,-706.0,605.0,0.0,-2.0,-1.0,143,113,106,124,114
2025-02-25 18:05:06.644,-410.0,-695.0,606.0,1.0,-2.0,-1.0,141,113,103,121,114
2025-02-25 18:05:06.648,-417.0,-693.0,600.0,1.0,-1.0,-1.0,140,113,105,122,114
2025-02-25 18:05:06.653,-418.0,-694.0,607.0,3.0,-1.0,-1.0,141,114,105,122,114
2025-02-25 18:05:06.660,-424.0,-698.0,607.0,0.0,-2.0,-2.0,142,113,105,123,114
2025-02-25 18:05:06.664,-420.0,-688.0,601.0,-2.0,-2.0,-2.0,140,112,103,120,115
2025-02-25 18:05:06.669,-415.0,-688.0,635.0,-3.0,-1.0,-3.0,143,113,105,115,113
2025-02-25 18:05:06.673,-412.0,-692.0,606.0,-4.0,1.0,-3.0,142,112,105,122,116
2025-02-25 18:05:06.681,-413.0,-700.0,594.0,-5.0,1.0,-4.0,149,112,107,124,114
2025-02-25 18:05:06.685,-402.0,-723.0,584.0,-8.0,-3.0,-3.0,141,112,104,121,114
2025-02-25 18:05:06.690,-423.0,-714.0,589.0,-17.0,-7.0,-3.0,137,112,104,119,114
2025-02-25 18:05:06.695,-411.0,-712.0,596.0,-21.0,-8.0,-3.0,140,114,104,122,115
2025-02-25 18:05:06.702,-417.0,-716.0,604.0,-17.0,-6.0,-3.0,143,114,106,122,114
2025-02-25 18:05:06.706,-410.0,-701.0,623.0,-16.0,0.0,-3.0,141,113,105,121,114
2025-02-25 18:05:06.711,-409.0,-720.0,610.0,-13.0,-1.0,-4.0,140,112,104,121,114
2025-02-25 18:05:06.718,-409.0,-711.0,630.0,-11.0,0.0,-3.0,142,112,103,121,113
2025-02-25 18:05:06.723,-409.0,-725.0,559.0,-19.0,-5.0,-2.0,140,112,105,122,114
2025-02-25 18:05:06.727,-404.0,-711.0,586.0,-23.0,-4.0,-3.0,135,111,104,122,114
2025-02-25 18:05:06.735,-394.0,-717.0,587.0,-25.0,-6.0,-4.0,143,114,106,122,113
2025-02-25 18:05:06.739,-389.0,-718.0,586.0,-25.0,-6.0,-3.0,141,112,104,122,113
2025-02-25 18:05:06.743,-405.0,-735.0,607.0,-20.0,-6.0,-3.0,142,113,104,122,115
2025-02-25 18:05:06.747,-387.0,-733.0,590.0,-18.0,-4.0,-4.0,141,113,106,122,114
2025-02-25 18:05:06.755,-397.0,-734.0,589.0,-14.0,-4.0,-4.0,142,112,104,121,114
2025-02-25 18:05:06.759,-389.0,-733.0,625.0,-13.0,-4.0,-4.0,141,112,102,123,114
2025-02-25 18:05:06.764,-392.0,-727.0,600.0,-12.0,-2.0,-4.0,141,111,104,122,113
2025-02-25 18:05:06.771,-396.0,-741.0,574.0,-10.0,-2.0,-4.0,144,112,103,121,113
2025-02-25 18:05:06.776,-391.0,-741.0,586.0,-11.0,-1.0,-4.0,143,115,107,123,116
2025-02-25 18:05:06.780,-413.0,-736.0,563.0,-7.0,-3.0,-4.0,141,112,109,120,115
2025-02-25 18:05:06.784,-403.0,-733.0,583.0,-7.0,-4.0,-3.0,140,112,106,122,115
2025-02-25 18:05:06.791,-412.0,-746.0,564.0,-5.0,-4.0,-3.0,138,111,104,122,113
2025-02-25 18:05:06.796,-413.0,-734.0,574.0,-4.0,-3.0,-3.0,141,113,105,123,115
2025-02-25 18:05:06.800,-413.0,-741.0,568.0,-1.0,-4.0,-3.0,141,114,106,123,115
2025-02-25 18:05:06.808,-413.0,-749.0,577.0,-3.0,-5.0,-2.0,141,112,104,122,115
2025-02-25 18:05:06.812,-428.0,-743.0,561.0,-2.0,-5.0,-3.0,141,112,104,121,113
2025-02-25 18:05:06.816,-423.0,-743.0,556.0,-1.0,-4.0,-3.0,141,112,104,122,113
2025-02-25 18:05:06.821,-432.0,-761.0,566.0,-2.0,-7.0,-3.0,141,112,105,122,113
2025-02-25 18:05:06.828,-427.0,-731.0,589.0,0.0,-7.0,-1.0,145,113,105,123,115
2025-02-25 18:05:06.832,-427.0,-736.0,541.0,-2.0,-7.0,-2.0,141,111,103,122,115
2025-02-25 18:05:06.837,-415.0,-740.0,574.0,-1.0,-5.0,-2.0,140,111,104,122,115
2025-02-25 18:05:06.841,-445.0,-759.0,564.0,-7.0,-9.0,-1.0,142,114,106,123,115
2025-02-25 18:05:06.849,-433.0,-738.0,575.0,-7.0,-9.0,-1.0,142,113,104,122,114
2025-02-25 18:05:06.853,-439.0,-739.0,562.0,-7.0,-8.0,-1.0,142,112,106,123,114
2025-02-25 18:05:06.858,-427.0,-725.0,561.0,-10.0,-8.0,0.0,144,112,103,122,114
2025-02-25 18:05:06.866,-439.0,-737.0,565.0,-11.0,-8.0,0.0,143,114,108,125,116
2025-02-25 18:05:06.870,-426.0,-735.0,588.0,-11.0,-9.0,0.0,142,113,105,123,117
2025-02-25 18:05:06.874,-421.0,-736.0,578.0,-10.0,-10.0,0.0,143,114,106,123,115
2025-02-25 18:05:06.878,-416.0,-722.0,581.0,-12.0,-10.0,0.0,141,113,102,123,115
2025-02-25 18:05:06.886,-416.0,-726.0,604.0,-14.0,-9.0,-1.0,141,112,106,123,115
2025-02-25 18:05:06.890,-409.0,-733.0,593.0,-11.0,-9.0,-1.0,144,114,104,122,116
2025-02-25 18:05:06.894,-415.0,-743.0,577.0,-14.0,-11.0,-1.0,142,114,106,124,116
2025-02-25 18:05:06.902,-395.0,-738.0,580.0,-12.0,-10.0,-1.0,143,115,104,123,116
2025-02-25 18:05:06.906,-403.0,-750.0,629.0,-10.0,-10.0,-2.0,141,112,104,123,120
2025-02-25 18:05:06.911,-399.0,-739.0,607.0,-12.0,-7.0,-2.0,143,113,105,123,114
2025-02-25 18:05:06.919,-409.0,-749.0,593.0,-6.0,-3.0,-2.0,141,110,105,123,115
2025-02-25 18:05:06.923,-420.0,-757.0,584.0,-9.0,-4.0,-2.0,145,115,109,127,117
2025-02-25 18:05:06.927,-410.0,-757.0,603.0,-8.0,-3.0,-1.0,146,117,110,127,119
2025-02-25 18:05:06.932,-413.0,-771.0,591.0,-9.0,-4.0,-1.0,155,126,118,135,129
2025-02-25 18:05:06.939,-422.0,-753.0,622.0,-13.0,-3.0,0.0,155,125,116,136,128
2025-02-25 18:05:06.943,-414.0,-755.0,647.0,-12.0,-1.0,0.0,158,127,119,138,131
2025-02-25 18:05:06.948,-416.0,-761.0,610.0,-7.0,-1.0,0.0,154,126,120,136,128
2025-02-25 18:05:06.952,-419.0,-759.0,573.0,-5.0,-3.0,0.0,153,124,116,137,126
2025-02-25 18:05:06.959,-411.0,-765.0,610.0,-5.0,-3.0,0.0,153,121,116,135,126
2025-02-25 18:05:06.963,-406.0,-781.0,551.0,-1.0,-4.0,0.0,158,127,118,137,129
2025-02-25 18:05:06.968,-417.0,-791.0,605.0,-6.0,-5.0,1.0,157,127,117,137,127
2025-02-25 18:05:06.976,-395.0,-770.0,610.0,-8.0,-2.0,1.0,153,124,115,135,127
2025-02-25 18:05:06.981,-390.0,-768.0,615.0,-5.0,-4.0,2.0,154,125,117,134,127
2025-02-25 18:05:06.984,-381.0,-779.0,581.0,-8.0,-3.0,2.0,156,128,119,139,131
2025-02-25 18:05:06.989,-406.0,-776.0,567.0,-11.0,-4.0,3.0,154,125,113,136,128
2025-02-25 18:05:06.996,-374.0,-761.0,618.0,-18.0,-1.0,4.0,154,124,115,132,126
2025-02-25 18:05:07.000,-398.0,-753.0,568.0,-16.0,0.0,4.0,149,121,112,130,124
2025-02-25 18:05:07.005,-383.0,-761.0,563.0,-22.0,-3.0,4.0,156,127,118,136,128
2025-02-25 18:05:07.009,-388.0,-754.0,546.0,-20.0,-6.0,5.0,154,119,117,135,120
2025-02-25 18:05:07.016,-395.0,-756.0,540.0,-22.0,-8.0,5.0,154,124,117,135,125
2025-02-25 18:05:07.021,-398.0,-722.0,530.0,-23.0,-7.0,4.0,153,123,112,133,125
2025-02-25 18:05:07.025,-375.0,-733.0,532.0,-21.0,-5.0,4.0,150,122,114,133,125
2025-02-25 18:05:07.029,-380.0,-733.0,549.0,-17.0,-2.0,4.0,153,125,116,135,126
2025-02-25 18:05:07.038,-385.0,-731.0,553.0,-17.0,-1.0,3.0,155,125,115,134,125
2025-02-25 18:05:07.041,-395.0,-732.0,525.0,-20.0,-2.0,3.0,152,122,115,134,126
2025-02-25 18:05:07.046,-393.0,-742.0,541.0,-22.0,-3.0,3.0,151,124,115,133,125
2025-02-25 18:05:07.054,-388.0,-744.0,560.0,-23.0,-4.0,3.0,154,121,117,134,126
2025-02-25 18:05:07.058,-401.0,-746.0,572.0,-22.0,-5.0,4.0,154,125,115,135,126
2025-02-25 18:05:07.062,-403.0,-766.0,535.0,-20.0,-4.0,4.0,155,127,117,135,127
2025-02-25 18:05:07.066,-405.0,-766.0,534.0,-17.0,-3.0,4.0,150,121,115,132,124
2025-02-25 18:05:07.074,-407.0,-770.0,580.0,-15.0,-3.0,4.0,152,121,114,135,126
2025-02-25 18:05:07.078,-407.0,-759.0,548.0,-13.0,-3.0,4.0,151,123,115,134,127
2025-02-25 18:05:07.083,-415.0,-766.0,542.0,-12.0,-3.0,5.0,149,122,115,132,123
2025-02-25 18:05:07.090,-425.0,-764.0,543.0,-15.0,-3.0,5.0,149,121,112,132,124
2025-02-25 18:05:07.095,-421.0,-764.0,544.0,-18.0,-5.0,5.0,149,119,111,131,123
2025-02-25 18:05:07.099,-417.0,-765.0,537.0,-19.0,-5.0,6.0,151,123,114,131,123
2025-02-25 18:05:07.103,-428.0,-756.0,514.0,-21.0,-5.0,5.0,150,123,114,134,125
2025-02-25 18:05:07.111,-417.0,-749.0,532.0,-21.0,-5.0,5.0,151,119,113,135,122
2025-02-25 18:05:07.115,-421.0,-742.0,517.0,-20.0,-6.0,4.0,149,121,111,129,123
2025-02-25 18:05:07.120,-423.0,-748.0,512.0,-21.0,-6.0,3.0,150,122,119,131,124
2025-02-25 18:05:07.124,-432.0,-741.0,540.0,-21.0,-5.0,3.0,150,123,116,131,125
2025-02-25 18:05:07.131,-444.0,-760.0,513.0,-20.0,-9.0,2.0,150,116,113,132,122
2025-02-25 18:05:07.136,-427.0,-731.0,520.0,-28.0,-9.0,2.0,148,120,115,129,122
2025-02-25 18:05:07.140,-433.0,-741.0,520.0,-26.0,-10.0,2.0,149,122,113,129,122
2025-02-25 18:05:07.148,-439.0,-734.0,512.0,-28.0,-10.0,2.0,152,124,114,132,125
2025-02-25 18:05:07.152,-430.0,-739.0,536.0,-24.0,-9.0,0.0,152,122,114,133,124
2025-02-25 18:05:07.157,-443.0,-750.0,514.0,-23.0,-10.0,0.0,152,121,112,133,122
2025-02-25 18:05:07.161,-432.0,-750.0,507.0,-20.0,-9.0,-1.0,149,121,115,131,120
2025-02-25 18:05:07.169,-444.0,-760.0,515.0,-19.0,-10.0,-1.0,150,121,111,128,121
2025-02-25 18:05:07.173,-433.0,-765.0,533.0,-20.0,-12.0,-1.0,152,122,114,131,126
2025-02-25 18:05:07.177,-427.0,-770.0,526.0,-20.0,-11.0,-2.0,152,123,114,131,125
2025-02-25 18:05:07.185,-414.0,-779.0,516.0,-20.0,-12.0,-2.0,150,125,113,131,123
2025-02-25 18:05:07.189,-421.0,-800.0,547.0,-20.0,-11.0,-2.0,151,121,116,131,124
2025-02-25 18:05:07.193,-413.0,-805.0,523.0,-16.0,-12.0,-1.0,149,120,113,128,123
2025-02-25 18:05:07.202,-405.0,-808.0,530.0,-15.0,-13.0,-2.0,147,118,111,125,122
2025-02-25 18:05:07.206,-387.0,-817.0,511.0,-15.0,-13.0,0.0,152,122,114,132,124
2025-02-25 18:05:07.210,-388.0,-830.0,525.0,-18.0,-15.0,0.0,150,121,117,132,124
2025-02-25 18:05:07.218,-385.0,-795.0,530.0,-17.0,-14.0,1.0,150,121,114,132,125
2025-02-25 18:05:07.222,-389.0,-811.0,548.0,-13.0,-15.0,2.0,150,120,112,130,125
2025-02-25 18:05:07.227,-393.0,-814.0,555.0,-13.0,-15.0,2.0,147,119,112,128,122
2025-02-25 18:05:07.231,-378.0,-803.0,535.0,-13.0,-12.0,1.0,148,122,114,131,123
2025-02-25 18:05:07.238,-396.0,-805.0,557.0,-12.0,-10.0,1.0,149,120,114,131,124
2025-02-25 18:05:07.243,-404.0,-796.0,579.0,-11.0,-7.0,1.0,148,120,112,128,125
2025-02-25 18:05:07.247,-404.0,-787.0,541.0,-8.0,-5.0,0.0,149,118,110,130,123
2025-02-25 18:05:07.255,-402.0,-792.0,500.0,-4.0,-6.0,0.0,149,119,114,129,121
2025-02-25 18:05:07.259,-410.0,-775.0,526.0,-3.0,-5.0,1.0,152,121,113,132,125
2025-02-25 18:05:07.263,-390.0,-766.0,527.0,-3.0,-3.0,1.0,148,118,110,130,123
2025-02-25 18:05:07.267,-396.0,-767.0,508.0,-1.0,-4.0,1.0,148,119,112,127,120
2025-02-25 18:05:07.275,-399.0,-761.0,536.0,2.0,-4.0,1.0,149,119,110,129,122
2025-02-25 18:05:07.284,-389.0,-762.0,546.0,5.0,-3.0,1.0,150,121,113,135,126
2025-02-25 18:05:07.286,-405.0,-765.0,527.0,5.0,-2.0,0.0,146,118,109,129,119
2025-02-25 18:05:07.288,-396.0,-788.0,535.0,8.0,-1.0,0.0,146,118,109,127,120
2025-02-25 18:05:07.296,-419.0,-785.0,534.0,9.0,-3.0,0.0,147,121,114,129,122
2025-02-25 18:05:07.300,-412.0,-787.0,532.0,8.0,-4.0,0.0,150,122,115,131,124
2025-02-25 18:05:07.304,-409.0,-776.0,520.0,7.0,-3.0,0.0,150,120,112,130,122
2025-02-25 18:05:07.308,-418.0,-795.0,534.0,9.0,-2.0,0.0,149,120,112,128,122
2025-02-25 18:05:07.313,-403.0,-786.0,528.0,6.0,-1.0,-1.0,150,121,114,132,125
2025-02-25 18:05:07.320,-420.0,-763.0,519.0,6.0,0.0,-1.0,153,122,116,133,126
2025-02-25 18:05:07.325,-422.0,-778.0,517.0,4.0,-2.0,-1.0,150,119,113,131,124
2025-02-25 18:05:07.329,-421.0,-768.0,536.0,2.0,-4.0,-1.0,148,120,112,131,124
2025-02-25 18:05:07.333,-432.0,-758.0,541.0,1.0,-5.0,-1.0,150,122,114,131,124
2025-02-25 18:05:07.341,-421.0,-743.0,549.0,1.0,-3.0,-1.0,149,119,112,131,124
2025-02-25 18:05:07.345,-417.0,-749.0,545.0,6.0,-3.0,0.0,149,119,114,129,122
2025-02-25 18:05:07.349,-426.0,-730.0,572.0,8.0,-1.0,0.0,149,122,115,131,120
2025-02-25 18:05:07.353,-410.0,-713.0,541.0,10.0,1.0,1.0,149,119,113,130,123
2025-02-25 18:05:07.361,-420.0,-708.0,541.0,7.0,2.0,2.0,149,117,114,126,123
2025-02-25 18:05:07.365,-421.0,-727.0,509.0,2.0,-3.0,2.0,149,121,114,129,124
2025-02-25 18:05:07.369,-404.0,-715.0,558.0,5.0,-3.0,2.0,146,116,113,129,122
2025-02-25 18:05:07.374,-407.0,-716.0,516.0,5.0,-4.0,2.0,147,119,112,131,123
2025-02-25 18:05:07.382,-394.0,-716.0,532.0,4.0,-4.0,1.0,145,118,111,131,121
2025-02-25 18:05:07.386,-395.0,-708.0,548.0,10.0,-1.0,0.0,149,121,113,129,123
2025-02-25 18:05:07.390,-403.0,-718.0,545.0,14.0,-1.0,-2.0,148,117,114,127,124
2025-02-25 18:05:07.394,-401.0,-694.0,502.0,4.0,-4.0,-3.0,149,119,113,125,122
2025-02-25 18:05:07.402,-388.0,-676.0,493.0,8.0,0.0,-4.0,151,119,111,127,120
2025-02-25 18:05:07.406,-366.0,-698.0,503.0,6.0,-2.0,-6.0,148,120,112,128,123
2025-02-25 18:05:07.411,-394.0,-705.0,537.0,1.0,-2.0,-8.0,150,130,111,128,118
2025-02-25 18:05:07.415,-390.0,-693.0,521.0,0.0,0.0,-9.0,146,120,112,127,121
2025-02-25 18:05:07.422,-412.0,-721.0,509.0,2.0,-2.0,-9.0,147,111,112,127,124
2025-02-25 18:05:07.427,-411.0,-715.0,520.0,0.0,-4.0,-10.0,148,119,112,128,122
2025-02-25 18:05:07.431,-398.0,-704.0,522.0,-1.0,-5.0,-12.0,147,118,111,127,122
2025-02-25 18:05:07.435,-409.0,-735.0,555.0,5.0,-3.0,-13.0,147,119,110,127,118
2025-02-25 18:05:07.443,-426.0,-754.0,547.0,6.0,-3.0,-13.0,146,118,111,129,122
2025-02-25 18:05:07.447,-392.0,-734.0,535.0,14.0,1.0,-13.0,149,119,113,129,122
2025-02-25 18:05:07.451,-370.0,-761.0,573.0,16.0,4.0,-14.0,148,120,110,129,122
2025-02-25 18:05:07.459,-384.0,-771.0,565.0,13.0,4.0,-13.0,148,117,113,130,123
2025-02-25 18:05:07.464,-384.0,-789.0,523.0,7.0,1.0,-12.0,145,118,108,126,119
2025-02-25 18:05:07.468,-399.0,-790.0,546.0,2.0,-5.0,-12.0,149,117,112,129,124
2025-02-25 18:05:07.472,-373.0,-782.0,575.0,2.0,-3.0,-11.0,141,118,113,128,122
2025-02-25 18:05:07.479,-385.0,-798.0,544.0,2.0,-3.0,-10.0,148,120,114,128,124
2025-02-25 18:05:07.484,-383.0,-792.0,595.0,3.0,-2.0,-10.0,146,116,111,129,124
2025-02-25 18:05:07.489,-380.0,-807.0,564.0,7.0,-1.0,-10.0,145,117,108,127,119
2025-02-25 18:05:07.493,-387.0,-794.0,561.0,7.0,-2.0,-9.0,149,118,112,128,122
2025-02-25 18:05:07.500,-373.0,-791.0,567.0,7.0,0.0,-8.0,148,119,112,131,123
2025-02-25 18:05:07.505,-382.0,-799.0,545.0,4.0,-1.0,-8.0,148,123,111,126,120
2025-02-25 18:05:07.509,-387.0,-794.0,558.0,2.0,0.0,-8.0,145,115,110,125,123
2025-02-25 18:05:07.513,-382.0,-778.0,537.0,0.0,-1.0,-7.0,147,118,112,128,123
2025-02-25 18:05:07.521,-394.0,-795.0,538.0,-3.0,-2.0,-6.0,148,118,112,131,122
2025-02-25 18:05:07.525,-380.0,-788.0,565.0,-6.0,-2.0,-6.0,146,117,110,130,122
2025-02-25 18:05:07.530,-380.0,-787.0,533.0,-8.0,-4.0,-6.0,148,117,111,127,121
2025-02-25 18:05:07.537,-381.0,-788.0,530.0,-10.0,-5.0,-6.0,147,120,113,130,122
2025-02-25 18:05:07.542,-377.0,-804.0,547.0,-9.0,-6.0,-5.0,149,114,111,129,124
2025-02-25 18:05:07.546,-381.0,-805.0,530.0,-10.0,-6.0,-5.0,147,117,109,129,122
2025-02-25 18:05:07.550,-381.0,-800.0,538.0,-8.0,-7.0,-4.0,147,125,112,128,117
2025-02-25 18:05:07.558,-377.0,-795.0,538.0,-6.0,-6.0,-4.0,149,118,111,128,121
2025-02-25 18:05:07.562,-381.0,-797.0,537.0,-2.0,-6.0,-3.0,147,119,112,130,121
2025-02-25 18:05:07.566,-377.0,-783.0,560.0,-2.0,-5.0,-3.0,149,119,110,130,121
2025-02-25 18:05:07.574,-384.0,-784.0,508.0,1.0,-6.0,-3.0,147,118,110,127,121
2025-02-25 18:05:07.578,-415.0,-793.0,541.0,2.0,-5.0,-1.0,147,121,110,125,120
2025-02-25 18:05:07.583,-392.0,-784.0,542.0,1.0,-4.0,-2.0,150,122,111,128,123
2025-02-25 18:05:07.587,-411.0,-793.0,505.0,1.0,-6.0,-1.0,147,121,113,128,120
2025-02-25 18:05:07.594,-416.0,-805.0,533.0,2.0,-6.0,-1.0,148,119,110,127,122
2025-02-25 18:05:07.598,-391.0,-788.0,535.0,4.0,-4.0,0.0,147,119,111,127,121
2025-02-25 18:05:07.602,-393.0,-807.0,561.0,7.0,-2.0,-1.0,148,121,113,130,123
2025-02-25 18:05:07.607,-396.0,-794.0,539.0,9.0,-1.0,-1.0,148,120,112,128,123
2025-02-25 18:05:07.615,-397.0,-790.0,537.0,13.0,0.0,-2.0,148,120,110,126,122
2025-02-25 18:05:07.619,-384.0,-790.0,540.0,14.0,1.0,-1.0,147,118,114,132,124
2025-02-25 18:05:07.623,-392.0,-796.0,530.0,13.0,0.0,-1.0,150,123,112,128,122
2025-02-25 18:05:07.627,-386.0,-780.0,545.0,11.0,0.0,-1.0,149,120,111,130,122
2025-02-25 18:05:07.635,-384.0,-772.0,536.0,11.0,0.0,-1.0,148,119,110,127,123
2025-02-25 18:05:07.639,-385.0,-767.0,549.0,9.0,0.0,-1.0,151,123,115,131,125
2025-02-25 18:05:07.644,-388.0,-768.0,544.0,9.0,0.0,0.0,149,120,112,128,123
2025-02-25 18:05:07.649,-390.0,-765.0,538.0,7.0,0.0,0.0,145,118,109,127,121
2025-02-25 18:05:07.653,-386.0,-752.0,550.0,5.0,-1.0,0.0,147,120,109,129,119
2025-02-25 18:05:07.660,-385.0,-749.0,544.0,3.0,-1.0,0.0,149,123,116,131,126
2025-02-25 18:05:07.664,-383.0,-747.0,554.0,2.0,-2.0,0.0,150,122,112,128,123
2025-02-25 18:05:07.669,-383.0,-740.0,562.0,1.0,-2.0,-1.0,145,119,111,128,122
2025-02-25 18:05:07.673,-375.0,-733.0,554.0,1.0,-1.0,-1.0,148,124,113,129,125
2025-02-25 18:05:07.681,-384.0,-747.0,560.0,2.0,-1.0,0.0,150,123,113,130,126
2025-02-25 18:05:07.685,-377.0,-756.0,543.0,1.0,-2.0,1.0,146,121,111,128,122
2025-02-25 18:05:07.689,-375.0,-762.0,548.0,1.0,-2.0,1.0,147,121,113,129,124
2025-02-25 18:05:07.695,-373.0,-765.0,539.0,-2.0,-3.0,1.0,148,124,114,130,125
2025-02-25 18:05:07.702,-370.0,-770.0,548.0,-4.0,-4.0,0.0,151,125,117,131,126
2025-02-25 18:05:07.706,-371.0,-775.0,565.0,-4.0,-4.0,-1.0,149,121,111,127,124
2025-02-25 18:05:07.710,-369.0,-768.0,563.0,-4.0,-3.0,-2.0,148,119,111,121,122
2025-02-25 18:05:07.714,-372.0,-783.0,574.0,-5.0,-4.0,-2.0,150,123,113,130,124
2025-02-25 18:05:07.722,-369.0,-794.0,580.0,-6.0,-3.0,-4.0,153,123,112,129,126
2025-02-25 18:05:07.726,-371.0,-808.0,582.0,-6.0,-3.0,-4.0,147,120,111,130,125
2025-02-25 18:05:07.730,-365.0,-814.0,585.0,-7.0,-4.0,-4.0,144,121,112,125,123
2025-02-25 18:05:07.738,-352.0,-801.0,590.0,-10.0,-3.0,-4.0,148,123,115,130,127
2025-02-25 18:05:07.742,-360.0,-792.0,587.0,-8.0,-2.0,-3.0,149,121,113,133,124
2025-02-25 18:05:07.747,-363.0,-797.0,589.0,-8.0,-1.0,-2.0,148,123,112,130,126
2025-02-25 18:05:07.751,-364.0,-798.0,586.0,-8.0,-1.0,0.0,146,120,112,131,124
2025-02-25 18:05:07.758,-358.0,-803.0,571.0,-6.0,1.0,0.0,148,121,112,128,124
2025-02-25 18:05:07.763,-370.0,-813.0,593.0,-9.0,0.0,1.0,149,119,112,131,126
2025-02-25 18:05:07.767,-368.0,-809.0,583.0,-8.0,1.0,2.0,147,121,114,131,125
2025-02-25 18:05:07.771,-377.0,-814.0,572.0,-8.0,1.0,3.0,146,122,110,130,124
2025-02-25 18:05:07.779,-379.0,-818.0,567.0,-8.0,1.0,3.0,148,123,112,128,125
2025-02-25 18:05:07.783,-388.0,-812.0,562.0,-7.0,1.0,3.0,149,124,115,132,126
2025-02-25 18:05:07.788,-395.0,-819.0,559.0,-6.0,1.0,3.0,146,121,112,127,125
2025-02-25 18:05:07.792,-394.0,-810.0,537.0,-5.0,2.0,3.0,147,122,112,128,122
2025-02-25 18:05:07.800,-399.0,-811.0,534.0,-4.0,1.0,4.0,149,122,114,132,125
2025-02-25 18:05:07.803,-390.0,-795.0,533.0,-5.0,1.0,3.0,150,123,114,130,127
2025-02-25 18:05:07.808,-392.0,-789.0,514.0,-4.0,1.0,4.0,147,120,112,126,124
2025-02-25 18:05:07.812,-386.0,-781.0,533.0,-3.0,2.0,3.0,149,123,110,130,124
2025-02-25 18:05:07.817,-388.0,-766.0,520.0,-3.0,2.0,3.0,149,124,116,132,125
2025-02-25 18:05:07.824,-387.0,-750.0,523.0,-2.0,2.0,3.0,146,123,111,130,124
2025-02-25 18:05:07.828,-391.0,-750.0,515.0,-2.0,2.0,3.0,146,121,111,129,124
2025-02-25 18:05:07.832,-396.0,-739.0,507.0,-2.0,1.0,2.0,152,126,115,130,125
2025-02-25 18:05:07.837,-389.0,-727.0,502.0,-2.0,0.0,1.0,149,122,111,125,124
2025-02-25 18:05:07.844,-393.0,-727.0,500.0,-4.0,-2.0,0.0,149,122,112,126,124
2025-02-25 18:05:07.848,-393.0,-719.0,499.0,-4.0,-3.0,0.0,148,122,114,130,127
2025-02-25 18:05:07.853,-395.0,-713.0,506.0,-3.0,-4.0,-1.0,150,123,114,130,126
2025-02-25 18:05:07.857,-388.0,-714.0,510.0,-3.0,-3.0,-3.0,150,124,115,130,127
2025-02-25 18:05:07.865,-391.0,-713.0,514.0,-1.0,-3.0,-4.0,148,122,110,127,124
2025-02-25 18:05:07.869,-395.0,-719.0,522.0,-1.0,-4.0,-4.0,146,122,113,128,124
2025-02-25 18:05:07.873,-397.0,-713.0,519.0,-1.0,-5.0,-6.0,147,124,113,132,126
2025-02-25 18:05:07.881,-397.0,-720.0,521.0,-2.0,-7.0,-7.0,148,124,114,131,128
2025-02-25 18:05:07.885,-401.0,-720.0,528.0,-3.0,-8.0,-8.0,148,124,112,127,124
2025-02-25 18:05:07.890,-399.0,-725.0,535.0,-5.0,-10.0,-8.0,147,122,111,128,123
2025-02-25 18:05:07.894,-387.0,-727.0,524.0,-3.0,-10.0,-9.0,149,122,111,129,126
2025-02-25 18:05:07.902,-400.0,-740.0,530.0,-6.0,-12.0,-9.0,149,124,122,132,127
2025-02-25 18:05:07.906,-388.0,-737.0,550.0,-6.0,-11.0,-10.0,149,125,113,130,124
2025-02-25 18:05:07.910,-396.0,-750.0,533.0,-6.0,-12.0,-10.0,148,121,109,129,123
2025-02-25 18:05:07.918,-379.0,-751.0,571.0,-8.0,-12.0,-9.0,146,120,111,127,123
2025-02-25 18:05:07.923,-376.0,-750.0,569.0,-9.0,-12.0,-10.0,147,123,114,128,124
2025-02-25 18:05:07.927,-376.0,-764.0,579.0,-10.0,-11.0,-10.0,149,123,113,128,124
2025-02-25 18:05:07.935,-378.0,-775.0,588.0,-10.0,-10.0,-10.0,149,124,116,131,125
2025-02-25 18:05:07.939,-380.0,-779.0,586.0,-12.0,-9.0,-10.0,148,121,112,128,125
2025-02-25 18:05:07.943,-371.0,-782.0,584.0,-13.0,-9.0,-10.0,148,121,113,130,125
2025-02-25 18:05:07.951,-378.0,-786.0,586.0,-14.0,-9.0,-10.0,147,122,112,128,126
2025-02-25 18:05:07.956,-375.0,-794.0,591.0,-15.0,-8.0,-10.0,146,120,111,128,123
2025-02-25 18:05:07.960,-375.0,-783.0,579.0,-14.0,-7.0,-10.0,149,122,115,132,126
2025-02-25 18:05:07.968,-373.0,-788.0,575.0,-14.0,-6.0,-10.0,148,122,114,130,125
2025-02-25 18:05:07.971,-372.0,-782.0,577.0,-13.0,-5.0,-10.0,147,120,112,129,125
2025-02-25 18:05:07.976,-375.0,-789.0,571.0,-13.0,-3.0,-10.0,147,121,111,129,124
2025-02-25 18:05:07.984,-368.0,-785.0,568.0,-13.0,-3.0,-10.0,145,122,110,127,123
2025-02-25 18:05:07.988,-370.0,-786.0,561.0,-13.0,-2.0,-10.0,146,120,109,126,123
2025-02-25 18:05:07.993,-367.0,-784.0,541.0,-13.0,-2.0,-10.0,149,122,111,129,124
2025-02-25 18:05:07.997,-365.0,-788.0,549.0,-13.0,-1.0,-9.0,147,122,113,130,125
2025-02-25 18:05:08.004,-367.0,-791.0,555.0,-14.0,0.0,-10.0,147,122,110,129,125
2025-02-25 18:05:08.008,-363.0,-795.0,534.0,-15.0,-1.0,-10.0,148,121,110,127,123
2025-02-25 18:05:08.012,-372.0,-793.0,534.0,-14.0,-1.0,-10.0,148,119,110,129,124
2025-02-25 18:05:08.020,-368.0,-802.0,519.0,-14.0,-2.0,-10.0,148,124,113,130,126
2025-02-25 18:05:08.025,-377.0,-801.0,507.0,-14.0,-2.0,-10.0,151,121,110,129,127
2025-02-25 18:05:08.029,-377.0,-807.0,520.0,-13.0,-2.0,-10.0,148,121,112,130,125
2025-02-25 18:05:08.037,-376.0,-802.0,530.0,-14.0,-1.0,-9.0,148,122,112,130,127
2025-02-25 18:05:08.041,-368.0,-811.0,511.0,-12.0,-2.0,-9.0,148,118,116,129,125
2025-02-25 18:05:08.045,-365.0,-814.0,507.0,-13.0,-2.0,-8.0,147,119,111,130,125
2025-02-25 18:05:08.053,-370.0,-810.0,490.0,-14.0,-3.0,-8.0,147,121,114,132,126
2025-02-25 18:05:08.057,-356.0,-797.0,504.0,-12.0,-3.0,-7.0,148,119,112,129,124
2025-02-25 18:05:08.062,-362.0,-798.0,502.0,-12.0,-3.0,-8.0,147,120,111,129,125
2025-02-25 18:05:08.066,-359.0,-794.0,496.0,-10.0,-2.0,-8.0,148,117,111,126,124
2025-02-25 18:05:08.074,-363.0,-796.0,501.0,-9.0,-3.0,-8.0,147,117,109,127,123
2025-02-25 18:05:08.079,-351.0,-792.0,487.0,-8.0,-4.0,-9.0,149,116,111,128,125
2025-02-25 18:05:08.083,-350.0,-787.0,489.0,-7.0,-4.0,-10.0,149,117,112,128,126
2025-02-25 18:05:08.090,-350.0,-789.0,497.0,-6.0,-3.0,-11.0,149,117,111,128,125
2025-02-25 18:05:08.095,-350.0,-786.0,489.0,-4.0,-3.0,-12.0,147,114,111,127,123
2025-02-25 18:05:08.098,-343.0,-782.0,492.0,-2.0,-3.0,-12.0,147,120,109,128,125
2025-02-25 18:05:08.103,-352.0,-784.0,493.0,-1.0,-2.0,-13.0,148,117,112,130,125
2025-02-25 18:05:08.110,-352.0,-786.0,490.0,-1.0,-3.0,-13.0,149,118,113,130,124
2025-02-25 18:05:08.114,-350.0,-789.0,499.0,-1.0,-3.0,-13.0,150,118,111,127,123
2025-02-25 18:05:08.120,-349.0,-797.0,499.0,-1.0,-3.0,-14.0,146,115,111,128,124
2025-02-25 18:05:08.126,-353.0,-804.0,505.0,-1.0,-3.0,-13.0,146,114,110,128,124
2025-02-25 18:05:08.132,-353.0,-817.0,511.0,-1.0,-4.0,-13.0,151,117,111,126,123
2025-02-25 18:05:08.136,-347.0,-820.0,514.0,0.0,-5.0,-14.0,149,116,110,130,126
2025-02-25 18:05:08.144,-349.0,-824.0,520.0,0.0,-7.0,-13.0,151,117,110,126,125
2025-02-25 18:05:08.147,-344.0,-825.0,522.0,0.0,-6.0,-13.0,147,115,110,127,124
2025-02-25 18:05:08.152,-348.0,-835.0,530.0,-2.0,-8.0,-12.0,147,114,110,128,122
2025-02-25 18:05:08.156,-329.0,-844.0,532.0,-3.0,-9.0,-11.0,151,118,110,128,124
2025-02-25 18:05:08.164,-314.0,-847.0,539.0,-4.0,-9.0,-9.0,148,117,111,129,126
2025-02-25 18:05:08.168,-308.0,-849.0,555.0,-4.0,-8.0,-8.0,145,113,112,128,124
2025-02-25 18:05:08.173,-308.0,-845.0,548.0,-6.0,-7.0,-6.0,145,114,110,127,124
2025-02-25 18:05:08.180,-297.0,-838.0,545.0,-7.0,-5.0,-4.0,149,117,110,128,125
2025-02-25 18:05:08.185,-295.0,-823.0,547.0,-9.0,-4.0,-2.0,149,117,112,129,125
2025-02-25 18:05:08.189,-298.0,-819.0,538.0,-10.0,-2.0,0.0,147,116,111,130,124
2025-02-25 18:05:08.193,-301.0,-810.0,537.0,-10.0,-1.0,0.0,148,113,107,129,123
2025-02-25 18:05:08.200,-311.0,-815.0,526.0,-12.0,1.0,0.0,147,115,113,128,124
2025-02-25 18:05:08.205,-324.0,-819.0,522.0,-14.0,1.0,-1.0,148,116,112,129,124
2025-02-25 18:05:08.209,-336.0,-822.0,522.0,-14.0,1.0,-2.0,147,117,112,127,126
2025-02-25 18:05:08.213,-338.0,-837.0,527.0,-15.0,0.0,-2.0,147,114,107,126,124
2025-02-25 18:05:08.222,-338.0,-843.0,526.0,-16.0,0.0,-3.0,148,115,111,129,126
2025-02-25 18:05:08.226,-328.0,-855.0,531.0,-14.0,0.0,-3.0,148,116,111,130,126
2025-02-25 18:05:08.230,-335.0,-881.0,549.0,-13.0,0.0,-2.0,146,114,110,127,125
2025-02-25 18:05:08.238,-338.0,-895.0,548.0,-13.0,0.0,-1.0,148,115,111,127,124
2025-02-25 18:05:08.242,-333.0,-902.0,572.0,-9.0,0.0,0.0,148,116,111,131,123
2025-02-25 18:05:08.246,-335.0,-912.0,566.0,-8.0,0.0,1.0,148,116,112,128,124
2025-02-25 18:05:08.251,-332.0,-912.0,574.0,-5.0,2.0,2.0,148,117,111,128,125
2025-02-25 18:05:08.254,-321.0,-906.0,581.0,-3.0,3.0,6.0,146,116,112,130,124
2025-02-25 18:05:08.262,-323.0,-855.0,533.0,-2.0,4.0,6.0,145,121,109,126,130
2025-02-25 18:05:08.266,-351.0,-946.0,565.0,0.0,6.0,7.0,150,117,110,128,126
2025-02-25 18:05:08.270,-340.0,-887.0,561.0,2.0,5.0,8.0,146,115,111,127,124
2025-02-25 18:05:08.275,-355.0,-855.0,547.0,3.0,5.0,11.0,147,115,109,128,124
2025-02-25 18:05:08.283,-324.0,-826.0,541.0,5.0,9.0,12.0,150,115,113,129,129
2025-02-25 18:05:08.287,-327.0,-808.0,539.0,6.0,12.0,14.0,148,117,113,128,125
2025-02-25 18:05:08.291,-347.0,-814.0,527.0,5.0,13.0,14.0,148,109,108,126,129
2025-02-25 18:05:08.296,-339.0,-814.0,509.0,3.0,11.0,13.0,145,115,109,127,124
2025-02-25 18:05:08.303,-345.0,-792.0,523.0,2.0,12.0,13.0,149,118,113,129,125
2025-02-25 18:05:08.308,-354.0,-771.0,498.0,2.0,12.0,13.0,150,117,110,127,124
2025-02-25 18:05:08.312,-341.0,-745.0,503.0,2.0,13.0,12.0,147,115,110,126,122
2025-02-25 18:05:08.316,-346.0,-738.0,510.0,0.0,14.0,12.0,149,114,110,125,122
2025-02-25 18:05:08.324,-348.0,-746.0,472.0,1.0,13.0,9.0,148,117,113,128,125
2025-02-25 18:05:08.328,-351.0,-756.0,482.0,0.0,10.0,7.0,148,115,111,127,123
2025-02-25 18:05:08.332,-344.0,-755.0,467.0,-1.0,8.0,5.0,147,117,110,127,122
2025-02-25 18:05:08.336,-354.0,-742.0,479.0,-1.0,5.0,5.0,149,117,112,129,125
2025-02-25 18:05:08.344,-337.0,-716.0,476.0,-3.0,5.0,3.0,150,118,112,130,124
2025-02-25 18:05:08.348,-344.0,-736.0,470.0,-4.0,5.0,1.0,147,114,110,128,125
2025-02-25 18:05:08.352,-355.0,-746.0,484.0,-5.0,4.0,0.0,147,116,109,126,127
2025-02-25 18:05:08.357,-365.0,-756.0,495.0,-4.0,0.0,-2.0,148,114,112,128,125
2025-02-25 18:05:08.364,-366.0,-748.0,485.0,-5.0,-2.0,-3.0,147,116,111,128,127
2025-02-25 18:05:08.369,-363.0,-740.0,479.0,-6.0,-1.0,-3.0,146,117,109,126,124
2025-02-25 18:05:08.373,-367.0,-759.0,498.0,-7.0,-1.0,-2.0,150,115,109,127,122
2025-02-25 18:05:08.377,-370.0,-766.0,504.0,-7.0,-3.0,-3.0,148,116,111,128,124
2025-02-25 18:05:08.385,-381.0,-787.0,509.0,-7.0,-5.0,-3.0,150,117,111,128,126
2025-02-25 18:05:08.389,-375.0,-785.0,517.0,-7.0,-6.0,-3.0,147,113,109,127,122
2025-02-25 18:05:08.394,-377.0,-786.0,507.0,-6.0,-6.0,-3.0,146,116,109,127,122
2025-02-25 18:05:08.398,-369.0,-787.0,510.0,-6.0,-5.0,-3.0,151,121,114,130,127
2025-02-25 18:05:08.406,-369.0,-795.0,515.0,-6.0,-4.0,-2.0,148,114,111,128,124
2025-02-25 18:05:08.410,-371.0,-819.0,537.0,-5.0,-5.0,-3.0,146,110,109,127,125
2025-02-25 18:05:08.414,-368.0,-825.0,524.0,-3.0,-5.0,-4.0,146,116,109,125,122
2025-02-25 18:05:08.422,-362.0,-818.0,521.0,-1.0,-3.0,-4.0,147,115,109,126,126
2025-02-25 18:05:08.426,-365.0,-817.0,515.0,1.0,0.0,-4.0,148,117,112,128,125
2025-02-25 18:05:08.430,-369.0,-831.0,523.0,2.0,0.0,-4.0,146,115,107,127,121
2025-02-25 18:05:08.434,-375.0,-827.0,520.0,4.0,1.0,-4.0,146,115,108,126,121
2025-02-25 18:05:08.443,-381.0,-831.0,515.0,5.0,1.0,-4.0,147,118,108,127,124
2025-02-25 18:05:08.446,-382.0,-827.0,517.0,6.0,1.0,-4.0,147,115,112,127,124
2025-02-25 18:05:08.451,-378.0,-816.0,511.0,5.0,1.0,-4.0,145,113,109,127,120
2025-02-25 18:05:08.455,-379.0,-802.0,512.0,6.0,1.0,-4.0,147,116,109,126,123
2025-02-25 18:05:08.459,-381.0,-809.0,507.0,6.0,2.0,-3.0,148,121,108,133,125
2025-02-25 18:05:08.467,-383.0,-821.0,509.0,5.0,2.0,-4.0,148,116,113,128,125
2025-02-25 18:05:08.471,-378.0,-819.0,521.0,5.0,2.0,-4.0,146,113,108,126,122
2025-02-25 18:05:08.475,-374.0,-820.0,515.0,2.0,1.0,-4.0,146,114,109,125,122
2025-02-25 18:05:08.480,-366.0,-824.0,514.0,0.0,1.0,-5.0,147,118,110,128,127
2025-02-25 18:05:08.487,-360.0,-834.0,516.0,-1.0,1.0,-5.0,147,113,109,127,125
2025-02-25 18:05:08.492,-358.0,-829.0,521.0,-2.0,2.0,-6.0,146,115,100,126,121
2025-02-25 18:05:08.496,-346.0,-832.0,527.0,-3.0,4.0,-6.0,148,117,112,128,125
2025-02-25 18:05:08.500,-346.0,-819.0,525.0,-5.0,5.0,-6.0,150,118,111,122,124
2025-02-25 18:05:08.508,-345.0,-813.0,526.0,-6.0,7.0,-6.0,147,115,109,126,124
2025-02-25 18:05:08.513,-350.0,-814.0,523.0,-9.0,8.0,-5.0,147,114,109,128,124
2025-02-25 18:05:08.517,-360.0,-821.0,521.0,-11.0,9.0,-4.0,148,119,110,126,123
2025-02-25 18:05:08.524,-379.0,-815.0,516.0,-11.0,9.0,-3.0,149,118,110,128,125
2025-02-25 18:05:08.529,-389.0,-817.0,509.0,-11.0,10.0,-3.0,147,118,109,126,122
2025-02-25 18:05:08.533,-399.0,-822.0,519.0,-11.0,10.0,-2.0,146,117,111,126,124
2025-02-25 18:05:08.538,-404.0,-822.0,527.0,-13.0,8.0,-2.0,147,116,108,125,123
2025-02-25 18:05:08.545,-400.0,-840.0,524.0,-14.0,6.0,-2.0,149,115,111,127,125
2025-02-25 18:05:08.549,-391.0,-872.0,542.0,-16.0,6.0,-3.0,147,117,111,127,125
2025-02-25 18:05:08.553,-376.0,-913.0,539.0,-16.0,4.0,-5.0,144,114,110,126,124
2025-02-25 18:05:08.557,-346.0,-950.0,575.0,-16.0,3.0,-5.0,147,118,110,130,125
2025-02-25 18:05:08.565,-336.0,-948.0,631.0,-17.0,5.0,-8.0,148,114,109,128,123
2025-02-25 18:05:08.569,-315.0,-987.0,642.0,-21.0,6.0,-10.0,148,116,110,130,123
2025-02-25 18:05:08.574,-300.0,-1006.0,662.0,-22.0,7.0,-14.0,147,115,110,126,123
2025-02-25 18:05:08.582,-303.0,-1032.0,669.0,-25.0,7.0,-16.0,145,113,109,128,124
2025-02-25 18:05:08.586,-293.0,-1039.0,669.0,-33.0,9.0,-18.0,145,114,109,125,123
2025-02-25 18:05:08.590,-311.0,-1047.0,655.0,-38.0,11.0,-18.0,151,113,109,127,122
2025-02-25 18:05:08.598,-305.0,-1076.0,663.0,-46.0,14.0,-18.0,146,114,110,125,124
2025-02-25 18:05:08.602,-312.0,-1097.0,652.0,-50.0,17.0,-17.0,150,112,107,127,126
2025-02-25 18:05:08.606,-316.0,-1137.0,668.0,-55.0,20.0,-14.0,147,113,111,127,123
2025-02-25 18:05:08.614,-307.0,-1164.0,673.0,-56.0,23.0,-11.0,147,112,107,125,121
2025-02-25 18:05:08.619,-307.0,-1225.0,653.0,-69.0,26.0,-5.0,148,112,107,124,121
2025-02-25 18:05:08.624,-297.0,-1214.0,639.0,-76.0,30.0,-2.0,149,112,111,125,120
2025-02-25 18:05:08.631,-296.0,-1230.0,662.0,-82.0,33.0,4.0,148,108,108,126,120
2025-02-25 18:05:08.635,-301.0,-1230.0,647.0,-83.0,35.0,11.0,148,107,109,125,120
2025-02-25 18:05:08.639,-300.0,-1227.0,674.0,-80.0,38.0,18.0,147,108,109,127,122
2025-02-25 18:05:08.647,-289.0,-1221.0,664.0,-80.0,43.0,23.0,146,106,104,125,121
2025-02-25 18:05:08.655,-294.0,-1193.0,612.0,-76.0,44.0,27.0,144,98,105,124,124
2025-02-25 18:05:08.657,-286.0,-1190.0,583.0,-71.0,48.0,28.0,146,101,104,125,119
2025-02-25 18:05:08.663,-315.0,-1169.0,546.0,-69.0,52.0,32.0,149,103,107,127,120
2025-02-25 18:05:08.668,-318.0,-1135.0,538.0,-70.0,57.0,36.0,147,103,107,126,118
2025-02-25 18:05:08.672,-355.0,-1109.0,477.0,-64.0,58.0,40.0,147,103,106,124,119
2025-02-25 18:05:08.676,-385.0,-1086.0,502.0,-68.0,60.0,40.0,146,104,108,123,117
2025-02-25 18:05:08.685,-369.0,-1033.0,509.0,-73.0,64.0,42.0,146,101,107,124,116
2025-02-25 18:05:08.689,-367.0,-1053.0,467.0,-58.0,67.0,44.0,145,97,105,122,113
2025-02-25 18:05:08.693,-396.0,-1034.0,548.0,-62.0,75.0,44.0,147,101,108,125,115
2025-02-25 18:05:08.700,-392.0,-994.0,463.0,-55.0,82.0,43.0,148,101,109,126,116
2025-02-25 18:05:08.705,-391.0,-950.0,422.0,-53.0,89.0,41.0,148,98,107,125,115
2025-02-25 18:05:08.709,-376.0,-959.0,476.0,-53.0,97.0,39.0,145,99,106,124,112
2025-02-25 18:05:08.717,-401.0,-938.0,438.0,-47.0,105.0,38.0,145,91,106,120,110
2025-02-25 18:05:08.721,-410.0,-899.0,437.0,-48.0,109.0,38.0,148,94,107,121,113
2025-02-25 18:05:08.726,-435.0,-871.0,427.0,-50.0,111.0,39.0,148,92,106,122,108
2025-02-25 18:05:08.730,-416.0,-857.0,326.0,-48.0,104.0,41.0,146,89,107,118,107
2025-02-25 18:05:08.738,-398.0,-827.0,321.0,-54.0,100.0,42.0,146,87,102,116,104
2025-02-25 18:05:08.742,-396.0,-824.0,279.0,-59.0,94.0,43.0,146,85,106,116,101
2025-02-25 18:05:08.746,-418.0,-821.0,279.0,-59.0,89.0,43.0,147,84,101,114,101
2025-02-25 18:05:08.754,-417.0,-784.0,222.0,-63.0,88.0,43.0,147,82,102,112,98
2025-02-25 18:05:08.758,-452.0,-784.0,218.0,-68.0,89.0,43.0,144,81,100,112,97
2025-02-25 18:05:08.762,-439.0,-763.0,201.0,-72.0,92.0,42.0,145,76,99,111,96
2025-02-25 18:05:08.766,-446.0,-751.0,208.0,-73.0,93.0,42.0,147,80,100,112,97
2025-02-25 18:05:08.774,-462.0,-724.0,166.0,-75.0,91.0,40.0,147,76,98,110,94
2025-02-25 18:05:08.778,-482.0,-688.0,155.0,-81.0,88.0,39.0,145,79,97,110,93
2025-02-25 18:05:08.783,-509.0,-677.0,124.0,-87.0,86.0,38.0,146,73,95,110,92
2025-02-25 18:05:08.787,-512.0,-621.0,149.0,-90.0,87.0,36.0,146,72,94,108,90
2025-02-25 18:05:08.791,-509.0,-592.0,128.0,-93.0,88.0,36.0,145,71,92,104,88
2025-02-25 18:05:08.798,-501.0,-585.0,143.0,-95.0,89.0,36.0,144,69,93,104,87
2025-02-25 18:05:08.803,-470.0,-556.0,89.0,-91.0,87.0,35.0,147,70,93,103,86
2025-02-25 18:05:08.808,-488.0,-553.0,88.0,-87.0,88.0,36.0,145,68,91,104,82
2025-02-25 18:05:08.812,-480.0,-454.0,36.0,-83.0,85.0,33.0,144,64,87,103,82
2025-02-25 18:05:08.819,-525.0,-437.0,16.0,-81.0,84.0,31.0,147,67,88,103,81
2025-02-25 18:05:08.824,-510.0,-430.0,-33.0,-79.0,79.0,29.0,145,66,87,101,80
2025-02-25 18:05:08.828,-496.0,-415.0,-25.0,-77.0,77.0,28.0,143,60,85,100,78
2025-02-25 18:05:08.832,-562.0,-387.0,-32.0,-72.0,73.0,28.0,145,63,83,97,76
2025-02-25 18:05:08.836,-593.0,-325.0,16.0,-66.0,81.0,29.0,146,63,85,100,78
2025-02-25 18:05:08.843,-606.0,-290.0,-63.0,-61.0,83.0,35.0,143,62,84,98,77
2025-02-25 18:05:08.848,-597.0,-240.0,-123.0,-49.0,84.0,36.0,142,61,82,97,73
2025-02-25 18:05:08.852,-628.0,-146.0,-130.0,-31.0,85.0,39.0,143,63,80,99,77
2025-02-25 18:05:08.856,-724.0,-21.0,-92.0,-30.0,94.0,40.0,145,61,82,97,72
2025-02-25 18:05:08.864,-746.0,101.0,-68.0,-21.0,101.0,45.0,143,58,79,97,73
2025-02-25 18:05:08.868,-770.0,186.0,-158.0,-13.0,119.0,49.0,145,60,79,97,71
2025-02-25 18:05:08.873,-852.0,287.0,-99.0,-10.0,133.0,51.0,143,62,77,95,72
2025-02-25 18:05:08.877,-847.0,434.0,-185.0,-14.0,136.0,50.0,141,60,76,94,66
2025-02-25 18:05:08.881,-855.0,570.0,-319.0,-28.0,134.0,46.0,141,63,77,95,67
2025-02-25 18:05:08.889,-875.0,716.0,-395.0,-38.0,129.0,34.0,141,57,75,96,66
2025-02-25 18:05:08.893,-921.0,851.0,-614.0,-33.0,129.0,10.0,140,59,71,93,64
2025-02-25 18:05:08.897,-972.0,1240.0,-858.0,-11.0,127.0,-9.0,137,57,70,94,65
2025-02-25 18:05:08.905,-1060.0,1348.0,-1085.0,34.0,120.0,-55.0,136,60,71,93,64
2025-02-25 18:05:08.909,-1226.0,1586.0,-1081.0,78.0,106.0,-110.0,134,59,69,91,63
2025-02-25 18:05:08.914,-1426.0,1668.0,-1094.0,93.0,89.0,-177.0,130,58,68,90,63
2025-02-25 18:05:08.918,-1485.0,1822.0,-1105.0,123.0,73.0,-246.0,129,60,68,89,64
2025-02-25 18:05:08.926,-1454.0,1978.0,-1250.0,154.0,19.0,-285.0,126,57,67,87,63
2025-02-25 18:05:08.930,-1415.0,1964.0,-1219.0,165.0,-51.0,-361.0,125,58,68,88,64
2025-02-25 18:05:08.934,-1215.0,1890.0,-1130.0,165.0,-121.0,-437.0,126,59,69,87,64
2025-02-25 18:05:08.942,-795.0,1701.0,-923.0,150.0,-188.0,-511.0,126,67,68,88,65
2025-02-25 18:05:08.946,-263.0,1355.0,-636.0,140.0,-252.0,-577.0,125,58,67,86,65
2025-02-25 18:05:08.951,326.0,878.0,-327.0,117.0,-302.0,-626.0,123,58,63,85,63
2025-02-25 18:05:08.958,629.0,299.0,-78.0,98.0,-323.0,-654.0,124,57,67,82,64
2025-02-25 18:05:08.963,1334.0,-131.0,238.0,87.0,-350.0,-656.0,126,60,73,86,67
2025-02-25 18:05:08.967,1903.0,-1085.0,490.0,68.0,-355.0,-625.0,126,58,69,87,67
2025-02-25 18:05:08.971,2394.0,-2019.0,980.0,63.0,-327.0,-548.0,125,58,69,87,67
2025-02-25 18:05:08.979,2594.0,-2962.0,1525.0,55.0,-301.0,-433.0,125,58,69,84,65
2025-02-25 18:05:08.984,2869.0,-3370.0,2099.0,51.0,-223.0,-367.0,124,58,69,83,66
2025-02-25 18:05:08.988,3105.0,-3972.0,2580.0,68.0,-129.0,-234.0,125,60,71,84,69
2025-02-25 18:05:08.995,3224.0,-4384.0,2673.0,94.0,-42.0,-128.0,124,59,71,82,67
2025-02-25 18:05:08.999,3073.0,-4504.0,2823.0,113.0,49.0,-40.0,126,63,75,81,68
2025-02-25 18:05:09.004,2919.0,-4538.0,2775.0,140.0,98.0,19.0,122,62,72,76,66
2025-02-25 18:05:09.012,2748.0,-4204.0,2131.0,114.0,169.0,31.0,120,57,75,76,65
2025-02-25 18:05:09.016,2099.0,-2971.0,2098.0,91.0,197.0,60.0,121,59,73,79,68
2025-02-25 18:05:09.020,2171.0,-3101.0,1451.0,53.0,239.0,94.0,121,61,72,82,68
2025-02-25 18:05:09.025,1212.0,-2462.0,927.0,-26.0,216.0,102.0,117,59,71,81,66
2025-02-25 18:05:09.033,813.0,-2241.0,520.0,-93.0,171.0,115.0,115,58,70,81,65
2025-02-25 18:05:09.037,1167.0,-2134.0,227.0,-171.0,163.0,125.0,116,61,71,83,66
2025-02-25 18:05:09.041,614.0,-2125.0,-121.0,-239.0,123.0,140.0,116,64,70,85,65
2025-02-25 18:05:09.045,333.0,-2108.0,-459.0,-249.0,110.0,161.0,115,62,72,86,67
2025-02-25 18:05:09.053,300.0,-2329.0,-519.0,-254.0,81.0,170.0,110,58,70,79,64
2025-02-25 18:05:09.057,189.0,-2329.0,-528.0,-240.0,29.0,176.0,111,59,70,84,63
2025-02-25 18:05:09.061,123.0,-2386.0,-647.0,-226.0,22.0,191.0,114,59,69,85,66
2025-02-25 18:05:09.069,378.0,-2315.0,-419.0,-205.0,19.0,207.0,113,60,73,87,69
2025-02-25 18:05:09.073,384.0,-2321.0,-138.0,-187.0,13.0,219.0,111,61,71,85,65
2025-02-25 18:05:09.077,334.0,-1916.0,-50.0,-170.0,-2.0,222.0,114,59,72,84,67
2025-02-25 18:05:09.081,341.0,-2030.0,70.0,-136.0,-71.0,229.0,115,62,74,85,68
2025-02-25 18:05:09.089,266.0,-1672.0,108.0,-118.0,-59.0,242.0,114,61,72,85,68
2025-02-25 18:05:09.094,361.0,-1406.0,192.0,-115.0,-55.0,242.0,112,59,73,82,66
2025-02-25 18:05:09.098,408.0,-1121.0,175.0,-105.0,-50.0,242.0,114,61,72,81,63
2025-02-25 18:05:09.102,204.0,-1071.0,283.0,-91.0,-58.0,242.0,115,63,74,84,69
2025-02-25 18:05:09.110,240.0,-937.0,364.0,-80.0,-58.0,227.0,114,62,73,83,68
2025-02-25 18:05:09.114,141.0,-862.0,292.0,-79.0,-37.0,221.0,114,62,74,82,68
2025-02-25 18:05:09.119,54.0,-803.0,33.0,-80.0,-32.0,216.0,115,61,72,82,67
2025-02-25 18:05:09.122,-66.0,-781.0,379.0,-88.0,-30.0,217.0,115,64,73,84,65
2025-02-25 18:05:09.131,-197.0,-720.0,213.0,-81.0,-39.0,214.0,114,62,73,83,69
2025-02-25 18:05:09.135,-75.0,-597.0,202.0,-77.0,-38.0,214.0,112,57,72,83,67
2025-02-25 18:05:09.139,-161.0,-512.0,122.0,-73.0,-11.0,217.0,118,65,78,87,69
2025-02-25 18:05:09.144,-197.0,-490.0,117.0,-61.0,-7.0,213.0,117,62,75,87,69
2025-02-25 18:05:09.151,-293.0,-500.0,81.0,-53.0,5.0,209.0,114,61,74,85,67
2025-02-25 18:05:09.156,-317.0,-441.0,67.0,-46.0,2.0,205.0,113,59,76,86,67
2025-02-25 18:05:09.160,-312.0,-423.0,-9.0,-43.0,-1.0,202.0,116,66,79,87,70
2025-02-25 18:05:09.164,-381.0,-437.0,-28.0,-45.0,2.0,199.0,115,59,75,87,69
2025-02-25 18:05:09.168,-410.0,-285.0,-15.0,-41.0,5.0,195.0,114,62,75,85,67
2025-02-25 18:05:09.176,-388.0,-338.0,28.0,-36.0,11.0,190.0,115,61,76,87,69
2025-02-25 18:05:09.180,-450.0,-305.0,-22.0,-32.0,15.0,182.0,115,63,76,86,69
2025-02-25 18:05:09.184,-465.0,-219.0,-8.0,-33.0,18.0,176.0,115,60,72,86,68
2025-02-25 18:05:09.189,-481.0,-175.0,-41.0,-37.0,28.0,172.0,116,62,74,89,71
2025-02-25 18:05:09.193,-573.0,-167.0,-39.0,-36.0,22.0,166.0,115,62,73,86,69
2025-02-25 18:05:09.200,-606.0,-115.0,-42.0,-37.0,17.0,159.0,114,64,74,88,70
2025-02-25 18:05:09.204,-646.0,-89.0,-74.0,-33.0,15.0,156.0,114,62,73,87,69
2025-02-25 18:05:09.208,-689.0,-53.0,-109.0,-31.0,18.0,149.0,118,62,74,90,70
2025-02-25 18:05:09.213,-704.0,-8.0,-128.0,-33.0,24.0,143.0,114,61,72,88,70
2025-02-25 18:05:09.220,-739.0,103.0,-137.0,-28.0,27.0,137.0,116,63,76,89,71
2025-02-25 18:05:09.225,-791.0,147.0,-113.0,-30.0,35.0,130.0,115,62,75,88,71
2025-02-25 18:05:09.229,-810.0,203.0,-157.0,-33.0,33.0,121.0,116,60,72,87,70
2025-02-25 18:05:09.233,-794.0,291.0,-193.0,-30.0,32.0,114.0,114,60,72,86,69
2025-02-25 18:05:09.241,-863.0,379.0,-235.0,-26.0,34.0,110.0,117,60,75,89,73
2025-02-25 18:05:09.246,-883.0,435.0,-230.0,-25.0,39.0,102.0,117,61,74,87,72
2025-02-25 18:05:09.250,-924.0,492.0,-262.0,-21.0,36.0,95.0,114,59,69,87,68
2025-02-25 18:05:09.254,-886.0,520.0,-292.0,-12.0,36.0,91.0,113,59,71,88,68
2025-02-25 18:05:09.258,-875.0,520.0,-278.0,-3.0,38.0,84.0,119,63,72,91,71
2025-02-25 18:05:09.266,-943.0,637.0,-319.0,4.0,38.0,77.0,116,61,72,90,69
2025-02-25 18:05:09.270,-942.0,687.0,-301.0,16.0,41.0,75.0,114,60,69,90,66
2025-02-25 18:05:09.274,-959.0,765.0,-306.0,25.0,45.0,72.0,116,65,70,90,68
2025-02-25 18:05:09.278,-1037.0,905.0,-324.0,30.0,46.0,63.0,118,64,72,91,71
2025-02-25 18:05:09.282,-976.0,982.0,-336.0,37.0,44.0,55.0,114,61,66,88,68
2025-02-25 18:05:09.290,-1016.0,1042.0,-360.0,46.0,39.0,49.0,116,61,69,90,69
2025-02-25 18:05:09.295,-1047.0,1239.0,-386.0,49.0,38.0,34.0,116,61,69,90,70
2025-02-25 18:05:09.299,-1077.0,1419.0,-392.0,57.0,37.0,17.0,116,62,69,89,69
2025-02-25 18:05:09.303,-1171.0,1507.0,-380.0,77.0,35.0,5.0,115,63,70,91,69
2025-02-25 18:05:09.311,-1314.0,1444.0,-513.0,97.0,30.0,-38.0,114,59,69,91,70
2025-02-25 18:05:09.315,-1245.0,1770.0,-482.0,119.0,27.0,-94.0,113,64,68,89,67
2025-02-25 18:05:09.319,-1174.0,1793.0,-627.0,154.0,20.0,-128.0,113,61,67,89,71
2025-02-25 18:05:09.324,-1095.0,1848.0,-690.0,183.0,10.0,-206.0,113,61,71,91,68
2025-02-25 18:05:09.331,-1048.0,1894.0,-635.0,199.0,-12.0,-291.0,111,61,70,94,69
2025-02-25 18:05:09.336,-956.0,1918.0,-575.0,203.0,-44.0,-381.0,112,60,69,89,69
2025-02-25 18:05:09.340,-868.0,1889.0,-429.0,194.0,-63.0,-475.0,111,61,70,92,71
2025-02-25 18:05:09.347,-584.0,1661.0,-350.0,168.0,-99.0,-522.0,113,63,70,91,70
2025-02-25 18:05:09.352,-151.0,1610.0,-175.0,129.0,-139.0,-609.0,113,60,71,93,67
2025-02-25 18:05:09.356,304.0,1248.0,-109.0,95.0,-179.0,-686.0,114,63,73,93,71
2025-02-25 18:05:09.360,845.0,544.0,-67.0,85.0,-225.0,-741.0,114,63,73,96,66
2025-02-25 18:05:09.368,1097.0,-569.0,100.0,81.0,-246.0,-747.0,115,62,73,93,70
2025-02-25 18:05:09.372,1657.0,-1162.0,431.0,82.0,-273.0,-732.0,116,61,73,92,73
2025-02-25 18:05:09.377,2354.0,-2619.0,773.0,113.0,-260.0,-658.0,116,61,74,93,74
2025-02-25 18:05:09.385,2526.0,-4217.0,1383.0,147.0,-212.0,-515.0,117,63,77,95,74
2025-02-25 18:05:09.389,2598.0,-5282.0,1841.0,175.0,-133.0,-329.0,116,62,77,94,73
2025-02-25 18:05:09.394,2768.0,-5831.0,1984.0,220.0,-18.0,-143.0,117,60,82,92,74
2025-02-25 18:05:09.401,3010.0,-5987.0,2045.0,254.0,43.0,0.0,116,62,79,86,72
2025-02-25 18:05:09.404,2892.0,-5977.0,1704.0,299.0,168.0,61.0,117,63,82,81,73
2025-02-25 18:05:09.409,2416.0,-5009.0,1270.0,281.0,173.0,109.0,117,62,80,76,73
2025-02-25 18:05:09.413,2082.0,-4327.0,1702.0,293.0,191.0,128.0,116,58,76,79,73
2025-02-25 18:05:09.422,2183.0,-3578.0,1419.0,204.0,198.0,143.0,117,60,75,81,72
2025-02-25 18:05:09.425,1275.0,-2437.0,1001.0,82.0,188.0,141.0,114,58,74,82,71
2025-02-25 18:05:09.430,802.0,-2256.0,636.0,-49.0,176.0,148.0,117,61,72,87,73
2025-02-25 18:05:09.438,561.0,-2013.0,621.0,-155.0,117.0,158.0,115,63,73,89,73
2025-02-25 18:05:09.442,297.0,-1970.0,280.0,-198.0,51.0,159.0,114,64,72,92,74
2025-02-25 18:05:09.446,375.0,-2049.0,51.0,-243.0,45.0,170.0,112,62,72,89,71
2025-02-25 18:05:09.451,143.0,-2154.0,-244.0,-230.0,40.0,167.0,115,62,73,90,73
2025-02-25 18:05:09.458,271.0,-2248.0,-150.0,-216.0,-4.0,165.0,113,61,77,91,72
2025-02-25 18:05:09.463,59.0,-2453.0,-478.0,-234.0,29.0,188.0,116,58,74,90,77
2025-02-25 18:05:09.467,31.0,-2009.0,-74.0,-208.0,27.0,183.0,115,62,74,88,71
2025-02-25 18:05:09.471,225.0,-2164.0,-53.0,-182.0,-18.0,178.0,113,62,77,88,73
2025-02-25 18:05:09.479,37.0,-1936.0,-67.0,-164.0,-5.0,190.0,117,62,76,91,75
2025-02-25 18:05:09.483,134.0,-1691.0,85.0,-150.0,-32.0,196.0,116,62,83,90,74
2025-02-25 18:05:09.487,136.0,-1541.0,109.0,-143.0,-62.0,203.0,116,63,75,86,73
2025-02-25 18:05:09.492,96.0,-1441.0,167.0,-136.0,-62.0,210.0,118,61,71,89,74
2025-02-25 18:05:09.499,170.0,-1242.0,286.0,-137.0,-50.0,217.0,117,64,77,91,75
2025-02-25 18:05:09.504,52.0,-1094.0,291.0,-125.0,-73.0,212.0,118,63,74,91,75
2025-02-25 18:05:09.508,-18.0,-930.0,402.0,-122.0,-79.0,208.0,119,63,73,89,73
2025-02-25 18:05:09.512,65.0,-813.0,416.0,-105.0,-67.0,206.0,118,62,73,90,73
2025-02-25 18:05:09.520,-70.0,-753.0,418.0,-105.0,-53.0,203.0,120,64,75,90,75
2025-02-25 18:05:09.524,-100.0,-673.0,411.0,-101.0,-45.0,201.0,117,62,74,88,74
2025-02-25 18:05:09.529,-161.0,-519.0,411.0,-88.0,-49.0,196.0,119,61,74,88,71
2025-02-25 18:05:09.533,-104.0,-481.0,322.0,-86.0,-35.0,193.0,120,62,74,91,74
2025-02-25 18:05:09.540,-178.0,-362.0,261.0,-76.0,-33.0,195.0,122,62,76,91,74
2025-02-25 18:05:09.545,-286.0,-275.0,285.0,-63.0,-28.0,188.0,121,60,76,93,74
2025-02-25 18:05:09.549,-209.0,-181.0,220.0,-54.0,-9.0,187.0,123,62,76,89,71
2025-02-25 18:05:09.553,-326.0,-160.0,211.0,-54.0,7.0,182.0,123,63,75,88,75
2025-02-25 18:05:09.561,-350.0,-67.0,199.0,-55.0,14.0,176.0,122,63,76,91,74
2025-02-25 18:05:09.565,-352.0,13.0,155.0,-63.0,19.0,170.0,120,62,77,89,73
2025-02-25 18:05:09.569,-337.0,34.0,86.0,-71.0,22.0,165.0,123,63,74,90,74
2025-02-25 18:05:09.574,-431.0,199.0,123.0,-79.0,28.0,155.0,123,61,74,89,74
2025-02-25 18:05:09.578,-479.0,68.0,63.0,-84.0,27.0,141.0,124,61,73,89,71
2025-02-25 18:05:09.585,-446.0,81.0,11.0,-94.0,29.0,138.0,124,64,74,90,75
2025-02-25 18:05:09.590,-508.0,85.0,-10.0,-96.0,33.0,128.0,125,64,75,92,74
2025-02-25 18:05:09.594,-540.0,27.0,-63.0,-94.0,30.0,120.0,123,62,71,90,71
2025-02-25 18:05:09.598,-588.0,-5.0,-98.0,-91.0,33.0,118.0,127,63,70,91,74
2025-02-25 18:05:09.603,-594.0,-18.0,-107.0,-84.0,36.0,111.0,127,64,74,91,74
2025-02-25 18:05:09.610,-589.0,-70.0,-105.0,-84.0,37.0,106.0,124,62,71,90,72
2025-02-25 18:05:09.614,-646.0,-81.0,-136.0,-77.0,40.0,105.0,125,62,74,89,72
2025-02-25 18:05:09.618,-655.0,-134.0,-155.0,-67.0,43.0,103.0,126,64,74,90,73
2025-02-25 18:05:09.622,-684.0,-160.0,-177.0,-58.0,42.0,99.0,127,61,75,90,70
2025-02-25 18:05:09.630,-710.0,-159.0,-184.0,-49.0,45.0,98.0,125,62,72,90,70
2025-02-25 18:05:09.634,-679.0,-142.0,-196.0,-40.0,50.0,95.0,130,64,75,90,71
2025-02-25 18:05:09.638,-695.0,-157.0,-259.0,-35.0,51.0,94.0,129,63,74,88,72
2025-02-25 18:05:09.643,-693.0,-151.0,-284.0,-26.0,50.0,93.0,129,63,73,90,70
2025-02-25 18:05:09.650,-689.0,-125.0,-276.0,-17.0,53.0,94.0,132,64,73,91,72
2025-02-25 18:05:09.655,-708.0,-110.0,-284.0,-15.0,49.0,96.0,130,64,75,91,71
2025-02-25 18:05:09.659,-709.0,-84.0,-261.0,-10.0,44.0,97.0,129,63,72,92,72
2025-02-25 18:05:09.663,-754.0,-35.0,-277.0,-4.0,41.0,98.0,131,62,73,90,71
2025-02-25 18:05:09.667,-771.0,-13.0,-276.0,1.0,37.0,98.0,133,63,73,85,72
2025-02-25 18:05:09.671,-792.0,73.0,-255.0,4.0,36.0,95.0,130,60,71,90,70
2025-02-25 18:05:09.680,-833.0,65.0,-186.0,10.0,34.0,91.0,133,62,71,91,69
2025-02-25 18:05:09.684,-863.0,171.0,-229.0,22.0,26.0,80.0,134,66,74,87,72
2025-02-25 18:05:09.688,-951.0,235.0,-191.0,27.0,25.0,66.0,133,62,72,86,71
2025-02-25 18:05:09.692,-949.0,351.0,-230.0,34.0,21.0,56.0,132,61,69,84,69
2025-02-25 18:05:09.696,-978.0,444.0,-238.0,39.0,12.0,37.0,134,64,72,86,72
2025-02-25 18:05:09.704,-1013.0,656.0,-295.0,42.0,5.0,17.0,134,62,72,86,71
2025-02-25 18:05:09.708,-1028.0,753.0,-330.0,46.0,1.0,4.0,135,61,70,91,70
2025-02-25 18:05:09.712,-1084.0,991.0,-351.0,55.0,-9.0,-20.0,135,64,72,93,72
2025-02-25 18:05:09.716,-1121.0,1331.0,-407.0,60.0,-13.0,-53.0,135,61,73,92,68
2025-02-25 18:05:09.725,-1178.0,1536.0,-490.0,75.0,-14.0,-70.0,137,63,72,93,73
2025-02-25 18:05:09.729,-1328.0,1601.0,-554.0,94.0,-17.0,-108.0,138,65,76,92,74
2025-02-25 18:05:09.733,-1430.0,1661.0,-715.0,102.0,-23.0,-152.0,138,62,71,90,71
2025-02-25 18:05:09.737,-1470.0,1726.0,-821.0,125.0,-24.0,-197.0,136,63,72,89,72
2025-02-25 18:05:09.745,-1576.0,1652.0,-850.0,150.0,-26.0,-242.0,138,62,70,91,73
2025-02-25 18:05:09.749,-1591.0,1626.0,-845.0,175.0,-37.0,-266.0,139,62,72,92,72
2025-02-25 18:05:09.753,-1584.0,1570.0,-830.0,202.0,-58.0,-314.0,138,61,72,90,76
2025-02-25 18:05:09.761,-1501.0,1433.0,-832.0,228.0,-81.0,-359.0,142,63,74,93,75
2025-02-25 18:05:09.766,-1383.0,1322.0,-814.0,239.0,-101.0,-394.0,142,64,71,91,73
2025-02-25 18:05:09.770,-1226.0,1223.0,-733.0,268.0,-112.0,-426.0,140,61,73,92,75
2025-02-25 18:05:09.778,-1076.0,1148.0,-655.0,279.0,-150.0,-456.0,142,60,71,89,71
2025-02-25 18:05:09.782,-785.0,1146.0,-510.0,281.0,-194.0,-470.0,143,60,72,89,71
2025-02-25 18:05:09.787,-456.0,1073.0,-331.0,261.0,-235.0,-496.0,147,58,74,89,75
2025-02-25 18:05:09.794,-32.0,1006.0,-203.0,226.0,-273.0,-523.0,141,60,71,85,74
2025-02-25 18:05:09.798,488.0,842.0,-105.0,210.0,-309.0,-554.0,148,63,75,88,72
2025-02-25 18:05:09.802,715.0,638.0,168.0,173.0,-323.0,-575.0,148,62,73,90,71
2025-02-25 18:05:09.810,1318.0,354.0,489.0,137.0,-348.0,-577.0,146,60,72,88,72
2025-02-25 18:05:09.815,1808.0,-534.0,645.0,118.0,-359.0,-555.0,148,61,74,92,74
2025-02-25 18:05:09.819,2375.0,-1670.0,918.0,117.0,-344.0,-514.0,150,63,75,92,74
2025-02-25 18:05:09.823,2795.0,-2933.0,1439.0,111.0,-296.0,-454.0,151,60,76,89,75
2025-02-25 18:05:09.831,2978.0,-3951.0,1985.0,126.0,-264.0,-367.0,150,59,74,88,74
2025-02-25 18:05:09.835,3402.0,-4575.0,2555.0,171.0,-185.0,-264.0,150,62,74,86,74
2025-02-25 18:05:09.840,3593.0,-4881.0,2969.0,199.0,-93.0,-215.0,152,61,78,84,75
2025-02-25 18:05:09.848,3670.0,-4924.0,3030.0,206.0,19.0,-118.0,154,60,78,83,75
2025-02-25 18:05:09.852,3588.0,-4474.0,2902.0,172.0,132.0,-36.0,153,60,80,80,74
2025-02-25 18:05:09.856,2878.0,-4175.0,2443.0,139.0,218.0,24.0,153,60,81,78,72
2025-02-25 18:05:09.864,2589.0,-3311.0,1766.0,40.0,239.0,76.0,156,61,82,72,70
2025-02-25 18:05:09.868,1760.0,-3212.0,1376.0,-60.0,256.0,87.0,155,61,84,79,71
2025-02-25 18:05:09.872,1286.0,-2337.0,469.0,-63.0,175.0,109.0,156,64,84,78,74
2025-02-25 18:05:09.877,1166.0,-2596.0,111.0,-117.0,128.0,114.0,156,64,82,79,69
2025-02-25 18:05:09.884,645.0,-2535.0,46.0,-173.0,128.0,135.0,155,64,80,79,69
2025-02-25 18:05:09.889,521.0,-2098.0,-374.0,-171.0,45.0,140.0,153,62,77,81,70
2025-02-25 18:05:09.893,439.0,-2348.0,-280.0,-216.0,15.0,164.0,154,64,77,83,70
2025-02-25 18:05:09.900,442.0,-2222.0,-115.0,-195.0,-3.0,164.0,154,63,76,86,71
2025-02-25 18:05:09.905,312.0,-2217.0,-149.0,-192.0,-8.0,175.0,154,63,75,87,69
2025-02-25 18:05:09.909,463.0,-2367.0,-54.0,-138.0,-2.0,187.0,154,62,75,86,71
2025-02-25 18:05:09.913,576.0,-2312.0,124.0,-108.0,17.0,190.0,156,64,76,86,73
2025-02-25 18:05:09.921,491.0,-1950.0,43.0,-75.0,50.0,199.0,156,63,76,88,75
2025-02-25 18:05:09.925,478.0,-1683.0,467.0,-84.0,48.0,204.0,153,63,75,87,71
2025-02-25 18:05:09.930,570.0,-1418.0,466.0,-81.0,51.0,215.0,154,62,76,86,70
2025-02-25 18:05:09.934,448.0,-1415.0,384.0,-60.0,12.0,219.0,154,64,76,84,73
2025-02-25 18:05:09.938,251.0,-1262.0,465.0,-52.0,-7.0,221.0,155,64,80,84,70
2025-02-25 18:05:09.946,191.0,-1018.0,360.0,-28.0,-2.0,222.0,154,61,78,83,72
2025-02-25 18:05:09.950,16.0,-948.0,348.0,-7.0,4.0,219.0,155,65,80,84,72
2025-02-25 18:05:09.954,44.0,-941.0,384.0,1.0,-14.0,219.0,155,66,79,82,73
2025-02-25 18:05:09.958,20.0,-685.0,393.0,1.0,-13.0,219.0,155,65,75,81,72
2025-02-25 18:05:09.963,-10.0,-644.0,479.0,-26.0,-23.0,218.0,157,63,79,85,73
2025-02-25 18:05:09.970,-70.0,-522.0,436.0,-37.0,-22.0,209.0,155,67,78,83,73
2025-02-25 18:05:09.975,-83.0,-452.0,365.0,-35.0,-21.0,200.0,154,64,78,84,70
2025-02-25 18:05:09.979,-133.0,-417.0,381.0,-64.0,-5.0,199.0,155,63,77,84,72
2025-02-25 18:05:09.983,-228.0,-316.0,338.0,-67.0,9.0,193.0,156,64,76,88,74
2025-02-25 18:05:09.990,-266.0,-313.0,363.0,-76.0,12.0,190.0,156,64,75,88,71
2025-02-25 18:05:09.995,-337.0,-347.0,247.0,-72.0,11.0,189.0,155,64,74,85,71
2025-02-25 18:05:09.999,-348.0,-268.0,283.0,-78.0,17.0,182.0,157,65,78,86,73
2025-02-25 18:05:10.003,-376.0,-190.0,250.0,-74.0,29.0,170.0,154,62,77,85,73
2025-02-25 18:05:10.011,-358.0,-161.0,303.0,-90.0,44.0,159.0,155,62,75,85,70
2025-02-25 18:05:10.017,-386.0,-136.0,217.0,-101.0,65.0,153.0,154,63,76,88,73
2025-02-25 18:05:10.019,-481.0,-136.0,243.0,-120.0,64.0,148.0,156,66,77,86,72
2025-02-25 18:05:10.023,-543.0,-120.0,169.0,-126.0,58.0,143.0,156,67,76,86,73
2025-02-25 18:05:10.032,-570.0,-117.0,50.0,-122.0,60.0,137.0,155,62,75,86,71
2025-02-25 18:05:10.035,-641.0,-121.0,46.0,-115.0,63.0,130.0,156,65,78,87,74
2025-02-25 18:05:10.040,-702.0,-68.0,-31.0,-112.0,62.0,123.0,157,67,79,86,73
2025-02-25 18:05:10.044,-774.0,-105.0,-17.0,-104.0,49.0,112.0,156,62,76,86,71
2025-02-25 18:05:10.052,-791.0,-119.0,-172.0,-88.0,25.0,105.0,153,61,74,84,72
2025-02-25 18:05:10.056,-814.0,-78.0,-94.0,-76.0,10.0,97.0,156,65,77,88,72
2025-02-25 18:05:10.060,-839.0,-47.0,-194.0,-66.0,22.0,90.0,156,66,78,86,72
2025-02-25 18:05:10.064,-818.0,-77.0,-176.0,-56.0,9.0,81.0,157,63,74,85,71
2025-02-25 18:05:10.069,-903.0,-99.0,-113.0,-51.0,-2.0,77.0,155,65,76,88,73
2025-02-25 18:05:10.077,-898.0,0.0,-197.0,-42.0,-1.0,68.0,155,63,77,86,76
2025-02-25 18:05:10.081,-905.0,72.0,-203.0,-35.0,4.0,60.0,155,64,79,88,74
2025-02-25 18:05:10.085,-928.0,102.0,-188.0,-26.0,3.0,57.0,155,64,77,87,73
2025-02-25 18:05:10.089,-938.0,112.0,-178.0,-20.0,-3.0,43.0,156,63,77,87,70
2025-02-25 18:05:10.094,-932.0,195.0,-190.0,-20.0,0.0,34.0,154,61,75,86,71
2025-02-25 18:05:10.098,-1009.0,171.0,-181.0,-20.0,9.0,29.0,156,63,76,87,74
2025-02-25 18:05:10.106,-1032.0,218.0,-160.0,-19.0,9.0,19.0,154,65,79,86,71
2025-02-25 18:05:10.110,-1033.0,269.0,-140.0,-16.0,9.0,6.0,154,62,77,86,71
2025-02-25 18:05:10.114,-1060.0,304.0,-115.0,-12.0,14.0,0.0,156,64,76,87,74
2025-02-25 18:05:10.118,-1078.0,342.0,-119.0,-9.0,20.0,-15.0,153,63,75,87,74
2025-02-25 18:05:10.125,-1081.0,382.0,-98.0,0.0,20.0,-32.0,156,63,76,87,70
2025-02-25 18:05:10.129,-1096.0,419.0,-89.0,5.0,17.0,-39.0,156,64,78,89,73
2025-02-25 18:05:10.134,-1145.0,429.0,-121.0,12.0,17.0,-51.0,156,62,76,87,71
2025-02-25 18:05:10.138,-1176.0,450.0,-130.0,21.0,16.0,-65.0,155,62,76,85,70
2025-02-25 18:05:10.142,-1195.0,452.0,-135.0,36.0,11.0,-73.0,157,66,78,88,73
2025-02-25 18:05:10.151,-1208.0,499.0,-155.0,46.0,5.0,-87.0,156,64,75,88,73
2025-02-25 18:05:10.154,-1200.0,516.0,-203.0,56.0,2.0,-107.0,155,65,79,88,71
2025-02-25 18:05:10.158,-1238.0,508.0,-196.0,70.0,-5.0,-116.0,154,64,75,88,70
2025-02-25 18:05:10.163,-1274.0,531.0,-201.0,82.0,-5.0,-134.0,156,65,77,89,73
2025-02-25 18:05:10.171,-1174.0,563.0,-131.0,84.0,-6.0,-150.0,157,62,74,89,74
2025-02-25 18:05:10.175,-1176.0,520.0,-86.0,93.0,-8.0,-168.0,155,64,75,87,72
2025-02-25 18:05:10.179,-1115.0,510.0,-75.0,104.0,-9.0,-176.0,156,66,76,87,72
2025-02-25 18:05:10.184,-1007.0,460.0,-59.0,118.0,-12.0,-198.0,156,66,78,86,73
2025-02-25 18:05:10.191,-906.0,425.0,-19.0,122.0,-21.0,-218.0,155,64,77,87,73
2025-02-25 18:05:10.196,-847.0,360.0,-1.0,130.0,-25.0,-239.0,155,62,75,87,71
2025-02-25 18:05:10.200,-700.0,350.0,22.0,130.0,-30.0,-247.0,159,66,78,89,75
2025-02-25 18:05:10.204,-556.0,256.0,31.0,122.0,-33.0,-265.0,157,64,76,88,72
2025-02-25 18:05:10.212,-400.0,151.0,73.0,118.0,-39.0,-283.0,157,63,74,88,73
2025-02-25 18:05:10.216,-317.0,20.0,99.0,107.0,-41.0,-292.0,154,65,77,87,71
2025-02-25 18:05:10.221,-119.0,-47.0,120.0,98.0,-38.0,-306.0,157,64,78,90,74
2025-02-25 18:05:10.225,86.0,-358.0,180.0,96.0,-35.0,-319.0,155,65,77,86,72
2025-02-25 18:05:10.233,165.0,-728.0,224.0,96.0,-35.0,-321.0,154,65,74,87,72
2025-02-25 18:05:10.237,395.0,-922.0,264.0,103.0,-35.0,-317.0,155,65,76,87,73
2025-02-25 18:05:10.241,617.0,-1347.0,300.0,104.0,-35.0,-305.0,158,66,79,90,75
2025-02-25 18:05:10.245,812.0,-1748.0,384.0,106.0,-34.0,-285.0,155,66,78,88,76
2025-02-25 18:05:10.253,887.0,-2167.0,522.0,115.0,-39.0,-260.0,154,61,77,84,74
2025-02-25 18:05:10.257,1072.0,-2329.0,751.0,109.0,-51.0,-246.0,154,62,83,86,73
2025-02-25 18:05:10.261,1361.0,-2519.0,937.0,103.0,-53.0,-210.0,157,64,80,87,73
2025-02-25 18:05:10.266,1708.0,-2711.0,1270.0,96.0,-48.0,-176.0,159,66,79,83,72
2025-02-25 18:05:10.273,1933.0,-3000.0,1432.0,72.0,-35.0,-147.0,158,67,80,85,71
2025-02-25 18:05:10.278,2017.0,-3239.0,1523.0,43.0,-27.0,-115.0,157,65,82,82,74
2025-02-25 18:05:10.282,1955.0,-3343.0,1311.0,11.0,-8.0,-95.0,157,60,83,82,77
2025-02-25 18:05:10.290,1811.0,-3532.0,1269.0,-30.0,23.0,-50.0,158,64,82,82,77
2025-02-25 18:05:10.293,1671.0,-3387.0,873.0,-12.0,37.0,-7.0,157,63,82,83,77
2025-02-25 18:05:10.298,1672.0,-3299.0,854.0,-63.0,37.0,36.0,157,62,80,82,75
2025-02-25 18:05:10.302,1420.0,-3237.0,575.0,-80.0,39.0,59.0,156,65,82,85,72
2025-02-25 18:05:10.310,1243.0,-3235.0,489.0,-125.0,36.0,98.0,158,67,82,87,78
2025-02-25 18:05:10.315,1025.0,-2979.0,159.0,-135.0,33.0,136.0,154,64,79,83,73
2025-02-25 18:05:10.318,875.0,-2667.0,125.0,-163.0,25.0,153.0,155,66,79,83,77
2025-02-25 18:05:10.322,854.0,-2492.0,-17.0,-164.0,15.0,162.0,159,66,79,86,76
2025-02-25 18:05:10.331,697.0,-2301.0,-88.0,-164.0,19.0,174.0,157,66,80,88,76
2025-02-25 18:05:10.335,588.0,-2164.0,-189.0,-160.0,24.0,192.0,157,62,79,87,73
2025-02-25 18:05:10.340,575.0,-2078.0,-136.0,-161.0,12.0,204.0,156,64,80,85,75
2025-02-25 18:05:10.344,501.0,-1948.0,-209.0,-172.0,-25.0,208.0,161,70,85,91,82
2025-02-25 18:05:10.351,369.0,-1863.0,-213.0,-196.0,-47.0,228.0,161,70,85,94,80
2025-02-25 18:05:10.356,453.0,-1714.0,-126.0,-209.0,-74.0,237.0,163,71,85,94,82
2025-02-25 18:05:10.360,368.0,-1644.0,-169.0,-185.0,-90.0,246.0,165,72,88,97,84
2025-02-25 18:05:10.368,384.0,-1445.0,-78.0,-198.0,-91.0,246.0,164,72,90,98,85
2025-02-25 18:05:10.372,261.0,-1300.0,-49.0,-179.0,-84.0,246.0,164,74,86,95,81
2025-02-25 18:05:10.376,179.0,-1123.0,61.0,-176.0,-100.0,241.0,160,69,84,92,80
2025-02-25 18:05:10.381,136.0,-1112.0,57.0,-169.0,-110.0,244.0,161,69,82,91,81
2025-02-25 18:05:10.389,56.0,-1077.0,129.0,-144.0,-107.0,245.0,158,66,82,92,82
2025-02-25 18:05:10.393,20.0,-1005.0,267.0,-140.0,-103.0,247.0,158,66,81,93,79
2025-02-25 18:05:10.396,-117.0,-975.0,256.0,-127.0,-99.0,252.0,161,70,83,95,84
2025-02-25 18:05:10.404,-214.0,-834.0,234.0,-116.0,-79.0,259.0,159,70,89,96,85
2025-02-25 18:05:10.409,-303.0,-617.0,220.0,-108.0,-68.0,268.0,157,67,85,96,83
2025-02-25 18:05:10.413,-326.0,-450.0,253.0,-98.0,-44.0,277.0,162,71,86,97,89
2025-02-25 18:05:10.417,-416.0,-357.0,212.0,-79.0,-27.0,278.0,159,70,84,98,82
2025-02-25 18:05:10.425,-438.0,-191.0,259.0,-77.0,-20.0,269.0,156,67,77,95,81
2025-02-25 18:05:10.429,-490.0,-59.0,270.0,-79.0,-20.0,257.0,155,64,81,95,80
2025-02-25 18:05:10.433,-515.0,2.0,275.0,-72.0,-18.0,251.0,154,62,77,96,83
2025-02-25 18:05:10.438,-552.0,120.0,218.0,-66.0,-9.0,236.0,155,63,81,96,79
2025-02-25 18:05:10.442,-562.0,258.0,234.0,-68.0,0.0,220.0,153,65,79,96,78
2025-02-25 18:05:10.450,-577.0,285.0,264.0,-66.0,6.0,212.0,153,62,79,95,82
2025-02-25 18:05:10.454,-614.0,281.0,256.0,-56.0,25.0,197.0,154,67,87,97,80
2025-02-25 18:05:10.458,-648.0,288.0,267.0,-53.0,40.0,184.0,153,65,80,98,82
2025-02-25 18:05:10.462,-673.0,245.0,195.0,-44.0,45.0,168.0,150,65,83,99,83
2025-02-25 18:05:10.470,-736.0,197.0,176.0,-39.0,53.0,162.0,153,66,80,98,84
2025-02-25 18:05:10.474,-813.0,141.0,94.0,-35.0,51.0,148.0,152,66,81,101,84
2025-02-25 18:05:10.479,-870.0,138.0,38.0,-37.0,49.0,138.0,152,66,80,98,83
2025-02-25 18:05:10.482,-935.0,168.0,8.0,-26.0,50.0,136.0,153,64,84,102,82
2025-02-25 18:05:10.487,-981.0,117.0,12.0,-24.0,53.0,130.0,154,68,84,101,87
2025-02-25 18:05:10.495,-1000.0,137.0,60.0,-3.0,58.0,123.0,152,70,83,102,87
2025-02-25 18:05:10.499,-1031.0,122.0,-111.0,10.0,54.0,119.0,152,69,85,102,89
2025-02-25 18:05:10.503,-992.0,191.0,-63.0,21.0,45.0,104.0,153,72,82,103,87
2025-02-25 18:05:10.508,-1005.0,190.0,-41.0,26.0,43.0,90.0,151,67,84,105,87
2025-02-25 18:05:10.512,-995.0,203.0,-100.0,30.0,38.0,82.0,152,67,83,108,87
2025-02-25 18:05:10.519,-955.0,277.0,-34.0,39.0,34.0,65.0,153,71,84,106,89
2025-02-25 18:05:10.524,-934.0,243.0,-69.0,46.0,30.0,48.0,152,72,84,104,90
2025-02-25 18:05:10.528,-924.0,279.0,-62.0,46.0,19.0,38.0,152,72,84,108,89
2025-02-25 18:05:10.532,-843.0,329.0,-81.0,60.0,9.0,24.0,153,74,81,107,92
2025-02-25 18:05:10.536,-869.0,333.0,-22.0,65.0,9.0,12.0,151,73,88,107,93
2025-02-25 18:05:10.540,-868.0,281.0,2.0,76.0,6.0,6.0,150,76,88,110,94
2025-02-25 18:05:10.548,-850.0,336.0,-33.0,84.0,7.0,-1.0,152,76,92,110,96
2025-02-25 18:05:10.552,-884.0,387.0,-145.0,85.0,2.0,-8.0,153,78,90,108,99
2025-02-25 18:05:10.557,-917.0,372.0,-195.0,81.0,1.0,-11.0,151,80,91,108,96
2025-02-25 18:05:10.561,-988.0,468.0,-229.0,86.0,-3.0,-16.0,153,84,92,111,98
2025-02-25 18:05:10.569,-1050.0,516.0,-240.0,90.0,-2.0,-22.0,152,82,95,109,101
2025-02-25 18:05:10.573,-1058.0,587.0,-261.0,89.0,-3.0,-27.0,149,84,95,112,101
2025-02-25 18:05:10.577,-1074.0,631.0,-300.0,101.0,-7.0,-40.0,151,87,96,110,101
2025-02-25 18:05:10.581,-1085.0,753.0,-314.0,108.0,-15.0,-59.0,152,88,96,110,104
2025-02-25 18:05:10.589,-1067.0,792.0,-321.0,126.0,-19.0,-86.0,150,92,99,110,106
2025-02-25 18:05:10.593,-1037.0,839.0,-251.0,151.0,-21.0,-109.0,150,91,99,110,108
2025-02-25 18:05:10.598,-1032.0,876.0,-365.0,171.0,-29.0,-123.0,149,100,101,110,107
2025-02-25 18:05:10.605,-1082.0,962.0,-348.0,192.0,-38.0,-155.0,152,103,104,111,109
2025-02-25 18:05:10.610,-1098.0,987.0,-377.0,201.0,-40.0,-189.0,151,105,104,110,109
2025-02-25 18:05:10.617,-1084.0,1018.0,-389.0,217.0,-42.0,-222.0,149,103,102,112,115
2025-02-25 18:05:10.622,-926.0,1012.0,-326.0,228.0,-48.0,-270.0,151,108,108,115,112
2025-02-25 18:05:10.626,-718.0,947.0,-488.0,230.0,-62.0,-312.0,152,110,107,113,111
2025-02-25 18:05:10.634,-899.0,1062.0,119.0,226.0,-42.0,-363.0,150,109,106,114,112
2025-02-25 18:05:10.638,-391.0,631.0,-545.0,300.0,-78.0,-385.0,151,110,108,113,111
2025-02-25 18:05:10.643,-251.0,539.0,-439.0,287.0,-99.0,-425.0,151,111,105,114,113
2025-02-25 18:05:10.650,-247.0,460.0,-56.0,251.0,-99.0,-449.0,151,114,107,114,113
2025-02-25 18:05:10.654,-254.0,572.0,-230.0,233.0,-116.0,-468.0,150,112,107,115,113
2025-02-25 18:05:10.662,-63.0,489.0,-62.0,232.0,-162.0,-501.0,150,113,111,118,116
2025-02-25 18:05:10.667,249.0,166.0,13.0,210.0,-197.0,-526.0,153,117,110,116,116
2025-02-25 18:05:10.671,685.0,-78.0,-1.0,178.0,-241.0,-541.0,151,118,110,118,118
2025-02-25 18:05:10.679,1064.0,-449.0,51.0,157.0,-285.0,-538.0,149,117,109,118,117
2025-02-25 18:05:10.683,1404.0,-1042.0,230.0,121.0,-307.0,-529.0,151,119,110,118,119
2025-02-25 18:05:10.688,1508.0,-1946.0,557.0,92.0,-309.0,-498.0,152,121,111,118,117
2025-02-25 18:05:10.695,1653.0,-2618.0,929.0,31.0,-291.0,-461.0,150,123,108,126,119
2025-02-25 18:05:10.700,2018.0,-3034.0,1023.0,-12.0,-272.0,-411.0,152,122,107,118,120
2025-02-25 18:05:10.708,2493.0,-3337.0,1124.0,-48.0,-264.0,-349.0,151,123,109,120,119
2025-02-25 18:05:10.712,2759.0,-3521.0,1195.0,-92.0,-246.0,-316.0,153,123,106,119,118
2025-02-25 18:05:10.716,2746.0,-3748.0,1716.0,-174.0,-198.0,-254.0,152,127,112,121,120
2025-02-25 18:05:10.724,2526.0,-4130.0,2131.0,-287.0,-155.0,-185.0,155,127,110,117,121
2025-02-25 18:05:10.729,2043.0,-3543.0,1810.0,-242.0,-56.0,-44.0,156,129,111,118,120
2025-02-25 18:05:10.737,2057.0,-3465.0,1171.0,-172.0,-68.0,-3.0,155,130,109,123,116
2025-02-25 18:05:10.740,2253.0,-3287.0,1067.0,-166.0,-46.0,85.0,152,127,109,120,123
2025-02-25 18:05:10.745,1756.0,-3381.0,771.0,-202.0,33.0,180.0,155,128,110,121,122
2025-02-25 18:05:10.753,1540.0,-3157.0,590.0,-195.0,85.0,255.0,155,127,110,120,123
2025-02-25 18:05:10.757,1339.0,-2856.0,385.0,-216.0,87.0,290.0,152,128,110,121,123
2025-02-25 18:05:10.762,1196.0,-2514.0,391.0,-201.0,79.0,299.0,157,131,109,119,121
2025-02-25 18:05:10.769,802.0,-2220.0,23.0,-186.0,19.0,296.0,155,127,108,120,122
2025-02-25 18:05:10.774,719.0,-2068.0,358.0,-194.0,19.0,294.0,154,127,110,120,120
2025-02-25 18:05:10.778,604.0,-1729.0,26.0,-132.0,37.0,287.0,152,126,109,119,122
2025-02-25 18:05:10.786,395.0,-1583.0,277.0,-81.0,39.0,283.0,156,126,109,119,123
2025-02-25 18:05:10.790,372.0,-1621.0,287.0,-52.0,52.0,270.0,153,125,111,121,123
2025-02-25 18:05:10.794,364.0,-1448.0,168.0,-3.0,35.0,251.0,153,125,110,120,126
2025-02-25 18:05:10.802,173.0,-1332.0,69.0,2.0,2.0,231.0,153,126,110,123,124
2025-02-25 18:05:10.806,220.0,-1208.0,304.0,20.0,7.0,219.0,150,126,110,120,122
2025-02-25 18:05:10.810,229.0,-1068.0,176.0,28.0,-6.0,213.0,152,126,114,123,124
2025-02-25 18:05:10.815,88.0,-1021.0,292.0,24.0,2.0,209.0,152,125,111,121,123
2025-02-25 18:05:10.822,31.0,-768.0,157.0,24.0,0.0,204.0,154,128,112,121,125
2025-02-25 18:05:10.826,81.0,-661.0,126.0,17.0,-5.0,199.0,150,125,109,119,122
2025-02-25 18:05:10.830,-15.0,-659.0,344.0,56.0,4.0,199.0,153,127,108,121,124
2025-02-25 18:05:10.835,-110.0,-644.0,402.0,53.0,11.0,197.0,152,127,111,123,127
2025-02-25 18:05:10.843,-68.0,-590.0,314.0,82.0,18.0,197.0,154,129,114,125,127
2025-02-25 18:05:10.847,-129.0,-529.0,408.0,116.0,26.0,195.0,153,129,112,122,125
2025-02-25 18:05:10.852,-183.0,-542.0,545.0,148.0,48.0,196.0,153,128,110,121,123
2025-02-25 18:05:10.859,-146.0,-592.0,655.0,160.0,122.0,210.0,154,128,112,122,125
2025-02-25 18:05:10.864,-180.0,-425.0,501.0,117.0,172.0,212.0,154,129,113,124,134
2025-02-25 18:05:10.868,-350.0,-235.0,-447.0,38.0,134.0,200.0,154,129,112,123,125
2025-02-25 18:05:10.876,-420.0,-270.0,-591.0,5.0,87.0,190.0,152,130,113,123,125
2025-02-25 18:05:10.880,-533.0,-388.0,-285.0,-106.0,69.0,185.0,151,129,111,122,124
2025-02-25 18:05:10.884,-486.0,-330.0,76.0,-192.0,47.0,181.0,152,132,115,123,124
2025-02-25 18:05:10.892,-450.0,-360.0,285.0,-210.0,52.0,180.0,151,128,112,123,123
2025-02-25 18:05:10.896,-490.0,-299.0,279.0,-209.0,72.0,175.0,153,131,115,124,126
2025-02-25 18:05:10.900,-493.0,-175.0,173.0,-199.0,84.0,164.0,159,133,116,126,128
2025-02-25 18:05:10.909,-466.0,-67.0,61.0,-172.0,103.0,160.0,155,132,118,126,126
2025-02-25 18:05:10.913,-622.0,-1.0,-146.0,-169.0,87.0,152.0,153,129,114,124,123
2025-02-25 18:05:10.917,-697.0,-7.0,-328.0,-200.0,67.0,133.0,151,127,116,126,123
2025-02-25 18:05:10.925,-759.0,-34.0,-148.0,-222.0,31.0,115.0,149,129,116,127,124
2025-02-25 18:05:10.929,-814.0,12.0,61.0,-197.0,21.0,110.0,153,129,115,124,125
2025-02-25 18:05:10.933,-828.0,25.0,96.0,-148.0,31.0,107.0,155,128,114,127,124
2025-02-25 18:05:10.941,-887.0,104.0,-23.0,-122.0,25.0,96.0,152,129,114,125,124
2025-02-25 18:05:10.945,-969.0,122.0,-132.0,-99.0,19.0,84.0,153,130,112,124,124
2025-02-25 18:05:10.949,-989.0,121.0,-155.0,-83.0,12.0,72.0,152,127,112,124,125
2025-02-25 18:05:10.955,-975.0,186.0,-198.0,-69.0,8.0,65.0,152,129,112,125,125
2025-02-25 18:05:10.961,-984.0,175.0,-160.0,-51.0,4.0,48.0,153,129,114,125,125
2025-02-25 18:05:10.966,-996.0,233.0,-213.0,-37.0,-4.0,30.0,152,129,115,125,125
2025-02-25 18:05:10.970,-997.0,249.0,-180.0,-17.0,-5.0,15.0,155,129,112,124,123
2025-02-25 18:05:10.978,-1066.0,343.0,-275.0,7.0,-10.0,5.0,152,126,112,125,125
2025-02-25 18:05:10.981,-1124.0,346.0,-268.0,29.0,-21.0,-12.0,153,131,115,127,127
2025-02-25 18:05:10.987,-1105.0,342.0,-227.0,57.0,-28.0,-31.0,154,131,116,127,127
2025-02-25 18:05:10.994,-1127.0,335.0,-166.0,80.0,-29.0,-47.0,153,128,116,127,127
2025-02-25 18:05:10.998,-1162.0,341.0,-120.0,104.0,-27.0,-64.0,153,130,117,127,124
2025-02-25 18:05:11.003,-1137.0,367.0,-141.0,137.0,-26.0,-79.0,154,123,113,125,129
2025-02-25 18:05:11.010,-1121.0,438.0,-106.0,149.0,-22.0,-93.0,152,128,115,126,125
2025-02-25 18:05:11.015,-1135.0,433.0,-105.0,156.0,-13.0,-105.0,152,127,115,126,125
2025-02-25 18:05:11.019,-1193.0,440.0,-224.0,136.0,-8.0,-112.0,152,127,115,125,126
2025-02-25 18:05:11.027,-1231.0,517.0,-233.0,117.0,-11.0,-127.0,154,130,120,128,128
2025-02-25 18:05:11.031,-1266.0,542.0,-189.0,109.0,-12.0,-141.0,154,129,119,128,130
2025-02-25 18:05:11.039,-1236.0,574.0,-121.0,117.0,-9.0,-158.0,154,130,118,128,128
2025-02-25 18:05:11.043,-1225.0,540.0,-80.0,127.0,-6.0,-177.0,153,131,118,129,130
2025-02-25 18:05:11.048,-1137.0,577.0,-84.0,135.0,-8.0,-200.0,155,129,118,128,127
2025-02-25 18:05:11.052,-1066.0,512.0,4.0,156.0,-8.0,-227.0,152,129,119,128,127
2025-02-25 18:05:11.060,-1001.0,502.0,22.0,168.0,-11.0,-258.0,155,130,117,129,128
2025-02-25 18:05:11.064,-827.0,490.0,93.0,169.0,-23.0,-275.0,156,130,118,129,130
2025-02-25 18:05:11.069,-661.0,391.0,153.0,165.0,-34.0,-309.0,160,135,121,135,132
2025-02-25 18:05:11.077,-458.0,319.0,160.0,154.0,-50.0,-344.0,161,138,124,135,135
2025-02-25 18:05:11.081,-260.0,244.0,160.0,152.0,-86.0,-378.0,165,142,131,139,139
2025-02-25 18:05:11.085,-43.0,37.0,179.0,122.0,-121.0,-409.0,168,145,133,144,144
2025-02-25 18:05:11.093,84.0,-237.0,318.0,103.0,-126.0,-432.0,167,143,131,141,143
2025-02-25 18:05:11.097,325.0,-527.0,156.0,87.0,-142.0,-439.0,165,141,127,140,141
2025-02-25 18:05:11.101,548.0,-762.0,93.0,65.0,-146.0,-439.0,166,140,128,141,138
2025-02-25 18:05:11.109,696.0,-1241.0,-100.0,32.0,-157.0,-427.0,167,144,132,143,142
2025-02-25 18:05:11.114,967.0,-1861.0,-76.0,-14.0,-167.0,-409.0,169,138,132,141,136
2025-02-25 18:05:11.121,1437.0,-2398.0,52.0,-33.0,-173.0,-378.0,166,139,129,141,138
2025-02-25 18:05:11.126,1898.0,-2885.0,32.0,-63.0,-188.0,-343.0,168,141,130,142,139
2025-02-25 18:05:11.130,2301.0,-3146.0,-54.0,-77.0,-207.0,-304.0,166,138,127,138,138
2025-02-25 18:05:11.138,2481.0,-3340.0,235.0,-96.0,-175.0,-265.0,168,141,127,141,139
2025-02-25 18:05:11.142,2530.0,-3383.0,786.0,-89.0,-92.0,-196.0,172,143,126,142,138
2025-02-25 18:05:11.150,2249.0,-3677.0,1575.0,-46.0,-20.0,-103.0,168,137,121,137,135
2025-02-25 18:05:11.154,2092.0,-3312.0,804.0,9.0,37.0,-36.0,166,137,122,136,132
2025-02-25 18:05:11.159,2165.0,-3096.0,375.0,38.0,32.0,-3.0,165,136,118,138,134
2025-02-25 18:05:11.163,2177.0,-3103.0,161.0,31.0,43.0,70.0,165,136,120,139,136
2025-02-25 18:05:11.171,1805.0,-2959.0,-20.0,-6.0,55.0,142.0,170,136,119,136,135
2025-02-25 18:05:11.175,1608.0,-2911.0,46.0,-24.0,54.0,195.0,167,133,116,135,129
2025-02-25 18:05:11.179,1514.0,-2626.0,186.0,-43.0,46.0,226.0,165,130,115,135,135
2025-02-25 18:05:11.187,1392.0,-2315.0,202.0,-43.0,41.0,238.0,164,130,116,135,133
2025-02-25 18:05:11.191,1170.0,-2113.0,257.0,-28.0,40.0,243.0,162,129,114,135,133
2025-02-25 18:05:11.196,934.0,-1973.0,189.0,-15.0,54.0,249.0,164,133,116,135,133
2025-02-25 18:05:11.204,735.0,-1808.0,207.0,-7.0,67.0,251.0,168,133,117,136,135
2025-02-25 18:05:11.208,570.0,-1750.0,249.0,-7.0,76.0,251.0,166,133,118,137,135
2025-02-25 18:05:11.212,435.0,-1688.0,245.0,-21.0,78.0,247.0,165,129,114,135,130
2025-02-25 18:05:11.220,425.0,-1515.0,144.0,-22.0,75.0,242.0,163,127,116,136,131
2025-02-25 18:05:11.224,347.0,-1429.0,142.0,-39.0,64.0,239.0,163,127,115,133,131
2025-02-25 18:05:11.229,244.0,-1320.0,103.0,-62.0,60.0,234.0,165,130,121,137,132
2025-02-25 18:05:11.236,213.0,-1164.0,70.0,-79.0,46.0,228.0,165,130,120,135,130
2025-02-25 18:05:11.241,124.0,-1136.0,145.0,-93.0,42.0,227.0,164,127,120,137,131
2025-02-25 18:05:11.244,58.0,-969.0,118.0,-114.0,39.0,231.0,166,128,121,137,130
2025-02-25 18:05:11.252,-3.0,-942.0,147.0,-131.0,35.0,237.0,165,125,122,134,130
2025-02-25 18:05:11.256,-146.0,-831.0,138.0,-139.0,44.0,244.0,167,129,122,137,133
2025-02-25 18:05:11.261,-250.0,-627.0,35.0,-134.0,45.0,254.0,171,132,127,139,137
2025-02-25 18:05:11.269,-363.0,-632.0,104.0,-136.0,51.0,266.0,172,130,127,140,135
2025-02-25 18:05:11.273,-428.0,-464.0,58.0,-145.0,46.0,267.0,170,130,126,141,135
2025-02-25 18:05:11.277,-387.0,-350.0,151.0,-158.0,42.0,261.0,169,126,124,139,135
2025-02-25 18:05:11.285,-416.0,-344.0,296.0,-169.0,44.0,257.0,171,131,126,141,136
2025-02-25 18:05:11.289,-481.0,-271.0,390.0,-180.0,49.0,252.0,171,128,127,142,137
2025-02-25 18:05:11.293,-410.0,-110.0,242.0,-182.0,66.0,240.0,173,130,125,144,140
2025-02-25 18:05:11.302,-522.0,-62.0,151.0,-176.0,47.0,223.0,175,131,129,144,139
2025-02-25 18:05:11.306,-613.0,-71.0,303.0,-159.0,53.0,207.0,175,130,129,146,139
2025-02-25 18:05:11.310,-668.0,17.0,190.0,-151.0,43.0,190.0,174,127,128,145,138
2025-02-25 18:05:11.315,-667.0,43.0,244.0,-123.0,44.0,172.0,172,124,124,141,133
2025-02-25 18:05:11.322,-699.0,79.0,85.0,-102.0,39.0,163.0,171,125,122,140,133
2025-02-25 18:05:11.327,-715.0,94.0,109.0,-92.0,38.0,145.0,175,123,124,144,136
2025-02-25 18:05:11.331,-792.0,86.0,-35.0,-83.0,40.0,133.0,174,124,124,141,132
2025-02-25 18:05:11.339,-843.0,60.0,-43.0,-82.0,40.0,122.0,172,118,119,138,129
2025-02-25 18:05:11.343,-834.0,49.0,-44.0,-81.0,40.0,114.0,174,119,121,139,131
2025-02-25 18:05:11.347,-848.0,36.0,-70.0,-71.0,42.0,110.0,173,119,122,139,131
2025-02-25 18:05:11.352,-869.0,28.0,-73.0,-66.0,43.0,100.0,172,116,119,138,127
2025-02-25 18:05:11.358,-938.0,58.0,-163.0,-60.0,41.0,92.0,170,112,118,135,127
2025-02-25 18:05:11.373,-938.0,54.0,-134.0,-57.0,40.0,80.0,171,113,118,137,129
2025-02-25 18:05:11.375,-932.0,81.0,-118.0,-54.0,37.0,77.0,170,106,114,132,125
2025-02-25 18:05:11.378,-961.0,101.0,-142.0,-48.0,38.0,68.0,172,107,109,133,127
2025-02-25 18:05:11.380,-993.0,95.0,-73.0,-44.0,44.0,62.0,173,105,116,133,125
2025-02-25 18:05:11.384,-991.0,165.0,-55.0,-32.0,48.0,55.0,171,98,114,129,124
2025-02-25 18:05:11.388,-998.0,237.0,-49.0,-15.0,55.0,52.0,169,99,112,128,122
2025-02-25 18:05:11.395,-1048.0,278.0,-64.0,9.0,62.0,42.0,172,101,115,128,117
2025-02-25 18:05:11.400,-1076.0,424.0,-105.0,24.0,65.0,33.0,172,98,114,128,119
2025-02-25 18:05:11.404,-1100.0,422.0,-43.0,50.0,70.0,25.0,172,94,111,127,116
2025-02-25 18:05:11.408,-1100.0,529.0,-146.0,69.0,71.0,17.0,170,92,109,122,114
2025-02-25 18:05:11.416,-1072.0,589.0,-291.0,87.0,68.0,-4.0,171,91,109,123,112
2025-02-25 18:05:11.420,-1025.0,583.0,-285.0,96.0,66.0,-23.0,173,91,109,121,109
2025-02-25 18:05:11.424,-1032.0,598.0,-358.0,103.0,57.0,-45.0,171,90,111,119,106
2025-02-25 18:05:11.432,-1044.0,494.0,-309.0,121.0,57.0,-63.0,169,85,105,116,102
2025-02-25 18:05:11.437,-1105.0,597.0,-334.0,135.0,53.0,-71.0,170,83,106,113,99
2025-02-25 18:05:11.441,-1190.0,659.0,-339.0,163.0,49.0,-87.0,174,86,109,117,102
2025-02-25 18:05:11.449,-1220.0,707.0,-336.0,191.0,46.0,-105.0,174,84,103,115,100
2025-02-25 18:05:11.454,-1194.0,734.0,-291.0,218.0,46.0,-120.0,173,82,103,114,97
2025-02-25 18:05:11.458,-1256.0,750.0,-320.0,234.0,48.0,-134.0,173,80,98,113,93
2025-02-25 18:05:11.462,-1239.0,765.0,-318.0,258.0,47.0,-149.0,171,79,96,113,90
2025-02-25 18:05:11.470,-1158.0,788.0,-701.0,288.0,26.0,-159.0,169,76,91,108,86
2025-02-25 18:05:11.474,-1180.0,700.0,-198.0,321.0,42.0,-182.0,171,84,93,113,92
2025-02-25 18:05:11.478,-1078.0,730.0,-155.0,335.0,51.0,-201.0,173,76,92,109,86
2025-02-25 18:05:11.486,-849.0,728.0,-213.0,345.0,43.0,-222.0,172,81,91,108,83
2025-02-25 18:05:11.490,-781.0,644.0,-281.0,360.0,31.0,-250.0,170,73,87,103,77
2025-02-25 18:05:11.494,-709.0,706.0,-346.0,354.0,-1.0,-268.0,170,67,84,102,77
2025-02-25 18:05:11.498,-560.0,753.0,-339.0,325.0,-46.0,-303.0,172,76,90,103,76
2025-02-25 18:05:11.506,-351.0,826.0,-315.0,306.0,-88.0,-347.0,173,74,86,103,75
2025-02-25 18:05:11.510,-68.0,758.0,-145.0,242.0,-117.0,-386.0,169,70,83,100,71
2025-02-25 18:05:11.515,183.0,722.0,-117.0,179.0,-134.0,-426.0,170,69,80,96,69
2025-02-25 18:05:11.522,522.0,574.0,4.0,119.0,-167.0,-447.0,170,70,86,99,72
2025-02-25 18:05:11.527,908.0,23.0,111.0,71.0,-207.0,-473.0,172,73,85,96,71
2025-02-25 18:05:11.531,1251.0,-859.0,303.0,59.0,-219.0,-473.0,170,68,83,92,71
2025-02-25 18:05:11.535,1452.0,-1767.0,551.0,56.0,-247.0,-466.0,169,69,82,94,69
2025-02-25 18:05:11.543,1916.0,-2299.0,942.0,66.0,-252.0,-440.0,174,76,89,99,75
2025-02-25 18:05:11.547,2348.0,-3338.0,1188.0,117.0,-207.0,-383.0,174,74,90,94,73
2025-02-25 18:05:11.552,2671.0,-4104.0,1718.0,137.0,-159.0,-309.0,172,71,86,94,73
2025-02-25 18:05:11.559,2701.0,-4434.0,2124.0,187.0,-99.0,-221.0,171,71,88,91,73
2025-02-25 18:05:11.564,2787.0,-4577.0,2310.0,216.0,-70.0,-125.0,172,71,87,91,72
2025-02-25 18:05:11.568,2645.0,-4384.0,2222.0,207.0,-5.0,-82.0,171,73,90,89,74
2025-02-25 18:05:11.572,2752.0,-4066.0,1816.0,193.0,37.0,-22.0,172,75,95,85,73
2025-02-25 18:05:11.580,2662.0,-3591.0,1861.0,126.0,17.0,10.0,172,74,93,86,75
2025-02-25 18:05:11.584,2348.0,-3217.0,1345.0,92.0,53.0,49.0,171,72,88,89,75
2025-02-25 18:05:11.589,2087.0,-2786.0,873.0,10.0,82.0,68.0,169,71,84,85,74
2025-02-25 18:05:11.593,1473.0,-2705.0,577.0,-94.0,111.0,119.0,169,73,87,92,73
2025-02-25 18:05:11.600,1065.0,-2331.0,227.0,-123.0,62.0,146.0,170,74,85,93,74
2025-02-25 18:05:11.604,895.0,-1988.0,11.0,-172.0,31.0,151.0,169,75,85,97,74
2025-02-25 18:05:11.609,894.0,-2083.0,-20.0,-185.0,-1.0,149.0,166,70,83,93,73
2025-02-25 18:05:11.614,666.0,-2207.0,-55.0,-195.0,24.0,161.0,171,73,86,96,74
2025-02-25 18:05:11.620,476.0,-2197.0,-106.0,-183.0,24.0,167.0,169,74,87,94,74
2025-02-25 18:05:11.625,477.0,-2297.0,-20.0,-153.0,17.0,177.0,168,70,85,95,73
2025-02-25 18:05:11.629,461.0,-2126.0,82.0,-134.0,12.0,186.0,167,66,82,96,73
2025-02-25 18:05:11.634,471.0,-2064.0,147.0,-135.0,0.0,200.0,173,72,86,96,74
2025-02-25 18:05:11.641,500.0,-1826.0,303.0,-140.0,-4.0,213.0,170,73,81,97,75
2025-02-25 18:05:11.645,470.0,-1597.0,346.0,-133.0,-3.0,220.0,169,68,84,93,73
2025-02-25 18:05:11.650,456.0,-1451.0,369.0,-131.0,3.0,221.0,169,71,83,91,73
2025-02-25 18:05:11.654,324.0,-1234.0,377.0,-136.0,11.0,224.0,170,73,86,95,76
2025-02-25 18:05:11.662,157.0,-1087.0,370.0,-136.0,18.0,227.0,171,73,86,97,75
2025-02-25 18:05:11.666,84.0,-982.0,299.0,-137.0,23.0,226.0,169,70,83,93,76
2025-02-25 18:05:11.670,-38.0,-931.0,272.0,-139.0,24.0,224.0,172,75,89,95,77
2025-02-25 18:05:11.675,-243.0,-860.0,263.0,-135.0,17.0,223.0,170,73,86,96,76
2025-02-25 18:05:11.682,-349.0,-732.0,206.0,-128.0,17.0,224.0,168,71,86,92,74
2025-02-25 18:05:11.687,-422.0,-665.0,177.0,-110.0,18.0,223.0,169,73,87,92,74
2025-02-25 18:05:11.691,-445.0,-423.0,210.0,-96.0,31.0,217.0,170,72,86,95,76
2025-02-25 18:05:11.697,-480.0,-238.0,200.0,-92.0,44.0,210.0,170,75,88,94,74
2025-02-25 18:05:11.703,-534.0,-72.0,188.0,-92.0,45.0,198.0,171,75,89,97,76
2025-02-25 18:05:11.707,-637.0,-13.0,184.0,-69.0,40.0,189.0,171,75,90,94,75
2025-02-25 18:05:11.712,-698.0,100.0,127.0,-70.0,36.0,174.0,170,72,87,95,76
2025-02-25 18:05:11.716,-659.0,224.0,64.0,-67.0,40.0,154.0,171,72,87,93,73
2025-02-25 18:05:11.720,-692.0,203.0,60.0,-59.0,34.0,144.0,171,75,87,96,75
2025-02-25 18:05:11.728,-793.0,210.0,30.0,-51.0,27.0,125.0,170,74,89,98,78
2025-02-25 18:05:11.732,-767.0,110.0,15.0,-49.0,18.0,109.0,168,70,85,93,75
2025-02-25 18:05:11.736,-811.0,48.0,-15.0,-44.0,16.0,104.0,166,70,84,92,73
2025-02-25 18:05:11.740,-765.0,-29.0,-29.0,-39.0,16.0,95.0,169,73,88,95,75
2025-02-25 18:05:11.745,-828.0,-83.0,-53.0,-44.0,20.0,90.0,168,70,85,94,75
2025-02-25 18:05:11.752,-849.0,-117.0,-61.0,-35.0,24.0,87.0,166,70,85,92,74
2025-02-25 18:05:11.757,-852.0,-152.0,-76.0,-34.0,25.0,82.0,170,72,87,95,76
2025-02-25 18:05:11.761,-862.0,-222.0,-117.0,-25.0,27.0,76.0,170,71,83,96,75
2025-02-25 18:05:11.765,-879.0,-186.0,-162.0,-21.0,31.0,74.0,168,71,85,94,76
2025-02-25 18:05:11.773,-908.0,-181.0,-161.0,-23.0,37.0,68.0,169,73,87,97,77
2025-02-25 18:05:11.777,-907.0,-102.0,-174.0,-21.0,37.0,61.0,168,72,85,96,75
2025-02-25 18:05:11.781,-894.0,-44.0,-233.0,-18.0,33.0,51.0,169,69,81,95,74
2025-02-25 18:05:11.785,-886.0,-5.0,-230.0,-17.0,32.0,45.0,171,74,88,97,77
2025-02-25 18:05:11.789,-889.0,44.0,-223.0,-17.0,33.0,36.0,168,73,85,95,76
2025-02-25 18:05:11.797,-922.0,119.0,-220.0,-14.0,30.0,23.0,169,71,85,92,73
2025-02-25 18:05:11.802,-907.0,187.0,-230.0,-11.0,20.0,17.0,171,76,86,96,75
2025-02-25 18:05:11.806,-930.0,226.0,-233.0,-5.0,12.0,1.0,169,73,88,96,77
2025-02-25 18:05:11.810,-907.0,253.0,-214.0,2.0,8.0,-14.0,166,72,87,92,75
2025-02-25 18:05:11.814,-937.0,253.0,-192.0,10.0,-4.0,-22.0,170,74,87,95,77
2025-02-25 18:05:11.822,-930.0,230.0,-193.0,15.0,-9.0,-36.0,171,74,86,98,77
2025-02-25 18:05:11.826,-921.0,183.0,-158.0,24.0,-11.0,-49.0,169,72,87,96,76
2025-02-25 18:05:11.830,-939.0,188.0,-104.0,36.0,-14.0,-53.0,170,73,90,97,78
2025-02-25 18:05:11.834,-913.0,170.0,-101.0,51.0,-17.0,-64.0,170,74,87,95,76
2025-02-25 18:05:11.839,-925.0,165.0,-74.0,57.0,-16.0,-73.0,168,71,86,95,76
2025-02-25 18:05:11.846,-937.0,161.0,-71.0,65.0,-10.0,-78.0,169,70,85,92,74
2025-02-25 18:05:11.851,-980.0,169.0,-65.0,78.0,-6.0,-88.0,172,74,86,99,77
2025-02-25 18:05:11.855,-1034.0,266.0,-82.0,84.0,-4.0,-96.0,166,68,84,94,74
2025-02-25 18:05:11.859,-1044.0,323.0,-93.0,91.0,-1.0,-102.0,167,71,86,92,72
2025-02-25 18:05:11.867,-1067.0,447.0,-106.0,103.0,1.0,-117.0,171,75,88,96,77
2025-02-25 18:05:11.871,-1070.0,520.0,-97.0,105.0,3.0,-136.0,169,72,87,97,75
2025-02-25 18:05:11.875,-1067.0,580.0,-124.0,110.0,2.0,-160.0,168,70,82,92,74
2025-02-25 18:05:11.879,-1003.0,589.0,-140.0,115.0,0.0,-173.0,169,72,86,97,75
2025-02-25 18:05:11.888,-903.0,578.0,-151.0,115.0,-6.0,-200.0,169,75,90,98,78
2025-02-25 18:05:11.892,-787.0,531.0,-176.0,112.0,-18.0,-226.0,170,72,87,96,75
2025-02-25 18:05:11.896,-698.0,460.0,-166.0,104.0,-27.0,-253.0,167,71,85,97,76
2025-02-25 18:05:11.900,-514.0,418.0,-160.0,91.0,-49.0,-267.0,170,71,84,93,75
2025-02-25 18:05:11.908,-332.0,309.0,-159.0,75.0,-71.0,-293.0,171,73,88,97,77
2025-02-25 18:05:11.912,-161.0,145.0,-159.0,65.0,-94.0,-317.0,169,71,83,95,77
2025-02-25 18:05:11.916,-67.0,-72.0,-113.0,45.0,-113.0,-340.0,166,71,85,95,75
2025-02-25 18:05:11.920,125.0,-204.0,-92.0,30.0,-145.0,-348.0,173,78,91,98,79
2025-02-25 18:05:11.928,286.0,-617.0,-82.0,18.0,-159.0,-355.0,172,74,88,97,77
2025-02-25 18:05:11.932,506.0,-1122.0,-1.0,20.0,-159.0,-347.0,170,72,86,98,77
2025-02-25 18:05:11.937,623.0,-1652.0,201.0,31.0,-165.0,-330.0,168,73,86,95,75
2025-02-25 18:05:11.944,959.0,-1925.0,402.0,54.0,-166.0,-320.0,169,73,88,98,76
2025-02-25 18:05:11.949,1310.0,-2456.0,528.0,87.0,-141.0,-289.0,170,73,89,98,79
2025-02-25 18:05:11.953,1655.0,-2940.0,821.0,105.0,-102.0,-242.0,170,73,88,98,79
2025-02-25 18:05:11.957,1894.0,-3278.0,1041.0,132.0,-64.0,-186.0,169,71,86,93,77
2025-02-25 18:05:11.965,1969.0,-3533.0,1202.0,161.0,-38.0,-127.0,169,71,87,98,80
2025-02-25 18:05:11.969,2081.0,-3565.0,1259.0,177.0,20.0,-97.0,168,73,88,92,73
2025-02-25 18:05:11.973,2094.0,-3551.0,1232.0,182.0,69.0,-44.0,168,74,91,105,78
2025-02-25 18:05:11.982,1999.0,-3455.0,1183.0,174.0,88.0,3.0,172,73,92,92,80
2025-02-25 18:05:11.986,1847.0,-3237.0,984.0,162.0,88.0,43.0,169,74,91,92,77
2025-02-25 18:05:11.990,1750.0,-3118.0,845.0,126.0,97.0,61.0,168,71,88,92,76
2025-02-25 18:05:11.994,1590.0,-2892.0,710.0,53.0,109.0,94.0,170,77,88,94,78
2025-02-25 18:05:12.002,1303.0,-2625.0,484.0,33.0,102.0,123.0,169,74,91,92,78
2025-02-25 18:05:12.006,1243.0,-2365.0,368.0,-34.0,94.0,142.0,168,68,88,93,81
2025-02-25 18:05:12.011,996.0,-2294.0,250.0,-71.0,63.0,150.0,170,73,90,93,77
2025-02-25 18:05:12.015,850.0,-2138.0,268.0,-86.0,36.0,161.0,171,73,89,95,78
2025-02-25 18:05:12.018,719.0,-2127.0,235.0,-86.0,18.0,170.0,168,73,91,95,77
2025-02-25 18:05:12.027,673.0,-2101.0,319.0,-96.0,18.0,178.0,170,73,89,98,79
2025-02-25 18:05:12.031,656.0,-2044.0,295.0,-106.0,27.0,182.0,173,75,88,98,81
2025-02-25 18:05:12.035,620.0,-2048.0,403.0,-113.0,33.0,194.0,171,75,91,100,81
2025-02-25 18:05:12.043,586.0,-2042.0,468.0,-116.0,34.0,206.0,169,72,86,98,77
2025-02-25 18:05:12.047,562.0,-1889.0,446.0,-113.0,38.0,214.0,169,72,86,100,78
2025-02-25 18:05:12.052,464.0,-1833.0,494.0,-118.0,55.0,226.0,170,77,89,102,82
2025-02-25 18:05:12.056,392.0,-1593.0,456.0,-130.0,76.0,238.0,170,74,89,105,82
2025-02-25 18:05:12.064,259.0,-1472.0,435.0,-132.0,75.0,251.0,172,76,88,100,83
2025-02-25 18:05:12.068,199.0,-1232.0,331.0,-150.0,74.0,259.0,170,73,88,98,80
2025-02-25 18:05:12.072,94.0,-1180.0,257.0,-157.0,75.0,263.0,169,74,87,97,82
2025-02-25 18:05:12.077,-23.0,-1028.0,241.0,-176.0,78.0,271.0,170,75,88,99,81
2025-02-25 18:05:12.084,-183.0,-887.0,160.0,-184.0,73.0,282.0,170,77,92,99,83
2025-02-25 18:05:12.088,-208.0,-802.0,111.0,-203.0,69.0,289.0,169,73,89,97,79
2025-02-25 18:05:12.093,-340.0,-689.0,14.0,-213.0,63.0,292.0,171,76,91,100,81
2025-02-25 18:05:12.096,-422.0,-505.0,6.0,-207.0,55.0,300.0,172,76,91,100,81
2025-02-25 18:05:12.104,-483.0,-446.0,-42.0,-201.0,50.0,303.0,171,77,91,105,81
2025-02-25 18:05:12.108,-554.0,-266.0,-33.0,-187.0,39.0,300.0,169,75,89,98,79
2025-02-25 18:05:12.112,-549.0,-150.0,-31.0,-180.0,30.0,297.0,170,74,92,99,81
2025-02-25 18:05:12.117,-625.0,-22.0,20.0,-154.0,31.0,287.0,171,74,92,100,83
2025-02-25 18:05:12.124,-595.0,161.0,223.0,-142.0,31.0,258.0,169,76,91,100,81
2025-02-25 18:05:12.129,-559.0,200.0,261.0,-106.0,35.0,236.0,167,75,90,100,81
2025-02-25 18:05:12.133,-529.0,287.0,238.0,-86.0,42.0,196.0,169,78,92,102,82
2025-02-25 18:05:12.137,-589.0,326.0,126.0,-79.0,50.0,157.0,168,74,91,102,82
2025-02-25 18:05:12.145,-651.0,354.0,7.0,-79.0,54.0,129.0,170,76,89,102,84
2025-02-25 18:05:12.149,-829.0,373.0,-35.0,-84.0,66.0,120.0,170,77,92,103,84
2025-02-25 18:05:12.153,-904.0,294.0,-64.0,-81.0,72.0,110.0,170,78,94,106,83
2025-02-25 18:05:12.158,-986.0,250.0,-122.0,-79.0,62.0,99.0,167,76,89,103,79
2025-02-25 18:05:12.162,-974.0,289.0,-178.0,-79.0,41.0,91.0,162,76,93,103,82
2025-02-25 18:05:12.169,-984.0,323.0,-216.0,-87.0,31.0,78.0,167,78,94,108,85
2025-02-25 18:05:12.174,-993.0,316.0,-268.0,-88.0,29.0,67.0,171,76,91,109,83
2025-02-25 18:05:12.178,-979.0,321.0,-330.0,-83.0,23.0,52.0,165,75,90,105,83
2025-02-25 18:05:12.183,-974.0,325.0,-302.0,-95.0,11.0,45.0,168,82,97,110,89
2025-02-25 18:05:12.190,-955.0,334.0,-310.0,-107.0,-1.0,29.0,168,79,95,108,87
2025-02-25 18:05:12.195,-931.0,355.0,-314.0,-109.0,-6.0,17.0,165,75,91,106,79
2025-02-25 18:05:12.199,-904.0,267.0,-314.0,-110.0,-8.0,4.0,161,77,91,108,84
2025-02-25 18:05:12.203,-834.0,294.0,-270.0,-106.0,-9.0,-3.0,164,80,97,111,88
2025-02-25 18:05:12.211,-838.0,215.0,-254.0,-103.0,-7.0,-10.0,164,80,96,110,88
2025-02-25 18:05:12.215,-849.0,185.0,-283.0,-95.0,-7.0,-17.0,159,75,93,108,88
2025-02-25 18:05:12.219,-841.0,53.0,-208.0,-84.0,-7.0,-19.0,160,78,93,110,88
2025-02-25 18:05:12.223,-775.0,22.0,-162.0,-69.0,-1.0,-24.0,163,81,104,112,90
2025-02-25 18:05:12.231,-692.0,-10.0,-168.0,-60.0,8.0,-26.0,165,82,98,112,90
2025-02-25 18:05:12.235,-687.0,-84.0,-137.0,-37.0,15.0,-29.0,160,79,96,113,88
2025-02-25 18:05:12.240,-731.0,-113.0,-119.0,-9.0,28.0,-28.0,160,75,96,110,89
2025-02-25 18:05:12.244,-772.0,-150.0,-185.0,16.0,34.0,-28.0,163,85,103,116,95
2025-02-25 18:05:12.252,-811.0,-199.0,-235.0,27.0,38.0,-24.0,159,85,102,115,93
2025-02-25 18:05:12.256,-861.0,-128.0,-204.0,54.0,39.0,-25.0,159,82,101,114,92
2025-02-25 18:05:12.260,-954.0,-71.0,-305.0,81.0,30.0,-25.0,158,84,102,112,94
2025-02-25 18:05:12.268,-937.0,-49.0,-307.0,108.0,25.0,-25.0,162,88,105,116,98
2025-02-25 18:05:12.272,-939.0,28.0,-284.0,138.0,22.0,-24.0,162,88,108,117,97
2025-02-25 18:05:12.277,-921.0,41.0,-170.0,151.0,26.0,-25.0,158,88,106,115,94
2025-02-25 18:05:12.281,-880.0,102.0,-258.0,182.0,34.0,-25.0,161,90,109,117,97
2025-02-25 18:05:12.289,-801.0,165.0,-286.0,209.0,34.0,-27.0,161,92,111,120,98
2025-02-25 18:05:12.293,-733.0,183.0,-338.0,245.0,22.0,-22.0,162,96,111,120,97
2025-02-25 18:05:12.298,-708.0,319.0,-493.0,256.0,10.0,-37.0,160,95,113,118,100
2025-02-25 18:05:12.302,-823.0,312.0,-206.0,263.0,16.0,-51.0,160,99,113,120,102
2025-02-25 18:05:12.309,-877.0,361.0,-341.0,279.0,14.0,-60.0,157,102,109,118,98
2025-02-25 18:05:12.313,-852.0,511.0,-253.0,291.0,19.0,-88.0,158,106,114,118,101
2025-02-25 18:05:12.318,-896.0,423.0,-395.0,293.0,11.0,-120.0,160,109,115,118,102
2025-02-25 18:05:12.325,-891.0,484.0,-595.0,295.0,-22.0,-157.0,158,113,119,121,100
2025-02-25 18:05:12.330,-822.0,629.0,-359.0,286.0,-49.0,-193.0,155,110,119,118,101
2025-02-25 18:05:12.337,-896.0,530.0,-337.0,283.0,-63.0,-226.0,152,113,120,118,100
2025-02-25 18:05:12.342,-916.0,621.0,-283.0,274.0,-90.0,-273.0,148,116,120,113,99
2025-02-25 18:05:12.346,-817.0,621.0,-212.0,266.0,-120.0,-299.0,148,117,122,117,101
2025-02-25 18:05:12.354,-629.0,677.0,20.0,258.0,-147.0,-352.0,148,121,123,118,101
2025-02-25 18:05:12.358,-456.0,648.0,87.0,235.0,-166.0,-408.0,145,124,127,121,102
2025-02-25 18:05:12.363,-188.0,459.0,161.0,198.0,-182.0,-456.0,145,128,129,124,103
2025-02-25 18:05:12.370,238.0,255.0,-25.0,177.0,-214.0,-507.0,139,125,130,122,104
2025-02-25 18:05:12.375,538.0,-86.0,113.0,118.0,-245.0,-542.0,143,128,133,120,102
2025-02-25 18:05:12.379,656.0,-663.0,122.0,99.0,-263.0,-548.0,134,131,130,119,101
2025-02-25 18:05:12.387,832.0,-1266.0,200.0,78.0,-291.0,-531.0,134,132,131,125,101
2025-02-25 18:05:12.391,1115.0,-1654.0,257.0,91.0,-325.0,-514.0,133,133,134,122,102
2025-02-25 18:05:12.395,1389.0,-2381.0,570.0,69.0,-342.0,-476.0,133,136,130,122,101
2025-02-25 18:05:12.403,1618.0,-2823.0,745.0,84.0,-336.0,-413.0,137,141,138,128,105
2025-02-25 18:05:12.407,2081.0,-2980.0,813.0,114.0,-304.0,-334.0,137,143,137,124,103
2025-02-25 18:05:12.415,2360.0,-3073.0,837.0,80.0,-276.0,-253.0,138,143,134,124,103
2025-02-25 18:05:12.420,2545.0,-3030.0,1275.0,109.0,-206.0,-167.0,134,144,136,122,104
2025-02-25 18:05:12.424,2545.0,-3125.0,1463.0,120.0,-122.0,-81.0,137,147,134,119,104
2025-02-25 18:05:12.432,2452.0,-3182.0,1361.0,95.0,-45.0,2.0,137,151,135,119,103
2025-02-25 18:05:12.436,2265.0,-3189.0,1387.0,78.0,22.0,72.0,135,145,133,116,101
2025-02-25 18:05:12.440,2108.0,-3089.0,1296.0,47.0,49.0,129.0,133,144,130,114,99
2025-02-25 18:05:12.448,1846.0,-2931.0,1181.0,26.0,91.0,150.0,135,145,131,114,99
2025-02-25 18:05:12.452,1510.0,-2812.0,966.0,20.0,110.0,184.0,136,146,132,115,100
2025-02-25 18:05:12.457,1236.0,-2488.0,835.0,13.0,105.0,203.0,135,147,131,115,98
2025-02-25 18:05:12.464,996.0,-2221.0,763.0,-1.0,97.0,214.0,137,147,135,119,99
2025-02-25 18:05:12.468,677.0,-2007.0,688.0,-9.0,85.0,221.0,132,145,132,114,98
2025-02-25 18:05:12.473,577.0,-1819.0,634.0,-20.0,79.0,220.0,129,143,132,115,94
2025-02-25 18:05:12.481,519.0,-1760.0,571.0,-28.0,67.0,217.0,131,144,133,116,94
2025-02-25 18:05:12.485,452.0,-1698.0,556.0,-39.0,53.0,209.0,135,147,137,117,100
2025-02-25 18:05:12.489,382.0,-1625.0,583.0,-44.0,43.0,205.0,131,147,137,122,99
2025-02-25 18:05:12.493,366.0,-1616.0,557.0,-47.0,31.0,201.0,126,146,136,118,96
2025-02-25 18:05:12.502,346.0,-1577.0,609.0,-50.0,33.0,205.0,127,143,133,121,95
2025-02-25 18:05:12.506,336.0,-1534.0,510.0,-58.0,26.0,206.0,128,146,135,122,96
2025-02-25 18:05:12.510,323.0,-1501.0,469.0,-65.0,21.0,215.0,132,147,137,125,98
2025-02-25 18:05:12.518,309.0,-1465.0,485.0,-75.0,19.0,225.0,131,147,137,127,98
2025-02-25 18:05:12.522,261.0,-1354.0,509.0,-77.0,24.0,238.0,131,147,137,126,100
2025-02-25 18:05:12.526,248.0,-1212.0,548.0,-79.0,26.0,252.0,128,146,137,125,95
2025-02-25 18:05:12.534,182.0,-1124.0,531.0,-84.0,35.0,257.0,127,145,136,124,95
2025-02-25 18:05:12.538,113.0,-1002.0,494.0,-94.0,40.0,267.0,131,146,138,127,96
2025-02-25 18:05:12.543,21.0,-858.0,469.0,-106.0,41.0,275.0,132,150,141,130,101
2025-02-25 18:05:12.547,-96.0,-725.0,479.0,-112.0,43.0,281.0,130,147,140,126,99
2025-02-25 18:05:12.555,-142.0,-584.0,479.0,-123.0,46.0,282.0,128,143,137,124,95
2025-02-25 18:05:12.559,-234.0,-441.0,451.0,-128.0,49.0,280.0,130,145,137,124,95
2025-02-25 18:05:12.564,-324.0,-383.0,423.0,-128.0,55.0,277.0,133,143,139,128,98
2025-02-25 18:05:12.571,-406.0,-296.0,374.0,-131.0,57.0,269.0,131,150,140,128,99
2025-02-25 18:05:12.576,-485.0,-193.0,338.0,-132.0,61.0,258.0,131,151,138,128,99
2025-02-25 18:05:12.580,-570.0,-153.0,264.0,-134.0,62.0,245.0,131,148,139,128,97
2025-02-25 18:05:12.588,-597.0,-72.0,258.0,-130.0,62.0,231.0,127,147,139,126,96
2025-02-25 18:05:12.592,-671.0,-37.0,215.0,-114.0,62.0,225.0,129,145,137,125,94
2025-02-25 18:05:12.596,-773.0,21.0,208.0,-108.0,60.0,212.0,130,148,141,128,97
2025-02-25 18:05:12.601,-835.0,68.0,100.0,-89.0,56.0,199.0,127,146,142,127,96
2025-02-25 18:05:12.608,-885.0,135.0,51.0,-83.0,52.0,185.0,128,148,139,128,97
2025-02-25 18:05:12.612,-890.0,238.0,60.0,-69.0,53.0,171.0,126,144,139,126,97
2025-02-25 18:05:12.617,-905.0,269.0,-41.0,-55.0,51.0,163.0,130,150,141,127,97
2025-02-25 18:05:12.624,-943.0,370.0,12.0,-49.0,52.0,150.0,134,150,144,132,100
2025-02-25 18:05:12.629,-992.0,408.0,-46.0,-42.0,50.0,136.0,128,148,141,127,98
2025-02-25 18:05:12.633,-982.0,428.0,-90.0,-35.0,49.0,125.0,127,146,140,125,95
2025-02-25 18:05:12.637,-1029.0,439.0,-101.0,-25.0,50.0,119.0,126,146,139,125,96
2025-02-25 18:05:12.645,-1037.0,480.0,-151.0,-14.0,46.0,105.0,130,149,144,130,102
2025-02-25 18:05:12.649,-1073.0,415.0,-117.0,-4.0,48.0,96.0,129,147,143,129,101
2025-02-25 18:05:12.653,-1026.0,459.0,-135.0,4.0,50.0,85.0,127,150,143,127,92
2025-02-25 18:05:12.661,-1023.0,438.0,-145.0,23.0,52.0,71.0,124,142,138,125,96
2025-02-25 18:05:12.665,-1010.0,445.0,-186.0,36.0,54.0,64.0,125,144,139,128,96
2025-02-25 18:05:12.670,-985.0,521.0,-182.0,51.0,53.0,43.0,128,147,143,131,100
2025-02-25 18:05:12.674,-977.0,558.0,-171.0,59.0,52.0,19.0,124,142,142,128,96
2025-02-25 18:05:12.682,-980.0,622.0,-192.0,76.0,51.0,-9.0,126,144,140,125,96
2025-02-25 18:05:12.686,-989.0,633.0,-222.0,93.0,45.0,-22.0,121,145,139,122,95
2025-02-25 18:05:12.690,-997.0,681.0,-209.0,106.0,36.0,-51.0,129,148,142,131,99
2025-02-25 18:05:12.695,-980.0,721.0,-197.0,113.0,28.0,-77.0,127,144,142,129,98
2025-02-25 18:05:12.703,-968.0,757.0,-235.0,115.0,18.0,-101.0,126,144,141,128,96
2025-02-25 18:05:12.707,-945.0,779.0,-217.0,117.0,14.0,-122.0,125,146,142,126,96
2025-02-25 18:05:12.711,-932.0,796.0,-250.0,118.0,5.0,-132.0,126,143,139,128,95
2025-02-25 18:05:12.719,-907.0,795.0,-232.0,114.0,-1.0,-150.0,126,144,142,129,97
2025-02-25 18:05:12.723,-916.0,772.0,-296.0,119.0,-11.0,-167.0,133,150,145,131,100
2025-02-25 18:05:12.727,-887.0,708.0,-277.0,122.0,-18.0,-183.0,129,146,142,131,99
2025-02-25 18:05:12.735,-844.0,606.0,-292.0,124.0,-25.0,-201.0,127,144,142,128,97
2025-02-25 18:05:12.739,-792.0,501.0,-281.0,134.0,-28.0,-221.0,125,143,140,128,96
2025-02-25 18:05:12.749,-745.0,429.0,-174.0,142.0,-28.0,-245.0,128,144,140,129,95
2025-02-25 18:05:12.752,-636.0,358.0,-220.0,149.0,-34.0,-257.0,122,142,138,126,95
2025-02-25 18:05:12.756,-519.0,256.0,-166.0,164.0,-42.0,-282.0,126,146,141,131,97
2025-02-25 18:05:12.760,-432.0,159.0,-148.0,164.0,-50.0,-313.0,127,145,142,134,99
2025-02-25 18:05:12.768,-304.0,132.0,-75.0,164.0,-58.0,-344.0,129,147,140,134,99
2025-02-25 18:05:12.772,-169.0,101.0,-5.0,160.0,-74.0,-379.0,128,145,144,133,97
2025-02-25 18:05:12.777,-127.0,31.0,77.0,149.0,-81.0,-415.0,122,144,138,130,97
2025-02-25 18:05:12.784,25.0,-29.0,114.0,128.0,-104.0,-431.0,127,146,142,132,97
2025-02-25 18:05:12.789,198.0,-291.0,232.0,110.0,-126.0,-456.0,129,147,146,137,98
2025-02-25 18:05:12.793,384.0,-738.0,261.0,99.0,-155.0,-467.0,128,146,142,134,98
2025-02-25 18:05:12.800,623.0,-1296.0,428.0,95.0,-181.0,-463.0,129,148,140,132,98
2025-02-25 18:05:12.805,897.0,-1950.0,651.0,100.0,-204.0,-443.0,131,145,142,141,102
2025-02-25 18:05:12.809,1069.0,-2464.0,960.0,104.0,-211.0,-404.0,128,143,140,133,99
2025-02-25 18:05:12.817,1434.0,-2816.0,1358.0,104.0,-209.0,-347.0,127,144,141,133,99
2025-02-25 18:05:12.822,1835.0,-2998.0,1601.0,111.0,-183.0,-279.0,128,142,137,133,98
2025-02-25 18:05:12.829,2145.0,-3259.0,1595.0,86.0,-165.0,-194.0,130,144,140,134,98
2025-02-25 18:05:12.834,2367.0,-3295.0,1781.0,63.0,-118.0,-148.0,130,141,136,132,98
2025-02-25 18:05:12.838,2354.0,-3420.0,1864.0,27.0,-67.0,-62.0,132,145,138,132,100
2025-02-25 18:05:12.846,2343.0,-3380.0,1734.0,-15.0,-16.0,16.0,134,146,140,133,100
2025-02-25 18:05:12.850,2208.0,-3325.0,1675.0,-56.0,30.0,79.0,133,146,138,131,103
2025-02-25 18:05:12.854,1919.0,-3174.0,1445.0,-95.0,64.0,128.0,131,144,136,132,100
2025-02-25 18:05:12.862,1658.0,-2959.0,1164.0,-103.0,81.0,164.0,134,147,136,129,96
2025-02-25 18:05:12.866,1324.0,-2729.0,958.0,-120.0,91.0,190.0,130,141,136,131,97
2025-02-25 18:05:12.871,1161.0,-2544.0,795.0,-126.0,95.0,212.0,130,140,135,129,94
2025-02-25 18:05:12.878,833.0,-2350.0,622.0,-126.0,99.0,222.0,129,141,135,131,93
2025-02-25 18:05:12.883,589.0,-2218.0,457.0,-125.0,91.0,236.0,133,142,139,136,99
2025-02-25 18:05:12.887,464.0,-2048.0,364.0,-117.0,83.0,242.0,130,141,138,135,95
2025-02-25 18:05:12.894,370.0,-1890.0,293.0,-107.0,71.0,243.0,130,142,137,134,96
2025-02-25 18:05:12.899,280.0,-1782.0,269.0,-103.0,58.0,241.0,131,140,140,137,96
2025-02-25 18:05:12.904,241.0,-1597.0,261.0,-103.0,48.0,237.0,128,138,137,134,95
2025-02-25 18:05:12.912,207.0,-1485.0,273.0,-105.0,36.0,235.0,130,138,138,134,92
2025-02-25 18:05:12.916,160.0,-1420.0,317.0,-116.0,20.0,232.0,124,137,138,134,97
2025-02-25 18:05:12.920,100.0,-1293.0,288.0,-123.0,6.0,230.0,130,139,138,138,97
2025-02-25 18:05:12.927,86.0,-1169.0,359.0,-134.0,-3.0,231.0,134,137,143,138,96
2025-02-25 18:05:12.931,56.0,-1057.0,326.0,-149.0,-13.0,233.0,129,136,138,137,95
2025-02-25 18:05:12.936,44.0,-984.0,323.0,-153.0,-15.0,239.0,126,135,138,137,92
2025-02-25 18:05:12.944,-44.0,-928.0,365.0,-164.0,-16.0,242.0,127,134,136,135,94
2025-02-25 18:05:12.948,-68.0,-814.0,299.0,-163.0,-15.0,247.0,130,138,141,142,98
2025-02-25 18:05:12.952,-155.0,-709.0,328.0,-164.0,-8.0,254.0,129,138,140,136,98
2025-02-25 18:05:12.957,-259.0,-586.0,263.0,-164.0,-2.0,260.0,129,137,139,136,97
2025-02-25 18:05:12.965,-344.0,-466.0,249.0,-168.0,0.0,264.0,129,139,139,138,97
2025-02-25 18:05:12.969,-361.0,-372.0,212.0,-167.0,6.0,265.0,126,136,137,135,94
2025-02-25 18:05:12.973,-451.0,-342.0,345.0,-175.0,16.0,266.0,128,136,136,135,99
2025-02-25 18:05:12.981,-406.0,-84.0,268.0,-188.0,23.0,250.0,127,139,137,136,97
2025-02-25 18:05:12.985,-334.0,-55.0,61.0,-191.0,23.0,245.0,124,136,140,131,100
2025-02-25 18:05:12.989,-600.0,119.0,268.0,-196.0,29.0,223.0,122,132,133,130,97
2025-02-25 18:05:12.997,-723.0,90.0,102.0,-207.0,25.0,205.0,121,129,133,126,95
2025-02-25 18:05:13.002,-737.0,4.0,-49.0,-192.0,18.0,198.0,125,132,134,127,98
2025-02-25 18:05:13.006,-746.0,99.0,-51.0,-176.0,19.0,177.0,127,133,133,125,98
2025-02-25 18:05:13.010,-819.0,64.0,-45.0,-165.0,16.0,162.0,128,133,129,126,98
2025-02-25 18:05:13.018,-828.0,63.0,-89.0,-147.0,14.0,144.0,123,128,127,123,96
2025-02-25 18:05:13.022,-812.0,62.0,-193.0,-131.0,13.0,138.0,124,126,125,122,97
2025-02-25 18:05:13.026,-803.0,51.0,-184.0,-112.0,10.0,123.0,128,135,127,123,100
2025-02-25 18:05:13.033,-843.0,29.0,-204.0,-95.0,4.0,108.0,128,131,126,123,99
2025-02-25 18:05:13.038,-878.0,20.0,-139.0,-88.0,5.0,97.0,128,131,125,121,99
2025-02-25 18:05:13.042,-907.0,83.0,-103.0,-70.0,6.0,86.0,129,131,124,118,98
2025-02-25 18:05:13.046,-923.0,116.0,-124.0,-46.0,12.0,79.0,132,130,128,124,102
2025-02-25 18:05:13.054,-1012.0,123.0,-147.0,-29.0,10.0,68.0,131,128,124,122,101
2025-02-25 18:05:13.058,-1044.0,72.0,-125.0,-17.0,12.0,59.0,136,131,125,120,101
2025-02-25 18:05:13.063,-1048.0,61.0,-90.0,-14.0,15.0,51.0,135,129,124,121,101
2025-02-25 18:05:13.067,-1001.0,38.0,-151.0,-4.0,17.0,47.0,135,125,118,120,99
2025-02-25 18:05:13.075,-1008.0,63.0,-144.0,-12.0,16.0,38.0,139,124,121,121,100
2025-02-25 18:05:13.079,-986.0,33.0,-85.0,-14.0,17.0,32.0,140,124,121,121,102
2025-02-25 18:05:13.083,-949.0,86.0,-66.0,-19.0,18.0,25.0,142,120,118,120,100
2025-02-25 18:05:13.091,-913.0,112.0,-84.0,-19.0,18.0,22.0,141,120,120,119,102
2025-02-25 18:05:13.095,-913.0,131.0,-72.0,-18.0,19.0,15.0,145,123,117,122,104
2025-02-25 18:05:13.100,-932.0,103.0,-96.0,-9.0,16.0,10.0,144,117,115,119,103
2025-02-25 18:05:13.104,-961.0,80.0,-76.0,-8.0,13.0,2.0,142,114,114,115,103
2025-02-25 18:05:13.109,-955.0,61.0,6.0,3.0,14.0,-1.0,145,112,112,118,103
2025-02-25 18:05:13.116,-964.0,100.0,12.0,11.0,32.0,-14.0,146,111,111,117,102
2025-02-25 18:05:13.121,-973.0,-5.0,-180.0,35.0,22.0,-12.0,148,110,110,118,106
2025-02-25 18:05:13.125,-1007.0,139.0,-115.0,46.0,16.0,-19.0,146,105,108,116,103
2025-02-25 18:05:13.133,-1024.0,198.0,-21.0,63.0,20.0,-20.0,148,103,108,115,103
2025-02-25 18:05:13.137,-1039.0,300.0,-84.0,79.0,19.0,-24.0,147,105,110,115,104
2025-02-25 18:05:13.141,-1101.0,490.0,-55.0,99.0,23.0,-32.0,150,103,107,116,103
2025-02-25 18:05:13.149,-1166.0,604.0,-61.0,109.0,28.0,-43.0,151,100,108,116,104
2025-02-25 18:05:13.153,-1171.0,684.0,-20.0,130.0,32.0,-61.0,149,96,104,112,102
2025-02-25 18:05:13.158,-1209.0,770.0,-20.0,152.0,33.0,-70.0,151,94,101,113,100
2025-02-25 18:05:13.162,-1224.0,770.0,-73.0,174.0,37.0,-93.0,150,90,103,115,102
2025-02-25 18:05:13.170,-1216.0,783.0,-40.0,192.0,37.0,-123.0,151,89,101,118,102
2025-02-25 18:05:13.174,-1132.0,859.0,15.0,202.0,43.0,-162.0,152,84,97,117,98
2025-02-25 18:05:13.178,-1099.0,899.0,-64.0,223.0,38.0,-200.0,150,77,95,115,96
2025-02-25 18:05:13.186,-1042.0,921.0,121.0,242.0,43.0,-214.0,155,78,95,118,96
2025-02-25 18:05:13.190,-902.0,836.0,121.0,247.0,43.0,-243.0,154,77,92,117,93
2025-02-25 18:05:13.194,-733.0,799.0,-4.0,248.0,30.0,-276.0,153,76,90,115,90
2025-02-25 18:05:13.199,-733.0,785.0,93.0,240.0,25.0,-315.0,152,71,90,115,87
2025-02-25 18:05:13.203,-677.0,748.0,-1.0,222.0,8.0,-334.0,155,72,88,115,88
2025-02-25 18:05:13.211,-604.0,738.0,-35.0,220.0,-18.0,-371.0,155,74,88,116,88
2025-02-25 18:05:13.215,-606.0,746.0,-124.0,217.0,-46.0,-411.0,154,73,87,113,85
2025-02-25 18:05:13.220,-584.0,691.0,-67.0,194.0,-53.0,-442.0,152,69,85,112,83
2025-02-25 18:05:13.227,-421.0,583.0,35.0,161.0,-67.0,-455.0,147,69,84,107,82
2025-02-25 18:05:13.231,83.0,449.0,115.0,129.0,-94.0,-478.0,155,70,86,109,83
2025-02-25 18:05:13.236,407.0,164.0,45.0,110.0,-147.0,-498.0,159,70,83,103,82
2025-02-25 18:05:13.240,502.0,-208.0,50.0,74.0,-178.0,-504.0,155,69,82,101,81
2025-02-25 18:05:13.247,844.0,-471.0,255.0,39.0,-223.0,-497.0,156,69,87,101,84
2025-02-25 18:05:13.252,1398.0,-1271.0,398.0,-11.0,-239.0,-474.0,158,73,86,105,83
2025-02-25 18:05:13.256,1819.0,-2153.0,787.0,-41.0,-225.0,-428.0,162,70,86,100,82
2025-02-25 18:05:13.263,2199.0,-3162.0,1036.0,-41.0,-186.0,-352.0,159,70,84,100,82
2025-02-25 18:05:13.268,2630.0,-4007.0,1585.0,-29.0,-125.0,-259.0,160,72,86,96,81
2025-02-25 18:05:13.272,2758.0,-4591.0,1767.0,5.0,-85.0,-155.0,160,69,85,95,79
2025-02-25 18:05:13.280,2741.0,-4643.0,1910.0,72.0,-6.0,-103.0,159,68,84,90,82
2025-02-25 18:05:13.284,2774.0,-4643.0,1845.0,121.0,67.0,-21.0,163,73,87,92,80
2025-02-25 18:05:13.288,2789.0,-4465.0,1709.0,127.0,120.0,28.0,162,71,87,88,80
2025-02-25 18:05:13.293,2341.0,-4026.0,1315.0,135.0,135.0,61.0,161,71,89,85,78
2025-02-25 18:05:13.300,2091.0,-3427.0,959.0,144.0,141.0,80.0,159,68,85,86,77
2025-02-25 18:05:13.305,1636.0,-3227.0,579.0,138.0,129.0,111.0,165,75,88,93,80
2025-02-25 18:05:13.309,1287.0,-2959.0,595.0,27.0,146.0,144.0,164,72,86,90,77
2025-02-25 18:05:13.313,793.0,-2529.0,234.0,-33.0,160.0,182.0,161,71,81,90,75
2025-02-25 18:05:13.321,646.0,-2080.0,-82.0,-91.0,144.0,190.0,161,71,81,90,74
2025-02-25 18:05:13.325,528.0,-2230.0,-278.0,-82.0,64.0,182.0,165,74,85,97,79
2025-02-25 18:05:13.330,564.0,-1893.0,-313.0,-82.0,13.0,168.0,164,73,85,96,80
2025-02-25 18:05:13.334,273.0,-1963.0,-340.0,-67.0,7.0,165.0,164,71,80,98,76
2025-02-25 18:05:13.341,233.0,-1974.0,-401.0,-95.0,23.0,175.0,160,71,79,97,77
2025-02-25 18:05:13.346,233.0,-1866.0,-249.0,-110.0,18.0,176.0,165,79,80,100,78
2025-02-25 18:05:13.350,311.0,-1905.0,-62.0,-125.0,19.0,185.0,164,74,84,100,81
2025-02-25 18:05:13.354,360.0,-1814.0,197.0,-134.0,34.0,198.0,160,70,79,96,79
2025-02-25 18:05:13.362,380.0,-1745.0,376.0,-143.0,27.0,212.0,164,71,81,98,78
2025-02-25 18:05:13.366,375.0,-1659.0,384.0,-160.0,6.0,219.0,164,75,83,103,82
2025-02-25 18:05:13.371,255.0,-1448.0,398.0,-169.0,13.0,228.0,166,76,82,103,82
2025-02-25 18:05:13.378,194.0,-1243.0,382.0,-173.0,37.0,231.0,163,71,81,99,77
2025-02-25 18:05:13.382,155.0,-1062.0,429.0,-168.0,47.0,231.0,163,74,81,98,79
2025-02-25 18:05:13.387,62.0,-969.0,418.0,-149.0,48.0,231.0,163,77,86,100,81
2025-02-25 18:05:13.391,-36.0,-839.0,432.0,-146.0,31.0,227.0,165,74,84,100,81
2025-02-25 18:05:13.398,-175.0,-682.0,384.0,-133.0,21.0,222.0,162,72,82,96,79
2025-02-25 18:05:13.403,-204.0,-542.0,285.0,-130.0,16.0,221.0,161,73,81,97,80
2025-02-25 18:05:13.407,-329.0,-447.0,348.0,-143.0,22.0,215.0,164,73,87,101,82
2025-02-25 18:05:13.411,-400.0,-322.0,232.0,-140.0,18.0,210.0,165,74,86,99,81
2025-02-25 18:05:13.419,-427.0,-309.0,163.0,-133.0,20.0,198.0,162,72,84,98,78
2025-02-25 18:05:13.423,-490.0,-63.0,188.0,-127.0,25.0,192.0,161,72,85,100,81
2025-02-25 18:05:13.427,-561.0,-117.0,153.0,-123.0,32.0,184.0,166,76,88,101,84
2025-02-25 18:05:13.432,-606.0,-61.0,97.0,-112.0,31.0,171.0,165,74,88,101,84
2025-02-25 18:05:13.440,-654.0,-18.0,97.0,-97.0,23.0,156.0,162,70,84,98,80
2025-02-25 18:05:13.444,-616.0,8.0,47.0,-98.0,17.0,149.0,163,73,86,101,80
2025-02-25 18:05:13.448,-702.0,-3.0,-25.0,-76.0,16.0,139.0,165,76,87,101,82
