timestamp,ax,ay,az,gx,gy,gz,flex1,flex2,flex3,flex4,flex5,emg1,emg2,emg3
2025-02-25 18:01:56.975,-272.0,-905.0,366.0,5.0,1.0,-4.0,147,126,115,129,125
2025-02-25 18:01:56.979,-275.0,-915.0,362.0,5.0,1.0,-4.0,147,126,117,131,125
2025-02-25 18:01:56.981,-272.0,-905.0,366.0,5.0,1.0,-4.0,147,126,115,129,125
2025-02-25 18:01:56.985,-257.0,-909.0,385.0,-3.0,-2.0,1.0,146,125,114,129,124
2025-02-25 18:01:56.987,-250.0,-916.0,381.0,-4.0,-2.0,1.0,146,125,115,128,124
2025-02-25 18:01:56.990,-247.0,-921.0,376.0,-4.0,-2.0,1.0,146,126,116,131,125
2025-02-25 18:01:56.992,-241.0,-919.0,370.0,-4.0,-2.0,1.0,145,125,115,127,123
2025-02-25 18:01:56.995,-242.0,-920.0,377.0,-3.0,-1.0,1.0,146,126,114,128,123
2025-02-25 18:01:56.997,-242.0,-925.0,376.0,-2.0,-1.0,0.0,147,127,115,130,125
2025-02-25 18:01:57.000,-246.0,-921.0,381.0,-2.0,-1.0,0.0,145,127,114,128,124
2025-02-25 18:01:57.002,-250.0,-924.0,377.0,-1.0,0.0,-1.0,146,126,115,128,124
2025-02-25 18:01:57.004,-251.0,-925.0,376.0,-1.0,0.0,-1.0,148,128,115,129,124
2025-02-25 18:01:57.006,-260.0,-928.0,367.0,-1.0,0.0,-1.0,147,126,114,128,124
2025-02-25 18:01:57.008,-254.0,-924.0,368.0,-1.0,-1.0,-1.0,148,127,115,129,124
2025-02-25 18:01:57.011,-258.0,-923.0,360.0,-2.0,-1.0,0.0,148,127,117,129,125
2025-02-25 18:01:57.013,-257.0,-924.0,355.0,-2.0,-1.0,0.0,146,126,114,129,122
2025-02-25 18:01:57.015,-257.0,-919.0,357.0,-3.0,-2.0,0.0,147,125,114,129,125
2025-02-25 18:01:57.017,-254.0,-917.0,359.0,-3.0,-2.0,1.0,148,126,115,129,125
2025-02-25 18:01:57.020,-254.0,-921.0,351.0,-3.0,-2.0,2.0,146,127,114,128,122
2025-02-25 18:01:57.022,-254.0,-925.0,353.0,-3.0,-2.0,2.0,146,127,115,129,124
2025-02-25 18:01:57.025,-254.0,-921.0,351.0,-4.0,-2.0,3.0,147,127,116,130,124
2025-02-25 18:01:57.027,-250.0,-926.0,351.0,-4.0,-2.0,3.0,145,124,115,133,123
2025-02-25 18:01:57.029,-252.0,-922.0,355.0,-3.0,-2.0,3.0,149,127,116,130,124
2025-02-25 18:01:57.032,-257.0,-926.0,353.0,-2.0,-1.0,3.0,147,128,117,131,124
2025-02-25 18:01:57.033,-256.0,-922.0,352.0,-2.0,-1.0,3.0,147,128,114,129,121
2025-02-25 18:01:57.036,-255.0,-917.0,353.0,-1.0,-1.0,3.0,148,126,115,130,124
2025-02-25 18:01:57.038,-254.0,-921.0,353.0,-1.0,-1.0,2.0,147,128,115,129,123
2025-02-25 18:01:57.041,-256.0,-912.0,345.0,0.0,-1.0,2.0,146,125,114,128,122
2025-02-25 18:01:57.043,-258.0,-911.0,351.0,0.0,-1.0,2.0,148,126,116,128,124
2025-02-25 18:01:57.045,-258.0,-911.0,348.0,0.0,-1.0,1.0,146,127,116,129,124
2025-02-25 18:01:57.048,-261.0,-913.0,350.0,1.0,-1.0,0.0,149,126,115,126,123
2025-02-25 18:01:57.050,-260.0,-908.0,358.0,1.0,-1.0,0.0,146,126,113,127,122
2025-02-25 18:01:57.052,-259.0,-906.0,358.0,2.0,-1.0,-1.0,145,128,117,131,123
2025-02-25 18:01:57.056,-261.0,-905.0,355.0,2.0,-1.0,-1.0,147,127,115,130,123
2025-02-25 18:01:57.057,-258.0,-902.0,360.0,2.0,-1.0,-2.0,146,127,114,126,123
2025-02-25 18:01:57.059,-261.0,-906.0,360.0,2.0,-1.0,-2.0,144,125,114,127,121
2025-02-25 18:01:57.061,-261.0,-904.0,358.0,2.0,-1.0,-2.0,146,127,116,130,124
2025-02-25 18:01:57.064,-251.0,-900.0,361.0,2.0,-2.0,-1.0,145,127,114,130,123
2025-02-25 18:01:57.067,-255.0,-902.0,366.0,3.0,-2.0,-1.0,145,125,114,129,123
2025-02-25 18:01:57.069,-253.0,-901.0,367.0,2.0,-2.0,-1.0,146,127,112,128,121
2025-02-25 18:01:57.072,-252.0,-900.0,367.0,2.0,-2.0,-1.0,146,127,116,130,124
2025-02-25 18:01:57.074,-253.0,-901.0,368.0,2.0,-2.0,-1.0,146,127,115,129,123
2025-02-25 18:01:57.076,-253.0,-906.0,374.0,1.0,-2.0,-2.0,144,126,114,128,122
2025-02-25 18:01:57.079,-257.0,-911.0,372.0,2.0,-3.0,-2.0,147,128,115,131,124
2025-02-25 18:01:57.081,-256.0,-905.0,376.0,2.0,-2.0,-1.0,147,128,116,128,123
2025-02-25 18:01:57.084,-255.0,-912.0,375.0,2.0,-2.0,-2.0,146,126,115,129,123
2025-02-25 18:01:57.086,-254.0,-921.0,375.0,1.0,-2.0,-2.0,145,125,114,129,122
2025-02-25 18:01:57.088,-255.0,-920.0,380.0,1.0,-2.0,-2.0,146,127,116,129,124
2025-02-25 18:01:57.091,-257.0,-925.0,385.0,1.0,-2.0,-2.0,146,127,114,129,123
2025-02-25 18:01:57.093,-255.0,-923.0,380.0,1.0,-2.0,-2.0,147,127,115,129,122
2025-02-25 18:01:57.095,-261.0,-927.0,380.0,1.0,-2.0,-1.0,145,126,115,128,122
2025-02-25 18:01:57.097,-262.0,-935.0,383.0,1.0,-2.0,-2.0,146,126,114,129,124
2025-02-25 18:01:57.101,-265.0,-938.0,381.0,1.0,-2.0,-1.0,146,127,116,130,123
2025-02-25 18:01:57.103,-259.0,-934.0,381.0,1.0,-1.0,-1.0,146,125,115,128,123
2025-02-25 18:01:57.105,-260.0,-931.0,382.0,0.0,-1.0,-1.0,146,126,115,129,123
2025-02-25 18:01:57.108,-259.0,-933.0,380.0,0.0,-1.0,0.0,147,127,114,129,123
2025-02-25 18:01:57.110,-254.0,-932.0,380.0,-1.0,0.0,0.0,148,128,115,129,122
2025-02-25 18:01:57.112,-253.0,-933.0,380.0,0.0,0.0,0.0,146,127,116,129,121
2025-02-25 18:01:57.115,-255.0,-925.0,375.0,-1.0,1.0,0.0,146,126,114,128,122
2025-02-25 18:01:57.118,-254.0,-927.0,378.0,-1.0,1.0,1.0,147,128,115,129,123
2025-02-25 18:01:57.120,-256.0,-919.0,375.0,-1.0,1.0,2.0,147,127,114,129,123
2025-02-25 18:01:57.122,-253.0,-919.0,368.0,-2.0,0.0,2.0,145,125,114,130,121
2025-02-25 18:01:57.124,-248.0,-919.0,354.0,-2.0,0.0,2.0,149,128,116,130,124
2025-02-25 18:01:57.126,-250.0,-911.0,350.0,-2.0,1.0,3.0,146,127,116,129,123
2025-02-25 18:01:57.128,-255.0,-911.0,366.0,-2.0,1.0,3.0,144,126,114,127,122
2025-02-25 18:01:57.130,-255.0,-909.0,371.0,-2.0,1.0,3.0,146,125,114,127,120
2025-02-25 18:01:57.133,-257.0,-904.0,373.0,-2.0,0.0,3.0,147,127,116,131,127
2025-02-25 18:01:57.134,-254.0,-907.0,365.0,-2.0,0.0,3.0,146,128,116,130,124
2025-02-25 18:01:57.141,-251.0,-903.0,362.0,-2.0,0.0,2.0,145,125,114,128,121
2025-02-25 18:01:57.146,-253.0,-897.0,365.0,-1.0,-1.0,2.0,146,127,113,130,122
2025-02-25 18:01:57.150,-252.0,-894.0,367.0,0.0,-1.0,2.0,148,128,115,130,124
2025-02-25 18:01:57.154,-245.0,-892.0,359.0,0.0,-1.0,1.0,145,125,115,129,122
2025-02-25 18:01:57.162,-250.0,-888.0,362.0,0.0,-1.0,1.0,144,126,114,128,122
2025-02-25 18:01:57.166,-249.0,-885.0,358.0,0.0,-1.0,0.0,147,128,116,130,122
2025-02-25 18:01:57.170,-247.0,-880.0,359.0,1.0,-2.0,0.0,147,127,115,131,123
2025-02-25 18:01:57.175,-251.0,-883.0,363.0,1.0,-1.0,-1.0,146,126,114,129,120
2025-02-25 18:01:57.182,-251.0,-880.0,365.0,1.0,-2.0,-1.0,147,128,114,128,122
2025-02-25 18:01:57.186,-254.0,-887.0,363.0,1.0,-2.0,-1.0,146,125,115,128,124
2025-02-25 18:01:57.191,-255.0,-897.0,366.0,1.0,-2.0,-2.0,148,126,116,131,123
2025-02-25 18:01:57.195,-254.0,-903.0,361.0,1.0,-2.0,-3.0,145,126,113,128,122
2025-02-25 18:01:57.203,-264.0,-908.0,370.0,1.0,-1.0,-3.0,146,127,115,130,122
2025-02-25 18:01:57.207,-265.0,-917.0,373.0,1.0,-1.0,-2.0,146,126,116,129,122
2025-02-25 18:01:57.211,-266.0,-919.0,373.0,1.0,-1.0,-3.0,148,127,116,129,123
2025-02-25 18:01:57.216,-274.0,-923.0,376.0,1.0,-1.0,-2.0,145,126,112,127,122
2025-02-25 18:01:57.223,-274.0,-922.0,371.0,2.0,-2.0,-2.0,146,128,116,129,123
2025-02-25 18:01:57.228,-282.0,-924.0,375.0,2.0,-2.0,-2.0,146,125,114,129,121
2025-02-25 18:01:57.232,-276.0,-918.0,374.0,1.0,-2.0,-1.0,146,125,115,129,122
2025-02-25 18:01:57.237,-274.0,-915.0,369.0,1.0,-2.0,-1.0,147,127,113,127,121
2025-02-25 18:01:57.244,-268.0,-916.0,370.0,0.0,-2.0,-1.0,145,127,116,129,123
2025-02-25 18:01:57.249,-263.0,-910.0,371.0,0.0,-2.0,-1.0,146,126,115,130,123
2025-02-25 18:01:57.253,-258.0,-901.0,374.0,0.0,-2.0,-1.0,146,126,115,128,122
2025-02-25 18:01:57.257,-256.0,-904.0,373.0,0.0,-2.0,-2.0,145,126,113,127,121
2025-02-25 18:01:57.265,-254.0,-898.0,372.0,1.0,-1.0,-2.0,147,127,115,130,124
2025-02-25 18:01:57.269,-253.0,-903.0,367.0,1.0,-2.0,-2.0,146,127,116,129,123
2025-02-25 18:01:57.273,-250.0,-903.0,372.0,1.0,-2.0,-3.0,147,127,114,127,121
2025-02-25 18:01:57.278,-247.0,-907.0,368.0,1.0,-2.0,-3.0,146,125,114,129,122
2025-02-25 18:01:57.285,-247.0,-911.0,374.0,1.0,-1.0,-3.0,146,127,115,130,124
2025-02-25 18:01:57.289,-248.0,-910.0,375.0,2.0,-1.0,-3.0,148,126,115,130,123
2025-02-25 18:01:57.294,-252.0,-907.0,378.0,2.0,-1.0,-3.0,146,126,114,128,122
2025-02-25 18:01:57.301,-256.0,-917.0,383.0,3.0,-1.0,-3.0,145,126,113,129,122
2025-02-25 18:01:57.306,-254.0,-914.0,381.0,3.0,-1.0,-3.0,146,128,116,130,123
2025-02-25 18:01:57.310,-258.0,-913.0,383.0,2.0,-1.0,-2.0,148,136,115,130,123
2025-02-25 18:01:57.314,-261.0,-912.0,382.0,3.0,-1.0,-2.0,144,125,113,127,122
2025-02-25 18:01:57.322,-260.0,-915.0,381.0,2.0,-1.0,-2.0,145,124,115,128,121
2025-02-25 18:01:57.326,-257.0,-917.0,375.0,1.0,-2.0,-1.0,147,126,115,130,123
2025-02-25 18:01:57.330,-260.0,-918.0,374.0,0.0,-2.0,-1.0,147,127,115,131,123
2025-02-25 18:01:57.334,-264.0,-912.0,378.0,0.0,-3.0,-1.0,146,126,114,129,122
2025-02-25 18:01:57.342,-260.0,-910.0,377.0,0.0,-3.0,0.0,145,122,114,128,120
2025-02-25 18:01:57.346,-258.0,-911.0,374.0,-1.0,-3.0,0.0,147,126,116,131,124
2025-02-25 18:01:57.350,-256.0,-915.0,377.0,-1.0,-3.0,0.0,147,126,116,130,122
2025-02-25 18:01:57.355,-261.0,-913.0,378.0,-1.0,-3.0,0.0,144,125,114,128,121
2025-02-25 18:01:57.362,-258.0,-909.0,376.0,-1.0,-3.0,0.0,145,123,112,128,121
2025-02-25 18:01:57.367,-255.0,-916.0,374.0,-1.0,-3.0,-1.0,147,126,114,128,123
2025-02-25 18:01:57.371,-258.0,-910.0,373.0,-1.0,-3.0,-1.0,146,125,115,129,122
2025-02-25 18:01:57.375,-255.0,-912.0,373.0,0.0,-3.0,-2.0,151,120,113,131,122
2025-02-25 18:01:57.383,-263.0,-915.0,373.0,0.0,-3.0,-2.0,144,125,113,128,121
2025-02-25 18:01:57.388,-264.0,-915.0,377.0,1.0,-2.0,-2.0,147,127,115,128,123
2025-02-25 18:01:57.391,-260.0,-915.0,368.0,2.0,-2.0,-2.0,146,126,114,127,122
2025-02-25 18:01:57.396,-263.0,-911.0,382.0,2.0,-2.0,-2.0,145,125,119,128,121
2025-02-25 18:01:57.403,-258.0,-909.0,378.0,3.0,-2.0,-2.0,145,123,112,128,121
2025-02-25 18:01:57.409,-258.0,-900.0,377.0,3.0,-3.0,-2.0,146,128,115,130,125
2025-02-25 18:01:57.413,-258.0,-901.0,379.0,2.0,-3.0,-2.0,145,125,114,129,123
2025-02-25 18:01:57.416,-258.0,-894.0,375.0,2.0,-3.0,-2.0,146,124,114,128,121
2025-02-25 18:01:57.425,-256.0,-894.0,374.0,1.0,-3.0,-2.0,145,124,113,129,121
2025-02-25 18:01:57.429,-252.0,-896.0,373.0,1.0,-3.0,-3.0,146,126,116,131,124
2025-02-25 18:01:57.433,-252.0,-905.0,375.0,0.0,-3.0,-3.0,146,125,114,129,122
2025-02-25 18:01:57.437,-254.0,-909.0,371.0,0.0,-4.0,-3.0,145,123,113,128,122
2025-02-25 18:01:57.445,-252.0,-913.0,369.0,0.0,-4.0,-3.0,146,124,114,129,121
2025-02-25 18:01:57.449,-252.0,-926.0,369.0,0.0,-5.0,-3.0,149,125,114,129,122
2025-02-25 18:01:57.453,-250.0,-922.0,367.0,-1.0,-5.0,-2.0,147,124,115,129,123
2025-02-25 18:01:57.458,-250.0,-921.0,373.0,0.0,-5.0,-2.0,145,122,113,129,122
2025-02-25 18:01:57.465,-252.0,-930.0,375.0,0.0,-5.0,-1.0,146,122,114,128,122
2025-02-25 18:01:57.470,-251.0,-936.0,377.0,0.0,-6.0,-1.0,148,124,115,129,123
2025-02-25 18:01:57.474,-243.0,-942.0,380.0,0.0,-6.0,-1.0,147,123,114,128,121
2025-02-25 18:01:57.478,-247.0,-935.0,377.0,1.0,-5.0,1.0,146,124,113,128,122
2025-02-25 18:01:57.486,-254.0,-935.0,389.0,2.0,-5.0,1.0,146,123,115,130,123
2025-02-25 18:01:57.490,-253.0,-927.0,398.0,2.0,-4.0,1.0,148,125,114,129,123
2025-02-25 18:01:57.494,-254.0,-926.0,407.0,2.0,-3.0,1.0,145,122,114,129,121
2025-02-25 18:01:57.498,-251.0,-912.0,405.0,2.0,-2.0,2.0,144,122,113,129,122
2025-02-25 18:01:57.506,-261.0,-908.0,406.0,1.0,-1.0,2.0,146,124,115,130,124
2025-02-25 18:01:57.510,-260.0,-904.0,404.0,1.0,0.0,2.0,149,124,114,129,123
2025-02-25 18:01:57.515,-265.0,-907.0,405.0,0.0,1.0,3.0,145,122,113,128,122
2025-02-25 18:01:57.519,-262.0,-909.0,400.0,-1.0,1.0,2.0,147,123,115,131,124
2025-02-25 18:01:57.526,-262.0,-913.0,399.0,-1.0,1.0,2.0,144,124,114,129,124
2025-02-25 18:01:57.531,-265.0,-911.0,400.0,-1.0,1.0,2.0,145,122,112,128,122
2025-02-25 18:01:57.535,-268.0,-901.0,386.0,-2.0,1.0,2.0,144,120,112,128,122
2025-02-25 18:01:57.540,-268.0,-896.0,388.0,3.0,1.0,2.0,147,124,114,129,122
2025-02-25 18:01:57.544,-254.0,-883.0,362.0,0.0,-3.0,3.0,147,124,115,130,123
2025-02-25 18:01:57.551,-230.0,-846.0,386.0,-3.0,0.0,2.0,145,122,114,129,122
2025-02-25 18:01:57.556,-223.0,-862.0,338.0,-4.0,3.0,2.0,147,123,114,129,123
2025-02-25 18:01:57.560,-236.0,-905.0,351.0,-3.0,1.0,3.0,147,122,116,129,122
2025-02-25 18:01:57.564,-239.0,-874.0,384.0,-5.0,1.0,2.0,146,121,114,128,123
2025-02-25 18:01:57.572,-231.0,-854.0,335.0,-9.0,2.0,2.0,146,120,112,127,121
2025-02-25 18:01:57.576,-213.0,-912.0,326.0,-10.0,-1.0,1.0,148,122,114,130,124
2025-02-25 18:01:57.581,-219.0,-914.0,374.0,-10.0,-1.0,-1.0,146,122,112,128,123
2025-02-25 18:01:57.588,-212.0,-926.0,338.0,-12.0,-2.0,-2.0,144,121,114,128,122
2025-02-25 18:01:57.593,-222.0,-952.0,334.0,-9.0,-2.0,-2.0,145,122,113,127,122
2025-02-25 18:01:57.597,-243.0,-959.0,342.0,-9.0,-3.0,-2.0,148,122,114,129,123
2025-02-25 18:01:57.601,-243.0,-966.0,327.0,-7.0,-5.0,0.0,147,122,113,129,122
2025-02-25 18:01:57.609,-254.0,-992.0,338.0,-8.0,-7.0,2.0,147,121,113,129,123
2025-02-25 18:01:57.613,-265.0,-998.0,351.0,-8.0,-7.0,3.0,145,121,113,129,121
2025-02-25 18:01:57.617,-271.0,-1000.0,341.0,-6.0,-7.0,4.0,147,123,114,130,123
2025-02-25 18:01:57.622,-277.0,-1003.0,335.0,-5.0,-6.0,7.0,146,123,115,129,122
2025-02-25 18:01:57.629,-291.0,-1001.0,344.0,-2.0,-6.0,9.0,147,123,114,129,123
2025-02-25 18:01:57.634,-303.0,-1006.0,347.0,0.0,-4.0,11.0,145,121,113,127,121
2025-02-25 18:01:57.637,-321.0,-1014.0,396.0,1.0,-7.0,12.0,147,121,112,129,122
2025-02-25 18:01:57.642,-284.0,-967.0,404.0,3.0,-5.0,12.0,148,123,114,130,124
2025-02-25 18:01:57.649,-308.0,-976.0,346.0,2.0,-4.0,13.0,146,121,115,129,122
2025-02-25 18:01:57.654,-307.0,-981.0,366.0,6.0,-5.0,14.0,146,121,113,129,122
2025-02-25 18:01:57.659,-275.0,-939.0,354.0,5.0,-1.0,13.0,145,120,112,128,121
2025-02-25 18:01:57.663,-282.0,-951.0,355.0,5.0,1.0,14.0,147,124,115,130,122
2025-02-25 18:01:57.671,-269.0,-944.0,353.0,6.0,-1.0,15.0,147,123,116,130,125
2025-02-25 18:01:57.675,-262.0,-925.0,382.0,5.0,0.0,14.0,146,122,112,128,121
2025-02-25 18:01:57.679,-246.0,-931.0,383.0,3.0,1.0,13.0,147,122,114,129,123
2025-02-25 18:01:57.683,-255.0,-932.0,354.0,4.0,-1.0,12.0,148,123,115,130,123
2025-02-25 18:01:57.690,-254.0,-917.0,373.0,4.0,-2.0,13.0,147,121,113,128,122
2025-02-25 18:01:57.695,-246.0,-883.0,384.0,-1.0,-1.0,13.0,145,121,113,127,122
2025-02-25 18:01:57.699,-255.0,-901.0,362.0,2.0,-1.0,14.0,147,123,114,128,122
2025-02-25 18:01:57.703,-271.0,-898.0,370.0,5.0,-3.0,14.0,147,124,114,128,123
2025-02-25 18:01:57.711,-276.0,-889.0,372.0,4.0,-3.0,14.0,147,124,113,128,122
2025-02-25 18:01:57.715,-271.0,-866.0,400.0,0.0,-1.0,14.0,147,122,112,128,122
2025-02-25 18:01:57.720,-291.0,-872.0,330.0,4.0,-4.0,14.0,146,122,115,129,123
2025-02-25 18:01:57.727,-287.0,-873.0,389.0,0.0,-6.0,14.0,147,123,113,129,123
2025-02-25 18:01:57.731,-286.0,-869.0,386.0,-1.0,-5.0,13.0,145,123,114,128,122
2025-02-25 18:01:57.736,-302.0,-853.0,379.0,-4.0,-4.0,12.0,145,122,111,127,122
2025-02-25 18:01:57.740,-295.0,-850.0,366.0,-2.0,-4.0,11.0,145,123,110,129,123
2025-02-25 18:01:57.748,-275.0,-834.0,406.0,-1.0,0.0,9.0,148,124,114,128,124
2025-02-25 18:01:57.752,-297.0,-866.0,380.0,4.0,1.0,7.0,147,122,114,128,122
2025-02-25 18:01:57.756,-295.0,-845.0,385.0,2.0,1.0,6.0,145,122,112,128,123
2025-02-25 18:01:57.761,-296.0,-829.0,370.0,3.0,-2.0,5.0,147,122,114,129,124
2025-02-25 18:01:57.765,-276.0,-833.0,394.0,-1.0,-4.0,2.0,145,120,114,128,123
2025-02-25 18:01:57.773,-266.0,-838.0,417.0,-3.0,-3.0,0.0,147,121,112,128,122
2025-02-25 18:01:57.777,-269.0,-850.0,383.0,-1.0,-3.0,0.0,146,121,114,127,122
2025-02-25 18:01:57.781,-257.0,-843.0,401.0,2.0,-3.0,-3.0,147,123,114,129,123
2025-02-25 18:01:57.785,-254.0,-850.0,423.0,3.0,0.0,-4.0,146,124,114,129,121
2025-02-25 18:01:57.793,-257.0,-865.0,414.0,3.0,1.0,-5.0,145,121,112,127,122
2025-02-25 18:01:57.797,-258.0,-870.0,408.0,2.0,2.0,-6.0,146,123,115,128,123
2025-02-25 18:01:57.801,-253.0,-878.0,423.0,0.0,2.0,-5.0,147,125,114,129,123
2025-02-25 18:01:57.806,-271.0,-897.0,412.0,0.0,1.0,-5.0,146,121,113,127,124
2025-02-25 18:01:57.813,-273.0,-906.0,423.0,3.0,1.0,-5.0,145,121,112,128,121
2025-02-25 18:01:57.817,-272.0,-906.0,426.0,5.0,2.0,-4.0,146,122,115,129,124
2025-02-25 18:01:57.822,-274.0,-917.0,417.0,4.0,3.0,-3.0,146,122,113,128,125
2025-02-25 18:01:57.826,-277.0,-915.0,416.0,5.0,4.0,-2.0,146,123,114,130,122
2025-02-25 18:01:57.834,-276.0,-923.0,418.0,4.0,3.0,-1.0,145,123,114,129,123
2025-02-25 18:01:57.838,-267.0,-923.0,421.0,2.0,4.0,0.0,146,117,114,129,121
2025-02-25 18:01:57.843,-268.0,-929.0,418.0,1.0,4.0,0.0,144,120,112,128,123
2025-02-25 18:01:57.847,-263.0,-931.0,439.0,1.0,4.0,1.0,147,122,112,128,123
2025-02-25 18:01:57.851,-265.0,-952.0,424.0,0.0,4.0,1.0,147,123,113,130,124
2025-02-25 18:01:57.859,-239.0,-967.0,425.0,0.0,4.0,1.0,145,121,113,130,123
2025-02-25 18:01:57.863,-229.0,-971.0,438.0,0.0,5.0,2.0,144,119,112,128,121
2025-02-25 18:01:57.868,-207.0,-1000.0,454.0,-4.0,8.0,1.0,145,122,114,129,123
2025-02-25 18:01:57.872,-168.0,-1032.0,490.0,0.0,10.0,1.0,147,122,114,129,123
2025-02-25 18:01:57.879,-171.0,-1058.0,464.0,0.0,11.0,3.0,146,120,117,128,122
2025-02-25 18:01:57.884,-149.0,-1086.0,482.0,-1.0,14.0,3.0,144,120,112,127,122
2025-02-25 18:01:57.888,-150.0,-1119.0,467.0,-2.0,16.0,5.0,147,125,116,131,125
2025-02-25 18:01:57.892,-151.0,-1143.0,469.0,0.0,18.0,8.0,147,120,113,129,124
2025-02-25 18:01:57.900,-163.0,-1162.0,458.0,2.0,20.0,11.0,145,119,116,128,123
2025-02-25 18:01:57.904,-170.0,-1161.0,475.0,2.0,23.0,13.0,145,117,112,128,121
2025-02-25 18:01:57.909,-175.0,-1165.0,472.0,5.0,27.0,17.0,149,121,116,129,125
2025-02-25 18:01:57.916,-197.0,-1175.0,449.0,4.0,28.0,22.0,148,119,114,129,125
2025-02-25 18:01:57.920,-208.0,-1179.0,440.0,1.0,27.0,28.0,144,116,113,129,122
2025-02-25 18:01:57.925,-210.0,-1160.0,425.0,-2.0,27.0,33.0,146,116,112,128,121
2025-02-25 18:01:57.929,-232.0,-1147.0,397.0,-5.0,26.0,36.0,148,118,114,128,124
2025-02-25 18:01:57.936,-256.0,-1161.0,405.0,-23.0,19.0,41.0,147,117,115,129,125
2025-02-25 18:01:57.941,-250.0,-1138.0,364.0,-30.0,17.0,45.0,146,115,112,130,125
2025-02-25 18:01:57.945,-264.0,-1119.0,404.0,-20.0,16.0,48.0,147,113,114,129,124
2025-02-25 18:01:57.953,-283.0,-1128.0,393.0,-21.0,15.0,51.0,145,114,111,127,118
2025-02-25 18:01:57.957,-283.0,-1085.0,387.0,-21.0,14.0,52.0,145,113,112,128,123
2025-02-25 18:01:57.962,-311.0,-1072.0,394.0,-11.0,14.0,54.0,146,113,112,128,124
2025-02-25 18:01:57.969,-335.0,-1081.0,382.0,-14.0,14.0,55.0,147,112,113,127,124
2025-02-25 18:01:57.974,-334.0,-1037.0,363.0,-16.0,14.0,56.0,147,112,112,128,124
2025-02-25 18:01:57.978,-353.0,-1017.0,355.0,-25.0,14.0,58.0,147,107,113,126,124
2025-02-25 18:01:57.986,-367.0,-1004.0,356.0,-22.0,14.0,58.0,146,111,110,128,123
2025-02-25 18:01:57.990,-366.0,-976.0,337.0,-27.0,12.0,59.0,149,113,113,129,124
2025-02-25 18:01:57.994,-369.0,-970.0,343.0,-31.0,11.0,59.0,147,113,112,127,124
2025-02-25 18:01:58.001,-371.0,-967.0,350.0,-44.0,13.0,59.0,147,112,114,127,124
2025-02-25 18:01:58.006,-378.0,-933.0,312.0,-51.0,17.0,59.0,146,112,114,127,123
2025-02-25 18:01:58.010,-367.0,-921.0,320.0,-60.0,13.0,58.0,146,112,111,127,123
2025-02-25 18:01:58.015,-340.0,-901.0,331.0,-81.0,21.0,58.0,145,113,112,126,121
2025-02-25 18:01:58.022,-361.0,-904.0,281.0,-93.0,23.0,57.0,149,113,114,128,123
2025-02-25 18:01:58.027,-370.0,-869.0,292.0,-105.0,21.0,56.0,148,114,113,127,123
2025-02-25 18:01:58.031,-389.0,-854.0,282.0,-117.0,16.0,56.0,148,115,113,128,124
2025-02-25 18:01:58.038,-412.0,-842.0,273.0,-128.0,15.0,56.0,146,112,113,127,122
2025-02-25 18:01:58.043,-438.0,-836.0,232.0,-150.0,10.0,55.0,145,111,111,127,121
2025-02-25 18:01:58.048,-458.0,-821.0,209.0,-159.0,-4.0,54.0,143,111,111,121,122
2025-02-25 18:01:58.055,-453.0,-789.0,200.0,-137.0,-11.0,53.0,148,115,114,128,124
2025-02-25 18:01:58.060,-486.0,-730.0,206.0,-105.0,-20.0,51.0,149,111,113,128,125
2025-02-25 18:01:58.064,-490.0,-727.0,321.0,-99.0,-15.0,47.0,147,112,112,129,125
2025-02-25 18:01:58.071,-471.0,-687.0,322.0,-77.0,-12.0,44.0,147,110,112,126,123
2025-02-25 18:01:58.076,-471.0,-683.0,332.0,-61.0,-11.0,41.0,146,110,112,125,123
2025-02-25 18:01:58.080,-489.0,-694.0,249.0,-49.0,-15.0,38.0,147,109,111,126,122
2025-02-25 18:01:58.088,-462.0,-707.0,291.0,-56.0,-9.0,34.0,148,110,112,127,124
2025-02-25 18:01:58.092,-508.0,-661.0,238.0,-42.0,-9.0,30.0,147,111,114,128,124
2025-02-25 18:01:58.097,-487.0,-729.0,250.0,-40.0,-7.0,26.0,148,111,111,123,123
2025-02-25 18:01:58.101,-479.0,-701.0,245.0,-35.0,-7.0,22.0,146,109,111,126,123
2025-02-25 18:01:58.109,-468.0,-689.0,258.0,-20.0,-1.0,18.0,146,109,112,126,122
2025-02-25 18:01:58.113,-490.0,-706.0,286.0,-11.0,5.0,15.0,147,112,112,127,125
2025-02-25 18:01:58.117,-485.0,-711.0,206.0,-4.0,7.0,10.0,149,113,114,127,123
2025-02-25 18:01:58.122,-462.0,-727.0,251.0,1.0,5.0,7.0,148,114,113,126,124
2025-02-25 18:01:58.129,-523.0,-723.0,248.0,-2.0,12.0,6.0,146,111,112,125,122
2025-02-25 18:01:58.133,-513.0,-689.0,178.0,2.0,10.0,5.0,149,114,114,129,124
2025-02-25 18:01:58.137,-522.0,-704.0,181.0,1.0,7.0,3.0,146,111,112,126,123
2025-02-25 18:01:58.141,-520.0,-702.0,192.0,-1.0,7.0,1.0,144,111,111,126,121
2025-02-25 18:01:58.149,-522.0,-707.0,166.0,1.0,6.0,0.0,140,110,110,125,120
2025-02-25 18:01:58.154,-521.0,-701.0,169.0,3.0,7.0,1.0,146,113,113,127,124
2025-02-25 18:01:58.157,-544.0,-700.0,149.0,3.0,3.0,1.0,146,112,112,127,121
2025-02-25 18:01:58.162,-523.0,-714.0,221.0,-1.0,3.0,1.0,146,113,111,126,122
2025-02-25 18:01:58.169,-524.0,-721.0,214.0,-7.0,3.0,1.0,148,113,112,127,124
2025-02-25 18:01:58.174,-521.0,-714.0,175.0,-6.0,-2.0,1.0,147,114,112,124,120
2025-02-25 18:01:58.178,-530.0,-734.0,171.0,-8.0,-3.0,0.0,145,114,112,125,121
2025-02-25 18:01:58.183,-516.0,-729.0,171.0,-11.0,-2.0,-1.0,146,115,113,127,122
2025-02-25 18:01:58.190,-516.0,-729.0,162.0,-13.0,-3.0,-3.0,144,114,112,126,122
2025-02-25 18:01:58.195,-491.0,-731.0,184.0,-18.0,-4.0,-6.0,147,113,113,126,122
2025-02-25 18:01:58.199,-478.0,-743.0,196.0,-18.0,-2.0,-9.0,144,111,109,125,121
2025-02-25 18:01:58.207,-484.0,-754.0,198.0,-17.0,-1.0,-12.0,142,109,106,124,119
2025-02-25 18:01:58.211,-480.0,-762.0,152.0,-20.0,-2.0,-13.0,144,113,109,124,114
2025-02-25 18:01:58.215,-455.0,-775.0,187.0,-22.0,-3.0,-16.0,145,114,110,125,121
2025-02-25 18:01:58.223,-457.0,-777.0,187.0,-22.0,-4.0,-19.0,146,115,111,125,121
2025-02-25 18:01:58.227,-461.0,-804.0,197.0,-26.0,-4.0,-23.0,144,115,110,125,121
2025-02-25 18:01:58.232,-450.0,-836.0,133.0,-23.0,-8.0,-26.0,146,116,112,125,120
2025-02-25 18:01:58.236,-436.0,-852.0,160.0,-23.0,-6.0,-27.0,144,114,111,125,120
2025-02-25 18:01:58.244,-438.0,-859.0,154.0,-11.0,-12.0,-27.0,144,115,111,122,120
2025-02-25 18:01:58.247,-415.0,-908.0,131.0,-26.0,-11.0,-27.0,145,117,112,126,119
2025-02-25 18:01:58.252,-392.0,-888.0,170.0,-24.0,-13.0,-25.0,144,117,113,127,122
2025-02-25 18:01:58.260,-433.0,-942.0,205.0,-31.0,-11.0,-22.0,146,117,111,126,121
2025-02-25 18:01:58.264,-398.0,-949.0,243.0,-31.0,-7.0,-19.0,145,117,111,125,120
2025-02-25 18:01:58.268,-406.0,-989.0,221.0,-28.0,-5.0,-14.0,145,117,112,124,120
2025-02-25 18:01:58.276,-420.0,-1004.0,220.0,-27.0,1.0,-10.0,143,116,111,124,120
2025-02-25 18:01:58.281,-413.0,-1022.0,183.0,-32.0,0.0,-8.0,145,117,111,125,121
2025-02-25 18:01:58.286,-422.0,-1025.0,186.0,-41.0,0.0,-4.0,145,119,114,127,121
2025-02-25 18:01:58.293,-421.0,-1022.0,199.0,-44.0,1.0,-1.0,144,118,112,127,119
2025-02-25 18:01:58.297,-427.0,-1036.0,221.0,-45.0,5.0,2.0,145,119,111,125,121
2025-02-25 18:01:58.301,-413.0,-1026.0,167.0,-40.0,5.0,4.0,143,118,110,125,120
2025-02-25 18:01:58.308,-415.0,-1032.0,196.0,-41.0,4.0,6.0,147,121,113,126,123
2025-02-25 18:01:58.313,-424.0,-1016.0,225.0,-31.0,9.0,7.0,146,122,113,124,123
2025-02-25 18:01:58.317,-436.0,-1018.0,174.0,-28.0,10.0,8.0,146,118,112,126,121
2025-02-25 18:01:58.321,-424.0,-980.0,128.0,-27.0,8.0,9.0,144,119,113,124,121
2025-02-25 18:01:58.329,-444.0,-966.0,167.0,-27.0,6.0,9.0,145,118,111,124,120
2025-02-25 18:01:58.333,-448.0,-935.0,142.0,-23.0,7.0,11.0,146,120,113,126,122
2025-02-25 18:01:58.338,-442.0,-938.0,127.0,-25.0,4.0,12.0,143,119,113,126,122
2025-02-25 18:01:58.342,-438.0,-917.0,168.0,-31.0,3.0,13.0,143,121,112,124,119
2025-02-25 18:01:58.350,-455.0,-903.0,154.0,-29.0,4.0,14.0,143,120,112,125,122
2025-02-25 18:01:58.354,-449.0,-910.0,147.0,-32.0,3.0,15.0,145,122,114,126,123
2025-02-25 18:01:58.359,-447.0,-882.0,119.0,-29.0,0.0,16.0,152,121,113,121,122
2025-02-25 18:01:58.366,-459.0,-872.0,92.0,-25.0,-5.0,16.0,147,120,111,127,121
2025-02-25 18:01:58.371,-461.0,-875.0,118.0,-22.0,-7.0,17.0,145,124,112,125,121
2025-02-25 18:01:58.375,-464.0,-880.0,120.0,-21.0,-11.0,16.0,146,122,112,124,121
2025-02-25 18:01:58.379,-473.0,-868.0,121.0,-17.0,-12.0,16.0,145,122,113,126,122
2025-02-25 18:01:58.387,-472.0,-842.0,137.0,-15.0,-12.0,16.0,145,121,114,127,122
2025-02-25 18:01:58.392,-467.0,-839.0,119.0,-15.0,-12.0,15.0,144,123,113,126,122
2025-02-25 18:01:58.395,-469.0,-828.0,132.0,-8.0,-12.0,14.0,144,121,113,125,120
2025-02-25 18:01:58.404,-480.0,-814.0,136.0,-7.0,-12.0,14.0,143,121,112,124,121
2025-02-25 18:01:58.408,-460.0,-811.0,143.0,-11.0,-12.0,13.0,145,121,113,126,122
2025-02-25 18:01:58.412,-456.0,-807.0,132.0,-6.0,-13.0,12.0,145,121,113,127,123
2025-02-25 18:01:58.420,-465.0,-812.0,154.0,-6.0,-10.0,10.0,144,122,115,126,121
2025-02-25 18:01:58.424,-475.0,-798.0,142.0,-3.0,-7.0,9.0,144,121,106,125,121
2025-02-25 18:01:58.429,-474.0,-826.0,116.0,2.0,-7.0,8.0,143,120,112,124,121
2025-02-25 18:01:58.432,-464.0,-811.0,141.0,4.0,-8.0,7.0,146,122,113,125,123
2025-02-25 18:01:58.440,-479.0,-827.0,160.0,6.0,-5.0,6.0,145,125,113,125,119
2025-02-25 18:01:58.445,-472.0,-840.0,135.0,6.0,-5.0,5.0,143,119,114,124,121
2025-02-25 18:01:58.449,-471.0,-815.0,162.0,7.0,-6.0,5.0,146,123,112,126,117
2025-02-25 18:01:58.454,-464.0,-819.0,162.0,9.0,-4.0,3.0,144,123,114,125,123
2025-02-25 18:01:58.461,-481.0,-819.0,130.0,12.0,-6.0,3.0,143,120,109,124,122
2025-02-25 18:01:58.465,-484.0,-810.0,144.0,8.0,-3.0,1.0,144,121,113,124,121
2025-02-25 18:01:58.469,-473.0,-823.0,146.0,15.0,-7.0,1.0,145,123,112,125,123
2025-02-25 18:01:58.473,-479.0,-836.0,169.0,18.0,-8.0,1.0,145,123,114,126,124
2025-02-25 18:01:58.481,-455.0,-815.0,164.0,16.0,-8.0,-1.0,144,119,113,125,126
2025-02-25 18:01:58.485,-450.0,-822.0,146.0,21.0,-8.0,0.0,145,121,113,124,122
2025-02-25 18:01:58.490,-464.0,-824.0,175.0,17.0,-8.0,0.0,147,119,115,127,122
2025-02-25 18:01:58.494,-446.0,-824.0,186.0,13.0,-7.0,-1.0,144,123,114,126,123
2025-02-25 18:01:58.501,-441.0,-841.0,196.0,13.0,-6.0,0.0,144,122,112,125,122
2025-02-25 18:01:58.506,-443.0,-853.0,177.0,11.0,-7.0,-1.0,144,122,114,125,120
2025-02-25 18:01:58.510,-437.0,-844.0,210.0,8.0,-6.0,-1.0,145,122,115,126,124
2025-02-25 18:01:58.515,-435.0,-854.0,215.0,11.0,-1.0,0.0,145,123,112,126,124
2025-02-25 18:01:58.522,-448.0,-860.0,186.0,9.0,-3.0,-1.0,143,121,113,123,123
2025-02-25 18:01:58.526,-437.0,-862.0,216.0,6.0,-1.0,-1.0,144,122,113,124,123
2025-02-25 18:01:58.530,-464.0,-872.0,198.0,5.0,2.0,-1.0,146,123,116,126,123
2025-02-25 18:01:58.535,-447.0,-880.0,181.0,4.0,0.0,-2.0,145,123,115,124,123
2025-02-25 18:01:58.542,-430.0,-878.0,187.0,0.0,0.0,-1.0,143,121,114,125,122
2025-02-25 18:01:58.547,-456.0,-882.0,219.0,-2.0,1.0,-2.0,142,121,114,124,122
2025-02-25 18:01:58.551,-435.0,-875.0,215.0,-3.0,4.0,-2.0,145,123,113,126,124
2025-02-25 18:01:58.555,-444.0,-881.0,173.0,-2.0,4.0,-2.0,144,122,113,125,124
2025-02-25 18:01:58.563,-457.0,-890.0,229.0,-2.0,5.0,-2.0,144,122,113,123,123
2025-02-25 18:01:58.567,-434.0,-876.0,183.0,-3.0,9.0,-1.0,143,121,112,123,122
2025-02-25 18:01:58.572,-429.0,-870.0,148.0,-3.0,6.0,-3.0,146,126,116,126,124
2025-02-25 18:01:58.576,-440.0,-861.0,194.0,-5.0,8.0,-2.0,145,123,115,124,123
2025-02-25 18:01:58.584,-442.0,-859.0,167.0,-6.0,9.0,-4.0,144,119,112,125,121
2025-02-25 18:01:58.588,-447.0,-863.0,177.0,-5.0,8.0,-4.0,144,120,111,124,123
2025-02-25 18:01:58.593,-449.0,-865.0,169.0,-2.0,12.0,-5.0,146,122,115,126,124
2025-02-25 18:01:58.597,-454.0,-882.0,144.0,4.0,9.0,-5.0,145,121,113,126,124
2025-02-25 18:01:58.604,-453.0,-875.0,151.0,6.0,10.0,-6.0,142,121,111,125,122
2025-02-25 18:01:58.608,-458.0,-864.0,144.0,10.0,9.0,-6.0,144,121,113,125,124
2025-02-25 18:01:58.612,-474.0,-907.0,162.0,2.0,14.0,-6.0,144,122,115,124,125
2025-02-25 18:01:58.616,-443.0,-894.0,97.0,-1.0,7.0,-8.0,146,121,113,125,124
2025-02-25 18:01:58.625,-456.0,-871.0,198.0,6.0,5.0,-8.0,145,120,114,123,122
2025-02-25 18:01:58.629,-424.0,-916.0,171.0,7.0,14.0,-9.0,145,124,114,125,123
2025-02-25 18:01:58.633,-473.0,-843.0,89.0,17.0,10.0,-9.0,145,121,114,127,125
2025-02-25 18:01:58.637,-427.0,-900.0,110.0,9.0,9.0,-11.0,144,121,114,126,122
2025-02-25 18:01:58.645,-429.0,-867.0,183.0,10.0,10.0,-10.0,143,120,113,124,122
2025-02-25 18:01:58.649,-455.0,-917.0,131.0,9.0,16.0,-11.0,144,120,107,126,124
2025-02-25 18:01:58.653,-435.0,-888.0,147.0,7.0,17.0,-11.0,145,122,113,126,124
2025-02-25 18:01:58.661,-421.0,-873.0,179.0,2.0,21.0,-12.0,146,123,112,125,126
2025-02-25 18:01:58.665,-444.0,-861.0,134.0,3.0,21.0,-11.0,143,120,114,125,124
2025-02-25 18:01:58.670,-437.0,-918.0,180.0,-9.0,30.0,-12.0,145,121,114,124,123
2025-02-25 18:01:58.674,-441.0,-860.0,122.0,-19.0,42.0,-13.0,148,121,114,126,125
2025-02-25 18:01:58.682,-408.0,-889.0,112.0,-8.0,42.0,-11.0,144,120,115,127,124
2025-02-25 18:01:58.686,-401.0,-894.0,157.0,-8.0,44.0,-12.0,144,120,115,127,123
2025-02-25 18:01:58.690,-452.0,-845.0,176.0,9.0,43.0,-14.0,145,119,114,127,122
2025-02-25 18:01:58.698,-474.0,-939.0,315.0,-2.0,55.0,-14.0,144,119,115,125,123
2025-02-25 18:01:58.702,-687.0,-751.0,707.0,15.0,77.0,-11.0,146,121,115,124,124
2025-02-25 18:01:58.707,-284.0,-1046.0,-239.0,38.0,28.0,-8.0,145,120,114,124,123
2025-02-25 18:01:58.711,-437.0,-934.0,-45.0,32.0,14.0,-9.0,145,119,113,126,123
2025-02-25 18:01:58.719,-470.0,-889.0,197.0,26.0,22.0,-7.0,144,120,115,126,124
2025-02-25 18:01:58.723,-447.0,-918.0,84.0,45.0,29.0,-7.0,145,121,115,123,121
2025-02-25 18:01:58.727,-440.0,-946.0,88.0,40.0,25.0,-5.0,146,121,114,127,125
2025-02-25 18:01:58.735,-434.0,-914.0,91.0,37.0,24.0,-5.0,145,120,113,126,124
2025-02-25 18:01:58.740,-422.0,-920.0,188.0,29.0,27.0,-4.0,145,119,115,125,123
2025-02-25 18:01:58.744,-441.0,-917.0,101.0,31.0,38.0,-2.0,143,119,112,125,123
2025-02-25 18:01:58.748,-434.0,-912.0,73.0,11.0,35.0,-2.0,144,121,115,125,125
2025-02-25 18:01:58.755,-432.0,-920.0,39.0,-9.0,30.0,-3.0,146,122,115,127,124
2025-02-25 18:01:58.759,-457.0,-897.0,73.0,-34.0,27.0,-4.0,150,119,116,129,123
2025-02-25 18:01:58.764,-457.0,-895.0,93.0,-46.0,23.0,-5.0,144,119,113,126,124
2025-02-25 18:01:58.768,-443.0,-876.0,156.0,-52.0,25.0,-6.0,146,119,115,127,124
2025-02-25 18:01:58.776,-455.0,-847.0,102.0,-36.0,25.0,-6.0,145,121,116,126,126
2025-02-25 18:01:58.780,-454.0,-855.0,74.0,-23.0,19.0,-5.0,142,120,113,132,125
2025-02-25 18:01:58.784,-466.0,-858.0,92.0,-6.0,14.0,-6.0,145,117,114,124,124
2025-02-25 18:01:58.789,-481.0,-883.0,84.0,1.0,1.0,-7.0,146,123,114,127,126
2025-02-25 18:01:58.796,-481.0,-883.0,93.0,-1.0,-12.0,-8.0,146,121,113,125,125
2025-02-25 18:01:58.801,-461.0,-885.0,103.0,-4.0,-20.0,-9.0,145,120,115,127,124
2025-02-25 18:01:58.805,-465.0,-899.0,87.0,-5.0,-21.0,-8.0,145,121,113,126,124
2025-02-25 18:01:58.813,-456.0,-893.0,92.0,-2.0,-21.0,-8.0,144,120,115,127,125
2025-02-25 18:01:58.817,-440.0,-894.0,120.0,6.0,-17.0,-8.0,146,121,115,126,125
2025-02-25 18:01:58.821,-445.0,-892.0,182.0,6.0,-11.0,-8.0,146,122,114,127,125
2025-02-25 18:01:58.826,-441.0,-888.0,173.0,12.0,-10.0,-8.0,144,120,112,126,126
2025-02-25 18:01:58.833,-432.0,-903.0,138.0,13.0,-11.0,-9.0,147,121,109,126,126
2025-02-25 18:01:58.838,-441.0,-901.0,123.0,10.0,-9.0,-10.0,146,122,117,127,125
2025-02-25 18:01:58.842,-428.0,-894.0,128.0,6.0,-6.0,-10.0,147,121,114,126,126
2025-02-25 18:01:58.850,-435.0,-894.0,132.0,6.0,-2.0,-11.0,145,118,113,127,125
2025-02-25 18:01:58.854,-420.0,-896.0,144.0,2.0,2.0,-12.0,145,122,113,124,124
2025-02-25 18:01:58.859,-442.0,-886.0,153.0,6.0,4.0,-12.0,144,120,114,125,123
2025-02-25 18:01:58.862,-412.0,-913.0,116.0,-2.0,7.0,-12.0,146,122,114,130,124
2025-02-25 18:01:58.870,-416.0,-908.0,126.0,0.0,12.0,-12.0,146,125,119,126,124
2025-02-25 18:01:58.874,-423.0,-928.0,116.0,-1.0,13.0,-12.0,143,120,113,127,124
2025-02-25 18:01:58.879,-414.0,-912.0,104.0,-5.0,13.0,-12.0,144,116,115,126,121
2025-02-25 18:01:58.886,-423.0,-921.0,99.0,-6.0,14.0,-11.0,147,122,116,129,125
2025-02-25 18:01:58.891,-425.0,-915.0,81.0,-5.0,11.0,-9.0,148,126,117,127,128
2025-02-25 18:01:58.895,-436.0,-924.0,79.0,-3.0,8.0,-7.0,146,122,115,127,123
2025-02-25 18:01:58.899,-439.0,-923.0,65.0,-2.0,7.0,-4.0,144,120,115,125,123
2025-02-25 18:01:58.903,-459.0,-925.0,96.0,5.0,4.0,-3.0,147,123,118,126,126
2025-02-25 18:01:58.911,-447.0,-941.0,85.0,7.0,1.0,-2.0,147,120,116,128,128
2025-02-25 18:01:58.915,-451.0,-912.0,77.0,10.0,2.0,-1.0,144,121,114,126,124
2025-02-25 18:01:58.920,-442.0,-914.0,45.0,10.0,5.0,0.0,144,120,113,126,125
2025-02-25 18:01:58.924,-446.0,-905.0,75.0,2.0,4.0,0.0,146,122,115,128,126
2025-02-25 18:01:58.932,-447.0,-908.0,96.0,-3.0,3.0,-1.0,147,120,115,127,125
2025-02-25 18:01:58.936,-430.0,-903.0,109.0,-13.0,0.0,-1.0,146,120,113,126,123
2025-02-25 18:01:58.940,-437.0,-915.0,110.0,-21.0,0.0,-3.0,147,120,116,127,123
2025-02-25 18:01:58.944,-430.0,-888.0,110.0,-21.0,2.0,-4.0,149,121,114,127,124
2025-02-25 18:01:58.953,-438.0,-894.0,92.0,-20.0,3.0,-4.0,149,122,115,127,125
2025-02-25 18:01:58.957,-427.0,-896.0,92.0,-17.0,2.0,-5.0,146,120,115,128,126
2025-02-25 18:01:58.961,-431.0,-892.0,105.0,-17.0,0.0,-6.0,146,121,117,128,126
2025-02-25 18:01:58.966,-432.0,-894.0,88.0,-21.0,-1.0,-6.0,148,121,115,128,124
2025-02-25 18:01:58.972,-424.0,-876.0,81.0,-21.0,-2.0,-7.0,145,121,113,127,125
2025-02-25 18:01:58.977,-419.0,-886.0,90.0,-17.0,-3.0,-6.0,144,120,114,126,124
2025-02-25 18:01:58.982,-421.0,-884.0,82.0,-17.0,-3.0,-6.0,146,121,115,126,124
2025-02-25 18:01:58.989,-415.0,-869.0,85.0,-13.0,-4.0,-5.0,147,121,116,124,125
2025-02-25 18:01:58.994,-425.0,-893.0,135.0,-9.0,-8.0,-4.0,147,119,117,129,125
2025-02-25 18:01:58.998,-404.0,-915.0,166.0,-10.0,-5.0,-4.0,146,121,115,125,125
2025-02-25 18:01:59.002,-414.0,-896.0,91.0,-1.0,-7.0,-4.0,144,122,115,127,125
2025-02-25 18:01:59.010,-421.0,-912.0,116.0,2.0,-7.0,-3.0,145,124,117,128,125
2025-02-25 18:01:59.014,-439.0,-933.0,119.0,3.0,-8.0,-3.0,147,123,116,128,125
2025-02-25 18:01:59.018,-433.0,-938.0,93.0,7.0,-9.0,-3.0,144,121,115,126,124
2025-02-25 18:01:59.023,-423.0,-928.0,108.0,6.0,-10.0,-3.0,145,122,115,125,123
2025-02-25 18:01:59.030,-420.0,-927.0,119.0,10.0,-9.0,-2.0,147,124,116,128,125
2025-02-25 18:01:59.035,-434.0,-926.0,128.0,10.0,-9.0,-1.0,146,122,114,126,126
2025-02-25 18:01:59.038,-428.0,-936.0,110.0,13.0,-11.0,0.0,145,120,114,126,124
2025-02-25 18:01:59.046,-424.0,-915.0,130.0,10.0,-7.0,0.0,145,123,114,127,123
2025-02-25 18:01:59.050,-434.0,-942.0,135.0,11.0,-5.0,2.0,143,126,117,130,126
2025-02-25 18:01:59.055,-437.0,-916.0,151.0,9.0,1.0,2.0,149,123,123,128,125
2025-02-25 18:01:59.059,-417.0,-886.0,148.0,12.0,2.0,3.0,148,123,115,127,124
2025-02-25 18:01:59.063,-421.0,-897.0,140.0,4.0,1.0,3.0,145,122,115,125,124
2025-02-25 18:01:59.070,-427.0,-872.0,99.0,-2.0,0.0,2.0,145,122,119,130,120
2025-02-25 18:01:59.075,-445.0,-874.0,140.0,-5.0,3.0,2.0,146,123,117,127,124
2025-02-25 18:01:59.079,-440.0,-844.0,136.0,-9.0,1.0,0.0,145,131,114,128,128
2025-02-25 18:01:59.083,-419.0,-855.0,166.0,-10.0,5.0,0.0,146,125,115,128,126
2025-02-25 18:01:59.091,-438.0,-846.0,129.0,-6.0,5.0,-1.0,146,124,114,129,124
2025-02-25 18:01:59.095,-449.0,-868.0,125.0,-6.0,6.0,-1.0,147,124,112,126,126
2025-02-25 18:01:59.100,-447.0,-868.0,105.0,-7.0,7.0,-2.0,145,123,113,125,123
2025-02-25 18:01:59.104,-480.0,-851.0,34.0,-14.0,0.0,-3.0,147,126,116,127,126
2025-02-25 18:01:59.111,-439.0,-881.0,166.0,-20.0,0.0,-4.0,153,126,115,136,126
2025-02-25 18:01:59.116,-440.0,-889.0,130.0,-13.0,-2.0,-4.0,144,123,110,127,125
2025-02-25 18:01:59.120,-447.0,-875.0,109.0,-13.0,-3.0,-5.0,145,124,113,128,124
2025-02-25 18:01:59.128,-442.0,-869.0,138.0,-7.0,-2.0,-6.0,147,126,116,128,127
2025-02-25 18:01:59.132,-456.0,-891.0,133.0,-7.0,-1.0,-6.0,147,124,118,128,126
2025-02-25 18:01:59.136,-466.0,-891.0,109.0,-7.0,-6.0,-7.0,148,125,118,130,127
2025-02-25 18:01:59.141,-453.0,-892.0,114.0,-6.0,-8.0,-8.0,145,123,115,127,123
2025-02-25 18:01:59.149,-443.0,-910.0,121.0,-8.0,-9.0,-9.0,146,125,116,124,123
2025-02-25 18:01:59.153,-437.0,-913.0,117.0,-11.0,-9.0,-10.0,148,127,118,129,124
2025-02-25 18:01:59.157,-422.0,-902.0,149.0,-10.0,-3.0,-10.0,148,126,115,128,124
2025-02-25 18:01:59.165,-427.0,-908.0,132.0,-12.0,0.0,-10.0,146,127,118,129,125
2025-02-25 18:01:59.169,-410.0,-916.0,126.0,-11.0,1.0,-10.0,146,125,117,126,123
2025-02-25 18:01:59.174,-416.0,-929.0,126.0,-8.0,1.0,-9.0,148,126,114,127,124
2025-02-25 18:01:59.178,-417.0,-933.0,111.0,-8.0,-1.0,-9.0,147,127,116,128,124
2025-02-25 18:01:59.185,-406.0,-941.0,118.0,-6.0,-2.0,-8.0,147,125,113,127,125
2025-02-25 18:01:59.190,-402.0,-939.0,119.0,-9.0,-1.0,-8.0,145,125,116,128,125
2025-02-25 18:01:59.194,-407.0,-953.0,91.0,-5.0,-3.0,-7.0,146,125,113,127,127
2025-02-25 18:01:59.199,-407.0,-950.0,88.0,-11.0,-2.0,-7.0,147,125,118,129,125
2025-02-25 18:01:59.206,-412.0,-936.0,92.0,-15.0,-3.0,-6.0,145,126,115,127,125
2025-02-25 18:01:59.211,-418.0,-948.0,112.0,-16.0,-3.0,-6.0,145,125,122,128,124
2025-02-25 18:01:59.214,-428.0,-936.0,98.0,-17.0,-3.0,-5.0,144,123,114,128,123
2025-02-25 18:01:59.222,-416.0,-941.0,118.0,-15.0,0.0,-5.0,145,121,107,128,124
2025-02-25 18:01:59.227,-424.0,-936.0,84.0,-12.0,0.0,-5.0,146,128,117,128,126
2025-02-25 18:01:59.231,-411.0,-932.0,92.0,-12.0,1.0,-5.0,148,125,114,129,126
2025-02-25 18:01:59.236,-412.0,-927.0,70.0,-11.0,1.0,-4.0,147,126,112,126,122
2025-02-25 18:01:59.243,-443.0,-931.0,56.0,-10.0,-1.0,-4.0,145,125,115,126,123
2025-02-25 18:01:59.248,-429.0,-926.0,47.0,-14.0,-5.0,-5.0,146,126,118,128,124
2025-02-25 18:01:59.252,-446.0,-934.0,54.0,-13.0,-7.0,-5.0,146,125,116,128,125
2025-02-25 18:01:59.259,-430.0,-941.0,109.0,-12.0,-7.0,-4.0,145,124,115,128,123
2025-02-25 18:01:59.264,-434.0,-938.0,71.0,-8.0,-10.0,-5.0,146,126,116,126,123
2025-02-25 18:01:59.268,-431.0,-936.0,50.0,-10.0,-9.0,-5.0,149,126,114,128,125
2025-02-25 18:01:59.273,-431.0,-941.0,86.0,-3.0,-9.0,-4.0,148,127,119,129,128
2025-02-25 18:01:59.280,-433.0,-929.0,83.0,1.0,-7.0,-5.0,145,121,116,128,125
2025-02-25 18:01:59.285,-422.0,-919.0,123.0,4.0,-4.0,-5.0,144,126,115,126,124
2025-02-25 18:01:59.289,-435.0,-930.0,85.0,5.0,-5.0,-5.0,146,126,118,128,124
2025-02-25 18:01:59.293,-393.0,-947.0,143.0,4.0,-3.0,-5.0,148,126,115,127,124
2025-02-25 18:01:59.300,-417.0,-948.0,54.0,12.0,-8.0,-5.0,147,126,116,124,123
2025-02-25 18:01:59.310,-406.0,-934.0,158.0,-2.0,-9.0,-5.0,146,124,112,127,124
2025-02-25 18:01:59.313,-426.0,-937.0,131.0,0.0,-3.0,-4.0,147,123,115,128,126
2025-02-25 18:01:59.315,-390.0,-935.0,116.0,2.0,-2.0,-4.0,148,122,118,129,125
2025-02-25 18:01:59.321,-401.0,-940.0,154.0,2.0,0.0,-3.0,149,122,114,127,122
2025-02-25 18:01:59.325,-399.0,-946.0,141.0,11.0,6.0,-3.0,146,123,113,126,123
2025-02-25 18:01:59.329,-376.0,-931.0,130.0,17.0,5.0,-2.0,147,124,117,124,124
2025-02-25 18:01:59.334,-394.0,-936.0,116.0,21.0,6.0,0.0,148,125,119,130,123
2025-02-25 18:01:59.342,-402.0,-948.0,131.0,19.0,6.0,1.0,145,122,114,127,122
2025-02-25 18:01:59.345,-373.0,-945.0,127.0,20.0,6.0,1.0,146,122,115,129,123
2025-02-25 18:01:59.349,-380.0,-951.0,116.0,20.0,1.0,1.0,145,122,118,128,125
2025-02-25 18:01:59.354,-396.0,-938.0,133.0,14.0,4.0,1.0,147,124,116,128,125
2025-02-25 18:01:59.358,-406.0,-918.0,119.0,2.0,3.0,1.0,146,120,114,126,122
2025-02-25 18:01:59.365,-407.0,-926.0,125.0,-1.0,2.0,1.0,148,124,117,128,124
2025-02-25 18:01:59.370,-409.0,-920.0,167.0,-3.0,2.0,2.0,148,120,114,128,125
2025-02-25 18:01:59.374,-422.0,-924.0,187.0,-11.0,6.0,1.0,146,119,113,127,122
2025-02-25 18:01:59.378,-396.0,-924.0,133.0,-14.0,5.0,1.0,145,120,117,128,123
2025-02-25 18:01:59.387,-442.0,-912.0,119.0,-25.0,6.0,-1.0,147,119,114,128,125
2025-02-25 18:01:59.391,-413.0,-930.0,125.0,-26.0,3.0,1.0,143,117,113,129,123
2025-02-25 18:01:59.395,-454.0,-906.0,122.0,-25.0,0.0,1.0,144,117,117,126,123
2025-02-25 18:01:59.403,-418.0,-903.0,77.0,-25.0,-8.0,1.0,144,115,110,126,123
2025-02-25 18:01:59.407,-434.0,-910.0,125.0,-18.0,-10.0,1.0,146,118,113,127,123
2025-02-25 18:01:59.411,-421.0,-908.0,121.0,-13.0,-9.0,1.0,145,117,114,127,122
2025-02-25 18:01:59.415,-411.0,-904.0,109.0,-2.0,-9.0,2.0,146,116,114,126,122
2025-02-25 18:01:59.423,-421.0,-925.0,154.0,4.0,-6.0,1.0,142,119,114,126,122
2025-02-25 18:01:59.427,-405.0,-896.0,149.0,9.0,-5.0,1.0,146,116,118,127,123
2025-02-25 18:01:59.432,-414.0,-918.0,127.0,6.0,-4.0,1.0,148,117,113,126,121
2025-02-25 18:01:59.436,-407.0,-914.0,136.0,-3.0,-3.0,1.0,145,113,111,126,121
2025-02-25 18:01:59.444,-394.0,-912.0,114.0,-4.0,-4.0,1.0,146,115,111,126,122
2025-02-25 18:01:59.448,-397.0,-931.0,145.0,-3.0,-2.0,1.0,147,118,111,126,123
2025-02-25 18:01:59.453,-396.0,-917.0,155.0,-4.0,2.0,1.0,145,117,114,129,123
2025-02-25 18:01:59.457,-399.0,-921.0,135.0,0.0,3.0,2.0,146,113,110,124,122
2025-02-25 18:01:59.461,-409.0,-915.0,165.0,5.0,6.0,2.0,146,115,112,126,122
2025-02-25 18:01:59.468,-398.0,-917.0,136.0,6.0,9.0,2.0,145,115,113,126,122
2025-02-25 18:01:59.472,-408.0,-903.0,113.0,9.0,10.0,2.0,144,117,114,126,123
2025-02-25 18:01:59.477,-406.0,-901.0,111.0,9.0,11.0,2.0,144,115,117,126,123
2025-02-25 18:01:59.481,-409.0,-892.0,112.0,7.0,10.0,1.0,145,115,115,124,122
2025-02-25 18:01:59.489,-422.0,-908.0,96.0,5.0,8.0,0.0,144,113,113,125,123
2025-02-25 18:01:59.493,-415.0,-894.0,87.0,-3.0,7.0,-1.0,145,115,113,124,121
2025-02-25 18:01:59.498,-401.0,-888.0,67.0,-5.0,4.0,-2.0,144,113,113,125,122
2025-02-25 18:01:59.502,-419.0,-895.0,67.0,-4.0,2.0,-2.0,145,113,113,126,122
2025-02-25 18:01:59.510,-417.0,-895.0,85.0,-5.0,0.0,-3.0,145,113,110,125,122
2025-02-25 18:01:59.514,-418.0,-907.0,95.0,-4.0,-1.0,-3.0,145,113,113,125,122
2025-02-25 18:01:59.518,-413.0,-930.0,101.0,-2.0,-2.0,-3.0,145,112,114,126,123
2025-02-25 18:01:59.522,-419.0,-926.0,68.0,-3.0,-5.0,-4.0,146,111,111,125,121
2025-02-25 18:01:59.530,-416.0,-936.0,81.0,-4.0,-6.0,-4.0,144,110,111,123,121
2025-02-25 18:01:59.534,-402.0,-932.0,73.0,-3.0,-8.0,-3.0,146,115,110,127,121
2025-02-25 18:01:59.538,-395.0,-939.0,69.0,-8.0,-9.0,-2.0,145,114,115,126,122
2025-02-25 18:01:59.542,-389.0,-942.0,127.0,-7.0,-9.0,-1.0,145,110,112,125,121
2025-02-25 18:01:59.550,-404.0,-961.0,121.0,-5.0,-9.0,-1.0,144,111,112,124,120
2025-02-25 18:01:59.555,-392.0,-954.0,94.0,-7.0,-5.0,0.0,146,112,112,127,121
2025-02-25 18:01:59.559,-397.0,-973.0,104.0,-4.0,-3.0,0.0,147,113,114,125,120
2025-02-25 18:01:59.563,-403.0,-1000.0,59.0,-4.0,-5.0,1.0,145,113,115,126,119
2025-02-25 18:01:59.571,-393.0,-996.0,120.0,-7.0,-1.0,2.0,147,113,111,125,120
2025-02-25 18:01:59.575,-383.0,-987.0,113.0,-8.0,0.0,3.0,146,111,111,125,122
2025-02-25 18:01:59.580,-408.0,-1030.0,107.0,-9.0,3.0,3.0,146,107,111,127,122
2025-02-25 18:01:59.583,-407.0,-1005.0,98.0,-12.0,3.0,3.0,145,110,111,125,120
2025-02-25 18:01:59.591,-396.0,-1010.0,87.0,-13.0,3.0,4.0,145,111,112,123,121
2025-02-25 18:01:59.595,-428.0,-1002.0,90.0,-12.0,5.0,5.0,147,111,112,125,122
2025-02-25 18:01:59.600,-436.0,-1003.0,97.0,-15.0,7.0,4.0,146,108,111,124,120
2025-02-25 18:01:59.604,-445.0,-998.0,69.0,-16.0,8.0,5.0,143,106,111,124,119
2025-02-25 18:01:59.611,-435.0,-998.0,20.0,-11.0,6.0,6.0,144,108,109,123,119
2025-02-25 18:01:59.616,-432.0,-1000.0,51.0,-7.0,6.0,7.0,143,108,111,126,121
2025-02-25 18:01:59.620,-422.0,-992.0,66.0,-3.0,9.0,10.0,147,109,110,123,119
2025-02-25 18:01:59.624,-419.0,-998.0,43.0,-3.0,10.0,11.0,145,106,111,122,118
2025-02-25 18:01:59.632,-395.0,-1008.0,74.0,-6.0,13.0,11.0,144,107,112,125,120
2025-02-25 18:01:59.636,-396.0,-991.0,54.0,-11.0,14.0,12.0,145,108,113,123,120
2025-02-25 18:01:59.641,-409.0,-990.0,104.0,-15.0,15.0,13.0,143,107,111,126,125
2025-02-25 18:01:59.645,-410.0,-978.0,101.0,-21.0,14.0,13.0,144,105,111,124,117
2025-02-25 18:01:59.653,-402.0,-999.0,93.0,-30.0,13.0,14.0,145,109,112,124,119
2025-02-25 18:01:59.657,-395.0,-986.0,73.0,-33.0,11.0,14.0,145,106,113,124,119
2025-02-25 18:01:59.662,-383.0,-991.0,85.0,-27.0,11.0,16.0,148,106,108,123,117
2025-02-25 18:01:59.669,-394.0,-997.0,67.0,-22.0,12.0,18.0,144,104,107,123,117
2025-02-25 18:01:59.674,-404.0,-1008.0,63.0,-15.0,13.0,20.0,145,104,111,122,116
2025-02-25 18:01:59.678,-405.0,-1002.0,68.0,-11.0,15.0,21.0,142,103,109,120,114
2025-02-25 18:01:59.682,-424.0,-1012.0,48.0,-8.0,15.0,24.0,145,106,111,123,116
2025-02-25 18:01:59.690,-455.0,-1006.0,71.0,-13.0,17.0,26.0,145,105,109,123,114
2025-02-25 18:01:59.694,-446.0,-954.0,21.0,-15.0,16.0,27.0,146,102,107,120,113
2025-02-25 18:01:59.698,-440.0,-992.0,85.0,-15.0,19.0,30.0,145,101,109,120,109
2025-02-25 18:01:59.706,-454.0,-969.0,36.0,-16.0,20.0,30.0,145,101,108,120,111
2025-02-25 18:01:59.710,-468.0,-945.0,-6.0,-17.0,18.0,30.0,147,98,108,121,110
2025-02-25 18:01:59.715,-469.0,-977.0,61.0,-17.0,22.0,30.0,143,100,106,121,110
2025-02-25 18:01:59.719,-461.0,-959.0,37.0,-18.0,21.0,29.0,145,97,106,120,107
2025-02-25 18:01:59.726,-449.0,-935.0,70.0,-18.0,19.0,28.0,145,97,107,119,108
2025-02-25 18:01:59.731,-445.0,-938.0,120.0,-19.0,20.0,27.0,145,96,106,119,106
2025-02-25 18:01:59.735,-453.0,-933.0,87.0,-19.0,19.0,25.0,145,94,103,118,105
2025-02-25 18:01:59.739,-455.0,-912.0,48.0,-24.0,19.0,25.0,144,91,104,116,102
2025-02-25 18:01:59.747,-447.0,-898.0,27.0,-28.0,20.0,25.0,143,90,105,117,103
2025-02-25 18:01:59.751,-439.0,-907.0,22.0,-28.0,20.0,27.0,142,88,103,117,103
2025-02-25 18:01:59.755,-458.0,-898.0,2.0,-31.0,20.0,28.0,146,88,105,117,104
2025-02-25 18:01:59.759,-443.0,-935.0,59.0,-23.0,22.0,30.0,145,83,106,116,100
2025-02-25 18:01:59.767,-497.0,-925.0,31.0,-11.0,19.0,29.0,144,82,104,115,102
2025-02-25 18:01:59.771,-497.0,-960.0,84.0,-5.0,14.0,30.0,144,80,104,118,102
2025-02-25 18:01:59.775,-482.0,-921.0,40.0,-11.0,8.0,29.0,144,81,104,115,100
2025-02-25 18:01:59.780,-471.0,-913.0,27.0,-6.0,9.0,30.0,139,78,100,109,99
2025-02-25 18:01:59.787,-489.0,-897.0,38.0,-13.0,14.0,29.0,145,78,102,114,98
2025-02-25 18:01:59.791,-496.0,-881.0,59.0,-18.0,22.0,27.0,145,79,111,114,100
2025-02-25 18:01:59.796,-487.0,-833.0,56.0,-28.0,24.0,26.0,143,74,102,113,96
2025-02-25 18:01:59.800,-501.0,-902.0,9.0,-34.0,30.0,25.0,147,78,100,114,96
2025-02-25 18:01:59.808,-522.0,-888.0,20.0,-43.0,30.0,24.0,146,73,100,111,95
2025-02-25 18:01:59.812,-507.0,-857.0,30.0,-46.0,31.0,23.0,146,70,106,110,94
2025-02-25 18:01:59.816,-508.0,-840.0,41.0,-44.0,29.0,23.0,143,69,95,106,91
2025-02-25 18:01:59.820,-507.0,-830.0,42.0,-42.0,29.0,22.0,147,70,93,108,90
2025-02-25 18:01:59.825,-499.0,-830.0,8.0,-38.0,22.0,21.0,144,72,98,106,88
2025-02-25 18:01:59.832,-507.0,-815.0,24.0,-31.0,19.0,19.0,144,72,95,106,92
2025-02-25 18:01:59.837,-512.0,-807.0,5.0,-29.0,15.0,18.0,144,69,96,105,86
2025-02-25 18:01:59.841,-514.0,-812.0,-7.0,-29.0,14.0,18.0,152,67,92,103,85
2025-02-25 18:01:59.845,-504.0,-774.0,-38.0,-29.0,13.0,18.0,143,65,95,102,84
2025-02-25 18:01:59.850,-495.0,-796.0,-50.0,-25.0,12.0,18.0,144,66,92,104,84
2025-02-25 18:01:59.857,-532.0,-792.0,-56.0,-25.0,15.0,19.0,144,65,93,102,82
2025-02-25 18:01:59.862,-539.0,-770.0,-41.0,-32.0,16.0,21.0,142,74,91,101,86
2025-02-25 18:01:59.866,-506.0,-754.0,18.0,-26.0,15.0,22.0,143,63,88,97,79
2025-02-25 18:01:59.870,-529.0,-753.0,67.0,-28.0,14.0,24.0,146,63,92,98,78
2025-02-25 18:01:59.878,-550.0,-712.0,28.0,-30.0,14.0,25.0,146,61,87,94,75
2025-02-25 18:01:59.882,-566.0,-713.0,52.0,-34.0,22.0,27.0,143,57,87,94,67
2025-02-25 18:01:59.886,-600.0,-674.0,92.0,-34.0,29.0,32.0,143,61,85,92,72
2025-02-25 18:01:59.890,-658.0,-568.0,84.0,-32.0,31.0,37.0,143,60,73,92,72
2025-02-25 18:01:59.895,-671.0,-567.0,101.0,-35.0,37.0,43.0,144,58,83,89,71
2025-02-25 18:01:59.899,-749.0,-332.0,81.0,-34.0,47.0,49.0,143,55,82,92,69
2025-02-25 18:01:59.907,-841.0,-284.0,93.0,-29.0,62.0,59.0,141,58,84,90,68
2025-02-25 18:01:59.911,-898.0,-118.0,184.0,-24.0,68.0,62.0,145,59,79,87,65
2025-02-25 18:01:59.915,-989.0,-94.0,199.0,-18.0,93.0,73.0,143,58,76,88,66
2025-02-25 18:01:59.919,-964.0,106.0,151.0,-22.0,119.0,81.0,144,58,79,88,64
2025-02-25 18:01:59.923,-860.0,301.0,56.0,-15.0,131.0,84.0,143,56,78,87,60
2025-02-25 18:01:59.931,-864.0,321.0,-24.0,-11.0,144.0,79.0,142,57,77,88,62
2025-02-25 18:01:59.935,-953.0,616.0,51.0,-17.0,156.0,65.0,140,55,77,90,61
2025-02-25 18:01:59.940,-944.0,770.0,-76.0,-24.0,166.0,53.0,139,55,75,87,58
2025-02-25 18:01:59.944,-924.0,875.0,-235.0,-27.0,181.0,48.0,142,58,71,89,60
2025-02-25 18:01:59.952,-742.0,1135.0,-305.0,-12.0,187.0,35.0,141,56,71,90,57
2025-02-25 18:01:59.956,-641.0,1185.0,-421.0,51.0,188.0,2.0,140,57,71,90,55
2025-02-25 18:01:59.960,-695.0,1452.0,-590.0,140.0,179.0,-22.0,138,57,70,91,59
2025-02-25 18:01:59.964,-646.0,1340.0,-663.0,204.0,156.0,-87.0,138,56,67,90,57
2025-02-25 18:01:59.972,-563.0,2054.0,-1324.0,242.0,128.0,-180.0,133,56,64,89,58
2025-02-25 18:01:59.976,-430.0,2289.0,-1588.0,271.0,86.0,-276.0,134,58,66,86,55
2025-02-25 18:01:59.980,-850.0,2202.0,-1737.0,219.0,45.0,-316.0,132,57,65,85,59
2025-02-25 18:01:59.988,-1478.0,1864.0,-1682.0,196.0,-18.0,-413.0,133,57,71,85,56
2025-02-25 18:01:59.992,-1590.0,1600.0,-1305.0,245.0,-104.0,-508.0,133,58,66,85,59
2025-02-25 18:01:59.997,-1075.0,1131.0,-1405.0,222.0,-233.0,-599.0,131,56,66,84,58
2025-02-25 18:02:00.005,-289.0,1135.0,-894.0,223.0,-307.0,-680.0,131,56,65,83,57
2025-02-25 18:02:00.009,268.0,537.0,-466.0,210.0,-327.0,-714.0,128,55,63,84,53
2025-02-25 18:02:00.013,1234.0,154.0,325.0,194.0,-333.0,-715.0,130,55,66,84,60
2025-02-25 18:02:00.021,2148.0,-911.0,721.0,194.0,-319.0,-673.0,129,58,69,86,61
2025-02-25 18:02:00.025,2949.0,-2231.0,1314.0,207.0,-282.0,-577.0,129,58,67,85,63
2025-02-25 18:02:00.030,3232.0,-3633.0,1863.0,207.0,-215.0,-443.0,129,58,67,85,62
2025-02-25 18:02:00.038,3289.0,-4870.0,2462.0,252.0,-175.0,-267.0,130,58,67,81,61
2025-02-25 18:02:00.042,3341.0,-5833.0,3025.0,282.0,-68.0,-108.0,127,56,67,81,61
2025-02-25 18:02:00.046,3342.0,-5868.0,3017.0,323.0,9.0,-37.0,127,55,68,80,61
2025-02-25 18:02:00.051,3197.0,-6015.0,2906.0,348.0,125.0,78.0,125,56,71,76,62
2025-02-25 18:02:00.058,2557.0,-5409.0,2594.0,354.0,210.0,155.0,128,56,76,77,64
2025-02-25 18:02:00.062,1827.0,-4218.0,2101.0,317.0,236.0,203.0,126,55,79,76,62
2025-02-25 18:02:00.066,1498.0,-3157.0,1676.0,224.0,247.0,234.0,126,56,74,73,61
2025-02-25 18:02:00.075,823.0,-2422.0,1336.0,99.0,209.0,237.0,127,58,81,76,62
2025-02-25 18:02:00.079,531.0,-1623.0,1215.0,-23.0,186.0,224.0,123,57,76,75,59
2025-02-25 18:02:00.083,443.0,-1195.0,974.0,-75.0,139.0,179.0,124,58,75,78,62
2025-02-25 18:02:00.088,228.0,-1076.0,708.0,-172.0,123.0,152.0,123,56,67,78,60
2025-02-25 18:02:00.095,265.0,-1154.0,386.0,-230.0,94.0,134.0,124,57,68,82,61
2025-02-25 18:02:00.099,241.0,-1401.0,360.0,-270.0,60.0,108.0,123,59,64,85,62
2025-02-25 18:02:00.103,88.0,-1670.0,117.0,-275.0,38.0,101.0,123,56,65,85,62
2025-02-25 18:02:00.107,153.0,-1964.0,17.0,-280.0,28.0,104.0,124,57,64,82,61
2025-02-25 18:02:00.115,6.0,-1893.0,-55.0,-272.0,25.0,109.0,124,59,66,86,64
2025-02-25 18:02:00.119,205.0,-1992.0,8.0,-260.0,8.0,115.0,122,59,69,85,65
2025-02-25 18:02:00.124,86.0,-2028.0,83.0,-246.0,5.0,136.0,123,55,65,83,61
2025-02-25 18:02:00.128,51.0,-1923.0,78.0,-237.0,-1.0,145.0,122,61,67,86,63
2025-02-25 18:02:00.132,45.0,-1783.0,58.0,-227.0,-24.0,163.0,125,62,66,87,64
2025-02-25 18:02:00.140,51.0,-1618.0,160.0,-220.0,-32.0,179.0,122,61,68,85,61
2025-02-25 18:02:00.145,53.0,-1487.0,169.0,-219.0,-35.0,185.0,122,58,69,84,63
2025-02-25 18:02:00.149,38.0,-1314.0,186.0,-212.0,-58.0,195.0,124,59,67,83,64
2025-02-25 18:02:00.153,2.0,-1098.0,184.0,-214.0,-50.0,209.0,126,62,73,85,60
2025-02-25 18:02:00.160,27.0,-954.0,212.0,-209.0,-53.0,209.0,124,56,68,81,62
2025-02-25 18:02:00.164,43.0,-900.0,160.0,-211.0,-47.0,208.0,123,57,73,82,63
2025-02-25 18:02:00.169,22.0,-750.0,154.0,-209.0,-49.0,203.0,124,59,73,81,64
2025-02-25 18:02:00.173,-75.0,-667.0,125.0,-207.0,-39.0,199.0,125,61,78,81,63
2025-02-25 18:02:00.181,-93.0,-630.0,103.0,-208.0,-39.0,194.0,123,60,73,79,61
2025-02-25 18:02:00.186,-120.0,-491.0,-22.0,-205.0,-58.0,192.0,126,59,76,82,63
2025-02-25 18:02:00.190,-176.0,-506.0,-14.0,-193.0,-54.0,186.0,125,60,76,81,62
2025-02-25 18:02:00.194,-166.0,-434.0,4.0,-189.0,-42.0,177.0,125,61,78,81,65
2025-02-25 18:02:00.201,-169.0,-439.0,-54.0,-178.0,-35.0,171.0,123,58,76,80,62
2025-02-25 18:02:00.206,-233.0,-428.0,-52.0,-166.0,-34.0,171.0,127,60,75,82,63
2025-02-25 18:02:00.210,-312.0,-459.0,-66.0,-148.0,-38.0,170.0,125,60,78,83,62
2025-02-25 18:02:00.215,-326.0,-485.0,-66.0,-144.0,-31.0,171.0,124,61,73,82,61
2025-02-25 18:02:00.223,-318.0,-459.0,-75.0,-129.0,-20.0,173.0,124,58,71,82,62
2025-02-25 18:02:00.227,-301.0,-447.0,-65.0,-114.0,-6.0,173.0,122,58,71,82,62
2025-02-25 18:02:00.231,-344.0,-421.0,-69.0,-97.0,5.0,174.0,126,61,73,83,62
2025-02-25 18:02:00.234,-326.0,-365.0,-58.0,-91.0,20.0,175.0,125,60,71,80,63
2025-02-25 18:02:00.243,-375.0,-315.0,-109.0,-76.0,26.0,175.0,126,58,73,75,61
2025-02-25 18:02:00.247,-452.0,-301.0,-114.0,-61.0,30.0,174.0,126,63,69,75,63
2025-02-25 18:02:00.252,-501.0,-250.0,-165.0,-46.0,23.0,169.0,123,60,75,84,63
2025-02-25 18:02:00.256,-534.0,-245.0,-196.0,-33.0,27.0,162.0,126,59,69,83,62
2025-02-25 18:02:00.264,-527.0,-154.0,-242.0,-23.0,32.0,158.0,123,65,69,79,62
2025-02-25 18:02:00.268,-546.0,-116.0,-274.0,-13.0,33.0,156.0,126,61,72,82,64
2025-02-25 18:02:00.272,-562.0,-20.0,-260.0,-12.0,32.0,160.0,127,60,64,85,64
2025-02-25 18:02:00.277,-602.0,140.0,-332.0,-12.0,31.0,156.0,125,60,72,85,63
2025-02-25 18:02:00.284,-618.0,183.0,-325.0,-16.0,28.0,155.0,126,61,67,92,62
2025-02-25 18:02:00.288,-636.0,354.0,-323.0,-23.0,24.0,148.0,125,60,73,85,63
2025-02-25 18:02:00.292,-690.0,571.0,-389.0,-23.0,11.0,140.0,126,54,70,83,64
2025-02-25 18:02:00.297,-731.0,742.0,-399.0,-32.0,6.0,133.0,125,59,71,82,64
2025-02-25 18:02:00.304,-803.0,860.0,-424.0,-43.0,-9.0,130.0,128,58,70,84,64
2025-02-25 18:02:00.308,-901.0,1002.0,-447.0,-54.0,-24.0,125.0,127,60,71,83,64
2025-02-25 18:02:00.313,-997.0,1194.0,-465.0,-55.0,-44.0,117.0,127,61,71,83,65
2025-02-25 18:02:00.317,-1077.0,1356.0,-444.0,-53.0,-53.0,108.0,128,57,70,82,60
2025-02-25 18:02:00.325,-1134.0,1441.0,-427.0,-38.0,-74.0,102.0,127,59,72,81,63
2025-02-25 18:02:00.329,-1211.0,1498.0,-404.0,-8.0,-80.0,82.0,127,60,69,82,64
2025-02-25 18:02:00.333,-1178.0,1687.0,-298.0,15.0,-74.0,46.0,130,62,70,83,63
2025-02-25 18:02:00.340,-1172.0,1888.0,-180.0,70.0,-70.0,-14.0,128,60,68,80,61
2025-02-25 18:02:00.344,-1102.0,2014.0,-90.0,137.0,-49.0,-52.0,125,60,67,81,62
2025-02-25 18:02:00.349,-939.0,2346.0,-38.0,190.0,-14.0,-129.0,128,59,71,82,64
2025-02-25 18:02:00.353,-906.0,2607.0,5.0,212.0,25.0,-204.0,127,61,71,84,64
2025-02-25 18:02:00.361,-969.0,2774.0,38.0,246.0,34.0,-290.0,127,58,68,83,63
2025-02-25 18:02:00.365,-965.0,2765.0,25.0,256.0,47.0,-336.0,125,59,72,82,60
2025-02-25 18:02:00.369,-832.0,2803.0,33.0,245.0,45.0,-430.0,126,59,75,85,64
2025-02-25 18:02:00.373,-672.0,2663.0,1.0,231.0,32.0,-526.0,128,63,72,86,64
2025-02-25 18:02:00.378,-571.0,2478.0,14.0,188.0,18.0,-572.0,127,59,70,85,62
2025-02-25 18:02:00.385,-303.0,2334.0,-9.0,138.0,-12.0,-670.0,126,61,71,86,64
2025-02-25 18:02:00.390,100.0,1863.0,-19.0,111.0,-55.0,-759.0,126,61,71,88,65
2025-02-25 18:02:00.394,766.0,1084.0,144.0,63.0,-74.0,-813.0,125,61,69,89,66
2025-02-25 18:02:00.398,1101.0,563.0,338.0,28.0,-110.0,-823.0,125,58,70,87,64
2025-02-25 18:02:00.406,1799.0,-914.0,416.0,25.0,-130.0,-791.0,127,62,71,89,65
2025-02-25 18:02:00.410,2186.0,-2518.0,591.0,35.0,-147.0,-710.0,125,63,71,88,67
2025-02-25 18:02:00.414,2571.0,-3985.0,976.0,65.0,-145.0,-582.0,125,62,71,90,66
2025-02-25 18:02:00.422,2791.0,-5322.0,1284.0,113.0,-124.0,-424.0,126,60,69,88,67
2025-02-25 18:02:00.427,2987.0,-5819.0,1470.0,164.0,-19.0,-352.0,125,57,73,88,66
2025-02-25 18:02:00.431,3235.0,-6509.0,1727.0,256.0,29.0,-185.0,126,62,75,87,69
2025-02-25 18:02:00.438,3175.0,-6780.0,1639.0,294.0,17.0,-72.0,127,60,73,82,70
2025-02-25 18:02:00.443,2813.0,-6236.0,1319.0,303.0,160.0,58.0,129,62,81,77,67
2025-02-25 18:02:00.447,2750.0,-5401.0,988.0,290.0,204.0,134.0,125,58,80,75,67
2025-02-25 18:02:00.452,2238.0,-4975.0,892.0,218.0,217.0,167.0,124,61,85,78,68
2025-02-25 18:02:00.459,1452.0,-4065.0,605.0,126.0,182.0,216.0,125,60,82,77,69
2025-02-25 18:02:00.464,1211.0,-3134.0,305.0,65.0,144.0,241.0,126,59,81,78,67
2025-02-25 18:02:00.468,964.0,-2486.0,108.0,-14.0,126.0,245.0,125,59,82,80,66
2025-02-25 18:02:00.472,862.0,-2357.0,11.0,-87.0,91.0,242.0,128,61,76,82,69
2025-02-25 18:02:00.480,595.0,-2051.0,-94.0,-133.0,74.0,237.0,125,60,71,85,69
2025-02-25 18:02:00.484,452.0,-1982.0,-197.0,-143.0,51.0,232.0,125,61,71,86,68
2025-02-25 18:02:00.488,502.0,-1962.0,-275.0,-175.0,36.0,220.0,124,62,70,87,69
2025-02-25 18:02:00.493,312.0,-2005.0,-383.0,-177.0,14.0,219.0,126,58,71,89,68
2025-02-25 18:02:00.500,171.0,-2024.0,-256.0,-173.0,-17.0,210.0,128,61,69,90,69
2025-02-25 18:02:00.504,174.0,-2037.0,-342.0,-167.0,-25.0,207.0,130,61,71,90,67
2025-02-25 18:02:00.509,202.0,-1818.0,-281.0,-152.0,-18.0,212.0,126,61,69,88,66
2025-02-25 18:02:00.516,141.0,-1811.0,-161.0,-140.0,-13.0,220.0,125,62,73,89,66
2025-02-25 18:02:00.520,66.0,-1637.0,-96.0,-148.0,-22.0,228.0,126,61,71,88,67
2025-02-25 18:02:00.526,33.0,-1617.0,-3.0,-149.0,-63.0,242.0,125,64,76,88,67
2025-02-25 18:02:00.530,83.0,-1284.0,20.0,-148.0,-95.0,252.0,126,63,75,87,67
2025-02-25 18:02:00.538,34.0,-1226.0,-20.0,-148.0,-103.0,267.0,125,60,74,87,66
2025-02-25 18:02:00.541,31.0,-1190.0,53.0,-157.0,-84.0,275.0,127,62,71,85,66
2025-02-25 18:02:00.545,-2.0,-987.0,84.0,-154.0,-79.0,286.0,127,58,75,87,66
2025-02-25 18:02:00.550,84.0,-838.0,126.0,-148.0,-93.0,280.0,127,60,76,84,64
2025-02-25 18:02:00.557,86.0,-754.0,215.0,-146.0,-110.0,283.0,127,60,76,85,64
2025-02-25 18:02:00.562,47.0,-559.0,300.0,-134.0,-100.0,283.0,125,62,75,85,65
2025-02-25 18:02:00.566,27.0,-495.0,341.0,-134.0,-84.0,276.0,126,59,77,85,65
2025-02-25 18:02:00.571,17.0,-321.0,283.0,-127.0,-91.0,270.0,127,60,75,84,64
2025-02-25 18:02:00.578,7.0,-216.0,261.0,-118.0,-88.0,266.0,127,62,78,85,64
2025-02-25 18:02:00.582,-53.0,-144.0,297.0,-107.0,-73.0,250.0,128,61,76,88,65
2025-02-25 18:02:00.586,-64.0,54.0,313.0,-118.0,-45.0,237.0,126,60,74,86,65
2025-02-25 18:02:00.591,-113.0,74.0,318.0,-105.0,-43.0,227.0,128,62,77,85,64
2025-02-25 18:02:00.599,-262.0,131.0,265.0,-101.0,-35.0,213.0,127,62,73,85,62
2025-02-25 18:02:00.602,-322.0,134.0,239.0,-99.0,-17.0,205.0,128,62,75,85,65
2025-02-25 18:02:00.607,-218.0,188.0,94.0,-89.0,-5.0,193.0,129,59,73,85,64
2025-02-25 18:02:00.611,-441.0,165.0,28.0,-81.0,1.0,188.0,129,63,74,86,63
2025-02-25 18:02:00.615,-481.0,117.0,124.0,-73.0,5.0,180.0,129,61,74,86,66
2025-02-25 18:02:00.621,-509.0,295.0,52.0,-71.0,4.0,175.0,129,59,71,84,64
2025-02-25 18:02:00.627,-548.0,208.0,-37.0,-67.0,14.0,174.0,128,61,72,84,65
2025-02-25 18:02:00.631,-659.0,312.0,26.0,-81.0,21.0,171.0,131,65,74,85,64
2025-02-25 18:02:00.635,-702.0,435.0,-57.0,-85.0,18.0,174.0,131,60,75,87,63
2025-02-25 18:02:00.640,-773.0,486.0,-105.0,-90.0,14.0,174.0,129,60,72,84,63
2025-02-25 18:02:00.648,-779.0,643.0,-121.0,-87.0,3.0,175.0,132,61,77,85,64
2025-02-25 18:02:00.652,-825.0,771.0,-156.0,-89.0,-2.0,171.0,134,62,75,82,62
2025-02-25 18:02:00.656,-859.0,865.0,-195.0,-79.0,-7.0,169.0,131,59,75,83,63
2025-02-25 18:02:00.661,-908.0,1035.0,-198.0,-69.0,-16.0,155.0,135,61,72,85,64
2025-02-25 18:02:00.668,-1021.0,1196.0,-219.0,-58.0,-35.0,131.0,138,61,75,84,64
2025-02-25 18:02:00.675,-1061.0,1297.0,-223.0,-36.0,-44.0,98.0,132,61,75,83,63
2025-02-25 18:02:00.677,-1075.0,1410.0,-254.0,-18.0,-56.0,82.0,135,62,73,82,62
2025-02-25 18:02:00.681,-1126.0,1566.0,-285.0,5.0,-65.0,46.0,130,64,75,85,63
2025-02-25 18:02:00.688,-1221.0,1664.0,-295.0,24.0,-68.0,5.0,135,61,72,83,62
2025-02-25 18:02:00.693,-1236.0,1823.0,-291.0,64.0,-73.0,-41.0,134,62,70,90,63
2025-02-25 18:02:00.697,-1211.0,1882.0,-182.0,103.0,-65.0,-63.0,135,58,74,83,61
2025-02-25 18:02:00.705,-1266.0,2076.0,-181.0,144.0,-68.0,-111.0,138,62,78,84,63
2025-02-25 18:02:00.709,-1157.0,2158.0,-176.0,175.0,-66.0,-154.0,138,62,74,82,63
2025-02-25 18:02:00.713,-1152.0,2230.0,-121.0,187.0,-63.0,-200.0,138,62,76,87,65
2025-02-25 18:02:00.718,-1149.0,2325.0,-98.0,205.0,-61.0,-244.0,139,61,74,85,63
2025-02-25 18:02:00.725,-1101.0,2370.0,-91.0,218.0,-64.0,-296.0,138,61,73,86,62
2025-02-25 18:02:00.730,-980.0,2351.0,-36.0,218.0,-60.0,-326.0,139,65,71,85,62
2025-02-25 18:02:00.734,-941.0,2367.0,-24.0,210.0,-66.0,-385.0,144,62,73,87,64
2025-02-25 18:02:00.742,-882.0,2087.0,-9.0,198.0,-75.0,-438.0,140,60,71,87,66
2025-02-25 18:02:00.746,-846.0,2014.0,12.0,178.0,-86.0,-495.0,141,59,67,85,63
2025-02-25 18:02:00.750,-545.0,1766.0,-24.0,174.0,-108.0,-524.0,144,59,72,86,64
2025-02-25 18:02:00.754,-301.0,1490.0,-22.0,149.0,-134.0,-582.0,144,61,73,88,65
2025-02-25 18:02:00.762,-169.0,1272.0,-49.0,133.0,-153.0,-628.0,144,62,73,87,66
2025-02-25 18:02:00.767,-17.0,954.0,-76.0,106.0,-183.0,-658.0,143,59,74,89,67
2025-02-25 18:02:00.771,133.0,655.0,-128.0,76.0,-202.0,-678.0,145,63,71,89,64
2025-02-25 18:02:00.775,596.0,428.0,-205.0,56.0,-249.0,-682.0,145,60,71,89,66
2025-02-25 18:02:00.783,927.0,-117.0,-125.0,30.0,-275.0,-679.0,146,59,72,90,69
2025-02-25 18:02:00.787,1332.0,-906.0,-100.0,26.0,-279.0,-656.0,147,59,70,88,66
2025-02-25 18:02:00.791,1546.0,-1896.0,154.0,22.0,-277.0,-612.0,146,57,70,86,66
2025-02-25 18:02:00.799,2091.0,-2341.0,455.0,35.0,-265.0,-578.0,149,59,74,89,64
2025-02-25 18:02:00.803,2714.0,-3500.0,633.0,78.0,-225.0,-501.0,149,57,82,87,67
2025-02-25 18:02:00.808,3127.0,-4502.0,1088.0,167.0,-135.0,-416.0,149,60,76,88,69
2025-02-25 18:02:00.816,3542.0,-5487.0,1497.0,210.0,-75.0,-280.0,150,59,78,84,70
2025-02-25 18:02:00.820,3813.0,-6038.0,1901.0,421.0,-101.0,-215.0,149,59,77,77,66
2025-02-25 18:02:00.825,3831.0,-5624.0,2086.0,467.0,-1.0,-127.0,151,58,81,75,65
2025-02-25 18:02:00.832,3740.0,-5446.0,1780.0,469.0,155.0,-93.0,150,59,82,78,67
2025-02-25 18:02:00.837,3394.0,-4910.0,1832.0,397.0,268.0,-9.0,150,62,85,78,69
2025-02-25 18:02:00.841,2613.0,-4077.0,1520.0,357.0,280.0,65.0,152,58,80,77,69
2025-02-25 18:02:00.845,2340.0,-3264.0,1283.0,222.0,269.0,112.0,152,59,82,77,68
2025-02-25 18:02:00.853,1867.0,-2779.0,788.0,47.0,256.0,147.0,153,60,81,78,71
2025-02-25 18:02:00.857,1210.0,-2230.0,451.0,-79.0,219.0,163.0,154,63,84,80,72
2025-02-25 18:02:00.861,984.0,-2258.0,277.0,-138.0,146.0,178.0,153,62,75,82,70
2025-02-25 18:02:00.865,710.0,-2170.0,151.0,-145.0,80.0,171.0,154,60,74,83,70
2025-02-25 18:02:00.873,590.0,-1837.0,183.0,-196.0,72.0,168.0,151,62,73,84,69
2025-02-25 18:02:00.877,521.0,-2046.0,280.0,-242.0,75.0,170.0,154,61,76,86,70
2025-02-25 18:02:00.882,423.0,-2235.0,199.0,-256.0,84.0,174.0,155,61,75,87,70
2025-02-25 18:02:00.886,474.0,-2300.0,169.0,-238.0,61.0,179.0,153,63,70,87,71
2025-02-25 18:02:00.894,518.0,-2205.0,223.0,-236.0,59.0,195.0,152,58,74,87,68
2025-02-25 18:02:00.898,277.0,-2259.0,262.0,-211.0,79.0,203.0,155,65,75,86,69
2025-02-25 18:02:00.902,285.0,-2360.0,265.0,-198.0,91.0,214.0,153,62,76,86,70
2025-02-25 18:02:00.907,313.0,-1704.0,394.0,-207.0,76.0,238.0,154,62,73,86,67
2025-02-25 18:02:00.915,448.0,-1546.0,342.0,-218.0,81.0,243.0,153,62,77,85,68
2025-02-25 18:02:00.919,217.0,-1402.0,231.0,-189.0,78.0,259.0,154,60,76,85,71
2025-02-25 18:02:00.923,344.0,-1217.0,342.0,-164.0,41.0,252.0,152,63,75,84,70
2025-02-25 18:02:00.928,233.0,-994.0,354.0,-167.0,24.0,254.0,153,59,74,84,68
2025-02-25 18:02:00.935,203.0,-921.0,294.0,-176.0,20.0,254.0,155,61,77,82,67
2025-02-25 18:02:00.939,84.0,-677.0,231.0,-166.0,18.0,256.0,154,63,76,83,70
2025-02-25 18:02:00.943,-51.0,-558.0,305.0,-163.0,-13.0,247.0,155,61,80,84,69
2025-02-25 18:02:00.947,-159.0,-336.0,251.0,-146.0,-23.0,244.0,153,64,76,82,68
2025-02-25 18:02:00.955,-117.0,-259.0,266.0,-145.0,-31.0,236.0,155,62,78,85,70
2025-02-25 18:02:00.959,-270.0,-16.0,292.0,-130.0,-32.0,225.0,156,63,80,84,68
2025-02-25 18:02:00.964,-276.0,54.0,321.0,-123.0,-35.0,208.0,154,62,77,84,69
2025-02-25 18:02:00.968,-340.0,45.0,292.0,-98.0,-28.0,196.0,153,62,76,83,70
2025-02-25 18:02:00.975,-347.0,93.0,266.0,-79.0,-21.0,189.0,155,64,77,88,71
2025-02-25 18:02:00.979,-392.0,94.0,293.0,-68.0,-14.0,177.0,154,62,79,87,69
2025-02-25 18:02:00.984,-432.0,133.0,226.0,-53.0,-14.0,166.0,151,62,77,78,68
2025-02-25 18:02:00.988,-472.0,159.0,167.0,-48.0,-8.0,162.0,153,60,77,85,68
2025-02-25 18:02:00.996,-554.0,184.0,131.0,-45.0,7.0,151.0,155,63,77,86,72
2025-02-25 18:02:01.000,-677.0,245.0,99.0,-46.0,14.0,144.0,153,60,75,85,68
2025-02-25 18:02:01.005,-707.0,290.0,49.0,-50.0,27.0,142.0,155,61,75,82,68
2025-02-25 18:02:01.009,-800.0,388.0,34.0,-44.0,31.0,131.0,154,63,78,87,70
2025-02-25 18:02:01.013,-842.0,477.0,13.0,-45.0,34.0,119.0,155,63,77,87,69
2025-02-25 18:02:01.017,-879.0,551.0,2.0,-37.0,36.0,112.0,157,63,75,84,67
2025-02-25 18:02:01.025,-892.0,666.0,29.0,-37.0,45.0,99.0,154,62,76,83,68
2025-02-25 18:02:01.029,-943.0,752.0,-17.0,-29.0,44.0,79.0,156,65,77,86,69
2025-02-25 18:02:01.033,-946.0,838.0,-40.0,-25.0,46.0,68.0,150,62,77,88,69
2025-02-25 18:02:01.038,-985.0,872.0,-56.0,-15.0,44.0,48.0,156,64,76,85,69
2025-02-25 18:02:01.041,-1044.0,894.0,-125.0,-10.0,40.0,29.0,154,63,73,85,67
2025-02-25 18:02:01.049,-1053.0,843.0,-113.0,-11.0,35.0,12.0,153,61,72,83,69
2025-02-25 18:02:01.054,-1077.0,865.0,-187.0,2.0,28.0,4.0,156,59,74,86,70
2025-02-25 18:02:01.057,-1129.0,776.0,-202.0,13.0,19.0,-15.0,155,63,77,86,68
2025-02-25 18:02:01.062,-1065.0,796.0,-201.0,27.0,18.0,-32.0,153,62,74,84,67
2025-02-25 18:02:01.069,-1060.0,781.0,-158.0,32.0,16.0,-40.0,155,62,80,89,69
2025-02-25 18:02:01.073,-1014.0,740.0,-163.0,46.0,11.0,-56.0,154,63,77,84,68
2025-02-25 18:02:01.078,-1003.0,735.0,-114.0,54.0,9.0,-71.0,154,62,75,83,67
2025-02-25 18:02:01.082,-988.0,741.0,-114.0,71.0,1.0,-80.0,154,63,79,85,70
2025-02-25 18:02:01.087,-952.0,727.0,-105.0,78.0,-2.0,-98.0,154,63,76,86,69
2025-02-25 18:02:01.094,-965.0,724.0,-131.0,89.0,-5.0,-116.0,152,61,75,86,68
2025-02-25 18:02:01.099,-963.0,692.0,-80.0,94.0,-7.0,-124.0,154,64,78,86,69
2025-02-25 18:02:01.103,-940.0,693.0,-83.0,103.0,-14.0,-142.0,154,62,79,87,69
2025-02-25 18:02:01.107,-940.0,655.0,-73.0,104.0,-16.0,-159.0,153,62,73,86,68
2025-02-25 18:02:01.115,-912.0,687.0,-38.0,107.0,-17.0,-168.0,156,60,73,87,67
2025-02-25 18:02:01.119,-896.0,668.0,-11.0,108.0,-17.0,-187.0,156,62,75,87,69
2025-02-25 18:02:01.123,-854.0,649.0,20.0,106.0,-14.0,-208.0,157,61,78,87,68
2025-02-25 18:02:01.128,-760.0,568.0,46.0,111.0,-12.0,-232.0,153,64,73,85,68
2025-02-25 18:02:01.135,-708.0,516.0,41.0,116.0,-18.0,-243.0,153,63,78,86,68
2025-02-25 18:02:01.139,-636.0,419.0,69.0,116.0,-25.0,-263.0,155,63,78,85,70
2025-02-25 18:02:01.144,-525.0,314.0,57.0,119.0,-24.0,-282.0,155,65,77,85,72
2025-02-25 18:02:01.149,-445.0,247.0,79.0,118.0,-33.0,-291.0,153,63,74,87,69
2025-02-25 18:02:01.156,-249.0,148.0,134.0,112.0,-57.0,-317.0,154,64,75,86,71
2025-02-25 18:02:01.160,-75.0,68.0,28.0,119.0,-102.0,-344.0,156,63,76,87,71
2025-02-25 18:02:01.164,-22.0,-43.0,50.0,123.0,-121.0,-369.0,154,64,75,85,68
2025-02-25 18:02:01.168,215.0,-189.0,102.0,102.0,-134.0,-379.0,153,60,76,85,68
2025-02-25 18:02:01.173,430.0,-475.0,92.0,75.0,-123.0,-388.0,153,66,77,86,68
2025-02-25 18:02:01.180,680.0,-1030.0,221.0,64.0,-126.0,-387.0,153,60,75,87,72
2025-02-25 18:02:01.184,858.0,-1771.0,384.0,54.0,-131.0,-372.0,154,63,78,86,69
2025-02-25 18:02:01.189,1209.0,-2171.0,604.0,58.0,-136.0,-358.0,153,60,74,86,69
2025-02-25 18:02:01.196,1622.0,-2806.0,694.0,86.0,-119.0,-324.0,155,63,79,88,71
2025-02-25 18:02:01.202,1890.0,-3477.0,893.0,110.0,-85.0,-272.0,154,61,75,88,74
2025-02-25 18:02:01.206,2157.0,-3901.0,1095.0,127.0,-27.0,-214.0,155,63,78,85,72
2025-02-25 18:02:01.214,2229.0,-4175.0,1226.0,152.0,-2.0,-148.0,154,62,77,82,71
2025-02-25 18:02:01.217,2291.0,-4316.0,1267.0,164.0,42.0,-117.0,154,62,80,82,71
2025-02-25 18:02:01.222,2294.0,-4310.0,1369.0,154.0,93.0,-53.0,156,60,84,82,73
2025-02-25 18:02:01.225,2113.0,-3978.0,1201.0,171.0,73.0,-5.0,155,60,81,78,72
2025-02-25 18:02:01.234,1885.0,-3786.0,712.0,156.0,75.0,37.0,154,64,80,79,72
2025-02-25 18:02:01.238,1696.0,-3488.0,802.0,115.0,96.0,63.0,154,61,79,79,69
2025-02-25 18:02:01.242,1630.0,-3385.0,741.0,31.0,103.0,104.0,156,67,83,79,73
2025-02-25 18:02:01.246,1221.0,-2977.0,481.0,-13.0,94.0,144.0,155,60,81,83,70
2025-02-25 18:02:01.254,1217.0,-2841.0,468.0,-80.0,83.0,170.0,155,62,78,81,71
2025-02-25 18:02:01.258,1001.0,-2573.0,327.0,-132.0,52.0,179.0,154,62,80,83,72
2025-02-25 18:02:01.262,705.0,-2364.0,198.0,-151.0,58.0,188.0,156,64,77,83,71
2025-02-25 18:02:01.267,492.0,-2319.0,140.0,-149.0,55.0,196.0,154,63,80,85,73
2025-02-25 18:02:01.275,412.0,-2407.0,164.0,-155.0,50.0,207.0,155,61,74,84,70
2025-02-25 18:02:01.279,466.0,-2254.0,60.0,-120.0,26.0,208.0,154,62,77,89,73
2025-02-25 18:02:01.283,309.0,-2215.0,113.0,-118.0,0.0,223.0,154,67,77,86,74
2025-02-25 18:02:01.288,401.0,-1965.0,252.0,-132.0,-4.0,232.0,156,65,77,88,72
2025-02-25 18:02:01.295,403.0,-2009.0,266.0,-115.0,3.0,244.0,154,61,68,86,70
2025-02-25 18:02:01.299,342.0,-1842.0,294.0,-126.0,17.0,251.0,157,65,77,86,72
2025-02-25 18:02:01.303,430.0,-1639.0,367.0,-154.0,32.0,264.0,154,71,76,86,69
2025-02-25 18:02:01.308,325.0,-1430.0,419.0,-171.0,36.0,277.0,156,67,77,84,73
2025-02-25 18:02:01.315,321.0,-1335.0,289.0,-187.0,32.0,290.0,154,63,80,84,72
2025-02-25 18:02:01.319,261.0,-1227.0,318.0,-203.0,28.0,294.0,153,64,80,86,71
2025-02-25 18:02:01.324,162.0,-1032.0,250.0,-222.0,27.0,303.0,154,63,76,85,72
2025-02-25 18:02:01.328,30.0,-782.0,221.0,-230.0,17.0,307.0,155,63,79,86,73
2025-02-25 18:02:01.336,-45.0,-650.0,207.0,-229.0,16.0,310.0,154,64,78,85,66
2025-02-25 18:02:01.340,-123.0,-643.0,140.0,-234.0,14.0,311.0,156,62,80,85,72
2025-02-25 18:02:01.345,-269.0,-509.0,159.0,-234.0,9.0,309.0,154,65,81,86,76
2025-02-25 18:02:01.349,-283.0,-446.0,174.0,-239.0,5.0,308.0,153,61,80,87,72
2025-02-25 18:02:01.357,-334.0,-398.0,165.0,-235.0,2.0,307.0,155,63,79,88,72
2025-02-25 18:02:01.361,-420.0,-271.0,112.0,-216.0,-10.0,297.0,155,63,80,90,75
2025-02-25 18:02:01.365,-445.0,-179.0,90.0,-204.0,-16.0,287.0,154,64,83,92,74
2025-02-25 18:02:01.369,-440.0,-25.0,78.0,-178.0,-18.0,269.0,155,62,81,91,75
2025-02-25 18:02:01.377,-471.0,64.0,108.0,-158.0,-20.0,259.0,152,65,84,93,77
2025-02-25 18:02:01.382,-609.0,171.0,91.0,-134.0,-30.0,238.0,154,65,82,92,77
2025-02-25 18:02:01.385,-624.0,241.0,140.0,-121.0,-35.0,215.0,152,65,81,90,77
2025-02-25 18:02:01.389,-631.0,289.0,169.0,-100.0,-38.0,193.0,154,65,83,91,77
2025-02-25 18:02:01.398,-630.0,293.0,206.0,-97.0,-30.0,183.0,156,69,83,93,77
2025-02-25 18:02:01.402,-635.0,445.0,213.0,-84.0,-30.0,168.0,153,67,82,91,77
2025-02-25 18:02:01.406,-668.0,325.0,183.0,-78.0,-27.0,156.0,153,66,85,97,78
2025-02-25 18:02:01.411,-728.0,434.0,255.0,-63.0,-21.0,147.0,152,66,82,94,71
2025-02-25 18:02:01.415,-746.0,415.0,194.0,-73.0,-6.0,141.0,155,66,83,95,81
2025-02-25 18:02:01.422,-738.0,430.0,260.0,-65.0,15.0,136.0,153,67,85,98,80
2025-02-25 18:02:01.427,-742.0,500.0,169.0,-51.0,20.0,131.0,154,68,82,99,79
2025-02-25 18:02:01.431,-848.0,561.0,177.0,-50.0,27.0,120.0,152,66,82,98,79
2025-02-25 18:02:01.435,-868.0,532.0,201.0,-47.0,34.0,116.0,153,68,84,100,81
2025-02-25 18:02:01.442,-879.0,664.0,100.0,-36.0,36.0,103.0,152,65,82,100,80
2025-02-25 18:02:01.447,-832.0,642.0,32.0,-29.0,33.0,95.0,153,65,85,101,82
2025-02-25 18:02:01.451,-907.0,645.0,111.0,-29.0,33.0,84.0,153,68,86,101,82
2025-02-25 18:02:01.455,-909.0,711.0,23.0,-31.0,28.0,65.0,152,67,83,102,83
2025-02-25 18:02:01.459,-919.0,746.0,50.0,-13.0,30.0,53.0,153,68,86,103,84
2025-02-25 18:02:01.467,-969.0,739.0,-21.0,-4.0,26.0,33.0,152,70,85,103,83
2025-02-25 18:02:01.471,-1006.0,657.0,-77.0,-1.0,20.0,9.0,152,67,87,104,84
2025-02-25 18:02:01.475,-1096.0,656.0,-77.0,2.0,11.0,-3.0,151,70,86,105,87
2025-02-25 18:02:01.479,-994.0,698.0,-73.0,14.0,2.0,-28.0,154,71,88,105,87
2025-02-25 18:02:01.484,-927.0,745.0,-43.0,18.0,-1.0,-52.0,151,70,88,105,88
2025-02-25 18:02:01.491,-897.0,748.0,-9.0,45.0,-2.0,-61.0,152,70,87,106,87
2025-02-25 18:02:01.495,-855.0,650.0,0.0,64.0,-6.0,-78.0,154,71,89,107,91
2025-02-25 18:02:01.500,-844.0,580.0,65.0,73.0,-7.0,-90.0,151,72,90,107,91
2025-02-25 18:02:01.504,-829.0,538.0,132.0,82.0,-5.0,-96.0,152,73,89,107,93
2025-02-25 18:02:01.509,-762.0,519.0,168.0,99.0,1.0,-107.0,152,76,90,108,94
2025-02-25 18:02:01.516,-736.0,462.0,173.0,104.0,3.0,-120.0,148,77,93,112,95
2025-02-25 18:02:01.520,-680.0,468.0,140.0,117.0,12.0,-129.0,150,75,94,109,95
2025-02-25 18:02:01.525,-684.0,449.0,85.0,134.0,12.0,-143.0,159,79,94,113,98
2025-02-25 18:02:01.529,-678.0,435.0,56.0,140.0,8.0,-158.0,151,82,97,110,99
2025-02-25 18:02:01.533,-671.0,405.0,15.0,159.0,3.0,-167.0,151,83,97,109,96
2025-02-25 18:02:01.541,-709.0,370.0,-23.0,171.0,-6.0,-184.0,151,87,99,112,103
2025-02-25 18:02:01.546,-755.0,365.0,-169.0,182.0,-26.0,-199.0,153,93,100,109,104
2025-02-25 18:02:01.549,-850.0,336.0,-237.0,183.0,-34.0,-213.0,149,94,103,110,104
2025-02-25 18:02:01.557,-848.0,405.0,-419.0,211.0,-44.0,-230.0,151,99,104,112,106
2025-02-25 18:02:01.561,-929.0,267.0,-389.0,235.0,-45.0,-236.0,157,105,110,118,113
2025-02-25 18:02:01.569,-883.0,389.0,-648.0,260.0,-61.0,-264.0,154,107,107,114,110
2025-02-25 18:02:01.574,-817.0,366.0,-673.0,266.0,-105.0,-296.0,155,109,110,117,114
2025-02-25 18:02:01.578,-754.0,460.0,-677.0,292.0,-142.0,-336.0,156,112,110,118,114
2025-02-25 18:02:01.585,-589.0,370.0,-333.0,307.0,-134.0,-367.0,153,112,109,118,113
2025-02-25 18:02:01.590,-301.0,310.0,-160.0,312.0,-129.0,-399.0,154,115,112,121,113
2025-02-25 18:02:01.594,-117.0,310.0,18.0,306.0,-127.0,-435.0,157,121,113,123,115
2025-02-25 18:02:01.602,121.0,132.0,402.0,297.0,-138.0,-458.0,156,118,113,121,116
2025-02-25 18:02:01.607,246.0,20.0,542.0,285.0,-150.0,-466.0,154,117,112,121,114
2025-02-25 18:02:01.611,461.0,-254.0,554.0,279.0,-188.0,-475.0,154,118,112,121,116
2025-02-25 18:02:01.619,588.0,-317.0,428.0,275.0,-213.0,-483.0,153,118,110,122,114
2025-02-25 18:02:01.623,644.0,-775.0,170.0,242.0,-228.0,-485.0,157,123,114,121,118
2025-02-25 18:02:01.628,929.0,-1203.0,85.0,190.0,-235.0,-476.0,156,124,112,123,119
2025-02-25 18:02:01.635,1293.0,-1595.0,255.0,164.0,-231.0,-459.0,160,128,110,126,122
2025-02-25 18:02:01.640,1685.0,-2040.0,257.0,150.0,-247.0,-431.0,159,130,119,127,124
2025-02-25 18:02:01.647,2065.0,-2493.0,521.0,133.0,-254.0,-396.0,162,133,115,127,124
2025-02-25 18:02:01.651,2467.0,-2789.0,654.0,81.0,-261.0,-346.0,159,129,119,128,124
2025-02-25 18:02:01.656,2539.0,-3015.0,892.0,19.0,-250.0,-291.0,166,136,119,132,127
2025-02-25 18:02:01.663,2466.0,-3107.0,1254.0,-40.0,-210.0,-231.0,164,137,121,130,126
2025-02-25 18:02:01.668,2272.0,-3343.0,1766.0,-113.0,-142.0,-166.0,176,150,134,144,141
2025-02-25 18:02:01.676,2007.0,-3407.0,1936.0,-144.0,-119.0,-103.0,182,153,138,141,145
2025-02-25 18:02:01.680,1900.0,-3221.0,1632.0,-153.0,-110.0,-51.0,188,163,148,154,154
2025-02-25 18:02:01.688,1807.0,-3367.0,1296.0,-129.0,-106.0,27.0,190,162,146,156,156
2025-02-25 18:02:01.692,1661.0,-3382.0,831.0,-122.0,-72.0,107.0,189,162,146,155,155
2025-02-25 18:02:01.697,1410.0,-3162.0,522.0,-124.0,-12.0,181.0,187,163,147,156,155
2025-02-25 18:02:01.705,1252.0,-2870.0,395.0,-122.0,5.0,217.0,190,166,149,156,157
2025-02-25 18:02:01.709,1151.0,-2620.0,1108.0,-53.0,23.0,223.0,192,166,153,160,157
2025-02-25 18:02:01.713,1138.0,-2574.0,1365.0,-14.0,120.0,242.0,204,169,154,164,164
2025-02-25 18:02:01.721,846.0,-2296.0,893.0,10.0,123.0,259.0,201,178,160,170,169
2025-02-25 18:02:01.725,679.0,-2165.0,114.0,-15.0,68.0,256.0,202,176,156,168,171
2025-02-25 18:02:01.730,610.0,-2074.0,134.0,-67.0,39.0,266.0,218,193,180,188,186
2025-02-25 18:02:01.738,625.0,-1660.0,-30.0,-139.0,28.0,261.0,219,195,181,190,190
2025-02-25 18:02:01.742,662.0,-1474.0,53.0,-124.0,-1.0,251.0,213,186,172,185,180
2025-02-25 18:02:01.746,498.0,-1507.0,743.0,-106.0,7.0,250.0,216,193,179,188,187
2025-02-25 18:02:01.753,500.0,-1530.0,920.0,-44.0,61.0,249.0,224,200,186,196,194
2025-02-25 18:02:01.758,529.0,-1416.0,771.0,-8.0,83.0,240.0,223,197,185,194,193
2025-02-25 18:02:01.762,438.0,-1259.0,537.0,-5.0,78.0,229.0,212,190,169,179,179
2025-02-25 18:02:01.770,390.0,-1200.0,621.0,-4.0,89.0,232.0,189,162,147,158,157
2025-02-25 18:02:01.775,375.0,-1126.0,383.0,-7.0,111.0,236.0,189,166,151,159,159
2025-02-25 18:02:01.779,263.0,-909.0,148.0,-25.0,96.0,239.0,217,194,175,184,184
2025-02-25 18:02:01.783,149.0,-894.0,94.0,-52.0,72.0,246.0,162,144,117,130,129
2025-02-25 18:02:01.791,99.0,-789.0,216.0,-73.0,54.0,251.0,246,223,207,217,218
2025-02-25 18:02:01.795,103.0,-750.0,228.0,-84.0,51.0,259.0,220,197,184,191,191
2025-02-25 18:02:01.800,50.0,-725.0,112.0,-110.0,29.0,257.0,206,182,168,177,175
2025-02-25 18:02:01.807,26.0,-529.0,145.0,-101.0,13.0,252.0,225,203,183,195,194
2025-02-25 18:02:01.812,-6.0,-625.0,284.0,-114.0,31.0,256.0,186,161,148,157,154
2025-02-25 18:02:01.816,-81.0,-583.0,493.0,-105.0,58.0,262.0,214,189,175,183,184
2025-02-25 18:02:01.824,-185.0,-575.0,518.0,-111.0,73.0,268.0,196,171,154,163,162
2025-02-25 18:02:01.828,-192.0,-441.0,365.0,-112.0,99.0,268.0,183,161,145,152,152
2025-02-25 18:02:01.832,-215.0,-419.0,308.0,-140.0,114.0,266.0,178,157,140,148,148
2025-02-25 18:02:01.840,-281.0,-232.0,108.0,-136.0,114.0,256.0,176,152,138,145,145
2025-02-25 18:02:01.844,-441.0,-201.0,220.0,-145.0,106.0,251.0,178,155,139,149,147
2025-02-25 18:02:01.848,-449.0,-68.0,170.0,-153.0,97.0,238.0,169,146,130,138,138
2025-02-25 18:02:01.856,-470.0,-61.0,120.0,-156.0,91.0,228.0,163,137,116,129,129
2025-02-25 18:02:01.860,-562.0,-4.0,217.0,-143.0,92.0,214.0,158,135,116,127,124
2025-02-25 18:02:01.865,-615.0,-33.0,243.0,-120.0,76.0,202.0,156,132,116,126,125
2025-02-25 18:02:01.873,-638.0,-15.0,235.0,-101.0,66.0,198.0,157,134,117,128,126
2025-02-25 18:02:01.877,-660.0,8.0,219.0,-86.0,56.0,185.0,159,134,119,128,127
2025-02-25 18:02:01.881,-668.0,76.0,98.0,-90.0,48.0,176.0,157,133,120,125,126
2025-02-25 18:02:01.885,-693.0,124.0,51.0,-96.0,46.0,169.0,156,133,116,126,123
2025-02-25 18:02:01.893,-744.0,159.0,-39.0,-110.0,46.0,164.0,155,133,116,123,121
2025-02-25 18:02:01.897,-770.0,257.0,-120.0,-115.0,42.0,152.0,156,131,114,124,123
2025-02-25 18:02:01.902,-802.0,256.0,-89.0,-119.0,43.0,135.0,154,129,113,122,121
2025-02-25 18:02:01.909,-813.0,274.0,-73.0,-119.0,40.0,119.0,153,129,113,124,121
2025-02-25 18:02:01.914,-872.0,276.0,-81.0,-116.0,33.0,101.0,154,129,113,124,120
2025-02-25 18:02:01.918,-896.0,305.0,-42.0,-102.0,28.0,80.0,151,124,112,122,120
2025-02-25 18:02:01.925,-928.0,311.0,-42.0,-76.0,23.0,71.0,152,126,111,124,121
2025-02-25 18:02:01.930,-959.0,388.0,-66.0,-51.0,12.0,49.0,154,129,110,123,121
2025-02-25 18:02:01.934,-992.0,448.0,-78.0,-23.0,-1.0,28.0,154,128,116,125,121
2025-02-25 18:02:01.938,-1033.0,474.0,-95.0,-12.0,-14.0,4.0,152,126,109,124,120
2025-02-25 18:02:01.946,-1030.0,475.0,-94.0,11.0,-24.0,-16.0,152,125,113,123,121
2025-02-25 18:02:01.950,-1089.0,439.0,-33.0,15.0,-27.0,-26.0,154,129,111,121,120
2025-02-25 18:02:01.955,-1061.0,535.0,-56.0,27.0,-22.0,-42.0,155,132,113,124,122
2025-02-25 18:02:01.962,-1106.0,572.0,-85.0,28.0,-19.0,-55.0,153,129,114,123,121
2025-02-25 18:02:01.967,-1112.0,650.0,-119.0,34.0,-22.0,-71.0,152,126,111,123,121
2025-02-25 18:02:01.971,-1106.0,664.0,-21.0,45.0,-24.0,-88.0,154,126,113,126,120
2025-02-25 18:02:01.979,-1100.0,625.0,-41.0,61.0,-29.0,-106.0,151,128,115,125,121
2025-02-25 18:02:01.983,-1121.0,572.0,30.0,81.0,-29.0,-115.0,152,128,113,122,120
2025-02-25 18:02:01.987,-1094.0,627.0,104.0,105.0,-35.0,-135.0,154,127,114,123,119
2025-02-25 18:02:01.995,-1084.0,631.0,147.0,144.0,-30.0,-157.0,153,126,113,123,123
2025-02-25 18:02:01.999,-1031.0,581.0,-9.0,168.0,-44.0,-179.0,154,128,105,124,123
2025-02-25 18:02:02.004,-993.0,458.0,17.0,177.0,-53.0,-202.0,154,131,105,124,121
2025-02-25 18:02:02.011,-931.0,418.0,16.0,192.0,-55.0,-225.0,152,128,113,124,122
2025-02-25 18:02:02.016,-917.0,371.0,-20.0,195.0,-56.0,-241.0,153,128,115,124,122
2025-02-25 18:02:02.021,-910.0,369.0,61.0,199.0,-48.0,-249.0,152,133,113,123,121
2025-02-25 18:02:02.029,-853.0,410.0,78.0,202.0,-37.0,-268.0,154,127,112,123,124
2025-02-25 18:02:02.032,-732.0,351.0,123.0,195.0,-25.0,-287.0,154,128,113,125,120
2025-02-25 18:02:02.037,-628.0,340.0,180.0,193.0,-29.0,-312.0,154,129,116,126,122
2025-02-25 18:02:02.045,-487.0,295.0,191.0,192.0,-51.0,-337.0,154,125,111,124,123
2025-02-25 18:02:02.049,-379.0,243.0,181.0,184.0,-66.0,-363.0,152,126,111,124,122
2025-02-25 18:02:02.054,-316.0,203.0,181.0,180.0,-112.0,-387.0,152,126,111,125,120
2025-02-25 18:02:02.062,-164.0,104.0,249.0,181.0,-154.0,-399.0,152,126,112,124,121
2025-02-25 18:02:02.066,21.0,20.0,300.0,158.0,-179.0,-417.0,152,127,120,124,121
2025-02-25 18:02:02.070,268.0,-150.0,336.0,136.0,-190.0,-426.0,153,128,112,122,122
2025-02-25 18:02:02.078,517.0,-556.0,155.0,100.0,-201.0,-431.0,155,129,114,128,124
2025-02-25 18:02:02.082,695.0,-925.0,-4.0,77.0,-218.0,-433.0,154,126,113,124,120
2025-02-25 18:02:02.086,1041.0,-1478.0,48.0,40.0,-224.0,-429.0,152,126,109,123,120
2025-02-25 18:02:02.094,1275.0,-2124.0,-51.0,4.0,-231.0,-418.0,154,125,111,122,118
2025-02-25 18:02:02.099,1782.0,-2715.0,-105.0,-35.0,-259.0,-400.0,153,126,111,124,120
2025-02-25 18:02:02.106,2178.0,-3306.0,-436.0,-86.0,-299.0,-367.0,152,129,110,123,119
2025-02-25 18:02:02.111,2448.0,-3624.0,200.0,-119.0,-261.0,-344.0,153,126,111,122,119
2025-02-25 18:02:02.115,2311.0,-3404.0,482.0,-117.0,-278.0,-301.0,154,132,109,123,122
2025-02-25 18:02:02.122,2397.0,-3646.0,2140.0,53.0,-172.0,-246.0,153,126,108,125,120
2025-02-25 18:02:02.127,2433.0,-3354.0,1599.0,182.0,10.0,-198.0,153,124,104,123,119
2025-02-25 18:02:02.134,2056.0,-3431.0,-125.0,162.0,-3.0,-131.0,153,125,110,122,122
2025-02-25 18:02:02.139,1725.0,-3224.0,434.0,151.0,62.0,-36.0,154,127,112,125,122
2025-02-25 18:02:02.144,1580.0,-3079.0,281.0,69.0,92.0,59.0,154,126,110,125,119
2025-02-25 18:02:02.151,1541.0,-3163.0,-488.0,10.0,55.0,141.0,155,125,107,125,120
2025-02-25 18:02:02.155,1477.0,-2824.0,187.0,-75.0,85.0,201.0,158,127,111,122,119
2025-02-25 18:02:02.160,1522.0,-2500.0,582.0,-72.0,101.0,232.0,153,126,105,123,120
2025-02-25 18:02:02.168,1363.0,-2400.0,718.0,-87.0,144.0,255.0,152,124,103,123,120
2025-02-25 18:02:02.172,1163.0,-2086.0,490.0,-57.0,168.0,262.0,154,128,110,120,117
2025-02-25 18:02:02.176,1005.0,-1920.0,430.0,-66.0,179.0,275.0,156,128,108,122,121
2025-02-25 18:02:02.184,803.0,-1769.0,431.0,-90.0,200.0,281.0,156,126,110,123,120
2025-02-25 18:02:02.189,625.0,-1557.0,360.0,-79.0,189.0,282.0,156,125,109,123,122
2025-02-25 18:02:02.193,494.0,-1473.0,121.0,-75.0,145.0,267.0,155,125,109,124,119
2025-02-25 18:02:02.200,375.0,-1396.0,399.0,-54.0,108.0,247.0,156,127,109,121,118
2025-02-25 18:02:02.205,399.0,-1333.0,366.0,-57.0,92.0,232.0,154,123,107,124,118
2025-02-25 18:02:02.209,299.0,-1215.0,258.0,-38.0,55.0,225.0,154,129,107,122,118
2025-02-25 18:02:02.217,214.0,-1182.0,189.0,-49.0,44.0,221.0,154,123,108,128,120
2025-02-25 18:02:02.221,135.0,-1032.0,225.0,-58.0,44.0,220.0,154,124,109,123,119
2025-02-25 18:02:02.225,44.0,-1000.0,321.0,-65.0,45.0,223.0,155,124,109,119,118
2025-02-25 18:02:02.233,27.0,-957.0,281.0,-79.0,39.0,223.0,154,123,107,119,117
2025-02-25 18:02:02.237,56.0,-914.0,287.0,-93.0,43.0,230.0,154,123,107,123,118
2025-02-25 18:02:02.241,-36.0,-876.0,279.0,-129.0,55.0,236.0,155,122,107,123,119
2025-02-25 18:02:02.249,-103.0,-751.0,206.0,-163.0,69.0,246.0,154,123,108,124,120
2025-02-25 18:02:02.254,-164.0,-674.0,152.0,-198.0,79.0,258.0,155,123,105,125,119
2025-02-25 18:02:02.258,-165.0,-663.0,326.0,-212.0,100.0,273.0,156,121,107,122,121
2025-02-25 18:02:02.266,-246.0,-599.0,302.0,-230.0,117.0,282.0,155,116,107,123,117
2025-02-25 18:02:02.271,-291.0,-502.0,284.0,-231.0,124.0,281.0,154,114,105,124,116
2025-02-25 18:02:02.275,-378.0,-576.0,347.0,-209.0,116.0,276.0,151,114,108,113,116
2025-02-25 18:02:02.283,-427.0,-521.0,381.0,-205.0,120.0,267.0,154,114,106,121,115
2025-02-25 18:02:02.287,-435.0,-593.0,399.0,-197.0,117.0,254.0,152,111,116,125,116
2025-02-25 18:02:02.292,-512.0,-437.0,228.0,-158.0,87.0,244.0,156,110,104,123,115
2025-02-25 18:02:02.299,-572.0,-283.0,268.0,-115.0,67.0,227.0,153,108,104,122,112
2025-02-25 18:02:02.303,-579.0,-241.0,170.0,-99.0,50.0,209.0,155,108,109,124,110
2025-02-25 18:02:02.308,-597.0,-161.0,113.0,-79.0,48.0,195.0,155,104,104,123,110
2025-02-25 18:02:02.315,-610.0,-46.0,486.0,-72.0,65.0,185.0,154,104,105,119,108
2025-02-25 18:02:02.319,-515.0,-123.0,-180.0,-55.0,41.0,172.0,154,103,105,123,106
2025-02-25 18:02:02.324,-632.0,-20.0,-45.0,-67.0,28.0,160.0,153,102,105,122,106
2025-02-25 18:02:02.332,-641.0,-16.0,-1.0,-79.0,25.0,154.0,155,101,105,119,106
2025-02-25 18:02:02.336,-651.0,-67.0,16.0,-89.0,32.0,151.0,154,101,103,119,106
2025-02-25 18:02:02.340,-673.0,-143.0,1001.0,-110.0,68.0,155.0,154,99,104,119,104
2025-02-25 18:02:02.345,-775.0,8.0,29.0,-116.0,33.0,148.0,151,98,100,115,102
2025-02-25 18:02:02.352,-715.0,59.0,18.0,-98.0,45.0,143.0,156,96,108,117,104
2025-02-25 18:02:02.357,-781.0,61.0,39.0,-94.0,46.0,130.0,154,97,102,113,102
2025-02-25 18:02:02.361,-850.0,104.0,94.0,-69.0,48.0,113.0,153,91,101,111,100
2025-02-25 18:02:02.365,-903.0,162.0,21.0,-58.0,42.0,105.0,155,88,85,108,96
2025-02-25 18:02:02.373,-986.0,219.0,89.0,-38.0,42.0,95.0,155,83,96,107,95
2025-02-25 18:02:02.376,-1046.0,384.0,-9.0,-29.0,37.0,82.0,156,79,99,103,92
2025-02-25 18:02:02.381,-1098.0,455.0,0.0,-12.0,41.0,79.0,154,78,93,99,88
2025-02-25 18:02:02.385,-1142.0,440.0,16.0,4.0,49.0,71.0,155,75,97,99,86
2025-02-25 18:02:02.389,-1170.0,513.0,52.0,16.0,61.0,59.0,154,73,94,97,84
2025-02-25 18:02:02.393,-1172.0,618.0,-15.0,38.0,62.0,54.0,155,74,94,97,84
2025-02-25 18:02:02.401,-1128.0,616.0,65.0,66.0,73.0,42.0,156,73,91,90,84
2025-02-25 18:02:02.405,-1177.0,769.0,56.0,77.0,79.0,36.0,155,73,97,92,88
2025-02-25 18:02:02.409,-1182.0,868.0,-32.0,100.0,77.0,27.0,153,72,96,95,85
2025-02-25 18:02:02.414,-912.0,955.0,-28.0,112.0,71.0,0.0,155,73,94,97,83
2025-02-25 18:02:02.418,-867.0,912.0,-87.0,105.0,74.0,-28.0,155,71,94,98,82
2025-02-25 18:02:02.425,-969.0,953.0,-161.0,116.0,74.0,-59.0,153,71,92,97,77
2025-02-25 18:02:02.430,-887.0,1002.0,100.0,108.0,70.0,-75.0,155,68,90,97,74
2025-02-25 18:02:02.434,-882.0,1066.0,-369.0,115.0,48.0,-102.0,151,68,89,98,70
2025-02-25 18:02:02.438,-818.0,1039.0,-363.0,111.0,40.0,-131.0,154,63,86,96,68
2025-02-25 18:02:02.446,-822.0,1065.0,-277.0,124.0,37.0,-145.0,156,61,84,95,66
2025-02-25 18:02:02.451,-947.0,957.0,-346.0,128.0,46.0,-167.0,153,61,81,95,65
2025-02-25 18:02:02.455,-1009.0,853.0,-287.0,151.0,48.0,-192.0,153,57,80,95,60
2025-02-25 18:02:02.463,-1196.0,815.0,-176.0,187.0,54.0,-203.0,153,56,77,87,57
2025-02-25 18:02:02.467,-1254.0,758.0,-147.0,243.0,55.0,-219.0,154,56,78,84,58
2025-02-25 18:02:02.471,-1064.0,654.0,-100.0,282.0,37.0,-236.0,152,56,75,84,57
2025-02-25 18:02:02.476,-959.0,656.0,-166.0,302.0,-8.0,-257.0,154,56,73,84,57
2025-02-25 18:02:02.483,-886.0,751.0,-313.0,338.0,-33.0,-290.0,151,53,75,80,56
2025-02-25 18:02:02.487,-669.0,755.0,-377.0,323.0,-72.0,-306.0,153,57,76,80,52
2025-02-25 18:02:02.492,-433.0,820.0,-321.0,295.0,-95.0,-340.0,153,55,72,78,55
2025-02-25 18:02:02.496,-210.0,856.0,-258.0,284.0,-121.0,-380.0,154,54,74,80,57
2025-02-25 18:02:02.504,-97.0,804.0,-181.0,244.0,-137.0,-425.0,152,53,71,78,56
2025-02-25 18:02:02.508,52.0,770.0,-152.0,191.0,-182.0,-445.0,152,49,69,78,54
2025-02-25 18:02:02.512,291.0,557.0,-114.0,134.0,-228.0,-483.0,154,55,69,78,57
2025-02-25 18:02:02.516,616.0,371.0,5.0,98.0,-265.0,-518.0,156,55,70,78,57
2025-02-25 18:02:02.523,821.0,-121.0,59.0,24.0,-277.0,-535.0,154,54,68,79,56
2025-02-25 18:02:02.529,1097.0,-477.0,-14.0,-9.0,-308.0,-534.0,156,57,69,79,57
2025-02-25 18:02:02.532,1548.0,-1296.0,-16.0,-17.0,-362.0,-518.0,156,58,69,78,57
2025-02-25 18:02:02.540,1879.0,-2075.0,406.0,-1.0,-345.0,-500.0,157,58,70,78,58
2025-02-25 18:02:02.545,2460.0,-3133.0,802.0,12.0,-329.0,-440.0,152,53,68,77,57
2025-02-25 18:02:02.549,2716.0,-4121.0,1206.0,100.0,-314.0,-368.0,156,54,65,77,57
2025-02-25 18:02:02.557,2734.0,-4526.0,1474.0,173.0,-246.0,-321.0,155,53,68,79,60
2025-02-25 18:02:02.561,3140.0,-4994.0,1475.0,200.0,-123.0,-221.0,154,56,70,82,63
2025-02-25 18:02:02.566,3136.0,-5305.0,1417.0,267.0,13.0,-122.0,155,56,82,80,62
2025-02-25 18:02:02.570,2857.0,-4891.0,1432.0,275.0,76.0,-34.0,154,59,70,78,60
2025-02-25 18:02:02.578,2992.0,-4117.0,1269.0,273.0,103.0,22.0,152,55,72,78,62
2025-02-25 18:02:02.582,2597.0,-3817.0,936.0,210.0,166.0,43.0,154,54,68,79,61
2025-02-25 18:02:02.586,2096.0,-3188.0,693.0,151.0,211.0,86.0,154,59,73,80,63
2025-02-25 18:02:02.594,1598.0,-2713.0,359.0,100.0,221.0,120.0,157,50,66,74,63
2025-02-25 18:02:02.597,1103.0,-2317.0,94.0,14.0,207.0,154.0,154,57,68,77,63
2025-02-25 18:02:02.602,964.0,-2198.0,36.0,-68.0,159.0,163.0,153,56,68,79,61
2025-02-25 18:02:02.606,726.0,-1950.0,-67.0,-131.0,109.0,177.0,156,60,68,82,62
2025-02-25 18:02:02.614,578.0,-1886.0,43.0,-163.0,82.0,176.0,156,55,69,81,62
2025-02-25 18:02:02.618,619.0,-1971.0,116.0,-201.0,71.0,179.0,155,56,69,81,62
2025-02-25 18:02:02.623,454.0,-1993.0,152.0,-205.0,31.0,183.0,153,55,65,78,60
2025-02-25 18:02:02.627,476.0,-2118.0,209.0,-195.0,13.0,192.0,154,56,68,81,62
2025-02-25 18:02:02.634,424.0,-2233.0,279.0,-187.0,5.0,207.0,154,54,66,82,61
2025-02-25 18:02:02.638,479.0,-2124.0,377.0,-166.0,0.0,221.0,153,57,66,82,65
2025-02-25 18:02:02.642,395.0,-2148.0,386.0,-140.0,-7.0,227.0,155,58,68,80,62
2025-02-25 18:02:02.647,416.0,-1939.0,444.0,-123.0,-11.0,243.0,154,57,69,82,63
2025-02-25 18:02:02.655,416.0,-1738.0,379.0,-116.0,-11.0,257.0,156,57,69,79,63
2025-02-25 18:02:02.659,341.0,-1488.0,346.0,-116.0,-7.0,270.0,154,54,73,78,62
2025-02-25 18:02:02.663,296.0,-1414.0,330.0,-120.0,1.0,275.0,156,59,74,76,62
2025-02-25 18:02:02.667,197.0,-1181.0,289.0,-141.0,22.0,280.0,156,58,73,79,62
2025-02-25 18:02:02.675,77.0,-939.0,309.0,-155.0,43.0,280.0,155,59,73,78,63
2025-02-25 18:02:02.679,8.0,-705.0,263.0,-164.0,49.0,278.0,155,60,73,77,62
2025-02-25 18:02:02.684,-95.0,-597.0,273.0,-159.0,53.0,270.0,156,57,72,77,61
2025-02-25 18:02:02.688,-218.0,-423.0,330.0,-161.0,49.0,265.0,156,57,72,78,62
2025-02-25 18:02:02.692,-280.0,-259.0,326.0,-158.0,53.0,259.0,154,57,73,76,62
2025-02-25 18:02:02.700,-393.0,-167.0,372.0,-148.0,53.0,254.0,156,59,74,76,62
2025-02-25 18:02:02.704,-426.0,-12.0,371.0,-138.0,56.0,236.0,156,58,76,79,63
2025-02-25 18:02:02.708,-560.0,8.0,346.0,-118.0,43.0,216.0,154,59,75,79,62
2025-02-25 18:02:02.713,-522.0,111.0,293.0,-103.0,42.0,206.0,155,58,75,77,61
2025-02-25 18:02:02.720,-618.0,110.0,276.0,-74.0,33.0,189.0,158,60,76,80,63
2025-02-25 18:02:02.724,-640.0,70.0,248.0,-64.0,24.0,171.0,154,59,76,80,62
2025-02-25 18:02:02.729,-678.0,38.0,183.0,-46.0,25.0,160.0,152,58,71,80,62
2025-02-25 18:02:02.733,-718.0,87.0,185.0,-40.0,21.0,155.0,156,58,72,79,64
2025-02-25 18:02:02.737,-727.0,61.0,139.0,-36.0,25.0,144.0,156,59,76,81,63
2025-02-25 18:02:02.745,-727.0,21.0,119.0,-31.0,29.0,135.0,155,58,72,82,61
2025-02-25 18:02:02.749,-760.0,55.0,57.0,-34.0,38.0,131.0,158,62,74,80,61
2025-02-25 18:02:02.754,-751.0,4.0,47.0,-29.0,36.0,122.0,155,59,71,84,65
2025-02-25 18:02:02.758,-849.0,95.0,25.0,-30.0,37.0,115.0,156,61,72,82,64
2025-02-25 18:02:02.762,-842.0,80.0,-21.0,-19.0,41.0,110.0,155,59,72,82,62
2025-02-25 18:02:02.766,-907.0,155.0,-30.0,-14.0,42.0,99.0,157,59,73,82,64
2025-02-25 18:02:02.774,-875.0,231.0,-18.0,-9.0,36.0,86.0,155,60,71,83,64
2025-02-25 18:02:02.778,-949.0,257.0,-89.0,-9.0,32.0,80.0,155,60,74,81,65
2025-02-25 18:02:02.782,-952.0,267.0,-70.0,-15.0,30.0,67.0,154,63,75,83,62
2025-02-25 18:02:02.786,-979.0,364.0,-94.0,-17.0,27.0,56.0,155,58,71,82,63
2025-02-25 18:02:02.791,-967.0,403.0,-113.0,-26.0,29.0,50.0,155,59,73,84,63
2025-02-25 18:02:02.798,-999.0,436.0,-89.0,-33.0,26.0,35.0,156,59,70,81,65
2025-02-25 18:02:02.802,-1006.0,493.0,-109.0,-36.0,26.0,20.0,153,58,71,81,63
2025-02-25 18:02:02.806,-1040.0,503.0,-108.0,-35.0,19.0,13.0,154,58,70,80,61
2025-02-25 18:02:02.811,-1016.0,544.0,-88.0,-33.0,8.0,-6.0,154,61,74,82,63
2025-02-25 18:02:02.815,-1005.0,552.0,-84.0,-33.0,2.0,-22.0,154,59,71,83,64
2025-02-25 18:02:02.822,-1040.0,540.0,-90.0,-26.0,-2.0,-31.0,155,58,73,82,61
2025-02-25 18:02:02.828,-1050.0,529.0,-102.0,-15.0,-5.0,-47.0,155,60,73,82,63
2025-02-25 18:02:02.832,-1016.0,498.0,-73.0,-10.0,-5.0,-62.0,155,61,76,83,62
2025-02-25 18:02:02.836,-1031.0,512.0,-31.0,2.0,-5.0,-69.0,154,58,71,83,63
2025-02-25 18:02:02.843,-997.0,500.0,-16.0,13.0,-5.0,-85.0,158,60,74,83,64
2025-02-25 18:02:02.847,-1009.0,486.0,-21.0,22.0,-4.0,-100.0,155,58,72,82,63
2025-02-25 18:02:02.852,-1021.0,506.0,28.0,34.0,-3.0,-107.0,155,62,72,82,63
2025-02-25 18:02:02.856,-1023.0,541.0,12.0,49.0,3.0,-120.0,154,61,72,84,63
2025-02-25 18:02:02.860,-1056.0,589.0,42.0,56.0,6.0,-133.0,155,60,71,85,64
2025-02-25 18:02:02.868,-1079.0,659.0,54.0,71.0,7.0,-141.0,155,60,70,81,64
2025-02-25 18:02:02.872,-1083.0,685.0,60.0,86.0,6.0,-158.0,157,61,73,85,64
2025-02-25 18:02:02.876,-1061.0,694.0,75.0,95.0,8.0,-179.0,158,60,71,84,69
2025-02-25 18:02:02.880,-1037.0,689.0,113.0,108.0,10.0,-201.0,155,59,73,83,63
2025-02-25 18:02:02.885,-956.0,677.0,119.0,122.0,12.0,-211.0,156,60,73,83,66
2025-02-25 18:02:02.892,-894.0,588.0,114.0,131.0,12.0,-235.0,156,63,73,84,65
2025-02-25 18:02:02.897,-814.0,563.0,102.0,152.0,9.0,-260.0,155,60,74,81,62
2025-02-25 18:02:02.901,-730.0,512.0,77.0,170.0,-16.0,-275.0,155,62,74,84,65
2025-02-25 18:02:02.905,-609.0,446.0,20.0,176.0,-48.0,-303.0,155,60,73,85,63
2025-02-25 18:02:02.913,-574.0,419.0,-27.0,174.0,-63.0,-328.0,156,60,73,83,64
2025-02-25 18:02:02.917,-350.0,363.0,-69.0,156.0,-83.0,-340.0,155,62,77,85,65
2025-02-25 18:02:02.921,-90.0,249.0,-116.0,128.0,-101.0,-364.0,156,62,73,87,65
2025-02-25 18:02:02.926,208.0,96.0,-46.0,118.0,-136.0,-387.0,155,53,72,86,61
2025-02-25 18:02:02.933,342.0,-373.0,-54.0,85.0,-155.0,-392.0,153,59,72,85,62
2025-02-25 18:02:02.938,596.0,-579.0,-6.0,44.0,-179.0,-401.0,156,60,69,86,66
2025-02-25 18:02:02.942,902.0,-1170.0,-8.0,34.0,-190.0,-397.0,157,59,73,87,65
2025-02-25 18:02:02.946,1039.0,-1873.0,69.0,-2.0,-186.0,-375.0,154,59,73,86,65
2025-02-25 18:02:02.954,1353.0,-2666.0,211.0,-10.0,-168.0,-358.0,155,57,76,85,64
2025-02-25 18:02:02.958,1787.0,-3049.0,207.0,30.0,-125.0,-324.0,155,62,74,88,68
2025-02-25 18:02:02.962,2242.0,-3563.0,537.0,126.0,-124.0,-256.0,155,61,75,85,66
2025-02-25 18:02:02.970,2500.0,-4744.0,874.0,224.0,-179.0,-212.0,155,60,76,83,66
2025-02-25 18:02:02.975,2744.0,-4241.0,1124.0,248.0,-85.0,-145.0,156,60,77,81,66
2025-02-25 18:02:02.979,2748.0,-4404.0,933.0,233.0,-5.0,-66.0,155,60,75,80,65
2025-02-25 18:02:02.987,2492.0,-4084.0,1040.0,171.0,101.0,-28.0,156,59,80,82,65
2025-02-25 18:02:02.991,2326.0,-4036.0,870.0,127.0,112.0,31.0,155,62,81,83,68
2025-02-25 18:02:02.995,2064.0,-3695.0,696.0,108.0,105.0,76.0,155,58,75,85,68
2025-02-25 18:02:03.000,1808.0,-3163.0,491.0,67.0,109.0,117.0,154,58,77,83,67
2025-02-25 18:02:03.007,1669.0,-2914.0,196.0,-47.0,135.0,134.0,155,60,78,82,66
2025-02-25 18:02:03.012,1074.0,-2559.0,41.0,-66.0,141.0,166.0,156,58,75,85,66
2025-02-25 18:02:03.016,842.0,-2271.0,119.0,-107.0,128.0,184.0,156,59,74,86,67
2025-02-25 18:02:03.020,737.0,-1937.0,13.0,-148.0,120.0,188.0,153,56,75,84,68
2025-02-25 18:02:03.028,607.0,-1785.0,20.0,-186.0,95.0,193.0,154,61,73,81,66
2025-02-25 18:02:03.032,404.0,-1875.0,77.0,-212.0,75.0,194.0,158,61,74,87,69
2025-02-25 18:02:03.036,293.0,-1880.0,8.0,-201.0,40.0,194.0,156,63,79,87,68
2025-02-25 18:02:03.041,145.0,-1888.0,34.0,-170.0,17.0,196.0,154,59,72,90,67
2025-02-25 18:02:03.048,157.0,-1883.0,20.0,-140.0,-18.0,199.0,155,61,80,88,67
2025-02-25 18:02:03.053,113.0,-1833.0,26.0,-132.0,-29.0,205.0,155,62,75,89,68
2025-02-25 18:02:03.057,18.0,-1770.0,42.0,-132.0,-28.0,219.0,148,60,75,89,69
2025-02-25 18:02:03.061,11.0,-1703.0,32.0,-146.0,-30.0,226.0,154,62,75,88,66
2025-02-25 18:02:03.068,-15.0,-1594.0,-17.0,-162.0,-41.0,239.0,154,58,75,89,71
2025-02-25 18:02:03.073,-30.0,-1379.0,14.0,-171.0,-47.0,246.0,151,60,77,89,68
2025-02-25 18:02:03.077,-56.0,-1197.0,169.0,-216.0,-33.0,258.0,151,61,79,84,68
2025-02-25 18:02:03.081,-148.0,-956.0,116.0,-246.0,3.0,263.0,149,61,76,88,68
2025-02-25 18:02:03.089,-229.0,-832.0,140.0,-254.0,31.0,276.0,150,57,77,85,69
2025-02-25 18:02:03.093,-349.0,-636.0,106.0,-250.0,35.0,282.0,150,61,79,85,69
2025-02-25 18:02:03.097,-376.0,-522.0,159.0,-255.0,32.0,286.0,151,61,76,86,69
2025-02-25 18:02:03.102,-405.0,-474.0,188.0,-255.0,24.0,286.0,150,60,78,89,68
2025-02-25 18:02:03.109,-414.0,-337.0,147.0,-226.0,17.0,281.0,150,61,79,87,69
2025-02-25 18:02:03.114,-471.0,-260.0,173.0,-213.0,14.0,272.0,149,62,83,88,68
2025-02-25 18:02:03.118,-441.0,-174.0,184.0,-180.0,11.0,260.0,148,64,81,89,71
2025-02-25 18:02:03.122,-434.0,-184.0,191.0,-146.0,5.0,250.0,146,63,81,86,68
2025-02-25 18:02:03.130,-506.0,-157.0,166.0,-107.0,-4.0,231.0,146,63,81,89,70
2025-02-25 18:02:03.134,-592.0,-99.0,222.0,-92.0,-26.0,210.0,148,65,81,88,69
2025-02-25 18:02:03.138,-624.0,-59.0,250.0,-65.0,-36.0,190.0,147,64,81,90,71
2025-02-25 18:02:03.143,-592.0,-20.0,169.0,-58.0,-37.0,179.0,148,66,82,92,71
2025-02-25 18:02:03.151,-564.0,102.0,186.0,-47.0,-13.0,163.0,147,66,87,90,71
2025-02-25 18:02:03.155,-606.0,155.0,105.0,-40.0,-6.0,149.0,146,65,83,88,69
2025-02-25 18:02:03.159,-707.0,181.0,148.0,-22.0,-3.0,141.0,146,66,83,89,68
2025-02-25 18:02:03.163,-741.0,149.0,246.0,-18.0,-6.0,128.0,147,65,84,93,71
2025-02-25 18:02:03.168,-692.0,204.0,237.0,-19.0,15.0,119.0,146,66,85,91,71
2025-02-25 18:02:03.175,-727.0,139.0,110.0,4.0,27.0,116.0,145,66,86,94,73
2025-02-25 18:02:03.180,-804.0,156.0,100.0,12.0,40.0,114.0,149,70,89,94,74
2025-02-25 18:02:03.184,-858.0,148.0,74.0,24.0,41.0,108.0,147,69,86,96,75
2025-02-25 18:02:03.188,-844.0,149.0,-81.0,36.0,43.0,103.0,145,70,86,98,74
2025-02-25 18:02:03.192,-889.0,257.0,-134.0,46.0,36.0,94.0,144,72,87,98,78
2025-02-25 18:02:03.196,-903.0,210.0,-38.0,44.0,36.0,93.0,144,72,91,98,77
2025-02-25 18:02:03.204,-889.0,171.0,-114.0,49.0,38.0,91.0,144,74,87,97,76
2025-02-25 18:02:03.208,-844.0,245.0,-38.0,45.0,39.0,86.0,146,74,89,97,78
2025-02-25 18:02:03.212,-774.0,290.0,-24.0,51.0,49.0,80.0,145,74,90,98,78
2025-02-25 18:02:03.216,-737.0,312.0,-194.0,56.0,48.0,74.0,146,79,92,98,78
2025-02-25 18:02:03.221,-757.0,344.0,71.0,55.0,60.0,71.0,143,80,93,101,81
2025-02-25 18:02:03.228,-718.0,435.0,-125.0,81.0,56.0,58.0,144,81,94,101,80
2025-02-25 18:02:03.232,-736.0,365.0,-160.0,82.0,50.0,41.0,140,80,95,101,81
2025-02-25 18:02:03.237,-683.0,376.0,-234.0,95.0,44.0,31.0,144,85,99,102,83
2025-02-25 18:02:03.241,-748.0,427.0,-288.0,108.0,38.0,8.0,143,86,102,101,84
2025-02-25 18:02:03.245,-765.0,338.0,-400.0,112.0,32.0,-8.0,140,88,98,101,83
2025-02-25 18:02:03.253,-841.0,310.0,-397.0,111.0,19.0,-17.0,139,88,104,99,82
2025-02-25 18:02:03.257,-819.0,366.0,-512.0,117.0,-13.0,-29.0,140,94,106,99,85
2025-02-25 18:02:03.262,-832.0,440.0,-462.0,124.0,-31.0,-44.0,137,98,104,98,82
2025-02-25 18:02:03.269,-868.0,540.0,-297.0,139.0,-58.0,-54.0,134,98,107,97,81
2025-02-25 18:02:03.274,-999.0,656.0,-189.0,150.0,-79.0,-76.0,135,100,110,98,82
2025-02-25 18:02:03.278,-1024.0,741.0,61.0,151.0,-86.0,-94.0,135,104,110,98,84
2025-02-25 18:02:03.282,-1002.0,737.0,294.0,144.0,-77.0,-114.0,132,105,110,95,82
2025-02-25 18:02:03.290,-1034.0,746.0,317.0,151.0,-55.0,-129.0,130,105,112,98,83
2025-02-25 18:02:03.294,-1066.0,568.0,-4.0,133.0,-50.0,-155.0,129,107,116,99,84
2025-02-25 18:02:03.299,-814.0,670.0,55.0,151.0,-42.0,-179.0,126,108,115,98,84
2025-02-25 18:02:03.306,-631.0,630.0,77.0,147.0,-21.0,-207.0,124,111,117,98,83
2025-02-25 18:02:03.310,-537.0,580.0,22.0,153.0,-14.0,-225.0,123,111,116,98,81
2025-02-25 18:02:03.314,-441.0,536.0,-78.0,188.0,-3.0,-235.0,122,113,120,97,82
2025-02-25 18:02:03.319,-480.0,454.0,-64.0,203.0,-3.0,-260.0,122,114,120,98,81
2025-02-25 18:02:03.326,-535.0,276.0,-78.0,227.0,3.0,-291.0,121,116,122,100,81
2025-02-25 18:02:03.330,-433.0,340.0,-48.0,207.0,6.0,-321.0,119,115,120,98,81
2025-02-25 18:02:03.335,-366.0,221.0,-122.0,224.0,-2.0,-342.0,119,117,119,99,80
2025-02-25 18:02:03.343,-315.0,167.0,-123.0,220.0,-9.0,-354.0,120,121,121,101,81
2025-02-25 18:02:03.347,-206.0,89.0,-146.0,230.0,-25.0,-376.0,119,124,130,100,80
2025-02-25 18:02:03.351,-103.0,-40.0,-198.0,241.0,-58.0,-397.0,118,126,122,99,79
2025-02-25 18:02:03.360,20.0,-173.0,-140.0,237.0,-95.0,-420.0,113,126,124,100,77
2025-02-25 18:02:03.364,109.0,-320.0,-134.0,230.0,-116.0,-442.0,116,126,122,103,77
2025-02-25 18:02:03.368,252.0,-506.0,-60.0,226.0,-150.0,-460.0,116,125,119,101,77
2025-02-25 18:02:03.376,483.0,-668.0,121.0,203.0,-170.0,-469.0,114,127,124,103,77
2025-02-25 18:02:03.380,668.0,-968.0,262.0,195.0,-195.0,-479.0,116,130,126,108,79
2025-02-25 18:02:03.385,894.0,-1328.0,279.0,188.0,-219.0,-481.0,115,129,124,106,79
2025-02-25 18:02:03.392,1102.0,-1646.0,507.0,189.0,-232.0,-475.0,115,131,121,106,81
2025-02-25 18:02:03.404,1515.0,-1919.0,711.0,183.0,-235.0,-462.0,117,130,121,107,80
2025-02-25 18:02:03.407,1769.0,-2184.0,976.0,178.0,-224.0,-429.0,117,132,125,108,80
2025-02-25 18:02:03.409,1942.0,-2435.0,1345.0,168.0,-184.0,-375.0,117,132,115,107,80
2025-02-25 18:02:03.413,2122.0,-2773.0,1474.0,143.0,-159.0,-300.0,119,135,124,105,78
2025-02-25 18:02:03.421,2135.0,-2929.0,1784.0,115.0,-104.0,-207.0,118,134,126,107,81
2025-02-25 18:02:03.425,2101.0,-3180.0,1710.0,79.0,-62.0,-120.0,117,130,123,107,78
2025-02-25 18:02:03.429,2114.0,-3170.0,1626.0,41.0,-17.0,-37.0,118,135,122,105,78
2025-02-25 18:02:03.437,2010.0,-3240.0,1588.0,20.0,19.0,0.0,118,136,121,103,79
2025-02-25 18:02:03.441,1762.0,-3286.0,1511.0,-8.0,43.0,67.0,119,132,123,105,79
2025-02-25 18:02:03.446,1541.0,-3108.0,1394.0,-21.0,60.0,117.0,117,134,122,105,79
2025-02-25 18:02:03.454,1264.0,-2840.0,1202.0,-25.0,57.0,148.0,118,135,124,107,78
2025-02-25 18:02:03.458,1208.0,-2566.0,1181.0,-39.0,51.0,162.0,115,133,124,104,75
2025-02-25 18:02:03.462,1054.0,-2378.0,1015.0,-52.0,53.0,169.0,116,134,122,107,77
2025-02-25 18:02:03.470,883.0,-2251.0,848.0,-57.0,41.0,169.0,115,134,119,105,76
2025-02-25 18:02:03.474,697.0,-2063.0,787.0,-81.0,18.0,169.0,118,134,124,109,79
2025-02-25 18:02:03.478,630.0,-1997.0,652.0,-108.0,5.0,169.0,116,135,126,110,79
2025-02-25 18:02:03.486,616.0,-1902.0,616.0,-114.0,-11.0,169.0,113,135,126,110,77
2025-02-25 18:02:03.490,600.0,-1877.0,674.0,-112.0,-13.0,171.0,113,135,125,109,77
2025-02-25 18:02:03.495,613.0,-1830.0,611.0,-118.0,-9.0,174.0,114,134,123,112,78
2025-02-25 18:02:03.499,605.0,-1829.0,606.0,-119.0,-5.0,178.0,115,137,123,111,78
2025-02-25 18:02:03.507,583.0,-1817.0,640.0,-116.0,1.0,188.0,113,135,124,112,79
2025-02-25 18:02:03.511,569.0,-1768.0,566.0,-120.0,-1.0,200.0,115,136,124,112,80
2025-02-25 18:02:03.515,568.0,-1713.0,601.0,-117.0,5.0,215.0,114,135,125,114,79
2025-02-25 18:02:03.524,570.0,-1613.0,556.0,-118.0,6.0,230.0,112,133,123,113,79
2025-02-25 18:02:03.528,553.0,-1536.0,597.0,-116.0,13.0,237.0,111,134,126,112,77
2025-02-25 18:02:03.532,490.0,-1459.0,565.0,-118.0,19.0,251.0,116,137,126,113,81
2025-02-25 18:02:03.539,450.0,-1337.0,578.0,-120.0,24.0,263.0,116,131,125,115,81
2025-02-25 18:02:03.543,381.0,-1201.0,548.0,-122.0,32.0,275.0,116,136,125,112,80
2025-02-25 18:02:03.548,299.0,-1058.0,538.0,-118.0,37.0,284.0,114,134,124,109,78
2025-02-25 18:02:03.556,236.0,-922.0,497.0,-118.0,40.0,292.0,113,133,123,112,78
2025-02-25 18:02:03.560,122.0,-836.0,378.0,-115.0,39.0,297.0,117,135,124,114,79
2025-02-25 18:02:03.565,-1.0,-673.0,354.0,-106.0,38.0,303.0,116,136,123,111,78
2025-02-25 18:02:03.569,-128.0,-510.0,438.0,-99.0,43.0,310.0,115,134,124,114,79
2025-02-25 18:02:03.576,-210.0,-345.0,374.0,-90.0,45.0,311.0,111,134,126,113,78
2025-02-25 18:02:03.581,-256.0,-256.0,364.0,-70.0,48.0,311.0,113,135,125,114,79
2025-02-25 18:02:03.585,-335.0,-184.0,303.0,-58.0,57.0,309.0,114,134,120,111,77
2025-02-25 18:02:03.593,-410.0,-66.0,244.0,-54.0,62.0,303.0,115,134,125,112,80
2025-02-25 18:02:03.597,-427.0,59.0,237.0,-54.0,70.0,292.0,114,135,126,115,79
2025-02-25 18:02:03.601,-480.0,178.0,237.0,-50.0,73.0,277.0,114,133,124,111,78
2025-02-25 18:02:03.606,-500.0,253.0,243.0,-49.0,83.0,270.0,114,126,125,112,77
2025-02-25 18:02:03.614,-576.0,297.0,236.0,-47.0,91.0,253.0,115,137,127,113,79
2025-02-25 18:02:03.618,-631.0,342.0,234.0,-45.0,101.0,237.0,115,129,126,111,76
2025-02-25 18:02:03.622,-684.0,414.0,124.0,-48.0,103.0,218.0,114,136,122,111,79
2025-02-25 18:02:03.630,-698.0,435.0,50.0,-46.0,103.0,198.0,113,137,125,115,76
2025-02-25 18:02:03.634,-738.0,438.0,-25.0,-45.0,100.0,187.0,114,135,124,111,77
2025-02-25 18:02:03.639,-788.0,469.0,-31.0,-44.0,94.0,167.0,114,136,127,113,81
2025-02-25 18:02:03.643,-830.0,502.0,-39.0,-41.0,91.0,149.0,113,132,126,112,79
2025-02-25 18:02:03.651,-878.0,472.0,-163.0,-36.0,78.0,131.0,110,131,125,111,77
2025-02-25 18:02:03.655,-863.0,515.0,-151.0,-35.0,72.0,114.0,111,132,125,112,76
2025-02-25 18:02:03.659,-884.0,572.0,-207.0,-31.0,66.0,106.0,110,134,125,112,78
2025-02-25 18:02:03.667,-926.0,547.0,-255.0,-25.0,49.0,88.0,111,133,126,114,81
2025-02-25 18:02:03.671,-916.0,605.0,-234.0,-24.0,40.0,71.0,110,133,127,112,78
2025-02-25 18:02:03.676,-955.0,631.0,-286.0,-16.0,33.0,54.0,111,129,124,110,77
2025-02-25 18:02:03.680,-969.0,673.0,-316.0,-11.0,19.0,46.0,109,132,125,112,78
2025-02-25 18:02:03.687,-965.0,688.0,-258.0,-12.0,8.0,29.0,112,134,128,113,79
2025-02-25 18:02:03.691,-971.0,698.0,-288.0,-7.0,-1.0,12.0,113,134,127,112,78
2025-02-25 18:02:03.695,-972.0,706.0,-272.0,-5.0,-9.0,-6.0,111,133,128,112,77
2025-02-25 18:02:03.700,-975.0,689.0,-276.0,1.0,-13.0,-23.0,110,130,126,113,78
2025-02-25 18:02:03.708,-956.0,705.0,-231.0,7.0,-18.0,-32.0,112,132,126,113,79
2025-02-25 18:02:03.712,-932.0,711.0,-253.0,17.0,-22.0,-51.0,112,134,124,116,79
2025-02-25 18:02:03.716,-909.0,698.0,-210.0,19.0,-21.0,-73.0,112,131,119,111,78
2025-02-25 18:02:03.724,-908.0,687.0,-206.0,30.0,-22.0,-95.0,111,130,122,111,78
2025-02-25 18:02:03.728,-911.0,668.0,-168.0,43.0,-22.0,-106.0,110,130,122,114,77
2025-02-25 18:02:03.733,-920.0,661.0,-167.0,58.0,-23.0,-128.0,112,130,127,111,77
2025-02-25 18:02:03.740,-904.0,641.0,-142.0,73.0,-24.0,-150.0,114,130,127,115,81
2025-02-25 18:02:03.745,-855.0,592.0,-127.0,81.0,-23.0,-173.0,114,133,126,112,80
2025-02-25 18:02:03.749,-838.0,506.0,-152.0,102.0,-25.0,-195.0,112,130,124,112,78
2025-02-25 18:02:03.757,-826.0,492.0,-111.0,117.0,-26.0,-221.0,112,132,126,113,77
2025-02-25 18:02:03.761,-765.0,452.0,-82.0,132.0,-29.0,-245.0,112,132,125,113,79
2025-02-25 18:02:03.765,-693.0,421.0,-13.0,147.0,-34.0,-258.0,113,131,125,113,79
2025-02-25 18:02:03.773,-605.0,366.0,-9.0,150.0,-41.0,-286.0,112,131,125,116,78
2025-02-25 18:02:03.777,-465.0,334.0,40.0,150.0,-46.0,-316.0,113,132,124,114,78
2025-02-25 18:02:03.781,-348.0,297.0,140.0,147.0,-48.0,-348.0,112,131,124,113,77
2025-02-25 18:02:03.786,-245.0,230.0,174.0,135.0,-54.0,-380.0,112,131,126,113,76
2025-02-25 18:02:03.794,-117.0,178.0,285.0,131.0,-70.0,-396.0,112,131,125,114,77
2025-02-25 18:02:03.798,9.0,3.0,406.0,128.0,-87.0,-428.0,113,134,125,118,79
2025-02-25 18:02:03.802,214.0,-292.0,378.0,130.0,-103.0,-457.0,113,130,125,116,80
2025-02-25 18:02:03.810,350.0,-651.0,443.0,146.0,-120.0,-485.0,116,130,124,112,79
2025-02-25 18:02:03.814,418.0,-1005.0,403.0,135.0,-127.0,-507.0,112,130,125,118,80
2025-02-25 18:02:03.819,683.0,-1396.0,529.0,123.0,-127.0,-521.0,113,130,126,118,79
2025-02-25 18:02:03.826,956.0,-1619.0,673.0,103.0,-128.0,-522.0,113,135,124,117,78
2025-02-25 18:02:03.831,1228.0,-2071.0,856.0,98.0,-137.0,-512.0,112,132,123,116,79
2025-02-25 18:02:03.835,1502.0,-2467.0,953.0,89.0,-136.0,-475.0,114,134,125,117,79
2025-02-25 18:02:03.843,1774.0,-2831.0,1043.0,70.0,-122.0,-412.0,117,135,125,117,80
2025-02-25 18:02:03.847,2022.0,-3155.0,1138.0,43.0,-92.0,-326.0,117,134,124,114,81
2025-02-25 18:02:03.855,2153.0,-3387.0,1061.0,23.0,-58.0,-230.0,117,135,125,119,80
2025-02-25 18:02:03.860,2185.0,-3436.0,1350.0,19.0,-18.0,-132.0,112,132,120,120,81
2025-02-25 18:02:03.864,2181.0,-3462.0,1123.0,9.0,-8.0,-39.0,117,134,125,116,79
2025-02-25 18:02:03.871,2170.0,-3402.0,1116.0,-14.0,14.0,42.0,117,132,122,115,79
2025-02-25 18:02:03.876,2008.0,-3340.0,836.0,-40.0,52.0,77.0,116,131,121,116,79
2025-02-25 18:02:03.880,1794.0,-3360.0,704.0,-34.0,53.0,139.0,118,134,123,116,81
2025-02-25 18:02:03.884,1489.0,-2963.0,827.0,-9.0,57.0,178.0,118,133,123,116,81
2025-02-25 18:02:03.892,1522.0,-2841.0,923.0,3.0,90.0,204.0,121,132,121,114,81
2025-02-25 18:02:03.896,1346.0,-2487.0,592.0,-16.0,83.0,209.0,116,131,121,114,78
2025-02-25 18:02:03.901,840.0,-2388.0,577.0,-46.0,65.0,216.0,117,131,123,116,79
2025-02-25 18:02:03.908,587.0,-2132.0,445.0,-89.0,60.0,219.0,118,131,122,117,81
2025-02-25 18:02:03.913,587.0,-1942.0,348.0,-123.0,31.0,216.0,119,130,118,117,81
2025-02-25 18:02:03.917,492.0,-1770.0,491.0,-116.0,34.0,218.0,124,131,122,119,80
2025-02-25 18:02:03.924,419.0,-1703.0,418.0,-97.0,37.0,214.0,117,129,121,117,78
2025-02-25 18:02:03.929,417.0,-1577.0,337.0,-93.0,27.0,210.0,116,131,124,119,78
2025-02-25 18:02:03.933,338.0,-1586.0,296.0,-89.0,22.0,209.0,118,130,125,120,81
2025-02-25 18:02:03.941,263.0,-1523.0,257.0,-105.0,11.0,209.0,117,132,126,119,80
2025-02-25 18:02:03.945,280.0,-1492.0,272.0,-107.0,-2.0,212.0,119,132,123,118,79
2025-02-25 18:02:03.950,239.0,-1414.0,365.0,-105.0,-6.0,217.0,117,131,126,120,82
2025-02-25 18:02:03.954,207.0,-1339.0,249.0,-116.0,-6.0,225.0,119,131,124,119,80
2025-02-25 18:02:03.962,190.0,-1312.0,283.0,-139.0,-15.0,228.0,118,134,126,119,80
2025-02-25 18:02:03.966,149.0,-1264.0,227.0,-148.0,-16.0,240.0,119,129,126,122,80
2025-02-25 18:02:03.971,121.0,-1159.0,297.0,-169.0,-11.0,253.0,119,128,126,121,82
2025-02-25 18:02:03.978,70.0,-1043.0,209.0,-176.0,-1.0,266.0,120,131,124,120,81
2025-02-25 18:02:03.982,8.0,-975.0,324.0,-172.0,10.0,279.0,120,129,122,120,83
2025-02-25 18:02:03.987,-17.0,-836.0,360.0,-164.0,11.0,285.0,118,126,124,120,81
2025-02-25 18:02:03.994,-32.0,-736.0,377.0,-162.0,22.0,288.0,120,127,122,119,81
2025-02-25 18:02:03.998,-98.0,-626.0,227.0,-173.0,18.0,282.0,119,127,136,115,83
2025-02-25 18:02:04.003,-21.0,-433.0,178.0,-165.0,-4.0,274.0,119,126,123,111,85
2025-02-25 18:02:04.010,-128.0,-328.0,6.0,-182.0,-26.0,267.0,118,124,122,107,86
2025-02-25 18:02:04.014,-252.0,-221.0,579.0,-184.0,-18.0,253.0,119,123,120,107,86
2025-02-25 18:02:04.019,-507.0,-216.0,453.0,-182.0,-3.0,244.0,120,126,122,106,89
2025-02-25 18:02:04.023,-597.0,-149.0,194.0,-152.0,12.0,227.0,119,122,120,105,91
2025-02-25 18:02:04.031,-630.0,-156.0,57.0,-136.0,12.0,214.0,120,125,119,109,92
2025-02-25 18:02:04.035,-678.0,-168.0,69.0,-129.0,16.0,200.0,119,123,116,104,93
2025-02-25 18:02:04.040,-692.0,-143.0,149.0,-119.0,15.0,190.0,120,120,115,104,92
2025-02-25 18:02:04.048,-731.0,-37.0,177.0,-104.0,20.0,179.0,121,119,111,103,91
2025-02-25 18:02:04.052,-781.0,28.0,54.0,-81.0,28.0,174.0,121,118,114,103,91
2025-02-25 18:02:04.056,-829.0,59.0,-16.0,-62.0,33.0,168.0,123,116,112,102,91
2025-02-25 18:02:04.061,-864.0,156.0,-48.0,-58.0,26.0,157.0,124,113,107,102,93
2025-02-25 18:02:04.068,-907.0,229.0,22.0,-53.0,22.0,144.0,123,112,111,99,90
2025-02-25 18:02:04.073,-939.0,274.0,81.0,-47.0,23.0,138.0,125,110,111,101,92
2025-02-25 18:02:04.077,-934.0,331.0,43.0,-41.0,26.0,121.0,127,108,105,101,91
2025-02-25 18:02:04.081,-939.0,417.0,53.0,-38.0,25.0,105.0,129,104,103,100,90
2025-02-25 18:02:04.088,-1003.0,448.0,95.0,-38.0,25.0,85.0,129,100,96,98,90
2025-02-25 18:02:04.093,-994.0,531.0,102.0,-33.0,33.0,75.0,130,99,97,97,91
2025-02-25 18:02:04.097,-1053.0,494.0,-67.0,-29.0,29.0,56.0,134,95,97,97,89
2025-02-25 18:02:04.101,-1114.0,573.0,-127.0,-24.0,20.0,31.0,132,92,90,94,87
2025-02-25 18:02:04.109,-1168.0,574.0,49.0,-19.0,24.0,19.0,133,87,93,92,86
2025-02-25 18:02:04.113,-1178.0,638.0,-23.0,-10.0,23.0,-2.0,134,82,89,91,87
2025-02-25 18:02:04.118,-1206.0,709.0,-10.0,-8.0,23.0,-20.0,134,76,86,90,86
2025-02-25 18:02:04.122,-1262.0,736.0,66.0,7.0,20.0,-25.0,137,76,85,87,86
2025-02-25 18:02:04.126,-1215.0,758.0,182.0,6.0,33.0,-29.0,136,74,87,89,86
2025-02-25 18:02:04.134,-1252.0,847.0,169.0,10.0,39.0,-34.0,135,71,88,87,84
2025-02-25 18:02:04.138,-1336.0,710.0,67.0,32.0,45.0,-35.0,138,70,88,89,86
2025-02-25 18:02:04.142,-1144.0,882.0,61.0,46.0,63.0,-33.0,137,69,88,90,88
2025-02-25 18:02:04.146,-1092.0,967.0,18.0,49.0,71.0,-44.0,136,65,81,90,85
2025-02-25 18:02:04.151,-967.0,825.0,215.0,76.0,87.0,-56.0,136,66,81,93,81
2025-02-25 18:02:04.158,-1061.0,928.0,215.0,87.0,83.0,-85.0,139,67,79,94,82
2025-02-25 18:02:04.163,-800.0,1018.0,291.0,105.0,93.0,-120.0,138,65,80,97,82
2025-02-25 18:02:04.167,-729.0,1017.0,111.0,132.0,83.0,-140.0,137,65,77,97,76
2025-02-25 18:02:04.171,-673.0,1037.0,-73.0,140.0,54.0,-175.0,138,65,75,98,78
2025-02-25 18:02:04.179,-699.0,822.0,-179.0,148.0,35.0,-203.0,139,63,77,100,75
2025-02-25 18:02:04.183,-561.0,671.0,-388.0,164.0,30.0,-230.0,138,60,74,98,72
2025-02-25 18:02:04.188,-630.0,602.0,-297.0,164.0,14.0,-241.0,140,61,68,99,73
2025-02-25 18:02:04.192,-555.0,517.0,-322.0,176.0,8.0,-263.0,139,61,74,96,70
2025-02-25 18:02:04.199,-633.0,415.0,-237.0,171.0,18.0,-285.0,139,58,69,93,68
2025-02-25 18:02:04.203,-655.0,234.0,-211.0,162.0,23.0,-300.0,140,59,71,93,66
2025-02-25 18:02:04.208,-722.0,201.0,-220.0,191.0,17.0,-308.0,138,58,75,89,66
2025-02-25 18:02:04.212,-658.0,190.0,-176.0,200.0,5.0,-327.0,141,59,71,88,66
2025-02-25 18:02:04.219,-506.0,222.0,-176.0,213.0,-24.0,-348.0,140,58,72,91,66
2025-02-25 18:02:04.224,-387.0,171.0,-118.0,228.0,-48.0,-373.0,139,56,71,86,66
2025-02-25 18:02:04.229,-119.0,193.0,-84.0,234.0,-110.0,-386.0,141,57,70,83,66
2025-02-25 18:02:04.233,118.0,62.0,-83.0,217.0,-166.0,-409.0,142,57,74,86,67
2025-02-25 18:02:04.240,265.0,-149.0,-32.0,206.0,-191.0,-427.0,140,57,69,85,69
2025-02-25 18:02:04.244,325.0,-350.0,44.0,190.0,-193.0,-438.0,141,55,67,81,67
2025-02-25 18:02:04.249,597.0,-500.0,56.0,144.0,-203.0,-442.0,142,58,73,85,67
2025-02-25 18:02:04.253,722.0,-847.0,100.0,122.0,-222.0,-446.0,141,55,69,85,68
2025-02-25 18:02:04.261,1109.0,-1210.0,180.0,112.0,-248.0,-437.0,146,59,68,87,69
2025-02-25 18:02:04.265,1280.0,-1637.0,330.0,91.0,-260.0,-416.0,143,56,69,84,68
2025-02-25 18:02:04.269,1527.0,-1920.0,525.0,85.0,-267.0,-403.0,145,55,70,83,68
2025-02-25 18:02:04.277,1801.0,-2396.0,853.0,98.0,-242.0,-361.0,146,60,74,85,72
2025-02-25 18:02:04.281,2086.0,-2904.0,978.0,121.0,-190.0,-312.0,149,58,73,84,70
2025-02-25 18:02:04.286,2197.0,-3156.0,1044.0,137.0,-140.0,-252.0,147,56,71,80,70
2025-02-25 18:02:04.294,2321.0,-3310.0,1316.0,203.0,-132.0,-210.0,148,54,72,78,69
2025-02-25 18:02:04.298,2348.0,-3455.0,1313.0,204.0,-77.0,-163.0,150,66,73,78,70
2025-02-25 18:02:04.302,2411.0,-3463.0,1415.0,218.0,22.0,-139.0,149,56,71,80,71
2025-02-25 18:02:04.309,2142.0,-3420.0,1372.0,181.0,71.0,-71.0,151,58,73,80,71
2025-02-25 18:02:04.313,2018.0,-3417.0,1248.0,140.0,100.0,-13.0,150,60,72,83,71
2025-02-25 18:02:04.318,1846.0,-3304.0,972.0,124.0,122.0,38.0,152,58,72,82,71
2025-02-25 18:02:04.322,1618.0,-2900.0,851.0,54.0,133.0,89.0,151,56,68,82,71
2025-02-25 18:02:04.330,1473.0,-2894.0,697.0,0.0,134.0,109.0,149,58,77,79,70
2025-02-25 18:02:04.335,1363.0,-2520.0,537.0,-31.0,115.0,137.0,151,58,71,83,72
2025-02-25 18:02:04.338,1148.0,-2234.0,484.0,-54.0,99.0,156.0,152,59,73,86,72
2025-02-25 18:02:04.343,1132.0,-2019.0,370.0,-114.0,97.0,174.0,151,57,69,82,70
2025-02-25 18:02:04.351,921.0,-2011.0,381.0,-157.0,82.0,180.0,151,61,68,82,72
2025-02-25 18:02:04.355,811.0,-2013.0,395.0,-175.0,28.0,187.0,151,57,69,83,70
2025-02-25 18:02:04.359,778.0,-2027.0,402.0,-178.0,-16.0,192.0,152,60,73,83,73
2025-02-25 18:02:04.364,777.0,-2022.0,387.0,-177.0,-22.0,202.0,149,59,71,82,71
2025-02-25 18:02:04.371,727.0,-2031.0,432.0,-175.0,-21.0,207.0,150,57,68,82,71
2025-02-25 18:02:04.375,724.0,-2032.0,436.0,-165.0,-13.0,216.0,149,59,71,84,72
2025-02-25 18:02:04.379,722.0,-2028.0,463.0,-161.0,-5.0,226.0,152,58,72,83,71
2025-02-25 18:02:04.384,729.0,-1943.0,426.0,-156.0,6.0,241.0,150,57,71,80,70
2025-02-25 18:02:04.392,654.0,-1859.0,441.0,-151.0,29.0,249.0,151,59,70,84,69
2025-02-25 18:02:04.396,642.0,-1726.0,418.0,-148.0,33.0,267.0,151,60,73,81,70
2025-02-25 18:02:04.400,524.0,-1577.0,384.0,-146.0,31.0,282.0,151,59,72,85,71
2025-02-25 18:02:04.404,478.0,-1378.0,330.0,-154.0,36.0,297.0,152,59,72,82,70
2025-02-25 18:02:04.412,371.0,-1255.0,268.0,-162.0,48.0,304.0,153,61,73,81,69
2025-02-25 18:02:04.416,247.0,-1133.0,257.0,-166.0,48.0,316.0,152,60,73,80,70
2025-02-25 18:02:04.420,182.0,-943.0,275.0,-164.0,33.0,322.0,151,62,73,80,70
2025-02-25 18:02:04.425,111.0,-789.0,311.0,-166.0,27.0,324.0,151,59,75,82,69
2025-02-25 18:02:04.432,49.0,-725.0,366.0,-147.0,21.0,322.0,151,60,77,82,71
2025-02-25 18:02:04.437,42.0,-528.0,405.0,-138.0,18.0,309.0,150,60,68,82,70
2025-02-25 18:02:04.441,9.0,-385.0,492.0,-110.0,18.0,288.0,152,58,70,82,69
2025-02-25 18:02:04.445,-73.0,-305.0,551.0,-86.0,22.0,278.0,153,60,73,84,70
2025-02-25 18:02:04.453,-179.0,-235.0,554.0,-66.0,39.0,266.0,153,59,71,82,70
2025-02-25 18:02:04.457,-245.0,-160.0,571.0,-57.0,46.0,257.0,151,59,72,82,70
2025-02-25 18:02:04.461,-373.0,-132.0,576.0,-43.0,58.0,254.0,149,58,70,81,71
2025-02-25 18:02:04.465,-488.0,-8.0,528.0,-27.0,73.0,247.0,152,60,72,84,72
2025-02-25 18:02:04.469,-542.0,153.0,465.0,-26.0,96.0,238.0,152,61,71,82,69
2025-02-25 18:02:04.478,-586.0,270.0,386.0,-25.0,106.0,233.0,152,59,71,82,68
2025-02-25 18:02:04.482,-630.0,353.0,333.0,-25.0,125.0,220.0,151,59,72,82,70
2025-02-25 18:02:04.486,-695.0,436.0,242.0,-26.0,126.0,205.0,150,61,72,82,71
2025-02-25 18:02:04.491,-754.0,476.0,160.0,-35.0,122.0,188.0,151,61,71,83,67
2025-02-25 18:02:04.498,-803.0,482.0,53.0,-32.0,118.0,180.0,151,59,73,82,67
2025-02-25 18:02:04.503,-837.0,524.0,23.0,-36.0,106.0,164.0,152,62,70,83,70
2025-02-25 18:02:04.507,-865.0,577.0,-56.0,-41.0,102.0,151.0,149,59,71,82,68
2025-02-25 18:02:04.511,-940.0,552.0,-143.0,-43.0,91.0,144.0,150,58,72,82,68
2025-02-25 18:02:04.515,-948.0,634.0,-151.0,-61.0,77.0,130.0,150,60,72,82,69
2025-02-25 18:02:04.523,-980.0,682.0,-192.0,-61.0,65.0,114.0,152,61,73,84,70
2025-02-25 18:02:04.527,-989.0,777.0,-230.0,-69.0,60.0,96.0,151,61,68,84,68
2025-02-25 18:02:04.531,-990.0,800.0,-211.0,-78.0,54.0,86.0,151,61,72,85,69
2025-02-25 18:02:04.536,-1018.0,858.0,-204.0,-77.0,45.0,65.0,151,60,69,80,70
2025-02-25 18:02:04.543,-1045.0,897.0,-207.0,-81.0,41.0,42.0,150,60,71,81,70
2025-02-25 18:02:04.547,-1021.0,888.0,-233.0,-74.0,30.0,31.0,150,58,69,81,70
2025-02-25 18:02:04.552,-1053.0,898.0,-242.0,-63.0,22.0,6.0,151,61,70,86,69
2025-02-25 18:02:04.556,-1048.0,911.0,-227.0,-57.0,11.0,-22.0,149,61,68,83,67
2025-02-25 18:02:04.563,-1037.0,916.0,-230.0,-48.0,6.0,-47.0,150,59,70,84,69
2025-02-25 18:02:04.567,-1024.0,905.0,-243.0,-37.0,2.0,-59.0,150,60,71,85,70
2025-02-25 18:02:04.572,-1001.0,854.0,-212.0,-32.0,0.0,-79.0,151,58,69,83,71
2025-02-25 18:02:04.576,-1013.0,804.0,-207.0,-21.0,-3.0,-96.0,151,60,70,84,67
2025-02-25 18:02:04.583,-997.0,758.0,-231.0,-5.0,-7.0,-104.0,151,59,70,86,69
2025-02-25 18:02:04.588,-979.0,738.0,-199.0,7.0,-6.0,-117.0,150,60,69,85,69
2025-02-25 18:02:04.592,-965.0,690.0,-202.0,20.0,-9.0,-133.0,154,61,70,86,70
2025-02-25 18:02:04.596,-949.0,694.0,-175.0,32.0,-9.0,-152.0,149,61,70,84,69
2025-02-25 18:02:04.601,-913.0,681.0,-179.0,52.0,-11.0,-161.0,152,62,74,84,70
2025-02-25 18:02:04.608,-878.0,665.0,-175.0,72.0,-10.0,-181.0,149,61,71,86,71
2025-02-25 18:02:04.613,-885.0,661.0,-173.0,81.0,-9.0,-198.0,149,61,71,87,69
2025-02-25 18:02:04.617,-864.0,665.0,-155.0,94.0,-9.0,-208.0,149,60,70,85,70
2025-02-25 18:02:04.621,-829.0,620.0,-163.0,118.0,-10.0,-229.0,152,65,72,86,69
2025-02-25 18:02:04.629,-756.0,584.0,-194.0,130.0,-17.0,-255.0,150,62,74,86,70
2025-02-25 18:02:04.633,-644.0,556.0,-150.0,138.0,-26.0,-282.0,148,60,72,86,71
2025-02-25 18:02:04.637,-617.0,515.0,-157.0,142.0,-37.0,-295.0,152,62,71,81,68
2025-02-25 18:02:04.645,-515.0,486.0,-135.0,151.0,-48.0,-323.0,151,63,68,86,71
2025-02-25 18:02:04.650,-372.0,450.0,-125.0,158.0,-74.0,-355.0,149,62,75,87,71
2025-02-25 18:02:04.654,-191.0,377.0,-109.0,166.0,-118.0,-390.0,151,62,75,87,71
2025-02-25 18:02:04.659,-35.0,195.0,-6.0,171.0,-144.0,-425.0,150,65,79,90,72
2025-02-25 18:02:04.666,228.0,53.0,12.0,166.0,-192.0,-443.0,152,61,73,87,71
2025-02-25 18:02:04.670,383.0,-252.0,15.0,127.0,-210.0,-467.0,148,61,72,91,68
2025-02-25 18:02:04.675,614.0,-675.0,-37.0,116.0,-217.0,-471.0,148,63,72,88,70
2025-02-25 18:02:04.679,748.0,-1247.0,-10.0,83.0,-218.0,-469.0,150,60,71,87,72
2025-02-25 18:02:04.687,1069.0,-1527.0,12.0,68.0,-227.0,-465.0,151,61,75,89,71
2025-02-25 18:02:04.691,1442.0,-2248.0,32.0,55.0,-238.0,-445.0,148,60,75,89,72
2025-02-25 18:02:04.695,1912.0,-3104.0,141.0,54.0,-234.0,-394.0,150,61,72,89,72
2025-02-25 18:02:04.703,2089.0,-3856.0,148.0,75.0,-225.0,-326.0,152,62,75,90,74
2025-02-25 18:02:04.707,2092.0,-4260.0,197.0,130.0,-181.0,-276.0,148,61,76,83,73
