timestamp,ax,ay,az,gx,gy,gz,flex1,flex2,flex3,flex4,flex5,emg1,emg2,emg3
2025-02-26 14:50:51.447,-148.0,-1000.0,41.0,10.0,11.0,-33.0,195,154,145,175,168
2025-02-26 14:50:51.452,-149.0,-962.0,49.0,8.0,11.0,-30.0,186,146,136,166,160
2025-02-26 14:50:51.455,-145.0,-967.0,27.0,8.0,8.0,-27.0,192,150,142,171,163
2025-02-26 14:50:51.457,-152.0,-981.0,5.0,7.0,5.0,-23.0,192,150,141,170,162
2025-02-26 14:50:51.459,-158.0,-997.0,15.0,4.0,6.0,-18.0,192,151,141,170,165
2025-02-26 14:50:51.461,-171.0,-1007.0,21.0,-1.0,7.0,-17.0,193,151,141,171,165
2025-02-26 14:50:51.463,-185.0,-1051.0,24.0,-1.0,9.0,-12.0,191,150,140,170,163
2025-02-26 14:50:51.465,-189.0,-1077.0,39.0,0.0,10.0,-9.0,185,143,135,165,158
2025-02-26 14:50:51.465,-192.0,-1082.0,49.0,2.0,13.0,-7.0,197,155,146,175,169
2025-02-26 14:50:51.471,-186.0,-1084.0,40.0,3.0,15.0,-4.0,191,150,142,172,164
2025-02-26 14:50:51.473,-185.0,-1088.0,27.0,5.0,15.0,-2.0,186,142,134,164,158
2025-02-26 14:50:51.475,-187.0,-1088.0,37.0,6.0,13.0,-1.0,191,149,139,169,162
2025-02-26 14:50:51.477,-182.0,-1076.0,32.0,6.0,10.0,0.0,193,150,141,172,164
2025-02-26 14:50:51.477,-184.0,-1074.0,23.0,7.0,8.0,1.0,186,145,134,161,157
2025-02-26 14:50:51.482,-184.0,-1057.0,80.0,8.0,8.0,2.0,193,149,139,169,163
2025-02-26 14:50:51.484,-162.0,-1030.0,8.0,10.0,5.0,2.0,192,150,137,169,163
2025-02-26 14:50:51.486,-166.0,-1034.0,53.0,11.0,6.0,2.0,187,143,134,164,157
2025-02-26 14:50:51.489,-161.0,-1021.0,49.0,12.0,6.0,2.0,192,150,141,171,164
2025-02-26 14:50:51.489,-155.0,-1011.0,43.0,11.0,8.0,1.0,192,149,140,171,163
2025-02-26 14:50:51.489,-149.0,-1004.0,30.0,11.0,7.0,1.0,187,143,134,164,156
2025-02-26 14:50:51.495,-151.0,-990.0,40.0,9.0,6.0,1.0,192,149,141,171,163
2025-02-26 14:50:51.495,-151.0,-980.0,66.0,6.0,8.0,0.0,195,152,141,172,162
2025-02-26 14:50:51.495,-148.0,-969.0,57.0,6.0,9.0,0.0,187,144,135,165,158
2025-02-26 14:50:51.501,-154.0,-967.0,43.0,3.0,9.0,0.0,191,150,139,169,162
2025-02-26 14:50:51.501,-162.0,-963.0,35.0,2.0,8.0,0.0,191,148,139,169,161
2025-02-26 14:50:51.507,-162.0,-968.0,56.0,-1.0,8.0,0.0,185,143,134,166,157
2025-02-26 14:50:51.509,-177.0,-971.0,34.0,-3.0,7.0,1.0,193,151,141,171,163
2025-02-26 14:50:51.511,-198.0,-980.0,43.0,-5.0,8.0,2.0,188,147,136,167,160
2025-02-26 14:50:51.513,-194.0,-994.0,41.0,-5.0,8.0,3.0,184,143,132,163,155
2025-02-26 14:50:51.513,-200.0,-993.0,56.0,-6.0,8.0,3.0,192,151,140,171,164
2025-02-26 14:50:51.518,-205.0,-1000.0,43.0,-5.0,7.0,3.0,190,147,136,168,160
2025-02-26 14:50:51.519,-211.0,-1002.0,40.0,-5.0,7.0,4.0,184,141,133,159,155
2025-02-26 14:50:51.519,-211.0,-1000.0,32.0,-4.0,5.0,4.0,193,150,141,169,163
2025-02-26 14:50:51.524,-208.0,-997.0,35.0,-4.0,5.0,5.0,191,149,139,167,162
2025-02-26 14:50:51.525,-205.0,-995.0,36.0,-3.0,5.0,5.0,187,145,134,162,156
2025-02-26 14:50:51.529,-208.0,-992.0,35.0,-1.0,4.0,5.0,191,150,140,168,164
2025-02-26 14:50:51.531,-207.0,-983.0,31.0,-1.0,3.0,5.0,190,148,136,168,159
2025-02-26 14:50:51.533,-206.0,-969.0,25.0,0.0,2.0,5.0,188,147,134,166,157
2025-02-26 14:50:51.535,-204.0,-962.0,27.0,0.0,3.0,5.0,192,152,140,170,163
2025-02-26 14:50:51.538,-194.0,-949.0,27.0,1.0,3.0,4.0,189,149,138,169,164
2025-02-26 14:50:51.540,-194.0,-945.0,33.0,0.0,3.0,3.0,186,147,135,165,156
2025-02-26 14:50:51.542,-196.0,-951.0,26.0,-2.0,3.0,3.0,194,154,142,172,164
2025-02-26 14:50:51.544,-200.0,-953.0,24.0,-2.0,3.0,3.0,192,151,139,171,161
2025-02-26 14:50:51.547,-200.0,-954.0,38.0,-3.0,4.0,3.0,186,146,133,160,156
2025-02-26 14:50:51.549,-204.0,-950.0,37.0,-5.0,4.0,2.0,191,152,140,169,162
2025-02-26 14:50:51.552,-202.0,-951.0,33.0,-5.0,4.0,1.0,192,151,140,169,163
2025-02-26 14:50:51.554,-205.0,-940.0,24.0,-5.0,5.0,0.0,187,149,135,164,156
2025-02-26 14:50:51.556,-211.0,-939.0,21.0,-5.0,4.0,0.0,191,152,140,168,162
2025-02-26 14:50:51.556,-205.0,-948.0,9.0,-6.0,3.0,-1.0,187,148,135,165,153
2025-02-26 14:50:51.561,-202.0,-949.0,14.0,-6.0,3.0,-1.0,188,148,136,165,159
2025-02-26 14:50:51.562,-211.0,-948.0,18.0,-7.0,2.0,-1.0,193,155,142,170,164
2025-02-26 14:50:51.565,-214.0,-955.0,7.0,-7.0,0.0,-2.0,188,148,134,162,157
2025-02-26 14:50:51.567,-217.0,-954.0,8.0,-6.0,0.0,-1.0,186,146,133,160,155
2025-02-26 14:50:51.569,-212.0,-959.0,13.0,-6.0,-1.0,-1.0,196,158,144,174,166
2025-02-26 14:50:51.571,-207.0,-963.0,7.0,-6.0,-2.0,0.0,189,148,136,167,157
2025-02-26 14:50:51.573,-211.0,-969.0,15.0,-6.0,-3.0,0.0,186,151,137,167,159
2025-02-26 14:50:51.576,-211.0,-962.0,17.0,-6.0,-3.0,1.0,192,155,140,169,162
2025-02-26 14:50:51.580,-208.0,-962.0,20.0,-6.0,-3.0,1.0,192,154,140,169,162
2025-02-26 14:50:51.585,-203.0,-968.0,18.0,-6.0,-4.0,1.0,192,154,139,169,162
2025-02-26 14:50:51.588,-207.0,-989.0,20.0,-8.0,-4.0,1.0,190,154,141,169,163
2025-02-26 14:50:51.597,-203.0,-987.0,25.0,-8.0,-3.0,0.0,186,147,136,163,156
2025-02-26 14:50:51.599,-205.0,-984.0,25.0,-8.0,-3.0,0.0,195,157,142,171,164
2025-02-26 14:50:51.606,-208.0,-980.0,28.0,-7.0,-2.0,-1.0,192,156,142,170,164
2025-02-26 14:50:51.610,-195.0,-991.0,21.0,-7.0,-2.0,-2.0,191,152,139,168,161
2025-02-26 14:50:51.618,-195.0,-993.0,12.0,-7.0,-2.0,-3.0,185,147,133,162,156
2025-02-26 14:50:51.622,-184.0,-994.0,-2.0,-6.0,-2.0,-4.0,196,160,146,174,166
2025-02-26 14:50:51.626,-182.0,-996.0,2.0,-5.0,-2.0,-5.0,192,156,141,172,162
2025-02-26 14:50:51.628,-182.0,-999.0,6.0,-4.0,-1.0,-6.0,187,148,134,163,157
2025-02-26 14:50:51.637,-175.0,-1000.0,6.0,-2.0,-1.0,-7.0,186,148,135,163,156
2025-02-26 14:50:51.640,-173.0,-1011.0,5.0,-1.0,0.0,-7.0,196,159,145,172,166
2025-02-26 14:50:51.646,-166.0,-1002.0,10.0,-1.0,1.0,-7.0,190,154,140,168,161
2025-02-26 14:50:51.646,-170.0,-1008.0,0.0,0.0,1.0,-6.0,186,150,135,163,157
2025-02-26 14:50:51.658,-171.0,-1007.0,22.0,1.0,1.0,-5.0,192,156,140,168,162
2025-02-26 14:50:51.663,-163.0,-1017.0,20.0,1.0,1.0,-3.0,195,158,144,171,165
2025-02-26 14:50:51.667,-173.0,-1025.0,8.0,2.0,1.0,-1.0,189,151,137,166,159
2025-02-26 14:50:51.670,-176.0,-1025.0,7.0,3.0,1.0,0.0,183,146,132,160,154
2025-02-26 14:50:51.670,-167.0,-1040.0,19.0,3.0,1.0,2.0,191,155,142,169,162
2025-02-26 14:50:51.683,-176.0,-1046.0,23.0,3.0,0.0,4.0,191,154,140,168,161
2025-02-26 14:50:51.683,-172.0,-1061.0,6.0,3.0,-1.0,5.0,185,150,133,163,158
2025-02-26 14:50:51.691,-172.0,-1056.0,8.0,4.0,-2.0,6.0,190,155,142,170,163
2025-02-26 14:50:51.695,-167.0,-1053.0,10.0,4.0,-1.0,7.0,189,153,141,168,161
2025-02-26 14:50:51.703,-167.0,-1060.0,13.0,6.0,0.0,8.0,189,153,138,167,160
2025-02-26 14:50:51.707,-169.0,-1056.0,14.0,8.0,1.0,8.0,193,157,144,171,164
2025-02-26 14:50:51.712,-167.0,-1038.0,18.0,9.0,1.0,7.0,189,152,139,166,160
2025-02-26 14:50:51.716,-181.0,-1024.0,19.0,10.0,2.0,7.0,184,148,134,162,156
2025-02-26 14:50:51.720,-181.0,-1022.0,29.0,10.0,3.0,7.0,196,159,146,174,167
2025-02-26 14:50:51.727,-178.0,-1018.0,26.0,11.0,4.0,7.0,195,156,143,170,164
2025-02-26 14:50:51.732,-188.0,-1015.0,23.0,11.0,4.0,7.0,186,149,135,163,157
2025-02-26 14:50:51.736,-189.0,-1011.0,16.0,12.0,3.0,7.0,184,149,134,160,155
2025-02-26 14:50:51.740,-184.0,-1000.0,27.0,11.0,3.0,7.0,194,160,145,173,167
2025-02-26 14:50:51.748,-187.0,-990.0,13.0,11.0,2.0,7.0,192,157,142,171,163
2025-02-26 14:50:51.749,-192.0,-980.0,23.0,11.0,2.0,7.0,186,149,138,163,156
2025-02-26 14:50:51.755,-192.0,-978.0,26.0,10.0,2.0,8.0,191,155,143,168,162
2025-02-26 14:50:51.761,-198.0,-971.0,28.0,9.0,2.0,8.0,193,157,144,171,164
2025-02-26 14:50:51.761,-199.0,-978.0,33.0,7.0,2.0,8.0,186,150,138,164,158
2025-02-26 14:50:51.773,-202.0,-981.0,27.0,6.0,2.0,8.0,192,156,143,169,163
2025-02-26 14:50:51.773,-209.0,-970.0,32.0,5.0,1.0,8.0,189,154,140,167,160
2025-02-26 14:50:51.780,-209.0,-971.0,26.0,5.0,1.0,9.0,190,153,140,166,160
2025-02-26 14:50:51.786,-222.0,-974.0,36.0,5.0,1.0,9.0,192,157,146,172,165
2025-02-26 14:50:51.790,-221.0,-970.0,29.0,5.0,1.0,9.0,189,154,141,167,161
2025-02-26 14:50:51.797,-223.0,-981.0,39.0,5.0,1.0,9.0,184,149,137,163,156
2025-02-26 14:50:51.800,-225.0,-974.0,32.0,7.0,0.0,8.0,196,161,149,174,168
2025-02-26 14:50:51.805,-230.0,-967.0,42.0,7.0,0.0,8.0,191,155,143,170,163
2025-02-26 14:50:51.810,-229.0,-971.0,46.0,8.0,-1.0,7.0,186,150,139,164,158
2025-02-26 14:50:51.811,-223.0,-965.0,42.0,9.0,-1.0,7.0,191,156,142,170,163
2025-02-26 14:50:51.822,-219.0,-952.0,48.0,9.0,-1.0,7.0,195,160,149,176,169
2025-02-26 14:50:51.826,-225.0,-947.0,73.0,9.0,-1.0,7.0,189,152,139,166,158
2025-02-26 14:50:51.830,-222.0,-939.0,79.0,9.0,-1.0,7.0,193,156,144,170,165
2025-02-26 14:50:51.835,-229.0,-937.0,87.0,9.0,1.0,7.0,189,155,143,169,162
2025-02-26 14:50:51.839,-231.0,-926.0,70.0,10.0,1.0,6.0,192,157,145,169,164
2025-02-26 14:50:51.847,-230.0,-923.0,73.0,10.0,2.0,6.0,193,158,146,172,165
2025-02-26 14:50:51.851,-229.0,-923.0,74.0,11.0,4.0,4.0,191,155,142,169,162
2025-02-26 14:50:51.855,-229.0,-918.0,81.0,11.0,5.0,2.0,186,149,138,164,157
2025-02-26 14:50:51.860,-230.0,-923.0,76.0,11.0,6.0,1.0,198,162,150,178,171
2025-02-26 14:50:51.865,-234.0,-919.0,70.0,11.0,7.0,-1.0,191,156,143,169,163
2025-02-26 14:50:51.872,-237.0,-906.0,86.0,10.0,8.0,-3.0,185,150,137,164,157
2025-02-26 14:50:51.876,-236.0,-907.0,81.0,9.0,8.0,-4.0,191,155,142,172,163
2025-02-26 14:50:51.877,-241.0,-917.0,82.0,8.0,9.0,-6.0,197,162,148,176,169
2025-02-26 14:50:51.885,-242.0,-915.0,67.0,7.0,8.0,-7.0,187,151,140,167,161
2025-02-26 14:50:51.892,-243.0,-920.0,78.0,6.0,8.0,-7.0,192,156,145,170,163
2025-02-26 14:50:51.896,-245.0,-924.0,78.0,5.0,7.0,-7.0,192,157,144,169,163
2025-02-26 14:50:51.900,-236.0,-928.0,76.0,5.0,7.0,-7.0,192,156,145,171,165
2025-02-26 14:50:51.904,-234.0,-938.0,77.0,4.0,6.0,-7.0,188,151,138,165,159
2025-02-26 14:50:51.908,-228.0,-939.0,57.0,2.0,5.0,-7.0,191,157,145,170,163
2025-02-26 14:50:51.917,-227.0,-951.0,63.0,2.0,4.0,-7.0,188,150,140,165,159
2025-02-26 14:50:51.921,-221.0,-960.0,65.0,2.0,3.0,-7.0,190,154,141,169,163
2025-02-26 14:50:51.925,-212.0,-985.0,66.0,0.0,2.0,-8.0,193,158,145,171,166
2025-02-26 14:50:51.929,-198.0,-983.0,66.0,1.0,2.0,-8.0,187,152,140,166,160
2025-02-26 14:50:51.937,-188.0,-995.0,66.0,1.0,2.0,-8.0,184,150,138,165,159
2025-02-26 14:50:51.941,-172.0,-996.0,75.0,1.0,2.0,-9.0,196,161,151,176,170
2025-02-26 14:50:51.945,-184.0,-987.0,77.0,2.0,2.0,-10.0,191,157,145,172,165
2025-02-26 14:50:51.949,-188.0,-999.0,70.0,2.0,3.0,-11.0,186,150,138,163,158
2025-02-26 14:50:51.954,-200.0,-998.0,61.0,2.0,3.0,-12.0,191,154,145,169,168
2025-02-26 14:50:51.961,-207.0,-983.0,62.0,2.0,4.0,-12.0,197,161,150,176,170
2025-02-26 14:50:51.966,-206.0,-979.0,45.0,1.0,3.0,-11.0,187,153,141,166,160
2025-02-26 14:50:51.970,-201.0,-980.0,38.0,1.0,4.0,-11.0,187,150,138,164,158
2025-02-26 14:50:51.974,-197.0,-975.0,37.0,-1.0,3.0,-10.0,191,155,144,169,164
2025-02-26 14:50:51.982,-200.0,-996.0,39.0,-1.0,3.0,-9.0,197,160,150,175,170
2025-02-26 14:50:51.986,-201.0,-1014.0,42.0,-2.0,2.0,-9.0,188,151,140,167,160
2025-02-26 14:50:51.987,-202.0,-1017.0,48.0,-4.0,2.0,-9.0,192,156,145,171,165
2025-02-26 14:50:51.994,-197.0,-1030.0,52.0,-4.0,2.0,-9.0,191,156,144,170,165
2025-02-26 14:50:52.002,-198.0,-1035.0,47.0,-4.0,3.0,-8.0,192,156,144,168,165
2025-02-26 14:50:52.006,-194.0,-1030.0,41.0,-3.0,3.0,-7.0,188,153,140,167,160
2025-02-26 14:50:52.011,-189.0,-1030.0,40.0,-2.0,4.0,-6.0,192,156,144,170,164
2025-02-26 14:50:52.016,-190.0,-1034.0,41.0,-1.0,4.0,-5.0,190,156,143,169,164
2025-02-26 14:50:52.023,-195.0,-1035.0,33.0,0.0,4.0,-4.0,190,154,143,170,164
2025-02-26 14:50:52.027,-198.0,-1031.0,41.0,0.0,3.0,-3.0,185,150,139,166,159
2025-02-26 14:50:52.031,-188.0,-1024.0,41.0,1.0,2.0,-3.0,191,156,146,170,165
2025-02-26 14:50:52.036,-187.0,-1024.0,37.0,2.0,2.0,-2.0,191,153,143,170,163
2025-02-26 14:50:52.044,-189.0,-1014.0,38.0,2.0,1.0,-2.0,190,152,141,168,161
2025-02-26 14:50:52.047,-193.0,-1013.0,36.0,3.0,0.0,-2.0,194,157,147,172,167
2025-02-26 14:50:52.052,-192.0,-1007.0,37.0,3.0,0.0,-2.0,191,155,145,170,164
2025-02-26 14:50:52.056,-194.0,-1010.0,34.0,2.0,-1.0,-2.0,186,149,139,165,160
2025-02-26 14:50:52.064,-185.0,-1011.0,38.0,2.0,-3.0,-2.0,188,151,140,167,161
2025-02-26 14:50:52.067,-188.0,-1020.0,29.0,0.0,-5.0,-1.0,192,157,146,171,166
2025-02-26 14:50:52.071,-176.0,-1026.0,44.0,-1.0,-6.0,-1.0,189,153,142,168,163
2025-02-26 14:50:52.077,-175.0,-1024.0,47.0,-3.0,-7.0,-1.0,186,150,139,165,159
2025-02-26 14:50:52.084,-170.0,-1022.0,61.0,-5.0,-8.0,0.0,186,149,139,162,159
2025-02-26 14:50:52.088,-177.0,-1033.0,56.0,-7.0,-9.0,1.0,194,157,146,172,166
2025-02-26 14:50:52.093,-185.0,-1031.0,53.0,-7.0,-8.0,2.0,189,150,141,169,161
2025-02-26 14:50:52.098,-188.0,-1021.0,52.0,-8.0,-8.0,4.0,185,149,139,165,160
2025-02-26 14:50:52.102,-194.0,-1014.0,55.0,-9.0,-6.0,4.0,187,150,139,166,160
2025-02-26 14:50:52.109,-188.0,-1035.0,51.0,-10.0,-6.0,5.0,193,156,146,172,167
2025-02-26 14:50:52.114,-198.0,-1025.0,60.0,-11.0,-5.0,6.0,188,150,142,169,163
2025-02-26 14:50:52.121,-205.0,-1026.0,54.0,-12.0,-5.0,6.0,186,148,139,165,160
2025-02-26 14:50:52.126,-203.0,-1024.0,26.0,-12.0,-4.0,6.0,186,148,139,165,159
2025-02-26 14:50:52.130,-205.0,-1023.0,24.0,-10.0,-3.0,7.0,193,155,144,172,165
2025-02-26 14:50:52.134,-207.0,-1009.0,30.0,-9.0,-2.0,8.0,191,155,144,170,165
2025-02-26 14:50:52.142,-214.0,-1017.0,21.0,-8.0,-2.0,9.0,191,154,143,170,166
2025-02-26 14:50:52.146,-212.0,-1010.0,20.0,-6.0,-2.0,10.0,186,149,139,166,159
2025-02-26 14:50:52.150,-218.0,-1013.0,49.0,-3.0,-3.0,10.0,192,155,143,172,166
2025-02-26 14:50:52.154,-206.0,-1031.0,65.0,0.0,-5.0,11.0,191,154,144,171,165
2025-02-26 14:50:52.162,-196.0,-1033.0,75.0,0.0,-6.0,10.0,192,154,144,172,166
2025-02-26 14:50:52.167,-197.0,-1011.0,72.0,2.0,-7.0,11.0,187,150,137,165,161
2025-02-26 14:50:52.170,-197.0,-1005.0,78.0,4.0,-8.0,11.0,192,154,144,172,167
2025-02-26 14:50:52.175,-191.0,-1009.0,92.0,4.0,-7.0,11.0,189,152,143,171,165
2025-02-26 14:50:52.183,-184.0,-1017.0,104.0,4.0,-6.0,11.0,191,154,144,170,164
2025-02-26 14:50:52.186,-188.0,-1020.0,125.0,3.0,-4.0,11.0,187,150,139,167,161
2025-02-26 14:50:52.191,-200.0,-1020.0,117.0,1.0,0.0,10.0,190,154,142,172,168
2025-02-26 14:50:52.195,-208.0,-1022.0,107.0,1.0,5.0,10.0,191,154,142,170,165
2025-02-26 14:50:52.203,-216.0,-1028.0,88.0,-1.0,7.0,10.0,189,151,141,169,163
2025-02-26 14:50:52.207,-216.0,-1023.0,68.0,-2.0,11.0,11.0,186,148,138,165,160
2025-02-26 14:50:52.210,-220.0,-1014.0,46.0,-2.0,13.0,13.0,192,155,145,172,166
2025-02-26 14:50:52.220,-225.0,-1020.0,51.0,-2.0,14.0,15.0,191,154,143,171,165
2025-02-26 14:50:52.222,-223.0,-1026.0,43.0,-2.0,14.0,16.0,190,150,139,166,162
2025-02-26 14:50:52.228,-222.0,-1042.0,53.0,-3.0,14.0,17.0,188,149,139,167,161
2025-02-26 14:50:52.232,-223.0,-1050.0,60.0,-3.0,12.0,17.0,192,153,143,172,164
2025-02-26 14:50:52.240,-215.0,-1049.0,67.0,-3.0,11.0,18.0,191,153,142,172,166
2025-02-26 14:50:52.241,-214.0,-1040.0,63.0,-3.0,10.0,18.0,191,155,146,171,167
2025-02-26 14:50:52.249,-213.0,-1034.0,69.0,-3.0,10.0,19.0,185,149,138,167,161
2025-02-26 14:50:52.253,-209.0,-1027.0,69.0,-4.0,8.0,19.0,189,151,140,168,162
2025-02-26 14:50:52.260,-200.0,-1034.0,73.0,-6.0,7.0,19.0,192,155,143,172,167
2025-02-26 14:50:52.265,-189.0,-1026.0,58.0,-7.0,7.0,20.0,192,156,143,172,165
2025-02-26 14:50:52.269,-184.0,-1018.0,76.0,-9.0,7.0,20.0,184,147,137,165,160
2025-02-26 14:50:52.277,-180.0,-1012.0,66.0,-9.0,8.0,21.0,190,155,144,170,165
2025-02-26 14:50:52.281,-185.0,-1003.0,83.0,-11.0,11.0,21.0,196,158,149,175,171
2025-02-26 14:50:52.285,-193.0,-1013.0,64.0,-12.0,12.0,22.0,191,154,142,169,165
2025-02-26 14:50:52.289,-200.0,-1012.0,32.0,-14.0,12.0,22.0,187,149,138,166,159
2025-02-26 14:50:52.297,-210.0,-1000.0,41.0,-16.0,13.0,22.0,184,149,136,164,158
2025-02-26 14:50:52.301,-200.0,-1003.0,36.0,-18.0,13.0,22.0,197,160,149,175,171
2025-02-26 14:50:52.306,-208.0,-1008.0,37.0,-17.0,14.0,22.0,193,157,145,175,167
2025-02-26 14:50:52.313,-213.0,-1007.0,20.0,-17.0,14.0,22.0,190,154,142,170,164
2025-02-26 14:50:52.318,-211.0,-1017.0,21.0,-16.0,14.0,21.0,185,149,138,165,157
2025-02-26 14:50:52.322,-210.0,-1016.0,20.0,-14.0,14.0,20.0,186,150,137,166,161
2025-02-26 14:50:52.326,-203.0,-1015.0,22.0,-13.0,13.0,18.0,194,157,145,173,168
2025-02-26 14:50:52.335,-204.0,-1005.0,29.0,-12.0,10.0,16.0,190,154,143,170,165
2025-02-26 14:50:52.338,-207.0,-1003.0,20.0,-11.0,8.0,15.0,190,154,141,169,164
2025-02-26 14:50:52.342,-209.0,-1000.0,24.0,-9.0,7.0,14.0,189,149,138,167,160
2025-02-26 14:50:52.350,-214.0,-992.0,17.0,-7.0,8.0,14.0,192,157,145,174,167
2025-02-26 14:50:52.355,-227.0,-981.0,20.0,-7.0,8.0,13.0,190,156,148,171,164
2025-02-26 14:50:52.358,-240.0,-979.0,16.0,-7.0,8.0,13.0,186,150,139,166,160
2025-02-26 14:50:52.363,-242.0,-974.0,23.0,-6.0,9.0,13.0,188,152,140,167,161
2025-02-26 14:50:52.371,-255.0,-968.0,24.0,-5.0,10.0,12.0,194,157,147,173,166
2025-02-26 14:50:52.375,-266.0,-955.0,16.0,-4.0,11.0,11.0,189,153,144,170,164
2025-02-26 14:50:52.380,-267.0,-962.0,-7.0,-1.0,11.0,10.0,186,151,138,165,160
2025-02-26 14:50:52.384,-276.0,-962.0,4.0,1.0,10.0,9.0,186,150,138,165,160
2025-02-26 14:50:52.388,-281.0,-951.0,-8.0,5.0,9.0,9.0,193,157,146,173,167
2025-02-26 14:50:52.395,-298.0,-960.0,-6.0,6.0,7.0,8.0,186,151,139,165,160
2025-02-26 14:50:52.399,-283.0,-946.0,1.0,6.0,6.0,8.0,186,152,139,166,160
2025-02-26 14:50:52.404,-282.0,-936.0,-28.0,9.0,4.0,7.0,194,158,146,172,167
2025-02-26 14:50:52.408,-302.0,-959.0,-10.0,10.0,3.0,7.0,187,153,140,166,161
2025-02-26 14:50:52.412,-297.0,-940.0,13.0,10.0,3.0,7.0,186,152,140,167,161
2025-02-26 14:50:52.420,-284.0,-935.0,-16.0,11.0,3.0,6.0,192,156,144,172,165
2025-02-26 14:50:52.424,-289.0,-937.0,-7.0,11.0,1.0,5.0,187,148,141,168,165
2025-02-26 14:50:52.428,-295.0,-925.0,24.0,11.0,3.0,4.0,186,149,139,164,159
2025-02-26 14:50:52.432,-282.0,-916.0,-12.0,11.0,3.0,4.0,190,156,143,169,164
2025-02-26 14:50:52.440,-288.0,-911.0,-26.0,11.0,3.0,4.0,190,156,143,171,164
2025-02-26 14:50:52.445,-286.0,-919.0,11.0,8.0,3.0,5.0,186,150,139,165,160
2025-02-26 14:50:52.449,-293.0,-919.0,-16.0,5.0,0.0,5.0,192,158,146,174,166
2025-02-26 14:50:52.453,-309.0,-934.0,-12.0,3.0,-1.0,5.0,190,158,142,168,159
2025-02-26 14:50:52.457,-304.0,-955.0,-1.0,1.0,-2.0,6.0,185,150,138,165,159
2025-02-26 14:50:52.465,-296.0,-960.0,-5.0,0.0,-3.0,6.0,193,159,146,174,167
2025-02-26 14:50:52.470,-296.0,-982.0,24.0,-1.0,-3.0,6.0,193,157,146,171,165
2025-02-26 14:50:52.473,-288.0,-993.0,52.0,0.0,-3.0,5.0,185,148,138,166,159
2025-02-26 14:50:52.477,-290.0,-997.0,31.0,4.0,-2.0,5.0,192,155,143,171,164
2025-02-26 14:50:52.485,-303.0,-1005.0,2.0,5.0,-4.0,5.0,190,158,146,174,166
2025-02-26 14:50:52.490,-285.0,-1009.0,51.0,6.0,-2.0,4.0,187,152,141,167,161
2025-02-26 14:50:52.494,-284.0,-1007.0,35.0,9.0,-2.0,4.0,180,147,136,163,157
2025-02-26 14:50:52.498,-293.0,-1017.0,33.0,10.0,-4.0,4.0,192,156,144,171,166
2025-02-26 14:50:52.502,-263.0,-1020.0,61.0,10.0,-3.0,2.0,191,155,143,170,165
2025-02-26 14:50:52.509,-260.0,-1020.0,50.0,11.0,-1.0,2.0,187,151,138,166,161
2025-02-26 14:50:52.515,-266.0,-1017.0,69.0,12.0,0.0,2.0,191,154,143,170,163
2025-02-26 14:50:52.519,-245.0,-1001.0,59.0,16.0,3.0,1.0,193,157,145,172,166
2025-02-26 14:50:52.523,-246.0,-1000.0,34.0,16.0,4.0,2.0,188,151,139,168,161
2025-02-26 14:50:52.530,-245.0,-1000.0,10.0,15.0,2.0,4.0,186,150,138,165,159
2025-02-26 14:50:52.535,-232.0,-1000.0,36.0,16.0,-1.0,6.0,192,156,143,171,165
2025-02-26 14:50:52.539,-240.0,-999.0,49.0,13.0,-2.0,9.0,191,154,140,171,165
2025-02-26 14:50:52.544,-230.0,-992.0,54.0,13.0,-2.0,11.0,188,151,139,167,160
2025-02-26 14:50:52.551,-234.0,-1000.0,95.0,15.0,3.0,12.0,186,151,136,166,159
2025-02-26 14:50:52.555,-234.0,-1013.0,95.0,21.0,8.0,15.0,191,156,142,172,166
2025-02-26 14:50:52.557,-251.0,-1022.0,41.0,22.0,10.0,16.0,197,161,146,175,169
2025-02-26 14:50:52.564,-250.0,-1042.0,10.0,20.0,10.0,17.0,187,151,135,166,160
2025-02-26 14:50:52.570,-270.0,-1046.0,54.0,15.0,10.0,17.0,187,150,134,165,158
2025-02-26 14:50:52.575,-269.0,-1053.0,37.0,8.0,8.0,18.0,191,156,140,171,164
2025-02-26 14:50:52.581,-250.0,-1067.0,61.0,6.0,9.0,19.0,194,158,141,173,167
2025-02-26 14:50:52.585,-255.0,-1039.0,32.0,4.0,9.0,20.0,186,149,135,164,158
2025-02-26 14:50:52.593,-248.0,-1044.0,100.0,6.0,16.0,21.0,191,155,139,172,165
2025-02-26 14:50:52.597,-232.0,-1022.0,64.0,4.0,20.0,22.0,191,154,137,171,162
2025-02-26 14:50:52.599,-239.0,-1018.0,39.0,1.0,18.0,24.0,192,155,138,171,165
2025-02-26 14:50:52.609,-243.0,-1010.0,-22.0,-9.0,14.0,26.0,186,148,130,164,159
2025-02-26 14:50:52.613,-288.0,-986.0,-25.0,-19.0,4.0,26.0,190,152,135,166,161
2025-02-26 14:50:52.617,-315.0,-1002.0,-5.0,-26.0,-6.0,29.0,193,152,134,169,163
2025-02-26 14:50:52.622,-303.0,-999.0,36.0,-25.0,-12.0,30.0,191,151,134,168,162
2025-02-26 14:50:52.629,-306.0,-1000.0,101.0,-18.0,-12.0,31.0,188,146,129,163,159
2025-02-26 14:50:52.634,-308.0,-1012.0,141.0,-9.0,-9.0,32.0,184,146,125,157,156
2025-02-26 14:50:52.637,-303.0,-991.0,104.0,4.0,-6.0,32.0,190,148,130,165,160
2025-02-26 14:50:52.645,-347.0,-981.0,61.0,4.0,-7.0,32.0,197,152,134,165,163
2025-02-26 14:50:52.649,-351.0,-980.0,54.0,5.0,-10.0,32.0,190,148,129,166,162
2025-02-26 14:50:52.654,-363.0,-994.0,36.0,-2.0,-13.0,30.0,186,142,123,159,155
2025-02-26 14:50:52.658,-358.0,-983.0,42.0,-11.0,-16.0,29.0,191,149,132,166,164
2025-02-26 14:50:52.665,-354.0,-980.0,71.0,-12.0,-18.0,28.0,194,153,131,168,164
2025-02-26 14:50:52.670,-347.0,-990.0,118.0,-14.0,-13.0,26.0,189,147,127,164,160
2025-02-26 14:50:52.673,-332.0,-992.0,126.0,-14.0,-8.0,25.0,185,143,123,159,157
2025-02-26 14:50:52.683,-327.0,-982.0,99.0,-12.0,-3.0,24.0,192,149,130,165,161
2025-02-26 14:50:52.686,-343.0,-995.0,103.0,-13.0,3.0,24.0,192,150,131,166,164
2025-02-26 14:50:52.691,-358.0,-993.0,90.0,-17.0,6.0,23.0,191,149,131,165,162
2025-02-26 14:50:52.695,-351.0,-998.0,75.0,-18.0,8.0,22.0,189,148,128,163,160
2025-02-26 14:50:52.703,-348.0,-984.0,82.0,-20.0,9.0,21.0,188,146,127,162,159
2025-02-26 14:50:52.707,-344.0,-993.0,89.0,-20.0,12.0,21.0,192,150,130,166,162
2025-02-26 14:50:52.710,-355.0,-989.0,84.0,-17.0,15.0,21.0,190,149,129,164,161
2025-02-26 14:50:52.716,-366.0,-984.0,84.0,-16.0,15.0,22.0,190,148,127,163,161
2025-02-26 14:50:52.721,-372.0,-986.0,59.0,-16.0,14.0,22.0,186,145,125,160,158
2025-02-26 14:50:52.728,-372.0,-985.0,77.0,-14.0,10.0,23.0,190,148,128,164,161
2025-02-26 14:50:52.732,-381.0,-971.0,86.0,-14.0,10.0,24.0,192,149,128,164,162
2025-02-26 14:50:52.740,-392.0,-976.0,83.0,-13.0,10.0,25.0,189,147,126,162,159
2025-02-26 14:50:52.743,-385.0,-974.0,86.0,-12.0,10.0,27.0,186,149,126,161,161
2025-02-26 14:50:52.748,-386.0,-969.0,95.0,-13.0,10.0,27.0,184,143,122,158,156
2025-02-26 14:50:52.752,-381.0,-958.0,78.0,-17.0,11.0,28.0,191,147,128,164,163
2025-02-26 14:50:52.760,-381.0,-961.0,51.0,-25.0,11.0,28.0,192,152,128,163,162
2025-02-26 14:50:52.764,-361.0,-958.0,63.0,-28.0,12.0,29.0,192,147,126,157,158
2025-02-26 14:50:52.768,-363.0,-963.0,83.0,-35.0,14.0,30.0,187,145,124,158,157
2025-02-26 14:50:52.773,-363.0,-962.0,65.0,-40.0,18.0,30.0,191,151,129,163,161
2025-02-26 14:50:52.781,-354.0,-972.0,77.0,-42.0,22.0,30.0,191,152,128,165,162
2025-02-26 14:50:52.785,-362.0,-944.0,60.0,-42.0,26.0,30.0,189,149,128,163,161
2025-02-26 14:50:52.788,-356.0,-944.0,47.0,-41.0,26.0,29.0,184,144,123,156,154
2025-02-26 14:50:52.797,-366.0,-950.0,54.0,-40.0,27.0,29.0,190,149,127,161,158
2025-02-26 14:50:52.800,-363.0,-946.0,32.0,-37.0,27.0,29.0,197,158,136,169,168
2025-02-26 14:50:52.805,-382.0,-955.0,-8.0,-39.0,26.0,28.0,190,150,128,162,160
2025-02-26 14:50:52.810,-366.0,-940.0,4.0,-41.0,25.0,27.0,185,147,123,155,156
2025-02-26 14:50:52.817,-372.0,-936.0,11.0,-38.0,24.0,26.0,183,143,121,156,153
2025-02-26 14:50:52.822,-375.0,-953.0,11.0,-32.0,21.0,26.0,195,155,132,166,164
2025-02-26 14:50:52.823,-387.0,-950.0,20.0,-24.0,18.0,24.0,190,151,127,162,159
2025-02-26 14:50:52.834,-386.0,-968.0,58.0,-19.0,22.0,23.0,185,145,122,155,154
2025-02-26 14:50:52.838,-394.0,-933.0,-81.0,-18.0,19.0,22.0,184,145,121,154,153
2025-02-26 14:50:52.843,-397.0,-945.0,-37.0,-15.0,19.0,22.0,194,154,131,164,160
2025-02-26 14:50:52.846,-393.0,-961.0,-17.0,-13.0,22.0,23.0,192,152,129,163,161
2025-02-26 14:50:52.854,-401.0,-950.0,-63.0,-14.0,24.0,23.0,188,149,124,158,156
2025-02-26 14:50:52.858,-407.0,-952.0,-72.0,-15.0,23.0,23.0,185,145,121,154,153
2025-02-26 14:50:52.860,-401.0,-955.0,-112.0,-18.0,22.0,24.0,187,146,121,153,153
2025-02-26 14:50:52.870,-422.0,-963.0,-79.0,-20.0,20.0,25.0,193,153,128,161,160
2025-02-26 14:50:52.873,-404.0,-976.0,-85.0,-17.0,23.0,28.0,191,150,128,160,158
2025-02-26 14:50:52.879,-409.0,-964.0,-133.0,-16.0,23.0,31.0,191,151,127,159,159
2025-02-26 14:50:52.885,-420.0,-974.0,-133.0,-17.0,24.0,34.0,185,146,122,156,155
2025-02-26 14:50:52.892,-428.0,-970.0,-128.0,-19.0,24.0,37.0,187,146,121,154,153
2025-02-26 14:50:52.896,-432.0,-965.0,-140.0,-24.0,24.0,39.0,190,149,126,158,156
2025-02-26 14:50:52.899,-435.0,-942.0,-151.0,-28.0,22.0,41.0,194,155,133,164,163
2025-02-26 14:50:52.908,-428.0,-940.0,-134.0,-31.0,20.0,43.0,192,153,131,162,161
2025-02-26 14:50:52.912,-429.0,-921.0,-113.0,-34.0,20.0,45.0,190,149,127,157,157
2025-02-26 14:50:52.916,-432.0,-892.0,-120.0,-35.0,20.0,45.0,183,146,121,154,153
2025-02-26 14:50:52.924,-446.0,-893.0,-99.0,-34.0,18.0,44.0,187,148,125,156,154
2025-02-26 14:50:52.927,-452.0,-903.0,-105.0,-33.0,17.0,42.0,191,154,130,160,159
2025-02-26 14:50:52.933,-458.0,-884.0,-99.0,-31.0,15.0,40.0,190,150,127,157,158
2025-02-26 14:50:52.940,-478.0,-869.0,-124.0,-27.0,9.0,37.0,188,149,126,157,156
2025-02-26 14:50:52.944,-481.0,-876.0,-85.0,-24.0,8.0,34.0,189,149,124,157,155
2025-02-26 14:50:52.949,-480.0,-881.0,-125.0,-23.0,6.0,33.0,180,140,116,147,148
2025-02-26 14:50:52.957,-484.0,-886.0,178.0,-33.0,19.0,31.0,185,145,120,153,151
2025-02-26 14:50:52.961,-462.0,-873.0,-204.0,-28.0,18.0,35.0,190,150,126,158,157
2025-02-26 14:50:52.964,-500.0,-841.0,-296.0,-31.0,8.0,35.0,183,142,120,151,149
2025-02-26 14:50:52.970,-499.0,-852.0,-134.0,-33.0,9.0,37.0,179,140,114,147,144
2025-02-26 14:50:52.976,-514.0,-831.0,-141.0,-43.0,17.0,38.0,179,137,115,144,144
2025-02-26 14:50:52.982,-491.0,-814.0,-181.0,-45.0,18.0,38.0,188,148,124,153,153
2025-02-26 14:50:52.986,-509.0,-803.0,-169.0,-45.0,19.0,38.0,184,146,122,151,152
2025-02-26 14:50:52.994,-519.0,-815.0,-137.0,-43.0,18.0,37.0,183,142,119,147,149
2025-02-26 14:50:52.998,-528.0,-771.0,-149.0,-43.0,15.0,36.0,180,141,114,145,146
2025-02-26 14:50:53.003,-533.0,-787.0,-150.0,-41.0,13.0,34.0,179,140,114,143,144
2025-02-26 14:50:53.010,-551.0,-789.0,-152.0,-36.0,9.0,34.0,178,138,114,141,143
2025-02-26 14:50:53.015,-549.0,-795.0,-142.0,-35.0,7.0,33.0,182,144,117,147,148
2025-02-26 14:50:53.018,-537.0,-798.0,-160.0,-33.0,7.0,32.0,184,143,117,144,149
2025-02-26 14:50:53.026,-540.0,-776.0,-134.0,-32.0,13.0,33.0,182,142,116,144,148
2025-02-26 14:50:53.031,-541.0,-753.0,-140.0,-31.0,16.0,35.0,179,135,111,136,142
2025-02-26 14:50:53.035,-551.0,-777.0,-120.0,-33.0,23.0,39.0,178,134,110,135,141
2025-02-26 14:50:53.043,-553.0,-767.0,-118.0,-33.0,35.0,41.0,187,143,122,144,152
2025-02-26 14:50:53.047,-558.0,-747.0,-126.0,-35.0,41.0,44.0,183,140,116,137,145
2025-02-26 14:50:53.051,-523.0,-724.0,-120.0,-36.0,40.0,45.0,182,134,114,134,143
2025-02-26 14:50:53.056,-541.0,-719.0,-131.0,-33.0,37.0,46.0,179,130,109,130,138
2025-02-26 14:50:53.063,-538.0,-735.0,-126.0,-28.0,36.0,47.0,177,126,107,126,135
2025-02-26 14:50:53.068,-520.0,-704.0,-133.0,-22.0,35.0,47.0,174,123,105,122,132
2025-02-26 14:50:53.072,-505.0,-665.0,-131.0,-11.0,35.0,48.0,179,126,108,125,134
2025-02-26 14:50:53.080,-524.0,-664.0,-180.0,-4.0,35.0,51.0,181,126,109,122,134
2025-02-26 14:50:53.084,-537.0,-643.0,-158.0,-1.0,39.0,51.0,180,121,106,120,130
2025-02-26 14:50:53.089,-582.0,-661.0,-151.0,7.0,41.0,52.0,175,115,104,116,127
2025-02-26 14:50:53.096,-595.0,-623.0,-129.0,13.0,52.0,52.0,173,111,101,113,123
2025-02-26 14:50:53.100,-610.0,-640.0,-127.0,24.0,55.0,51.0,180,116,107,119,130
2025-02-26 14:50:53.105,-618.0,-583.0,-163.0,35.0,45.0,48.0,181,111,106,116,127
2025-02-26 14:50:53.109,-647.0,-596.0,-172.0,41.0,37.0,45.0,178,110,101,111,122
2025-02-26 14:50:53.116,-662.0,-572.0,-218.0,51.0,33.0,45.0,174,100,98,107,116
2025-02-26 14:50:53.120,-703.0,-570.0,-200.0,57.0,31.0,44.0,177,100,100,108,116
2025-02-26 14:50:53.125,-761.0,-511.0,-251.0,66.0,27.0,43.0,195,121,119,127,136
2025-02-26 14:50:53.133,-768.0,-464.0,-205.0,59.0,25.0,40.0,194,115,115,123,131
2025-02-26 14:50:53.138,-703.0,-375.0,-210.0,65.0,20.0,38.0,202,122,124,130,138
2025-02-26 14:50:53.141,-668.0,-280.0,-262.0,64.0,13.0,35.0,220,143,144,149,157
2025-02-26 14:50:53.149,-667.0,-249.0,-155.0,79.0,5.0,30.0,208,129,129,133,142
2025-02-26 14:50:53.154,-708.0,-54.0,-181.0,86.0,-8.0,22.0,196,112,113,116,125
2025-02-26 14:50:53.157,-834.0,114.0,433.0,72.0,47.0,10.0,174,92,93,97,106
2025-02-26 14:50:53.162,-841.0,240.0,135.0,40.0,61.0,5.0,175,91,92,98,103
2025-02-26 14:50:53.166,-711.0,348.0,72.0,29.0,76.0,-1.0,175,91,91,94,101
2025-02-26 14:50:53.174,-660.0,687.0,-15.0,35.0,76.0,-20.0,178,88,90,93,97
2025-02-26 14:50:53.175,-674.0,737.0,-193.0,31.0,73.0,-47.0,168,84,85,87,90
2025-02-26 14:50:53.182,-758.0,766.0,-156.0,25.0,85.0,-64.0,173,91,90,93,95
2025-02-26 14:50:53.186,-710.0,926.0,-77.0,2.0,109.0,-100.0,172,88,90,92,94
2025-02-26 14:50:53.191,-655.0,1013.0,14.0,1.0,131.0,-129.0,164,82,83,85,87
2025-02-26 14:50:53.199,-375.0,954.0,-467.0,32.0,122.0,-135.0,164,83,83,87,85
2025-02-26 14:50:53.203,-256.0,949.0,-687.0,131.0,64.0,-175.0,162,86,87,88,89
2025-02-26 14:50:53.206,-190.0,821.0,-1989.0,197.0,14.0,-225.0,203,135,137,140,139
2025-02-26 14:50:53.215,-553.0,1481.0,-592.0,203.0,-11.0,-276.0,224,158,161,163,164
2025-02-26 14:50:53.218,-735.0,1508.0,-1370.0,234.0,-29.0,-343.0,201,134,137,138,137
2025-02-26 14:50:53.224,-1030.0,1368.0,-1743.0,245.0,-14.0,-370.0,192,126,129,134,131
2025-02-26 14:50:53.232,-1359.0,1290.0,-1215.0,241.0,-34.0,-420.0,188,124,129,131,129
2025-02-26 14:50:53.236,-1096.0,1042.0,-1118.0,271.0,-86.0,-474.0,186,124,128,128,128
2025-02-26 14:50:53.244,-826.0,1097.0,-933.0,306.0,-170.0,-542.0,202,141,141,143,144
2025-02-26 14:50:53.249,-507.0,948.0,-735.0,331.0,-232.0,-598.0,214,154,157,158,157
2025-02-26 14:50:53.252,121.0,826.0,-262.0,323.0,-244.0,-644.0,188,130,131,132,133
2025-02-26 14:50:53.260,1139.0,615.0,-11.0,290.0,-225.0,-659.0,184,122,122,126,126
2025-02-26 14:50:53.265,1974.0,175.0,658.0,267.0,-182.0,-627.0,191,134,135,137,138
2025-02-26 14:50:53.272,2498.0,-639.0,1394.0,261.0,-140.0,-565.0,189,129,128,129,127
2025-02-26 14:50:53.277,2890.0,-1392.0,1958.0,256.0,-102.0,-498.0,211,156,157,160,160
2025-02-26 14:50:53.281,3126.0,-2188.0,2429.0,231.0,-70.0,-416.0,241,187,188,188,190
2025-02-26 14:50:53.288,3405.0,-2921.0,2683.0,184.0,-41.0,-317.0,182,126,127,128,129
2025-02-26 14:50:53.293,3444.0,-3609.0,2546.0,145.0,25.0,-225.0,187,128,130,133,133
2025-02-26 14:50:53.301,3339.0,-4273.0,2307.0,110.0,82.0,-160.0,167,108,109,112,112
2025-02-26 14:50:53.305,2851.0,-4596.0,2019.0,137.0,101.0,-117.0,168,109,113,114,115
2025-02-26 14:50:53.309,2244.0,-4604.0,1736.0,138.0,90.0,-89.0,166,106,109,111,111
2025-02-26 14:50:53.317,1724.0,-4579.0,1719.0,114.0,56.0,-25.0,183,124,126,131,130
2025-02-26 14:50:53.321,1323.0,-4469.0,1534.0,17.0,7.0,43.0,199,141,144,147,146
2025-02-26 14:50:53.326,1194.0,-4344.0,1547.0,-74.0,-27.0,104.0,201,143,146,149,147
2025-02-26 14:50:53.333,1054.0,-4123.0,1587.0,-103.0,-43.0,156.0,163,104,106,108,108
2025-02-26 14:50:53.338,1092.0,-3788.0,1613.0,-132.0,-48.0,196.0,184,124,128,130,130
2025-02-26 14:50:53.346,1020.0,-3335.0,1395.0,-144.0,-24.0,231.0,186,134,136,134,139
2025-02-26 14:50:53.350,994.0,-2793.0,1395.0,-141.0,10.0,254.0,195,136,138,140,140
2025-02-26 14:50:53.354,928.0,-2337.0,1237.0,-155.0,27.0,271.0,243,190,192,193,195
2025-02-26 14:50:53.362,755.0,-1904.0,1052.0,-174.0,42.0,282.0,175,115,118,119,119
2025-02-26 14:50:53.367,662.0,-1763.0,820.0,-184.0,36.0,284.0,171,110,110,113,114
2025-02-26 14:50:53.371,573.0,-1425.0,643.0,-234.0,30.0,288.0,194,134,138,140,139
2025-02-26 14:50:53.379,468.0,-1155.0,547.0,-260.0,35.0,296.0,244,190,190,192,193
2025-02-26 14:50:53.383,350.0,-915.0,508.0,-252.0,31.0,295.0,228,172,174,174,175
2025-02-26 14:50:53.387,271.0,-689.0,344.0,-239.0,38.0,290.0,218,162,164,166,166
2025-02-26 14:50:53.395,219.0,-530.0,232.0,-211.0,37.0,278.0,216,158,159,161,162
2025-02-26 14:50:53.399,150.0,-502.0,109.0,-191.0,26.0,273.0,204,145,148,151,151
2025-02-26 14:50:53.405,97.0,-401.0,34.0,-171.0,21.0,262.0,198,136,141,142,142
2025-02-26 14:50:53.411,-9.0,-393.0,-13.0,-165.0,-4.0,250.0,163,101,102,106,107
2025-02-26 14:50:53.416,-45.0,-422.0,-88.0,-168.0,-14.0,243.0,161,98,100,105,104
2025-02-26 14:50:53.421,-37.0,-445.0,-73.0,-172.0,-19.0,239.0,162,100,102,105,104
2025-02-26 14:50:53.422,-8.0,-444.0,-55.0,-167.0,-23.0,240.0,158,97,99,102,101
2025-02-26 14:50:53.428,27.0,-422.0,-25.0,-160.0,-14.0,243.0,161,100,103,105,106
2025-02-26 14:50:53.437,36.0,-436.0,14.0,-135.0,-17.0,246.0,181,122,122,123,125
2025-02-26 14:50:53.440,3.0,-415.0,11.0,-130.0,-7.0,249.0,178,118,121,122,124
2025-02-26 14:50:53.448,42.0,-384.0,21.0,-107.0,-6.0,249.0,183,123,126,127,128
2025-02-26 14:50:53.452,-47.0,-350.0,-10.0,-90.0,2.0,249.0,214,155,159,160,160
2025-02-26 14:50:53.457,-82.0,-264.0,-4.0,-84.0,10.0,246.0,214,153,156,158,160
2025-02-26 14:50:53.461,-163.0,-180.0,-54.0,-85.0,19.0,245.0,202,145,147,148,149
2025-02-26 14:50:53.469,-241.0,-123.0,-121.0,-90.0,22.0,242.0,193,134,134,137,137
2025-02-26 14:50:53.473,-314.0,-77.0,-172.0,-95.0,18.0,233.0,219,165,164,168,166
2025-02-26 14:50:53.478,-387.0,-8.0,-178.0,-100.0,14.0,226.0,187,129,130,132,133
2025-02-26 14:50:53.485,-460.0,30.0,-223.0,-91.0,16.0,214.0,197,137,137,142,142
2025-02-26 14:50:53.489,-504.0,139.0,-234.0,-71.0,9.0,199.0,201,139,142,144,147
2025-02-26 14:50:53.494,-539.0,177.0,-238.0,-61.0,3.0,181.0,218,158,161,164,164
2025-02-26 14:50:53.502,-581.0,229.0,-229.0,-51.0,1.0,164.0,224,165,166,166,170
2025-02-26 14:50:53.506,-623.0,263.0,-231.0,-52.0,-2.0,155.0,191,131,133,131,136
2025-02-26 14:50:53.510,-613.0,265.0,-229.0,-51.0,-1.0,138.0,191,131,131,135,135
2025-02-26 14:50:53.518,-642.0,220.0,-245.0,-53.0,3.0,123.0,188,126,126,128,129
2025-02-26 14:50:53.521,-651.0,197.0,-283.0,-56.0,5.0,107.0,185,123,125,125,127
2025-02-26 14:50:53.527,-637.0,188.0,-266.0,-60.0,7.0,95.0,177,115,117,117,122
2025-02-26 14:50:53.530,-637.0,183.0,-298.0,-57.0,10.0,89.0,172,112,114,115,117
2025-02-26 14:50:53.538,-657.0,198.0,-309.0,-57.0,11.0,76.0,196,136,137,137,140
2025-02-26 14:50:53.543,-667.0,235.0,-318.0,-57.0,15.0,63.0,201,141,144,144,145
2025-02-26 14:50:53.546,-668.0,252.0,-336.0,-52.0,17.0,48.0,191,129,132,135,135
2025-02-26 14:50:53.554,-691.0,316.0,-379.0,-47.0,18.0,32.0,181,120,121,125,124
2025-02-26 14:50:53.558,-745.0,403.0,-430.0,-43.0,15.0,23.0,179,119,119,122,123
2025-02-26 14:50:53.564,-745.0,455.0,-472.0,-43.0,7.0,3.0,190,128,129,133,134
2025-02-26 14:50:53.571,-753.0,598.0,-486.0,-36.0,-2.0,-16.0,189,126,126,131,133
2025-02-26 14:50:53.575,-750.0,710.0,-524.0,-33.0,-11.0,-37.0,185,122,123,125,127
2025-02-26 14:50:53.580,-761.0,824.0,-597.0,-22.0,-16.0,-58.0,186,125,126,126,131
2025-02-26 14:50:53.588,-811.0,880.0,-610.0,-6.0,-24.0,-78.0,180,117,118,122,123
2025-02-26 14:50:53.591,-875.0,916.0,-643.0,14.0,-37.0,-89.0,182,120,119,123,122
2025-02-26 14:50:53.595,-933.0,977.0,-671.0,30.0,-50.0,-112.0,184,125,125,129,129
2025-02-26 14:50:53.604,-995.0,1047.0,-685.0,49.0,-61.0,-141.0,190,128,128,132,134
2025-02-26 14:50:53.606,-998.0,1115.0,-651.0,61.0,-62.0,-175.0,185,123,123,127,129
2025-02-26 14:50:53.612,-989.0,1210.0,-589.0,85.0,-57.0,-219.0,182,122,121,125,126
2025-02-26 14:50:53.620,-891.0,1303.0,-509.0,113.0,-53.0,-274.0,178,116,116,120,120
2025-02-26 14:50:53.625,-803.0,1345.0,-433.0,142.0,-43.0,-333.0,179,114,116,122,123
2025-02-26 14:50:53.629,-640.0,1299.0,-330.0,172.0,-33.0,-396.0,177,113,114,119,120
2025-02-26 14:50:53.636,-474.0,1254.0,-249.0,208.0,-29.0,-427.0,175,111,111,117,117
2025-02-26 14:50:53.641,-282.0,1094.0,-141.0,249.0,-34.0,-484.0,186,125,125,130,130
2025-02-26 14:50:53.645,-47.0,855.0,7.0,279.0,-41.0,-527.0,186,124,125,129,131
2025-02-26 14:50:53.653,351.0,408.0,117.0,294.0,-33.0,-542.0,183,122,120,127,127
2025-02-26 14:50:53.657,856.0,-278.0,432.0,293.0,-8.0,-523.0,181,117,118,122,126
2025-02-26 14:50:53.659,1264.0,-989.0,794.0,288.0,13.0,-463.0,178,117,118,122,124
2025-02-26 14:50:53.669,1535.0,-1728.0,1268.0,296.0,59.0,-381.0,176,114,116,119,121
2025-02-26 14:50:53.672,1930.0,-2348.0,1405.0,307.0,95.0,-340.0,174,113,114,120,120
2025-02-26 14:50:53.681,1836.0,-2667.0,1406.0,304.0,119.0,-267.0,176,116,115,121,125
2025-02-26 14:50:53.684,1712.0,-3355.0,1432.0,297.0,113.0,-226.0,183,124,125,130,130
2025-02-26 14:50:53.691,1614.0,-3940.0,1544.0,326.0,72.0,-209.0,180,122,123,125,130
2025-02-26 14:50:53.699,1583.0,-4494.0,1591.0,322.0,12.0,-186.0,179,122,124,127,129
2025-02-26 14:50:53.703,1559.0,-4949.0,1655.0,272.0,-15.0,-121.0,182,123,125,131,132
2025-02-26 14:50:53.710,1457.0,-5147.0,1717.0,189.0,-18.0,-26.0,181,123,124,127,129
2025-02-26 14:50:53.714,1291.0,-5022.0,1795.0,147.0,-37.0,62.0,176,112,121,125,126
2025-02-26 14:50:53.719,1051.0,-4592.0,1757.0,67.0,-58.0,129.0,178,120,123,124,127
2025-02-26 14:50:53.726,946.0,-3837.0,1598.0,-13.0,-57.0,166.0,177,115,117,121,123
2025-02-26 14:50:53.732,855.0,-3093.0,1413.0,-88.0,-55.0,178.0,170,111,115,120,121
2025-02-26 14:50:53.734,735.0,-2471.0,1219.0,-154.0,-56.0,178.0,171,110,115,120,122
2025-02-26 14:50:53.743,606.0,-2210.0,987.0,-200.0,-45.0,174.0,177,116,119,123,125
2025-02-26 14:50:53.748,484.0,-1850.0,829.0,-231.0,-43.0,167.0,183,123,124,129,131
2025-02-26 14:50:53.752,452.0,-1640.0,711.0,-227.0,-28.0,160.0,180,121,123,126,129
2025-02-26 14:50:53.760,449.0,-1467.0,568.0,-218.0,-16.0,156.0,184,126,125,129,133
2025-02-26 14:50:53.764,343.0,-1396.0,416.0,-207.0,-3.0,156.0,229,172,173,176,180
2025-02-26 14:50:53.769,259.0,-1339.0,253.0,-190.0,-4.0,154.0,228,171,173,176,181
2025-02-26 14:50:53.776,238.0,-1296.0,60.0,-201.0,-6.0,155.0,221,164,166,170,171
2025-02-26 14:50:53.789,135.0,-1238.0,4.0,-208.0,-12.0,157.0,233,176,176,182,184
2025-02-26 14:50:53.791,68.0,-1160.0,15.0,-197.0,-13.0,163.0,214,156,159,161,165
2025-02-26 14:50:53.794,25.0,-1079.0,-10.0,-180.0,-25.0,169.0,213,156,157,160,162
2025-02-26 14:50:53.797,-14.0,-1017.0,-42.0,-162.0,-31.0,178.0,213,156,155,159,162
2025-02-26 14:50:53.800,-86.0,-898.0,-34.0,-157.0,-46.0,187.0,217,158,159,163,165
2025-02-26 14:50:53.809,-89.0,-783.0,-85.0,-154.0,-49.0,197.0,212,152,155,158,161
2025-02-26 14:50:53.811,-98.0,-709.0,-22.0,-157.0,-49.0,208.0,213,154,156,159,162
2025-02-26 14:50:53.818,-143.0,-696.0,-31.0,-155.0,-60.0,211.0,222,165,163,168,171
2025-02-26 14:50:53.825,-198.0,-644.0,-74.0,-162.0,-76.0,213.0,218,160,159,165,166
2025-02-26 14:50:53.830,-223.0,-543.0,6.0,-165.0,-80.0,208.0,215,157,158,162,164
2025-02-26 14:50:53.837,-258.0,-427.0,25.0,-147.0,-77.0,204.0,216,158,158,162,163
2025-02-26 14:50:53.842,-265.0,-262.0,26.0,-128.0,-79.0,195.0,223,166,164,169,171
2025-02-26 14:50:53.846,-304.0,-237.0,118.0,-97.0,-77.0,182.0,216,158,157,162,163
2025-02-26 14:50:53.854,-305.0,-216.0,172.0,-85.0,-75.0,172.0,216,156,157,161,162
2025-02-26 14:50:53.858,-311.0,-197.0,193.0,-89.0,-70.0,166.0,222,163,163,169,170
2025-02-26 14:50:53.862,-338.0,-183.0,167.0,-94.0,-61.0,157.0,224,162,167,173,171
2025-02-26 14:50:53.870,-353.0,-139.0,212.0,-115.0,-50.0,151.0,204,144,143,147,149
2025-02-26 14:50:53.874,-369.0,-107.0,199.0,-127.0,-35.0,146.0,199,140,137,144,145
2025-02-26 14:50:53.879,-435.0,-85.0,179.0,-134.0,-20.0,142.0,197,134,136,139,144
2025-02-26 14:50:53.887,-512.0,-76.0,130.0,-146.0,-7.0,138.0,193,130,132,135,138
2025-02-26 14:50:53.890,-549.0,-51.0,58.0,-147.0,-2.0,133.0,188,125,124,130,133
2025-02-26 14:50:53.895,-612.0,-59.0,13.0,-151.0,6.0,129.0,188,123,126,130,131
2025-02-26 14:50:53.900,-669.0,-47.0,-63.0,-146.0,12.0,122.0,203,139,139,145,147
2025-02-26 14:50:53.907,-725.0,-67.0,-118.0,-141.0,14.0,115.0,197,134,134,139,142
2025-02-26 14:50:53.912,-703.0,-77.0,-170.0,-137.0,16.0,108.0,193,129,130,130,137
2025-02-26 14:50:53.919,-746.0,-134.0,-215.0,-134.0,13.0,100.0,188,125,124,125,132
2025-02-26 14:50:53.923,-749.0,-65.0,-148.0,-129.0,12.0,92.0,190,123,125,127,131
2025-02-26 14:50:53.926,-736.0,-62.0,-150.0,-116.0,15.0,89.0,186,124,123,122,130
2025-02-26 14:50:53.933,-721.0,-186.0,-139.0,-98.0,17.0,81.0,192,130,130,127,137
2025-02-26 14:50:53.939,-710.0,-102.0,-125.0,-90.0,22.0,75.0,195,132,132,134,138
2025-02-26 14:50:53.945,-670.0,-92.0,-141.0,-82.0,22.0,69.0,195,129,128,125,134
2025-02-26 14:50:53.949,-644.0,-90.0,-135.0,-72.0,24.0,64.0,189,123,122,126,130
2025-02-26 14:50:53.957,-628.0,-47.0,-157.0,-63.0,27.0,60.0,190,123,123,126,129
2025-02-26 14:50:53.961,-653.0,-8.0,-146.0,-55.0,29.0,58.0,204,139,137,141,147
2025-02-26 14:50:53.965,-674.0,75.0,-154.0,-51.0,29.0,52.0,197,131,135,132,137
2025-02-26 14:50:53.973,-698.0,186.0,-195.0,-47.0,31.0,42.0,194,130,126,132,138
2025-02-26 14:50:53.975,-702.0,284.0,-217.0,-48.0,32.0,33.0,189,121,120,123,127
2025-02-26 14:50:53.981,-772.0,342.0,-236.0,-37.0,30.0,27.0,193,124,125,129,131
2025-02-26 14:50:53.985,-859.0,454.0,-130.0,-31.0,25.0,12.0,197,130,131,135,137
2025-02-26 14:50:53.994,-945.0,564.0,-329.0,-38.0,12.0,-10.0,197,129,132,131,136
2025-02-26 14:50:53.997,-1071.0,764.0,-282.0,-34.0,-6.0,-42.0,196,128,127,130,134
2025-02-26 14:50:54.002,-1167.0,1063.0,-264.0,-18.0,-14.0,-84.0,196,124,123,127,131
2025-02-26 14:50:54.009,-1190.0,1291.0,-220.0,-15.0,-35.0,-132.0,193,122,121,126,131
2025-02-26 14:50:54.011,-1259.0,1399.0,-93.0,11.0,-48.0,-191.0,190,118,118,122,127
2025-02-26 14:50:54.022,-1228.0,1487.0,-69.0,34.0,-53.0,-223.0,199,127,125,131,134
2025-02-26 14:50:54.026,-1069.0,1460.0,68.0,68.0,-50.0,-283.0,202,131,129,134,138
2025-02-26 14:50:54.031,-892.0,1350.0,108.0,88.0,-41.0,-330.0,201,128,129,134,135
2025-02-26 14:50:54.037,-703.0,1119.0,83.0,102.0,-31.0,-369.0,202,127,126,134,136
2025-02-26 14:50:54.042,-574.0,937.0,7.0,117.0,-26.0,-397.0,203,128,127,132,136
2025-02-26 14:50:54.047,-618.0,773.0,88.0,153.0,-21.0,-434.0,198,122,123,127,130
2025-02-26 14:50:54.055,-480.0,560.0,12.0,206.0,-4.0,-470.0,197,120,123,124,127
2025-02-26 14:50:54.059,-246.0,429.0,-203.0,248.0,14.0,-489.0,205,126,128,131,133
2025-02-26 14:50:54.064,-175.0,165.0,-224.0,288.0,21.0,-524.0,209,128,129,130,136
2025-02-26 14:50:54.071,-191.0,-68.0,-417.0,307.0,6.0,-558.0,207,127,129,132,135
2025-02-26 14:50:54.072,62.0,-134.0,-251.0,317.0,-16.0,-576.0,205,124,125,129,132
2025-02-26 14:50:54.079,418.0,-262.0,-105.0,347.0,-26.0,-581.0,206,122,124,128,132
2025-02-26 14:50:54.087,520.0,-314.0,146.0,306.0,-51.0,-572.0,202,118,121,125,128
2025-02-26 14:50:54.091,1010.0,-414.0,511.0,313.0,-77.0,-564.0,203,117,121,126,127
2025-02-26 14:50:54.096,1472.0,-473.0,492.0,328.0,-107.0,-549.0,212,128,128,132,135
2025-02-26 14:50:54.104,1970.0,-929.0,836.0,331.0,-103.0,-545.0,216,130,133,138,140
2025-02-26 14:50:54.108,2653.0,-1834.0,873.0,350.0,-76.0,-484.0,213,128,131,137,139
2025-02-26 14:50:54.112,3260.0,-3039.0,937.0,363.0,-27.0,-398.0,214,127,128,133,135
2025-02-26 14:50:54.120,3599.0,-4366.0,1274.0,335.0,47.0,-296.0,217,126,129,134,139
2025-02-26 14:50:54.125,3791.0,-5571.0,1488.0,309.0,115.0,-182.0,215,125,127,131,136
2025-02-26 14:50:54.133,3385.0,-6114.0,1341.0,268.0,138.0,-56.0,217,123,128,132,136
2025-02-26 14:50:54.137,2919.0,-5610.0,1245.0,247.0,125.0,37.0,210,118,121,125,131
2025-02-26 14:50:54.141,2637.0,-5091.0,994.0,211.0,114.0,108.0,213,121,125,127,136
2025-02-26 14:50:54.149,2130.0,-4022.0,718.0,133.0,98.0,165.0,210,119,123,121,129
2025-02-26 14:50:54.151,1562.0,-3522.0,558.0,64.0,85.0,186.0,210,118,116,121,129
2025-02-26 14:50:54.157,1233.0,-2470.0,560.0,-17.0,68.0,212.0,217,128,129,134,138
2025-02-26 14:50:54.163,1031.0,-1821.0,491.0,-79.0,40.0,216.0,221,128,132,134,138
2025-02-26 14:50:54.169,871.0,-1377.0,613.0,-106.0,22.0,213.0,215,123,125,131,133
2025-02-26 14:50:54.174,772.0,-1188.0,585.0,-153.0,9.0,207.0,211,119,120,126,130
2025-02-26 14:50:54.181,761.0,-1190.0,581.0,-180.0,5.0,202.0,216,124,128,133,136
2025-02-26 14:50:54.186,630.0,-1146.0,409.0,-196.0,1.0,200.0,210,118,121,127,130
2025-02-26 14:50:54.187,460.0,-1246.0,382.0,-196.0,-2.0,201.0,218,127,131,135,139
2025-02-26 14:50:54.197,390.0,-1267.0,390.0,-209.0,-2.0,203.0,219,127,130,135,139
2025-02-26 14:50:54.202,309.0,-1209.0,233.0,-208.0,1.0,206.0,222,133,132,139,143
2025-02-26 14:50:54.206,283.0,-1157.0,202.0,-210.0,-2.0,202.0,214,125,126,131,135
2025-02-26 14:50:54.214,283.0,-1196.0,151.0,-207.0,-7.0,203.0,209,119,120,126,129
2025-02-26 14:50:54.218,270.0,-1115.0,156.0,-198.0,-7.0,211.0,214,123,124,125,132
2025-02-26 14:50:54.222,220.0,-1070.0,166.0,-186.0,0.0,214.0,222,129,129,138,137
2025-02-26 14:50:54.231,214.0,-962.0,208.0,-191.0,3.0,217.0,219,131,131,135,139
2025-02-26 14:50:54.235,124.0,-825.0,200.0,-192.0,-2.0,220.0,217,126,127,133,136
2025-02-26 14:50:54.240,109.0,-709.0,183.0,-199.0,-7.0,220.0,219,131,131,139,141
2025-02-26 14:50:54.247,77.0,-638.0,136.0,-189.0,-14.0,220.0,211,119,123,128,130
2025-02-26 14:50:54.252,27.0,-566.0,122.0,-192.0,-20.0,221.0,209,118,120,126,127
2025-02-26 14:50:54.254,-42.0,-477.0,115.0,-176.0,-26.0,221.0,217,125,128,135,136
2025-02-26 14:50:54.263,-111.0,-488.0,128.0,-175.0,-31.0,222.0,219,130,134,138,140
2025-02-26 14:50:54.267,-159.0,-464.0,121.0,-168.0,-38.0,221.0,219,128,130,135,137
2025-02-26 14:50:54.272,-193.0,-471.0,212.0,-168.0,-43.0,215.0,217,124,124,131,131
2025-02-26 14:50:54.278,-195.0,-424.0,295.0,-158.0,-40.0,207.0,210,120,124,130,132
2025-02-26 14:50:54.284,-170.0,-393.0,365.0,-141.0,-35.0,199.0,211,121,120,128,130
2025-02-26 14:50:54.288,-183.0,-420.0,377.0,-132.0,-24.0,192.0,208,117,119,124,127
2025-02-26 14:50:54.296,-225.0,-396.0,420.0,-124.0,-7.0,192.0,207,117,118,123,125
2025-02-26 14:50:54.300,-293.0,-386.0,365.0,-109.0,14.0,191.0,223,134,136,140,143
2025-02-26 14:50:54.305,-344.0,-379.0,309.0,-102.0,33.0,190.0,214,128,129,134,137
2025-02-26 14:50:54.313,-425.0,-333.0,283.0,-99.0,46.0,189.0,213,125,127,133,135
2025-02-26 14:50:54.314,-508.0,-254.0,196.0,-97.0,58.0,187.0,216,124,124,130,133
2025-02-26 14:50:54.321,-559.0,-173.0,106.0,-90.0,62.0,181.0,212,124,123,128,131
2025-02-26 14:50:54.326,-611.0,-64.0,20.0,-86.0,68.0,177.0,211,120,122,127,130
2025-02-26 14:50:54.333,-665.0,-23.0,-30.0,-80.0,65.0,168.0,214,124,127,127,134
2025-02-26 14:50:54.338,-716.0,31.0,-64.0,-76.0,58.0,157.0,216,127,127,131,134
2025-02-26 14:50:54.346,-749.0,116.0,-100.0,-78.0,50.0,144.0,216,127,127,126,135
2025-02-26 14:50:54.350,-780.0,191.0,-142.0,-79.0,47.0,132.0,210,120,122,126,128
2025-02-26 14:50:54.354,-816.0,243.0,-179.0,-80.0,45.0,125.0,208,118,120,124,127
2025-02-26 14:50:54.358,-851.0,264.0,-209.0,-80.0,44.0,112.0,216,127,128,134,137
2025-02-26 14:50:54.366,-872.0,283.0,-210.0,-76.0,39.0,98.0,215,128,128,135,136
2025-02-26 14:50:54.371,-872.0,318.0,-237.0,-71.0,29.0,80.0,213,124,124,130,133
2025-02-26 14:50:54.375,-949.0,354.0,-252.0,-54.0,27.0,62.0,208,118,119,126,127
2025-02-26 14:50:54.383,-935.0,395.0,-252.0,-27.0,20.0,39.0,216,126,126,132,134
2025-02-26 14:50:54.387,-925.0,400.0,-235.0,-4.0,8.0,25.0,216,126,129,135,136
2025-02-26 14:50:54.391,-882.0,514.0,-234.0,24.0,-1.0,0.0,215,125,126,132,136
2025-02-26 14:50:54.395,-948.0,481.0,-242.0,31.0,2.0,-19.0,211,120,123,129,130
2025-02-26 14:50:54.403,-951.0,557.0,-270.0,47.0,2.0,-33.0,211,120,121,128,130
2025-02-26 14:50:54.407,-982.0,576.0,-262.0,70.0,-1.0,-42.0,217,126,128,134,136
2025-02-26 14:50:54.411,-1056.0,662.0,-284.0,102.0,-7.0,-61.0,214,126,126,132,135
2025-02-26 14:50:54.419,-1166.0,733.0,-298.0,138.0,-18.0,-83.0,216,128,126,132,134
2025-02-26 14:50:54.423,-1247.0,831.0,-253.0,156.0,-28.0,-105.0,214,127,133,131,133
2025-02-26 14:50:54.428,-1265.0,902.0,-303.0,198.0,-40.0,-132.0,210,122,122,128,130
2025-02-26 14:50:54.436,-1244.0,980.0,-223.0,232.0,-45.0,-163.0,208,119,120,125,127
2025-02-26 14:50:54.440,-1201.0,1076.0,-28.0,245.0,-46.0,-200.0,214,126,127,133,135
2025-02-26 14:50:54.448,-1092.0,1073.0,-254.0,250.0,-43.0,-232.0,209,120,123,124,130
2025-02-26 14:50:54.452,-994.0,1104.0,-246.0,257.0,-41.0,-248.0,207,118,117,123,127
2025-02-26 14:50:54.456,-849.0,1088.0,-235.0,259.0,-33.0,-283.0,209,122,121,126,129
2025-02-26 14:50:54.464,-635.0,1034.0,-166.0,267.0,-29.0,-322.0,217,129,130,135,141
2025-02-26 14:50:54.466,-399.0,914.0,-193.0,272.0,-29.0,-359.0,215,128,128,134,137
2025-02-26 14:50:54.472,-162.0,708.0,-99.0,286.0,-33.0,-395.0,214,125,127,132,135
2025-02-26 14:50:54.478,33.0,436.0,-64.0,292.0,-42.0,-425.0,220,130,132,139,141
2025-02-26 14:50:54.485,272.0,159.0,76.0,304.0,-53.0,-448.0,209,120,121,126,129
2025-02-26 14:50:54.490,388.0,-172.0,177.0,308.0,-59.0,-461.0,206,118,119,124,127
2025-02-26 14:50:54.497,684.0,-320.0,301.0,312.0,-72.0,-466.0,207,118,119,125,127
2025-02-26 14:50:54.501,1016.0,-637.0,518.0,302.0,-80.0,-469.0,219,131,132,139,138
2025-02-26 14:50:54.505,1471.0,-1022.0,678.0,291.0,-78.0,-459.0,216,127,130,134,139
2025-02-26 14:50:54.513,1907.0,-1614.0,1013.0,289.0,-36.0,-437.0,216,132,128,131,139
2025-02-26 14:50:54.518,2335.0,-2390.0,1213.0,278.0,-14.0,-409.0,215,125,129,131,138
2025-02-26 14:50:54.526,2454.0,-3436.0,1584.0,266.0,11.0,-349.0,215,126,126,133,138
2025-02-26 14:50:54.528,2821.0,-4590.0,1873.0,235.0,41.0,-251.0,214,123,125,131,136
2025-02-26 14:50:54.531,2908.0,-5572.0,2193.0,198.0,67.0,-134.0,209,120,120,126,132
2025-02-26 14:50:54.541,2914.0,-5939.0,2415.0,156.0,75.0,-10.0,216,124,127,133,139
2025-02-26 14:50:54.544,2762.0,-5614.0,2360.0,124.0,72.0,90.0,210,118,121,121,131
2025-02-26 14:50:54.551,2471.0,-5315.0,2054.0,78.0,63.0,128.0,207,114,115,115,127
2025-02-26 14:50:54.558,2041.0,-4425.0,1686.0,-1.0,77.0,179.0,215,125,126,129,133
2025-02-26 14:50:54.563,1500.0,-3345.0,1441.0,-78.0,89.0,208.0,209,126,129,128,138
2025-02-26 14:50:54.571,1082.0,-2355.0,1074.0,-137.0,75.0,219.0,216,125,126,129,138
2025-02-26 14:50:54.573,822.0,-1732.0,836.0,-166.0,44.0,215.0,211,121,121,125,134
2025-02-26 14:50:54.579,680.0,-1351.0,663.0,-213.0,10.0,203.0,216,128,127,132,137
2025-02-26 14:50:54.586,628.0,-1176.0,489.0,-238.0,-5.0,191.0,208,118,119,124,130
2025-02-26 14:50:54.591,508.0,-1213.0,371.0,-243.0,-26.0,187.0,208,115,119,124,129
2025-02-26 14:50:54.596,446.0,-1206.0,229.0,-232.0,-38.0,171.0,209,118,120,125,130
2025-02-26 14:50:54.603,304.0,-1199.0,364.0,-226.0,-30.0,161.0,217,131,129,135,139
2025-02-26 14:50:54.605,158.0,-1261.0,309.0,-228.0,-12.0,158.0,214,123,126,132,139
2025-02-26 14:50:54.610,83.0,-1298.0,128.0,-211.0,2.0,166.0,213,124,124,130,135
2025-02-26 14:50:54.620,31.0,-1327.0,-123.0,-214.0,5.0,176.0,211,123,123,127,133
2025-02-26 14:50:54.624,42.0,-1309.0,-126.0,-245.0,7.0,188.0,207,119,121,127,129
2025-02-26 14:50:54.629,48.0,-1285.0,-21.0,-265.0,13.0,195.0,207,117,118,121,128
2025-02-26 14:50:54.636,85.0,-1230.0,107.0,-275.0,11.0,208.0,212,124,125,131,136
2025-02-26 14:50:54.641,35.0,-1151.0,186.0,-322.0,7.0,213.0,220,132,132,137,144
2025-02-26 14:50:54.644,45.0,-1048.0,158.0,-334.0,0.0,218.0,210,122,124,134,133
2025-02-26 14:50:54.649,21.0,-901.0,458.0,-315.0,9.0,226.0,206,116,117,122,126
2025-02-26 14:50:54.654,-2.0,-805.0,191.0,-295.0,-2.0,229.0,206,116,118,124,127
2025-02-26 14:50:54.661,20.0,-756.0,180.0,-263.0,-1.0,232.0,218,128,129,135,140
2025-02-26 14:50:54.666,15.0,-611.0,167.0,-230.0,9.0,238.0,216,126,126,131,135
2025-02-26 14:50:54.671,-16.0,-500.0,186.0,-217.0,20.0,245.0,211,121,124,127,131
2025-02-26 14:50:54.678,-18.0,-381.0,155.0,-193.0,24.0,246.0,206,117,117,124,125
2025-02-26 14:50:54.682,-48.0,-315.0,165.0,-178.0,27.0,243.0,209,117,121,125,129
2025-02-26 14:50:54.689,-97.0,-280.0,125.0,-170.0,28.0,242.0,214,126,126,131,134
2025-02-26 14:50:54.694,-133.0,-261.0,137.0,-164.0,24.0,237.0,211,122,124,131,135
2025-02-26 14:50:54.698,-165.0,-261.0,145.0,-166.0,24.0,231.0,212,127,126,132,135
2025-02-26 14:50:54.706,-176.0,-252.0,123.0,-163.0,30.0,224.0,213,124,124,131,132
2025-02-26 14:50:54.708,-221.0,-167.0,128.0,-161.0,30.0,214.0,206,117,117,123,126
2025-02-26 14:50:54.714,-250.0,-108.0,128.0,-155.0,34.0,203.0,204,116,117,121,126
2025-02-26 14:50:54.722,-454.0,-124.0,11.0,-140.0,24.0,199.0,210,124,124,129,131
2025-02-26 14:50:54.725,-565.0,-110.0,71.0,-112.0,24.0,189.0,212,127,126,133,136
2025-02-26 14:50:54.730,-564.0,-100.0,108.0,-83.0,34.0,182.0,213,126,125,134,136
2025-02-26 14:50:54.739,-708.0,-8.0,-90.0,-72.0,33.0,174.0,209,123,122,129,131
2025-02-26 14:50:54.743,-736.0,71.0,-272.0,-58.0,26.0,159.0,208,123,124,131,130
2025-02-26 14:50:54.747,-777.0,119.0,-297.0,-59.0,17.0,151.0,210,123,121,128,130
2025-02-26 14:50:54.751,-789.0,150.0,-293.0,-61.0,2.0,136.0,214,140,125,132,136
2025-02-26 14:50:54.759,-782.0,152.0,-279.0,-66.0,-2.0,121.0,215,131,127,136,137
2025-02-26 14:50:54.763,-728.0,211.0,-284.0,-69.0,-4.0,103.0,212,129,126,132,138
2025-02-26 14:50:54.768,-724.0,248.0,-241.0,-69.0,-4.0,90.0,206,126,123,131,134
2025-02-26 14:50:54.774,-710.0,208.0,-206.0,-66.0,-4.0,80.0,203,123,122,126,132
2025-02-26 14:50:54.780,-695.0,130.0,-87.0,-59.0,0.0,75.0,218,138,135,143,147
2025-02-26 14:50:54.784,-579.0,169.0,-120.0,-43.0,5.0,61.0,214,136,135,140,147
2025-02-26 14:50:54.789,-508.0,89.0,-100.0,-31.0,8.0,52.0,210,136,131,138,143
2025-02-26 14:50:54.796,-496.0,19.0,-10.0,-9.0,12.0,48.0,202,128,125,133,139
2025-02-26 14:50:54.800,-504.0,-42.0,-63.0,23.0,20.0,45.0,221,147,146,149,158
2025-02-26 14:50:54.805,-550.0,56.0,-141.0,53.0,18.0,33.0,214,142,138,144,153
2025-02-26 14:50:54.809,-599.0,176.0,-261.0,74.0,8.0,23.0,207,139,133,141,149
2025-02-26 14:50:54.817,-686.0,113.0,-281.0,109.0,6.0,11.0,204,139,133,138,148
2025-02-26 14:50:54.817,-785.0,182.0,-339.0,149.0,-7.0,8.0,217,153,149,155,165
2025-02-26 14:50:54.822,-996.0,250.0,-444.0,174.0,-12.0,-2.0,212,152,147,155,162
2025-02-26 14:50:54.832,-1108.0,398.0,-472.0,186.0,-16.0,-14.0,209,148,144,152,159
2025-02-26 14:50:54.837,-1134.0,574.0,-497.0,215.0,-21.0,-33.0,208,152,143,153,160
2025-02-26 14:50:54.842,-1132.0,746.0,-467.0,232.0,-21.0,-60.0,205,156,147,157,162
2025-02-26 14:50:54.849,-1097.0,967.0,-516.0,249.0,-27.0,-94.0,205,155,148,157,161
2025-02-26 14:50:54.854,-1053.0,1056.0,-549.0,278.0,-46.0,-110.0,201,154,142,159,160
2025-02-26 14:50:54.862,-1107.0,1085.0,-570.0,304.0,-66.0,-149.0,208,161,153,168,167
2025-02-26 14:50:54.866,-1216.0,1151.0,-610.0,310.0,-84.0,-205.0,212,169,158,174,173
2025-02-26 14:50:54.870,-1360.0,1183.0,-475.0,326.0,-108.0,-248.0,212,170,159,175,174
2025-02-26 14:50:54.878,-1489.0,1366.0,-256.0,342.0,-100.0,-296.0,212,172,159,177,174
2025-02-26 14:50:54.882,-1373.0,1412.0,-183.0,361.0,-79.0,-326.0,215,175,164,183,172
2025-02-26 14:50:54.890,-1200.0,1024.0,41.0,383.0,-25.0,-320.0,214,179,163,181,177
2025-02-26 14:50:54.895,-861.0,538.0,77.0,303.0,-11.0,-348.0,211,178,161,178,175
2025-02-26 14:50:54.898,-477.0,207.0,338.0,281.0,-24.0,-373.0,212,178,164,180,174
2025-02-26 14:50:54.907,-369.0,27.0,329.0,294.0,-42.0,-378.0,207,176,159,179,172
2025-02-26 14:50:54.911,-257.0,-85.0,329.0,330.0,-84.0,-383.0,206,174,158,177,170
2025-02-26 14:50:54.915,-13.0,-105.0,98.0,331.0,-125.0,-383.0,204,175,155,176,169
2025-02-26 14:50:54.920,187.0,-153.0,-5.0,314.0,-155.0,-388.0,217,189,173,190,182
2025-02-26 14:50:54.926,442.0,-220.0,65.0,277.0,-158.0,-384.0,215,185,169,187,179
2025-02-26 14:50:54.932,691.0,-408.0,272.0,256.0,-144.0,-372.0,211,181,167,184,177
2025-02-26 14:50:54.940,1023.0,-561.0,517.0,206.0,-131.0,-357.0,213,182,167,184,178
2025-02-26 14:50:54.945,1532.0,-605.0,536.0,162.0,-153.0,-358.0,209,181,166,181,174
2025-02-26 14:50:54.948,1679.0,-1334.0,523.0,112.0,-173.0,-343.0,209,181,164,180,171
2025-02-26 14:50:54.956,1820.0,-1696.0,886.0,68.0,-197.0,-321.0,206,177,163,181,173
2025-02-26 14:50:54.961,2103.0,-2366.0,835.0,43.0,-201.0,-292.0,216,186,171,186,180
2025-02-26 14:50:54.968,2386.0,-2628.0,894.0,19.0,-219.0,-276.0,207,177,165,181,172
2025-02-26 14:50:54.969,2435.0,-3181.0,1586.0,-33.0,-252.0,-252.0,214,185,170,186,179
2025-02-26 14:50:54.977,2314.0,-3921.0,3689.0,29.0,-443.0,-248.0,214,186,172,189,182
2025-02-26 14:50:54.984,1855.0,-4623.0,3352.0,-149.0,-245.0,-201.0,216,192,177,194,187
2025-02-26 14:50:54.987,2158.0,-4134.0,769.0,-19.0,-75.0,-84.0,216,185,174,190,182
2025-02-26 14:50:54.997,1698.0,-3060.0,279.0,34.0,-73.0,-12.0,216,186,174,189,183
2025-02-26 14:50:55.000,1482.0,-2957.0,1337.0,11.0,10.0,69.0,223,193,183,199,191
2025-02-26 14:50:55.005,1469.0,-2780.0,1143.0,7.0,67.0,141.0,214,187,175,190,183
2025-02-26 14:50:55.012,1219.0,-2601.0,905.0,-45.0,82.0,194.0,209,181,168,182,177
2025-02-26 14:50:55.018,1041.0,-2271.0,755.0,-105.0,104.0,226.0,209,179,168,183,177
2025-02-26 14:50:55.022,868.0,-2091.0,595.0,-151.0,101.0,235.0,208,179,168,184,179
2025-02-26 14:50:55.029,711.0,-1852.0,631.0,-163.0,102.0,244.0,216,189,177,192,184
2025-02-26 14:50:55.034,612.0,-1649.0,665.0,-153.0,104.0,245.0,214,183,170,188,185
2025-02-26 14:50:55.038,479.0,-1509.0,496.0,-126.0,85.0,236.0,213,187,175,191,185
2025-02-26 14:50:55.046,405.0,-1398.0,508.0,-114.0,62.0,218.0,214,187,174,189,184
2025-02-26 14:50:55.050,353.0,-1263.0,414.0,-83.0,39.0,193.0,209,181,168,184,178
2025-02-26 14:50:55.055,357.0,-1260.0,261.0,-41.0,26.0,173.0,207,178,167,182,176
2025-02-26 14:50:55.063,291.0,-1234.0,169.0,-23.0,1.0,165.0,210,184,173,189,183
2025-02-26 14:50:55.067,209.0,-1219.0,161.0,0.0,-6.0,156.0,215,188,175,191,186
2025-02-26 14:50:55.071,139.0,-1181.0,56.0,1.0,-2.0,148.0,212,187,173,191,185
2025-02-26 14:50:55.075,77.0,-1049.0,81.0,2.0,19.0,149.0,206,179,170,184,178
2025-02-26 14:50:55.083,95.0,-1033.0,2.0,-6.0,34.0,150.0,209,185,172,185,181
2025-02-26 14:50:55.087,62.0,-1137.0,96.0,-41.0,47.0,148.0,216,189,175,193,187
2025-02-26 14:50:55.091,24.0,-1020.0,-280.0,-73.0,48.0,147.0,211,186,171,187,183
2025-02-26 14:50:55.099,-138.0,-981.0,90.0,-92.0,74.0,158.0,207,180,166,185,178
2025-02-26 14:50:55.103,-183.0,-917.0,57.0,-111.0,76.0,169.0,208,183,168,184,180
2025-02-26 14:50:55.108,-183.0,-885.0,108.0,-121.0,67.0,176.0,209,183,168,185,179
2025-02-26 14:50:55.115,-184.0,-885.0,290.0,-127.0,59.0,184.0,213,189,174,184,185
2025-02-26 14:50:55.119,-135.0,-836.0,291.0,-135.0,52.0,190.0,214,189,174,191,186
2025-02-26 14:50:55.126,-149.0,-795.0,262.0,-141.0,34.0,197.0,213,189,174,190,185
2025-02-26 14:50:55.136,-199.0,-741.0,220.0,-148.0,14.0,201.0,209,185,167,186,182
2025-02-26 14:50:55.139,-206.0,-693.0,216.0,-160.0,8.0,201.0,207,182,166,184,179
2025-02-26 14:50:55.141,-224.0,-624.0,224.0,-177.0,1.0,200.0,214,189,173,191,185
2025-02-26 14:50:55.145,-277.0,-604.0,247.0,-182.0,5.0,196.0,216,191,177,192,189
2025-02-26 14:50:55.152,-319.0,-524.0,233.0,-180.0,15.0,190.0,213,188,173,190,187
2025-02-26 14:50:55.156,-406.0,-457.0,145.0,-181.0,21.0,181.0,215,189,175,191,184
2025-02-26 14:50:55.164,-390.0,-361.0,159.0,-178.0,30.0,171.0,213,191,177,190,186
2025-02-26 14:50:55.169,-467.0,-257.0,97.0,-163.0,35.0,159.0,208,183,167,186,183
2025-02-26 14:50:55.173,-509.0,-193.0,-63.0,-155.0,33.0,150.0,206,181,161,182,179
2025-02-26 14:50:55.178,-624.0,-183.0,-50.0,-145.0,27.0,146.0,208,181,167,185,179
2025-02-26 14:50:55.186,-690.0,-160.0,-164.0,-140.0,23.0,137.0,215,190,176,191,188
2025-02-26 14:50:55.189,-750.0,-85.0,-299.0,-141.0,10.0,125.0,215,188,173,192,186
2025-02-26 14:50:55.194,-786.0,-70.0,-1.0,-114.0,24.0,119.0,211,187,171,191,186
2025-02-26 14:50:55.201,-773.0,14.0,-86.0,-104.0,29.0,107.0,215,187,173,192,187
2025-02-26 14:50:55.206,-803.0,39.0,-92.0,-71.0,31.0,96.0,205,179,164,183,180
2025-02-26 14:50:55.210,-854.0,53.0,-91.0,-42.0,34.0,89.0,214,187,171,190,185
2025-02-26 14:50:55.218,-876.0,80.0,-114.0,-17.0,34.0,75.0,212,186,171,190,186
2025-02-26 14:50:55.222,-912.0,95.0,-133.0,-7.0,31.0,60.0,216,190,174,191,187
2025-02-26 14:50:55.226,-919.0,120.0,-134.0,13.0,30.0,46.0,208,181,165,185,179
2025-02-26 14:50:55.230,-930.0,149.0,-160.0,36.0,22.0,38.0,211,188,172,192,186
2025-02-26 14:50:55.239,-935.0,173.0,-114.0,62.0,24.0,24.0,215,187,172,190,187
2025-02-26 14:50:55.242,-949.0,203.0,-135.0,74.0,24.0,8.0,213,188,176,190,186
2025-02-26 14:50:55.247,-934.0,266.0,-127.0,89.0,25.0,-10.0,207,182,168,186,181
2025-02-26 14:50:55.255,-942.0,310.0,-153.0,112.0,31.0,-17.0,205,178,162,185,178
2025-02-26 14:50:55.259,-981.0,387.0,-194.0,117.0,24.0,-36.0,212,186,172,191,185
2025-02-26 14:50:55.263,-1049.0,406.0,-167.0,133.0,27.0,-52.0,215,186,173,192,186
2025-02-26 14:50:55.271,-1120.0,430.0,-200.0,138.0,28.0,-68.0,210,186,168,187,184
2025-02-26 14:50:55.275,-1152.0,455.0,-231.0,151.0,23.0,-87.0,207,181,165,184,180
2025-02-26 14:50:55.280,-1166.0,485.0,-251.0,158.0,20.0,-108.0,215,190,171,191,187
2025-02-26 14:50:55.288,-1164.0,538.0,-280.0,171.0,11.0,-133.0,208,186,168,187,182
2025-02-26 14:50:55.292,-1134.0,553.0,-278.0,178.0,3.0,-147.0,206,180,164,186,179
2025-02-26 14:50:55.296,-1070.0,501.0,-301.0,183.0,-4.0,-173.0,213,189,171,190,187
2025-02-26 14:50:55.304,-997.0,542.0,-294.0,187.0,-12.0,-199.0,215,191,179,191,188
2025-02-26 14:50:55.308,-928.0,548.0,-360.0,187.0,-25.0,-226.0,215,187,171,193,188
2025-02-26 14:50:55.312,-815.0,531.0,-300.0,189.0,-35.0,-249.0,212,185,168,182,182
2025-02-26 14:50:55.320,-646.0,438.0,-169.0,192.0,-46.0,-271.0,211,183,168,186,182
2025-02-26 14:50:55.324,-562.0,327.0,-66.0,196.0,-53.0,-293.0,207,183,166,185,180
2025-02-26 14:50:55.329,-392.0,177.0,76.0,195.0,-63.0,-312.0,207,180,163,185,178
2025-02-26 14:50:55.337,-197.0,127.0,163.0,190.0,-71.0,-321.0,213,186,168,188,184
2025-02-26 14:50:55.341,-11.0,-1.0,213.0,187.0,-80.0,-337.0,217,194,175,195,191
2025-02-26 14:50:55.345,208.0,-137.0,282.0,180.0,-86.0,-354.0,215,189,170,193,188
2025-02-26 14:50:55.353,407.0,-337.0,384.0,174.0,-84.0,-363.0,210,183,165,187,184
2025-02-26 14:50:55.357,644.0,-496.0,482.0,161.0,-81.0,-368.0,206,183,164,182,178
2025-02-26 14:50:55.361,795.0,-760.0,605.0,141.0,-76.0,-368.0,210,180,165,190,180
2025-02-26 14:50:55.369,1023.0,-910.0,658.0,121.0,-78.0,-365.0,206,181,163,183,180
2025-02-26 14:50:55.373,1305.0,-1356.0,689.0,103.0,-94.0,-352.0,215,188,172,190,184
2025-02-26 14:50:55.382,1693.0,-1975.0,744.0,75.0,-117.0,-330.0,221,194,177,196,192
2025-02-26 14:50:55.385,2020.0,-2660.0,852.0,23.0,-137.0,-293.0,216,188,170,191,188
2025-02-26 14:50:55.390,2138.0,-3394.0,1019.0,-41.0,-168.0,-255.0,215,188,169,190,185
2025-02-26 14:50:55.399,2313.0,-4056.0,1461.0,-121.0,-174.0,-215.0,215,188,171,189,185
2025-02-26 14:50:55.402,2186.0,-4601.0,1967.0,-77.0,-186.0,-153.0,218,185,171,192,191
2025-02-26 14:50:55.410,1907.0,-4659.0,2645.0,-36.0,-146.0,-75.0,218,188,171,191,187
2025-02-26 14:50:55.414,1933.0,-4517.0,1879.0,-6.0,-45.0,34.0,213,184,170,187,184
2025-02-26 14:50:55.418,1714.0,-3751.0,494.0,-18.0,-5.0,121.0,218,186,173,192,189
2025-02-26 14:50:55.426,1599.0,-3125.0,881.0,-7.0,8.0,206.0,212,178,166,185,182
2025-02-26 14:50:55.430,1354.0,-3072.0,1298.0,-43.0,72.0,240.0,209,174,162,181,179
2025-02-26 14:50:55.435,1186.0,-2583.0,869.0,-108.0,107.0,275.0,219,183,171,188,188
2025-02-26 14:50:55.443,966.0,-1989.0,715.0,-171.0,122.0,283.0,221,186,172,193,189
2025-02-26 14:50:55.447,784.0,-1529.0,638.0,-218.0,122.0,278.0,217,185,173,193,189
2025-02-26 14:50:55.452,646.0,-1219.0,557.0,-225.0,120.0,265.0,213,183,169,190,185
2025-02-26 14:50:55.459,520.0,-1148.0,395.0,-225.0,112.0,248.0,213,181,167,185,183
2025-02-26 14:50:55.464,394.0,-1075.0,153.0,-213.0,92.0,220.0,211,179,166,185,182
2025-02-26 14:50:55.467,358.0,-1024.0,39.0,-179.0,85.0,194.0,209,176,163,181,178
2025-02-26 14:50:55.476,282.0,-1137.0,-113.0,-139.0,71.0,184.0,209,176,164,181,179
2025-02-26 14:50:55.478,224.0,-1141.0,-244.0,-122.0,54.0,173.0,221,188,174,195,190
2025-02-26 14:50:55.484,184.0,-1278.0,-258.0,-96.0,53.0,173.0,218,188,172,192,188
2025-02-26 14:50:55.492,109.0,-1255.0,-399.0,-115.0,42.0,173.0,217,186,169,189,186
2025-02-26 14:50:55.497,80.0,-1152.0,-466.0,-133.0,23.0,173.0,216,184,168,189,184
2025-02-26 14:50:55.501,7.0,-1115.0,-309.0,-142.0,19.0,182.0,218,186,165,190,188
2025-02-26 14:50:55.509,-16.0,-1018.0,-95.0,-157.0,16.0,192.0,213,181,163,184,181
2025-02-26 14:50:55.513,1.0,-946.0,68.0,-162.0,11.0,207.0,210,181,162,182,178
2025-02-26 14:50:55.518,-47.0,-921.0,311.0,-163.0,6.0,214.0,216,188,169,191,188
2025-02-26 14:50:55.525,-66.0,-852.0,251.0,-165.0,3.0,224.0,216,188,171,192,188
2025-02-26 14:50:55.529,-88.0,-725.0,248.0,-166.0,-1.0,229.0,215,183,167,187,185
2025-02-26 14:50:55.534,-122.0,-605.0,239.0,-164.0,-2.0,232.0,209,177,161,183,181
2025-02-26 14:50:55.541,-186.0,-473.0,190.0,-166.0,2.0,230.0,217,188,169,189,187
2025-02-26 14:50:55.546,-208.0,-366.0,137.0,-162.0,3.0,227.0,215,183,167,188,186
2025-02-26 14:50:55.550,-259.0,-212.0,198.0,-150.0,7.0,220.0,217,189,169,189,186
2025-02-26 14:50:55.557,-366.0,-100.0,87.0,-133.0,12.0,212.0,216,186,170,190,186
2025-02-26 14:50:55.562,-448.0,-16.0,62.0,-127.0,16.0,200.0,218,188,169,190,189
2025-02-26 14:50:55.566,-472.0,22.0,49.0,-124.0,16.0,185.0,211,181,164,182,181
2025-02-26 14:50:55.570,-519.0,34.0,72.0,-121.0,15.0,178.0,207,177,161,181,179
2025-02-26 14:50:55.578,-572.0,46.0,87.0,-122.0,19.0,162.0,216,187,169,190,186
2025-02-26 14:50:55.582,-594.0,108.0,96.0,-117.0,24.0,146.0,216,181,170,189,186
2025-02-26 14:50:55.586,-648.0,168.0,3.0,-113.0,25.0,131.0,212,179,162,184,182
2025-02-26 14:50:55.594,-656.0,157.0,0.0,-110.0,26.0,119.0,210,177,161,183,181
2025-02-26 14:50:55.599,-718.0,153.0,-42.0,-99.0,30.0,114.0,217,185,169,190,186
2025-02-26 14:50:55.603,-772.0,109.0,-44.0,-87.0,36.0,104.0,217,185,170,191,188
2025-02-26 14:50:55.606,-803.0,125.0,-63.0,-77.0,45.0,96.0,215,180,164,187,184
2025-02-26 14:50:55.615,-813.0,109.0,-96.0,-59.0,48.0,88.0,208,176,160,183,177
2025-02-26 14:50:55.619,-837.0,116.0,-125.0,-47.0,52.0,82.0,216,185,165,187,184
2025-02-26 14:50:55.623,-849.0,125.0,-134.0,-36.0,55.0,70.0,219,185,168,190,188
2025-02-26 14:50:55.630,-844.0,118.0,-128.0,-24.0,57.0,57.0,217,184,167,189,185
2025-02-26 14:50:55.636,-822.0,126.0,-125.0,-18.0,64.0,45.0,212,180,161,186,180
2025-02-26 14:50:55.640,-826.0,159.0,-156.0,-8.0,67.0,30.0,213,179,163,185,184
2025-02-26 14:50:55.644,-808.0,186.0,-157.0,-1.0,68.0,24.0,216,180,162,186,183
2025-02-26 14:50:55.652,-811.0,207.0,-151.0,3.0,72.0,12.0,216,179,164,188,186
2025-02-26 14:50:55.656,-804.0,237.0,-194.0,6.0,75.0,-1.0,214,176,159,184,183
2025-02-26 14:50:55.660,-794.0,231.0,-224.0,17.0,74.0,-14.0,211,174,157,184,182
2025-02-26 14:50:55.666,-784.0,223.0,-228.0,35.0,73.0,-20.0,209,168,153,182,179
2025-02-26 14:50:55.673,-809.0,195.0,-236.0,51.0,73.0,-32.0,216,170,158,186,185
2025-02-26 14:50:55.677,-838.0,204.0,-284.0,68.0,64.0,-47.0,215,166,153,189,184
2025-02-26 14:50:55.682,-871.0,190.0,-259.0,75.0,57.0,-60.0,211,158,148,185,183
2025-02-26 14:50:55.688,-884.0,197.0,-245.0,90.0,53.0,-73.0,210,151,138,178,177
2025-02-26 14:50:55.693,-933.0,235.0,-265.0,98.0,46.0,-79.0,205,146,134,175,176
2025-02-26 14:50:55.697,-958.0,315.0,-252.0,118.0,29.0,-99.0,216,146,139,179,182
2025-02-26 14:50:55.703,-1056.0,444.0,-200.0,138.0,18.0,-124.0,218,144,138,176,182
2025-02-26 14:50:55.710,-1146.0,464.0,-256.0,148.0,-1.0,-148.0,211,133,128,166,176
2025-02-26 14:50:55.713,-1094.0,634.0,-78.0,162.0,2.0,-178.0,209,126,125,153,172
2025-02-26 14:50:55.721,-1084.0,560.0,30.0,194.0,7.0,-198.0,215,129,128,156,174
2025-02-26 14:50:55.726,-1051.0,569.0,-151.0,216.0,-4.0,-215.0,210,121,122,147,167
2025-02-26 14:50:55.730,-978.0,554.0,-301.0,237.0,-32.0,-256.0,215,127,129,152,169
2025-02-26 14:50:55.738,-828.0,538.0,-235.0,238.0,-66.0,-303.0,214,122,128,146,164
2025-02-26 14:50:55.742,-845.0,378.0,-115.0,229.0,-74.0,-344.0,218,124,128,142,161
2025-02-26 14:50:55.750,-770.0,420.0,-402.0,222.0,-91.0,-373.0,214,121,126,136,154
2025-02-26 14:50:55.755,-524.0,673.0,-483.0,227.0,-95.0,-405.0,212,117,123,131,146
2025-02-26 14:50:55.759,-332.0,462.0,-432.0,234.0,-88.0,-409.0,212,117,122,127,139
2025-02-26 14:50:55.767,-256.0,210.0,-506.0,217.0,-61.0,-409.0,208,110,116,124,132
2025-02-26 14:50:55.771,-13.0,20.0,-304.0,212.0,-39.0,-408.0,210,109,116,121,124
2025-02-26 14:50:55.776,374.0,-93.0,26.0,212.0,-15.0,-405.0,214,115,121,125,127
2025-02-26 14:50:55.783,625.0,-377.0,216.0,211.0,-1.0,-392.0,216,119,125,132,130
2025-02-26 14:50:55.787,697.0,-737.0,570.0,204.0,23.0,-381.0,212,114,119,124,123
2025-02-26 14:50:55.792,944.0,-854.0,1298.0,186.0,93.0,-380.0,207,108,114,118,118
2025-02-26 14:50:55.800,1178.0,-1814.0,1500.0,154.0,117.0,-389.0,206,108,112,118,116
2025-02-26 14:50:55.804,1498.0,-1686.0,1347.0,189.0,35.0,-386.0,209,107,114,120,116
2025-02-26 14:50:55.809,2418.0,-2402.0,1223.0,217.0,-25.0,-385.0,210,113,118,119,115
2025-02-26 14:50:55.816,2850.0,-2900.0,1363.0,169.0,-71.0,-365.0,206,105,110,115,114
2025-02-26 14:50:55.819,2827.0,-3942.0,1421.0,135.0,-70.0,-312.0,220,122,126,130,128
2025-02-26 14:50:55.828,2638.0,-4722.0,1398.0,117.0,-28.0,-222.0,215,117,123,127,124
2025-02-26 14:50:55.832,2428.0,-5083.0,1268.0,107.0,21.0,-96.0,214,115,120,122,122
2025-02-26 14:50:55.837,2306.0,-4905.0,1182.0,70.0,52.0,42.0,215,116,121,121,122
2025-02-26 14:50:55.845,2296.0,-4262.0,1101.0,34.0,60.0,147.0,217,116,120,117,124
2025-02-26 14:50:55.849,2045.0,-3418.0,1068.0,-39.0,51.0,191.0,212,113,115,118,120
2025-02-26 14:50:55.853,1874.0,-2470.0,973.0,-107.0,40.0,193.0,206,108,113,112,114
2025-02-26 14:50:55.861,1401.0,-1795.0,709.0,-152.0,5.0,176.0,214,115,120,117,121
2025-02-26 14:50:55.866,1128.0,-1525.0,400.0,-183.0,-41.0,166.0,207,107,115,116,116
2025-02-26 14:50:55.870,885.0,-1271.0,200.0,-214.0,-73.0,155.0,214,116,125,125,123
2025-02-26 14:50:55.878,762.0,-1217.0,27.0,-221.0,-82.0,154.0,214,117,122,126,122
2025-02-26 14:50:55.882,575.0,-1194.0,22.0,-220.0,-69.0,158.0,218,121,128,129,126
2025-02-26 14:50:55.887,493.0,-1209.0,113.0,-242.0,-45.0,156.0,214,117,122,125,123
2025-02-26 14:50:55.894,419.0,-1243.0,-86.0,-241.0,-34.0,156.0,211,114,120,123,121
2025-02-26 14:50:55.899,333.0,-1274.0,-106.0,-211.0,-32.0,160.0,208,110,115,118,115
2025-02-26 14:50:55.905,220.0,-1368.0,-119.0,-186.0,-32.0,163.0,208,112,116,120,117
2025-02-26 14:50:55.907,165.0,-1337.0,-250.0,-177.0,-36.0,165.0,208,109,115,119,114
2025-02-26 14:50:55.912,146.0,-1328.0,-256.0,-186.0,-51.0,167.0,205,108,112,118,115
2025-02-26 14:50:55.919,113.0,-1278.0,-190.0,-187.0,-61.0,174.0,219,120,124,127,125
2025-02-26 14:50:55.926,72.0,-1200.0,-105.0,-182.0,-66.0,181.0,217,120,125,127,126
2025-02-26 14:50:55.931,68.0,-1127.0,-23.0,-170.0,-60.0,190.0,210,119,124,128,125
2025-02-26 14:50:55.938,53.0,-1062.0,20.0,-155.0,-52.0,199.0,215,117,123,127,124
2025-02-26 14:50:55.943,108.0,-1000.0,77.0,-145.0,-39.0,205.0,214,120,125,130,125
2025-02-26 14:50:55.948,82.0,-874.0,50.0,-132.0,-34.0,212.0,209,114,118,121,116
2025-02-26 14:50:55.955,57.0,-778.0,90.0,-103.0,-18.0,218.0,208,111,118,119,118
2025-02-26 14:50:55.959,66.0,-720.0,96.0,-81.0,-3.0,225.0,217,119,124,128,125
2025-02-26 14:50:55.961,1.0,-614.0,79.0,-75.0,12.0,230.0,217,120,127,129,126
2025-02-26 14:50:55.968,-60.0,-475.0,79.0,-71.0,20.0,232.0,208,111,117,120,117
2025-02-26 14:50:55.975,-92.0,-384.0,15.0,-57.0,20.0,230.0,209,112,118,119,117
2025-02-26 14:50:55.980,-194.0,-348.0,39.0,-45.0,16.0,226.0,223,129,132,137,132
2025-02-26 14:50:55.984,-277.0,-264.0,24.0,-29.0,15.0,215.0,217,121,126,129,126
2025-02-26 14:50:55.992,-311.0,-198.0,19.0,-21.0,16.0,198.0,214,120,121,124,123
2025-02-26 14:50:55.996,-356.0,-189.0,41.0,-15.0,17.0,180.0,207,112,118,121,120
2025-02-26 14:50:56.001,-456.0,-166.0,-3.0,-10.0,19.0,172.0,215,118,120,124,123
2025-02-26 14:50:56.005,-540.0,-161.0,-57.0,-9.0,22.0,158.0,217,122,127,129,127
2025-02-26 14:50:56.013,-602.0,-183.0,-60.0,-18.0,26.0,147.0,214,121,124,129,126
2025-02-26 14:50:56.017,-680.0,-188.0,-99.0,-25.0,27.0,138.0,212,117,126,127,124
2025-02-26 14:50:56.021,-743.0,-177.0,-170.0,-28.0,26.0,129.0,211,115,121,125,125
2025-02-26 14:50:56.029,-726.0,-141.0,-188.0,-40.0,27.0,118.0,210,113,120,124,122
2025-02-26 14:50:56.033,-768.0,-141.0,-221.0,-45.0,22.0,111.0,206,111,117,121,117
2025-02-26 14:50:56.038,-788.0,-131.0,-209.0,-59.0,16.0,100.0,217,123,129,132,129
2025-02-26 14:50:56.045,-807.0,-130.0,-216.0,-74.0,8.0,90.0,220,123,128,133,131
2025-02-26 14:50:56.050,-780.0,-121.0,-221.0,-83.0,2.0,79.0,214,120,125,129,126
2025-02-26 14:50:56.054,-793.0,-125.0,-216.0,-95.0,-1.0,70.0,209,115,120,124,122
2025-02-26 14:50:56.062,-788.0,-79.0,-226.0,-107.0,-7.0,59.0,215,121,125,130,127
2025-02-26 14:50:56.066,-790.0,-104.0,-226.0,-111.0,-13.0,55.0,211,118,124,128,124
2025-02-26 14:50:56.071,-782.0,-114.0,-179.0,-102.0,-15.0,48.0,217,121,128,131,130
2025-02-26 14:50:56.077,-743.0,-124.0,-157.0,-84.0,-14.0,36.0,218,123,128,133,129
2025-02-26 14:50:56.082,-675.0,-129.0,-132.0,-65.0,-10.0,21.0,222,127,131,140,131
2025-02-26 14:50:56.086,-659.0,-118.0,-144.0,-54.0,-5.0,9.0,216,122,127,132,128
2025-02-26 14:50:56.094,-684.0,-118.0,-173.0,-32.0,-4.0,2.0,211,114,120,125,122
2025-02-26 14:50:56.098,-731.0,-108.0,-215.0,-12.0,-3.0,-1.0,208,113,120,124,122
2025-02-26 14:50:56.103,-772.0,-89.0,-255.0,11.0,-6.0,-8.0,218,127,131,135,130
2025-02-26 14:50:56.111,-807.0,-42.0,-235.0,31.0,-6.0,-14.0,219,124,129,134,128
2025-02-26 14:50:56.113,-871.0,10.0,-271.0,46.0,-7.0,-23.0,216,120,126,130,127
2025-02-26 14:50:56.120,-874.0,91.0,-230.0,78.0,-8.0,-32.0,216,124,127,133,130
2025-02-26 14:50:56.124,-930.0,136.0,-206.0,93.0,-5.0,-36.0,213,117,122,127,125
2025-02-26 14:50:56.132,-996.0,208.0,-182.0,115.0,-7.0,-46.0,214,124,126,132,130
2025-02-26 14:50:56.136,-1003.0,321.0,-125.0,139.0,-10.0,-61.0,215,123,128,133,129
2025-02-26 14:50:56.139,-1077.0,412.0,-90.0,155.0,-9.0,-76.0,217,125,128,133,130
2025-02-26 14:50:56.144,-1075.0,498.0,-3.0,181.0,-4.0,-94.0,211,118,122,126,124
2025-02-26 14:50:56.152,-1069.0,582.0,58.0,204.0,8.0,-117.0,212,116,120,124,123
2025-02-26 14:50:56.156,-1011.0,565.0,92.0,222.0,21.0,-130.0,218,123,126,133,131
2025-02-26 14:50:56.163,-1037.0,590.0,50.0,231.0,33.0,-162.0,217,125,131,138,133
2025-02-26 14:50:56.168,-1042.0,581.0,33.0,232.0,38.0,-198.0,218,124,128,136,131
2025-02-26 14:50:56.173,-1000.0,530.0,-20.0,236.0,34.0,-233.0,212,113,122,129,126
2025-02-26 14:50:56.181,-970.0,510.0,-40.0,244.0,31.0,-267.0,211,117,121,126,124
2025-02-26 14:50:56.185,-841.0,469.0,-30.0,252.0,21.0,-284.0,211,121,123,128,126
2025-02-26 14:50:56.189,-689.0,417.0,31.0,249.0,10.0,-317.0,217,123,128,133,132
2025-02-26 14:50:56.197,-505.0,341.0,60.0,247.0,-6.0,-345.0,218,125,126,133,130
2025-02-26 14:50:56.201,-301.0,246.0,141.0,245.0,-26.0,-367.0,221,128,132,136,135
2025-02-26 14:50:56.205,-33.0,112.0,254.0,234.0,-46.0,-384.0,212,119,122,127,126
2025-02-26 14:50:56.211,129.0,-73.0,383.0,214.0,-54.0,-397.0,209,114,118,124,124
2025-02-26 14:50:56.217,522.0,-178.0,522.0,192.0,-67.0,-403.0,210,116,123,125,123
2025-02-26 14:50:56.221,903.0,-485.0,707.0,167.0,-75.0,-409.0,220,126,130,138,137
2025-02-26 14:50:56.229,1282.0,-910.0,733.0,144.0,-80.0,-416.0,220,126,130,134,135
2025-02-26 14:50:56.233,1638.0,-1452.0,816.0,112.0,-85.0,-417.0,217,126,129,132,132
2025-02-26 14:50:56.237,1921.0,-2073.0,819.0,98.0,-90.0,-408.0,216,124,125,130,133
2025-02-26 14:50:56.245,2190.0,-2823.0,800.0,75.0,-89.0,-384.0,215,120,126,131,133
2025-02-26 14:50:56.248,2284.0,-3561.0,852.0,28.0,-85.0,-330.0,211,118,122,125,130
2025-02-26 14:50:56.255,2538.0,-4303.0,1031.0,-3.0,-62.0,-242.0,208,116,120,127,130
2025-02-26 14:50:56.263,2738.0,-4820.0,1094.0,-24.0,-40.0,-188.0,214,121,125,131,136
2025-02-26 14:50:56.266,2674.0,-4849.0,1037.0,-40.0,-34.0,-78.0,211,117,121,126,131
2025-02-26 14:50:56.275,2489.0,-4613.0,943.0,-52.0,-16.0,25.0,217,121,127,134,139
2025-02-26 14:50:56.278,2279.0,-4096.0,878.0,-90.0,16.0,104.0,219,123,129,136,139
2025-02-26 14:50:56.284,2015.0,-3499.0,586.0,-119.0,30.0,153.0,218,124,131,137,140
2025-02-26 14:50:56.291,1598.0,-2881.0,280.0,-128.0,17.0,181.0,214,122,127,133,136
2025-02-26 14:50:56.296,1218.0,-2371.0,114.0,-140.0,-4.0,201.0,213,122,125,130,135
2025-02-26 14:50:56.300,1050.0,-1950.0,3.0,-145.0,-14.0,214.0,216,124,130,135,138
2025-02-26 14:50:56.308,856.0,-1572.0,-6.0,-137.0,-27.0,217.0,211,118,122,129,130
2025-02-26 14:50:56.312,721.0,-1479.0,-51.0,-132.0,-25.0,215.0,207,115,119,125,128
2025-02-26 14:50:56.316,650.0,-1360.0,-101.0,-125.0,-21.0,204.0,216,123,130,135,139
2025-02-26 14:50:56.324,508.0,-1271.0,-124.0,-125.0,-15.0,191.0,220,128,131,138,139
2025-02-26 14:50:56.327,381.0,-1197.0,-151.0,-121.0,-17.0,180.0,219,125,130,137,141
2025-02-26 14:50:56.336,233.0,-1148.0,-117.0,-102.0,-13.0,176.0,217,124,129,134,138
2025-02-26 14:50:56.339,192.0,-1163.0,-73.0,-91.0,-11.0,173.0,222,132,134,140,143
2025-02-26 14:50:56.345,91.0,-1109.0,-172.0,-92.0,-19.0,174.0,216,124,128,132,137
2025-02-26 14:50:56.350,112.0,-1078.0,-134.0,-98.0,-20.0,176.0,210,117,122,130,131
2025-02-26 14:50:56.357,135.0,-1084.0,-18.0,-112.0,-15.0,181.0,210,115,120,125,130
2025-02-26 14:50:56.361,132.0,-1047.0,-31.0,-143.0,-10.0,183.0,212,118,123,128,133
2025-02-26 14:50:56.369,134.0,-1003.0,-3.0,-170.0,-24.0,189.0,215,127,131,136,140
2025-02-26 14:50:56.374,86.0,-936.0,72.0,-195.0,-30.0,197.0,215,127,129,135,141
2025-02-26 14:50:56.377,42.0,-837.0,101.0,-210.0,-37.0,204.0,215,125,127,134,138
2025-02-26 14:50:56.385,14.0,-762.0,97.0,-234.0,-43.0,207.0,212,122,128,132,136
2025-02-26 14:50:56.387,-33.0,-613.0,121.0,-239.0,-43.0,208.0,212,119,124,129,133
2025-02-26 14:50:56.392,-112.0,-573.0,175.0,-235.0,-40.0,207.0,207,116,121,126,130
2025-02-26 14:50:56.402,-174.0,-499.0,99.0,-214.0,-35.0,207.0,223,135,140,141,149
2025-02-26 14:50:56.404,-262.0,-378.0,76.0,-183.0,-27.0,205.0,217,128,133,138,141
2025-02-26 14:50:56.411,-379.0,-312.0,98.0,-155.0,-18.0,203.0,217,127,134,134,140
2025-02-26 14:50:56.418,-445.0,-298.0,131.0,-142.0,-12.0,199.0,213,124,128,133,139
2025-02-26 14:50:56.422,-482.0,-277.0,83.0,-117.0,-10.0,191.0,213,123,130,132,137
2025-02-26 14:50:56.427,-506.0,-274.0,29.0,-103.0,-10.0,182.0,210,122,127,131,135
2025-02-26 14:50:56.435,-535.0,-258.0,62.0,-84.0,-3.0,177.0,208,120,119,131,133
2025-02-26 14:50:56.437,-538.0,-256.0,25.0,-65.0,6.0,171.0,216,126,133,138,144
2025-02-26 14:50:56.443,-515.0,-259.0,66.0,-47.0,21.0,163.0,217,130,135,141,144
2025-02-26 14:50:56.447,-481.0,-205.0,61.0,-41.0,37.0,157.0,215,128,134,137,141
2025-02-26 14:50:56.455,-473.0,-253.0,46.0,-26.0,44.0,153.0,208,122,125,130,133
2025-02-26 14:50:56.458,-483.0,-275.0,4.0,-13.0,55.0,150.0,210,122,129,134,138
2025-02-26 14:50:56.464,-468.0,-241.0,-19.0,-5.0,60.0,145.0,215,128,135,141,144
2025-02-26 14:50:56.470,-528.0,-228.0,-82.0,7.0,59.0,146.0,215,127,136,140,143
2025-02-26 14:50:56.476,-601.0,-282.0,-125.0,10.0,58.0,144.0,208,122,126,131,138
2025-02-26 14:50:56.477,-613.0,-264.0,-155.0,15.0,58.0,143.0,211,127,131,138,144
2025-02-26 14:50:56.488,-671.0,-210.0,-152.0,30.0,51.0,143.0,204,120,128,133,139
2025-02-26 14:50:56.497,-713.0,-172.0,-201.0,42.0,46.0,141.0,211,130,135,141,147
2025-02-26 14:50:56.499,-707.0,-109.0,-233.0,48.0,43.0,135.0,212,127,136,141,148
2025-02-26 14:50:56.501,-750.0,20.0,-218.0,54.0,40.0,129.0,212,127,136,140,149
2025-02-26 14:50:56.508,-781.0,62.0,-218.0,57.0,36.0,119.0,207,122,133,137,144
2025-02-26 14:50:56.513,-751.0,59.0,-219.0,65.0,31.0,122.0,193,120,128,126,139
2025-02-26 14:50:56.515,-733.0,196.0,-196.0,70.0,32.0,114.0,210,129,137,142,150
2025-02-26 14:50:56.524,-726.0,136.0,-212.0,77.0,28.0,104.0,212,134,134,143,152
2025-02-26 14:50:56.529,-646.0,220.0,-257.0,87.0,19.0,92.0,208,132,140,140,150
2025-02-26 14:50:56.533,-675.0,436.0,-431.0,112.0,9.0,79.0,203,125,133,132,141
2025-02-26 14:50:56.538,-717.0,369.0,-383.0,133.0,4.0,75.0,210,134,140,142,150
2025-02-26 14:50:56.543,-834.0,425.0,-429.0,161.0,-1.0,63.0,212,139,144,143,152
2025-02-26 14:50:56.550,-931.0,619.0,-584.0,191.0,-32.0,41.0,206,135,138,141,147
2025-02-26 14:50:56.550,-932.0,599.0,-745.0,223.0,-58.0,4.0,202,133,135,137,144
2025-02-26 14:50:56.562,-883.0,659.0,-623.0,216.0,-61.0,-40.0,208,140,145,143,151
2025-02-26 14:50:56.563,-830.0,730.0,-304.0,189.0,-53.0,-67.0,203,138,142,137,145
2025-02-26 14:50:56.570,-659.0,789.0,-495.0,197.0,-42.0,-117.0,204,144,146,143,154
2025-02-26 14:50:56.575,-738.0,563.0,-573.0,220.0,-53.0,-158.0,205,148,148,142,151
2025-02-26 14:50:56.579,-855.0,424.0,-671.0,245.0,-67.0,-199.0,205,158,153,146,155
2025-02-26 14:50:56.588,-1169.0,759.0,-524.0,251.0,-78.0,-228.0,197,158,156,140,150
2025-02-26 14:50:56.594,-1106.0,951.0,-235.0,299.0,-83.0,-245.0,193,159,159,141,148
2025-02-26 14:50:56.599,-1206.0,578.0,284.0,343.0,-72.0,-279.0,188,158,156,136,145
2025-02-26 14:50:56.606,-1148.0,360.0,8.0,346.0,-64.0,-306.0,183,160,157,134,143
2025-02-26 14:50:56.610,-797.0,429.0,-167.0,335.0,-71.0,-319.0,179,159,156,130,139
2025-02-26 14:50:56.615,-459.0,359.0,-292.0,339.0,-85.0,-340.0,187,169,167,138,146
2025-02-26 14:50:56.623,-170.0,170.0,-245.0,340.0,-105.0,-359.0,190,174,173,143,149
2025-02-26 14:50:56.627,173.0,149.0,-281.0,364.0,-131.0,-377.0,185,173,172,140,147
2025-02-26 14:50:56.631,443.0,-122.0,-45.0,382.0,-133.0,-393.0,187,175,170,142,141
2025-02-26 14:50:56.639,211.0,-432.0,225.0,359.0,-164.0,-418.0,182,175,169,134,139
2025-02-26 14:50:56.643,244.0,-316.0,326.0,358.0,-196.0,-437.0,178,174,168,135,140
2025-02-26 14:50:56.646,440.0,-482.0,464.0,352.0,-211.0,-447.0,174,175,167,131,135
2025-02-26 14:50:56.655,880.0,-811.0,593.0,327.0,-236.0,-451.0,172,176,166,128,134
2025-02-26 14:50:56.660,1123.0,-977.0,831.0,308.0,-266.0,-450.0,180,185,176,135,141
2025-02-26 14:50:56.664,1420.0,-1372.0,1300.0,292.0,-277.0,-439.0,182,190,177,140,144
2025-02-26 14:50:56.673,1828.0,-1861.0,1696.0,281.0,-259.0,-398.0,181,192,177,135,143
2025-02-26 14:50:56.677,2246.0,-2445.0,1990.0,258.0,-225.0,-336.0,181,191,178,138,143
2025-02-26 14:50:56.685,2536.0,-2891.0,2344.0,242.0,-165.0,-260.0,189,193,180,136,147
2025-02-26 14:50:56.689,2676.0,-3193.0,2523.0,204.0,-94.0,-175.0,182,193,178,139,144
2025-02-26 14:50:56.697,2614.0,-3344.0,2647.0,171.0,-16.0,-84.0,181,194,179,139,145
2025-02-26 14:50:56.701,2405.0,-3385.0,2647.0,122.0,46.0,12.0,185,199,184,146,151
2025-02-26 14:50:56.706,2134.0,-3107.0,2380.0,89.0,84.0,98.0,180,193,179,139,145
2025-02-26 14:50:56.713,1798.0,-2803.0,2103.0,18.0,102.0,168.0,176,188,172,133,138
2025-02-26 14:50:56.717,1579.0,-2288.0,1750.0,-47.0,101.0,209.0,175,188,174,133,136
2025-02-26 14:50:56.719,1118.0,-1879.0,1522.0,-115.0,88.0,225.0,177,189,175,136,137
2025-02-26 14:50:56.730,808.0,-1638.0,1287.0,-174.0,67.0,229.0,175,189,174,131,137
2025-02-26 14:50:56.731,569.0,-1625.0,1033.0,-213.0,45.0,232.0,178,193,179,135,139
2025-02-26 14:50:56.742,450.0,-1605.0,805.0,-234.0,23.0,229.0,188,203,189,145,151
2025-02-26 14:50:56.743,405.0,-1514.0,701.0,-236.0,3.0,219.0,180,196,183,141,146
2025-02-26 14:50:56.750,399.0,-1497.0,569.0,-233.0,-12.0,206.0,176,192,178,136,140
2025-02-26 14:50:56.755,333.0,-1506.0,517.0,-221.0,-21.0,195.0,176,191,178,135,140
2025-02-26 14:50:56.762,315.0,-1459.0,509.0,-203.0,-22.0,188.0,176,191,178,134,140
2025-02-26 14:50:56.766,319.0,-1432.0,497.0,-187.0,-23.0,184.0,175,187,174,132,135
2025-02-26 14:50:56.773,343.0,-1331.0,499.0,-174.0,-22.0,183.0,177,187,172,135,135
2025-02-26 14:50:56.778,345.0,-1284.0,524.0,-163.0,-18.0,182.0,181,193,181,139,143
2025-02-26 14:50:56.783,314.0,-1197.0,532.0,-150.0,-13.0,184.0,184,196,181,141,146
2025-02-26 14:50:56.791,247.0,-1123.0,531.0,-140.0,-6.0,188.0,182,195,181,139,145
2025-02-26 14:50:56.795,185.0,-1119.0,534.0,-132.0,0.0,193.0,180,194,179,138,141
2025-02-26 14:50:56.799,106.0,-1027.0,479.0,-119.0,2.0,198.0,183,198,183,143,147
2025-02-26 14:50:56.807,74.0,-912.0,455.0,-105.0,4.0,204.0,175,189,175,132,140
2025-02-26 14:50:56.812,-24.0,-871.0,406.0,-95.0,5.0,208.0,174,185,176,131,137
2025-02-26 14:50:56.816,-94.0,-810.0,375.0,-89.0,4.0,215.0,182,194,182,140,145
2025-02-26 14:50:56.820,-146.0,-630.0,381.0,-88.0,5.0,220.0,184,196,181,141,145
2025-02-26 14:50:56.828,-187.0,-525.0,344.0,-89.0,5.0,220.0,177,188,175,133,139
2025-02-26 14:50:56.832,-219.0,-439.0,324.0,-98.0,3.0,218.0,174,185,174,133,136
2025-02-26 14:50:56.836,-258.0,-385.0,352.0,-103.0,4.0,216.0,181,193,182,140,147
2025-02-26 14:50:56.844,-303.0,-359.0,337.0,-105.0,5.0,209.0,184,195,184,142,147
2025-02-26 14:50:56.848,-341.0,-307.0,365.0,-106.0,9.0,200.0,183,194,182,140,146
2025-02-26 14:50:56.852,-363.0,-279.0,389.0,-101.0,15.0,189.0,177,189,176,135,141
2025-02-26 14:50:56.860,-378.0,-256.0,356.0,-99.0,18.0,176.0,176,188,174,134,138
2025-02-26 14:50:56.864,-411.0,-216.0,339.0,-96.0,27.0,169.0,176,188,174,134,142
2025-02-26 14:50:56.869,-458.0,-245.0,348.0,-91.0,38.0,155.0,183,194,181,140,147
2025-02-26 14:50:56.876,-517.0,-229.0,329.0,-84.0,52.0,142.0,181,192,175,141,146
2025-02-26 14:50:56.881,-612.0,-199.0,280.0,-81.0,63.0,131.0,186,198,184,146,151
2025-02-26 14:50:56.883,-686.0,-196.0,243.0,-72.0,73.0,123.0,178,187,177,136,142
2025-02-26 14:50:56.893,-720.0,-167.0,180.0,-63.0,77.0,115.0,175,185,172,133,138
2025-02-26 14:50:56.897,-770.0,-145.0,129.0,-58.0,83.0,112.0,171,183,172,132,135
2025-02-26 14:50:56.902,-815.0,-95.0,82.0,-58.0,84.0,105.0,184,197,188,144,149
2025-02-26 14:50:56.906,-855.0,-50.0,64.0,-58.0,82.0,99.0,183,187,182,142,147
2025-02-26 14:50:56.914,-872.0,-19.0,15.0,-57.0,78.0,93.0,174,185,173,134,141
2025-02-26 14:50:56.917,-880.0,-7.0,-16.0,-59.0,75.0,86.0,175,186,173,133,134
2025-02-26 14:50:56.922,-879.0,-7.0,-53.0,-60.0,70.0,82.0,181,193,182,149,148
2025-02-26 14:50:56.927,-858.0,62.0,-70.0,-59.0,64.0,73.0,183,193,182,144,150
2025-02-26 14:50:56.935,-863.0,102.0,-63.0,-58.0,61.0,63.0,171,184,171,133,139
2025-02-26 14:50:56.937,-871.0,144.0,-82.0,-55.0,60.0,52.0,174,184,175,134,141
2025-02-26 14:50:56.943,-889.0,180.0,-105.0,-49.0,57.0,46.0,180,192,182,142,149
2025-02-26 14:50:56.951,-916.0,252.0,-146.0,-40.0,53.0,32.0,180,190,179,140,147
2025-02-26 14:50:56.955,-939.0,334.0,-183.0,-33.0,48.0,17.0,180,187,178,138,143
2025-02-26 14:50:56.958,-960.0,389.0,-214.0,-19.0,46.0,0.0,181,190,180,141,147
2025-02-26 14:50:56.967,-1003.0,409.0,-245.0,-2.0,41.0,-10.0,173,183,173,134,138
2025-02-26 14:50:56.971,-1031.0,429.0,-245.0,16.0,35.0,-30.0,181,190,179,138,145
2025-02-26 14:50:56.976,-1039.0,463.0,-258.0,35.0,29.0,-57.0,179,190,180,141,144
2025-02-26 14:50:56.979,-1041.0,527.0,-268.0,46.0,24.0,-87.0,182,190,181,141,147
2025-02-26 14:50:56.987,-1050.0,595.0,-320.0,68.0,13.0,-119.0,176,183,173,135,141
2025-02-26 14:50:56.992,-1071.0,665.0,-279.0,87.0,8.0,-151.0,172,178,170,132,136
2025-02-26 14:50:56.996,-1099.0,692.0,-245.0,103.0,-1.0,-167.0,170,179,169,132,136
2025-02-26 14:50:57.004,-1071.0,741.0,-257.0,118.0,-8.0,-200.0,186,191,181,145,146
2025-02-26 14:50:57.008,-991.0,744.0,-251.0,132.0,-15.0,-233.0,183,189,180,141,146
2025-02-26 14:50:57.016,-870.0,717.0,-226.0,153.0,-20.0,-265.0,179,187,180,139,147
2025-02-26 14:50:57.021,-737.0,610.0,-199.0,165.0,-24.0,-295.0,185,195,185,148,152
2025-02-26 14:50:57.022,-610.0,483.0,-160.0,191.0,-29.0,-323.0,181,188,181,139,146
2025-02-26 14:50:57.032,-439.0,346.0,-97.0,213.0,-32.0,-349.0,173,181,172,133,140
2025-02-26 14:50:57.036,-356.0,189.0,-9.0,237.0,-42.0,-373.0,171,179,170,131,137
2025-02-26 14:50:57.041,-188.0,130.0,88.0,251.0,-54.0,-383.0,173,182,173,135,139
2025-02-26 14:50:57.049,41.0,89.0,249.0,253.0,-72.0,-402.0,181,190,180,143,148
2025-02-26 14:50:57.053,287.0,18.0,256.0,250.0,-91.0,-415.0,179,187,180,141,146
2025-02-26 14:50:57.058,578.0,-159.0,335.0,242.0,-111.0,-426.0,176,183,175,138,141
2025-02-26 14:50:57.065,764.0,-414.0,459.0,217.0,-121.0,-440.0,171,183,175,135,142
2025-02-26 14:50:57.069,1142.0,-814.0,613.0,187.0,-142.0,-456.0,174,181,173,134,137
2025-02-26 14:50:57.073,1530.0,-1403.0,789.0,161.0,-161.0,-462.0,174,184,174,137,139
2025-02-26 14:50:57.081,1907.0,-1723.0,996.0,143.0,-179.0,-466.0,180,186,179,142,145
2025-02-26 14:50:57.085,2174.0,-2365.0,1252.0,135.0,-188.0,-445.0,182,189,178,140,144
2025-02-26 14:50:57.093,2362.0,-3040.0,1429.0,126.0,-187.0,-393.0,181,191,179,143,145
2025-02-26 14:50:57.098,2540.0,-3574.0,1572.0,130.0,-173.0,-314.0,180,192,181,147,150
2025-02-26 14:50:57.103,2645.0,-3960.0,1620.0,136.0,-153.0,-213.0,183,194,182,147,151
2025-02-26 14:50:57.110,2664.0,-4049.0,1689.0,125.0,-128.0,-101.0,181,190,183,145,149
2025-02-26 14:50:57.115,2619.0,-4064.0,1727.0,111.0,-92.0,15.0,183,192,182,144,150
2025-02-26 14:50:57.123,2424.0,-3849.0,1700.0,80.0,-56.0,120.0,187,197,188,148,156
2025-02-26 14:50:57.126,2155.0,-3449.0,1675.0,31.0,-21.0,203.0,181,193,183,146,151
2025-02-26 14:50:57.131,1844.0,-2864.0,1610.0,7.0,9.0,257.0,178,188,179,142,146
2025-02-26 14:50:57.139,1667.0,-2236.0,1477.0,-43.0,20.0,286.0,174,183,174,136,142
2025-02-26 14:50:57.143,1304.0,-1808.0,1363.0,-96.0,41.0,299.0,176,185,177,139,143
2025-02-26 14:50:57.148,1012.0,-1669.0,1182.0,-141.0,56.0,300.0,175,184,173,138,142
2025-02-26 14:50:57.155,788.0,-1422.0,1043.0,-178.0,71.0,301.0,181,190,180,143,146
2025-02-26 14:50:57.159,625.0,-1288.0,937.0,-201.0,83.0,297.0,190,196,187,151,156
2025-02-26 14:50:57.164,523.0,-1217.0,849.0,-213.0,93.0,291.0,187,192,183,147,150
2025-02-26 14:50:57.172,453.0,-1168.0,721.0,-211.0,98.0,282.0,179,189,178,140,148
2025-02-26 14:50:57.175,379.0,-1193.0,596.0,-199.0,99.0,273.0,177,185,176,142,144
2025-02-26 14:50:57.181,357.0,-1214.0,497.0,-180.0,97.0,267.0,177,187,178,141,147
2025-02-26 14:50:57.188,246.0,-1200.0,419.0,-165.0,88.0,264.0,177,184,175,140,143
2025-02-26 14:50:57.192,213.0,-1220.0,395.0,-156.0,80.0,263.0,179,188,177,139,138
2025-02-26 14:50:57.197,170.0,-1181.0,396.0,-147.0,71.0,265.0,183,187,181,146,149
2025-02-26 14:50:57.205,158.0,-1109.0,361.0,-143.0,60.0,268.0,184,192,178,147,151
2025-02-26 14:50:57.208,142.0,-1040.0,387.0,-139.0,55.0,274.0,180,186,178,145,148
2025-02-26 14:50:57.213,116.0,-976.0,348.0,-131.0,49.0,281.0,175,183,174,139,144
2025-02-26 14:50:57.221,124.0,-882.0,358.0,-128.0,47.0,285.0,184,189,183,146,150
2025-02-26 14:50:57.225,84.0,-831.0,371.0,-128.0,49.0,287.0,175,182,174,141,142
2025-02-26 14:50:57.230,43.0,-722.0,449.0,-132.0,59.0,289.0,184,189,181,148,153
2025-02-26 14:50:57.237,26.0,-595.0,429.0,-133.0,77.0,288.0,183,189,179,151,153
2025-02-26 14:50:57.242,24.0,-457.0,356.0,-135.0,96.0,282.0,185,190,183,153,155
2025-02-26 14:50:57.245,24.0,-292.0,269.0,-138.0,105.0,268.0,178,183,174,144,149
2025-02-26 14:50:57.253,14.0,-139.0,185.0,-135.0,119.0,259.0,175,181,173,142,146
2025-02-26 14:50:57.257,-82.0,-128.0,231.0,-139.0,128.0,240.0,185,187,177,148,156
2025-02-26 14:50:57.262,-187.0,-3.0,230.0,-142.0,139.0,220.0,186,189,180,150,159
2025-02-26 14:50:57.270,-309.0,41.0,70.0,-143.0,140.0,203.0,182,185,176,148,160
2025-02-26 14:50:57.274,-427.0,68.0,-22.0,-149.0,130.0,188.0,175,177,167,139,155
2025-02-26 14:50:57.278,-506.0,136.0,-61.0,-144.0,126.0,174.0,176,177,167,143,156
2025-02-26 14:50:57.286,-625.0,186.0,-167.0,-135.0,117.0,167.0,177,177,166,145,157
2025-02-26 14:50:57.291,-707.0,182.0,-247.0,-118.0,98.0,151.0,184,184,173,153,166
2025-02-26 14:50:57.294,-667.0,146.0,-244.0,-95.0,80.0,132.0,184,183,172,155,169
2025-02-26 14:50:57.300,-698.0,51.0,-229.0,-85.0,67.0,119.0,189,188,178,166,174
2025-02-26 14:50:57.306,-778.0,37.0,-131.0,-76.0,65.0,108.0,183,187,169,161,170
2025-02-26 14:50:57.311,-797.0,63.0,-256.0,-64.0,60.0,97.0,179,176,163,154,165
2025-02-26 14:50:57.315,-787.0,43.0,-323.0,-58.0,45.0,91.0,183,179,166,162,168
2025-02-26 14:50:57.321,-809.0,104.0,-313.0,-52.0,33.0,81.0,190,185,173,173,177
2025-02-26 14:50:57.328,-799.0,33.0,-225.0,-52.0,32.0,78.0,188,182,166,168,173
2025-02-26 14:50:57.332,-811.0,6.0,-265.0,-38.0,31.0,76.0,183,176,158,164,167
2025-02-26 14:50:57.336,-851.0,-53.0,-205.0,-32.0,30.0,70.0,184,175,159,162,164
2025-02-26 14:50:57.344,-789.0,-71.0,-284.0,-30.0,24.0,67.0,195,186,175,177,177
2025-02-26 14:50:57.348,-797.0,15.0,-268.0,-8.0,22.0,65.0,194,183,167,176,177
2025-02-26 14:50:57.351,-830.0,27.0,-324.0,3.0,18.0,66.0,184,179,161,176,171
2025-02-26 14:50:57.356,-860.0,91.0,-289.0,19.0,17.0,62.0,191,177,160,168,171
2025-02-26 14:50:57.364,-827.0,99.0,-220.0,28.0,11.0,53.0,197,186,169,181,181
2025-02-26 14:50:57.368,-852.0,258.0,-119.0,31.0,31.0,40.0,200,183,168,177,181
2025-02-26 14:50:57.373,-822.0,104.0,-424.0,63.0,13.0,27.0,193,175,159,169,173
2025-02-26 14:50:57.380,-875.0,362.0,-483.0,34.0,2.0,0.0,196,176,160,171,173
2025-02-26 14:50:57.384,-904.0,321.0,-307.0,10.0,-5.0,-6.0,204,183,164,177,182
2025-02-26 14:50:57.389,-1025.0,395.0,124.0,11.0,15.0,-26.0,201,178,161,175,180
2025-02-26 14:50:57.394,-1050.0,514.0,119.0,10.0,27.0,-55.0,199,170,154,170,174
2025-02-26 14:50:57.399,-1026.0,703.0,-102.0,25.0,28.0,-90.0,202,172,157,177,180
2025-02-26 14:50:57.405,-1057.0,706.0,-188.0,36.0,30.0,-106.0,199,158,145,170,173
2025-02-26 14:50:57.410,-1058.0,732.0,-120.0,47.0,33.0,-132.0,206,160,147,175,180
2025-02-26 14:50:57.418,-1151.0,683.0,-151.0,50.0,38.0,-158.0,206,154,144,175,179
2025-02-26 14:50:57.422,-1230.0,722.0,-194.0,54.0,32.0,-192.0,210,149,143,174,180
2025-02-26 14:50:57.427,-1185.0,736.0,-96.0,67.0,30.0,-227.0,205,142,138,167,177
2025-02-26 14:50:57.433,-1153.0,754.0,-207.0,85.0,19.0,-260.0,200,134,126,156,170
2025-02-26 14:50:57.435,-1059.0,686.0,-223.0,100.0,-17.0,-294.0,202,132,129,153,167
2025-02-26 14:50:57.443,-927.0,714.0,-133.0,115.0,-48.0,-314.0,202,126,125,147,164
2025-02-26 14:50:57.448,-918.0,587.0,-224.0,153.0,-78.0,-349.0,208,132,133,150,169
2025-02-26 14:50:57.454,-754.0,561.0,-114.0,173.0,-93.0,-383.0,208,129,126,145,164
2025-02-26 14:50:57.460,-655.0,497.0,-155.0,182.0,-107.0,-418.0,213,133,135,146,165
2025-02-26 14:50:57.467,-615.0,724.0,-280.0,173.0,-122.0,-453.0,209,126,131,139,155
2025-02-26 14:50:57.471,-147.0,582.0,-540.0,180.0,-135.0,-447.0,205,120,124,131,142
2025-02-26 14:50:57.478,174.0,588.0,-48.0,220.0,-100.0,-420.0,208,119,125,130,139
2025-02-26 14:50:57.483,298.0,322.0,254.0,249.0,-79.0,-383.0,205,113,122,128,137
2025-02-26 14:50:57.487,523.0,-48.0,377.0,270.0,-51.0,-364.0,205,118,122,132,132
2025-02-26 14:50:57.495,829.0,-330.0,545.0,247.0,-41.0,-368.0,210,121,124,132,135
2025-02-26 14:50:57.499,954.0,-556.0,757.0,174.0,-14.0,-393.0,218,128,132,138,140
2025-02-26 14:50:57.504,1331.0,-1110.0,1148.0,149.0,-30.0,-389.0,217,121,126,133,134
2025-02-26 14:50:57.512,2044.0,-1644.0,909.0,179.0,-87.0,-376.0,213,121,124,133,132
2025-02-26 14:50:57.516,2565.0,-2415.0,1105.0,176.0,-101.0,-359.0,208,116,120,129,128
2025-02-26 14:50:57.524,2506.0,-3386.0,849.0,167.0,-110.0,-323.0,215,119,126,135,132
2025-02-26 14:50:57.528,1861.0,-4005.0,1454.0,153.0,-68.0,-276.0,208,117,121,127,128
2025-02-26 14:50:57.532,1875.0,-4547.0,1669.0,179.0,-11.0,-185.0,205,111,117,117,122
2025-02-26 14:50:57.541,1946.0,-4809.0,1452.0,206.0,5.0,-70.0,211,119,125,125,129
2025-02-26 14:50:57.545,2176.0,-4502.0,1257.0,228.0,27.0,47.0,206,111,117,126,123
2025-02-26 14:50:57.549,2380.0,-4207.0,1403.0,203.0,71.0,88.0,206,112,116,123,123
2025-02-26 14:50:57.557,2226.0,-3498.0,1413.0,125.0,117.0,122.0,212,121,126,131,129
2025-02-26 14:50:57.561,1603.0,-2691.0,1370.0,68.0,117.0,135.0,216,123,129,135,132
2025-02-26 14:50:57.569,1211.0,-1908.0,1114.0,-12.0,74.0,128.0,217,121,125,132,131
2025-02-26 14:50:57.573,884.0,-1407.0,717.0,-64.0,32.0,116.0,214,118,122,125,126
2025-02-26 14:50:57.578,579.0,-1176.0,377.0,-143.0,-1.0,112.0,206,112,117,123,122
2025-02-26 14:50:57.585,458.0,-1226.0,228.0,-190.0,-18.0,106.0,208,110,119,122,125
2025-02-26 14:50:57.590,276.0,-1334.0,206.0,-207.0,-42.0,102.0,207,115,119,123,122
2025-02-26 14:50:57.594,254.0,-1428.0,154.0,-191.0,-56.0,98.0,207,114,118,122,122
2025-02-26 14:50:57.600,399.0,-1494.0,132.0,-163.0,-61.0,97.0,220,130,134,139,137
2025-02-26 14:50:57.606,305.0,-1700.0,168.0,-130.0,-47.0,99.0,215,124,127,132,131
2025-02-26 14:50:57.611,195.0,-1792.0,215.0,-112.0,-19.0,117.0,211,119,124,130,127
2025-02-26 14:50:57.618,252.0,-1721.0,223.0,-129.0,-7.0,134.0,212,120,124,128,128
2025-02-26 14:50:57.623,200.0,-1720.0,282.0,-142.0,-6.0,147.0,209,116,121,125,125
2025-02-26 14:50:57.627,202.0,-1475.0,346.0,-144.0,-16.0,160.0,207,115,119,124,124
2025-02-26 14:50:57.635,188.0,-1468.0,413.0,-152.0,-27.0,165.0,204,111,113,119,114
2025-02-26 14:50:57.639,215.0,-1263.0,467.0,-169.0,-32.0,173.0,216,122,127,132,131
2025-02-26 14:50:57.643,212.0,-1068.0,524.0,-197.0,-28.0,179.0,215,124,128,134,132
2025-02-26 14:50:57.651,124.0,-921.0,426.0,-205.0,-24.0,183.0,214,123,126,131,131
2025-02-26 14:50:57.654,48.0,-773.0,343.0,-202.0,-30.0,184.0,211,121,123,130,127
2025-02-26 14:50:57.659,-24.0,-634.0,295.0,-206.0,-37.0,181.0,211,120,124,129,130
2025-02-26 14:50:57.667,-66.0,-527.0,236.0,-198.0,-40.0,174.0,208,114,121,127,125
2025-02-26 14:50:57.672,-129.0,-449.0,207.0,-184.0,-41.0,171.0,207,116,119,125,123
2025-02-26 14:50:57.676,-186.0,-464.0,219.0,-175.0,-39.0,164.0,211,117,121,126,125
2025-02-26 14:50:57.684,-234.0,-463.0,231.0,-172.0,-37.0,154.0,216,128,129,134,131
2025-02-26 14:50:57.688,-281.0,-476.0,227.0,-165.0,-31.0,145.0,214,125,131,134,132
2025-02-26 14:50:57.696,-296.0,-488.0,217.0,-142.0,-23.0,137.0,214,123,127,130,129
2025-02-26 14:50:57.700,-354.0,-502.0,225.0,-129.0,-15.0,131.0,219,126,130,136,135
2025-02-26 14:50:57.705,-393.0,-553.0,201.0,-107.0,-3.0,127.0,210,120,123,129,126
2025-02-26 14:50:57.712,-425.0,-548.0,202.0,-89.0,1.0,127.0,207,116,118,124,122
2025-02-26 14:50:57.715,-468.0,-540.0,217.0,-76.0,5.0,127.0,205,114,116,123,121
2025-02-26 14:50:57.720,-479.0,-527.0,212.0,-63.0,9.0,125.0,216,126,131,138,135
2025-02-26 14:50:57.726,-515.0,-489.0,186.0,-58.0,16.0,122.0,217,126,129,134,132
2025-02-26 14:50:57.733,-533.0,-443.0,160.0,-54.0,27.0,121.0,212,120,124,128,124
2025-02-26 14:50:57.737,-537.0,-402.0,114.0,-49.0,30.0,118.0,207,118,120,125,123
2025-02-26 14:50:57.742,-596.0,-365.0,70.0,-47.0,35.0,114.0,208,120,122,127,125
2025-02-26 14:50:57.749,-635.0,-346.0,24.0,-50.0,39.0,112.0,217,125,131,134,132
2025-02-26 14:50:57.754,-675.0,-295.0,-20.0,-54.0,39.0,107.0,215,124,128,133,129
2025-02-26 14:50:57.758,-697.0,-242.0,-51.0,-58.0,38.0,100.0,211,120,126,131,129
2025-02-26 14:50:57.763,-740.0,-180.0,-81.0,-64.0,34.0,93.0,208,118,122,128,126
2025-02-26 14:50:57.769,-748.0,-122.0,-89.0,-71.0,32.0,81.0,206,115,118,124,122
2025-02-26 14:50:57.775,-750.0,-92.0,-106.0,-78.0,28.0,75.0,212,121,123,132,128
2025-02-26 14:50:57.781,-743.0,-41.0,-106.0,-80.0,23.0,61.0,221,131,136,141,139
2025-02-26 14:50:57.786,-749.0,-12.0,-99.0,-79.0,18.0,44.0,213,121,128,134,131
2025-02-26 14:50:57.791,-732.0,0.0,-96.0,-77.0,15.0,28.0,207,119,121,126,124
2025-02-26 14:50:57.794,-730.0,-9.0,-111.0,-71.0,11.0,21.0,206,113,118,122,120
2025-02-26 14:50:57.803,-729.0,-6.0,-151.0,-62.0,10.0,9.0,218,129,135,140,135
2025-02-26 14:50:57.807,-760.0,15.0,-146.0,-55.0,6.0,0.0,213,124,126,132,127
2025-02-26 14:50:57.811,-780.0,46.0,-153.0,-42.0,4.0,-8.0,208,116,120,125,123
2025-02-26 14:50:57.815,-801.0,70.0,-125.0,-27.0,-2.0,-12.0,208,117,120,126,124
2025-02-26 14:50:57.823,-819.0,121.0,-111.0,-12.0,-6.0,-25.0,217,125,130,136,132
2025-02-26 14:50:57.827,-855.0,158.0,-89.0,9.0,-8.0,-39.0,215,125,129,134,132
2025-02-26 14:50:57.831,-912.0,224.0,-94.0,18.0,-6.0,-54.0,207,118,124,127,123
2025-02-26 14:50:57.836,-949.0,264.0,-88.0,39.0,-4.0,-69.0,206,116,120,126,123
2025-02-26 14:50:57.843,-971.0,304.0,-64.0,68.0,-2.0,-77.0,216,127,130,135,134
2025-02-26 14:50:57.848,-968.0,342.0,-61.0,95.0,-2.0,-97.0,215,126,128,135,131
2025-02-26 14:50:57.858,-981.0,369.0,-55.0,105.0,2.0,-116.0,210,120,124,131,128
2025-02-26 14:50:57.863,-953.0,410.0,-84.0,129.0,3.0,-138.0,206,117,121,126,121
2025-02-26 14:50:57.866,-927.0,427.0,-76.0,149.0,8.0,-150.0,205,117,119,125,123
2025-02-26 14:50:57.869,-901.0,491.0,-71.0,166.0,9.0,-176.0,213,124,128,133,131
2025-02-26 14:50:57.876,-878.0,502.0,-78.0,185.0,10.0,-205.0,211,125,128,134,130
2025-02-26 14:50:57.880,-740.0,500.0,-46.0,184.0,14.0,-238.0,216,129,134,141,137
2025-02-26 14:50:57.884,-676.0,448.0,-101.0,181.0,15.0,-272.0,207,118,122,131,127
2025-02-26 14:50:57.892,-563.0,388.0,-98.0,192.0,12.0,-303.0,206,116,120,128,123
2025-02-26 14:50:57.897,-415.0,324.0,-84.0,195.0,4.0,-318.0,211,123,125,131,128
2025-02-26 14:50:57.901,-264.0,183.0,-70.0,194.0,-9.0,-345.0,218,130,131,138,136
2025-02-26 14:50:57.906,-86.0,44.0,-30.0,195.0,-25.0,-366.0,215,126,130,133,132
2025-02-26 14:50:57.913,150.0,-129.0,33.0,193.0,-43.0,-383.0,206,117,121,127,122
2025-02-26 14:50:57.917,287.0,-265.0,158.0,190.0,-52.0,-398.0,205,115,120,125,123
2025-02-26 14:50:57.920,550.0,-352.0,341.0,182.0,-68.0,-403.0,209,117,120,127,126
2025-02-26 14:50:57.929,824.0,-584.0,544.0,174.0,-75.0,-411.0,213,125,129,134,133
2025-02-26 14:50:57.934,1179.0,-1004.0,606.0,164.0,-71.0,-411.0,216,122,127,132,133
2025-02-26 14:50:57.941,1622.0,-1604.0,717.0,159.0,-58.0,-385.0,221,133,136,142,140
2025-02-26 14:50:57.945,1953.0,-2388.0,864.0,147.0,-40.0,-331.0,217,126,131,135,134
2025-02-26 14:50:57.951,2253.0,-3118.0,1115.0,142.0,-13.0,-266.0,211,120,124,130,130
2025-02-26 14:50:57.958,2483.0,-3857.0,1316.0,120.0,24.0,-198.0,212,124,128,131,132
2025-02-26 14:50:57.963,2622.0,-4550.0,1415.0,85.0,47.0,-118.0,209,114,124,130,126
2025-02-26 14:50:57.967,2644.0,-4864.0,1315.0,46.0,50.0,-35.0,207,118,122,128,130
2025-02-26 14:50:57.975,2557.0,-4697.0,1101.0,16.0,49.0,5.0,209,116,122,127,128
2025-02-26 14:50:57.980,2296.0,-4476.0,849.0,-24.0,53.0,79.0,214,124,129,136,137
2025-02-26 14:50:57.983,1964.0,-3980.0,665.0,-56.0,50.0,139.0,216,126,132,136,137
2025-02-26 14:50:57.991,1621.0,-3256.0,381.0,-87.0,47.0,180.0,214,123,129,134,135
2025-02-26 14:50:57.995,1267.0,-2447.0,237.0,-103.0,40.0,207.0,212,121,127,134,133
2025-02-26 14:50:57.999,991.0,-1897.0,142.0,-129.0,30.0,219.0,212,124,126,131,132
2025-02-26 14:50:58.005,929.0,-1577.0,150.0,-146.0,6.0,220.0,208,117,122,127,128
2025-02-26 14:50:58.012,809.0,-1453.0,111.0,-156.0,-21.0,218.0,208,117,121,124,126
2025-02-26 14:50:58.016,709.0,-1364.0,72.0,-156.0,-36.0,208.0,212,123,128,136,135
2025-02-26 14:50:58.024,618.0,-1316.0,21.0,-171.0,-34.0,195.0,215,129,131,136,137
2025-02-26 14:50:58.028,457.0,-1325.0,-86.0,-157.0,-29.0,193.0,214,127,130,137,136
2025-02-26 14:50:58.032,357.0,-1382.0,-78.0,-151.0,-18.0,193.0,209,120,125,130,133
2025-02-26 14:50:58.040,255.0,-1347.0,-111.0,-132.0,-6.0,198.0,212,123,127,131,133
2025-02-26 14:50:58.044,201.0,-1286.0,-117.0,-122.0,-3.0,204.0,208,119,123,125,128
2025-02-26 14:50:58.053,164.0,-1226.0,-143.0,-125.0,-17.0,207.0,206,117,119,125,127
2025-02-26 14:50:58.057,161.0,-1188.0,-25.0,-132.0,-32.0,210.0,203,114,118,123,127
2025-02-26 14:50:58.061,110.0,-1132.0,2.0,-146.0,-48.0,216.0,217,129,133,136,139
2025-02-26 14:50:58.069,92.0,-1014.0,27.0,-173.0,-61.0,220.0,211,124,129,134,137
2025-02-26 14:50:58.072,52.0,-916.0,381.0,-227.0,-58.0,222.0,208,123,129,132,135
2025-02-26 14:50:58.077,27.0,-868.0,103.0,-248.0,-69.0,223.0,210,121,125,131,134
2025-02-26 14:50:58.083,33.0,-760.0,133.0,-271.0,-75.0,224.0,208,115,123,129,132
2025-02-26 14:50:58.090,-40.0,-719.0,173.0,-269.0,-85.0,223.0,205,118,123,128,128
2025-02-26 14:50:58.094,-128.0,-566.0,212.0,-258.0,-81.0,221.0,212,125,130,136,137
2025-02-26 14:50:58.102,-216.0,-472.0,223.0,-222.0,-73.0,216.0,220,133,138,144,146
2025-02-26 14:50:58.106,-355.0,-395.0,192.0,-196.0,-66.0,210.0,213,127,132,136,140
2025-02-26 14:50:58.110,-421.0,-248.0,389.0,-171.0,-44.0,207.0,209,123,128,135,137
2025-02-26 14:50:58.118,-455.0,-170.0,424.0,-131.0,-26.0,199.0,209,122,128,133,137
2025-02-26 14:50:58.120,-486.0,-167.0,400.0,-93.0,-21.0,184.0,208,121,126,133,136
2025-02-26 14:50:58.126,-525.0,-127.0,482.0,-56.0,-15.0,166.0,204,118,122,129,133
2025-02-26 14:50:58.134,-540.0,-92.0,372.0,-21.0,-19.0,156.0,201,114,121,125,134
2025-02-26 14:50:58.139,-591.0,-75.0,159.0,-5.0,-29.0,138.0,210,127,131,137,143
2025-02-26 14:50:58.143,-641.0,-118.0,275.0,16.0,-19.0,120.0,212,128,132,138,144
2025-02-26 14:50:58.150,-642.0,-137.0,166.0,26.0,-8.0,112.0,206,124,127,132,138
2025-02-26 14:50:58.154,-665.0,-149.0,230.0,46.0,-2.0,105.0,202,120,124,130,134
2025-02-26 14:50:58.157,-676.0,-166.0,176.0,63.0,7.0,98.0,209,130,132,138,143
2025-02-26 14:50:58.163,-672.0,-158.0,56.0,68.0,15.0,96.0,208,128,134,138,145
2025-02-26 14:50:58.170,-694.0,-136.0,79.0,70.0,21.0,93.0,206,125,129,136,141
2025-02-26 14:50:58.175,-696.0,-112.0,28.0,70.0,23.0,92.0,199,120,123,129,135
2025-02-26 14:50:58.180,-697.0,-86.0,-7.0,71.0,29.0,92.0,204,124,129,135,141
2025-02-26 14:50:58.184,-705.0,-11.0,-61.0,70.0,31.0,88.0,209,128,133,138,144
2025-02-26 14:50:58.191,-712.0,51.0,-58.0,73.0,38.0,82.0,202,124,129,135,142
2025-02-26 14:50:58.196,-779.0,134.0,-64.0,67.0,39.0,71.0,197,118,123,129,136
2025-02-26 14:50:58.200,-822.0,149.0,-158.0,52.0,39.0,65.0,208,132,136,141,148
2025-02-26 14:50:58.203,-863.0,249.0,-213.0,47.0,37.0,53.0,207,130,134,140,148
2025-02-26 14:50:58.211,-873.0,413.0,-194.0,42.0,31.0,36.0,201,125,129,134,143
2025-02-26 14:50:58.215,-872.0,426.0,-251.0,32.0,26.0,19.0,197,120,124,130,140
2025-02-26 14:50:58.221,-874.0,476.0,-289.0,32.0,19.0,9.0,200,119,126,130,141
2025-02-26 14:50:58.227,-907.0,574.0,-359.0,31.0,1.0,-10.0,204,127,133,139,151
2025-02-26 14:50:58.233,-889.0,534.0,-371.0,40.0,-11.0,-32.0,202,122,128,134,149
2025-02-26 14:50:58.237,-941.0,497.0,-375.0,60.0,-24.0,-55.0,196,119,125,131,146
2025-02-26 14:50:58.242,-940.0,576.0,-347.0,71.0,-32.0,-82.0,199,118,124,131,148
2025-02-26 14:50:58.246,-994.0,507.0,-262.0,100.0,-57.0,-91.0,197,118,122,130,147
2025-02-26 14:50:58.254,-1139.0,339.0,-149.0,112.0,-69.0,-110.0,203,126,129,136,154
2025-02-26 14:50:58.258,-1089.0,436.0,-244.0,110.0,-86.0,-129.0,210,131,136,142,158
2025-02-26 14:50:58.265,-900.0,443.0,-248.0,115.0,-85.0,-156.0,206,126,130,139,154
2025-02-26 14:50:58.270,-816.0,529.0,15.0,124.0,-65.0,-185.0,202,125,127,135,151
2025-02-26 14:50:58.278,-758.0,520.0,-70.0,130.0,-44.0,-213.0,197,117,124,129,145
2025-02-26 14:50:58.282,-695.0,515.0,296.0,131.0,-20.0,-245.0,202,120,125,131,144
2025-02-26 14:50:58.286,-584.0,427.0,329.0,127.0,35.0,-272.0,199,121,124,127,139
2025-02-26 14:50:58.293,-424.0,349.0,270.0,142.0,73.0,-286.0,202,123,125,132,143
2025-02-26 14:50:58.294,-377.0,200.0,416.0,147.0,129.0,-316.0,204,124,126,131,138
2025-02-26 14:50:58.303,-263.0,-17.0,154.0,157.0,166.0,-344.0,203,124,128,131,139
2025-02-26 14:50:58.307,-80.0,-58.0,488.0,171.0,214.0,-366.0,197,121,124,127,130
2025-02-26 14:50:58.314,417.0,-312.0,413.0,222.0,231.0,-381.0,191,115,119,120,125
2025-02-26 14:50:58.319,497.0,-465.0,391.0,269.0,256.0,-408.0,194,121,124,126,130
2025-02-26 14:50:58.327,651.0,-337.0,409.0,310.0,270.0,-424.0,182,114,119,121,125
2025-02-26 14:50:58.331,936.0,-481.0,610.0,388.0,275.0,-444.0,183,122,126,131,132
2025-02-26 14:50:58.335,1094.0,-888.0,711.0,440.0,244.0,-455.0,179,121,127,131,134
2025-02-26 14:50:58.343,1168.0,-1399.0,1136.0,441.0,198.0,-447.0,179,125,129,134,136
2025-02-26 14:50:58.348,1408.0,-2059.0,1337.0,419.0,143.0,-439.0,175,123,125,129,133
2025-02-26 14:50:58.352,1828.0,-2355.0,1111.0,380.0,82.0,-403.0,165,117,123,127,129
2025-02-26 14:50:58.360,1869.0,-3096.0,1660.0,342.0,61.0,-318.0,167,119,123,126,130
2025-02-26 14:50:58.364,1754.0,-4059.0,2265.0,261.0,57.0,-211.0,164,116,119,123,124
2025-02-26 14:50:58.372,1755.0,-4518.0,2399.0,164.0,75.0,-98.0,162,114,119,122,123
2025-02-26 14:50:58.376,1859.0,-4386.0,2140.0,83.0,82.0,2.0,160,112,118,121,122
2025-02-26 14:50:58.379,1856.0,-4320.0,2032.0,-9.0,75.0,46.0,170,127,133,137,135
2025-02-26 14:50:58.388,1648.0,-4039.0,1979.0,-95.0,62.0,114.0,170,124,129,131,129
2025-02-26 14:50:58.391,1271.0,-3309.0,1559.0,-156.0,46.0,147.0,166,119,124,129,128
2025-02-26 14:50:58.397,964.0,-2592.0,1154.0,-180.0,21.0,150.0,162,120,124,127,126
2025-02-26 14:50:58.405,782.0,-2039.0,918.0,-225.0,3.0,145.0,167,124,126,128,125
2025-02-26 14:50:58.409,753.0,-1589.0,542.0,-266.0,-3.0,142.0,162,114,120,124,121
2025-02-26 14:50:58.410,715.0,-1459.0,402.0,-283.0,-6.0,139.0,159,113,118,122,119
2025-02-26 14:50:58.421,666.0,-1472.0,257.0,-280.0,-5.0,139.0,165,125,128,132,130
2025-02-26 14:50:58.422,610.0,-1520.0,95.0,-266.0,-7.0,136.0,167,122,128,132,129
2025-02-26 14:50:58.429,532.0,-1583.0,23.0,-246.0,-9.0,142.0,166,121,126,129,127
2025-02-26 14:50:58.434,359.0,-1620.0,12.0,-233.0,-16.0,152.0,162,119,124,127,124
2025-02-26 14:50:58.442,258.0,-1603.0,-3.0,-207.0,-23.0,166.0,162,119,121,126,124
2025-02-26 14:50:58.446,272.0,-1565.0,22.0,-183.0,-34.0,181.0,158,114,118,122,120
2025-02-26 14:50:58.453,290.0,-1552.0,83.0,-164.0,-44.0,190.0,155,110,115,119,117
2025-02-26 14:50:58.458,255.0,-1515.0,154.0,-147.0,-53.0,208.0,166,123,125,128,129
2025-02-26 14:50:58.463,254.0,-1441.0,203.0,-131.0,-58.0,226.0,168,126,128,131,136
2025-02-26 14:50:58.470,227.0,-1359.0,260.0,-115.0,-63.0,239.0,166,123,125,128,129
2025-02-26 14:50:58.474,202.0,-1280.0,301.0,-106.0,-64.0,251.0,163,120,123,128,126
2025-02-26 14:50:58.479,194.0,-1186.0,355.0,-87.0,-62.0,261.0,172,129,132,137,134
2025-02-26 14:50:58.487,144.0,-1047.0,368.0,-70.0,-60.0,269.0,161,117,121,125,123
2025-02-26 14:50:58.491,118.0,-828.0,385.0,-53.0,-51.0,273.0,160,115,117,121,120
2025-02-26 14:50:58.495,53.0,-686.0,381.0,-43.0,-40.0,272.0,163,118,122,125,124
2025-02-26 14:50:58.503,-18.0,-436.0,381.0,-43.0,-30.0,268.0,171,126,129,133,133
2025-02-26 14:50:58.508,-129.0,-196.0,347.0,-49.0,-22.0,259.0,167,121,129,132,131
2025-02-26 14:50:58.511,-237.0,-45.0,300.0,-57.0,-16.0,245.0,166,121,120,128,126
2025-02-26 14:50:58.519,-302.0,32.0,269.0,-73.0,-15.0,231.0,160,116,120,124,122
2025-02-26 14:50:58.523,-396.0,57.0,238.0,-89.0,-11.0,224.0,161,116,120,120,123
2025-02-26 14:50:58.525,-458.0,60.0,232.0,-102.0,-8.0,210.0,170,125,127,133,130
2025-02-26 14:50:58.535,-488.0,34.0,230.0,-112.0,-2.0,195.0,167,122,125,130,129
2025-02-26 14:50:58.537,-530.0,35.0,209.0,-117.0,2.0,182.0,172,129,131,135,134
2025-02-26 14:50:58.544,-581.0,-3.0,189.0,-116.0,6.0,167.0,163,118,119,125,123
2025-02-26 14:50:58.549,-592.0,-19.0,151.0,-116.0,10.0,159.0,162,115,119,123,122
2025-02-26 14:50:58.556,-617.0,-19.0,97.0,-114.0,14.0,142.0,166,123,126,130,131
2025-02-26 14:50:58.560,-647.0,-12.0,84.0,-113.0,20.0,126.0,175,129,132,136,136
2025-02-26 14:50:58.565,-668.0,13.0,41.0,-113.0,29.0,110.0,167,122,126,130,129
2025-02-26 14:50:58.572,-685.0,12.0,5.0,-111.0,32.0,96.0,162,114,117,121,121
2025-02-26 14:50:58.577,-750.0,16.0,-45.0,-107.0,39.0,91.0,171,124,127,132,131
2025-02-26 14:50:58.581,-764.0,38.0,-56.0,-101.0,45.0,80.0,172,126,131,135,135
2025-02-26 14:50:58.585,-801.0,42.0,-114.0,-98.0,51.0,71.0,169,123,126,131,130
2025-02-26 14:50:58.593,-809.0,63.0,-147.0,-89.0,52.0,62.0,161,114,117,122,121
2025-02-26 14:50:58.598,-834.0,57.0,-172.0,-75.0,56.0,59.0,164,118,123,126,126
2025-02-26 14:50:58.602,-822.0,71.0,-196.0,-60.0,59.0,52.0,168,125,129,140,134
2025-02-26 14:50:58.606,-804.0,82.0,-210.0,-50.0,61.0,46.0,167,122,125,128,129
2025-02-26 14:50:58.614,-807.0,93.0,-220.0,-34.0,62.0,40.0,162,114,118,118,123
2025-02-26 14:50:58.618,-792.0,94.0,-238.0,-19.0,63.0,37.0,160,114,114,119,121
2025-02-26 14:50:58.622,-767.0,113.0,-241.0,-2.0,65.0,31.0,171,126,128,130,133
2025-02-26 14:50:58.630,-787.0,130.0,-263.0,15.0,66.0,21.0,171,125,127,132,133
2025-02-26 14:50:58.634,-770.0,162.0,-311.0,23.0,66.0,10.0,162,118,118,120,124
2025-02-26 14:50:58.639,-750.0,179.0,-369.0,41.0,64.0,-1.0,164,117,118,123,126
2025-02-26 14:50:58.643,-735.0,173.0,-402.0,57.0,61.0,-7.0,171,125,127,131,132
2025-02-26 14:50:58.651,-757.0,199.0,-414.0,75.0,58.0,-19.0,168,123,125,132,132
2025-02-26 14:50:58.655,-770.0,249.0,-445.0,84.0,54.0,-31.0,168,122,123,127,128
2025-02-26 14:50:58.659,-769.0,289.0,-464.0,100.0,53.0,-45.0,171,125,125,129,133
2025-02-26 14:50:58.667,-783.0,387.0,-480.0,121.0,52.0,-53.0,164,118,119,125,127
2025-02-26 14:50:58.670,-840.0,423.0,-501.0,139.0,48.0,-71.0,171,123,126,130,131
2025-02-26 14:50:58.675,-853.0,498.0,-488.0,165.0,46.0,-91.0,170,125,126,132,132
2025-02-26 14:50:58.682,-824.0,579.0,-475.0,178.0,48.0,-112.0,173,127,128,134,134
2025-02-26 14:50:58.687,-763.0,604.0,-459.0,207.0,52.0,-135.0,169,121,124,131,131
2025-02-26 14:50:58.692,-710.0,539.0,-447.0,242.0,54.0,-162.0,162,116,119,125,124
2025-02-26 14:50:58.699,-611.0,433.0,-441.0,293.0,62.0,-192.0,164,118,119,124,125
2025-02-26 14:50:58.703,-500.0,370.0,-486.0,353.0,67.0,-208.0,167,121,131,128,128
2025-02-26 14:50:58.708,-426.0,229.0,-565.0,419.0,63.0,-241.0,170,122,129,131,133
2025-02-26 14:50:58.713,-468.0,173.0,-640.0,476.0,37.0,-272.0,167,123,126,133,133
2025-02-26 14:50:58.720,-524.0,84.0,-619.0,503.0,-6.0,-303.0,175,129,130,138,139
2025-02-26 14:50:58.725,-400.0,69.0,-591.0,545.0,-66.0,-339.0,166,120,120,127,128
2025-02-26 14:50:58.733,-384.0,82.0,-563.0,573.0,-103.0,-372.0,162,116,119,125,126
2025-02-26 14:50:58.737,-330.0,57.0,-441.0,595.0,-186.0,-396.0,164,116,118,126,128
2025-02-26 14:50:58.741,-146.0,0.0,-222.0,607.0,-285.0,-407.0,165,119,120,124,130
2025-02-26 14:50:58.749,186.0,-279.0,13.0,606.0,-392.0,-421.0,171,125,127,133,136
2025-02-26 14:50:58.753,726.0,-674.0,226.0,591.0,-485.0,-406.0,159,122,126,136,137
2025-02-26 14:50:58.758,1481.0,-1240.0,1186.0,589.0,-513.0,-350.0,169,122,126,133,137
2025-02-26 14:50:58.765,2171.0,-1883.0,2232.0,582.0,-475.0,-255.0,174,124,126,133,140
2025-02-26 14:50:58.769,2585.0,-2388.0,3238.0,572.0,-391.0,-165.0,172,120,125,133,138
2025-02-26 14:50:58.775,2763.0,-2671.0,3920.0,533.0,-282.0,-89.0,172,120,124,130,139
2025-02-26 14:50:58.782,2783.0,-2480.0,4304.0,463.0,-152.0,-34.0,179,125,131,137,144
2025-02-26 14:50:58.786,2657.0,-2300.0,4683.0,363.0,-7.0,9.0,172,121,122,130,140
2025-02-26 14:50:58.794,2463.0,-1834.0,4536.0,228.0,61.0,41.0,166,114,119,132,137
2025-02-26 14:50:58.798,2014.0,-1445.0,4164.0,77.0,176.0,51.0,173,117,120,127,137
2025-02-26 14:50:58.803,1597.0,-1275.0,3583.0,-76.0,255.0,60.0,181,126,129,137,143
2025-02-26 14:50:58.810,1176.0,-995.0,3136.0,-215.0,293.0,57.0,179,124,127,136,145
2025-02-26 14:50:58.815,786.0,-877.0,2338.0,-320.0,295.0,50.0,178,125,129,134,144
2025-02-26 14:50:58.823,464.0,-992.0,1651.0,-355.0,275.0,49.0,181,129,131,138,148
2025-02-26 14:50:58.827,314.0,-1151.0,1120.0,-407.0,244.0,59.0,175,120,125,133,143
2025-02-26 14:50:58.830,235.0,-1347.0,695.0,-421.0,229.0,74.0,169,118,120,129,137
2025-02-26 14:50:58.838,227.0,-1497.0,407.0,-404.0,199.0,92.0,167,116,118,126,135
2025-02-26 14:50:58.842,214.0,-1547.0,254.0,-367.0,169.0,102.0,170,120,124,124,138
2025-02-26 14:50:58.848,156.0,-1649.0,131.0,-318.0,139.0,121.0,180,126,128,141,149
2025-02-26 14:50:58.855,44.0,-1695.0,103.0,-262.0,104.0,134.0,178,123,128,136,144
2025-02-26 14:50:58.859,-119.0,-1604.0,38.0,-215.0,67.0,141.0,181,124,128,137,148
2025-02-26 14:50:58.864,-141.0,-1532.0,154.0,-188.0,38.0,144.0,180,122,127,134,143
2025-02-26 14:50:58.872,-127.0,-1383.0,255.0,-156.0,16.0,147.0,177,116,121,131,140
2025-02-26 14:50:58.876,-78.0,-1127.0,385.0,-141.0,10.0,150.0,176,116,120,128,139
2025-02-26 14:50:58.880,-53.0,-901.0,424.0,-135.0,7.0,151.0,182,121,126,134,145
2025-02-26 14:50:58.888,-36.0,-822.0,500.0,-126.0,9.0,149.0,185,127,131,138,147
2025-02-26 14:50:58.892,-16.0,-714.0,607.0,-134.0,23.0,150.0,186,123,129,137,146
2025-02-26 14:50:58.897,-34.0,-625.0,634.0,-136.0,41.0,150.0,184,121,126,132,145
2025-02-26 14:50:58.904,-66.0,-576.0,616.0,-137.0,59.0,151.0,184,120,123,132,143
2025-02-26 14:50:58.909,-80.0,-524.0,593.0,-138.0,67.0,151.0,181,117,123,128,141
2025-02-26 14:50:58.913,-142.0,-526.0,477.0,-137.0,78.0,153.0,179,111,124,130,140
2025-02-26 14:50:58.921,-143.0,-461.0,362.0,-125.0,81.0,153.0,190,124,132,138,150
2025-02-26 14:50:58.925,-201.0,-462.0,363.0,-118.0,82.0,150.0,191,126,133,139,152
2025-02-26 14:50:58.929,-208.0,-435.0,420.0,-125.0,91.0,152.0,187,124,132,136,150
2025-02-26 14:50:58.937,-232.0,-354.0,405.0,-127.0,103.0,148.0,188,123,129,135,148
2025-02-26 14:50:58.941,-462.0,-494.0,220.0,-92.0,104.0,138.0,189,122,131,139,150
2025-02-26 14:50:58.945,-399.0,-430.0,355.0,-87.0,106.0,137.0,185,117,125,131,145
2025-02-26 14:50:58.953,-394.0,-431.0,136.0,-84.0,117.0,139.0,183,116,124,129,141
2025-02-26 14:50:58.957,-304.0,-297.0,-55.0,-89.0,120.0,138.0,191,127,134,138,153
2025-02-26 14:50:58.962,-556.0,-218.0,-149.0,-94.0,109.0,123.0,196,128,135,138,156
2025-02-26 14:50:58.969,-592.0,-247.0,-43.0,-98.0,107.0,109.0,196,127,136,139,155
2025-02-26 14:50:58.974,-539.0,-247.0,29.0,-97.0,118.0,103.0,190,122,130,136,151
2025-02-26 14:50:58.978,-555.0,-210.0,-58.0,-97.0,122.0,100.0,193,126,133,140,154
2025-02-26 14:50:58.987,-552.0,-173.0,-232.0,-92.0,123.0,90.0,186,120,127,132,151
2025-02-26 14:50:58.991,-522.0,-224.0,-366.0,-86.0,122.0,86.0,185,118,127,132,148
2025-02-26 14:50:58.993,-529.0,-292.0,-294.0,-84.0,117.0,81.0,195,128,136,139,158
2025-02-26 14:50:59.002,-562.0,-291.0,-318.0,-86.0,106.0,75.0,198,131,138,145,164
2025-02-26 14:50:59.007,-542.0,-408.0,-320.0,-81.0,101.0,74.0,193,129,136,142,162
2025-02-26 14:50:59.011,-522.0,-488.0,-266.0,-77.0,97.0,74.0,191,119,131,138,162
2025-02-26 14:50:59.019,-528.0,-510.0,-280.0,-70.0,100.0,75.0,187,120,127,136,156
2025-02-26 14:50:59.024,-543.0,-468.0,-238.0,-52.0,106.0,79.0,190,125,129,136,159
2025-02-26 14:50:59.028,-524.0,-541.0,-410.0,-30.0,99.0,79.0,193,127,132,138,163
2025-02-26 14:50:59.035,-485.0,-543.0,-387.0,-8.0,90.0,79.0,191,127,134,142,165
2025-02-26 14:50:59.040,-577.0,-522.0,-539.0,1.0,68.0,72.0,199,137,141,148,170
2025-02-26 14:50:59.044,-613.0,-646.0,-361.0,6.0,71.0,88.0,189,126,130,136,159
2025-02-26 14:50:59.048,-569.0,-554.0,-305.0,38.0,78.0,102.0,187,122,126,135,156
2025-02-26 14:50:59.055,-569.0,-496.0,-554.0,75.0,75.0,107.0,191,132,129,140,160
2025-02-26 14:50:59.060,-569.0,-324.0,-615.0,118.0,73.0,122.0,197,142,136,148,171
2025-02-26 14:50:59.064,-556.0,-294.0,-757.0,154.0,66.0,135.0,193,139,131,143,166
2025-02-26 14:50:59.071,-594.0,-136.0,-855.0,172.0,47.0,130.0,190,138,127,136,160
2025-02-26 14:50:59.076,-714.0,-112.0,-1045.0,206.0,23.0,124.0,186,134,122,136,156
2025-02-26 14:50:59.083,-746.0,-21.0,-1085.0,231.0,13.0,115.0,187,138,129,136,158
2025-02-26 14:50:59.089,-760.0,-10.0,-1129.0,270.0,-8.0,113.0,186,140,121,135,159
2025-02-26 14:50:59.093,-747.0,61.0,-1271.0,308.0,-29.0,104.0,190,146,128,142,163
2025-02-26 14:50:59.100,-855.0,116.0,-1331.0,359.0,-59.0,88.0,193,151,128,141,164
2025-02-26 14:50:59.106,-850.0,108.0,-1504.0,397.0,-93.0,70.0,191,152,127,140,163
2025-02-26 14:50:59.109,-1046.0,20.0,-1366.0,420.0,-123.0,64.0,186,151,124,134,157
2025-02-26 14:50:59.117,-947.0,457.0,-1246.0,468.0,-164.0,47.0,182,150,120,133,156
2025-02-26 14:50:59.121,-872.0,389.0,-1240.0,497.0,-181.0,44.0,184,153,122,134,154
2025-02-26 14:50:59.126,-770.0,507.0,-1180.0,514.0,-224.0,24.0,178,151,118,127,149
2025-02-26 14:50:59.134,-668.0,585.0,-1105.0,517.0,-276.0,11.0,173,151,114,125,143
2025-02-26 14:50:59.138,-601.0,629.0,-646.0,523.0,-318.0,-9.0,180,161,124,135,153
2025-02-26 14:50:59.143,-427.0,508.0,-534.0,545.0,-352.0,-19.0,180,165,119,135,153
2025-02-26 14:50:59.150,-317.0,381.0,-548.0,547.0,-402.0,-31.0,176,164,124,132,151
2025-02-26 14:50:59.154,-205.0,485.0,-238.0,544.0,-449.0,-51.0,175,164,122,129,149
2025-02-26 14:50:59.158,66.0,549.0,175.0,547.0,-484.0,-68.0,180,172,132,137,154
2025-02-26 14:50:59.167,215.0,874.0,474.0,533.0,-501.0,-102.0,165,156,120,126,143
2025-02-26 14:50:59.171,487.0,896.0,943.0,538.0,-530.0,-117.0,160,156,119,124,141
2025-02-26 14:50:59.175,567.0,924.0,1408.0,538.0,-550.0,-146.0,164,161,123,128,145
2025-02-26 14:50:59.183,879.0,530.0,1879.0,562.0,-549.0,-137.0,168,166,129,132,151
2025-02-26 14:50:59.187,928.0,525.0,2005.0,531.0,-564.0,-129.0,162,167,126,132,150
2025-02-26 14:50:59.195,1133.0,410.0,2691.0,529.0,-558.0,-105.0,160,162,124,129,147
2025-02-26 14:50:59.199,1233.0,586.0,2919.0,517.0,-567.0,-79.0,155,162,122,127,145
2025-02-26 14:50:59.204,1279.0,391.0,3672.0,465.0,-526.0,-88.0,154,163,121,127,145
2025-02-26 14:50:59.211,1354.0,585.0,3935.0,397.0,-507.0,-121.0,149,168,118,125,142
2025-02-26 14:50:59.223,1541.0,957.0,4096.0,326.0,-467.0,-140.0,148,165,117,124,141
2025-02-26 14:50:59.225,1619.0,958.0,4271.0,266.0,-419.0,-163.0,156,170,123,129,146
2025-02-26 14:50:59.228,1333.0,1123.0,4199.0,156.0,-342.0,-167.0,149,169,118,123,142
2025-02-26 14:50:59.232,1435.0,516.0,3936.0,59.0,-257.0,-161.0,155,173,122,126,146
2025-02-26 14:50:59.239,1286.0,26.0,3680.0,-23.0,-137.0,-122.0,158,175,127,130,150
2025-02-26 14:50:59.244,1217.0,-378.0,3308.0,-100.0,-35.0,-71.0,160,179,128,133,152
2025-02-26 14:50:59.249,1063.0,-854.0,3026.0,-153.0,66.0,-1.0,157,177,126,130,147
2025-02-26 14:50:59.257,989.0,-1107.0,2559.0,-176.0,146.0,68.0,152,174,123,125,144
2025-02-26 14:50:59.260,833.0,-947.0,2049.0,-202.0,194.0,112.0,156,181,126,131,145
2025-02-26 14:50:59.265,877.0,-902.0,1808.0,-206.0,213.0,141.0,148,173,119,123,140
2025-02-26 14:50:59.272,757.0,-677.0,1479.0,-207.0,229.0,154.0,145,171,116,120,132
