timestamp,ax,ay,az,gx,gy,gz,flex1,flex2,flex3,flex4,flex5,emg1,emg2,emg3
2025-02-25 18:03:51.333,0.0,-956.0,203.0,1.0,2.0,-3.0,212,180,174,190,181
2025-02-25 18:03:51.336,-258.0,-953.0,206.0,1.0,2.0,-3.0,209,178,174,187,180
2025-02-25 18:03:51.341,-260.0,-956.0,203.0,-2.0,1.0,-1.0,207,174,170,184,177
2025-02-25 18:03:51.343,-263.0,-949.0,195.0,-2.0,1.0,-1.0,209,176,171,185,179
2025-02-25 18:03:51.345,-259.0,-952.0,202.0,-1.0,1.0,-1.0,210,178,174,187,180
2025-02-25 18:03:51.348,-258.0,-946.0,197.0,-2.0,1.0,-1.0,209,177,171,186,178
2025-02-25 18:03:51.350,-262.0,-944.0,194.0,-2.0,0.0,-1.0,206,174,169,182,176
2025-02-25 18:03:51.353,-260.0,-944.0,196.0,-2.0,0.0,-1.0,217,185,180,194,186
2025-02-25 18:03:51.355,-256.0,-949.0,192.0,-3.0,0.0,-1.0,210,177,173,186,179
2025-02-25 18:03:51.357,-258.0,-944.0,192.0,-2.0,0.0,-1.0,204,174,168,182,175
2025-02-25 18:03:51.360,-259.0,-949.0,197.0,-2.0,0.0,-1.0,210,180,174,189,181
2025-02-25 18:03:51.362,-255.0,-950.0,196.0,-2.0,0.0,-2.0,214,183,177,191,180
2025-02-25 18:03:51.364,-256.0,-957.0,193.0,-2.0,0.0,-1.0,203,171,166,181,173
2025-02-25 18:03:51.367,-249.0,-957.0,192.0,-2.0,0.0,-2.0,211,179,173,188,180
2025-02-25 18:03:51.369,-234.0,-949.0,209.0,-1.0,-2.0,-2.0,206,175,169,184,177
2025-02-25 18:03:51.371,-230.0,-947.0,204.0,-1.0,-2.0,-1.0,210,179,174,188,180
2025-02-25 18:03:51.374,-234.0,-952.0,197.0,0.0,-1.0,-2.0,211,179,173,188,181
2025-02-25 18:03:51.376,-248.0,-957.0,192.0,-1.0,-1.0,-1.0,207,175,170,184,177
2025-02-25 18:03:51.379,-252.0,-961.0,192.0,0.0,-1.0,-2.0,205,174,169,183,175
2025-02-25 18:03:51.381,-262.0,-964.0,193.0,0.0,-1.0,-1.0,216,184,179,193,186
2025-02-25 18:03:51.384,-268.0,-958.0,189.0,0.0,-1.0,-2.0,207,177,172,186,179
2025-02-25 18:03:51.386,-262.0,-965.0,186.0,0.0,-1.0,-2.0,204,172,167,181,175
2025-02-25 18:03:51.389,-262.0,-962.0,186.0,0.0,-1.0,-2.0,211,180,174,189,180
2025-02-25 18:03:51.392,-260.0,-960.0,189.0,-1.0,0.0,-2.0,206,176,170,187,177
2025-02-25 18:03:51.395,-265.0,-964.0,187.0,0.0,-1.0,-1.0,206,173,169,183,175
2025-02-25 18:03:51.397,-263.0,-964.0,190.0,0.0,-1.0,-1.0,211,180,173,187,180
2025-02-25 18:03:51.399,-263.0,-966.0,189.0,0.0,-1.0,-1.0,206,174,169,183,175
2025-02-25 18:03:51.401,-264.0,-965.0,187.0,-1.0,-1.0,-1.0,205,174,168,183,175
2025-02-25 18:03:51.404,-257.0,-959.0,204.0,1.0,0.0,-1.0,211,180,175,189,181
2025-02-25 18:03:51.406,-282.0,-980.0,165.0,-4.0,0.0,-2.0,209,178,173,185,179
2025-02-25 18:03:51.409,-258.0,-947.0,193.0,-2.0,2.0,-2.0,206,174,168,183,175
2025-02-25 18:03:51.411,-276.0,-966.0,191.0,-2.0,3.0,-2.0,203,172,166,180,174
2025-02-25 18:03:51.414,-254.0,-947.0,220.0,-2.0,4.0,-3.0,211,179,172,187,180
2025-02-25 18:03:51.416,-258.0,-965.0,184.0,-3.0,2.0,-2.0,209,177,172,185,178
2025-02-25 18:03:51.418,-266.0,-964.0,209.0,-2.0,2.0,-2.0,206,175,168,182,175
2025-02-25 18:03:51.421,-262.0,-958.0,200.0,-3.0,0.0,-2.0,204,174,168,183,176
2025-02-25 18:03:51.424,-258.0,-966.0,212.0,-2.0,-1.0,-2.0,210,179,174,188,181
2025-02-25 18:03:51.426,-258.0,-966.0,203.0,-1.0,0.0,-2.0,209,177,172,187,179
2025-02-25 18:03:51.429,-264.0,-958.0,206.0,1.0,1.0,-1.0,206,174,169,182,175
2025-02-25 18:03:51.431,-261.0,-956.0,199.0,2.0,1.0,-1.0,209,178,173,187,178
2025-02-25 18:03:51.433,-262.0,-959.0,203.0,2.0,1.0,-1.0,211,179,174,187,180
2025-02-25 18:03:51.435,-264.0,-952.0,195.0,2.0,0.0,0.0,213,178,173,186,179
2025-02-25 18:03:51.437,-268.0,-957.0,205.0,1.0,-1.0,-1.0,205,173,168,182,175
2025-02-25 18:03:51.439,-261.0,-956.0,190.0,-2.0,-2.0,-1.0,216,185,179,194,187
2025-02-25 18:03:51.442,-262.0,-951.0,198.0,-3.0,-2.0,-1.0,210,179,173,187,180
2025-02-25 18:03:51.444,-262.0,-951.0,202.0,-2.0,-2.0,-1.0,211,178,173,187,180
2025-02-25 18:03:51.446,-260.0,-954.0,204.0,-2.0,-2.0,-1.0,205,173,167,181,174
2025-02-25 18:03:51.448,-252.0,-948.0,199.0,-2.0,-2.0,-1.0,211,179,173,186,180
2025-02-25 18:03:51.450,-250.0,-955.0,199.0,-3.0,-2.0,-2.0,210,178,173,187,181
2025-02-25 18:03:51.452,-253.0,-956.0,210.0,-3.0,-2.0,-2.0,209,178,172,188,178
2025-02-25 18:03:51.455,-252.0,-963.0,211.0,-3.0,-2.0,-1.0,207,173,167,182,175
2025-02-25 18:03:51.457,-245.0,-966.0,199.0,-2.0,-2.0,-2.0,207,174,169,184,177
2025-02-25 18:03:51.460,-250.0,-962.0,203.0,-2.0,-1.0,-2.0,209,178,173,187,180
2025-02-25 18:03:51.462,-256.0,-968.0,202.0,-1.0,0.0,-2.0,210,180,174,187,180
2025-02-25 18:03:51.464,-250.0,-970.0,199.0,0.0,1.0,-2.0,205,173,168,183,176
2025-02-25 18:03:51.466,-255.0,-966.0,203.0,0.0,0.0,-2.0,206,176,170,184,177
2025-02-25 18:03:51.469,-250.0,-969.0,197.0,1.0,1.0,-2.0,214,179,174,191,181
2025-02-25 18:03:51.471,-259.0,-965.0,196.0,1.0,1.0,-2.0,208,176,171,185,178
2025-02-25 18:03:51.474,-260.0,-960.0,190.0,1.0,2.0,-2.0,204,172,167,183,175
2025-02-25 18:03:51.476,-265.0,-959.0,186.0,2.0,2.0,-2.0,212,180,175,190,182
2025-02-25 18:03:51.478,-261.0,-958.0,188.0,2.0,1.0,-2.0,209,177,172,187,178
2025-02-25 18:03:51.480,-260.0,-952.0,185.0,1.0,1.0,-2.0,206,173,169,183,176
2025-02-25 18:03:51.483,-257.0,-949.0,180.0,1.0,1.0,-2.0,204,174,169,181,176
2025-02-25 18:03:51.485,-258.0,-954.0,183.0,1.0,0.0,-2.0,211,180,175,189,182
2025-02-25 18:03:51.487,-250.0,-954.0,185.0,1.0,-1.0,-1.0,206,176,172,186,178
2025-02-25 18:03:51.490,-261.0,-947.0,187.0,1.0,0.0,-1.0,205,173,168,183,175
2025-02-25 18:03:51.492,-253.0,-954.0,189.0,2.0,0.0,-2.0,206,174,168,182,174
2025-02-25 18:03:51.494,-253.0,-958.0,186.0,1.0,-1.0,-2.0,212,180,176,190,182
2025-02-25 18:03:51.496,-250.0,-959.0,190.0,2.0,-1.0,-2.0,210,179,170,187,179
2025-02-25 18:03:51.498,-255.0,-960.0,195.0,2.0,-1.0,-2.0,204,173,166,181,175
2025-02-25 18:03:51.500,-256.0,-961.0,206.0,3.0,-2.0,-2.0,211,180,174,188,181
2025-02-25 18:03:51.503,-250.0,-960.0,197.0,3.0,-2.0,-2.0,212,180,175,189,183
2025-02-25 18:03:51.508,-253.0,-952.0,195.0,3.0,-1.0,-3.0,209,177,173,187,180
2025-02-25 18:03:51.515,-254.0,-954.0,200.0,3.0,-1.0,-3.0,203,172,167,182,174
2025-02-25 18:03:51.519,-259.0,-958.0,193.0,3.0,-1.0,-3.0,216,185,179,193,186
2025-02-25 18:03:51.524,-262.0,-956.0,190.0,4.0,0.0,-3.0,210,178,174,188,181
2025-02-25 18:03:51.528,-260.0,-954.0,191.0,4.0,-1.0,-3.0,205,174,169,183,176
2025-02-25 18:03:51.536,-255.0,-957.0,200.0,3.0,-1.0,-3.0,206,174,168,182,176
2025-02-25 18:03:51.540,-259.0,-959.0,192.0,1.0,-1.0,-3.0,217,184,181,194,186
2025-02-25 18:03:51.544,-257.0,-959.0,194.0,0.0,-2.0,-2.0,210,180,174,187,181
2025-02-25 18:03:51.549,-254.0,-964.0,211.0,-1.0,-2.0,-3.0,205,174,169,184,175
2025-02-25 18:03:51.556,-257.0,-965.0,208.0,-1.0,-2.0,-2.0,206,173,167,183,174
2025-02-25 18:03:51.560,-250.0,-965.0,210.0,-1.0,-2.0,-2.0,215,183,178,192,185
2025-02-25 18:03:51.564,-245.0,-969.0,207.0,0.0,-1.0,-2.0,209,178,173,187,181
2025-02-25 18:03:51.569,-243.0,-970.0,213.0,0.0,-1.0,-2.0,209,178,172,187,180
2025-02-25 18:03:51.576,-238.0,-973.0,219.0,0.0,-2.0,-2.0,205,173,167,181,174
2025-02-25 18:03:51.580,-245.0,-972.0,221.0,-1.0,-2.0,-1.0,213,182,177,191,183
2025-02-25 18:03:51.585,-244.0,-976.0,224.0,0.0,-2.0,-1.0,211,178,174,188,180
2025-02-25 18:03:51.589,-250.0,-977.0,215.0,-1.0,-1.0,-1.0,209,177,171,186,180
2025-02-25 18:03:51.597,-248.0,-971.0,223.0,-1.0,-1.0,-1.0,205,173,168,182,174
2025-02-25 18:03:51.601,-252.0,-963.0,218.0,0.0,-1.0,-1.0,209,178,173,186,179
2025-02-25 18:03:51.605,-250.0,-967.0,217.0,-1.0,-1.0,-1.0,212,184,174,188,182
2025-02-25 18:03:51.613,-254.0,-964.0,215.0,0.0,0.0,0.0,207,177,172,187,179
2025-02-25 18:03:51.617,-254.0,-966.0,218.0,0.0,0.0,-1.0,204,170,167,181,174
2025-02-25 18:03:51.621,-255.0,-966.0,217.0,0.0,0.0,-1.0,213,181,175,190,182
2025-02-25 18:03:51.626,-258.0,-959.0,213.0,0.0,-1.0,-1.0,213,178,173,187,180
2025-02-25 18:03:51.630,-250.0,-957.0,218.0,0.0,0.0,-1.0,206,173,169,183,176
2025-02-25 18:03:51.637,-250.0,-957.0,219.0,0.0,0.0,-1.0,203,172,168,184,175
2025-02-25 18:03:51.642,-253.0,-955.0,218.0,0.0,0.0,-1.0,212,181,175,189,182
2025-02-25 18:03:51.646,-254.0,-950.0,219.0,0.0,1.0,-2.0,209,177,172,185,178
2025-02-25 18:03:51.650,-253.0,-955.0,212.0,1.0,1.0,-2.0,206,174,169,182,175
2025-02-25 18:03:51.658,-253.0,-954.0,215.0,1.0,1.0,-2.0,210,179,173,187,181
2025-02-25 18:03:51.663,-254.0,-954.0,212.0,1.0,1.0,-1.0,211,181,174,189,181
2025-02-25 18:03:51.667,-250.0,-954.0,215.0,1.0,1.0,-2.0,207,174,167,180,175
2025-02-25 18:03:51.671,-252.0,-958.0,214.0,1.0,1.0,-2.0,206,175,169,184,176
2025-02-25 18:03:51.679,-251.0,-949.0,214.0,1.0,2.0,-2.0,210,179,174,189,182
2025-02-25 18:03:51.683,-253.0,-952.0,211.0,1.0,1.0,-2.0,207,177,172,187,180
2025-02-25 18:03:51.687,-253.0,-955.0,211.0,1.0,2.0,-1.0,204,174,167,181,176
2025-02-25 18:03:51.692,-253.0,-953.0,207.0,0.0,1.0,-1.0,209,179,174,188,180
2025-02-25 18:03:51.699,-250.0,-948.0,206.0,0.0,2.0,-2.0,210,180,174,188,181
2025-02-25 18:03:51.703,-257.0,-954.0,202.0,0.0,2.0,-1.0,207,176,170,185,177
2025-02-25 18:03:51.708,-248.0,-948.0,205.0,0.0,2.0,-2.0,205,172,167,183,175
2025-02-25 18:03:51.712,-251.0,-951.0,203.0,0.0,1.0,-2.0,212,180,174,189,181
2025-02-25 18:03:51.716,-253.0,-957.0,204.0,0.0,1.0,-2.0,208,178,172,186,178
2025-02-25 18:03:51.724,-252.0,-956.0,204.0,0.0,1.0,-2.0,206,174,169,185,176
2025-02-25 18:03:51.728,-251.0,-954.0,206.0,0.0,1.0,-2.0,209,177,169,184,177
2025-02-25 18:03:51.733,-252.0,-958.0,208.0,0.0,1.0,-2.0,210,179,175,189,181
2025-02-25 18:03:51.737,-251.0,-959.0,209.0,0.0,1.0,-2.0,206,172,171,185,178
2025-02-25 18:03:51.745,-252.0,-966.0,209.0,0.0,0.0,-3.0,207,175,170,184,177
2025-02-25 18:03:51.749,-248.0,-963.0,203.0,0.0,1.0,-2.0,211,179,174,188,180
2025-02-25 18:03:51.753,-253.0,-967.0,207.0,0.0,1.0,-2.0,209,178,173,187,179
2025-02-25 18:03:51.757,-251.0,-968.0,209.0,0.0,1.0,-2.0,205,174,169,183,176
2025-02-25 18:03:51.765,-255.0,-965.0,210.0,0.0,1.0,-2.0,210,177,171,187,178
2025-02-25 18:03:51.769,-254.0,-968.0,208.0,1.0,1.0,-2.0,212,179,173,187,179
2025-02-25 18:03:51.774,-248.0,-967.0,210.0,0.0,1.0,-1.0,208,177,169,184,178
2025-02-25 18:03:51.778,-250.0,-964.0,206.0,0.0,1.0,-2.0,206,175,169,183,176
2025-02-25 18:03:51.785,-244.0,-965.0,200.0,1.0,1.0,-1.0,212,181,175,189,181
2025-02-25 18:03:51.790,-249.0,-964.0,208.0,1.0,2.0,-2.0,208,177,173,186,179
2025-02-25 18:03:51.794,-244.0,-973.0,201.0,1.0,2.0,-1.0,206,174,168,183,174
2025-02-25 18:03:51.798,-242.0,-974.0,208.0,1.0,2.0,-1.0,212,180,173,187,180
2025-02-25 18:03:51.803,-240.0,-969.0,197.0,2.0,2.0,-1.0,211,179,173,188,180
2025-02-25 18:03:51.810,-249.0,-967.0,204.0,2.0,2.0,-1.0,209,177,171,186,179
2025-02-25 18:03:51.814,-243.0,-971.0,199.0,2.0,2.0,-1.0,205,173,167,181,174
2025-02-25 18:03:51.819,-244.0,-976.0,200.0,3.0,2.0,-1.0,216,185,181,194,188
2025-02-25 18:03:51.823,-245.0,-971.0,201.0,2.0,2.0,0.0,209,177,172,187,179
2025-02-25 18:03:51.830,-245.0,-969.0,200.0,3.0,2.0,0.0,205,173,167,182,175
2025-02-25 18:03:51.835,-250.0,-971.0,199.0,3.0,2.0,0.0,210,179,175,189,181
2025-02-25 18:03:51.839,-256.0,-975.0,199.0,2.0,2.0,0.0,217,185,180,194,187
2025-02-25 18:03:51.843,-253.0,-968.0,193.0,3.0,1.0,0.0,203,172,168,182,175
2025-02-25 18:03:51.848,-255.0,-972.0,204.0,2.0,2.0,0.0,205,172,168,182,175
2025-02-25 18:03:51.855,-251.0,-963.0,196.0,1.0,1.0,0.0,211,178,175,187,181
2025-02-25 18:03:51.859,-250.0,-961.0,195.0,2.0,1.0,0.0,209,178,174,188,181
2025-02-25 18:03:51.864,-250.0,-962.0,189.0,3.0,1.0,1.0,203,169,165,179,173
2025-02-25 18:03:51.868,-248.0,-959.0,192.0,2.0,1.0,1.0,211,177,175,189,182
2025-02-25 18:03:51.876,-245.0,-960.0,194.0,3.0,1.0,1.0,209,176,173,188,181
2025-02-25 18:03:51.880,-246.0,-969.0,200.0,3.0,1.0,1.0,208,175,171,186,180
2025-02-25 18:03:51.884,-250.0,-965.0,196.0,3.0,1.0,1.0,211,177,176,189,182
2025-02-25 18:03:51.888,-241.0,-964.0,199.0,3.0,2.0,0.0,207,174,172,185,179
2025-02-25 18:03:51.893,-245.0,-963.0,203.0,3.0,2.0,0.0,204,168,166,182,174
2025-02-25 18:03:51.900,-249.0,-964.0,229.0,1.0,0.0,1.0,211,176,174,189,183
2025-02-25 18:03:51.904,-228.0,-951.0,236.0,0.0,3.0,0.0,208,173,173,189,179
2025-02-25 18:03:51.909,-251.0,-974.0,197.0,3.0,4.0,1.0,204,170,168,182,174
2025-02-25 18:03:51.913,-264.0,-970.0,209.0,3.0,5.0,0.0,211,175,175,189,182
2025-02-25 18:03:51.918,-246.0,-962.0,197.0,2.0,5.0,0.0,210,176,175,188,182
2025-02-25 18:03:51.925,-257.0,-965.0,193.0,3.0,6.0,0.0,205,169,168,184,177
2025-02-25 18:03:51.929,-265.0,-954.0,209.0,3.0,5.0,1.0,207,172,170,183,175
2025-02-25 18:03:51.933,-250.0,-961.0,219.0,4.0,4.0,1.0,210,176,174,188,182
2025-02-25 18:03:51.938,-259.0,-961.0,211.0,5.0,4.0,1.0,205,170,168,183,175
2025-02-25 18:03:51.942,-261.0,-962.0,213.0,8.0,4.0,0.0,203,167,167,181,174
2025-02-25 18:03:51.949,-264.0,-962.0,219.0,9.0,3.0,1.0,210,176,174,189,183
2025-02-25 18:03:51.953,-256.0,-965.0,220.0,9.0,3.0,1.0,209,172,172,185,180
2025-02-25 18:03:51.958,-259.0,-952.0,229.0,8.0,4.0,0.0,205,169,168,182,175
2025-02-25 18:03:51.962,-260.0,-954.0,228.0,7.0,4.0,0.0,211,176,175,190,183
2025-02-25 18:03:51.970,-262.0,-960.0,227.0,7.0,4.0,0.0,209,173,171,186,180
2025-02-25 18:03:51.974,-263.0,-958.0,233.0,6.0,4.0,0.0,204,167,167,181,174
2025-02-25 18:03:51.979,-257.0,-953.0,230.0,6.0,3.0,0.0,212,176,174,188,182
2025-02-25 18:03:51.982,-256.0,-950.0,224.0,6.0,2.0,1.0,210,174,173,187,180
2025-02-25 18:03:51.987,-253.0,-943.0,229.0,5.0,2.0,1.0,204,167,167,181,175
2025-02-25 18:03:51.994,-256.0,-938.0,227.0,3.0,1.0,1.0,211,174,176,188,182
2025-02-25 18:03:51.999,-259.0,-938.0,234.0,2.0,1.0,2.0,212,174,174,189,181
2025-02-25 18:03:52.003,-257.0,-940.0,230.0,1.0,0.0,1.0,206,168,170,183,176
2025-02-25 18:03:52.007,-257.0,-941.0,236.0,0.0,0.0,1.0,207,169,171,185,177
2025-02-25 18:03:52.015,-256.0,-944.0,240.0,-1.0,1.0,1.0,210,173,173,187,181
2025-02-25 18:03:52.019,-261.0,-950.0,242.0,-1.0,1.0,0.0,204,168,168,181,176
2025-02-25 18:03:52.024,-248.0,-948.0,249.0,-1.0,1.0,0.0,206,166,170,183,176
2025-02-25 18:03:52.028,-253.0,-953.0,245.0,-3.0,1.0,0.0,211,172,173,188,180
2025-02-25 18:03:52.032,-255.0,-954.0,238.0,-3.0,1.0,0.0,207,170,171,187,180
2025-02-25 18:03:52.039,-257.0,-948.0,241.0,-4.0,2.0,0.0,205,167,168,181,175
2025-02-25 18:03:52.044,-260.0,-951.0,242.0,-5.0,2.0,0.0,211,174,175,186,181
2025-02-25 18:03:52.048,-255.0,-945.0,239.0,-5.0,2.0,0.0,210,172,174,187,181
2025-02-25 18:03:52.052,-257.0,-945.0,243.0,-5.0,2.0,0.0,205,167,168,180,175
2025-02-25 18:03:52.060,-262.0,-941.0,235.0,-5.0,2.0,0.0,200,167,168,181,176
2025-02-25 18:03:52.064,-260.0,-946.0,231.0,-4.0,2.0,-1.0,212,175,175,189,182
2025-02-25 18:03:52.069,-264.0,-941.0,225.0,-4.0,3.0,0.0,209,171,172,186,180
2025-02-25 18:03:52.073,-267.0,-941.0,229.0,-3.0,3.0,-1.0,206,166,168,182,175
2025-02-25 18:03:52.080,-263.0,-945.0,222.0,-3.0,3.0,-1.0,207,169,169,184,177
2025-02-25 18:03:52.085,-272.0,-945.0,223.0,-3.0,3.0,-1.0,211,173,175,186,181
2025-02-25 18:03:52.089,-275.0,-949.0,221.0,-3.0,2.0,-1.0,209,170,171,185,178
2025-02-25 18:03:52.094,-274.0,-947.0,223.0,-3.0,2.0,-1.0,204,167,168,182,175
2025-02-25 18:03:52.101,-272.0,-946.0,225.0,-3.0,2.0,-1.0,211,173,173,187,179
2025-02-25 18:03:52.105,-261.0,-947.0,220.0,-3.0,2.0,-1.0,210,174,173,187,181
2025-02-25 18:03:52.110,-267.0,-961.0,223.0,-5.0,3.0,-2.0,208,171,172,185,178
2025-02-25 18:03:52.114,-251.0,-951.0,206.0,-3.0,4.0,-1.0,204,167,168,182,176
2025-02-25 18:03:52.121,-254.0,-963.0,219.0,-1.0,5.0,-2.0,210,173,174,186,179
2025-02-25 18:03:52.126,-257.0,-971.0,227.0,-3.0,5.0,-2.0,210,173,174,188,180
2025-02-25 18:03:52.130,-251.0,-966.0,214.0,-4.0,6.0,-1.0,209,172,173,186,179
2025-02-25 18:03:52.134,-253.0,-972.0,216.0,-4.0,6.0,-1.0,204,167,166,181,174
2025-02-25 18:03:52.142,-253.0,-968.0,215.0,-4.0,5.0,-1.0,214,176,177,190,182
2025-02-25 18:03:52.146,-247.0,-965.0,222.0,-3.0,6.0,-1.0,211,173,173,188,181
2025-02-25 18:03:52.150,-259.0,-973.0,218.0,-2.0,7.0,-1.0,211,172,173,186,180
2025-02-25 18:03:52.155,-251.0,-972.0,210.0,-1.0,6.0,0.0,203,166,166,180,173
2025-02-25 18:03:52.162,-247.0,-965.0,223.0,0.0,7.0,0.0,214,176,178,190,183
2025-02-25 18:03:52.166,-247.0,-965.0,210.0,1.0,6.0,1.0,211,175,175,188,180
2025-02-25 18:03:52.170,-245.0,-967.0,216.0,2.0,7.0,1.0,205,167,168,182,174
2025-02-25 18:03:52.174,-243.0,-963.0,219.0,1.0,6.0,2.0,208,171,171,184,177
2025-02-25 18:03:52.183,-252.0,-958.0,208.0,2.0,5.0,2.0,214,177,178,191,183
2025-02-25 18:03:52.186,-255.0,-964.0,210.0,3.0,5.0,3.0,204,167,168,180,175
2025-02-25 18:03:52.191,-263.0,-959.0,208.0,4.0,6.0,3.0,203,165,165,179,172
2025-02-25 18:03:52.195,-272.0,-950.0,199.0,3.0,5.0,4.0,212,175,175,188,181
2025-02-25 18:03:52.199,-277.0,-950.0,199.0,3.0,5.0,5.0,210,173,172,187,180
2025-02-25 18:03:52.207,-274.0,-948.0,195.0,2.0,5.0,5.0,205,168,168,181,174
2025-02-25 18:03:52.211,-274.0,-946.0,194.0,1.0,4.0,5.0,211,174,175,188,182
2025-02-25 18:03:52.215,-281.0,-941.0,192.0,1.0,4.0,5.0,211,174,173,186,178
2025-02-25 18:03:52.220,-273.0,-938.0,190.0,1.0,4.0,5.0,208,170,170,184,177
2025-02-25 18:03:52.224,-275.0,-939.0,191.0,2.0,4.0,4.0,211,174,174,187,181
2025-02-25 18:03:52.232,-275.0,-936.0,190.0,2.0,3.0,3.0,208,171,171,185,179
2025-02-25 18:03:52.236,-267.0,-934.0,188.0,1.0,2.0,2.0,205,167,168,181,174
2025-02-25 18:03:52.240,-270.0,-939.0,196.0,0.0,0.0,2.0,214,179,177,191,184
2025-02-25 18:03:52.245,-269.0,-931.0,196.0,0.0,-1.0,1.0,210,174,174,187,181
2025-02-25 18:03:52.253,-269.0,-935.0,191.0,0.0,-1.0,1.0,204,169,168,181,174
2025-02-25 18:03:52.257,-266.0,-933.0,196.0,1.0,-1.0,0.0,204,166,165,179,173
2025-02-25 18:03:52.260,-263.0,-937.0,194.0,2.0,-1.0,-1.0,214,178,178,191,183
2025-02-25 18:03:52.265,-258.0,-944.0,195.0,2.0,-1.0,-1.0,208,172,171,186,178
2025-02-25 18:03:52.272,-265.0,-946.0,196.0,2.0,-1.0,-1.0,206,170,169,182,175
2025-02-25 18:03:52.277,-262.0,-958.0,196.0,2.0,-2.0,-1.0,209,171,171,186,178
2025-02-25 18:03:52.281,-264.0,-963.0,195.0,2.0,-2.0,-1.0,213,177,176,191,183
2025-02-25 18:03:52.285,-268.0,-967.0,200.0,2.0,-2.0,-1.0,210,174,174,186,179
2025-02-25 18:03:52.293,-267.0,-968.0,198.0,2.0,-2.0,0.0,203,167,166,181,174
2025-02-25 18:03:52.297,-267.0,-977.0,207.0,2.0,-2.0,0.0,212,175,174,189,182
2025-02-25 18:03:52.301,-265.0,-980.0,207.0,2.0,-3.0,1.0,212,178,176,190,183
2025-02-25 18:03:52.306,-264.0,-980.0,210.0,2.0,-3.0,1.0,204,169,168,183,174
2025-02-25 18:03:52.310,-264.0,-981.0,212.0,1.0,-3.0,1.0,203,163,169,180,175
2025-02-25 18:03:52.318,-264.0,-984.0,209.0,2.0,-3.0,2.0,210,176,174,188,181
2025-02-25 18:03:52.322,-263.0,-982.0,210.0,1.0,-3.0,2.0,212,176,174,185,180
2025-02-25 18:03:52.326,-262.0,-982.0,213.0,1.0,-3.0,2.0,204,168,167,180,173
2025-02-25 18:03:52.330,-260.0,-982.0,213.0,1.0,-3.0,2.0,211,175,175,189,182
2025-02-25 18:03:52.338,-262.0,-986.0,213.0,2.0,-3.0,2.0,211,175,174,187,180
2025-02-25 18:03:52.342,-266.0,-980.0,211.0,1.0,-2.0,3.0,207,170,167,184,177
2025-02-25 18:03:52.346,-261.0,-978.0,212.0,1.0,-2.0,3.0,204,169,166,181,175
2025-02-25 18:03:52.351,-264.0,-971.0,211.0,1.0,-2.0,3.0,212,177,174,187,181
2025-02-25 18:03:52.359,-270.0,-976.0,205.0,1.0,-2.0,3.0,208,173,177,188,180
2025-02-25 18:03:52.363,-271.0,-976.0,207.0,1.0,-2.0,3.0,205,171,169,183,175
2025-02-25 18:03:52.367,-266.0,-968.0,212.0,1.0,-2.0,3.0,213,175,174,187,180
2025-02-25 18:03:52.372,-263.0,-973.0,214.0,0.0,-2.0,3.0,212,175,174,188,180
2025-02-25 18:03:52.379,-267.0,-972.0,218.0,0.0,-3.0,3.0,206,170,167,182,176
2025-02-25 18:03:52.383,-268.0,-978.0,224.0,-2.0,-3.0,3.0,207,172,171,183,176
2025-02-25 18:03:52.388,-265.0,-980.0,221.0,-3.0,-4.0,4.0,211,176,173,188,181
2025-02-25 18:03:52.392,-261.0,-985.0,223.0,-3.0,-4.0,4.0,210,177,175,189,182
2025-02-25 18:03:52.400,-259.0,-980.0,225.0,-3.0,-4.0,5.0,206,169,167,182,175
2025-02-25 18:03:52.404,-264.0,-987.0,232.0,-5.0,-4.0,4.0,206,170,168,183,176
2025-02-25 18:03:52.408,-257.0,-987.0,229.0,-5.0,-4.0,5.0,212,175,174,188,181
2025-02-25 18:03:52.413,-263.0,-994.0,234.0,-5.0,-3.0,6.0,210,175,173,186,180
2025-02-25 18:03:52.420,-265.0,-984.0,234.0,-6.0,-4.0,7.0,205,170,168,182,175
2025-02-25 18:03:52.424,-259.0,-982.0,224.0,-7.0,-3.0,7.0,206,169,168,182,175
2025-02-25 18:03:52.429,-265.0,-976.0,223.0,-8.0,-4.0,7.0,210,175,175,188,181
2025-02-25 18:03:52.433,-264.0,-964.0,221.0,-9.0,-4.0,7.0,208,174,173,186,180
2025-02-25 18:03:52.441,-263.0,-961.0,217.0,-10.0,-4.0,8.0,211,176,175,188,180
2025-02-25 18:03:52.445,-263.0,-961.0,218.0,-9.0,-3.0,8.0,203,168,166,180,173
2025-02-25 18:03:52.449,-261.0,-959.0,218.0,-9.0,-4.0,8.0,210,177,173,187,181
2025-02-25 18:03:52.453,-264.0,-951.0,221.0,-9.0,-4.0,8.0,209,174,172,187,179
2025-02-25 18:03:52.461,-265.0,-950.0,214.0,-10.0,-4.0,8.0,209,175,173,187,180
2025-02-25 18:03:52.465,-273.0,-952.0,207.0,-9.0,-4.0,8.0,204,170,165,181,174
2025-02-25 18:03:52.470,-287.0,-938.0,202.0,-9.0,-4.0,9.0,211,177,175,188,182
2025-02-25 18:03:52.474,-290.0,-938.0,204.0,-9.0,-4.0,10.0,211,175,174,187,180
2025-02-25 18:03:52.482,-302.0,-929.0,194.0,-8.0,-4.0,10.0,208,174,172,186,179
2025-02-25 18:03:52.486,-296.0,-928.0,197.0,-7.0,-3.0,10.0,206,171,168,181,175
2025-02-25 18:03:52.490,-313.0,-940.0,202.0,-7.0,-4.0,11.0,211,178,174,189,182
2025-02-25 18:03:52.498,-310.0,-910.0,187.0,-9.0,-3.0,10.0,210,177,175,188,180
2025-02-25 18:03:52.502,-321.0,-914.0,159.0,-9.0,-4.0,9.0,212,178,175,187,181
2025-02-25 18:03:52.506,-307.0,-927.0,167.0,-9.0,-6.0,9.0,204,169,167,180,171
2025-02-25 18:03:52.511,-319.0,-917.0,173.0,-8.0,-8.0,10.0,212,179,175,188,180
2025-02-25 18:03:52.518,-315.0,-919.0,186.0,-8.0,-8.0,9.0,211,177,174,188,180
2025-02-25 18:03:52.523,-309.0,-912.0,151.0,-9.0,-7.0,8.0,212,179,175,187,181
2025-02-25 18:03:52.527,-307.0,-904.0,173.0,-9.0,-8.0,9.0,198,169,166,182,172
2025-02-25 18:03:52.532,-325.0,-921.0,186.0,-10.0,-8.0,9.0,212,177,175,188,181
2025-02-25 18:03:52.539,-306.0,-906.0,184.0,-11.0,-10.0,8.0,212,177,176,188,182
2025-02-25 18:03:52.543,-312.0,-898.0,176.0,-13.0,-11.0,8.0,210,177,172,184,179
2025-02-25 18:03:52.548,-306.0,-907.0,182.0,-11.0,-11.0,7.0,204,172,167,181,174
2025-02-25 18:03:52.555,-308.0,-903.0,175.0,-12.0,-11.0,6.0,206,173,168,182,175
2025-02-25 18:03:52.560,-297.0,-896.0,181.0,-10.0,-10.0,6.0,216,185,180,193,187
2025-02-25 18:03:52.564,-300.0,-905.0,170.0,-10.0,-11.0,5.0,212,180,176,189,182
2025-02-25 18:03:52.569,-300.0,-903.0,195.0,-9.0,-12.0,5.0,209,176,172,183,178
2025-02-25 18:03:52.576,-299.0,-914.0,180.0,-11.0,-14.0,5.0,206,173,168,181,175
2025-02-25 18:03:52.580,-298.0,-918.0,196.0,-11.0,-15.0,4.0,208,178,173,186,179
2025-02-25 18:03:52.585,-300.0,-925.0,211.0,-9.0,-14.0,4.0,211,179,174,187,181
2025-02-25 18:03:52.593,-297.0,-922.0,193.0,-6.0,-13.0,3.0,210,180,175,187,182
2025-02-25 18:03:52.597,-301.0,-927.0,213.0,-6.0,-11.0,2.0,210,178,173,186,181
2025-02-25 18:03:52.601,-303.0,-933.0,204.0,-5.0,-11.0,2.0,206,176,171,182,177
2025-02-25 18:03:52.605,-306.0,-944.0,212.0,-5.0,-12.0,2.0,204,174,169,179,176
2025-02-25 18:03:52.613,-304.0,-947.0,207.0,-6.0,-13.0,2.0,211,180,175,188,182
2025-02-25 18:03:52.617,-297.0,-952.0,207.0,-7.0,-14.0,2.0,209,178,174,185,180
2025-02-25 18:03:52.622,-282.0,-946.0,213.0,-8.0,-14.0,1.0,207,177,172,182,178
2025-02-25 18:03:52.629,-284.0,-947.0,224.0,-4.0,-13.0,1.0,205,172,170,181,176
2025-02-25 18:03:52.634,-285.0,-951.0,236.0,-1.0,-11.0,1.0,212,182,176,186,182
2025-02-25 18:03:52.638,-287.0,-943.0,233.0,2.0,-9.0,1.0,212,182,176,187,182
2025-02-25 18:03:52.642,-292.0,-957.0,234.0,2.0,-6.0,1.0,206,178,170,181,177
2025-02-25 18:03:52.649,-278.0,-962.0,240.0,4.0,-6.0,1.0,203,176,170,180,176
2025-02-25 18:03:52.654,-305.0,-967.0,246.0,1.0,-6.0,2.0,211,183,176,188,182
2025-02-25 18:03:52.658,-305.0,-958.0,255.0,0.0,-6.0,2.0,208,180,174,186,181
2025-02-25 18:03:52.663,-314.0,-970.0,228.0,0.0,-6.0,2.0,209,178,171,182,177
2025-02-25 18:03:52.667,-314.0,-957.0,204.0,11.0,-5.0,2.0,210,184,175,188,181
2025-02-25 18:03:52.674,-355.0,-997.0,194.0,16.0,-11.0,4.0,211,182,175,187,183
2025-02-25 18:03:52.678,-287.0,-963.0,273.0,11.0,-6.0,2.0,215,193,180,192,187
2025-02-25 18:03:52.683,-309.0,-951.0,169.0,1.0,-9.0,3.0,205,176,170,182,177
2025-02-25 18:03:52.690,-323.0,-952.0,236.0,-1.0,-11.0,4.0,211,183,177,187,178
2025-02-25 18:03:52.695,-311.0,-962.0,207.0,-8.0,-16.0,5.0,211,185,176,188,183
2025-02-25 18:03:52.699,-303.0,-942.0,207.0,-10.0,-15.0,4.0,216,188,181,192,187
2025-02-25 18:03:52.703,-326.0,-958.0,223.0,-6.0,-11.0,4.0,205,179,171,181,177
2025-02-25 18:03:52.711,-324.0,-948.0,227.0,-1.0,-8.0,4.0,203,176,169,178,175
2025-02-25 18:03:52.715,-300.0,-960.0,223.0,-5.0,-7.0,4.0,211,182,177,187,183
2025-02-25 18:03:52.719,-303.0,-954.0,190.0,-5.0,-11.0,4.0,212,186,178,188,185
2025-02-25 18:03:52.724,-303.0,-960.0,201.0,-8.0,-14.0,3.0,205,179,171,181,177
2025-02-25 18:03:52.731,-276.0,-942.0,231.0,-13.0,-16.0,3.0,205,178,171,182,176
2025-02-25 18:03:52.736,-280.0,-959.0,213.0,-11.0,-15.0,2.0,211,185,177,188,183
2025-02-25 18:03:52.740,-277.0,-964.0,213.0,-8.0,-13.0,3.0,213,188,181,188,185
2025-02-25 18:03:52.748,-289.0,-974.0,224.0,-9.0,-10.0,4.0,209,185,175,186,181
2025-02-25 18:03:52.752,-288.0,-961.0,229.0,-7.0,-9.0,4.0,204,180,170,180,176
2025-02-25 18:03:52.756,-291.0,-965.0,216.0,-7.0,-13.0,4.0,206,179,172,184,178
2025-02-25 18:03:52.761,-277.0,-948.0,266.0,-9.0,-9.0,4.0,212,188,180,190,185
2025-02-25 18:03:52.768,-280.0,-936.0,167.0,-6.0,-6.0,5.0,207,182,174,184,181
2025-02-25 18:03:52.773,-293.0,-937.0,186.0,-2.0,-8.0,5.0,203,180,172,181,177
2025-02-25 18:03:52.777,-306.0,-934.0,202.0,-6.0,-2.0,4.0,206,181,173,182,178
2025-02-25 18:03:52.781,-298.0,-922.0,139.0,-2.0,-2.0,4.0,212,188,179,189,185
2025-02-25 18:03:52.789,-310.0,-936.0,195.0,-3.0,-3.0,3.0,208,184,176,184,181
2025-02-25 18:03:52.793,-309.0,-925.0,189.0,-8.0,-3.0,3.0,205,179,171,181,177
2025-02-25 18:03:52.797,-295.0,-933.0,213.0,-7.0,-4.0,3.0,208,184,175,184,182
2025-02-25 18:03:52.802,-294.0,-945.0,196.0,-3.0,-3.0,3.0,213,188,178,188,185
2025-02-25 18:03:52.809,-283.0,-949.0,211.0,-4.0,-1.0,2.0,208,186,176,185,181
2025-02-25 18:03:52.813,-277.0,-955.0,218.0,-2.0,2.0,3.0,204,181,171,182,177
2025-02-25 18:03:52.818,-294.0,-966.0,202.0,5.0,2.0,3.0,211,188,176,188,185
2025-02-25 18:03:52.822,-311.0,-967.0,207.0,3.0,-1.0,3.0,213,188,179,189,185
2025-02-25 18:03:52.830,-297.0,-952.0,201.0,2.0,-1.0,3.0,204,180,174,181,178
2025-02-25 18:03:52.834,-309.0,-961.0,202.0,3.0,-4.0,3.0,201,179,169,179,177
2025-02-25 18:03:52.838,-294.0,-946.0,229.0,2.0,-5.0,3.0,210,187,178,188,184
2025-02-25 18:03:52.842,-289.0,-940.0,206.0,3.0,-5.0,4.0,209,187,178,187,184
2025-02-25 18:03:52.850,-299.0,-943.0,214.0,2.0,-5.0,4.0,202,180,171,180,176
2025-02-25 18:03:52.854,-291.0,-935.0,199.0,3.0,-3.0,3.0,211,188,177,188,185
2025-02-25 18:03:52.858,-286.0,-938.0,209.0,1.0,-2.0,3.0,211,189,180,188,185
2025-02-25 18:03:52.863,-303.0,-946.0,224.0,0.0,-3.0,4.0,206,184,174,183,180
2025-02-25 18:03:52.868,-309.0,-939.0,223.0,-2.0,-5.0,3.0,219,198,190,200,195
2025-02-25 18:03:52.875,-303.0,-947.0,219.0,-3.0,-4.0,3.0,239,218,210,220,221
2025-02-25 18:03:52.879,-318.0,-945.0,219.0,-3.0,-3.0,2.0,177,155,146,155,152
2025-02-25 18:03:52.884,-321.0,-962.0,218.0,-2.0,-3.0,2.0,138,114,105,114,111
2025-02-25 18:03:52.891,-321.0,-951.0,223.0,-1.0,-3.0,2.0,144,120,109,120,118
2025-02-25 18:03:52.896,-330.0,-956.0,205.0,1.0,-3.0,2.0,147,122,113,123,118
2025-02-25 18:03:52.900,-311.0,-957.0,209.0,0.0,-3.0,3.0,146,122,111,120,118
2025-02-25 18:03:52.904,-322.0,-963.0,214.0,0.0,-4.0,4.0,141,116,107,117,114
2025-02-25 18:03:52.909,-318.0,-958.0,219.0,0.0,-4.0,4.0,134,110,101,111,108
2025-02-25 18:03:52.917,-314.0,-957.0,209.0,-1.0,-6.0,3.0,134,109,99,109,106
2025-02-25 18:03:52.922,-293.0,-948.0,208.0,-3.0,-6.0,4.0,132,108,99,109,107
2025-02-25 18:03:52.926,-306.0,-948.0,205.0,0.0,-6.0,3.0,137,112,102,113,109
2025-02-25 18:03:52.929,-286.0,-950.0,237.0,-1.0,-6.0,4.0,133,109,100,110,107
2025-02-25 18:03:52.937,-288.0,-942.0,242.0,1.0,-7.0,4.0,135,110,100,111,109
2025-02-25 18:03:52.941,-296.0,-939.0,198.0,3.0,-8.0,5.0,133,111,99,110,106
2025-02-25 18:03:52.945,-272.0,-945.0,216.0,2.0,-6.0,5.0,131,107,99,108,105
2025-02-25 18:03:52.950,-309.0,-954.0,208.0,6.0,-6.0,5.0,132,107,98,108,106
2025-02-25 18:03:52.954,-303.0,-941.0,247.0,6.0,-6.0,4.0,133,108,98,107,106
2025-02-25 18:03:52.961,-301.0,-912.0,215.0,5.0,-3.0,4.0,134,109,97,109,107
2025-02-25 18:03:52.965,-321.0,-938.0,229.0,8.0,-4.0,5.0,133,108,98,110,108
2025-02-25 18:03:52.970,-329.0,-950.0,242.0,5.0,-5.0,5.0,135,108,99,108,107
2025-02-25 18:03:52.973,-308.0,-924.0,193.0,3.0,-5.0,4.0,133,108,99,109,107
2025-02-25 18:03:52.982,-310.0,-932.0,223.0,6.0,-4.0,4.0,132,109,98,110,108
2025-02-25 18:03:52.986,-323.0,-937.0,219.0,5.0,-2.0,4.0,134,108,99,109,107
2025-02-25 18:03:52.991,-311.0,-922.0,212.0,9.0,-3.0,3.0,134,108,96,108,106
2025-02-25 18:03:52.995,-312.0,-921.0,243.0,9.0,-2.0,3.0,133,108,101,109,108
2025-02-25 18:03:52.999,-319.0,-923.0,206.0,9.0,-2.0,4.0,133,108,98,108,107
2025-02-25 18:03:53.006,-333.0,-913.0,247.0,9.0,-2.0,3.0,132,107,97,109,106
2025-02-25 18:03:53.011,-301.0,-941.0,208.0,7.0,-5.0,3.0,132,107,96,108,107
2025-02-25 18:03:53.015,-312.0,-946.0,215.0,8.0,-6.0,3.0,132,107,97,108,108
2025-02-25 18:03:53.019,-319.0,-929.0,222.0,8.0,-5.0,3.0,132,106,97,108,107
2025-02-25 18:03:53.027,-301.0,-926.0,218.0,12.0,-2.0,2.0,133,107,95,107,107
2025-02-25 18:03:53.030,-318.0,-929.0,198.0,12.0,-3.0,2.0,134,106,97,108,107
2025-02-25 18:03:53.034,-303.0,-930.0,220.0,11.0,-6.0,2.0,131,105,96,108,106
2025-02-25 18:03:53.039,-302.0,-924.0,220.0,11.0,-6.0,1.0,133,107,99,108,108
2025-02-25 18:03:53.043,-311.0,-927.0,204.0,12.0,-7.0,1.0,133,106,97,108,107
2025-02-25 18:03:53.051,-313.0,-932.0,204.0,13.0,-5.0,1.0,133,107,99,110,107
2025-02-25 18:03:53.055,-311.0,-933.0,203.0,18.0,-4.0,0.0,134,108,99,110,109
2025-02-25 18:03:53.058,-328.0,-919.0,234.0,18.0,-4.0,0.0,132,106,100,111,108
2025-02-25 18:03:53.064,-331.0,-921.0,214.0,22.0,-3.0,-1.0,133,105,97,108,108
2025-02-25 18:03:53.071,-324.0,-917.0,215.0,21.0,-3.0,-2.0,132,106,98,109,108
2025-02-25 18:03:53.075,-327.0,-923.0,205.0,19.0,-4.0,-2.0,132,104,95,107,107
2025-02-25 18:03:53.080,-333.0,-921.0,221.0,16.0,-7.0,-3.0,133,107,97,110,107
2025-02-25 18:03:53.084,-318.0,-906.0,218.0,13.0,-9.0,-3.0,132,104,97,109,107
2025-02-25 18:03:53.092,-334.0,-925.0,194.0,12.0,-11.0,-4.0,132,105,98,106,109
2025-02-25 18:03:53.096,-328.0,-915.0,234.0,9.0,-10.0,-4.0,131,105,97,108,109
2025-02-25 18:03:53.100,-312.0,-921.0,204.0,7.0,-11.0,-4.0,133,105,98,109,108
2025-02-25 18:03:53.108,-325.0,-933.0,234.0,4.0,-13.0,-4.0,134,103,97,109,108
2025-02-25 18:03:53.112,-333.0,-924.0,248.0,5.0,-12.0,-4.0,133,104,94,109,108
2025-02-25 18:03:53.116,-335.0,-934.0,249.0,9.0,-12.0,-4.0,134,103,96,107,107
2025-02-25 18:03:53.121,-343.0,-917.0,245.0,7.0,-11.0,-4.0,133,103,97,111,109
2025-02-25 18:03:53.128,-339.0,-916.0,226.0,7.0,-12.0,-4.0,133,102,96,109,107
2025-02-25 18:03:53.133,-318.0,-907.0,278.0,7.0,-12.0,-5.0,133,103,98,108,108
2025-02-25 18:03:53.137,-339.0,-918.0,242.0,5.0,-12.0,-5.0,133,104,97,109,108
2025-02-25 18:03:53.141,-316.0,-927.0,258.0,5.0,-12.0,-6.0,134,103,97,109,109
2025-02-25 18:03:53.149,-321.0,-923.0,238.0,8.0,-11.0,-5.0,134,105,97,108,109
2025-02-25 18:03:53.153,-323.0,-919.0,263.0,9.0,-9.0,-6.0,135,104,98,110,110
2025-02-25 18:03:53.158,-319.0,-922.0,274.0,13.0,-6.0,-6.0,134,102,98,111,108
2025-02-25 18:03:53.162,-319.0,-930.0,284.0,17.0,-5.0,-7.0,134,104,97,109,109
2025-02-25 18:03:53.170,-308.0,-936.0,251.0,20.0,0.0,-8.0,135,100,93,110,110
2025-02-25 18:03:53.174,-299.0,-938.0,259.0,22.0,1.0,-8.0,135,101,96,108,107
2025-02-25 18:03:53.178,-307.0,-939.0,281.0,21.0,1.0,-7.0,134,100,99,107,107
2025-02-25 18:03:53.183,-301.0,-932.0,290.0,22.0,1.0,-8.0,134,101,96,109,109
2025-02-25 18:03:53.187,-303.0,-939.0,272.0,21.0,1.0,-8.0,135,101,97,106,108
2025-02-25 18:03:53.194,-301.0,-921.0,290.0,19.0,2.0,-9.0,134,101,95,107,107
2025-02-25 18:03:53.199,-314.0,-930.0,267.0,18.0,1.0,-9.0,133,101,98,110,106
2025-02-25 18:03:53.203,-309.0,-921.0,277.0,20.0,1.0,-10.0,133,101,97,109,107
2025-02-25 18:03:53.207,-307.0,-929.0,274.0,20.0,2.0,-12.0,133,98,96,105,107
2025-02-25 18:03:53.215,-298.0,-920.0,261.0,20.0,2.0,-12.0,134,98,96,109,107
2025-02-25 18:03:53.219,-296.0,-921.0,272.0,19.0,2.0,-14.0,135,96,95,106,106
2025-02-25 18:03:53.223,-297.0,-922.0,269.0,19.0,2.0,-16.0,134,96,95,109,106
2025-02-25 18:03:53.228,-301.0,-930.0,286.0,17.0,1.0,-17.0,133,96,95,106,106
2025-02-25 18:03:53.235,-292.0,-929.0,303.0,17.0,0.0,-18.0,135,97,94,106,106
2025-02-25 18:03:53.240,-297.0,-932.0,253.0,15.0,0.0,-20.0,133,94,96,109,106
2025-02-25 18:03:53.244,-286.0,-937.0,243.0,14.0,1.0,-20.0,133,94,95,108,105
2025-02-25 18:03:53.248,-280.0,-949.0,276.0,16.0,3.0,-19.0,133,94,94,107,105
2025-02-25 18:03:53.256,-285.0,-968.0,271.0,16.0,2.0,-18.0,133,94,95,107,105
2025-02-25 18:03:53.259,-283.0,-983.0,266.0,17.0,3.0,-15.0,135,95,95,105,104
2025-02-25 18:03:53.265,-281.0,-982.0,231.0,19.0,2.0,-11.0,135,93,93,106,103
2025-02-25 18:03:53.269,-278.0,-985.0,275.0,21.0,3.0,-10.0,132,93,94,106,102
2025-02-25 18:03:53.273,-297.0,-996.0,272.0,23.0,3.0,-6.0,137,90,91,108,103
2025-02-25 18:03:53.280,-274.0,-1017.0,325.0,23.0,3.0,-4.0,133,91,94,107,103
2025-02-25 18:03:53.285,-298.0,-1027.0,322.0,21.0,3.0,-4.0,132,91,93,107,102
2025-02-25 18:03:53.289,-295.0,-1035.0,276.0,20.0,1.0,-2.0,132,91,93,107,102
2025-02-25 18:03:53.293,-279.0,-1060.0,276.0,16.0,3.0,0.0,134,91,94,106,101
2025-02-25 18:03:53.301,-294.0,-1106.0,296.0,13.0,2.0,2.0,132,91,93,105,101
2025-02-25 18:03:53.305,-252.0,-1097.0,294.0,10.0,4.0,2.0,134,90,93,107,101
2025-02-25 18:03:53.310,-269.0,-1131.0,287.0,11.0,3.0,5.0,133,89,93,106,100
2025-02-25 18:03:53.314,-248.0,-1130.0,293.0,8.0,2.0,6.0,133,89,92,106,100
2025-02-25 18:03:53.318,-249.0,-1146.0,305.0,13.0,6.0,6.0,132,89,92,105,100
2025-02-25 18:03:53.326,-255.0,-1194.0,374.0,6.0,6.0,7.0,133,88,93,107,100
2025-02-25 18:03:53.330,-243.0,-1217.0,379.0,7.0,9.0,8.0,132,86,92,104,98
2025-02-25 18:03:53.335,-195.0,-1188.0,398.0,2.0,8.0,10.0,133,86,91,106,100
2025-02-25 18:03:53.339,-152.0,-1222.0,398.0,-9.0,11.0,12.0,134,87,91,104,99
2025-02-25 18:03:53.343,-134.0,-1244.0,358.0,-12.0,8.0,18.0,134,86,91,105,99
2025-02-25 18:03:53.350,-161.0,-1280.0,429.0,-19.0,10.0,21.0,132,83,90,106,98
2025-02-25 18:03:53.354,-130.0,-1299.0,436.0,-20.0,14.0,28.0,134,84,92,107,100
2025-02-25 18:03:53.359,-127.0,-1316.0,446.0,-19.0,21.0,36.0,134,84,91,105,99
2025-02-25 18:03:53.366,-133.0,-1323.0,490.0,-22.0,26.0,44.0,133,81,91,104,98
2025-02-25 18:03:53.371,-151.0,-1324.0,458.0,-24.0,31.0,47.0,133,84,90,103,97
2025-02-25 18:03:53.375,-193.0,-1318.0,476.0,-27.0,31.0,54.0,136,83,90,103,98
2025-02-25 18:03:53.379,-205.0,-1300.0,484.0,-28.0,33.0,60.0,133,81,90,106,97
2025-02-25 18:03:53.387,-228.0,-1301.0,453.0,-35.0,32.0,66.0,132,79,94,105,97
2025-02-25 18:03:53.391,-248.0,-1294.0,385.0,-44.0,36.0,68.0,133,79,90,104,96
2025-02-25 18:03:53.395,-268.0,-1278.0,372.0,-51.0,41.0,71.0,133,78,89,102,96
2025-02-25 18:03:53.399,-254.0,-1279.0,404.0,-56.0,49.0,74.0,134,78,89,102,95
2025-02-25 18:03:53.407,-250.0,-1250.0,356.0,-68.0,49.0,76.0,133,76,89,101,93
2025-02-25 18:03:53.412,-225.0,-1249.0,327.0,-78.0,52.0,78.0,132,73,86,100,92
2025-02-25 18:03:53.415,-212.0,-1230.0,336.0,-79.0,55.0,79.0,134,75,87,100,92
2025-02-25 18:03:53.420,-212.0,-1226.0,295.0,-80.0,57.0,83.0,134,75,85,100,92
2025-02-25 18:03:53.428,-221.0,-1169.0,281.0,-84.0,58.0,84.0,132,72,85,99,91
2025-02-25 18:03:53.432,-189.0,-1167.0,160.0,-86.0,63.0,86.0,134,71,86,99,90
2025-02-25 18:03:53.436,-244.0,-1149.0,252.0,-101.0,61.0,87.0,134,72,86,99,90
2025-02-25 18:03:53.440,-224.0,-1043.0,199.0,-103.0,58.0,90.0,132,70,84,98,89
2025-02-25 18:03:53.448,-223.0,-1006.0,234.0,-95.0,57.0,89.0,133,67,84,97,88
2025-02-25 18:03:53.452,-252.0,-1033.0,176.0,-95.0,57.0,89.0,132,68,84,98,88
2025-02-25 18:03:53.457,-284.0,-954.0,155.0,-104.0,60.0,89.0,131,67,83,98,87
2025-02-25 18:03:53.461,-287.0,-972.0,135.0,-94.0,59.0,90.0,133,66,84,98,86
2025-02-25 18:03:53.465,-348.0,-992.0,56.0,-109.0,52.0,90.0,133,66,83,95,85
2025-02-25 18:03:53.473,-345.0,-934.0,64.0,-129.0,33.0,89.0,134,66,83,96,85
2025-02-25 18:03:53.478,-410.0,-954.0,-5.0,-142.0,26.0,89.0,132,67,81,96,85
2025-02-25 18:03:53.482,-398.0,-849.0,273.0,-153.0,11.0,89.0,134,65,82,95,84
2025-02-25 18:03:53.486,-421.0,-774.0,286.0,-133.0,33.0,91.0,135,66,87,95,83
2025-02-25 18:03:53.494,-416.0,-795.0,27.0,-130.0,35.0,91.0,134,64,82,95,80
2025-02-25 18:03:53.498,-400.0,-777.0,116.0,-108.0,38.0,92.0,133,65,81,94,81
2025-02-25 18:03:53.502,-453.0,-748.0,44.0,-105.0,36.0,92.0,135,66,84,93,82
2025-02-25 18:03:53.506,-485.0,-729.0,-18.0,-104.0,22.0,90.0,133,64,81,92,81
2025-02-25 18:03:53.511,-506.0,-663.0,-47.0,-117.0,15.0,88.0,133,66,83,92,80
2025-02-25 18:03:53.518,-512.0,-669.0,-15.0,-124.0,9.0,88.0,133,64,83,91,78
2025-02-25 18:03:53.522,-518.0,-599.0,7.0,-121.0,7.0,85.0,133,63,79,92,80
2025-02-25 18:03:53.526,-551.0,-569.0,15.0,-112.0,8.0,84.0,133,64,80,89,79
2025-02-25 18:03:53.530,-537.0,-576.0,25.0,-99.0,18.0,83.0,132,63,79,89,78
2025-02-25 18:03:53.535,-545.0,-511.0,12.0,-86.0,21.0,80.0,133,64,82,91,79
2025-02-25 18:03:53.542,-579.0,-506.0,0.0,-84.0,20.0,77.0,133,66,81,91,78
2025-02-25 18:03:53.546,-591.0,-484.0,-26.0,-72.0,16.0,75.0,132,63,82,91,79
2025-02-25 18:03:53.551,-629.0,-474.0,2.0,-74.0,11.0,71.0,133,63,80,91,79
2025-02-25 18:03:53.555,-622.0,-429.0,10.0,-71.0,10.0,66.0,133,64,80,90,77
2025-02-25 18:03:53.559,-623.0,-411.0,-13.0,-55.0,8.0,64.0,134,61,81,92,77
2025-02-25 18:03:53.567,-619.0,-410.0,-7.0,-47.0,6.0,60.0,134,63,80,92,77
2025-02-25 18:03:53.571,-634.0,-355.0,-17.0,-46.0,5.0,54.0,132,64,80,90,77
2025-02-25 18:03:53.575,-648.0,-346.0,-11.0,-37.0,2.0,53.0,132,64,82,91,78
2025-02-25 18:03:53.579,-651.0,-344.0,-7.0,-27.0,-2.0,46.0,133,65,81,90,79
2025-02-25 18:03:53.583,-638.0,-309.0,-36.0,-19.0,-11.0,39.0,133,63,82,90,76
2025-02-25 18:03:53.591,-664.0,-336.0,-6.0,0.0,-13.0,36.0,133,62,80,90,78
2025-02-25 18:03:53.595,-671.0,-321.0,-43.0,12.0,-15.0,30.0,134,66,83,87,76
2025-02-25 18:03:53.600,-674.0,-330.0,-66.0,22.0,-20.0,25.0,133,65,82,90,79
2025-02-25 18:03:53.605,-693.0,-354.0,15.0,36.0,-22.0,22.0,132,65,81,90,77
2025-02-25 18:03:53.609,-692.0,-374.0,-34.0,48.0,-29.0,17.0,134,64,82,93,78
2025-02-25 18:03:53.616,-700.0,-387.0,23.0,51.0,-30.0,12.0,135,65,81,91,80
2025-02-25 18:03:53.621,-723.0,-400.0,21.0,58.0,-30.0,7.0,133,65,83,90,79
2025-02-25 18:03:53.625,-704.0,-415.0,4.0,63.0,-30.0,5.0,133,67,82,90,80
2025-02-25 18:03:53.629,-701.0,-432.0,34.0,61.0,-29.0,0.0,135,67,82,93,80
2025-02-25 18:03:53.633,-701.0,-443.0,19.0,55.0,-28.0,-4.0,133,66,82,91,79
2025-02-25 18:03:53.648,-699.0,-446.0,16.0,52.0,-23.0,-5.0,133,68,83,92,81
2025-02-25 18:03:53.650,-700.0,-460.0,-4.0,47.0,-20.0,-8.0,132,64,81,90,80
2025-02-25 18:03:53.653,-690.0,-484.0,7.0,45.0,-19.0,-11.0,132,68,83,92,79
2025-02-25 18:03:53.655,-706.0,-504.0,30.0,41.0,-17.0,-12.0,132,70,83,91,81
2025-02-25 18:03:53.658,-697.0,-511.0,35.0,41.0,-17.0,-14.0,132,67,84,92,80
2025-02-25 18:03:53.662,-689.0,-551.0,25.0,44.0,-16.0,-16.0,135,66,82,91,80
2025-02-25 18:03:53.670,-687.0,-529.0,34.0,48.0,-19.0,-16.0,133,67,83,92,81
2025-02-25 18:03:53.674,-686.0,-568.0,54.0,55.0,-26.0,-19.0,132,68,83,93,82
2025-02-25 18:03:53.678,-682.0,-611.0,105.0,62.0,-27.0,-23.0,132,68,82,92,81
2025-02-25 18:03:53.682,-639.0,-584.0,79.0,65.0,-29.0,-25.0,132,67,84,92,84
2025-02-25 18:03:53.690,-634.0,-620.0,119.0,62.0,-24.0,-28.0,132,68,83,93,85
2025-02-25 18:03:53.694,-621.0,-657.0,60.0,76.0,-21.0,-29.0,134,69,82,94,84
2025-02-25 18:03:53.698,-613.0,-651.0,77.0,45.0,-18.0,-31.0,134,68,83,94,84
2025-02-25 18:03:53.702,-573.0,-667.0,87.0,43.0,-7.0,-31.0,133,69,82,95,84
2025-02-25 18:03:53.706,-608.0,-720.0,75.0,20.0,0.0,-34.0,132,69,83,94,85
2025-02-25 18:03:53.714,-559.0,-744.0,72.0,2.0,10.0,-34.0,133,70,86,95,87
2025-02-25 18:03:53.718,-572.0,-822.0,59.0,3.0,18.0,-34.0,132,70,85,96,86
2025-02-25 18:03:53.722,-557.0,-859.0,145.0,-8.0,24.0,-35.0,131,68,84,93,86
2025-02-25 18:03:53.727,-524.0,-845.0,78.0,-19.0,33.0,-35.0,134,70,85,94,87
2025-02-25 18:03:53.731,-549.0,-897.0,45.0,-18.0,37.0,-32.0,130,71,86,96,88
2025-02-25 18:03:53.739,-549.0,-954.0,106.0,-15.0,39.0,-31.0,138,72,86,99,89
2025-02-25 18:03:53.743,-523.0,-936.0,97.0,-3.0,32.0,-31.0,132,69,88,97,90
2025-02-25 18:03:53.748,-528.0,-959.0,80.0,14.0,25.0,-29.0,134,70,87,98,90
2025-02-25 18:03:53.752,-544.0,-996.0,98.0,23.0,20.0,-29.0,132,74,85,98,90
2025-02-25 18:03:53.756,-551.0,-983.0,90.0,41.0,19.0,-27.0,132,71,87,96,90
2025-02-25 18:03:53.764,-520.0,-976.0,136.0,66.0,25.0,-22.0,132,75,87,98,91
2025-02-25 18:03:53.768,-535.0,-973.0,71.0,73.0,31.0,-17.0,134,72,86,100,92
2025-02-25 18:03:53.772,-524.0,-990.0,56.0,83.0,32.0,-15.0,133,73,88,100,93
2025-02-25 18:03:53.777,-510.0,-964.0,39.0,71.0,27.0,-13.0,135,75,92,99,93
2025-02-25 18:03:53.781,-506.0,-978.0,-1.0,62.0,14.0,-12.0,133,75,87,99,93
2025-02-25 18:03:53.788,-521.0,-971.0,21.0,44.0,4.0,-11.0,133,74,84,98,93
2025-02-25 18:03:53.792,-513.0,-961.0,108.0,31.0,-4.0,-12.0,134,73,88,98,94
2025-02-25 18:03:53.797,-534.0,-941.0,14.0,31.0,-7.0,-12.0,134,78,90,99,94
2025-02-25 18:03:53.801,-499.0,-928.0,30.0,25.0,-6.0,-10.0,135,79,88,98,93
2025-02-25 18:03:53.805,-527.0,-952.0,67.0,30.0,-6.0,-10.0,138,83,91,103,100
2025-02-25 18:03:53.813,-533.0,-926.0,79.0,23.0,-7.0,-10.0,138,79,93,104,98
2025-02-25 18:03:53.817,-538.0,-947.0,55.0,9.0,-11.0,-9.0,133,78,90,103,98
2025-02-25 18:03:53.821,-536.0,-939.0,61.0,-1.0,-18.0,-9.0,137,81,92,102,98
2025-02-25 18:03:53.826,-531.0,-942.0,93.0,-2.0,-19.0,-9.0,137,83,90,102,104
2025-02-25 18:03:53.830,-512.0,-901.0,84.0,-12.0,-14.0,-7.0,136,76,91,101,97
2025-02-25 18:03:53.837,-529.0,-931.0,12.0,-12.0,-9.0,-5.0,138,83,92,104,100
2025-02-25 18:03:53.842,-533.0,-922.0,103.0,-14.0,-11.0,-5.0,138,84,92,105,101
2025-02-25 18:03:53.846,-549.0,-898.0,96.0,-27.0,-12.0,-5.0,135,81,91,103,99
2025-02-25 18:03:53.850,-543.0,-906.0,76.0,-31.0,-14.0,-5.0,138,83,95,103,98
2025-02-25 18:03:53.858,-550.0,-883.0,51.0,-40.0,-13.0,-4.0,138,85,97,103,101
2025-02-25 18:03:53.862,-549.0,-877.0,64.0,-44.0,-11.0,-3.0,136,83,92,104,102
2025-02-25 18:03:53.867,-559.0,-861.0,101.0,-45.0,-9.0,-3.0,136,85,94,104,102
2025-02-25 18:03:53.871,-559.0,-867.0,78.0,-42.0,-9.0,-2.0,138,85,93,104,101
2025-02-25 18:03:53.878,-551.0,-881.0,105.0,-42.0,-11.0,-2.0,137,87,93,102,101
2025-02-25 18:03:53.883,-538.0,-889.0,83.0,-34.0,-12.0,-1.0,137,88,94,104,100
2025-02-25 18:03:53.887,-532.0,-885.0,121.0,-24.0,-12.0,0.0,138,89,94,105,102
2025-02-25 18:03:53.891,-532.0,-893.0,94.0,-21.0,-14.0,1.0,137,87,94,104,103
2025-02-25 18:03:53.899,-531.0,-881.0,108.0,-14.0,-14.0,2.0,138,87,94,104,101
2025-02-25 18:03:53.903,-547.0,-880.0,77.0,-5.0,-14.0,2.0,136,88,95,104,102
2025-02-25 18:03:53.907,-545.0,-866.0,104.0,3.0,-13.0,3.0,139,90,94,106,101
2025-02-25 18:03:53.911,-562.0,-866.0,68.0,4.0,-14.0,3.0,137,88,93,102,102
2025-02-25 18:03:53.919,-547.0,-860.0,74.0,14.0,-14.0,4.0,134,87,92,105,102
2025-02-25 18:03:53.923,-563.0,-842.0,89.0,10.0,-16.0,2.0,138,90,95,105,104
2025-02-25 18:03:53.927,-550.0,-830.0,99.0,14.0,-14.0,2.0,139,86,97,104,105
2025-02-25 18:03:53.932,-569.0,-820.0,99.0,8.0,-12.0,3.0,137,89,95,104,102
2025-02-25 18:03:53.936,-545.0,-795.0,93.0,7.0,-5.0,2.0,138,93,96,105,103
2025-02-25 18:03:53.943,-545.0,-812.0,81.0,8.0,0.0,1.0,138,91,95,106,104
2025-02-25 18:03:53.948,-558.0,-815.0,84.0,6.0,1.0,0.0,136,89,96,104,103
2025-02-25 18:03:53.953,-545.0,-805.0,89.0,3.0,2.0,-2.0,138,92,98,102,104
2025-02-25 18:03:53.957,-555.0,-818.0,101.0,-2.0,4.0,-3.0,136,92,95,104,103
2025-02-25 18:03:53.961,-545.0,-804.0,92.0,-6.0,3.0,-4.0,135,91,94,103,103
2025-02-25 18:03:53.965,-553.0,-801.0,103.0,-9.0,4.0,-5.0,137,94,96,104,104
2025-02-25 18:03:53.973,-548.0,-805.0,79.0,-9.0,1.0,-6.0,136,92,96,105,103
2025-02-25 18:03:53.977,-558.0,-813.0,78.0,-10.0,-1.0,-6.0,135,96,96,105,104
2025-02-25 18:03:53.981,-562.0,-830.0,86.0,-6.0,-2.0,-7.0,137,96,95,106,107
2025-02-25 18:03:53.986,-553.0,-832.0,42.0,-6.0,-6.0,-7.0,138,96,97,107,106
2025-02-25 18:03:53.993,-542.0,-834.0,45.0,-3.0,-8.0,-6.0,138,100,98,107,107
2025-02-25 18:03:53.997,-544.0,-850.0,57.0,4.0,-10.0,-4.0,137,100,99,105,108
2025-02-25 18:03:54.002,-548.0,-849.0,52.0,8.0,-12.0,-2.0,140,104,100,109,108
2025-02-25 18:03:54.006,-543.0,-843.0,73.0,9.0,-13.0,-1.0,138,98,100,110,108
2025-02-25 18:03:54.013,-536.0,-835.0,63.0,12.0,-15.0,0.0,143,104,100,109,110
2025-02-25 18:03:54.018,-549.0,-832.0,72.0,14.0,-20.0,0.0,143,106,100,111,113
2025-02-25 18:03:54.022,-538.0,-833.0,113.0,15.0,-22.0,2.0,144,103,103,113,114
2025-02-25 18:03:54.026,-544.0,-816.0,113.0,15.0,-22.0,1.0,146,107,105,114,113
2025-02-25 18:03:54.034,-546.0,-809.0,90.0,14.0,-22.0,1.0,143,108,104,112,114
2025-02-25 18:03:54.038,-539.0,-773.0,90.0,7.0,-20.0,1.0,145,112,106,112,115
2025-02-25 18:03:54.043,-540.0,-767.0,75.0,5.0,-18.0,2.0,142,109,106,114,113
2025-02-25 18:03:54.047,-527.0,-770.0,58.0,-2.0,-18.0,2.0,143,110,106,114,113
2025-02-25 18:03:54.054,-528.0,-782.0,79.0,-9.0,-18.0,2.0,141,109,105,113,114
2025-02-25 18:03:54.059,-538.0,-777.0,92.0,-11.0,-13.0,2.0,146,113,108,114,117
2025-02-25 18:03:54.063,-546.0,-774.0,93.0,-14.0,-8.0,2.0,142,110,106,114,115
2025-02-25 18:03:54.067,-557.0,-788.0,74.0,-13.0,-7.0,2.0,143,115,107,113,114
2025-02-25 18:03:54.075,-579.0,-792.0,90.0,-8.0,-8.0,1.0,143,113,108,117,116
2025-02-25 18:03:54.079,-576.0,-786.0,77.0,-4.0,-10.0,-1.0,141,115,108,109,117
2025-02-25 18:03:54.084,-593.0,-800.0,61.0,0.0,-9.0,-2.0,141,113,108,114,116
2025-02-25 18:03:54.088,-595.0,-807.0,108.0,5.0,-21.0,-4.0,142,114,106,115,118
2025-02-25 18:03:54.096,-580.0,-789.0,149.0,10.0,-15.0,-5.0,144,115,109,116,118
2025-02-25 18:03:54.100,-605.0,-840.0,97.0,12.0,-9.0,-6.0,144,118,112,116,115
2025-02-25 18:03:54.104,-563.0,-776.0,60.0,15.0,-5.0,-6.0,143,116,108,114,117
2025-02-25 18:03:54.109,-589.0,-810.0,28.0,18.0,-7.0,-7.0,143,119,109,115,114
2025-02-25 18:03:54.116,-589.0,-813.0,77.0,13.0,-12.0,-7.0,143,115,109,116,117
2025-02-25 18:03:54.121,-596.0,-810.0,139.0,12.0,-11.0,-8.0,142,115,109,114,118
2025-02-25 18:03:54.125,-600.0,-798.0,128.0,12.0,-9.0,-8.0,143,117,110,114,116
2025-02-25 18:03:54.133,-590.0,-813.0,100.0,17.0,-8.0,-9.0,143,115,111,115,115
2025-02-25 18:03:54.137,-592.0,-824.0,107.0,25.0,-8.0,-8.0,142,115,109,116,116
2025-02-25 18:03:54.141,-599.0,-831.0,115.0,28.0,-10.0,-10.0,144,116,110,116,117
2025-02-25 18:03:54.145,-605.0,-813.0,118.0,25.0,-8.0,-10.0,144,119,109,116,117
2025-02-25 18:03:54.153,-573.0,-820.0,127.0,24.0,-5.0,-11.0,142,114,109,116,116
2025-02-25 18:03:54.157,-578.0,-823.0,134.0,22.0,-4.0,-12.0,141,117,111,116,118
2025-02-25 18:03:54.162,-573.0,-826.0,152.0,24.0,-5.0,-12.0,142,115,111,116,115
2025-02-25 18:03:54.169,-585.0,-820.0,168.0,24.0,-6.0,-13.0,142,116,109,115,117
2025-02-25 18:03:54.174,-549.0,-848.0,168.0,21.0,-5.0,-14.0,143,117,110,117,117
2025-02-25 18:03:54.178,-576.0,-818.0,149.0,21.0,-5.0,-15.0,142,115,110,117,117
2025-02-25 18:03:54.186,-559.0,-824.0,172.0,23.0,-4.0,-16.0,141,115,109,115,116
2025-02-25 18:03:54.190,-556.0,-826.0,183.0,24.0,-4.0,-16.0,143,113,106,117,114
2025-02-25 18:03:54.194,-556.0,-834.0,177.0,23.0,-4.0,-17.0,142,117,109,120,117
2025-02-25 18:03:54.199,-549.0,-832.0,175.0,19.0,-2.0,-17.0,142,117,109,116,117
2025-02-25 18:03:54.206,-556.0,-837.0,135.0,19.0,-10.0,-18.0,143,117,110,116,117
2025-02-25 18:03:54.210,-556.0,-839.0,286.0,18.0,-3.0,-18.0,141,118,110,114,116
2025-02-25 18:03:54.215,-534.0,-826.0,177.0,26.0,1.0,-18.0,142,115,108,114,114
2025-02-25 18:03:54.222,-531.0,-840.0,241.0,15.0,9.0,-18.0,143,119,111,116,117
2025-02-25 18:03:54.227,-518.0,-844.0,160.0,-4.0,13.0,-18.0,144,117,109,116,117
2025-02-25 18:03:54.231,-493.0,-845.0,208.0,-15.0,21.0,-18.0,141,117,111,118,118
2025-02-25 18:03:54.239,-519.0,-853.0,224.0,-14.0,22.0,-18.0,142,116,110,117,120
2025-02-25 18:03:54.243,-502.0,-860.0,200.0,-27.0,23.0,-18.0,142,117,109,115,117
2025-02-25 18:03:54.247,-506.0,-884.0,151.0,-29.0,16.0,-18.0,143,117,110,115,116
2025-02-25 18:03:54.252,-517.0,-914.0,144.0,-19.0,8.0,-18.0,143,117,109,119,119
2025-02-25 18:03:54.260,-503.0,-868.0,179.0,-13.0,4.0,-17.0,141,118,111,115,118
2025-02-25 18:03:54.264,-491.0,-879.0,174.0,-5.0,4.0,-18.0,142,114,108,116,118
2025-02-25 18:03:54.268,-492.0,-885.0,138.0,5.0,2.0,-18.0,141,117,109,116,117
2025-02-25 18:03:54.276,-502.0,-883.0,160.0,10.0,-7.0,-18.0,143,117,110,117,117
2025-02-25 18:03:54.280,-504.0,-881.0,206.0,17.0,-11.0,-19.0,143,117,109,115,119
2025-02-25 18:03:54.284,-489.0,-886.0,212.0,17.0,-9.0,-19.0,142,117,109,117,117
2025-02-25 18:03:54.292,-483.0,-870.0,191.0,24.0,-7.0,-19.0,142,117,110,117,116
2025-02-25 18:03:54.296,-492.0,-867.0,143.0,22.0,-6.0,-18.0,142,120,110,116,116
2025-02-25 18:03:54.300,-483.0,-866.0,136.0,14.0,-9.0,-17.0,144,119,110,118,118
2025-02-25 18:03:54.304,-500.0,-872.0,173.0,4.0,-10.0,-17.0,143,116,111,120,119
2025-02-25 18:03:54.312,-488.0,-862.0,197.0,-2.0,-8.0,-16.0,144,117,110,116,117
2025-02-25 18:03:54.316,-469.0,-847.0,215.0,-8.0,-3.0,-16.0,145,122,111,116,120
2025-02-25 18:03:54.321,-480.0,-840.0,147.0,-10.0,1.0,-17.0,143,119,111,117,120
2025-02-25 18:03:54.329,-477.0,-847.0,200.0,-14.0,7.0,-18.0,146,123,114,123,122
2025-02-25 18:03:54.333,-467.0,-843.0,164.0,-14.0,9.0,-18.0,148,119,112,123,123
2025-02-25 18:03:54.337,-481.0,-866.0,118.0,-15.0,6.0,-18.0,149,122,117,123,127
2025-02-25 18:03:54.345,-477.0,-851.0,118.0,-11.0,1.0,-20.0,150,125,119,126,129
2025-02-25 18:03:54.349,-486.0,-868.0,162.0,1.0,-5.0,-21.0,150,126,118,126,127
2025-02-25 18:03:54.353,-482.0,-852.0,168.0,12.0,-7.0,-20.0,152,129,120,126,127
2025-02-25 18:03:54.358,-474.0,-857.0,165.0,17.0,-9.0,-21.0,154,131,122,128,131
2025-02-25 18:03:54.366,-479.0,-864.0,166.0,16.0,-7.0,-22.0,158,133,126,133,135
2025-02-25 18:03:54.370,-485.0,-847.0,157.0,24.0,-8.0,-22.0,180,152,149,155,156
2025-02-25 18:03:54.374,-478.0,-863.0,173.0,22.0,-9.0,-22.0,173,150,140,150,152
2025-02-25 18:03:54.382,-489.0,-861.0,221.0,17.0,-7.0,-23.0,171,145,138,146,147
2025-02-25 18:03:54.386,-478.0,-864.0,203.0,17.0,-4.0,-23.0,169,148,137,143,147
2025-02-25 18:03:54.391,-487.0,-856.0,172.0,13.0,-2.0,-23.0,167,139,136,145,146
2025-02-25 18:03:54.395,-473.0,-848.0,195.0,8.0,1.0,-24.0,168,141,137,143,146
2025-02-25 18:03:54.403,-487.0,-861.0,185.0,7.0,4.0,-24.0,163,141,131,138,142
2025-02-25 18:03:54.407,-468.0,-866.0,173.0,7.0,5.0,-25.0,165,141,133,140,144
2025-02-25 18:03:54.411,-463.0,-866.0,148.0,1.0,4.0,-26.0,165,141,134,139,142
2025-02-25 18:03:54.415,-459.0,-874.0,159.0,0.0,3.0,-27.0,165,140,134,140,144
2025-02-25 18:03:54.423,-472.0,-889.0,136.0,0.0,0.0,-27.0,162,137,132,140,140
2025-02-25 18:03:54.427,-454.0,-890.0,160.0,0.0,-2.0,-28.0,166,139,134,141,144
2025-02-25 18:03:54.432,-465.0,-897.0,149.0,1.0,-2.0,-28.0,168,142,134,143,146
2025-02-25 18:03:54.439,-475.0,-915.0,140.0,5.0,-4.0,-28.0,167,138,134,141,142
2025-02-25 18:03:54.444,-465.0,-914.0,157.0,4.0,-4.0,-28.0,166,138,133,140,143
2025-02-25 18:03:54.448,-471.0,-927.0,145.0,5.0,-5.0,-27.0,168,143,136,143,145
2025-02-25 18:03:54.452,-478.0,-934.0,141.0,3.0,-6.0,-27.0,167,141,136,139,143
2025-02-25 18:03:54.460,-460.0,-936.0,148.0,4.0,-7.0,-25.0,167,141,136,142,148
2025-02-25 18:03:54.464,-468.0,-938.0,151.0,0.0,-7.0,-23.0,165,139,135,140,141
2025-02-25 18:03:54.469,-460.0,-946.0,151.0,-3.0,-7.0,-23.0,161,145,129,137,146
2025-02-25 18:03:54.473,-449.0,-944.0,152.0,-5.0,-7.0,-21.0,165,140,133,141,143
2025-02-25 18:03:54.481,-437.0,-964.0,156.0,-6.0,-5.0,-20.0,166,139,134,143,144
2025-02-25 18:03:54.485,-422.0,-983.0,161.0,-7.0,-4.0,-18.0,165,140,134,139,143
2025-02-25 18:03:54.489,-413.0,-996.0,168.0,-10.0,-3.0,-16.0,161,135,130,139,141
2025-02-25 18:03:54.497,-398.0,-1014.0,154.0,-12.0,-3.0,-16.0,163,137,130,138,141
2025-02-25 18:03:54.502,-390.0,-1029.0,162.0,-14.0,-5.0,-15.0,168,139,136,143,146
2025-02-25 18:03:54.506,-373.0,-1042.0,172.0,-13.0,-3.0,-14.0,164,139,133,139,145
2025-02-25 18:03:54.514,-370.0,-1039.0,152.0,-13.0,-1.0,-12.0,165,139,135,142,145
2025-02-25 18:03:54.518,-371.0,-1039.0,151.0,-12.0,0.0,-10.0,167,142,136,139,146
2025-02-25 18:03:54.522,-377.0,-1049.0,157.0,-10.0,1.0,-7.0,164,137,131,139,142
2025-02-25 18:03:54.530,-382.0,-1041.0,144.0,-13.0,2.0,-5.0,162,136,130,137,141
2025-02-25 18:03:54.534,-384.0,-1041.0,127.0,-13.0,2.0,-3.0,168,139,133,140,143
2025-02-25 18:03:54.539,-393.0,-1043.0,126.0,-14.0,2.0,0.0,165,142,137,144,144
2025-02-25 18:03:54.546,-399.0,-1040.0,116.0,-15.0,4.0,3.0,164,137,132,140,145
2025-02-25 18:03:54.551,-405.0,-1031.0,107.0,-14.0,4.0,6.0,162,135,131,138,141
2025-02-25 18:03:54.555,-412.0,-1028.0,112.0,-14.0,5.0,7.0,162,136,132,138,140
2025-02-25 18:03:54.559,-422.0,-1027.0,116.0,-14.0,5.0,9.0,166,138,136,142,146
2025-02-25 18:03:54.566,-434.0,-1019.0,111.0,-15.0,5.0,10.0,165,139,134,141,145
2025-02-25 18:03:54.571,-433.0,-1014.0,111.0,-14.0,5.0,12.0,164,137,132,138,144
2025-02-25 18:03:54.575,-445.0,-1014.0,104.0,-12.0,4.0,13.0,163,135,131,138,140
2025-02-25 18:03:54.583,-440.0,-1003.0,109.0,-12.0,4.0,14.0,162,136,131,137,141
2025-02-25 18:03:54.587,-451.0,-990.0,112.0,-10.0,4.0,15.0,166,137,136,141,146
2025-02-25 18:03:54.591,-451.0,-979.0,111.0,-10.0,3.0,16.0,166,139,135,141,143
2025-02-25 18:03:54.596,-454.0,-957.0,121.0,-9.0,3.0,17.0,166,137,135,142,147
2025-02-25 18:03:54.604,-460.0,-946.0,125.0,-9.0,4.0,18.0,163,137,131,138,141
2025-02-25 18:03:54.608,-459.0,-932.0,127.0,-10.0,5.0,18.0,165,138,134,140,144
2025-02-25 18:03:54.612,-462.0,-918.0,120.0,-10.0,6.0,19.0,166,142,134,140,144
2025-02-25 18:03:54.617,-472.0,-904.0,111.0,-10.0,7.0,19.0,165,140,136,141,144
2025-02-25 18:03:54.624,-469.0,-906.0,109.0,-12.0,7.0,19.0,164,136,132,137,141
2025-02-25 18:03:54.629,-484.0,-904.0,115.0,-13.0,7.0,19.0,166,139,133,139,143
2025-02-25 18:03:54.632,-482.0,-894.0,101.0,-16.0,9.0,18.0,165,138,132,140,144
2025-02-25 18:03:54.640,-481.0,-876.0,135.0,-17.0,11.0,18.0,162,138,131,141,144
2025-02-25 18:03:54.645,-487.0,-871.0,114.0,-8.0,11.0,18.0,165,137,131,138,140
2025-02-25 18:03:54.649,-502.0,-881.0,117.0,-11.0,12.0,18.0,161,134,124,137,141
2025-02-25 18:03:54.654,-500.0,-868.0,104.0,-9.0,11.0,17.0,166,139,133,143,145
2025-02-25 18:03:54.661,-502.0,-858.0,97.0,-4.0,9.0,17.0,166,138,134,140,145
2025-02-25 18:03:54.665,-511.0,-852.0,107.0,-4.0,9.0,17.0,162,139,132,139,144
2025-02-25 18:03:54.669,-503.0,-855.0,125.0,-8.0,10.0,15.0,163,135,126,137,140
2025-02-25 18:03:54.674,-498.0,-845.0,109.0,-3.0,11.0,15.0,165,138,131,141,144
2025-02-25 18:03:54.681,-506.0,-851.0,115.0,-1.0,11.0,15.0,167,138,134,143,144
2025-02-25 18:03:54.685,-501.0,-849.0,145.0,-4.0,14.0,13.0,165,137,136,144,144
2025-02-25 18:03:54.690,-495.0,-845.0,126.0,-4.0,15.0,13.0,161,135,136,137,140
2025-02-25 18:03:54.697,-479.0,-840.0,92.0,-3.0,14.0,13.0,163,136,132,137,140
2025-02-25 18:03:54.702,-474.0,-848.0,108.0,-4.0,14.0,12.0,165,138,134,143,145
2025-02-25 18:03:54.706,-477.0,-859.0,114.0,-5.0,13.0,11.0,164,136,132,138,141
2025-02-25 18:03:54.710,-476.0,-854.0,116.0,-6.0,15.0,11.0,162,137,131,139,140
2025-02-25 18:03:54.718,-478.0,-839.0,103.0,-3.0,13.0,12.0,164,137,132,140,144
2025-02-25 18:03:54.722,-475.0,-844.0,113.0,-2.0,13.0,12.0,165,137,136,143,144
2025-02-25 18:03:54.727,-489.0,-834.0,120.0,-1.0,13.0,12.0,165,137,134,141,143
2025-02-25 18:03:54.731,-494.0,-856.0,78.0,-2.0,8.0,12.0,162,133,130,137,141
2025-02-25 18:03:54.738,-490.0,-840.0,138.0,-1.0,10.0,11.0,166,139,133,143,145
2025-02-25 18:03:54.743,-504.0,-843.0,125.0,5.0,8.0,10.0,166,137,135,140,144
2025-02-25 18:03:54.747,-486.0,-846.0,132.0,4.0,9.0,10.0,164,138,135,140,145
2025-02-25 18:03:54.752,-496.0,-830.0,106.0,6.0,9.0,9.0,162,134,131,139,140
2025-02-25 18:03:54.759,-500.0,-820.0,94.0,4.0,9.0,8.0,164,132,131,138,142
2025-02-25 18:03:54.764,-506.0,-820.0,94.0,4.0,9.0,7.0,166,138,135,142,144
2025-02-25 18:03:54.768,-500.0,-825.0,103.0,3.0,9.0,5.0,165,132,128,137,138
2025-02-25 18:03:54.772,-491.0,-805.0,114.0,-2.0,9.0,4.0,161,131,130,137,138
2025-02-25 18:03:54.776,-488.0,-799.0,73.0,2.0,8.0,3.0,168,138,136,144,146
2025-02-25 18:03:54.784,-480.0,-798.0,77.0,1.0,6.0,0.0,162,132,132,138,140
2025-02-25 18:03:54.788,-474.0,-813.0,94.0,-1.0,4.0,-1.0,163,128,129,136,140
2025-02-25 18:03:54.792,-486.0,-821.0,97.0,-3.0,6.0,-3.0,165,133,133,140,141
2025-02-25 18:03:54.797,-486.0,-826.0,98.0,-3.0,6.0,-7.0,168,133,136,145,145
2025-02-25 18:03:54.804,-490.0,-825.0,113.0,-3.0,6.0,-10.0,161,127,129,139,139
2025-02-25 18:03:54.808,-489.0,-849.0,91.0,-3.0,1.0,-11.0,166,132,133,141,141
2025-02-25 18:03:54.813,-483.0,-854.0,125.0,0.0,2.0,-14.0,164,129,131,139,141
2025-02-25 18:03:54.817,-506.0,-867.0,58.0,2.0,-2.0,-15.0,168,131,133,141,142
2025-02-25 18:03:54.825,-516.0,-866.0,70.0,2.0,-1.0,-15.0,162,127,128,139,140
2025-02-25 18:03:54.829,-501.0,-863.0,-23.0,6.0,-7.0,-15.0,165,129,131,139,142
2025-02-25 18:03:54.833,-494.0,-895.0,62.0,9.0,-6.0,-14.0,167,128,131,138,137
2025-02-25 18:03:54.837,-504.0,-874.0,61.0,9.0,-7.0,-13.0,164,130,139,141,142
2025-02-25 18:03:54.845,-488.0,-889.0,75.0,15.0,-6.0,-11.0,163,123,128,137,137
2025-02-25 18:03:54.849,-483.0,-887.0,90.0,16.0,-3.0,-10.0,164,125,130,139,138
2025-02-25 18:03:54.853,-480.0,-882.0,77.0,16.0,-1.0,-8.0,164,125,129,142,140
2025-02-25 18:03:54.857,-484.0,-887.0,69.0,15.0,-1.0,-7.0,165,126,129,139,140
2025-02-25 18:03:54.865,-481.0,-885.0,94.0,12.0,-1.0,-6.0,163,124,128,137,136
2025-02-25 18:03:54.870,-485.0,-868.0,125.0,12.0,0.0,-6.0,162,127,130,137,138
2025-02-25 18:03:54.874,-494.0,-896.0,101.0,12.0,4.0,-5.0,165,128,133,140,139
2025-02-25 18:03:54.878,-476.0,-870.0,83.0,12.0,4.0,-5.0,168,129,131,140,139
2025-02-25 18:03:54.886,-483.0,-870.0,88.0,18.0,3.0,-6.0,161,123,129,142,137
2025-02-25 18:03:54.890,-505.0,-879.0,147.0,18.0,11.0,-7.0,166,126,129,140,139
2025-02-25 18:03:54.894,-514.0,-857.0,105.0,18.0,13.0,-7.0,165,125,132,143,140
2025-02-25 18:03:54.902,-483.0,-855.0,108.0,19.0,10.0,-7.0,165,124,132,141,140
2025-02-25 18:03:54.906,-492.0,-859.0,98.0,27.0,5.0,-6.0,162,121,127,138,139
2025-02-25 18:03:54.910,-512.0,-870.0,154.0,23.0,0.0,-7.0,165,122,132,140,137
2025-02-25 18:03:54.915,-480.0,-844.0,163.0,25.0,-4.0,-8.0,166,122,131,142,139
2025-02-25 18:03:54.923,-488.0,-830.0,167.0,24.0,-4.0,-7.0,166,123,130,141,138
2025-02-25 18:03:54.927,-480.0,-848.0,125.0,33.0,-5.0,-6.0,163,121,128,137,135
2025-02-25 18:03:54.931,-473.0,-837.0,155.0,32.0,-3.0,-6.0,164,118,129,139,135
2025-02-25 18:03:54.935,-474.0,-846.0,126.0,30.0,-1.0,-3.0,170,124,133,143,140
2025-02-25 18:03:54.943,-474.0,-864.0,112.0,27.0,-5.0,-2.0,165,121,130,141,138
2025-02-25 18:03:54.948,-462.0,-871.0,186.0,20.0,-6.0,0.0,164,117,129,140,135
2025-02-25 18:03:54.952,-465.0,-882.0,188.0,10.0,-5.0,-1.0,164,120,128,138,134
2025-02-25 18:03:54.956,-446.0,-883.0,177.0,4.0,-5.0,-1.0,171,125,135,145,141
2025-02-25 18:03:54.964,-449.0,-897.0,182.0,-2.0,-5.0,1.0,169,123,133,145,138
2025-02-25 18:03:54.968,-445.0,-918.0,217.0,-10.0,-4.0,1.0,167,121,131,143,131
2025-02-25 18:03:54.972,-452.0,-915.0,200.0,-15.0,1.0,2.0,168,122,132,142,137
2025-02-25 18:03:54.980,-441.0,-930.0,172.0,-19.0,3.0,3.0,179,132,142,153,148
2025-02-25 18:03:54.984,-439.0,-948.0,165.0,-24.0,4.0,3.0,177,129,142,152,145
2025-02-25 18:03:54.988,-441.0,-942.0,149.0,-33.0,4.0,4.0,176,129,137,150,142
2025-02-25 18:03:54.993,-440.0,-964.0,180.0,-39.0,4.0,4.0,175,127,138,149,144
2025-02-25 18:03:55.000,-448.0,-966.0,168.0,-43.0,3.0,5.0,183,132,146,156,146
2025-02-25 18:03:55.005,-447.0,-960.0,153.0,-43.0,1.0,6.0,183,134,144,156,151
2025-02-25 18:03:55.009,-452.0,-976.0,150.0,-37.0,-1.0,8.0,181,129,139,151,147
2025-02-25 18:03:55.021,-460.0,-964.0,194.0,-31.0,0.0,8.0,181,129,141,152,146
2025-02-25 18:03:55.023,-455.0,-957.0,158.0,-20.0,1.0,10.0,187,138,143,161,153
2025-02-25 18:03:55.026,-459.0,-953.0,145.0,-15.0,3.0,11.0,187,133,148,160,153
2025-02-25 18:03:55.030,-455.0,-950.0,143.0,-12.0,4.0,13.0,185,127,147,156,148
2025-02-25 18:03:55.034,-464.0,-958.0,127.0,-11.0,4.0,16.0,182,126,142,155,147
2025-02-25 18:03:55.042,-492.0,-979.0,122.0,-14.0,5.0,17.0,188,134,148,161,152
2025-02-25 18:03:55.046,-460.0,-934.0,111.0,-17.0,6.0,18.0,187,132,146,158,150
2025-02-25 18:03:55.051,-476.0,-943.0,119.0,-18.0,6.0,19.0,182,124,141,152,143
2025-02-25 18:03:55.058,-454.0,-933.0,148.0,-21.0,10.0,22.0,178,119,137,148,140
2025-02-25 18:03:55.063,-457.0,-923.0,125.0,-18.0,15.0,22.0,178,120,136,145,139
2025-02-25 18:03:55.067,-466.0,-926.0,143.0,-16.0,21.0,25.0,181,122,140,153,144
2025-02-25 18:03:55.072,-474.0,-923.0,125.0,-16.0,24.0,28.0,181,122,138,150,143
2025-02-25 18:03:55.079,-479.0,-916.0,127.0,-19.0,26.0,30.0,185,126,142,155,146
2025-02-25 18:03:55.083,-480.0,-919.0,110.0,-25.0,27.0,33.0,178,117,134,146,137
2025-02-25 18:03:55.088,-477.0,-903.0,107.0,-28.0,28.0,34.0,176,114,131,144,135
2025-02-25 18:03:55.095,-492.0,-891.0,134.0,-27.0,29.0,34.0,182,121,138,151,139
2025-02-25 18:03:55.099,-499.0,-902.0,133.0,-22.0,35.0,36.0,183,122,140,153,143
2025-02-25 18:03:55.104,-509.0,-890.0,77.0,-23.0,33.0,36.0,182,119,135,147,138
2025-02-25 18:03:55.111,-521.0,-908.0,62.0,-26.0,29.0,36.0,178,123,130,144,135
2025-02-25 18:03:55.115,-525.0,-881.0,129.0,-14.0,32.0,37.0,176,111,128,141,130
2025-02-25 18:03:55.120,-506.0,-874.0,125.0,-6.0,32.0,37.0,184,116,134,147,137
2025-02-25 18:03:55.124,-558.0,-889.0,52.0,-7.0,32.0,35.0,183,116,132,145,134
2025-02-25 18:03:55.131,-540.0,-846.0,5.0,-7.0,29.0,35.0,177,108,127,142,128
2025-02-25 18:03:55.136,-545.0,-850.0,97.0,-9.0,28.0,35.0,176,106,124,140,126
2025-02-25 18:03:55.140,-541.0,-839.0,126.0,-11.0,28.0,35.0,182,113,131,145,131
2025-02-25 18:03:55.144,-529.0,-801.0,79.0,-10.0,28.0,36.0,182,110,131,146,131
2025-02-25 18:03:55.152,-552.0,-825.0,70.0,-12.0,30.0,38.0,177,105,124,139,124
2025-02-25 18:03:55.156,-552.0,-832.0,68.0,-14.0,32.0,39.0,177,107,125,135,122
2025-02-25 18:03:55.160,-567.0,-796.0,70.0,-15.0,31.0,38.0,182,111,129,143,128
2025-02-25 18:03:55.169,-570.0,-788.0,75.0,-17.0,30.0,39.0,180,109,127,141,125
2025-02-25 18:03:55.173,-578.0,-796.0,77.0,-17.0,33.0,40.0,180,107,125,141,122
2025-02-25 18:03:55.178,-571.0,-796.0,64.0,-18.0,35.0,40.0,182,107,126,141,124
2025-02-25 18:03:55.182,-588.0,-781.0,45.0,-20.0,37.0,39.0,176,101,120,136,120
2025-02-25 18:03:55.189,-594.0,-760.0,34.0,-20.0,33.0,39.0,181,109,126,140,122
2025-02-25 18:03:55.193,-591.0,-746.0,46.0,-18.0,33.0,38.0,181,105,123,141,120
2025-02-25 18:03:55.198,-604.0,-717.0,40.0,-22.0,34.0,37.0,180,106,123,137,120
2025-02-25 18:03:55.202,-613.0,-681.0,60.0,-14.0,35.0,37.0,178,104,120,134,115
2025-02-25 18:03:55.210,-658.0,-704.0,64.0,-13.0,44.0,38.0,179,102,120,138,117
2025-02-25 18:03:55.214,-677.0,-625.0,47.0,-12.0,48.0,40.0,180,104,122,135,117
2025-02-25 18:03:55.218,-676.0,-513.0,126.0,-10.0,58.0,44.0,181,104,121,136,116
2025-02-25 18:03:55.226,-682.0,-415.0,86.0,-8.0,60.0,50.0,176,97,113,130,110
2025-02-25 18:03:55.230,-744.0,-344.0,78.0,-3.0,64.0,52.0,179,99,113,132,111
2025-02-25 18:03:55.234,-840.0,-188.0,80.0,2.0,71.0,59.0,180,100,116,131,110
2025-02-25 18:03:55.239,-944.0,-32.0,80.0,3.0,84.0,65.0,179,98,112,128,108
2025-02-25 18:03:55.243,-1000.0,142.0,86.0,-11.0,92.0,66.0,175,96,109,125,103
2025-02-25 18:03:55.251,-1038.0,361.0,78.0,-32.0,106.0,65.0,177,99,113,128,107
2025-02-25 18:03:55.255,-987.0,527.0,-45.0,-42.0,114.0,57.0,178,99,112,129,106
2025-02-25 18:03:55.259,-984.0,697.0,-280.0,-64.0,116.0,43.0,177,90,110,128,101
2025-02-25 18:03:55.267,-1049.0,886.0,-339.0,-50.0,117.0,20.0,174,95,106,125,101
2025-02-25 18:03:55.272,-921.0,942.0,-535.0,-30.0,107.0,3.0,177,98,107,127,100
2025-02-25 18:03:55.276,-916.0,977.0,-556.0,36.0,119.0,-48.0,178,98,110,129,104
2025-02-25 18:03:55.284,-1029.0,1011.0,-647.0,63.0,136.0,-116.0,176,97,108,129,105
2025-02-25 18:03:55.288,-1128.0,1023.0,-693.0,128.0,143.0,-185.0,174,98,108,130,104
2025-02-25 18:03:55.292,-1341.0,1180.0,-793.0,176.0,114.0,-251.0,167,94,105,125,98
2025-02-25 18:03:55.300,-1423.0,1304.0,-869.0,214.0,93.0,-317.0,169,96,107,129,103
2025-02-25 18:03:55.305,-1410.0,1420.0,-992.0,213.0,40.0,-386.0,163,94,102,121,100
2025-02-25 18:03:55.309,-1363.0,1310.0,-917.0,170.0,-21.0,-418.0,162,92,100,119,98
2025-02-25 18:03:55.316,-1154.0,1258.0,-793.0,121.0,-72.0,-477.0,164,96,107,124,106
2025-02-25 18:03:55.321,-829.0,977.0,-656.0,87.0,-143.0,-534.0,165,98,111,128,105
2025-02-25 18:03:55.325,-334.0,619.0,-564.0,77.0,-207.0,-588.0,164,97,108,124,105
2025-02-25 18:03:55.333,216.0,51.0,-380.0,76.0,-264.0,-628.0,163,93,104,123,106
2025-02-25 18:03:55.337,761.0,-476.0,-226.0,76.0,-292.0,-638.0,159,93,102,118,102
2025-02-25 18:03:55.342,1003.0,-1107.0,31.0,88.0,-305.0,-622.0,159,93,103,120,103
2025-02-25 18:03:55.349,1560.0,-1775.0,466.0,94.0,-313.0,-601.0,162,94,103,115,101
2025-02-25 18:03:55.354,2097.0,-2135.0,906.0,82.0,-288.0,-527.0,160,94,102,116,101
2025-02-25 18:03:55.361,2492.0,-2912.0,1435.0,61.0,-221.0,-413.0,162,97,106,121,103
2025-02-25 18:03:55.366,2638.0,-3584.0,1621.0,62.0,-135.0,-273.0,156,90,100,116,98
2025-02-25 18:03:55.370,2658.0,-4172.0,1844.0,78.0,-41.0,-141.0,154,90,106,111,99
2025-02-25 18:03:55.374,2683.0,-4362.0,1806.0,84.0,31.0,-34.0,152,88,98,105,95
2025-02-25 18:03:55.382,2665.0,-4189.0,1643.0,154.0,93.0,38.0,151,85,98,102,95
2025-02-25 18:03:55.386,2509.0,-4240.0,1476.0,195.0,162.0,56.0,152,87,99,103,96
2025-02-25 18:03:55.391,2285.0,-3750.0,1455.0,224.0,191.0,91.0,157,94,107,113,102
2025-02-25 18:03:55.398,1707.0,-3530.0,1229.0,201.0,209.0,135.0,158,96,107,113,102
2025-02-25 18:03:55.402,1187.0,-2982.0,1070.0,135.0,197.0,174.0,156,96,108,115,104
2025-02-25 18:03:55.407,1101.0,-2382.0,859.0,97.0,191.0,200.0,156,95,106,114,101
2025-02-25 18:03:55.414,761.0,-1920.0,736.0,25.0,159.0,201.0,151,94,106,112,98
2025-02-25 18:03:55.419,630.0,-1583.0,591.0,-48.0,155.0,197.0,153,94,104,115,100
2025-02-25 18:03:55.423,453.0,-1437.0,403.0,-107.0,119.0,186.0,152,95,103,114,99
2025-02-25 18:03:55.430,412.0,-1276.0,273.0,-166.0,103.0,172.0,153,94,108,117,99
2025-02-25 18:03:55.435,301.0,-1310.0,219.0,-203.0,76.0,154.0,153,96,104,117,101
2025-02-25 18:03:55.439,288.0,-1317.0,168.0,-219.0,50.0,143.0,155,97,105,121,100
2025-02-25 18:03:55.447,272.0,-1438.0,132.0,-239.0,40.0,140.0,150,95,103,115,95
2025-02-25 18:03:55.451,268.0,-1487.0,92.0,-245.0,9.0,140.0,148,91,98,115,96
2025-02-25 18:03:55.455,217.0,-1501.0,83.0,-249.0,5.0,152.0,151,96,106,120,101
2025-02-25 18:03:55.460,297.0,-1544.0,83.0,-242.0,-11.0,163.0,152,97,105,119,101
2025-02-25 18:03:55.468,247.0,-1551.0,81.0,-232.0,-9.0,171.0,149,93,105,118,100
2025-02-25 18:03:55.472,246.0,-1469.0,103.0,-216.0,-12.0,183.0,146,93,99,112,96
2025-02-25 18:03:55.477,200.0,-1427.0,145.0,-187.0,-16.0,187.0,148,94,103,116,99
2025-02-25 18:03:55.484,173.0,-1342.0,206.0,-169.0,-10.0,203.0,149,98,106,119,101
2025-02-25 18:03:55.488,123.0,-1206.0,222.0,-152.0,0.0,217.0,149,99,106,121,103
2025-02-25 18:03:55.493,111.0,-1067.0,238.0,-146.0,10.0,230.0,147,92,103,113,100
2025-02-25 18:03:55.501,80.0,-933.0,184.0,-139.0,27.0,244.0,148,96,105,115,100
2025-02-25 18:03:55.505,-4.0,-793.0,90.0,-131.0,30.0,250.0,144,92,104,112,94
2025-02-25 18:03:55.509,-77.0,-690.0,13.0,-122.0,34.0,251.0,149,97,107,118,101
2025-02-25 18:03:55.513,-177.0,-599.0,1.0,-120.0,44.0,255.0,148,96,108,117,101
2025-02-25 18:03:55.521,-252.0,-377.0,-105.0,-113.0,48.0,251.0,145,97,106,119,101
2025-02-25 18:03:55.525,-273.0,-299.0,-131.0,-101.0,41.0,240.0,144,92,104,110,100
2025-02-25 18:03:55.529,-380.0,-139.0,-156.0,-99.0,44.0,230.0,143,94,105,107,96
2025-02-25 18:03:55.537,-403.0,-92.0,-147.0,-94.0,39.0,223.0,146,99,108,116,103
2025-02-25 18:03:55.541,-464.0,-19.0,-142.0,-92.0,28.0,207.0,147,99,107,113,103
2025-02-25 18:03:55.546,-490.0,29.0,-153.0,-91.0,24.0,191.0,148,95,105,107,100
2025-02-25 18:03:55.550,-518.0,49.0,-163.0,-89.0,22.0,173.0,143,93,101,107,98
2025-02-25 18:03:55.558,-588.0,14.0,-203.0,-87.0,22.0,165.0,142,92,99,98,98
2025-02-25 18:03:55.562,-582.0,3.0,-202.0,-82.0,14.0,149.0,147,98,108,115,107
2025-02-25 18:03:55.566,-623.0,-38.0,-227.0,-80.0,15.0,135.0,144,95,94,114,101
2025-02-25 18:03:55.571,-623.0,-59.0,-269.0,-75.0,19.0,125.0,144,92,100,108,98
2025-02-25 18:03:55.579,-638.0,-44.0,-292.0,-71.0,22.0,119.0,146,96,103,110,102
2025-02-25 18:03:55.583,-627.0,-75.0,-311.0,-69.0,25.0,110.0,147,95,104,116,103
2025-02-25 18:03:55.587,-699.0,-53.0,-342.0,-65.0,26.0,104.0,146,93,104,115,100
2025-02-25 18:03:55.595,-723.0,-40.0,-363.0,-62.0,26.0,102.0,147,97,105,115,100
2025-02-25 18:03:55.599,-755.0,-19.0,-364.0,-59.0,25.0,102.0,146,96,105,116,101
2025-02-25 18:03:55.603,-798.0,10.0,-396.0,-58.0,17.0,102.0,139,92,96,108,94
2025-02-25 18:03:55.608,-787.0,90.0,-403.0,-56.0,14.0,102.0,143,90,100,110,96
2025-02-25 18:03:55.615,-828.0,219.0,-411.0,-55.0,7.0,98.0,140,90,98,108,95
2025-02-25 18:03:55.619,-859.0,350.0,-417.0,-52.0,4.0,94.0,138,86,95,107,94
2025-02-25 18:03:55.624,-888.0,401.0,-436.0,-50.0,-3.0,91.0,142,91,99,112,96
2025-02-25 18:03:55.628,-928.0,528.0,-439.0,-48.0,-8.0,87.0,141,88,100,112,95
2025-02-25 18:03:55.636,-981.0,619.0,-464.0,-45.0,-12.0,80.0,139,85,95,106,93
2025-02-25 18:03:55.640,-1001.0,693.0,-489.0,-35.0,-17.0,76.0,140,91,97,108,91
2025-02-25 18:03:55.645,-1068.0,736.0,-498.0,-20.0,-23.0,63.0,144,89,99,112,96
2025-02-25 18:03:55.649,-1092.0,809.0,-489.0,-3.0,-25.0,46.0,141,78,98,110,103
2025-02-25 18:03:55.656,-1132.0,885.0,-485.0,7.0,-30.0,26.0,138,89,96,109,97
2025-02-25 18:03:55.661,-1146.0,969.0,-455.0,27.0,-32.0,2.0,142,88,96,104,94
2025-02-25 18:03:55.665,-1189.0,1017.0,-415.0,46.0,-40.0,-10.0,141,90,98,110,97
2025-02-25 18:03:55.672,-1181.0,1132.0,-392.0,66.0,-44.0,-33.0,141,90,98,111,95
2025-02-25 18:03:55.676,-1146.0,1280.0,-307.0,78.0,-41.0,-62.0,142,90,99,108,94
2025-02-25 18:03:55.681,-1129.0,1425.0,-205.0,104.0,-39.0,-104.0,140,86,95,107,93
2025-02-25 18:03:55.689,-1072.0,1556.0,-122.0,134.0,-30.0,-160.0,138,87,96,108,92
2025-02-25 18:03:55.693,-998.0,1638.0,-62.0,161.0,-15.0,-192.0,138,90,95,109,94
2025-02-25 18:03:55.697,-912.0,1762.0,-29.0,177.0,-3.0,-262.0,143,94,102,114,99
2025-02-25 18:03:55.702,-841.0,1829.0,34.0,181.0,3.0,-339.0,141,90,98,111,96
2025-02-25 18:03:55.709,-822.0,1804.0,41.0,179.0,1.0,-426.0,136,88,95,108,92
2025-02-25 18:03:55.714,-678.0,1787.0,55.0,162.0,-9.0,-471.0,136,83,94,104,94
2025-02-25 18:03:55.718,-495.0,1606.0,43.0,136.0,-32.0,-556.0,144,93,102,116,100
2025-02-25 18:03:55.722,-197.0,1349.0,28.0,122.0,-61.0,-640.0,140,92,100,111,97
2025-02-25 18:03:55.730,235.0,948.0,22.0,93.0,-94.0,-712.0,138,88,96,109,99
2025-02-25 18:03:55.734,500.0,238.0,111.0,67.0,-110.0,-740.0,138,85,94,111,95
2025-02-25 18:03:55.738,1138.0,-267.0,208.0,54.0,-139.0,-762.0,146,90,100,115,102
2025-02-25 18:03:55.746,1702.0,-1414.0,337.0,61.0,-160.0,-737.0,144,91,97,114,99
2025-02-25 18:03:55.750,1970.0,-2604.0,594.0,72.0,-160.0,-658.0,139,89,97,110,100
2025-02-25 18:03:55.754,2369.0,-3744.0,966.0,98.0,-133.0,-528.0,139,86,96,111,97
2025-02-25 18:03:55.763,2633.0,-4723.0,1210.0,143.0,-104.0,-365.0,139,89,97,113,98
2025-02-25 18:03:55.767,2730.0,-5420.0,1362.0,180.0,-19.0,-280.0,140,86,99,110,97
2025-02-25 18:03:55.772,2614.0,-5635.0,1440.0,220.0,72.0,-117.0,138,87,97,107,95
2025-02-25 18:03:55.779,2808.0,-5460.0,1158.0,279.0,169.0,15.0,142,91,103,105,100
2025-02-25 18:03:55.784,2229.0,-4887.0,1017.0,294.0,173.0,100.0,142,90,107,105,102
2025-02-25 18:03:55.788,2192.0,-4518.0,889.0,288.0,196.0,144.0,139,87,102,108,99
2025-02-25 18:03:55.795,1758.0,-3881.0,645.0,263.0,210.0,182.0,138,87,102,107,96
2025-02-25 18:03:55.800,1374.0,-3117.0,390.0,199.0,185.0,200.0,139,89,102,112,102
2025-02-25 18:03:55.804,1227.0,-2475.0,272.0,113.0,153.0,200.0,138,87,99,110,98
2025-02-25 18:03:55.808,1017.0,-2327.0,115.0,5.0,127.0,212.0,142,85,101,112,97
2025-02-25 18:03:55.816,505.0,-1767.0,53.0,-52.0,93.0,214.0,140,89,100,112,99
2025-02-25 18:03:55.820,556.0,-1585.0,2.0,-96.0,54.0,203.0,141,89,99,110,97
2025-02-25 18:03:55.824,427.0,-1604.0,-226.0,-142.0,46.0,196.0,141,87,98,110,97
2025-02-25 18:03:55.832,251.0,-1689.0,-245.0,-178.0,8.0,186.0,140,89,105,114,100
2025-02-25 18:03:55.836,203.0,-1706.0,-231.0,-199.0,-20.0,177.0,140,90,99,114,99
2025-02-25 18:03:55.840,222.0,-1753.0,-186.0,-201.0,-40.0,174.0,140,89,100,112,100
2025-02-25 18:03:55.848,61.0,-1890.0,-87.0,-202.0,-55.0,182.0,140,90,97,112,98
2025-02-25 18:03:55.852,97.0,-1823.0,-14.0,-195.0,-70.0,190.0,137,87,95,109,94
2025-02-25 18:03:55.857,127.0,-1865.0,38.0,-174.0,-92.0,197.0,138,87,95,109,94
2025-02-25 18:03:55.861,130.0,-1730.0,70.0,-163.0,-87.0,217.0,142,88,102,116,99
2025-02-25 18:03:55.869,187.0,-1660.0,144.0,-151.0,-92.0,229.0,141,89,101,112,97
2025-02-25 18:03:55.873,111.0,-1503.0,229.0,-134.0,-102.0,241.0,140,88,98,107,96
2025-02-25 18:03:55.877,170.0,-1341.0,273.0,-125.0,-103.0,258.0,141,90,102,112,99
2025-02-25 18:03:55.885,141.0,-1139.0,295.0,-119.0,-88.0,261.0,137,86,99,108,96
2025-02-25 18:03:55.889,178.0,-1084.0,282.0,-114.0,-69.0,266.0,140,91,102,112,98
2025-02-25 18:03:55.894,57.0,-953.0,285.0,-112.0,-54.0,268.0,143,89,103,111,100
2025-02-25 18:03:55.902,-2.0,-775.0,249.0,-113.0,-44.0,265.0,144,91,102,116,99
2025-02-25 18:03:55.906,-67.0,-613.0,228.0,-113.0,-39.0,261.0,139,88,99,110,98
2025-02-25 18:03:55.911,-91.0,-444.0,193.0,-116.0,-25.0,259.0,139,87,99,109,94
2025-02-25 18:03:55.914,-200.0,-406.0,152.0,-113.0,-22.0,251.0,143,89,102,110,99
2025-02-25 18:03:55.922,-232.0,-279.0,145.0,-113.0,-17.0,242.0,142,91,102,115,98
2025-02-25 18:03:55.926,-339.0,-209.0,128.0,-115.0,-15.0,231.0,139,88,100,110,98
2025-02-25 18:03:55.931,-366.0,-145.0,108.0,-115.0,-13.0,220.0,138,87,99,107,95
2025-02-25 18:03:55.939,-355.0,-93.0,108.0,-106.0,-15.0,207.0,139,85,100,107,93
2025-02-25 18:03:55.942,-410.0,-98.0,99.0,-102.0,-12.0,200.0,143,90,101,110,97
2025-02-25 18:03:55.947,-440.0,-56.0,91.0,-95.0,-6.0,190.0,143,90,101,112,99
2025-02-25 18:03:55.951,-444.0,-67.0,92.0,-91.0,1.0,179.0,145,88,100,111,100
2025-02-25 18:03:55.959,-476.0,-91.0,77.0,-86.0,4.0,170.0,144,89,100,113,99
2025-02-25 18:03:55.963,-491.0,-83.0,30.0,-81.0,15.0,168.0,144,88,101,111,99
2025-02-25 18:03:55.968,-554.0,-125.0,3.0,-79.0,23.0,167.0,142,86,98,109,97
2025-02-25 18:03:55.972,-533.0,-44.0,-25.0,-81.0,27.0,164.0,140,85,96,107,94
2025-02-25 18:03:55.980,-562.0,-34.0,-55.0,-75.0,41.0,164.0,147,91,102,115,101
2025-02-25 18:03:55.984,-638.0,8.0,-103.0,-76.0,48.0,164.0,145,88,99,113,99
2025-02-25 18:03:55.988,-701.0,88.0,-136.0,-75.0,49.0,164.0,144,88,100,110,96
2025-02-25 18:03:55.993,-729.0,131.0,-170.0,-73.0,50.0,162.0,142,85,95,107,95
2025-02-25 18:03:56.000,-717.0,184.0,-209.0,-72.0,52.0,161.0,149,90,103,117,103
2025-02-25 18:03:56.004,-715.0,309.0,-218.0,-71.0,47.0,159.0,148,89,101,115,100
2025-02-25 18:03:56.009,-729.0,406.0,-262.0,-73.0,43.0,157.0,146,87,98,111,100
2025-02-25 18:03:56.013,-751.0,516.0,-280.0,-74.0,43.0,151.0,145,87,96,109,97
2025-02-25 18:03:56.021,-802.0,553.0,-312.0,-76.0,37.0,148.0,146,86,96,109,99
2025-02-25 18:03:56.025,-834.0,625.0,-330.0,-77.0,31.0,138.0,150,91,99,115,102
2025-02-25 18:03:56.029,-862.0,738.0,-345.0,-76.0,20.0,126.0,148,98,98,111,100
2025-02-25 18:03:56.033,-900.0,865.0,-385.0,-76.0,15.0,113.0,146,88,98,110,98
2025-02-25 18:03:56.041,-930.0,1017.0,-374.0,-77.0,8.0,107.0,149,87,98,110,98
2025-02-25 18:03:56.045,-977.0,1106.0,-362.0,-74.0,-1.0,93.0,152,91,99,113,101
2025-02-25 18:03:56.050,-1088.0,1308.0,-359.0,-61.0,-11.0,68.0,153,88,98,113,99
2025-02-25 18:03:56.057,-1339.0,1475.0,-484.0,-46.0,-25.0,35.0,150,87,98,109,98
2025-02-25 18:03:56.062,-1217.0,1875.0,-350.0,-6.0,-27.0,-21.0,154,87,95,108,97
2025-02-25 18:03:56.066,-1381.0,2056.0,-327.0,56.0,-37.0,-56.0,150,85,93,108,95
2025-02-25 18:03:56.074,-1217.0,2454.0,-286.0,108.0,-38.0,-131.0,156,87,100,113,99
2025-02-25 18:03:56.078,-1172.0,2653.0,-236.0,152.0,-22.0,-198.0,156,89,99,108,100
2025-02-25 18:03:56.082,-1212.0,2769.0,-229.0,176.0,-6.0,-258.0,157,89,100,115,99
2025-02-25 18:03:56.090,-1161.0,2698.0,-158.0,222.0,6.0,-323.0,156,89,100,113,99
2025-02-25 18:03:56.094,-1135.0,2614.0,-120.0,266.0,8.0,-391.0,155,86,94,108,96
2025-02-25 18:03:56.098,-994.0,2501.0,-142.0,302.0,10.0,-425.0,158,88,98,112,99
2025-02-25 18:03:56.104,-836.0,2433.0,-130.0,326.0,8.0,-494.0,159,91,100,114,99
2025-02-25 18:03:56.110,-635.0,2243.0,-149.0,324.0,10.0,-563.0,160,87,100,112,97
2025-02-25 18:03:56.115,-409.0,2099.0,-95.0,310.0,3.0,-629.0,160,87,98,112,94
2025-02-25 18:03:56.119,-353.0,1764.0,-135.0,281.0,-6.0,-683.0,159,87,96,110,97
2025-02-25 18:03:56.127,-106.0,1325.0,-272.0,254.0,-55.0,-697.0,162,85,96,108,94
2025-02-25 18:03:56.132,88.0,1058.0,-345.0,224.0,-135.0,-712.0,165,89,99,117,96
2025-02-25 18:03:56.136,647.0,625.0,-313.0,212.0,-235.0,-701.0,166,88,99,113,98
2025-02-25 18:03:56.144,1280.0,-63.0,-300.0,205.0,-337.0,-671.0,165,86,97,111,97
2025-02-25 18:03:56.147,1791.0,-891.0,-196.0,189.0,-423.0,-651.0,166,85,95,108,95
2025-02-25 18:03:56.152,1980.0,-1532.0,134.0,180.0,-447.0,-634.0,165,83,96,110,95
2025-02-25 18:03:56.159,2406.0,-2057.0,752.0,153.0,-445.0,-611.0,168,88,99,111,100
2025-02-25 18:03:56.164,3189.0,-3594.0,1199.0,156.0,-391.0,-526.0,170,88,100,112,97
2025-02-25 18:03:56.169,4002.0,-4719.0,2392.0,184.0,-256.0,-433.0,170,89,101,113,101
2025-02-25 18:03:56.177,4180.0,-5495.0,2586.0,257.0,-110.0,-301.0,173,90,104,113,100
2025-02-25 18:03:56.180,3729.0,-6414.0,2851.0,381.0,0.0,-167.0,175,88,109,109,101
2025-02-25 18:03:56.185,3770.0,-6346.0,3126.0,450.0,125.0,-59.0,174,87,105,105,99
2025-02-25 18:03:56.193,3432.0,-5931.0,1852.0,557.0,209.0,-18.0,173,85,103,104,98
2025-02-25 18:03:56.197,3093.0,-4600.0,2187.0,450.0,382.0,43.0,173,84,107,102,94
2025-02-25 18:03:56.202,2338.0,-3853.0,1278.0,366.0,420.0,140.0,173,83,103,103,96
2025-02-25 18:03:56.209,1464.0,-3274.0,872.0,194.0,287.0,170.0,170,83,102,102,95
2025-02-25 18:03:56.214,1560.0,-2695.0,329.0,4.0,255.0,191.0,174,87,102,106,98
2025-02-25 18:03:56.217,583.0,-1471.0,140.0,-122.0,224.0,198.0,179,92,104,108,100
2025-02-25 18:03:56.225,154.0,-1448.0,-198.0,-138.0,132.0,183.0,176,90,100,107,98
2025-02-25 18:03:56.230,443.0,-1522.0,-268.0,-206.0,53.0,153.0,172,86,98,107,95
2025-02-25 18:03:56.234,444.0,-1618.0,-151.0,-245.0,55.0,147.0,172,85,95,105,94
2025-02-25 18:03:56.242,306.0,-1454.0,-156.0,-261.0,86.0,159.0,175,87,99,108,94
2025-02-25 18:03:56.246,33.0,-2255.0,20.0,-241.0,30.0,154.0,176,89,104,112,98
2025-02-25 18:03:56.251,180.0,-2350.0,119.0,-219.0,-37.0,172.0,174,85,92,108,97
2025-02-25 18:03:56.258,452.0,-2117.0,371.0,-208.0,-30.0,196.0,173,87,98,106,95
2025-02-25 18:03:56.263,457.0,-2024.0,300.0,-193.0,20.0,216.0,173,85,98,106,95
2025-02-25 18:03:56.266,383.0,-1901.0,526.0,-150.0,12.0,224.0,177,89,103,110,97
2025-02-25 18:03:56.271,460.0,-1734.0,510.0,-142.0,1.0,236.0,182,90,102,110,97
2025-02-25 18:03:56.279,357.0,-1524.0,453.0,-129.0,-6.0,251.0,177,86,101,109,95
2025-02-25 18:03:56.283,326.0,-1148.0,429.0,-105.0,-22.0,250.0,176,87,100,105,95
2025-02-25 18:03:56.287,282.0,-1037.0,368.0,-93.0,-53.0,251.0,173,85,99,106,96
2025-02-25 18:03:56.295,129.0,-925.0,295.0,-94.0,-68.0,255.0,179,89,103,108,98
2025-02-25 18:03:56.299,113.0,-764.0,274.0,-100.0,-82.0,253.0,178,92,106,113,103
2025-02-25 18:03:56.304,52.0,-625.0,214.0,-109.0,-84.0,249.0,176,88,102,110,98
2025-02-25 18:03:56.308,129.0,-519.0,319.0,-139.0,-87.0,241.0,175,86,99,107,94
2025-02-25 18:03:56.316,-81.0,-455.0,215.0,-159.0,-92.0,242.0,173,85,99,105,94
2025-02-25 18:03:56.320,42.0,-430.0,268.0,-175.0,-80.0,230.0,176,91,104,111,101
2025-02-25 18:03:56.324,14.0,-370.0,248.0,-171.0,-64.0,218.0,177,88,103,110,99
2025-02-25 18:03:56.332,-6.0,-374.0,366.0,-171.0,-44.0,199.0,173,89,100,109,97
2025-02-25 18:03:56.336,28.0,-376.0,398.0,-162.0,-31.0,188.0,172,87,99,104,93
2025-02-25 18:03:56.340,-40.0,-357.0,442.0,-157.0,-18.0,187.0,176,90,105,111,99
2025-02-25 18:03:56.345,-125.0,-436.0,460.0,-150.0,0.0,188.0,178,89,104,111,98
2025-02-25 18:03:56.352,-241.0,-448.0,386.0,-142.0,5.0,192.0,175,88,100,107,97
2025-02-25 18:03:56.357,-248.0,-523.0,291.0,-121.0,7.0,196.0,173,87,101,108,95
2025-02-25 18:03:56.361,-342.0,-504.0,299.0,-106.0,18.0,198.0,175,87,100,108,94
2025-02-25 18:03:56.365,-395.0,-438.0,233.0,-88.0,18.0,204.0,176,91,103,112,97
2025-02-25 18:03:56.373,-441.0,-399.0,223.0,-76.0,19.0,210.0,178,90,99,111,96
2025-02-25 18:03:56.378,-481.0,-357.0,155.0,-66.0,30.0,212.0,176,86,98,106,95
2025-02-25 18:03:56.387,-559.0,-248.0,126.0,-60.0,26.0,215.0,173,87,99,108,96
2025-02-25 18:03:56.389,-574.0,-190.0,51.0,-59.0,24.0,215.0,177,90,101,110,98
2025-02-25 18:03:56.393,-605.0,-32.0,37.0,-58.0,37.0,211.0,178,89,101,110,97
2025-02-25 18:03:56.397,-634.0,115.0,3.0,-58.0,38.0,200.0,172,86,97,107,94
2025-02-25 18:03:56.402,-686.0,164.0,48.0,-57.0,41.0,193.0,173,88,96,105,94
2025-02-25 18:03:56.406,-696.0,347.0,11.0,-50.0,44.0,175.0,177,88,100,110,96
2025-02-25 18:03:56.413,-722.0,516.0,32.0,-47.0,48.0,149.0,174,88,98,106,96
2025-02-25 18:03:56.418,-735.0,663.0,31.0,-45.0,49.0,136.0,175,86,97,107,94
2025-02-25 18:03:56.422,-782.0,731.0,6.0,-46.0,49.0,117.0,179,93,103,111,98
2025-02-25 18:03:56.426,-849.0,822.0,-59.0,-46.0,50.0,96.0,175,87,102,111,99
2025-02-25 18:03:56.430,-923.0,893.0,-50.0,-48.0,45.0,75.0,172,85,97,106,93
2025-02-25 18:03:56.438,-981.0,989.0,-116.0,-53.0,38.0,64.0,177,90,98,112,100
2025-02-25 18:03:56.442,-1087.0,1016.0,-163.0,-54.0,35.0,40.0,179,94,99,110,101
2025-02-25 18:03:56.447,-1162.0,1046.0,-210.0,-50.0,29.0,20.0,174,87,100,109,96
2025-02-25 18:03:56.454,-1190.0,1069.0,-218.0,-44.0,22.0,-3.0,174,86,99,106,95
2025-02-25 18:03:56.459,-1246.0,1084.0,-236.0,-33.0,13.0,-14.0,177,87,100,109,97
2025-02-25 18:03:56.463,-1271.0,1112.0,-226.0,-25.0,11.0,-33.0,178,92,101,110,99
2025-02-25 18:03:56.471,-1303.0,1163.0,-215.0,-11.0,8.0,-51.0,178,90,101,111,97
2025-02-25 18:03:56.475,-1339.0,1235.0,-196.0,2.0,-1.0,-73.0,180,93,101,110,99
2025-02-25 18:03:56.480,-1335.0,1339.0,-130.0,26.0,-4.0,-99.0,177,91,101,112,100
2025-02-25 18:03:56.484,-1308.0,1386.0,-83.0,53.0,-7.0,-114.0,177,90,102,111,98
2025-02-25 18:03:56.492,-1256.0,1449.0,-32.0,76.0,-1.0,-145.0,179,95,106,115,103
2025-02-25 18:03:56.496,-1190.0,1445.0,2.0,102.0,4.0,-177.0,184,97,105,121,108
2025-02-25 18:03:56.500,-1209.0,1381.0,27.0,114.0,8.0,-204.0,188,108,119,123,117
2025-02-25 18:03:56.508,-1192.0,1302.0,41.0,143.0,10.0,-232.0,193,109,119,130,116
2025-02-25 18:03:56.512,-1153.0,1195.0,81.0,167.0,16.0,-261.0,192,107,117,125,114
2025-02-25 18:03:56.516,-1060.0,1168.0,81.0,190.0,28.0,-276.0,192,106,117,127,115
2025-02-25 18:03:56.525,-989.0,1091.0,127.0,210.0,30.0,-311.0,198,114,124,135,123
2025-02-25 18:03:56.529,-851.0,980.0,108.0,232.0,26.0,-352.0,198,110,124,132,121
2025-02-25 18:03:56.533,-627.0,1015.0,125.0,240.0,17.0,-404.0,197,112,123,133,121
2025-02-25 18:03:56.541,-384.0,1063.0,105.0,235.0,1.0,-458.0,201,116,128,138,124
2025-02-25 18:03:56.545,-328.0,984.0,32.0,216.0,-11.0,-508.0,196,110,122,134,120
2025-02-25 18:03:56.550,-209.0,857.0,-26.0,180.0,-40.0,-532.0,193,109,120,131,119
2025-02-25 18:03:56.557,78.0,731.0,-152.0,138.0,-75.0,-573.0,199,114,124,136,122
2025-02-25 18:03:56.561,394.0,296.0,-193.0,90.0,-119.0,-588.0,202,117,127,140,126
2025-02-25 18:03:56.566,656.0,-176.0,-237.0,56.0,-184.0,-570.0,200,116,127,138,126
2025-02-25 18:03:56.574,1189.0,-686.0,85.0,32.0,-215.0,-566.0,200,114,124,137,123
2025-02-25 18:03:56.578,1871.0,-1423.0,471.0,-6.0,-198.0,-572.0,197,114,124,137,123
2025-02-25 18:03:56.582,2407.0,-2456.0,568.0,-15.0,-186.0,-555.0,197,112,122,135,122
2025-02-25 18:03:56.590,2612.0,-3604.0,613.0,10.0,-166.0,-498.0,196,110,124,134,121
2025-02-25 18:03:56.595,2968.0,-4611.0,877.0,56.0,-132.0,-406.0,197,109,122,133,120
2025-02-25 18:03:56.602,3383.0,-5474.0,848.0,122.0,-67.0,-358.0,204,116,130,132,127
2025-02-25 18:03:56.606,3129.0,-5879.0,1391.0,246.0,61.0,-222.0,198,113,128,129,124
2025-02-25 18:03:56.610,3223.0,-5537.0,1050.0,361.0,46.0,-137.0,202,119,131,137,129
2025-02-25 18:03:56.619,3674.0,-5356.0,1452.0,375.0,147.0,-40.0,197,115,130,133,126
2025-02-25 18:03:56.623,2962.0,-5419.0,939.0,333.0,240.0,54.0,200,115,132,135,127
2025-02-25 18:03:56.627,2436.0,-4175.0,802.0,226.0,253.0,143.0,199,114,128,132,126
2025-02-25 18:03:56.635,2239.0,-3300.0,968.0,145.0,277.0,193.0,198,113,126,132,125
2025-02-25 18:03:56.639,1854.0,-2464.0,569.0,57.0,220.0,206.0,200,118,128,135,128
2025-02-25 18:03:56.644,1382.0,-2204.0,77.0,-31.0,210.0,225.0,197,110,124,129,123
2025-02-25 18:03:56.652,1042.0,-2329.0,-150.0,-107.0,200.0,240.0,197,110,122,132,121
2025-02-25 18:03:56.656,910.0,-2116.0,-348.0,-130.0,151.0,250.0,203,117,131,138,128
2025-02-25 18:03:56.664,452.0,-1672.0,-105.0,-161.0,72.0,246.0,201,119,130,136,128
2025-02-25 18:03:56.668,460.0,-2073.0,-18.0,-176.0,22.0,241.0,207,122,135,143,133
2025-02-25 18:03:56.673,613.0,-1826.0,22.0,-188.0,-5.0,237.0,206,122,135,141,132
2025-02-25 18:03:56.680,401.0,-1843.0,-48.0,-176.0,9.0,249.0,211,128,142,146,139
2025-02-25 18:03:56.685,346.0,-1837.0,209.0,-165.0,4.0,259.0,205,121,134,142,133
2025-02-25 18:03:56.689,417.0,-1678.0,296.0,-151.0,-3.0,273.0,200,117,127,133,128
2025-02-25 18:03:56.697,360.0,-1476.0,282.0,-119.0,1.0,301.0,202,116,127,135,128
2025-02-25 18:03:56.701,266.0,-1472.0,386.0,-127.0,-19.0,309.0,207,124,137,143,133
2025-02-25 18:03:56.705,206.0,-1107.0,438.0,-136.0,-56.0,326.0,206,122,134,142,134
2025-02-25 18:03:56.713,211.0,-927.0,438.0,-127.0,-60.0,331.0,205,122,134,142,131
2025-02-25 18:03:56.717,157.0,-684.0,428.0,-112.0,-56.0,327.0,206,123,134,143,134
2025-02-25 18:03:56.721,123.0,-423.0,663.0,-108.0,-56.0,309.0,207,123,132,141,130
2025-02-25 18:03:56.729,118.0,-268.0,636.0,-98.0,-48.0,293.0,201,116,129,138,128
2025-02-25 18:03:56.734,95.0,-168.0,655.0,-117.0,-29.0,277.0,201,115,125,136,127
2025-02-25 18:03:56.738,13.0,-105.0,644.0,-128.0,-3.0,273.0,205,121,132,142,132
2025-02-25 18:03:56.745,-166.0,32.0,612.0,-129.0,16.0,261.0,206,121,135,143,133
2025-02-25 18:03:56.750,-272.0,106.0,590.0,-138.0,32.0,250.0,202,118,129,136,127
2025-02-25 18:03:56.754,-403.0,180.0,522.0,-143.0,43.0,239.0,200,113,129,137,126
2025-02-25 18:03:56.762,-462.0,253.0,488.0,-152.0,46.0,230.0,200,114,127,135,124
2025-02-25 18:03:56.766,-486.0,243.0,363.0,-160.0,48.0,225.0,197,113,126,134,126
2025-02-25 18:03:56.770,-610.0,313.0,253.0,-162.0,44.0,214.0,201,114,130,138,130
2025-02-25 18:03:56.775,-717.0,348.0,220.0,-156.0,41.0,203.0,201,118,134,140,128
2025-02-25 18:03:56.783,-778.0,251.0,128.0,-151.0,28.0,194.0,202,119,133,141,134
2025-02-25 18:03:56.786,-806.0,163.0,77.0,-154.0,18.0,187.0,199,118,130,138,129
2025-02-25 18:03:56.792,-793.0,195.0,39.0,-152.0,13.0,181.0,196,112,124,135,123
2025-02-25 18:03:56.798,-831.0,168.0,42.0,-142.0,11.0,177.0,194,113,124,133,123
2025-02-25 18:03:56.803,-737.0,211.0,15.0,-145.0,2.0,167.0,202,119,131,143,132
2025-02-25 18:03:56.808,-836.0,272.0,16.0,-138.0,7.0,157.0,203,117,128,139,130
2025-02-25 18:03:56.815,-851.0,278.0,-15.0,-134.0,14.0,145.0,198,112,124,135,127
2025-02-25 18:03:56.819,-791.0,365.0,27.0,-125.0,16.0,128.0,202,118,128,141,134
2025-02-25 18:03:56.824,-791.0,391.0,10.0,-119.0,16.0,119.0,194,112,122,135,124
2025-02-25 18:03:56.828,-766.0,468.0,77.0,-118.0,17.0,101.0,202,117,130,140,130
2025-02-25 18:03:56.836,-771.0,520.0,68.0,-117.0,9.0,82.0,203,121,130,142,129
2025-02-25 18:03:56.840,-844.0,432.0,-28.0,-126.0,4.0,54.0,197,116,128,137,126
2025-02-25 18:03:56.844,-787.0,160.0,-291.0,-136.0,-9.0,40.0,196,113,126,135,123
2025-02-25 18:03:56.852,-820.0,621.0,-73.0,-143.0,-11.0,45.0,196,113,126,137,128
2025-02-25 18:03:56.856,-860.0,395.0,-46.0,-125.0,-28.0,37.0,198,113,130,143,130
2025-02-25 18:03:56.860,-850.0,453.0,29.0,-134.0,-33.0,23.0,200,110,131,143,137
2025-02-25 18:03:56.868,-836.0,399.0,162.0,-113.0,-11.0,26.0,199,118,129,144,132
2025-02-25 18:03:56.872,-879.0,518.0,20.0,-48.0,-10.0,22.0,194,117,125,138,128
2025-02-25 18:03:56.877,-837.0,587.0,208.0,7.0,-4.0,14.0,193,112,124,140,128
2025-02-25 18:03:56.881,-787.0,812.0,186.0,25.0,-6.0,-12.0,199,121,133,148,136
2025-02-25 18:03:56.889,-959.0,761.0,-119.0,27.0,-18.0,-28.0,197,120,133,148,133
2025-02-25 18:03:56.893,-1032.0,847.0,44.0,43.0,-14.0,-45.0,194,118,128,143,133
2025-02-25 18:03:56.898,-1060.0,1029.0,-3.0,82.0,-18.0,-69.0,197,122,136,149,139
2025-02-25 18:03:56.905,-1021.0,1025.0,-107.0,117.0,-21.0,-75.0,193,117,128,147,137
2025-02-25 18:03:56.910,-1011.0,1250.0,-97.0,141.0,-23.0,-106.0,199,126,138,154,145
2025-02-25 18:03:56.914,-995.0,1177.0,-256.0,201.0,-8.0,-118.0,198,126,138,154,144
2025-02-25 18:03:56.922,-922.0,1191.0,-183.0,256.0,8.0,-149.0,203,130,143,166,153
2025-02-25 18:03:56.927,-858.0,939.0,-201.0,275.0,27.0,-179.0,198,132,143,157,151
2025-02-25 18:03:56.931,-797.0,790.0,-337.0,286.0,38.0,-213.0,196,130,141,158,155
2025-02-25 18:03:56.939,-849.0,626.0,-661.0,290.0,26.0,-237.0,193,132,142,153,149
2025-02-25 18:03:56.942,-900.0,490.0,-782.0,297.0,1.0,-252.0,194,139,145,155,152
2025-02-25 18:03:56.947,-978.0,439.0,-944.0,307.0,-36.0,-260.0,191,141,145,153,150
2025-02-25 18:03:56.954,-931.0,425.0,-859.0,319.0,-52.0,-268.0,196,152,151,155,157
2025-02-25 18:03:56.959,-567.0,375.0,-834.0,336.0,-71.0,-282.0,204,159,158,162,166
2025-02-25 18:03:56.967,-339.0,370.0,-1001.0,332.0,-134.0,-295.0,199,160,154,163,162
2025-02-25 18:03:56.971,-263.0,864.0,-717.0,333.0,-184.0,-345.0,199,160,154,165,161
2025-02-25 18:03:56.975,6.0,1598.0,-659.0,324.0,-234.0,-420.0,198,163,157,166,162
2025-02-25 18:03:56.983,389.0,854.0,-219.0,262.0,-245.0,-454.0,198,163,155,165,165
2025-02-25 18:03:56.987,570.0,-733.0,718.0,226.0,-232.0,-451.0,195,161,156,164,162
2025-02-25 18:03:56.992,842.0,-1646.0,1554.0,153.0,-156.0,-445.0,193,158,151,161,160
2025-02-25 18:03:56.999,914.0,-1774.0,1385.0,114.0,-124.0,-455.0,197,165,158,165,168
2025-02-25 18:03:57.004,1195.0,-1985.0,971.0,123.0,-196.0,-459.0,197,167,157,164,164
2025-02-25 18:03:57.012,1701.0,-2333.0,1111.0,76.0,-257.0,-448.0,194,163,153,161,160
2025-02-25 18:03:57.016,2034.0,-2830.0,976.0,-33.0,-308.0,-437.0,193,165,154,161,162
2025-02-25 18:03:57.021,2323.0,-3371.0,1013.0,-150.0,-394.0,-422.0,196,179,156,165,168
2025-02-25 18:03:57.028,2642.0,-3836.0,1065.0,-205.0,-403.0,-380.0,199,170,158,166,161
2025-02-25 18:03:57.033,2710.0,-4173.0,782.0,-251.0,-363.0,-312.0,200,172,157,164,165
2025-02-25 18:03:57.040,2291.0,-4357.0,816.0,-249.0,-314.0,-238.0,206,180,163,171,176
2025-02-25 18:03:57.045,1793.0,-4407.0,1551.0,-112.0,-181.0,-110.0,204,176,160,168,170
2025-02-25 18:03:57.053,1215.0,-3849.0,1205.0,-62.0,-107.0,-6.0,202,175,160,167,170
2025-02-25 18:03:57.057,1549.0,-3444.0,718.0,43.0,41.0,95.0,203,177,162,169,173
2025-02-25 18:03:57.061,1181.0,-3390.0,723.0,100.0,99.0,187.0,202,174,162,171,173
2025-02-25 18:03:57.069,1385.0,-3212.0,744.0,107.0,175.0,254.0,202,176,161,169,170
2025-02-25 18:03:57.074,853.0,-3103.0,619.0,133.0,198.0,288.0,199,174,158,165,168
2025-02-25 18:03:57.078,829.0,-2498.0,53.0,27.0,156.0,302.0,197,172,159,164,168
2025-02-25 18:03:57.085,673.0,-2542.0,410.0,-72.0,139.0,303.0,198,171,157,162,168
2025-02-25 18:03:57.089,533.0,-2226.0,256.0,-114.0,114.0,296.0,202,177,167,169,171
2025-02-25 18:03:57.094,495.0,-1841.0,-62.0,-38.0,71.0,279.0,201,177,162,169,173
2025-02-25 18:03:57.102,357.0,-1993.0,930.0,7.0,142.0,279.0,204,177,164,172,175
2025-02-25 18:03:57.106,540.0,-1663.0,841.0,19.0,194.0,261.0,200,176,161,168,169
2025-02-25 18:03:57.110,681.0,-1477.0,368.0,104.0,182.0,247.0,201,176,160,171,173
2025-02-25 18:03:57.114,452.0,-1414.0,378.0,41.0,189.0,236.0,203,179,164,172,174
2025-02-25 18:03:57.122,193.0,-1396.0,-279.0,-51.0,145.0,224.0,209,178,169,177,183
2025-02-25 18:03:57.126,-83.0,-1136.0,-523.0,-154.0,38.0,198.0,207,184,170,179,180
2025-02-25 18:03:57.134,-189.0,-1133.0,-325.0,-183.0,-27.0,192.0,209,182,169,177,179
2025-02-25 18:03:57.139,-64.0,-1138.0,628.0,-123.0,11.0,203.0,209,187,172,180,182
2025-02-25 18:03:57.143,-18.0,-932.0,394.0,-78.0,32.0,209.0,206,182,167,174,175
2025-02-25 18:03:57.151,-55.0,-888.0,388.0,-23.0,37.0,213.0,199,178,160,168,171
2025-02-25 18:03:57.155,-84.0,-814.0,371.0,-7.0,39.0,218.0,199,176,159,167,169
2025-02-25 18:03:57.159,-138.0,-718.0,153.0,-34.0,25.0,218.0,208,183,169,177,180
2025-02-25 18:03:57.163,-287.0,-696.0,107.0,-88.0,-3.0,221.0,206,182,167,175,177
2025-02-25 18:03:57.172,-270.0,-554.0,181.0,-87.0,-16.0,223.0,204,182,163,173,177
2025-02-25 18:03:57.176,-288.0,-487.0,331.0,-74.0,-11.0,225.0,203,181,164,174,179
2025-02-25 18:03:57.180,-303.0,-431.0,425.0,-40.0,-7.0,223.0,197,176,158,169,170
2025-02-25 18:03:57.188,-315.0,-368.0,308.0,-17.0,10.0,225.0,199,179,160,169,172
2025-02-25 18:03:57.192,-358.0,-332.0,391.0,3.0,26.0,224.0,200,177,159,168,172
2025-02-25 18:03:57.197,-434.0,-216.0,374.0,-8.0,44.0,219.0,205,184,168,177,176
2025-02-25 18:03:57.204,-483.0,-114.0,253.0,-15.0,47.0,205.0,205,184,167,176,178
2025-02-25 18:03:57.209,-509.0,-75.0,272.0,-38.0,54.0,192.0,202,182,164,172,173
2025-02-25 18:03:57.213,-552.0,-21.0,290.0,-57.0,59.0,177.0,202,180,159,170,174
2025-02-25 18:03:57.221,-615.0,2.0,205.0,-65.0,64.0,170.0,206,182,166,176,177
2025-02-25 18:03:57.225,-676.0,74.0,210.0,-58.0,74.0,156.0,207,184,168,178,179
2025-02-25 18:03:57.229,-706.0,85.0,251.0,-48.0,95.0,145.0,206,180,164,176,178
2025-02-25 18:03:57.234,-709.0,167.0,177.0,-15.0,100.0,133.0,202,178,162,172,175
2025-02-25 18:03:57.241,-728.0,214.0,83.0,-6.0,106.0,118.0,206,182,166,177,179
2025-02-25 18:03:57.246,-771.0,223.0,-49.0,-3.0,103.0,110.0,212,187,171,182,184
2025-02-25 18:03:57.250,-852.0,282.0,-79.0,-5.0,90.0,94.0,209,188,172,181,182
2025-02-25 18:03:57.254,-901.0,318.0,-86.0,-3.0,83.0,81.0,213,186,172,179,180
2025-02-25 18:03:57.262,-928.0,409.0,-93.0,0.0,77.0,71.0,205,184,170,177,178
2025-02-25 18:03:57.266,-955.0,411.0,-83.0,16.0,71.0,66.0,210,188,173,183,184
2025-02-25 18:03:57.271,-978.0,472.0,-98.0,31.0,69.0,54.0,209,185,174,182,191
2025-02-25 18:03:57.275,-976.0,524.0,-132.0,32.0,64.0,41.0,206,184,171,180,180
2025-02-25 18:03:57.283,-977.0,606.0,-177.0,27.0,57.0,25.0,205,182,173,176,178
2025-02-25 18:03:57.287,-1029.0,658.0,-163.0,24.0,46.0,17.0,208,187,173,182,182
2025-02-25 18:03:57.291,-1028.0,731.0,-202.0,17.0,37.0,0.0,208,186,165,182,183
2025-02-25 18:03:57.299,-1072.0,772.0,-207.0,17.0,34.0,-18.0,206,185,173,180,180
2025-02-25 18:03:57.303,-1123.0,794.0,-258.0,20.0,27.0,-36.0,206,185,172,178,179
2025-02-25 18:03:57.308,-1117.0,786.0,-253.0,26.0,24.0,-57.0,202,180,166,176,176
2025-02-25 18:03:57.315,-1123.0,857.0,-259.0,33.0,18.0,-67.0,200,178,167,176,176
2025-02-25 18:03:57.320,-1116.0,868.0,-292.0,43.0,9.0,-90.0,213,192,181,189,187
2025-02-25 18:03:57.324,-1081.0,851.0,-295.0,53.0,-2.0,-114.0,209,185,172,181,183
2025-02-25 18:03:57.331,-1117.0,803.0,-358.0,49.0,-20.0,-138.0,206,180,170,180,180
2025-02-25 18:03:57.336,-1056.0,777.0,-188.0,60.0,-21.0,-161.0,206,180,170,178,179
2025-02-25 18:03:57.340,-1042.0,773.0,-100.0,99.0,-16.0,-181.0,206,186,170,178,183
2025-02-25 18:03:57.348,-1003.0,788.0,-226.0,120.0,-18.0,-203.0,203,178,168,175,175
2025-02-25 18:03:57.352,-927.0,721.0,-79.0,142.0,-17.0,-225.0,198,179,167,178,176
2025-02-25 18:03:57.357,-900.0,689.0,-42.0,161.0,-26.0,-237.0,203,182,167,176,182
2025-02-25 18:03:57.364,-811.0,644.0,52.0,160.0,-36.0,-262.0,209,185,172,183,183
2025-02-25 18:03:57.368,-690.0,582.0,43.0,160.0,-46.0,-287.0,207,182,173,182,182
2025-02-25 18:03:57.373,-549.0,520.0,42.0,156.0,-60.0,-313.0,206,181,169,178,179
2025-02-25 18:03:57.381,-419.0,403.0,141.0,146.0,-66.0,-341.0,207,185,173,182,183
2025-02-25 18:03:57.385,-325.0,249.0,193.0,125.0,-76.0,-372.0,201,178,167,175,176
2025-02-25 18:03:57.389,-165.0,181.0,295.0,106.0,-81.0,-386.0,201,178,167,175,175
2025-02-25 18:03:57.397,28.0,-36.0,281.0,90.0,-85.0,-414.0,204,183,172,181,181
2025-02-25 18:03:57.401,251.0,-272.0,295.0,55.0,-100.0,-440.0,207,185,178,185,184
2025-02-25 18:03:57.406,541.0,-678.0,353.0,34.0,-122.0,-461.0,206,184,173,182,182
2025-02-25 18:03:57.414,803.0,-1185.0,409.0,-8.0,-149.0,-471.0,204,180,167,178,179
2025-02-25 18:03:57.418,1133.0,-1763.0,516.0,-58.0,-159.0,-468.0,203,177,165,175,173
2025-02-25 18:03:57.425,1336.0,-2323.0,501.0,-101.0,-181.0,-449.0,203,179,163,175,177
2025-02-25 18:03:57.430,1729.0,-2860.0,430.0,-141.0,-198.0,-424.0,200,176,163,175,174
2025-02-25 18:03:57.434,2097.0,-3315.0,273.0,-192.0,-223.0,-375.0,203,177,161,173,172
2025-02-25 18:03:57.442,2299.0,-3633.0,622.0,-199.0,-179.0,-308.0,205,180,163,177,175
2025-02-25 18:03:57.446,2279.0,-3646.0,234.0,-204.0,-152.0,-246.0,202,176,159,171,173
2025-02-25 18:03:57.454,2345.0,-3593.0,890.0,-188.0,-132.0,-171.0,201,177,159,174,172
2025-02-25 18:03:57.458,2133.0,-3666.0,988.0,-136.0,-40.0,-76.0,203,175,155,174,174
2025-02-25 18:03:57.463,1864.0,-3477.0,48.0,-104.0,-22.0,-36.0,203,173,157,175,174
2025-02-25 18:03:57.471,1762.0,-3304.0,-141.0,-93.0,-11.0,46.0,210,177,160,179,178
2025-02-25 18:03:57.475,1608.0,-3247.0,-591.0,-188.0,-17.0,129.0,207,177,160,180,178
2025-02-25 18:03:57.483,1518.0,-3075.0,-251.0,-124.0,-12.0,183.0,212,182,162,184,185
2025-02-25 18:03:57.487,1529.0,-2989.0,-27.0,-95.0,-33.0,222.0,211,177,165,182,182
2025-02-25 18:03:57.492,1191.0,-2788.0,300.0,-37.0,-7.0,243.0,211,171,162,184,181
2025-02-25 18:03:57.499,991.0,-2463.0,-409.0,-56.0,-14.0,256.0,206,173,158,177,176
2025-02-25 18:03:57.504,770.0,-2141.0,-675.0,-41.0,-46.0,258.0,203,170,153,172,171
2025-02-25 18:03:57.508,720.0,-2208.0,-236.0,-35.0,-57.0,258.0,199,166,152,172,169
2025-02-25 18:03:57.516,657.0,-2126.0,192.0,-17.0,-44.0,261.0,202,169,153,170,169
2025-02-25 18:03:57.520,583.0,-1993.0,53.0,-26.0,-34.0,262.0,206,173,154,177,176
2025-02-25 18:03:57.525,528.0,-1610.0,-56.0,-27.0,-8.0,265.0,206,175,159,176,178
2025-02-25 18:03:57.532,411.0,-1442.0,-92.0,-9.0,24.0,268.0,205,175,161,179,178
2025-02-25 18:03:57.536,385.0,-1395.0,47.0,-10.0,33.0,262.0,205,171,156,176,176
2025-02-25 18:03:57.541,250.0,-1220.0,-192.0,-29.0,17.0,251.0,204,173,153,176,174
2025-02-25 18:03:57.545,94.0,-1100.0,25.0,-20.0,-4.0,243.0,203,173,158,176,175
2025-02-25 18:03:57.553,-39.0,-996.0,134.0,-13.0,-41.0,239.0,205,189,162,180,179
2025-02-25 18:03:57.557,-133.0,-1062.0,279.0,12.0,-29.0,246.0,207,176,161,177,176
2025-02-25 18:03:57.561,-189.0,-757.0,156.0,24.0,-21.0,247.0,208,176,163,179,179
2025-02-25 18:03:57.569,-283.0,-680.0,146.0,33.0,-12.0,253.0,208,175,163,179,177
2025-02-25 18:03:57.573,-315.0,-552.0,193.0,38.0,-9.0,257.0,203,169,162,177,175
2025-02-25 18:03:57.578,-342.0,-530.0,324.0,62.0,3.0,261.0,208,174,166,180,177
2025-02-25 18:03:57.586,-395.0,-389.0,391.0,76.0,22.0,262.0,212,176,167,184,181
2025-02-25 18:03:57.590,-487.0,-342.0,270.0,66.0,22.0,259.0,210,175,171,182,180
2025-02-25 18:03:57.594,-644.0,-166.0,247.0,46.0,23.0,246.0,208,172,165,181,177
2025-02-25 18:03:57.602,-641.0,-1.0,326.0,16.0,29.0,234.0,207,171,164,179,177
2025-02-25 18:03:57.606,-634.0,23.0,380.0,25.0,47.0,229.0,203,166,159,177,173
2025-02-25 18:03:57.610,-692.0,133.0,375.0,-3.0,48.0,209.0,209,171,165,179,175
2025-02-25 18:03:57.614,-712.0,248.0,353.0,-18.0,47.0,183.0,204,169,162,176,176
2025-02-25 18:03:57.622,-732.0,201.0,313.0,-42.0,51.0,157.0,206,167,162,177,173
2025-02-25 18:03:57.626,-734.0,212.0,148.0,-85.0,56.0,132.0,204,165,160,173,169
2025-02-25 18:03:57.631,-802.0,210.0,138.0,-126.0,50.0,119.0,207,173,164,181,174
2025-02-25 18:03:57.638,-779.0,178.0,138.0,-143.0,45.0,97.0,205,165,160,178,173
2025-02-25 18:03:57.643,-850.0,101.0,232.0,-142.0,46.0,84.0,207,160,162,176,173
2025-02-25 18:03:57.647,-889.0,33.0,204.0,-136.0,53.0,75.0,200,153,156,173,167
2025-02-25 18:03:57.651,-944.0,18.0,23.0,-135.0,38.0,67.0,199,149,154,171,165
2025-02-25 18:03:57.659,-1024.0,45.0,397.0,-154.0,45.0,64.0,209,160,163,182,176
2025-02-25 18:03:57.663,-953.0,-12.0,55.0,-108.0,47.0,69.0,209,158,161,180,175
2025-02-25 18:03:57.667,-1071.0,61.0,189.0,-82.0,61.0,72.0,209,152,159,178,173
2025-02-25 18:03:57.676,-1108.0,149.0,-33.0,-75.0,54.0,69.0,202,147,152,170,165
2025-02-25 18:03:57.679,-1042.0,140.0,116.0,-62.0,49.0,68.0,202,143,152,170,165
2025-02-25 18:03:57.683,-1046.0,287.0,21.0,-45.0,46.0,61.0,205,145,153,173,169
2025-02-25 18:03:57.688,-988.0,382.0,-7.0,-45.0,39.0,48.0,204,145,150,170,165
2025-02-25 18:03:57.695,-1037.0,489.0,-67.0,-45.0,31.0,30.0,199,135,143,163,159
2025-02-25 18:03:57.700,-1001.0,445.0,3.0,-46.0,28.0,13.0,203,138,148,166,162
2025-02-25 18:03:57.704,-1040.0,483.0,8.0,-44.0,36.0,3.0,207,136,149,166,162
2025-02-25 18:03:57.708,-1048.0,618.0,-9.0,-31.0,42.0,-16.0,202,133,147,166,159
2025-02-25 18:03:57.716,-1078.0,596.0,46.0,-26.0,51.0,-36.0,201,129,146,162,155
2025-02-25 18:03:57.721,-1094.0,680.0,-5.0,-14.0,51.0,-58.0,201,124,143,159,154
2025-02-25 18:03:57.725,-1131.0,676.0,11.0,2.0,55.0,-66.0,195,119,140,157,149
2025-02-25 18:03:57.732,-1216.0,772.0,37.0,26.0,63.0,-79.0,205,124,142,160,153
2025-02-25 18:03:57.742,-1286.0,845.0,-2.0,37.0,68.0,-96.0,202,122,141,160,150
2025-02-25 18:03:57.745,-1333.0,890.0,-52.0,65.0,70.0,-114.0,199,118,131,155,146
2025-02-25 18:03:57.749,-1378.0,984.0,-127.0,102.0,69.0,-132.0,198,114,135,153,140
2025-02-25 18:03:57.753,-1441.0,1057.0,-2.0,138.0,79.0,-141.0,198,109,131,152,137
2025-02-25 18:03:57.758,-1365.0,1158.0,11.0,176.0,87.0,-157.0,205,113,134,156,142
2025-02-25 18:03:57.765,-1220.0,1223.0,63.0,208.0,94.0,-179.0,202,115,133,155,139
2025-02-25 18:03:57.770,-1186.0,1071.0,183.0,243.0,107.0,-200.0,203,110,131,152,134
2025-02-25 18:03:57.774,-1073.0,1005.0,20.0,254.0,103.0,-229.0,201,109,127,150,130
2025-02-25 18:03:57.782,-875.0,1000.0,115.0,274.0,102.0,-260.0,205,113,129,152,131
2025-02-25 18:03:57.786,-689.0,953.0,-4.0,273.0,97.0,-298.0,199,105,121,147,122
2025-02-25 18:03:57.790,-610.0,832.0,116.0,240.0,103.0,-325.0,196,104,118,141,117
2025-02-25 18:03:57.798,-469.0,794.0,-123.0,259.0,86.0,-339.0,195,100,118,139,115
2025-02-25 18:03:57.802,-383.0,776.0,-155.0,246.0,58.0,-375.0,204,110,123,145,123
2025-02-25 18:03:57.806,-284.0,725.0,-171.0,230.0,25.0,-411.0,202,108,122,142,121
2025-02-25 18:03:57.814,-62.0,663.0,-183.0,215.0,-13.0,-438.0,202,107,122,139,118
2025-02-25 18:03:57.819,274.0,485.0,-304.0,198.0,-72.0,-454.0,202,107,119,136,118
2025-02-25 18:03:57.823,429.0,409.0,-471.0,177.0,-110.0,-465.0,198,103,115,125,112
2025-02-25 18:03:57.830,731.0,-113.0,-355.0,146.0,-186.0,-464.0,196,97,113,125,110
2025-02-25 18:03:57.835,1176.0,-715.0,-334.0,87.0,-258.0,-467.0,197,101,111,126,109
2025-02-25 18:03:57.840,1960.0,-969.0,-286.0,61.0,-308.0,-475.0,197,101,114,129,112
2025-02-25 18:03:57.848,2679.0,-1833.0,-42.0,81.0,-325.0,-460.0,202,107,120,132,116
2025-02-25 18:03:57.852,2836.0,-3008.0,601.0,125.0,-289.0,-416.0,199,107,116,130,117
2025-02-25 18:03:57.860,3195.0,-4295.0,954.0,151.0,-232.0,-330.0,200,106,124,131,120
2025-02-25 18:03:57.864,3287.0,-5374.0,1494.0,241.0,-135.0,-226.0,202,105,124,128,120
2025-02-25 18:03:57.868,4188.0,-5683.0,1926.0,303.0,-83.0,-126.0,202,108,125,127,119
2025-02-25 18:03:57.876,4055.0,-6491.0,2274.0,421.0,24.0,-11.0,202,107,125,128,119
2025-02-25 18:03:57.880,3571.0,-5308.0,2433.0,425.0,179.0,64.0,208,113,127,130,123
2025-02-25 18:03:57.888,2817.0,-4772.0,2102.0,387.0,231.0,147.0,205,109,125,131,120
2025-02-25 18:03:57.892,2910.0,-3228.0,1775.0,223.0,317.0,185.0,200,105,116,124,115
2025-02-25 18:03:57.897,2279.0,-2685.0,1097.0,114.0,319.0,200.0,200,101,116,126,115
2025-02-25 18:03:57.905,1131.0,-1986.0,166.0,39.0,181.0,206.0,199,103,117,126,116
2025-02-25 18:03:57.909,687.0,-1480.0,-277.0,-14.0,122.0,206.0,199,105,117,124,115
2025-02-25 18:03:57.913,836.0,-1294.0,-157.0,-106.0,94.0,191.0,201,105,119,127,115
2025-02-25 18:03:57.921,446.0,-1453.0,-71.0,-154.0,23.0,179.0,207,112,127,133,122
2025-02-25 18:03:57.925,286.0,-1852.0,-36.0,-191.0,-37.0,184.0,208,115,130,135,123
2025-02-25 18:03:57.930,710.0,-1678.0,227.0,-226.0,-33.0,195.0,206,113,130,134,122
2025-02-25 18:03:57.937,497.0,-1889.0,433.0,-224.0,-36.0,208.0,204,111,126,131,120
2025-02-25 18:03:57.942,422.0,-1595.0,641.0,-219.0,-37.0,212.0,202,109,133,132,121
2025-02-25 18:03:57.950,445.0,-1711.0,820.0,-194.0,-26.0,217.0,202,107,123,131,117
2025-02-25 18:03:57.954,606.0,-1520.0,755.0,-153.0,6.0,227.0,199,106,124,128,116
2025-02-25 18:03:57.958,490.0,-1461.0,779.0,-142.0,-5.0,230.0,202,108,123,128,116
2025-02-25 18:03:57.966,374.0,-1240.0,665.0,-131.0,-2.0,242.0,207,113,127,136,124
2025-02-25 18:03:57.970,297.0,-988.0,734.0,-127.0,15.0,245.0,205,110,127,134,123
2025-02-25 18:03:57.974,157.0,-857.0,571.0,-105.0,10.0,241.0,206,112,123,132,121
2025-02-25 18:03:57.979,-46.0,-656.0,517.0,-89.0,2.0,240.0,205,114,126,134,124
2025-02-25 18:03:57.987,-50.0,-537.0,488.0,-82.0,5.0,239.0,200,106,122,128,117
2025-02-25 18:03:57.991,-180.0,-410.0,469.0,-88.0,9.0,239.0,206,114,127,133,121
2025-02-25 18:03:57.996,-236.0,-314.0,440.0,-86.0,11.0,233.0,206,116,127,135,122
2025-02-25 18:03:58.003,-307.0,-178.0,438.0,-86.0,9.0,224.0,203,113,131,139,124
2025-02-25 18:03:58.007,-338.0,-71.0,443.0,-98.0,19.0,216.0,203,111,126,132,119
2025-02-25 18:03:58.012,-399.0,40.0,395.0,-100.0,21.0,207.0,197,104,120,126,115
2025-02-25 18:03:58.020,-443.0,27.0,429.0,-115.0,27.0,200.0,203,109,125,129,118
2025-02-25 18:03:58.024,-480.0,153.0,415.0,-111.0,36.0,184.0,206,113,130,136,126
2025-02-25 18:03:58.028,-518.0,181.0,357.0,-102.0,34.0,167.0,206,113,129,136,122
2025-02-25 18:03:58.032,-546.0,180.0,353.0,-102.0,46.0,151.0,203,111,124,133,121
2025-02-25 18:03:58.040,-541.0,122.0,341.0,-101.0,48.0,137.0,205,110,127,134,120
2025-02-25 18:03:58.044,-661.0,73.0,198.0,-104.0,48.0,127.0,202,109,123,130,118
2025-02-25 18:03:58.049,-753.0,52.0,198.0,-93.0,56.0,122.0,206,110,125,135,123
2025-02-25 18:03:58.056,-780.0,99.0,162.0,-82.0,55.0,114.0,205,113,127,136,123
2025-02-25 18:03:58.061,-799.0,96.0,126.0,-85.0,64.0,107.0,209,116,130,139,126
2025-02-25 18:03:58.065,-837.0,137.0,37.0,-76.0,67.0,99.0,202,106,124,131,120
2025-02-25 18:03:58.069,-883.0,153.0,1.0,-79.0,66.0,95.0,201,107,122,130,117
2025-02-25 18:03:58.077,-923.0,229.0,-52.0,-75.0,65.0,84.0,205,115,127,136,123
2025-02-25 18:03:58.081,-935.0,311.0,-82.0,-78.0,70.0,73.0,205,113,129,134,122
2025-02-25 18:03:58.085,-967.0,428.0,-149.0,-81.0,71.0,61.0,202,110,123,131,118
2025-02-25 18:03:58.093,-1004.0,432.0,-198.0,-73.0,67.0,55.0,199,107,117,130,116
2025-02-25 18:03:58.098,-1025.0,570.0,-219.0,-79.0,65.0,44.0,205,113,125,136,123
2025-02-25 18:03:58.102,-1098.0,554.0,-245.0,-66.0,57.0,28.0,201,116,131,135,123
2025-02-25 18:03:58.110,-1122.0,595.0,-287.0,-72.0,59.0,14.0,204,115,128,136,123
2025-02-25 18:03:58.114,-1158.0,585.0,-328.0,-65.0,47.0,-2.0,199,108,123,132,117
2025-02-25 18:03:58.118,-1167.0,642.0,-340.0,-59.0,45.0,-19.0,201,106,122,130,116
2025-02-25 18:03:58.126,-1138.0,662.0,-360.0,-47.0,44.0,-28.0,202,109,123,133,121
2025-02-25 18:03:58.130,-1106.0,695.0,-355.0,-34.0,45.0,-50.0,205,113,127,134,122
2025-02-25 18:03:58.134,-1130.0,730.0,-340.0,-14.0,37.0,-75.0,203,114,128,136,123
2025-02-25 18:03:58.142,-1159.0,744.0,-388.0,0.0,29.0,-98.0,208,118,129,139,129
2025-02-25 18:03:58.147,-1209.0,703.0,-434.0,12.0,21.0,-118.0,203,114,126,137,125
2025-02-25 18:03:58.151,-1232.0,718.0,-455.0,22.0,20.0,-133.0,200,107,123,133,119
2025-02-25 18:03:58.159,-1232.0,673.0,-445.0,41.0,18.0,-152.0,199,108,123,130,117
2025-02-25 18:03:58.163,-1198.0,659.0,-413.0,59.0,16.0,-162.0,200,105,123,131,121
2025-02-25 18:03:58.167,-1162.0,647.0,-377.0,86.0,12.0,-185.0,205,114,128,138,125
2025-02-25 18:03:58.175,-1068.0,595.0,-348.0,106.0,13.0,-207.0,204,113,126,136,123
2025-02-25 18:03:58.179,-947.0,507.0,-280.0,125.0,7.0,-229.0,205,112,127,138,124
2025-02-25 18:03:58.184,-811.0,495.0,-256.0,131.0,-3.0,-253.0,203,110,128,136,123
2025-02-25 18:03:58.192,-643.0,458.0,-226.0,138.0,-21.0,-280.0,201,111,123,133,119
2025-02-25 18:03:58.196,-541.0,476.0,-206.0,134.0,-28.0,-310.0,205,107,122,133,121
2025-02-25 18:03:58.200,-343.0,416.0,-159.0,122.0,-47.0,-344.0,203,112,126,135,119
2025-02-25 18:03:58.208,-166.0,385.0,-134.0,94.0,-74.0,-361.0,198,108,122,132,118
2025-02-25 18:03:58.212,34.0,267.0,-125.0,60.0,-105.0,-390.0,204,112,126,135,125
2025-02-25 18:03:58.216,242.0,48.0,-83.0,21.0,-131.0,-412.0,203,112,128,137,123
2025-02-25 18:03:58.224,548.0,-432.0,7.0,1.0,-149.0,-423.0,203,113,128,137,123
2025-02-25 18:03:58.229,689.0,-1064.0,56.0,-28.0,-159.0,-419.0,201,108,124,133,120
2025-02-25 18:03:58.233,1025.0,-1756.0,226.0,-28.0,-178.0,-403.0,200,107,121,132,118
2025-02-25 18:03:58.241,1511.0,-2483.0,509.0,-25.0,-180.0,-373.0,200,109,123,132,119
2025-02-25 18:03:58.245,1997.0,-3277.0,822.0,-20.0,-157.0,-350.0,201,109,126,134,121
2025-02-25 18:03:58.250,2427.0,-3636.0,570.0,43.0,-107.0,-297.0,198,105,122,127,117
2025-02-25 18:03:58.257,2810.0,-4500.0,437.0,115.0,-72.0,-225.0,202,108,127,131,121
2025-02-25 18:03:58.262,3035.0,-5055.0,1588.0,135.0,-6.0,-143.0,204,113,130,137,126
2025-02-25 18:03:58.269,3160.0,-5110.0,1418.0,166.0,105.0,-48.0,206,113,126,136,127
2025-02-25 18:03:58.273,2809.0,-4500.0,1168.0,144.0,127.0,30.0,205,111,128,136,126
2025-02-25 18:03:58.278,2691.0,-4021.0,815.0,-2.0,186.0,96.0,207,117,128,137,129
2025-02-25 18:03:58.285,2084.0,-3516.0,775.0,-27.0,179.0,147.0,206,113,128,136,128
2025-02-25 18:03:58.290,1686.0,-3030.0,130.0,-37.0,156.0,176.0,201,107,122,131,120
2025-02-25 18:03:58.294,1435.0,-2320.0,-232.0,-77.0,93.0,188.0,200,107,121,131,121
2025-02-25 18:03:58.302,1258.0,-2093.0,-255.0,-132.0,85.0,200.0,203,113,125,136,125
2025-02-25 18:03:58.306,805.0,-2042.0,-564.0,-195.0,66.0,219.0,198,108,121,132,120
2025-02-25 18:03:58.311,588.0,-2033.0,-423.0,-233.0,18.0,233.0,204,113,133,137,126
2025-02-25 18:03:58.319,673.0,-1929.0,-348.0,-283.0,-40.0,231.0,204,113,129,138,126
2025-02-25 18:03:58.323,593.0,-1895.0,-313.0,-314.0,-71.0,237.0,206,115,131,138,127
2025-02-25 18:03:58.331,463.0,-1941.0,-429.0,-297.0,-69.0,247.0,203,114,131,139,125
2025-02-25 18:03:58.335,302.0,-1828.0,-388.0,-293.0,-76.0,261.0,203,112,132,140,127
2025-02-25 18:03:58.340,347.0,-1743.0,-304.0,-264.0,-91.0,272.0,206,118,133,140,130
2025-02-25 18:03:58.347,254.0,-1646.0,-273.0,-235.0,-108.0,285.0,201,111,127,138,125
2025-02-25 18:03:58.352,148.0,-1500.0,-188.0,-207.0,-127.0,297.0,199,106,122,132,122
2025-02-25 18:03:58.359,94.0,-1335.0,-120.0,-194.0,-131.0,306.0,200,112,126,135,124
2025-02-25 18:03:58.364,83.0,-1103.0,-106.0,-203.0,-128.0,313.0,203,113,127,137,127
2025-02-25 18:03:58.368,-86.0,-1077.0,-116.0,-173.0,-131.0,321.0,199,110,125,135,123
2025-02-25 18:03:58.375,-197.0,-865.0,86.0,-136.0,-118.0,324.0,200,113,127,138,125
2025-02-25 18:03:58.380,-221.0,-741.0,142.0,-95.0,-113.0,328.0,206,120,135,145,132
2025-02-25 18:03:58.384,-426.0,-564.0,155.0,-52.0,-97.0,326.0,205,120,134,145,131
2025-02-25 18:03:58.392,-453.0,-220.0,194.0,-23.0,-74.0,321.0,204,116,132,144,130
2025-02-25 18:03:58.396,-467.0,-11.0,242.0,-9.0,-46.0,306.0,204,115,135,147,133
2025-02-25 18:03:58.400,-400.0,314.0,262.0,-3.0,-24.0,274.0,201,113,131,141,128
2025-02-25 18:03:58.408,-423.0,456.0,321.0,5.0,-12.0,244.0,199,112,128,139,127
2025-02-25 18:03:58.413,-595.0,583.0,189.0,-7.0,15.0,228.0,201,117,131,142,128
2025-02-25 18:03:58.418,-690.0,626.0,141.0,0.0,20.0,198.0,201,117,133,145,132
2025-02-25 18:03:58.422,-755.0,676.0,102.0,4.0,9.0,168.0,201,118,133,143,130
2025-02-25 18:03:58.429,-807.0,508.0,27.0,11.0,7.0,141.0,197,114,131,142,128
2025-02-25 18:03:58.434,-897.0,613.0,10.0,24.0,11.0,128.0,205,120,136,148,133
2025-02-25 18:03:58.438,-903.0,613.0,7.0,37.0,10.0,103.0,205,121,137,150,135
2025-02-25 18:03:58.442,-915.0,454.0,-35.0,51.0,4.0,84.0,199,114,131,143,128
2025-02-25 18:03:58.449,-926.0,396.0,-46.0,52.0,5.0,68.0,201,117,131,143,131
2025-02-25 18:03:58.453,-905.0,341.0,-27.0,58.0,11.0,60.0,203,120,136,147,133
2025-02-25 18:03:58.458,-940.0,317.0,-75.0,57.0,13.0,47.0,201,121,134,147,133
2025-02-25 18:03:58.462,-936.0,218.0,-143.0,63.0,11.0,42.0,197,114,131,143,128
2025-02-25 18:03:58.470,-964.0,192.0,-104.0,52.0,13.0,38.0,195,112,130,142,128
2025-02-25 18:03:58.474,-934.0,198.0,-162.0,36.0,13.0,34.0,200,120,137,146,131
2025-02-25 18:03:58.478,-964.0,219.0,-144.0,35.0,16.0,32.0,199,119,136,147,132
2025-02-25 18:03:58.483,-1007.0,52.0,-176.0,34.0,14.0,36.0,195,116,132,145,131
2025-02-25 18:03:58.490,-930.0,421.0,-246.0,35.0,7.0,32.0,192,115,131,140,126
2025-02-25 18:03:58.494,-958.0,36.0,-134.0,31.0,16.0,30.0,197,122,138,147,131
2025-02-25 18:03:58.500,-950.0,101.0,-131.0,40.0,21.0,28.0,202,126,143,153,138
2025-02-25 18:03:58.506,-899.0,105.0,-184.0,38.0,20.0,29.0,196,121,139,147,132
2025-02-25 18:03:58.511,-916.0,155.0,-134.0,28.0,23.0,28.0,190,117,134,142,127
2025-02-25 18:03:58.515,-890.0,225.0,-144.0,33.0,22.0,26.0,192,119,138,143,128
2025-02-25 18:03:58.519,-879.0,285.0,-147.0,33.0,20.0,29.0,198,127,147,154,137
2025-02-25 18:03:58.527,-899.0,343.0,-52.0,42.0,25.0,27.0,195,121,142,147,131
2025-02-25 18:03:58.532,-930.0,417.0,-54.0,54.0,27.0,27.0,189,116,140,144,127
2025-02-25 18:03:58.536,-1010.0,495.0,-2.0,46.0,26.0,25.0,189,117,139,143,129
2025-02-25 18:03:58.540,-1055.0,641.0,-4.0,55.0,23.0,18.0,197,127,151,153,136
2025-02-25 18:03:58.548,-1046.0,725.0,52.0,63.0,23.0,-2.0,195,125,150,148,134
2025-02-25 18:03:58.552,-1056.0,795.0,112.0,63.0,29.0,-29.0,186,123,146,150,129
2025-02-25 18:03:58.557,-1115.0,832.0,20.0,72.0,34.0,-45.0,190,123,149,147,131
2025-02-25 18:03:58.564,-1090.0,913.0,-21.0,103.0,39.0,-81.0,195,131,156,160,143
2025-02-25 18:03:58.568,-982.0,862.0,-44.0,132.0,39.0,-118.0,196,133,154,153,138
2025-02-25 18:03:58.573,-926.0,811.0,-339.0,139.0,27.0,-147.0,193,129,149,151,136
2025-02-25 18:03:58.581,-807.0,712.0,-105.0,188.0,39.0,-170.0,191,129,145,150,133
2025-02-25 18:03:58.584,-756.0,751.0,-546.0,232.0,31.0,-216.0,191,128,146,152,137
2025-02-25 18:03:58.589,-537.0,632.0,-503.0,284.0,22.0,-231.0,191,131,151,151,137
2025-02-25 18:03:58.597,-503.0,507.0,-427.0,323.0,5.0,-267.0,195,139,156,155,139
2025-02-25 18:03:58.601,-417.0,487.0,-273.0,328.0,15.0,-305.0,198,149,164,160,145
2025-02-25 18:03:58.606,-242.0,438.0,-513.0,299.0,-4.0,-341.0,193,153,164,153,142
2025-02-25 18:03:58.614,-455.0,365.0,-1034.0,294.0,-97.0,-390.0,188,153,163,149,139
2025-02-25 18:03:58.618,-694.0,887.0,-467.0,274.0,-189.0,-452.0,188,161,165,150,139
2025-02-25 18:03:58.622,-514.0,722.0,763.0,301.0,-195.0,-462.0,186,161,163,151,140
2025-02-25 18:03:58.629,-403.0,83.0,1047.0,270.0,-184.0,-490.0,182,163,163,149,136
2025-02-25 18:03:58.634,-4.0,-125.0,604.0,200.0,-185.0,-519.0,180,164,165,149,138
2025-02-25 18:03:58.638,334.0,-261.0,547.0,165.0,-205.0,-522.0,179,165,168,153,140
2025-02-25 18:03:58.646,654.0,-680.0,412.0,158.0,-209.0,-519.0,181,172,172,158,144
2025-02-25 18:03:58.650,1205.0,-1131.0,254.0,170.0,-225.0,-523.0,179,174,173,157,143
2025-02-25 18:03:58.658,1785.0,-1666.0,241.0,170.0,-233.0,-514.0,179,176,173,158,143
2025-02-25 18:03:58.662,2181.0,-2308.0,598.0,198.0,-226.0,-479.0,175,177,174,154,143
2025-02-25 18:03:58.667,2449.0,-2847.0,1186.0,231.0,-184.0,-420.0,178,179,175,162,144
2025-02-25 18:03:58.675,2561.0,-3145.0,1319.0,239.0,-127.0,-347.0,176,180,173,161,144
2025-02-25 18:03:58.679,2686.0,-3378.0,1519.0,258.0,-63.0,-256.0,175,182,173,162,142
2025-02-25 18:03:58.687,2648.0,-3669.0,1730.0,245.0,13.0,-155.0,175,182,170,161,141
2025-02-25 18:03:58.691,2566.0,-3814.0,1766.0,236.0,85.0,-60.0,174,183,173,162,142
2025-02-25 18:03:58.696,2408.0,-3605.0,1740.0,184.0,116.0,32.0,170,178,168,157,137
2025-02-25 18:03:58.703,2233.0,-3306.0,1617.0,140.0,161.0,106.0,169,186,170,159,136
2025-02-25 18:03:58.707,1837.0,-2982.0,1358.0,79.0,174.0,164.0,170,180,168,158,135
2025-02-25 18:03:58.712,1445.0,-2805.0,1050.0,-3.0,163.0,186.0,166,178,167,152,130
2025-02-25 18:03:58.720,1106.0,-2400.0,690.0,-80.0,120.0,210.0,172,188,175,162,137
2025-02-25 18:03:58.724,816.0,-2093.0,724.0,-153.0,81.0,219.0,172,186,174,170,137
2025-02-25 18:03:58.728,545.0,-1897.0,565.0,-206.0,40.0,218.0,169,179,172,162,137
2025-02-25 18:03:58.736,430.0,-1854.0,478.0,-220.0,7.0,209.0,168,183,173,163,135
2025-02-25 18:03:58.740,397.0,-1775.0,337.0,-246.0,-23.0,196.0,168,184,172,164,135
2025-02-25 18:03:58.748,444.0,-1790.0,313.0,-239.0,-35.0,180.0,162,182,169,161,134
2025-02-25 18:03:58.752,419.0,-1792.0,304.0,-230.0,-57.0,175.0,163,183,168,158,128
2025-02-25 18:03:58.758,440.0,-1803.0,293.0,-206.0,-66.0,173.0,160,178,165,160,129
2025-02-25 18:03:58.764,460.0,-1814.0,387.0,-174.0,-66.0,175.0,168,185,172,165,138
2025-02-25 18:03:58.769,502.0,-1797.0,388.0,-142.0,-61.0,181.0,167,184,173,168,136
2025-02-25 18:03:58.773,498.0,-1706.0,419.0,-107.0,-54.0,187.0,166,183,172,167,135
2025-02-25 18:03:58.781,439.0,-1568.0,478.0,-77.0,-43.0,194.0,171,188,176,170,140
2025-02-25 18:03:58.786,369.0,-1448.0,502.0,-62.0,-34.0,202.0,166,184,171,165,136
2025-02-25 18:03:58.791,285.0,-1295.0,508.0,-39.0,-28.0,208.0,163,180,167,161,132
2025-02-25 18:03:58.797,241.0,-1128.0,470.0,-25.0,-16.0,214.0,162,177,168,161,130
2025-02-25 18:03:58.802,151.0,-1027.0,403.0,-18.0,-11.0,217.0,162,179,169,163,132
2025-02-25 18:03:58.806,37.0,-904.0,417.0,-15.0,-5.0,223.0,166,185,173,168,136
2025-02-25 18:03:58.814,-60.0,-780.0,395.0,-19.0,-3.0,228.0,167,183,171,168,135
2025-02-25 18:03:58.819,-158.0,-654.0,402.0,-24.0,0.0,232.0,169,182,171,166,134
2025-02-25 18:03:58.823,-203.0,-528.0,386.0,-38.0,2.0,235.0,163,181,161,165,132
2025-02-25 18:03:58.827,-276.0,-426.0,350.0,-40.0,3.0,235.0,161,179,169,164,130
2025-02-25 18:03:58.835,-385.0,-383.0,317.0,-46.0,2.0,236.0,168,182,174,169,134
2025-02-25 18:03:58.839,-461.0,-292.0,316.0,-58.0,4.0,236.0,167,184,171,168,136
2025-02-25 18:03:58.844,-504.0,-207.0,306.0,-62.0,6.0,232.0,165,182,171,167,135
2025-02-25 18:03:58.851,-540.0,-125.0,284.0,-65.0,6.0,226.0,162,178,168,164,131
2025-02-25 18:03:58.856,-589.0,-31.0,330.0,-77.0,11.0,221.0,161,178,169,164,129
2025-02-25 18:03:58.859,-607.0,-2.0,332.0,-82.0,19.0,209.0,172,191,177,173,141
2025-02-25 18:03:58.867,-678.0,16.0,313.0,-82.0,27.0,194.0,167,182,173,168,138
2025-02-25 18:03:58.872,-719.0,30.0,295.0,-86.0,35.0,180.0,166,181,173,166,136
2025-02-25 18:03:58.876,-730.0,40.0,234.0,-84.0,39.0,167.0,161,177,170,164,133
2025-02-25 18:03:58.880,-799.0,31.0,208.0,-81.0,47.0,161.0,163,179,172,169,134
2025-02-25 18:03:58.888,-839.0,53.0,172.0,-81.0,50.0,148.0,167,183,176,169,138
2025-02-25 18:03:58.892,-906.0,37.0,41.0,-80.0,43.0,137.0,164,180,174,167,135
2025-02-25 18:03:58.896,-918.0,21.0,170.0,-74.0,44.0,124.0,162,181,171,165,133
2025-02-25 18:03:58.900,-877.0,122.0,83.0,-58.0,48.0,118.0,161,179,170,166,134
2025-02-25 18:03:58.908,-927.0,87.0,66.0,-46.0,48.0,108.0,167,184,177,170,138
2025-02-25 18:03:58.912,-955.0,124.0,20.0,-41.0,41.0,98.0,169,187,180,173,138
2025-02-25 18:03:58.917,-987.0,122.0,-5.0,-33.0,36.0,90.0,166,182,175,167,135
2025-02-25 18:03:58.922,-1012.0,197.0,77.0,-27.0,32.0,85.0,166,188,177,171,138
2025-02-25 18:03:58.929,-1019.0,191.0,80.0,-25.0,31.0,78.0,170,186,179,175,142
2025-02-25 18:03:58.935,-1009.0,177.0,26.0,-20.0,26.0,72.0,168,184,176,170,140
2025-02-25 18:03:58.940,-1009.0,246.0,66.0,-21.0,26.0,65.0,162,179,175,167,135
2025-02-25 18:03:58.945,-1032.0,293.0,30.0,-18.0,27.0,59.0,164,181,175,167,136
2025-02-25 18:03:58.949,-1024.0,328.0,40.0,-23.0,27.0,56.0,169,186,181,174,142
2025-02-25 18:03:58.953,-1035.0,363.0,27.0,-19.0,29.0,48.0,170,185,179,176,141
2025-02-25 18:03:58.958,-1046.0,399.0,43.0,-18.0,32.0,40.0,172,185,178,171,140
2025-02-25 18:03:58.965,-1035.0,474.0,23.0,-15.0,33.0,29.0,165,180,177,170,137
2025-02-25 18:03:58.969,-1065.0,480.0,-9.0,-11.0,31.0,22.0,161,179,173,168,136
2025-02-25 18:03:58.974,-1037.0,532.0,-7.0,-1.0,28.0,6.0,168,186,179,174,144
2025-02-25 18:03:58.979,-1035.0,553.0,6.0,5.0,30.0,-16.0,172,189,184,173,145
2025-02-25 18:03:58.986,-1028.0,550.0,-35.0,24.0,28.0,-39.0,167,180,175,170,138
2025-02-25 18:03:58.991,-1081.0,563.0,-16.0,42.0,29.0,-52.0,164,180,173,165,136
2025-02-25 18:03:58.994,-1076.0,559.0,-1.0,60.0,33.0,-79.0,169,186,180,174,142
2025-02-25 18:03:59.002,-1070.0,603.0,-22.0,83.0,36.0,-109.0,173,187,184,176,147
2025-02-25 18:03:59.006,-1051.0,569.0,-21.0,90.0,39.0,-136.0,168,183,179,171,142
2025-02-25 18:03:59.012,-1032.0,578.0,-9.0,108.0,39.0,-163.0,165,179,175,168,137
2025-02-25 18:03:59.019,-1021.0,575.0,-1.0,122.0,40.0,-188.0,164,179,174,167,136
2025-02-25 18:03:59.023,-952.0,542.0,-42.0,135.0,40.0,-200.0,169,186,181,172,140
2025-02-25 18:03:59.028,-875.0,515.0,-19.0,147.0,36.0,-225.0,172,182,181,174,143
2025-02-25 18:03:59.035,-822.0,480.0,-6.0,154.0,31.0,-247.0,164,185,180,170,141
2025-02-25 18:03:59.040,-732.0,432.0,0.0,156.0,21.0,-269.0,167,183,179,173,140
2025-02-25 18:03:59.044,-676.0,362.0,12.0,156.0,17.0,-292.0,163,177,179,169,138
2025-02-25 18:03:59.048,-559.0,330.0,26.0,148.0,5.0,-305.0,162,176,175,168,135
2025-02-25 18:03:59.056,-450.0,260.0,38.0,134.0,-6.0,-329.0,167,182,180,173,141
2025-02-25 18:03:59.059,-302.0,198.0,98.0,127.0,-18.0,-358.0,166,181,178,173,141
2025-02-25 18:03:59.064,-149.0,81.0,130.0,112.0,-31.0,-387.0,165,181,179,172,140
2025-02-25 18:03:59.072,-33.0,-85.0,169.0,91.0,-36.0,-417.0,163,177,175,168,135
