timestamp,ax,ay,az,gx,gy,gz,flex1,flex2,flex3,flex4,flex5,emg1,emg2,emg3
2025-02-25 18:34:23.905,-336.0,-928.0,194.0,-1.0,1.0,0.0,159,134,125,135,132
2025-02-25 18:34:23.908,-338.0,-925.0,198.0,0.0,1.0,0.0,162,138,128,139,134
2025-02-25 18:34:23.910,-341.0,-932.0,200.0,0.0,1.0,0.0,160,133,126,136,134
2025-02-25 18:34:23.912,-342.0,-925.0,192.0,1.0,0.0,0.0,162,135,128,138,138
2025-02-25 18:34:23.914,-340.0,-925.0,192.0,1.0,0.0,0.0,162,135,128,138,137
2025-02-25 18:34:23.916,-340.0,-927.0,193.0,1.0,0.0,1.0,158,133,128,135,132
2025-02-25 18:34:23.918,-336.0,-924.0,200.0,1.0,0.0,0.0,161,137,128,139,136
2025-02-25 18:34:23.921,-339.0,-925.0,198.0,1.0,0.0,0.0,160,135,127,137,134
2025-02-25 18:34:23.923,-336.0,-918.0,198.0,0.0,0.0,0.0,159,134,126,136,134
2025-02-25 18:34:23.926,-331.0,-921.0,201.0,1.0,0.0,-1.0,161,135,128,138,135
2025-02-25 18:34:23.928,-335.0,-921.0,200.0,1.0,1.0,-1.0,160,134,127,137,135
2025-02-25 18:34:23.931,-332.0,-920.0,200.0,1.0,1.0,-2.0,159,132,125,135,134
2025-02-25 18:34:23.933,-331.0,-917.0,198.0,1.0,1.0,-2.0,163,137,129,138,137
2025-02-25 18:34:23.935,-333.0,-919.0,195.0,1.0,0.0,-2.0,159,134,126,137,135
2025-02-25 18:34:23.938,-331.0,-917.0,201.0,1.0,0.0,-2.0,158,132,126,135,133
2025-02-25 18:34:23.940,-332.0,-922.0,198.0,1.0,0.0,-3.0,161,136,127,138,136
2025-02-25 18:34:23.942,-334.0,-927.0,199.0,1.0,0.0,-3.0,161,135,127,138,135
2025-02-25 18:34:23.945,-331.0,-930.0,204.0,1.0,0.0,-3.0,158,133,124,135,133
2025-02-25 18:34:23.947,-332.0,-931.0,197.0,0.0,0.0,-3.0,161,135,127,138,135
2025-02-25 18:34:23.949,-332.0,-937.0,200.0,0.0,0.0,-3.0,157,134,125,136,134
2025-02-25 18:34:23.951,-333.0,-942.0,202.0,0.0,0.0,-3.0,164,138,129,140,137
2025-02-25 18:34:23.953,-337.0,-943.0,208.0,0.0,0.0,-2.0,161,135,127,138,136
2025-02-25 18:34:23.956,-332.0,-946.0,207.0,-1.0,0.0,-3.0,159,132,125,136,133
2025-02-25 18:34:23.958,-333.0,-955.0,201.0,-1.0,0.0,-2.0,161,135,127,138,135
2025-02-25 18:34:23.961,-330.0,-953.0,203.0,-1.0,0.0,-2.0,164,138,130,141,137
2025-02-25 18:34:23.963,-331.0,-948.0,204.0,-1.0,0.0,-2.0,159,134,125,135,133
2025-02-25 18:34:23.965,-329.0,-955.0,204.0,0.0,0.0,-2.0,160,135,127,137,135
2025-02-25 18:34:23.967,-328.0,-947.0,208.0,-1.0,0.0,-2.0,160,134,127,136,135
2025-02-25 18:34:23.970,-325.0,-948.0,203.0,-1.0,0.0,-1.0,158,133,125,138,134
2025-02-25 18:34:23.973,-321.0,-942.0,199.0,0.0,0.0,-1.0,162,137,128,139,135
2025-02-25 18:34:23.975,-319.0,-942.0,200.0,-1.0,0.0,-1.0,161,133,126,137,134
2025-02-25 18:34:23.977,-318.0,-941.0,200.0,0.0,0.0,-2.0,158,134,124,135,133
2025-02-25 18:34:23.979,-315.0,-941.0,195.0,0.0,0.0,-2.0,160,136,127,137,135
2025-02-25 18:34:23.981,-313.0,-938.0,199.0,0.0,0.0,-2.0,159,134,125,136,134
2025-02-25 18:34:23.984,-312.0,-944.0,196.0,0.0,0.0,-2.0,157,132,125,134,132
2025-02-25 18:34:23.986,-316.0,-940.0,198.0,0.0,0.0,-2.0,162,135,127,136,135
2025-02-25 18:34:23.989,-318.0,-937.0,197.0,0.0,0.0,-1.0,160,134,126,138,135
2025-02-25 18:34:23.991,-320.0,-940.0,194.0,0.0,-1.0,-1.0,158,133,126,135,133
2025-02-25 18:34:23.994,-323.0,-942.0,201.0,-1.0,-1.0,-1.0,162,134,127,138,136
2025-02-25 18:34:23.996,-319.0,-942.0,196.0,-1.0,-1.0,-1.0,162,136,128,136,134
2025-02-25 18:34:23.999,-323.0,-951.0,199.0,-1.0,-1.0,-1.0,162,137,128,138,138
2025-02-25 18:34:24.001,-321.0,-954.0,202.0,-1.0,-1.0,-1.0,160,133,125,136,134
2025-02-25 18:34:24.004,-324.0,-954.0,202.0,0.0,0.0,-1.0,159,133,123,133,130
2025-02-25 18:34:24.006,-329.0,-951.0,207.0,0.0,0.0,0.0,161,135,128,136,135
2025-02-25 18:34:24.008,-329.0,-951.0,204.0,-1.0,-1.0,0.0,162,134,128,139,137
2025-02-25 18:34:24.011,-328.0,-955.0,204.0,-1.0,0.0,0.0,157,132,126,137,133
2025-02-25 18:34:24.013,-325.0,-952.0,207.0,-1.0,0.0,0.0,162,136,128,139,135
2025-02-25 18:34:24.015,-321.0,-952.0,208.0,-1.0,0.0,0.0,162,134,127,137,136
2025-02-25 18:34:24.018,-327.0,-948.0,206.0,0.0,-1.0,0.0,162,135,126,137,135
2025-02-25 18:34:24.020,-322.0,-947.0,205.0,0.0,0.0,0.0,160,135,127,137,133
2025-02-25 18:34:24.022,-321.0,-948.0,208.0,0.0,0.0,0.0,161,135,126,136,135
2025-02-25 18:34:24.025,-319.0,-940.0,206.0,0.0,0.0,0.0,160,134,126,135,133
2025-02-25 18:34:24.027,-321.0,-945.0,205.0,0.0,0.0,0.0,160,136,127,138,135
2025-02-25 18:34:24.032,-325.0,-939.0,203.0,-1.0,0.0,0.0,159,136,128,137,135
2025-02-25 18:34:24.036,-329.0,-942.0,201.0,0.0,0.0,0.0,160,132,125,136,132
2025-02-25 18:34:24.040,-330.0,-939.0,200.0,0.0,0.0,0.0,159,133,124,136,134
2025-02-25 18:34:24.048,-331.0,-945.0,205.0,0.0,0.0,1.0,164,138,130,140,138
2025-02-25 18:34:24.052,-334.0,-939.0,200.0,0.0,0.0,1.0,162,136,127,137,135
2025-02-25 18:34:24.056,-333.0,-940.0,198.0,-1.0,0.0,1.0,159,133,123,135,132
2025-02-25 18:34:24.060,-336.0,-936.0,199.0,-1.0,-1.0,1.0,160,136,128,138,135
2025-02-25 18:34:24.068,-331.0,-939.0,199.0,-2.0,-1.0,1.0,163,138,130,140,139
2025-02-25 18:34:24.072,-329.0,-932.0,194.0,-2.0,-1.0,1.0,157,134,126,136,133
2025-02-25 18:34:24.076,-329.0,-936.0,190.0,0.0,-1.0,2.0,159,132,123,134,132
2025-02-25 18:34:24.080,-334.0,-939.0,195.0,-1.0,-2.0,1.0,161,136,128,137,136
2025-02-25 18:34:24.088,-331.0,-936.0,205.0,-1.0,-2.0,1.0,162,136,128,138,136
2025-02-25 18:34:24.092,-333.0,-933.0,207.0,-1.0,-1.0,1.0,159,132,125,135,133
2025-02-25 18:34:24.097,-337.0,-934.0,206.0,-1.0,-2.0,1.0,158,132,124,135,132
2025-02-25 18:34:24.101,-330.0,-925.0,204.0,-1.0,-1.0,1.0,161,135,127,138,135
2025-02-25 18:34:24.108,-333.0,-929.0,195.0,0.0,-1.0,0.0,162,136,127,146,135
2025-02-25 18:34:24.113,-329.0,-927.0,211.0,0.0,-1.0,1.0,158,133,124,135,133
2025-02-25 18:34:24.117,-329.0,-924.0,208.0,0.0,-1.0,1.0,161,135,127,138,135
2025-02-25 18:34:24.121,-332.0,-919.0,210.0,0.0,-2.0,1.0,161,136,127,137,136
2025-02-25 18:34:24.126,-334.0,-920.0,211.0,-1.0,-2.0,0.0,158,133,125,135,134
2025-02-25 18:34:24.133,-331.0,-919.0,203.0,-1.0,-2.0,0.0,158,132,124,134,132
2025-02-25 18:34:24.138,-333.0,-916.0,205.0,-1.0,-1.0,0.0,160,134,127,138,135
2025-02-25 18:34:24.142,-337.0,-919.0,204.0,-1.0,-2.0,-1.0,160,134,126,137,134
2025-02-25 18:34:24.149,-334.0,-926.0,205.0,-1.0,-2.0,-1.0,161,134,126,136,133
2025-02-25 18:34:24.154,-335.0,-928.0,207.0,-1.0,-2.0,-1.0,159,134,125,135,132
2025-02-25 18:34:24.158,-332.0,-928.0,206.0,-2.0,-2.0,-1.0,160,134,126,137,136
2025-02-25 18:34:24.162,-334.0,-932.0,210.0,-2.0,-2.0,-1.0,161,135,128,138,137
2025-02-25 18:34:24.170,-334.0,-938.0,209.0,-1.0,-2.0,-1.0,159,132,126,135,135
2025-02-25 18:34:24.175,-335.0,-941.0,210.0,-2.0,-1.0,-1.0,158,131,124,135,131
2025-02-25 18:34:24.179,-332.0,-939.0,208.0,-1.0,-1.0,-1.0,161,135,128,137,135
2025-02-25 18:34:24.184,-333.0,-941.0,210.0,-1.0,-1.0,0.0,159,135,127,136,135
2025-02-25 18:34:24.191,-333.0,-937.0,209.0,-2.0,-1.0,-1.0,161,135,127,138,135
2025-02-25 18:34:24.195,-331.0,-937.0,212.0,-1.0,0.0,0.0,158,132,124,134,132
2025-02-25 18:34:24.200,-328.0,-940.0,209.0,-1.0,-1.0,0.0,161,135,125,137,135
2025-02-25 18:34:24.204,-325.0,-930.0,210.0,-1.0,-1.0,-1.0,161,135,128,137,136
2025-02-25 18:34:24.212,-332.0,-930.0,201.0,0.0,-1.0,-1.0,159,134,126,136,134
2025-02-25 18:34:24.216,-334.0,-926.0,202.0,-1.0,-1.0,-1.0,158,132,124,135,132
2025-02-25 18:34:24.220,-334.0,-919.0,206.0,-1.0,-1.0,-1.0,160,137,127,136,134
2025-02-25 18:34:24.228,-336.0,-921.0,194.0,0.0,-1.0,-1.0,163,137,129,141,138
2025-02-25 18:34:24.232,-330.0,-931.0,200.0,-1.0,-2.0,-2.0,160,135,127,137,135
2025-02-25 18:34:24.237,-334.0,-932.0,207.0,-1.0,-2.0,-2.0,159,133,125,134,132
2025-02-25 18:34:24.241,-330.0,-927.0,207.0,-1.0,-2.0,-2.0,161,133,126,136,135
2025-02-25 18:34:24.248,-331.0,-935.0,203.0,-1.0,-2.0,-2.0,163,137,128,137,136
2025-02-25 18:34:24.253,-332.0,-941.0,209.0,0.0,-1.0,-2.0,161,134,125,135,133
2025-02-25 18:34:24.257,-332.0,-950.0,213.0,-1.0,-1.0,-2.0,158,132,124,135,133
2025-02-25 18:34:24.261,-331.0,-948.0,213.0,0.0,-1.0,-2.0,159,131,123,135,132
2025-02-25 18:34:24.269,-332.0,-955.0,208.0,-1.0,-1.0,-2.0,162,136,128,140,137
2025-02-25 18:34:24.273,-330.0,-952.0,208.0,-1.0,-1.0,-1.0,159,136,127,136,134
2025-02-25 18:34:24.277,-328.0,-947.0,211.0,-1.0,-1.0,-1.0,158,134,125,135,133
2025-02-25 18:34:24.285,-326.0,-943.0,209.0,0.0,-1.0,0.0,158,132,125,136,132
2025-02-25 18:34:24.289,-327.0,-944.0,210.0,-1.0,0.0,0.0,161,136,128,138,136
2025-02-25 18:34:24.294,-327.0,-936.0,204.0,-1.0,-1.0,0.0,160,134,125,133,135
2025-02-25 18:34:24.298,-325.0,-932.0,210.0,-1.0,-1.0,0.0,157,132,125,134,132
2025-02-25 18:34:24.305,-330.0,-937.0,204.0,-2.0,-1.0,0.0,161,135,126,136,135
2025-02-25 18:34:24.310,-323.0,-926.0,201.0,-2.0,-2.0,0.0,162,136,128,138,136
2025-02-25 18:34:24.314,-327.0,-929.0,206.0,-2.0,-1.0,0.0,160,134,125,136,135
2025-02-25 18:34:24.319,-327.0,-935.0,208.0,-2.0,-1.0,0.0,158,132,125,135,132
2025-02-25 18:34:24.326,-326.0,-939.0,210.0,-2.0,-1.0,0.0,160,135,128,139,136
2025-02-25 18:34:24.330,-332.0,-943.0,210.0,-2.0,-1.0,0.0,161,135,127,138,136
2025-02-25 18:34:24.335,-334.0,-952.0,211.0,-2.0,-1.0,0.0,160,133,124,135,133
2025-02-25 18:34:24.339,-331.0,-947.0,215.0,-2.0,-1.0,0.0,159,132,125,135,133
2025-02-25 18:34:24.346,-328.0,-951.0,212.0,-2.0,-2.0,0.0,157,135,127,141,135
2025-02-25 18:34:24.351,-330.0,-945.0,209.0,-2.0,-1.0,0.0,161,136,127,139,135
2025-02-25 18:34:24.355,-331.0,-947.0,209.0,-1.0,-1.0,0.0,158,132,127,134,132
2025-02-25 18:34:24.359,-329.0,-940.0,208.0,-1.0,-1.0,0.0,157,133,125,134,133
2025-02-25 18:34:24.367,-332.0,-940.0,207.0,-1.0,-1.0,0.0,163,135,128,138,135
2025-02-25 18:34:24.371,-333.0,-936.0,210.0,-1.0,-1.0,0.0,162,134,127,138,135
2025-02-25 18:34:24.375,-334.0,-938.0,207.0,-2.0,-1.0,1.0,159,133,125,135,133
2025-02-25 18:34:24.379,-331.0,-935.0,204.0,-2.0,-1.0,0.0,158,132,124,134,132
2025-02-25 18:34:24.387,-325.0,-939.0,207.0,-2.0,-1.0,0.0,162,138,130,142,137
2025-02-25 18:34:24.391,-328.0,-938.0,207.0,-2.0,-1.0,0.0,159,134,126,137,134
2025-02-25 18:34:24.396,-325.0,-934.0,211.0,-2.0,-1.0,0.0,158,132,125,134,132
2025-02-25 18:34:24.400,-324.0,-940.0,211.0,-1.0,0.0,0.0,159,132,123,135,132
2025-02-25 18:34:24.407,-327.0,-939.0,213.0,-1.0,0.0,0.0,162,138,130,139,137
2025-02-25 18:34:24.412,-328.0,-937.0,212.0,-1.0,0.0,0.0,160,134,126,137,134
2025-02-25 18:34:24.416,-332.0,-938.0,197.0,0.0,0.0,0.0,157,132,124,135,133
2025-02-25 18:34:24.420,-332.0,-941.0,211.0,-1.0,0.0,0.0,161,135,127,137,135
2025-02-25 18:34:24.428,-337.0,-937.0,202.0,-2.0,0.0,0.0,163,136,127,138,136
2025-02-25 18:34:24.432,-338.0,-939.0,204.0,0.0,0.0,0.0,158,131,124,134,133
2025-02-25 18:34:24.436,-338.0,-932.0,211.0,-1.0,0.0,0.0,161,134,127,137,136
2025-02-25 18:34:24.441,-334.0,-929.0,205.0,-1.0,0.0,0.0,161,135,127,138,136
2025-02-25 18:34:24.445,-340.0,-935.0,194.0,0.0,-1.0,0.0,160,135,126,137,136
2025-02-25 18:34:24.453,-336.0,-935.0,208.0,-2.0,0.0,0.0,154,132,123,134,132
2025-02-25 18:34:24.457,-333.0,-932.0,208.0,-2.0,0.0,0.0,160,135,127,139,135
2025-02-25 18:34:24.461,-336.0,-931.0,202.0,-1.0,0.0,0.0,160,134,127,138,135
2025-02-25 18:34:24.465,-334.0,-934.0,207.0,-1.0,0.0,0.0,160,134,126,137,134
2025-02-25 18:34:24.473,-333.0,-937.0,201.0,-2.0,0.0,0.0,160,134,127,137,135
2025-02-25 18:34:24.478,-338.0,-936.0,204.0,-2.0,-1.0,0.0,160,135,127,138,135
2025-02-25 18:34:24.482,-339.0,-930.0,209.0,-2.0,-1.0,0.0,159,133,126,136,132
2025-02-25 18:34:24.486,-334.0,-933.0,198.0,-2.0,-1.0,0.0,159,134,126,136,133
2025-02-25 18:34:24.494,-338.0,-930.0,195.0,-2.0,-1.0,0.0,160,135,127,138,136
2025-02-25 18:34:24.498,-337.0,-928.0,204.0,-2.0,-1.0,0.0,160,134,127,137,135
2025-02-25 18:34:24.502,-336.0,-927.0,203.0,-3.0,-1.0,0.0,158,133,125,135,133
2025-02-25 18:34:24.507,-337.0,-929.0,209.0,-2.0,-1.0,0.0,158,133,125,135,132
2025-02-25 18:34:24.514,-335.0,-936.0,206.0,-2.0,-1.0,0.0,160,135,127,137,133
2025-02-25 18:34:24.519,-330.0,-931.0,201.0,-2.0,-1.0,-1.0,159,133,125,137,134
2025-02-25 18:34:24.523,-335.0,-935.0,206.0,-2.0,-1.0,-1.0,157,133,124,136,133
2025-02-25 18:34:24.528,-331.0,-927.0,208.0,-2.0,-1.0,-1.0,158,133,124,135,133
2025-02-25 18:34:24.535,-331.0,-923.0,209.0,-1.0,-1.0,-1.0,160,135,127,136,134
2025-02-25 18:34:24.540,-331.0,-930.0,208.0,-2.0,-1.0,-1.0,161,135,127,139,135
2025-02-25 18:34:24.544,-332.0,-926.0,205.0,-2.0,-1.0,-1.0,158,126,124,135,133
2025-02-25 18:34:24.552,-339.0,-929.0,203.0,-2.0,-1.0,-1.0,160,133,125,134,133
2025-02-25 18:34:24.555,-333.0,-926.0,199.0,-2.0,-1.0,-1.0,162,135,129,136,135
2025-02-25 18:34:24.559,-336.0,-928.0,202.0,-2.0,-1.0,-1.0,160,133,127,138,134
2025-02-25 18:34:24.564,-338.0,-927.0,201.0,-2.0,-1.0,-1.0,160,134,125,138,135
2025-02-25 18:34:24.571,-338.0,-930.0,198.0,-2.0,-2.0,-2.0,158,134,125,135,133
2025-02-25 18:34:24.576,-340.0,-934.0,203.0,-2.0,-2.0,-2.0,159,134,127,136,133
2025-02-25 18:34:24.580,-333.0,-928.0,200.0,-2.0,-2.0,-2.0,160,135,126,136,134
2025-02-25 18:34:24.588,-334.0,-939.0,203.0,-2.0,-2.0,-2.0,166,136,123,137,132
2025-02-25 18:34:24.593,-331.0,-942.0,208.0,-2.0,-1.0,-2.0,158,133,126,136,133
2025-02-25 18:34:24.597,-334.0,-947.0,210.0,-2.0,-2.0,-1.0,158,133,122,133,132
2025-02-25 18:34:24.601,-329.0,-949.0,216.0,-3.0,-1.0,-1.0,160,134,127,138,135
2025-02-25 18:34:24.609,-326.0,-946.0,210.0,-3.0,-1.0,-1.0,161,135,129,138,136
2025-02-25 18:34:24.613,-325.0,-949.0,209.0,-3.0,-1.0,0.0,158,132,125,135,133
2025-02-25 18:34:24.618,-327.0,-951.0,208.0,-3.0,-1.0,0.0,159,133,124,135,133
2025-02-25 18:34:24.622,-326.0,-950.0,209.0,-3.0,0.0,0.0,161,135,127,136,135
2025-02-25 18:34:24.629,-323.0,-941.0,210.0,-3.0,0.0,0.0,161,135,128,137,136
2025-02-25 18:34:24.633,-324.0,-937.0,211.0,-3.0,0.0,0.0,158,131,125,135,133
2025-02-25 18:34:24.638,-324.0,-938.0,210.0,-3.0,0.0,0.0,161,135,127,136,135
2025-02-25 18:34:24.642,-328.0,-940.0,209.0,-3.0,0.0,0.0,160,135,127,138,135
2025-02-25 18:34:24.650,-332.0,-940.0,205.0,-3.0,0.0,0.0,159,133,126,136,133
2025-02-25 18:34:24.653,-331.0,-937.0,204.0,-3.0,0.0,0.0,158,132,124,134,133
2025-02-25 18:34:24.658,-334.0,-939.0,203.0,-3.0,0.0,0.0,161,135,126,138,135
2025-02-25 18:34:24.662,-340.0,-935.0,195.0,-3.0,0.0,0.0,160,134,126,136,133
2025-02-25 18:34:24.666,-338.0,-938.0,201.0,-2.0,0.0,0.0,160,133,124,135,133
2025-02-25 18:34:24.675,-337.0,-939.0,191.0,-2.0,0.0,0.0,161,134,127,137,135
2025-02-25 18:34:24.679,-340.0,-938.0,199.0,-2.0,-1.0,0.0,162,134,127,137,134
2025-02-25 18:34:24.683,-338.0,-938.0,191.0,-2.0,-1.0,0.0,159,132,124,135,132
2025-02-25 18:34:24.687,-337.0,-939.0,193.0,-2.0,0.0,0.0,158,133,125,135,134
2025-02-25 18:34:24.695,-339.0,-940.0,188.0,-3.0,-1.0,0.0,160,135,127,136,135
2025-02-25 18:34:24.699,-339.0,-939.0,190.0,-3.0,-1.0,1.0,161,135,126,137,134
2025-02-25 18:34:24.704,-336.0,-942.0,195.0,-3.0,-1.0,1.0,158,133,125,136,132
2025-02-25 18:34:24.708,-335.0,-945.0,190.0,-3.0,-2.0,1.0,158,133,124,135,131
2025-02-25 18:34:24.715,-337.0,-946.0,191.0,-3.0,-1.0,1.0,160,134,132,137,134
2025-02-25 18:34:24.720,-334.0,-942.0,190.0,-3.0,-2.0,1.0,159,133,125,137,134
2025-02-25 18:34:24.724,-335.0,-937.0,187.0,-3.0,-2.0,1.0,161,132,126,139,132
2025-02-25 18:34:24.731,-334.0,-938.0,187.0,-3.0,-2.0,1.0,158,132,125,135,132
2025-02-25 18:34:24.736,-333.0,-937.0,186.0,-2.0,-2.0,1.0,161,133,126,138,135
2025-02-25 18:34:24.740,-331.0,-938.0,187.0,-2.0,-2.0,1.0,161,134,125,135,134
2025-02-25 18:34:24.744,-334.0,-940.0,186.0,-2.0,-3.0,1.0,159,134,124,133,132
2025-02-25 18:34:24.752,-333.0,-936.0,187.0,-2.0,-3.0,1.0,161,135,126,136,134
2025-02-25 18:34:24.757,-331.0,-941.0,183.0,-2.0,-3.0,1.0,160,134,127,136,134
2025-02-25 18:34:24.761,-335.0,-945.0,184.0,-2.0,-3.0,1.0,160,133,126,136,135
2025-02-25 18:34:24.765,-340.0,-947.0,190.0,-1.0,-2.0,1.0,158,132,123,138,132
2025-02-25 18:34:24.772,-338.0,-940.0,185.0,-1.0,-3.0,1.0,160,134,127,136,135
2025-02-25 18:34:24.776,-336.0,-947.0,185.0,-1.0,-3.0,1.0,160,134,127,136,135
2025-02-25 18:34:24.781,-337.0,-942.0,185.0,0.0,-3.0,2.0,159,133,125,135,133
2025-02-25 18:34:24.785,-335.0,-938.0,185.0,1.0,-4.0,2.0,161,135,127,138,135
2025-02-25 18:34:24.793,-332.0,-932.0,184.0,1.0,-4.0,2.0,161,136,127,137,135
2025-02-25 18:34:24.797,-332.0,-933.0,183.0,1.0,-4.0,2.0,160,133,125,136,134
2025-02-25 18:34:24.801,-332.0,-925.0,179.0,2.0,-4.0,2.0,157,133,125,135,133
2025-02-25 18:34:24.806,-336.0,-925.0,178.0,2.0,-4.0,1.0,161,137,128,139,137
2025-02-25 18:34:24.810,-339.0,-926.0,179.0,2.0,-5.0,1.0,161,134,126,137,134
2025-02-25 18:34:24.817,-340.0,-928.0,178.0,2.0,-5.0,1.0,157,132,127,134,131
2025-02-25 18:34:24.822,-345.0,-935.0,185.0,2.0,-5.0,1.0,159,132,124,134,133
2025-02-25 18:34:24.826,-351.0,-939.0,184.0,2.0,-5.0,1.0,162,137,130,140,137
2025-02-25 18:34:24.830,-349.0,-949.0,195.0,2.0,-5.0,1.0,159,134,125,135,133
2025-02-25 18:34:24.838,-353.0,-950.0,187.0,0.0,-6.0,1.0,158,132,124,134,132
2025-02-25 18:34:24.842,-353.0,-954.0,187.0,1.0,-7.0,1.0,160,135,126,136,134
2025-02-25 18:34:24.847,-355.0,-970.0,190.0,-2.0,-7.0,2.0,162,135,129,139,136
2025-02-25 18:34:24.851,-346.0,-963.0,203.0,-2.0,-8.0,2.0,159,133,124,134,132
2025-02-25 18:34:24.858,-348.0,-960.0,203.0,-2.0,-8.0,2.0,159,133,124,134,132
2025-02-25 18:34:24.862,-336.0,-953.0,219.0,-3.0,-8.0,2.0,159,134,127,137,129
2025-02-25 18:34:24.867,-335.0,-953.0,206.0,-1.0,-8.0,3.0,163,138,129,140,137
2025-02-25 18:34:24.872,-330.0,-949.0,222.0,0.0,-9.0,4.0,158,133,124,134,132
2025-02-25 18:34:24.879,-327.0,-939.0,234.0,-4.0,-9.0,5.0,156,131,123,134,131
2025-02-25 18:34:24.884,-309.0,-913.0,237.0,-4.0,-9.0,6.0,160,135,127,137,134
2025-02-25 18:34:24.888,-315.0,-896.0,208.0,-5.0,-9.0,6.0,161,136,126,137,136
2025-02-25 18:34:24.892,-313.0,-888.0,221.0,-6.0,-9.0,6.0,159,131,123,134,132
2025-02-25 18:34:24.900,-310.0,-889.0,210.0,-5.0,-7.0,6.0,158,132,124,134,132
2025-02-25 18:34:24.904,-324.0,-900.0,214.0,-7.0,-7.0,5.0,160,134,122,137,136
2025-02-25 18:34:24.909,-327.0,-906.0,218.0,-7.0,-7.0,5.0,160,135,127,138,135
2025-02-25 18:34:24.913,-332.0,-925.0,221.0,-6.0,-7.0,4.0,159,131,122,135,132
2025-02-25 18:34:24.920,-344.0,-936.0,216.0,-6.0,-6.0,4.0,161,135,125,136,134
2025-02-25 18:34:24.924,-345.0,-937.0,209.0,-6.0,-5.0,3.0,160,134,126,136,135
2025-02-25 18:34:24.929,-350.0,-945.0,219.0,-6.0,-4.0,3.0,160,135,127,137,135
2025-02-25 18:34:24.934,-353.0,-959.0,209.0,-6.0,-4.0,3.0,157,131,123,134,132
2025-02-25 18:34:24.941,-358.0,-964.0,204.0,-6.0,-3.0,3.0,160,135,120,135,135
2025-02-25 18:34:24.945,-362.0,-965.0,203.0,-5.0,-3.0,3.0,160,134,126,136,134
2025-02-25 18:34:24.949,-350.0,-982.0,210.0,-4.0,-3.0,4.0,159,134,125,135,133
2025-02-25 18:34:24.954,-336.0,-969.0,203.0,0.0,-3.0,5.0,158,131,123,134,133
2025-02-25 18:34:24.961,-341.0,-970.0,199.0,0.0,-4.0,6.0,160,134,128,137,135
2025-02-25 18:34:24.965,-350.0,-986.0,194.0,0.0,-4.0,7.0,160,135,128,137,134
2025-02-25 18:34:24.970,-347.0,-980.0,198.0,0.0,-5.0,8.0,158,132,124,135,132
2025-02-25 18:34:24.973,-355.0,-983.0,214.0,1.0,-6.0,8.0,158,134,124,135,133
2025-02-25 18:34:24.981,-349.0,-976.0,212.0,3.0,-5.0,10.0,160,135,126,136,135
2025-02-25 18:34:24.985,-344.0,-968.0,199.0,4.0,-5.0,11.0,159,130,125,135,134
2025-02-25 18:34:24.990,-341.0,-964.0,197.0,4.0,-5.0,12.0,158,132,124,133,132
2025-02-25 18:34:24.994,-334.0,-966.0,205.0,4.0,-4.0,13.0,159,133,126,136,134
2025-02-25 18:34:25.001,-340.0,-965.0,206.0,5.0,-4.0,14.0,161,135,125,137,136
2025-02-25 18:34:25.006,-339.0,-961.0,229.0,5.0,-2.0,15.0,158,134,123,134,130
2025-02-25 18:34:25.010,-340.0,-961.0,223.0,7.0,-1.0,16.0,157,131,125,135,132
2025-02-25 18:34:25.014,-338.0,-965.0,217.0,7.0,0.0,16.0,161,134,126,136,134
2025-02-25 18:34:25.022,-334.0,-964.0,222.0,8.0,2.0,16.0,159,134,125,136,135
2025-02-25 18:34:25.026,-332.0,-950.0,221.0,10.0,2.0,17.0,158,131,124,135,133
2025-02-25 18:34:25.030,-337.0,-960.0,212.0,10.0,3.0,17.0,156,130,122,133,132
2025-02-25 18:34:25.035,-341.0,-952.0,218.0,12.0,3.0,17.0,159,134,126,136,134
2025-02-25 18:34:25.043,-353.0,-957.0,202.0,12.0,2.0,17.0,159,134,125,134,133
2025-02-25 18:34:25.047,-341.0,-939.0,203.0,13.0,2.0,18.0,157,131,124,134,132
2025-02-25 18:34:25.051,-360.0,-945.0,202.0,12.0,2.0,18.0,158,132,124,134,133
2025-02-25 18:34:25.055,-362.0,-939.0,199.0,12.0,2.0,20.0,159,134,126,136,134
2025-02-25 18:34:25.063,-374.0,-936.0,202.0,13.0,1.0,21.0,160,134,125,135,134
2025-02-25 18:34:25.067,-383.0,-933.0,211.0,12.0,1.0,22.0,159,134,127,136,134
2025-02-25 18:34:25.072,-391.0,-926.0,206.0,12.0,0.0,23.0,159,135,125,136,134
2025-02-25 18:34:25.076,-384.0,-920.0,210.0,12.0,0.0,24.0,159,133,126,136,134
2025-02-25 18:34:25.084,-389.0,-912.0,205.0,11.0,-1.0,24.0,159,134,126,136,135
2025-02-25 18:34:25.088,-386.0,-912.0,199.0,10.0,-2.0,25.0,159,133,125,135,134
2025-02-25 18:34:25.093,-392.0,-910.0,209.0,9.0,-3.0,25.0,159,134,124,136,134
2025-02-25 18:34:25.100,-393.0,-912.0,209.0,7.0,-3.0,24.0,159,134,125,136,135
2025-02-25 18:34:25.104,-382.0,-909.0,222.0,7.0,-4.0,23.0,159,133,124,136,135
2025-02-25 18:34:25.109,-380.0,-898.0,204.0,9.0,-5.0,22.0,159,133,124,135,133
2025-02-25 18:34:25.113,-385.0,-899.0,207.0,6.0,-5.0,22.0,159,135,126,135,135
2025-02-25 18:34:25.120,-390.0,-896.0,210.0,2.0,-5.0,21.0,160,134,125,135,136
2025-02-25 18:34:25.125,-394.0,-894.0,218.0,0.0,-5.0,20.0,158,133,124,133,134
2025-02-25 18:34:25.129,-393.0,-892.0,222.0,-1.0,-6.0,20.0,159,132,123,134,130
2025-02-25 18:34:25.134,-402.0,-888.0,224.0,-1.0,-6.0,20.0,159,135,123,136,135
2025-02-25 18:34:25.141,-396.0,-888.0,220.0,-3.0,-7.0,20.0,160,135,124,135,135
2025-02-25 18:34:25.145,-399.0,-886.0,235.0,-4.0,-6.0,19.0,159,134,125,136,134
2025-02-25 18:34:25.150,-405.0,-893.0,224.0,-3.0,-7.0,19.0,158,130,123,135,134
2025-02-25 18:34:25.154,-411.0,-883.0,211.0,-4.0,-7.0,19.0,158,132,121,136,134
2025-02-25 18:34:25.162,-410.0,-878.0,222.0,-5.0,-7.0,19.0,160,134,127,137,135
2025-02-25 18:34:25.166,-433.0,-881.0,214.0,-4.0,-7.0,19.0,159,133,124,130,134
2025-02-25 18:34:25.170,-437.0,-880.0,218.0,-3.0,-7.0,19.0,157,132,122,133,134
2025-02-25 18:34:25.177,-439.0,-888.0,219.0,-2.0,-7.0,20.0,156,131,122,133,133
2025-02-25 18:34:25.182,-440.0,-878.0,220.0,0.0,-6.0,20.0,159,133,125,135,136
2025-02-25 18:34:25.186,-439.0,-882.0,238.0,0.0,-5.0,20.0,159,133,125,136,135
2025-02-25 18:34:25.191,-444.0,-892.0,238.0,1.0,-5.0,20.0,156,131,122,132,134
2025-02-25 18:34:25.198,-432.0,-887.0,247.0,1.0,-3.0,19.0,156,129,121,133,133
2025-02-25 18:34:25.202,-429.0,-889.0,245.0,3.0,-2.0,19.0,159,133,124,135,135
2025-02-25 18:34:25.207,-425.0,-883.0,254.0,3.0,-1.0,19.0,161,135,126,136,137
2025-02-25 18:34:25.211,-416.0,-886.0,252.0,3.0,-1.0,18.0,156,131,123,134,134
2025-02-25 18:34:25.219,-407.0,-876.0,260.0,5.0,1.0,17.0,157,131,122,133,133
2025-02-25 18:34:25.223,-416.0,-889.0,252.0,7.0,1.0,17.0,159,133,125,135,139
2025-02-25 18:34:25.227,-413.0,-875.0,264.0,7.0,2.0,16.0,160,133,126,137,137
2025-02-25 18:34:25.232,-406.0,-876.0,257.0,8.0,2.0,16.0,156,131,123,133,134
2025-02-25 18:34:25.239,-417.0,-868.0,268.0,8.0,4.0,15.0,159,133,125,136,136
2025-02-25 18:34:25.243,-413.0,-863.0,264.0,9.0,5.0,15.0,157,132,124,134,136
2025-02-25 18:34:25.248,-419.0,-853.0,273.0,11.0,7.0,14.0,159,134,125,135,135
2025-02-25 18:34:25.252,-418.0,-851.0,258.0,13.0,7.0,13.0,157,130,121,132,135
2025-02-25 18:34:25.259,-418.0,-844.0,250.0,14.0,8.0,11.0,159,133,127,136,136
2025-02-25 18:34:25.264,-439.0,-850.0,232.0,14.0,8.0,9.0,159,132,123,135,136
2025-02-25 18:34:25.268,-434.0,-848.0,252.0,13.0,9.0,7.0,158,132,123,133,136
2025-02-25 18:34:25.272,-441.0,-854.0,238.0,13.0,8.0,6.0,160,133,124,135,135
2025-02-25 18:34:25.277,-451.0,-861.0,253.0,11.0,8.0,4.0,159,132,125,136,137
2025-02-25 18:34:25.284,-447.0,-873.0,238.0,11.0,8.0,2.0,156,130,123,133,134
2025-02-25 18:34:25.289,-454.0,-878.0,245.0,10.0,7.0,1.0,156,130,123,133,135
2025-02-25 18:34:25.293,-449.0,-892.0,239.0,9.0,7.0,1.0,159,131,126,134,136
2025-02-25 18:34:25.297,-443.0,-914.0,231.0,8.0,6.0,2.0,157,132,123,134,135
2025-02-25 18:34:25.305,-447.0,-917.0,239.0,7.0,6.0,2.0,156,131,122,133,134
2025-02-25 18:34:25.309,-441.0,-922.0,240.0,7.0,5.0,3.0,159,134,126,137,137
2025-02-25 18:34:25.313,-435.0,-934.0,242.0,7.0,4.0,4.0,158,132,126,136,137
2025-02-25 18:34:25.317,-439.0,-936.0,235.0,7.0,3.0,6.0,157,131,123,132,133
2025-02-25 18:34:25.322,-436.0,-936.0,229.0,6.0,3.0,6.0,157,132,124,133,136
2025-02-25 18:34:25.329,-436.0,-934.0,239.0,6.0,3.0,8.0,159,133,126,135,136
2025-02-25 18:34:25.333,-441.0,-928.0,236.0,6.0,3.0,9.0,155,130,123,133,134
2025-02-25 18:34:25.338,-445.0,-928.0,246.0,5.0,4.0,9.0,159,133,125,136,136
2025-02-25 18:34:25.342,-445.0,-933.0,236.0,5.0,5.0,10.0,157,132,124,134,136
2025-02-25 18:34:25.350,-445.0,-927.0,231.0,5.0,5.0,10.0,158,132,124,134,135
2025-02-25 18:34:25.354,-437.0,-922.0,229.0,4.0,6.0,10.0,162,132,124,133,135
2025-02-25 18:34:25.358,-435.0,-914.0,231.0,4.0,8.0,9.0,157,132,126,136,136
2025-02-25 18:34:25.362,-427.0,-917.0,233.0,3.0,10.0,8.0,156,131,123,134,134
2025-02-25 18:34:25.367,-429.0,-916.0,222.0,4.0,10.0,8.0,156,130,124,133,135
2025-02-25 18:34:25.375,-440.0,-902.0,212.0,3.0,11.0,8.0,159,133,125,136,137
2025-02-25 18:34:25.379,-439.0,-898.0,222.0,4.0,12.0,8.0,157,131,123,134,135
2025-02-25 18:34:25.383,-440.0,-894.0,211.0,4.0,12.0,9.0,156,130,121,131,134
2025-02-25 18:34:25.388,-445.0,-894.0,212.0,5.0,12.0,8.0,159,134,125,136,138
2025-02-25 18:34:25.395,-440.0,-891.0,214.0,6.0,11.0,8.0,158,132,124,136,138
2025-02-25 18:34:25.400,-447.0,-895.0,200.0,7.0,11.0,8.0,157,131,123,134,134
2025-02-25 18:34:25.404,-464.0,-887.0,194.0,8.0,9.0,9.0,156,129,121,131,134
2025-02-25 18:34:25.408,-478.0,-874.0,190.0,9.0,7.0,10.0,159,132,126,137,138
2025-02-25 18:34:25.416,-489.0,-869.0,177.0,10.0,6.0,11.0,158,132,124,134,135
2025-02-25 18:34:25.420,-496.0,-860.0,181.0,10.0,6.0,12.0,155,130,122,132,134
2025-02-25 18:34:25.424,-502.0,-865.0,166.0,11.0,4.0,13.0,158,132,124,135,136
2025-02-25 18:34:25.429,-517.0,-881.0,181.0,9.0,3.0,14.0,159,133,126,136,136
2025-02-25 18:34:25.436,-518.0,-877.0,189.0,8.0,1.0,14.0,156,130,122,132,134
2025-02-25 18:34:25.440,-516.0,-878.0,224.0,7.0,1.0,14.0,158,131,123,133,134
2025-02-25 18:34:25.445,-511.0,-880.0,220.0,6.0,1.0,13.0,158,132,124,134,136
2025-02-25 18:34:25.449,-506.0,-889.0,223.0,8.0,1.0,13.0,158,132,124,134,135
2025-02-25 18:34:25.454,-514.0,-916.0,233.0,7.0,2.0,13.0,154,131,123,135,135
2025-02-25 18:34:25.461,-482.0,-917.0,230.0,8.0,3.0,13.0,159,131,124,137,136
2025-02-25 18:34:25.465,-475.0,-944.0,239.0,9.0,4.0,13.0,158,132,124,135,137
2025-02-25 18:34:25.470,-461.0,-946.0,259.0,7.0,5.0,13.0,157,131,123,133,134
2025-02-25 18:34:25.474,-459.0,-952.0,270.0,6.0,6.0,13.0,156,128,123,132,132
2025-02-25 18:34:25.481,-452.0,-953.0,292.0,8.0,9.0,13.0,158,131,124,135,136
2025-02-25 18:34:25.486,-452.0,-966.0,298.0,9.0,12.0,13.0,157,132,125,134,137
2025-02-25 18:34:25.490,-446.0,-955.0,289.0,9.0,13.0,13.0,156,129,123,133,134
2025-02-25 18:34:25.494,-433.0,-964.0,288.0,9.0,15.0,12.0,159,131,123,134,136
2025-02-25 18:34:25.502,-430.0,-965.0,291.0,12.0,17.0,13.0,158,133,125,135,136
2025-02-25 18:34:25.506,-434.0,-954.0,286.0,14.0,17.0,14.0,158,131,124,138,136
2025-02-25 18:34:25.510,-431.0,-956.0,275.0,13.0,17.0,14.0,156,129,123,132,134
2025-02-25 18:34:25.518,-438.0,-970.0,287.0,15.0,19.0,15.0,157,127,122,132,132
2025-02-25 18:34:25.523,-445.0,-957.0,299.0,16.0,22.0,16.0,159,130,125,134,135
2025-02-25 18:34:25.527,-439.0,-979.0,279.0,19.0,20.0,18.0,159,130,125,136,136
2025-02-25 18:34:25.531,-438.0,-970.0,284.0,19.0,19.0,19.0,157,128,122,132,133
2025-02-25 18:34:25.538,-426.0,-966.0,285.0,20.0,18.0,19.0,156,125,122,132,133
2025-02-25 18:34:25.543,-434.0,-970.0,259.0,19.0,15.0,19.0,158,128,123,134,136
2025-02-25 18:34:25.547,-429.0,-954.0,271.0,17.0,13.0,19.0,161,129,125,135,137
2025-02-25 18:34:25.551,-432.0,-966.0,258.0,18.0,12.0,20.0,156,124,121,133,133
2025-02-25 18:34:25.560,-432.0,-952.0,270.0,17.0,11.0,21.0,157,124,121,132,132
2025-02-25 18:34:25.564,-417.0,-949.0,277.0,19.0,11.0,21.0,158,126,123,135,136
2025-02-25 18:34:25.568,-422.0,-936.0,273.0,22.0,11.0,21.0,159,126,124,134,136
2025-02-25 18:34:25.575,-427.0,-924.0,274.0,24.0,9.0,21.0,158,125,123,133,132
2025-02-25 18:34:25.580,-418.0,-912.0,293.0,23.0,10.0,21.0,156,122,120,131,132
2025-02-25 18:34:25.584,-429.0,-907.0,265.0,26.0,8.0,22.0,157,123,122,132,133
2025-02-25 18:34:25.588,-420.0,-900.0,288.0,23.0,8.0,22.0,158,125,124,134,134
2025-02-25 18:34:25.596,-428.0,-889.0,276.0,24.0,8.0,23.0,158,123,122,133,133
2025-02-25 18:34:25.600,-434.0,-865.0,292.0,23.0,9.0,24.0,155,120,120,131,130
2025-02-25 18:34:25.604,-442.0,-870.0,288.0,25.0,10.0,24.0,161,123,123,132,133
2025-02-25 18:34:25.609,-448.0,-860.0,285.0,29.0,10.0,24.0,158,124,123,133,132
2025-02-25 18:34:25.617,-451.0,-848.0,291.0,30.0,11.0,25.0,158,125,124,134,132
2025-02-25 18:34:25.621,-448.0,-823.0,268.0,32.0,10.0,26.0,156,121,120,130,127
2025-02-25 18:34:25.625,-446.0,-810.0,286.0,33.0,11.0,27.0,156,124,122,132,128
2025-02-25 18:34:25.633,-452.0,-795.0,262.0,39.0,11.0,28.0,160,124,123,134,133
2025-02-25 18:34:25.637,-459.0,-797.0,266.0,42.0,11.0,30.0,156,122,123,131,132
2025-02-25 18:34:25.641,-454.0,-773.0,285.0,46.0,12.0,32.0,156,121,120,129,130
2025-02-25 18:34:25.646,-468.0,-761.0,300.0,49.0,14.0,33.0,158,122,122,133,133
2025-02-25 18:34:25.653,-485.0,-737.0,267.0,50.0,15.0,34.0,158,123,123,133,132
2025-02-25 18:34:25.658,-493.0,-735.0,300.0,47.0,15.0,34.0,158,124,124,134,131
2025-02-25 18:34:25.662,-502.0,-713.0,290.0,47.0,15.0,33.0,157,121,121,133,131
2025-02-25 18:34:25.666,-509.0,-694.0,288.0,45.0,15.0,32.0,156,121,122,132,131
2025-02-25 18:34:25.674,-509.0,-690.0,279.0,45.0,12.0,31.0,159,123,123,133,132
2025-02-25 18:34:25.678,-514.0,-660.0,298.0,46.0,12.0,30.0,159,123,122,132,131
2025-02-25 18:34:25.682,-532.0,-647.0,250.0,47.0,9.0,28.0,158,123,123,132,131
2025-02-25 18:34:25.690,-530.0,-633.0,276.0,44.0,8.0,26.0,156,121,120,132,130
2025-02-25 18:34:25.694,-535.0,-623.0,265.0,39.0,7.0,25.0,158,123,122,134,131
2025-02-25 18:34:25.699,-546.0,-612.0,270.0,37.0,2.0,23.0,160,122,122,133,131
2025-02-25 18:34:25.703,-568.0,-606.0,276.0,34.0,-2.0,19.0,155,122,121,132,131
2025-02-25 18:34:25.710,-564.0,-596.0,294.0,27.0,-2.0,15.0,156,121,121,132,129
2025-02-25 18:34:25.715,-579.0,-610.0,282.0,22.0,-4.0,13.0,157,123,123,133,131
2025-02-25 18:34:25.719,-584.0,-593.0,275.0,19.0,-6.0,10.0,158,122,122,134,131
2025-02-25 18:34:25.724,-575.0,-607.0,288.0,18.0,-9.0,7.0,157,121,123,135,132
2025-02-25 18:34:25.731,-596.0,-629.0,270.0,15.0,-10.0,5.0,157,121,119,131,129
2025-02-25 18:34:25.736,-593.0,-624.0,279.0,9.0,-12.0,4.0,158,120,119,133,130
2025-02-25 18:34:25.740,-588.0,-631.0,287.0,6.0,-14.0,4.0,158,124,122,133,131
2025-02-25 18:34:25.744,-584.0,-644.0,307.0,4.0,-15.0,4.0,159,127,123,134,135
2025-02-25 18:34:25.752,-575.0,-656.0,311.0,2.0,-15.0,4.0,155,121,119,131,129
2025-02-25 18:34:25.756,-576.0,-668.0,326.0,-4.0,-16.0,4.0,157,124,122,134,132
2025-02-25 18:34:25.760,-584.0,-684.0,324.0,-7.0,-15.0,4.0,159,124,121,133,134
2025-02-25 18:34:25.767,-586.0,-709.0,312.0,-7.0,-17.0,6.0,162,123,123,137,130
2025-02-25 18:34:25.772,-587.0,-721.0,331.0,-11.0,-16.0,7.0,157,123,123,134,131
2025-02-25 18:34:25.776,-585.0,-727.0,331.0,-12.0,-16.0,7.0,157,121,119,132,129
2025-02-25 18:34:25.781,-588.0,-734.0,340.0,-12.0,-15.0,8.0,159,124,124,134,132
2025-02-25 18:34:25.788,-598.0,-742.0,342.0,-11.0,-15.0,8.0,160,126,124,137,133
2025-02-25 18:34:25.793,-602.0,-747.0,347.0,-12.0,-15.0,8.0,158,125,124,135,132
2025-02-25 18:34:25.797,-599.0,-739.0,354.0,-13.0,-14.0,7.0,157,121,120,132,129
2025-02-25 18:34:25.804,-615.0,-737.0,365.0,-14.0,-15.0,7.0,157,123,121,132,128
2025-02-25 18:34:25.809,-622.0,-745.0,340.0,-16.0,-16.0,6.0,160,125,125,136,133
2025-02-25 18:34:25.813,-614.0,-749.0,365.0,-14.0,-15.0,5.0,159,126,123,135,133
2025-02-25 18:34:25.818,-613.0,-752.0,354.0,-14.0,-14.0,4.0,159,123,122,134,131
2025-02-25 18:34:25.825,-606.0,-762.0,371.0,-10.0,-13.0,3.0,158,123,121,134,130
2025-02-25 18:34:25.830,-614.0,-740.0,382.0,-6.0,-12.0,3.0,157,123,120,132,130
2025-02-25 18:34:25.834,-607.0,-792.0,397.0,-10.0,-9.0,2.0,160,125,123,137,132
2025-02-25 18:34:25.842,-583.0,-778.0,377.0,-7.0,-9.0,3.0,160,127,124,135,133
2025-02-25 18:34:25.846,-579.0,-785.0,411.0,-6.0,-6.0,4.0,160,126,124,136,133
2025-02-25 18:34:25.850,-591.0,-783.0,403.0,-4.0,-3.0,5.0,156,124,121,131,130
2025-02-25 18:34:25.855,-585.0,-791.0,393.0,-2.0,-1.0,6.0,160,125,124,138,134
2025-02-25 18:34:25.862,-584.0,-788.0,394.0,-2.0,1.0,7.0,159,126,123,136,132
2025-02-25 18:34:25.866,-590.0,-788.0,399.0,0.0,3.0,8.0,160,126,119,136,132
2025-02-25 18:34:25.870,-592.0,-785.0,387.0,5.0,5.0,9.0,159,127,124,136,133
2025-02-25 18:34:25.874,-598.0,-792.0,385.0,6.0,8.0,10.0,160,126,124,136,133
2025-02-25 18:34:25.879,-601.0,-791.0,380.0,9.0,9.0,10.0,158,125,122,133,131
2025-02-25 18:34:25.886,-601.0,-797.0,373.0,11.0,10.0,10.0,160,128,123,136,134
2025-02-25 18:34:25.890,-606.0,-802.0,373.0,12.0,11.0,10.0,161,127,124,136,133
2025-02-25 18:34:25.895,-602.0,-789.0,367.0,12.0,11.0,9.0,159,127,123,135,131
2025-02-25 18:34:25.902,-599.0,-790.0,361.0,12.0,11.0,7.0,157,126,122,134,131
2025-02-25 18:34:25.907,-602.0,-792.0,360.0,12.0,11.0,7.0,158,126,124,135,132
2025-02-25 18:34:25.911,-604.0,-789.0,355.0,11.0,11.0,5.0,160,128,122,137,133
2025-02-25 18:34:25.915,-598.0,-785.0,350.0,11.0,10.0,3.0,159,126,122,135,131
2025-02-25 18:34:25.923,-595.0,-780.0,357.0,9.0,10.0,1.0,158,128,124,134,130
2025-02-25 18:34:25.927,-596.0,-786.0,353.0,8.0,9.0,0.0,161,131,124,138,134
2025-02-25 18:34:25.932,-586.0,-779.0,361.0,6.0,9.0,-1.0,160,130,125,137,133
2025-02-25 18:34:25.936,-585.0,-771.0,369.0,6.0,9.0,-2.0,157,127,121,134,130
2025-02-25 18:34:25.940,-592.0,-777.0,356.0,4.0,9.0,-2.0,155,125,118,133,130
2025-02-25 18:34:25.947,-590.0,-776.0,358.0,2.0,9.0,-1.0,161,131,125,137,134
2025-02-25 18:34:25.952,-591.0,-781.0,345.0,1.0,9.0,0.0,160,130,125,137,132
2025-02-25 18:34:25.956,-588.0,-758.0,352.0,-2.0,9.0,2.0,156,128,121,135,131
2025-02-25 18:34:25.960,-582.0,-751.0,357.0,-3.0,10.0,4.0,159,132,126,137,133
2025-02-25 18:34:25.968,-575.0,-755.0,361.0,-4.0,11.0,6.0,161,132,127,137,135
2025-02-25 18:34:25.973,-571.0,-757.0,362.0,-7.0,11.0,6.0,158,129,123,134,131
2025-02-25 18:34:25.977,-574.0,-756.0,354.0,-11.0,11.0,6.0,159,130,123,133,131
2025-02-25 18:34:25.981,-580.0,-749.0,340.0,-14.0,11.0,7.0,159,135,125,135,133
2025-02-25 18:34:25.989,-590.0,-738.0,330.0,-17.0,11.0,8.0,160,133,126,137,134
2025-02-25 18:34:25.993,-602.0,-726.0,329.0,-18.0,11.0,8.0,157,131,124,136,132
2025-02-25 18:34:25.998,-613.0,-726.0,332.0,-20.0,11.0,8.0,156,131,123,134,130
2025-02-25 18:34:26.005,-613.0,-719.0,319.0,-22.0,11.0,7.0,160,134,127,137,132
2025-02-25 18:34:26.009,-623.0,-715.0,297.0,-24.0,8.0,6.0,160,132,126,138,135
2025-02-25 18:34:26.014,-629.0,-704.0,307.0,-25.0,7.0,4.0,158,133,124,137,133
2025-02-25 18:34:26.018,-632.0,-705.0,306.0,-26.0,7.0,2.0,157,126,121,135,132
2025-02-25 18:34:26.026,-619.0,-694.0,273.0,-24.0,6.0,1.0,160,134,127,137,134
2025-02-25 18:34:26.030,-634.0,-702.0,283.0,-22.0,5.0,-2.0,161,135,125,137,134
2025-02-25 18:34:26.034,-641.0,-698.0,280.0,-22.0,6.0,-4.0,159,130,126,136,130
2025-02-25 18:34:26.039,-639.0,-710.0,274.0,-23.0,6.0,-7.0,156,131,123,135,132
2025-02-25 18:34:26.047,-643.0,-708.0,280.0,-24.0,6.0,-8.0,160,136,127,139,136
2025-02-25 18:34:26.051,-647.0,-706.0,278.0,-22.0,5.0,-10.0,160,135,126,138,134
2025-02-25 18:34:26.055,-646.0,-714.0,284.0,-23.0,5.0,-13.0,159,135,128,135,134
2025-02-25 18:34:26.063,-652.0,-717.0,281.0,-22.0,4.0,-14.0,157,133,124,134,131
2025-02-25 18:34:26.067,-657.0,-726.0,299.0,-22.0,4.0,-15.0,159,135,126,136,134
2025-02-25 18:34:26.071,-645.0,-734.0,293.0,-23.0,6.0,-15.0,160,135,126,136,135
2025-02-25 18:34:26.076,-634.0,-733.0,278.0,-22.0,5.0,-15.0,159,135,125,136,134
2025-02-25 18:34:26.084,-625.0,-743.0,287.0,-23.0,4.0,-15.0,164,141,131,141,138
2025-02-25 18:34:26.088,-622.0,-747.0,304.0,-24.0,4.0,-15.0,163,139,131,141,139
2025-02-25 18:34:26.092,-615.0,-760.0,313.0,-23.0,3.0,-14.0,163,138,131,140,138
2025-02-25 18:34:26.100,-608.0,-764.0,316.0,-24.0,3.0,-14.0,164,142,130,141,139
2025-02-25 18:34:26.104,-603.0,-762.0,316.0,-24.0,4.0,-14.0,164,143,133,142,139
2025-02-25 18:34:26.109,-596.0,-766.0,310.0,-22.0,3.0,-14.0,165,140,131,141,139
2025-02-25 18:34:26.116,-594.0,-763.0,300.0,-22.0,3.0,-14.0,163,138,129,140,137
2025-02-25 18:34:26.120,-584.0,-753.0,297.0,-21.0,2.0,-14.0,163,140,130,138,138
2025-02-25 18:34:26.125,-568.0,-758.0,284.0,-22.0,3.0,-15.0,166,143,134,144,141
2025-02-25 18:34:26.129,-560.0,-744.0,286.0,-22.0,3.0,-16.0,165,141,132,143,141
2025-02-25 18:34:26.137,-560.0,-755.0,293.0,-22.0,3.0,-18.0,164,142,130,143,138
2025-02-25 18:34:26.140,-558.0,-754.0,282.0,-23.0,3.0,-19.0,161,140,130,141,138
2025-02-25 18:34:26.145,-552.0,-750.0,268.0,-24.0,2.0,-20.0,164,141,135,142,140
2025-02-25 18:34:26.152,-542.0,-744.0,264.0,-25.0,2.0,-21.0,164,141,134,143,140
2025-02-25 18:34:26.157,-543.0,-751.0,265.0,-27.0,1.0,-23.0,164,141,130,141,139
2025-02-25 18:34:26.161,-538.0,-751.0,248.0,-27.0,0.0,-23.0,163,140,130,144,141
2025-02-25 18:34:26.169,-538.0,-761.0,252.0,-29.0,-2.0,-24.0,162,139,129,140,139
2025-02-25 18:34:26.174,-520.0,-764.0,235.0,-31.0,-5.0,-24.0,164,140,130,141,139
2025-02-25 18:34:26.178,-521.0,-787.0,242.0,-30.0,-5.0,-23.0,166,144,135,145,143
2025-02-25 18:34:26.186,-521.0,-779.0,265.0,-33.0,-3.0,-23.0,168,143,135,147,145
2025-02-25 18:34:26.190,-535.0,-807.0,230.0,-29.0,-7.0,-22.0,169,146,136,147,146
2025-02-25 18:34:26.195,-530.0,-808.0,266.0,-34.0,-6.0,-22.0,166,143,134,144,143
2025-02-25 18:34:26.199,-521.0,-806.0,226.0,-30.0,-7.0,-21.0,166,143,135,143,142
2025-02-25 18:34:26.206,-524.0,-821.0,238.0,-30.0,-9.0,-21.0,168,148,137,149,146
2025-02-25 18:34:26.211,-520.0,-812.0,240.0,-28.0,-8.0,-20.0,180,157,147,158,156
2025-02-25 18:34:26.215,-523.0,-823.0,215.0,-25.0,-11.0,-20.0,189,169,159,169,170
2025-02-25 18:34:26.223,-523.0,-820.0,240.0,-30.0,-10.0,-19.0,200,181,173,181,182
2025-02-25 18:34:26.227,-518.0,-826.0,274.0,-22.0,-9.0,-19.0,183,159,150,160,159
2025-02-25 18:34:26.232,-521.0,-825.0,186.0,-17.0,-12.0,-18.0,179,156,146,156,155
2025-02-25 18:34:26.239,-519.0,-803.0,232.0,-19.0,-9.0,-18.0,176,154,146,156,155
2025-02-25 18:34:26.244,-525.0,-833.0,212.0,-14.0,-9.0,-18.0,184,163,153,163,163
2025-02-25 18:34:26.248,-534.0,-823.0,147.0,-14.0,-16.0,-16.0,190,169,158,168,167
2025-02-25 18:34:26.256,-509.0,-807.0,239.0,-10.0,-12.0,-16.0,199,178,166,177,175
2025-02-25 18:34:26.260,-493.0,-827.0,234.0,-1.0,-8.0,-14.0,193,172,163,173,173
2025-02-25 18:34:26.265,-522.0,-794.0,125.0,0.0,-6.0,-14.0,192,173,162,170,171
2025-02-25 18:34:26.272,-516.0,-806.0,228.0,2.0,-8.0,-13.0,196,173,163,173,172
2025-02-25 18:34:26.276,-533.0,-811.0,264.0,6.0,-10.0,-12.0,190,168,158,168,168
2025-02-25 18:34:26.280,-535.0,-811.0,173.0,9.0,-14.0,-11.0,188,166,157,165,165
2025-02-25 18:34:26.288,-488.0,-823.0,244.0,8.0,-15.0,-11.0,168,142,133,144,147
2025-02-25 18:34:26.292,-549.0,-807.0,222.0,10.0,-12.0,-11.0,168,143,133,144,143
2025-02-25 18:34:26.296,-525.0,-785.0,171.0,13.0,-16.0,-12.0,194,172,164,173,172
2025-02-25 18:34:26.301,-553.0,-802.0,367.0,24.0,-7.0,-14.0,198,175,163,173,174
2025-02-25 18:34:26.308,-503.0,-789.0,236.0,14.0,2.0,-14.0,185,164,155,164,164
2025-02-25 18:34:26.313,-550.0,-771.0,137.0,19.0,-11.0,-16.0,183,159,151,161,160
2025-02-25 18:34:26.317,-548.0,-866.0,327.0,11.0,-12.0,-18.0,180,160,149,157,158
2025-02-25 18:34:26.325,-520.0,-820.0,108.0,5.0,-16.0,-18.0,179,157,150,158,157
2025-02-25 18:34:26.329,-493.0,-813.0,229.0,6.0,-8.0,-19.0,180,157,147,158,159
2025-02-25 18:34:26.333,-536.0,-840.0,247.0,20.0,-8.0,-19.0,181,160,149,158,158
2025-02-25 18:34:26.341,-546.0,-853.0,267.0,28.0,-9.0,-20.0,178,155,147,155,157
2025-02-25 18:34:26.345,-508.0,-865.0,258.0,30.0,-6.0,-21.0,175,153,145,154,154
2025-02-25 18:34:26.350,-531.0,-857.0,213.0,30.0,-8.0,-19.0,175,151,144,154,155
2025-02-25 18:34:26.354,-542.0,-898.0,230.0,19.0,-19.0,-17.0,178,152,146,155,153
2025-02-25 18:34:26.362,-531.0,-904.0,328.0,21.0,-22.0,-17.0,183,163,152,161,162
2025-02-25 18:34:26.366,-522.0,-918.0,263.0,29.0,-25.0,-15.0,194,172,163,172,172
2025-02-25 18:34:26.370,-492.0,-902.0,319.0,35.0,-19.0,-12.0,186,165,156,165,165
2025-02-25 18:34:26.378,-487.0,-920.0,294.0,30.0,-13.0,-11.0,185,162,155,163,164
2025-02-25 18:34:26.383,-465.0,-921.0,297.0,25.0,-9.0,-8.0,187,164,158,168,168
2025-02-25 18:34:26.387,-488.0,-937.0,320.0,11.0,-8.0,-6.0,187,167,159,167,167
2025-02-25 18:34:26.395,-487.0,-922.0,351.0,5.0,-4.0,-4.0,186,163,155,164,165
2025-02-25 18:34:26.399,-480.0,-914.0,330.0,-3.0,-3.0,-2.0,177,158,151,159,159
2025-02-25 18:34:26.403,-495.0,-910.0,333.0,-6.0,3.0,-1.0,185,162,155,162,164
2025-02-25 18:34:26.408,-509.0,-916.0,351.0,-9.0,7.0,1.0,186,164,156,165,167
2025-02-25 18:34:26.415,-507.0,-896.0,313.0,-10.0,7.0,3.0,185,161,153,164,165
2025-02-25 18:34:26.419,-505.0,-902.0,294.0,-11.0,6.0,5.0,184,162,154,161,161
2025-02-25 18:34:26.424,-514.0,-889.0,298.0,-9.0,4.0,5.0,192,167,159,167,169
2025-02-25 18:34:26.428,-518.0,-872.0,295.0,-4.0,3.0,6.0,189,167,160,172,169
2025-02-25 18:34:26.436,-534.0,-872.0,280.0,-6.0,-1.0,7.0,185,161,154,162,165
2025-02-25 18:34:26.440,-513.0,-878.0,277.0,-3.0,1.0,7.0,183,161,152,161,163
2025-02-25 18:34:26.444,-527.0,-870.0,286.0,4.0,-2.0,8.0,189,166,161,168,169
2025-02-25 18:34:26.448,-533.0,-866.0,308.0,4.0,-2.0,7.0,187,164,157,166,168
2025-02-25 18:34:26.452,-532.0,-861.0,286.0,8.0,-4.0,6.0,183,161,155,161,163
2025-02-25 18:34:26.459,-538.0,-847.0,303.0,8.0,-2.0,6.0,188,165,158,168,169
2025-02-25 18:34:26.464,-538.0,-826.0,276.0,6.0,-2.0,5.0,190,167,160,166,168
2025-02-25 18:34:26.469,-555.0,-820.0,278.0,7.0,-2.0,5.0,186,161,153,162,163
2025-02-25 18:34:26.472,-542.0,-822.0,334.0,4.0,0.0,4.0,179,158,148,158,161
2025-02-25 18:34:26.480,-528.0,-798.0,287.0,5.0,4.0,2.0,189,164,157,165,165
2025-02-25 18:34:26.485,-537.0,-804.0,268.0,6.0,12.0,2.0,183,160,151,162,163
2025-02-25 18:34:26.489,-520.0,-801.0,260.0,-2.0,15.0,1.0,181,159,152,161,162
2025-02-25 18:34:26.493,-537.0,-792.0,324.0,1.0,16.0,0.0,186,163,156,164,165
2025-02-25 18:34:26.501,-549.0,-815.0,262.0,0.0,15.0,0.0,184,163,153,162,164
2025-02-25 18:34:26.505,-541.0,-810.0,310.0,-4.0,15.0,0.0,181,158,150,159,161
2025-02-25 18:34:26.509,-558.0,-832.0,244.0,2.0,12.0,-1.0,180,156,150,158,158
2025-02-25 18:34:26.514,-540.0,-812.0,256.0,8.0,14.0,-1.0,185,161,155,162,165
2025-02-25 18:34:26.521,-554.0,-819.0,214.0,13.0,12.0,-1.0,183,160,152,161,162
2025-02-25 18:34:26.526,-542.0,-826.0,273.0,22.0,12.0,-1.0,183,152,152,162,166
2025-02-25 18:34:26.530,-555.0,-822.0,276.0,26.0,11.0,-1.0,179,157,147,157,160
2025-02-25 18:34:26.534,-545.0,-851.0,279.0,33.0,7.0,-1.0,184,162,153,165,165
2025-02-25 18:34:26.542,-562.0,-852.0,252.0,33.0,2.0,-1.0,183,159,151,162,163
2025-02-25 18:34:26.546,-561.0,-827.0,291.0,27.0,3.0,0.0,186,160,151,162,164
2025-02-25 18:34:26.550,-551.0,-837.0,268.0,29.0,-2.0,0.0,181,159,151,159,160
2025-02-25 18:34:26.555,-546.0,-837.0,288.0,23.0,-2.0,0.0,190,161,155,159,163
2025-02-25 18:34:26.562,-525.0,-820.0,296.0,23.0,1.0,1.0,182,159,152,160,161
2025-02-25 18:34:26.567,-527.0,-816.0,267.0,21.0,2.0,1.0,186,158,151,159,164
2025-02-25 18:34:26.571,-522.0,-808.0,311.0,21.0,5.0,1.0,184,160,155,162,163
2025-02-25 18:34:26.575,-514.0,-813.0,270.0,14.0,3.0,1.0,182,158,152,161,163
2025-02-25 18:34:26.583,-501.0,-803.0,290.0,10.0,3.0,0.0,177,154,148,157,159
2025-02-25 18:34:26.587,-508.0,-781.0,326.0,12.0,3.0,0.0,179,157,151,157,159
2025-02-25 18:34:26.592,-507.0,-801.0,258.0,8.0,0.0,-1.0,183,159,152,161,162
2025-02-25 18:34:26.596,-482.0,-775.0,301.0,4.0,1.0,-1.0,182,158,149,159,161
2025-02-25 18:34:26.603,-476.0,-791.0,287.0,5.0,0.0,-2.0,177,154,145,156,157
2025-02-25 18:34:26.608,-501.0,-791.0,285.0,2.0,-3.0,-2.0,185,161,154,164,165
2025-02-25 18:34:26.612,-490.0,-782.0,305.0,0.0,-4.0,-4.0,182,159,152,161,161
2025-02-25 18:34:26.616,-497.0,-793.0,259.0,2.0,-6.0,-4.0,178,155,147,154,158
2025-02-25 18:34:26.624,-509.0,-792.0,324.0,-8.0,-8.0,-4.0,177,155,148,158,158
2025-02-25 18:34:26.628,-493.0,-793.0,258.0,2.0,-12.0,-5.0,186,163,153,162,164
2025-02-25 18:34:26.632,-510.0,-810.0,277.0,-3.0,-15.0,-6.0,182,160,153,160,162
2025-02-25 18:34:26.637,-498.0,-780.0,325.0,-7.0,-11.0,-7.0,180,157,150,158,159
2025-02-25 18:34:26.644,-495.0,-795.0,241.0,-3.0,-15.0,-7.0,177,152,147,156,157
2025-02-25 18:34:26.649,-491.0,-808.0,314.0,-8.0,-16.0,-8.0,177,155,148,158,158
2025-02-25 18:34:26.653,-488.0,-777.0,303.0,-12.0,-17.0,-7.0,179,157,149,159,160
2025-02-25 18:34:26.661,-476.0,-780.0,284.0,-9.0,-16.0,-6.0,181,158,149,159,159
2025-02-25 18:34:26.665,-490.0,-790.0,264.0,-7.0,-16.0,-4.0,181,158,149,159,160
2025-02-25 18:34:26.669,-483.0,-794.0,273.0,-6.0,-15.0,-3.0,179,154,147,157,157
2025-02-25 18:34:26.676,-495.0,-800.0,340.0,-6.0,-16.0,-3.0,180,154,148,153,156
2025-02-25 18:34:26.681,-486.0,-801.0,323.0,-6.0,-13.0,-1.0,180,157,151,158,160
2025-02-25 18:34:26.685,-486.0,-804.0,303.0,-5.0,-13.0,-1.0,180,156,143,159,161
2025-02-25 18:34:26.689,-491.0,-801.0,297.0,-2.0,-12.0,-2.0,182,159,149,157,159
2025-02-25 18:34:26.698,-493.0,-796.0,343.0,-3.0,-11.0,-2.0,174,152,146,154,154
2025-02-25 18:34:26.702,-512.0,-793.0,323.0,-10.0,-8.0,-3.0,175,151,144,151,153
2025-02-25 18:34:26.706,-505.0,-780.0,311.0,-5.0,-7.0,-4.0,183,159,152,161,162
2025-02-25 18:34:26.714,-517.0,-809.0,326.0,-3.0,-9.0,-6.0,179,155,147,158,159
2025-02-25 18:34:26.718,-519.0,-787.0,352.0,-3.0,-8.0,-7.0,176,152,145,152,153
2025-02-25 18:34:26.722,-496.0,-799.0,318.0,-6.0,-7.0,-8.0,176,154,145,153,153
2025-02-25 18:34:26.727,-523.0,-789.0,287.0,5.0,-13.0,-7.0,181,157,151,159,159
2025-02-25 18:34:26.734,-534.0,-833.0,299.0,-1.0,-18.0,-8.0,179,155,148,157,157
2025-02-25 18:34:26.739,-525.0,-808.0,315.0,2.0,-17.0,-8.0,178,156,146,156,156
2025-02-25 18:34:26.743,-528.0,-850.0,308.0,4.0,-18.0,-8.0,176,153,143,153,153
2025-02-25 18:34:26.751,-521.0,-843.0,318.0,-3.0,-19.0,-8.0,176,153,146,155,153
2025-02-25 18:34:26.755,-524.0,-816.0,288.0,5.0,-20.0,-7.0,177,156,149,157,157
2025-02-25 18:34:26.759,-518.0,-825.0,319.0,5.0,-16.0,-6.0,177,155,147,156,155
2025-02-25 18:34:26.763,-503.0,-822.0,346.0,5.0,-13.0,-6.0,175,153,145,154,153
2025-02-25 18:34:26.771,-507.0,-845.0,331.0,2.0,-12.0,-6.0,176,151,145,153,154
2025-02-25 18:34:26.776,-487.0,-830.0,339.0,2.0,-11.0,-5.0,179,155,147,155,153
2025-02-25 18:34:26.780,-495.0,-849.0,328.0,0.0,-12.0,-5.0,178,156,148,155,155
2025-02-25 18:34:26.787,-473.0,-843.0,369.0,-1.0,-10.0,-5.0,174,152,145,155,154
2025-02-25 18:34:26.792,-474.0,-857.0,352.0,-1.0,-10.0,-4.0,175,151,143,153,152
2025-02-25 18:34:26.796,-485.0,-864.0,365.0,-3.0,-8.0,-3.0,174,152,142,155,151
2025-02-25 18:34:26.801,-487.0,-864.0,360.0,-1.0,-7.0,-2.0,178,154,147,157,156
2025-02-25 18:34:26.808,-499.0,-887.0,363.0,-1.0,-6.0,-1.0,181,157,152,159,158
2025-02-25 18:34:26.812,-487.0,-890.0,371.0,0.0,-5.0,-1.0,174,151,146,154,154
2025-02-25 18:34:26.817,-512.0,-892.0,376.0,0.0,-3.0,1.0,172,150,142,150,149
2025-02-25 18:34:26.821,-516.0,-884.0,351.0,2.0,-3.0,1.0,177,155,148,158,155
2025-02-25 18:34:26.828,-520.0,-881.0,362.0,2.0,-4.0,2.0,182,159,150,158,158
2025-02-25 18:34:26.833,-525.0,-862.0,388.0,0.0,-3.0,4.0,174,151,143,152,151
2025-02-25 18:34:26.837,-522.0,-878.0,348.0,0.0,-2.0,4.0,178,154,147,157,156
2025-02-25 18:34:26.841,-532.0,-859.0,344.0,3.0,-3.0,5.0,178,156,150,156,153
2025-02-25 18:34:26.849,-531.0,-840.0,372.0,1.0,-2.0,5.0,177,154,146,156,154
2025-02-25 18:34:26.853,-538.0,-843.0,366.0,5.0,-2.0,5.0,175,149,143,153,150
2025-02-25 18:34:26.858,-529.0,-828.0,357.0,2.0,-3.0,6.0,181,154,147,156,155
2025-02-25 18:34:26.862,-536.0,-814.0,369.0,0.0,-2.0,6.0,178,155,146,154,154
2025-02-25 18:34:26.866,-540.0,-797.0,350.0,1.0,-2.0,6.0,176,151,144,155,153
2025-02-25 18:34:26.874,-526.0,-783.0,374.0,9.0,0.0,6.0,178,156,148,157,155
2025-02-25 18:34:26.878,-562.0,-819.0,356.0,11.0,2.0,7.0,177,154,144,153,152
2025-02-25 18:34:26.883,-527.0,-784.0,329.0,-7.0,1.0,8.0,173,150,141,151,149
2025-02-25 18:34:26.887,-556.0,-766.0,378.0,4.0,3.0,8.0,178,157,148,155,155
2025-02-25 18:34:26.894,-547.0,-775.0,341.0,-5.0,2.0,8.0,179,155,147,155,154
2025-02-25 18:34:26.899,-542.0,-768.0,342.0,-1.0,4.0,8.0,174,149,141,153,151
2025-02-25 18:34:26.903,-527.0,-762.0,322.0,-1.0,8.0,8.0,172,149,142,152,148
2025-02-25 18:34:26.907,-553.0,-744.0,341.0,-3.0,8.0,7.0,180,157,149,157,158
2025-02-25 18:34:26.915,-544.0,-764.0,379.0,-6.0,7.0,5.0,178,154,146,156,155
2025-02-25 18:34:26.919,-538.0,-763.0,343.0,-5.0,5.0,3.0,173,149,142,152,149
2025-02-25 18:34:26.923,-529.0,-760.0,327.0,-4.0,5.0,2.0,177,156,146,156,155
2025-02-25 18:34:26.927,-545.0,-758.0,356.0,-6.0,9.0,0.0,179,157,148,156,156
2025-02-25 18:34:26.935,-518.0,-751.0,366.0,-7.0,11.0,-2.0,174,151,141,151,151
2025-02-25 18:34:26.940,-526.0,-766.0,312.0,-7.0,12.0,-3.0,175,151,144,153,151
2025-02-25 18:34:26.944,-524.0,-756.0,371.0,-11.0,13.0,-5.0,178,155,146,155,154
2025-02-25 18:34:26.948,-523.0,-740.0,313.0,-16.0,13.0,-7.0,179,154,149,156,156
2025-02-25 18:34:26.956,-524.0,-742.0,293.0,-17.0,9.0,-9.0,177,153,147,156,153
2025-02-25 18:34:26.960,-529.0,-748.0,291.0,-19.0,6.0,-10.0,172,150,143,151,150
2025-02-25 18:34:26.964,-521.0,-745.0,280.0,-17.0,3.0,-11.0,173,149,142,149,147
2025-02-25 18:34:26.972,-512.0,-759.0,300.0,-13.0,0.0,-12.0,178,155,148,157,154
2025-02-25 18:34:26.976,-515.0,-751.0,284.0,-7.0,-2.0,-13.0,177,152,147,156,154
2025-02-25 18:34:26.980,-494.0,-784.0,328.0,-6.0,-4.0,-12.0,175,152,144,152,150
2025-02-25 18:34:26.985,-500.0,-774.0,298.0,-9.0,-5.0,-13.0,174,148,143,151,147
2025-02-25 18:34:26.992,-503.0,-768.0,272.0,-7.0,-10.0,-12.0,173,150,143,150,148
2025-02-25 18:34:26.997,-502.0,-786.0,316.0,-12.0,-12.0,-13.0,177,155,145,153,152
2025-02-25 18:34:27.001,-494.0,-773.0,280.0,-16.0,-13.0,-13.0,177,153,147,155,152
2025-02-25 18:34:27.009,-493.0,-782.0,251.0,-16.0,-16.0,-13.0,177,155,147,156,153
2025-02-25 18:34:27.013,-481.0,-779.0,317.0,-20.0,-15.0,-14.0,174,150,142,152,149
2025-02-25 18:34:27.018,-483.0,-790.0,309.0,-23.0,-13.0,-15.0,173,150,141,150,147
2025-02-25 18:34:27.025,-470.0,-789.0,293.0,-27.0,-10.0,-16.0,174,150,143,152,149
2025-02-25 18:34:27.029,-479.0,-790.0,312.0,-30.0,-7.0,-17.0,179,154,146,156,152
2025-02-25 18:34:27.034,-477.0,-809.0,288.0,-33.0,-7.0,-17.0,182,155,146,158,152
2025-02-25 18:34:27.041,-469.0,-808.0,287.0,-37.0,-8.0,-18.0,178,155,146,156,151
2025-02-25 18:34:27.046,-474.0,-820.0,278.0,-39.0,-9.0,-20.0,177,155,146,155,152
2025-02-25 18:34:27.050,-472.0,-818.0,295.0,-34.0,-9.0,-21.0,174,151,143,153,149
2025-02-25 18:34:27.058,-461.0,-838.0,278.0,-34.0,-7.0,-22.0,175,151,143,153,148
2025-02-25 18:34:27.062,-451.0,-834.0,276.0,-36.0,-8.0,-22.0,176,153,146,154,152
2025-02-25 18:34:27.066,-448.0,-848.0,268.0,-26.0,-9.0,-22.0,178,157,149,159,154
2025-02-25 18:34:27.074,-450.0,-874.0,262.0,-22.0,-11.0,-23.0,176,154,147,155,151
2025-02-25 18:34:27.079,-434.0,-879.0,265.0,-17.0,-13.0,-23.0,177,154,146,154,150
2025-02-25 18:34:27.084,-445.0,-886.0,291.0,-18.0,-10.0,-23.0,173,150,144,151,148
2025-02-25 18:34:27.091,-453.0,-903.0,286.0,-5.0,-13.0,-21.0,174,151,144,151,148
2025-02-25 18:34:27.095,-430.0,-921.0,286.0,-3.0,-16.0,-21.0,174,152,145,153,152
2025-02-25 18:34:27.099,-417.0,-924.0,290.0,0.0,-15.0,-19.0,178,154,146,155,152
2025-02-25 18:34:27.107,-434.0,-944.0,281.0,3.0,-15.0,-15.0,177,157,146,154,152
2025-02-25 18:34:27.111,-426.0,-954.0,294.0,2.0,-13.0,-12.0,174,152,144,153,149
2025-02-25 18:34:27.115,-421.0,-959.0,293.0,2.0,-11.0,-8.0,174,159,143,148,155
2025-02-25 18:34:27.120,-432.0,-962.0,290.0,4.0,-5.0,-7.0,179,155,146,156,151
2025-02-25 18:34:27.127,-444.0,-947.0,295.0,2.0,1.0,-4.0,185,156,150,160,155
2025-02-25 18:34:27.131,-446.0,-943.0,289.0,2.0,3.0,-2.0,175,152,144,155,151
2025-02-25 18:34:27.136,-448.0,-938.0,285.0,4.0,2.0,-1.0,174,150,143,151,148
2025-02-25 18:34:27.140,-459.0,-922.0,286.0,4.0,2.0,0.0,177,154,147,156,152
2025-02-25 18:34:27.147,-459.0,-914.0,287.0,5.0,0.0,1.0,177,157,147,157,153
2025-02-25 18:34:27.152,-467.0,-909.0,294.0,6.0,1.0,1.0,176,150,143,151,148
2025-02-25 18:34:27.156,-485.0,-899.0,256.0,11.0,0.0,2.0,177,154,145,155,152
2025-02-25 18:34:27.161,-459.0,-900.0,303.0,10.0,1.0,2.0,177,155,146,155,152
2025-02-25 18:34:27.166,-479.0,-904.0,291.0,17.0,1.0,3.0,176,154,146,155,151
2025-02-25 18:34:27.173,-480.0,-898.0,325.0,20.0,-1.0,3.0,174,151,143,151,150
2025-02-25 18:34:27.177,-479.0,-892.0,304.0,19.0,0.0,4.0,178,155,147,156,153
2025-02-25 18:34:27.181,-478.0,-894.0,295.0,17.0,2.0,4.0,177,153,144,153,151
2025-02-25 18:34:27.185,-461.0,-883.0,285.0,17.0,1.0,5.0,177,154,148,156,152
2025-02-25 18:34:27.193,-489.0,-899.0,309.0,9.0,1.0,5.0,179,156,146,156,154
2025-02-25 18:34:27.198,-467.0,-882.0,319.0,13.0,0.0,6.0,176,154,146,153,151
2025-02-25 18:34:27.202,-485.0,-887.0,308.0,11.0,0.0,6.0,175,150,142,152,151
2025-02-25 18:34:27.206,-480.0,-876.0,305.0,8.0,2.0,5.0,178,156,147,157,154
2025-02-25 18:34:27.213,-476.0,-870.0,311.0,12.0,3.0,5.0,178,156,147,156,152
2025-02-25 18:34:27.218,-479.0,-866.0,317.0,10.0,6.0,4.0,174,152,143,152,148
2025-02-25 18:34:27.223,-478.0,-865.0,328.0,9.0,9.0,4.0,173,150,142,157,149
2025-02-25 18:34:27.227,-483.0,-860.0,309.0,8.0,8.0,4.0,181,158,151,159,156
2025-02-25 18:34:27.231,-480.0,-852.0,329.0,8.0,9.0,4.0,176,154,145,155,152
2025-02-25 18:34:27.238,-489.0,-851.0,297.0,7.0,8.0,5.0,173,152,145,151,147
2025-02-25 18:34:27.243,-497.0,-850.0,299.0,8.0,9.0,6.0,178,153,147,154,152
2025-02-25 18:34:27.247,-528.0,-875.0,252.0,4.0,6.0,6.0,180,156,150,158,154
2025-02-25 18:34:27.251,-489.0,-832.0,417.0,-2.0,13.0,7.0,175,149,143,152,149
2025-02-25 18:34:27.259,-471.0,-827.0,291.0,9.0,14.0,8.0,179,155,147,156,152
2025-02-25 18:34:27.263,-524.0,-844.0,286.0,0.0,12.0,9.0,178,154,147,155,153
2025-02-25 18:34:27.268,-473.0,-815.0,285.0,-3.0,11.0,7.0,178,153,146,156,154
2025-02-25 18:34:27.272,-503.0,-854.0,277.0,-1.0,6.0,8.0,174,150,142,152,149
2025-02-25 18:34:27.280,-499.0,-854.0,319.0,-6.0,6.0,6.0,178,153,145,156,153
2025-02-25 18:34:27.283,-483.0,-846.0,279.0,-1.0,3.0,5.0,176,151,145,153,150
2025-02-25 18:34:27.288,-480.0,-836.0,303.0,0.0,6.0,4.0,175,150,144,154,150
2025-02-25 18:34:27.292,-491.0,-842.0,266.0,4.0,7.0,4.0,179,155,148,156,152
2025-02-25 18:34:27.296,-479.0,-844.0,306.0,-2.0,6.0,2.0,175,153,146,155,150
2025-02-25 18:34:27.303,-478.0,-838.0,276.0,0.0,3.0,1.0,174,149,140,151,148
2025-02-25 18:34:27.308,-472.0,-849.0,312.0,-3.0,-2.0,0.0,180,156,149,158,155
2025-02-25 18:34:27.312,-458.0,-834.0,325.0,-3.0,-1.0,-1.0,178,154,144,156,154
2025-02-25 18:34:27.316,-465.0,-851.0,282.0,-3.0,1.0,-1.0,176,151,144,154,151
2025-02-25 18:34:27.324,-469.0,-846.0,307.0,-3.0,3.0,-1.0,173,148,141,151,148
2025-02-25 18:34:27.328,-461.0,-851.0,302.0,-2.0,4.0,-1.0,178,155,146,156,154
2025-02-25 18:34:27.333,-462.0,-855.0,304.0,0.0,4.0,0.0,178,154,146,156,153
2025-02-25 18:34:27.337,-463.0,-859.0,318.0,-2.0,6.0,0.0,174,149,142,152,147
2025-02-25 18:34:27.345,-464.0,-855.0,285.0,0.0,6.0,1.0,173,148,141,150,148
2025-02-25 18:34:27.348,-475.0,-861.0,282.0,0.0,5.0,2.0,178,153,148,157,153
2025-02-25 18:34:27.353,-469.0,-840.0,294.0,0.0,5.0,2.0,178,153,147,156,152
2025-02-25 18:34:27.357,-473.0,-833.0,282.0,1.0,5.0,2.0,173,150,143,153,149
2025-02-25 18:34:27.361,-478.0,-832.0,278.0,6.0,5.0,3.0,177,153,146,155,153
2025-02-25 18:34:27.369,-477.0,-821.0,287.0,7.0,5.0,2.0,177,153,146,155,152
2025-02-25 18:34:27.373,-473.0,-813.0,282.0,9.0,4.0,1.0,174,149,141,151,149
2025-02-25 18:34:27.378,-481.0,-812.0,280.0,9.0,3.0,1.0,176,153,146,155,152
2025-02-25 18:34:27.382,-488.0,-812.0,284.0,9.0,1.0,1.0,177,151,144,154,150
2025-02-25 18:34:27.390,-492.0,-810.0,289.0,8.0,0.0,-1.0,173,151,144,154,150
2025-02-25 18:34:27.393,-488.0,-803.0,286.0,9.0,0.0,-1.0,179,153,146,154,152
2025-02-25 18:34:27.398,-490.0,-807.0,285.0,9.0,0.0,-1.0,177,152,145,154,152
2025-02-25 18:34:27.403,-493.0,-811.0,289.0,9.0,1.0,-2.0,174,147,142,151,149
2025-02-25 18:34:27.410,-488.0,-815.0,309.0,9.0,1.0,-2.0,175,149,143,151,147
2025-02-25 18:34:27.415,-493.0,-824.0,285.0,9.0,-1.0,-2.0,178,153,146,154,151
2025-02-25 18:34:27.419,-490.0,-818.0,313.0,6.0,1.0,-3.0,176,151,145,153,148
2025-02-25 18:34:27.424,-491.0,-808.0,302.0,5.0,2.0,-3.0,173,148,142,151,147
2025-02-25 18:34:27.428,-489.0,-811.0,313.0,2.0,3.0,-3.0,177,154,146,157,153
2025-02-25 18:34:27.435,-489.0,-814.0,322.0,0.0,5.0,-4.0,178,152,145,156,153
2025-02-25 18:34:27.439,-493.0,-824.0,284.0,-3.0,4.0,-5.0,175,149,141,151,148
2025-02-25 18:34:27.443,-485.0,-817.0,306.0,-7.0,4.0,-5.0,173,149,141,151,147
2025-02-25 18:34:27.447,-493.0,-837.0,322.0,-7.0,1.0,-6.0,178,153,146,156,152
2025-02-25 18:34:27.456,-494.0,-836.0,322.0,-7.0,0.0,-6.0,176,150,144,153,148
2025-02-25 18:34:27.460,-491.0,-860.0,315.0,-5.0,0.0,-6.0,174,148,142,151,147
2025-02-25 18:34:27.464,-492.0,-863.0,306.0,-2.0,1.0,-6.0,172,148,139,150,147
2025-02-25 18:34:27.468,-497.0,-873.0,311.0,1.0,2.0,-4.0,178,151,146,155,149
2025-02-25 18:34:27.476,-506.0,-879.0,309.0,2.0,1.0,-3.0,175,149,143,153,148
2025-02-25 18:34:27.480,-498.0,-879.0,326.0,1.0,0.0,-2.0,173,148,139,150,145
2025-02-25 18:34:27.484,-499.0,-879.0,333.0,-1.0,-2.0,-1.0,175,150,145,154,150
2025-02-25 18:34:27.488,-497.0,-876.0,346.0,-3.0,-3.0,0.0,177,152,147,156,150
2025-02-25 18:34:27.497,-480.0,-867.0,354.0,-3.0,-3.0,1.0,174,147,141,153,148
2025-02-25 18:34:27.501,-494.0,-870.0,355.0,-4.0,-1.0,2.0,171,147,141,150,145
2025-02-25 18:34:27.505,-488.0,-862.0,357.0,-6.0,1.0,3.0,176,150,144,155,149
2025-02-25 18:34:27.510,-486.0,-855.0,320.0,-5.0,1.0,3.0,177,152,146,155,150
2025-02-25 18:34:27.517,-490.0,-853.0,352.0,-5.0,1.0,3.0,173,147,140,149,143
2025-02-25 18:34:27.521,-489.0,-851.0,336.0,-5.0,2.0,4.0,171,144,139,149,145
2025-02-25 18:34:27.526,-488.0,-845.0,336.0,-6.0,3.0,3.0,177,149,146,155,149
2025-02-25 18:34:27.530,-489.0,-841.0,334.0,-6.0,3.0,3.0,177,150,145,156,150
2025-02-25 18:34:27.537,-493.0,-836.0,338.0,-5.0,3.0,2.0,174,146,138,150,144
2025-02-25 18:34:27.542,-491.0,-837.0,334.0,-5.0,3.0,2.0,176,151,145,154,149
2025-02-25 18:34:27.546,-497.0,-835.0,329.0,-4.0,4.0,2.0,175,152,143,153,149
2025-02-25 18:34:27.550,-497.0,-830.0,317.0,-4.0,4.0,2.0,175,147,141,150,147
2025-02-25 18:34:27.558,-498.0,-827.0,318.0,-4.0,4.0,1.0,173,144,140,151,144
2025-02-25 18:34:27.562,-492.0,-830.0,320.0,-4.0,4.0,1.0,177,151,144,155,148
2025-02-25 18:34:27.567,-498.0,-827.0,313.0,-4.0,5.0,1.0,174,148,144,152,147
2025-02-25 18:34:27.571,-494.0,-823.0,308.0,-5.0,5.0,2.0,173,147,142,152,146
2025-02-25 18:34:27.578,-494.0,-817.0,302.0,-6.0,5.0,1.0,177,150,145,155,148
2025-02-25 18:34:27.582,-499.0,-819.0,302.0,-6.0,4.0,1.0,176,150,143,153,147
2025-02-25 18:34:27.586,-503.0,-815.0,296.0,-8.0,4.0,0.0,174,150,140,151,150
2025-02-25 18:34:27.591,-500.0,-814.0,289.0,-11.0,3.0,-1.0,177,150,144,153,148
2025-02-25 18:34:27.599,-502.0,-823.0,288.0,-12.0,3.0,-1.0,178,150,147,154,148
2025-02-25 18:34:27.603,-505.0,-824.0,288.0,-13.0,2.0,-3.0,173,148,142,151,147
2025-02-25 18:34:27.607,-507.0,-829.0,284.0,-13.0,2.0,-3.0,178,150,145,155,150
2025-02-25 18:34:27.611,-511.0,-836.0,276.0,-13.0,0.0,-4.0,170,145,141,149,145
2025-02-25 18:34:27.619,-519.0,-846.0,276.0,-12.0,0.0,-4.0,179,150,144,153,148
2025-02-25 18:34:27.623,-513.0,-849.0,274.0,-11.0,-1.0,-4.0,175,150,143,153,146
2025-02-25 18:34:27.628,-507.0,-855.0,286.0,-9.0,-2.0,-5.0,175,148,143,152,148
2025-02-25 18:34:27.632,-508.0,-849.0,278.0,-7.0,-2.0,-5.0,173,147,141,150,145
2025-02-25 18:34:27.640,-494.0,-854.0,278.0,-6.0,-3.0,-6.0,176,151,144,153,148
2025-02-25 18:34:27.643,-490.0,-847.0,281.0,-4.0,-3.0,-6.0,175,150,145,152,148
2025-02-25 18:34:27.648,-490.0,-851.0,283.0,-4.0,-4.0,-5.0,177,151,146,155,148
2025-02-25 18:34:27.656,-488.0,-844.0,283.0,-4.0,-4.0,-4.0,174,145,139,152,144
2025-02-25 18:34:27.660,-475.0,-842.0,281.0,-3.0,-4.0,-4.0,174,148,143,151,145
2025-02-25 18:34:27.665,-471.0,-843.0,276.0,-4.0,-3.0,-2.0,176,149,144,153,148
2025-02-25 18:34:27.668,-474.0,-836.0,285.0,-4.0,-2.0,-1.0,176,150,143,153,147
2025-02-25 18:34:27.677,-467.0,-838.0,284.0,-5.0,-2.0,-1.0,172,147,141,149,145
2025-02-25 18:34:27.681,-471.0,-834.0,284.0,-7.0,-2.0,0.0,170,145,141,150,143
2025-02-25 18:34:27.685,-467.0,-837.0,283.0,-7.0,-2.0,0.0,176,151,149,154,149
2025-02-25 18:34:27.690,-469.0,-833.0,273.0,-8.0,-2.0,0.0,176,149,144,154,148
2025-02-25 18:34:27.697,-472.0,-829.0,277.0,-7.0,-2.0,-1.0,172,146,141,150,145
2025-02-25 18:34:27.701,-473.0,-836.0,267.0,-7.0,-2.0,-1.0,170,143,140,149,143
2025-02-25 18:34:27.705,-475.0,-832.0,271.0,-6.0,-3.0,-2.0,176,150,141,153,149
2025-02-25 18:34:27.713,-476.0,-831.0,273.0,-5.0,-4.0,-3.0,177,150,145,153,148
2025-02-25 18:34:27.718,-473.0,-824.0,268.0,-4.0,-5.0,-3.0,174,148,141,151,146
2025-02-25 18:34:27.722,-477.0,-822.0,270.0,-2.0,-6.0,-4.0,173,146,141,151,146
2025-02-25 18:34:27.726,-476.0,-820.0,273.0,-1.0,-6.0,-5.0,180,153,148,159,153
2025-02-25 18:34:27.734,-477.0,-817.0,273.0,0.0,-6.0,-5.0,176,149,144,153,149
2025-02-25 18:34:27.738,-480.0,-818.0,276.0,0.0,-7.0,-5.0,175,149,142,150,147
2025-02-25 18:34:27.742,-479.0,-820.0,270.0,0.0,-8.0,-5.0,173,147,141,150,145
2025-02-25 18:34:27.746,-488.0,-820.0,286.0,-2.0,-8.0,-6.0,182,153,147,155,152
2025-02-25 18:34:27.754,-480.0,-822.0,270.0,3.0,-11.0,-5.0,177,152,145,154,149
2025-02-25 18:34:27.758,-485.0,-812.0,277.0,-2.0,-11.0,-5.0,173,148,142,151,146
2025-02-25 18:34:27.763,-479.0,-790.0,303.0,-2.0,-6.0,-5.0,171,145,139,150,145
2025-02-25 18:34:27.770,-495.0,-777.0,272.0,0.0,-9.0,-5.0,176,149,144,154,149
2025-02-25 18:34:27.774,-493.0,-790.0,277.0,0.0,-9.0,-5.0,176,150,143,154,148
2025-02-25 18:34:27.779,-485.0,-778.0,290.0,-3.0,-9.0,-5.0,176,150,143,154,150
2025-02-25 18:34:27.784,-488.0,-784.0,279.0,0.0,-9.0,-5.0,174,146,142,152,146
2025-02-25 18:34:27.792,-487.0,-787.0,297.0,-2.0,-9.0,-5.0,176,150,144,154,149
2025-02-25 18:34:27.796,-483.0,-777.0,296.0,0.0,-8.0,-5.0,174,150,144,153,149
2025-02-25 18:34:27.800,-486.0,-792.0,289.0,1.0,-8.0,-6.0,175,148,141,153,149
2025-02-25 18:34:27.804,-491.0,-795.0,307.0,1.0,-7.0,-7.0,172,146,142,151,145
2025-02-25 18:34:27.812,-485.0,-795.0,299.0,2.0,-7.0,-7.0,176,152,145,155,150
2025-02-25 18:34:27.816,-483.0,-797.0,316.0,3.0,-7.0,-9.0,175,150,142,153,149
2025-02-25 18:34:27.821,-499.0,-809.0,311.0,3.0,-7.0,-10.0,175,148,142,153,149
2025-02-25 18:34:27.825,-497.0,-805.0,303.0,3.0,-6.0,-11.0,171,147,142,150,146
2025-02-25 18:34:27.832,-491.0,-803.0,301.0,3.0,-6.0,-12.0,176,149,143,152,151
2025-02-25 18:34:27.836,-497.0,-814.0,311.0,4.0,-5.0,-12.0,177,149,142,155,150
2025-02-25 18:34:27.840,-496.0,-823.0,307.0,3.0,-5.0,-13.0,176,148,143,152,148
2025-02-25 18:34:27.848,-488.0,-840.0,321.0,3.0,-5.0,-14.0,180,151,144,150,149
2025-02-25 18:34:27.852,-482.0,-842.0,317.0,1.0,-5.0,-14.0,172,145,138,149,146
2025-02-25 18:34:27.857,-478.0,-851.0,316.0,1.0,-4.0,-15.0,176,152,145,155,150
2025-02-25 18:34:27.861,-481.0,-862.0,307.0,2.0,-5.0,-15.0,175,150,142,153,148
2025-02-25 18:34:27.869,-472.0,-868.0,310.0,0.0,-5.0,-15.0,175,150,144,153,150
2025-02-25 18:34:27.873,-471.0,-885.0,314.0,-1.0,-4.0,-14.0,173,149,141,151,150
2025-02-25 18:34:27.878,-459.0,-889.0,324.0,-1.0,-6.0,-14.0,175,151,144,153,154
2025-02-25 18:34:27.885,-449.0,-894.0,325.0,-2.0,-7.0,-13.0,176,150,144,155,150
2025-02-25 18:34:27.890,-440.0,-903.0,322.0,-2.0,-7.0,-13.0,177,151,144,153,151
2025-02-25 18:34:27.893,-441.0,-913.0,330.0,-3.0,-7.0,-12.0,172,147,139,150,148
2025-02-25 18:34:27.898,-423.0,-917.0,337.0,-3.0,-7.0,-12.0,173,147,141,151,147
2025-02-25 18:34:27.906,-414.0,-924.0,328.0,-3.0,-6.0,-11.0,175,151,143,154,151
2025-02-25 18:34:27.910,-411.0,-937.0,330.0,-5.0,-5.0,-10.0,177,150,144,155,153
2025-02-25 18:34:27.915,-406.0,-937.0,332.0,-6.0,-5.0,-9.0,174,149,142,152,150
2025-02-25 18:34:27.922,-412.0,-943.0,331.0,-7.0,-4.0,-8.0,174,148,140,150,148
2025-02-25 18:34:27.927,-422.0,-941.0,331.0,-8.0,-4.0,-7.0,171,147,140,149,145
2025-02-25 18:34:27.931,-422.0,-944.0,328.0,-8.0,-2.0,-5.0,176,150,146,156,152
2025-02-25 18:34:27.935,-437.0,-940.0,324.0,-9.0,0.0,-4.0,174,149,145,153,150
2025-02-25 18:34:27.943,-440.0,-936.0,322.0,-9.0,0.0,-2.0,172,147,141,152,153
2025-02-25 18:34:27.947,-449.0,-938.0,296.0,-8.0,2.0,0.0,170,143,139,149,144
2025-02-25 18:34:27.952,-458.0,-923.0,292.0,-5.0,2.0,3.0,179,151,144,154,152
2025-02-25 18:34:27.956,-459.0,-920.0,287.0,-4.0,3.0,5.0,173,150,148,155,151
2025-02-25 18:34:27.963,-464.0,-906.0,286.0,-2.0,4.0,7.0,172,146,142,149,148
2025-02-25 18:34:27.968,-463.0,-905.0,283.0,1.0,3.0,8.0,179,155,153,159,155
2025-02-25 18:34:27.972,-469.0,-893.0,292.0,1.0,3.0,8.0,176,150,144,154,152
2025-02-25 18:34:27.976,-473.0,-879.0,283.0,3.0,3.0,8.0,171,147,140,151,148
2025-02-25 18:34:27.980,-477.0,-873.0,288.0,2.0,4.0,7.0,177,151,144,155,152
2025-02-25 18:34:27.988,-477.0,-854.0,285.0,3.0,4.0,6.0,179,152,149,156,152
2025-02-25 18:34:27.992,-478.0,-843.0,278.0,3.0,3.0,5.0,172,148,142,153,150
2025-02-25 18:34:27.996,-485.0,-846.0,278.0,1.0,2.0,4.0,174,148,142,151,151
2025-02-25 18:34:28.000,-480.0,-836.0,283.0,0.0,1.0,2.0,175,151,145,153,152
2025-02-25 18:34:28.008,-487.0,-829.0,276.0,-1.0,1.0,2.0,174,147,141,150,147
2025-02-25 18:34:28.012,-488.0,-837.0,279.0,-1.0,1.0,1.0,175,145,139,150,148
2025-02-25 18:34:28.017,-488.0,-841.0,287.0,-1.0,1.0,1.0,182,149,145,156,151
2025-02-25 18:34:28.021,-481.0,-841.0,283.0,-1.0,0.0,0.0,175,150,145,153,151
2025-02-25 18:34:28.025,-473.0,-848.0,319.0,-2.0,3.0,0.0,171,148,144,154,148
2025-02-25 18:34:28.033,-488.0,-840.0,340.0,-1.0,0.0,-1.0,177,151,145,153,152
2025-02-25 18:34:28.037,-461.0,-855.0,298.0,-4.0,1.0,-1.0,175,148,144,155,151
2025-02-25 18:34:28.041,-468.0,-839.0,277.0,-3.0,0.0,0.0,172,147,142,152,149
2025-02-25 18:34:28.045,-457.0,-857.0,320.0,-4.0,0.0,0.0,175,149,143,152,152
2025-02-25 18:34:28.053,-461.0,-857.0,329.0,-5.0,2.0,-1.0,177,153,144,153,154
2025-02-25 18:34:28.057,-451.0,-859.0,313.0,-6.0,2.0,-1.0,174,148,142,153,152
2025-02-25 18:34:28.062,-458.0,-877.0,322.0,-7.0,2.0,0.0,171,146,138,150,149
2025-02-25 18:34:28.066,-450.0,-875.0,313.0,-10.0,1.0,0.0,176,151,146,158,152
2025-02-25 18:34:28.073,-454.0,-872.0,301.0,-9.0,1.0,0.0,174,150,145,149,152
2025-02-25 18:34:28.078,-465.0,-875.0,295.0,-8.0,1.0,0.0,173,148,143,152,151
2025-02-25 18:34:28.082,-464.0,-877.0,298.0,-8.0,1.0,1.0,172,148,141,150,148
2025-02-25 18:34:28.087,-459.0,-876.0,292.0,-9.0,1.0,1.0,181,154,148,156,154
2025-02-25 18:34:28.094,-466.0,-882.0,304.0,-8.0,0.0,2.0,175,150,145,154,152
2025-02-25 18:34:28.098,-462.0,-870.0,310.0,-8.0,0.0,2.0,172,146,140,150,147
2025-02-25 18:34:28.103,-459.0,-865.0,299.0,-6.0,0.0,3.0,175,150,143,153,151
2025-02-25 18:34:28.107,-459.0,-858.0,301.0,-5.0,0.0,2.0,179,153,147,156,155
2025-02-25 18:34:28.115,-451.0,-853.0,296.0,-4.0,0.0,3.0,174,147,143,152,151
2025-02-25 18:34:28.119,-449.0,-850.0,305.0,-3.0,1.0,2.0,173,147,141,152,149
2025-02-25 18:34:28.123,-451.0,-841.0,290.0,-2.0,0.0,2.0,176,150,143,154,151
2025-02-25 18:34:28.127,-449.0,-834.0,288.0,-2.0,2.0,2.0,177,151,145,154,153
2025-02-25 18:34:28.135,-459.0,-830.0,279.0,-1.0,2.0,1.0,172,148,142,150,148
2025-02-25 18:34:28.139,-449.0,-827.0,284.0,0.0,2.0,1.0,177,152,143,154,152
2025-02-25 18:34:28.144,-454.0,-823.0,287.0,-1.0,3.0,1.0,176,150,143,154,154
2025-02-25 18:34:28.148,-458.0,-810.0,283.0,0.0,3.0,1.0,174,149,142,152,149
2025-02-25 18:34:28.152,-468.0,-808.0,280.0,0.0,3.0,1.0,170,145,139,149,148
2025-02-25 18:34:28.160,-468.0,-803.0,270.0,-2.0,2.0,0.0,176,150,144,154,152
2025-02-25 18:34:28.164,-463.0,-795.0,265.0,-1.0,2.0,0.0,173,146,142,153,151
2025-02-25 18:34:28.168,-465.0,-793.0,258.0,-1.0,1.0,-1.0,173,148,141,151,151
2025-02-25 18:34:28.172,-468.0,-795.0,267.0,-1.0,1.0,-1.0,178,150,144,151,153
2025-02-25 18:34:28.181,-475.0,-797.0,264.0,0.0,0.0,-2.0,175,150,144,154,153
2025-02-25 18:34:28.185,-477.0,-796.0,270.0,0.0,0.0,-3.0,171,147,140,150,149
2025-02-25 18:34:28.189,-487.0,-797.0,268.0,0.0,0.0,-3.0,172,146,140,150,150
2025-02-25 18:34:28.193,-493.0,-797.0,266.0,1.0,-1.0,-4.0,175,150,144,152,152
2025-02-25 18:34:28.201,-491.0,-795.0,267.0,1.0,-2.0,-5.0,174,148,144,154,152
2025-02-25 18:34:28.205,-500.0,-791.0,274.0,1.0,-2.0,-5.0,172,146,141,150,149
2025-02-25 18:34:28.210,-497.0,-788.0,271.0,2.0,-3.0,-6.0,176,153,146,156,153
2025-02-25 18:34:28.214,-503.0,-785.0,266.0,3.0,-3.0,-6.0,177,150,143,154,152
2025-02-25 18:34:28.221,-502.0,-782.0,272.0,3.0,-3.0,-7.0,175,151,146,154,152
2025-02-25 18:34:28.226,-496.0,-786.0,280.0,4.0,-3.0,-8.0,173,145,141,149,148
2025-02-25 18:34:28.230,-499.0,-780.0,281.0,3.0,-4.0,-8.0,176,151,146,156,153
2025-02-25 18:34:28.240,-495.0,-781.0,277.0,3.0,-4.0,-9.0,175,149,144,154,152
2025-02-25 18:34:28.242,-490.0,-785.0,287.0,3.0,-4.0,-10.0,173,147,140,151,149
2025-02-25 18:34:28.246,-490.0,-787.0,297.0,2.0,-4.0,-11.0,172,145,139,149,148
2025-02-25 18:34:28.251,-489.0,-788.0,297.0,3.0,-3.0,-12.0,176,150,144,155,153
2025-02-25 18:34:28.255,-488.0,-802.0,303.0,3.0,-2.0,-13.0,175,150,148,153,153
2025-02-25 18:34:28.263,-489.0,-803.0,304.0,3.0,-1.0,-14.0,175,148,142,152,152
2025-02-25 18:34:28.267,-491.0,-819.0,306.0,4.0,-1.0,-16.0,174,145,141,151,145
2025-02-25 18:34:28.271,-493.0,-822.0,312.0,4.0,-1.0,-16.0,175,147,140,150,148
2025-02-25 18:34:28.278,-485.0,-841.0,316.0,4.0,-1.0,-18.0,177,149,144,152,151
2025-02-25 18:34:28.283,-486.0,-844.0,318.0,5.0,-1.0,-19.0,174,148,144,152,151
2025-02-25 18:34:28.287,-480.0,-865.0,325.0,4.0,-1.0,-21.0,176,150,143,155,153
2025-02-25 18:34:28.292,-474.0,-874.0,327.0,3.0,-1.0,-22.0,175,145,141,151,149
2025-02-25 18:34:28.299,-460.0,-881.0,335.0,2.0,-2.0,-24.0,176,149,143,153,154
2025-02-25 18:34:28.304,-450.0,-896.0,335.0,1.0,-2.0,-26.0,176,149,144,153,153
2025-02-25 18:34:28.308,-444.0,-911.0,341.0,0.0,-1.0,-27.0,174,146,144,153,151
2025-02-25 18:34:28.316,-441.0,-928.0,346.0,-3.0,-1.0,-27.0,171,146,140,152,152
2025-02-25 18:34:28.320,-438.0,-933.0,355.0,-5.0,1.0,-27.0,175,148,143,153,152
2025-02-25 18:34:28.324,-434.0,-942.0,358.0,-8.0,1.0,-27.0,175,148,145,153,152
2025-02-25 18:34:28.328,-433.0,-956.0,362.0,-10.0,3.0,-25.0,175,150,144,154,152
2025-02-25 18:34:28.336,-432.0,-967.0,364.0,-14.0,3.0,-23.0,172,146,142,152,148
2025-02-25 18:34:28.341,-426.0,-979.0,365.0,-17.0,4.0,-22.0,171,145,141,149,149
2025-02-25 18:34:28.345,-412.0,-985.0,356.0,-20.0,5.0,-20.0,175,149,144,153,152
2025-02-25 18:34:28.352,-404.0,-999.0,351.0,-23.0,7.0,-18.0,176,150,144,154,153
2025-02-25 18:34:28.357,-398.0,-1008.0,348.0,-25.0,9.0,-16.0,175,152,142,152,148
2025-02-25 18:34:28.361,-400.0,-1021.0,348.0,-27.0,10.0,-14.0,174,146,142,151,150
2025-02-25 18:34:28.369,-397.0,-1043.0,343.0,-29.0,10.0,-12.0,173,147,142,151,151
2025-02-25 18:34:28.373,-398.0,-1050.0,337.0,-30.0,11.0,-11.0,173,147,141,149,147
2025-02-25 18:34:28.377,-393.0,-1065.0,319.0,-32.0,11.0,-9.0,177,150,144,152,151
2025-02-25 18:34:28.385,-378.0,-1069.0,315.0,-33.0,11.0,-6.0,175,148,144,153,152
2025-02-25 18:34:28.390,-382.0,-1067.0,303.0,-32.0,11.0,-2.0,176,148,145,153,153
2025-02-25 18:34:28.394,-378.0,-1080.0,293.0,-32.0,12.0,2.0,174,146,140,151,150
2025-02-25 18:34:28.398,-372.0,-1060.0,287.0,-31.0,14.0,5.0,172,143,141,149,148
2025-02-25 18:34:28.405,-376.0,-1064.0,296.0,-32.0,15.0,7.0,177,147,144,154,151
2025-02-25 18:34:28.410,-371.0,-1055.0,291.0,-33.0,17.0,10.0,177,149,145,155,153
2025-02-25 18:34:28.414,-375.0,-1041.0,288.0,-33.0,19.0,13.0,173,145,145,153,151
2025-02-25 18:34:28.422,-379.0,-1025.0,270.0,-31.0,20.0,16.0,172,142,139,150,150
2025-02-25 18:34:28.426,-368.0,-1005.0,283.0,-30.0,23.0,18.0,172,142,139,148,149
2025-02-25 18:34:28.431,-396.0,-999.0,255.0,-25.0,23.0,19.0,170,142,140,150,147
2025-02-25 18:34:28.438,-377.0,-1010.0,283.0,-30.0,25.0,21.0,176,146,138,154,151
2025-02-25 18:34:28.442,-399.0,-952.0,258.0,-28.0,26.0,23.0,175,146,143,153,152
2025-02-25 18:34:28.447,-414.0,-938.0,246.0,-26.0,27.0,23.0,178,147,145,157,155
2025-02-25 18:34:28.454,-418.0,-924.0,219.0,-25.0,27.0,23.0,173,142,140,150,148
2025-02-25 18:34:28.459,-434.0,-925.0,214.0,-25.0,27.0,24.0,170,140,139,150,146
2025-02-25 18:34:28.463,-446.0,-917.0,198.0,-24.0,26.0,24.0,178,142,142,152,151
2025-02-25 18:34:28.467,-448.0,-892.0,209.0,-23.0,25.0,24.0,177,145,146,156,153
2025-02-25 18:34:28.475,-459.0,-879.0,188.0,-22.0,25.0,23.0,176,142,142,153,151
2025-02-25 18:34:28.480,-461.0,-865.0,191.0,-22.0,26.0,23.0,172,139,140,152,149
2025-02-25 18:34:28.484,-485.0,-855.0,192.0,-21.0,26.0,22.0,172,139,139,148,146
2025-02-25 18:34:28.492,-476.0,-843.0,178.0,-22.0,25.0,21.0,177,141,143,154,152
2025-02-25 18:34:28.496,-480.0,-826.0,164.0,-22.0,23.0,20.0,176,141,144,155,150
2025-02-25 18:34:28.501,-491.0,-817.0,162.0,-24.0,22.0,18.0,175,141,143,155,151
2025-02-25 18:34:28.508,-496.0,-795.0,152.0,-26.0,22.0,17.0,171,136,142,151,146
2025-02-25 18:34:28.512,-503.0,-802.0,159.0,-25.0,21.0,16.0,171,133,137,149,146
2025-02-25 18:34:28.517,-502.0,-788.0,154.0,-25.0,21.0,14.0,178,138,143,153,151
2025-02-25 18:34:28.521,-515.0,-775.0,133.0,-25.0,22.0,13.0,176,137,139,154,151
2025-02-25 18:34:28.529,-523.0,-768.0,135.0,-24.0,21.0,11.0,176,137,144,157,152
2025-02-25 18:34:28.533,-532.0,-772.0,128.0,-24.0,21.0,9.0,172,130,135,149,146
2025-02-25 18:34:28.537,-556.0,-768.0,122.0,-26.0,18.0,8.0,171,128,137,149,143
2025-02-25 18:34:28.545,-558.0,-754.0,116.0,-28.0,16.0,6.0,174,130,139,153,146
2025-02-25 18:34:28.549,-552.0,-727.0,117.0,-26.0,16.0,5.0,177,131,140,155,148
2025-02-25 18:34:28.553,-545.0,-710.0,113.0,-26.0,17.0,3.0,172,125,135,149,141
2025-02-25 18:34:28.557,-543.0,-697.0,100.0,-22.0,17.0,2.0,170,122,132,147,137
2025-02-25 18:34:28.565,-560.0,-687.0,100.0,-18.0,17.0,0.0,174,124,137,150,141
2025-02-25 18:34:28.570,-561.0,-669.0,95.0,-17.0,15.0,-2.0,175,124,136,151,143
2025-02-25 18:34:28.574,-575.0,-649.0,85.0,-16.0,13.0,-4.0,170,118,131,145,136
2025-02-25 18:34:28.578,-592.0,-633.0,86.0,-12.0,13.0,-6.0,171,116,130,144,133
2025-02-25 18:34:28.586,-628.0,-628.0,57.0,-9.0,15.0,-7.0,173,116,133,146,135
2025-02-25 18:34:28.590,-669.0,-571.0,50.0,-1.0,17.0,-9.0,176,112,132,146,134
2025-02-25 18:34:28.594,-712.0,-513.0,80.0,-1.0,21.0,-8.0,171,107,124,141,128
2025-02-25 18:34:28.602,-728.0,-448.0,103.0,-1.0,23.0,-8.0,172,105,125,140,124
2025-02-25 18:34:28.606,-781.0,-358.0,41.0,6.0,24.0,-9.0,174,106,125,142,125
2025-02-25 18:34:28.610,-879.0,-287.0,51.0,15.0,30.0,-10.0,176,106,129,140,123
2025-02-25 18:34:28.615,-993.0,-252.0,96.0,17.0,46.0,-11.0,170,96,120,134,115
2025-02-25 18:34:28.623,-1033.0,-173.0,140.0,14.0,54.0,-11.0,170,92,118,132,112
2025-02-25 18:34:28.627,-1114.0,-102.0,206.0,1.0,70.0,-14.0,172,96,120,136,112
2025-02-25 18:34:28.632,-1103.0,-52.0,171.0,-8.0,78.0,-21.0,173,95,120,131,105
2025-02-25 18:34:28.636,-1101.0,24.0,268.0,-12.0,89.0,-26.0,172,90,115,128,105
2025-02-25 18:34:28.643,-1086.0,48.0,115.0,-24.0,93.0,-37.0,168,88,111,119,98
2025-02-25 18:34:28.648,-1072.0,7.0,116.0,-39.0,105.0,-45.0,174,98,115,127,103
2025-02-25 18:34:28.652,-989.0,172.0,109.0,-40.0,127.0,-62.0,172,90,113,124,98
2025-02-25 18:34:28.659,-970.0,267.0,-109.0,-45.0,147.0,-88.0,169,88,109,120,95
2025-02-25 18:34:28.664,-934.0,316.0,-64.0,-54.0,160.0,-115.0,165,84,106,116,91
2025-02-25 18:34:28.668,-910.0,257.0,-285.0,-38.0,182.0,-126.0,166,87,104,118,94
2025-02-25 18:34:28.672,-670.0,354.0,-461.0,-3.0,177.0,-160.0,163,91,105,116,94
2025-02-25 18:34:28.680,-636.0,452.0,-650.0,47.0,150.0,-209.0,159,89,103,115,93
2025-02-25 18:34:28.684,-898.0,667.0,-908.0,47.0,118.0,-266.0,152,86,93,109,89
2025-02-25 18:34:28.688,-959.0,604.0,-503.0,39.0,118.0,-313.0,149,85,97,108,91
2025-02-25 18:34:28.696,-1008.0,508.0,-378.0,4.0,122.0,-337.0,144,80,93,104,86
2025-02-25 18:34:28.700,-766.0,555.0,-525.0,2.0,62.0,-386.0,145,87,97,110,91
2025-02-25 18:34:28.704,-573.0,37.0,-528.0,18.0,-41.0,-442.0,144,87,98,109,90
2025-02-25 18:34:28.709,-422.0,214.0,-686.0,65.0,-103.0,-476.0,140,82,93,108,90
2025-02-25 18:34:28.716,11.0,389.0,-404.0,101.0,-193.0,-495.0,135,82,92,106,87
2025-02-25 18:34:28.721,381.0,-173.0,-439.0,112.0,-254.0,-492.0,141,86,96,111,91
2025-02-25 18:34:28.725,1091.0,-620.0,170.0,50.0,-268.0,-477.0,141,88,99,113,92
2025-02-25 18:34:28.733,1466.0,-1191.0,552.0,32.0,-243.0,-421.0,138,86,99,111,92
2025-02-25 18:34:28.737,1584.0,-2150.0,1016.0,18.0,-225.0,-346.0,127,82,95,103,93
2025-02-25 18:34:28.741,1971.0,-2776.0,1258.0,21.0,-184.0,-258.0,136,85,97,110,88
2025-02-25 18:34:28.750,2323.0,-3028.0,1505.0,52.0,-120.0,-213.0,137,88,99,113,91
2025-02-25 18:34:28.754,2490.0,-3587.0,1640.0,103.0,-34.0,-129.0,136,89,100,113,94
2025-02-25 18:34:28.759,2511.0,-3841.0,1705.0,171.0,54.0,-61.0,133,87,101,111,93
2025-02-25 18:34:28.766,2482.0,-3933.0,1570.0,204.0,127.0,-4.0,131,85,100,112,91
2025-02-25 18:34:28.771,2307.0,-3895.0,1341.0,254.0,188.0,60.0,133,87,101,111,90
2025-02-25 18:34:28.775,2062.0,-3667.0,1017.0,275.0,203.0,119.0,128,81,96,109,88
2025-02-25 18:34:28.783,1567.0,-3371.0,740.0,258.0,205.0,146.0,128,82,97,108,86
2025-02-25 18:34:28.787,1158.0,-2773.0,654.0,208.0,191.0,189.0,133,87,102,111,93
2025-02-25 18:34:28.791,895.0,-2024.0,536.0,146.0,158.0,207.0,132,88,101,113,94
2025-02-25 18:34:28.795,695.0,-1500.0,498.0,107.0,131.0,204.0,131,88,105,114,93
2025-02-25 18:34:28.803,631.0,-1164.0,513.0,32.0,117.0,185.0,131,86,97,111,90
2025-02-25 18:34:28.807,475.0,-1082.0,480.0,-38.0,91.0,174.0,129,84,96,111,89
2025-02-25 18:34:28.812,321.0,-1042.0,446.0,-96.0,64.0,153.0,133,90,101,117,96
2025-02-25 18:34:28.816,249.0,-1021.0,384.0,-122.0,40.0,137.0,133,86,97,120,94
2025-02-25 18:34:28.823,258.0,-1183.0,323.0,-156.0,27.0,126.0,128,86,95,111,91
2025-02-25 18:34:28.828,184.0,-1186.0,243.0,-176.0,6.0,124.0,132,88,99,114,93
2025-02-25 18:34:28.832,182.0,-1332.0,220.0,-181.0,-4.0,121.0,133,90,101,116,96
2025-02-25 18:34:28.840,76.0,-1413.0,213.0,-181.0,-17.0,123.0,131,88,99,113,94
2025-02-25 18:34:28.844,75.0,-1430.0,232.0,-166.0,-25.0,126.0,130,85,98,112,91
2025-02-25 18:34:28.848,89.0,-1453.0,291.0,-153.0,-31.0,131.0,131,88,100,114,95
2025-02-25 18:34:28.853,37.0,-1406.0,307.0,-143.0,-37.0,141.0,133,89,101,113,95
2025-02-25 18:34:28.860,0.0,-1351.0,318.0,-133.0,-44.0,153.0,133,89,102,112,95
2025-02-25 18:34:28.864,-1.0,-1248.0,367.0,-129.0,-44.0,164.0,132,88,100,111,95
2025-02-25 18:34:28.869,28.0,-1141.0,379.0,-123.0,-44.0,173.0,130,89,100,111,94
2025-02-25 18:34:28.877,13.0,-1071.0,389.0,-118.0,-40.0,178.0,127,82,99,109,91
2025-02-25 18:34:28.881,27.0,-965.0,357.0,-113.0,-31.0,183.0,133,90,104,113,96
2025-02-25 18:34:28.885,-35.0,-938.0,344.0,-113.0,-22.0,183.0,133,90,103,113,97
2025-02-25 18:34:28.890,-44.0,-810.0,321.0,-113.0,-13.0,185.0,130,88,103,111,96
2025-02-25 18:34:28.897,-100.0,-725.0,280.0,-111.0,-11.0,182.0,129,85,99,110,91
2025-02-25 18:34:28.902,-122.0,-688.0,242.0,-110.0,-5.0,179.0,131,87,102,109,92
2025-02-25 18:34:28.906,-205.0,-564.0,206.0,-111.0,-2.0,173.0,132,90,104,114,97
2025-02-25 18:34:28.914,-276.0,-501.0,163.0,-110.0,-2.0,167.0,134,91,101,113,98
2025-02-25 18:34:28.918,-364.0,-441.0,114.0,-110.0,-8.0,159.0,129,87,100,109,94
2025-02-25 18:34:28.922,-396.0,-385.0,75.0,-111.0,-11.0,150.0,129,86,100,109,91
2025-02-25 18:34:28.930,-441.0,-372.0,37.0,-113.0,-7.0,146.0,134,92,105,114,99
2025-02-25 18:34:28.934,-503.0,-380.0,34.0,-109.0,-11.0,136.0,135,91,105,112,97
2025-02-25 18:34:28.938,-532.0,-381.0,13.0,-109.0,-6.0,128.0,132,89,103,112,95
2025-02-25 18:34:28.943,-566.0,-369.0,-38.0,-105.0,-1.0,120.0,131,87,99,110,94
2025-02-25 18:34:28.950,-578.0,-388.0,-56.0,-99.0,3.0,116.0,132,89,101,112,96
2025-02-25 18:34:28.955,-625.0,-380.0,-94.0,-90.0,6.0,109.0,135,92,103,112,97
2025-02-25 18:34:28.959,-633.0,-395.0,-106.0,-87.0,15.0,105.0,132,89,101,113,97
2025-02-25 18:34:28.963,-693.0,-419.0,-149.0,-76.0,19.0,102.0,130,86,99,111,95
2025-02-25 18:34:28.971,-663.0,-410.0,-168.0,-64.0,19.0,97.0,131,89,100,110,96
2025-02-25 18:34:28.975,-685.0,-405.0,-180.0,-49.0,27.0,95.0,128,89,101,114,98
2025-02-25 18:34:28.979,-732.0,-400.0,-180.0,-35.0,29.0,93.0,134,89,101,114,99
2025-02-25 18:34:28.987,-755.0,-357.0,-211.0,-29.0,33.0,90.0,132,89,101,113,96
2025-02-25 18:34:28.991,-731.0,-310.0,-223.0,-18.0,34.0,87.0,130,86,99,109,95
2025-02-25 18:34:28.996,-765.0,-276.0,-231.0,-9.0,28.0,86.0,133,89,103,114,99
2025-02-25 18:34:28.999,-782.0,-195.0,-250.0,-4.0,24.0,83.0,133,92,102,113,97
2025-02-25 18:34:29.007,-847.0,-121.0,-262.0,-3.0,19.0,79.0,128,89,99,109,97
2025-02-25 18:34:29.012,-852.0,-21.0,-283.0,-3.0,16.0,75.0,132,88,99,109,96
2025-02-25 18:34:29.016,-907.0,54.0,-298.0,-7.0,9.0,75.0,133,93,101,113,93
2025-02-25 18:34:29.020,-977.0,183.0,-319.0,-11.0,2.0,77.0,133,89,100,113,97
2025-02-25 18:34:29.024,-1002.0,332.0,-362.0,-22.0,-1.0,80.0,131,87,98,109,97
2025-02-25 18:34:29.032,-1097.0,413.0,-412.0,-33.0,-10.0,82.0,135,91,102,113,98
2025-02-25 18:34:29.037,-1216.0,552.0,-429.0,-39.0,-20.0,82.0,134,91,96,115,99
2025-02-25 18:34:29.041,-1294.0,699.0,-447.0,-39.0,-27.0,77.0,135,88,100,111,98
2025-02-25 18:34:29.049,-1324.0,819.0,-422.0,-32.0,-27.0,63.0,132,91,100,113,96
2025-02-25 18:34:29.053,-1352.0,899.0,-326.0,-8.0,-26.0,48.0,129,87,97,110,96
2025-02-25 18:34:29.058,-1273.0,941.0,-275.0,32.0,-22.0,3.0,133,89,100,112,99
2025-02-25 18:34:29.062,-1169.0,1003.0,-173.0,55.0,-11.0,-58.0,133,89,99,111,99
2025-02-25 18:34:29.069,-1119.0,1100.0,-92.0,104.0,8.0,-130.0,134,90,99,113,101
2025-02-25 18:34:29.074,-1049.0,1209.0,-92.0,148.0,17.0,-201.0,131,89,98,110,96
2025-02-25 18:34:29.078,-1009.0,1218.0,-119.0,174.0,30.0,-236.0,133,91,100,112,99
2025-02-25 18:34:29.086,-979.0,1249.0,-140.0,177.0,29.0,-304.0,134,90,100,114,100
2025-02-25 18:34:29.090,-957.0,1308.0,-218.0,157.0,14.0,-366.0,135,94,103,114,101
2025-02-25 18:34:29.095,-946.0,1186.0,-288.0,139.0,-18.0,-423.0,132,90,100,112,99
2025-02-25 18:34:29.102,-835.0,1062.0,-347.0,95.0,-61.0,-476.0,130,87,98,112,96
2025-02-25 18:34:29.106,-745.0,838.0,-371.0,51.0,-85.0,-519.0,129,85,97,111,96
2025-02-25 18:34:29.110,-442.0,670.0,-356.0,11.0,-131.0,-534.0,134,89,103,117,100
2025-02-25 18:34:29.118,-22.0,169.0,-309.0,-9.0,-169.0,-549.0,133,92,104,115,100
2025-02-25 18:34:29.123,376.0,-561.0,-167.0,-3.0,-194.0,-539.0,134,91,101,116,101
2025-02-25 18:34:29.127,934.0,-1407.0,160.0,6.0,-201.0,-505.0,137,94,104,118,104
2025-02-25 18:34:29.135,1189.0,-2243.0,447.0,32.0,-196.0,-440.0,131,88,99,112,98
2025-02-25 18:34:29.139,1563.0,-3005.0,739.0,75.0,-172.0,-356.0,131,89,100,112,97
2025-02-25 18:34:29.144,1867.0,-3321.0,1001.0,131.0,-127.0,-311.0,134,89,100,114,99
2025-02-25 18:34:29.151,2190.0,-3927.0,1255.0,196.0,-68.0,-220.0,137,92,104,118,104
2025-02-25 18:34:29.156,2408.0,-4318.0,1380.0,258.0,7.0,-123.0,134,92,105,114,102
2025-02-25 18:34:29.160,2663.0,-4466.0,1427.0,316.0,98.0,-33.0,134,91,107,113,101
2025-02-25 18:34:29.168,2746.0,-4420.0,1393.0,337.0,178.0,45.0,133,89,106,110,100
2025-02-25 18:34:29.172,2474.0,-4157.0,1218.0,357.0,222.0,107.0,133,90,104,110,100
2025-02-25 18:34:29.176,2269.0,-3788.0,1018.0,343.0,233.0,163.0,132,88,103,107,100
2025-02-25 18:34:29.184,1812.0,-3212.0,797.0,290.0,236.0,202.0,131,87,102,107,97
2025-02-25 18:34:29.188,1452.0,-2934.0,653.0,210.0,219.0,216.0,137,93,109,111,102
2025-02-25 18:34:29.192,1095.0,-2303.0,615.0,121.0,175.0,228.0,136,92,107,112,102
2025-02-25 18:34:29.201,741.0,-1772.0,539.0,29.0,119.0,224.0,135,93,107,110,102
2025-02-25 18:34:29.204,545.0,-1407.0,510.0,-17.0,82.0,216.0,133,91,104,111,100
2025-02-25 18:34:29.208,437.0,-1261.0,426.0,-104.0,59.0,206.0,132,87,102,112,99
2025-02-25 18:34:29.217,336.0,-1256.0,354.0,-179.0,21.0,201.0,131,88,99,110,98
2025-02-25 18:34:29.220,269.0,-1326.0,293.0,-230.0,-10.0,195.0,135,90,103,116,102
2025-02-25 18:34:29.225,193.0,-1426.0,293.0,-251.0,-32.0,190.0,138,90,104,118,103
2025-02-25 18:34:29.233,203.0,-1575.0,292.0,-251.0,-47.0,189.0,135,93,102,117,103
2025-02-25 18:34:29.237,169.0,-1636.0,273.0,-243.0,-51.0,191.0,133,88,98,116,100
2025-02-25 18:34:29.241,167.0,-1617.0,297.0,-222.0,-49.0,199.0,132,88,101,115,100
2025-02-25 18:34:29.250,132.0,-1540.0,308.0,-199.0,-46.0,203.0,136,91,102,117,104
2025-02-25 18:34:29.253,49.0,-1499.0,331.0,-174.0,-44.0,213.0,136,92,106,118,103
2025-02-25 18:34:29.259,-31.0,-1350.0,290.0,-153.0,-40.0,227.0,137,91,105,117,104
2025-02-25 18:34:29.265,-21.0,-1167.0,294.0,-138.0,-34.0,237.0,137,93,105,115,104
2025-02-25 18:34:29.270,-60.0,-1061.0,316.0,-133.0,-25.0,248.0,137,92,106,116,105
2025-02-25 18:34:29.274,-172.0,-874.0,343.0,-125.0,-21.0,257.0,135,89,104,113,101
2025-02-25 18:34:29.283,-190.0,-739.0,353.0,-114.0,-12.0,262.0,135,88,102,113,99
2025-02-25 18:34:29.286,-242.0,-654.0,305.0,-107.0,-6.0,263.0,132,88,103,113,99
2025-02-25 18:34:29.291,-309.0,-465.0,275.0,-104.0,3.0,265.0,140,93,110,119,105
2025-02-25 18:34:29.298,-352.0,-292.0,253.0,-108.0,4.0,262.0,141,91,109,123,105
2025-02-25 18:34:29.303,-424.0,-122.0,235.0,-110.0,4.0,254.0,136,90,108,119,103
2025-02-25 18:34:29.307,-452.0,0.0,182.0,-109.0,5.0,242.0,143,90,106,117,104
2025-02-25 18:34:29.312,-486.0,90.0,164.0,-109.0,6.0,234.0,140,94,108,120,104
2025-02-25 18:34:29.319,-583.0,128.0,153.0,-111.0,5.0,216.0,138,92,107,119,105
2025-02-25 18:34:29.323,-627.0,210.0,123.0,-112.0,3.0,196.0,139,90,106,120,104
2025-02-25 18:34:29.328,-662.0,214.0,71.0,-115.0,1.0,176.0,138,92,106,121,105
2025-02-25 18:34:29.332,-699.0,229.0,31.0,-112.0,2.0,167.0,140,93,110,121,106
2025-02-25 18:34:29.340,-715.0,221.0,13.0,-102.0,7.0,148.0,141,93,106,121,105
2025-02-25 18:34:29.344,-726.0,169.0,3.0,-101.0,13.0,134.0,141,93,107,121,106
2025-02-25 18:34:29.348,-774.0,76.0,2.0,-92.0,17.0,122.0,143,93,107,123,109
2025-02-25 18:34:29.352,-745.0,66.0,-21.0,-83.0,26.0,119.0,145,97,111,126,109
2025-02-25 18:34:29.360,-782.0,47.0,-39.0,-75.0,33.0,111.0,142,93,107,124,108
2025-02-25 18:34:29.364,-811.0,35.0,-50.0,-62.0,33.0,105.0,142,92,105,120,105
2025-02-25 18:34:29.368,-815.0,69.0,-121.0,-53.0,42.0,103.0,140,91,105,122,105
2025-02-25 18:34:29.373,-850.0,108.0,-113.0,-43.0,43.0,100.0,146,97,108,125,109
2025-02-25 18:34:29.381,-918.0,98.0,-200.0,-37.0,51.0,107.0,145,94,108,126,110
2025-02-25 18:34:29.385,-926.0,248.0,-172.0,-39.0,48.0,109.0,142,88,106,123,106
2025-02-25 18:34:29.389,-954.0,333.0,-165.0,-40.0,43.0,109.0,141,91,103,122,106
2025-02-25 18:34:29.397,-924.0,338.0,-206.0,-40.0,43.0,109.0,142,90,101,121,104
2025-02-25 18:34:29.401,-973.0,421.0,-186.0,-32.0,48.0,109.0,146,92,105,125,110
2025-02-25 18:34:29.405,-991.0,491.0,-209.0,-28.0,42.0,105.0,146,95,104,124,110
2025-02-25 18:34:29.413,-1008.0,588.0,-190.0,-24.0,40.0,100.0,144,92,102,123,108
2025-02-25 18:34:29.417,-1030.0,680.0,-203.0,-22.0,38.0,99.0,143,89,105,123,104
2025-02-25 18:34:29.428,-1069.0,714.0,-203.0,-16.0,28.0,97.0,145,89,101,122,106
2025-02-25 18:34:29.430,-1109.0,866.0,-267.0,-9.0,22.0,85.0,149,97,105,125,112
2025-02-25 18:34:29.434,-1202.0,964.0,-343.0,1.0,19.0,68.0,149,96,105,126,112
2025-02-25 18:34:29.438,-1226.0,1132.0,-359.0,13.0,15.0,31.0,148,90,105,123,107
2025-02-25 18:34:29.442,-1324.0,1230.0,-400.0,41.0,-2.0,7.0,158,100,111,133,116
2025-02-25 18:34:29.450,-1308.0,1364.0,-401.0,65.0,-14.0,-60.0,166,110,116,139,125
2025-02-25 18:34:29.454,-1368.0,1562.0,-448.0,92.0,-17.0,-129.0,157,98,106,129,114
2025-02-25 18:34:29.459,-1345.0,1548.0,-407.0,123.0,-11.0,-195.0,158,99,107,130,115
2025-02-25 18:34:29.467,-1231.0,1541.0,-293.0,136.0,-12.0,-253.0,158,98,106,129,112
2025-02-25 18:34:29.471,-1164.0,1504.0,-182.0,152.0,-26.0,-299.0,159,95,103,127,112
2025-02-25 18:34:29.476,-1027.0,1426.0,-100.0,164.0,-43.0,-342.0,158,91,103,124,109
2025-02-25 18:34:29.483,-946.0,1372.0,-85.0,156.0,-50.0,-386.0,158,89,102,124,108
2025-02-25 18:34:29.488,-881.0,1221.0,-10.0,142.0,-60.0,-427.0,160,90,99,121,108
2025-02-25 18:34:29.492,-675.0,1126.0,41.0,130.0,-68.0,-447.0,157,89,100,121,107
2025-02-25 18:34:29.500,-476.0,902.0,41.0,121.0,-80.0,-485.0,161,93,102,125,109
2025-02-25 18:34:29.504,-245.0,723.0,43.0,116.0,-93.0,-519.0,163,91,101,125,110
2025-02-25 18:34:29.508,46.0,525.0,42.0,114.0,-118.0,-546.0,166,93,104,125,110
2025-02-25 18:34:29.516,173.0,399.0,43.0,107.0,-134.0,-566.0,162,85,97,119,106
2025-02-25 18:34:29.520,401.0,291.0,113.0,90.0,-173.0,-575.0,166,88,100,126,107
2025-02-25 18:34:29.524,722.0,-18.0,169.0,80.0,-203.0,-578.0,165,88,99,121,108
2025-02-25 18:34:29.532,1083.0,-537.0,234.0,72.0,-235.0,-579.0,169,88,101,123,107
2025-02-25 18:34:29.536,1363.0,-989.0,288.0,58.0,-263.0,-590.0,160,85,98,119,103
2025-02-25 18:34:29.541,1578.0,-1912.0,192.0,63.0,-271.0,-563.0,164,84,96,115,104
2025-02-25 18:34:29.548,2152.0,-2435.0,445.0,33.0,-264.0,-540.0,165,84,96,115,102
2025-02-25 18:34:29.553,2303.0,-3567.0,781.0,39.0,-217.0,-472.0,169,86,103,118,107
2025-02-25 18:34:29.557,2705.0,-4475.0,894.0,113.0,-148.0,-363.0,170,85,102,115,105
2025-02-25 18:34:29.565,3001.0,-5464.0,1188.0,234.0,-106.0,-225.0,167,83,100,110,102
2025-02-25 18:34:29.569,3317.0,-5839.0,1450.0,333.0,-36.0,-119.0,172,87,103,110,106
2025-02-25 18:34:29.573,3177.0,-5600.0,1410.0,356.0,91.0,-14.0,169,81,101,107,102
2025-02-25 18:34:29.582,2968.0,-4829.0,1239.0,346.0,161.0,67.0,170,81,100,105,100
2025-02-25 18:34:29.586,2665.0,-4105.0,931.0,309.0,170.0,118.0,167,81,99,102,99
2025-02-25 18:34:29.590,2267.0,-3154.0,669.0,207.0,198.0,138.0,169,81,99,104,100
2025-02-25 18:34:29.598,1767.0,-2792.0,226.0,116.0,194.0,168.0,170,80,100,106,100
2025-02-25 18:34:29.602,1197.0,-2321.0,16.0,52.0,145.0,189.0,171,84,99,107,100
2025-02-25 18:34:29.607,709.0,-2026.0,-312.0,25.0,94.0,207.0,170,83,95,105,98
2025-02-25 18:34:29.616,676.0,-1766.0,-192.0,-52.0,81.0,218.0,169,81,93,105,96
2025-02-25 18:34:29.619,595.0,-1664.0,36.0,-138.0,59.0,220.0,168,79,90,104,93
2025-02-25 18:34:29.622,503.0,-1513.0,-43.0,-180.0,21.0,219.0,170,84,93,107,97
2025-02-25 18:34:29.626,545.0,-1787.0,79.0,-192.0,-25.0,216.0,170,85,97,110,100
2025-02-25 18:34:29.634,597.0,-1757.0,198.0,-194.0,-28.0,220.0,169,82,90,105,94
2025-02-25 18:34:29.638,581.0,-1716.0,341.0,-188.0,9.0,229.0,168,81,87,106,94
2025-02-25 18:34:29.643,548.0,-1884.0,392.0,-172.0,9.0,232.0,180,95,104,118,107
2025-02-25 18:34:29.650,468.0,-1588.0,501.0,-159.0,-30.0,244.0,184,97,105,123,111
2025-02-25 18:34:29.655,349.0,-1370.0,387.0,-130.0,-41.0,253.0,180,95,107,119,107
2025-02-25 18:34:29.659,319.0,-1213.0,394.0,-111.0,-41.0,260.0,178,91,103,115,101
2025-02-25 18:34:29.667,218.0,-1015.0,443.0,-102.0,-51.0,264.0,177,91,102,115,104
2025-02-25 18:34:29.672,89.0,-866.0,416.0,-93.0,-70.0,264.0,177,91,107,117,105
2025-02-25 18:34:29.676,-16.0,-826.0,372.0,-97.0,-65.0,268.0,181,94,107,117,106
2025-02-25 18:34:29.680,-193.0,-654.0,395.0,-98.0,-53.0,270.0,181,96,107,120,107
2025-02-25 18:34:29.687,-305.0,-473.0,328.0,-90.0,-46.0,265.0,181,94,107,115,105
2025-02-25 18:34:29.692,-321.0,-324.0,423.0,-87.0,-46.0,255.0,179,91,106,119,105
2025-02-25 18:34:29.696,-355.0,-149.0,392.0,-86.0,-21.0,247.0,181,91,105,117,102
2025-02-25 18:34:29.704,-380.0,7.0,503.0,-89.0,3.0,242.0,180,93,108,118,105
2025-02-25 18:34:29.708,-423.0,172.0,491.0,-82.0,17.0,229.0,179,100,113,122,110
2025-02-25 18:34:29.712,-538.0,250.0,474.0,-83.0,22.0,214.0,181,95,107,120,107
2025-02-25 18:34:29.717,-553.0,429.0,438.0,-78.0,23.0,198.0,177,91,102,115,102
2025-02-25 18:34:29.725,-617.0,394.0,407.0,-71.0,28.0,189.0,178,91,105,116,101
2025-02-25 18:34:29.729,-688.0,439.0,372.0,-68.0,34.0,170.0,184,98,109,122,108
2025-02-25 18:34:29.733,-735.0,429.0,327.0,-68.0,33.0,154.0,180,94,105,119,105
2025-02-25 18:34:29.741,-764.0,374.0,267.0,-67.0,30.0,141.0,178,91,101,116,102
2025-02-25 18:34:29.745,-816.0,343.0,204.0,-65.0,25.0,134.0,177,91,103,115,101
2025-02-25 18:34:29.749,-864.0,293.0,183.0,-53.0,23.0,122.0,184,96,107,121,108
2025-02-25 18:34:29.754,-939.0,216.0,162.0,-47.0,25.0,110.0,182,96,106,120,107
2025-02-25 18:34:29.761,-950.0,177.0,134.0,-34.0,28.0,102.0,178,92,102,116,102
2025-02-25 18:34:29.766,-984.0,190.0,95.0,-24.0,30.0,94.0,178,91,101,116,102
2025-02-25 18:34:29.770,-1006.0,195.0,119.0,-16.0,34.0,89.0,182,97,107,121,107
2025-02-25 18:34:29.774,-1032.0,234.0,106.0,-13.0,42.0,81.0,180,95,107,121,111
2025-02-25 18:34:29.782,-1073.0,250.0,66.0,-8.0,46.0,69.0,178,92,104,118,105
2025-02-25 18:34:29.786,-1048.0,296.0,51.0,1.0,45.0,62.0,177,91,102,116,104
2025-02-25 18:34:29.790,-1052.0,346.0,61.0,12.0,47.0,46.0,183,96,106,121,108
2025-02-25 18:34:29.795,-1075.0,378.0,58.0,17.0,51.0,31.0,179,93,104,119,104
2025-02-25 18:34:29.802,-1054.0,386.0,47.0,27.0,51.0,15.0,179,91,100,115,103
2025-02-25 18:34:29.807,-1049.0,406.0,50.0,38.0,46.0,7.0,181,97,106,119,109
2025-02-25 18:34:29.811,-1042.0,449.0,55.0,40.0,41.0,-8.0,181,97,105,119,107
2025-02-25 18:34:29.815,-1047.0,466.0,12.0,46.0,41.0,-22.0,178,91,102,117,105
2025-02-25 18:34:29.823,-1042.0,461.0,-8.0,50.0,38.0,-29.0,176,89,100,115,102
2025-02-25 18:34:29.827,-1040.0,487.0,-23.0,52.0,32.0,-41.0,181,97,106,120,107
2025-02-25 18:34:29.831,-1016.0,551.0,-42.0,54.0,28.0,-55.0,180,94,104,120,108
2025-02-25 18:34:29.835,-1026.0,608.0,-33.0,55.0,27.0,-70.0,179,90,107,116,103
2025-02-25 18:34:29.844,-1028.0,667.0,-37.0,56.0,26.0,-80.0,178,91,103,117,103
2025-02-25 18:34:29.848,-1029.0,707.0,-36.0,56.0,25.0,-101.0,185,97,107,124,108
2025-02-25 18:34:29.852,-1033.0,743.0,-49.0,59.0,26.0,-125.0,182,95,109,122,109
2025-02-25 18:34:29.860,-1053.0,747.0,-62.0,59.0,23.0,-150.0,180,95,102,119,107
2025-02-25 18:34:29.864,-1041.0,746.0,-57.0,68.0,22.0,-177.0,179,93,101,117,104
2025-02-25 18:34:29.868,-1008.0,729.0,-61.0,81.0,16.0,-191.0,179,93,105,120,108
2025-02-25 18:34:29.873,-973.0,686.0,-40.0,96.0,17.0,-219.0,183,96,107,122,109
2025-02-25 18:34:29.880,-905.0,615.0,-25.0,111.0,16.0,-248.0,181,95,104,121,106
2025-02-25 18:34:29.884,-807.0,536.0,-12.0,119.0,11.0,-277.0,178,95,104,119,106
2025-02-25 18:34:29.889,-754.0,456.0,11.0,130.0,7.0,-304.0,178,91,104,118,105
2025-02-25 18:34:29.896,-631.0,421.0,8.0,130.0,-1.0,-316.0,182,96,107,120,108
2025-02-25 18:34:29.901,-504.0,354.0,10.0,125.0,-14.0,-341.0,181,95,106,121,107
2025-02-25 18:34:29.905,-377.0,242.0,-9.0,122.0,-32.0,-364.0,180,95,104,120,108
2025-02-25 18:34:29.909,-303.0,127.0,-5.0,107.0,-41.0,-382.0,179,94,104,118,106
2025-02-25 18:34:29.917,-127.0,22.0,10.0,88.0,-60.0,-390.0,177,90,103,116,104
2025-02-25 18:34:29.921,108.0,-153.0,38.0,65.0,-81.0,-402.0,184,96,107,121,109
2025-02-25 18:34:29.925,315.0,-461.0,54.0,52.0,-96.0,-415.0,181,94,105,120,108
2025-02-25 18:34:29.933,710.0,-1054.0,230.0,43.0,-97.0,-412.0,179,92,102,119,106
2025-02-25 18:34:29.937,836.0,-1612.0,383.0,45.0,-101.0,-402.0,177,89,102,121,104
2025-02-25 18:34:29.942,1207.0,-2028.0,609.0,66.0,-94.0,-391.0,176,88,100,116,103
2025-02-25 18:34:29.950,1656.0,-2862.0,754.0,104.0,-74.0,-356.0,184,98,110,123,112
2025-02-25 18:34:29.954,1928.0,-3625.0,911.0,174.0,-54.0,-301.0,182,94,105,116,108
2025-02-25 18:34:29.959,2261.0,-4254.0,1144.0,263.0,-25.0,-235.0,181,94,108,117,108
2025-02-25 18:34:29.966,2453.0,-4578.0,1259.0,309.0,28.0,-161.0,181,92,108,114,107
2025-02-25 18:34:29.971,2552.0,-4646.0,1429.0,342.0,98.0,-74.0,182,95,110,116,108
2025-02-25 18:34:29.975,2431.0,-4450.0,1373.0,331.0,120.0,11.0,178,86,105,112,104
2025-02-25 18:34:29.982,2228.0,-3955.0,1144.0,290.0,136.0,77.0,178,88,106,110,104
2025-02-25 18:34:29.987,1938.0,-3636.0,905.0,190.0,155.0,102.0,177,88,104,110,104
2025-02-25 18:34:29.991,1545.0,-2965.0,666.0,115.0,149.0,138.0,184,96,109,116,109
2025-02-25 18:34:29.999,1264.0,-2552.0,605.0,46.0,111.0,158.0,178,92,109,116,109
2025-02-25 18:34:30.003,963.0,-2136.0,404.0,14.0,73.0,173.0,182,93,110,117,109
2025-02-25 18:34:30.007,729.0,-1981.0,377.0,-53.0,66.0,187.0,183,96,108,117,110
2025-02-25 18:34:30.015,670.0,-1848.0,424.0,-138.0,61.0,199.0,184,94,105,118,109
2025-02-25 18:34:30.019,561.0,-1879.0,426.0,-187.0,53.0,205.0,184,97,110,123,113
2025-02-25 18:34:30.024,490.0,-1914.0,442.0,-205.0,40.0,209.0,186,101,112,124,113
2025-02-25 18:34:30.032,391.0,-1922.0,461.0,-193.0,37.0,211.0,190,103,117,129,118
2025-02-25 18:34:30.036,362.0,-1979.0,532.0,-197.0,35.0,217.0,189,102,113,128,116
2025-02-25 18:34:30.041,273.0,-1650.0,500.0,-188.0,36.0,223.0,187,100,111,128,114
2025-02-25 18:34:30.048,208.0,-1465.0,423.0,-150.0,22.0,224.0,186,98,113,124,112
2025-02-25 18:34:30.053,130.0,-1379.0,416.0,-123.0,12.0,229.0,187,99,110,124,113
2025-02-25 18:34:30.057,104.0,-1294.0,456.0,-98.0,0.0,231.0,191,104,122,128,121
2025-02-25 18:34:30.064,66.0,-1015.0,550.0,-97.0,-10.0,238.0,191,103,121,128,118
2025-02-25 18:34:30.068,12.0,-837.0,664.0,-111.0,-25.0,236.0,195,109,123,129,122
2025-02-25 18:34:30.073,47.0,-722.0,585.0,-125.0,-27.0,236.0,188,101,116,123,115
2025-02-25 18:34:30.077,-52.0,-621.0,600.0,-141.0,-34.0,235.0,187,101,117,123,113
2025-02-25 18:34:30.085,-118.0,-557.0,513.0,-147.0,-33.0,234.0,189,102,118,125,115
2025-02-25 18:34:30.089,-194.0,-504.0,467.0,-141.0,-30.0,233.0,194,107,126,132,119
2025-02-25 18:34:30.098,-275.0,-417.0,462.0,-141.0,-20.0,233.0,191,105,121,129,120
2025-02-25 18:34:30.102,-301.0,-271.0,423.0,-144.0,0.0,233.0,192,106,121,130,119
2025-02-25 18:34:30.106,-342.0,-237.0,453.0,-146.0,20.0,233.0,190,105,121,131,119
2025-02-25 18:34:30.114,-355.0,-190.0,456.0,-166.0,27.0,230.0,188,107,124,132,122
2025-02-25 18:34:30.118,-439.0,-112.0,353.0,-171.0,36.0,223.0,185,100,115,125,114
2025-02-25 18:34:30.123,-431.0,-71.0,381.0,-172.0,45.0,219.0,185,100,115,125,114
2025-02-25 18:34:30.130,-503.0,-60.0,467.0,-169.0,56.0,209.0,197,110,125,137,127
2025-02-25 18:34:30.135,-501.0,94.0,321.0,-137.0,57.0,194.0,190,107,120,133,121
2025-02-25 18:34:30.139,-605.0,124.0,333.0,-116.0,52.0,177.0,191,106,121,131,121
2025-02-25 18:34:30.144,-627.0,122.0,334.0,-74.0,49.0,156.0,187,101,117,129,118
2025-02-25 18:34:30.151,-646.0,104.0,367.0,-27.0,45.0,147.0,188,105,118,132,121
2025-02-25 18:34:30.155,-723.0,70.0,339.0,3.0,43.0,132.0,191,107,121,138,126
2025-02-25 18:34:30.159,-752.0,72.0,229.0,7.0,37.0,117.0,189,108,119,135,125
2025-02-25 18:34:30.164,-762.0,114.0,184.0,4.0,37.0,106.0,187,104,116,132,122
2025-02-25 18:34:30.171,-759.0,169.0,50.0,-8.0,43.0,102.0,187,105,118,134,123
2025-02-25 18:34:30.175,-795.0,202.0,60.0,-25.0,53.0,95.0,191,110,123,140,129
2025-02-25 18:34:30.180,-838.0,262.0,21.0,-19.0,59.0,87.0,188,108,121,139,129
2025-02-25 18:34:30.187,-887.0,258.0,-81.0,-18.0,54.0,75.0,186,106,120,138,126
2025-02-25 18:34:30.192,-900.0,312.0,-97.0,-29.0,53.0,72.0,187,106,118,139,127
2025-02-25 18:34:30.196,-936.0,267.0,-130.0,-47.0,49.0,63.0,190,111,124,143,134
2025-02-25 18:34:30.200,-1010.0,359.0,-147.0,-52.0,40.0,52.0,190,113,125,148,135
2025-02-25 18:34:30.208,-978.0,376.0,-99.0,-52.0,26.0,39.0,189,112,129,146,135
2025-02-25 18:34:30.212,-970.0,361.0,-138.0,-45.0,17.0,25.0,186,110,120,142,134
2025-02-25 18:34:30.217,-1004.0,377.0,-154.0,-33.0,-5.0,17.0,193,111,123,152,134
2025-02-25 18:34:30.224,-1039.0,356.0,-216.0,-22.0,-28.0,4.0,189,117,129,150,140
2025-02-25 18:34:30.228,-1051.0,371.0,-176.0,-17.0,-40.0,-8.0,197,124,136,155,146
2025-02-25 18:34:30.233,-997.0,429.0,-196.0,-11.0,-52.0,-19.0,190,118,129,151,142
2025-02-25 18:34:30.241,-914.0,504.0,-90.0,7.0,-49.0,-31.0,187,121,128,148,141
2025-02-25 18:34:30.245,-927.0,513.0,-99.0,23.0,-50.0,-44.0,187,118,128,151,141
2025-02-25 18:34:30.250,-882.0,520.0,-145.0,29.0,-48.0,-51.0,192,126,138,157,150
2025-02-25 18:34:30.257,-897.0,512.0,-151.0,36.0,-49.0,-64.0,192,125,139,155,149
2025-02-25 18:34:30.262,-966.0,552.0,-171.0,38.0,-41.0,-80.0,189,127,138,155,150
2025-02-25 18:34:30.266,-983.0,610.0,-129.0,43.0,-26.0,-96.0,187,127,136,153,149
2025-02-25 18:34:30.274,-1027.0,567.0,-228.0,54.0,-23.0,-110.0,187,129,138,153,149
2025-02-25 18:34:30.278,-1035.0,541.0,-265.0,79.0,-22.0,-121.0,186,135,139,152,149
2025-02-25 18:34:30.282,-1042.0,560.0,-240.0,95.0,-28.0,-133.0,185,135,139,151,148
2025-02-25 18:34:30.289,-1097.0,550.0,-243.0,118.0,-26.0,-155.0,194,147,152,156,158
2025-02-25 18:34:30.294,-1160.0,505.0,-272.0,134.0,-31.0,-178.0,191,146,147,156,155
2025-02-25 18:34:30.298,-1159.0,480.0,-258.0,156.0,-39.0,-201.0,190,147,147,155,155
2025-02-25 18:34:30.307,-1048.0,403.0,-293.0,175.0,-53.0,-225.0,189,152,148,153,156
2025-02-25 18:34:30.311,-1061.0,444.0,-313.0,190.0,-62.0,-256.0,190,154,149,155,156
2025-02-25 18:34:30.318,-970.0,512.0,-613.0,220.0,-88.0,-286.0,188,154,147,154,155
2025-02-25 18:34:30.323,-740.0,533.0,-553.0,232.0,-99.0,-317.0,188,152,144,152,155
2025-02-25 18:34:30.327,-620.0,514.0,-422.0,229.0,-113.0,-383.0,187,155,146,148,150
2025-02-25 18:34:30.334,-444.0,343.0,115.0,236.0,-93.0,-417.0,188,157,146,155,153
2025-02-25 18:34:30.339,-53.0,-18.0,400.0,226.0,-94.0,-428.0,185,157,144,155,154
2025-02-25 18:34:30.343,275.0,-228.0,570.0,206.0,-106.0,-455.0,191,163,151,160,158
2025-02-25 18:34:30.351,435.0,-347.0,541.0,186.0,-136.0,-470.0,192,164,154,161,160
2025-02-25 18:34:30.355,624.0,-343.0,525.0,177.0,-166.0,-482.0,191,165,153,159,159
2025-02-25 18:34:30.360,1021.0,-660.0,446.0,171.0,-185.0,-471.0,190,165,152,158,158
2025-02-25 18:34:30.367,1430.0,-1162.0,627.0,155.0,-175.0,-454.0,186,162,149,156,156
2025-02-25 18:34:30.372,1642.0,-1784.0,624.0,96.0,-178.0,-420.0,188,164,150,158,158
2025-02-25 18:34:30.380,1670.0,-2347.0,864.0,56.0,-176.0,-375.0,187,162,149,156,157
2025-02-25 18:34:30.384,1869.0,-2940.0,1195.0,30.0,-162.0,-325.0,187,163,148,156,158
2025-02-25 18:34:30.389,2176.0,-3359.0,1438.0,-28.0,-140.0,-295.0,190,169,155,162,163
2025-02-25 18:34:30.397,2371.0,-3572.0,1697.0,-75.0,-102.0,-229.0,187,167,150,157,158
2025-02-25 18:34:30.401,2291.0,-3723.0,1959.0,-92.0,-61.0,-168.0,186,163,149,155,158
2025-02-25 18:34:30.409,2068.0,-3700.0,1780.0,-122.0,-39.0,-107.0,189,167,153,158,161
2025-02-25 18:34:30.413,1920.0,-3619.0,715.0,-112.0,-68.0,-43.0,192,169,154,161,164
2025-02-25 18:34:30.417,1802.0,-3351.0,675.0,-107.0,-102.0,17.0,192,168,154,159,165
2025-02-25 18:34:30.425,1712.0,-2914.0,-300.0,-10.0,-94.0,69.0,188,169,154,160,164
2025-02-25 18:34:30.429,1460.0,-2978.0,1363.0,136.0,83.0,131.0,194,173,158,164,168
2025-02-25 18:34:30.434,1208.0,-2786.0,607.0,130.0,90.0,165.0,190,167,153,159,162
2025-02-25 18:34:30.442,961.0,-2452.0,356.0,138.0,42.0,181.0,186,166,150,158,161
2025-02-25 18:34:30.446,811.0,-2259.0,553.0,139.0,26.0,195.0,187,163,148,156,159
2025-02-25 18:34:30.450,691.0,-2175.0,403.0,20.0,26.0,203.0,185,165,150,157,159
2025-02-25 18:34:30.458,666.0,-1828.0,149.0,-52.0,47.0,215.0,189,169,153,160,162
2025-02-25 18:34:30.462,518.0,-1577.0,73.0,-43.0,58.0,220.0,189,167,152,159,163
2025-02-25 18:34:30.467,328.0,-1472.0,44.0,-39.0,63.0,219.0,185,162,151,156,160
2025-02-25 18:34:30.474,362.0,-1441.0,211.0,-44.0,57.0,220.0,184,165,149,156,160
2025-02-25 18:34:30.479,322.0,-1345.0,407.0,-48.0,54.0,221.0,180,162,148,150,158
2025-02-25 18:34:30.483,218.0,-1241.0,256.0,-52.0,24.0,218.0,185,167,152,157,161
2025-02-25 18:34:30.490,157.0,-1224.0,245.0,-45.0,-14.0,214.0,190,171,156,162,164
2025-02-25 18:34:30.495,183.0,-1098.0,556.0,-7.0,-16.0,213.0,185,168,152,158,161
2025-02-25 18:34:30.499,161.0,-919.0,464.0,14.0,-20.0,210.0,185,165,149,158,160
2025-02-25 18:34:30.503,137.0,-887.0,625.0,55.0,-12.0,210.0,181,164,147,154,156
2025-02-25 18:34:30.511,92.0,-852.0,655.0,86.0,7.0,208.0,182,163,147,154,156
2025-02-25 18:34:30.515,35.0,-752.0,590.0,76.0,3.0,204.0,184,169,153,158,162
2025-02-25 18:34:30.519,-42.0,-614.0,316.0,35.0,-28.0,198.0,185,167,150,157,161
2025-02-25 18:34:30.527,-65.0,-562.0,589.0,-32.0,-28.0,200.0,178,159,144,153,156
2025-02-25 18:34:30.531,-222.0,-538.0,614.0,-64.0,-14.0,201.0,182,164,148,154,157
2025-02-25 18:34:30.536,-259.0,-460.0,559.0,-92.0,8.0,203.0,186,166,150,157,161
2025-02-25 18:34:30.544,-306.0,-356.0,515.0,-82.0,33.0,203.0,184,166,151,157,160
2025-02-25 18:34:30.548,-370.0,-279.0,521.0,-81.0,61.0,200.0,184,170,150,157,162
2025-02-25 18:34:30.553,-432.0,-266.0,471.0,-89.0,82.0,195.0,181,163,148,154,158
2025-02-25 18:34:30.557,-447.0,-195.0,408.0,-98.0,87.0,187.0,181,164,145,153,156
2025-02-25 18:34:30.565,-534.0,-175.0,351.0,-107.0,85.0,181.0,179,163,148,153,157
2025-02-25 18:34:30.569,-634.0,-157.0,302.0,-104.0,75.0,167.0,189,171,155,162,165
2025-02-25 18:34:30.573,-693.0,-116.0,312.0,-89.0,64.0,152.0,187,168,152,159,162
2025-02-25 18:34:30.580,-692.0,-104.0,373.0,-75.0,60.0,137.0,183,166,151,159,161
2025-02-25 18:34:30.585,-734.0,-87.0,356.0,-29.0,64.0,122.0,183,165,149,155,157
2025-02-25 18:34:30.589,-735.0,-56.0,259.0,8.0,66.0,109.0,181,166,149,156,158
2025-02-25 18:34:30.597,-788.0,-52.0,245.0,24.0,69.0,103.0,183,169,151,160,161
2025-02-25 18:34:30.601,-833.0,-12.0,203.0,37.0,69.0,92.0,184,168,154,159,161
2025-02-25 18:34:30.605,-908.0,18.0,139.0,37.0,62.0,80.0,184,168,151,159,162
2025-02-25 18:34:30.609,-912.0,90.0,129.0,37.0,59.0,69.0,183,164,150,155,158
2025-02-25 18:34:30.617,-920.0,101.0,143.0,28.0,52.0,63.0,185,169,153,159,162
2025-02-25 18:34:30.621,-946.0,163.0,140.0,16.0,51.0,53.0,183,168,154,159,162
2025-02-25 18:34:30.626,-975.0,225.0,122.0,12.0,51.0,43.0,183,166,149,155,157
2025-02-25 18:34:30.630,-993.0,270.0,67.0,7.0,51.0,38.0,181,166,150,156,157
2025-02-25 18:34:30.637,-1039.0,287.0,23.0,-3.0,44.0,26.0,186,169,152,158,160
2025-02-25 18:34:30.642,-1062.0,320.0,6.0,-10.0,39.0,15.0,182,165,150,157,159
2025-02-25 18:34:30.646,-1109.0,354.0,-25.0,-9.0,38.0,3.0,180,165,148,156,158
2025-02-25 18:34:30.650,-1114.0,373.0,-49.0,-1.0,34.0,-4.0,182,166,150,157,160
2025-02-25 18:34:30.658,-1136.0,402.0,-54.0,12.0,30.0,-18.0,184,170,152,158,161
2025-02-25 18:34:30.662,-1166.0,380.0,-27.0,21.0,23.0,-34.0,183,166,152,159,160
2025-02-25 18:34:30.667,-1124.0,382.0,-20.0,34.0,18.0,-54.0,183,169,151,159,160
2025-02-25 18:34:30.671,-1130.0,331.0,8.0,55.0,5.0,-74.0,179,162,150,157,159
2025-02-25 18:34:30.679,-1121.0,297.0,27.0,68.0,-5.0,-84.0,185,167,151,158,161
2025-02-25 18:34:30.683,-1080.0,307.0,19.0,86.0,-14.0,-103.0,182,167,152,160,161
2025-02-25 18:34:30.687,-1053.0,321.0,5.0,93.0,-21.0,-121.0,188,171,156,164,164
2025-02-25 18:34:30.695,-1044.0,338.0,-25.0,103.0,-25.0,-138.0,179,166,150,157,158
2025-02-25 18:34:30.699,-1008.0,326.0,22.0,108.0,-29.0,-155.0,180,165,150,156,156
2025-02-25 18:34:30.704,-961.0,326.0,55.0,105.0,-29.0,-163.0,180,167,150,157,158
2025-02-25 18:34:30.711,-921.0,334.0,66.0,110.0,-31.0,-181.0,183,171,155,160,163
2025-02-25 18:34:30.716,-874.0,294.0,108.0,105.0,-30.0,-199.0,183,168,153,159,161
2025-02-25 18:34:30.720,-801.0,231.0,110.0,101.0,-28.0,-218.0,182,168,152,158,159
2025-02-25 18:34:30.728,-731.0,182.0,91.0,92.0,-31.0,-236.0,182,165,151,156,157
2025-02-25 18:34:30.732,-694.0,138.0,104.0,86.0,-31.0,-255.0,181,167,151,157,158
2025-02-25 18:34:30.736,-605.0,94.0,90.0,78.0,-37.0,-264.0,182,166,150,158,159
2025-02-25 18:34:30.744,-520.0,66.0,97.0,63.0,-51.0,-281.0,183,168,151,159,161
2025-02-25 18:34:30.748,-406.0,-13.0,146.0,56.0,-68.0,-296.0,184,163,154,160,159
2025-02-25 18:34:30.753,-244.0,-105.0,164.0,38.0,-78.0,-310.0,182,165,149,156,159
2025-02-25 18:34:30.760,-150.0,-222.0,166.0,17.0,-94.0,-321.0,180,164,150,156,157
2025-02-25 18:34:30.765,26.0,-297.0,248.0,10.0,-108.0,-325.0,178,162,147,155,156
2025-02-25 18:34:30.769,236.0,-512.0,298.0,4.0,-114.0,-330.0,187,170,154,162,164
2025-02-25 18:34:30.777,496.0,-895.0,311.0,8.0,-125.0,-331.0,186,167,153,159,162
2025-02-25 18:34:30.782,802.0,-1260.0,458.0,-2.0,-133.0,-328.0,182,167,153,159,159
2025-02-25 18:34:30.786,1040.0,-1654.0,594.0,-16.0,-147.0,-321.0,184,168,152,158,159
2025-02-25 18:34:30.794,1226.0,-2057.0,801.0,-30.0,-158.0,-308.0,181,166,149,157,160
2025-02-25 18:34:30.798,1365.0,-2330.0,1026.0,-71.0,-159.0,-290.0,182,165,149,155,158
2025-02-25 18:34:30.806,1688.0,-2559.0,1104.0,-122.0,-158.0,-269.0,183,163,146,156,158
2025-02-25 18:34:30.811,1967.0,-2796.0,1076.0,-163.0,-166.0,-244.0,185,166,151,160,161
2025-02-25 18:34:30.815,2207.0,-3044.0,821.0,-155.0,-167.0,-219.0,182,161,145,156,157
2025-02-25 18:34:30.822,2291.0,-3141.0,27.0,-223.0,-205.0,-169.0,182,163,148,157,158
2025-02-25 18:34:30.826,2212.0,-3244.0,763.0,-196.0,-154.0,-95.0,182,162,145,154,157
2025-02-25 18:34:30.835,1992.0,-2980.0,802.0,-37.0,-60.0,-33.0,185,162,145,157,160
2025-02-25 18:34:30.839,1868.0,-2998.0,1083.0,77.0,37.0,4.0,184,161,142,153,157
2025-02-25 18:34:30.843,1712.0,-3087.0,1012.0,106.0,64.0,81.0,186,165,148,159,163
2025-02-25 18:34:30.851,1463.0,-3008.0,598.0,93.0,54.0,146.0,191,170,151,164,165
2025-02-25 18:34:30.855,1204.0,-2702.0,261.0,67.0,45.0,198.0,187,161,145,158,161
2025-02-25 18:34:30.860,1152.0,-2502.0,239.0,-17.0,45.0,238.0,182,159,144,156,157
2025-02-25 18:34:30.867,1043.0,-2192.0,265.0,-37.0,56.0,260.0,182,158,140,154,156
2025-02-25 18:34:30.872,995.0,-2081.0,747.0,-19.0,85.0,267.0,183,159,144,155,156
2025-02-25 18:34:30.876,926.0,-1880.0,816.0,17.0,139.0,279.0,186,162,147,159,160
2025-02-25 18:34:30.884,753.0,-1738.0,742.0,-12.0,152.0,283.0,185,162,146,160,160
2025-02-25 18:34:30.888,607.0,-1508.0,311.0,-27.0,105.0,275.0,187,162,152,158,157
2025-02-25 18:34:30.893,438.0,-1335.0,184.0,-45.0,61.0,265.0,184,160,143,156,156
2025-02-25 18:34:30.897,414.0,-1158.0,517.0,-45.0,60.0,255.0,184,157,143,154,153
2025-02-25 18:34:30.905,348.0,-1042.0,601.0,-11.0,69.0,251.0,183,156,139,154,151
2025-02-25 18:34:30.909,288.0,-907.0,668.0,47.0,77.0,237.0,192,164,147,163,160
2025-02-25 18:34:30.913,209.0,-851.0,646.0,74.0,79.0,225.0,187,161,145,160,157
2025-02-25 18:34:30.921,113.0,-771.0,652.0,73.0,81.0,219.0,184,156,140,156,151
2025-02-25 18:34:30.925,22.0,-652.0,366.0,52.0,71.0,213.0,182,155,143,155,149
2025-02-25 18:34:30.929,-109.0,-605.0,253.0,3.0,46.0,212.0,189,160,146,161,153
2025-02-25 18:34:30.934,-158.0,-563.0,359.0,-35.0,53.0,212.0,189,158,143,159,151
2025-02-25 18:34:30.941,-183.0,-456.0,285.0,-46.0,62.0,213.0,186,157,142,156,148
2025-02-25 18:34:30.946,-217.0,-450.0,396.0,-68.0,73.0,217.0,184,152,140,156,145
2025-02-25 18:34:30.950,-225.0,-433.0,476.0,-74.0,95.0,220.0,185,153,139,154,143
2025-02-25 18:34:30.958,-260.0,-480.0,528.0,-80.0,114.0,222.0,184,152,140,155,145
2025-02-25 18:34:30.961,-316.0,-447.0,413.0,-117.0,126.0,224.0,186,153,144,159,147
2025-02-25 18:34:30.973,-407.0,-391.0,336.0,-146.0,120.0,224.0,187,153,146,158,146
2025-02-25 18:34:30.975,-483.0,-380.0,205.0,-155.0,111.0,220.0,189,151,143,159,145
2025-02-25 18:34:30.978,-519.0,-360.0,171.0,-156.0,106.0,213.0,185,149,145,157,143
2025-02-25 18:34:30.986,-494.0,-294.0,151.0,-160.0,100.0,203.0,184,143,140,155,141
2025-02-25 18:34:30.990,-495.0,-242.0,139.0,-144.0,97.0,192.0,184,144,139,157,142
2025-02-25 18:34:30.995,-548.0,-234.0,129.0,-130.0,86.0,181.0,184,144,137,154,138
2025-02-25 18:34:31.002,-586.0,-217.0,123.0,-112.0,80.0,176.0,183,140,139,155,138
2025-02-25 18:34:31.007,-660.0,-164.0,100.0,-82.0,69.0,165.0,188,142,137,156,139
2025-02-25 18:34:31.011,-713.0,-150.0,140.0,-70.0,64.0,155.0,187,140,139,155,137
2025-02-25 18:34:31.019,-721.0,-80.0,69.0,-65.0,60.0,146.0,185,134,136,151,133
2025-02-25 18:34:31.023,-708.0,-13.0,-9.0,-63.0,57.0,136.0,183,127,133,150,130
2025-02-25 18:34:31.027,-778.0,14.0,2.0,-82.0,53.0,134.0,181,125,130,147,128
2025-02-25 18:34:31.032,-899.0,46.0,-30.0,-100.0,47.0,126.0,189,129,135,152,131
2025-02-25 18:34:31.039,-903.0,115.0,-32.0,-99.0,47.0,119.0,186,123,132,148,127
2025-02-25 18:34:31.044,-942.0,236.0,-92.0,-101.0,43.0,108.0,183,117,128,142,125
2025-02-25 18:34:31.048,-886.0,224.0,-199.0,-124.0,41.0,102.0,186,119,131,145,125
2025-02-25 18:34:31.056,-942.0,261.0,-268.0,-132.0,36.0,98.0,183,114,126,140,119
2025-02-25 18:34:31.060,-999.0,353.0,-168.0,-120.0,27.0,89.0,186,112,129,143,123
2025-02-25 18:34:31.065,-966.0,404.0,-149.0,-105.0,22.0,73.0,187,111,129,141,121
2025-02-25 18:34:31.069,-955.0,426.0,41.0,-87.0,27.0,60.0,187,109,127,138,118
2025-02-25 18:34:31.077,-950.0,406.0,-174.0,-50.0,20.0,39.0,183,105,121,132,112
2025-02-25 18:34:31.081,-946.0,390.0,-89.0,-17.0,13.0,29.0,182,100,118,128,108
2025-02-25 18:34:31.085,-960.0,335.0,-77.0,22.0,11.0,13.0,186,106,124,131,111
2025-02-25 18:34:31.093,-994.0,344.0,-229.0,40.0,-2.0,-7.0,185,101,122,130,108
2025-02-25 18:34:31.097,-994.0,474.0,-121.0,69.0,-4.0,-23.0,182,93,118,118,102
2025-02-25 18:34:31.101,-1039.0,443.0,-121.0,96.0,1.0,-30.0,181,93,115,121,101
2025-02-25 18:34:31.106,-1102.0,427.0,-146.0,121.0,2.0,-42.0,186,96,117,123,104
2025-02-25 18:34:31.114,-1230.0,455.0,-143.0,135.0,18.0,-56.0,187,95,115,122,103
2025-02-25 18:34:31.118,-1322.0,488.0,352.0,126.0,97.0,-66.0,188,98,113,118,98
2025-02-25 18:34:31.122,-1276.0,415.0,137.0,109.0,123.0,-70.0,182,90,107,112,95
2025-02-25 18:34:31.130,-1191.0,486.0,-33.0,103.0,136.0,-76.0,181,90,105,109,92
2025-02-25 18:34:31.134,-1168.0,532.0,-51.0,91.0,132.0,-92.0,187,92,108,112,97
2025-02-25 18:34:31.138,-1252.0,548.0,-181.0,52.0,134.0,-122.0,185,91,106,113,97
2025-02-25 18:34:31.146,-1197.0,472.0,-93.0,28.0,135.0,-151.0,186,92,104,110,95
2025-02-25 18:34:31.150,-1079.0,492.0,-16.0,57.0,137.0,-170.0,184,90,101,111,96
2025-02-25 18:34:31.155,-1228.0,465.0,-40.0,102.0,134.0,-172.0,180,84,98,108,91
2025-02-25 18:34:31.159,-1155.0,440.0,-206.0,107.0,99.0,-195.0,185,90,104,113,98
2025-02-25 18:34:31.166,-945.0,633.0,-493.0,83.0,39.0,-233.0,185,91,105,114,98
2025-02-25 18:34:31.171,-736.0,837.0,-980.0,64.0,-31.0,-264.0,183,90,103,115,98
2025-02-25 18:34:31.175,-548.0,716.0,-1127.0,52.0,-52.0,-293.0,179,86,98,110,94
2025-02-25 18:34:31.183,-230.0,544.0,-1024.0,64.0,-76.0,-311.0,182,89,99,109,93
2025-02-25 18:34:31.187,-284.0,414.0,-857.0,71.0,-85.0,-370.0,186,90,109,113,98
2025-02-25 18:34:31.191,-357.0,272.0,-439.0,74.0,-116.0,-421.0,187,94,101,114,100
2025-02-25 18:34:31.199,-301.0,129.0,-216.0,74.0,-170.0,-464.0,186,90,100,112,99
2025-02-25 18:34:31.203,-246.0,-83.0,-28.0,73.0,-192.0,-482.0,183,89,98,109,95
2025-02-25 18:34:31.207,-6.0,-176.0,-87.0,69.0,-235.0,-485.0,181,81,95,109,92
2025-02-25 18:34:31.212,511.0,-278.0,-92.0,54.0,-266.0,-488.0,188,91,102,112,101
2025-02-25 18:34:31.219,910.0,-561.0,112.0,18.0,-264.0,-484.0,185,93,102,112,99
2025-02-25 18:34:31.224,1312.0,-1166.0,357.0,9.0,-232.0,-453.0,182,88,100,109,96
2025-02-25 18:34:31.228,1575.0,-2104.0,588.0,16.0,-219.0,-396.0,187,90,104,111,100
2025-02-25 18:34:31.236,2065.0,-3002.0,841.0,39.0,-190.0,-363.0,183,88,101,107,97
2025-02-25 18:34:31.240,2364.0,-3418.0,1195.0,89.0,-147.0,-287.0,187,90,104,108,99
2025-02-25 18:34:31.245,2706.0,-4032.0,1377.0,172.0,-97.0,-211.0,188,91,107,108,100
2025-02-25 18:34:31.252,2823.0,-4522.0,1454.0,255.0,-26.0,-133.0,188,95,106,109,102
2025-02-25 18:34:31.257,2945.0,-4538.0,1496.0,309.0,51.0,-46.0,187,93,108,108,99
2025-02-25 18:34:31.261,2703.0,-4348.0,1333.0,317.0,89.0,37.0,187,89,106,105,98
2025-02-25 18:34:31.269,2380.0,-3796.0,1134.0,312.0,96.0,97.0,184,89,104,105,98
2025-02-25 18:34:31.273,2123.0,-3000.0,790.0,263.0,116.0,120.0,185,92,104,107,98
2025-02-25 18:34:31.278,1712.0,-2651.0,526.0,176.0,130.0,155.0,187,93,107,108,101
2025-02-25 18:34:31.285,1224.0,-2176.0,432.0,107.0,92.0,168.0,186,93,104,108,102
2025-02-25 18:34:31.290,891.0,-1782.0,358.0,24.0,47.0,170.0,192,96,106,113,104
2025-02-25 18:34:31.294,736.0,-1521.0,347.0,-17.0,17.0,166.0,187,89,97,105,98
2025-02-25 18:34:31.301,684.0,-1314.0,475.0,-108.0,9.0,160.0,184,89,98,105,98
2025-02-25 18:34:31.306,591.0,-1556.0,530.0,-148.0,-8.0,156.0,188,90,100,109,102
2025-02-25 18:34:31.310,501.0,-1737.0,527.0,-161.0,-51.0,153.0,188,95,105,111,102
2025-02-25 18:34:31.318,401.0,-1780.0,417.0,-162.0,-54.0,156.0,185,91,99,108,100
2025-02-25 18:34:31.322,354.0,-1893.0,461.0,-149.0,-44.0,165.0,183,89,99,108,98
2025-02-25 18:34:31.327,302.0,-1823.0,466.0,-137.0,-40.0,175.0,184,90,98,104,96
2025-02-25 18:34:31.331,228.0,-1814.0,453.0,-115.0,-46.0,182.0,187,94,105,112,102
2025-02-25 18:34:31.338,152.0,-1680.0,428.0,-110.0,-52.0,196.0,185,101,105,110,99
2025-02-25 18:34:31.343,88.0,-1568.0,446.0,-103.0,-60.0,207.0,186,92,105,109,101
2025-02-25 18:34:31.347,74.0,-1317.0,456.0,-110.0,-52.0,217.0,191,96,109,112,104
2025-02-25 18:34:31.355,12.0,-1209.0,420.0,-106.0,-51.0,222.0,185,90,103,105,99
2025-02-25 18:34:31.359,-11.0,-1018.0,396.0,-105.0,-49.0,226.0,183,89,104,107,104
2025-02-25 18:34:31.364,-107.0,-935.0,337.0,-97.0,-37.0,227.0,184,93,104,107,99
2025-02-25 18:34:31.371,-190.0,-829.0,364.0,-97.0,-19.0,229.0,189,98,110,113,104
2025-02-25 18:34:31.376,-201.0,-717.0,311.0,-94.0,-23.0,227.0,188,95,108,112,102
2025-02-25 18:34:31.380,-346.0,-649.0,346.0,-92.0,-35.0,223.0,184,93,105,110,101
2025-02-25 18:34:31.388,-410.0,-560.0,241.0,-79.0,-37.0,218.0,185,91,104,108,96
2025-02-25 18:34:31.392,-447.0,-470.0,330.0,-72.0,-35.0,214.0,183,90,104,108,98
2025-02-25 18:34:31.397,-466.0,-363.0,367.0,-56.0,-31.0,206.0,186,94,108,111,103
2025-02-25 18:34:31.404,-469.0,-268.0,386.0,-40.0,-28.0,194.0,186,94,107,111,102
2025-02-25 18:34:31.408,-506.0,-186.0,366.0,-29.0,-21.0,178.0,185,94,99,110,100
2025-02-25 18:34:31.413,-501.0,-127.0,447.0,-19.0,-20.0,160.0,185,93,105,107,98
2025-02-25 18:34:31.417,-545.0,-71.0,450.0,-12.0,-9.0,152.0,183,92,103,107,98
2025-02-25 18:34:31.425,-591.0,-77.0,418.0,-8.0,4.0,140.0,188,95,106,112,102
2025-02-25 18:34:31.429,-653.0,-97.0,386.0,-8.0,14.0,132.0,191,98,109,114,105
2025-02-25 18:34:31.433,-668.0,-61.0,351.0,-6.0,19.0,124.0,184,94,103,110,99
2025-02-25 18:34:31.437,-740.0,-80.0,312.0,-8.0,36.0,121.0,184,92,105,109,98
2025-02-25 18:34:31.445,-783.0,-86.0,301.0,-13.0,46.0,114.0,188,95,107,113,102
2025-02-25 18:34:31.449,-807.0,-64.0,272.0,-16.0,51.0,107.0,191,97,111,115,106
2025-02-25 18:34:31.453,-806.0,-65.0,242.0,-17.0,49.0,100.0,184,91,101,110,100
2025-02-25 18:34:31.458,-826.0,-38.0,186.0,-21.0,49.0,96.0,183,91,101,108,98
2025-02-25 18:34:31.465,-861.0,-71.0,158.0,-22.0,49.0,90.0,188,94,104,113,101
2025-02-25 18:34:31.470,-896.0,-37.0,135.0,-24.0,49.0,85.0,189,96,105,117,106
2025-02-25 18:34:31.474,-893.0,-35.0,95.0,-25.0,47.0,80.0,184,90,99,111,100
2025-02-25 18:34:31.478,-911.0,-44.0,44.0,-27.0,37.0,76.0,188,94,104,113,103
2025-02-25 18:34:31.486,-961.0,41.0,26.0,-26.0,24.0,70.0,190,96,103,115,102
2025-02-25 18:34:31.491,-968.0,88.0,75.0,-29.0,20.0,61.0,184,94,102,112,102
2025-02-25 18:34:31.495,-962.0,119.0,79.0,-22.0,7.0,53.0,188,97,104,114,103
2025-02-25 18:34:31.499,-885.0,164.0,120.0,-18.0,-6.0,36.0,188,94,104,114,104
2025-02-25 18:34:31.507,-907.0,229.0,103.0,-16.0,-5.0,21.0,183,91,99,109,100
2025-02-25 18:34:31.511,-904.0,281.0,116.0,-14.0,-2.0,13.0,187,94,103,113,102
2025-02-25 18:34:31.515,-918.0,330.0,122.0,-14.0,4.0,1.0,188,94,104,116,105
2025-02-25 18:34:31.518,-953.0,379.0,143.0,-16.0,8.0,-9.0,185,93,102,112,102
2025-02-25 18:34:31.523,-967.0,445.0,148.0,-19.0,10.0,-21.0,185,91,99,110,100
2025-02-25 18:34:31.530,-1011.0,473.0,157.0,-24.0,15.0,-27.0,190,94,106,116,104
2025-02-25 18:34:31.535,-1032.0,524.0,145.0,-22.0,24.0,-42.0,188,95,106,115,103
2025-02-25 18:34:31.539,-1069.0,564.0,147.0,-19.0,29.0,-61.0,185,95,104,113,102
2025-02-25 18:34:31.547,-1106.0,596.0,113.0,-12.0,28.0,-81.0,184,92,102,111,101
2025-02-25 18:34:31.552,-1111.0,609.0,68.0,-2.0,24.0,-100.0,185,90,101,113,101
2025-02-25 18:34:31.555,-1143.0,600.0,23.0,12.0,22.0,-111.0,186,93,105,114,104
2025-02-25 18:34:31.561,-1165.0,583.0,23.0,29.0,23.0,-131.0,186,96,105,114,103
2025-02-25 18:34:31.568,-1179.0,569.0,14.0,39.0,17.0,-151.0,186,95,106,115,105
2025-02-25 18:34:31.573,-1159.0,558.0,14.0,59.0,13.0,-171.0,184,92,101,111,100
2025-02-25 18:34:31.576,-1125.0,575.0,38.0,73.0,10.0,-181.0,183,92,100,110,101
2025-02-25 18:34:31.584,-1054.0,546.0,36.0,86.0,11.0,-204.0,186,96,105,115,104
2025-02-25 18:34:31.588,-973.0,516.0,24.0,94.0,10.0,-228.0,186,94,105,112,102
2025-02-25 18:34:31.593,-912.0,475.0,13.0,106.0,7.0,-255.0,184,93,102,113,101
2025-02-25 18:34:31.597,-782.0,481.0,-6.0,110.0,4.0,-269.0,183,90,105,110,101
2025-02-25 18:34:31.604,-689.0,457.0,-39.0,106.0,-1.0,-295.0,186,94,105,114,104
2025-02-25 18:34:31.609,-585.0,376.0,-84.0,102.0,-15.0,-322.0,188,98,106,116,106
2025-02-25 18:34:31.613,-411.0,316.0,-38.0,80.0,-35.0,-348.0,184,93,103,112,101
2025-02-25 18:34:31.621,-329.0,182.0,-21.0,53.0,-44.0,-367.0,182,91,101,110,100
2025-02-25 18:34:31.625,-127.0,86.0,48.0,24.0,-68.0,-372.0,186,93,104,116,104
2025-02-25 18:34:31.629,166.0,-153.0,86.0,-3.0,-84.0,-381.0,189,97,107,120,109
2025-02-25 18:34:31.634,457.0,-520.0,175.0,-14.0,-92.0,-389.0,185,94,106,115,104
2025-02-25 18:34:31.642,599.0,-972.0,213.0,-25.0,-95.0,-390.0,184,91,102,112,101
2025-02-25 18:34:31.646,866.0,-1535.0,294.0,-27.0,-95.0,-382.0,183,92,101,112,102
2025-02-25 18:34:31.651,1135.0,-1836.0,357.0,-14.0,-99.0,-375.0,187,96,105,115,105
2025-02-25 18:34:31.658,1417.0,-2368.0,458.0,14.0,-98.0,-350.0,186,94,107,117,104
2025-02-25 18:34:31.663,1651.0,-2914.0,453.0,37.0,-81.0,-312.0,187,96,108,116,106
2025-02-25 18:34:31.667,1881.0,-3294.0,672.0,60.0,-59.0,-271.0,190,94,109,110,105
2025-02-25 18:34:31.675,2208.0,-3713.0,782.0,152.0,-35.0,-225.0,187,93,110,115,106
2025-02-25 18:34:31.679,2295.0,-3890.0,963.0,213.0,-5.0,-165.0,183,95,109,113,100
2025-02-25 18:34:31.683,2427.0,-3950.0,867.0,246.0,59.0,-92.0,183,90,105,111,101
2025-02-25 18:34:31.691,2346.0,-3902.0,859.0,229.0,95.0,-52.0,185,93,107,113,103
2025-02-25 18:34:31.695,2139.0,-3866.0,808.0,182.0,95.0,30.0,188,94,110,118,108
