timestamp,ax,ay,az,gx,gy,gz,flex1,flex2,flex3,flex4,flex5,emg1,emg2,emg3
2025-02-25 18:26:06.129,-516.0,-838.0,145.0,1.0,-11.0,-5.0,144,86,92,102,96
2025-02-25 18:26:06.132,-512.0,-842.0,146.0,1.0,-10.0,-4.0,143,86,93,102,96
2025-02-25 18:26:06.136,-511.0,-843.0,154.0,0.0,-10.0,-5.0,143,83,92,102,97
2025-02-25 18:26:06.139,-508.0,-846.0,154.0,0.0,-8.0,-4.0,144,87,94,103,97
2025-02-25 18:26:06.142,-505.0,-857.0,157.0,-1.0,-8.0,-3.0,143,85,91,102,97
2025-02-25 18:26:06.145,-502.0,-857.0,155.0,-1.0,-7.0,-3.0,145,87,93,104,97
2025-02-25 18:26:06.148,-505.0,-849.0,162.0,-2.0,-4.0,-3.0,144,87,94,105,99
2025-02-25 18:26:06.152,-505.0,-858.0,160.0,-2.0,-4.0,-2.0,143,85,92,101,97
2025-02-25 18:26:06.154,-509.0,-860.0,168.0,-2.0,-2.0,-2.0,143,87,94,105,98
2025-02-25 18:26:06.158,-521.0,-871.0,174.0,-2.0,-1.0,-2.0,143,87,94,103,99
2025-02-25 18:26:06.160,-502.0,-863.0,158.0,-2.0,1.0,0.0,144,86,93,103,98
2025-02-25 18:26:06.163,-496.0,-863.0,185.0,-4.0,2.0,0.0,145,87,94,104,99
2025-02-25 18:26:06.165,-521.0,-856.0,168.0,-2.0,3.0,1.0,144,87,95,104,99
2025-02-25 18:26:06.168,-509.0,-844.0,136.0,-1.0,2.0,3.0,142,86,92,98,93
2025-02-25 18:26:06.171,-522.0,-854.0,158.0,-1.0,3.0,3.0,144,87,95,107,100
2025-02-25 18:26:06.174,-521.0,-845.0,153.0,0.0,3.0,5.0,144,88,93,104,99
2025-02-25 18:26:06.176,-522.0,-845.0,141.0,1.0,2.0,5.0,143,85,92,102,98
2025-02-25 18:26:06.178,-521.0,-844.0,129.0,1.0,2.0,5.0,145,87,94,105,100
2025-02-25 18:26:06.181,-524.0,-830.0,125.0,1.0,0.0,6.0,144,91,95,105,101
2025-02-25 18:26:06.184,-532.0,-821.0,129.0,2.0,-1.0,6.0,142,87,93,103,99
2025-02-25 18:26:06.187,-537.0,-821.0,132.0,2.0,-2.0,6.0,145,87,94,105,102
2025-02-25 18:26:06.189,-535.0,-816.0,131.0,2.0,-3.0,5.0,144,88,94,105,99
2025-02-25 18:26:06.192,-535.0,-814.0,133.0,2.0,-4.0,4.0,144,88,94,104,100
2025-02-25 18:26:06.194,-525.0,-814.0,136.0,2.0,-5.0,4.0,143,88,95,106,102
2025-02-25 18:26:06.196,-529.0,-810.0,134.0,2.0,-6.0,2.0,144,88,94,107,102
2025-02-25 18:26:06.198,-531.0,-803.0,144.0,2.0,-6.0,1.0,142,87,92,105,100
2025-02-25 18:26:06.200,-537.0,-802.0,144.0,3.0,-7.0,0.0,146,89,97,107,103
2025-02-25 18:26:06.203,-545.0,-811.0,150.0,3.0,-7.0,-2.0,143,87,94,106,102
2025-02-25 18:26:06.205,-543.0,-805.0,154.0,2.0,-8.0,-4.0,143,87,94,105,100
2025-02-25 18:26:06.207,-542.0,-809.0,159.0,1.0,-8.0,-5.0,147,89,96,106,102
2025-02-25 18:26:06.210,-537.0,-818.0,168.0,0.0,-8.0,-7.0,145,90,96,108,104
2025-02-25 18:26:06.212,-534.0,-823.0,161.0,-1.0,-9.0,-8.0,143,88,94,105,101
2025-02-25 18:26:06.215,-531.0,-826.0,163.0,-2.0,-9.0,-8.0,144,89,95,101,103
2025-02-25 18:26:06.217,-523.0,-835.0,170.0,-3.0,-8.0,-8.0,144,89,93,105,103
2025-02-25 18:26:06.219,-519.0,-833.0,177.0,-5.0,-8.0,-8.0,145,90,96,107,103
2025-02-25 18:26:06.221,-518.0,-834.0,174.0,-5.0,-8.0,-7.0,144,90,96,106,103
2025-02-25 18:26:06.224,-526.0,-813.0,185.0,-5.0,-7.0,-7.0,145,90,95,107,102
2025-02-25 18:26:06.226,-508.0,-829.0,177.0,-5.0,-6.0,-6.0,143,87,93,106,103
2025-02-25 18:26:06.228,-530.0,-853.0,180.0,-4.0,-5.0,-6.0,146,90,98,109,106
2025-02-25 18:26:06.231,-520.0,-833.0,173.0,-3.0,-6.0,-5.0,145,90,96,107,104
2025-02-25 18:26:06.233,-520.0,-849.0,168.0,-4.0,-5.0,-5.0,143,89,94,104,103
2025-02-25 18:26:06.235,-529.0,-842.0,165.0,-4.0,-4.0,-4.0,144,90,97,108,104
2025-02-25 18:26:06.238,-526.0,-837.0,161.0,-3.0,-4.0,-4.0,144,91,95,108,106
2025-02-25 18:26:06.240,-527.0,-839.0,163.0,-3.0,-4.0,-3.0,143,88,96,108,103
2025-02-25 18:26:06.242,-527.0,-841.0,156.0,-3.0,-3.0,-3.0,144,92,97,108,107
2025-02-25 18:26:06.245,-528.0,-842.0,160.0,-3.0,-3.0,-3.0,144,89,95,107,105
2025-02-25 18:26:06.247,-532.0,-838.0,168.0,-4.0,-3.0,-3.0,144,89,96,107,104
2025-02-25 18:26:06.249,-530.0,-837.0,157.0,-3.0,-3.0,-4.0,145,90,97,109,106
2025-02-25 18:26:06.252,-526.0,-842.0,161.0,-4.0,-2.0,-5.0,144,91,97,109,107
2025-02-25 18:26:06.254,-526.0,-841.0,158.0,-3.0,-2.0,-6.0,144,90,95,107,105
2025-02-25 18:26:06.256,-530.0,-838.0,160.0,-4.0,-2.0,-6.0,144,90,96,108,107
2025-02-25 18:26:06.259,-525.0,-845.0,166.0,-5.0,-2.0,-7.0,146,92,97,108,106
2025-02-25 18:26:06.261,-533.0,-844.0,167.0,-6.0,-2.0,-8.0,140,89,95,110,105
2025-02-25 18:26:06.264,-539.0,-842.0,164.0,-5.0,-2.0,-8.0,145,92,97,110,107
2025-02-25 18:26:06.266,-530.0,-832.0,165.0,-5.0,-2.0,-9.0,145,91,97,109,106
2025-02-25 18:26:06.269,-521.0,-837.0,163.0,-5.0,-2.0,-10.0,144,91,96,107,106
2025-02-25 18:26:06.271,-523.0,-834.0,164.0,-4.0,-3.0,-10.0,143,90,97,105,107
2025-02-25 18:26:06.273,-504.0,-829.0,164.0,-4.0,-3.0,-11.0,145,92,97,109,108
2025-02-25 18:26:06.275,-507.0,-833.0,163.0,-4.0,-3.0,-12.0,141,90,96,110,107
2025-02-25 18:26:06.277,-501.0,-834.0,160.0,-4.0,-3.0,-13.0,144,92,98,110,109
2025-02-25 18:26:06.280,-496.0,-834.0,163.0,-4.0,-3.0,-13.0,144,93,98,109,108
2025-02-25 18:26:06.282,-485.0,-834.0,164.0,-4.0,-2.0,-14.0,143,90,96,107,107
2025-02-25 18:26:06.284,-478.0,-835.0,166.0,-4.0,-2.0,-16.0,145,93,98,110,109
2025-02-25 18:26:06.287,-475.0,-833.0,167.0,-5.0,-1.0,-16.0,145,93,98,111,109
2025-02-25 18:26:06.289,-470.0,-834.0,164.0,-5.0,0.0,-16.0,144,92,96,109,108
2025-02-25 18:26:06.296,-479.0,-832.0,153.0,-5.0,1.0,-16.0,143,92,97,109,109
2025-02-25 18:26:06.300,-481.0,-831.0,154.0,-5.0,2.0,-16.0,145,93,99,110,110
2025-02-25 18:26:06.305,-484.0,-837.0,158.0,-6.0,2.0,-17.0,143,92,96,109,109
2025-02-25 18:26:06.309,-489.0,-846.0,160.0,-7.0,3.0,-17.0,143,91,95,108,108
2025-02-25 18:26:06.316,-489.0,-852.0,157.0,-6.0,3.0,-18.0,144,91,99,110,110
2025-02-25 18:26:06.320,-479.0,-867.0,163.0,-7.0,3.0,-19.0,143,92,97,109,109
2025-02-25 18:26:06.325,-485.0,-865.0,145.0,-8.0,3.0,-19.0,144,92,98,110,109
2025-02-25 18:26:06.329,-486.0,-875.0,161.0,-7.0,4.0,-19.0,144,92,98,110,109
2025-02-25 18:26:06.337,-485.0,-882.0,152.0,-6.0,3.0,-20.0,144,92,98,111,109
2025-02-25 18:26:06.341,-489.0,-899.0,144.0,-6.0,4.0,-20.0,143,91,97,110,109
2025-02-25 18:26:06.345,-491.0,-905.0,144.0,-5.0,3.0,-19.0,146,93,98,111,110
2025-02-25 18:26:06.350,-493.0,-911.0,139.0,-6.0,3.0,-19.0,145,92,99,111,109
2025-02-25 18:26:06.357,-497.0,-912.0,132.0,-6.0,2.0,-19.0,144,91,97,109,109
2025-02-25 18:26:06.361,-497.0,-913.0,127.0,-6.0,1.0,-19.0,143,91,97,110,109
2025-02-25 18:26:06.366,-496.0,-913.0,125.0,-8.0,0.0,-19.0,146,93,99,111,110
2025-02-25 18:26:06.370,-492.0,-914.0,125.0,-8.0,0.0,-18.0,144,93,95,110,109
2025-02-25 18:26:06.374,-493.0,-909.0,116.0,-7.0,-1.0,-17.0,144,91,99,112,109
2025-02-25 18:26:06.382,-495.0,-909.0,113.0,-8.0,-1.0,-18.0,149,92,98,112,108
2025-02-25 18:26:06.387,-489.0,-906.0,104.0,-7.0,-2.0,-17.0,146,94,99,112,111
2025-02-25 18:26:06.391,-485.0,-907.0,107.0,-6.0,-2.0,-17.0,145,94,100,111,111
2025-02-25 18:26:06.398,-479.0,-910.0,105.0,-6.0,-2.0,-16.0,143,92,99,111,110
2025-02-25 18:26:06.403,-472.0,-906.0,109.0,-5.0,-2.0,-16.0,145,93,99,111,109
2025-02-25 18:26:06.407,-476.0,-905.0,104.0,-6.0,-3.0,-16.0,144,94,99,112,112
2025-02-25 18:26:06.411,-466.0,-897.0,116.0,-6.0,-4.0,-15.0,146,93,98,110,108
2025-02-25 18:26:06.419,-458.0,-903.0,115.0,-6.0,-3.0,-15.0,144,92,97,109,110
2025-02-25 18:26:06.423,-450.0,-901.0,102.0,-7.0,-3.0,-14.0,147,95,99,113,112
2025-02-25 18:26:06.428,-453.0,-900.0,111.0,-7.0,-2.0,-13.0,144,94,99,113,111
2025-02-25 18:26:06.432,-444.0,-902.0,108.0,-7.0,-2.0,-13.0,145,93,98,112,111
2025-02-25 18:26:06.439,-441.0,-900.0,112.0,-6.0,-2.0,-13.0,143,91,98,111,109
2025-02-25 18:26:06.444,-446.0,-901.0,108.0,-6.0,-2.0,-13.0,146,96,100,111,113
2025-02-25 18:26:06.448,-447.0,-903.0,104.0,-5.0,-2.0,-12.0,144,92,99,112,112
2025-02-25 18:26:06.452,-441.0,-902.0,99.0,-5.0,-2.0,-12.0,145,93,99,112,110
2025-02-25 18:26:06.460,-450.0,-892.0,91.0,-4.0,-2.0,-12.0,144,91,96,110,106
2025-02-25 18:26:06.464,-449.0,-896.0,98.0,-5.0,-3.0,-12.0,147,95,100,112,112
2025-02-25 18:26:06.468,-444.0,-891.0,99.0,-5.0,-4.0,-12.0,145,94,100,112,112
2025-02-25 18:26:06.473,-444.0,-884.0,93.0,-4.0,-6.0,-12.0,143,91,97,110,110
2025-02-25 18:26:06.480,-445.0,-878.0,90.0,-4.0,-6.0,-12.0,145,92,98,110,110
2025-02-25 18:26:06.484,-451.0,-882.0,92.0,-3.0,-7.0,-12.0,147,94,98,112,112
2025-02-25 18:26:06.488,-447.0,-880.0,92.0,-4.0,-7.0,-12.0,144,93,99,111,111
2025-02-25 18:26:06.493,-443.0,-884.0,95.0,-3.0,-8.0,-12.0,144,92,99,111,110
2025-02-25 18:26:06.500,-447.0,-885.0,101.0,-3.0,-10.0,-13.0,145,93,99,112,111
2025-02-25 18:26:06.505,-446.0,-886.0,104.0,-3.0,-11.0,-14.0,145,94,99,112,112
2025-02-25 18:26:06.509,-448.0,-885.0,97.0,-3.0,-12.0,-15.0,143,93,98,111,111
2025-02-25 18:26:06.513,-446.0,-892.0,102.0,-4.0,-12.0,-16.0,143,91,98,111,110
2025-02-25 18:26:06.521,-446.0,-886.0,103.0,-5.0,-13.0,-17.0,143,91,97,109,110
2025-02-25 18:26:06.525,-452.0,-889.0,100.0,-5.0,-15.0,-17.0,144,93,100,112,113
2025-02-25 18:26:06.530,-448.0,-892.0,112.0,-6.0,-15.0,-19.0,145,94,102,113,113
2025-02-25 18:26:06.537,-443.0,-901.0,118.0,-6.0,-16.0,-20.0,143,92,98,112,111
2025-02-25 18:26:06.542,-442.0,-911.0,114.0,-6.0,-16.0,-20.0,143,92,96,111,111
2025-02-25 18:26:06.546,-444.0,-907.0,130.0,-5.0,-16.0,-20.0,145,94,99,114,113
2025-02-25 18:26:06.550,-434.0,-931.0,134.0,-5.0,-15.0,-19.0,146,92,98,112,111
2025-02-25 18:26:06.558,-428.0,-933.0,130.0,-4.0,-15.0,-17.0,145,93,98,111,110
2025-02-25 18:26:06.562,-432.0,-929.0,141.0,-3.0,-14.0,-15.0,144,90,98,110,110
2025-02-25 18:26:06.566,-430.0,-917.0,134.0,-3.0,-12.0,-14.0,143,92,97,112,112
2025-02-25 18:26:06.571,-422.0,-919.0,132.0,-2.0,-12.0,-12.0,144,93,99,113,112
2025-02-25 18:26:06.578,-428.0,-922.0,134.0,-2.0,-11.0,-11.0,144,93,100,112,113
2025-02-25 18:26:06.583,-429.0,-918.0,137.0,-1.0,-11.0,-10.0,146,95,100,112,113
2025-02-25 18:26:06.587,-431.0,-914.0,139.0,0.0,-10.0,-9.0,143,92,98,110,112
2025-02-25 18:26:06.592,-435.0,-915.0,141.0,1.0,-9.0,-8.0,146,94,99,112,113
2025-02-25 18:26:06.600,-427.0,-914.0,141.0,2.0,-7.0,-7.0,145,94,100,112,113
2025-02-25 18:26:06.604,-424.0,-916.0,142.0,3.0,-7.0,-6.0,146,95,98,111,113
2025-02-25 18:26:06.608,-421.0,-923.0,145.0,2.0,-6.0,-5.0,143,92,98,111,112
2025-02-25 18:26:06.612,-430.0,-914.0,143.0,3.0,-5.0,-4.0,145,94,99,112,112
2025-02-25 18:26:06.619,-429.0,-914.0,146.0,3.0,-4.0,-3.0,144,93,99,111,112
2025-02-25 18:26:06.624,-436.0,-917.0,151.0,3.0,-3.0,-3.0,144,93,99,112,113
2025-02-25 18:26:06.628,-429.0,-909.0,152.0,4.0,-3.0,-3.0,145,95,99,112,113
2025-02-25 18:26:06.632,-436.0,-913.0,153.0,5.0,-2.0,-3.0,145,94,99,112,113
2025-02-25 18:26:06.637,-433.0,-910.0,144.0,5.0,-2.0,-3.0,143,94,99,111,113
2025-02-25 18:26:06.644,-433.0,-911.0,136.0,3.0,-2.0,-3.0,146,96,101,113,115
2025-02-25 18:26:06.648,-429.0,-908.0,156.0,3.0,-1.0,-2.0,145,94,98,112,114
2025-02-25 18:26:06.653,-434.0,-908.0,160.0,5.0,0.0,-2.0,143,93,99,111,113
2025-02-25 18:26:06.657,-419.0,-913.0,156.0,6.0,1.0,-2.0,145,94,99,112,113
2025-02-25 18:26:06.661,-417.0,-922.0,156.0,7.0,2.0,-1.0,147,95,100,114,115
2025-02-25 18:26:06.669,-420.0,-926.0,160.0,8.0,2.0,1.0,144,93,98,111,113
2025-02-25 18:26:06.673,-425.0,-925.0,164.0,8.0,1.0,1.0,146,96,99,113,115
2025-02-25 18:26:06.677,-436.0,-913.0,160.0,8.0,1.0,1.0,144,94,99,113,115
2025-02-25 18:26:06.681,-430.0,-917.0,166.0,8.0,1.0,1.0,145,94,101,113,115
2025-02-25 18:26:06.686,-428.0,-911.0,164.0,8.0,0.0,1.0,145,95,100,112,115
2025-02-25 18:26:06.693,-424.0,-902.0,166.0,8.0,0.0,1.0,144,94,99,111,114
2025-02-25 18:26:06.698,-425.0,-895.0,165.0,8.0,0.0,2.0,144,93,99,110,113
2025-02-25 18:26:06.702,-422.0,-894.0,164.0,6.0,1.0,2.0,145,96,100,113,114
2025-02-25 18:26:06.706,-425.0,-900.0,169.0,6.0,2.0,2.0,144,94,100,112,114
2025-02-25 18:26:06.711,-420.0,-905.0,171.0,5.0,2.0,2.0,143,93,99,111,114
2025-02-25 18:26:06.715,-424.0,-913.0,177.0,5.0,2.0,2.0,144,94,100,112,114
2025-02-25 18:26:06.722,-422.0,-921.0,178.0,5.0,1.0,2.0,142,94,99,111,114
2025-02-25 18:26:06.727,-431.0,-920.0,179.0,4.0,2.0,2.0,143,93,99,111,115
2025-02-25 18:26:06.731,-423.0,-920.0,180.0,2.0,2.0,2.0,149,94,99,109,116
2025-02-25 18:26:06.735,-427.0,-929.0,176.0,2.0,2.0,2.0,144,94,99,112,115
2025-02-25 18:26:06.739,-424.0,-925.0,181.0,2.0,2.0,1.0,144,92,98,111,116
2025-02-25 18:26:06.747,-427.0,-921.0,180.0,3.0,1.0,2.0,145,95,102,114,116
2025-02-25 18:26:06.751,-419.0,-904.0,175.0,3.0,1.0,1.0,146,94,99,109,115
2025-02-25 18:26:06.755,-399.0,-917.0,175.0,1.0,1.0,1.0,143,93,99,111,115
2025-02-25 18:26:06.760,-423.0,-928.0,190.0,0.0,1.0,1.0,145,95,100,112,116
2025-02-25 18:26:06.764,-407.0,-916.0,187.0,1.0,1.0,0.0,146,95,100,113,117
2025-02-25 18:26:06.768,-405.0,-931.0,187.0,0.0,1.0,0.0,145,94,98,110,114
2025-02-25 18:26:06.776,-421.0,-927.0,179.0,0.0,2.0,0.0,145,94,99,113,116
2025-02-25 18:26:06.780,-426.0,-917.0,171.0,0.0,3.0,-1.0,144,94,100,112,116
2025-02-25 18:26:06.784,-427.0,-925.0,182.0,-2.0,3.0,-1.0,144,93,99,110,115
2025-02-25 18:26:06.789,-431.0,-927.0,176.0,-3.0,3.0,-1.0,145,95,100,112,117
2025-02-25 18:26:06.793,-432.0,-929.0,171.0,-4.0,3.0,-1.0,144,94,99,111,114
2025-02-25 18:26:06.800,-436.0,-932.0,176.0,-5.0,4.0,-1.0,143,92,98,109,114
2025-02-25 18:26:06.804,-437.0,-939.0,168.0,-5.0,4.0,-1.0,145,95,101,112,118
2025-02-25 18:26:06.809,-434.0,-942.0,158.0,-5.0,3.0,0.0,144,93,98,111,114
2025-02-25 18:26:06.813,-433.0,-940.0,153.0,-5.0,4.0,0.0,144,93,98,110,114
2025-02-25 18:26:06.821,-438.0,-945.0,143.0,-4.0,3.0,2.0,145,94,100,112,117
2025-02-25 18:26:06.825,-435.0,-947.0,143.0,-4.0,3.0,3.0,145,94,100,111,116
2025-02-25 18:26:06.829,-434.0,-946.0,144.0,-3.0,4.0,4.0,143,93,98,110,115
2025-02-25 18:26:06.834,-423.0,-937.0,146.0,-2.0,4.0,5.0,145,95,100,112,116
2025-02-25 18:26:06.838,-421.0,-939.0,146.0,-2.0,4.0,5.0,144,95,99,109,115
2025-02-25 18:26:06.845,-420.0,-932.0,149.0,-1.0,4.0,6.0,140,93,99,111,116
2025-02-25 18:26:06.850,-417.0,-916.0,147.0,-1.0,5.0,6.0,146,96,101,112,116
2025-02-25 18:26:06.854,-421.0,-909.0,139.0,-1.0,5.0,6.0,144,93,99,112,116
2025-02-25 18:26:06.858,-415.0,-907.0,144.0,1.0,5.0,6.0,143,93,99,111,114
2025-02-25 18:26:06.862,-416.0,-896.0,138.0,1.0,6.0,5.0,146,97,102,112,116
2025-02-25 18:26:06.866,-418.0,-891.0,134.0,1.0,6.0,3.0,144,94,101,111,115
2025-02-25 18:26:06.874,-423.0,-885.0,124.0,2.0,6.0,2.0,142,93,98,111,113
2025-02-25 18:26:06.878,-427.0,-881.0,118.0,2.0,5.0,1.0,146,95,100,112,115
2025-02-25 18:26:06.882,-431.0,-879.0,118.0,1.0,5.0,0.0,145,93,100,111,115
2025-02-25 18:26:06.887,-432.0,-881.0,127.0,1.0,6.0,0.0,144,92,98,109,113
2025-02-25 18:26:06.891,-439.0,-881.0,125.0,1.0,5.0,0.0,145,94,99,111,114
2025-02-25 18:26:06.899,-438.0,-884.0,132.0,2.0,5.0,-1.0,145,93,97,110,113
2025-02-25 18:26:06.902,-436.0,-881.0,115.0,2.0,4.0,-1.0,145,95,100,110,113
2025-02-25 18:26:06.906,-442.0,-886.0,116.0,1.0,3.0,-1.0,145,96,100,110,112
2025-02-25 18:26:06.911,-439.0,-902.0,120.0,1.0,2.0,-1.0,144,93,100,110,111
2025-02-25 18:26:06.916,-454.0,-875.0,126.0,1.0,1.0,-1.0,144,94,98,109,111
2025-02-25 18:26:06.923,-438.0,-887.0,116.0,2.0,1.0,-1.0,146,96,103,113,113
2025-02-25 18:26:06.927,-444.0,-902.0,120.0,2.0,2.0,0.0,144,93,99,108,109
2025-02-25 18:26:06.931,-434.0,-890.0,117.0,3.0,2.0,0.0,144,92,100,108,110
2025-02-25 18:26:06.936,-435.0,-904.0,125.0,2.0,1.0,0.0,145,94,99,110,109
2025-02-25 18:26:06.940,-444.0,-909.0,128.0,3.0,1.0,0.0,144,93,101,110,110
2025-02-25 18:26:06.948,-436.0,-910.0,125.0,3.0,1.0,0.0,146,93,100,109,108
2025-02-25 18:26:06.952,-454.0,-917.0,135.0,2.0,1.0,0.0,144,94,101,110,109
2025-02-25 18:26:06.956,-454.0,-916.0,130.0,2.0,1.0,0.0,142,93,100,109,106
2025-02-25 18:26:06.960,-456.0,-917.0,139.0,0.0,1.0,0.0,144,94,101,110,109
2025-02-25 18:26:06.964,-461.0,-914.0,145.0,0.0,1.0,1.0,144,93,100,111,109
2025-02-25 18:26:06.972,-456.0,-919.0,141.0,-1.0,1.0,1.0,143,93,100,108,106
2025-02-25 18:26:06.976,-455.0,-910.0,143.0,-1.0,1.0,1.0,145,94,100,110,108
2025-02-25 18:26:06.980,-450.0,-912.0,146.0,-1.0,1.0,2.0,145,93,100,111,108
2025-02-25 18:26:06.985,-452.0,-913.0,141.0,-2.0,0.0,2.0,144,92,98,110,107
2025-02-25 18:26:06.989,-447.0,-909.0,150.0,-1.0,0.0,2.0,144,93,100,110,107
2025-02-25 18:26:06.997,-442.0,-904.0,145.0,-2.0,0.0,2.0,145,94,100,109,107
2025-02-25 18:26:07.001,-443.0,-901.0,139.0,-2.0,0.0,2.0,142,89,98,108,108
2025-02-25 18:26:07.005,-445.0,-901.0,141.0,-2.0,0.0,2.0,146,95,101,111,109
2025-02-25 18:26:07.009,-438.0,-902.0,141.0,-2.0,-1.0,2.0,145,92,100,110,107
2025-02-25 18:26:07.014,-439.0,-904.0,135.0,-2.0,-1.0,2.0,141,92,98,107,106
2025-02-25 18:26:07.021,-436.0,-901.0,135.0,-2.0,-1.0,2.0,145,94,101,111,107
2025-02-25 18:26:07.026,-429.0,-900.0,138.0,-2.0,0.0,3.0,146,93,100,110,107
2025-02-25 18:26:07.030,-432.0,-892.0,138.0,-1.0,0.0,3.0,143,93,99,109,105
2025-02-25 18:26:07.034,-433.0,-893.0,137.0,0.0,0.0,3.0,145,95,100,111,107
2025-02-25 18:26:07.038,-430.0,-886.0,137.0,0.0,0.0,2.0,144,94,101,110,105
2025-02-25 18:26:07.046,-431.0,-888.0,136.0,0.0,0.0,3.0,144,93,98,108,107
2025-02-25 18:26:07.050,-432.0,-887.0,135.0,0.0,-1.0,2.0,145,94,100,110,107
2025-02-25 18:26:07.054,-433.0,-888.0,132.0,1.0,-1.0,2.0,144,93,98,109,105
2025-02-25 18:26:07.058,-431.0,-888.0,136.0,1.0,-1.0,2.0,144,93,99,109,105
2025-02-25 18:26:07.063,-429.0,-889.0,141.0,1.0,0.0,1.0,145,94,102,111,107
2025-02-25 18:26:07.071,-427.0,-898.0,145.0,2.0,0.0,1.0,143,94,99,109,105
2025-02-25 18:26:07.074,-431.0,-896.0,152.0,3.0,1.0,1.0,144,94,99,109,105
2025-02-25 18:26:07.079,-431.0,-903.0,154.0,3.0,2.0,1.0,145,94,99,111,106
2025-02-25 18:26:07.083,-436.0,-911.0,152.0,4.0,3.0,0.0,144,93,100,111,106
2025-02-25 18:26:07.087,-440.0,-905.0,145.0,5.0,3.0,1.0,142,92,97,109,105
2025-02-25 18:26:07.095,-442.0,-904.0,145.0,5.0,4.0,1.0,145,95,101,111,107
2025-02-25 18:26:07.099,-446.0,-909.0,146.0,6.0,4.0,1.0,145,94,98,109,106
2025-02-25 18:26:07.103,-448.0,-910.0,138.0,6.0,5.0,1.0,144,93,99,110,107
2025-02-25 18:26:07.107,-453.0,-907.0,141.0,7.0,5.0,2.0,145,94,100,110,107
2025-02-25 18:26:07.112,-456.0,-902.0,136.0,7.0,4.0,2.0,144,93,100,109,106
2025-02-25 18:26:07.116,-455.0,-904.0,140.0,8.0,4.0,2.0,144,92,99,109,105
2025-02-25 18:26:07.124,-448.0,-898.0,140.0,8.0,3.0,2.0,147,95,101,114,109
2025-02-25 18:26:07.128,-450.0,-892.0,135.0,8.0,2.0,2.0,143,93,99,109,106
2025-02-25 18:26:07.132,-445.0,-893.0,138.0,8.0,2.0,1.0,144,93,98,109,106
2025-02-25 18:26:07.137,-447.0,-884.0,139.0,9.0,1.0,1.0,145,95,101,111,108
2025-02-25 18:26:07.141,-446.0,-889.0,143.0,9.0,1.0,1.0,145,95,101,112,108
2025-02-25 18:26:07.148,-440.0,-882.0,143.0,9.0,0.0,1.0,144,93,100,111,107
2025-02-25 18:26:07.153,-438.0,-880.0,145.0,9.0,-1.0,0.0,145,94,101,111,108
2025-02-25 18:26:07.157,-441.0,-874.0,143.0,8.0,-1.0,-1.0,144,93,99,109,107
2025-02-25 18:26:07.161,-433.0,-878.0,142.0,7.0,-2.0,-1.0,146,95,102,110,109
2025-02-25 18:26:07.165,-434.0,-879.0,151.0,7.0,-1.0,-1.0,144,95,101,111,108
2025-02-25 18:26:07.172,-434.0,-886.0,156.0,7.0,-1.0,-1.0,144,92,102,110,107
2025-02-25 18:26:07.177,-428.0,-890.0,155.0,6.0,-1.0,-1.0,144,93,99,109,106
2025-02-25 18:26:07.181,-430.0,-899.0,160.0,6.0,-1.0,-2.0,145,95,102,111,108
2025-02-25 18:26:07.186,-432.0,-899.0,149.0,5.0,-1.0,-2.0,144,94,100,112,107
2025-02-25 18:26:07.194,-438.0,-901.0,147.0,5.0,-1.0,-2.0,144,94,99,110,107
2025-02-25 18:26:07.198,-443.0,-913.0,143.0,4.0,-1.0,-2.0,144,94,101,111,109
2025-02-25 18:26:07.202,-445.0,-913.0,146.0,4.0,-1.0,-1.0,143,95,99,110,107
2025-02-25 18:26:07.206,-446.0,-914.0,148.0,4.0,0.0,-1.0,144,92,100,110,108
2025-02-25 18:26:07.211,-445.0,-914.0,151.0,3.0,-1.0,-1.0,144,95,101,111,109
2025-02-25 18:26:07.218,-446.0,-915.0,155.0,4.0,-2.0,0.0,143,94,100,111,108
2025-02-25 18:26:07.222,-441.0,-916.0,155.0,3.0,-1.0,0.0,144,92,100,111,108
2025-02-25 18:26:07.226,-441.0,-915.0,162.0,3.0,-1.0,1.0,146,96,101,110,109
2025-02-25 18:26:07.231,-444.0,-911.0,165.0,3.0,-1.0,1.0,144,97,101,111,109
2025-02-25 18:26:07.235,-436.0,-906.0,166.0,2.0,-2.0,1.0,143,95,99,109,107
2025-02-25 18:26:07.242,-450.0,-900.0,165.0,2.0,-1.0,1.0,146,96,100,108,109
2025-02-25 18:26:07.247,-450.0,-893.0,166.0,2.0,-1.0,1.0,146,93,99,111,108
2025-02-25 18:26:07.251,-453.0,-887.0,173.0,1.0,-1.0,1.0,144,92,99,109,107
2025-02-25 18:26:07.255,-450.0,-889.0,178.0,1.0,-1.0,0.0,145,95,100,112,109
2025-02-25 18:26:07.263,-451.0,-889.0,169.0,0.0,-2.0,0.0,145,95,100,112,109
2025-02-25 18:26:07.267,-452.0,-884.0,155.0,1.0,-2.0,0.0,146,94,99,108,108
2025-02-25 18:26:07.271,-457.0,-884.0,158.0,1.0,-2.0,0.0,144,94,100,110,109
2025-02-25 18:26:07.275,-451.0,-882.0,162.0,2.0,-1.0,0.0,145,94,100,111,109
2025-02-25 18:26:07.280,-457.0,-888.0,163.0,2.0,-2.0,0.0,144,95,99,111,109
2025-02-25 18:26:07.287,-456.0,-889.0,169.0,4.0,-2.0,0.0,144,95,101,113,111
2025-02-25 18:26:07.291,-459.0,-889.0,163.0,4.0,-3.0,1.0,145,95,99,110,109
2025-02-25 18:26:07.295,-459.0,-892.0,168.0,5.0,-3.0,1.0,143,94,100,111,109
2025-02-25 18:26:07.300,-466.0,-888.0,162.0,6.0,-3.0,1.0,145,97,100,111,111
2025-02-25 18:26:07.304,-457.0,-885.0,164.0,7.0,-3.0,1.0,145,96,102,112,110
2025-02-25 18:26:07.312,-456.0,-885.0,168.0,7.0,-3.0,1.0,144,96,100,109,109
2025-02-25 18:26:07.316,-465.0,-871.0,173.0,7.0,-2.0,1.0,144,95,100,112,110
2025-02-25 18:26:07.321,-457.0,-869.0,176.0,7.0,-2.0,2.0,145,95,100,110,112
2025-02-25 18:26:07.325,-465.0,-862.0,182.0,7.0,-2.0,1.0,144,94,102,112,111
2025-02-25 18:26:07.329,-459.0,-855.0,179.0,6.0,-2.0,0.0,143,92,103,110,107
2025-02-25 18:26:07.337,-465.0,-856.0,177.0,6.0,-3.0,0.0,146,96,101,111,111
2025-02-25 18:26:07.341,-466.0,-848.0,173.0,5.0,-3.0,-1.0,144,94,99,111,112
2025-02-25 18:26:07.345,-467.0,-848.0,173.0,4.0,-3.0,-2.0,144,94,100,113,111
2025-02-25 18:26:07.350,-468.0,-844.0,180.0,3.0,-4.0,-3.0,141,96,102,109,112
2025-02-25 18:26:07.357,-477.0,-857.0,176.0,2.0,-4.0,-3.0,144,95,102,111,111
2025-02-25 18:26:07.361,-467.0,-845.0,176.0,2.0,-5.0,-4.0,144,94,99,106,111
2025-02-25 18:26:07.366,-468.0,-854.0,172.0,1.0,-5.0,-4.0,146,97,103,111,112
2025-02-25 18:26:07.370,-459.0,-869.0,176.0,0.0,-5.0,-5.0,145,95,103,112,113
2025-02-25 18:26:07.374,-454.0,-863.0,180.0,1.0,-5.0,-6.0,145,96,100,110,112
2025-02-25 18:26:07.382,-460.0,-867.0,191.0,0.0,-5.0,-6.0,143,94,99,114,112
2025-02-25 18:26:07.386,-461.0,-873.0,183.0,1.0,-5.0,-6.0,146,98,103,112,114
2025-02-25 18:26:07.390,-450.0,-885.0,176.0,1.0,-5.0,-6.0,145,94,101,110,114
2025-02-25 18:26:07.394,-444.0,-894.0,189.0,0.0,-4.0,-6.0,144,96,100,111,111
2025-02-25 18:26:07.402,-442.0,-889.0,180.0,0.0,-4.0,-6.0,145,98,97,113,113
2025-02-25 18:26:07.406,-435.0,-888.0,190.0,0.0,-4.0,-5.0,145,98,99,112,113
2025-02-25 18:26:07.411,-435.0,-898.0,196.0,0.0,-3.0,-5.0,143,95,100,113,112
2025-02-25 18:26:07.415,-430.0,-898.0,207.0,0.0,-2.0,-5.0,143,97,101,110,112
2025-02-25 18:26:07.423,-430.0,-898.0,206.0,-2.0,-1.0,-5.0,144,97,97,111,113
2025-02-25 18:26:07.427,-420.0,-906.0,201.0,-2.0,-1.0,-4.0,146,97,101,112,114
2025-02-25 18:26:07.432,-425.0,-902.0,203.0,-3.0,0.0,-4.0,144,98,101,112,112
2025-02-25 18:26:07.436,-439.0,-899.0,205.0,-4.0,2.0,-4.0,146,99,103,112,113
2025-02-25 18:26:07.443,-449.0,-903.0,199.0,-3.0,2.0,-4.0,144,99,103,112,114
2025-02-25 18:26:07.448,-453.0,-921.0,188.0,-2.0,2.0,-3.0,144,99,102,110,113
2025-02-25 18:26:07.452,-457.0,-927.0,194.0,-2.0,2.0,-2.0,143,97,101,111,111
2025-02-25 18:26:07.456,-464.0,-938.0,184.0,-1.0,2.0,-1.0,145,100,102,111,114
2025-02-25 18:26:07.460,-460.0,-929.0,172.0,0.0,1.0,0.0,145,99,103,112,114
2025-02-25 18:26:07.468,-465.0,-929.0,168.0,2.0,0.0,2.0,143,99,102,112,112
2025-02-25 18:26:07.472,-466.0,-933.0,162.0,4.0,0.0,2.0,145,101,103,113,115
2025-02-25 18:26:07.476,-454.0,-933.0,157.0,4.0,-1.0,3.0,144,100,103,112,113
2025-02-25 18:26:07.481,-453.0,-922.0,168.0,2.0,-2.0,3.0,144,100,103,110,113
2025-02-25 18:26:07.488,-443.0,-922.0,164.0,3.0,-3.0,3.0,145,103,104,113,115
2025-02-25 18:26:07.492,-433.0,-910.0,173.0,1.0,-4.0,2.0,145,102,104,112,115
2025-02-25 18:26:07.496,-442.0,-903.0,168.0,0.0,-4.0,3.0,144,102,103,112,115
2025-02-25 18:26:07.500,-436.0,-896.0,182.0,-2.0,-4.0,2.0,144,103,104,111,114
2025-02-25 18:26:07.508,-429.0,-898.0,174.0,-2.0,-5.0,2.0,145,105,104,113,116
2025-02-25 18:26:07.512,-431.0,-896.0,173.0,-4.0,-5.0,1.0,144,105,103,113,121
2025-02-25 18:26:07.517,-425.0,-888.0,180.0,-6.0,-6.0,1.0,144,103,104,113,108
2025-02-25 18:26:07.521,-431.0,-880.0,182.0,-8.0,-6.0,1.0,146,105,104,115,117
2025-02-25 18:26:07.529,-429.0,-877.0,185.0,-11.0,-6.0,0.0,147,108,106,116,116
2025-02-25 18:26:07.533,-426.0,-871.0,170.0,-11.0,-7.0,-1.0,144,106,105,113,116
2025-02-25 18:26:07.537,-429.0,-873.0,182.0,-12.0,-7.0,-1.0,144,106,103,113,115
2025-02-25 18:26:07.542,-434.0,-869.0,178.0,-12.0,-7.0,-2.0,143,105,105,113,115
2025-02-25 18:26:07.549,-430.0,-880.0,177.0,-11.0,-6.0,-2.0,144,106,104,113,114
2025-02-25 18:26:07.554,-438.0,-880.0,177.0,-9.0,-6.0,-2.0,145,107,104,114,116
2025-02-25 18:26:07.558,-439.0,-885.0,180.0,-9.0,-5.0,-2.0,146,108,104,114,117
2025-02-25 18:26:07.566,-437.0,-895.0,180.0,-8.0,-4.0,-2.0,144,108,106,114,117
2025-02-25 18:26:07.570,-444.0,-896.0,181.0,-6.0,-4.0,-2.0,144,106,105,114,114
2025-02-25 18:26:07.574,-447.0,-903.0,175.0,-2.0,-3.0,-3.0,146,110,107,115,116
2025-02-25 18:26:07.578,-490.0,-899.0,137.0,7.0,-1.0,-2.0,145,106,107,115,118
2025-02-25 18:26:07.587,-442.0,-941.0,116.0,35.0,-12.0,-1.0,142,108,105,114,117
2025-02-25 18:26:07.591,-481.0,-942.0,216.0,42.0,-9.0,-2.0,144,109,104,113,116
2025-02-25 18:26:07.595,-450.0,-923.0,189.0,52.0,4.0,-2.0,144,106,105,114,116
2025-02-25 18:26:07.600,-415.0,-927.0,215.0,44.0,9.0,0.0,147,109,106,111,117
2025-02-25 18:26:07.607,-421.0,-886.0,232.0,33.0,11.0,0.0,145,110,108,115,118
2025-02-25 18:26:07.612,-404.0,-911.0,172.0,27.0,11.0,-1.0,143,104,106,114,113
2025-02-25 18:26:07.616,-448.0,-936.0,248.0,22.0,8.0,-3.0,145,109,107,115,117
2025-02-25 18:26:07.623,-396.0,-877.0,226.0,10.0,15.0,-3.0,147,115,108,118,118
2025-02-25 18:26:07.628,-411.0,-853.0,206.0,15.0,21.0,-2.0,146,112,107,114,116
2025-02-25 18:26:07.632,-403.0,-900.0,171.0,21.0,19.0,-2.0,145,108,105,114,116
2025-02-25 18:26:07.636,-452.0,-909.0,139.0,16.0,16.0,-2.0,142,109,106,112,116
2025-02-25 18:26:07.643,-451.0,-889.0,182.0,15.0,13.0,-1.0,145,111,108,117,117
2025-02-25 18:26:07.648,-463.0,-947.0,210.0,19.0,6.0,0.0,145,110,108,116,117
2025-02-25 18:26:07.652,-472.0,-906.0,206.0,13.0,3.0,0.0,145,111,106,114,116
2025-02-25 18:26:07.656,-457.0,-892.0,198.0,-5.0,2.0,0.0,145,110,105,114,116
2025-02-25 18:26:07.664,-456.0,-851.0,191.0,-18.0,-1.0,-1.0,144,113,109,116,118
2025-02-25 18:26:07.668,-465.0,-862.0,176.0,-28.0,-2.0,-1.0,144,111,106,115,116
2025-02-25 18:26:07.672,-458.0,-887.0,104.0,-39.0,-17.0,-6.0,145,110,107,116,117
2025-02-25 18:26:07.680,-433.0,-828.0,108.0,-27.0,0.0,-3.0,143,110,105,112,116
2025-02-25 18:26:07.685,-510.0,-847.0,158.0,-19.0,-9.0,-3.0,147,113,110,116,116
2025-02-25 18:26:07.689,-455.0,-861.0,195.0,-25.0,-11.0,-8.0,145,113,108,115,116
2025-02-25 18:26:07.694,-497.0,-882.0,86.0,-14.0,-23.0,-4.0,145,112,107,115,120
2025-02-25 18:26:07.701,-450.0,-863.0,333.0,-10.0,-13.0,-8.0,144,111,107,116,118
2025-02-25 18:26:07.706,-392.0,-866.0,152.0,-17.0,-16.0,-5.0,144,110,107,115,117
2025-02-25 18:26:07.710,-445.0,-921.0,150.0,5.0,-11.0,-4.0,144,115,107,115,115
2025-02-25 18:26:07.717,-431.0,-868.0,259.0,3.0,-4.0,-5.0,147,112,108,115,118
2025-02-25 18:26:07.722,-434.0,-911.0,175.0,-7.0,-4.0,-4.0,146,111,110,119,120
2025-02-25 18:26:07.726,-447.0,-894.0,216.0,-4.0,-7.0,-4.0,146,113,107,116,116
2025-02-25 18:26:07.730,-430.0,-868.0,188.0,-6.0,-3.0,-3.0,142,111,107,115,116
2025-02-25 18:26:07.738,-435.0,-912.0,234.0,-8.0,3.0,-3.0,145,111,109,117,119
2025-02-25 18:26:07.742,-464.0,-808.0,170.0,1.0,7.0,-4.0,146,113,109,117,118
2025-02-25 18:26:07.747,-448.0,-826.0,218.0,5.0,10.0,-5.0,145,111,108,115,118
2025-02-25 18:26:07.751,-455.0,-817.0,182.0,1.0,9.0,-7.0,144,112,106,114,115
2025-02-25 18:26:07.758,-457.0,-829.0,165.0,-9.0,5.0,-8.0,146,112,106,116,117
2025-02-25 18:26:07.763,-461.0,-826.0,178.0,-9.0,0.0,-9.0,145,112,108,116,118
2025-02-25 18:26:07.767,-478.0,-823.0,191.0,-9.0,-2.0,-11.0,144,111,106,114,117
2025-02-25 18:26:07.774,-454.0,-821.0,184.0,-3.0,-4.0,-11.0,145,112,106,116,116
2025-02-25 18:26:07.779,-459.0,-840.0,185.0,0.0,-2.0,-12.0,145,112,108,116,118
2025-02-25 18:26:07.783,-449.0,-859.0,178.0,4.0,-3.0,-12.0,146,114,110,118,117
2025-02-25 18:26:07.788,-441.0,-881.0,206.0,3.0,-4.0,-12.0,145,113,108,116,116
2025-02-25 18:26:07.796,-440.0,-908.0,203.0,3.0,-4.0,-12.0,145,110,107,116,116
2025-02-25 18:26:07.800,-432.0,-919.0,206.0,5.0,-2.0,-11.0,144,111,107,115,117
2025-02-25 18:26:07.804,-426.0,-923.0,212.0,2.0,-1.0,-11.0,145,113,108,117,116
2025-02-25 18:26:07.808,-417.0,-929.0,222.0,-1.0,1.0,-10.0,145,112,108,116,117
2025-02-25 18:26:07.816,-422.0,-947.0,196.0,-3.0,2.0,-9.0,144,111,107,114,116
2025-02-25 18:26:07.820,-413.0,-945.0,203.0,-6.0,2.0,-9.0,143,109,108,115,115
2025-02-25 18:26:07.825,-408.0,-950.0,206.0,-6.0,3.0,-8.0,145,113,110,116,116
2025-02-25 18:26:07.829,-420.0,-951.0,204.0,-5.0,5.0,-7.0,145,111,107,115,117
2025-02-25 18:26:07.836,-416.0,-956.0,201.0,-4.0,6.0,-7.0,145,112,108,117,115
2025-02-25 18:26:07.840,-408.0,-959.0,188.0,-5.0,7.0,-7.0,145,111,103,116,116
2025-02-25 18:26:07.845,-411.0,-967.0,184.0,-6.0,6.0,-6.0,146,112,110,116,115
2025-02-25 18:26:07.849,-413.0,-977.0,191.0,-6.0,4.0,-5.0,145,111,108,115,112
2025-02-25 18:26:07.857,-416.0,-983.0,196.0,-8.0,5.0,-4.0,144,110,107,115,114
2025-02-25 18:26:07.861,-408.0,-1000.0,182.0,-9.0,4.0,-4.0,146,112,107,116,115
2025-02-25 18:26:07.866,-409.0,-993.0,186.0,-8.0,3.0,-2.0,148,115,111,120,117
2025-02-25 18:26:07.873,-415.0,-1009.0,175.0,-9.0,0.0,-1.0,148,113,110,119,116
2025-02-25 18:26:07.877,-411.0,-1013.0,185.0,-10.0,0.0,0.0,146,112,110,117,115
2025-02-25 18:26:07.881,-406.0,-1015.0,181.0,-9.0,0.0,2.0,147,112,110,118,117
2025-02-25 18:26:07.885,-406.0,-1010.0,172.0,-7.0,1.0,4.0,149,114,112,119,118
2025-02-25 18:26:07.894,-400.0,-1008.0,181.0,-7.0,1.0,6.0,149,115,111,119,117
2025-02-25 18:26:07.898,-401.0,-1003.0,183.0,-8.0,1.0,7.0,146,112,113,119,117
2025-02-25 18:26:07.902,-405.0,-997.0,172.0,-11.0,1.0,7.0,146,112,108,119,115
2025-02-25 18:26:07.907,-434.0,-994.0,147.0,-18.0,0.0,9.0,147,113,110,117,115
2025-02-25 18:26:07.914,-417.0,-995.0,150.0,-19.0,-4.0,9.0,147,112,109,117,114
2025-02-25 18:26:07.919,-434.0,-982.0,200.0,-13.0,-2.0,10.0,148,113,110,120,117
2025-02-25 18:26:07.923,-430.0,-941.0,151.0,-7.0,2.0,11.0,153,116,114,127,119
2025-02-25 18:26:07.927,-419.0,-959.0,115.0,-5.0,2.0,13.0,153,119,115,124,121
2025-02-25 18:26:07.935,-436.0,-963.0,169.0,-10.0,1.0,12.0,152,117,117,125,118
2025-02-25 18:26:07.939,-425.0,-915.0,154.0,-12.0,-1.0,14.0,153,120,117,125,122
2025-02-25 18:26:07.944,-405.0,-897.0,187.0,-11.0,-2.0,14.0,155,120,118,125,122
2025-02-25 18:26:07.951,-417.0,-895.0,145.0,0.0,2.0,14.0,154,122,118,124,121
2025-02-25 18:26:07.955,-413.0,-895.0,133.0,10.0,1.0,15.0,157,124,120,128,124
2025-02-25 18:26:07.959,-404.0,-895.0,187.0,4.0,3.0,15.0,158,126,120,127,121
2025-02-25 18:26:07.963,-417.0,-872.0,104.0,2.0,0.0,15.0,155,121,117,127,121
2025-02-25 18:26:07.971,-434.0,-894.0,205.0,3.0,-2.0,14.0,159,124,123,131,125
2025-02-25 18:26:07.976,-422.0,-875.0,177.0,9.0,1.0,14.0,158,123,120,130,128
2025-02-25 18:26:07.980,-392.0,-813.0,181.0,5.0,13.0,14.0,158,123,118,128,123
2025-02-25 18:26:07.984,-420.0,-862.0,173.0,12.0,15.0,13.0,157,122,120,128,125
2025-02-25 18:26:07.992,-430.0,-867.0,170.0,8.0,4.0,12.0,159,129,123,130,120
2025-02-25 18:26:07.996,-428.0,-873.0,227.0,4.0,4.0,11.0,160,125,121,129,126
2025-02-25 18:26:08.000,-479.0,-840.0,118.0,5.0,5.0,11.0,157,118,118,128,122
2025-02-25 18:26:08.004,-466.0,-850.0,174.0,7.0,4.0,9.0,155,121,118,127,123
2025-02-25 18:26:08.009,-453.0,-838.0,162.0,17.0,4.0,9.0,160,121,122,129,125
2025-02-25 18:26:08.016,-491.0,-854.0,140.0,19.0,-1.0,8.0,158,124,121,130,128
2025-02-25 18:26:08.021,-459.0,-799.0,142.0,13.0,-3.0,7.0,157,124,117,127,123
2025-02-25 18:26:08.027,-465.0,-807.0,118.0,15.0,-4.0,7.0,160,126,121,131,127
2025-02-25 18:26:08.032,-480.0,-788.0,184.0,18.0,0.0,5.0,159,126,121,130,127
2025-02-25 18:26:08.037,-452.0,-772.0,138.0,18.0,-2.0,3.0,156,123,120,128,123
2025-02-25 18:26:08.042,-467.0,-780.0,167.0,19.0,-4.0,1.0,156,122,119,126,125
2025-02-25 18:26:08.048,-460.0,-788.0,166.0,14.0,-9.0,0.0,159,125,123,131,128
2025-02-25 18:26:08.052,-456.0,-796.0,181.0,3.0,-8.0,-3.0,160,124,121,129,127
2025-02-25 18:26:08.057,-455.0,-785.0,146.0,0.0,-4.0,-3.0,156,122,118,127,125
2025-02-25 18:26:08.062,-468.0,-826.0,190.0,-3.0,-3.0,-3.0,160,126,123,130,128
2025-02-25 18:26:08.066,-453.0,-835.0,205.0,0.0,-3.0,-3.0,158,125,121,129,127
2025-02-25 18:26:08.073,-461.0,-871.0,164.0,-1.0,-2.0,-4.0,159,124,121,132,128
2025-02-25 18:26:08.078,-443.0,-867.0,205.0,-6.0,3.0,-4.0,158,122,119,128,125
2025-02-25 18:26:08.082,-457.0,-889.0,178.0,-7.0,3.0,-4.0,158,127,122,129,126
2025-02-25 18:26:08.087,-467.0,-898.0,205.0,-8.0,2.0,-4.0,160,123,121,131,128
2025-02-25 18:26:08.094,-456.0,-888.0,191.0,-6.0,0.0,-3.0,158,126,122,130,128
2025-02-25 18:26:08.098,-480.0,-897.0,172.0,-7.0,0.0,-4.0,158,122,120,127,126
2025-02-25 18:26:08.103,-460.0,-877.0,173.0,-8.0,1.0,-3.0,159,124,120,131,129
2025-02-25 18:26:08.107,-481.0,-889.0,177.0,-5.0,-4.0,-3.0,159,126,123,131,127
2025-02-25 18:26:08.115,-475.0,-896.0,182.0,-4.0,-7.0,-3.0,159,125,121,130,126
2025-02-25 18:26:08.119,-463.0,-887.0,200.0,-2.0,-8.0,-4.0,158,125,120,129,127
2025-02-25 18:26:08.123,-481.0,-886.0,153.0,-1.0,-9.0,-3.0,158,123,121,129,125
2025-02-25 18:26:08.128,-459.0,-878.0,194.0,-2.0,-7.0,-4.0,157,124,120,130,126
2025-02-25 18:26:08.136,-472.0,-884.0,152.0,0.0,-9.0,-4.0,159,126,121,130,128
2025-02-25 18:26:08.140,-465.0,-875.0,202.0,-4.0,-10.0,-4.0,158,125,122,127,127
2025-02-25 18:26:08.144,-460.0,-875.0,206.0,-5.0,-8.0,-4.0,158,125,119,129,127
2025-02-25 18:26:08.152,-467.0,-883.0,191.0,-6.0,-8.0,-4.0,160,123,120,131,124
2025-02-25 18:26:08.156,-445.0,-877.0,178.0,-4.0,-9.0,-4.0,158,126,123,131,130
2025-02-25 18:26:08.160,-460.0,-890.0,178.0,-2.0,-10.0,-4.0,161,128,123,130,128
2025-02-25 18:26:08.164,-451.0,-888.0,196.0,-3.0,-7.0,-4.0,158,124,121,131,128
2025-02-25 18:26:08.173,-440.0,-859.0,184.0,3.0,-5.0,-4.0,156,122,119,127,126
2025-02-25 18:26:08.177,-450.0,-874.0,214.0,6.0,-2.0,-4.0,159,125,123,131,128
2025-02-25 18:26:08.181,-449.0,-878.0,166.0,2.0,-2.0,-4.0,163,128,124,133,130
2025-02-25 18:26:08.185,-448.0,-881.0,209.0,-1.0,-1.0,-4.0,159,123,121,131,127
2025-02-25 18:26:08.193,-455.0,-882.0,187.0,1.0,-2.0,-4.0,157,123,119,128,126
2025-02-25 18:26:08.197,-454.0,-870.0,205.0,0.0,-3.0,-5.0,161,124,121,131,129
2025-02-25 18:26:08.202,-454.0,-862.0,178.0,7.0,0.0,-5.0,163,129,124,132,131
2025-02-25 18:26:08.206,-470.0,-878.0,165.0,10.0,-1.0,-6.0,158,122,120,129,126
2025-02-25 18:26:08.214,-473.0,-866.0,189.0,11.0,-1.0,-7.0,156,122,121,128,125
2025-02-25 18:26:08.218,-460.0,-870.0,186.0,10.0,-1.0,-7.0,159,123,121,130,129
2025-02-25 18:26:08.222,-461.0,-862.0,187.0,13.0,-4.0,-7.0,161,126,124,133,131
2025-02-25 18:26:08.230,-454.0,-842.0,201.0,10.0,-1.0,-7.0,158,125,119,130,127
2025-02-25 18:26:08.234,-453.0,-866.0,181.0,12.0,-1.0,-7.0,155,121,120,129,125
2025-02-25 18:26:08.238,-459.0,-873.0,214.0,11.0,-2.0,-7.0,156,120,119,128,125
2025-02-25 18:26:08.243,-454.0,-864.0,197.0,10.0,-3.0,-7.0,161,126,123,132,130
2025-02-25 18:26:08.250,-451.0,-886.0,203.0,9.0,-3.0,-6.0,159,124,120,130,128
2025-02-25 18:26:08.255,-439.0,-890.0,195.0,10.0,-4.0,-6.0,158,123,119,127,127
2025-02-25 18:26:08.259,-443.0,-915.0,211.0,9.0,-2.0,-5.0,154,122,119,129,127
2025-02-25 18:26:08.263,-448.0,-917.0,207.0,8.0,-2.0,-5.0,161,126,123,131,132
2025-02-25 18:26:08.271,-431.0,-931.0,230.0,5.0,0.0,-5.0,159,123,120,127,129
2025-02-25 18:26:08.275,-433.0,-923.0,208.0,5.0,-1.0,-5.0,158,122,119,129,127
2025-02-25 18:26:08.279,-440.0,-922.0,218.0,6.0,-1.0,-4.0,157,123,117,127,125
2025-02-25 18:26:08.284,-436.0,-898.0,222.0,2.0,0.0,-4.0,160,124,121,134,129
2025-02-25 18:26:08.291,-430.0,-916.0,195.0,2.0,0.0,-3.0,157,125,120,128,127
2025-02-25 18:26:08.295,-422.0,-904.0,230.0,0.0,0.0,-3.0,156,125,119,128,128
2025-02-25 18:26:08.299,-442.0,-882.0,228.0,0.0,-2.0,-3.0,160,124,122,127,130
2025-02-25 18:26:08.304,-418.0,-882.0,204.0,-2.0,-4.0,-3.0,160,126,121,131,129
2025-02-25 18:26:08.311,-425.0,-891.0,218.0,-5.0,-4.0,-3.0,159,123,122,130,128
2025-02-25 18:26:08.316,-433.0,-895.0,194.0,-3.0,-6.0,-3.0,157,121,119,127,128
2025-02-25 18:26:08.320,-432.0,-911.0,231.0,-11.0,-6.0,-4.0,155,119,119,128,125
2025-02-25 18:26:08.328,-409.0,-899.0,227.0,-10.0,-6.0,-5.0,161,126,122,130,129
2025-02-25 18:26:08.332,-416.0,-916.0,228.0,-13.0,-6.0,-5.0,158,123,122,130,128
2025-02-25 18:26:08.336,-417.0,-929.0,238.0,-11.0,-5.0,-5.0,158,123,120,130,128
2025-02-25 18:26:08.341,-414.0,-968.0,183.0,-9.0,-6.0,-4.0,157,123,121,129,128
2025-02-25 18:26:08.348,-429.0,-961.0,213.0,-8.0,-4.0,-4.0,157,122,117,127,125
2025-02-25 18:26:08.353,-435.0,-971.0,204.0,-11.0,-4.0,-3.0,158,126,121,129,128
2025-02-25 18:26:08.357,-422.0,-966.0,217.0,-8.0,-5.0,-1.0,159,125,121,130,130
2025-02-25 18:26:08.365,-439.0,-983.0,211.0,-2.0,-6.0,0.0,157,121,120,127,128
2025-02-25 18:26:08.369,-434.0,-953.0,209.0,-3.0,-5.0,1.0,155,121,119,127,126
2025-02-25 18:26:08.373,-419.0,-941.0,187.0,2.0,-4.0,2.0,160,123,121,129,128
2025-02-25 18:26:08.377,-426.0,-942.0,215.0,1.0,-3.0,3.0,159,123,120,129,130
2025-02-25 18:26:08.384,-419.0,-924.0,208.0,0.0,-4.0,2.0,157,122,119,128,127
2025-02-25 18:26:08.389,-406.0,-915.0,215.0,-1.0,-5.0,2.0,155,120,116,125,127
2025-02-25 18:26:08.393,-416.0,-912.0,213.0,-1.0,-4.0,2.0,157,123,123,127,130
2025-02-25 18:26:08.397,-410.0,-892.0,209.0,-3.0,-1.0,2.0,158,123,122,129,129
2025-02-25 18:26:08.405,-410.0,-902.0,216.0,-5.0,0.0,1.0,157,121,118,126,127
2025-02-25 18:26:08.410,-425.0,-906.0,213.0,-4.0,-1.0,1.0,157,126,129,130,131
2025-02-25 18:26:08.414,-420.0,-910.0,236.0,-5.0,1.0,1.0,160,125,121,128,129
2025-02-25 18:26:08.418,-436.0,-911.0,197.0,-5.0,3.0,1.0,158,122,124,128,128
2025-02-25 18:26:08.422,-439.0,-904.0,195.0,-3.0,4.0,2.0,157,122,119,126,127
2025-02-25 18:26:08.430,-441.0,-907.0,200.0,-3.0,4.0,3.0,159,124,124,129,123
2025-02-25 18:26:08.434,-434.0,-919.0,208.0,-3.0,3.0,4.0,159,124,119,129,130
2025-02-25 18:26:08.439,-447.0,-911.0,198.0,-1.0,2.0,4.0,155,121,120,128,128
2025-02-25 18:26:08.443,-437.0,-911.0,188.0,-1.0,4.0,4.0,157,123,122,128,128
2025-02-25 18:26:08.451,-432.0,-896.0,188.0,1.0,4.0,5.0,158,121,120,128,132
2025-02-25 18:26:08.455,-432.0,-898.0,182.0,2.0,2.0,5.0,155,123,119,126,128
2025-02-25 18:26:08.459,-424.0,-894.0,201.0,4.0,2.0,5.0,154,123,119,129,127
2025-02-25 18:26:08.464,-416.0,-878.0,192.0,4.0,1.0,5.0,159,125,121,130,130
2025-02-25 18:26:08.468,-418.0,-874.0,179.0,3.0,2.0,4.0,158,124,117,130,129
2025-02-25 18:26:08.475,-418.0,-860.0,189.0,2.0,2.0,4.0,155,122,119,127,128
2025-02-25 18:26:08.479,-415.0,-864.0,187.0,2.0,1.0,4.0,160,123,123,130,130
2025-02-25 18:26:08.483,-409.0,-867.0,194.0,0.0,1.0,3.0,158,124,120,129,130
2025-02-25 18:26:08.488,-404.0,-866.0,205.0,0.0,2.0,2.0,155,119,120,127,129
2025-02-25 18:26:08.495,-417.0,-870.0,184.0,0.0,3.0,1.0,162,130,127,134,136
2025-02-25 18:26:08.500,-431.0,-875.0,208.0,0.0,4.0,0.0,183,146,145,154,156
2025-02-25 18:26:08.504,-421.0,-896.0,205.0,-1.0,4.0,0.0,176,143,140,148,150
2025-02-25 18:26:08.508,-444.0,-893.0,206.0,-3.0,5.0,0.0,179,146,144,150,152
2025-02-25 18:26:08.516,-443.0,-892.0,195.0,-4.0,5.0,-1.0,179,148,144,153,153
2025-02-25 18:26:08.521,-442.0,-896.0,212.0,-5.0,4.0,0.0,182,145,143,146,150
2025-02-25 18:26:08.525,-447.0,-902.0,193.0,-6.0,4.0,1.0,173,140,137,145,147
2025-02-25 18:26:08.529,-460.0,-898.0,183.0,-5.0,2.0,2.0,177,142,142,150,151
2025-02-25 18:26:08.534,-450.0,-920.0,186.0,-8.0,2.0,3.0,177,144,143,149,151
2025-02-25 18:26:08.541,-454.0,-888.0,198.0,-6.0,1.0,3.0,171,142,136,141,141
2025-02-25 18:26:08.545,-459.0,-896.0,187.0,-4.0,0.0,3.0,170,135,137,143,143
2025-02-25 18:26:08.549,-449.0,-871.0,189.0,-5.0,0.0,3.0,175,142,142,147,150
2025-02-25 18:26:08.554,-460.0,-866.0,188.0,-8.0,0.0,2.0,174,140,138,148,148
2025-02-25 18:26:08.562,-456.0,-871.0,205.0,-7.0,-3.0,1.0,171,136,132,141,144
2025-02-25 18:26:08.566,-455.0,-854.0,200.0,-10.0,-2.0,1.0,175,141,141,148,151
2025-02-25 18:26:08.570,-461.0,-841.0,178.0,-5.0,-4.0,0.0,175,142,139,146,149
2025-02-25 18:26:08.574,-473.0,-850.0,201.0,-6.0,-5.0,0.0,173,138,137,145,148
2025-02-25 18:26:08.582,-463.0,-847.0,208.0,-4.0,-4.0,-1.0,176,142,139,145,149
2025-02-25 18:26:08.586,-479.0,-868.0,207.0,-5.0,-6.0,-1.0,176,141,140,147,150
2025-02-25 18:26:08.590,-466.0,-851.0,199.0,-5.0,-5.0,-2.0,176,142,137,146,149
2025-02-25 18:26:08.598,-460.0,-867.0,220.0,-5.0,-2.0,-2.0,174,138,138,145,146
2025-02-25 18:26:08.602,-458.0,-871.0,195.0,-5.0,-1.0,-2.0,174,140,138,144,147
2025-02-25 18:26:08.607,-457.0,-879.0,202.0,-5.0,0.0,-2.0,169,135,134,142,144
2025-02-25 18:26:08.611,-457.0,-878.0,207.0,-8.0,3.0,-2.0,175,141,141,145,150
2025-02-25 18:26:08.619,-457.0,-860.0,191.0,-6.0,3.0,-2.0,172,138,137,144,148
2025-02-25 18:26:08.623,-444.0,-876.0,198.0,-7.0,3.0,-2.0,173,139,137,144,148
2025-02-25 18:26:08.627,-453.0,-863.0,184.0,-3.0,4.0,-2.0,168,135,133,141,144
2025-02-25 18:26:08.631,-447.0,-879.0,164.0,-4.0,2.0,-2.0,175,140,138,147,149
2025-02-25 18:26:08.639,-455.0,-862.0,173.0,-4.0,1.0,-2.0,172,139,137,143,147
2025-02-25 18:26:08.643,-455.0,-859.0,174.0,-4.0,0.0,-3.0,172,138,134,142,146
2025-02-25 18:26:08.647,-469.0,-858.0,186.0,-1.0,0.0,-3.0,170,136,133,140,144
2025-02-25 18:26:08.651,-463.0,-847.0,186.0,-2.0,0.0,-4.0,172,141,139,145,148
2025-02-25 18:26:08.659,-478.0,-868.0,155.0,-1.0,-2.0,-5.0,172,138,137,143,148
2025-02-25 18:26:08.664,-484.0,-869.0,167.0,-4.0,-4.0,-6.0,171,138,135,145,147
2025-02-25 18:26:08.669,-472.0,-858.0,156.0,-6.0,-6.0,-7.0,168,134,132,140,146
2025-02-25 18:26:08.673,-471.0,-853.0,151.0,-6.0,-8.0,-9.0,174,141,138,145,150
2025-02-25 18:26:08.680,-468.0,-863.0,150.0,-8.0,-7.0,-13.0,171,141,140,148,152
2025-02-25 18:26:08.685,-446.0,-870.0,162.0,-6.0,-5.0,-17.0,171,138,136,145,148
2025-02-25 18:26:08.688,-440.0,-858.0,105.0,-9.0,-7.0,-21.0,170,137,136,143,148
2025-02-25 18:26:08.697,-387.0,-877.0,112.0,-10.0,-12.0,-22.0,169,138,137,141,147
2025-02-25 18:26:08.701,-421.0,-886.0,169.0,-9.0,-15.0,-25.0,177,147,146,151,158
2025-02-25 18:26:08.706,-444.0,-861.0,175.0,-9.0,-18.0,-28.0,174,146,141,146,153
2025-02-25 18:26:08.713,-440.0,-875.0,103.0,-6.0,-24.0,-27.0,173,143,141,145,151
2025-02-25 18:26:08.717,-435.0,-884.0,70.0,-5.0,-26.0,-26.0,169,141,138,140,149
2025-02-25 18:26:08.721,-455.0,-868.0,72.0,-5.0,-29.0,-27.0,169,140,140,144,149
2025-02-25 18:26:08.729,-477.0,-864.0,106.0,0.0,-30.0,-28.0,173,144,141,143,151
2025-02-25 18:26:08.734,-476.0,-863.0,138.0,6.0,-30.0,-30.0,173,144,142,146,153
2025-02-25 18:26:08.738,-454.0,-844.0,123.0,8.0,-34.0,-32.0,171,144,143,145,152
2025-02-25 18:26:08.742,-446.0,-845.0,97.0,7.0,-39.0,-33.0,171,144,141,142,151
2025-02-25 18:26:08.750,-433.0,-838.0,101.0,11.0,-41.0,-35.0,166,142,139,140,149
2025-02-25 18:26:08.755,-424.0,-835.0,141.0,13.0,-42.0,-35.0,171,145,140,144,151
2025-02-25 18:26:08.759,-436.0,-847.0,152.0,17.0,-41.0,-35.0,171,152,144,147,151
2025-02-25 18:26:08.765,-439.0,-825.0,121.0,18.0,-43.0,-36.0,174,148,145,149,154
2025-02-25 18:26:08.771,-404.0,-832.0,166.0,18.0,-43.0,-36.0,172,148,143,148,152
2025-02-25 18:26:08.775,-435.0,-849.0,219.0,22.0,-42.0,-36.0,170,147,143,148,152
2025-02-25 18:26:08.783,-473.0,-902.0,260.0,26.0,-39.0,-34.0,171,150,144,149,152
2025-02-25 18:26:08.787,-502.0,-883.0,267.0,27.0,-34.0,-33.0,172,150,143,147,153
2025-02-25 18:26:08.791,-483.0,-917.0,245.0,23.0,-36.0,-28.0,172,149,146,152,155
2025-02-25 18:26:08.799,-433.0,-903.0,274.0,23.0,-35.0,-24.0,172,150,145,151,154
2025-02-25 18:26:08.803,-419.0,-905.0,254.0,24.0,-34.0,-20.0,172,151,148,152,156
2025-02-25 18:26:08.808,-417.0,-926.0,279.0,18.0,-32.0,-17.0,167,146,142,147,152
2025-02-25 18:26:08.815,-403.0,-925.0,214.0,13.0,-30.0,-14.0,169,149,142,149,152
2025-02-25 18:26:08.819,-375.0,-899.0,245.0,9.0,-25.0,-11.0,171,151,144,151,154
2025-02-25 18:26:08.824,-365.0,-910.0,260.0,7.0,-21.0,-8.0,172,151,147,152,156
2025-02-25 18:26:08.828,-358.0,-954.0,247.0,6.0,-18.0,-4.0,170,149,143,148,154
2025-02-25 18:26:08.836,-365.0,-968.0,265.0,-3.0,-17.0,-1.0,168,147,142,149,153
2025-02-25 18:26:08.840,-328.0,-974.0,287.0,-2.0,-15.0,0.0,169,149,141,148,152
2025-02-25 18:26:08.844,-337.0,-945.0,282.0,-12.0,-11.0,0.0,172,154,148,152,156
2025-02-25 18:26:08.852,-323.0,-949.0,253.0,-17.0,-9.0,1.0,172,153,146,152,157
2025-02-25 18:26:08.856,-320.0,-934.0,282.0,-18.0,-6.0,2.0,172,152,146,152,155
2025-02-25 18:26:08.861,-323.0,-934.0,297.0,-24.0,-2.0,2.0,170,152,147,155,157
2025-02-25 18:26:08.865,-304.0,-944.0,290.0,-29.0,1.0,2.0,168,147,140,149,153
2025-02-25 18:26:08.872,-327.0,-944.0,285.0,-34.0,5.0,1.0,170,151,146,152,156
2025-02-25 18:26:08.877,-321.0,-954.0,255.0,-35.0,6.0,1.0,169,151,145,150,155
2025-02-25 18:26:08.881,-323.0,-955.0,269.0,-37.0,8.0,0.0,169,150,143,149,154
2025-02-25 18:26:08.885,-334.0,-959.0,255.0,-40.0,7.0,-1.0,165,146,139,145,150
2025-02-25 18:26:08.894,-334.0,-983.0,277.0,-38.0,10.0,-1.0,168,151,143,149,152
2025-02-25 18:26:08.898,-351.0,-975.0,274.0,-40.0,11.0,-2.0,168,147,142,148,153
2025-02-25 18:26:08.902,-331.0,-975.0,234.0,-37.0,11.0,-3.0,166,146,142,149,153
2025-02-25 18:26:08.910,-345.0,-987.0,237.0,-33.0,12.0,-2.0,164,145,140,147,149
2025-02-25 18:26:08.914,-340.0,-978.0,203.0,-29.0,13.0,-2.0,166,145,140,147,150
2025-02-25 18:26:08.918,-355.0,-985.0,202.0,-25.0,13.0,-2.0,168,149,143,152,153
2025-02-25 18:26:08.923,-352.0,-993.0,191.0,-19.0,11.0,-1.0,170,149,144,152,155
2025-02-25 18:26:08.929,-364.0,-997.0,195.0,-17.0,11.0,0.0,167,148,139,147,151
2025-02-25 18:26:08.935,-373.0,-994.0,168.0,-9.0,9.0,1.0,165,145,140,148,150
2025-02-25 18:26:08.938,-369.0,-995.0,177.0,-5.0,8.0,1.0,170,150,143,150,154
2025-02-25 18:26:08.942,-377.0,-983.0,153.0,-1.0,5.0,2.0,171,150,141,156,155
2025-02-25 18:26:08.951,-374.0,-969.0,173.0,1.0,4.0,2.0,168,147,139,146,151
2025-02-25 18:26:08.955,-367.0,-956.0,180.0,4.0,2.0,2.0,165,144,139,146,151
2025-02-25 18:26:08.959,-355.0,-940.0,157.0,8.0,0.0,2.0,169,156,142,150,150
2025-02-25 18:26:08.963,-343.0,-936.0,172.0,10.0,0.0,0.0,167,146,139,148,150
2025-02-25 18:26:08.971,-346.0,-922.0,186.0,12.0,0.0,0.0,165,145,133,147,150
2025-02-25 18:26:08.975,-337.0,-918.0,182.0,14.0,-1.0,-1.0,168,149,141,149,155
2025-02-25 18:26:08.979,-334.0,-922.0,194.0,14.0,-1.0,-2.0,172,152,145,154,156
2025-02-25 18:26:08.984,-331.0,-927.0,190.0,14.0,-2.0,-2.0,166,145,140,149,151
2025-02-25 18:26:08.992,-336.0,-923.0,218.0,14.0,-1.0,-3.0,166,147,140,148,150
2025-02-25 18:26:08.996,-345.0,-926.0,210.0,13.0,1.0,-3.0,166,148,143,150,152
2025-02-25 18:26:09.000,-352.0,-928.0,205.0,15.0,1.0,-2.0,171,152,145,152,158
2025-02-25 18:26:09.005,-370.0,-928.0,207.0,15.0,2.0,-3.0,168,147,140,147,152
2025-02-25 18:26:09.012,-369.0,-937.0,217.0,14.0,3.0,-4.0,165,145,139,145,150
2025-02-25 18:26:09.016,-381.0,-936.0,219.0,13.0,4.0,-4.0,171,150,142,150,154
2025-02-25 18:26:09.021,-381.0,-922.0,209.0,12.0,3.0,-5.0,171,151,144,152,157
2025-02-25 18:26:09.025,-369.0,-923.0,231.0,10.0,5.0,-6.0,165,147,140,146,150
2025-02-25 18:26:09.032,-373.0,-913.0,204.0,8.0,5.0,-7.0,164,146,140,147,151
2025-02-25 18:26:09.036,-377.0,-909.0,207.0,6.0,5.0,-8.0,168,151,142,150,154
2025-02-25 18:26:09.041,-375.0,-905.0,238.0,4.0,6.0,-8.0,168,148,143,150,155
2025-02-25 18:26:09.045,-372.0,-892.0,215.0,2.0,6.0,-9.0,164,147,140,146,151
2025-02-25 18:26:09.053,-378.0,-889.0,221.0,1.0,7.0,-9.0,165,145,139,147,149
2025-02-25 18:26:09.057,-393.0,-885.0,229.0,-2.0,9.0,-8.0,168,150,142,150,154
2025-02-25 18:26:09.061,-398.0,-879.0,211.0,-4.0,9.0,-9.0,168,152,143,151,155
2025-02-25 18:26:09.065,-400.0,-895.0,213.0,-7.0,9.0,-8.0,164,144,139,147,150
2025-02-25 18:26:09.074,-396.0,-890.0,207.0,-9.0,9.0,-8.0,167,150,142,150,153
2025-02-25 18:26:09.078,-406.0,-893.0,197.0,-7.0,10.0,-7.0,168,150,141,150,154
2025-02-25 18:26:09.082,-399.0,-882.0,181.0,-6.0,10.0,-6.0,169,151,144,151,155
2025-02-25 18:26:09.089,-400.0,-897.0,176.0,-4.0,10.0,-5.0,165,146,140,144,148
2025-02-25 18:26:09.094,-405.0,-896.0,198.0,-3.0,10.0,-5.0,165,146,138,146,150
2025-02-25 18:26:09.098,-401.0,-890.0,204.0,-2.0,9.0,-4.0,172,150,142,153,155
2025-02-25 18:26:09.102,-400.0,-885.0,193.0,-3.0,9.0,-4.0,167,148,140,147,153
2025-02-25 18:26:09.110,-385.0,-880.0,206.0,-2.0,10.0,-4.0,166,144,139,146,151
2025-02-25 18:26:09.114,-398.0,-893.0,187.0,-1.0,7.0,-3.0,165,147,138,147,151
2025-02-25 18:26:09.119,-403.0,-882.0,196.0,0.0,7.0,-4.0,168,150,144,152,153
2025-02-25 18:26:09.123,-392.0,-880.0,184.0,2.0,7.0,-3.0,166,148,142,150,154
2025-02-25 18:26:09.130,-393.0,-869.0,181.0,5.0,6.0,-4.0,164,147,139,146,151
2025-02-25 18:26:09.135,-383.0,-863.0,168.0,8.0,5.0,-4.0,168,147,141,150,154
2025-02-25 18:26:09.139,-382.0,-858.0,170.0,10.0,5.0,-6.0,168,154,144,149,157
2025-02-25 18:26:09.144,-376.0,-858.0,160.0,11.0,3.0,-7.0,167,146,141,150,152
2025-02-25 18:26:09.151,-375.0,-852.0,164.0,12.0,2.0,-9.0,164,144,139,147,150
2025-02-25 18:26:09.155,-357.0,-856.0,173.0,11.0,1.0,-9.0,169,148,143,151,154
2025-02-25 18:26:09.159,-352.0,-869.0,174.0,10.0,1.0,-11.0,168,150,145,151,155
2025-02-25 18:26:09.165,-359.0,-876.0,187.0,11.0,1.0,-13.0,167,150,141,150,153
2025-02-25 18:26:09.171,-360.0,-892.0,197.0,11.0,2.0,-14.0,165,147,139,147,151
2025-02-25 18:26:09.176,-343.0,-895.0,197.0,11.0,3.0,-15.0,168,150,143,149,155
2025-02-25 18:26:09.181,-353.0,-910.0,201.0,9.0,4.0,-15.0,172,155,146,154,158
2025-02-25 18:26:09.184,-353.0,-925.0,213.0,8.0,5.0,-15.0,169,149,142,150,153
2025-02-25 18:26:09.193,-347.0,-938.0,211.0,7.0,5.0,-14.0,164,144,138,147,151
2025-02-25 18:26:09.196,-357.0,-956.0,211.0,5.0,7.0,-14.0,167,149,142,149,154
2025-02-25 18:26:09.201,-357.0,-962.0,210.0,5.0,8.0,-12.0,170,151,146,153,157
2025-02-25 18:26:09.205,-358.0,-966.0,215.0,4.0,8.0,-10.0,169,150,142,150,153
2025-02-25 18:26:09.212,-356.0,-968.0,214.0,5.0,8.0,-9.0,164,148,138,147,150
2025-02-25 18:26:09.217,-352.0,-962.0,225.0,5.0,9.0,-8.0,168,149,143,149,154
2025-02-25 18:26:09.221,-341.0,-960.0,212.0,5.0,9.0,-8.0,170,151,144,152,156
2025-02-25 18:26:09.225,-344.0,-954.0,208.0,5.0,9.0,-8.0,165,147,139,147,151
2025-02-25 18:26:09.233,-338.0,-953.0,213.0,6.0,8.0,-8.0,164,147,139,148,150
2025-02-25 18:26:09.237,-328.0,-941.0,204.0,7.0,7.0,-8.0,167,149,142,152,154
2025-02-25 18:26:09.241,-341.0,-961.0,196.0,6.0,6.0,-8.0,168,150,142,150,149
2025-02-25 18:26:09.246,-335.0,-953.0,206.0,5.0,6.0,-8.0,164,147,140,147,151
2025-02-25 18:26:09.253,-341.0,-960.0,208.0,3.0,5.0,-8.0,168,149,143,151,153
2025-02-25 18:26:09.257,-341.0,-963.0,211.0,1.0,4.0,-7.0,167,149,143,154,154
2025-02-25 18:26:09.262,-343.0,-967.0,209.0,1.0,3.0,-6.0,167,148,142,149,153
2025-02-25 18:26:09.266,-339.0,-968.0,216.0,-2.0,3.0,-5.0,165,147,139,145,150
2025-02-25 18:26:09.273,-341.0,-978.0,220.0,-3.0,2.0,-4.0,168,149,142,150,153
2025-02-25 18:26:09.278,-351.0,-984.0,213.0,-3.0,1.0,-3.0,166,148,142,151,154
2025-02-25 18:26:09.282,-348.0,-992.0,208.0,-3.0,0.0,-2.0,166,148,140,149,152
2025-02-25 18:26:09.287,-340.0,-988.0,215.0,-3.0,-1.0,-1.0,163,145,139,146,150
2025-02-25 18:26:09.295,-342.0,-990.0,208.0,-2.0,-1.0,0.0,168,150,142,153,155
2025-02-25 18:26:09.299,-341.0,-987.0,208.0,-2.0,-2.0,1.0,173,149,142,154,153
2025-02-25 18:26:09.303,-338.0,-981.0,220.0,-1.0,-2.0,2.0,166,147,140,150,153
2025-02-25 18:26:09.307,-340.0,-977.0,222.0,-1.0,-3.0,2.0,161,145,138,143,149
2025-02-25 18:26:09.315,-343.0,-969.0,224.0,-1.0,-4.0,2.0,169,151,141,152,154
2025-02-25 18:26:09.319,-351.0,-961.0,220.0,0.0,-4.0,3.0,167,148,143,151,152
2025-02-25 18:26:09.323,-349.0,-952.0,220.0,0.0,-4.0,3.0,165,147,141,149,152
2025-02-25 18:26:09.328,-344.0,-947.0,226.0,1.0,-4.0,3.0,166,145,140,148,149
2025-02-25 18:26:09.335,-333.0,-934.0,228.0,1.0,-3.0,2.0,169,148,142,150,155
2025-02-25 18:26:09.340,-328.0,-926.0,229.0,2.0,-2.0,1.0,168,149,142,150,153
2025-02-25 18:26:09.344,-325.0,-925.0,230.0,3.0,-1.0,0.0,165,147,139,148,151
2025-02-25 18:26:09.348,-322.0,-923.0,234.0,2.0,0.0,0.0,169,151,142,152,154
2025-02-25 18:26:09.352,-333.0,-931.0,230.0,2.0,1.0,0.0,167,149,141,150,153
2025-02-25 18:26:09.360,-329.0,-926.0,230.0,3.0,2.0,0.0,166,142,139,147,151
2025-02-25 18:26:09.364,-336.0,-921.0,228.0,2.0,3.0,1.0,169,151,142,152,156
2025-02-25 18:26:09.368,-343.0,-928.0,230.0,2.0,4.0,2.0,167,151,146,151,155
2025-02-25 18:26:09.373,-345.0,-926.0,229.0,2.0,4.0,2.0,165,147,139,147,151
2025-02-25 18:26:09.377,-351.0,-920.0,221.0,1.0,4.0,3.0,167,144,143,149,152
2025-02-25 18:26:09.385,-359.0,-924.0,217.0,1.0,3.0,3.0,169,150,143,152,155
2025-02-25 18:26:09.389,-365.0,-920.0,215.0,1.0,2.0,4.0,164,146,141,146,152
2025-02-25 18:26:09.394,-365.0,-915.0,202.0,1.0,1.0,4.0,163,144,138,146,149
2025-02-25 18:26:09.398,-371.0,-916.0,202.0,1.0,-1.0,4.0,168,151,142,151,154
2025-02-25 18:26:09.405,-375.0,-911.0,205.0,0.0,-2.0,4.0,168,151,143,152,154
2025-02-25 18:26:09.410,-377.0,-914.0,202.0,0.0,-2.0,3.0,166,145,140,147,150
2025-02-25 18:26:09.414,-373.0,-906.0,212.0,0.0,-4.0,3.0,167,151,142,151,154
2025-02-25 18:26:09.418,-367.0,-909.0,208.0,-1.0,-4.0,2.0,167,147,136,151,155
2025-02-25 18:26:09.426,-362.0,-907.0,211.0,-1.0,-4.0,1.0,167,146,139,149,153
2025-02-25 18:26:09.430,-359.0,-908.0,221.0,-1.0,-4.0,1.0,162,146,137,146,151
2025-02-25 18:26:09.434,-350.0,-904.0,222.0,-1.0,-4.0,-1.0,169,151,141,150,155
2025-02-25 18:26:09.439,-353.0,-900.0,221.0,-1.0,-4.0,-1.0,172,154,147,155,158
2025-02-25 18:26:09.446,-350.0,-899.0,214.0,-1.0,-3.0,-2.0,167,147,140,148,151
2025-02-25 18:26:09.451,-347.0,-899.0,216.0,0.0,-3.0,-2.0,165,146,139,148,150
2025-02-25 18:26:09.455,-347.0,-900.0,221.0,-1.0,-2.0,-2.0,168,149,142,150,153
2025-02-25 18:26:09.459,-348.0,-907.0,224.0,-1.0,-1.0,-2.0,172,152,144,153,156
2025-02-25 18:26:09.467,-352.0,-909.0,221.0,-1.0,0.0,-2.0,167,152,143,151,154
2025-02-25 18:26:09.471,-348.0,-917.0,222.0,-1.0,1.0,-2.0,164,147,139,149,152
2025-02-25 18:26:09.475,-357.0,-919.0,218.0,0.0,2.0,-2.0,169,150,144,150,154
2025-02-25 18:26:09.480,-367.0,-919.0,217.0,1.0,2.0,-2.0,170,152,143,153,156
2025-02-25 18:26:09.487,-374.0,-921.0,212.0,2.0,3.0,-1.0,165,147,140,148,151
2025-02-25 18:26:09.491,-377.0,-921.0,222.0,2.0,3.0,-1.0,163,146,140,147,151
2025-02-25 18:26:09.495,-375.0,-923.0,218.0,2.0,2.0,-2.0,168,148,141,150,154
2025-02-25 18:26:09.500,-375.0,-924.0,211.0,2.0,1.0,-2.0,169,149,142,150,154
2025-02-25 18:26:09.507,-377.0,-930.0,207.0,2.0,1.0,-2.0,164,147,139,146,151
2025-02-25 18:26:09.511,-372.0,-935.0,206.0,3.0,0.0,-2.0,167,149,142,152,154
2025-02-25 18:26:09.516,-366.0,-940.0,213.0,3.0,-1.0,-1.0,169,149,140,150,155
2025-02-25 18:26:09.520,-355.0,-938.0,218.0,3.0,-2.0,-1.0,168,149,143,150,153
2025-02-25 18:26:09.528,-354.0,-939.0,219.0,2.0,-2.0,-1.0,168,146,139,148,152
2025-02-25 18:26:09.532,-355.0,-940.0,221.0,2.0,-2.0,0.0,169,152,142,152,155
2025-02-25 18:26:09.536,-347.0,-941.0,226.0,1.0,-1.0,0.0,170,150,142,152,155
2025-02-25 18:26:09.540,-350.0,-947.0,236.0,1.0,-2.0,1.0,166,147,139,149,153
2025-02-25 18:26:09.548,-352.0,-954.0,224.0,1.0,-2.0,1.0,165,142,137,147,149
2025-02-25 18:26:09.552,-356.0,-945.0,231.0,1.0,-1.0,1.0,168,149,141,151,155
2025-02-25 18:26:09.557,-352.0,-947.0,230.0,1.0,0.0,2.0,167,149,140,150,153
2025-02-25 18:26:09.561,-351.0,-943.0,230.0,1.0,1.0,2.0,164,146,139,148,151
2025-02-25 18:26:09.565,-355.0,-943.0,223.0,0.0,1.0,2.0,169,149,142,151,154
2025-02-25 18:26:09.573,-363.0,-939.0,240.0,0.0,2.0,2.0,165,146,141,150,152
2025-02-25 18:26:09.577,-360.0,-938.0,236.0,-2.0,2.0,1.0,164,145,138,146,150
2025-02-25 18:26:09.581,-361.0,-933.0,221.0,-1.0,2.0,0.0,169,149,142,152,155
2025-02-25 18:26:09.585,-358.0,-929.0,226.0,-1.0,3.0,0.0,168,156,143,152,154
2025-02-25 18:26:09.593,-364.0,-925.0,226.0,-1.0,3.0,0.0,166,145,139,148,151
2025-02-25 18:26:09.598,-358.0,-922.0,224.0,-1.0,3.0,0.0,165,146,138,148,151
2025-02-25 18:26:09.602,-354.0,-915.0,226.0,-1.0,3.0,0.0,170,151,143,153,155
2025-02-25 18:26:09.606,-347.0,-916.0,221.0,-1.0,3.0,0.0,166,145,139,149,153
2025-02-25 18:26:09.614,-342.0,-912.0,216.0,0.0,3.0,-1.0,165,145,136,147,151
2025-02-25 18:26:09.619,-348.0,-909.0,209.0,1.0,3.0,-1.0,169,148,143,150,153
2025-02-25 18:26:09.622,-351.0,-917.0,209.0,1.0,3.0,0.0,170,150,142,152,154
2025-02-25 18:26:09.627,-349.0,-907.0,204.0,1.0,2.0,1.0,165,145,139,148,152
2025-02-25 18:26:09.631,-349.0,-904.0,205.0,2.0,2.0,1.0,163,143,131,146,148
2025-02-25 18:26:09.639,-345.0,-902.0,205.0,2.0,2.0,2.0,167,149,142,152,155
2025-02-25 18:26:09.643,-349.0,-905.0,201.0,2.0,1.0,2.0,166,143,140,151,153
2025-02-25 18:26:09.647,-354.0,-906.0,208.0,3.0,1.0,2.0,166,144,136,147,152
2025-02-25 18:26:09.651,-351.0,-907.0,207.0,2.0,0.0,1.0,169,147,141,151,154
2025-02-25 18:26:09.656,-361.0,-917.0,209.0,2.0,0.0,1.0,167,148,142,152,154
2025-02-25 18:26:09.663,-366.0,-925.0,214.0,2.0,0.0,0.0,167,145,138,147,149
2025-02-25 18:26:09.668,-370.0,-928.0,211.0,2.0,-1.0,0.0,169,147,140,150,155
2025-02-25 18:26:09.672,-375.0,-924.0,205.0,3.0,-2.0,-1.0,165,147,140,149,152
2025-02-25 18:26:09.676,-375.0,-913.0,203.0,3.0,-2.0,-1.0,163,145,138,148,150
2025-02-25 18:26:09.684,-374.0,-920.0,204.0,4.0,-3.0,-1.0,164,143,138,147,150
2025-02-25 18:26:09.688,-383.0,-922.0,207.0,4.0,-4.0,-2.0,166,142,140,150,153
2025-02-25 18:26:09.692,-371.0,-918.0,213.0,4.0,-5.0,-2.0,167,146,138,150,152
2025-02-25 18:26:09.697,-364.0,-917.0,219.0,5.0,-5.0,-1.0,164,141,137,149,151
2025-02-25 18:26:09.704,-362.0,-920.0,228.0,5.0,-5.0,-1.0,166,141,134,147,149
2025-02-25 18:26:09.708,-359.0,-906.0,233.0,5.0,-5.0,-1.0,170,147,140,150,152
2025-02-25 18:26:09.713,-346.0,-908.0,234.0,5.0,-4.0,-2.0,168,146,141,149,152
2025-02-25 18:26:09.717,-338.0,-905.0,237.0,3.0,-5.0,-2.0,165,143,139,146,151
2025-02-25 18:26:09.725,-331.0,-907.0,244.0,1.0,-3.0,-2.0,167,143,137,147,151
2025-02-25 18:26:09.729,-326.0,-905.0,246.0,1.0,-2.0,-2.0,169,147,141,152,154
2025-02-25 18:26:09.733,-327.0,-910.0,253.0,0.0,0.0,-2.0,167,147,139,148,151
2025-02-25 18:26:09.737,-335.0,-916.0,251.0,-1.0,1.0,-2.0,165,143,137,148,152
2025-02-25 18:26:09.745,-348.0,-917.0,238.0,0.0,1.0,-2.0,168,148,141,150,153
2025-02-25 18:26:09.749,-350.0,-928.0,253.0,-3.0,3.0,-1.0,168,148,142,150,154
2025-02-25 18:26:09.754,-367.0,-928.0,230.0,-1.0,3.0,-1.0,168,145,137,152,154
2025-02-25 18:26:09.759,-362.0,-934.0,236.0,-1.0,3.0,-1.0,169,147,139,151,153
2025-02-25 18:26:09.766,-367.0,-930.0,219.0,0.0,3.0,0.0,168,145,140,151,154
2025-02-25 18:26:09.770,-374.0,-929.0,226.0,0.0,2.0,-1.0,168,144,138,151,155
2025-02-25 18:26:09.774,-375.0,-927.0,228.0,0.0,1.0,0.0,164,144,135,149,151
2025-02-25 18:26:09.778,-373.0,-931.0,226.0,0.0,1.0,-1.0,169,146,142,152,153
2025-02-25 18:26:09.786,-376.0,-923.0,229.0,1.0,0.0,-1.0,169,146,139,150,153
2025-02-25 18:26:09.790,-374.0,-929.0,231.0,2.0,-1.0,-1.0,166,145,138,151,153
2025-02-25 18:26:09.795,-376.0,-919.0,234.0,3.0,-1.0,-1.0,165,144,137,147,149
2025-02-25 18:26:09.799,-375.0,-929.0,229.0,4.0,-1.0,-1.0,170,148,143,154,157
2025-02-25 18:26:09.807,-376.0,-914.0,225.0,5.0,-1.0,-1.0,167,145,138,150,153
2025-02-25 18:26:09.811,-380.0,-913.0,233.0,5.0,-1.0,-1.0,166,145,138,150,152
2025-02-25 18:26:09.815,-376.0,-905.0,232.0,6.0,-2.0,0.0,166,144,136,148,149
2025-02-25 18:26:09.819,-368.0,-908.0,246.0,7.0,-2.0,0.0,171,147,140,153,155
2025-02-25 18:26:09.827,-372.0,-900.0,244.0,7.0,-1.0,-1.0,167,147,141,151,152
2025-02-25 18:26:09.831,-368.0,-897.0,247.0,7.0,-1.0,-1.0,164,142,135,149,152
2025-02-25 18:26:09.836,-369.0,-896.0,247.0,6.0,-1.0,0.0,165,142,136,149,149
2025-02-25 18:26:09.840,-372.0,-902.0,253.0,5.0,0.0,0.0,169,148,141,153,155
2025-02-25 18:26:09.848,-373.0,-895.0,254.0,5.0,0.0,0.0,168,146,139,150,152
2025-02-25 18:26:09.852,-369.0,-893.0,250.0,5.0,1.0,-1.0,166,142,135,147,149
2025-02-25 18:26:09.856,-374.0,-898.0,241.0,5.0,2.0,-1.0,168,147,140,151,153
2025-02-25 18:26:09.861,-362.0,-901.0,240.0,5.0,2.0,-1.0,169,149,140,152,154
2025-02-25 18:26:09.865,-366.0,-898.0,234.0,4.0,2.0,-2.0,164,142,136,148,147
2025-02-25 18:26:09.872,-373.0,-900.0,229.0,3.0,1.0,-2.0,163,142,136,146,148
2025-02-25 18:26:09.877,-371.0,-902.0,226.0,3.0,1.0,-2.0,169,147,140,149,153
2025-02-25 18:26:09.881,-364.0,-899.0,222.0,2.0,0.0,-3.0,170,148,139,151,155
2025-02-25 18:26:09.885,-372.0,-912.0,229.0,2.0,-1.0,-3.0,164,142,135,145,148
2025-02-25 18:26:09.893,-363.0,-913.0,234.0,1.0,-2.0,-3.0,169,144,138,151,153
2025-02-25 18:26:09.897,-361.0,-919.0,230.0,0.0,-3.0,-3.0,167,145,138,151,151
2025-02-25 18:26:09.901,-358.0,-924.0,232.0,-1.0,-3.0,-4.0,167,145,138,151,153
2025-02-25 18:26:09.909,-360.0,-927.0,230.0,-1.0,-3.0,-3.0,164,142,135,148,149
2025-02-25 18:26:09.913,-356.0,-929.0,241.0,-1.0,-4.0,-3.0,167,144,138,146,151
2025-02-25 18:26:09.917,-355.0,-936.0,238.0,-2.0,-3.0,-3.0,168,145,134,149,151
2025-02-25 18:26:09.922,-356.0,-937.0,241.0,-2.0,-4.0,-3.0,167,146,138,148,153
2025-02-25 18:26:09.930,-355.0,-939.0,244.0,-2.0,-3.0,-2.0,163,142,136,149,152
2025-02-25 18:26:09.934,-355.0,-939.0,243.0,-3.0,-4.0,-2.0,164,142,134,145,148
2025-02-25 18:26:09.938,-360.0,-933.0,248.0,-3.0,-3.0,-2.0,167,146,136,151,154
2025-02-25 18:26:09.942,-352.0,-932.0,248.0,-3.0,-2.0,-2.0,169,144,140,152,154
2025-02-25 18:26:09.950,-351.0,-932.0,251.0,-3.0,-2.0,-2.0,166,145,137,149,150
2025-02-25 18:26:09.954,-350.0,-937.0,244.0,-3.0,-1.0,-2.0,165,143,137,148,150
2025-02-25 18:26:09.958,-349.0,-937.0,243.0,-3.0,-1.0,-2.0,172,150,142,155,156
2025-02-25 18:26:09.966,-347.0,-934.0,245.0,-4.0,-1.0,-2.0,167,145,138,148,152
2025-02-25 18:26:09.970,-344.0,-938.0,234.0,-4.0,-1.0,-1.0,166,144,138,150,151
2025-02-25 18:26:09.975,-348.0,-944.0,237.0,-3.0,-1.0,-1.0,167,142,133,148,150
2025-02-25 18:26:09.979,-353.0,-946.0,235.0,-3.0,-1.0,-1.0,166,143,137,148,150
2025-02-25 18:26:09.987,-353.0,-952.0,236.0,-2.0,-2.0,-1.0,167,145,137,151,152
2025-02-25 18:26:09.991,-354.0,-952.0,244.0,-2.0,-2.0,-1.0,167,144,138,152,153
2025-02-25 18:26:09.995,-357.0,-957.0,248.0,-2.0,-1.0,-1.0,166,140,134,149,150
2025-02-25 18:26:10.000,-351.0,-950.0,260.0,-1.0,-2.0,-1.0,166,145,138,149,151
2025-02-25 18:26:10.007,-353.0,-953.0,261.0,0.0,-1.0,-1.0,169,146,139,150,152
2025-02-25 18:26:10.011,-351.0,-944.0,262.0,0.0,0.0,-1.0,169,147,144,150,153
2025-02-25 18:26:10.016,-349.0,-942.0,261.0,0.0,0.0,-1.0,166,143,136,147,150
2025-02-25 18:26:10.020,-340.0,-941.0,260.0,0.0,0.0,-1.0,165,142,135,149,151
2025-02-25 18:26:10.028,-335.0,-942.0,257.0,0.0,2.0,-1.0,169,146,136,151,152
2025-02-25 18:26:10.032,-326.0,-948.0,260.0,0.0,2.0,0.0,166,142,136,150,151
2025-02-25 18:26:10.036,-326.0,-957.0,260.0,-2.0,3.0,0.0,165,142,135,146,149
2025-02-25 18:26:10.040,-328.0,-952.0,258.0,-2.0,3.0,0.0,169,147,140,152,153
2025-02-25 18:26:10.048,-335.0,-959.0,256.0,-3.0,3.0,1.0,169,148,139,151,153
2025-02-25 18:26:10.052,-344.0,-953.0,254.0,-3.0,3.0,2.0,166,144,134,148,150
2025-02-25 18:26:10.056,-346.0,-956.0,255.0,-4.0,2.0,3.0,165,143,134,147,149
2025-02-25 18:26:10.061,-349.0,-947.0,260.0,-5.0,1.0,4.0,169,145,140,152,154
2025-02-25 18:26:10.068,-347.0,-943.0,249.0,-5.0,-1.0,5.0,166,145,138,150,152
2025-02-25 18:26:10.073,-350.0,-936.0,243.0,-6.0,-2.0,5.0,165,142,135,148,149
2025-02-25 18:26:10.078,-352.0,-935.0,245.0,-7.0,-4.0,6.0,170,145,138,148,152
2025-02-25 18:26:10.082,-345.0,-939.0,249.0,-8.0,-5.0,5.0,169,145,139,153,154
2025-02-25 18:26:10.089,-351.0,-928.0,261.0,-7.0,-5.0,5.0,168,146,135,150,151
2025-02-25 18:26:10.093,-358.0,-927.0,244.0,-7.0,-5.0,5.0,164,140,134,145,148
2025-02-25 18:26:10.097,-354.0,-924.0,248.0,-8.0,-6.0,4.0,165,146,140,153,153
2025-02-25 18:26:10.102,-357.0,-917.0,261.0,-9.0,-4.0,4.0,168,148,139,151,153
2025-02-25 18:26:10.109,-365.0,-907.0,257.0,-8.0,-5.0,3.0,170,143,137,150,153
2025-02-25 18:26:10.113,-368.0,-907.0,243.0,-9.0,-4.0,3.0,165,142,134,146,148
2025-02-25 18:26:10.118,-368.0,-905.0,240.0,-10.0,-4.0,3.0,172,143,140,152,152
2025-02-25 18:26:10.122,-365.0,-896.0,240.0,-9.0,-5.0,3.0,169,146,141,153,153
2025-02-25 18:26:10.129,-374.0,-899.0,250.0,-8.0,-4.0,1.0,168,145,137,149,152
2025-02-25 18:26:10.134,-366.0,-888.0,251.0,-8.0,-4.0,0.0,165,142,136,147,148
2025-02-25 18:26:10.138,-367.0,-882.0,238.0,-5.0,-3.0,0.0,173,150,144,156,157
2025-02-25 18:26:10.143,-377.0,-884.0,232.0,-4.0,-3.0,-1.0,167,145,140,152,153
2025-02-25 18:26:10.151,-380.0,-886.0,233.0,-5.0,-3.0,-1.0,168,144,137,149,152
2025-02-25 18:26:10.155,-380.0,-881.0,246.0,-4.0,-3.0,-1.0,165,142,137,148,150
2025-02-25 18:26:10.159,-381.0,-884.0,250.0,-4.0,-3.0,-1.0,166,143,136,147,150
2025-02-25 18:26:10.167,-385.0,-888.0,249.0,-3.0,-2.0,0.0,167,145,138,150,152
2025-02-25 18:26:10.171,-386.0,-887.0,242.0,-3.0,-1.0,0.0,166,143,136,150,151
2025-02-25 18:26:10.175,-392.0,-880.0,241.0,-3.0,0.0,1.0,164,140,136,147,149
2025-02-25 18:26:10.180,-388.0,-878.0,254.0,-3.0,2.0,1.0,168,144,137,150,151
2025-02-25 18:26:10.184,-389.0,-881.0,229.0,-2.0,2.0,0.0,168,144,139,152,154
2025-02-25 18:26:10.192,-381.0,-880.0,250.0,-3.0,4.0,0.0,167,142,136,149,152
2025-02-25 18:26:10.196,-377.0,-861.0,248.0,-2.0,5.0,0.0,164,140,135,146,149
2025-02-25 18:26:10.200,-362.0,-861.0,249.0,0.0,7.0,0.0,170,147,141,151,154
2025-02-25 18:26:10.205,-359.0,-854.0,242.0,-1.0,9.0,-1.0,167,142,137,148,152
2025-02-25 18:26:10.212,-356.0,-864.0,236.0,0.0,9.0,-1.0,165,141,135,147,149
2025-02-25 18:26:10.216,-348.0,-858.0,236.0,1.0,11.0,-1.0,164,139,133,146,147
2025-02-25 18:26:10.221,-349.0,-855.0,221.0,0.0,13.0,-1.0,169,145,140,152,152
2025-02-25 18:26:10.225,-351.0,-856.0,203.0,1.0,14.0,-2.0,166,142,136,148,151
2025-02-25 18:26:10.233,-347.0,-877.0,224.0,0.0,15.0,-3.0,164,142,135,148,150
2025-02-25 18:26:10.237,-352.0,-874.0,214.0,-1.0,15.0,-3.0,166,140,136,149,149
2025-02-25 18:26:10.241,-361.0,-891.0,217.0,-2.0,16.0,-5.0,168,144,138,151,152
2025-02-25 18:26:10.245,-368.0,-897.0,218.0,-2.0,16.0,-6.0,167,142,135,149,151
2025-02-25 18:26:10.253,-372.0,-899.0,211.0,-1.0,16.0,-6.0,165,139,135,146,149
2025-02-25 18:26:10.257,-374.0,-916.0,191.0,-2.0,18.0,-6.0,166,139,137,147,150
2025-02-25 18:26:10.261,-373.0,-917.0,200.0,-1.0,17.0,-6.0,169,144,138,149,152
2025-02-25 18:26:10.269,-376.0,-923.0,209.0,0.0,17.0,-6.0,169,142,136,147,152
2025-02-25 18:26:10.273,-383.0,-920.0,173.0,1.0,13.0,-6.0,164,141,135,147,149
2025-02-25 18:26:10.277,-391.0,-938.0,186.0,2.0,12.0,-6.0,165,140,139,147,149
2025-02-25 18:26:10.282,-389.0,-933.0,166.0,4.0,10.0,-5.0,168,143,138,150,153
2025-02-25 18:26:10.290,-390.0,-939.0,166.0,7.0,7.0,-4.0,166,142,142,149,151
2025-02-25 18:26:10.294,-391.0,-951.0,169.0,9.0,6.0,-2.0,165,141,132,144,149
2025-02-25 18:26:10.298,-379.0,-954.0,193.0,11.0,4.0,-1.0,165,141,136,148,150
2025-02-25 18:26:10.303,-370.0,-959.0,195.0,12.0,3.0,0.0,168,143,137,151,152
2025-02-25 18:26:10.310,-384.0,-962.0,176.0,11.0,1.0,2.0,167,140,135,147,150
2025-02-25 18:26:10.315,-371.0,-958.0,244.0,12.0,2.0,3.0,164,138,133,145,146
2025-02-25 18:26:10.318,-352.0,-984.0,216.0,11.0,2.0,3.0,173,147,141,155,156
2025-02-25 18:26:10.323,-345.0,-962.0,216.0,11.0,2.0,5.0,168,143,139,150,151
2025-02-25 18:26:10.328,-330.0,-963.0,241.0,10.0,4.0,7.0,164,139,135,147,149
2025-02-25 18:26:10.335,-331.0,-977.0,253.0,10.0,5.0,8.0,166,140,133,146,148
2025-02-25 18:26:10.340,-314.0,-987.0,254.0,10.0,7.0,10.0,177,152,145,157,159
2025-02-25 18:26:10.344,-309.0,-996.0,273.0,10.0,10.0,12.0,170,145,141,152,154
2025-02-25 18:26:10.351,-295.0,-987.0,285.0,11.0,12.0,14.0,167,144,138,150,151
2025-02-25 18:26:10.356,-289.0,-996.0,283.0,11.0,14.0,15.0,167,141,137,150,152
2025-02-25 18:26:10.360,-303.0,-992.0,260.0,7.0,15.0,15.0,172,150,143,156,158
2025-02-25 18:26:10.364,-297.0,-1021.0,322.0,9.0,18.0,13.0,171,143,142,154,155
2025-02-25 18:26:10.372,-283.0,-984.0,308.0,5.0,20.0,12.0,167,140,137,149,151
2025-02-25 18:26:10.376,-303.0,-972.0,324.0,-1.0,21.0,11.0,166,142,137,149,151
2025-02-25 18:26:10.380,-320.0,-983.0,287.0,-2.0,19.0,10.0,173,147,143,154,156
2025-02-25 18:26:10.386,-339.0,-991.0,281.0,-4.0,19.0,10.0,171,145,141,152,154
2025-02-25 18:26:10.392,-352.0,-1002.0,287.0,-6.0,21.0,9.0,171,145,141,152,153
2025-02-25 18:26:10.396,-359.0,-999.0,281.0,-7.0,22.0,9.0,166,139,137,149,149
2025-02-25 18:26:10.401,-362.0,-1008.0,277.0,-9.0,21.0,9.0,170,144,140,153,153
2025-02-25 18:26:10.408,-350.0,-1024.0,276.0,-12.0,20.0,10.0,170,144,143,152,153
2025-02-25 18:26:10.413,-340.0,-1016.0,239.0,-12.0,16.0,11.0,170,143,141,151,151
2025-02-25 18:26:10.417,-321.0,-972.0,207.0,-11.0,15.0,13.0,168,139,138,149,148
2025-02-25 18:26:10.421,-340.0,-1002.0,240.0,-19.0,14.0,14.0,167,138,137,148,145
2025-02-25 18:26:10.429,-307.0,-1028.0,221.0,-20.0,12.0,14.0,165,132,135,147,143
2025-02-25 18:26:10.433,-294.0,-1043.0,256.0,-20.0,10.0,16.0,171,139,140,153,148
2025-02-25 18:26:10.437,-323.0,-1055.0,246.0,-24.0,12.0,18.0,176,146,143,155,151
2025-02-25 18:26:10.445,-330.0,-1083.0,267.0,-24.0,14.0,20.0,169,140,138,150,147
2025-02-25 18:26:10.450,-357.0,-1100.0,216.0,-22.0,14.0,23.0,168,138,135,149,143
2025-02-25 18:26:10.454,-360.0,-1103.0,215.0,-28.0,15.0,25.0,166,134,133,146,141
2025-02-25 18:26:10.462,-363.0,-1081.0,179.0,-25.0,17.0,28.0,168,134,134,146,142
2025-02-25 18:26:10.466,-369.0,-1110.0,236.0,-30.0,17.0,30.0,171,141,138,151,144
2025-02-25 18:26:10.470,-371.0,-1082.0,211.0,-25.0,18.0,32.0,170,138,138,149,144
2025-02-25 18:26:10.478,-367.0,-1098.0,228.0,-25.0,23.0,34.0,173,135,133,150,143
2025-02-25 18:26:10.482,-375.0,-1067.0,184.0,-24.0,24.0,36.0,170,134,133,147,139
2025-02-25 18:26:10.487,-381.0,-1054.0,149.0,-19.0,24.0,38.0,166,132,131,144,137
2025-02-25 18:26:10.495,-357.0,-1039.0,195.0,-20.0,25.0,39.0,166,130,131,142,133
2025-02-25 18:26:10.499,-362.0,-1038.0,166.0,-19.0,26.0,41.0,174,135,139,151,141
2025-02-25 18:26:10.503,-370.0,-1012.0,147.0,-17.0,25.0,42.0,172,131,136,149,138
2025-02-25 18:26:10.511,-370.0,-987.0,132.0,-17.0,26.0,44.0,169,128,132,145,135
2025-02-25 18:26:10.515,-393.0,-983.0,133.0,-12.0,28.0,45.0,168,126,130,141,132
2025-02-25 18:26:10.520,-401.0,-964.0,136.0,-14.0,26.0,45.0,168,125,132,145,133
2025-02-25 18:26:10.524,-411.0,-932.0,160.0,-13.0,28.0,45.0,171,127,132,146,135
2025-02-25 18:26:10.532,-417.0,-938.0,169.0,-15.0,29.0,46.0,170,127,133,144,137
2025-02-25 18:26:10.536,-435.0,-931.0,130.0,-14.0,26.0,46.0,169,123,129,144,132
2025-02-25 18:26:10.541,-439.0,-939.0,162.0,-13.0,27.0,46.0,169,122,128,141,130
2025-02-25 18:26:10.548,-441.0,-925.0,117.0,-15.0,28.0,47.0,166,118,126,139,127
2025-02-25 18:26:10.552,-459.0,-908.0,152.0,-14.0,26.0,47.0,169,120,130,143,131
2025-02-25 18:26:10.557,-468.0,-898.0,101.0,-13.0,26.0,46.0,172,121,128,143,130
2025-02-25 18:26:10.564,-482.0,-901.0,168.0,-11.0,29.0,44.0,168,117,126,144,126
2025-02-25 18:26:10.569,-500.0,-883.0,164.0,-12.0,33.0,43.0,166,111,124,138,127
2025-02-25 18:26:10.573,-498.0,-860.0,131.0,-11.0,34.0,43.0,166,109,124,134,121
2025-02-25 18:26:10.577,-485.0,-853.0,117.0,-7.0,34.0,43.0,174,114,129,142,126
2025-02-25 18:26:10.585,-480.0,-838.0,133.0,-9.0,37.0,44.0,171,110,126,140,123
2025-02-25 18:26:10.589,-469.0,-821.0,115.0,-5.0,38.0,46.0,167,106,121,136,118
2025-02-25 18:26:10.594,-497.0,-825.0,101.0,-6.0,39.0,48.0,166,104,118,132,116
2025-02-25 18:26:10.601,-524.0,-817.0,105.0,-1.0,42.0,51.0,168,103,118,132,116
2025-02-25 18:26:10.606,-541.0,-782.0,101.0,-2.0,40.0,53.0,169,105,122,135,117
2025-02-25 18:26:10.610,-541.0,-790.0,79.0,-4.0,37.0,54.0,170,104,121,135,120
2025-02-25 18:26:10.614,-554.0,-774.0,88.0,-5.0,35.0,55.0,166,96,114,129,110
2025-02-25 18:26:10.622,-558.0,-743.0,89.0,-5.0,37.0,57.0,168,98,114,131,112
2025-02-25 18:26:10.626,-560.0,-740.0,98.0,-3.0,35.0,58.0,171,97,117,132,113
2025-02-25 18:26:10.630,-602.0,-733.0,91.0,-4.0,36.0,58.0,168,95,113,129,111
2025-02-25 18:26:10.635,-618.0,-713.0,59.0,-6.0,33.0,59.0,167,90,112,126,106
2025-02-25 18:26:10.639,-656.0,-754.0,121.0,-10.0,33.0,61.0,172,97,118,131,111
2025-02-25 18:26:10.647,-708.0,-679.0,48.0,-22.0,26.0,63.0,170,95,114,128,107
2025-02-25 18:26:10.651,-717.0,-630.0,42.0,-22.0,32.0,66.0,169,92,112,128,105
2025-02-25 18:26:10.655,-765.0,-575.0,196.0,-15.0,40.0,70.0,165,88,108,123,99
2025-02-25 18:26:10.663,-838.0,-537.0,192.0,-11.0,52.0,73.0,172,93,111,128,102
2025-02-25 18:26:10.667,-874.0,-467.0,158.0,-2.0,59.0,81.0,169,90,110,127,100
2025-02-25 18:26:10.671,-969.0,-439.0,181.0,1.0,67.0,91.0,169,90,109,127,99
2025-02-25 18:26:10.676,-983.0,-291.0,79.0,4.0,68.0,97.0,165,86,103,126,93
2025-02-25 18:26:10.680,-1019.0,-181.0,98.0,0.0,74.0,100.0,170,91,109,128,98
2025-02-25 18:26:10.687,-988.0,-75.0,-12.0,-6.0,77.0,102.0,169,89,103,125,94
2025-02-25 18:26:10.691,-929.0,-18.0,39.0,-13.0,82.0,92.0,165,87,102,124,90
2025-02-25 18:26:10.696,-849.0,182.0,21.0,-34.0,91.0,81.0,169,91,104,126,92
2025-02-25 18:26:10.700,-906.0,427.0,85.0,-59.0,117.0,60.0,170,90,104,127,98
2025-02-25 18:26:10.707,-946.0,439.0,-4.0,-85.0,122.0,39.0,166,83,97,120,86
2025-02-25 18:26:10.712,-912.0,574.0,367.0,-90.0,163.0,30.0,164,82,95,118,84
2025-02-25 18:26:10.716,-894.0,835.0,149.0,-68.0,184.0,6.0,168,90,100,123,90
2025-02-25 18:26:10.720,-870.0,812.0,40.0,-46.0,170.0,-18.0,166,88,98,125,90
2025-02-25 18:26:10.728,-869.0,841.0,-510.0,-14.0,140.0,-49.0,162,85,94,121,83
2025-02-25 18:26:10.732,-1053.0,635.0,372.0,88.0,124.0,-55.0,162,86,97,123,89
2025-02-25 18:26:10.736,-520.0,1208.0,-542.0,179.0,31.0,-118.0,165,88,96,122,92
2025-02-25 18:26:10.741,-556.0,2171.0,-1144.0,183.0,2.0,-187.0,159,86,96,119,89
2025-02-25 18:26:10.749,-617.0,1313.0,-1163.0,141.0,25.0,-223.0,155,82,92,115,87
2025-02-25 18:26:10.753,-1111.0,1324.0,-1151.0,83.0,75.0,-298.0,154,84,92,115,85
2025-02-25 18:26:10.758,-1996.0,1421.0,-863.0,100.0,44.0,-340.0,160,90,100,120,93
2025-02-25 18:26:10.765,-1626.0,1049.0,-982.0,120.0,-63.0,-421.0,155,88,96,118,90
2025-02-25 18:26:10.770,-1116.0,1203.0,-1257.0,115.0,-159.0,-493.0,155,86,94,115,90
2025-02-25 18:26:10.774,-783.0,1073.0,-1112.0,101.0,-191.0,-549.0,154,87,96,117,90
2025-02-25 18:26:10.782,-304.0,906.0,-732.0,67.0,-226.0,-595.0,153,88,96,116,89
2025-02-25 18:26:10.786,-16.0,561.0,-421.0,50.0,-250.0,-626.0,149,83,91,113,87
2025-02-25 18:26:10.790,651.0,336.0,-137.0,39.0,-298.0,-634.0,149,83,91,113,88
2025-02-25 18:26:10.797,1213.0,-203.0,192.0,32.0,-317.0,-627.0,153,88,95,117,93
2025-02-25 18:26:10.801,1701.0,-858.0,439.0,24.0,-298.0,-589.0,154,89,99,116,93
2025-02-25 18:26:10.806,2078.0,-1714.0,915.0,26.0,-258.0,-518.0,151,86,96,116,90
2025-02-25 18:26:10.814,2231.0,-2490.0,1321.0,47.0,-233.0,-434.0,148,85,95,115,87
2025-02-25 18:26:10.818,2495.0,-3054.0,1687.0,78.0,-177.0,-345.0,148,84,93,114,90
2025-02-25 18:26:10.822,2618.0,-3344.0,1915.0,121.0,-106.0,-298.0,149,85,97,112,89
2025-02-25 18:26:10.830,2656.0,-3707.0,2006.0,159.0,-26.0,-206.0,152,89,100,119,96
2025-02-25 18:26:10.834,2718.0,-4032.0,2033.0,188.0,66.0,-125.0,152,90,103,116,94
2025-02-25 18:26:10.839,2525.0,-4082.0,1830.0,197.0,115.0,-47.0,155,94,108,120,99
2025-02-25 18:26:10.846,2141.0,-3734.0,1229.0,232.0,200.0,12.0,148,86,102,107,91
2025-02-25 18:26:10.851,1732.0,-3476.0,1125.0,236.0,170.0,38.0,148,86,105,105,90
2025-02-25 18:26:10.855,1495.0,-2545.0,970.0,191.0,138.0,63.0,147,86,104,102,89
2025-02-25 18:26:10.863,1080.0,-2442.0,660.0,115.0,134.0,74.0,153,91,110,110,94
2025-02-25 18:26:10.867,836.0,-1994.0,557.0,5.0,110.0,91.0,153,92,109,110,95
2025-02-25 18:26:10.871,616.0,-1902.0,273.0,-22.0,57.0,91.0,149,90,107,111,93
2025-02-25 18:26:10.876,626.0,-1692.0,122.0,-108.0,40.0,88.0,149,89,102,115,91
2025-02-25 18:26:10.883,602.0,-1783.0,35.0,-160.0,15.0,85.0,146,87,99,113,91
2025-02-25 18:26:10.888,551.0,-1897.0,18.0,-189.0,-2.0,86.0,150,92,105,118,94
2025-02-25 18:26:10.893,554.0,-2132.0,-74.0,-194.0,8.0,98.0,150,95,100,117,93
2025-02-25 18:26:10.897,500.0,-2281.0,-40.0,-201.0,10.0,115.0,149,93,96,119,96
2025-02-25 18:26:10.904,468.0,-2241.0,-33.0,-193.0,4.0,133.0,147,89,95,116,93
2025-02-25 18:26:10.909,286.0,-2402.0,8.0,-170.0,-31.0,162.0,149,90,96,120,96
2025-02-25 18:26:10.913,421.0,-2285.0,74.0,-162.0,-55.0,188.0,147,88,97,118,93
2025-02-25 18:26:10.918,505.0,-2112.0,169.0,-144.0,-49.0,217.0,146,91,95,118,95
2025-02-25 18:26:10.925,471.0,-2026.0,326.0,-135.0,-54.0,226.0,145,88,93,114,91
2025-02-25 18:26:10.929,493.0,-1853.0,435.0,-125.0,-64.0,245.0,151,91,97,119,95
2025-02-25 18:26:10.934,540.0,-1607.0,525.0,-120.0,-67.0,257.0,150,93,100,119,95
2025-02-25 18:26:10.941,550.0,-1507.0,559.0,-112.0,-71.0,267.0,150,93,101,119,96
2025-02-25 18:26:10.946,433.0,-1317.0,587.0,-107.0,-71.0,274.0,147,89,97,112,91
2025-02-25 18:26:10.950,449.0,-1186.0,563.0,-107.0,-62.0,275.0,148,88,97,113,92
2025-02-25 18:26:10.957,416.0,-1114.0,524.0,-107.0,-55.0,276.0,152,93,105,117,95
2025-02-25 18:26:10.962,299.0,-1015.0,476.0,-110.0,-54.0,275.0,151,93,106,120,99
2025-02-25 18:26:10.966,223.0,-907.0,409.0,-114.0,-39.0,274.0,151,94,105,120,95
2025-02-25 18:26:10.971,163.0,-697.0,336.0,-120.0,-28.0,272.0,147,90,102,116,93
2025-02-25 18:26:10.978,100.0,-605.0,307.0,-127.0,-21.0,267.0,153,94,103,118,96
2025-02-25 18:26:10.982,-37.0,-595.0,284.0,-131.0,-10.0,267.0,148,90,101,115,91
2025-02-25 18:26:10.987,-122.0,-521.0,251.0,-129.0,-13.0,263.0,151,96,107,121,95
2025-02-25 18:26:10.995,-200.0,-427.0,266.0,-125.0,-14.0,262.0,152,92,105,119,96
2025-02-25 18:26:10.999,-231.0,-347.0,234.0,-121.0,-18.0,257.0,152,95,105,121,98
2025-02-25 18:26:11.003,-283.0,-267.0,245.0,-110.0,-19.0,252.0,148,90,99,114,93
2025-02-25 18:26:11.011,-316.0,-259.0,238.0,-97.0,-11.0,250.0,149,89,98,113,92
2025-02-25 18:26:11.015,-357.0,-210.0,190.0,-83.0,-10.0,242.0,152,93,101,116,96
2025-02-25 18:26:11.020,-335.0,-235.0,222.0,-71.0,-5.0,231.0,154,93,106,117,97
2025-02-25 18:26:11.024,-412.0,-169.0,173.0,-63.0,4.0,222.0,151,91,97,114,95
2025-02-25 18:26:11.031,-385.0,-154.0,158.0,-53.0,13.0,212.0,147,89,98,115,90
2025-02-25 18:26:11.036,-417.0,-167.0,102.0,-40.0,28.0,206.0,151,92,103,119,96
2025-02-25 18:26:11.040,-577.0,-152.0,1.0,-27.0,44.0,196.0,153,93,103,119,99
2025-02-25 18:26:11.044,-584.0,-167.0,12.0,-16.0,54.0,183.0,149,87,99,117,93
2025-02-25 18:26:11.052,-646.0,-116.0,-72.0,2.0,56.0,170.0,150,87,98,115,93
2025-02-25 18:26:11.056,-668.0,-123.0,-81.0,16.0,65.0,163.0,152,89,102,119,96
2025-02-25 18:26:11.060,-747.0,-2.0,-179.0,20.0,79.0,154.0,151,91,103,120,96
2025-02-25 18:26:11.065,-704.0,9.0,-187.0,28.0,83.0,145.0,149,88,98,115,92
2025-02-25 18:26:11.069,-834.0,30.0,-240.0,33.0,84.0,141.0,152,92,101,118,96
2025-02-25 18:26:11.076,-857.0,104.0,-236.0,32.0,81.0,136.0,151,92,99,120,96
2025-02-25 18:26:11.081,-928.0,244.0,-254.0,31.0,71.0,132.0,151,91,97,117,94
2025-02-25 18:26:11.085,-916.0,335.0,-272.0,27.0,64.0,129.0,148,88,95,115,92
2025-02-25 18:26:11.089,-961.0,373.0,-275.0,22.0,50.0,125.0,154,94,98,120,96
2025-02-25 18:26:11.097,-984.0,482.0,-291.0,19.0,39.0,116.0,152,90,96,117,95
2025-02-25 18:26:11.101,-966.0,502.0,-249.0,15.0,33.0,110.0,149,89,95,116,93
2025-02-25 18:26:11.105,-983.0,585.0,-290.0,11.0,26.0,107.0,155,94,100,120,97
2025-02-25 18:26:11.109,-1013.0,689.0,-292.0,11.0,5.0,95.0,154,90,100,121,98
2025-02-25 18:26:11.117,-970.0,760.0,-295.0,9.0,-1.0,81.0,153,89,99,124,94
2025-02-25 18:26:11.121,-1013.0,790.0,-316.0,2.0,-1.0,74.0,150,87,95,117,94
2025-02-25 18:26:11.126,-1044.0,854.0,-292.0,1.0,-1.0,60.0,156,93,100,120,98
2025-02-25 18:26:11.130,-1003.0,920.0,-295.0,3.0,-10.0,40.0,155,91,99,121,97
2025-02-25 18:26:11.138,-1015.0,990.0,-283.0,10.0,-7.0,15.0,150,87,96,115,91
2025-02-25 18:26:11.142,-1034.0,1013.0,-276.0,19.0,3.0,0.0,156,94,101,122,99
2025-02-25 18:26:11.146,-1055.0,1061.0,-268.0,37.0,13.0,-32.0,155,90,105,121,98
2025-02-25 18:26:11.150,-1102.0,1123.0,-222.0,51.0,13.0,-70.0,154,88,98,118,95
2025-02-25 18:26:11.158,-1090.0,1233.0,-235.0,79.0,13.0,-113.0,156,90,98,121,96
2025-02-25 18:26:11.162,-1050.0,1284.0,-252.0,100.0,23.0,-136.0,153,89,98,118,94
2025-02-25 18:26:11.167,-1088.0,1382.0,-259.0,115.0,33.0,-184.0,158,89,100,122,97
2025-02-25 18:26:11.174,-1090.0,1475.0,-284.0,127.0,29.0,-234.0,157,92,101,122,98
2025-02-25 18:26:11.179,-1075.0,1535.0,-321.0,131.0,17.0,-288.0,157,92,102,123,100
2025-02-25 18:26:11.183,-966.0,1521.0,-297.0,130.0,1.0,-345.0,156,92,101,122,99
2025-02-25 18:26:11.191,-934.0,1458.0,-281.0,120.0,-5.0,-412.0,152,87,96,118,95
2025-02-25 18:26:11.195,-771.0,1466.0,-256.0,97.0,-23.0,-448.0,151,86,95,118,93
2025-02-25 18:26:11.200,-646.0,1414.0,-225.0,65.0,-49.0,-523.0,157,94,102,124,99
2025-02-25 18:26:11.207,-387.0,1313.0,-190.0,28.0,-83.0,-601.0,156,92,100,123,99
2025-02-25 18:26:11.212,53.0,1045.0,-99.0,10.0,-118.0,-670.0,155,91,100,121,96
2025-02-25 18:26:11.216,343.0,544.0,16.0,-25.0,-133.0,-719.0,154,84,97,119,100
2025-02-25 18:26:11.220,897.0,202.0,115.0,-44.0,-159.0,-733.0,151,87,98,119,96
2025-02-25 18:26:11.228,1247.0,-690.0,208.0,-48.0,-171.0,-728.0,157,91,102,125,103
2025-02-25 18:26:11.232,1609.0,-1717.0,528.0,-27.0,-170.0,-663.0,155,91,102,127,102
2025-02-25 18:26:11.237,2050.0,-2851.0,922.0,8.0,-161.0,-566.0,161,96,107,130,106
2025-02-25 18:26:11.245,2411.0,-3905.0,1257.0,35.0,-129.0,-434.0,155,90,102,126,102
2025-02-25 18:26:11.249,2541.0,-4809.0,1532.0,96.0,-71.0,-284.0,154,90,102,123,100
2025-02-25 18:26:11.257,2618.0,-5324.0,1635.0,167.0,-31.0,-148.0,152,89,102,121,98
2025-02-25 18:26:11.260,2749.0,-5468.0,1548.0,227.0,61.0,-46.0,153,89,103,121,102
2025-02-25 18:26:11.265,2916.0,-5463.0,1283.0,257.0,147.0,6.0,150,88,104,114,98
2025-02-25 18:26:11.269,2523.0,-5119.0,772.0,337.0,226.0,58.0,157,94,111,117,105
2025-02-25 18:26:11.277,1932.0,-4008.0,603.0,351.0,230.0,82.0,155,95,115,111,103
2025-02-25 18:26:11.281,1387.0,-2988.0,399.0,320.0,239.0,93.0,158,92,115,114,103
2025-02-25 18:26:11.285,1248.0,-2124.0,134.0,224.0,216.0,102.0,154,89,113,112,98
2025-02-25 18:26:11.294,1022.0,-1758.0,-58.0,45.0,201.0,130.0,149,89,109,110,97
2025-02-25 18:26:11.298,630.0,-1704.0,-216.0,-59.0,129.0,127.0,151,94,108,114,98
2025-02-25 18:26:11.302,610.0,-1658.0,-398.0,-146.0,62.0,127.0,155,98,110,118,104
2025-02-25 18:26:11.310,466.0,-1808.0,-388.0,-194.0,15.0,126.0,155,95,107,121,105
2025-02-25 18:26:11.314,415.0,-2013.0,-468.0,-206.0,-3.0,127.0,155,94,102,121,101
2025-02-25 18:26:11.319,416.0,-2177.0,-479.0,-210.0,-5.0,128.0,156,94,102,125,104
2025-02-25 18:26:11.326,410.0,-2293.0,-361.0,-212.0,-1.0,136.0,152,89,98,122,99
2025-02-25 18:26:11.330,244.0,-2323.0,-350.0,-192.0,-31.0,141.0,153,91,98,123,100
2025-02-25 18:26:11.334,261.0,-2330.0,-291.0,-160.0,-74.0,153.0,156,97,102,127,105
2025-02-25 18:26:11.342,304.0,-2215.0,-276.0,-138.0,-114.0,168.0,160,95,102,129,106
2025-02-25 18:26:11.346,408.0,-2021.0,-168.0,-117.0,-122.0,185.0,158,95,102,128,105
2025-02-25 18:26:11.354,362.0,-1833.0,-20.0,-101.0,-129.0,197.0,158,95,101,126,104
2025-02-25 18:26:11.358,421.0,-1685.0,186.0,-95.0,-138.0,215.0,161,97,107,127,107
2025-02-25 18:26:11.363,514.0,-1423.0,339.0,-86.0,-156.0,216.0,155,91,103,123,104
2025-02-25 18:26:11.371,526.0,-1330.0,509.0,-80.0,-162.0,227.0,155,92,102,117,101
2025-02-25 18:26:11.375,459.0,-1053.0,553.0,-87.0,-149.0,235.0,155,92,101,117,98
2025-02-25 18:26:11.379,475.0,-1075.0,568.0,-96.0,-117.0,238.0,157,94,107,121,103
2025-02-25 18:26:11.387,388.0,-958.0,495.0,-104.0,-107.0,244.0,158,94,106,123,105
2025-02-25 18:26:11.392,250.0,-784.0,491.0,-116.0,-94.0,251.0,159,95,109,126,105
2025-02-25 18:26:11.396,334.0,-703.0,534.0,-125.0,-67.0,255.0,161,99,112,127,107
2025-02-25 18:26:11.401,124.0,-605.0,483.0,-152.0,-47.0,258.0,154,91,105,123,103
2025-02-25 18:26:11.408,54.0,-459.0,426.0,-172.0,-35.0,259.0,156,88,102,122,100
2025-02-25 18:26:11.412,-31.0,-371.0,346.0,-179.0,-26.0,257.0,158,90,103,121,98
2025-02-25 18:26:11.417,-140.0,-340.0,382.0,-177.0,-34.0,248.0,161,99,108,128,107
2025-02-25 18:26:11.424,-326.0,-305.0,276.0,-152.0,-46.0,242.0,160,95,106,127,104
2025-02-25 18:26:11.429,-428.0,-242.0,248.0,-139.0,-63.0,235.0,158,95,104,124,104
2025-02-25 18:26:11.433,-458.0,-237.0,259.0,-104.0,-72.0,230.0,158,90,102,120,99
2025-02-25 18:26:11.441,-495.0,-220.0,260.0,-82.0,-71.0,220.0,158,92,102,120,101
2025-02-25 18:26:11.445,-464.0,-212.0,218.0,-61.0,-59.0,218.0,156,92,100,116,99
2025-02-25 18:26:11.450,-478.0,-114.0,276.0,-55.0,-39.0,212.0,160,95,106,123,103
2025-02-25 18:26:11.457,-489.0,-114.0,273.0,-47.0,-18.0,211.0,155,95,108,120,106
2025-02-25 18:26:11.462,-645.0,-101.0,205.0,-46.0,-6.0,213.0,160,95,108,124,103
2025-02-25 18:26:11.466,-673.0,-77.0,149.0,-34.0,1.0,212.0,158,89,101,120,100
2025-02-25 18:26:11.470,-682.0,-69.0,119.0,-15.0,29.0,211.0,158,95,104,119,99
2025-02-25 18:26:11.478,-713.0,12.0,132.0,-14.0,50.0,211.0,169,101,111,131,110
2025-02-25 18:26:11.482,-834.0,80.0,13.0,-8.0,60.0,209.0,164,96,109,127,106
2025-02-25 18:26:11.486,-840.0,217.0,-3.0,-4.0,59.0,205.0,160,92,102,122,101
2025-02-25 18:26:11.490,-905.0,275.0,-61.0,13.0,61.0,200.0,161,94,104,121,99
2025-02-25 18:26:11.498,-826.0,397.0,-46.0,19.0,51.0,191.0,166,101,112,129,108
2025-02-25 18:26:11.502,-916.0,613.0,-99.0,18.0,42.0,177.0,163,96,104,125,103
2025-02-25 18:26:11.507,-935.0,592.0,-139.0,22.0,44.0,172.0,159,90,98,119,99
2025-02-25 18:26:11.511,-982.0,681.0,-46.0,27.0,38.0,165.0,165,97,104,124,104
2025-02-25 18:26:11.519,-1056.0,845.0,-179.0,36.0,17.0,148.0,167,99,107,127,107
2025-02-25 18:26:11.523,-977.0,903.0,-137.0,38.0,12.0,125.0,163,93,104,122,102
2025-02-25 18:26:11.527,-1078.0,1073.0,-198.0,29.0,13.0,106.0,162,92,100,119,100
2025-02-25 18:26:11.535,-1122.0,1104.0,-188.0,30.0,6.0,96.0,162,92,98,120,101
2025-02-25 18:26:11.539,-1092.0,1192.0,-215.0,36.0,-7.0,67.0,166,96,105,125,106
2025-02-25 18:26:11.544,-1181.0,1296.0,-190.0,37.0,-9.0,33.0,165,95,103,123,105
2025-02-25 18:26:11.548,-1213.0,1469.0,-179.0,36.0,3.0,-5.0,166,95,103,122,104
2025-02-25 18:26:11.555,-1194.0,1542.0,-154.0,44.0,7.0,-52.0,163,91,99,118,100
2025-02-25 18:26:11.560,-1217.0,1568.0,-102.0,58.0,4.0,-77.0,163,92,100,118,100
2025-02-25 18:26:11.564,-1202.0,1689.0,-127.0,72.0,2.0,-126.0,164,95,104,123,105
2025-02-25 18:26:11.572,-1181.0,1719.0,-117.0,86.0,5.0,-170.0,168,97,104,122,104
2025-02-25 18:26:11.576,-1156.0,1722.0,-165.0,93.0,6.0,-209.0,169,100,101,125,104
2025-02-25 18:26:11.580,-1132.0,1690.0,-149.0,111.0,5.0,-246.0,165,93,100,125,102
2025-02-25 18:26:11.588,-1137.0,1640.0,-119.0,131.0,-6.0,-284.0,162,89,100,118,99
2025-02-25 18:26:11.593,-1125.0,1565.0,-107.0,152.0,-20.0,-304.0,162,90,100,117,98
2025-02-25 18:26:11.597,-1026.0,1499.0,-96.0,176.0,-27.0,-346.0,169,94,106,124,106
2025-02-25 18:26:11.605,-880.0,1372.0,-57.0,201.0,-23.0,-392.0,171,96,106,124,105
2025-02-25 18:26:11.609,-656.0,1238.0,2.0,226.0,-12.0,-442.0,169,94,104,122,104
2025-02-25 18:26:11.614,-432.0,1087.0,70.0,238.0,-3.0,-493.0,168,93,100,123,103
2025-02-25 18:26:11.621,-371.0,998.0,172.0,254.0,0.0,-546.0,166,92,102,122,101
2025-02-25 18:26:11.626,-33.0,913.0,154.0,252.0,-6.0,-571.0,164,89,100,120,99
2025-02-25 18:26:11.630,112.0,824.0,182.0,210.0,-17.0,-615.0,169,93,105,123,105
2025-02-25 18:26:11.634,174.0,683.0,86.0,161.0,-48.0,-642.0,172,94,106,126,105
2025-02-25 18:26:11.642,300.0,526.0,-55.0,138.0,-94.0,-655.0,169,86,102,124,102
2025-02-25 18:26:11.646,329.0,189.0,-41.0,85.0,-115.0,-640.0,168,88,96,121,99
2025-02-25 18:26:11.651,580.0,-51.0,-17.0,40.0,-157.0,-627.0,174,90,103,124,103
2025-02-25 18:26:11.658,876.0,-605.0,0.0,23.0,-195.0,-592.0,177,95,106,128,107
2025-02-25 18:26:11.663,1547.0,-1476.0,174.0,17.0,-219.0,-561.0,173,90,102,124,103
2025-02-25 18:26:11.667,2145.0,-2424.0,478.0,12.0,-225.0,-527.0,174,89,99,122,100
2025-02-25 18:26:11.674,2494.0,-3467.0,1048.0,46.0,-217.0,-463.0,172,85,99,119,100
2025-02-25 18:26:11.678,3222.0,-4703.0,1839.0,113.0,-162.0,-357.0,178,91,105,123,104
2025-02-25 18:26:11.683,3681.0,-5676.0,2420.0,178.0,-61.0,-290.0,174,91,103,118,100
2025-02-25 18:26:11.690,3758.0,-6045.0,2450.0,305.0,38.0,-157.0,173,85,103,114,98
2025-02-25 18:26:11.694,3725.0,-6119.0,2375.0,381.0,131.0,-38.0,180,90,109,115,103
2025-02-25 18:26:11.699,3404.0,-5652.0,2265.0,439.0,185.0,41.0,181,95,114,115,104
2025-02-25 18:26:11.707,2826.0,-4274.0,1436.0,402.0,327.0,96.0,180,92,115,112,100
2025-02-25 18:26:11.711,2251.0,-3534.0,876.0,343.0,357.0,154.0,179,91,112,107,97
2025-02-25 18:26:11.716,1577.0,-2521.0,273.0,186.0,327.0,192.0,176,90,109,107,96
2025-02-25 18:26:11.723,1372.0,-1974.0,-140.0,13.0,258.0,219.0,177,88,107,105,94
2025-02-25 18:26:11.728,842.0,-1612.0,-611.0,-112.0,167.0,217.0,177,88,108,107,95
2025-02-25 18:26:11.732,617.0,-1411.0,-567.0,-180.0,74.0,205.0,180,94,111,115,101
2025-02-25 18:26:11.739,545.0,-1420.0,-616.0,-206.0,20.0,195.0,184,97,108,118,103
2025-02-25 18:26:11.744,505.0,-1649.0,-383.0,-210.0,-7.0,183.0,180,95,103,117,98
2025-02-25 18:26:11.748,556.0,-1934.0,-114.0,-229.0,2.0,174.0,178,90,100,117,99
2025-02-25 18:26:11.756,495.0,-2036.0,51.0,-239.0,-3.0,185.0,177,90,96,116,96
2025-02-25 18:26:11.760,615.0,-1942.0,225.0,-213.0,-32.0,196.0,181,93,98,119,100
2025-02-25 18:26:11.765,506.0,-2312.0,357.0,-170.0,-68.0,208.0,180,96,103,124,102
2025-02-25 18:26:11.772,936.0,-1761.0,592.0,-143.0,-56.0,223.0,179,92,101,122,102
2025-02-25 18:26:11.777,733.0,-1478.0,574.0,-118.0,-47.0,227.0,182,94,104,124,106
2025-02-25 18:26:11.781,564.0,-1336.0,654.0,-77.0,-48.0,223.0,178,93,98,118,98
2025-02-25 18:26:11.789,690.0,-1157.0,623.0,-82.0,-42.0,231.0,176,90,97,114,97
2025-02-25 18:26:11.793,370.0,-1036.0,613.0,-94.0,-37.0,229.0,182,97,105,115,99
2025-02-25 18:26:11.797,259.0,-798.0,631.0,-117.0,-56.0,228.0,186,98,107,116,104
2025-02-25 18:26:11.802,94.0,-693.0,419.0,-125.0,-54.0,227.0,182,93,108,114,103
2025-02-25 18:26:11.809,-107.0,-757.0,325.0,-134.0,-51.0,226.0,176,90,105,111,99
2025-02-25 18:26:11.814,-163.0,-621.0,261.0,-156.0,-44.0,232.0,176,89,105,112,98
2025-02-25 18:26:11.818,-200.0,-624.0,198.0,-183.0,-37.0,232.0,177,89,103,111,98
2025-02-25 18:26:11.826,-206.0,-577.0,172.0,-215.0,-41.0,235.0,181,96,108,118,102
2025-02-25 18:26:11.830,-275.0,-567.0,172.0,-245.0,-44.0,239.0,182,97,107,119,102
2025-02-25 18:26:11.834,-376.0,-520.0,93.0,-241.0,-41.0,236.0,181,96,112,121,103
2025-02-25 18:26:11.842,-331.0,-401.0,212.0,-225.0,-45.0,223.0,180,92,104,119,101
2025-02-25 18:26:11.846,-272.0,-291.0,251.0,-195.0,-45.0,199.0,177,89,98,118,100
2025-02-25 18:26:11.851,-347.0,-261.0,346.0,-147.0,-49.0,186.0,177,89,101,117,98
2025-02-25 18:26:11.859,-426.0,-285.0,338.0,-105.0,-56.0,168.0,183,97,108,124,105
2025-02-25 18:26:11.863,-530.0,-348.0,337.0,-56.0,-63.0,158.0,181,97,105,121,102
2025-02-25 18:26:11.867,-613.0,-322.0,333.0,-25.0,-59.0,156.0,181,93,104,119,102
2025-02-25 18:26:11.875,-631.0,-278.0,309.0,-14.0,-41.0,156.0,179,93,105,118,101
2025-02-25 18:26:11.879,-703.0,-288.0,359.0,0.0,-34.0,156.0,179,92,103,115,99
2025-02-25 18:26:11.883,-753.0,-218.0,312.0,8.0,-16.0,157.0,175,89,101,112,95
2025-02-25 18:26:11.887,-783.0,-145.0,307.0,10.0,6.0,154.0,181,94,107,120,102
2025-02-25 18:26:11.895,-796.0,-71.0,258.0,7.0,37.0,150.0,180,94,107,118,101
2025-02-25 18:26:11.900,-819.0,-23.0,234.0,11.0,43.0,144.0,177,91,105,116,99
2025-02-25 18:26:11.904,-859.0,-17.0,171.0,4.0,58.0,142.0,179,93,106,118,99
2025-02-25 18:26:11.908,-902.0,65.0,129.0,1.0,74.0,138.0,183,96,109,121,102
2025-02-25 18:26:11.916,-960.0,155.0,85.0,-4.0,80.0,132.0,175,92,103,117,98
2025-02-25 18:26:11.920,-965.0,201.0,30.0,0.0,83.0,125.0,176,90,102,117,96
2025-02-25 18:26:11.924,-1012.0,361.0,37.0,11.0,83.0,110.0,181,96,104,122,101
2025-02-25 18:26:11.929,-1034.0,454.0,27.0,16.0,84.0,93.0,181,94,103,120,101
2025-02-25 18:26:11.933,-1010.0,577.0,39.0,29.0,81.0,70.0,176,88,99,116,97
2025-02-25 18:26:11.941,-1106.0,634.0,122.0,33.0,67.0,58.0,183,96,107,123,103
2025-02-25 18:26:11.945,-1172.0,757.0,49.0,43.0,60.0,35.0,180,93,101,120,101
2025-02-25 18:26:11.949,-1133.0,829.0,28.0,53.0,53.0,15.0,177,90,100,118,98
2025-02-25 18:26:11.953,-1121.0,837.0,16.0,56.0,40.0,2.0,182,93,104,121,101
2025-02-25 18:26:11.961,-1198.0,976.0,-8.0,57.0,45.0,-22.0,180,96,105,121,103
2025-02-25 18:26:11.966,-1291.0,897.0,-22.0,61.0,49.0,-42.0,177,89,101,118,99
2025-02-25 18:26:11.970,-1269.0,903.0,-19.0,62.0,51.0,-68.0,177,89,101,119,98
2025-02-25 18:26:11.974,-1218.0,916.0,-9.0,70.0,51.0,-81.0,180,94,104,123,104
2025-02-25 18:26:11.982,-1108.0,884.0,-7.0,60.0,72.0,-103.0,184,95,107,123,103
2025-02-25 18:26:11.986,-1164.0,810.0,-37.0,65.0,95.0,-125.0,172,89,100,116,97
2025-02-25 18:26:11.990,-1152.0,853.0,20.0,83.0,98.0,-153.0,176,89,99,116,97
2025-02-25 18:26:11.994,-1116.0,918.0,-2.0,107.0,103.0,-168.0,180,96,106,127,106
2025-02-25 18:26:12.002,-1082.0,959.0,-6.0,130.0,114.0,-195.0,181,94,105,123,101
2025-02-25 18:26:12.007,-1109.0,931.0,-59.0,143.0,117.0,-222.0,179,92,102,121,101
2025-02-25 18:26:12.011,-1184.0,854.0,-146.0,168.0,109.0,-249.0,178,91,101,120,99
2025-02-25 18:26:12.019,-1142.0,770.0,-226.0,186.0,103.0,-276.0,178,93,102,120,101
2025-02-25 18:26:12.023,-1161.0,694.0,-358.0,199.0,89.0,-296.0,177,90,99,118,98
2025-02-25 18:26:12.027,-1156.0,741.0,-468.0,212.0,70.0,-308.0,181,93,102,121,101
2025-02-25 18:26:12.035,-1122.0,626.0,-511.0,216.0,43.0,-323.0,180,91,104,123,102
2025-02-25 18:26:12.039,-956.0,615.0,-524.0,214.0,6.0,-347.0,183,96,107,124,104
2025-02-25 18:26:12.044,-667.0,657.0,-404.0,207.0,-33.0,-378.0,179,91,103,120,100
2025-02-25 18:26:12.051,-307.0,677.0,-268.0,190.0,-72.0,-415.0,177,89,101,119,99
2025-02-25 18:26:12.056,-145.0,700.0,-112.0,160.0,-92.0,-454.0,178,86,102,118,98
2025-02-25 18:26:12.060,186.0,649.0,70.0,118.0,-129.0,-473.0,177,88,101,118,98
2025-02-25 18:26:12.068,546.0,362.0,131.0,69.0,-158.0,-503.0,184,94,102,122,102
2025-02-25 18:26:12.072,844.0,-330.0,252.0,48.0,-178.0,-513.0,181,96,106,123,104
2025-02-25 18:26:12.077,1174.0,-1211.0,460.0,21.0,-184.0,-503.0,183,96,107,125,105
2025-02-25 18:26:12.084,1686.0,-2176.0,823.0,20.0,-181.0,-473.0,178,90,103,121,100
2025-02-25 18:26:12.088,2002.0,-3106.0,1221.0,41.0,-162.0,-419.0,177,88,101,121,100
2025-02-25 18:26:12.092,2631.0,-4084.0,1717.0,69.0,-118.0,-329.0,177,88,104,121,101
2025-02-25 18:26:12.100,3083.0,-4431.0,2208.0,116.0,-58.0,-274.0,178,91,104,118,101
2025-02-25 18:26:12.104,3377.0,-5110.0,2528.0,160.0,38.0,-151.0,181,92,106,117,102
2025-02-25 18:26:12.112,3364.0,-5488.0,2477.0,227.0,103.0,-37.0,187,95,110,116,103
2025-02-25 18:26:12.117,3311.0,-5031.0,2356.0,238.0,150.0,51.0,184,94,110,115,103
2025-02-25 18:26:12.122,2806.0,-4334.0,1715.0,210.0,227.0,107.0,183,95,113,114,105
2025-02-25 18:26:12.129,2320.0,-3663.0,1085.0,166.0,264.0,155.0,181,94,111,110,101
2025-02-25 18:26:12.133,1807.0,-2930.0,531.0,41.0,218.0,190.0,178,90,108,110,101
2025-02-25 18:26:12.138,1523.0,-2405.0,43.0,-63.0,179.0,212.0,182,93,112,113,104
2025-02-25 18:26:12.145,1007.0,-2279.0,-387.0,-169.0,117.0,219.0,178,89,105,108,98
2025-02-25 18:26:12.150,829.0,-1750.0,-585.0,-192.0,84.0,217.0,183,95,109,115,103
2025-02-25 18:26:12.155,699.0,-1735.0,-541.0,-214.0,68.0,226.0,181,96,109,117,104
2025-02-25 18:26:12.162,510.0,-1995.0,-549.0,-209.0,47.0,216.0,184,96,105,120,104
2025-02-25 18:26:12.166,507.0,-2024.0,-422.0,-215.0,17.0,217.0,183,95,102,120,102
2025-02-25 18:26:12.170,358.0,-1886.0,-367.0,-230.0,-27.0,223.0,178,92,98,119,99
2025-02-25 18:26:12.178,180.0,-2130.0,-228.0,-233.0,-41.0,247.0,181,94,102,124,103
2025-02-25 18:26:12.182,375.0,-1773.0,-213.0,-191.0,-105.0,247.0,180,91,99,119,101
2025-02-25 18:26:12.187,375.0,-1480.0,-27.0,-156.0,-130.0,251.0,176,90,97,118,97
2025-02-25 18:26:12.194,433.0,-1456.0,38.0,-113.0,-118.0,259.0,182,94,101,123,103
2025-02-25 18:26:12.198,501.0,-1187.0,324.0,-85.0,-150.0,255.0,183,98,104,122,105
2025-02-25 18:26:12.203,365.0,-1202.0,528.0,-83.0,-163.0,255.0,181,95,104,116,102
2025-02-25 18:26:12.210,448.0,-898.0,793.0,-100.0,-152.0,251.0,181,94,105,114,102
2025-02-25 18:26:12.215,426.0,-730.0,891.0,-108.0,-143.0,237.0,177,92,104,112,100
2025-02-25 18:26:12.219,348.0,-673.0,947.0,-102.0,-117.0,224.0,180,92,105,115,102
2025-02-25 18:26:12.227,246.0,-598.0,893.0,-112.0,-70.0,224.0,177,93,104,111,101
2025-02-25 18:26:12.231,16.0,-521.0,819.0,-131.0,-9.0,232.0,182,98,112,117,103
2025-02-25 18:26:12.235,-149.0,-412.0,746.0,-170.0,35.0,242.0,188,101,114,124,108
2025-02-25 18:26:12.244,-324.0,-315.0,666.0,-195.0,52.0,250.0,182,94,109,121,105
2025-02-25 18:26:12.247,-395.0,-71.0,512.0,-220.0,56.0,250.0,179,90,105,117,100
2025-02-25 18:26:12.252,-439.0,-21.0,388.0,-208.0,66.0,248.0,178,92,105,118,101
2025-02-25 18:26:12.256,-563.0,31.0,290.0,-182.0,61.0,238.0,182,95,110,123,106
2025-02-25 18:26:12.264,-606.0,107.0,223.0,-147.0,38.0,214.0,182,96,108,122,104
2025-02-25 18:26:12.268,-700.0,111.0,148.0,-135.0,7.0,194.0,180,93,106,120,102
2025-02-25 18:26:12.272,-709.0,141.0,84.0,-117.0,-8.0,176.0,178,92,104,119,99
2025-02-25 18:26:12.281,-731.0,106.0,49.0,-99.0,-38.0,166.0,179,92,104,118,100
2025-02-25 18:26:12.285,-725.0,27.0,5.0,-80.0,-57.0,144.0,174,93,106,120,104
2025-02-25 18:26:12.289,-719.0,-13.0,72.0,-71.0,-67.0,132.0,180,94,104,120,103
2025-02-25 18:26:12.293,-774.0,93.0,69.0,-83.0,-65.0,118.0,178,92,102,119,102
2025-02-25 18:26:12.301,-734.0,73.0,118.0,-81.0,-50.0,114.0,177,94,101,119,101
2025-02-25 18:26:12.305,-753.0,21.0,85.0,-80.0,-26.0,114.0,188,97,107,126,107
2025-02-25 18:26:12.310,-778.0,-49.0,239.0,-89.0,15.0,114.0,179,93,105,124,106
2025-02-25 18:26:12.314,-805.0,-38.0,223.0,-73.0,28.0,110.0,178,89,103,123,104
2025-02-25 18:26:12.322,-876.0,113.0,208.0,-62.0,50.0,105.0,177,94,107,125,107
2025-02-25 18:26:12.326,-833.0,65.0,57.0,-42.0,69.0,97.0,182,94,111,129,110
2025-02-25 18:26:12.330,-849.0,181.0,30.0,-37.0,74.0,79.0,177,98,109,129,110
2025-02-25 18:26:12.335,-835.0,224.0,8.0,-40.0,74.0,65.0,180,99,117,134,114
2025-02-25 18:26:12.342,-949.0,306.0,-92.0,-32.0,66.0,55.0,179,99,113,134,115
2025-02-25 18:26:12.347,-977.0,355.0,-209.0,-7.0,44.0,41.0,175,99,110,135,114
2025-02-25 18:26:12.351,-1072.0,289.0,-245.0,2.0,21.0,26.0,177,100,111,132,115
2025-02-25 18:26:12.355,-1063.0,358.0,-207.0,11.0,8.0,9.0,180,100,110,134,118
2025-02-25 18:26:12.363,-1092.0,357.0,-181.0,7.0,-12.0,8.0,180,103,112,136,118
2025-02-25 18:26:12.367,-1042.0,342.0,-182.0,10.0,-20.0,-2.0,179,101,111,135,119
2025-02-25 18:26:12.371,-999.0,430.0,-222.0,15.0,-22.0,-14.0,179,103,110,136,120
2025-02-25 18:26:12.379,-988.0,410.0,-184.0,16.0,-21.0,-21.0,178,105,113,136,120
2025-02-25 18:26:12.383,-974.0,428.0,-247.0,8.0,-21.0,-30.0,175,102,112,135,121
2025-02-25 18:26:12.388,-993.0,477.0,-217.0,12.0,-18.0,-35.0,173,101,112,135,119
2025-02-25 18:26:12.395,-1029.0,498.0,-204.0,15.0,-13.0,-42.0,180,108,117,139,127
2025-02-25 18:26:12.400,-964.0,580.0,-183.0,31.0,-6.0,-54.0,181,109,120,141,128
2025-02-25 18:26:12.404,-970.0,592.0,-159.0,41.0,-1.0,-71.0,177,108,118,142,129
2025-02-25 18:26:12.412,-973.0,618.0,-181.0,60.0,-1.0,-88.0,175,105,117,139,128
2025-02-25 18:26:12.416,-990.0,700.0,-215.0,84.0,-9.0,-103.0,175,105,119,140,127
2025-02-25 18:26:12.420,-1024.0,667.0,-152.0,114.0,-10.0,-114.0,179,114,124,143,135
2025-02-25 18:26:12.428,-1020.0,727.0,-155.0,148.0,-9.0,-134.0,179,115,125,144,136
2025-02-25 18:26:12.432,-1013.0,616.0,-228.0,178.0,-11.0,-153.0,178,117,127,142,136
2025-02-25 18:26:12.437,-993.0,543.0,-392.0,193.0,-20.0,-177.0,180,125,132,146,140
2025-02-25 18:26:12.444,-1113.0,514.0,-513.0,197.0,-31.0,-200.0,177,127,131,144,138
2025-02-25 18:26:12.449,-1216.0,536.0,-537.0,198.0,-34.0,-228.0,176,128,130,142,138
2025-02-25 18:26:12.453,-1158.0,523.0,-667.0,215.0,-57.0,-256.0,176,133,132,142,138
2025-02-25 18:26:12.460,-953.0,468.0,-695.0,230.0,-68.0,-278.0,177,132,129,140,136
2025-02-25 18:26:12.465,-862.0,512.0,-604.0,254.0,-94.0,-303.0,174,135,130,140,137
2025-02-25 18:26:12.473,-768.0,608.0,-553.0,257.0,-109.0,-348.0,175,136,131,142,137
2025-02-25 18:26:12.478,-556.0,829.0,-316.0,236.0,-114.0,-385.0,178,141,133,144,139
2025-02-25 18:26:12.482,-8.0,1016.0,383.0,230.0,-111.0,-444.0,179,144,136,147,141
2025-02-25 18:26:12.490,486.0,638.0,736.0,232.0,-84.0,-477.0,178,144,135,148,142
2025-02-25 18:26:12.494,649.0,144.0,974.0,236.0,-68.0,-501.0,179,146,138,148,142
2025-02-25 18:26:12.498,874.0,-67.0,980.0,243.0,-82.0,-522.0,177,147,137,147,143
2025-02-25 18:26:12.506,1198.0,-147.0,603.0,218.0,-107.0,-530.0,174,145,135,144,141
2025-02-25 18:26:12.510,1360.0,-606.0,624.0,184.0,-147.0,-515.0,176,146,134,144,141
2025-02-25 18:26:12.515,1626.0,-1308.0,787.0,147.0,-164.0,-488.0,174,148,136,145,142
2025-02-25 18:26:12.522,1748.0,-1903.0,919.0,98.0,-163.0,-474.0,177,151,134,147,144
2025-02-25 18:26:12.527,2115.0,-2175.0,980.0,67.0,-152.0,-437.0,175,148,132,145,141
2025-02-25 18:26:12.535,2523.0,-2632.0,1190.0,47.0,-116.0,-375.0,180,155,139,149,146
2025-02-25 18:26:12.538,2737.0,-2837.0,1353.0,-3.0,-122.0,-356.0,183,155,141,152,150
2025-02-25 18:26:12.543,2952.0,-3767.0,2025.0,-87.0,-206.0,-355.0,182,155,139,149,147
2025-02-25 18:26:12.551,2493.0,-4096.0,2310.0,-133.0,-251.0,-297.0,182,158,140,150,149
2025-02-25 18:26:12.555,2074.0,-4040.0,2357.0,-138.0,-182.0,-193.0,180,158,139,152,152
2025-02-25 18:26:12.563,1895.0,-3654.0,388.0,-153.0,-119.0,-101.0,181,159,142,150,151
2025-02-25 18:26:12.567,1649.0,-3367.0,-122.0,-171.0,-84.0,-10.0,180,158,140,150,151
2025-02-25 18:26:12.571,1509.0,-2985.0,-292.0,-169.0,-20.0,96.0,181,158,137,150,149
2025-02-25 18:26:12.579,1408.0,-2920.0,179.0,-135.0,33.0,183.0,183,159,141,152,154
2025-02-25 18:26:12.583,1297.0,-2963.0,837.0,-89.0,103.0,245.0,180,160,137,150,151
2025-02-25 18:26:12.592,1279.0,-2551.0,733.0,24.0,134.0,266.0,181,158,140,149,150
2025-02-25 18:26:12.596,1227.0,-2380.0,-5.0,68.0,112.0,270.0,178,156,141,147,151
2025-02-25 18:26:12.600,898.0,-2271.0,0.0,27.0,53.0,269.0,176,154,136,147,151
2025-02-25 18:26:12.605,762.0,-2176.0,89.0,-36.0,-6.0,267.0,181,159,138,149,152
2025-02-25 18:26:12.612,771.0,-2119.0,328.0,-86.0,-13.0,273.0,180,161,140,151,151
2025-02-25 18:26:12.617,759.0,-1934.0,473.0,-84.0,28.0,275.0,185,163,145,155,154
2025-02-25 18:26:12.621,988.0,-1630.0,627.0,-39.0,91.0,277.0,177,154,137,148,148
2025-02-25 18:26:12.629,973.0,-1448.0,560.0,-30.0,124.0,284.0,176,155,136,147,148
2025-02-25 18:26:12.633,794.0,-1339.0,180.0,-24.0,144.0,286.0,176,156,140,148,147
2025-02-25 18:26:12.638,459.0,-1256.0,133.0,-60.0,112.0,278.0,183,162,144,153,155
2025-02-25 18:26:12.645,265.0,-1136.0,68.0,-92.0,44.0,258.0,180,159,141,152,152
2025-02-25 18:26:12.649,300.0,-956.0,295.0,-105.0,12.0,243.0,181,161,142,153,152
2025-02-25 18:26:12.654,231.0,-771.0,300.0,-101.0,0.0,229.0,179,158,141,151,148
2025-02-25 18:26:12.662,215.0,-725.0,460.0,-63.0,10.0,224.0,177,157,138,150,149
2025-02-25 18:26:12.666,49.0,-679.0,318.0,-16.0,16.0,221.0,172,154,137,148,146
2025-02-25 18:26:12.670,-9.0,-649.0,300.0,-12.0,23.0,220.0,180,158,141,151,150
2025-02-25 18:26:12.674,-107.0,-592.0,123.0,-12.0,8.0,224.0,181,159,138,152,153
2025-02-25 18:26:12.682,-245.0,-523.0,62.0,-7.0,-23.0,221.0,178,158,140,150,151
2025-02-25 18:26:12.686,-250.0,-534.0,317.0,14.0,-31.0,215.0,175,156,138,148,148
2025-02-25 18:26:12.691,-213.0,-438.0,499.0,41.0,-30.0,214.0,174,156,138,147,147
2025-02-25 18:26:12.699,-265.0,-366.0,188.0,13.0,-45.0,203.0,182,162,142,155,156
2025-02-25 18:26:12.703,-343.0,-428.0,273.0,7.0,-42.0,200.0,180,159,142,153,153
2025-02-25 18:26:12.707,-409.0,-494.0,568.0,-3.0,1.0,200.0,178,157,139,152,151
2025-02-25 18:26:12.714,-416.0,-385.0,569.0,-32.0,25.0,192.0,174,158,139,149,150
2025-02-25 18:26:12.718,-325.0,-331.0,394.0,-70.0,58.0,182.0,178,159,141,151,150
2025-02-25 18:26:12.723,-409.0,-300.0,450.0,-98.0,79.0,177.0,179,159,144,152,152
2025-02-25 18:26:12.731,-459.0,-302.0,424.0,-117.0,87.0,165.0,178,159,142,152,152
2025-02-25 18:26:12.735,-513.0,-303.0,353.0,-135.0,88.0,155.0,178,159,136,154,153
2025-02-25 18:26:12.740,-542.0,-233.0,188.0,-136.0,81.0,143.0,178,159,140,151,151
2025-02-25 18:26:12.747,-644.0,-203.0,136.0,-115.0,83.0,136.0,177,155,139,150,150
2025-02-25 18:26:12.751,-694.0,-127.0,51.0,-87.0,82.0,130.0,176,156,138,148,148
2025-02-25 18:26:12.756,-769.0,-76.0,16.0,-57.0,74.0,128.0,177,158,139,149,149
2025-02-25 18:26:12.760,-864.0,-115.0,69.0,-34.0,73.0,126.0,181,161,144,154,153
2025-02-25 18:26:12.768,-931.0,-71.0,24.0,-13.0,69.0,124.0,178,161,144,153,152
2025-02-25 18:26:12.773,-985.0,-19.0,-20.0,-7.0,62.0,118.0,176,155,139,149,149
2025-02-25 18:26:12.777,-979.0,10.0,24.0,20.0,62.0,109.0,175,158,135,151,150
2025-02-25 18:26:12.785,-945.0,30.0,-28.0,27.0,57.0,102.0,178,159,143,155,152
2025-02-25 18:26:12.789,-958.0,82.0,-63.0,19.0,46.0,86.0,178,159,144,153,153
2025-02-25 18:26:12.793,-993.0,133.0,-76.0,13.0,40.0,68.0,175,155,139,150,150
2025-02-25 18:26:12.797,-1017.0,180.0,-55.0,9.0,31.0,59.0,176,155,140,151,150
2025-02-25 18:26:12.805,-984.0,253.0,-70.0,3.0,32.0,41.0,178,157,142,154,151
2025-02-25 18:26:12.808,-1044.0,346.0,-20.0,2.0,39.0,24.0,177,156,141,152,150
2025-02-25 18:26:12.813,-1075.0,454.0,-118.0,-4.0,43.0,6.0,175,154,138,149,148
2025-02-25 18:26:12.817,-1112.0,480.0,-195.0,-8.0,45.0,-4.0,175,152,140,150,148
2025-02-25 18:26:12.826,-1149.0,527.0,-200.0,-1.0,51.0,-24.0,178,158,143,154,151
2025-02-25 18:26:12.830,-1181.0,598.0,-205.0,12.0,51.0,-47.0,178,157,141,152,151
2025-02-25 18:26:12.834,-1218.0,696.0,-252.0,19.0,47.0,-72.0,174,147,141,153,151
2025-02-25 18:26:12.842,-1234.0,708.0,-247.0,33.0,45.0,-98.0,176,154,140,151,147
2025-02-25 18:26:12.846,-1261.0,727.0,-293.0,52.0,37.0,-124.0,173,152,138,149,146
2025-02-25 18:26:12.850,-1290.0,675.0,-309.0,73.0,32.0,-137.0,173,152,137,148,146
2025-02-25 18:26:12.858,-1281.0,694.0,-354.0,103.0,30.0,-164.0,179,159,145,157,154
2025-02-25 18:26:12.862,-1236.0,657.0,-343.0,132.0,35.0,-192.0,178,156,142,155,151
2025-02-25 18:26:12.866,-1248.0,610.0,-396.0,162.0,40.0,-221.0,179,157,142,153,150
2025-02-25 18:26:12.874,-1243.0,560.0,-407.0,176.0,45.0,-249.0,176,155,142,154,149
2025-02-25 18:26:12.879,-1187.0,539.0,-363.0,196.0,50.0,-282.0,178,155,143,155,148
2025-02-25 18:26:12.884,-1031.0,493.0,-256.0,207.0,52.0,-322.0,174,151,138,151,145
2025-02-25 18:26:12.891,-957.0,503.0,-217.0,210.0,41.0,-361.0,174,153,138,150,145
2025-02-25 18:26:12.895,-799.0,450.0,-169.0,206.0,20.0,-379.0,178,156,142,155,149
2025-02-25 18:26:12.900,-678.0,437.0,-233.0,193.0,-8.0,-406.0,178,154,142,155,147
2025-02-25 18:26:12.907,-507.0,471.0,-215.0,171.0,-38.0,-429.0,176,155,141,154,147
2025-02-25 18:26:12.911,-194.0,456.0,-168.0,132.0,-65.0,-442.0,178,155,140,154,147
2025-02-25 18:26:12.919,165.0,288.0,-163.0,88.0,-107.0,-453.0,179,156,143,156,149
2025-02-25 18:26:12.923,487.0,-147.0,26.0,64.0,-145.0,-452.0,178,152,139,152,147
2025-02-25 18:26:12.928,646.0,-749.0,186.0,29.0,-163.0,-442.0,173,152,138,150,146
2025-02-25 18:26:12.935,980.0,-1386.0,354.0,-8.0,-186.0,-421.0,175,151,136,151,145
2025-02-25 18:26:12.940,1296.0,-1680.0,511.0,-29.0,-187.0,-405.0,173,150,137,150,146
2025-02-25 18:26:12.944,1539.0,-2211.0,686.0,-34.0,-159.0,-350.0,175,149,137,150,147
2025-02-25 18:26:12.952,1674.0,-2567.0,765.0,-38.0,-104.0,-282.0,179,154,139,153,149
2025-02-25 18:26:12.957,1977.0,-2755.0,855.0,-50.0,-115.0,-247.0,183,157,144,157,153
2025-02-25 18:26:12.965,2390.0,-2883.0,1292.0,-90.0,-178.0,-242.0,179,154,141,156,149
2025-02-25 18:26:12.969,2581.0,-3190.0,1473.0,-62.0,-222.0,-211.0,181,153,140,155,149
2025-02-25 18:26:12.973,2651.0,-3362.0,1381.0,-54.0,-203.0,-153.0,180,153,141,155,149
2025-02-25 18:26:12.981,2510.0,-3424.0,1341.0,-35.0,-102.0,-67.0,180,151,141,154,149
2025-02-25 18:26:12.985,2193.0,-3105.0,604.0,-28.0,-34.0,3.0,181,152,140,153,149
2025-02-25 18:26:12.990,2149.0,-2812.0,457.0,-23.0,3.0,72.0,181,150,137,153,148
2025-02-25 18:26:12.997,1780.0,-2732.0,599.0,-46.0,33.0,132.0,183,153,139,153,150
2025-02-25 18:26:13.001,1723.0,-2335.0,432.0,-54.0,43.0,178.0,177,146,133,147,143
2025-02-25 18:26:13.006,1651.0,-2141.0,681.0,-46.0,88.0,196.0,178,144,133,150,145
2025-02-25 18:26:13.014,1458.0,-2159.0,619.0,-27.0,145.0,234.0,182,149,134,151,146
2025-02-25 18:26:13.018,1112.0,-1828.0,41.0,-44.0,122.0,247.0,184,148,137,153,149
2025-02-25 18:26:13.022,915.0,-1674.0,9.0,-91.0,83.0,248.0,182,145,134,151,146
2025-02-25 18:26:13.030,683.0,-1582.0,128.0,-103.0,63.0,244.0,180,141,132,150,145
2025-02-25 18:26:13.035,487.0,-1512.0,190.0,-105.0,56.0,236.0,179,135,130,150,143
2025-02-25 18:26:13.039,461.0,-1431.0,217.0,-103.0,65.0,235.0,178,134,132,151,144
2025-02-25 18:26:13.046,538.0,-1446.0,313.0,-66.0,87.0,231.0,177,132,130,151,145
2025-02-25 18:26:13.050,580.0,-1367.0,239.0,-47.0,115.0,230.0,182,134,135,154,145
2025-02-25 18:26:13.055,377.0,-1338.0,7.0,-72.0,77.0,222.0,184,138,141,158,149
2025-02-25 18:26:13.063,281.0,-1251.0,-368.0,-98.0,16.0,204.0,179,131,135,153,144
2025-02-25 18:26:13.067,195.0,-1100.0,-381.0,-126.0,-33.0,188.0,176,128,133,147,141
2025-02-25 18:26:13.071,233.0,-1041.0,-34.0,-138.0,-43.0,185.0,179,128,130,151,140
2025-02-25 18:26:13.079,261.0,-948.0,104.0,-111.0,-44.0,188.0,177,128,133,152,142
2025-02-25 18:26:13.083,122.0,-905.0,100.0,-73.0,-36.0,189.0,177,125,129,150,141
2025-02-25 18:26:13.088,62.0,-820.0,67.0,-38.0,-31.0,191.0,181,132,136,153,144
2025-02-25 18:26:13.096,0.0,-792.0,8.0,-45.0,-51.0,195.0,179,131,134,154,148
2025-02-25 18:26:13.100,-118.0,-834.0,-26.0,-62.0,-80.0,201.0,179,128,132,152,141
2025-02-25 18:26:13.105,-133.0,-753.0,-16.0,-86.0,-93.0,207.0,177,124,131,151,136
2025-02-25 18:26:13.112,-195.0,-711.0,138.0,-95.0,-97.0,211.0,179,128,133,150,139
2025-02-25 18:26:13.116,-120.0,-626.0,22.0,-109.0,-89.0,210.0,183,132,139,158,146
2025-02-25 18:26:13.120,-157.0,-564.0,47.0,-135.0,-80.0,208.0,183,127,134,154,144
2025-02-25 18:26:13.129,-246.0,-557.0,174.0,-150.0,-58.0,211.0,179,127,133,153,143
2025-02-25 18:26:13.133,-349.0,-535.0,264.0,-151.0,-40.0,211.0,181,129,134,153,142
2025-02-25 18:26:13.137,-386.0,-489.0,174.0,-177.0,-40.0,207.0,181,126,134,152,141
2025-02-25 18:26:13.145,-410.0,-426.0,230.0,-199.0,-38.0,199.0,177,124,130,150,136
2025-02-25 18:26:13.149,-487.0,-299.0,22.0,-197.0,-46.0,189.0,176,122,129,150,136
2025-02-25 18:26:13.154,-571.0,-229.0,36.0,-187.0,-52.0,186.0,178,121,130,151,135
2025-02-25 18:26:13.161,-623.0,-188.0,96.0,-163.0,-45.0,179.0,179,125,129,150,136
2025-02-25 18:26:13.166,-690.0,-221.0,124.0,-121.0,-33.0,177.0,180,124,131,151,136
2025-02-25 18:26:13.170,-683.0,-235.0,98.0,-92.0,-30.0,172.0,181,124,131,151,135
2025-02-25 18:26:13.178,-676.0,-199.0,-52.0,-81.0,-33.0,164.0,180,123,132,152,136
2025-02-25 18:26:13.182,-724.0,-186.0,-61.0,-64.0,-39.0,155.0,180,121,129,150,133
2025-02-25 18:26:13.190,-737.0,-151.0,-118.0,-62.0,-42.0,145.0,178,117,127,147,128
2025-02-25 18:26:13.194,-755.0,-119.0,-124.0,-61.0,-50.0,136.0,176,115,125,146,127
2025-02-25 18:26:13.199,-798.0,-94.0,-93.0,-55.0,-49.0,132.0,177,116,126,145,127
2025-02-25 18:26:13.206,-861.0,-77.0,-149.0,-51.0,-48.0,126.0,176,117,129,146,129
2025-02-25 18:26:13.210,-923.0,-67.0,-110.0,-50.0,-45.0,121.0,181,116,127,149,129
2025-02-25 18:26:13.214,-959.0,-18.0,-122.0,-54.0,-46.0,111.0,189,120,132,153,133
2025-02-25 18:26:13.223,-1006.0,78.0,-163.0,-51.0,-51.0,98.0,180,111,126,146,127
2025-02-25 18:26:13.227,-1051.0,143.0,-127.0,-40.0,-54.0,84.0,178,106,122,143,123
2025-02-25 18:26:13.231,-1105.0,235.0,-70.0,-9.0,-61.0,69.0,178,104,118,140,122
2025-02-25 18:26:13.235,-1133.0,267.0,-7.0,26.0,-64.0,62.0,180,105,120,141,123
2025-02-25 18:26:13.243,-1205.0,334.0,-30.0,56.0,-69.0,48.0,180,106,120,140,124
2025-02-25 18:26:13.247,-1217.0,377.0,-88.0,62.0,-78.0,35.0,179,101,120,138,120
2025-02-25 18:26:13.252,-1197.0,627.0,-64.0,91.0,-80.0,16.0,177,98,118,135,115
2025-02-25 18:26:13.260,-1239.0,834.0,224.0,142.0,-67.0,5.0,178,95,117,135,112
2025-02-25 18:26:13.264,-1286.0,624.0,-132.0,161.0,-67.0,-8.0,178,95,117,139,113
2025-02-25 18:26:13.268,-1210.0,747.0,-61.0,169.0,-54.0,-23.0,179,94,116,138,111
2025-02-25 18:26:13.276,-1128.0,903.0,-31.0,166.0,-30.0,-46.0,178,88,113,136,107
2025-02-25 18:26:13.280,-1180.0,1000.0,69.0,194.0,5.0,-81.0,177,91,110,136,106
2025-02-25 18:26:13.284,-1205.0,1045.0,100.0,205.0,17.0,-106.0,176,90,108,132,101
2025-02-25 18:26:13.288,-1249.0,1080.0,612.0,176.0,84.0,-110.0,174,85,102,132,99
2025-02-25 18:26:13.297,-1193.0,767.0,798.0,24.0,108.0,-142.0,182,93,108,141,107
2025-02-25 18:26:13.301,-1058.0,905.0,289.0,33.0,59.0,-172.0,178,88,106,137,104
2025-02-25 18:26:13.305,-1079.0,931.0,379.0,42.0,42.0,-215.0,175,83,98,135,100
2025-02-25 18:26:13.312,-1105.0,882.0,373.0,73.0,49.0,-252.0,175,81,96,132,97
2025-02-25 18:26:13.317,-927.0,756.0,36.0,90.0,71.0,-268.0,174,80,96,130,97
2025-02-25 18:26:13.321,-730.0,464.0,-406.0,7.0,47.0,-315.0,176,84,97,132,103
2025-02-25 18:26:13.325,-558.0,300.0,1579.0,101.0,163.0,-345.0,176,84,97,130,101
2025-02-25 18:26:13.333,-449.0,617.0,73.0,145.0,168.0,-388.0,173,80,96,123,99
2025-02-25 18:26:13.337,-174.0,843.0,-264.0,224.0,114.0,-396.0,174,81,93,119,97
2025-02-25 18:26:13.342,265.0,783.0,-646.0,184.0,25.0,-412.0,177,82,96,116,100
2025-02-25 18:26:13.349,465.0,866.0,-532.0,128.0,13.0,-458.0,179,87,102,113,98
2025-02-25 18:26:13.353,529.0,529.0,-388.0,86.0,-1.0,-487.0,173,79,93,108,94
2025-02-25 18:26:13.357,256.0,45.0,-224.0,31.0,-25.0,-507.0,175,80,93,106,94
2025-02-25 18:26:13.362,343.0,-64.0,-155.0,27.0,-119.0,-562.0,177,83,95,108,99
2025-02-25 18:26:13.370,978.0,-507.0,-320.0,42.0,-220.0,-606.0,177,83,99,108,98
2025-02-25 18:26:13.374,1529.0,-1091.0,-413.0,50.0,-275.0,-619.0,175,80,93,107,96
2025-02-25 18:26:13.378,2016.0,-1740.0,153.0,91.0,-308.0,-628.0,176,80,95,105,97
2025-02-25 18:26:13.386,2469.0,-2756.0,885.0,123.0,-264.0,-617.0,176,79,96,104,96
2025-02-25 18:26:13.390,3042.0,-3389.0,1606.0,138.0,-166.0,-533.0,180,85,103,110,100
2025-02-25 18:26:13.395,3508.0,-4962.0,2312.0,167.0,-98.0,-367.0,184,89,107,113,104
2025-02-25 18:26:13.403,3566.0,-5899.0,2419.0,194.0,-36.0,-186.0,179,85,102,108,99
2025-02-25 18:26:13.407,3462.0,-5871.0,2277.0,227.0,74.0,-20.0,181,86,104,109,100
2025-02-25 18:26:13.412,3246.0,-5334.0,1813.0,242.0,190.0,83.0,179,87,104,107,100
2025-02-25 18:26:13.419,3025.0,-4303.0,1030.0,315.0,270.0,130.0,181,87,105,107,101
2025-02-25 18:26:13.423,2539.0,-3288.0,579.0,323.0,288.0,153.0,178,82,99,101,96
2025-02-25 18:26:13.427,2180.0,-2275.0,8.0,258.0,295.0,180.0,176,84,101,103,96
2025-02-25 18:26:13.436,1382.0,-1809.0,-331.0,121.0,263.0,191.0,178,84,98,107,98
2025-02-25 18:26:13.440,771.0,-1294.0,-426.0,-33.0,186.0,219.0,180,86,101,110,101
2025-02-25 18:26:13.445,405.0,-1021.0,-536.0,-98.0,89.0,224.0,180,87,99,109,98
2025-02-25 18:26:13.452,292.0,-1105.0,-598.0,-192.0,23.0,207.0,176,82,91,104,96
2025-02-25 18:26:13.456,286.0,-1453.0,-583.0,-251.0,5.0,183.0,177,86,96,110,100
2025-02-25 18:26:13.460,321.0,-1619.0,-398.0,-263.0,-10.0,171.0,180,87,94,111,99
2025-02-25 18:26:13.464,510.0,-1874.0,-168.0,-254.0,-23.0,156.0,178,90,94,109,99
2025-02-25 18:26:13.472,510.0,-2073.0,61.0,-229.0,-27.0,164.0,181,87,93,110,99
2025-02-25 18:26:13.476,589.0,-2105.0,246.0,-214.0,-38.0,182.0,178,86,94,111,100
2025-02-25 18:26:13.481,540.0,-1983.0,376.0,-176.0,-53.0,199.0,176,84,92,107,95
2025-02-25 18:26:13.488,570.0,-1842.0,398.0,-146.0,-72.0,207.0,174,82,94,106,94
2025-02-25 18:26:13.492,489.0,-1717.0,422.0,-128.0,-85.0,226.0,178,88,97,112,102
2025-02-25 18:26:13.498,475.0,-1314.0,453.0,-112.0,-104.0,229.0,181,87,100,111,100
2025-02-25 18:26:13.505,351.0,-1221.0,422.0,-107.0,-111.0,234.0,173,86,100,103,99
2025-02-25 18:26:13.509,205.0,-1086.0,294.0,-100.0,-110.0,235.0,178,88,102,110,101
2025-02-25 18:26:13.514,65.0,-1041.0,227.0,-101.0,-107.0,242.0,177,86,102,109,101
2025-02-25 18:26:13.521,-24.0,-842.0,167.0,-115.0,-107.0,243.0,177,84,99,105,98
2025-02-25 18:26:13.526,-75.0,-823.0,116.0,-134.0,-106.0,244.0,177,83,98,108,95
2025-02-25 18:26:13.530,-134.0,-644.0,137.0,-150.0,-119.0,242.0,180,90,103,109,101
2025-02-25 18:26:13.538,-158.0,-500.0,171.0,-154.0,-107.0,229.0,183,91,104,113,107
2025-02-25 18:26:13.542,-225.0,-487.0,306.0,-154.0,-96.0,218.0,180,87,103,109,99
2025-02-25 18:26:13.547,-181.0,-277.0,349.0,-154.0,-77.0,206.0,177,85,100,109,98
2025-02-25 18:26:13.554,-215.0,-350.0,418.0,-85.0,-80.0,180.0,177,85,99,107,96
2025-02-25 18:26:13.559,-291.0,-229.0,522.0,-58.0,-71.0,171.0,176,83,100,107,96
2025-02-25 18:26:13.563,-377.0,-303.0,638.0,-44.0,-58.0,168.0,177,86,101,106,98
2025-02-25 18:26:13.570,-462.0,-226.0,605.0,-37.0,-43.0,166.0,180,88,101,111,99
2025-02-25 18:26:13.575,-518.0,-189.0,550.0,-22.0,-35.0,160.0,181,90,105,111,102
2025-02-25 18:26:13.579,-530.0,-150.0,440.0,-4.0,-22.0,154.0,176,86,100,108,98
2025-02-25 18:26:13.583,-602.0,-181.0,420.0,7.0,4.0,152.0,175,83,97,107,95
2025-02-25 18:26:13.591,-658.0,-174.0,391.0,13.0,19.0,148.0,180,90,100,110,100
2025-02-25 18:26:13.596,-694.0,-144.0,315.0,14.0,36.0,144.0,184,93,104,115,103
2025-02-25 18:26:13.600,-730.0,-126.0,289.0,11.0,44.0,140.0,177,84,98,109,97
2025-02-25 18:26:13.604,-764.0,-146.0,227.0,14.0,61.0,137.0,182,88,102,112,101
2025-02-25 18:26:13.612,-796.0,-92.0,179.0,22.0,62.0,130.0,180,88,100,111,101
2025-02-25 18:26:13.616,-874.0,-75.0,137.0,23.0,71.0,126.0,182,91,102,113,101
2025-02-25 18:26:13.620,-901.0,10.0,55.0,19.0,77.0,121.0,177,85,96,110,101
2025-02-25 18:26:13.625,-908.0,54.0,46.0,24.0,85.0,118.0,180,88,101,112,100
2025-02-25 18:26:13.629,-982.0,83.0,36.0,27.0,75.0,109.0,179,87,100,112,101
2025-02-25 18:26:13.636,-964.0,232.0,55.0,24.0,68.0,98.0,180,88,98,109,99
2025-02-25 18:26:13.641,-980.0,276.0,21.0,30.0,57.0,92.0,182,88,101,111,102
2025-02-25 18:26:13.645,-1003.0,273.0,8.0,37.0,49.0,76.0,179,89,100,112,103
2025-02-25 18:26:13.649,-988.0,363.0,-2.0,40.0,45.0,57.0,177,85,96,109,99
2025-02-25 18:26:13.653,-992.0,384.0,11.0,39.0,40.0,49.0,180,88,102,113,101
2025-02-25 18:26:13.661,-996.0,378.0,-8.0,33.0,41.0,33.0,179,89,101,113,102
2025-02-25 18:26:13.665,-1016.0,447.0,-4.0,26.0,41.0,19.0,176,84,97,109,99
2025-02-25 18:26:13.669,-1008.0,463.0,-28.0,16.0,44.0,12.0,174,82,95,106,97
2025-02-25 18:26:13.673,-1053.0,480.0,-36.0,7.0,49.0,-2.0,182,91,103,115,106
2025-02-25 18:26:13.681,-1067.0,536.0,-39.0,1.0,49.0,-19.0,178,85,98,111,100
2025-02-25 18:26:13.686,-1060.0,563.0,-54.0,-3.0,47.0,-27.0,177,82,96,108,98
2025-02-25 18:26:13.689,-1092.0,595.0,-74.0,1.0,43.0,-45.0,179,89,99,111,103
2025-02-25 18:26:13.694,-1175.0,647.0,-99.0,5.0,37.0,-64.0,183,92,103,115,106
2025-02-25 18:26:13.702,-1209.0,723.0,-123.0,14.0,34.0,-83.0,176,86,97,109,99
2025-02-25 18:26:13.706,-1262.0,734.0,-115.0,21.0,29.0,-92.0,179,88,100,113,100
2025-02-25 18:26:13.710,-1257.0,818.0,-114.0,38.0,21.0,-112.0,179,90,99,112,101
2025-02-25 18:26:13.714,-1208.0,852.0,-55.0,46.0,12.0,-138.0,180,92,102,114,104
2025-02-25 18:26:13.722,-1136.0,834.0,21.0,61.0,14.0,-170.0,178,85,99,110,101
2025-02-25 18:26:13.727,-1097.0,752.0,44.0,82.0,25.0,-187.0,177,86,98,109,98
2025-02-25 18:26:13.731,-1033.0,695.0,54.0,98.0,39.0,-220.0,181,89,102,113,102
2025-02-25 18:26:13.736,-935.0,601.0,30.0,106.0,47.0,-255.0,180,91,101,113,104
2025-02-25 18:26:13.743,-863.0,541.0,-12.0,124.0,44.0,-290.0,175,85,97,110,100
2025-02-25 18:26:13.747,-826.0,472.0,-58.0,135.0,39.0,-324.0,177,83,95,110,99
2025-02-25 18:26:13.752,-719.0,457.0,-91.0,133.0,20.0,-340.0,179,85,102,112,103
2025-02-25 18:26:13.759,-592.0,412.0,-118.0,125.0,-1.0,-371.0,180,91,101,115,105
2025-02-25 18:26:13.764,-385.0,354.0,-124.0,115.0,-27.0,-401.0,179,85,99,112,103
2025-02-25 18:26:13.768,-144.0,277.0,-116.0,95.0,-42.0,-429.0,177,84,97,111,98
2025-02-25 18:26:13.772,21.0,112.0,-49.0,72.0,-77.0,-451.0,176,84,98,109,99
2025-02-25 18:26:13.780,350.0,-38.0,7.0,50.0,-113.0,-459.0,181,90,102,115,103
2025-02-25 18:26:13.784,732.0,-493.0,159.0,43.0,-140.0,-469.0,180,84,100,113,99
2025-02-25 18:26:13.789,1204.0,-1020.0,360.0,22.0,-142.0,-463.0,177,84,98,111,102
2025-02-25 18:26:13.796,1443.0,-1755.0,674.0,13.0,-134.0,-435.0,176,86,95,111,100
2025-02-25 18:26:13.800,1878.0,-2634.0,967.0,24.0,-106.0,-413.0,178,86,99,111,100
2025-02-25 18:26:13.805,2292.0,-3170.0,1309.0,68.0,-76.0,-348.0,181,88,103,115,105
2025-02-25 18:26:13.812,2762.0,-4041.0,1441.0,146.0,-51.0,-271.0,180,88,104,114,104
2025-02-25 18:26:13.817,3134.0,-4904.0,1666.0,222.0,17.0,-186.0,183,92,108,114,105
2025-02-25 18:26:13.821,3229.0,-4929.0,1674.0,266.0,126.0,-97.0,181,88,107,112,105
2025-02-25 18:26:13.829,2975.0,-5081.0,1448.0,263.0,185.0,-3.0,180,88,106,110,104
2025-02-25 18:26:13.833,2632.0,-4495.0,1009.0,247.0,212.0,77.0,180,87,104,110,103
2025-02-25 18:26:13.837,2382.0,-3679.0,611.0,192.0,216.0,131.0,177,88,104,107,102
2025-02-25 18:26:13.845,2027.0,-2801.0,233.0,98.0,224.0,163.0,177,82,105,107,99
2025-02-25 18:26:13.850,1531.0,-2421.0,-111.0,28.0,205.0,169.0,182,90,107,111,106
2025-02-25 18:26:13.854,1167.0,-1962.0,-210.0,-45.0,162.0,174.0,185,93,109,116,109
2025-02-25 18:26:13.862,822.0,-1621.0,-370.0,-124.0,111.0,182.0,182,89,104,113,106
2025-02-25 18:26:13.866,625.0,-1566.0,-337.0,-172.0,69.0,191.0,179,88,101,115,106
2025-02-25 18:26:13.874,461.0,-1665.0,-257.0,-239.0,27.0,192.0,181,89,98,116,106
2025-02-25 18:26:13.878,492.0,-1946.0,-167.0,-251.0,5.0,183.0,176,87,97,115,105
2025-02-25 18:26:13.882,438.0,-1837.0,-212.0,-243.0,-27.0,182.0,176,85,92,113,101
2025-02-25 18:26:13.887,500.0,-1704.0,-100.0,-211.0,-17.0,174.0,181,89,97,117,107
2025-02-25 18:26:13.895,413.0,-1946.0,-36.0,-178.0,-5.0,176.0,183,90,98,113,106
