timestamp,ax,ay,az,gx,gy,gz,flex1,flex2,flex3,flex4,flex5,emg1,emg2,emg3
2025-02-25 18:58:31.318,-158.0,-975.0,223.0,-10.0,13.0,-23.0,167,139,131,150,157
2025-02-25 18:58:31.321,-158.0,-971.0,232.0,-10.0,12.0,-21.0,167,137,129,145,154
2025-02-25 18:58:31.323,-156.0,-964.0,226.0,-10.0,12.0,-20.0,170,142,132,149,156
2025-02-25 18:58:31.326,-143.0,-972.0,220.0,-9.0,13.0,-19.0,169,140,131,149,156
2025-02-25 18:58:31.328,-152.0,-983.0,208.0,-8.0,12.0,-17.0,166,138,130,146,153
2025-02-25 18:58:31.331,-152.0,-981.0,219.0,-8.0,14.0,-17.0,164,137,132,144,153
2025-02-25 18:58:31.333,-142.0,-996.0,209.0,-6.0,14.0,-15.0,169,141,132,150,157
2025-02-25 18:58:31.336,-159.0,-1006.0,204.0,-5.0,13.0,-14.0,167,138,128,145,153
2025-02-25 18:58:31.339,-159.0,-1003.0,208.0,-4.0,14.0,-14.0,165,133,128,146,153
2025-02-25 18:58:31.342,-159.0,-1016.0,206.0,-3.0,13.0,-13.0,169,139,131,150,157
2025-02-25 18:58:31.344,-161.0,-1017.0,204.0,-3.0,13.0,-12.0,168,138,132,150,156
2025-02-25 18:58:31.347,-161.0,-1023.0,203.0,-2.0,12.0,-11.0,166,138,129,146,152
2025-02-25 18:58:31.349,-157.0,-1026.0,209.0,0.0,12.0,-11.0,168,140,131,149,154
2025-02-25 18:58:31.352,-156.0,-1023.0,198.0,1.0,11.0,-11.0,169,140,132,148,153
2025-02-25 18:58:31.354,-161.0,-1022.0,212.0,2.0,11.0,-10.0,167,138,129,147,154
2025-02-25 18:58:31.356,-156.0,-1017.0,214.0,3.0,11.0,-10.0,168,138,130,149,155
2025-02-25 18:58:31.358,-155.0,-1002.0,195.0,5.0,8.0,-8.0,169,138,131,147,153
2025-02-25 18:58:31.360,-158.0,-982.0,206.0,5.0,9.0,-7.0,166,137,128,146,151
2025-02-25 18:58:31.363,-152.0,-990.0,204.0,6.0,7.0,-6.0,168,140,131,149,154
2025-02-25 18:58:31.365,-145.0,-980.0,208.0,4.0,8.0,-4.0,168,139,130,148,155
2025-02-25 18:58:31.367,-152.0,-993.0,184.0,5.0,6.0,-1.0,166,136,129,147,152
2025-02-25 18:58:31.369,-154.0,-1015.0,215.0,3.0,6.0,0.0,167,136,129,146,152
2025-02-25 18:58:31.372,-160.0,-1017.0,196.0,2.0,6.0,2.0,170,140,132,150,155
2025-02-25 18:58:31.374,-162.0,-1025.0,198.0,4.0,5.0,4.0,167,137,129,147,154
2025-02-25 18:58:31.376,-169.0,-1018.0,230.0,3.0,5.0,7.0,165,136,128,145,151
2025-02-25 18:58:31.379,-180.0,-1022.0,203.0,4.0,4.0,7.0,169,139,131,149,154
2025-02-25 18:58:31.381,-177.0,-1024.0,229.0,4.0,3.0,9.0,170,139,132,149,154
2025-02-25 18:58:31.383,-185.0,-1021.0,219.0,5.0,2.0,11.0,166,136,126,146,151
2025-02-25 18:58:31.385,-189.0,-1012.0,217.0,6.0,1.0,11.0,166,137,128,146,151
2025-02-25 18:58:31.387,-176.0,-1006.0,223.0,7.0,0.0,12.0,170,139,131,150,154
2025-02-25 18:58:31.389,-182.0,-995.0,233.0,8.0,-1.0,13.0,169,139,131,149,155
2025-02-25 18:58:31.392,-175.0,-976.0,237.0,8.0,-2.0,13.0,166,136,130,145,150
2025-02-25 18:58:31.394,-174.0,-972.0,238.0,9.0,-2.0,13.0,165,134,126,144,150
2025-02-25 18:58:31.397,-176.0,-960.0,249.0,10.0,-1.0,13.0,169,138,131,148,153
2025-02-25 18:58:31.399,-172.0,-954.0,245.0,9.0,0.0,12.0,170,140,131,148,152
2025-02-25 18:58:31.401,-171.0,-941.0,257.0,9.0,1.0,11.0,165,136,128,145,151
2025-02-25 18:58:31.403,-175.0,-939.0,252.0,8.0,4.0,11.0,166,136,129,146,151
2025-02-25 18:58:31.405,-180.0,-932.0,251.0,7.0,5.0,10.0,169,136,129,149,154
2025-02-25 18:58:31.407,-183.0,-926.0,256.0,7.0,6.0,9.0,168,138,129,146,153
2025-02-25 18:58:31.410,-179.0,-926.0,258.0,7.0,6.0,9.0,165,136,128,145,150
2025-02-25 18:58:31.412,-190.0,-926.0,261.0,8.0,8.0,9.0,170,139,130,147,153
2025-02-25 18:58:31.414,-198.0,-932.0,262.0,9.0,8.0,8.0,168,139,130,149,152
2025-02-25 18:58:31.416,-196.0,-923.0,256.0,9.0,8.0,7.0,168,137,132,145,149
2025-02-25 18:58:31.419,-192.0,-916.0,260.0,9.0,7.0,7.0,169,139,128,148,154
2025-02-25 18:58:31.421,-195.0,-907.0,251.0,9.0,7.0,7.0,169,138,129,146,152
2025-02-25 18:58:31.423,-198.0,-904.0,252.0,8.0,7.0,6.0,166,138,123,143,148
2025-02-25 18:58:31.425,-201.0,-908.0,263.0,7.0,9.0,6.0,170,141,131,149,154
2025-02-25 18:58:31.428,-208.0,-917.0,267.0,7.0,9.0,5.0,169,139,129,148,152
2025-02-25 18:58:31.430,-209.0,-931.0,276.0,5.0,9.0,4.0,166,136,127,149,151
2025-02-25 18:58:31.432,-216.0,-934.0,274.0,5.0,9.0,3.0,170,139,130,148,154
2025-02-25 18:58:31.434,-215.0,-945.0,272.0,5.0,9.0,2.0,170,140,132,149,154
2025-02-25 18:58:31.436,-214.0,-956.0,270.0,5.0,9.0,1.0,167,136,132,144,150
2025-02-25 18:58:31.439,-216.0,-959.0,268.0,6.0,8.0,0.0,169,139,131,148,153
2025-02-25 18:58:31.441,-210.0,-963.0,273.0,6.0,8.0,-1.0,170,139,131,149,155
2025-02-25 18:58:31.443,-210.0,-959.0,271.0,5.0,7.0,-3.0,167,137,128,147,152
2025-02-25 18:58:31.446,-206.0,-953.0,275.0,4.0,7.0,-3.0,164,135,126,143,148
2025-02-25 18:58:31.448,-209.0,-959.0,272.0,5.0,6.0,-4.0,169,138,131,147,153
2025-02-25 18:58:31.450,-204.0,-948.0,267.0,5.0,5.0,-5.0,169,139,131,146,152
2025-02-25 18:58:31.452,-198.0,-943.0,270.0,5.0,5.0,-6.0,166,137,128,144,151
2025-02-25 18:58:31.455,-191.0,-951.0,275.0,3.0,5.0,-6.0,167,138,127,147,153
2025-02-25 18:58:31.458,-190.0,-945.0,265.0,5.0,5.0,-6.0,168,139,130,144,153
2025-02-25 18:58:31.460,-185.0,-946.0,267.0,4.0,5.0,-6.0,166,138,130,144,151
2025-02-25 18:58:31.463,-176.0,-957.0,272.0,3.0,5.0,-5.0,166,135,127,144,150
2025-02-25 18:58:31.465,-176.0,-961.0,275.0,1.0,6.0,-5.0,167,139,130,146,153
2025-02-25 18:58:31.467,-184.0,-963.0,275.0,0.0,5.0,-5.0,170,140,131,148,153
2025-02-25 18:58:31.470,-188.0,-962.0,260.0,-1.0,4.0,-5.0,167,137,128,145,151
2025-02-25 18:58:31.472,-181.0,-955.0,267.0,-1.0,4.0,-5.0,170,141,132,147,154
2025-02-25 18:58:31.475,-172.0,-958.0,264.0,-2.0,4.0,-5.0,169,140,131,147,153
2025-02-25 18:58:31.477,-169.0,-967.0,265.0,-3.0,5.0,-5.0,167,137,129,146,152
2025-02-25 18:58:31.482,-171.0,-975.0,265.0,-3.0,5.0,-5.0,168,138,130,145,152
2025-02-25 18:58:31.486,-173.0,-972.0,257.0,-3.0,5.0,-5.0,169,140,132,148,154
2025-02-25 18:58:31.491,-186.0,-977.0,256.0,-3.0,5.0,-5.0,168,141,131,147,154
2025-02-25 18:58:31.495,-181.0,-982.0,255.0,-3.0,5.0,-5.0,167,139,129,146,152
2025-02-25 18:58:31.503,-186.0,-980.0,252.0,-3.0,4.0,-5.0,168,142,131,147,154
2025-02-25 18:58:31.507,-188.0,-979.0,247.0,-1.0,3.0,-5.0,168,142,132,147,153
2025-02-25 18:58:31.511,-187.0,-985.0,268.0,-1.0,4.0,-5.0,168,141,131,146,153
2025-02-25 18:58:31.516,-188.0,-978.0,268.0,-1.0,4.0,-4.0,166,140,129,145,152
2025-02-25 18:58:31.523,-187.0,-974.0,257.0,-1.0,4.0,-4.0,168,142,132,143,153
2025-02-25 18:58:31.527,-192.0,-973.0,251.0,0.0,5.0,-3.0,167,141,132,147,154
2025-02-25 18:58:31.532,-191.0,-979.0,240.0,0.0,4.0,-2.0,167,142,131,147,154
2025-02-25 18:58:31.536,-193.0,-968.0,257.0,0.0,3.0,-1.0,166,139,131,146,151
2025-02-25 18:58:31.544,-193.0,-964.0,242.0,3.0,2.0,-1.0,172,146,135,151,156
2025-02-25 18:58:31.548,-197.0,-965.0,245.0,3.0,2.0,0.0,170,145,133,147,155
2025-02-25 18:58:31.552,-188.0,-961.0,239.0,4.0,2.0,2.0,167,141,131,146,152
2025-02-25 18:58:31.557,-191.0,-944.0,248.0,4.0,1.0,2.0,168,142,131,147,153
2025-02-25 18:58:31.561,-208.0,-942.0,240.0,5.0,1.0,3.0,171,146,134,150,156
2025-02-25 18:58:31.569,-201.0,-945.0,242.0,5.0,0.0,3.0,166,141,130,146,152
2025-02-25 18:58:31.572,-194.0,-946.0,240.0,4.0,0.0,3.0,165,140,130,143,150
2025-02-25 18:58:31.577,-192.0,-947.0,234.0,4.0,-1.0,2.0,169,143,133,150,156
2025-02-25 18:58:31.581,-196.0,-953.0,243.0,4.0,-1.0,1.0,170,144,134,149,154
2025-02-25 18:58:31.589,-195.0,-960.0,230.0,3.0,-2.0,0.0,166,141,131,146,152
2025-02-25 18:58:31.593,-190.0,-962.0,232.0,3.0,-2.0,-1.0,169,144,133,148,154
2025-02-25 18:58:31.597,-187.0,-972.0,234.0,4.0,-3.0,-2.0,169,140,135,148,154
2025-02-25 18:58:31.602,-192.0,-976.0,240.0,4.0,-3.0,-3.0,168,145,133,147,153
2025-02-25 18:58:31.609,-193.0,-980.0,234.0,4.0,-4.0,-3.0,166,141,130,144,151
2025-02-25 18:58:31.614,-194.0,-994.0,250.0,3.0,-6.0,-4.0,169,146,133,147,154
2025-02-25 18:58:31.618,-199.0,-996.0,247.0,3.0,-8.0,-3.0,168,144,132,146,154
2025-02-25 18:58:31.622,-197.0,-1001.0,253.0,2.0,-10.0,-3.0,167,144,132,146,153
2025-02-25 18:58:31.630,-179.0,-1000.0,260.0,0.0,-11.0,-3.0,166,142,131,146,153
2025-02-25 18:58:31.633,-181.0,-998.0,261.0,0.0,-12.0,-2.0,169,145,134,149,156
2025-02-25 18:58:31.639,-177.0,-997.0,264.0,-1.0,-13.0,-1.0,168,146,135,149,156
2025-02-25 18:58:31.646,-168.0,-980.0,262.0,-1.0,-13.0,-1.0,170,147,135,149,157
2025-02-25 18:58:31.651,-167.0,-986.0,270.0,-3.0,-13.0,1.0,166,143,134,146,154
2025-02-25 18:58:31.654,-167.0,-983.0,277.0,-5.0,-12.0,2.0,165,143,132,146,153
2025-02-25 18:58:31.659,-165.0,-985.0,280.0,-5.0,-12.0,4.0,170,146,135,150,156
2025-02-25 18:58:31.666,-161.0,-984.0,297.0,-6.0,-11.0,6.0,170,146,134,151,156
2025-02-25 18:58:31.670,-165.0,-988.0,276.0,-7.0,-10.0,8.0,166,145,132,147,154
2025-02-25 18:58:31.675,-173.0,-985.0,291.0,-8.0,-8.0,8.0,166,143,132,146,153
2025-02-25 18:58:31.679,-175.0,-980.0,283.0,-8.0,-7.0,9.0,172,150,138,153,159
2025-02-25 18:58:31.687,-191.0,-975.0,294.0,-8.0,-6.0,9.0,169,146,134,149,156
2025-02-25 18:58:31.691,-192.0,-968.0,285.0,-7.0,-6.0,10.0,167,143,131,146,152
2025-02-25 18:58:31.696,-200.0,-959.0,281.0,-6.0,-6.0,10.0,166,142,130,145,152
2025-02-25 18:58:31.703,-199.0,-956.0,273.0,-5.0,-6.0,10.0,172,149,138,152,159
2025-02-25 18:58:31.708,-196.0,-945.0,275.0,-3.0,-4.0,10.0,170,147,134,150,156
2025-02-25 18:58:31.712,-195.0,-924.0,281.0,-2.0,-2.0,9.0,167,145,133,147,154
2025-02-25 18:58:31.716,-194.0,-917.0,284.0,-1.0,-1.0,9.0,168,144,133,148,153
2025-02-25 18:58:31.724,-200.0,-914.0,292.0,0.0,1.0,8.0,171,148,138,152,159
2025-02-25 18:58:31.728,-203.0,-908.0,296.0,1.0,3.0,7.0,167,144,133,149,155
2025-02-25 18:58:31.732,-209.0,-910.0,297.0,1.0,3.0,5.0,166,143,131,146,153
2025-02-25 18:58:31.737,-199.0,-906.0,300.0,1.0,6.0,4.0,169,145,134,151,157
2025-02-25 18:58:31.740,-206.0,-908.0,295.0,1.0,7.0,2.0,171,151,137,152,159
2025-02-25 18:58:31.748,-206.0,-902.0,296.0,2.0,9.0,0.0,166,143,132,148,154
2025-02-25 18:58:31.753,-203.0,-901.0,291.0,2.0,10.0,-1.0,169,146,134,150,156
2025-02-25 18:58:31.757,-207.0,-903.0,288.0,3.0,11.0,-2.0,169,146,134,149,156
2025-02-25 18:58:31.761,-218.0,-903.0,293.0,4.0,12.0,-3.0,171,149,137,151,158
2025-02-25 18:58:31.769,-220.0,-913.0,294.0,4.0,11.0,-4.0,167,144,131,145,154
2025-02-25 18:58:31.773,-226.0,-916.0,290.0,4.0,11.0,-5.0,168,146,135,150,157
2025-02-25 18:58:31.778,-224.0,-915.0,288.0,4.0,11.0,-6.0,169,147,135,150,154
2025-02-25 18:58:31.782,-225.0,-917.0,278.0,4.0,10.0,-7.0,168,146,135,149,156
2025-02-25 18:58:31.790,-230.0,-926.0,273.0,4.0,9.0,-7.0,166,143,132,147,154
2025-02-25 18:58:31.794,-225.0,-929.0,276.0,4.0,8.0,-8.0,170,148,135,150,157
2025-02-25 18:58:31.798,-218.0,-932.0,271.0,4.0,7.0,-9.0,169,145,134,149,156
2025-02-25 18:58:31.802,-217.0,-943.0,264.0,3.0,6.0,-9.0,168,146,133,149,156
2025-02-25 18:58:31.810,-220.0,-944.0,276.0,2.0,4.0,-9.0,168,147,135,150,156
2025-02-25 18:58:31.814,-210.0,-956.0,272.0,1.0,2.0,-9.0,169,147,134,151,157
2025-02-25 18:58:31.819,-205.0,-964.0,275.0,1.0,1.0,-9.0,166,145,133,148,155
2025-02-25 18:58:31.823,-200.0,-974.0,277.0,0.0,1.0,-10.0,167,145,134,150,156
2025-02-25 18:58:31.830,-199.0,-978.0,264.0,-1.0,0.0,-10.0,168,145,136,150,157
2025-02-25 18:58:31.835,-187.0,-986.0,256.0,-1.0,-1.0,-10.0,170,147,135,150,157
2025-02-25 18:58:31.839,-187.0,-978.0,271.0,-4.0,-1.0,-10.0,166,140,132,148,154
2025-02-25 18:58:31.843,-178.0,-992.0,261.0,-3.0,-2.0,-10.0,166,144,132,147,155
2025-02-25 18:58:31.851,-179.0,-978.0,276.0,-3.0,-1.0,-10.0,167,144,131,147,155
2025-02-25 18:58:31.856,-176.0,-981.0,265.0,-4.0,-2.0,-10.0,169,144,135,150,158
2025-02-25 18:58:31.860,-183.0,-977.0,275.0,-5.0,-2.0,-10.0,168,146,134,151,158
2025-02-25 18:58:31.867,-184.0,-976.0,265.0,-5.0,-2.0,-10.0,167,142,131,148,155
2025-02-25 18:58:31.872,-183.0,-976.0,248.0,-6.0,-2.0,-9.0,166,143,131,147,154
2025-02-25 18:58:31.876,-183.0,-977.0,255.0,-8.0,-3.0,-9.0,170,145,135,151,157
2025-02-25 18:58:31.880,-176.0,-972.0,243.0,-8.0,-3.0,-9.0,171,148,137,153,160
2025-02-25 18:58:31.888,-177.0,-975.0,240.0,-8.0,-3.0,-9.0,168,144,134,150,157
2025-02-25 18:58:31.892,-181.0,-975.0,233.0,-8.0,-3.0,-9.0,166,142,130,148,155
2025-02-25 18:58:31.897,-179.0,-975.0,244.0,-7.0,-3.0,-9.0,165,141,131,146,155
2025-02-25 18:58:31.904,-179.0,-972.0,241.0,-7.0,-5.0,-8.0,172,147,136,153,160
2025-02-25 18:58:31.908,-185.0,-977.0,234.0,-7.0,-5.0,-8.0,168,143,134,149,156
2025-02-25 18:58:31.912,-177.0,-975.0,234.0,-6.0,-5.0,-7.0,167,141,136,149,156
2025-02-25 18:58:31.917,-178.0,-970.0,235.0,-5.0,-5.0,-7.0,167,143,132,149,157
2025-02-25 18:58:31.924,-179.0,-974.0,235.0,-4.0,-4.0,-7.0,172,146,137,152,159
2025-02-25 18:58:31.929,-181.0,-976.0,233.0,-2.0,-3.0,-7.0,169,143,134,149,158
2025-02-25 18:58:31.933,-178.0,-969.0,238.0,-1.0,-4.0,-7.0,168,142,132,149,156
2025-02-25 18:58:31.938,-180.0,-964.0,236.0,0.0,-4.0,-7.0,167,141,132,148,155
2025-02-25 18:58:31.945,-182.0,-969.0,225.0,0.0,-4.0,-7.0,169,144,134,152,159
2025-02-25 18:58:31.949,-177.0,-964.0,245.0,2.0,-3.0,-7.0,166,144,134,151,159
2025-02-25 18:58:31.954,-182.0,-974.0,229.0,2.0,-2.0,-7.0,166,141,132,147,156
2025-02-25 18:58:31.958,-178.0,-967.0,235.0,4.0,-1.0,-7.0,167,146,132,154,152
2025-02-25 18:58:31.966,-169.0,-959.0,242.0,5.0,-1.0,-7.0,170,143,134,151,158
2025-02-25 18:58:31.970,-162.0,-967.0,246.0,5.0,1.0,-8.0,170,139,134,151,160
2025-02-25 18:58:31.974,-164.0,-962.0,228.0,7.0,1.0,-8.0,166,141,133,149,157
2025-02-25 18:58:31.979,-166.0,-960.0,233.0,8.0,1.0,-9.0,165,141,129,147,156
2025-02-25 18:58:31.986,-163.0,-964.0,233.0,9.0,2.0,-9.0,170,143,135,151,158
2025-02-25 18:58:31.991,-163.0,-966.0,230.0,9.0,2.0,-10.0,166,142,133,151,158
2025-02-25 18:58:31.995,-157.0,-971.0,236.0,9.0,3.0,-10.0,166,140,131,149,156
2025-02-25 18:58:31.999,-160.0,-976.0,249.0,8.0,4.0,-10.0,169,143,134,150,159
2025-02-25 18:58:32.007,-148.0,-983.0,244.0,7.0,5.0,-9.0,170,143,134,151,159
2025-02-25 18:58:32.011,-145.0,-985.0,238.0,6.0,6.0,-9.0,165,141,131,148,156
2025-02-25 18:58:32.015,-144.0,-991.0,224.0,7.0,6.0,-8.0,167,141,131,150,156
2025-02-25 18:58:32.019,-162.0,-984.0,237.0,5.0,6.0,-8.0,171,144,135,152,161
2025-02-25 18:58:32.027,-158.0,-980.0,251.0,6.0,7.0,-7.0,168,143,133,150,157
2025-02-25 18:58:32.031,-158.0,-993.0,254.0,5.0,7.0,-6.0,167,140,133,148,156
2025-02-25 18:58:32.035,-167.0,-998.0,241.0,5.0,8.0,-6.0,170,144,134,150,159
2025-02-25 18:58:32.039,-175.0,-1001.0,243.0,8.0,7.0,-5.0,169,146,137,154,161
2025-02-25 18:58:32.048,-175.0,-999.0,247.0,8.0,5.0,-4.0,166,141,131,148,156
2025-02-25 18:58:32.052,-179.0,-986.0,253.0,9.0,4.0,-4.0,165,140,131,148,156
2025-02-25 18:58:32.056,-178.0,-990.0,250.0,11.0,2.0,-3.0,169,140,134,152,159
2025-02-25 18:58:32.060,-185.0,-977.0,268.0,10.0,0.0,-1.0,171,144,136,152,161
2025-02-25 18:58:32.068,-180.0,-964.0,279.0,8.0,-1.0,-1.0,167,141,132,149,156
2025-02-25 18:58:32.072,-189.0,-963.0,288.0,9.0,-3.0,0.0,167,140,130,147,155
2025-02-25 18:58:32.076,-186.0,-967.0,299.0,8.0,-3.0,0.0,171,143,133,151,159
2025-02-25 18:58:32.081,-189.0,-970.0,301.0,8.0,-3.0,0.0,172,146,136,154,161
2025-02-25 18:58:32.088,-193.0,-974.0,314.0,9.0,-4.0,1.0,166,139,130,147,155
2025-02-25 18:58:32.092,-196.0,-969.0,321.0,9.0,-4.0,1.0,169,143,134,151,158
2025-02-25 18:58:32.097,-193.0,-971.0,327.0,9.0,-3.0,2.0,170,143,135,151,158
2025-02-25 18:58:32.101,-186.0,-979.0,343.0,9.0,-3.0,2.0,169,144,133,151,158
2025-02-25 18:58:32.105,-184.0,-981.0,357.0,8.0,-2.0,2.0,167,141,132,150,156
2025-02-25 18:58:32.113,-187.0,-965.0,371.0,9.0,0.0,3.0,170,144,134,151,159
2025-02-25 18:58:32.117,-165.0,-972.0,372.0,10.0,1.0,4.0,168,142,129,148,156
2025-02-25 18:58:32.122,-162.0,-978.0,392.0,10.0,4.0,3.0,169,142,133,151,158
2025-02-25 18:58:32.126,-146.0,-984.0,358.0,11.0,5.0,3.0,169,142,133,147,158
2025-02-25 18:58:32.133,-131.0,-976.0,383.0,13.0,8.0,3.0,168,142,131,150,157
2025-02-25 18:58:32.138,-132.0,-980.0,372.0,14.0,9.0,4.0,167,141,129,147,155
2025-02-25 18:58:32.142,-121.0,-983.0,370.0,16.0,12.0,4.0,172,146,135,153,162
2025-02-25 18:58:32.146,-125.0,-996.0,370.0,17.0,14.0,5.0,169,144,132,150,158
2025-02-25 18:58:32.154,-131.0,-1001.0,374.0,18.0,16.0,6.0,168,141,131,150,156
2025-02-25 18:58:32.158,-137.0,-1011.0,364.0,20.0,16.0,6.0,165,139,129,147,155
2025-02-25 18:58:32.162,-149.0,-1010.0,358.0,22.0,17.0,7.0,171,144,134,154,160
2025-02-25 18:58:32.167,-165.0,-1011.0,365.0,26.0,20.0,7.0,169,143,131,149,156
2025-02-25 18:58:32.175,-174.0,-1009.0,353.0,28.0,22.0,9.0,167,142,131,149,156
2025-02-25 18:58:32.179,-185.0,-1012.0,349.0,32.0,22.0,10.0,167,140,129,148,154
2025-02-25 18:58:32.183,-197.0,-1009.0,332.0,36.0,24.0,11.0,168,139,127,149,156
2025-02-25 18:58:32.191,-209.0,-1003.0,330.0,40.0,24.0,14.0,169,141,130,150,156
2025-02-25 18:58:32.195,-216.0,-995.0,325.0,42.0,23.0,16.0,169,142,131,151,156
2025-02-25 18:58:32.199,-213.0,-993.0,333.0,42.0,23.0,18.0,170,140,129,149,156
2025-02-25 18:58:32.204,-214.0,-988.0,331.0,45.0,23.0,18.0,168,139,127,151,154
2025-02-25 18:58:32.211,-213.0,-981.0,344.0,47.0,24.0,19.0,169,142,131,150,157
2025-02-25 18:58:32.216,-209.0,-960.0,326.0,50.0,26.0,19.0,169,142,130,151,157
2025-02-25 18:58:32.220,-209.0,-939.0,329.0,51.0,27.0,19.0,168,140,128,149,156
2025-02-25 18:58:32.228,-203.0,-919.0,325.0,51.0,28.0,19.0,168,139,126,146,153
2025-02-25 18:58:32.232,-192.0,-911.0,341.0,48.0,28.0,19.0,166,137,126,146,153
2025-02-25 18:58:32.236,-179.0,-897.0,311.0,46.0,28.0,18.0,169,141,130,150,157
2025-02-25 18:58:32.240,-168.0,-867.0,316.0,43.0,26.0,16.0,172,143,132,152,158
2025-02-25 18:58:32.248,-174.0,-867.0,320.0,38.0,27.0,14.0,166,139,127,148,154
2025-02-25 18:58:32.253,-181.0,-855.0,320.0,34.0,27.0,14.0,167,139,128,148,154
2025-02-25 18:58:32.257,-174.0,-846.0,317.0,32.0,28.0,11.0,169,143,130,149,156
2025-02-25 18:58:32.262,-179.0,-847.0,302.0,27.0,28.0,9.0,174,146,135,155,161
2025-02-25 18:58:32.269,-189.0,-857.0,309.0,23.0,26.0,8.0,168,139,128,145,153
2025-02-25 18:58:32.273,-200.0,-852.0,305.0,21.0,24.0,7.0,167,139,127,146,154
2025-02-25 18:58:32.278,-195.0,-851.0,313.0,14.0,20.0,7.0,170,142,131,150,157
2025-02-25 18:58:32.285,-204.0,-869.0,318.0,13.0,18.0,6.0,172,145,132,150,158
2025-02-25 18:58:32.289,-205.0,-870.0,323.0,12.0,17.0,5.0,167,139,127,147,153
2025-02-25 18:58:32.294,-209.0,-857.0,314.0,7.0,14.0,5.0,167,139,128,149,154
2025-02-25 18:58:32.298,-221.0,-867.0,315.0,3.0,9.0,6.0,171,143,131,151,157
2025-02-25 18:58:32.302,-209.0,-863.0,329.0,2.0,7.0,5.0,170,142,131,151,156
2025-02-25 18:58:32.310,-216.0,-881.0,311.0,0.0,6.0,4.0,167,140,128,146,153
2025-02-25 18:58:32.314,-220.0,-887.0,326.0,-4.0,3.0,4.0,170,143,132,151,158
2025-02-25 18:58:32.319,-234.0,-878.0,304.0,-6.0,-2.0,4.0,169,141,130,149,155
2025-02-25 18:58:32.323,-236.0,-875.0,314.0,-8.0,-3.0,3.0,167,140,129,148,155
2025-02-25 18:58:32.330,-228.0,-881.0,313.0,-11.0,-6.0,3.0,166,137,126,145,153
2025-02-25 18:58:32.335,-231.0,-885.0,281.0,-11.0,-8.0,1.0,170,142,132,149,156
2025-02-25 18:58:32.339,-247.0,-875.0,304.0,-12.0,-9.0,0.0,170,143,130,149,156
2025-02-25 18:58:32.347,-240.0,-880.0,294.0,-14.0,-10.0,-1.0,169,141,129,148,154
2025-02-25 18:58:32.351,-250.0,-894.0,291.0,-16.0,-14.0,-1.0,168,140,127,145,152
2025-02-25 18:58:32.355,-268.0,-886.0,303.0,-17.0,-15.0,-2.0,168,141,128,147,154
2025-02-25 18:58:32.359,-267.0,-900.0,292.0,-18.0,-17.0,-3.0,170,141,132,150,156
2025-02-25 18:58:32.367,-267.0,-911.0,307.0,-18.0,-17.0,-3.0,170,142,131,149,156
2025-02-25 18:58:32.371,-277.0,-929.0,308.0,-17.0,-18.0,-3.0,168,142,131,149,157
2025-02-25 18:58:32.376,-269.0,-939.0,313.0,-18.0,-19.0,-4.0,167,139,127,148,154
2025-02-25 18:58:32.383,-259.0,-937.0,328.0,-20.0,-21.0,-4.0,169,141,130,150,157
2025-02-25 18:58:32.388,-263.0,-934.0,331.0,-20.0,-20.0,-4.0,169,140,130,150,156
2025-02-25 18:58:32.392,-253.0,-931.0,308.0,-19.0,-20.0,-5.0,169,141,130,149,156
2025-02-25 18:58:32.400,-247.0,-930.0,318.0,-18.0,-17.0,-6.0,169,141,130,149,156
2025-02-25 18:58:32.404,-238.0,-927.0,331.0,-16.0,-13.0,-7.0,170,140,129,149,156
2025-02-25 18:58:32.408,-234.0,-918.0,335.0,-14.0,-12.0,-8.0,167,138,126,146,153
2025-02-25 18:58:32.416,-239.0,-922.0,320.0,-15.0,-11.0,-8.0,167,138,126,147,153
2025-02-25 18:58:32.420,-239.0,-941.0,309.0,-15.0,-11.0,-8.0,170,139,129,149,157
2025-02-25 18:58:32.425,-237.0,-958.0,313.0,-14.0,-10.0,-9.0,169,142,129,150,157
2025-02-25 18:58:32.432,-224.0,-975.0,312.0,-14.0,-7.0,-10.0,169,139,128,147,155
2025-02-25 18:58:32.437,-215.0,-1002.0,302.0,-13.0,-5.0,-11.0,168,139,126,146,154
2025-02-25 18:58:32.441,-225.0,-1034.0,321.0,-10.0,-5.0,-12.0,168,139,127,147,155
2025-02-25 18:58:32.449,-231.0,-1045.0,329.0,-8.0,-3.0,-12.0,166,138,125,146,154
2025-02-25 18:58:32.453,-236.0,-1056.0,348.0,-5.0,-3.0,-10.0,171,140,128,148,156
2025-02-25 18:58:32.457,-238.0,-1076.0,349.0,-3.0,-3.0,-8.0,169,140,127,148,156
2025-02-25 18:58:32.465,-235.0,-1081.0,372.0,-2.0,-3.0,-5.0,168,138,127,148,154
2025-02-25 18:58:32.470,-223.0,-1078.0,396.0,-1.0,-3.0,-3.0,166,135,121,145,153
2025-02-25 18:58:32.473,-211.0,-1091.0,418.0,0.0,-2.0,0.0,167,137,124,145,153
2025-02-25 18:58:32.479,-207.0,-1098.0,449.0,-1.0,-2.0,2.0,167,140,127,147,155
2025-02-25 18:58:32.485,-214.0,-1121.0,452.0,-2.0,-1.0,5.0,171,141,127,147,156
2025-02-25 18:58:32.490,-237.0,-1155.0,461.0,-2.0,0.0,10.0,167,137,125,146,153
2025-02-25 18:58:32.494,-250.0,-1197.0,488.0,-4.0,0.0,15.0,166,137,124,143,150
2025-02-25 18:58:32.499,-244.0,-1226.0,547.0,-9.0,4.0,17.0,173,139,129,149,155
2025-02-25 18:58:32.506,-219.0,-1275.0,558.0,-16.0,8.0,19.0,170,139,126,144,154
2025-02-25 18:58:32.510,-202.0,-1328.0,558.0,-19.0,11.0,20.0,169,137,124,143,151
2025-02-25 18:58:32.515,-192.0,-1355.0,586.0,-27.0,15.0,23.0,167,134,122,142,148
2025-02-25 18:58:32.523,-185.0,-1392.0,525.0,-33.0,24.0,26.0,167,133,122,142,150
2025-02-25 18:58:32.527,-170.0,-1411.0,501.0,-37.0,29.0,28.0,168,132,121,140,150
2025-02-25 18:58:32.531,-142.0,-1420.0,496.0,-39.0,34.0,32.0,169,132,122,141,149
2025-02-25 18:58:32.539,-112.0,-1418.0,474.0,-45.0,38.0,35.0,170,130,122,140,148
2025-02-25 18:58:32.544,-129.0,-1417.0,452.0,-48.0,41.0,39.0,170,128,119,138,146
2025-02-25 18:58:32.548,-125.0,-1423.0,422.0,-54.0,40.0,44.0,167,124,116,134,144
2025-02-25 18:58:32.555,-140.0,-1399.0,395.0,-57.0,38.0,51.0,166,122,116,135,143
2025-02-25 18:58:32.560,-178.0,-1405.0,361.0,-60.0,37.0,54.0,171,123,119,137,149
2025-02-25 18:58:32.564,-193.0,-1365.0,357.0,-57.0,37.0,61.0,170,123,118,136,145
2025-02-25 18:58:32.572,-220.0,-1321.0,354.0,-52.0,38.0,66.0,169,121,118,134,145
2025-02-25 18:58:32.576,-236.0,-1276.0,339.0,-49.0,37.0,71.0,169,118,115,132,142
2025-02-25 18:58:32.580,-249.0,-1247.0,337.0,-45.0,37.0,76.0,168,118,114,131,141
2025-02-25 18:58:32.588,-265.0,-1199.0,289.0,-41.0,34.0,78.0,167,115,112,129,139
2025-02-25 18:58:32.593,-275.0,-1172.0,282.0,-38.0,34.0,80.0,169,117,115,131,141
2025-02-25 18:58:32.597,-275.0,-1121.0,284.0,-34.0,34.0,81.0,169,116,114,130,143
2025-02-25 18:58:32.605,-282.0,-1085.0,288.0,-32.0,37.0,82.0,170,115,114,130,141
2025-02-25 18:58:32.609,-284.0,-1054.0,253.0,-25.0,39.0,82.0,167,113,112,127,137
2025-02-25 18:58:32.613,-278.0,-1016.0,243.0,-18.0,42.0,81.0,167,112,109,127,135
2025-02-25 18:58:32.618,-270.0,-1013.0,167.0,-12.0,46.0,80.0,166,110,111,124,134
2025-02-25 18:58:32.625,-292.0,-982.0,191.0,-9.0,49.0,78.0,171,113,114,126,138
2025-02-25 18:58:32.629,-311.0,-941.0,199.0,-6.0,50.0,76.0,169,110,113,126,136
2025-02-25 18:58:32.634,-324.0,-920.0,207.0,-2.0,51.0,75.0,167,108,111,122,133
2025-02-25 18:58:32.641,-311.0,-849.0,144.0,-1.0,51.0,73.0,168,109,111,123,134
2025-02-25 18:58:32.645,-325.0,-826.0,163.0,6.0,51.0,73.0,170,110,113,122,134
2025-02-25 18:58:32.650,-340.0,-815.0,150.0,8.0,51.0,72.0,170,107,113,121,132
2025-02-25 18:58:32.654,-329.0,-772.0,159.0,10.0,53.0,70.0,169,106,112,121,131
2025-02-25 18:58:32.662,-325.0,-770.0,186.0,12.0,54.0,68.0,171,105,111,120,132
2025-02-25 18:58:32.666,-342.0,-730.0,152.0,11.0,56.0,67.0,170,106,112,120,129
2025-02-25 18:58:32.670,-340.0,-695.0,153.0,8.0,54.0,67.0,170,105,112,121,129
2025-02-25 18:58:32.675,-307.0,-678.0,161.0,11.0,56.0,67.0,169,104,112,119,128
2025-02-25 18:58:32.682,-311.0,-671.0,156.0,9.0,58.0,66.0,169,103,109,117,126
2025-02-25 18:58:32.686,-350.0,-671.0,177.0,6.0,59.0,66.0,169,103,110,117,126
2025-02-25 18:58:32.691,-346.0,-632.0,198.0,5.0,62.0,65.0,170,103,110,117,125
2025-02-25 18:58:32.695,-345.0,-634.0,164.0,3.0,60.0,63.0,169,101,111,116,122
2025-02-25 18:58:32.703,-338.0,-606.0,144.0,-1.0,59.0,62.0,168,100,108,113,120
2025-02-25 18:58:32.707,-363.0,-623.0,124.0,-6.0,56.0,61.0,170,100,110,115,122
2025-02-25 18:58:32.711,-375.0,-599.0,152.0,-9.0,57.0,59.0,169,102,108,114,121
2025-02-25 18:58:32.719,-392.0,-584.0,141.0,-9.0,56.0,57.0,168,97,107,111,117
2025-02-25 18:58:32.724,-399.0,-546.0,125.0,-10.0,54.0,55.0,167,94,106,110,115
2025-02-25 18:58:32.728,-411.0,-547.0,132.0,-8.0,53.0,54.0,167,95,105,108,115
2025-02-25 18:58:32.732,-417.0,-542.0,108.0,-8.0,49.0,51.0,170,95,108,110,117
2025-02-25 18:58:32.740,-422.0,-519.0,133.0,-8.0,49.0,47.0,169,93,107,109,115
2025-02-25 18:58:32.744,-437.0,-500.0,105.0,-7.0,46.0,44.0,168,91,106,107,112
2025-02-25 18:58:32.748,-461.0,-491.0,91.0,-2.0,44.0,43.0,170,92,107,108,114
2025-02-25 18:58:32.752,-502.0,-462.0,111.0,-1.0,45.0,39.0,170,90,106,107,113
2025-02-25 18:58:32.761,-508.0,-423.0,121.0,0.0,45.0,35.0,168,88,106,104,110
2025-02-25 18:58:32.764,-522.0,-355.0,113.0,-2.0,43.0,31.0,169,85,102,104,109
2025-02-25 18:58:32.768,-542.0,-356.0,119.0,0.0,43.0,29.0,171,87,104,103,109
2025-02-25 18:58:32.773,-542.0,-297.0,135.0,-1.0,49.0,26.0,170,85,103,102,108
2025-02-25 18:58:32.781,-583.0,-250.0,72.0,-1.0,49.0,21.0,168,81,100,99,103
2025-02-25 18:58:32.785,-604.0,-230.0,89.0,-4.0,50.0,17.0,169,80,97,97,100
2025-02-25 18:58:32.790,-679.0,-224.0,96.0,-4.0,55.0,13.0,168,82,100,99,103
2025-02-25 18:58:32.795,-661.0,-89.0,92.0,-5.0,59.0,8.0,166,78,97,95,98
2025-02-25 18:58:32.798,-603.0,-3.0,16.0,0.0,65.0,5.0,167,78,97,94,96
2025-02-25 18:58:32.802,-635.0,39.0,40.0,4.0,73.0,1.0,170,81,99,97,98
2025-02-25 18:58:32.806,-652.0,112.0,34.0,3.0,79.0,-8.0,166,76,93,90,93
2025-02-25 18:58:32.813,-701.0,203.0,32.0,4.0,88.0,-11.0,169,79,96,92,93
2025-02-25 18:58:32.818,-773.0,218.0,25.0,6.0,97.0,-25.0,171,79,96,91,91
2025-02-25 18:58:32.822,-823.0,215.0,-45.0,7.0,100.0,-45.0,167,75,93,88,88
2025-02-25 18:58:32.826,-919.0,342.0,24.0,-1.0,105.0,-50.0,169,78,94,90,88
2025-02-25 18:58:32.831,-754.0,299.0,226.0,6.0,109.0,-67.0,167,78,92,90,88
2025-02-25 18:58:32.835,-874.0,354.0,-111.0,1.0,108.0,-93.0,165,75,89,86,82
2025-02-25 18:58:32.842,-871.0,400.0,-179.0,9.0,112.0,-106.0,167,78,92,89,84
2025-02-25 18:58:32.847,-820.0,459.0,-182.0,10.0,104.0,-137.0,167,78,92,89,82
2025-02-25 18:58:32.851,-801.0,545.0,-303.0,11.0,100.0,-169.0,163,73,87,85,78
2025-02-25 18:58:32.854,-927.0,580.0,-296.0,11.0,94.0,-184.0,161,75,87,85,76
2025-02-25 18:58:32.862,-981.0,647.0,-352.0,14.0,79.0,-215.0,164,77,93,89,80
2025-02-25 18:58:32.866,-893.0,687.0,-469.0,17.0,52.0,-252.0,160,74,85,86,75
2025-02-25 18:58:32.871,-910.0,696.0,-684.0,34.0,31.0,-273.0,159,72,83,83,73
2025-02-25 18:58:32.876,-923.0,761.0,-665.0,40.0,-3.0,-316.0,159,76,86,89,77
2025-02-25 18:58:32.883,-707.0,757.0,-769.0,46.0,-52.0,-351.0,156,75,85,87,75
2025-02-25 18:58:32.887,-638.0,604.0,-732.0,48.0,-69.0,-373.0,152,73,83,86,74
2025-02-25 18:58:32.891,-490.0,662.0,-699.0,45.0,-111.0,-406.0,151,76,85,89,75
2025-02-25 18:58:32.896,-307.0,486.0,-534.0,26.0,-150.0,-437.0,150,73,84,89,75
2025-02-25 18:58:32.903,-102.0,309.0,-311.0,12.0,-163.0,-459.0,147,75,82,85,73
2025-02-25 18:58:32.908,438.0,124.0,-170.0,1.0,-176.0,-467.0,147,75,85,88,74
2025-02-25 18:58:32.912,847.0,-408.0,181.0,-6.0,-173.0,-465.0,145,73,84,89,75
2025-02-25 18:58:32.920,1020.0,-1016.0,479.0,-8.0,-166.0,-454.0,143,73,83,87,72
2025-02-25 18:58:32.924,1406.0,-1283.0,843.0,-4.0,-146.0,-445.0,142,75,86,89,75
2025-02-25 18:58:32.928,1687.0,-1881.0,1115.0,-8.0,-115.0,-414.0,143,75,84,90,75
2025-02-25 18:58:32.932,1809.0,-2455.0,1425.0,44.0,-100.0,-366.0,142,75,85,89,76
2025-02-25 18:58:32.940,2285.0,-3035.0,1401.0,80.0,-20.0,-302.0,140,71,84,89,73
2025-02-25 18:58:32.945,2357.0,-3386.0,1382.0,112.0,13.0,-224.0,137,73,82,88,73
2025-02-25 18:58:32.949,2302.0,-3860.0,1479.0,124.0,58.0,-143.0,136,74,82,86,71
2025-02-25 18:58:32.957,2215.0,-4135.0,1410.0,138.0,62.0,-103.0,137,75,86,90,76
2025-02-25 18:58:32.961,2016.0,-4288.0,1395.0,160.0,58.0,-17.0,135,75,82,89,75
2025-02-25 18:58:32.965,1892.0,-4231.0,1086.0,161.0,65.0,66.0,134,74,86,90,74
2025-02-25 18:58:32.969,1812.0,-4047.0,1004.0,173.0,72.0,141.0,131,72,85,86,72
2025-02-25 18:58:32.977,1495.0,-3820.0,869.0,178.0,75.0,171.0,133,73,85,88,73
2025-02-25 18:58:32.981,1247.0,-3272.0,838.0,156.0,53.0,212.0,135,75,88,89,76
2025-02-25 18:58:32.986,1058.0,-2690.0,752.0,131.0,33.0,235.0,135,76,88,90,75
2025-02-25 18:58:32.990,951.0,-2201.0,688.0,70.0,20.0,240.0,134,73,87,85,72
2025-02-25 18:58:32.997,862.0,-1980.0,701.0,13.0,-7.0,236.0,136,76,89,89,75
2025-02-25 18:58:33.002,675.0,-1600.0,641.0,-12.0,-11.0,232.0,138,79,91,92,79
2025-02-25 18:58:33.006,653.0,-1359.0,676.0,-28.0,-11.0,222.0,134,75,89,90,76
2025-02-25 18:58:33.011,560.0,-1301.0,546.0,-45.0,-3.0,217.0,130,72,82,85,72
2025-02-25 18:58:33.018,400.0,-1208.0,505.0,-76.0,0.0,203.0,134,76,87,87,75
2025-02-25 18:58:33.023,216.0,-1159.0,353.0,-102.0,-16.0,191.0,135,76,88,89,74
2025-02-25 18:58:33.027,180.0,-1208.0,309.0,-122.0,-19.0,182.0,132,71,82,86,72
2025-02-25 18:58:33.031,135.0,-1196.0,276.0,-126.0,-33.0,180.0,132,71,83,87,73
2025-02-25 18:58:33.038,27.0,-1175.0,226.0,-128.0,-35.0,180.0,134,75,85,91,75
2025-02-25 18:58:33.043,-47.0,-1146.0,210.0,-133.0,-41.0,181.0,135,75,88,90,77
2025-02-25 18:58:33.048,-76.0,-1098.0,229.0,-140.0,-45.0,182.0,133,72,82,87,75
2025-02-25 18:58:33.055,-138.0,-1065.0,314.0,-134.0,-59.0,181.0,132,71,81,86,73
2025-02-25 18:58:33.059,-153.0,-1004.0,314.0,-127.0,-63.0,181.0,136,76,87,91,79
2025-02-25 18:58:33.064,-138.0,-916.0,312.0,-124.0,-59.0,186.0,137,77,90,91,76
2025-02-25 18:58:33.068,-180.0,-859.0,308.0,-124.0,-57.0,189.0,134,73,85,87,72
2025-02-25 18:58:33.075,-176.0,-831.0,311.0,-116.0,-54.0,192.0,134,72,86,86,72
2025-02-25 18:58:33.080,-201.0,-791.0,334.0,-108.0,-52.0,193.0,140,83,93,94,79
2025-02-25 18:58:33.084,-233.0,-758.0,293.0,-105.0,-45.0,196.0,138,78,90,92,78
2025-02-25 18:58:33.088,-250.0,-724.0,299.0,-104.0,-32.0,200.0,137,78,90,92,76
2025-02-25 18:58:33.096,-243.0,-693.0,310.0,-82.0,-23.0,202.0,136,74,87,89,75
2025-02-25 18:58:33.100,-299.0,-671.0,311.0,-69.0,-9.0,202.0,139,82,92,94,78
2025-02-25 18:58:33.104,-319.0,-614.0,325.0,-56.0,6.0,203.0,139,76,91,92,79
2025-02-25 18:58:33.109,-384.0,-553.0,324.0,-49.0,17.0,202.0,136,75,89,91,76
2025-02-25 18:58:33.116,-404.0,-527.0,291.0,-33.0,24.0,201.0,136,76,87,90,76
2025-02-25 18:58:33.121,-430.0,-452.0,274.0,-18.0,37.0,198.0,141,85,93,96,82
2025-02-25 18:58:33.125,-500.0,-359.0,213.0,-12.0,48.0,195.0,138,78,89,91,78
2025-02-25 18:58:33.129,-527.0,-276.0,213.0,0.0,51.0,189.0,135,74,91,88,74
2025-02-25 18:58:33.137,-566.0,-235.0,156.0,15.0,58.0,184.0,138,77,90,92,79
2025-02-25 18:58:33.141,-647.0,-151.0,125.0,20.0,60.0,175.0,139,78,95,93,79
2025-02-25 18:58:33.145,-675.0,-48.0,56.0,26.0,62.0,163.0,138,76,88,89,74
2025-02-25 18:58:33.149,-740.0,-9.0,24.0,30.0,63.0,156.0,137,75,89,92,82
2025-02-25 18:58:33.154,-779.0,38.0,0.0,31.0,63.0,144.0,138,77,90,92,79
2025-02-25 18:58:33.158,-785.0,155.0,-87.0,31.0,64.0,132.0,139,77,89,93,80
2025-02-25 18:58:33.166,-817.0,191.0,-113.0,32.0,60.0,124.0,139,77,88,92,78
2025-02-25 18:58:33.170,-840.0,268.0,-142.0,31.0,56.0,110.0,138,75,87,90,78
2025-02-25 18:58:33.174,-858.0,384.0,-177.0,26.0,54.0,98.0,134,71,82,86,74
2025-02-25 18:58:33.179,-877.0,432.0,-257.0,17.0,52.0,93.0,135,73,86,92,77
2025-02-25 18:58:33.183,-905.0,566.0,-263.0,14.0,49.0,83.0,137,75,85,91,78
2025-02-25 18:58:33.190,-900.0,660.0,-322.0,11.0,47.0,70.0,134,71,82,85,74
2025-02-25 18:58:33.194,-958.0,701.0,-338.0,4.0,41.0,64.0,136,71,82,88,75
2025-02-25 18:58:33.199,-952.0,789.0,-355.0,5.0,36.0,51.0,135,73,83,94,78
2025-02-25 18:58:33.203,-988.0,842.0,-377.0,6.0,31.0,31.0,138,72,81,92,77
2025-02-25 18:58:33.207,-1014.0,877.0,-411.0,16.0,22.0,19.0,135,69,74,87,72
2025-02-25 18:58:33.215,-1026.0,996.0,-446.0,23.0,16.0,-9.0,143,77,85,93,82
2025-02-25 18:58:33.219,-1057.0,1049.0,-457.0,28.0,14.0,-45.0,143,79,86,97,84
2025-02-25 18:58:33.223,-1052.0,1077.0,-481.0,46.0,7.0,-67.0,150,87,94,104,91
2025-02-25 18:58:33.227,-1054.0,1111.0,-451.0,72.0,1.0,-118.0,158,91,97,109,96
2025-02-25 18:58:33.235,-1017.0,1154.0,-467.0,84.0,-11.0,-175.0,152,87,93,103,91
2025-02-25 18:58:33.239,-1007.0,1239.0,-516.0,105.0,-16.0,-203.0,149,84,92,102,91
2025-02-25 18:58:33.244,-1035.0,1236.0,-502.0,117.0,-30.0,-259.0,153,91,97,107,96
2025-02-25 18:58:33.252,-978.0,1216.0,-426.0,123.0,-49.0,-316.0,152,88,101,104,94
2025-02-25 18:58:33.256,-891.0,1194.0,-389.0,121.0,-72.0,-374.0,149,83,93,102,91
2025-02-25 18:58:33.260,-801.0,1111.0,-357.0,109.0,-84.0,-429.0,147,84,91,100,90
2025-02-25 18:58:33.268,-716.0,971.0,-259.0,83.0,-113.0,-480.0,148,82,91,100,89
2025-02-25 18:58:33.273,-441.0,843.0,-141.0,54.0,-133.0,-502.0,151,86,97,102,92
2025-02-25 18:58:33.277,-64.0,520.0,-25.0,22.0,-153.0,-534.0,151,87,96,104,93
2025-02-25 18:58:33.281,416.0,50.0,252.0,9.0,-156.0,-543.0,153,88,97,105,96
2025-02-25 18:58:33.288,664.0,-642.0,626.0,-12.0,-155.0,-526.0,148,81,90,100,89
2025-02-25 18:58:33.293,1157.0,-1027.0,954.0,-31.0,-137.0,-507.0,150,83,94,102,91
2025-02-25 18:58:33.297,1637.0,-1859.0,1229.0,-23.0,-103.0,-444.0,149,85,94,101,91
2025-02-25 18:58:33.305,1961.0,-2756.0,1459.0,-8.0,-69.0,-361.0,154,87,99,107,94
2025-02-25 18:58:33.309,2174.0,-3790.0,1571.0,16.0,-29.0,-271.0,153,88,100,106,95
2025-02-25 18:58:33.314,2225.0,-4524.0,1602.0,72.0,-7.0,-190.0,146,79,94,98,87
2025-02-25 18:58:33.321,2240.0,-4956.0,1310.0,75.0,4.0,-131.0,157,93,103,110,97
2025-02-25 18:58:33.325,2176.0,-5119.0,1027.0,41.0,82.0,-105.0,152,88,103,103,91
2025-02-25 18:58:33.330,2071.0,-4955.0,1397.0,148.0,191.0,-9.0,147,81,100,97,89
2025-02-25 18:58:33.337,2145.0,-4575.0,1040.0,328.0,183.0,58.0,146,80,102,95,87
2025-02-25 18:58:33.342,1204.0,-3604.0,901.0,296.0,145.0,105.0,143,76,99,92,84
2025-02-25 18:58:33.346,1499.0,-2849.0,641.0,210.0,120.0,140.0,141,75,98,91,83
2025-02-25 18:58:33.350,1202.0,-2530.0,661.0,97.0,65.0,150.0,146,80,100,96,88
2025-02-25 18:58:33.359,696.0,-2138.0,265.0,-40.0,38.0,185.0,145,81,101,94,88
2025-02-25 18:58:33.362,920.0,-1877.0,492.0,-82.0,-8.0,169.0,143,80,100,95,87
2025-02-25 18:58:33.366,837.0,-1720.0,233.0,-156.0,-2.0,157.0,141,77,92,94,85
2025-02-25 18:58:33.371,659.0,-1704.0,710.0,-138.0,-37.0,151.0,148,87,99,102,91
2025-02-25 18:58:33.379,699.0,-1923.0,726.0,-55.0,-19.0,152.0,149,86,99,102,91
2025-02-25 18:58:33.383,640.0,-1917.0,305.0,-60.0,-34.0,150.0,146,85,93,100,88
2025-02-25 18:58:33.387,537.0,-1896.0,29.0,-147.0,-25.0,157.0,143,80,90,97,86
2025-02-25 18:58:33.391,548.0,-1912.0,307.0,-183.0,-15.0,160.0,147,85,94,102,89
2025-02-25 18:58:33.399,400.0,-1802.0,110.0,-196.0,-22.0,165.0,142,78,90,97,86
2025-02-25 18:58:33.403,402.0,-1660.0,245.0,-187.0,-44.0,169.0,141,79,87,95,84
2025-02-25 18:58:33.407,312.0,-1509.0,207.0,-177.0,-57.0,171.0,138,74,86,94,81
2025-02-25 18:58:33.416,221.0,-1489.0,254.0,-144.0,-59.0,176.0,140,75,87,94,82
2025-02-25 18:58:33.420,100.0,-1228.0,252.0,-144.0,-59.0,184.0,142,77,88,93,83
2025-02-25 18:58:33.424,38.0,-1100.0,302.0,-121.0,-64.0,189.0,140,79,90,94,83
2025-02-25 18:58:33.428,-22.0,-983.0,248.0,-120.0,-65.0,191.0,138,74,81,89,80
2025-02-25 18:58:33.436,-57.0,-940.0,492.0,-118.0,-64.0,194.0,138,74,84,90,81
2025-02-25 18:58:33.440,-77.0,-802.0,187.0,-124.0,-66.0,198.0,144,78,87,93,86
2025-02-25 18:58:33.444,-56.0,-784.0,433.0,-110.0,-72.0,200.0,142,78,91,91,84
2025-02-25 18:58:33.449,-48.0,-726.0,337.0,-124.0,-70.0,206.0,135,73,85,95,79
2025-02-25 18:58:33.457,-75.0,-723.0,377.0,-124.0,-66.0,207.0,133,67,81,83,74
2025-02-25 18:58:33.461,-160.0,-692.0,336.0,-139.0,-49.0,212.0,135,74,87,86,80
2025-02-25 18:58:33.465,-168.0,-588.0,333.0,-140.0,-41.0,218.0,137,71,84,86,76
2025-02-25 18:58:33.469,-167.0,-564.0,312.0,-134.0,-34.0,220.0,135,72,83,87,77
2025-02-25 18:58:33.477,-188.0,-504.0,459.0,-110.0,-22.0,219.0,137,68,82,89,77
2025-02-25 18:58:33.481,-303.0,-430.0,306.0,-105.0,-19.0,218.0,141,75,87,95,82
2025-02-25 18:58:33.485,-381.0,-325.0,293.0,-97.0,-18.0,215.0,141,74,84,91,79
2025-02-25 18:58:33.494,-419.0,-235.0,300.0,-97.0,-11.0,214.0,138,71,84,90,76
2025-02-25 18:58:33.498,-458.0,-179.0,295.0,-82.0,2.0,210.0,136,71,82,88,76
2025-02-25 18:58:33.502,-577.0,-122.0,323.0,-55.0,3.0,204.0,140,73,86,91,81
2025-02-25 18:58:33.506,-568.0,-135.0,407.0,-34.0,9.0,192.0,137,73,84,90,79
2025-02-25 18:58:33.510,-530.0,-53.0,209.0,-40.0,6.0,179.0,136,72,81,87,76
2025-02-25 18:58:33.518,-604.0,-42.0,185.0,-44.0,16.0,174.0,140,74,85,89,80
2025-02-25 18:58:33.522,-670.0,18.0,142.0,-45.0,23.0,164.0,141,74,86,89,78
2025-02-25 18:58:33.526,-706.0,61.0,115.0,-44.0,21.0,150.0,136,69,83,85,76
2025-02-25 18:58:33.531,-724.0,41.0,119.0,-20.0,25.0,143.0,139,73,85,88,77
2025-02-25 18:58:33.535,-726.0,72.0,73.0,-16.0,33.0,132.0,138,72,84,86,74
2025-02-25 18:58:33.542,-766.0,76.0,97.0,-22.0,42.0,123.0,138,73,86,89,77
2025-02-25 18:58:33.547,-778.0,126.0,-74.0,-27.0,45.0,123.0,140,72,84,92,79
2025-02-25 18:58:33.551,-772.0,90.0,113.0,-28.0,51.0,115.0,140,71,87,90,78
2025-02-25 18:58:33.555,-764.0,92.0,68.0,-27.0,56.0,109.0,138,69,82,89,78
2025-02-25 18:58:33.559,-722.0,151.0,25.0,-36.0,60.0,105.0,143,74,87,91,82
2025-02-25 18:58:33.563,-759.0,129.0,-8.0,-40.0,60.0,100.0,139,72,83,91,79
2025-02-25 18:58:33.571,-759.0,98.0,-21.0,-42.0,61.0,92.0,135,64,77,84,73
2025-02-25 18:58:33.575,-746.0,121.0,-13.0,-30.0,64.0,88.0,137,67,79,85,74
2025-02-25 18:58:33.579,-703.0,156.0,-21.0,-26.0,66.0,82.0,139,70,79,88,76
2025-02-25 18:58:33.583,-723.0,196.0,-60.0,-9.0,68.0,75.0,135,62,73,84,70
2025-02-25 18:58:33.588,-746.0,207.0,-64.0,5.0,68.0,71.0,133,63,72,81,73
2025-02-25 18:58:33.596,-754.0,263.0,-86.0,10.0,68.0,65.0,138,64,74,83,72
2025-02-25 18:58:33.599,-805.0,319.0,-139.0,30.0,66.0,56.0,137,64,72,83,74
2025-02-25 18:58:33.604,-835.0,341.0,-175.0,40.0,57.0,51.0,139,66,73,84,73
2025-02-25 18:58:33.608,-864.0,426.0,-163.0,60.0,49.0,41.0,139,64,73,82,70
2025-02-25 18:58:33.613,-866.0,518.0,-193.0,69.0,44.0,30.0,136,61,70,80,69
2025-02-25 18:58:33.620,-880.0,558.0,-314.0,78.0,36.0,22.0,138,61,71,82,70
2025-02-25 18:58:33.624,-925.0,655.0,-287.0,85.0,25.0,1.0,138,62,71,82,72
2025-02-25 18:58:33.629,-936.0,778.0,-375.0,88.0,22.0,-25.0,137,56,70,79,70
2025-02-25 18:58:33.633,-1039.0,840.0,-475.0,89.0,14.0,-41.0,138,61,70,78,70
2025-02-25 18:58:33.643,-1107.0,969.0,-490.0,90.0,12.0,-77.0,144,66,77,85,75
2025-02-25 18:58:33.646,-1127.0,1062.0,-547.0,91.0,12.0,-118.0,137,60,70,78,67
2025-02-25 18:58:33.649,-1129.0,1069.0,-562.0,102.0,7.0,-137.0,137,58,68,77,66
2025-02-25 18:58:33.653,-1087.0,1095.0,-574.0,113.0,1.0,-176.0,137,59,67,78,68
2025-02-25 18:58:33.658,-1069.0,1095.0,-536.0,121.0,-8.0,-212.0,141,60,69,78,69
2025-02-25 18:58:33.666,-1060.0,1093.0,-535.0,130.0,-17.0,-230.0,136,60,67,78,66
2025-02-25 18:58:33.670,-1047.0,1085.0,-545.0,139.0,-36.0,-266.0,139,63,68,77,66
2025-02-25 18:58:33.674,-998.0,1058.0,-565.0,143.0,-61.0,-303.0,139,59,66,78,67
2025-02-25 18:58:33.682,-963.0,992.0,-518.0,153.0,-73.0,-340.0,139,60,67,80,70
2025-02-25 18:58:33.686,-848.0,962.0,-488.0,161.0,-101.0,-360.0,140,59,68,78,68
2025-02-25 18:58:33.691,-728.0,833.0,-567.0,163.0,-134.0,-397.0,143,63,73,83,72
2025-02-25 18:58:33.698,-541.0,738.0,-425.0,157.0,-170.0,-435.0,144,62,72,83,72
2025-02-25 18:58:33.702,-352.0,624.0,-360.0,148.0,-207.0,-472.0,144,61,73,86,72
2025-02-25 18:58:33.707,-234.0,575.0,-227.0,129.0,-219.0,-502.0,142,60,69,79,67
2025-02-25 18:58:33.712,-17.0,453.0,-85.0,109.0,-229.0,-517.0,140,57,65,78,67
2025-02-25 18:58:33.719,189.0,68.0,-264.0,89.0,-247.0,-535.0,142,58,67,78,66
2025-02-25 18:58:33.723,454.0,-221.0,-104.0,84.0,-265.0,-543.0,142,57,68,78,66
2025-02-25 18:58:33.728,534.0,-633.0,-59.0,78.0,-280.0,-533.0,140,55,68,77,63
2025-02-25 18:58:33.732,857.0,-912.0,-14.0,72.0,-314.0,-519.0,140,56,67,75,64
2025-02-25 18:58:33.740,1320.0,-1327.0,32.0,58.0,-338.0,-485.0,142,55,69,77,65
2025-02-25 18:58:33.744,1862.0,-2160.0,408.0,44.0,-331.0,-430.0,144,55,69,74,63
2025-02-25 18:58:33.748,2252.0,-3264.0,933.0,28.0,-307.0,-341.0,144,55,70,73,62
2025-02-25 18:58:33.755,3000.0,-3964.0,1684.0,-3.0,-233.0,-284.0,144,56,69,73,62
2025-02-25 18:58:33.760,3594.0,-5092.0,3086.0,-7.0,-77.0,-176.0,146,55,73,73,62
2025-02-25 18:58:33.764,3956.0,-5574.0,2174.0,39.0,-27.0,-87.0,149,57,72,71,63
2025-02-25 18:58:33.769,3683.0,-5577.0,2084.0,67.0,-4.0,-16.0,145,55,76,70,62
2025-02-25 18:58:33.775,3365.0,-5197.0,1170.0,108.0,49.0,49.0,152,59,78,70,64
2025-02-25 18:58:33.781,2945.0,-4842.0,992.0,254.0,43.0,67.0,161,74,87,80,71
2025-02-25 18:58:33.785,2174.0,-3741.0,710.0,230.0,98.0,116.0,152,60,80,70,62
2025-02-25 18:58:33.792,1662.0,-2520.0,196.0,253.0,129.0,146.0,171,78,95,90,81
2025-02-25 18:58:33.797,1567.0,-1751.0,433.0,130.0,127.0,172.0,159,64,85,75,66
2025-02-25 18:58:33.801,991.0,-1682.0,403.0,35.0,89.0,175.0,163,71,90,79,72
2025-02-25 18:58:33.805,608.0,-1375.0,271.0,-151.0,27.0,192.0,164,70,91,83,72
2025-02-25 18:58:33.810,668.0,-1137.0,21.0,-213.0,2.0,186.0,155,59,82,74,63
2025-02-25 18:58:33.817,512.0,-1252.0,63.0,-219.0,-76.0,184.0,155,60,78,76,63
2025-02-25 18:58:33.822,580.0,-1565.0,29.0,-218.0,-87.0,182.0,158,57,79,78,64
2025-02-25 18:58:33.826,491.0,-1773.0,-99.0,-163.0,-59.0,190.0,155,60,75,76,63
2025-02-25 18:58:33.833,541.0,-2012.0,-80.0,-99.0,-36.0,198.0,153,59,74,76,60
2025-02-25 18:58:33.838,512.0,-2076.0,312.0,-152.0,32.0,197.0,152,57,73,73,60
2025-02-25 18:58:33.842,489.0,-2118.0,158.0,-153.0,45.0,214.0,152,58,71,76,63
2025-02-25 18:58:33.846,465.0,-1906.0,334.0,-151.0,20.0,234.0,150,56,70,74,61
2025-02-25 18:58:33.854,322.0,-1689.0,530.0,-151.0,4.0,247.0,151,57,69,72,60
2025-02-25 18:58:33.858,230.0,-1449.0,348.0,-116.0,-6.0,249.0,150,55,69,72,61
2025-02-25 18:58:33.862,5.0,-1238.0,170.0,-83.0,-20.0,253.0,150,58,70,75,62
2025-02-25 18:58:33.866,65.0,-936.0,313.0,-104.0,-12.0,248.0,152,56,68,72,61
2025-02-25 18:58:33.871,24.0,-760.0,41.0,-110.0,-12.0,248.0,149,58,69,72,60
2025-02-25 18:58:33.878,-208.0,-624.0,339.0,-79.0,-46.0,246.0,151,57,69,74,60
2025-02-25 18:58:33.883,-316.0,-475.0,414.0,-57.0,-68.0,243.0,150,56,70,73,60
2025-02-25 18:58:33.887,-317.0,-360.0,314.0,7.0,-72.0,235.0,149,55,65,70,60
2025-02-25 18:58:33.891,-370.0,-268.0,353.0,12.0,-48.0,230.0,150,56,68,70,59
2025-02-25 18:58:33.899,-367.0,-247.0,352.0,43.0,-22.0,216.0,150,55,70,71,63
2025-02-25 18:58:33.903,-299.0,-79.0,420.0,39.0,-8.0,202.0,150,55,68,69,59
2025-02-25 18:58:33.907,-332.0,-19.0,587.0,16.0,-1.0,197.0,148,53,69,70,59
2025-02-25 18:58:33.911,-377.0,29.0,645.0,23.0,-5.0,183.0,150,55,69,71,60
2025-02-25 18:58:33.916,-463.0,40.0,600.0,28.0,-5.0,167.0,149,55,68,75,59
2025-02-25 18:58:33.923,-503.0,50.0,536.0,38.0,-6.0,160.0,149,54,70,71,60
2025-02-25 18:58:33.928,-533.0,116.0,525.0,27.0,10.0,149.0,149,56,69,75,61
2025-02-25 18:58:33.932,-615.0,112.0,457.0,31.0,22.0,136.0,149,53,68,72,60
2025-02-25 18:58:33.936,-661.0,82.0,426.0,5.0,49.0,129.0,150,55,66,72,59
2025-02-25 18:58:33.940,-789.0,91.0,355.0,-25.0,63.0,121.0,150,55,70,74,62
2025-02-25 18:58:33.944,-824.0,53.0,337.0,-38.0,64.0,111.0,148,54,68,73,59
2025-02-25 18:58:33.952,-823.0,56.0,333.0,-59.0,59.0,107.0,148,54,65,73,60
2025-02-25 18:58:33.956,-836.0,44.0,310.0,-78.0,53.0,97.0,149,56,67,72,61
2025-02-25 18:58:33.960,-890.0,64.0,309.0,-95.0,50.0,89.0,150,56,68,74,61
2025-02-25 18:58:33.964,-925.0,56.0,220.0,-108.0,50.0,85.0,148,55,66,73,59
2025-02-25 18:58:33.969,-942.0,64.0,172.0,-98.0,59.0,76.0,150,54,67,73,60
2025-02-25 18:58:33.977,-925.0,117.0,143.0,-91.0,68.0,66.0,149,54,67,72,61
2025-02-25 18:58:33.981,-931.0,125.0,105.0,-90.0,69.0,62.0,148,55,65,72,59
2025-02-25 18:58:33.985,-944.0,125.0,81.0,-86.0,64.0,53.0,149,54,68,74,61
2025-02-25 18:58:33.989,-965.0,147.0,74.0,-82.0,56.0,45.0,148,56,69,73,61
2025-02-25 18:58:33.994,-943.0,153.0,68.0,-63.0,50.0,36.0,149,55,68,67,58
2025-02-25 18:58:33.998,-909.0,179.0,87.0,-41.0,42.0,30.0,149,55,67,72,60
2025-02-25 18:58:34.005,-875.0,184.0,16.0,-27.0,38.0,19.0,149,56,66,72,60
2025-02-25 18:58:34.009,-851.0,202.0,34.0,-4.0,37.0,7.0,148,54,68,71,58
2025-02-25 18:58:34.014,-855.0,194.0,10.0,27.0,37.0,0.0,149,53,70,73,59
2025-02-25 18:58:34.018,-855.0,246.0,61.0,28.0,33.0,-12.0,148,56,68,72,59
2025-02-25 18:58:34.022,-849.0,280.0,21.0,41.0,31.0,-22.0,147,54,68,71,60
2025-02-25 18:58:34.027,-861.0,304.0,8.0,57.0,27.0,-29.0,149,56,70,72,60
2025-02-25 18:58:34.034,-875.0,345.0,11.0,65.0,27.0,-40.0,149,56,68,72,58
2025-02-25 18:58:34.038,-902.0,391.0,-42.0,72.0,25.0,-51.0,151,51,66,72,61
2025-02-25 18:58:34.042,-918.0,414.0,26.0,72.0,21.0,-57.0,149,56,67,72,60
2025-02-25 18:58:34.046,-966.0,455.0,-42.0,79.0,19.0,-73.0,152,55,65,69,60
2025-02-25 18:58:34.051,-980.0,498.0,-22.0,85.0,19.0,-95.0,148,55,64,72,61
2025-02-25 18:58:34.056,-987.0,523.0,-61.0,90.0,20.0,-106.0,149,53,69,73,59
2025-02-25 18:58:34.063,-996.0,619.0,-31.0,95.0,20.0,-131.0,149,55,64,74,61
2025-02-25 18:58:34.067,-1014.0,688.0,-109.0,100.0,18.0,-158.0,148,55,66,72,58
2025-02-25 18:58:34.071,-1000.0,739.0,-39.0,107.0,20.0,-172.0,148,55,66,73,60
2025-02-25 18:58:34.075,-1008.0,800.0,-7.0,107.0,20.0,-203.0,148,49,64,72,60
2025-02-25 18:58:34.083,-961.0,847.0,-24.0,111.0,18.0,-242.0,148,54,66,73,60
2025-02-25 18:58:34.087,-905.0,856.0,7.0,114.0,11.0,-262.0,149,56,62,73,60
2025-02-25 18:58:34.092,-857.0,817.0,10.0,116.0,2.0,-308.0,149,55,66,71,61
2025-02-25 18:58:34.096,-817.0,784.0,4.0,118.0,-1.0,-356.0,147,53,62,70,57
2025-02-25 18:58:34.104,-677.0,768.0,-21.0,111.0,-12.0,-378.0,149,54,65,72,61
2025-02-25 18:58:34.108,-516.0,654.0,-47.0,109.0,-30.0,-417.0,146,56,67,73,61
2025-02-25 18:58:34.112,-414.0,531.0,-9.0,95.0,-42.0,-445.0,149,55,65,74,61
2025-02-25 18:58:34.117,-166.0,464.0,22.0,75.0,-66.0,-457.0,149,52,66,72,63
2025-02-25 18:58:34.121,193.0,258.0,97.0,62.0,-87.0,-479.0,149,55,65,73,61
2025-02-25 18:58:34.129,383.0,-100.0,151.0,21.0,-99.0,-491.0,148,51,65,73,62
2025-02-25 18:58:34.133,843.0,-338.0,258.0,-11.0,-113.0,-493.0,149,55,66,73,63
2025-02-25 18:58:34.137,1334.0,-929.0,332.0,-33.0,-124.0,-489.0,149,55,67,72,62
2025-02-25 18:58:34.144,1561.0,-1683.0,537.0,-40.0,-127.0,-471.0,149,56,68,74,63
2025-02-25 18:58:34.149,1969.0,-2135.0,744.0,-47.0,-123.0,-454.0,149,55,66,72,60
2025-02-25 18:58:34.153,2348.0,-3150.0,840.0,-47.0,-100.0,-399.0,149,55,65,73,62
2025-02-25 18:58:34.158,2705.0,-4197.0,1199.0,-23.0,-43.0,-322.0,148,53,69,72,60
2025-02-25 18:58:34.165,2850.0,-4706.0,1642.0,-13.0,-23.0,-273.0,146,54,68,70,61
2025-02-25 18:58:34.169,3302.0,-5195.0,1118.0,142.0,-1.0,-166.0,149,55,71,67,60
2025-02-25 18:58:34.174,3271.0,-5799.0,1206.0,225.0,40.0,-76.0,150,55,72,67,63
2025-02-25 18:58:34.181,3195.0,-5457.0,727.0,248.0,62.0,-18.0,149,53,71,65,61
2025-02-25 18:58:34.186,3190.0,-5249.0,684.0,234.0,121.0,12.0,153,56,75,69,64
2025-02-25 18:58:34.190,2464.0,-4367.0,529.0,184.0,135.0,95.0,152,55,74,70,61
2025-02-25 18:58:34.195,2283.0,-3601.0,586.0,101.0,110.0,157.0,157,59,80,76,69
2025-02-25 18:58:34.202,2174.0,-2618.0,141.0,-33.0,101.0,184.0,158,65,80,76,73
2025-02-25 18:58:34.207,1569.0,-2030.0,-125.0,-105.0,56.0,194.0,151,58,75,73,65
2025-02-25 18:58:34.211,1043.0,-1602.0,-225.0,-146.0,46.0,218.0,155,58,72,76,64
2025-02-25 18:58:34.219,775.0,-1492.0,-458.0,-119.0,42.0,236.0,149,56,73,74,64
2025-02-25 18:58:34.223,736.0,-1465.0,-216.0,-113.0,45.0,226.0,151,58,73,75,66
2025-02-25 18:58:34.227,760.0,-1528.0,-141.0,-154.0,59.0,216.0,151,56,72,74,64
2025-02-25 18:58:34.231,650.0,-1669.0,-156.0,-193.0,49.0,204.0,151,56,72,76,64
2025-02-25 18:58:34.239,500.0,-1821.0,-146.0,-224.0,15.0,202.0,152,61,72,75,65
2025-02-25 18:58:34.243,533.0,-1724.0,150.0,-223.0,-17.0,202.0,152,57,71,75,64
2025-02-25 18:58:34.247,485.0,-1653.0,23.0,-207.0,-18.0,207.0,152,56,68,75,65
2025-02-25 18:58:34.252,342.0,-1639.0,100.0,-209.0,-20.0,213.0,152,57,68,76,65
2025-02-25 18:58:34.260,302.0,-1462.0,95.0,-230.0,-37.0,224.0,152,58,69,77,66
2025-02-25 18:58:34.264,216.0,-1239.0,443.0,-234.0,-29.0,223.0,152,59,71,77,64
2025-02-25 18:58:34.268,106.0,-979.0,155.0,-181.0,-35.0,225.0,151,57,70,75,62
2025-02-25 18:58:34.276,-72.0,-852.0,275.0,-137.0,-40.0,229.0,152,59,70,76,64
2025-02-25 18:58:34.280,-184.0,-649.0,57.0,-65.0,-44.0,233.0,151,59,70,75,64
2025-02-25 18:58:34.284,-234.0,-492.0,177.0,-42.0,-46.0,231.0,151,57,70,73,64
2025-02-25 18:58:34.289,-246.0,-376.0,139.0,-28.0,-42.0,226.0,149,57,70,72,67
2025-02-25 18:58:34.296,-336.0,-310.0,226.0,-13.0,-41.0,225.0,151,57,73,72,64
2025-02-25 18:58:34.300,-321.0,-290.0,260.0,-25.0,-43.0,224.0,152,58,72,72,65
2025-02-25 18:58:34.305,-306.0,-165.0,312.0,-13.0,-50.0,216.0,151,57,73,73,63
2025-02-25 18:58:34.309,-333.0,-25.0,379.0,-12.0,-52.0,212.0,150,57,73,72,63
2025-02-25 18:58:34.313,-257.0,4.0,586.0,21.0,-39.0,194.0,152,59,73,75,64
2025-02-25 18:58:34.321,-317.0,86.0,554.0,30.0,-12.0,176.0,151,55,72,74,66
2025-02-25 18:58:34.325,-373.0,109.0,476.0,42.0,8.0,160.0,152,56,73,74,65
2025-02-25 18:58:34.329,-450.0,143.0,422.0,48.0,39.0,155.0,152,57,73,76,65
2025-02-25 18:58:34.334,-498.0,108.0,428.0,48.0,57.0,145.0,149,60,72,76,65
2025-02-25 18:58:34.338,-554.0,93.0,294.0,46.0,63.0,134.0,151,57,68,77,65
2025-02-25 18:58:34.345,-623.0,33.0,295.0,41.0,81.0,128.0,152,59,73,80,68
2025-02-25 18:58:34.349,-636.0,164.0,267.0,28.0,84.0,113.0,150,58,71,78,66
2025-02-25 18:58:34.354,-640.0,-46.0,202.0,-18.0,78.0,99.0,151,56,70,80,65
2025-02-25 18:58:34.357,-711.0,-52.0,248.0,-43.0,83.0,93.0,151,58,71,85,69
2025-02-25 18:58:34.362,-771.0,-85.0,97.0,-46.0,82.0,85.0,152,62,69,84,69
2025-02-25 18:58:34.366,-790.0,21.0,46.0,-52.0,82.0,79.0,151,58,71,82,66
2025-02-25 18:58:34.373,-827.0,-8.0,54.0,-43.0,83.0,78.0,152,61,73,83,70
2025-02-25 18:58:34.378,-916.0,-113.0,19.0,-39.0,77.0,72.0,151,62,73,84,71
2025-02-25 18:58:34.382,-917.0,-136.0,-27.0,-36.0,77.0,64.0,150,60,72,85,72
2025-02-25 18:58:34.387,-932.0,-132.0,-76.0,-44.0,68.0,59.0,152,61,74,85,73
2025-02-25 18:58:34.390,-883.0,-171.0,-59.0,-38.0,56.0,51.0,148,62,75,87,74
2025-02-25 18:58:34.399,-833.0,-122.0,13.0,-26.0,54.0,42.0,150,60,75,88,74
2025-02-25 18:58:34.403,-786.0,-151.0,-38.0,2.0,52.0,40.0,152,63,76,89,78
2025-02-25 18:58:34.407,-820.0,-131.0,-111.0,4.0,44.0,31.0,151,63,80,91,77
2025-02-25 18:58:34.411,-824.0,-92.0,-3.0,5.0,44.0,25.0,150,63,79,91,79
2025-02-25 18:58:34.415,-786.0,-118.0,-16.0,16.0,44.0,19.0,153,65,78,91,80
2025-02-25 18:58:34.423,-802.0,-146.0,-89.0,24.0,42.0,13.0,152,65,83,94,82
2025-02-25 18:58:34.427,-819.0,-97.0,-37.0,29.0,42.0,3.0,150,65,83,93,83
2025-02-25 18:58:34.431,-794.0,-52.0,26.0,61.0,42.0,-2.0,150,68,83,95,84
2025-02-25 18:58:34.436,-788.0,-129.0,-64.0,65.0,38.0,-12.0,152,69,86,95,88
2025-02-25 18:58:34.439,-831.0,-71.0,-104.0,65.0,37.0,-25.0,150,68,84,95,90
2025-02-25 18:58:34.444,-863.0,-43.0,-134.0,67.0,46.0,-31.0,152,71,84,92,91
2025-02-25 18:58:34.451,-872.0,-57.0,-279.0,78.0,28.0,-35.0,150,74,88,98,95
2025-02-25 18:58:34.456,-932.0,6.0,-456.0,90.0,6.0,-42.0,150,74,88,97,97
2025-02-25 18:58:34.460,-949.0,-22.0,-241.0,107.0,-8.0,-44.0,150,77,89,99,98
2025-02-25 18:58:34.465,-885.0,8.0,-264.0,109.0,-17.0,-52.0,152,82,92,99,101
2025-02-25 18:58:34.472,-928.0,186.0,-315.0,121.0,-21.0,-63.0,150,84,93,100,99
2025-02-25 18:58:34.477,-978.0,235.0,-466.0,140.0,-27.0,-70.0,151,88,93,98,99
2025-02-25 18:58:34.481,-1046.0,340.0,-589.0,145.0,-44.0,-90.0,151,94,99,100,103
2025-02-25 18:58:34.485,-1092.0,419.0,-553.0,152.0,-66.0,-117.0,150,97,100,103,104
2025-02-25 18:58:34.493,-1088.0,493.0,-603.0,161.0,-80.0,-135.0,150,100,99,105,106
2025-02-25 18:58:34.497,-1001.0,472.0,-633.0,184.0,-101.0,-176.0,153,106,100,107,107
2025-02-25 18:58:34.505,-943.0,312.0,-584.0,193.0,-115.0,-206.0,151,108,102,110,110
2025-02-25 18:58:34.510,-1106.0,280.0,-697.0,200.0,-131.0,-220.0,151,108,103,112,108
2025-02-25 18:58:34.514,-1189.0,481.0,-630.0,224.0,-132.0,-233.0,152,110,102,112,109
2025-02-25 18:58:34.522,-1128.0,776.0,-459.0,240.0,-130.0,-276.0,146,111,104,114,112
2025-02-25 18:58:34.526,-726.0,445.0,179.0,239.0,-120.0,-303.0,153,112,105,117,115
2025-02-25 18:58:34.534,-463.0,209.0,702.0,198.0,-92.0,-327.0,150,113,106,117,115
2025-02-25 18:58:34.538,-353.0,42.0,912.0,177.0,-91.0,-333.0,150,116,107,117,116
2025-02-25 18:58:34.542,-391.0,-9.0,986.0,172.0,-112.0,-344.0,152,118,110,118,118
2025-02-25 18:58:34.550,-162.0,-64.0,104.0,137.0,-200.0,-361.0,152,120,109,121,123
2025-02-25 18:58:34.554,53.0,-145.0,167.0,133.0,-248.0,-361.0,151,121,109,124,118
2025-02-25 18:58:34.559,364.0,-302.0,155.0,101.0,-274.0,-359.0,151,123,108,120,117
2025-02-25 18:58:34.567,591.0,-540.0,302.0,84.0,-276.0,-353.0,151,122,110,122,121
2025-02-25 18:58:34.571,1017.0,-854.0,498.0,82.0,-270.0,-344.0,150,124,106,120,119
2025-02-25 18:58:34.575,1379.0,-1036.0,507.0,67.0,-263.0,-340.0,150,124,110,122,119
2025-02-25 18:58:34.583,1811.0,-1630.0,827.0,56.0,-246.0,-316.0,146,124,111,121,120
2025-02-25 18:58:34.588,2118.0,-2305.0,1063.0,34.0,-228.0,-274.0,152,125,113,124,123
2025-02-25 18:58:34.595,2429.0,-3028.0,1258.0,-22.0,-210.0,-222.0,151,128,114,124,124
2025-02-25 18:58:34.600,2538.0,-3313.0,1559.0,-55.0,-183.0,-172.0,151,127,114,123,124
2025-02-25 18:58:34.604,2614.0,-3459.0,1660.0,-96.0,-164.0,-125.0,150,125,114,123,122
2025-02-25 18:58:34.612,2722.0,-3522.0,1695.0,-139.0,-149.0,-89.0,147,126,113,122,124
2025-02-25 18:58:34.616,2644.0,-3453.0,1020.0,-206.0,-213.0,-76.0,148,124,113,119,123
2025-02-25 18:58:34.624,2582.0,-3312.0,750.0,-185.0,-205.0,-19.0,150,125,113,119,120
2025-02-25 18:58:34.628,2219.0,-2915.0,837.0,-170.0,-106.0,59.0,149,125,113,122,123
2025-02-25 18:58:34.633,1935.0,-2629.0,340.0,-204.0,-17.0,131.0,149,125,112,121,123
2025-02-25 18:58:34.641,1317.0,-2250.0,-234.0,-226.0,-49.0,186.0,149,126,111,123,124
2025-02-25 18:58:34.645,1173.0,-1721.0,-315.0,-251.0,-99.0,207.0,150,124,110,123,125
2025-02-25 18:58:34.653,1294.0,-1661.0,1071.0,-112.0,-56.0,221.0,149,123,108,123,124
2025-02-25 18:58:34.657,1196.0,-1878.0,1237.0,-100.0,26.0,251.0,149,123,109,121,124
2025-02-25 18:58:34.662,1106.0,-1402.0,-62.0,-36.0,26.0,239.0,151,123,110,123,126
2025-02-25 18:58:34.669,647.0,-1377.0,-165.0,-34.0,-65.0,241.0,151,123,111,121,124
2025-02-25 18:58:34.673,489.0,-1465.0,-189.0,-118.0,-122.0,246.0,152,124,112,123,126
2025-02-25 18:58:34.677,559.0,-1334.0,-85.0,-81.0,-112.0,245.0,151,125,113,124,126
2025-02-25 18:58:34.685,556.0,-1146.0,-182.0,-42.0,-75.0,243.0,151,128,115,126,129
2025-02-25 18:58:34.689,576.0,-1211.0,270.0,60.0,-16.0,233.0,152,126,114,127,128
2025-02-25 18:58:34.694,628.0,-1324.0,692.0,53.0,52.0,231.0,152,127,114,125,127
2025-02-25 18:58:34.702,633.0,-1197.0,528.0,98.0,65.0,213.0,152,127,111,124,129
2025-02-25 18:58:34.706,369.0,-1170.0,387.0,60.0,74.0,213.0,151,126,114,124,126
2025-02-25 18:58:34.710,142.0,-1091.0,293.0,-8.0,56.0,209.0,150,128,114,123,127
2025-02-25 18:58:34.717,-10.0,-929.0,-67.0,-37.0,10.0,207.0,151,130,118,127,129
2025-02-25 18:58:34.722,-64.0,-763.0,55.0,-28.0,-10.0,206.0,152,131,117,127,129
2025-02-25 18:58:34.727,-76.0,-748.0,324.0,3.0,-10.0,207.0,149,130,116,127,128
2025-02-25 18:58:34.730,-37.0,-739.0,329.0,33.0,14.0,205.0,150,127,114,124,127
2025-02-25 18:58:34.739,-90.0,-658.0,371.0,65.0,31.0,203.0,153,131,116,126,128
2025-02-25 18:58:34.743,-154.0,-529.0,525.0,92.0,72.0,197.0,153,129,117,125,128
2025-02-25 18:58:34.748,-193.0,-488.0,409.0,153.0,85.0,188.0,151,129,114,125,127
2025-02-25 18:58:34.755,-208.0,-384.0,392.0,177.0,106.0,180.0,150,127,114,124,127
2025-02-25 18:58:34.760,-301.0,-324.0,244.0,187.0,110.0,175.0,150,127,115,124,126
2025-02-25 18:58:34.764,-416.0,-293.0,233.0,178.0,97.0,165.0,150,128,117,127,129
2025-02-25 18:58:34.771,-498.0,-310.0,246.0,167.0,81.0,153.0,151,129,117,126,127
2025-02-25 18:58:34.775,-560.0,-297.0,251.0,156.0,70.0,141.0,151,130,116,126,129
2025-02-25 18:58:34.780,-574.0,-246.0,358.0,132.0,66.0,127.0,145,127,116,125,128
2025-02-25 18:58:34.788,-593.0,-249.0,518.0,123.0,88.0,111.0,151,125,113,124,126
2025-02-25 18:58:34.792,-632.0,-199.0,376.0,94.0,102.0,102.0,150,127,114,123,127
2025-02-25 18:58:34.797,-686.0,-183.0,256.0,78.0,99.0,88.0,150,128,115,125,128
2025-02-25 18:58:34.804,-681.0,-171.0,539.0,69.0,125.0,73.0,152,129,117,128,129
2025-02-25 18:58:34.809,-706.0,-150.0,378.0,34.0,133.0,61.0,150,127,113,125,127
2025-02-25 18:58:34.813,-741.0,-130.0,265.0,8.0,134.0,53.0,149,125,111,126,126
2025-02-25 18:58:34.816,-817.0,-142.0,160.0,-15.0,124.0,49.0,150,127,115,128,129
2025-02-25 18:58:34.825,-855.0,-161.0,128.0,-35.0,113.0,44.0,151,126,117,127,130
2025-02-25 18:58:34.829,-892.0,-171.0,5.0,-40.0,93.0,40.0,151,129,115,125,128
2025-02-25 18:58:34.833,-948.0,-166.0,-8.0,-42.0,84.0,36.0,149,127,117,126,127
2025-02-25 18:58:34.841,-946.0,-203.0,57.0,-34.0,77.0,34.0,150,127,116,126,128
2025-02-25 18:58:34.845,-930.0,-184.0,20.0,-25.0,73.0,27.0,151,127,118,129,130
2025-02-25 18:58:34.849,-859.0,-231.0,19.0,-24.0,68.0,19.0,149,127,115,126,130
2025-02-25 18:58:34.854,-896.0,-187.0,16.0,-16.0,54.0,12.0,148,126,115,127,127
2025-02-25 18:58:34.862,-884.0,-196.0,10.0,1.0,45.0,6.0,148,131,116,129,127
2025-02-25 18:58:34.866,-907.0,-223.0,87.0,15.0,33.0,3.0,151,128,117,127,129
2025-02-25 18:58:34.870,-892.0,-184.0,47.0,19.0,26.0,-3.0,149,128,116,127,128
2025-02-25 18:58:34.875,-874.0,-76.0,-26.0,41.0,22.0,-11.0,148,125,115,127,126
2025-02-25 18:58:34.882,-875.0,14.0,-70.0,63.0,10.0,-14.0,147,125,115,126,127
2025-02-25 18:58:34.887,-939.0,73.0,-85.0,71.0,-2.0,-21.0,149,126,115,129,130
2025-02-25 18:58:34.891,-972.0,175.0,-89.0,79.0,-10.0,-31.0,150,125,115,123,128
2025-02-25 18:58:34.895,-1023.0,194.0,-70.0,83.0,-14.0,-42.0,148,125,113,125,127
2025-02-25 18:58:34.902,-1040.0,245.0,-16.0,75.0,-19.0,-55.0,148,125,114,126,127
2025-02-25 18:58:34.907,-1078.0,271.0,-7.0,62.0,-25.0,-62.0,147,125,115,126,127
2025-02-25 18:58:34.912,-1076.0,291.0,29.0,51.0,-31.0,-78.0,148,126,114,126,128
2025-02-25 18:58:34.919,-1057.0,277.0,67.0,46.0,-32.0,-96.0,148,125,116,128,128
2025-02-25 18:58:34.923,-1021.0,276.0,100.0,45.0,-32.0,-116.0,148,123,114,125,127
2025-02-25 18:58:34.927,-1026.0,305.0,66.0,44.0,-32.0,-136.0,143,123,116,125,126
2025-02-25 18:58:34.935,-1027.0,313.0,55.0,51.0,-32.0,-146.0,147,122,115,125,126
2025-02-25 18:58:34.939,-1021.0,287.0,58.0,52.0,-35.0,-166.0,150,125,116,125,128
2025-02-25 18:58:34.944,-981.0,253.0,81.0,56.0,-35.0,-186.0,148,126,116,127,129
2025-02-25 18:58:34.951,-902.0,215.0,74.0,58.0,-42.0,-206.0,149,123,114,126,126
2025-02-25 18:58:34.956,-823.0,218.0,177.0,60.0,-40.0,-227.0,149,124,115,124,125
2025-02-25 18:58:34.961,-768.0,230.0,89.0,66.0,-41.0,-246.0,148,123,112,124,130
2025-02-25 18:58:34.965,-667.0,246.0,78.0,68.0,-50.0,-256.0,147,123,114,126,125
2025-02-25 18:58:34.972,-518.0,248.0,86.0,73.0,-62.0,-274.0,149,124,114,126,130
2025-02-25 18:58:34.977,-308.0,237.0,136.0,75.0,-73.0,-291.0,146,122,114,125,128
2025-02-25 18:58:34.981,-99.0,164.0,184.0,66.0,-86.0,-305.0,149,122,114,126,126
2025-02-25 18:58:34.988,6.0,60.0,256.0,55.0,-92.0,-317.0,148,122,112,127,126
2025-02-25 18:58:34.993,300.0,-47.0,262.0,49.0,-108.0,-321.0,149,119,112,126,125
2025-02-25 18:58:34.997,606.0,-375.0,240.0,41.0,-138.0,-324.0,149,122,111,126,128
2025-02-25 18:58:35.005,915.0,-841.0,406.0,28.0,-159.0,-320.0,150,122,115,125,126
2025-02-25 18:58:35.016,1210.0,-1362.0,537.0,4.0,-177.0,-308.0,150,121,112,127,127
2025-02-25 18:58:35.019,1464.0,-1849.0,729.0,-23.0,-185.0,-288.0,149,121,110,127,125
2025-02-25 18:58:35.022,1579.0,-2315.0,1007.0,-70.0,-184.0,-266.0,149,121,109,124,126
2025-02-25 18:58:35.026,1865.0,-2808.0,1054.0,-100.0,-197.0,-231.0,149,120,109,125,125
2025-02-25 18:58:35.033,2198.0,-3232.0,1075.0,-126.0,-224.0,-188.0,154,120,110,123,125
2025-02-25 18:58:35.038,2491.0,-3426.0,1070.0,-172.0,-241.0,-153.0,149,119,109,125,125
2025-02-25 18:58:35.045,2695.0,-3364.0,233.0,-269.0,-265.0,-130.0,149,119,107,127,126
2025-02-25 18:58:35.050,2712.0,-3561.0,898.0,-275.0,-253.0,-62.0,150,117,106,126,126
2025-02-25 18:58:35.054,2497.0,-3539.0,405.0,-267.0,-182.0,6.0,147,117,104,123,125
2025-02-25 18:58:35.062,2211.0,-3335.0,-882.0,-320.0,-232.0,49.0,154,115,103,119,124
2025-02-25 18:58:35.067,2253.0,-3094.0,1110.0,-174.0,-116.0,121.0,151,115,104,123,127
2025-02-25 18:58:35.075,2149.0,-2852.0,820.0,-19.0,48.0,157.0,153,114,103,125,127
2025-02-25 18:58:35.078,1677.0,-2622.0,495.0,15.0,74.0,203.0,151,115,104,125,128
2025-02-25 18:58:35.083,1295.0,-2046.0,4.0,58.0,20.0,224.0,152,114,102,124,128
2025-02-25 18:58:35.088,949.0,-2090.0,161.0,34.0,-11.0,245.0,151,113,101,125,127
2025-02-25 18:58:35.095,849.0,-1850.0,-565.0,-78.0,-37.0,261.0,148,114,100,124,126
2025-02-25 18:58:35.100,678.0,-1447.0,-377.0,-85.0,-86.0,261.0,150,115,102,123,126
2025-02-25 18:58:35.104,602.0,-1243.0,247.0,-37.0,-43.0,251.0,151,115,101,124,126
2025-02-25 18:58:35.112,658.0,-1355.0,384.0,11.0,15.0,240.0,151,116,102,125,126
2025-02-25 18:58:35.116,694.0,-1374.0,669.0,72.0,78.0,224.0,152,116,103,124,127
2025-02-25 18:58:35.120,560.0,-1214.0,336.0,89.0,99.0,208.0,154,119,107,126,127
2025-02-25 18:58:35.128,467.0,-1130.0,266.0,64.0,105.0,200.0,151,116,102,123,126
2025-02-25 18:58:35.132,270.0,-1143.0,-54.0,23.0,106.0,201.0,149,117,103,123,125
2025-02-25 18:58:35.137,105.0,-1032.0,-186.0,-39.0,61.0,202.0,151,117,103,124,127
2025-02-25 18:58:35.144,-26.0,-896.0,-174.0,-39.0,9.0,202.0,150,120,105,126,126
2025-02-25 18:58:35.148,-53.0,-834.0,314.0,-25.0,23.0,204.0,150,117,105,125,127
2025-02-25 18:58:35.153,-125.0,-817.0,285.0,-21.0,37.0,206.0,151,118,106,124,123
2025-02-25 18:58:35.161,-34.0,-714.0,311.0,-2.0,63.0,203.0,150,115,106,125,126
2025-02-25 18:58:35.165,-160.0,-670.0,259.0,32.0,63.0,204.0,152,120,110,126,127
2025-02-25 18:58:35.169,-345.0,-567.0,172.0,62.0,51.0,205.0,152,120,108,126,126
2025-02-25 18:58:35.173,-389.0,-523.0,243.0,86.0,57.0,199.0,151,119,109,126,127
2025-02-25 18:58:35.181,-285.0,-488.0,311.0,123.0,64.0,191.0,151,120,106,123,126
2025-02-25 18:58:35.186,-305.0,-491.0,591.0,165.0,112.0,183.0,151,118,108,126,122
2025-02-25 18:58:35.190,-317.0,-405.0,413.0,225.0,146.0,176.0,151,118,109,125,127
2025-02-25 18:58:35.198,-423.0,-372.0,406.0,245.0,171.0,165.0,152,120,113,125,127
2025-02-25 18:58:35.202,-481.0,-369.0,359.0,228.0,184.0,165.0,154,120,111,127,129
2025-02-25 18:58:35.206,-641.0,-175.0,-338.0,172.0,78.0,143.0,151,119,107,125,127
2025-02-25 18:58:35.213,-685.0,-173.0,272.0,124.0,58.0,138.0,151,120,107,126,126
2025-02-25 18:58:35.218,-736.0,-173.0,383.0,92.0,58.0,130.0,152,117,108,125,126
2025-02-25 18:58:35.222,-720.0,-132.0,375.0,50.0,65.0,125.0,151,120,109,125,126
2025-02-25 18:58:35.230,-747.0,-77.0,283.0,52.0,72.0,114.0,151,122,109,126,128
2025-02-25 18:58:35.235,-759.0,-60.0,416.0,41.0,92.0,101.0,153,119,107,126,127
2025-02-25 18:58:35.239,-723.0,18.0,459.0,26.0,126.0,88.0,151,117,107,125,126
2025-02-25 18:58:35.243,-723.0,-19.0,323.0,-5.0,140.0,76.0,153,121,108,125,126
2025-02-25 18:58:35.251,-775.0,-30.0,-10.0,-35.0,134.0,71.0,151,120,112,125,127
2025-02-25 18:58:35.255,-871.0,3.0,34.0,-68.0,116.0,64.0,150,119,111,128,129
2025-02-25 18:58:35.259,-942.0,24.0,8.0,-83.0,91.0,57.0,152,119,108,126,126
2025-02-25 18:58:35.264,-932.0,54.0,-24.0,-98.0,76.0,53.0,151,118,109,124,125
2025-02-25 18:58:35.271,-935.0,73.0,-71.0,-104.0,53.0,43.0,152,119,109,126,127
2025-02-25 18:58:35.276,-944.0,116.0,38.0,-90.0,43.0,30.0,153,116,111,124,127
2025-02-25 18:58:35.280,-864.0,84.0,145.0,-65.0,42.0,17.0,151,113,108,123,126
2025-02-25 18:58:35.284,-807.0,109.0,29.0,-66.0,50.0,9.0,151,112,106,123,125
2025-02-25 18:58:35.292,-866.0,89.0,-153.0,-67.0,29.0,-4.0,152,114,107,123,126
2025-02-25 18:58:35.296,-1019.0,117.0,-164.0,-65.0,-4.0,-14.0,151,110,105,124,125
2025-02-25 18:58:35.300,-997.0,157.0,-28.0,-27.0,-22.0,-25.0,151,102,104,120,124
2025-02-25 18:58:35.308,-914.0,198.0,144.0,-11.0,-18.0,-40.0,152,98,100,119,123
2025-02-25 18:58:35.312,-881.0,209.0,186.0,6.0,-12.0,-46.0,149,93,102,117,121
2025-02-25 18:58:35.317,-998.0,274.0,134.0,29.0,-9.0,-58.0,151,90,97,113,123
2025-02-25 18:58:35.321,-1033.0,349.0,97.0,46.0,-8.0,-73.0,152,85,95,111,121
2025-02-25 18:58:35.329,-1055.0,390.0,74.0,53.0,-10.0,-87.0,152,79,91,104,117
2025-02-25 18:58:35.333,-1128.0,379.0,74.0,38.0,-5.0,-94.0,152,76,87,99,115
2025-02-25 18:58:35.337,-1192.0,388.0,59.0,24.0,-9.0,-104.0,150,70,85,94,112
2025-02-25 18:58:35.341,-1254.0,286.0,-250.0,26.0,-28.0,-107.0,153,68,82,90,110
2025-02-25 18:58:35.349,-1213.0,546.0,269.0,38.0,-45.0,-124.0,152,64,79,82,101
2025-02-25 18:58:35.354,-1296.0,465.0,103.0,34.0,-25.0,-130.0,152,64,77,79,94
2025-02-25 18:58:35.357,-1289.0,365.0,8.0,0.0,-10.0,-145.0,153,61,72,75,87
2025-02-25 18:58:35.362,-1277.0,525.0,291.0,-11.0,9.0,-175.0,153,60,73,71,82
2025-02-25 18:58:35.370,-1005.0,561.0,951.0,-37.0,78.0,-197.0,152,55,68,69,77
2025-02-25 18:58:35.374,-775.0,622.0,888.0,-66.0,126.0,-229.0,152,54,69,67,72
2025-02-25 18:58:35.378,-512.0,633.0,-29.0,-64.0,69.0,-262.0,151,55,70,66,66
2025-02-25 18:58:35.382,-302.0,520.0,-221.0,-62.0,45.0,-306.0,152,53,67,66,63
2025-02-25 18:58:35.390,-75.0,401.0,-189.0,-81.0,25.0,-326.0,152,54,68,67,61
2025-02-25 18:58:35.394,-128.0,120.0,-152.0,-94.0,33.0,-359.0,151,51,66,65,59
2025-02-25 18:58:35.398,-187.0,-106.0,-136.0,-99.0,49.0,-368.0,151,50,65,65,56
2025-02-25 18:58:35.403,-205.0,-264.0,229.0,-97.0,64.0,-368.0,152,50,65,67,54
2025-02-25 18:58:35.410,-60.0,-272.0,122.0,-84.0,67.0,-367.0,152,50,62,66,52
2025-02-25 18:58:35.414,86.0,-575.0,143.0,-73.0,36.0,-362.0,153,51,62,70,52
2025-02-25 18:58:35.419,127.0,-801.0,-86.0,-59.0,9.0,-357.0,150,50,59,66,50
2025-02-25 18:58:35.423,526.0,-941.0,-248.0,-54.0,-57.0,-355.0,151,50,62,67,50
2025-02-25 18:58:35.431,941.0,-1384.0,-267.0,-54.0,-112.0,-341.0,152,50,63,69,53
2025-02-25 18:58:35.435,1670.0,-1855.0,-164.0,-57.0,-121.0,-328.0,152,50,64,67,50
2025-02-25 18:58:35.440,2313.0,-2622.0,20.0,-57.0,-155.0,-300.0,152,50,63,67,50
2025-02-25 18:58:35.447,2528.0,-3328.0,300.0,-27.0,-158.0,-245.0,154,49,64,64,47
2025-02-25 18:58:35.451,2807.0,-3852.0,484.0,42.0,-100.0,-222.0,153,49,61,67,50
2025-02-25 18:58:35.456,3034.0,-4526.0,416.0,112.0,-24.0,-170.0,155,53,63,68,54
2025-02-25 18:58:35.461,3291.0,-4745.0,523.0,123.0,8.0,-89.0,153,50,72,65,49
2025-02-25 18:58:35.468,3033.0,-4853.0,694.0,101.0,6.0,7.0,152,47,63,63,51
2025-02-25 18:58:35.472,3011.0,-4841.0,438.0,64.0,-4.0,49.0,153,47,63,68,51
2025-02-25 18:58:35.476,2764.0,-4399.0,482.0,24.0,18.0,121.0,151,51,67,65,51
2025-02-25 18:58:35.481,2520.0,-3838.0,380.0,12.0,49.0,168.0,153,52,64,64,54
2025-02-25 18:58:35.488,2325.0,-2993.0,112.0,54.0,63.0,178.0,153,50,64,65,52
2025-02-25 18:58:35.492,1936.0,-2747.0,-20.0,94.0,66.0,208.0,155,51,63,69,55
2025-02-25 18:58:35.497,1521.0,-2105.0,104.0,86.0,37.0,229.0,155,52,66,68,53
2025-02-25 18:58:35.501,1364.0,-1740.0,86.0,55.0,31.0,241.0,155,59,67,73,52
2025-02-25 18:58:35.505,1125.0,-1568.0,85.0,2.0,25.0,240.0,155,53,69,69,55
2025-02-25 18:58:35.513,951.0,-1439.0,71.0,-34.0,-8.0,244.0,154,53,66,70,54
2025-02-25 18:58:35.517,859.0,-1469.0,63.0,-62.0,-23.0,246.0,153,53,65,71,53
2025-02-25 18:58:35.522,670.0,-1450.0,-22.0,-80.0,-31.0,245.0,156,54,69,71,55
2025-02-25 18:58:35.526,645.0,-1336.0,178.0,-100.0,-38.0,254.0,155,53,66,68,55
2025-02-25 18:58:35.533,503.0,-1301.0,162.0,-94.0,-45.0,255.0,158,51,63,62,55
2025-02-25 18:58:35.538,490.0,-1158.0,380.0,-117.0,-54.0,248.0,154,50,65,66,54
2025-02-25 18:58:35.542,469.0,-1046.0,456.0,-116.0,-51.0,245.0,155,55,66,70,56
2025-02-25 18:58:35.546,244.0,-905.0,431.0,-111.0,-46.0,243.0,154,54,66,70,55
2025-02-25 18:58:35.554,172.0,-693.0,566.0,-117.0,-29.0,240.0,154,52,65,71,55
2025-02-25 18:58:35.558,82.0,-647.0,492.0,-78.0,-33.0,241.0,154,52,62,69,54
2025-02-25 18:58:35.562,-35.0,-551.0,564.0,-77.0,-34.0,243.0,155,55,68,71,57
2025-02-25 18:58:35.566,-115.0,-457.0,475.0,-71.0,-18.0,241.0,156,54,66,72,56
2025-02-25 18:58:35.574,-274.0,-320.0,654.0,-25.0,-9.0,239.0,155,54,67,69,54
2025-02-25 18:58:35.578,-332.0,-267.0,515.0,6.0,6.0,236.0,154,53,70,69,53
2025-02-25 18:58:35.582,-378.0,-128.0,467.0,22.0,10.0,226.0,155,56,68,69,58
2025-02-25 18:58:35.587,-474.0,-3.0,487.0,26.0,10.0,217.0,154,52,67,70,56
2025-02-25 18:58:35.591,-511.0,62.0,484.0,16.0,13.0,211.0,154,54,68,68,53
2025-02-25 18:58:35.598,-581.0,210.0,474.0,1.0,29.0,199.0,155,54,69,70,56
2025-02-25 18:58:35.602,-676.0,331.0,450.0,-12.0,35.0,188.0,156,56,67,70,56
2025-02-25 18:58:35.607,-728.0,334.0,337.0,-6.0,38.0,179.0,155,53,67,69,55
2025-02-25 18:58:35.611,-810.0,341.0,323.0,-14.0,44.0,163.0,155,57,68,73,56
2025-02-25 18:58:35.615,-878.0,348.0,285.0,-19.0,57.0,147.0,155,55,73,72,57
2025-02-25 18:58:35.623,-921.0,301.0,289.0,-16.0,58.0,139.0,156,58,70,71,56
2025-02-25 18:58:35.627,-974.0,312.0,243.0,-31.0,58.0,121.0,154,55,72,72,60
2025-02-25 18:58:35.632,-955.0,207.0,186.0,-41.0,60.0,103.0,154,56,66,71,56
2025-02-25 18:58:35.636,-1015.0,188.0,198.0,-44.0,60.0,88.0,153,55,65,72,56
2025-02-25 18:58:35.641,-1026.0,186.0,232.0,-45.0,59.0,80.0,156,56,67,74,58
2025-02-25 18:58:35.648,-1080.0,110.0,127.0,-42.0,57.0,66.0,154,56,64,72,57
2025-02-25 18:58:35.652,-1074.0,138.0,186.0,-41.0,59.0,52.0,153,54,62,74,57
2025-02-25 18:58:35.657,-1076.0,154.0,138.0,-42.0,65.0,44.0,154,55,65,75,57
2025-02-25 18:58:35.661,-1113.0,125.0,84.0,-40.0,67.0,32.0,155,58,65,74,59
2025-02-25 18:58:35.668,-1103.0,123.0,116.0,-27.0,64.0,24.0,154,54,63,71,57
2025-02-25 18:58:35.672,-1078.0,118.0,37.0,-17.0,59.0,18.0,156,58,66,73,58
2025-02-25 18:58:35.677,-1143.0,75.0,31.0,-13.0,57.0,9.0,154,56,66,75,57
2025-02-25 18:58:35.681,-1125.0,91.0,37.0,-4.0,58.0,-1.0,155,52,67,73,58
2025-02-25 18:58:35.685,-1144.0,69.0,31.0,14.0,49.0,-5.0,155,53,65,73,59
2025-02-25 18:58:35.689,-1116.0,94.0,-42.0,22.0,41.0,-15.0,153,55,71,72,58
2025-02-25 18:58:35.697,-1066.0,142.0,-35.0,34.0,42.0,-25.0,153,54,65,74,56
2025-02-25 18:58:35.701,-1048.0,132.0,-161.0,72.0,42.0,-32.0,158,57,68,71,59
2025-02-25 18:58:35.706,-989.0,166.0,37.0,60.0,37.0,-44.0,155,56,67,73,61
2025-02-25 18:58:35.710,-1032.0,159.0,-65.0,63.0,37.0,-54.0,154,57,67,72,57
2025-02-25 18:58:35.714,-1004.0,186.0,-18.0,53.0,30.0,-59.0,154,56,67,74,59
2025-02-25 18:58:35.722,-951.0,200.0,-33.0,54.0,22.0,-71.0,157,56,69,75,60
2025-02-25 18:58:35.726,-959.0,283.0,-12.0,56.0,18.0,-84.0,154,54,67,74,57
2025-02-25 18:58:35.730,-947.0,278.0,-84.0,65.0,15.0,-91.0,156,44,67,73,54
2025-02-25 18:58:35.735,-949.0,333.0,-65.0,72.0,19.0,-106.0,155,57,69,75,59
2025-02-25 18:58:35.739,-955.0,446.0,-99.0,70.0,19.0,-121.0,151,54,63,74,58
2025-02-25 18:58:35.746,-980.0,487.0,-106.0,74.0,16.0,-129.0,154,58,65,73,57
2025-02-25 18:58:35.750,-1017.0,552.0,-100.0,79.0,14.0,-147.0,155,55,65,74,58
2025-02-25 18:58:35.755,-1000.0,625.0,-114.0,82.0,11.0,-167.0,153,54,64,72,58
2025-02-25 18:58:35.758,-1018.0,610.0,-156.0,84.0,9.0,-179.0,154,55,64,73,57
2025-02-25 18:58:35.767,-1010.0,617.0,-174.0,87.0,2.0,-205.0,155,56,67,76,60
2025-02-25 18:58:35.771,-976.0,577.0,-205.0,88.0,-10.0,-233.0,156,54,66,73,58
2025-02-25 18:58:35.775,-958.0,553.0,-223.0,86.0,-18.0,-248.0,152,54,65,72,57
2025-02-25 18:58:35.779,-856.0,507.0,-176.0,87.0,-41.0,-274.0,156,57,66,73,59
2025-02-25 18:58:35.787,-692.0,434.0,-150.0,86.0,-65.0,-301.0,155,56,66,74,60
2025-02-25 18:58:35.791,-587.0,367.0,-77.0,75.0,-74.0,-314.0,155,59,68,73,58
2025-02-25 18:58:35.796,-330.0,334.0,-77.0,58.0,-93.0,-341.0,155,56,65,73,59
2025-02-25 18:58:35.800,-38.0,234.0,-23.0,49.0,-108.0,-367.0,154,56,69,74,54
2025-02-25 18:58:35.807,131.0,37.0,29.0,27.0,-114.0,-384.0,152,56,66,73,59
2025-02-25 18:58:35.812,454.0,-147.0,96.0,-4.0,-128.0,-388.0,154,55,66,67,59
2025-02-25 18:58:35.816,832.0,-601.0,125.0,-22.0,-137.0,-385.0,157,56,68,73,59
2025-02-25 18:58:35.821,1215.0,-1266.0,248.0,-46.0,-141.0,-369.0,154,56,65,73,58
2025-02-25 18:58:35.828,1420.0,-2001.0,385.0,-72.0,-143.0,-347.0,153,54,66,73,58
2025-02-25 18:58:35.832,1864.0,-2382.0,615.0,-82.0,-136.0,-331.0,155,53,68,72,60
2025-02-25 18:58:35.837,2266.0,-3158.0,708.0,-82.0,-117.0,-280.0,156,55,70,75,60
2025-02-25 18:58:35.845,2743.0,-3940.0,970.0,-73.0,-75.0,-212.0,155,56,69,74,59
2025-02-25 18:58:35.849,3056.0,-4738.0,1137.0,-31.0,26.0,-142.0,154,57,70,74,62
2025-02-25 18:58:35.853,3061.0,-5151.0,1544.0,2.0,27.0,-44.0,153,53,68,70,59
2025-02-25 18:58:35.857,3188.0,-5295.0,921.0,159.0,26.0,-2.0,155,55,72,70,60
2025-02-25 18:58:35.864,2974.0,-4767.0,628.0,208.0,80.0,21.0,154,51,71,69,60
2025-02-25 18:58:35.869,2533.0,-4340.0,353.0,201.0,127.0,73.0,150,48,68,66,58
2025-02-25 18:58:35.873,2323.0,-3625.0,216.0,157.0,126.0,117.0,155,54,73,72,64
2025-02-25 18:58:35.877,1856.0,-3425.0,393.0,58.0,70.0,164.0,155,54,73,71,61
2025-02-25 18:58:35.885,1534.0,-2712.0,129.0,-3.0,33.0,191.0,158,58,78,74,66
2025-02-25 18:58:35.890,1158.0,-1873.0,-27.0,-120.0,14.0,213.0,156,53,74,74,63
2025-02-25 18:58:35.894,936.0,-1645.0,-89.0,-109.0,18.0,215.0,157,52,72,72,61
2025-02-25 18:58:35.898,809.0,-1383.0,-301.0,-55.0,31.0,219.0,158,60,77,76,64
2025-02-25 18:58:35.906,943.0,-1339.0,104.0,-46.0,31.0,203.0,158,58,74,77,63
2025-02-25 18:58:35.910,796.0,-1484.0,218.0,-20.0,48.0,197.0,156,57,72,77,63
2025-02-25 18:58:35.914,576.0,-1403.0,-52.0,-117.0,58.0,196.0,158,61,74,77,64
2025-02-25 18:58:35.918,503.0,-1334.0,25.0,-159.0,29.0,200.0,157,60,73,78,65
2025-02-25 18:58:35.926,153.0,-1554.0,31.0,-162.0,-9.0,205.0,157,61,74,78,66
2025-02-25 18:58:35.930,192.0,-1528.0,356.0,-145.0,-5.0,215.0,157,58,69,77,63
2025-02-25 18:58:35.935,165.0,-1376.0,143.0,-142.0,-26.0,219.0,158,61,72,79,65
2025-02-25 18:58:35.939,-8.0,-1212.0,413.0,-143.0,1.0,222.0,157,60,71,78,66
2025-02-25 18:58:35.947,-42.0,-982.0,125.0,-151.0,6.0,216.0,155,61,73,79,65
2025-02-25 18:58:35.951,-49.0,-979.0,366.0,-130.0,-34.0,213.0,156,59,72,77,65
2025-02-25 18:58:35.955,-348.0,-769.0,350.0,-44.0,-55.0,220.0,158,64,74,79,66
2025-02-25 18:58:35.960,-274.0,-658.0,147.0,-21.0,-51.0,217.0,156,61,73,77,66
2025-02-25 18:58:35.968,-319.0,-368.0,313.0,-16.0,-42.0,223.0,155,61,72,77,65
2025-02-25 18:58:35.972,-439.0,-341.0,387.0,30.0,-22.0,226.0,156,60,76,78,66
2025-02-25 18:58:35.976,-480.0,-375.0,313.0,16.0,-31.0,227.0,156,63,76,79,68
2025-02-25 18:58:35.980,-415.0,-197.0,440.0,9.0,-36.0,220.0,155,68,75,77,61
2025-02-25 18:58:35.988,-413.0,-146.0,370.0,-3.0,-31.0,214.0,156,60,75,78,65
2025-02-25 18:58:35.992,-526.0,-137.0,319.0,-25.0,-19.0,213.0,155,59,75,77,67
2025-02-25 18:58:35.996,-554.0,39.0,354.0,-25.0,8.0,208.0,157,63,74,79,68
2025-02-25 18:58:36.000,-530.0,80.0,346.0,-27.0,21.0,196.0,155,61,80,79,67
2025-02-25 18:58:36.005,-532.0,90.0,272.0,-40.0,38.0,192.0,156,61,78,82,69
2025-02-25 18:58:36.013,-534.0,139.0,369.0,-33.0,55.0,175.0,155,61,79,81,69
2025-02-25 18:58:36.017,-523.0,110.0,257.0,-41.0,59.0,155.0,154,61,75,80,66
2025-02-25 18:58:36.021,-610.0,173.0,225.0,-61.0,68.0,146.0,156,64,78,82,67
2025-02-25 18:58:36.025,-579.0,71.0,290.0,-64.0,79.0,127.0,155,63,77,82,68
2025-02-25 18:58:36.030,-664.0,46.0,83.0,-89.0,79.0,112.0,152,59,76,81,68
2025-02-25 18:58:36.037,-854.0,76.0,156.0,-89.0,76.0,104.0,155,63,77,81,68
2025-02-25 18:58:36.041,-774.0,-25.0,115.0,-78.0,69.0,89.0,155,63,77,82,69
2025-02-25 18:58:36.046,-837.0,-98.0,144.0,-45.0,65.0,73.0,154,62,75,80,68
2025-02-25 18:58:36.050,-908.0,-116.0,30.0,-21.0,59.0,65.0,155,65,80,81,71
2025-02-25 18:58:36.053,-871.0,-21.0,95.0,-4.0,75.0,52.0,153,63,79,81,70
2025-02-25 18:58:36.058,-906.0,-19.0,-132.0,10.0,81.0,41.0,153,64,78,81,68
2025-02-25 18:58:36.066,-950.0,36.0,-117.0,25.0,79.0,36.0,155,65,79,81,70
2025-02-25 18:58:36.070,-970.0,-8.0,-165.0,32.0,64.0,26.0,153,65,79,82,72
2025-02-25 18:58:36.074,-972.0,-181.0,-64.0,40.0,59.0,15.0,150,62,79,81,71
2025-02-25 18:58:36.079,-976.0,-187.0,-124.0,43.0,38.0,13.0,153,64,80,83,72
2025-02-25 18:58:36.082,-918.0,-202.0,-125.0,56.0,34.0,12.0,153,65,81,82,72
2025-02-25 18:58:36.090,-869.0,-87.0,-112.0,54.0,38.0,10.0,151,65,81,82,70
2025-02-25 18:58:36.095,-794.0,-14.0,-258.0,71.0,36.0,9.0,152,66,88,83,71
2025-02-25 18:58:36.098,-716.0,-252.0,-39.0,85.0,59.0,12.0,152,68,84,84,70
2025-02-25 18:58:36.102,-752.0,-219.0,-105.0,72.0,63.0,3.0,151,67,85,82,71
2025-02-25 18:58:36.107,-750.0,-133.0,-220.0,59.0,63.0,0.0,151,68,86,82,72
2025-02-25 18:58:36.114,-746.0,-105.0,-219.0,58.0,47.0,0.0,151,69,87,84,73
2025-02-25 18:58:36.119,-726.0,-13.0,-315.0,60.0,37.0,-2.0,151,70,86,86,73
2025-02-25 18:58:36.123,-731.0,0.0,-370.0,69.0,17.0,-5.0,152,76,91,87,75
2025-02-25 18:58:36.127,-838.0,115.0,-396.0,80.0,0.0,-9.0,151,74,92,88,76
2025-02-25 18:58:36.131,-874.0,206.0,-428.0,94.0,-10.0,-16.0,149,74,92,86,74
2025-02-25 18:58:36.139,-893.0,279.0,-371.0,112.0,-22.0,-22.0,152,80,97,89,76
2025-02-25 18:58:36.143,-1024.0,396.0,-321.0,128.0,-19.0,-35.0,151,83,99,90,79
2025-02-25 18:58:36.148,-1078.0,439.0,-282.0,137.0,-19.0,-53.0,149,82,97,89,78
2025-02-25 18:58:36.152,-1086.0,412.0,-319.0,159.0,-32.0,-68.0,147,82,99,91,80
2025-02-25 18:58:36.160,-1079.0,375.0,-289.0,180.0,-45.0,-100.0,150,90,101,91,81
2025-02-25 18:58:36.164,-1154.0,369.0,-408.0,185.0,-57.0,-140.0,146,90,98,91,81
2025-02-25 18:58:36.168,-1110.0,379.0,-409.0,193.0,-80.0,-159.0,144,91,103,91,79
2025-02-25 18:58:36.176,-1020.0,423.0,-318.0,204.0,-86.0,-191.0,145,96,108,93,81
2025-02-25 18:58:36.180,-1074.0,466.0,-148.0,222.0,-95.0,-227.0,142,99,110,93,83
2025-02-25 18:58:36.185,-973.0,522.0,-137.0,237.0,-99.0,-267.0,139,104,111,92,82
2025-02-25 18:58:36.192,-840.0,453.0,-152.0,249.0,-99.0,-312.0,136,104,111,91,82
2025-02-25 18:58:36.197,-769.0,383.0,-96.0,227.0,-100.0,-358.0,133,104,114,93,81
2025-02-25 18:58:36.201,-685.0,433.0,-42.0,210.0,-105.0,-377.0,137,108,122,93,81
2025-02-25 18:58:36.208,-566.0,336.0,4.0,185.0,-123.0,-410.0,132,107,115,94,82
2025-02-25 18:58:36.213,-413.0,211.0,96.0,170.0,-145.0,-437.0,131,111,120,93,82
2025-02-25 18:58:36.217,-146.0,-27.0,84.0,147.0,-160.0,-450.0,128,111,119,93,83
2025-02-25 18:58:36.222,82.0,50.0,-98.0,152.0,-221.0,-457.0,129,115,119,93,81
2025-02-25 18:58:36.229,436.0,-172.0,200.0,152.0,-249.0,-457.0,129,118,121,94,84
2025-02-25 18:58:36.234,474.0,-864.0,349.0,96.0,-246.0,-445.0,127,121,123,95,83
2025-02-25 18:58:36.238,799.0,-1075.0,471.0,76.0,-245.0,-424.0,127,121,123,91,83
2025-02-25 18:58:36.246,1373.0,-1372.0,729.0,65.0,-242.0,-390.0,127,121,121,93,83
2025-02-25 18:58:36.251,1618.0,-1830.0,967.0,54.0,-225.0,-345.0,125,124,121,93,84
2025-02-25 18:58:36.255,2018.0,-2142.0,1098.0,43.0,-201.0,-321.0,126,125,123,92,83
2025-02-25 18:58:36.262,2482.0,-2655.0,1430.0,46.0,-157.0,-267.0,129,131,123,93,83
2025-02-25 18:58:36.266,2957.0,-3112.0,1540.0,69.0,-99.0,-205.0,128,131,125,94,84
2025-02-25 18:58:36.271,3247.0,-3664.0,1469.0,76.0,-47.0,-138.0,126,126,123,92,83
2025-02-25 18:58:36.279,3277.0,-3836.0,1367.0,82.0,5.0,-62.0,126,133,123,92,81
2025-02-25 18:58:36.283,3227.0,-3814.0,1193.0,70.0,24.0,12.0,124,128,122,90,81
2025-02-25 18:58:36.288,2968.0,-3763.0,1182.0,32.0,57.0,47.0,125,128,122,92,79
2025-02-25 18:58:36.295,2449.0,-3166.0,861.0,-53.0,46.0,105.0,126,131,122,92,78
2025-02-25 18:58:36.299,2076.0,-2994.0,1128.0,-146.0,34.0,163.0,127,131,121,90,77
2025-02-25 18:58:36.303,1559.0,-2185.0,1177.0,-144.0,26.0,208.0,127,131,122,91,77
2025-02-25 18:58:36.311,1168.0,-1918.0,842.0,-203.0,10.0,241.0,127,130,120,89,75
2025-02-25 18:58:36.315,1123.0,-1761.0,1066.0,-170.0,17.0,258.0,126,130,120,87,73
2025-02-25 18:58:36.320,845.0,-1340.0,804.0,-251.0,-82.0,241.0,126,128,118,88,74
2025-02-25 18:58:36.324,981.0,-1777.0,1020.0,-123.0,-87.0,236.0,127,130,121,91,76
2025-02-25 18:58:36.332,844.0,-1542.0,380.0,-138.0,-94.0,220.0,126,129,121,90,77
2025-02-25 18:58:36.336,833.0,-1529.0,384.0,-120.0,-80.0,216.0,125,129,116,90,75
2025-02-25 18:58:36.340,606.0,-1613.0,275.0,-170.0,-105.0,213.0,127,119,122,92,75
2025-02-25 18:58:36.349,634.0,-1574.0,387.0,-163.0,-108.0,215.0,126,130,122,90,75
2025-02-25 18:58:36.352,788.0,-1489.0,475.0,-138.0,-90.0,217.0,124,128,122,92,75
2025-02-25 18:58:36.357,778.0,-1501.0,595.0,-67.0,-45.0,229.0,124,130,122,94,77
2025-02-25 18:58:36.365,642.0,-1444.0,729.0,25.0,-15.0,244.0,127,128,124,95,77
2025-02-25 18:58:36.373,549.0,-1275.0,458.0,40.0,-8.0,247.0,126,131,123,95,77
2025-02-25 18:58:36.375,457.0,-1183.0,442.0,41.0,-8.0,258.0,125,130,121,92,75
2025-02-25 18:58:36.378,257.0,-1087.0,506.0,49.0,18.0,265.0,125,128,124,95,77
2025-02-25 18:58:36.385,220.0,-914.0,598.0,83.0,46.0,273.0,127,130,123,94,76
2025-02-25 18:58:36.390,73.0,-828.0,595.0,100.0,57.0,277.0,124,130,123,95,77
2025-02-25 18:58:36.394,-61.0,-647.0,543.0,117.0,58.0,277.0,123,128,121,94,77
2025-02-25 18:58:36.398,-172.0,-583.0,540.0,138.0,68.0,282.0,126,130,127,96,78
2025-02-25 18:58:36.406,-240.0,-407.0,530.0,156.0,85.0,284.0,126,129,123,97,79
2025-02-25 18:58:36.410,-306.0,-244.0,547.0,172.0,100.0,285.0,124,127,122,96,77
2025-02-25 18:58:36.415,-387.0,-114.0,588.0,211.0,104.0,279.0,123,130,124,96,74
2025-02-25 18:58:36.422,-457.0,-64.0,398.0,236.0,107.0,274.0,122,127,122,95,77
2025-02-25 18:58:36.426,-583.0,63.0,409.0,226.0,114.0,263.0,123,128,124,97,79
2025-02-25 18:58:36.431,-695.0,184.0,230.0,215.0,125.0,250.0,126,127,124,96,77
2025-02-25 18:58:36.435,-719.0,288.0,311.0,157.0,130.0,231.0,123,127,122,96,77
2025-02-25 18:58:36.443,-774.0,342.0,350.0,132.0,138.0,222.0,122,126,122,96,78
2025-02-25 18:58:36.447,-838.0,394.0,322.0,113.0,139.0,197.0,123,127,124,100,79
2025-02-25 18:58:36.451,-891.0,374.0,316.0,105.0,143.0,169.0,123,129,125,100,79
2025-02-25 18:58:36.459,-901.0,406.0,330.0,101.0,149.0,138.0,123,129,123,99,79
2025-02-25 18:58:36.463,-928.0,473.0,251.0,67.0,149.0,110.0,125,129,125,101,79
2025-02-25 18:58:36.467,-1013.0,389.0,173.0,42.0,149.0,99.0,123,130,126,100,81
2025-02-25 18:58:36.472,-1061.0,351.0,154.0,13.0,139.0,73.0,123,128,124,100,80
2025-02-25 18:58:36.479,-1084.0,331.0,91.0,1.0,123.0,51.0,122,126,127,99,79
2025-02-25 18:58:36.484,-1119.0,308.0,55.0,-15.0,115.0,34.0,123,127,127,102,81
2025-02-25 18:58:36.488,-1142.0,308.0,5.0,-23.0,105.0,27.0,124,129,126,98,81
2025-02-25 18:58:36.492,-1144.0,248.0,-3.0,-20.0,94.0,16.0,123,128,127,101,80
2025-02-25 18:58:36.500,-1143.0,216.0,-66.0,-21.0,80.0,6.0,121,127,126,100,82
2025-02-25 18:58:36.504,-1136.0,197.0,-105.0,-22.0,76.0,2.0,123,127,126,101,80
2025-02-25 18:58:36.508,-1127.0,180.0,-143.0,-20.0,60.0,-3.0,122,126,127,102,82
2025-02-25 18:58:36.516,-1081.0,145.0,-141.0,-15.0,41.0,-9.0,122,128,127,100,82
2025-02-25 18:58:36.520,-1056.0,140.0,-152.0,-14.0,24.0,-14.0,125,128,127,102,80
2025-02-25 18:58:36.525,-1028.0,177.0,-155.0,-9.0,16.0,-20.0,122,127,130,99,81
2025-02-25 18:58:36.529,-999.0,180.0,-151.0,-8.0,2.0,-24.0,121,125,126,100,81
2025-02-25 18:58:36.537,-981.0,199.0,-133.0,-3.0,-13.0,-32.0,123,127,125,101,82
2025-02-25 18:58:36.541,-953.0,231.0,-161.0,0.0,-26.0,-41.0,124,129,128,104,83
2025-02-25 18:58:36.545,-913.0,310.0,-185.0,-1.0,-34.0,-50.0,124,126,127,101,80
2025-02-25 18:58:36.553,-884.0,378.0,-216.0,-6.0,-36.0,-60.0,121,126,126,99,80
2025-02-25 18:58:36.557,-898.0,393.0,-212.0,-14.0,-43.0,-67.0,123,129,127,101,82
2025-02-25 18:58:36.562,-886.0,474.0,-214.0,-12.0,-43.0,-82.0,125,125,128,103,80
2025-02-25 18:58:36.566,-874.0,410.0,-199.0,-9.0,-41.0,-102.0,125,128,128,102,81
2025-02-25 18:58:36.574,-914.0,485.0,-180.0,-5.0,-35.0,-122.0,123,127,124,101,82
2025-02-25 18:58:36.578,-937.0,460.0,-216.0,3.0,-35.0,-143.0,124,123,126,98,80
2025-02-25 18:58:36.583,-944.0,465.0,-200.0,7.0,-38.0,-155.0,125,129,128,100,81
2025-02-25 18:58:36.590,-948.0,454.0,-215.0,22.0,-41.0,-180.0,125,125,126,102,81
2025-02-25 18:58:36.595,-921.0,419.0,-172.0,46.0,-45.0,-207.0,125,125,127,101,80
2025-02-25 18:58:36.599,-905.0,413.0,-221.0,51.0,-54.0,-236.0,124,126,127,101,79
2025-02-25 18:58:36.607,-893.0,412.0,-164.0,69.0,-54.0,-263.0,125,128,124,100,78
2025-02-25 18:58:36.611,-848.0,424.0,-66.0,85.0,-63.0,-293.0,117,123,125,99,77
2025-02-25 18:58:36.615,-704.0,416.0,-23.0,95.0,-77.0,-307.0,123,125,126,100,78
2025-02-25 18:58:36.620,-560.0,348.0,-2.0,94.0,-97.0,-337.0,123,126,126,100,75
2025-02-25 18:58:36.627,-345.0,279.0,87.0,91.0,-110.0,-363.0,124,125,126,102,80
2025-02-25 18:58:36.632,-234.0,150.0,183.0,81.0,-118.0,-384.0,122,124,128,99,76
2025-02-25 18:58:36.636,15.0,67.0,325.0,69.0,-130.0,-393.0,123,123,124,98,77
2025-02-25 18:58:36.643,306.0,-209.0,378.0,53.0,-141.0,-406.0,124,126,128,101,77
2025-02-25 18:58:36.648,645.0,-648.0,511.0,43.0,-150.0,-412.0,123,126,125,102,80
2025-02-25 18:58:36.652,959.0,-1234.0,688.0,33.0,-152.0,-406.0,124,124,124,99,77
2025-02-25 18:58:36.660,1108.0,-1874.0,838.0,31.0,-151.0,-386.0,122,124,124,99,77
2025-02-25 18:58:36.664,1431.0,-2548.0,1059.0,45.0,-144.0,-370.0,122,126,124,101,77
2025-02-25 18:58:36.668,1731.0,-2887.0,1364.0,53.0,-126.0,-328.0,121,123,125,102,76
2025-02-25 18:58:36.676,2122.0,-3442.0,1623.0,49.0,-89.0,-276.0,124,130,127,103,79
2025-02-25 18:58:36.680,2474.0,-3776.0,1740.0,39.0,-39.0,-205.0,122,126,127,104,80
2025-02-25 18:58:36.684,2710.0,-3816.0,1848.0,38.0,15.0,-118.0,125,128,127,107,83
2025-02-25 18:58:36.692,2798.0,-3805.0,1777.0,18.0,33.0,-27.0,124,128,126,103,79
2025-02-25 18:58:36.697,2802.0,-3584.0,1715.0,-47.0,55.0,66.0,125,126,124,101,79
2025-02-25 18:58:36.701,2706.0,-3385.0,1987.0,-75.0,68.0,143.0,124,126,125,102,77
2025-02-25 18:58:36.709,2466.0,-3226.0,1719.0,-109.0,59.0,172.0,123,126,124,101,76
2025-02-25 18:58:36.713,1979.0,-2903.0,1470.0,-159.0,43.0,210.0,127,128,124,101,77
2025-02-25 18:58:36.717,1527.0,-2485.0,1360.0,-212.0,31.0,238.0,125,126,124,101,76
2025-02-25 18:58:36.725,1164.0,-2090.0,1174.0,-252.0,22.0,250.0,126,129,123,103,76
2025-02-25 18:58:36.729,895.0,-1888.0,964.0,-265.0,17.0,253.0,126,126,124,102,76
2025-02-25 18:58:36.734,682.0,-1777.0,778.0,-264.0,9.0,248.0,124,121,124,102,76
2025-02-25 18:58:36.742,652.0,-1680.0,495.0,-254.0,2.0,241.0,123,124,123,100,75
2025-02-25 18:58:36.746,530.0,-1639.0,421.0,-238.0,-1.0,238.0,123,123,122,99,75
2025-02-25 18:58:36.751,439.0,-1552.0,400.0,-234.0,-2.0,235.0,123,122,122,101,75
2025-02-25 18:58:36.758,328.0,-1430.0,345.0,-210.0,-11.0,229.0,125,124,124,102,76
2025-02-25 18:58:36.762,221.0,-1331.0,299.0,-205.0,-13.0,233.0,129,124,125,103,76
2025-02-25 18:58:36.766,175.0,-1174.0,233.0,-176.0,-18.0,231.0,119,121,121,100,75
2025-02-25 18:58:36.774,120.0,-1098.0,267.0,-130.0,-30.0,230.0,122,121,122,99,77
2025-02-25 18:58:36.778,59.0,-1043.0,296.0,-90.0,-39.0,231.0,122,122,121,101,75
2025-02-25 18:58:36.783,-20.0,-915.0,325.0,-47.0,-40.0,235.0,124,125,125,103,77
2025-02-25 18:58:36.790,-99.0,-820.0,335.0,6.0,-41.0,239.0,124,123,125,103,77
2025-02-25 18:58:36.795,-197.0,-727.0,421.0,37.0,-40.0,246.0,123,119,123,102,76
2025-02-25 18:58:36.799,-218.0,-649.0,548.0,106.0,-32.0,252.0,122,121,123,102,76
2025-02-25 18:58:36.803,-302.0,-601.0,503.0,175.0,-22.0,253.0,123,121,123,102,76
2025-02-25 18:58:36.811,-357.0,-541.0,554.0,231.0,-3.0,261.0,124,123,125,104,78
2025-02-25 18:58:36.815,-453.0,-318.0,468.0,255.0,20.0,265.0,123,121,126,105,78
2025-02-25 18:58:36.820,-412.0,-201.0,369.0,253.0,47.0,256.0,123,122,125,105,78
2025-02-25 18:58:36.827,-457.0,-25.0,256.0,199.0,65.0,241.0,122,121,124,104,78
2025-02-25 18:58:36.831,-442.0,51.0,308.0,157.0,108.0,230.0,121,121,121,106,79
2025-02-25 18:58:36.836,-405.0,166.0,325.0,119.0,141.0,213.0,121,122,126,107,81
2025-02-25 18:58:36.844,-438.0,194.0,283.0,109.0,148.0,183.0,119,120,127,107,83
2025-02-25 18:58:36.848,-458.0,345.0,377.0,116.0,152.0,154.0,117,120,123,103,83
2025-02-25 18:58:36.853,-534.0,335.0,327.0,109.0,163.0,128.0,114,124,124,104,83
2025-02-25 18:58:36.857,-593.0,354.0,172.0,101.0,180.0,117.0,115,124,124,101,86
2025-02-25 18:58:36.864,-702.0,272.0,158.0,70.0,196.0,93.0,115,124,125,101,89
2025-02-25 18:58:36.869,-825.0,177.0,169.0,61.0,214.0,78.0,110,122,125,98,91
2025-02-25 18:58:36.873,-869.0,155.0,-4.0,33.0,210.0,67.0,111,121,123,97,91
2025-02-25 18:58:36.877,-927.0,130.0,-42.0,13.0,206.0,64.0,113,122,125,100,94
2025-02-25 18:58:36.885,-1001.0,144.0,-100.0,1.0,195.0,58.0,115,124,123,99,97
2025-02-25 18:58:36.889,-1040.0,95.0,-160.0,-4.0,188.0,51.0,113,123,123,96,94
2025-02-25 18:58:36.894,-1042.0,-14.0,-167.0,-11.0,176.0,49.0,113,120,122,94,95
2025-02-25 18:58:36.898,-1065.0,-53.0,-222.0,-11.0,153.0,45.0,114,121,121,94,95
2025-02-25 18:58:36.906,-1094.0,-81.0,-230.0,-3.0,135.0,40.0,116,121,120,95,95
2025-02-25 18:58:36.910,-1080.0,-107.0,-265.0,-5.0,106.0,33.0,119,121,119,93,94
2025-02-25 18:58:36.913,-1049.0,-67.0,-282.0,-4.0,89.0,25.0,118,116,117,90,92
2025-02-25 18:58:36.922,-1007.0,-73.0,-310.0,9.0,54.0,23.0,122,119,112,91,93
2025-02-25 18:58:36.926,-1017.0,-84.0,-270.0,8.0,32.0,17.0,125,117,114,93,95
2025-02-25 18:58:36.930,-1042.0,-76.0,-218.0,12.0,15.0,10.0,126,113,109,91,93
2025-02-25 18:58:36.934,-1066.0,13.0,-190.0,11.0,6.0,1.0,127,109,111,90,92
2025-02-25 18:58:36.939,-1065.0,78.0,-124.0,13.0,7.0,-3.0,130,107,107,90,92
2025-02-25 18:58:36.947,-1041.0,148.0,-63.0,7.0,8.0,-13.0,133,103,105,88,94
2025-02-25 18:58:36.951,-1044.0,241.0,-126.0,-3.0,4.0,-24.0,133,95,102,87,93
2025-02-25 18:58:36.955,-1100.0,235.0,-186.0,-8.0,-8.0,-30.0,133,90,100,85,93
2025-02-25 18:58:36.959,-1241.0,280.0,-184.0,-45.0,-21.0,-46.0,137,84,97,86,93
2025-02-25 18:58:36.967,-1193.0,363.0,-389.0,-57.0,-50.0,-64.0,140,82,95,83,92
2025-02-25 18:58:36.971,-1179.0,472.0,-386.0,-81.0,-61.0,-81.0,136,74,92,82,91
2025-02-25 18:58:36.975,-1229.0,600.0,-360.0,-109.0,-80.0,-92.0,138,74,91,83,91
2025-02-25 18:58:36.983,-1227.0,731.0,-332.0,-108.0,-85.0,-117.0,142,75,88,82,94
2025-02-25 18:58:36.987,-1216.0,801.0,-336.0,-109.0,-81.0,-153.0,142,72,84,82,94
2025-02-25 18:58:36.991,-1266.0,717.0,-258.0,-103.0,-69.0,-181.0,143,68,84,79,93
2025-02-25 18:58:36.999,-1202.0,660.0,-470.0,-105.0,-73.0,-206.0,142,67,81,80,91
2025-02-25 18:58:37.004,-1136.0,580.0,-677.0,-115.0,-118.0,-220.0,142,64,83,80,92
2025-02-25 18:58:37.009,-959.0,589.0,-244.0,-86.0,-125.0,-244.0,146,64,83,79,88
2025-02-25 18:58:37.014,-980.0,615.0,-193.0,-77.0,-117.0,-283.0,145,64,81,77,87
2025-02-25 18:58:37.020,-1088.0,589.0,-223.0,-69.0,-112.0,-321.0,144,61,76,75,85
2025-02-25 18:58:37.024,-1024.0,619.0,18.0,-50.0,-101.0,-350.0,145,59,78,76,82
2025-02-25 18:58:37.028,-784.0,627.0,177.0,-13.0,-71.0,-356.0,143,56,72,72,78
2025-02-25 18:58:37.036,-660.0,539.0,121.0,18.0,-57.0,-361.0,146,57,75,73,76
2025-02-25 18:58:37.040,-699.0,429.0,43.0,28.0,-57.0,-362.0,146,57,74,73,72
2025-02-25 18:58:37.045,-675.0,449.0,189.0,55.0,-56.0,-363.0,145,58,75,75,71
2025-02-25 18:58:37.049,-619.0,418.0,71.0,62.0,-65.0,-362.0,144,57,72,76,70
2025-02-25 18:58:37.053,-482.0,376.0,73.0,66.0,-85.0,-363.0,146,56,71,78,67
2025-02-25 18:58:37.061,-350.0,333.0,38.0,83.0,-86.0,-372.0,144,55,69,74,67
2025-02-25 18:58:37.066,22.0,331.0,-88.0,77.0,-110.0,-383.0,147,57,72,79,65
2025-02-25 18:58:37.070,609.0,261.0,-47.0,45.0,-115.0,-389.0,145,57,70,77,63
2025-02-25 18:58:37.074,820.0,-398.0,-164.0,22.0,-128.0,-402.0,146,56,70,75,62
2025-02-25 18:58:37.082,1144.0,-1096.0,-98.0,-3.0,-147.0,-400.0,143,55,66,76,62
2025-02-25 18:58:37.086,1837.0,-1555.0,481.0,-22.0,-151.0,-377.0,148,57,70,79,63
2025-02-25 18:58:37.090,2496.0,-2571.0,631.0,-8.0,-137.0,-326.0,148,57,70,77,62
2025-02-25 18:58:37.097,3032.0,-3715.0,1138.0,4.0,-98.0,-255.0,147,56,69,75,61
2025-02-25 18:58:37.102,3272.0,-4829.0,1848.0,15.0,-69.0,-161.0,147,52,66,74,62
2025-02-25 18:58:37.106,3508.0,-5351.0,2128.0,29.0,-5.0,-109.0,149,53,68,72,61
2025-02-25 18:58:37.110,3544.0,-5362.0,2127.0,50.0,51.0,-10.0,151,57,67,72,61
2025-02-25 18:58:37.118,3391.0,-5018.0,2000.0,36.0,97.0,79.0,150,55,70,68,61
2025-02-25 18:58:37.122,3222.0,-4409.0,1389.0,25.0,125.0,137.0,151,54,69,67,60
2025-02-25 18:58:37.127,2717.0,-4100.0,931.0,-8.0,241.0,160.0,150,58,71,64,59
2025-02-25 18:58:37.132,2410.0,-2960.0,916.0,-27.0,242.0,208.0,154,56,73,63,59
2025-02-25 18:58:37.139,1305.0,-2168.0,340.0,91.0,83.0,193.0,152,58,70,65,59
2025-02-25 18:58:37.143,1224.0,-1877.0,73.0,2.0,3.0,175.0,152,57,72,63,61
2025-02-25 18:58:37.147,1158.0,-1276.0,134.0,-57.0,-9.0,171.0,154,54,71,65,57
2025-02-25 18:58:37.151,515.0,-1457.0,264.0,-89.0,-60.0,187.0,157,55,72,65,58
2025-02-25 18:58:37.159,724.0,-1847.0,354.0,-125.0,-81.0,190.0,152,53,70,66,60
2025-02-25 18:58:37.164,853.0,-1986.0,204.0,-138.0,-85.0,184.0,153,56,71,69,59
2025-02-25 18:58:37.168,706.0,-2051.0,384.0,-172.0,-51.0,184.0,153,58,71,71,61
2025-02-25 18:58:37.172,475.0,-2082.0,428.0,-129.0,-20.0,201.0,154,58,70,71,61
2025-02-25 18:58:37.180,536.0,-1962.0,343.0,-100.0,-14.0,213.0,152,60,70,71,61
2025-02-25 18:58:37.184,498.0,-1752.0,408.0,-78.0,-1.0,218.0,151,57,70,74,60
2025-02-25 18:58:37.188,356.0,-1618.0,467.0,-109.0,23.0,222.0,152,58,71,74,62
2025-02-25 18:58:37.196,151.0,-1354.0,436.0,-103.0,34.0,234.0,152,59,70,73,62
2025-02-25 18:58:37.200,121.0,-1075.0,389.0,-102.0,12.0,237.0,154,59,70,74,61
2025-02-25 18:58:37.205,68.0,-835.0,308.0,-87.0,6.0,233.0,153,57,69,74,63
2025-02-25 18:58:37.209,-110.0,-749.0,279.0,-44.0,-4.0,232.0,153,58,71,74,62
2025-02-25 18:58:37.213,-293.0,-614.0,294.0,-48.0,14.0,231.0,153,58,71,73,62
2025-02-25 18:58:37.221,-339.0,-481.0,142.0,-17.0,16.0,225.0,151,59,68,72,59
2025-02-25 18:58:37.225,-402.0,-370.0,265.0,13.0,-5.0,221.0,153,59,73,75,63
2025-02-25 18:58:37.229,-471.0,-176.0,249.0,16.0,-14.0,214.0,152,58,68,74,64
2025-02-25 18:58:37.234,-525.0,12.0,213.0,20.0,-13.0,199.0,152,57,68,72,61
2025-02-25 18:58:37.238,-588.0,63.0,96.0,20.0,-4.0,195.0,151,59,72,71,65
2025-02-25 18:58:37.245,-626.0,140.0,268.0,0.0,-1.0,189.0,154,60,70,75,63
2025-02-25 18:58:37.249,-710.0,181.0,241.0,-7.0,-4.0,177.0,153,57,70,73,62
2025-02-25 18:58:37.254,-707.0,151.0,245.0,-39.0,-4.0,168.0,153,56,64,74,62
2025-02-25 18:58:37.258,-744.0,191.0,261.0,-54.0,6.0,149.0,152,59,73,75,64
2025-02-25 18:58:37.263,-774.0,131.0,204.0,-63.0,11.0,134.0,152,58,68,76,63
2025-02-25 18:58:37.270,-801.0,166.0,214.0,-66.0,20.0,129.0,151,60,68,75,64
2025-02-25 18:58:37.274,-803.0,43.0,259.0,-77.0,25.0,116.0,152,58,70,77,64
2025-02-25 18:58:37.279,-848.0,-7.0,206.0,-82.0,27.0,104.0,151,56,70,74,63
2025-02-25 18:58:37.283,-827.0,-6.0,225.0,-108.0,31.0,98.0,152,57,68,77,64
2025-02-25 18:58:37.287,-895.0,-72.0,202.0,-130.0,34.0,86.0,151,58,68,77,66
2025-02-25 18:58:37.295,-921.0,-40.0,155.0,-143.0,32.0,79.0,152,56,66,75,63
2025-02-25 18:58:37.299,-945.0,-22.0,116.0,-157.0,30.0,76.0,149,57,66,77,66
2025-02-25 18:58:37.303,-1021.0,-38.0,113.0,-133.0,24.0,71.0,154,62,70,77,66
2025-02-25 18:58:37.308,-1042.0,5.0,61.0,-116.0,19.0,65.0,152,59,68,76,65
2025-02-25 18:58:37.312,-1058.0,33.0,-16.0,-82.0,18.0,62.0,152,57,69,75,64
2025-02-25 18:58:37.319,-1057.0,36.0,-2.0,-55.0,15.0,56.0,153,59,71,76,66
2025-02-25 18:58:37.323,-1037.0,57.0,-2.0,-44.0,5.0,49.0,154,61,69,77,66
2025-02-25 18:58:37.328,-1038.0,79.0,-2.0,-42.0,2.0,44.0,151,57,68,74,64
2025-02-25 18:58:37.332,-1007.0,87.0,29.0,-41.0,-9.0,35.0,153,59,70,76,65
2025-02-25 18:58:37.336,-994.0,117.0,6.0,-41.0,-14.0,26.0,152,58,67,75,65
2025-02-25 18:58:37.341,-983.0,108.0,12.0,-29.0,-14.0,21.0,153,62,73,77,65
2025-02-25 18:58:37.347,-951.0,136.0,-6.0,-20.0,-18.0,11.0,153,57,72,76,65
2025-02-25 18:58:37.352,-957.0,159.0,-2.0,-17.0,-20.0,1.0,153,60,75,76,66
2025-02-25 18:58:37.357,-924.0,170.0,23.0,-8.0,-18.0,-5.0,151,57,69,76,65
2025-02-25 18:58:37.361,-915.0,205.0,-1.0,-1.0,-12.0,-20.0,153,63,73,77,68
2025-02-25 18:58:37.365,-878.0,241.0,12.0,0.0,-5.0,-33.0,151,59,71,75,66
2025-02-25 18:58:37.372,-885.0,255.0,17.0,-1.0,-2.0,-39.0,152,58,70,75,67
2025-02-25 18:58:37.376,-907.0,288.0,0.0,-2.0,4.0,-51.0,154,60,71,75,65
2025-02-25 18:58:37.381,-934.0,345.0,11.0,-3.0,6.0,-63.0,151,59,72,80,64
2025-02-25 18:58:37.385,-939.0,382.0,25.0,-1.0,8.0,-68.0,152,58,69,73,64
2025-02-25 18:58:37.389,-954.0,442.0,22.0,11.0,12.0,-81.0,153,60,73,77,66
2025-02-25 18:58:37.393,-976.0,491.0,0.0,15.0,13.0,-98.0,154,59,69,76,63
2025-02-25 18:58:37.398,-981.0,514.0,-9.0,28.0,16.0,-108.0,151,62,70,73,63
2025-02-25 18:58:37.405,-1029.0,546.0,-9.0,51.0,19.0,-128.0,153,60,72,78,67
2025-02-25 18:58:37.410,-1049.0,537.0,-19.0,61.0,18.0,-149.0,151,59,69,75,64
2025-02-25 18:58:37.414,-1057.0,549.0,-13.0,87.0,13.0,-159.0,151,57,68,75,62
2025-02-25 18:58:37.418,-1051.0,548.0,-23.0,102.0,8.0,-182.0,154,61,70,79,67
2025-02-25 18:58:37.426,-1042.0,539.0,-31.0,107.0,2.0,-205.0,154,60,70,77,64
2025-02-25 18:58:37.430,-1011.0,546.0,-41.0,118.0,2.0,-217.0,150,58,71,77,65
2025-02-25 18:58:37.434,-925.0,531.0,-66.0,131.0,-5.0,-244.0,152,60,70,79,66
2025-02-25 18:58:37.439,-871.0,519.0,-43.0,137.0,-14.0,-273.0,150,60,69,79,66
2025-02-25 18:58:37.446,-831.0,471.0,-87.0,139.0,-19.0,-288.0,154,61,68,78,64
2025-02-25 18:58:37.451,-720.0,464.0,-102.0,129.0,-34.0,-313.0,152,58,69,78,65
2025-02-25 18:58:37.455,-601.0,436.0,-98.0,123.0,-51.0,-336.0,152,58,70,78,66
2025-02-25 18:58:37.459,-505.0,341.0,-51.0,109.0,-60.0,-361.0,151,59,67,74,66
2025-02-25 18:58:37.466,-287.0,281.0,-60.0,83.0,-78.0,-372.0,154,59,70,78,67
2025-02-25 18:58:37.471,-36.0,112.0,-62.0,70.0,-94.0,-391.0,152,60,67,78,66
2025-02-25 18:58:37.475,105.0,-150.0,-1.0,46.0,-104.0,-406.0,150,59,69,77,65
2025-02-25 18:58:37.479,341.0,-216.0,-151.0,45.0,-119.0,-408.0,154,60,69,77,67
2025-02-25 18:58:37.487,711.0,-772.0,-79.0,6.0,-141.0,-413.0,152,60,69,80,67
2025-02-25 18:58:37.491,895.0,-1361.0,100.0,-11.0,-146.0,-408.0,152,58,68,79,66
2025-02-25 18:58:37.495,1304.0,-1735.0,246.0,-15.0,-163.0,-399.0,153,62,71,79,68
2025-02-25 18:58:37.500,1813.0,-2547.0,346.0,-8.0,-166.0,-375.0,153,62,70,78,68
2025-02-25 18:58:37.507,2045.0,-3424.0,723.0,-5.0,-158.0,-334.0,152,59,71,79,69
2025-02-25 18:58:37.512,2487.0,-4249.0,824.0,-7.0,-134.0,-306.0,151,59,71,77,69
2025-02-25 18:58:37.517,2743.0,-4505.0,1021.0,-1.0,-101.0,-231.0,154,62,76,75,70
2025-02-25 18:58:37.524,2887.0,-4893.0,979.0,4.0,-68.0,-141.0,152,59,76,75,70
2025-02-25 18:58:37.528,3011.0,-5009.0,1067.0,5.0,23.0,-56.0,153,59,74,74,70
2025-02-25 18:58:37.533,3083.0,-4796.0,840.0,5.0,66.0,55.0,151,53,71,71,64
2025-02-25 18:58:37.537,2927.0,-4556.0,335.0,195.0,30.0,96.0,156,62,80,74,73
2025-02-25 18:58:37.545,2281.0,-3862.0,625.0,208.0,54.0,137.0,149,49,75,67,65
2025-02-25 18:58:37.549,2303.0,-3118.0,341.0,117.0,75.0,159.0,148,49,72,63,62
2025-02-25 18:58:37.553,2269.0,-2684.0,424.0,26.0,79.0,172.0,153,52,69,58,60
2025-02-25 18:58:37.558,1348.0,-2154.0,451.0,-60.0,30.0,214.0,147,52,69,64,65
2025-02-25 18:58:37.565,1067.0,-2033.0,423.0,-142.0,10.0,232.0,146,52,75,68,62
2025-02-25 18:58:37.569,1043.0,-1820.0,159.0,-165.0,-7.0,232.0,146,51,69,68,61
2025-02-25 18:58:37.573,838.0,-1829.0,109.0,-95.0,-47.0,232.0,147,53,69,65,62
2025-02-25 18:58:37.578,769.0,-1908.0,209.0,-25.0,-53.0,227.0,151,56,68,71,64
2025-02-25 18:58:37.585,858.0,-1861.0,279.0,-14.0,-40.0,209.0,148,56,72,74,65
2025-02-25 18:58:37.590,798.0,-1873.0,350.0,-59.0,-22.0,213.0,148,54,71,71,63
2025-02-25 18:58:37.594,519.0,-1776.0,204.0,-137.0,14.0,225.0,147,53,66,73,64
2025-02-25 18:58:37.598,479.0,-1711.0,295.0,-133.0,17.0,239.0,148,58,70,74,64
2025-02-25 18:58:37.606,443.0,-1551.0,357.0,-161.0,0.0,243.0,148,55,68,74,65
2025-02-25 18:58:37.610,351.0,-1330.0,276.0,-153.0,-8.0,241.0,147,53,67,72,62
2025-02-25 18:58:37.614,360.0,-1178.0,317.0,-129.0,-35.0,248.0,149,56,67,75,64
2025-02-25 18:58:37.619,-9.0,-835.0,265.0,-107.0,-16.0,258.0,147,56,70,76,67
2025-02-25 18:58:37.626,154.0,-832.0,195.0,-91.0,-18.0,263.0,147,56,69,73,64
2025-02-25 18:58:37.630,73.0,-720.0,257.0,-31.0,-38.0,266.0,147,54,67,73,64
2025-02-25 18:58:37.634,-83.0,-667.0,326.0,-20.0,-42.0,262.0,148,56,68,74,66
2025-02-25 18:58:37.639,-130.0,-538.0,333.0,-21.0,-33.0,257.0,144,57,69,74,64
2025-02-25 18:58:37.646,-188.0,-414.0,223.0,-22.0,-31.0,256.0,147,55,69,73,64
2025-02-25 18:58:37.651,-275.0,-433.0,347.0,-7.0,-23.0,257.0,150,56,69,74,65
2025-02-25 18:58:37.655,-321.0,-364.0,472.0,-24.0,-15.0,256.0,148,56,70,76,66
2025-02-25 18:58:37.659,-332.0,-287.0,429.0,-33.0,-15.0,247.0,146,57,71,75,66
2025-02-25 18:58:37.667,-418.0,-158.0,477.0,-42.0,-6.0,240.0,146,54,69,77,67
2025-02-25 18:58:37.671,-551.0,-147.0,386.0,-33.0,17.0,238.0,148,56,71,79,68
2025-02-25 18:58:37.676,-561.0,25.0,323.0,-15.0,35.0,232.0,147,57,72,78,67
2025-02-25 18:58:37.680,-586.0,220.0,474.0,4.0,58.0,221.0,146,54,70,78,65
2025-02-25 18:58:37.684,-591.0,183.0,299.0,-8.0,96.0,213.0,147,57,71,80,69
2025-02-25 18:58:37.692,-717.0,371.0,242.0,-28.0,126.0,206.0,147,57,73,80,68
2025-02-25 18:58:37.696,-709.0,396.0,431.0,-57.0,134.0,202.0,148,55,69,79,67
2025-02-25 18:58:37.700,-702.0,425.0,212.0,-83.0,135.0,194.0,146,55,69,81,68
2025-02-25 18:58:37.705,-844.0,474.0,163.0,-121.0,113.0,174.0,145,59,71,83,71
2025-02-25 18:58:37.712,-890.0,455.0,208.0,-119.0,96.0,157.0,145,56,67,80,66
2025-02-25 18:58:37.716,-972.0,428.0,281.0,-78.0,91.0,149.0,146,56,67,81,66
2025-02-25 18:58:37.721,-984.0,405.0,257.0,-22.0,82.0,133.0,145,56,67,83,69
2025-02-25 18:58:37.725,-998.0,383.0,171.0,-1.0,79.0,117.0,144,56,69,82,68
2025-02-25 18:58:37.729,-1033.0,384.0,69.0,21.0,84.0,98.0,143,55,69,81,67
2025-02-25 18:58:37.740,-1047.0,404.0,-3.0,17.0,102.0,90.0,146,57,68,82,69
2025-02-25 18:58:37.742,-1074.0,458.0,-60.0,19.0,107.0,81.0,141,58,68,84,70
2025-02-25 18:58:37.746,-1086.0,452.0,-33.0,29.0,108.0,71.0,142,57,68,82,68
2025-02-25 18:58:37.750,-1045.0,470.0,-36.0,29.0,89.0,63.0,144,57,70,84,70
2025-02-25 18:58:37.754,-1094.0,452.0,-103.0,23.0,74.0,46.0,141,54,67,81,68
2025-02-25 18:58:37.761,-1069.0,430.0,-130.0,26.0,74.0,32.0,142,59,67,82,70
2025-02-25 18:58:37.766,-1059.0,489.0,-140.0,42.0,81.0,25.0,144,57,68,85,70
2025-02-25 18:58:37.770,-1042.0,514.0,-199.0,39.0,81.0,7.0,142,57,70,83,68
2025-02-25 18:58:37.775,-1027.0,568.0,-205.0,25.0,81.0,-7.0,141,56,68,83,68
2025-02-25 18:58:37.779,-1020.0,578.0,-229.0,11.0,77.0,-14.0,142,55,72,84,69
2025-02-25 18:58:37.786,-1001.0,594.0,-225.0,9.0,68.0,-27.0,143,57,68,87,70
2025-02-25 18:58:37.791,-1002.0,628.0,-246.0,1.0,65.0,-46.0,142,58,67,84,68
2025-02-25 18:58:37.795,-981.0,674.0,-239.0,8.0,62.0,-58.0,142,57,67,84,69
2025-02-25 18:58:37.798,-1024.0,683.0,-251.0,14.0,55.0,-81.0,141,57,69,85,69
2025-02-25 18:58:37.807,-1036.0,747.0,-260.0,36.0,53.0,-106.0,139,56,65,83,67
2025-02-25 18:58:37.811,-1031.0,762.0,-315.0,59.0,46.0,-119.0,141,57,66,83,68
2025-02-25 18:58:37.816,-1061.0,858.0,-322.0,87.0,38.0,-145.0,139,56,67,85,69
2025-02-25 18:58:37.820,-1037.0,870.0,-352.0,99.0,35.0,-172.0,138,57,67,83,66
2025-02-25 18:58:37.827,-1048.0,853.0,-296.0,121.0,36.0,-198.0,136,58,66,82,66
2025-02-25 18:58:37.831,-1043.0,862.0,-294.0,145.0,27.0,-214.0,135,56,66,81,66
2025-02-25 18:58:37.835,-1007.0,817.0,-287.0,174.0,21.0,-253.0,134,57,67,82,65
2025-02-25 18:58:37.840,-979.0,856.0,-330.0,184.0,19.0,-292.0,130,56,63,80,63
2025-02-25 18:58:37.848,-965.0,848.0,-312.0,201.0,19.0,-331.0,127,55,65,76,62
2025-02-25 18:58:37.852,-847.0,846.0,-368.0,223.0,11.0,-351.0,124,56,65,77,63
2025-02-25 18:58:37.857,-800.0,794.0,-328.0,237.0,-10.0,-391.0,124,57,66,76,61
2025-02-25 18:58:37.861,-630.0,718.0,-359.0,245.0,-38.0,-430.0,121,56,63,74,62
2025-02-25 18:58:37.868,-559.0,643.0,-389.0,244.0,-49.0,-463.0,120,55,63,74,60
2025-02-25 18:58:37.872,-383.0,565.0,-290.0,234.0,-65.0,-473.0,117,55,62,71,58
2025-02-25 18:58:37.876,-64.0,314.0,-226.0,236.0,-84.0,-487.0,117,55,66,72,59
2025-02-25 18:58:37.884,315.0,49.0,-105.0,232.0,-103.0,-494.0,113,56,64,70,59
2025-02-25 18:58:37.888,480.0,-335.0,111.0,226.0,-107.0,-481.0,113,54,64,73,59
2025-02-25 18:58:37.893,829.0,-546.0,385.0,219.0,-105.0,-465.0,113,52,61,72,57
2025-02-25 18:58:37.897,1238.0,-1014.0,519.0,209.0,-89.0,-418.0,112,56,66,74,59
2025-02-25 18:58:37.905,1634.0,-1640.0,876.0,205.0,-52.0,-348.0,112,58,65,69,63
2025-02-25 18:58:37.909,2052.0,-2426.0,1183.0,197.0,-7.0,-270.0,110,56,65,71,58
2025-02-25 18:58:37.913,2265.0,-3179.0,1492.0,214.0,10.0,-202.0,109,56,66,71,58
2025-02-25 18:58:37.921,2525.0,-3516.0,1721.0,263.0,27.0,-172.0,109,56,65,72,58
2025-02-25 18:58:37.925,2593.0,-4041.0,1717.0,331.0,25.0,-110.0,109,54,69,70,59
2025-02-25 18:58:37.929,2648.0,-4359.0,1930.0,362.0,26.0,-44.0,112,55,65,68,58
2025-02-25 18:58:37.934,2555.0,-4265.0,1965.0,374.0,37.0,25.0,108,55,66,67,56
2025-02-25 18:58:37.942,2433.0,-4080.0,2029.0,334.0,57.0,54.0,111,53,68,67,56
2025-02-25 18:58:37.946,2124.0,-3467.0,2063.0,241.0,55.0,96.0,112,57,69,67,57
2025-02-25 18:58:37.950,1828.0,-2764.0,2167.0,186.0,33.0,109.0,110,54,69,65,54
2025-02-25 18:58:37.955,1595.0,-2219.0,2110.0,53.0,24.0,109.0,110,53,70,64,54
2025-02-25 18:58:37.962,1470.0,-2036.0,1885.0,-82.0,7.0,105.0,109,56,68,66,55
2025-02-25 18:58:37.967,1245.0,-1939.0,1757.0,-192.0,-7.0,98.0,115,59,70,66,55
2025-02-25 18:58:37.971,1047.0,-2063.0,1434.0,-232.0,-26.0,96.0,110,55,71,68,56
2025-02-25 18:58:37.979,872.0,-2131.0,1111.0,-283.0,-29.0,104.0,111,56,69,66,54
2025-02-25 18:58:37.983,795.0,-2337.0,919.0,-293.0,-31.0,116.0,113,57,68,66,53
2025-02-25 18:58:37.988,670.0,-2374.0,792.0,-274.0,-37.0,125.0,111,58,70,69,55
2025-02-25 18:58:37.992,589.0,-2366.0,733.0,-252.0,-27.0,145.0,111,61,69,68,56
2025-02-25 18:58:37.999,537.0,-2227.0,617.0,-244.0,-14.0,168.0,112,58,70,69,55
2025-02-25 18:58:38.003,497.0,-2104.0,555.0,-204.0,-7.0,185.0,113,57,69,62,55
2025-02-25 18:58:38.007,408.0,-1958.0,491.0,-171.0,-17.0,193.0,111,58,69,69,55
2025-02-25 18:58:38.016,329.0,-1788.0,431.0,-144.0,-15.0,208.0,107,57,69,76,56
2025-02-25 18:58:38.020,258.0,-1539.0,421.0,-133.0,-22.0,218.0,111,57,70,71,56
2025-02-25 18:58:38.024,220.0,-1292.0,430.0,-120.0,-21.0,227.0,111,59,69,71,56
2025-02-25 18:58:38.028,149.0,-1175.0,465.0,-113.0,-27.0,230.0,112,57,67,71,56
2025-02-25 18:58:38.036,78.0,-1011.0,472.0,-106.0,-29.0,234.0,111,57,67,69,57
2025-02-25 18:58:38.040,-13.0,-889.0,512.0,-99.0,-36.0,237.0,112,58,68,70,56
2025-02-25 18:58:38.045,-49.0,-774.0,543.0,-92.0,-37.0,242.0,111,57,67,72,57
2025-02-25 18:58:38.049,-87.0,-713.0,569.0,-82.0,-31.0,245.0,111,59,68,70,56
2025-02-25 18:58:38.056,-142.0,-639.0,561.0,-68.0,-20.0,247.0,112,57,68,73,58
2025-02-25 18:58:38.060,-221.0,-571.0,591.0,-61.0,3.0,249.0,111,56,66,72,59
2025-02-25 18:58:38.065,-236.0,-407.0,565.0,-45.0,15.0,248.0,110,57,66,72,58
2025-02-25 18:58:38.069,-298.0,-332.0,560.0,-38.0,37.0,244.0,113,59,67,74,60
2025-02-25 18:58:38.074,-355.0,-161.0,597.0,-27.0,54.0,234.0,112,58,64,72,57
2025-02-25 18:58:38.081,-387.0,-18.0,555.0,-20.0,61.0,218.0,112,57,61,73,57
2025-02-25 18:58:38.085,-451.0,56.0,429.0,-29.0,78.0,212.0,114,60,63,73,59
2025-02-25 18:58:38.089,-544.0,168.0,404.0,-38.0,91.0,199.0,113,59,62,74,59
2025-02-25 18:58:38.093,-580.0,205.0,379.0,-50.0,96.0,184.0,110,58,64,73,59
2025-02-25 18:58:38.101,-615.0,231.0,314.0,-63.0,98.0,175.0,114,58,64,73,61
2025-02-25 18:58:38.106,-674.0,203.0,288.0,-72.0,98.0,159.0,113,62,64,76,60
2025-02-25 18:58:38.110,-728.0,189.0,219.0,-75.0,98.0,146.0,112,56,62,73,61
2025-02-25 18:58:38.114,-778.0,165.0,125.0,-83.0,95.0,140.0,112,56,63,72,59
2025-02-25 18:58:38.119,-821.0,140.0,100.0,-83.0,96.0,130.0,113,58,63,73,61
2025-02-25 18:58:38.126,-888.0,106.0,38.0,-82.0,93.0,120.0,114,57,64,74,62
2025-02-25 18:58:38.130,-929.0,115.0,-44.0,-85.0,85.0,115.0,111,58,63,73,60
2025-02-25 18:58:38.134,-973.0,117.0,-65.0,-81.0,75.0,104.0,111,56,65,74,61
2025-02-25 18:58:38.138,-1014.0,151.0,-125.0,-82.0,68.0,95.0,112,58,66,74,61
2025-02-25 18:58:38.143,-1014.0,200.0,-145.0,-77.0,67.0,90.0,113,58,66,74,61
2025-02-25 18:58:38.150,-1027.0,225.0,-147.0,-72.0,58.0,78.0,113,58,64,75,62
2025-02-25 18:58:38.154,-1028.0,254.0,-197.0,-71.0,49.0,64.0,112,58,65,73,59
2025-02-25 18:58:38.160,-1015.0,266.0,-189.0,-67.0,45.0,50.0,112,58,65,73,60
2025-02-25 18:58:38.164,-987.0,262.0,-190.0,-64.0,40.0,44.0,114,58,67,76,65
2025-02-25 18:58:38.171,-956.0,241.0,-206.0,-59.0,39.0,33.0,114,59,69,74,61
2025-02-25 18:58:38.175,-937.0,193.0,-192.0,-56.0,38.0,22.0,113,57,64,76,61
2025-02-25 18:58:38.180,-881.0,174.0,-193.0,-47.0,35.0,17.0,114,58,66,74,61
2025-02-25 18:58:38.184,-855.0,137.0,-182.0,-36.0,32.0,7.0,115,59,66,75,62
2025-02-25 18:58:38.188,-834.0,116.0,-186.0,-31.0,32.0,0.0,114,58,66,75,62
2025-02-25 18:58:38.196,-823.0,111.0,-173.0,-17.0,34.0,-3.0,114,60,66,73,61
2025-02-25 18:58:38.200,-835.0,146.0,-222.0,-8.0,39.0,-8.0,114,60,67,74,62
2025-02-25 18:58:38.204,-829.0,166.0,-234.0,0.0,41.0,-14.0,114,62,69,74,66
2025-02-25 18:58:38.208,-853.0,163.0,-243.0,12.0,42.0,-17.0,114,59,65,74,61
2025-02-25 18:58:38.213,-853.0,192.0,-250.0,30.0,39.0,-25.0,116,61,67,74,62
2025-02-25 18:58:38.220,-855.0,228.0,-263.0,40.0,37.0,-35.0,114,57,67,74,61
2025-02-25 18:58:38.225,-867.0,248.0,-296.0,53.0,30.0,-40.0,115,58,66,73,62
2025-02-25 18:58:38.229,-871.0,296.0,-318.0,61.0,24.0,-50.0,116,57,67,74,61
2025-02-25 18:58:38.233,-892.0,330.0,-340.0,67.0,23.0,-59.0,114,58,69,73,60
2025-02-25 18:58:38.238,-881.0,349.0,-334.0,80.0,16.0,-64.0,113,57,67,74,61
2025-02-25 18:58:38.245,-889.0,374.0,-338.0,95.0,11.0,-76.0,115,60,70,76,63
2025-02-25 18:58:38.249,-881.0,378.0,-324.0,103.0,6.0,-89.0,114,58,67,74,60
2025-02-25 18:58:38.253,-878.0,375.0,-323.0,119.0,5.0,-97.0,114,63,66,74,63
2025-02-25 18:58:38.258,-868.0,362.0,-313.0,140.0,3.0,-113.0,116,58,67,76,62
2025-02-25 18:58:38.265,-838.0,357.0,-302.0,150.0,3.0,-131.0,116,62,68,76,62
2025-02-25 18:58:38.269,-829.0,363.0,-296.0,172.0,3.0,-150.0,114,58,67,73,61
2025-02-25 18:58:38.273,-801.0,371.0,-284.0,191.0,-1.0,-162.0,117,58,68,76,61
2025-02-25 18:58:38.277,-795.0,411.0,-290.0,206.0,-8.0,-187.0,115,60,69,76,62
2025-02-25 18:58:38.286,-803.0,430.0,-284.0,211.0,-12.0,-216.0,114,59,68,76,62
2025-02-25 18:58:38.290,-801.0,452.0,-288.0,217.0,-21.0,-245.0,115,56,66,75,59
2025-02-25 18:58:38.295,-758.0,441.0,-260.0,222.0,-33.0,-260.0,115,59,67,75,63
2025-02-25 18:58:38.299,-706.0,406.0,-251.0,224.0,-50.0,-292.0,114,58,68,75,63
2025-02-25 18:58:38.307,-600.0,347.0,-211.0,226.0,-73.0,-324.0,114,56,67,77,65
2025-02-25 18:58:38.311,-549.0,229.0,-155.0,228.0,-86.0,-356.0,114,57,66,73,61
2025-02-25 18:58:38.315,-396.0,167.0,-107.0,230.0,-114.0,-371.0,115,56,67,76,63
2025-02-25 18:58:38.323,-212.0,15.0,-60.0,230.0,-146.0,-399.0,116,59,66,77,64
2025-02-25 18:58:38.326,19.0,-177.0,-12.0,227.0,-182.0,-425.0,118,58,66,75,64
2025-02-25 18:58:38.331,148.0,-490.0,125.0,225.0,-200.0,-436.0,116,56,66,75,64
2025-02-25 18:58:38.335,539.0,-726.0,408.0,213.0,-228.0,-435.0,115,57,67,75,62
2025-02-25 18:58:38.343,1100.0,-1326.0,625.0,192.0,-237.0,-410.0,117,59,69,76,64
2025-02-25 18:58:38.347,1594.0,-2064.0,1127.0,171.0,-225.0,-358.0,119,58,70,76,67
2025-02-25 18:58:38.352,2017.0,-2758.0,1696.0,167.0,-233.0,-298.0,117,57,70,76,66
2025-02-25 18:58:38.360,2227.0,-3417.0,2380.0,195.0,-248.0,-234.0,117,57,70,75,67
2025-02-25 18:58:38.364,2583.0,-3792.0,2490.0,208.0,-210.0,-147.0,119,57,70,74,67
2025-02-25 18:58:38.368,2697.0,-3885.0,2692.0,189.0,-115.0,-99.0,117,56,72,73,66
2025-02-25 18:58:38.376,2775.0,-3979.0,2910.0,202.0,-25.0,-18.0,120,56,74,73,67
2025-02-25 18:58:38.380,2602.0,-3746.0,2834.0,172.0,44.0,37.0,119,56,73,71,66
2025-02-25 18:58:38.384,2382.0,-3260.0,2657.0,154.0,100.0,77.0,120,52,73,69,64
2025-02-25 18:58:38.388,1980.0,-2639.0,2289.0,51.0,113.0,108.0,121,53,74,68,64
2025-02-25 18:58:38.396,1647.0,-2449.0,1936.0,-29.0,134.0,111.0,122,59,74,69,64
2025-02-25 18:58:38.400,1351.0,-1932.0,1808.0,-123.0,140.0,115.0,123,57,74,66,62
2025-02-25 18:58:38.405,896.0,-1666.0,1432.0,-168.0,123.0,119.0,122,56,74,67,63
2025-02-25 18:58:38.413,666.0,-1509.0,1084.0,-240.0,113.0,118.0,123,56,74,66,61
2025-02-25 18:58:38.417,660.0,-1542.0,822.0,-282.0,91.0,120.0,123,56,75,68,59
2025-02-25 18:58:38.421,496.0,-1583.0,410.0,-282.0,62.0,117.0,123,57,75,68,61
2025-02-25 18:58:38.425,538.0,-1814.0,472.0,-302.0,36.0,125.0,125,57,75,69,63
2025-02-25 18:58:38.434,242.0,-1782.0,96.0,-255.0,-10.0,126.0,125,59,73,66,61
2025-02-25 18:58:38.438,272.0,-1962.0,292.0,-224.0,5.0,124.0,126,55,75,71,61
2025-02-25 18:58:38.442,362.0,-1845.0,288.0,-185.0,32.0,136.0,123,57,75,70,63
2025-02-25 18:58:38.446,260.0,-1783.0,298.0,-157.0,-15.0,144.0,126,58,75,73,64
2025-02-25 18:58:38.454,197.0,-1736.0,283.0,-92.0,-23.0,156.0,125,57,72,71,64
2025-02-25 18:58:38.458,237.0,-1693.0,360.0,-53.0,-15.0,160.0,126,57,75,70,63
2025-02-25 18:58:38.463,188.0,-1513.0,386.0,-1.0,-3.0,161.0,127,51,74,71,63
2025-02-25 18:58:38.467,93.0,-1273.0,469.0,18.0,-5.0,166.0,126,58,75,71,63
2025-02-25 18:58:38.474,122.0,-1066.0,477.0,61.0,-7.0,174.0,125,57,73,71,63
2025-02-25 18:58:38.478,89.0,-1009.0,519.0,74.0,3.0,176.0,127,58,77,74,66
2025-02-25 18:58:38.483,71.0,-874.0,509.0,75.0,25.0,186.0,128,58,78,73,65
2025-02-25 18:58:38.487,-64.0,-865.0,533.0,76.0,31.0,192.0,128,58,73,72,65
2025-02-25 18:58:38.491,-207.0,-690.0,595.0,83.0,48.0,195.0,127,58,72,71,66
2025-02-25 18:58:38.499,-225.0,-560.0,526.0,96.0,65.0,199.0,127,58,75,73,67
2025-02-25 18:58:38.503,-258.0,-437.0,413.0,103.0,77.0,201.0,127,59,71,72,65
2025-02-25 18:58:38.507,-315.0,-383.0,362.0,111.0,91.0,199.0,128,60,73,75,67
2025-02-25 18:58:38.511,-323.0,-380.0,414.0,118.0,104.0,199.0,128,58,75,75,68
2025-02-25 18:58:38.519,-360.0,-323.0,357.0,120.0,106.0,192.0,127,58,73,76,67
2025-02-25 18:58:38.523,-333.0,-304.0,259.0,104.0,109.0,187.0,127,58,70,76,69
2025-02-25 18:58:38.527,-413.0,-306.0,168.0,95.0,110.0,170.0,131,59,72,80,70
2025-02-25 18:58:38.532,-448.0,-296.0,419.0,84.0,129.0,153.0,130,59,72,77,67
2025-02-25 18:58:38.540,-466.0,-327.0,185.0,58.0,132.0,140.0,131,59,73,78,68
2025-02-25 18:58:38.543,-494.0,-266.0,35.0,62.0,129.0,135.0,138,59,74,77,70
2025-02-25 18:58:38.549,-589.0,-281.0,70.0,57.0,133.0,132.0,132,61,74,78,71
2025-02-25 18:58:38.553,-610.0,-333.0,-163.0,68.0,131.0,133.0,133,58,74,77,69
2025-02-25 18:58:38.557,-707.0,-301.0,27.0,89.0,133.0,132.0,132,60,75,78,71
2025-02-25 18:58:38.564,-753.0,-253.0,-176.0,99.0,134.0,129.0,132,62,80,76,73
2025-02-25 18:58:38.569,-752.0,-301.0,-250.0,113.0,136.0,128.0,131,61,72,74,73
2025-02-25 18:58:38.573,-779.0,-133.0,-363.0,134.0,131.0,119.0,131,63,80,75,72
2025-02-25 18:58:38.577,-819.0,-86.0,-257.0,135.0,133.0,117.0,133,65,75,76,73
2025-02-25 18:58:38.585,-824.0,-56.0,-282.0,146.0,126.0,106.0,135,63,74,72,75
2025-02-25 18:58:38.589,-901.0,-139.0,-264.0,158.0,122.0,92.0,135,61,74,71,73
2025-02-25 18:58:38.593,-898.0,-201.0,-222.0,173.0,119.0,79.0,131,62,74,72,71
2025-02-25 18:58:38.598,-851.0,-181.0,-135.0,193.0,115.0,72.0,131,65,75,73,75
2025-02-25 18:58:38.605,-729.0,-156.0,-112.0,196.0,109.0,70.0,133,70,76,73,75
2025-02-25 18:58:38.609,-799.0,-269.0,-356.0,200.0,104.0,62.0,131,71,73,71,72
2025-02-25 18:58:38.614,-799.0,-278.0,-356.0,222.0,88.0,56.0,131,77,73,70,74
2025-02-25 18:58:38.618,-796.0,-378.0,-355.0,241.0,77.0,50.0,132,82,74,70,73
2025-02-25 18:58:38.626,-795.0,-204.0,-233.0,249.0,62.0,45.0,133,87,72,70,73
2025-02-25 18:58:38.630,-718.0,-241.0,-486.0,255.0,50.0,46.0,127,90,72,70,72
2025-02-25 18:58:38.634,-818.0,-225.0,-492.0,268.0,31.0,43.0,128,99,74,68,71
2025-02-25 18:58:38.639,-910.0,-168.0,-550.0,268.0,1.0,30.0,129,101,72,69,71
2025-02-25 18:58:38.646,-902.0,-146.0,-452.0,280.0,-15.0,16.0,123,103,73,69,70
2025-02-25 18:58:38.651,-964.0,-167.0,-326.0,302.0,-20.0,4.0,121,104,72,66,69
2025-02-25 18:58:38.656,-883.0,-196.0,-377.0,309.0,-30.0,-2.0,119,107,72,67,70
2025-02-25 18:58:38.663,-915.0,-126.0,-458.0,301.0,-49.0,-16.0,117,108,73,67,70
2025-02-25 18:58:38.667,-932.0,-71.0,-460.0,301.0,-64.0,-32.0,114,107,71,67,68
2025-02-25 18:58:38.671,-883.0,-125.0,-484.0,299.0,-70.0,-40.0,109,108,69,66,67
2025-02-25 18:58:38.676,-911.0,-179.0,-588.0,299.0,-84.0,-43.0,107,106,71,66,66
2025-02-25 18:58:38.683,-969.0,-261.0,-610.0,299.0,-100.0,-45.0,107,110,70,65,65
2025-02-25 18:58:38.687,-1054.0,-297.0,-724.0,303.0,-122.0,-47.0,106,112,69,67,67
2025-02-25 18:58:38.692,-1160.0,-292.0,-915.0,303.0,-154.0,-50.0,101,111,69,71,65
2025-02-25 18:58:38.699,-1148.0,-214.0,-1001.0,301.0,-173.0,-60.0,102,110,68,70,64
2025-02-25 18:58:38.704,-1131.0,-237.0,-1053.0,299.0,-212.0,-66.0,98,109,66,67,66
2025-02-25 18:58:38.708,-1024.0,-291.0,-986.0,308.0,-246.0,-69.0,96,113,66,56,67
2025-02-25 18:58:38.715,-1081.0,-198.0,-1053.0,323.0,-291.0,-81.0,96,113,66,67,67
2025-02-25 18:58:38.720,-1041.0,-180.0,-988.0,344.0,-332.0,-87.0,96,110,67,69,69
2025-02-25 18:58:38.724,-883.0,-63.0,-830.0,350.0,-368.0,-91.0,95,115,66,69,69
2025-02-25 18:58:38.732,-789.0,155.0,-838.0,359.0,-388.0,-101.0,93,112,66,66,67
2025-02-25 18:58:38.736,-675.0,384.0,-689.0,360.0,-426.0,-108.0,94,110,65,68,67
2025-02-25 18:58:38.741,-491.0,425.0,-364.0,360.0,-462.0,-113.0,94,115,65,66,69
2025-02-25 18:58:38.748,-307.0,664.0,-214.0,337.0,-490.0,-122.0,96,114,65,69,69
2025-02-25 18:58:38.752,34.0,699.0,-68.0,328.0,-515.0,-129.0,93,118,64,68,68
2025-02-25 18:58:38.757,166.0,644.0,354.0,313.0,-521.0,-128.0,95,115,66,68,67
2025-02-25 18:58:38.761,520.0,571.0,742.0,308.0,-527.0,-127.0,97,119,66,68,68
2025-02-25 18:58:38.769,903.0,524.0,918.0,294.0,-523.0,-121.0,96,116,67,72,70
2025-02-25 18:58:38.773,1134.0,483.0,1297.0,283.0,-504.0,-106.0,96,113,67,69,70
2025-02-25 18:58:38.778,1227.0,484.0,1877.0,263.0,-482.0,-82.0,96,113,65,69,70
2025-02-25 18:58:38.782,1442.0,392.0,2238.0,233.0,-436.0,-73.0,98,112,65,67,68
2025-02-25 18:58:38.790,1470.0,486.0,2465.0,194.0,-371.0,-50.0,97,114,66,71,71
2025-02-25 18:58:38.794,1690.0,656.0,2681.0,169.0,-307.0,-37.0,99,115,68,72,67
2025-02-25 18:58:38.798,1843.0,665.0,2824.0,116.0,-276.0,-21.0,98,114,66,70,71
2025-02-25 18:58:38.802,1918.0,519.0,3043.0,66.0,-224.0,-8.0,96,118,68,69,70
2025-02-25 18:58:38.810,2077.0,488.0,3156.0,25.0,-165.0,16.0,99,118,67,70,72
2025-02-25 18:58:38.814,2183.0,583.0,3217.0,2.0,-112.0,31.0,99,114,70,70,71
2025-02-25 18:58:38.818,2216.0,503.0,3171.0,-40.0,-90.0,40.0,97,115,65,70,71
2025-02-25 18:58:38.823,2251.0,500.0,3019.0,-77.0,-50.0,40.0,100,118,66,70,71
2025-02-25 18:58:38.830,2229.0,387.0,2985.0,-100.0,-13.0,40.0,95,112,66,72,72
2025-02-25 18:58:38.835,2161.0,199.0,2837.0,-104.0,20.0,43.0,95,110,64,70,70
2025-02-25 18:58:38.839,2119.0,-70.0,2632.0,-105.0,35.0,46.0,93,115,67,70,70
2025-02-25 18:58:38.843,2000.0,-84.0,2609.0,-94.0,56.0,67.0,96,112,68,71,72
2025-02-25 18:58:38.851,1721.0,-416.0,2248.0,-98.0,84.0,66.0,97,114,67,69,70
2025-02-25 18:58:38.855,1620.0,-132.0,2039.0,-71.0,94.0,66.0,93,114,67,69,71
2025-02-25 18:58:38.859,1343.0,-110.0,1943.0,-68.0,109.0,69.0,95,114,68,69,71
2025-02-25 18:58:38.864,1189.0,-187.0,1797.0,-83.0,116.0,74.0,95,114,67,69,71
2025-02-25 18:58:38.871,1002.0,-145.0,1616.0,-80.0,120.0,79.0,94,112,65,68,71
2025-02-25 18:58:38.876,928.0,-158.0,1537.0,-88.0,126.0,90.0,93,111,67,68,69
2025-02-25 18:58:38.880,822.0,-116.0,1348.0,-99.0,124.0,93.0,96,115,69,69,71
2025-02-25 18:58:38.884,729.0,-81.0,1315.0,-104.0,125.0,100.0,96,114,69,70,72
2025-02-25 18:58:38.892,687.0,-38.0,1258.0,-114.0,123.0,102.0,96,116,66,68,70
2025-02-25 18:58:38.896,615.0,-80.0,1208.0,-112.0,125.0,101.0,96,114,64,69,69
2025-02-25 18:58:38.900,541.0,-29.0,1186.0,-112.0,126.0,104.0,97,118,68,70,70
2025-02-25 18:58:38.905,434.0,9.0,1061.0,-113.0,123.0,102.0,96,114,67,70,71
2025-02-25 18:58:38.909,423.0,23.0,1014.0,-106.0,123.0,96.0,93,113,65,69,72
2025-02-25 18:58:38.917,309.0,-15.0,979.0,-96.0,124.0,93.0,98,115,65,70,72
2025-02-25 18:58:38.921,232.0,6.0,910.0,-91.0,125.0,87.0,97,115,66,70,69
2025-02-25 18:58:38.925,180.0,-17.0,921.0,-86.0,126.0,85.0,95,107,66,70,71
2025-02-25 18:58:38.929,73.0,-52.0,810.0,-84.0,125.0,85.0,96,112,66,70,70
2025-02-25 18:58:38.934,-8.0,3.0,831.0,-81.0,128.0,82.0,96,109,65,71,71
2025-02-25 18:58:38.941,-80.0,-13.0,740.0,-81.0,128.0,82.0,95,123,68,69,71
2025-02-25 18:58:38.945,-190.0,-22.0,662.0,-83.0,127.0,81.0,98,121,67,73,71
2025-02-25 18:58:38.949,-332.0,51.0,678.0,-84.0,127.0,77.0,96,123,67,71,72
2025-02-25 18:58:38.953,-377.0,38.0,578.0,-86.0,124.0,74.0,97,120,68,71,71
2025-02-25 18:58:38.958,-483.0,54.0,504.0,-91.0,117.0,72.0,96,121,68,73,70
2025-02-25 18:58:38.962,-564.0,55.0,529.0,-91.0,110.0,68.0,98,123,68,71,72
2025-02-25 18:58:38.969,-605.0,33.0,414.0,-93.0,104.0,64.0,97,119,68,69,70
2025-02-25 18:58:38.974,-702.0,37.0,408.0,-97.0,96.0,63.0,98,120,67,70,69
2025-02-25 18:58:38.978,-762.0,26.0,369.0,-93.0,85.0,55.0,96,121,67,70,72
2025-02-25 18:58:38.983,-810.0,-32.0,333.0,-94.0,78.0,49.0,98,121,67,72,70
2025-02-25 18:58:38.987,-860.0,-51.0,302.0,-84.0,70.0,46.0,95,120,66,69,71
2025-02-25 18:58:38.994,-888.0,-77.0,290.0,-78.0,60.0,37.0,99,121,68,70,71
2025-02-25 18:58:38.999,-920.0,-76.0,267.0,-68.0,56.0,30.0,97,121,68,71,71
2025-02-25 18:58:39.003,-940.0,-142.0,284.0,-53.0,49.0,27.0,97,120,68,70,72
2025-02-25 18:58:39.007,-986.0,-153.0,236.0,-40.0,42.0,18.0,98,120,66,72,72
2025-02-25 18:58:39.011,-1018.0,-93.0,201.0,-33.0,36.0,11.0,98,122,68,69,70
2025-02-25 18:58:39.018,-1013.0,-127.0,230.0,-27.0,32.0,7.0,99,122,67,70,70
2025-02-25 18:58:39.023,-1050.0,-107.0,209.0,-21.0,28.0,0.0,99,127,70,71,72
2025-02-25 18:58:39.027,-1062.0,-78.0,217.0,-18.0,23.0,-9.0,97,121,67,70,71
2025-02-25 18:58:39.032,-1051.0,-85.0,165.0,-14.0,22.0,-12.0,96,120,64,69,70
