timestamp,ax,ay,az,gx,gy,gz,flex1,flex2,flex3,flex4,flex5,emg1,emg2,emg3
2025-02-26 14:39:14.239,-350.0,-931.0,-19.0,-1.0,5.0,-1.0,141,120,122,127,128
2025-02-26 14:39:14.241,-350.0,-923.0,-31.0,1.0,4.0,-2.0,144,123,124,129,130
2025-02-26 14:39:14.243,-348.0,-927.0,-11.0,1.0,6.0,-3.0,142,122,122,127,129
2025-02-26 14:39:14.245,-345.0,-923.0,-19.0,-1.0,7.0,-3.0,142,119,121,127,128
2025-02-26 14:39:14.248,-347.0,-927.0,-42.0,2.0,5.0,-3.0,144,122,126,129,130
2025-02-26 14:39:14.250,-345.0,-933.0,-33.0,0.0,3.0,-4.0,143,120,122,128,130
2025-02-26 14:39:14.253,-338.0,-938.0,-30.0,0.0,2.0,-3.0,143,120,122,127,129
2025-02-26 14:39:14.255,-341.0,-933.0,-17.0,-3.0,2.0,-3.0,144,119,123,129,130
2025-02-26 14:39:14.257,-338.0,-938.0,-26.0,-1.0,1.0,-3.0,143,121,123,129,130
2025-02-26 14:39:14.260,-334.0,-948.0,-9.0,1.0,1.0,-3.0,144,121,124,129,130
2025-02-26 14:39:14.262,-334.0,-941.0,-17.0,0.0,1.0,-3.0,144,121,124,128,128
2025-02-26 14:39:14.264,-333.0,-949.0,-33.0,0.0,1.0,-3.0,143,120,122,127,130
2025-02-26 14:39:14.264,-332.0,-948.0,-18.0,0.0,1.0,-3.0,144,121,124,130,131
2025-02-26 14:39:14.264,-345.0,-949.0,-31.0,0.0,0.0,-3.0,144,121,123,128,130
2025-02-26 14:39:14.270,-343.0,-951.0,-35.0,0.0,0.0,-3.0,143,120,121,127,129
2025-02-26 14:39:14.270,-339.0,-947.0,-30.0,-3.0,-1.0,-2.0,144,121,123,128,130
2025-02-26 14:39:14.276,-335.0,-939.0,-23.0,-3.0,-1.0,-2.0,144,122,123,129,130
2025-02-26 14:39:14.278,-339.0,-946.0,-32.0,-1.0,-1.0,-1.0,143,121,122,127,129
2025-02-26 14:39:14.281,-331.0,-942.0,-44.0,-4.0,-3.0,-1.0,144,121,123,128,130
2025-02-26 14:39:14.282,-324.0,-934.0,-35.0,-6.0,-3.0,-1.0,144,121,123,127,129
2025-02-26 14:39:14.282,-328.0,-931.0,-28.0,-6.0,-4.0,-1.0,144,121,123,128,130
2025-02-26 14:39:14.287,-331.0,-940.0,-23.0,-7.0,-5.0,-1.0,144,122,124,129,130
2025-02-26 14:39:14.290,-327.0,-932.0,-26.0,-6.0,-5.0,-1.0,144,120,124,127,129
2025-02-26 14:39:14.292,-320.0,-939.0,-25.0,-5.0,-5.0,-1.0,143,120,121,125,129
2025-02-26 14:39:14.294,-330.0,-939.0,-21.0,-4.0,-4.0,-1.0,145,122,124,129,131
2025-02-26 14:39:14.294,-323.0,-937.0,-10.0,-4.0,-4.0,-2.0,144,121,124,128,130
2025-02-26 14:39:14.299,-324.0,-937.0,-30.0,-3.0,-4.0,-2.0,142,120,123,127,129
2025-02-26 14:39:14.301,-335.0,-941.0,-28.0,-3.0,-4.0,-2.0,144,122,124,129,129
2025-02-26 14:39:14.306,-344.0,-941.0,-26.0,-1.0,-3.0,-1.0,143,121,124,130,131
2025-02-26 14:39:14.306,-344.0,-943.0,-16.0,0.0,-2.0,-2.0,143,120,123,129,130
2025-02-26 14:39:14.310,-346.0,-944.0,-21.0,1.0,-1.0,-2.0,143,121,120,127,129
2025-02-26 14:39:14.311,-353.0,-944.0,-20.0,3.0,-1.0,-2.0,144,121,124,129,130
2025-02-26 14:39:14.312,-347.0,-943.0,-15.0,4.0,0.0,-2.0,145,122,123,129,130
2025-02-26 14:39:14.317,-349.0,-941.0,-25.0,4.0,0.0,-3.0,144,120,124,130,130
2025-02-26 14:39:14.318,-353.0,-943.0,-22.0,4.0,0.0,-3.0,144,121,122,128,130
2025-02-26 14:39:14.320,-348.0,-934.0,-19.0,5.0,0.0,-3.0,145,121,124,130,130
2025-02-26 14:39:14.322,-349.0,-932.0,-22.0,5.0,0.0,-3.0,144,122,124,129,131
2025-02-26 14:39:14.325,-350.0,-939.0,-25.0,5.0,0.0,-3.0,144,120,122,127,129
2025-02-26 14:39:14.328,-354.0,-939.0,-28.0,5.0,0.0,-3.0,143,121,123,128,131
2025-02-26 14:39:14.330,-347.0,-939.0,-28.0,5.0,-1.0,-3.0,144,121,124,129,130
2025-02-26 14:39:14.331,-353.0,-940.0,-26.0,4.0,-1.0,-3.0,142,121,124,131,130
2025-02-26 14:39:14.334,-351.0,-937.0,-19.0,4.0,-2.0,-3.0,144,120,123,127,129
2025-02-26 14:39:14.336,-355.0,-946.0,-19.0,3.0,-1.0,-3.0,144,121,127,128,131
2025-02-26 14:39:14.338,-350.0,-947.0,-20.0,3.0,-2.0,-3.0,144,121,124,129,131
2025-02-26 14:39:14.340,-350.0,-953.0,-15.0,2.0,-2.0,-3.0,144,121,122,129,129
2025-02-26 14:39:14.343,-352.0,-961.0,-26.0,2.0,-2.0,-3.0,144,121,123,129,129
2025-02-26 14:39:14.345,-347.0,-960.0,-15.0,0.0,-3.0,-4.0,144,121,123,129,130
2025-02-26 14:39:14.347,-337.0,-970.0,2.0,0.0,-3.0,-3.0,144,121,123,128,131
2025-02-26 14:39:14.351,-341.0,-974.0,-12.0,0.0,-4.0,-3.0,143,122,122,125,129
2025-02-26 14:39:14.353,-341.0,-970.0,-8.0,-2.0,-4.0,-2.0,143,119,121,129,129
2025-02-26 14:39:14.355,-341.0,-968.0,-2.0,-2.0,-3.0,-2.0,144,120,123,128,130
2025-02-26 14:39:14.358,-350.0,-974.0,-21.0,-2.0,-3.0,-1.0,143,121,122,128,129
2025-02-26 14:39:14.362,-345.0,-970.0,-13.0,-2.0,-3.0,-1.0,144,119,123,128,129
2025-02-26 14:39:14.369,-350.0,-968.0,-5.0,-3.0,-3.0,-1.0,143,120,122,126,129
2025-02-26 14:39:14.373,-346.0,-972.0,-4.0,-3.0,-3.0,-2.0,143,121,122,128,130
2025-02-26 14:39:14.378,-343.0,-968.0,-1.0,-3.0,-3.0,-2.0,146,122,125,130,134
2025-02-26 14:39:14.385,-344.0,-963.0,3.0,-3.0,-3.0,-2.0,145,120,123,128,130
2025-02-26 14:39:14.390,-347.0,-962.0,2.0,-3.0,-2.0,-3.0,145,122,123,129,129
2025-02-26 14:39:14.394,-355.0,-964.0,-1.0,-4.0,-1.0,-3.0,143,121,123,127,130
2025-02-26 14:39:14.398,-354.0,-964.0,-2.0,-4.0,-1.0,-3.0,144,122,124,129,131
2025-02-26 14:39:14.404,-349.0,-974.0,1.0,-3.0,-1.0,-3.0,145,121,122,129,129
2025-02-26 14:39:14.410,-356.0,-971.0,1.0,-3.0,0.0,-3.0,145,122,124,129,130
2025-02-26 14:39:14.415,-348.0,-974.0,7.0,-2.0,1.0,-3.0,143,122,123,128,130
2025-02-26 14:39:14.415,-350.0,-979.0,-2.0,-1.0,1.0,-2.0,143,120,123,129,130
2025-02-26 14:39:14.423,-348.0,-980.0,7.0,-1.0,2.0,-2.0,144,121,124,129,131
2025-02-26 14:39:14.431,-340.0,-978.0,10.0,0.0,3.0,-1.0,144,121,124,128,130
2025-02-26 14:39:14.435,-354.0,-981.0,11.0,1.0,3.0,-1.0,143,120,123,128,129
2025-02-26 14:39:14.439,-350.0,-975.0,17.0,1.0,3.0,-1.0,145,122,126,129,131
2025-02-26 14:39:14.442,-354.0,-972.0,12.0,2.0,4.0,-1.0,144,121,126,128,130
2025-02-26 14:39:14.451,-346.0,-966.0,8.0,2.0,4.0,-1.0,143,121,122,128,129
2025-02-26 14:39:14.456,-355.0,-964.0,13.0,2.0,5.0,-1.0,143,120,123,128,130
2025-02-26 14:39:14.460,-351.0,-959.0,6.0,1.0,5.0,-1.0,145,122,124,131,131
2025-02-26 14:39:14.464,-354.0,-960.0,11.0,1.0,5.0,-2.0,144,121,124,129,129
2025-02-26 14:39:14.468,-347.0,-957.0,8.0,0.0,5.0,-2.0,141,120,123,128,128
2025-02-26 14:39:14.475,-342.0,-959.0,7.0,-2.0,6.0,-3.0,146,121,124,128,129
2025-02-26 14:39:14.477,-342.0,-965.0,-3.0,-2.0,7.0,-3.0,144,121,123,129,130
2025-02-26 14:39:14.484,-344.0,-961.0,-7.0,-3.0,8.0,-4.0,145,119,122,127,129
2025-02-26 14:39:14.489,-336.0,-972.0,-7.0,-3.0,9.0,-4.0,143,120,122,128,131
2025-02-26 14:39:14.497,-339.0,-984.0,-24.0,-4.0,8.0,-5.0,142,120,124,129,130
2025-02-26 14:39:14.501,-338.0,-991.0,-10.0,-8.0,8.0,-6.0,144,121,124,129,131
2025-02-26 14:39:14.505,-333.0,-980.0,-8.0,-8.0,10.0,-6.0,145,122,123,129,131
2025-02-26 14:39:14.509,-358.0,-987.0,-54.0,-13.0,7.0,-5.0,141,120,123,129,130
2025-02-26 14:39:14.513,-340.0,-985.0,-13.0,-18.0,10.0,-5.0,144,120,122,129,131
2025-02-26 14:39:14.521,-359.0,-1001.0,-42.0,-22.0,9.0,-4.0,143,120,123,129,131
2025-02-26 14:39:14.525,-363.0,-1003.0,-33.0,-24.0,5.0,-3.0,142,119,123,127,129
2025-02-26 14:39:14.530,-350.0,-1002.0,-42.0,-34.0,2.0,-2.0,145,121,124,130,130
2025-02-26 14:39:14.538,-355.0,-1016.0,-68.0,-36.0,-2.0,-1.0,144,121,123,129,130
2025-02-26 14:39:14.542,-349.0,-1000.0,-34.0,-36.0,-1.0,-1.0,144,120,125,130,131
2025-02-26 14:39:14.543,-347.0,-994.0,-43.0,-32.0,-2.0,0.0,142,119,123,128,130
2025-02-26 14:39:14.553,-344.0,-995.0,-45.0,-26.0,2.0,0.0,146,119,122,128,129
2025-02-26 14:39:14.558,-341.0,-980.0,-44.0,-21.0,2.0,1.0,145,121,124,130,129
2025-02-26 14:39:14.563,-333.0,-984.0,-60.0,-19.0,0.0,2.0,143,120,123,129,130
2025-02-26 14:39:14.566,-338.0,-977.0,-38.0,-22.0,0.0,2.0,143,119,123,128,130
2025-02-26 14:39:14.574,-330.0,-978.0,-23.0,-25.0,-1.0,2.0,145,117,122,127,128
2025-02-26 14:39:14.578,-333.0,-967.0,-43.0,-29.0,-3.0,3.0,144,121,123,128,131
2025-02-26 14:39:14.582,-331.0,-957.0,-26.0,-31.0,-3.0,3.0,144,121,125,130,130
2025-02-26 14:39:14.590,-334.0,-963.0,-31.0,-25.0,-1.0,4.0,145,121,124,127,129
2025-02-26 14:39:14.591,-340.0,-952.0,-8.0,-28.0,3.0,4.0,144,119,123,128,129
2025-02-26 14:39:14.599,-323.0,-958.0,-9.0,-27.0,7.0,5.0,144,122,126,131,132
2025-02-26 14:39:14.603,-328.0,-951.0,-4.0,-26.0,11.0,4.0,144,120,124,129,131
2025-02-26 14:39:14.611,-328.0,-946.0,-3.0,-24.0,13.0,5.0,145,119,122,127,130
2025-02-26 14:39:14.616,-317.0,-940.0,-38.0,-24.0,17.0,6.0,142,119,123,127,130
2025-02-26 14:39:14.619,-316.0,-936.0,-42.0,-24.0,20.0,6.0,146,122,125,131,131
2025-02-26 14:39:14.624,-323.0,-942.0,-63.0,-24.0,20.0,7.0,145,120,125,130,130
2025-02-26 14:39:14.628,-319.0,-937.0,-69.0,-27.0,20.0,7.0,144,120,122,127,129
2025-02-26 14:39:14.636,-313.0,-924.0,-71.0,-28.0,20.0,7.0,142,120,124,128,129
2025-02-26 14:39:14.640,-319.0,-917.0,-70.0,-28.0,20.0,6.0,145,122,125,130,127
2025-02-26 14:39:14.645,-323.0,-921.0,-83.0,-27.0,18.0,6.0,144,122,124,128,131
2025-02-26 14:39:14.652,-320.0,-930.0,-94.0,-27.0,14.0,5.0,144,120,124,128,129
2025-02-26 14:39:14.656,-319.0,-917.0,-91.0,-29.0,13.0,5.0,142,120,123,129,130
2025-02-26 14:39:14.661,-340.0,-908.0,-137.0,-18.0,11.0,6.0,145,120,124,128,132
2025-02-26 14:39:14.669,-346.0,-908.0,-178.0,-35.0,0.0,5.0,144,120,125,128,130
2025-02-26 14:39:14.670,-325.0,-928.0,-76.0,-28.0,10.0,7.0,144,120,124,129,130
2025-02-26 14:39:14.677,-335.0,-913.0,-99.0,-12.0,11.0,6.0,144,118,121,129,130
2025-02-26 14:39:14.681,-332.0,-924.0,-90.0,-12.0,-2.0,5.0,142,120,123,128,130
2025-02-26 14:39:14.689,-303.0,-948.0,-103.0,3.0,-8.0,5.0,143,121,124,129,130
2025-02-26 14:39:14.693,-352.0,-934.0,-71.0,6.0,-6.0,5.0,144,123,123,127,130
2025-02-26 14:39:14.697,-296.0,-915.0,-177.0,14.0,-7.0,4.0,142,119,122,127,130
2025-02-26 14:39:14.701,-331.0,-939.0,-145.0,22.0,-15.0,3.0,143,119,122,127,129
2025-02-26 14:39:14.710,-321.0,-959.0,-78.0,37.0,-16.0,4.0,145,122,125,129,130
2025-02-26 14:39:14.712,-348.0,-974.0,-83.0,42.0,-24.0,4.0,143,120,123,127,130
2025-02-26 14:39:14.718,-329.0,-971.0,-147.0,42.0,-32.0,3.0,146,120,122,127,131
2025-02-26 14:39:14.725,-343.0,-961.0,-88.0,48.0,-37.0,3.0,142,119,124,127,131
2025-02-26 14:39:14.730,-362.0,-963.0,-34.0,49.0,-30.0,4.0,144,120,124,129,130
2025-02-26 14:39:14.734,-328.0,-970.0,-60.0,48.0,-30.0,4.0,143,121,125,130,132
2025-02-26 14:39:14.737,-327.0,-992.0,-107.0,46.0,-34.0,5.0,144,121,125,129,132
2025-02-26 14:39:14.745,-340.0,-972.0,-59.0,49.0,-35.0,5.0,142,120,123,127,130
2025-02-26 14:39:14.749,-343.0,-966.0,-66.0,54.0,-37.0,5.0,143,120,121,127,130
2025-02-26 14:39:14.755,-350.0,-978.0,-33.0,42.0,-40.0,4.0,143,120,124,128,131
2025-02-26 14:39:14.761,-341.0,-973.0,-26.0,41.0,-35.0,6.0,144,121,123,128,131
2025-02-26 14:39:14.767,-359.0,-974.0,-71.0,36.0,-32.0,6.0,143,121,123,127,129
2025-02-26 14:39:14.771,-351.0,-969.0,-50.0,28.0,-35.0,6.0,143,116,122,126,129
2025-02-26 14:39:14.775,-345.0,-973.0,-55.0,18.0,-33.0,5.0,144,120,123,128,130
2025-02-26 14:39:14.783,-360.0,-963.0,18.0,14.0,-17.0,5.0,145,120,123,127,130
2025-02-26 14:39:14.785,-368.0,-949.0,-29.0,8.0,-10.0,5.0,143,118,122,126,130
2025-02-26 14:39:14.791,-356.0,-932.0,-86.0,-11.0,-8.0,6.0,144,119,121,125,128
2025-02-26 14:39:14.796,-348.0,-950.0,28.0,-19.0,2.0,7.0,143,120,124,127,130
2025-02-26 14:39:14.804,-362.0,-939.0,25.0,-19.0,6.0,7.0,144,120,124,128,131
2025-02-26 14:39:14.804,-371.0,-941.0,-36.0,-22.0,4.0,8.0,142,118,123,126,129
2025-02-26 14:39:14.812,-359.0,-968.0,-59.0,-25.0,8.0,8.0,143,119,122,127,130
2025-02-26 14:39:14.816,-367.0,-935.0,-70.0,-33.0,10.0,9.0,144,119,123,126,130
2025-02-26 14:39:14.824,-355.0,-938.0,-15.0,-37.0,12.0,9.0,142,119,124,128,131
2025-02-26 14:39:14.828,-360.0,-973.0,-36.0,-29.0,10.0,10.0,142,119,122,124,129
2025-02-26 14:39:14.832,-375.0,-972.0,-56.0,-23.0,8.0,10.0,141,119,121,125,129
2025-02-26 14:39:14.840,-373.0,-946.0,-63.0,-25.0,9.0,10.0,144,118,123,126,130
2025-02-26 14:39:14.844,-379.0,-953.0,-51.0,-29.0,17.0,12.0,144,120,123,128,129
2025-02-26 14:39:14.849,-371.0,-966.0,-34.0,-23.0,20.0,13.0,142,118,122,125,129
2025-02-26 14:39:14.854,-361.0,-949.0,-43.0,-30.0,20.0,13.0,142,117,127,127,129
2025-02-26 14:39:14.861,-352.0,-939.0,-76.0,-30.0,17.0,14.0,143,118,122,126,129
2025-02-26 14:39:14.865,-376.0,-957.0,-63.0,-32.0,13.0,14.0,143,117,122,129,130
2025-02-26 14:39:14.869,-379.0,-953.0,-62.0,-35.0,10.0,15.0,143,116,123,126,129
2025-02-26 14:39:14.877,-377.0,-941.0,-112.0,-35.0,5.0,16.0,143,115,121,126,128
2025-02-26 14:39:14.881,-372.0,-950.0,-65.0,-32.0,5.0,19.0,142,115,120,124,127
2025-02-26 14:39:14.885,-373.0,-944.0,-26.0,-35.0,7.0,20.0,143,115,122,127,128
2025-02-26 14:39:14.888,-379.0,-924.0,-88.0,-29.0,7.0,21.0,141,113,122,127,128
2025-02-26 14:39:14.897,-366.0,-950.0,-29.0,-24.0,12.0,23.0,143,113,121,126,127
2025-02-26 14:39:14.902,-419.0,-923.0,-127.0,-19.0,11.0,24.0,145,110,122,130,127
2025-02-26 14:39:14.906,-378.0,-916.0,-137.0,-25.0,9.0,24.0,141,109,120,125,126
2025-02-26 14:39:14.912,-388.0,-885.0,-24.0,-27.0,7.0,26.0,142,109,119,125,126
2025-02-26 14:39:14.918,-391.0,-926.0,-23.0,-31.0,14.0,27.0,144,107,120,123,125
2025-02-26 14:39:14.922,-356.0,-906.0,-105.0,-16.0,13.0,30.0,144,105,120,126,124
2025-02-26 14:39:14.930,-356.0,-913.0,-93.0,-6.0,9.0,31.0,143,103,118,123,121
2025-02-26 14:39:14.931,-378.0,-920.0,-71.0,-13.0,12.0,31.0,140,100,117,123,121
2025-02-26 14:39:14.938,-368.0,-900.0,-90.0,-5.0,14.0,31.0,145,102,119,125,122
2025-02-26 14:39:14.944,-390.0,-913.0,-38.0,-3.0,16.0,31.0,144,99,118,124,120
2025-02-26 14:39:14.951,-398.0,-928.0,-46.0,-3.0,18.0,32.0,142,98,115,121,116
2025-02-26 14:39:14.955,-380.0,-930.0,-64.0,-4.0,21.0,32.0,141,95,116,122,116
2025-02-26 14:39:14.959,-410.0,-928.0,-63.0,-7.0,25.0,33.0,142,97,118,122,116
2025-02-26 14:39:14.961,-413.0,-927.0,-76.0,-9.0,24.0,33.0,143,94,115,120,114
2025-02-26 14:39:14.971,-392.0,-916.0,-72.0,-7.0,23.0,32.0,141,91,113,118,111
2025-02-26 14:39:14.975,-417.0,-924.0,-40.0,-8.0,24.0,31.0,141,91,114,118,110
2025-02-26 14:39:14.979,-460.0,-917.0,-81.0,-8.0,26.0,29.0,143,91,114,118,110
2025-02-26 14:39:14.985,-464.0,-911.0,-118.0,-6.0,26.0,27.0,142,88,112,117,108
2025-02-26 14:39:14.992,-478.0,-952.0,-93.0,1.0,28.0,25.0,142,85,108,115,106
2025-02-26 14:39:14.996,-484.0,-940.0,-109.0,6.0,29.0,25.0,141,84,108,113,104
2025-02-26 14:39:15.001,-480.0,-955.0,-126.0,7.0,29.0,26.0,143,84,107,115,103
2025-02-26 14:39:15.004,-459.0,-944.0,-110.0,10.0,29.0,27.0,140,81,105,112,101
2025-02-26 14:39:15.012,-446.0,-951.0,-128.0,17.0,29.0,29.0,142,80,104,111,98
2025-02-26 14:39:15.017,-398.0,-954.0,-114.0,21.0,27.0,30.0,141,77,101,109,96
2025-02-26 14:39:15.021,-387.0,-955.0,-64.0,27.0,29.0,32.0,143,77,103,111,96
2025-02-26 14:39:15.025,-375.0,-964.0,-58.0,30.0,28.0,33.0,143,75,101,110,95
2025-02-26 14:39:15.033,-384.0,-943.0,-64.0,30.0,28.0,33.0,139,74,101,109,92
2025-02-26 14:39:15.034,-452.0,-935.0,-57.0,25.0,26.0,33.0,142,73,101,107,91
2025-02-26 14:39:15.042,-412.0,-932.0,-9.0,22.0,36.0,35.0,142,73,99,108,91
2025-02-26 14:39:15.046,-400.0,-842.0,-80.0,9.0,35.0,33.0,140,71,98,106,88
2025-02-26 14:39:15.049,-417.0,-834.0,-60.0,-5.0,33.0,33.0,143,71,98,106,88
2025-02-26 14:39:15.057,-460.0,-837.0,-83.0,-8.0,29.0,31.0,140,71,98,107,85
2025-02-26 14:39:15.061,-473.0,-842.0,-64.0,-18.0,29.0,28.0,141,69,97,104,86
2025-02-26 14:39:15.066,-503.0,-850.0,-86.0,-24.0,28.0,25.0,140,68,95,106,85
2025-02-26 14:39:15.070,-536.0,-845.0,-93.0,-31.0,28.0,22.0,141,66,95,104,84
2025-02-26 14:39:15.079,-542.0,-827.0,-96.0,-34.0,30.0,21.0,143,63,91,101,81
2025-02-26 14:39:15.082,-520.0,-821.0,-65.0,-36.0,31.0,20.0,146,63,89,101,81
2025-02-26 14:39:15.082,-541.0,-875.0,-11.0,-32.0,36.0,20.0,142,64,88,100,79
2025-02-26 14:39:15.091,-524.0,-846.0,-35.0,-32.0,39.0,20.0,143,62,87,98,77
2025-02-26 14:39:15.095,-516.0,-836.0,-94.0,-27.0,37.0,20.0,140,60,87,98,71
2025-02-26 14:39:15.102,-523.0,-857.0,-106.0,-33.0,37.0,19.0,141,61,93,99,76
2025-02-26 14:39:15.107,-524.0,-887.0,-157.0,-34.0,33.0,19.0,140,61,86,96,74
2025-02-26 14:39:15.111,-516.0,-860.0,-119.0,-36.0,34.0,18.0,140,59,85,94,72
2025-02-26 14:39:15.115,-502.0,-805.0,-127.0,-46.0,32.0,18.0,140,59,86,93,70
2025-02-26 14:39:15.123,-500.0,-799.0,-148.0,-48.0,30.0,14.0,143,59,86,93,71
2025-02-26 14:39:15.125,-505.0,-782.0,-114.0,-48.0,30.0,15.0,141,58,87,93,70
2025-02-26 14:39:15.131,-502.0,-754.0,-101.0,-50.0,34.0,15.0,140,57,85,91,67
2025-02-26 14:39:15.136,-502.0,-758.0,-141.0,-43.0,32.0,15.0,140,58,87,91,68
2025-02-26 14:39:15.143,-519.0,-716.0,-124.0,-36.0,32.0,16.0,133,57,87,91,67
2025-02-26 14:39:15.148,-572.0,-672.0,-126.0,-34.0,29.0,16.0,137,56,81,89,65
2025-02-26 14:39:15.149,-572.0,-644.0,-127.0,-27.0,30.0,19.0,138,56,84,88,64
2025-02-26 14:39:15.156,-615.0,-580.0,-79.0,-19.0,33.0,22.0,136,55,82,89,63
2025-02-26 14:39:15.161,-720.0,-461.0,-53.0,-17.0,38.0,23.0,136,55,82,85,63
2025-02-26 14:39:15.168,-719.0,-463.0,30.0,-6.0,44.0,24.0,137,54,81,85,62
2025-02-26 14:39:15.173,-710.0,-362.0,-33.0,-4.0,53.0,25.0,133,56,82,87,61
2025-02-26 14:39:15.177,-746.0,-82.0,-8.0,-7.0,72.0,23.0,136,54,79,83,59
2025-02-26 14:39:15.179,-722.0,-3.0,5.0,-1.0,84.0,22.0,134,54,80,84,58
2025-02-26 14:39:15.185,-723.0,275.0,-26.0,-5.0,102.0,17.0,137,54,79,83,59
2025-02-26 14:39:15.193,-676.0,583.0,-144.0,-1.0,116.0,5.0,134,53,77,82,56
2025-02-26 14:39:15.197,-744.0,722.0,-284.0,8.0,118.0,-1.0,132,52,76,80,56
2025-02-26 14:39:15.198,-783.0,978.0,-456.0,17.0,116.0,-16.0,134,53,80,82,57
2025-02-26 14:39:15.206,-818.0,1190.0,-346.0,40.0,121.0,-47.0,127,52,77,82,55
2025-02-26 14:39:15.210,-868.0,1314.0,-287.0,67.0,132.0,-65.0,124,51,76,82,54
2025-02-26 14:39:15.217,-870.0,1382.0,-327.0,94.0,148.0,-109.0,122,52,78,82,57
2025-02-26 14:39:15.222,-668.0,1654.0,-428.0,127.0,135.0,-168.0,118,54,81,84,58
2025-02-26 14:39:15.222,-479.0,1691.0,-993.0,212.0,114.0,-240.0,115,52,79,82,57
2025-02-26 14:39:15.233,-536.0,1670.0,-1074.0,269.0,81.0,-276.0,115,50,77,82,57
2025-02-26 14:39:15.234,-500.0,1693.0,-1000.0,308.0,66.0,-335.0,109,52,79,81,59
2025-02-26 14:39:15.240,-532.0,1501.0,-859.0,322.0,41.0,-398.0,111,54,78,81,57
2025-02-26 14:39:15.250,-474.0,1378.0,-739.0,353.0,14.0,-465.0,109,52,77,81,57
2025-02-26 14:39:15.254,-373.0,1180.0,-626.0,379.0,-56.0,-501.0,106,51,76,82,59
2025-02-26 14:39:15.258,-98.0,1025.0,-617.0,395.0,-134.0,-567.0,108,52,79,81,60
2025-02-26 14:39:15.258,372.0,802.0,-643.0,414.0,-217.0,-627.0,109,53,79,82,61
2025-02-26 14:39:15.270,665.0,152.0,123.0,457.0,-251.0,-645.0,109,53,80,80,61
2025-02-26 14:39:15.274,1086.0,-20.0,604.0,444.0,-291.0,-671.0,107,52,80,79,61
2025-02-26 14:39:15.276,1989.0,-310.0,1255.0,413.0,-320.0,-659.0,111,55,84,79,63
2025-02-26 14:39:15.287,2862.0,-1375.0,1651.0,383.0,-284.0,-598.0,109,54,85,81,65
2025-02-26 14:39:15.288,3528.0,-2501.0,2360.0,350.0,-215.0,-507.0,109,55,86,81,63
2025-02-26 14:39:15.296,3923.0,-3786.0,2855.0,336.0,-129.0,-394.0,107,52,85,80,63
2025-02-26 14:39:15.303,4105.0,-4809.0,3091.0,299.0,-8.0,-270.0,107,56,85,80,64
2025-02-26 14:39:15.308,4073.0,-5393.0,2836.0,242.0,60.0,-151.0,108,54,84,79,64
2025-02-26 14:39:15.312,3570.0,-5440.0,2182.0,160.0,162.0,-97.0,107,55,81,78,63
2025-02-26 14:39:15.316,2553.0,-4954.0,1773.0,48.0,205.0,3.0,107,56,79,76,63
2025-02-26 14:39:15.324,1305.0,-4116.0,1069.0,-12.0,140.0,79.0,111,60,81,78,63
2025-02-26 14:39:15.328,863.0,-3121.0,397.0,-150.0,95.0,128.0,154,106,132,123,112
2025-02-26 14:39:15.333,341.0,-2259.0,144.0,-274.0,-9.0,138.0,142,94,122,110,100
2025-02-26 14:39:15.340,9.0,-1948.0,-3.0,-363.0,-71.0,159.0,166,119,143,133,123
2025-02-26 14:39:15.344,173.0,-1771.0,125.0,-417.0,-115.0,148.0,160,112,130,127,116
2025-02-26 14:39:15.349,362.0,-1651.0,205.0,-419.0,-134.0,135.0,161,114,134,131,119
2025-02-26 14:39:15.357,568.0,-1766.0,289.0,-414.0,-142.0,113.0,155,110,134,127,114
2025-02-26 14:39:15.361,551.0,-1873.0,193.0,-381.0,-146.0,99.0,169,123,152,142,128
2025-02-26 14:39:15.366,589.0,-1962.0,194.0,-322.0,-147.0,90.0,162,118,142,135,120
2025-02-26 14:39:15.373,624.0,-1960.0,141.0,-268.0,-140.0,88.0,158,111,131,134,116
2025-02-26 14:39:15.378,629.0,-1945.0,86.0,-225.0,-103.0,93.0,157,112,131,134,116
2025-02-26 14:39:15.385,516.0,-2007.0,40.0,-185.0,-83.0,101.0,170,119,139,137,122
2025-02-26 14:39:15.390,357.0,-1937.0,-32.0,-154.0,-70.0,122.0,161,117,140,139,122
2025-02-26 14:39:15.394,323.0,-1958.0,-56.0,-121.0,-76.0,144.0,162,115,137,140,123
2025-02-26 14:39:15.400,352.0,-1964.0,-14.0,-104.0,-77.0,169.0,171,123,141,143,128
2025-02-26 14:39:15.406,350.0,-1953.0,20.0,-74.0,-78.0,196.0,163,117,136,137,121
2025-02-26 14:39:15.410,369.0,-1912.0,73.0,-41.0,-81.0,222.0,161,114,135,136,119
2025-02-26 14:39:15.418,429.0,-1885.0,132.0,-9.0,-82.0,252.0,149,99,123,123,106
2025-02-26 14:39:15.422,438.0,-1839.0,185.0,20.0,-87.0,266.0,151,103,127,127,110
2025-02-26 14:39:15.427,472.0,-1678.0,192.0,38.0,-74.0,296.0,147,99,124,126,109
2025-02-26 14:39:15.431,480.0,-1460.0,216.0,45.0,-53.0,319.0,151,103,127,126,108
2025-02-26 14:39:15.439,461.0,-1234.0,212.0,55.0,-38.0,332.0,149,100,124,125,109
2025-02-26 14:39:15.443,457.0,-993.0,247.0,55.0,-28.0,340.0,148,99,121,121,107
2025-02-26 14:39:15.447,328.0,-857.0,151.0,50.0,-18.0,340.0,154,105,129,130,115
2025-02-26 14:39:15.455,287.0,-537.0,202.0,36.0,-8.0,337.0,155,105,129,130,116
2025-02-26 14:39:15.459,204.0,-331.0,199.0,35.0,0.0,323.0,156,105,125,128,116
2025-02-26 14:39:15.463,117.0,-132.0,222.0,13.0,0.0,306.0,155,104,124,128,113
2025-02-26 14:39:15.467,4.0,-79.0,192.0,-8.0,10.0,299.0,152,103,122,125,111
2025-02-26 14:39:15.475,-5.0,46.0,217.0,-47.0,28.0,284.0,155,107,129,132,118
2025-02-26 14:39:15.480,-145.0,117.0,187.0,-58.0,21.0,265.0,157,106,130,129,120
2025-02-26 14:39:15.484,-146.0,154.0,209.0,-81.0,8.0,240.0,153,100,125,127,114
2025-02-26 14:39:15.488,-220.0,169.0,180.0,-110.0,-6.0,229.0,156,105,131,132,118
2025-02-26 14:39:15.496,-264.0,227.0,149.0,-131.0,7.0,209.0,156,106,132,132,119
2025-02-26 14:39:15.501,-274.0,297.0,125.0,-140.0,12.0,185.0,161,110,137,137,123
2025-02-26 14:39:15.503,-340.0,333.0,111.0,-161.0,15.0,162.0,157,104,131,130,119
2025-02-26 14:39:15.512,-399.0,227.0,69.0,-181.0,22.0,147.0,151,100,126,126,113
2025-02-26 14:39:15.515,-466.0,236.0,-61.0,-198.0,31.0,136.0,152,96,124,125,111
2025-02-26 14:39:15.520,-524.0,248.0,-111.0,-203.0,34.0,114.0,159,107,136,136,120
2025-02-26 14:39:15.528,-542.0,206.0,-164.0,-206.0,37.0,96.0,163,107,134,134,121
2025-02-26 14:39:15.533,-561.0,161.0,-220.0,-203.0,34.0,78.0,156,103,132,128,116
2025-02-26 14:39:15.537,-586.0,147.0,-275.0,-199.0,33.0,63.0,153,100,128,127,114
2025-02-26 14:39:15.545,-588.0,131.0,-308.0,-194.0,29.0,53.0,153,99,129,128,114
2025-02-26 14:39:15.549,-623.0,118.0,-301.0,-181.0,21.0,48.0,158,106,132,135,120
2025-02-26 14:39:15.554,-617.0,90.0,-306.0,-167.0,14.0,42.0,157,105,132,135,121
2025-02-26 14:39:15.561,-622.0,82.0,-300.0,-151.0,2.0,39.0,165,113,139,142,126
2025-02-26 14:39:15.565,-660.0,110.0,-285.0,-140.0,-5.0,38.0,156,101,126,131,117
2025-02-26 14:39:15.570,-666.0,143.0,-269.0,-121.0,-8.0,37.0,151,99,121,126,114
2025-02-26 14:39:15.574,-646.0,203.0,-250.0,-100.0,-13.0,36.0,157,102,126,132,117
2025-02-26 14:39:15.582,-662.0,258.0,-239.0,-80.0,-13.0,35.0,163,110,132,138,125
2025-02-26 14:39:15.587,-762.0,338.0,-241.0,-60.0,-9.0,32.0,160,107,131,138,123
2025-02-26 14:39:15.591,-868.0,536.0,-254.0,-51.0,-10.0,29.0,158,105,129,134,120
2025-02-26 14:39:15.598,-939.0,753.0,-255.0,-24.0,-11.0,26.0,155,100,123,131,116
2025-02-26 14:39:15.603,-991.0,1035.0,-252.0,4.0,-10.0,20.0,156,104,125,132,120
2025-02-26 14:39:15.606,-1116.0,1181.0,-233.0,37.0,-3.0,13.0,160,107,131,137,123
2025-02-26 14:39:15.614,-1199.0,1545.0,-235.0,78.0,7.0,-16.0,160,106,129,136,121
2025-02-26 14:39:15.619,-1277.0,1923.0,-146.0,104.0,17.0,-69.0,159,105,126,136,120
2025-02-26 14:39:15.623,-1274.0,2250.0,-78.0,163.0,29.0,-149.0,160,106,130,137,124
2025-02-26 14:39:15.631,-1055.0,2426.0,-48.0,228.0,36.0,-243.0,152,101,124,132,117
2025-02-26 14:39:15.635,-912.0,2375.0,0.0,291.0,48.0,-336.0,153,99,124,131,116
2025-02-26 14:39:15.640,-621.0,2279.0,-30.0,342.0,64.0,-379.0,161,107,132,138,122
2025-02-26 14:39:15.647,-350.0,2033.0,-31.0,373.0,73.0,-451.0,161,108,133,140,124
2025-02-26 14:39:15.652,11.0,1745.0,12.0,403.0,62.0,-514.0,158,106,132,139,123
2025-02-26 14:39:15.656,452.0,1471.0,83.0,410.0,39.0,-567.0,157,105,132,137,121
2025-02-26 14:39:15.663,678.0,1044.0,185.0,434.0,32.0,-623.0,157,103,131,136,120
2025-02-26 14:39:15.668,1084.0,476.0,310.0,446.0,17.0,-653.0,158,104,134,137,121
2025-02-26 14:39:15.673,1590.0,15.0,531.0,447.0,5.0,-687.0,160,108,137,140,125
2025-02-26 14:39:15.677,1852.0,-953.0,708.0,448.0,5.0,-658.0,163,109,142,140,128
2025-02-26 14:39:15.685,2512.0,-2304.0,1116.0,449.0,-13.0,-582.0,162,108,140,141,127
2025-02-26 14:39:15.689,2850.0,-4084.0,1379.0,464.0,-46.0,-473.0,163,109,140,141,126
2025-02-26 14:39:15.697,3028.0,-5908.0,1849.0,496.0,-72.0,-335.0,159,105,137,136,124
2025-02-26 14:39:15.701,3364.0,-7395.0,2367.0,497.0,-75.0,-176.0,162,109,137,140,128
2025-02-26 14:39:15.705,3480.0,-8022.0,2576.0,482.0,-42.0,-15.0,161,107,131,134,127
2025-02-26 14:39:15.713,3294.0,-7329.0,2473.0,418.0,47.0,135.0,158,103,133,125,122
2025-02-26 14:39:15.717,2535.0,-5324.0,2229.0,284.0,137.0,195.0,158,105,134,123,120
2025-02-26 14:39:15.725,1639.0,-4019.0,2077.0,93.0,162.0,261.0,167,120,147,134,129
2025-02-26 14:39:15.729,676.0,-1793.0,1647.0,-123.0,106.0,252.0,216,167,199,183,177
2025-02-26 14:39:15.734,342.0,-534.0,1631.0,-326.0,55.0,215.0,167,116,152,134,126
2025-02-26 14:39:15.742,33.0,-64.0,1135.0,-448.0,0.0,172.0,178,130,163,148,139
2025-02-26 14:39:15.742,229.0,-437.0,665.0,-505.0,-35.0,133.0,148,97,126,117,107
2025-02-26 14:39:15.749,242.0,-1021.0,249.0,-555.0,-55.0,113.0,146,96,125,116,107
2025-02-26 14:39:15.754,145.0,-1512.0,-30.0,-560.0,-94.0,113.0,167,117,147,138,128
2025-02-26 14:39:15.754,34.0,-1754.0,-173.0,-507.0,-129.0,111.0,165,117,142,139,128
2025-02-26 14:39:15.754,28.0,-2013.0,-197.0,-425.0,-128.0,119.0,171,124,141,148,136
2025-02-26 14:39:15.775,78.0,-2170.0,-202.0,-337.0,-107.0,115.0,164,115,131,140,125
2025-02-26 14:39:15.778,170.0,-2121.0,-204.0,-275.0,-61.0,117.0,164,115,132,140,126
2025-02-26 14:39:15.783,140.0,-1974.0,-211.0,-229.0,-4.0,124.0,184,135,157,160,146
2025-02-26 14:39:15.790,110.0,-1867.0,-141.0,-204.0,13.0,131.0,184,136,157,160,146
2025-02-26 14:39:15.790,72.0,-1725.0,-86.0,-157.0,7.0,144.0,180,133,155,158,145
2025-02-26 14:39:15.799,81.0,-1578.0,-18.0,-120.0,7.0,163.0,184,137,159,161,150
2025-02-26 14:39:15.803,135.0,-1527.0,6.0,-95.0,17.0,170.0,188,141,163,166,153
2025-02-26 14:39:15.811,111.0,-1386.0,35.0,-88.0,25.0,186.0,188,140,161,165,154
2025-02-26 14:39:15.815,104.0,-1239.0,114.0,-83.0,21.0,201.0,187,137,158,164,153
2025-02-26 14:39:15.823,107.0,-1128.0,166.0,-65.0,15.0,211.0,186,138,157,164,152
2025-02-26 14:39:15.824,89.0,-888.0,151.0,-60.0,16.0,219.0,185,134,155,162,152
2025-02-26 14:39:15.832,120.0,-945.0,83.0,-54.0,27.0,221.0,187,138,157,164,152
2025-02-26 14:39:15.836,53.0,-709.0,117.0,-60.0,22.0,226.0,192,141,165,171,160
2025-02-26 14:39:15.844,0.0,-523.0,49.0,-55.0,24.0,220.0,195,144,170,173,163
2025-02-26 14:39:15.845,31.0,-457.0,37.0,-49.0,20.0,211.0,194,143,170,172,163
2025-02-26 14:39:15.845,-131.0,-368.0,6.0,-52.0,24.0,206.0,207,151,177,174,169
2025-02-26 14:39:15.860,-156.0,-276.0,10.0,-61.0,32.0,196.0,201,153,179,183,172
2025-02-26 14:39:15.864,-225.0,-199.0,-21.0,-68.0,36.0,187.0,200,149,172,180,168
2025-02-26 14:39:15.869,-265.0,-157.0,7.0,-92.0,37.0,181.0,196,146,167,176,163
2025-02-26 14:39:15.873,-322.0,-159.0,-122.0,-117.0,34.0,168.0,195,145,168,174,163
2025-02-26 14:39:15.875,-417.0,-103.0,-74.0,-133.0,9.0,162.0,199,148,171,180,168
2025-02-26 14:39:15.885,-393.0,-116.0,-103.0,-147.0,13.0,155.0,202,150,176,182,170
2025-02-26 14:39:15.888,-429.0,-90.0,-121.0,-154.0,19.0,151.0,193,140,167,172,160
2025-02-26 14:39:15.897,-480.0,-102.0,-224.0,-152.0,18.0,145.0,186,133,158,163,152
2025-02-26 14:39:15.900,-500.0,-145.0,-217.0,-153.0,21.0,140.0,184,132,160,162,151
2025-02-26 14:39:15.903,-535.0,-25.0,-271.0,-165.0,18.0,135.0,194,142,170,171,161
2025-02-26 14:39:15.914,-521.0,5.0,-257.0,-167.0,22.0,123.0,192,139,172,169,157
2025-02-26 14:39:15.918,-501.0,30.0,-321.0,-166.0,28.0,117.0,185,131,158,160,149
2025-02-26 14:39:15.925,-502.0,58.0,-311.0,-154.0,31.0,102.0,189,137,163,165,155
2025-02-26 14:39:15.930,-534.0,26.0,-352.0,-144.0,33.0,88.0,187,134,158,164,152
2025-02-26 14:39:15.934,-501.0,-1.0,-386.0,-137.0,29.0,77.0,188,133,156,161,151
2025-02-26 14:39:15.939,-513.0,55.0,-376.0,-133.0,28.0,67.0,188,135,156,165,154
2025-02-26 14:39:15.946,-525.0,43.0,-405.0,-119.0,26.0,64.0,183,128,149,158,147
2025-02-26 14:39:15.950,-483.0,-11.0,-393.0,-111.0,26.0,59.0,194,137,158,169,156
2025-02-26 14:39:15.955,-504.0,11.0,-445.0,-97.0,27.0,56.0,196,138,158,167,156
2025-02-26 14:39:15.963,-484.0,66.0,-434.0,-88.0,20.0,52.0,200,138,160,171,158
2025-02-26 14:39:15.967,-499.0,97.0,-484.0,-77.0,15.0,46.0,193,133,154,164,153
2025-02-26 14:39:15.971,-554.0,112.0,-576.0,-61.0,1.0,43.0,200,137,158,168,156
2025-02-26 14:39:15.975,-668.0,164.0,-599.0,-42.0,-18.0,39.0,205,142,162,171,159
2025-02-26 14:39:15.984,-719.0,308.0,-591.0,-32.0,-39.0,28.0,206,142,161,172,163
2025-02-26 14:39:15.988,-803.0,445.0,-586.0,-13.0,-63.0,9.0,205,138,156,168,157
2025-02-26 14:39:15.992,-917.0,643.0,-582.0,6.0,-75.0,-18.0,200,134,157,164,152
2025-02-26 14:39:16.000,-1110.0,715.0,-464.0,33.0,-93.0,-33.0,202,136,155,168,153
2025-02-26 14:39:16.004,-1100.0,947.0,-349.0,58.0,-108.0,-70.0,210,143,163,173,161
2025-02-26 14:39:16.009,-957.0,1115.0,-292.0,89.0,-119.0,-114.0,213,141,162,171,158
2025-02-26 14:39:16.016,-1040.0,1365.0,-126.0,125.0,-126.0,-158.0,211,140,163,171,159
2025-02-26 14:39:16.020,-1097.0,1576.0,-109.0,163.0,-128.0,-197.0,218,146,166,174,162
2025-02-26 14:39:16.029,-955.0,1609.0,124.0,179.0,-121.0,-237.0,216,142,165,173,158
2025-02-26 14:39:16.033,-847.0,1700.0,328.0,213.0,-100.0,-276.0,212,140,162,168,155
2025-02-26 14:39:16.037,-512.0,1641.0,429.0,253.0,-82.0,-324.0,216,137,164,167,156
2025-02-26 14:39:16.045,-360.0,1561.0,472.0,297.0,-69.0,-382.0,213,136,163,165,153
2025-02-26 14:39:16.049,-160.0,1392.0,395.0,341.0,-44.0,-428.0,211,133,160,164,151
2025-02-26 14:39:16.054,86.0,1316.0,321.0,378.0,-45.0,-452.0,211,132,159,163,150
2025-02-26 14:39:16.061,289.0,1251.0,201.0,413.0,-53.0,-502.0,220,141,168,172,157
2025-02-26 14:39:16.065,558.0,933.0,163.0,426.0,-52.0,-550.0,217,137,164,168,155
2025-02-26 14:39:16.070,839.0,517.0,51.0,426.0,-45.0,-581.0,215,133,161,166,150
2025-02-26 14:39:16.078,1113.0,38.0,-36.0,426.0,-48.0,-599.0,212,129,157,158,147
2025-02-26 14:39:16.082,1239.0,-519.0,28.0,406.0,-52.0,-587.0,214,128,157,162,148
2025-02-26 14:39:16.086,1525.0,-806.0,205.0,401.0,-62.0,-568.0,214,129,155,161,148
2025-02-26 14:39:16.094,1691.0,-1602.0,376.0,409.0,-89.0,-517.0,220,135,160,165,153
2025-02-26 14:39:16.098,2000.0,-2564.0,564.0,409.0,-111.0,-478.0,221,136,159,165,155
2025-02-26 14:39:16.106,2346.0,-3377.0,662.0,413.0,-138.0,-445.0,222,137,159,164,155
2025-02-26 14:39:16.108,2656.0,-4170.0,789.0,434.0,-158.0,-401.0,223,136,159,163,155
2025-02-26 14:39:16.115,2879.0,-5453.0,1104.0,440.0,-108.0,-292.0,224,136,158,157,153
2025-02-26 14:39:16.120,2759.0,-6608.0,1598.0,427.0,-13.0,-119.0,227,139,162,158,154
2025-02-26 14:39:16.127,2701.0,-6399.0,1978.0,414.0,71.0,39.0,248,163,187,180,174
2025-02-26 14:39:16.132,2422.0,-4825.0,2532.0,371.0,132.0,141.0,258,174,203,190,182
2025-02-26 14:39:16.139,1969.0,-3349.0,2173.0,301.0,188.0,203.0,229,144,175,161,150
2025-02-26 14:39:16.144,1730.0,-2058.0,2214.0,138.0,200.0,209.0,230,144,176,164,153
2025-02-26 14:39:16.151,1483.0,-1347.0,1699.0,16.0,189.0,190.0,201,109,134,128,115
2025-02-26 14:39:16.156,903.0,-1305.0,1445.0,-110.0,155.0,189.0,183,92,111,111,98
2025-02-26 14:39:16.160,693.0,-1334.0,910.0,-218.0,100.0,187.0,194,102,121,121,109
2025-02-26 14:39:16.168,506.0,-1402.0,539.0,-256.0,47.0,193.0,193,101,122,120,108
2025-02-26 14:39:16.172,350.0,-1669.0,477.0,-278.0,-15.0,187.0,180,89,109,107,95
2025-02-26 14:39:16.176,202.0,-1700.0,251.0,-265.0,-35.0,186.0,178,84,106,104,92
2025-02-26 14:39:16.184,274.0,-1824.0,261.0,-211.0,-41.0,178.0,178,84,106,103,91
2025-02-26 14:39:16.187,286.0,-1826.0,301.0,-191.0,-51.0,184.0,175,83,104,103,90
2025-02-26 14:39:16.193,209.0,-1765.0,365.0,-192.0,-41.0,191.0,176,84,106,104,92
2025-02-26 14:39:16.200,231.0,-1710.0,417.0,-180.0,-33.0,199.0,178,84,108,107,94
2025-02-26 14:39:16.204,305.0,-1585.0,471.0,-172.0,-29.0,205.0,179,86,110,109,95
2025-02-26 14:39:16.209,307.0,-1439.0,572.0,-165.0,-15.0,213.0,178,85,102,108,95
2025-02-26 14:39:16.217,361.0,-1209.0,578.0,-157.0,-6.0,217.0,176,83,97,106,93
2025-02-26 14:39:16.221,306.0,-1063.0,593.0,-148.0,16.0,219.0,177,84,100,109,94
2025-02-26 14:39:16.223,314.0,-1005.0,644.0,-138.0,33.0,224.0,179,85,102,110,98
2025-02-26 14:39:16.229,179.0,-748.0,647.0,-143.0,51.0,227.0,179,86,104,111,96
2025-02-26 14:39:16.235,142.0,-607.0,613.0,-140.0,61.0,225.0,176,84,103,109,96
2025-02-26 14:39:16.242,130.0,-508.0,580.0,-149.0,64.0,224.0,175,84,105,110,95
2025-02-26 14:39:16.246,2.0,-411.0,577.0,-155.0,54.0,222.0,179,86,106,111,97
2025-02-26 14:39:16.250,-43.0,-254.0,558.0,-168.0,39.0,212.0,180,85,104,110,96
2025-02-26 14:39:16.258,-118.0,-280.0,537.0,-176.0,37.0,201.0,177,84,105,110,97
2025-02-26 14:39:16.262,-127.0,-109.0,413.0,-192.0,47.0,191.0,172,78,96,101,90
2025-02-26 14:39:16.266,-200.0,-85.0,243.0,-194.0,72.0,187.0,170,76,97,100,89
2025-02-26 14:39:16.274,-252.0,-100.0,257.0,-208.0,76.0,177.0,175,83,104,105,93
2025-02-26 14:39:16.278,-380.0,-44.0,196.0,-212.0,65.0,166.0,172,80,102,104,92
2025-02-26 14:39:16.283,-425.0,-78.0,121.0,-211.0,59.0,156.0,170,77,104,102,89
2025-02-26 14:39:16.287,-438.0,-87.0,86.0,-204.0,49.0,151.0,173,79,102,104,91
2025-02-26 14:39:16.295,-468.0,-68.0,49.0,-192.0,45.0,142.0,185,94,117,118,106
2025-02-26 14:39:16.299,-513.0,-121.0,20.0,-185.0,42.0,134.0,185,95,116,118,107
2025-02-26 14:39:16.303,-554.0,-119.0,22.0,-176.0,39.0,128.0,183,91,111,116,104
2025-02-26 14:39:16.309,-555.0,-34.0,-84.0,-167.0,42.0,125.0,181,89,109,114,101
2025-02-26 14:39:16.315,-592.0,-68.0,-104.0,-161.0,44.0,123.0,183,93,111,118,105
2025-02-26 14:39:16.320,-654.0,-67.0,-153.0,-158.0,44.0,116.0,190,100,117,123,111
2025-02-26 14:39:16.326,-696.0,-18.0,-235.0,-151.0,53.0,110.0,186,95,112,120,106
2025-02-26 14:39:16.332,-691.0,-2.0,-306.0,-143.0,55.0,99.0,186,96,112,120,108
2025-02-26 14:39:16.336,-715.0,35.0,-343.0,-131.0,51.0,84.0,189,99,117,124,110
2025-02-26 14:39:16.340,-727.0,57.0,-400.0,-113.0,40.0,76.0,195,105,120,128,115
2025-02-26 14:39:16.348,-725.0,74.0,-430.0,-90.0,32.0,61.0,194,104,121,129,117
2025-02-26 14:39:16.351,-730.0,83.0,-441.0,-79.0,27.0,46.0,203,113,130,136,120
2025-02-26 14:39:16.356,-737.0,102.0,-446.0,-58.0,21.0,33.0,165,74,92,99,85
2025-02-26 14:39:16.360,-720.0,97.0,-447.0,-39.0,12.0,27.0,166,74,92,100,86
2025-02-26 14:39:16.368,-717.0,105.0,-432.0,-22.0,1.0,18.0,167,72,89,99,84
2025-02-26 14:39:16.373,-700.0,112.0,-410.0,-15.0,-9.0,7.0,167,77,93,101,86
2025-02-26 14:39:16.374,-712.0,145.0,-412.0,-1.0,-13.0,2.0,166,73,92,101,84
2025-02-26 14:39:16.381,-697.0,150.0,-393.0,14.0,-19.0,-10.0,169,78,94,102,88
2025-02-26 14:39:16.389,-700.0,205.0,-386.0,22.0,-30.0,-23.0,168,76,93,100,87
2025-02-26 14:39:16.393,-719.0,270.0,-357.0,44.0,-36.0,-37.0,166,73,90,97,84
2025-02-26 14:39:16.397,-714.0,300.0,-309.0,64.0,-44.0,-48.0,167,75,93,100,85
2025-02-26 14:39:16.401,-677.0,426.0,-260.0,87.0,-45.0,-68.0,170,81,98,105,90
2025-02-26 14:39:16.409,-676.0,440.0,-189.0,105.0,-43.0,-94.0,167,77,96,98,88
2025-02-26 14:39:16.414,-702.0,508.0,-131.0,136.0,-40.0,-126.0,166,77,94,100,83
2025-02-26 14:39:16.417,-684.0,507.0,-48.0,173.0,-29.0,-144.0,170,78,99,102,88
2025-02-26 14:39:16.422,-625.0,524.0,-4.0,200.0,-19.0,-179.0,170,76,98,104,89
2025-02-26 14:39:16.430,-624.0,500.0,56.0,214.0,-3.0,-218.0,172,81,101,107,92
2025-02-26 14:39:16.434,-577.0,522.0,26.0,253.0,0.0,-261.0,171,78,101,106,89
2025-02-26 14:39:16.438,-488.0,520.0,14.0,280.0,7.0,-282.0,177,85,106,111,95
2025-02-26 14:39:16.443,-478.0,435.0,-23.0,292.0,18.0,-314.0,176,79,103,106,92
2025-02-26 14:39:16.450,-417.0,284.0,-120.0,310.0,26.0,-331.0,169,75,98,103,89
2025-02-26 14:39:16.452,-385.0,134.0,-194.0,327.0,26.0,-341.0,172,79,102,107,94
2025-02-26 14:39:16.459,-259.0,92.0,-177.0,339.0,13.0,-346.0,179,87,109,115,100
2025-02-26 14:39:16.466,-105.0,13.0,-126.0,338.0,-13.0,-357.0,174,81,104,111,96
2025-02-26 14:39:16.470,86.0,-50.0,-61.0,338.0,-41.0,-367.0,173,81,102,108,94
2025-02-26 14:39:16.470,184.0,-209.0,39.0,327.0,-55.0,-378.0,172,78,100,107,92
2025-02-26 14:39:16.480,395.0,-307.0,138.0,313.0,-83.0,-384.0,171,80,100,109,93
2025-02-26 14:39:16.482,615.0,-616.0,199.0,299.0,-113.0,-395.0,174,81,103,110,96
2025-02-26 14:39:16.491,801.0,-1046.0,355.0,283.0,-146.0,-398.0,174,81,100,108,94
2025-02-26 14:39:16.496,989.0,-1521.0,499.0,276.0,-173.0,-399.0,173,80,100,106,93
2025-02-26 14:39:16.503,1233.0,-1904.0,628.0,260.0,-191.0,-392.0,168,77,96,104,92
2025-02-26 14:39:16.508,1440.0,-2587.0,606.0,272.0,-198.0,-353.0,182,90,110,116,104
2025-02-26 14:39:16.512,1547.0,-3245.0,1056.0,239.0,-220.0,-279.0,168,72,97,99,90
2025-02-26 14:39:16.520,1816.0,-3591.0,1669.0,250.0,-212.0,-234.0,166,69,92,92,80
2025-02-26 14:39:16.524,2008.0,-4944.0,2006.0,85.0,-112.0,-130.0,163,67,86,88,69
2025-02-26 14:39:16.528,2629.0,-3924.0,1915.0,165.0,-95.0,-49.0,168,71,89,92,75
2025-02-26 14:39:16.537,2380.0,-3933.0,2165.0,131.0,-57.0,14.0,158,63,81,84,68
2025-02-26 14:39:16.540,2289.0,-3324.0,2350.0,65.0,-19.0,79.0,172,75,97,97,84
2025-02-26 14:39:16.545,2093.0,-3107.0,2270.0,-33.0,70.0,111.0,164,68,91,90,77
2025-02-26 14:39:16.550,1864.0,-2637.0,1805.0,-87.0,107.0,149.0,170,73,95,94,83
2025-02-26 14:39:16.557,1458.0,-2224.0,1534.0,-125.0,120.0,180.0,161,65,87,87,75
2025-02-26 14:39:16.561,1149.0,-1798.0,1237.0,-220.0,126.0,203.0,161,65,84,89,75
2025-02-26 14:39:16.565,977.0,-1761.0,957.0,-261.0,120.0,204.0,156,61,81,85,72
2025-02-26 14:39:16.573,765.0,-1662.0,529.0,-277.0,76.0,202.0,155,60,78,82,69
2025-02-26 14:39:16.577,556.0,-1631.0,412.0,-271.0,31.0,198.0,155,58,75,83,69
2025-02-26 14:39:16.581,436.0,-1588.0,208.0,-269.0,25.0,198.0,153,59,73,83,69
2025-02-26 14:39:16.585,318.0,-1589.0,76.0,-263.0,21.0,196.0,156,57,70,83,69
2025-02-26 14:39:16.598,184.0,-1582.0,-4.0,-259.0,10.0,195.0,154,65,74,84,70
2025-02-26 14:39:16.602,92.0,-1631.0,-6.0,-255.0,-10.0,196.0,152,58,73,82,70
2025-02-26 14:39:16.603,86.0,-1554.0,15.0,-251.0,-16.0,202.0,155,59,77,82,71
2025-02-26 14:39:16.607,99.0,-1527.0,108.0,-233.0,-29.0,205.0,152,57,76,84,69
2025-02-26 14:39:16.614,199.0,-1379.0,166.0,-235.0,-35.0,215.0,153,58,74,81,69
2025-02-26 14:39:16.618,245.0,-1201.0,251.0,-235.0,-28.0,227.0,153,57,77,83,70
2025-02-26 14:39:16.621,216.0,-1056.0,301.0,-232.0,-24.0,235.0,156,55,73,80,67
2025-02-26 14:39:16.626,155.0,-936.0,247.0,-226.0,-18.0,240.0,150,54,72,82,66
2025-02-26 14:39:16.634,50.0,-896.0,198.0,-214.0,-9.0,248.0,150,56,73,80,65
2025-02-26 14:39:16.639,-29.0,-772.0,159.0,-211.0,-8.0,255.0,152,53,73,80,65
2025-02-26 14:39:16.643,-92.0,-676.0,132.0,-203.0,-7.0,256.0,152,54,73,81,65
2025-02-26 14:39:16.647,-177.0,-626.0,120.0,-181.0,-7.0,254.0,150,54,71,81,66
2025-02-26 14:39:16.655,-284.0,-529.0,125.0,-152.0,-10.0,249.0,148,53,72,79,65
2025-02-26 14:39:16.658,-277.0,-459.0,151.0,-147.0,-9.0,242.0,149,51,73,80,67
2025-02-26 14:39:16.658,-272.0,-345.0,163.0,-137.0,-6.0,235.0,149,53,74,78,66
2025-02-26 14:39:16.668,-255.0,-340.0,166.0,-137.0,10.0,231.0,149,53,75,81,67
2025-02-26 14:39:16.676,-309.0,-254.0,200.0,-144.0,37.0,225.0,150,53,73,78,66
2025-02-26 14:39:16.680,-369.0,-189.0,166.0,-147.0,61.0,217.0,148,51,73,79,66
2025-02-26 14:39:16.684,-350.0,-239.0,229.0,-156.0,74.0,212.0,149,52,76,78,65
2025-02-26 14:39:16.688,-448.0,-192.0,230.0,-148.0,86.0,208.0,149,52,74,78,65
2025-02-26 14:39:16.695,-475.0,-145.0,257.0,-136.0,91.0,200.0,148,51,74,79,64
2025-02-26 14:39:16.700,-463.0,-87.0,171.0,-126.0,90.0,191.0,148,53,73,79,67
2025-02-26 14:39:16.704,-437.0,-127.0,136.0,-121.0,92.0,185.0,148,51,72,79,64
2025-02-26 14:39:16.708,-500.0,-36.0,51.0,-104.0,88.0,177.0,146,53,74,79,66
2025-02-26 14:39:16.716,-482.0,-51.0,38.0,-107.0,91.0,168.0,148,52,73,80,67
2025-02-26 14:39:16.720,-530.0,-117.0,-112.0,-105.0,91.0,160.0,147,53,75,80,65
2025-02-26 14:39:16.725,-640.0,-97.0,-162.0,-108.0,85.0,154.0,146,54,74,80,66
2025-02-26 14:39:16.726,-677.0,-79.0,-240.0,-112.0,73.0,145.0,147,52,73,79,64
2025-02-26 14:39:16.737,-716.0,-82.0,-277.0,-116.0,59.0,133.0,146,53,72,80,66
2025-02-26 14:39:16.742,-732.0,-76.0,-304.0,-117.0,52.0,119.0,149,52,72,80,66
2025-02-26 14:39:16.746,-742.0,-66.0,-323.0,-113.0,41.0,108.0,147,52,72,81,68
2025-02-26 14:39:16.750,-738.0,-329.0,-483.0,-96.0,27.0,105.0,146,53,73,80,67
2025-02-26 14:39:16.757,-692.0,-138.0,-316.0,-95.0,18.0,83.0,147,53,72,81,68
2025-02-26 14:39:16.761,-660.0,-51.0,-331.0,-87.0,3.0,75.0,146,53,73,82,70
2025-02-26 14:39:16.766,-572.0,-79.0,-315.0,-79.0,-9.0,58.0,147,55,75,84,70
2025-02-26 14:39:16.770,-566.0,-137.0,-426.0,-86.0,-20.0,46.0,147,56,74,85,72
2025-02-26 14:39:16.778,-565.0,-173.0,-319.0,-76.0,-19.0,43.0,145,55,73,84,72
2025-02-26 14:39:16.781,-539.0,-205.0,-6.0,-45.0,8.0,44.0,146,57,76,85,75
2025-02-26 14:39:16.787,-615.0,-200.0,-152.0,-29.0,16.0,47.0,146,58,75,85,76
2025-02-26 14:39:16.791,-533.0,-127.0,-125.0,-8.0,14.0,43.0,146,60,76,89,78
2025-02-26 14:39:16.792,-408.0,-120.0,-101.0,29.0,25.0,40.0,146,60,76,90,81
2025-02-26 14:39:16.802,-380.0,-92.0,-240.0,48.0,15.0,26.0,145,62,78,92,84
2025-02-26 14:39:16.804,-394.0,13.0,-305.0,72.0,8.0,9.0,146,64,79,93,84
2025-02-26 14:39:16.811,-443.0,124.0,-394.0,107.0,-21.0,-3.0,146,67,80,93,87
2025-02-26 14:39:16.815,-561.0,279.0,-355.0,121.0,-41.0,-24.0,146,70,81,93,89
2025-02-26 14:39:16.817,-592.0,480.0,-545.0,160.0,-57.0,-55.0,145,72,84,96,92
2025-02-26 14:39:16.827,-765.0,652.0,-690.0,197.0,-97.0,-66.0,146,75,86,95,95
2025-02-26 14:39:16.832,-1018.0,927.0,-703.0,228.0,-114.0,-83.0,145,78,89,96,97
2025-02-26 14:39:16.835,-1195.0,1180.0,-692.0,246.0,-101.0,-104.0,146,83,91,97,99
2025-02-26 14:39:16.843,-1256.0,1319.0,-805.0,261.0,-88.0,-142.0,146,88,94,98,103
2025-02-26 14:39:16.846,-1233.0,1436.0,-730.0,259.0,-87.0,-200.0,146,92,97,101,105
2025-02-26 14:39:16.852,-1025.0,1489.0,-751.0,268.0,-111.0,-272.0,146,96,99,103,105
2025-02-26 14:39:16.860,-906.0,1603.0,-768.0,283.0,-158.0,-309.0,145,99,100,104,107
2025-02-26 14:39:16.865,-727.0,1541.0,-480.0,296.0,-176.0,-357.0,147,102,106,107,109
2025-02-26 14:39:16.872,-460.0,1319.0,-211.0,289.0,-159.0,-396.0,146,105,107,108,110
2025-02-26 14:39:16.877,-99.0,1102.0,-219.0,286.0,-163.0,-438.0,146,106,108,109,111
2025-02-26 14:39:16.881,187.0,662.0,-190.0,294.0,-192.0,-466.0,147,108,109,111,109
2025-02-26 14:39:16.888,433.0,231.0,4.0,298.0,-201.0,-480.0,146,110,110,111,113
2025-02-26 14:39:16.893,746.0,-163.0,-24.0,299.0,-216.0,-481.0,146,114,111,113,115
2025-02-26 14:39:16.895,860.0,-482.0,66.0,292.0,-222.0,-472.0,146,113,112,113,114
2025-02-26 14:39:16.906,984.0,-819.0,397.0,304.0,-223.0,-461.0,148,115,112,113,116
2025-02-26 14:39:16.909,1281.0,-901.0,451.0,307.0,-231.0,-458.0,148,115,114,114,115
2025-02-26 14:39:16.914,1703.0,-1421.0,582.0,300.0,-247.0,-445.0,148,117,115,114,117
2025-02-26 14:39:16.921,1963.0,-2032.0,865.0,266.0,-235.0,-432.0,148,118,114,114,116
2025-02-26 14:39:16.925,2023.0,-2667.0,609.0,221.0,-233.0,-410.0,149,119,113,114,117
2025-02-26 14:39:16.931,2062.0,-3280.0,879.0,170.0,-239.0,-366.0,147,119,114,115,117
2025-02-26 14:39:16.936,2301.0,-4087.0,659.0,78.0,-222.0,-293.0,146,121,114,114,117
2025-02-26 14:39:16.936,2361.0,-4489.0,1545.0,-13.0,-98.0,-180.0,145,117,115,116,117
2025-02-26 14:39:16.950,2135.0,-4614.0,1881.0,-45.0,25.0,-47.0,148,120,115,114,117
2025-02-26 14:39:16.955,1780.0,-3892.0,1756.0,-87.0,79.0,55.0,149,121,115,113,116
2025-02-26 14:39:16.962,1461.0,-3052.0,1786.0,-79.0,82.0,112.0,150,122,116,113,117
2025-02-26 14:39:16.967,1487.0,-2678.0,2303.0,-93.0,83.0,161.0,149,120,116,113,116
2025-02-26 14:39:16.967,1391.0,-2537.0,2198.0,-105.0,67.0,185.0,148,120,116,112,117
2025-02-26 14:39:16.978,1079.0,-2232.0,1527.0,-130.0,49.0,226.0,147,119,116,112,117
2025-02-26 14:39:16.983,742.0,-2024.0,507.0,-236.0,21.0,252.0,150,120,120,113,117
2025-02-26 14:39:16.987,639.0,-1669.0,512.0,-266.0,-48.0,250.0,147,120,118,113,118
2025-02-26 14:39:16.994,731.0,-1553.0,1313.0,-211.0,-17.0,242.0,148,120,119,114,117
2025-02-26 14:39:16.998,511.0,-1376.0,702.0,-211.0,-56.0,215.0,146,119,117,113,117
2025-02-26 14:39:17.007,486.0,-1361.0,255.0,-206.0,-124.0,198.0,146,120,116,115,118
2025-02-26 14:39:17.010,347.0,-1323.0,92.0,-111.0,-194.0,185.0,146,119,116,113,117
2025-02-26 14:39:17.016,247.0,-1325.0,70.0,-95.0,-197.0,204.0,146,119,117,114,117
2025-02-26 14:39:17.024,13.0,-1336.0,-206.0,-22.0,-174.0,212.0,146,121,117,115,118
2025-02-26 14:39:17.028,-164.0,-1355.0,-41.0,-79.0,-48.0,203.0,145,121,117,115,117
2025-02-26 14:39:17.032,-63.0,-1608.0,-184.0,-123.0,15.0,183.0,145,120,116,115,118
2025-02-26 14:39:17.040,94.0,-1621.0,-4.0,-112.0,8.0,168.0,145,121,118,116,117
2025-02-26 14:39:17.045,181.0,-1549.0,416.0,-90.0,10.0,161.0,147,120,117,115,117
2025-02-26 14:39:17.048,144.0,-1270.0,510.0,-58.0,9.0,158.0,145,119,117,114,118
2025-02-26 14:39:17.053,100.0,-1052.0,305.0,-14.0,1.0,166.0,144,120,116,115,118
2025-02-26 14:39:17.059,71.0,-989.0,221.0,-29.0,8.0,174.0,145,121,118,116,119
2025-02-26 14:39:17.065,15.0,-844.0,209.0,-37.0,18.0,186.0,145,120,117,115,119
2025-02-26 14:39:17.069,-108.0,-837.0,87.0,-31.0,15.0,199.0,144,120,118,116,118
2025-02-26 14:39:17.077,-124.0,-848.0,33.0,-16.0,6.0,209.0,146,119,114,116,118
2025-02-26 14:39:17.081,-118.0,-865.0,221.0,-21.0,16.0,212.0,145,122,118,115,119
2025-02-26 14:39:17.085,-58.0,-715.0,397.0,-22.0,52.0,212.0,145,121,117,116,119
2025-02-26 14:39:17.090,-64.0,-662.0,409.0,-6.0,78.0,208.0,146,121,117,115,119
2025-02-26 14:39:17.098,-101.0,-733.0,328.0,-11.0,94.0,203.0,144,121,116,117,119
2025-02-26 14:39:17.102,-108.0,-690.0,222.0,-19.0,98.0,196.0,145,123,116,116,120
2025-02-26 14:39:17.106,-111.0,-624.0,89.0,-36.0,85.0,192.0,144,121,117,117,119
2025-02-26 14:39:17.114,-170.0,-521.0,182.0,-56.0,87.0,180.0,144,120,115,116,119
2025-02-26 14:39:17.118,-258.0,-403.0,177.0,-47.0,97.0,167.0,146,122,116,118,118
2025-02-26 14:39:17.123,-385.0,-361.0,492.0,-50.0,119.0,156.0,143,122,117,115,119
2025-02-26 14:39:17.131,-402.0,-337.0,58.0,-16.0,110.0,151.0,144,122,117,118,119
2025-02-26 14:39:17.134,-459.0,-253.0,163.0,3.0,111.0,143.0,144,121,117,116,120
2025-02-26 14:39:17.139,-512.0,-208.0,162.0,7.0,116.0,141.0,143,122,117,119,119
2025-02-26 14:39:17.147,-545.0,-144.0,100.0,8.0,117.0,136.0,145,121,115,117,118
2025-02-26 14:39:17.151,-628.0,-38.0,-44.0,10.0,106.0,128.0,148,121,116,117,119
2025-02-26 14:39:17.155,-717.0,34.0,-94.0,6.0,101.0,120.0,144,120,115,117,118
2025-02-26 14:39:17.160,-741.0,94.0,-149.0,8.0,98.0,111.0,144,122,116,117,118
2025-02-26 14:39:17.167,-755.0,119.0,-199.0,4.0,94.0,104.0,144,122,117,117,120
2025-02-26 14:39:17.171,-745.0,160.0,-193.0,11.0,89.0,88.0,144,121,115,117,119
2025-02-26 14:39:17.175,-684.0,68.0,-146.0,4.0,71.0,70.0,144,121,116,118,119
2025-02-26 14:39:17.180,-791.0,-35.0,-23.0,-8.0,83.0,62.0,144,120,117,117,119
2025-02-26 14:39:17.187,-753.0,47.0,-497.0,-7.0,66.0,42.0,145,121,117,118,119
2025-02-26 14:39:17.192,-889.0,-57.0,-513.0,-7.0,25.0,28.0,143,121,117,119,119
2025-02-26 14:39:17.196,-814.0,-133.0,-223.0,-47.0,28.0,15.0,145,120,115,117,118
2025-02-26 14:39:17.204,-749.0,20.0,-325.0,-31.0,21.0,2.0,144,121,116,122,119
2025-02-26 14:39:17.208,-823.0,-116.0,-157.0,-23.0,-3.0,0.0,143,122,116,117,119
2025-02-26 14:39:17.212,-728.0,-74.0,-68.0,-12.0,9.0,-9.0,143,122,116,118,118
2025-02-26 14:39:17.216,-656.0,11.0,-123.0,-10.0,22.0,-18.0,144,121,115,118,119
2025-02-26 14:39:17.225,-705.0,11.0,-268.0,-8.0,13.0,-20.0,143,118,117,118,119
2025-02-26 14:39:17.229,-867.0,12.0,-125.0,13.0,-3.0,-22.0,144,121,115,117,119
2025-02-26 14:39:17.233,-734.0,68.0,-109.0,22.0,-2.0,-29.0,144,119,116,120,119
2025-02-26 14:39:17.240,-802.0,117.0,-165.0,20.0,3.0,-35.0,144,121,116,118,119
2025-02-26 14:39:17.244,-918.0,237.0,-239.0,36.0,1.0,-44.0,144,121,116,118,119
2025-02-26 14:39:17.249,-908.0,329.0,-189.0,74.0,-11.0,-51.0,144,121,114,118,118
2025-02-26 14:39:17.254,-909.0,382.0,-107.0,109.0,-12.0,-71.0,143,121,116,118,119
2025-02-26 14:39:17.262,-912.0,479.0,-135.0,132.0,-16.0,-95.0,144,121,118,119,120
2025-02-26 14:39:17.266,-974.0,560.0,-190.0,160.0,-24.0,-125.0,144,121,116,119,120
2025-02-26 14:39:17.270,-961.0,654.0,-166.0,171.0,-26.0,-159.0,144,121,116,119,119
2025-02-26 14:39:17.278,-890.0,759.0,-228.0,187.0,-26.0,-197.0,144,120,115,119,120
2025-02-26 14:39:17.282,-862.0,815.0,-346.0,203.0,-32.0,-235.0,143,121,117,119,119
2025-02-26 14:39:17.290,-807.0,783.0,-364.0,224.0,-52.0,-273.0,142,121,116,118,119
2025-02-26 14:39:17.294,-683.0,763.0,-316.0,231.0,-61.0,-293.0,142,120,116,119,119
2025-02-26 14:39:17.298,-530.0,716.0,-341.0,220.0,-70.0,-332.0,144,121,115,118,120
2025-02-26 14:39:17.306,-370.0,585.0,-310.0,226.0,-91.0,-363.0,144,121,116,118,119
2025-02-26 14:39:17.308,-180.0,422.0,-169.0,239.0,-121.0,-388.0,144,121,114,119,119
2025-02-26 14:39:17.315,79.0,211.0,-119.0,244.0,-159.0,-407.0,146,120,116,120,119
2025-02-26 14:39:17.321,385.0,-65.0,5.0,242.0,-189.0,-419.0,144,121,116,119,120
2025-02-26 14:39:17.327,543.0,-366.0,33.0,226.0,-206.0,-420.0,145,121,117,120,118
2025-02-26 14:39:17.332,914.0,-871.0,167.0,214.0,-242.0,-412.0,145,122,116,119,119
2025-02-26 14:39:17.338,1359.0,-1179.0,412.0,189.0,-266.0,-408.0,147,121,116,115,118
2025-02-26 14:39:17.343,1787.0,-1955.0,701.0,141.0,-277.0,-399.0,148,119,116,119,119
2025-02-26 14:39:17.351,2089.0,-2974.0,1055.0,72.0,-290.0,-366.0,146,119,117,119,119
2025-02-26 14:39:17.356,2332.0,-3650.0,1395.0,-11.0,-284.0,-329.0,147,121,118,118,119
2025-02-26 14:39:17.360,2519.0,-4212.0,1382.0,-110.0,-276.0,-281.0,148,122,118,119,119
2025-02-26 14:39:17.368,2529.0,-4698.0,1498.0,-190.0,-223.0,-186.0,147,119,118,118,120
2025-02-26 14:39:17.372,2297.0,-4629.0,1931.0,-262.0,-132.0,-79.0,148,119,118,116,120
2025-02-26 14:39:17.380,2294.0,-3885.0,1674.0,-251.0,-52.0,30.0,148,120,118,118,120
2025-02-26 14:39:17.384,1912.0,-3645.0,1844.0,-226.0,34.0,141.0,150,119,118,118,119
2025-02-26 14:39:17.386,1576.0,-3119.0,1201.0,-220.0,50.0,232.0,148,117,119,118,119
2025-02-26 14:39:17.397,1464.0,-2399.0,934.0,-231.0,50.0,285.0,148,116,119,116,119
2025-02-26 14:39:17.398,1116.0,-2109.0,918.0,-288.0,30.0,308.0,149,117,116,117,120
2025-02-26 14:39:17.409,901.0,-1827.0,366.0,-278.0,-7.0,319.0,149,116,120,118,119
2025-02-26 14:39:17.410,795.0,-1504.0,977.0,-258.0,-9.0,319.0,147,114,117,116,119
2025-02-26 14:39:17.417,655.0,-1409.0,255.0,-183.0,-27.0,304.0,148,114,117,117,119
2025-02-26 14:39:17.425,460.0,-1362.0,-255.0,-113.0,-98.0,292.0,149,114,117,117,119
2025-02-26 14:39:17.428,199.0,-1417.0,-30.0,-23.0,-147.0,289.0,147,115,116,117,118
2025-02-26 14:39:17.433,-25.0,-1297.0,308.0,-21.0,-80.0,282.0,148,116,117,118,118
2025-02-26 14:39:17.441,-43.0,-1156.0,-119.0,-25.0,-18.0,247.0,146,114,115,118,118
2025-02-26 14:39:17.446,108.0,-1294.0,-527.0,-58.0,-6.0,202.0,147,115,116,118,118
2025-02-26 14:39:17.449,156.0,-1439.0,198.0,-51.0,5.0,174.0,148,115,117,117,117
2025-02-26 14:39:17.457,80.0,-1184.0,411.0,-18.0,20.0,160.0,148,115,116,119,117
2025-02-26 14:39:17.462,-115.0,-1151.0,131.0,28.0,3.0,147.0,148,116,116,117,117
2025-02-26 14:39:17.466,-174.0,-1142.0,-47.0,48.0,-15.0,147.0,147,116,117,118,117
2025-02-26 14:39:17.473,-129.0,-1058.0,140.0,44.0,9.0,157.0,148,116,115,118,117
2025-02-26 14:39:17.478,-88.0,-856.0,347.0,38.0,30.0,165.0,147,115,116,119,116
2025-02-26 14:39:17.483,-88.0,-757.0,410.0,29.0,83.0,171.0,149,115,116,118,116
2025-02-26 14:39:17.486,-63.0,-780.0,202.0,40.0,90.0,179.0,147,116,121,118,117
2025-02-26 14:39:17.494,-95.0,-929.0,181.0,3.0,83.0,191.0,145,114,115,120,117
2025-02-26 14:39:17.499,-64.0,-820.0,348.0,-16.0,99.0,200.0,146,115,115,120,116
2025-02-26 14:39:17.503,-55.0,-517.0,298.0,-31.0,104.0,197.0,147,116,115,118,117
2025-02-26 14:39:17.511,-53.0,-561.0,279.0,-64.0,117.0,195.0,148,116,116,116,114
2025-02-26 14:39:17.515,-133.0,-492.0,174.0,-72.0,133.0,192.0,145,114,115,120,116
2025-02-26 14:39:17.519,-213.0,-443.0,260.0,-70.0,144.0,183.0,147,117,116,120,117
2025-02-26 14:39:17.527,-280.0,-298.0,116.0,-76.0,131.0,173.0,148,115,114,119,118
2025-02-26 14:39:17.531,-327.0,-315.0,176.0,-73.0,127.0,162.0,147,115,114,120,117
2025-02-26 14:39:17.535,-390.0,-272.0,263.0,-63.0,125.0,153.0,147,112,113,120,117
2025-02-26 14:39:17.544,-459.0,-181.0,360.0,-51.0,129.0,148.0,146,112,117,119,116
2025-02-26 14:39:17.548,-485.0,-220.0,83.0,-23.0,108.0,143.0,148,110,111,119,117
2025-02-26 14:39:17.552,-551.0,-205.0,124.0,-9.0,110.0,133.0,146,113,111,118,114
2025-02-26 14:39:17.560,-643.0,-122.0,132.0,2.0,147.0,118.0,148,109,110,119,117
2025-02-26 14:39:17.564,-602.0,-194.0,-241.0,19.0,120.0,122.0,148,106,110,121,117
2025-02-26 14:39:17.569,-602.0,-115.0,-292.0,-13.0,103.0,114.0,145,103,111,119,115
2025-02-26 14:39:17.573,-624.0,6.0,56.0,-38.0,127.0,105.0,146,101,109,119,115
2025-02-26 14:39:17.581,-685.0,-2.0,-415.0,-66.0,123.0,99.0,148,100,108,118,116
2025-02-26 14:39:17.585,-719.0,-76.0,-458.0,-106.0,89.0,87.0,148,97,108,118,113
2025-02-26 14:39:17.590,-773.0,-106.0,-217.0,-121.0,77.0,75.0,148,95,106,117,117
2025-02-26 14:39:17.597,-857.0,-48.0,-417.0,-112.0,61.0,60.0,146,92,106,116,115
2025-02-26 14:39:17.601,-890.0,-14.0,-235.0,-88.0,37.0,52.0,149,91,106,116,114
2025-02-26 14:39:17.606,-868.0,-37.0,-231.0,-69.0,42.0,38.0,147,87,103,114,114
2025-02-26 14:39:17.613,-811.0,-82.0,-306.0,-47.0,29.0,25.0,149,84,103,113,114
2025-02-26 14:39:17.618,-861.0,-120.0,-303.0,-33.0,8.0,14.0,148,80,103,111,114
2025-02-26 14:39:17.622,-840.0,13.0,-420.0,-26.0,-6.0,3.0,149,75,101,109,111
2025-02-26 14:39:17.626,-855.0,29.0,-470.0,-11.0,-36.0,-1.0,147,71,98,107,110
2025-02-26 14:39:17.634,-892.0,15.0,-467.0,-13.0,-57.0,-4.0,147,70,97,102,108
2025-02-26 14:39:17.638,-936.0,49.0,-426.0,-12.0,-77.0,-5.0,147,61,92,100,105
2025-02-26 14:39:17.642,-957.0,96.0,-549.0,0.0,-95.0,-7.0,150,57,90,97,104
2025-02-26 14:39:17.646,-1035.0,162.0,-509.0,14.0,-126.0,-10.0,149,56,87,92,103
2025-02-26 14:39:17.653,-1166.0,298.0,-255.0,21.0,-120.0,-18.0,148,52,82,90,102
2025-02-26 14:39:17.658,-1331.0,381.0,-85.0,24.0,-113.0,-36.0,147,49,76,84,103
2025-02-26 14:39:17.663,-1482.0,737.0,264.0,46.0,-87.0,-72.0,146,48,73,79,99
2025-02-26 14:39:17.667,-1694.0,819.0,608.0,81.0,-22.0,-86.0,148,47,70,78,94
2025-02-26 14:39:17.675,-1556.0,806.0,213.0,88.0,0.0,-119.0,148,46,68,75,90
2025-02-26 14:39:17.679,-1421.0,1290.0,391.0,122.0,18.0,-164.0,148,47,70,76,87
2025-02-26 14:39:17.683,-948.0,1370.0,847.0,134.0,83.0,-184.0,150,46,71,76,85
2025-02-26 14:39:17.688,-488.0,1369.0,561.0,135.0,103.0,-234.0,149,43,73,76,85
2025-02-26 14:39:17.696,-217.0,1351.0,684.0,157.0,114.0,-289.0,149,42,72,75,82
2025-02-26 14:39:17.700,-137.0,1070.0,750.0,214.0,129.0,-337.0,149,42,72,74,79
2025-02-26 14:39:17.704,23.0,903.0,475.0,268.0,161.0,-363.0,149,42,74,74,74
2025-02-26 14:39:17.708,282.0,768.0,371.0,276.0,198.0,-413.0,149,41,72,76,70
2025-02-26 14:39:17.716,272.0,604.0,10.0,284.0,225.0,-451.0,150,43,73,72,63
2025-02-26 14:39:17.720,388.0,224.0,-296.0,276.0,224.0,-465.0,150,44,72,72,59
2025-02-26 14:39:17.724,427.0,99.0,-151.0,294.0,194.0,-496.0,149,42,71,74,56
2025-02-26 14:39:17.727,694.0,-136.0,-526.0,299.0,112.0,-515.0,149,41,68,71,53
2025-02-26 14:39:17.736,74.0,-491.0,-411.0,302.0,69.0,-518.0,149,42,69,70,51
2025-02-26 14:39:17.739,162.0,-641.0,-336.0,287.0,-19.0,-506.0,150,42,67,69,50
2025-02-26 14:39:17.744,557.0,-1300.0,-311.0,282.0,-107.0,-470.0,150,41,65,68,50
2025-02-26 14:39:17.749,1180.0,-1915.0,58.0,296.0,-172.0,-447.0,150,43,66,69,50
2025-02-26 14:39:17.757,1871.0,-2493.0,464.0,315.0,-228.0,-438.0,149,44,68,69,51
2025-02-26 14:39:17.761,2130.0,-3297.0,944.0,344.0,-240.0,-422.0,150,43,68,69,53
2025-02-26 14:39:17.766,2506.0,-4084.0,1357.0,362.0,-239.0,-407.0,151,44,67,69,53
2025-02-26 14:39:17.773,2683.0,-4457.0,1714.0,358.0,-219.0,-347.0,149,44,71,68,53
2025-02-26 14:39:17.778,2821.0,-4841.0,1750.0,333.0,-180.0,-249.0,151,44,72,68,54
2025-02-26 14:39:17.779,2950.0,-4619.0,1599.0,269.0,-93.0,-139.0,151,45,74,67,54
2025-02-26 14:39:17.789,2664.0,-3799.0,1922.0,218.0,-5.0,-13.0,151,45,73,66,53
2025-02-26 14:39:17.791,2635.0,-2745.0,1838.0,66.0,36.0,88.0,152,45,79,68,52
2025-02-26 14:39:17.798,2165.0,-2354.0,1774.0,-43.0,75.0,121.0,151,45,77,67,52
2025-02-26 14:39:17.804,1891.0,-1635.0,1519.0,-192.0,85.0,170.0,152,45,66,67,53
2025-02-26 14:39:17.810,1464.0,-1473.0,972.0,-249.0,91.0,206.0,151,46,61,68,53
2025-02-26 14:39:17.814,1314.0,-1425.0,598.0,-337.0,85.0,229.0,151,47,61,69,54
2025-02-26 14:39:17.819,778.0,-1491.0,384.0,-404.0,48.0,238.0,152,46,65,70,53
2025-02-26 14:39:17.826,509.0,-1599.0,188.0,-398.0,-4.0,242.0,153,46,66,72,53
2025-02-26 14:39:17.830,376.0,-1656.0,26.0,-388.0,-23.0,233.0,151,46,71,71,54
2025-02-26 14:39:17.834,257.0,-1633.0,-139.0,-366.0,-21.0,216.0,152,47,72,69,54
2025-02-26 14:39:17.839,278.0,-1652.0,-81.0,-322.0,-9.0,205.0,153,48,71,72,56
2025-02-26 14:39:17.847,248.0,-1802.0,-84.0,-257.0,-21.0,189.0,151,48,69,74,57
2025-02-26 14:39:17.851,222.0,-1815.0,67.0,-236.0,-49.0,184.0,152,48,67,76,55
2025-02-26 14:39:17.855,270.0,-1721.0,166.0,-186.0,-58.0,184.0,151,46,67,75,57
2025-02-26 14:39:17.859,235.0,-1578.0,233.0,-143.0,-73.0,186.0,151,48,68,76,57
2025-02-26 14:39:17.866,272.0,-1476.0,329.0,-118.0,-66.0,193.0,151,48,70,76,63
2025-02-26 14:39:17.871,295.0,-1320.0,346.0,-87.0,-58.0,196.0,148,46,71,77,57
2025-02-26 14:39:17.876,283.0,-1151.0,386.0,-76.0,-47.0,198.0,152,47,70,76,57
2025-02-26 14:39:17.884,260.0,-1007.0,396.0,-59.0,-40.0,199.0,150,47,72,75,58
2025-02-26 14:39:17.888,198.0,-944.0,399.0,-52.0,-28.0,200.0,151,47,72,77,58
2025-02-26 14:39:17.892,122.0,-827.0,390.0,-54.0,-17.0,204.0,152,42,70,74,56
2025-02-26 14:39:17.896,86.0,-722.0,343.0,-47.0,-14.0,203.0,151,48,71,74,56
2025-02-26 14:39:17.901,66.0,-676.0,356.0,-52.0,-3.0,203.0,151,46,71,73,59
2025-02-26 14:39:17.907,5.0,-590.0,316.0,-65.0,11.0,203.0,151,49,72,73,59
2025-02-26 14:39:17.912,-41.0,-487.0,274.0,-72.0,17.0,202.0,153,49,73,70,58
2025-02-26 14:39:17.917,-136.0,-464.0,238.0,-88.0,24.0,202.0,152,47,73,72,58
2025-02-26 14:39:17.921,-205.0,-355.0,232.0,-94.0,22.0,197.0,152,50,73,74,59
2025-02-26 14:39:17.925,-262.0,-268.0,237.0,-99.0,20.0,189.0,152,46,70,73,59
2025-02-26 14:39:17.933,-264.0,-230.0,288.0,-113.0,14.0,183.0,151,49,69,72,58
2025-02-26 14:39:17.938,-304.0,-160.0,283.0,-125.0,11.0,175.0,152,48,71,74,60
2025-02-26 14:39:17.941,-357.0,-138.0,291.0,-129.0,15.0,165.0,157,50,73,75,59
2025-02-26 14:39:17.949,-399.0,-138.0,276.0,-128.0,18.0,152.0,151,46,72,76,59
2025-02-26 14:39:17.954,-439.0,-179.0,263.0,-131.0,26.0,146.0,148,48,71,76,59
2025-02-26 14:39:17.963,-476.0,-208.0,259.0,-130.0,30.0,135.0,150,47,72,76,60
2025-02-26 14:39:17.965,-542.0,-236.0,214.0,-128.0,35.0,129.0,152,47,72,77,60
2025-02-26 14:39:17.968,-575.0,-271.0,135.0,-123.0,39.0,124.0,152,49,71,78,60
2025-02-26 14:39:17.974,-615.0,-258.0,68.0,-118.0,46.0,122.0,151,49,72,76,60
2025-02-26 14:39:17.978,-652.0,-271.0,39.0,-111.0,46.0,116.0,153,49,74,75,60
2025-02-26 14:39:17.983,-697.0,-275.0,-47.0,-109.0,43.0,110.0,152,42,72,76,58
2025-02-26 14:39:17.990,-719.0,-260.0,-140.0,-101.0,43.0,106.0,151,49,71,76,61
2025-02-26 14:39:17.993,-735.0,-228.0,-227.0,-89.0,45.0,98.0,151,48,72,75,61
2025-02-26 14:39:17.997,-756.0,-218.0,-188.0,-82.0,37.0,89.0,153,48,71,77,60
2025-02-26 14:39:18.003,-748.0,-174.0,-230.0,-69.0,31.0,80.0,151,48,72,76,61
2025-02-26 14:39:18.007,-752.0,-187.0,-242.0,-57.0,20.0,75.0,151,47,70,74,61
2025-02-26 14:39:18.015,-750.0,-178.0,-260.0,-46.0,16.0,68.0,151,48,72,75,62
2025-02-26 14:39:18.019,-739.0,-168.0,-275.0,-39.0,16.0,62.0,153,50,73,77,61
2025-02-26 14:39:18.024,-738.0,-168.0,-304.0,-25.0,15.0,56.0,152,50,73,74,60
2025-02-26 14:39:18.028,-740.0,-174.0,-315.0,-7.0,8.0,53.0,154,49,69,76,61
2025-02-26 14:39:18.036,-737.0,-153.0,-310.0,2.0,0.0,46.0,152,48,71,76,61
2025-02-26 14:39:18.040,-722.0,-80.0,-288.0,18.0,-3.0,36.0,151,47,72,76,61
2025-02-26 14:39:18.044,-707.0,-72.0,-279.0,34.0,-9.0,31.0,151,49,72,74,63
2025-02-26 14:39:18.048,-689.0,0.0,-258.0,41.0,-10.0,18.0,152,50,70,75,62
2025-02-26 14:39:18.053,-670.0,97.0,-228.0,52.0,-10.0,6.0,151,47,71,75,62
2025-02-26 14:39:18.057,-673.0,129.0,-230.0,63.0,-8.0,0.0,150,49,73,77,62
2025-02-26 14:39:18.065,-718.0,209.0,-206.0,68.0,-10.0,-13.0,152,49,75,76,63
2025-02-26 14:39:18.068,-746.0,285.0,-202.0,78.0,-11.0,-26.0,151,47,71,76,63
2025-02-26 14:39:18.073,-814.0,330.0,-204.0,91.0,-12.0,-34.0,151,47,77,77,64
2025-02-26 14:39:18.077,-892.0,463.0,-213.0,97.0,-15.0,-56.0,150,51,75,77,64
2025-02-26 14:39:18.085,-919.0,548.0,-215.0,109.0,-17.0,-84.0,152,49,69,76,63
2025-02-26 14:39:18.089,-978.0,597.0,-212.0,123.0,-22.0,-99.0,155,48,70,78,64
2025-02-26 14:39:18.093,-1038.0,688.0,-220.0,138.0,-32.0,-128.0,151,48,72,79,64
2025-02-26 14:39:18.097,-1090.0,765.0,-209.0,145.0,-42.0,-154.0,152,48,72,77,64
2025-02-26 14:39:18.105,-1087.0,883.0,-186.0,159.0,-46.0,-180.0,151,47,72,78,64
2025-02-26 14:39:18.109,-1069.0,936.0,-151.0,171.0,-52.0,-194.0,150,48,72,77,64
2025-02-26 14:39:18.114,-962.0,962.0,-112.0,175.0,-56.0,-227.0,151,48,72,77,64
2025-02-26 14:39:18.120,-855.0,977.0,-98.0,186.0,-62.0,-266.0,151,48,73,79,64
2025-02-26 14:39:18.126,-631.0,931.0,-72.0,200.0,-65.0,-303.0,152,47,70,79,64
2025-02-26 14:39:18.130,-561.0,867.0,-80.0,214.0,-68.0,-321.0,152,49,72,78,65
2025-02-26 14:39:18.134,-302.0,773.0,-67.0,229.0,-79.0,-356.0,150,48,72,79,67
2025-02-26 14:39:18.142,-36.0,699.0,-44.0,230.0,-87.0,-387.0,150,47,73,77,66
2025-02-26 14:39:18.146,125.0,479.0,-51.0,239.0,-90.0,-415.0,152,47,73,78,64
2025-02-26 14:39:18.151,472.0,358.0,-5.0,243.0,-94.0,-425.0,151,46,74,80,67
2025-02-26 14:39:18.155,798.0,19.0,17.0,260.0,-103.0,-438.0,152,49,74,78,66
2025-02-26 14:39:18.162,1083.0,-418.0,145.0,259.0,-106.0,-438.0,152,46,75,80,67
2025-02-26 14:39:18.167,1259.0,-960.0,263.0,257.0,-117.0,-438.0,151,48,74,79,68
2025-02-26 14:39:18.171,1556.0,-1247.0,295.0,253.0,-127.0,-436.0,150,48,75,79,68
2025-02-26 14:39:18.178,1809.0,-2063.0,349.0,274.0,-150.0,-425.0,152,49,75,78,68
2025-02-26 14:39:18.183,2107.0,-3065.0,546.0,284.0,-175.0,-393.0,153,49,75,78,69
2025-02-26 14:39:18.187,2340.0,-4084.0,834.0,302.0,-189.0,-342.0,152,47,75,77,71
2025-02-26 14:39:18.192,2417.0,-4974.0,1256.0,298.0,-191.0,-266.0,152,48,73,76,73
2025-02-26 14:39:18.199,2610.0,-5418.0,1639.0,284.0,-178.0,-215.0,151,48,74,74,71
2025-02-26 14:39:18.203,2463.0,-5554.0,1789.0,235.0,-131.0,-109.0,153,48,76,75,71
2025-02-26 14:39:18.208,2500.0,-5255.0,1830.0,239.0,-64.0,-2.0,153,49,78,72,71
2025-02-26 14:39:18.216,2139.0,-4452.0,1378.0,205.0,-7.0,91.0,152,47,82,73,70
2025-02-26 14:39:18.217,2063.0,-2931.0,1169.0,187.0,0.0,175.0,152,48,78,75,69
2025-02-26 14:39:18.221,1746.0,-2504.0,1410.0,107.0,28.0,204.0,152,49,67,74,68
2025-02-26 14:39:18.232,1547.0,-1572.0,1478.0,-10.0,43.0,238.0,151,50,63,77,69
2025-02-26 14:39:18.236,1349.0,-949.0,1229.0,-63.0,22.0,248.0,152,49,64,76,70
2025-02-26 14:39:18.241,1114.0,-692.0,996.0,-154.0,9.0,250.0,152,50,66,75,70
2025-02-26 14:39:18.245,987.0,-690.0,888.0,-243.0,-22.0,247.0,151,49,72,75,71
2025-02-26 14:39:18.253,852.0,-841.0,800.0,-271.0,-45.0,235.0,150,48,74,74,72
2025-02-26 14:39:18.257,706.0,-1146.0,695.0,-277.0,-23.0,227.0,152,49,77,75,72
2025-02-26 14:39:18.258,641.0,-1355.0,672.0,-312.0,8.0,210.0,154,47,77,78,73
2025-02-26 14:39:18.266,609.0,-1444.0,519.0,-306.0,74.0,200.0,152,48,76,77,72
2025-02-26 14:39:18.272,498.0,-1668.0,504.0,-292.0,127.0,182.0,151,49,72,78,73
2025-02-26 14:39:18.277,300.0,-1831.0,434.0,-280.0,121.0,175.0,151,49,71,79,74
2025-02-26 14:39:18.281,196.0,-1875.0,442.0,-235.0,101.0,177.0,153,48,69,75,73
2025-02-26 14:39:18.286,53.0,-1821.0,488.0,-222.0,43.0,181.0,149,48,71,80,74
2025-02-26 14:39:18.293,-14.0,-1778.0,414.0,-196.0,9.0,191.0,153,51,73,79,74
2025-02-26 14:39:18.298,-106.0,-1679.0,311.0,-175.0,-5.0,203.0,151,49,74,80,74
2025-02-26 14:39:18.302,-97.0,-1504.0,326.0,-130.0,-8.0,212.0,150,52,74,80,75
2025-02-26 14:39:18.306,-49.0,-1425.0,313.0,-99.0,-13.0,215.0,149,49,73,79,75
2025-02-26 14:39:18.314,-17.0,-1188.0,346.0,-78.0,-2.0,215.0,150,49,71,77,74
2025-02-26 14:39:18.318,46.0,-982.0,366.0,-66.0,11.0,214.0,150,48,71,77,75
2025-02-26 14:39:18.323,40.0,-845.0,376.0,-66.0,16.0,214.0,151,47,73,75,75
2025-02-26 14:39:18.327,5.0,-766.0,395.0,-82.0,36.0,212.0,152,50,72,75,74
2025-02-26 14:39:18.331,-12.0,-722.0,350.0,-96.0,59.0,209.0,149,50,73,74,75
2025-02-26 14:39:18.339,-10.0,-653.0,198.0,-120.0,74.0,208.0,149,50,74,77,75
2025-02-26 14:39:18.343,-81.0,-547.0,201.0,-139.0,81.0,205.0,149,51,75,76,76
2025-02-26 14:39:18.346,-100.0,-335.0,290.0,-159.0,100.0,199.0,149,50,75,77,76
2025-02-26 14:39:18.351,-123.0,-244.0,220.0,-209.0,113.0,197.0,151,46,73,76,78
2025-02-26 14:39:18.359,-207.0,-93.0,48.0,-203.0,140.0,200.0,149,51,71,77,76
2025-02-26 14:39:18.362,-325.0,28.0,208.0,-148.0,152.0,200.0,150,51,71,78,77
2025-02-26 14:39:18.368,-457.0,44.0,69.0,-135.0,152.0,196.0,148,51,76,79,77
2025-02-26 14:39:18.372,-470.0,123.0,99.0,-124.0,151.0,193.0,146,50,79,79,77
2025-02-26 14:39:18.379,-541.0,64.0,111.0,-124.0,147.0,183.0,148,53,80,80,78
2025-02-26 14:39:18.381,-600.0,85.0,25.0,-112.0,139.0,173.0,148,53,81,80,77
2025-02-26 14:39:18.387,-648.0,61.0,58.0,-118.0,137.0,163.0,148,53,81,82,79
2025-02-26 14:39:18.392,-649.0,-39.0,-25.0,-113.0,130.0,156.0,145,54,90,83,81
2025-02-26 14:39:18.396,-620.0,-97.0,-45.0,-104.0,116.0,146.0,146,53,83,85,82
2025-02-26 14:39:18.404,-713.0,-180.0,-89.0,-106.0,111.0,141.0,147,55,83,86,81
2025-02-26 14:39:18.409,-708.0,-224.0,-84.0,-90.0,100.0,140.0,143,54,82,90,83
2025-02-26 14:39:18.413,-628.0,-255.0,-79.0,-71.0,96.0,140.0,144,58,80,83,80
2025-02-26 14:39:18.417,-622.0,-292.0,-101.0,-70.0,96.0,145.0,145,55,78,84,85
2025-02-26 14:39:18.425,-590.0,-277.0,-80.0,-46.0,98.0,152.0,142,56,78,86,85
2025-02-26 14:39:18.429,-552.0,-271.0,27.0,-22.0,106.0,155.0,144,54,78,84,85
2025-02-26 14:39:18.433,-505.0,-231.0,30.0,-7.0,116.0,157.0,143,57,79,84,86
2025-02-26 14:39:18.437,-481.0,-111.0,-71.0,9.0,116.0,163.0,143,60,80,84,84
2025-02-26 14:39:18.445,-539.0,178.0,-238.0,26.0,106.0,169.0,145,61,81,83,86
2025-02-26 14:39:18.449,-542.0,230.0,-267.0,68.0,105.0,170.0,143,63,82,84,88
2025-02-26 14:39:18.454,-572.0,341.0,-331.0,100.0,98.0,159.0,143,64,83,85,88
2025-02-26 14:39:18.458,-605.0,625.0,-603.0,135.0,94.0,131.0,142,66,84,85,89
2025-02-26 14:39:18.465,-935.0,737.0,-651.0,159.0,83.0,124.0,141,70,84,86,88
2025-02-26 14:39:18.470,-1188.0,701.0,-839.0,192.0,43.0,97.0,140,73,88,86,89
2025-02-26 14:39:18.473,-1262.0,1078.0,-634.0,204.0,24.0,39.0,139,73,90,89,89
2025-02-26 14:39:18.478,-1233.0,1292.0,-656.0,194.0,-14.0,5.0,138,76,94,89,91
2025-02-26 14:39:18.483,-1162.0,1304.0,-716.0,211.0,-41.0,-55.0,139,80,97,91,91
2025-02-26 14:39:18.490,-1070.0,1429.0,-853.0,210.0,-68.0,-120.0,138,87,102,90,91
2025-02-26 14:39:18.494,-1024.0,1393.0,-950.0,204.0,-110.0,-177.0,136,90,105,90,90
2025-02-26 14:39:18.503,-1271.0,1531.0,-757.0,207.0,-139.0,-227.0,134,94,108,91,90
2025-02-26 14:39:18.507,-1385.0,1659.0,-324.0,224.0,-139.0,-249.0,133,97,107,91,90
2025-02-26 14:39:18.514,-1508.0,1037.0,61.0,215.0,-111.0,-256.0,133,98,111,91,89
2025-02-26 14:39:18.518,-1444.0,977.0,-97.0,226.0,-109.0,-270.0,133,101,111,90,90
2025-02-26 14:39:18.524,-1032.0,922.0,-100.0,252.0,-128.0,-305.0,129,101,113,91,91
2025-02-26 14:39:18.525,-582.0,729.0,-219.0,288.0,-124.0,-329.0,128,102,113,91,89
2025-02-26 14:39:18.535,-323.0,601.0,-329.0,309.0,-125.0,-355.0,124,102,115,92,89
2025-02-26 14:39:18.537,-16.0,383.0,-290.0,351.0,-131.0,-378.0,123,103,115,93,90
2025-02-26 14:39:18.542,97.0,137.0,-152.0,395.0,-137.0,-402.0,123,103,114,93,89
2025-02-26 14:39:18.549,333.0,15.0,-114.0,437.0,-155.0,-416.0,119,104,117,95,88
2025-02-26 14:39:18.554,674.0,58.0,-55.0,482.0,-185.0,-440.0,118,106,118,96,90
2025-02-26 14:39:18.560,1238.0,-132.0,93.0,494.0,-202.0,-460.0,123,107,117,95,90
2025-02-26 14:39:18.567,1445.0,-746.0,568.0,472.0,-211.0,-473.0,119,108,120,94,89
2025-02-26 14:39:18.573,1454.0,-1131.0,526.0,452.0,-238.0,-476.0,118,109,119,95,91
2025-02-26 14:39:18.576,1860.0,-1593.0,987.0,436.0,-277.0,-475.0,120,112,119,94,91
2025-02-26 14:39:18.584,2259.0,-1881.0,1365.0,391.0,-292.0,-467.0,124,116,120,90,92
2025-02-26 14:39:18.589,2500.0,-2524.0,1866.0,334.0,-291.0,-446.0,120,118,119,95,94
2025-02-26 14:39:18.592,2750.0,-3092.0,2296.0,304.0,-266.0,-402.0,123,120,118,94,94
2025-02-26 14:39:18.601,2833.0,-3520.0,2479.0,279.0,-225.0,-328.0,121,124,118,95,94
2025-02-26 14:39:18.605,2782.0,-3325.0,2959.0,263.0,-157.0,-225.0,121,124,118,93,94
2025-02-26 14:39:18.612,2452.0,-3120.0,2968.0,169.0,-96.0,-108.0,123,125,119,90,94
2025-02-26 14:39:18.617,2159.0,-2805.0,2911.0,109.0,-52.0,2.0,122,126,118,87,94
2025-02-26 14:39:18.622,1979.0,-2526.0,2659.0,-32.0,-33.0,108.0,121,125,120,86,91
2025-02-26 14:39:18.629,1579.0,-2205.0,2208.0,-181.0,-11.0,185.0,122,126,118,89,91
2025-02-26 14:39:18.634,1212.0,-2056.0,1829.0,-282.0,-3.0,212.0,120,125,120,88,91
2025-02-26 14:39:18.635,1008.0,-1762.0,1444.0,-357.0,-6.0,243.0,122,127,120,89,91
2025-02-26 14:39:18.646,781.0,-1579.0,1349.0,-391.0,-14.0,250.0,121,127,119,91,90
2025-02-26 14:39:18.650,611.0,-1482.0,1158.0,-397.0,-18.0,245.0,120,126,119,93,91
2025-02-26 14:39:18.655,515.0,-1442.0,967.0,-386.0,-22.0,232.0,118,126,121,95,89
2025-02-26 14:39:18.660,493.0,-1338.0,862.0,-361.0,-24.0,216.0,120,126,120,95,89
2025-02-26 14:39:18.667,500.0,-1375.0,744.0,-322.0,-26.0,208.0,115,127,120,99,89
2025-02-26 14:39:18.671,480.0,-1345.0,699.0,-304.0,-33.0,191.0,116,127,120,98,87
2025-02-26 14:39:18.678,509.0,-1340.0,748.0,-278.0,-10.0,177.0,116,126,120,99,88
2025-02-26 14:39:18.683,499.0,-1311.0,645.0,-266.0,16.0,167.0,116,127,121,99,88
2025-02-26 14:39:18.687,397.0,-1247.0,626.0,-240.0,39.0,164.0,113,127,120,99,87
2025-02-26 14:39:18.691,353.0,-1249.0,519.0,-216.0,50.0,169.0,117,126,120,95,88
2025-02-26 14:39:18.699,266.0,-1266.0,320.0,-201.0,67.0,173.0,113,127,122,100,87
2025-02-26 14:39:18.702,190.0,-1301.0,312.0,-180.0,69.0,182.0,114,127,123,100,88
2025-02-26 14:39:18.708,86.0,-1308.0,269.0,-150.0,66.0,194.0,112,127,123,101,88
2025-02-26 14:39:18.715,77.0,-1275.0,245.0,-131.0,61.0,206.0,112,127,123,100,87
2025-02-26 14:39:18.720,61.0,-1245.0,201.0,-99.0,62.0,217.0,110,126,122,100,88
2025-02-26 14:39:18.724,79.0,-1231.0,197.0,-70.0,66.0,222.0,111,125,123,100,89
2025-02-26 14:39:18.728,57.0,-1061.0,195.0,-47.0,71.0,231.0,112,126,122,99,90
2025-02-26 14:39:18.736,75.0,-861.0,225.0,-37.0,72.0,234.0,110,125,123,100,89
2025-02-26 14:39:18.738,75.0,-719.0,212.0,-25.0,72.0,232.0,112,127,122,99,90
2025-02-26 14:39:18.744,33.0,-613.0,228.0,-33.0,74.0,229.0,111,127,123,100,89
2025-02-26 14:39:18.749,-18.0,-487.0,233.0,-45.0,72.0,221.0,110,127,122,100,88
2025-02-26 14:39:18.756,-101.0,-379.0,314.0,-49.0,63.0,210.0,110,127,123,101,90
2025-02-26 14:39:18.761,-152.0,-305.0,343.0,-58.0,58.0,198.0,112,127,125,101,89
2025-02-26 14:39:18.765,-229.0,-262.0,354.0,-71.0,54.0,192.0,110,126,121,100,90
2025-02-26 14:39:18.772,-309.0,-204.0,349.0,-89.0,53.0,180.0,111,128,123,100,90
2025-02-26 14:39:18.774,-375.0,-180.0,331.0,-99.0,50.0,167.0,110,126,124,101,90
2025-02-26 14:39:18.781,-475.0,-180.0,270.0,-101.0,48.0,154.0,112,128,122,98,91
2025-02-26 14:39:18.786,-504.0,-164.0,206.0,-108.0,49.0,145.0,111,129,122,99,91
2025-02-26 14:39:18.793,-571.0,-174.0,152.0,-114.0,50.0,141.0,108,127,122,99,92
2025-02-26 14:39:18.798,-616.0,-187.0,127.0,-117.0,48.0,132.0,110,126,126,99,91
2025-02-26 14:39:18.802,-666.0,-199.0,72.0,-123.0,45.0,125.0,110,126,123,99,92
2025-02-26 14:39:18.810,-672.0,-177.0,101.0,-124.0,49.0,118.0,109,127,123,99,90
2025-02-26 14:39:18.810,-684.0,-160.0,16.0,-123.0,49.0,109.0,115,125,121,102,90
2025-02-26 14:39:18.818,-673.0,-163.0,-37.0,-118.0,49.0,104.0,108,125,122,99,91
2025-02-26 14:39:18.823,-647.0,-208.0,-60.0,-112.0,47.0,91.0,108,125,123,102,91
2025-02-26 14:39:18.829,-654.0,-234.0,-33.0,-100.0,48.0,79.0,108,126,123,101,90
2025-02-26 14:39:18.835,-635.0,-253.0,-74.0,-95.0,46.0,68.0,106,125,123,100,90
2025-02-26 14:39:18.839,-651.0,-276.0,-86.0,-84.0,46.0,58.0,104,126,123,101,91
2025-02-26 14:39:18.847,-652.0,-272.0,-106.0,-74.0,45.0,54.0,106,126,123,101,91
2025-02-26 14:39:18.851,-659.0,-238.0,-131.0,-64.0,43.0,46.0,106,125,123,101,91
2025-02-26 14:39:18.855,-669.0,-200.0,-134.0,-58.0,43.0,42.0,106,126,123,101,91
2025-02-26 14:39:18.863,-691.0,-175.0,-143.0,-47.0,42.0,39.0,104,125,123,101,91
2025-02-26 14:39:18.866,-700.0,-123.0,-165.0,-31.0,40.0,39.0,105,128,123,100,91
2025-02-26 14:39:18.871,-754.0,-71.0,-183.0,-14.0,37.0,39.0,105,125,123,101,91
2025-02-26 14:39:18.875,-800.0,54.0,-189.0,5.0,31.0,36.0,104,125,123,98,92
2025-02-26 14:39:18.883,-863.0,235.0,-221.0,16.0,18.0,31.0,105,124,123,100,92
2025-02-26 14:39:18.888,-882.0,313.0,-205.0,38.0,11.0,26.0,105,126,123,101,92
2025-02-26 14:39:18.888,-939.0,446.0,-238.0,65.0,-5.0,13.0,104,126,123,101,92
2025-02-26 14:39:18.896,-983.0,506.0,-303.0,76.0,-23.0,-9.0,104,124,123,101,91
2025-02-26 14:39:18.900,-986.0,586.0,-281.0,93.0,-29.0,-40.0,103,124,119,101,92
2025-02-26 14:39:18.908,-997.0,592.0,-305.0,114.0,-38.0,-57.0,104,124,123,102,92
2025-02-26 14:39:18.920,-977.0,589.0,-244.0,141.0,-37.0,-93.0,104,128,123,101,97
2025-02-26 14:39:18.920,-980.0,631.0,-301.0,170.0,-34.0,-130.0,104,125,123,102,92
2025-02-26 14:39:18.926,-1003.0,694.0,-287.0,194.0,-32.0,-167.0,105,124,123,101,92
2025-02-26 14:39:18.929,-1021.0,841.0,-245.0,206.0,-32.0,-201.0,104,123,123,103,91
2025-02-26 14:39:18.937,-935.0,938.0,-226.0,229.0,-42.0,-236.0,102,125,123,101,91
2025-02-26 14:39:18.941,-864.0,913.0,-160.0,257.0,-49.0,-270.0,102,125,121,103,91
2025-02-26 14:39:18.945,-706.0,846.0,-149.0,285.0,-65.0,-288.0,103,123,124,101,92
2025-02-26 14:39:18.950,-508.0,790.0,-57.0,312.0,-79.0,-320.0,102,124,124,103,91
2025-02-26 14:39:18.957,-252.0,682.0,-57.0,329.0,-87.0,-350.0,102,124,123,103,91
2025-02-26 14:39:18.962,-1.0,518.0,-68.0,343.0,-96.0,-378.0,96,125,124,106,91
2025-02-26 14:39:18.969,274.0,328.0,-38.0,352.0,-103.0,-401.0,101,124,123,103,93
2025-02-26 14:39:18.973,427.0,117.0,25.0,353.0,-110.0,-422.0,101,122,123,102,95
2025-02-26 14:39:18.978,664.0,-22.0,171.0,345.0,-118.0,-430.0,104,124,122,104,91
2025-02-26 14:39:18.986,866.0,-303.0,234.0,331.0,-129.0,-439.0,102,125,124,105,91
2025-02-26 14:39:18.990,1102.0,-606.0,373.0,314.0,-148.0,-436.0,102,126,124,105,91
2025-02-26 14:39:18.995,1367.0,-1023.0,604.0,309.0,-159.0,-428.0,101,124,123,103,90
2025-02-26 14:39:19.002,1612.0,-1680.0,758.0,289.0,-175.0,-412.0,102,126,124,105,90
2025-02-26 14:39:19.006,1852.0,-2392.0,1067.0,270.0,-185.0,-385.0,102,127,123,102,89
2025-02-26 14:39:19.015,1961.0,-3128.0,1442.0,250.0,-185.0,-341.0,102,125,123,102,89
2025-02-26 14:39:19.017,2182.0,-3846.0,1831.0,221.0,-172.0,-279.0,104,125,123,103,90
2025-02-26 14:39:19.023,2399.0,-4483.0,2144.0,195.0,-138.0,-190.0,102,127,128,101,91
2025-02-26 14:39:19.031,2458.0,-4419.0,2326.0,151.0,-96.0,-83.0,102,127,124,101,91
2025-02-26 14:39:19.035,2488.0,-4202.0,2777.0,123.0,-41.0,-28.0,103,126,121,99,90
2025-02-26 14:39:19.040,2256.0,-3715.0,2605.0,67.0,-18.0,87.0,104,127,121,96,91
2025-02-26 14:39:19.046,1909.0,-3014.0,2644.0,-30.0,-13.0,180.0,104,126,122,92,88
2025-02-26 14:39:19.051,1530.0,-2227.0,2532.0,-88.0,2.0,238.0,105,125,121,91,85
2025-02-26 14:39:19.056,1141.0,-1694.0,2128.0,-182.0,5.0,264.0,103,125,121,91,85
2025-02-26 14:39:19.063,953.0,-1482.0,1798.0,-267.0,-7.0,263.0,102,125,122,94,84
2025-02-26 14:39:19.068,619.0,-1334.0,1574.0,-303.0,-27.0,258.0,101,125,120,92,83
2025-02-26 14:39:19.071,496.0,-1296.0,1432.0,-297.0,-48.0,248.0,98,130,120,95,83
2025-02-26 14:39:19.079,378.0,-1280.0,1086.0,-301.0,-73.0,242.0,98,125,119,97,83
2025-02-26 14:39:19.082,339.0,-1295.0,656.0,-322.0,-75.0,240.0,95,133,123,99,88
2025-02-26 14:39:19.089,417.0,-1422.0,494.0,-325.0,-59.0,244.0,98,126,120,98,81
2025-02-26 14:39:19.094,450.0,-1488.0,227.0,-310.0,-30.0,239.0,97,125,123,100,83
2025-02-26 14:39:19.101,372.0,-1770.0,407.0,-303.0,0.0,236.0,98,126,122,102,83
2025-02-26 14:39:19.105,290.0,-1834.0,353.0,-259.0,17.0,230.0,97,125,122,103,83
2025-02-26 14:39:19.109,273.0,-1866.0,473.0,-244.0,27.0,227.0,97,125,121,103,83
2025-02-26 14:39:19.117,283.0,-1681.0,443.0,-205.0,30.0,228.0,97,126,124,103,84
2025-02-26 14:39:19.121,260.0,-1578.0,437.0,-175.0,31.0,231.0,98,126,123,104,85
2025-02-26 14:39:19.126,270.0,-1431.0,458.0,-145.0,32.0,240.0,99,126,122,103,85
2025-02-26 14:39:19.132,285.0,-1247.0,471.0,-124.0,41.0,248.0,97,126,123,103,86
2025-02-26 14:39:19.138,275.0,-1100.0,393.0,-119.0,63.0,256.0,98,126,124,103,86
2025-02-26 14:39:19.142,265.0,-1014.0,409.0,-108.0,79.0,262.0,99,125,124,106,88
2025-02-26 14:39:19.146,227.0,-939.0,430.0,-100.0,109.0,265.0,96,125,123,103,88
2025-02-26 14:39:19.153,233.0,-831.0,371.0,-97.0,133.0,268.0,98,126,123,100,88
2025-02-26 14:39:19.158,188.0,-696.0,356.0,-99.0,152.0,268.0,98,125,124,101,88
2025-02-26 14:39:19.163,108.0,-566.0,353.0,-94.0,167.0,265.0,98,121,124,101,90
2025-02-26 14:39:19.169,62.0,-453.0,235.0,-84.0,165.0,258.0,99,125,123,102,88
2025-02-26 14:39:19.174,74.0,-423.0,243.0,-59.0,170.0,255.0,103,124,123,106,89
2025-02-26 14:39:19.179,-30.0,-370.0,274.0,-40.0,180.0,248.0,96,123,124,101,90
2025-02-26 14:39:19.183,-118.0,-314.0,218.0,-49.0,196.0,246.0,94,124,123,100,90
2025-02-26 14:39:19.190,-117.0,-148.0,256.0,-54.0,201.0,237.0,93,123,122,100,90
2025-02-26 14:39:19.195,-213.0,3.0,44.0,-41.0,176.0,233.0,93,122,121,100,91
2025-02-26 14:39:19.198,-326.0,168.0,223.0,-60.0,142.0,212.0,93,122,123,101,90
2025-02-26 14:39:19.203,-413.0,294.0,296.0,-63.0,133.0,193.0,92,122,119,98,91
2025-02-26 14:39:19.209,-398.0,348.0,149.0,-101.0,136.0,176.0,93,121,121,96,91
2025-02-26 14:39:19.215,-391.0,444.0,11.0,-132.0,136.0,169.0,93,121,120,94,91
2025-02-26 14:39:19.219,-549.0,405.0,43.0,-144.0,133.0,152.0,94,120,116,97,91
2025-02-26 14:39:19.228,-626.0,362.0,84.0,-147.0,141.0,130.0,96,119,117,99,91
2025-02-26 14:39:19.228,-672.0,313.0,-151.0,-151.0,137.0,109.0,96,118,118,96,91
2025-02-26 14:39:19.235,-764.0,281.0,-151.0,-154.0,127.0,99.0,98,112,115,96,90
2025-02-26 14:39:19.240,-785.0,152.0,-186.0,-155.0,120.0,81.0,99,117,116,96,91
2025-02-26 14:39:19.248,-796.0,-34.0,-240.0,-143.0,110.0,67.0,101,117,117,96,91
2025-02-26 14:39:19.251,-762.0,-129.0,-312.0,-131.0,106.0,54.0,101,117,115,96,91
2025-02-26 14:39:19.256,-754.0,-230.0,-239.0,-117.0,99.0,46.0,104,115,113,95,92
2025-02-26 14:39:19.264,-720.0,-251.0,-271.0,-105.0,93.0,42.0,106,115,114,94,92
2025-02-26 14:39:19.268,-691.0,-280.0,-270.0,-96.0,84.0,36.0,108,116,114,93,92
2025-02-26 14:39:19.270,-688.0,-334.0,-298.0,-89.0,75.0,32.0,112,114,111,90,92
2025-02-26 14:39:19.277,-680.0,-323.0,-319.0,-76.0,67.0,28.0,115,111,108,91,91
2025-02-26 14:39:19.284,-697.0,-361.0,-300.0,-68.0,56.0,27.0,120,107,108,94,91
2025-02-26 14:39:19.287,-717.0,-272.0,-334.0,-66.0,39.0,26.0,118,103,107,89,91
2025-02-26 14:39:19.293,-793.0,-158.0,-353.0,-58.0,20.0,22.0,121,99,103,88,91
2025-02-26 14:39:19.297,-708.0,-205.0,-187.0,-53.0,16.0,17.0,123,95,103,87,91
2025-02-26 14:39:19.305,-702.0,-167.0,-68.0,-35.0,16.0,15.0,124,91,102,87,91
2025-02-26 14:39:19.306,-708.0,-166.0,-15.0,-14.0,17.0,12.0,125,88,102,85,93
2025-02-26 14:39:19.314,-693.0,-123.0,-88.0,-2.0,11.0,10.0,127,85,100,84,93
2025-02-26 14:39:19.318,-752.0,-79.0,-116.0,13.0,8.0,-3.0,129,83,98,84,93
2025-02-26 14:39:19.329,-866.0,-50.0,-236.0,10.0,-5.0,-9.0,128,81,102,83,93
2025-02-26 14:39:19.331,-1041.0,53.0,-289.0,9.0,-29.0,-16.0,129,80,96,84,93
2025-02-26 14:39:19.334,-1085.0,208.0,-327.0,24.0,-36.0,-21.0,130,75,92,83,93
2025-02-26 14:39:19.338,-976.0,360.0,-298.0,49.0,-51.0,-26.0,133,72,90,83,93
2025-02-26 14:39:19.343,-927.0,548.0,-289.0,86.0,-67.0,-41.0,133,68,87,82,92
2025-02-26 14:39:19.351,-910.0,716.0,-207.0,110.0,-74.0,-54.0,136,64,85,81,90
2025-02-26 14:39:19.354,-967.0,793.0,-103.0,162.0,-83.0,-60.0,135,60,79,79,89
2025-02-26 14:39:19.359,-1097.0,821.0,-154.0,206.0,-93.0,-78.0,137,57,75,79,83
2025-02-26 14:39:19.367,-1068.0,832.0,-30.0,221.0,-92.0,-109.0,137,53,72,79,85
2025-02-26 14:39:19.370,-961.0,953.0,-178.0,201.0,-85.0,-162.0,136,50,69,78,80
2025-02-26 14:39:19.375,-891.0,834.0,-439.0,214.0,-90.0,-182.0,136,49,69,79,76
2025-02-26 14:39:19.379,-777.0,909.0,-371.0,239.0,-70.0,-221.0,138,48,75,79,72
2025-02-26 14:39:19.387,-387.0,854.0,-451.0,270.0,-59.0,-249.0,138,48,73,77,70
2025-02-26 14:39:19.391,-187.0,773.0,-573.0,262.0,-69.0,-281.0,139,47,75,78,67
2025-02-26 14:39:19.396,-209.0,641.0,-467.0,292.0,-68.0,-310.0,140,46,74,76,67
2025-02-26 14:39:19.397,-264.0,554.0,-483.0,314.0,-69.0,-327.0,139,45,73,78,65
2025-02-26 14:39:19.407,-220.0,443.0,-379.0,311.0,-67.0,-353.0,141,45,72,77,65
2025-02-26 14:39:19.412,29.0,316.0,-222.0,316.0,-79.0,-362.0,137,43,70,75,65
2025-02-26 14:39:19.416,231.0,207.0,210.0,325.0,-88.0,-378.0,140,43,70,75,65
2025-02-26 14:39:19.420,561.0,208.0,-87.0,338.0,-127.0,-388.0,139,43,72,74,65
2025-02-26 14:39:19.428,571.0,-80.0,0.0,350.0,-171.0,-407.0,141,44,73,73,64
2025-02-26 14:39:19.432,949.0,-462.0,92.0,369.0,-195.0,-410.0,139,41,74,69,62
2025-02-26 14:39:19.435,1189.0,-602.0,505.0,362.0,-190.0,-407.0,140,44,76,68,61
2025-02-26 14:39:19.444,1570.0,-1230.0,821.0,327.0,-160.0,-385.0,142,45,78,69,61
2025-02-26 14:39:19.447,1698.0,-1856.0,977.0,339.0,-123.0,-347.0,140,44,75,68,62
2025-02-26 14:39:19.452,1805.0,-2709.0,1270.0,359.0,-105.0,-317.0,141,43,70,65,61
2025-02-26 14:39:19.459,1691.0,-3565.0,1416.0,388.0,-105.0,-279.0,142,42,72,65,62
2025-02-26 14:39:19.465,1670.0,-4293.0,1508.0,396.0,-102.0,-226.0,143,44,71,64,62
2025-02-26 14:39:19.470,1581.0,-4679.0,1664.0,391.0,-85.0,-191.0,144,43,71,63,62
2025-02-26 14:39:19.477,1657.0,-4722.0,1930.0,337.0,-63.0,-94.0,143,45,71,62,62
2025-02-26 14:39:19.481,1637.0,-4490.0,2042.0,262.0,-46.0,12.0,145,45,71,62,61
2025-02-26 14:39:19.484,1591.0,-3500.0,2084.0,223.0,-31.0,94.0,146,43,73,61,60
2025-02-26 14:39:19.489,1467.0,-2300.0,2133.0,129.0,-24.0,144.0,144,44,76,60,58
2025-02-26 14:39:19.497,1206.0,-1772.0,2059.0,17.0,-10.0,150.0,143,44,78,61,57
2025-02-26 14:39:19.502,975.0,-1026.0,2005.0,-89.0,-9.0,139.0,146,45,78,63,57
2025-02-26 14:39:19.506,789.0,-735.0,1707.0,-135.0,-21.0,125.0,147,45,80,64,58
2025-02-26 14:39:19.508,524.0,-843.0,1366.0,-214.0,-31.0,121.0,145,45,80,64,58
2025-02-26 14:39:19.518,437.0,-1233.0,1125.0,-268.0,-45.0,121.0,145,46,78,61,59
2025-02-26 14:39:19.520,366.0,-1398.0,951.0,-334.0,-34.0,123.0,145,46,76,62,60
2025-02-26 14:39:19.525,332.0,-1641.0,866.0,-357.0,-8.0,131.0,144,45,72,66,60
2025-02-26 14:39:19.534,298.0,-1853.0,758.0,-355.0,12.0,132.0,145,46,69,65,60
2025-02-26 14:39:19.537,287.0,-1991.0,737.0,-346.0,17.0,134.0,147,45,63,65,60
2025-02-26 14:39:19.543,238.0,-2010.0,751.0,-312.0,18.0,135.0,150,47,64,67,61
2025-02-26 14:39:19.547,175.0,-2018.0,760.0,-276.0,15.0,141.0,145,45,62,69,62
2025-02-26 14:39:19.554,131.0,-1964.0,755.0,-260.0,13.0,153.0,143,47,65,69,64
2025-02-26 14:39:19.559,122.0,-1879.0,719.0,-231.0,4.0,162.0,145,47,68,68,62
2025-02-26 14:39:19.564,93.0,-1806.0,701.0,-205.0,-6.0,182.0,147,47,70,69,63
2025-02-26 14:39:19.568,80.0,-1649.0,683.0,-192.0,-11.0,198.0,143,46,72,69,63
2025-02-26 14:39:19.575,80.0,-1465.0,668.0,-171.0,-11.0,204.0,148,47,71,66,64
2025-02-26 14:39:19.580,92.0,-1385.0,654.0,-153.0,-7.0,206.0,144,46,71,69,63
2025-02-26 14:39:19.584,95.0,-1192.0,627.0,-140.0,3.0,209.0,145,46,73,69,64
2025-02-26 14:39:19.589,59.0,-1004.0,601.0,-136.0,11.0,210.0,144,46,71,69,64
2025-02-26 14:39:19.593,39.0,-853.0,579.0,-133.0,14.0,210.0,144,47,71,70,64
2025-02-26 14:39:19.599,-14.0,-770.0,556.0,-135.0,20.0,209.0,145,47,70,68,66
2025-02-26 14:39:19.604,-63.0,-629.0,517.0,-135.0,21.0,206.0,144,46,71,72,65
2025-02-26 14:39:19.608,-67.0,-506.0,480.0,-137.0,20.0,201.0,144,47,70,70,65
2025-02-26 14:39:19.613,-109.0,-460.0,459.0,-139.0,20.0,197.0,144,46,69,70,66
2025-02-26 14:39:19.620,-158.0,-351.0,431.0,-145.0,24.0,187.0,143,47,70,71,67
2025-02-26 14:39:19.625,-195.0,-296.0,407.0,-144.0,25.0,177.0,145,47,69,71,66
2025-02-26 14:39:19.629,-210.0,-290.0,399.0,-151.0,27.0,168.0,144,46,68,71,65
2025-02-26 14:39:19.633,-295.0,-255.0,381.0,-159.0,33.0,164.0,145,46,67,70,66
2025-02-26 14:39:19.640,-405.0,-253.0,357.0,-166.0,41.0,157.0,145,49,67,71,60
2025-02-26 14:39:19.645,-448.0,-261.0,310.0,-167.0,44.0,154.0,144,46,68,69,64
2025-02-26 14:39:19.648,-493.0,-282.0,233.0,-167.0,45.0,153.0,144,48,67,71,65
2025-02-26 14:39:19.653,-579.0,-281.0,193.0,-162.0,46.0,153.0,141,47,68,72,65
2025-02-26 14:39:19.661,-608.0,-243.0,92.0,-158.0,48.0,150.0,145,45,69,70,66
2025-02-26 14:39:19.665,-652.0,-183.0,-19.0,-151.0,51.0,144.0,142,47,67,70,65
2025-02-26 14:39:19.670,-704.0,-153.0,-102.0,-138.0,56.0,139.0,145,48,69,70,65
2025-02-26 14:39:19.675,-737.0,-143.0,-119.0,-122.0,59.0,129.0,145,47,68,71,65
2025-02-26 14:39:19.682,-774.0,-136.0,-171.0,-114.0,60.0,118.0,146,47,68,71,66
2025-02-26 14:39:19.686,-821.0,-145.0,-238.0,-97.0,60.0,105.0,144,47,68,72,65
2025-02-26 14:39:19.688,-834.0,-163.0,-238.0,-80.0,55.0,98.0,143,47,68,70,66
2025-02-26 14:39:19.695,-829.0,-206.0,-221.0,-65.0,53.0,86.0,144,46,68,70,66
2025-02-26 14:39:19.702,-804.0,-230.0,-179.0,-56.0,54.0,75.0,143,49,69,71,66
2025-02-26 14:39:19.707,-762.0,-223.0,-148.0,-43.0,53.0,65.0,144,47,69,72,66
2025-02-26 14:39:19.711,-701.0,-210.0,-130.0,-34.0,54.0,60.0,143,48,70,71,67
2025-02-26 14:39:19.715,-665.0,-216.0,-114.0,-21.0,52.0,52.0,144,48,70,72,67
2025-02-26 14:39:19.723,-626.0,-167.0,-96.0,-16.0,50.0,47.0,144,48,71,72,67
2025-02-26 14:39:19.725,-614.0,-142.0,-75.0,-9.0,43.0,44.0,143,47,71,71,67
2025-02-26 14:39:19.731,-596.0,-92.0,-67.0,-5.0,36.0,39.0,144,47,71,72,67
2025-02-26 14:39:19.736,-597.0,-53.0,-64.0,-5.0,32.0,34.0,143,48,70,72,68
2025-02-26 14:39:19.739,-598.0,-27.0,-95.0,-8.0,29.0,30.0,143,50,70,70,68
2025-02-26 14:39:19.747,-614.0,48.0,-109.0,-9.0,25.0,22.0,144,48,70,71,68
2025-02-26 14:39:19.751,-625.0,115.0,-126.0,-9.0,23.0,12.0,143,47,72,72,68
2025-02-26 14:39:19.756,-650.0,145.0,-149.0,-5.0,16.0,7.0,143,47,70,69,67
2025-02-26 14:39:19.760,-710.0,233.0,-163.0,1.0,10.0,-6.0,144,47,70,72,67
2025-02-26 14:39:19.762,-801.0,347.0,-185.0,5.0,6.0,-22.0,143,45,71,72,67
2025-02-26 14:39:19.768,-857.0,417.0,-180.0,17.0,-3.0,-30.0,143,47,69,72,68
2025-02-26 14:39:19.774,-1004.0,568.0,-164.0,33.0,-13.0,-47.0,142,47,71,73,68
2025-02-26 14:39:19.780,-1132.0,745.0,-125.0,42.0,-19.0,-68.0,142,49,71,72,68
2025-02-26 14:39:19.785,-1174.0,827.0,16.0,62.0,-26.0,-82.0,144,48,70,73,67
2025-02-26 14:39:19.788,-1126.0,1088.0,-38.0,90.0,-31.0,-119.0,144,48,73,73,68
2025-02-26 14:39:19.797,-1007.0,1317.0,-12.0,106.0,-28.0,-167.0,143,47,71,73,69
2025-02-26 14:39:19.801,-931.0,1472.0,2.0,135.0,-26.0,-193.0,143,48,72,73,69
2025-02-26 14:39:19.806,-815.0,1504.0,21.0,161.0,-20.0,-245.0,144,48,73,74,69
2025-02-26 14:39:19.810,-709.0,1506.0,16.0,173.0,-17.0,-295.0,144,47,73,73,69
2025-02-26 14:39:19.817,-641.0,1405.0,-28.0,197.0,-16.0,-342.0,146,50,74,75,69
2025-02-26 14:39:19.822,-446.0,1355.0,-77.0,218.0,-19.0,-364.0,144,49,74,76,69
2025-02-26 14:39:19.826,-217.0,1154.0,-89.0,237.0,-27.0,-404.0,143,48,76,75,70
2025-02-26 14:39:19.833,8.0,928.0,-108.0,246.0,-41.0,-437.0,144,48,75,75,70
2025-02-26 14:39:19.838,120.0,562.0,-70.0,261.0,-49.0,-463.0,142,48,74,75,70
2025-02-26 14:39:19.842,374.0,391.0,-42.0,280.0,-63.0,-474.0,142,49,77,77,69
2025-02-26 14:39:19.846,719.0,-31.0,94.0,283.0,-71.0,-486.0,143,48,77,77,71
2025-02-26 14:39:19.851,1081.0,-511.0,286.0,282.0,-73.0,-487.0,143,48,78,78,71
2025-02-26 14:39:19.858,1206.0,-1066.0,462.0,274.0,-75.0,-474.0,143,48,80,77,70
2025-02-26 14:39:19.863,1419.0,-1419.0,557.0,265.0,-81.0,-462.0,142,48,80,80,73
2025-02-26 14:39:19.867,1684.0,-2021.0,543.0,273.0,-100.0,-440.0,144,47,79,80,73
2025-02-26 14:39:19.871,1987.0,-3136.0,642.0,269.0,-127.0,-413.0,142,49,80,79,74
2025-02-26 14:39:19.878,2049.0,-3966.0,805.0,262.0,-141.0,-383.0,143,48,79,80,75
2025-02-26 14:39:19.883,2075.0,-4514.0,1178.0,261.0,-137.0,-331.0,144,48,76,78,75
2025-02-26 14:39:19.891,2007.0,-4711.0,1479.0,249.0,-144.0,-288.0,142,48,76,77,75
2025-02-26 14:39:19.896,2134.0,-4886.0,1668.0,189.0,-157.0,-184.0,142,48,73,75,75
2025-02-26 14:39:19.900,2163.0,-4875.0,1680.0,98.0,-145.0,-68.0,144,48,74,73,76
2025-02-26 14:39:19.907,1785.0,-4618.0,1560.0,54.0,-98.0,46.0,143,48,73,69,76
2025-02-26 14:39:19.912,1625.0,-3758.0,1363.0,-22.0,-62.0,139.0,143,49,76,64,74
2025-02-26 14:39:19.916,1354.0,-2955.0,1493.0,-110.0,-17.0,172.0,143,48,76,65,73
2025-02-26 14:39:19.924,1387.0,-2534.0,1437.0,-201.0,-4.0,225.0,143,48,73,66,74
2025-02-26 14:39:19.928,1055.0,-1905.0,1076.0,-252.0,17.0,238.0,143,49,72,67,74
2025-02-26 14:39:19.932,860.0,-1758.0,879.0,-272.0,14.0,236.0,143,49,71,67,73
2025-02-26 14:39:19.937,749.0,-1472.0,663.0,-316.0,19.0,230.0,144,49,72,67,74
2025-02-26 14:39:19.944,536.0,-1402.0,347.0,-333.0,17.0,225.0,144,50,75,70,73
2025-02-26 14:39:19.949,406.0,-1393.0,360.0,-309.0,-1.0,209.0,143,49,78,72,74
2025-02-26 14:39:19.953,288.0,-1515.0,238.0,-312.0,0.0,196.0,145,49,76,74,74
2025-02-26 14:39:19.956,304.0,-1620.0,119.0,-290.0,7.0,186.0,142,47,77,77,75
2025-02-26 14:39:19.965,201.0,-1613.0,33.0,-257.0,36.0,177.0,142,50,74,77,75
2025-02-26 14:39:19.967,81.0,-1767.0,90.0,-210.0,55.0,165.0,142,49,77,79,76
2025-02-26 14:39:19.973,137.0,-1836.0,0.0,-196.0,53.0,164.0,143,51,74,77,77
2025-02-26 14:39:19.977,72.0,-1811.0,90.0,-165.0,41.0,167.0,143,51,72,80,76
2025-02-26 14:39:19.979,114.0,-1836.0,137.0,-115.0,29.0,180.0,141,50,73,78,78
2025-02-26 14:39:19.989,194.0,-1766.0,98.0,-102.0,-7.0,194.0,142,50,75,81,77
2025-02-26 14:39:19.991,144.0,-1558.0,375.0,-81.0,-12.0,201.0,139,52,78,79,78
2025-02-26 14:39:19.998,278.0,-1539.0,231.0,-64.0,-6.0,221.0,142,50,77,83,78
2025-02-26 14:39:20.002,275.0,-1417.0,304.0,-60.0,4.0,238.0,142,50,77,83,79
2025-02-26 14:39:20.010,269.0,-1259.0,397.0,-49.0,13.0,252.0,141,51,78,83,80
2025-02-26 14:39:20.011,293.0,-1158.0,327.0,-78.0,22.0,256.0,140,49,78,84,81
2025-02-26 14:39:20.018,276.0,-900.0,394.0,-113.0,43.0,260.0,141,49,78,83,81
2025-02-26 14:39:20.023,229.0,-653.0,385.0,-126.0,61.0,259.0,142,50,77,83,82
2025-02-26 14:39:20.030,248.0,-488.0,291.0,-178.0,67.0,255.0,141,51,78,82,82
2025-02-26 14:39:20.035,87.0,-238.0,407.0,-224.0,84.0,249.0,141,49,75,81,82
2025-02-26 14:39:20.039,-93.0,-206.0,-27.0,-262.0,86.0,242.0,141,50,76,80,82
2025-02-26 14:39:20.043,-204.0,20.0,15.0,-310.0,84.0,232.0,143,53,76,81,82
2025-02-26 14:39:20.047,-382.0,55.0,194.0,-260.0,111.0,232.0,142,49,75,81,81
2025-02-26 14:39:20.055,-425.0,207.0,74.0,-236.0,102.0,224.0,142,50,75,77,81
2025-02-26 14:39:20.059,-404.0,242.0,322.0,-225.0,108.0,207.0,142,51,77,81,81
2025-02-26 14:39:20.064,-404.0,103.0,104.0,-210.0,102.0,197.0,141,52,76,81,82
2025-02-26 14:39:20.069,-471.0,14.0,10.0,-194.0,80.0,175.0,140,52,76,84,82
2025-02-26 14:39:20.075,-459.0,-1.0,19.0,-192.0,59.0,155.0,141,51,77,84,82
2025-02-26 14:39:20.080,-495.0,-38.0,-30.0,-208.0,49.0,146.0,142,51,74,82,82
2025-02-26 14:39:20.083,-521.0,-44.0,-6.0,-209.0,36.0,131.0,142,52,76,84,82
2025-02-26 14:39:20.088,-553.0,-167.0,154.0,-210.0,43.0,122.0,141,53,76,85,81
2025-02-26 14:39:20.095,-540.0,-137.0,-162.0,-169.0,41.0,114.0,141,49,76,84,79
2025-02-26 14:39:20.100,-590.0,-164.0,-237.0,-151.0,33.0,110.0,141,51,76,85,83
2025-02-26 14:39:20.102,-571.0,-146.0,-198.0,-130.0,25.0,99.0,140,53,76,84,82
2025-02-26 14:39:20.107,-600.0,-126.0,-204.0,-117.0,12.0,86.0,140,53,77,82,80
2025-02-26 14:39:20.116,-591.0,-20.0,-252.0,-103.0,7.0,72.0,141,51,78,81,80
2025-02-26 14:39:20.120,-619.0,5.0,-322.0,-88.0,-6.0,64.0,140,51,78,81,81
2025-02-26 14:39:20.125,-625.0,51.0,-341.0,-76.0,-2.0,49.0,140,52,79,79,81
2025-02-26 14:39:20.129,-650.0,44.0,-390.0,-72.0,-10.0,37.0,140,53,78,77,81
2025-02-26 14:39:20.133,-588.0,14.0,-95.0,-50.0,-18.0,32.0,140,50,76,76,81
2025-02-26 14:39:20.137,-598.0,-26.0,-5.0,-37.0,-5.0,26.0,138,51,79,77,82
2025-02-26 14:39:20.145,-612.0,-54.0,11.0,-13.0,0.0,21.0,140,50,77,77,83
2025-02-26 14:39:20.149,-612.0,-54.0,44.0,2.0,6.0,17.0,139,47,77,77,83
2025-02-26 14:39:20.153,-571.0,-4.0,-19.0,12.0,10.0,12.0,139,50,78,77,83
2025-02-26 14:39:20.156,-569.0,10.0,-56.0,21.0,10.0,9.0,140,51,76,76,84
2025-02-26 14:39:20.162,-581.0,40.0,-61.0,35.0,17.0,8.0,139,54,78,77,84
2025-02-26 14:39:20.166,-564.0,125.0,-148.0,41.0,22.0,4.0,137,50,76,77,83
2025-02-26 14:39:20.174,-584.0,201.0,-172.0,61.0,24.0,-3.0,136,49,76,77,84
2025-02-26 14:39:20.178,-665.0,244.0,-206.0,85.0,23.0,-8.0,139,50,77,76,83
2025-02-26 14:39:20.182,-726.0,341.0,-223.0,94.0,18.0,-21.0,138,50,78,76,84
2025-02-26 14:39:20.186,-785.0,480.0,-261.0,118.0,15.0,-37.0,138,50,77,76,83
2025-02-26 14:39:20.190,-887.0,545.0,-252.0,141.0,6.0,-46.0,138,51,75,69,81
2025-02-26 14:39:20.198,-926.0,669.0,-256.0,157.0,-4.0,-64.0,138,50,75,75,79
2025-02-26 14:39:20.202,-938.0,739.0,-276.0,186.0,-10.0,-82.0,140,51,74,78,76
2025-02-26 14:39:20.206,-987.0,702.0,-342.0,233.0,-33.0,-92.0,140,50,75,72,73
2025-02-26 14:39:20.211,-1015.0,864.0,-231.0,253.0,-45.0,-120.0,140,51,69,71,71
2025-02-26 14:39:20.218,-1024.0,904.0,64.0,290.0,-45.0,-146.0,138,50,76,73,68
2025-02-26 14:39:20.223,-1000.0,873.0,588.0,291.0,-22.0,-162.0,137,47,74,72,67
2025-02-26 14:39:20.227,-917.0,766.0,881.0,257.0,41.0,-192.0,135,49,74,72,64
2025-02-26 14:39:20.231,-806.0,807.0,-74.0,285.0,33.0,-224.0,137,51,75,72,66
2025-02-26 14:39:20.239,-645.0,764.0,278.0,301.0,32.0,-244.0,135,49,76,72,61
2025-02-26 14:39:20.243,-473.0,619.0,275.0,318.0,57.0,-272.0,129,47,76,74,60
2025-02-26 14:39:20.248,-325.0,537.0,-87.0,317.0,68.0,-306.0,132,47,76,71,60
2025-02-26 14:39:20.251,-394.0,322.0,-237.0,276.0,109.0,-327.0,125,48,75,75,57
2025-02-26 14:39:20.260,-246.0,447.0,-220.0,268.0,166.0,-356.0,129,49,72,69,55
2025-02-26 14:39:20.264,225.0,384.0,-470.0,290.0,181.0,-374.0,126,50,75,70,60
2025-02-26 14:39:20.268,314.0,166.0,-590.0,389.0,167.0,-411.0,121,48,76,70,56
2025-02-26 14:39:20.272,354.0,166.0,-700.0,504.0,107.0,-445.0,114,47,77,76,58
2025-02-26 14:39:20.280,362.0,305.0,-666.0,579.0,42.0,-481.0,114,48,78,70,60
2025-02-26 14:39:20.284,707.0,-288.0,-429.0,584.0,17.0,-464.0,113,52,78,72,59
2025-02-26 14:39:20.288,861.0,-662.0,-138.0,518.0,8.0,-428.0,112,48,78,71,58
2025-02-26 14:39:20.293,1020.0,-927.0,259.0,466.0,-7.0,-402.0,109,47,76,71,59
2025-02-26 14:39:20.301,1166.0,-1411.0,590.0,419.0,-25.0,-346.0,108,47,74,70,58
2025-02-26 14:39:20.305,1569.0,-2516.0,1773.0,405.0,-42.0,-270.0,108,48,74,71,60
2025-02-26 14:39:20.309,1873.0,-3645.0,2538.0,407.0,-60.0,-191.0,107,47,75,70,61
2025-02-26 14:39:20.317,2343.0,-4469.0,2710.0,417.0,-59.0,-146.0,107,46,75,69,60
2025-02-26 14:39:20.321,2559.0,-4719.0,2833.0,362.0,22.0,-50.0,106,47,78,70,61
2025-02-26 14:39:20.326,2391.0,-4914.0,2891.0,302.0,108.0,40.0,107,47,75,68,61
2025-02-26 14:39:20.330,1876.0,-4522.0,2564.0,320.0,85.0,100.0,105,47,75,68,61
2025-02-26 14:39:20.338,1453.0,-3332.0,3327.0,302.0,89.0,128.0,105,46,75,67,60
2025-02-26 14:39:20.341,990.0,-2716.0,2699.0,108.0,83.0,134.0,104,47,75,65,60
2025-02-26 14:39:20.343,637.0,-1443.0,2575.0,-78.0,69.0,123.0,104,49,77,66,60
2025-02-26 14:39:20.354,320.0,-750.0,2158.0,-163.0,40.0,79.0,105,47,77,65,59
2025-02-26 14:39:20.358,145.0,-552.0,1795.0,-324.0,19.0,40.0,103,46,78,66,57
2025-02-26 14:39:20.362,256.0,-641.0,1283.0,-422.0,21.0,26.0,104,46,77,68,58
2025-02-26 14:39:20.366,235.0,-973.0,1035.0,-474.0,12.0,2.0,103,47,77,69,57
2025-02-26 14:39:20.370,210.0,-1470.0,654.0,-480.0,7.0,-1.0,105,46,76,71,56
2025-02-26 14:39:20.378,214.0,-1667.0,309.0,-461.0,11.0,3.0,101,45,75,69,56
2025-02-26 14:39:20.381,144.0,-2062.0,191.0,-407.0,4.0,19.0,102,48,76,72,58
2025-02-26 14:39:20.387,76.0,-2349.0,-11.0,-377.0,-3.0,44.0,102,47,72,72,58
2025-02-26 14:39:20.391,51.0,-2424.0,-86.0,-312.0,-4.0,59.0,103,48,72,73,58
2025-02-26 14:39:20.398,40.0,-2471.0,-64.0,-244.0,-12.0,92.0,102,47,72,74,58
2025-02-26 14:39:20.403,99.0,-2354.0,-17.0,-214.0,-18.0,125.0,102,46,73,74,59
2025-02-26 14:39:20.408,129.0,-2139.0,90.0,-160.0,-18.0,156.0,104,48,72,71,59
2025-02-26 14:39:20.411,176.0,-2009.0,205.0,-121.0,-17.0,168.0,105,48,73,72,60
2025-02-26 14:39:20.417,241.0,-1778.0,288.0,-97.0,-16.0,190.0,102,48,74,73,61
2025-02-26 14:39:20.424,223.0,-1522.0,368.0,-89.0,-15.0,207.0,104,52,76,73,58
2025-02-26 14:39:20.428,210.0,-1261.0,420.0,-81.0,-18.0,213.0,103,47,73,73,61
2025-02-26 14:39:20.432,173.0,-1136.0,487.0,-78.0,-21.0,212.0,104,47,74,77,62
2025-02-26 14:39:20.440,143.0,-907.0,491.0,-90.0,-20.0,209.0,103,46,75,72,62
2025-02-26 14:39:20.444,99.0,-706.0,464.0,-99.0,-16.0,202.0,103,46,74,73,63
2025-02-26 14:39:20.447,67.0,-610.0,454.0,-119.0,-12.0,196.0,105,47,73,73,62
2025-02-26 14:39:20.452,11.0,-442.0,422.0,-141.0,-15.0,182.0,105,49,75,72,64
2025-02-26 14:39:20.456,-79.0,-304.0,338.0,-152.0,-17.0,167.0,104,46,76,73,64
2025-02-26 14:39:20.464,-119.0,-250.0,244.0,-177.0,-19.0,152.0,99,48,74,72,64
2025-02-26 14:39:20.469,-233.0,-246.0,131.0,-198.0,-23.0,146.0,104,46,76,76,65
2025-02-26 14:39:20.471,-324.0,-284.0,108.0,-207.0,-30.0,134.0,108,47,74,74,64
2025-02-26 14:39:20.481,-369.0,-350.0,48.0,-209.0,-36.0,123.0,106,49,76,72,64
2025-02-26 14:39:20.484,-387.0,-421.0,17.0,-209.0,-39.0,115.0,104,46,75,72,63
2025-02-26 14:39:20.489,-432.0,-453.0,9.0,-206.0,-41.0,113.0,105,47,74,73,64
2025-02-26 14:39:20.493,-447.0,-484.0,5.0,-200.0,-43.0,109.0,106,46,75,72,64
2025-02-26 14:39:20.501,-459.0,-514.0,10.0,-195.0,-44.0,106.0,105,47,74,74,64
2025-02-26 14:39:20.505,-466.0,-503.0,20.0,-185.0,-44.0,104.0,107,48,68,73,64
2025-02-26 14:39:20.509,-476.0,-517.0,14.0,-176.0,-43.0,101.0,105,49,74,74,64
2025-02-26 14:39:20.514,-501.0,-479.0,-13.0,-173.0,-37.0,101.0,105,48,74,73,66
2025-02-26 14:39:20.522,-491.0,-455.0,-2.0,-164.0,-34.0,98.0,105,48,73,73,65
2025-02-26 14:39:20.525,-507.0,-426.0,-21.0,-153.0,-26.0,96.0,106,48,75,72,66
2025-02-26 14:39:20.530,-509.0,-398.0,-35.0,-143.0,-17.0,92.0,107,48,76,73,66
2025-02-26 14:39:20.535,-510.0,-367.0,-64.0,-138.0,-7.0,89.0,107,48,76,74,63
2025-02-26 14:39:20.542,-519.0,-330.0,-103.0,-127.0,-4.0,84.0,107,50,75,73,64
2025-02-26 14:39:20.544,-538.0,-322.0,-106.0,-115.0,4.0,83.0,106,48,72,73,66
2025-02-26 14:39:20.551,-544.0,-279.0,-148.0,-102.0,10.0,78.0,107,48,73,74,65
2025-02-26 14:39:20.555,-548.0,-249.0,-155.0,-97.0,14.0,73.0,106,48,71,73,65
2025-02-26 14:39:20.562,-530.0,-204.0,-184.0,-85.0,15.0,67.0,108,49,74,73,65
2025-02-26 14:39:20.566,-521.0,-192.0,-196.0,-76.0,16.0,65.0,106,49,74,73,64
2025-02-26 14:39:20.571,-537.0,-177.0,-196.0,-71.0,15.0,58.0,107,47,73,72,66
2025-02-26 14:39:20.575,-530.0,-143.0,-201.0,-63.0,13.0,50.0,105,48,72,72,65
2025-02-26 14:39:20.579,-559.0,-132.0,-217.0,-55.0,8.0,47.0,106,48,74,72,65
2025-02-26 14:39:20.587,-570.0,-88.0,-227.0,-49.0,1.0,42.0,107,47,74,73,65
2025-02-26 14:39:20.592,-599.0,-45.0,-237.0,-46.0,-3.0,38.0,105,49,74,75,66
2025-02-26 14:39:20.596,-610.0,-7.0,-229.0,-39.0,-11.0,36.0,106,46,73,72,65
2025-02-26 14:39:20.600,-663.0,52.0,-239.0,-31.0,-19.0,31.0,107,49,74,70,65
2025-02-26 14:39:20.608,-722.0,153.0,-223.0,-27.0,-22.0,26.0,107,49,73,72,66
2025-02-26 14:39:20.611,-764.0,233.0,-221.0,-18.0,-28.0,23.0,107,47,73,72,65
2025-02-26 14:39:20.616,-880.0,372.0,-213.0,-9.0,-31.0,17.0,106,48,74,73,66
2025-02-26 14:39:20.620,-1052.0,549.0,-115.0,-3.0,-38.0,11.0,107,49,75,72,66
2025-02-26 14:39:20.625,-1085.0,773.0,-104.0,6.0,-40.0,-1.0,107,49,73,72,65
2025-02-26 14:39:20.632,-1232.0,898.0,25.0,28.0,-37.0,-11.0,106,47,74,73,65
2025-02-26 14:39:20.637,-1256.0,1185.0,74.0,41.0,-33.0,-47.0,108,48,72,72,66
2025-02-26 14:39:20.641,-1271.0,1447.0,232.0,75.0,-26.0,-102.0,108,49,75,74,66
2025-02-26 14:39:20.645,-1285.0,1580.0,355.0,122.0,-8.0,-136.0,107,47,75,73,67
2025-02-26 14:39:20.652,-1166.0,1799.0,424.0,175.0,15.0,-211.0,107,48,75,73,67
2025-02-26 14:39:20.657,-944.0,1874.0,467.0,202.0,51.0,-280.0,110,49,76,74,67
2025-02-26 14:39:20.661,-827.0,1712.0,418.0,256.0,68.0,-344.0,109,48,77,74,70
2025-02-26 14:39:20.665,-599.0,1539.0,401.0,307.0,97.0,-374.0,108,47,78,75,67
2025-02-26 14:39:20.671,-300.0,1235.0,372.0,356.0,114.0,-428.0,109,47,77,74,69
2025-02-26 14:39:20.677,15.0,939.0,296.0,378.0,119.0,-473.0,110,46,77,76,69
2025-02-26 14:39:20.682,177.0,616.0,244.0,422.0,122.0,-510.0,109,48,80,75,71
2025-02-26 14:39:20.682,550.0,464.0,226.0,458.0,121.0,-527.0,109,46,80,76,71
2025-02-26 14:39:20.693,873.0,117.0,207.0,489.0,101.0,-562.0,109,49,81,76,70
2025-02-26 14:39:20.695,1131.0,-401.0,243.0,495.0,80.0,-589.0,110,48,81,76,72
2025-02-26 14:39:20.702,1310.0,-956.0,463.0,503.0,38.0,-588.0,105,49,82,71,72
2025-02-26 14:39:20.705,1715.0,-1286.0,520.0,509.0,7.0,-555.0,108,48,84,77,73
2025-02-26 14:39:20.714,2036.0,-2116.0,620.0,509.0,-25.0,-501.0,108,49,83,78,74
2025-02-26 14:39:20.718,2278.0,-3019.0,783.0,509.0,-46.0,-436.0,109,49,83,77,75
2025-02-26 14:39:20.720,2427.0,-4135.0,1167.0,497.0,-82.0,-341.0,110,48,85,78,75
2025-02-26 14:39:20.731,2635.0,-4596.0,1805.0,523.0,-78.0,-275.0,111,50,82,77,75
2025-02-26 14:39:20.735,2776.0,-5342.0,2012.0,531.0,-37.0,-131.0,112,49,81,76,74
2025-02-26 14:39:20.739,2791.0,-5286.0,2317.0,520.0,33.0,5.0,112,50,80,73,74
2025-02-26 14:39:20.743,2530.0,-4371.0,2276.0,484.0,65.0,112.0,112,50,76,68,72
2025-02-26 14:39:20.748,2349.0,-3230.0,2416.0,386.0,119.0,177.0,113,50,78,66,71
2025-02-26 14:39:20.756,1897.0,-2645.0,2251.0,239.0,155.0,193.0,113,50,81,65,71
2025-02-26 14:39:20.759,1471.0,-1744.0,2351.0,97.0,177.0,195.0,114,51,82,63,69
2025-02-26 14:39:20.768,958.0,-929.0,1974.0,-1.0,177.0,176.0,114,50,83,64,69
2025-02-26 14:39:20.772,848.0,-800.0,1591.0,-128.0,177.0,156.0,116,50,83,64,68
2025-02-26 14:39:20.776,592.0,-642.0,1227.0,-252.0,161.0,146.0,113,49,83,65,69
2025-02-26 14:39:20.781,445.0,-841.0,935.0,-327.0,138.0,140.0,116,51,80,68,69
2025-02-26 14:39:20.788,330.0,-1236.0,624.0,-332.0,98.0,125.0,113,50,79,68,69
2025-02-26 14:39:20.793,280.0,-1560.0,321.0,-347.0,75.0,131.0,114,50,76,68,68
2025-02-26 14:39:20.797,244.0,-1740.0,209.0,-312.0,51.0,133.0,114,50,74,69,71
2025-02-26 14:39:20.801,269.0,-1997.0,240.0,-233.0,36.0,134.0,115,53,74,71,72
2025-02-26 14:39:20.808,260.0,-2097.0,138.0,-196.0,37.0,138.0,116,50,72,73,72
2025-02-26 14:39:20.813,241.0,-2153.0,280.0,-121.0,37.0,143.0,117,48,77,73,73
2025-02-26 14:39:20.817,276.0,-2112.0,340.0,-76.0,28.0,147.0,117,50,80,76,74
2025-02-26 14:39:20.821,228.0,-1955.0,497.0,-24.0,8.0,153.0,118,49,81,77,75
2025-02-26 14:39:20.829,291.0,-1719.0,696.0,1.0,6.0,168.0,119,50,80,79,76
2025-02-26 14:39:20.833,392.0,-1625.0,677.0,22.0,26.0,175.0,120,50,81,80,76
2025-02-26 14:39:20.838,338.0,-1331.0,724.0,33.0,44.0,188.0,123,52,84,80,79
2025-02-26 14:39:20.842,350.0,-1135.0,745.0,39.0,53.0,197.0,122,51,82,82,81
2025-02-26 14:39:20.846,289.0,-1020.0,737.0,31.0,64.0,202.0,125,49,77,81,81
2025-02-26 14:39:20.854,253.0,-768.0,707.0,20.0,77.0,211.0,124,53,83,83,81
2025-02-26 14:39:20.857,106.0,-602.0,517.0,2.0,77.0,216.0,126,52,82,80,83
2025-02-26 14:39:20.862,73.0,-538.0,626.0,-29.0,86.0,219.0,126,51,82,80,83
2025-02-26 14:39:20.863,-16.0,-399.0,463.0,-66.0,80.0,219.0,129,54,83,81,83
2025-02-26 14:39:20.870,-149.0,-255.0,470.0,-87.0,78.0,218.0,129,50,82,78,83
2025-02-26 14:39:20.878,-203.0,-284.0,375.0,-124.0,76.0,217.0,129,52,81,78,82
2025-02-26 14:39:20.882,-284.0,-159.0,585.0,-147.0,90.0,214.0,130,54,82,78,85
2025-02-26 14:39:20.886,-355.0,-54.0,495.0,-153.0,97.0,208.0,130,52,79,74,83
2025-02-26 14:39:20.891,-410.0,-33.0,272.0,-150.0,97.0,196.0,130,52,82,76,82
2025-02-26 14:39:20.898,-482.0,69.0,396.0,-128.0,102.0,188.0,131,52,84,75,83
2025-02-26 14:39:20.903,-515.0,117.0,430.0,-126.0,115.0,171.0,131,53,83,76,82
2025-02-26 14:39:20.907,-533.0,109.0,362.0,-122.0,121.0,155.0,133,53,84,74,82
2025-02-26 14:39:20.911,-548.0,100.0,295.0,-103.0,139.0,148.0,131,53,84,75,81
2025-02-26 14:39:20.919,-563.0,22.0,231.0,-88.0,150.0,133.0,130,52,83,75,81
2025-02-26 14:39:20.924,-606.0,-45.0,138.0,-84.0,156.0,120.0,132,53,84,76,80
2025-02-26 14:39:20.927,-635.0,-91.0,7.0,-81.0,157.0,109.0,133,53,83,73,81
2025-02-26 14:39:20.932,-679.0,-110.0,-116.0,-80.0,151.0,105.0,135,54,85,75,80
2025-02-26 14:39:20.940,-686.0,-197.0,-121.0,-57.0,151.0,99.0,132,52,84,75,80
2025-02-26 14:39:20.944,-589.0,-332.0,-133.0,-52.0,149.0,100.0,133,51,85,73,79
2025-02-26 14:39:20.948,-564.0,-372.0,-477.0,-27.0,142.0,94.0,133,53,86,74,80
2025-02-26 14:39:20.952,-673.0,-522.0,-342.0,7.0,124.0,92.0,132,53,87,74,82
2025-02-26 14:39:20.959,-601.0,-555.0,-189.0,7.0,118.0,92.0,132,54,86,73,81
2025-02-26 14:39:20.964,-564.0,-579.0,-282.0,32.0,121.0,97.0,134,55,90,74,82
2025-02-26 14:39:20.968,-666.0,-571.0,-292.0,63.0,112.0,89.0,133,55,85,73,82
2025-02-26 14:39:20.972,-698.0,-688.0,-453.0,77.0,98.0,97.0,133,57,84,73,84
2025-02-26 14:39:20.977,-551.0,-438.0,-242.0,83.0,97.0,97.0,132,59,84,74,83
2025-02-26 14:39:20.984,-437.0,-419.0,-216.0,130.0,99.0,95.0,135,60,89,73,84
2025-02-26 14:39:20.988,-576.0,-536.0,-388.0,146.0,80.0,88.0,134,62,87,73,84
2025-02-26 14:39:20.993,-622.0,-682.0,-45.0,127.0,77.0,83.0,132,63,85,72,83
2025-02-26 14:39:20.997,-459.0,-356.0,115.0,127.0,84.0,88.0,134,65,85,73,84
2025-02-26 14:39:21.005,-359.0,-225.0,-69.0,146.0,84.0,89.0,133,68,85,71,84
2025-02-26 14:39:21.009,-506.0,-307.0,-229.0,147.0,71.0,81.0,133,68,85,72,84
2025-02-26 14:39:21.014,-450.0,-285.0,-85.0,160.0,72.0,75.0,132,74,89,71,83
2025-02-26 14:39:21.017,-407.0,-322.0,-342.0,150.0,62.0,74.0,133,77,87,71,84
2025-02-26 14:39:21.022,-487.0,-316.0,-431.0,143.0,39.0,62.0,132,79,89,70,84
2025-02-26 14:39:21.030,-542.0,-252.0,-150.0,128.0,37.0,54.0,130,83,84,68,83
2025-02-26 14:39:21.034,-553.0,-259.0,-220.0,141.0,30.0,53.0,133,85,84,73,83
2025-02-26 14:39:21.038,-625.0,-280.0,-240.0,161.0,21.0,49.0,130,87,83,71,84
2025-02-26 14:39:21.043,-617.0,-291.0,-337.0,168.0,13.0,45.0,128,88,89,68,84
2025-02-26 14:39:21.050,-606.0,-271.0,-444.0,182.0,3.0,44.0,127,90,85,68,83
2025-02-26 14:39:21.055,-652.0,-225.0,-462.0,208.0,-6.0,39.0,121,89,81,70,83
2025-02-26 14:39:21.059,-690.0,-193.0,-806.0,213.0,-29.0,35.0,124,92,81,67,82
2025-02-26 14:39:21.063,-667.0,-125.0,-912.0,237.0,-38.0,25.0,116,92,83,67,83
2025-02-26 14:39:21.071,-671.0,-98.0,-971.0,275.0,-40.0,22.0,113,94,81,67,81
2025-02-26 14:39:21.075,-723.0,-184.0,-1203.0,320.0,-55.0,12.0,109,93,81,66,84
2025-02-26 14:39:21.079,-713.0,-7.0,-1392.0,347.0,-81.0,-5.0,106,96,80,65,80
2025-02-26 14:39:21.083,-719.0,108.0,-1607.0,386.0,-97.0,-23.0,105,98,80,65,80
2025-02-26 14:39:21.089,-773.0,98.0,-1718.0,422.0,-140.0,-31.0,103,97,78,67,80
2025-02-26 14:39:21.095,-784.0,115.0,-1656.0,467.0,-191.0,-49.0,97,98,80,64,79
2025-02-26 14:39:21.099,-830.0,357.0,-1900.0,491.0,-261.0,-80.0,97,101,80,66,79
2025-02-26 14:39:21.108,-796.0,351.0,-1623.0,540.0,-293.0,-88.0,98,102,79,64,78
2025-02-26 14:39:21.111,-605.0,311.0,-1026.0,575.0,-336.0,-97.0,96,101,77,64,80
2025-02-26 14:39:21.114,-186.0,466.0,-985.0,609.0,-380.0,-119.0,95,103,79,64,79
2025-02-26 14:39:21.120,36.0,946.0,-883.0,632.0,-447.0,-144.0,94,103,77,63,80
2025-02-26 14:39:21.128,338.0,1023.0,-355.0,620.0,-511.0,-169.0,92,104,77,63,81
2025-02-26 14:39:21.132,555.0,992.0,438.0,577.0,-537.0,-185.0,92,103,78,62,81
2025-02-26 14:39:21.137,885.0,1033.0,1291.0,547.0,-571.0,-184.0,90,105,78,63,82
2025-02-26 14:39:21.143,1032.0,1032.0,1482.0,508.0,-607.0,-172.0,92,105,78,63,81
2025-02-26 14:39:21.149,1293.0,839.0,1993.0,493.0,-628.0,-164.0,91,97,80,65,82
2025-02-26 14:39:21.153,1490.0,415.0,2889.0,474.0,-627.0,-144.0,90,97,80,64,82
2025-02-26 14:39:21.157,1549.0,151.0,3883.0,423.0,-590.0,-126.0,92,103,81,63,83
2025-02-26 14:39:21.165,1839.0,88.0,4739.0,351.0,-507.0,-79.0,93,98,86,63,84
2025-02-26 14:39:21.169,1923.0,-7.0,4886.0,247.0,-409.0,-43.0,94,102,84,64,84
2025-02-26 14:39:21.174,1892.0,-47.0,5242.0,187.0,-291.0,-27.0,91,100,85,64,83
2025-02-26 14:39:21.178,1765.0,-188.0,5340.0,77.0,-228.0,-24.0,91,103,83,64,85
2025-02-26 14:39:21.185,1591.0,-218.0,5283.0,-24.0,-97.0,-21.0,90,110,83,63,81
2025-02-26 14:39:21.190,1517.0,-567.0,5266.0,-112.0,56.0,10.0,88,106,84,64,84
2025-02-26 14:39:21.194,1350.0,-780.0,4705.0,-160.0,185.0,43.0,87,106,83,65,83
2025-02-26 14:39:21.202,1309.0,-712.0,3899.0,-249.0,233.0,76.0,87,105,81,64,83
2025-02-26 14:39:21.204,1291.0,-845.0,3160.0,-302.0,309.0,89.0,86,102,81,64,81
2025-02-26 14:39:21.210,1180.0,-777.0,2743.0,-325.0,339.0,106.0,83,103,79,64,80
2025-02-26 14:39:21.215,904.0,-959.0,2090.0,-327.0,336.0,130.0,83,108,76,61,78
2025-02-26 14:39:21.222,787.0,-866.0,1568.0,-327.0,326.0,143.0,84,107,77,60,76
2025-02-26 14:39:21.227,517.0,-786.0,1228.0,-313.0,296.0,149.0,81,109,78,63,75
2025-02-26 14:39:21.231,316.0,-757.0,1070.0,-290.0,252.0,159.0,81,108,77,64,74
2025-02-26 14:39:21.235,177.0,-664.0,955.0,-279.0,205.0,155.0,81,108,79,63,75
2025-02-26 14:39:21.243,105.0,-585.0,925.0,-250.0,183.0,148.0,82,110,82,65,74
2025-02-26 14:39:21.246,48.0,-565.0,1031.0,-226.0,148.0,144.0,81,108,81,63,73
2025-02-26 14:39:21.251,93.0,-558.0,1072.0,-199.0,129.0,138.0,81,108,81,64,74
2025-02-26 14:39:21.255,83.0,-458.0,1204.0,-193.0,121.0,134.0,82,109,83,64,74
2025-02-26 14:39:21.263,125.0,-385.0,1315.0,-164.0,119.0,127.0,78,108,82,64,74
2025-02-26 14:39:21.264,127.0,-415.0,1439.0,-160.0,126.0,125.0,82,111,83,64,75
2025-02-26 14:39:21.272,135.0,-290.0,1436.0,-139.0,141.0,122.0,82,108,82,61,75
2025-02-26 14:39:21.276,107.0,-137.0,1326.0,-141.0,149.0,116.0,84,109,82,64,75
2025-02-26 14:39:21.284,60.0,-182.0,1255.0,-133.0,156.0,108.0,79,108,82,68,75
2025-02-26 14:39:21.288,75.0,-140.0,1097.0,-123.0,167.0,103.0,83,104,82,64,75
2025-02-26 14:39:21.292,-50.0,-87.0,1098.0,-122.0,176.0,102.0,83,102,81,65,75
2025-02-26 14:39:21.300,-134.0,-77.0,949.0,-119.0,179.0,96.0,82,104,79,65,74
2025-02-26 14:39:21.304,-192.0,-66.0,771.0,-108.0,178.0,91.0,84,98,79,65,75
2025-02-26 14:39:21.307,-212.0,-64.0,662.0,-105.0,177.0,92.0,83,100,75,64,76
2025-02-26 14:39:21.313,-307.0,-39.0,610.0,-103.0,171.0,88.0,84,103,75,63,75
2025-02-26 14:39:21.317,-360.0,-12.0,474.0,-101.0,162.0,84.0,83,102,74,65,75
2025-02-26 14:39:21.324,-386.0,27.0,433.0,-100.0,156.0,81.0,77,101,74,65,75
2025-02-26 14:39:21.329,-448.0,5.0,389.0,-99.0,145.0,77.0,85,106,71,66,75
2025-02-26 14:39:21.330,-496.0,71.0,423.0,-98.0,131.0,69.0,88,100,71,64,76
2025-02-26 14:39:21.337,-543.0,99.0,293.0,-103.0,128.0,65.0,84,105,71,65,76
2025-02-26 14:39:21.341,-557.0,36.0,254.0,-102.0,114.0,56.0,84,105,71,66,73
2025-02-26 14:39:21.349,-603.0,2.0,220.0,-103.0,103.0,47.0,81,106,72,65,75
2025-02-26 14:39:21.353,-610.0,16.0,189.0,-105.0,98.0,39.0,83,104,74,64,76
2025-02-26 14:39:21.357,-630.0,20.0,156.0,-103.0,89.0,36.0,82,106,72,65,75
2025-02-26 14:39:21.361,-654.0,-10.0,146.0,-104.0,83.0,29.0,85,101,72,64,74
2025-02-26 14:39:21.366,-670.0,-80.0,88.0,-100.0,79.0,22.0,84,104,73,61,75
2025-02-26 14:39:21.374,-699.0,-108.0,80.0,-101.0,76.0,19.0,84,102,74,64,76
2025-02-26 14:39:21.378,-666.0,-101.0,45.0,-100.0,75.0,14.0,84,100,74,64,76
2025-02-26 14:39:21.382,-655.0,-197.0,9.0,-97.0,75.0,12.0,84,103,74,63,74
2025-02-26 14:39:21.387,-659.0,-189.0,-29.0,-97.0,75.0,12.0,83,100,75,64,76
2025-02-26 14:39:21.394,-658.0,-224.0,-36.0,-96.0,74.0,13.0,84,103,75,66,76
2025-02-26 14:39:21.398,-662.0,-248.0,-42.0,-94.0,75.0,16.0,86,105,75,63,75
2025-02-26 14:39:21.403,-654.0,-241.0,-88.0,-85.0,73.0,16.0,84,104,77,65,76
2025-02-26 14:39:21.407,-665.0,-292.0,-96.0,-82.0,71.0,19.0,85,100,78,63,76
2025-02-26 14:39:21.411,-670.0,-185.0,-114.0,-75.0,71.0,18.0,84,106,77,64,75
2025-02-26 14:39:21.419,-681.0,-276.0,-87.0,-64.0,68.0,17.0,85,104,77,64,75
2025-02-26 14:39:21.423,-646.0,-216.0,-93.0,-59.0,68.0,13.0,84,105,79,65,76
2025-02-26 14:39:21.427,-680.0,-234.0,-161.0,-47.0,67.0,12.0,84,104,77,64,75
2025-02-26 14:39:21.432,-679.0,-194.0,-191.0,-39.0,66.0,11.0,84,104,78,64,76
2025-02-26 14:39:21.434,-751.0,-170.0,-217.0,-26.0,66.0,7.0,84,106,79,66,75
2025-02-26 14:39:21.443,-730.0,-191.0,-260.0,-20.0,65.0,3.0,84,103,77,66,75
2025-02-26 14:39:21.447,-748.0,-136.0,-305.0,-9.0,68.0,2.0,82,103,77,67,76
2025-02-26 14:39:21.451,-769.0,-101.0,-333.0,-2.0,71.0,-1.0,84,102,77,65,74
2025-02-26 14:39:21.456,-770.0,6.0,-411.0,-1.0,73.0,-3.0,84,103,74,66,73
2025-02-26 14:39:21.460,-797.0,56.0,-501.0,-1.0,78.0,-5.0,84,107,77,67,73
2025-02-26 14:39:21.467,-843.0,212.0,-579.0,0.0,85.0,-10.0,84,106,74,67,72
2025-02-26 14:39:21.472,-867.0,329.0,-804.0,6.0,85.0,-14.0,81,108,74,66,71
2025-02-26 14:39:21.476,-892.0,402.0,-1003.0,9.0,82.0,-18.0,82,106,72,66,71
2025-02-26 14:39:21.480,-1007.0,356.0,-1155.0,28.0,63.0,-28.0,83,102,71,67,71
2025-02-26 14:39:21.488,-1030.0,409.0,-1463.0,43.0,47.0,-46.0,82,101,69,65,70
2025-02-26 14:39:21.492,-1147.0,346.0,-1879.0,69.0,-2.0,-53.0,81,105,68,67,69
2025-02-26 14:39:21.495,-1241.0,327.0,-1994.0,109.0,-61.0,-81.0,80,107,66,65,69
2025-02-26 14:39:21.501,-1381.0,327.0,-2194.0,135.0,-125.0,-114.0,81,108,66,66,71
2025-02-26 14:39:21.508,-1383.0,243.0,-2364.0,183.0,-159.0,-144.0,82,105,65,66,71
2025-02-26 14:39:21.513,-1314.0,281.0,-2416.0,235.0,-229.0,-167.0,81,106,63,64,71
2025-02-26 14:39:21.518,-1123.0,391.0,-2233.0,284.0,-299.0,-179.0,81,105,64,65,70
2025-02-26 14:39:21.525,-920.0,576.0,-1937.0,327.0,-370.0,-199.0,84,107,65,65,72
2025-02-26 14:39:21.529,-567.0,686.0,-1726.0,358.0,-436.0,-213.0,82,107,67,67,73
2025-02-26 14:39:21.534,-84.0,774.0,-1168.0,368.0,-492.0,-223.0,85,106,69,64,73
2025-02-26 14:39:21.542,496.0,823.0,-545.0,382.0,-526.0,-232.0,86,107,72,66,74
2025-02-26 14:39:21.544,793.0,720.0,109.0,386.0,-537.0,-227.0,86,106,74,66,74
2025-02-26 14:39:21.550,1347.0,608.0,955.0,369.0,-543.0,-218.0,87,107,75,66,75
2025-02-26 14:39:21.554,1702.0,364.0,1401.0,347.0,-538.0,-186.0,86,107,77,66,77
2025-02-26 14:39:21.562,1833.0,77.0,2333.0,340.0,-529.0,-147.0,86,107,77,67,77
2025-02-26 14:39:21.566,1909.0,-291.0,3243.0,341.0,-519.0,-102.0,88,108,77,69,78
2025-02-26 14:39:21.567,2130.0,-415.0,4046.0,341.0,-488.0,-91.0,87,106,79,67,78
2025-02-26 14:39:21.578,2382.0,-942.0,5052.0,358.0,-443.0,-65.0,88,108,78,68,79
2025-02-26 14:39:21.582,2551.0,-1387.0,5449.0,345.0,-366.0,-36.0,90,108,81,68,80
2025-02-26 14:39:21.587,2729.0,-1477.0,6228.0,316.0,-242.0,-8.0,90,100,82,67,81
2025-02-26 14:39:21.595,2783.0,-1173.0,6523.0,229.0,-167.0,9.0,92,99,88,67,81
2025-02-26 14:39:21.599,2441.0,-928.0,6597.0,103.0,1.0,14.0,90,104,83,67,81
2025-02-26 14:39:21.604,1978.0,-117.0,6499.0,-72.0,159.0,21.0,87,106,86,67,80
2025-02-26 14:39:21.608,1640.0,28.0,5699.0,-139.0,287.0,33.0,89,108,84,65,81
2025-02-26 14:39:21.615,1315.0,-203.0,4495.0,-293.0,339.0,29.0,87,110,84,65,76
2025-02-26 14:39:21.620,1304.0,-235.0,3412.0,-412.0,396.0,28.0,85,109,84,65,79
2025-02-26 14:39:21.624,1194.0,-355.0,2807.0,-475.0,413.0,26.0,86,111,87,65,77
2025-02-26 14:39:21.629,918.0,-497.0,1816.0,-492.0,390.0,31.0,81,109,85,66,75
2025-02-26 14:39:21.636,802.0,-711.0,1102.0,-488.0,371.0,34.0,82,113,83,65,74
2025-02-26 14:39:21.640,401.0,-816.0,546.0,-465.0,311.0,40.0,83,110,82,65,72
2025-02-26 14:39:21.644,170.0,-1066.0,336.0,-425.0,238.0,57.0,83,110,80,67,67
2025-02-26 14:39:21.649,36.0,-1315.0,97.0,-405.0,174.0,74.0,83,115,77,68,72
2025-02-26 14:39:21.656,-30.0,-1452.0,110.0,-365.0,150.0,82.0,81,109,76,67,71
2025-02-26 14:39:21.660,-167.0,-1587.0,139.0,-324.0,108.0,97.0,83,111,74,68,71
2025-02-26 14:39:21.665,-98.0,-1485.0,309.0,-300.0,73.0,112.0,84,110,74,70,72
2025-02-26 14:39:21.669,-35.0,-1241.0,542.0,-254.0,63.0,124.0,85,109,73,67,72
2025-02-26 14:39:21.677,35.0,-1093.0,686.0,-223.0,54.0,126.0,84,109,73,68,74
2025-02-26 14:39:21.681,110.0,-834.0,744.0,-195.0,49.0,124.0,83,110,73,70,74
2025-02-26 14:39:21.686,154.0,-639.0,818.0,-184.0,33.0,114.0,86,111,75,68,73
2025-02-26 14:39:21.689,116.0,-509.0,762.0,-183.0,30.0,110.0,84,109,76,68,74
2025-02-26 14:39:21.698,105.0,-395.0,759.0,-183.0,32.0,111.0,86,110,74,68,74
2025-02-26 14:39:21.701,1.0,-266.0,781.0,-187.0,35.0,112.0,87,112,77,68,76
2025-02-26 14:39:21.706,-16.0,-241.0,745.0,-191.0,36.0,115.0,87,112,76,67,75
2025-02-26 14:39:21.710,-78.0,-183.0,700.0,-201.0,42.0,116.0,86,111,78,69,76
2025-02-26 14:39:21.714,-114.0,-25.0,659.0,-195.0,52.0,119.0,87,110,75,68,75
2025-02-26 14:39:21.722,-208.0,-15.0,633.0,-197.0,68.0,120.0,89,110,76,69,76
2025-02-26 14:39:21.725,-221.0,-5.0,548.0,-200.0,75.0,123.0,88,110,76,68,75
2025-02-26 14:39:21.730,-316.0,38.0,559.0,-206.0,88.0,125.0,90,110,77,68,76
2025-02-26 14:39:21.735,-398.0,53.0,450.0,-209.0,99.0,128.0,89,111,77,68,76
2025-02-26 14:39:21.741,-455.0,20.0,330.0,-216.0,102.0,132.0,90,111,78,69,76
2025-02-26 14:39:21.746,-486.0,76.0,313.0,-231.0,107.0,132.0,92,112,79,69,77
2025-02-26 14:39:21.750,-518.0,130.0,330.0,-240.0,110.0,133.0,92,112,77,69,77
2025-02-26 14:39:21.755,-560.0,89.0,168.0,-247.0,109.0,135.0,94,112,77,69,78
2025-02-26 14:39:21.761,-647.0,125.0,210.0,-255.0,115.0,132.0,96,112,77,71,79
2025-02-26 14:39:21.767,-637.0,105.0,202.0,-252.0,120.0,133.0,98,114,77,72,80
2025-02-26 14:39:21.772,-717.0,20.0,138.0,-253.0,123.0,130.0,98,113,77,70,80
2025-02-26 14:39:21.775,-692.0,15.0,98.0,-254.0,124.0,127.0,98,113,75,72,80
2025-02-26 14:39:21.780,-680.0,44.0,143.0,-259.0,132.0,119.0,100,114,77,73,83
2025-02-26 14:39:21.785,-694.0,-53.0,104.0,-259.0,141.0,110.0,103,113,76,73,82
2025-02-26 14:39:21.793,-672.0,-96.0,-74.0,-257.0,139.0,105.0,101,111,76,72,84
2025-02-26 14:39:21.797,-660.0,-93.0,-163.0,-265.0,134.0,98.0,104,112,80,75,85
2025-02-26 14:39:21.804,-693.0,-123.0,-166.0,-271.0,128.0,96.0,104,108,76,76,87
2025-02-26 14:39:21.808,-676.0,-156.0,-202.0,-265.0,119.0,92.0,106,112,78,77,88
2025-02-26 14:39:21.811,-639.0,-182.0,-164.0,-260.0,111.0,86.0,106,114,80,79,89
2025-02-26 14:39:21.817,-655.0,-125.0,-184.0,-252.0,107.0,76.0,105,113,81,80,90
2025-02-26 14:39:21.824,-656.0,-99.0,-228.0,-246.0,92.0,73.0,110,113,83,80,93
2025-02-26 14:39:21.828,-590.0,-148.0,-450.0,-229.0,75.0,75.0,109,112,83,80,95
2025-02-26 14:39:21.833,-535.0,-194.0,-325.0,-209.0,65.0,69.0,109,114,89,84,95
2025-02-26 14:39:21.840,-535.0,-187.0,-277.0,-199.0,61.0,63.0,109,113,86,83,97
2025-02-26 14:39:21.845,-522.0,-174.0,-330.0,-182.0,58.0,55.0,109,114,88,85,98
2025-02-26 14:39:21.847,-515.0,-160.0,-310.0,-157.0,50.0,52.0,114,115,90,87,99
2025-02-26 14:39:21.853,-602.0,-173.0,-351.0,-129.0,33.0,44.0,114,113,94,87,101
2025-02-26 14:39:21.858,-684.0,-89.0,-281.0,-122.0,24.0,30.0,114,114,95,88,103
2025-02-26 14:39:21.865,-771.0,-97.0,-113.0,-110.0,21.0,14.0,113,114,97,89,103
2025-02-26 14:39:21.870,-811.0,-106.0,-187.0,-86.0,9.0,4.0,114,114,99,88,107
2025-02-26 14:39:21.878,-711.0,-115.0,-214.0,-57.0,-20.0,-17.0,116,115,98,89,107
2025-02-26 14:39:21.882,-642.0,40.0,-231.0,-46.0,-68.0,-38.0,116,116,102,89,110
2025-02-26 14:39:21.886,-744.0,245.0,-228.0,-22.0,-95.0,-66.0,117,115,102,91,109
2025-02-26 14:39:21.890,-816.0,520.0,-162.0,19.0,-141.0,-86.0,118,116,104,93,111
2025-02-26 14:39:21.899,-1019.0,622.0,-271.0,86.0,-176.0,-92.0,117,117,104,94,110
2025-02-26 14:39:21.903,-1272.0,765.0,-457.0,154.0,-203.0,-99.0,119,116,106,98,112
2025-02-26 14:39:21.909,-1348.0,1149.0,-152.0,217.0,-196.0,-105.0,119,117,107,97,111
2025-02-26 14:39:21.914,-1596.0,1002.0,-971.0,215.0,-202.0,-124.0,113,117,108,101,112
2025-02-26 14:39:21.919,-1456.0,722.0,-1695.0,21.0,-213.0,-159.0,119,118,109,102,113
2025-02-26 14:39:21.927,-1076.0,327.0,-1299.0,39.0,-183.0,-190.0,121,118,109,109,114
2025-02-26 14:39:21.931,-921.0,256.0,-1145.0,44.0,-186.0,-229.0,124,121,111,108,115
2025-02-26 14:39:21.938,-910.0,488.0,-731.0,86.0,-199.0,-281.0,122,121,112,112,115
2025-02-26 14:39:21.944,-952.0,632.0,-334.0,175.0,-191.0,-308.0,123,122,112,113,116
2025-02-26 14:39:21.947,-1019.0,566.0,-299.0,190.0,-193.0,-331.0,124,121,112,114,115
2025-02-26 14:39:21.956,-890.0,518.0,-620.0,208.0,-194.0,-344.0,123,123,114,115,116
2025-02-26 14:39:21.960,-813.0,458.0,-521.0,273.0,-201.0,-351.0,125,124,116,116,116
2025-02-26 14:39:21.962,-657.0,478.0,-580.0,280.0,-215.0,-384.0,127,124,115,117,117
2025-02-26 14:39:21.971,-311.0,396.0,-310.0,300.0,-238.0,-408.0,127,124,117,117,118
2025-02-26 14:39:21.976,69.0,326.0,-166.0,309.0,-261.0,-421.0,128,125,118,118,118
2025-02-26 14:39:21.983,429.0,160.0,-114.0,301.0,-296.0,-419.0,127,125,117,119,119
2025-02-26 14:39:21.988,830.0,36.0,16.0,293.0,-329.0,-411.0,128,124,116,117,119
2025-02-26 14:39:21.993,1244.0,-269.0,281.0,254.0,-350.0,-402.0,127,126,118,119,119
2025-02-26 14:39:22.000,1369.0,-635.0,663.0,184.0,-355.0,-389.0,128,126,118,119,119
2025-02-26 14:39:22.004,1689.0,-950.0,980.0,113.0,-368.0,-386.0,129,126,119,119,120
2025-02-26 14:39:22.009,1961.0,-1338.0,1254.0,64.0,-387.0,-377.0,128,127,117,119,121
2025-02-26 14:39:22.016,2204.0,-1555.0,1567.0,45.0,-405.0,-362.0,128,126,118,120,120
2025-02-26 14:39:22.021,2508.0,-2195.0,1896.0,1.0,-401.0,-331.0,128,127,119,119,120
2025-02-26 14:39:22.029,2848.0,-2968.0,1997.0,-42.0,-403.0,-290.0,126,125,119,119,120
