timestamp,ax,ay,az,gx,gy,gz,flex1,flex2,flex3,flex4,flex5,emg1,emg2,emg3
2025-02-26 14:35:51.726,-200.0,-976.0,208.0,-1.0,-5.0,4.0,180,155,162,164,164
2025-02-26 14:35:51.726,-200.0,-972.0,212.0,-1.0,-5.0,3.0,177,153,159,161,162
2025-02-26 14:35:51.735,-200.0,-963.0,208.0,-1.0,-5.0,3.0,177,151,157,158,158
2025-02-26 14:35:51.738,-199.0,-956.0,208.0,0.0,-4.0,2.0,183,157,165,166,166
2025-02-26 14:35:51.741,-200.0,-952.0,203.0,0.0,-4.0,2.0,178,153,158,162,162
2025-02-26 14:35:51.742,-199.0,-955.0,207.0,0.0,-4.0,1.0,175,150,154,157,158
2025-02-26 14:35:51.746,-200.0,-949.0,203.0,0.0,-3.0,1.0,180,153,160,163,163
2025-02-26 14:35:51.749,-203.0,-944.0,205.0,0.0,-3.0,0.0,179,154,159,162,163
2025-02-26 14:35:51.752,-201.0,-946.0,202.0,0.0,-3.0,0.0,174,150,157,158,159
2025-02-26 14:35:51.754,-206.0,-949.0,204.0,0.0,-3.0,-1.0,180,153,158,161,163
2025-02-26 14:35:51.754,-203.0,-950.0,205.0,0.0,-3.0,-1.0,176,151,156,158,159
2025-02-26 14:35:51.760,-205.0,-958.0,201.0,0.0,-3.0,-1.0,179,154,158,161,162
2025-02-26 14:35:51.762,-209.0,-958.0,209.0,0.0,-3.0,-1.0,180,154,161,164,163
2025-02-26 14:35:51.765,-214.0,-960.0,212.0,0.0,-3.0,-1.0,177,151,156,160,160
2025-02-26 14:35:51.766,-212.0,-959.0,212.0,1.0,-3.0,-1.0,179,154,161,162,162
2025-02-26 14:35:51.766,-216.0,-965.0,209.0,1.0,-3.0,-1.0,179,153,158,161,162
2025-02-26 14:35:51.772,-217.0,-966.0,219.0,1.0,-3.0,0.0,176,150,156,159,160
2025-02-26 14:35:51.772,-212.0,-961.0,220.0,1.0,-4.0,0.0,180,155,159,163,163
2025-02-26 14:35:51.778,-206.0,-959.0,224.0,1.0,-3.0,0.0,178,152,159,162,161
2025-02-26 14:35:51.780,-207.0,-960.0,221.0,1.0,-3.0,-1.0,176,150,155,158,159
2025-02-26 14:35:51.783,-205.0,-957.0,224.0,1.0,-3.0,-1.0,179,155,159,162,160
2025-02-26 14:35:51.784,-202.0,-954.0,218.0,1.0,-3.0,-1.0,178,153,158,161,162
2025-02-26 14:35:51.784,-204.0,-952.0,225.0,0.0,-2.0,-2.0,176,150,155,158,158
2025-02-26 14:35:51.790,-207.0,-952.0,220.0,0.0,-2.0,-2.0,179,154,159,161,161
2025-02-26 14:35:51.790,-206.0,-955.0,219.0,0.0,-2.0,-3.0,183,153,160,160,162
2025-02-26 14:35:51.790,-209.0,-962.0,215.0,-1.0,-1.0,-3.0,175,151,156,159,159
2025-02-26 14:35:51.796,-214.0,-962.0,217.0,-1.0,-2.0,-3.0,181,152,159,163,162
2025-02-26 14:35:51.796,-213.0,-969.0,216.0,-1.0,-1.0,-3.0,178,151,158,160,161
2025-02-26 14:35:51.803,-212.0,-978.0,218.0,-1.0,-1.0,-3.0,177,151,158,163,160
2025-02-26 14:35:51.805,-209.0,-979.0,214.0,-1.0,-1.0,-3.0,175,149,156,159,160
2025-02-26 14:35:51.808,-205.0,-979.0,215.0,-1.0,-1.0,-3.0,177,153,158,162,162
2025-02-26 14:35:51.808,-201.0,-984.0,216.0,-1.0,-1.0,-3.0,179,153,158,158,162
2025-02-26 14:35:51.808,-198.0,-989.0,212.0,-1.0,-1.0,-3.0,177,152,156,158,160
2025-02-26 14:35:51.814,-197.0,-988.0,211.0,-1.0,-1.0,-2.0,177,151,157,160,160
2025-02-26 14:35:51.816,-194.0,-990.0,208.0,-1.0,-1.0,-2.0,178,153,159,161,161
2025-02-26 14:35:51.819,-197.0,-989.0,207.0,-1.0,-1.0,-1.0,180,155,161,164,165
2025-02-26 14:35:51.820,-197.0,-988.0,216.0,-2.0,-1.0,0.0,177,155,160,162,163
2025-02-26 14:35:51.824,-195.0,-985.0,211.0,-2.0,-1.0,1.0,175,150,156,157,158
2025-02-26 14:35:51.826,-193.0,-990.0,212.0,-2.0,-1.0,1.0,179,153,160,162,163
2025-02-26 14:35:51.828,-195.0,-987.0,209.0,-1.0,-1.0,2.0,185,159,162,165,166
2025-02-26 14:35:51.831,-195.0,-980.0,211.0,-1.0,-1.0,2.0,177,151,157,160,161
2025-02-26 14:35:51.832,-196.0,-979.0,211.0,0.0,-1.0,1.0,176,150,156,158,158
2025-02-26 14:35:51.836,-194.0,-976.0,206.0,0.0,0.0,1.0,180,154,159,162,162
2025-02-26 14:35:51.838,-196.0,-967.0,208.0,0.0,0.0,1.0,181,156,161,163,165
2025-02-26 14:35:51.840,-200.0,-965.0,208.0,0.0,0.0,0.0,176,148,157,159,159
2025-02-26 14:35:51.842,-205.0,-963.0,201.0,1.0,0.0,0.0,180,153,161,163,162
2025-02-26 14:35:51.844,-206.0,-965.0,198.0,1.0,1.0,0.0,179,153,159,161,162
2025-02-26 14:35:51.847,-204.0,-959.0,200.0,2.0,0.0,0.0,180,155,159,161,163
2025-02-26 14:35:51.849,-209.0,-960.0,196.0,2.0,0.0,-1.0,181,154,160,163,162
2025-02-26 14:35:51.850,-206.0,-965.0,196.0,2.0,0.0,-1.0,181,154,159,161,161
2025-02-26 14:35:51.853,-210.0,-968.0,195.0,2.0,0.0,-1.0,176,151,155,159,159
2025-02-26 14:35:51.855,-215.0,-962.0,199.0,3.0,0.0,-2.0,179,153,158,161,162
2025-02-26 14:35:51.857,-209.0,-962.0,197.0,3.0,0.0,-1.0,179,154,161,162,163
2025-02-26 14:35:51.860,-209.0,-966.0,190.0,3.0,0.0,-1.0,178,152,159,160,163
2025-02-26 14:35:51.862,-214.0,-960.0,197.0,3.0,0.0,-1.0,176,151,154,158,157
2025-02-26 14:35:51.862,-212.0,-959.0,197.0,3.0,-1.0,-1.0,183,157,162,164,164
2025-02-26 14:35:51.867,-208.0,-962.0,202.0,3.0,-2.0,-1.0,181,155,160,164,163
2025-02-26 14:35:51.869,-205.0,-965.0,200.0,3.0,-1.0,-1.0,177,150,155,159,159
2025-02-26 14:35:51.872,-202.0,-971.0,202.0,2.0,-2.0,-1.0,176,151,156,158,159
2025-02-26 14:35:51.874,-204.0,-968.0,201.0,2.0,-2.0,-1.0,181,155,162,163,163
2025-02-26 14:35:51.876,-204.0,-968.0,209.0,2.0,-1.0,0.0,180,155,161,163,162
2025-02-26 14:35:51.878,-201.0,-973.0,213.0,2.0,-2.0,0.0,176,150,155,158,158
2025-02-26 14:35:51.881,-198.0,-974.0,216.0,2.0,-2.0,0.0,174,148,153,157,156
2025-02-26 14:35:51.883,-196.0,-977.0,212.0,2.0,-2.0,0.0,181,156,161,161,164
2025-02-26 14:35:51.888,-201.0,-981.0,211.0,2.0,-2.0,0.0,179,155,159,161,162
2025-02-26 14:35:51.896,-199.0,-982.0,213.0,1.0,-2.0,0.0,174,149,156,157,158
2025-02-26 14:35:51.899,-202.0,-978.0,222.0,2.0,-1.0,0.0,179,155,159,160,162
2025-02-26 14:35:51.904,-209.0,-980.0,223.0,2.0,-1.0,1.0,181,156,160,165,164
2025-02-26 14:35:51.905,-202.0,-984.0,219.0,2.0,-2.0,1.0,176,151,156,159,160
2025-02-26 14:35:51.916,-208.0,-989.0,221.0,1.0,-1.0,1.0,176,151,157,159,160
2025-02-26 14:35:51.920,-206.0,-985.0,220.0,1.0,-2.0,1.0,178,154,159,162,162
2025-02-26 14:35:51.924,-204.0,-982.0,219.0,1.0,-1.0,1.0,181,154,159,162,163
2025-02-26 14:35:51.928,-206.0,-988.0,224.0,1.0,-1.0,1.0,177,150,159,160,159
2025-02-26 14:35:51.933,-209.0,-981.0,231.0,2.0,-1.0,2.0,179,154,158,162,162
2025-02-26 14:35:51.940,-207.0,-982.0,231.0,1.0,0.0,2.0,178,155,158,161,161
2025-02-26 14:35:51.945,-214.0,-985.0,209.0,2.0,-1.0,2.0,178,151,157,157,160
2025-02-26 14:35:51.947,-209.0,-972.0,226.0,2.0,-1.0,1.0,180,154,157,164,164
2025-02-26 14:35:51.953,-211.0,-968.0,231.0,1.0,-1.0,1.0,178,154,160,162,163
2025-02-26 14:35:51.960,-207.0,-968.0,222.0,0.0,-1.0,2.0,175,150,155,158,159
2025-02-26 14:35:51.965,-209.0,-963.0,224.0,1.0,-1.0,2.0,175,151,157,159,159
2025-02-26 14:35:51.969,-204.0,-955.0,227.0,0.0,-1.0,2.0,180,156,161,164,163
2025-02-26 14:35:51.973,-197.0,-964.0,220.0,0.0,0.0,2.0,177,153,158,160,160
2025-02-26 14:35:51.981,-196.0,-966.0,222.0,0.0,0.0,1.0,174,149,155,158,158
2025-02-26 14:35:51.986,-198.0,-969.0,231.0,-1.0,-1.0,1.0,181,155,160,163,165
2025-02-26 14:35:51.990,-202.0,-964.0,235.0,-1.0,0.0,1.0,179,154,161,164,164
2025-02-26 14:35:51.994,-205.0,-972.0,229.0,-1.0,0.0,1.0,172,150,156,163,156
2025-02-26 14:35:51.998,-203.0,-965.0,228.0,-1.0,0.0,1.0,173,147,154,158,158
2025-02-26 14:35:52.002,-206.0,-965.0,229.0,-2.0,0.0,1.0,181,154,160,163,165
2025-02-26 14:35:52.011,-206.0,-970.0,226.0,-2.0,0.0,1.0,177,154,158,162,161
2025-02-26 14:35:52.015,-209.0,-962.0,224.0,-2.0,0.0,2.0,176,147,155,158,159
2025-02-26 14:35:52.019,-213.0,-965.0,228.0,-3.0,0.0,2.0,179,154,160,161,162
2025-02-26 14:35:52.026,-208.0,-959.0,224.0,-3.0,0.0,2.0,181,157,159,162,164
2025-02-26 14:35:52.030,-213.0,-957.0,224.0,-3.0,0.0,2.0,176,151,158,160,161
2025-02-26 14:35:52.035,-217.0,-958.0,219.0,-4.0,0.0,2.0,177,150,158,158,158
2025-02-26 14:35:52.038,-212.0,-954.0,218.0,-4.0,0.0,2.0,180,154,160,161,161
2025-02-26 14:35:52.046,-212.0,-956.0,222.0,-4.0,0.0,2.0,178,152,159,162,165
2025-02-26 14:35:52.050,-214.0,-953.0,221.0,-3.0,0.0,2.0,177,151,156,159,160
2025-02-26 14:35:52.055,-215.0,-957.0,218.0,-3.0,1.0,1.0,177,154,162,161,162
2025-02-26 14:35:52.060,-217.0,-948.0,216.0,-3.0,1.0,0.0,180,153,159,161,160
2025-02-26 14:35:52.068,-217.0,-946.0,211.0,-3.0,1.0,0.0,176,150,156,160,159
2025-02-26 14:35:52.072,-215.0,-951.0,207.0,-3.0,1.0,0.0,181,156,161,161,162
2025-02-26 14:35:52.076,-224.0,-943.0,208.0,-3.0,1.0,-1.0,178,152,161,161,161
2025-02-26 14:35:52.080,-226.0,-950.0,208.0,-3.0,1.0,-1.0,176,152,158,161,161
2025-02-26 14:35:52.088,-228.0,-947.0,202.0,-3.0,1.0,-2.0,177,151,156,159,160
2025-02-26 14:35:52.092,-230.0,-951.0,206.0,-2.0,1.0,-1.0,180,155,160,159,162
2025-02-26 14:35:52.095,-224.0,-944.0,201.0,-1.0,0.0,-2.0,179,154,160,163,161
2025-02-26 14:35:52.101,-227.0,-942.0,200.0,-2.0,1.0,-2.0,176,151,156,160,160
2025-02-26 14:35:52.108,-222.0,-941.0,196.0,-1.0,0.0,-2.0,177,152,157,161,160
2025-02-26 14:35:52.111,-225.0,-943.0,199.0,-2.0,1.0,-3.0,180,155,159,161,162
2025-02-26 14:35:52.117,-219.0,-945.0,200.0,-2.0,0.0,-3.0,179,152,160,162,160
2025-02-26 14:35:52.120,-214.0,-950.0,203.0,-1.0,0.0,-4.0,179,154,161,164,163
2025-02-26 14:35:52.129,-211.0,-952.0,196.0,-2.0,0.0,-4.0,174,152,155,157,158
2025-02-26 14:35:52.133,-208.0,-955.0,196.0,-2.0,0.0,-5.0,181,155,161,160,162
2025-02-26 14:35:52.137,-208.0,-957.0,197.0,-2.0,0.0,-5.0,178,152,159,161,161
2025-02-26 14:35:52.142,-207.0,-962.0,200.0,-1.0,0.0,-5.0,179,153,160,162,163
2025-02-26 14:35:52.149,-209.0,-968.0,198.0,-1.0,0.0,-5.0,174,149,155,158,160
2025-02-26 14:35:52.154,-207.0,-979.0,203.0,-1.0,-1.0,-5.0,178,153,159,161,162
2025-02-26 14:35:52.158,-211.0,-980.0,196.0,-1.0,-1.0,-5.0,177,151,158,161,160
2025-02-26 14:35:52.163,-209.0,-987.0,196.0,-2.0,-2.0,-5.0,179,154,160,161,161
2025-02-26 14:35:52.170,-206.0,-989.0,201.0,-1.0,-2.0,-4.0,176,150,155,159,159
2025-02-26 14:35:52.174,-206.0,-999.0,203.0,-1.0,-3.0,-4.0,178,154,160,162,163
2025-02-26 14:35:52.179,-205.0,-994.0,206.0,-1.0,-3.0,-3.0,178,153,160,161,162
2025-02-26 14:35:52.184,-204.0,-1000.0,214.0,-1.0,-3.0,-2.0,177,152,157,161,160
2025-02-26 14:35:52.191,-202.0,-1004.0,219.0,0.0,-3.0,-1.0,177,150,159,158,159
2025-02-26 14:35:52.195,-196.0,-1002.0,219.0,0.0,-3.0,-1.0,180,148,159,163,161
2025-02-26 14:35:52.199,-193.0,-996.0,221.0,1.0,-3.0,-1.0,179,154,159,164,161
2025-02-26 14:35:52.207,-192.0,-988.0,220.0,1.0,-2.0,0.0,181,154,159,165,163
2025-02-26 14:35:52.210,-192.0,-981.0,221.0,1.0,-2.0,0.0,175,151,157,159,159
2025-02-26 14:35:52.215,-195.0,-979.0,222.0,1.0,-1.0,0.0,178,154,161,162,162
2025-02-26 14:35:52.219,-196.0,-972.0,218.0,1.0,0.0,0.0,178,153,159,161,162
2025-02-26 14:35:52.224,-196.0,-977.0,219.0,1.0,0.0,0.0,177,152,162,160,159
2025-02-26 14:35:52.231,-204.0,-974.0,219.0,1.0,0.0,0.0,174,155,160,165,163
2025-02-26 14:35:52.236,-211.0,-973.0,217.0,1.0,0.0,0.0,179,157,160,158,163
2025-02-26 14:35:52.240,-209.0,-966.0,220.0,0.0,0.0,0.0,175,150,156,158,159
2025-02-26 14:35:52.244,-212.0,-974.0,224.0,0.0,0.0,0.0,178,152,156,161,161
2025-02-26 14:35:52.252,-211.0,-967.0,217.0,0.0,-1.0,0.0,179,154,160,162,163
2025-02-26 14:35:52.256,-215.0,-967.0,222.0,0.0,-1.0,0.0,177,151,156,160,161
2025-02-26 14:35:52.260,-216.0,-962.0,222.0,0.0,-1.0,-1.0,176,151,156,160,153
2025-02-26 14:35:52.265,-210.0,-965.0,226.0,0.0,-1.0,-1.0,180,154,160,162,161
2025-02-26 14:35:52.272,-212.0,-962.0,221.0,-1.0,-1.0,-1.0,179,154,160,162,162
2025-02-26 14:35:52.276,-213.0,-966.0,223.0,-1.0,-1.0,-1.0,176,151,156,163,159
2025-02-26 14:35:52.281,-210.0,-964.0,222.0,-2.0,0.0,-1.0,177,151,157,160,159
2025-02-26 14:35:52.285,-217.0,-965.0,229.0,-2.0,0.0,-1.0,180,154,162,164,164
2025-02-26 14:35:52.293,-218.0,-968.0,230.0,-3.0,0.0,-1.0,180,154,160,162,162
2025-02-26 14:35:52.297,-217.0,-970.0,226.0,-3.0,0.0,-1.0,177,151,155,159,159
2025-02-26 14:35:52.302,-219.0,-969.0,225.0,-3.0,-1.0,-1.0,178,152,160,163,162
2025-02-26 14:35:52.306,-218.0,-971.0,219.0,-3.0,-1.0,-1.0,179,157,160,163,162
2025-02-26 14:35:52.314,-213.0,-971.0,219.0,-3.0,0.0,-1.0,180,154,159,162,163
2025-02-26 14:35:52.318,-209.0,-965.0,219.0,-3.0,-1.0,-1.0,177,150,155,158,158
2025-02-26 14:35:52.322,-212.0,-969.0,217.0,-3.0,-1.0,-1.0,180,154,161,162,163
2025-02-26 14:35:52.329,-207.0,-966.0,215.0,-3.0,0.0,-1.0,181,155,160,162,163
2025-02-26 14:35:52.334,-207.0,-966.0,214.0,-3.0,0.0,-1.0,179,154,159,162,162
2025-02-26 14:35:52.339,-202.0,-967.0,215.0,-3.0,0.0,-1.0,176,150,156,158,158
2025-02-26 14:35:52.342,-207.0,-962.0,215.0,-3.0,0.0,-1.0,178,153,159,162,162
2025-02-26 14:35:52.350,-206.0,-969.0,210.0,-3.0,0.0,-1.0,181,155,161,163,163
2025-02-26 14:35:52.354,-208.0,-970.0,209.0,-2.0,0.0,-1.0,178,154,159,161,161
2025-02-26 14:35:52.359,-209.0,-968.0,203.0,-2.0,0.0,-1.0,175,150,155,160,159
2025-02-26 14:35:52.363,-207.0,-968.0,199.0,-2.0,1.0,-1.0,177,150,157,160,161
2025-02-26 14:35:52.371,-209.0,-967.0,199.0,-1.0,1.0,-1.0,181,154,160,163,163
2025-02-26 14:35:52.375,-211.0,-967.0,201.0,-2.0,0.0,-1.0,179,153,159,160,161
2025-02-26 14:35:52.379,-213.0,-968.0,202.0,-1.0,0.0,-1.0,177,150,155,159,159
2025-02-26 14:35:52.383,-213.0,-965.0,195.0,-1.0,0.0,-1.0,176,151,156,158,158
2025-02-26 14:35:52.390,-211.0,-959.0,190.0,-1.0,-1.0,-2.0,180,155,161,163,163
2025-02-26 14:35:52.396,-211.0,-962.0,188.0,-1.0,-1.0,-1.0,177,152,158,160,160
2025-02-26 14:35:52.399,-205.0,-960.0,195.0,-1.0,-1.0,-2.0,176,151,157,158,159
2025-02-26 14:35:52.404,-198.0,-960.0,204.0,-2.0,-2.0,-1.0,176,151,156,160,160
2025-02-26 14:35:52.412,-201.0,-955.0,195.0,-1.0,-1.0,-2.0,179,155,160,161,162
2025-02-26 14:35:52.416,-206.0,-962.0,184.0,-1.0,-2.0,-2.0,178,154,159,161,162
2025-02-26 14:35:52.420,-212.0,-964.0,186.0,-1.0,-3.0,-2.0,175,151,156,160,159
2025-02-26 14:35:52.428,-206.0,-968.0,198.0,-1.0,-3.0,-2.0,177,152,157,160,160
2025-02-26 14:35:52.432,-205.0,-969.0,189.0,0.0,-3.0,-3.0,180,153,159,160,162
2025-02-26 14:35:52.436,-200.0,-975.0,195.0,0.0,-3.0,-3.0,179,154,160,160,162
2025-02-26 14:35:52.441,-213.0,-981.0,190.0,0.0,-3.0,-3.0,183,154,159,163,163
2025-02-26 14:35:52.448,-213.0,-977.0,201.0,1.0,-3.0,-2.0,178,152,157,159,160
2025-02-26 14:35:52.453,-207.0,-978.0,191.0,1.0,-4.0,-2.0,179,155,160,162,162
2025-02-26 14:35:52.457,-211.0,-980.0,204.0,1.0,-3.0,-2.0,180,154,159,162,163
2025-02-26 14:35:52.462,-208.0,-980.0,202.0,2.0,-3.0,-1.0,180,155,160,162,163
2025-02-26 14:35:52.469,-205.0,-980.0,208.0,1.0,-3.0,-1.0,175,151,158,160,161
2025-02-26 14:35:52.473,-208.0,-981.0,209.0,2.0,-3.0,-1.0,179,154,159,161,161
2025-02-26 14:35:52.477,-210.0,-983.0,213.0,2.0,-4.0,-1.0,178,153,160,160,160
2025-02-26 14:35:52.482,-205.0,-990.0,218.0,2.0,-3.0,0.0,178,153,159,163,162
2025-02-26 14:35:52.490,-204.0,-983.0,226.0,1.0,-3.0,0.0,178,151,156,158,159
2025-02-26 14:35:52.494,-201.0,-983.0,227.0,2.0,-3.0,0.0,179,154,160,163,163
2025-02-26 14:35:52.498,-198.0,-986.0,230.0,2.0,-3.0,0.0,178,154,158,161,161
2025-02-26 14:35:52.500,-199.0,-984.0,231.0,2.0,-3.0,0.0,178,153,157,160,161
2025-02-26 14:35:52.510,-199.0,-979.0,231.0,1.0,-3.0,0.0,181,156,161,163,163
2025-02-26 14:35:52.511,-204.0,-981.0,231.0,1.0,-3.0,0.0,178,154,158,162,161
2025-02-26 14:35:52.518,-202.0,-977.0,233.0,1.0,-2.0,0.0,175,150,156,158,158
2025-02-26 14:35:52.523,-203.0,-981.0,235.0,0.0,-2.0,1.0,179,155,160,161,162
2025-02-26 14:35:52.526,-206.0,-980.0,236.0,0.0,-2.0,1.0,179,154,160,163,163
2025-02-26 14:35:52.534,-214.0,-974.0,234.0,-1.0,-3.0,2.0,177,149,155,158,159
2025-02-26 14:35:52.539,-215.0,-974.0,252.0,-1.0,-2.0,1.0,177,151,157,160,159
2025-02-26 14:35:52.543,-215.0,-979.0,238.0,0.0,-2.0,2.0,181,155,162,165,165
2025-02-26 14:35:52.547,-211.0,-966.0,228.0,-1.0,-1.0,2.0,178,154,159,162,163
2025-02-26 14:35:52.555,-215.0,-964.0,238.0,-1.0,-1.0,1.0,176,150,156,158,159
2025-02-26 14:35:52.559,-215.0,-970.0,229.0,-1.0,-1.0,1.0,174,149,155,157,158
2025-02-26 14:35:52.563,-214.0,-967.0,230.0,-3.0,-1.0,2.0,182,156,161,164,164
2025-02-26 14:35:52.567,-211.0,-962.0,242.0,-3.0,-2.0,2.0,179,153,157,161,162
2025-02-26 14:35:52.574,-212.0,-958.0,240.0,-3.0,-1.0,2.0,176,150,157,158,158
2025-02-26 14:35:52.579,-216.0,-958.0,238.0,-2.0,-1.0,2.0,175,150,154,156,156
2025-02-26 14:35:52.584,-211.0,-952.0,232.0,-2.0,0.0,1.0,180,155,160,163,163
2025-02-26 14:35:52.586,-210.0,-950.0,238.0,-2.0,1.0,1.0,180,154,159,162,162
2025-02-26 14:35:52.596,-209.0,-946.0,229.0,-2.0,1.0,1.0,175,148,154,157,157
2025-02-26 14:35:52.600,-208.0,-949.0,228.0,-2.0,1.0,0.0,178,155,159,162,163
2025-02-26 14:35:52.604,-209.0,-939.0,229.0,-2.0,1.0,0.0,180,155,160,163,165
2025-02-26 14:35:52.609,-209.0,-939.0,224.0,-2.0,1.0,0.0,176,151,156,159,160
2025-02-26 14:35:52.616,-211.0,-932.0,224.0,-3.0,2.0,0.0,175,150,155,157,159
2025-02-26 14:35:52.620,-213.0,-937.0,221.0,-2.0,2.0,-1.0,180,155,159,162,162
2025-02-26 14:35:52.625,-219.0,-939.0,211.0,-1.0,1.0,-1.0,179,154,159,164,161
2025-02-26 14:35:52.629,-219.0,-927.0,212.0,-2.0,2.0,-2.0,176,150,156,160,159
2025-02-26 14:35:52.637,-218.0,-935.0,200.0,-2.0,1.0,-2.0,178,155,159,161,161
2025-02-26 14:35:52.641,-217.0,-938.0,209.0,-2.0,1.0,-3.0,178,153,159,162,161
2025-02-26 14:35:52.645,-211.0,-936.0,207.0,-2.0,0.0,-4.0,180,152,159,162,161
2025-02-26 14:35:52.650,-213.0,-942.0,196.0,-2.0,0.0,-4.0,176,151,158,159,158
2025-02-26 14:35:52.657,-220.0,-954.0,201.0,-2.0,1.0,-4.0,180,155,158,162,162
2025-02-26 14:35:52.662,-213.0,-950.0,193.0,-2.0,1.0,-5.0,179,154,159,162,162
2025-02-26 14:35:52.666,-197.0,-958.0,203.0,-3.0,1.0,-4.0,178,151,157,159,160
2025-02-26 14:35:52.671,-199.0,-947.0,152.0,0.0,2.0,-4.0,176,151,155,159,158
2025-02-26 14:35:52.677,-231.0,-1026.0,168.0,-2.0,-1.0,-5.0,178,154,159,161,161
2025-02-26 14:35:52.682,-196.0,-968.0,235.0,-4.0,0.0,-5.0,183,158,162,165,166
2025-02-26 14:35:52.686,-210.0,-1013.0,168.0,-2.0,-2.0,-4.0,177,151,157,161,160
2025-02-26 14:35:52.694,-221.0,-996.0,199.0,-3.0,-2.0,-3.0,175,148,155,159,159
2025-02-26 14:35:52.698,-203.0,-996.0,191.0,-2.0,-2.0,-3.0,178,154,157,160,162
2025-02-26 14:35:52.703,-206.0,-1015.0,189.0,-1.0,-3.0,-2.0,183,157,161,165,165
2025-02-26 14:35:52.707,-202.0,-1009.0,196.0,-1.0,-2.0,-2.0,179,153,159,161,162
2025-02-26 14:35:52.715,-206.0,-1010.0,189.0,0.0,-2.0,-1.0,176,150,156,159,159
2025-02-26 14:35:52.719,-192.0,-1011.0,202.0,1.0,-3.0,-1.0,176,150,156,157,158
2025-02-26 14:35:52.723,-194.0,-1002.0,191.0,2.0,-2.0,0.0,182,157,161,163,166
2025-02-26 14:35:52.728,-199.0,-1004.0,193.0,2.0,-2.0,0.0,179,155,160,164,163
2025-02-26 14:35:52.735,-195.0,-993.0,204.0,2.0,-2.0,1.0,177,150,154,158,158
2025-02-26 14:35:52.740,-198.0,-993.0,205.0,1.0,-2.0,1.0,174,149,154,158,158
2025-02-26 14:35:52.743,-199.0,-988.0,205.0,1.0,-2.0,2.0,180,155,161,163,164
2025-02-26 14:35:52.748,-200.0,-986.0,206.0,1.0,-3.0,3.0,180,155,160,163,162
2025-02-26 14:35:52.755,-198.0,-978.0,213.0,1.0,-3.0,3.0,175,151,155,157,158
2025-02-26 14:35:52.760,-204.0,-977.0,218.0,0.0,-3.0,3.0,179,153,159,162,162
2025-02-26 14:35:52.761,-204.0,-976.0,222.0,0.0,-3.0,3.0,180,158,161,162,163
2025-02-26 14:35:52.768,-202.0,-974.0,226.0,-1.0,-3.0,3.0,177,152,156,160,160
2025-02-26 14:35:52.776,-203.0,-971.0,227.0,-2.0,-2.0,3.0,173,150,154,157,157
2025-02-26 14:35:52.781,-229.0,-970.0,179.0,-1.0,-3.0,3.0,179,154,159,163,164
2025-02-26 14:35:52.785,-199.0,-952.0,257.0,1.0,1.0,1.0,177,153,156,162,162
2025-02-26 14:35:52.789,-204.0,-967.0,211.0,2.0,1.0,1.0,176,151,156,159,159
2025-02-26 14:35:52.797,-226.0,-950.0,238.0,2.0,2.0,1.0,179,154,159,161,162
2025-02-26 14:35:52.798,-221.0,-952.0,230.0,2.0,0.0,2.0,178,154,157,161,160
2025-02-26 14:35:52.802,-230.0,-952.0,222.0,-1.0,-1.0,2.0,176,151,158,159,159
2025-02-26 14:35:52.809,-229.0,-957.0,235.0,-4.0,-3.0,2.0,178,154,159,160,161
2025-02-26 14:35:52.815,-230.0,-950.0,238.0,-3.0,-3.0,2.0,183,155,160,160,163
2025-02-26 14:35:52.822,-218.0,-953.0,244.0,-2.0,-1.0,1.0,179,154,159,161,161
2025-02-26 14:35:52.826,-224.0,-951.0,234.0,0.0,0.0,1.0,176,148,157,158,162
2025-02-26 14:35:52.830,-231.0,-953.0,230.0,0.0,0.0,1.0,179,155,160,163,163
2025-02-26 14:35:52.834,-223.0,-939.0,240.0,0.0,0.0,0.0,175,153,158,159,162
2025-02-26 14:35:52.841,-218.0,-945.0,221.0,-2.0,-2.0,0.0,176,151,156,159,158
2025-02-26 14:35:52.846,-219.0,-935.0,231.0,-2.0,-2.0,0.0,178,152,151,160,161
2025-02-26 14:35:52.850,-213.0,-935.0,222.0,-2.0,-2.0,-1.0,179,155,159,163,163
2025-02-26 14:35:52.854,-218.0,-934.0,231.0,-2.0,0.0,-2.0,178,153,157,160,161
2025-02-26 14:35:52.862,-213.0,-937.0,227.0,-2.0,0.0,-3.0,178,151,155,159,159
2025-02-26 14:35:52.865,-210.0,-935.0,216.0,-3.0,-1.0,-3.0,180,153,159,162,162
2025-02-26 14:35:52.870,-216.0,-941.0,217.0,-3.0,-1.0,-3.0,179,154,159,162,163
2025-02-26 14:35:52.876,-209.0,-939.0,217.0,-4.0,-1.0,-3.0,177,154,159,160,161
2025-02-26 14:35:52.882,-212.0,-942.0,197.0,-4.0,0.0,-3.0,179,155,159,163,163
2025-02-26 14:35:52.886,-225.0,-956.0,242.0,-5.0,-1.0,-4.0,175,150,156,158,158
2025-02-26 14:35:52.892,-207.0,-958.0,219.0,-3.0,0.0,-5.0,179,154,158,162,162
2025-02-26 14:35:52.898,-211.0,-963.0,216.0,-3.0,0.0,-6.0,176,153,157,160,161
2025-02-26 14:35:52.904,-213.0,-960.0,220.0,-2.0,1.0,-6.0,180,154,159,162,162
2025-02-26 14:35:52.908,-213.0,-982.0,231.0,-6.0,-2.0,-5.0,176,152,155,159,160
2025-02-26 14:35:52.912,-205.0,-952.0,208.0,-1.0,0.0,-5.0,177,153,160,161,162
2025-02-26 14:35:52.918,-203.0,-988.0,197.0,-4.0,0.0,-5.0,177,152,158,161,161
2025-02-26 14:35:52.924,-190.0,-977.0,202.0,-1.0,2.0,-5.0,178,153,157,161,161
2025-02-26 14:35:52.929,-209.0,-1019.0,186.0,-2.0,0.0,-5.0,178,153,157,161,160
2025-02-26 14:35:52.930,-198.0,-992.0,220.0,-3.0,0.0,-4.0,179,153,159,161,162
2025-02-26 14:35:52.940,-203.0,-1004.0,186.0,-3.0,-1.0,-3.0,178,153,157,161,161
2025-02-26 14:35:52.943,-199.0,-1002.0,196.0,-2.0,-1.0,-2.0,178,152,157,161,161
2025-02-26 14:35:52.948,-197.0,-1003.0,210.0,-3.0,-1.0,-1.0,177,152,157,161,161
2025-02-26 14:35:52.955,-196.0,-1009.0,195.0,-2.0,0.0,-1.0,181,154,158,165,162
2025-02-26 14:35:52.961,-193.0,-1017.0,197.0,-2.0,0.0,0.0,180,155,160,163,162
2025-02-26 14:35:52.964,-187.0,-1010.0,201.0,-1.0,-1.0,1.0,177,151,158,160,161
2025-02-26 14:35:52.966,-194.0,-1006.0,208.0,-2.0,-2.0,1.0,176,150,156,159,159
2025-02-26 14:35:52.976,-198.0,-1001.0,203.0,-1.0,-2.0,2.0,184,155,160,158,162
2025-02-26 14:35:52.981,-198.0,-1006.0,207.0,-1.0,-2.0,2.0,179,154,158,162,163
2025-02-26 14:35:52.984,-205.0,-994.0,208.0,0.0,-1.0,2.0,180,153,160,162,162
2025-02-26 14:35:52.990,-205.0,-985.0,210.0,0.0,-1.0,3.0,176,150,155,159,159
2025-02-26 14:35:52.996,-205.0,-979.0,204.0,-1.0,-1.0,3.0,179,154,160,162,162
2025-02-26 14:35:53.001,-210.0,-977.0,206.0,-1.0,-1.0,4.0,178,154,160,163,163
2025-02-26 14:35:53.005,-214.0,-971.0,211.0,-1.0,-1.0,3.0,177,152,156,158,160
2025-02-26 14:35:53.010,-213.0,-972.0,209.0,-1.0,-1.0,3.0,177,151,156,161,159
2025-02-26 14:35:53.014,-217.0,-970.0,210.0,-1.0,-2.0,3.0,179,154,160,162,162
2025-02-26 14:35:53.022,-214.0,-968.0,215.0,-1.0,-2.0,3.0,183,159,163,166,166
2025-02-26 14:35:53.026,-216.0,-968.0,210.0,-2.0,-2.0,3.0,177,151,156,160,160
2025-02-26 14:35:53.031,-223.0,-967.0,221.0,-2.0,-2.0,3.0,174,150,154,154,158
2025-02-26 14:35:53.038,-218.0,-959.0,219.0,-1.0,-2.0,3.0,179,154,160,162,162
2025-02-26 14:35:53.039,-224.0,-963.0,213.0,-1.0,-2.0,3.0,182,157,161,165,166
2025-02-26 14:35:53.047,-222.0,-951.0,208.0,-1.0,-2.0,3.0,177,152,157,159,159
2025-02-26 14:35:53.051,-216.0,-953.0,229.0,-1.0,-1.0,3.0,174,149,155,158,157
2025-02-26 14:35:53.059,-223.0,-958.0,233.0,-1.0,-2.0,3.0,181,152,158,161,164
2025-02-26 14:35:53.063,-222.0,-954.0,233.0,-1.0,-2.0,3.0,180,155,160,163,164
2025-02-26 14:35:53.068,-219.0,-945.0,230.0,-1.0,-2.0,2.0,176,151,157,160,160
2025-02-26 14:35:53.071,-220.0,-942.0,224.0,-1.0,-1.0,2.0,180,155,160,157,158
2025-02-26 14:35:53.079,-216.0,-936.0,225.0,-1.0,-1.0,1.0,180,155,160,162,162
2025-02-26 14:35:53.083,-226.0,-938.0,228.0,-1.0,-1.0,0.0,183,156,161,163,164
2025-02-26 14:35:53.087,-220.0,-936.0,222.0,-1.0,-1.0,-1.0,177,151,156,159,159
2025-02-26 14:35:53.095,-225.0,-934.0,218.0,0.0,0.0,-1.0,179,153,159,161,161
2025-02-26 14:35:53.099,-225.0,-934.0,216.0,0.0,0.0,-2.0,179,154,159,161,162
2025-02-26 14:35:53.104,-223.0,-936.0,216.0,-1.0,0.0,-2.0,177,151,157,160,160
2025-02-26 14:35:53.108,-226.0,-938.0,212.0,-1.0,0.0,-3.0,177,151,158,159,160
2025-02-26 14:35:53.116,-225.0,-939.0,208.0,-1.0,0.0,-3.0,178,154,159,161,163
2025-02-26 14:35:53.117,-221.0,-942.0,210.0,-2.0,0.0,-3.0,180,153,159,163,162
2025-02-26 14:35:53.124,-218.0,-946.0,211.0,-2.0,0.0,-3.0,177,155,158,160,159
2025-02-26 14:35:53.129,-223.0,-955.0,210.0,-2.0,0.0,-4.0,177,152,157,159,160
2025-02-26 14:35:53.136,-212.0,-958.0,208.0,-2.0,-1.0,-4.0,179,153,160,161,162
2025-02-26 14:35:53.141,-213.0,-961.0,208.0,-2.0,-1.0,-4.0,180,154,159,162,162
2025-02-26 14:35:53.145,-209.0,-964.0,206.0,-2.0,-1.0,-4.0,177,151,157,160,160
2025-02-26 14:35:53.148,-207.0,-970.0,203.0,-1.0,-1.0,-4.0,177,152,157,159,159
2025-02-26 14:35:53.157,-209.0,-974.0,206.0,-1.0,-1.0,-4.0,179,154,160,161,162
2025-02-26 14:35:53.160,-209.0,-984.0,203.0,-1.0,-1.0,-4.0,179,153,157,162,162
2025-02-26 14:35:53.166,-209.0,-986.0,201.0,0.0,-1.0,-3.0,179,154,159,162,162
2025-02-26 14:35:53.170,-212.0,-987.0,203.0,-1.0,-1.0,-3.0,175,150,156,159,159
2025-02-26 14:35:53.172,-209.0,-985.0,199.0,0.0,-2.0,-3.0,179,153,159,163,163
2025-02-26 14:35:53.182,-209.0,-984.0,201.0,0.0,-2.0,-3.0,182,158,163,167,165
2025-02-26 14:35:53.186,-208.0,-982.0,203.0,0.0,-1.0,-2.0,179,154,159,162,162
2025-02-26 14:35:53.191,-206.0,-997.0,186.0,2.0,-2.0,-1.0,175,150,155,158,159
2025-02-26 14:35:53.198,-202.0,-990.0,209.0,-2.0,-1.0,-1.0,179,153,159,161,162
2025-02-26 14:35:53.203,-211.0,-991.0,199.0,-1.0,-2.0,0.0,184,158,164,166,166
2025-02-26 14:35:53.207,-207.0,-982.0,221.0,-1.0,-2.0,0.0,177,153,158,160,162
2025-02-26 14:35:53.214,-201.0,-983.0,207.0,-2.0,-3.0,0.0,177,150,155,157,158
2025-02-26 14:35:53.216,-207.0,-986.0,201.0,-2.0,-2.0,0.0,179,153,160,161,161
2025-02-26 14:35:53.221,-207.0,-986.0,216.0,-1.0,-1.0,0.0,182,159,162,165,165
2025-02-26 14:35:53.227,-210.0,-984.0,216.0,0.0,-1.0,0.0,177,152,156,160,160
2025-02-26 14:35:53.235,-209.0,-974.0,214.0,0.0,-1.0,0.0,175,149,155,158,158
2025-02-26 14:35:53.239,-213.0,-984.0,210.0,0.0,-1.0,0.0,179,154,161,162,163
2025-02-26 14:35:53.243,-217.0,-977.0,212.0,0.0,-2.0,0.0,181,155,159,162,163
2025-02-26 14:35:53.247,-216.0,-974.0,218.0,0.0,-3.0,0.0,177,151,155,160,159
2025-02-26 14:35:53.252,-216.0,-975.0,217.0,0.0,-2.0,0.0,180,154,159,162,162
2025-02-26 14:35:53.260,-212.0,-966.0,208.0,0.0,-2.0,1.0,180,155,159,162,162
2025-02-26 14:35:53.264,-212.0,-967.0,225.0,0.0,-2.0,0.0,177,153,158,161,161
2025-02-26 14:35:53.268,-206.0,-964.0,214.0,0.0,-2.0,1.0,176,150,155,159,158
2025-02-26 14:35:53.272,-218.0,-954.0,218.0,-1.0,-1.0,1.0,179,153,159,162,162
2025-02-26 14:35:53.280,-214.0,-964.0,224.0,-1.0,-1.0,1.0,177,153,156,161,161
2025-02-26 14:35:53.284,-208.0,-962.0,223.0,-1.0,-1.0,0.0,177,152,157,159,160
2025-02-26 14:35:53.289,-217.0,-959.0,226.0,0.0,-1.0,0.0,179,154,157,161,161
2025-02-26 14:35:53.293,-209.0,-963.0,221.0,-1.0,-2.0,0.0,178,153,160,164,163
2025-02-26 14:35:53.300,-209.0,-961.0,225.0,-1.0,-2.0,0.0,178,153,159,162,162
2025-02-26 14:35:53.304,-210.0,-958.0,219.0,-1.0,-1.0,0.0,175,151,156,157,159
2025-02-26 14:35:53.309,-210.0,-961.0,236.0,2.0,2.0,-1.0,181,155,160,162,163
2025-02-26 14:35:53.313,-228.0,-991.0,196.0,-2.0,-1.0,0.0,178,154,157,163,163
2025-02-26 14:35:53.321,-212.0,-951.0,242.0,-1.0,0.0,0.0,176,151,156,159,158
2025-02-26 14:35:53.325,-221.0,-974.0,201.0,-1.0,-2.0,0.0,174,151,156,159,162
2025-02-26 14:35:53.329,-216.0,-964.0,218.0,-1.0,-1.0,0.0,180,154,159,163,164
2025-02-26 14:35:53.334,-211.0,-970.0,212.0,-1.0,-1.0,0.0,179,154,157,161,161
2025-02-26 14:35:53.341,-212.0,-980.0,211.0,-1.0,0.0,-1.0,177,152,157,159,157
2025-02-26 14:35:53.345,-222.0,-972.0,214.0,-1.0,-1.0,-1.0,177,152,156,158,159
2025-02-26 14:35:53.350,-218.0,-979.0,219.0,0.0,-2.0,-1.0,180,156,161,162,163
2025-02-26 14:35:53.355,-219.0,-979.0,210.0,0.0,-1.0,0.0,178,153,158,160,161
2025-02-26 14:35:53.361,-223.0,-982.0,215.0,2.0,-1.0,0.0,175,150,156,158,159
2025-02-26 14:35:53.366,-212.0,-976.0,211.0,1.0,-1.0,0.0,180,154,159,164,162
2025-02-26 14:35:53.371,-218.0,-973.0,208.0,1.0,-2.0,1.0,179,154,158,162,163
2025-02-26 14:35:53.375,-206.0,-974.0,203.0,0.0,-2.0,1.0,175,151,156,157,160
2025-02-26 14:35:53.380,-203.0,-967.0,213.0,0.0,-2.0,1.0,176,150,156,159,159
2025-02-26 14:35:53.386,-207.0,-966.0,218.0,2.0,-1.0,1.0,179,156,160,164,164
2025-02-26 14:35:53.391,-204.0,-977.0,208.0,1.0,-1.0,1.0,179,153,159,161,161
2025-02-26 14:35:53.395,-201.0,-968.0,226.0,0.0,-1.0,1.0,175,149,156,158,159
2025-02-26 14:35:53.403,-211.0,-980.0,206.0,0.0,-1.0,1.0,180,154,159,162,163
2025-02-26 14:35:53.406,-206.0,-965.0,223.0,0.0,-1.0,0.0,179,155,161,164,164
2025-02-26 14:35:53.411,-205.0,-976.0,204.0,0.0,-1.0,1.0,177,151,155,159,160
2025-02-26 14:35:53.416,-211.0,-976.0,226.0,0.0,0.0,1.0,175,149,154,157,158
2025-02-26 14:35:53.420,-218.0,-970.0,221.0,0.0,-1.0,1.0,181,155,164,165,166
2025-02-26 14:35:53.428,-214.0,-972.0,214.0,0.0,-1.0,1.0,180,155,160,164,162
2025-02-26 14:35:53.432,-220.0,-965.0,206.0,0.0,-2.0,1.0,174,150,155,158,158
2025-02-26 14:35:53.434,-222.0,-967.0,222.0,0.0,-1.0,1.0,178,153,160,163,162
2025-02-26 14:35:53.440,-219.0,-963.0,216.0,0.0,-2.0,1.0,181,157,165,166,166
2025-02-26 14:35:53.445,-216.0,-963.0,221.0,0.0,-1.0,1.0,177,152,157,159,160
2025-02-26 14:35:53.452,-219.0,-967.0,212.0,-1.0,-1.0,1.0,176,150,155,157,158
2025-02-26 14:35:53.456,-219.0,-969.0,214.0,-1.0,-1.0,1.0,178,154,158,163,162
2025-02-26 14:35:53.458,-215.0,-971.0,222.0,-2.0,-1.0,1.0,182,157,162,164,164
2025-02-26 14:35:53.468,-217.0,-977.0,226.0,-2.0,-1.0,2.0,177,152,156,158,159
2025-02-26 14:35:53.470,-217.0,-978.0,226.0,-2.0,-1.0,2.0,180,153,158,161,161
2025-02-26 14:35:53.477,-217.0,-976.0,225.0,-1.0,-1.0,2.0,179,154,160,163,163
2025-02-26 14:35:53.481,-218.0,-977.0,226.0,0.0,-1.0,2.0,182,157,161,165,165
2025-02-26 14:35:53.488,-215.0,-971.0,223.0,0.0,-1.0,2.0,176,150,155,158,159
2025-02-26 14:35:53.493,-216.0,-974.0,224.0,-1.0,-1.0,2.0,179,154,159,162,163
2025-02-26 14:35:53.497,-218.0,-969.0,228.0,-1.0,-1.0,2.0,180,155,160,163,162
2025-02-26 14:35:53.502,-219.0,-965.0,221.0,-1.0,-2.0,3.0,178,153,158,162,161
2025-02-26 14:35:53.509,-221.0,-961.0,229.0,-1.0,-1.0,2.0,176,151,157,158,159
2025-02-26 14:35:53.513,-221.0,-957.0,222.0,-1.0,-1.0,2.0,181,155,160,163,162
2025-02-26 14:35:53.518,-218.0,-957.0,224.0,-1.0,0.0,2.0,177,152,158,160,162
2025-02-26 14:35:53.522,-223.0,-955.0,222.0,-1.0,0.0,1.0,177,152,157,160,163
2025-02-26 14:35:53.530,-220.0,-952.0,219.0,-2.0,0.0,1.0,176,153,158,159,160
2025-02-26 14:35:53.534,-228.0,-955.0,220.0,-2.0,0.0,1.0,180,156,159,162,162
2025-02-26 14:35:53.538,-225.0,-950.0,223.0,-2.0,0.0,1.0,176,150,157,160,159
2025-02-26 14:35:53.542,-223.0,-949.0,225.0,-2.0,0.0,0.0,177,152,157,160,160
2025-02-26 14:35:53.550,-227.0,-950.0,221.0,-1.0,0.0,1.0,181,155,160,163,163
2025-02-26 14:35:53.554,-229.0,-948.0,216.0,-1.0,0.0,1.0,177,153,156,162,161
2025-02-26 14:35:53.558,-233.0,-946.0,214.0,0.0,0.0,1.0,174,151,156,159,159
2025-02-26 14:35:53.563,-229.0,-939.0,227.0,-1.0,0.0,1.0,180,156,162,164,164
2025-02-26 14:35:53.568,-220.0,-957.0,214.0,-1.0,0.0,0.0,180,155,161,162,163
2025-02-26 14:35:53.575,-229.0,-957.0,217.0,-2.0,0.0,0.0,175,151,157,159,159
2025-02-26 14:35:53.579,-227.0,-949.0,217.0,-2.0,0.0,0.0,175,149,154,158,158
2025-02-26 14:35:53.583,-227.0,-952.0,215.0,-1.0,-1.0,0.0,180,155,161,165,165
2025-02-26 14:35:53.587,-221.0,-953.0,220.0,-1.0,-1.0,0.0,178,152,159,161,162
2025-02-26 14:35:53.595,-214.0,-951.0,220.0,-2.0,-1.0,0.0,179,151,156,160,158
2025-02-26 14:35:53.597,-215.0,-954.0,220.0,-1.0,0.0,0.0,178,152,158,160,159
2025-02-26 14:35:53.604,-215.0,-965.0,222.0,-1.0,0.0,-1.0,180,154,156,163,163
2025-02-26 14:35:53.608,-223.0,-963.0,220.0,-1.0,0.0,0.0,179,154,159,161,162
2025-02-26 14:35:53.616,-218.0,-962.0,220.0,-1.0,1.0,-1.0,176,146,156,159,159
2025-02-26 14:35:53.620,-223.0,-965.0,218.0,-1.0,1.0,-1.0,180,154,159,162,159
2025-02-26 14:35:53.624,-224.0,-963.0,228.0,-1.0,1.0,-1.0,177,155,160,161,162
2025-02-26 14:35:53.628,-220.0,-965.0,225.0,0.0,1.0,-2.0,177,151,158,160,160
2025-02-26 14:35:53.636,-224.0,-966.0,218.0,0.0,1.0,-2.0,175,151,159,159,159
2025-02-26 14:35:53.641,-233.0,-970.0,221.0,0.0,1.0,-2.0,179,154,159,160,161
2025-02-26 14:35:53.645,-227.0,-967.0,214.0,0.0,0.0,-2.0,181,153,159,162,162
2025-02-26 14:35:53.649,-230.0,-974.0,212.0,-1.0,0.0,-2.0,176,152,157,159,159
2025-02-26 14:35:53.657,-220.0,-978.0,206.0,-1.0,-1.0,-1.0,178,154,159,161,162
2025-02-26 14:35:53.661,-220.0,-980.0,209.0,-1.0,-1.0,-1.0,179,154,162,161,161
2025-02-26 14:35:53.665,-228.0,-955.0,228.0,0.0,0.0,-1.0,179,154,160,162,162
2025-02-26 14:35:53.669,-218.0,-1003.0,204.0,-3.0,-1.0,-1.0,175,152,156,160,158
2025-02-26 14:35:53.677,-206.0,-1009.0,194.0,-2.0,0.0,-1.0,177,152,156,158,159
2025-02-26 14:35:53.681,-226.0,-962.0,207.0,-1.0,0.0,0.0,184,159,163,165,167
2025-02-26 14:35:53.686,-212.0,-984.0,227.0,-2.0,-1.0,0.0,179,154,160,162,162
2025-02-26 14:35:53.693,-210.0,-996.0,208.0,-2.0,-1.0,1.0,176,151,155,158,159
2025-02-26 14:35:53.697,-226.0,-992.0,207.0,-1.0,-1.0,1.0,179,154,158,162,162
2025-02-26 14:35:53.701,-221.0,-983.0,209.0,0.0,-1.0,1.0,184,159,165,167,166
2025-02-26 14:35:53.706,-217.0,-988.0,205.0,0.0,-1.0,1.0,176,151,158,160,160
2025-02-26 14:35:53.710,-214.0,-985.0,203.0,0.0,-1.0,1.0,177,152,157,158,159
2025-02-26 14:35:53.718,-225.0,-977.0,204.0,0.0,0.0,1.0,178,154,159,162,163
2025-02-26 14:35:53.723,-230.0,-980.0,197.0,1.0,-1.0,1.0,181,156,161,163,164
2025-02-26 14:35:53.726,-227.0,-974.0,203.0,1.0,-1.0,2.0,176,150,157,159,159
2025-02-26 14:35:53.731,-229.0,-973.0,199.0,1.0,-1.0,1.0,179,155,160,162,163
2025-02-26 14:35:53.737,-228.0,-973.0,202.0,1.0,-1.0,2.0,180,155,164,162,162
2025-02-26 14:35:53.743,-225.0,-970.0,208.0,1.0,-1.0,2.0,179,153,160,162,162
2025-02-26 14:35:53.747,-227.0,-973.0,203.0,1.0,-2.0,2.0,176,150,156,158,158
2025-02-26 14:35:53.752,-232.0,-974.0,206.0,1.0,-3.0,2.0,179,154,160,163,162
2025-02-26 14:35:53.759,-225.0,-968.0,207.0,1.0,-3.0,2.0,178,153,159,161,162
2025-02-26 14:35:53.762,-226.0,-961.0,211.0,1.0,-3.0,2.0,177,152,157,160,161
2025-02-26 14:35:53.767,-222.0,-963.0,212.0,1.0,-3.0,3.0,181,155,160,162,163
2025-02-26 14:35:53.772,-220.0,-966.0,212.0,2.0,-2.0,3.0,178,154,160,161,163
2025-02-26 14:35:53.779,-220.0,-972.0,210.0,2.0,-2.0,3.0,177,151,156,158,158
2025-02-26 14:35:53.784,-222.0,-975.0,206.0,3.0,-3.0,3.0,177,152,157,160,160
2025-02-26 14:35:53.788,-225.0,-977.0,205.0,4.0,-3.0,3.0,181,156,159,162,163
2025-02-26 14:35:53.792,-224.0,-988.0,203.0,4.0,-3.0,3.0,179,153,159,161,162
2025-02-26 14:35:53.796,-236.0,-1008.0,201.0,5.0,-4.0,5.0,174,150,156,158,158
2025-02-26 14:35:53.804,-238.0,-1005.0,200.0,5.0,-6.0,4.0,181,157,162,164,164
2025-02-26 14:35:53.809,-236.0,-1014.0,195.0,5.0,-7.0,5.0,180,155,161,161,163
2025-02-26 14:35:53.813,-248.0,-1012.0,182.0,6.0,-9.0,7.0,176,151,156,158,158
2025-02-26 14:35:53.820,-237.0,-1035.0,196.0,7.0,-10.0,8.0,175,152,155,161,159
2025-02-26 14:35:53.825,-243.0,-1041.0,170.0,6.0,-12.0,9.0,180,156,162,164,164
2025-02-26 14:35:53.829,-249.0,-1038.0,174.0,11.0,-14.0,10.0,180,155,161,166,163
2025-02-26 14:35:53.833,-252.0,-1022.0,168.0,13.0,-15.0,12.0,178,152,158,160,162
2025-02-26 14:35:53.842,-251.0,-1017.0,195.0,15.0,-15.0,13.0,176,150,155,158,158
2025-02-26 14:35:53.845,-230.0,-1004.0,187.0,16.0,-15.0,14.0,178,150,157,158,160
2025-02-26 14:35:53.849,-240.0,-1000.0,208.0,17.0,-14.0,14.0,179,154,159,161,162
2025-02-26 14:35:53.858,-247.0,-1012.0,208.0,17.0,-14.0,15.0,179,154,156,161,161
2025-02-26 14:35:53.862,-245.0,-993.0,207.0,20.0,-14.0,16.0,183,158,164,166,166
2025-02-26 14:35:53.864,-260.0,-963.0,203.0,22.0,-15.0,15.0,177,151,159,160,161
2025-02-26 14:35:53.873,-260.0,-980.0,211.0,28.0,-14.0,16.0,178,148,157,157,158
2025-02-26 14:35:53.878,-227.0,-972.0,236.0,26.0,-14.0,15.0,175,149,154,157,157
2025-02-26 14:35:53.883,-224.0,-939.0,208.0,26.0,-14.0,14.0,181,155,162,163,163
2025-02-26 14:35:53.886,-243.0,-955.0,234.0,25.0,-13.0,15.0,179,154,160,162,161
2025-02-26 14:35:53.894,-215.0,-933.0,283.0,29.0,-8.0,13.0,176,148,156,159,158
2025-02-26 14:35:53.898,-187.0,-929.0,258.0,26.0,-8.0,14.0,175,148,153,158,155
2025-02-26 14:35:53.903,-228.0,-939.0,270.0,26.0,-9.0,14.0,180,153,160,164,161
2025-02-26 14:35:53.911,-243.0,-959.0,276.0,29.0,-8.0,16.0,180,153,161,160,159
2025-02-26 14:35:53.914,-227.0,-977.0,311.0,29.0,-6.0,17.0,174,150,157,159,158
2025-02-26 14:35:53.920,-229.0,-987.0,278.0,25.0,-6.0,18.0,175,147,155,157,156
2025-02-26 14:35:53.924,-235.0,-998.0,282.0,28.0,-6.0,19.0,176,144,157,158,156
2025-02-26 14:35:53.931,-263.0,-997.0,298.0,31.0,-6.0,20.0,181,152,159,161,158
2025-02-26 14:35:53.935,-258.0,-987.0,306.0,31.0,-6.0,22.0,178,149,158,159,156
2025-02-26 14:35:53.939,-263.0,-984.0,328.0,33.0,-6.0,24.0,175,147,156,157,154
2025-02-26 14:35:53.947,-262.0,-974.0,331.0,40.0,-5.0,24.0,176,148,156,157,155
2025-02-26 14:35:53.952,-271.0,-965.0,334.0,43.0,-4.0,26.0,179,150,159,160,158
2025-02-26 14:35:53.956,-244.0,-950.0,316.0,39.0,0.0,26.0,179,150,159,160,156
2025-02-26 14:35:53.960,-247.0,-944.0,300.0,38.0,4.0,27.0,180,151,159,160,157
2025-02-26 14:35:53.968,-249.0,-941.0,284.0,35.0,5.0,28.0,177,148,156,158,155
2025-02-26 14:35:53.973,-256.0,-930.0,282.0,35.0,9.0,27.0,178,150,159,159,157
2025-02-26 14:35:53.977,-259.0,-939.0,314.0,34.0,10.0,26.0,178,148,159,158,156
2025-02-26 14:35:53.981,-263.0,-918.0,316.0,30.0,10.0,24.0,181,149,160,160,157
2025-02-26 14:35:53.989,-271.0,-939.0,307.0,31.0,10.0,23.0,178,147,156,155,153
2025-02-26 14:35:53.993,-299.0,-922.0,296.0,28.0,11.0,21.0,180,149,160,158,156
2025-02-26 14:35:53.997,-293.0,-893.0,307.0,28.0,13.0,19.0,179,148,158,157,155
2025-02-26 14:35:54.002,-288.0,-891.0,292.0,27.0,13.0,18.0,180,150,159,159,155
2025-02-26 14:35:54.009,-282.0,-894.0,291.0,26.0,13.0,16.0,175,145,155,153,151
2025-02-26 14:35:54.014,-295.0,-892.0,297.0,26.0,14.0,15.0,180,147,158,157,153
2025-02-26 14:35:54.018,-293.0,-905.0,301.0,25.0,12.0,13.0,179,148,159,158,154
2025-02-26 14:35:54.025,-303.0,-903.0,311.0,24.0,10.0,11.0,179,148,158,158,153
2025-02-26 14:35:54.037,-297.0,-899.0,297.0,22.0,9.0,9.0,178,145,155,153,148
2025-02-26 14:35:54.039,-293.0,-890.0,298.0,21.0,7.0,8.0,175,147,158,156,149
2025-02-26 14:35:54.041,-291.0,-881.0,310.0,20.0,6.0,5.0,178,148,159,156,150
2025-02-26 14:35:54.045,-289.0,-879.0,309.0,20.0,4.0,3.0,177,146,155,155,148
2025-02-26 14:35:54.050,-310.0,-872.0,312.0,19.0,4.0,2.0,176,145,155,155,146
2025-02-26 14:35:54.052,-287.0,-881.0,338.0,21.0,5.0,1.0,177,147,158,156,149
2025-02-26 14:35:54.059,-296.0,-893.0,291.0,22.0,0.0,2.0,178,147,156,155,146
2025-02-26 14:35:54.063,-299.0,-877.0,302.0,15.0,0.0,2.0,178,146,154,154,147
2025-02-26 14:35:54.071,-279.0,-865.0,304.0,15.0,-2.0,2.0,177,149,160,158,149
2025-02-26 14:35:54.075,-295.0,-853.0,305.0,14.0,-5.0,2.0,179,147,158,156,145
2025-02-26 14:35:54.079,-283.0,-857.0,338.0,14.0,-6.0,1.0,178,146,156,154,146
2025-02-26 14:35:54.083,-276.0,-857.0,350.0,14.0,-7.0,0.0,176,144,154,153,146
2025-02-26 14:35:54.091,-267.0,-857.0,348.0,11.0,-5.0,-2.0,180,149,159,156,147
2025-02-26 14:35:54.095,-274.0,-862.0,343.0,10.0,-4.0,-5.0,177,148,157,151,146
2025-02-26 14:35:54.100,-283.0,-854.0,336.0,10.0,-2.0,-7.0,179,147,157,156,147
2025-02-26 14:35:54.106,-277.0,-844.0,361.0,8.0,-1.0,-9.0,176,145,154,154,144
2025-02-26 14:35:54.111,-290.0,-852.0,315.0,11.0,1.0,-10.0,178,150,159,156,148
2025-02-26 14:35:54.116,-290.0,-866.0,334.0,11.0,1.0,-11.0,179,148,156,156,147
2025-02-26 14:35:54.120,-302.0,-875.0,337.0,10.0,0.0,-11.0,182,151,159,160,151
2025-02-26 14:35:54.128,-310.0,-856.0,354.0,9.0,0.0,-11.0,177,144,155,154,147
2025-02-26 14:35:54.132,-313.0,-858.0,342.0,9.0,-3.0,-11.0,176,144,154,154,146
2025-02-26 14:35:54.137,-322.0,-870.0,345.0,7.0,-6.0,-11.0,179,147,158,156,148
2025-02-26 14:35:54.140,-310.0,-869.0,340.0,7.0,-7.0,-10.0,182,150,158,159,151
2025-02-26 14:35:54.148,-305.0,-871.0,350.0,8.0,-8.0,-10.0,177,145,158,155,146
2025-02-26 14:35:54.152,-290.0,-871.0,345.0,9.0,-7.0,-10.0,175,143,153,153,146
2025-02-26 14:35:54.156,-278.0,-878.0,336.0,9.0,-5.0,-10.0,179,148,157,156,150
2025-02-26 14:35:54.164,-284.0,-888.0,361.0,9.0,-3.0,-11.0,181,150,158,160,151
2025-02-26 14:35:54.168,-282.0,-876.0,369.0,11.0,-2.0,-12.0,177,145,153,155,147
2025-02-26 14:35:54.173,-292.0,-876.0,375.0,14.0,-1.0,-13.0,176,144,152,153,145
2025-02-26 14:35:54.177,-292.0,-872.0,384.0,16.0,0.0,-13.0,178,146,156,156,148
2025-02-26 14:35:54.185,-288.0,-872.0,377.0,17.0,0.0,-14.0,182,149,158,158,151
2025-02-26 14:35:54.189,-285.0,-869.0,369.0,17.0,0.0,-16.0,178,147,156,157,148
2025-02-26 14:35:54.194,-276.0,-864.0,382.0,17.0,0.0,-19.0,175,145,155,155,146
2025-02-26 14:35:54.201,-274.0,-857.0,360.0,18.0,0.0,-20.0,174,143,152,153,144
2025-02-26 14:35:54.206,-272.0,-849.0,366.0,18.0,-1.0,-22.0,179,149,158,158,152
2025-02-26 14:35:54.210,-279.0,-838.0,370.0,18.0,-2.0,-24.0,178,148,159,159,153
2025-02-26 14:35:54.214,-285.0,-843.0,364.0,18.0,-3.0,-24.0,177,145,155,154,149
2025-02-26 14:35:54.222,-279.0,-827.0,368.0,15.0,-3.0,-25.0,176,144,154,154,147
2025-02-26 14:35:54.227,-267.0,-828.0,357.0,15.0,-3.0,-26.0,176,145,154,154,148
2025-02-26 14:35:54.231,-268.0,-839.0,367.0,12.0,-3.0,-26.0,179,150,159,157,150
2025-02-26 14:35:54.238,-275.0,-843.0,372.0,8.0,-4.0,-25.0,179,148,157,158,150
2025-02-26 14:35:54.243,-275.0,-845.0,380.0,6.0,-5.0,-25.0,179,147,157,158,153
2025-02-26 14:35:54.246,-280.0,-864.0,384.0,7.0,-5.0,-24.0,177,146,156,156,151
2025-02-26 14:35:54.251,-290.0,-878.0,396.0,3.0,-7.0,-23.0,178,147,158,158,152
2025-02-26 14:35:54.259,-275.0,-891.0,377.0,2.0,-8.0,-23.0,180,148,157,157,153
2025-02-26 14:35:54.263,-267.0,-911.0,390.0,5.0,-12.0,-23.0,180,149,160,159,153
2025-02-26 14:35:54.267,-274.0,-877.0,398.0,3.0,-6.0,-23.0,176,147,154,156,151
2025-02-26 14:35:54.275,-255.0,-923.0,353.0,0.0,-12.0,-22.0,173,145,152,153,149
2025-02-26 14:35:54.279,-265.0,-914.0,363.0,-2.0,-13.0,-20.0,179,150,158,159,154
2025-02-26 14:35:54.284,-242.0,-906.0,358.0,-1.0,-17.0,-20.0,180,151,159,160,155
2025-02-26 14:35:54.292,-254.0,-909.0,387.0,-2.0,-17.0,-20.0,178,147,158,159,154
2025-02-26 14:35:54.296,-246.0,-919.0,370.0,-1.0,-17.0,-19.0,175,146,151,156,150
2025-02-26 14:35:54.300,-243.0,-928.0,381.0,-4.0,-17.0,-19.0,177,147,156,157,151
2025-02-26 14:35:54.308,-226.0,-926.0,349.0,-5.0,-18.0,-19.0,180,149,158,160,155
2025-02-26 14:35:54.312,-233.0,-917.0,271.0,-20.0,-33.0,-20.0,179,151,158,156,155
2025-02-26 14:35:54.316,-252.0,-919.0,553.0,-4.0,-16.0,-16.0,179,151,158,159,155
2025-02-26 14:35:54.321,-231.0,-923.0,313.0,-5.0,-25.0,-13.0,181,154,162,162,157
2025-02-26 14:35:54.328,-253.0,-900.0,403.0,-8.0,-25.0,-14.0,178,148,155,157,153
2025-02-26 14:35:54.332,-229.0,-912.0,367.0,-2.0,-20.0,-13.0,176,148,156,156,153
2025-02-26 14:35:54.337,-243.0,-929.0,388.0,-8.0,-23.0,-12.0,179,151,158,159,155
2025-02-26 14:35:54.345,-232.0,-902.0,393.0,-5.0,-21.0,-12.0,181,153,159,161,159
2025-02-26 14:35:54.349,-221.0,-922.0,377.0,-3.0,-19.0,-12.0,178,151,159,159,158
2025-02-26 14:35:54.354,-205.0,-914.0,375.0,-5.0,-17.0,-10.0,181,149,155,163,155
2025-02-26 14:35:54.361,-206.0,-917.0,364.0,-5.0,-16.0,-9.0,176,148,155,158,154
2025-02-26 14:35:54.366,-207.0,-929.0,362.0,-6.0,-15.0,-8.0,176,148,154,155,154
2025-02-26 14:35:54.368,-208.0,-939.0,377.0,-8.0,-15.0,-6.0,179,152,158,160,158
2025-02-26 14:35:54.377,-205.0,-948.0,383.0,-9.0,-18.0,-4.0,179,152,159,160,158
2025-02-26 14:35:54.381,-207.0,-945.0,399.0,-10.0,-19.0,-3.0,181,154,161,162,161
2025-02-26 14:35:54.386,-211.0,-951.0,389.0,-12.0,-18.0,-2.0,177,149,156,158,155
2025-02-26 14:35:54.391,-200.0,-952.0,413.0,-14.0,-18.0,-3.0,176,148,155,157,155
2025-02-26 14:35:54.399,-195.0,-966.0,393.0,-15.0,-19.0,-3.0,178,152,158,161,160
2025-02-26 14:35:54.403,-204.0,-964.0,370.0,-16.0,-19.0,-2.0,183,154,160,161,160
2025-02-26 14:35:54.409,-207.0,-966.0,396.0,-15.0,-18.0,-2.0,179,152,159,160,159
2025-02-26 14:35:54.415,-198.0,-954.0,382.0,-16.0,-17.0,-3.0,176,150,156,157,156
2025-02-26 14:35:54.419,-211.0,-957.0,400.0,-13.0,-16.0,-2.0,175,148,156,155,155
2025-02-26 14:35:54.423,-221.0,-953.0,387.0,-11.0,-13.0,-2.0,173,149,155,158,155
2025-02-26 14:35:54.431,-209.0,-960.0,384.0,-13.0,-13.0,-2.0,180,153,159,162,160
2025-02-26 14:35:54.434,-205.0,-954.0,377.0,-15.0,-13.0,-2.0,177,152,157,160,159
2025-02-26 14:35:54.440,-214.0,-962.0,379.0,-16.0,-15.0,-1.0,177,152,156,159,158
2025-02-26 14:35:54.447,-206.0,-943.0,390.0,-18.0,-15.0,-2.0,177,152,158,158,158
2025-02-26 14:35:54.452,-194.0,-939.0,397.0,-18.0,-15.0,-2.0,176,149,155,157,156
2025-02-26 14:35:54.456,-208.0,-944.0,392.0,-21.0,-14.0,-1.0,177,150,156,158,157
2025-02-26 14:35:54.464,-196.0,-943.0,383.0,-21.0,-14.0,-2.0,182,155,163,163,163
2025-02-26 14:35:54.469,-195.0,-930.0,377.0,-23.0,-14.0,-2.0,180,155,160,161,160
2025-02-26 14:35:54.474,-181.0,-945.0,395.0,-23.0,-13.0,-1.0,179,152,159,160,158
2025-02-26 14:35:54.480,-185.0,-928.0,395.0,-24.0,-13.0,-1.0,175,149,156,158,157
2025-02-26 14:35:54.485,-185.0,-944.0,379.0,-23.0,-11.0,-1.0,179,151,158,160,158
2025-02-26 14:35:54.489,-189.0,-941.0,381.0,-23.0,-9.0,-1.0,180,154,160,161,161
2025-02-26 14:35:54.494,-184.0,-948.0,370.0,-24.0,-6.0,-1.0,180,154,159,160,158
2025-02-26 14:35:54.500,-194.0,-940.0,381.0,-23.0,-3.0,-1.0,180,152,158,159,159
2025-02-26 14:35:54.506,-190.0,-951.0,386.0,-21.0,-2.0,0.0,178,151,156,158,157
2025-02-26 14:35:54.510,-190.0,-947.0,378.0,-19.0,-1.0,1.0,177,149,156,158,157
2025-02-26 14:35:54.516,-190.0,-930.0,355.0,-18.0,0.0,2.0,180,154,159,160,160
2025-02-26 14:35:54.521,-191.0,-939.0,352.0,-18.0,0.0,3.0,183,156,162,162,163
2025-02-26 14:35:54.525,-191.0,-940.0,342.0,-18.0,0.0,6.0,178,150,157,159,157
2025-02-26 14:35:54.530,-202.0,-941.0,338.0,-18.0,-1.0,7.0,176,149,157,158,158
2025-02-26 14:35:54.538,-204.0,-940.0,359.0,-19.0,-1.0,9.0,180,155,159,160,160
2025-02-26 14:35:54.541,-207.0,-931.0,355.0,-18.0,1.0,10.0,185,158,165,164,164
2025-02-26 14:35:54.546,-210.0,-919.0,344.0,-17.0,1.0,10.0,178,151,156,159,158
2025-02-26 14:35:54.554,-209.0,-922.0,354.0,-15.0,2.0,9.0,175,148,156,157,156
2025-02-26 14:35:54.558,-200.0,-926.0,337.0,-14.0,4.0,8.0,179,152,160,161,160
2025-02-26 14:35:54.562,-193.0,-934.0,330.0,-14.0,4.0,6.0,182,155,161,163,163
2025-02-26 14:35:54.566,-192.0,-933.0,335.0,-13.0,6.0,3.0,178,150,157,158,157
2025-02-26 14:35:54.578,-198.0,-932.0,344.0,-12.0,5.0,0.0,177,150,155,157,157
2025-02-26 14:35:54.578,-187.0,-916.0,350.0,-7.0,9.0,-3.0,179,152,159,161,160
2025-02-26 14:35:54.583,-198.0,-932.0,344.0,-6.0,11.0,-5.0,181,154,161,162,162
2025-02-26 14:35:54.587,-193.0,-924.0,336.0,-7.0,12.0,-8.0,178,149,156,158,157
2025-02-26 14:35:54.595,-205.0,-916.0,330.0,-5.0,13.0,-9.0,177,150,155,157,156
2025-02-26 14:35:54.599,-225.0,-919.0,335.0,-3.0,14.0,-9.0,179,147,160,160,159
2025-02-26 14:35:54.602,-220.0,-918.0,340.0,0.0,15.0,-9.0,181,153,160,160,161
2025-02-26 14:35:54.608,-230.0,-926.0,331.0,1.0,13.0,-9.0,179,152,159,160,159
2025-02-26 14:35:54.615,-234.0,-905.0,342.0,0.0,14.0,-11.0,176,148,158,155,156
2025-02-26 14:35:54.620,-228.0,-916.0,317.0,2.0,14.0,-10.0,180,151,160,162,161
2025-02-26 14:35:54.624,-237.0,-959.0,315.0,3.0,13.0,-10.0,182,155,161,161,161
2025-02-26 14:35:54.631,-209.0,-959.0,326.0,2.0,14.0,-9.0,179,151,159,159,160
2025-02-26 14:35:54.635,-211.0,-973.0,318.0,3.0,14.0,-7.0,175,147,155,156,156
2025-02-26 14:35:54.641,-211.0,-978.0,311.0,2.0,12.0,-6.0,179,151,159,160,160
2025-02-26 14:35:54.644,-217.0,-988.0,357.0,2.0,14.0,-5.0,180,153,160,161,162
2025-02-26 14:35:54.652,-214.0,-981.0,359.0,0.0,16.0,-2.0,180,149,159,159,158
2025-02-26 14:35:54.656,-210.0,-1002.0,355.0,-3.0,18.0,0.0,175,146,155,155,155
2025-02-26 14:35:54.660,-204.0,-1024.0,348.0,-1.0,21.0,1.0,180,152,159,161,160
2025-02-26 14:35:54.665,-187.0,-1030.0,354.0,-8.0,21.0,3.0,183,151,160,160,160
2025-02-26 14:35:54.673,-173.0,-1042.0,374.0,-12.0,21.0,5.0,180,149,159,160,159
2025-02-26 14:35:54.677,-165.0,-1064.0,396.0,-19.0,23.0,6.0,176,145,155,156,155
2025-02-26 14:35:54.680,-154.0,-1064.0,399.0,-23.0,28.0,6.0,179,147,158,159,158
2025-02-26 14:35:54.689,-150.0,-1051.0,416.0,-29.0,32.0,4.0,181,148,161,161,161
2025-02-26 14:35:54.692,-132.0,-1056.0,405.0,-31.0,36.0,4.0,179,145,160,160,159
2025-02-26 14:35:54.697,-162.0,-1064.0,378.0,-30.0,38.0,2.0,178,144,159,159,158
2025-02-26 14:35:54.702,-169.0,-1039.0,377.0,-27.0,39.0,-1.0,178,140,158,158,156
2025-02-26 14:35:54.709,-160.0,-1062.0,459.0,-15.0,46.0,0.0,177,137,156,155,155
2025-02-26 14:35:54.714,-194.0,-1037.0,298.0,-26.0,41.0,-4.0,180,138,156,159,157
2025-02-26 14:35:54.718,-173.0,-1042.0,378.0,-26.0,44.0,-6.0,180,137,159,158,157
2025-02-26 14:35:54.726,-190.0,-1057.0,350.0,-25.0,44.0,-7.0,178,135,158,158,156
2025-02-26 14:35:54.730,-201.0,-1027.0,292.0,-25.0,43.0,-5.0,177,132,159,157,155
2025-02-26 14:35:54.734,-197.0,-1020.0,261.0,-21.0,41.0,-2.0,175,128,155,153,152
2025-02-26 14:35:54.742,-230.0,-1011.0,247.0,-21.0,37.0,0.0,178,131,158,156,154
2025-02-26 14:35:54.746,-240.0,-962.0,257.0,-18.0,35.0,6.0,182,132,159,158,156
2025-02-26 14:35:54.751,-244.0,-950.0,279.0,-18.0,32.0,10.0,179,130,157,156,155
2025-02-26 14:35:54.758,-240.0,-945.0,295.0,-20.0,32.0,10.0,175,125,155,153,150
2025-02-26 14:35:54.763,-246.0,-966.0,305.0,-21.0,34.0,10.0,178,128,156,155,152
2025-02-26 14:35:54.767,-244.0,-966.0,299.0,-22.0,39.0,10.0,178,130,159,155,152
2025-02-26 14:35:54.771,-219.0,-966.0,298.0,-21.0,44.0,9.0,178,129,159,155,151
2025-02-26 14:35:54.779,-222.0,-959.0,306.0,-22.0,47.0,8.0,176,127,157,153,149
2025-02-26 14:35:54.783,-215.0,-956.0,291.0,-23.0,45.0,5.0,178,126,157,152,148
2025-02-26 14:35:54.784,-216.0,-941.0,263.0,-22.0,44.0,3.0,175,125,154,150,147
2025-02-26 14:35:54.795,-229.0,-922.0,268.0,-24.0,43.0,0.0,179,128,159,154,149
2025-02-26 14:35:54.800,-228.0,-915.0,275.0,-25.0,43.0,-3.0,178,129,157,153,149
2025-02-26 14:35:54.804,-222.0,-909.0,222.0,-25.0,39.0,-7.0,178,127,156,151,147
2025-02-26 14:35:54.808,-230.0,-893.0,239.0,-25.0,39.0,-11.0,175,125,154,149,144
2025-02-26 14:35:54.815,-235.0,-903.0,217.0,-24.0,38.0,-14.0,173,123,154,149,141
2025-02-26 14:35:54.820,-241.0,-889.0,180.0,-24.0,39.0,-19.0,178,128,158,153,148
2025-02-26 14:35:54.825,-268.0,-894.0,164.0,-23.0,38.0,-23.0,179,130,159,155,148
2025-02-26 14:35:54.832,-274.0,-899.0,164.0,-20.0,36.0,-25.0,177,126,156,152,143
2025-02-26 14:35:54.837,-298.0,-914.0,155.0,-14.0,35.0,-27.0,175,124,154,150,143
2025-02-26 14:35:54.840,-289.0,-922.0,160.0,-12.0,32.0,-29.0,177,125,157,153,146
2025-02-26 14:35:54.848,-305.0,-926.0,180.0,-4.0,32.0,-29.0,177,125,156,152,145
2025-02-26 14:35:54.850,-318.0,-901.0,181.0,1.0,31.0,-28.0,177,124,156,152,144
2025-02-26 14:35:54.858,-298.0,-886.0,123.0,0.0,30.0,-24.0,176,124,155,151,144
2025-02-26 14:35:54.862,-283.0,-941.0,64.0,9.0,29.0,-20.0,176,123,155,150,143
2025-02-26 14:35:54.869,-286.0,-949.0,86.0,11.0,26.0,-18.0,173,121,155,148,142
2025-02-26 14:35:54.874,-285.0,-954.0,81.0,12.0,22.0,-12.0,178,125,155,151,144
2025-02-26 14:35:54.878,-286.0,-953.0,149.0,9.0,16.0,-7.0,177,124,157,151,143
2025-02-26 14:35:54.886,-278.0,-974.0,149.0,6.0,12.0,-3.0,175,122,154,150,142
2025-02-26 14:35:54.890,-277.0,-977.0,158.0,5.0,7.0,-2.0,174,120,154,148,140
2025-02-26 14:35:54.894,-282.0,-986.0,159.0,2.0,6.0,2.0,178,124,156,154,144
2025-02-26 14:35:54.898,-270.0,-1014.0,141.0,1.0,3.0,5.0,177,123,156,152,142
2025-02-26 14:35:54.902,-264.0,-1037.0,156.0,0.0,2.0,8.0,174,121,155,149,138
2025-02-26 14:35:54.910,-273.0,-1058.0,183.0,-3.0,-3.0,9.0,178,125,157,152,143
2025-02-26 14:35:54.914,-271.0,-1061.0,178.0,-5.0,-8.0,12.0,176,123,157,153,143
2025-02-26 14:35:54.919,-270.0,-1082.0,203.0,-7.0,-13.0,15.0,177,124,157,151,141
2025-02-26 14:35:54.927,-262.0,-1099.0,211.0,-8.0,-15.0,17.0,175,123,152,151,139
2025-02-26 14:35:54.931,-267.0,-1114.0,251.0,-5.0,-19.0,18.0,174,120,154,150,139
2025-02-26 14:35:54.935,-236.0,-1107.0,264.0,-6.0,-20.0,18.0,177,127,156,152,141
2025-02-26 14:35:54.943,-227.0,-1133.0,254.0,-10.0,-20.0,19.0,181,129,160,157,146
2025-02-26 14:35:54.947,-204.0,-1109.0,242.0,-12.0,-24.0,18.0,178,126,157,153,143
2025-02-26 14:35:54.952,-193.0,-1090.0,279.0,-11.0,-26.0,16.0,176,124,156,151,141
2025-02-26 14:35:54.959,-169.0,-1072.0,260.0,-15.0,-27.0,13.0,175,121,152,147,138
2025-02-26 14:35:54.964,-161.0,-1059.0,255.0,-22.0,-27.0,11.0,176,123,153,150,139
2025-02-26 14:35:54.967,-177.0,-1047.0,227.0,-29.0,-26.0,11.0,173,121,152,150,137
2025-02-26 14:35:54.973,-170.0,-1023.0,204.0,-32.0,-38.0,9.0,177,127,157,154,143
2025-02-26 14:35:54.980,-204.0,-1095.0,460.0,-26.0,-19.0,14.0,178,125,156,154,142
2025-02-26 14:35:54.984,-158.0,-1059.0,215.0,-29.0,-25.0,15.0,178,126,163,153,142
2025-02-26 14:35:54.992,-215.0,-1081.0,270.0,-30.0,-26.0,18.0,176,125,154,150,142
2025-02-26 14:35:54.997,-225.0,-1062.0,277.0,-32.0,-27.0,18.0,174,124,153,149,140
2025-02-26 14:35:54.997,-236.0,-1048.0,244.0,-31.0,-29.0,18.0,178,128,156,152,143
2025-02-26 14:35:55.009,-244.0,-1063.0,232.0,-26.0,-33.0,18.0,176,127,154,151,141
2025-02-26 14:35:55.013,-230.0,-1072.0,250.0,-24.0,-34.0,19.0,177,129,156,153,145
2025-02-26 14:35:55.017,-217.0,-1052.0,220.0,-21.0,-34.0,17.0,177,129,160,154,145
2025-02-26 14:35:55.025,-222.0,-1032.0,229.0,-24.0,-33.0,16.0,177,131,157,154,145
2025-02-26 14:35:55.029,-191.0,-1228.0,279.0,-36.0,-26.0,21.0,176,132,156,154,143
2025-02-26 14:35:55.034,-244.0,-878.0,50.0,-62.0,-33.0,12.0,169,129,155,148,142
2025-02-26 14:35:55.041,-255.0,-970.0,249.0,-41.0,-35.0,13.0,173,129,154,149,142
2025-02-26 14:35:55.046,-256.0,-977.0,297.0,-44.0,-29.0,14.0,180,137,152,156,147
2025-02-26 14:35:55.050,-229.0,-967.0,354.0,-51.0,-23.0,13.0,178,136,157,154,148
2025-02-26 14:35:55.058,-206.0,-918.0,199.0,-42.0,-26.0,12.0,178,137,156,153,147
2025-02-26 14:35:55.062,-219.0,-917.0,246.0,-37.0,-27.0,11.0,178,138,158,156,149
2025-02-26 14:35:55.064,-219.0,-899.0,349.0,-42.0,-21.0,9.0,175,135,154,151,145
2025-02-26 14:35:55.074,-195.0,-911.0,180.0,-33.0,-23.0,10.0,175,136,153,152,144
2025-02-26 14:35:55.078,-219.0,-935.0,210.0,-32.0,-27.0,10.0,178,138,158,155,149
2025-02-26 14:35:55.083,-228.0,-916.0,236.0,-24.0,-26.0,11.0,181,143,159,157,151
2025-02-26 14:35:55.087,-243.0,-938.0,250.0,-17.0,-23.0,12.0,178,142,157,154,150
2025-02-26 14:35:55.095,-244.0,-941.0,241.0,-2.0,-25.0,11.0,174,137,153,151,146
2025-02-26 14:35:55.099,-249.0,-950.0,276.0,4.0,-24.0,11.0,174,138,153,153,147
2025-02-26 14:35:55.103,-252.0,-957.0,305.0,4.0,-18.0,10.0,179,145,164,157,152
2025-02-26 14:35:55.111,-243.0,-965.0,166.0,2.0,-25.0,10.0,179,145,158,156,152
2025-02-26 14:35:55.115,-241.0,-942.0,295.0,1.0,-19.0,7.0,176,141,153,152,148
2025-02-26 14:35:55.120,-238.0,-945.0,292.0,0.0,-13.0,5.0,175,141,155,151,147
2025-02-26 14:35:55.124,-234.0,-940.0,248.0,-4.0,-8.0,5.0,178,146,160,158,152
2025-02-26 14:35:55.131,-263.0,-961.0,208.0,-10.0,-1.0,5.0,179,147,160,158,157
2025-02-26 14:35:55.136,-259.0,-993.0,167.0,-14.0,-1.0,4.0,175,142,154,155,149
2025-02-26 14:35:55.140,-253.0,-983.0,205.0,-18.0,1.0,3.0,175,142,155,153,147
2025-02-26 14:35:55.144,-244.0,-975.0,196.0,-17.0,0.0,2.0,179,147,159,158,153
2025-02-26 14:35:55.152,-241.0,-993.0,311.0,-27.0,16.0,3.0,180,147,159,158,152
2025-02-26 14:35:55.156,-241.0,-933.0,254.0,-20.0,26.0,2.0,176,144,157,152,149
2025-02-26 14:35:55.161,-242.0,-958.0,247.0,-15.0,32.0,3.0,180,146,158,157,153
2025-02-26 14:35:55.168,-249.0,-944.0,223.0,-12.0,40.0,3.0,180,148,159,158,154
2025-02-26 14:35:55.172,-244.0,-939.0,186.0,-13.0,41.0,4.0,178,147,158,158,153
2025-02-26 14:35:55.176,-246.0,-945.0,172.0,-13.0,37.0,6.0,177,145,157,157,152
2025-02-26 14:35:55.180,-245.0,-938.0,137.0,-13.0,33.0,8.0,178,145,156,158,152
2025-02-26 14:35:55.188,-238.0,-945.0,186.0,-19.0,31.0,9.0,174,144,153,154,149
2025-02-26 14:35:55.193,-230.0,-940.0,158.0,-16.0,29.0,10.0,179,147,159,159,154
2025-02-26 14:35:55.197,-234.0,-935.0,257.0,-24.0,36.0,9.0,178,147,158,158,154
2025-02-26 14:35:55.202,-241.0,-924.0,209.0,-27.0,37.0,8.0,177,147,157,156,152
2025-02-26 14:35:55.209,-238.0,-954.0,210.0,-36.0,44.0,8.0,176,144,155,156,152
2025-02-26 14:35:55.213,-252.0,-937.0,108.0,-43.0,39.0,6.0,179,147,159,157,153
2025-02-26 14:35:55.214,-268.0,-956.0,150.0,-53.0,37.0,5.0,179,148,158,156,154
2025-02-26 14:35:55.226,-247.0,-932.0,152.0,-54.0,36.0,4.0,178,148,159,159,154
2025-02-26 14:35:55.226,-249.0,-939.0,128.0,-58.0,35.0,3.0,175,144,155,156,152
2025-02-26 14:35:55.234,-244.0,-948.0,144.0,-56.0,34.0,2.0,180,148,157,158,153
2025-02-26 14:35:55.238,-245.0,-936.0,159.0,-54.0,37.0,2.0,179,149,159,159,155
2025-02-26 14:35:55.245,-265.0,-995.0,134.0,-60.0,39.0,2.0,178,148,158,159,154
2025-02-26 14:35:55.250,-279.0,-929.0,171.0,-61.0,39.0,1.0,176,147,155,155,153
2025-02-26 14:35:55.255,-280.0,-930.0,56.0,-61.0,32.0,2.0,173,144,153,154,150
2025-02-26 14:35:55.262,-288.0,-945.0,156.0,-67.0,29.0,3.0,179,149,159,158,155
2025-02-26 14:35:55.267,-295.0,-949.0,159.0,-68.0,34.0,5.0,178,148,160,159,155
2025-02-26 14:35:55.271,-293.0,-948.0,153.0,-63.0,37.0,4.0,175,144,156,157,152
2025-02-26 14:35:55.275,-282.0,-941.0,156.0,-58.0,43.0,3.0,174,144,154,154,152
2025-02-26 14:35:55.283,-301.0,-959.0,106.0,-58.0,43.0,4.0,184,153,163,163,159
2025-02-26 14:35:55.288,-316.0,-936.0,95.0,-49.0,35.0,5.0,181,151,161,161,156
2025-02-26 14:35:55.292,-291.0,-946.0,122.0,-39.0,26.0,5.0,176,145,155,155,151
2025-02-26 14:35:55.296,-289.0,-976.0,179.0,-29.0,29.0,6.0,175,145,154,155,151
2025-02-26 14:35:55.303,-250.0,-980.0,81.0,-30.0,40.0,7.0,181,152,162,162,159
2025-02-26 14:35:55.308,-269.0,-987.0,68.0,-40.0,47.0,10.0,180,151,160,161,158
2025-02-26 14:35:55.312,-293.0,-1020.0,-27.0,-34.0,38.0,13.0,175,146,156,156,151
2025-02-26 14:35:55.319,-286.0,-1029.0,121.0,-26.0,43.0,16.0,175,145,155,153,151
2025-02-26 14:35:55.324,-252.0,-1036.0,77.0,-28.0,60.0,17.0,175,145,155,155,153
2025-02-26 14:35:55.328,-289.0,-1031.0,19.0,-26.0,63.0,21.0,179,150,161,162,157
2025-02-26 14:35:55.333,-311.0,-1039.0,76.0,-13.0,80.0,26.0,178,149,159,159,156
2025-02-26 14:35:55.341,-310.0,-1063.0,-45.0,-15.0,80.0,29.0,178,148,159,159,156
2025-02-26 14:35:55.344,-303.0,-1053.0,26.0,3.0,86.0,34.0,176,146,158,158,153
2025-02-26 14:35:55.348,-301.0,-1080.0,-70.0,20.0,81.0,35.0,175,144,155,157,152
2025-02-26 14:35:55.356,-329.0,-1052.0,-72.0,11.0,76.0,34.0,178,148,161,160,155
2025-02-26 14:35:55.360,-314.0,-1112.0,-100.0,16.0,68.0,37.0,181,152,164,163,160
2025-02-26 14:35:55.365,-298.0,-1028.0,-51.0,14.0,71.0,39.0,182,155,165,165,162
2025-02-26 14:35:55.373,-271.0,-992.0,-43.0,12.0,78.0,46.0,178,149,160,161,157
2025-02-26 14:35:55.386,-267.0,-908.0,-78.0,1.0,96.0,48.0,179,149,160,160,157
2025-02-26 14:35:55.388,-276.0,-858.0,-149.0,-8.0,100.0,53.0,187,156,169,168,165
2025-02-26 14:35:55.390,-262.0,-880.0,-36.0,0.0,110.0,58.0,182,154,164,165,162
2025-02-26 14:35:55.392,-257.0,-831.0,45.0,3.0,118.0,62.0,178,150,161,161,158
2025-02-26 14:35:55.397,-287.0,-772.0,-186.0,-2.0,129.0,64.0,178,150,161,161,157
2025-02-26 14:35:55.402,-305.0,-780.0,-64.0,7.0,120.0,64.0,185,156,168,169,166
2025-02-26 14:35:55.410,-322.0,-820.0,-77.0,10.0,110.0,65.0,187,159,170,170,167
2025-02-26 14:35:55.414,-386.0,-841.0,-133.0,13.0,96.0,62.0,202,172,184,184,181
2025-02-26 14:35:55.419,-386.0,-865.0,-106.0,10.0,89.0,56.0,203,176,188,187,184
2025-02-26 14:35:55.422,-462.0,-838.0,28.0,3.0,65.0,50.0,229,202,214,214,210
2025-02-26 14:35:55.431,-401.0,-896.0,18.0,14.0,53.0,44.0,195,166,178,179,175
2025-02-26 14:35:55.434,-381.0,-868.0,-73.0,24.0,38.0,36.0,200,171,183,182,180
2025-02-26 14:35:55.439,-382.0,-900.0,-21.0,28.0,41.0,32.0,200,173,185,184,181
2025-02-26 14:35:55.443,-386.0,-832.0,-44.0,21.0,42.0,31.0,232,204,216,218,213
2025-02-26 14:35:55.451,-387.0,-871.0,-42.0,25.0,49.0,34.0,230,204,215,216,212
2025-02-26 14:35:55.455,-390.0,-826.0,-62.0,19.0,51.0,35.0,228,204,216,215,215
2025-02-26 14:35:55.459,-384.0,-869.0,-70.0,13.0,44.0,33.0,241,213,226,224,222
2025-02-26 14:35:55.467,-391.0,-896.0,-52.0,17.0,43.0,31.0,255,229,242,242,238
2025-02-26 14:35:55.471,-389.0,-886.0,45.0,18.0,37.0,29.0,246,220,232,231,229
2025-02-26 14:35:55.476,-381.0,-877.0,-23.0,14.0,30.0,25.0,234,207,218,220,216
2025-02-26 14:35:55.480,-404.0,-868.0,-38.0,13.0,26.0,23.0,248,222,234,234,231
2025-02-26 14:35:55.488,-401.0,-899.0,-14.0,13.0,25.0,25.0,241,215,226,227,227
2025-02-26 14:35:55.492,-408.0,-914.0,-18.0,16.0,30.0,25.0,248,221,233,234,230
2025-02-26 14:35:55.494,-397.0,-914.0,-26.0,17.0,32.0,26.0,239,214,226,227,223
2025-02-26 14:35:55.501,-407.0,-878.0,-19.0,16.0,31.0,28.0,237,210,222,223,218
2025-02-26 14:35:55.507,-427.0,-876.0,-18.0,18.0,29.0,27.0,231,206,217,217,215
2025-02-26 14:35:55.513,-432.0,-897.0,6.0,18.0,22.0,26.0,229,203,214,215,211
2025-02-26 14:35:55.517,-435.0,-887.0,13.0,15.0,16.0,26.0,237,211,222,224,221
2025-02-26 14:35:55.519,-453.0,-861.0,-2.0,13.0,8.0,27.0,232,207,218,218,215
2025-02-26 14:35:55.529,-471.0,-865.0,-16.0,9.0,5.0,28.0,229,203,214,216,210
2025-02-26 14:35:55.533,-460.0,-882.0,8.0,5.0,6.0,29.0,231,204,215,217,213
2025-02-26 14:35:55.537,-493.0,-922.0,0.0,9.0,8.0,31.0,226,200,212,213,208
2025-02-26 14:35:55.541,-490.0,-916.0,20.0,12.0,10.0,31.0,228,201,212,214,210
2025-02-26 14:35:55.549,-495.0,-905.0,-33.0,8.0,2.0,29.0,229,202,213,215,211
2025-02-26 14:35:55.553,-539.0,-935.0,7.0,0.0,0.0,28.0,227,202,212,214,210
2025-02-26 14:35:55.557,-497.0,-907.0,9.0,1.0,-4.0,26.0,222,197,207,210,204
2025-02-26 14:35:55.560,-484.0,-914.0,25.0,-1.0,3.0,26.0,230,204,213,215,212
2025-02-26 14:35:55.566,-478.0,-895.0,1.0,-2.0,4.0,24.0,229,204,214,217,212
2025-02-26 14:35:55.574,-503.0,-897.0,25.0,-10.0,7.0,24.0,223,199,209,210,205
2025-02-26 14:35:55.577,-490.0,-872.0,-85.0,-20.0,1.0,22.0,223,198,209,211,206
2025-02-26 14:35:55.582,-502.0,-864.0,41.0,-27.0,-4.0,19.0,235,207,218,221,216
2025-02-26 14:35:55.589,-483.0,-879.0,-1.0,-30.0,-3.0,16.0,234,209,219,221,217
2025-02-26 14:35:55.594,-476.0,-849.0,12.0,-31.0,7.0,17.0,228,202,213,215,211
2025-02-26 14:35:55.598,-457.0,-857.0,-23.0,-30.0,7.0,15.0,227,202,211,214,209
2025-02-26 14:35:55.602,-500.0,-847.0,-24.0,-30.0,1.0,15.0,234,208,219,223,216
2025-02-26 14:35:55.609,-504.0,-887.0,32.0,-35.0,10.0,16.0,235,209,220,223,217
2025-02-26 14:35:55.615,-479.0,-820.0,-101.0,-40.0,17.0,16.0,233,207,217,219,215
2025-02-26 14:35:55.619,-466.0,-814.0,-48.0,-45.0,20.0,17.0,230,203,214,215,212
2025-02-26 14:35:55.627,-479.0,-854.0,-63.0,-37.0,21.0,17.0,231,205,215,217,213
2025-02-26 14:35:55.631,-484.0,-881.0,-61.0,-33.0,10.0,12.0,236,210,220,223,218
2025-02-26 14:35:55.635,-490.0,-894.0,-14.0,-49.0,11.0,8.0,233,209,219,223,217
2025-02-26 14:35:55.640,-503.0,-863.0,-189.0,-44.0,5.0,6.0,238,212,220,224,220
2025-02-26 14:35:55.646,-478.0,-935.0,-55.0,-33.0,6.0,6.0,229,200,210,214,208
2025-02-26 14:35:55.652,-496.0,-923.0,-72.0,-32.0,14.0,5.0,233,206,214,219,213
2025-02-26 14:35:55.656,-462.0,-913.0,-61.0,-25.0,26.0,7.0,233,206,215,219,214
2025-02-26 14:35:55.664,-454.0,-899.0,-144.0,-20.0,31.0,10.0,236,210,218,222,218
2025-02-26 14:35:55.668,-468.0,-893.0,-153.0,-22.0,28.0,10.0,234,207,212,219,214
2025-02-26 14:35:55.672,-513.0,-941.0,-128.0,-21.0,12.0,8.0,231,205,212,217,213
2025-02-26 14:35:55.676,-513.0,-974.0,-108.0,-27.0,0.0,6.0,236,210,216,222,217
2025-02-26 14:35:55.684,-500.0,-990.0,-78.0,-40.0,-6.0,5.0,234,205,213,220,213
2025-02-26 14:35:55.689,-495.0,-931.0,-167.0,-45.0,-10.0,7.0,231,204,212,217,212
2025-02-26 14:35:55.693,-483.0,-921.0,-103.0,-52.0,-10.0,10.0,226,197,207,210,206
2025-02-26 14:35:55.701,-467.0,-924.0,-84.0,-67.0,-1.0,14.0,225,197,205,209,206
2025-02-26 14:35:55.705,-446.0,-896.0,-120.0,-77.0,10.0,17.0,233,206,212,220,212
2025-02-26 14:35:55.709,-457.0,-884.0,-121.0,-80.0,17.0,23.0,234,207,214,220,214
2025-02-26 14:35:55.717,-434.0,-961.0,-130.0,-73.0,11.0,22.0,233,205,213,218,214
2025-02-26 14:35:55.721,-453.0,-947.0,-35.0,-63.0,-4.0,13.0,238,211,218,225,219
2025-02-26 14:35:55.725,-459.0,-947.0,-48.0,-55.0,-10.0,8.0,230,202,209,217,210
2025-02-26 14:35:55.733,-431.0,-937.0,-168.0,-40.0,-15.0,7.0,228,199,207,213,208
2025-02-26 14:35:55.737,-437.0,-917.0,-69.0,-31.0,-14.0,10.0,235,207,215,221,217
2025-02-26 14:35:55.742,-402.0,-858.0,-140.0,-16.0,-10.0,12.0,238,211,219,225,220
2025-02-26 14:35:55.746,-399.0,-932.0,-103.0,-23.0,-3.0,16.0,240,214,221,227,223
2025-02-26 14:35:55.754,-458.0,-884.0,-205.0,-15.0,-8.0,20.0,238,211,217,223,219
2025-02-26 14:35:55.758,-494.0,-885.0,-201.0,-31.0,-20.0,19.0,237,208,215,222,216
2025-02-26 14:35:55.762,-478.0,-949.0,-41.0,-28.0,-22.0,22.0,239,207,215,222,215
2025-02-26 14:35:55.771,-457.0,-952.0,-192.0,-30.0,-13.0,27.0,242,216,222,228,223
2025-02-26 14:35:55.775,-451.0,-835.0,-154.0,-11.0,-13.0,28.0,237,210,218,222,218
2025-02-26 14:35:55.780,-515.0,-897.0,-112.0,-6.0,-8.0,31.0,239,213,219,224,221
2025-02-26 14:35:55.787,-489.0,-810.0,-230.0,-19.0,-13.0,31.0,229,200,207,213,210
2025-02-26 14:35:55.791,-498.0,-817.0,-114.0,-20.0,-17.0,32.0,226,198,205,211,206
2025-02-26 14:35:55.796,-503.0,-815.0,-146.0,-27.0,-19.0,33.0,228,199,206,213,208
2025-02-26 14:35:55.803,-488.0,-799.0,-92.0,-26.0,-12.0,33.0,239,212,220,226,220
2025-02-26 14:35:55.807,-452.0,-770.0,-94.0,-25.0,-5.0,33.0,236,206,213,219,214
2025-02-26 14:35:55.812,-501.0,-752.0,-104.0,-27.0,-5.0,32.0,228,200,208,213,210
2025-02-26 14:35:55.820,-497.0,-734.0,-100.0,-24.0,-6.0,28.0,225,197,206,210,206
2025-02-26 14:35:55.824,-465.0,-733.0,-81.0,-13.0,-6.0,25.0,225,195,203,208,204
2025-02-26 14:35:55.828,-492.0,-709.0,-105.0,-11.0,-2.0,23.0,223,195,200,208,203
2025-02-26 14:35:55.836,-515.0,-675.0,-72.0,-1.0,-5.0,18.0,228,200,206,212,208
2025-02-26 14:35:55.840,-518.0,-678.0,-77.0,8.0,-3.0,13.0,227,199,206,212,208
2025-02-26 14:35:55.844,-537.0,-680.0,-97.0,13.0,-3.0,9.0,223,195,200,207,203
2025-02-26 14:35:55.848,-511.0,-703.0,-92.0,21.0,-1.0,8.0,220,192,198,204,200
2025-02-26 14:35:55.856,-542.0,-678.0,-177.0,37.0,-6.0,3.0,227,199,205,211,206
2025-02-26 14:35:55.860,-561.0,-710.0,-36.0,37.0,-9.0,0.0,226,200,204,210,206
2025-02-26 14:35:55.864,-560.0,-749.0,-79.0,58.0,-9.0,-2.0,222,194,200,207,202
2025-02-26 14:35:55.869,-507.0,-718.0,-46.0,44.0,-6.0,-4.0,222,195,200,207,201
2025-02-26 14:35:55.877,-509.0,-725.0,-87.0,60.0,-13.0,-7.0,232,206,211,217,212
2025-02-26 14:35:55.881,-512.0,-743.0,-46.0,46.0,-15.0,-9.0,253,227,230,237,233
2025-02-26 14:35:55.886,-470.0,-758.0,-75.0,48.0,-18.0,-13.0,251,225,229,235,230
2025-02-26 14:35:55.893,-493.0,-792.0,-88.0,35.0,-18.0,-12.0,247,221,227,232,227
2025-02-26 14:35:55.897,-485.0,-771.0,-142.0,21.0,-14.0,-9.0,248,223,227,232,227
2025-02-26 14:35:55.901,-481.0,-810.0,-121.0,4.0,-7.0,-8.0,251,226,232,236,232
2025-02-26 14:35:55.909,-481.0,-806.0,-71.0,2.0,-4.0,-7.0,253,227,231,238,233
2025-02-26 14:35:55.913,-487.0,-868.0,0.0,-6.0,2.0,-6.0,249,225,230,235,230
2025-02-26 14:35:55.917,-478.0,-847.0,-71.0,-15.0,4.0,-5.0,245,220,226,233,225
2025-02-26 14:35:55.922,-472.0,-831.0,-56.0,-16.0,4.0,-5.0,251,225,230,234,230
2025-02-26 14:35:55.930,-486.0,-859.0,-99.0,-19.0,2.0,-5.0,245,220,226,230,226
2025-02-26 14:35:55.934,-499.0,-855.0,-112.0,-25.0,2.0,-5.0,239,212,219,223,218
2025-02-26 14:35:55.938,-483.0,-851.0,-75.0,-26.0,0.0,-6.0,233,207,212,217,212
2025-02-26 14:35:55.943,-470.0,-898.0,-40.0,-18.0,7.0,-5.0,235,210,215,220,214
2025-02-26 14:35:55.950,-474.0,-878.0,-145.0,-24.0,6.0,-6.0,242,216,222,227,221
2025-02-26 14:35:55.954,-450.0,-900.0,-80.0,-20.0,4.0,-10.0,238,212,219,223,219
2025-02-26 14:35:55.959,-429.0,-912.0,-82.0,-38.0,4.0,-11.0,234,209,216,219,214
2025-02-26 14:35:55.966,-439.0,-913.0,-43.0,-28.0,5.0,-12.0,235,210,215,219,215
2025-02-26 14:35:55.971,-420.0,-930.0,-111.0,-30.0,13.0,-13.0,240,213,219,223,219
2025-02-26 14:35:55.976,-427.0,-898.0,-172.0,-24.0,9.0,-16.0,240,216,222,226,221
2025-02-26 14:35:55.983,-439.0,-956.0,-54.0,-20.0,8.0,-17.0,242,218,225,229,224
2025-02-26 14:35:55.987,-443.0,-947.0,-110.0,-21.0,6.0,-18.0,240,215,218,225,221
2025-02-26 14:35:55.992,-454.0,-939.0,-134.0,-17.0,4.0,-19.0,235,211,216,221,216
2025-02-26 14:35:56.000,-455.0,-967.0,-92.0,-12.0,3.0,-18.0,236,212,218,221,216
2025-02-26 14:35:56.004,-460.0,-972.0,-145.0,-9.0,4.0,-16.0,241,219,222,228,223
2025-02-26 14:35:56.008,-456.0,-953.0,-159.0,-11.0,2.0,-15.0,241,218,224,226,222
2025-02-26 14:35:56.013,-486.0,-977.0,-149.0,-12.0,-1.0,-13.0,236,215,217,224,220
2025-02-26 14:35:56.020,-492.0,-966.0,-124.0,-9.0,-2.0,-10.0,236,213,220,221,218
2025-02-26 14:35:56.024,-482.0,-965.0,-123.0,-7.0,-3.0,-8.0,237,216,218,221,216
2025-02-26 14:35:56.028,-486.0,-961.0,-155.0,-5.0,-2.0,-7.0,238,214,219,222,218
2025-02-26 14:35:56.036,-502.0,-954.0,-123.0,-2.0,-2.0,-4.0,243,217,223,226,220
2025-02-26 14:35:56.040,-508.0,-923.0,-138.0,1.0,-3.0,-3.0,245,223,228,231,226
2025-02-26 14:35:56.046,-520.0,-904.0,-128.0,1.0,-4.0,-3.0,236,212,218,221,216
2025-02-26 14:35:56.053,-523.0,-897.0,-125.0,2.0,-5.0,-2.0,234,211,215,221,215
2025-02-26 14:35:56.057,-532.0,-900.0,-127.0,3.0,-7.0,-2.0,239,215,222,225,218
2025-02-26 14:35:56.061,-544.0,-864.0,-100.0,3.0,-6.0,-2.0,242,218,225,228,222
2025-02-26 14:35:56.065,-532.0,-865.0,-125.0,4.0,-5.0,-1.0,239,216,221,226,220
2025-02-26 14:35:56.073,-538.0,-839.0,-119.0,3.0,-5.0,-1.0,232,209,215,218,213
2025-02-26 14:35:56.078,-541.0,-840.0,-96.0,6.0,-5.0,-1.0,239,214,220,223,218
2025-02-26 14:35:56.081,-535.0,-833.0,-91.0,5.0,-3.0,-2.0,242,219,223,228,222
2025-02-26 14:35:56.087,-532.0,-796.0,-97.0,7.0,-2.0,-3.0,238,217,222,224,219
2025-02-26 14:35:56.093,-534.0,-798.0,-106.0,9.0,0.0,-5.0,231,209,214,218,213
2025-02-26 14:35:56.098,-524.0,-777.0,-88.0,2.0,2.0,-5.0,238,214,220,222,219
2025-02-26 14:35:56.099,-525.0,-777.0,-80.0,4.0,2.0,-7.0,246,224,229,232,228
2025-02-26 14:35:56.107,-511.0,-810.0,-88.0,1.0,3.0,-10.0,240,217,222,226,222
2025-02-26 14:35:56.111,-512.0,-788.0,-101.0,-5.0,4.0,-11.0,238,216,221,225,221
2025-02-26 14:35:56.117,-524.0,-788.0,-85.0,-10.0,6.0,-13.0,245,223,226,230,227
2025-02-26 14:35:56.123,-518.0,-797.0,-103.0,-12.0,5.0,-14.0,242,225,230,236,229
2025-02-26 14:35:56.131,-512.0,-822.0,-95.0,-15.0,6.0,-15.0,244,221,226,230,226
2025-02-26 14:35:56.135,-518.0,-806.0,-109.0,-20.0,7.0,-14.0,236,215,221,229,220
2025-02-26 14:35:56.139,-514.0,-819.0,-112.0,-22.0,7.0,-14.0,238,215,220,225,219
2025-02-26 14:35:56.146,-517.0,-823.0,-110.0,-23.0,7.0,-14.0,242,219,225,229,225
2025-02-26 14:35:56.151,-501.0,-820.0,-106.0,-25.0,7.0,-14.0,241,221,225,230,224
2025-02-26 14:35:56.156,-505.0,-833.0,-116.0,-24.0,9.0,-13.0,240,220,226,229,224
2025-02-26 14:35:56.159,-503.0,-832.0,-146.0,-26.0,8.0,-12.0,244,222,229,232,228
2025-02-26 14:35:56.168,-511.0,-839.0,-131.0,-25.0,7.0,-10.0,237,216,221,225,220
2025-02-26 14:35:56.172,-515.0,-854.0,-136.0,-22.0,7.0,-9.0,235,214,219,224,219
2025-02-26 14:35:56.176,-509.0,-864.0,-155.0,-20.0,9.0,-7.0,241,220,225,230,224
2025-02-26 14:35:56.184,-511.0,-868.0,-154.0,-18.0,10.0,-5.0,242,220,226,230,227
2025-02-26 14:35:56.188,-518.0,-867.0,-173.0,-16.0,8.0,-3.0,239,218,223,228,223
2025-02-26 14:35:56.192,-528.0,-867.0,-151.0,-15.0,8.0,-1.0,240,214,219,219,218
2025-02-26 14:35:56.200,-508.0,-874.0,-161.0,-12.0,8.0,1.0,235,213,220,224,218
2025-02-26 14:35:56.205,-486.0,-877.0,-169.0,-13.0,8.0,2.0,244,222,228,231,227
2025-02-26 14:35:56.209,-481.0,-857.0,-154.0,-6.0,10.0,4.0,243,222,228,230,227
2025-02-26 14:35:56.213,-481.0,-842.0,-167.0,0.0,11.0,6.0,237,216,222,228,221
2025-02-26 14:35:56.221,-480.0,-842.0,-178.0,6.0,12.0,8.0,237,214,219,225,218
2025-02-26 14:35:56.225,-483.0,-835.0,-156.0,11.0,12.0,8.0,241,220,226,231,224
2025-02-26 14:35:56.229,-483.0,-841.0,-136.0,15.0,12.0,8.0,240,219,223,229,223
2025-02-26 14:35:56.234,-481.0,-825.0,-158.0,16.0,13.0,8.0,238,216,223,227,221
2025-02-26 14:35:56.241,-489.0,-833.0,-154.0,20.0,13.0,7.0,237,217,222,227,222
2025-02-26 14:35:56.245,-486.0,-835.0,-148.0,20.0,14.0,8.0,239,218,224,229,223
2025-02-26 14:35:56.250,-477.0,-836.0,-160.0,22.0,16.0,8.0,240,219,224,228,224
2025-02-26 14:35:56.258,-493.0,-832.0,-165.0,23.0,16.0,8.0,239,218,222,226,221
2025-02-26 14:35:56.262,-492.0,-842.0,-165.0,23.0,17.0,8.0,241,218,225,230,223
2025-02-26 14:35:56.267,-498.0,-839.0,-180.0,23.0,18.0,8.0,236,213,218,223,219
2025-02-26 14:35:56.270,-490.0,-816.0,-198.0,21.0,16.0,8.0,242,221,227,231,226
2025-02-26 14:35:56.277,-499.0,-834.0,-195.0,22.0,13.0,7.0,241,220,226,230,225
2025-02-26 14:35:56.283,-497.0,-833.0,-191.0,17.0,10.0,5.0,238,219,224,227,223
2025-02-26 14:35:56.287,-503.0,-814.0,-194.0,14.0,7.0,6.0,239,217,222,227,221
2025-02-26 14:35:56.291,-509.0,-810.0,-181.0,14.0,4.0,5.0,243,223,227,232,227
2025-02-26 14:35:56.298,-509.0,-814.0,-187.0,12.0,1.0,3.0,244,222,228,232,227
2025-02-26 14:35:56.303,-502.0,-813.0,-185.0,9.0,-1.0,2.0,238,218,222,228,223
2025-02-26 14:35:56.307,-500.0,-821.0,-166.0,6.0,-3.0,2.0,239,216,223,226,221
2025-02-26 14:35:56.311,-496.0,-823.0,-193.0,5.0,-5.0,1.0,244,223,230,231,227
2025-02-26 14:35:56.319,-500.0,-835.0,-181.0,4.0,-6.0,-1.0,243,221,227,230,226
2025-02-26 14:35:56.324,-497.0,-845.0,-183.0,1.0,-8.0,-2.0,241,215,223,229,224
2025-02-26 14:35:56.328,-511.0,-853.0,-195.0,0.0,-8.0,-3.0,242,220,225,231,225
2025-02-26 14:35:56.336,-514.0,-882.0,-190.0,-6.0,-7.0,-2.0,247,225,231,235,234
2025-02-26 14:35:56.339,-521.0,-837.0,-260.0,-7.0,-14.0,-3.0,249,228,233,238,233
2025-02-26 14:35:56.343,-513.0,-861.0,-186.0,-8.0,-16.0,-2.0,249,227,232,237,232
2025-02-26 14:35:56.352,-520.0,-860.0,-209.0,-1.0,-16.0,-1.0,246,222,229,233,229
2025-02-26 14:35:56.355,-520.0,-855.0,-163.0,-5.0,-16.0,0.0,238,216,222,226,221
2025-02-26 14:35:56.360,-506.0,-827.0,-196.0,-7.0,-23.0,1.0,248,225,231,235,230
2025-02-26 14:35:56.364,-516.0,-860.0,-167.0,0.0,-25.0,3.0,243,222,227,235,226
2025-02-26 14:35:56.373,-508.0,-855.0,-164.0,0.0,-23.0,5.0,240,218,223,228,222
2025-02-26 14:35:56.376,-491.0,-820.0,-141.0,-4.0,-21.0,6.0,235,211,219,225,218
2025-02-26 14:35:56.379,-483.0,-808.0,-94.0,-5.0,-21.0,6.0,242,218,225,229,224
2025-02-26 14:35:56.388,-492.0,-847.0,-121.0,-7.0,-18.0,6.0,247,224,231,234,228
2025-02-26 14:35:56.393,-478.0,-818.0,-120.0,-8.0,-15.0,4.0,238,214,221,225,220
2025-02-26 14:35:56.398,-464.0,-835.0,-106.0,-6.0,-12.0,2.0,235,209,219,223,217
2025-02-26 14:35:56.401,-478.0,-857.0,-103.0,-5.0,-11.0,1.0,232,209,216,220,214
2025-02-26 14:35:56.410,-467.0,-856.0,-120.0,-1.0,-5.0,-1.0,231,207,213,218,213
2025-02-26 14:35:56.414,-453.0,-870.0,-113.0,4.0,-1.0,-2.0,236,214,220,224,220
2025-02-26 14:35:56.415,-474.0,-868.0,-112.0,0.0,0.0,-4.0,237,215,219,225,220
2025-02-26 14:35:56.426,-472.0,-880.0,-118.0,6.0,0.0,-5.0,241,211,217,220,215
2025-02-26 14:35:56.428,-461.0,-880.0,-121.0,8.0,2.0,-6.0,232,208,215,220,215
2025-02-26 14:35:56.434,-470.0,-904.0,-108.0,11.0,4.0,-5.0,237,213,221,224,220
2025-02-26 14:35:56.438,-476.0,-894.0,-142.0,10.0,4.0,-5.0,236,212,218,224,218
2025-02-26 14:35:56.445,-477.0,-902.0,-140.0,6.0,5.0,-4.0,233,210,215,219,215
2025-02-26 14:35:56.451,-477.0,-873.0,-137.0,4.0,3.0,-3.0,231,208,214,218,212
2025-02-26 14:35:56.455,-468.0,-865.0,-165.0,4.0,0.0,-2.0,233,210,213,219,215
2025-02-26 14:35:56.458,-469.0,-900.0,-171.0,5.0,-1.0,0.0,237,214,219,224,220
2025-02-26 14:35:56.467,-487.0,-888.0,-149.0,1.0,1.0,2.0,230,206,212,216,212
2025-02-26 14:35:56.471,-462.0,-886.0,-138.0,2.0,1.0,4.0,229,206,211,216,212
2025-02-26 14:35:56.475,-480.0,-901.0,-130.0,2.0,0.0,6.0,237,215,220,223,220
2025-02-26 14:35:56.479,-490.0,-899.0,-140.0,3.0,-4.0,6.0,238,216,223,227,221
2025-02-26 14:35:56.487,-483.0,-907.0,-90.0,1.0,-4.0,7.0,231,207,213,217,214
2025-02-26 14:35:56.491,-479.0,-912.0,-146.0,0.0,-2.0,7.0,235,212,218,223,216
2025-02-26 14:35:56.494,-471.0,-890.0,-125.0,-2.0,1.0,7.0,235,213,218,222,217
2025-02-26 14:35:56.499,-462.0,-875.0,-128.0,-2.0,1.0,6.0,234,212,217,223,217
2025-02-26 14:35:56.507,-463.0,-885.0,-113.0,-1.0,1.0,6.0,233,209,214,220,214
2025-02-26 14:35:56.512,-472.0,-883.0,-121.0,-4.0,2.0,4.0,241,216,223,228,223
2025-02-26 14:35:56.516,-473.0,-863.0,-128.0,-6.0,3.0,1.0,235,210,216,222,217
2025-02-26 14:35:56.520,-484.0,-869.0,-112.0,-6.0,4.0,0.0,225,202,208,214,208
2025-02-26 14:35:56.528,-492.0,-855.0,-109.0,-7.0,4.0,-1.0,222,199,206,209,204
2025-02-26 14:35:56.532,-488.0,-847.0,-141.0,-5.0,2.0,-3.0,229,204,212,216,211
2025-02-26 14:35:56.536,-503.0,-853.0,-127.0,-6.0,2.0,-4.0,228,205,210,216,210
2025-02-26 14:35:56.540,-505.0,-841.0,-152.0,-5.0,1.0,-4.0,228,205,209,214,211
2025-02-26 14:35:56.549,-497.0,-847.0,-132.0,-4.0,0.0,-4.0,224,199,206,210,204
2025-02-26 14:35:56.553,-511.0,-849.0,-120.0,-1.0,-3.0,-4.0,228,206,211,216,211
2025-02-26 14:35:56.557,-491.0,-854.0,-115.0,-2.0,-3.0,-6.0,228,205,211,214,209
2025-02-26 14:35:56.565,-482.0,-846.0,-134.0,-2.0,-2.0,-6.0,226,202,206,212,208
2025-02-26 14:35:56.569,-484.0,-855.0,-107.0,-8.0,-2.0,-5.0,225,199,204,209,205
2025-02-26 14:35:56.573,-472.0,-859.0,-131.0,2.0,0.0,-5.0,221,196,201,206,202
2025-02-26 14:35:56.582,-498.0,-861.0,-154.0,-10.0,-1.0,-5.0,227,204,209,215,209
2025-02-26 14:35:56.586,-488.0,-863.0,-150.0,-9.0,0.0,-3.0,227,199,206,212,205
2025-02-26 14:35:56.590,-489.0,-876.0,-159.0,-10.0,0.0,-2.0,221,197,204,207,203
2025-02-26 14:35:56.594,-494.0,-883.0,-125.0,-11.0,1.0,-2.0,219,195,201,206,200
2025-02-26 14:35:56.602,-482.0,-872.0,-150.0,-8.0,1.0,-1.0,228,203,208,212,207
2025-02-26 14:35:56.606,-494.0,-882.0,-172.0,-9.0,1.0,1.0,228,206,210,215,210
2025-02-26 14:35:56.610,-498.0,-890.0,-157.0,-6.0,0.0,3.0,226,200,207,214,206
2025-02-26 14:35:56.614,-504.0,-890.0,-140.0,-4.0,0.0,4.0,223,198,205,209,202
2025-02-26 14:35:56.623,-482.0,-873.0,-136.0,1.0,0.0,4.0,225,201,206,211,204
2025-02-26 14:35:56.627,-491.0,-874.0,-151.0,2.0,0.0,5.0,227,204,209,213,208
2025-02-26 14:35:56.631,-502.0,-863.0,-156.0,4.0,-2.0,5.0,224,200,205,211,206
2025-02-26 14:35:56.635,-507.0,-881.0,-137.0,8.0,-1.0,5.0,218,195,199,207,200
2025-02-26 14:35:56.643,-498.0,-860.0,-126.0,8.0,-2.0,5.0,231,208,213,218,213
2025-02-26 14:35:56.647,-489.0,-853.0,-142.0,9.0,-2.0,4.0,229,206,211,215,210
2025-02-26 14:35:56.652,-489.0,-840.0,-104.0,10.0,0.0,4.0,223,197,204,209,203
2025-02-26 14:35:56.656,-481.0,-837.0,-137.0,12.0,-1.0,2.0,218,195,200,206,200
2025-02-26 14:35:56.663,-488.0,-826.0,-135.0,10.0,-4.0,1.0,225,201,207,213,207
2025-02-26 14:35:56.668,-495.0,-833.0,-127.0,10.0,-7.0,0.0,223,199,206,212,205
2025-02-26 14:35:56.672,-478.0,-835.0,-125.0,11.0,-9.0,-1.0,222,198,204,208,203
2025-02-26 14:35:56.679,-480.0,-836.0,-118.0,13.0,-7.0,-1.0,215,192,198,203,197
2025-02-26 14:35:56.684,-470.0,-835.0,-130.0,11.0,-6.0,-1.0,216,188,195,201,196
2025-02-26 14:35:56.688,-475.0,-833.0,-147.0,8.0,-5.0,-1.0,223,199,205,210,204
2025-02-26 14:35:56.692,-480.0,-837.0,-135.0,7.0,-7.0,-1.0,227,202,209,213,207
2025-02-26 14:35:56.700,-490.0,-855.0,-106.0,4.0,-8.0,-2.0,220,195,202,206,200
2025-02-26 14:35:56.704,-478.0,-848.0,-125.0,2.0,-11.0,-3.0,224,197,205,209,204
2025-02-26 14:35:56.709,-480.0,-854.0,-108.0,0.0,-7.0,-2.0,225,201,205,212,206
2025-02-26 14:35:56.717,-473.0,-850.0,-110.0,1.0,-5.0,-2.0,224,200,208,212,205
2025-02-26 14:35:56.721,-471.0,-847.0,-113.0,0.0,-3.0,-2.0,232,207,213,216,211
2025-02-26 14:35:56.725,-460.0,-860.0,-99.0,5.0,-3.0,-2.0,227,203,210,213,208
2025-02-26 14:35:56.729,-476.0,-858.0,-85.0,8.0,-6.0,-2.0,236,211,219,221,215
2025-02-26 14:35:56.737,-471.0,-862.0,-75.0,15.0,-8.0,-3.0,241,217,223,228,222
2025-02-26 14:35:56.742,-465.0,-865.0,-73.0,13.0,-6.0,-3.0,236,214,221,224,218
2025-02-26 14:35:56.746,-463.0,-873.0,-84.0,15.0,-3.0,0.0,227,204,212,216,210
2025-02-26 14:35:56.750,-468.0,-859.0,-113.0,13.0,1.0,1.0,230,205,212,217,211
2025-02-26 14:35:56.755,-476.0,-861.0,-70.0,12.0,6.0,2.0,239,214,221,225,220
2025-02-26 14:35:56.762,-463.0,-860.0,-89.0,11.0,8.0,3.0,240,216,223,226,221
2025-02-26 14:35:56.766,-474.0,-856.0,-86.0,12.0,9.0,4.0,216,191,197,203,197
2025-02-26 14:35:56.770,-484.0,-861.0,-84.0,14.0,10.0,4.0,226,199,206,210,205
2025-02-26 14:35:56.778,-489.0,-838.0,-75.0,13.0,12.0,5.0,224,201,207,211,206
2025-02-26 14:35:56.782,-487.0,-839.0,-111.0,17.0,12.0,6.0,219,194,201,204,202
2025-02-26 14:35:56.786,-501.0,-838.0,-78.0,20.0,12.0,6.0,217,194,199,204,200
2025-02-26 14:35:56.790,-515.0,-842.0,-80.0,21.0,11.0,6.0,222,197,205,210,203
2025-02-26 14:35:56.798,-513.0,-854.0,-113.0,22.0,9.0,6.0,222,198,205,210,204
2025-02-26 14:35:56.803,-526.0,-860.0,-75.0,25.0,8.0,6.0,220,194,202,205,199
2025-02-26 14:35:56.807,-530.0,-848.0,-75.0,28.0,6.0,6.0,220,195,202,206,200
2025-02-26 14:35:56.811,-530.0,-840.0,-91.0,31.0,5.0,5.0,220,198,203,207,202
2025-02-26 14:35:56.818,-538.0,-841.0,-84.0,33.0,6.0,4.0,228,204,210,215,210
2025-02-26 14:35:56.821,-541.0,-839.0,-81.0,37.0,6.0,3.0,232,207,215,219,216
2025-02-26 14:35:56.828,-543.0,-825.0,-70.0,40.0,5.0,2.0,241,214,222,226,220
2025-02-26 14:35:56.832,-538.0,-811.0,-106.0,41.0,0.0,0.0,234,210,216,219,214
2025-02-26 14:35:56.839,-533.0,-814.0,-46.0,42.0,0.0,-3.0,226,200,208,213,207
2025-02-26 14:35:56.844,-526.0,-812.0,-62.0,40.0,0.0,-4.0,231,204,211,217,213
2025-02-26 14:35:56.848,-521.0,-807.0,-58.0,33.0,6.0,-4.0,227,202,209,216,208
2025-02-26 14:35:56.853,-520.0,-793.0,-102.0,32.0,9.0,-5.0,226,201,209,213,206
2025-02-26 14:35:56.860,-527.0,-806.0,-74.0,30.0,9.0,-7.0,223,197,204,209,205
2025-02-26 14:35:56.864,-523.0,-822.0,-62.0,25.0,10.0,-8.0,223,197,204,210,204
2025-02-26 14:35:56.869,-514.0,-804.0,-64.0,20.0,10.0,-10.0,230,206,212,217,209
2025-02-26 14:35:56.875,-515.0,-808.0,-60.0,17.0,10.0,-11.0,230,202,212,215,209
2025-02-26 14:35:56.880,-505.0,-794.0,-86.0,17.0,8.0,-12.0,220,195,204,207,202
2025-02-26 14:35:56.884,-503.0,-820.0,-95.0,19.0,8.0,-11.0,226,198,205,210,204
2025-02-26 14:35:56.888,-509.0,-830.0,-101.0,18.0,4.0,-11.0,228,203,211,215,208
2025-02-26 14:35:56.897,-510.0,-856.0,-102.0,17.0,-1.0,-10.0,227,201,208,214,208
2025-02-26 14:35:56.901,-502.0,-860.0,-34.0,19.0,2.0,-9.0,235,208,215,220,213
2025-02-26 14:35:56.905,-508.0,-876.0,-120.0,19.0,0.0,-7.0,225,198,207,211,206
2025-02-26 14:35:56.913,-507.0,-900.0,-113.0,19.0,-2.0,-6.0,223,198,205,211,205
2025-02-26 14:35:56.917,-536.0,-901.0,-100.0,18.0,-3.0,-3.0,229,202,210,215,210
2025-02-26 14:35:56.922,-547.0,-927.0,-86.0,14.0,-5.0,-3.0,232,206,213,218,214
2025-02-26 14:35:56.926,-537.0,-953.0,-117.0,13.0,-10.0,-3.0,230,202,212,215,211
2025-02-26 14:35:56.934,-531.0,-985.0,-187.0,12.0,-15.0,-3.0,218,191,198,204,200
2025-02-26 14:35:56.938,-549.0,-988.0,-169.0,7.0,-21.0,-3.0,218,189,199,203,198
2025-02-26 14:35:56.940,-534.0,-1005.0,-222.0,11.0,-28.0,-3.0,227,195,205,211,204
2025-02-26 14:35:56.948,-526.0,-1024.0,-215.0,10.0,-38.0,-3.0,225,194,201,208,205
2025-02-26 14:35:56.954,-497.0,-1022.0,-260.0,11.0,-46.0,-3.0,222,193,204,208,203
2025-02-26 14:35:56.958,-458.0,-1048.0,-282.0,14.0,-51.0,1.0,223,194,204,208,203
2025-02-26 14:35:56.958,-451.0,-1071.0,-214.0,15.0,-52.0,6.0,235,205,215,220,215
2025-02-26 14:35:56.970,-446.0,-1061.0,-167.0,14.0,-46.0,8.0,236,206,216,221,217
2025-02-26 14:35:56.975,-437.0,-1028.0,-121.0,18.0,-49.0,13.0,243,213,225,227,224
2025-02-26 14:35:56.983,-454.0,-1074.0,-47.0,11.0,-45.0,17.0,236,207,218,220,218
2025-02-26 14:35:56.983,-457.0,-1043.0,-13.0,6.0,-42.0,21.0,237,205,216,220,218
2025-02-26 14:35:56.992,-469.0,-1040.0,-17.0,1.0,-37.0,24.0,236,205,216,218,217
2025-02-26 14:35:56.995,-463.0,-1075.0,35.0,1.0,-33.0,27.0,243,210,222,224,224
2025-02-26 14:35:57.003,-498.0,-1064.0,24.0,-4.0,-25.0,28.0,229,197,208,211,210
2025-02-26 14:35:57.007,-497.0,-1064.0,30.0,-6.0,-19.0,29.0,235,203,213,215,215
2025-02-26 14:35:57.012,-521.0,-1074.0,34.0,-5.0,-16.0,28.0,233,203,211,214,213
2025-02-26 14:35:57.016,-510.0,-1047.0,-28.0,-9.0,-15.0,29.0,228,194,207,209,210
2025-02-26 14:35:57.024,-495.0,-1041.0,-38.0,-6.0,-16.0,28.0,231,194,206,209,208
2025-02-26 14:35:57.029,-495.0,-1058.0,-21.0,-2.0,-16.0,28.0,225,189,203,204,204
2025-02-26 14:35:57.036,-493.0,-1041.0,-37.0,0.0,-12.0,28.0,238,203,215,216,218
2025-02-26 14:35:57.037,-518.0,-1019.0,-16.0,2.0,-8.0,29.0,241,205,218,218,222
2025-02-26 14:35:57.045,-542.0,-1022.0,26.0,4.0,-3.0,31.0,234,198,211,212,215
2025-02-26 14:35:57.048,-567.0,-993.0,30.0,-1.0,0.0,32.0,228,190,206,203,207
2025-02-26 14:35:57.056,-578.0,-994.0,17.0,-5.0,1.0,33.0,233,198,212,212,216
2025-02-26 14:35:57.056,-603.0,-985.0,31.0,-8.0,2.0,37.0,239,202,215,215,222
2025-02-26 14:35:57.065,-607.0,-940.0,33.0,-18.0,3.0,39.0,229,191,206,206,209
2025-02-26 14:35:57.067,-602.0,-939.0,16.0,-20.0,7.0,41.0,226,188,203,203,206
2025-02-26 14:35:57.067,-615.0,-928.0,18.0,-24.0,9.0,42.0,235,196,212,211,214
2025-02-26 14:35:57.082,-627.0,-905.0,22.0,-26.0,6.0,41.0,238,200,217,214,219
2025-02-26 14:35:57.086,-635.0,-907.0,36.0,-27.0,4.0,41.0,232,194,209,207,215
2025-02-26 14:35:57.090,-648.0,-876.0,36.0,-32.0,4.0,40.0,234,194,211,208,214
2025-02-26 14:35:57.098,-639.0,-850.0,70.0,-33.0,6.0,39.0,238,198,214,213,220
2025-02-26 14:35:57.100,-633.0,-837.0,90.0,-33.0,13.0,37.0,238,196,213,212,218
2025-02-26 14:35:57.106,-645.0,-813.0,33.0,-40.0,13.0,34.0,231,190,207,205,212
2025-02-26 14:35:57.112,-636.0,-788.0,28.0,-51.0,12.0,32.0,229,186,203,202,210
2025-02-26 14:35:57.118,-642.0,-779.0,34.0,-60.0,13.0,29.0,236,191,208,207,215
2025-02-26 14:35:57.122,-648.0,-752.0,34.0,-64.0,15.0,26.0,238,192,210,208,218
2025-02-26 14:35:57.127,-659.0,-761.0,21.0,-67.0,15.0,26.0,231,183,202,199,210
2025-02-26 14:35:57.134,-626.0,-753.0,-18.0,-69.0,18.0,25.0,221,172,197,189,200
2025-02-26 14:35:57.139,-613.0,-750.0,-8.0,-70.0,19.0,24.0,230,181,200,197,208
2025-02-26 14:35:57.143,-603.0,-741.0,5.0,-68.0,24.0,25.0,237,187,206,203,215
2025-02-26 14:35:57.151,-594.0,-717.0,-40.0,-68.0,26.0,26.0,223,172,195,190,203
2025-02-26 14:35:57.155,-582.0,-703.0,-35.0,-66.0,28.0,28.0,216,160,184,183,194
2025-02-26 14:35:57.160,-585.0,-725.0,-22.0,-68.0,32.0,29.0,213,158,181,177,190
2025-02-26 14:35:57.163,-600.0,-699.0,-9.0,-69.0,37.0,31.0,213,159,182,177,192
2025-02-26 14:35:57.171,-602.0,-712.0,20.0,-66.0,43.0,34.0,210,152,177,170,186
2025-02-26 14:35:57.175,-620.0,-690.0,37.0,-67.0,47.0,36.0,227,169,195,191,203
2025-02-26 14:35:57.180,-616.0,-677.0,25.0,-61.0,53.0,37.0,221,164,189,182,197
2025-02-26 14:35:57.185,-614.0,-680.0,-52.0,-52.0,57.0,40.0,187,123,151,145,162
2025-02-26 14:35:57.191,-633.0,-669.0,4.0,-40.0,62.0,41.0,174,107,137,129,145
2025-02-26 14:35:57.195,-625.0,-618.0,-42.0,-38.0,66.0,42.0,160,91,120,115,130
2025-02-26 14:35:57.200,-631.0,-619.0,-33.0,-24.0,69.0,43.0,158,89,120,113,129
2025-02-26 14:35:57.208,-630.0,-583.0,-78.0,-16.0,73.0,43.0,163,91,122,115,129
2025-02-26 14:35:57.212,-618.0,-551.0,-77.0,-11.0,76.0,42.0,171,95,126,120,134
2025-02-26 14:35:57.217,-623.0,-549.0,-73.0,-5.0,80.0,38.0,189,114,146,140,152
2025-02-26 14:35:57.220,-627.0,-493.0,-56.0,-3.0,81.0,36.0,170,90,125,118,132
2025-02-26 14:35:57.228,-599.0,-468.0,-2.0,5.0,87.0,35.0,163,82,115,109,123
2025-02-26 14:35:57.232,-612.0,-426.0,-113.0,7.0,89.0,30.0,162,78,110,108,119
2025-02-26 14:35:57.237,-584.0,-369.0,-149.0,10.0,93.0,21.0,154,68,102,99,109
2025-02-26 14:35:57.241,-592.0,-289.0,-134.0,20.0,93.0,15.0,154,68,99,97,107
2025-02-26 14:35:57.248,-616.0,-254.0,-207.0,38.0,98.0,11.0,154,68,98,96,105
2025-02-26 14:35:57.253,-622.0,-179.0,-202.0,45.0,91.0,2.0,151,65,95,93,99
2025-02-26 14:35:57.257,-655.0,-21.0,-322.0,54.0,84.0,-9.0,148,61,90,87,94
2025-02-26 14:35:57.261,-654.0,51.0,-359.0,80.0,67.0,-15.0,152,63,89,90,95
2025-02-26 14:35:57.265,-670.0,250.0,-376.0,89.0,40.0,-30.0,150,61,89,86,91
2025-02-26 14:35:57.274,-674.0,318.0,-454.0,130.0,24.0,-41.0,147,59,83,85,86
2025-02-26 14:35:57.278,-708.0,458.0,206.0,162.0,9.0,-47.0,150,60,83,82,85
2025-02-26 14:35:57.282,-793.0,491.0,266.0,146.0,43.0,-58.0,147,62,82,83,83
2025-02-26 14:35:57.287,-741.0,612.0,-453.0,179.0,30.0,-77.0,150,62,83,81,80
2025-02-26 14:35:57.294,-742.0,821.0,-186.0,225.0,26.0,-88.0,151,63,87,84,81
2025-02-26 14:35:57.299,-696.0,1068.0,-407.0,249.0,12.0,-110.0,155,66,90,86,81
2025-02-26 14:35:57.302,-690.0,1097.0,-935.0,238.0,-4.0,-139.0,156,70,91,90,82
2025-02-26 14:35:57.304,-691.0,812.0,-1510.0,285.0,-2.0,-158.0,156,71,92,89,81
2025-02-26 14:35:57.311,-840.0,1042.0,-1769.0,178.0,-11.0,-175.0,156,73,93,93,80
2025-02-26 14:35:57.319,-836.0,1105.0,-1684.0,110.0,3.0,-227.0,158,73,94,93,81
2025-02-26 14:35:57.323,-885.0,1330.0,-1562.0,130.0,27.0,-272.0,153,72,96,91,78
2025-02-26 14:35:57.329,-1026.0,1607.0,-1826.0,199.0,-23.0,-328.0,149,71,88,88,75
2025-02-26 14:35:57.335,-1157.0,1618.0,-1851.0,229.0,-49.0,-379.0,148,70,86,87,74
2025-02-26 14:35:57.340,-1044.0,1612.0,-1668.0,266.0,-125.0,-402.0,145,70,85,87,74
2025-02-26 14:35:57.347,-1077.0,1500.0,-1209.0,286.0,-211.0,-445.0,147,71,87,89,77
2025-02-26 14:35:57.351,-862.0,1424.0,-1010.0,292.0,-296.0,-498.0,144,72,90,90,76
2025-02-26 14:35:57.356,-425.0,1418.0,-809.0,302.0,-366.0,-542.0,143,71,91,89,76
2025-02-26 14:35:57.363,373.0,1142.0,-481.0,312.0,-408.0,-560.0,143,69,91,88,74
2025-02-26 14:35:57.367,928.0,932.0,107.0,279.0,-420.0,-568.0,140,66,91,86,72
2025-02-26 14:35:57.372,1817.0,811.0,811.0,250.0,-418.0,-564.0,135,65,93,81,70
2025-02-26 14:35:57.376,2581.0,229.0,1155.0,227.0,-364.0,-560.0,139,68,96,88,73
2025-02-26 14:35:57.384,3329.0,-480.0,1833.0,179.0,-304.0,-545.0,137,69,100,87,73
2025-02-26 14:35:57.389,4159.0,-1590.0,2669.0,152.0,-222.0,-489.0,133,67,101,88,71
2025-02-26 14:35:57.390,4569.0,-2818.0,3278.0,126.0,-180.0,-418.0,130,67,95,85,67
2025-02-26 14:35:57.400,4568.0,-4146.0,3393.0,106.0,-109.0,-336.0,131,65,97,85,69
2025-02-26 14:35:57.402,4290.0,-4594.0,3307.0,111.0,-42.0,-296.0,130,64,96,86,70
2025-02-26 14:35:57.410,3770.0,-5154.0,2792.0,110.0,-18.0,-238.0,128,68,97,88,71
2025-02-26 14:35:57.417,2777.0,-5400.0,2429.0,43.0,-25.0,-171.0,129,67,94,91,72
2025-02-26 14:35:57.421,1666.0,-5004.0,1757.0,-4.0,-37.0,-86.0,131,69,94,90,73
2025-02-26 14:35:57.426,1280.0,-4564.0,895.0,-151.0,-20.0,19.0,128,66,89,87,71
2025-02-26 14:35:57.433,658.0,-4339.0,1102.0,-172.0,-114.0,59.0,127,69,89,88,71
2025-02-26 14:35:57.438,416.0,-3771.0,1241.0,-239.0,-93.0,149.0,130,67,96,89,72
2025-02-26 14:35:57.441,767.0,-3656.0,998.0,-274.0,-181.0,174.0,130,68,98,92,71
2025-02-26 14:35:57.450,905.0,-2915.0,894.0,-293.0,-142.0,203.0,215,161,187,181,163
2025-02-26 14:35:57.452,1167.0,-2844.0,989.0,-276.0,-128.0,199.0,164,105,131,124,107
2025-02-26 14:35:57.457,1219.0,-2655.0,911.0,-299.0,-103.0,221.0,160,101,126,122,103
2025-02-26 14:35:57.465,1031.0,-2574.0,798.0,-249.0,-109.0,208.0,161,102,127,124,106
2025-02-26 14:35:57.470,969.0,-2292.0,585.0,-219.0,-83.0,209.0,158,99,122,121,102
2025-02-26 14:35:57.475,893.0,-2152.0,436.0,-174.0,-14.0,216.0,158,98,121,120,101
2025-02-26 14:35:57.483,751.0,-2088.0,330.0,-158.0,34.0,228.0,168,110,134,132,114
2025-02-26 14:35:57.487,598.0,-1967.0,299.0,-138.0,49.0,238.0,166,108,132,128,110
2025-02-26 14:35:57.491,476.0,-1790.0,379.0,-121.0,31.0,254.0,167,106,130,127,111
2025-02-26 14:35:57.499,289.0,-1793.0,159.0,-94.0,-13.0,275.0,165,105,128,126,109
2025-02-26 14:35:57.503,544.0,-1631.0,116.0,-50.0,-34.0,277.0,163,101,124,124,107
2025-02-26 14:35:57.506,430.0,-1495.0,64.0,-39.0,-25.0,296.0,161,100,124,121,106
2025-02-26 14:35:57.515,357.0,-1403.0,47.0,-14.0,-19.0,304.0,162,96,124,123,108
2025-02-26 14:35:57.520,433.0,-1309.0,52.0,14.0,-1.0,315.0,158,95,120,118,100
2025-02-26 14:35:57.523,429.0,-1067.0,46.0,18.0,7.0,325.0,151,91,114,111,94
2025-02-26 14:35:57.528,457.0,-1005.0,133.0,23.0,5.0,332.0,147,85,109,105,91
2025-02-26 14:35:57.536,558.0,-924.0,191.0,15.0,36.0,338.0,151,89,109,110,95
2025-02-26 14:35:57.539,552.0,-685.0,145.0,7.0,56.0,342.0,156,94,117,111,99
2025-02-26 14:35:57.543,497.0,-511.0,236.0,-3.0,69.0,350.0,153,90,115,109,98
2025-02-26 14:35:57.548,405.0,-447.0,247.0,-19.0,45.0,350.0,150,86,110,105,94
2025-02-26 14:35:57.556,383.0,-314.0,267.0,-31.0,29.0,342.0,155,93,116,112,100
2025-02-26 14:35:57.560,376.0,-175.0,244.0,-49.0,71.0,333.0,158,95,117,114,104
2025-02-26 14:35:57.565,346.0,-15.0,178.0,-101.0,107.0,341.0,153,90,112,110,100
2025-02-26 14:35:57.569,218.0,89.0,135.0,-130.0,164.0,344.0,152,86,110,103,98
2025-02-26 14:35:57.577,10.0,391.0,-61.0,-146.0,179.0,346.0,154,91,115,111,102
2025-02-26 14:35:57.581,-185.0,159.0,24.0,-135.0,134.0,332.0,159,96,119,117,106
2025-02-26 14:35:57.585,-258.0,180.0,45.0,-138.0,98.0,305.0,153,91,116,112,107
2025-02-26 14:35:57.593,-282.0,241.0,38.0,-138.0,83.0,279.0,149,86,109,109,97
2025-02-26 14:35:57.597,-379.0,322.0,-111.0,-122.0,64.0,266.0,156,91,113,114,102
2025-02-26 14:35:57.601,-383.0,438.0,-106.0,-118.0,49.0,245.0,159,96,116,115,105
2025-02-26 14:35:57.610,-402.0,430.0,-41.0,-120.0,29.0,221.0,155,92,115,116,104
2025-02-26 14:35:57.614,-458.0,451.0,-58.0,-112.0,21.0,196.0,148,88,105,109,98
2025-02-26 14:35:57.615,-449.0,497.0,-142.0,-112.0,21.0,176.0,149,86,108,108,98
2025-02-26 14:35:57.622,-505.0,512.0,-134.0,-133.0,28.0,169.0,157,99,115,113,107
2025-02-26 14:35:57.627,-501.0,539.0,-163.0,-147.0,33.0,159.0,156,92,114,111,104
2025-02-26 14:35:57.634,-522.0,584.0,-191.0,-153.0,27.0,149.0,156,91,113,113,103
2025-02-26 14:35:57.638,-554.0,614.0,-212.0,-154.0,22.0,141.0,152,88,112,112,102
2025-02-26 14:35:57.646,-597.0,672.0,-282.0,-148.0,23.0,136.0,151,86,110,109,100
2025-02-26 14:35:57.650,-650.0,736.0,-396.0,-124.0,25.0,132.0,150,87,108,107,100
2025-02-26 14:35:57.655,-683.0,732.0,-356.0,-95.0,24.0,123.0,154,89,113,112,102
2025-02-26 14:35:57.663,-768.0,845.0,-415.0,-56.0,16.0,113.0,158,93,116,116,106
2025-02-26 14:35:57.667,-840.0,1001.0,-457.0,-35.0,0.0,98.0,153,87,108,108,101
2025-02-26 14:35:57.671,-931.0,1156.0,-473.0,4.0,-10.0,80.0,150,83,103,106,96
2025-02-26 14:35:57.676,-1001.0,1275.0,-493.0,28.0,-25.0,68.0,151,86,104,106,98
2025-02-26 14:35:57.683,-1021.0,1567.0,-470.0,50.0,-36.0,43.0,157,91,111,113,104
2025-02-26 14:35:57.687,-996.0,1900.0,-523.0,81.0,-47.0,6.0,155,90,111,112,103
2025-02-26 14:35:57.691,-1047.0,2217.0,-547.0,99.0,-53.0,-46.0,150,85,108,108,99
2025-02-26 14:35:57.700,-1094.0,2516.0,-526.0,132.0,-53.0,-114.0,149,84,104,106,98
2025-02-26 14:35:57.703,-1119.0,2817.0,-433.0,167.0,-50.0,-156.0,152,87,110,110,101
2025-02-26 14:35:57.708,-1070.0,2994.0,-343.0,199.0,-53.0,-250.0,152,85,108,109,98
2025-02-26 14:35:57.716,-941.0,3195.0,-197.0,220.0,-59.0,-347.0,161,97,120,120,109
2025-02-26 14:35:57.720,-826.0,3234.0,-180.0,231.0,-74.0,-439.0,173,109,129,133,122
2025-02-26 14:35:57.728,-660.0,3174.0,-85.0,235.0,-86.0,-516.0,171,106,127,128,120
2025-02-26 14:35:57.730,-363.0,2957.0,4.0,234.0,-99.0,-581.0,169,104,127,128,118
2025-02-26 14:35:57.737,1.0,2620.0,85.0,248.0,-111.0,-643.0,167,101,124,125,114
2025-02-26 14:35:57.741,192.0,2192.0,97.0,265.0,-112.0,-702.0,160,93,120,118,108
2025-02-26 14:35:57.749,760.0,1964.0,122.0,284.0,-118.0,-731.0,159,92,116,116,105
2025-02-26 14:35:57.753,1323.0,1401.0,196.0,300.0,-115.0,-780.0,169,99,126,121,111
2025-02-26 14:35:57.760,1861.0,677.0,241.0,311.0,-110.0,-799.0,179,114,144,140,127
2025-02-26 14:35:57.765,2535.0,-559.0,642.0,315.0,-78.0,-765.0,170,106,135,127,121
2025-02-26 14:35:57.770,3354.0,-1860.0,1217.0,323.0,-42.0,-673.0,164,101,131,122,113
2025-02-26 14:35:57.778,3799.0,-3614.0,1432.0,326.0,-27.0,-536.0,169,105,137,129,117
2025-02-26 14:35:57.782,3703.0,-5386.0,1817.0,398.0,-6.0,-377.0,172,110,138,134,123
2025-02-26 14:35:57.790,3575.0,-6905.0,2110.0,493.0,-11.0,-222.0,165,105,133,128,114
2025-02-26 14:35:57.794,3669.0,-8249.0,2590.0,584.0,-53.0,-103.0,162,100,126,122,110
2025-02-26 14:35:57.798,3442.0,-8829.0,2589.0,598.0,-81.0,-10.0,161,97,122,118,111
2025-02-26 14:35:57.807,3060.0,-7773.0,2451.0,531.0,49.0,108.0,195,134,159,151,147
2025-02-26 14:35:57.810,2230.0,-6862.0,2292.0,451.0,118.0,168.0,162,98,132,114,105
2025-02-26 14:35:57.815,1292.0,-4239.0,2350.0,225.0,141.0,246.0,191,127,166,147,138
2025-02-26 14:35:57.822,939.0,-2464.0,2392.0,48.0,88.0,274.0,187,126,163,141,134
2025-02-26 14:35:57.827,760.0,-1208.0,2226.0,-135.0,-23.0,223.0,183,121,161,139,131
2025-02-26 14:35:57.831,402.0,-1053.0,2126.0,-227.0,-33.0,229.0,196,135,171,154,145
2025-02-26 14:35:57.839,565.0,-1300.0,1965.0,-349.0,-74.0,202.0,197,136,165,155,146
2025-02-26 14:35:57.844,736.0,-1621.0,1556.0,-410.0,-32.0,180.0,191,131,157,150,141
2025-02-26 14:35:57.851,608.0,-1854.0,1123.0,-426.0,-18.0,188.0,193,134,159,155,144
2025-02-26 14:35:57.856,452.0,-2086.0,904.0,-400.0,49.0,191.0,189,129,155,150,139
2025-02-26 14:35:57.860,526.0,-2202.0,600.0,-368.0,96.0,188.0,185,125,150,143,135
2025-02-26 14:35:57.868,208.0,-2248.0,432.0,-348.0,125.0,206.0,181,122,145,139,130
2025-02-26 14:35:57.872,-111.0,-2147.0,235.0,-307.0,90.0,209.0,179,116,139,138,128
2025-02-26 14:35:57.876,61.0,-2074.0,425.0,-265.0,33.0,211.0,177,115,134,134,126
2025-02-26 14:35:57.884,74.0,-1806.0,289.0,-245.0,-5.0,211.0,175,112,133,135,125
2025-02-26 14:35:57.889,107.0,-1541.0,348.0,-239.0,-6.0,225.0,174,113,133,134,123
2025-02-26 14:35:57.893,28.0,-1267.0,237.0,-222.0,43.0,237.0,168,105,130,124,115
2025-02-26 14:35:57.900,58.0,-1161.0,251.0,-216.0,35.0,238.0,173,106,132,128,121
2025-02-26 14:35:57.905,114.0,-1056.0,269.0,-198.0,32.0,239.0,190,126,151,149,140
2025-02-26 14:35:57.909,128.0,-1032.0,205.0,-193.0,62.0,249.0,188,125,147,143,138
2025-02-26 14:35:57.917,99.0,-871.0,250.0,-184.0,32.0,252.0,185,122,141,140,135
2025-02-26 14:35:57.921,-54.0,-766.0,292.0,-168.0,-2.0,256.0,185,122,140,140,136
2025-02-26 14:35:57.926,-56.0,-697.0,269.0,-152.0,-42.0,261.0,172,107,126,127,122
2025-02-26 14:35:57.933,23.0,-569.0,215.0,-140.0,-47.0,262.0,169,107,125,126,120
2025-02-26 14:35:57.937,42.0,-543.0,141.0,-157.0,-3.0,277.0,174,112,132,129,126
2025-02-26 14:35:57.941,-8.0,-314.0,186.0,-155.0,42.0,291.0,171,106,129,127,123
2025-02-26 14:35:57.946,64.0,-271.0,164.0,-175.0,90.0,302.0,168,103,128,125,119
2025-02-26 14:35:57.954,67.0,-99.0,216.0,-209.0,97.0,301.0,161,96,122,120,113
2025-02-26 14:35:57.958,-178.0,10.0,202.0,-214.0,78.0,300.0,166,99,123,119,114
2025-02-26 14:35:57.962,-110.0,80.0,228.0,-220.0,57.0,285.0,168,103,132,127,120
2025-02-26 14:35:57.967,-114.0,348.0,165.0,-212.0,54.0,267.0,165,103,119,123,118
2025-02-26 14:35:57.974,-177.0,444.0,103.0,-196.0,79.0,257.0,163,100,116,121,114
2025-02-26 14:35:57.978,-267.0,495.0,-23.0,-161.0,72.0,232.0,160,97,116,121,114
2025-02-26 14:35:57.985,-408.0,512.0,-44.0,-142.0,47.0,215.0,165,101,124,123,117
2025-02-26 14:35:57.990,-550.0,527.0,58.0,-178.0,22.0,192.0,169,105,130,128,122
2025-02-26 14:35:57.995,-631.0,441.0,-142.0,-167.0,38.0,176.0,170,106,135,131,125
2025-02-26 14:35:57.999,-508.0,583.0,52.0,-169.0,30.0,162.0,176,111,139,135,129
2025-02-26 14:35:58.007,-619.0,607.0,-111.0,-164.0,32.0,153.0,176,114,141,138,131
2025-02-26 14:35:58.011,-586.0,595.0,-330.0,-154.0,33.0,142.0,180,117,140,137,132
2025-02-26 14:35:58.016,-525.0,598.0,-187.0,-145.0,27.0,138.0,188,124,147,147,140
2025-02-26 14:35:58.023,-640.0,576.0,-393.0,-139.0,35.0,130.0,184,122,143,145,140
2025-02-26 14:35:58.028,-676.0,614.0,-397.0,-104.0,33.0,123.0,178,114,134,136,131
2025-02-26 14:35:58.032,-577.0,739.0,-255.0,-108.0,22.0,122.0,169,105,123,125,121
2025-02-26 14:35:58.040,-708.0,808.0,-299.0,-83.0,16.0,108.0,159,91,114,114,109
2025-02-26 14:35:58.044,-692.0,869.0,-261.0,-72.0,23.0,102.0,166,97,120,123,116
2025-02-26 14:35:58.049,-673.0,935.0,-355.0,-56.0,28.0,96.0,167,98,121,121,116
2025-02-26 14:35:58.056,-654.0,1022.0,-213.0,-44.0,19.0,77.0,170,101,122,124,120
2025-02-26 14:35:58.060,-819.0,1189.0,-317.0,-44.0,16.0,52.0,182,116,136,141,133
2025-02-26 14:35:58.065,-828.0,1404.0,-380.0,-28.0,6.0,20.0,173,104,121,124,120
2025-02-26 14:35:58.072,-901.0,1664.0,-349.0,-10.0,0.0,-17.0,168,97,117,119,115
2025-02-26 14:35:58.075,-1084.0,1803.0,-360.0,19.0,-25.0,-39.0,166,96,113,116,111
2025-02-26 14:35:58.081,-1175.0,2073.0,-326.0,48.0,-56.0,-92.0,173,101,122,123,119
2025-02-26 14:35:58.088,-1203.0,2413.0,-355.0,63.0,-76.0,-158.0,171,98,119,122,118
2025-02-26 14:35:58.093,-1309.0,2612.0,-232.0,85.0,-100.0,-227.0,169,98,118,121,115
2025-02-26 14:35:58.104,-1454.0,2861.0,-111.0,96.0,-130.0,-295.0,178,104,126,127,123
2025-02-26 14:35:58.105,-1341.0,3082.0,131.0,115.0,-154.0,-357.0,183,114,135,143,132
2025-02-26 14:35:58.110,-1152.0,3120.0,268.0,135.0,-177.0,-422.0,187,113,134,136,132
2025-02-26 14:35:58.117,-757.0,3046.0,412.0,155.0,-175.0,-484.0,180,106,130,130,125
2025-02-26 14:35:58.122,-575.0,2846.0,565.0,164.0,-167.0,-544.0,179,102,125,126,122
2025-02-26 14:35:58.126,-148.0,2444.0,773.0,177.0,-145.0,-592.0,181,101,126,125,122
2025-02-26 14:35:58.134,314.0,2142.0,842.0,223.0,-127.0,-634.0,182,101,126,124,120
2025-02-26 14:35:58.138,834.0,2000.0,1003.0,281.0,-120.0,-652.0,182,101,128,124,120
2025-02-26 14:35:58.146,1358.0,1521.0,910.0,325.0,-108.0,-698.0,188,101,132,129,126
2025-02-26 14:35:58.150,1837.0,1197.0,845.0,330.0,-106.0,-755.0,190,106,136,131,124
2025-02-26 14:35:58.153,2448.0,583.0,521.0,394.0,-145.0,-784.0,190,105,136,132,125
2025-02-26 14:35:58.162,3036.0,-349.0,223.0,455.0,-200.0,-792.0,195,111,142,135,128
2025-02-26 14:35:58.165,3364.0,-1827.0,82.0,471.0,-223.0,-753.0,187,99,131,126,116
2025-02-26 14:35:58.171,3699.0,-3499.0,444.0,448.0,-164.0,-673.0,181,92,125,119,109
2025-02-26 14:35:58.179,3463.0,-5026.0,772.0,361.0,-135.0,-579.0,178,88,115,112,103
2025-02-26 14:35:58.183,3256.0,-6362.0,714.0,322.0,-115.0,-447.0,177,88,106,110,101
2025-02-26 14:35:58.191,3240.0,-7907.0,275.0,359.0,-125.0,-299.0,177,85,107,109,98
2025-02-26 14:35:58.195,3793.0,-8302.0,787.0,625.0,-191.0,-227.0,171,77,97,99,91
2025-02-26 14:35:58.199,4077.0,-9663.0,2061.0,579.0,-214.0,-138.0,179,84,115,105,98
2025-02-26 14:35:58.208,3970.0,-7417.0,1354.0,419.0,-43.0,-69.0,201,109,147,134,128
2025-02-26 14:35:58.208,2963.0,-5314.0,1688.0,354.0,5.0,72.0,245,155,194,174,165
2025-02-26 14:35:58.216,2205.0,-3914.0,1758.0,208.0,15.0,212.0,205,111,149,128,120
2025-02-26 14:35:58.220,1944.0,-2290.0,1792.0,-7.0,18.0,238.0,206,111,149,132,123
2025-02-26 14:35:58.228,1854.0,-1481.0,1932.0,-129.0,31.0,253.0,232,141,171,161,152
2025-02-26 14:35:58.232,1300.0,-1632.0,1728.0,-296.0,26.0,305.0,268,181,199,198,189
2025-02-26 14:35:58.240,881.0,-1933.0,1501.0,-348.0,48.0,312.0,241,152,169,170,162
2025-02-26 14:35:58.244,1018.0,-1915.0,1102.0,-369.0,51.0,336.0,242,152,172,172,162
2025-02-26 14:35:58.249,741.0,-2230.0,1032.0,-386.0,119.0,339.0,245,155,181,176,167
2025-02-26 14:35:58.256,474.0,-2293.0,1081.0,-361.0,124.0,343.0,197,103,131,124,113
2025-02-26 14:35:58.261,547.0,-2377.0,831.0,-251.0,117.0,339.0,202,110,137,131,122
2025-02-26 14:35:58.268,422.0,-2000.0,846.0,-222.0,113.0,329.0,211,120,144,143,132
2025-02-26 14:35:58.273,555.0,-1641.0,965.0,-187.0,93.0,328.0,223,132,155,154,145
2025-02-26 14:35:58.277,517.0,-1104.0,792.0,-181.0,119.0,322.0,238,148,168,171,161
2025-02-26 14:35:58.285,295.0,-904.0,657.0,-180.0,100.0,319.0,248,161,179,188,174
2025-02-26 14:35:58.289,303.0,-727.0,281.0,-210.0,90.0,315.0,208,117,138,139,129
2025-02-26 14:35:58.292,334.0,-574.0,184.0,-139.0,93.0,316.0,224,135,158,156,148
2025-02-26 14:35:58.302,291.0,-113.0,273.0,-105.0,85.0,303.0,208,117,141,137,130
2025-02-26 14:35:58.305,90.0,-44.0,324.0,-92.0,37.0,293.0,211,121,143,141,134
2025-02-26 14:35:58.310,8.0,118.0,216.0,-62.0,14.0,280.0,216,124,146,143,138
2025-02-26 14:35:58.311,57.0,182.0,89.0,-44.0,-7.0,273.0,204,109,129,129,124
2025-02-26 14:35:58.322,-256.0,208.0,208.0,-64.0,16.0,254.0,214,123,140,143,136
2025-02-26 14:35:58.323,-327.0,244.0,-26.0,-57.0,49.0,239.0,199,108,122,125,121
2025-02-26 14:35:58.331,-394.0,179.0,-41.0,-55.0,58.0,227.0,192,98,119,117,111
2025-02-26 14:35:58.335,-480.0,231.0,-10.0,-91.0,64.0,223.0,200,108,131,128,125
2025-02-26 14:35:58.342,-581.0,250.0,-139.0,-117.0,74.0,209.0,201,109,134,129,125
2025-02-26 14:35:58.347,-570.0,253.0,-213.0,-145.0,93.0,192.0,217,126,148,148,141
2025-02-26 14:35:58.355,-505.0,307.0,-102.0,-161.0,103.0,177.0,216,127,144,149,141
2025-02-26 14:35:58.359,-555.0,324.0,-99.0,-206.0,127.0,169.0,219,129,146,150,143
2025-02-26 14:35:58.364,-564.0,269.0,-150.0,-209.0,128.0,162.0,217,127,142,149,141
2025-02-26 14:35:58.371,-571.0,270.0,-71.0,-214.0,120.0,161.0,233,143,159,165,158
2025-02-26 14:35:58.376,-684.0,160.0,-273.0,-139.0,78.0,154.0,219,131,147,151,143
2025-02-26 14:35:58.378,-696.0,-74.0,-274.0,-90.0,37.0,135.0,227,138,158,159,151
2025-02-26 14:35:58.388,-727.0,-146.0,-287.0,-58.0,12.0,118.0,222,132,154,155,148
2025-02-26 14:35:58.391,-746.0,-24.0,-158.0,-51.0,-18.0,108.0,222,131,150,152,145
2025-02-26 14:35:58.397,-723.0,-66.0,-70.0,-50.0,-33.0,99.0,218,126,147,146,140
2025-02-26 14:35:58.401,-617.0,-55.0,-99.0,-35.0,-43.0,81.0,216,125,145,146,140
2025-02-26 14:35:58.409,-769.0,-21.0,-290.0,-40.0,-20.0,80.0,212,122,146,143,138
2025-02-26 14:35:58.413,-737.0,82.0,-54.0,-41.0,-19.0,69.0,214,124,145,143,140
2025-02-26 14:35:58.417,-723.0,-58.0,-63.0,-42.0,-24.0,56.0,217,127,147,148,142
2025-02-26 14:35:58.425,-659.0,-65.0,-84.0,-49.0,-12.0,51.0,217,125,147,148,141
2025-02-26 14:35:58.429,-665.0,-96.0,-148.0,-53.0,-9.0,49.0,212,121,140,144,138
2025-02-26 14:35:58.433,-721.0,-85.0,-137.0,-46.0,-15.0,47.0,204,113,132,134,128
2025-02-26 14:35:58.441,-612.0,-82.0,-167.0,-53.0,-25.0,44.0,214,125,143,146,141
2025-02-26 14:35:58.445,-644.0,-79.0,-130.0,-41.0,-29.0,42.0,205,113,132,134,129
2025-02-26 14:35:58.450,-572.0,-10.0,-58.0,-42.0,-31.0,37.0,197,104,123,126,120
2025-02-26 14:35:58.453,-596.0,63.0,-75.0,-21.0,-31.0,31.0,195,103,122,124,118
2025-02-26 14:35:58.461,-559.0,183.0,-33.0,-6.0,-52.0,25.0,199,107,126,129,123
2025-02-26 14:35:58.464,-612.0,201.0,14.0,8.0,-64.0,15.0,201,110,127,129,125
2025-02-26 14:35:58.470,-678.0,391.0,37.0,18.0,-77.0,2.0,198,104,124,126,121
2025-02-26 14:35:58.475,-728.0,528.0,66.0,39.0,-82.0,-16.0,194,99,118,121,113
2025-02-26 14:35:58.482,-845.0,644.0,100.0,65.0,-95.0,-25.0,196,104,121,124,118
2025-02-26 14:35:58.487,-1037.0,875.0,143.0,95.0,-108.0,-46.0,199,106,125,129,123
2025-02-26 14:35:58.494,-1221.0,1260.0,277.0,131.0,-113.0,-78.0,198,107,125,126,120
2025-02-26 14:35:58.499,-1346.0,1688.0,458.0,143.0,-107.0,-119.0,197,105,126,129,120
2025-02-26 14:35:58.500,-1435.0,2116.0,555.0,150.0,-107.0,-167.0,197,104,127,127,121
2025-02-26 14:35:58.511,-1361.0,2583.0,747.0,153.0,-89.0,-234.0,197,104,126,128,120
2025-02-26 14:35:58.515,-1256.0,2989.0,962.0,156.0,-58.0,-310.0,192,100,123,123,114
2025-02-26 14:35:58.519,-1097.0,3212.0,1131.0,181.0,-44.0,-386.0,199,106,131,131,121
2025-02-26 14:35:58.524,-667.0,3139.0,1234.0,128.0,-9.0,-447.0,192,101,126,123,116
2025-02-26 14:35:58.532,-281.0,2714.0,1085.0,110.0,8.0,-502.0,192,99,125,122,115
2025-02-26 14:35:58.536,63.0,2458.0,880.0,113.0,15.0,-529.0,197,105,130,129,120
2025-02-26 14:35:58.543,532.0,1851.0,726.0,123.0,32.0,-572.0,200,107,134,131,124
2025-02-26 14:35:58.548,966.0,1211.0,584.0,128.0,41.0,-597.0,197,105,132,130,122
2025-02-26 14:35:58.552,1573.0,614.0,398.0,143.0,49.0,-609.0,196,99,126,117,117
2025-02-26 14:35:58.560,1876.0,-200.0,230.0,171.0,52.0,-610.0,191,98,123,122,113
2025-02-26 14:35:58.564,2388.0,-709.0,92.0,218.0,39.0,-605.0,191,98,124,123,113
2025-02-26 14:35:58.568,2597.0,-1916.0,-137.0,240.0,6.0,-599.0,200,107,132,131,121
2025-02-26 14:35:58.576,2756.0,-2914.0,-103.0,240.0,-18.0,-571.0,225,138,161,161,152
2025-02-26 14:35:58.579,2700.0,-3828.0,46.0,222.0,-40.0,-521.0,224,135,159,160,148
2025-02-26 14:35:58.588,2530.0,-4679.0,116.0,223.0,-69.0,-468.0,216,124,149,148,138
2025-02-26 14:35:58.593,2670.0,-5761.0,163.0,254.0,-92.0,-392.0,215,123,144,145,136
2025-02-26 14:35:58.597,2750.0,-6547.0,508.0,272.0,-200.0,-279.0,210,118,136,138,129
2025-02-26 14:35:58.605,2824.0,-7146.0,1008.0,284.0,-198.0,-165.0,219,125,148,145,138
2025-02-26 14:35:58.608,2697.0,-6886.0,748.0,230.0,-115.0,-35.0,216,121,152,142,135
2025-02-26 14:35:58.614,2292.0,-5549.0,995.0,123.0,-89.0,88.0,204,108,140,128,121
2025-02-26 14:35:58.621,1661.0,-5060.0,927.0,-9.0,-96.0,150.0,206,109,138,128,124
2025-02-26 14:35:58.626,1750.0,-3889.0,906.0,-122.0,-117.0,223.0,206,112,143,132,126
2025-02-26 14:35:58.633,1742.0,-2868.0,711.0,-242.0,-64.0,231.0,207,111,133,132,126
2025-02-26 14:35:58.638,1281.0,-2234.0,680.0,-311.0,-11.0,251.0,211,117,134,139,132
2025-02-26 14:35:58.640,946.0,-2203.0,681.0,-321.0,40.0,264.0,207,115,128,133,127
2025-02-26 14:35:58.650,854.0,-2353.0,501.0,-325.0,41.0,268.0,202,109,128,130,123
2025-02-26 14:35:58.654,434.0,-2307.0,163.0,-321.0,36.0,271.0,198,104,129,126,120
2025-02-26 14:35:58.659,413.0,-2526.0,93.0,-256.0,39.0,258.0,196,102,130,127,117
2025-02-26 14:35:58.665,279.0,-2534.0,66.0,-203.0,26.0,252.0,195,102,128,126,117
2025-02-26 14:35:58.670,238.0,-2577.0,86.0,-122.0,10.0,237.0,200,108,132,131,121
2025-02-26 14:35:58.675,358.0,-2410.0,49.0,-56.0,-14.0,222.0,199,106,133,133,122
2025-02-26 14:35:58.683,251.0,-2195.0,74.0,-33.0,-12.0,219.0,202,108,139,133,124
2025-02-26 14:35:58.687,378.0,-2052.0,192.0,12.0,3.0,221.0,197,102,128,127,119
2025-02-26 14:35:58.692,356.0,-1795.0,384.0,29.0,12.0,236.0,192,96,122,121,115
2025-02-26 14:35:58.695,606.0,-1815.0,336.0,54.0,22.0,236.0,197,104,127,126,121
2025-02-26 14:35:58.703,521.0,-1493.0,474.0,41.0,26.0,242.0,203,109,131,131,127
2025-02-26 14:35:58.708,518.0,-1296.0,435.0,33.0,39.0,252.0,204,111,132,131,127
2025-02-26 14:35:58.712,558.0,-1097.0,462.0,-30.0,51.0,263.0,206,112,132,129,130
2025-02-26 14:35:58.719,442.0,-811.0,397.0,-47.0,60.0,269.0,203,109,130,132,129
2025-02-26 14:35:58.724,463.0,-748.0,334.0,-106.0,88.0,277.0,208,115,138,135,133
2025-02-26 14:35:58.728,343.0,-351.0,276.0,-128.0,109.0,281.0,205,113,134,133,130
2025-02-26 14:35:58.736,226.0,140.0,206.0,-143.0,152.0,290.0,204,112,134,131,128
2025-02-26 14:35:58.740,72.0,335.0,260.0,-122.0,146.0,307.0,203,111,135,128,127
2025-02-26 14:35:58.744,84.0,404.0,309.0,-118.0,145.0,298.0,199,105,127,124,121
2025-02-26 14:35:58.752,-13.0,324.0,409.0,-151.0,128.0,291.0,198,102,126,122,119
2025-02-26 14:35:58.757,-75.0,351.0,305.0,-180.0,98.0,271.0,201,108,131,127,125
2025-02-26 14:35:58.761,-102.0,219.0,411.0,-187.0,62.0,252.0,205,113,137,132,128
2025-02-26 14:35:58.765,-180.0,125.0,393.0,-200.0,57.0,235.0,201,109,131,129,124
2025-02-26 14:35:58.773,-225.0,1.0,351.0,-236.0,59.0,234.0,197,104,125,125,122
2025-02-26 14:35:58.777,-167.0,0.0,290.0,-240.0,59.0,233.0,195,102,126,125,122
2025-02-26 14:35:58.781,-278.0,-197.0,315.0,-237.0,64.0,235.0,201,108,130,131,128
2025-02-26 14:35:58.789,-363.0,-202.0,219.0,-217.0,70.0,237.0,200,108,130,130,128
2025-02-26 14:35:58.791,-350.0,-369.0,104.0,-201.0,81.0,248.0,200,108,126,127,127
2025-02-26 14:35:58.797,-388.0,-396.0,202.0,-183.0,91.0,246.0,197,107,126,130,127
2025-02-26 14:35:58.803,-331.0,-222.0,95.0,-185.0,96.0,245.0,197,105,124,127,126
2025-02-26 14:35:58.810,-389.0,-237.0,139.0,-181.0,112.0,248.0,197,105,124,127,126
2025-02-26 14:35:58.815,-315.0,-299.0,69.0,-159.0,120.0,248.0,197,107,126,129,128
2025-02-26 14:35:58.820,-490.0,-167.0,17.0,-154.0,133.0,248.0,205,117,139,140,139
2025-02-26 14:35:58.826,-506.0,7.0,-55.0,-136.0,126.0,247.0,206,118,138,143,143
2025-02-26 14:35:58.831,-500.0,135.0,-81.0,-127.0,115.0,234.0,202,113,134,139,140
2025-02-26 14:35:58.838,-566.0,199.0,-127.0,-118.0,105.0,219.0,198,110,132,136,136
2025-02-26 14:35:58.843,-535.0,305.0,-80.0,-98.0,85.0,198.0,198,108,129,135,135
2025-02-26 14:35:58.847,-528.0,383.0,-118.0,-85.0,74.0,186.0,194,107,127,134,136
2025-02-26 14:35:58.855,-558.0,479.0,-126.0,-70.0,68.0,169.0,196,116,133,143,143
2025-02-26 14:35:58.857,-484.0,513.0,-79.0,-46.0,58.0,151.0,200,114,136,140,144
2025-02-26 14:35:58.864,-547.0,481.0,-167.0,-43.0,58.0,137.0,194,111,128,136,141
2025-02-26 14:35:58.871,-571.0,675.0,-237.0,-40.0,54.0,118.0,203,121,141,147,152
2025-02-26 14:35:58.876,-600.0,782.0,-240.0,-11.0,43.0,95.0,202,120,138,145,152
2025-02-26 14:35:58.879,-630.0,711.0,-263.0,20.0,29.0,81.0,212,133,151,157,165
2025-02-26 14:35:58.883,-643.0,709.0,-218.0,41.0,14.0,52.0,208,128,146,154,163
2025-02-26 14:35:58.892,-724.0,777.0,-209.0,54.0,0.0,25.0,216,139,157,163,172
2025-02-26 14:35:58.894,-780.0,869.0,-150.0,74.0,-3.0,0.0,206,131,147,153,164
2025-02-26 14:35:58.900,-795.0,923.0,-68.0,105.0,-2.0,-11.0,216,145,157,165,175
2025-02-26 14:35:58.905,-804.0,960.0,-52.0,136.0,-1.0,-28.0,213,143,156,160,172
2025-02-26 14:35:58.912,-768.0,1052.0,9.0,151.0,-9.0,-50.0,206,139,151,155,167
2025-02-26 14:35:58.916,-741.0,1180.0,29.0,191.0,-15.0,-85.0,202,139,149,154,166
2025-02-26 14:35:58.921,-757.0,1300.0,-7.0,220.0,-39.0,-132.0,206,143,152,156,169
2025-02-26 14:35:58.929,-868.0,1386.0,-113.0,255.0,-59.0,-159.0,204,147,154,158,170
2025-02-26 14:35:58.930,-1016.0,1571.0,-260.0,299.0,-84.0,-212.0,205,152,157,161,174
2025-02-26 14:35:58.941,-1122.0,1729.0,-251.0,352.0,-104.0,-259.0,208,157,158,162,176
2025-02-26 14:35:58.945,-1212.0,1843.0,-245.0,424.0,-113.0,-306.0,207,161,162,162,177
2025-02-26 14:35:58.953,-1307.0,1776.0,-421.0,469.0,-120.0,-337.0,207,162,163,166,176
2025-02-26 14:35:58.955,-1349.0,1672.0,-826.0,484.0,-128.0,-361.0,207,165,165,167,176
2025-02-26 14:35:58.961,-1483.0,1671.0,-1078.0,445.0,-130.0,-392.0,208,167,170,172,178
2025-02-26 14:35:58.966,-1358.0,1644.0,-906.0,437.0,-116.0,-425.0,208,170,171,171,178
2025-02-26 14:35:58.973,-751.0,1587.0,-632.0,445.0,-135.0,-459.0,203,170,172,172,177
2025-02-26 14:35:58.981,-379.0,1644.0,-442.0,479.0,-184.0,-495.0,211,177,178,178,181
2025-02-26 14:35:58.985,-103.0,1524.0,-13.0,512.0,-219.0,-534.0,207,176,176,175,178
2025-02-26 14:35:58.991,107.0,1169.0,67.0,533.0,-268.0,-552.0,203,173,175,174,176
2025-02-26 14:35:58.996,354.0,744.0,175.0,536.0,-282.0,-551.0,199,172,171,172,173
2025-02-26 14:35:59.002,454.0,401.0,221.0,558.0,-278.0,-554.0,203,173,174,172,174
2025-02-26 14:35:59.007,857.0,349.0,-683.0,473.0,-368.0,-560.0,201,174,172,172,172
2025-02-26 14:35:59.015,1360.0,151.0,-376.0,484.0,-408.0,-553.0,206,180,177,178,178
2025-02-26 14:35:59.018,2155.0,-449.0,-69.0,500.0,-456.0,-516.0,207,180,180,179,178
2025-02-26 14:35:59.026,2990.0,-1240.0,29.0,460.0,-484.0,-472.0,209,183,181,182,180
2025-02-26 14:35:59.030,3621.0,-2238.0,637.0,366.0,-465.0,-428.0,209,183,181,178,177
2025-02-26 14:35:59.035,4068.0,-3404.0,2674.0,203.0,-368.0,-372.0,210,185,180,180,179
2025-02-26 14:35:59.044,4059.0,-3867.0,2726.0,67.0,-338.0,-326.0,210,186,183,181,182
2025-02-26 14:35:59.047,3957.0,-4523.0,3093.0,36.0,-333.0,-264.0,209,184,179,177,178
2025-02-26 14:35:59.055,4094.0,-4559.0,4142.0,46.0,-257.0,-218.0,208,184,179,178,179
2025-02-26 14:35:59.060,3615.0,-5217.0,4325.0,-20.0,-118.0,-101.0,206,184,177,177,179
2025-02-26 14:35:59.064,3028.0,-4472.0,3586.0,-66.0,-74.0,14.0,206,181,178,176,178
2025-02-26 14:35:59.072,2736.0,-3955.0,2586.0,-145.0,-73.0,142.0,206,181,174,173,175
2025-02-26 14:35:59.076,2307.0,-3461.0,2719.0,-263.0,-12.0,254.0,203,179,177,173,175
2025-02-26 14:35:59.084,2000.0,-2538.0,2449.0,-385.0,70.0,328.0,206,181,178,175,176
2025-02-26 14:35:59.088,1689.0,-2324.0,1494.0,-327.0,49.0,339.0,206,181,180,174,176
2025-02-26 14:35:59.092,1432.0,-2538.0,2167.0,-358.0,33.0,364.0,206,181,179,175,176
2025-02-26 14:35:59.101,1110.0,-2197.0,1818.0,-251.0,-24.0,354.0,210,184,183,179,180
2025-02-26 14:35:59.105,1084.0,-1758.0,1527.0,-215.0,-72.0,336.0,210,184,185,182,182
2025-02-26 14:35:59.109,876.0,-1697.0,1243.0,-186.0,-39.0,338.0,209,185,182,178,180
2025-02-26 14:35:59.116,542.0,-1454.0,680.0,-185.0,11.0,348.0,207,184,181,178,180
2025-02-26 14:35:59.121,240.0,-1189.0,93.0,-192.0,26.0,347.0,209,185,183,181,182
2025-02-26 14:35:59.125,345.0,-1137.0,-42.0,-217.0,24.0,327.0,204,179,178,177,177
2025-02-26 14:35:59.133,528.0,-1401.0,723.0,-190.0,41.0,305.0,204,176,175,174,175
2025-02-26 14:35:59.138,526.0,-1400.0,966.0,-126.0,99.0,296.0,205,180,178,177,179
2025-02-26 14:35:59.142,436.0,-1274.0,835.0,-81.0,144.0,277.0,206,178,179,177,178
2025-02-26 14:35:59.150,329.0,-1049.0,869.0,-43.0,205.0,265.0,200,176,174,173,174
2025-02-26 14:35:59.154,307.0,-815.0,651.0,-31.0,246.0,259.0,195,172,170,169,171
2025-02-26 14:35:59.158,170.0,-700.0,282.0,-35.0,241.0,253.0,205,181,177,178,179
2025-02-26 14:35:59.166,79.0,-626.0,-113.0,-66.0,230.0,259.0,201,177,175,175,175
2025-02-26 14:35:59.170,16.0,-470.0,-90.0,-95.0,172.0,267.0,200,178,174,175,176
2025-02-26 14:35:59.174,-99.0,-414.0,180.0,-98.0,164.0,269.0,238,216,214,213,213
2025-02-26 14:35:59.183,-83.0,-241.0,286.0,-90.0,171.0,270.0,209,185,182,181,180
2025-02-26 14:35:59.187,-5.0,-180.0,356.0,-100.0,176.0,275.0,255,231,231,229,230
2025-02-26 14:35:59.191,-6.0,-133.0,37.0,-105.0,167.0,269.0,189,166,162,164,163
2025-02-26 14:35:59.198,-102.0,-89.0,177.0,-91.0,168.0,259.0,186,163,159,160,160
2025-02-26 14:35:59.203,-208.0,-87.0,179.0,-94.0,177.0,254.0,192,173,167,168,169
2025-02-26 14:35:59.207,-236.0,-112.0,130.0,-113.0,184.0,243.0,212,191,185,190,188
2025-02-26 14:35:59.215,-280.0,-141.0,65.0,-116.0,177.0,229.0,210,187,185,187,185
2025-02-26 14:35:59.219,-335.0,-105.0,21.0,-135.0,162.0,211.0,206,183,180,181,182
2025-02-26 14:35:59.223,-361.0,-108.0,27.0,-147.0,153.0,195.0,215,194,190,190,190
2025-02-26 14:35:59.232,-399.0,-12.0,109.0,-165.0,149.0,183.0,209,186,184,185,185
2025-02-26 14:35:59.236,-408.0,29.0,30.0,-157.0,145.0,173.0,204,179,178,180,178
2025-02-26 14:35:59.240,-564.0,22.0,-51.0,-165.0,128.0,167.0,207,184,184,184,183
2025-02-26 14:35:59.248,-622.0,83.0,-190.0,-154.0,109.0,161.0,220,195,193,194,194
2025-02-26 14:35:59.252,-649.0,61.0,-210.0,-144.0,98.0,157.0,187,165,164,164,164
2025-02-26 14:35:59.257,-733.0,132.0,296.0,-152.0,97.0,156.0,217,193,193,195,193
2025-02-26 14:35:59.264,-684.0,84.0,-134.0,-133.0,90.0,151.0,183,161,162,165,160
2025-02-26 14:35:59.269,-750.0,108.0,-65.0,-107.0,72.0,142.0,183,159,158,160,159
2025-02-26 14:35:59.273,-835.0,186.0,-57.0,-89.0,59.0,138.0,197,173,171,175,172
2025-02-26 14:35:59.281,-842.0,175.0,-131.0,-76.0,44.0,125.0,199,176,175,175,175
2025-02-26 14:35:59.285,-860.0,187.0,-252.0,-73.0,33.0,111.0,213,191,188,191,189
2025-02-26 14:35:59.288,-839.0,248.0,-319.0,-64.0,25.0,94.0,209,184,183,185,185
2025-02-26 14:35:59.293,-856.0,268.0,-295.0,-56.0,23.0,78.0,202,179,177,182,178
2025-02-26 14:35:59.299,-832.0,304.0,-321.0,-48.0,9.0,67.0,205,180,180,182,178
2025-02-26 14:35:59.306,-792.0,351.0,-312.0,-33.0,-7.0,45.0,205,182,180,183,180
2025-02-26 14:35:59.311,-756.0,434.0,-169.0,-20.0,-17.0,23.0,203,178,177,182,178
2025-02-26 14:35:59.317,-767.0,531.0,-12.0,4.0,-17.0,4.0,199,174,175,178,175
2025-02-26 14:35:59.322,-767.0,683.0,-7.0,40.0,-21.0,-6.0,200,176,175,178,177
2025-02-26 14:35:59.323,-816.0,750.0,-7.0,70.0,-37.0,-25.0,190,164,164,166,166
2025-02-26 14:35:59.328,-873.0,906.0,-12.0,106.0,-61.0,-43.0,191,162,162,166,164
2025-02-26 14:35:59.335,-955.0,1065.0,93.0,130.0,-76.0,-60.0,194,166,165,168,166
2025-02-26 14:35:59.343,-999.0,1234.0,154.0,181.0,-79.0,-76.0,190,165,166,169,166
2025-02-26 14:35:59.348,-1094.0,1364.0,126.0,223.0,-79.0,-99.0,196,166,168,171,169
2025-02-26 14:35:59.354,-1185.0,1448.0,47.0,264.0,-77.0,-113.0,199,170,173,177,176
2025-02-26 14:35:59.359,-1242.0,1577.0,-22.0,304.0,-79.0,-145.0,200,174,174,178,176
2025-02-26 14:35:59.367,-1309.0,1735.0,-57.0,342.0,-85.0,-181.0,212,186,188,190,187
2025-02-26 14:35:59.371,-1314.0,1964.0,37.0,414.0,-70.0,-230.0,218,192,192,196,194
2025-02-26 14:35:59.376,-1216.0,2092.0,-207.0,413.0,-79.0,-291.0,228,204,204,207,204
2025-02-26 14:35:59.383,-1112.0,1993.0,-30.0,419.0,-87.0,-346.0,222,197,198,201,199
2025-02-26 14:35:59.387,-853.0,2047.0,-16.0,402.0,-104.0,-402.0,221,196,194,200,196
2025-02-26 14:35:59.391,-545.0,1995.0,69.0,430.0,-122.0,-451.0,218,193,192,196,192
2025-02-26 14:35:59.399,-451.0,1785.0,83.0,438.0,-131.0,-497.0,230,201,206,210,206
2025-02-26 14:35:59.403,-232.0,1485.0,-17.0,432.0,-147.0,-534.0,210,184,184,187,185
2025-02-26 14:35:59.411,104.0,1289.0,-196.0,408.0,-181.0,-546.0,167,141,142,146,142
2025-02-26 14:35:59.416,555.0,930.0,-386.0,400.0,-227.0,-559.0,171,145,146,150,146
2025-02-26 14:35:59.420,1062.0,446.0,-260.0,376.0,-272.0,-553.0,196,167,167,170,168
2025-02-26 14:35:59.428,1681.0,-173.0,-101.0,320.0,-279.0,-526.0,195,170,169,172,170
2025-02-26 14:35:59.432,2363.0,-1133.0,107.0,247.0,-297.0,-483.0,189,163,163,168,163
2025-02-26 14:35:59.441,2902.0,-2179.0,607.0,146.0,-324.0,-425.0,155,129,129,131,128
2025-02-26 14:35:59.444,3187.0,-3505.0,736.0,149.0,-376.0,-350.0,154,128,126,130,127
2025-02-26 14:35:59.449,3059.0,-4602.0,1639.0,119.0,-326.0,-282.0,163,136,137,138,134
2025-02-26 14:35:59.457,3028.0,-5149.0,3167.0,113.0,-252.0,-182.0,202,177,176,178,176
2025-02-26 14:35:59.461,3437.0,-4607.0,4177.0,87.0,-79.0,-159.0,234,209,209,209,206
2025-02-26 14:35:59.468,3276.0,-6023.0,2785.0,50.0,-230.0,-52.0,175,146,147,146,144
2025-02-26 14:35:59.473,3010.0,-6337.0,2186.0,-121.0,-297.0,15.0,171,147,143,140,137
2025-02-26 14:35:59.477,2381.0,-5355.0,1802.0,-64.0,-284.0,85.0,201,173,175,170,170
2025-02-26 14:35:59.486,2014.0,-3995.0,1270.0,-220.0,-181.0,166.0,170,143,145,141,141
2025-02-26 14:35:59.488,2077.0,-2293.0,1556.0,-457.0,-28.0,214.0,198,171,171,166,166
2025-02-26 14:35:59.497,1929.0,-1743.0,1526.0,-500.0,111.0,230.0,194,166,169,164,165
2025-02-26 14:35:59.500,948.0,-1217.0,1888.0,-365.0,121.0,269.0,193,166,169,165,164
2025-02-26 14:35:59.506,840.0,-1367.0,1604.0,-319.0,75.0,293.0,210,180,184,181,180
