timestamp,ax,ay,az,gx,gy,gz,flex1,flex2,flex3,flex4,flex5,emg1,emg2,emg3
2025-02-26 14:56:23.640,-292.0,-943.0,239.0,-1.0,0.0,-1.0,159,138,130,143,140
2025-02-26 14:56:23.644,-290.0,-941.0,237.0,-1.0,0.0,-1.0,158,138,132,147,143
2025-02-26 14:56:23.647,-285.0,-939.0,238.0,-2.0,0.0,-1.0,158,139,130,145,142
2025-02-26 14:56:23.649,-286.0,-940.0,233.0,-2.0,-1.0,-1.0,160,139,132,146,143
2025-02-26 14:56:23.651,-287.0,-941.0,233.0,-3.0,-1.0,-1.0,160,139,132,147,143
2025-02-26 14:56:23.653,-282.0,-940.0,232.0,-3.0,-1.0,-1.0,158,139,132,145,141
2025-02-26 14:56:23.655,-284.0,-942.0,234.0,-3.0,0.0,-1.0,155,138,130,144,141
2025-02-26 14:56:23.657,-287.0,-945.0,232.0,-4.0,0.0,-1.0,163,142,133,148,146
2025-02-26 14:56:23.659,-288.0,-941.0,239.0,-4.0,0.0,-1.0,157,137,130,145,142
2025-02-26 14:56:23.661,-292.0,-942.0,229.0,-3.0,0.0,-1.0,156,135,128,143,139
2025-02-26 14:56:23.663,-291.0,-946.0,232.0,-3.0,0.0,-1.0,158,139,131,146,142
2025-02-26 14:56:23.666,-288.0,-942.0,233.0,-3.0,0.0,-1.0,158,137,130,145,142
2025-02-26 14:56:23.668,-293.0,-945.0,230.0,-2.0,0.0,-1.0,156,136,129,144,140
2025-02-26 14:56:23.670,-290.0,-945.0,233.0,-2.0,0.0,-1.0,159,137,131,146,143
2025-02-26 14:56:23.670,-290.0,-937.0,234.0,-1.0,0.0,-1.0,155,138,130,145,140
2025-02-26 14:56:23.675,-290.0,-939.0,234.0,-1.0,0.0,-1.0,158,137,130,143,140
2025-02-26 14:56:23.676,-282.0,-938.0,235.0,-1.0,1.0,-1.0,160,139,131,147,144
2025-02-26 14:56:23.680,-278.0,-937.0,239.0,-1.0,1.0,-1.0,156,137,130,146,141
2025-02-26 14:56:23.681,-283.0,-941.0,233.0,-1.0,1.0,-1.0,158,139,131,145,142
2025-02-26 14:56:23.681,-284.0,-939.0,230.0,-1.0,1.0,-1.0,159,139,132,146,142
2025-02-26 14:56:23.681,-282.0,-937.0,236.0,-1.0,1.0,-1.0,157,138,131,143,141
2025-02-26 14:56:23.688,-282.0,-941.0,244.0,-2.0,2.0,-1.0,159,139,131,143,143
2025-02-26 14:56:23.690,-276.0,-940.0,236.0,-3.0,2.0,-1.0,158,145,133,148,143
2025-02-26 14:56:23.692,-284.0,-946.0,226.0,-3.0,2.0,0.0,158,136,128,143,142
2025-02-26 14:56:23.694,-291.0,-948.0,232.0,-3.0,2.0,-1.0,164,140,132,145,142
2025-02-26 14:56:23.694,-293.0,-951.0,233.0,-3.0,2.0,0.0,160,140,132,147,143
2025-02-26 14:56:23.699,-295.0,-952.0,225.0,-3.0,2.0,0.0,157,136,130,144,141
2025-02-26 14:56:23.701,-297.0,-948.0,219.0,-3.0,1.0,0.0,156,136,130,140,139
2025-02-26 14:56:23.704,-298.0,-946.0,229.0,-3.0,1.0,0.0,159,138,133,147,142
2025-02-26 14:56:23.706,-296.0,-944.0,223.0,-2.0,0.0,0.0,159,138,131,146,142
2025-02-26 14:56:23.706,-306.0,-936.0,235.0,-2.0,0.0,0.0,157,136,131,143,140
2025-02-26 14:56:23.709,-290.0,-934.0,214.0,-2.0,0.0,-1.0,159,139,133,145,142
2025-02-26 14:56:23.712,-296.0,-937.0,220.0,-2.0,-1.0,-1.0,161,140,134,146,143
2025-02-26 14:56:23.713,-289.0,-932.0,234.0,-3.0,-1.0,-1.0,158,139,130,144,142
2025-02-26 14:56:23.716,-286.0,-931.0,227.0,-3.0,-1.0,-1.0,155,136,129,144,139
2025-02-26 14:56:23.718,-288.0,-931.0,230.0,-4.0,-1.0,-1.0,160,141,135,149,145
2025-02-26 14:56:23.718,-295.0,-931.0,231.0,-4.0,0.0,-1.0,159,140,133,147,143
2025-02-26 14:56:23.723,-296.0,-944.0,234.0,-4.0,0.0,-1.0,160,139,131,145,143
2025-02-26 14:56:23.724,-294.0,-955.0,222.0,-4.0,0.0,-1.0,155,136,130,143,140
2025-02-26 14:56:23.727,-294.0,-948.0,230.0,-3.0,0.0,-1.0,162,141,134,149,146
2025-02-26 14:56:23.729,-294.0,-952.0,229.0,-3.0,1.0,-1.0,159,139,133,146,142
2025-02-26 14:56:23.731,-299.0,-952.0,222.0,-2.0,1.0,-1.0,158,138,132,143,142
2025-02-26 14:56:23.735,-297.0,-948.0,226.0,-2.0,1.0,-1.0,157,137,130,143,140
2025-02-26 14:56:23.736,-299.0,-944.0,221.0,-1.0,1.0,-1.0,162,142,135,149,144
2025-02-26 14:56:23.747,-297.0,-937.0,217.0,-1.0,1.0,-1.0,160,139,132,147,144
2025-02-26 14:56:23.748,-297.0,-935.0,213.0,-1.0,0.0,-1.0,157,136,129,144,140
2025-02-26 14:56:23.756,-296.0,-935.0,211.0,0.0,-1.0,-1.0,156,134,130,145,142
2025-02-26 14:56:23.760,-299.0,-931.0,225.0,-1.0,-1.0,-1.0,160,141,133,147,143
2025-02-26 14:56:23.768,-292.0,-936.0,232.0,-1.0,-1.0,-1.0,159,139,132,147,144
2025-02-26 14:56:23.773,-289.0,-933.0,227.0,-1.0,-1.0,-1.0,157,138,130,144,140
2025-02-26 14:56:23.777,-292.0,-938.0,227.0,-1.0,-1.0,-1.0,156,137,129,143,140
2025-02-26 14:56:23.785,-290.0,-939.0,233.0,-2.0,-1.0,-1.0,159,141,130,148,144
2025-02-26 14:56:23.789,-287.0,-951.0,230.0,-4.0,-1.0,-1.0,160,140,132,145,142
2025-02-26 14:56:23.791,-292.0,-942.0,231.0,-4.0,-1.0,-2.0,159,138,131,145,143
2025-02-26 14:56:23.797,-294.0,-951.0,220.0,-4.0,-1.0,-2.0,158,137,128,143,140
2025-02-26 14:56:23.805,-286.0,-955.0,233.0,-5.0,-1.0,-2.0,157,137,129,144,141
2025-02-26 14:56:23.809,-296.0,-957.0,217.0,-5.0,-1.0,-2.0,158,139,132,145,144
2025-02-26 14:56:23.814,-293.0,-969.0,203.0,-4.0,-2.0,-2.0,158,139,131,143,141
2025-02-26 14:56:23.821,-298.0,-973.0,239.0,-4.0,-1.0,-1.0,158,138,130,144,141
2025-02-26 14:56:23.825,-298.0,-968.0,209.0,-3.0,-1.0,-1.0,156,138,129,143,141
2025-02-26 14:56:23.830,-293.0,-971.0,222.0,-2.0,-2.0,-1.0,158,140,133,146,143
2025-02-26 14:56:23.833,-296.0,-961.0,223.0,-2.0,-2.0,-1.0,159,139,132,146,142
2025-02-26 14:56:23.842,-297.0,-961.0,226.0,-1.0,-2.0,0.0,161,140,131,145,143
2025-02-26 14:56:23.845,-295.0,-951.0,225.0,0.0,-1.0,0.0,158,138,130,145,140
2025-02-26 14:56:23.851,-292.0,-950.0,219.0,-1.0,-1.0,0.0,160,139,133,147,143
2025-02-26 14:56:23.854,-288.0,-947.0,229.0,-1.0,-1.0,0.0,157,138,131,145,142
2025-02-26 14:56:23.861,-290.0,-948.0,229.0,-2.0,0.0,0.0,158,139,133,145,143
2025-02-26 14:56:23.867,-280.0,-947.0,225.0,-2.0,0.0,-1.0,157,136,130,144,140
2025-02-26 14:56:23.871,-284.0,-941.0,224.0,-2.0,0.0,-1.0,159,139,131,146,143
2025-02-26 14:56:23.875,-288.0,-943.0,226.0,-2.0,1.0,-1.0,157,138,130,145,142
2025-02-26 14:56:23.882,-286.0,-949.0,231.0,-2.0,1.0,-1.0,159,139,131,141,142
2025-02-26 14:56:23.887,-288.0,-946.0,219.0,-2.0,1.0,-1.0,159,140,131,145,142
2025-02-26 14:56:23.892,-289.0,-955.0,220.0,-1.0,2.0,-1.0,158,139,130,145,142
2025-02-26 14:56:23.895,-291.0,-956.0,215.0,-2.0,1.0,-1.0,159,139,132,146,143
2025-02-26 14:56:23.902,-295.0,-954.0,220.0,-1.0,2.0,-1.0,158,137,130,145,141
2025-02-26 14:56:23.905,-296.0,-955.0,207.0,-1.0,1.0,0.0,160,140,133,146,143
2025-02-26 14:56:23.911,-292.0,-955.0,216.0,-1.0,0.0,0.0,159,140,132,145,142
2025-02-26 14:56:23.914,-294.0,-950.0,213.0,-1.0,0.0,0.0,157,135,129,143,140
2025-02-26 14:56:23.914,-291.0,-951.0,217.0,-2.0,-1.0,0.0,157,137,130,143,141
2025-02-26 14:56:23.928,-289.0,-943.0,224.0,-1.0,0.0,0.0,159,140,133,147,144
2025-02-26 14:56:23.932,-292.0,-940.0,213.0,-2.0,-1.0,0.0,157,138,130,144,141
2025-02-26 14:56:23.936,-289.0,-939.0,211.0,-2.0,-1.0,0.0,156,136,128,142,140
2025-02-26 14:56:23.944,-295.0,-935.0,222.0,-3.0,0.0,-1.0,159,138,132,145,142
2025-02-26 14:56:23.949,-297.0,-941.0,208.0,-2.0,-1.0,0.0,160,139,132,146,143
2025-02-26 14:56:23.953,-290.0,-939.0,223.0,-2.0,0.0,-1.0,158,142,131,144,137
2025-02-26 14:56:23.957,-299.0,-935.0,213.0,-2.0,0.0,-1.0,156,137,128,143,140
2025-02-26 14:56:23.965,-305.0,-938.0,220.0,-1.0,1.0,-1.0,164,139,131,149,143
2025-02-26 14:56:23.969,-303.0,-944.0,208.0,-1.0,0.0,-1.0,159,139,133,145,143
2025-02-26 14:56:23.973,-295.0,-943.0,223.0,-1.0,-1.0,-1.0,157,137,129,145,141
2025-02-26 14:56:23.978,-304.0,-934.0,229.0,0.0,-1.0,-1.0,156,136,129,142,139
2025-02-26 14:56:23.985,-297.0,-935.0,213.0,0.0,0.0,-1.0,160,139,132,146,143
2025-02-26 14:56:23.990,-302.0,-939.0,212.0,0.0,-1.0,-1.0,160,139,131,147,143
2025-02-26 14:56:23.994,-296.0,-939.0,229.0,1.0,0.0,-1.0,156,137,129,143,140
2025-02-26 14:56:23.998,-296.0,-940.0,222.0,0.0,-1.0,-1.0,157,138,130,144,141
2025-02-26 14:56:24.006,-288.0,-940.0,227.0,0.0,0.0,-1.0,160,140,132,146,143
2025-02-26 14:56:24.007,-290.0,-937.0,228.0,0.0,0.0,-1.0,158,140,129,145,142
2025-02-26 14:56:24.014,-286.0,-941.0,227.0,-1.0,0.0,-1.0,156,137,129,144,140
2025-02-26 14:56:24.019,-293.0,-941.0,230.0,-1.0,0.0,-1.0,159,138,129,143,140
2025-02-26 14:56:24.026,-297.0,-942.0,232.0,-1.0,1.0,-1.0,160,139,131,147,143
2025-02-26 14:56:24.031,-292.0,-944.0,222.0,-1.0,0.0,-1.0,158,139,132,146,141
2025-02-26 14:56:24.035,-296.0,-944.0,227.0,-1.0,0.0,-1.0,156,138,128,143,140
2025-02-26 14:56:24.039,-298.0,-947.0,230.0,-1.0,0.0,0.0,162,142,135,149,145
2025-02-26 14:56:24.045,-292.0,-942.0,227.0,0.0,0.0,-1.0,159,140,132,145,143
2025-02-26 14:56:24.048,-294.0,-940.0,229.0,0.0,1.0,-1.0,158,136,129,144,141
2025-02-26 14:56:24.048,-293.0,-942.0,229.0,0.0,1.0,-1.0,156,137,129,143,140
2025-02-26 14:56:24.060,-294.0,-942.0,231.0,0.0,1.0,-1.0,162,142,134,148,145
2025-02-26 14:56:24.067,-294.0,-937.0,221.0,0.0,0.0,-1.0,159,138,130,144,141
2025-02-26 14:56:24.072,-290.0,-934.0,227.0,-1.0,1.0,-1.0,156,136,129,142,140
2025-02-26 14:56:24.076,-294.0,-935.0,226.0,-2.0,1.0,-1.0,160,139,131,144,141
2025-02-26 14:56:24.080,-290.0,-934.0,219.0,-2.0,0.0,-1.0,161,142,134,148,142
2025-02-26 14:56:24.086,-283.0,-932.0,220.0,-2.0,0.0,-1.0,160,140,133,146,142
2025-02-26 14:56:24.092,-291.0,-939.0,219.0,-3.0,0.0,-1.0,156,136,129,142,140
2025-02-26 14:56:24.096,-285.0,-941.0,228.0,-2.0,0.0,-1.0,160,140,133,146,142
2025-02-26 14:56:24.101,-291.0,-945.0,224.0,-2.0,1.0,-1.0,162,141,135,148,143
2025-02-26 14:56:24.108,-289.0,-947.0,215.0,-2.0,0.0,0.0,156,137,128,143,141
2025-02-26 14:56:24.111,-290.0,-942.0,219.0,-2.0,0.0,0.0,152,137,129,144,140
2025-02-26 14:56:24.116,-292.0,-945.0,224.0,-1.0,0.0,0.0,160,137,131,144,143
2025-02-26 14:56:24.117,-295.0,-945.0,213.0,-1.0,1.0,0.0,160,140,133,146,143
2025-02-26 14:56:24.117,-298.0,-939.0,202.0,0.0,1.0,0.0,157,137,128,143,141
2025-02-26 14:56:24.133,-301.0,-938.0,212.0,-1.0,0.0,0.0,159,139,131,146,143
2025-02-26 14:56:24.137,-301.0,-942.0,222.0,0.0,0.0,0.0,160,139,132,146,142
2025-02-26 14:56:24.141,-295.0,-946.0,213.0,0.0,0.0,0.0,157,138,132,144,142
2025-02-26 14:56:24.145,-296.0,-948.0,218.0,0.0,-1.0,0.0,157,137,131,144,140
2025-02-26 14:56:24.151,-293.0,-942.0,220.0,0.0,-2.0,-1.0,159,139,132,145,143
2025-02-26 14:56:24.157,-291.0,-943.0,234.0,0.0,-2.0,-1.0,157,140,133,145,142
2025-02-26 14:56:24.162,-288.0,-939.0,232.0,0.0,-1.0,-1.0,157,137,130,144,140
2025-02-26 14:56:24.166,-290.0,-939.0,227.0,2.0,-1.0,-1.0,158,139,133,144,143
2025-02-26 14:56:24.174,-294.0,-940.0,223.0,1.0,0.0,-2.0,159,139,134,145,142
2025-02-26 14:56:24.178,-296.0,-936.0,215.0,1.0,-1.0,-2.0,155,136,129,141,140
2025-02-26 14:56:24.182,-280.0,-952.0,192.0,0.0,-2.0,-1.0,158,138,131,144,141
2025-02-26 14:56:24.186,-297.0,-937.0,248.0,0.0,-2.0,-2.0,159,140,136,146,144
2025-02-26 14:56:24.194,-318.0,-949.0,245.0,5.0,-2.0,-1.0,157,139,132,146,143
2025-02-26 14:56:24.199,-295.0,-952.0,205.0,2.0,-4.0,-1.0,157,137,128,143,140
2025-02-26 14:56:24.203,-288.0,-944.0,238.0,-2.0,1.0,-1.0,156,135,130,144,140
2025-02-26 14:56:24.207,-317.0,-935.0,232.0,3.0,0.0,0.0,160,140,134,147,144
2025-02-26 14:56:24.215,-307.0,-959.0,244.0,3.0,1.0,-1.0,158,140,130,146,144
2025-02-26 14:56:24.219,-293.0,-944.0,242.0,1.0,1.0,-1.0,156,137,130,144,141
2025-02-26 14:56:24.224,-307.0,-955.0,230.0,-3.0,1.0,0.0,160,142,133,147,145
2025-02-26 14:56:24.227,-305.0,-946.0,262.0,-1.0,2.0,0.0,161,141,133,147,146
2025-02-26 14:56:24.235,-311.0,-958.0,218.0,-3.0,1.0,0.0,157,138,136,143,140
2025-02-26 14:56:24.239,-292.0,-949.0,278.0,-2.0,0.0,0.0,157,136,129,142,140
2025-02-26 14:56:24.242,-294.0,-941.0,262.0,-2.0,2.0,0.0,162,140,133,147,145
2025-02-26 14:56:24.248,-295.0,-955.0,227.0,-4.0,-1.0,1.0,160,141,133,143,143
2025-02-26 14:56:24.252,-285.0,-934.0,290.0,0.0,2.0,2.0,159,136,128,143,141
2025-02-26 14:56:24.260,-297.0,-942.0,255.0,-1.0,2.0,2.0,160,140,133,147,145
2025-02-26 14:56:24.264,-286.0,-938.0,271.0,-1.0,4.0,3.0,158,140,132,144,143
2025-02-26 14:56:24.268,-287.0,-943.0,248.0,-2.0,4.0,5.0,158,138,134,145,142
2025-02-26 14:56:24.272,-254.0,-935.0,266.0,-6.0,3.0,6.0,155,137,131,143,140
2025-02-26 14:56:24.279,-287.0,-947.0,255.0,-9.0,2.0,7.0,158,139,131,146,144
2025-02-26 14:56:24.285,-300.0,-936.0,219.0,-11.0,1.0,6.0,161,139,132,146,143
2025-02-26 14:56:24.289,-295.0,-954.0,207.0,-12.0,0.0,6.0,158,137,129,143,141
2025-02-26 14:56:24.293,-313.0,-970.0,183.0,-9.0,-1.0,6.0,159,139,132,145,143
2025-02-26 14:56:24.301,-320.0,-996.0,184.0,-8.0,-3.0,5.0,159,139,131,145,143
2025-02-26 14:56:24.302,-306.0,-990.0,199.0,-6.0,-4.0,5.0,158,138,130,142,142
2025-02-26 14:56:24.309,-311.0,-998.0,223.0,-3.0,-5.0,5.0,157,137,128,143,141
2025-02-26 14:56:24.314,-297.0,-993.0,233.0,-1.0,-5.0,4.0,159,138,130,145,144
2025-02-26 14:56:24.321,-289.0,-990.0,237.0,-1.0,-4.0,3.0,163,139,133,148,146
2025-02-26 14:56:24.324,-278.0,-977.0,227.0,1.0,-4.0,3.0,160,137,128,142,142
2025-02-26 14:56:24.330,-276.0,-973.0,226.0,3.0,-2.0,3.0,155,135,127,140,140
2025-02-26 14:56:24.333,-276.0,-971.0,233.0,2.0,0.0,3.0,160,139,131,145,143
2025-02-26 14:56:24.336,-278.0,-959.0,231.0,1.0,2.0,4.0,161,141,134,146,146
2025-02-26 14:56:24.346,-279.0,-959.0,241.0,0.0,3.0,4.0,158,137,128,142,143
2025-02-26 14:56:24.350,-280.0,-955.0,233.0,-1.0,4.0,5.0,160,139,130,145,143
2025-02-26 14:56:24.354,-282.0,-947.0,233.0,-2.0,4.0,4.0,156,138,129,144,143
2025-02-26 14:56:24.362,-283.0,-942.0,230.0,-2.0,4.0,4.0,159,139,132,146,144
2025-02-26 14:56:24.366,-292.0,-948.0,230.0,-1.0,5.0,4.0,159,140,131,145,144
2025-02-26 14:56:24.370,-292.0,-927.0,229.0,0.0,5.0,4.0,158,138,131,145,144
2025-02-26 14:56:24.374,-292.0,-934.0,239.0,2.0,5.0,3.0,156,135,128,142,142
2025-02-26 14:56:24.379,-294.0,-939.0,228.0,3.0,6.0,3.0,159,136,130,144,144
2025-02-26 14:56:24.387,-299.0,-929.0,229.0,3.0,7.0,3.0,160,139,132,145,144
2025-02-26 14:56:24.391,-302.0,-933.0,236.0,3.0,8.0,2.0,157,137,129,142,142
2025-02-26 14:56:24.395,-305.0,-934.0,234.0,3.0,8.0,2.0,156,136,125,141,140
2025-02-26 14:56:24.400,-303.0,-935.0,240.0,1.0,8.0,2.0,162,141,134,147,145
2025-02-26 14:56:24.404,-304.0,-940.0,230.0,1.0,8.0,2.0,160,139,131,144,143
2025-02-26 14:56:24.411,-307.0,-950.0,229.0,-1.0,8.0,2.0,157,136,127,142,140
2025-02-26 14:56:24.415,-302.0,-943.0,243.0,-3.0,8.0,1.0,158,139,131,144,143
2025-02-26 14:56:24.417,-314.0,-946.0,239.0,-3.0,8.0,1.0,160,141,133,147,146
2025-02-26 14:56:24.424,-308.0,-943.0,234.0,-4.0,8.0,1.0,157,138,130,143,143
2025-02-26 14:56:24.432,-306.0,-937.0,234.0,-2.0,10.0,1.0,160,139,131,144,145
2025-02-26 14:56:24.435,-301.0,-939.0,223.0,-5.0,9.0,1.0,158,139,131,143,144
2025-02-26 14:56:24.440,-299.0,-932.0,230.0,-3.0,9.0,0.0,160,139,130,146,145
2025-02-26 14:56:24.442,-311.0,-939.0,226.0,0.0,8.0,0.0,157,136,130,143,143
2025-02-26 14:56:24.451,-302.0,-940.0,218.0,0.0,6.0,0.0,161,138,131,146,145
2025-02-26 14:56:24.451,-293.0,-928.0,241.0,-1.0,8.0,0.0,160,138,131,145,145
2025-02-26 14:56:24.460,-303.0,-932.0,216.0,-4.0,7.0,1.0,159,140,133,146,146
2025-02-26 14:56:24.463,-303.0,-916.0,226.0,-6.0,6.0,1.0,163,140,134,147,146
2025-02-26 14:56:24.472,-306.0,-925.0,225.0,-6.0,5.0,1.0,160,140,132,146,145
2025-02-26 14:56:24.473,-308.0,-929.0,218.0,-7.0,4.0,2.0,158,136,129,145,142
2025-02-26 14:56:24.481,-307.0,-928.0,229.0,-9.0,7.0,1.0,162,141,132,145,144
2025-02-26 14:56:24.485,-309.0,-926.0,220.0,-11.0,7.0,1.0,162,141,134,147,144
2025-02-26 14:56:24.493,-310.0,-938.0,217.0,-10.0,5.0,1.0,159,139,131,145,144
2025-02-26 14:56:24.493,-322.0,-945.0,216.0,-8.0,4.0,2.0,155,136,127,140,140
2025-02-26 14:56:24.501,-318.0,-950.0,220.0,-7.0,3.0,2.0,161,140,133,147,147
2025-02-26 14:56:24.505,-315.0,-949.0,223.0,-8.0,4.0,2.0,159,139,130,145,145
2025-02-26 14:56:24.510,-318.0,-945.0,231.0,-9.0,4.0,2.0,157,135,127,142,140
2025-02-26 14:56:24.518,-316.0,-947.0,229.0,-8.0,6.0,2.0,154,134,124,141,140
2025-02-26 14:56:24.522,-320.0,-946.0,218.0,-7.0,6.0,2.0,161,141,132,146,145
2025-02-26 14:56:24.523,-322.0,-948.0,221.0,-7.0,7.0,1.0,157,138,130,144,143
2025-02-26 14:56:24.530,-318.0,-943.0,199.0,-6.0,6.0,1.0,154,135,127,141,140
2025-02-26 14:56:24.534,-322.0,-942.0,220.0,-6.0,7.0,1.0,158,138,130,143,143
2025-02-26 14:56:24.542,-325.0,-931.0,223.0,-5.0,8.0,1.0,159,138,132,145,144
2025-02-26 14:56:24.547,-325.0,-945.0,200.0,-3.0,9.0,1.0,157,136,129,143,141
2025-02-26 14:56:24.550,-337.0,-936.0,236.0,-3.0,12.0,2.0,156,134,127,141,140
2025-02-26 14:56:24.554,-353.0,-941.0,203.0,-3.0,10.0,2.0,161,137,129,144,143
2025-02-26 14:56:24.562,-342.0,-934.0,186.0,-3.0,8.0,2.0,159,137,129,144,143
2025-02-26 14:56:24.566,-346.0,-929.0,199.0,-4.0,9.0,2.0,154,135,127,141,141
2025-02-26 14:56:24.571,-351.0,-936.0,202.0,-7.0,7.0,2.0,159,138,130,143,142
2025-02-26 14:56:24.572,-331.0,-917.0,199.0,-5.0,6.0,1.0,158,137,131,144,143
2025-02-26 14:56:24.583,-322.0,-905.0,204.0,-5.0,6.0,1.0,157,137,130,143,141
2025-02-26 14:56:24.587,-323.0,-903.0,190.0,-5.0,6.0,1.0,156,136,128,141,139
2025-02-26 14:56:24.591,-321.0,-904.0,187.0,-4.0,6.0,0.0,158,139,134,143,143
2025-02-26 14:56:24.596,-327.0,-899.0,181.0,-4.0,6.0,-1.0,157,140,133,144,143
2025-02-26 14:56:24.603,-324.0,-906.0,181.0,-5.0,5.0,-2.0,154,136,129,139,142
2025-02-26 14:56:24.603,-318.0,-900.0,197.0,-4.0,7.0,-2.0,160,139,132,145,145
2025-02-26 14:56:24.612,-331.0,-912.0,185.0,-4.0,5.0,-2.0,159,139,130,144,144
2025-02-26 14:56:24.614,-332.0,-924.0,186.0,-5.0,4.0,-2.0,158,139,132,144,144
2025-02-26 14:56:24.624,-330.0,-926.0,172.0,-5.0,3.0,-2.0,156,137,131,142,141
2025-02-26 14:56:24.627,-330.0,-926.0,167.0,-6.0,0.0,-2.0,160,140,132,145,144
2025-02-26 14:56:24.627,-331.0,-932.0,175.0,-7.0,-2.0,-2.0,161,140,132,142,144
2025-02-26 14:56:24.639,-327.0,-929.0,173.0,-8.0,-3.0,-2.0,157,138,130,144,143
2025-02-26 14:56:24.639,-322.0,-929.0,173.0,-8.0,-4.0,-3.0,156,138,129,143,142
2025-02-26 14:56:24.649,-326.0,-936.0,193.0,-9.0,-4.0,-3.0,160,140,132,144,144
2025-02-26 14:56:24.651,-327.0,-931.0,188.0,-8.0,-3.0,-4.0,159,139,131,145,143
2025-02-26 14:56:24.661,-329.0,-939.0,182.0,-9.0,-3.0,-5.0,158,137,131,145,143
2025-02-26 14:56:24.663,-330.0,-936.0,178.0,-9.0,-3.0,-5.0,157,137,130,142,141
2025-02-26 14:56:24.669,-327.0,-934.0,172.0,-8.0,-3.0,-6.0,155,137,129,143,141
2025-02-26 14:56:24.674,-330.0,-929.0,171.0,-8.0,-2.0,-6.0,157,139,131,144,143
2025-02-26 14:56:24.681,-328.0,-931.0,177.0,-7.0,-2.0,-6.0,162,141,134,147,145
2025-02-26 14:56:24.681,-325.0,-936.0,183.0,-7.0,-2.0,-6.0,156,138,130,143,143
2025-02-26 14:56:24.689,-325.0,-933.0,178.0,-6.0,-2.0,-6.0,156,138,129,144,143
2025-02-26 14:56:24.693,-319.0,-934.0,182.0,-5.0,-1.0,-5.0,158,140,132,145,145
2025-02-26 14:56:24.702,-323.0,-937.0,186.0,-4.0,-1.0,-4.0,162,141,134,146,147
2025-02-26 14:56:24.705,-311.0,-937.0,186.0,-4.0,0.0,-4.0,157,138,132,143,143
2025-02-26 14:56:24.710,-306.0,-938.0,186.0,-3.0,1.0,-3.0,157,138,128,143,142
2025-02-26 14:56:24.715,-298.0,-938.0,183.0,-3.0,2.0,-3.0,160,140,132,144,144
2025-02-26 14:56:24.722,-288.0,-945.0,183.0,-2.0,3.0,-3.0,161,139,133,146,145
2025-02-26 14:56:24.727,-295.0,-945.0,186.0,-2.0,4.0,-3.0,157,138,131,143,143
2025-02-26 14:56:24.732,-293.0,-947.0,187.0,-2.0,5.0,-3.0,156,138,128,144,143
2025-02-26 14:56:24.736,-290.0,-951.0,177.0,-1.0,4.0,-4.0,158,141,133,147,144
2025-02-26 14:56:24.742,-296.0,-959.0,176.0,-1.0,4.0,-4.0,160,140,130,145,145
2025-02-26 14:56:24.742,-293.0,-958.0,176.0,1.0,4.0,-4.0,158,139,131,144,143
2025-02-26 14:56:24.742,-300.0,-957.0,161.0,0.0,2.0,-4.0,155,136,135,141,141
2025-02-26 14:56:24.757,-303.0,-958.0,165.0,4.0,2.0,-4.0,158,140,128,145,145
2025-02-26 14:56:24.757,-305.0,-964.0,164.0,4.0,1.0,-4.0,161,141,132,146,146
2025-02-26 14:56:24.757,-299.0,-953.0,180.0,3.0,2.0,-4.0,156,139,130,143,142
2025-02-26 14:56:24.757,-296.0,-954.0,167.0,3.0,3.0,-4.0,160,140,131,145,145
2025-02-26 14:56:24.773,-304.0,-955.0,169.0,4.0,1.0,-4.0,159,142,133,145,145
2025-02-26 14:56:24.773,-301.0,-955.0,162.0,4.0,0.0,-3.0,158,140,132,144,143
2025-02-26 14:56:24.773,-296.0,-953.0,160.0,3.0,-1.0,-3.0,158,139,131,143,143
2025-02-26 14:56:24.791,-292.0,-948.0,172.0,0.0,-2.0,-3.0,160,142,132,146,145
2025-02-26 14:56:24.791,-298.0,-946.0,179.0,0.0,-2.0,-3.0,159,140,130,145,145
2025-02-26 14:56:24.805,-293.0,-953.0,182.0,0.0,-3.0,-3.0,158,139,130,145,143
2025-02-26 14:56:24.808,-295.0,-952.0,185.0,-1.0,-3.0,-2.0,160,140,134,144,146
2025-02-26 14:56:24.813,-300.0,-941.0,183.0,-1.0,-3.0,-2.0,160,141,132,146,145
2025-02-26 14:56:24.821,-303.0,-948.0,189.0,-1.0,-2.0,-1.0,158,140,132,145,145
2025-02-26 14:56:24.821,-308.0,-947.0,187.0,-1.0,-2.0,0.0,158,140,132,144,143
2025-02-26 14:56:24.821,-309.0,-950.0,188.0,-2.0,-2.0,0.0,156,138,130,142,143
2025-02-26 14:56:24.833,-315.0,-955.0,193.0,-2.0,-2.0,1.0,161,141,127,146,145
2025-02-26 14:56:24.837,-314.0,-949.0,195.0,-1.0,-2.0,1.0,163,143,135,149,147
2025-02-26 14:56:24.845,-318.0,-949.0,180.0,-5.0,-5.0,0.0,157,138,130,142,144
2025-02-26 14:56:24.849,-313.0,-936.0,193.0,-2.0,-5.0,0.0,161,143,134,146,146
2025-02-26 14:56:24.854,-322.0,-955.0,171.0,-1.0,-8.0,0.0,160,140,133,145,146
2025-02-26 14:56:24.857,-312.0,-950.0,209.0,-2.0,-5.0,-1.0,161,143,135,148,148
2025-02-26 14:56:24.866,-309.0,-937.0,183.0,-3.0,-3.0,-2.0,158,139,131,143,143
2025-02-26 14:56:24.869,-316.0,-942.0,211.0,0.0,0.0,-2.0,162,143,137,150,147
2025-02-26 14:56:24.869,-318.0,-940.0,206.0,3.0,1.0,-3.0,163,144,135,150,150
2025-02-26 14:56:24.881,-307.0,-952.0,205.0,0.0,1.0,-3.0,163,145,137,149,150
2025-02-26 14:56:24.881,-315.0,-935.0,173.0,-3.0,1.0,-4.0,161,144,135,149,148
2025-02-26 14:56:24.891,-327.0,-947.0,204.0,-3.0,-1.0,-3.0,163,145,137,150,150
2025-02-26 14:56:24.893,-323.0,-944.0,191.0,-3.0,-3.0,-3.0,164,145,137,149,149
2025-02-26 14:56:24.902,-320.0,-946.0,201.0,-4.0,-3.0,-4.0,162,145,136,150,149
2025-02-26 14:56:24.907,-333.0,-943.0,190.0,-5.0,-2.0,-4.0,161,143,136,148,148
2025-02-26 14:56:24.911,-337.0,-935.0,213.0,-6.0,0.0,-4.0,164,146,133,149,150
2025-02-26 14:56:24.918,-324.0,-942.0,199.0,-2.0,-1.0,-5.0,162,145,138,148,149
2025-02-26 14:56:24.923,-316.0,-942.0,203.0,-3.0,1.0,-5.0,162,142,136,151,150
2025-02-26 14:56:24.928,-314.0,-932.0,172.0,-3.0,1.0,-5.0,159,144,136,148,147
2025-02-26 14:56:24.932,-322.0,-954.0,195.0,-5.0,0.0,-4.0,162,147,138,149,149
2025-02-26 14:56:24.936,-330.0,-959.0,212.0,-5.0,1.0,-4.0,163,144,137,150,150
2025-02-26 14:56:24.944,-327.0,-955.0,184.0,-5.0,-1.0,-3.0,161,143,137,149,149
2025-02-26 14:56:24.948,-316.0,-953.0,175.0,-5.0,-2.0,-2.0,160,142,136,147,148
2025-02-26 14:56:24.952,-334.0,-952.0,169.0,-6.0,-2.0,-2.0,164,147,137,148,150
2025-02-26 14:56:24.955,-330.0,-955.0,159.0,-6.0,-3.0,-2.0,164,146,137,149,150
2025-02-26 14:56:24.964,-315.0,-955.0,170.0,-7.0,-4.0,-2.0,165,146,138,150,151
2025-02-26 14:56:24.966,-312.0,-954.0,208.0,-8.0,-3.0,-2.0,161,142,135,146,146
2025-02-26 14:56:24.966,-322.0,-956.0,176.0,-4.0,-5.0,-2.0,161,145,136,148,147
2025-02-26 14:56:24.980,-305.0,-969.0,170.0,-5.0,-4.0,-1.0,168,149,141,153,153
2025-02-26 14:56:24.985,-301.0,-954.0,171.0,-6.0,-3.0,-1.0,164,146,140,150,149
2025-02-26 14:56:24.987,-300.0,-954.0,207.0,-2.0,-2.0,0.0,162,141,133,147,148
2025-02-26 14:56:24.997,-293.0,-956.0,180.0,-4.0,-3.0,0.0,158,140,133,146,146
2025-02-26 14:56:24.997,-281.0,-947.0,203.0,-5.0,-1.0,1.0,166,147,140,153,153
2025-02-26 14:56:25.005,-283.0,-953.0,157.0,-9.0,-3.0,1.0,164,144,136,149,149
2025-02-26 14:56:25.009,-288.0,-948.0,204.0,-8.0,-3.0,2.0,160,141,136,147,147
2025-02-26 14:56:25.009,-292.0,-963.0,186.0,-10.0,-3.0,2.0,160,144,135,148,147
2025-02-26 14:56:25.020,-282.0,-938.0,188.0,-8.0,-2.0,2.0,167,147,138,152,151
2025-02-26 14:56:25.026,-286.0,-943.0,186.0,-9.0,-1.0,2.0,163,144,137,149,148
2025-02-26 14:56:25.026,-295.0,-937.0,187.0,-6.0,-1.0,2.0,160,142,134,147,147
2025-02-26 14:56:25.038,-284.0,-939.0,190.0,-2.0,-2.0,2.0,162,144,136,148,148
2025-02-26 14:56:25.042,-294.0,-933.0,176.0,0.0,-3.0,2.0,167,148,138,152,152
2025-02-26 14:56:25.047,-301.0,-936.0,182.0,-1.0,-4.0,2.0,161,141,132,144,146
2025-02-26 14:56:25.051,-289.0,-917.0,194.0,-1.0,-6.0,1.0,156,137,128,142,147
2025-02-26 14:56:25.055,-288.0,-916.0,213.0,-1.0,-4.0,1.0,158,140,133,144,144
2025-02-26 14:56:25.062,-281.0,-918.0,214.0,-1.0,-4.0,0.0,157,143,133,141,145
2025-02-26 14:56:25.064,-290.0,-917.0,185.0,-4.0,-3.0,-1.0,157,139,131,145,143
2025-02-26 14:56:25.075,-274.0,-917.0,208.0,-5.0,-3.0,-2.0,156,137,128,139,139
2025-02-26 14:56:25.075,-280.0,-914.0,205.0,-6.0,-4.0,-3.0,159,140,132,144,145
2025-02-26 14:56:25.083,-280.0,-916.0,225.0,-5.0,-3.0,-3.0,157,139,132,144,146
2025-02-26 14:56:25.087,-281.0,-916.0,208.0,-5.0,-3.0,-3.0,155,138,132,142,142
2025-02-26 14:56:25.095,-280.0,-928.0,214.0,-3.0,-3.0,-3.0,153,137,129,141,140
2025-02-26 14:56:25.096,-284.0,-937.0,217.0,-1.0,-2.0,-3.0,154,136,128,140,140
2025-02-26 14:56:25.096,-296.0,-938.0,215.0,1.0,-3.0,-3.0,157,138,131,143,142
2025-02-26 14:56:25.108,-288.0,-949.0,220.0,-1.0,-5.0,-3.0,157,136,129,142,142
2025-02-26 14:56:25.116,-312.0,-925.0,224.0,-4.0,-3.0,-3.0,154,134,127,139,140
2025-02-26 14:56:25.120,-288.0,-949.0,260.0,1.0,0.0,-2.0,154,135,129,142,142
2025-02-26 14:56:25.124,-325.0,-959.0,220.0,-3.0,2.0,-3.0,157,137,131,142,141
2025-02-26 14:56:25.125,-304.0,-931.0,211.0,0.0,3.0,-3.0,155,136,128,142,140
2025-02-26 14:56:25.136,-321.0,-970.0,186.0,4.0,1.0,-3.0,152,135,126,140,139
2025-02-26 14:56:25.136,-329.0,-964.0,229.0,-1.0,0.0,-3.0,158,140,133,146,144
2025-02-26 14:56:25.144,-321.0,-940.0,230.0,2.0,2.0,-4.0,156,137,129,145,141
2025-02-26 14:56:25.149,-332.0,-952.0,211.0,4.0,4.0,-3.0,154,134,128,141,140
2025-02-26 14:56:25.156,-320.0,-949.0,237.0,3.0,5.0,-3.0,153,134,125,139,139
2025-02-26 14:56:25.158,-316.0,-945.0,223.0,4.0,5.0,-3.0,157,140,131,144,145
2025-02-26 14:56:25.165,-310.0,-968.0,215.0,4.0,3.0,-2.0,158,138,128,144,142
2025-02-26 14:56:25.170,-296.0,-955.0,232.0,0.0,4.0,-2.0,155,135,129,142,140
2025-02-26 14:56:25.176,-295.0,-952.0,214.0,-1.0,5.0,-2.0,157,138,132,144,141
2025-02-26 14:56:25.178,-283.0,-964.0,196.0,-1.0,4.0,-2.0,159,142,132,146,143
2025-02-26 14:56:25.178,-284.0,-970.0,203.0,-1.0,5.0,-1.0,156,136,129,141,141
2025-02-26 14:56:25.178,-281.0,-974.0,195.0,-3.0,6.0,-1.0,155,135,128,141,139
2025-02-26 14:56:25.197,-272.0,-974.0,190.0,-3.0,6.0,0.0,158,137,135,142,141
2025-02-26 14:56:25.197,-268.0,-980.0,185.0,-3.0,5.0,1.0,160,138,130,144,143
2025-02-26 14:56:25.197,-262.0,-980.0,175.0,-5.0,4.0,1.0,155,135,128,141,139
2025-02-26 14:56:25.211,-267.0,-984.0,187.0,-5.0,3.0,1.0,153,133,126,140,138
2025-02-26 14:56:25.218,-269.0,-983.0,176.0,-5.0,2.0,2.0,155,137,129,142,140
2025-02-26 14:56:25.221,-267.0,-973.0,187.0,-5.0,2.0,2.0,157,137,130,143,141
2025-02-26 14:56:25.227,-274.0,-981.0,182.0,-8.0,3.0,1.0,159,138,129,144,143
2025-02-26 14:56:25.231,-256.0,-951.0,165.0,-9.0,4.0,1.0,159,140,132,145,144
2025-02-26 14:56:25.231,-272.0,-963.0,151.0,-9.0,3.0,1.0,159,139,132,145,145
2025-02-26 14:56:25.243,-271.0,-961.0,154.0,-11.0,1.0,1.0,160,142,134,145,144
2025-02-26 14:56:25.247,-271.0,-953.0,153.0,-12.0,-1.0,1.0,168,149,139,152,151
2025-02-26 14:56:25.251,-277.0,-961.0,145.0,-12.0,-3.0,1.0,165,145,136,149,149
2025-02-26 14:56:25.259,-286.0,-970.0,168.0,-12.0,-3.0,2.0,163,144,135,148,146
2025-02-26 14:56:25.259,-288.0,-971.0,187.0,-11.0,-2.0,2.0,163,147,135,150,146
2025-02-26 14:56:25.267,-288.0,-980.0,156.0,-9.0,-1.0,2.0,164,145,136,150,149
2025-02-26 14:56:25.269,-300.0,-992.0,154.0,-6.0,-2.0,2.0,167,149,140,152,153
2025-02-26 14:56:25.280,-299.0,-997.0,164.0,-8.0,-1.0,3.0,166,145,137,152,151
2025-02-26 14:56:25.280,-285.0,-983.0,176.0,-8.0,-1.0,4.0,166,144,138,153,148
2025-02-26 14:56:25.287,-297.0,-998.0,169.0,-5.0,-1.0,4.0,164,144,136,150,150
2025-02-26 14:56:25.292,-310.0,-1005.0,166.0,-6.0,-1.0,4.0,165,147,141,151,152
2025-02-26 14:56:25.299,-305.0,-991.0,178.0,-6.0,1.0,4.0,167,147,141,152,151
2025-02-26 14:56:25.299,-307.0,-1000.0,174.0,-4.0,1.0,4.0,169,149,143,156,153
2025-02-26 14:56:25.308,-320.0,-1003.0,187.0,-6.0,0.0,4.0,170,150,144,155,154
2025-02-26 14:56:25.311,-314.0,-979.0,198.0,-3.0,2.0,5.0,175,156,148,163,161
2025-02-26 14:56:25.311,-323.0,-1000.0,211.0,-4.0,5.0,5.0,183,164,157,170,168
2025-02-26 14:56:25.323,-328.0,-986.0,204.0,-3.0,6.0,5.0,192,173,165,179,178
2025-02-26 14:56:25.329,-326.0,-995.0,178.0,-2.0,7.0,5.0,211,192,185,198,197
2025-02-26 14:56:25.333,-344.0,-991.0,175.0,-1.0,8.0,6.0,206,187,179,193,191
2025-02-26 14:56:25.336,-345.0,-991.0,183.0,-2.0,8.0,6.0,207,188,181,192,192
2025-02-26 14:56:25.345,-351.0,-988.0,197.0,-1.0,8.0,7.0,205,185,177,190,188
2025-02-26 14:56:25.348,-355.0,-980.0,189.0,-2.0,10.0,7.0,209,190,183,196,200
2025-02-26 14:56:25.354,-357.0,-965.0,185.0,-2.0,11.0,7.0,233,215,208,220,220
2025-02-26 14:56:25.358,-360.0,-959.0,157.0,-1.0,11.0,8.0,222,203,195,209,207
2025-02-26 14:56:25.365,-362.0,-952.0,153.0,-5.0,10.0,8.0,222,202,196,206,206
2025-02-26 14:56:25.370,-361.0,-939.0,165.0,-6.0,10.0,8.0,217,197,192,204,203
2025-02-26 14:56:25.374,-363.0,-924.0,141.0,-6.0,9.0,8.0,219,201,194,208,206
2025-02-26 14:56:25.378,-363.0,-925.0,182.0,-9.0,9.0,7.0,223,205,199,209,210
2025-02-26 14:56:25.386,-365.0,-915.0,147.0,-9.0,13.0,7.0,224,206,199,213,212
2025-02-26 14:56:25.390,-381.0,-925.0,142.0,-11.0,13.0,5.0,221,201,196,209,208
2025-02-26 14:56:25.392,-385.0,-915.0,146.0,-14.0,14.0,5.0,216,197,190,203,202
2025-02-26 14:56:25.402,-394.0,-932.0,126.0,-12.0,12.0,4.0,221,201,195,208,206
2025-02-26 14:56:25.402,-404.0,-927.0,149.0,-15.0,9.0,4.0,224,203,197,210,209
2025-02-26 14:56:25.411,-392.0,-920.0,137.0,-12.0,9.0,3.0,222,203,196,210,208
2025-02-26 14:56:25.415,-396.0,-926.0,136.0,-12.0,9.0,2.0,215,194,189,201,200
2025-02-26 14:56:25.415,-382.0,-927.0,132.0,-11.0,7.0,3.0,216,198,191,202,203
2025-02-26 14:56:25.426,-387.0,-926.0,144.0,-12.0,7.0,3.0,221,202,197,210,209
2025-02-26 14:56:25.431,-364.0,-930.0,141.0,-9.0,5.0,4.0,219,199,194,207,205
2025-02-26 14:56:25.436,-364.0,-935.0,153.0,-9.0,5.0,5.0,212,193,188,199,199
2025-02-26 14:56:25.443,-357.0,-921.0,144.0,-10.0,4.0,5.0,218,196,191,203,204
2025-02-26 14:56:25.447,-346.0,-896.0,148.0,-10.0,3.0,5.0,221,202,195,208,209
2025-02-26 14:56:25.451,-353.0,-892.0,155.0,-12.0,4.0,5.0,219,197,192,202,206
2025-02-26 14:56:25.456,-352.0,-891.0,92.0,-13.0,2.0,4.0,212,191,185,198,198
2025-02-26 14:56:25.460,-359.0,-893.0,114.0,-15.0,1.0,4.0,223,200,199,209,208
2025-02-26 14:56:25.468,-361.0,-904.0,149.0,-18.0,6.0,4.0,219,197,193,206,206
2025-02-26 14:56:25.472,-355.0,-906.0,124.0,-18.0,6.0,5.0,209,190,186,199,199
2025-02-26 14:56:25.472,-354.0,-926.0,134.0,-17.0,5.0,5.0,209,187,182,195,195
2025-02-26 14:56:25.481,-353.0,-934.0,120.0,-16.0,6.0,5.0,219,196,192,204,204
2025-02-26 14:56:25.488,-347.0,-936.0,106.0,-15.0,3.0,5.0,218,195,191,204,204
2025-02-26 14:56:25.493,-341.0,-927.0,118.0,-14.0,3.0,5.0,210,186,183,196,195
2025-02-26 14:56:25.497,-344.0,-935.0,132.0,-10.0,4.0,5.0,210,185,183,195,196
2025-02-26 14:56:25.501,-349.0,-936.0,131.0,-9.0,5.0,5.0,216,194,190,204,204
2025-02-26 14:56:25.508,-334.0,-926.0,125.0,-7.0,7.0,4.0,216,190,189,201,200
2025-02-26 14:56:25.514,-338.0,-919.0,125.0,-6.0,8.0,4.0,208,184,181,194,194
2025-02-26 14:56:25.518,-346.0,-925.0,124.0,-4.0,11.0,4.0,212,185,184,196,198
2025-02-26 14:56:25.525,-343.0,-926.0,97.0,-6.0,10.0,4.0,216,190,187,202,202
2025-02-26 14:56:25.530,-338.0,-918.0,130.0,-6.0,12.0,3.0,212,185,184,197,198
2025-02-26 14:56:25.532,-345.0,-931.0,101.0,-4.0,11.0,3.0,207,181,180,194,194
2025-02-26 14:56:25.538,-355.0,-929.0,121.0,-5.0,11.0,3.0,218,194,191,204,206
2025-02-26 14:56:25.544,-343.0,-919.0,112.0,-4.0,11.0,3.0,218,193,188,203,204
2025-02-26 14:56:25.550,-349.0,-928.0,105.0,-3.0,10.0,3.0,209,183,182,195,196
2025-02-26 14:56:25.554,-340.0,-941.0,116.0,-4.0,11.0,4.0,210,183,180,195,197
2025-02-26 14:56:25.558,-342.0,-925.0,128.0,-3.0,10.0,4.0,222,196,194,207,208
2025-02-26 14:56:25.566,-333.0,-929.0,116.0,-2.0,9.0,4.0,216,190,189,203,202
2025-02-26 14:56:25.569,-341.0,-922.0,131.0,-3.0,8.0,4.0,210,184,181,195,195
2025-02-26 14:56:25.575,-328.0,-925.0,132.0,-2.0,9.0,5.0,206,181,179,190,193
2025-02-26 14:56:25.579,-339.0,-937.0,136.0,-3.0,9.0,5.0,219,196,195,208,208
2025-02-26 14:56:25.587,-332.0,-933.0,147.0,-3.0,8.0,4.0,214,189,187,201,201
2025-02-26 14:56:25.591,-337.0,-939.0,146.0,-2.0,9.0,4.0,208,183,181,195,195
2025-02-26 14:56:25.593,-353.0,-949.0,143.0,-2.0,9.0,3.0,216,192,190,204,203
2025-02-26 14:56:25.599,-348.0,-939.0,113.0,-1.0,7.0,2.0,217,192,188,203,203
2025-02-26 14:56:25.607,-348.0,-945.0,131.0,-3.0,7.0,1.0,205,179,176,191,191
2025-02-26 14:56:25.611,-346.0,-937.0,127.0,-2.0,7.0,1.0,204,177,176,191,190
2025-02-26 14:56:25.615,-365.0,-944.0,118.0,-4.0,4.0,0.0,208,183,180,194,195
2025-02-26 14:56:25.620,-355.0,-929.0,155.0,-4.0,4.0,-1.0,211,185,181,194,196
2025-02-26 14:56:25.624,-370.0,-939.0,139.0,-3.0,3.0,-1.0,202,176,173,188,188
2025-02-26 14:56:25.629,-363.0,-942.0,122.0,-5.0,3.0,-1.0,207,181,177,190,192
2025-02-26 14:56:25.636,-367.0,-939.0,149.0,-8.0,3.0,-1.0,206,181,178,193,193
2025-02-26 14:56:25.641,-363.0,-937.0,133.0,-5.0,1.0,-1.0,203,178,173,187,189
2025-02-26 14:56:25.648,-368.0,-942.0,123.0,-9.0,0.0,-1.0,200,174,172,185,186
2025-02-26 14:56:25.652,-358.0,-954.0,133.0,-11.0,-1.0,-1.0,203,177,174,189,190
2025-02-26 14:56:25.656,-350.0,-953.0,132.0,-10.0,-1.0,-2.0,203,177,174,189,189
2025-02-26 14:56:25.660,-353.0,-952.0,145.0,-10.0,-1.0,-2.0,204,185,177,190,193
2025-02-26 14:56:25.668,-343.0,-960.0,165.0,-15.0,1.0,-2.0,199,172,172,184,186
2025-02-26 14:56:25.671,-346.0,-953.0,144.0,-14.0,3.0,-2.0,198,172,169,183,184
2025-02-26 14:56:25.677,-341.0,-957.0,143.0,-15.0,1.0,-2.0,201,176,172,184,187
2025-02-26 14:56:25.685,-327.0,-946.0,172.0,-18.0,3.0,-2.0,201,176,173,187,187
2025-02-26 14:56:25.689,-356.0,-965.0,147.0,-16.0,2.0,-1.0,198,173,169,182,181
2025-02-26 14:56:25.693,-340.0,-943.0,179.0,-21.0,5.0,-1.0,197,170,165,181,181
2025-02-26 14:56:25.697,-331.0,-943.0,133.0,-19.0,7.0,-1.0,201,176,172,185,186
2025-02-26 14:56:25.705,-345.0,-960.0,111.0,-21.0,8.0,-2.0,203,179,173,186,187
2025-02-26 14:56:25.710,-334.0,-955.0,110.0,-19.0,7.0,-2.0,195,171,168,181,180
2025-02-26 14:56:25.714,-343.0,-954.0,134.0,-21.0,8.0,-2.0,194,169,164,178,178
2025-02-26 14:56:25.718,-353.0,-955.0,84.0,-15.0,9.0,-2.0,206,181,177,191,190
2025-02-26 14:56:25.726,-355.0,-975.0,79.0,-13.0,8.0,-1.0,204,177,171,185,186
2025-02-26 14:56:25.730,-361.0,-986.0,92.0,-12.0,9.0,0.0,196,172,166,180,180
2025-02-26 14:56:25.730,-360.0,-983.0,98.0,-10.0,10.0,2.0,195,170,164,177,179
2025-02-26 14:56:25.738,-348.0,-982.0,100.0,-7.0,9.0,2.0,208,182,176,191,190
2025-02-26 14:56:25.747,-342.0,-974.0,97.0,-8.0,6.0,3.0,201,176,169,184,184
2025-02-26 14:56:25.749,-349.0,-979.0,104.0,-12.0,6.0,3.0,196,170,164,178,178
2025-02-26 14:56:25.755,-321.0,-956.0,89.0,-11.0,7.0,3.0,199,173,167,180,180
2025-02-26 14:56:25.759,-319.0,-968.0,106.0,-10.0,8.0,3.0,209,184,177,191,189
2025-02-26 14:56:25.767,-302.0,-950.0,95.0,-11.0,7.0,2.0,205,179,173,187,187
2025-02-26 14:56:25.771,-294.0,-941.0,84.0,-9.0,6.0,2.0,199,175,169,181,182
2025-02-26 14:56:25.775,-296.0,-949.0,89.0,-11.0,7.0,2.0,208,184,176,190,191
2025-02-26 14:56:25.780,-293.0,-944.0,87.0,-11.0,7.0,2.0,209,186,179,192,192
2025-02-26 14:56:25.787,-303.0,-942.0,86.0,-10.0,6.0,2.0,202,176,170,184,185
2025-02-26 14:56:25.792,-308.0,-940.0,98.0,-10.0,7.0,2.0,207,179,175,187,188
2025-02-26 14:56:25.796,-311.0,-943.0,91.0,-7.0,6.0,2.0,208,182,178,190,188
2025-02-26 14:56:25.800,-315.0,-944.0,82.0,-6.0,8.0,2.0,207,181,177,189,189
2025-02-26 14:56:25.804,-316.0,-934.0,51.0,-7.0,5.0,2.0,200,177,171,184,182
2025-02-26 14:56:25.810,-326.0,-939.0,72.0,-4.0,6.0,2.0,209,183,179,192,192
2025-02-26 14:56:25.816,-352.0,-954.0,69.0,-1.0,5.0,2.0,204,180,173,185,186
2025-02-26 14:56:25.820,-346.0,-952.0,63.0,0.0,5.0,2.0,208,184,179,190,192
2025-02-26 14:56:25.822,-338.0,-945.0,82.0,1.0,5.0,2.0,213,188,180,194,194
2025-02-26 14:56:25.829,-353.0,-946.0,67.0,2.0,4.0,2.0,206,181,175,188,188
2025-02-26 14:56:25.834,-354.0,-949.0,88.0,1.0,5.0,2.0,201,177,171,184,185
2025-02-26 14:56:25.841,-351.0,-945.0,77.0,-1.0,4.0,2.0,218,193,188,199,200
2025-02-26 14:56:25.845,-341.0,-949.0,75.0,-4.0,4.0,3.0,206,182,176,191,190
2025-02-26 14:56:25.849,-346.0,-956.0,91.0,-7.0,5.0,3.0,203,180,173,187,188
2025-02-26 14:56:25.854,-337.0,-963.0,107.0,-7.0,5.0,4.0,210,187,183,194,194
2025-02-26 14:56:25.858,-337.0,-968.0,118.0,-5.0,7.0,4.0,217,192,187,199,201
2025-02-26 14:56:25.865,-340.0,-973.0,105.0,-4.0,9.0,5.0,208,183,175,189,190
2025-02-26 14:56:25.870,-344.0,-986.0,81.0,-3.0,8.0,6.0,212,188,182,194,196
2025-02-26 14:56:25.873,-340.0,-997.0,103.0,-3.0,9.0,6.0,210,184,180,193,192
2025-02-26 14:56:25.882,-346.0,-1007.0,105.0,-2.0,9.0,7.0,213,186,180,194,195
2025-02-26 14:56:25.886,-337.0,-1014.0,79.0,-3.0,12.0,8.0,210,183,179,192,193
2025-02-26 14:56:25.890,-336.0,-1002.0,81.0,-2.0,14.0,9.0,213,185,182,195,196
2025-02-26 14:56:25.894,-339.0,-1020.0,92.0,-1.0,17.0,11.0,210,183,179,193,194
2025-02-26 14:56:25.902,-334.0,-1014.0,93.0,-6.0,18.0,13.0,211,179,178,192,193
2025-02-26 14:56:25.906,-324.0,-1035.0,79.0,-6.0,19.0,14.0,207,177,175,187,188
2025-02-26 14:56:25.910,-327.0,-1035.0,77.0,-6.0,20.0,16.0,214,181,179,193,194
2025-02-26 14:56:25.918,-315.0,-1024.0,85.0,-6.0,23.0,17.0,210,177,178,190,192
2025-02-26 14:56:25.923,-306.0,-1011.0,82.0,-5.0,23.0,18.0,210,175,174,189,186
2025-02-26 14:56:25.925,-325.0,-1005.0,85.0,-10.0,31.0,18.0,207,170,171,186,185
2025-02-26 14:56:25.931,-323.0,-979.0,80.0,-4.0,32.0,19.0,212,175,178,193,191
2025-02-26 14:56:25.937,-330.0,-996.0,81.0,2.0,34.0,21.0,214,173,175,191,190
2025-02-26 14:56:25.943,-341.0,-977.0,103.0,4.0,36.0,21.0,209,169,170,185,183
2025-02-26 14:56:25.948,-347.0,-969.0,132.0,0.0,47.0,22.0,207,162,165,183,182
2025-02-26 14:56:25.952,-371.0,-974.0,79.0,4.0,50.0,24.0,213,167,171,189,187
2025-02-26 14:56:25.959,-413.0,-970.0,49.0,7.0,52.0,25.0,209,160,167,184,183
2025-02-26 14:56:25.964,-429.0,-951.0,52.0,2.0,53.0,25.0,207,157,167,182,179
2025-02-26 14:56:25.968,-446.0,-981.0,32.0,-1.0,55.0,26.0,213,162,170,187,186
2025-02-26 14:56:25.972,-475.0,-981.0,14.0,-6.0,51.0,27.0,207,160,168,186,183
2025-02-26 14:56:25.980,-498.0,-967.0,4.0,-8.0,46.0,27.0,208,155,163,181,180
2025-02-26 14:56:25.984,-499.0,-971.0,9.0,-8.0,44.0,27.0,207,154,162,179,176
2025-02-26 14:56:25.989,-480.0,-978.0,-16.0,-7.0,42.0,26.0,213,159,167,184,182
2025-02-26 14:56:25.993,-470.0,-956.0,-30.0,-6.0,41.0,25.0,213,155,165,182,180
2025-02-26 14:56:25.998,-504.0,-955.0,23.0,-7.0,45.0,24.0,205,149,158,175,174
2025-02-26 14:56:26.005,-515.0,-952.0,-3.0,-8.0,45.0,23.0,208,148,159,174,173
2025-02-26 14:56:26.009,-516.0,-965.0,45.0,-13.0,43.0,24.0,212,151,162,177,176
2025-02-26 14:56:26.024,-464.0,-946.0,48.0,-12.0,37.0,24.0,212,149,161,175,174
2025-02-26 14:56:26.026,-371.0,-934.0,6.0,-11.0,30.0,24.0,214,149,158,175,173
2025-02-26 14:56:26.028,-348.0,-964.0,41.0,-12.0,28.0,26.0,206,143,155,167,164
2025-02-26 14:56:26.030,-334.0,-947.0,44.0,-17.0,30.0,27.0,212,146,159,171,170
2025-02-26 14:56:26.037,-327.0,-939.0,23.0,-22.0,31.0,27.0,212,144,158,168,166
2025-02-26 14:56:26.041,-353.0,-944.0,52.0,-24.0,34.0,27.0,215,147,161,172,168
2025-02-26 14:56:26.046,-374.0,-971.0,51.0,-28.0,36.0,27.0,205,138,149,161,158
2025-02-26 14:56:26.049,-384.0,-989.0,50.0,-32.0,39.0,26.0,209,139,153,162,160
2025-02-26 14:56:26.057,-380.0,-972.0,-2.0,-37.0,37.0,24.0,210,142,156,165,163
2025-02-26 14:56:26.059,-423.0,-954.0,18.0,-40.0,37.0,22.0,212,143,156,163,162
2025-02-26 14:56:26.066,-444.0,-959.0,-24.0,-37.0,36.0,21.0,207,136,151,158,155
2025-02-26 14:56:26.070,-489.0,-935.0,-37.0,-37.0,36.0,20.0,203,132,146,151,152
2025-02-26 14:56:26.079,-494.0,-933.0,-19.0,-38.0,37.0,20.0,213,140,154,163,160
2025-02-26 14:56:26.083,-476.0,-930.0,24.0,-40.0,39.0,21.0,211,142,154,159,161
2025-02-26 14:56:26.087,-455.0,-918.0,10.0,-37.0,39.0,19.0,209,139,155,160,157
2025-02-26 14:56:26.094,-452.0,-903.0,10.0,-35.0,39.0,18.0,203,130,145,152,150
2025-02-26 14:56:26.099,-456.0,-908.0,-4.0,-37.0,38.0,17.0,211,137,152,158,156
2025-02-26 14:56:26.101,-450.0,-909.0,9.0,-33.0,37.0,17.0,213,139,153,162,161
2025-02-26 14:56:26.107,-457.0,-905.0,24.0,-34.0,40.0,19.0,209,136,152,157,154
2025-02-26 14:56:26.113,-449.0,-915.0,21.0,-36.0,43.0,21.0,204,128,145,151,149
2025-02-26 14:56:26.119,-443.0,-900.0,-6.0,-34.0,48.0,22.0,207,133,149,154,151
2025-02-26 14:56:26.123,-426.0,-905.0,8.0,-33.0,49.0,25.0,211,135,152,156,154
2025-02-26 14:56:26.125,-433.0,-883.0,0.0,-32.0,42.0,25.0,204,129,145,148,146
2025-02-26 14:56:26.135,-449.0,-870.0,-19.0,-28.0,38.0,25.0,200,126,143,145,141
2025-02-26 14:56:26.137,-470.0,-808.0,-1.0,-25.0,32.0,25.0,205,131,146,148,146
2025-02-26 14:56:26.144,-478.0,-835.0,-71.0,-21.0,24.0,26.0,208,133,149,151,148
2025-02-26 14:56:26.152,-480.0,-800.0,-56.0,-25.0,22.0,23.0,207,132,148,150,147
2025-02-26 14:56:26.155,-489.0,-760.0,-73.0,-25.0,23.0,23.0,204,129,145,147,144
2025-02-26 14:56:26.160,-510.0,-759.0,-55.0,-21.0,23.0,21.0,203,127,145,147,141
2025-02-26 14:56:26.168,-515.0,-742.0,-90.0,-24.0,23.0,21.0,202,125,140,142,137
2025-02-26 14:56:26.172,-528.0,-705.0,-105.0,-22.0,16.0,18.0,208,131,146,149,143
2025-02-26 14:56:26.176,-587.0,-689.0,-82.0,-25.0,13.0,15.0,206,129,146,149,142
2025-02-26 14:56:26.181,-620.0,-699.0,-54.0,-26.0,9.0,13.0,207,132,145,148,143
2025-02-26 14:56:26.189,-629.0,-635.0,-67.0,-20.0,5.0,12.0,201,124,140,143,135
2025-02-26 14:56:26.193,-702.0,-637.0,-89.0,-21.0,4.0,12.0,203,125,142,144,135
2025-02-26 14:56:26.197,-712.0,-591.0,-41.0,-8.0,-4.0,13.0,206,129,145,148,144
2025-02-26 14:56:26.205,-750.0,-499.0,-128.0,-10.0,-7.0,14.0,205,129,144,147,138
2025-02-26 14:56:26.209,-674.0,-377.0,-186.0,-8.0,-12.0,12.0,198,123,139,142,133
2025-02-26 14:56:26.214,-663.0,-252.0,-176.0,-15.0,-6.0,11.0,197,122,136,140,130
2025-02-26 14:56:26.215,-589.0,-139.0,-145.0,-19.0,3.0,9.0,207,131,145,149,138
2025-02-26 14:56:26.226,-596.0,68.0,-86.0,-20.0,24.0,1.0,205,130,144,151,138
2025-02-26 14:56:26.230,-664.0,246.0,-34.0,-21.0,57.0,-10.0,203,127,139,145,134
2025-02-26 14:56:26.234,-701.0,280.0,-45.0,-22.0,74.0,-20.0,198,122,135,143,128
2025-02-26 14:56:26.243,-704.0,441.0,39.0,-41.0,107.0,-27.0,200,127,138,145,132
2025-02-26 14:56:26.247,-702.0,682.0,-39.0,-41.0,136.0,-40.0,204,131,142,151,135
2025-02-26 14:56:26.251,-681.0,855.0,-205.0,-16.0,139.0,-66.0,200,129,144,148,134
2025-02-26 14:56:26.258,-631.0,1105.0,-432.0,2.0,133.0,-100.0,191,126,139,149,132
2025-02-26 14:56:26.262,-788.0,1397.0,-678.0,37.0,96.0,-145.0,187,126,139,149,133
2025-02-26 14:56:26.267,-831.0,1355.0,-918.0,146.0,72.0,-193.0,183,124,135,146,129
2025-02-26 14:56:26.275,-550.0,1735.0,-1307.0,169.0,17.0,-275.0,177,123,136,144,127
2025-02-26 14:56:26.279,-504.0,1660.0,-1378.0,210.0,-2.0,-307.0,176,120,135,143,127
2025-02-26 14:56:26.283,-740.0,1337.0,-1311.0,266.0,12.0,-372.0,182,125,141,149,134
2025-02-26 14:56:26.291,-953.0,1214.0,-1286.0,339.0,-35.0,-445.0,180,127,141,150,134
2025-02-26 14:56:26.296,-846.0,1044.0,-1225.0,418.0,-142.0,-519.0,181,127,144,151,136
2025-02-26 14:56:26.303,-358.0,871.0,-1038.0,473.0,-231.0,-576.0,182,131,143,153,135
2025-02-26 14:56:26.308,172.0,708.0,-624.0,506.0,-290.0,-603.0,181,128,142,152,138
2025-02-26 14:56:26.312,1059.0,424.0,77.0,517.0,-308.0,-597.0,179,128,141,152,138
2025-02-26 14:56:26.320,1927.0,-87.0,967.0,520.0,-299.0,-557.0,177,127,141,150,136
2025-02-26 14:56:26.324,2715.0,-875.0,2000.0,504.0,-242.0,-478.0,176,125,138,148,134
2025-02-26 14:56:26.332,3094.0,-2011.0,2816.0,478.0,-201.0,-369.0,173,124,136,145,135
2025-02-26 14:56:26.336,3643.0,-3048.0,3145.0,445.0,-97.0,-261.0,173,122,137,147,133
2025-02-26 14:56:26.340,3649.0,-3982.0,3142.0,424.0,11.0,-176.0,174,125,139,150,136
2025-02-26 14:56:26.348,3490.0,-4794.0,2958.0,404.0,94.0,-106.0,174,127,140,149,136
2025-02-26 14:56:26.353,3043.0,-5080.0,2597.0,363.0,142.0,-67.0,170,124,138,147,131
2025-02-26 14:56:26.357,2261.0,-4952.0,2113.0,252.0,149.0,21.0,179,133,149,154,141
2025-02-26 14:56:26.365,1357.0,-4180.0,1711.0,100.0,103.0,107.0,179,134,149,152,142
2025-02-26 14:56:26.369,593.0,-2961.0,1488.0,-78.0,19.0,166.0,178,131,149,149,139
2025-02-26 14:56:26.377,251.0,-1887.0,1333.0,-231.0,-48.0,185.0,177,131,148,151,139
2025-02-26 14:56:26.382,294.0,-1257.0,1302.0,-294.0,-94.0,168.0,179,132,148,152,141
2025-02-26 14:56:26.386,405.0,-1185.0,1309.0,-371.0,-105.0,137.0,176,134,145,151,139
2025-02-26 14:56:26.393,474.0,-1330.0,1176.0,-415.0,-93.0,109.0,170,124,141,145,134
2025-02-26 14:56:26.398,533.0,-1537.0,967.0,-405.0,-89.0,95.0,172,126,137,147,135
2025-02-26 14:56:26.402,500.0,-1663.0,728.0,-383.0,-54.0,92.0,172,126,139,149,137
2025-02-26 14:56:26.410,333.0,-1701.0,524.0,-348.0,-29.0,93.0,173,124,138,149,137
2025-02-26 14:56:26.414,300.0,-1882.0,395.0,-304.0,-28.0,101.0,176,130,143,155,142
2025-02-26 14:56:26.418,240.0,-1957.0,338.0,-258.0,-35.0,120.0,184,139,152,163,150
2025-02-26 14:56:26.426,303.0,-1966.0,308.0,-217.0,-23.0,144.0,180,133,145,155,144
2025-02-26 14:56:26.429,284.0,-1926.0,331.0,-196.0,-25.0,168.0,173,126,138,152,139
2025-02-26 14:56:26.439,329.0,-1898.0,381.0,-157.0,-21.0,186.0,170,126,139,148,136
2025-02-26 14:56:26.443,311.0,-1788.0,450.0,-127.0,-13.0,212.0,172,124,138,149,140
2025-02-26 14:56:26.447,350.0,-1742.0,463.0,-91.0,-2.0,229.0,172,123,138,148,136
2025-02-26 14:56:26.455,344.0,-1696.0,480.0,-55.0,-20.0,236.0,173,125,138,149,139
2025-02-26 14:56:26.459,318.0,-1627.0,459.0,-34.0,-15.0,254.0,178,132,145,153,143
2025-02-26 14:56:26.463,302.0,-1501.0,490.0,-21.0,-12.0,269.0,179,131,146,154,145
2025-02-26 14:56:26.470,213.0,-1304.0,457.0,-19.0,-23.0,279.0,175,130,142,151,141
2025-02-26 14:56:26.476,152.0,-1040.0,400.0,-21.0,-19.0,284.0,175,128,141,149,136
2025-02-26 14:56:26.480,161.0,-851.0,402.0,-29.0,-17.0,284.0,175,128,143,150,140
2025-02-26 14:56:26.488,150.0,-652.0,329.0,-44.0,-7.0,281.0,175,127,141,150,138
2025-02-26 14:56:26.492,-1.0,-526.0,369.0,-72.0,-12.0,270.0,179,129,145,152,142
2025-02-26 14:56:26.496,-103.0,-329.0,357.0,-89.0,-24.0,255.0,179,132,144,153,141
2025-02-26 14:56:26.500,-101.0,-262.0,328.0,-89.0,-39.0,231.0,180,132,146,154,143
2025-02-26 14:56:26.509,-157.0,-173.0,342.0,-110.0,-34.0,211.0,176,126,141,149,135
2025-02-26 14:56:26.512,-225.0,-185.0,292.0,-128.0,-28.0,195.0,173,124,138,146,136
2025-02-26 14:56:26.520,-225.0,-217.0,334.0,-152.0,-28.0,182.0,174,123,138,147,136
2025-02-26 14:56:26.524,-280.0,-249.0,288.0,-162.0,-26.0,174.0,175,124,137,146,136
2025-02-26 14:56:26.529,-253.0,-239.0,301.0,-176.0,-9.0,162.0,180,131,146,153,145
2025-02-26 14:56:26.536,-296.0,-267.0,265.0,-186.0,10.0,155.0,181,130,145,152,143
2025-02-26 14:56:26.541,-309.0,-374.0,270.0,-185.0,23.0,149.0,182,133,147,155,147
2025-02-26 14:56:26.546,-316.0,-390.0,272.0,-189.0,31.0,148.0,179,129,141,151,144
2025-02-26 14:56:26.553,-374.0,-385.0,164.0,-182.0,33.0,146.0,175,118,138,148,141
2025-02-26 14:56:26.557,-394.0,-349.0,133.0,-167.0,47.0,146.0,173,121,135,146,137
2025-02-26 14:56:26.561,-435.0,-353.0,77.0,-145.0,49.0,144.0,173,124,136,148,138
2025-02-26 14:56:26.570,-458.0,-292.0,26.0,-126.0,44.0,143.0,183,130,144,154,146
2025-02-26 14:56:26.572,-513.0,-275.0,-20.0,-111.0,41.0,142.0,180,130,144,151,146
2025-02-26 14:56:26.578,-518.0,-140.0,-70.0,-105.0,48.0,141.0,187,134,147,158,150
2025-02-26 14:56:26.586,-574.0,0.0,-114.0,-99.0,47.0,139.0,180,128,142,155,145
2025-02-26 14:56:26.590,-600.0,97.0,-149.0,-89.0,45.0,134.0,173,122,134,146,138
2025-02-26 14:56:26.591,-645.0,146.0,-196.0,-88.0,48.0,132.0,175,123,136,148,139
2025-02-26 14:56:26.602,-670.0,291.0,-222.0,-86.0,53.0,128.0,185,137,147,160,150
2025-02-26 14:56:26.607,-693.0,418.0,-272.0,-81.0,55.0,122.0,183,131,144,156,147
2025-02-26 14:56:26.610,-742.0,537.0,-324.0,-76.0,49.0,113.0,180,129,141,153,143
2025-02-26 14:56:26.615,-767.0,674.0,-363.0,-68.0,44.0,104.0,177,123,137,147,139
2025-02-26 14:56:26.621,-814.0,854.0,-432.0,-61.0,39.0,92.0,178,129,138,151,143
2025-02-26 14:56:26.627,-904.0,996.0,-426.0,-54.0,32.0,88.0,183,133,146,157,148
2025-02-26 14:56:26.631,-920.0,1104.0,-457.0,-55.0,29.0,76.0,183,131,143,152,147
2025-02-26 14:56:26.639,-1043.0,1409.0,-472.0,-47.0,32.0,59.0,181,129,141,154,144
2025-02-26 14:56:26.639,-995.0,1647.0,-467.0,-30.0,41.0,28.0,179,127,139,153,144
2025-02-26 14:56:26.648,-1046.0,1888.0,-525.0,1.0,52.0,-25.0,176,123,135,147,140
2025-02-26 14:56:26.651,-1084.0,2051.0,-522.0,51.0,68.0,-62.0,174,124,134,148,138
2025-02-26 14:56:26.660,-1107.0,2278.0,-742.0,112.0,78.0,-151.0,188,137,148,161,152
2025-02-26 14:56:26.664,-1200.0,2299.0,-698.0,181.0,84.0,-249.0,183,131,143,157,148
2025-02-26 14:56:26.672,-1160.0,2231.0,-825.0,244.0,78.0,-340.0,180,130,140,155,146
2025-02-26 14:56:26.677,-1085.0,2081.0,-951.0,300.0,49.0,-419.0,180,130,140,157,147
2025-02-26 14:56:26.685,-864.0,1845.0,-949.0,325.0,8.0,-488.0,186,134,145,159,149
2025-02-26 14:56:26.689,-556.0,1621.0,-836.0,372.0,-46.0,-551.0,180,130,142,155,148
2025-02-26 14:56:26.693,-138.0,1319.0,-590.0,413.0,-73.0,-604.0,175,125,136,149,142
2025-02-26 14:56:26.701,84.0,947.0,-247.0,460.0,-130.0,-648.0,185,136,145,158,151
2025-02-26 14:56:26.705,534.0,327.0,132.0,518.0,-189.0,-666.0,185,137,146,159,152
2025-02-26 14:56:26.709,1058.0,-30.0,810.0,562.0,-230.0,-681.0,191,140,150,165,157
2025-02-26 14:56:26.717,1911.0,-739.0,1893.0,584.0,-228.0,-652.0,190,139,153,164,160
2025-02-26 14:56:26.722,2925.0,-1833.0,2391.0,587.0,-186.0,-561.0,188,143,154,171,162
2025-02-26 14:56:26.730,3642.0,-3579.0,3198.0,574.0,-112.0,-423.0,192,142,157,167,161
2025-02-26 14:56:26.734,4046.0,-4934.0,3700.0,550.0,-25.0,-288.0,189,141,154,164,160
2025-02-26 14:56:26.739,4130.0,-6061.0,3832.0,494.0,69.0,-176.0,195,146,161,172,166
2025-02-26 14:56:26.746,3562.0,-6217.0,3516.0,444.0,155.0,-75.0,190,141,158,165,161
2025-02-26 14:56:26.751,2450.0,-5703.0,2949.0,304.0,195.0,28.0,186,137,155,161,154
2025-02-26 14:56:26.758,1273.0,-4695.0,2246.0,129.0,119.0,114.0,189,141,158,160,155
2025-02-26 14:56:26.763,790.0,-3583.0,1837.0,-70.0,72.0,171.0,150,101,117,120,114
2025-02-26 14:56:26.767,294.0,-2532.0,1529.0,-237.0,-15.0,200.0,144,91,108,110,102
2025-02-26 14:56:26.775,55.0,-2197.0,1301.0,-367.0,-78.0,204.0,144,94,108,108,103
2025-02-26 14:56:26.779,107.0,-1785.0,1309.0,-445.0,-128.0,212.0,150,99,116,119,115
2025-02-26 14:56:26.783,487.0,-1771.0,1297.0,-463.0,-126.0,217.0,149,98,114,116,112
2025-02-26 14:56:26.791,683.0,-1787.0,1274.0,-451.0,-93.0,217.0,154,106,120,124,119
2025-02-26 14:56:26.795,670.0,-1738.0,1130.0,-410.0,-42.0,211.0,157,106,121,127,120
2025-02-26 14:56:26.799,548.0,-1558.0,870.0,-385.0,-10.0,196.0,155,104,119,127,118
2025-02-26 14:56:26.807,352.0,-1460.0,548.0,-317.0,27.0,182.0,153,102,115,124,118
2025-02-26 14:56:26.812,253.0,-1283.0,332.0,-270.0,44.0,171.0,149,97,112,121,110
2025-02-26 14:56:26.816,166.0,-1251.0,147.0,-219.0,73.0,163.0,149,100,113,122,113
2025-02-26 14:56:26.824,33.0,-1292.0,41.0,-175.0,54.0,154.0,153,103,118,127,118
2025-02-26 14:56:26.828,21.0,-1228.0,3.0,-144.0,72.0,160.0,156,103,117,127,117
2025-02-26 14:56:26.832,-36.0,-1231.0,13.0,-129.0,62.0,170.0,151,101,112,124,114
2025-02-26 14:56:26.840,-96.0,-1247.0,46.0,-110.0,62.0,182.0,149,97,111,120,112
2025-02-26 14:56:26.844,-35.0,-1125.0,43.0,-95.0,62.0,193.0,148,98,112,120,114
2025-02-26 14:56:26.848,-110.0,-1084.0,116.0,-88.0,50.0,197.0,149,101,116,125,116
2025-02-26 14:56:26.856,-30.0,-1121.0,195.0,-85.0,32.0,207.0,151,101,116,123,117
2025-02-26 14:56:26.861,-116.0,-862.0,171.0,-83.0,18.0,205.0,155,105,119,127,121
2025-02-26 14:56:26.865,-54.0,-600.0,45.0,-87.0,38.0,209.0,150,100,117,123,117
2025-02-26 14:56:26.870,-25.0,-467.0,198.0,-108.0,52.0,212.0,146,94,109,119,112
2025-02-26 14:56:26.877,5.0,-502.0,265.0,-129.0,69.0,210.0,148,96,112,120,113
2025-02-26 14:56:26.881,-83.0,-280.0,284.0,-158.0,65.0,210.0,153,101,117,127,120
2025-02-26 14:56:26.885,-140.0,-354.0,105.0,-152.0,22.0,201.0,149,100,115,123,118
2025-02-26 14:56:26.893,-140.0,-225.0,217.0,-158.0,-1.0,188.0,149,97,110,118,116
2025-02-26 14:56:26.896,-167.0,-174.0,125.0,-164.0,-3.0,179.0,147,95,109,119,113
2025-02-26 14:56:26.902,-230.0,-153.0,152.0,-169.0,-6.0,174.0,148,96,109,122,115
2025-02-26 14:56:26.910,-251.0,-193.0,73.0,-171.0,-10.0,165.0,152,101,113,127,119
2025-02-26 14:56:26.914,-313.0,-171.0,40.0,-169.0,-17.0,158.0,153,103,114,126,122
2025-02-26 14:56:26.919,-424.0,-173.0,17.0,-164.0,-28.0,150.0,155,103,114,127,119
2025-02-26 14:56:26.926,-481.0,-261.0,36.0,-166.0,-35.0,147.0,160,109,120,132,127
2025-02-26 14:56:26.930,-473.0,-209.0,41.0,-158.0,-34.0,143.0,152,100,113,126,118
2025-02-26 14:56:26.935,-427.0,-91.0,45.0,-152.0,-28.0,141.0,144,91,105,115,108
2025-02-26 14:56:26.942,-452.0,-124.0,65.0,-156.0,-15.0,144.0,147,95,106,119,112
2025-02-26 14:56:26.946,-495.0,-80.0,-8.0,-158.0,-6.0,142.0,150,96,110,121,115
2025-02-26 14:56:26.950,-524.0,-13.0,-30.0,-156.0,5.0,144.0,145,94,107,118,112
2025-02-26 14:56:26.956,-535.0,59.0,-65.0,-157.0,10.0,143.0,143,92,104,116,109
2025-02-26 14:56:26.962,-538.0,112.0,-77.0,-151.0,18.0,141.0,148,96,109,118,109
2025-02-26 14:56:26.968,-550.0,162.0,-127.0,-149.0,30.0,137.0,149,97,111,122,114
2025-02-26 14:56:26.972,-609.0,217.0,-172.0,-135.0,41.0,130.0,149,97,112,119,113
2025-02-26 14:56:26.979,-624.0,309.0,-209.0,-134.0,49.0,121.0,147,94,109,120,112
2025-02-26 14:56:26.984,-640.0,310.0,-228.0,-126.0,56.0,111.0,146,94,108,117,112
2025-02-26 14:56:26.987,-637.0,375.0,-241.0,-118.0,60.0,100.0,145,91,105,119,110
2025-02-26 14:56:26.996,-607.0,390.0,-252.0,-105.0,61.0,94.0,145,90,105,114,108
2025-02-26 14:56:27.000,-591.0,378.0,-271.0,-95.0,65.0,81.0,154,100,114,124,118
2025-02-26 14:56:27.004,-552.0,409.0,-297.0,-77.0,71.0,71.0,152,99,111,122,115
2025-02-26 14:56:27.011,-601.0,413.0,-331.0,-69.0,78.0,65.0,148,94,107,121,111
2025-02-26 14:56:27.016,-603.0,492.0,-384.0,-60.0,74.0,61.0,148,92,104,116,109
2025-02-26 14:56:27.020,-664.0,502.0,-524.0,-39.0,60.0,60.0,153,100,111,123,117
2025-02-26 14:56:27.025,-800.0,662.0,-515.0,-29.0,47.0,44.0,156,98,109,121,115
2025-02-26 14:56:27.032,-870.0,911.0,-544.0,-25.0,36.0,19.0,154,95,106,120,113
2025-02-26 14:56:27.037,-941.0,1082.0,-614.0,-1.0,32.0,-18.0,154,93,106,116,109
2025-02-26 14:56:27.042,-995.0,1217.0,-721.0,25.0,19.0,-40.0,155,94,104,116,108
2025-02-26 14:56:27.049,-1207.0,1463.0,-794.0,61.0,7.0,-88.0,160,93,105,118,117
2025-02-26 14:56:27.054,-1384.0,1772.0,-799.0,102.0,1.0,-141.0,161,99,107,120,112
2025-02-26 14:56:27.057,-1411.0,1963.0,-675.0,121.0,-12.0,-202.0,162,96,107,120,113
2025-02-26 14:56:27.065,-1307.0,2102.0,-613.0,162.0,-31.0,-263.0,163,98,109,121,113
2025-02-26 14:56:27.069,-1148.0,2145.0,-445.0,206.0,-37.0,-329.0,162,94,103,118,112
2025-02-26 14:56:27.074,-1074.0,2154.0,-330.0,249.0,-44.0,-397.0,160,93,104,118,110
2025-02-26 14:56:27.081,-873.0,1992.0,-141.0,305.0,-36.0,-458.0,166,95,105,119,112
2025-02-26 14:56:27.086,-605.0,1926.0,-83.0,373.0,-30.0,-490.0,166,94,105,120,112
2025-02-26 14:56:27.090,-134.0,1797.0,-7.0,432.0,-42.0,-552.0,171,99,110,124,117
2025-02-26 14:56:27.096,306.0,1498.0,31.0,484.0,-68.0,-604.0,178,102,114,128,120
2025-02-26 14:56:27.103,719.0,1338.0,18.0,511.0,-117.0,-635.0,174,100,113,129,118
2025-02-26 14:56:27.107,1119.0,1220.0,131.0,527.0,-175.0,-659.0,178,101,113,127,121
2025-02-26 14:56:27.115,1305.0,745.0,111.0,524.0,-211.0,-677.0,179,100,113,127,120
2025-02-26 14:56:27.119,1393.0,175.0,115.0,503.0,-277.0,-685.0,187,109,123,136,128
2025-02-26 14:56:27.127,1651.0,-573.0,275.0,460.0,-305.0,-685.0,187,108,122,134,127
2025-02-26 14:56:27.131,2338.0,-1100.0,862.0,502.0,-282.0,-640.0,188,104,120,130,123
2025-02-26 14:56:27.135,3309.0,-2254.0,1811.0,500.0,-247.0,-552.0,193,109,124,134,129
2025-02-26 14:56:27.143,4432.0,-4346.0,2446.0,486.0,-202.0,-456.0,195,113,128,135,135
2025-02-26 14:56:27.147,5105.0,-6758.0,3186.0,497.0,-123.0,-336.0,199,112,129,135,134
2025-02-26 14:56:27.156,4915.0,-8573.0,3402.0,462.0,12.0,-165.0,199,110,131,137,133
2025-02-26 14:56:27.160,4139.0,-8851.0,3335.0,467.0,132.0,40.0,205,118,133,137,132
2025-02-26 14:56:27.164,3243.0,-7278.0,2727.0,387.0,223.0,212.0,201,111,129,128,124
2025-02-26 14:56:27.172,2340.0,-4395.0,2497.0,278.0,252.0,291.0,200,111,126,124,119
2025-02-26 14:56:27.176,1401.0,-1704.0,1920.0,122.0,215.0,292.0,198,108,125,127,117
2025-02-26 14:56:27.181,901.0,-302.0,1669.0,-62.0,84.0,250.0,199,106,128,124,118
2025-02-26 14:56:27.188,621.0,-22.0,1369.0,-258.0,29.0,211.0,196,105,122,123,116
2025-02-26 14:56:27.193,442.0,-114.0,1209.0,-391.0,-32.0,197.0,193,104,114,118,113
2025-02-26 14:56:27.197,497.0,-366.0,685.0,-429.0,-96.0,174.0,201,110,124,130,124
2025-02-26 14:56:27.204,292.0,-833.0,500.0,-405.0,-121.0,164.0,202,112,124,132,126
2025-02-26 14:56:27.209,205.0,-1282.0,97.0,-398.0,-107.0,164.0,200,110,123,130,125
2025-02-26 14:56:27.216,121.0,-1636.0,267.0,-421.0,-35.0,156.0,198,109,121,130,125
2025-02-26 14:56:27.221,132.0,-2125.0,78.0,-395.0,-11.0,157.0,202,114,124,135,130
2025-02-26 14:56:27.225,65.0,-2192.0,198.0,-326.0,-15.0,177.0,196,107,118,130,123
2025-02-26 14:56:27.234,204.0,-2061.0,291.0,-268.0,0.0,196.0,193,104,114,127,121
2025-02-26 14:56:27.238,238.0,-2106.0,427.0,-205.0,-4.0,202.0,197,106,118,129,122
2025-02-26 14:56:27.242,268.0,-1877.0,516.0,-158.0,16.0,203.0,199,112,124,134,126
2025-02-26 14:56:27.245,134.0,-1596.0,554.0,-114.0,25.0,218.0,200,113,122,133,128
2025-02-26 14:56:27.254,204.0,-1411.0,587.0,-94.0,34.0,230.0,197,108,121,130,126
2025-02-26 14:56:27.258,150.0,-1252.0,574.0,-79.0,25.0,236.0,196,106,120,130,125
2025-02-26 14:56:27.266,104.0,-1034.0,491.0,-40.0,29.0,240.0,194,105,117,126,121
2025-02-26 14:56:27.270,33.0,-691.0,368.0,-73.0,61.0,241.0,192,103,116,126,121
2025-02-26 14:56:27.274,37.0,-640.0,350.0,-120.0,74.0,238.0,198,110,123,131,125
2025-02-26 14:56:27.278,-84.0,-210.0,221.0,-143.0,82.0,239.0,202,114,126,136,130
2025-02-26 14:56:27.286,-117.0,-77.0,157.0,-119.0,40.0,225.0,197,107,122,129,123
2025-02-26 14:56:27.288,-189.0,-17.0,249.0,-134.0,17.0,205.0,194,103,119,125,121
2025-02-26 14:56:27.295,-238.0,102.0,216.0,-135.0,-23.0,192.0,204,116,129,137,131
2025-02-26 14:56:27.303,-279.0,116.0,213.0,-152.0,-33.0,176.0,212,123,132,142,138
2025-02-26 14:56:27.307,-263.0,-43.0,235.0,-154.0,-45.0,153.0,210,122,136,145,138
2025-02-26 14:56:27.312,-292.0,-88.0,205.0,-150.0,-50.0,141.0,209,120,132,141,136
2025-02-26 14:56:27.320,-310.0,-243.0,234.0,-152.0,-46.0,140.0,205,119,132,139,134
2025-02-26 14:56:27.324,-324.0,-314.0,276.0,-155.0,-55.0,136.0,203,114,127,136,130
2025-02-26 14:56:27.328,-334.0,-312.0,302.0,-151.0,-55.0,133.0,200,111,125,136,127
2025-02-26 14:56:27.335,-271.0,-357.0,368.0,-157.0,-34.0,133.0,200,111,123,132,125
2025-02-26 14:56:27.340,-284.0,-304.0,410.0,-161.0,7.0,136.0,201,113,125,135,128
2025-02-26 14:56:27.345,-322.0,-428.0,333.0,-150.0,22.0,140.0,204,118,130,140,135
2025-02-26 14:56:27.351,-380.0,-456.0,316.0,-138.0,40.0,147.0,208,120,134,141,135
2025-02-26 14:56:27.355,-445.0,-393.0,270.0,-132.0,59.0,154.0,204,115,126,136,130
2025-02-26 14:56:27.365,-474.0,-354.0,151.0,-123.0,70.0,157.0,199,115,127,138,130
2025-02-26 14:56:27.369,-526.0,-327.0,88.0,-104.0,72.0,157.0,199,115,122,134,127
2025-02-26 14:56:27.379,-556.0,-176.0,-42.0,-81.0,79.0,155.0,208,119,132,141,134
2025-02-26 14:56:27.382,-584.0,-179.0,-85.0,-56.0,82.0,150.0,215,126,141,148,142
2025-02-26 14:56:27.385,-601.0,-56.0,-78.0,-35.0,75.0,142.0,214,127,139,148,141
2025-02-26 14:56:27.389,-628.0,-4.0,-105.0,-23.0,68.0,131.0,216,127,141,149,138
2025-02-26 14:56:27.393,-648.0,138.0,-159.0,-12.0,65.0,120.0,210,121,134,144,136
2025-02-26 14:56:27.400,-663.0,210.0,-186.0,-6.0,65.0,110.0,213,125,138,147,139
2025-02-26 14:56:27.405,-661.0,210.0,-240.0,-10.0,59.0,103.0,209,123,135,143,134
2025-02-26 14:56:27.409,-725.0,275.0,-226.0,-15.0,57.0,92.0,211,125,137,146,138
2025-02-26 14:56:27.418,-747.0,426.0,-228.0,-14.0,52.0,78.0,240,156,167,176,170
2025-02-26 14:56:27.422,-748.0,530.0,-218.0,-6.0,42.0,62.0,229,142,156,165,157
2025-02-26 14:56:27.426,-799.0,593.0,-261.0,15.0,38.0,42.0,233,147,161,169,161
2025-02-26 14:56:27.430,-758.0,675.0,-265.0,32.0,30.0,32.0,225,135,152,161,148
2025-02-26 14:56:27.438,-845.0,791.0,-262.0,51.0,22.0,8.0,224,140,153,160,152
2025-02-26 14:56:27.442,-956.0,838.0,-292.0,60.0,6.0,-18.0,228,139,153,164,155
2025-02-26 14:56:27.446,-1070.0,901.0,-359.0,82.0,6.0,-42.0,219,131,143,152,145
2025-02-26 14:56:27.454,-1228.0,979.0,-399.0,102.0,4.0,-54.0,215,121,136,148,140
2025-02-26 14:56:27.458,-1330.0,1157.0,-339.0,140.0,-15.0,-83.0,221,134,147,157,148
2025-02-26 14:56:27.463,-1393.0,1241.0,-360.0,162.0,-10.0,-122.0,223,138,148,159,150
2025-02-26 14:56:27.471,-1354.0,1420.0,-389.0,195.0,-13.0,-159.0,224,139,152,161,153
2025-02-26 14:56:27.475,-1420.0,1479.0,-277.0,243.0,-29.0,-205.0,224,138,149,159,152
2025-02-26 14:56:27.483,-1230.0,1449.0,-203.0,249.0,-31.0,-260.0,223,137,148,159,150
2025-02-26 14:56:27.488,-1069.0,1375.0,-209.0,282.0,-22.0,-307.0,220,132,144,154,146
2025-02-26 14:56:27.491,-862.0,1313.0,-185.0,291.0,-27.0,-356.0,219,132,145,154,146
2025-02-26 14:56:27.499,-577.0,1153.0,-160.0,325.0,-42.0,-400.0,216,128,139,150,143
2025-02-26 14:56:27.504,-456.0,1029.0,-134.0,352.0,-48.0,-441.0,219,132,143,154,144
2025-02-26 14:56:27.508,-146.0,772.0,-107.0,361.0,-61.0,-475.0,219,133,145,152,147
2025-02-26 14:56:27.513,82.0,485.0,-67.0,360.0,-78.0,-488.0,210,123,134,144,138
2025-02-26 14:56:27.520,370.0,334.0,10.0,372.0,-106.0,-512.0,219,131,143,154,148
2025-02-26 14:56:27.525,784.0,-33.0,118.0,381.0,-145.0,-527.0,201,112,124,134,127
2025-02-26 14:56:27.532,1260.0,-521.0,387.0,388.0,-174.0,-531.0,202,110,122,132,127
2025-02-26 14:56:27.536,1729.0,-1145.0,864.0,391.0,-190.0,-518.0,201,110,123,133,128
2025-02-26 14:56:27.544,2179.0,-1934.0,1269.0,398.0,-189.0,-496.0,201,110,126,134,128
2025-02-26 14:56:27.549,2565.0,-2998.0,1689.0,405.0,-164.0,-462.0,199,108,122,131,126
2025-02-26 14:56:27.553,2918.0,-4376.0,2174.0,420.0,-128.0,-384.0,197,108,122,130,125
2025-02-26 14:56:27.561,3248.0,-5831.0,2811.0,417.0,-105.0,-255.0,202,110,126,134,130
2025-02-26 14:56:27.565,3316.0,-6696.0,3285.0,395.0,-34.0,-92.0,199,108,126,129,125
2025-02-26 14:56:27.573,3308.0,-6468.0,3450.0,343.0,65.0,62.0,198,105,123,126,124
2025-02-26 14:56:27.577,3031.0,-5896.0,3325.0,244.0,162.0,122.0,200,106,123,123,122
2025-02-26 14:56:27.582,2605.0,-4142.0,2988.0,120.0,230.0,208.0,205,116,130,131,127
2025-02-26 14:56:27.589,1962.0,-2485.0,2346.0,-32.0,263.0,245.0,208,116,133,133,129
2025-02-26 14:56:27.594,1337.0,-1226.0,2114.0,-174.0,233.0,243.0,207,116,132,133,128
2025-02-26 14:56:27.602,754.0,-511.0,1299.0,-280.0,175.0,216.0,213,121,139,139,134
2025-02-26 14:56:27.606,529.0,-209.0,969.0,-363.0,110.0,193.0,210,120,136,137,132
2025-02-26 14:56:27.610,321.0,-342.0,513.0,-393.0,55.0,169.0,214,120,139,142,136
2025-02-26 14:56:27.615,124.0,-743.0,195.0,-398.0,30.0,148.0,215,128,144,147,141
2025-02-26 14:56:27.623,77.0,-1025.0,-83.0,-382.0,-7.0,134.0,220,125,146,151,147
2025-02-26 14:56:27.627,-62.0,-1215.0,-146.0,-374.0,-11.0,129.0,224,139,150,156,149
2025-02-26 14:56:27.634,-107.0,-1616.0,-72.0,-385.0,7.0,125.0,224,135,148,155,148
2025-02-26 14:56:27.639,-198.0,-1800.0,-84.0,-353.0,15.0,128.0,224,136,147,155,150
2025-02-26 14:56:27.643,-64.0,-1921.0,55.0,-306.0,6.0,138.0,224,135,149,156,153
2025-02-26 14:56:27.651,106.0,-1845.0,239.0,-293.0,12.0,151.0,219,131,146,154,149
2025-02-26 14:56:27.655,155.0,-1722.0,246.0,-238.0,9.0,165.0,217,130,142,151,145
2025-02-26 14:56:27.659,216.0,-1609.0,397.0,-208.0,2.0,176.0,223,133,145,156,152
2025-02-26 14:56:27.667,207.0,-1489.0,462.0,-190.0,-6.0,196.0,226,138,150,160,156
2025-02-26 14:56:27.671,255.0,-1324.0,432.0,-158.0,-7.0,213.0,223,136,147,158,155
2025-02-26 14:56:27.676,69.0,-1132.0,349.0,-139.0,-1.0,230.0,225,137,148,158,155
2025-02-26 14:56:27.681,132.0,-960.0,364.0,-138.0,5.0,239.0,225,137,154,158,155
2025-02-26 14:56:27.688,78.0,-731.0,290.0,-148.0,2.0,239.0,218,129,144,153,150
2025-02-26 14:56:27.693,20.0,-623.0,276.0,-170.0,19.0,242.0,217,127,140,147,145
2025-02-26 14:56:27.696,-60.0,-561.0,254.0,-219.0,45.0,247.0,224,135,149,158,154
2025-02-26 14:56:27.702,-89.0,-291.0,106.0,-229.0,56.0,245.0,226,137,149,158,155
2025-02-26 14:56:27.709,-147.0,-206.0,-16.0,-205.0,54.0,238.0,219,133,147,155,152
2025-02-26 14:56:27.713,-96.0,-285.0,113.0,-199.0,57.0,230.0,218,128,143,151,146
2025-02-26 14:56:27.721,-168.0,-165.0,18.0,-227.0,70.0,226.0,221,135,149,157,153
2025-02-26 14:56:27.725,-306.0,-143.0,-10.0,-180.0,54.0,226.0,222,135,149,156,151
2025-02-26 14:56:27.729,-271.0,-259.0,97.0,-158.0,22.0,210.0,224,136,151,159,154
2025-02-26 14:56:27.737,-266.0,-201.0,130.0,-157.0,-3.0,200.0,223,137,152,158,153
2025-02-26 14:56:27.741,-291.0,-162.0,43.0,-150.0,-2.0,190.0,223,137,151,157,153
2025-02-26 14:56:27.745,-258.0,-125.0,85.0,-143.0,5.0,186.0,219,133,148,155,148
2025-02-26 14:56:27.753,-298.0,-175.0,156.0,-152.0,19.0,184.0,219,130,149,153,146
2025-02-26 14:56:27.757,-283.0,-175.0,120.0,-162.0,34.0,182.0,218,129,147,154,146
2025-02-26 14:56:27.761,-351.0,-84.0,100.0,-159.0,47.0,181.0,223,139,154,163,155
2025-02-26 14:56:27.769,-387.0,-158.0,169.0,-166.0,65.0,181.0,223,139,154,159,152
2025-02-26 14:56:27.774,-496.0,-213.0,71.0,-167.0,81.0,179.0,220,134,149,156,152
2025-02-26 14:56:27.779,-528.0,-19.0,-84.0,-165.0,69.0,169.0,224,139,153,160,154
2025-02-26 14:56:27.786,-616.0,-117.0,-134.0,-147.0,65.0,155.0,217,132,146,154,148
2025-02-26 14:56:27.790,-656.0,-136.0,-191.0,-133.0,53.0,145.0,216,131,144,153,147
2025-02-26 14:56:27.794,-741.0,-139.0,-200.0,-109.0,41.0,127.0,223,140,151,161,154
2025-02-26 14:56:27.803,-757.0,-114.0,-1314.0,-84.0,-20.0,83.0,226,144,155,166,160
2025-02-26 14:56:27.807,-871.0,125.0,-364.0,-55.0,-10.0,89.0,224,144,154,165,159
2025-02-26 14:56:27.811,-732.0,-380.0,-256.0,-75.0,-19.0,79.0,221,141,152,165,158
2025-02-26 14:56:27.818,-769.0,-8.0,-446.0,-71.0,-31.0,70.0,221,142,151,165,157
2025-02-26 14:56:27.823,-667.0,87.0,-364.0,-68.0,-34.0,56.0,217,141,149,162,157
2025-02-26 14:56:27.828,-515.0,159.0,-285.0,-49.0,-39.0,48.0,215,141,148,165,159
2025-02-26 14:56:27.834,-476.0,-5.0,-379.0,-38.0,-18.0,53.0,222,152,157,173,168
2025-02-26 14:56:27.839,-391.0,-166.0,-43.0,-9.0,-13.0,46.0,228,161,166,181,178
2025-02-26 14:56:27.844,-418.0,-179.0,-173.0,-2.0,-21.0,41.0,220,152,159,176,172
2025-02-26 14:56:27.848,-444.0,-71.0,-192.0,19.0,-25.0,35.0,216,150,155,170,167
2025-02-26 14:56:27.856,-482.0,-125.0,-216.0,26.0,-28.0,39.0,214,150,155,170,168
2025-02-26 14:56:27.860,-546.0,-135.0,-339.0,39.0,-50.0,36.0,224,166,171,184,182
2025-02-26 14:56:27.865,-640.0,-52.0,-332.0,54.0,-74.0,28.0,223,164,171,183,181
2025-02-26 14:56:27.873,-750.0,67.0,-279.0,64.0,-87.0,20.0,219,163,167,178,178
2025-02-26 14:56:27.876,-809.0,250.0,-321.0,83.0,-92.0,10.0,215,161,164,174,176
2025-02-26 14:56:27.881,-1016.0,344.0,-300.0,101.0,-100.0,4.0,217,165,166,172,178
2025-02-26 14:56:27.888,-1128.0,604.0,-255.0,132.0,-104.0,-13.0,223,175,176,181,187
2025-02-26 14:56:27.893,-1290.0,816.0,-264.0,164.0,-113.0,-34.0,221,176,178,182,187
2025-02-26 14:56:27.898,-1474.0,1086.0,-250.0,194.0,-121.0,-56.0,228,183,183,188,194
2025-02-26 14:56:27.905,-1567.0,1303.0,-229.0,220.0,-122.0,-80.0,221,181,179,184,191
2025-02-26 14:56:27.908,-1489.0,1492.0,-176.0,268.0,-125.0,-113.0,222,181,178,183,191
2025-02-26 14:56:27.917,-1423.0,1509.0,-654.0,275.0,-188.0,-155.0,221,185,179,184,192
2025-02-26 14:56:27.921,-1238.0,1592.0,-500.0,284.0,-208.0,-220.0,223,182,181,186,191
2025-02-26 14:56:27.930,-1206.0,1616.0,219.0,268.0,-137.0,-283.0,221,187,180,184,192
2025-02-26 14:56:27.934,-1218.0,1688.0,-54.0,296.0,-76.0,-350.0,219,187,178,188,190
2025-02-26 14:56:27.938,-1053.0,1321.0,-359.0,310.0,-82.0,-398.0,225,191,185,189,196
2025-02-26 14:56:27.943,-525.0,797.0,-272.0,403.0,-80.0,-416.0,217,186,178,186,191
2025-02-26 14:56:27.951,-138.0,220.0,-440.0,451.0,-88.0,-447.0,215,186,179,185,189
2025-02-26 14:56:27.955,-272.0,69.0,-260.0,489.0,-94.0,-456.0,218,188,180,186,190
2025-02-26 14:56:27.962,-459.0,192.0,74.0,479.0,-102.0,-477.0,225,193,188,193,199
2025-02-26 14:56:27.967,-173.0,350.0,96.0,488.0,-124.0,-495.0,224,197,188,194,199
2025-02-26 14:56:27.971,249.0,122.0,139.0,501.0,-180.0,-486.0,221,198,188,192,197
2025-02-26 14:56:27.979,634.0,-81.0,180.0,491.0,-231.0,-476.0,221,196,186,192,196
2025-02-26 14:56:27.983,947.0,-183.0,305.0,465.0,-276.0,-469.0,219,195,184,191,196
2025-02-26 14:56:27.988,1108.0,-388.0,403.0,450.0,-299.0,-462.0,216,194,181,189,193
2025-02-26 14:56:27.995,1390.0,-553.0,496.0,428.0,-346.0,-453.0,216,192,179,189,190
2025-02-26 14:56:27.998,1782.0,-832.0,722.0,409.0,-370.0,-445.0,223,199,188,195,198
2025-02-26 14:56:28.007,2175.0,-1026.0,1041.0,389.0,-383.0,-429.0,222,198,183,191,194
2025-02-26 14:56:28.012,2591.0,-1454.0,1325.0,339.0,-392.0,-423.0,224,193,185,194,195
2025-02-26 14:56:28.020,3032.0,-2667.0,1945.0,229.0,-404.0,-385.0,228,203,189,197,201
2025-02-26 14:56:28.024,3182.0,-3494.0,2674.0,74.0,-355.0,-370.0,230,202,190,198,201
2025-02-26 14:56:28.028,3107.0,-4087.0,2441.0,-152.0,-340.0,-326.0,228,204,189,199,200
2025-02-26 14:56:28.034,3001.0,-4759.0,3137.0,-221.0,-223.0,-220.0,227,203,187,197,200
2025-02-26 14:56:28.040,2401.0,-3719.0,3826.0,-182.0,-86.0,-72.0,232,204,191,200,202
2025-02-26 14:56:28.048,2439.0,-3533.0,4485.0,-69.0,163.0,72.0,230,204,189,198,200
2025-02-26 14:56:28.053,2151.0,-2469.0,3330.0,-111.0,203.0,158.0,227,201,188,198,199
2025-02-26 14:56:28.057,1547.0,-2347.0,2875.0,-146.0,194.0,253.0,228,201,188,198,199
2025-02-26 14:56:28.065,1275.0,-2014.0,3059.0,-153.0,255.0,320.0,228,200,190,197,198
2025-02-26 14:56:28.069,1138.0,-1709.0,2038.0,-205.0,237.0,357.0,226,198,186,194,195
2025-02-26 14:56:28.077,1064.0,-1362.0,1234.0,-293.0,142.0,363.0,227,201,185,195,197
2025-02-26 14:56:28.081,1010.0,-1302.0,1087.0,-326.0,37.0,335.0,226,199,188,197,197
2025-02-26 14:56:28.086,990.0,-1203.0,982.0,-311.0,-19.0,292.0,222,195,183,192,194
2025-02-26 14:56:28.094,972.0,-1018.0,802.0,-225.0,-111.0,255.0,217,191,181,190,191
2025-02-26 14:56:28.098,822.0,-903.0,739.0,-114.0,-142.0,265.0,218,194,182,190,192
2025-02-26 14:56:28.102,313.0,-797.0,499.0,-41.0,-81.0,269.0,219,196,183,192,194
2025-02-26 14:56:28.107,-225.0,-591.0,424.0,-53.0,74.0,245.0,224,200,186,196,199
2025-02-26 14:56:28.114,-225.0,-1117.0,-585.0,-136.0,117.0,214.0,223,199,188,196,199
2025-02-26 14:56:28.119,-113.0,-1321.0,-519.0,-158.0,79.0,183.0,227,206,192,202,203
2025-02-26 14:56:28.127,18.0,-1206.0,475.0,-129.0,70.0,166.0,222,198,187,196,197
2025-02-26 14:56:28.132,72.0,-944.0,580.0,-90.0,62.0,155.0,218,198,182,191,193
2025-02-26 14:56:28.137,22.0,-734.0,451.0,-91.0,45.0,151.0,219,196,182,191,194
2025-02-26 14:56:28.143,-106.0,-745.0,408.0,-78.0,61.0,153.0,227,204,189,199,201
2025-02-26 14:56:28.148,-158.0,-651.0,313.0,-67.0,88.0,157.0,223,202,189,198,201
2025-02-26 14:56:28.150,-181.0,-658.0,309.0,-52.0,112.0,163.0,222,197,187,189,196
2025-02-26 14:56:28.159,-207.0,-710.0,421.0,-35.0,135.0,172.0,220,197,184,192,192
2025-02-26 14:56:28.163,-198.0,-686.0,491.0,8.0,148.0,175.0,217,196,184,193,194
2025-02-26 14:56:28.168,-84.0,-644.0,844.0,60.0,213.0,179.0,216,193,181,189,191
2025-02-26 14:56:28.175,36.0,-574.0,-242.0,-1.0,142.0,165.0,224,202,189,197,199
2025-02-26 14:56:28.179,-105.0,-582.0,223.0,11.0,127.0,170.0,231,210,196,204,206
2025-02-26 14:56:28.183,-114.0,-510.0,421.0,20.0,134.0,162.0,224,203,191,195,198
2025-02-26 14:56:28.188,-68.0,-500.0,354.0,9.0,132.0,158.0,218,197,182,191,194
2025-02-26 14:56:28.196,-150.0,-519.0,499.0,-21.0,137.0,155.0,216,194,181,189,192
2025-02-26 14:56:28.200,-204.0,-433.0,529.0,-35.0,141.0,151.0,228,207,194,201,205
2025-02-26 14:56:28.205,-225.0,-317.0,566.0,-35.0,142.0,145.0,225,204,191,199,202
2025-02-26 14:56:28.212,-259.0,-205.0,488.0,-62.0,134.0,141.0,226,205,191,198,200
2025-02-26 14:56:28.216,-333.0,-110.0,381.0,-75.0,126.0,136.0,224,203,189,198,199
2025-02-26 14:56:28.224,-420.0,-100.0,197.0,-104.0,120.0,129.0,220,199,185,191,195
2025-02-26 14:56:28.229,-446.0,2.0,59.0,-130.0,109.0,123.0,218,197,182,189,189
2025-02-26 14:56:28.233,-503.0,-9.0,53.0,-139.0,97.0,120.0,222,200,186,195,196
2025-02-26 14:56:28.238,-573.0,25.0,-3.0,-137.0,86.0,112.0,230,208,195,203,206
2025-02-26 14:56:28.245,-603.0,-5.0,-66.0,-144.0,76.0,104.0,221,200,187,196,198
2025-02-26 14:56:28.249,-705.0,21.0,-101.0,-140.0,68.0,98.0,218,194,183,191,193
2025-02-26 14:56:28.253,-720.0,5.0,-148.0,-132.0,57.0,86.0,217,195,183,192,193
2025-02-26 14:56:28.262,-774.0,26.0,-259.0,-118.0,49.0,81.0,229,207,194,202,203
2025-02-26 14:56:28.265,-901.0,-5.0,-272.0,-102.0,36.0,69.0,224,202,189,197,201
2025-02-26 14:56:28.270,-986.0,-42.0,-287.0,-97.0,22.0,57.0,223,199,186,197,197
2025-02-26 14:56:28.274,-982.0,-41.0,-258.0,-88.0,12.0,46.0,218,194,181,191,193
2025-02-26 14:56:28.282,-963.0,-48.0,-303.0,-78.0,-13.0,40.0,216,195,182,192,194
2025-02-26 14:56:28.286,-958.0,28.0,-273.0,-68.0,-37.0,29.0,225,202,188,198,199
2025-02-26 14:56:28.291,-935.0,147.0,-251.0,-52.0,-55.0,17.0,223,200,186,197,198
2025-02-26 14:56:28.298,-924.0,274.0,-209.0,-42.0,-66.0,6.0,220,198,182,196,196
2025-02-26 14:56:28.303,-898.0,408.0,-166.0,-17.0,-68.0,-8.0,219,190,181,192,195
2025-02-26 14:56:28.307,-894.0,534.0,-151.0,7.0,-73.0,-26.0,217,193,180,190,192
2025-02-26 14:56:28.314,-916.0,585.0,-139.0,35.0,-74.0,-35.0,221,199,185,198,199
2025-02-26 14:56:28.319,-959.0,628.0,-118.0,57.0,-68.0,-59.0,228,206,190,202,204
2025-02-26 14:56:28.323,-961.0,633.0,-101.0,69.0,-57.0,-88.0,223,199,185,197,199
2025-02-26 14:56:28.330,-928.0,528.0,-176.0,86.0,-50.0,-120.0,220,196,181,194,195
2025-02-26 14:56:28.336,-913.0,444.0,-180.0,103.0,-47.0,-154.0,216,192,179,190,191
2025-02-26 14:56:28.339,-884.0,378.0,-169.0,128.0,-44.0,-188.0,220,196,181,194,194
2025-02-26 14:56:28.348,-855.0,361.0,-193.0,156.0,-44.0,-205.0,217,191,178,190,191
2025-02-26 14:56:28.352,-839.0,338.0,-184.0,174.0,-49.0,-235.0,227,199,185,192,198
2025-02-26 14:56:28.356,-781.0,387.0,-167.0,191.0,-60.0,-263.0,221,197,185,198,199
2025-02-26 14:56:28.362,-758.0,405.0,-245.0,204.0,-80.0,-286.0,223,199,187,198,199
2025-02-26 14:56:28.368,-681.0,377.0,-149.0,212.0,-98.0,-308.0,219,196,184,195,197
2025-02-26 14:56:28.373,-536.0,319.0,-178.0,229.0,-120.0,-328.0,218,196,183,195,195
2025-02-26 14:56:28.380,-333.0,232.0,-26.0,244.0,-138.0,-349.0,222,197,186,195,197
2025-02-26 14:56:28.385,-230.0,36.0,109.0,248.0,-147.0,-369.0,214,194,183,194,192
2025-02-26 14:56:28.392,-9.0,-116.0,225.0,248.0,-163.0,-377.0,218,192,181,191,192
2025-02-26 14:56:28.396,264.0,-194.0,331.0,253.0,-188.0,-389.0,222,195,185,193,195
2025-02-26 14:56:28.398,544.0,-398.0,533.0,249.0,-209.0,-394.0,225,196,191,199,201
2025-02-26 14:56:28.408,897.0,-567.0,645.0,251.0,-217.0,-395.0,227,200,188,199,199
2025-02-26 14:56:28.413,1292.0,-1082.0,892.0,217.0,-231.0,-387.0,224,198,186,195,198
2025-02-26 14:56:28.418,1635.0,-1491.0,1325.0,211.0,-242.0,-368.0,227,202,191,201,203
2025-02-26 14:56:28.422,1935.0,-2077.0,1526.0,162.0,-255.0,-342.0,222,196,184,193,197
2025-02-26 14:56:28.429,2047.0,-2856.0,1890.0,116.0,-258.0,-304.0,220,195,183,194,193
2025-02-26 14:56:28.437,2237.0,-3402.0,2122.0,38.0,-256.0,-269.0,222,197,182,196,196
2025-02-26 14:56:28.440,2427.0,-3920.0,2226.0,-41.0,-250.0,-203.0,223,198,181,194,196
2025-02-26 14:56:28.450,2496.0,-4236.0,2356.0,-138.0,-219.0,-111.0,221,194,176,193,192
2025-02-26 14:56:28.454,2498.0,-3900.0,2759.0,-203.0,-140.0,-25.0,219,191,173,192,192
2025-02-26 14:56:28.459,2014.0,-3397.0,2033.0,-276.0,-124.0,77.0,226,197,181,196,198
2025-02-26 14:56:28.466,1834.0,-3131.0,2883.0,-297.0,-44.0,174.0,218,191,171,191,193
2025-02-26 14:56:28.470,1684.0,-2607.0,1355.0,-264.0,75.0,255.0,220,189,169,188,190
2025-02-26 14:56:28.478,1449.0,-2065.0,1393.0,-320.0,97.0,305.0,219,189,169,189,188
2025-02-26 14:56:28.483,1218.0,-1575.0,1209.0,-327.0,128.0,317.0,222,188,168,190,192
2025-02-26 14:56:28.487,1025.0,-1404.0,818.0,-318.0,97.0,329.0,218,187,168,187,189
2025-02-26 14:56:28.495,848.0,-1222.0,521.0,-305.0,60.0,331.0,224,192,176,197,196
2025-02-26 14:56:28.499,670.0,-991.0,454.0,-274.0,28.0,324.0,230,200,182,202,203
2025-02-26 14:56:28.504,499.0,-830.0,186.0,-255.0,11.0,309.0,225,195,177,197,196
2025-02-26 14:56:28.511,329.0,-935.0,136.0,-214.0,24.0,292.0,220,190,173,194,192
2025-02-26 14:56:28.516,220.0,-951.0,-117.0,-187.0,33.0,264.0,217,187,169,190,189
2025-02-26 14:56:28.520,186.0,-1240.0,-230.0,-178.0,55.0,251.0,221,190,174,193,193
2025-02-26 14:56:28.527,94.0,-1222.0,-130.0,-176.0,66.0,229.0,224,194,174,194,193
2025-02-26 14:56:28.532,-15.0,-1170.0,-116.0,-155.0,58.0,214.0,226,194,177,195,195
2025-02-26 14:56:28.535,-1.0,-1156.0,-8.0,-145.0,51.0,199.0,223,194,178,198,194
2025-02-26 14:56:28.544,-19.0,-1067.0,-85.0,-131.0,38.0,188.0,222,193,178,196,193
2025-02-26 14:56:28.548,-32.0,-1052.0,55.0,-99.0,47.0,184.0,218,187,174,190,189
2025-02-26 14:56:28.552,-96.0,-952.0,158.0,-63.0,58.0,186.0,217,187,172,188,187
2025-02-26 14:56:28.561,-114.0,-959.0,361.0,-33.0,102.0,188.0,227,197,185,199,199
2025-02-26 14:56:28.565,-22.0,-891.0,262.0,-16.0,122.0,188.0,225,196,185,197,197
2025-02-26 14:56:28.569,15.0,-925.0,-112.0,-8.0,113.0,192.0,224,193,183,196,195
2025-02-26 14:56:28.574,-54.0,-780.0,332.0,-9.0,138.0,206.0,223,191,182,195,194
2025-02-26 14:56:28.578,51.0,-707.0,-76.0,12.0,131.0,210.0,221,190,180,194,192
2025-02-26 14:56:28.585,-3.0,-695.0,64.0,19.0,143.0,213.0,220,189,179,191,190
2025-02-26 14:56:28.590,-26.0,-570.0,135.0,-2.0,168.0,215.0,223,193,185,196,196
2025-02-26 14:56:28.597,14.0,-457.0,171.0,-17.0,202.0,214.0,221,190,182,193,193
2025-02-26 14:56:28.599,-46.0,-381.0,66.0,-29.0,219.0,209.0,212,189,181,194,192
2025-02-26 14:56:28.606,-86.0,-305.0,-97.0,-35.0,227.0,203.0,221,186,179,190,191
2025-02-26 14:56:28.614,-146.0,-122.0,-1.0,-24.0,234.0,205.0,223,186,182,192,199
2025-02-26 14:56:28.617,-243.0,-169.0,33.0,-29.0,229.0,201.0,224,190,186,191,195
2025-02-26 14:56:28.622,-429.0,-422.0,-74.0,-45.0,213.0,198.0,226,192,188,194,197
2025-02-26 14:56:28.628,-415.0,-163.0,-125.0,-41.0,185.0,195.0,222,187,183,190,192
2025-02-26 14:56:28.635,-465.0,-24.0,-239.0,-64.0,155.0,191.0,218,183,177,185,187
2025-02-26 14:56:28.639,-544.0,-12.0,-46.0,-86.0,142.0,167.0,222,186,182,190,192
2025-02-26 14:56:28.647,-351.0,782.0,-239.0,-86.0,140.0,178.0,217,179,175,184,185
2025-02-26 14:56:28.651,-683.0,16.0,-41.0,-81.0,86.0,163.0,224,184,181,190,192
2025-02-26 14:56:28.655,-684.0,98.0,-107.0,-87.0,59.0,139.0,224,182,181,191,189
2025-02-26 14:56:28.659,-741.0,82.0,-22.0,-97.0,52.0,122.0,223,182,183,192,191
2025-02-26 14:56:28.667,-750.0,178.0,-180.0,-98.0,43.0,103.0,218,174,174,185,182
2025-02-26 14:56:28.671,-813.0,186.0,-139.0,-104.0,34.0,93.0,216,168,168,182,177
2025-02-26 14:56:28.676,-811.0,166.0,-124.0,-115.0,22.0,72.0,224,176,177,189,185
2025-02-26 14:56:28.683,-789.0,108.0,-98.0,-112.0,9.0,50.0,225,175,178,190,182
2025-02-26 14:56:28.687,-786.0,60.0,-79.0,-114.0,-5.0,29.0,223,172,176,187,180
2025-02-26 14:56:28.692,-781.0,22.0,-124.0,-113.0,-11.0,11.0,218,164,168,181,173
2025-02-26 14:56:28.700,-762.0,-1.0,-158.0,-107.0,-22.0,4.0,216,161,166,179,171
2025-02-26 14:56:28.704,-754.0,-40.0,-166.0,-100.0,-31.0,-6.0,225,170,174,188,178
2025-02-26 14:56:28.709,-724.0,-75.0,-180.0,-88.0,-40.0,-16.0,223,165,172,186,175
2025-02-26 14:56:28.712,-709.0,-107.0,-236.0,-82.0,-56.0,-24.0,221,163,172,186,172
2025-02-26 14:56:28.720,-722.0,-125.0,-206.0,-64.0,-68.0,-33.0,225,166,175,188,175
2025-02-26 14:56:28.724,-737.0,-159.0,-217.0,-50.0,-74.0,-37.0,220,156,165,177,165
2025-02-26 14:56:28.733,-755.0,-167.0,-239.0,-36.0,-77.0,-41.0,218,155,164,174,157
2025-02-26 14:56:28.736,-778.0,-143.0,-225.0,-16.0,-79.0,-43.0,219,149,162,173,160
2025-02-26 14:56:28.740,-792.0,-122.0,-206.0,9.0,-79.0,-45.0,218,149,164,173,159
2025-02-26 14:56:28.749,-777.0,-88.0,-207.0,35.0,-77.0,-51.0,224,151,171,176,161
2025-02-26 14:56:28.753,-784.0,-25.0,-206.0,60.0,-79.0,-55.0,225,147,161,173,158
2025-02-26 14:56:28.758,-868.0,49.0,-187.0,76.0,-83.0,-59.0,225,147,162,175,159
2025-02-26 14:56:28.765,-910.0,165.0,-87.0,111.0,-84.0,-64.0,221,136,152,165,148
2025-02-26 14:56:28.769,-1002.0,310.0,7.0,161.0,-81.0,-68.0,219,132,148,162,145
2025-02-26 14:56:28.773,-1156.0,316.0,147.0,177.0,-55.0,-80.0,224,135,150,164,146
2025-02-26 14:56:28.781,-1255.0,424.0,79.0,192.0,-34.0,-95.0,227,136,153,168,149
2025-02-26 14:56:28.786,-1390.0,635.0,265.0,188.0,23.0,-113.0,223,129,146,162,142
2025-02-26 14:56:28.790,-1414.0,804.0,207.0,190.0,78.0,-141.0,220,126,141,155,134
2025-02-26 14:56:28.798,-1329.0,916.0,224.0,187.0,104.0,-171.0,216,120,135,147,128
2025-02-26 14:56:28.802,-1105.0,956.0,51.0,169.0,127.0,-207.0,221,120,134,138,128
2025-02-26 14:56:28.803,-862.0,813.0,254.0,107.0,160.0,-229.0,215,118,131,140,125
2025-02-26 14:56:28.814,-876.0,895.0,69.0,105.0,173.0,-273.0,221,126,137,144,130
2025-02-26 14:56:28.819,-898.0,959.0,211.0,151.0,191.0,-329.0,222,127,140,148,134
2025-02-26 14:56:28.823,-560.0,622.0,-181.0,166.0,157.0,-376.0,221,125,137,148,135
2025-02-26 14:56:28.831,-385.0,923.0,498.0,139.0,201.0,-407.0,219,123,137,146,136
2025-02-26 14:56:28.833,251.0,544.0,-251.0,218.0,172.0,-429.0,213,119,133,142,131
2025-02-26 14:56:28.840,809.0,608.0,-2021.0,211.0,-7.0,-441.0,217,120,134,144,133
2025-02-26 14:56:28.845,1189.0,811.0,-1691.0,247.0,-97.0,-453.0,215,118,131,141,130
2025-02-26 14:56:28.851,-490.0,-26.0,-379.0,220.0,0.0,-513.0,223,123,138,146,136
2025-02-26 14:56:28.856,-139.0,-828.0,-147.0,260.0,-103.0,-538.0,221,126,138,148,137
2025-02-26 14:56:28.863,1062.0,-910.0,-192.0,365.0,-330.0,-552.0,223,127,140,149,139
2025-02-26 14:56:28.868,1719.0,-1237.0,273.0,399.0,-347.0,-547.0,222,126,140,148,138
2025-02-26 14:56:28.876,2354.0,-1932.0,858.0,390.0,-254.0,-540.0,221,124,138,146,139
2025-02-26 14:56:28.880,2915.0,-3048.0,1693.0,394.0,-215.0,-486.0,224,129,141,149,143
2025-02-26 14:56:28.884,3538.0,-4240.0,2354.0,453.0,-188.0,-405.0,222,125,139,145,139
2025-02-26 14:56:28.892,3596.0,-5365.0,2820.0,470.0,-90.0,-262.0,222,125,142,144,138
2025-02-26 14:56:28.897,3366.0,-5793.0,2963.0,447.0,37.0,-99.0,220,123,141,141,137
2025-02-26 14:56:28.904,3316.0,-5029.0,2768.0,394.0,94.0,24.0,220,125,141,139,136
2025-02-26 14:56:28.909,2851.0,-3435.0,2325.0,284.0,174.0,103.0,217,120,138,134,131
2025-02-26 14:56:28.914,2228.0,-2813.0,1492.0,134.0,218.0,139.0,216,120,137,135,129
2025-02-26 14:56:28.920,1296.0,-1598.0,1081.0,-68.0,158.0,199.0,228,131,148,147,139
2025-02-26 14:56:28.925,805.0,-367.0,874.0,-198.0,95.0,207.0,224,130,148,145,139
2025-02-26 14:56:28.930,533.0,-213.0,686.0,-349.0,29.0,202.0,223,129,146,143,138
2025-02-26 14:56:28.937,224.0,-842.0,195.0,-384.0,-21.0,190.0,219,127,141,143,135
2025-02-26 14:56:28.942,212.0,-1419.0,126.0,-424.0,-63.0,183.0,221,124,142,144,136
2025-02-26 14:56:28.945,292.0,-1749.0,179.0,-432.0,-73.0,172.0,218,124,138,142,134
2025-02-26 14:56:28.953,381.0,-1996.0,297.0,-386.0,-78.0,160.0,215,121,136,141,132
2025-02-26 14:56:28.957,444.0,-2150.0,469.0,-327.0,-67.0,159.0,217,125,140,143,137
2025-02-26 14:56:28.962,475.0,-2220.0,474.0,-279.0,-34.0,167.0,224,130,144,154,143
2025-02-26 14:56:28.970,445.0,-2242.0,488.0,-206.0,-6.0,173.0,222,130,142,149,142
2025-02-26 14:56:28.974,389.0,-2124.0,506.0,-147.0,-3.0,185.0,221,129,142,150,142
2025-02-26 14:56:28.979,263.0,-1970.0,540.0,-124.0,-7.0,200.0,221,131,145,150,143
2025-02-26 14:56:28.986,239.0,-1730.0,527.0,-91.0,-15.0,210.0,218,124,139,146,138
2025-02-26 14:56:28.991,301.0,-1591.0,554.0,-64.0,-19.0,216.0,216,123,138,144,137
2025-02-26 14:56:28.995,165.0,-1353.0,459.0,-42.0,-16.0,222.0,217,121,137,145,139
2025-02-26 14:56:29.003,160.0,-1269.0,435.0,-19.0,-13.0,226.0,222,131,142,151,145
2025-02-26 14:56:29.007,131.0,-1035.0,437.0,-2.0,-15.0,228.0,222,131,143,151,145
2025-02-26 14:56:29.011,142.0,-730.0,453.0,-4.0,-9.0,225.0,222,128,142,150,145
2025-02-26 14:56:29.016,155.0,-697.0,514.0,-7.0,0.0,223.0,224,131,144,152,146
2025-02-26 14:56:29.024,87.0,-503.0,431.0,-33.0,0.0,219.0,218,124,138,144,139
2025-02-26 14:56:29.028,-7.0,-424.0,340.0,-44.0,-2.0,217.0,224,129,144,150,144
2025-02-26 14:56:29.032,-37.0,-301.0,372.0,-64.0,6.0,208.0,221,129,144,149,144
2025-02-26 14:56:29.040,-123.0,-200.0,326.0,-69.0,14.0,196.0,226,132,148,153,147
2025-02-26 14:56:29.044,-92.0,-77.0,424.0,-92.0,16.0,183.0,219,124,138,146,139
2025-02-26 14:56:29.048,-143.0,-68.0,372.0,-106.0,21.0,177.0,215,120,136,141,135
2025-02-26 14:56:29.056,-188.0,-49.0,396.0,-113.0,21.0,163.0,219,128,146,151,144
2025-02-26 14:56:29.061,-244.0,-125.0,365.0,-114.0,24.0,151.0,225,133,146,151,146
2025-02-26 14:56:29.065,-284.0,-192.0,355.0,-116.0,28.0,145.0,223,127,141,147,141
2025-02-26 14:56:29.072,-376.0,-219.0,306.0,-121.0,30.0,141.0,216,122,137,143,137
2025-02-26 14:56:29.076,-404.0,-226.0,304.0,-121.0,31.0,134.0,216,121,137,142,136
2025-02-26 14:56:29.081,-425.0,-278.0,232.0,-116.0,37.0,131.0,216,122,137,144,139
2025-02-26 14:56:29.089,-466.0,-279.0,209.0,-118.0,41.0,124.0,222,129,144,150,145
2025-02-26 14:56:29.093,-527.0,-314.0,174.0,-113.0,46.0,118.0,221,129,144,149,143
2025-02-26 14:56:29.097,-546.0,-344.0,124.0,-105.0,48.0,113.0,229,136,150,157,151
2025-02-26 14:56:29.106,-529.0,-319.0,98.0,-101.0,50.0,111.0,219,127,144,150,143
2025-02-26 14:56:29.109,-618.0,-355.0,72.0,-89.0,50.0,110.0,216,122,138,144,138
2025-02-26 14:56:29.114,-620.0,-292.0,57.0,-77.0,49.0,108.0,215,122,138,143,139
2025-02-26 14:56:29.119,-649.0,-353.0,0.0,-66.0,49.0,108.0,225,132,146,154,147
2025-02-26 14:56:29.126,-586.0,-253.0,6.0,-57.0,51.0,106.0,204,110,126,132,126
2025-02-26 14:56:29.130,-636.0,-254.0,-17.0,-55.0,51.0,103.0,215,116,130,134,131
2025-02-26 14:56:29.138,-639.0,-157.0,-29.0,-43.0,54.0,97.0,206,111,126,133,126
2025-02-26 14:56:29.142,-615.0,-91.0,-20.0,-38.0,60.0,93.0,206,116,128,133,127
2025-02-26 14:56:29.144,-636.0,-42.0,-74.0,-31.0,65.0,85.0,210,118,134,141,134
2025-02-26 14:56:29.151,-673.0,15.0,-115.0,-21.0,63.0,76.0,209,119,131,138,132
2025-02-26 14:56:29.158,-736.0,84.0,-154.0,-20.0,61.0,68.0,206,112,128,135,128
2025-02-26 14:56:29.162,-774.0,185.0,-210.0,-12.0,58.0,58.0,204,111,126,133,127
2025-02-26 14:56:29.167,-855.0,257.0,-236.0,-3.0,50.0,52.0,210,117,131,138,131
2025-02-26 14:56:29.172,-909.0,379.0,-266.0,7.0,41.0,34.0,210,117,133,139,131
2025-02-26 14:56:29.179,-984.0,505.0,-305.0,10.0,28.0,14.0,215,123,137,142,137
2025-02-26 14:56:29.179,-1000.0,586.0,-344.0,22.0,21.0,-7.0,205,114,128,135,128
2025-02-26 14:56:29.188,-1079.0,650.0,-335.0,33.0,9.0,-16.0,203,110,124,131,123
2025-02-26 14:56:29.194,-1132.0,653.0,-334.0,42.0,-1.0,-37.0,211,117,132,137,134
2025-02-26 14:56:29.199,-1130.0,728.0,-339.0,49.0,-6.0,-59.0,216,123,138,142,136
2025-02-26 14:56:29.203,-1175.0,791.0,-358.0,54.0,-13.0,-80.0,210,117,132,138,132
2025-02-26 14:56:29.211,-1270.0,880.0,-334.0,65.0,-14.0,-102.0,205,110,126,133,127
2025-02-26 14:56:29.216,-1310.0,966.0,-310.0,83.0,-18.0,-123.0,206,113,126,134,126
2025-02-26 14:56:29.220,-1371.0,1085.0,-269.0,98.0,-21.0,-136.0,206,113,130,135,130
2025-02-26 14:56:29.228,-1268.0,1145.0,-201.0,120.0,-19.0,-168.0,203,112,126,132,127
2025-02-26 14:56:29.232,-1199.0,1186.0,-263.0,150.0,-19.0,-209.0,210,117,132,137,132
2025-02-26 14:56:29.241,-1075.0,1254.0,-314.0,185.0,-18.0,-252.0,217,124,136,145,139
2025-02-26 14:56:29.244,-915.0,1194.0,-407.0,212.0,-20.0,-301.0,212,120,132,142,135
2025-02-26 14:56:29.246,-739.0,1061.0,-414.0,238.0,-29.0,-348.0,209,118,131,139,133
2025-02-26 14:56:29.256,-529.0,989.0,-469.0,256.0,-52.0,-391.0,211,119,131,138,134
2025-02-26 14:56:29.261,-296.0,901.0,-516.0,265.0,-79.0,-427.0,214,118,130,141,135
2025-02-26 14:56:29.265,3.0,697.0,-491.0,277.0,-115.0,-455.0,211,117,130,140,135
2025-02-26 14:56:29.271,187.0,435.0,-347.0,291.0,-135.0,-477.0,205,114,124,134,128
2025-02-26 14:56:29.277,655.0,92.0,-114.0,314.0,-175.0,-494.0,204,109,124,133,126
2025-02-26 14:56:29.281,1201.0,-108.0,221.0,340.0,-207.0,-499.0,205,111,125,135,130
2025-02-26 14:56:29.290,1740.0,-591.0,666.0,359.0,-224.0,-496.0,212,118,132,139,135
2025-02-26 14:56:29.294,2279.0,-1282.0,871.0,379.0,-230.0,-477.0,210,116,132,141,136
2025-02-26 14:56:29.302,2776.0,-2335.0,1326.0,392.0,-225.0,-447.0,213,120,135,142,138
2025-02-26 14:56:29.305,3117.0,-3730.0,1836.0,381.0,-208.0,-396.0,211,118,135,143,139
2025-02-26 14:56:29.314,3338.0,-5140.0,2492.0,359.0,-170.0,-302.0,211,116,133,140,136
2025-02-26 14:56:29.318,3575.0,-6185.0,3243.0,326.0,-110.0,-166.0,210,119,135,141,136
2025-02-26 14:56:29.323,3541.0,-6598.0,3658.0,263.0,-23.0,-13.0,211,117,137,140,137
2025-02-26 14:56:29.331,3105.0,-5887.0,3411.0,215.0,76.0,118.0,211,117,135,134,133
2025-02-26 14:56:29.335,2621.0,-4480.0,2734.0,105.0,159.0,203.0,207,115,135,133,130
2025-02-26 14:56:29.337,1961.0,-2752.0,2155.0,-24.0,206.0,241.0,209,114,134,133,127
2025-02-26 14:56:29.347,1536.0,-1217.0,1675.0,-144.0,209.0,249.0,205,113,132,130,125
2025-02-26 14:56:29.351,1078.0,-202.0,1173.0,-216.0,148.0,218.0,198,109,127,129,120
2025-02-26 14:56:29.359,662.0,-96.0,905.0,-271.0,64.0,198.0,203,111,130,131,123
2025-02-26 14:56:29.362,603.0,-190.0,502.0,-331.0,-10.0,189.0,210,117,136,138,131
2025-02-26 14:56:29.368,265.0,-494.0,353.0,-326.0,-41.0,180.0,210,118,135,139,131
2025-02-26 14:56:29.375,217.0,-782.0,187.0,-362.0,-54.0,163.0,209,120,134,138,131
2025-02-26 14:56:29.379,68.0,-1037.0,21.0,-377.0,-43.0,143.0,209,121,136,139,133
2025-02-26 14:56:29.384,-48.0,-1494.0,13.0,-373.0,-37.0,122.0,202,113,129,134,129
2025-02-26 14:56:29.392,-76.0,-1792.0,71.0,-345.0,-35.0,116.0,197,109,122,129,123
2025-02-26 14:56:29.396,-141.0,-1852.0,77.0,-302.0,-18.0,120.0,199,108,122,130,125
2025-02-26 14:56:29.400,-108.0,-1926.0,180.0,-235.0,-1.0,127.0,210,119,141,143,139
2025-02-26 14:56:29.408,10.0,-1892.0,245.0,-198.0,4.0,138.0,211,118,132,142,135
2025-02-26 14:56:29.410,98.0,-1768.0,325.0,-161.0,-5.0,157.0,208,115,133,142,136
2025-02-26 14:56:29.417,232.0,-1630.0,448.0,-141.0,-25.0,165.0,205,116,132,139,135
2025-02-26 14:56:29.425,284.0,-1526.0,524.0,-127.0,-24.0,187.0,202,112,127,136,131
2025-02-26 14:56:29.429,126.0,-1319.0,433.0,-88.0,0.0,208.0,198,110,124,133,129
2025-02-26 14:56:29.433,175.0,-1230.0,516.0,-61.0,20.0,213.0,203,115,124,135,132
2025-02-26 14:56:29.441,246.0,-1038.0,501.0,-67.0,26.0,223.0,212,122,137,145,143
2025-02-26 14:56:29.445,106.0,-937.0,483.0,-78.0,24.0,232.0,207,120,134,145,140
2025-02-26 14:56:29.450,108.0,-702.0,422.0,-83.0,25.0,231.0,206,117,132,140,139
2025-02-26 14:56:29.454,143.0,-379.0,308.0,-134.0,24.0,224.0,202,115,127,135,133
2025-02-26 14:56:29.462,89.0,-256.0,341.0,-195.0,40.0,225.0,202,118,130,138,138
2025-02-26 14:56:29.466,-57.0,-288.0,342.0,-221.0,63.0,220.0,209,123,137,143,142
2025-02-26 14:56:29.470,-144.0,-40.0,326.0,-200.0,84.0,212.0,207,121,135,143,140
2025-02-26 14:56:29.478,-116.0,18.0,211.0,-226.0,98.0,200.0,203,119,133,141,137
2025-02-26 14:56:29.482,-262.0,-23.0,348.0,-268.0,109.0,193.0,202,118,131,139,134
2025-02-26 14:56:29.487,-289.0,-137.0,64.0,-267.0,114.0,189.0,197,114,127,138,133
2025-02-26 14:56:29.494,-387.0,-17.0,255.0,-201.0,108.0,182.0,198,114,129,138,130
2025-02-26 14:56:29.499,-363.0,-259.0,229.0,-163.0,80.0,170.0,212,130,145,152,146
2025-02-26 14:56:29.503,-420.0,-347.0,234.0,-127.0,49.0,158.0,206,126,142,149,143
2025-02-26 14:56:29.511,-443.0,-352.0,174.0,-113.0,33.0,154.0,203,124,140,147,141
2025-02-26 14:56:29.515,-440.0,-332.0,100.0,-105.0,44.0,149.0,202,124,141,147,139
2025-02-26 14:56:29.520,-423.0,-393.0,12.0,-94.0,56.0,150.0,201,124,139,149,138
2025-02-26 14:56:29.527,-446.0,-429.0,-42.0,-84.0,89.0,154.0,199,122,137,144,137
2025-02-26 14:56:29.532,-454.0,-403.0,-24.0,-69.0,127.0,159.0,202,126,144,149,143
2025-02-26 14:56:29.536,-475.0,-336.0,-27.0,-49.0,149.0,164.0,203,129,143,148,143
2025-02-26 14:56:29.544,-560.0,-256.0,82.0,-13.0,119.0,162.0,205,132,144,152,144
2025-02-26 14:56:29.548,-642.0,-241.0,-8.0,-1.0,71.0,154.0,199,130,142,151,143
2025-02-26 14:56:29.552,-574.0,-117.0,-211.0,11.0,68.0,155.0,193,123,134,144,138
2025-02-26 14:56:29.560,-619.0,-42.0,-412.0,6.0,70.0,159.0,203,133,144,151,144
2025-02-26 14:56:29.564,-643.0,-21.0,-252.0,40.0,72.0,159.0,203,137,147,155,148
2025-02-26 14:56:29.569,-535.0,-17.0,-114.0,74.0,74.0,152.0,202,137,150,156,147
2025-02-26 14:56:29.573,-523.0,-4.0,-173.0,79.0,81.0,145.0,199,136,146,154,144
2025-02-26 14:56:29.580,-539.0,143.0,-291.0,80.0,80.0,122.0,199,139,148,155,145
2025-02-26 14:56:29.585,-692.0,399.0,-380.0,93.0,69.0,119.0,199,141,149,156,144
2025-02-26 14:56:29.589,-530.0,220.0,-433.0,98.0,53.0,101.0,199,148,154,159,148
2025-02-26 14:56:29.596,-658.0,390.0,-544.0,93.0,34.0,68.0,199,147,152,157,152
2025-02-26 14:56:29.601,-700.0,471.0,-557.0,90.0,24.0,49.0,195,148,152,157,148
2025-02-26 14:56:29.605,-704.0,581.0,-590.0,117.0,19.0,22.0,193,148,149,155,146
2025-02-26 14:56:29.609,-809.0,639.0,-674.0,126.0,-23.0,7.0,197,153,158,160,154
2025-02-26 14:56:29.617,-932.0,642.0,-719.0,121.0,-68.0,-25.0,195,158,161,161,152
2025-02-26 14:56:29.621,-1158.0,886.0,-784.0,129.0,-98.0,-50.0,193,159,162,160,150
2025-02-26 14:56:29.628,-1277.0,1094.0,-511.0,125.0,-108.0,-76.0,191,159,162,157,147
2025-02-26 14:56:29.634,-1397.0,976.0,-337.0,114.0,-105.0,-101.0,186,156,160,154,144
2025-02-26 14:56:29.638,-1333.0,936.0,-356.0,135.0,-98.0,-138.0,188,162,165,160,149
2025-02-26 14:56:29.646,-1271.0,946.0,-460.0,135.0,-86.0,-176.0,181,158,163,155,143
2025-02-26 14:56:29.650,-1253.0,955.0,-473.0,154.0,-85.0,-214.0,177,157,161,151,140
2025-02-26 14:56:29.654,-1165.0,973.0,-433.0,201.0,-84.0,-232.0,175,157,163,153,142
2025-02-26 14:56:29.662,-1027.0,993.0,-442.0,256.0,-72.0,-263.0,176,163,167,158,144
2025-02-26 14:56:29.667,-756.0,934.0,-508.0,324.0,-70.0,-292.0,179,168,172,160,151
2025-02-26 14:56:29.675,-536.0,793.0,-595.0,381.0,-74.0,-335.0,176,167,173,159,149
2025-02-26 14:56:29.680,-388.0,657.0,-610.0,419.0,-74.0,-361.0,181,175,180,165,155
2025-02-26 14:56:29.684,-446.0,489.0,-394.0,429.0,-76.0,-393.0,175,171,175,160,150
2025-02-26 14:56:29.690,-233.0,496.0,-315.0,451.0,-94.0,-419.0,170,169,173,157,148
2025-02-26 14:56:29.695,21.0,298.0,-232.0,476.0,-106.0,-437.0,165,167,170,153,142
2025-02-26 14:56:29.699,138.0,214.0,-63.0,494.0,-135.0,-454.0,165,167,169,152,143
2025-02-26 14:56:29.706,333.0,142.0,9.0,506.0,-172.0,-457.0,163,165,168,151,142
2025-02-26 14:56:29.711,605.0,-17.0,90.0,521.0,-216.0,-469.0,169,174,175,159,149
2025-02-26 14:56:29.716,947.0,-107.0,242.0,527.0,-261.0,-489.0,170,176,176,160,149
2025-02-26 14:56:29.724,1294.0,-209.0,477.0,538.0,-309.0,-508.0,169,177,173,160,149
2025-02-26 14:56:29.727,1699.0,-545.0,843.0,530.0,-346.0,-516.0,169,180,173,158,148
2025-02-26 14:56:29.733,2129.0,-971.0,1479.0,495.0,-364.0,-501.0,166,175,168,156,146
2025-02-26 14:56:29.739,2613.0,-1590.0,2176.0,460.0,-365.0,-459.0,167,181,174,161,151
2025-02-26 14:56:29.744,2843.0,-2348.0,3062.0,431.0,-337.0,-389.0,167,180,169,158,148
2025-02-26 14:56:29.751,3180.0,-2988.0,3772.0,390.0,-275.0,-285.0,164,180,171,157,148
2025-02-26 14:56:29.757,3430.0,-3274.0,4238.0,330.0,-182.0,-166.0,166,181,168,158,149
2025-02-26 14:56:29.765,3376.0,-3465.0,4251.0,243.0,-80.0,-37.0,164,182,171,157,148
2025-02-26 14:56:29.769,3147.0,-3283.0,4192.0,133.0,19.0,83.0,167,183,171,157,149
2025-02-26 14:56:29.773,2703.0,-3071.0,3859.0,6.0,94.0,135.0,171,187,172,160,153
2025-02-26 14:56:29.781,2100.0,-2537.0,3614.0,-127.0,144.0,221.0,178,193,180,164,158
2025-02-26 14:56:29.785,1599.0,-1875.0,2974.0,-236.0,159.0,273.0,175,189,176,163,155
2025-02-26 14:56:29.789,1075.0,-1432.0,2377.0,-331.0,148.0,294.0,171,188,172,160,152
2025-02-26 14:56:29.798,731.0,-1183.0,1902.0,-398.0,127.0,301.0,171,189,176,162,152
2025-02-26 14:56:29.801,540.0,-1061.0,1471.0,-418.0,103.0,299.0,169,186,175,159,149
2025-02-26 14:56:29.809,456.0,-1023.0,1164.0,-438.0,82.0,286.0,166,186,173,159,148
2025-02-26 14:56:29.813,453.0,-1039.0,949.0,-419.0,72.0,264.0,161,180,168,155,142
2025-02-26 14:56:29.818,425.0,-1139.0,736.0,-370.0,54.0,234.0,166,184,172,159,146
2025-02-26 14:56:29.826,331.0,-1176.0,649.0,-323.0,43.0,219.0,159,178,168,155,142
2025-02-26 14:56:29.830,254.0,-1309.0,693.0,-277.0,43.0,195.0,166,187,174,165,149
2025-02-26 14:56:29.835,256.0,-1225.0,668.0,-233.0,41.0,175.0,167,185,175,164,148
2025-02-26 14:56:29.842,254.0,-1070.0,654.0,-202.0,38.0,160.0,166,187,177,165,150
2025-02-26 14:56:29.846,278.0,-958.0,652.0,-192.0,39.0,152.0,165,184,176,165,147
2025-02-26 14:56:29.851,262.0,-887.0,625.0,-177.0,40.0,150.0,161,178,167,157,141
2025-02-26 14:56:29.858,230.0,-833.0,622.0,-174.0,40.0,155.0,162,180,170,157,142
2025-02-26 14:56:29.863,191.0,-838.0,617.0,-167.0,41.0,159.0,172,185,177,166,152
2025-02-26 14:56:29.868,147.0,-869.0,593.0,-161.0,41.0,172.0,167,184,176,164,150
2025-02-26 14:56:29.872,70.0,-839.0,534.0,-156.0,40.0,185.0,165,184,176,164,150
2025-02-26 14:56:29.879,41.0,-778.0,498.0,-151.0,41.0,199.0,169,187,178,167,152
2025-02-26 14:56:29.884,38.0,-700.0,481.0,-144.0,41.0,208.0,162,177,169,159,144
2025-02-26 14:56:29.888,-16.0,-642.0,438.0,-131.0,45.0,212.0,164,181,171,159,145
2025-02-26 14:56:29.895,-30.0,-541.0,356.0,-122.0,48.0,216.0,168,183,175,165,148
2025-02-26 14:56:29.900,-53.0,-429.0,282.0,-120.0,51.0,218.0,170,185,177,167,153
2025-02-26 14:56:29.904,-92.0,-357.0,327.0,-114.0,55.0,217.0,168,184,175,165,150
2025-02-26 14:56:29.912,-122.0,-332.0,292.0,-109.0,57.0,217.0,161,174,171,159,146
2025-02-26 14:56:29.917,-202.0,-257.0,301.0,-118.0,60.0,212.0,161,178,171,159,143
2025-02-26 14:56:29.921,-230.0,-230.0,296.0,-119.0,61.0,209.0,162,180,172,162,145
2025-02-26 14:56:29.929,-293.0,-154.0,300.0,-123.0,62.0,201.0,168,185,178,166,152
2025-02-26 14:56:29.933,-351.0,-117.0,294.0,-135.0,63.0,190.0,169,184,176,166,151
2025-02-26 14:56:29.937,-384.0,-63.0,278.0,-136.0,63.0,177.0,173,188,182,172,157
2025-02-26 14:56:29.945,-445.0,6.0,290.0,-143.0,66.0,163.0,164,180,172,161,148
2025-02-26 14:56:29.949,-477.0,94.0,225.0,-150.0,65.0,149.0,161,176,170,159,144
2025-02-26 14:56:29.953,-529.0,98.0,126.0,-160.0,66.0,142.0,166,182,175,163,149
2025-02-26 14:56:29.961,-601.0,101.0,138.0,-168.0,61.0,129.0,173,189,179,168,153
2025-02-26 14:56:29.966,-642.0,129.0,94.0,-174.0,62.0,118.0,169,185,178,167,151
2025-02-26 14:56:29.970,-687.0,79.0,18.0,-177.0,62.0,112.0,163,174,170,160,146
2025-02-26 14:56:29.974,-707.0,19.0,-76.0,-174.0,61.0,106.0,161,175,170,159,143
2025-02-26 14:56:29.981,-738.0,8.0,-103.0,-170.0,60.0,103.0,172,185,178,166,153
2025-02-26 14:56:29.986,-740.0,-25.0,-146.0,-155.0,56.0,96.0,171,183,179,167,153
2025-02-26 14:56:29.990,-752.0,-25.0,-194.0,-146.0,53.0,89.0,167,180,179,163,149
2025-02-26 14:56:29.998,-787.0,-30.0,-218.0,-125.0,50.0,82.0,164,176,172,160,145
2025-02-26 14:56:30.002,-793.0,-4.0,-210.0,-103.0,49.0,73.0,163,175,174,160,145
2025-02-26 14:56:30.006,-797.0,-2.0,-242.0,-78.0,45.0,68.0,161,175,170,157,143
2025-02-26 14:56:30.015,-791.0,75.0,-249.0,-59.0,43.0,58.0,164,178,175,165,152
2025-02-26 14:56:30.018,-817.0,195.0,-295.0,-49.0,40.0,45.0,173,186,182,170,153
2025-02-26 14:56:30.023,-862.0,359.0,-295.0,-31.0,37.0,31.0,164,177,173,160,144
2025-02-26 14:56:30.027,-881.0,511.0,-332.0,-14.0,35.0,17.0,162,174,170,159,142
2025-02-26 14:56:30.034,-950.0,580.0,-388.0,0.0,29.0,9.0,167,181,176,163,149
2025-02-26 14:56:30.039,-1034.0,740.0,-407.0,17.0,19.0,-10.0,170,182,180,170,153
2025-02-26 14:56:30.044,-1155.0,890.0,-457.0,26.0,0.0,-34.0,166,178,174,164,148
2025-02-26 14:56:30.051,-1225.0,958.0,-462.0,48.0,-7.0,-61.0,162,175,172,160,140
2025-02-26 14:56:30.056,-1323.0,1092.0,-540.0,76.0,-26.0,-92.0,162,175,171,158,141
2025-02-26 14:56:30.060,-1413.0,1100.0,-533.0,107.0,-43.0,-109.0,164,177,172,160,143
2025-02-26 14:56:30.068,-1435.0,1184.0,-546.0,136.0,-56.0,-149.0,170,179,179,166,148
2025-02-26 14:56:30.072,-1401.0,1162.0,-527.0,168.0,-63.0,-200.0,168,178,178,165,147
2025-02-26 14:56:30.080,-1357.0,1208.0,-495.0,203.0,-65.0,-253.0,176,186,183,172,153
2025-02-26 14:56:30.084,-1291.0,1263.0,-524.0,240.0,-71.0,-309.0,169,179,179,166,150
2025-02-26 14:56:30.088,-1103.0,1314.0,-533.0,280.0,-79.0,-369.0,167,176,176,166,146
2025-02-26 14:56:30.097,-825.0,1244.0,-496.0,317.0,-86.0,-423.0,166,178,178,164,145
2025-02-26 14:56:30.106,-385.0,1198.0,-448.0,337.0,-95.0,-476.0,168,180,177,162,145
2025-02-26 14:56:30.107,46.0,998.0,-401.0,377.0,-101.0,-521.0,165,176,177,163,144
2025-02-26 14:56:30.113,548.0,876.0,-335.0,408.0,-101.0,-556.0,162,174,172,159,140
2025-02-26 14:56:30.117,811.0,473.0,-167.0,425.0,-102.0,-584.0,164,177,177,165,146
2025-02-26 14:56:30.124,1239.0,-33.0,62.0,448.0,-114.0,-596.0,164,174,174,163,143
2025-02-26 14:56:30.129,1648.0,-351.0,250.0,491.0,-145.0,-615.0,166,178,178,167,148
2025-02-26 14:56:30.134,1951.0,-757.0,730.0,501.0,-187.0,-606.0,169,176,176,167,148
2025-02-26 14:56:30.142,2340.0,-1216.0,1075.0,487.0,-237.0,-566.0,171,180,179,168,150
2025-02-26 14:56:30.146,2843.0,-1928.0,1929.0,485.0,-290.0,-511.0,169,179,178,167,151
2025-02-26 14:56:30.154,3345.0,-2937.0,2886.0,467.0,-302.0,-425.0,170,180,176,166,152
2025-02-26 14:56:30.158,3865.0,-3847.0,3523.0,412.0,-255.0,-315.0,171,187,182,173,158
2025-02-26 14:56:30.162,4099.0,-4338.0,4034.0,326.0,-167.0,-188.0,173,181,178,168,153
2025-02-26 14:56:30.169,3926.0,-4221.0,4314.0,214.0,-72.0,-53.0,170,181,177,171,153
2025-02-26 14:56:30.175,3477.0,-3663.0,4262.0,137.0,12.0,64.0,170,179,173,162,149
2025-02-26 14:56:30.179,2623.0,-3002.0,3889.0,-39.0,71.0,158.0,171,181,173,164,147
2025-02-26 14:56:30.186,2234.0,-2417.0,3192.0,-222.0,86.0,226.0,165,179,171,157,142
2025-02-26 14:56:30.191,1660.0,-1815.0,2416.0,-378.0,91.0,266.0,163,171,168,154,142
2025-02-26 14:56:30.197,1108.0,-1490.0,1772.0,-492.0,68.0,288.0,164,176,168,157,140
2025-02-26 14:56:30.203,755.0,-1381.0,1308.0,-554.0,36.0,294.0,165,174,168,154,138
2025-02-26 14:56:30.207,615.0,-1275.0,877.0,-571.0,8.0,300.0,171,179,175,163,145
2025-02-26 14:56:30.215,582.0,-1271.0,726.0,-527.0,-7.0,297.0,169,177,175,162,144
2025-02-26 14:56:30.220,581.0,-1338.0,500.0,-451.0,-14.0,279.0,170,180,178,167,148
2025-02-26 14:56:30.224,576.0,-1496.0,359.0,-416.0,-9.0,254.0,164,174,172,160,141
2025-02-26 14:56:30.232,547.0,-1575.0,284.0,-350.0,-3.0,231.0,160,170,169,157,135
2025-02-26 14:56:30.235,542.0,-1582.0,270.0,-281.0,15.0,216.0,160,170,169,159,135
2025-02-26 14:56:30.240,490.0,-1557.0,224.0,-218.0,28.0,213.0,160,164,169,159,133
2025-02-26 14:56:30.247,493.0,-1461.0,175.0,-164.0,38.0,213.0,167,178,178,168,143
2025-02-26 14:56:30.252,470.0,-1422.0,154.0,-118.0,41.0,222.0,165,173,175,166,144
2025-02-26 14:56:30.256,474.0,-1385.0,146.0,-80.0,54.0,241.0,174,181,182,171,151
2025-02-26 14:56:30.264,468.0,-1375.0,227.0,-66.0,69.0,263.0,165,175,174,164,145
2025-02-26 14:56:30.268,502.0,-1339.0,324.0,-42.0,78.0,287.0,163,170,169,159,139
2025-02-26 14:56:30.272,549.0,-1298.0,447.0,-15.0,99.0,299.0,161,169,170,160,140
2025-02-26 14:56:30.280,490.0,-1223.0,465.0,19.0,108.0,318.0,171,177,179,167,149
2025-02-26 14:56:30.285,462.0,-1020.0,449.0,51.0,103.0,331.0,168,178,178,165,149
2025-02-26 14:56:30.289,395.0,-721.0,438.0,57.0,106.0,338.0,167,173,174,158,145
2025-02-26 14:56:30.297,347.0,-460.0,434.0,57.0,112.0,343.0,160,169,172,159,140
2025-02-26 14:56:30.301,316.0,-310.0,477.0,47.0,119.0,337.0,165,170,170,159,142
2025-02-26 14:56:30.305,201.0,-190.0,420.0,40.0,126.0,331.0,173,175,175,164,147
2025-02-26 14:56:30.309,68.0,-32.0,348.0,28.0,130.0,317.0,170,171,173,165,147
2025-02-26 14:56:30.318,-39.0,153.0,391.0,14.0,137.0,297.0,168,172,171,163,146
2025-02-26 14:56:30.322,-101.0,170.0,410.0,-13.0,142.0,277.0,167,171,170,161,145
2025-02-26 14:56:30.326,-266.0,221.0,303.0,-43.0,135.0,266.0,165,171,169,159,144
2025-02-26 14:56:30.334,-343.0,247.0,333.0,-77.0,129.0,242.0,170,174,173,164,149
2025-02-26 14:56:30.337,-432.0,303.0,302.0,-116.0,126.0,221.0,176,182,182,173,158
2025-02-26 14:56:30.343,-398.0,255.0,365.0,-147.0,127.0,196.0,172,174,176,166,152
2025-02-26 14:56:30.349,-470.0,304.0,113.0,-163.0,114.0,176.0,170,174,173,162,150
2025-02-26 14:56:30.354,-523.0,287.0,271.0,-185.0,115.0,154.0,166,169,169,158,146
2025-02-26 14:56:30.359,-588.0,180.0,95.0,-185.0,110.0,134.0,167,170,168,161,147
2025-02-26 14:56:30.366,-640.0,78.0,1.0,-199.0,96.0,123.0,169,171,170,161,148
2025-02-26 14:56:30.368,-698.0,109.0,41.0,-221.0,89.0,104.0,172,174,170,165,152
2025-02-26 14:56:30.375,-706.0,6.0,24.0,-226.0,89.0,94.0,170,171,171,162,149
2025-02-26 14:56:30.379,-696.0,19.0,-109.0,-219.0,87.0,86.0,170,169,170,161,149
2025-02-26 14:56:30.387,-704.0,52.0,-167.0,-203.0,83.0,84.0,168,167,168,158,146
2025-02-26 14:56:30.392,-714.0,-3.0,-151.0,-193.0,78.0,81.0,176,172,176,164,152
2025-02-26 14:56:30.396,-752.0,36.0,-171.0,-187.0,73.0,76.0,176,173,171,164,154
2025-02-26 14:56:30.403,-791.0,21.0,-80.0,-176.0,77.0,73.0,178,172,172,163,152
2025-02-26 14:56:30.408,-810.0,24.0,-218.0,-168.0,72.0,70.0,171,165,164,157,144
2025-02-26 14:56:30.411,-824.0,59.0,-182.0,-162.0,67.0,70.0,174,165,165,158,147
2025-02-26 14:56:30.417,-775.0,7.0,-95.0,-141.0,72.0,73.0,188,177,178,171,158
2025-02-26 14:56:30.423,-713.0,52.0,-151.0,-130.0,76.0,76.0,181,168,168,163,150
2025-02-26 14:56:30.429,-723.0,76.0,-205.0,-108.0,77.0,74.0,178,159,163,159,145
2025-02-26 14:56:30.433,-714.0,147.0,-214.0,-93.0,78.0,63.0,177,158,159,157,145
2025-02-26 14:56:30.441,-752.0,37.0,-416.0,-75.0,70.0,61.0,190,166,170,168,154
2025-02-26 14:56:30.444,-762.0,258.0,-401.0,-51.0,58.0,47.0,188,159,160,163,152
2025-02-26 14:56:30.450,-809.0,213.0,-338.0,-40.0,47.0,31.0,184,149,154,155,149
2025-02-26 14:56:30.453,-829.0,253.0,-356.0,-12.0,44.0,11.0,181,145,149,153,146
2025-02-26 14:56:30.461,-912.0,324.0,-532.0,17.0,32.0,1.0,181,140,150,154,149
2025-02-26 14:56:30.465,-1041.0,341.0,-538.0,50.0,14.0,-24.0,189,140,151,157,154
2025-02-26 14:56:30.469,-1144.0,377.0,-518.0,74.0,-5.0,-50.0,189,128,148,154,154
2025-02-26 14:56:30.476,-1252.0,429.0,-365.0,89.0,-15.0,-75.0,189,129,142,150,149
2025-02-26 14:56:30.481,-1399.0,584.0,-342.0,111.0,-20.0,-100.0,189,122,138,147,147
2025-02-26 14:56:30.486,-1408.0,708.0,-202.0,144.0,-32.0,-109.0,188,115,130,140,142
2025-02-26 14:56:30.494,-1396.0,779.0,73.0,162.0,-4.0,-118.0,188,114,128,138,137
2025-02-26 14:56:30.498,-1417.0,861.0,-279.0,166.0,-18.0,-128.0,199,118,131,142,140
2025-02-26 14:56:30.506,-1139.0,973.0,-149.0,203.0,-33.0,-145.0,196,116,130,143,137
2025-02-26 14:56:30.511,-943.0,1014.0,-154.0,212.0,-57.0,-183.0,196,115,125,143,131
2025-02-26 14:56:30.514,-1144.0,1079.0,-195.0,217.0,-78.0,-232.0,195,112,127,143,131
2025-02-26 14:56:30.523,-933.0,1103.0,36.0,219.0,-40.0,-269.0,199,108,126,146,136
2025-02-26 14:56:30.527,-553.0,1144.0,52.0,217.0,-7.0,-317.0,196,108,124,145,131
2025-02-26 14:56:30.531,-287.0,1138.0,-151.0,219.0,6.0,-370.0,191,105,117,141,127
2025-02-26 14:56:30.539,-244.0,1048.0,-378.0,219.0,2.0,-416.0,197,112,123,148,131
2025-02-26 14:56:30.543,-165.0,966.0,-647.0,244.0,-27.0,-433.0,191,103,114,141,123
2025-02-26 14:56:30.548,-6.0,656.0,-890.0,261.0,-64.0,-436.0,197,107,118,141,125
2025-02-26 14:56:30.555,98.0,663.0,-759.0,331.0,-74.0,-425.0,198,107,118,139,126
2025-02-26 14:56:30.560,539.0,454.0,-481.0,345.0,-88.0,-435.0,200,109,121,141,129
2025-02-26 14:56:30.562,708.0,107.0,-215.0,359.0,-147.0,-462.0,198,107,117,138,127
2025-02-26 14:56:30.571,397.0,141.0,-413.0,362.0,-196.0,-496.0,191,101,112,129,120
2025-02-26 14:56:30.575,423.0,-163.0,-157.0,398.0,-279.0,-514.0,191,102,114,129,122
2025-02-26 14:56:30.580,1093.0,-357.0,149.0,401.0,-322.0,-541.0,195,102,115,130,124
2025-02-26 14:56:30.586,1805.0,-405.0,599.0,402.0,-338.0,-558.0,191,99,111,127,122
2025-02-26 14:56:30.592,2370.0,-984.0,1145.0,412.0,-331.0,-575.0,199,107,120,132,130
2025-02-26 14:56:30.598,3186.0,-2452.0,1823.0,433.0,-316.0,-548.0,206,114,125,139,136
2025-02-26 14:56:30.605,3550.0,-4236.0,2618.0,448.0,-285.0,-451.0,203,111,123,132,132
2025-02-26 14:56:30.611,3949.0,-5882.0,3049.0,422.0,-205.0,-296.0,196,106,121,128,135
2025-02-26 14:56:30.616,3750.0,-6532.0,3620.0,375.0,-80.0,-108.0,202,110,123,128,129
2025-02-26 14:56:30.621,3557.0,-5917.0,3804.0,298.0,47.0,51.0,206,110,124,130,130
2025-02-26 14:56:30.629,3065.0,-4289.0,3468.0,237.0,137.0,158.0,202,108,124,128,126
2025-02-26 14:56:30.633,2331.0,-2564.0,2739.0,58.0,180.0,226.0,201,106,120,124,123
2025-02-26 14:56:30.638,1576.0,-1052.0,1867.0,-145.0,163.0,255.0,206,110,124,126,125
2025-02-26 14:56:30.645,857.0,-325.0,1112.0,-307.0,142.0,249.0,201,107,117,123,121
2025-02-26 14:56:30.650,635.0,-531.0,697.0,-415.0,71.0,236.0,198,104,116,121,117
2025-02-26 14:56:30.654,460.0,-745.0,393.0,-476.0,-14.0,227.0,195,103,116,121,119
2025-02-26 14:56:30.658,328.0,-1141.0,105.0,-498.0,-50.0,215.0,204,112,124,132,129
2025-02-26 14:56:30.666,245.0,-1378.0,125.0,-489.0,-49.0,192.0,210,118,131,140,136
2025-02-26 14:56:30.671,207.0,-1640.0,-36.0,-436.0,-59.0,159.0,207,116,127,139,135
2025-02-26 14:56:30.678,127.0,-2015.0,47.0,-401.0,-71.0,137.0,211,122,131,143,139
2025-02-26 14:56:30.682,125.0,-2202.0,226.0,-333.0,-61.0,138.0,204,112,120,134,131
2025-02-26 14:56:30.691,175.0,-2312.0,353.0,-270.0,-51.0,145.0,200,109,120,134,129
2025-02-26 14:56:30.695,350.0,-2267.0,544.0,-207.0,-38.0,157.0,200,107,117,131,128
2025-02-26 14:56:30.699,341.0,-2195.0,641.0,-157.0,-35.0,166.0,204,111,121,135,131
2025-02-26 14:56:30.707,448.0,-2137.0,750.0,-111.0,-41.0,189.0,210,119,127,144,141
2025-02-26 14:56:30.711,469.0,-1982.0,753.0,-70.0,-44.0,212.0,207,117,126,143,140
2025-02-26 14:56:30.715,473.0,-1791.0,829.0,-36.0,-30.0,236.0,209,117,126,143,140
2025-02-26 14:56:30.723,382.0,-1610.0,782.0,-19.0,-9.0,260.0,208,115,125,142,139
2025-02-26 14:56:30.726,395.0,-1318.0,673.0,9.0,5.0,269.0,200,107,120,139,132
2025-02-26 14:56:30.732,343.0,-1070.0,625.0,17.0,11.0,273.0,202,111,120,137,133
2025-02-26 14:56:30.735,223.0,-830.0,519.0,4.0,20.0,276.0,216,126,136,148,146
2025-02-26 14:56:30.744,137.0,-548.0,466.0,-26.0,23.0,279.0,210,119,128,143,141
2025-02-26 14:56:30.748,30.0,-341.0,367.0,-45.0,20.0,274.0,204,115,123,138,136
2025-02-26 14:56:30.752,9.0,-59.0,352.0,-88.0,21.0,262.0,201,109,119,133,131
2025-02-26 14:56:30.760,-128.0,-37.0,364.0,-132.0,30.0,256.0,212,121,135,148,144
2025-02-26 14:56:30.762,-175.0,94.0,372.0,-148.0,22.0,239.0,210,120,131,143,140
2025-02-26 14:56:30.768,-196.0,102.0,488.0,-159.0,11.0,217.0,204,113,124,138,134
2025-02-26 14:56:30.773,-214.0,103.0,514.0,-168.0,3.0,194.0,200,111,121,135,130
2025-02-26 14:56:30.781,-185.0,-5.0,531.0,-166.0,7.0,174.0,202,113,125,138,133
2025-02-26 14:56:30.785,-161.0,37.0,553.0,-164.0,17.0,168.0,210,120,132,145,141
2025-02-26 14:56:30.789,-235.0,-53.0,514.0,-167.0,30.0,159.0,207,117,128,144,140
2025-02-26 14:56:30.797,-294.0,-103.0,477.0,-163.0,44.0,156.0,208,115,127,141,136
2025-02-26 14:56:30.801,-393.0,-111.0,376.0,-156.0,58.0,153.0,205,112,125,139,135
2025-02-26 14:56:30.805,-407.0,-146.0,313.0,-157.0,68.0,150.0,201,111,123,136,131
2025-02-26 14:56:30.813,-536.0,-165.0,206.0,-150.0,83.0,148.0,200,111,122,136,132
2025-02-26 14:56:30.816,-600.0,-150.0,115.0,-148.0,89.0,147.0,213,122,134,147,142
2025-02-26 14:56:30.822,-640.0,-131.0,45.0,-137.0,84.0,143.0,210,120,132,145,141
2025-02-26 14:56:30.828,-655.0,-94.0,-35.0,-132.0,79.0,138.0,206,116,127,142,137
2025-02-26 14:56:30.834,-712.0,-84.0,-100.0,-124.0,74.0,130.0,205,115,126,140,135
2025-02-26 14:56:30.838,-746.0,-31.0,-139.0,-110.0,69.0,126.0,204,113,121,140,134
2025-02-26 14:56:30.846,-756.0,7.0,-153.0,-101.0,59.0,120.0,201,109,121,135,131
2025-02-26 14:56:30.851,-750.0,23.0,-194.0,-85.0,51.0,116.0,204,114,122,137,132
2025-02-26 14:56:30.853,-789.0,83.0,-224.0,-75.0,44.0,109.0,206,116,127,143,138
2025-02-26 14:56:30.863,-783.0,129.0,-190.0,-69.0,41.0,101.0,207,121,128,144,140
2025-02-26 14:56:30.865,-799.0,209.0,-153.0,-50.0,37.0,92.0,204,114,124,142,135
2025-02-26 14:56:30.871,-770.0,348.0,-141.0,-24.0,36.0,76.0,199,110,121,136,131
2025-02-26 14:56:30.876,-752.0,402.0,-132.0,4.0,37.0,66.0,200,111,121,139,132
2025-02-26 14:56:30.883,-769.0,542.0,-128.0,27.0,41.0,44.0,209,119,129,146,140
2025-02-26 14:56:30.888,-849.0,673.0,-176.0,38.0,43.0,24.0,204,114,124,141,136
2025-02-26 14:56:30.888,-893.0,782.0,-216.0,54.0,42.0,5.0,200,111,120,138,132
2025-02-26 14:56:30.899,-1014.0,854.0,-284.0,75.0,36.0,-7.0,207,118,128,143,137
2025-02-26 14:56:30.903,-1111.0,1004.0,-306.0,89.0,26.0,-40.0,206,117,127,144,138
2025-02-26 14:56:30.908,-1209.0,1187.0,-373.0,110.0,16.0,-83.0,206,118,127,143,136
2025-02-26 14:56:30.915,-1287.0,1355.0,-446.0,122.0,7.0,-131.0,204,116,126,143,136
2025-02-26 14:56:30.918,-1334.0,1494.0,-523.0,141.0,-2.0,-179.0,206,119,128,145,138
2025-02-26 14:56:30.925,-1365.0,1575.0,-534.0,166.0,-12.0,-230.0,202,113,123,140,133
2025-02-26 14:56:30.932,-1353.0,1615.0,-480.0,192.0,-17.0,-284.0,199,107,122,140,130
2025-02-26 14:56:30.937,-1305.0,1663.0,-390.0,225.0,-31.0,-345.0,199,112,122,140,132
2025-02-26 14:56:30.945,-1147.0,1689.0,-283.0,255.0,-44.0,-411.0,200,111,122,141,133
2025-02-26 14:56:30.949,-856.0,1600.0,-188.0,285.0,-49.0,-466.0,197,111,122,141,133
2025-02-26 14:56:30.953,-325.0,1264.0,-105.0,312.0,-53.0,-492.0,195,108,118,137,130
2025-02-26 14:56:30.961,-130.0,1267.0,-106.0,355.0,-78.0,-519.0,210,121,131,149,143
2025-02-26 14:56:30.965,210.0,1125.0,68.0,375.0,-104.0,-544.0,206,117,126,147,141
2025-02-26 14:56:30.969,636.0,916.0,82.0,375.0,-111.0,-576.0,204,111,127,147,144
2025-02-26 14:56:30.975,1047.0,592.0,-97.0,371.0,-128.0,-593.0,204,113,130,146,139
2025-02-26 14:56:30.981,1220.0,76.0,93.0,391.0,-144.0,-594.0,206,114,126,147,141
2025-02-26 14:56:30.985,1371.0,-535.0,140.0,407.0,-158.0,-598.0,201,110,122,140,136
2025-02-26 14:56:30.992,1907.0,-1387.0,595.0,434.0,-181.0,-552.0,200,105,120,139,136
2025-02-26 14:56:30.998,2488.0,-2564.0,1057.0,464.0,-199.0,-525.0,203,115,128,147,142
2025-02-26 14:56:31.006,2914.0,-3799.0,1699.0,479.0,-208.0,-469.0,201,110,125,143,138
2025-02-26 14:56:31.010,3448.0,-4433.0,2777.0,484.0,-189.0,-381.0,199,107,123,142,137
2025-02-26 14:56:31.018,3919.0,-5680.0,3738.0,457.0,-132.0,-260.0,200,109,124,139,136
2025-02-26 14:56:31.021,4020.0,-6445.0,4130.0,397.0,-44.0,-104.0,201,111,127,139,137
2025-02-26 14:56:31.026,3638.0,-6113.0,3917.0,311.0,54.0,54.0,206,116,131,141,142
2025-02-26 14:56:31.034,3240.0,-4515.0,3670.0,146.0,166.0,164.0,206,116,130,139,140
2025-02-26 14:56:31.038,2565.0,-2465.0,3251.0,-79.0,250.0,216.0,214,123,138,146,145
2025-02-26 14:56:31.040,1683.0,-883.0,2443.0,-281.0,230.0,234.0,207,117,131,138,139
2025-02-26 14:56:31.050,995.0,-14.0,1638.0,-356.0,126.0,227.0,205,113,130,134,131
2025-02-26 14:56:31.055,563.0,-128.0,879.0,-475.0,34.0,223.0,202,111,126,133,132
2025-02-26 14:56:31.060,481.0,-523.0,469.0,-543.0,4.0,218.0,211,113,127,134,131
2025-02-26 14:56:31.065,392.0,-752.0,193.0,-594.0,-47.0,215.0,200,110,126,134,130
2025-02-26 14:56:31.071,265.0,-1041.0,-61.0,-596.0,-50.0,206.0,204,117,130,143,135
2025-02-26 14:56:31.076,123.0,-1261.0,-154.0,-563.0,-28.0,182.0,212,126,139,151,148
2025-02-26 14:56:31.084,-7.0,-1559.0,-222.0,-511.0,-30.0,154.0,204,120,129,146,141
2025-02-26 14:56:31.089,-40.0,-1782.0,-239.0,-478.0,-29.0,136.0,200,117,126,144,138
2025-02-26 14:56:31.096,-60.0,-1886.0,-252.0,-406.0,-21.0,127.0,203,116,126,145,140
2025-02-26 14:56:31.101,71.0,-1990.0,-195.0,-329.0,-5.0,130.0,197,113,125,145,140
2025-02-26 14:56:31.105,112.0,-1970.0,-73.0,-262.0,1.0,142.0,197,112,125,144,137
2025-02-26 14:56:31.112,168.0,-1948.0,114.0,-200.0,-2.0,153.0,198,109,121,142,135
2025-02-26 14:56:31.117,279.0,-1906.0,230.0,-142.0,-24.0,171.0,202,117,130,151,143
2025-02-26 14:56:31.121,380.0,-1674.0,260.0,-89.0,-28.0,186.0,204,119,130,151,146
2025-02-26 14:56:31.129,314.0,-1645.0,271.0,-54.0,-6.0,215.0,202,116,128,150,145
2025-02-26 14:56:31.133,301.0,-1407.0,259.0,-32.0,12.0,237.0,200,114,127,148,140
2025-02-26 14:56:31.137,354.0,-1247.0,307.0,-11.0,13.0,253.0,199,116,128,150,144
2025-02-26 14:56:31.145,328.0,-1092.0,324.0,-6.0,11.0,261.0,198,112,125,146,142
2025-02-26 14:56:31.149,333.0,-993.0,262.0,-30.0,13.0,264.0,200,117,130,150,146
2025-02-26 14:56:31.154,245.0,-774.0,306.0,-56.0,27.0,268.0,201,116,129,150,147
2025-02-26 14:56:31.158,187.0,-483.0,324.0,-55.0,41.0,264.0,202,117,129,151,146
2025-02-26 14:56:31.166,60.0,-334.0,272.0,-85.0,56.0,259.0,197,113,125,146,143
2025-02-26 14:56:31.170,31.0,-102.0,366.0,-99.0,94.0,253.0,194,112,124,144,140
2025-02-26 14:56:31.174,-58.0,17.0,287.0,-108.0,119.0,239.0,201,118,129,152,147
2025-02-26 14:56:31.179,-142.0,110.0,313.0,-106.0,115.0,218.0,201,121,133,154,145
2025-02-26 14:56:31.186,-256.0,128.0,251.0,-104.0,72.0,191.0,197,115,129,153,144
2025-02-26 14:56:31.190,-288.0,54.0,219.0,-94.0,41.0,161.0,193,113,125,149,140
2025-02-26 14:56:31.194,-351.0,28.0,152.0,-88.0,-7.0,151.0,194,113,127,149,140
2025-02-26 14:56:31.202,-367.0,-6.0,130.0,-99.0,-6.0,133.0,201,119,133,157,148
2025-02-26 14:56:31.206,-370.0,29.0,113.0,-96.0,4.0,121.0,197,118,132,156,146
2025-02-26 14:56:31.211,-418.0,-83.0,104.0,-94.0,5.0,110.0,192,112,127,151,141
2025-02-26 14:56:31.216,-447.0,-202.0,64.0,-89.0,8.0,108.0,197,117,132,156,147
2025-02-26 14:56:31.223,-462.0,-237.0,-4.0,-90.0,9.0,109.0,196,120,135,159,149
2025-02-26 14:56:31.227,-459.0,-304.0,-2.0,-91.0,8.0,111.0,198,118,132,157,148
2025-02-26 14:56:31.232,-490.0,-342.0,-60.0,-84.0,5.0,116.0,195,116,131,156,146
2025-02-26 14:56:31.240,-474.0,-365.0,-148.0,-78.0,5.0,123.0,195,116,131,158,146
2025-02-26 14:56:31.244,-554.0,-280.0,-88.0,-69.0,2.0,125.0,193,113,126,155,143
2025-02-26 14:56:31.248,-596.0,-288.0,-105.0,-64.0,-3.0,129.0,195,117,131,159,148
2025-02-26 14:56:31.253,-646.0,-209.0,-50.0,-57.0,-2.0,124.0,197,117,132,162,149
2025-02-26 14:56:31.260,-683.0,-162.0,49.0,-56.0,-2.0,116.0,195,119,131,164,149
2025-02-26 14:56:31.264,-642.0,-110.0,111.0,-58.0,3.0,109.0,194,113,127,157,144
2025-02-26 14:56:31.272,-608.0,33.0,97.0,-62.0,6.0,98.0,185,113,125,159,142
2025-02-26 14:56:31.277,-596.0,37.0,47.0,-55.0,16.0,92.0,197,118,132,163,149
2025-02-26 14:56:31.281,-604.0,107.0,50.0,-48.0,30.0,82.0,195,113,131,161,144
2025-02-26 14:56:31.286,-609.0,180.0,47.0,-35.0,36.0,72.0,190,116,127,158,143
2025-02-26 14:56:31.292,-621.0,202.0,15.0,-14.0,52.0,67.0,191,111,125,154,140
2025-02-26 14:56:31.295,-685.0,261.0,-28.0,-1.0,65.0,55.0,198,120,134,163,148
2025-02-26 14:56:31.302,-777.0,369.0,-61.0,7.0,78.0,42.0,197,118,132,161,146
2025-02-26 14:56:31.306,-852.0,510.0,-88.0,22.0,83.0,29.0,192,113,126,156,141
2025-02-26 14:56:31.311,-984.0,563.0,-140.0,24.0,91.0,20.0,196,119,132,160,146
2025-02-26 14:56:31.317,-1117.0,758.0,-215.0,15.0,91.0,3.0,197,121,134,162,148
2025-02-26 14:56:31.318,-1300.0,886.0,-216.0,13.0,95.0,-21.0,195,115,130,157,144
2025-02-26 14:56:31.326,-1353.0,1040.0,-325.0,31.0,91.0,-50.0,190,115,123,148,138
2025-02-26 14:56:31.333,-1327.0,1304.0,-355.0,54.0,72.0,-85.0,187,112,123,145,135
2025-02-26 14:56:31.338,-1196.0,1412.0,-447.0,101.0,64.0,-108.0,189,115,125,149,138
2025-02-26 14:56:31.345,-1027.0,1600.0,-365.0,138.0,67.0,-161.0,192,118,129,145,141
2025-02-26 14:56:31.348,-1179.0,1712.0,-227.0,176.0,86.0,-223.0,190,117,126,140,137
2025-02-26 14:56:31.355,-1119.0,1680.0,-212.0,238.0,93.0,-297.0,185,117,126,142,138
2025-02-26 14:56:31.362,-974.0,1566.0,-271.0,299.0,85.0,-374.0,182,119,126,141,136
2025-02-26 14:56:31.366,-581.0,1382.0,-240.0,322.0,85.0,-441.0,176,114,123,139,134
2025-02-26 14:56:31.371,-161.0,1144.0,-314.0,374.0,101.0,-494.0,175,116,123,139,133
2025-02-26 14:56:31.378,36.0,969.0,-349.0,417.0,104.0,-539.0,176,119,127,140,135
2025-02-26 14:56:31.383,121.0,546.0,-108.0,465.0,89.0,-569.0,167,112,121,135,127
2025-02-26 14:56:31.387,488.0,361.0,85.0,500.0,67.0,-569.0,164,109,117,134,126
2025-02-26 14:56:31.395,1084.0,-256.0,278.0,522.0,60.0,-544.0,169,118,125,140,134
2025-02-26 14:56:31.396,1536.0,-1184.0,694.0,538.0,63.0,-481.0,172,121,131,145,138
2025-02-26 14:56:31.403,1954.0,-2026.0,937.0,546.0,71.0,-404.0,166,117,125,140,133
2025-02-26 14:56:31.409,2033.0,-2642.0,1111.0,568.0,69.0,-326.0,162,118,121,137,133
2025-02-26 14:56:31.415,1997.0,-3433.0,1345.0,597.0,56.0,-257.0,161,114,122,135,127
2025-02-26 14:56:31.421,1989.0,-4273.0,1912.0,619.0,25.0,-169.0,160,115,124,136,127
2025-02-26 14:56:31.428,2104.0,-4920.0,2534.0,618.0,4.0,-67.0,159,112,125,137,126
2025-02-26 14:56:31.432,2239.0,-5130.0,3141.0,565.0,10.0,-4.0,161,113,123,135,126
2025-02-26 14:56:31.439,2253.0,-5013.0,3529.0,452.0,30.0,112.0,175,127,139,151,139
2025-02-26 14:56:31.445,1840.0,-3772.0,3570.0,279.0,46.0,180.0,170,120,133,143,131
2025-02-26 14:56:31.448,1300.0,-2051.0,3512.0,65.0,47.0,197.0,166,120,132,141,128
2025-02-26 14:56:31.456,683.0,-961.0,3104.0,-44.0,38.0,166.0,166,117,128,138,127
2025-02-26 14:56:31.457,419.0,-474.0,2473.0,-237.0,32.0,114.0,164,117,126,137,125
2025-02-26 14:56:31.465,286.0,-637.0,1823.0,-384.0,18.0,73.0,162,116,126,133,124
2025-02-26 14:56:31.476,233.0,-877.0,1238.0,-460.0,-4.0,60.0,163,114,127,136,124
2025-02-26 14:56:31.479,256.0,-1457.0,961.0,-474.0,-20.0,48.0,166,119,129,141,127
2025-02-26 14:56:31.482,287.0,-1924.0,699.0,-451.0,-25.0,56.0,166,120,130,142,129
2025-02-26 14:56:31.489,290.0,-2180.0,515.0,-430.0,-24.0,71.0,165,117,126,140,126
2025-02-26 14:56:31.494,314.0,-2299.0,449.0,-379.0,-20.0,93.0,164,114,123,137,124
