timestamp,ax,ay,az,gx,gy,gz,flex1,flex2,flex3,flex4,flex5,emg1,emg2,emg3
2025-02-25 17:59:22.574,-417.0,-895.0,107.0,-1.0,-1.0,-3.0,134,103,94,101,103
2025-02-25 17:59:22.577,-420.0,-895.0,113.0,0.0,-1.0,-3.0,134,105,93,102,103
2025-02-25 17:59:22.579,-423.0,-905.0,113.0,0.0,-1.0,-3.0,135,104,93,103,103
2025-02-25 17:59:22.583,-425.0,-907.0,108.0,0.0,-1.0,-3.0,134,105,93,102,104
2025-02-25 17:59:22.585,-424.0,-900.0,103.0,0.0,-1.0,-3.0,134,104,94,101,104
2025-02-25 17:59:22.587,-423.0,-908.0,110.0,0.0,-1.0,-3.0,133,104,93,102,103
2025-02-25 17:59:22.590,-424.0,-910.0,106.0,0.0,-1.0,-3.0,134,104,93,103,103
2025-02-25 17:59:22.593,-434.0,-918.0,108.0,1.0,-1.0,-3.0,134,105,96,104,104
2025-02-25 17:59:22.595,-428.0,-919.0,108.0,1.0,-1.0,-3.0,133,102,94,103,105
2025-02-25 17:59:22.597,-433.0,-923.0,116.0,1.0,-1.0,-3.0,133,104,94,103,102
2025-02-25 17:59:22.600,-438.0,-927.0,109.0,0.0,-1.0,-2.0,134,103,94,104,103
2025-02-25 17:59:22.602,-436.0,-924.0,112.0,1.0,-1.0,-2.0,133,105,94,104,104
2025-02-25 17:59:22.605,-435.0,-927.0,109.0,1.0,-1.0,-2.0,133,103,93,104,103
2025-02-25 17:59:22.607,-433.0,-927.0,111.0,0.0,-1.0,-2.0,132,104,93,102,103
2025-02-25 17:59:22.609,-433.0,-928.0,114.0,0.0,-1.0,-2.0,134,104,94,103,104
2025-02-25 17:59:22.613,-437.0,-927.0,117.0,0.0,-1.0,-1.0,134,104,93,103,104
2025-02-25 17:59:22.615,-433.0,-929.0,115.0,-1.0,-1.0,-1.0,135,105,95,103,103
2025-02-25 17:59:22.617,-429.0,-924.0,112.0,-1.0,-1.0,-1.0,134,105,94,103,104
2025-02-25 17:59:22.620,-429.0,-926.0,107.0,-1.0,-2.0,-1.0,133,104,93,102,104
2025-02-25 17:59:22.622,-421.0,-923.0,110.0,-2.0,-1.0,0.0,134,104,96,109,104
2025-02-25 17:59:22.624,-423.0,-919.0,111.0,-2.0,-1.0,0.0,134,104,93,102,104
2025-02-25 17:59:22.627,-423.0,-924.0,115.0,-2.0,-1.0,0.0,133,102,95,103,104
2025-02-25 17:59:22.629,-428.0,-920.0,119.0,-2.0,-1.0,0.0,135,104,94,104,104
2025-02-25 17:59:22.631,-417.0,-920.0,112.0,-2.0,0.0,0.0,136,104,93,104,103
2025-02-25 17:59:22.634,-420.0,-917.0,118.0,-2.0,0.0,0.0,134,105,94,104,103
2025-02-25 17:59:22.636,-424.0,-916.0,116.0,-2.0,0.0,0.0,134,104,94,102,104
2025-02-25 17:59:22.638,-427.0,-916.0,109.0,-2.0,-1.0,0.0,134,103,94,102,104
2025-02-25 17:59:22.641,-430.0,-913.0,100.0,-2.0,-1.0,0.0,134,103,94,103,103
2025-02-25 17:59:22.643,-432.0,-915.0,102.0,-1.0,-1.0,0.0,135,104,93,102,103
2025-02-25 17:59:22.645,-434.0,-912.0,108.0,-2.0,0.0,0.0,134,104,94,102,103
2025-02-25 17:59:22.648,-433.0,-906.0,109.0,-1.0,-1.0,0.0,134,102,94,102,103
2025-02-25 17:59:22.650,-435.0,-910.0,107.0,-1.0,-1.0,0.0,133,103,94,104,104
2025-02-25 17:59:22.652,-430.0,-911.0,111.0,-1.0,-1.0,0.0,134,104,94,102,104
2025-02-25 17:59:22.654,-436.0,-907.0,112.0,-2.0,-1.0,0.0,134,103,94,103,104
2025-02-25 17:59:22.657,-434.0,-905.0,108.0,-1.0,-1.0,0.0,135,103,94,103,102
2025-02-25 17:59:22.660,-434.0,-904.0,115.0,-1.0,-1.0,0.0,133,102,94,102,103
2025-02-25 17:59:22.662,-434.0,-911.0,102.0,-2.0,-1.0,0.0,134,103,93,103,103
2025-02-25 17:59:22.664,-433.0,-911.0,107.0,0.0,0.0,0.0,135,104,94,102,103
2025-02-25 17:59:22.667,-434.0,-906.0,108.0,0.0,0.0,0.0,135,103,94,103,103
2025-02-25 17:59:22.669,-439.0,-909.0,121.0,0.0,1.0,0.0,135,103,93,103,103
2025-02-25 17:59:22.671,-434.0,-913.0,120.0,0.0,1.0,1.0,137,103,94,103,104
2025-02-25 17:59:22.673,-436.0,-907.0,123.0,0.0,1.0,0.0,133,103,94,102,104
2025-02-25 17:59:22.675,-440.0,-901.0,114.0,-1.0,0.0,0.0,133,103,95,103,104
2025-02-25 17:59:22.677,-434.0,-894.0,107.0,-1.0,0.0,0.0,134,103,94,104,103
2025-02-25 17:59:22.680,-437.0,-892.0,110.0,-1.0,0.0,0.0,134,102,93,103,103
2025-02-25 17:59:22.682,-441.0,-889.0,112.0,0.0,0.0,-1.0,133,103,94,103,103
2025-02-25 17:59:22.684,-439.0,-894.0,110.0,0.0,0.0,-1.0,134,102,94,103,103
2025-02-25 17:59:22.687,-436.0,-896.0,119.0,0.0,0.0,-1.0,133,102,93,104,104
2025-02-25 17:59:22.689,-431.0,-896.0,124.0,-1.0,0.0,-1.0,133,102,94,105,104
2025-02-25 17:59:22.691,-430.0,-910.0,116.0,-1.0,0.0,-2.0,133,102,93,103,104
2025-02-25 17:59:22.694,-428.0,-911.0,112.0,-1.0,-1.0,-2.0,134,102,93,103,103
2025-02-25 17:59:22.696,-431.0,-907.0,133.0,-1.0,-1.0,-1.0,133,101,94,103,103
2025-02-25 17:59:22.698,-432.0,-916.0,116.0,-1.0,-1.0,-1.0,134,102,94,103,103
2025-02-25 17:59:22.700,-425.0,-914.0,123.0,0.0,-1.0,0.0,134,102,93,103,104
2025-02-25 17:59:22.703,-425.0,-916.0,128.0,-2.0,0.0,-1.0,135,101,93,103,103
2025-02-25 17:59:22.706,-423.0,-916.0,135.0,-1.0,0.0,0.0,134,101,93,103,103
2025-02-25 17:59:22.708,-425.0,-914.0,114.0,-1.0,0.0,0.0,135,101,94,103,104
2025-02-25 17:59:22.712,-424.0,-911.0,139.0,-2.0,1.0,-1.0,134,101,95,103,102
2025-02-25 17:59:22.713,-425.0,-913.0,125.0,-1.0,2.0,0.0,135,102,91,106,104
2025-02-25 17:59:22.716,-429.0,-918.0,113.0,0.0,1.0,0.0,136,102,94,103,103
2025-02-25 17:59:22.718,-417.0,-913.0,137.0,0.0,2.0,-1.0,135,101,93,104,103
2025-02-25 17:59:22.720,-423.0,-914.0,125.0,-1.0,2.0,0.0,134,101,93,103,103
2025-02-25 17:59:22.723,-436.0,-911.0,107.0,1.0,1.0,0.0,135,102,94,105,103
2025-02-25 17:59:22.724,-430.0,-909.0,120.0,0.0,2.0,0.0,134,100,94,103,104
2025-02-25 17:59:22.726,-433.0,-911.0,119.0,-1.0,2.0,-1.0,134,103,95,103,103
2025-02-25 17:59:22.729,-434.0,-908.0,109.0,0.0,2.0,-1.0,134,100,94,102,104
2025-02-25 17:59:22.731,-438.0,-908.0,107.0,0.0,2.0,0.0,135,101,94,103,102
2025-02-25 17:59:22.734,-437.0,-909.0,106.0,-1.0,2.0,0.0,133,101,93,103,104
2025-02-25 17:59:22.736,-435.0,-911.0,86.0,3.0,1.0,0.0,133,100,93,103,103
2025-02-25 17:59:22.738,-446.0,-905.0,113.0,0.0,2.0,0.0,134,101,94,103,103
2025-02-25 17:59:22.740,-426.0,-901.0,103.0,-1.0,2.0,0.0,132,101,94,104,102
2025-02-25 17:59:22.743,-428.0,-911.0,112.0,1.0,1.0,0.0,133,102,95,105,103
2025-02-25 17:59:22.745,-439.0,-902.0,114.0,0.0,2.0,0.0,135,101,93,103,103
2025-02-25 17:59:22.747,-435.0,-910.0,111.0,0.0,2.0,0.0,133,101,93,102,103
2025-02-25 17:59:22.750,-444.0,-908.0,95.0,0.0,3.0,0.0,133,102,93,104,101
2025-02-25 17:59:22.752,-445.0,-900.0,95.0,1.0,3.0,0.0,133,101,90,103,104
2025-02-25 17:59:22.754,-448.0,-915.0,101.0,0.0,2.0,0.0,135,102,94,101,102
2025-02-25 17:59:22.757,-458.0,-908.0,105.0,-1.0,2.0,1.0,134,97,93,102,102
2025-02-25 17:59:22.759,-458.0,-910.0,98.0,-1.0,2.0,1.0,134,101,94,102,103
2025-02-25 17:59:22.762,-457.0,-912.0,105.0,-1.0,2.0,0.0,133,101,93,103,105
2025-02-25 17:59:22.765,-461.0,-919.0,95.0,-2.0,2.0,1.0,136,101,93,103,103
2025-02-25 17:59:22.767,-458.0,-910.0,102.0,-2.0,2.0,1.0,134,100,93,103,103
2025-02-25 17:59:22.769,-452.0,-915.0,106.0,-3.0,2.0,1.0,133,100,93,103,103
2025-02-25 17:59:22.772,-449.0,-913.0,106.0,-3.0,2.0,2.0,135,101,93,104,104
2025-02-25 17:59:22.775,-444.0,-910.0,101.0,-3.0,3.0,1.0,135,101,94,103,104
2025-02-25 17:59:22.779,-445.0,-908.0,105.0,-3.0,3.0,1.0,134,102,93,102,103
2025-02-25 17:59:22.783,-442.0,-905.0,107.0,-3.0,3.0,2.0,134,101,93,105,104
2025-02-25 17:59:22.787,-439.0,-900.0,109.0,-3.0,2.0,1.0,134,102,93,104,103
2025-02-25 17:59:22.795,-436.0,-899.0,114.0,-4.0,2.0,1.0,134,102,94,104,103
2025-02-25 17:59:22.799,-433.0,-891.0,108.0,-4.0,2.0,1.0,134,101,93,103,104
2025-02-25 17:59:22.804,-429.0,-890.0,107.0,-3.0,2.0,1.0,135,102,94,104,103
2025-02-25 17:59:22.808,-422.0,-885.0,112.0,-4.0,2.0,0.0,133,102,94,104,103
2025-02-25 17:59:22.812,-416.0,-882.0,116.0,-3.0,1.0,0.0,135,101,94,103,102
2025-02-25 17:59:22.820,-414.0,-887.0,105.0,-4.0,1.0,0.0,134,101,93,102,102
2025-02-25 17:59:22.824,-392.0,-852.0,116.0,-3.0,1.0,0.0,134,102,94,103,104
2025-02-25 17:59:22.829,-403.0,-871.0,101.0,-4.0,1.0,-1.0,134,101,93,103,102
2025-02-25 17:59:22.833,-389.0,-884.0,135.0,-3.0,0.0,-2.0,134,102,95,104,104
2025-02-25 17:59:22.837,-404.0,-879.0,121.0,-2.0,1.0,-1.0,134,102,93,103,104
2025-02-25 17:59:22.845,-411.0,-881.0,113.0,-2.0,0.0,-2.0,133,100,93,104,103
2025-02-25 17:59:22.849,-396.0,-885.0,115.0,-1.0,1.0,-3.0,135,101,93,103,102
2025-02-25 17:59:22.853,-406.0,-895.0,92.0,1.0,0.0,-3.0,134,102,94,105,103
2025-02-25 17:59:22.858,-412.0,-895.0,110.0,1.0,0.0,-3.0,134,103,94,103,103
2025-02-25 17:59:22.865,-403.0,-900.0,108.0,2.0,-1.0,-3.0,133,102,94,102,103
2025-02-25 17:59:22.869,-421.0,-905.0,107.0,1.0,0.0,-4.0,134,103,94,104,105
2025-02-25 17:59:22.873,-415.0,-910.0,94.0,1.0,0.0,-4.0,134,102,93,104,104
2025-02-25 17:59:22.878,-419.0,-916.0,96.0,1.0,0.0,-4.0,133,101,94,103,104
2025-02-25 17:59:22.882,-426.0,-912.0,105.0,0.0,0.0,-4.0,136,102,94,104,104
2025-02-25 17:59:22.890,-421.0,-926.0,97.0,1.0,0.0,-3.0,134,101,93,105,103
2025-02-25 17:59:22.894,-424.0,-924.0,96.0,4.0,1.0,-3.0,135,102,94,103,103
2025-02-25 17:59:22.898,-439.0,-936.0,85.0,3.0,1.0,-3.0,134,103,93,103,103
2025-02-25 17:59:22.903,-420.0,-944.0,113.0,0.0,1.0,-3.0,134,103,94,105,104
2025-02-25 17:59:22.907,-436.0,-953.0,82.0,4.0,-2.0,-2.0,134,102,93,101,104
2025-02-25 17:59:22.914,-441.0,-942.0,125.0,-1.0,-1.0,-2.0,135,103,95,104,104
2025-02-25 17:59:22.919,-428.0,-956.0,96.0,-1.0,0.0,-1.0,133,100,94,103,104
2025-02-25 17:59:22.923,-447.0,-953.0,64.0,2.0,-1.0,0.0,133,102,94,104,104
2025-02-25 17:59:22.927,-433.0,-945.0,91.0,3.0,1.0,0.0,135,102,94,103,104
2025-02-25 17:59:22.932,-438.0,-954.0,89.0,3.0,0.0,1.0,135,102,94,103,103
2025-02-25 17:59:22.939,-440.0,-949.0,98.0,2.0,-1.0,1.0,133,102,93,103,104
2025-02-25 17:59:22.943,-451.0,-946.0,108.0,2.0,-2.0,2.0,134,101,94,103,103
2025-02-25 17:59:22.948,-441.0,-942.0,103.0,0.0,-2.0,2.0,134,102,94,103,105
2025-02-25 17:59:22.952,-441.0,-937.0,88.0,-1.0,-2.0,3.0,135,102,94,103,103
2025-02-25 17:59:22.956,-438.0,-933.0,107.0,-1.0,-2.0,3.0,135,102,94,103,103
2025-02-25 17:59:22.963,-440.0,-931.0,116.0,-1.0,-2.0,3.0,134,102,95,104,104
2025-02-25 17:59:22.968,-437.0,-924.0,106.0,-3.0,-2.0,3.0,135,103,96,104,103
2025-02-25 17:59:22.972,-436.0,-921.0,108.0,-3.0,-2.0,3.0,135,101,93,104,105
2025-02-25 17:59:22.977,-439.0,-913.0,117.0,-3.0,-2.0,3.0,134,102,95,104,104
2025-02-25 17:59:22.984,-439.0,-921.0,103.0,-2.0,-2.0,4.0,134,102,94,103,103
2025-02-25 17:59:22.988,-436.0,-905.0,110.0,-3.0,-2.0,4.0,134,101,92,103,103
2025-02-25 17:59:22.993,-444.0,-910.0,103.0,0.0,-2.0,4.0,135,103,95,102,103
2025-02-25 17:59:22.997,-440.0,-902.0,107.0,-1.0,-1.0,4.0,134,102,93,104,103
2025-02-25 17:59:23.004,-446.0,-901.0,109.0,-1.0,-1.0,4.0,134,98,94,103,104
2025-02-25 17:59:23.009,-441.0,-909.0,101.0,-1.0,-2.0,4.0,134,102,94,103,104
2025-02-25 17:59:23.013,-437.0,-904.0,105.0,-2.0,-1.0,4.0,135,103,94,103,104
2025-02-25 17:59:23.017,-441.0,-898.0,96.0,-2.0,-2.0,4.0,134,102,94,103,103
2025-02-25 17:59:23.022,-444.0,-889.0,98.0,-2.0,-2.0,4.0,135,103,94,103,103
2025-02-25 17:59:23.029,-435.0,-892.0,97.0,-2.0,-2.0,4.0,134,102,94,104,104
2025-02-25 17:59:23.033,-440.0,-886.0,96.0,-2.0,-2.0,3.0,135,103,94,104,103
2025-02-25 17:59:23.038,-446.0,-880.0,98.0,-2.0,-2.0,3.0,134,100,92,103,103
2025-02-25 17:59:23.042,-439.0,-886.0,110.0,-2.0,-3.0,3.0,138,102,93,104,104
2025-02-25 17:59:23.050,-445.0,-887.0,104.0,-2.0,-3.0,3.0,135,103,96,103,104
2025-02-25 17:59:23.054,-442.0,-888.0,103.0,-2.0,-3.0,2.0,135,103,93,104,104
2025-02-25 17:59:23.058,-444.0,-887.0,110.0,-2.0,-3.0,2.0,135,103,94,103,103
2025-02-25 17:59:23.062,-442.0,-886.0,117.0,-1.0,-3.0,2.0,134,101,94,103,103
2025-02-25 17:59:23.066,-448.0,-887.0,107.0,0.0,-3.0,1.0,134,101,94,104,104
2025-02-25 17:59:23.074,-445.0,-888.0,119.0,0.0,-3.0,1.0,134,102,93,105,105
2025-02-25 17:59:23.078,-442.0,-888.0,115.0,-1.0,-2.0,1.0,135,102,94,102,104
2025-02-25 17:59:23.082,-439.0,-885.0,106.0,0.0,-1.0,1.0,134,102,94,103,103
2025-02-25 17:59:23.086,-447.0,-886.0,119.0,0.0,-1.0,1.0,134,101,92,103,104
2025-02-25 17:59:23.094,-446.0,-885.0,123.0,0.0,-2.0,1.0,134,104,95,105,104
2025-02-25 17:59:23.098,-450.0,-884.0,119.0,0.0,-2.0,1.0,133,102,95,103,104
2025-02-25 17:59:23.102,-443.0,-883.0,117.0,0.0,-2.0,1.0,133,102,94,103,102
2025-02-25 17:59:23.107,-442.0,-884.0,123.0,-1.0,-2.0,1.0,134,102,93,103,103
2025-02-25 17:59:23.111,-440.0,-880.0,115.0,0.0,-1.0,0.0,135,101,93,104,104
2025-02-25 17:59:23.119,-444.0,-890.0,117.0,0.0,-2.0,0.0,134,101,94,102,103
2025-02-25 17:59:23.123,-443.0,-890.0,139.0,0.0,-2.0,0.0,133,101,94,103,102
2025-02-25 17:59:23.127,-454.0,-892.0,132.0,-1.0,-2.0,0.0,134,102,94,103,104
2025-02-25 17:59:23.131,-449.0,-897.0,132.0,0.0,-2.0,-1.0,135,102,90,105,105
2025-02-25 17:59:23.139,-455.0,-907.0,138.0,-1.0,-2.0,-1.0,134,102,95,102,104
2025-02-25 17:59:23.143,-461.0,-912.0,138.0,-1.0,0.0,-1.0,136,103,95,105,103
2025-02-25 17:59:23.148,-472.0,-919.0,137.0,-1.0,0.0,-1.0,135,102,94,103,103
2025-02-25 17:59:23.152,-468.0,-920.0,143.0,-1.0,1.0,0.0,134,103,94,104,104
2025-02-25 17:59:23.159,-478.0,-927.0,143.0,-1.0,2.0,0.0,133,102,93,102,105
2025-02-25 17:59:23.163,-485.0,-925.0,145.0,-1.0,2.0,1.0,135,103,95,104,103
2025-02-25 17:59:23.168,-475.0,-931.0,137.0,-1.0,3.0,1.0,133,102,95,103,103
2025-02-25 17:59:23.172,-475.0,-929.0,143.0,-1.0,3.0,2.0,134,102,94,102,104
2025-02-25 17:59:23.177,-473.0,-925.0,136.0,-2.0,4.0,2.0,134,102,95,103,102
2025-02-25 17:59:23.184,-465.0,-918.0,135.0,-2.0,3.0,3.0,135,102,94,103,104
2025-02-25 17:59:23.189,-461.0,-908.0,136.0,-5.0,2.0,2.0,134,101,93,103,103
2025-02-25 17:59:23.193,-456.0,-904.0,136.0,-7.0,2.0,2.0,134,103,93,102,104
2025-02-25 17:59:23.197,-432.0,-899.0,107.0,-7.0,1.0,1.0,134,101,94,104,103
2025-02-25 17:59:23.201,-430.0,-895.0,110.0,-10.0,1.0,0.0,134,102,94,104,104
2025-02-25 17:59:23.209,-425.0,-894.0,116.0,-10.0,0.0,0.0,134,101,94,103,104
2025-02-25 17:59:23.213,-419.0,-902.0,125.0,-12.0,0.0,-1.0,135,104,94,103,104
2025-02-25 17:59:23.218,-402.0,-912.0,126.0,-14.0,0.0,-2.0,134,102,93,103,103
2025-02-25 17:59:23.222,-402.0,-926.0,123.0,-14.0,-1.0,-2.0,134,102,94,103,103
2025-02-25 17:59:23.230,-384.0,-945.0,110.0,-16.0,-1.0,-3.0,134,102,95,104,103
2025-02-25 17:59:23.234,-391.0,-952.0,107.0,-14.0,-1.0,-3.0,134,102,94,104,104
2025-02-25 17:59:23.238,-375.0,-966.0,110.0,-13.0,0.0,-2.0,133,102,94,105,104
2025-02-25 17:59:23.246,-379.0,-992.0,97.0,-11.0,-1.0,-1.0,133,101,93,103,104
2025-02-25 17:59:23.250,-389.0,-992.0,116.0,-12.0,-1.0,-1.0,134,102,94,103,104
2025-02-25 17:59:23.254,-397.0,-1009.0,112.0,-13.0,-3.0,0.0,135,102,94,102,103
2025-02-25 17:59:23.259,-400.0,-1003.0,107.0,-13.0,-2.0,0.0,134,100,93,102,101
2025-02-25 17:59:23.266,-405.0,-1023.0,102.0,-13.0,-3.0,2.0,133,99,93,102,102
2025-02-25 17:59:23.270,-408.0,-1026.0,98.0,-8.0,-3.0,2.0,133,99,93,102,102
2025-02-25 17:59:23.275,-386.0,-1018.0,91.0,-5.0,-2.0,4.0,135,99,92,102,102
2025-02-25 17:59:23.279,-384.0,-1018.0,100.0,-4.0,-1.0,7.0,134,99,94,102,101
2025-02-25 17:59:23.287,-387.0,-1027.0,105.0,-2.0,-2.0,8.0,133,99,92,102,101
2025-02-25 17:59:23.291,-370.0,-1021.0,106.0,-3.0,-3.0,10.0,135,99,92,102,102
2025-02-25 17:59:23.295,-348.0,-1005.0,114.0,-4.0,-4.0,11.0,134,98,91,101,101
2025-02-25 17:59:23.299,-346.0,-992.0,119.0,-4.0,-4.0,12.0,134,97,93,100,102
2025-02-25 17:59:23.304,-329.0,-989.0,111.0,1.0,-4.0,12.0,134,97,91,101,99
2025-02-25 17:59:23.311,-329.0,-998.0,124.0,4.0,-2.0,14.0,134,97,91,100,101
2025-02-25 17:59:23.316,-354.0,-1001.0,113.0,5.0,-1.0,15.0,134,97,92,101,100
2025-02-25 17:59:23.320,-367.0,-1012.0,116.0,10.0,0.0,16.0,134,96,91,101,98
2025-02-25 17:59:23.324,-401.0,-1025.0,76.0,10.0,-1.0,17.0,135,96,91,101,100
2025-02-25 17:59:23.332,-412.0,-1014.0,125.0,11.0,-1.0,19.0,134,96,92,101,100
2025-02-25 17:59:23.336,-417.0,-1014.0,132.0,11.0,-1.0,21.0,134,94,90,101,98
2025-02-25 17:59:23.341,-439.0,-986.0,126.0,13.0,-1.0,23.0,135,92,90,100,98
2025-02-25 17:59:23.345,-416.0,-967.0,135.0,12.0,0.0,25.0,135,91,90,99,97
2025-02-25 17:59:23.349,-420.0,-940.0,134.0,14.0,0.0,26.0,134,90,89,98,97
2025-02-25 17:59:23.356,-434.0,-916.0,173.0,16.0,0.0,26.0,134,89,89,100,99
2025-02-25 17:59:23.360,-437.0,-891.0,191.0,12.0,1.0,25.0,134,88,86,98,98
2025-02-25 17:59:23.365,-443.0,-886.0,166.0,10.0,-2.0,24.0,133,85,87,98,97
2025-02-25 17:59:23.369,-419.0,-873.0,222.0,5.0,-5.0,23.0,134,83,87,97,97
2025-02-25 17:59:23.373,-400.0,-816.0,193.0,-1.0,-4.0,22.0,135,82,86,97,95
2025-02-25 17:59:23.381,-391.0,-837.0,161.0,-2.0,-3.0,22.0,133,80,84,95,95
2025-02-25 17:59:23.385,-374.0,-846.0,151.0,-1.0,-4.0,21.0,135,80,87,95,95
2025-02-25 17:59:23.389,-408.0,-840.0,164.0,-2.0,0.0,20.0,134,78,83,96,95
2025-02-25 17:59:23.393,-405.0,-847.0,187.0,-1.0,2.0,19.0,134,77,84,96,94
2025-02-25 17:59:23.398,-401.0,-850.0,189.0,0.0,3.0,19.0,132,73,85,96,94
2025-02-25 17:59:23.402,-415.0,-853.0,166.0,1.0,5.0,19.0,135,76,82,95,94
2025-02-25 17:59:23.409,-422.0,-851.0,180.0,-2.0,7.0,19.0,134,74,82,94,92
2025-02-25 17:59:23.413,-430.0,-844.0,154.0,0.0,10.0,19.0,135,74,81,94,94
2025-02-25 17:59:23.418,-450.0,-859.0,154.0,0.0,12.0,19.0,134,75,82,94,92
2025-02-25 17:59:23.422,-457.0,-848.0,125.0,1.0,13.0,18.0,133,74,82,88,91
2025-02-25 17:59:23.426,-472.0,-848.0,104.0,-1.0,14.0,18.0,136,74,82,93,91
2025-02-25 17:59:23.431,-480.0,-829.0,92.0,0.0,15.0,19.0,135,74,81,93,90
2025-02-25 17:59:23.439,-486.0,-829.0,88.0,0.0,15.0,19.0,134,72,80,92,90
2025-02-25 17:59:23.443,-504.0,-811.0,99.0,-2.0,15.0,20.0,134,72,81,93,91
2025-02-25 17:59:23.447,-497.0,-795.0,64.0,-2.0,14.0,19.0,134,72,80,93,90
2025-02-25 17:59:23.451,-508.0,-803.0,55.0,3.0,14.0,20.0,134,72,81,92,90
2025-02-25 17:59:23.455,-497.0,-782.0,38.0,7.0,10.0,19.0,135,72,80,92,89
2025-02-25 17:59:23.460,-503.0,-789.0,41.0,8.0,9.0,19.0,134,72,81,93,91
2025-02-25 17:59:23.463,-513.0,-778.0,67.0,10.0,8.0,19.0,134,69,80,92,90
2025-02-25 17:59:23.471,-528.0,-794.0,66.0,14.0,8.0,19.0,134,73,81,93,89
2025-02-25 17:59:23.475,-526.0,-785.0,42.0,16.0,8.0,17.0,134,72,81,90,89
2025-02-25 17:59:23.479,-521.0,-787.0,20.0,17.0,7.0,15.0,134,71,80,92,90
2025-02-25 17:59:23.484,-528.0,-796.0,44.0,19.0,9.0,14.0,134,71,81,91,89
2025-02-25 17:59:23.488,-555.0,-811.0,29.0,21.0,8.0,12.0,134,72,82,93,91
2025-02-25 17:59:23.493,-555.0,-804.0,36.0,20.0,8.0,10.0,133,70,80,91,91
2025-02-25 17:59:23.500,-571.0,-792.0,30.0,18.0,9.0,11.0,134,72,82,93,89
2025-02-25 17:59:23.504,-585.0,-795.0,58.0,16.0,10.0,10.0,135,72,81,92,90
2025-02-25 17:59:23.509,-582.0,-801.0,22.0,19.0,8.0,10.0,135,74,81,94,85
2025-02-25 17:59:23.513,-605.0,-806.0,35.0,19.0,8.0,8.0,134,73,81,92,90
2025-02-25 17:59:23.517,-616.0,-803.0,6.0,23.0,5.0,8.0,131,76,83,94,91
2025-02-25 17:59:23.521,-623.0,-813.0,26.0,21.0,4.0,7.0,133,73,81,92,90
2025-02-25 17:59:23.525,-638.0,-810.0,32.0,16.0,2.0,6.0,134,74,81,93,91
2025-02-25 17:59:23.530,-639.0,-802.0,52.0,14.0,1.0,6.0,133,74,80,94,91
2025-02-25 17:59:23.537,-644.0,-807.0,39.0,12.0,-1.0,5.0,132,73,80,92,90
2025-02-25 17:59:23.541,-639.0,-796.0,49.0,10.0,-2.0,4.0,134,73,80,94,92
2025-02-25 17:59:23.545,-640.0,-806.0,67.0,6.0,-1.0,3.0,134,75,83,94,92
2025-02-25 17:59:23.549,-630.0,-804.0,56.0,6.0,-1.0,2.0,133,75,82,93,92
2025-02-25 17:59:23.554,-626.0,-795.0,81.0,6.0,-2.0,2.0,134,75,82,94,92
2025-02-25 17:59:23.561,-615.0,-804.0,96.0,5.0,-3.0,1.0,134,77,83,94,92
2025-02-25 17:59:23.565,-607.0,-803.0,99.0,5.0,-2.0,-1.0,133,74,82,95,91
2025-02-25 17:59:23.569,-601.0,-817.0,69.0,7.0,-3.0,-1.0,133,77,83,94,90
2025-02-25 17:59:23.574,-593.0,-809.0,109.0,6.0,-2.0,-1.0,134,76,83,95,93
2025-02-25 17:59:23.578,-589.0,-800.0,109.0,4.0,-1.0,-1.0,134,76,82,94,97
2025-02-25 17:59:23.586,-585.0,-795.0,91.0,8.0,-1.0,-2.0,134,77,84,96,94
2025-02-25 17:59:23.590,-585.0,-792.0,103.0,8.0,0.0,-3.0,134,77,84,95,93
2025-02-25 17:59:23.594,-577.0,-785.0,105.0,7.0,1.0,-4.0,134,78,84,94,92
2025-02-25 17:59:23.599,-569.0,-791.0,83.0,7.0,1.0,-5.0,134,78,84,95,92
2025-02-25 17:59:23.603,-567.0,-791.0,90.0,7.0,0.0,-7.0,133,78,83,97,94
2025-02-25 17:59:23.611,-563.0,-790.0,104.0,3.0,1.0,-9.0,133,78,83,95,95
2025-02-25 17:59:23.615,-557.0,-795.0,99.0,4.0,2.0,-9.0,133,78,82,94,94
2025-02-25 17:59:23.619,-557.0,-806.0,100.0,3.0,2.0,-11.0,135,78,84,96,94
2025-02-25 17:59:23.623,-548.0,-804.0,121.0,-1.0,3.0,-12.0,133,78,84,95,95
2025-02-25 17:59:23.628,-546.0,-816.0,105.0,-3.0,3.0,-13.0,134,79,85,96,95
2025-02-25 17:59:23.635,-535.0,-827.0,96.0,-4.0,3.0,-14.0,134,79,85,95,94
2025-02-25 17:59:23.639,-528.0,-829.0,117.0,-6.0,4.0,-14.0,135,79,84,95,93
2025-02-25 17:59:23.644,-519.0,-834.0,104.0,-7.0,4.0,-14.0,134,79,86,97,96
2025-02-25 17:59:23.648,-511.0,-847.0,92.0,-6.0,4.0,-14.0,134,78,85,98,96
2025-02-25 17:59:23.652,-507.0,-860.0,96.0,-5.0,3.0,-14.0,134,78,84,95,94
2025-02-25 17:59:23.660,-495.0,-867.0,105.0,-5.0,3.0,-15.0,134,79,86,96,96
2025-02-25 17:59:23.664,-481.0,-877.0,108.0,-5.0,3.0,-14.0,134,80,86,96,95
2025-02-25 17:59:23.668,-474.0,-886.0,107.0,-4.0,2.0,-13.0,133,80,84,96,96
2025-02-25 17:59:23.673,-462.0,-892.0,110.0,-4.0,2.0,-14.0,134,81,85,96,96
2025-02-25 17:59:23.677,-452.0,-897.0,109.0,-4.0,1.0,-12.0,134,81,85,96,95
2025-02-25 17:59:23.684,-449.0,-904.0,115.0,-3.0,1.0,-11.0,134,79,85,95,95
2025-02-25 17:59:23.688,-449.0,-905.0,121.0,-4.0,1.0,-11.0,135,82,87,98,96
2025-02-25 17:59:23.692,-449.0,-915.0,122.0,-5.0,2.0,-10.0,133,80,84,96,96
2025-02-25 17:59:23.696,-453.0,-924.0,122.0,-5.0,2.0,-9.0,134,78,85,96,96
2025-02-25 17:59:23.701,-451.0,-926.0,125.0,-5.0,2.0,-8.0,133,80,86,96,97
2025-02-25 17:59:23.708,-455.0,-931.0,124.0,-5.0,3.0,-7.0,134,80,86,97,96
2025-02-25 17:59:23.713,-458.0,-938.0,125.0,-5.0,4.0,-6.0,134,80,85,96,96
2025-02-25 17:59:23.717,-456.0,-933.0,130.0,-5.0,4.0,-5.0,134,82,87,97,96
2025-02-25 17:59:23.721,-459.0,-937.0,135.0,-6.0,4.0,-4.0,134,81,84,96,96
2025-02-25 17:59:23.725,-457.0,-931.0,121.0,-6.0,4.0,-3.0,134,80,86,97,97
2025-02-25 17:59:23.733,-460.0,-935.0,120.0,-6.0,4.0,-2.0,135,80,85,96,96
2025-02-25 17:59:23.737,-474.0,-930.0,123.0,-6.0,5.0,0.0,134,81,86,96,96
2025-02-25 17:59:23.741,-469.0,-932.0,126.0,-7.0,5.0,1.0,132,80,86,95,96
2025-02-25 17:59:23.746,-471.0,-928.0,117.0,-7.0,4.0,2.0,135,82,86,97,98
2025-02-25 17:59:23.750,-473.0,-928.0,121.0,-7.0,3.0,3.0,134,82,85,97,97
2025-02-25 17:59:23.757,-476.0,-922.0,116.0,-7.0,3.0,4.0,134,81,85,96,94
2025-02-25 17:59:23.762,-484.0,-908.0,103.0,-1.0,2.0,5.0,134,82,85,96,97
2025-02-25 17:59:23.766,-498.0,-913.0,92.0,0.0,1.0,7.0,134,83,87,97,98
2025-02-25 17:59:23.770,-495.0,-919.0,101.0,-4.0,2.0,7.0,134,83,84,95,97
2025-02-25 17:59:23.774,-489.0,-896.0,87.0,-1.0,0.0,8.0,133,83,86,98,97
2025-02-25 17:59:23.779,-504.0,-896.0,95.0,-1.0,-1.0,9.0,135,82,86,97,96
2025-02-25 17:59:23.787,-502.0,-891.0,115.0,0.0,0.0,9.0,133,82,85,96,96
2025-02-25 17:59:23.791,-508.0,-888.0,109.0,0.0,0.0,9.0,134,83,87,98,97
2025-02-25 17:59:23.795,-512.0,-877.0,107.0,0.0,0.0,11.0,134,83,86,97,95
2025-02-25 17:59:23.799,-503.0,-875.0,118.0,-1.0,-1.0,11.0,135,84,86,99,97
2025-02-25 17:59:23.804,-509.0,-875.0,132.0,-3.0,-1.0,11.0,134,84,85,95,97
2025-02-25 17:59:23.811,-508.0,-861.0,126.0,-3.0,0.0,12.0,133,83,86,97,96
2025-02-25 17:59:23.815,-521.0,-872.0,107.0,-3.0,-1.0,12.0,133,84,86,98,97
2025-02-25 17:59:23.820,-519.0,-862.0,104.0,-2.0,-1.0,11.0,135,86,88,98,97
2025-02-25 17:59:23.824,-534.0,-872.0,113.0,-1.0,0.0,12.0,134,88,87,97,95
2025-02-25 17:59:23.828,-534.0,-863.0,108.0,-4.0,0.0,12.0,134,86,87,97,98
2025-02-25 17:59:23.836,-533.0,-859.0,120.0,-4.0,0.0,11.0,134,91,86,97,97
2025-02-25 17:59:23.840,-529.0,-862.0,100.0,-6.0,-1.0,11.0,132,87,85,96,97
2025-02-25 17:59:23.844,-543.0,-858.0,116.0,-4.0,-1.0,11.0,134,87,86,97,97
2025-02-25 17:59:23.848,-547.0,-853.0,130.0,-4.0,-1.0,11.0,134,89,86,97,97
2025-02-25 17:59:23.853,-557.0,-850.0,95.0,-4.0,-2.0,10.0,134,89,85,96,98
2025-02-25 17:59:23.860,-559.0,-836.0,113.0,-4.0,-2.0,10.0,134,90,87,98,99
2025-02-25 17:59:23.864,-563.0,-824.0,98.0,-3.0,-3.0,9.0,134,90,87,98,98
2025-02-25 17:59:23.868,-553.0,-826.0,98.0,-4.0,-3.0,7.0,135,92,86,98,96
2025-02-25 17:59:23.873,-547.0,-814.0,102.0,-2.0,-5.0,7.0,134,91,86,96,97
2025-02-25 17:59:23.877,-557.0,-810.0,100.0,-3.0,-3.0,6.0,133,94,88,98,98
2025-02-25 17:59:23.885,-553.0,-796.0,84.0,1.0,-5.0,5.0,134,94,86,96,98
2025-02-25 17:59:23.889,-559.0,-810.0,103.0,1.0,-5.0,5.0,134,95,88,97,98
2025-02-25 17:59:23.893,-554.0,-793.0,91.0,-1.0,-5.0,3.0,134,95,86,97,98
2025-02-25 17:59:23.898,-549.0,-801.0,97.0,0.0,-6.0,2.0,132,94,86,95,97
2025-02-25 17:59:23.902,-553.0,-813.0,109.0,-3.0,-7.0,2.0,135,95,86,97,97
2025-02-25 17:59:23.909,-544.0,-799.0,112.0,-4.0,-6.0,1.0,134,96,88,98,99
2025-02-25 17:59:23.914,-543.0,-796.0,103.0,-1.0,-5.0,0.0,132,96,87,96,98
2025-02-25 17:59:23.918,-543.0,-800.0,107.0,1.0,-4.0,1.0,134,96,89,98,98
2025-02-25 17:59:23.922,-541.0,-797.0,105.0,-1.0,-2.0,0.0,135,98,88,98,98
2025-02-25 17:59:23.926,-542.0,-800.0,112.0,-2.0,-2.0,0.0,133,97,88,97,98
2025-02-25 17:59:23.931,-545.0,-799.0,118.0,-1.0,-2.0,-1.0,135,99,89,98,98
2025-02-25 17:59:23.938,-551.0,-802.0,111.0,1.0,-2.0,-2.0,135,98,88,98,99
2025-02-25 17:59:23.942,-547.0,-807.0,109.0,0.0,-2.0,-2.0,134,98,89,98,99
2025-02-25 17:59:23.947,-549.0,-803.0,105.0,-1.0,-2.0,-3.0,135,98,88,99,99
2025-02-25 17:59:23.951,-555.0,-799.0,86.0,-1.0,-2.0,-3.0,134,101,88,99,98
2025-02-25 17:59:23.955,-557.0,-815.0,87.0,-2.0,-2.0,-3.0,133,98,88,97,98
2025-02-25 17:59:23.963,-546.0,-790.0,114.0,2.0,-2.0,-4.0,134,100,87,98,99
2025-02-25 17:59:23.967,-549.0,-801.0,89.0,2.0,-3.0,-5.0,135,102,89,99,99
2025-02-25 17:59:23.971,-552.0,-805.0,105.0,-3.0,-2.0,-7.0,134,102,89,98,99
2025-02-25 17:59:23.976,-539.0,-804.0,87.0,-2.0,-4.0,-7.0,134,101,90,99,100
2025-02-25 17:59:23.979,-540.0,-812.0,72.0,-3.0,-5.0,-9.0,133,99,88,99,100
2025-02-25 17:59:23.987,-533.0,-820.0,82.0,-4.0,-6.0,-10.0,134,100,89,99,99
2025-02-25 17:59:23.992,-547.0,-822.0,95.0,-2.0,-8.0,-12.0,134,103,89,99,99
2025-02-25 17:59:23.996,-533.0,-834.0,90.0,-2.0,-8.0,-13.0,133,100,88,98,100
2025-02-25 17:59:24.000,-527.0,-842.0,97.0,-1.0,-8.0,-13.0,134,101,89,97,98
2025-02-25 17:59:24.008,-526.0,-875.0,85.0,0.0,-8.0,-13.0,135,103,90,101,99
2025-02-25 17:59:24.012,-512.0,-883.0,81.0,0.0,-10.0,-14.0,131,102,90,99,99
2025-02-25 17:59:24.017,-507.0,-877.0,105.0,1.0,-10.0,-13.0,135,101,88,98,100
2025-02-25 17:59:24.021,-500.0,-889.0,120.0,0.0,-10.0,-13.0,135,102,90,98,99
2025-02-25 17:59:24.028,-481.0,-909.0,130.0,0.0,-10.0,-13.0,134,104,89,98,99
2025-02-25 17:59:24.033,-466.0,-906.0,129.0,6.0,-10.0,-12.0,134,101,90,98,100
2025-02-25 17:59:24.036,-466.0,-939.0,150.0,3.0,-6.0,-12.0,135,102,89,99,99
2025-02-25 17:59:24.041,-439.0,-935.0,151.0,5.0,-5.0,-12.0,134,101,92,98,100
2025-02-25 17:59:24.046,-443.0,-947.0,142.0,8.0,-4.0,-11.0,134,102,89,95,98
2025-02-25 17:59:24.053,-443.0,-959.0,169.0,3.0,-2.0,-10.0,134,101,89,99,100
2025-02-25 17:59:24.057,-436.0,-969.0,159.0,2.0,-2.0,-9.0,136,102,88,93,99
2025-02-25 17:59:24.061,-441.0,-1001.0,150.0,3.0,-2.0,-8.0,135,101,90,99,99
2025-02-25 17:59:24.066,-437.0,-993.0,138.0,2.0,-1.0,-6.0,140,106,91,102,104
2025-02-25 17:59:24.073,-439.0,-1009.0,140.0,1.0,-1.0,-5.0,138,104,91,101,105
2025-02-25 17:59:24.078,-451.0,-1033.0,147.0,-3.0,0.0,-3.0,139,103,92,102,101
2025-02-25 17:59:24.082,-441.0,-1031.0,141.0,-3.0,-1.0,-1.0,139,103,94,103,104
2025-02-25 17:59:24.086,-442.0,-1039.0,125.0,-3.0,-4.0,0.0,138,103,93,101,104
2025-02-25 17:59:24.094,-443.0,-1044.0,154.0,-6.0,-3.0,1.0,137,100,92,101,101
2025-02-25 17:59:24.098,-443.0,-1045.0,159.0,-7.0,-3.0,3.0,139,102,94,102,103
2025-02-25 17:59:24.102,-437.0,-1049.0,121.0,-7.0,-5.0,4.0,139,102,92,102,102
2025-02-25 17:59:24.107,-439.0,-1055.0,135.0,-7.0,-5.0,5.0,138,100,92,101,102
2025-02-25 17:59:24.114,-442.0,-1050.0,158.0,-10.0,-4.0,7.0,139,101,95,102,104
2025-02-25 17:59:24.119,-434.0,-1046.0,144.0,-11.0,-3.0,8.0,137,100,94,102,103
2025-02-25 17:59:24.123,-440.0,-1043.0,129.0,-11.0,-4.0,9.0,137,99,90,101,101
2025-02-25 17:59:24.127,-451.0,-1037.0,142.0,-12.0,-4.0,11.0,138,98,92,103,103
2025-02-25 17:59:24.135,-452.0,-1023.0,143.0,-15.0,-3.0,12.0,138,99,94,100,102
2025-02-25 17:59:24.140,-456.0,-1031.0,117.0,-14.0,-4.0,14.0,136,97,91,101,102
2025-02-25 17:59:24.144,-454.0,-1011.0,129.0,-14.0,-4.0,15.0,137,96,94,102,102
2025-02-25 17:59:24.151,-459.0,-1005.0,131.0,-16.0,-3.0,16.0,137,95,92,101,100
2025-02-25 17:59:24.155,-461.0,-997.0,135.0,-15.0,-2.0,17.0,138,93,89,99,100
2025-02-25 17:59:24.160,-480.0,-996.0,130.0,-8.0,-4.0,17.0,138,94,92,102,100
2025-02-25 17:59:24.164,-502.0,-978.0,159.0,-6.0,-2.0,16.0,138,95,91,101,100
2025-02-25 17:59:24.168,-497.0,-951.0,150.0,-7.0,-1.0,16.0,136,94,92,100,100
2025-02-25 17:59:24.176,-501.0,-945.0,139.0,-3.0,-4.0,16.0,137,92,91,100,101
2025-02-25 17:59:24.180,-513.0,-933.0,150.0,-1.0,-4.0,18.0,139,95,91,102,99
2025-02-25 17:59:24.184,-495.0,-914.0,171.0,0.0,-2.0,17.0,136,93,90,99,100
2025-02-25 17:59:24.189,-488.0,-907.0,165.0,1.0,-2.0,17.0,138,91,88,99,99
2025-02-25 17:59:24.196,-486.0,-885.0,161.0,4.0,0.0,17.0,138,92,93,102,101
2025-02-25 17:59:24.200,-490.0,-886.0,153.0,6.0,-1.0,18.0,138,91,90,101,101
2025-02-25 17:59:24.205,-502.0,-863.0,184.0,5.0,3.0,18.0,137,91,91,101,101
2025-02-25 17:59:24.209,-496.0,-843.0,131.0,5.0,3.0,19.0,139,91,92,102,101
2025-02-25 17:59:24.213,-490.0,-839.0,179.0,5.0,4.0,19.0,140,92,91,102,103
2025-02-25 17:59:24.217,-493.0,-835.0,170.0,2.0,5.0,20.0,137,92,90,99,100
2025-02-25 17:59:24.225,-533.0,-818.0,160.0,2.0,8.0,19.0,139,89,89,100,102
2025-02-25 17:59:24.229,-537.0,-803.0,149.0,-1.0,10.0,19.0,138,87,90,99,100
2025-02-25 17:59:24.233,-541.0,-792.0,158.0,-3.0,6.0,19.0,138,84,88,101,100
2025-02-25 17:59:24.238,-543.0,-785.0,190.0,-7.0,6.0,19.0,140,83,86,99,98
2025-02-25 17:59:24.242,-558.0,-780.0,156.0,-10.0,5.0,18.0,138,79,85,97,96
2025-02-25 17:59:24.250,-586.0,-783.0,174.0,-19.0,8.0,18.0,138,75,81,95,95
2025-02-25 17:59:24.253,-589.0,-752.0,146.0,-16.0,9.0,17.0,138,71,80,94,95
2025-02-25 17:59:24.258,-530.0,-717.0,125.0,-21.0,6.0,15.0,138,71,79,92,93
2025-02-25 17:59:24.262,-483.0,-687.0,174.0,-30.0,9.0,14.0,138,64,76,89,90
2025-02-25 17:59:24.267,-482.0,-651.0,104.0,-30.0,5.0,13.0,138,66,79,88,88
2025-02-25 17:59:24.273,-533.0,-617.0,122.0,-33.0,4.0,10.0,137,62,78,86,87
2025-02-25 17:59:24.278,-528.0,-569.0,109.0,-39.0,5.0,10.0,138,62,75,86,85
2025-02-25 17:59:24.282,-595.0,-558.0,107.0,-35.0,10.0,13.0,139,61,76,83,83
2025-02-25 17:59:24.287,-689.0,-431.0,131.0,-33.0,18.0,14.0,139,58,71,82,82
2025-02-25 17:59:24.291,-698.0,-312.0,131.0,-30.0,22.0,13.0,138,59,72,80,79
2025-02-25 17:59:24.299,-787.0,-291.0,109.0,-36.0,28.0,12.0,138,57,70,79,76
2025-02-25 17:59:24.303,-917.0,-165.0,94.0,-38.0,33.0,8.0,139,55,69,77,76
2025-02-25 17:59:24.308,-1041.0,-39.0,-12.0,-45.0,35.0,0.0,137,52,66,73,70
2025-02-25 17:59:24.312,-1168.0,26.0,40.0,-62.0,44.0,-5.0,138,54,64,76,69
2025-02-25 17:59:24.315,-1150.0,244.0,94.0,-70.0,54.0,-15.0,137,50,61,72,66
2025-02-25 17:59:24.323,-1175.0,331.0,175.0,-96.0,61.0,-21.0,136,52,65,71,61
2025-02-25 17:59:24.327,-1194.0,213.0,155.0,-117.0,66.0,-40.0,137,52,62,69,59
2025-02-25 17:59:24.332,-1295.0,427.0,56.0,-122.0,75.0,-53.0,136,51,61,71,58
2025-02-25 17:59:24.336,-1204.0,591.0,40.0,-123.0,92.0,-56.0,135,50,59,69,56
2025-02-25 17:59:24.344,-1077.0,686.0,-285.0,-117.0,124.0,-62.0,134,51,59,71,56
2025-02-25 17:59:24.348,-1008.0,799.0,-267.0,-104.0,158.0,-68.0,133,50,57,70,56
2025-02-25 17:59:24.352,-989.0,889.0,-378.0,-55.0,171.0,-84.0,132,51,57,71,56
2025-02-25 17:59:24.356,-909.0,1000.0,-463.0,21.0,197.0,-95.0,129,48,56,71,54
2025-02-25 17:59:24.364,-737.0,1040.0,-510.0,119.0,204.0,-135.0,126,51,58,73,56
2025-02-25 17:59:24.369,-786.0,1296.0,-831.0,171.0,182.0,-178.0,124,50,57,72,56
2025-02-25 17:59:24.373,-835.0,1324.0,-1054.0,189.0,143.0,-229.0,121,51,58,73,56
2025-02-25 17:59:24.380,-1001.0,1409.0,-1142.0,188.0,120.0,-300.0,120,48,57,74,55
2025-02-25 17:59:24.385,-1282.0,1184.0,-1032.0,175.0,63.0,-369.0,117,49,57,72,53
2025-02-25 17:59:24.389,-1229.0,1189.0,-871.0,159.0,-3.0,-404.0,118,50,56,70,54
2025-02-25 17:59:24.397,-950.0,1031.0,-796.0,131.0,-82.0,-475.0,117,49,56,72,54
2025-02-25 17:59:24.401,-400.0,956.0,-804.0,116.0,-156.0,-544.0,116,53,58,71,55
2025-02-25 17:59:24.405,192.0,716.0,-578.0,86.0,-212.0,-598.0,114,49,55,74,54
2025-02-25 17:59:24.409,425.0,191.0,-154.0,51.0,-233.0,-616.0,116,52,57,73,58
2025-02-25 17:59:24.417,979.0,-165.0,250.0,12.0,-269.0,-630.0,114,52,57,74,55
2025-02-25 17:59:24.421,1653.0,-912.0,416.0,-13.0,-276.0,-604.0,114,53,62,73,55
2025-02-25 17:59:24.426,2218.0,-2032.0,844.0,-24.0,-231.0,-521.0,112,51,57,72,55
2025-02-25 17:59:24.433,2412.0,-3295.0,1446.0,-22.0,-187.0,-388.0,111,51,59,73,58
2025-02-25 17:59:24.438,2800.0,-4434.0,1921.0,26.0,-87.0,-315.0,110,53,61,77,55
2025-02-25 17:59:24.442,3189.0,-4828.0,2021.0,112.0,6.0,-176.0,110,51,59,71,56
2025-02-25 17:59:24.449,3194.0,-5242.0,2012.0,204.0,106.0,-61.0,108,49,62,72,56
2025-02-25 17:59:24.454,2816.0,-5217.0,1757.0,247.0,192.0,26.0,108,51,63,71,52
2025-02-25 17:59:24.458,2643.0,-4832.0,1341.0,332.0,222.0,86.0,109,52,64,67,51
2025-02-25 17:59:24.462,2136.0,-4594.0,950.0,372.0,251.0,113.0,106,51,64,66,50
2025-02-25 17:59:24.471,1584.0,-3819.0,741.0,329.0,257.0,162.0,109,52,65,65,52
2025-02-25 17:59:24.474,1316.0,-2738.0,667.0,301.0,215.0,185.0,108,54,68,65,50
2025-02-25 17:59:24.479,1004.0,-1674.0,490.0,196.0,197.0,180.0,107,52,65,64,52
2025-02-25 17:59:24.483,619.0,-1460.0,480.0,103.0,146.0,154.0,107,51,63,65,49
2025-02-25 17:59:24.491,514.0,-1296.0,385.0,4.0,101.0,139.0,107,52,63,65,52
2025-02-25 17:59:24.495,417.0,-1296.0,395.0,-48.0,74.0,113.0,106,52,63,66,53
2025-02-25 17:59:24.500,520.0,-1322.0,221.0,-119.0,45.0,84.0,105,52,60,67,52
2025-02-25 17:59:24.504,373.0,-1674.0,354.0,-161.0,22.0,84.0,104,51,59,69,51
2025-02-25 17:59:24.511,294.0,-2017.0,238.0,-177.0,-5.0,83.0,103,51,61,67,53
2025-02-25 17:59:24.516,369.0,-2089.0,260.0,-176.0,2.0,98.0,104,53,62,73,53
2025-02-25 17:59:24.520,450.0,-2256.0,443.0,-161.0,-10.0,106.0,102,52,60,69,52
2025-02-25 17:59:24.524,461.0,-2357.0,477.0,-148.0,-5.0,131.0,103,51,60,55,54
2025-02-25 17:59:24.532,459.0,-2114.0,500.0,-127.0,-11.0,155.0,105,53,64,68,53
2025-02-25 17:59:24.536,503.0,-1931.0,580.0,-119.0,-8.0,181.0,103,50,59,72,54
2025-02-25 17:59:24.540,357.0,-1792.0,561.0,-111.0,-5.0,194.0,104,54,60,68,52
2025-02-25 17:59:24.545,362.0,-1619.0,552.0,-100.0,-9.0,198.0,104,53,61,72,53
2025-02-25 17:59:24.552,376.0,-1380.0,501.0,-94.0,-6.0,211.0,105,52,60,69,53
2025-02-25 17:59:24.557,314.0,-1220.0,470.0,-92.0,-9.0,214.0,105,53,61,69,52
2025-02-25 17:59:24.561,270.0,-1170.0,393.0,-93.0,2.0,215.0,103,52,61,70,52
2025-02-25 17:59:24.565,256.0,-961.0,349.0,-93.0,0.0,214.0,104,53,61,67,52
2025-02-25 17:59:24.569,69.0,-838.0,272.0,-99.0,-4.0,209.0,104,53,62,65,52
2025-02-25 17:59:24.577,123.0,-630.0,219.0,-110.0,-3.0,207.0,103,51,61,66,53
2025-02-25 17:59:24.581,16.0,-664.0,188.0,-117.0,-9.0,203.0,105,52,63,65,55
2025-02-25 17:59:24.586,-52.0,-644.0,148.0,-118.0,-14.0,202.0,103,54,62,65,53
2025-02-25 17:59:24.590,-42.0,-613.0,119.0,-123.0,-12.0,204.0,104,51,63,58,52
2025-02-25 17:59:24.598,-23.0,-680.0,115.0,-122.0,-11.0,205.0,104,51,62,64,53
2025-02-25 17:59:24.602,-89.0,-628.0,117.0,-114.0,-8.0,209.0,104,54,63,63,58
2025-02-25 17:59:24.606,-71.0,-630.0,150.0,-111.0,-1.0,213.0,105,54,63,58,54
2025-02-25 17:59:24.611,-138.0,-577.0,135.0,-103.0,7.0,217.0,104,53,62,64,55
2025-02-25 17:59:24.618,-130.0,-544.0,157.0,-93.0,18.0,218.0,106,54,65,66,54
2025-02-25 17:59:24.622,-202.0,-506.0,144.0,-90.0,30.0,218.0,106,53,63,66,54
2025-02-25 17:59:24.626,-189.0,-435.0,96.0,-76.0,36.0,215.0,104,52,60,65,53
2025-02-25 17:59:24.631,-319.0,-355.0,60.0,-63.0,48.0,214.0,105,50,63,66,57
2025-02-25 17:59:24.635,-422.0,-316.0,25.0,-50.0,60.0,207.0,105,53,61,65,55
2025-02-25 17:59:24.643,-516.0,-225.0,-35.0,-44.0,57.0,196.0,105,55,62,65,53
2025-02-25 17:59:24.647,-489.0,-186.0,-93.0,-34.0,62.0,190.0,105,52,63,62,53
2025-02-25 17:59:24.651,-656.0,-119.0,-140.0,-32.0,67.0,181.0,107,53,62,73,56
2025-02-25 17:59:24.656,-698.0,-11.0,-213.0,-30.0,60.0,167.0,108,56,65,72,58
2025-02-25 17:59:24.663,-746.0,74.0,-257.0,-33.0,56.0,157.0,111,65,69,75,64
2025-02-25 17:59:24.667,-822.0,117.0,-317.0,-39.0,52.0,151.0,114,61,69,79,63
2025-02-25 17:59:24.671,-845.0,191.0,-323.0,-41.0,39.0,138.0,113,60,70,77,63
2025-02-25 17:59:24.676,-871.0,229.0,-338.0,-43.0,36.0,124.0,112,58,67,76,60
2025-02-25 17:59:24.683,-889.0,251.0,-355.0,-49.0,29.0,118.0,112,61,68,74,60
2025-02-25 17:59:24.688,-900.0,288.0,-359.0,-51.0,20.0,104.0,114,61,73,81,65
2025-02-25 17:59:24.692,-914.0,330.0,-372.0,-52.0,14.0,92.0,118,67,73,83,68
2025-02-25 17:59:24.696,-922.0,362.0,-374.0,-55.0,13.0,82.0,111,60,71,76,62
2025-02-25 17:59:24.701,-935.0,380.0,-372.0,-56.0,8.0,78.0,112,62,66,82,63
2025-02-25 17:59:24.709,-932.0,431.0,-371.0,-55.0,6.0,69.0,110,58,66,74,59
2025-02-25 17:59:24.713,-931.0,482.0,-372.0,-51.0,6.0,62.0,109,52,67,75,58
2025-02-25 17:59:24.717,-940.0,516.0,-369.0,-46.0,8.0,58.0,110,57,65,72,59
2025-02-25 17:59:24.721,-938.0,550.0,-368.0,-40.0,15.0,47.0,108,56,66,74,59
2025-02-25 17:59:24.725,-926.0,633.0,-344.0,-29.0,18.0,34.0,108,55,65,72,58
2025-02-25 17:59:24.733,-968.0,696.0,-340.0,-14.0,24.0,26.0,110,62,66,74,63
2025-02-25 17:59:24.737,-972.0,786.0,-354.0,6.0,33.0,6.0,108,58,65,75,58
2025-02-25 17:59:24.741,-996.0,861.0,-391.0,18.0,35.0,-17.0,114,54,65,73,57
2025-02-25 17:59:24.746,-1039.0,894.0,-442.0,40.0,41.0,-28.0,109,56,64,73,59
2025-02-25 17:59:24.753,-1071.0,956.0,-458.0,61.0,46.0,-50.0,110,56,64,73,59
2025-02-25 17:59:24.758,-1151.0,1021.0,-517.0,70.0,46.0,-70.0,109,54,63,72,57
2025-02-25 17:59:24.762,-1171.0,1075.0,-553.0,89.0,45.0,-81.0,105,57,66,76,58
2025-02-25 17:59:24.766,-1209.0,1170.0,-575.0,103.0,43.0,-106.0,109,55,65,73,59
2025-02-25 17:59:24.774,-1215.0,1276.0,-603.0,110.0,37.0,-137.0,108,57,64,74,60
2025-02-25 17:59:24.778,-1221.0,1391.0,-637.0,122.0,24.0,-177.0,109,56,64,76,60
2025-02-25 17:59:24.782,-1209.0,1463.0,-645.0,128.0,16.0,-224.0,109,57,62,74,58
2025-02-25 17:59:24.790,-1183.0,1488.0,-616.0,125.0,-4.0,-250.0,111,57,66,72,58
2025-02-25 17:59:24.794,-1083.0,1452.0,-619.0,116.0,-33.0,-311.0,110,57,67,75,60
2025-02-25 17:59:24.798,-938.0,1406.0,-560.0,100.0,-68.0,-375.0,111,60,66,74,59
2025-02-25 17:59:24.803,-761.0,1283.0,-506.0,88.0,-107.0,-442.0,111,56,65,74,61
2025-02-25 17:59:24.810,-625.0,1101.0,-449.0,64.0,-128.0,-507.0,109,58,66,76,59
2025-02-25 17:59:24.815,-344.0,945.0,-320.0,43.0,-172.0,-537.0,113,58,64,75,59
2025-02-25 17:59:24.820,86.0,533.0,-254.0,26.0,-210.0,-589.0,110,59,64,74,61
2025-02-25 17:59:24.824,537.0,-73.0,-125.0,24.0,-242.0,-617.0,111,58,64,76,61
2025-02-25 17:59:24.831,750.0,-892.0,50.0,39.0,-256.0,-618.0,110,56,65,76,59
2025-02-25 17:59:24.836,1199.0,-1369.0,479.0,76.0,-265.0,-603.0,112,59,65,76,62
2025-02-25 17:59:24.839,1864.0,-2342.0,719.0,119.0,-243.0,-538.0,112,57,63,77,62
2025-02-25 17:59:24.847,2278.0,-3251.0,1085.0,165.0,-184.0,-427.0,111,58,66,77,61
2025-02-25 17:59:24.859,2579.0,-3972.0,1466.0,180.0,-99.0,-294.0,112,59,62,74,61
2025-02-25 17:59:24.861,2691.0,-4398.0,1688.0,206.0,-55.0,-171.0,111,57,65,75,62
2025-02-25 17:59:24.864,2847.0,-4558.0,1778.0,241.0,23.0,-68.0,110,56,67,74,61
2025-02-25 17:59:24.868,2805.0,-4567.0,1639.0,250.0,95.0,-26.0,110,56,69,72,60
2025-02-25 17:59:24.872,2525.0,-4362.0,1581.0,261.0,132.0,37.0,111,57,69,69,59
2025-02-25 17:59:24.876,2062.0,-4057.0,1309.0,229.0,148.0,85.0,111,54,68,69,59
2025-02-25 17:59:24.884,1888.0,-3483.0,1121.0,181.0,153.0,126.0,109,54,67,66,58
2025-02-25 17:59:24.889,1619.0,-3214.0,914.0,114.0,143.0,135.0,110,54,68,65,54
2025-02-25 17:59:24.893,1132.0,-2725.0,868.0,25.0,123.0,169.0,111,55,69,67,58
2025-02-25 17:59:24.897,831.0,-2164.0,615.0,-12.0,93.0,172.0,108,55,74,67,63
2025-02-25 17:59:24.905,899.0,-2024.0,481.0,-74.0,59.0,169.0,110,54,68,66,56
2025-02-25 17:59:24.909,580.0,-2034.0,397.0,-129.0,27.0,171.0,110,54,67,66,57
2025-02-25 17:59:24.914,547.0,-1933.0,320.0,-164.0,4.0,168.0,111,54,70,67,59
2025-02-25 17:59:24.918,444.0,-1929.0,245.0,-175.0,-19.0,170.0,110,56,70,69,57
2025-02-25 17:59:24.926,406.0,-1998.0,223.0,-183.0,-26.0,176.0,110,56,67,69,56
2025-02-25 17:59:24.930,414.0,-2075.0,245.0,-178.0,-36.0,179.0,109,56,67,70,58
2025-02-25 17:59:24.934,295.0,-2036.0,200.0,-165.0,-33.0,193.0,112,59,68,73,60
2025-02-25 17:59:24.942,351.0,-1975.0,274.0,-160.0,-28.0,209.0,109,57,68,72,58
2025-02-25 17:59:24.946,351.0,-1952.0,292.0,-142.0,-24.0,231.0,109,55,70,71,57
2025-02-25 17:59:24.950,242.0,-1871.0,331.0,-114.0,-31.0,238.0,110,53,65,72,57
2025-02-25 17:59:24.954,311.0,-1720.0,341.0,-96.0,-18.0,255.0,110,56,67,74,59
2025-02-25 17:59:24.962,159.0,-1566.0,349.0,-70.0,-25.0,269.0,111,54,67,73,57
2025-02-25 17:59:24.966,137.0,-1363.0,345.0,-65.0,-26.0,277.0,110,54,65,73,56
2025-02-25 17:59:24.971,98.0,-1244.0,362.0,-43.0,-17.0,281.0,110,54,67,71,55
2025-02-25 17:59:24.974,52.0,-1128.0,320.0,-41.0,-2.0,288.0,111,55,67,72,59
2025-02-25 17:59:24.982,-14.0,-860.0,293.0,-38.0,-3.0,290.0,110,54,66,71,58
2025-02-25 17:59:24.987,-117.0,-605.0,311.0,-33.0,-10.0,281.0,109,54,67,72,58
2025-02-25 17:59:24.991,-231.0,-586.0,241.0,-30.0,-6.0,277.0,111,56,66,71,58
2025-02-25 17:59:24.995,-207.0,-435.0,257.0,-29.0,-2.0,272.0,110,54,67,71,57
2025-02-25 17:59:25.003,-263.0,-296.0,168.0,-34.0,15.0,264.0,111,55,66,70,57
2025-02-25 17:59:25.007,-366.0,-177.0,180.0,-32.0,19.0,260.0,112,52,66,70,59
2025-02-25 17:59:25.012,-398.0,-116.0,162.0,-35.0,23.0,253.0,111,55,64,71,58
2025-02-25 17:59:25.016,-435.0,-90.0,112.0,-30.0,31.0,239.0,113,57,64,74,60
2025-02-25 17:59:25.020,-446.0,-34.0,134.0,-24.0,36.0,222.0,111,53,62,72,57
2025-02-25 17:59:25.028,-448.0,-36.0,81.0,-35.0,51.0,217.0,113,54,64,74,59
2025-02-25 17:59:25.032,-501.0,61.0,92.0,-33.0,57.0,203.0,112,56,65,72,60
2025-02-25 17:59:25.036,-462.0,32.0,95.0,-53.0,54.0,193.0,113,54,63,72,59
2025-02-25 17:59:25.040,-537.0,44.0,96.0,-48.0,54.0,184.0,113,54,63,74,60
2025-02-25 17:59:25.045,-454.0,114.0,-31.0,-54.0,74.0,166.0,114,54,65,74,61
2025-02-25 17:59:25.049,-569.0,-8.0,1.0,-63.0,79.0,154.0,114,53,62,73,59
2025-02-25 17:59:25.057,-597.0,148.0,4.0,-77.0,77.0,150.0,115,54,64,74,60
2025-02-25 17:59:25.061,-574.0,82.0,73.0,-73.0,68.0,135.0,114,54,62,73,60
2025-02-25 17:59:25.065,-645.0,98.0,-135.0,-88.0,75.0,130.0,114,54,64,73,61
2025-02-25 17:59:25.069,-743.0,94.0,-179.0,-103.0,71.0,128.0,114,53,63,73,60
2025-02-25 17:59:25.077,-809.0,101.0,-222.0,-126.0,60.0,127.0,114,55,63,73,61
2025-02-25 17:59:25.081,-822.0,165.0,-253.0,-136.0,59.0,128.0,115,54,63,73,62
2025-02-25 17:59:25.086,-782.0,229.0,-280.0,-146.0,56.0,127.0,115,55,61,73,59
2025-02-25 17:59:25.090,-866.0,301.0,-329.0,-153.0,48.0,126.0,116,55,62,74,62
2025-02-25 17:59:25.098,-914.0,438.0,-388.0,-162.0,37.0,127.0,115,54,63,74,62
2025-02-25 17:59:25.102,-890.0,586.0,-400.0,-173.0,32.0,126.0,116,53,63,75,60
2025-02-25 17:59:25.106,-912.0,645.0,-417.0,-187.0,22.0,126.0,116,55,64,73,62
2025-02-25 17:59:25.110,-886.0,792.0,-476.0,-197.0,-2.0,122.0,117,54,67,73,61
2025-02-25 17:59:25.118,-953.0,885.0,-441.0,-196.0,-17.0,111.0,116,56,65,73,61
2025-02-25 17:59:25.122,-980.0,1013.0,-501.0,-195.0,-46.0,103.0,117,52,64,73,62
2025-02-25 17:59:25.126,-1269.0,1041.0,-561.0,-159.0,-74.0,93.0,120,56,67,74,62
2025-02-25 17:59:25.134,-1199.0,1498.0,-534.0,-114.0,-91.0,49.0,121,55,60,75,63
2025-02-25 17:59:25.138,-1231.0,1805.0,-465.0,-83.0,-87.0,-15.0,122,55,63,73,61
2025-02-25 17:59:25.143,-1315.0,1978.0,-470.0,-17.0,-81.0,-96.0,121,54,67,75,60
2025-02-25 17:59:25.147,-1287.0,2247.0,-574.0,55.0,-55.0,-175.0,123,54,64,73,62
2025-02-25 17:59:25.155,-1221.0,2339.0,-506.0,119.0,-45.0,-211.0,127,56,65,76,63
2025-02-25 17:59:25.159,-1254.0,2462.0,-448.0,169.0,-44.0,-271.0,126,56,64,75,63
2025-02-25 17:59:25.163,-1271.0,2481.0,-379.0,193.0,-44.0,-316.0,127,53,67,76,63
2025-02-25 17:59:25.171,-1215.0,2451.0,-302.0,208.0,-54.0,-359.0,127,55,63,76,63
2025-02-25 17:59:25.176,-1180.0,2292.0,-335.0,226.0,-65.0,-391.0,127,56,63,74,62
2025-02-25 17:59:25.180,-1080.0,2112.0,-306.0,241.0,-79.0,-409.0,127,55,65,75,62
2025-02-25 17:59:25.188,-872.0,2090.0,-338.0,242.0,-90.0,-448.0,130,56,65,77,65
2025-02-25 17:59:25.192,-762.0,1961.0,-351.0,229.0,-97.0,-489.0,134,61,68,79,65
2025-02-25 17:59:25.196,-722.0,1826.0,-288.0,215.0,-112.0,-542.0,134,59,68,80,67
2025-02-25 17:59:25.204,-410.0,1519.0,-302.0,187.0,-149.0,-599.0,134,57,64,79,65
2025-02-25 17:59:25.208,-243.0,1251.0,-323.0,151.0,-180.0,-639.0,134,58,67,79,65
2025-02-25 17:59:25.212,232.0,1031.0,-250.0,112.0,-250.0,-651.0,139,59,67,81,69
2025-02-25 17:59:25.217,785.0,620.0,-211.0,70.0,-318.0,-672.0,142,65,73,85,72
2025-02-25 17:59:25.225,1705.0,-40.0,-22.0,49.0,-357.0,-672.0,144,62,70,83,72
2025-02-25 17:59:25.228,2553.0,-1111.0,438.0,-4.0,-352.0,-652.0,145,62,71,84,72
2025-02-25 17:59:25.233,2735.0,-2489.0,763.0,-51.0,-312.0,-604.0,149,63,80,85,74
2025-02-25 17:59:25.241,2952.0,-3049.0,1060.0,-45.0,-267.0,-564.0,148,64,72,80,73
2025-02-25 17:59:25.245,3239.0,-4241.0,1221.0,20.0,-222.0,-460.0,149,62,72,81,73
2025-02-25 17:59:25.249,3816.0,-5487.0,1628.0,92.0,-154.0,-324.0,151,61,75,83,75
2025-02-25 17:59:25.257,4146.0,-6172.0,2375.0,103.0,-30.0,-190.0,151,61,74,80,71
2025-02-25 17:59:25.261,4110.0,-6194.0,2375.0,140.0,35.0,-74.0,148,64,74,77,71
2025-02-25 17:59:25.265,3848.0,-5524.0,1937.0,202.0,162.0,-30.0,151,60,73,75,70
2025-02-25 17:59:25.270,3354.0,-5254.0,1429.0,206.0,256.0,43.0,153,59,76,74,68
2025-02-25 17:59:25.277,2684.0,-4432.0,1116.0,157.0,293.0,107.0,154,60,77,74,68
2025-02-25 17:59:25.282,1929.0,-3627.0,443.0,129.0,325.0,142.0,153,59,77,75,67
2025-02-25 17:59:25.286,1385.0,-2886.0,-81.0,137.0,280.0,162.0,153,58,78,73,67
2025-02-25 17:59:25.294,1059.0,-2440.0,-339.0,129.0,112.0,157.0,152,60,76,73,67
2025-02-25 17:59:25.298,627.0,-1968.0,-397.0,26.0,52.0,157.0,154,60,78,76,66
2025-02-25 17:59:25.303,411.0,-2093.0,-424.0,-42.0,44.0,171.0,152,53,76,73,60
2025-02-25 17:59:25.307,362.0,-1999.0,-399.0,-81.0,10.0,188.0,151,58,72,73,66
2025-02-25 17:59:25.314,218.0,-1957.0,-412.0,-173.0,-7.0,188.0,150,65,72,73,62
2025-02-25 17:59:25.318,312.0,-1969.0,-217.0,-145.0,4.0,177.0,152,56,71,74,64
2025-02-25 17:59:25.323,230.0,-2086.0,-123.0,-122.0,15.0,185.0,151,69,72,76,62
2025-02-25 17:59:25.327,262.0,-2354.0,17.0,-67.0,17.0,193.0,153,62,72,78,66
2025-02-25 17:59:25.334,222.0,-2145.0,236.0,2.0,-38.0,196.0,154,61,73,74,64
2025-02-25 17:59:25.339,467.0,-1921.0,333.0,-18.0,-16.0,211.0,152,59,73,80,65
2025-02-25 17:59:25.343,298.0,-1673.0,349.0,-19.0,66.0,217.0,157,58,70,83,63
2025-02-25 17:59:25.347,358.0,-1525.0,474.0,-40.0,87.0,237.0,150,58,71,79,65
2025-02-25 17:59:25.355,299.0,-1431.0,457.0,-52.0,65.0,245.0,155,62,81,82,68
2025-02-25 17:59:25.359,247.0,-1182.0,430.0,-53.0,49.0,252.0,152,60,73,79,65
2025-02-25 17:59:25.363,290.0,-914.0,445.0,-95.0,52.0,252.0,151,61,78,79,65
2025-02-25 17:59:25.367,174.0,-843.0,290.0,-119.0,88.0,255.0,150,57,71,77,64
2025-02-25 17:59:25.372,94.0,-683.0,313.0,-121.0,96.0,258.0,152,60,66,77,66
2025-02-25 17:59:25.380,-88.0,-567.0,263.0,-109.0,59.0,255.0,152,59,73,77,65
2025-02-25 17:59:25.384,-91.0,-354.0,383.0,-83.0,18.0,244.0,150,53,70,75,64
2025-02-25 17:59:25.388,-85.0,-319.0,302.0,-84.0,-25.0,223.0,151,59,72,74,64
2025-02-25 17:59:25.392,-229.0,-154.0,258.0,-71.0,-41.0,203.0,151,57,68,74,65
2025-02-25 17:59:25.401,-240.0,-140.0,285.0,-83.0,-34.0,184.0,150,58,72,73,66
2025-02-25 17:59:25.404,-280.0,-103.0,289.0,-84.0,-23.0,176.0,148,59,71,73,63
2025-02-25 17:59:25.408,-328.0,-106.0,292.0,-87.0,-19.0,163.0,152,60,72,74,66
2025-02-25 17:59:25.413,-364.0,-199.0,314.0,-82.0,-25.0,156.0,153,59,74,76,66
2025-02-25 17:59:25.421,-390.0,-238.0,289.0,-72.0,-23.0,149.0,150,59,72,74,65
2025-02-25 17:59:25.425,-473.0,-241.0,216.0,-83.0,7.0,150.0,151,60,72,75,65
2025-02-25 17:59:25.430,-452.0,-241.0,221.0,-85.0,26.0,143.0,152,59,71,74,66
2025-02-25 17:59:25.434,-501.0,-193.0,211.0,-79.0,25.0,138.0,152,59,72,75,64
2025-02-25 17:59:25.442,-489.0,-167.0,173.0,-80.0,31.0,135.0,152,56,70,75,66
2025-02-25 17:59:25.446,-601.0,-262.0,99.0,-68.0,45.0,133.0,155,63,76,78,69
2025-02-25 17:59:25.450,-628.0,-181.0,36.0,-65.0,48.0,134.0,154,62,73,78,68
2025-02-25 17:59:25.454,-702.0,-108.0,9.0,-54.0,46.0,129.0,153,61,73,78,67
2025-02-25 17:59:25.458,-763.0,-56.0,-19.0,-42.0,38.0,129.0,153,61,72,78,66
2025-02-25 17:59:25.466,-792.0,-19.0,-91.0,-36.0,29.0,120.0,152,62,73,78,67
2025-02-25 17:59:25.470,-845.0,205.0,-145.0,-40.0,29.0,113.0,154,62,74,78,68
2025-02-25 17:59:25.474,-932.0,243.0,-214.0,-16.0,23.0,105.0,154,63,74,80,68
2025-02-25 17:59:25.478,-1013.0,406.0,-190.0,-10.0,15.0,89.0,157,64,75,79,68
2025-02-25 17:59:25.483,-993.0,645.0,-200.0,-7.0,11.0,62.0,153,60,74,78,66
2025-02-25 17:59:25.490,-1024.0,738.0,-261.0,0.0,10.0,49.0,153,62,74,79,64
2025-02-25 17:59:25.495,-1052.0,861.0,-257.0,-6.0,8.0,26.0,155,63,74,81,68
2025-02-25 17:59:25.499,-1156.0,867.0,-326.0,-9.0,-3.0,4.0,152,61,74,79,67
2025-02-25 17:59:25.503,-1175.0,879.0,-281.0,-7.0,-4.0,-8.0,153,62,74,78,65
2025-02-25 17:59:25.511,-1213.0,804.0,-293.0,-3.0,-7.0,-27.0,152,63,75,80,69
2025-02-25 17:59:25.516,-1177.0,717.0,-272.0,5.0,-6.0,-45.0,154,63,75,81,68
2025-02-25 17:59:25.520,-1156.0,718.0,-179.0,5.0,-4.0,-53.0,154,61,70,78,67
2025-02-25 17:59:25.524,-1100.0,678.0,-178.0,26.0,-8.0,-69.0,157,67,77,84,72
2025-02-25 17:59:25.528,-1078.0,555.0,-100.0,29.0,-4.0,-86.0,158,64,76,81,75
2025-02-25 17:59:25.536,-1064.0,489.0,-120.0,66.0,-2.0,-107.0,158,70,80,84,73
2025-02-25 17:59:25.540,-1031.0,423.0,-104.0,78.0,5.0,-114.0,160,68,79,86,75
2025-02-25 17:59:25.544,-1044.0,436.0,-77.0,90.0,9.0,-129.0,160,69,83,86,74
2025-02-25 17:59:25.549,-1024.0,527.0,-111.0,99.0,7.0,-141.0,157,67,79,85,71
2025-02-25 17:59:25.556,-1056.0,502.0,-99.0,114.0,0.0,-148.0,158,67,79,85,74
2025-02-25 17:59:25.560,-1035.0,496.0,-118.0,118.0,1.0,-165.0,159,68,78,85,73
2025-02-25 17:59:25.564,-1029.0,606.0,-79.0,120.0,5.0,-185.0,158,68,81,86,73
2025-02-25 17:59:25.568,-964.0,604.0,-55.0,120.0,7.0,-206.0,157,65,79,85,73
2025-02-25 17:59:25.576,-920.0,605.0,-52.0,134.0,1.0,-221.0,158,68,81,85,74
2025-02-25 17:59:25.580,-797.0,636.0,-20.0,144.0,1.0,-249.0,158,69,82,86,74
2025-02-25 17:59:25.585,-784.0,572.0,20.0,143.0,-2.0,-279.0,156,65,76,84,72
2025-02-25 17:59:25.590,-649.0,562.0,12.0,145.0,-12.0,-294.0,156,66,76,85,72
2025-02-25 17:59:25.594,-504.0,490.0,45.0,135.0,-32.0,-323.0,159,69,82,87,75
2025-02-25 17:59:25.601,-308.0,447.0,57.0,121.0,-47.0,-349.0,158,68,78,85,73
2025-02-25 17:59:25.605,-226.0,236.0,67.0,91.0,-53.0,-374.0,157,66,79,85,76
2025-02-25 17:59:25.609,29.0,167.0,78.0,57.0,-70.0,-384.0,158,67,79,86,78
2025-02-25 17:59:25.614,380.0,-177.0,116.0,45.0,-101.0,-403.0,159,68,77,84,74
2025-02-25 17:59:25.622,563.0,-697.0,199.0,16.0,-112.0,-409.0,154,65,75,83,72
2025-02-25 17:59:25.626,897.0,-1029.0,264.0,-5.0,-130.0,-411.0,158,67,77,84,72
2025-02-25 17:59:25.630,1147.0,-1846.0,307.0,-22.0,-133.0,-407.0,158,68,78,86,73
2025-02-25 17:59:25.635,1477.0,-2726.0,444.0,-14.0,-124.0,-373.0,157,66,79,89,74
2025-02-25 17:59:25.642,1929.0,-3583.0,674.0,-12.0,-96.0,-302.0,160,69,75,85,75
2025-02-25 17:59:25.647,2067.0,-4221.0,935.0,11.0,-75.0,-207.0,159,67,79,85,75
2025-02-25 17:59:25.651,2363.0,-4429.0,1243.0,40.0,-15.0,-157.0,161,69,83,84,75
2025-02-25 17:59:25.659,2633.0,-4558.0,1372.0,58.0,48.0,-76.0,159,69,82,82,76
2025-02-25 17:59:25.663,2619.0,-4678.0,1344.0,72.0,88.0,-2.0,161,69,81,80,75
2025-02-25 17:59:25.667,2635.0,-4279.0,1182.0,66.0,104.0,54.0,158,66,79,80,73
2025-02-25 17:59:25.671,1941.0,-4084.0,1217.0,74.0,139.0,100.0,161,66,81,80,73
2025-02-25 17:59:25.679,1675.0,-3256.0,530.0,124.0,88.0,114.0,161,68,86,82,80
2025-02-25 17:59:25.683,1593.0,-3075.0,602.0,116.0,60.0,133.0,162,67,83,83,77
2025-02-25 17:59:25.687,1551.0,-2660.0,572.0,67.0,64.0,158.0,160,66,81,79,74
2025-02-25 17:59:25.692,930.0,-2596.0,178.0,-2.0,63.0,174.0,159,67,86,82,76
2025-02-25 17:59:25.700,652.0,-2362.0,317.0,-139.0,84.0,204.0,159,67,82,81,76
2025-02-25 17:59:25.704,708.0,-1929.0,61.0,-169.0,83.0,214.0,157,64,78,80,70
2025-02-25 17:59:25.708,525.0,-2001.0,78.0,-127.0,61.0,209.0,157,67,77,81,74
2025-02-25 17:59:25.712,286.0,-2042.0,45.0,-83.0,23.0,204.0,162,62,82,86,75
2025-02-25 17:59:25.716,313.0,-1901.0,86.0,-61.0,14.0,197.0,161,69,83,87,76
2025-02-25 17:59:25.724,383.0,-1521.0,202.0,-58.0,21.0,200.0,158,61,80,83,77
2025-02-25 17:59:25.728,269.0,-1596.0,187.0,-85.0,49.0,207.0,166,75,86,92,81
2025-02-25 17:59:25.732,130.0,-1621.0,199.0,-91.0,55.0,223.0,170,83,96,96,90
2025-02-25 17:59:25.736,106.0,-1521.0,316.0,-101.0,47.0,230.0,168,76,89,93,84
2025-02-25 17:59:25.744,154.0,-1351.0,318.0,-116.0,21.0,232.0,163,77,92,99,86
2025-02-25 17:59:25.749,23.0,-1163.0,293.0,-146.0,38.0,241.0,159,67,80,85,74
2025-02-25 17:59:25.754,-162.0,-933.0,252.0,-140.0,53.0,244.0,158,67,79,84,74
2025-02-25 17:59:25.758,-61.0,-805.0,293.0,-115.0,47.0,242.0,168,77,92,96,86
2025-02-25 17:59:25.765,-194.0,-711.0,160.0,-92.0,40.0,242.0,172,85,98,99,91
2025-02-25 17:59:25.769,-308.0,-652.0,208.0,-80.0,29.0,245.0,174,84,97,100,91
2025-02-25 17:59:25.773,-443.0,-457.0,161.0,-81.0,16.0,247.0,175,87,97,103,94
2025-02-25 17:59:25.778,-415.0,-447.0,90.0,-64.0,1.0,244.0,169,79,93,96,87
2025-02-25 17:59:25.785,-513.0,-384.0,162.0,-46.0,-23.0,237.0,171,83,97,99,87
2025-02-25 17:59:25.790,-508.0,-286.0,68.0,-19.0,-27.0,222.0,173,82,94,99,89
2025-02-25 17:59:25.794,-551.0,-91.0,113.0,3.0,-19.0,207.0,168,79,92,94,86
2025-02-25 17:59:25.798,-608.0,21.0,109.0,23.0,-1.0,201.0,173,85,96,102,90
2025-02-25 17:59:25.802,-592.0,94.0,70.0,29.0,8.0,187.0,173,84,101,94,90
2025-02-25 17:59:25.810,-630.0,232.0,77.0,22.0,15.0,173.0,170,78,93,97,89
2025-02-25 17:59:25.814,-693.0,200.0,138.0,15.0,18.0,172.0,166,78,92,96,86
2025-02-25 17:59:25.818,-732.0,212.0,54.0,-3.0,27.0,153.0,168,78,91,96,87
2025-02-25 17:59:25.822,-662.0,385.0,-129.0,10.0,32.0,141.0,159,68,84,86,77
2025-02-25 17:59:25.827,-703.0,282.0,135.0,-39.0,39.0,143.0,161,71,83,86,79
2025-02-25 17:59:25.835,-750.0,311.0,14.0,-16.0,31.0,130.0,158,70,81,85,77
2025-02-25 17:59:25.839,-754.0,217.0,22.0,-9.0,44.0,109.0,156,68,80,86,75
2025-02-25 17:59:25.843,-771.0,98.0,-114.0,-40.0,48.0,112.0,153,68,78,85,75
2025-02-25 17:59:25.847,-887.0,145.0,-27.0,-50.0,61.0,107.0,155,68,78,84,76
2025-02-25 17:59:25.851,-949.0,36.0,-182.0,-32.0,68.0,104.0,154,65,77,86,78
2025-02-25 17:59:25.859,-886.0,-44.0,-193.0,-53.0,73.0,97.0,153,66,78,85,77
2025-02-25 17:59:25.864,-859.0,160.0,-272.0,-46.0,57.0,90.0,155,64,79,87,80
2025-02-25 17:59:25.868,-889.0,93.0,-199.0,-48.0,49.0,84.0,151,63,75,84,74
2025-02-25 17:59:25.872,-923.0,91.0,-233.0,-56.0,43.0,74.0,149,63,72,80,74
2025-02-25 17:59:25.876,-932.0,184.0,-254.0,-54.0,23.0,63.0,148,63,74,84,75
2025-02-25 17:59:25.883,-890.0,102.0,-211.0,-65.0,1.0,51.0,146,63,75,88,77
2025-02-25 17:59:25.888,-930.0,174.0,-313.0,-77.0,-9.0,34.0,148,64,73,86,77
2025-02-25 17:59:25.892,-888.0,167.0,-113.0,-91.0,-29.0,26.0,147,65,76,88,79
2025-02-25 17:59:25.896,-846.0,258.0,-132.0,-115.0,-16.0,9.0,147,66,76,88,81
2025-02-25 17:59:25.900,-820.0,265.0,-294.0,-125.0,-18.0,-3.0,149,67,77,89,82
2025-02-25 17:59:25.908,-839.0,257.0,-238.0,-127.0,-22.0,-11.0,151,68,80,92,84
2025-02-25 17:59:25.913,-805.0,295.0,-146.0,-120.0,-24.0,-29.0,151,69,80,92,85
2025-02-25 17:59:25.917,-814.0,198.0,-150.0,-115.0,-22.0,-41.0,152,71,81,93,87
2025-02-25 17:59:25.924,-815.0,237.0,-177.0,-80.0,-25.0,-48.0,149,70,80,93,88
2025-02-25 17:59:25.929,-837.0,234.0,-105.0,-59.0,-28.0,-60.0,153,73,81,96,90
2025-02-25 17:59:25.933,-817.0,140.0,-250.0,-58.0,-42.0,-65.0,152,75,84,99,94
2025-02-25 17:59:25.938,-826.0,189.0,-109.0,-32.0,-45.0,-76.0,153,74,85,98,94
2025-02-25 17:59:25.945,-724.0,179.0,-47.0,-22.0,-50.0,-79.0,150,75,83,99,95
2025-02-25 17:59:25.950,-775.0,219.0,-11.0,-7.0,-58.0,-87.0,150,74,84,98,95
2025-02-25 17:59:25.954,-803.0,306.0,-64.0,14.0,-68.0,-94.0,149,76,83,100,100
2025-02-25 17:59:25.958,-847.0,348.0,9.0,43.0,-66.0,-99.0,149,76,84,102,98
2025-02-25 17:59:25.963,-785.0,404.0,-83.0,65.0,-67.0,-105.0,149,78,87,96,100
2025-02-25 17:59:25.970,-774.0,448.0,-69.0,87.0,-59.0,-115.0,150,80,88,105,101
2025-02-25 17:59:25.975,-814.0,408.0,-118.0,95.0,-43.0,-129.0,149,80,94,104,102
2025-02-25 17:59:25.979,-773.0,421.0,-138.0,108.0,-35.0,-149.0,150,83,90,106,103
2025-02-25 17:59:25.986,-750.0,383.0,-106.0,133.0,-26.0,-159.0,148,86,92,106,104
2025-02-25 17:59:25.990,-692.0,275.0,-197.0,161.0,-24.0,-181.0,152,89,96,108,109
2025-02-25 17:59:25.995,-738.0,216.0,-271.0,180.0,-29.0,-203.0,149,91,96,106,108
2025-02-25 17:59:26.002,-800.0,172.0,-429.0,181.0,-46.0,-226.0,151,93,97,104,109
2025-02-25 17:59:26.006,-798.0,153.0,-402.0,185.0,-53.0,-248.0,151,97,97,103,109
2025-02-25 17:59:26.011,-802.0,197.0,-389.0,182.0,-71.0,-272.0,150,101,99,104,108
2025-02-25 17:59:26.019,-722.0,193.0,-590.0,194.0,-98.0,-284.0,149,102,101,106,108
2025-02-25 17:59:26.023,-750.0,112.0,-800.0,218.0,-149.0,-306.0,150,107,102,110,110
2025-02-25 17:59:26.027,-623.0,129.0,-628.0,182.0,-170.0,-335.0,150,109,104,113,112
2025-02-25 17:59:26.035,-373.0,442.0,-692.0,141.0,-190.0,-380.0,151,112,107,116,109
2025-02-25 17:59:26.040,136.0,452.0,-57.0,140.0,-196.0,-423.0,152,113,109,117,110
2025-02-25 17:59:26.048,700.0,-314.0,495.0,132.0,-191.0,-437.0,151,113,106,115,113
2025-02-25 17:59:26.052,830.0,-1225.0,1020.0,109.0,-164.0,-433.0,150,113,108,116,114
2025-02-25 17:59:26.057,1057.0,-1789.0,724.0,88.0,-156.0,-419.0,150,114,108,115,114
2025-02-25 17:59:26.064,1129.0,-1742.0,683.0,92.0,-152.0,-408.0,149,114,109,116,113
2025-02-25 17:59:26.069,1366.0,-2303.0,429.0,104.0,-158.0,-370.0,151,117,109,117,113
2025-02-25 17:59:26.073,1659.0,-2767.0,324.0,99.0,-161.0,-328.0,149,115,109,116,114
2025-02-25 17:59:26.080,2022.0,-3315.0,613.0,51.0,-138.0,-295.0,152,118,111,118,115
2025-02-25 17:59:26.085,2258.0,-3410.0,825.0,-10.0,-83.0,-220.0,150,118,110,116,114
2025-02-25 17:59:26.092,2194.0,-3640.0,1252.0,-46.0,-26.0,-141.0,151,120,110,120,117
2025-02-25 17:59:26.097,1939.0,-3651.0,1336.0,-70.0,10.0,-65.0,154,123,112,119,118
2025-02-25 17:59:26.101,1733.0,-3579.0,1496.0,-55.0,26.0,0.0,153,123,112,119,118
2025-02-25 17:59:26.109,1610.0,-3273.0,952.0,-60.0,-21.0,27.0,153,122,111,119,119
2025-02-25 17:59:26.113,1666.0,-3480.0,1658.0,27.0,2.0,72.0,154,122,112,119,119
2025-02-25 17:59:26.117,1505.0,-3216.0,1343.0,63.0,14.0,136.0,151,122,112,121,120
2025-02-25 17:59:26.125,1101.0,-3097.0,860.0,62.0,70.0,196.0,154,118,114,120,122
2025-02-25 17:59:26.129,784.0,-2860.0,540.0,60.0,105.0,211.0,155,125,115,123,123
2025-02-25 17:59:26.134,784.0,-2414.0,198.0,-4.0,95.0,225.0,154,127,118,128,124
2025-02-25 17:59:26.141,505.0,-2102.0,142.0,-21.0,67.0,229.0,155,126,116,124,125
2025-02-25 17:59:26.146,339.0,-1940.0,430.0,-5.0,68.0,228.0,155,125,115,122,123
2025-02-25 17:59:26.150,330.0,-1808.0,447.0,7.0,66.0,224.0,153,126,114,121,122
2025-02-25 17:59:26.155,353.0,-1780.0,555.0,8.0,67.0,217.0,154,125,114,121,122
2025-02-25 17:59:26.162,257.0,-1654.0,441.0,-10.0,59.0,207.0,155,126,115,124,123
2025-02-25 17:59:26.166,168.0,-1529.0,597.0,-3.0,52.0,196.0,155,125,114,123,122
2025-02-25 17:59:26.172,128.0,-1350.0,337.0,4.0,22.0,184.0,153,126,114,122,122
2025-02-25 17:59:26.179,74.0,-1344.0,471.0,-53.0,22.0,182.0,154,126,115,123,121
2025-02-25 17:59:26.183,26.0,-1252.0,554.0,-40.0,23.0,181.0,153,126,112,122,122
2025-02-25 17:59:26.187,39.0,-1117.0,551.0,-37.0,25.0,185.0,154,128,115,122,123
2025-02-25 17:59:26.191,29.0,-981.0,459.0,-27.0,18.0,182.0,154,128,111,126,123
2025-02-25 17:59:26.199,-25.0,-921.0,480.0,-34.0,19.0,182.0,152,125,114,122,122
2025-02-25 17:59:26.215,-58.0,-870.0,553.0,-23.0,27.0,191.0,153,125,112,120,122
2025-02-25 17:59:26.218,-139.0,-828.0,350.0,-13.0,40.0,194.0,153,126,113,123,120
2025-02-25 17:59:26.221,-167.0,-674.0,303.0,-11.0,31.0,193.0,154,122,116,126,126
2025-02-25 17:59:26.223,-167.0,-655.0,538.0,9.0,38.0,195.0,154,127,115,123,124
2025-02-25 17:59:26.226,-280.0,-566.0,597.0,9.0,52.0,199.0,152,127,108,123,121
2025-02-25 17:59:26.232,-349.0,-469.0,405.0,-7.0,58.0,201.0,152,125,114,122,120
2025-02-25 17:59:26.236,-405.0,-456.0,119.0,4.0,57.0,196.0,153,124,113,121,121
2025-02-25 17:59:26.240,-432.0,-262.0,121.0,4.0,43.0,186.0,153,126,116,124,123
2025-02-25 17:59:26.245,-447.0,-233.0,325.0,11.0,63.0,178.0,153,127,117,126,126
2025-02-25 17:59:26.253,-509.0,-123.0,292.0,5.0,73.0,169.0,153,127,116,125,125
2025-02-25 17:59:26.257,-564.0,-153.0,218.0,28.0,92.0,157.0,153,128,114,124,125
2025-02-25 17:59:26.261,-598.0,-113.0,178.0,35.0,107.0,150.0,154,129,119,127,125
2025-02-25 17:59:26.269,-629.0,-71.0,237.0,43.0,124.0,136.0,156,131,119,127,126
2025-02-25 17:59:26.273,-707.0,-14.0,135.0,45.0,133.0,125.0,155,129,119,125,125
2025-02-25 17:59:26.278,-810.0,30.0,69.0,53.0,138.0,111.0,151,126,116,121,125
2025-02-25 17:59:26.282,-803.0,43.0,49.0,66.0,146.0,107.0,152,130,117,125,125
2025-02-25 17:59:26.289,-816.0,66.0,63.0,81.0,154.0,94.0,155,130,117,127,125
2025-02-25 17:59:26.294,-856.0,140.0,27.0,83.0,162.0,78.0,154,131,119,126,125
2025-02-25 17:59:26.298,-846.0,156.0,-9.0,93.0,163.0,62.0,153,129,116,125,124
2025-02-25 17:59:26.302,-876.0,234.0,-128.0,98.0,166.0,55.0,152,128,116,124,123
2025-02-25 17:59:26.309,-1005.0,188.0,-69.0,121.0,147.0,40.0,153,129,119,128,127
2025-02-25 17:59:26.314,-1056.0,208.0,-317.0,93.0,110.0,22.0,148,133,122,139,131
2025-02-25 17:59:26.318,-1080.0,381.0,-47.0,87.0,85.0,8.0,157,137,124,133,129
2025-02-25 17:59:26.326,-1064.0,279.0,-155.0,12.0,71.0,-2.0,155,130,121,131,128
2025-02-25 17:59:26.330,-1124.0,312.0,67.0,24.0,52.0,-7.0,156,138,124,130,130
2025-02-25 17:59:26.334,-1041.0,325.0,-425.0,9.0,27.0,-22.0,158,137,124,135,132
2025-02-25 17:59:26.339,-978.0,345.0,-284.0,-10.0,18.0,-35.0,156,135,124,131,130
2025-02-25 17:59:26.346,-1042.0,289.0,-311.0,-10.0,9.0,-47.0,155,132,122,131,126
2025-02-25 17:59:26.351,-998.0,257.0,-302.0,3.0,4.0,-65.0,154,133,122,131,128
2025-02-25 17:59:26.355,-898.0,198.0,-254.0,-1.0,-14.0,-73.0,154,132,121,129,127
2025-02-25 17:59:26.363,-938.0,186.0,-216.0,-9.0,-15.0,-86.0,157,133,124,133,130
2025-02-25 17:59:26.367,-874.0,153.0,-200.0,8.0,-20.0,-99.0,155,132,122,132,127
2025-02-25 17:59:26.372,-822.0,135.0,-201.0,11.0,-27.0,-111.0,154,132,122,130,128
2025-02-25 17:59:26.380,-824.0,171.0,-185.0,21.0,-30.0,-121.0,154,133,125,131,128
2025-02-25 17:59:26.384,-800.0,121.0,-112.0,33.0,-30.0,-133.0,156,134,121,130,129
2025-02-25 17:59:26.388,-854.0,159.0,-203.0,38.0,-42.0,-141.0,165,143,133,140,140
2025-02-25 17:59:26.395,-759.0,173.0,-144.0,17.0,-42.0,-152.0,177,155,135,153,150
2025-02-25 17:59:26.400,-721.0,190.0,-144.0,39.0,-57.0,-168.0,178,158,146,155,152
2025-02-25 17:59:26.404,-711.0,194.0,-79.0,30.0,-68.0,-186.0,175,153,145,151,150
2025-02-25 17:59:26.412,-634.0,184.0,-78.0,30.0,-79.0,-209.0,175,153,142,151,149
2025-02-25 17:59:26.417,-536.0,144.0,-161.0,40.0,-87.0,-233.0,185,165,152,161,159
2025-02-25 17:59:26.421,-497.0,120.0,-169.0,38.0,-106.0,-257.0,178,157,148,155,152
2025-02-25 17:59:26.428,-422.0,75.0,-95.0,20.0,-125.0,-268.0,177,156,147,157,153
2025-02-25 17:59:26.433,-316.0,-20.0,-42.0,12.0,-150.0,-291.0,183,160,148,159,157
2025-02-25 17:59:26.437,-214.0,-133.0,57.0,-17.0,-164.0,-311.0,185,163,153,159,158
2025-02-25 17:59:26.445,-45.0,-322.0,93.0,-30.0,-176.0,-328.0,179,155,146,154,152
2025-02-25 17:59:26.449,80.0,-571.0,171.0,-34.0,-171.0,-339.0,177,154,144,153,152
2025-02-25 17:59:26.454,176.0,-839.0,115.0,-41.0,-169.0,-343.0,176,154,145,151,147
2025-02-25 17:59:26.462,267.0,-1157.0,139.0,-39.0,-171.0,-340.0,176,150,138,149,145
2025-02-25 17:59:26.465,461.0,-1513.0,274.0,-49.0,-171.0,-333.0,175,152,142,151,147
2025-02-25 17:59:26.473,748.0,-1847.0,466.0,-51.0,-175.0,-326.0,174,151,140,151,143
2025-02-25 17:59:26.477,1016.0,-1996.0,603.0,-72.0,-179.0,-308.0,175,156,143,150,149
2025-02-25 17:59:26.482,1233.0,-2212.0,648.0,-99.0,-191.0,-291.0,176,151,138,150,149
2025-02-25 17:59:26.490,1502.0,-2474.0,842.0,-101.0,-175.0,-265.0,178,154,142,153,151
2025-02-25 17:59:26.494,1784.0,-2542.0,726.0,-113.0,-171.0,-236.0,179,153,141,145,152
2025-02-25 17:59:26.502,1994.0,-2701.0,601.0,-138.0,-163.0,-197.0,181,153,141,154,153
2025-02-25 17:59:26.506,2053.0,-2769.0,924.0,-119.0,-146.0,-148.0,181,155,140,152,152
2025-02-25 17:59:26.511,1776.0,-2756.0,1151.0,-75.0,-83.0,-86.0,180,153,138,154,155
2025-02-25 17:59:26.519,1661.0,-2725.0,910.0,-77.0,-60.0,-27.0,177,149,133,151,148
2025-02-25 17:59:26.523,1696.0,-2540.0,1075.0,-71.0,-38.0,31.0,173,142,126,143,145
2025-02-25 17:59:26.531,1449.0,-2659.0,869.0,-72.0,-10.0,92.0,173,143,127,145,141
2025-02-25 17:59:26.535,1257.0,-2375.0,277.0,-101.0,-36.0,138.0,181,156,141,150,155
2025-02-25 17:59:26.539,1109.0,-2373.0,595.0,-125.0,-28.0,177.0,184,153,141,158,156
2025-02-25 17:59:26.547,1062.0,-2122.0,184.0,-114.0,-35.0,197.0,184,151,135,154,153
2025-02-25 17:59:26.551,826.0,-2112.0,290.0,-131.0,-35.0,215.0,184,149,135,154,153
2025-02-25 17:59:26.556,694.0,-2049.0,277.0,-140.0,-29.0,221.0,183,150,136,154,153
2025-02-25 17:59:26.563,610.0,-1843.0,289.0,-101.0,-25.0,222.0,178,146,132,147,148
2025-02-25 17:59:26.568,498.0,-1790.0,306.0,-95.0,-12.0,226.0,185,154,138,155,154
2025-02-25 17:59:26.572,436.0,-1646.0,486.0,-67.0,30.0,226.0,177,145,131,147,146
2025-02-25 17:59:26.579,284.0,-1500.0,140.0,-67.0,25.0,223.0,173,144,128,145,145
2025-02-25 17:59:26.585,224.0,-1396.0,221.0,-69.0,24.0,216.0,172,142,125,139,141
2025-02-25 17:59:26.589,207.0,-1252.0,289.0,-58.0,13.0,209.0,173,142,129,145,142
2025-02-25 17:59:26.596,205.0,-1162.0,131.0,-74.0,12.0,204.0,171,140,129,143,143
2025-02-25 17:59:26.601,56.0,-939.0,144.0,-49.0,-7.0,195.0,175,142,129,145,144
2025-02-25 17:59:26.605,-9.0,-944.0,323.0,-33.0,0.0,192.0,173,140,131,145,143
2025-02-25 17:59:26.609,-99.0,-907.0,351.0,-22.0,7.0,190.0,173,139,129,144,144
2025-02-25 17:59:26.617,-177.0,-849.0,279.0,11.0,8.0,188.0,173,139,129,145,143
2025-02-25 17:59:26.621,-202.0,-775.0,-30.0,34.0,6.0,188.0,179,144,131,150,147
2025-02-25 17:59:26.626,-275.0,-685.0,221.0,72.0,-5.0,181.0,175,141,130,148,146
2025-02-25 17:59:26.634,-365.0,-678.0,313.0,75.0,29.0,187.0,182,143,134,152,151
2025-02-25 17:59:26.638,-298.0,-531.0,370.0,92.0,53.0,189.0,176,141,131,147,144
2025-02-25 17:59:26.642,-312.0,-529.0,342.0,124.0,102.0,192.0,176,137,130,146,142
2025-02-25 17:59:26.650,-393.0,-455.0,177.0,154.0,122.0,186.0,176,140,133,149,145
2025-02-25 17:59:26.654,-475.0,-439.0,100.0,121.0,115.0,182.0,179,139,136,150,146
2025-02-25 17:59:26.658,-562.0,-473.0,61.0,78.0,108.0,176.0,177,136,132,148,144
2025-02-25 17:59:26.666,-625.0,-399.0,-99.0,57.0,93.0,168.0,177,136,132,148,145
2025-02-25 17:59:26.670,-643.0,-320.0,78.0,-3.0,97.0,163.0,172,134,129,142,138
2025-02-25 17:59:26.675,-653.0,-266.0,16.0,-55.0,115.0,156.0,175,135,129,143,141
2025-02-25 17:59:26.679,-596.0,-197.0,95.0,-76.0,122.0,145.0,174,134,130,146,141
2025-02-25 17:59:26.687,-678.0,-222.0,40.0,-104.0,127.0,136.0,175,133,131,144,135
2025-02-25 17:59:26.690,-738.0,-133.0,-57.0,-116.0,119.0,120.0,172,129,130,146,141
2025-02-25 17:59:26.695,-937.0,-136.0,-260.0,-121.0,94.0,110.0,179,136,131,150,145
2025-02-25 17:59:26.703,-923.0,-70.0,-225.0,-132.0,73.0,96.0,173,132,131,146,142
2025-02-25 17:59:26.707,-931.0,-110.0,-312.0,-145.0,63.0,83.0,172,127,126,141,138
2025-02-25 17:59:26.711,-855.0,-75.0,-146.0,-139.0,50.0,77.0,176,130,129,147,142
2025-02-25 17:59:26.720,-908.0,-35.0,-5.0,-132.0,42.0,64.0,178,131,129,147,141
2025-02-25 17:59:26.723,-911.0,-66.0,-33.0,-120.0,45.0,52.0,175,126,128,145,141
2025-02-25 17:59:26.727,-959.0,-71.0,-176.0,-115.0,37.0,42.0,174,123,126,142,138
2025-02-25 17:59:26.735,-963.0,-57.0,-182.0,-108.0,33.0,29.0,176,124,124,143,136
2025-02-25 17:59:26.741,-971.0,-32.0,-201.0,-89.0,23.0,18.0,173,117,123,141,137
2025-02-25 17:59:26.744,-973.0,-42.0,-165.0,-74.0,11.0,11.0,176,120,125,141,138
2025-02-25 17:59:26.752,-981.0,-5.0,-133.0,-58.0,-4.0,1.0,176,115,123,140,135
2025-02-25 17:59:26.756,-968.0,36.0,-88.0,-48.0,-6.0,-9.0,171,115,122,146,134
2025-02-25 17:59:26.761,-951.0,56.0,-174.0,-25.0,-9.0,-21.0,174,106,117,134,128
2025-02-25 17:59:26.765,-932.0,46.0,-140.0,-3.0,-13.0,-28.0,172,106,117,129,127
2025-02-25 17:59:26.773,-1007.0,14.0,-145.0,2.0,-6.0,-35.0,173,108,120,132,126
2025-02-25 17:59:26.777,-965.0,108.0,-185.0,22.0,-8.0,-47.0,176,108,119,133,125
2025-02-25 17:59:26.782,-942.0,98.0,-104.0,28.0,1.0,-57.0,173,101,118,126,122
2025-02-25 17:59:26.786,-934.0,163.0,-159.0,44.0,3.0,-68.0,171,94,113,125,119
2025-02-25 17:59:26.794,-888.0,239.0,-169.0,72.0,3.0,-74.0,174,95,113,123,115
2025-02-25 17:59:26.797,-879.0,307.0,-165.0,97.0,0.0,-87.0,174,92,112,119,113
2025-02-25 17:59:26.802,-912.0,332.0,-124.0,107.0,5.0,-103.0,171,86,108,116,110
2025-02-25 17:59:26.809,-918.0,330.0,124.0,117.0,21.0,-118.0,173,84,105,113,105
2025-02-25 17:59:26.814,-951.0,332.0,13.0,127.0,36.0,-124.0,175,87,107,117,106
2025-02-25 17:59:26.818,-1035.0,379.0,-86.0,131.0,35.0,-146.0,173,84,105,111,104
2025-02-25 17:59:26.823,-1118.0,318.0,-166.0,145.0,40.0,-164.0,173,81,101,107,97
2025-02-25 17:59:26.830,-1054.0,275.0,-6.0,146.0,67.0,-178.0,172,78,96,102,94
2025-02-25 17:59:26.834,-1046.0,186.0,36.0,147.0,80.0,-188.0,172,76,94,100,91
2025-02-25 17:59:26.839,-1006.0,137.0,124.0,161.0,95.0,-193.0,172,75,90,99,89
2025-02-25 17:59:26.843,-975.0,65.0,149.0,162.0,98.0,-212.0,172,81,89,97,87
2025-02-25 17:59:26.850,-894.0,150.0,234.0,164.0,111.0,-236.0,169,71,85,96,79
2025-02-25 17:59:26.855,-892.0,229.0,65.0,167.0,102.0,-250.0,167,79,88,100,74
2025-02-25 17:59:26.860,-713.0,294.0,-179.0,146.0,55.0,-262.0,169,75,88,100,80
2025-02-25 17:59:26.866,-564.0,348.0,-156.0,121.0,20.0,-289.0,172,74,87,99,77
2025-02-25 17:59:26.871,-381.0,436.0,-184.0,123.0,-25.0,-318.0,169,69,84,99,75
2025-02-25 17:59:26.875,-86.0,479.0,-389.0,115.0,-56.0,-348.0,169,70,84,95,71
2025-02-25 17:59:26.880,601.0,431.0,-285.0,89.0,-115.0,-364.0,172,69,84,100,74
2025-02-25 17:59:26.888,1064.0,30.0,-133.0,49.0,-157.0,-389.0,169,74,86,98,76
2025-02-25 17:59:26.892,1241.0,-573.0,112.0,26.0,-173.0,-411.0,170,67,83,96,78
2025-02-25 17:59:26.896,1378.0,-1350.0,351.0,-3.0,-173.0,-404.0,170,71,82,93,72
2025-02-25 17:59:26.900,1610.0,-1780.0,756.0,-26.0,-143.0,-389.0,170,68,84,91,75
2025-02-25 17:59:26.908,1685.0,-2529.0,947.0,-16.0,-118.0,-353.0,171,71,83,95,77
2025-02-25 17:59:26.912,1870.0,-3097.0,1259.0,5.0,-100.0,-288.0,172,71,85,93,78
2025-02-25 17:59:26.916,2242.0,-3432.0,1220.0,15.0,-50.0,-219.0,172,73,87,92,77
2025-02-25 17:59:26.925,2360.0,-3613.0,1364.0,49.0,-46.0,-136.0,168,68,85,87,74
2025-02-25 17:59:26.929,2722.0,-3314.0,1006.0,74.0,-40.0,-128.0,168,65,86,87,75
2025-02-25 17:59:26.933,2191.0,-3697.0,843.0,211.0,33.0,-69.0,174,74,91,92,81
2025-02-25 17:59:26.941,2371.0,-3648.0,1068.0,145.0,84.0,-24.0,172,73,88,88,78
2025-02-25 17:59:26.945,1838.0,-3236.0,652.0,158.0,52.0,35.0,169,69,87,85,75
2025-02-25 17:59:26.949,1839.0,-3081.0,492.0,127.0,34.0,54.0,170,71,87,85,74
2025-02-25 17:59:26.954,1706.0,-2707.0,332.0,76.0,37.0,86.0,175,75,92,89,80
2025-02-25 17:59:26.958,1231.0,-2464.0,170.0,52.0,43.0,116.0,171,73,88,88,77
2025-02-25 17:59:26.965,1096.0,-2128.0,-22.0,7.0,27.0,121.0,169,69,83,87,75
2025-02-25 17:59:26.970,999.0,-1948.0,-246.0,14.0,7.0,122.0,171,72,86,91,76
2025-02-25 17:59:26.974,787.0,-1825.0,-97.0,14.0,-10.0,129.0,173,75,87,95,80
2025-02-25 17:59:26.978,709.0,-1843.0,-33.0,23.0,-12.0,132.0,170,71,82,90,77
2025-02-25 17:59:26.985,639.0,-1712.0,96.0,46.0,-19.0,137.0,171,70,80,87,75
2025-02-25 17:59:26.990,562.0,-1883.0,174.0,-6.0,-6.0,146.0,172,71,84,95,80
2025-02-25 17:59:26.994,445.0,-1730.0,213.0,-13.0,3.0,164.0,173,75,87,94,79
2025-02-25 17:59:26.998,460.0,-1579.0,394.0,-41.0,-5.0,170.0,171,71,83,91,77
2025-02-25 17:59:27.002,566.0,-1531.0,409.0,-46.0,-17.0,180.0,172,73,86,93,79
2025-02-25 17:59:27.011,451.0,-1431.0,465.0,-50.0,-18.0,186.0,173,75,86,93,78
2025-02-25 17:59:27.015,421.0,-1239.0,386.0,-53.0,-9.0,186.0,174,75,85,91,78
2025-02-25 17:59:27.019,286.0,-1186.0,346.0,-71.0,22.0,191.0,171,73,82,91,75
2025-02-25 17:59:27.023,204.0,-1123.0,355.0,-72.0,25.0,197.0,173,73,88,94,79
2025-02-25 17:59:27.031,94.0,-1021.0,311.0,-73.0,21.0,201.0,173,75,86,93,79
2025-02-25 17:59:27.035,44.0,-882.0,337.0,-86.0,16.0,204.0,173,73,86,94,80
2025-02-25 17:59:27.039,-95.0,-831.0,299.0,-101.0,6.0,203.0,176,76,90,97,83
2025-02-25 17:59:27.044,-267.0,-691.0,221.0,-98.0,4.0,201.0,174,74,89,93,80
2025-02-25 17:59:27.048,-227.0,-599.0,247.0,-102.0,8.0,191.0,170,69,85,92,77
2025-02-25 17:59:27.056,-286.0,-501.0,183.0,-90.0,19.0,187.0,177,78,91,97,84
2025-02-25 17:59:27.060,-423.0,-382.0,177.0,-82.0,20.0,181.0,173,76,89,97,82
2025-02-25 17:59:27.064,-406.0,-350.0,152.0,-64.0,22.0,170.0,171,74,87,94,80
2025-02-25 17:59:27.068,-523.0,-273.0,190.0,-55.0,21.0,165.0,172,73,89,90,78
2025-02-25 17:59:27.076,-619.0,-235.0,152.0,-39.0,15.0,153.0,177,76,93,99,84
2025-02-25 17:59:27.080,-693.0,-166.0,125.0,-37.0,15.0,143.0,175,77,92,95,83
2025-02-25 17:59:27.084,-740.0,-144.0,129.0,-38.0,13.0,132.0,172,70,86,92,81
2025-02-25 17:59:27.088,-787.0,-107.0,106.0,-40.0,13.0,128.0,174,78,89,96,82
2025-02-25 17:59:27.096,-806.0,-113.0,101.0,-45.0,14.0,116.0,176,77,91,99,84
2025-02-25 17:59:27.101,-758.0,-191.0,78.0,-45.0,19.0,106.0,174,76,88,94,78
2025-02-25 17:59:27.105,-868.0,-166.0,79.0,-38.0,22.0,102.0,171,74,86,95,77
2025-02-25 17:59:27.109,-840.0,-214.0,44.0,-37.0,26.0,94.0,176,77,90,96,82
2025-02-25 17:59:27.113,-838.0,-204.0,18.0,-42.0,20.0,87.0,177,76,89,95,83
2025-02-25 17:59:27.121,-858.0,-257.0,54.0,-33.0,14.0,82.0,170,73,85,93,79
2025-02-25 17:59:27.125,-752.0,-268.0,34.0,-33.0,9.0,72.0,175,75,90,97,79
2025-02-25 17:59:27.129,-785.0,-228.0,-21.0,-30.0,12.0,59.0,173,74,89,95,81
2025-02-25 17:59:27.134,-762.0,-312.0,3.0,-29.0,12.0,53.0,172,76,91,97,83
2025-02-25 17:59:27.138,-764.0,-294.0,1.0,-42.0,10.0,44.0,175,75,90,98,83
2025-02-25 17:59:27.145,-778.0,-341.0,-64.0,-36.0,9.0,35.0,174,71,89,96,81
2025-02-25 17:59:27.150,-757.0,-362.0,-62.0,-42.0,12.0,30.0,173,73,88,95,80
2025-02-25 17:59:27.154,-777.0,-331.0,-72.0,-43.0,11.0,28.0,178,80,94,101,84
2025-02-25 17:59:27.158,-749.0,-364.0,-84.0,-39.0,7.0,21.0,174,75,90,96,82
2025-02-25 17:59:27.163,-688.0,-368.0,-47.0,-31.0,1.0,14.0,174,74,88,92,79
2025-02-25 17:59:27.170,-695.0,-384.0,-39.0,-21.0,-10.0,11.0,175,78,91,96,81
2025-02-25 17:59:27.174,-693.0,-383.0,-57.0,-14.0,-11.0,7.0,176,79,95,99,83
2025-02-25 17:59:27.178,-699.0,-364.0,-4.0,-8.0,-16.0,4.0,171,75,92,95,81
2025-02-25 17:59:27.183,-699.0,-332.0,20.0,4.0,-26.0,2.0,178,76,91,98,80
2025-02-25 17:59:27.187,-674.0,-271.0,16.0,15.0,-30.0,-4.0,175,75,91,94,80
2025-02-25 17:59:27.195,-666.0,-176.0,44.0,30.0,-31.0,-13.0,174,78,89,97,82
2025-02-25 17:59:27.199,-683.0,-138.0,96.0,45.0,-35.0,-17.0,174,79,90,98,81
2025-02-25 17:59:27.203,-743.0,-100.0,74.0,48.0,-40.0,-26.0,174,75,89,97,82
2025-02-25 17:59:27.207,-771.0,-72.0,103.0,54.0,-38.0,-40.0,172,75,89,95,80
2025-02-25 17:59:27.212,-789.0,-18.0,82.0,66.0,-31.0,-49.0,178,80,91,101,86
2025-02-25 17:59:27.219,-790.0,-38.0,104.0,78.0,-19.0,-66.0,175,76,89,96,82
2025-02-25 17:59:27.224,-782.0,-64.0,71.0,81.0,-16.0,-81.0,171,76,86,93,78
2025-02-25 17:59:27.228,-829.0,-68.0,44.0,97.0,-20.0,-86.0,174,76,89,97,80
2025-02-25 17:59:27.232,-933.0,-138.0,52.0,104.0,-20.0,-95.0,178,82,94,103,86
2025-02-25 17:59:27.240,-926.0,-132.0,28.0,106.0,-19.0,-101.0,175,76,90,99,83
2025-02-25 17:59:27.244,-934.0,-129.0,17.0,112.0,-9.0,-105.0,168,79,88,97,80
2025-02-25 17:59:27.248,-896.0,-79.0,47.0,116.0,-3.0,-114.0,176,79,91,99,86
2025-02-25 17:59:27.252,-880.0,-55.0,80.0,123.0,-5.0,-128.0,173,78,91,100,84
2025-02-25 17:59:27.257,-838.0,-46.0,95.0,137.0,-5.0,-136.0,175,79,91,99,84
2025-02-25 17:59:27.264,-775.0,35.0,58.0,138.0,-7.0,-149.0,179,80,95,102,87
2025-02-25 17:59:27.268,-700.0,46.0,48.0,140.0,-22.0,-167.0,176,77,93,103,88
2025-02-25 17:59:27.273,-665.0,107.0,32.0,135.0,-32.0,-176.0,176,80,92,98,84
2025-02-25 17:59:27.277,-580.0,98.0,-12.0,130.0,-57.0,-197.0,179,80,95,104,88
2025-02-25 17:59:27.284,-423.0,132.0,8.0,117.0,-76.0,-218.0,177,78,92,101,85
2025-02-25 17:59:27.289,-326.0,105.0,31.0,95.0,-88.0,-237.0,175,78,92,99,82
2025-02-25 17:59:27.293,-104.0,4.0,38.0,72.0,-114.0,-247.0,176,79,95,104,87
2025-02-25 17:59:27.297,89.0,-165.0,40.0,63.0,-146.0,-262.0,179,81,95,103,88
2025-02-25 17:59:27.302,157.0,-558.0,54.0,43.0,-159.0,-269.0,176,79,94,99,84
2025-02-25 17:59:27.309,327.0,-690.0,85.0,2.0,-172.0,-269.0,175,77,89,99,84
2025-02-25 17:59:27.313,508.0,-1134.0,108.0,-7.0,-167.0,-264.0,178,84,95,101,87
2025-02-25 17:59:27.317,712.0,-1567.0,259.0,-26.0,-153.0,-253.0,179,81,92,105,86
2025-02-25 17:59:27.325,998.0,-2003.0,415.0,-22.0,-148.0,-235.0,176,78,92,103,83
2025-02-25 17:59:27.330,1146.0,-2380.0,677.0,-16.0,-141.0,-203.0,176,77,92,103,83
2025-02-25 17:59:27.334,1392.0,-2534.0,833.0,9.0,-127.0,-186.0,176,80,93,103,88
2025-02-25 17:59:27.342,1733.0,-2804.0,969.0,12.0,-91.0,-142.0,179,81,95,109,90
2025-02-25 17:59:27.346,1874.0,-2953.0,1043.0,8.0,-41.0,-93.0,180,81,98,104,87
2025-02-25 17:59:27.350,1995.0,-3032.0,1070.0,12.0,-4.0,-50.0,176,81,97,103,87
2025-02-25 17:59:27.354,2050.0,-3064.0,1136.0,15.0,7.0,-13.0,176,79,91,101,88
2025-02-25 17:59:27.362,2033.0,-3057.0,1033.0,15.0,29.0,5.0,181,81,98,104,90
2025-02-25 17:59:27.366,1904.0,-3036.0,959.0,19.0,36.0,44.0,174,80,98,100,89
2025-02-25 17:59:27.370,1699.0,-2914.0,761.0,5.0,45.0,80.0,176,79,92,99,86
2025-02-25 17:59:27.375,1590.0,-2808.0,618.0,1.0,54.0,98.0,177,80,97,99,88
2025-02-25 17:59:27.379,1383.0,-2632.0,579.0,-29.0,61.0,126.0,181,81,97,103,91
2025-02-25 17:59:27.387,1043.0,-2344.0,402.0,-37.0,57.0,148.0,177,80,92,100,91
2025-02-25 17:59:27.391,957.0,-2156.0,349.0,-62.0,55.0,162.0,175,78,92,96,84
2025-02-25 17:59:27.395,841.0,-2001.0,242.0,-86.0,54.0,169.0,181,88,101,107,96
2025-02-25 17:59:27.403,602.0,-1984.0,188.0,-88.0,43.0,177.0,180,85,100,106,91
2025-02-25 17:59:27.407,556.0,-1814.0,207.0,-79.0,38.0,177.0,178,83,96,104,89
2025-02-25 17:59:27.412,468.0,-1747.0,152.0,-72.0,41.0,179.0,176,83,95,102,87
2025-02-25 17:59:27.416,341.0,-1727.0,216.0,-59.0,50.0,182.0,186,89,104,112,98
2025-02-25 17:59:27.424,304.0,-1574.0,174.0,-66.0,61.0,185.0,190,95,108,118,102
2025-02-25 17:59:27.428,231.0,-1495.0,206.0,-70.0,60.0,190.0,185,90,107,114,100
2025-02-25 17:59:27.433,184.0,-1392.0,253.0,-90.0,59.0,198.0,185,90,103,113,98
2025-02-25 17:59:27.440,156.0,-1281.0,230.0,-110.0,59.0,207.0,184,86,107,115,100
2025-02-25 17:59:27.444,116.0,-1271.0,289.0,-133.0,59.0,214.0,188,92,106,116,102
2025-02-25 17:59:27.449,35.0,-1184.0,189.0,-143.0,60.0,229.0,189,97,108,118,102
2025-02-25 17:59:27.453,1.0,-1068.0,216.0,-159.0,56.0,243.0,192,99,116,122,108
2025-02-25 17:59:27.461,-123.0,-1002.0,149.0,-166.0,55.0,259.0,183,87,102,112,96
2025-02-25 17:59:27.465,-183.0,-912.0,149.0,-182.0,57.0,271.0,175,81,94,106,90
2025-02-25 17:59:27.469,-210.0,-845.0,116.0,-215.0,60.0,277.0,176,82,96,108,91
2025-02-25 17:59:27.477,-216.0,-721.0,203.0,-258.0,56.0,282.0,177,86,101,110,89
2025-02-25 17:59:27.481,-305.0,-616.0,180.0,-265.0,41.0,279.0,176,85,99,106,90
2025-02-25 17:59:27.486,-358.0,-490.0,253.0,-246.0,37.0,274.0,173,91,98,106,95
2025-02-25 17:59:27.490,-402.0,-404.0,176.0,-218.0,26.0,271.0,175,81,98,107,92
2025-02-25 17:59:27.498,-398.0,-375.0,241.0,-192.0,29.0,263.0,181,84,100,104,93
2025-02-25 17:59:27.502,-446.0,-223.0,239.0,-164.0,35.0,253.0,177,89,104,115,100
2025-02-25 17:59:27.506,-423.0,-224.0,199.0,-153.0,45.0,246.0,187,97,114,121,105
2025-02-25 17:59:27.514,-462.0,-151.0,217.0,-148.0,53.0,240.0,184,94,109,117,103
2025-02-25 17:59:27.518,-492.0,-58.0,265.0,-139.0,66.0,232.0,179,91,107,120,100
2025-02-25 17:59:27.522,-533.0,9.0,293.0,-118.0,66.0,228.0,180,92,109,115,99
2025-02-25 17:59:27.530,-480.0,-24.0,296.0,-101.0,65.0,215.0,184,95,111,119,106
2025-02-25 17:59:27.534,-511.0,7.0,236.0,-89.0,68.0,204.0,181,94,112,120,102
2025-02-25 17:59:27.539,-546.0,14.0,199.0,-71.0,73.0,195.0,178,93,109,117,100
2025-02-25 17:59:27.543,-641.0,18.0,142.0,-65.0,86.0,191.0,180,95,111,118,103
2025-02-25 17:59:27.547,-641.0,37.0,30.0,-51.0,83.0,188.0,179,94,112,118,104
2025-02-25 17:59:27.555,-832.0,-26.0,-12.0,-55.0,78.0,182.0,184,98,115,123,108
2025-02-25 17:59:27.559,-835.0,95.0,-144.0,-54.0,73.0,176.0,177,93,110,117,101
2025-02-25 17:59:27.563,-900.0,79.0,-184.0,-44.0,64.0,172.0,178,95,113,121,105
2025-02-25 17:59:27.571,-997.0,208.0,-245.0,-29.0,54.0,160.0,179,97,114,123,106
2025-02-25 17:59:27.582,-1105.0,286.0,-251.0,-16.0,42.0,149.0,180,101,117,126,110
2025-02-25 17:59:27.585,-1103.0,321.0,-173.0,5.0,29.0,133.0,176,98,113,120,102
2025-02-25 17:59:27.588,-1062.0,387.0,-162.0,18.0,23.0,116.0,176,93,109,119,101
2025-02-25 17:59:27.592,-1022.0,430.0,-125.0,24.0,14.0,108.0,174,95,111,118,102
2025-02-25 17:59:27.596,-985.0,500.0,-70.0,33.0,12.0,89.0,180,102,117,124,105
2025-02-25 17:59:27.600,-947.0,499.0,-75.0,40.0,10.0,70.0,177,93,114,124,109
2025-02-25 17:59:27.608,-937.0,484.0,-96.0,63.0,9.0,53.0,173,99,116,119,105
2025-02-25 17:59:27.613,-922.0,485.0,-74.0,88.0,12.0,44.0,181,104,122,129,111
2025-02-25 17:59:27.617,-935.0,456.0,-67.0,113.0,17.0,24.0,178,100,120,128,113
2025-02-25 17:59:27.621,-1008.0,370.0,-146.0,120.0,16.0,5.0,181,106,124,128,115
2025-02-25 17:59:27.628,-965.0,353.0,-130.0,147.0,18.0,-13.0,179,103,120,127,111
2025-02-25 17:59:27.633,-925.0,329.0,-159.0,173.0,20.0,-24.0,178,103,121,128,112
2025-02-25 17:59:27.638,-925.0,291.0,-177.0,191.0,23.0,-44.0,186,110,128,133,119
2025-02-25 17:59:27.644,-934.0,300.0,-157.0,222.0,30.0,-62.0,186,111,126,136,118
2025-02-25 17:59:27.650,-853.0,294.0,-271.0,217.0,27.0,-78.0,178,105,122,130,114
2025-02-25 17:59:27.653,-861.0,337.0,-414.0,210.0,11.0,-93.0,181,109,126,133,117
2025-02-25 17:59:27.661,-869.0,405.0,-576.0,224.0,-1.0,-103.0,178,104,123,128,112
2025-02-25 17:59:27.666,-820.0,562.0,-543.0,239.0,-16.0,-111.0,176,104,124,130,114
2025-02-25 17:59:27.670,-838.0,512.0,-437.0,243.0,-37.0,-122.0,176,103,124,128,114
2025-02-25 17:59:27.678,-825.0,527.0,-457.0,260.0,-66.0,-143.0,180,113,134,138,123
2025-02-25 17:59:27.682,-836.0,492.0,-459.0,254.0,-87.0,-174.0,182,113,135,140,124
2025-02-25 17:59:27.686,-745.0,334.0,-391.0,245.0,-102.0,-203.0,181,116,136,137,121
2025-02-25 17:59:27.694,-601.0,358.0,-509.0,247.0,-125.0,-234.0,180,119,140,135,121
2025-02-25 17:59:27.699,-542.0,202.0,-478.0,244.0,-155.0,-275.0,178,121,140,135,121
2025-02-25 17:59:27.706,-608.0,186.0,-459.0,229.0,-179.0,-314.0,177,130,142,133,119
2025-02-25 17:59:27.711,-548.0,222.0,-364.0,216.0,-190.0,-345.0,172,131,142,130,119
2025-02-25 17:59:27.715,-467.0,233.0,-37.0,204.0,-184.0,-380.0,176,135,145,131,116
2025-02-25 17:59:27.723,-409.0,92.0,132.0,187.0,-185.0,-421.0,172,139,146,130,117
2025-02-25 17:59:27.727,-396.0,40.0,260.0,172.0,-185.0,-435.0,168,139,143,129,116
2025-02-25 17:59:27.732,-306.0,-184.0,365.0,163.0,-197.0,-453.0,170,145,154,137,121
2025-02-25 17:59:27.739,-145.0,-207.0,283.0,166.0,-215.0,-463.0,168,149,154,137,124
2025-02-25 17:59:27.743,31.0,-406.0,228.0,141.0,-215.0,-470.0,163,149,155,138,121
2025-02-25 17:59:27.748,329.0,-663.0,316.0,134.0,-216.0,-485.0,162,151,156,138,125
2025-02-25 17:59:27.756,775.0,-872.0,346.0,132.0,-232.0,-473.0,163,155,160,141,126
2025-02-25 17:59:27.761,1087.0,-1085.0,556.0,150.0,-244.0,-464.0,157,151,155,136,120
2025-02-25 17:59:27.768,1120.0,-1434.0,965.0,134.0,-219.0,-449.0,155,156,153,135,115
2025-02-25 17:59:27.772,1311.0,-1976.0,1212.0,111.0,-222.0,-411.0,155,154,154,135,121
2025-02-25 17:59:27.777,1579.0,-2228.0,1254.0,134.0,-189.0,-344.0,157,160,157,137,119
2025-02-25 17:59:27.784,1844.0,-2427.0,1388.0,103.0,-141.0,-263.0,156,157,154,136,118
2025-02-25 17:59:27.788,1996.0,-2575.0,1460.0,114.0,-101.0,-183.0,154,160,156,137,119
2025-02-25 17:59:27.796,2093.0,-2683.0,1522.0,106.0,-47.0,-102.0,157,164,159,140,121
2025-02-25 17:59:27.801,2214.0,-2765.0,1528.0,104.0,6.0,-28.0,158,164,157,137,120
2025-02-25 17:59:27.805,2115.0,-2831.0,1506.0,95.0,55.0,3.0,154,163,165,137,118
2025-02-25 17:59:27.813,1933.0,-2889.0,1506.0,92.0,93.0,54.0,157,165,160,141,122
2025-02-25 17:59:27.817,1624.0,-2728.0,1404.0,85.0,123.0,94.0,159,169,162,145,124
2025-02-25 17:59:27.821,1367.0,-2469.0,1266.0,80.0,130.0,117.0,155,165,160,142,119
2025-02-25 17:59:27.829,1110.0,-2200.0,1046.0,65.0,123.0,130.0,153,161,157,139,116
2025-02-25 17:59:27.833,955.0,-2000.0,903.0,48.0,113.0,132.0,151,163,158,138,116
2025-02-25 17:59:27.838,712.0,-1807.0,813.0,23.0,90.0,132.0,152,164,158,141,116
2025-02-25 17:59:27.846,489.0,-1709.0,661.0,-10.0,65.0,132.0,154,167,161,145,118
2025-02-25 17:59:27.850,321.0,-1594.0,653.0,-38.0,35.0,133.0,154,168,161,144,119
2025-02-25 17:59:27.855,307.0,-1530.0,558.0,-55.0,9.0,131.0,157,170,165,149,124
2025-02-25 17:59:27.862,268.0,-1519.0,532.0,-78.0,-13.0,129.0,151,165,159,143,116
2025-02-25 17:59:27.867,282.0,-1557.0,556.0,-93.0,-22.0,130.0,150,166,155,141,115
2025-02-25 17:59:27.871,283.0,-1563.0,616.0,-101.0,-32.0,131.0,150,161,157,139,116
2025-02-25 17:59:27.879,315.0,-1548.0,666.0,-102.0,-35.0,137.0,152,166,163,146,119
2025-02-25 17:59:27.883,330.0,-1560.0,699.0,-97.0,-34.0,145.0,155,169,164,147,120
2025-02-25 17:59:27.887,350.0,-1508.0,717.0,-91.0,-28.0,155.0,154,166,163,148,119
2025-02-25 17:59:27.895,361.0,-1446.0,751.0,-87.0,-19.0,165.0,153,173,163,147,120
2025-02-25 17:59:27.899,345.0,-1355.0,771.0,-80.0,-9.0,175.0,156,168,162,147,121
2025-02-25 17:59:27.904,342.0,-1267.0,783.0,-77.0,-1.0,184.0,151,164,161,144,118
2025-02-25 17:59:27.911,300.0,-1180.0,806.0,-70.0,12.0,191.0,151,164,161,143,114
2025-02-25 17:59:27.916,248.0,-1124.0,789.0,-67.0,25.0,195.0,159,171,166,151,125
2025-02-25 17:59:27.920,175.0,-1041.0,770.0,-65.0,36.0,200.0,155,169,163,148,120
2025-02-25 17:59:27.928,87.0,-949.0,723.0,-62.0,45.0,206.0,153,170,163,145,120
2025-02-25 17:59:27.932,7.0,-854.0,653.0,-62.0,49.0,210.0,151,167,161,144,117
2025-02-25 17:59:27.936,-43.0,-728.0,636.0,-62.0,51.0,213.0,152,166,158,145,119
2025-02-25 17:59:27.940,-156.0,-671.0,578.0,-66.0,53.0,214.0,157,170,164,146,120
2025-02-25 17:59:27.948,-250.0,-556.0,538.0,-72.0,55.0,214.0,151,168,163,145,117
2025-02-25 17:59:27.952,-322.0,-452.0,488.0,-76.0,54.0,210.0,154,168,163,147,119
2025-02-25 17:59:27.957,-403.0,-365.0,469.0,-80.0,54.0,203.0,155,168,164,147,118
2025-02-25 17:59:27.964,-458.0,-287.0,461.0,-85.0,56.0,195.0,150,163,157,141,114
2025-02-25 17:59:27.969,-494.0,-270.0,405.0,-93.0,56.0,191.0,150,165,158,142,113
2025-02-25 17:59:27.973,-541.0,-201.0,346.0,-93.0,54.0,179.0,154,168,163,147,119
2025-02-25 17:59:27.981,-603.0,-233.0,323.0,-96.0,54.0,168.0,156,170,164,148,119
2025-02-25 17:59:27.985,-658.0,-220.0,271.0,-94.0,54.0,156.0,154,166,162,147,118
2025-02-25 17:59:27.990,-681.0,-212.0,264.0,-93.0,56.0,146.0,152,170,162,146,116
2025-02-25 17:59:27.997,-684.0,-211.0,217.0,-89.0,55.0,138.0,153,168,161,147,117
2025-02-25 17:59:28.002,-726.0,-171.0,201.0,-85.0,57.0,132.0,150,167,162,143,114
2025-02-25 17:59:28.007,-755.0,-175.0,130.0,-80.0,57.0,124.0,155,176,165,146,111
2025-02-25 17:59:28.014,-756.0,-132.0,180.0,-76.0,60.0,118.0,155,169,165,146,115
2025-02-25 17:59:28.019,-771.0,-50.0,128.0,-76.0,60.0,111.0,154,173,165,148,122
2025-02-25 17:59:28.023,-784.0,-3.0,106.0,-70.0,59.0,103.0,149,166,162,146,115
2025-02-25 17:59:28.028,-798.0,65.0,109.0,-66.0,60.0,95.0,148,162,159,143,113
2025-02-25 17:59:28.035,-817.0,44.0,60.0,-64.0,59.0,91.0,154,169,165,147,117
2025-02-25 17:59:28.039,-814.0,98.0,66.0,-54.0,59.0,80.0,156,171,165,147,113
2025-02-25 17:59:28.044,-813.0,110.0,77.0,-51.0,60.0,71.0,152,165,160,144,113
2025-02-25 17:59:28.049,-821.0,106.0,41.0,-43.0,60.0,66.0,150,164,160,141,114
2025-02-25 17:59:28.055,-848.0,91.0,30.0,-35.0,61.0,58.0,155,171,165,145,117
2025-02-25 17:59:28.059,-855.0,79.0,21.0,-29.0,61.0,49.0,155,167,164,146,117
2025-02-25 17:59:28.064,-852.0,114.0,-8.0,-16.0,61.0,41.0,150,164,160,143,113
2025-02-25 17:59:28.068,-874.0,125.0,-69.0,-3.0,59.0,37.0,149,163,159,141,111
2025-02-25 17:59:28.075,-916.0,167.0,-101.0,9.0,55.0,28.0,154,169,166,148,119
2025-02-25 17:59:28.080,-939.0,213.0,-116.0,15.0,50.0,17.0,153,167,164,146,116
2025-02-25 17:59:28.083,-949.0,242.0,-152.0,26.0,47.0,5.0,151,165,160,143,114
2025-02-25 17:59:28.088,-986.0,268.0,-202.0,37.0,39.0,-2.0,150,161,159,142,114
2025-02-25 17:59:28.096,-1023.0,291.0,-208.0,48.0,30.0,-17.0,159,172,169,150,124
2025-02-25 17:59:28.100,-1043.0,339.0,-241.0,56.0,21.0,-33.0,155,170,168,149,120
2025-02-25 17:59:28.104,-1065.0,333.0,-288.0,64.0,7.0,-50.0,155,169,163,146,118
2025-02-25 17:59:28.112,-1052.0,351.0,-254.0,75.0,5.0,-71.0,153,162,160,144,117
2025-02-25 17:59:28.116,-1005.0,353.0,-283.0,85.0,-3.0,-82.0,154,167,165,146,116
2025-02-25 17:59:28.121,-991.0,342.0,-220.0,101.0,-12.0,-106.0,156,169,165,148,120
2025-02-25 17:59:28.129,-969.0,340.0,-223.0,109.0,-18.0,-132.0,154,168,165,147,119
2025-02-25 17:59:28.133,-935.0,341.0,-186.0,122.0,-25.0,-160.0,155,168,167,149,121
2025-02-25 17:59:28.137,-864.0,350.0,-146.0,126.0,-32.0,-192.0,156,166,164,149,119
2025-02-25 17:59:28.145,-787.0,333.0,-102.0,130.0,-38.0,-224.0,156,166,163,149,119
2025-02-25 17:59:28.149,-708.0,317.0,-50.0,130.0,-42.0,-257.0,152,164,162,144,115
2025-02-25 17:59:28.153,-678.0,305.0,25.0,125.0,-49.0,-289.0,155,166,165,150,118
2025-02-25 17:59:28.162,-588.0,252.0,50.0,113.0,-60.0,-304.0,152,162,159,145,115
2025-02-25 17:59:28.166,-474.0,165.0,113.0,104.0,-72.0,-333.0,158,171,164,150,119
2025-02-25 17:59:28.170,-377.0,53.0,120.0,92.0,-84.0,-358.0,155,169,164,148,120
2025-02-25 17:59:28.178,-241.0,-71.0,183.0,87.0,-97.0,-379.0,156,167,166,151,122
2025-02-25 17:59:28.182,-84.0,-245.0,260.0,78.0,-113.0,-398.0,152,164,161,148,117
2025-02-25 17:59:28.186,4.0,-436.0,311.0,72.0,-124.0,-413.0,148,167,159,147,118
2025-02-25 17:59:28.194,239.0,-556.0,383.0,69.0,-142.0,-418.0,149,160,159,146,112
2025-02-25 17:59:28.198,505.0,-867.0,504.0,70.0,-159.0,-428.0,156,169,166,152,122
2025-02-25 17:59:28.202,810.0,-1182.0,611.0,79.0,-173.0,-432.0,155,169,165,153,121
2025-02-25 17:59:28.210,1071.0,-1521.0,733.0,91.0,-180.0,-423.0,156,168,165,153,121
2025-02-25 17:59:28.215,1437.0,-1940.0,1007.0,95.0,-174.0,-401.0,162,171,166,155,124
2025-02-25 17:59:28.222,1699.0,-2260.0,1259.0,95.0,-152.0,-362.0,156,169,163,155,121
2025-02-25 17:59:28.227,1911.0,-2464.0,1401.0,88.0,-113.0,-300.0,157,167,163,152,121
2025-02-25 17:59:28.231,2144.0,-2639.0,1436.0,65.0,-72.0,-223.0,155,165,161,151,120
2025-02-25 17:59:28.239,2211.0,-2774.0,1489.0,33.0,-52.0,-140.0,157,161,162,152,116
2025-02-25 17:59:28.243,2283.0,-2828.0,1522.0,11.0,-10.0,-56.0,156,164,159,151,120
2025-02-25 17:59:28.247,2385.0,-2913.0,1404.0,-13.0,25.0,22.0,155,164,161,150,119
2025-02-25 17:59:28.255,2274.0,-2955.0,1347.0,-40.0,54.0,57.0,156,163,158,150,118
2025-02-25 17:59:28.259,2013.0,-2943.0,1202.0,-55.0,74.0,121.0,159,170,165,156,124
2025-02-25 17:59:28.264,1812.0,-2771.0,1094.0,-58.0,83.0,169.0,159,167,165,154,124
2025-02-25 17:59:28.272,1541.0,-2595.0,1011.0,-54.0,88.0,200.0,159,167,162,154,125
2025-02-25 17:59:28.276,1212.0,-2315.0,916.0,-54.0,91.0,215.0,157,169,167,156,121
2025-02-25 17:59:28.284,949.0,-2043.0,791.0,-55.0,92.0,223.0,157,166,162,153,121
2025-02-25 17:59:28.288,825.0,-1844.0,694.0,-61.0,90.0,224.0,157,163,162,153,117
2025-02-25 17:59:28.292,621.0,-1760.0,570.0,-71.0,84.0,224.0,153,161,157,148,117
2025-02-25 17:59:28.297,495.0,-1646.0,489.0,-81.0,75.0,223.0,162,167,165,157,124
2025-02-25 17:59:28.304,390.0,-1576.0,436.0,-95.0,62.0,220.0,160,167,165,157,123
2025-02-25 17:59:28.309,313.0,-1487.0,375.0,-101.0,51.0,218.0,157,164,161,155,120
2025-02-25 17:59:28.313,214.0,-1429.0,389.0,-106.0,34.0,215.0,158,164,162,155,121
2025-02-25 17:59:28.321,175.0,-1325.0,380.0,-111.0,29.0,213.0,154,162,160,157,121
2025-02-25 17:59:28.325,132.0,-1279.0,425.0,-118.0,23.0,213.0,153,159,161,152,118
2025-02-25 17:59:28.329,84.0,-1218.0,383.0,-122.0,10.0,213.0,154,161,161,153,117
2025-02-25 17:59:28.337,5.0,-1167.0,326.0,-128.0,0.0,217.0,163,167,167,160,128
2025-02-25 17:59:28.341,-26.0,-1051.0,323.0,-138.0,-4.0,223.0,160,168,168,158,124
2025-02-25 17:59:28.346,-67.0,-1010.0,314.0,-138.0,-9.0,228.0,160,164,158,156,121
2025-02-25 17:59:28.353,-121.0,-915.0,324.0,-150.0,-11.0,234.0,156,159,161,154,120
2025-02-25 17:59:28.358,-150.0,-851.0,327.0,-155.0,-11.0,241.0,157,162,161,156,120
2025-02-25 17:59:28.365,-181.0,-774.0,311.0,-153.0,-10.0,244.0,157,162,162,154,122
2025-02-25 17:59:28.370,-232.0,-744.0,323.0,-148.0,-8.0,250.0,159,162,160,153,119
2025-02-25 17:59:28.375,-316.0,-674.0,337.0,-144.0,-5.0,258.0,161,165,165,159,125
2025-02-25 17:59:28.379,-366.0,-574.0,321.0,-141.0,2.0,264.0,159,164,166,158,124
2025-02-25 17:59:28.387,-397.0,-450.0,326.0,-140.0,10.0,266.0,159,163,163,156,124
2025-02-25 17:59:28.391,-414.0,-360.0,312.0,-139.0,17.0,264.0,157,161,163,156,120
2025-02-25 17:59:28.399,-440.0,-287.0,317.0,-138.0,22.0,257.0,158,164,164,157,122
2025-02-25 17:59:28.403,-467.0,-285.0,342.0,-137.0,32.0,247.0,160,158,161,155,120
2025-02-25 17:59:28.407,-500.0,-193.0,357.0,-124.0,42.0,242.0,157,156,159,155,117
2025-02-25 17:59:28.415,-566.0,-146.0,368.0,-118.0,52.0,231.0,162,160,164,158,124
2025-02-25 17:59:28.419,-610.0,-125.0,337.0,-112.0,65.0,219.0,161,161,163,157,127
2025-02-25 17:59:28.424,-668.0,-105.0,305.0,-107.0,75.0,207.0,159,158,161,158,124
2025-02-25 17:59:28.431,-682.0,-95.0,297.0,-105.0,85.0,198.0,159,157,162,159,124
2025-02-25 17:59:28.435,-694.0,-26.0,215.0,-103.0,90.0,188.0,156,153,157,155,121
2025-02-25 17:59:28.440,-693.0,54.0,231.0,-91.0,99.0,181.0,154,154,159,153,122
2025-02-25 17:59:28.444,-586.0,134.0,88.0,-76.0,113.0,162.0,156,157,160,154,126
2025-02-25 17:59:28.452,-609.0,211.0,-84.0,-71.0,105.0,149.0,154,158,159,152,126
2025-02-25 17:59:28.456,-807.0,162.0,-82.0,-75.0,99.0,133.0,156,159,160,150,130
2025-02-25 17:59:28.460,-819.0,193.0,24.0,-74.0,101.0,116.0,151,155,155,147,128
2025-02-25 17:59:28.468,-877.0,320.0,-251.0,-71.0,76.0,97.0,153,155,152,143,128
2025-02-25 17:59:28.472,-1013.0,227.0,-268.0,-57.0,63.0,88.0,155,156,154,147,133
2025-02-25 17:59:28.477,-1104.0,90.0,-236.0,-62.0,52.0,76.0,158,152,154,149,141
2025-02-25 17:59:28.484,-1080.0,135.0,-200.0,-68.0,46.0,60.0,157,155,152,149,135
2025-02-25 17:59:28.489,-1078.0,125.0,-172.0,-76.0,39.0,40.0,156,150,147,145,132
2025-02-25 17:59:28.493,-1084.0,154.0,-84.0,-80.0,38.0,12.0,156,146,146,142,130
2025-02-25 17:59:28.501,-1026.0,200.0,-173.0,-85.0,36.0,-3.0,156,146,143,142,130
2025-02-25 17:59:28.505,-1006.0,139.0,-269.0,-73.0,30.0,-22.0,163,150,148,147,137
2025-02-25 17:59:28.510,-1021.0,211.0,-250.0,-59.0,16.0,-35.0,167,145,145,147,136
2025-02-25 17:59:28.514,-1109.0,309.0,-18.0,-53.0,15.0,-49.0,171,147,146,149,138
2025-02-25 17:59:28.521,-1172.0,318.0,-69.0,-37.0,13.0,-63.0,168,138,138,143,134
2025-02-25 17:59:28.526,-1207.0,284.0,57.0,-16.0,19.0,-72.0,165,132,132,140,127
2025-02-25 17:59:28.530,-1153.0,313.0,7.0,16.0,28.0,-80.0,166,125,127,138,125
2025-02-25 17:59:28.538,-1132.0,330.0,-108.0,31.0,25.0,-97.0,176,132,134,145,133
2025-02-25 17:59:28.542,-1158.0,360.0,-81.0,42.0,31.0,-118.0,173,126,132,145,133
2025-02-25 17:59:28.546,-1178.0,397.0,-68.0,57.0,38.0,-132.0,169,119,134,142,126
2025-02-25 17:59:28.554,-1168.0,399.0,-73.0,81.0,39.0,-145.0,170,113,126,138,121
2025-02-25 17:59:28.559,-1264.0,369.0,-52.0,118.0,47.0,-152.0,173,114,129,139,121
2025-02-25 17:59:28.562,-1171.0,359.0,-102.0,139.0,51.0,-160.0,173,110,123,138,119
2025-02-25 17:59:28.571,-910.0,383.0,-150.0,155.0,50.0,-189.0,176,114,124,138,120
2025-02-25 17:59:28.575,-666.0,619.0,-228.0,175.0,34.0,-230.0,177,112,121,140,117
2025-02-25 17:59:28.580,-526.0,808.0,-349.0,214.0,21.0,-252.0,178,112,119,140,116
2025-02-25 17:59:28.588,-627.0,560.0,-391.0,219.0,13.0,-290.0,176,109,115,143,114
2025-02-25 17:59:28.592,-561.0,668.0,-402.0,257.0,18.0,-352.0,173,104,108,136,106
2025-02-25 17:59:28.596,-312.0,808.0,-626.0,287.0,11.0,-398.0,174,104,108,139,108
2025-02-25 17:59:28.604,-116.0,736.0,-363.0,261.0,-5.0,-411.0,174,100,104,135,104
2025-02-25 17:59:28.608,-64.0,518.0,-316.0,215.0,-47.0,-430.0,178,102,111,137,110
2025-02-25 17:59:28.613,-268.0,178.0,-362.0,170.0,-102.0,-443.0,179,102,107,132,108
2025-02-25 17:59:28.620,-580.0,0.0,-257.0,126.0,-141.0,-455.0,180,101,107,134,109
2025-02-25 17:59:28.625,-372.0,-212.0,-134.0,116.0,-171.0,-448.0,179,97,105,130,108
2025-02-25 17:59:28.628,175.0,-330.0,-85.0,80.0,-206.0,-458.0,178,100,105,130,109
2025-02-25 17:59:28.636,580.0,-581.0,-208.0,35.0,-226.0,-468.0,183,101,108,129,110
2025-02-25 17:59:28.640,806.0,-1082.0,-197.0,17.0,-262.0,-448.0,179,96,101,125,106
2025-02-25 17:59:28.649,1418.0,-1627.0,199.0,-8.0,-253.0,-429.0,182,95,103,127,107
2025-02-25 17:59:28.653,1889.0,-1968.0,667.0,-21.0,-219.0,-387.0,181,96,104,125,107
2025-02-25 17:59:28.658,2125.0,-2498.0,1058.0,-11.0,-175.0,-337.0,188,101,105,131,114
2025-02-25 17:59:28.665,2418.0,-3062.0,1366.0,3.0,-126.0,-281.0,189,99,110,130,115
2025-02-25 17:59:28.669,2661.0,-3463.0,1377.0,21.0,-88.0,-203.0,188,99,110,129,111
2025-02-25 17:59:28.674,2638.0,-3697.0,1445.0,43.0,-52.0,-128.0,189,101,112,129,114
2025-02-25 17:59:28.682,2579.0,-3692.0,1362.0,53.0,11.0,-60.0,191,103,113,128,114
2025-02-25 17:59:28.685,2455.0,-3592.0,1197.0,63.0,64.0,0.0,191,98,112,125,111
2025-02-25 17:59:28.690,2340.0,-3339.0,878.0,64.0,86.0,46.0,186,95,108,121,107
2025-02-25 17:59:28.697,2003.0,-3156.0,603.0,74.0,106.0,69.0,190,99,111,124,107
2025-02-25 17:59:28.702,1614.0,-2866.0,451.0,59.0,90.0,102.0,191,97,116,126,112
2025-02-25 17:59:28.706,1300.0,-2464.0,202.0,53.0,69.0,127.0,191,100,114,127,111
2025-02-25 17:59:28.714,1094.0,-2136.0,29.0,50.0,43.0,138.0,191,100,114,124,113
2025-02-25 17:59:28.718,1032.0,-1742.0,-9.0,15.0,31.0,142.0,189,96,110,124,111
2025-02-25 17:59:28.723,833.0,-1723.0,-36.0,-6.0,10.0,144.0,187,93,107,120,107
2025-02-25 17:59:28.727,699.0,-1638.0,-42.0,-17.0,-11.0,149.0,193,109,112,125,110
2025-02-25 17:59:28.734,642.0,-1677.0,64.0,-37.0,-22.0,159.0,192,100,109,126,112
2025-02-25 17:59:28.739,570.0,-1725.0,134.0,-40.0,-28.0,171.0,192,99,110,127,112
2025-02-25 17:59:28.743,521.0,-1735.0,211.0,-51.0,-29.0,181.0,188,98,108,124,109
2025-02-25 17:59:28.751,564.0,-1727.0,291.0,-59.0,-24.0,193.0,189,98,106,123,110
2025-02-25 17:59:28.756,496.0,-1639.0,302.0,-62.0,-2.0,199.0,191,97,105,124,108
2025-02-25 17:59:28.760,434.0,-1558.0,375.0,-68.0,-1.0,209.0,195,104,109,129,113
2025-02-25 17:59:28.767,425.0,-1363.0,356.0,-70.0,6.0,217.0,191,100,109,128,113
2025-02-25 17:59:28.771,303.0,-1258.0,343.0,-79.0,23.0,226.0,190,99,110,127,112
2025-02-25 17:59:28.775,207.0,-1154.0,289.0,-103.0,27.0,237.0,192,98,110,128,113
2025-02-25 17:59:28.784,101.0,-1052.0,253.0,-118.0,25.0,237.0,187,99,109,124,109
2025-02-25 17:59:28.788,67.0,-832.0,270.0,-125.0,21.0,232.0,194,100,112,129,115
2025-02-25 17:59:28.792,-31.0,-704.0,247.0,-131.0,30.0,228.0,194,101,115,128,111
2025-02-25 17:59:28.800,-122.0,-611.0,258.0,-129.0,30.0,225.0,193,102,115,127,111
2025-02-25 17:59:28.804,-211.0,-532.0,240.0,-121.0,21.0,220.0,189,98,109,125,108
2025-02-25 17:59:28.808,-232.0,-462.0,291.0,-104.0,14.0,209.0,188,95,108,125,106
2025-02-25 17:59:28.813,-324.0,-422.0,295.0,-88.0,6.0,204.0,189,98,108,123,107
2025-02-25 17:59:28.820,-378.0,-354.0,303.0,-92.0,12.0,195.0,194,103,116,128,112
2025-02-25 17:59:28.825,-417.0,-315.0,286.0,-95.0,26.0,185.0,193,104,113,127,109
2025-02-25 17:59:28.829,-531.0,-234.0,304.0,-103.0,45.0,179.0,191,102,112,125,109
2025-02-25 17:59:28.837,-645.0,-223.0,187.0,-87.0,52.0,172.0,195,104,114,128,112
2025-02-25 17:59:28.841,-644.0,-221.0,248.0,-66.0,50.0,167.0,189,99,110,122,108
2025-02-25 17:59:28.845,-712.0,-242.0,166.0,-64.0,27.0,162.0,192,101,112,124,108
2025-02-25 17:59:28.854,-755.0,-167.0,113.0,-79.0,40.0,160.0,193,101,112,127,110
2025-02-25 17:59:28.858,-857.0,-112.0,-10.0,-81.0,54.0,161.0,197,103,115,129,114
2025-02-25 17:59:28.862,-836.0,-1.0,20.0,-83.0,26.0,156.0,193,102,114,127,111
2025-02-25 17:59:28.870,-947.0,11.0,15.0,-102.0,22.0,154.0,189,100,106,122,106
2025-02-25 17:59:28.874,-890.0,89.0,-57.0,-109.0,34.0,151.0,191,98,108,122,107
2025-02-25 17:59:28.878,-907.0,123.0,-93.0,-109.0,31.0,139.0,195,106,115,129,116
2025-02-25 17:59:28.882,-921.0,239.0,15.0,-105.0,22.0,118.0,195,103,114,129,111
2025-02-25 17:59:28.890,-910.0,263.0,-4.0,-96.0,26.0,89.0,190,97,111,123,108
2025-02-25 17:59:28.894,-886.0,324.0,14.0,-76.0,27.0,57.0,189,100,111,124,107
2025-02-25 17:59:28.898,-909.0,292.0,-13.0,-59.0,25.0,42.0,195,103,115,130,113
2025-02-25 17:59:28.903,-968.0,302.0,-57.0,-46.0,23.0,20.0,193,104,113,125,109
2025-02-25 17:59:28.911,-1014.0,284.0,-122.0,-38.0,20.0,4.0,193,99,111,125,108
2025-02-25 17:59:28.915,-1042.0,244.0,-150.0,-22.0,18.0,-7.0,189,97,112,121,106
2025-02-25 17:59:28.919,-1040.0,237.0,-168.0,-3.0,10.0,-12.0,193,98,109,124,107
2025-02-25 17:59:28.927,-1041.0,230.0,-174.0,17.0,2.0,-22.0,193,102,113,129,110
2025-02-25 17:59:28.931,-1006.0,214.0,-139.0,29.0,-3.0,-33.0,193,103,115,126,109
2025-02-25 17:59:28.935,-995.0,230.0,-128.0,36.0,-5.0,-44.0,197,105,117,134,115
2025-02-25 17:59:28.944,-995.0,280.0,-105.0,48.0,-5.0,-55.0,190,99,109,124,107
2025-02-25 17:59:28.947,-1013.0,299.0,-86.0,67.0,-4.0,-61.0,190,97,107,121,105
2025-02-25 17:59:28.952,-958.0,317.0,-48.0,85.0,-4.0,-78.0,195,103,114,128,110
2025-02-25 17:59:28.956,-960.0,362.0,-24.0,96.0,-3.0,-98.0,195,106,115,129,115
2025-02-25 17:59:28.964,-948.0,353.0,5.0,118.0,-3.0,-118.0,190,99,110,124,108
2025-02-25 17:59:28.969,-937.0,363.0,8.0,136.0,-2.0,-127.0,190,95,109,130,109
2025-02-25 17:59:28.973,-961.0,349.0,46.0,157.0,0.0,-146.0,193,103,113,129,113
2025-02-25 17:59:28.977,-921.0,387.0,75.0,167.0,13.0,-168.0,197,104,114,130,114
2025-02-25 17:59:28.985,-838.0,359.0,85.0,190.0,21.0,-194.0,191,99,112,126,109
2025-02-25 17:59:28.989,-821.0,295.0,41.0,213.0,21.0,-222.0,191,99,109,122,106
2025-02-25 17:59:28.993,-798.0,291.0,-60.0,229.0,15.0,-235.0,194,103,114,129,113
2025-02-25 17:59:29.001,-811.0,222.0,-110.0,239.0,-2.0,-259.0,194,104,114,128,113
2025-02-25 17:59:29.005,-768.0,228.0,-209.0,235.0,-20.0,-278.0,193,102,112,130,112
2025-02-25 17:59:29.009,-656.0,242.0,-295.0,232.0,-45.0,-301.0,192,101,110,127,110
2025-02-25 17:59:29.017,-496.0,250.0,-312.0,208.0,-79.0,-322.0,196,106,115,133,115
2025-02-25 17:59:29.021,-367.0,244.0,-283.0,173.0,-101.0,-345.0,190,99,109,127,109
2025-02-25 17:59:29.026,-101.0,133.0,-239.0,125.0,-147.0,-368.0,190,96,107,125,107
2025-02-25 17:59:29.034,247.0,-107.0,-131.0,68.0,-190.0,-378.0,191,101,108,126,109
2025-02-25 17:59:29.038,479.0,-453.0,-43.0,6.0,-220.0,-385.0,192,98,110,127,112
2025-02-25 17:59:29.042,712.0,-1076.0,26.0,-56.0,-229.0,-375.0,194,104,111,131,116
2025-02-25 17:59:29.050,1065.0,-1716.0,229.0,-60.0,-223.0,-356.0,195,102,109,129,113
2025-02-25 17:59:29.055,1510.0,-2257.0,512.0,-66.0,-201.0,-328.0,194,103,110,131,115
2025-02-25 17:59:29.062,1890.0,-2748.0,820.0,-61.0,-170.0,-291.0,194,100,111,130,115
2025-02-25 17:59:29.067,2179.0,-3177.0,1067.0,-48.0,-128.0,-237.0,191,100,108,127,114
2025-02-25 17:59:29.075,2399.0,-3549.0,1219.0,-26.0,-78.0,-171.0,193,100,110,128,114
2025-02-25 17:59:29.079,2536.0,-3824.0,1272.0,3.0,-33.0,-102.0,195,106,113,128,119
2025-02-25 17:59:29.083,2550.0,-3762.0,1244.0,15.0,-8.0,-39.0,190,100,108,125,113
2025-02-25 17:59:29.091,2515.0,-3670.0,1049.0,28.0,41.0,15.0,191,97,108,122,110
2025-02-25 17:59:29.095,2331.0,-3535.0,826.0,43.0,73.0,37.0,189,98,109,125,111
2025-02-25 17:59:29.099,2147.0,-3294.0,685.0,41.0,79.0,80.0,195,103,116,130,118
2025-02-25 17:59:29.104,1704.0,-3080.0,275.0,42.0,82.0,125.0,193,101,113,126,116
2025-02-25 17:59:29.111,1252.0,-2806.0,135.0,44.0,74.0,162.0,191,100,113,124,114
2025-02-25 17:59:29.116,1190.0,-2334.0,-64.0,22.0,67.0,188.0,190,101,110,124,111
2025-02-25 17:59:29.120,804.0,-2161.0,-77.0,-15.0,55.0,198.0,190,98,110,125,113
2025-02-25 17:59:29.128,742.0,-1840.0,-51.0,-45.0,35.0,201.0,195,102,112,128,116
2025-02-25 17:59:29.132,672.0,-1769.0,-72.0,-45.0,6.0,198.0,194,105,113,130,115
2025-02-25 17:59:29.136,550.0,-1777.0,-82.0,-49.0,-2.0,198.0,196,105,113,131,120
2025-02-25 17:59:29.144,396.0,-1783.0,-86.0,-40.0,1.0,204.0,189,100,108,127,113
2025-02-25 17:59:29.148,366.0,-1734.0,-40.0,-46.0,16.0,217.0,188,96,105,123,112
2025-02-25 17:59:29.153,381.0,-1771.0,4.0,-59.0,30.0,222.0,193,105,111,131,116
2025-02-25 17:59:29.157,283.0,-1697.0,60.0,-67.0,35.0,237.0,195,109,114,134,115
2025-02-25 17:59:29.165,252.0,-1515.0,90.0,-78.0,30.0,257.0,192,102,110,130,116
2025-02-25 17:59:29.169,150.0,-1418.0,124.0,-100.0,22.0,271.0,186,100,107,125,112
2025-02-25 17:59:29.174,220.0,-1285.0,137.0,-114.0,15.0,278.0,187,96,104,125,112
2025-02-25 17:59:29.181,184.0,-1151.0,119.0,-144.0,26.0,281.0,188,100,106,126,110
2025-02-25 17:59:29.185,81.0,-1042.0,193.0,-176.0,39.0,289.0,191,103,112,132,117
2025-02-25 17:59:29.190,39.0,-861.0,182.0,-194.0,45.0,295.0,192,102,113,131,116
2025-02-25 17:59:29.198,58.0,-775.0,213.0,-199.0,46.0,296.0,195,105,117,134,119
2025-02-25 17:59:29.202,10.0,-700.0,282.0,-213.0,43.0,290.0,189,100,109,136,114
2025-02-25 17:59:29.206,-67.0,-756.0,258.0,-234.0,33.0,282.0,188,99,109,128,112
2025-02-25 17:59:29.214,-167.0,-578.0,243.0,-213.0,22.0,280.0,193,104,117,132,116
2025-02-25 17:59:29.218,-251.0,-476.0,299.0,-201.0,30.0,276.0,196,107,116,136,120
2025-02-25 17:59:29.223,-347.0,-434.0,253.0,-175.0,42.0,277.0,192,105,115,136,119
2025-02-25 17:59:29.230,-438.0,-365.0,258.0,-160.0,51.0,269.0,187,103,113,132,115
2025-02-25 17:59:29.234,-512.0,-346.0,207.0,-121.0,62.0,260.0,188,102,111,130,112
2025-02-25 17:59:29.239,-610.0,-277.0,221.0,-77.0,62.0,251.0,187,101,114,133,114
2025-02-25 17:59:29.246,-661.0,-274.0,297.0,-49.0,44.0,244.0,187,101,109,131,116
2025-02-25 17:59:29.251,-682.0,-182.0,254.0,-64.0,48.0,225.0,189,103,114,136,117
2025-02-25 17:59:29.255,-667.0,-34.0,199.0,-49.0,54.0,208.0,191,107,115,138,118
2025-02-25 17:59:29.259,-665.0,-11.0,168.0,-50.0,68.0,193.0,188,104,116,137,117
2025-02-25 17:59:29.267,-711.0,144.0,101.0,-56.0,73.0,177.0,185,101,111,134,112
2025-02-25 17:59:29.271,-784.0,103.0,144.0,-14.0,28.0,149.0,185,101,111,132,112
2025-02-25 17:59:29.275,-817.0,58.0,-98.0,-28.0,17.0,142.0,192,110,120,142,124
2025-02-25 17:59:29.283,-805.0,168.0,-149.0,-1.0,20.0,131.0,189,108,117,139,117
2025-02-25 17:59:29.287,-883.0,118.0,-142.0,16.0,18.0,120.0,184,104,116,137,116
2025-02-25 17:59:29.291,-851.0,222.0,-102.0,22.0,18.0,109.0,181,99,111,134,113
2025-02-25 17:59:29.299,-865.0,366.0,-183.0,19.0,15.0,102.0,186,108,114,136,117
2025-02-25 17:59:29.303,-879.0,362.0,-205.0,33.0,15.0,92.0,187,107,118,139,118
2025-02-25 17:59:29.309,-933.0,413.0,-171.0,30.0,10.0,79.0,184,104,111,138,113
2025-02-25 17:59:29.313,-980.0,487.0,-245.0,29.0,3.0,66.0,184,107,116,137,116
2025-02-25 17:59:29.320,-1016.0,457.0,-134.0,34.0,2.0,55.0,180,98,112,134,103
2025-02-25 17:59:29.324,-970.0,458.0,-122.0,44.0,3.0,48.0,184,107,116,138,117
2025-02-25 17:59:29.329,-971.0,448.0,-141.0,49.0,3.0,35.0,183,107,118,138,115
2025-02-25 17:59:29.333,-923.0,411.0,-64.0,57.0,8.0,24.0,181,104,116,138,115
2025-02-25 17:59:29.341,-860.0,414.0,-50.0,70.0,10.0,14.0,178,102,113,136,112
2025-02-25 17:59:29.345,-844.0,401.0,15.0,90.0,19.0,11.0,181,106,117,140,118
2025-02-25 17:59:29.349,-810.0,397.0,-61.0,105.0,23.0,5.0,180,103,115,139,115
2025-02-25 17:59:29.354,-831.0,394.0,-54.0,114.0,27.0,2.0,175,99,112,132,110
2025-02-25 17:59:29.361,-857.0,345.0,-72.0,130.0,33.0,0.0,173,99,111,134,113
2025-02-25 17:59:29.365,-907.0,340.0,-104.0,141.0,37.0,-7.0,178,104,113,139,117
2025-02-25 17:59:29.369,-1002.0,409.0,-45.0,139.0,47.0,-9.0,176,103,115,139,115
2025-02-25 17:59:29.374,-913.0,444.0,-171.0,148.0,46.0,-10.0,174,101,110,134,111
2025-02-25 17:59:29.382,-926.0,429.0,-271.0,168.0,47.0,-14.0,171,98,113,134,110
2025-02-25 17:59:29.386,-897.0,527.0,-293.0,195.0,47.0,-17.0,170,96,110,131,108
2025-02-25 17:59:29.390,-918.0,602.0,-292.0,221.0,42.0,-28.0,175,104,113,135,112
2025-02-25 17:59:29.398,-1027.0,685.0,-323.0,246.0,38.0,-49.0,177,109,119,140,116
2025-02-25 17:59:29.402,-1034.0,593.0,-246.0,269.0,33.0,-78.0,171,103,113,135,112
2025-02-25 17:59:29.407,-950.0,696.0,-376.0,305.0,27.0,-115.0,165,98,108,130,106
2025-02-25 17:59:29.415,-843.0,749.0,-404.0,356.0,22.0,-159.0,164,97,109,130,107
2025-02-25 17:59:29.419,-814.0,780.0,-435.0,389.0,4.0,-182.0,165,101,109,122,106
2025-02-25 17:59:29.423,-792.0,885.0,-421.0,410.0,-24.0,-236.0,169,103,112,136,111
2025-02-25 17:59:29.431,-835.0,918.0,-390.0,416.0,-59.0,-292.0,166,103,111,133,109
2025-02-25 17:59:29.435,-754.0,1023.0,-313.0,399.0,-99.0,-355.0,165,102,111,132,109
2025-02-25 17:59:29.443,-593.0,1083.0,-182.0,384.0,-143.0,-418.0,164,107,114,132,110
2025-02-25 17:59:29.448,-335.0,1147.0,-113.0,336.0,-188.0,-478.0,162,102,110,129,108
2025-02-25 17:59:29.452,-5.0,962.0,193.0,276.0,-230.0,-530.0,160,102,113,128,108
2025-02-25 17:59:29.459,150.0,700.0,430.0,198.0,-246.0,-565.0,164,105,110,130,110
2025-02-25 17:59:29.464,514.0,204.0,700.0,116.0,-272.0,-573.0,156,97,109,126,104
2025-02-25 17:59:29.468,933.0,-136.0,988.0,39.0,-287.0,-563.0,157,99,105,124,105
2025-02-25 17:59:29.476,1338.0,-980.0,1195.0,-13.0,-277.0,-516.0,161,106,111,127,111
2025-02-25 17:59:29.480,1714.0,-2020.0,1574.0,-31.0,-244.0,-439.0,160,105,112,129,111
2025-02-25 17:59:29.484,1960.0,-3042.0,1962.0,-8.0,-188.0,-343.0,159,104,111,130,110
2025-02-25 17:59:29.492,2230.0,-3749.0,2275.0,42.0,-115.0,-250.0,159,105,112,127,110
2025-02-25 17:59:29.496,2377.0,-4139.0,2501.0,113.0,-27.0,-167.0,163,108,115,131,114
2025-02-25 17:59:29.504,2366.0,-4245.0,2519.0,173.0,55.0,-95.0,158,105,114,126,111
2025-02-25 17:59:29.508,2139.0,-4077.0,2397.0,200.0,127.0,-38.0,157,101,112,119,104
2025-02-25 17:59:29.513,1833.0,-3509.0,2133.0,230.0,173.0,-4.0,155,100,114,119,105
2025-02-25 17:59:29.521,1472.0,-3128.0,1961.0,213.0,193.0,22.0,153,100,110,115,101
2025-02-25 17:59:29.525,1398.0,-2400.0,1485.0,151.0,196.0,32.0,152,97,112,112,100
2025-02-25 17:59:29.529,1060.0,-2097.0,1216.0,62.0,182.0,40.0,150,94,108,112,100
2025-02-25 17:59:29.538,871.0,-1884.0,760.0,-47.0,155.0,47.0,156,102,114,119,105
2025-02-25 17:59:29.542,580.0,-1765.0,671.0,-131.0,115.0,56.0,158,107,116,123,104
2025-02-25 17:59:29.546,397.0,-1950.0,414.0,-204.0,69.0,66.0,158,105,112,120,103
2025-02-25 17:59:29.554,417.0,-2105.0,338.0,-218.0,42.0,77.0,154,104,110,121,102
2025-02-25 17:59:29.558,334.0,-2268.0,249.0,-217.0,23.0,93.0,154,102,109,123,104
2025-02-25 17:59:29.562,293.0,-2327.0,191.0,-213.0,2.0,105.0,150,100,104,122,100
2025-02-25 17:59:29.570,224.0,-2401.0,289.0,-170.0,-10.0,130.0,155,103,109,125,107
2025-02-25 17:59:29.575,265.0,-2401.0,333.0,-136.0,-20.0,154.0,155,105,110,128,108
2025-02-25 17:59:29.579,357.0,-2220.0,372.0,-111.0,-21.0,179.0,156,106,110,127,105
2025-02-25 17:59:29.587,309.0,-1973.0,477.0,-104.0,-20.0,200.0,155,107,111,127,107
2025-02-25 17:59:29.591,270.0,-1724.0,571.0,-97.0,-19.0,215.0,154,106,108,123,102
2025-02-25 17:59:29.596,264.0,-1439.0,642.0,-96.0,-19.0,223.0,152,101,107,121,100
2025-02-25 17:59:29.603,219.0,-1226.0,679.0,-104.0,-15.0,225.0,151,97,105,120,99
2025-02-25 17:59:29.607,148.0,-1084.0,599.0,-126.0,-12.0,226.0,151,97,105,117,96
2025-02-25 17:59:29.612,118.0,-858.0,637.0,-139.0,-9.0,219.0,154,102,110,123,104
2025-02-25 17:59:29.620,-27.0,-764.0,622.0,-153.0,-12.0,211.0,158,107,116,127,110
2025-02-25 17:59:29.624,-108.0,-722.0,534.0,-160.0,-13.0,206.0,156,104,112,123,106
2025-02-25 17:59:29.628,-209.0,-698.0,469.0,-168.0,-18.0,202.0,154,105,109,122,102
2025-02-25 17:59:29.635,-258.0,-696.0,422.0,-174.0,-18.0,200.0,151,102,110,118,101
2025-02-25 17:59:29.640,-265.0,-651.0,384.0,-167.0,-19.0,196.0,151,99,108,119,100
2025-02-25 17:59:29.644,-311.0,-594.0,357.0,-156.0,-18.0,195.0,151,102,108,119,99
2025-02-25 17:59:29.653,-353.0,-550.0,336.0,-142.0,-16.0,191.0,155,106,112,121,103
2025-02-25 17:59:29.657,-405.0,-492.0,315.0,-125.0,-11.0,186.0,160,108,117,130,109
2025-02-25 17:59:29.664,-447.0,-412.0,318.0,-112.0,-5.0,184.0,157,106,113,126,105
2025-02-25 17:59:29.669,-510.0,-396.0,329.0,-108.0,0.0,180.0,156,104,112,126,101
2025-02-25 17:59:29.674,-485.0,-347.0,346.0,-96.0,12.0,176.0,155,104,112,124,105
2025-02-25 17:59:29.678,-497.0,-211.0,302.0,-88.0,15.0,166.0,153,101,108,120,101
2025-02-25 17:59:29.685,-538.0,-161.0,314.0,-83.0,28.0,162.0,148,96,102,114,95
2025-02-25 17:59:29.690,-566.0,-91.0,278.0,-84.0,39.0,150.0,152,92,106,121,103
2025-02-25 17:59:29.693,-638.0,-26.0,247.0,-88.0,48.0,138.0,154,104,110,121,102
2025-02-25 17:59:29.701,-699.0,42.0,200.0,-92.0,53.0,126.0,155,103,112,124,104
2025-02-25 17:59:29.706,-759.0,41.0,123.0,-91.0,54.0,115.0,150,99,108,119,99
2025-02-25 17:59:29.710,-811.0,58.0,55.0,-88.0,55.0,110.0,155,104,110,123,104
2025-02-25 17:59:29.714,-865.0,81.0,20.0,-85.0,53.0,98.0,155,105,110,123,104
2025-02-25 17:59:29.722,-871.0,120.0,-29.0,-85.0,49.0,86.0,152,100,110,120,100
2025-02-25 17:59:29.726,-879.0,147.0,-53.0,-83.0,47.0,74.0,150,97,108,121,98
2025-02-25 17:59:29.731,-915.0,157.0,-93.0,-83.0,42.0,69.0,156,103,110,122,104
2025-02-25 17:59:29.734,-900.0,142.0,-84.0,-79.0,38.0,58.0,158,103,111,124,102
2025-02-25 17:59:29.743,-893.0,145.0,-91.0,-78.0,34.0,48.0,155,105,110,123,104
2025-02-25 17:59:29.747,-882.0,119.0,-90.0,-71.0,33.0,39.0,150,99,106,117,99
2025-02-25 17:59:29.751,-871.0,104.0,-95.0,-66.0,30.0,35.0,156,105,111,123,103
2025-02-25 17:59:29.755,-865.0,81.0,-85.0,-56.0,30.0,29.0,156,106,112,123,104
2025-02-25 17:59:29.763,-824.0,61.0,-69.0,-52.0,31.0,23.0,155,105,110,123,105
2025-02-25 17:59:29.767,-824.0,38.0,-74.0,-43.0,32.0,19.0,152,97,106,117,99
2025-02-25 17:59:29.771,-794.0,16.0,-76.0,-32.0,36.0,17.0,155,101,110,122,103
2025-02-25 17:59:29.775,-794.0,41.0,-82.0,-17.0,40.0,12.0,160,108,114,127,108
2025-02-25 17:59:29.783,-773.0,24.0,-80.0,-9.0,44.0,7.0,152,98,107,120,100
2025-02-25 17:59:29.787,-795.0,28.0,-113.0,5.0,46.0,4.0,150,101,107,120,98
2025-02-25 17:59:29.792,-806.0,56.0,-124.0,17.0,50.0,-2.0,156,102,110,124,105
2025-02-25 17:59:29.796,-806.0,105.0,-146.0,25.0,55.0,-9.0,158,105,114,126,107
2025-02-25 17:59:29.804,-801.0,187.0,-176.0,40.0,57.0,-18.0,153,100,106,120,102
2025-02-25 17:59:29.808,-821.0,200.0,-220.0,55.0,63.0,-23.0,151,98,105,118,100
2025-02-25 17:59:29.812,-896.0,284.0,-269.0,73.0,65.0,-35.0,157,105,110,122,103
2025-02-25 17:59:29.820,-935.0,330.0,-323.0,84.0,67.0,-50.0,161,106,120,125,107
2025-02-25 17:59:29.824,-944.0,401.0,-391.0,103.0,67.0,-69.0,154,101,107,121,102
2025-02-25 17:59:29.829,-950.0,437.0,-432.0,125.0,65.0,-92.0,156,100,107,122,101
2025-02-25 17:59:29.833,-959.0,453.0,-482.0,147.0,60.0,-106.0,151,98,106,119,101
2025-02-25 17:59:29.841,-981.0,478.0,-539.0,167.0,50.0,-139.0,156,104,113,128,107
2025-02-25 17:59:29.845,-985.0,504.0,-540.0,188.0,32.0,-178.0,156,103,111,124,106
2025-02-25 17:59:29.850,-964.0,530.0,-554.0,196.0,9.0,-221.0,157,103,112,123,106
2025-02-25 17:59:29.857,-917.0,517.0,-521.0,211.0,-19.0,-266.0,156,103,110,124,105
2025-02-25 17:59:29.862,-884.0,502.0,-469.0,217.0,-35.0,-312.0,152,101,108,121,101
2025-02-25 17:59:29.869,-768.0,455.0,-381.0,220.0,-66.0,-355.0,152,101,107,123,102
2025-02-25 17:59:29.873,-676.0,403.0,-304.0,215.0,-102.0,-375.0,153,98,109,124,103
2025-02-25 17:59:29.877,-537.0,384.0,-249.0,202.0,-143.0,-412.0,156,104,111,125,106
2025-02-25 17:59:29.886,-350.0,258.0,-136.0,185.0,-185.0,-444.0,157,105,109,126,106
2025-02-25 17:59:29.890,-127.0,84.0,-94.0,167.0,-229.0,-470.0,157,104,110,128,109
2025-02-25 17:59:29.894,66.0,-177.0,18.0,159.0,-272.0,-488.0,159,104,111,127,107
2025-02-25 17:59:29.902,400.0,-489.0,175.0,158.0,-306.0,-490.0,160,103,113,130,107
2025-02-25 17:59:29.907,813.0,-925.0,463.0,165.0,-325.0,-471.0,157,102,111,127,106
2025-02-25 17:59:29.911,1064.0,-1503.0,740.0,170.0,-325.0,-431.0,155,101,110,126,105
2025-02-25 17:59:29.919,1531.0,-2091.0,1031.0,179.0,-312.0,-378.0,162,105,112,129,112
2025-02-25 17:59:29.923,1924.0,-2842.0,1566.0,182.0,-270.0,-288.0,158,102,110,128,108
2025-02-25 17:59:29.931,2001.0,-2993.0,1792.0,199.0,-206.0,-214.0,159,102,111,125,103
2025-02-25 17:59:29.935,2287.0,-3269.0,2058.0,215.0,-125.0,-133.0,160,99,113,129,109
2025-02-25 17:59:29.943,2421.0,-3246.0,2257.0,229.0,-40.0,-71.0,161,101,114,127,110
2025-02-25 17:59:29.947,2317.0,-3114.0,2260.0,210.0,34.0,-46.0,161,99,112,126,109
2025-02-25 17:59:29.952,2164.0,-2832.0,2144.0,167.0,94.0,2.0,165,104,118,129,113
2025-02-25 17:59:29.960,1977.0,-2523.0,2155.0,105.0,144.0,34.0,169,108,122,133,118
2025-02-25 17:59:29.964,1599.0,-2217.0,1858.0,36.0,170.0,55.0,166,105,119,129,115
2025-02-25 17:59:29.968,1440.0,-2015.0,1730.0,-6.0,183.0,76.0,162,101,115,128,111
2025-02-25 17:59:29.976,1064.0,-1768.0,1285.0,-79.0,180.0,89.0,161,96,114,125,108
2025-02-25 17:59:29.980,923.0,-1803.0,1023.0,-122.0,171.0,100.0,162,103,111,125,111
2025-02-25 17:59:29.985,730.0,-1669.0,821.0,-158.0,156.0,107.0,163,100,114,128,110
2025-02-25 17:59:29.992,628.0,-1615.0,620.0,-173.0,137.0,113.0,159,98,110,126,107
2025-02-25 17:59:29.996,469.0,-1771.0,504.0,-175.0,120.0,126.0,166,103,116,133,114
2025-02-25 17:59:30.001,441.0,-1723.0,424.0,-167.0,106.0,138.0,165,104,115,133,114
2025-02-25 17:59:30.009,338.0,-1830.0,384.0,-154.0,96.0,149.0,162,104,114,130,110
2025-02-25 17:59:30.013,322.0,-1747.0,318.0,-147.0,85.0,158.0,162,102,114,130,111
2025-02-25 17:59:30.017,279.0,-1726.0,306.0,-128.0,76.0,168.0,165,105,115,134,113
2025-02-25 17:59:30.025,243.0,-1596.0,327.0,-118.0,72.0,177.0,160,101,112,128,109
2025-02-25 17:59:30.029,200.0,-1484.0,303.0,-104.0,66.0,184.0,162,100,109,130,106
2025-02-25 17:59:30.033,100.0,-1422.0,341.0,-98.0,60.0,189.0,162,101,111,131,109
2025-02-25 17:59:30.041,59.0,-1269.0,297.0,-99.0,52.0,193.0,167,106,117,133,115
2025-02-25 17:59:30.045,59.0,-1154.0,328.0,-105.0,48.0,199.0,167,106,117,133,114
2025-02-25 17:59:30.049,-17.0,-1049.0,298.0,-106.0,45.0,201.0,166,103,116,131,113
2025-02-25 17:59:30.057,-40.0,-970.0,339.0,-109.0,45.0,201.0,162,102,114,126,109
2025-02-25 17:59:30.061,-95.0,-877.0,329.0,-113.0,44.0,202.0,164,101,113,128,110
2025-02-25 17:59:30.066,-137.0,-844.0,314.0,-111.0,46.0,202.0,167,102,113,132,112
2025-02-25 17:59:30.074,-191.0,-803.0,295.0,-109.0,49.0,202.0,166,105,116,134,113
2025-02-25 17:59:30.078,-231.0,-730.0,288.0,-105.0,55.0,202.0,170,108,123,139,119
2025-02-25 17:59:30.085,-294.0,-694.0,248.0,-102.0,61.0,202.0,166,104,115,134,116
2025-02-25 17:59:30.090,-325.0,-658.0,235.0,-94.0,71.0,201.0,166,103,115,132,113
2025-02-25 17:59:30.095,-375.0,-574.0,176.0,-91.0,74.0,199.0,163,99,112,129,110
2025-02-25 17:59:30.099,-424.0,-543.0,158.0,-77.0,82.0,196.0,163,100,113,132,109
2025-02-25 17:59:30.106,-466.0,-483.0,102.0,-66.0,91.0,193.0,168,103,117,137,116
2025-02-25 17:59:30.110,-530.0,-420.0,94.0,-57.0,98.0,188.0,164,102,113,132,113
2025-02-25 17:59:30.115,-571.0,-378.0,54.0,-55.0,105.0,186.0,162,98,111,128,108
2025-02-25 17:59:30.119,-591.0,-335.0,1.0,-42.0,108.0,184.0,163,99,112,129,110
2025-02-25 17:59:30.127,-617.0,-314.0,-63.0,-34.0,112.0,181.0,163,100,112,129,110
2025-02-25 17:59:30.131,-671.0,-295.0,-124.0,-22.0,110.0,178.0,163,101,113,130,110
2025-02-25 17:59:30.136,-674.0,-275.0,-250.0,-20.0,103.0,176.0,167,103,114,132,111
2025-02-25 17:59:30.143,-750.0,-193.0,-268.0,-10.0,95.0,171.0,167,102,112,131,112
2025-02-25 17:59:30.148,-782.0,-191.0,-298.0,-3.0,87.0,165.0,166,100,114,131,111
2025-02-25 17:59:30.152,-734.0,-99.0,-286.0,-2.0,83.0,162.0,162,98,114,129,111
2025-02-25 17:59:30.160,-719.0,-177.0,-393.0,7.0,78.0,158.0,164,100,111,129,107
2025-02-25 17:59:30.164,-736.0,-135.0,-337.0,13.0,76.0,157.0,163,97,109,125,109
2025-02-25 17:59:30.168,-745.0,-144.0,-349.0,17.0,75.0,159.0,166,102,112,131,112
2025-02-25 17:59:30.177,-698.0,-169.0,-342.0,38.0,81.0,159.0,165,99,116,129,113
2025-02-25 17:59:30.180,-721.0,-197.0,-506.0,44.0,73.0,160.0,168,100,115,132,113
2025-02-25 17:59:30.185,-691.0,-234.0,-450.0,74.0,73.0,162.0,163,97,111,129,112
2025-02-25 17:59:30.193,-619.0,-279.0,-487.0,102.0,72.0,163.0,163,99,110,127,112
2025-02-25 17:59:30.197,-595.0,-314.0,-516.0,130.0,70.0,165.0,168,105,116,132,115
2025-02-25 17:59:30.202,-594.0,-193.0,-503.0,169.0,73.0,156.0,172,102,117,132,116
2025-02-25 17:59:30.209,-646.0,-151.0,-654.0,200.0,65.0,147.0,169,104,118,133,117
2025-02-25 17:59:30.213,-652.0,-157.0,-525.0,210.0,63.0,141.0,167,103,115,129,115
2025-02-25 17:59:30.217,-646.0,-84.0,-585.0,247.0,63.0,135.0,169,101,117,133,119
2025-02-25 17:59:30.225,-635.0,-52.0,-854.0,276.0,62.0,123.0,164,97,115,129,115
2025-02-25 17:59:30.230,-664.0,325.0,-1055.0,299.0,36.0,124.0,166,98,115,128,115
2025-02-25 17:59:30.234,-731.0,255.0,-971.0,353.0,8.0,103.0,169,103,120,130,118
2025-02-25 17:59:30.239,-841.0,250.0,-930.0,366.0,-14.0,79.0,172,106,122,131,119
2025-02-25 17:59:30.246,-685.0,542.0,-777.0,381.0,-30.0,52.0,168,107,118,129,119
2025-02-25 17:59:30.251,-741.0,427.0,-1074.0,395.0,-44.0,33.0,164,104,110,127,119
2025-02-25 17:59:30.256,-827.0,326.0,-1164.0,412.0,-64.0,15.0,168,115,111,123,115
2025-02-25 17:59:30.263,-900.0,513.0,-1275.0,401.0,-105.0,-1.0,167,121,111,120,116
2025-02-25 17:59:30.267,-997.0,666.0,-1356.0,402.0,-148.0,-39.0,168,131,117,123,119
2025-02-25 17:59:30.275,-1062.0,873.0,-1256.0,395.0,-189.0,-80.0,169,134,115,125,121
2025-02-25 17:59:30.279,-1057.0,863.0,-987.0,404.0,-219.0,-109.0,172,145,118,123,120
2025-02-25 17:59:30.283,-981.0,653.0,-1019.0,401.0,-259.0,-134.0,164,142,112,121,118
