timestamp,ax,ay,az,gx,gy,gz,flex1,flex2,flex3,flex4,flex5,emg1,emg2,emg3
2025-02-26 14:57:54.360,-241.0,-914.0,302.0,0.0,1.0,-2.0,220,201,193,207,204
2025-02-26 14:57:54.363,-238.0,-914.0,303.0,0.0,1.0,-2.0,220,203,197,210,205
2025-02-26 14:57:54.365,-244.0,-917.0,299.0,0.0,1.0,-2.0,222,201,194,207,203
2025-02-26 14:57:54.368,-244.0,-924.0,298.0,-1.0,0.0,-2.0,220,204,196,208,204
2025-02-26 14:57:54.371,-243.0,-925.0,298.0,-1.0,0.0,-2.0,215,197,189,203,199
2025-02-26 14:57:54.373,-248.0,-922.0,301.0,-1.0,-1.0,-2.0,226,208,201,214,210
2025-02-26 14:57:54.375,-245.0,-931.0,305.0,0.0,-1.0,-2.0,226,208,202,214,208
2025-02-26 14:57:54.379,-245.0,-932.0,302.0,0.0,-1.0,-2.0,218,200,192,205,202
2025-02-26 14:57:54.380,-246.0,-928.0,307.0,0.0,-1.0,-2.0,223,206,199,211,208
2025-02-26 14:57:54.380,-252.0,-927.0,304.0,0.0,-1.0,-2.0,226,205,199,211,207
2025-02-26 14:57:54.387,-253.0,-927.0,313.0,0.0,-1.0,-2.0,220,200,194,205,203
2025-02-26 14:57:54.389,-259.0,-928.0,310.0,1.0,-2.0,-2.0,224,206,201,213,209
2025-02-26 14:57:54.392,-253.0,-930.0,312.0,0.0,-2.0,-2.0,224,204,197,210,205
2025-02-26 14:57:54.392,-255.0,-928.0,305.0,0.0,-2.0,-2.0,216,199,191,205,202
2025-02-26 14:57:54.392,-252.0,-923.0,315.0,0.0,-2.0,-2.0,225,209,201,212,209
2025-02-26 14:57:54.399,-246.0,-925.0,311.0,0.0,-1.0,-2.0,222,204,198,210,207
2025-02-26 14:57:54.401,-253.0,-936.0,316.0,0.0,-1.0,-2.0,219,197,193,206,200
2025-02-26 14:57:54.403,-250.0,-931.0,317.0,0.0,-1.0,-2.0,224,207,200,210,207
2025-02-26 14:57:54.404,-252.0,-931.0,320.0,0.0,-2.0,-2.0,224,207,201,213,210
2025-02-26 14:57:54.404,-250.0,-933.0,327.0,0.0,-1.0,-2.0,217,202,192,205,202
2025-02-26 14:57:54.404,-248.0,-938.0,326.0,0.0,-1.0,-2.0,222,205,199,212,207
2025-02-26 14:57:54.404,-231.0,-927.0,327.0,0.0,-1.0,-2.0,222,203,196,210,206
2025-02-26 14:57:54.404,-231.0,-939.0,327.0,-2.0,0.0,-2.0,211,202,194,209,203
2025-02-26 14:57:54.417,-247.0,-944.0,333.0,-1.0,-1.0,-2.0,225,209,198,210,209
2025-02-26 14:57:54.418,-249.0,-945.0,310.0,-1.0,-1.0,-2.0,223,204,194,208,205
2025-02-26 14:57:54.421,-240.0,-947.0,319.0,-2.0,-1.0,-1.0,218,200,191,205,202
2025-02-26 14:57:54.422,-237.0,-942.0,326.0,-3.0,-1.0,-1.0,227,208,200,212,213
2025-02-26 14:57:54.422,-242.0,-944.0,323.0,-4.0,-1.0,-1.0,226,207,200,210,209
2025-02-26 14:57:54.422,-247.0,-953.0,314.0,-4.0,0.0,0.0,221,202,194,207,203
2025-02-26 14:57:54.431,-234.0,-950.0,313.0,-3.0,0.0,0.0,219,197,192,205,202
2025-02-26 14:57:54.433,-237.0,-945.0,308.0,-6.0,0.0,0.0,227,210,201,212,210
2025-02-26 14:57:54.434,-236.0,-942.0,329.0,-5.0,0.0,0.0,225,203,197,211,207
2025-02-26 14:57:54.438,-241.0,-947.0,331.0,-5.0,2.0,0.0,218,200,192,203,200
2025-02-26 14:57:54.440,-239.0,-949.0,302.0,-4.0,0.0,0.0,222,204,197,209,205
2025-02-26 14:57:54.441,-255.0,-948.0,301.0,-4.0,0.0,1.0,224,208,199,213,209
2025-02-26 14:57:54.445,-253.0,-935.0,314.0,-4.0,1.0,0.0,221,201,194,206,204
2025-02-26 14:57:54.447,-249.0,-952.0,315.0,-2.0,0.0,1.0,219,198,190,205,201
2025-02-26 14:57:54.447,-266.0,-941.0,300.0,-4.0,-1.0,1.0,223,207,198,213,208
2025-02-26 14:57:54.451,-253.0,-957.0,309.0,-2.0,-2.0,0.0,224,206,198,211,208
2025-02-26 14:57:54.451,-267.0,-947.0,329.0,-1.0,0.0,0.0,218,201,193,205,202
2025-02-26 14:57:54.456,-260.0,-938.0,339.0,0.0,1.0,0.0,218,199,194,205,201
2025-02-26 14:57:54.457,-241.0,-936.0,316.0,0.0,-1.0,-1.0,224,206,199,212,208
2025-02-26 14:57:54.460,-241.0,-952.0,342.0,-3.0,2.0,0.0,223,203,198,210,207
2025-02-26 14:57:54.465,-256.0,-927.0,311.0,-3.0,1.0,0.0,219,199,193,205,201
2025-02-26 14:57:54.465,-242.0,-939.0,336.0,-3.0,2.0,0.0,223,205,198,210,207
2025-02-26 14:57:54.476,-257.0,-935.0,297.0,-2.0,1.0,0.0,227,208,200,212,210
2025-02-26 14:57:54.477,-246.0,-937.0,306.0,-5.0,2.0,-1.0,218,201,194,207,202
2025-02-26 14:57:54.477,-254.0,-926.0,309.0,-1.0,1.0,0.0,216,198,191,204,200
2025-02-26 14:57:54.477,-253.0,-939.0,315.0,-3.0,1.0,0.0,224,205,197,210,207
2025-02-26 14:57:54.495,-250.0,-934.0,311.0,-3.0,1.0,-1.0,226,211,202,214,210
2025-02-26 14:57:54.501,-256.0,-942.0,309.0,-2.0,1.0,0.0,217,198,193,205,201
2025-02-26 14:57:54.505,-250.0,-945.0,309.0,-3.0,1.0,0.0,222,205,198,211,208
2025-02-26 14:57:54.508,-233.0,-924.0,320.0,-4.0,1.0,0.0,222,205,198,209,207
2025-02-26 14:57:54.517,-236.0,-939.0,312.0,-4.0,1.0,1.0,224,205,199,210,207
2025-02-26 14:57:54.521,-244.0,-937.0,309.0,-5.0,-1.0,1.0,219,200,193,206,202
2025-02-26 14:57:54.525,-241.0,-941.0,310.0,-6.0,-1.0,1.0,224,207,199,212,207
2025-02-26 14:57:54.530,-236.0,-939.0,309.0,-6.0,-1.0,1.0,221,204,195,207,204
2025-02-26 14:57:54.536,-245.0,-939.0,319.0,-6.0,-1.0,1.0,222,205,197,209,207
2025-02-26 14:57:54.542,-239.0,-939.0,313.0,-6.0,0.0,1.0,222,208,197,211,206
2025-02-26 14:57:54.544,-241.0,-935.0,311.0,-5.0,0.0,1.0,224,205,198,211,206
2025-02-26 14:57:54.550,-237.0,-937.0,306.0,-6.0,0.0,1.0,218,200,192,205,201
2025-02-26 14:57:54.556,-245.0,-938.0,299.0,-5.0,-1.0,1.0,221,207,198,210,206
2025-02-26 14:57:54.562,-247.0,-939.0,296.0,-5.0,-1.0,1.0,224,207,199,212,210
2025-02-26 14:57:54.566,-252.0,-938.0,298.0,-5.0,-1.0,1.0,223,206,196,210,206
2025-02-26 14:57:54.571,-253.0,-938.0,292.0,-4.0,-1.0,1.0,217,198,191,203,201
2025-02-26 14:57:54.574,-252.0,-934.0,295.0,-4.0,-1.0,1.0,218,200,192,206,203
2025-02-26 14:57:54.583,-247.0,-933.0,294.0,-3.0,-1.0,1.0,226,207,201,212,209
2025-02-26 14:57:54.586,-252.0,-935.0,290.0,-3.0,-2.0,1.0,220,201,195,208,205
2025-02-26 14:57:54.592,-247.0,-934.0,304.0,-3.0,-2.0,1.0,215,199,192,204,201
2025-02-26 14:57:54.592,-249.0,-937.0,304.0,-3.0,-3.0,0.0,219,201,193,206,201
2025-02-26 14:57:54.592,-248.0,-932.0,303.0,-3.0,-3.0,0.0,225,208,200,212,209
2025-02-26 14:57:54.608,-244.0,-935.0,309.0,-3.0,-2.0,1.0,220,202,195,207,204
2025-02-26 14:57:54.612,-242.0,-932.0,309.0,-3.0,-2.0,1.0,216,198,192,201,199
2025-02-26 14:57:54.620,-243.0,-933.0,311.0,-3.0,-1.0,1.0,225,212,199,210,207
2025-02-26 14:57:54.620,-246.0,-939.0,312.0,-3.0,-1.0,1.0,225,206,200,213,209
2025-02-26 14:57:54.627,-251.0,-936.0,309.0,-4.0,-2.0,1.0,225,203,196,209,205
2025-02-26 14:57:54.633,-249.0,-934.0,304.0,-4.0,-2.0,1.0,216,198,190,202,200
2025-02-26 14:57:54.635,-257.0,-937.0,302.0,-3.0,-2.0,2.0,223,208,200,212,210
2025-02-26 14:57:54.635,-250.0,-927.0,311.0,-4.0,-1.0,1.0,226,206,200,210,209
2025-02-26 14:57:54.649,-254.0,-929.0,308.0,-4.0,-2.0,1.0,216,200,193,206,202
2025-02-26 14:57:54.653,-266.0,-924.0,299.0,-3.0,-2.0,1.0,217,199,193,204,201
2025-02-26 14:57:54.660,-263.0,-928.0,294.0,-3.0,-2.0,1.0,225,207,200,212,209
2025-02-26 14:57:54.660,-262.0,-926.0,297.0,-3.0,-2.0,0.0,227,207,200,213,208
2025-02-26 14:57:54.669,-260.0,-932.0,301.0,-3.0,-2.0,1.0,217,199,191,204,200
2025-02-26 14:57:54.671,-262.0,-930.0,301.0,-3.0,-2.0,0.0,219,199,192,204,201
2025-02-26 14:57:54.671,-257.0,-934.0,304.0,-3.0,-3.0,0.0,225,207,200,213,210
2025-02-26 14:57:54.671,-258.0,-931.0,310.0,-2.0,-3.0,1.0,223,205,198,210,207
2025-02-26 14:57:54.689,-253.0,-927.0,316.0,-3.0,-3.0,0.0,216,198,191,204,200
2025-02-26 14:57:54.697,-252.0,-929.0,313.0,-3.0,-3.0,0.0,222,204,197,209,206
2025-02-26 14:57:54.698,-249.0,-931.0,318.0,-2.0,-3.0,0.0,226,208,200,212,209
2025-02-26 14:57:54.705,-251.0,-933.0,315.0,-2.0,-2.0,0.0,216,200,192,204,201
2025-02-26 14:57:54.709,-253.0,-932.0,314.0,-2.0,-2.0,0.0,212,195,186,199,197
2025-02-26 14:57:54.718,-254.0,-934.0,312.0,-2.0,-2.0,0.0,218,201,194,206,203
2025-02-26 14:57:54.721,-257.0,-932.0,311.0,-2.0,-1.0,0.0,220,203,196,209,205
2025-02-26 14:57:54.725,-253.0,-932.0,313.0,-3.0,-1.0,0.0,218,200,192,204,202
2025-02-26 14:57:54.725,-257.0,-934.0,317.0,-2.0,-1.0,0.0,212,195,187,199,196
2025-02-26 14:57:54.736,-258.0,-933.0,310.0,-2.0,-1.0,0.0,223,206,197,208,207
2025-02-26 14:57:54.742,-251.0,-930.0,308.0,-2.0,-1.0,0.0,222,202,196,209,205
2025-02-26 14:57:54.744,-253.0,-929.0,305.0,-2.0,-1.0,0.0,217,199,193,205,202
2025-02-26 14:57:54.750,-254.0,-931.0,308.0,-1.0,-1.0,0.0,212,194,186,198,195
2025-02-26 14:57:54.756,-245.0,-927.0,304.0,-2.0,-1.0,0.0,222,206,198,211,207
2025-02-26 14:57:54.762,-254.0,-927.0,308.0,-2.0,0.0,0.0,221,202,196,207,204
2025-02-26 14:57:54.766,-249.0,-925.0,295.0,-2.0,-1.0,-1.0,214,197,188,201,197
2025-02-26 14:57:54.771,-241.0,-931.0,312.0,-3.0,0.0,-1.0,214,196,187,200,196
2025-02-26 14:57:54.774,-253.0,-933.0,304.0,-3.0,0.0,0.0,222,204,196,212,208
2025-02-26 14:57:54.783,-255.0,-935.0,305.0,-3.0,0.0,-1.0,222,203,195,209,205
2025-02-26 14:57:54.786,-257.0,-937.0,305.0,-3.0,0.0,-1.0,214,195,190,201,197
2025-02-26 14:57:54.786,-257.0,-946.0,303.0,-3.0,0.0,0.0,213,195,188,200,197
2025-02-26 14:57:54.798,-258.0,-940.0,310.0,-3.0,0.0,0.0,221,204,197,211,206
2025-02-26 14:57:54.804,-261.0,-937.0,305.0,-3.0,-1.0,0.0,218,200,192,204,202
2025-02-26 14:57:54.804,-249.0,-939.0,303.0,-4.0,-1.0,0.0,212,194,186,203,197
2025-02-26 14:57:54.812,-252.0,-943.0,295.0,-4.0,0.0,0.0,217,196,190,203,199
2025-02-26 14:57:54.816,-260.0,-945.0,299.0,-4.0,-1.0,0.0,222,203,196,209,206
2025-02-26 14:57:54.824,-245.0,-939.0,305.0,-4.0,-1.0,0.0,217,199,192,204,202
2025-02-26 14:57:54.829,-249.0,-943.0,297.0,-4.0,-1.0,0.0,211,194,186,202,197
2025-02-26 14:57:54.833,-262.0,-942.0,291.0,-3.0,-1.0,0.0,220,205,196,207,205
2025-02-26 14:57:54.840,-254.0,-941.0,294.0,-3.0,-1.0,0.0,220,205,195,207,204
2025-02-26 14:57:54.842,-251.0,-946.0,305.0,-3.0,0.0,0.0,217,197,190,202,199
2025-02-26 14:57:54.849,-255.0,-944.0,303.0,-3.0,-1.0,0.0,214,197,189,201,201
2025-02-26 14:57:54.853,-258.0,-945.0,302.0,-2.0,-1.0,0.0,221,201,193,208,205
2025-02-26 14:57:54.861,-257.0,-947.0,297.0,-2.0,-1.0,0.0,222,202,196,208,205
2025-02-26 14:57:54.865,-259.0,-946.0,298.0,-2.0,0.0,0.0,214,197,189,201,198
2025-02-26 14:57:54.869,-258.0,-944.0,305.0,-2.0,-1.0,0.0,214,195,187,199,197
2025-02-26 14:57:54.874,-255.0,-943.0,303.0,-2.0,0.0,0.0,220,201,194,207,204
2025-02-26 14:57:54.881,-253.0,-941.0,301.0,-2.0,0.0,-1.0,219,203,194,206,202
2025-02-26 14:57:54.885,-250.0,-939.0,300.0,-2.0,0.0,-1.0,214,196,187,200,197
2025-02-26 14:57:54.890,-256.0,-939.0,300.0,-2.0,1.0,0.0,220,202,195,207,202
2025-02-26 14:57:54.894,-258.0,-940.0,298.0,-3.0,0.0,0.0,225,208,200,214,210
2025-02-26 14:57:54.901,-264.0,-939.0,300.0,-3.0,0.0,0.0,216,197,189,202,199
2025-02-26 14:57:54.906,-263.0,-942.0,300.0,-2.0,0.0,0.0,213,196,189,200,198
2025-02-26 14:57:54.911,-265.0,-940.0,303.0,-2.0,0.0,0.0,220,202,196,207,206
2025-02-26 14:57:54.915,-258.0,-940.0,298.0,-2.0,0.0,0.0,224,206,199,210,207
2025-02-26 14:57:54.919,-259.0,-938.0,302.0,-3.0,0.0,0.0,218,200,192,205,201
2025-02-26 14:57:54.927,-263.0,-937.0,301.0,-3.0,0.0,0.0,224,205,198,211,207
2025-02-26 14:57:54.931,-255.0,-938.0,304.0,-2.0,0.0,0.0,223,206,198,211,207
2025-02-26 14:57:54.935,-261.0,-937.0,301.0,-3.0,0.0,0.0,223,207,199,211,208
2025-02-26 14:57:54.940,-260.0,-939.0,303.0,-3.0,0.0,0.0,218,198,191,203,199
2025-02-26 14:57:54.947,-262.0,-941.0,308.0,-2.0,0.0,0.0,223,206,198,211,208
2025-02-26 14:57:54.952,-260.0,-939.0,302.0,-2.0,0.0,0.0,221,203,196,208,205
2025-02-26 14:57:54.956,-259.0,-937.0,309.0,-3.0,0.0,-1.0,224,205,199,210,206
2025-02-26 14:57:54.959,-269.0,-940.0,301.0,-3.0,1.0,-1.0,226,208,201,212,207
2025-02-26 14:57:54.968,-266.0,-942.0,302.0,-3.0,1.0,-1.0,224,206,198,211,207
2025-02-26 14:57:54.970,-260.0,-949.0,305.0,-3.0,1.0,-1.0,218,202,197,207,204
2025-02-26 14:57:54.976,-263.0,-948.0,309.0,-2.0,1.0,-1.0,223,204,198,209,206
2025-02-26 14:57:54.980,-260.0,-954.0,308.0,-2.0,1.0,-1.0,225,207,200,212,209
2025-02-26 14:57:54.988,-260.0,-944.0,302.0,-2.0,2.0,-1.0,222,207,199,211,207
2025-02-26 14:57:54.992,-264.0,-944.0,300.0,-2.0,3.0,-1.0,217,200,193,205,201
2025-02-26 14:57:54.994,-266.0,-943.0,305.0,-2.0,3.0,-1.0,220,203,198,209,205
2025-02-26 14:57:55.001,-261.0,-940.0,311.0,-2.0,3.0,-1.0,223,208,200,211,209
2025-02-26 14:57:55.008,-265.0,-937.0,310.0,-2.0,3.0,-1.0,221,205,199,210,206
2025-02-26 14:57:55.012,-257.0,-936.0,305.0,-3.0,3.0,-2.0,218,199,191,204,202
2025-02-26 14:57:55.016,-265.0,-932.0,309.0,-3.0,4.0,-2.0,218,200,191,203,203
2025-02-26 14:57:55.022,-272.0,-933.0,311.0,-3.0,4.0,-2.0,225,207,201,212,209
2025-02-26 14:57:55.029,-275.0,-933.0,315.0,-3.0,5.0,-3.0,219,203,193,208,202
2025-02-26 14:57:55.033,-281.0,-941.0,308.0,-3.0,5.0,-3.0,217,200,192,204,202
2025-02-26 14:57:55.038,-274.0,-945.0,315.0,-4.0,6.0,-4.0,217,201,194,203,202
2025-02-26 14:57:55.042,-275.0,-949.0,303.0,-4.0,6.0,-4.0,225,206,200,211,209
2025-02-26 14:57:55.049,-274.0,-947.0,298.0,-4.0,6.0,-4.0,222,203,195,207,204
2025-02-26 14:57:55.054,-281.0,-956.0,294.0,-4.0,6.0,-4.0,218,200,191,203,196
2025-02-26 14:57:55.058,-289.0,-955.0,290.0,-3.0,7.0,-4.0,223,204,199,211,207
2025-02-26 14:57:55.066,-287.0,-967.0,291.0,-2.0,7.0,-4.0,224,209,199,212,208
2025-02-26 14:57:55.070,-281.0,-972.0,296.0,-2.0,8.0,-4.0,221,204,197,209,209
2025-02-26 14:57:55.074,-278.0,-975.0,295.0,-2.0,8.0,-4.0,216,200,192,204,200
2025-02-26 14:57:55.079,-287.0,-973.0,306.0,-3.0,9.0,-4.0,225,209,199,212,208
2025-02-26 14:57:55.086,-283.0,-968.0,301.0,-4.0,9.0,-4.0,225,205,199,211,209
2025-02-26 14:57:55.091,-276.0,-966.0,307.0,-4.0,10.0,-5.0,219,202,192,208,203
2025-02-26 14:57:55.095,-275.0,-971.0,305.0,-5.0,10.0,-5.0,217,203,191,203,199
2025-02-26 14:57:55.098,-273.0,-966.0,314.0,-6.0,11.0,-4.0,224,207,199,212,208
2025-02-26 14:57:55.107,-271.0,-961.0,314.0,-8.0,12.0,-4.0,222,205,197,211,207
2025-02-26 14:57:55.111,-263.0,-956.0,321.0,-9.0,13.0,-4.0,221,202,195,207,204
2025-02-26 14:57:55.116,-266.0,-957.0,314.0,-10.0,12.0,-4.0,225,205,198,210,208
2025-02-26 14:57:55.121,-272.0,-955.0,314.0,-11.0,14.0,-3.0,216,198,191,205,200
2025-02-26 14:57:55.128,-271.0,-952.0,303.0,-10.0,10.0,-3.0,223,205,197,209,207
2025-02-26 14:57:55.132,-273.0,-953.0,329.0,-11.0,13.0,-2.0,223,204,198,210,207
2025-02-26 14:57:55.132,-270.0,-947.0,305.0,-10.0,12.0,-3.0,226,206,201,213,209
2025-02-26 14:57:55.143,-278.0,-957.0,311.0,-8.0,12.0,-3.0,216,200,193,205,201
2025-02-26 14:57:55.148,-277.0,-953.0,316.0,-7.0,13.0,-4.0,218,199,191,204,200
2025-02-26 14:57:55.153,-282.0,-951.0,303.0,-7.0,12.0,-4.0,223,205,198,210,206
2025-02-26 14:57:55.157,-280.0,-945.0,317.0,-7.0,13.0,-5.0,221,203,199,210,206
2025-02-26 14:57:55.164,-273.0,-941.0,316.0,-7.0,14.0,-5.0,218,201,193,205,202
2025-02-26 14:57:55.169,-276.0,-950.0,306.0,-8.0,13.0,-5.0,214,196,191,206,200
2025-02-26 14:57:55.172,-263.0,-943.0,248.0,0.0,8.0,-5.0,225,205,198,210,206
2025-02-26 14:57:55.180,-270.0,-977.0,363.0,-7.0,11.0,-5.0,223,210,198,207,206
2025-02-26 14:57:55.184,-271.0,-925.0,361.0,-11.0,14.0,-6.0,219,200,192,204,201
2025-02-26 14:57:55.189,-269.0,-949.0,328.0,-9.0,15.0,-6.0,217,197,191,204,200
2025-02-26 14:57:55.193,-281.0,-964.0,317.0,-6.0,15.0,-6.0,225,205,198,211,207
2025-02-26 14:57:55.201,-272.0,-948.0,327.0,-7.0,16.0,-6.0,224,205,198,212,208
2025-02-26 14:57:55.206,-273.0,-938.0,327.0,-7.0,17.0,-6.0,221,202,195,207,205
2025-02-26 14:57:55.209,-267.0,-935.0,328.0,-9.0,18.0,-6.0,216,197,189,201,199
2025-02-26 14:57:55.217,-267.0,-958.0,299.0,-7.0,18.0,-7.0,229,212,206,214,213
2025-02-26 14:57:55.217,-261.0,-941.0,323.0,-9.0,18.0,-7.0,226,204,198,211,208
2025-02-26 14:57:55.223,-246.0,-947.0,308.0,-9.0,19.0,-6.0,221,202,195,208,204
2025-02-26 14:57:55.230,-241.0,-950.0,311.0,-11.0,19.0,-5.0,217,198,191,204,200
2025-02-26 14:57:55.237,-240.0,-948.0,317.0,-13.0,19.0,-4.0,222,203,195,208,206
2025-02-26 14:57:55.241,-232.0,-938.0,322.0,-14.0,19.0,-4.0,224,206,198,212,207
2025-02-26 14:57:55.247,-230.0,-938.0,315.0,-15.0,20.0,-3.0,224,204,197,209,207
2025-02-26 14:57:55.254,-234.0,-925.0,326.0,-13.0,21.0,-2.0,222,203,194,208,206
2025-02-26 14:57:55.258,-228.0,-924.0,304.0,-14.0,21.0,-1.0,220,199,192,207,204
2025-02-26 14:57:55.263,-234.0,-922.0,291.0,-14.0,21.0,0.0,215,197,190,200,200
2025-02-26 14:57:55.268,-234.0,-925.0,287.0,-15.0,20.0,0.0,223,203,197,210,205
2025-02-26 14:57:55.272,-233.0,-912.0,288.0,-15.0,19.0,1.0,223,203,197,209,206
2025-02-26 14:57:55.279,-224.0,-905.0,286.0,-15.0,18.0,1.0,217,203,193,206,203
2025-02-26 14:57:55.284,-220.0,-902.0,276.0,-15.0,17.0,1.0,219,199,191,204,200
2025-02-26 14:57:55.291,-219.0,-903.0,265.0,-15.0,17.0,1.0,222,203,199,214,206
2025-02-26 14:57:55.295,-225.0,-911.0,230.0,-17.0,13.0,0.0,223,205,198,211,207
2025-02-26 14:57:55.296,-236.0,-918.0,261.0,-14.0,14.0,1.0,221,202,196,209,206
2025-02-26 14:57:55.304,-216.0,-945.0,249.0,-8.0,15.0,0.0,215,196,190,204,199
2025-02-26 14:57:55.312,-205.0,-920.0,250.0,-12.0,16.0,0.0,224,204,197,209,207
2025-02-26 14:57:55.314,-220.0,-938.0,248.0,-8.0,16.0,0.0,229,209,203,217,213
2025-02-26 14:57:55.320,-230.0,-945.0,233.0,-6.0,15.0,0.0,223,204,199,212,203
2025-02-26 14:57:55.325,-224.0,-954.0,223.0,-4.0,14.0,0.0,216,196,188,202,198
2025-02-26 14:57:55.332,-229.0,-959.0,206.0,-7.0,13.0,0.0,222,205,197,210,207
2025-02-26 14:57:55.333,-231.0,-962.0,229.0,-8.0,15.0,0.0,230,211,205,216,214
2025-02-26 14:57:55.341,-224.0,-952.0,237.0,-7.0,15.0,0.0,218,201,195,207,204
2025-02-26 14:57:55.345,-219.0,-956.0,212.0,-6.0,15.0,0.0,214,198,191,202,199
2025-02-26 14:57:55.353,-225.0,-953.0,221.0,-6.0,16.0,0.0,223,203,197,210,208
2025-02-26 14:57:55.357,-230.0,-945.0,210.0,-8.0,17.0,1.0,228,209,202,216,212
2025-02-26 14:57:55.361,-225.0,-948.0,200.0,-9.0,16.0,2.0,218,200,193,204,201
2025-02-26 14:57:55.363,-224.0,-957.0,196.0,-9.0,14.0,2.0,218,198,191,204,201
2025-02-26 14:57:55.373,-226.0,-951.0,207.0,-11.0,12.0,2.0,224,205,196,209,207
2025-02-26 14:57:55.375,-221.0,-953.0,209.0,-13.0,9.0,2.0,227,206,201,214,210
2025-02-26 14:57:55.382,-212.0,-953.0,212.0,-14.0,9.0,3.0,219,200,192,206,203
2025-02-26 14:57:55.386,-217.0,-959.0,214.0,-14.0,8.0,3.0,214,198,191,203,202
2025-02-26 14:57:55.393,-226.0,-961.0,208.0,-13.0,8.0,3.0,222,204,198,211,207
2025-02-26 14:57:55.398,-225.0,-959.0,204.0,-13.0,7.0,3.0,225,205,197,212,208
2025-02-26 14:57:55.402,-228.0,-963.0,194.0,-15.0,6.0,3.0,218,201,194,205,202
2025-02-26 14:57:55.407,-233.0,-973.0,213.0,-11.0,6.0,4.0,212,196,188,203,198
2025-02-26 14:57:55.414,-231.0,-975.0,189.0,-10.0,6.0,4.0,223,205,199,210,207
2025-02-26 14:57:55.418,-240.0,-971.0,166.0,-10.0,5.0,4.0,223,203,201,210,206
2025-02-26 14:57:55.422,-241.0,-973.0,198.0,-10.0,6.0,5.0,217,198,192,204,202
2025-02-26 14:57:55.423,-246.0,-979.0,185.0,-9.0,6.0,6.0,216,198,189,204,201
2025-02-26 14:57:55.434,-244.0,-979.0,193.0,-10.0,5.0,6.0,223,205,198,211,208
2025-02-26 14:57:55.436,-255.0,-970.0,188.0,-8.0,6.0,7.0,229,204,198,204,208
2025-02-26 14:57:55.441,-252.0,-970.0,177.0,-9.0,4.0,8.0,216,199,194,204,201
2025-02-26 14:57:55.448,-257.0,-961.0,197.0,-12.0,5.0,9.0,220,204,192,211,208
2025-02-26 14:57:55.454,-262.0,-960.0,186.0,-9.0,4.0,9.0,219,201,194,207,204
2025-02-26 14:57:55.459,-261.0,-955.0,184.0,-7.0,4.0,9.0,214,197,186,201,199
2025-02-26 14:57:55.464,-258.0,-953.0,190.0,-6.0,3.0,9.0,210,194,186,199,196
2025-02-26 14:57:55.468,-263.0,-958.0,198.0,-5.0,4.0,9.0,218,201,197,206,202
2025-02-26 14:57:55.472,-261.0,-951.0,176.0,-5.0,3.0,8.0,218,199,192,206,203
2025-02-26 14:57:55.480,-263.0,-957.0,183.0,-4.0,-1.0,9.0,214,194,189,201,198
2025-02-26 14:57:55.484,-256.0,-977.0,183.0,-10.0,1.0,8.0,222,202,194,207,205
2025-02-26 14:57:55.488,-256.0,-965.0,203.0,-9.0,0.0,8.0,219,201,194,205,203
2025-02-26 14:57:55.496,-255.0,-959.0,208.0,-8.0,1.0,9.0,214,194,188,201,198
2025-02-26 14:57:55.501,-258.0,-972.0,205.0,-10.0,2.0,9.0,213,195,188,200,198
2025-02-26 14:57:55.502,-266.0,-967.0,182.0,-11.0,2.0,10.0,219,201,194,207,203
2025-02-26 14:57:55.508,-271.0,-952.0,204.0,-11.0,3.0,10.0,217,199,192,205,202
2025-02-26 14:57:55.517,-269.0,-959.0,205.0,-11.0,3.0,11.0,220,199,193,207,203
2025-02-26 14:57:55.521,-271.0,-949.0,174.0,-12.0,2.0,10.0,215,195,189,203,199
2025-02-26 14:57:55.525,-277.0,-942.0,178.0,-13.0,0.0,10.0,220,200,194,207,204
2025-02-26 14:57:55.533,-287.0,-937.0,197.0,-11.0,0.0,10.0,219,200,194,206,203
2025-02-26 14:57:55.537,-296.0,-937.0,192.0,-11.0,0.0,9.0,220,202,196,207,205
2025-02-26 14:57:55.542,-296.0,-932.0,186.0,-12.0,0.0,9.0,214,194,187,200,197
2025-02-26 14:57:55.546,-298.0,-931.0,190.0,-11.0,0.0,9.0,220,201,195,206,205
2025-02-26 14:57:55.552,-296.0,-946.0,192.0,-13.0,-1.0,10.0,220,201,194,205,203
2025-02-26 14:57:55.558,-294.0,-926.0,199.0,-13.0,-1.0,10.0,220,203,197,208,205
2025-02-26 14:57:55.562,-289.0,-926.0,215.0,-12.0,1.0,10.0,213,194,188,201,198
2025-02-26 14:57:55.567,-299.0,-933.0,174.0,-12.0,0.0,9.0,214,195,188,201,198
2025-02-26 14:57:55.573,-297.0,-913.0,206.0,-9.0,3.0,10.0,220,202,196,205,203
2025-02-26 14:57:55.575,-286.0,-901.0,177.0,-7.0,3.0,9.0,219,200,195,207,204
2025-02-26 14:57:55.580,-305.0,-898.0,187.0,-7.0,3.0,9.0,212,193,188,199,197
2025-02-26 14:57:55.587,-294.0,-891.0,186.0,-5.0,4.0,10.0,219,201,196,206,203
2025-02-26 14:57:55.593,-306.0,-893.0,180.0,-4.0,4.0,10.0,219,201,195,206,204
2025-02-26 14:57:55.599,-315.0,-881.0,194.0,-4.0,5.0,10.0,216,196,189,202,200
2025-02-26 14:57:55.599,-320.0,-878.0,166.0,-2.0,5.0,11.0,216,197,192,202,200
2025-02-26 14:57:55.607,-332.0,-875.0,178.0,0.0,5.0,10.0,220,199,194,206,202
2025-02-26 14:57:55.611,-334.0,-875.0,154.0,1.0,5.0,10.0,216,198,192,205,202
2025-02-26 14:57:55.619,-347.0,-874.0,153.0,3.0,4.0,8.0,215,197,189,200,200
2025-02-26 14:57:55.624,-345.0,-872.0,161.0,6.0,4.0,8.0,222,202,197,207,204
2025-02-26 14:57:55.628,-362.0,-869.0,160.0,9.0,5.0,7.0,220,199,196,206,204
2025-02-26 14:57:55.635,-355.0,-855.0,144.0,10.0,4.0,5.0,214,194,189,200,197
2025-02-26 14:57:55.639,-359.0,-856.0,151.0,12.0,4.0,4.0,216,198,192,204,200
2025-02-26 14:57:55.644,-372.0,-850.0,152.0,14.0,2.0,3.0,222,207,201,211,208
2025-02-26 14:57:55.648,-375.0,-849.0,145.0,15.0,1.0,1.0,221,204,196,208,204
2025-02-26 14:57:55.652,-374.0,-843.0,144.0,15.0,1.0,-1.0,215,197,190,204,201
2025-02-26 14:57:55.660,-383.0,-840.0,149.0,17.0,0.0,-2.0,226,206,198,214,209
2025-02-26 14:57:55.664,-380.0,-837.0,155.0,20.0,0.0,-4.0,224,204,199,211,207
2025-02-26 14:57:55.669,-375.0,-827.0,157.0,21.0,-1.0,-6.0,217,199,192,205,200
2025-02-26 14:57:55.676,-384.0,-823.0,145.0,24.0,-1.0,-9.0,219,197,191,203,201
2025-02-26 14:57:55.681,-377.0,-822.0,151.0,26.0,-4.0,-10.0,224,206,198,211,209
2025-02-26 14:57:55.685,-374.0,-826.0,160.0,26.0,-5.0,-13.0,223,202,197,208,207
2025-02-26 14:57:55.689,-362.0,-834.0,165.0,25.0,-6.0,-16.0,221,200,195,206,204
2025-02-26 14:57:55.697,-362.0,-853.0,165.0,24.0,-8.0,-18.0,223,204,199,210,207
2025-02-26 14:57:55.701,-346.0,-872.0,180.0,23.0,-10.0,-19.0,221,201,194,205,203
2025-02-26 14:57:55.705,-341.0,-891.0,192.0,21.0,-10.0,-21.0,223,203,198,209,207
2025-02-26 14:57:55.712,-329.0,-917.0,193.0,18.0,-12.0,-22.0,222,204,196,208,207
2025-02-26 14:57:55.714,-320.0,-940.0,203.0,18.0,-13.0,-23.0,226,206,201,211,210
2025-02-26 14:57:55.721,-311.0,-972.0,223.0,18.0,-14.0,-24.0,222,200,195,206,203
2025-02-26 14:57:55.730,-300.0,-1008.0,228.0,17.0,-14.0,-23.0,214,197,190,203,200
2025-02-26 14:57:55.732,-287.0,-1032.0,246.0,15.0,-14.0,-23.0,217,198,191,204,201
2025-02-26 14:57:55.739,-271.0,-1049.0,263.0,14.0,-13.0,-20.0,223,206,201,212,209
2025-02-26 14:57:55.745,-264.0,-1067.0,268.0,13.0,-12.0,-18.0,223,206,200,210,209
2025-02-26 14:57:55.750,-256.0,-1084.0,279.0,12.0,-11.0,-14.0,223,204,198,209,207
2025-02-26 14:57:55.754,-252.0,-1102.0,288.0,11.0,-9.0,-9.0,227,205,202,213,210
2025-02-26 14:57:55.762,-243.0,-1112.0,297.0,9.0,-9.0,-5.0,216,200,193,204,203
2025-02-26 14:57:55.763,-241.0,-1121.0,311.0,6.0,-8.0,-3.0,216,198,190,203,201
2025-02-26 14:57:55.771,-234.0,-1119.0,323.0,3.0,-6.0,0.0,222,204,198,209,206
2025-02-26 14:57:55.775,-235.0,-1115.0,327.0,1.0,-3.0,4.0,227,208,203,215,212
2025-02-26 14:57:55.783,-241.0,-1120.0,330.0,0.0,-1.0,6.0,217,200,191,203,203
2025-02-26 14:57:55.787,-242.0,-1118.0,330.0,-2.0,3.0,7.0,215,195,190,201,198
2025-02-26 14:57:55.792,-246.0,-1111.0,327.0,-4.0,8.0,9.0,223,202,196,209,208
2025-02-26 14:57:55.796,-250.0,-1106.0,326.0,-5.0,11.0,12.0,224,205,199,211,208
2025-02-26 14:57:55.803,-249.0,-1099.0,312.0,-8.0,12.0,14.0,216,196,194,203,201
2025-02-26 14:57:55.808,-249.0,-1094.0,314.0,-9.0,16.0,17.0,216,196,191,203,200
2025-02-26 14:57:55.812,-257.0,-1085.0,327.0,-8.0,20.0,18.0,223,203,197,210,207
2025-02-26 14:57:55.819,-255.0,-1072.0,316.0,-10.0,23.0,21.0,225,206,200,213,209
2025-02-26 14:57:55.824,-260.0,-1056.0,303.0,-12.0,25.0,24.0,222,203,199,211,206
2025-02-26 14:57:55.828,-273.0,-1035.0,303.0,-13.0,26.0,26.0,216,194,191,203,202
2025-02-26 14:57:55.836,-275.0,-1017.0,307.0,-17.0,26.0,28.0,215,196,191,202,198
2025-02-26 14:57:55.840,-279.0,-1007.0,300.0,-20.0,26.0,28.0,215,196,190,203,199
2025-02-26 14:57:55.845,-290.0,-997.0,289.0,-23.0,26.0,29.0,221,203,197,209,209
2025-02-26 14:57:55.852,-301.0,-978.0,274.0,-24.0,28.0,30.0,222,202,198,209,205
2025-02-26 14:57:55.856,-305.0,-967.0,248.0,-24.0,30.0,32.0,227,208,203,215,211
2025-02-26 14:57:55.860,-298.0,-971.0,219.0,-25.0,31.0,33.0,217,197,192,203,201
2025-02-26 14:57:55.865,-311.0,-974.0,188.0,-25.0,34.0,34.0,211,194,191,201,197
2025-02-26 14:57:55.872,-321.0,-968.0,203.0,-28.0,34.0,34.0,222,202,198,208,206
2025-02-26 14:57:55.877,-334.0,-963.0,207.0,-29.0,35.0,33.0,223,203,200,212,209
2025-02-26 14:57:55.881,-349.0,-935.0,199.0,-28.0,33.0,32.0,220,202,198,208,204
2025-02-26 14:57:55.888,-345.0,-911.0,237.0,-27.0,32.0,29.0,212,194,189,200,198
2025-02-26 14:57:55.893,-357.0,-893.0,201.0,-26.0,30.0,28.0,210,193,189,198,195
2025-02-26 14:57:55.897,-349.0,-868.0,192.0,-25.0,26.0,25.0,221,203,197,210,211
2025-02-26 14:57:55.902,-355.0,-868.0,209.0,-29.0,26.0,23.0,221,204,198,210,206
2025-02-26 14:57:55.910,-367.0,-846.0,162.0,-28.0,24.0,21.0,218,201,195,208,206
2025-02-26 14:57:55.914,-357.0,-838.0,156.0,-30.0,24.0,19.0,214,198,193,204,200
2025-02-26 14:57:55.918,-358.0,-825.0,133.0,-32.0,20.0,18.0,215,196,191,202,200
2025-02-26 14:57:55.926,-358.0,-839.0,148.0,-35.0,18.0,16.0,222,204,200,210,209
2025-02-26 14:57:55.930,-348.0,-833.0,153.0,-33.0,17.0,15.0,222,204,200,211,207
2025-02-26 14:57:55.934,-351.0,-826.0,139.0,-32.0,15.0,14.0,222,205,200,212,209
2025-02-26 14:57:55.943,-344.0,-826.0,148.0,-31.0,15.0,13.0,204,185,180,193,190
2025-02-26 14:57:55.945,-356.0,-826.0,146.0,-23.0,13.0,13.0,203,185,178,190,186
2025-02-26 14:57:55.951,-354.0,-830.0,130.0,-21.0,11.0,12.0,207,190,184,196,192
2025-02-26 14:57:55.955,-347.0,-821.0,107.0,-20.0,8.0,12.0,214,195,187,203,199
2025-02-26 14:57:55.963,-361.0,-817.0,108.0,-20.0,6.0,11.0,206,187,183,193,191
2025-02-26 14:57:55.967,-353.0,-821.0,99.0,-19.0,4.0,10.0,206,187,181,195,190
2025-02-26 14:57:55.972,-362.0,-824.0,118.0,-18.0,3.0,10.0,216,196,192,202,200
2025-02-26 14:57:55.975,-378.0,-830.0,103.0,-17.0,1.0,8.0,217,199,195,206,202
2025-02-26 14:57:55.983,-369.0,-832.0,115.0,-14.0,-1.0,7.0,211,191,188,199,197
2025-02-26 14:57:55.988,-379.0,-836.0,119.0,-11.0,-2.0,4.0,206,194,185,197,196
2025-02-26 14:57:55.991,-373.0,-839.0,115.0,-9.0,-4.0,3.0,234,215,211,223,219
2025-02-26 14:57:55.999,-370.0,-829.0,107.0,-4.0,-5.0,0.0,232,217,212,226,221
2025-02-26 14:57:56.003,-381.0,-831.0,95.0,-6.0,-8.0,-2.0,233,215,208,221,216
2025-02-26 14:57:56.008,-369.0,-827.0,119.0,0.0,-8.0,-3.0,219,202,191,208,203
2025-02-26 14:57:56.012,-379.0,-822.0,119.0,3.0,-9.0,-4.0,217,197,192,203,199
2025-02-26 14:57:56.020,-382.0,-821.0,126.0,2.0,-9.0,-6.0,214,201,197,204,205
2025-02-26 14:57:56.024,-380.0,-812.0,102.0,3.0,-12.0,-8.0,215,194,189,201,198
2025-02-26 14:57:56.029,-381.0,-817.0,137.0,5.0,-12.0,-9.0,212,194,187,200,196
2025-02-26 14:57:56.032,-381.0,-820.0,119.0,9.0,-12.0,-9.0,216,195,188,201,198
2025-02-26 14:57:56.041,-377.0,-806.0,104.0,11.0,-15.0,-11.0,219,200,195,207,203
2025-02-26 14:57:56.043,-379.0,-807.0,133.0,12.0,-14.0,-12.0,215,197,192,204,199
2025-02-26 14:57:56.050,-387.0,-809.0,111.0,18.0,-15.0,-14.0,216,197,193,204,201
2025-02-26 14:57:56.058,-389.0,-811.0,136.0,22.0,-14.0,-17.0,224,204,200,213,209
2025-02-26 14:57:56.061,-380.0,-815.0,124.0,28.0,-12.0,-18.0,220,201,195,207,203
2025-02-26 14:57:56.066,-389.0,-816.0,116.0,31.0,-13.0,-20.0,200,181,176,187,185
2025-02-26 14:57:56.074,-391.0,-824.0,146.0,36.0,-15.0,-22.0,199,180,175,187,184
2025-02-26 14:57:56.077,-379.0,-842.0,154.0,36.0,-19.0,-24.0,198,179,174,186,182
2025-02-26 14:57:56.082,-375.0,-847.0,173.0,36.0,-19.0,-24.0,199,179,175,186,183
2025-02-26 14:57:56.090,-356.0,-872.0,179.0,44.0,-17.0,-24.0,206,188,182,196,192
2025-02-26 14:57:56.094,-356.0,-899.0,218.0,46.0,-14.0,-24.0,225,206,201,214,211
2025-02-26 14:57:56.099,-333.0,-939.0,165.0,50.0,-14.0,-22.0,243,226,221,231,234
2025-02-26 14:57:56.106,-329.0,-974.0,213.0,51.0,-11.0,-19.0,240,220,214,226,223
2025-02-26 14:57:56.111,-334.0,-988.0,213.0,57.0,-7.0,-16.0,231,212,209,220,217
2025-02-26 14:57:56.115,-327.0,-991.0,199.0,65.0,-8.0,-14.0,231,212,207,217,215
2025-02-26 14:57:56.119,-318.0,-998.0,206.0,72.0,-4.0,-12.0,222,203,198,213,206
2025-02-26 14:57:56.127,-313.0,-984.0,216.0,74.0,2.0,-8.0,221,204,199,209,206
2025-02-26 14:57:56.131,-314.0,-969.0,185.0,81.0,7.0,-4.0,217,198,191,203,202
2025-02-26 14:57:56.135,-328.0,-970.0,190.0,90.0,9.0,-2.0,218,197,193,204,201
2025-02-26 14:57:56.143,-299.0,-942.0,233.0,88.0,10.0,-1.0,207,189,183,196,191
2025-02-26 14:57:56.147,-316.0,-934.0,181.0,94.0,9.0,0.0,219,200,196,207,205
2025-02-26 14:57:56.151,-319.0,-917.0,192.0,92.0,7.0,0.0,217,199,193,205,201
2025-02-26 14:57:56.155,-321.0,-924.0,200.0,96.0,7.0,1.0,213,196,190,203,200
2025-02-26 14:57:56.160,-313.0,-913.0,133.0,100.0,7.0,0.0,217,199,194,206,202
2025-02-26 14:57:56.168,-349.0,-903.0,259.0,85.0,9.0,0.0,215,196,191,204,201
2025-02-26 14:57:56.172,-339.0,-872.0,234.0,90.0,2.0,-2.0,211,192,188,200,195
2025-02-26 14:57:56.176,-370.0,-932.0,301.0,96.0,-1.0,-2.0,215,198,192,204,201
2025-02-26 14:57:56.180,-327.0,-931.0,301.0,81.0,2.0,-3.0,223,201,194,208,200
2025-02-26 14:57:56.188,-327.0,-906.0,282.0,71.0,-3.0,-4.0,219,202,195,206,204
2025-02-26 14:57:56.192,-348.0,-919.0,290.0,67.0,-13.0,-4.0,215,197,189,201,197
2025-02-26 14:57:56.196,-347.0,-946.0,393.0,57.0,-15.0,-6.0,212,196,190,201,198
2025-02-26 14:57:56.204,-330.0,-949.0,350.0,43.0,-19.0,-6.0,219,198,194,204,201
2025-02-26 14:57:56.208,-326.0,-938.0,339.0,36.0,-22.0,-7.0,217,200,204,206,202
2025-02-26 14:57:56.214,-327.0,-955.0,379.0,32.0,-21.0,-7.0,217,199,194,206,202
2025-02-26 14:57:56.221,-331.0,-972.0,406.0,27.0,-22.0,-8.0,215,198,193,203,201
2025-02-26 14:57:56.225,-329.0,-980.0,418.0,24.0,-23.0,-8.0,213,195,191,198,198
2025-02-26 14:57:56.229,-323.0,-987.0,409.0,13.0,-26.0,-8.0,218,201,195,205,198
2025-02-26 14:57:56.234,-317.0,-995.0,418.0,4.0,-27.0,-7.0,225,206,201,213,209
2025-02-26 14:57:56.242,-309.0,-1005.0,434.0,2.0,-29.0,-6.0,218,199,194,207,201
2025-02-26 14:57:56.246,-299.0,-1014.0,474.0,-4.0,-27.0,-4.0,214,196,191,201,199
2025-02-26 14:57:56.250,-305.0,-1035.0,466.0,-7.0,-26.0,-2.0,214,194,189,200,197
2025-02-26 14:57:56.257,-302.0,-1041.0,446.0,-15.0,-24.0,-2.0,217,198,192,204,201
2025-02-26 14:57:56.262,-305.0,-1026.0,469.0,-15.0,-21.0,0.0,213,194,191,201,198
2025-02-26 14:57:56.266,-313.0,-1031.0,454.0,-15.0,-19.0,1.0,213,195,190,199,198
2025-02-26 14:57:56.274,-300.0,-1014.0,436.0,-15.0,-20.0,2.0,218,200,194,205,203
2025-02-26 14:57:56.279,-301.0,-1018.0,443.0,-13.0,-18.0,3.0,214,196,187,202,199
2025-02-26 14:57:56.283,-310.0,-1006.0,446.0,-10.0,-16.0,5.0,212,196,190,200,198
2025-02-26 14:57:56.290,-313.0,-1013.0,434.0,-5.0,-13.0,5.0,220,195,191,205,199
2025-02-26 14:57:56.295,-321.0,-991.0,428.0,-3.0,-12.0,6.0,219,200,194,206,204
2025-02-26 14:57:56.299,-312.0,-984.0,451.0,-2.0,-7.0,7.0,216,199,192,204,200
2025-02-26 14:57:56.303,-318.0,-980.0,426.0,2.0,-5.0,8.0,210,192,187,199,197
2025-02-26 14:57:56.309,-325.0,-973.0,405.0,-1.0,-4.0,8.0,214,195,190,199,197
2025-02-26 14:57:56.316,-338.0,-960.0,360.0,-5.0,-4.0,8.0,217,199,192,205,202
2025-02-26 14:57:56.319,-324.0,-936.0,375.0,-9.0,-3.0,9.0,216,199,193,206,201
2025-02-26 14:57:56.324,-340.0,-910.0,396.0,-15.0,-1.0,9.0,210,191,186,199,193
2025-02-26 14:57:56.332,-336.0,-919.0,392.0,-8.0,1.0,9.0,216,197,191,202,199
2025-02-26 14:57:56.335,-329.0,-918.0,382.0,-8.0,3.0,9.0,222,204,198,210,207
2025-02-26 14:57:56.340,-336.0,-912.0,326.0,-13.0,0.0,8.0,212,194,189,201,197
2025-02-26 14:57:56.344,-339.0,-896.0,334.0,-21.0,1.0,9.0,209,191,186,197,194
2025-02-26 14:57:56.352,-338.0,-894.0,353.0,-26.0,6.0,9.0,216,198,192,202,201
2025-02-26 14:57:56.357,-332.0,-895.0,333.0,-29.0,4.0,8.0,220,202,196,206,204
2025-02-26 14:57:56.360,-330.0,-898.0,341.0,-29.0,3.0,7.0,209,190,185,194,193
2025-02-26 14:57:56.364,-332.0,-892.0,331.0,-32.0,2.0,7.0,208,188,182,193,192
2025-02-26 14:57:56.371,-331.0,-891.0,325.0,-35.0,1.0,7.0,213,194,189,200,198
2025-02-26 14:57:56.376,-324.0,-884.0,300.0,-34.0,0.0,7.0,213,198,190,202,200
2025-02-26 14:57:56.380,-327.0,-880.0,308.0,-33.0,0.0,8.0,207,191,185,196,193
2025-02-26 14:57:56.386,-326.0,-885.0,324.0,-31.0,0.0,8.0,199,182,178,188,186
2025-02-26 14:57:56.393,-319.0,-881.0,319.0,-29.0,-2.0,9.0,207,189,184,196,193
2025-02-26 14:57:56.397,-316.0,-879.0,320.0,-28.0,-2.0,10.0,216,197,192,203,199
2025-02-26 14:57:56.402,-330.0,-869.0,296.0,-27.0,0.0,10.0,219,203,195,206,205
2025-02-26 14:57:56.406,-325.0,-872.0,283.0,-22.0,-1.0,10.0,214,198,192,203,201
2025-02-26 14:57:56.413,-328.0,-868.0,299.0,-24.0,0.0,10.0,224,207,202,211,208
2025-02-26 14:57:56.418,-334.0,-862.0,280.0,-24.0,-1.0,10.0,227,205,199,209,209
2025-02-26 14:57:56.423,-338.0,-863.0,266.0,-25.0,-1.0,9.0,221,204,198,208,206
2025-02-26 14:57:56.430,-334.0,-848.0,271.0,-23.0,-2.0,8.0,216,199,193,202,201
2025-02-26 14:57:56.431,-336.0,-857.0,268.0,-21.0,-2.0,7.0,217,196,192,204,201
2025-02-26 14:57:56.438,-340.0,-844.0,257.0,-19.0,-2.0,5.0,223,205,199,211,209
2025-02-26 14:57:56.446,-349.0,-844.0,244.0,-18.0,-3.0,4.0,220,202,196,207,206
2025-02-26 14:57:56.449,-346.0,-832.0,256.0,-13.0,-2.0,2.0,213,197,191,203,200
2025-02-26 14:57:56.455,-347.0,-830.0,243.0,-6.0,-2.0,2.0,208,192,186,197,193
2025-02-26 14:57:56.459,-353.0,-832.0,233.0,-2.0,-4.0,1.0,213,196,188,201,199
2025-02-26 14:57:56.467,-352.0,-834.0,243.0,0.0,-4.0,0.0,211,192,186,199,196
2025-02-26 14:57:56.471,-352.0,-844.0,249.0,3.0,-4.0,-1.0,207,189,183,195,191
2025-02-26 14:57:56.475,-355.0,-833.0,244.0,6.0,-6.0,-1.0,213,195,188,199,195
2025-02-26 14:57:56.479,-346.0,-842.0,241.0,10.0,-7.0,-2.0,213,195,191,201,198
2025-02-26 14:57:56.487,-349.0,-851.0,259.0,11.0,-8.0,-2.0,209,193,187,196,194
2025-02-26 14:57:56.492,-346.0,-856.0,252.0,14.0,-9.0,-2.0,206,188,180,194,190
2025-02-26 14:57:56.495,-352.0,-861.0,244.0,14.0,-10.0,-2.0,209,189,184,197,193
2025-02-26 14:57:56.500,-349.0,-867.0,277.0,17.0,-11.0,-2.0,211,193,187,199,197
2025-02-26 14:57:56.507,-349.0,-881.0,280.0,21.0,-11.0,-3.0,210,192,186,198,195
2025-02-26 14:57:56.509,-346.0,-883.0,319.0,19.0,-8.0,-3.0,210,192,187,197,195
2025-02-26 14:57:56.517,-341.0,-887.0,282.0,23.0,-8.0,-3.0,206,187,182,193,193
2025-02-26 14:57:56.524,-363.0,-875.0,297.0,26.0,-6.0,-3.0,205,188,182,192,189
2025-02-26 14:57:56.528,-359.0,-885.0,308.0,25.0,-7.0,-3.0,209,189,184,195,191
2025-02-26 14:57:56.533,-346.0,-873.0,307.0,23.0,-8.0,-3.0,206,188,181,192,190
2025-02-26 14:57:56.537,-341.0,-873.0,319.0,24.0,-9.0,-3.0,211,190,181,190,190
2025-02-26 14:57:56.544,-347.0,-859.0,345.0,24.0,-10.0,-3.0,203,184,180,190,188
2025-02-26 14:57:56.549,-332.0,-865.0,346.0,24.0,-9.0,-3.0,216,202,192,203,196
2025-02-26 14:57:56.553,-334.0,-866.0,339.0,22.0,-11.0,-3.0,216,197,189,203,201
2025-02-26 14:57:56.560,-340.0,-872.0,367.0,19.0,-11.0,-3.0,210,192,188,198,197
2025-02-26 14:57:56.565,-332.0,-865.0,395.0,17.0,-11.0,-3.0,209,187,181,191,190
2025-02-26 14:57:56.570,-339.0,-877.0,372.0,15.0,-11.0,-4.0,201,186,180,191,188
2025-02-26 14:57:56.577,-335.0,-881.0,380.0,14.0,-10.0,-4.0,209,191,186,198,195
2025-02-26 14:57:56.582,-337.0,-895.0,386.0,12.0,-8.0,-4.0,204,187,181,190,188
2025-02-26 14:57:56.586,-339.0,-912.0,385.0,12.0,-7.0,-4.0,197,180,173,184,182
2025-02-26 14:57:56.589,-329.0,-924.0,398.0,10.0,-7.0,-3.0,195,176,170,179,178
2025-02-26 14:57:56.594,-339.0,-939.0,394.0,5.0,-7.0,-4.0,201,185,179,189,188
2025-02-26 14:57:56.602,-315.0,-922.0,435.0,4.0,-5.0,-3.0,201,186,179,191,187
2025-02-26 14:57:56.607,-328.0,-939.0,409.0,6.0,-6.0,-3.0,166,146,140,151,149
2025-02-26 14:57:56.610,-312.0,-931.0,428.0,3.0,-2.0,-2.0,163,144,138,150,149
2025-02-26 14:57:56.618,-316.0,-935.0,394.0,2.0,0.0,-2.0,167,149,143,155,151
2025-02-26 14:57:56.623,-319.0,-933.0,397.0,5.0,0.0,-1.0,165,146,139,151,150
2025-02-26 14:57:56.627,-316.0,-929.0,431.0,3.0,2.0,-1.0,162,143,136,149,146
2025-02-26 14:57:56.631,-321.0,-931.0,386.0,3.0,4.0,-1.0,163,143,136,150,144
2025-02-26 14:57:56.638,-322.0,-928.0,386.0,4.0,4.0,0.0,166,148,139,152,151
2025-02-26 14:57:56.643,-331.0,-925.0,405.0,4.0,7.0,1.0,163,144,138,150,148
2025-02-26 14:57:56.647,-337.0,-923.0,393.0,2.0,7.0,1.0,160,141,136,149,145
2025-02-26 14:57:56.651,-341.0,-926.0,373.0,2.0,7.0,1.0,162,147,140,151,148
2025-02-26 14:57:56.655,-344.0,-926.0,380.0,1.0,8.0,2.0,164,145,140,149,148
2025-02-26 14:57:56.663,-342.0,-922.0,372.0,-1.0,9.0,2.0,161,143,137,148,146
2025-02-26 14:57:56.667,-346.0,-928.0,365.0,-2.0,8.0,2.0,164,145,141,151,148
2025-02-26 14:57:56.672,-345.0,-928.0,381.0,-2.0,10.0,2.0,163,145,138,148,147
2025-02-26 14:57:56.676,-347.0,-925.0,362.0,-3.0,10.0,3.0,164,148,141,152,151
2025-02-26 14:57:56.683,-346.0,-929.0,364.0,-4.0,10.0,3.0,163,144,137,150,148
2025-02-26 14:57:56.685,-346.0,-925.0,371.0,-5.0,10.0,3.0,167,148,145,153,150
2025-02-26 14:57:56.692,-345.0,-929.0,361.0,-6.0,11.0,3.0,165,146,139,153,149
2025-02-26 14:57:56.697,-342.0,-928.0,351.0,-6.0,11.0,4.0,165,145,140,151,150
2025-02-26 14:57:56.704,-338.0,-926.0,351.0,-8.0,11.0,4.0,166,146,142,151,148
2025-02-26 14:57:56.708,-340.0,-922.0,356.0,-6.0,12.0,4.0,165,146,141,153,151
2025-02-26 14:57:56.709,-340.0,-928.0,343.0,-7.0,12.0,4.0,166,147,140,152,149
2025-02-26 14:57:56.716,-341.0,-918.0,346.0,-10.0,13.0,4.0,164,146,144,150,147
2025-02-26 14:57:56.725,-351.0,-915.0,344.0,-9.0,13.0,4.0,166,147,140,151,149
2025-02-26 14:57:56.738,-349.0,-925.0,321.0,-9.0,12.0,3.0,166,148,141,152,153
2025-02-26 14:57:56.739,-348.0,-936.0,326.0,-10.0,13.0,4.0,165,148,141,153,149
2025-02-26 14:57:56.739,-343.0,-920.0,315.0,-10.0,13.0,3.0,163,144,140,148,148
2025-02-26 14:57:56.746,-352.0,-922.0,326.0,-9.0,12.0,3.0,165,145,141,150,148
2025-02-26 14:57:56.750,-344.0,-929.0,327.0,-8.0,13.0,3.0,166,148,140,151,150
2025-02-26 14:57:56.754,-352.0,-931.0,328.0,-8.0,13.0,2.0,166,147,140,155,150
2025-02-26 14:57:56.758,-356.0,-926.0,317.0,-7.0,13.0,2.0,163,148,141,154,153
2025-02-26 14:57:56.765,-353.0,-927.0,293.0,-7.0,13.0,2.0,165,147,140,152,150
2025-02-26 14:57:56.770,-359.0,-913.0,333.0,-7.0,13.0,2.0,166,147,142,152,147
2025-02-26 14:57:56.774,-351.0,-902.0,332.0,-6.0,15.0,2.0,166,148,142,154,151
2025-02-26 14:57:56.781,-346.0,-907.0,298.0,-5.0,12.0,2.0,164,145,137,149,145
2025-02-26 14:57:56.786,-350.0,-915.0,310.0,-6.0,13.0,2.0,164,145,141,153,149
2025-02-26 14:57:56.790,-348.0,-909.0,323.0,-4.0,15.0,1.0,165,144,139,151,145
2025-02-26 14:57:56.795,-355.0,-901.0,282.0,-4.0,13.0,1.0,167,144,141,152,149
2025-02-26 14:57:56.802,-344.0,-904.0,330.0,-2.0,15.0,0.0,164,143,140,150,146
2025-02-26 14:57:56.807,-361.0,-893.0,304.0,-3.0,16.0,0.0,165,148,140,151,148
2025-02-26 14:57:56.811,-356.0,-910.0,293.0,-5.0,12.0,-1.0,165,145,141,151,149
2025-02-26 14:57:56.815,-356.0,-896.0,308.0,-4.0,12.0,-3.0,164,147,138,150,148
2025-02-26 14:57:56.823,-352.0,-902.0,299.0,-3.0,13.0,-4.0,163,143,137,150,147
2025-02-26 14:57:56.824,-357.0,-907.0,300.0,-2.0,13.0,-5.0,167,147,141,151,149
2025-02-26 14:57:56.829,-357.0,-894.0,316.0,-2.0,15.0,-6.0,164,145,140,151,149
2025-02-26 14:57:56.836,-364.0,-892.0,303.0,-2.0,15.0,-6.0,167,146,140,153,149
2025-02-26 14:57:56.842,-368.0,-896.0,290.0,0.0,15.0,-5.0,164,143,136,150,147
2025-02-26 14:57:56.848,-369.0,-895.0,293.0,-1.0,14.0,-5.0,166,147,140,151,149
2025-02-26 14:57:56.852,-367.0,-893.0,284.0,-1.0,14.0,-3.0,165,144,141,152,148
2025-02-26 14:57:56.860,-371.0,-900.0,279.0,-1.0,12.0,-2.0,165,143,140,151,142
2025-02-26 14:57:56.864,-375.0,-904.0,287.0,0.0,11.0,0.0,163,140,138,149,147
2025-02-26 14:57:56.869,-375.0,-903.0,302.0,-1.0,11.0,0.0,165,145,134,153,148
2025-02-26 14:57:56.873,-376.0,-898.0,292.0,-1.0,9.0,1.0,167,147,141,155,149
2025-02-26 14:57:56.877,-385.0,-905.0,302.0,-2.0,7.0,2.0,164,146,140,148,149
2025-02-26 14:57:56.885,-372.0,-898.0,323.0,-5.0,7.0,3.0,164,145,139,151,147
2025-02-26 14:57:56.890,-388.0,-911.0,280.0,-3.0,4.0,3.0,167,147,140,153,154
2025-02-26 14:57:56.895,-362.0,-898.0,297.0,-4.0,5.0,3.0,164,145,138,149,146
2025-02-26 14:57:56.899,-358.0,-907.0,316.0,-7.0,5.0,4.0,159,141,136,150,147
2025-02-26 14:57:56.902,-352.0,-901.0,314.0,-9.0,4.0,4.0,165,143,139,154,148
2025-02-26 14:57:56.910,-351.0,-908.0,315.0,-10.0,4.0,3.0,165,144,139,152,149
2025-02-26 14:57:56.913,-360.0,-921.0,309.0,-10.0,4.0,4.0,164,141,136,149,147
2025-02-26 14:57:56.916,-363.0,-931.0,309.0,-12.0,5.0,4.0,163,140,136,148,145
2025-02-26 14:57:56.925,-359.0,-930.0,309.0,-11.0,5.0,4.0,165,146,136,150,148
2025-02-26 14:57:56.929,-358.0,-925.0,307.0,-11.0,7.0,5.0,164,144,138,153,148
2025-02-26 14:57:56.934,-362.0,-921.0,310.0,-12.0,8.0,6.0,161,140,134,148,146
2025-02-26 14:57:56.939,-363.0,-918.0,284.0,-14.0,8.0,6.0,162,142,140,150,146
2025-02-26 14:57:56.946,-376.0,-914.0,294.0,-11.0,5.0,6.0,165,143,137,150,148
2025-02-26 14:57:56.951,-370.0,-911.0,330.0,-13.0,5.0,6.0,166,141,137,151,147
2025-02-26 14:57:56.954,-386.0,-926.0,341.0,-8.0,5.0,6.0,164,142,137,151,147
2025-02-26 14:57:56.958,-375.0,-926.0,270.0,-14.0,8.0,6.0,161,138,132,147,144
2025-02-26 14:57:56.964,-376.0,-902.0,270.0,-16.0,7.0,6.0,165,144,138,153,148
2025-02-26 14:57:56.971,-389.0,-914.0,298.0,-15.0,8.0,6.0,163,140,136,150,148
2025-02-26 14:57:56.975,-391.0,-930.0,293.0,-14.0,7.0,5.0,166,143,138,154,148
2025-02-26 14:57:56.979,-399.0,-933.0,310.0,-12.0,8.0,6.0,165,139,137,150,146
2025-02-26 14:57:56.987,-392.0,-954.0,318.0,-9.0,12.0,7.0,167,140,138,152,148
2025-02-26 14:57:56.989,-403.0,-965.0,306.0,-13.0,18.0,9.0,165,139,136,152,148
2025-02-26 14:57:56.995,-394.0,-964.0,307.0,-18.0,20.0,11.0,165,137,136,151,149
2025-02-26 14:57:57.001,-396.0,-965.0,309.0,-19.0,23.0,12.0,162,134,133,149,145
2025-02-26 14:57:57.007,-408.0,-965.0,303.0,-25.0,24.0,13.0,165,135,135,153,149
2025-02-26 14:57:57.012,-400.0,-950.0,308.0,-30.0,22.0,13.0,166,135,135,153,149
2025-02-26 14:57:57.019,-407.0,-949.0,319.0,-32.0,23.0,15.0,166,136,136,158,148
2025-02-26 14:57:57.024,-408.0,-928.0,309.0,-36.0,23.0,15.0,164,131,131,148,144
2025-02-26 14:57:57.027,-411.0,-931.0,290.0,-36.0,23.0,16.0,161,126,127,145,141
2025-02-26 14:57:57.032,-407.0,-932.0,275.0,-34.0,22.0,16.0,165,130,132,151,146
2025-02-26 14:57:57.040,-410.0,-944.0,302.0,-38.0,24.0,17.0,164,135,134,151,150
2025-02-26 14:57:57.045,-400.0,-925.0,281.0,-39.0,25.0,16.0,168,133,134,154,151
2025-02-26 14:57:57.049,-401.0,-939.0,279.0,-38.0,26.0,17.0,164,130,130,151,145
2025-02-26 14:57:57.057,-421.0,-938.0,283.0,-37.0,29.0,17.0,166,130,133,152,146
2025-02-26 14:57:57.061,-417.0,-955.0,275.0,-40.0,33.0,18.0,169,132,133,153,148
2025-02-26 14:57:57.065,-417.0,-935.0,255.0,-41.0,36.0,18.0,167,129,133,152,147
2025-02-26 14:57:57.068,-442.0,-961.0,270.0,-39.0,43.0,18.0,164,125,129,150,144
2025-02-26 14:57:57.077,-452.0,-1000.0,265.0,-39.0,46.0,20.0,165,125,130,150,144
2025-02-26 14:57:57.081,-453.0,-981.0,247.0,-41.0,51.0,20.0,162,121,126,148,140
2025-02-26 14:57:57.085,-445.0,-978.0,241.0,-39.0,55.0,22.0,166,122,128,149,144
2025-02-26 14:57:57.094,-464.0,-960.0,202.0,-41.0,58.0,25.0,166,120,127,149,143
2025-02-26 14:57:57.097,-455.0,-947.0,218.0,-43.0,63.0,26.0,166,118,126,150,141
2025-02-26 14:57:57.101,-484.0,-960.0,230.0,-49.0,63.0,25.0,163,112,121,143,138
2025-02-26 14:57:57.109,-499.0,-958.0,309.0,-52.0,59.0,25.0,160,110,117,141,135
2025-02-26 14:57:57.113,-539.0,-966.0,328.0,-53.0,55.0,25.0,165,111,121,144,137
2025-02-26 14:57:57.118,-517.0,-964.0,248.0,-50.0,48.0,26.0,167,112,124,143,142
2025-02-26 14:57:57.122,-506.0,-951.0,230.0,-49.0,45.0,27.0,164,104,117,140,136
2025-02-26 14:57:57.130,-509.0,-993.0,185.0,-50.0,45.0,27.0,161,99,115,136,133
2025-02-26 14:57:57.134,-490.0,-981.0,216.0,-55.0,44.0,26.0,163,103,120,138,134
2025-02-26 14:57:57.139,-497.0,-980.0,239.0,-47.0,49.0,28.0,166,101,118,140,137
2025-02-26 14:57:57.146,-499.0,-952.0,253.0,-48.0,49.0,28.0,164,101,118,137,135
2025-02-26 14:57:57.151,-491.0,-939.0,237.0,-49.0,50.0,27.0,162,98,116,134,131
2025-02-26 14:57:57.155,-485.0,-903.0,193.0,-48.0,48.0,25.0,166,100,118,137,134
2025-02-26 14:57:57.160,-503.0,-896.0,209.0,-50.0,50.0,24.0,165,98,118,135,134
2025-02-26 14:57:57.167,-538.0,-890.0,216.0,-54.0,52.0,23.0,165,95,117,133,133
2025-02-26 14:57:57.171,-524.0,-898.0,207.0,-53.0,53.0,21.0,164,91,114,131,131
2025-02-26 14:57:57.175,-488.0,-873.0,203.0,-53.0,55.0,20.0,165,90,111,127,129
2025-02-26 14:57:57.181,-459.0,-831.0,125.0,-57.0,57.0,19.0,163,88,107,123,127
2025-02-26 14:57:57.188,-440.0,-787.0,162.0,-65.0,59.0,15.0,164,88,109,124,128
2025-02-26 14:57:57.192,-441.0,-749.0,115.0,-66.0,60.0,13.0,164,87,108,122,126
2025-02-26 14:57:57.196,-463.0,-741.0,92.0,-66.0,58.0,10.0,163,87,105,118,125
2025-02-26 14:57:57.204,-476.0,-754.0,89.0,-72.0,57.0,10.0,162,81,103,114,119
2025-02-26 14:57:57.208,-450.0,-730.0,87.0,-80.0,59.0,9.0,165,85,107,116,119
2025-02-26 14:57:57.212,-420.0,-693.0,43.0,-81.0,57.0,8.0,164,82,103,115,116
2025-02-26 14:57:57.216,-435.0,-658.0,31.0,-82.0,57.0,10.0,163,81,101,112,113
2025-02-26 14:57:57.224,-467.0,-633.0,-21.0,-81.0,56.0,11.0,166,84,104,114,114
2025-02-26 14:57:57.229,-554.0,-585.0,-37.0,-74.0,52.0,15.0,165,82,109,112,112
2025-02-26 14:57:57.233,-664.0,-501.0,-42.0,-75.0,48.0,19.0,164,81,99,109,107
2025-02-26 14:57:57.237,-711.0,-357.0,7.0,-65.0,50.0,26.0,169,79,97,100,105
2025-02-26 14:57:57.244,-847.0,-264.0,14.0,-61.0,56.0,30.0,167,84,103,108,107
2025-02-26 14:57:57.250,-896.0,-25.0,58.0,-53.0,72.0,36.0,164,81,99,108,103
2025-02-26 14:57:57.253,-951.0,255.0,30.0,-45.0,81.0,41.0,162,78,96,102,100
2025-02-26 14:57:57.257,-979.0,362.0,-146.0,-25.0,88.0,40.0,163,80,94,102,97
2025-02-26 14:57:57.265,-1105.0,680.0,-208.0,-3.0,81.0,35.0,166,83,101,105,99
2025-02-26 14:57:57.270,-1104.0,1039.0,-349.0,12.0,67.0,17.0,163,83,97,103,94
2025-02-26 14:57:57.274,-1120.0,1173.0,-379.0,22.0,71.0,-9.0,156,81,95,99,89
2025-02-26 14:57:57.278,-1117.0,1338.0,-648.0,24.0,67.0,-23.0,157,85,99,106,93
2025-02-26 14:57:57.286,-980.0,1674.0,-588.0,108.0,91.0,-71.0,151,84,98,103,92
2025-02-26 14:57:57.290,-861.0,1586.0,-991.0,115.0,103.0,-156.0,145,84,96,104,91
2025-02-26 14:57:57.291,-1045.0,1625.0,-720.0,174.0,130.0,-245.0,146,88,100,108,94
2025-02-26 14:57:57.303,-1012.0,1864.0,-913.0,227.0,154.0,-335.0,167,112,124,131,117
2025-02-26 14:57:57.306,-913.0,1815.0,-893.0,323.0,130.0,-377.0,161,113,125,132,117
2025-02-26 14:57:57.311,-862.0,1793.0,-1163.0,440.0,39.0,-453.0,155,107,121,128,111
2025-02-26 14:57:57.316,-584.0,1778.0,-1136.0,505.0,-59.0,-525.0,163,116,129,137,123
2025-02-26 14:57:57.323,-288.0,1478.0,-993.0,530.0,-144.0,-587.0,161,117,130,136,124
2025-02-26 14:57:57.331,235.0,1193.0,-745.0,541.0,-223.0,-632.0,193,153,167,171,159
2025-02-26 14:57:57.336,1015.0,823.0,-324.0,557.0,-329.0,-658.0,201,160,175,179,167
2025-02-26 14:57:57.340,1789.0,260.0,276.0,582.0,-395.0,-646.0,194,154,168,172,162
2025-02-26 14:57:57.346,2705.0,-698.0,1492.0,576.0,-392.0,-573.0,188,149,163,167,158
2025-02-26 14:57:57.352,3672.0,-2085.0,2761.0,548.0,-339.0,-437.0,192,152,167,169,161
2025-02-26 14:57:57.359,4336.0,-3793.0,3728.0,507.0,-245.0,-264.0,191,157,175,173,165
2025-02-26 14:57:57.364,4918.0,-5502.0,4144.0,484.0,-91.0,-108.0,192,156,169,171,164
2025-02-26 14:57:57.368,5129.0,-6321.0,4158.0,475.0,92.0,-6.0,186,149,164,167,160
2025-02-26 14:57:57.376,4741.0,-6049.0,3642.0,433.0,162.0,79.0,192,155,173,171,164
2025-02-26 14:57:57.380,3206.0,-4704.0,2678.0,318.0,239.0,120.0,185,148,164,162,156
2025-02-26 14:57:57.388,1640.0,-3832.0,1873.0,113.0,197.0,200.0,183,144,164,157,152
2025-02-26 14:57:57.392,624.0,-2180.0,1053.0,-95.0,109.0,245.0,188,152,171,165,160
2025-02-26 14:57:57.397,-219.0,-1077.0,952.0,-293.0,-20.0,264.0,195,159,177,171,167
2025-02-26 14:57:57.405,-239.0,-665.0,747.0,-409.0,-143.0,240.0,191,153,170,167,161
2025-02-26 14:57:57.408,30.0,-757.0,978.0,-480.0,-211.0,207.0,190,152,170,164,161
2025-02-26 14:57:57.414,407.0,-1070.0,1108.0,-484.0,-223.0,159.0,189,152,168,167,160
2025-02-26 14:57:57.419,492.0,-1471.0,1227.0,-448.0,-228.0,122.0,188,152,169,167,158
2025-02-26 14:57:57.425,709.0,-1682.0,1227.0,-404.0,-190.0,96.0,185,147,163,161,153
2025-02-26 14:57:57.433,663.0,-1646.0,1007.0,-342.0,-168.0,85.0,183,145,161,159,152
2025-02-26 14:57:57.438,527.0,-1680.0,904.0,-315.0,-122.0,89.0,186,147,164,166,156
2025-02-26 14:57:57.442,403.0,-1629.0,695.0,-294.0,-97.0,95.0,186,149,165,166,157
2025-02-26 14:57:57.450,293.0,-1569.0,616.0,-272.0,-88.0,109.0,194,156,170,172,160
2025-02-26 14:57:57.454,246.0,-1575.0,565.0,-252.0,-88.0,130.0,196,156,172,175,165
2025-02-26 14:57:57.459,266.0,-1572.0,551.0,-237.0,-77.0,150.0,197,159,173,175,168
2025-02-26 14:57:57.466,338.0,-1609.0,575.0,-205.0,-65.0,165.0,193,157,170,175,166
2025-02-26 14:57:57.471,286.0,-1519.0,635.0,-193.0,-71.0,185.0,192,150,168,171,161
2025-02-26 14:57:57.475,331.0,-1382.0,647.0,-169.0,-73.0,199.0,190,149,165,170,160
2025-02-26 14:57:57.483,295.0,-1279.0,635.0,-144.0,-65.0,215.0,184,141,157,161,152
2025-02-26 14:57:57.487,293.0,-1187.0,636.0,-128.0,-47.0,233.0,181,141,154,159,151
2025-02-26 14:57:57.492,295.0,-1112.0,641.0,-118.0,-22.0,242.0,182,140,155,159,150
2025-02-26 14:57:57.498,254.0,-970.0,583.0,-107.0,-18.0,257.0,190,142,167,170,162
2025-02-26 14:57:57.504,151.0,-722.0,644.0,-108.0,-15.0,265.0,191,153,166,169,160
2025-02-26 14:57:57.508,139.0,-571.0,534.0,-105.0,-10.0,269.0,185,146,164,166,158
2025-02-26 14:57:57.516,34.0,-417.0,493.0,-110.0,-5.0,267.0,188,146,162,167,158
2025-02-26 14:57:57.516,27.0,-306.0,446.0,-108.0,-4.0,263.0,184,140,157,160,153
2025-02-26 14:57:57.524,-45.0,-287.0,451.0,-111.0,-4.0,262.0,179,135,151,154,148
2025-02-26 14:57:57.532,-164.0,-270.0,467.0,-108.0,-4.0,254.0,186,146,160,165,158
2025-02-26 14:57:57.536,-225.0,-174.0,424.0,-111.0,-17.0,241.0,194,153,166,171,164
2025-02-26 14:57:57.540,-233.0,-22.0,395.0,-127.0,-30.0,225.0,190,148,161,165,159
2025-02-26 14:57:57.548,-235.0,105.0,376.0,-140.0,-15.0,212.0,185,146,160,164,156
2025-02-26 14:57:57.552,-372.0,203.0,191.0,-154.0,-7.0,201.0,182,141,153,159,151
2025-02-26 14:57:57.558,-286.0,75.0,303.0,-159.0,3.0,185.0,183,141,156,159,154
2025-02-26 14:57:57.565,-335.0,82.0,273.0,-158.0,-3.0,175.0,187,148,160,166,158
2025-02-26 14:57:57.568,-377.0,74.0,226.0,-164.0,-1.0,159.0,186,143,159,165,161
2025-02-26 14:57:57.572,-452.0,115.0,204.0,-168.0,9.0,146.0,185,142,155,161,154
2025-02-26 14:57:57.581,-496.0,56.0,104.0,-169.0,15.0,137.0,183,138,157,159,152
2025-02-26 14:57:57.582,-536.0,47.0,101.0,-168.0,17.0,126.0,183,139,152,156,150
2025-02-26 14:57:57.589,-587.0,23.0,49.0,-163.0,4.0,120.0,187,143,158,163,157
2025-02-26 14:57:57.594,-634.0,1.0,73.0,-152.0,-12.0,111.0,192,150,164,171,163
2025-02-26 14:57:57.601,-698.0,-41.0,27.0,-144.0,-22.0,105.0,185,142,156,161,154
2025-02-26 14:57:57.606,-701.0,40.0,-58.0,-123.0,-26.0,98.0,179,136,151,157,150
2025-02-26 14:57:57.606,-672.0,-58.0,31.0,-102.0,-21.0,97.0,178,135,148,154,146
2025-02-26 14:57:57.618,-667.0,-12.0,-17.0,-73.0,-15.0,92.0,193,148,163,170,161
2025-02-26 14:57:57.622,-685.0,68.0,-14.0,-46.0,-13.0,90.0,188,147,159,165,159
2025-02-26 14:57:57.626,-653.0,69.0,-10.0,-33.0,-7.0,89.0,182,139,153,159,151
2025-02-26 14:57:57.631,-665.0,118.0,20.0,-15.0,-8.0,85.0,179,134,151,157,148
2025-02-26 14:57:57.638,-647.0,145.0,48.0,1.0,-8.0,82.0,191,147,158,168,160
2025-02-26 14:57:57.643,-625.0,258.0,18.0,9.0,0.0,77.0,187,143,157,163,157
2025-02-26 14:57:57.647,-605.0,351.0,-20.0,22.0,9.0,72.0,180,135,151,154,149
2025-02-26 14:57:57.649,-657.0,370.0,-28.0,40.0,28.0,68.0,187,146,155,166,156
2025-02-26 14:57:57.659,-663.0,418.0,-52.0,54.0,46.0,64.0,192,146,161,169,162
2025-02-26 14:57:57.661,-764.0,565.0,-91.0,62.0,56.0,53.0,183,139,154,162,154
2025-02-26 14:57:57.667,-773.0,601.0,-101.0,79.0,57.0,35.0,181,137,148,157,149
2025-02-26 14:57:57.671,-866.0,671.0,-135.0,77.0,60.0,26.0,187,142,159,165,158
2025-02-26 14:57:57.679,-946.0,792.0,-167.0,80.0,63.0,4.0,190,144,156,167,159
2025-02-26 14:57:57.684,-1064.0,940.0,-226.0,83.0,63.0,-15.0,184,142,154,162,155
2025-02-26 14:57:57.687,-1098.0,963.0,-188.0,100.0,65.0,-43.0,180,137,147,157,150
2025-02-26 14:57:57.695,-1180.0,1104.0,-243.0,119.0,66.0,-59.0,181,136,150,160,150
2025-02-26 14:57:57.699,-1202.0,1280.0,-259.0,136.0,69.0,-99.0,186,140,151,163,155
2025-02-26 14:57:57.704,-1131.0,1370.0,-283.0,159.0,70.0,-143.0,183,138,153,163,155
2025-02-26 14:57:57.709,-1014.0,1398.0,-253.0,195.0,74.0,-192.0,182,140,152,161,154
2025-02-26 14:57:57.717,-903.0,1481.0,-314.0,243.0,73.0,-258.0,187,144,157,167,158
2025-02-26 14:57:57.721,-715.0,1422.0,-352.0,267.0,72.0,-335.0,184,140,152,163,154
2025-02-26 14:57:57.728,-618.0,1304.0,-487.0,313.0,59.0,-407.0,180,137,149,159,151
2025-02-26 14:57:57.733,-450.0,1207.0,-584.0,359.0,27.0,-477.0,174,129,142,154,146
2025-02-26 14:57:57.741,-372.0,922.0,-629.0,404.0,7.0,-546.0,176,131,142,150,146
2025-02-26 14:57:57.744,-271.0,760.0,-574.0,447.0,-48.0,-578.0,172,129,142,150,145
2025-02-26 14:57:57.750,-155.0,434.0,-366.0,484.0,-121.0,-636.0,182,135,147,158,151
2025-02-26 14:57:57.757,147.0,144.0,47.0,513.0,-191.0,-674.0,187,143,154,166,159
2025-02-26 14:57:57.758,950.0,-133.0,364.0,519.0,-248.0,-679.0,181,139,150,162,154
2025-02-26 14:57:57.766,1829.0,-648.0,1216.0,516.0,-257.0,-649.0,178,134,147,155,152
2025-02-26 14:57:57.774,2813.0,-1869.0,2298.0,504.0,-214.0,-564.0,177,134,147,153,150
2025-02-26 14:57:57.778,3714.0,-3740.0,3586.0,474.0,-159.0,-416.0,179,132,149,156,150
2025-02-26 14:57:57.786,4383.0,-5594.0,4423.0,463.0,-99.0,-249.0,175,132,149,155,153
2025-02-26 14:57:57.788,4661.0,-6808.0,4568.0,443.0,27.0,-96.0,173,128,146,151,150
2025-02-26 14:57:57.794,4577.0,-6876.0,4103.0,372.0,113.0,24.0,171,128,145,146,146
2025-02-26 14:57:57.800,3481.0,-5936.0,3355.0,241.0,227.0,120.0,192,153,170,169,167
2025-02-26 14:57:57.807,2026.0,-4593.0,2638.0,78.0,232.0,158.0,187,147,167,164,159
2025-02-26 14:57:57.810,881.0,-3938.0,2008.0,-112.0,174.0,212.0,196,156,173,171,167
2025-02-26 14:57:57.819,13.0,-2551.0,1496.0,-304.0,56.0,244.0,195,154,174,172,166
2025-02-26 14:57:57.823,-39.0,-1591.0,1450.0,-422.0,-35.0,263.0,195,156,175,170,167
2025-02-26 14:57:57.830,283.0,-1427.0,1459.0,-496.0,-103.0,263.0,197,154,175,173,168
2025-02-26 14:57:57.835,468.0,-1445.0,1381.0,-531.0,-113.0,262.0,192,154,172,170,164
2025-02-26 14:57:57.839,681.0,-1422.0,1192.0,-536.0,-96.0,259.0,186,145,160,161,159
2025-02-26 14:57:57.847,567.0,-1486.0,1152.0,-496.0,-79.0,241.0,184,144,162,162,156
2025-02-26 14:57:57.851,371.0,-1414.0,981.0,-430.0,-62.0,222.0,180,137,155,157,151
2025-02-26 14:57:57.856,331.0,-1348.0,732.0,-354.0,-55.0,204.0,184,141,159,161,155
2025-02-26 14:57:57.863,189.0,-1252.0,511.0,-282.0,-30.0,194.0,184,139,156,159,154
2025-02-26 14:57:57.868,185.0,-1115.0,345.0,-232.0,0.0,190.0,181,138,163,157,150
2025-02-26 14:57:57.873,83.0,-1014.0,263.0,-196.0,24.0,181.0,188,147,160,164,159
2025-02-26 14:57:57.879,74.0,-955.0,221.0,-175.0,48.0,176.0,185,145,160,164,161
2025-02-26 14:57:57.884,-6.0,-837.0,166.0,-173.0,76.0,178.0,180,137,155,159,150
2025-02-26 14:57:57.889,-18.0,-868.0,74.0,-149.0,86.0,180.0,174,130,147,154,146
2025-02-26 14:57:57.896,-46.0,-776.0,138.0,-149.0,84.0,185.0,177,135,151,156,152
2025-02-26 14:57:57.901,-86.0,-664.0,73.0,-147.0,79.0,190.0,189,145,161,167,161
2025-02-26 14:57:57.904,-129.0,-612.0,127.0,-169.0,70.0,191.0,184,142,157,164,158
2025-02-26 14:57:57.910,-136.0,-602.0,68.0,-180.0,84.0,187.0,182,140,155,161,156
2025-02-26 14:57:57.917,-26.0,-466.0,89.0,-214.0,94.0,186.0,186,140,157,161,157
2025-02-26 14:57:57.921,-121.0,-264.0,86.0,-220.0,103.0,190.0,178,135,150,155,151
2025-02-26 14:57:57.929,5.0,-285.0,156.0,-203.0,106.0,187.0,175,133,147,153,147
2025-02-26 14:57:57.933,10.0,-244.0,83.0,-196.0,100.0,188.0,183,139,154,162,158
2025-02-26 14:57:57.938,-100.0,-183.0,179.0,-183.0,63.0,176.0,184,142,156,163,159
2025-02-26 14:57:57.945,-140.0,-151.0,122.0,-176.0,19.0,163.0,185,140,155,161,157
2025-02-26 14:57:57.949,-156.0,-101.0,145.0,-187.0,-6.0,161.0,179,131,149,156,150
2025-02-26 14:57:57.953,-232.0,-46.0,93.0,-233.0,-4.0,169.0,177,132,148,153,149
2025-02-26 14:57:57.958,-302.0,-68.0,-18.0,-232.0,53.0,178.0,183,138,152,160,155
2025-02-26 14:57:57.966,-194.0,-44.0,104.0,-229.0,7.0,174.0,184,141,154,162,158
2025-02-26 14:57:57.970,-328.0,-157.0,295.0,-246.0,-29.0,160.0,181,137,145,157,154
2025-02-26 14:57:57.975,-423.0,18.0,-12.0,-213.0,-1.0,146.0,187,137,151,160,155
2025-02-26 14:57:57.983,-405.0,22.0,-3.0,-187.0,7.0,132.0,174,128,140,150,144
2025-02-26 14:57:57.986,-497.0,-37.0,93.0,-168.0,6.0,123.0,175,128,143,151,144
2025-02-26 14:57:57.990,-453.0,55.0,83.0,-173.0,-3.0,115.0,182,137,151,157,155
2025-02-26 14:57:57.999,-471.0,-59.0,-25.0,-176.0,22.0,113.0,181,134,149,156,152
2025-02-26 14:57:58.003,-556.0,39.0,-37.0,-173.0,21.0,109.0,179,130,147,152,148
2025-02-26 14:57:58.007,-570.0,80.0,-80.0,-183.0,19.0,111.0,183,127,142,152,145
2025-02-26 14:57:58.012,-530.0,-11.0,-233.0,-189.0,28.0,111.0,182,134,149,154,149
2025-02-26 14:57:58.017,-602.0,18.0,-66.0,-182.0,34.0,108.0,187,139,155,162,154
2025-02-26 14:57:58.023,-628.0,129.0,-160.0,-174.0,44.0,104.0,186,137,154,161,156
2025-02-26 14:57:58.028,-669.0,104.0,-163.0,-158.0,50.0,101.0,183,132,150,156,150
2025-02-26 14:57:58.036,-694.0,76.0,-206.0,-129.0,57.0,96.0,184,134,154,156,151
2025-02-26 14:57:58.037,-687.0,104.0,-240.0,-98.0,54.0,88.0,181,132,147,154,148
2025-02-26 14:57:58.044,-660.0,94.0,-302.0,-72.0,58.0,85.0,182,131,148,152,147
2025-02-26 14:57:58.051,-663.0,81.0,-273.0,-55.0,63.0,79.0,177,128,142,149,144
2025-02-26 14:57:58.056,-683.0,107.0,-354.0,-44.0,66.0,74.0,181,129,143,155,146
2025-02-26 14:57:58.060,-646.0,50.0,-362.0,-26.0,64.0,73.0,138,83,99,108,104
2025-02-26 14:57:58.065,-693.0,-29.0,-543.0,7.0,39.0,74.0,139,82,98,105,99
2025-02-26 14:57:58.072,-647.0,44.0,-304.0,0.0,24.0,73.0,142,83,99,106,101
2025-02-26 14:57:58.077,-742.0,255.0,-353.0,15.0,16.0,64.0,145,82,95,106,98
2025-02-26 14:57:58.080,-607.0,269.0,-293.0,50.0,6.0,55.0,142,80,94,104,98
2025-02-26 14:57:58.085,-585.0,298.0,-331.0,77.0,4.0,43.0,144,82,94,106,100
2025-02-26 14:57:58.089,-714.0,194.0,-454.0,90.0,5.0,27.0,143,80,93,104,97
2025-02-26 14:57:58.097,-778.0,258.0,-470.0,104.0,11.0,23.0,147,81,94,104,100
2025-02-26 14:57:58.103,-913.0,365.0,-459.0,107.0,12.0,9.0,149,81,94,106,98
2025-02-26 14:57:58.103,-1001.0,568.0,-445.0,114.0,7.0,-11.0,148,73,91,101,94
2025-02-26 14:57:58.109,-1026.0,748.0,-483.0,132.0,4.0,-25.0,146,78,92,102,94
2025-02-26 14:57:58.118,-1087.0,850.0,-418.0,149.0,0.0,-58.0,152,82,96,105,97
2025-02-26 14:57:58.122,-1148.0,1099.0,-397.0,150.0,-11.0,-102.0,150,80,93,103,96
2025-02-26 14:57:58.126,-1229.0,1320.0,-416.0,161.0,-14.0,-152.0,151,81,94,102,94
2025-02-26 14:57:58.133,-1261.0,1508.0,-447.0,177.0,-14.0,-204.0,150,78,91,102,93
2025-02-26 14:57:58.138,-1318.0,1669.0,-343.0,192.0,-19.0,-258.0,151,78,91,97,94
2025-02-26 14:57:58.142,-1235.0,1664.0,-260.0,230.0,-45.0,-290.0,157,80,95,101,93
2025-02-26 14:57:58.150,-982.0,1681.0,-219.0,263.0,-79.0,-365.0,155,79,94,104,97
2025-02-26 14:57:58.150,-689.0,1618.0,-242.0,296.0,-87.0,-435.0,155,78,95,104,95
2025-02-26 14:57:58.156,-498.0,1485.0,-190.0,314.0,-80.0,-493.0,155,81,94,103,94
2025-02-26 14:57:58.167,-202.0,1271.0,-220.0,344.0,-78.0,-556.0,155,76,90,101,92
2025-02-26 14:57:58.168,-163.0,1026.0,-201.0,376.0,-89.0,-601.0,155,77,91,98,90
2025-02-26 14:57:58.175,357.0,928.0,-173.0,387.0,-112.0,-622.0,161,81,96,104,100
2025-02-26 14:57:58.180,612.0,730.0,-145.0,388.0,-146.0,-647.0,161,78,94,102,95
2025-02-26 14:57:58.187,814.0,408.0,-112.0,390.0,-199.0,-654.0,159,78,92,101,94
2025-02-26 14:57:58.191,992.0,64.0,-97.0,385.0,-232.0,-649.0,161,75,90,97,91
2025-02-26 14:57:58.193,1296.0,70.0,65.0,379.0,-288.0,-639.0,161,76,89,100,93
2025-02-26 14:57:58.204,1813.0,-470.0,139.0,365.0,-310.0,-638.0,164,77,93,101,95
2025-02-26 14:57:58.205,2496.0,-1465.0,503.0,378.0,-296.0,-597.0,165,77,91,99,96
2025-02-26 14:57:58.211,3382.0,-2804.0,1161.0,382.0,-232.0,-548.0,166,77,92,99,94
2025-02-26 14:57:58.219,4145.0,-4696.0,2005.0,382.0,-185.0,-445.0,165,74,91,98,93
2025-02-26 14:57:58.224,4474.0,-6948.0,2637.0,391.0,-77.0,-296.0,165,75,91,96,92
2025-02-26 14:57:58.229,4575.0,-7658.0,2868.0,432.0,5.0,-213.0,166,73,91,94,91
2025-02-26 14:57:58.233,4341.0,-8036.0,2748.0,437.0,107.0,-45.0,169,76,93,95,94
2025-02-26 14:57:58.240,3506.0,-7383.0,2152.0,385.0,222.0,115.0,169,77,96,94,93
2025-02-26 14:57:58.244,2500.0,-5674.0,1497.0,310.0,269.0,224.0,166,73,91,92,89
2025-02-26 14:57:58.249,2029.0,-3179.0,1111.0,150.0,274.0,289.0,167,72,92,90,86
2025-02-26 14:57:58.257,1111.0,-2062.0,1208.0,-45.0,201.0,314.0,171,79,99,95,91
2025-02-26 14:57:58.259,952.0,-846.0,1011.0,-188.0,131.0,317.0,167,77,95,91,89
2025-02-26 14:57:58.265,734.0,-276.0,808.0,-240.0,60.0,305.0,167,73,92,91,87
2025-02-26 14:57:58.269,721.0,-290.0,841.0,-353.0,27.0,283.0,165,75,91,89,91
2025-02-26 14:57:58.276,747.0,-370.0,632.0,-392.0,14.0,265.0,169,77,92,94,92
2025-02-26 14:57:58.282,625.0,-605.0,559.0,-403.0,33.0,233.0,166,75,90,93,89
2025-02-26 14:57:58.284,518.0,-775.0,206.0,-415.0,49.0,202.0,165,72,87,89,88
2025-02-26 14:57:58.290,243.0,-1052.0,77.0,-412.0,58.0,185.0,163,74,88,93,89
2025-02-26 14:57:58.297,242.0,-1449.0,204.0,-382.0,18.0,172.0,168,78,89,97,92
2025-02-26 14:57:58.302,-65.0,-1640.0,-2.0,-354.0,-3.0,166.0,166,74,87,94,91
2025-02-26 14:57:58.306,81.0,-1550.0,16.0,-303.0,-7.0,171.0,164,71,86,91,88
2025-02-26 14:57:58.310,-52.0,-1840.0,66.0,-239.0,-32.0,176.0,165,75,88,95,90
2025-02-26 14:57:58.318,79.0,-1620.0,252.0,-213.0,-19.0,182.0,167,78,89,96,91
2025-02-26 14:57:58.322,9.0,-1595.0,65.0,-175.0,0.0,189.0,161,76,88,94,89
2025-02-26 14:57:58.326,53.0,-1603.0,341.0,-123.0,-11.0,199.0,164,71,85,92,88
2025-02-26 14:57:58.331,61.0,-1527.0,364.0,-82.0,-55.0,231.0,166,78,90,95,92
2025-02-26 14:57:58.336,92.0,-1391.0,458.0,-65.0,-94.0,243.0,167,77,92,96,92
2025-02-26 14:57:58.343,26.0,-1077.0,305.0,-32.0,-87.0,237.0,165,73,88,94,89
2025-02-26 14:57:58.347,142.0,-857.0,298.0,-15.0,-53.0,237.0,167,76,89,95,93
2025-02-26 14:57:58.351,-19.0,-633.0,313.0,-22.0,-31.0,229.0,166,77,89,94,93
2025-02-26 14:57:58.355,36.0,-557.0,392.0,-37.0,-1.0,224.0,165,76,90,95,91
2025-02-26 14:57:58.362,23.0,-400.0,291.0,-50.0,34.0,225.0,167,76,92,93,90
2025-02-26 14:57:58.367,26.0,-264.0,267.0,-31.0,32.0,225.0,167,76,91,96,92
2025-02-26 14:57:58.368,-34.0,-171.0,331.0,-23.0,18.0,214.0,165,75,91,94,90
2025-02-26 14:57:58.376,-80.0,-104.0,326.0,-40.0,-7.0,211.0,166,75,89,94,89
2025-02-26 14:57:58.381,-139.0,122.0,302.0,-86.0,16.0,203.0,170,76,96,96,93
2025-02-26 14:57:58.388,-232.0,57.0,263.0,-96.0,43.0,200.0,165,75,90,94,91
2025-02-26 14:57:58.392,-220.0,5.0,249.0,-141.0,59.0,195.0,165,75,91,93,87
2025-02-26 14:57:58.396,-298.0,6.0,291.0,-139.0,64.0,188.0,170,80,96,97,92
2025-02-26 14:57:58.400,-389.0,28.0,235.0,-133.0,44.0,170.0,166,76,92,95,91
2025-02-26 14:57:58.404,-436.0,4.0,216.0,-122.0,36.0,162.0,165,74,91,94,89
2025-02-26 14:57:58.412,-478.0,-60.0,208.0,-116.0,16.0,148.0,169,78,93,96,92
2025-02-26 14:57:58.417,-585.0,-67.0,197.0,-109.0,10.0,138.0,168,77,93,98,92
2025-02-26 14:57:58.421,-608.0,-51.0,131.0,-112.0,22.0,134.0,166,75,91,97,91
2025-02-26 14:57:58.425,-645.0,-91.0,109.0,-118.0,30.0,133.0,168,78,90,97,91
2025-02-26 14:57:58.433,-690.0,-228.0,91.0,-118.0,26.0,130.0,168,79,91,97,92
2025-02-26 14:57:58.437,-728.0,-151.0,5.0,-126.0,33.0,132.0,167,76,90,97,93
2025-02-26 14:57:58.441,-751.0,-200.0,-2.0,-122.0,38.0,131.0,170,80,93,100,92
2025-02-26 14:57:58.445,-776.0,-200.0,7.0,-116.0,35.0,128.0,167,77,89,97,89
2025-02-26 14:57:58.450,-762.0,-153.0,-27.0,-103.0,34.0,121.0,165,74,88,96,88
2025-02-26 14:57:58.455,-785.0,-167.0,-42.0,-75.0,40.0,114.0,166,76,89,94,90
2025-02-26 14:57:58.461,-736.0,-96.0,-8.0,-48.0,47.0,97.0,169,79,91,97,92
2025-02-26 14:57:58.466,-728.0,-48.0,32.0,-34.0,48.0,82.0,166,76,87,94,88
2025-02-26 14:57:58.470,-722.0,-27.0,20.0,-14.0,48.0,75.0,163,73,87,94,88
2025-02-26 14:57:58.475,-732.0,10.0,2.0,-5.0,49.0,68.0,168,77,91,100,94
2025-02-26 14:57:58.479,-769.0,47.0,-19.0,0.0,49.0,63.0,167,76,88,95,91
2025-02-26 14:57:58.486,-774.0,86.0,-52.0,2.0,50.0,60.0,164,73,88,95,88
2025-02-26 14:57:58.490,-754.0,188.0,-91.0,3.0,57.0,55.0,169,77,89,97,91
2025-02-26 14:57:58.494,-759.0,275.0,-123.0,9.0,54.0,45.0,168,77,90,97,92
2025-02-26 14:57:58.498,-769.0,320.0,-142.0,18.0,51.0,39.0,164,74,89,96,91
2025-02-26 14:57:58.503,-763.0,437.0,-163.0,36.0,44.0,23.0,168,78,91,98,91
2025-02-26 14:57:58.507,-804.0,526.0,-215.0,49.0,37.0,3.0,164,73,89,95,89
2025-02-26 14:57:58.514,-813.0,629.0,-270.0,67.0,32.0,-7.0,166,77,89,96,89
2025-02-26 14:57:58.519,-900.0,745.0,-306.0,85.0,18.0,-30.0,167,76,92,98,92
2025-02-26 14:57:58.521,-998.0,893.0,-340.0,95.0,3.0,-56.0,167,77,88,95,88
2025-02-26 14:57:58.528,-1073.0,986.0,-355.0,111.0,-5.0,-70.0,165,75,88,94,88
2025-02-26 14:57:58.535,-1137.0,1124.0,-410.0,128.0,-19.0,-106.0,169,81,94,99,94
2025-02-26 14:57:58.539,-1144.0,1290.0,-412.0,135.0,-29.0,-153.0,166,77,91,97,91
2025-02-26 14:57:58.544,-1176.0,1347.0,-432.0,155.0,-32.0,-208.0,165,75,88,94,89
2025-02-26 14:57:58.551,-1164.0,1373.0,-449.0,180.0,-39.0,-236.0,166,77,91,97,91
2025-02-26 14:57:58.556,-1077.0,1375.0,-463.0,193.0,-43.0,-292.0,168,78,92,99,92
2025-02-26 14:57:58.560,-1012.0,1365.0,-441.0,216.0,-46.0,-347.0,166,76,89,94,89
2025-02-26 14:57:58.568,-832.0,1323.0,-407.0,235.0,-50.0,-373.0,165,75,87,96,89
2025-02-26 14:57:58.572,-585.0,1288.0,-390.0,256.0,-64.0,-423.0,169,78,91,95,92
2025-02-26 14:57:58.577,-217.0,1140.0,-357.0,278.0,-84.0,-463.0,170,79,91,100,93
2025-02-26 14:57:58.581,-167.0,996.0,-339.0,278.0,-112.0,-500.0,167,75,91,98,92
2025-02-26 14:57:58.589,175.0,705.0,-312.0,304.0,-117.0,-521.0,165,75,92,94,89
2025-02-26 14:57:58.593,354.0,279.0,-180.0,342.0,-154.0,-529.0,164,75,88,94,89
2025-02-26 14:57:58.597,779.0,50.0,55.0,382.0,-216.0,-548.0,169,76,89,98,93
2025-02-26 14:57:58.605,1182.0,-325.0,202.0,395.0,-251.0,-554.0,168,77,89,97,91
2025-02-26 14:57:58.609,1518.0,-929.0,510.0,401.0,-248.0,-540.0,166,71,88,96,92
2025-02-26 14:57:58.613,1837.0,-1593.0,940.0,406.0,-219.0,-513.0,164,73,87,96,90
2025-02-26 14:57:58.617,2506.0,-2159.0,1417.0,422.0,-190.0,-498.0,170,79,91,98,94
2025-02-26 14:57:58.624,2938.0,-3443.0,1738.0,430.0,-159.0,-441.0,168,76,93,99,95
2025-02-26 14:57:58.630,3312.0,-4824.0,2306.0,429.0,-113.0,-341.0,168,76,93,98,95
2025-02-26 14:57:58.634,3437.0,-6120.0,2842.0,421.0,-30.0,-200.0,172,78,96,98,95
2025-02-26 14:57:58.642,3346.0,-6697.0,3124.0,378.0,80.0,-38.0,167,74,93,93,92
2025-02-26 14:57:58.646,3196.0,-6478.0,2855.0,286.0,138.0,109.0,169,75,93,92,90
2025-02-26 14:57:58.648,2663.0,-5902.0,2441.0,205.0,216.0,166.0,171,77,94,92,90
2025-02-26 14:57:58.658,2068.0,-4293.0,2253.0,117.0,249.0,251.0,171,79,95,94,91
2025-02-26 14:57:58.663,1450.0,-2795.0,2035.0,65.0,229.0,285.0,170,79,94,92,86
2025-02-26 14:57:58.666,1242.0,-1609.0,1830.0,-58.0,206.0,283.0,168,71,93,91,78
2025-02-26 14:57:58.670,934.0,-1130.0,1499.0,-156.0,142.0,272.0,169,75,92,90,85
2025-02-26 14:57:58.678,657.0,-717.0,1457.0,-245.0,71.0,247.0,171,80,96,93,87
2025-02-26 14:57:58.683,589.0,-456.0,1315.0,-312.0,33.0,229.0,171,78,96,94,89
2025-02-26 14:57:58.686,504.0,-561.0,1083.0,-335.0,19.0,208.0,171,75,92,92,87
2025-02-26 14:57:58.695,472.0,-777.0,842.0,-345.0,-11.0,199.0,169,77,91,91,85
2025-02-26 14:57:58.698,407.0,-771.0,583.0,-330.0,-22.0,183.0,169,77,97,95,89
2025-02-26 14:57:58.704,241.0,-1029.0,547.0,-328.0,-8.0,182.0,169,78,96,96,90
2025-02-26 14:57:58.708,124.0,-1222.0,405.0,-359.0,9.0,184.0,166,74,89,92,87
2025-02-26 14:57:58.711,99.0,-1315.0,267.0,-374.0,52.0,185.0,167,75,87,90,88
2025-02-26 14:57:58.720,16.0,-1434.0,187.0,-349.0,79.0,188.0,168,79,93,96,91
2025-02-26 14:57:58.723,26.0,-1541.0,178.0,-339.0,88.0,190.0,168,78,91,97,91
2025-02-26 14:57:58.728,26.0,-1467.0,197.0,-311.0,88.0,195.0,166,74,87,94,88
2025-02-26 14:57:58.733,-63.0,-1351.0,201.0,-276.0,69.0,201.0,169,78,90,97,91
2025-02-26 14:57:58.740,-161.0,-1354.0,311.0,-243.0,39.0,208.0,169,78,91,98,93
2025-02-26 14:57:58.744,-96.0,-1243.0,234.0,-225.0,22.0,218.0,167,75,87,95,91
2025-02-26 14:57:58.749,-92.0,-979.0,183.0,-199.0,25.0,225.0,166,75,87,96,90
2025-02-26 14:57:58.752,-77.0,-966.0,197.0,-178.0,36.0,234.0,170,78,91,99,96
2025-02-26 14:57:58.760,-29.0,-810.0,277.0,-172.0,29.0,242.0,168,76,90,97,94
2025-02-26 14:57:58.765,-38.0,-713.0,292.0,-178.0,23.0,249.0,168,73,85,95,91
2025-02-26 14:57:58.769,-60.0,-583.0,358.0,-205.0,11.0,250.0,167,76,88,96,94
2025-02-26 14:57:58.773,0.0,-544.0,359.0,-230.0,13.0,254.0,169,77,89,99,96
2025-02-26 14:57:58.780,-48.0,-292.0,271.0,-244.0,16.0,250.0,166,73,88,97,93
2025-02-26 14:57:58.785,-48.0,-202.0,244.0,-218.0,30.0,253.0,165,74,87,95,90
2025-02-26 14:57:58.790,14.0,-124.0,281.0,-233.0,45.0,250.0,169,76,89,97,93
2025-02-26 14:57:58.793,97.0,-105.0,356.0,-253.0,68.0,247.0,168,78,94,100,95
2025-02-26 14:57:58.798,8.0,64.0,220.0,-259.0,77.0,242.0,166,74,89,96,90
2025-02-26 14:57:58.805,-181.0,87.0,188.0,-239.0,78.0,237.0,167,79,92,99,93
2025-02-26 14:57:58.810,-272.0,135.0,153.0,-230.0,67.0,230.0,168,75,91,96,92
2025-02-26 14:57:58.812,-293.0,195.0,183.0,-237.0,63.0,223.0,169,79,92,96,91
2025-02-26 14:57:58.818,-415.0,112.0,81.0,-244.0,50.0,221.0,167,79,94,97,93
2025-02-26 14:57:58.826,-504.0,286.0,267.0,-252.0,41.0,207.0,165,76,91,98,93
2025-02-26 14:57:58.830,-617.0,253.0,-17.0,-224.0,34.0,193.0,165,75,91,95,89
2025-02-26 14:57:58.834,-671.0,208.0,-18.0,-212.0,23.0,185.0,169,81,97,103,95
2025-02-26 14:57:58.838,-689.0,158.0,-204.0,-206.0,20.0,167.0,167,76,94,98,93
2025-02-26 14:57:58.846,-771.0,257.0,-189.0,-177.0,1.0,140.0,164,75,91,98,92
2025-02-26 14:57:58.850,-836.0,491.0,-296.0,-138.0,-18.0,118.0,165,76,90,97,91
2025-02-26 14:57:58.854,-828.0,241.0,-230.0,-106.0,-23.0,105.0,169,78,95,104,98
2025-02-26 14:57:58.859,-838.0,265.0,-217.0,-78.0,-27.0,88.0,167,79,93,103,95
2025-02-26 14:57:58.867,-873.0,195.0,25.0,-61.0,-13.0,81.0,163,77,92,102,97
2025-02-26 14:57:58.871,-864.0,213.0,-30.0,-16.0,-6.0,76.0,164,78,91,101,95
2025-02-26 14:57:58.875,-785.0,268.0,-71.0,19.0,-4.0,65.0,169,82,96,109,102
2025-02-26 14:57:58.880,-742.0,292.0,-30.0,37.0,2.0,52.0,167,79,94,106,101
2025-02-26 14:57:58.884,-731.0,372.0,-84.0,64.0,-1.0,40.0,165,78,91,105,101
2025-02-26 14:57:58.891,-759.0,324.0,-81.0,103.0,-1.0,34.0,168,83,93,107,104
2025-02-26 14:57:58.896,-762.0,318.0,-168.0,127.0,-4.0,26.0,166,85,97,112,109
2025-02-26 14:57:58.900,-786.0,345.0,-223.0,153.0,0.0,23.0,165,82,93,108,106
2025-02-26 14:57:58.905,-793.0,394.0,-285.0,160.0,5.0,21.0,166,84,96,113,110
2025-02-26 14:57:58.910,-797.0,490.0,-254.0,172.0,13.0,10.0,166,85,98,113,110
2025-02-26 14:57:58.916,-813.0,583.0,-502.0,172.0,16.0,-6.0,165,89,100,113,113
2025-02-26 14:57:58.920,-853.0,663.0,-520.0,177.0,21.0,-28.0,165,87,99,114,113
2025-02-26 14:57:58.925,-900.0,753.0,-654.0,195.0,16.0,-41.0,165,90,101,114,115
2025-02-26 14:57:58.932,-986.0,872.0,-652.0,226.0,-8.0,-69.0,166,93,103,117,118
2025-02-26 14:57:58.937,-1101.0,960.0,-616.0,234.0,-37.0,-94.0,166,98,106,116,120
2025-02-26 14:57:58.941,-1142.0,1126.0,-704.0,261.0,-65.0,-126.0,165,98,108,117,120
2025-02-26 14:57:58.949,-1174.0,1296.0,-776.0,279.0,-79.0,-171.0,163,106,112,117,119
2025-02-26 14:57:58.952,-1244.0,1382.0,-727.0,291.0,-98.0,-219.0,163,109,114,119,123
2025-02-26 14:57:58.961,-1271.0,1429.0,-559.0,296.0,-107.0,-266.0,164,114,117,121,125
2025-02-26 14:57:58.966,-1317.0,1305.0,-869.0,300.0,-134.0,-310.0,162,119,118,125,127
2025-02-26 14:57:58.970,-1267.0,1260.0,-819.0,311.0,-175.0,-357.0,163,123,121,126,127
2025-02-26 14:57:58.978,-1110.0,1198.0,-834.0,317.0,-207.0,-380.0,164,123,123,129,134
2025-02-26 14:57:58.982,-966.0,1146.0,-829.0,328.0,-237.0,-426.0,165,129,124,132,131
2025-02-26 14:57:58.990,-706.0,1027.0,-642.0,358.0,-259.0,-469.0,163,130,123,132,132
2025-02-26 14:57:58.995,-202.0,911.0,-430.0,394.0,-279.0,-525.0,167,136,131,137,138
2025-02-26 14:57:59.002,425.0,662.0,-366.0,445.0,-324.0,-560.0,168,135,130,137,139
2025-02-26 14:57:59.007,1079.0,561.0,-176.0,476.0,-359.0,-601.0,166,137,130,139,139
2025-02-26 14:57:59.011,1529.0,292.0,253.0,495.0,-357.0,-605.0,167,140,132,139,138
2025-02-26 14:57:59.018,1792.0,74.0,503.0,486.0,-346.0,-600.0,170,142,134,140,142
2025-02-26 14:57:59.023,1973.0,18.0,909.0,476.0,-340.0,-591.0,169,140,133,139,140
2025-02-26 14:57:59.025,2318.0,-959.0,696.0,517.0,-344.0,-556.0,168,141,132,139,140
2025-02-26 14:57:59.035,2669.0,-1885.0,1044.0,510.0,-329.0,-487.0,169,141,130,138,139
2025-02-26 14:57:59.039,3142.0,-2860.0,1359.0,458.0,-313.0,-406.0,171,142,131,140,140
2025-02-26 14:57:59.047,3551.0,-4204.0,2071.0,391.0,-270.0,-284.0,170,145,132,140,140
2025-02-26 14:57:59.052,3939.0,-5125.0,3721.0,174.0,-105.0,-216.0,170,145,131,140,140
2025-02-26 14:57:59.056,3553.0,-4975.0,4081.0,117.0,82.0,-63.0,170,145,130,142,139
2025-02-26 14:57:59.062,3348.0,-4161.0,5271.0,83.0,143.0,29.0,176,147,132,143,143
2025-02-26 14:57:59.068,2321.0,-4736.0,5813.0,107.0,82.0,175.0,172,147,138,140,141
2025-02-26 14:57:59.072,1633.0,-2934.0,5223.0,-9.0,100.0,197.0,173,146,132,142,141
2025-02-26 14:57:59.080,1708.0,-2821.0,3521.0,-83.0,196.0,274.0,172,144,132,143,142
2025-02-26 14:57:59.085,1371.0,-1886.0,2633.0,-335.0,227.0,321.0,171,144,131,141,140
2025-02-26 14:57:59.092,1126.0,-1319.0,2269.0,-425.0,208.0,340.0,170,144,130,141,141
2025-02-26 14:57:59.097,945.0,-1046.0,1774.0,-418.0,121.0,329.0,171,142,130,141,139
2025-02-26 14:57:59.101,874.0,-956.0,2066.0,-438.0,93.0,309.0,171,142,129,140,140
2025-02-26 14:57:59.109,754.0,-772.0,1423.0,-422.0,11.0,273.0,176,141,127,139,139
2025-02-26 14:57:59.113,726.0,-588.0,835.0,-325.0,-109.0,254.0,167,144,128,139,140
2025-02-26 14:57:59.117,698.0,-373.0,724.0,-184.0,-162.0,256.0,178,147,129,142,143
2025-02-26 14:57:59.125,138.0,-257.0,448.0,-102.0,-82.0,304.0,168,143,129,143,143
2025-02-26 14:57:59.129,-337.0,-150.0,-236.0,-174.0,113.0,253.0,167,145,129,142,141
2025-02-26 14:57:59.137,-676.0,-1064.0,-1200.0,-216.0,173.0,202.0,170,148,132,146,144
2025-02-26 14:57:59.141,-706.0,-1520.0,-956.0,-243.0,102.0,161.0,169,146,130,143,142
2025-02-26 14:57:59.146,-247.0,-1427.0,229.0,-179.0,78.0,129.0,168,145,130,144,143
2025-02-26 14:57:59.154,0.0,-1125.0,569.0,-162.0,77.0,108.0,165,143,129,143,142
2025-02-26 14:57:59.158,-66.0,-755.0,331.0,-164.0,66.0,96.0,167,139,130,143,146
2025-02-26 14:57:59.163,-184.0,-758.0,188.0,-131.0,56.0,95.0,169,146,133,146,143
2025-02-26 14:57:59.169,-225.0,-808.0,175.0,-110.0,72.0,111.0,168,147,132,148,142
2025-02-26 14:57:59.174,-163.0,-698.0,464.0,-82.0,111.0,135.0,168,148,132,144,143
2025-02-26 14:57:59.179,-63.0,-534.0,-23.0,-83.0,82.0,146.0,169,147,134,143,143
2025-02-26 14:57:59.186,-33.0,-434.0,234.0,-66.0,79.0,155.0,169,144,129,141,141
2025-02-26 14:57:59.191,-36.0,-500.0,481.0,-48.0,113.0,159.0,163,146,131,140,141
2025-02-26 14:57:59.195,77.0,-383.0,329.0,-73.0,130.0,162.0,174,150,137,147,146
2025-02-26 14:57:59.200,19.0,-403.0,257.0,-91.0,119.0,169.0,170,149,134,144,145
2025-02-26 14:57:59.207,-64.0,-398.0,448.0,-94.0,136.0,170.0,169,149,135,143,143
2025-02-26 14:57:59.211,-55.0,-421.0,372.0,-94.0,148.0,169.0,166,146,132,142,143
2025-02-26 14:57:59.215,-64.0,-439.0,198.0,-115.0,177.0,164.0,170,146,134,144,143
2025-02-26 14:57:59.223,-166.0,-408.0,142.0,-148.0,193.0,162.0,168,148,134,142,144
2025-02-26 14:57:59.228,-357.0,-251.0,227.0,-173.0,181.0,160.0,168,140,136,143,147
2025-02-26 14:57:59.230,-382.0,-187.0,290.0,-168.0,160.0,156.0,170,147,135,141,144
2025-02-26 14:57:59.240,-451.0,-275.0,296.0,-156.0,114.0,148.0,169,147,136,144,145
2025-02-26 14:57:59.242,-511.0,-283.0,336.0,-156.0,66.0,141.0,169,147,133,141,144
2025-02-26 14:57:59.252,-520.0,-262.0,368.0,-151.0,33.0,132.0,165,145,133,140,143
2025-02-26 14:57:59.254,-503.0,-189.0,322.0,-145.0,24.0,126.0,170,146,134,142,144
2025-02-26 14:57:59.260,-561.0,-124.0,92.0,-159.0,4.0,122.0,167,145,133,142,144
2025-02-26 14:57:59.265,-585.0,-74.0,67.0,-157.0,-3.0,115.0,170,147,135,142,146
2025-02-26 14:57:59.273,-667.0,11.0,47.0,-152.0,3.0,109.0,169,147,135,145,145
2025-02-26 14:57:59.276,-707.0,60.0,-33.0,-142.0,12.0,100.0,169,148,136,146,147
2025-02-26 14:57:59.279,-725.0,91.0,-102.0,-130.0,17.0,92.0,167,146,133,144,142
2025-02-26 14:57:59.289,-806.0,115.0,-125.0,-115.0,25.0,87.0,166,144,126,141,142
2025-02-26 14:57:59.293,-813.0,139.0,-99.0,-96.0,25.0,75.0,171,146,134,143,143
2025-02-26 14:57:59.298,-817.0,118.0,-76.0,-73.0,19.0,63.0,175,148,134,149,145
2025-02-26 14:57:59.301,-820.0,147.0,-65.0,-53.0,3.0,49.0,167,145,132,144,143
2025-02-26 14:57:59.309,-836.0,158.0,-85.0,-13.0,-4.0,42.0,168,144,131,143,142
2025-02-26 14:57:59.313,-859.0,185.0,-127.0,26.0,-18.0,28.0,168,148,132,146,144
2025-02-26 14:57:59.317,-890.0,232.0,-139.0,56.0,-26.0,13.0,170,149,134,147,145
2025-02-26 14:57:59.326,-896.0,293.0,-218.0,70.0,-29.0,-2.0,167,145,131,144,144
2025-02-26 14:57:59.328,-872.0,379.0,-260.0,98.0,-29.0,-19.0,167,144,130,142,138
2025-02-26 14:57:59.334,-856.0,488.0,-337.0,125.0,-32.0,-28.0,174,148,133,146,145
2025-02-26 14:57:59.340,-893.0,534.0,-312.0,148.0,-27.0,-48.0,168,146,133,146,145
2025-02-26 14:57:59.346,-1003.0,660.0,-347.0,163.0,-20.0,-71.0,171,146,132,144,144
2025-02-26 14:57:59.350,-1125.0,758.0,-397.0,186.0,-20.0,-95.0,170,146,132,146,144
2025-02-26 14:57:59.359,-1213.0,849.0,-303.0,197.0,-22.0,-125.0,171,147,135,149,145
2025-02-26 14:57:59.363,-1221.0,916.0,-341.0,223.0,-29.0,-159.0,168,147,132,145,144
2025-02-26 14:57:59.367,-1207.0,979.0,-415.0,239.0,-47.0,-198.0,168,146,130,142,144
2025-02-26 14:57:59.375,-1207.0,1028.0,-523.0,260.0,-58.0,-241.0,167,145,133,142,143
2025-02-26 14:57:59.379,-1195.0,1004.0,-534.0,278.0,-72.0,-284.0,164,147,133,143,145
2025-02-26 14:57:59.387,-1106.0,964.0,-463.0,304.0,-83.0,-324.0,168,144,132,142,143
2025-02-26 14:57:59.391,-911.0,994.0,-366.0,325.0,-92.0,-365.0,168,144,133,143,143
2025-02-26 14:57:59.395,-718.0,956.0,-304.0,353.0,-108.0,-382.0,168,146,134,143,143
2025-02-26 14:57:59.404,-390.0,863.0,-325.0,372.0,-136.0,-416.0,169,148,138,145,146
2025-02-26 14:57:59.407,-8.0,640.0,-233.0,387.0,-162.0,-440.0,171,151,139,146,144
2025-02-26 14:57:59.413,249.0,409.0,-132.0,395.0,-187.0,-454.0,169,148,137,145,145
2025-02-26 14:57:59.419,546.0,193.0,-12.0,397.0,-212.0,-462.0,171,149,136,146,145
2025-02-26 14:57:59.424,939.0,-63.0,113.0,400.0,-239.0,-467.0,171,146,136,145,144
2025-02-26 14:57:59.432,1145.0,-442.0,408.0,397.0,-251.0,-460.0,169,144,133,145,143
2025-02-26 14:57:59.436,1561.0,-1049.0,958.0,339.0,-264.0,-450.0,170,147,134,144,142
2025-02-26 14:57:59.441,1995.0,-1707.0,1351.0,294.0,-297.0,-427.0,172,146,132,144,143
2025-02-26 14:57:59.449,2360.0,-2619.0,1812.0,246.0,-326.0,-410.0,172,146,123,143,141
2025-02-26 14:57:59.453,2687.0,-3535.0,2227.0,155.0,-342.0,-361.0,169,143,130,143,142
2025-02-26 14:57:59.466,2931.0,-4006.0,2613.0,36.0,-339.0,-287.0,170,146,128,142,143
2025-02-26 14:57:59.469,3046.0,-4968.0,3570.0,-44.0,-278.0,-193.0,174,144,128,144,144
2025-02-26 14:57:59.472,3188.0,-4669.0,3705.0,-61.0,-128.0,-85.0,174,146,129,146,146
2025-02-26 14:57:59.477,2605.0,-4168.0,3816.0,-187.0,-64.0,34.0,175,148,129,147,147
2025-02-26 14:57:59.480,2373.0,-3651.0,3904.0,-201.0,35.0,147.0,174,146,128,146,146
2025-02-26 14:57:59.490,2101.0,-3305.0,2287.0,-259.0,28.0,240.0,174,146,126,144,146
2025-02-26 14:57:59.494,1790.0,-2468.0,2231.0,-303.0,66.0,307.0,175,146,127,146,145
2025-02-26 14:57:59.498,1418.0,-1756.0,1876.0,-327.0,68.0,342.0,174,144,127,146,145
2025-02-26 14:57:59.506,1142.0,-1309.0,1280.0,-377.0,5.0,350.0,173,144,125,145,145
2025-02-26 14:57:59.510,960.0,-1116.0,983.0,-353.0,-76.0,362.0,172,144,123,144,143
2025-02-26 14:57:59.514,911.0,-858.0,893.0,-316.0,-100.0,374.0,174,145,123,143,144
2025-02-26 14:57:59.522,718.0,-468.0,675.0,-266.0,-79.0,362.0,171,142,123,143,141
2025-02-26 14:57:59.527,464.0,-400.0,-287.0,-240.0,-13.0,346.0,171,142,121,144,142
2025-02-26 14:57:59.531,48.0,-743.0,-726.0,-264.0,51.0,299.0,173,145,124,144,143
2025-02-26 14:57:59.539,-171.0,-1473.0,-566.0,-273.0,106.0,261.0,171,145,125,147,141
2025-02-26 14:57:59.543,-16.0,-1632.0,-191.0,-248.0,103.0,217.0,172,145,125,146,143
2025-02-26 14:57:59.551,99.0,-1491.0,357.0,-224.0,87.0,186.0,170,144,125,145,142
2025-02-26 14:57:59.555,0.0,-1419.0,309.0,-168.0,57.0,167.0,172,145,128,147,142
2025-02-26 14:57:59.559,-27.0,-1363.0,201.0,-129.0,53.0,159.0,168,141,126,144,140
2025-02-26 14:57:59.567,-21.0,-1230.0,138.0,-110.0,39.0,159.0,167,138,125,143,140
2025-02-26 14:57:59.572,-5.0,-1165.0,303.0,-77.0,56.0,167.0,172,144,128,144,143
2025-02-26 14:57:59.576,-101.0,-1115.0,363.0,-32.0,88.0,183.0,175,145,133,146,144
2025-02-26 14:57:59.580,-73.0,-944.0,457.0,-5.0,111.0,191.0,171,143,130,146,143
2025-02-26 14:57:59.588,73.0,-937.0,55.0,-1.0,100.0,204.0,171,141,136,144,141
2025-02-26 14:57:59.592,54.0,-884.0,445.0,9.0,119.0,208.0,170,141,131,143,141
2025-02-26 14:57:59.594,74.0,-761.0,599.0,3.0,167.0,212.0,173,142,137,146,144
2025-02-26 14:57:59.601,87.0,-736.0,431.0,-7.0,199.0,214.0,172,143,132,147,144
2025-02-26 14:57:59.608,25.0,-435.0,393.0,-47.0,210.0,214.0,170,143,131,143,143
2025-02-26 14:57:59.613,86.0,-524.0,110.0,-69.0,222.0,216.0,171,141,131,144,142
2025-02-26 14:57:59.617,-73.0,-440.0,261.0,-101.0,247.0,210.0,175,141,135,145,144
2025-02-26 14:57:59.625,-138.0,-364.0,89.0,-116.0,254.0,210.0,171,143,134,145,144
2025-02-26 14:57:59.629,-228.0,-352.0,-185.0,-126.0,225.0,214.0,174,141,133,144,143
2025-02-26 14:57:59.636,-345.0,-149.0,-238.0,-121.0,190.0,207.0,176,141,134,146,147
2025-02-26 14:57:59.641,-378.0,6.0,26.0,-119.0,169.0,200.0,174,141,132,145,145
2025-02-26 14:57:59.645,-406.0,29.0,83.0,-126.0,157.0,189.0,168,134,131,141,137
2025-02-26 14:57:59.648,-375.0,4.0,2.0,-129.0,121.0,181.0,171,133,130,140,140
2025-02-26 14:57:59.658,-396.0,62.0,-1.0,-127.0,82.0,163.0,175,138,136,145,144
2025-02-26 14:57:59.662,-499.0,70.0,189.0,-144.0,57.0,153.0,173,133,132,143,142
2025-02-26 14:57:59.666,-628.0,49.0,-79.0,-188.0,43.0,138.0,170,130,130,140,140
2025-02-26 14:57:59.674,-637.0,152.0,67.0,-162.0,45.0,134.0,171,127,127,139,139
2025-02-26 14:57:59.678,-735.0,180.0,-13.0,-139.0,60.0,124.0,173,127,129,142,140
2025-02-26 14:57:59.683,-789.0,206.0,-98.0,-152.0,64.0,116.0,173,126,130,142,141
2025-02-26 14:57:59.686,-796.0,259.0,-57.0,-147.0,65.0,102.0,172,120,123,139,137
2025-02-26 14:57:59.694,-891.0,215.0,-106.0,-130.0,59.0,86.0,171,116,118,138,133
2025-02-26 14:57:59.699,-919.0,189.0,-76.0,-112.0,51.0,69.0,171,113,120,135,131
2025-02-26 14:57:59.703,-929.0,143.0,-137.0,-93.0,33.0,60.0,169,108,117,134,128
2025-02-26 14:57:59.710,-865.0,117.0,-165.0,-79.0,11.0,41.0,172,109,118,135,129
2025-02-26 14:57:59.714,-836.0,119.0,-249.0,-65.0,-10.0,25.0,174,112,119,138,129
2025-02-26 14:57:59.719,-822.0,144.0,-243.0,-58.0,-27.0,10.0,174,103,118,135,125
2025-02-26 14:57:59.727,-792.0,171.0,-289.0,-41.0,-35.0,-4.0,171,100,112,128,121
2025-02-26 14:57:59.731,-761.0,157.0,-289.0,-31.0,-43.0,-11.0,173,100,113,126,116
2025-02-26 14:57:59.734,-713.0,172.0,-245.0,-15.0,-43.0,-24.0,174,97,113,127,117
2025-02-26 14:57:59.743,-725.0,250.0,-241.0,13.0,-43.0,-37.0,172,96,111,124,112
2025-02-26 14:57:59.748,-807.0,322.0,-163.0,29.0,-46.0,-50.0,177,90,108,125,108
2025-02-26 14:57:59.752,-876.0,391.0,-189.0,72.0,-57.0,-60.0,170,84,105,114,103
2025-02-26 14:57:59.759,-927.0,481.0,-211.0,117.0,-65.0,-70.0,171,88,103,110,103
2025-02-26 14:57:59.763,-1038.0,444.0,-284.0,158.0,-83.0,-74.0,170,77,100,107,96
2025-02-26 14:57:59.769,-1190.0,564.0,-253.0,196.0,-92.0,-87.0,172,79,99,104,93
2025-02-26 14:57:59.773,-1292.0,656.0,-265.0,221.0,-88.0,-104.0,172,77,96,99,89
2025-02-26 14:57:59.781,-1275.0,789.0,-380.0,232.0,-83.0,-124.0,171,74,93,98,85
2025-02-26 14:57:59.784,-1218.0,870.0,-301.0,263.0,-72.0,-149.0,171,73,89,92,80
2025-02-26 14:57:59.789,-1119.0,987.0,-192.0,270.0,-63.0,-171.0,168,70,86,90,77
2025-02-26 14:57:59.794,-1050.0,1033.0,-57.0,241.0,-18.0,-204.0,175,74,89,93,80
2025-02-26 14:57:59.801,-1027.0,1133.0,278.0,193.0,25.0,-256.0,173,72,87,91,77
2025-02-26 14:57:59.806,-921.0,1026.0,95.0,180.0,45.0,-301.0,171,69,83,87,72
2025-02-26 14:57:59.810,-879.0,987.0,136.0,161.0,53.0,-324.0,169,69,82,87,71
2025-02-26 14:57:59.817,-583.0,955.0,51.0,117.0,52.0,-366.0,174,71,86,90,74
2025-02-26 14:57:59.821,-254.0,965.0,64.0,100.0,40.0,-411.0,172,69,83,89,67
2025-02-26 14:57:59.824,-91.0,676.0,56.0,130.0,40.0,-462.0,168,67,79,84,68
2025-02-26 14:57:59.830,17.0,798.0,270.0,212.0,50.0,-482.0,170,70,82,89,71
2025-02-26 14:57:59.834,-97.0,591.0,170.0,281.0,65.0,-493.0,173,70,85,91,74
2025-02-26 14:57:59.842,104.0,76.0,428.0,344.0,69.0,-502.0,170,69,80,87,74
2025-02-26 14:57:59.846,717.0,36.0,-350.0,342.0,-3.0,-528.0,171,71,81,92,77
2025-02-26 14:57:59.851,1723.0,225.0,-1074.0,339.0,-141.0,-562.0,172,69,83,89,77
2025-02-26 14:57:59.855,1808.0,144.0,-1562.0,373.0,-169.0,-562.0,171,73,83,90,77
2025-02-26 14:57:59.861,1527.0,-949.0,-305.0,386.0,-108.0,-551.0,169,68,82,87,76
2025-02-26 14:57:59.867,786.0,-1338.0,559.0,394.0,-127.0,-547.0,170,70,82,90,79
2025-02-26 14:57:59.871,1416.0,-2109.0,663.0,456.0,-289.0,-540.0,172,71,87,89,78
2025-02-26 14:57:59.877,2563.0,-2823.0,1008.0,486.0,-405.0,-532.0,168,73,86,91,80
2025-02-26 14:57:59.883,3554.0,-3850.0,1737.0,497.0,-329.0,-470.0,176,72,88,88,80
2025-02-26 14:57:59.887,3685.0,-5625.0,2745.0,444.0,-243.0,-303.0,171,69,85,87,79
2025-02-26 14:57:59.895,3728.0,-6692.0,3689.0,438.0,-93.0,-78.0,172,68,85,87,77
2025-02-26 14:57:59.897,3880.0,-6584.0,4107.0,431.0,1.0,14.0,174,72,88,88,82
2025-02-26 14:57:59.904,3917.0,-5271.0,3971.0,381.0,99.0,145.0,174,74,91,87,78
2025-02-26 14:57:59.908,3291.0,-3237.0,3468.0,317.0,230.0,215.0,174,72,89,85,78
2025-02-26 14:57:59.916,2778.0,-1293.0,2823.0,131.0,276.0,234.0,175,73,90,84,78
2025-02-26 14:57:59.920,2004.0,-650.0,2098.0,-68.0,278.0,231.0,170,71,87,82,75
2025-02-26 14:57:59.924,1196.0,-371.0,1556.0,-228.0,176.0,229.0,174,74,90,86,79
2025-02-26 14:57:59.932,561.0,-455.0,904.0,-296.0,93.0,250.0,174,73,89,86,79
2025-02-26 14:57:59.936,364.0,-668.0,606.0,-398.0,61.0,269.0,174,74,87,86,77
2025-02-26 14:57:59.941,242.0,-792.0,511.0,-446.0,5.0,269.0,172,74,86,85,77
2025-02-26 14:57:59.945,282.0,-987.0,516.0,-458.0,-38.0,248.0,172,73,91,88,78
2025-02-26 14:57:59.952,401.0,-1142.0,505.0,-453.0,-38.0,223.0,171,74,86,88,79
2025-02-26 14:57:59.957,387.0,-1339.0,469.0,-434.0,-27.0,200.0,172,72,84,87,82
2025-02-26 14:57:59.961,326.0,-1427.0,505.0,-392.0,-8.0,191.0,172,75,88,91,82
2025-02-26 14:57:59.965,294.0,-1617.0,521.0,-333.0,5.0,185.0,172,75,83,90,82
2025-02-26 14:57:59.970,182.0,-1782.0,505.0,-309.0,10.0,186.0,170,73,83,87,78
2025-02-26 14:57:59.977,151.0,-1831.0,504.0,-254.0,11.0,192.0,172,72,82,91,83
2025-02-26 14:57:59.982,94.0,-1651.0,518.0,-214.0,15.0,201.0,176,74,85,92,84
2025-02-26 14:57:59.986,161.0,-1604.0,552.0,-177.0,8.0,211.0,174,74,84,95,84
2025-02-26 14:57:59.993,243.0,-1378.0,616.0,-156.0,-1.0,225.0,170,69,81,89,81
2025-02-26 14:57:59.998,189.0,-1273.0,631.0,-126.0,1.0,230.0,170,70,78,88,81
2025-02-26 14:58:00.003,172.0,-1055.0,601.0,-111.0,18.0,236.0,173,74,85,90,85
2025-02-26 14:58:00.007,109.0,-860.0,547.0,-105.0,24.0,236.0,176,72,84,93,83
2025-02-26 14:58:00.013,75.0,-698.0,464.0,-100.0,22.0,233.0,171,70,82,91,82
2025-02-26 14:58:00.018,20.0,-618.0,373.0,-93.0,16.0,232.0,168,76,87,94,86
2025-02-26 14:58:00.022,-14.0,-481.0,373.0,-96.0,7.0,227.0,171,72,87,92,85
2025-02-26 14:58:00.028,-78.0,-321.0,378.0,-110.0,10.0,221.0,170,74,77,89,84
2025-02-26 14:58:00.033,-108.0,-267.0,423.0,-118.0,13.0,215.0,172,70,86,94,85
2025-02-26 14:58:00.036,-126.0,-95.0,391.0,-131.0,19.0,200.0,175,74,87,93,87
2025-02-26 14:58:00.041,-139.0,-111.0,313.0,-137.0,39.0,189.0,170,71,86,91,84
2025-02-26 14:58:00.047,-241.0,25.0,208.0,-142.0,43.0,180.0,170,74,85,90,82
2025-02-26 14:58:00.047,-256.0,-100.0,287.0,-140.0,46.0,169.0,173,73,87,92,85
2025-02-26 14:58:00.059,-360.0,-83.0,198.0,-139.0,47.0,163.0,176,74,87,99,83
2025-02-26 14:58:00.059,-378.0,-57.0,192.0,-140.0,40.0,154.0,171,71,84,90,83
2025-02-26 14:58:00.067,-421.0,-89.0,146.0,-142.0,36.0,151.0,172,76,96,93,84
2025-02-26 14:58:00.071,-459.0,-117.0,174.0,-144.0,31.0,144.0,174,74,89,94,84
2025-02-26 14:58:00.077,-506.0,-53.0,139.0,-142.0,31.0,137.0,170,74,86,91,82
2025-02-26 14:58:00.084,-517.0,-123.0,115.0,-140.0,32.0,134.0,171,74,89,91,81
2025-02-26 14:58:00.088,-555.0,-54.0,67.0,-139.0,42.0,127.0,174,77,88,92,83
2025-02-26 14:58:00.092,-598.0,-84.0,54.0,-133.0,41.0,120.0,172,75,89,91,83
2025-02-26 14:58:00.096,-630.0,-116.0,13.0,-124.0,40.0,115.0,166,72,85,96,82
2025-02-26 14:58:00.103,-709.0,-118.0,-6.0,-116.0,39.0,112.0,173,74,87,93,86
2025-02-26 14:58:00.109,-766.0,-109.0,-42.0,-108.0,40.0,108.0,172,74,88,93,85
2025-02-26 14:58:00.112,-794.0,-64.0,-56.0,-104.0,39.0,102.0,170,73,87,93,82
2025-02-26 14:58:00.116,-823.0,-58.0,-54.0,-89.0,39.0,98.0,171,73,85,90,83
2025-02-26 14:58:00.125,-820.0,30.0,-30.0,-72.0,41.0,89.0,169,77,90,93,84
2025-02-26 14:58:00.129,-831.0,94.0,-42.0,-64.0,45.0,77.0,171,74,87,92,84
2025-02-26 14:58:00.133,-823.0,153.0,-56.0,-45.0,44.0,68.0,171,73,85,92,82
2025-02-26 14:58:00.137,-806.0,192.0,-74.0,-32.0,45.0,53.0,172,76,87,96,87
2025-02-26 14:58:00.141,-879.0,242.0,-90.0,-23.0,48.0,37.0,172,76,86,94,86
2025-02-26 14:58:00.146,-898.0,308.0,-168.0,-9.0,48.0,30.0,170,74,84,91,85
2025-02-26 14:58:00.152,-936.0,330.0,-203.0,7.0,51.0,17.0,170,76,87,95,86
2025-02-26 14:58:00.157,-977.0,394.0,-251.0,13.0,51.0,2.0,176,76,87,95,84
2025-02-26 14:58:00.161,-997.0,447.0,-293.0,28.0,49.0,-11.0,171,73,86,93,84
2025-02-26 14:58:00.165,-1082.0,514.0,-309.0,45.0,37.0,-19.0,175,65,86,93,90
2025-02-26 14:58:00.170,-1145.0,602.0,-306.0,52.0,26.0,-36.0,170,71,86,94,84
2025-02-26 14:58:00.178,-1161.0,723.0,-303.0,71.0,22.0,-57.0,169,75,86,93,81
2025-02-26 14:58:00.182,-1198.0,784.0,-313.0,86.0,15.0,-70.0,172,77,91,94,85
2025-02-26 14:58:00.186,-1293.0,912.0,-317.0,95.0,6.0,-98.0,170,74,86,93,86
2025-02-26 14:58:00.191,-1326.0,1027.0,-322.0,120.0,1.0,-131.0,170,72,86,93,83
2025-02-26 14:58:00.198,-1305.0,1075.0,-349.0,145.0,-9.0,-151.0,174,77,84,94,85
2025-02-26 14:58:00.202,-1223.0,1135.0,-353.0,170.0,-18.0,-196.0,174,75,89,95,86
2025-02-26 14:58:00.207,-1108.0,1128.0,-378.0,179.0,-19.0,-243.0,170,73,86,93,84
2025-02-26 14:58:00.215,-1039.0,1057.0,-375.0,206.0,-24.0,-288.0,170,72,85,93,83
2025-02-26 14:58:00.218,-913.0,1004.0,-365.0,233.0,-33.0,-309.0,170,73,89,92,83
2025-02-26 14:58:00.223,-668.0,925.0,-321.0,264.0,-44.0,-352.0,171,76,89,95,86
2025-02-26 14:58:00.231,-380.0,802.0,-292.0,293.0,-57.0,-392.0,171,75,87,93,87
2025-02-26 14:58:00.235,-116.0,640.0,-266.0,305.0,-75.0,-425.0,171,75,92,96,88
2025-02-26 14:58:00.239,-25.0,395.0,-175.0,326.0,-88.0,-446.0,170,73,86,91,84
2025-02-26 14:58:00.244,222.0,281.0,-21.0,341.0,-116.0,-452.0,173,75,88,94,87
2025-02-26 14:58:00.251,520.0,-30.0,86.0,355.0,-141.0,-459.0,171,74,86,95,86
2025-02-26 14:58:00.255,953.0,-276.0,334.0,359.0,-162.0,-466.0,172,73,87,96,89
2025-02-26 14:58:00.260,1167.0,-592.0,669.0,363.0,-168.0,-466.0,171,72,86,94,85
2025-02-26 14:58:00.264,1605.0,-849.0,1022.0,364.0,-169.0,-463.0,171,75,88,94,88
2025-02-26 14:58:00.272,2048.0,-1568.0,1235.0,356.0,-165.0,-451.0,172,73,89,95,89
2025-02-26 14:58:00.276,2486.0,-2398.0,1720.0,344.0,-149.0,-416.0,174,78,90,97,96
2025-02-26 14:58:00.284,2883.0,-3534.0,2345.0,329.0,-107.0,-350.0,172,74,90,95,89
2025-02-26 14:58:00.288,3211.0,-4845.0,2774.0,293.0,-81.0,-245.0,169,71,88,94,87
2025-02-26 14:58:00.292,3265.0,-5727.0,2966.0,256.0,-24.0,-116.0,170,74,90,93,86
2025-02-26 14:58:00.296,3108.0,-5854.0,2920.0,207.0,30.0,-50.0,172,75,92,93,88
2025-02-26 14:58:00.304,2802.0,-5523.0,2826.0,128.0,83.0,69.0,174,78,92,93,88
2025-02-26 14:58:00.309,2359.0,-4589.0,2508.0,74.0,127.0,157.0,171,75,93,92,86
2025-02-26 14:58:00.313,2136.0,-3270.0,2037.0,-56.0,138.0,208.0,173,76,90,91,86
2025-02-26 14:58:00.321,1587.0,-2635.0,1599.0,-170.0,128.0,223.0,171,73,89,90,83
2025-02-26 14:58:00.325,1138.0,-1548.0,1147.0,-269.0,87.0,233.0,172,76,93,94,86
2025-02-26 14:58:00.328,837.0,-900.0,964.0,-349.0,34.0,230.0,172,74,91,93,86
2025-02-26 14:58:00.334,634.0,-706.0,609.0,-372.0,-11.0,223.0,173,76,92,92,86
2025-02-26 14:58:00.342,566.0,-755.0,425.0,-399.0,-25.0,218.0,169,73,91,92,84
2025-02-26 14:58:00.345,505.0,-780.0,206.0,-419.0,-34.0,205.0,174,76,90,95,86
2025-02-26 14:58:00.350,388.0,-971.0,147.0,-426.0,-31.0,186.0,173,76,89,94,87
2025-02-26 14:58:00.355,288.0,-1182.0,33.0,-431.0,-26.0,170.0,171,76,87,95,87
2025-02-26 14:58:00.362,178.0,-1392.0,-71.0,-410.0,-13.0,164.0,168,74,87,92,86
2025-02-26 14:58:00.364,81.0,-1499.0,-67.0,-366.0,-9.0,157.0,171,75,88,94,88
2025-02-26 14:58:00.371,50.0,-1615.0,-36.0,-349.0,-7.0,157.0,170,76,87,94,86
2025-02-26 14:58:00.375,37.0,-1699.0,38.0,-292.0,-6.0,166.0,169,75,87,94,88
2025-02-26 14:58:00.383,53.0,-1710.0,169.0,-254.0,6.0,170.0,172,78,88,96,89
2025-02-26 14:58:00.386,106.0,-1561.0,205.0,-200.0,0.0,187.0,171,76,89,94,89
2025-02-26 14:58:00.388,152.0,-1524.0,251.0,-174.0,-7.0,202.0,168,71,86,94,86
2025-02-26 14:58:00.395,207.0,-1429.0,334.0,-129.0,-8.0,209.0,168,76,89,96,89
2025-02-26 14:58:00.400,234.0,-1241.0,372.0,-98.0,12.0,222.0,171,78,92,98,91
2025-02-26 14:58:00.408,127.0,-1088.0,330.0,-81.0,39.0,236.0,170,74,90,98,90
2025-02-26 14:58:00.411,133.0,-906.0,230.0,-69.0,49.0,245.0,170,78,88,97,89
2025-02-26 14:58:00.416,67.0,-779.0,320.0,-74.0,69.0,251.0,172,78,92,99,94
2025-02-26 14:58:00.418,41.0,-720.0,448.0,-86.0,93.0,256.0,172,79,93,100,94
2025-02-26 14:58:00.427,-30.0,-581.0,255.0,-125.0,93.0,256.0,169,77,92,100,92
2025-02-26 14:58:00.431,11.0,-428.0,154.0,-154.0,92.0,256.0,167,77,89,98,92
2025-02-26 14:58:00.436,-33.0,-266.0,280.0,-151.0,107.0,261.0,170,81,95,102,96
2025-02-26 14:58:00.441,-132.0,-209.0,41.0,-182.0,120.0,263.0,170,80,97,102,95
2025-02-26 14:58:00.448,-232.0,-234.0,17.0,-263.0,126.0,269.0,165,79,94,100,91
2025-02-26 14:58:00.452,-210.0,-82.0,-113.0,-258.0,144.0,273.0,167,81,97,99,92
2025-02-26 14:58:00.456,-257.0,17.0,108.0,-184.0,179.0,275.0,169,82,99,107,96
2025-02-26 14:58:00.461,-306.0,9.0,283.0,-154.0,193.0,271.0,166,84,99,104,95
2025-02-26 14:58:00.469,-349.0,-19.0,558.0,-91.0,194.0,254.0,162,82,91,105,94
2025-02-26 14:58:00.473,-275.0,43.0,412.0,-36.0,178.0,245.0,167,85,102,107,99
2025-02-26 14:58:00.477,-291.0,-25.0,441.0,8.0,161.0,226.0,172,86,104,116,100
2025-02-26 14:58:00.482,-343.0,69.0,326.0,17.0,149.0,205.0,165,89,104,111,101
2025-02-26 14:58:00.489,-409.0,50.0,89.0,28.0,151.0,185.0,162,87,103,110,100
2025-02-26 14:58:00.494,-461.0,-246.0,232.0,20.0,179.0,180.0,165,91,104,114,102
2025-02-26 14:58:00.498,-490.0,53.0,-376.0,47.0,180.0,177.0,165,93,108,115,103
2025-02-26 14:58:00.505,-684.0,319.0,-396.0,56.0,168.0,154.0,165,94,107,113,104
2025-02-26 14:58:00.509,-777.0,358.0,-641.0,64.0,145.0,131.0,162,92,109,110,100
2025-02-26 14:58:00.514,-941.0,276.0,-548.0,78.0,115.0,128.0,164,96,108,113,103
2025-02-26 14:58:00.519,-995.0,287.0,-557.0,94.0,81.0,108.0,163,99,111,113,105
2025-02-26 14:58:00.525,-955.0,140.0,-701.0,92.0,44.0,90.0,164,102,110,114,104
2025-02-26 14:58:00.528,-902.0,333.0,-803.0,92.0,31.0,64.0,161,102,108,112,102
2025-02-26 14:58:00.535,-871.0,405.0,-709.0,90.0,14.0,46.0,163,109,112,114,107
2025-02-26 14:58:00.540,-864.0,433.0,-509.0,79.0,-2.0,35.0,163,112,115,114,108
2025-02-26 14:58:00.546,-821.0,409.0,-492.0,91.0,-20.0,17.0,162,116,117,113,108
2025-02-26 14:58:00.551,-766.0,470.0,-434.0,88.0,-42.0,0.0,161,117,120,114,106
2025-02-26 14:58:00.555,-793.0,525.0,-476.0,109.0,-53.0,-12.0,159,118,122,112,106
2025-02-26 14:58:00.563,-900.0,418.0,-597.0,121.0,-71.0,-17.0,158,119,124,112,105
2025-02-26 14:58:00.567,-920.0,380.0,-667.0,131.0,-94.0,-26.0,160,117,125,113,108
2025-02-26 14:58:00.575,-804.0,476.0,-682.0,152.0,-108.0,-50.0,158,124,128,115,107
2025-02-26 14:58:00.579,-769.0,616.0,-475.0,156.0,-112.0,-80.0,156,125,127,114,107
2025-02-26 14:58:00.583,-755.0,633.0,-624.0,173.0,-115.0,-99.0,154,124,129,113,105
2025-02-26 14:58:00.591,-893.0,720.0,-419.0,200.0,-92.0,-123.0,154,129,130,113,104
2025-02-26 14:58:00.596,-900.0,715.0,-433.0,210.0,-86.0,-150.0,149,127,131,114,103
2025-02-26 14:58:00.600,-856.0,788.0,-604.0,234.0,-89.0,-180.0,146,126,130,113,98
2025-02-26 14:58:00.608,-828.0,842.0,-663.0,262.0,-101.0,-196.0,141,126,131,113,100
2025-02-26 14:58:00.612,-738.0,856.0,-523.0,294.0,-108.0,-231.0,138,128,131,114,100
2025-02-26 14:58:00.617,-707.0,904.0,-467.0,331.0,-111.0,-259.0,139,135,136,116,105
2025-02-26 14:58:00.624,-437.0,907.0,-617.0,375.0,-135.0,-282.0,138,133,137,116,104
2025-02-26 14:58:00.629,-147.0,932.0,-626.0,413.0,-139.0,-311.0,136,134,136,115,103
2025-02-26 14:58:00.635,-289.0,582.0,-444.0,419.0,-155.0,-341.0,136,138,137,118,106
2025-02-26 14:58:00.641,-307.0,433.0,-278.0,426.0,-185.0,-367.0,134,136,136,115,103
2025-02-26 14:58:00.642,-69.0,290.0,-190.0,454.0,-211.0,-386.0,132,136,136,112,104
2025-02-26 14:58:00.653,180.0,62.0,29.0,469.0,-226.0,-402.0,127,135,134,112,102
2025-02-26 14:58:00.653,284.0,-11.0,251.0,479.0,-259.0,-418.0,132,137,133,111,99
2025-02-26 14:58:00.659,490.0,-17.0,439.0,481.0,-298.0,-427.0,131,139,135,112,104
2025-02-26 14:58:00.669,791.0,-132.0,689.0,462.0,-333.0,-443.0,130,143,137,114,104
2025-02-26 14:58:00.671,1101.0,-357.0,804.0,445.0,-370.0,-460.0,130,144,136,114,107
2025-02-26 14:58:00.678,1476.0,-696.0,1036.0,443.0,-404.0,-474.0,134,146,138,115,107
2025-02-26 14:58:00.686,1823.0,-1105.0,1360.0,430.0,-428.0,-481.0,134,146,134,113,106
2025-02-26 14:58:00.690,2209.0,-1743.0,2111.0,381.0,-436.0,-464.0,133,148,136,113,106
2025-02-26 14:58:00.698,2642.0,-2469.0,2897.0,349.0,-385.0,-408.0,135,151,137,115,104
2025-02-26 14:58:00.702,2985.0,-3031.0,3417.0,315.0,-305.0,-310.0,133,150,136,114,109
2025-02-26 14:58:00.708,3142.0,-3228.0,3698.0,261.0,-190.0,-190.0,127,151,136,112,111
2025-02-26 14:58:00.714,3176.0,-3265.0,3907.0,191.0,-66.0,-66.0,136,153,137,114,111
2025-02-26 14:58:00.719,3081.0,-3209.0,3882.0,99.0,-6.0,48.0,134,151,135,114,110
2025-02-26 14:58:00.727,2851.0,-3097.0,3585.0,-6.0,97.0,157.0,131,151,135,115,108
2025-02-26 14:58:00.731,2254.0,-2950.0,3153.0,-105.0,175.0,205.0,130,149,132,110,108
2025-02-26 14:58:00.735,1785.0,-2368.0,2482.0,-198.0,207.0,274.0,135,151,137,113,110
2025-02-26 14:58:00.743,1302.0,-1830.0,1976.0,-283.0,201.0,308.0,133,153,136,113,110
2025-02-26 14:58:00.747,969.0,-1379.0,1575.0,-345.0,177.0,317.0,131,152,136,113,109
2025-02-26 14:58:00.755,723.0,-1146.0,1406.0,-385.0,145.0,314.0,130,151,137,114,110
2025-02-26 14:58:00.759,563.0,-994.0,1109.0,-398.0,112.0,304.0,132,153,137,114,107
2025-02-26 14:58:00.763,485.0,-969.0,869.0,-391.0,77.0,288.0,128,152,137,114,107
2025-02-26 14:58:00.772,398.0,-1013.0,677.0,-361.0,44.0,264.0,125,151,134,113,106
2025-02-26 14:58:00.774,363.0,-1125.0,557.0,-329.0,32.0,239.0,126,149,134,115,107
2025-02-26 14:58:00.780,284.0,-1200.0,546.0,-309.0,20.0,225.0,127,149,135,114,105
2025-02-26 14:58:00.788,269.0,-1188.0,580.0,-287.0,15.0,202.0,127,149,138,116,106
2025-02-26 14:58:00.792,212.0,-1153.0,541.0,-258.0,13.0,185.0,130,149,137,118,107
2025-02-26 14:58:00.796,204.0,-1101.0,549.0,-234.0,16.0,175.0,129,151,138,117,105
2025-02-26 14:58:00.805,218.0,-1032.0,511.0,-226.0,22.0,170.0,126,148,137,116,106
2025-02-26 14:58:00.808,156.0,-990.0,514.0,-206.0,24.0,175.0,128,149,136,114,105
2025-02-26 14:58:00.813,121.0,-968.0,494.0,-189.0,24.0,186.0,126,146,137,114,105
2025-02-26 14:58:00.817,62.0,-955.0,480.0,-175.0,23.0,193.0,127,146,137,114,106
2025-02-26 14:58:00.825,-9.0,-903.0,460.0,-161.0,20.0,208.0,131,151,140,117,109
2025-02-26 14:58:00.830,-72.0,-866.0,488.0,-145.0,16.0,223.0,131,146,140,117,108
2025-02-26 14:58:00.834,-125.0,-797.0,499.0,-135.0,10.0,236.0,134,151,141,121,112
2025-02-26 14:58:00.841,-134.0,-614.0,482.0,-116.0,7.0,245.0,131,147,138,116,108
2025-02-26 14:58:00.846,-150.0,-442.0,497.0,-102.0,4.0,248.0,130,146,137,117,109
2025-02-26 14:58:00.850,-144.0,-363.0,480.0,-96.0,2.0,247.0,131,150,140,119,110
2025-02-26 14:58:00.858,-187.0,-262.0,516.0,-105.0,6.0,243.0,134,152,146,119,109
2025-02-26 14:58:00.862,-253.0,-125.0,472.0,-115.0,10.0,235.0,132,149,140,118,109
2025-02-26 14:58:00.865,-284.0,-70.0,527.0,-121.0,16.0,223.0,138,151,139,109,109
2025-02-26 14:58:00.874,-291.0,-20.0,525.0,-127.0,22.0,209.0,131,148,139,118,108
2025-02-26 14:58:00.877,-318.0,15.0,479.0,-142.0,36.0,201.0,131,149,139,118,109
2025-02-26 14:58:00.882,-382.0,49.0,475.0,-149.0,52.0,184.0,132,151,141,119,112
2025-02-26 14:58:00.890,-446.0,50.0,462.0,-147.0,68.0,171.0,132,149,139,118,110
2025-02-26 14:58:00.895,-487.0,44.0,379.0,-144.0,83.0,157.0,135,150,142,121,113
2025-02-26 14:58:00.899,-507.0,26.0,266.0,-134.0,89.0,144.0,131,147,138,116,109
2025-02-26 14:58:00.907,-563.0,14.0,229.0,-131.0,100.0,138.0,129,147,138,116,108
2025-02-26 14:58:00.911,-630.0,49.0,171.0,-125.0,110.0,131.0,133,149,141,118,110
2025-02-26 14:58:00.916,-667.0,34.0,106.0,-117.0,111.0,124.0,134,150,141,121,111
2025-02-26 14:58:00.919,-718.0,37.0,53.0,-111.0,110.0,119.0,131,147,139,120,109
2025-02-26 14:58:00.927,-771.0,42.0,-3.0,-103.0,107.0,113.0,131,146,140,118,107
2025-02-26 14:58:00.932,-790.0,41.0,-58.0,-89.0,100.0,109.0,129,143,137,117,108
2025-02-26 14:58:00.935,-823.0,35.0,-109.0,-77.0,88.0,106.0,134,147,140,121,111
2025-02-26 14:58:00.944,-835.0,44.0,-93.0,-68.0,75.0,99.0,132,145,140,119,111
2025-02-26 14:58:00.945,-859.0,52.0,-114.0,-62.0,61.0,91.0,132,144,141,117,109
2025-02-26 14:58:00.952,-860.0,85.0,-84.0,-50.0,56.0,80.0,130,144,138,118,106
2025-02-26 14:58:00.957,-835.0,84.0,-83.0,-36.0,48.0,74.0,134,145,139,118,108
2025-02-26 14:58:00.963,-814.0,130.0,-96.0,-20.0,39.0,60.0,134,146,143,121,112
2025-02-26 14:58:00.968,-787.0,196.0,-97.0,-13.0,37.0,44.0,132,146,141,118,110
2025-02-26 14:58:00.973,-789.0,245.0,-120.0,2.0,36.0,28.0,134,144,139,118,109
2025-02-26 14:58:00.977,-779.0,273.0,-109.0,14.0,34.0,20.0,133,145,139,117,109
2025-02-26 14:58:00.985,-810.0,366.0,-108.0,46.0,31.0,1.0,135,147,140,121,110
2025-02-26 14:58:00.988,-831.0,449.0,-140.0,53.0,29.0,-17.0,131,144,139,120,110
2025-02-26 14:58:00.993,-881.0,599.0,-172.0,72.0,27.0,-34.0,134,146,141,120,110
2025-02-26 14:58:01.001,-970.0,761.0,-196.0,84.0,19.0,-43.0,133,142,137,120,109
2025-02-26 14:58:01.005,-1091.0,835.0,-218.0,96.0,5.0,-59.0,135,145,140,120,110
2025-02-26 14:58:01.010,-1176.0,949.0,-244.0,115.0,-14.0,-76.0,134,144,140,121,111
2025-02-26 14:58:01.018,-1224.0,1027.0,-231.0,122.0,-29.0,-95.0,135,145,142,122,112
2025-02-26 14:58:01.022,-1208.0,1064.0,-271.0,142.0,-43.0,-124.0,134,145,141,120,111
2025-02-26 14:58:01.026,-1169.0,879.0,-229.0,174.0,-60.0,-164.0,133,144,143,121,112
2025-02-26 14:58:01.034,-1048.0,951.0,-251.0,187.0,-65.0,-210.0,132,142,138,119,111
2025-02-26 14:58:01.039,-960.0,947.0,-255.0,220.0,-63.0,-262.0,132,145,141,120,109
2025-02-26 14:58:01.046,-812.0,816.0,-237.0,258.0,-60.0,-314.0,134,142,139,119,108
2025-02-26 14:58:01.050,-657.0,717.0,-267.0,293.0,-65.0,-339.0,131,142,136,119,109
2025-02-26 14:58:01.055,-494.0,574.0,-223.0,319.0,-75.0,-387.0,136,148,142,124,113
2025-02-26 14:58:01.062,-256.0,498.0,-175.0,340.0,-85.0,-429.0,135,146,142,122,111
2025-02-26 14:58:01.066,-12.0,386.0,-106.0,344.0,-102.0,-466.0,135,145,140,122,111
2025-02-26 14:58:01.071,244.0,280.0,23.0,341.0,-122.0,-496.0,136,146,141,123,112
2025-02-26 14:58:01.079,469.0,78.0,149.0,333.0,-154.0,-516.0,136,146,142,124,110
2025-02-26 14:58:01.083,574.0,-195.0,367.0,318.0,-171.0,-523.0,133,144,140,124,111
2025-02-26 14:58:01.088,851.0,-618.0,601.0,306.0,-206.0,-521.0,133,145,139,124,109
2025-02-26 14:58:01.095,1214.0,-900.0,779.0,267.0,-246.0,-511.0,136,146,142,127,112
2025-02-26 14:58:01.100,1578.0,-1380.0,1094.0,252.0,-290.0,-501.0,136,148,141,129,113
2025-02-26 14:58:01.107,2077.0,-2287.0,1600.0,198.0,-316.0,-478.0,134,147,139,129,113
2025-02-26 14:58:01.112,2713.0,-3088.0,2106.0,153.0,-298.0,-436.0,136,149,141,129,113
2025-02-26 14:58:01.116,3268.0,-4195.0,2312.0,161.0,-232.0,-360.0,138,144,142,132,118
2025-02-26 14:58:01.124,3487.0,-4963.0,2531.0,239.0,-156.0,-243.0,136,149,139,131,115
2025-02-26 14:58:01.128,3333.0,-5335.0,2553.0,319.0,-118.0,-100.0,137,147,138,130,117
2025-02-26 14:58:01.136,3081.0,-4975.0,2573.0,360.0,-27.0,33.0,142,150,140,131,120
2025-02-26 14:58:01.141,2934.0,-3986.0,2815.0,286.0,60.0,160.0,140,148,140,129,118
2025-02-26 14:58:01.145,2423.0,-2903.0,2362.0,215.0,108.0,255.0,138,145,135,124,114
2025-02-26 14:58:01.153,1910.0,-2000.0,2575.0,72.0,169.0,317.0,136,144,136,122,112
2025-02-26 14:58:01.157,1722.0,-1251.0,2269.0,-21.0,184.0,335.0,139,145,134,119,111
2025-02-26 14:58:01.161,1144.0,-917.0,2027.0,-143.0,198.0,335.0,137,142,135,119,108
2025-02-26 14:58:01.169,745.0,-692.0,1746.0,-246.0,209.0,322.0,137,139,133,118,108
2025-02-26 14:58:01.173,494.0,-594.0,1271.0,-325.0,191.0,313.0,137,142,134,120,111
2025-02-26 14:58:01.181,339.0,-614.0,897.0,-363.0,162.0,297.0,141,141,135,122,112
2025-02-26 14:58:01.186,283.0,-743.0,730.0,-354.0,132.0,279.0,141,142,136,122,112
2025-02-26 14:58:01.190,220.0,-897.0,489.0,-295.0,90.0,254.0,137,142,134,124,112
2025-02-26 14:58:01.198,173.0,-1063.0,279.0,-267.0,43.0,222.0,141,143,137,126,114
2025-02-26 14:58:01.202,200.0,-1146.0,242.0,-223.0,31.0,193.0,137,141,132,124,112
2025-02-26 14:58:01.205,156.0,-1352.0,77.0,-203.0,20.0,175.0,137,141,135,124,111
2025-02-26 14:58:01.214,137.0,-1336.0,282.0,-219.0,36.0,171.0,138,143,135,128,112
2025-02-26 14:58:01.218,157.0,-1459.0,351.0,-216.0,61.0,164.0,139,144,137,128,114
2025-02-26 14:58:01.223,137.0,-1417.0,393.0,-200.0,55.0,164.0,140,143,140,129,115
2025-02-26 14:58:01.231,132.0,-1341.0,587.0,-186.0,39.0,168.0,138,143,138,128,114
2025-02-26 14:58:01.234,153.0,-1193.0,534.0,-155.0,44.0,180.0,138,145,140,130,115
2025-02-26 14:58:01.238,123.0,-1042.0,456.0,-150.0,54.0,192.0,136,143,141,130,115
2025-02-26 14:58:01.247,101.0,-955.0,440.0,-174.0,67.0,198.0,134,143,137,128,114
2025-02-26 14:58:01.251,59.0,-921.0,604.0,-158.0,58.0,210.0,137,145,141,131,117
2025-02-26 14:58:01.255,56.0,-750.0,473.0,-141.0,63.0,218.0,139,147,145,132,119
2025-02-26 14:58:01.260,96.0,-649.0,469.0,-145.0,90.0,223.0,137,145,142,130,118
2025-02-26 14:58:01.265,22.0,-637.0,383.0,-148.0,94.0,225.0,134,142,140,125,116
2025-02-26 14:58:01.272,-33.0,-509.0,392.0,-145.0,96.0,223.0,133,143,141,129,116
2025-02-26 14:58:01.276,-16.0,-433.0,396.0,-144.0,106.0,223.0,136,147,143,130,120
2025-02-26 14:58:01.284,-14.0,-351.0,285.0,-147.0,118.0,218.0,136,147,144,129,119
2025-02-26 14:58:01.284,-137.0,-319.0,556.0,-170.0,131.0,209.0,131,148,143,128,117
2025-02-26 14:58:01.292,-306.0,-257.0,392.0,-174.0,131.0,200.0,136,148,143,130,122
2025-02-26 14:58:01.300,-340.0,-195.0,179.0,-190.0,118.0,195.0,134,148,141,126,120
2025-02-26 14:58:01.305,-351.0,-50.0,211.0,-189.0,113.0,184.0,131,144,138,125,119
2025-02-26 14:58:01.309,-417.0,61.0,127.0,-200.0,106.0,171.0,130,143,137,122,119
2025-02-26 14:58:01.317,-429.0,149.0,137.0,-196.0,94.0,166.0,133,144,137,123,119
2025-02-26 14:58:01.321,-462.0,172.0,179.0,-187.0,97.0,159.0,134,145,140,126,123
2025-02-26 14:58:01.325,-565.0,194.0,160.0,-198.0,96.0,152.0,133,145,137,126,122
2025-02-26 14:58:01.333,-610.0,164.0,35.0,-199.0,88.0,149.0,137,144,137,124,121
2025-02-26 14:58:01.338,-625.0,177.0,-51.0,-185.0,85.0,141.0,132,141,134,122,120
2025-02-26 14:58:01.342,-675.0,208.0,13.0,-184.0,89.0,135.0,137,142,133,124,121
2025-02-26 14:58:01.349,-707.0,123.0,-15.0,-191.0,89.0,127.0,141,145,135,125,124
2025-02-26 14:58:01.354,-739.0,117.0,-66.0,-174.0,89.0,117.0,140,143,134,127,125
2025-02-26 14:58:01.358,-723.0,31.0,-158.0,-167.0,85.0,107.0,140,142,133,129,125
2025-02-26 14:58:01.366,-728.0,-64.0,-162.0,-152.0,82.0,97.0,140,141,131,124,121
2025-02-26 14:58:01.370,-709.0,-126.0,-132.0,-130.0,83.0,87.0,141,139,132,123,120
2025-02-26 14:58:01.374,-715.0,-138.0,-214.0,-108.0,81.0,82.0,144,141,132,126,120
2025-02-26 14:58:01.381,-694.0,-163.0,-168.0,-84.0,78.0,74.0,147,144,135,127,122
2025-02-26 14:58:01.386,-678.0,-193.0,-204.0,-65.0,76.0,68.0,146,142,133,127,119
2025-02-26 14:58:01.390,-713.0,-149.0,-235.0,-56.0,71.0,64.0,147,143,132,126,119
2025-02-26 14:58:01.398,-669.0,-42.0,-239.0,-45.0,68.0,58.0,147,141,132,125,117
2025-02-26 14:58:01.400,-656.0,32.0,-239.0,-20.0,68.0,54.0,149,139,129,125,116
2025-02-26 14:58:01.407,-688.0,88.0,-219.0,6.0,68.0,50.0,151,143,134,127,120
2025-02-26 14:58:01.411,-775.0,134.0,-261.0,35.0,62.0,44.0,152,141,130,126,120
2025-02-26 14:58:01.419,-813.0,217.0,-306.0,44.0,47.0,35.0,154,141,130,127,120
2025-02-26 14:58:01.423,-839.0,257.0,-339.0,56.0,38.0,21.0,149,138,128,125,118
2025-02-26 14:58:01.428,-931.0,265.0,-328.0,53.0,26.0,11.0,151,139,129,127,119
2025-02-26 14:58:01.432,-954.0,346.0,-290.0,51.0,18.0,-4.0,155,136,127,125,119
2025-02-26 14:58:01.439,-980.0,386.0,-97.0,53.0,26.0,-15.0,153,135,125,126,120
2025-02-26 14:58:01.443,-974.0,530.0,-173.0,54.0,26.0,-31.0,153,130,122,123,119
2025-02-26 14:58:01.448,-1028.0,606.0,-275.0,61.0,17.0,-42.0,153,126,119,122,117
2025-02-26 14:58:01.456,-1012.0,679.0,-296.0,74.0,5.0,-61.0,158,126,121,128,123
2025-02-26 14:58:01.460,-985.0,675.0,-323.0,106.0,-10.0,-78.0,155,118,114,125,122
2025-02-26 14:58:01.464,-1020.0,683.0,-337.0,123.0,-34.0,-103.0,156,114,115,124,120
2025-02-26 14:58:01.473,-1003.0,731.0,-259.0,159.0,-53.0,-129.0,155,108,111,123,120
2025-02-26 14:58:01.477,-977.0,702.0,-151.0,195.0,-70.0,-149.0,156,102,110,122,120
2025-02-26 14:58:01.479,-959.0,701.0,-322.0,230.0,-84.0,-169.0,155,100,109,122,117
2025-02-26 14:58:01.485,-947.0,699.0,-480.0,267.0,-129.0,-206.0,156,96,104,119,116
2025-02-26 14:58:01.493,-1027.0,758.0,-460.0,260.0,-140.0,-227.0,156,90,103,115,112
2025-02-26 14:58:01.501,-1062.0,757.0,-601.0,268.0,-156.0,-267.0,160,89,103,117,113
2025-02-26 14:58:01.505,-1033.0,814.0,-728.0,280.0,-152.0,-313.0,159,84,100,114,109
2025-02-26 14:58:01.509,-1084.0,782.0,-691.0,275.0,-144.0,-357.0,160,79,94,110,107
2025-02-26 14:58:01.516,-989.0,695.0,-493.0,259.0,-116.0,-398.0,159,78,95,111,105
2025-02-26 14:58:01.522,-754.0,557.0,-385.0,260.0,-98.0,-429.0,161,74,89,106,99
2025-02-26 14:58:01.526,-634.0,529.0,-323.0,296.0,-101.0,-450.0,159,77,87,104,97
2025-02-26 14:58:01.533,-367.0,498.0,-485.0,368.0,-143.0,-463.0,158,69,86,100,89
2025-02-26 14:58:01.538,-71.0,528.0,172.0,372.0,-151.0,-472.0,164,71,82,102,89
2025-02-26 14:58:01.539,345.0,422.0,20.0,366.0,-186.0,-491.0,162,74,88,98,85
2025-02-26 14:58:01.546,969.0,466.0,21.0,366.0,-234.0,-502.0,161,72,89,96,84
2025-02-26 14:58:01.552,1149.0,166.0,164.0,368.0,-264.0,-512.0,162,69,83,92,81
2025-02-26 14:58:01.558,1456.0,-7.0,455.0,313.0,-323.0,-525.0,164,73,87,96,84
2025-02-26 14:58:01.562,1828.0,-435.0,547.0,297.0,-360.0,-538.0,163,70,84,93,84
2025-02-26 14:58:01.567,2506.0,-916.0,855.0,294.0,-341.0,-540.0,165,71,82,92,85
2025-02-26 14:58:01.574,2723.0,-1314.0,1514.0,276.0,-303.0,-524.0,167,71,84,94,84
2025-02-26 14:58:01.578,2876.0,-2450.0,2068.0,282.0,-209.0,-500.0,164,68,82,91,81
2025-02-26 14:58:01.582,3374.0,-3158.0,2609.0,261.0,-100.0,-425.0,168,73,84,92,84
2025-02-26 14:58:01.590,3390.0,-4376.0,2839.0,256.0,3.0,-312.0,169,70,83,91,85
2025-02-26 14:58:01.595,3203.0,-5346.0,3193.0,247.0,90.0,-166.0,170,74,86,93,84
2025-02-26 14:58:01.599,2891.0,-5894.0,3459.0,226.0,164.0,0.0,168,68,82,87,80
2025-02-26 14:58:01.607,2831.0,-5614.0,3064.0,199.0,180.0,75.0,167,69,83,87,79
2025-02-26 14:58:01.612,2620.0,-5021.0,2577.0,135.0,186.0,192.0,169,73,84,88,81
2025-02-26 14:58:01.615,2188.0,-3536.0,2385.0,27.0,173.0,255.0,168,73,87,96,84
2025-02-26 14:58:01.620,1694.0,-2095.0,1964.0,-46.0,133.0,283.0,170,73,86,90,81
2025-02-26 14:58:01.628,1484.0,-939.0,1481.0,-198.0,102.0,277.0,166,73,84,87,80
2025-02-26 14:58:01.631,1067.0,-630.0,1076.0,-328.0,25.0,271.0,167,70,84,86,78
2025-02-26 14:58:01.636,595.0,-387.0,911.0,-416.0,-48.0,254.0,171,75,91,92,82
2025-02-26 14:58:01.643,598.0,-404.0,626.0,-438.0,-101.0,235.0,169,74,87,92,82
2025-02-26 14:58:01.649,415.0,-822.0,442.0,-478.0,-112.0,219.0,167,70,84,89,80
2025-02-26 14:58:01.653,366.0,-959.0,383.0,-486.0,-100.0,210.0,166,71,86,91,81
2025-02-26 14:58:01.656,240.0,-1102.0,394.0,-469.0,-72.0,190.0,168,74,87,94,85
2025-02-26 14:58:01.665,222.0,-1435.0,367.0,-439.0,-55.0,162.0,168,74,87,95,85
2025-02-26 14:58:01.669,146.0,-1642.0,374.0,-424.0,-42.0,142.0,168,73,84,93,83
2025-02-26 14:58:01.673,93.0,-1824.0,345.0,-369.0,-40.0,141.0,167,74,85,96,85
2025-02-26 14:58:01.678,93.0,-1880.0,380.0,-322.0,-42.0,146.0,171,74,86,97,86
2025-02-26 14:58:01.685,84.0,-1893.0,409.0,-279.0,-42.0,163.0,168,74,85,97,87
2025-02-26 14:58:01.689,95.0,-1856.0,460.0,-258.0,-46.0,186.0,168,72,81,95,84
2025-02-26 14:58:01.693,128.0,-1688.0,559.0,-229.0,-50.0,209.0,168,73,83,99,89
2025-02-26 14:58:01.702,205.0,-1629.0,547.0,-179.0,-50.0,215.0,169,74,85,99,88
2025-02-26 14:58:01.706,255.0,-1451.0,607.0,-142.0,-47.0,226.0,167,74,85,98,87
2025-02-26 14:58:01.709,236.0,-1229.0,587.0,-123.0,-33.0,238.0,169,74,86,99,87
2025-02-26 14:58:01.714,214.0,-1115.0,536.0,-98.0,-21.0,249.0,165,73,85,98,87
2025-02-26 14:58:01.721,172.0,-1018.0,508.0,-79.0,-1.0,253.0,168,76,87,100,89
2025-02-26 14:58:01.726,173.0,-834.0,507.0,-66.0,16.0,259.0,166,74,86,97,88
2025-02-26 14:58:01.731,156.0,-632.0,501.0,-71.0,24.0,263.0,165,72,87,95,87
2025-02-26 14:58:01.734,114.0,-519.0,469.0,-67.0,34.0,261.0,165,74,84,97,86
2025-02-26 14:58:01.739,63.0,-281.0,447.0,-72.0,48.0,255.0,169,74,86,98,89
2025-02-26 14:58:01.745,-17.0,-109.0,393.0,-75.0,66.0,244.0,166,73,85,93,87
2025-02-26 14:58:01.751,-77.0,12.0,352.0,-75.0,75.0,237.0,166,72,84,96,85
2025-02-26 14:58:01.755,-220.0,47.0,272.0,-81.0,92.0,226.0,170,75,89,99,90
2025-02-26 14:58:01.759,-312.0,84.0,223.0,-74.0,100.0,215.0,168,75,87,99,87
2025-02-26 14:58:01.764,-381.0,93.0,113.0,-61.0,98.0,209.0,164,72,85,96,85
2025-02-26 14:58:01.771,-477.0,166.0,166.0,-60.0,84.0,196.0,165,73,86,100,89
2025-02-26 14:58:01.775,-540.0,115.0,171.0,-63.0,75.0,181.0,169,76,89,100,89
2025-02-26 14:58:01.779,-556.0,137.0,120.0,-63.0,72.0,164.0,167,74,87,97,86
2025-02-26 14:58:01.782,-613.0,149.0,104.0,-66.0,68.0,157.0,169,75,87,101,86
2025-02-26 14:58:01.791,-640.0,111.0,51.0,-64.0,70.0,141.0,168,73,85,98,86
2025-02-26 14:58:01.795,-669.0,100.0,67.0,-69.0,72.0,128.0,164,74,85,97,86
2025-02-26 14:58:01.800,-681.0,60.0,13.0,-66.0,78.0,123.0,168,76,87,99,88
2025-02-26 14:58:01.804,-729.0,60.0,-8.0,-69.0,77.0,114.0,167,75,86,99,87
2025-02-26 14:58:01.808,-736.0,-30.0,-41.0,-71.0,75.0,107.0,165,74,85,96,85
2025-02-26 14:58:01.815,-779.0,-26.0,-58.0,-70.0,63.0,104.0,171,77,89,101,90
2025-02-26 14:58:01.820,-786.0,-27.0,-49.0,-70.0,54.0,96.0,168,75,88,101,87
2025-02-26 14:58:01.825,-763.0,-24.0,-88.0,-73.0,49.0,88.0,166,72,84,95,84
2025-02-26 14:58:01.828,-794.0,-18.0,-81.0,-70.0,45.0,83.0,170,75,87,99,89
2025-02-26 14:58:01.833,-790.0,-2.0,-88.0,-68.0,36.0,73.0,170,77,88,102,90
2025-02-26 14:58:01.835,-786.0,1.0,-97.0,-57.0,31.0,62.0,167,75,83,96,86
2025-02-26 14:58:01.845,-759.0,26.0,-89.0,-49.0,27.0,55.0,168,76,86,99,88
2025-02-26 14:58:01.848,-734.0,46.0,-90.0,-38.0,29.0,44.0,169,78,86,100,88
2025-02-26 14:58:01.853,-736.0,55.0,-83.0,-33.0,30.0,31.0,168,75,85,98,88
2025-02-26 14:58:01.857,-710.0,69.0,-91.0,-23.0,27.0,24.0,168,77,88,101,89
2025-02-26 14:58:01.861,-719.0,88.0,-105.0,-10.0,23.0,12.0,168,76,86,99,89
2025-02-26 14:58:01.869,-723.0,105.0,-129.0,-3.0,21.0,3.0,165,73,84,99,86
2025-02-26 14:58:01.874,-732.0,131.0,-150.0,8.0,16.0,-1.0,171,78,88,103,91
2025-02-26 14:58:01.878,-765.0,189.0,-156.0,23.0,4.0,-11.0,170,77,86,100,88
2025-02-26 14:58:01.883,-772.0,204.0,-150.0,32.0,-1.0,-22.0,167,72,85,98,86
2025-02-26 14:58:01.886,-786.0,235.0,-160.0,50.0,-11.0,-28.0,167,75,85,99,87
2025-02-26 14:58:01.894,-801.0,275.0,-185.0,67.0,-15.0,-43.0,170,78,90,102,92
2025-02-26 14:58:01.898,-833.0,335.0,-219.0,74.0,-19.0,-59.0,167,73,85,97,87
2025-02-26 14:58:01.902,-870.0,334.0,-236.0,85.0,-22.0,-68.0,167,73,85,98,86
2025-02-26 14:58:01.903,-924.0,401.0,-247.0,96.0,-25.0,-84.0,167,75,87,100,89
2025-02-26 14:58:01.915,-947.0,523.0,-269.0,103.0,-25.0,-102.0,168,75,88,101,89
2025-02-26 14:58:01.919,-960.0,572.0,-291.0,113.0,-23.0,-113.0,165,74,83,95,87
2025-02-26 14:58:01.923,-995.0,650.0,-321.0,125.0,-22.0,-138.0,167,75,87,100,89
2025-02-26 14:58:01.931,-1089.0,789.0,-286.0,131.0,-28.0,-165.0,168,75,87,99,88
2025-02-26 14:58:01.934,-1120.0,889.0,-252.0,152.0,-31.0,-194.0,168,76,87,102,89
2025-02-26 14:58:01.940,-1101.0,1006.0,-292.0,158.0,-28.0,-210.0,164,75,84,99,87
2025-02-26 14:58:01.945,-1034.0,1025.0,-306.0,196.0,-37.0,-252.0,168,77,85,102,88
2025-02-26 14:58:01.951,-840.0,968.0,-313.0,222.0,-40.0,-301.0,167,77,86,101,90
2025-02-26 14:58:01.956,-761.0,821.0,-344.0,240.0,-44.0,-348.0,167,77,86,102,90
2025-02-26 14:58:01.960,-565.0,626.0,-295.0,269.0,-61.0,-389.0,167,74,83,99,89
2025-02-26 14:58:01.968,-468.0,375.0,-248.0,298.0,-74.0,-417.0,165,74,84,99,88
2025-02-26 14:58:01.971,-204.0,272.0,-120.0,322.0,-105.0,-428.0,168,76,84,100,90
2025-02-26 14:58:01.977,116.0,71.0,-53.0,336.0,-136.0,-444.0,169,77,87,101,91
2025-02-26 14:58:01.982,428.0,-135.0,105.0,341.0,-161.0,-457.0,168,76,85,102,91
2025-02-26 14:58:01.988,583.0,-394.0,276.0,344.0,-172.0,-469.0,166,77,83,98,90
2025-02-26 14:58:01.993,931.0,-560.0,459.0,347.0,-199.0,-473.0,164,72,83,99,90
2025-02-26 14:58:01.994,1300.0,-901.0,521.0,344.0,-230.0,-478.0,170,79,89,103,93
2025-02-26 14:58:02.005,1803.0,-1414.0,827.0,333.0,-250.0,-466.0,168,77,87,103,94
2025-02-26 14:58:02.008,2199.0,-2205.0,1243.0,327.0,-250.0,-437.0,168,75,87,101,92
2025-02-26 14:58:02.014,2647.0,-3157.0,1959.0,302.0,-214.0,-386.0,171,76,89,101,95
2025-02-26 14:58:02.018,2818.0,-4131.0,2636.0,262.0,-180.0,-302.0,168,75,88,102,97
2025-02-26 14:58:02.024,2897.0,-5021.0,3147.0,196.0,-91.0,-184.0,167,74,89,100,94
2025-02-26 14:58:02.030,2916.0,-5257.0,3359.0,169.0,-2.0,-121.0,168,75,90,97,93
2025-02-26 14:58:02.036,2798.0,-5253.0,3337.0,126.0,78.0,-1.0,173,78,93,92,92
2025-02-26 14:58:02.042,2609.0,-4650.0,2952.0,100.0,135.0,102.0,168,75,92,96,95
2025-02-26 14:58:02.046,2217.0,-3900.0,2429.0,47.0,163.0,181.0,166,75,91,93,91
2025-02-26 14:58:02.054,1996.0,-2763.0,1916.0,-43.0,219.0,211.0,168,76,94,90,90
2025-02-26 14:58:02.058,1470.0,-2119.0,1544.0,-119.0,235.0,239.0,169,81,92,93,91
2025-02-26 14:58:02.062,997.0,-1201.0,1398.0,-204.0,198.0,235.0,164,76,92,93,90
2025-02-26 14:58:02.067,615.0,-778.0,1116.0,-245.0,131.0,221.0,166,76,91,92,88
2025-02-26 14:58:02.074,507.0,-692.0,713.0,-309.0,97.0,208.0,171,79,94,96,90
2025-02-26 14:58:02.078,408.0,-739.0,358.0,-347.0,35.0,202.0,165,78,89,95,88
2025-02-26 14:58:02.083,335.0,-741.0,266.0,-394.0,-4.0,194.0,169,77,91,98,92
2025-02-26 14:58:02.087,205.0,-822.0,35.0,-405.0,-18.0,184.0,165,77,89,96,92
2025-02-26 14:58:02.095,151.0,-910.0,-159.0,-412.0,-11.0,164.0,167,80,90,98,91
2025-02-26 14:58:02.097,23.0,-1000.0,-291.0,-377.0,8.0,152.0,167,78,89,101,94
2025-02-26 14:58:02.103,-90.0,-1221.0,-321.0,-345.0,32.0,133.0,168,78,88,101,94
2025-02-26 14:58:02.108,-99.0,-1381.0,-264.0,-315.0,39.0,118.0,166,78,88,102,94
2025-02-26 14:58:02.115,14.0,-1539.0,-197.0,-260.0,35.0,117.0,165,77,87,103,95
2025-02-26 14:58:02.119,14.0,-1513.0,-244.0,-218.0,33.0,121.0,165,75,86,102,93
2025-02-26 14:58:02.123,46.0,-1417.0,-183.0,-179.0,48.0,135.0,168,76,87,106,97
2025-02-26 14:58:02.131,207.0,-1473.0,-149.0,-163.0,65.0,146.0,166,77,87,105,95
2025-02-26 14:58:02.133,128.0,-1437.0,-69.0,-147.0,73.0,165.0,164,75,87,104,97
2025-02-26 14:58:02.141,128.0,-1241.0,-54.0,-125.0,88.0,175.0,166,75,84,105,97
2025-02-26 14:58:02.145,72.0,-1208.0,116.0,-117.0,92.0,194.0,166,81,88,108,101
2025-02-26 14:58:02.152,48.0,-1064.0,140.0,-126.0,88.0,202.0,165,78,89,109,100
2025-02-26 14:58:02.157,22.0,-795.0,10.0,-139.0,56.0,199.0,165,77,86,108,100
2025-02-26 14:58:02.161,-67.0,-611.0,118.0,-178.0,38.0,194.0,163,77,87,106,99
2025-02-26 14:58:02.169,-104.0,-566.0,261.0,-214.0,5.0,193.0,164,79,90,109,96
2025-02-26 14:58:02.172,-157.0,-453.0,293.0,-210.0,-24.0,193.0,165,79,91,108,100
2025-02-26 14:58:02.177,-120.0,-268.0,190.0,-208.0,-31.0,185.0,163,79,90,107,98
2025-02-26 14:58:02.181,-146.0,-217.0,-7.0,-205.0,-31.0,175.0,160,76,87,107,98
2025-02-26 14:58:02.193,-208.0,-149.0,29.0,-182.0,-15.0,171.0,161,78,89,106,96
