timestamp,ax,ay,az,gx,gy,gz,flex1,flex2,flex3,flex4,flex5,emg1,emg2,emg3
2025-02-26 14:03:08.450,-185.0,-937.0,291.0,-1.0,0.0,-2.0,142,114,108,117,116
2025-02-26 14:03:08.466,-179.0,-968.0,295.0,-1.0,-2.0,-2.0,143,115,107,116,116
2025-02-26 14:03:08.466,-183.0,-948.0,292.0,-1.0,-2.0,-2.0,145,117,106,118,118
2025-02-26 14:03:08.471,-176.0,-932.0,287.0,-1.0,-1.0,-2.0,143,116,106,118,117
2025-02-26 14:03:08.473,-174.0,-932.0,299.0,-1.0,1.0,-2.0,144,115,105,116,115
2025-02-26 14:03:08.475,-170.0,-967.0,296.0,-1.0,-1.0,-2.0,145,115,107,117,117
2025-02-26 14:03:08.477,-175.0,-952.0,303.0,-1.0,-2.0,-2.0,145,113,105,117,117
2025-02-26 14:03:08.478,-177.0,-964.0,290.0,-2.0,-2.0,-2.0,145,114,107,117,117
2025-02-26 14:03:08.478,-171.0,-959.0,285.0,-2.0,-1.0,-2.0,145,115,109,119,117
2025-02-26 14:03:08.478,-165.0,-950.0,301.0,-2.0,-1.0,-1.0,145,115,107,117,116
2025-02-26 14:03:08.478,-159.0,-968.0,306.0,-1.0,1.0,-2.0,143,114,107,116,116
2025-02-26 14:03:08.478,-169.0,-955.0,299.0,-1.0,0.0,-1.0,146,116,106,118,119
2025-02-26 14:03:08.478,-172.0,-970.0,300.0,-2.0,-1.0,-1.0,144,114,107,118,116
2025-02-26 14:03:08.491,-169.0,-971.0,297.0,-1.0,-1.0,-2.0,143,114,105,116,115
2025-02-26 14:03:08.493,-169.0,-951.0,296.0,-1.0,0.0,-1.0,147,115,107,117,117
2025-02-26 14:03:08.495,-167.0,-970.0,296.0,-1.0,1.0,-1.0,146,116,106,117,117
2025-02-26 14:03:08.497,-168.0,-967.0,299.0,-1.0,0.0,-1.0,144,116,107,117,116
2025-02-26 14:03:08.499,-174.0,-965.0,299.0,-1.0,0.0,-1.0,145,116,107,118,116
2025-02-26 14:03:08.502,-177.0,-963.0,295.0,-1.0,0.0,-1.0,143,115,107,117,115
2025-02-26 14:03:08.502,-175.0,-961.0,289.0,-1.0,0.0,-1.0,146,115,108,119,117
2025-02-26 14:03:08.506,-177.0,-966.0,297.0,-1.0,0.0,-1.0,144,117,106,118,120
2025-02-26 14:03:08.509,-172.0,-956.0,292.0,-1.0,0.0,-1.0,144,114,106,116,116
2025-02-26 14:03:08.511,-179.0,-957.0,292.0,-1.0,-1.0,-1.0,144,116,106,118,117
2025-02-26 14:03:08.513,-176.0,-954.0,297.0,-2.0,-1.0,-1.0,146,116,110,119,118
2025-02-26 14:03:08.515,-177.0,-953.0,292.0,-1.0,-1.0,-1.0,144,115,108,118,117
2025-02-26 14:03:08.517,-171.0,-952.0,294.0,-1.0,-1.0,0.0,144,115,106,117,116
2025-02-26 14:03:08.519,-171.0,-950.0,289.0,-1.0,-1.0,0.0,144,114,108,118,118
2025-02-26 14:03:08.522,-174.0,-947.0,291.0,-1.0,-1.0,0.0,147,114,109,119,118
2025-02-26 14:03:08.524,-174.0,-951.0,288.0,-1.0,-1.0,-1.0,145,115,105,117,117
2025-02-26 14:03:08.527,-174.0,-962.0,293.0,-2.0,-1.0,-1.0,145,114,106,117,117
2025-02-26 14:03:08.529,-175.0,-956.0,291.0,-1.0,-1.0,-1.0,143,115,106,117,116
2025-02-26 14:03:08.531,-172.0,-959.0,294.0,-1.0,-1.0,-1.0,146,116,109,119,117
2025-02-26 14:03:08.531,-175.0,-956.0,285.0,-1.0,-1.0,-1.0,144,116,108,120,118
2025-02-26 14:03:08.531,-176.0,-963.0,290.0,-1.0,-1.0,-1.0,144,114,106,117,115
2025-02-26 14:03:08.537,-167.0,-967.0,292.0,-1.0,-1.0,-1.0,145,116,108,117,117
2025-02-26 14:03:08.539,-173.0,-962.0,297.0,-1.0,-1.0,-1.0,147,116,107,118,118
2025-02-26 14:03:08.543,-172.0,-956.0,289.0,-1.0,-1.0,-1.0,147,115,108,117,117
2025-02-26 14:03:08.543,-172.0,-963.0,291.0,-1.0,-1.0,-1.0,144,115,107,117,114
2025-02-26 14:03:08.543,-171.0,-963.0,293.0,-1.0,-1.0,0.0,142,113,105,116,116
2025-02-26 14:03:08.548,-170.0,-964.0,294.0,-1.0,-1.0,0.0,146,116,102,118,118
2025-02-26 14:03:08.549,-172.0,-964.0,296.0,-2.0,-1.0,0.0,143,116,107,117,118
2025-02-26 14:03:08.549,-175.0,-1000.0,310.0,-2.0,-1.0,0.0,143,117,106,117,116
2025-02-26 14:03:08.555,-167.0,-998.0,284.0,-1.0,-2.0,0.0,144,116,106,116,116
2025-02-26 14:03:08.558,-194.0,-855.0,279.0,-1.0,0.0,2.0,144,114,106,118,118
2025-02-26 14:03:08.560,-156.0,-981.0,299.0,-2.0,1.0,1.0,146,116,105,118,117
2025-02-26 14:03:08.561,-168.0,-937.0,291.0,-1.0,0.0,-1.0,144,115,107,115,116
2025-02-26 14:03:08.561,-167.0,-990.0,315.0,-2.0,-3.0,-2.0,147,116,108,119,118
2025-02-26 14:03:08.567,-179.0,-986.0,296.0,-2.0,-6.0,-2.0,144,116,108,118,117
2025-02-26 14:03:08.568,-177.0,-890.0,289.0,-1.0,0.0,1.0,145,116,108,118,119
2025-02-26 14:03:08.568,-163.0,-932.0,301.0,-2.0,4.0,1.0,143,115,107,116,116
2025-02-26 14:03:08.573,-160.0,-982.0,304.0,-1.0,2.0,0.0,145,117,108,118,119
2025-02-26 14:03:08.576,-187.0,-941.0,322.0,0.0,-2.0,-1.0,147,117,108,117,117
2025-02-26 14:03:08.578,-170.0,-1007.0,287.0,-2.0,-4.0,-2.0,144,115,105,116,117
2025-02-26 14:03:08.580,-176.0,-891.0,255.0,-3.0,-3.0,-1.0,145,115,107,117,116
2025-02-26 14:03:08.580,-181.0,-899.0,326.0,-3.0,1.0,0.0,145,116,107,119,118
2025-02-26 14:03:08.586,-156.0,-988.0,320.0,-1.0,1.0,-1.0,145,115,110,119,118
2025-02-26 14:03:08.586,-190.0,-924.0,305.0,0.0,0.0,-1.0,144,116,106,117,116
2025-02-26 14:03:08.586,-180.0,-959.0,290.0,-2.0,-2.0,-2.0,144,113,104,116,116
2025-02-26 14:03:08.592,-185.0,-957.0,276.0,-2.0,-3.0,-1.0,146,117,108,118,117
2025-02-26 14:03:08.594,-179.0,-925.0,308.0,-1.0,1.0,-1.0,145,115,107,117,117
2025-02-26 14:03:08.598,-162.0,-969.0,295.0,-1.0,2.0,-1.0,145,115,106,117,116
2025-02-26 14:03:08.598,-178.0,-955.0,311.0,-2.0,-1.0,-1.0,145,115,106,117,116
2025-02-26 14:03:08.603,-182.0,-964.0,313.0,-2.0,-2.0,-1.0,146,117,108,117,118
2025-02-26 14:03:08.605,-171.0,-959.0,294.0,-2.0,-1.0,-1.0,146,114,107,117,118
2025-02-26 14:03:08.607,-182.0,-938.0,298.0,-1.0,1.0,0.0,145,120,107,116,117
2025-02-26 14:03:08.609,-170.0,-953.0,303.0,-1.0,2.0,0.0,145,116,108,118,117
2025-02-26 14:03:08.611,-168.0,-959.0,299.0,0.0,1.0,-1.0,145,117,108,120,116
2025-02-26 14:03:08.613,-185.0,-961.0,292.0,-1.0,-1.0,-1.0,146,117,107,118,115
2025-02-26 14:03:08.615,-178.0,-963.0,293.0,-2.0,-2.0,-1.0,143,116,106,120,116
2025-02-26 14:03:08.618,-180.0,-944.0,294.0,-2.0,-1.0,-1.0,144,114,105,116,117
2025-02-26 14:03:08.620,-166.0,-939.0,293.0,-2.0,2.0,-1.0,145,116,106,116,118
2025-02-26 14:03:08.622,-174.0,-948.0,296.0,-1.0,1.0,-1.0,142,118,107,117,116
2025-02-26 14:03:08.622,-179.0,-958.0,304.0,-1.0,0.0,-2.0,144,116,108,117,116
2025-02-26 14:03:08.622,-171.0,-967.0,287.0,-1.0,-1.0,-2.0,143,115,106,117,117
2025-02-26 14:03:08.628,-178.0,-952.0,283.0,-2.0,0.0,-1.0,145,116,108,117,119
2025-02-26 14:03:08.630,-172.0,-955.0,295.0,-2.0,1.0,-2.0,145,114,107,118,117
2025-02-26 14:03:08.634,-171.0,-952.0,303.0,-1.0,1.0,-2.0,143,114,106,117,116
2025-02-26 14:03:08.639,-176.0,-955.0,293.0,-1.0,0.0,-2.0,144,113,107,119,116
2025-02-26 14:03:08.646,-171.0,-964.0,293.0,-3.0,-1.0,-1.0,144,116,108,119,119
2025-02-26 14:03:08.650,-180.0,-964.0,291.0,-2.0,-1.0,-1.0,145,111,106,117,117
2025-02-26 14:03:08.652,-182.0,-955.0,299.0,-1.0,0.0,-1.0,146,115,107,116,116
2025-02-26 14:03:08.662,-169.0,-961.0,285.0,-1.0,1.0,-1.0,146,116,107,119,117
2025-02-26 14:03:08.664,-177.0,-954.0,288.0,-1.0,0.0,-1.0,146,118,106,117,117
2025-02-26 14:03:08.671,-173.0,-955.0,293.0,-2.0,0.0,-1.0,144,116,105,119,116
2025-02-26 14:03:08.676,-176.0,-963.0,289.0,-2.0,-1.0,-1.0,145,116,107,118,116
2025-02-26 14:03:08.683,-175.0,-958.0,290.0,-2.0,-1.0,-1.0,144,115,108,117,116
2025-02-26 14:03:08.683,-173.0,-954.0,291.0,-1.0,0.0,-1.0,146,115,106,119,117
2025-02-26 14:03:08.689,-170.0,-948.0,290.0,-1.0,0.0,-1.0,145,116,107,117,117
2025-02-26 14:03:08.696,-170.0,-958.0,286.0,-2.0,0.0,-1.0,148,116,107,117,116
2025-02-26 14:03:08.701,-172.0,-960.0,287.0,-1.0,0.0,-1.0,144,115,106,116,117
2025-02-26 14:03:08.707,-174.0,-966.0,290.0,-1.0,0.0,-1.0,146,116,107,119,117
2025-02-26 14:03:08.711,-177.0,-958.0,282.0,-1.0,0.0,-1.0,146,116,110,117,116
2025-02-26 14:03:08.714,-177.0,-960.0,284.0,-1.0,0.0,-1.0,144,115,107,116,116
2025-02-26 14:03:08.724,-178.0,-961.0,286.0,-1.0,0.0,-1.0,150,116,108,117,118
2025-02-26 14:03:08.725,-178.0,-966.0,286.0,-1.0,-1.0,-1.0,145,115,109,117,118
2025-02-26 14:03:08.732,-182.0,-960.0,284.0,-1.0,-1.0,-1.0,146,116,108,117,117
2025-02-26 14:03:08.736,-180.0,-956.0,289.0,-1.0,-1.0,0.0,144,114,107,116,116
2025-02-26 14:03:08.744,-177.0,-959.0,287.0,-1.0,-1.0,-1.0,145,116,107,117,117
2025-02-26 14:03:08.748,-172.0,-960.0,288.0,-1.0,-1.0,-1.0,145,116,107,119,117
2025-02-26 14:03:08.750,-170.0,-962.0,292.0,-1.0,-2.0,-1.0,144,115,107,118,117
2025-02-26 14:03:08.760,-171.0,-955.0,291.0,-1.0,-1.0,-1.0,143,116,106,116,116
2025-02-26 14:03:08.765,-166.0,-957.0,293.0,-1.0,-1.0,-1.0,144,116,106,116,117
2025-02-26 14:03:08.770,-167.0,-962.0,295.0,-1.0,-1.0,-1.0,146,117,108,118,118
2025-02-26 14:03:08.774,-164.0,-959.0,295.0,-1.0,-1.0,-1.0,147,117,107,117,117
2025-02-26 14:03:08.781,-162.0,-959.0,290.0,-2.0,-1.0,-1.0,146,116,107,117,118
2025-02-26 14:03:08.786,-168.0,-950.0,293.0,-1.0,-1.0,0.0,145,116,106,117,114
2025-02-26 14:03:08.786,-164.0,-961.0,295.0,-1.0,-1.0,-1.0,144,115,107,118,117
2025-02-26 14:03:08.792,-167.0,-959.0,294.0,-1.0,-1.0,0.0,147,116,107,118,117
2025-02-26 14:03:08.802,-175.0,-962.0,295.0,-1.0,-1.0,0.0,145,116,108,121,117
2025-02-26 14:03:08.804,-176.0,-955.0,295.0,-1.0,-1.0,0.0,144,117,108,117,116
2025-02-26 14:03:08.810,-179.0,-958.0,292.0,-1.0,-1.0,0.0,146,116,106,117,117
2025-02-26 14:03:08.815,-184.0,-953.0,293.0,0.0,-1.0,0.0,144,117,108,118,117
2025-02-26 14:03:08.822,-184.0,-955.0,290.0,0.0,0.0,0.0,145,116,107,118,119
2025-02-26 14:03:08.822,-185.0,-949.0,288.0,0.0,-1.0,-1.0,144,115,106,117,117
2025-02-26 14:03:08.828,-188.0,-951.0,292.0,0.0,-1.0,0.0,145,116,108,118,116
2025-02-26 14:03:08.835,-184.0,-945.0,290.0,0.0,-1.0,-1.0,145,114,107,118,119
2025-02-26 14:03:08.842,-181.0,-945.0,292.0,-1.0,-1.0,-1.0,145,118,106,116,117
2025-02-26 14:03:08.847,-185.0,-946.0,296.0,-1.0,-1.0,-1.0,144,114,107,118,117
2025-02-26 14:03:08.851,-180.0,-950.0,291.0,-1.0,-1.0,-1.0,145,116,107,115,117
2025-02-26 14:03:08.852,-177.0,-947.0,293.0,-1.0,-1.0,-1.0,144,116,107,117,117
2025-02-26 14:03:08.863,-180.0,-946.0,294.0,-1.0,-1.0,-1.0,146,116,106,121,115
2025-02-26 14:03:08.864,-175.0,-950.0,295.0,-2.0,-1.0,-1.0,143,115,105,117,117
2025-02-26 14:03:08.872,-174.0,-951.0,295.0,-1.0,-1.0,-2.0,146,117,107,118,116
2025-02-26 14:03:08.877,-173.0,-961.0,294.0,-1.0,-1.0,-2.0,145,115,107,117,118
2025-02-26 14:03:08.884,-175.0,-960.0,294.0,-1.0,-1.0,-2.0,141,116,107,118,117
2025-02-26 14:03:08.888,-170.0,-962.0,293.0,-1.0,-1.0,-2.0,144,115,106,115,116
2025-02-26 14:03:08.893,-170.0,-961.0,298.0,-2.0,-1.0,-2.0,147,117,109,118,117
2025-02-26 14:03:08.894,-170.0,-961.0,294.0,-1.0,-1.0,-1.0,146,118,109,118,118
2025-02-26 14:03:08.902,-173.0,-963.0,294.0,-1.0,-1.0,-1.0,144,116,106,118,118
2025-02-26 14:03:08.909,-171.0,-963.0,296.0,-1.0,-1.0,-1.0,144,114,106,117,117
2025-02-26 14:03:08.915,-172.0,-970.0,289.0,-1.0,-1.0,-1.0,145,115,108,119,117
2025-02-26 14:03:08.921,-172.0,-964.0,288.0,-1.0,-1.0,0.0,147,117,109,118,119
2025-02-26 14:03:08.925,-166.0,-963.0,291.0,-1.0,-1.0,0.0,144,117,108,117,117
2025-02-26 14:03:08.925,-173.0,-971.0,288.0,-1.0,-1.0,0.0,143,115,107,118,116
2025-02-26 14:03:08.936,-174.0,-970.0,290.0,-1.0,-1.0,0.0,144,116,106,118,117
2025-02-26 14:03:08.937,-176.0,-964.0,289.0,-1.0,-1.0,0.0,146,117,108,120,118
2025-02-26 14:03:08.945,-175.0,-961.0,292.0,-1.0,-1.0,0.0,144,114,107,118,114
2025-02-26 14:03:08.949,-171.0,-959.0,288.0,-1.0,-1.0,0.0,145,115,106,117,116
2025-02-26 14:03:08.958,-172.0,-955.0,288.0,-1.0,-1.0,0.0,145,115,108,119,117
2025-02-26 14:03:08.962,-173.0,-954.0,289.0,-1.0,-1.0,0.0,146,117,108,119,118
2025-02-26 14:03:08.966,-175.0,-956.0,294.0,-1.0,-1.0,0.0,142,114,107,121,118
2025-02-26 14:03:08.970,-180.0,-944.0,289.0,-2.0,-1.0,0.0,143,114,107,117,117
2025-02-26 14:03:08.974,-178.0,-952.0,293.0,0.0,-1.0,0.0,146,116,108,117,117
2025-02-26 14:03:08.980,-169.0,-944.0,291.0,-1.0,-1.0,0.0,146,116,106,117,117
2025-02-26 14:03:08.987,-174.0,-945.0,293.0,-1.0,-1.0,-1.0,146,116,108,117,117
2025-02-26 14:03:08.991,-176.0,-949.0,291.0,-1.0,-1.0,-1.0,142,114,106,116,115
2025-02-26 14:03:08.997,-174.0,-939.0,293.0,-1.0,-1.0,-1.0,146,116,107,116,117
2025-02-26 14:03:09.003,-175.0,-940.0,291.0,0.0,-1.0,-1.0,145,116,107,119,118
2025-02-26 14:03:09.007,-181.0,-940.0,296.0,-1.0,-1.0,-1.0,145,115,104,118,116
2025-02-26 14:03:09.010,-179.0,-943.0,291.0,0.0,-1.0,-2.0,145,113,105,118,118
2025-02-26 14:03:09.016,-179.0,-943.0,289.0,0.0,-1.0,-2.0,145,115,109,118,117
2025-02-26 14:03:09.023,-182.0,-943.0,292.0,-1.0,-1.0,-2.0,145,118,106,118,118
2025-02-26 14:03:09.028,-186.0,-938.0,291.0,-1.0,-2.0,-2.0,145,115,106,116,117
2025-02-26 14:03:09.035,-179.0,-941.0,297.0,-1.0,-1.0,-2.0,145,117,108,117,116
2025-02-26 14:03:09.046,-184.0,-944.0,298.0,-1.0,-1.0,-2.0,146,115,107,118,118
2025-02-26 14:03:09.046,-179.0,-945.0,300.0,-1.0,-2.0,-3.0,145,115,107,118,118
2025-02-26 14:03:09.051,-178.0,-944.0,299.0,-2.0,-2.0,-3.0,145,115,107,118,117
2025-02-26 14:03:09.052,-181.0,-944.0,310.0,-2.0,-1.0,-3.0,144,113,107,117,116
2025-02-26 14:03:09.060,-172.0,-946.0,311.0,-1.0,-1.0,-3.0,147,118,108,119,118
2025-02-26 14:03:09.064,-170.0,-944.0,312.0,-1.0,-1.0,-3.0,145,116,108,119,118
2025-02-26 14:03:09.068,-170.0,-946.0,310.0,-1.0,-1.0,-3.0,144,115,108,116,116
2025-02-26 14:03:09.076,-171.0,-937.0,306.0,-1.0,-1.0,-3.0,145,116,105,118,115
2025-02-26 14:03:09.081,-176.0,-939.0,306.0,-1.0,0.0,-3.0,144,113,106,117,117
2025-02-26 14:03:09.085,-177.0,-927.0,311.0,0.0,0.0,-3.0,145,115,106,118,117
2025-02-26 14:03:09.089,-176.0,-935.0,306.0,0.0,-1.0,-4.0,144,115,106,115,116
2025-02-26 14:03:09.095,-182.0,-926.0,321.0,0.0,1.0,-4.0,140,114,105,115,117
2025-02-26 14:03:09.101,-173.0,-927.0,303.0,-1.0,1.0,-5.0,145,117,109,120,118
2025-02-26 14:03:09.106,-178.0,-921.0,306.0,-1.0,1.0,-5.0,147,117,108,118,117
2025-02-26 14:03:09.109,-166.0,-919.0,303.0,0.0,1.0,-6.0,147,118,107,117,119
2025-02-26 14:03:09.115,-165.0,-927.0,305.0,-1.0,1.0,-6.0,145,116,108,119,116
2025-02-26 14:03:09.121,-171.0,-929.0,295.0,-1.0,1.0,-7.0,143,117,109,118,117
2025-02-26 14:03:09.125,-171.0,-941.0,303.0,-2.0,0.0,-8.0,143,117,108,118,117
2025-02-26 14:03:09.130,-176.0,-960.0,301.0,-1.0,0.0,-8.0,143,114,105,118,116
2025-02-26 14:03:09.131,-175.0,-967.0,297.0,-1.0,1.0,-8.0,143,115,107,116,116
2025-02-26 14:03:09.142,-177.0,-979.0,301.0,-1.0,0.0,-8.0,144,117,107,118,118
2025-02-26 14:03:09.146,-187.0,-998.0,305.0,0.0,0.0,-7.0,144,116,107,119,119
2025-02-26 14:03:09.149,-185.0,-1016.0,306.0,0.0,-1.0,-6.0,142,115,105,117,117
2025-02-26 14:03:09.158,-186.0,-1018.0,309.0,0.0,-1.0,-6.0,145,115,105,116,116
2025-02-26 14:03:09.161,-181.0,-1023.0,309.0,0.0,-1.0,-4.0,142,117,110,121,118
2025-02-26 14:03:09.161,-168.0,-1023.0,306.0,1.0,-1.0,-3.0,147,115,108,118,118
2025-02-26 14:03:09.174,-163.0,-1018.0,310.0,0.0,0.0,-1.0,144,115,106,116,112
2025-02-26 14:03:09.179,-155.0,-1007.0,310.0,0.0,0.0,0.0,144,114,106,117,118
2025-02-26 14:03:09.182,-145.0,-1004.0,304.0,0.0,1.0,1.0,147,116,107,117,119
2025-02-26 14:03:09.186,-140.0,-991.0,296.0,-1.0,1.0,2.0,144,116,107,118,116
2025-02-26 14:03:09.192,-139.0,-980.0,292.0,-2.0,1.0,2.0,145,116,107,117,117
2025-02-26 14:03:09.199,-133.0,-975.0,285.0,-2.0,1.0,2.0,145,117,109,118,118
2025-02-26 14:03:09.203,-133.0,-967.0,283.0,-3.0,1.0,2.0,145,117,109,118,118
2025-02-26 14:03:09.204,-138.0,-957.0,276.0,-3.0,1.0,2.0,144,114,106,117,117
2025-02-26 14:03:09.212,-145.0,-958.0,270.0,-3.0,2.0,2.0,146,115,104,117,116
2025-02-26 14:03:09.216,-151.0,-957.0,270.0,-2.0,2.0,1.0,145,117,108,120,119
2025-02-26 14:03:09.222,-164.0,-959.0,270.0,-1.0,2.0,0.0,146,116,106,117,117
2025-02-26 14:03:09.228,-172.0,-958.0,269.0,-1.0,2.0,0.0,145,115,107,116,116
2025-02-26 14:03:09.232,-175.0,-960.0,261.0,0.0,2.0,-1.0,145,116,107,118,118
2025-02-26 14:03:09.240,-187.0,-961.0,265.0,-1.0,1.0,0.0,145,115,109,119,119
2025-02-26 14:03:09.245,-187.0,-963.0,268.0,-1.0,1.0,0.0,145,116,107,116,117
2025-02-26 14:03:09.248,-189.0,-970.0,274.0,-1.0,0.0,0.0,143,116,107,116,116
2025-02-26 14:03:09.253,-182.0,-972.0,276.0,-2.0,-1.0,1.0,146,116,107,116,116
2025-02-26 14:03:09.261,-178.0,-973.0,277.0,-2.0,-1.0,1.0,147,117,110,117,118
2025-02-26 14:03:09.265,-178.0,-983.0,281.0,-3.0,-1.0,2.0,145,115,106,117,117
2025-02-26 14:03:09.269,-172.0,-984.0,294.0,-3.0,-2.0,2.0,145,114,107,118,117
2025-02-26 14:03:09.273,-162.0,-989.0,293.0,-3.0,-3.0,2.0,146,117,105,118,117
2025-02-26 14:03:09.281,-159.0,-987.0,296.0,-3.0,-3.0,3.0,146,118,108,119,118
2025-02-26 14:03:09.283,-154.0,-990.0,296.0,-4.0,-4.0,4.0,145,115,106,118,117
2025-02-26 14:03:09.290,-149.0,-992.0,303.0,-4.0,-4.0,4.0,145,116,108,119,119
2025-02-26 14:03:09.294,-145.0,-992.0,303.0,-5.0,-4.0,5.0,146,118,106,119,117
2025-02-26 14:03:09.301,-146.0,-991.0,303.0,-5.0,-4.0,5.0,146,116,106,118,117
2025-02-26 14:03:09.301,-146.0,-991.0,305.0,-4.0,-4.0,5.0,145,116,107,117,116
2025-02-26 14:03:09.310,-146.0,-984.0,306.0,-4.0,-3.0,6.0,146,117,108,117,116
2025-02-26 14:03:09.313,-146.0,-980.0,301.0,-4.0,-3.0,7.0,143,116,106,117,119
2025-02-26 14:03:09.319,-152.0,-976.0,300.0,-4.0,-2.0,7.0,146,115,105,116,117
2025-02-26 14:03:09.327,-157.0,-972.0,297.0,-4.0,-2.0,7.0,144,115,107,119,116
2025-02-26 14:03:09.331,-158.0,-967.0,296.0,-4.0,-2.0,8.0,139,114,107,112,117
2025-02-26 14:03:09.335,-162.0,-959.0,292.0,-3.0,-1.0,8.0,145,115,108,118,117
2025-02-26 14:03:09.343,-173.0,-955.0,290.0,-3.0,-1.0,8.0,147,117,110,118,117
2025-02-26 14:03:09.347,-173.0,-951.0,283.0,-3.0,0.0,8.0,146,113,107,116,117
2025-02-26 14:03:09.351,-185.0,-937.0,282.0,-2.0,0.0,8.0,142,117,108,118,117
2025-02-26 14:03:09.355,-190.0,-934.0,279.0,-1.0,0.0,7.0,146,116,106,116,119
2025-02-26 14:03:09.362,-194.0,-917.0,270.0,-1.0,0.0,6.0,138,114,105,119,116
2025-02-26 14:03:09.367,-202.0,-911.0,265.0,-1.0,1.0,6.0,148,114,107,118,117
2025-02-26 14:03:09.367,-209.0,-904.0,266.0,0.0,1.0,5.0,147,116,113,118,116
2025-02-26 14:03:09.374,-211.0,-894.0,267.0,0.0,1.0,3.0,144,117,107,117,117
2025-02-26 14:03:09.384,-214.0,-892.0,263.0,0.0,0.0,3.0,151,117,108,115,117
2025-02-26 14:03:09.386,-216.0,-886.0,258.0,0.0,-1.0,1.0,144,116,106,119,117
2025-02-26 14:03:09.392,-223.0,-880.0,267.0,0.0,-1.0,0.0,148,113,107,120,116
2025-02-26 14:03:09.397,-226.0,-885.0,266.0,0.0,-1.0,0.0,144,116,107,117,116
2025-02-26 14:03:09.404,-225.0,-890.0,270.0,-1.0,-2.0,-1.0,147,117,103,119,118
2025-02-26 14:03:09.408,-227.0,-887.0,273.0,0.0,-2.0,-3.0,144,115,109,118,118
2025-02-26 14:03:09.413,-224.0,-889.0,274.0,0.0,-3.0,-4.0,146,114,107,117,116
2025-02-26 14:03:09.417,-224.0,-895.0,285.0,0.0,-3.0,-4.0,145,115,105,115,117
2025-02-26 14:03:09.424,-213.0,-896.0,287.0,0.0,-3.0,-6.0,145,115,107,118,117
2025-02-26 14:03:09.429,-206.0,-902.0,288.0,0.0,-4.0,-6.0,144,116,106,117,117
2025-02-26 14:03:09.433,-208.0,-908.0,293.0,0.0,-4.0,-7.0,143,114,107,116,117
2025-02-26 14:03:09.438,-201.0,-916.0,294.0,1.0,-3.0,-8.0,146,117,107,118,118
2025-02-26 14:03:09.445,-192.0,-925.0,297.0,1.0,-3.0,-8.0,148,115,107,117,117
2025-02-26 14:03:09.449,-187.0,-941.0,297.0,1.0,-3.0,-9.0,144,115,106,117,117
2025-02-26 14:03:09.454,-187.0,-952.0,301.0,1.0,-3.0,-9.0,145,117,107,116,116
2025-02-26 14:03:09.458,-177.0,-955.0,303.0,2.0,-3.0,-9.0,146,117,108,119,120
2025-02-26 14:03:09.465,-177.0,-968.0,303.0,2.0,-2.0,-8.0,145,115,106,117,117
2025-02-26 14:03:09.469,-171.0,-972.0,310.0,3.0,-2.0,-8.0,145,115,107,118,117
2025-02-26 14:03:09.470,-173.0,-976.0,310.0,3.0,-2.0,-8.0,145,114,106,116,116
2025-02-26 14:03:09.478,-165.0,-980.0,309.0,4.0,-2.0,-8.0,146,116,110,119,118
2025-02-26 14:03:09.485,-159.0,-977.0,308.0,4.0,-1.0,-7.0,144,116,107,115,118
2025-02-26 14:03:09.490,-156.0,-980.0,311.0,4.0,-1.0,-7.0,146,114,107,117,117
2025-02-26 14:03:09.494,-151.0,-983.0,309.0,3.0,-1.0,-6.0,147,116,108,116,117
2025-02-26 14:03:09.495,-149.0,-990.0,310.0,3.0,0.0,-6.0,146,117,108,119,119
2025-02-26 14:03:09.506,-142.0,-985.0,307.0,3.0,0.0,-5.0,146,115,108,118,118
2025-02-26 14:03:09.509,-142.0,-989.0,310.0,2.0,0.0,-4.0,143,115,107,117,116
2025-02-26 14:03:09.513,-146.0,-993.0,311.0,2.0,0.0,-4.0,141,112,104,116,116
2025-02-26 14:03:09.519,-149.0,-997.0,307.0,1.0,0.0,-3.0,143,117,107,120,117
2025-02-26 14:03:09.526,-148.0,-998.0,306.0,1.0,0.0,-3.0,144,115,107,118,117
2025-02-26 14:03:09.531,-146.0,-1000.0,304.0,1.0,0.0,-2.0,144,116,106,117,117
2025-02-26 14:03:09.534,-148.0,-995.0,305.0,0.0,0.0,-2.0,145,116,106,118,117
2025-02-26 14:03:09.539,-153.0,-1000.0,306.0,0.0,0.0,-1.0,146,117,107,119,118
2025-02-26 14:03:09.543,-156.0,-993.0,300.0,-1.0,0.0,0.0,146,115,106,117,118
2025-02-26 14:03:09.551,-162.0,-994.0,301.0,-1.0,-1.0,0.0,141,113,106,117,115
2025-02-26 14:03:09.556,-159.0,-985.0,301.0,-1.0,0.0,1.0,144,116,107,117,116
2025-02-26 14:03:09.560,-163.0,-979.0,294.0,-1.0,0.0,2.0,145,115,107,114,118
2025-02-26 14:03:09.565,-164.0,-970.0,300.0,-2.0,0.0,2.0,145,116,103,121,116
2025-02-26 14:03:09.568,-165.0,-975.0,300.0,-2.0,0.0,2.0,148,123,108,117,115
2025-02-26 14:03:09.577,-167.0,-970.0,296.0,-2.0,-1.0,2.0,145,116,109,119,118
2025-02-26 14:03:09.579,-170.0,-961.0,297.0,-2.0,0.0,2.0,143,117,106,117,117
2025-02-26 14:03:09.585,-173.0,-961.0,296.0,-2.0,0.0,2.0,146,115,106,116,117
2025-02-26 14:03:09.593,-170.0,-951.0,296.0,-1.0,0.0,2.0,146,118,108,121,117
2025-02-26 14:03:09.597,-175.0,-952.0,295.0,-1.0,0.0,2.0,144,115,107,118,117
2025-02-26 14:03:09.601,-174.0,-950.0,292.0,0.0,0.0,2.0,144,115,106,118,116
2025-02-26 14:03:09.605,-176.0,-954.0,296.0,0.0,0.0,2.0,147,115,107,119,118
2025-02-26 14:03:09.613,-181.0,-949.0,296.0,0.0,0.0,2.0,141,117,109,114,116
2025-02-26 14:03:09.617,-181.0,-945.0,298.0,0.0,0.0,1.0,144,114,107,117,117
2025-02-26 14:03:09.622,-183.0,-941.0,299.0,-1.0,-1.0,1.0,144,111,107,120,114
2025-02-26 14:03:09.626,-185.0,-939.0,302.0,-1.0,0.0,1.0,146,117,107,116,117
2025-02-26 14:03:09.628,-183.0,-941.0,299.0,-1.0,0.0,1.0,146,115,106,116,116
2025-02-26 14:03:09.638,-182.0,-938.0,299.0,-1.0,-1.0,1.0,145,114,106,117,117
2025-02-26 14:03:09.640,-183.0,-944.0,298.0,-2.0,-1.0,1.0,145,111,107,117,119
2025-02-26 14:03:09.646,-185.0,-941.0,302.0,-2.0,-1.0,1.0,145,116,108,118,117
2025-02-26 14:03:09.654,-183.0,-935.0,303.0,-2.0,-1.0,1.0,146,115,105,115,116
2025-02-26 14:03:09.657,-178.0,-936.0,305.0,-2.0,-1.0,1.0,143,115,108,118,116
2025-02-26 14:03:09.662,-179.0,-939.0,305.0,-2.0,-1.0,0.0,145,116,107,118,117
2025-02-26 14:03:09.664,-179.0,-940.0,308.0,-2.0,-1.0,0.0,146,117,107,117,118
2025-02-26 14:03:09.674,-179.0,-942.0,303.0,-2.0,-1.0,-1.0,144,116,106,117,117
2025-02-26 14:03:09.678,-180.0,-939.0,300.0,-2.0,-1.0,-1.0,144,115,107,119,118
2025-02-26 14:03:09.683,-181.0,-942.0,299.0,-2.0,0.0,-1.0,146,118,109,119,117
2025-02-26 14:03:09.688,-185.0,-942.0,301.0,-2.0,0.0,-1.0,144,115,107,118,117
2025-02-26 14:03:09.695,-181.0,-959.0,297.0,-1.0,0.0,-1.0,145,115,106,118,118
2025-02-26 14:03:09.695,-187.0,-951.0,296.0,-1.0,0.0,-1.0,147,116,106,118,117
2025-02-26 14:03:09.703,-187.0,-963.0,296.0,-1.0,0.0,-1.0,146,115,107,119,118
2025-02-26 14:03:09.707,-185.0,-954.0,290.0,-1.0,0.0,-1.0,146,115,108,118,119
2025-02-26 14:03:09.713,-182.0,-953.0,292.0,-1.0,0.0,-1.0,146,114,107,117,117
2025-02-26 14:03:09.719,-180.0,-959.0,288.0,-1.0,0.0,-1.0,145,115,106,116,118
2025-02-26 14:03:09.724,-180.0,-953.0,290.0,-1.0,0.0,-1.0,145,117,108,118,117
2025-02-26 14:03:09.728,-179.0,-960.0,291.0,0.0,-1.0,-1.0,146,115,107,116,117
2025-02-26 14:03:09.734,-177.0,-957.0,289.0,-1.0,-1.0,-1.0,146,115,106,118,116
2025-02-26 14:03:09.737,-176.0,-955.0,291.0,-1.0,-1.0,-1.0,144,116,107,119,118
2025-02-26 14:03:09.744,-167.0,-956.0,289.0,-1.0,0.0,-1.0,146,118,108,119,118
2025-02-26 14:03:09.748,-168.0,-955.0,291.0,0.0,0.0,-1.0,145,115,108,117,118
2025-02-26 14:03:09.756,-167.0,-965.0,291.0,-1.0,-1.0,-1.0,144,117,107,117,116
2025-02-26 14:03:09.760,-166.0,-962.0,290.0,-1.0,-1.0,-1.0,144,115,108,118,118
2025-02-26 14:03:09.762,-174.0,-964.0,291.0,-1.0,-1.0,-1.0,145,116,108,117,118
2025-02-26 14:03:09.772,-168.0,-964.0,287.0,-1.0,-1.0,-1.0,147,113,109,115,117
2025-02-26 14:03:09.774,-170.0,-957.0,286.0,-1.0,0.0,-1.0,144,115,107,117,117
2025-02-26 14:03:09.781,-176.0,-959.0,282.0,-1.0,-1.0,0.0,143,114,101,121,117
2025-02-26 14:03:09.785,-182.0,-961.0,283.0,-1.0,-1.0,0.0,145,117,108,121,118
2025-02-26 14:03:09.793,-181.0,-961.0,280.0,-1.0,-1.0,-1.0,146,116,111,119,119
2025-02-26 14:03:09.797,-184.0,-960.0,282.0,0.0,-2.0,0.0,144,116,105,118,116
2025-02-26 14:03:09.802,-185.0,-956.0,279.0,0.0,-2.0,0.0,145,117,107,117,117
2025-02-26 14:03:09.805,-189.0,-955.0,278.0,0.0,-2.0,0.0,145,118,108,119,118
2025-02-26 14:03:09.810,-191.0,-957.0,282.0,0.0,-2.0,-1.0,144,115,107,117,116
2025-02-26 14:03:09.818,-189.0,-954.0,283.0,1.0,-3.0,0.0,144,114,107,118,116
2025-02-26 14:03:09.822,-187.0,-952.0,283.0,2.0,-3.0,-1.0,145,118,108,118,117
2025-02-26 14:03:09.822,-186.0,-948.0,288.0,2.0,-3.0,-1.0,145,116,107,118,117
2025-02-26 14:03:09.834,-184.0,-948.0,286.0,2.0,-3.0,-1.0,144,115,107,118,116
2025-02-26 14:03:09.838,-179.0,-946.0,295.0,2.0,-2.0,-1.0,145,116,107,116,116
2025-02-26 14:03:09.843,-175.0,-942.0,291.0,2.0,-3.0,-1.0,144,117,107,118,117
2025-02-26 14:03:09.846,-176.0,-943.0,295.0,1.0,-3.0,-2.0,144,116,106,117,117
2025-02-26 14:03:09.853,-172.0,-945.0,291.0,1.0,-3.0,-2.0,145,116,107,119,117
2025-02-26 14:03:09.859,-168.0,-949.0,299.0,1.0,-3.0,-2.0,145,116,108,119,117
2025-02-26 14:03:09.863,-169.0,-956.0,301.0,1.0,-3.0,-2.0,145,116,107,118,116
2025-02-26 14:03:09.865,-176.0,-953.0,300.0,1.0,-2.0,-2.0,145,117,107,117,117
2025-02-26 14:03:09.875,-169.0,-956.0,303.0,0.0,-3.0,-2.0,144,115,106,116,116
2025-02-26 14:03:09.877,-175.0,-966.0,309.0,0.0,-3.0,-2.0,146,116,108,118,118
2025-02-26 14:03:09.883,-177.0,-966.0,306.0,0.0,-3.0,-1.0,145,114,108,119,117
2025-02-26 14:03:09.887,-181.0,-971.0,302.0,0.0,-3.0,-1.0,145,116,107,118,117
2025-02-26 14:03:09.895,-175.0,-972.0,304.0,0.0,-3.0,0.0,143,115,108,116,116
2025-02-26 14:03:09.900,-176.0,-972.0,310.0,0.0,-2.0,0.0,146,117,107,121,118
2025-02-26 14:03:09.904,-173.0,-965.0,308.0,0.0,-2.0,0.0,146,118,108,117,119
2025-02-26 14:03:09.908,-175.0,-958.0,310.0,0.0,-1.0,0.0,144,115,106,116,117
2025-02-26 14:03:09.916,-172.0,-953.0,306.0,0.0,-1.0,0.0,145,114,107,119,116
2025-02-26 14:03:09.920,-173.0,-943.0,306.0,1.0,-1.0,0.0,146,117,108,118,118
2025-02-26 14:03:09.924,-177.0,-932.0,302.0,1.0,-1.0,0.0,145,115,107,119,118
2025-02-26 14:03:09.925,-176.0,-927.0,299.0,2.0,-1.0,-1.0,144,114,105,117,116
2025-02-26 14:03:09.933,-184.0,-930.0,298.0,2.0,-1.0,-1.0,144,115,107,117,116
2025-02-26 14:03:09.937,-182.0,-925.0,297.0,3.0,-1.0,-2.0,146,117,106,118,118
2025-02-26 14:03:09.944,-184.0,-925.0,301.0,3.0,-1.0,-3.0,143,116,108,117,117
2025-02-26 14:03:09.949,-188.0,-929.0,296.0,3.0,-1.0,-3.0,145,115,107,120,116
2025-02-26 14:03:09.955,-188.0,-928.0,300.0,3.0,-1.0,-4.0,145,116,107,118,117
2025-02-26 14:03:09.961,-182.0,-931.0,302.0,3.0,-1.0,-4.0,146,117,104,119,118
2025-02-26 14:03:09.965,-182.0,-939.0,307.0,3.0,-1.0,-4.0,142,115,107,118,116
2025-02-26 14:03:09.969,-183.0,-943.0,307.0,3.0,-1.0,-4.0,144,114,105,117,116
2025-02-26 14:03:09.974,-177.0,-948.0,309.0,3.0,-1.0,-5.0,146,120,106,117,117
2025-02-26 14:03:09.982,-177.0,-947.0,303.0,2.0,-1.0,-5.0,144,116,107,116,118
2025-02-26 14:03:09.986,-175.0,-953.0,309.0,2.0,-1.0,-5.0,146,114,107,117,117
2025-02-26 14:03:09.986,-176.0,-959.0,311.0,2.0,-1.0,-5.0,143,120,106,117,116
2025-02-26 14:03:09.997,-173.0,-958.0,306.0,1.0,-1.0,-5.0,144,115,108,119,118
2025-02-26 14:03:10.002,-172.0,-966.0,312.0,1.0,-1.0,-5.0,145,113,107,118,116
2025-02-26 14:03:10.007,-167.0,-977.0,307.0,0.0,-1.0,-5.0,145,114,106,116,117
2025-02-26 14:03:10.010,-168.0,-975.0,311.0,-1.0,0.0,-5.0,145,116,106,118,116
2025-02-26 14:03:10.018,-167.0,-977.0,316.0,-2.0,0.0,-4.0,146,117,107,119,118
2025-02-26 14:03:10.021,-168.0,-980.0,315.0,-2.0,0.0,-3.0,145,117,106,118,117
2025-02-26 14:03:10.026,-162.0,-975.0,318.0,-3.0,0.0,-3.0,143,113,108,117,117
2025-02-26 14:03:10.029,-167.0,-988.0,314.0,-4.0,1.0,-2.0,144,116,108,118,118
2025-02-26 14:03:10.039,-149.0,-1001.0,310.0,-3.0,0.0,-1.0,146,116,109,119,118
2025-02-26 14:03:10.041,-166.0,-985.0,316.0,-2.0,0.0,0.0,146,116,107,117,118
2025-02-26 14:03:10.047,-162.0,-977.0,324.0,0.0,-1.0,1.0,142,114,105,117,117
2025-02-26 14:03:10.051,-156.0,-978.0,321.0,0.0,0.0,0.0,143,116,108,117,118
2025-02-26 14:03:10.059,-166.0,-984.0,290.0,-1.0,1.0,0.0,146,118,109,118,118
2025-02-26 14:03:10.063,-155.0,-990.0,315.0,-2.0,3.0,0.0,144,115,105,114,117
2025-02-26 14:03:10.068,-161.0,-980.0,316.0,-2.0,3.0,1.0,146,117,105,117,116
2025-02-26 14:03:10.070,-157.0,-974.0,321.0,-1.0,3.0,1.0,146,115,110,123,117
2025-02-26 14:03:10.076,-159.0,-968.0,313.0,0.0,3.0,2.0,144,115,107,118,118
2025-02-26 14:03:10.083,-162.0,-965.0,309.0,0.0,3.0,2.0,146,117,106,117,117
2025-02-26 14:03:10.088,-165.0,-959.0,310.0,0.0,4.0,3.0,145,116,107,117,118
2025-02-26 14:03:10.092,-169.0,-956.0,308.0,0.0,4.0,3.0,145,115,105,118,118
2025-02-26 14:03:10.096,-167.0,-955.0,308.0,0.0,4.0,3.0,145,117,108,117,117
2025-02-26 14:03:10.101,-166.0,-952.0,305.0,0.0,4.0,2.0,145,117,108,119,117
2025-02-26 14:03:10.116,-180.0,-942.0,308.0,0.0,4.0,2.0,145,115,106,117,118
2025-02-26 14:03:10.119,-185.0,-948.0,312.0,0.0,4.0,1.0,145,116,108,116,115
2025-02-26 14:03:10.119,-195.0,-947.0,312.0,-1.0,4.0,1.0,148,117,107,120,117
2025-02-26 14:03:10.125,-198.0,-956.0,316.0,-1.0,4.0,1.0,145,116,106,117,117
2025-02-26 14:03:10.129,-197.0,-964.0,326.0,-2.0,4.0,1.0,144,115,106,117,116
2025-02-26 14:03:10.133,-204.0,-968.0,329.0,-3.0,4.0,1.0,145,114,108,119,117
2025-02-26 14:03:10.137,-207.0,-974.0,332.0,-3.0,3.0,2.0,146,116,109,118,118
2025-02-26 14:03:10.142,-199.0,-969.0,335.0,-3.0,2.0,3.0,145,116,108,117,116
2025-02-26 14:03:10.150,-198.0,-950.0,337.0,-3.0,1.0,3.0,145,117,105,116,116
2025-02-26 14:03:10.153,-188.0,-939.0,328.0,-3.0,2.0,5.0,148,115,107,117,117
2025-02-26 14:03:10.158,-172.0,-931.0,328.0,-3.0,2.0,5.0,146,116,107,116,119
2025-02-26 14:03:10.162,-166.0,-926.0,322.0,-3.0,2.0,5.0,143,115,106,117,116
2025-02-26 14:03:10.170,-174.0,-920.0,329.0,-4.0,2.0,5.0,147,116,107,118,117
2025-02-26 14:03:10.174,-181.0,-925.0,334.0,-6.0,4.0,4.0,143,114,107,117,117
2025-02-26 14:03:10.179,-191.0,-933.0,337.0,-6.0,5.0,3.0,146,116,107,118,117
2025-02-26 14:03:10.180,-197.0,-945.0,337.0,-7.0,5.0,2.0,145,114,106,118,115
2025-02-26 14:03:10.187,-211.0,-956.0,337.0,-8.0,6.0,1.0,145,114,108,119,117
2025-02-26 14:03:10.192,-224.0,-974.0,333.0,-9.0,7.0,0.0,143,116,108,119,118
2025-02-26 14:03:10.199,-227.0,-983.0,342.0,-9.0,8.0,0.0,145,115,106,118,118
2025-02-26 14:03:10.202,-232.0,-996.0,341.0,-10.0,9.0,0.0,146,116,104,117,117
2025-02-26 14:03:10.208,-230.0,-996.0,344.0,-9.0,11.0,1.0,145,116,107,119,118
2025-02-26 14:03:10.215,-225.0,-989.0,344.0,-9.0,12.0,3.0,144,114,107,117,117
2025-02-26 14:03:10.219,-217.0,-967.0,345.0,-7.0,12.0,5.0,144,115,109,116,117
2025-02-26 14:03:10.222,-206.0,-957.0,342.0,-6.0,13.0,6.0,144,116,107,118,119
2025-02-26 14:03:10.228,-197.0,-937.0,345.0,-3.0,14.0,8.0,145,113,107,118,115
2025-02-26 14:03:10.234,-188.0,-923.0,330.0,-2.0,13.0,9.0,144,115,106,117,116
2025-02-26 14:03:10.240,-183.0,-912.0,334.0,0.0,13.0,8.0,143,117,107,122,117
2025-02-26 14:03:10.240,-168.0,-910.0,342.0,1.0,12.0,7.0,143,115,107,116,117
2025-02-26 14:03:10.248,-164.0,-918.0,342.0,1.0,12.0,4.0,145,121,106,118,117
2025-02-26 14:03:10.253,-164.0,-929.0,333.0,1.0,12.0,1.0,144,114,106,118,117
2025-02-26 14:03:10.260,-161.0,-939.0,331.0,-1.0,11.0,-1.0,145,120,110,119,119
2025-02-26 14:03:10.265,-164.0,-953.0,327.0,-2.0,11.0,-3.0,148,116,108,118,116
2025-02-26 14:03:10.272,-162.0,-967.0,328.0,-3.0,11.0,-4.0,142,114,107,118,116
2025-02-26 14:03:10.277,-163.0,-981.0,320.0,-4.0,12.0,-4.0,145,115,106,117,117
2025-02-26 14:03:10.277,-175.0,-989.0,327.0,-5.0,12.0,-3.0,145,115,106,117,116
2025-02-26 14:03:10.285,-187.0,-1000.0,325.0,-5.0,12.0,0.0,147,116,107,117,118
2025-02-26 14:03:10.291,-187.0,-1007.0,314.0,-6.0,12.0,2.0,145,115,106,118,117
2025-02-26 14:03:10.297,-190.0,-1000.0,308.0,-6.0,12.0,4.0,146,115,108,118,117
2025-02-26 14:03:10.301,-195.0,-994.0,289.0,-7.0,11.0,5.0,143,115,106,117,118
2025-02-26 14:03:10.306,-192.0,-994.0,283.0,-7.0,10.0,6.0,145,116,106,119,118
2025-02-26 14:03:10.313,-188.0,-984.0,284.0,-8.0,10.0,6.0,146,115,109,117,117
2025-02-26 14:03:10.318,-193.0,-987.0,260.0,-7.0,10.0,6.0,145,116,108,117,117
2025-02-26 14:03:10.319,-187.0,-980.0,275.0,-8.0,9.0,6.0,145,116,108,118,115
2025-02-26 14:03:10.326,-177.0,-988.0,269.0,-7.0,9.0,5.0,146,115,106,118,119
2025-02-26 14:03:10.331,-182.0,-1001.0,267.0,-8.0,8.0,5.0,146,116,106,117,116
2025-02-26 14:03:10.338,-183.0,-1017.0,270.0,-8.0,8.0,5.0,145,115,108,117,118
2025-02-26 14:03:10.342,-188.0,-1022.0,275.0,-8.0,8.0,5.0,145,115,107,118,118
2025-02-26 14:03:10.343,-185.0,-1015.0,269.0,-8.0,9.0,7.0,145,117,106,117,116
2025-02-26 14:03:10.354,-199.0,-1015.0,256.0,-7.0,9.0,8.0,145,114,107,118,117
2025-02-26 14:03:10.359,-202.0,-1003.0,267.0,-8.0,9.0,10.0,144,116,109,118,115
2025-02-26 14:03:10.362,-212.0,-997.0,248.0,-10.0,10.0,10.0,145,116,107,118,119
2025-02-26 14:03:10.370,-222.0,-984.0,250.0,-11.0,10.0,11.0,145,114,107,118,117
2025-02-26 14:03:10.374,-236.0,-969.0,242.0,-12.0,10.0,12.0,145,116,107,117,117
2025-02-26 14:03:10.379,-233.0,-955.0,237.0,-14.0,9.0,12.0,142,115,106,119,118
2025-02-26 14:03:10.383,-230.0,-941.0,240.0,-16.0,10.0,11.0,144,115,106,117,116
2025-02-26 14:03:10.390,-248.0,-942.0,246.0,-18.0,10.0,11.0,145,116,106,118,117
2025-02-26 14:03:10.392,-247.0,-934.0,227.0,-19.0,10.0,11.0,146,117,109,118,117
2025-02-26 14:03:10.400,-252.0,-933.0,229.0,-18.0,10.0,11.0,146,110,108,118,119
2025-02-26 14:03:10.407,-243.0,-935.0,231.0,-19.0,9.0,9.0,145,116,108,118,116
2025-02-26 14:03:10.410,-244.0,-942.0,238.0,-20.0,8.0,9.0,144,115,104,116,116
2025-02-26 14:03:10.416,-229.0,-945.0,241.0,-22.0,7.0,7.0,145,116,108,116,117
2025-02-26 14:03:10.420,-230.0,-957.0,255.0,-22.0,6.0,5.0,145,116,107,117,118
2025-02-26 14:03:10.428,-237.0,-968.0,253.0,-23.0,5.0,4.0,143,115,107,117,118
2025-02-26 14:03:10.432,-240.0,-973.0,247.0,-24.0,5.0,3.0,141,115,107,118,116
2025-02-26 14:03:10.434,-239.0,-983.0,250.0,-26.0,3.0,2.0,145,118,109,119,119
2025-02-26 14:03:10.441,-236.0,-990.0,265.0,-27.0,3.0,2.0,145,115,108,117,118
2025-02-26 14:03:10.446,-235.0,-1006.0,258.0,-27.0,2.0,1.0,144,115,105,115,116
2025-02-26 14:03:10.453,-236.0,-1011.0,260.0,-29.0,1.0,1.0,143,115,107,118,117
2025-02-26 14:03:10.453,-225.0,-1016.0,257.0,-30.0,1.0,1.0,147,116,108,118,118
2025-02-26 14:03:10.462,-220.0,-1009.0,258.0,-31.0,1.0,0.0,145,117,108,118,118
2025-02-26 14:03:10.469,-220.0,-1020.0,256.0,-32.0,0.0,1.0,146,117,106,117,116
2025-02-26 14:03:10.473,-211.0,-1021.0,256.0,-33.0,-1.0,1.0,145,114,105,116,117
2025-02-26 14:03:10.477,-201.0,-1028.0,259.0,-32.0,-2.0,1.0,145,117,108,119,120
2025-02-26 14:03:10.485,-202.0,-1036.0,274.0,-33.0,0.0,2.0,144,116,108,120,118
2025-02-26 14:03:10.489,-196.0,-1052.0,250.0,-33.0,-2.0,3.0,145,116,107,117,115
2025-02-26 14:03:10.501,-189.0,-1064.0,245.0,-32.0,-3.0,3.0,144,114,106,116,117
2025-02-26 14:03:10.504,-175.0,-1061.0,281.0,-32.0,-2.0,3.0,144,106,106,117,121
2025-02-26 14:03:10.507,-160.0,-1061.0,266.0,-31.0,-2.0,3.0,145,116,109,118,119
2025-02-26 14:03:10.510,-143.0,-1079.0,242.0,-33.0,-4.0,2.0,145,120,108,118,117
2025-02-26 14:03:10.515,-135.0,-1068.0,263.0,-34.0,-4.0,2.0,144,115,106,119,118
2025-02-26 14:03:10.522,-136.0,-1074.0,260.0,-34.0,-4.0,2.0,142,115,107,118,117
2025-02-26 14:03:10.525,-130.0,-1078.0,246.0,-34.0,-2.0,1.0,145,113,105,118,118
2025-02-26 14:03:10.531,-138.0,-1077.0,244.0,-34.0,-1.0,1.0,148,114,107,117,118
2025-02-26 14:03:10.539,-150.0,-1066.0,230.0,-34.0,-2.0,2.0,147,116,110,120,120
2025-02-26 14:03:10.543,-159.0,-1065.0,224.0,-34.0,-2.0,3.0,147,114,107,117,118
2025-02-26 14:03:10.547,-169.0,-1053.0,226.0,-34.0,-3.0,4.0,144,113,106,117,117
2025-02-26 14:03:10.551,-182.0,-1053.0,230.0,-32.0,-2.0,5.0,145,114,106,118,118
2025-02-26 14:03:10.558,-211.0,-1076.0,221.0,-33.0,-3.0,8.0,145,114,108,120,119
2025-02-26 14:03:10.563,-211.0,-1054.0,233.0,-31.0,-5.0,10.0,146,115,107,119,119
2025-02-26 14:03:10.567,-219.0,-1054.0,218.0,-30.0,-8.0,12.0,144,115,107,120,117
2025-02-26 14:03:10.575,-192.0,-1025.0,229.0,-27.0,-9.0,12.0,143,114,106,118,118
2025-02-26 14:03:10.579,-198.0,-1017.0,240.0,-26.0,-7.0,12.0,145,114,107,118,119
2025-02-26 14:03:10.584,-187.0,-1022.0,243.0,-27.0,-6.0,12.0,147,116,108,120,119
2025-02-26 14:03:10.592,-191.0,-993.0,220.0,-26.0,-6.0,13.0,145,116,109,120,119
2025-02-26 14:03:10.596,-198.0,-976.0,249.0,-25.0,-6.0,13.0,146,115,108,120,119
2025-02-26 14:03:10.601,-196.0,-971.0,243.0,-26.0,-6.0,13.0,145,116,108,119,119
2025-02-26 14:03:10.608,-188.0,-955.0,229.0,-29.0,-6.0,13.0,141,114,110,119,121
2025-02-26 14:03:10.610,-202.0,-946.0,224.0,-31.0,-5.0,12.0,145,115,107,119,120
2025-02-26 14:03:10.617,-209.0,-931.0,209.0,-32.0,-6.0,11.0,146,116,109,121,121
2025-02-26 14:03:10.621,-207.0,-915.0,203.0,-33.0,-6.0,9.0,146,115,106,120,119
2025-02-26 14:03:10.628,-209.0,-924.0,219.0,-35.0,-6.0,8.0,144,116,106,118,119
2025-02-26 14:03:10.628,-223.0,-923.0,191.0,-38.0,-6.0,8.0,144,114,106,119,118
2025-02-26 14:03:10.645,-247.0,-945.0,192.0,-40.0,-8.0,8.0,146,117,108,121,121
2025-02-26 14:03:10.646,-250.0,-943.0,230.0,-40.0,-8.0,8.0,144,118,106,119,121
2025-02-26 14:03:10.646,-264.0,-946.0,220.0,-41.0,-9.0,7.0,145,115,107,119,120
2025-02-26 14:03:10.654,-274.0,-933.0,214.0,-40.0,-10.0,7.0,145,117,109,118,119
2025-02-26 14:03:10.657,-284.0,-948.0,222.0,-42.0,-10.0,6.0,145,117,108,122,122
2025-02-26 14:03:10.665,-267.0,-930.0,231.0,-42.0,-10.0,5.0,146,117,107,121,122
2025-02-26 14:03:10.670,-264.0,-951.0,209.0,-40.0,-10.0,2.0,144,119,108,120,120
2025-02-26 14:03:10.674,-265.0,-939.0,262.0,-49.0,-8.0,2.0,145,116,107,120,120
2025-02-26 14:03:10.682,-273.0,-927.0,199.0,-55.0,-7.0,0.0,145,117,109,119,120
2025-02-26 14:03:10.686,-296.0,-972.0,155.0,-57.0,-7.0,0.0,146,118,106,120,121
2025-02-26 14:03:10.688,-267.0,-887.0,164.0,-45.0,-11.0,0.0,145,117,108,120,121
2025-02-26 14:03:10.695,-261.0,-920.0,219.0,-46.0,-8.0,0.0,145,118,108,121,121
2025-02-26 14:03:10.701,-265.0,-921.0,236.0,-51.0,-5.0,-1.0,145,117,108,120,121
2025-02-26 14:03:10.706,-259.0,-889.0,129.0,-45.0,-8.0,-1.0,147,118,106,119,121
2025-02-26 14:03:10.707,-263.0,-904.0,150.0,-38.0,-9.0,-2.0,145,118,108,121,123
2025-02-26 14:03:10.718,-253.0,-924.0,203.0,-37.0,-5.0,-3.0,145,118,109,120,122
2025-02-26 14:03:10.723,-260.0,-920.0,194.0,-39.0,-2.0,-4.0,143,117,108,119,121
2025-02-26 14:03:10.725,-254.0,-929.0,169.0,-39.0,2.0,-6.0,143,117,106,117,121
2025-02-26 14:03:10.731,-242.0,-917.0,136.0,-36.0,3.0,-7.0,146,118,108,120,122
2025-02-26 14:03:10.739,-234.0,-933.0,144.0,-32.0,6.0,-8.0,144,119,108,122,123
2025-02-26 14:03:10.743,-220.0,-926.0,129.0,-35.0,9.0,-9.0,146,119,107,121,122
2025-02-26 14:03:10.748,-222.0,-912.0,133.0,-30.0,11.0,-10.0,143,118,109,120,121
2025-02-26 14:03:10.756,-221.0,-912.0,137.0,-30.0,15.0,-10.0,143,120,107,120,121
2025-02-26 14:03:10.760,-233.0,-902.0,106.0,-29.0,17.0,-10.0,143,119,110,121,122
2025-02-26 14:03:10.765,-240.0,-899.0,97.0,-28.0,16.0,-11.0,145,119,109,122,123
2025-02-26 14:03:10.767,-241.0,-901.0,117.0,-26.0,14.0,-11.0,145,121,107,119,121
2025-02-26 14:03:10.776,-258.0,-896.0,126.0,-29.0,14.0,-11.0,145,119,108,118,121
2025-02-26 14:03:10.780,-247.0,-900.0,111.0,-25.0,13.0,-12.0,143,120,107,120,120
2025-02-26 14:03:10.785,-259.0,-905.0,55.0,-26.0,14.0,-12.0,143,119,107,119,121
2025-02-26 14:03:10.792,-254.0,-899.0,53.0,-27.0,13.0,-12.0,145,120,108,121,122
2025-02-26 14:03:10.797,-265.0,-912.0,19.0,-28.0,10.0,-12.0,146,122,110,122,123
2025-02-26 14:03:10.801,-258.0,-913.0,33.0,-29.0,11.0,-13.0,141,121,109,119,120
2025-02-26 14:03:10.809,-252.0,-931.0,12.0,-31.0,11.0,-13.0,142,120,107,119,122
2025-02-26 14:03:10.813,-268.0,-930.0,-26.0,-27.0,13.0,-14.0,145,120,107,122,121
2025-02-26 14:03:10.817,-246.0,-933.0,14.0,-30.0,15.0,-13.0,144,122,108,121,123
2025-02-26 14:03:10.825,-241.0,-942.0,-3.0,-32.0,16.0,-14.0,144,120,110,123,123
2025-02-26 14:03:10.829,-271.0,-974.0,-48.0,-34.0,15.0,-13.0,142,120,106,121,121
2025-02-26 14:03:10.834,-254.0,-947.0,-34.0,-30.0,11.0,-12.0,144,120,107,121,121
2025-02-26 14:03:10.842,-250.0,-955.0,1.0,-28.0,11.0,-12.0,147,120,106,120,122
2025-02-26 14:03:10.846,-243.0,-966.0,40.0,-29.0,16.0,-11.0,143,121,109,122,122
2025-02-26 14:03:10.850,-236.0,-956.0,0.0,-26.0,17.0,-10.0,145,121,109,121,122
2025-02-26 14:03:10.855,-237.0,-979.0,-8.0,-27.0,18.0,-9.0,144,121,108,121,123
2025-02-26 14:03:10.862,-237.0,-969.0,3.0,-25.0,20.0,-8.0,145,120,107,122,121
2025-02-26 14:03:10.866,-217.0,-979.0,-22.0,-20.0,25.0,-8.0,144,120,106,122,123
2025-02-26 14:03:10.871,-219.0,-974.0,-25.0,-20.0,26.0,-6.0,144,122,108,122,123
2025-02-26 14:03:10.871,-212.0,-960.0,-14.0,-16.0,28.0,-3.0,145,121,110,122,122
2025-02-26 14:03:10.883,-220.0,-944.0,-19.0,-16.0,29.0,0.0,145,119,107,121,123
2025-02-26 14:03:10.887,-216.0,-956.0,6.0,-13.0,32.0,1.0,143,118,106,122,121
2025-02-26 14:03:10.889,-226.0,-947.0,-29.0,-5.0,30.0,3.0,145,121,110,122,122
2025-02-26 14:03:10.897,-217.0,-960.0,-22.0,-2.0,27.0,5.0,145,120,108,122,122
2025-02-26 14:03:10.901,-208.0,-964.0,4.0,0.0,28.0,6.0,145,120,107,120,122
2025-02-26 14:03:10.907,-201.0,-971.0,-9.0,3.0,29.0,6.0,145,120,107,122,122
2025-02-26 14:03:10.912,-200.0,-1002.0,2.0,3.0,33.0,8.0,145,117,106,120,122
2025-02-26 14:03:10.913,-204.0,-975.0,-39.0,3.0,33.0,9.0,144,118,109,122,122
2025-02-26 14:03:10.924,-214.0,-985.0,-44.0,8.0,31.0,8.0,144,118,108,122,122
2025-02-26 14:03:10.925,-235.0,-997.0,-46.0,8.0,25.0,8.0,144,118,108,122,121
2025-02-26 14:03:10.931,-243.0,-1013.0,5.0,8.0,27.0,10.0,144,117,106,122,122
2025-02-26 14:03:10.937,-232.0,-1004.0,-58.0,10.0,25.0,10.0,144,117,108,120,122
2025-02-26 14:03:10.944,-236.0,-1001.0,-14.0,4.0,29.0,12.0,145,117,109,125,124
2025-02-26 14:03:10.948,-221.0,-1001.0,-13.0,5.0,33.0,14.0,143,116,108,122,123
2025-02-26 14:03:10.952,-223.0,-1001.0,-66.0,6.0,29.0,16.0,146,118,109,123,124
2025-02-26 14:03:10.957,-231.0,-996.0,-19.0,4.0,29.0,18.0,138,116,109,117,122
2025-02-26 14:03:10.965,-221.0,-994.0,-25.0,6.0,27.0,18.0,145,117,107,124,124
2025-02-26 14:03:10.969,-228.0,-987.0,-38.0,8.0,25.0,18.0,144,117,109,119,123
2025-02-26 14:03:10.973,-228.0,-959.0,-13.0,7.0,23.0,19.0,145,115,108,124,124
2025-02-26 14:03:10.977,-223.0,-971.0,18.0,12.0,25.0,20.0,147,115,107,123,122
2025-02-26 14:03:10.985,-230.0,-969.0,-32.0,13.0,27.0,19.0,147,117,109,123,123
2025-02-26 14:03:10.990,-231.0,-940.0,-46.0,12.0,25.0,19.0,138,115,107,130,123
2025-02-26 14:03:10.994,-240.0,-934.0,-79.0,12.0,21.0,19.0,144,116,109,124,123
2025-02-26 14:03:10.998,-259.0,-947.0,-44.0,12.0,21.0,18.0,145,116,107,123,123
2025-02-26 14:03:11.006,-264.0,-939.0,-37.0,18.0,15.0,19.0,147,118,108,122,122
2025-02-26 14:03:11.010,-273.0,-941.0,-58.0,27.0,5.0,17.0,146,118,110,125,124
2025-02-26 14:03:11.010,-273.0,-963.0,-39.0,33.0,-7.0,13.0,148,118,111,125,124
2025-02-26 14:03:11.022,-283.0,-995.0,50.0,43.0,-5.0,13.0,146,116,109,124,124
2025-02-26 14:03:11.026,-250.0,-976.0,-40.0,55.0,-4.0,13.0,146,116,109,121,124
2025-02-26 14:03:11.030,-256.0,-989.0,-33.0,53.0,1.0,14.0,145,118,108,124,124
2025-02-26 14:03:11.034,-223.0,-987.0,0.0,51.0,15.0,19.0,145,118,112,125,125
2025-02-26 14:03:11.042,-226.0,-995.0,-72.0,46.0,17.0,22.0,145,116,108,123,123
2025-02-26 14:03:11.046,-242.0,-995.0,-104.0,32.0,10.0,24.0,145,116,109,126,123
2025-02-26 14:03:11.051,-256.0,-1022.0,-90.0,18.0,2.0,27.0,146,117,111,125,125
2025-02-26 14:03:11.058,-248.0,-1040.0,-62.0,14.0,-2.0,31.0,147,120,112,126,125
2025-02-26 14:03:11.063,-231.0,-1045.0,-12.0,13.0,-1.0,36.0,145,118,110,124,125
2025-02-26 14:03:11.067,-225.0,-1050.0,13.0,15.0,4.0,41.0,145,115,110,125,124
2025-02-26 14:03:11.071,-213.0,-1033.0,18.0,19.0,13.0,43.0,147,117,110,126,126
2025-02-26 14:03:11.079,-210.0,-1029.0,15.0,22.0,23.0,49.0,145,117,112,121,125
2025-02-26 14:03:11.083,-225.0,-1009.0,-19.0,23.0,27.0,54.0,148,118,109,124,127
2025-02-26 14:03:11.087,-239.0,-983.0,-23.0,22.0,26.0,56.0,146,116,108,124,124
2025-02-26 14:03:11.095,-267.0,-960.0,10.0,22.0,25.0,58.0,148,117,109,124,125
2025-02-26 14:03:11.099,-266.0,-960.0,23.0,20.0,24.0,58.0,148,118,111,126,126
2025-02-26 14:03:11.104,-275.0,-950.0,9.0,23.0,19.0,57.0,146,115,110,125,125
2025-02-26 14:03:11.108,-273.0,-952.0,27.0,28.0,18.0,57.0,146,115,108,123,123
2025-02-26 14:03:11.113,-285.0,-997.0,29.0,31.0,19.0,55.0,146,115,109,124,125
2025-02-26 14:03:11.120,-282.0,-917.0,59.0,34.0,18.0,52.0,147,116,110,124,125
2025-02-26 14:03:11.125,-297.0,-906.0,62.0,37.0,17.0,48.0,145,114,108,124,124
2025-02-26 14:03:11.125,-295.0,-901.0,27.0,39.0,14.0,46.0,145,115,108,124,123
2025-02-26 14:03:11.137,-307.0,-907.0,31.0,38.0,12.0,44.0,148,116,110,124,124
2025-02-26 14:03:11.140,-299.0,-889.0,64.0,43.0,13.0,41.0,148,116,111,124,125
2025-02-26 14:03:11.143,-302.0,-868.0,46.0,41.0,13.0,38.0,147,114,108,124,124
2025-02-26 14:03:11.149,-318.0,-857.0,61.0,39.0,13.0,37.0,146,114,108,124,124
2025-02-26 14:03:11.157,-322.0,-847.0,68.0,38.0,14.0,35.0,150,115,111,126,126
2025-02-26 14:03:11.161,-323.0,-846.0,62.0,36.0,12.0,32.0,147,116,110,124,124
2025-02-26 14:03:11.162,-332.0,-834.0,67.0,33.0,10.0,28.0,145,114,107,124,123
2025-02-26 14:03:11.170,-330.0,-851.0,77.0,29.0,11.0,25.0,145,113,107,123,124
2025-02-26 14:03:11.180,-334.0,-830.0,64.0,23.0,10.0,21.0,148,116,112,125,126
2025-02-26 14:03:11.180,-348.0,-822.0,44.0,19.0,9.0,17.0,145,116,109,125,125
2025-02-26 14:03:11.186,-347.0,-828.0,56.0,13.0,8.0,14.0,144,114,108,123,123
2025-02-26 14:03:11.190,-359.0,-836.0,66.0,5.0,6.0,12.0,146,116,111,124,126
2025-02-26 14:03:11.194,-365.0,-845.0,68.0,-3.0,3.0,9.0,148,116,111,126,125
2025-02-26 14:03:11.202,-370.0,-875.0,58.0,-7.0,2.0,6.0,147,114,109,123,123
2025-02-26 14:03:11.206,-365.0,-879.0,36.0,-10.0,-2.0,4.0,145,114,108,123,124
2025-02-26 14:03:11.211,-376.0,-896.0,64.0,-12.0,-3.0,2.0,146,115,110,125,126
2025-02-26 14:03:11.215,-376.0,-891.0,81.0,-11.0,-2.0,0.0,148,117,110,125,125
2025-02-26 14:03:11.223,-374.0,-901.0,73.0,-10.0,-2.0,-3.0,146,115,112,124,124
2025-02-26 14:03:11.227,-387.0,-896.0,100.0,-8.0,-2.0,-5.0,145,113,108,123,124
2025-02-26 14:03:11.228,-396.0,-899.0,102.0,-3.0,-2.0,-8.0,148,113,108,124,124
2025-02-26 14:03:11.239,-385.0,-901.0,97.0,-2.0,-3.0,-11.0,146,114,110,126,125
2025-02-26 14:03:11.243,-386.0,-886.0,81.0,0.0,-4.0,-14.0,146,112,107,124,125
2025-02-26 14:03:11.247,-386.0,-884.0,72.0,3.0,-7.0,-16.0,144,110,107,124,124
2025-02-26 14:03:11.251,-381.0,-896.0,60.0,4.0,-10.0,-19.0,146,112,109,125,124
2025-02-26 14:03:11.260,-369.0,-896.0,94.0,5.0,-9.0,-22.0,148,112,108,124,125
2025-02-26 14:03:11.264,-361.0,-902.0,99.0,6.0,-8.0,-23.0,146,109,107,124,123
2025-02-26 14:03:11.267,-355.0,-911.0,98.0,10.0,-9.0,-23.0,146,107,105,123,124
2025-02-26 14:03:11.272,-357.0,-926.0,130.0,13.0,-6.0,-24.0,148,109,108,125,125
2025-02-26 14:03:11.279,-359.0,-938.0,142.0,13.0,-1.0,-24.0,146,109,112,125,124
2025-02-26 14:03:11.284,-363.0,-952.0,101.0,13.0,-3.0,-23.0,145,110,107,125,123
2025-02-26 14:03:11.289,-369.0,-976.0,102.0,13.0,-2.0,-22.0,145,108,106,121,123
2025-02-26 14:03:11.296,-356.0,-972.0,86.0,12.0,4.0,-21.0,148,110,109,125,125
2025-02-26 14:03:11.300,-354.0,-942.0,42.0,7.0,3.0,-19.0,148,107,106,124,125
2025-02-26 14:03:11.305,-381.0,-961.0,52.0,5.0,2.0,-17.0,145,105,106,123,123
2025-02-26 14:03:11.309,-382.0,-982.0,83.0,0.0,3.0,-15.0,146,104,104,123,123
2025-02-26 14:03:11.317,-373.0,-986.0,64.0,-3.0,4.0,-14.0,147,106,107,123,124
2025-02-26 14:03:11.321,-371.0,-969.0,35.0,-3.0,-2.0,-14.0,144,103,106,122,123
2025-02-26 14:03:11.325,-380.0,-996.0,66.0,-1.0,-3.0,-13.0,147,100,103,121,122
2025-02-26 14:03:11.330,-371.0,-993.0,53.0,-2.0,-3.0,-14.0,145,101,104,122,121
2025-02-26 14:03:11.337,-372.0,-995.0,23.0,-5.0,-2.0,-14.0,148,101,105,123,123
2025-02-26 14:03:11.339,-367.0,-996.0,27.0,-7.0,1.0,-15.0,147,98,103,120,121
2025-02-26 14:03:11.344,-356.0,-991.0,16.0,-7.0,2.0,-16.0,146,97,104,120,120
2025-02-26 14:03:11.350,-356.0,-975.0,38.0,-5.0,0.0,-16.0,144,95,101,118,120
2025-02-26 14:03:11.356,-358.0,-982.0,33.0,-1.0,-1.0,-18.0,148,95,105,122,123
2025-02-26 14:03:11.362,-344.0,-981.0,58.0,1.0,-2.0,-19.0,146,94,102,121,122
2025-02-26 14:03:11.366,-341.0,-972.0,68.0,8.0,0.0,-19.0,145,94,102,119,120
2025-02-26 14:03:11.370,-337.0,-962.0,83.0,10.0,4.0,-19.0,148,95,102,119,121
2025-02-26 14:03:11.377,-321.0,-972.0,67.0,20.0,5.0,-20.0,147,95,103,119,121
2025-02-26 14:03:11.382,-325.0,-969.0,36.0,22.0,4.0,-19.0,146,93,100,119,119
2025-02-26 14:03:11.386,-330.0,-972.0,36.0,23.0,2.0,-19.0,145,92,100,116,119
2025-02-26 14:03:11.390,-333.0,-975.0,57.0,21.0,3.0,-16.0,147,93,101,118,120
2025-02-26 14:03:11.395,-337.0,-993.0,73.0,22.0,2.0,-14.0,148,92,102,117,121
2025-02-26 14:03:11.400,-326.0,-1007.0,117.0,21.0,3.0,-10.0,147,90,100,114,119
2025-02-26 14:03:11.407,-295.0,-1012.0,149.0,17.0,5.0,-9.0,146,91,100,113,119
2025-02-26 14:03:11.411,-272.0,-1019.0,143.0,11.0,6.0,-6.0,147,90,99,113,118
2025-02-26 14:03:11.415,-259.0,-1017.0,207.0,6.0,11.0,-3.0,145,90,99,112,118
2025-02-26 14:03:11.423,-265.0,-1017.0,127.0,1.0,10.0,-2.0,146,87,97,111,118
2025-02-26 14:03:11.428,-272.0,-1009.0,117.0,1.0,9.0,1.0,148,88,97,110,118
2025-02-26 14:03:11.429,-278.0,-1008.0,178.0,4.0,7.0,2.0,146,86,97,110,116
2025-02-26 14:03:11.436,-281.0,-1000.0,173.0,1.0,5.0,4.0,147,85,96,109,115
2025-02-26 14:03:11.440,-286.0,-1004.0,189.0,3.0,0.0,5.0,146,86,96,107,114
2025-02-26 14:03:11.448,-271.0,-999.0,195.0,3.0,-1.0,6.0,145,83,97,106,114
2025-02-26 14:03:11.452,-276.0,-988.0,166.0,6.0,-2.0,5.0,145,82,93,104,111
2025-02-26 14:03:11.456,-284.0,-985.0,199.0,3.0,1.0,6.0,147,83,96,106,114
2025-02-26 14:03:11.458,-299.0,-983.0,189.0,4.0,0.0,5.0,146,82,97,102,111
2025-02-26 14:03:11.464,-313.0,-993.0,220.0,3.0,2.0,5.0,145,80,93,100,107
2025-02-26 14:03:11.472,-319.0,-988.0,219.0,0.0,3.0,4.0,145,85,95,102,109
2025-02-26 14:03:11.476,-330.0,-988.0,215.0,0.0,4.0,2.0,146,80,94,99,107
2025-02-26 14:03:11.481,-323.0,-980.0,229.0,0.0,5.0,1.0,144,76,92,95,105
2025-02-26 14:03:11.485,-317.0,-977.0,229.0,-1.0,8.0,0.0,146,79,93,98,105
2025-02-26 14:03:11.489,-311.0,-963.0,192.0,-1.0,10.0,0.0,145,77,92,96,103
2025-02-26 14:03:11.493,-323.0,-956.0,136.0,-7.0,11.0,0.0,145,78,95,96,102
2025-02-26 14:03:11.501,-333.0,-946.0,148.0,-13.0,9.0,1.0,146,77,93,95,102
2025-02-26 14:03:11.505,-340.0,-952.0,162.0,-15.0,7.0,1.0,145,76,90,93,100
2025-02-26 14:03:11.509,-340.0,-964.0,183.0,-18.0,4.0,1.0,146,76,92,93,100
2025-02-26 14:03:11.514,-354.0,-957.0,166.0,-14.0,2.0,2.0,149,79,93,92,100
2025-02-26 14:03:11.518,-320.0,-988.0,206.0,-16.0,2.0,2.0,145,74,90,91,97
2025-02-26 14:03:11.525,-347.0,-980.0,149.0,-15.0,2.0,2.0,146,75,90,93,98
2025-02-26 14:03:11.530,-331.0,-991.0,158.0,-13.0,-2.0,3.0,145,75,89,91,97
2025-02-26 14:03:11.534,-347.0,-997.0,200.0,-12.0,-2.0,4.0,147,76,90,91,98
2025-02-26 14:03:11.538,-332.0,-975.0,194.0,-11.0,-3.0,4.0,147,76,92,92,99
2025-02-26 14:03:11.543,-307.0,-970.0,168.0,-10.0,-2.0,6.0,148,75,91,92,98
2025-02-26 14:03:11.543,-303.0,-947.0,165.0,-13.0,-1.0,8.0,145,73,90,90,96
2025-02-26 14:03:11.555,-301.0,-948.0,164.0,-15.0,0.0,8.0,147,79,94,93,98
2025-02-26 14:03:11.559,-295.0,-931.0,163.0,-18.0,0.0,9.0,149,75,92,89,96
2025-02-26 14:03:11.561,-296.0,-917.0,156.0,-25.0,1.0,9.0,144,73,91,88,95
2025-02-26 14:03:11.566,-300.0,-909.0,133.0,-34.0,2.0,9.0,145,75,90,88,95
2025-02-26 14:03:11.571,-305.0,-909.0,157.0,-39.0,4.0,8.0,148,74,90,91,96
2025-02-26 14:03:11.578,-315.0,-879.0,126.0,-54.0,5.0,7.0,145,72,89,88,93
2025-02-26 14:03:11.583,-324.0,-887.0,86.0,-75.0,5.0,7.0,143,75,91,88,96
2025-02-26 14:03:11.585,-340.0,-879.0,103.0,-79.0,5.0,6.0,145,72,88,88,95
2025-02-26 14:03:11.592,-321.0,-878.0,131.0,-95.0,6.0,5.0,147,70,88,88,94
2025-02-26 14:03:11.595,-327.0,-854.0,138.0,-106.0,2.0,4.0,147,73,90,88,93
2025-02-26 14:03:11.599,-325.0,-873.0,105.0,-108.0,5.0,1.0,146,71,90,89,94
2025-02-26 14:03:11.606,-362.0,-885.0,27.0,-113.0,10.0,2.0,146,74,86,89,94
2025-02-26 14:03:11.612,-380.0,-889.0,-66.0,-99.0,-1.0,2.0,147,75,91,90,94
2025-02-26 14:03:11.616,-349.0,-907.0,10.0,-96.0,-3.0,4.0,148,74,90,89,95
2025-02-26 14:03:11.620,-357.0,-915.0,-10.0,-83.0,-9.0,3.0,146,75,91,90,94
2025-02-26 14:03:11.625,-364.0,-925.0,20.0,-71.0,-19.0,1.0,147,75,91,89,95
2025-02-26 14:03:11.632,-321.0,-915.0,70.0,-60.0,-18.0,-2.0,146,73,93,89,95
2025-02-26 14:03:11.637,-307.0,-884.0,60.0,-43.0,-17.0,-6.0,147,75,90,90,95
2025-02-26 14:03:11.640,-318.0,-822.0,5.0,-37.0,-15.0,-6.0,147,76,94,92,97
2025-02-26 14:03:11.645,-338.0,-871.0,-8.0,-37.0,-16.0,-8.0,148,75,90,92,99
2025-02-26 14:03:11.649,-332.0,-868.0,-2.0,-42.0,-16.0,-11.0,148,76,92,91,97
2025-02-26 14:03:11.657,-306.0,-893.0,-21.0,-48.0,-15.0,-11.0,148,79,93,95,99
2025-02-26 14:03:11.658,-292.0,-902.0,-3.0,-53.0,-11.0,-13.0,146,76,94,92,97
2025-02-26 14:03:11.665,-294.0,-905.0,-72.0,-55.0,-14.0,-14.0,144,74,95,91,98
2025-02-26 14:03:11.670,-292.0,-941.0,-46.0,-52.0,-10.0,-14.0,147,78,94,93,99
2025-02-26 14:03:11.677,-297.0,-938.0,-9.0,-54.0,-8.0,-15.0,147,81,96,94,100
2025-02-26 14:03:11.681,-295.0,-959.0,-37.0,-47.0,-9.0,-15.0,149,79,93,92,99
2025-02-26 14:03:11.685,-298.0,-965.0,-22.0,-41.0,-8.0,-15.0,138,78,93,88,96
2025-02-26 14:03:11.688,-295.0,-964.0,-38.0,-37.0,-11.0,-15.0,146,77,92,93,99
2025-02-26 14:03:11.695,-296.0,-996.0,-9.0,-23.0,-13.0,-15.0,148,79,93,92,98
2025-02-26 14:03:11.701,-313.0,-985.0,20.0,-19.0,-12.0,-14.0,145,82,93,95,100
2025-02-26 14:03:11.706,-285.0,-961.0,-38.0,-14.0,-15.0,-13.0,143,83,94,96,100
2025-02-26 14:03:11.711,-300.0,-961.0,-15.0,-13.0,-14.0,-10.0,144,84,94,94,100
2025-02-26 14:03:11.718,-306.0,-941.0,18.0,-9.0,-15.0,-9.0,147,85,96,96,101
2025-02-26 14:03:11.722,-290.0,-924.0,47.0,-19.0,-16.0,-7.0,146,87,96,95,101
2025-02-26 14:03:11.725,-311.0,-906.0,-34.0,-35.0,-24.0,-8.0,140,88,94,92,100
2025-02-26 14:03:11.731,-357.0,-905.0,0.0,-90.0,-13.0,-6.0,145,92,96,96,103
2025-02-26 14:03:11.737,-284.0,-854.0,33.0,-89.0,6.0,-5.0,146,92,97,96,104
2025-02-26 14:03:11.743,-256.0,-912.0,-150.0,-40.0,6.0,-5.0,143,92,95,97,103
2025-02-26 14:03:11.747,-313.0,-899.0,106.0,-5.0,-1.0,-8.0,145,96,101,98,104
2025-02-26 14:03:11.751,-360.0,-1018.0,25.0,2.0,-11.0,-12.0,146,96,96,100,106
2025-02-26 14:03:11.755,-321.0,-937.0,-49.0,6.0,-20.0,-12.0,151,103,101,103,110
2025-02-26 14:03:11.764,-347.0,-965.0,-157.0,11.0,-24.0,-12.0,148,103,103,104,110
2025-02-26 14:03:11.767,-310.0,-913.0,-67.0,20.0,-13.0,-10.0,148,102,99,102,108
2025-02-26 14:03:11.772,-281.0,-985.0,81.0,44.0,-7.0,-15.0,151,109,105,108,113
2025-02-26 14:03:11.780,-223.0,-1022.0,-46.0,74.0,-14.0,-21.0,148,108,103,107,112
2025-02-26 14:03:11.784,-202.0,-983.0,-33.0,26.0,25.0,-12.0,145,106,100,102,108
2025-02-26 14:03:11.785,-249.0,-814.0,-954.0,137.0,-30.0,-24.0,143,107,100,102,107
2025-02-26 14:03:11.796,-420.0,-1163.0,246.0,123.0,-81.0,-23.0,144,108,100,106,111
2025-02-26 14:03:11.801,-363.0,-1052.0,216.0,75.0,-55.0,-25.0,139,105,97,102,106
2025-02-26 14:03:11.804,-293.0,-902.0,-311.0,60.0,-47.0,-19.0,139,104,99,103,106
2025-02-26 14:03:11.813,-409.0,-954.0,-183.0,12.0,-27.0,-13.0,142,107,100,106,109
2025-02-26 14:03:11.817,-251.0,-900.0,202.0,17.0,12.0,-11.0,165,124,124,130,130
2025-02-26 14:03:11.821,-321.0,-960.0,-36.0,-3.0,18.0,-8.0,149,118,109,117,117
2025-02-26 14:03:11.828,-380.0,-950.0,61.0,-2.0,9.0,-9.0,154,120,111,120,119
2025-02-26 14:03:11.833,-340.0,-907.0,153.0,8.0,14.0,-12.0,151,122,115,120,123
2025-02-26 14:03:11.834,-300.0,-904.0,-62.0,24.0,-9.0,-16.0,148,114,107,116,117
2025-02-26 14:03:11.842,-346.0,-942.0,47.0,27.0,-17.0,-17.0,144,115,107,113,113
2025-02-26 14:03:11.846,-308.0,-883.0,53.0,27.0,-18.0,-19.0,142,111,104,112,112
2025-02-26 14:03:11.854,-295.0,-887.0,-18.0,21.0,-20.0,-18.0,142,112,105,112,112
2025-02-26 14:03:11.858,-301.0,-899.0,-14.0,19.0,-17.0,-15.0,142,113,106,112,115
2025-02-26 14:03:11.869,-268.0,-898.0,46.0,21.0,-9.0,-15.0,147,118,110,115,116
2025-02-26 14:03:11.870,-245.0,-938.0,82.0,20.0,-3.0,-15.0,148,117,110,116,117
2025-02-26 14:03:11.874,-263.0,-954.0,55.0,19.0,-1.0,-16.0,145,117,109,118,117
2025-02-26 14:03:11.878,-258.0,-950.0,9.0,20.0,-5.0,-18.0,148,120,112,118,119
2025-02-26 14:03:11.884,-260.0,-964.0,23.0,18.0,-8.0,-19.0,144,116,109,115,116
2025-02-26 14:03:11.890,-285.0,-976.0,-14.0,17.0,-12.0,-20.0,143,114,107,116,116
2025-02-26 14:03:11.895,-292.0,-952.0,56.0,14.0,-8.0,-20.0,144,116,109,117,117
2025-02-26 14:03:11.903,-263.0,-941.0,113.0,25.0,-5.0,-21.0,146,118,112,119,120
2025-02-26 14:03:11.906,-268.0,-974.0,49.0,24.0,-1.0,-20.0,149,120,106,121,121
2025-02-26 14:03:11.909,-281.0,-963.0,79.0,28.0,1.0,-18.0,149,120,113,121,120
2025-02-26 14:03:11.916,-293.0,-968.0,50.0,26.0,0.0,-17.0,146,119,112,120,121
2025-02-26 14:03:11.922,-317.0,-977.0,59.0,19.0,0.0,-15.0,144,116,111,120,119
2025-02-26 14:03:11.927,-289.0,-939.0,29.0,10.0,2.0,-14.0,146,123,113,119,119
2025-02-26 14:03:11.932,-286.0,-948.0,38.0,8.0,4.0,-14.0,147,118,114,121,120
2025-02-26 14:03:11.936,-291.0,-960.0,48.0,6.0,3.0,-13.0,149,123,116,121,124
2025-02-26 14:03:11.944,-281.0,-951.0,71.0,3.0,7.0,-12.0,147,117,113,120,121
2025-02-26 14:03:11.948,-273.0,-937.0,46.0,6.0,6.0,-12.0,148,119,115,126,121
2025-02-26 14:03:11.952,-282.0,-965.0,37.0,7.0,1.0,-12.0,146,117,113,122,121
2025-02-26 14:03:11.956,-267.0,-939.0,61.0,12.0,-1.0,-14.0,141,116,112,116,118
2025-02-26 14:03:11.964,-257.0,-923.0,65.0,13.0,-2.0,-14.0,140,113,109,117,117
2025-02-26 14:03:11.969,-257.0,-922.0,17.0,16.0,-7.0,-16.0,142,115,111,120,119
2025-02-26 14:03:11.973,-252.0,-939.0,26.0,18.0,-13.0,-17.0,142,117,111,119,120
2025-02-26 14:03:11.980,-235.0,-950.0,60.0,21.0,-15.0,-18.0,143,116,111,119,119
2025-02-26 14:03:11.985,-245.0,-962.0,107.0,17.0,-18.0,-20.0,141,115,109,117,118
2025-02-26 14:03:11.989,-226.0,-973.0,69.0,16.0,-16.0,-20.0,144,116,111,120,119
2025-02-26 14:03:11.993,-233.0,-974.0,68.0,14.0,-13.0,-20.0,145,118,115,121,121
2025-02-26 14:03:12.001,-227.0,-965.0,55.0,16.0,-14.0,-20.0,141,115,109,119,118
2025-02-26 14:03:12.005,-245.0,-989.0,136.0,21.0,-12.0,-20.0,142,116,110,119,118
2025-02-26 14:03:12.009,-292.0,-987.0,64.0,12.0,3.0,-17.0,144,115,112,119,119
2025-02-26 14:03:12.017,-257.0,-942.0,20.0,24.0,-14.0,-18.0,144,118,113,120,120
2025-02-26 14:03:12.022,-236.0,-1002.0,364.0,45.0,31.0,-16.0,144,116,111,121,122
2025-02-26 14:03:12.025,-215.0,-892.0,-109.0,20.0,3.0,-15.0,141,116,113,121,120
2025-02-26 14:03:12.034,-250.0,-990.0,-26.0,53.0,-27.0,-12.0,142,115,111,119,119
2025-02-26 14:03:12.036,-275.0,-1067.0,-197.0,25.0,3.0,-10.0,143,116,111,119,120
2025-02-26 14:03:12.042,-289.0,-922.0,40.0,0.0,-11.0,-10.0,143,116,112,121,121
2025-02-26 14:03:12.046,-280.0,-930.0,71.0,21.0,-7.0,-10.0,143,117,113,121,120
2025-02-26 14:03:12.054,-169.0,-980.0,229.0,12.0,8.0,-13.0,143,117,113,120,122
2025-02-26 14:03:12.059,-185.0,-953.0,37.0,15.0,10.0,-10.0,145,117,112,120,119
2025-02-26 14:03:12.061,-259.0,-988.0,64.0,26.0,8.0,-9.0,142,116,112,121,121
2025-02-26 14:03:12.071,-239.0,-959.0,49.0,31.0,-4.0,-11.0,142,116,112,120,121
2025-02-26 14:03:12.075,-220.0,-1017.0,106.0,31.0,-13.0,-12.0,144,118,115,122,121
2025-02-26 14:03:12.079,-274.0,-1000.0,150.0,29.0,-13.0,-12.0,142,114,113,122,120
2025-02-26 14:03:12.083,-224.0,-983.0,78.0,27.0,-10.0,-13.0,142,115,111,122,120
2025-02-26 14:03:12.091,-228.0,-1011.0,92.0,20.0,-9.0,-13.0,143,117,113,120,120
2025-02-26 14:03:12.095,-230.0,-1008.0,126.0,13.0,2.0,-12.0,144,116,113,121,121
2025-02-26 14:03:12.100,-223.0,-997.0,78.0,14.0,1.0,-13.0,145,116,113,121,121
2025-02-26 14:03:12.107,-227.0,-1010.0,121.0,11.0,1.0,-13.0,144,116,113,121,121
2025-02-26 14:03:12.112,-240.0,-1003.0,130.0,6.0,-1.0,-13.0,142,116,111,120,121
2025-02-26 14:03:12.116,-228.0,-1007.0,100.0,9.0,-2.0,-13.0,144,118,112,122,118
2025-02-26 14:03:12.124,-219.0,-1013.0,111.0,10.0,-4.0,-12.0,144,116,114,122,122
2025-02-26 14:03:12.128,-215.0,-1012.0,145.0,9.0,-2.0,-12.0,143,116,115,121,121
2025-02-26 14:03:12.133,-202.0,-1019.0,93.0,10.0,-2.0,-10.0,142,116,113,120,121
2025-02-26 14:03:12.136,-209.0,-1034.0,141.0,9.0,-3.0,-8.0,144,117,113,121,121
2025-02-26 14:03:12.144,-205.0,-1017.0,111.0,11.0,-3.0,-6.0,143,117,114,121,122
2025-02-26 14:03:12.148,-207.0,-1036.0,117.0,12.0,-2.0,-5.0,143,116,114,122,122
2025-02-26 14:03:12.150,-198.0,-1034.0,133.0,12.0,1.0,-3.0,144,118,115,121,122
2025-02-26 14:03:12.160,-208.0,-1024.0,79.0,12.0,0.0,-1.0,144,118,112,121,121
2025-02-26 14:03:12.165,-209.0,-1027.0,127.0,13.0,2.0,-1.0,141,116,114,120,121
2025-02-26 14:03:12.169,-209.0,-1023.0,97.0,14.0,1.0,-1.0,143,117,114,123,122
2025-02-26 14:03:12.174,-213.0,-1021.0,108.0,13.0,1.0,-1.0,144,118,114,122,122
2025-02-26 14:03:12.182,-214.0,-1011.0,94.0,11.0,1.0,-1.0,142,115,113,121,121
2025-02-26 14:03:12.186,-219.0,-1021.0,100.0,7.0,3.0,-1.0,143,116,113,120,121
2025-02-26 14:03:12.190,-218.0,-1012.0,102.0,3.0,5.0,-2.0,144,118,114,121,123
2025-02-26 14:03:12.194,-220.0,-1011.0,121.0,2.0,6.0,-2.0,145,116,114,123,122
2025-02-26 14:03:12.201,-221.0,-1010.0,102.0,-1.0,6.0,-2.0,144,118,113,122,121
2025-02-26 14:03:12.206,-222.0,-1006.0,92.0,0.0,5.0,-2.0,143,117,113,121,120
2025-02-26 14:03:12.210,-223.0,-1008.0,109.0,1.0,4.0,-2.0,144,116,114,121,122
2025-02-26 14:03:12.214,-215.0,-999.0,96.0,2.0,2.0,-2.0,143,120,116,122,123
2025-02-26 14:03:12.222,-212.0,-1005.0,106.0,2.0,2.0,-2.0,145,116,114,123,122
2025-02-26 14:03:12.227,-204.0,-1003.0,94.0,4.0,2.0,-1.0,144,117,114,122,122
2025-02-26 14:03:12.231,-211.0,-1012.0,85.0,4.0,-1.0,-1.0,145,116,114,120,122
2025-02-26 14:03:12.235,-206.0,-1006.0,118.0,5.0,-1.0,-1.0,144,118,113,121,123
2025-02-26 14:03:12.243,-205.0,-1007.0,100.0,4.0,-1.0,-1.0,143,118,114,122,121
2025-02-26 14:03:12.247,-221.0,-1015.0,92.0,1.0,0.0,0.0,144,117,113,122,122
2025-02-26 14:03:12.251,-212.0,-1009.0,105.0,2.0,2.0,0.0,144,119,113,123,121
2025-02-26 14:03:12.255,-221.0,-1015.0,84.0,0.0,1.0,0.0,143,117,113,121,120
2025-02-26 14:03:12.263,-226.0,-1016.0,85.0,-3.0,-1.0,1.0,144,118,114,122,121
2025-02-26 14:03:12.268,-229.0,-1008.0,101.0,-3.0,0.0,1.0,142,117,113,122,122
2025-02-26 14:03:12.271,-235.0,-1003.0,83.0,-5.0,1.0,1.0,144,117,114,120,122
2025-02-26 14:03:12.276,-225.0,-996.0,81.0,-7.0,1.0,1.0,144,116,114,121,121
2025-02-26 14:03:12.280,-236.0,-998.0,84.0,-6.0,3.0,1.0,145,118,114,123,123
2025-02-26 14:03:12.287,-240.0,-995.0,85.0,-7.0,2.0,1.0,143,116,113,122,122
2025-02-26 14:03:12.292,-231.0,-1000.0,68.0,-6.0,1.0,1.0,142,117,113,121,121
2025-02-26 14:03:12.296,-234.0,-1007.0,82.0,-4.0,0.0,1.0,146,118,115,116,123
2025-02-26 14:03:12.300,-233.0,-1001.0,76.0,-3.0,-1.0,1.0,145,119,114,121,122
2025-02-26 14:03:12.308,-230.0,-1002.0,103.0,-1.0,-1.0,1.0,144,114,113,121,119
2025-02-26 14:03:12.312,-218.0,-1005.0,90.0,1.0,1.0,1.0,144,117,111,121,122
2025-02-26 14:03:12.317,-224.0,-1015.0,95.0,1.0,2.0,1.0,142,118,115,123,123
2025-02-26 14:03:12.321,-213.0,-1011.0,101.0,0.0,4.0,2.0,144,115,114,122,122
2025-02-26 14:03:12.328,-220.0,-1011.0,87.0,-1.0,4.0,2.0,143,116,113,123,122
2025-02-26 14:03:12.333,-239.0,-1007.0,122.0,2.0,2.0,3.0,144,117,115,122,122
2025-02-26 14:03:12.337,-231.0,-1006.0,106.0,1.0,3.0,3.0,146,118,114,122,123
2025-02-26 14:03:12.341,-243.0,-999.0,102.0,0.0,5.0,4.0,143,117,113,121,121
2025-02-26 14:03:12.345,-247.0,-995.0,83.0,-1.0,4.0,4.0,143,117,114,122,122
2025-02-26 14:03:12.352,-243.0,-1005.0,113.0,-2.0,6.0,4.0,144,116,112,123,122
2025-02-26 14:03:12.357,-239.0,-992.0,121.0,-4.0,9.0,4.0,144,116,114,121,121
2025-02-26 14:03:12.362,-243.0,-996.0,106.0,-6.0,10.0,4.0,144,118,114,122,121
2025-02-26 14:03:12.366,-258.0,-995.0,68.0,-11.0,5.0,4.0,145,120,116,121,122
2025-02-26 14:03:12.374,-248.0,-1003.0,131.0,-11.0,6.0,4.0,145,117,114,123,123
2025-02-26 14:03:12.378,-249.0,-1000.0,116.0,-11.0,5.0,4.0,145,117,113,122,122
2025-02-26 14:03:12.382,-255.0,-999.0,124.0,-12.0,7.0,4.0,142,117,114,123,121
2025-02-26 14:03:12.390,-256.0,-1000.0,115.0,-12.0,7.0,4.0,143,117,112,122,125
2025-02-26 14:03:12.394,-263.0,-1010.0,119.0,-13.0,9.0,5.0,146,118,115,123,123
2025-02-26 14:03:12.398,-264.0,-1000.0,133.0,-11.0,9.0,5.0,142,115,113,122,121
2025-02-26 14:03:12.403,-262.0,-1000.0,127.0,-10.0,8.0,5.0,142,117,113,122,122
2025-02-26 14:03:12.411,-261.0,-1005.0,110.0,-10.0,5.0,5.0,143,118,114,123,123
2025-02-26 14:03:12.415,-259.0,-999.0,137.0,-11.0,4.0,5.0,144,117,114,124,122
2025-02-26 14:03:12.419,-259.0,-1000.0,139.0,-12.0,5.0,5.0,144,117,113,122,122
2025-02-26 14:03:12.424,-253.0,-996.0,93.0,-12.0,4.0,6.0,144,115,112,120,126
2025-02-26 14:03:12.428,-246.0,-998.0,151.0,-15.0,5.0,6.0,141,115,115,122,122
2025-02-26 14:03:12.435,-221.0,-1000.0,114.0,-19.0,8.0,7.0,145,119,113,122,122
2025-02-26 14:03:12.439,-250.0,-1003.0,104.0,-22.0,10.0,9.0,142,114,114,123,122
2025-02-26 14:03:12.447,-221.0,-1002.0,130.0,-23.0,13.0,9.0,139,113,112,124,121
2025-02-26 14:03:12.452,-243.0,-987.0,101.0,-31.0,5.0,9.0,139,113,113,122,121
2025-02-26 14:03:12.456,-213.0,-983.0,147.0,-28.0,5.0,10.0,147,116,114,121,123
2025-02-26 14:03:12.460,-210.0,-986.0,199.0,-31.0,11.0,9.0,144,114,113,123,123
2025-02-26 14:03:12.464,-191.0,-978.0,148.0,-22.0,12.0,9.0,145,115,112,122,121
2025-02-26 14:03:12.472,-219.0,-1014.0,89.0,-22.0,10.0,9.0,144,112,111,121,121
2025-02-26 14:03:12.476,-226.0,-1008.0,130.0,-23.0,10.0,9.0,144,115,113,124,123
2025-02-26 14:03:12.480,-226.0,-1002.0,124.0,-21.0,7.0,8.0,143,112,112,122,123
2025-02-26 14:03:12.489,-244.0,-1015.0,90.0,-26.0,6.0,8.0,143,114,113,122,122
2025-02-26 14:03:12.492,-277.0,-956.0,103.0,-21.0,5.0,8.0,143,114,114,124,122
2025-02-26 14:03:12.497,-222.0,-1014.0,147.0,-16.0,7.0,7.0,144,113,113,122,122
2025-02-26 14:03:12.501,-239.0,-1032.0,110.0,-24.0,4.0,7.0,145,113,112,122,122
2025-02-26 14:03:12.508,-227.0,-977.0,111.0,-26.0,6.0,7.0,143,112,111,121,121
2025-02-26 14:03:12.513,-220.0,-959.0,146.0,-13.0,8.0,6.0,144,113,113,122,123
2025-02-26 14:03:12.517,-228.0,-988.0,144.0,-19.0,16.0,7.0,144,113,113,123,122
2025-02-26 14:03:12.525,-238.0,-950.0,55.0,-13.0,11.0,6.0,143,113,111,120,123
2025-02-26 14:03:12.527,-232.0,-994.0,93.0,-10.0,7.0,6.0,144,112,110,122,121
2025-02-26 14:03:12.533,-235.0,-988.0,106.0,-11.0,4.0,6.0,145,114,112,122,121
2025-02-26 14:03:12.537,-235.0,-992.0,104.0,-14.0,1.0,5.0,145,113,113,121,122
2025-02-26 14:03:12.545,-230.0,-995.0,114.0,-14.0,5.0,6.0,143,112,112,122,123
2025-02-26 14:03:12.549,-237.0,-983.0,119.0,-18.0,8.0,7.0,143,110,111,122,122
2025-02-26 14:03:12.554,-230.0,-978.0,125.0,-16.0,12.0,8.0,145,113,112,122,120
2025-02-26 14:03:12.559,-242.0,-983.0,119.0,-18.0,18.0,8.0,144,112,112,122,122
2025-02-26 14:03:12.566,-259.0,-971.0,65.0,-20.0,17.0,9.0,144,111,111,122,122
2025-02-26 14:03:12.569,-263.0,-965.0,48.0,-21.0,15.0,10.0,144,111,111,121,121
2025-02-26 14:03:12.574,-261.0,-960.0,84.0,-20.0,13.0,10.0,143,112,110,120,120
2025-02-26 14:03:12.579,-262.0,-961.0,67.0,-20.0,10.0,9.0,144,114,113,123,122
2025-02-26 14:03:12.587,-259.0,-950.0,86.0,-19.0,9.0,9.0,143,112,109,122,122
2025-02-26 14:03:12.591,-250.0,-940.0,86.0,-18.0,10.0,9.0,142,112,111,123,122
2025-02-26 14:03:12.595,-252.0,-940.0,53.0,-17.0,10.0,8.0,142,111,109,122,121
2025-02-26 14:03:12.600,-245.0,-945.0,67.0,-16.0,9.0,7.0,145,113,112,124,122
2025-02-26 14:03:12.604,-240.0,-947.0,73.0,-15.0,8.0,7.0,144,112,109,122,121
2025-02-26 14:03:12.611,-241.0,-950.0,58.0,-15.0,7.0,6.0,142,111,110,121,119
2025-02-26 14:03:12.616,-248.0,-941.0,67.0,-15.0,6.0,6.0,144,113,115,123,121
2025-02-26 14:03:12.620,-235.0,-939.0,59.0,-13.0,5.0,6.0,144,112,110,123,123
2025-02-26 14:03:12.628,-245.0,-954.0,58.0,-14.0,5.0,6.0,142,113,110,121,121
2025-02-26 14:03:12.632,-250.0,-953.0,69.0,-13.0,7.0,6.0,144,110,110,121,121
2025-02-26 14:03:12.636,-250.0,-950.0,52.0,-12.0,8.0,6.0,144,113,116,121,122
2025-02-26 14:03:12.640,-256.0,-959.0,16.0,-11.0,7.0,7.0,145,112,110,121,122
2025-02-26 14:03:12.647,-259.0,-946.0,70.0,-7.0,6.0,6.0,143,116,110,123,116
2025-02-26 14:03:12.652,-259.0,-949.0,48.0,-2.0,4.0,6.0,144,112,111,123,121
2025-02-26 14:03:12.657,-261.0,-949.0,27.0,-3.0,1.0,6.0,142,113,114,122,122
2025-02-26 14:03:12.661,-262.0,-939.0,39.0,0.0,3.0,6.0,142,110,110,120,121
2025-02-26 14:03:12.665,-262.0,-940.0,47.0,3.0,3.0,6.0,143,111,110,121,122
2025-02-26 14:03:12.670,-265.0,-923.0,25.0,3.0,0.0,6.0,142,110,110,121,121
2025-02-26 14:03:12.676,-255.0,-947.0,68.0,3.0,2.0,6.0,142,110,110,122,120
2025-02-26 14:03:12.681,-265.0,-939.0,20.0,4.0,0.0,5.0,143,111,109,122,123
2025-02-26 14:03:12.685,-260.0,-957.0,54.0,4.0,1.0,4.0,135,110,109,123,120
2025-02-26 14:03:12.688,-244.0,-945.0,47.0,3.0,2.0,4.0,141,110,109,119,120
2025-02-26 14:03:12.696,-265.0,-944.0,26.0,2.0,-2.0,4.0,147,112,109,123,122
2025-02-26 14:03:12.700,-255.0,-969.0,71.0,0.0,-1.0,3.0,142,110,108,121,120
2025-02-26 14:03:12.705,-249.0,-964.0,68.0,3.0,-1.0,3.0,143,110,112,120,119
2025-02-26 14:03:12.710,-255.0,-966.0,65.0,6.0,-4.0,2.0,143,111,109,122,121
2025-02-26 14:03:12.714,-266.0,-984.0,45.0,6.0,-6.0,2.0,140,112,109,121,122
2025-02-26 14:03:12.722,-267.0,-974.0,67.0,7.0,-6.0,2.0,142,109,108,120,119
2025-02-26 14:03:12.725,-266.0,-976.0,59.0,3.0,-5.0,3.0,143,111,105,119,121
2025-02-26 14:03:12.730,-276.0,-974.0,45.0,2.0,-6.0,4.0,142,112,109,120,120
2025-02-26 14:03:12.734,-273.0,-990.0,83.0,4.0,-6.0,4.0,142,110,112,120,119
2025-02-26 14:03:12.738,-270.0,-999.0,95.0,1.0,-5.0,4.0,142,109,109,120,121
2025-02-26 14:03:12.743,-255.0,-1002.0,75.0,2.0,-4.0,5.0,137,108,108,118,120
2025-02-26 14:03:12.751,-278.0,-1044.0,60.0,-1.0,-7.0,8.0,143,108,108,119,120
2025-02-26 14:03:12.755,-248.0,-1061.0,92.0,0.0,-4.0,8.0,142,109,115,120,120
2025-02-26 14:03:12.759,-226.0,-1105.0,94.0,0.0,-1.0,10.0,142,109,108,121,120
2025-02-26 14:03:12.767,-224.0,-1141.0,72.0,-2.0,5.0,14.0,145,109,106,122,119
2025-02-26 14:03:12.771,-221.0,-1147.0,62.0,-1.0,7.0,18.0,143,107,105,119,120
2025-02-26 14:03:12.773,-215.0,-1157.0,54.0,3.0,14.0,20.0,140,107,107,119,120
2025-02-26 14:03:12.780,-224.0,-1175.0,61.0,6.0,17.0,24.0,143,108,108,122,120
2025-02-26 14:03:12.787,-236.0,-1168.0,56.0,8.0,20.0,28.0,141,107,106,120,119
2025-02-26 14:03:12.792,-245.0,-1164.0,48.0,15.0,21.0,32.0,143,107,105,119,120
2025-02-26 14:03:12.796,-267.0,-1158.0,27.0,21.0,21.0,33.0,143,108,106,120,120
2025-02-26 14:03:12.804,-268.0,-1133.0,49.0,30.0,22.0,36.0,142,107,106,120,119
2025-02-26 14:03:12.804,-278.0,-1129.0,45.0,32.0,20.0,39.0,142,107,105,119,120
2025-02-26 14:03:12.810,-292.0,-1127.0,58.0,33.0,20.0,42.0,142,109,107,120,118
2025-02-26 14:03:12.816,-292.0,-1117.0,29.0,35.0,18.0,43.0,141,101,103,118,118
2025-02-26 14:03:12.824,-303.0,-1112.0,62.0,30.0,21.0,47.0,143,105,105,119,119
2025-02-26 14:03:12.828,-298.0,-1101.0,49.0,31.0,23.0,52.0,142,103,104,117,118
2025-02-26 14:03:12.833,-311.0,-1113.0,48.0,27.0,24.0,57.0,142,103,105,121,120
2025-02-26 14:03:12.840,-295.0,-1077.0,105.0,20.0,30.0,58.0,142,103,103,118,118
2025-02-26 14:03:12.844,-316.0,-1076.0,106.0,21.0,29.0,63.0,143,102,104,118,118
2025-02-26 14:03:12.849,-337.0,-1066.0,105.0,21.0,28.0,66.0,143,101,103,117,118
2025-02-26 14:03:12.853,-326.0,-1045.0,139.0,17.0,30.0,67.0,141,100,102,117,118
2025-02-26 14:03:12.861,-328.0,-1002.0,58.0,17.0,27.0,68.0,143,98,100,115,117
2025-02-26 14:03:12.864,-351.0,-1004.0,96.0,13.0,27.0,68.0,143,98,99,113,115
2025-02-26 14:03:12.869,-349.0,-970.0,69.0,12.0,21.0,67.0,142,96,100,112,116
2025-02-26 14:03:12.870,-347.0,-957.0,71.0,11.0,21.0,66.0,142,95,98,112,116
2025-02-26 14:03:12.881,-340.0,-934.0,26.0,5.0,20.0,63.0,138,93,96,110,115
2025-02-26 14:03:12.882,-352.0,-921.0,26.0,0.0,16.0,62.0,143,92,97,110,115
2025-02-26 14:03:12.889,-361.0,-942.0,74.0,-6.0,15.0,61.0,140,91,96,108,114
2025-02-26 14:03:12.894,-369.0,-933.0,67.0,-9.0,14.0,58.0,145,90,97,106,113
2025-02-26 14:03:12.898,-373.0,-929.0,96.0,-19.0,16.0,58.0,142,91,96,109,114
2025-02-26 14:03:12.906,-397.0,-906.0,71.0,-23.0,18.0,56.0,141,89,95,106,112
2025-02-26 14:03:12.907,-431.0,-916.0,77.0,-33.0,16.0,55.0,142,88,95,105,113
2025-02-26 14:03:12.915,-423.0,-954.0,110.0,-34.0,15.0,53.0,136,88,95,110,112
2025-02-26 14:03:12.919,-412.0,-918.0,141.0,-44.0,28.0,52.0,142,87,95,105,112
2025-02-26 14:03:12.927,-431.0,-894.0,42.0,-39.0,35.0,53.0,140,85,93,104,111
2025-02-26 14:03:12.931,-448.0,-884.0,-2.0,-49.0,34.0,52.0,141,84,92,101,110
2025-02-26 14:03:12.935,-454.0,-876.0,26.0,-48.0,27.0,52.0,140,85,94,102,111
2025-02-26 14:03:12.939,-440.0,-890.0,58.0,-40.0,22.0,50.0,143,83,93,102,110
2025-02-26 14:03:12.947,-445.0,-903.0,75.0,-37.0,22.0,49.0,140,79,90,99,111
2025-02-26 14:03:12.949,-440.0,-893.0,50.0,-30.0,27.0,50.0,142,80,90,100,108
2025-02-26 14:03:12.955,-450.0,-910.0,41.0,-26.0,29.0,51.0,143,74,90,98,109
2025-02-26 14:03:12.960,-436.0,-888.0,76.0,-24.0,30.0,51.0,144,76,88,96,106
2025-02-26 14:03:12.964,-440.0,-877.0,82.0,-20.0,32.0,51.0,140,79,87,94,102
2025-02-26 14:03:12.967,-445.0,-874.0,25.0,-21.0,32.0,51.0,144,76,88,94,105
2025-02-26 14:03:12.975,-406.0,-866.0,18.0,-20.0,19.0,50.0,143,72,92,92,103
2025-02-26 14:03:12.979,-451.0,-837.0,256.0,-19.0,37.0,51.0,141,71,86,91,103
2025-02-26 14:03:12.984,-408.0,-867.0,-11.0,-34.0,53.0,52.0,143,71,85,90,102
2025-02-26 14:03:12.992,-439.0,-849.0,-250.0,-33.0,39.0,54.0,142,69,85,89,101
2025-02-26 14:03:12.996,-446.0,-834.0,-324.0,-34.0,9.0,51.0,141,69,85,88,99
2025-02-26 14:03:13.000,-458.0,-902.0,359.0,-23.0,35.0,55.0,141,68,84,88,100
2025-02-26 14:03:13.005,-419.0,-843.0,196.0,-22.0,52.0,52.0,140,66,85,88,99
2025-02-26 14:03:13.009,-451.0,-814.0,-41.0,-27.0,55.0,55.0,142,65,81,85,97
2025-02-26 14:03:13.016,-471.0,-799.0,-16.0,-14.0,57.0,55.0,142,63,80,85,97
2025-02-26 14:03:13.020,-461.0,-821.0,42.0,-15.0,58.0,54.0,142,63,81,84,96
2025-02-26 14:03:13.025,-488.0,-758.0,-132.0,-13.0,44.0,50.0,141,62,79,82,93
2025-02-26 14:03:13.028,-514.0,-796.0,-13.0,-20.0,35.0,51.0,140,60,78,80,91
2025-02-26 14:03:13.034,-503.0,-752.0,-22.0,-16.0,37.0,50.0,141,60,77,79,91
2025-02-26 14:03:13.041,-480.0,-728.0,-57.0,-16.0,40.0,47.0,141,59,75,77,89
2025-02-26 14:03:13.046,-472.0,-768.0,2.0,-14.0,46.0,48.0,140,61,75,76,89
2025-02-26 14:03:13.046,-460.0,-699.0,-72.0,0.0,40.0,44.0,142,60,75,77,87
2025-02-26 14:03:13.054,-514.0,-714.0,-145.0,0.0,23.0,39.0,140,55,75,75,85
2025-02-26 14:03:13.058,-512.0,-722.0,-110.0,12.0,16.0,37.0,140,57,72,73,84
2025-02-26 14:03:13.066,-509.0,-685.0,-58.0,16.0,9.0,33.0,138,57,73,73,83
2025-02-26 14:03:13.070,-466.0,-614.0,-72.0,23.0,5.0,30.0,140,55,72,72,82
2025-02-26 14:03:13.074,-471.0,-645.0,284.0,16.0,21.0,28.0,140,55,75,70,80
2025-02-26 14:03:13.079,-490.0,-603.0,173.0,20.0,39.0,28.0,141,55,70,69,79
2025-02-26 14:03:13.083,-463.0,-550.0,-54.0,27.0,37.0,26.0,139,55,70,66,78
2025-02-26 14:03:13.088,-464.0,-479.0,87.0,24.0,38.0,24.0,138,52,68,65,74
2025-02-26 14:03:13.095,-482.0,-441.0,54.0,17.0,46.0,23.0,139,54,64,64,76
2025-02-26 14:03:13.096,-530.0,-416.0,41.0,16.0,52.0,22.0,141,52,66,62,71
2025-02-26 14:03:13.103,-532.0,-307.0,192.0,17.0,60.0,20.0,139,50,66,60,69
2025-02-26 14:03:13.107,-507.0,-252.0,154.0,19.0,76.0,19.0,139,52,66,60,67
2025-02-26 14:03:13.111,-507.0,-127.0,177.0,22.0,93.0,13.0,139,52,66,60,65
2025-02-26 14:03:13.119,-487.0,33.0,170.0,23.0,100.0,8.0,138,49,64,59,62
2025-02-26 14:03:13.120,-473.0,35.0,231.0,28.0,132.0,3.0,139,51,63,59,62
2025-02-26 14:03:13.127,-443.0,136.0,159.0,33.0,149.0,-6.0,138,50,62,58,58
2025-02-26 14:03:13.131,-446.0,319.0,5.0,49.0,147.0,-29.0,137,50,61,60,58
2025-02-26 14:03:13.136,-473.0,356.0,-3.0,54.0,137.0,-46.0,138,50,61,61,56
2025-02-26 14:03:13.143,-602.0,640.0,-73.0,64.0,144.0,-79.0,134,50,59,61,54
2025-02-26 14:03:13.148,-633.0,899.0,-299.0,73.0,151.0,-108.0,129,48,57,60,52
2025-02-26 14:03:13.152,-481.0,975.0,-564.0,78.0,150.0,-127.0,125,49,59,64,54
2025-02-26 14:03:13.155,-576.0,1153.0,-706.0,80.0,145.0,-166.0,121,46,57,64,52
2025-02-26 14:03:13.164,-653.0,1161.0,-1420.0,89.0,143.0,-202.0,116,47,56,63,51
2025-02-26 14:03:13.167,-608.0,1330.0,-1834.0,57.0,97.0,-217.0,115,47,56,65,54
2025-02-26 14:03:13.173,-974.0,1003.0,-1838.0,51.0,65.0,-232.0,114,49,56,65,54
2025-02-26 14:03:13.177,-1292.0,578.0,-1696.0,79.0,44.0,-267.0,112,47,55,65,53
2025-02-26 14:03:13.185,-1824.0,587.0,-1517.0,123.0,-16.0,-290.0,113,47,55,63,51
2025-02-26 14:03:13.189,-1774.0,479.0,-1369.0,207.0,-82.0,-341.0,112,48,56,64,54
2025-02-26 14:03:13.191,-1371.0,535.0,-1411.0,247.0,-159.0,-399.0,113,48,57,64,53
2025-02-26 14:03:13.200,-1048.0,629.0,-1245.0,307.0,-198.0,-454.0,112,46,56,65,52
2025-02-26 14:03:13.205,-943.0,536.0,-908.0,343.0,-258.0,-491.0,112,47,56,64,51
2025-02-26 14:03:13.210,-392.0,519.0,-916.0,376.0,-311.0,-514.0,113,47,57,65,53
2025-02-26 14:03:13.217,277.0,248.0,-449.0,377.0,-322.0,-519.0,114,49,58,67,54
2025-02-26 14:03:13.228,969.0,427.0,604.0,343.0,-295.0,-536.0,113,49,59,65,55
2025-02-26 14:03:13.228,1450.0,165.0,1403.0,268.0,-266.0,-504.0,113,48,56,64,51
2025-02-26 14:03:13.234,2223.0,-492.0,1947.0,190.0,-186.0,-479.0,113,49,59,68,54
2025-02-26 14:03:13.237,2677.0,-856.0,2232.0,117.0,-112.0,-421.0,112,50,58,67,54
2025-02-26 14:03:13.242,2719.0,-1597.0,2284.0,76.0,-51.0,-370.0,111,49,58,66,54
2025-02-26 14:03:13.246,2554.0,-2301.0,2050.0,66.0,-5.0,-335.0,111,48,55,66,54
2025-02-26 14:03:13.255,2308.0,-2938.0,1891.0,45.0,14.0,-311.0,109,50,59,67,54
2025-02-26 14:03:13.258,2211.0,-3387.0,1742.0,25.0,36.0,-298.0,110,49,59,66,53
2025-02-26 14:03:13.263,1988.0,-3552.0,1624.0,-4.0,31.0,-259.0,111,49,60,66,53
2025-02-26 14:03:13.271,1729.0,-3813.0,1553.0,-47.0,14.0,-206.0,112,52,60,68,53
2025-02-26 14:03:13.274,1448.0,-3890.0,1338.0,-70.0,-6.0,-135.0,122,61,73,79,66
2025-02-26 14:03:13.277,1429.0,-3770.0,1110.0,-120.0,-11.0,-59.0,120,60,71,78,63
2025-02-26 14:03:13.284,1211.0,-3735.0,1135.0,-152.0,-29.0,-27.0,121,62,72,80,61
2025-02-26 14:03:13.291,1131.0,-3738.0,849.0,-134.0,-51.0,26.0,124,63,74,80,66
2025-02-26 14:03:13.295,1056.0,-3413.0,731.0,-140.0,-58.0,68.0,128,69,76,87,71
2025-02-26 14:03:13.299,952.0,-3158.0,689.0,-147.0,-37.0,99.0,128,70,79,88,73
2025-02-26 14:03:13.307,948.0,-2828.0,483.0,-173.0,-22.0,128.0,122,62,72,78,66
2025-02-26 14:03:13.311,855.0,-2746.0,470.0,-151.0,-17.0,137.0,121,61,71,79,65
2025-02-26 14:03:13.316,771.0,-2459.0,477.0,-116.0,-23.0,151.0,120,62,72,80,66
2025-02-26 14:03:13.320,722.0,-2181.0,344.0,-103.0,-16.0,163.0,121,60,71,78,65
2025-02-26 14:03:13.328,709.0,-1973.0,221.0,-96.0,-7.0,173.0,119,59,69,77,63
2025-02-26 14:03:13.330,639.0,-1907.0,261.0,-93.0,3.0,177.0,122,61,73,82,68
2025-02-26 14:03:13.336,602.0,-1836.0,295.0,-73.0,-3.0,185.0,120,60,72,81,66
2025-02-26 14:03:13.340,584.0,-1819.0,318.0,-63.0,-7.0,195.0,119,59,69,76,64
2025-02-26 14:03:13.349,553.0,-1735.0,221.0,-62.0,-11.0,203.0,118,58,68,78,64
2025-02-26 14:03:13.349,540.0,-1680.0,228.0,-73.0,-4.0,221.0,122,61,72,81,67
2025-02-26 14:03:13.357,542.0,-1649.0,226.0,-84.0,-6.0,238.0,121,60,70,78,65
2025-02-26 14:03:13.361,565.0,-1571.0,241.0,-88.0,-11.0,253.0,118,57,68,76,64
2025-02-26 14:03:13.369,503.0,-1507.0,286.0,-95.0,-12.0,263.0,120,59,69,78,65
2025-02-26 14:03:13.373,492.0,-1409.0,233.0,-99.0,-6.0,277.0,120,61,71,78,65
2025-02-26 14:03:13.377,455.0,-1306.0,247.0,-99.0,-7.0,290.0,117,58,69,77,63
2025-02-26 14:03:13.379,403.0,-1162.0,212.0,-102.0,-8.0,296.0,117,57,68,76,64
2025-02-26 14:03:13.386,392.0,-959.0,19.0,-119.0,0.0,305.0,119,58,69,76,64
2025-02-26 14:03:13.392,296.0,-942.0,251.0,-104.0,1.0,312.0,119,59,69,77,64
2025-02-26 14:03:13.397,295.0,-827.0,275.0,-88.0,-3.0,312.0,118,58,68,76,63
2025-02-26 14:03:13.402,260.0,-735.0,254.0,-73.0,-8.0,311.0,119,57,69,78,65
2025-02-26 14:03:13.406,232.0,-583.0,257.0,-67.0,-8.0,306.0,118,56,67,76,64
2025-02-26 14:03:13.410,210.0,-480.0,271.0,-57.0,-7.0,302.0,118,59,69,77,63
2025-02-26 14:03:13.418,172.0,-400.0,219.0,-61.0,3.0,298.0,118,57,69,76,64
2025-02-26 14:03:13.422,174.0,-252.0,220.0,-68.0,21.0,287.0,118,57,69,75,64
2025-02-26 14:03:13.427,60.0,-122.0,226.0,-82.0,27.0,274.0,116,56,67,74,62
2025-02-26 14:03:13.430,22.0,-109.0,181.0,-78.0,35.0,267.0,119,59,71,76,65
2025-02-26 14:03:13.439,-128.0,-34.0,166.0,-77.0,30.0,251.0,119,58,70,77,65
2025-02-26 14:03:13.443,-153.0,48.0,95.0,-83.0,26.0,236.0,118,56,67,75,63
2025-02-26 14:03:13.446,-236.0,39.0,11.0,-93.0,25.0,228.0,118,58,68,76,65
2025-02-26 14:03:13.451,-337.0,74.0,-6.0,-97.0,26.0,215.0,120,60,72,77,66
2025-02-26 14:03:13.456,-374.0,132.0,-68.0,-98.0,24.0,202.0,117,57,68,76,63
2025-02-26 14:03:13.463,-455.0,143.0,-120.0,-91.0,16.0,195.0,117,57,67,75,64
2025-02-26 14:03:13.468,-524.0,196.0,-128.0,-90.0,5.0,182.0,120,58,68,76,66
2025-02-26 14:03:13.471,-530.0,284.0,-157.0,-87.0,4.0,169.0,118,59,68,76,66
2025-02-26 14:03:13.476,-542.0,328.0,-155.0,-85.0,-1.0,163.0,117,56,67,76,64
2025-02-26 14:03:13.480,-575.0,377.0,-154.0,-71.0,-6.0,149.0,117,58,65,74,61
2025-02-26 14:03:13.487,-547.0,457.0,-138.0,-64.0,-10.0,134.0,118,56,66,75,63
2025-02-26 14:03:13.488,-539.0,468.0,-158.0,-57.0,-19.0,127.0,116,57,66,77,64
2025-02-26 14:03:13.496,-563.0,555.0,-180.0,-55.0,-21.0,114.0,118,57,66,75,63
2025-02-26 14:03:13.501,-584.0,648.0,-250.0,-59.0,-14.0,102.0,117,55,65,74,63
2025-02-26 14:03:13.508,-585.0,746.0,-242.0,-55.0,-14.0,88.0,117,54,64,73,62
2025-02-26 14:03:13.512,-631.0,775.0,-315.0,-39.0,-17.0,80.0,118,59,68,76,65
2025-02-26 14:03:13.516,-716.0,891.0,-325.0,-26.0,-27.0,62.0,116,57,67,76,64
2025-02-26 14:03:13.521,-793.0,1072.0,-447.0,-19.0,-32.0,43.0,117,55,66,75,62
2025-02-26 14:03:13.525,-871.0,1226.0,-503.0,5.0,-36.0,34.0,114,55,64,74,62
2025-02-26 14:03:13.533,-979.0,1312.0,-562.0,30.0,-43.0,12.0,118,57,66,76,65
2025-02-26 14:03:13.537,-1021.0,1467.0,-610.0,42.0,-63.0,-15.0,116,56,65,74,63
2025-02-26 14:03:13.541,-1002.0,1489.0,-605.0,88.0,-61.0,-50.0,115,55,63,73,62
2025-02-26 14:03:13.549,-1067.0,1577.0,-526.0,116.0,-65.0,-72.0,116,54,63,72,61
2025-02-26 14:03:13.553,-971.0,1751.0,-573.0,136.0,-57.0,-129.0,116,56,65,73,62
2025-02-26 14:03:13.555,-883.0,1832.0,-417.0,177.0,-48.0,-199.0,116,56,64,75,65
2025-02-26 14:03:13.565,-779.0,1892.0,-410.0,190.0,-41.0,-274.0,116,55,64,74,62
2025-02-26 14:03:13.567,-785.0,1807.0,-355.0,212.0,-43.0,-351.0,114,54,63,72,62
2025-02-26 14:03:13.574,-679.0,1761.0,-317.0,221.0,-52.0,-388.0,116,54,65,73,63
2025-02-26 14:03:13.578,-588.0,1518.0,-278.0,230.0,-75.0,-458.0,116,55,65,74,64
2025-02-26 14:03:13.586,-531.0,1197.0,-304.0,231.0,-111.0,-522.0,117,58,65,74,63
2025-02-26 14:03:13.591,-343.0,796.0,-285.0,229.0,-150.0,-577.0,117,54,65,74,64
2025-02-26 14:03:13.594,-244.0,316.0,-193.0,224.0,-165.0,-617.0,114,54,63,72,64
2025-02-26 14:03:13.602,135.0,78.0,100.0,221.0,-183.0,-628.0,114,54,64,73,63
2025-02-26 14:03:13.606,747.0,-534.0,285.0,208.0,-179.0,-620.0,118,56,65,74,64
2025-02-26 14:03:13.611,1300.0,-1270.0,753.0,208.0,-153.0,-562.0,117,56,66,76,66
2025-02-26 14:03:13.619,1563.0,-2293.0,1193.0,213.0,-136.0,-445.0,116,54,65,73,63
2025-02-26 14:03:13.623,1732.0,-3334.0,1442.0,209.0,-93.0,-326.0,115,54,65,73,62
2025-02-26 14:03:13.627,2311.0,-3905.0,1985.0,196.0,-36.0,-269.0,116,54,67,73,63
2025-02-26 14:03:13.631,2661.0,-4977.0,2458.0,235.0,21.0,-157.0,116,56,70,76,64
2025-02-26 14:03:13.640,2744.0,-5758.0,2402.0,327.0,71.0,-51.0,120,59,72,75,65
2025-02-26 14:03:13.643,2510.0,-6044.0,2118.0,337.0,132.0,39.0,120,58,72,71,63
2025-02-26 14:03:13.648,2292.0,-5704.0,1445.0,340.0,178.0,125.0,121,58,74,71,64
2025-02-26 14:03:13.655,1716.0,-5211.0,1555.0,265.0,231.0,164.0,123,56,76,71,60
2025-02-26 14:03:13.659,1159.0,-4091.0,1236.0,266.0,206.0,224.0,121,58,74,74,63
2025-02-26 14:03:13.664,668.0,-2928.0,1645.0,237.0,46.0,205.0,122,61,76,73,63
2025-02-26 14:03:13.668,257.0,-1547.0,1223.0,109.0,59.0,190.0,116,59,74,71,61
2025-02-26 14:03:13.676,241.0,-1272.0,1140.0,-46.0,31.0,174.0,117,57,73,70,60
2025-02-26 14:03:13.680,250.0,-876.0,1229.0,-166.0,-14.0,131.0,117,57,72,71,61
2025-02-26 14:03:13.684,186.0,-1059.0,979.0,-211.0,-40.0,96.0,118,60,74,75,64
2025-02-26 14:03:13.689,357.0,-1386.0,933.0,-309.0,-55.0,69.0,118,60,75,77,66
2025-02-26 14:03:13.696,132.0,-1664.0,596.0,-310.0,-54.0,65.0,118,58,71,75,64
2025-02-26 14:03:13.701,35.0,-1894.0,545.0,-288.0,-33.0,70.0,119,60,72,78,66
2025-02-26 14:03:13.705,85.0,-2173.0,338.0,-290.0,-6.0,84.0,119,57,70,77,67
2025-02-26 14:03:13.709,132.0,-2300.0,433.0,-248.0,0.0,94.0,119,59,70,78,68
2025-02-26 14:03:13.717,110.0,-2239.0,268.0,-255.0,-3.0,104.0,119,59,69,78,68
2025-02-26 14:03:13.721,131.0,-2168.0,275.0,-260.0,8.0,126.0,120,58,69,79,68
2025-02-26 14:03:13.726,179.0,-2035.0,253.0,-265.0,10.0,150.0,120,60,68,77,68
2025-02-26 14:03:13.730,108.0,-1958.0,339.0,-272.0,6.0,161.0,121,60,70,78,68
2025-02-26 14:03:13.738,47.0,-1775.0,333.0,-260.0,-18.0,179.0,122,60,68,81,70
2025-02-26 14:03:13.742,126.0,-1537.0,362.0,-266.0,-41.0,195.0,121,59,69,78,69
2025-02-26 14:03:13.745,172.0,-1391.0,260.0,-247.0,-37.0,213.0,121,60,69,77,68
2025-02-26 14:03:13.750,181.0,-1276.0,309.0,-277.0,-18.0,222.0,121,60,69,77,69
2025-02-26 14:03:13.756,164.0,-1150.0,371.0,-277.0,-17.0,234.0,122,60,70,78,70
2025-02-26 14:03:13.762,120.0,-961.0,271.0,-271.0,-44.0,239.0,122,59,71,78,68
2025-02-26 14:03:13.766,53.0,-773.0,304.0,-284.0,-50.0,244.0,123,54,70,77,68
2025-02-26 14:03:13.771,85.0,-630.0,286.0,-285.0,-45.0,246.0,122,59,71,78,69
2025-02-26 14:03:13.778,57.0,-498.0,274.0,-265.0,-54.0,238.0,122,61,71,78,69
2025-02-26 14:03:13.783,-28.0,-403.0,205.0,-256.0,-66.0,227.0,124,60,72,78,68
2025-02-26 14:03:13.787,-21.0,-335.0,175.0,-239.0,-66.0,218.0,124,57,69,77,67
2025-02-26 14:03:13.791,-105.0,-273.0,177.0,-239.0,-58.0,216.0,125,59,72,76,69
2025-02-26 14:03:13.798,-112.0,-246.0,132.0,-238.0,-54.0,213.0,127,60,73,78,69
2025-02-26 14:03:13.803,-173.0,-228.0,105.0,-231.0,-63.0,205.0,127,59,72,76,69
2025-02-26 14:03:13.805,-191.0,-180.0,179.0,-236.0,-63.0,198.0,127,58,71,75,67
2025-02-26 14:03:13.816,-189.0,-130.0,90.0,-209.0,-52.0,197.0,127,60,75,75,69
2025-02-26 14:03:13.817,-180.0,-114.0,50.0,-183.0,-43.0,195.0,131,60,72,75,71
2025-02-26 14:03:13.824,-219.0,-44.0,20.0,-170.0,-38.0,189.0,130,61,70,75,66
2025-02-26 14:03:13.828,-224.0,-9.0,35.0,-145.0,-31.0,187.0,129,58,70,76,67
2025-02-26 14:03:13.836,-283.0,39.0,-89.0,-125.0,-21.0,185.0,132,61,73,76,68
2025-02-26 14:03:13.840,-267.0,103.0,50.0,-112.0,-16.0,176.0,133,60,71,76,69
2025-02-26 14:03:13.844,-336.0,165.0,-49.0,-96.0,-15.0,161.0,135,58,70,70,68
2025-02-26 14:03:13.849,-407.0,186.0,-123.0,-71.0,2.0,158.0,133,59,71,74,67
2025-02-26 14:03:13.853,-448.0,241.0,-175.0,-46.0,16.0,150.0,135,61,71,77,72
2025-02-26 14:03:13.860,-482.0,246.0,-144.0,-35.0,24.0,138.0,134,59,69,76,69
2025-02-26 14:03:13.865,-492.0,271.0,-183.0,-13.0,24.0,131.0,137,60,69,75,69
2025-02-26 14:03:13.870,-539.0,280.0,-251.0,12.0,19.0,121.0,136,60,70,77,70
2025-02-26 14:03:13.875,-539.0,328.0,-88.0,10.0,18.0,111.0,141,59,68,77,70
2025-02-26 14:03:13.881,-557.0,341.0,-320.0,23.0,11.0,101.0,135,58,68,76,70
2025-02-26 14:03:13.886,-615.0,396.0,-333.0,19.0,5.0,96.0,136,61,69,75,72
2025-02-26 14:03:13.890,-626.0,497.0,-348.0,14.0,-2.0,88.0,137,59,70,76,70
2025-02-26 14:03:13.894,-646.0,572.0,-326.0,17.0,-5.0,76.0,138,60,69,76,67
2025-02-26 14:03:13.897,-689.0,646.0,-316.0,17.0,-16.0,69.0,139,60,70,77,72
2025-02-26 14:03:13.905,-747.0,841.0,-313.0,16.0,-27.0,53.0,139,61,68,77,73
2025-02-26 14:03:13.909,-809.0,1037.0,-235.0,21.0,-35.0,30.0,139,59,69,77,71
2025-02-26 14:03:13.914,-913.0,1167.0,-224.0,28.0,-48.0,16.0,142,61,70,77,72
2025-02-26 14:03:13.918,-1001.0,1392.0,-174.0,30.0,-64.0,-18.0,142,61,70,76,70
2025-02-26 14:03:13.926,-1064.0,1587.0,-153.0,42.0,-72.0,-60.0,136,59,69,83,70
2025-02-26 14:03:13.930,-1121.0,1707.0,-139.0,55.0,-88.0,-86.0,142,60,70,77,70
2025-02-26 14:03:13.935,-1177.0,1763.0,-83.0,69.0,-101.0,-146.0,143,61,71,78,72
2025-02-26 14:03:13.939,-1118.0,1741.0,-67.0,91.0,-101.0,-205.0,145,60,70,79,71
2025-02-26 14:03:13.947,-1043.0,1684.0,-41.0,94.0,-100.0,-259.0,144,60,69,78,72
2025-02-26 14:03:13.951,-1018.0,1662.0,63.0,117.0,-98.0,-307.0,146,64,72,78,72
2025-02-26 14:03:13.955,-1023.0,1641.0,138.0,136.0,-104.0,-330.0,145,61,69,77,71
2025-02-26 14:03:13.963,-986.0,1573.0,180.0,171.0,-116.0,-377.0,148,63,70,77,72
2025-02-26 14:03:13.967,-875.0,1462.0,215.0,203.0,-138.0,-423.0,149,61,71,79,73
2025-02-26 14:03:13.971,-787.0,1437.0,194.0,212.0,-157.0,-471.0,149,63,70,78,74
2025-02-26 14:03:13.975,-687.0,1315.0,296.0,228.0,-162.0,-522.0,146,60,69,77,71
2025-02-26 14:03:13.983,-491.0,1315.0,310.0,230.0,-158.0,-545.0,148,60,68,76,65
2025-02-26 14:03:13.986,-202.0,1047.0,274.0,227.0,-139.0,-583.0,149,61,69,78,73
2025-02-26 14:03:13.992,132.0,786.0,176.0,209.0,-111.0,-613.0,151,57,71,78,73
2025-02-26 14:03:13.998,397.0,265.0,82.0,199.0,-98.0,-624.0,149,60,69,77,68
2025-02-26 14:03:14.004,533.0,35.0,35.0,171.0,-97.0,-622.0,148,59,68,75,69
2025-02-26 14:03:14.008,802.0,-450.0,64.0,165.0,-103.0,-610.0,150,61,71,77,69
2025-02-26 14:03:14.012,1275.0,-1223.0,150.0,160.0,-96.0,-581.0,150,65,70,77,65
2025-02-26 14:03:14.020,1568.0,-2152.0,116.0,136.0,-89.0,-531.0,150,59,69,76,68
2025-02-26 14:03:14.023,2087.0,-2795.0,555.0,122.0,-68.0,-490.0,149,56,69,76,66
2025-02-26 14:03:14.029,2670.0,-4042.0,1154.0,140.0,-9.0,-397.0,151,59,71,77,68
2025-02-26 14:03:14.033,3175.0,-5070.0,1295.0,152.0,25.0,-302.0,153,61,74,77,68
2025-02-26 14:03:14.041,3381.0,-5773.0,1524.0,175.0,85.0,-211.0,155,62,75,75,68
2025-02-26 14:03:14.045,3527.0,-6304.0,1083.0,283.0,100.0,-117.0,149,54,70,68,61
2025-02-26 14:03:14.047,3282.0,-6248.0,1138.0,356.0,124.0,-60.0,150,55,69,66,60
2025-02-26 14:03:14.057,2848.0,-6066.0,969.0,352.0,160.0,7.0,146,53,68,66,57
2025-02-26 14:03:14.059,2203.0,-5015.0,983.0,256.0,268.0,99.0,150,54,66,64,57
2025-02-26 14:03:14.066,1690.0,-3328.0,843.0,145.0,310.0,192.0,147,54,67,64,55
2025-02-26 14:03:14.070,1671.0,-3156.0,794.0,27.0,302.0,214.0,148,53,67,66,58
2025-02-26 14:03:14.078,945.0,-2146.0,811.0,-63.0,174.0,203.0,152,55,69,69,59
2025-02-26 14:03:14.082,792.0,-1775.0,690.0,-123.0,56.0,179.0,153,59,73,74,62
2025-02-26 14:03:14.083,563.0,-1487.0,422.0,-167.0,9.0,167.0,154,59,73,72,63
2025-02-26 14:03:14.090,334.0,-1415.0,236.0,-180.0,-45.0,167.0,154,59,73,75,65
2025-02-26 14:03:14.096,309.0,-1665.0,198.0,-203.0,-67.0,158.0,157,59,73,76,66
2025-02-26 14:03:14.102,275.0,-1870.0,144.0,-199.0,-88.0,158.0,154,59,73,77,65
2025-02-26 14:03:14.114,248.0,-2009.0,252.0,-192.0,-93.0,163.0,154,59,72,76,65
2025-02-26 14:03:14.118,246.0,-2099.0,228.0,-237.0,-72.0,172.0,153,56,72,76,62
2025-02-26 14:03:14.121,257.0,-2146.0,267.0,-269.0,-40.0,187.0,155,59,72,77,65
2025-02-26 14:03:14.123,240.0,-2101.0,277.0,-279.0,-18.0,205.0,154,60,71,77,65
2025-02-26 14:03:14.127,352.0,-1895.0,366.0,-278.0,-1.0,221.0,153,57,69,75,63
2025-02-26 14:03:14.135,352.0,-1758.0,330.0,-268.0,6.0,230.0,154,58,69,76,63
2025-02-26 14:03:14.136,436.0,-1712.0,381.0,-249.0,10.0,241.0,155,59,69,74,65
2025-02-26 14:03:14.143,349.0,-1405.0,240.0,-250.0,21.0,256.0,156,57,70,70,65
2025-02-26 14:03:14.148,375.0,-1228.0,375.0,-235.0,18.0,258.0,154,57,69,74,63
2025-02-26 14:03:14.156,211.0,-1072.0,307.0,-211.0,6.0,256.0,154,55,69,72,64
2025-02-26 14:03:14.160,201.0,-865.0,367.0,-189.0,-13.0,247.0,154,58,73,75,65
2025-02-26 14:03:14.164,80.0,-661.0,355.0,-186.0,-23.0,243.0,154,58,70,72,63
2025-02-26 14:03:14.168,125.0,-465.0,304.0,-181.0,-21.0,239.0,153,57,70,73,62
2025-02-26 14:03:14.176,23.0,-331.0,334.0,-174.0,-2.0,239.0,154,59,72,73,65
2025-02-26 14:03:14.180,22.0,-167.0,308.0,-158.0,21.0,237.0,154,59,71,73,64
2025-02-26 14:03:14.184,5.0,-103.0,341.0,-146.0,25.0,230.0,154,58,72,73,63
2025-02-26 14:03:14.188,-130.0,-61.0,337.0,-137.0,20.0,226.0,155,59,72,73,65
2025-02-26 14:03:14.193,-168.0,-51.0,200.0,-128.0,16.0,209.0,157,61,73,74,66
2025-02-26 14:03:14.200,-242.0,-43.0,195.0,-121.0,5.0,193.0,155,59,71,72,64
2025-02-26 14:03:14.203,-291.0,-34.0,51.0,-118.0,11.0,186.0,154,61,71,71,64
2025-02-26 14:03:14.209,-293.0,4.0,10.0,-92.0,13.0,178.0,156,60,74,73,66
2025-02-26 14:03:14.213,-361.0,-38.0,-7.0,-86.0,14.0,167.0,155,60,72,74,66
2025-02-26 14:03:14.217,-375.0,-49.0,-84.0,-84.0,11.0,163.0,154,60,72,76,66
2025-02-26 14:03:14.224,-390.0,-71.0,-70.0,-79.0,1.0,152.0,157,61,74,74,67
2025-02-26 14:03:14.229,-442.0,-88.0,-90.0,-73.0,-3.0,143.0,157,60,72,76,68
2025-02-26 14:03:14.234,-419.0,-143.0,-122.0,-67.0,-5.0,142.0,156,60,74,77,67
2025-02-26 14:03:14.238,-478.0,-116.0,-149.0,-50.0,-6.0,139.0,157,62,74,78,68
2025-02-26 14:03:14.246,-457.0,-130.0,-188.0,-45.0,0.0,137.0,156,59,73,78,67
2025-02-26 14:03:14.250,-500.0,-98.0,-165.0,-42.0,3.0,136.0,154,59,71,74,67
2025-02-26 14:03:14.254,-510.0,-64.0,-264.0,-42.0,14.0,138.0,156,62,73,78,68
2025-02-26 14:03:14.259,-607.0,-85.0,-261.0,-40.0,18.0,138.0,156,61,74,77,68
2025-02-26 14:03:14.262,-556.0,-65.0,-242.0,-33.0,21.0,133.0,154,59,70,75,66
2025-02-26 14:03:14.270,-574.0,-39.0,-148.0,-24.0,19.0,129.0,153,59,71,75,66
2025-02-26 14:03:14.275,-563.0,-6.0,-233.0,-26.0,24.0,124.0,158,62,73,78,69
2025-02-26 14:03:14.279,-644.0,9.0,-184.0,-26.0,26.0,119.0,155,59,72,77,67
2025-02-26 14:03:14.283,-639.0,-10.0,-148.0,-18.0,24.0,113.0,154,58,70,75,67
2025-02-26 14:03:14.291,-580.0,10.0,-105.0,-15.0,22.0,101.0,156,61,73,79,68
2025-02-26 14:03:14.295,-608.0,38.0,-83.0,-14.0,25.0,91.0,156,61,73,77,69
2025-02-26 14:03:14.299,-586.0,60.0,-84.0,-16.0,24.0,89.0,155,57,71,75,69
2025-02-26 14:03:14.303,-617.0,54.0,-91.0,-1.0,20.0,80.0,156,62,73,77,68
2025-02-26 14:03:14.308,-647.0,34.0,-77.0,2.0,15.0,71.0,156,61,73,78,68
2025-02-26 14:03:14.311,-651.0,122.0,-90.0,11.0,10.0,65.0,155,60,70,76,68
2025-02-26 14:03:14.316,-746.0,95.0,-53.0,18.0,3.0,51.0,155,62,73,78,69
2025-02-26 14:03:14.324,-730.0,129.0,-97.0,18.0,-5.0,38.0,156,57,72,76,66
2025-02-26 14:03:14.327,-752.0,151.0,-105.0,26.0,-10.0,30.0,155,60,71,74,67
2025-02-26 14:03:14.332,-779.0,174.0,-91.0,23.0,-18.0,15.0,156,61,68,76,68
2025-02-26 14:03:14.336,-811.0,215.0,-110.0,24.0,-29.0,2.0,156,60,73,78,68
2025-02-26 14:03:14.340,-822.0,213.0,-73.0,27.0,-34.0,-4.0,155,60,71,75,67
2025-02-26 14:03:14.348,-819.0,232.0,-64.0,35.0,-46.0,-20.0,156,61,72,77,68
2025-02-26 14:03:14.352,-855.0,229.0,13.0,42.0,-54.0,-38.0,157,61,70,78,68
2025-02-26 14:03:14.356,-857.0,257.0,83.0,57.0,-54.0,-55.0,155,59,71,76,67
2025-02-26 14:03:14.360,-856.0,287.0,104.0,72.0,-50.0,-65.0,155,60,73,76,67
2025-02-26 14:03:14.362,-875.0,374.0,167.0,77.0,-39.0,-81.0,156,61,71,76,67
2025-02-26 14:03:14.372,-867.0,459.0,258.0,97.0,-31.0,-99.0,152,59,71,76,67
2025-02-26 14:03:14.376,-921.0,487.0,242.0,101.0,-12.0,-106.0,155,60,73,77,68
2025-02-26 14:03:14.380,-915.0,594.0,340.0,109.0,2.0,-122.0,155,58,71,76,67
2025-02-26 14:03:14.386,-923.0,619.0,334.0,142.0,11.0,-146.0,156,59,71,74,66
2025-02-26 14:03:14.393,-946.0,646.0,281.0,163.0,32.0,-160.0,157,60,72,78,68
2025-02-26 14:03:14.398,-862.0,762.0,265.0,173.0,48.0,-189.0,156,60,72,78,67
2025-02-26 14:03:14.402,-850.0,856.0,141.0,205.0,54.0,-220.0,154,61,69,76,66
2025-02-26 14:03:14.405,-860.0,907.0,12.0,246.0,49.0,-237.0,156,61,71,78,68
2025-02-26 14:03:14.413,-873.0,964.0,83.0,274.0,40.0,-276.0,156,63,73,78,69
2025-02-26 14:03:14.417,-835.0,970.0,-51.0,273.0,44.0,-322.0,156,61,70,76,68
2025-02-26 14:03:14.422,-837.0,972.0,-192.0,272.0,59.0,-348.0,156,61,71,78,68
2025-02-26 14:03:14.426,-725.0,1017.0,-214.0,253.0,79.0,-400.0,155,61,72,80,69
2025-02-26 14:03:14.434,-587.0,992.0,-390.0,249.0,75.0,-450.0,157,60,70,74,68
2025-02-26 14:03:14.436,-542.0,954.0,-512.0,246.0,49.0,-470.0,155,59,70,78,67
2025-02-26 14:03:14.440,-483.0,845.0,-504.0,254.0,9.0,-500.0,155,62,75,78,68
2025-02-26 14:03:14.447,-440.0,705.0,-571.0,257.0,-11.0,-525.0,155,60,71,78,68
2025-02-26 14:03:14.454,-356.0,532.0,-604.0,268.0,-52.0,-527.0,159,61,71,78,68
2025-02-26 14:03:14.459,15.0,384.0,-377.0,274.0,-89.0,-518.0,158,63,73,78,70
2025-02-26 14:03:14.463,367.0,-152.0,-307.0,269.0,-116.0,-482.0,157,61,72,80,69
2025-02-26 14:03:14.466,981.0,-831.0,25.0,270.0,-131.0,-450.0,155,62,72,79,69
2025-02-26 14:03:14.475,1425.0,-1596.0,331.0,255.0,-132.0,-437.0,155,59,72,78,68
2025-02-26 14:03:14.478,2017.0,-2006.0,576.0,227.0,-127.0,-430.0,157,62,73,79,69
2025-02-26 14:03:14.484,2281.0,-2891.0,743.0,222.0,-131.0,-403.0,157,63,73,80,68
2025-02-26 14:03:14.491,2466.0,-3682.0,1111.0,209.0,-134.0,-354.0,158,64,76,81,69
2025-02-26 14:03:14.496,2699.0,-4444.0,1371.0,198.0,-127.0,-282.0,159,62,75,78,69
2025-02-26 14:03:14.500,2817.0,-5075.0,1515.0,141.0,-111.0,-187.0,157,61,75,76,66
2025-02-26 14:03:14.507,2770.0,-5295.0,1518.0,69.0,-42.0,-85.0,157,62,76,74,67
2025-02-26 14:03:14.512,2505.0,-5172.0,1420.0,46.0,60.0,-28.0,160,63,79,74,67
2025-02-26 14:03:14.517,2221.0,-4813.0,1284.0,59.0,134.0,69.0,162,67,83,76,69
2025-02-26 14:03:14.520,1943.0,-4176.0,1321.0,118.0,122.0,141.0,159,63,79,74,66
2025-02-26 14:03:14.528,1977.0,-3266.0,1676.0,103.0,81.0,157.0,156,60,77,71,64
2025-02-26 14:03:14.532,1656.0,-3051.0,1515.0,58.0,34.0,153.0,159,64,83,73,66
2025-02-26 14:03:14.537,1348.0,-2399.0,1290.0,-34.0,32.0,159.0,161,70,79,78,68
2025-02-26 14:03:14.544,944.0,-1794.0,1250.0,-61.0,32.0,173.0,157,59,75,72,63
2025-02-26 14:03:14.548,740.0,-1521.0,846.0,-94.0,1.0,163.0,152,58,71,70,61
2025-02-26 14:03:14.550,563.0,-1775.0,952.0,-106.0,-35.0,156.0,154,60,73,71,64
2025-02-26 14:03:14.557,514.0,-1632.0,625.0,-107.0,-71.0,141.0,153,58,72,72,62
2025-02-26 14:03:14.564,196.0,-1609.0,650.0,-138.0,-47.0,148.0,152,57,71,72,62
2025-02-26 14:03:14.568,245.0,-1633.0,496.0,-132.0,-32.0,165.0,152,59,70,71,62
2025-02-26 14:03:14.574,255.0,-1938.0,637.0,-169.0,-10.0,163.0,152,56,69,73,61
2025-02-26 14:03:14.578,275.0,-1794.0,444.0,-165.0,-1.0,167.0,153,57,72,74,64
2025-02-26 14:03:14.586,215.0,-1778.0,482.0,-181.0,-6.0,179.0,153,56,71,73,63
2025-02-26 14:03:14.586,315.0,-1734.0,620.0,-211.0,-11.0,185.0,153,57,72,75,64
2025-02-26 14:03:14.591,277.0,-1650.0,502.0,-220.0,-9.0,190.0,152,56,69,72,61
2025-02-26 14:03:14.599,316.0,-1562.0,494.0,-237.0,0.0,204.0,152,57,68,73,63
2025-02-26 14:03:14.604,296.0,-1441.0,600.0,-250.0,0.0,220.0,152,57,68,73,63
2025-02-26 14:03:14.610,313.0,-1311.0,442.0,-272.0,-2.0,234.0,153,55,68,73,62
2025-02-26 14:03:14.615,346.0,-1266.0,440.0,-276.0,-8.0,239.0,153,57,69,72,63
2025-02-26 14:03:14.619,263.0,-1086.0,446.0,-286.0,-12.0,249.0,153,57,70,73,62
2025-02-26 14:03:14.627,237.0,-940.0,416.0,-292.0,-9.0,257.0,152,57,70,73,64
2025-02-26 14:03:14.629,217.0,-766.0,266.0,-290.0,-16.0,263.0,152,58,71,74,64
2025-02-26 14:03:14.635,222.0,-684.0,329.0,-285.0,-21.0,265.0,154,57,72,73,65
2025-02-26 14:03:14.639,179.0,-600.0,333.0,-280.0,-22.0,265.0,154,59,68,73,64
2025-02-26 14:03:14.647,120.0,-551.0,318.0,-277.0,-25.0,262.0,152,57,70,71,58
2025-02-26 14:03:14.651,135.0,-495.0,274.0,-278.0,-23.0,263.0,153,58,72,71,65
2025-02-26 14:03:14.652,102.0,-416.0,334.0,-256.0,-27.0,261.0,154,58,73,72,64
2025-02-26 14:03:14.660,51.0,-411.0,233.0,-244.0,-32.0,253.0,153,58,72,70,64
2025-02-26 14:03:14.667,27.0,-408.0,225.0,-235.0,-33.0,247.0,152,56,71,70,65
2025-02-26 14:03:14.670,-96.0,-384.0,130.0,-219.0,-37.0,243.0,153,57,71,71,65
2025-02-26 14:03:14.676,-154.0,-343.0,95.0,-189.0,-47.0,235.0,151,58,74,72,66
2025-02-26 14:03:14.680,-228.0,-341.0,58.0,-169.0,-52.0,224.0,153,58,73,72,65
2025-02-26 14:03:14.688,-251.0,-283.0,125.0,-139.0,-50.0,215.0,151,57,72,71,67
2025-02-26 14:03:14.692,-305.0,-303.0,5.0,-117.0,-43.0,211.0,148,57,74,71,67
2025-02-26 14:03:14.696,-379.0,-209.0,-7.0,-85.0,-37.0,204.0,153,58,73,73,68
2025-02-26 14:03:14.700,-443.0,-134.0,-11.0,-65.0,-25.0,199.0,153,60,74,72,69
2025-02-26 14:03:14.708,-464.0,-91.0,-117.0,-41.0,-19.0,196.0,151,59,73,74,69
2025-02-26 14:03:14.713,-458.0,-18.0,-172.0,-1.0,-16.0,191.0,151,56,76,73,68
2025-02-26 14:03:14.717,-506.0,-22.0,-150.0,8.0,-11.0,188.0,151,62,75,78,73
2025-02-26 14:03:14.721,-522.0,-14.0,-155.0,17.0,-5.0,186.0,148,60,72,81,72
2025-02-26 14:03:14.728,-571.0,24.0,-343.0,55.0,3.0,181.0,152,62,74,76,73
2025-02-26 14:03:14.733,-608.0,78.0,-412.0,75.0,-4.0,174.0,151,59,76,80,76
2025-02-26 14:03:14.737,-500.0,109.0,58.0,68.0,11.0,168.0,151,66,75,79,74
2025-02-26 14:03:14.742,-483.0,122.0,-279.0,49.0,46.0,167.0,147,61,74,74,74
2025-02-26 14:03:14.745,-485.0,235.0,-281.0,53.0,29.0,159.0,152,63,76,77,78
2025-02-26 14:03:14.750,-423.0,244.0,124.0,56.0,29.0,157.0,151,61,78,80,78
2025-02-26 14:03:14.758,-441.0,247.0,127.0,82.0,60.0,154.0,151,61,75,77,79
2025-02-26 14:03:14.762,-561.0,302.0,-95.0,80.0,56.0,146.0,150,63,77,79,75
2025-02-26 14:03:14.765,-651.0,361.0,-229.0,73.0,49.0,135.0,151,63,76,79,81
2025-02-26 14:03:14.769,-673.0,375.0,-91.0,86.0,39.0,127.0,148,63,78,81,81
2025-02-26 14:03:14.775,-766.0,346.0,-104.0,82.0,38.0,111.0,150,65,79,84,85
2025-02-26 14:03:14.782,-802.0,504.0,-225.0,81.0,25.0,90.0,150,66,79,84,86
2025-02-26 14:03:14.786,-860.0,547.0,-198.0,87.0,22.0,79.0,149,65,81,84,88
2025-02-26 14:03:14.790,-944.0,656.0,-144.0,91.0,17.0,57.0,150,65,81,87,95
2025-02-26 14:03:14.794,-964.0,811.0,-63.0,99.0,8.0,31.0,150,68,82,89,93
2025-02-26 14:03:14.799,-1009.0,940.0,-154.0,116.0,-4.0,16.0,147,70,84,89,93
2025-02-26 14:03:14.806,-1044.0,1001.0,-125.0,129.0,-18.0,-16.0,149,70,86,91,97
2025-02-26 14:03:14.811,-1070.0,1117.0,-52.0,139.0,-18.0,-45.0,149,74,90,96,98
2025-02-26 14:03:14.815,-1090.0,1150.0,-106.0,163.0,-16.0,-72.0,149,73,88,94,100
2025-02-26 14:03:14.823,-1093.0,1167.0,-154.0,174.0,-14.0,-85.0,150,74,91,96,106
2025-02-26 14:03:14.827,-1043.0,1185.0,-190.0,184.0,-6.0,-118.0,150,81,92,96,103
2025-02-26 14:03:14.832,-940.0,1116.0,-209.0,186.0,-3.0,-152.0,151,84,95,97,104
2025-02-26 14:03:14.839,-945.0,995.0,-366.0,186.0,-10.0,-189.0,149,85,95,98,104
2025-02-26 14:03:14.844,-949.0,905.0,-408.0,196.0,-27.0,-209.0,149,89,97,99,105
2025-02-26 14:03:14.848,-965.0,861.0,-519.0,196.0,-44.0,-251.0,151,93,100,101,108
2025-02-26 14:03:14.855,-995.0,779.0,-587.0,201.0,-74.0,-299.0,150,95,100,101,108
2025-02-26 14:03:14.859,-870.0,817.0,-745.0,195.0,-111.0,-352.0,149,96,101,105,107
2025-02-26 14:03:14.864,-799.0,818.0,-721.0,196.0,-144.0,-405.0,150,99,101,106,107
2025-02-26 14:03:14.872,-880.0,582.0,-653.0,209.0,-158.0,-437.0,149,100,102,109,109
2025-02-26 14:03:14.876,-959.0,782.0,-652.0,223.0,-166.0,-484.0,149,101,103,110,110
2025-02-26 14:03:14.881,-925.0,765.0,-958.0,242.0,-198.0,-518.0,151,103,100,111,111
2025-02-26 14:03:14.889,-463.0,296.0,-595.0,228.0,-248.0,-519.0,149,107,103,115,111
2025-02-26 14:03:14.893,-165.0,22.0,289.0,249.0,-249.0,-517.0,147,107,103,113,113
2025-02-26 14:03:14.901,268.0,-282.0,518.0,249.0,-238.0,-529.0,150,108,104,115,113
2025-02-26 14:03:14.905,629.0,-414.0,574.0,266.0,-211.0,-514.0,150,110,105,117,115
2025-02-26 14:03:14.909,1064.0,-422.0,574.0,263.0,-208.0,-507.0,151,112,107,118,116
2025-02-26 14:03:14.917,1375.0,-593.0,455.0,256.0,-222.0,-500.0,150,112,106,116,118
2025-02-26 14:03:14.920,1496.0,-957.0,297.0,252.0,-244.0,-488.0,152,114,108,118,115
2025-02-26 14:03:14.925,1882.0,-1505.0,-81.0,197.0,-279.0,-456.0,151,114,107,118,116
2025-02-26 14:03:14.934,2263.0,-2199.0,-47.0,145.0,-289.0,-396.0,152,115,107,119,118
2025-02-26 14:03:14.938,2399.0,-2811.0,527.0,64.0,-255.0,-324.0,151,115,108,122,117
2025-02-26 14:03:14.946,2445.0,-3310.0,1480.0,-33.0,-150.0,-251.0,150,117,108,121,117
2025-02-26 14:03:14.950,2585.0,-4185.0,1885.0,-67.0,6.0,-146.0,151,118,110,122,118
2025-02-26 14:03:14.955,3064.0,-3902.0,1732.0,-21.0,81.0,-66.0,153,117,111,121,119
2025-02-26 14:03:14.962,2841.0,-5412.0,1626.0,-8.0,63.0,95.0,151,120,113,123,120
2025-02-26 14:03:14.967,2612.0,-4642.0,1747.0,-7.0,100.0,125.0,151,119,113,123,120
2025-02-26 14:03:14.971,1048.0,-4702.0,772.0,-43.0,80.0,137.0,152,120,110,123,123
2025-02-26 14:03:14.979,1339.0,-3820.0,1397.0,-108.0,102.0,166.0,152,118,112,122,121
2025-02-26 14:03:14.983,965.0,-2550.0,1658.0,-118.0,125.0,190.0,151,119,112,122,121
2025-02-26 14:03:14.988,575.0,-1847.0,1031.0,-98.0,89.0,198.0,154,120,114,125,123
2025-02-26 14:03:14.995,564.0,-1797.0,1257.0,-102.0,72.0,195.0,151,117,113,125,123
2025-02-26 14:03:15.000,464.0,-1604.0,852.0,-128.0,9.0,188.0,153,121,115,124,125
2025-02-26 14:03:15.007,406.0,-1650.0,666.0,-163.0,-24.0,180.0,154,121,118,127,125
2025-02-26 14:03:15.011,308.0,-1564.0,632.0,-186.0,-61.0,178.0,155,120,115,127,126
2025-02-26 14:03:15.016,517.0,-1833.0,911.0,-194.0,-58.0,197.0,153,122,116,126,123
2025-02-26 14:03:15.024,589.0,-2097.0,700.0,-201.0,-62.0,208.0,154,123,114,123,118
2025-02-26 14:03:15.028,733.0,-2084.0,634.0,-180.0,-67.0,208.0,153,122,115,127,123
2025-02-26 14:03:15.033,933.0,-2082.0,768.0,-179.0,-64.0,214.0,152,119,113,125,123
2025-02-26 14:03:15.040,948.0,-1959.0,686.0,-155.0,-52.0,216.0,151,119,114,124,122
2025-02-26 14:03:15.045,936.0,-1729.0,465.0,-105.0,-45.0,214.0,151,120,113,125,123
2025-02-26 14:03:15.049,880.0,-1648.0,174.0,-58.0,-46.0,224.0,151,120,113,126,123
2025-02-26 14:03:15.057,419.0,-1483.0,107.0,10.0,-51.0,256.0,151,120,115,127,123
2025-02-26 14:03:15.061,71.0,-1631.0,48.0,31.0,-27.0,288.0,153,120,115,126,123
2025-02-26 14:03:15.065,-87.0,-1624.0,-149.0,12.0,32.0,309.0,152,120,113,127,123
2025-02-26 14:03:15.073,-84.0,-1401.0,-227.0,-30.0,58.0,317.0,151,119,113,128,123
2025-02-26 14:03:15.077,-192.0,-1220.0,61.0,-24.0,90.0,320.0,149,118,113,127,124
2025-02-26 14:03:15.081,-79.0,-1082.0,466.0,7.0,107.0,316.0,152,119,112,126,121
2025-02-26 14:03:15.089,-38.0,-765.0,543.0,33.0,106.0,298.0,151,121,114,128,124
2025-02-26 14:03:15.094,-36.0,-491.0,571.0,32.0,107.0,278.0,152,120,113,125,124
2025-02-26 14:03:15.098,-85.0,-133.0,538.0,38.0,110.0,256.0,150,119,112,126,124
2025-02-26 14:03:15.102,-168.0,75.0,440.0,54.0,109.0,239.0,150,120,112,124,125
2025-02-26 14:03:15.110,-277.0,103.0,452.0,53.0,117.0,233.0,152,120,113,128,125
2025-02-26 14:03:15.114,-357.0,146.0,242.0,39.0,116.0,213.0,150,120,114,126,124
2025-02-26 14:03:15.118,-457.0,258.0,-29.0,33.0,94.0,191.0,151,120,111,126,124
2025-02-26 14:03:15.126,-584.0,247.0,165.0,20.0,102.0,183.0,151,123,112,126,123
2025-02-26 14:03:15.131,-709.0,305.0,217.0,12.0,119.0,178.0,149,121,113,126,125
2025-02-26 14:03:15.134,-696.0,491.0,123.0,13.0,125.0,164.0,150,122,114,126,124
2025-02-26 14:03:15.138,-738.0,608.0,185.0,11.0,119.0,148.0,151,122,115,128,124
2025-02-26 14:03:15.147,-812.0,584.0,281.0,4.0,127.0,141.0,151,122,114,125,124
2025-02-26 14:03:15.149,-857.0,638.0,280.0,5.0,127.0,121.0,152,122,114,131,124
2025-02-26 14:03:15.156,-761.0,746.0,285.0,7.0,127.0,117.0,149,121,113,124,123
2025-02-26 14:03:15.162,-904.0,595.0,273.0,17.0,144.0,109.0,153,123,115,126,125
2025-02-26 14:03:15.168,-911.0,703.0,-147.0,5.0,108.0,80.0,152,123,115,126,125
2025-02-26 14:03:15.172,-927.0,677.0,-196.0,-55.0,84.0,50.0,151,121,115,129,122
2025-02-26 14:03:15.176,-954.0,578.0,-92.0,-86.0,60.0,33.0,151,123,116,126,124
2025-02-26 14:03:15.181,-905.0,618.0,-123.0,-104.0,39.0,25.0,150,124,115,127,125
2025-02-26 14:03:15.188,-788.0,612.0,-46.0,-94.0,40.0,13.0,152,124,116,129,125
2025-02-26 14:03:15.192,-708.0,584.0,-11.0,-87.0,44.0,-1.0,151,123,117,127,125
2025-02-26 14:03:15.199,-684.0,600.0,-121.0,-70.0,38.0,-20.0,151,124,117,127,124
2025-02-26 14:03:15.205,-682.0,522.0,-45.0,-59.0,25.0,-28.0,149,121,117,128,124
2025-02-26 14:03:15.209,-663.0,528.0,-108.0,-41.0,16.0,-44.0,154,124,117,127,125
2025-02-26 14:03:15.216,-622.0,513.0,-109.0,-24.0,4.0,-59.0,151,124,117,129,125
2025-02-26 14:03:15.221,-615.0,474.0,-113.0,-15.0,-4.0,-72.0,151,120,115,128,123
2025-02-26 14:03:15.225,-627.0,477.0,-155.0,-5.0,-10.0,-87.0,150,121,115,126,123
2025-02-26 14:03:15.233,-644.0,492.0,-175.0,10.0,-17.0,-101.0,150,121,112,126,123
2025-02-26 14:03:15.237,-659.0,544.0,-517.0,-18.0,-57.0,-120.0,151,120,112,125,124
2025-02-26 14:03:15.241,-720.0,557.0,20.0,35.0,-39.0,-126.0,152,122,119,126,124
2025-02-26 14:03:15.249,-658.0,527.0,-143.0,55.0,-39.0,-139.0,151,121,114,127,124
2025-02-26 14:03:15.254,-650.0,517.0,-185.0,63.0,-49.0,-159.0,152,121,114,130,125
2025-02-26 14:03:15.258,-636.0,467.0,-146.0,90.0,-56.0,-178.0,151,120,113,126,124
2025-02-26 14:03:15.265,-620.0,434.0,-125.0,108.0,-59.0,-199.0,150,119,113,127,123
2025-02-26 14:03:15.270,-575.0,427.0,-205.0,135.0,-68.0,-224.0,150,120,112,126,123
2025-02-26 14:03:15.274,-512.0,449.0,-233.0,149.0,-84.0,-237.0,150,119,112,127,123
2025-02-26 14:03:15.282,-435.0,418.0,-196.0,178.0,-89.0,-263.0,152,121,113,126,124
2025-02-26 14:03:15.286,-375.0,460.0,-249.0,208.0,-92.0,-287.0,151,121,114,128,124
2025-02-26 14:03:15.291,-273.0,390.0,-175.0,231.0,-95.0,-308.0,154,122,113,126,124
2025-02-26 14:03:15.298,-194.0,276.0,-253.0,236.0,-108.0,-330.0,152,119,113,127,124
2025-02-26 14:03:15.303,-146.0,34.0,-209.0,246.0,-120.0,-347.0,152,123,113,127,124
2025-02-26 14:03:15.307,-47.0,-189.0,-231.0,237.0,-142.0,-361.0,152,120,113,127,125
2025-02-26 14:03:15.314,26.0,-508.0,-110.0,220.0,-151.0,-369.0,153,120,113,125,123
2025-02-26 14:03:15.319,184.0,-946.0,43.0,202.0,-165.0,-372.0,150,118,113,126,123
2025-02-26 14:03:15.325,351.0,-1127.0,209.0,184.0,-182.0,-373.0,150,118,113,125,122
2025-02-26 14:03:15.331,481.0,-1523.0,419.0,167.0,-204.0,-371.0,152,121,113,127,125
2025-02-26 14:03:15.335,645.0,-2005.0,734.0,133.0,-216.0,-357.0,153,120,114,127,124
2025-02-26 14:03:15.343,1041.0,-2464.0,950.0,107.0,-204.0,-332.0,151,119,114,127,125
2025-02-26 14:03:15.348,1493.0,-3196.0,1341.0,51.0,-169.0,-277.0,150,120,116,126,125
2025-02-26 14:03:15.355,1707.0,-3581.0,1607.0,17.0,-123.0,-229.0,153,120,115,128,125
2025-02-26 14:03:15.360,1792.0,-3712.0,1673.0,-21.0,-75.0,-184.0,152,119,112,129,125
2025-02-26 14:03:15.364,1848.0,-3628.0,1940.0,-45.0,-13.0,-136.0,152,119,113,128,127
2025-02-26 14:03:15.372,1826.0,-3325.0,1568.0,-64.0,-10.0,-86.0,154,126,113,127,121
2025-02-26 14:03:15.377,1714.0,-3093.0,1231.0,-76.0,-32.0,-33.0,152,119,113,127,125
2025-02-26 14:03:15.381,1535.0,-3206.0,1259.0,-88.0,-32.0,41.0,152,121,112,126,124
2025-02-26 14:03:15.385,1433.0,-3260.0,1192.0,-121.0,-9.0,116.0,151,118,112,127,124
2025-02-26 14:03:15.393,1212.0,-3159.0,1008.0,-158.0,15.0,144.0,153,116,111,127,125
2025-02-26 14:03:15.398,1130.0,-3000.0,822.0,-203.0,24.0,181.0,151,117,110,125,124
2025-02-26 14:03:15.405,967.0,-2736.0,825.0,-213.0,27.0,191.0,155,117,110,128,126
2025-02-26 14:03:15.410,726.0,-2393.0,603.0,-240.0,7.0,197.0,151,117,110,127,125
2025-02-26 14:03:15.416,579.0,-2080.0,788.0,-229.0,11.0,202.0,152,117,111,127,127
2025-02-26 14:03:15.422,295.0,-1892.0,441.0,-232.0,1.0,205.0,157,117,109,131,125
2025-02-26 14:03:15.424,242.0,-1784.0,430.0,-223.0,0.0,202.0,152,113,108,124,125
2025-02-26 14:03:15.433,169.0,-1798.0,265.0,-210.0,2.0,200.0,151,115,110,125,125
2025-02-26 14:03:15.435,139.0,-1737.0,276.0,-197.0,18.0,194.0,153,116,108,127,125
2025-02-26 14:03:15.439,104.0,-1646.0,111.0,-192.0,17.0,190.0,153,114,108,126,124
2025-02-26 14:03:15.452,88.0,-1610.0,233.0,-186.0,21.0,193.0,153,116,109,127,124
2025-02-26 14:03:15.458,79.0,-1464.0,177.0,-177.0,21.0,193.0,152,114,108,126,124
2025-02-26 14:03:15.458,99.0,-1396.0,170.0,-154.0,18.0,190.0,153,114,106,126,123
2025-02-26 14:03:15.464,131.0,-1341.0,146.0,-129.0,11.0,193.0,152,114,107,124,124
2025-02-26 14:03:15.471,119.0,-1258.0,79.0,-90.0,7.0,197.0,152,114,109,127,124
2025-02-26 14:03:15.474,114.0,-1164.0,145.0,-53.0,5.0,201.0,151,112,107,128,125
2025-02-26 14:03:15.479,161.0,-1146.0,309.0,-40.0,32.0,214.0,153,111,108,125,123
2025-02-26 14:03:15.486,93.0,-1023.0,205.0,-12.0,55.0,227.0,151,112,106,127,124
2025-02-26 14:03:15.491,75.0,-924.0,103.0,-5.0,59.0,238.0,147,112,107,129,123
2025-02-26 14:03:15.495,37.0,-836.0,49.0,-12.0,62.0,242.0,152,111,105,125,124
2025-02-26 14:03:15.500,23.0,-804.0,61.0,-15.0,68.0,252.0,151,111,105,126,125
2025-02-26 14:03:15.507,16.0,-704.0,70.0,-21.0,79.0,257.0,150,111,105,125,123
2025-02-26 14:03:15.512,61.0,-700.0,375.0,-26.0,104.0,261.0,152,109,107,125,122
2025-02-26 14:03:15.516,67.0,-747.0,275.0,-29.0,156.0,274.0,153,109,107,125,123
2025-02-26 14:03:15.523,75.0,-577.0,91.0,-34.0,162.0,276.0,152,107,107,125,122
2025-02-26 14:03:15.528,-5.0,-469.0,64.0,-51.0,159.0,274.0,152,107,104,124,122
2025-02-26 14:03:15.532,-53.0,-363.0,-57.0,-67.0,151.0,266.0,152,106,106,124,121
2025-02-26 14:03:15.540,-196.0,-281.0,71.0,-75.0,130.0,263.0,149,106,104,122,121
2025-02-26 14:03:15.544,-161.0,-295.0,118.0,-73.0,124.0,257.0,150,107,107,120,120
2025-02-26 14:03:15.549,-178.0,-234.0,84.0,-72.0,120.0,248.0,154,105,105,120,119
2025-02-26 14:03:15.552,-243.0,-127.0,73.0,-76.0,114.0,236.0,152,106,104,122,119
2025-02-26 14:03:15.560,-326.0,-22.0,-31.0,-73.0,98.0,224.0,151,104,103,119,117
2025-02-26 14:03:15.563,-374.0,67.0,-115.0,-82.0,89.0,215.0,152,101,99,116,118
2025-02-26 14:03:15.568,-455.0,84.0,-174.0,-102.0,75.0,210.0,151,102,99,115,114
2025-02-26 14:03:15.577,-553.0,77.0,-159.0,-110.0,65.0,203.0,151,99,98,113,114
2025-02-26 14:03:15.581,-588.0,47.0,-79.0,-117.0,59.0,198.0,151,95,94,111,113
2025-02-26 14:03:15.585,-605.0,29.0,-75.0,-129.0,57.0,194.0,152,93,93,107,111
2025-02-26 14:03:15.587,-613.0,14.0,-121.0,-127.0,42.0,187.0,152,91,91,104,107
2025-02-26 14:03:15.597,-703.0,87.0,-101.0,-120.0,22.0,171.0,152,87,90,104,108
2025-02-26 14:03:15.599,-748.0,47.0,-79.0,-114.0,12.0,156.0,152,82,89,98,106
2025-02-26 14:03:15.604,-794.0,73.0,-162.0,-115.0,7.0,143.0,153,80,87,96,102
2025-02-26 14:03:15.610,-710.0,138.0,-194.0,-109.0,-7.0,135.0,152,76,86,92,100
2025-02-26 14:03:15.618,-732.0,178.0,-203.0,-104.0,-20.0,124.0,152,75,86,90,99
2025-02-26 14:03:15.622,-693.0,250.0,-115.0,-94.0,-27.0,109.0,152,72,83,86,95
2025-02-26 14:03:15.626,-722.0,240.0,-189.0,-75.0,-35.0,93.0,152,69,82,84,92
2025-02-26 14:03:15.630,-703.0,254.0,-75.0,-64.0,-42.0,86.0,151,67,80,80,91
2025-02-26 14:03:15.638,-750.0,308.0,-132.0,-57.0,-52.0,74.0,152,67,79,79,89
2025-02-26 14:03:15.642,-810.0,359.0,1.0,-50.0,-52.0,64.0,152,64,77,76,87
2025-02-26 14:03:15.646,-841.0,432.0,11.0,-33.0,-53.0,58.0,151,63,76,74,84
2025-02-26 14:03:15.651,-852.0,485.0,22.0,-14.0,-51.0,42.0,153,64,75,73,82
2025-02-26 14:03:15.655,-836.0,565.0,125.0,-4.0,-43.0,26.0,153,61,73,69,78
2025-02-26 14:03:15.663,-857.0,624.0,188.0,23.0,-38.0,16.0,151,60,71,68,75
2025-02-26 14:03:15.666,-873.0,744.0,218.0,54.0,-34.0,0.0,152,60,70,67,73
2025-02-26 14:03:15.672,-831.0,960.0,412.0,66.0,-19.0,-11.0,154,58,70,64,68
2025-02-26 14:03:15.675,-932.0,900.0,87.0,108.0,-18.0,-20.0,153,57,67,63,64
2025-02-26 14:03:15.679,-1028.0,1066.0,168.0,139.0,-8.0,-45.0,153,58,67,62,62
2025-02-26 14:03:15.687,-1127.0,1132.0,65.0,146.0,6.0,-75.0,153,55,66,63,59
2025-02-26 14:03:15.691,-1101.0,1091.0,60.0,156.0,15.0,-89.0,151,54,67,62,54
2025-02-26 14:03:15.696,-948.0,1133.0,173.0,179.0,47.0,-119.0,153,54,65,63,54
2025-02-26 14:03:15.700,-1080.0,1186.0,60.0,187.0,45.0,-163.0,152,51,64,62,52
2025-02-26 14:03:15.708,-1129.0,1405.0,-59.0,216.0,35.0,-206.0,151,50,62,63,51
2025-02-26 14:03:15.712,-1208.0,1397.0,-106.0,233.0,24.0,-216.0,154,52,63,63,51
2025-02-26 14:03:15.716,-1096.0,1384.0,-267.0,237.0,3.0,-232.0,153,51,61,65,52
2025-02-26 14:03:15.724,-1096.0,1414.0,-564.0,246.0,-21.0,-264.0,153,54,62,64,49
2025-02-26 14:03:15.729,-942.0,1319.0,-498.0,231.0,-21.0,-297.0,153,52,60,64,50
2025-02-26 14:03:15.733,-978.0,1356.0,-783.0,195.0,-35.0,-345.0,152,50,59,63,48
2025-02-26 14:03:15.737,-968.0,1287.0,-504.0,197.0,-54.0,-365.0,152,50,59,62,49
2025-02-26 14:03:15.744,-654.0,1074.0,-302.0,192.0,-60.0,-398.0,153,49,59,62,48
2025-02-26 14:03:15.748,-792.0,764.0,-386.0,187.0,-97.0,-425.0,153,50,60,60,49
2025-02-26 14:03:15.754,-556.0,639.0,-548.0,203.0,-122.0,-433.0,153,49,58,61,47
2025-02-26 14:03:15.761,-232.0,344.0,-343.0,190.0,-147.0,-453.0,153,47,58,60,47
2025-02-26 14:03:15.765,95.0,394.0,-512.0,162.0,-186.0,-471.0,152,51,61,64,49
2025-02-26 14:03:15.770,196.0,248.0,-325.0,163.0,-195.0,-489.0,154,52,59,62,50
2025-02-26 14:03:15.774,848.0,71.0,-43.0,158.0,-209.0,-500.0,152,50,60,62,48
2025-02-26 14:03:15.781,1059.0,-453.0,186.0,154.0,-216.0,-494.0,155,49,59,65,48
2025-02-26 14:03:15.786,1400.0,-805.0,248.0,164.0,-210.0,-490.0,151,51,61,62,50
2025-02-26 14:03:15.790,1777.0,-1597.0,387.0,150.0,-186.0,-474.0,153,50,61,63,48
2025-02-26 14:03:15.798,2015.0,-2675.0,489.0,146.0,-166.0,-445.0,153,50,62,63,50
2025-02-26 14:03:15.802,2244.0,-3727.0,799.0,134.0,-149.0,-385.0,152,49,61,58,49
2025-02-26 14:03:15.806,2393.0,-4540.0,1206.0,127.0,-133.0,-301.0,153,51,62,61,50
2025-02-26 14:03:15.814,2564.0,-4837.0,1542.0,106.0,-80.0,-248.0,154,47,64,60,49
2025-02-26 14:03:15.819,2800.0,-5195.0,1774.0,104.0,-11.0,-136.0,154,50,65,60,50
2025-02-26 14:03:15.823,2767.0,-5314.0,1824.0,78.0,66.0,-25.0,153,51,66,60,49
2025-02-26 14:03:15.827,2418.0,-4921.0,1820.0,56.0,134.0,60.0,166,64,78,73,62
2025-02-26 14:03:15.835,1977.0,-4152.0,1731.0,37.0,164.0,120.0,158,55,71,63,53
2025-02-26 14:03:15.839,1483.0,-3909.0,1445.0,14.0,144.0,129.0,156,53,70,63,51
2025-02-26 14:03:15.843,1132.0,-3029.0,1378.0,-6.0,41.0,133.0,156,52,68,61,53
2025-02-26 14:03:15.851,775.0,-2542.0,1395.0,-44.0,-6.0,136.0,154,52,67,62,49
2025-02-26 14:03:15.853,655.0,-2057.0,911.0,-110.0,-13.0,146.0,154,51,67,61,48
2025-02-26 14:03:15.859,359.0,-2020.0,803.0,-150.0,-36.0,148.0,152,49,64,60,48
2025-02-26 14:03:15.863,232.0,-2080.0,652.0,-172.0,-37.0,152.0,153,51,67,63,48
2025-02-26 14:03:15.872,110.0,-2104.0,647.0,-162.0,-56.0,151.0,154,52,64,62,49
2025-02-26 14:03:15.876,53.0,-2044.0,402.0,-157.0,-53.0,153.0,151,49,64,61,49
2025-02-26 14:03:15.880,38.0,-2009.0,261.0,-128.0,-43.0,159.0,147,50,63,65,47
2025-02-26 14:03:15.884,-58.0,-2088.0,233.0,-114.0,-28.0,167.0,152,50,64,62,50
2025-02-26 14:03:15.892,-149.0,-2160.0,254.0,-101.0,-22.0,177.0,153,51,66,63,49
2025-02-26 14:03:15.896,-159.0,-2026.0,295.0,-44.0,-30.0,186.0,153,50,63,63,49
2025-02-26 14:03:15.900,-96.0,-1855.0,384.0,-106.0,-29.0,191.0,152,50,63,63,50
2025-02-26 14:03:15.909,-97.0,-1765.0,298.0,-118.0,-15.0,203.0,154,51,65,65,52
2025-02-26 14:03:15.912,-4.0,-1633.0,336.0,-111.0,-15.0,213.0,152,52,63,65,51
2025-02-26 14:03:15.916,100.0,-1455.0,389.0,-113.0,-12.0,222.0,153,50,61,63,50
2025-02-26 14:03:15.921,63.0,-1304.0,394.0,-114.0,-6.0,229.0,152,51,62,65,50
2025-02-26 14:03:15.926,66.0,-1207.0,393.0,-139.0,16.0,232.0,154,51,62,65,51
2025-02-26 14:03:15.933,6.0,-1013.0,357.0,-160.0,34.0,236.0,153,51,62,65,50
2025-02-26 14:03:15.937,-26.0,-875.0,366.0,-179.0,34.0,241.0,151,52,61,65,49
2025-02-26 14:03:15.941,-18.0,-812.0,288.0,-203.0,33.0,241.0,152,52,57,65,51
2025-02-26 14:03:15.946,-63.0,-627.0,340.0,-202.0,36.0,241.0,154,53,63,67,52
2025-02-26 14:03:15.956,-77.0,-485.0,323.0,-211.0,58.0,235.0,155,50,60,65,52
2025-02-26 14:03:15.956,-74.0,-340.0,281.0,-203.0,69.0,232.0,152,52,61,64,51
2025-02-26 14:03:15.962,-155.0,-325.0,316.0,-163.0,65.0,222.0,152,52,63,65,51
2025-02-26 14:03:15.966,-220.0,-278.0,247.0,-145.0,41.0,212.0,154,52,62,65,52
2025-02-26 14:03:15.974,-265.0,-214.0,196.0,-134.0,34.0,205.0,153,51,62,64,51
2025-02-26 14:03:15.978,-326.0,-163.0,124.0,-123.0,28.0,202.0,152,52,62,64,51
2025-02-26 14:03:15.981,-357.0,-130.0,146.0,-117.0,31.0,195.0,154,52,64,65,52
2025-02-26 14:03:15.987,-350.0,-92.0,141.0,-111.0,30.0,186.0,153,52,66,66,52
2025-02-26 14:03:15.994,-358.0,-92.0,136.0,-103.0,26.0,177.0,153,51,66,66,51
2025-02-26 14:03:15.998,-380.0,-90.0,72.0,-109.0,23.0,173.0,153,51,64,67,53
2025-02-26 14:03:16.003,-404.0,-56.0,43.0,-106.0,19.0,165.0,153,53,65,67,53
2025-02-26 14:03:16.007,-427.0,-26.0,-14.0,-99.0,17.0,154.0,154,54,65,67,54
2025-02-26 14:03:16.015,-497.0,-42.0,-101.0,-94.0,20.0,149.0,155,54,67,68,54
2025-02-26 14:03:16.017,-568.0,-15.0,-132.0,-88.0,23.0,141.0,155,53,65,66,55
2025-02-26 14:03:16.024,-597.0,-37.0,-125.0,-86.0,18.0,131.0,155,54,64,65,53
2025-02-26 14:03:16.028,-621.0,11.0,-243.0,-77.0,15.0,124.0,154,54,64,68,54
2025-02-26 14:03:16.032,-577.0,-31.0,-220.0,-72.0,15.0,114.0,153,54,66,68,54
2025-02-26 14:03:16.039,-663.0,46.0,-167.0,-74.0,12.0,108.0,155,54,65,67,54
2025-02-26 14:03:16.044,-674.0,61.0,-203.0,-52.0,12.0,97.0,156,53,63,67,54
2025-02-26 14:03:16.047,-668.0,150.0,-219.0,-39.0,3.0,94.0,156,55,66,70,56
2025-02-26 14:03:16.053,-673.0,154.0,-135.0,-26.0,-14.0,78.0,155,55,66,69,56
2025-02-26 14:03:16.059,-686.0,256.0,-142.0,-19.0,-18.0,69.0,154,53,64,68,54
2025-02-26 14:03:16.065,-681.0,313.0,-103.0,-17.0,-15.0,65.0,156,58,66,67,55
2025-02-26 14:03:16.069,-667.0,342.0,-75.0,-11.0,-14.0,53.0,156,56,65,72,56
2025-02-26 14:03:16.073,-666.0,399.0,-10.0,-13.0,-14.0,41.0,155,54,64,69,56
2025-02-26 14:03:16.077,-681.0,415.0,9.0,-10.0,-18.0,34.0,155,55,66,68,55
2025-02-26 14:03:16.083,-714.0,486.0,27.0,-5.0,-13.0,21.0,156,56,66,69,56
2025-02-26 14:03:16.089,-733.0,585.0,36.0,-2.0,-11.0,5.0,155,56,66,70,56
2025-02-26 14:03:16.093,-778.0,637.0,97.0,13.0,-9.0,-5.0,156,54,65,68,56
2025-02-26 14:03:16.097,-866.0,706.0,82.0,22.0,-9.0,-27.0,155,54,65,71,55
2025-02-26 14:03:16.101,-905.0,781.0,46.0,28.0,-7.0,-46.0,155,53,63,69,56
2025-02-26 14:03:16.105,-1027.0,818.0,63.0,40.0,-8.0,-55.0,155,55,67,70,55
2025-02-26 14:03:16.114,-1104.0,913.0,72.0,58.0,-15.0,-77.0,152,54,66,68,56
2025-02-26 14:03:16.117,-1152.0,1027.0,112.0,68.0,-20.0,-101.0,154,53,64,69,54
2025-02-26 14:03:16.119,-1200.0,1097.0,145.0,89.0,-28.0,-116.0,155,54,63,69,55
2025-02-26 14:03:16.126,-1201.0,1220.0,219.0,110.0,-34.0,-144.0,156,54,66,70,56
2025-02-26 14:03:16.131,-1173.0,1310.0,249.0,115.0,-37.0,-175.0,156,54,64,68,55
2025-02-26 14:03:16.138,-1144.0,1395.0,320.0,132.0,-38.0,-192.0,155,54,64,68,55
2025-02-26 14:03:16.142,-1068.0,1381.0,342.0,146.0,-38.0,-223.0,155,54,63,68,57
2025-02-26 14:03:16.150,-1020.0,1311.0,321.0,161.0,-34.0,-253.0,155,54,64,68,56
