timestamp,ax,ay,az,gx,gy,gz,flex1,flex2,flex3,flex4,flex5,emg1,emg2,emg3
2025-02-26 14:26:47.750,-300.0,-925.0,243.0,-9.0,-1.0,7.0,146,116,121,122,125
2025-02-26 14:26:47.750,-303.0,-921.0,240.0,-9.0,-1.0,6.0,145,115,120,122,124
2025-02-26 14:26:47.758,-314.0,-915.0,243.0,-8.0,-1.0,5.0,145,116,119,122,124
2025-02-26 14:26:47.761,-313.0,-924.0,245.0,-8.0,-1.0,4.0,146,118,122,123,125
2025-02-26 14:26:47.765,-304.0,-911.0,233.0,-9.0,-1.0,3.0,145,116,120,122,124
2025-02-26 14:26:47.768,-310.0,-913.0,245.0,-7.0,-1.0,2.0,145,117,119,121,123
2025-02-26 14:26:47.771,-314.0,-914.0,232.0,-5.0,0.0,1.0,147,117,122,124,126
2025-02-26 14:26:47.774,-309.0,-917.0,239.0,-4.0,0.0,0.0,146,116,120,122,125
2025-02-26 14:26:47.774,-303.0,-913.0,245.0,-3.0,0.0,-1.0,144,116,121,122,124
2025-02-26 14:26:47.778,-292.0,-900.0,249.0,-2.0,0.0,-1.0,145,117,122,122,125
2025-02-26 14:26:47.781,-294.0,-892.0,241.0,-1.0,0.0,-2.0,147,116,122,123,124
2025-02-26 14:26:47.783,-297.0,-901.0,270.0,-2.0,-1.0,-2.0,147,117,123,123,126
2025-02-26 14:26:47.783,-295.0,-906.0,276.0,0.0,3.0,-2.0,146,117,122,122,125
2025-02-26 14:26:47.783,-297.0,-909.0,230.0,1.0,2.0,-3.0,145,116,121,123,124
2025-02-26 14:26:47.790,-282.0,-907.0,246.0,2.0,2.0,-3.0,148,119,122,124,127
2025-02-26 14:26:47.791,-298.0,-923.0,246.0,2.0,3.0,-3.0,147,117,122,124,126
2025-02-26 14:26:47.795,-298.0,-932.0,239.0,0.0,2.0,-3.0,146,115,120,121,124
2025-02-26 14:26:47.795,-307.0,-929.0,247.0,0.0,-1.0,-3.0,147,117,121,123,125
2025-02-26 14:26:47.795,-311.0,-928.0,270.0,0.0,1.0,-3.0,148,118,124,124,127
2025-02-26 14:26:47.795,-310.0,-932.0,259.0,4.0,2.0,-4.0,145,116,120,122,124
2025-02-26 14:26:47.804,-315.0,-942.0,246.0,6.0,3.0,-4.0,146,117,122,124,125
2025-02-26 14:26:47.806,-315.0,-949.0,253.0,6.0,3.0,-5.0,147,116,121,123,124
2025-02-26 14:26:47.808,-308.0,-937.0,269.0,6.0,2.0,-4.0,146,117,123,123,125
2025-02-26 14:26:47.808,-313.0,-947.0,261.0,3.0,-1.0,-4.0,146,117,122,123,126
2025-02-26 14:26:47.808,-295.0,-939.0,263.0,1.0,-2.0,-4.0,146,117,122,123,125
2025-02-26 14:26:47.816,-296.0,-941.0,271.0,-2.0,-2.0,-4.0,145,115,122,121,124
2025-02-26 14:26:47.818,-287.0,-939.0,257.0,-1.0,-2.0,-4.0,149,118,124,125,128
2025-02-26 14:26:47.820,-283.0,-948.0,260.0,0.0,-1.0,-5.0,146,117,121,122,125
2025-02-26 14:26:47.820,-279.0,-951.0,259.0,3.0,0.0,-6.0,146,116,120,121,123
2025-02-26 14:26:47.820,-275.0,-952.0,259.0,3.0,0.0,-6.0,147,116,122,122,126
2025-02-26 14:26:47.827,-267.0,-949.0,267.0,2.0,1.0,-6.0,145,116,120,123,125
2025-02-26 14:26:47.827,-262.0,-963.0,255.0,2.0,0.0,-6.0,145,116,121,122,125
2025-02-26 14:26:47.827,-264.0,-968.0,259.0,1.0,0.0,-6.0,146,117,121,123,126
2025-02-26 14:26:47.827,-260.0,-960.0,260.0,2.0,1.0,-5.0,145,117,121,123,126
2025-02-26 14:26:47.827,-271.0,-969.0,259.0,2.0,1.0,-5.0,146,115,121,123,125
2025-02-26 14:26:47.827,-259.0,-967.0,254.0,1.0,3.0,-4.0,145,116,120,122,124
2025-02-26 14:26:47.843,-261.0,-970.0,251.0,0.0,3.0,-3.0,147,116,123,123,125
2025-02-26 14:26:47.843,-268.0,-975.0,252.0,0.0,2.0,-2.0,147,116,120,123,125
2025-02-26 14:26:47.843,-272.0,-975.0,246.0,-1.0,2.0,-2.0,146,117,123,123,126
2025-02-26 14:26:47.843,-271.0,-965.0,261.0,-1.0,3.0,-2.0,147,116,121,123,126
2025-02-26 14:26:47.843,-278.0,-959.0,246.0,0.0,3.0,-2.0,146,116,122,123,125
2025-02-26 14:26:47.843,-276.0,-963.0,246.0,0.0,3.0,-2.0,145,115,120,121,124
2025-02-26 14:26:47.858,-274.0,-955.0,236.0,2.0,5.0,-2.0,146,117,122,122,125
2025-02-26 14:26:47.858,-276.0,-953.0,238.0,1.0,4.0,-2.0,146,117,121,123,126
2025-02-26 14:26:47.858,-281.0,-946.0,244.0,2.0,3.0,-2.0,147,117,122,123,125
2025-02-26 14:26:47.858,-280.0,-942.0,234.0,-5.0,6.0,-1.0,145,115,120,122,124
2025-02-26 14:26:47.869,-300.0,-942.0,303.0,-2.0,3.0,-2.0,149,119,123,125,127
2025-02-26 14:26:47.871,-290.0,-929.0,207.0,-2.0,-1.0,-3.0,147,116,122,122,125
2025-02-26 14:26:47.874,-286.0,-971.0,233.0,-5.0,-1.0,-2.0,145,115,121,123,125
2025-02-26 14:26:47.877,-303.0,-966.0,230.0,-2.0,-1.0,-1.0,145,115,120,122,123
2025-02-26 14:26:47.878,-269.0,-925.0,275.0,-2.0,4.0,-3.0,147,117,123,124,126
2025-02-26 14:26:47.878,-288.0,-966.0,207.0,10.0,2.0,-2.0,148,116,121,123,125
2025-02-26 14:26:47.878,-301.0,-951.0,248.0,19.0,8.0,-3.0,145,116,124,124,126
2025-02-26 14:26:47.886,-271.0,-960.0,144.0,-3.0,1.0,-2.0,146,114,120,120,124
2025-02-26 14:26:47.888,-264.0,-876.0,255.0,-7.0,5.0,-2.0,148,117,122,123,126
2025-02-26 14:26:47.892,-251.0,-935.0,229.0,0.0,0.0,-2.0,147,117,123,121,125
2025-02-26 14:26:47.893,-346.0,-985.0,239.0,1.0,4.0,-1.0,145,116,122,123,124
2025-02-26 14:26:47.896,-276.0,-921.0,224.0,2.0,4.0,-3.0,144,115,122,121,124
2025-02-26 14:26:47.901,-271.0,-931.0,270.0,2.0,6.0,-3.0,147,116,121,123,126
2025-02-26 14:26:47.905,-301.0,-986.0,234.0,2.0,1.0,-2.0,145,115,123,123,126
2025-02-26 14:26:47.905,-283.0,-957.0,234.0,5.0,1.0,-2.0,144,115,122,120,123
2025-02-26 14:26:47.914,-282.0,-971.0,296.0,5.0,2.0,-2.0,144,115,121,122,125
2025-02-26 14:26:47.917,-291.0,-940.0,272.0,12.0,5.0,-2.0,146,116,120,123,125
2025-02-26 14:26:47.926,-295.0,-972.0,227.0,12.0,2.0,-2.0,145,115,121,121,124
2025-02-26 14:26:47.926,-295.0,-935.0,260.0,11.0,3.0,-2.0,144,114,120,125,123
2025-02-26 14:26:47.935,-279.0,-934.0,260.0,9.0,4.0,-1.0,145,117,122,122,124
2025-02-26 14:26:47.939,-293.0,-949.0,239.0,11.0,2.0,0.0,146,116,120,121,126
2025-02-26 14:26:47.947,-293.0,-930.0,238.0,8.0,2.0,1.0,144,114,120,121,122
2025-02-26 14:26:47.947,-289.0,-933.0,263.0,4.0,1.0,0.0,145,117,121,123,126
2025-02-26 14:26:47.947,-294.0,-913.0,247.0,3.0,-1.0,1.0,147,116,122,124,125
2025-02-26 14:26:47.959,-301.0,-925.0,233.0,2.0,-2.0,2.0,145,114,120,122,123
2025-02-26 14:26:47.964,-291.0,-924.0,253.0,0.0,-4.0,2.0,144,114,119,120,123
2025-02-26 14:26:47.964,-278.0,-895.0,270.0,0.0,-1.0,1.0,146,116,122,123,125
2025-02-26 14:26:47.964,-296.0,-914.0,241.0,0.0,-2.0,0.0,145,116,121,122,125
2025-02-26 14:26:47.979,-296.0,-908.0,249.0,1.0,-2.0,-1.0,148,114,119,120,125
2025-02-26 14:26:47.987,-297.0,-907.0,256.0,0.0,-1.0,-1.0,147,115,121,121,126
2025-02-26 14:26:47.992,-288.0,-913.0,253.0,1.0,-1.0,-2.0,145,115,123,122,124
2025-02-26 14:26:47.996,-294.0,-920.0,242.0,0.0,-3.0,-3.0,144,114,119,121,124
2025-02-26 14:26:47.998,-295.0,-914.0,265.0,-1.0,-3.0,-4.0,144,116,121,123,123
2025-02-26 14:26:48.008,-282.0,-906.0,263.0,-3.0,-3.0,-4.0,144,115,122,123,126
2025-02-26 14:26:48.013,-288.0,-920.0,261.0,-2.0,-3.0,-4.0,145,116,121,122,125
2025-02-26 14:26:48.016,-283.0,-927.0,256.0,-1.0,-2.0,-5.0,146,116,121,122,125
2025-02-26 14:26:48.021,-280.0,-928.0,260.0,1.0,-1.0,-6.0,144,114,120,122,127
2025-02-26 14:26:48.028,-281.0,-939.0,250.0,3.0,-1.0,-6.0,146,117,121,121,125
2025-02-26 14:26:48.033,-279.0,-934.0,253.0,4.0,-1.0,-6.0,147,116,120,123,124
2025-02-26 14:26:48.033,-275.0,-943.0,263.0,3.0,-1.0,-6.0,148,117,123,124,127
2025-02-26 14:26:48.041,-268.0,-937.0,268.0,2.0,-1.0,-6.0,144,114,120,123,124
2025-02-26 14:26:48.045,-274.0,-943.0,256.0,2.0,-1.0,-6.0,145,116,121,122,125
2025-02-26 14:26:48.054,-283.0,-944.0,250.0,2.0,-1.0,-5.0,147,116,121,122,124
2025-02-26 14:26:48.057,-275.0,-954.0,250.0,2.0,-2.0,-4.0,146,116,119,123,125
2025-02-26 14:26:48.062,-275.0,-952.0,252.0,2.0,-2.0,-3.0,146,115,119,123,124
2025-02-26 14:26:48.069,-270.0,-946.0,267.0,0.0,-1.0,-3.0,146,114,121,122,124
2025-02-26 14:26:48.073,-280.0,-963.0,259.0,0.0,-2.0,-2.0,147,116,122,122,124
2025-02-26 14:26:48.075,-272.0,-963.0,268.0,-1.0,-2.0,-2.0,146,116,122,123,125
2025-02-26 14:26:48.086,-274.0,-967.0,259.0,-2.0,-2.0,-1.0,145,116,121,121,124
2025-02-26 14:26:48.087,-274.0,-963.0,261.0,0.0,-2.0,-1.0,144,115,121,122,125
2025-02-26 14:26:48.094,-271.0,-975.0,266.0,0.0,-2.0,-1.0,146,115,121,121,125
2025-02-26 14:26:48.098,-273.0,-966.0,266.0,1.0,-1.0,0.0,145,117,120,122,124
2025-02-26 14:26:48.106,-280.0,-962.0,258.0,1.0,0.0,-1.0,144,115,119,121,125
2025-02-26 14:26:48.110,-285.0,-960.0,251.0,0.0,0.0,0.0,146,115,120,122,125
2025-02-26 14:26:48.115,-289.0,-956.0,239.0,3.0,-2.0,0.0,145,115,122,123,125
2025-02-26 14:26:48.119,-290.0,-951.0,267.0,4.0,-1.0,0.0,144,114,120,119,125
2025-02-26 14:26:48.124,-279.0,-958.0,230.0,4.0,-2.0,0.0,145,116,120,123,126
2025-02-26 14:26:48.130,-279.0,-921.0,250.0,1.0,-2.0,0.0,146,115,121,123,125
2025-02-26 14:26:48.135,-276.0,-933.0,265.0,1.0,-2.0,0.0,143,113,121,122,123
2025-02-26 14:26:48.139,-287.0,-924.0,224.0,3.0,-1.0,-1.0,145,114,120,121,124
2025-02-26 14:26:48.144,-304.0,-943.0,211.0,1.0,-2.0,0.0,145,116,121,122,125
2025-02-26 14:26:48.151,-287.0,-930.0,245.0,2.0,-2.0,-1.0,146,115,121,121,124
2025-02-26 14:26:48.154,-273.0,-926.0,258.0,1.0,-3.0,0.0,143,114,119,120,123
2025-02-26 14:26:48.160,-296.0,-940.0,224.0,1.0,-4.0,0.0,148,115,121,123,125
2025-02-26 14:26:48.164,-286.0,-936.0,237.0,1.0,-4.0,-1.0,145,116,120,123,124
2025-02-26 14:26:48.172,-298.0,-935.0,238.0,2.0,-2.0,-1.0,144,114,125,122,124
2025-02-26 14:26:48.176,-280.0,-945.0,213.0,2.0,-4.0,-1.0,146,115,121,121,123
2025-02-26 14:26:48.180,-281.0,-923.0,252.0,2.0,-5.0,-1.0,147,116,124,123,124
2025-02-26 14:26:48.184,-281.0,-923.0,259.0,1.0,-5.0,-2.0,145,116,120,124,124
2025-02-26 14:26:48.192,-283.0,-930.0,257.0,1.0,-6.0,-2.0,144,115,120,121,122
2025-02-26 14:26:48.197,-276.0,-923.0,303.0,2.0,-5.0,-2.0,145,114,120,120,124
2025-02-26 14:26:48.200,-279.0,-929.0,261.0,3.0,-4.0,-3.0,146,116,121,124,123
2025-02-26 14:26:48.205,-268.0,-926.0,255.0,2.0,-5.0,-3.0,147,116,122,122,126
2025-02-26 14:26:48.208,-280.0,-939.0,276.0,-2.0,-5.0,-3.0,146,115,120,122,125
2025-02-26 14:26:48.217,-265.0,-942.0,272.0,-4.0,-6.0,-3.0,145,116,121,123,124
2025-02-26 14:26:48.220,-269.0,-933.0,273.0,-5.0,-5.0,-3.0,148,118,123,124,126
2025-02-26 14:26:48.226,-273.0,-934.0,258.0,-4.0,-5.0,-3.0,146,117,123,124,126
2025-02-26 14:26:48.233,-267.0,-942.0,270.0,-2.0,-5.0,-3.0,145,117,122,123,125
2025-02-26 14:26:48.237,-271.0,-945.0,285.0,-1.0,-4.0,-3.0,148,117,122,124,128
2025-02-26 14:26:48.239,-273.0,-950.0,272.0,-2.0,-4.0,-3.0,147,120,124,125,126
2025-02-26 14:26:48.250,-259.0,-947.0,286.0,-1.0,-3.0,-3.0,146,117,122,123,126
2025-02-26 14:26:48.253,-271.0,-973.0,290.0,0.0,-2.0,-2.0,147,117,123,125,127
2025-02-26 14:26:48.258,-269.0,-956.0,294.0,-2.0,-2.0,-1.0,149,116,123,123,125
2025-02-26 14:26:48.262,-252.0,-950.0,314.0,-3.0,0.0,-1.0,148,119,123,124,128
2025-02-26 14:26:48.270,-269.0,-977.0,280.0,-1.0,0.0,0.0,146,117,124,124,126
2025-02-26 14:26:48.274,-266.0,-980.0,261.0,-1.0,-1.0,1.0,146,116,122,123,124
2025-02-26 14:26:48.277,-251.0,-969.0,291.0,-2.0,-1.0,1.0,145,118,123,124,127
2025-02-26 14:26:48.283,-261.0,-969.0,283.0,1.0,0.0,2.0,149,118,123,124,125
2025-02-26 14:26:48.289,-268.0,-978.0,287.0,1.0,2.0,2.0,146,117,123,124,126
2025-02-26 14:26:48.295,-246.0,-919.0,254.0,0.0,3.0,2.0,146,117,122,121,124
2025-02-26 14:26:48.299,-263.0,-946.0,340.0,-1.0,3.0,2.0,149,118,123,125,127
2025-02-26 14:26:48.304,-253.0,-932.0,264.0,1.0,2.0,2.0,148,119,123,124,126
2025-02-26 14:26:48.308,-265.0,-948.0,280.0,-2.0,3.0,3.0,146,116,121,123,125
2025-02-26 14:26:48.315,-285.0,-959.0,269.0,-5.0,2.0,2.0,145,116,121,123,125
2025-02-26 14:26:48.319,-282.0,-936.0,255.0,-4.0,2.0,2.0,148,119,124,125,127
2025-02-26 14:26:48.323,-298.0,-938.0,286.0,-2.0,4.0,2.0,149,118,123,124,126
2025-02-26 14:26:48.328,-279.0,-928.0,255.0,-1.0,3.0,1.0,144,116,120,122,124
2025-02-26 14:26:48.335,-275.0,-917.0,281.0,2.0,6.0,1.0,146,117,122,124,126
2025-02-26 14:26:48.340,-275.0,-937.0,269.0,2.0,5.0,0.0,148,117,122,125,127
2025-02-26 14:26:48.344,-295.0,-937.0,273.0,1.0,4.0,0.0,145,116,122,123,124
2025-02-26 14:26:48.349,-293.0,-928.0,276.0,2.0,5.0,0.0,147,116,122,124,126
2025-02-26 14:26:48.356,-294.0,-933.0,234.0,3.0,4.0,0.0,147,116,122,123,127
2025-02-26 14:26:48.360,-288.0,-932.0,237.0,2.0,3.0,0.0,147,117,121,130,125
2025-02-26 14:26:48.365,-280.0,-939.0,258.0,4.0,5.0,0.0,147,116,123,125,127
2025-02-26 14:26:48.369,-288.0,-942.0,239.0,4.0,3.0,0.0,146,117,123,124,126
2025-02-26 14:26:48.373,-296.0,-925.0,247.0,7.0,3.0,1.0,145,116,122,123,124
2025-02-26 14:26:48.381,-283.0,-935.0,244.0,7.0,3.0,0.0,146,118,121,123,125
2025-02-26 14:26:48.385,-289.0,-922.0,240.0,4.0,2.0,1.0,147,116,122,124,126
2025-02-26 14:26:48.389,-290.0,-928.0,235.0,4.0,1.0,1.0,148,117,122,124,123
2025-02-26 14:26:48.393,-289.0,-924.0,262.0,1.0,1.0,1.0,146,116,120,122,124
2025-02-26 14:26:48.398,-289.0,-918.0,249.0,3.0,1.0,0.0,147,119,123,125,127
2025-02-26 14:26:48.405,-298.0,-939.0,237.0,3.0,1.0,0.0,146,117,122,123,125
2025-02-26 14:26:48.409,-283.0,-939.0,258.0,3.0,0.0,0.0,144,115,120,123,125
2025-02-26 14:26:48.413,-280.0,-931.0,277.0,5.0,3.0,-1.0,146,117,121,123,121
2025-02-26 14:26:48.418,-292.0,-939.0,254.0,8.0,2.0,-1.0,148,119,122,125,126
2025-02-26 14:26:48.426,-291.0,-940.0,267.0,10.0,3.0,-1.0,146,117,121,122,125
2025-02-26 14:26:48.430,-283.0,-944.0,259.0,10.0,2.0,-1.0,147,118,122,124,126
2025-02-26 14:26:48.435,-280.0,-940.0,267.0,10.0,5.0,-2.0,146,117,121,124,126
2025-02-26 14:26:48.438,-281.0,-960.0,241.0,11.0,0.0,-2.0,146,116,121,122,126
2025-02-26 14:26:48.446,-293.0,-932.0,300.0,12.0,3.0,-1.0,146,115,121,124,125
2025-02-26 14:26:48.450,-281.0,-952.0,235.0,9.0,1.0,-1.0,147,118,120,124,125
2025-02-26 14:26:48.454,-272.0,-934.0,276.0,14.0,1.0,-2.0,147,117,123,124,125
2025-02-26 14:26:48.459,-275.0,-928.0,292.0,8.0,0.0,-1.0,147,118,122,123,126
2025-02-26 14:26:48.466,-281.0,-933.0,268.0,10.0,1.0,-1.0,146,115,119,121,125
2025-02-26 14:26:48.471,-287.0,-941.0,253.0,10.0,3.0,-2.0,147,118,123,124,126
2025-02-26 14:26:48.475,-280.0,-937.0,258.0,10.0,3.0,-1.0,145,116,121,123,125
2025-02-26 14:26:48.479,-280.0,-928.0,264.0,8.0,2.0,-1.0,149,116,121,123,125
2025-02-26 14:26:48.487,-283.0,-926.0,276.0,4.0,0.0,-1.0,146,117,120,124,126
2025-02-26 14:26:48.491,-283.0,-926.0,288.0,1.0,0.0,-1.0,146,117,121,124,125
2025-02-26 14:26:48.495,-286.0,-940.0,271.0,0.0,-1.0,-1.0,147,117,120,123,125
2025-02-26 14:26:48.500,-285.0,-928.0,262.0,1.0,-2.0,-1.0,146,118,121,123,125
2025-02-26 14:26:48.505,-292.0,-921.0,287.0,3.0,0.0,-1.0,146,118,122,123,126
2025-02-26 14:26:48.512,-298.0,-922.0,250.0,2.0,-2.0,-1.0,145,117,125,125,126
2025-02-26 14:26:48.516,-287.0,-917.0,296.0,5.0,-1.0,-1.0,145,116,120,122,125
2025-02-26 14:26:48.520,-293.0,-924.0,273.0,2.0,-2.0,-1.0,139,115,121,127,124
2025-02-26 14:26:48.525,-287.0,-912.0,293.0,6.0,0.0,-1.0,148,117,121,124,126
2025-02-26 14:26:48.532,-295.0,-940.0,246.0,5.0,-2.0,-1.0,146,116,119,122,125
2025-02-26 14:26:48.537,-280.0,-913.0,303.0,5.0,0.0,-1.0,146,115,119,123,126
2025-02-26 14:26:48.541,-291.0,-936.0,286.0,8.0,-1.0,-2.0,149,118,122,119,126
2025-02-26 14:26:48.549,-292.0,-923.0,268.0,6.0,-2.0,-2.0,146,118,122,124,126
2025-02-26 14:26:48.553,-270.0,-914.0,271.0,8.0,-1.0,-3.0,147,116,123,124,126
2025-02-26 14:26:48.557,-285.0,-921.0,296.0,6.0,0.0,-3.0,147,118,119,121,124
2025-02-26 14:26:48.561,-277.0,-921.0,304.0,7.0,0.0,-4.0,147,118,122,124,127
2025-02-26 14:26:48.569,-271.0,-932.0,296.0,9.0,1.0,-4.0,148,118,120,123,126
2025-02-26 14:26:48.574,-281.0,-926.0,312.0,7.0,2.0,-5.0,146,117,120,122,125
2025-02-26 14:26:48.578,-263.0,-923.0,282.0,9.0,5.0,-5.0,145,116,120,121,123
2025-02-26 14:26:48.580,-282.0,-934.0,263.0,8.0,4.0,-4.0,148,118,122,125,126
2025-02-26 14:26:48.586,-273.0,-930.0,283.0,8.0,4.0,-4.0,146,117,120,125,126
2025-02-26 14:26:48.593,-275.0,-937.0,275.0,7.0,3.0,-3.0,145,116,120,124,125
2025-02-26 14:26:48.598,-278.0,-940.0,297.0,5.0,2.0,-3.0,147,119,122,125,126
2025-02-26 14:26:48.602,-269.0,-931.0,290.0,4.0,2.0,-3.0,144,117,121,124,127
2025-02-26 14:26:48.606,-281.0,-947.0,285.0,6.0,2.0,-2.0,145,116,120,122,125
2025-02-26 14:26:48.614,-283.0,-946.0,294.0,8.0,2.0,-2.0,146,116,120,123,125
2025-02-26 14:26:48.616,-288.0,-951.0,288.0,9.0,3.0,-2.0,148,120,123,125,126
2025-02-26 14:26:48.623,-284.0,-960.0,274.0,9.0,1.0,-1.0,148,118,121,123,125
2025-02-26 14:26:48.627,-276.0,-952.0,310.0,9.0,1.0,-1.0,145,117,121,124,126
2025-02-26 14:26:48.634,-273.0,-941.0,301.0,5.0,0.0,-1.0,146,118,121,124,126
2025-02-26 14:26:48.639,-277.0,-942.0,297.0,6.0,2.0,-1.0,148,119,123,125,128
2025-02-26 14:26:48.643,-267.0,-949.0,262.0,7.0,0.0,-1.0,146,117,120,126,125
2025-02-26 14:26:48.646,-287.0,-935.0,284.0,5.0,2.0,0.0,147,119,121,124,127
2025-02-26 14:26:48.652,-264.0,-922.0,308.0,4.0,2.0,-1.0,146,119,122,124,126
2025-02-26 14:26:48.657,-285.0,-936.0,266.0,0.0,0.0,0.0,147,117,123,125,127
2025-02-26 14:26:48.664,-285.0,-928.0,324.0,-1.0,0.0,0.0,145,116,120,124,126
2025-02-26 14:26:48.668,-271.0,-926.0,295.0,-1.0,-1.0,0.0,147,117,121,123,127
2025-02-26 14:26:48.672,-340.0,-912.0,224.0,-3.0,-1.0,-1.0,146,117,122,125,126
2025-02-26 14:26:48.676,-291.0,-924.0,242.0,-7.0,4.0,2.0,148,118,120,123,127
2025-02-26 14:26:48.684,-241.0,-940.0,304.0,-6.0,-6.0,4.0,148,118,122,125,126
2025-02-26 14:26:48.689,-372.0,-1011.0,219.0,-15.0,-11.0,2.0,146,117,119,125,126
2025-02-26 14:26:48.696,-309.0,-959.0,299.0,-6.0,-4.0,3.0,146,118,121,124,126
2025-02-26 14:26:48.701,-274.0,-864.0,186.0,-3.0,-1.0,1.0,147,117,121,124,126
2025-02-26 14:26:48.702,-320.0,-899.0,158.0,-12.0,-10.0,4.0,147,117,121,123,126
2025-02-26 14:26:48.709,-402.0,-913.0,169.0,-22.0,-23.0,7.0,147,117,121,124,127
2025-02-26 14:26:48.717,-294.0,-915.0,242.0,-28.0,-26.0,7.0,147,118,122,124,126
2025-02-26 14:26:48.720,-301.0,-927.0,148.0,-23.0,-13.0,6.0,145,118,122,117,126
2025-02-26 14:26:48.725,-203.0,-958.0,209.0,-7.0,-12.0,3.0,145,117,120,122,126
2025-02-26 14:26:48.729,-339.0,-932.0,374.0,-3.0,-9.0,3.0,149,119,123,124,129
2025-02-26 14:26:48.737,-243.0,-837.0,291.0,-5.0,-5.0,0.0,147,118,122,124,127
2025-02-26 14:26:48.741,-280.0,-891.0,264.0,-6.0,-14.0,0.0,148,119,122,123,126
2025-02-26 14:26:48.743,-308.0,-942.0,418.0,-6.0,-10.0,-3.0,146,115,122,123,126
2025-02-26 14:26:48.754,-199.0,-927.0,249.0,-1.0,-5.0,-5.0,143,116,120,126,126
2025-02-26 14:26:48.758,-278.0,-986.0,348.0,8.0,-1.0,-6.0,147,118,121,123,126
2025-02-26 14:26:48.762,-255.0,-956.0,274.0,5.0,7.0,-7.0,148,118,122,123,126
2025-02-26 14:26:48.767,-235.0,-919.0,357.0,12.0,10.0,-7.0,148,115,120,120,125
2025-02-26 14:26:48.773,-317.0,-954.0,169.0,18.0,-2.0,-3.0,145,117,120,123,126
2025-02-26 14:26:48.778,-215.0,-866.0,295.0,19.0,1.0,-4.0,148,120,124,125,127
2025-02-26 14:26:48.782,-297.0,-995.0,281.0,11.0,-4.0,-2.0,148,117,122,123,127
2025-02-26 14:26:48.787,-325.0,-916.0,344.0,5.0,-5.0,-2.0,145,117,121,123,125
2025-02-26 14:26:48.793,-332.0,-890.0,310.0,5.0,-1.0,-1.0,144,116,122,124,125
2025-02-26 14:26:48.799,-291.0,-896.0,287.0,2.0,-3.0,-1.0,147,119,124,125,129
2025-02-26 14:26:48.803,-321.0,-911.0,287.0,2.0,-6.0,0.0,147,118,121,122,126
2025-02-26 14:26:48.808,-288.0,-901.0,278.0,-1.0,-8.0,1.0,146,116,121,122,125
2025-02-26 14:26:48.815,-286.0,-914.0,295.0,-2.0,-8.0,1.0,148,117,122,124,127
2025-02-26 14:26:48.819,-290.0,-944.0,292.0,-2.0,-9.0,1.0,146,119,123,124,128
2025-02-26 14:26:48.823,-274.0,-937.0,315.0,-1.0,-11.0,1.0,147,118,122,124,126
2025-02-26 14:26:48.828,-285.0,-954.0,324.0,2.0,-11.0,0.0,145,117,119,122,124
2025-02-26 14:26:48.836,-260.0,-927.0,323.0,6.0,-4.0,0.0,147,119,124,122,127
2025-02-26 14:26:48.840,-257.0,-957.0,301.0,7.0,-6.0,1.0,147,119,124,126,128
2025-02-26 14:26:48.844,-279.0,-962.0,296.0,8.0,-7.0,1.0,147,116,121,122,126
2025-02-26 14:26:48.848,-254.0,-956.0,318.0,10.0,-5.0,1.0,145,118,120,121,125
2025-02-26 14:26:48.855,-269.0,-956.0,304.0,13.0,-5.0,0.0,146,116,121,124,128
2025-02-26 14:26:48.859,-256.0,-924.0,345.0,13.0,-4.0,0.0,145,119,122,125,127
2025-02-26 14:26:48.864,-259.0,-963.0,280.0,10.0,-6.0,0.0,146,116,120,123,126
2025-02-26 14:26:48.868,-265.0,-935.0,323.0,8.0,-5.0,0.0,145,117,120,122,125
2025-02-26 14:26:48.876,-280.0,-939.0,314.0,10.0,-5.0,1.0,147,118,122,126,127
2025-02-26 14:26:48.881,-267.0,-913.0,306.0,9.0,-6.0,0.0,149,119,125,124,126
2025-02-26 14:26:48.885,-280.0,-935.0,292.0,13.0,-6.0,1.0,145,117,121,122,124
2025-02-26 14:26:48.890,-283.0,-936.0,286.0,12.0,-5.0,1.0,146,117,121,123,127
2025-02-26 14:26:48.895,-288.0,-936.0,291.0,13.0,-5.0,1.0,147,119,121,123,127
2025-02-26 14:26:48.901,-279.0,-932.0,298.0,13.0,-5.0,0.0,146,117,121,121,126
2025-02-26 14:26:48.906,-262.0,-947.0,313.0,14.0,-4.0,1.0,145,118,121,122,125
2025-02-26 14:26:48.910,-305.0,-948.0,323.0,17.0,-6.0,1.0,146,118,123,124,126
2025-02-26 14:26:48.917,-280.0,-920.0,322.0,18.0,-1.0,1.0,147,117,123,124,127
2025-02-26 14:26:48.920,-251.0,-948.0,319.0,19.0,-2.0,0.0,150,120,120,123,127
2025-02-26 14:26:48.923,-269.0,-955.0,349.0,25.0,1.0,0.0,145,118,122,122,126
2025-02-26 14:26:48.931,-266.0,-953.0,331.0,32.0,4.0,-1.0,145,117,120,125,126
2025-02-26 14:26:48.936,-264.0,-956.0,308.0,33.0,4.0,-2.0,145,117,123,123,125
2025-02-26 14:26:48.943,-245.0,-935.0,393.0,36.0,7.0,-4.0,149,118,121,121,126
2025-02-26 14:26:48.947,-226.0,-921.0,393.0,42.0,12.0,-4.0,146,116,120,123,125
2025-02-26 14:26:48.954,-257.0,-940.0,382.0,45.0,12.0,-4.0,145,116,120,124,126
2025-02-26 14:26:48.958,-253.0,-947.0,393.0,44.0,15.0,-6.0,147,117,120,122,127
2025-02-26 14:26:48.963,-224.0,-896.0,458.0,32.0,20.0,-6.0,147,118,119,121,126
2025-02-26 14:26:48.968,-253.0,-976.0,452.0,37.0,19.0,-5.0,147,117,121,124,125
2025-02-26 14:26:48.974,-294.0,-1003.0,457.0,33.0,12.0,-1.0,146,117,120,125,126
2025-02-26 14:26:48.979,-317.0,-935.0,388.0,25.0,11.0,-1.0,148,119,122,126,129
2025-02-26 14:26:48.983,-235.0,-921.0,523.0,26.0,13.0,2.0,147,118,121,125,127
2025-02-26 14:26:48.988,-366.0,-1009.0,231.0,36.0,0.0,3.0,146,116,120,123,126
2025-02-26 14:26:48.995,-217.0,-780.0,430.0,22.0,18.0,0.0,145,118,122,125,127
2025-02-26 14:26:48.997,-430.0,-875.0,225.0,25.0,3.0,6.0,149,120,123,127,128
2025-02-26 14:26:49.004,-267.0,-841.0,339.0,16.0,-1.0,2.0,146,116,120,123,126
2025-02-26 14:26:49.008,-226.0,-829.0,301.0,0.0,13.0,1.0,146,118,121,122,125
2025-02-26 14:26:49.016,-410.0,-921.0,234.0,6.0,2.0,4.0,148,117,120,125,127
2025-02-26 14:26:49.020,-274.0,-916.0,380.0,9.0,7.0,2.0,146,118,122,125,127
2025-02-26 14:26:49.024,-250.0,-875.0,292.0,7.0,2.0,2.0,146,118,119,123,126
2025-02-26 14:26:49.028,-251.0,-869.0,385.0,7.0,7.0,0.0,146,114,120,125,128
2025-02-26 14:26:49.033,-296.0,-914.0,356.0,7.0,6.0,2.0,147,114,117,124,126
2025-02-26 14:26:49.040,-286.0,-877.0,371.0,5.0,7.0,2.0,146,117,118,123,126
2025-02-26 14:26:49.044,-269.0,-930.0,371.0,7.0,8.0,1.0,146,118,117,126,128
2025-02-26 14:26:49.048,-264.0,-918.0,384.0,7.0,10.0,0.0,145,118,117,125,127
2025-02-26 14:26:49.052,-236.0,-924.0,370.0,7.0,11.0,1.0,147,117,116,123,127
2025-02-26 14:26:49.061,-290.0,-953.0,363.0,9.0,11.0,0.0,145,117,117,124,127
2025-02-26 14:26:49.063,-289.0,-955.0,363.0,15.0,10.0,2.0,148,118,118,125,128
2025-02-26 14:26:49.070,-311.0,-961.0,357.0,18.0,9.0,2.0,147,118,117,124,126
2025-02-26 14:26:49.074,-281.0,-934.0,369.0,24.0,10.0,2.0,145,117,116,124,125
2025-02-26 14:26:49.081,-270.0,-917.0,393.0,23.0,11.0,2.0,147,119,119,125,128
2025-02-26 14:26:49.085,-291.0,-917.0,360.0,21.0,9.0,2.0,146,118,118,126,127
2025-02-26 14:26:49.090,-307.0,-916.0,399.0,21.0,9.0,3.0,147,116,117,123,126
2025-02-26 14:26:49.094,-284.0,-908.0,363.0,25.0,11.0,3.0,146,117,117,121,126
2025-02-26 14:26:49.102,-292.0,-905.0,349.0,26.0,11.0,2.0,147,119,120,126,127
2025-02-26 14:26:49.106,-289.0,-908.0,386.0,28.0,12.0,2.0,147,117,118,124,128
2025-02-26 14:26:49.111,-295.0,-922.0,365.0,30.0,11.0,3.0,145,117,117,124,127
2025-02-26 14:26:49.114,-306.0,-919.0,360.0,34.0,11.0,3.0,146,116,117,122,125
2025-02-26 14:26:49.122,-292.0,-930.0,365.0,38.0,12.0,3.0,147,118,120,126,128
2025-02-26 14:26:49.125,-281.0,-910.0,379.0,39.0,12.0,4.0,147,117,119,125,126
2025-02-26 14:26:49.130,-297.0,-925.0,382.0,41.0,12.0,5.0,143,117,117,120,125
2025-02-26 14:26:49.135,-288.0,-922.0,356.0,42.0,13.0,5.0,147,118,118,124,127
2025-02-26 14:26:49.143,-281.0,-913.0,375.0,43.0,14.0,5.0,147,113,117,126,125
2025-02-26 14:26:49.147,-275.0,-923.0,395.0,44.0,14.0,5.0,146,118,118,124,127
2025-02-26 14:26:49.151,-294.0,-913.0,389.0,44.0,13.0,5.0,136,115,116,125,125
2025-02-26 14:26:49.155,-292.0,-917.0,410.0,46.0,16.0,4.0,149,117,118,124,127
2025-02-26 14:26:49.163,-286.0,-917.0,389.0,47.0,15.0,4.0,148,119,120,126,127
2025-02-26 14:26:49.166,-293.0,-933.0,402.0,48.0,15.0,4.0,146,118,118,124,127
2025-02-26 14:26:49.172,-281.0,-900.0,438.0,50.0,16.0,3.0,144,116,116,121,126
2025-02-26 14:26:49.176,-291.0,-888.0,399.0,50.0,18.0,3.0,145,118,121,125,127
2025-02-26 14:26:49.183,-297.0,-895.0,403.0,52.0,17.0,2.0,147,119,120,125,128
2025-02-26 14:26:49.187,-307.0,-883.0,422.0,52.0,18.0,1.0,145,117,118,125,126
2025-02-26 14:26:49.191,-299.0,-875.0,402.0,51.0,20.0,1.0,147,116,117,124,125
2025-02-26 14:26:49.197,-305.0,-872.0,395.0,48.0,18.0,0.0,147,118,119,125,128
2025-02-26 14:26:49.204,-312.0,-853.0,416.0,47.0,18.0,0.0,143,118,120,125,128
2025-02-26 14:26:49.209,-314.0,-858.0,403.0,45.0,17.0,0.0,145,118,119,124,126
2025-02-26 14:26:49.209,-329.0,-851.0,391.0,42.0,14.0,0.0,145,115,116,123,126
2025-02-26 14:26:49.217,-336.0,-828.0,403.0,41.0,14.0,0.0,150,119,120,126,129
2025-02-26 14:26:49.224,-331.0,-834.0,398.0,40.0,13.0,0.0,145,119,120,126,127
2025-02-26 14:26:49.229,-340.0,-834.0,401.0,39.0,13.0,1.0,146,118,120,123,125
2025-02-26 14:26:49.233,-316.0,-847.0,416.0,36.0,11.0,1.0,144,117,118,122,125
2025-02-26 14:26:49.238,-350.0,-843.0,399.0,33.0,8.0,2.0,146,120,122,127,129
2025-02-26 14:26:49.245,-321.0,-837.0,475.0,34.0,10.0,2.0,146,118,119,126,127
2025-02-26 14:26:49.250,-328.0,-854.0,445.0,30.0,8.0,3.0,145,115,118,123,126
2025-02-26 14:26:49.254,-342.0,-841.0,462.0,30.0,8.0,3.0,148,118,120,124,127
2025-02-26 14:26:49.258,-311.0,-860.0,469.0,30.0,10.0,3.0,148,120,122,127,128
2025-02-26 14:26:49.265,-308.0,-883.0,474.0,30.0,10.0,3.0,146,115,119,124,127
2025-02-26 14:26:49.270,-312.0,-869.0,496.0,30.0,8.0,3.0,145,117,118,122,125
2025-02-26 14:26:49.274,-296.0,-867.0,517.0,29.0,12.0,1.0,146,117,119,122,126
2025-02-26 14:26:49.278,-302.0,-874.0,507.0,29.0,13.0,1.0,149,119,120,126,128
2025-02-26 14:26:49.286,-299.0,-867.0,519.0,30.0,14.0,0.0,146,117,119,123,125
2025-02-26 14:26:49.290,-289.0,-872.0,526.0,31.0,17.0,0.0,144,116,119,123,125
2025-02-26 14:26:49.295,-299.0,-883.0,520.0,33.0,18.0,0.0,146,118,121,124,127
2025-02-26 14:26:49.299,-303.0,-894.0,530.0,36.0,19.0,0.0,147,119,121,125,128
2025-02-26 14:26:49.307,-303.0,-881.0,544.0,41.0,22.0,0.0,145,115,119,124,126
2025-02-26 14:26:49.311,-301.0,-887.0,503.0,44.0,23.0,1.0,145,117,119,123,126
2025-02-26 14:26:49.311,-318.0,-873.0,532.0,49.0,26.0,2.0,145,118,119,125,128
2025-02-26 14:26:49.319,-311.0,-871.0,520.0,52.0,28.0,3.0,155,119,120,130,127
2025-02-26 14:26:49.327,-320.0,-822.0,473.0,56.0,29.0,4.0,145,117,119,123,126
2025-02-26 14:26:49.332,-317.0,-838.0,484.0,57.0,30.0,5.0,147,118,121,124,126
2025-02-26 14:26:49.336,-333.0,-807.0,487.0,55.0,31.0,6.0,147,119,121,126,127
2025-02-26 14:26:49.343,-337.0,-794.0,479.0,53.0,29.0,7.0,147,119,115,125,127
2025-02-26 14:26:49.348,-347.0,-795.0,510.0,44.0,27.0,8.0,144,118,119,124,126
2025-02-26 14:26:49.351,-332.0,-755.0,523.0,40.0,29.0,8.0,149,118,120,124,126
2025-02-26 14:26:49.356,-345.0,-774.0,503.0,34.0,26.0,8.0,148,120,120,125,128
2025-02-26 14:26:49.363,-349.0,-793.0,528.0,32.0,25.0,7.0,146,114,118,124,126
2025-02-26 14:26:49.368,-351.0,-806.0,528.0,28.0,24.0,7.0,143,118,119,123,126
2025-02-26 14:26:49.372,-344.0,-799.0,545.0,30.0,25.0,6.0,147,121,119,125,128
2025-02-26 14:26:49.377,-353.0,-826.0,536.0,30.0,23.0,5.0,148,119,121,125,127
2025-02-26 14:26:49.384,-338.0,-837.0,564.0,30.0,23.0,6.0,144,117,119,123,126
2025-02-26 14:26:49.389,-334.0,-846.0,581.0,32.0,23.0,6.0,146,116,119,125,126
2025-02-26 14:26:49.393,-329.0,-866.0,588.0,34.0,24.0,6.0,145,118,120,126,127
2025-02-26 14:26:49.397,-320.0,-880.0,577.0,35.0,24.0,8.0,146,119,121,126,128
2025-02-26 14:26:49.404,-332.0,-848.0,571.0,38.0,24.0,9.0,146,117,118,124,126
2025-02-26 14:26:49.409,-339.0,-832.0,548.0,39.0,25.0,9.0,144,116,118,123,125
2025-02-26 14:26:49.413,-356.0,-815.0,519.0,40.0,25.0,10.0,146,117,120,124,127
2025-02-26 14:26:49.416,-363.0,-779.0,524.0,40.0,26.0,11.0,148,120,124,125,128
2025-02-26 14:26:49.425,-372.0,-734.0,486.0,37.0,25.0,11.0,145,117,120,125,126
2025-02-26 14:26:49.430,-391.0,-744.0,444.0,37.0,24.0,12.0,144,116,119,123,126
2025-02-26 14:26:49.434,-385.0,-698.0,485.0,38.0,27.0,10.0,146,118,121,124,127
2025-02-26 14:26:49.441,-397.0,-705.0,455.0,32.0,24.0,10.0,147,119,122,124,128
2025-02-26 14:26:49.446,-401.0,-711.0,458.0,28.0,19.0,9.0,145,118,120,125,126
2025-02-26 14:26:49.450,-395.0,-704.0,521.0,20.0,18.0,7.0,147,117,120,123,125
2025-02-26 14:26:49.455,-395.0,-708.0,534.0,17.0,18.0,7.0,146,118,120,125,127
2025-02-26 14:26:49.461,-400.0,-735.0,535.0,14.0,16.0,5.0,148,119,121,125,128
2025-02-26 14:26:49.464,-391.0,-743.0,539.0,13.0,16.0,3.0,145,117,121,123,127
2025-02-26 14:26:49.471,-389.0,-770.0,532.0,15.0,18.0,2.0,146,118,120,123,125
2025-02-26 14:26:49.475,-380.0,-761.0,530.0,13.0,16.0,1.0,146,119,122,124,126
2025-02-26 14:26:49.483,-373.0,-777.0,564.0,14.0,17.0,0.0,148,119,121,124,127
2025-02-26 14:26:49.486,-387.0,-787.0,548.0,15.0,16.0,0.0,145,117,121,123,126
2025-02-26 14:26:49.491,-378.0,-806.0,574.0,18.0,16.0,0.0,145,117,121,122,124
2025-02-26 14:26:49.495,-371.0,-827.0,560.0,21.0,16.0,0.0,147,119,120,124,127
2025-02-26 14:26:49.503,-380.0,-820.0,525.0,23.0,8.0,1.0,147,120,121,128,127
2025-02-26 14:26:49.507,-406.0,-850.0,626.0,26.0,13.0,1.0,147,117,119,122,126
2025-02-26 14:26:49.511,-374.0,-805.0,582.0,33.0,17.0,1.0,144,118,121,122,125
2025-02-26 14:26:49.516,-368.0,-834.0,565.0,37.0,17.0,3.0,148,119,122,123,127
2025-02-26 14:26:49.524,-366.0,-858.0,591.0,40.0,19.0,4.0,149,119,121,121,127
2025-02-26 14:26:49.528,-373.0,-838.0,555.0,42.0,19.0,5.0,145,119,120,124,125
2025-02-26 14:26:49.532,-353.0,-836.0,553.0,41.0,18.0,6.0,143,119,122,120,125
2025-02-26 14:26:49.536,-356.0,-826.0,576.0,41.0,21.0,8.0,146,118,121,123,126
2025-02-26 14:26:49.544,-365.0,-824.0,545.0,40.0,20.0,10.0,144,115,121,125,126
2025-02-26 14:26:49.548,-380.0,-816.0,566.0,39.0,21.0,11.0,146,116,117,122,125
2025-02-26 14:26:49.552,-372.0,-819.0,552.0,42.0,24.0,11.0,146,117,122,125,125
2025-02-26 14:26:49.557,-371.0,-813.0,554.0,39.0,25.0,13.0,148,120,123,126,127
2025-02-26 14:26:49.564,-381.0,-815.0,519.0,39.0,23.0,16.0,147,118,121,124,126
2025-02-26 14:26:49.569,-381.0,-809.0,508.0,37.0,22.0,19.0,146,116,121,123,123
2025-02-26 14:26:49.573,-407.0,-795.0,528.0,37.0,21.0,19.0,145,117,119,122,124
2025-02-26 14:26:49.581,-411.0,-777.0,503.0,39.0,20.0,21.0,148,119,123,124,127
2025-02-26 14:26:49.585,-418.0,-753.0,504.0,38.0,17.0,21.0,146,118,122,124,126
2025-02-26 14:26:49.589,-429.0,-726.0,507.0,36.0,16.0,23.0,147,116,119,122,124
2025-02-26 14:26:49.594,-430.0,-685.0,511.0,36.0,12.0,22.0,145,117,120,122,124
2025-02-26 14:26:49.601,-444.0,-669.0,503.0,34.0,11.0,21.0,147,119,124,125,127
2025-02-26 14:26:49.606,-452.0,-657.0,505.0,32.0,9.0,19.0,147,119,121,124,126
2025-02-26 14:26:49.610,-474.0,-669.0,461.0,29.0,5.0,16.0,146,115,121,122,124
2025-02-26 14:26:49.614,-459.0,-654.0,507.0,30.0,5.0,15.0,147,117,121,122,124
2025-02-26 14:26:49.622,-453.0,-659.0,527.0,27.0,5.0,12.0,149,119,122,123,125
2025-02-26 14:26:49.626,-444.0,-664.0,553.0,23.0,2.0,10.0,146,118,121,123,126
2025-02-26 14:26:49.631,-429.0,-693.0,612.0,18.0,2.0,8.0,145,117,120,122,125
2025-02-26 14:26:49.635,-429.0,-691.0,571.0,13.0,1.0,8.0,145,116,120,122,123
2025-02-26 14:26:49.642,-425.0,-708.0,587.0,9.0,1.0,7.0,146,119,120,123,125
2025-02-26 14:26:49.646,-420.0,-722.0,572.0,10.0,2.0,8.0,146,118,121,123,125
2025-02-26 14:26:49.651,-425.0,-746.0,529.0,13.0,3.0,9.0,145,117,120,120,123
2025-02-26 14:26:49.656,-435.0,-758.0,557.0,13.0,-1.0,10.0,145,118,123,124,123
2025-02-26 14:26:49.663,-425.0,-750.0,593.0,15.0,1.0,12.0,145,119,124,126,126
2025-02-26 14:26:49.666,-390.0,-724.0,674.0,16.0,5.0,13.0,148,117,122,122,125
2025-02-26 14:26:49.670,-397.0,-738.0,602.0,15.0,7.0,14.0,144,116,120,117,123
2025-02-26 14:26:49.676,-422.0,-737.0,580.0,17.0,4.0,15.0,146,118,121,123,125
2025-02-26 14:26:49.682,-436.0,-748.0,585.0,18.0,4.0,17.0,155,119,122,120,124
2025-02-26 14:26:49.687,-438.0,-726.0,581.0,16.0,5.0,18.0,145,117,121,122,123
2025-02-26 14:26:49.692,-431.0,-715.0,606.0,16.0,3.0,20.0,144,116,120,121,121
2025-02-26 14:26:49.696,-447.0,-716.0,618.0,18.0,6.0,21.0,144,122,122,122,123
2025-02-26 14:26:49.704,-462.0,-719.0,583.0,18.0,6.0,23.0,147,116,122,127,124
2025-02-26 14:26:49.708,-462.0,-708.0,592.0,18.0,6.0,25.0,144,118,121,121,123
2025-02-26 14:26:49.712,-468.0,-711.0,637.0,15.0,6.0,25.0,143,115,119,121,121
2025-02-26 14:26:49.717,-473.0,-668.0,605.0,7.0,4.0,26.0,146,118,122,122,123
2025-02-26 14:26:49.724,-504.0,-652.0,590.0,2.0,4.0,26.0,146,118,123,123,124
2025-02-26 14:26:49.728,-496.0,-693.0,456.0,5.0,0.0,26.0,145,117,121,121,122
2025-02-26 14:26:49.733,-514.0,-681.0,584.0,2.0,-1.0,26.0,146,117,121,123,123
2025-02-26 14:26:49.737,-462.0,-623.0,600.0,8.0,4.0,23.0,145,118,122,123,123
2025-02-26 14:26:49.745,-464.0,-590.0,551.0,5.0,1.0,21.0,144,116,120,123,124
2025-02-26 14:26:49.749,-471.0,-584.0,623.0,9.0,-3.0,19.0,143,116,120,120,122
2025-02-26 14:26:49.753,-486.0,-581.0,615.0,14.0,1.0,14.0,145,117,122,122,124
2025-02-26 14:26:49.757,-477.0,-604.0,503.0,4.0,-7.0,10.0,146,117,121,122,122
2025-02-26 14:26:49.765,-453.0,-554.0,561.0,-3.0,-8.0,9.0,144,118,120,118,121
2025-02-26 14:26:49.769,-405.0,-551.0,669.0,-11.0,-7.0,6.0,144,116,119,120,122
2025-02-26 14:26:49.774,-473.0,-560.0,590.0,-3.0,-2.0,1.0,147,117,121,121,122
2025-02-26 14:26:49.778,-498.0,-631.0,498.0,-7.0,-6.0,-1.0,148,119,124,124,126
2025-02-26 14:26:49.786,-470.0,-618.0,541.0,-6.0,-4.0,-3.0,147,115,123,123,124
2025-02-26 14:26:49.790,-465.0,-644.0,622.0,-17.0,-11.0,-2.0,145,117,120,120,123
2025-02-26 14:26:49.794,-481.0,-621.0,635.0,-16.0,-14.0,-6.0,146,117,122,123,125
2025-02-26 14:26:49.802,-462.0,-657.0,625.0,-24.0,-14.0,-8.0,147,118,125,123,126
2025-02-26 14:26:49.806,-453.0,-661.0,577.0,-25.0,-16.0,-8.0,147,119,123,123,124
2025-02-26 14:26:49.811,-467.0,-627.0,628.0,-17.0,-11.0,-12.0,148,117,123,123,124
2025-02-26 14:26:49.817,-468.0,-674.0,566.0,-15.0,-9.0,-12.0,144,116,122,121,124
2025-02-26 14:26:49.823,-466.0,-691.0,578.0,-19.0,-11.0,-13.0,140,116,121,121,124
2025-02-26 14:26:49.827,-451.0,-648.0,629.0,-12.0,-5.0,-14.0,148,119,124,123,125
2025-02-26 14:26:49.835,-461.0,-677.0,604.0,-12.0,-4.0,-14.0,146,118,122,122,127
2025-02-26 14:26:49.839,-467.0,-697.0,593.0,-9.0,-4.0,-13.0,147,120,124,122,126
2025-02-26 14:26:49.844,-456.0,-711.0,564.0,-7.0,-6.0,-11.0,147,116,122,122,125
2025-02-26 14:26:49.851,-448.0,-706.0,654.0,-3.0,-7.0,-10.0,147,118,121,122,124
2025-02-26 14:26:49.855,-418.0,-677.0,634.0,1.0,-1.0,-11.0,146,117,124,122,125
2025-02-26 14:26:49.859,-435.0,-699.0,603.0,-1.0,-2.0,-11.0,147,119,125,123,127
2025-02-26 14:26:49.864,-423.0,-710.0,614.0,1.0,0.0,-10.0,146,117,121,124,125
2025-02-26 14:26:49.872,-416.0,-700.0,598.0,0.0,-1.0,-9.0,145,117,121,123,125
2025-02-26 14:26:49.876,-432.0,-693.0,636.0,-6.0,-3.0,-10.0,146,117,121,119,125
2025-02-26 14:26:49.880,-423.0,-705.0,627.0,-6.0,-5.0,-10.0,148,117,123,123,126
2025-02-26 14:26:49.888,-430.0,-696.0,635.0,-6.0,-6.0,-11.0,146,118,122,123,126
2025-02-26 14:26:49.892,-423.0,-697.0,602.0,-4.0,-6.0,-12.0,149,116,121,120,125
2025-02-26 14:26:49.896,-419.0,-689.0,615.0,-2.0,-6.0,-12.0,146,117,122,121,125
2025-02-26 14:26:49.901,-433.0,-696.0,610.0,-4.0,-8.0,-13.0,147,118,118,124,126
2025-02-26 14:26:49.908,-434.0,-699.0,615.0,-6.0,-10.0,-14.0,147,118,124,123,127
2025-02-26 14:26:49.913,-436.0,-706.0,621.0,-5.0,-9.0,-15.0,148,118,127,123,126
2025-02-26 14:26:49.918,-445.0,-718.0,604.0,-6.0,-10.0,-15.0,146,117,121,120,126
2025-02-26 14:26:49.925,-441.0,-715.0,610.0,-7.0,-11.0,-16.0,147,118,122,121,125
2025-02-26 14:26:49.929,-434.0,-717.0,602.0,-9.0,-12.0,-16.0,144,116,120,122,125
2025-02-26 14:26:49.931,-431.0,-714.0,590.0,-9.0,-13.0,-16.0,146,118,123,123,127
2025-02-26 14:26:49.941,-440.0,-725.0,571.0,-11.0,-16.0,-14.0,147,119,124,124,128
2025-02-26 14:26:49.946,-442.0,-730.0,597.0,-10.0,-18.0,-12.0,146,117,122,122,127
2025-02-26 14:26:49.950,-442.0,-730.0,601.0,-8.0,-20.0,-11.0,147,117,119,121,126
2025-02-26 14:26:49.958,-434.0,-726.0,604.0,-8.0,-20.0,-9.0,145,116,122,123,125
2025-02-26 14:26:49.962,-424.0,-735.0,599.0,-7.0,-20.0,-8.0,144,116,122,123,125
2025-02-26 14:26:49.966,-412.0,-746.0,584.0,-4.0,-19.0,-7.0,147,119,124,123,128
2025-02-26 14:26:49.971,-404.0,-735.0,608.0,2.0,-17.0,-4.0,145,118,119,122,127
2025-02-26 14:26:49.978,-402.0,-738.0,611.0,4.0,-16.0,-2.0,145,117,125,122,126
2025-02-26 14:26:49.983,-407.0,-740.0,601.0,11.0,-16.0,-1.0,146,119,120,123,126
2025-02-26 14:26:49.986,-404.0,-749.0,646.0,14.0,-14.0,-1.0,147,118,123,124,128
2025-02-26 14:26:49.995,-400.0,-748.0,614.0,16.0,-14.0,0.0,145,118,123,123,127
2025-02-26 14:26:49.998,-403.0,-746.0,624.0,15.0,-16.0,0.0,147,118,122,122,127
2025-02-26 14:26:50.003,-398.0,-750.0,616.0,14.0,-17.0,-1.0,146,117,121,123,127
2025-02-26 14:26:50.007,-389.0,-753.0,604.0,15.0,-18.0,-1.0,146,117,121,121,125
2025-02-26 14:26:50.015,-397.0,-750.0,645.0,15.0,-18.0,-1.0,148,118,122,123,128
2025-02-26 14:26:50.019,-396.0,-734.0,605.0,15.0,-20.0,-2.0,149,121,124,126,129
2025-02-26 14:26:50.023,-395.0,-730.0,635.0,15.0,-21.0,-2.0,146,120,123,123,128
2025-02-26 14:26:50.032,-398.0,-708.0,623.0,16.0,-22.0,-2.0,144,118,122,123,126
2025-02-26 14:26:50.034,-400.0,-703.0,593.0,12.0,-27.0,-2.0,145,118,121,122,127
2025-02-26 14:26:50.041,-410.0,-691.0,617.0,10.0,-29.0,-1.0,146,120,123,123,128
2025-02-26 14:26:50.047,-403.0,-691.0,614.0,8.0,-29.0,0.0,146,120,123,124,128
2025-02-26 14:26:50.052,-415.0,-706.0,587.0,7.0,-32.0,2.0,145,118,123,122,127
2025-02-26 14:26:50.056,-414.0,-703.0,635.0,8.0,-32.0,3.0,145,119,122,122,125
2025-02-26 14:26:50.060,-401.0,-705.0,625.0,8.0,-32.0,3.0,147,119,124,122,129
2025-02-26 14:26:50.068,-405.0,-687.0,640.0,12.0,-30.0,5.0,147,119,124,125,128
2025-02-26 14:26:50.071,-408.0,-680.0,666.0,15.0,-24.0,5.0,146,119,122,121,127
2025-02-26 14:26:50.077,-397.0,-711.0,629.0,16.0,-23.0,6.0,146,118,120,120,126
2025-02-26 14:26:50.081,-414.0,-710.0,655.0,17.0,-22.0,6.0,146,129,124,123,126
2025-02-26 14:26:50.089,-389.0,-692.0,677.0,17.0,-18.0,6.0,146,120,123,123,128
2025-02-26 14:26:50.093,-373.0,-681.0,697.0,16.0,-15.0,5.0,144,120,121,123,126
2025-02-26 14:26:50.097,-378.0,-697.0,656.0,14.0,-15.0,6.0,146,119,121,120,126
2025-02-26 14:26:50.101,-381.0,-718.0,678.0,10.0,-17.0,6.0,148,118,123,122,125
2025-02-26 14:26:50.109,-385.0,-715.0,695.0,10.0,-14.0,5.0,147,120,123,124,127
2025-02-26 14:26:50.118,-377.0,-718.0,673.0,9.0,-14.0,6.0,145,120,122,121,126
2025-02-26 14:26:50.120,-383.0,-695.0,686.0,7.0,-13.0,5.0,146,119,122,124,128
2025-02-26 14:26:50.125,-385.0,-699.0,660.0,6.0,-13.0,5.0,145,119,121,120,126
2025-02-26 14:26:50.129,-386.0,-704.0,650.0,4.0,-14.0,6.0,146,118,121,123,128
2025-02-26 14:26:50.134,-387.0,-701.0,667.0,3.0,-13.0,7.0,143,120,122,121,126
2025-02-26 14:26:50.138,-396.0,-699.0,663.0,2.0,-12.0,8.0,145,119,121,123,127
2025-02-26 14:26:50.146,-387.0,-687.0,631.0,1.0,-11.0,9.0,146,119,123,123,124
2025-02-26 14:26:50.151,-412.0,-704.0,608.0,0.0,-14.0,10.0,144,118,123,123,127
2025-02-26 14:26:50.155,-401.0,-697.0,704.0,4.0,-2.0,9.0,147,121,122,121,126
2025-02-26 14:26:50.159,-389.0,-687.0,704.0,15.0,4.0,8.0,146,120,122,122,127
2025-02-26 14:26:50.167,-378.0,-713.0,585.0,9.0,3.0,9.0,146,119,124,123,126
2025-02-26 14:26:50.171,-406.0,-696.0,643.0,3.0,-1.0,11.0,147,119,122,122,127
2025-02-26 14:26:50.175,-383.0,-689.0,663.0,6.0,0.0,12.0,144,118,123,123,126
2025-02-26 14:26:50.179,-382.0,-691.0,649.0,3.0,-1.0,12.0,143,118,123,123,126
2025-02-26 14:26:50.184,-373.0,-700.0,693.0,1.0,2.0,13.0,145,120,123,123,127
2025-02-26 14:26:50.191,-380.0,-696.0,662.0,0.0,4.0,13.0,145,120,122,122,126
2025-02-26 14:26:50.195,-380.0,-715.0,661.0,-2.0,5.0,15.0,144,118,122,122,126
2025-02-26 14:26:50.198,-391.0,-732.0,657.0,-7.0,1.0,15.0,148,120,124,124,127
2025-02-26 14:26:50.207,-374.0,-722.0,663.0,-12.0,0.0,16.0,146,120,123,121,125
2025-02-26 14:26:50.211,-387.0,-697.0,670.0,-14.0,-1.0,17.0,146,119,123,123,127
2025-02-26 14:26:50.216,-389.0,-710.0,664.0,-16.0,-1.0,18.0,144,118,123,122,125
2025-02-26 14:26:50.220,-390.0,-696.0,655.0,-16.0,0.0,18.0,143,117,123,121,127
2025-02-26 14:26:50.228,-396.0,-700.0,633.0,-17.0,-2.0,19.0,146,121,122,124,127
2025-02-26 14:26:50.232,-395.0,-714.0,633.0,-18.0,-3.0,20.0,146,119,124,124,127
2025-02-26 14:26:50.236,-387.0,-710.0,694.0,-13.0,2.0,20.0,145,119,123,123,125
2025-02-26 14:26:50.245,-409.0,-714.0,686.0,-3.0,11.0,20.0,145,115,122,122,125
2025-02-26 14:26:50.249,-443.0,-739.0,652.0,-15.0,-2.0,23.0,146,120,125,123,127
2025-02-26 14:26:50.252,-417.0,-707.0,642.0,-11.0,0.0,23.0,144,120,123,123,126
2025-02-26 14:26:50.257,-423.0,-730.0,604.0,-11.0,-3.0,25.0,145,120,123,123,125
2025-02-26 14:26:50.265,-430.0,-709.0,635.0,-12.0,-3.0,25.0,145,118,124,124,126
2025-02-26 14:26:50.269,-408.0,-688.0,698.0,0.0,9.0,24.0,144,118,124,123,126
2025-02-26 14:26:50.274,-429.0,-728.0,539.0,-11.0,0.0,26.0,145,119,122,124,126
2025-02-26 14:26:50.281,-407.0,-712.0,629.0,-13.0,-1.0,28.0,145,121,124,126,127
2025-02-26 14:26:50.286,-410.0,-699.0,627.0,-13.0,-1.0,29.0,143,119,121,122,125
2025-02-26 14:26:50.290,-408.0,-699.0,604.0,-16.0,-2.0,30.0,142,119,122,122,125
2025-02-26 14:26:50.293,-409.0,-694.0,625.0,-20.0,-2.0,30.0,147,119,123,122,125
2025-02-26 14:26:50.301,-410.0,-685.0,636.0,-21.0,-1.0,29.0,147,120,123,124,126
2025-02-26 14:26:50.305,-412.0,-703.0,647.0,-21.0,-2.0,26.0,144,120,123,123,126
2025-02-26 14:26:50.310,-399.0,-675.0,617.0,-23.0,-4.0,26.0,144,119,122,122,124
2025-02-26 14:26:50.318,-422.0,-693.0,646.0,-24.0,-5.0,26.0,144,118,122,123,124
2025-02-26 14:26:50.322,-426.0,-686.0,558.0,-34.0,-11.0,26.0,146,127,124,124,126
2025-02-26 14:26:50.324,-407.0,-665.0,553.0,-39.0,-17.0,23.0,146,120,124,124,123
2025-02-26 14:26:50.334,-445.0,-697.0,608.0,-38.0,-18.0,26.0,150,126,128,127,124
2025-02-26 14:26:50.339,-442.0,-654.0,612.0,-38.0,-17.0,26.0,150,122,127,126,123
2025-02-26 14:26:50.342,-449.0,-640.0,576.0,-36.0,-17.0,24.0,147,122,126,125,120
2025-02-26 14:26:50.351,-458.0,-646.0,597.0,-35.0,-14.0,24.0,146,120,125,124,119
2025-02-26 14:26:50.355,-454.0,-611.0,561.0,-35.0,-13.0,23.0,150,122,126,125,118
2025-02-26 14:26:50.359,-464.0,-644.0,550.0,-35.0,-13.0,20.0,150,122,127,127,119
2025-02-26 14:26:50.363,-438.0,-630.0,635.0,-31.0,-7.0,16.0,150,121,126,126,116
2025-02-26 14:26:50.372,-460.0,-614.0,615.0,-21.0,-6.0,13.0,146,120,125,123,114
2025-02-26 14:26:50.372,-479.0,-617.0,578.0,-19.0,-9.0,11.0,146,121,125,124,114
2025-02-26 14:26:50.380,-473.0,-613.0,632.0,-14.0,-5.0,9.0,150,121,125,126,115
2025-02-26 14:26:50.384,-474.0,-627.0,593.0,-11.0,-5.0,7.0,148,121,127,126,113
2025-02-26 14:26:50.391,-490.0,-643.0,572.0,-10.0,-8.0,6.0,147,121,127,125,112
2025-02-26 14:26:50.397,-481.0,-625.0,649.0,-4.0,-4.0,5.0,147,119,124,124,112
2025-02-26 14:26:50.400,-484.0,-625.0,579.0,0.0,-2.0,4.0,147,122,123,122,111
2025-02-26 14:26:50.408,-477.0,-645.0,572.0,-1.0,-5.0,4.0,148,121,126,125,114
2025-02-26 14:26:50.413,-471.0,-640.0,596.0,0.0,-6.0,3.0,144,122,126,132,112
2025-02-26 14:26:50.417,-473.0,-641.0,604.0,3.0,-6.0,2.0,149,120,123,122,111
2025-02-26 14:26:50.421,-469.0,-636.0,601.0,2.0,-6.0,2.0,148,122,131,126,113
2025-02-26 14:26:50.428,-465.0,-630.0,591.0,1.0,-8.0,1.0,148,122,125,125,113
2025-02-26 14:26:50.433,-461.0,-641.0,602.0,4.0,-8.0,0.0,149,120,123,126,111
2025-02-26 14:26:50.437,-466.0,-641.0,608.0,6.0,-7.0,0.0,147,120,126,125,113
2025-02-26 14:26:50.441,-453.0,-632.0,597.0,7.0,-9.0,0.0,151,122,126,126,114
2025-02-26 14:26:50.449,-444.0,-629.0,659.0,7.0,-7.0,-1.0,147,120,126,127,116
2025-02-26 14:26:50.451,-446.0,-637.0,657.0,8.0,-6.0,-3.0,147,118,124,124,113
2025-02-26 14:26:50.458,-434.0,-590.0,625.0,10.0,-4.0,-2.0,149,121,126,125,114
2025-02-26 14:26:50.461,-487.0,-649.0,574.0,3.0,-10.0,-2.0,149,121,125,124,115
2025-02-26 14:26:50.469,-427.0,-580.0,636.0,0.0,-9.0,-3.0,148,121,127,126,116
2025-02-26 14:26:50.473,-456.0,-628.0,674.0,17.0,-4.0,-6.0,146,119,121,124,112
2025-02-26 14:26:50.475,-448.0,-635.0,582.0,17.0,-4.0,-7.0,148,121,126,125,116
2025-02-26 14:26:50.483,-463.0,-642.0,590.0,12.0,-9.0,-8.0,150,121,124,125,115
2025-02-26 14:26:50.487,-448.0,-653.0,660.0,11.0,-6.0,-10.0,147,120,125,123,115
2025-02-26 14:26:50.493,-452.0,-666.0,598.0,16.0,-8.0,-11.0,148,119,125,125,116
2025-02-26 14:26:50.499,-447.0,-641.0,637.0,13.0,-11.0,-13.0,148,121,126,125,117
2025-02-26 14:26:50.506,-440.0,-648.0,628.0,14.0,-10.0,-14.0,150,122,125,125,118
2025-02-26 14:26:50.511,-432.0,-637.0,638.0,14.0,-9.0,-16.0,148,120,126,125,117
2025-02-26 14:26:50.517,-443.0,-648.0,608.0,12.0,-15.0,-16.0,147,119,125,127,117
2025-02-26 14:26:50.523,-429.0,-644.0,621.0,9.0,-17.0,-17.0,146,120,125,124,117
2025-02-26 14:26:50.525,-442.0,-642.0,648.0,11.0,-16.0,-17.0,147,119,124,125,116
2025-02-26 14:26:50.532,-432.0,-653.0,639.0,12.0,-17.0,-17.0,147,118,124,123,116
2025-02-26 14:26:50.537,-421.0,-656.0,649.0,11.0,-16.0,-16.0,147,121,124,123,117
2025-02-26 14:26:50.543,-410.0,-653.0,655.0,9.0,-16.0,-15.0,147,113,124,124,119
2025-02-26 14:26:50.548,-420.0,-687.0,665.0,9.0,-15.0,-14.0,146,119,123,123,115
2025-02-26 14:26:50.553,-420.0,-681.0,635.0,10.0,-15.0,-13.0,145,118,120,120,115
2025-02-26 14:26:50.560,-416.0,-664.0,665.0,11.0,-15.0,-12.0,143,115,121,121,114
2025-02-26 14:26:50.562,-424.0,-684.0,688.0,14.0,-14.0,-11.0,145,116,123,122,116
2025-02-26 14:26:50.569,-421.0,-667.0,645.0,10.0,-14.0,-11.0,145,117,121,121,116
2025-02-26 14:26:50.574,-416.0,-696.0,671.0,11.0,-14.0,-10.0,145,117,120,120,115
2025-02-26 14:26:50.580,-404.0,-670.0,679.0,11.0,-11.0,-11.0,145,118,123,125,116
2025-02-26 14:26:50.585,-408.0,-672.0,649.0,8.0,-14.0,-11.0,144,117,120,120,117
2025-02-26 14:26:50.593,-409.0,-665.0,642.0,7.0,-16.0,-11.0,144,117,122,121,115
2025-02-26 14:26:50.596,-397.0,-668.0,672.0,5.0,-16.0,-11.0,145,117,121,120,117
2025-02-26 14:26:50.601,-403.0,-674.0,639.0,5.0,-18.0,-12.0,145,117,123,122,118
2025-02-26 14:26:50.605,-401.0,-662.0,678.0,3.0,-17.0,-13.0,145,116,121,120,116
2025-02-26 14:26:50.613,-397.0,-667.0,672.0,3.0,-16.0,-14.0,143,112,122,122,123
2025-02-26 14:26:50.617,-393.0,-667.0,663.0,0.0,-16.0,-14.0,144,117,123,118,117
2025-02-26 14:26:50.621,-402.0,-673.0,646.0,2.0,-15.0,-14.0,147,118,121,121,119
2025-02-26 14:26:50.629,-386.0,-701.0,673.0,1.0,-16.0,-13.0,146,116,125,123,118
2025-02-26 14:26:50.633,-405.0,-679.0,645.0,-5.0,-16.0,-12.0,145,116,122,120,117
2025-02-26 14:26:50.638,-380.0,-685.0,682.0,-2.0,-14.0,-12.0,144,116,120,120,118
2025-02-26 14:26:50.646,-379.0,-698.0,706.0,-2.0,-15.0,-11.0,143,117,121,118,117
2025-02-26 14:26:50.650,-374.0,-712.0,670.0,-7.0,-19.0,-10.0,144,117,123,123,118
2025-02-26 14:26:50.653,-362.0,-708.0,701.0,-6.0,-16.0,-9.0,143,118,122,122,119
2025-02-26 14:26:50.662,-368.0,-686.0,730.0,1.0,-11.0,-9.0,145,118,123,123,120
2025-02-26 14:26:50.665,-367.0,-684.0,682.0,1.0,-8.0,-8.0,143,115,121,121,118
2025-02-26 14:26:50.671,-387.0,-700.0,752.0,0.0,-8.0,-7.0,145,116,120,120,118
2025-02-26 14:26:50.675,-375.0,-696.0,720.0,-1.0,-7.0,-6.0,144,117,123,121,119
2025-02-26 14:26:50.682,-400.0,-666.0,636.0,-5.0,-8.0,-5.0,144,115,122,123,119
2025-02-26 14:26:50.687,-351.0,-677.0,720.0,-6.0,-5.0,-5.0,147,118,125,125,121
2025-02-26 14:26:50.688,-378.0,-677.0,692.0,-7.0,-3.0,-5.0,147,121,125,123,122
2025-02-26 14:26:50.695,-365.0,-695.0,734.0,-3.0,-2.0,-5.0,149,120,128,127,123
2025-02-26 14:26:50.703,-362.0,-692.0,723.0,-2.0,-2.0,-4.0,151,120,126,128,123
2025-02-26 14:26:50.707,-369.0,-689.0,691.0,-5.0,-3.0,-4.0,147,120,125,123,122
2025-02-26 14:26:50.712,-356.0,-678.0,708.0,-2.0,-1.0,-4.0,148,120,126,124,125
2025-02-26 14:26:50.718,-364.0,-681.0,694.0,-3.0,-1.0,-5.0,148,120,126,125,124
2025-02-26 14:26:50.723,-356.0,-648.0,681.0,7.0,1.0,-6.0,146,120,127,127,126
2025-02-26 14:26:50.728,-368.0,-672.0,681.0,5.0,6.0,-8.0,146,117,124,122,121
2025-02-26 14:26:50.732,-367.0,-679.0,692.0,3.0,4.0,-8.0,147,120,121,125,123
2025-02-26 14:26:50.736,-348.0,-662.0,714.0,6.0,8.0,-9.0,151,123,128,128,126
2025-02-26 14:26:50.744,-393.0,-682.0,655.0,5.0,4.0,-8.0,152,123,130,128,128
2025-02-26 14:26:50.749,-349.0,-666.0,715.0,-1.0,4.0,-7.0,149,122,126,127,126
2025-02-26 14:26:50.749,-356.0,-670.0,622.0,-2.0,7.0,-7.0,152,121,128,128,126
2025-02-26 14:26:50.756,-401.0,-730.0,705.0,-8.0,1.0,-4.0,150,123,129,127,128
2025-02-26 14:26:50.765,-381.0,-693.0,666.0,-14.0,-6.0,-2.0,150,123,128,128,126
2025-02-26 14:26:50.769,-388.0,-692.0,680.0,-22.0,-7.0,-1.0,152,123,128,128,125
2025-02-26 14:26:50.773,-361.0,-677.0,660.0,-28.0,-10.0,0.0,149,122,127,127,126
2025-02-26 14:26:50.780,-404.0,-680.0,655.0,-21.0,-8.0,0.0,154,127,132,131,131
2025-02-26 14:26:50.785,-385.0,-686.0,701.0,-22.0,-5.0,-1.0,150,121,127,130,126
2025-02-26 14:26:50.790,-401.0,-690.0,672.0,-19.0,-5.0,-1.0,147,119,125,124,123
2025-02-26 14:26:50.797,-379.0,-655.0,650.0,-18.0,-4.0,-2.0,147,118,125,120,123
2025-02-26 14:26:50.802,-418.0,-687.0,619.0,-22.0,-7.0,-2.0,151,124,130,128,127
2025-02-26 14:26:50.803,-408.0,-654.0,639.0,-21.0,-13.0,-2.0,151,122,129,128,125
2025-02-26 14:26:50.810,-393.0,-674.0,638.0,-24.0,-8.0,-3.0,144,115,124,121,124
2025-02-26 14:26:50.815,-435.0,-699.0,576.0,-19.0,-12.0,-3.0,149,120,125,125,124
2025-02-26 14:26:50.822,-374.0,-665.0,631.0,-21.0,-10.0,-4.0,148,118,123,126,125
2025-02-26 14:26:50.827,-383.0,-681.0,646.0,-25.0,-10.0,-4.0,147,118,126,124,123
2025-02-26 14:26:50.834,-417.0,-701.0,630.0,-19.0,-15.0,-4.0,150,121,129,126,126
2025-02-26 14:26:50.838,-372.0,-699.0,649.0,-17.0,-11.0,-5.0,149,119,128,126,127
2025-02-26 14:26:50.842,-374.0,-720.0,611.0,-13.0,-7.0,-6.0,149,120,127,126,127
2025-02-26 14:26:50.850,-366.0,-716.0,643.0,-4.0,-4.0,-6.0,148,120,126,125,125
2025-02-26 14:26:50.853,-362.0,-724.0,589.0,-5.0,-9.0,-6.0,148,118,126,125,124
2025-02-26 14:26:50.858,-346.0,-717.0,690.0,-1.0,-7.0,-6.0,150,121,129,128,128
2025-02-26 14:26:50.863,-359.0,-722.0,626.0,-3.0,-6.0,-4.0,151,122,132,127,125
2025-02-26 14:26:50.870,-379.0,-722.0,600.0,-5.0,-7.0,-3.0,149,120,126,128,125
2025-02-26 14:26:50.876,-367.0,-727.0,646.0,-3.0,-7.0,-3.0,149,121,128,125,124
2025-02-26 14:26:50.880,-357.0,-720.0,639.0,-5.0,-7.0,-3.0,150,123,127,126,128
2025-02-26 14:26:50.888,-356.0,-737.0,629.0,-8.0,-7.0,-2.0,151,122,127,128,127
2025-02-26 14:26:50.889,-379.0,-731.0,603.0,-9.0,-8.0,-2.0,150,122,127,127,125
2025-02-26 14:26:50.896,-363.0,-709.0,650.0,-9.0,-8.0,-2.0,148,120,125,126,125
2025-02-26 14:26:50.900,-365.0,-708.0,637.0,-12.0,-6.0,-3.0,148,121,128,124,126
2025-02-26 14:26:50.907,-397.0,-716.0,617.0,-11.0,-9.0,-4.0,150,123,129,127,127
2025-02-26 14:26:50.913,-367.0,-703.0,648.0,-11.0,-8.0,-4.0,147,123,129,128,125
2025-02-26 14:26:50.917,-378.0,-699.0,610.0,-13.0,-11.0,-5.0,149,122,128,127,126
2025-02-26 14:26:50.924,-379.0,-701.0,672.0,-12.0,-10.0,-5.0,149,121,129,129,127
2025-02-26 14:26:50.929,-369.0,-697.0,570.0,-15.0,-12.0,-6.0,151,122,136,127,126
2025-02-26 14:26:50.933,-368.0,-698.0,655.0,-15.0,-11.0,-6.0,151,128,130,128,128
2025-02-26 14:26:50.940,-355.0,-695.0,641.0,-17.0,-10.0,-7.0,151,124,129,129,128
2025-02-26 14:26:50.945,-380.0,-713.0,641.0,-16.0,-10.0,-6.0,151,122,129,128,128
2025-02-26 14:26:50.950,-368.0,-698.0,618.0,-18.0,-12.0,-7.0,149,121,128,127,126
2025-02-26 14:26:50.956,-348.0,-705.0,680.0,-16.0,-8.0,-7.0,150,122,128,126,127
2025-02-26 14:26:50.962,-367.0,-722.0,624.0,-15.0,-6.0,-7.0,153,124,131,129,129
2025-02-26 14:26:50.966,-346.0,-733.0,648.0,-17.0,-10.0,-6.0,150,124,129,128,129
2025-02-26 14:26:50.970,-352.0,-734.0,664.0,-17.0,-10.0,-4.0,150,124,129,128,128
2025-02-26 14:26:50.978,-340.0,-738.0,655.0,-17.0,-8.0,-3.0,150,123,128,129,129
2025-02-26 14:26:50.981,-340.0,-746.0,645.0,-15.0,-7.0,-3.0,151,123,128,129,128
2025-02-26 14:26:50.986,-337.0,-735.0,672.0,-12.0,-5.0,-2.0,151,123,128,129,128
2025-02-26 14:26:50.994,-339.0,-754.0,680.0,-6.0,-2.0,-2.0,152,128,129,129,130
2025-02-26 14:26:50.998,-328.0,-752.0,655.0,-5.0,-2.0,-1.0,151,123,129,128,127
2025-02-26 14:26:51.003,-334.0,-755.0,646.0,-4.0,-2.0,0.0,151,127,129,129,129
2025-02-26 14:26:51.007,-334.0,-756.0,692.0,-3.0,-3.0,-1.0,151,124,129,128,127
2025-02-26 14:26:51.014,-334.0,-748.0,639.0,2.0,-3.0,-1.0,152,124,130,129,129
2025-02-26 14:26:51.019,-334.0,-735.0,668.0,5.0,1.0,-2.0,152,124,132,130,129
2025-02-26 14:26:51.022,-329.0,-746.0,638.0,5.0,0.0,-2.0,151,124,128,127,128
2025-02-26 14:26:51.027,-348.0,-726.0,637.0,8.0,0.0,-2.0,150,123,128,127,128
2025-02-26 14:26:51.034,-329.0,-726.0,658.0,5.0,-1.0,-2.0,151,125,129,128,129
2025-02-26 14:26:51.039,-351.0,-723.0,633.0,4.0,-2.0,-1.0,153,125,131,127,129
2025-02-26 14:26:51.043,-347.0,-724.0,662.0,5.0,0.0,-2.0,150,122,128,128,128
2025-02-26 14:26:51.046,-365.0,-730.0,617.0,9.0,1.0,-1.0,152,125,130,133,129
2025-02-26 14:26:51.055,-355.0,-734.0,634.0,7.0,1.0,-1.0,152,125,130,128,129
2025-02-26 14:26:51.059,-360.0,-712.0,645.0,9.0,3.0,-1.0,152,124,129,128,129
2025-02-26 14:26:51.064,-375.0,-721.0,654.0,12.0,2.0,0.0,150,121,127,127,125
2025-02-26 14:26:51.068,-368.0,-726.0,629.0,11.0,3.0,1.0,150,122,129,125,130
2025-02-26 14:26:51.076,-364.0,-716.0,606.0,8.0,1.0,1.0,150,125,128,128,127
2025-02-26 14:26:51.080,-364.0,-732.0,654.0,10.0,0.0,2.0,151,125,129,127,128
2025-02-26 14:26:51.084,-361.0,-730.0,631.0,11.0,3.0,1.0,152,123,130,128,128
2025-02-26 14:26:51.089,-379.0,-737.0,594.0,10.0,0.0,1.0,152,124,130,125,127
2025-02-26 14:26:51.093,-356.0,-702.0,654.0,8.0,2.0,1.0,149,123,127,126,126
2025-02-26 14:26:51.101,-358.0,-714.0,603.0,3.0,-1.0,1.0,154,126,130,131,130
2025-02-26 14:26:51.105,-364.0,-709.0,636.0,-2.0,-3.0,1.0,153,129,134,133,132
2025-02-26 14:26:51.107,-353.0,-688.0,606.0,-5.0,-6.0,1.0,154,127,131,131,132
2025-02-26 14:26:51.113,-355.0,-707.0,641.0,-8.0,-7.0,1.0,154,127,131,130,130
2025-02-26 14:26:51.121,-352.0,-699.0,594.0,-7.0,-6.0,0.0,157,132,136,134,134
2025-02-26 14:26:51.125,-364.0,-713.0,606.0,-11.0,-11.0,1.0,156,130,134,133,131
2025-02-26 14:26:51.129,-361.0,-693.0,667.0,-13.0,-8.0,0.0,153,126,133,130,131
2025-02-26 14:26:51.137,-358.0,-715.0,602.0,-11.0,-8.0,1.0,153,126,130,130,130
2025-02-26 14:26:51.141,-391.0,-751.0,637.0,-11.0,-10.0,1.0,156,129,134,132,131
2025-02-26 14:26:51.146,-345.0,-705.0,643.0,-14.0,-9.0,0.0,154,128,133,130,131
2025-02-26 14:26:51.150,-364.0,-731.0,615.0,-13.0,-8.0,1.0,155,128,130,130,130
2025-02-26 14:26:51.158,-363.0,-739.0,622.0,-9.0,-9.0,2.0,152,125,129,130,130
2025-02-26 14:26:51.162,-361.0,-724.0,658.0,-13.0,-9.0,2.0,154,127,132,130,131
2025-02-26 14:26:51.167,-352.0,-732.0,662.0,-15.0,-9.0,2.0,154,129,136,135,133
2025-02-26 14:26:51.171,-348.0,-720.0,655.0,-15.0,-9.0,2.0,158,128,133,129,132
2025-02-26 14:26:51.178,-349.0,-726.0,652.0,-10.0,-9.0,2.0,152,126,130,129,129
2025-02-26 14:26:51.182,-341.0,-702.0,663.0,-11.0,-6.0,0.0,152,125,130,129,129
2025-02-26 14:26:51.187,-357.0,-723.0,625.0,-7.0,-6.0,1.0,152,125,130,130,130
2025-02-26 14:26:51.194,-360.0,-718.0,605.0,-3.0,-5.0,0.0,151,124,130,129,125
2025-02-26 14:26:51.198,-353.0,-725.0,649.0,-3.0,-4.0,1.0,150,122,129,128,127
2025-02-26 14:26:51.203,-340.0,-720.0,641.0,-7.0,-6.0,0.0,149,121,127,125,122
2025-02-26 14:26:51.208,-345.0,-708.0,652.0,-4.0,-7.0,0.0,150,123,128,127,127
2025-02-26 14:26:51.215,-332.0,-716.0,667.0,-5.0,-4.0,0.0,148,124,126,127,127
2025-02-26 14:26:51.220,-355.0,-720.0,626.0,-6.0,-5.0,0.0,147,122,125,127,126
2025-02-26 14:26:51.223,-332.0,-727.0,638.0,-8.0,-7.0,0.0,146,121,125,127,125
2025-02-26 14:26:51.228,-329.0,-737.0,637.0,-7.0,-5.0,0.0,149,123,128,127,126
2025-02-26 14:26:51.236,-352.0,-719.0,606.0,-6.0,-2.0,0.0,148,121,127,125,125
2025-02-26 14:26:51.239,-317.0,-730.0,593.0,0.0,-3.0,1.0,150,121,128,127,128
2025-02-26 14:26:51.244,-340.0,-742.0,708.0,-6.0,-3.0,1.0,149,124,127,126,126
2025-02-26 14:26:51.248,-348.0,-710.0,693.0,-3.0,1.0,0.0,153,126,129,130,131
2025-02-26 14:26:51.256,-380.0,-731.0,604.0,0.0,-3.0,1.0,152,126,132,131,132
2025-02-26 14:26:51.261,-355.0,-722.0,687.0,-3.0,-2.0,0.0,153,128,134,130,131
2025-02-26 14:26:51.264,-348.0,-709.0,666.0,-3.0,-1.0,0.0,153,128,133,131,132
2025-02-26 14:26:51.269,-376.0,-736.0,614.0,-2.0,-1.0,0.0,154,127,133,132,132
2025-02-26 14:26:51.274,-371.0,-711.0,599.0,-1.0,-3.0,-1.0,153,126,131,132,131
2025-02-26 14:26:51.280,-333.0,-729.0,623.0,2.0,2.0,-1.0,152,125,130,129,129
2025-02-26 14:26:51.285,-355.0,-730.0,618.0,0.0,0.0,-1.0,150,124,130,130,129
2025-02-26 14:26:51.289,-345.0,-728.0,648.0,1.0,0.0,-1.0,150,125,128,128,126
2025-02-26 14:26:51.296,-353.0,-713.0,625.0,1.0,0.0,-1.0,148,123,128,128,127
2025-02-26 14:26:51.301,-344.0,-713.0,626.0,5.0,2.0,-2.0,152,126,131,128,129
2025-02-26 14:26:51.305,-355.0,-716.0,633.0,4.0,1.0,-2.0,150,124,130,128,128
2025-02-26 14:26:51.310,-355.0,-699.0,642.0,3.0,1.0,-2.0,148,122,126,126,127
2025-02-26 14:26:51.313,-372.0,-722.0,653.0,-1.0,0.0,-1.0,148,127,128,132,127
2025-02-26 14:26:51.322,-378.0,-715.0,624.0,-1.0,1.0,-1.0,151,125,130,128,130
2025-02-26 14:26:51.326,-350.0,-720.0,619.0,3.0,1.0,-1.0,151,124,129,129,128
2025-02-26 14:26:51.330,-363.0,-720.0,645.0,-1.0,2.0,-2.0,149,123,130,126,127
2025-02-26 14:26:51.331,-349.0,-706.0,614.0,3.0,2.0,-1.0,148,124,125,123,125
2025-02-26 14:26:51.342,-354.0,-736.0,624.0,4.0,1.0,-1.0,151,124,131,129,130
2025-02-26 14:26:51.347,-349.0,-717.0,620.0,2.0,2.0,-1.0,151,125,129,128,128
2025-02-26 14:26:51.349,-334.0,-715.0,636.0,1.0,1.0,-2.0,149,123,126,126,127
2025-02-26 14:26:51.355,-374.0,-739.0,633.0,1.0,0.0,-2.0,150,124,129,128,129
2025-02-26 14:26:51.361,-349.0,-726.0,642.0,0.0,0.0,-3.0,150,124,129,131,131
2025-02-26 14:26:51.367,-344.0,-716.0,626.0,0.0,2.0,-3.0,149,123,130,128,127
2025-02-26 14:26:51.371,-359.0,-721.0,628.0,0.0,1.0,-3.0,150,122,128,127,127
2025-02-26 14:26:51.375,-358.0,-715.0,637.0,1.0,2.0,-4.0,151,124,130,129,130
2025-02-26 14:26:51.383,-355.0,-726.0,623.0,2.0,2.0,-4.0,152,124,129,130,129
2025-02-26 14:26:51.387,-354.0,-726.0,639.0,1.0,1.0,-4.0,151,124,129,128,128
2025-02-26 14:26:51.392,-359.0,-721.0,612.0,-1.0,-2.0,-3.0,153,127,132,129,131
2025-02-26 14:26:51.395,-361.0,-714.0,635.0,-1.0,-2.0,-3.0,152,126,130,130,130
2025-02-26 14:26:51.404,-354.0,-730.0,620.0,-1.0,-2.0,-2.0,152,126,132,130,130
2025-02-26 14:26:51.408,-353.0,-726.0,649.0,-1.0,-1.0,-1.0,152,125,130,131,130
2025-02-26 14:26:51.412,-351.0,-730.0,620.0,-1.0,0.0,-1.0,155,127,131,131,132
2025-02-26 14:26:51.416,-361.0,-722.0,635.0,-1.0,0.0,0.0,154,127,132,132,131
2025-02-26 14:26:51.424,-352.0,-725.0,623.0,-1.0,-1.0,0.0,153,128,129,129,125
2025-02-26 14:26:51.428,-354.0,-720.0,630.0,-1.0,-1.0,0.0,152,126,131,130,130
2025-02-26 14:26:51.433,-348.0,-719.0,622.0,-2.0,-2.0,1.0,153,129,133,131,132
2025-02-26 14:26:51.435,-347.0,-709.0,631.0,-2.0,-2.0,0.0,153,127,132,132,132
2025-02-26 14:26:51.445,-346.0,-709.0,634.0,-3.0,-1.0,-1.0,153,121,131,131,131
2025-02-26 14:26:51.448,-354.0,-712.0,616.0,-3.0,-2.0,-1.0,152,125,131,131,130
2025-02-26 14:26:51.453,-346.0,-700.0,629.0,-4.0,-2.0,-1.0,154,126,134,131,131
2025-02-26 14:26:51.458,-343.0,-706.0,625.0,-5.0,-2.0,-1.0,154,127,131,131,132
2025-02-26 14:26:51.464,-355.0,-716.0,615.0,-5.0,-2.0,-2.0,152,125,131,127,130
2025-02-26 14:26:51.470,-350.0,-721.0,625.0,-5.0,-2.0,-2.0,152,126,131,128,129
2025-02-26 14:26:51.477,-347.0,-725.0,636.0,-5.0,-1.0,-2.0,152,126,130,129,131
2025-02-26 14:26:51.483,-360.0,-736.0,639.0,-4.0,0.0,-2.0,155,128,133,132,132
2025-02-26 14:26:51.486,-353.0,-732.0,645.0,-3.0,0.0,-1.0,152,126,131,130,130
2025-02-26 14:26:51.490,-363.0,-743.0,652.0,-4.0,0.0,-1.0,152,124,130,128,129
2025-02-26 14:26:51.494,-351.0,-733.0,641.0,-1.0,2.0,-1.0,154,129,133,131,133
2025-02-26 14:26:51.502,-363.0,-754.0,637.0,-2.0,0.0,0.0,157,131,137,135,137
2025-02-26 14:26:51.505,-337.0,-733.0,659.0,-2.0,0.0,0.0,155,129,134,133,134
2025-02-26 14:26:51.511,-344.0,-732.0,635.0,-1.0,2.0,0.0,154,129,133,130,131
2025-02-26 14:26:51.514,-344.0,-742.0,642.0,0.0,2.0,0.0,156,130,135,134,133
2025-02-26 14:26:51.523,-342.0,-720.0,661.0,2.0,4.0,0.0,157,131,134,134,135
2025-02-26 14:26:51.525,-338.0,-723.0,643.0,2.0,4.0,-1.0,154,129,135,133,132
2025-02-26 14:26:51.531,-337.0,-719.0,643.0,3.0,5.0,-1.0,157,130,133,134,133
2025-02-26 14:26:51.535,-349.0,-716.0,645.0,3.0,5.0,-1.0,154,129,133,132,133
2025-02-26 14:26:51.539,-337.0,-719.0,653.0,3.0,6.0,-2.0,155,129,133,133,133
2025-02-26 14:26:51.547,-348.0,-719.0,641.0,5.0,6.0,-2.0,152,127,133,131,132
2025-02-26 14:26:51.551,-347.0,-723.0,640.0,5.0,6.0,-2.0,154,127,133,133,133
2025-02-26 14:26:51.555,-346.0,-718.0,646.0,5.0,6.0,-2.0,153,127,132,133,131
2025-02-26 14:26:51.560,-344.0,-721.0,636.0,5.0,5.0,-2.0,156,130,135,133,132
2025-02-26 14:26:51.567,-342.0,-722.0,649.0,4.0,6.0,-2.0,157,130,135,134,133
2025-02-26 14:26:51.572,-355.0,-725.0,631.0,4.0,6.0,-2.0,156,129,133,131,133
2025-02-26 14:26:51.576,-352.0,-718.0,652.0,2.0,5.0,-2.0,153,126,132,132,133
2025-02-26 14:26:51.580,-352.0,-726.0,639.0,2.0,7.0,-2.0,155,131,135,134,134
2025-02-26 14:26:51.588,-351.0,-728.0,637.0,0.0,7.0,-2.0,158,131,137,137,135
2025-02-26 14:26:51.592,-350.0,-721.0,634.0,-1.0,9.0,-2.0,154,129,136,134,134
2025-02-26 14:26:51.597,-336.0,-704.0,606.0,-3.0,8.0,-2.0,152,126,131,131,131
2025-02-26 14:26:51.600,-346.0,-714.0,612.0,-2.0,8.0,-2.0,155,129,134,134,134
2025-02-26 14:26:51.609,-362.0,-707.0,633.0,-4.0,5.0,-1.0,156,129,135,134,135
2025-02-26 14:26:51.611,-364.0,-707.0,623.0,-6.0,4.0,-1.0,155,128,133,133,133
2025-02-26 14:26:51.614,-365.0,-705.0,623.0,-8.0,2.0,-1.0,155,129,136,135,133
2025-02-26 14:26:51.622,-371.0,-710.0,619.0,-9.0,1.0,-1.0,158,131,136,136,138
2025-02-26 14:26:51.627,-377.0,-698.0,623.0,-8.0,2.0,-1.0,156,132,137,136,135
2025-02-26 14:26:51.634,-360.0,-705.0,615.0,-7.0,2.0,-1.0,155,129,135,133,133
2025-02-26 14:26:51.637,-367.0,-710.0,603.0,-9.0,2.0,-1.0,155,128,134,133,133
2025-02-26 14:26:51.641,-350.0,-706.0,626.0,-10.0,1.0,-1.0,162,133,138,140,137
2025-02-26 14:26:51.650,-352.0,-716.0,631.0,-13.0,-2.0,-1.0,158,132,136,136,135
2025-02-26 14:26:51.652,-367.0,-711.0,633.0,-14.0,-1.0,-1.0,155,121,133,134,132
2025-02-26 14:26:51.656,-367.0,-723.0,605.0,-15.0,-2.0,-1.0,153,128,131,133,133
2025-02-26 14:26:51.665,-369.0,-715.0,632.0,-14.0,-2.0,-1.0,156,130,136,135,135
2025-02-26 14:26:51.670,-352.0,-731.0,619.0,-10.0,-1.0,-1.0,154,130,135,133,133
2025-02-26 14:26:51.674,-354.0,-742.0,618.0,-9.0,2.0,-2.0,155,129,134,134,131
2025-02-26 14:26:51.679,-343.0,-732.0,614.0,-3.0,2.0,-2.0,156,129,134,135,135
2025-02-26 14:26:51.686,-360.0,-746.0,624.0,2.0,3.0,-2.0,153,127,133,133,132
2025-02-26 14:26:51.690,-359.0,-743.0,626.0,2.0,4.0,-2.0,157,130,136,134,135
2025-02-26 14:26:51.694,-367.0,-729.0,631.0,2.0,4.0,-3.0,157,131,135,134,135
2025-02-26 14:26:51.699,-367.0,-738.0,617.0,1.0,2.0,-2.0,157,131,133,136,136
2025-02-26 14:26:51.707,-364.0,-727.0,622.0,0.0,2.0,-2.0,158,130,135,135,135
2025-02-26 14:26:51.711,-358.0,-724.0,614.0,1.0,2.0,-3.0,155,129,134,133,133
2025-02-26 14:26:51.714,-355.0,-728.0,606.0,-1.0,3.0,-3.0,154,129,133,134,132
2025-02-26 14:26:51.719,-362.0,-720.0,619.0,-1.0,4.0,-3.0,157,129,133,134,133
2025-02-26 14:26:51.724,-358.0,-740.0,608.0,-1.0,3.0,-3.0,156,130,136,134,136
2025-02-26 14:26:51.732,-358.0,-731.0,613.0,-1.0,1.0,-2.0,156,129,135,132,134
2025-02-26 14:26:51.736,-355.0,-749.0,611.0,-4.0,0.0,-2.0,155,128,133,133,131
2025-02-26 14:26:51.740,-352.0,-733.0,629.0,-4.0,-1.0,-1.0,156,131,135,134,134
2025-02-26 14:26:51.748,-359.0,-735.0,624.0,-2.0,-1.0,-1.0,156,131,137,135,132
2025-02-26 14:26:51.752,-342.0,-711.0,644.0,-1.0,3.0,-2.0,156,129,134,133,134
2025-02-26 14:26:51.756,-380.0,-757.0,585.0,-2.0,0.0,-2.0,155,128,132,132,132
2025-02-26 14:26:51.761,-367.0,-725.0,615.0,-4.0,1.0,-1.0,157,130,134,133,134
2025-02-26 14:26:51.768,-359.0,-742.0,604.0,-5.0,-1.0,-1.0,158,131,136,134,135
2025-02-26 14:26:51.773,-366.0,-741.0,606.0,-5.0,-3.0,0.0,154,129,135,133,134
2025-02-26 14:26:51.777,-361.0,-735.0,608.0,-7.0,-5.0,0.0,154,128,133,132,132
2025-02-26 14:26:51.781,-348.0,-720.0,618.0,-6.0,-3.0,0.0,157,130,137,134,134
2025-02-26 14:26:51.789,-364.0,-741.0,617.0,-3.0,-1.0,0.0,157,131,135,135,135
2025-02-26 14:26:51.791,-361.0,-727.0,604.0,-4.0,-1.0,0.0,157,128,133,134,131
2025-02-26 14:26:51.797,-354.0,-724.0,620.0,-3.0,-2.0,0.0,154,127,132,135,133
2025-02-26 14:26:51.801,-355.0,-744.0,615.0,-4.0,-2.0,0.0,158,130,136,134,135
2025-02-26 14:26:51.809,-357.0,-729.0,609.0,-5.0,-1.0,-1.0,160,130,134,133,136
2025-02-26 14:26:51.813,-371.0,-748.0,588.0,-5.0,-4.0,-1.0,157,127,135,134,136
2025-02-26 14:26:51.815,-363.0,-716.0,636.0,-4.0,-2.0,-1.0,153,126,133,131,132
2025-02-26 14:26:51.826,-362.0,-727.0,606.0,-1.0,-1.0,-1.0,157,130,135,131,134
2025-02-26 14:26:51.827,-376.0,-728.0,605.0,-2.0,-1.0,-2.0,157,129,136,134,135
2025-02-26 14:26:51.834,-350.0,-727.0,642.0,-2.0,0.0,-3.0,156,129,135,133,134
2025-02-26 14:26:51.839,-373.0,-738.0,624.0,1.0,0.0,-3.0,154,127,133,135,132
2025-02-26 14:26:51.846,-362.0,-720.0,609.0,1.0,0.0,-2.0,158,130,133,133,134
2025-02-26 14:26:51.850,-365.0,-715.0,616.0,1.0,1.0,-2.0,152,126,133,131,131
2025-02-26 14:26:51.854,-345.0,-730.0,617.0,2.0,2.0,-1.0,150,123,127,129,129
2025-02-26 14:26:51.859,-360.0,-735.0,620.0,3.0,2.0,-1.0,153,126,131,131,130
2025-02-26 14:26:51.864,-364.0,-747.0,610.0,1.0,1.0,0.0,152,126,131,130,129
2025-02-26 14:26:51.870,-376.0,-750.0,613.0,2.0,1.0,1.0,151,126,129,131,129
2025-02-26 14:26:51.875,-346.0,-733.0,644.0,3.0,2.0,0.0,149,125,129,127,128
2025-02-26 14:26:51.879,-365.0,-741.0,598.0,4.0,3.0,0.0,153,127,133,131,131
2025-02-26 14:26:51.884,-346.0,-714.0,636.0,6.0,5.0,-1.0,150,125,131,129,129
2025-02-26 14:26:51.888,-368.0,-719.0,619.0,5.0,5.0,-1.0,147,123,128,128,128
2025-02-26 14:26:51.895,-375.0,-719.0,609.0,5.0,5.0,-1.0,152,125,131,130,131
2025-02-26 14:26:51.900,-349.0,-704.0,618.0,7.0,4.0,-1.0,153,126,132,132,128
2025-02-26 14:26:51.901,-359.0,-718.0,591.0,5.0,3.0,-1.0,151,125,130,130,130
2025-02-26 14:26:51.912,-360.0,-719.0,637.0,5.0,5.0,-2.0,148,124,130,126,127
2025-02-26 14:26:51.915,-379.0,-741.0,592.0,2.0,0.0,-1.0,151,125,129,129,129
2025-02-26 14:26:51.919,-365.0,-717.0,641.0,4.0,0.0,-1.0,153,126,130,129,130
2025-02-26 14:26:51.924,-376.0,-729.0,596.0,2.0,-1.0,-2.0,152,123,129,130,129
2025-02-26 14:26:51.930,-366.0,-723.0,605.0,4.0,-1.0,-2.0,153,127,131,131,130
2025-02-26 14:26:51.936,-357.0,-740.0,612.0,4.0,0.0,-1.0,152,126,133,130,130
2025-02-26 14:26:51.940,-375.0,-743.0,623.0,6.0,1.0,-2.0,154,128,133,132,132
2025-02-26 14:26:51.941,-365.0,-747.0,636.0,10.0,1.0,-2.0,152,127,130,129,130
2025-02-26 14:26:51.952,-385.0,-708.0,607.0,18.0,4.0,-3.0,153,127,133,131,131
2025-02-26 14:26:51.956,-359.0,-713.0,629.0,19.0,11.0,-4.0,154,126,130,129,130
2025-02-26 14:26:51.961,-350.0,-725.0,629.0,13.0,10.0,-4.0,151,125,131,130,130
2025-02-26 14:26:51.965,-364.0,-734.0,616.0,15.0,7.0,-3.0,151,125,129,129,130
2025-02-26 14:26:51.973,-366.0,-744.0,604.0,8.0,2.0,-3.0,152,126,131,131,129
2025-02-26 14:26:51.977,-363.0,-703.0,622.0,1.0,-1.0,-4.0,153,126,130,130,130
2025-02-26 14:26:51.982,-349.0,-720.0,607.0,-3.0,-3.0,-2.0,152,126,132,131,128
2025-02-26 14:26:51.986,-379.0,-719.0,629.0,-3.0,-3.0,-3.0,150,124,131,129,129
2025-02-26 14:26:51.991,-378.0,-728.0,645.0,-4.0,-3.0,-2.0,152,125,130,128,129
2025-02-26 14:26:51.998,-371.0,-730.0,622.0,-5.0,-2.0,-3.0,152,127,130,131,129
2025-02-26 14:26:52.002,-386.0,-744.0,620.0,-2.0,-2.0,-1.0,149,123,130,130,129
2025-02-26 14:26:52.003,-379.0,-748.0,627.0,-1.0,-3.0,0.0,150,125,129,129,129
2025-02-26 14:26:52.014,-358.0,-725.0,643.0,-5.0,-4.0,1.0,155,129,133,128,133
2025-02-26 14:26:52.018,-368.0,-752.0,611.0,-5.0,-6.0,1.0,154,129,134,133,132
2025-02-26 14:26:52.022,-383.0,-737.0,596.0,-3.0,-4.0,1.0,152,127,132,130,133
2025-02-26 14:26:52.027,-316.0,-713.0,626.0,0.0,-3.0,1.0,151,126,131,131,129
2025-02-26 14:26:52.035,-373.0,-739.0,623.0,0.0,-1.0,2.0,153,126,136,130,131
2025-02-26 14:26:52.039,-353.0,-688.0,637.0,2.0,1.0,0.0,153,123,132,132,130
2025-02-26 14:26:52.040,-368.0,-720.0,603.0,-4.0,1.0,1.0,153,127,132,131,131
2025-02-26 14:26:52.047,-376.0,-705.0,689.0,-6.0,-4.0,1.0,155,129,133,132,133
2025-02-26 14:26:52.051,-321.0,-668.0,644.0,-7.0,-3.0,0.0,154,131,133,133,131
2025-02-26 14:26:52.058,-372.0,-691.0,612.0,-3.0,-3.0,-2.0,153,127,132,132,131
2025-02-26 14:26:52.063,-373.0,-713.0,613.0,0.0,-1.0,-2.0,150,127,127,130,130
2025-02-26 14:26:52.069,-352.0,-690.0,648.0,-3.0,4.0,-4.0,153,124,133,134,131
2025-02-26 14:26:52.075,-346.0,-709.0,636.0,-2.0,2.0,-4.0,154,128,132,132,131
2025-02-26 14:26:52.080,-393.0,-700.0,637.0,-1.0,0.0,-5.0,153,124,130,130,130
2025-02-26 14:26:52.084,-376.0,-720.0,622.0,3.0,-1.0,-5.0,152,125,133,132,130
2025-02-26 14:26:52.088,-363.0,-710.0,637.0,-2.0,1.0,-6.0,153,127,133,131,131
2025-02-26 14:26:52.096,-390.0,-695.0,619.0,2.0,3.0,-6.0,154,127,131,131,132
2025-02-26 14:26:52.100,-391.0,-709.0,640.0,6.0,3.0,-7.0,154,127,132,131,132
2025-02-26 14:26:52.105,-381.0,-726.0,647.0,6.0,5.0,-7.0,151,124,130,129,130
2025-02-26 14:26:52.109,-382.0,-725.0,623.0,-7.0,3.0,-5.0,154,128,131,132,132
2025-02-26 14:26:52.116,-382.0,-702.0,606.0,-9.0,0.0,-4.0,153,126,131,129,129
2025-02-26 14:26:52.120,-379.0,-721.0,623.0,-9.0,-2.0,-1.0,153,126,132,132,131
2025-02-26 14:26:52.125,-394.0,-727.0,660.0,-17.0,-6.0,-1.0,151,124,132,132,130
2025-02-26 14:26:52.133,-341.0,-702.0,658.0,-17.0,-4.0,-1.0,153,127,132,130,130
2025-02-26 14:26:52.137,-385.0,-741.0,601.0,-16.0,-4.0,0.0,153,126,131,129,130
2025-02-26 14:26:52.141,-368.0,-726.0,624.0,-16.0,-5.0,0.0,153,125,132,132,130
2025-02-26 14:26:52.145,-354.0,-706.0,645.0,-13.0,-5.0,0.0,151,126,129,129,130
2025-02-26 14:26:52.153,-360.0,-726.0,638.0,-10.0,-5.0,0.0,152,127,132,131,131
2025-02-26 14:26:52.158,-346.0,-715.0,723.0,-8.0,0.0,-2.0,151,126,131,130,130
2025-02-26 14:26:52.162,-337.0,-744.0,603.0,-10.0,-1.0,-2.0,153,126,130,129,130
2025-02-26 14:26:52.166,-338.0,-728.0,652.0,-12.0,1.0,-3.0,153,126,131,128,130
2025-02-26 14:26:52.174,-367.0,-746.0,653.0,-11.0,0.0,-3.0,153,126,130,131,131
2025-02-26 14:26:52.178,-372.0,-731.0,638.0,-14.0,0.0,-3.0,155,129,132,131,131
2025-02-26 14:26:52.183,-355.0,-740.0,631.0,-16.0,-1.0,-3.0,151,127,132,131,131
2025-02-26 14:26:52.190,-356.0,-748.0,630.0,-24.0,-2.0,-2.0,152,125,129,132,131
2025-02-26 14:26:52.195,-364.0,-751.0,641.0,-23.0,-3.0,-1.0,145,124,132,129,131
2025-02-26 14:26:52.199,-372.0,-767.0,621.0,-28.0,-3.0,0.0,154,126,132,131,132
2025-02-26 14:26:52.203,-369.0,-750.0,634.0,-33.0,-4.0,2.0,154,127,133,133,132
2025-02-26 14:26:52.211,-365.0,-750.0,609.0,-36.0,-7.0,3.0,152,127,131,131,132
2025-02-26 14:26:52.215,-376.0,-754.0,630.0,-32.0,-8.0,3.0,151,126,130,129,129
2025-02-26 14:26:52.220,-359.0,-761.0,584.0,-30.0,-5.0,5.0,154,128,131,133,133
2025-02-26 14:26:52.227,-370.0,-736.0,554.0,-31.0,-7.0,3.0,153,125,132,131,133
2025-02-26 14:26:52.231,-367.0,-752.0,624.0,-28.0,-3.0,2.0,153,124,136,129,130
2025-02-26 14:26:52.235,-357.0,-755.0,601.0,-21.0,-3.0,2.0,150,124,130,128,129
2025-02-26 14:26:52.240,-355.0,-755.0,574.0,-22.0,-3.0,1.0,152,124,130,128,129
2025-02-26 14:26:52.245,-352.0,-760.0,600.0,-22.0,-6.0,2.0,154,127,133,132,132
2025-02-26 14:26:52.250,-355.0,-775.0,631.0,-24.0,-8.0,2.0,153,127,130,132,132
2025-02-26 14:26:52.256,-350.0,-771.0,609.0,-25.0,-10.0,1.0,149,125,128,128,129
2025-02-26 14:26:52.264,-352.0,-781.0,606.0,-27.0,-12.0,1.0,150,125,131,130,128
2025-02-26 14:26:52.268,-347.0,-780.0,590.0,-25.0,-11.0,2.0,152,126,132,129,129
2025-02-26 14:26:52.270,-355.0,-772.0,608.0,-24.0,-9.0,2.0,149,123,126,127,129
2025-02-26 14:26:52.277,-349.0,-786.0,620.0,-25.0,-7.0,3.0,148,122,128,127,127
2025-02-26 14:26:52.282,-345.0,-793.0,632.0,-22.0,-5.0,4.0,147,120,126,126,129
2025-02-26 14:26:52.289,-348.0,-803.0,622.0,-18.0,-2.0,3.0,149,121,126,125,126
2025-02-26 14:26:52.293,-343.0,-801.0,627.0,-13.0,3.0,4.0,151,123,129,134,129
2025-02-26 14:26:52.294,-354.0,-790.0,634.0,-10.0,9.0,5.0,148,120,126,126,128
2025-02-26 14:26:52.304,-349.0,-792.0,602.0,-7.0,11.0,5.0,149,122,134,126,127
2025-02-26 14:26:52.309,-358.0,-786.0,569.0,-10.0,10.0,5.0,149,123,125,124,126
2025-02-26 14:26:52.313,-354.0,-790.0,575.0,-11.0,9.0,6.0,149,123,128,127,128
2025-02-26 14:26:52.321,-362.0,-793.0,599.0,-12.0,7.0,7.0,149,121,128,127,127
2025-02-26 14:26:52.326,-356.0,-786.0,595.0,-16.0,5.0,7.0,149,123,127,126,127
2025-02-26 14:26:52.330,-362.0,-789.0,614.0,-17.0,3.0,7.0,148,121,128,127,126
2025-02-26 14:26:52.334,-349.0,-788.0,591.0,-18.0,3.0,6.0,150,125,129,127,128
2025-02-26 14:26:52.341,-349.0,-787.0,605.0,-17.0,6.0,6.0,152,126,130,131,129
2025-02-26 14:26:52.346,-356.0,-802.0,595.0,-14.0,7.0,6.0,150,124,130,132,129
2025-02-26 14:26:52.350,-357.0,-786.0,590.0,-11.0,9.0,5.0,151,126,130,128,130
2025-02-26 14:26:52.355,-354.0,-797.0,582.0,-9.0,10.0,7.0,152,125,130,129,130
2025-02-26 14:26:52.362,-357.0,-800.0,586.0,-6.0,12.0,7.0,152,127,131,131,131
2025-02-26 14:26:52.366,-354.0,-796.0,590.0,0.0,14.0,8.0,149,123,127,127,129
2025-02-26 14:26:52.371,-347.0,-810.0,571.0,-8.0,13.0,8.0,151,126,131,128,128
2025-02-26 14:26:52.375,-374.0,-820.0,588.0,-9.0,11.0,10.0,151,125,129,129,129
2025-02-26 14:26:52.383,-387.0,-828.0,571.0,-9.0,13.0,12.0,153,125,132,132,131
2025-02-26 14:26:52.387,-366.0,-816.0,551.0,-6.0,13.0,12.0,149,125,127,127,129
2025-02-26 14:26:52.391,-325.0,-805.0,571.0,-9.0,14.0,11.0,149,122,128,128,129
2025-02-26 14:26:52.395,-382.0,-833.0,578.0,-11.0,14.0,13.0,150,122,128,129,127
2025-02-26 14:26:52.403,-389.0,-823.0,573.0,-12.0,13.0,15.0,154,127,132,131,132
2025-02-26 14:26:52.408,-371.0,-775.0,514.0,-19.0,11.0,17.0,152,126,131,130,131
2025-02-26 14:26:52.408,-410.0,-785.0,580.0,-17.0,7.0,18.0,153,126,132,131,133
2025-02-26 14:26:52.419,-375.0,-777.0,554.0,-14.0,9.0,18.0,153,128,134,132,134
2025-02-26 14:26:52.421,-385.0,-778.0,529.0,-12.0,12.0,17.0,155,130,135,133,136
2025-02-26 14:26:52.428,-406.0,-750.0,539.0,-9.0,11.0,16.0,153,127,132,133,134
2025-02-26 14:26:52.432,-396.0,-745.0,568.0,-3.0,11.0,14.0,149,126,130,130,132
2025-02-26 14:26:52.440,-401.0,-767.0,528.0,3.0,13.0,13.0,153,127,133,133,133
2025-02-26 14:26:52.444,-402.0,-733.0,516.0,6.0,15.0,10.0,158,129,134,126,133
2025-02-26 14:26:52.448,-405.0,-743.0,531.0,8.0,15.0,8.0,155,129,135,133,134
2025-02-26 14:26:52.453,-413.0,-728.0,526.0,8.0,15.0,6.0,152,125,132,131,131
2025-02-26 14:26:52.458,-424.0,-725.0,501.0,4.0,10.0,6.0,153,128,134,134,133
2025-02-26 14:26:52.464,-426.0,-726.0,509.0,0.0,4.0,6.0,150,128,133,134,135
2025-02-26 14:26:52.469,-422.0,-730.0,486.0,-8.0,1.0,6.0,152,126,131,131,130
2025-02-26 14:26:52.473,-434.0,-740.0,505.0,-17.0,-5.0,6.0,152,127,131,132,131
2025-02-26 14:26:52.481,-442.0,-728.0,467.0,-19.0,-9.0,7.0,153,127,132,136,135
2025-02-26 14:26:52.485,-431.0,-702.0,537.0,-17.0,-5.0,6.0,154,128,134,133,133
2025-02-26 14:26:52.490,-433.0,-714.0,488.0,-17.0,-5.0,7.0,151,126,131,130,132
2025-02-26 14:26:52.494,-448.0,-705.0,516.0,-23.0,-8.0,7.0,152,127,130,129,132
2025-02-26 14:26:52.501,-432.0,-719.0,555.0,-21.0,-6.0,8.0,155,130,135,134,135
2025-02-26 14:26:52.506,-438.0,-708.0,517.0,-23.0,-8.0,8.0,153,127,133,133,136
2025-02-26 14:26:52.509,-449.0,-715.0,507.0,-24.0,-9.0,8.0,153,127,131,131,133
2025-02-26 14:26:52.518,-441.0,-732.0,524.0,-24.0,-9.0,7.0,152,126,131,129,132
2025-02-26 14:26:52.518,-442.0,-741.0,527.0,-23.0,-8.0,6.0,155,129,134,134,135
2025-02-26 14:26:52.526,-439.0,-740.0,512.0,-20.0,-9.0,4.0,153,128,133,133,134
2025-02-26 14:26:52.530,-433.0,-747.0,517.0,-19.0,-10.0,2.0,153,128,133,133,134
2025-02-26 14:26:52.538,-440.0,-748.0,519.0,-17.0,-9.0,0.0,150,126,130,130,132
2025-02-26 14:26:52.542,-441.0,-745.0,519.0,-11.0,-7.0,-1.0,151,126,132,132,133
2025-02-26 14:26:52.547,-449.0,-749.0,446.0,-13.0,-8.0,-2.0,153,130,132,133,134
2025-02-26 14:26:52.554,-420.0,-737.0,527.0,-12.0,-5.0,-4.0,154,128,134,132,133
2025-02-26 14:26:52.559,-434.0,-742.0,500.0,-10.0,-6.0,-5.0,153,125,132,132,133
2025-02-26 14:26:52.563,-441.0,-757.0,516.0,-9.0,-5.0,-5.0,151,130,131,131,132
2025-02-26 14:26:52.567,-430.0,-734.0,516.0,-7.0,-4.0,-6.0,156,129,132,133,134
2025-02-26 14:26:52.575,-431.0,-754.0,515.0,-4.0,-3.0,-6.0,152,127,132,133,134
2025-02-26 14:26:52.579,-427.0,-759.0,538.0,-3.0,-1.0,-7.0,154,128,133,133,132
2025-02-26 14:26:52.584,-434.0,-769.0,551.0,1.0,-1.0,-7.0,153,126,131,132,133
2025-02-26 14:26:52.591,-436.0,-775.0,563.0,3.0,0.0,-7.0,153,125,129,130,133
2025-02-26 14:26:52.595,-436.0,-788.0,571.0,5.0,0.0,-7.0,154,130,131,131,132
2025-02-26 14:26:52.600,-428.0,-798.0,572.0,4.0,0.0,-6.0,153,126,131,131,134
2025-02-26 14:26:52.604,-418.0,-807.0,585.0,2.0,0.0,-6.0,153,128,132,130,133
2025-02-26 14:26:52.609,-401.0,-813.0,598.0,1.0,1.0,-7.0,154,128,133,134,135
2025-02-26 14:26:52.616,-390.0,-829.0,598.0,1.0,0.0,-7.0,152,127,132,132,134
2025-02-26 14:26:52.621,-389.0,-841.0,603.0,-5.0,1.0,-8.0,151,126,131,130,132
2025-02-26 14:26:52.621,-379.0,-828.0,600.0,-10.0,1.0,-9.0,152,128,131,133,130
2025-02-26 14:26:52.632,-372.0,-849.0,607.0,-14.0,1.0,-9.0,155,127,137,135,135
2025-02-26 14:26:52.637,-367.0,-839.0,601.0,-16.0,0.0,-10.0,151,127,133,132,133
2025-02-26 14:26:52.641,-372.0,-867.0,594.0,-19.0,-1.0,-10.0,154,128,132,132,135
2025-02-26 14:26:52.646,-368.0,-847.0,626.0,-29.0,-2.0,-10.0,153,127,129,131,133
2025-02-26 14:26:52.653,-382.0,-855.0,588.0,-35.0,-6.0,-10.0,155,129,132,132,134
2025-02-26 14:26:52.657,-370.0,-872.0,620.0,-42.0,-7.0,-10.0,153,127,133,132,135
2025-02-26 14:26:52.662,-375.0,-849.0,615.0,-42.0,-5.0,-10.0,153,127,132,131,133
2025-02-26 14:26:52.669,-379.0,-853.0,619.0,-40.0,-6.0,-9.0,156,129,134,134,136
2025-02-26 14:26:52.674,-385.0,-856.0,617.0,-49.0,-6.0,-9.0,153,127,133,131,133
2025-02-26 14:26:52.675,-375.0,-854.0,630.0,-46.0,-5.0,-8.0,151,127,131,131,133
2025-02-26 14:26:52.686,-387.0,-820.0,599.0,-34.0,-4.0,-8.0,154,130,129,134,135
2025-02-26 14:26:52.688,-392.0,-837.0,590.0,-34.0,-3.0,-7.0,156,129,135,134,136
2025-02-26 14:26:52.695,-375.0,-859.0,555.0,-34.0,-5.0,-5.0,152,127,134,131,134
2025-02-26 14:26:52.701,-390.0,-874.0,507.0,-30.0,-11.0,-2.0,149,125,130,131,133
2025-02-26 14:26:52.706,-389.0,-853.0,579.0,-39.0,-11.0,-2.0,154,126,131,131,133
2025-02-26 14:26:52.710,-358.0,-828.0,588.0,-40.0,-11.0,-2.0,156,128,132,131,135
2025-02-26 14:26:52.712,-357.0,-861.0,596.0,-32.0,-5.0,-3.0,153,127,133,133,133
2025-02-26 14:26:52.722,-328.0,-840.0,676.0,-28.0,17.0,-6.0,155,128,133,133,135
2025-02-26 14:26:52.724,-324.0,-803.0,653.0,-21.0,30.0,-10.0,152,126,132,132,133
2025-02-26 14:26:52.731,-343.0,-876.0,545.0,-13.0,38.0,-10.0,154,125,130,130,133
2025-02-26 14:26:52.736,-375.0,-882.0,629.0,-19.0,38.0,-10.0,154,127,132,130,133
2025-02-26 14:26:52.743,-379.0,-882.0,502.0,-26.0,30.0,-9.0,157,130,133,134,135
2025-02-26 14:26:52.748,-380.0,-897.0,506.0,-40.0,21.0,-8.0,154,129,135,134,136
2025-02-26 14:26:52.755,-366.0,-864.0,586.0,-43.0,25.0,-9.0,153,127,131,131,134
2025-02-26 14:26:52.760,-355.0,-860.0,561.0,-38.0,27.0,-10.0,150,125,129,132,133
2025-02-26 14:26:52.764,-366.0,-865.0,574.0,-22.0,36.0,-11.0,151,125,130,130,133
2025-02-26 14:26:52.771,-373.0,-875.0,522.0,-13.0,46.0,-11.0,155,129,134,133,135
2025-02-26 14:26:52.775,-378.0,-865.0,535.0,-4.0,55.0,-10.0,154,129,134,134,136
2025-02-26 14:26:52.780,-391.0,-863.0,479.0,-1.0,52.0,-8.0,156,131,136,135,137
2025-02-26 14:26:52.785,-396.0,-881.0,489.0,-6.0,48.0,-4.0,153,128,132,133,135
2025-02-26 14:26:52.792,-405.0,-872.0,527.0,-15.0,48.0,-3.0,153,127,133,132,133
2025-02-26 14:26:52.797,-405.0,-854.0,521.0,-18.0,43.0,0.0,154,129,134,134,135
2025-02-26 14:26:52.801,-408.0,-865.0,533.0,-26.0,49.0,2.0,156,130,134,135,137
2025-02-26 14:26:52.808,-389.0,-832.0,524.0,-30.0,54.0,3.0,155,130,134,132,132
2025-02-26 14:26:52.809,-405.0,-844.0,448.0,-31.0,50.0,3.0,151,127,132,131,134
2025-02-26 14:26:52.817,-409.0,-819.0,487.0,-36.0,53.0,3.0,154,128,136,133,134
2025-02-26 14:26:52.822,-409.0,-805.0,458.0,-46.0,55.0,2.0,155,127,134,131,135
2025-02-26 14:26:52.829,-409.0,-774.0,413.0,-56.0,53.0,0.0,153,125,131,130,133
2025-02-26 14:26:52.834,-414.0,-753.0,378.0,-61.0,51.0,-1.0,149,124,134,129,132
2025-02-26 14:26:52.843,-418.0,-749.0,362.0,-56.0,45.0,-3.0,154,127,133,133,133
2025-02-26 14:26:52.845,-414.0,-753.0,364.0,-63.0,44.0,-3.0,158,128,134,134,135
2025-02-26 14:26:52.850,-416.0,-713.0,372.0,-61.0,43.0,-6.0,152,125,133,133,134
2025-02-26 14:26:52.854,-410.0,-709.0,305.0,-57.0,39.0,-8.0,150,124,129,128,129
2025-02-26 14:26:52.859,-426.0,-738.0,311.0,-50.0,36.0,-9.0,150,122,127,128,132
2025-02-26 14:26:52.866,-426.0,-761.0,316.0,-48.0,31.0,-9.0,153,124,132,131,134
2025-02-26 14:26:52.870,-439.0,-804.0,318.0,-53.0,23.0,-10.0,152,124,131,129,132
2025-02-26 14:26:52.875,-417.0,-830.0,381.0,-58.0,22.0,-10.0,151,124,131,131,133
2025-02-26 14:26:52.881,-432.0,-858.0,353.0,-56.0,18.0,-9.0,154,124,132,130,133
2025-02-26 14:26:52.886,-443.0,-852.0,332.0,-59.0,13.0,-8.0,149,122,131,130,132
2025-02-26 14:26:52.890,-422.0,-832.0,398.0,-59.0,16.0,-8.0,152,124,132,131,133
2025-02-26 14:26:52.899,-428.0,-828.0,374.0,-50.0,18.0,-7.0,153,128,134,133,135
2025-02-26 14:26:52.901,-443.0,-862.0,306.0,-54.0,15.0,-6.0,156,130,136,134,137
2025-02-26 14:26:52.908,-430.0,-846.0,313.0,-55.0,16.0,-5.0,154,125,134,132,136
2025-02-26 14:26:52.912,-426.0,-837.0,292.0,-59.0,17.0,-5.0,151,124,131,131,133
2025-02-26 14:26:52.918,-427.0,-840.0,291.0,-62.0,18.0,-6.0,153,122,131,131,133
2025-02-26 14:26:52.923,-437.0,-834.0,282.0,-60.0,17.0,-5.0,154,128,135,135,136
2025-02-26 14:26:52.928,-436.0,-845.0,252.0,-58.0,15.0,-4.0,154,127,134,133,135
2025-02-26 14:26:52.935,-438.0,-845.0,272.0,-57.0,18.0,-4.0,152,131,132,131,139
2025-02-26 14:26:52.937,-437.0,-841.0,244.0,-53.0,17.0,-4.0,153,124,131,131,133
2025-02-26 14:26:52.944,-438.0,-844.0,226.0,-44.0,12.0,-4.0,159,125,132,130,133
2025-02-26 14:26:52.952,-436.0,-846.0,270.0,-34.0,12.0,-4.0,155,126,133,136,134
2025-02-26 14:26:52.955,-449.0,-844.0,282.0,-30.0,12.0,-4.0,153,125,133,133,135
2025-02-26 14:26:52.960,-462.0,-848.0,270.0,-24.0,12.0,-3.0,154,125,133,132,135
2025-02-26 14:26:52.965,-462.0,-851.0,232.0,-14.0,11.0,-2.0,153,123,131,132,134
2025-02-26 14:26:52.973,-438.0,-857.0,277.0,-12.0,13.0,-2.0,154,126,132,133,135
2025-02-26 14:26:52.973,-460.0,-839.0,251.0,-11.0,13.0,-2.0,154,128,135,132,135
2025-02-26 14:26:52.981,-448.0,-817.0,232.0,-15.0,8.0,-3.0,154,127,135,132,137
2025-02-26 14:26:52.989,-464.0,-839.0,303.0,-16.0,12.0,-3.0,153,125,130,131,134
2025-02-26 14:26:52.993,-459.0,-812.0,306.0,-12.0,17.0,-5.0,153,123,131,132,134
2025-02-26 14:26:52.998,-447.0,-801.0,291.0,-9.0,22.0,-6.0,154,125,132,132,135
2025-02-26 14:26:53.001,-439.0,-810.0,284.0,-7.0,28.0,-7.0,155,127,134,135,135
2025-02-26 14:26:53.009,-448.0,-788.0,270.0,-6.0,33.0,-9.0,152,126,131,134,134
2025-02-26 14:26:53.013,-445.0,-808.0,228.0,-10.0,33.0,-11.0,152,124,130,132,133
2025-02-26 14:26:53.018,-449.0,-806.0,231.0,-18.0,33.0,-12.0,152,124,130,129,133
2025-02-26 14:26:53.025,-463.0,-811.0,244.0,-18.0,31.0,-13.0,157,129,134,131,133
2025-02-26 14:26:53.028,-470.0,-806.0,206.0,-16.0,28.0,-14.0,156,126,134,135,136
2025-02-26 14:26:53.035,-466.0,-826.0,243.0,-14.0,25.0,-15.0,154,126,132,133,134
2025-02-26 14:26:53.039,-456.0,-834.0,280.0,-14.0,24.0,-15.0,151,125,133,133,135
2025-02-26 14:26:53.046,-467.0,-841.0,242.0,-11.0,22.0,-15.0,153,124,132,132,134
2025-02-26 14:26:53.051,-479.0,-839.0,248.0,-12.0,17.0,-15.0,154,124,132,132,132
2025-02-26 14:26:53.059,-478.0,-854.0,261.0,-16.0,16.0,-13.0,153,124,132,133,139
2025-02-26 14:26:53.063,-473.0,-840.0,257.0,-15.0,15.0,-12.0,158,127,133,136,137
2025-02-26 14:26:53.067,-480.0,-869.0,270.0,-14.0,15.0,-10.0,154,126,133,132,136
2025-02-26 14:26:53.071,-461.0,-855.0,288.0,-10.0,14.0,-9.0,154,124,132,132,134
2025-02-26 14:26:53.076,-463.0,-860.0,303.0,-14.0,19.0,-9.0,152,126,131,131,133
2025-02-26 14:26:53.083,-467.0,-871.0,280.0,-23.0,22.0,-8.0,155,128,133,133,137
2025-02-26 14:26:53.088,-448.0,-853.0,273.0,-26.0,22.0,-8.0,154,127,133,132,136
2025-02-26 14:26:53.095,-450.0,-835.0,251.0,-26.0,21.0,-6.0,158,124,133,138,139
2025-02-26 14:26:53.100,-445.0,-836.0,266.0,-25.0,20.0,-7.0,152,124,132,131,134
2025-02-26 14:26:53.104,-443.0,-844.0,313.0,-28.0,22.0,-7.0,154,125,132,133,135
2025-02-26 14:26:53.112,-438.0,-831.0,336.0,-22.0,25.0,-8.0,155,127,133,133,136
2025-02-26 14:26:53.116,-425.0,-823.0,311.0,-15.0,25.0,-9.0,155,126,133,133,135
2025-02-26 14:26:53.120,-411.0,-813.0,298.0,-9.0,22.0,-11.0,153,127,133,133,135
2025-02-26 14:26:53.125,-403.0,-821.0,325.0,-3.0,23.0,-13.0,155,125,131,132,135
2025-02-26 14:26:53.132,-403.0,-814.0,298.0,2.0,21.0,-14.0,152,124,132,131,135
2025-02-26 14:26:53.137,-416.0,-826.0,282.0,8.0,19.0,-16.0,155,124,132,132,132
2025-02-26 14:26:53.141,-401.0,-818.0,290.0,14.0,19.0,-17.0,155,128,135,134,137
2025-02-26 14:26:53.149,-417.0,-821.0,263.0,16.0,17.0,-18.0,155,126,134,135,135
2025-02-26 14:26:53.153,-422.0,-829.0,288.0,13.0,19.0,-18.0,153,124,130,130,134
2025-02-26 14:26:53.157,-408.0,-802.0,333.0,14.0,21.0,-18.0,152,123,131,129,132
2025-02-26 14:26:53.165,-413.0,-826.0,272.0,22.0,18.0,-18.0,157,128,140,134,137
2025-02-26 14:26:53.169,-406.0,-854.0,290.0,16.0,19.0,-18.0,156,126,133,133,135
2025-02-26 14:26:53.174,-390.0,-832.0,279.0,12.0,20.0,-18.0,154,125,137,132,134
2025-02-26 14:26:53.178,-375.0,-847.0,265.0,12.0,21.0,-17.0,154,125,130,131,134
2025-02-26 14:26:53.185,-391.0,-856.0,304.0,4.0,20.0,-18.0,151,124,131,136,134
2025-02-26 14:26:53.189,-332.0,-847.0,292.0,-3.0,22.0,-19.0,154,127,133,135,136
2025-02-26 14:26:53.191,-320.0,-878.0,276.0,-7.0,22.0,-20.0,152,126,133,136,135
2025-02-26 14:26:53.201,-302.0,-884.0,263.0,-14.0,22.0,-21.0,155,125,131,132,134
2025-02-26 14:26:53.206,-292.0,-883.0,254.0,-18.0,23.0,-22.0,154,125,132,132,134
2025-02-26 14:26:53.209,-303.0,-894.0,225.0,-20.0,20.0,-22.0,152,124,130,130,132
2025-02-26 14:26:53.218,-304.0,-896.0,227.0,-21.0,18.0,-22.0,155,127,134,134,135
2025-02-26 14:26:53.223,-319.0,-876.0,246.0,-20.0,18.0,-20.0,157,129,135,135,137
2025-02-26 14:26:53.227,-329.0,-945.0,231.0,-20.0,15.0,-18.0,154,126,132,132,134
2025-02-26 14:26:53.234,-328.0,-939.0,190.0,-18.0,13.0,-17.0,155,124,132,131,134
2025-02-26 14:26:53.239,-322.0,-943.0,215.0,-22.0,12.0,-17.0,153,124,131,131,134
2025-02-26 14:26:53.240,-329.0,-971.0,228.0,-25.0,10.0,-17.0,154,126,132,135,134
2025-02-26 14:26:53.247,-328.0,-973.0,164.0,-21.0,3.0,-16.0,156,127,132,133,136
2025-02-26 14:26:53.255,-324.0,-973.0,187.0,-20.0,0.0,-16.0,156,130,133,133,135
2025-02-26 14:26:53.258,-310.0,-984.0,185.0,-19.0,-3.0,-16.0,154,126,131,133,133
2025-02-26 14:26:53.264,-308.0,-976.0,186.0,-18.0,-6.0,-16.0,155,126,139,131,133
2025-02-26 14:26:53.270,-287.0,-994.0,207.0,-17.0,-4.0,-16.0,154,125,131,131,134
2025-02-26 14:26:53.276,-293.0,-984.0,180.0,-20.0,-6.0,-16.0,155,126,133,132,135
2025-02-26 14:26:53.280,-291.0,-955.0,200.0,-20.0,-6.0,-16.0,158,127,134,136,137
2025-02-26 14:26:53.288,-285.0,-971.0,234.0,-19.0,-3.0,-15.0,156,126,133,134,134
2025-02-26 14:26:53.292,-290.0,-949.0,213.0,-22.0,0.0,-14.0,153,126,131,132,134
2025-02-26 14:26:53.296,-283.0,-962.0,243.0,-20.0,4.0,-13.0,153,125,130,132,133
2025-02-26 14:26:53.304,-290.0,-973.0,194.0,-24.0,4.0,-13.0,157,127,135,133,137
2025-02-26 14:26:53.306,-286.0,-951.0,210.0,-26.0,4.0,-11.0,156,126,135,137,136
2025-02-26 14:26:53.313,-299.0,-966.0,241.0,-29.0,5.0,-9.0,155,126,133,132,134
2025-02-26 14:26:53.317,-299.0,-952.0,228.0,-33.0,5.0,-8.0,154,121,131,132,133
2025-02-26 14:26:53.325,-299.0,-959.0,221.0,-31.0,4.0,-7.0,154,123,135,132,134
2025-02-26 14:26:53.329,-305.0,-964.0,256.0,-30.0,7.0,-6.0,156,124,134,133,136
2025-02-26 14:26:53.334,-293.0,-955.0,251.0,-27.0,9.0,-5.0,154,124,133,133,135
2025-02-26 14:26:53.337,-292.0,-965.0,227.0,-27.0,8.0,-5.0,155,123,133,133,134
2025-02-26 14:26:53.343,-295.0,-952.0,228.0,-22.0,7.0,-5.0,154,120,133,135,134
2025-02-26 14:26:53.349,-301.0,-925.0,238.0,-20.0,7.0,-5.0,156,123,132,131,134
2025-02-26 14:26:53.354,-329.0,-938.0,209.0,-15.0,6.0,-5.0,154,121,128,133,134
2025-02-26 14:26:53.361,-335.0,-921.0,219.0,-14.0,8.0,-6.0,155,121,131,133,133
2025-02-26 14:26:53.366,-348.0,-915.0,232.0,-11.0,10.0,-6.0,155,121,131,131,133
2025-02-26 14:26:53.370,-357.0,-910.0,176.0,-7.0,12.0,-6.0,154,119,131,130,132
2025-02-26 14:26:53.374,-372.0,-911.0,193.0,-9.0,13.0,-7.0,157,120,131,131,134
2025-02-26 14:26:53.382,-381.0,-900.0,178.0,-11.0,11.0,-8.0,157,122,135,135,135
2025-02-26 14:26:53.386,-389.0,-903.0,180.0,-16.0,12.0,-10.0,156,118,131,132,133
2025-02-26 14:26:53.391,-391.0,-908.0,158.0,-23.0,11.0,-12.0,153,118,133,130,133
2025-02-26 14:26:53.399,-405.0,-909.0,174.0,-26.0,10.0,-13.0,153,117,131,131,131
2025-02-26 14:26:53.403,-402.0,-892.0,171.0,-30.0,11.0,-15.0,156,121,133,132,134
2025-02-26 14:26:53.407,-406.0,-894.0,166.0,-33.0,13.0,-17.0,156,119,134,133,135
2025-02-26 14:26:53.414,-397.0,-892.0,160.0,-31.0,14.0,-18.0,156,120,131,131,132
2025-02-26 14:26:53.419,-399.0,-891.0,147.0,-33.0,14.0,-19.0,155,117,132,132,130
2025-02-26 14:26:53.424,-388.0,-887.0,129.0,-32.0,14.0,-19.0,154,119,130,132,132
2025-02-26 14:26:53.431,-409.0,-882.0,137.0,-32.0,10.0,-20.0,155,118,133,133,133
2025-02-26 14:26:53.435,-396.0,-865.0,147.0,-31.0,10.0,-20.0,157,119,133,132,133
2025-02-26 14:26:53.440,-382.0,-859.0,122.0,-29.0,8.0,-20.0,155,120,133,132,134
2025-02-26 14:26:53.448,-392.0,-856.0,113.0,-29.0,5.0,-21.0,157,121,134,133,135
2025-02-26 14:26:53.452,-398.0,-862.0,109.0,-27.0,4.0,-21.0,153,119,130,131,132
2025-02-26 14:26:53.456,-376.0,-850.0,103.0,-27.0,2.0,-22.0,154,118,130,131,131
2025-02-26 14:26:53.460,-379.0,-852.0,82.0,-29.0,0.0,-23.0,158,122,134,137,136
2025-02-26 14:26:53.468,-365.0,-861.0,123.0,-29.0,3.0,-24.0,156,120,134,135,134
2025-02-26 14:26:53.470,-358.0,-860.0,93.0,-23.0,3.0,-26.0,155,117,131,133,133
2025-02-26 14:26:53.477,-356.0,-872.0,95.0,-20.0,2.0,-27.0,153,118,131,132,133
2025-02-26 14:26:53.482,-366.0,-864.0,63.0,-20.0,-1.0,-28.0,156,122,134,134,135
2025-02-26 14:26:53.489,-368.0,-870.0,47.0,-19.0,-6.0,-29.0,155,121,135,134,135
2025-02-26 14:26:53.493,-365.0,-866.0,61.0,-20.0,-10.0,-32.0,154,120,132,133,134
2025-02-26 14:26:53.497,-347.0,-868.0,74.0,-16.0,-11.0,-33.0,154,119,132,132,132
2025-02-26 14:26:53.505,-333.0,-856.0,65.0,-13.0,-11.0,-34.0,155,120,137,133,133
2025-02-26 14:26:53.507,-342.0,-868.0,90.0,-7.0,-11.0,-34.0,155,120,130,131,131
2025-02-26 14:26:53.513,-324.0,-870.0,108.0,-6.0,-12.0,-36.0,155,120,126,132,134
2025-02-26 14:26:53.521,-332.0,-877.0,97.0,-4.0,-13.0,-37.0,155,123,133,134,134
2025-02-26 14:26:53.526,-334.0,-888.0,51.0,-5.0,-20.0,-37.0,156,122,133,132,134
2025-02-26 14:26:53.530,-335.0,-895.0,95.0,-11.0,-21.0,-37.0,154,120,131,130,131
2025-02-26 14:26:53.538,-313.0,-885.0,109.0,-16.0,-15.0,-37.0,152,118,130,130,131
2025-02-26 14:26:53.542,-337.0,-901.0,163.0,-29.0,-8.0,-36.0,158,123,135,134,135
2025-02-26 14:26:53.547,-314.0,-897.0,116.0,-32.0,-4.0,-36.0,156,123,133,133,133
2025-02-26 14:26:53.553,-312.0,-903.0,76.0,-37.0,-6.0,-37.0,155,122,132,134,133
2025-02-26 14:26:53.559,-308.0,-904.0,97.0,-47.0,-5.0,-38.0,155,120,134,131,132
2025-02-26 14:26:53.562,-310.0,-909.0,65.0,-50.0,-8.0,-39.0,155,123,132,131,132
2025-02-26 14:26:53.567,-314.0,-896.0,69.0,-48.0,-15.0,-39.0,155,123,133,137,134
2025-02-26 14:26:53.575,-314.0,-890.0,51.0,-44.0,-22.0,-41.0,155,121,132,133,133
2025-02-26 14:26:53.579,-328.0,-906.0,42.0,-39.0,-31.0,-43.0,154,123,134,133,132
2025-02-26 14:26:53.584,-327.0,-908.0,82.0,-31.0,-35.0,-44.0,154,119,132,132,135
2025-02-26 14:26:53.591,-328.0,-902.0,87.0,-15.0,-37.0,-45.0,154,121,130,132,132
2025-02-26 14:26:53.597,-320.0,-903.0,100.0,-3.0,-35.0,-46.0,153,122,131,132,132
2025-02-26 14:26:53.602,-324.0,-886.0,72.0,0.0,-31.0,-47.0,155,123,133,132,132
2025-02-26 14:26:53.608,-316.0,-910.0,57.0,1.0,-29.0,-48.0,153,123,132,133,133
2025-02-26 14:26:53.608,-325.0,-907.0,61.0,-1.0,-25.0,-48.0,153,122,132,131,132
2025-02-26 14:26:53.614,-317.0,-909.0,32.0,-4.0,-26.0,-47.0,152,122,130,130,132
2025-02-26 14:26:53.620,-315.0,-917.0,29.0,-15.0,-28.0,-46.0,154,122,130,133,132
2025-02-26 14:26:53.626,-306.0,-908.0,41.0,-20.0,-33.0,-45.0,155,123,133,131,132
2025-02-26 14:26:53.632,-304.0,-927.0,57.0,-26.0,-31.0,-43.0,154,123,131,131,132
2025-02-26 14:26:53.640,-279.0,-918.0,111.0,-28.0,-24.0,-41.0,153,123,130,132,131
2025-02-26 14:26:53.644,-276.0,-910.0,51.0,-24.0,-26.0,-37.0,154,121,131,131,131
2025-02-26 14:26:53.649,-270.0,-902.0,66.0,-11.0,-26.0,-33.0,152,122,131,132,132
2025-02-26 14:26:53.652,-268.0,-926.0,95.0,1.0,-37.0,-31.0,152,122,130,130,130
2025-02-26 14:26:53.656,-269.0,-958.0,73.0,10.0,-44.0,-28.0,152,123,131,133,133
2025-02-26 14:26:53.665,-279.0,-1002.0,108.0,6.0,-39.0,-23.0,153,125,136,133,131
2025-02-26 14:26:53.669,-253.0,-998.0,54.0,6.0,-35.0,-20.0,154,124,131,131,131
2025-02-26 14:26:53.677,-249.0,-1009.0,19.0,-3.0,-31.0,-17.0,150,122,126,131,129
2025-02-26 14:26:53.680,-219.0,-1011.0,13.0,-15.0,-29.0,-16.0,152,120,129,131,130
2025-02-26 14:26:53.685,-232.0,-1036.0,139.0,-27.0,-23.0,-15.0,155,124,131,133,132
2025-02-26 14:26:53.693,-212.0,-1033.0,119.0,-39.0,-16.0,-16.0,153,123,131,133,132
2025-02-26 14:26:53.698,-183.0,-1085.0,149.0,-45.0,-19.0,-14.0,152,125,131,132,133
2025-02-26 14:26:53.700,-193.0,-1075.0,103.0,-58.0,-19.0,-14.0,153,124,132,132,132
2025-02-26 14:26:53.710,-199.0,-1057.0,143.0,-49.0,-16.0,-13.0,152,123,131,131,131
2025-02-26 14:26:53.711,-195.0,-1094.0,39.0,-55.0,-21.0,-12.0,152,124,129,130,130
2025-02-26 14:26:53.722,-189.0,-1112.0,111.0,-67.0,-24.0,-11.0,152,122,130,131,130
2025-02-26 14:26:53.726,-187.0,-1116.0,103.0,-65.0,-28.0,-11.0,150,124,131,130,129
2025-02-26 14:26:53.729,-160.0,-1109.0,156.0,-60.0,-24.0,-10.0,152,125,131,131,131
2025-02-26 14:26:53.738,-177.0,-1075.0,90.0,-53.0,-23.0,-9.0,153,124,132,131,132
2025-02-26 14:26:53.741,-182.0,-1092.0,63.0,-35.0,-18.0,-9.0,153,126,133,132,133
2025-02-26 14:26:53.747,-171.0,-1077.0,154.0,-34.0,-2.0,-7.0,153,125,131,133,131
2025-02-26 14:26:53.751,-190.0,-1060.0,24.0,-32.0,-1.0,-5.0,150,123,129,130,130
2025-02-26 14:26:53.758,-166.0,-1073.0,132.0,-15.0,0.0,-5.0,151,124,129,128,130
2025-02-26 14:26:53.761,-167.0,-1068.0,53.0,-15.0,3.0,-3.0,153,125,131,131,133
2025-02-26 14:26:53.767,-167.0,-1064.0,24.0,-15.0,0.0,-3.0,153,124,131,131,132
2025-02-26 14:26:53.773,-182.0,-1036.0,81.0,-11.0,8.0,-1.0,151,124,129,130,130
2025-02-26 14:26:53.779,-197.0,-1056.0,63.0,-2.0,11.0,-1.0,151,124,128,130,129
2025-02-26 14:26:53.784,-171.0,-1063.0,67.0,2.0,16.0,-1.0,152,124,131,137,132
2025-02-26 14:26:53.788,-194.0,-1054.0,51.0,7.0,20.0,0.0,152,126,132,132,132
2025-02-26 14:26:53.795,-193.0,-1040.0,89.0,10.0,28.0,0.0,150,119,127,129,131
2025-02-26 14:26:53.799,-198.0,-1059.0,64.0,17.0,29.0,1.0,151,123,130,130,130
2025-02-26 14:26:53.804,-187.0,-1063.0,-6.0,19.0,28.0,2.0,150,126,132,132,132
2025-02-26 14:26:53.809,-194.0,-1062.0,-4.0,18.0,26.0,2.0,153,125,131,131,132
2025-02-26 14:26:53.815,-210.0,-1052.0,-20.0,20.0,22.0,3.0,154,125,130,136,130
2025-02-26 14:26:53.820,-206.0,-1048.0,27.0,18.0,22.0,3.0,149,124,130,131,131
2025-02-26 14:26:53.825,-197.0,-1034.0,-6.0,19.0,22.0,3.0,153,126,130,132,132
2025-02-26 14:26:53.829,-203.0,-1014.0,17.0,22.0,23.0,4.0,153,126,132,131,132
2025-02-26 14:26:53.837,-209.0,-1006.0,18.0,20.0,23.0,5.0,150,127,131,131,130
2025-02-26 14:26:53.841,-206.0,-1001.0,29.0,17.0,18.0,5.0,150,124,129,127,130
2025-02-26 14:26:53.845,-221.0,-1002.0,39.0,7.0,22.0,5.0,151,127,131,131,132
2025-02-26 14:26:53.849,-221.0,-987.0,12.0,1.0,12.0,5.0,152,126,131,132,132
2025-02-26 14:26:53.857,-229.0,-999.0,24.0,-1.0,9.0,5.0,149,125,130,129,130
2025-02-26 14:26:53.861,-227.0,-983.0,18.0,2.0,-1.0,6.0,152,125,131,131,132
2025-02-26 14:26:53.865,-249.0,-980.0,54.0,4.0,-4.0,6.0,154,126,130,133,133
2025-02-26 14:26:53.869,-249.0,-956.0,25.0,4.0,-5.0,6.0,151,125,130,130,131
2025-02-26 14:26:53.874,-256.0,-954.0,12.0,6.0,-5.0,6.0,152,127,132,133,132
2025-02-26 14:26:53.881,-248.0,-952.0,13.0,7.0,-7.0,6.0,151,125,132,131,133
2025-02-26 14:26:53.885,-243.0,-954.0,46.0,6.0,-8.0,7.0,151,126,129,130,131
2025-02-26 14:26:53.890,-251.0,-961.0,47.0,1.0,-7.0,7.0,151,126,131,131,131
2025-02-26 14:26:53.895,-237.0,-948.0,36.0,-7.0,-8.0,8.0,152,126,130,132,133
2025-02-26 14:26:53.902,-241.0,-964.0,64.0,-12.0,-6.0,7.0,151,127,130,131,131
2025-02-26 14:26:53.907,-244.0,-942.0,49.0,-18.0,-4.0,7.0,152,126,130,132,131
2025-02-26 14:26:53.911,-234.0,-941.0,26.0,-16.0,-11.0,5.0,152,126,132,133,131
2025-02-26 14:26:53.915,-217.0,-955.0,58.0,-14.0,-11.0,4.0,152,127,131,133,132
2025-02-26 14:26:53.923,-216.0,-945.0,51.0,-9.0,-13.0,2.0,152,127,132,132,132
2025-02-26 14:26:53.926,-225.0,-964.0,65.0,-4.0,-13.0,1.0,151,126,130,132,132
2025-02-26 14:26:53.932,-205.0,-961.0,57.0,3.0,-10.0,0.0,153,127,132,132,133
2025-02-26 14:26:53.936,-215.0,-976.0,49.0,5.0,-9.0,0.0,152,127,132,131,132
2025-02-26 14:26:53.942,-228.0,-995.0,34.0,11.0,-8.0,0.0,152,126,132,135,130
2025-02-26 14:26:53.947,-230.0,-988.0,55.0,11.0,-6.0,1.0,153,129,133,131,132
2025-02-26 14:26:53.952,-225.0,-964.0,36.0,17.0,-5.0,2.0,151,128,133,131,132
2025-02-26 14:26:53.955,-225.0,-996.0,81.0,17.0,2.0,3.0,151,128,130,131,131
2025-02-26 14:26:53.964,-233.0,-989.0,43.0,18.0,0.0,3.0,152,128,131,131,131
2025-02-26 14:26:53.967,-210.0,-995.0,94.0,18.0,2.0,3.0,152,129,132,133,132
2025-02-26 14:26:53.972,-234.0,-981.0,77.0,17.0,2.0,4.0,151,126,131,132,134
2025-02-26 14:26:53.976,-219.0,-962.0,65.0,15.0,1.0,4.0,150,126,130,132,132
2025-02-26 14:26:53.980,-224.0,-962.0,77.0,15.0,0.0,3.0,156,131,133,134,135
2025-02-26 14:26:53.988,-228.0,-950.0,91.0,14.0,2.0,3.0,153,129,130,132,133
2025-02-26 14:26:53.992,-236.0,-953.0,93.0,15.0,4.0,2.0,150,127,130,130,132
2025-02-26 14:26:53.996,-231.0,-944.0,71.0,12.0,5.0,1.0,153,129,131,132,133
2025-02-26 14:26:54.001,-233.0,-945.0,94.0,11.0,8.0,0.0,154,129,132,133,135
2025-02-26 14:26:54.005,-238.0,-938.0,79.0,11.0,8.0,-1.0,151,127,129,131,132
2025-02-26 14:26:54.013,-237.0,-942.0,61.0,9.0,5.0,-2.0,152,127,131,132,134
2025-02-26 14:26:54.017,-235.0,-940.0,71.0,10.0,5.0,-3.0,151,128,132,132,133
2025-02-26 14:26:54.021,-232.0,-933.0,67.0,9.0,5.0,-5.0,152,129,132,132,135
2025-02-26 14:26:54.026,-229.0,-931.0,65.0,11.0,5.0,-5.0,152,128,131,131,132
2025-02-26 14:26:54.033,-230.0,-926.0,64.0,16.0,2.0,-6.0,152,128,132,134,133
2025-02-26 14:26:54.035,-229.0,-920.0,61.0,19.0,0.0,-7.0,151,128,130,132,133
2025-02-26 14:26:54.042,-229.0,-924.0,83.0,23.0,0.0,-8.0,151,128,133,132,134
2025-02-26 14:26:54.046,-235.0,-921.0,56.0,28.0,-1.0,-9.0,152,129,132,133,134
2025-02-26 14:26:54.054,-228.0,-924.0,71.0,28.0,-1.0,-9.0,153,128,131,132,134
2025-02-26 14:26:54.058,-230.0,-933.0,46.0,29.0,0.0,-10.0,151,128,131,132,132
2025-02-26 14:26:54.062,-237.0,-939.0,42.0,35.0,-4.0,-10.0,151,129,133,132,134
2025-02-26 14:26:54.066,-237.0,-963.0,48.0,27.0,-6.0,-10.0,152,129,132,132,134
2025-02-26 14:26:54.073,-222.0,-957.0,27.0,26.0,-8.0,-10.0,153,130,133,132,133
2025-02-26 14:26:54.077,-217.0,-969.0,80.0,17.0,-8.0,-11.0,149,128,131,130,132
2025-02-26 14:26:54.083,-214.0,-963.0,92.0,21.0,-6.0,-11.0,152,128,130,132,134
2025-02-26 14:26:54.087,-218.0,-974.0,93.0,20.0,-4.0,-12.0,153,130,130,134,135
2025-02-26 14:26:54.095,-227.0,-974.0,49.0,20.0,-6.0,-13.0,152,130,133,133,133
2025-02-26 14:26:54.099,-236.0,-998.0,75.0,22.0,-5.0,-13.0,152,129,130,131,133
2025-02-26 14:26:54.103,-237.0,-988.0,20.0,26.0,-10.0,-14.0,152,126,130,132,133
2025-02-26 14:26:54.111,-205.0,-980.0,87.0,26.0,-13.0,-14.0,152,129,131,132,133
2025-02-26 14:26:54.115,-217.0,-987.0,94.0,27.0,-12.0,-15.0,152,129,131,134,138
2025-02-26 14:26:54.120,-230.0,-981.0,68.0,31.0,-15.0,-15.0,152,129,131,133,135
2025-02-26 14:26:54.125,-207.0,-1001.0,119.0,30.0,-11.0,-16.0,151,127,138,132,135
2025-02-26 14:26:54.131,-213.0,-995.0,104.0,27.0,-9.0,-15.0,151,129,129,130,133
2025-02-26 14:26:54.136,-223.0,-1008.0,84.0,29.0,-14.0,-14.0,150,124,130,130,131
2025-02-26 14:26:54.143,-206.0,-1025.0,118.0,32.0,-15.0,-14.0,154,132,134,134,136
2025-02-26 14:26:54.148,-217.0,-1020.0,132.0,34.0,-16.0,-12.0,153,130,132,133,135
2025-02-26 14:26:54.152,-211.0,-1003.0,147.0,32.0,-13.0,-10.0,154,131,134,133,137
2025-02-26 14:26:54.160,-215.0,-1019.0,119.0,36.0,-17.0,-8.0,153,128,133,133,136
2025-02-26 14:26:54.165,-212.0,-1031.0,120.0,34.0,-20.0,-7.0,154,131,133,132,135
2025-02-26 14:26:54.167,-187.0,-1025.0,170.0,32.0,-16.0,-6.0,152,130,134,133,136
2025-02-26 14:26:54.173,-194.0,-1027.0,174.0,22.0,-12.0,-5.0,154,135,135,134,140
2025-02-26 14:26:54.181,-190.0,-1028.0,153.0,14.0,-9.0,-4.0,154,131,133,134,136
2025-02-26 14:26:54.185,-182.0,-1012.0,169.0,14.0,-5.0,-5.0,154,136,134,134,131
2025-02-26 14:26:54.189,-188.0,-1022.0,158.0,14.0,-3.0,-5.0,151,130,134,133,135
2025-02-26 14:26:54.197,-192.0,-1036.0,124.0,6.0,-7.0,-4.0,151,123,132,132,134
2025-02-26 14:26:54.201,-186.0,-1021.0,159.0,7.0,-6.0,-4.0,154,131,134,134,136
2025-02-26 14:26:54.206,-186.0,-1006.0,169.0,9.0,-6.0,-5.0,154,131,134,135,136
2025-02-26 14:26:54.210,-187.0,-1003.0,154.0,11.0,-7.0,-5.0,155,130,133,134,135
2025-02-26 14:26:54.220,-180.0,-1001.0,170.0,14.0,-3.0,-5.0,152,127,132,132,138
2025-02-26 14:26:54.222,-188.0,-992.0,155.0,17.0,-4.0,-5.0,152,131,133,134,137
2025-02-26 14:26:54.226,-176.0,-1004.0,135.0,21.0,-7.0,-4.0,154,131,134,136,138
2025-02-26 14:26:54.234,-174.0,-995.0,167.0,26.0,-8.0,-2.0,154,132,135,136,139
2025-02-26 14:26:54.238,-179.0,-1014.0,143.0,18.0,-9.0,-1.0,154,132,134,134,137
2025-02-26 14:26:54.243,-165.0,-990.0,146.0,15.0,-9.0,0.0,155,132,135,135,138
2025-02-26 14:26:54.247,-171.0,-993.0,166.0,19.0,-9.0,1.0,155,132,136,135,139
2025-02-26 14:26:54.251,-182.0,-1000.0,169.0,17.0,-9.0,3.0,155,133,136,135,139
2025-02-26 14:26:54.259,-183.0,-992.0,165.0,20.0,-9.0,3.0,153,131,133,136,137
2025-02-26 14:26:54.263,-176.0,-994.0,149.0,15.0,-9.0,4.0,152,130,134,135,136
2025-02-26 14:26:54.268,-197.0,-988.0,194.0,10.0,-6.0,3.0,154,133,135,135,138
2025-02-26 14:26:54.275,-184.0,-983.0,154.0,12.0,-7.0,3.0,153,130,133,132,136
2025-02-26 14:26:54.280,-186.0,-989.0,120.0,17.0,-13.0,3.0,151,128,132,130,134
2025-02-26 14:26:54.282,-181.0,-973.0,210.0,10.0,-10.0,2.0,147,127,132,127,136
2025-02-26 14:26:54.291,-184.0,-973.0,184.0,9.0,-7.0,1.0,153,132,135,135,138
2025-02-26 14:26:54.296,-203.0,-987.0,128.0,11.0,-12.0,1.0,154,132,134,134,137
2025-02-26 14:26:54.300,-189.0,-993.0,194.0,9.0,-10.0,0.0,151,131,134,132,137
2025-02-26 14:26:54.304,-180.0,-979.0,173.0,9.0,-10.0,-1.0,153,126,134,135,136
2025-02-26 14:26:54.312,-202.0,-985.0,182.0,8.0,-12.0,-1.0,155,132,136,134,139
2025-02-26 14:26:54.316,-185.0,-981.0,191.0,5.0,-10.0,-3.0,153,131,137,137,139
2025-02-26 14:26:54.320,-183.0,-980.0,190.0,5.0,-8.0,-3.0,153,131,134,133,139
2025-02-26 14:26:54.324,-195.0,-983.0,176.0,6.0,-8.0,-3.0,152,130,134,133,137
2025-02-26 14:26:54.332,-188.0,-980.0,168.0,5.0,-9.0,-2.0,155,132,135,136,138
2025-02-26 14:26:54.336,-179.0,-968.0,170.0,7.0,-9.0,-2.0,154,132,136,135,139
2025-02-26 14:26:54.341,-184.0,-974.0,188.0,9.0,-9.0,-1.0,152,130,131,133,136
2025-02-26 14:26:54.345,-185.0,-969.0,145.0,8.0,-11.0,0.0,153,130,133,134,140
2025-02-26 14:26:54.353,-172.0,-971.0,195.0,10.0,-11.0,0.0,153,131,134,136,139
2025-02-26 14:26:54.355,-175.0,-977.0,188.0,13.0,-11.0,1.0,153,130,131,133,139
2025-02-26 14:26:54.361,-185.0,-986.0,185.0,12.0,-11.0,1.0,154,132,135,136,139
2025-02-26 14:26:54.366,-170.0,-981.0,208.0,8.0,-11.0,0.0,153,131,132,139,139
2025-02-26 14:26:54.373,-171.0,-979.0,204.0,5.0,-10.0,0.0,153,132,137,136,139
2025-02-26 14:26:54.377,-181.0,-992.0,211.0,2.0,-11.0,0.0,155,133,135,134,140
2025-02-26 14:26:54.379,-168.0,-983.0,240.0,-1.0,-6.0,0.0,154,133,135,136,139
2025-02-26 14:26:54.389,-171.0,-967.0,221.0,0.0,-5.0,-1.0,154,131,136,134,138
2025-02-26 14:26:54.394,-189.0,-987.0,208.0,2.0,-6.0,0.0,154,130,134,134,140
2025-02-26 14:26:54.398,-184.0,-993.0,208.0,3.0,-5.0,0.0,154,133,135,136,141
2025-02-26 14:26:54.403,-186.0,-991.0,196.0,3.0,-5.0,1.0,154,133,135,135,138
2025-02-26 14:26:54.407,-194.0,-996.0,183.0,3.0,-8.0,1.0,153,131,134,133,138
2025-02-26 14:26:54.415,-177.0,-993.0,234.0,3.0,-8.0,1.0,153,131,135,135,139
2025-02-26 14:26:54.415,-176.0,-978.0,229.0,4.0,-10.0,2.0,151,132,134,133,139
2025-02-26 14:26:54.420,-191.0,-991.0,220.0,4.0,-10.0,2.0,153,132,135,134,138
2025-02-26 14:26:54.427,-190.0,-984.0,247.0,3.0,-7.0,2.0,157,134,136,138,142
2025-02-26 14:26:54.432,-187.0,-957.0,230.0,5.0,-2.0,1.0,153,132,136,136,140
2025-02-26 14:26:54.439,-193.0,-968.0,205.0,4.0,-2.0,1.0,153,130,133,135,137
2025-02-26 14:26:54.443,-189.0,-968.0,204.0,6.0,-5.0,0.0,152,130,134,134,137
2025-02-26 14:26:54.448,-194.0,-978.0,208.0,3.0,-5.0,0.0,153,132,135,135,140
2025-02-26 14:26:54.455,-199.0,-961.0,217.0,1.0,-6.0,-1.0,154,132,136,136,139
2025-02-26 14:26:54.458,-200.0,-957.0,200.0,2.0,-6.0,-1.0,152,131,133,135,136
2025-02-26 14:26:54.464,-199.0,-963.0,224.0,0.0,-4.0,-1.0,155,132,135,136,140
2025-02-26 14:26:54.468,-194.0,-956.0,221.0,2.0,-4.0,-2.0,153,132,134,134,139
2025-02-26 14:26:54.476,-207.0,-958.0,208.0,1.0,-5.0,-2.0,151,129,133,134,137
2025-02-26 14:26:54.480,-215.0,-957.0,203.0,3.0,-5.0,-3.0,150,130,133,133,138
2025-02-26 14:26:54.484,-192.0,-958.0,214.0,4.0,-4.0,-3.0,154,130,134,135,140
2025-02-26 14:26:54.489,-206.0,-959.0,198.0,7.0,-5.0,-3.0,153,132,135,135,142
2025-02-26 14:26:54.497,-209.0,-968.0,195.0,8.0,-6.0,-2.0,152,131,133,132,132
2025-02-26 14:26:54.500,-218.0,-958.0,204.0,9.0,-5.0,-1.0,152,129,134,136,139
2025-02-26 14:26:54.504,-193.0,-951.0,218.0,10.0,0.0,-1.0,154,134,136,136,137
2025-02-26 14:26:54.509,-205.0,-969.0,184.0,11.0,-9.0,1.0,154,132,135,135,140
2025-02-26 14:26:54.517,-189.0,-982.0,242.0,10.0,-10.0,1.0,151,130,134,134,139
2025-02-26 14:26:54.518,-200.0,-971.0,217.0,15.0,-10.0,2.0,152,130,134,133,137
2025-02-26 14:26:54.526,-194.0,-971.0,142.0,20.0,-14.0,2.0,155,131,134,132,139
2025-02-26 14:26:54.530,-219.0,-985.0,174.0,14.0,-15.0,3.0,152,131,134,133,138
2025-02-26 14:26:54.535,-186.0,-956.0,248.0,14.0,-12.0,2.0,151,128,131,131,136
2025-02-26 14:26:54.542,-204.0,-977.0,220.0,11.0,-13.0,1.0,152,130,134,132,137
2025-02-26 14:26:54.546,-196.0,-972.0,272.0,7.0,-9.0,1.0,150,129,133,135,137
2025-02-26 14:26:54.554,-194.0,-951.0,231.0,1.0,-9.0,0.0,151,128,133,133,137
2025-02-26 14:26:54.554,-198.0,-965.0,242.0,-2.0,-9.0,-1.0,150,128,130,131,137
2025-02-26 14:26:54.562,-202.0,-959.0,229.0,-1.0,-6.0,-1.0,153,131,137,133,138
2025-02-26 14:26:54.566,-209.0,-960.0,206.0,1.0,-7.0,-2.0,153,130,136,133,138
2025-02-26 14:26:54.574,-198.0,-965.0,230.0,0.0,-4.0,-3.0,155,132,136,136,139
2025-02-26 14:26:54.577,-206.0,-959.0,220.0,3.0,-3.0,-3.0,152,130,132,131,138
2025-02-26 14:26:54.583,-221.0,-985.0,217.0,5.0,-5.0,-3.0,152,132,135,134,139
2025-02-26 14:26:54.586,-217.0,-981.0,235.0,6.0,-6.0,-3.0,156,134,138,136,139
2025-02-26 14:26:54.595,-204.0,-970.0,228.0,7.0,-6.0,-2.0,154,134,138,135,140
2025-02-26 14:26:54.597,-218.0,-977.0,236.0,4.0,-5.0,-2.0,153,132,135,135,139
2025-02-26 14:26:54.603,-205.0,-967.0,220.0,9.0,-3.0,-2.0,155,132,137,134,139
2025-02-26 14:26:54.607,-196.0,-973.0,206.0,8.0,-4.0,-2.0,153,131,136,136,141
2025-02-26 14:26:54.615,-193.0,-968.0,256.0,10.0,0.0,-2.0,154,131,136,135,140
2025-02-26 14:26:54.619,-193.0,-981.0,204.0,6.0,-3.0,-2.0,151,130,134,132,138
2025-02-26 14:26:54.623,-190.0,-982.0,246.0,11.0,0.0,-2.0,153,131,131,133,139
2025-02-26 14:26:54.628,-205.0,-987.0,159.0,11.0,-13.0,0.0,154,134,137,137,141
2025-02-26 14:26:54.635,-179.0,-993.0,283.0,8.0,-7.0,1.0,153,133,135,135,140
2025-02-26 14:26:54.639,-164.0,-963.0,234.0,2.0,-4.0,1.0,152,131,135,134,139
2025-02-26 14:26:54.644,-188.0,-963.0,274.0,1.0,-8.0,2.0,157,136,139,136,140
2025-02-26 14:26:54.648,-168.0,-964.0,313.0,8.0,1.0,1.0,155,133,138,137,141
2025-02-26 14:26:54.655,-163.0,-965.0,265.0,8.0,4.0,1.0,152,132,135,138,139
2025-02-26 14:26:54.660,-135.0,-953.0,149.0,2.0,0.0,1.0,155,133,134,133,139
2025-02-26 14:26:54.665,-157.0,-959.0,304.0,2.0,8.0,1.0,156,135,138,139,143
2025-02-26 14:26:54.669,-162.0,-947.0,217.0,3.0,0.0,0.0,156,134,138,137,141
2025-02-26 14:26:54.676,-160.0,-953.0,246.0,-4.0,-2.0,1.0,154,132,136,136,140
2025-02-26 14:26:54.681,-166.0,-953.0,251.0,-1.0,-2.0,0.0,156,134,137,141,143
2025-02-26 14:26:54.685,-188.0,-961.0,198.0,-4.0,-6.0,0.0,156,134,138,138,145
2025-02-26 14:26:54.689,-179.0,-951.0,251.0,-7.0,-5.0,0.0,154,133,137,138,140
2025-02-26 14:26:54.694,-190.0,-943.0,229.0,-6.0,-2.0,0.0,154,132,135,136,139
2025-02-26 14:26:54.700,-193.0,-955.0,225.0,1.0,-2.0,0.0,155,136,139,139,142
2025-02-26 14:26:54.705,-196.0,-974.0,226.0,0.0,0.0,0.0,157,128,137,138,141
2025-02-26 14:26:54.710,-189.0,-951.0,214.0,0.0,1.0,0.0,155,132,135,136,142
2025-02-26 14:26:54.712,-190.0,-958.0,192.0,2.0,-2.0,0.0,156,134,139,136,142
2025-02-26 14:26:54.721,-192.0,-969.0,198.0,2.0,-3.0,1.0,155,135,137,136,142
2025-02-26 14:26:54.724,-181.0,-962.0,187.0,2.0,-5.0,1.0,155,134,141,135,141
2025-02-26 14:26:54.730,-194.0,-973.0,208.0,-1.0,-8.0,1.0,155,136,140,137,142
2025-02-26 14:26:54.734,-189.0,-959.0,232.0,-1.0,-8.0,1.0,156,135,138,138,142
2025-02-26 14:26:54.742,-188.0,-949.0,228.0,-2.0,-7.0,0.0,156,133,140,139,143
2025-02-26 14:26:54.746,-189.0,-934.0,261.0,0.0,-5.0,-1.0,155,130,137,137,144
2025-02-26 14:26:54.751,-201.0,-940.0,227.0,-1.0,-3.0,-1.0,156,135,139,138,142
2025-02-26 14:26:54.755,-196.0,-950.0,230.0,-1.0,-2.0,-2.0,156,134,138,136,142
2025-02-26 14:26:54.763,-196.0,-959.0,222.0,0.0,-4.0,-2.0,156,133,139,136,141
2025-02-26 14:26:54.766,-205.0,-980.0,214.0,-1.0,-5.0,-1.0,154,133,136,136,140
2025-02-26 14:26:54.771,-198.0,-979.0,221.0,-3.0,-7.0,-1.0,155,134,137,136,140
2025-02-26 14:26:54.778,-204.0,-976.0,218.0,-1.0,-9.0,0.0,157,134,137,136,142
2025-02-26 14:26:54.783,-196.0,-990.0,237.0,1.0,-6.0,1.0,158,138,141,139,144
2025-02-26 14:26:54.787,-184.0,-987.0,242.0,0.0,-5.0,2.0,155,132,136,137,140
2025-02-26 14:26:54.791,-184.0,-975.0,259.0,0.0,-4.0,2.0,157,136,138,140,142
2025-02-26 14:26:54.796,-200.0,-944.0,257.0,4.0,-4.0,2.0,157,136,141,139,141
2025-02-26 14:26:54.802,-200.0,-962.0,229.0,4.0,-7.0,3.0,158,137,140,140,142
2025-02-26 14:26:54.808,-203.0,-971.0,236.0,1.0,-7.0,3.0,155,134,137,136,142
2025-02-26 14:26:54.812,-206.0,-961.0,216.0,2.0,-8.0,3.0,156,136,141,140,144
2025-02-26 14:26:54.817,-207.0,-970.0,254.0,2.0,-8.0,3.0,157,136,138,139,142
2025-02-26 14:26:54.821,-201.0,-960.0,255.0,-2.0,-8.0,3.0,157,135,138,137,143
2025-02-26 14:26:54.828,-205.0,-964.0,240.0,0.0,-8.0,4.0,156,136,138,137,142
2025-02-26 14:26:54.833,-211.0,-963.0,233.0,-2.0,-9.0,3.0,157,133,137,137,142
2025-02-26 14:26:54.837,-203.0,-952.0,247.0,-3.0,-8.0,3.0,154,132,136,136,141
2025-02-26 14:26:54.845,-207.0,-942.0,241.0,-3.0,-7.0,2.0,156,132,138,138,141
2025-02-26 14:26:54.849,-205.0,-947.0,241.0,-2.0,-6.0,1.0,156,135,142,138,144
2025-02-26 14:26:54.853,-198.0,-944.0,243.0,-1.0,-5.0,1.0,156,134,137,136,143
2025-02-26 14:26:54.857,-203.0,-943.0,250.0,-2.0,-4.0,0.0,154,132,137,137,139
2025-02-26 14:26:54.865,-206.0,-944.0,232.0,-3.0,-6.0,0.0,156,132,137,138,141
2025-02-26 14:26:54.870,-206.0,-951.0,228.0,-2.0,-9.0,-1.0,159,135,138,140,143
2025-02-26 14:26:54.874,-215.0,-958.0,237.0,-2.0,-9.0,-2.0,156,134,138,137,142
2025-02-26 14:26:54.881,-197.0,-952.0,257.0,-4.0,-8.0,-3.0,154,132,135,136,140
2025-02-26 14:26:54.885,-187.0,-956.0,259.0,-1.0,-7.0,-3.0,157,134,138,138,144
2025-02-26 14:26:54.890,-197.0,-962.0,245.0,1.0,-8.0,-3.0,157,134,139,140,143
2025-02-26 14:26:54.894,-183.0,-968.0,253.0,0.0,-9.0,-2.0,157,135,148,137,142
2025-02-26 14:26:54.902,-169.0,-970.0,282.0,-2.0,-7.0,-2.0,155,134,138,136,141
2025-02-26 14:26:54.906,-180.0,-933.0,256.0,3.0,-4.0,-2.0,157,133,138,137,140
2025-02-26 14:26:54.910,-178.0,-949.0,267.0,-2.0,-3.0,-1.0,157,135,140,140,144
2025-02-26 14:26:54.915,-165.0,-949.0,261.0,-1.0,-1.0,-1.0,157,134,138,142,144
2025-02-26 14:26:54.922,-192.0,-980.0,219.0,-2.0,-2.0,-1.0,157,134,137,139,141
2025-02-26 14:26:54.926,-174.0,-981.0,216.0,-5.0,-3.0,-1.0,156,130,137,138,137
2025-02-26 14:26:54.931,-180.0,-985.0,267.0,-3.0,-1.0,-1.0,158,135,140,138,144
2025-02-26 14:26:54.935,-190.0,-996.0,266.0,0.0,3.0,-1.0,158,137,140,138,143
2025-02-26 14:26:54.943,-184.0,-999.0,265.0,-4.0,9.0,-1.0,157,134,139,139,143
2025-02-26 14:26:54.947,-177.0,-996.0,203.0,1.0,8.0,-1.0,158,137,139,138,142
2025-02-26 14:26:54.951,-211.0,-1019.0,233.0,4.0,1.0,-1.0,157,136,140,138,144
2025-02-26 14:26:54.956,-185.0,-1021.0,252.0,3.0,-3.0,0.0,158,136,140,139,143
2025-02-26 14:26:54.963,-206.0,-1015.0,198.0,4.0,-4.0,1.0,155,131,136,137,141
2025-02-26 14:26:54.968,-208.0,-1014.0,259.0,1.0,-6.0,1.0,153,129,133,133,139
2025-02-26 14:26:54.972,-184.0,-973.0,329.0,3.0,6.0,0.0,154,130,136,136,140
2025-02-26 14:26:54.976,-202.0,-977.0,184.0,0.0,-1.0,1.0,152,130,134,134,138
2025-02-26 14:26:54.984,-179.0,-994.0,229.0,-3.0,-4.0,2.0,152,131,134,134,139
2025-02-26 14:26:54.988,-202.0,-995.0,252.0,-10.0,2.0,2.0,153,132,135,134,139
2025-02-26 14:26:54.992,-175.0,-956.0,201.0,-9.0,-6.0,3.0,153,130,134,133,139
2025-02-26 14:26:54.997,-221.0,-1010.0,251.0,-12.0,-4.0,4.0,152,130,133,132,138
2025-02-26 14:26:55.004,-202.0,-997.0,218.0,-2.0,-2.0,3.0,154,130,135,135,138
2025-02-26 14:26:55.009,-209.0,-1011.0,211.0,3.0,-3.0,4.0,152,130,134,135,140
2025-02-26 14:26:55.013,-214.0,-1018.0,250.0,-5.0,-3.0,4.0,153,130,134,133,138
2025-02-26 14:26:55.020,-203.0,-1009.0,267.0,-3.0,-3.0,4.0,152,129,134,133,138
2025-02-26 14:26:55.024,-215.0,-1017.0,235.0,-6.0,-6.0,5.0,152,129,134,135,138
2025-02-26 14:26:55.029,-195.0,-1003.0,262.0,-13.0,-1.0,5.0,150,128,134,133,137
2025-02-26 14:26:55.034,-203.0,-976.0,209.0,-12.0,-3.0,5.0,152,130,134,132,137
2025-02-26 14:26:55.041,-213.0,-986.0,247.0,-8.0,-1.0,5.0,152,129,135,132,136
2025-02-26 14:26:55.045,-200.0,-964.0,276.0,-7.0,0.0,4.0,150,126,133,131,138
2025-02-26 14:26:55.049,-182.0,-968.0,235.0,-6.0,1.0,4.0,152,127,131,131,136
2025-02-26 14:26:55.053,-211.0,-975.0,243.0,-2.0,0.0,4.0,152,128,131,135,140
2025-02-26 14:26:55.062,-189.0,-976.0,238.0,-2.0,-3.0,5.0,152,128,131,133,137
2025-02-26 14:26:55.066,-189.0,-987.0,239.0,-3.0,-4.0,6.0,147,126,133,125,137
2025-02-26 14:26:55.070,-194.0,-987.0,261.0,-8.0,-3.0,6.0,152,131,135,136,138
2025-02-26 14:26:55.074,-192.0,-967.0,257.0,-7.0,-1.0,5.0,152,133,135,133,137
2025-02-26 14:26:55.082,-188.0,-969.0,272.0,-7.0,4.0,5.0,151,129,132,132,136
2025-02-26 14:26:55.086,-183.0,-967.0,247.0,-7.0,5.0,5.0,150,125,131,133,137
2025-02-26 14:26:55.091,-191.0,-977.0,204.0,-10.0,5.0,5.0,151,128,133,132,138
2025-02-26 14:26:55.095,-204.0,-971.0,255.0,-7.0,6.0,6.0,152,128,132,131,136
2025-02-26 14:26:55.102,-215.0,-987.0,276.0,-13.0,6.0,6.0,150,126,131,131,136
2025-02-26 14:26:55.107,-192.0,-960.0,176.0,-8.0,7.0,6.0,151,124,133,131,133
2025-02-26 14:26:55.111,-218.0,-993.0,172.0,-14.0,1.0,7.0,152,129,133,134,139
2025-02-26 14:26:55.116,-210.0,-968.0,236.0,-11.0,2.0,7.0,152,129,132,129,137
2025-02-26 14:26:55.123,-222.0,-969.0,186.0,-10.0,-1.0,7.0,153,128,131,131,136
2025-02-26 14:26:55.127,-209.0,-963.0,233.0,-3.0,0.0,7.0,154,130,135,134,138
2025-02-26 14:26:55.131,-204.0,-955.0,273.0,1.0,9.0,6.0,152,129,134,132,137
2025-02-26 14:26:55.136,-224.0,-956.0,187.0,5.0,9.0,6.0,150,128,131,132,137
2025-02-26 14:26:55.140,-238.0,-980.0,132.0,3.0,0.0,7.0,150,126,132,131,136
2025-02-26 14:26:55.148,-208.0,-973.0,197.0,-5.0,0.0,7.0,152,128,136,135,137
2025-02-26 14:26:55.152,-225.0,-935.0,213.0,-4.0,-3.0,7.0,153,128,133,134,137
2025-02-26 14:26:55.156,-243.0,-938.0,242.0,-9.0,-4.0,7.0,152,128,134,131,136
2025-02-26 14:26:55.161,-226.0,-924.0,244.0,-9.0,2.0,6.0,151,128,132,133,138
2025-02-26 14:26:55.166,-221.0,-936.0,215.0,-12.0,5.0,5.0,153,129,136,135,138
2025-02-26 14:26:55.173,-234.0,-955.0,182.0,-11.0,5.0,5.0,152,125,132,131,137
2025-02-26 14:26:55.177,-232.0,-965.0,175.0,-4.0,0.0,5.0,152,129,132,132,137
2025-02-26 14:26:55.179,-227.0,-962.0,191.0,-2.0,-4.0,5.0,155,130,135,136,140
2025-02-26 14:26:55.189,-219.0,-953.0,232.0,-1.0,-5.0,5.0,151,129,133,135,139
2025-02-26 14:26:55.191,-226.0,-942.0,234.0,-1.0,-4.0,3.0,149,127,131,131,137
2025-02-26 14:26:55.195,-222.0,-938.0,242.0,0.0,1.0,2.0,150,126,132,131,139
2025-02-26 14:26:55.201,-211.0,-937.0,218.0,-2.0,3.0,1.0,154,130,134,135,140
2025-02-26 14:26:55.209,-209.0,-948.0,224.0,-3.0,3.0,0.0,152,127,133,134,137
2025-02-26 14:26:55.213,-218.0,-956.0,206.0,-4.0,2.0,0.0,153,127,133,133,137
2025-02-26 14:26:55.217,-235.0,-958.0,187.0,-6.0,-2.0,-1.0,154,130,134,133,137
2025-02-26 14:26:55.221,-218.0,-939.0,225.0,-6.0,-1.0,-1.0,155,130,135,135,138
2025-02-26 14:26:55.229,-231.0,-946.0,222.0,-4.0,-1.0,-2.0,152,127,133,134,138
2025-02-26 14:26:55.233,-238.0,-949.0,219.0,-2.0,0.0,-2.0,152,128,134,134,136
2025-02-26 14:26:55.238,-226.0,-948.0,203.0,1.0,-2.0,-2.0,154,129,133,134,139
2025-02-26 14:26:55.242,-220.0,-960.0,233.0,1.0,0.0,-1.0,155,130,135,134,141
2025-02-26 14:26:55.250,-227.0,-943.0,208.0,2.0,-1.0,0.0,152,127,134,132,138
2025-02-26 14:26:55.252,-226.0,-941.0,220.0,1.0,-2.0,0.0,150,126,132,134,137
2025-02-26 14:26:55.258,-219.0,-930.0,229.0,1.0,-1.0,0.0,152,129,134,133,138
2025-02-26 14:26:55.262,-218.0,-930.0,217.0,0.0,0.0,1.0,155,130,135,135,140
2025-02-26 14:26:55.270,-225.0,-938.0,203.0,0.0,0.0,0.0,151,128,132,133,137
2025-02-26 14:26:55.274,-224.0,-949.0,219.0,1.0,0.0,0.0,154,130,133,136,138
2025-02-26 14:26:55.279,-221.0,-960.0,230.0,2.0,-1.0,1.0,152,128,134,134,138
2025-02-26 14:26:55.283,-219.0,-948.0,273.0,-1.0,0.0,0.0,153,128,134,134,139
2025-02-26 14:26:55.291,-222.0,-948.0,248.0,1.0,7.0,-1.0,153,131,135,135,138
2025-02-26 14:26:55.294,-220.0,-956.0,185.0,-6.0,3.0,-1.0,154,129,134,134,138
2025-02-26 14:26:55.299,-220.0,-938.0,196.0,0.0,1.0,-2.0,154,129,131,129,136
2025-02-26 14:26:55.303,-229.0,-954.0,223.0,5.0,2.0,-3.0,153,128,134,135,140
2025-02-26 14:26:55.307,-216.0,-939.0,201.0,0.0,0.0,-3.0,155,130,134,134,139
2025-02-26 14:26:55.316,-223.0,-938.0,213.0,1.0,3.0,-5.0,152,129,133,132,140
2025-02-26 14:26:55.320,-225.0,-935.0,210.0,6.0,2.0,-5.0,152,132,132,131,136
2025-02-26 14:26:55.324,-239.0,-945.0,243.0,5.0,3.0,-5.0,154,130,136,136,140
2025-02-26 14:26:55.328,-232.0,-952.0,204.0,0.0,3.0,-6.0,153,130,135,136,140
2025-02-26 14:26:55.336,-228.0,-937.0,206.0,1.0,4.0,-6.0,152,127,134,132,137
2025-02-26 14:26:55.340,-232.0,-943.0,200.0,6.0,0.0,-6.0,151,127,132,129,137
2025-02-26 14:26:55.345,-230.0,-962.0,227.0,0.0,1.0,-5.0,156,131,136,135,138
2025-02-26 14:26:55.349,-218.0,-942.0,198.0,-1.0,0.0,-5.0,153,130,134,134,139
2025-02-26 14:26:55.357,-229.0,-961.0,190.0,0.0,-3.0,-4.0,151,126,132,134,139
2025-02-26 14:26:55.361,-232.0,-962.0,227.0,-1.0,-1.0,-3.0,153,128,135,136,139
2025-02-26 14:26:55.365,-215.0,-968.0,202.0,-2.0,-2.0,-3.0,148,130,135,131,139
2025-02-26 14:26:55.369,-221.0,-970.0,206.0,-4.0,-1.0,-3.0,153,129,134,134,139
2025-02-26 14:26:55.377,-227.0,-980.0,202.0,0.0,-2.0,-3.0,150,128,134,135,137
2025-02-26 14:26:55.381,-231.0,-985.0,240.0,-1.0,0.0,-3.0,151,128,132,133,137
2025-02-26 14:26:55.385,-211.0,-977.0,215.0,-1.0,2.0,-4.0,154,126,134,135,139
2025-02-26 14:26:55.389,-232.0,-998.0,164.0,1.0,-4.0,-3.0,153,129,132,134,139
2025-02-26 14:26:55.397,-242.0,-990.0,247.0,-3.0,-1.0,-4.0,152,120,132,133,136
2025-02-26 14:26:55.402,-224.0,-970.0,209.0,3.0,0.0,-4.0,154,128,133,133,138
2025-02-26 14:26:55.403,-239.0,-1009.0,194.0,-1.0,-3.0,-3.0,154,129,135,136,140
2025-02-26 14:26:55.414,-222.0,-979.0,228.0,0.0,0.0,-4.0,153,129,132,133,138
2025-02-26 14:26:55.418,-235.0,-993.0,221.0,3.0,0.0,-3.0,151,126,132,134,138
2025-02-26 14:26:55.422,-234.0,-993.0,226.0,1.0,-1.0,-4.0,153,128,134,133,139
2025-02-26 14:26:55.426,-215.0,-983.0,223.0,3.0,-1.0,-5.0,153,131,136,135,139
2025-02-26 14:26:55.434,-211.0,-990.0,220.0,3.0,-1.0,-6.0,152,127,133,132,138
2025-02-26 14:26:55.438,-203.0,-983.0,237.0,1.0,0.0,-6.0,153,130,134,132,136
2025-02-26 14:26:55.443,-198.0,-979.0,231.0,2.0,1.0,-6.0,156,133,137,135,142
2025-02-26 14:26:55.445,-196.0,-974.0,222.0,1.0,2.0,-7.0,153,130,135,137,139
2025-02-26 14:26:55.451,-196.0,-961.0,235.0,1.0,3.0,-7.0,152,128,134,131,137
2025-02-26 14:26:55.459,-193.0,-967.0,226.0,1.0,4.0,-6.0,154,128,134,133,137
2025-02-26 14:26:55.463,-196.0,-976.0,229.0,0.0,6.0,-6.0,155,132,135,135,141
2025-02-26 14:26:55.467,-202.0,-973.0,216.0,1.0,5.0,-4.0,151,128,133,133,140
2025-02-26 14:26:55.471,-203.0,-968.0,229.0,0.0,5.0,-4.0,153,128,133,133,137
2025-02-26 14:26:55.479,-198.0,-964.0,227.0,1.0,6.0,-3.0,154,130,136,134,138
2025-02-26 14:26:55.483,-207.0,-970.0,212.0,1.0,5.0,-2.0,155,131,137,136,141
2025-02-26 14:26:55.488,-207.0,-972.0,223.0,0.0,5.0,-1.0,153,127,134,135,139
2025-02-26 14:26:55.492,-202.0,-967.0,208.0,0.0,4.0,-1.0,153,129,134,134,139
2025-02-26 14:26:55.500,-217.0,-972.0,198.0,-2.0,2.0,-1.0,154,130,134,134,138
2025-02-26 14:26:55.504,-207.0,-960.0,196.0,-3.0,1.0,-1.0,154,131,136,136,140
2025-02-26 14:26:55.509,-202.0,-970.0,203.0,-4.0,1.0,0.0,152,128,133,133,138
2025-02-26 14:26:55.513,-207.0,-969.0,206.0,-5.0,1.0,0.0,154,129,136,135,140
2025-02-26 14:26:55.517,-208.0,-974.0,198.0,-5.0,0.0,0.0,155,129,136,134,138
