timestamp,ax,ay,az,gx,gy,gz,flex1,flex2,flex3,flex4,flex5,emg1,emg2,emg3
2025-02-26 14:24:54.756,-221.0,-792.0,592.0,0.0,-1.0,0.0,139,106,113,109,101
2025-02-26 14:24:54.761,-218.0,-793.0,594.0,0.0,-1.0,0.0,140,107,112,109,100
2025-02-26 14:24:54.764,-215.0,-789.0,591.0,0.0,-1.0,0.0,140,107,112,108,102
2025-02-26 14:24:54.766,-223.0,-788.0,594.0,0.0,-1.0,-1.0,139,106,114,108,100
2025-02-26 14:24:54.768,-220.0,-789.0,591.0,0.0,-1.0,-1.0,141,109,114,109,102
2025-02-26 14:24:54.771,-221.0,-792.0,604.0,0.0,0.0,-1.0,140,107,112,108,101
2025-02-26 14:24:54.773,-222.0,-786.0,592.0,0.0,-1.0,-1.0,140,106,111,107,100
2025-02-26 14:24:54.776,-225.0,-787.0,596.0,0.0,0.0,-1.0,140,108,113,107,101
2025-02-26 14:24:54.778,-223.0,-792.0,597.0,0.0,-1.0,-1.0,140,107,115,109,101
2025-02-26 14:24:54.778,-225.0,-793.0,598.0,0.0,-1.0,-2.0,139,106,114,108,99
2025-02-26 14:24:54.784,-221.0,-797.0,599.0,0.0,-1.0,-2.0,139,106,113,109,101
2025-02-26 14:24:54.785,-220.0,-793.0,600.0,0.0,-1.0,-2.0,139,106,113,109,101
2025-02-26 14:24:54.788,-218.0,-801.0,602.0,0.0,-1.0,-1.0,138,107,113,107,101
2025-02-26 14:24:54.790,-222.0,-800.0,598.0,-1.0,-1.0,-1.0,141,105,113,109,101
2025-02-26 14:24:54.790,-222.0,-804.0,602.0,-1.0,-1.0,-1.0,139,107,111,108,101
2025-02-26 14:24:54.796,-221.0,-801.0,604.0,-1.0,-2.0,-1.0,141,106,111,109,100
2025-02-26 14:24:54.799,-219.0,-803.0,605.0,-1.0,-2.0,-1.0,141,107,113,108,101
2025-02-26 14:24:54.800,-216.0,-803.0,601.0,-1.0,-1.0,-1.0,140,106,113,109,101
2025-02-26 14:24:54.802,-214.0,-805.0,603.0,-2.0,-1.0,-1.0,141,106,112,108,101
2025-02-26 14:24:54.802,-217.0,-802.0,602.0,-2.0,-1.0,0.0,140,107,112,109,101
2025-02-26 14:24:54.802,-219.0,-803.0,601.0,-3.0,-1.0,0.0,139,107,114,110,100
2025-02-26 14:24:54.809,-219.0,-797.0,602.0,-3.0,-1.0,0.0,140,105,110,108,100
2025-02-26 14:24:54.811,-219.0,-800.0,600.0,-3.0,-1.0,-1.0,140,107,113,109,102
2025-02-26 14:24:54.814,-221.0,-793.0,598.0,-3.0,-1.0,-1.0,139,106,113,108,100
2025-02-26 14:24:54.816,-218.0,-792.0,592.0,-3.0,0.0,-1.0,140,106,111,109,100
2025-02-26 14:24:54.816,-219.0,-791.0,595.0,-3.0,-1.0,-1.0,139,104,113,108,101
2025-02-26 14:24:54.821,-220.0,-794.0,597.0,-3.0,0.0,-1.0,140,107,113,108,101
2025-02-26 14:24:54.823,-219.0,-796.0,595.0,-3.0,0.0,-1.0,139,107,113,108,100
2025-02-26 14:24:54.826,-221.0,-795.0,597.0,-3.0,0.0,-1.0,139,106,113,108,100
2025-02-26 14:24:54.826,-219.0,-798.0,593.0,-2.0,0.0,-1.0,140,107,114,110,101
2025-02-26 14:24:54.837,-222.0,-800.0,594.0,-2.0,0.0,-2.0,141,108,114,108,100
2025-02-26 14:24:54.838,-222.0,-799.0,595.0,-2.0,0.0,-2.0,139,105,112,108,101
2025-02-26 14:24:54.850,-223.0,-803.0,593.0,-1.0,0.0,-2.0,139,106,111,107,101
2025-02-26 14:24:54.850,-224.0,-807.0,593.0,-1.0,0.0,-2.0,141,108,113,109,101
2025-02-26 14:24:54.850,-221.0,-808.0,591.0,-1.0,0.0,-1.0,139,106,113,107,101
2025-02-26 14:24:54.862,-218.0,-809.0,598.0,-1.0,0.0,-1.0,139,106,112,107,102
2025-02-26 14:24:54.863,-219.0,-810.0,595.0,-1.0,-1.0,-1.0,140,108,113,108,101
2025-02-26 14:24:54.874,-217.0,-807.0,597.0,-1.0,-1.0,-1.0,140,107,112,108,101
2025-02-26 14:24:54.879,-217.0,-812.0,593.0,-1.0,-1.0,-1.0,139,106,112,108,100
2025-02-26 14:24:54.886,-217.0,-813.0,598.0,-1.0,-1.0,-1.0,139,107,112,108,100
2025-02-26 14:24:54.887,-215.0,-809.0,593.0,-1.0,-1.0,0.0,140,107,112,109,101
2025-02-26 14:24:54.895,-216.0,-806.0,594.0,-1.0,-1.0,-1.0,140,107,112,108,101
2025-02-26 14:24:54.905,-218.0,-802.0,590.0,-1.0,-1.0,0.0,139,107,113,110,101
2025-02-26 14:24:54.908,-218.0,-801.0,593.0,-1.0,0.0,-1.0,139,107,113,109,101
2025-02-26 14:24:54.911,-218.0,-798.0,595.0,0.0,0.0,0.0,140,107,112,109,101
2025-02-26 14:24:54.915,-218.0,-795.0,596.0,0.0,-1.0,0.0,139,107,113,108,101
2025-02-26 14:24:54.920,-218.0,-793.0,597.0,-1.0,-1.0,0.0,140,107,114,106,100
2025-02-26 14:24:54.926,-215.0,-796.0,595.0,0.0,-1.0,-1.0,139,106,111,108,102
2025-02-26 14:24:54.931,-219.0,-789.0,595.0,0.0,-1.0,-1.0,141,108,113,108,100
2025-02-26 14:24:54.936,-222.0,-791.0,594.0,-1.0,-1.0,-1.0,141,107,113,107,101
2025-02-26 14:24:54.940,-220.0,-794.0,594.0,-1.0,-1.0,-1.0,139,106,113,108,101
2025-02-26 14:24:54.948,-221.0,-790.0,596.0,-1.0,-1.0,-1.0,139,107,112,109,100
2025-02-26 14:24:54.952,-224.0,-794.0,595.0,-1.0,-1.0,-1.0,143,106,112,106,100
2025-02-26 14:24:54.956,-221.0,-799.0,597.0,-1.0,-1.0,-1.0,139,107,111,108,101
2025-02-26 14:24:54.960,-220.0,-801.0,599.0,-1.0,-1.0,-1.0,139,106,112,108,102
2025-02-26 14:24:54.968,-222.0,-799.0,603.0,-1.0,-1.0,-1.0,139,106,112,106,100
2025-02-26 14:24:54.972,-223.0,-800.0,600.0,-1.0,-1.0,-1.0,139,106,112,107,101
2025-02-26 14:24:54.976,-219.0,-802.0,597.0,-1.0,-1.0,-1.0,140,108,113,109,101
2025-02-26 14:24:54.984,-221.0,-805.0,603.0,-2.0,-1.0,-1.0,137,107,113,108,101
2025-02-26 14:24:54.986,-218.0,-806.0,598.0,-2.0,-1.0,-1.0,140,107,112,108,101
2025-02-26 14:24:54.993,-216.0,-802.0,597.0,-2.0,-1.0,-1.0,139,107,112,108,102
2025-02-26 14:24:54.996,-220.0,-803.0,593.0,-2.0,-1.0,-1.0,139,107,112,108,101
2025-02-26 14:24:55.005,-221.0,-798.0,596.0,-2.0,-1.0,-1.0,139,107,113,108,101
2025-02-26 14:24:55.006,-222.0,-803.0,598.0,-2.0,-1.0,-1.0,141,107,114,108,103
2025-02-26 14:24:55.013,-222.0,-802.0,596.0,-2.0,-1.0,-1.0,140,106,112,108,100
2025-02-26 14:24:55.021,-225.0,-800.0,601.0,-2.0,-1.0,-1.0,140,106,113,108,100
2025-02-26 14:24:55.022,-217.0,-803.0,598.0,-2.0,-1.0,-1.0,140,106,113,109,101
2025-02-26 14:24:55.022,-216.0,-801.0,596.0,-2.0,-1.0,-1.0,141,108,113,108,101
2025-02-26 14:24:55.034,-213.0,-802.0,595.0,-2.0,-1.0,-1.0,139,106,113,109,100
2025-02-26 14:24:55.042,-215.0,-806.0,601.0,-2.0,-1.0,-1.0,139,106,111,107,101
2025-02-26 14:24:55.046,-216.0,-803.0,602.0,-1.0,-1.0,-1.0,140,106,111,108,101
2025-02-26 14:24:55.050,-214.0,-804.0,596.0,-1.0,-1.0,-1.0,140,106,113,109,102
2025-02-26 14:24:55.055,-213.0,-800.0,590.0,-1.0,0.0,-1.0,139,106,113,108,100
2025-02-26 14:24:55.062,-215.0,-798.0,590.0,-1.0,0.0,-1.0,140,107,113,108,100
2025-02-26 14:24:55.067,-216.0,-801.0,589.0,-1.0,0.0,-1.0,139,106,113,109,101
2025-02-26 14:24:55.070,-218.0,-802.0,592.0,-1.0,0.0,-1.0,140,106,113,109,101
2025-02-26 14:24:55.075,-220.0,-801.0,593.0,-1.0,-1.0,-1.0,140,107,112,108,102
2025-02-26 14:24:55.082,-221.0,-805.0,593.0,-1.0,0.0,-1.0,139,106,112,108,101
2025-02-26 14:24:55.087,-216.0,-803.0,594.0,0.0,-1.0,-1.0,140,106,112,109,102
2025-02-26 14:24:55.091,-216.0,-799.0,592.0,0.0,-1.0,-1.0,140,107,113,108,101
2025-02-26 14:24:55.099,-219.0,-798.0,592.0,-1.0,0.0,-1.0,139,106,113,107,100
2025-02-26 14:24:55.100,-225.0,-801.0,596.0,0.0,-1.0,-1.0,143,106,111,111,99
2025-02-26 14:24:55.108,-226.0,-807.0,598.0,-1.0,-1.0,-1.0,140,108,113,109,101
2025-02-26 14:24:55.112,-220.0,-803.0,601.0,-1.0,-1.0,-1.0,139,106,111,108,100
2025-02-26 14:24:55.119,-220.0,-800.0,600.0,-1.0,-1.0,-1.0,140,106,112,107,101
2025-02-26 14:24:55.124,-216.0,-797.0,603.0,-1.0,-1.0,-1.0,140,106,111,107,100
2025-02-26 14:24:55.128,-217.0,-803.0,601.0,-1.0,-1.0,-1.0,140,107,113,108,101
2025-02-26 14:24:55.132,-211.0,-805.0,600.0,-1.0,-1.0,0.0,141,107,113,109,102
2025-02-26 14:24:55.140,-221.0,-797.0,601.0,-1.0,-1.0,-1.0,138,107,112,108,100
2025-02-26 14:24:55.143,-218.0,-799.0,601.0,-1.0,-1.0,-1.0,138,106,113,109,101
2025-02-26 14:24:55.148,-216.0,-803.0,599.0,-2.0,0.0,-1.0,142,107,114,109,102
2025-02-26 14:24:55.153,-215.0,-799.0,596.0,-2.0,0.0,-1.0,139,107,113,109,101
2025-02-26 14:24:55.161,-219.0,-799.0,595.0,-2.0,0.0,-1.0,139,106,112,107,100
2025-02-26 14:24:55.161,-221.0,-794.0,598.0,-2.0,-1.0,-1.0,140,107,113,108,100
2025-02-26 14:24:55.166,-220.0,-797.0,593.0,-2.0,-1.0,-1.0,141,108,114,110,102
2025-02-26 14:24:55.177,-220.0,-799.0,593.0,-2.0,0.0,-1.0,141,107,113,108,101
2025-02-26 14:24:55.179,-222.0,-795.0,588.0,-2.0,0.0,-1.0,139,107,113,108,99
2025-02-26 14:24:55.185,-222.0,-797.0,596.0,-2.0,-1.0,-1.0,139,106,113,109,101
2025-02-26 14:24:55.190,-228.0,-799.0,588.0,-1.0,-1.0,-1.0,140,107,113,109,101
2025-02-26 14:24:55.197,-225.0,-798.0,589.0,-1.0,-1.0,-1.0,140,108,112,107,101
2025-02-26 14:24:55.202,-223.0,-796.0,593.0,-1.0,-1.0,-1.0,139,106,113,108,100
2025-02-26 14:24:55.206,-226.0,-793.0,594.0,-1.0,-1.0,-1.0,139,107,112,108,100
2025-02-26 14:24:55.209,-223.0,-798.0,593.0,-1.0,-1.0,-1.0,140,107,113,108,101
2025-02-26 14:24:55.217,-220.0,-797.0,592.0,-1.0,-1.0,-1.0,141,107,112,108,101
2025-02-26 14:24:55.221,-227.0,-795.0,594.0,-1.0,-2.0,-1.0,140,107,112,108,101
2025-02-26 14:24:55.227,-226.0,-805.0,595.0,-1.0,-2.0,-1.0,139,106,112,109,101
2025-02-26 14:24:55.234,-224.0,-802.0,599.0,-1.0,-2.0,-2.0,139,107,111,107,101
2025-02-26 14:24:55.238,-216.0,-806.0,599.0,-1.0,-2.0,-1.0,141,107,112,108,102
2025-02-26 14:24:55.243,-217.0,-809.0,601.0,-1.0,-1.0,-1.0,141,106,111,108,101
2025-02-26 14:24:55.245,-216.0,-806.0,602.0,-1.0,-1.0,-1.0,139,107,112,107,100
2025-02-26 14:24:55.255,-217.0,-811.0,603.0,-1.0,-1.0,-1.0,140,106,113,109,100
2025-02-26 14:24:55.257,-214.0,-812.0,601.0,-1.0,-1.0,-1.0,139,106,113,109,102
2025-02-26 14:24:55.263,-212.0,-805.0,602.0,-1.0,-1.0,-1.0,140,108,113,108,102
2025-02-26 14:24:55.267,-211.0,-804.0,597.0,-2.0,-1.0,-1.0,139,107,114,109,102
2025-02-26 14:24:55.275,-215.0,-807.0,598.0,-2.0,0.0,0.0,139,106,112,108,101
2025-02-26 14:24:55.276,-213.0,-809.0,596.0,-2.0,-1.0,-1.0,140,107,113,109,101
2025-02-26 14:24:55.284,-216.0,-803.0,595.0,-2.0,-1.0,0.0,141,106,112,110,102
2025-02-26 14:24:55.288,-218.0,-803.0,592.0,-2.0,-1.0,0.0,141,107,116,110,102
2025-02-26 14:24:55.296,-217.0,-810.0,593.0,-2.0,-1.0,0.0,139,106,112,108,102
2025-02-26 14:24:55.300,-217.0,-808.0,591.0,-2.0,-1.0,0.0,141,107,113,108,100
2025-02-26 14:24:55.304,-215.0,-807.0,593.0,-1.0,-2.0,0.0,140,106,113,108,100
2025-02-26 14:24:55.308,-211.0,-800.0,589.0,-1.0,-1.0,0.0,139,107,111,108,101
2025-02-26 14:24:55.316,-217.0,-801.0,591.0,-2.0,-1.0,0.0,140,105,112,108,100
2025-02-26 14:24:55.318,-220.0,-803.0,594.0,-2.0,-2.0,0.0,138,107,112,109,101
2025-02-26 14:24:55.325,-215.0,-798.0,592.0,-2.0,-2.0,0.0,140,107,108,109,100
2025-02-26 14:24:55.333,-215.0,-805.0,595.0,-2.0,-2.0,0.0,141,106,111,107,101
2025-02-26 14:24:55.336,-219.0,-809.0,595.0,-2.0,-3.0,0.0,140,106,112,108,101
2025-02-26 14:24:55.341,-223.0,-810.0,599.0,-2.0,-3.0,0.0,140,107,112,108,102
2025-02-26 14:24:55.345,-214.0,-812.0,603.0,-2.0,-3.0,0.0,140,107,112,108,101
2025-02-26 14:24:55.353,-227.0,-808.0,603.0,-2.0,-3.0,0.0,139,106,112,109,101
2025-02-26 14:24:55.355,-210.0,-813.0,603.0,-2.0,-4.0,0.0,140,107,112,109,101
2025-02-26 14:24:55.361,-218.0,-806.0,602.0,-3.0,-3.0,0.0,139,107,114,108,101
2025-02-26 14:24:55.365,-215.0,-811.0,607.0,-3.0,-3.0,0.0,140,107,113,108,101
2025-02-26 14:24:55.373,-214.0,-807.0,609.0,-3.0,-3.0,0.0,136,107,113,105,101
2025-02-26 14:24:55.378,-217.0,-806.0,611.0,-4.0,-3.0,1.0,141,108,113,107,102
2025-02-26 14:24:55.382,-213.0,-804.0,604.0,-4.0,-3.0,1.0,138,106,112,108,101
2025-02-26 14:24:55.384,-217.0,-806.0,609.0,-5.0,-3.0,1.0,139,106,112,108,101
2025-02-26 14:24:55.394,-217.0,-801.0,614.0,-6.0,-3.0,0.0,139,106,114,108,100
2025-02-26 14:24:55.397,-225.0,-806.0,614.0,-7.0,-3.0,0.0,138,105,112,109,102
2025-02-26 14:24:55.403,-218.0,-803.0,616.0,-7.0,-4.0,-1.0,142,107,114,108,101
2025-02-26 14:24:55.407,-220.0,-810.0,617.0,-8.0,-5.0,0.0,140,106,113,108,101
2025-02-26 14:24:55.414,-228.0,-797.0,615.0,-8.0,-5.0,-1.0,140,107,113,109,101
2025-02-26 14:24:55.417,-209.0,-802.0,618.0,-9.0,-5.0,-1.0,142,107,113,109,102
2025-02-26 14:24:55.423,-212.0,-805.0,616.0,-10.0,-6.0,-1.0,140,109,110,108,102
2025-02-26 14:24:55.427,-211.0,-808.0,620.0,-10.0,-7.0,-1.0,140,108,113,108,102
2025-02-26 14:24:55.435,-216.0,-811.0,619.0,-10.0,-7.0,-2.0,140,106,112,108,101
2025-02-26 14:24:55.439,-218.0,-802.0,621.0,-11.0,-9.0,-2.0,141,105,111,108,100
2025-02-26 14:24:55.444,-243.0,-816.0,622.0,-13.0,-9.0,-3.0,140,107,113,108,102
2025-02-26 14:24:55.451,-204.0,-827.0,612.0,-15.0,-11.0,-6.0,142,108,114,109,103
2025-02-26 14:24:55.456,-256.0,-837.0,627.0,-17.0,-13.0,-8.0,140,107,111,109,102
2025-02-26 14:24:55.462,-224.0,-824.0,614.0,-19.0,-14.0,-9.0,140,107,113,109,102
2025-02-26 14:24:55.464,-223.0,-860.0,597.0,-24.0,-19.0,-9.0,140,106,112,108,103
2025-02-26 14:24:55.470,-206.0,-851.0,655.0,-25.0,-21.0,-9.0,140,108,113,109,103
2025-02-26 14:24:55.475,-174.0,-856.0,579.0,-33.0,-29.0,-10.0,141,108,113,110,103
2025-02-26 14:24:55.481,-138.0,-823.0,608.0,-37.0,-33.0,-10.0,141,107,114,111,103
2025-02-26 14:24:55.488,-153.0,-842.0,584.0,-39.0,-35.0,-8.0,141,108,112,110,103
2025-02-26 14:24:55.493,-150.0,-888.0,615.0,-48.0,-37.0,-6.0,139,107,112,108,104
2025-02-26 14:24:55.500,-140.0,-886.0,634.0,-53.0,-43.0,-3.0,138,106,113,108,105
2025-02-26 14:24:55.505,-171.0,-879.0,670.0,-56.0,-50.0,-1.0,140,108,113,109,107
2025-02-26 14:24:55.506,-185.0,-904.0,672.0,-59.0,-51.0,2.0,141,109,114,110,105
2025-02-26 14:24:55.517,-196.0,-907.0,675.0,-60.0,-51.0,4.0,140,109,112,110,106
2025-02-26 14:24:55.521,-220.0,-924.0,671.0,-60.0,-51.0,7.0,140,107,112,109,105
2025-02-26 14:24:55.526,-227.0,-941.0,690.0,-62.0,-51.0,8.0,139,107,112,109,105
2025-02-26 14:24:55.530,-206.0,-947.0,682.0,-60.0,-51.0,8.0,139,108,113,111,106
2025-02-26 14:24:55.537,-198.0,-971.0,696.0,-63.0,-55.0,9.0,140,109,113,110,107
2025-02-26 14:24:55.541,-189.0,-962.0,700.0,-62.0,-57.0,11.0,141,109,113,110,106
2025-02-26 14:24:55.547,-160.0,-975.0,695.0,-64.0,-57.0,12.0,141,108,112,110,109
2025-02-26 14:24:55.553,-160.0,-947.0,678.0,-64.0,-57.0,12.0,140,108,113,113,109
2025-02-26 14:24:55.558,-139.0,-953.0,674.0,-62.0,-58.0,12.0,140,109,113,110,108
2025-02-26 14:24:55.562,-144.0,-935.0,688.0,-61.0,-58.0,14.0,140,108,112,111,109
2025-02-26 14:24:55.567,-130.0,-924.0,700.0,-63.0,-57.0,14.0,140,108,114,111,109
2025-02-26 14:24:55.574,-125.0,-931.0,693.0,-63.0,-56.0,13.0,141,108,114,112,110
2025-02-26 14:24:55.579,-135.0,-950.0,694.0,-64.0,-53.0,14.0,140,108,113,110,110
2025-02-26 14:24:55.587,-151.0,-983.0,671.0,-66.0,-52.0,14.0,140,107,114,111,109
2025-02-26 14:24:55.591,-169.0,-1008.0,703.0,-67.0,-52.0,15.0,141,108,114,111,110
2025-02-26 14:24:55.595,-164.0,-1001.0,699.0,-71.0,-47.0,14.0,140,109,113,112,111
2025-02-26 14:24:55.603,-188.0,-1056.0,686.0,-71.0,-45.0,15.0,140,108,114,113,112
2025-02-26 14:24:55.607,-191.0,-1070.0,737.0,-73.0,-40.0,15.0,141,109,113,111,112
2025-02-26 14:24:55.612,-190.0,-1082.0,729.0,-67.0,-34.0,16.0,140,109,114,112,113
2025-02-26 14:24:55.619,-204.0,-1108.0,721.0,-65.0,-30.0,17.0,140,108,115,112,112
2025-02-26 14:24:55.624,-211.0,-1100.0,704.0,-63.0,-24.0,18.0,140,108,114,112,112
2025-02-26 14:24:55.628,-216.0,-1106.0,691.0,-60.0,-18.0,19.0,140,108,114,112,113
2025-02-26 14:24:55.636,-208.0,-1114.0,660.0,-62.0,-17.0,20.0,141,109,115,112,115
2025-02-26 14:24:55.640,-177.0,-1111.0,664.0,-59.0,-18.0,21.0,141,108,115,114,115
2025-02-26 14:24:55.645,-170.0,-1114.0,641.0,-59.0,-17.0,22.0,142,108,115,114,114
2025-02-26 14:24:55.652,-151.0,-1105.0,657.0,-59.0,-7.0,22.0,142,109,116,114,115
2025-02-26 14:24:55.656,-134.0,-1104.0,627.0,-53.0,-5.0,22.0,140,108,117,114,114
2025-02-26 14:24:55.659,-127.0,-1100.0,603.0,-55.0,3.0,21.0,140,109,115,113,114
2025-02-26 14:24:55.668,-136.0,-1079.0,627.0,-48.0,13.0,19.0,141,110,117,114,115
2025-02-26 14:24:55.672,-161.0,-1114.0,622.0,-46.0,19.0,19.0,141,110,117,115,117
2025-02-26 14:24:55.677,-146.0,-1129.0,633.0,-47.0,29.0,18.0,141,104,115,114,116
2025-02-26 14:24:55.684,-167.0,-1110.0,519.0,-52.0,29.0,19.0,141,108,116,115,115
2025-02-26 14:24:55.689,-173.0,-1128.0,617.0,-52.0,35.0,20.0,139,111,116,113,115
2025-02-26 14:24:55.694,-163.0,-1089.0,547.0,-45.0,40.0,20.0,139,111,117,115,115
2025-02-26 14:24:55.701,-175.0,-1065.0,560.0,-47.0,50.0,20.0,141,112,116,114,118
2025-02-26 14:24:55.706,-171.0,-1019.0,540.0,-48.0,63.0,20.0,142,112,117,114,117
2025-02-26 14:24:55.710,-153.0,-1012.0,452.0,-49.0,70.0,21.0,141,113,117,115,117
2025-02-26 14:24:55.714,-168.0,-981.0,391.0,-52.0,71.0,23.0,140,111,116,115,117
2025-02-26 14:24:55.722,-177.0,-984.0,384.0,-49.0,73.0,24.0,140,111,117,117,117
2025-02-26 14:24:55.725,-201.0,-966.0,401.0,-43.0,77.0,25.0,142,112,117,116,117
2025-02-26 14:24:55.731,-204.0,-950.0,396.0,-45.0,83.0,26.0,142,113,118,116,118
2025-02-26 14:24:55.738,-209.0,-918.0,398.0,-47.0,91.0,27.0,141,112,117,116,119
2025-02-26 14:24:55.742,-206.0,-898.0,385.0,-42.0,94.0,28.0,141,112,117,116,119
2025-02-26 14:24:55.747,-214.0,-871.0,294.0,-37.0,99.0,27.0,142,113,118,116,117
2025-02-26 14:24:55.754,-216.0,-877.0,186.0,-45.0,86.0,27.0,142,115,119,117,120
2025-02-26 14:24:55.759,-218.0,-868.0,166.0,-44.0,79.0,27.0,142,113,118,116,119
2025-02-26 14:24:55.762,-213.0,-845.0,250.0,-48.0,83.0,28.0,141,113,116,116,119
2025-02-26 14:24:55.767,-210.0,-789.0,186.0,-48.0,83.0,27.0,141,113,117,116,118
2025-02-26 14:24:55.775,-215.0,-802.0,159.0,-56.0,83.0,27.0,141,114,118,118,119
2025-02-26 14:24:55.779,-217.0,-771.0,172.0,-46.0,86.0,28.0,142,114,119,118,119
2025-02-26 14:24:55.784,-230.0,-735.0,150.0,-43.0,88.0,28.0,140,114,118,117,119
2025-02-26 14:24:55.791,-235.0,-726.0,149.0,-42.0,91.0,27.0,142,116,119,118,120
2025-02-26 14:24:55.796,-242.0,-702.0,146.0,-39.0,92.0,26.0,141,114,119,118,120
2025-02-26 14:24:55.799,-250.0,-701.0,105.0,-32.0,89.0,25.0,140,112,118,118,119
2025-02-26 14:24:55.805,-270.0,-702.0,75.0,-26.0,84.0,26.0,141,115,118,117,121
2025-02-26 14:24:55.812,-283.0,-682.0,68.0,-22.0,79.0,26.0,143,115,119,118,121
2025-02-26 14:24:55.816,-309.0,-660.0,75.0,-21.0,76.0,25.0,142,115,118,118,121
2025-02-26 14:24:55.821,-332.0,-646.0,89.0,-25.0,73.0,23.0,140,115,117,118,120
2025-02-26 14:24:55.828,-349.0,-598.0,262.0,5.0,86.0,23.0,142,116,119,119,122
2025-02-26 14:24:55.832,-426.0,-632.0,-395.0,95.0,31.0,22.0,141,116,119,118,122
2025-02-26 14:24:55.835,-450.0,-811.0,-14.0,37.0,14.0,16.0,141,116,118,117,121
2025-02-26 14:24:55.841,-487.0,-704.0,409.0,-61.0,21.0,25.0,140,115,117,117,120
2025-02-26 14:24:55.847,-325.0,-567.0,141.0,-80.0,15.0,21.0,141,115,117,118,126
2025-02-26 14:24:55.853,-356.0,-709.0,-13.0,-100.0,-30.0,18.0,139,117,119,117,121
2025-02-26 14:24:55.858,-337.0,-686.0,0.0,-112.0,-33.0,13.0,142,115,118,119,122
2025-02-26 14:24:55.865,-232.0,-544.0,31.0,-111.0,-21.0,6.0,141,115,118,119,122
2025-02-26 14:24:55.870,-312.0,-574.0,-127.0,-124.0,-22.0,1.0,142,115,119,118,120
2025-02-26 14:24:55.874,-364.0,-597.0,44.0,-107.0,-7.0,1.0,141,116,119,118,121
2025-02-26 14:24:55.882,-363.0,-625.0,-117.0,-129.0,-42.0,1.0,140,116,120,119,121
2025-02-26 14:24:55.886,-295.0,-757.0,-2.0,-152.0,-67.0,-1.0,140,115,120,120,121
2025-02-26 14:24:55.889,-260.0,-712.0,178.0,-188.0,-59.0,-1.0,142,116,122,120,122
2025-02-26 14:24:55.898,-174.0,-773.0,437.0,-219.0,-12.0,4.0,142,115,121,119,122
2025-02-26 14:24:55.899,-160.0,-734.0,340.0,-265.0,16.0,6.0,140,114,120,118,121
2025-02-26 14:24:55.907,-166.0,-634.0,88.0,-335.0,36.0,7.0,141,115,121,117,121
2025-02-26 14:24:55.911,-319.0,-497.0,-48.0,-253.0,30.0,-1.0,142,115,121,119,121
2025-02-26 14:24:55.918,-148.0,-735.0,43.0,-126.0,51.0,-3.0,142,115,121,118,122
2025-02-26 14:24:55.923,-247.0,-897.0,364.0,-124.0,84.0,4.0,141,113,121,117,122
2025-02-26 14:24:55.927,-260.0,-977.0,147.0,-86.0,80.0,0.0,141,115,122,119,120
2025-02-26 14:24:55.931,-324.0,-979.0,210.0,-9.0,52.0,-2.0,142,117,121,119,122
2025-02-26 14:24:55.939,-396.0,-1049.0,346.0,33.0,29.0,-4.0,141,116,123,119,122
2025-02-26 14:24:55.943,-234.0,-1147.0,80.0,56.0,17.0,-4.0,141,115,122,118,121
2025-02-26 14:24:55.951,-243.0,-1041.0,-63.0,56.0,10.0,-3.0,141,116,121,119,121
2025-02-26 14:24:55.956,-289.0,-1062.0,-4.0,29.0,10.0,2.0,141,116,122,119,121
2025-02-26 14:24:55.960,-269.0,-1073.0,152.0,59.0,28.0,1.0,141,116,122,120,122
2025-02-26 14:24:55.964,-109.0,-1037.0,136.0,64.0,45.0,5.0,141,116,122,121,123
2025-02-26 14:24:55.972,-252.0,-1047.0,94.0,65.0,55.0,13.0,143,118,123,121,123
2025-02-26 14:24:55.974,-330.0,-1040.0,259.0,69.0,71.0,23.0,140,117,121,119,121
2025-02-26 14:24:55.980,-305.0,-1017.0,120.0,77.0,82.0,27.0,141,117,119,119,122
2025-02-26 14:24:55.984,-325.0,-916.0,112.0,93.0,83.0,30.0,141,117,120,120,123
2025-02-26 14:24:55.992,-334.0,-977.0,-150.0,95.0,56.0,29.0,142,117,121,122,125
2025-02-26 14:24:55.996,-373.0,-1003.0,-88.0,66.0,32.0,29.0,141,118,121,119,123
2025-02-26 14:24:56.001,-397.0,-954.0,129.0,57.0,27.0,28.0,140,115,120,120,122
2025-02-26 14:24:56.009,-382.0,-960.0,94.0,51.0,24.0,27.0,140,118,121,119,125
2025-02-26 14:24:56.012,-308.0,-904.0,80.0,43.0,15.0,25.0,141,117,121,121,125
2025-02-26 14:24:56.017,-381.0,-926.0,67.0,35.0,9.0,28.0,141,117,122,121,124
2025-02-26 14:24:56.022,-453.0,-873.0,172.0,13.0,13.0,32.0,140,116,117,119,123
2025-02-26 14:24:56.029,-371.0,-874.0,102.0,1.0,19.0,35.0,140,117,121,121,124
2025-02-26 14:24:56.034,-465.0,-848.0,138.0,-3.0,21.0,36.0,141,117,124,121,124
2025-02-26 14:24:56.038,-404.0,-842.0,29.0,-15.0,18.0,33.0,141,117,122,122,125
2025-02-26 14:24:56.042,-383.0,-845.0,48.0,-31.0,18.0,31.0,140,117,119,120,124
2025-02-26 14:24:56.049,-430.0,-851.0,-19.0,-45.0,9.0,27.0,141,117,122,121,123
2025-02-26 14:24:56.054,-394.0,-819.0,59.0,-66.0,4.0,21.0,140,115,122,122,125
2025-02-26 14:24:56.059,-364.0,-838.0,96.0,-80.0,4.0,15.0,140,118,120,120,124
2025-02-26 14:24:56.066,-404.0,-804.0,-23.0,-86.0,-4.0,13.0,138,117,121,120,123
2025-02-26 14:24:56.070,-473.0,-808.0,80.0,-63.0,-8.0,12.0,140,117,120,120,123
2025-02-26 14:24:56.075,-459.0,-857.0,56.0,-47.0,-18.0,10.0,140,118,121,121,125
2025-02-26 14:24:56.079,-463.0,-885.0,91.0,-42.0,-23.0,9.0,139,117,120,121,125
2025-02-26 14:24:56.086,-474.0,-923.0,83.0,-34.0,-23.0,9.0,140,117,121,121,123
2025-02-26 14:24:56.091,-440.0,-819.0,50.0,-24.0,-27.0,6.0,141,118,121,120,124
2025-02-26 14:24:56.095,-376.0,-828.0,81.0,-7.0,-27.0,5.0,141,118,121,122,126
2025-02-26 14:24:56.099,-437.0,-873.0,61.0,-12.0,-29.0,3.0,140,116,121,121,125
2025-02-26 14:24:56.107,-365.0,-847.0,78.0,-11.0,-31.0,0.0,139,117,121,121,123
2025-02-26 14:24:56.112,-364.0,-874.0,96.0,-12.0,-29.0,-1.0,140,117,121,122,125
2025-02-26 14:24:56.115,-379.0,-862.0,65.0,-17.0,-27.0,-2.0,141,118,122,120,124
2025-02-26 14:24:56.123,-370.0,-881.0,63.0,-15.0,-24.0,-2.0,140,119,121,121,124
2025-02-26 14:24:56.128,-382.0,-894.0,83.0,-14.0,-21.0,-2.0,140,117,122,121,125
2025-02-26 14:24:56.132,-377.0,-906.0,141.0,-19.0,-15.0,-1.0,140,118,123,121,124
2025-02-26 14:24:56.140,-347.0,-905.0,90.0,-21.0,-8.0,0.0,139,118,122,120,124
2025-02-26 14:24:56.144,-394.0,-908.0,122.0,-22.0,-8.0,1.0,138,117,122,121,124
2025-02-26 14:24:56.149,-377.0,-958.0,149.0,-22.0,-6.0,2.0,140,118,122,120,125
2025-02-26 14:24:56.152,-366.0,-949.0,99.0,-19.0,-8.0,2.0,141,118,122,121,125
2025-02-26 14:24:56.160,-377.0,-963.0,88.0,-19.0,-7.0,4.0,140,118,121,120,125
2025-02-26 14:24:56.164,-390.0,-960.0,88.0,-18.0,-4.0,5.0,140,117,122,123,126
2025-02-26 14:24:56.168,-387.0,-961.0,81.0,-5.0,-2.0,6.0,141,118,122,121,125
2025-02-26 14:24:56.173,-392.0,-974.0,79.0,1.0,0.0,7.0,141,118,122,121,124
2025-02-26 14:24:56.177,-396.0,-1002.0,102.0,8.0,2.0,7.0,140,118,120,121,124
2025-02-26 14:24:56.184,-395.0,-970.0,87.0,16.0,4.0,6.0,140,117,120,122,127
2025-02-26 14:24:56.187,-403.0,-957.0,41.0,18.0,2.0,5.0,141,119,121,121,124
2025-02-26 14:24:56.193,-406.0,-959.0,86.0,20.0,3.0,4.0,140,117,121,122,125
2025-02-26 14:24:56.198,-404.0,-962.0,100.0,25.0,2.0,2.0,142,118,119,120,124
2025-02-26 14:24:56.205,-375.0,-956.0,83.0,24.0,1.0,0.0,140,116,120,121,126
2025-02-26 14:24:56.209,-377.0,-951.0,73.0,19.0,2.0,-1.0,141,116,121,120,124
2025-02-26 14:24:56.213,-387.0,-953.0,94.0,13.0,5.0,-1.0,141,114,121,122,122
2025-02-26 14:24:56.218,-377.0,-968.0,87.0,10.0,5.0,-2.0,141,118,122,121,125
2025-02-26 14:24:56.223,-379.0,-968.0,110.0,10.0,4.0,-2.0,138,117,120,121,124
2025-02-26 14:24:56.229,-385.0,-983.0,104.0,5.0,7.0,-1.0,140,116,118,121,125
2025-02-26 14:24:56.234,-392.0,-985.0,106.0,3.0,8.0,-1.0,140,118,122,122,125
2025-02-26 14:24:56.238,-389.0,-987.0,104.0,4.0,10.0,-1.0,140,118,122,121,125
2025-02-26 14:24:56.243,-383.0,-994.0,93.0,4.0,11.0,-2.0,140,117,121,120,124
2025-02-26 14:24:56.251,-390.0,-1000.0,101.0,4.0,10.0,-2.0,140,118,120,121,124
2025-02-26 14:24:56.255,-383.0,-998.0,109.0,3.0,13.0,-2.0,141,118,122,122,125
2025-02-26 14:24:56.259,-371.0,-974.0,71.0,2.0,11.0,-2.0,141,117,121,121,125
2025-02-26 14:24:56.263,-364.0,-985.0,83.0,0.0,11.0,-2.0,140,117,121,119,124
2025-02-26 14:24:56.271,-392.0,-973.0,95.0,-3.0,11.0,-1.0,140,118,122,122,126
2025-02-26 14:24:56.277,-373.0,-978.0,73.0,-3.0,9.0,-1.0,140,117,121,122,126
2025-02-26 14:24:56.277,-377.0,-983.0,88.0,-4.0,9.0,0.0,139,116,119,122,125
2025-02-26 14:24:56.284,-370.0,-987.0,83.0,-5.0,8.0,0.0,140,117,121,121,125
2025-02-26 14:24:56.291,-379.0,-995.0,78.0,-5.0,7.0,1.0,143,120,120,121,126
2025-02-26 14:24:56.296,-380.0,-984.0,69.0,-4.0,6.0,2.0,141,118,121,122,125
2025-02-26 14:24:56.300,-372.0,-989.0,60.0,-6.0,5.0,3.0,140,115,121,122,125
2025-02-26 14:24:56.304,-374.0,-975.0,53.0,-6.0,3.0,3.0,140,117,123,121,125
2025-02-26 14:24:56.308,-372.0,-987.0,68.0,-6.0,3.0,5.0,141,118,122,122,124
2025-02-26 14:24:56.313,-376.0,-984.0,49.0,-9.0,3.0,5.0,140,116,121,120,124
2025-02-26 14:24:56.320,-361.0,-976.0,53.0,-14.0,2.0,6.0,141,118,122,121,126
2025-02-26 14:24:56.325,-375.0,-972.0,52.0,-15.0,3.0,8.0,141,118,120,121,125
2025-02-26 14:24:56.328,-362.0,-958.0,26.0,-17.0,0.0,8.0,141,117,121,121,125
2025-02-26 14:24:56.336,-355.0,-968.0,105.0,-19.0,3.0,9.0,140,117,121,122,126
2025-02-26 14:24:56.340,-355.0,-911.0,6.0,-19.0,-1.0,9.0,141,117,121,123,125
2025-02-26 14:24:56.344,-336.0,-943.0,31.0,-22.0,-4.0,10.0,140,117,121,122,124
2025-02-26 14:24:56.350,-383.0,-946.0,81.0,-13.0,-3.0,10.0,139,116,120,120,126
2025-02-26 14:24:56.356,-344.0,-926.0,27.0,-4.0,-5.0,8.0,141,117,121,121,126
2025-02-26 14:24:56.361,-378.0,-968.0,59.0,-4.0,-8.0,8.0,140,117,121,121,125
2025-02-26 14:24:56.366,-376.0,-938.0,83.0,3.0,-9.0,8.0,139,116,120,121,125
2025-02-26 14:24:56.369,-377.0,-939.0,68.0,8.0,-7.0,8.0,142,118,121,122,126
2025-02-26 14:24:56.374,-355.0,-908.0,59.0,11.0,-7.0,7.0,141,117,121,121,126
2025-02-26 14:24:56.381,-361.0,-927.0,74.0,12.0,-7.0,7.0,139,117,121,121,124
2025-02-26 14:24:56.386,-343.0,-906.0,106.0,11.0,-4.0,6.0,140,117,120,122,124
2025-02-26 14:24:56.390,-332.0,-885.0,83.0,14.0,0.0,6.0,140,117,121,123,127
2025-02-26 14:24:56.397,-318.0,-875.0,70.0,18.0,-3.0,6.0,140,117,121,123,125
2025-02-26 14:24:56.402,-324.0,-901.0,53.0,20.0,-4.0,8.0,140,117,119,120,124
2025-02-26 14:24:56.406,-350.0,-891.0,71.0,21.0,-5.0,8.0,139,116,121,122,126
2025-02-26 14:24:56.410,-330.0,-913.0,48.0,20.0,-9.0,10.0,141,117,122,122,125
2025-02-26 14:24:56.418,-374.0,-903.0,27.0,24.0,-12.0,13.0,139,116,121,122,124
2025-02-26 14:24:56.421,-373.0,-908.0,66.0,28.0,-10.0,14.0,140,116,119,120,125
2025-02-26 14:24:56.427,-346.0,-899.0,78.0,32.0,-8.0,14.0,141,116,120,121,125
2025-02-26 14:24:56.430,-368.0,-899.0,64.0,38.0,-6.0,15.0,142,117,120,121,125
2025-02-26 14:24:56.439,-375.0,-911.0,56.0,38.0,-10.0,14.0,140,116,119,120,125
2025-02-26 14:24:56.443,-392.0,-889.0,36.0,35.0,-15.0,15.0,140,116,120,120,124
2025-02-26 14:24:56.447,-384.0,-908.0,23.0,21.0,-15.0,15.0,140,116,120,120,125
2025-02-26 14:24:56.452,-393.0,-857.0,43.0,16.0,-19.0,15.0,140,117,121,123,125
2025-02-26 14:24:56.459,-384.0,-863.0,75.0,13.0,-19.0,14.0,140,116,120,120,125
2025-02-26 14:24:56.464,-396.0,-847.0,124.0,17.0,-18.0,14.0,141,119,120,120,124
2025-02-26 14:24:56.467,-385.0,-868.0,130.0,10.0,-15.0,13.0,140,116,118,121,124
2025-02-26 14:24:56.476,-381.0,-843.0,165.0,20.0,-15.0,10.0,142,118,121,122,125
2025-02-26 14:24:56.479,-388.0,-895.0,122.0,15.0,-10.0,9.0,141,117,120,122,125
2025-02-26 14:24:56.484,-372.0,-892.0,170.0,13.0,-4.0,8.0,140,116,119,122,124
2025-02-26 14:24:56.489,-378.0,-825.0,45.0,-2.0,-10.0,5.0,140,116,120,121,124
2025-02-26 14:24:56.496,-370.0,-850.0,72.0,-14.0,-19.0,3.0,141,117,120,122,125
2025-02-26 14:24:56.500,-374.0,-889.0,191.0,-26.0,-7.0,2.0,141,116,123,122,125
2025-02-26 14:24:56.504,-313.0,-766.0,-39.0,-27.0,-19.0,-2.0,140,116,121,120,124
2025-02-26 14:24:56.512,-353.0,-864.0,113.0,-30.0,-15.0,1.0,142,116,118,120,125
2025-02-26 14:24:56.516,-400.0,-848.0,144.0,-11.0,-2.0,1.0,141,116,118,121,126
2025-02-26 14:24:56.521,-359.0,-818.0,71.0,-1.0,-8.0,2.0,141,116,120,122,124
2025-02-26 14:24:56.526,-398.0,-873.0,134.0,3.0,-10.0,4.0,142,116,119,121,123
2025-02-26 14:24:56.533,-401.0,-866.0,152.0,8.0,-12.0,3.0,142,116,119,121,125
2025-02-26 14:24:56.536,-379.0,-871.0,133.0,11.0,-16.0,3.0,141,116,119,121,124
2025-02-26 14:24:56.541,-373.0,-884.0,115.0,9.0,-18.0,4.0,142,116,118,120,125
2025-02-26 14:24:56.546,-375.0,-889.0,130.0,5.0,-16.0,4.0,140,116,118,121,125
2025-02-26 14:24:56.553,-354.0,-878.0,121.0,-3.0,-15.0,4.0,141,116,118,121,124
2025-02-26 14:24:56.556,-348.0,-905.0,128.0,-8.0,-11.0,4.0,141,115,118,121,125
2025-02-26 14:24:56.562,-336.0,-916.0,130.0,-21.0,-10.0,3.0,142,116,118,120,124
2025-02-26 14:24:56.566,-349.0,-909.0,136.0,-23.0,-6.0,3.0,140,116,119,120,124
2025-02-26 14:24:56.574,-345.0,-911.0,98.0,-31.0,-7.0,3.0,141,118,118,120,124
2025-02-26 14:24:56.578,-355.0,-927.0,106.0,-40.0,-8.0,3.0,140,115,118,120,124
2025-02-26 14:24:56.582,-349.0,-908.0,148.0,-34.0,-11.0,1.0,142,115,118,122,124
2025-02-26 14:24:56.590,-351.0,-943.0,190.0,-28.0,-10.0,0.0,140,116,119,121,124
2025-02-26 14:24:56.592,-352.0,-937.0,169.0,-25.0,-10.0,-1.0,141,116,116,121,124
2025-02-26 14:24:56.598,-359.0,-942.0,166.0,-15.0,-7.0,-2.0,141,115,118,121,124
2025-02-26 14:24:56.603,-355.0,-946.0,173.0,1.0,-2.0,-1.0,141,115,118,120,123
2025-02-26 14:24:56.611,-351.0,-937.0,135.0,13.0,-2.0,0.0,141,116,118,122,125
2025-02-26 14:24:56.615,-349.0,-946.0,166.0,16.0,-1.0,3.0,142,114,118,121,124
2025-02-26 14:24:56.620,-362.0,-938.0,161.0,26.0,-3.0,6.0,141,115,119,120,124
2025-02-26 14:24:56.623,-366.0,-942.0,162.0,24.0,-3.0,9.0,139,115,121,120,126
2025-02-26 14:24:56.631,-382.0,-908.0,166.0,27.0,-2.0,12.0,143,118,119,121,125
2025-02-26 14:24:56.634,-406.0,-924.0,195.0,29.0,2.0,15.0,140,115,119,121,125
2025-02-26 14:24:56.639,-396.0,-936.0,172.0,20.0,1.0,17.0,140,115,119,121,124
2025-02-26 14:24:56.645,-407.0,-950.0,183.0,20.0,6.0,18.0,140,116,119,121,124
2025-02-26 14:24:56.652,-430.0,-951.0,179.0,14.0,10.0,18.0,143,116,119,123,125
2025-02-26 14:24:56.656,-429.0,-949.0,175.0,8.0,13.0,18.0,140,116,121,121,125
2025-02-26 14:24:56.660,-422.0,-933.0,164.0,6.0,12.0,17.0,140,116,119,120,123
2025-02-26 14:24:56.665,-445.0,-932.0,202.0,2.0,13.0,17.0,140,115,118,121,124
2025-02-26 14:24:56.672,-459.0,-909.0,147.0,9.0,12.0,15.0,141,115,119,123,125
2025-02-26 14:24:56.677,-465.0,-940.0,190.0,14.0,16.0,15.0,142,116,119,121,125
2025-02-26 14:24:56.681,-481.0,-926.0,123.0,20.0,14.0,14.0,142,115,117,121,123
2025-02-26 14:24:56.689,-473.0,-936.0,180.0,22.0,15.0,13.0,140,115,118,120,123
2025-02-26 14:24:56.693,-484.0,-930.0,157.0,32.0,14.0,12.0,141,115,118,124,125
2025-02-26 14:24:56.696,-472.0,-929.0,166.0,27.0,14.0,10.0,142,116,114,122,123
2025-02-26 14:24:56.702,-480.0,-916.0,139.0,23.0,12.0,9.0,142,115,115,120,123
2025-02-26 14:24:56.709,-499.0,-927.0,170.0,16.0,12.0,8.0,142,115,117,120,123
2025-02-26 14:24:56.712,-483.0,-910.0,171.0,9.0,12.0,8.0,145,115,118,121,125
2025-02-26 14:24:56.717,-485.0,-891.0,164.0,6.0,12.0,10.0,141,116,118,120,124
2025-02-26 14:24:56.721,-492.0,-889.0,185.0,-3.0,14.0,11.0,140,113,117,121,122
2025-02-26 14:24:56.729,-477.0,-877.0,176.0,-7.0,12.0,12.0,141,115,118,122,124
2025-02-26 14:24:56.733,-482.0,-903.0,194.0,-13.0,14.0,13.0,142,116,120,121,124
2025-02-26 14:24:56.739,-475.0,-889.0,166.0,-17.0,15.0,13.0,141,115,117,121,124
2025-02-26 14:24:56.746,-477.0,-901.0,187.0,-17.0,15.0,13.0,142,114,118,120,123
2025-02-26 14:24:56.750,-493.0,-925.0,189.0,-22.0,16.0,13.0,141,114,117,122,123
2025-02-26 14:24:56.754,-477.0,-914.0,124.0,-23.0,18.0,12.0,141,116,118,120,124
2025-02-26 14:24:56.762,-483.0,-919.0,136.0,-23.0,19.0,12.0,141,116,116,120,124
2025-02-26 14:24:56.766,-490.0,-941.0,160.0,-23.0,20.0,12.0,141,115,117,120,124
2025-02-26 14:24:56.767,-499.0,-939.0,118.0,-20.0,20.0,12.0,140,117,119,122,124
2025-02-26 14:24:56.775,-502.0,-947.0,160.0,-17.0,22.0,13.0,141,114,115,120,124
2025-02-26 14:24:56.783,-480.0,-936.0,101.0,-9.0,26.0,12.0,141,116,118,121,123
2025-02-26 14:24:56.787,-506.0,-933.0,40.0,0.0,15.0,11.0,141,115,117,121,123
2025-02-26 14:24:56.792,-555.0,-1008.0,124.0,-4.0,20.0,11.0,141,116,118,121,120
2025-02-26 14:24:56.797,-516.0,-898.0,66.0,-21.0,26.0,11.0,142,115,117,121,122
2025-02-26 14:24:56.803,-461.0,-858.0,75.0,-20.0,29.0,11.0,141,115,117,120,123
2025-02-26 14:24:56.808,-501.0,-926.0,122.0,-25.0,36.0,14.0,141,116,117,121,125
2025-02-26 14:24:56.812,-457.0,-886.0,95.0,-24.0,38.0,15.0,139,114,118,122,118
2025-02-26 14:24:56.820,-477.0,-924.0,40.0,-15.0,37.0,18.0,140,114,117,120,123
2025-02-26 14:24:56.823,-520.0,-931.0,56.0,-7.0,36.0,21.0,138,114,117,122,124
2025-02-26 14:24:56.828,-523.0,-906.0,65.0,4.0,35.0,23.0,141,114,117,120,125
2025-02-26 14:24:56.832,-511.0,-858.0,114.0,13.0,31.0,24.0,141,115,119,120,124
2025-02-26 14:24:56.840,-520.0,-874.0,186.0,18.0,29.0,21.0,141,114,117,121,124
2025-02-26 14:24:56.845,-501.0,-882.0,90.0,12.0,22.0,19.0,140,114,116,120,123
2025-02-26 14:24:56.849,-476.0,-880.0,95.0,3.0,23.0,17.0,143,114,117,120,124
2025-02-26 14:24:56.853,-485.0,-882.0,36.0,-4.0,26.0,16.0,141,114,119,122,124
2025-02-26 14:24:56.860,-484.0,-897.0,56.0,-5.0,27.0,16.0,142,115,117,122,124
2025-02-26 14:24:56.864,-490.0,-912.0,75.0,-4.0,29.0,17.0,142,115,115,120,123
2025-02-26 14:24:56.869,-488.0,-913.0,71.0,-8.0,29.0,16.0,141,114,117,119,124
2025-02-26 14:24:56.874,-502.0,-899.0,26.0,-8.0,24.0,16.0,142,115,117,121,123
2025-02-26 14:24:56.881,-504.0,-929.0,77.0,-10.0,22.0,16.0,140,113,115,120,124
2025-02-26 14:24:56.883,-509.0,-922.0,73.0,-9.0,20.0,16.0,140,113,116,120,123
2025-02-26 14:24:56.887,-485.0,-909.0,77.0,-9.0,20.0,16.0,142,115,116,120,124
2025-02-26 14:24:56.897,-485.0,-898.0,59.0,-12.0,20.0,16.0,142,115,117,121,124
2025-02-26 14:24:56.902,-481.0,-877.0,60.0,-15.0,19.0,16.0,140,114,115,122,123
2025-02-26 14:24:56.905,-484.0,-886.0,51.0,-20.0,18.0,16.0,140,113,115,120,123
2025-02-26 14:24:56.907,-472.0,-875.0,62.0,-24.0,17.0,15.0,142,115,117,122,124
2025-02-26 14:24:56.917,-463.0,-875.0,68.0,-25.0,17.0,16.0,141,115,116,120,124
2025-02-26 14:24:56.919,-466.0,-872.0,52.0,-25.0,16.0,16.0,141,113,115,121,123
2025-02-26 14:24:56.927,-462.0,-870.0,80.0,-28.0,14.0,16.0,144,114,114,122,124
2025-02-26 14:24:56.931,-470.0,-877.0,63.0,-29.0,14.0,16.0,141,115,115,122,125
2025-02-26 14:24:56.939,-467.0,-882.0,56.0,-33.0,12.0,16.0,141,115,116,121,125
2025-02-26 14:24:56.943,-475.0,-894.0,70.0,-33.0,13.0,17.0,140,114,115,121,124
2025-02-26 14:24:56.943,-475.0,-904.0,49.0,-36.0,13.0,17.0,140,114,115,121,124
2025-02-26 14:24:56.955,-463.0,-894.0,61.0,-39.0,13.0,17.0,142,114,116,122,124
2025-02-26 14:24:56.959,-469.0,-898.0,51.0,-42.0,12.0,17.0,140,115,115,121,124
2025-02-26 14:24:56.962,-468.0,-898.0,51.0,-43.0,11.0,16.0,142,114,112,122,123
2025-02-26 14:24:56.968,-470.0,-902.0,66.0,-44.0,12.0,17.0,141,113,114,121,124
2025-02-26 14:24:56.974,-481.0,-904.0,57.0,-43.0,12.0,16.0,140,108,115,121,119
2025-02-26 14:24:56.980,-485.0,-903.0,59.0,-43.0,12.0,17.0,140,114,115,122,124
2025-02-26 14:24:56.985,-493.0,-905.0,68.0,-43.0,13.0,17.0,141,114,115,121,124
2025-02-26 14:24:56.991,-490.0,-907.0,79.0,-47.0,14.0,17.0,142,114,115,121,123
2025-02-26 14:24:56.997,-492.0,-892.0,73.0,-49.0,15.0,16.0,139,116,115,120,123
2025-02-26 14:24:56.997,-486.0,-871.0,63.0,-51.0,16.0,15.0,140,115,115,120,123
2025-02-26 14:24:57.003,-481.0,-879.0,59.0,-53.0,18.0,14.0,141,115,116,120,122
2025-02-26 14:24:57.008,-492.0,-874.0,34.0,-54.0,20.0,12.0,145,115,115,120,124
2025-02-26 14:24:57.015,-492.0,-874.0,0.0,-50.0,21.0,13.0,140,114,115,121,123
2025-02-26 14:24:57.021,-496.0,-882.0,-41.0,-48.0,22.0,13.0,140,114,114,120,123
2025-02-26 14:24:57.021,-483.0,-888.0,-29.0,-46.0,23.0,14.0,139,113,114,120,122
2025-02-26 14:24:57.033,-494.0,-888.0,-7.0,-45.0,22.0,15.0,141,115,115,121,123
2025-02-26 14:24:57.036,-508.0,-887.0,-15.0,-43.0,21.0,15.0,140,113,114,121,122
2025-02-26 14:24:57.041,-507.0,-878.0,-22.0,-39.0,20.0,15.0,140,113,113,119,122
2025-02-26 14:24:57.049,-508.0,-882.0,-13.0,-35.0,20.0,15.0,140,114,115,120,122
2025-02-26 14:24:57.052,-515.0,-878.0,-31.0,-33.0,19.0,16.0,141,114,113,122,123
2025-02-26 14:24:57.058,-516.0,-865.0,-46.0,-32.0,18.0,16.0,141,114,115,121,121
2025-02-26 14:24:57.065,-525.0,-856.0,-53.0,-29.0,18.0,17.0,139,112,115,124,119
2025-02-26 14:24:57.069,-532.0,-857.0,-57.0,-28.0,17.0,17.0,139,113,113,120,120
2025-02-26 14:24:57.074,-525.0,-860.0,-57.0,-28.0,16.0,17.0,146,113,114,118,122
2025-02-26 14:24:57.077,-517.0,-854.0,-52.0,-29.0,15.0,17.0,139,114,115,121,121
2025-02-26 14:24:57.085,-512.0,-841.0,-48.0,-30.0,14.0,17.0,139,113,113,121,121
2025-02-26 14:24:57.090,-514.0,-827.0,-67.0,-31.0,12.0,17.0,140,113,114,120,121
2025-02-26 14:24:57.095,-514.0,-834.0,-47.0,-30.0,13.0,16.0,140,112,113,120,120
2025-02-26 14:24:57.102,-515.0,-832.0,-50.0,-27.0,15.0,16.0,141,112,112,120,121
2025-02-26 14:24:57.106,-511.0,-838.0,-62.0,-26.0,17.0,14.0,141,113,114,121,121
2025-02-26 14:24:57.111,-513.0,-842.0,-97.0,-25.0,15.0,13.0,141,115,114,120,121
2025-02-26 14:24:57.119,-520.0,-862.0,-85.0,-21.0,15.0,12.0,141,112,113,120,120
2025-02-26 14:24:57.123,-529.0,-866.0,-105.0,-20.0,14.0,12.0,139,112,113,119,120
2025-02-26 14:24:57.127,-532.0,-868.0,-97.0,-16.0,15.0,11.0,141,113,113,120,120
2025-02-26 14:24:57.131,-541.0,-872.0,-142.0,-13.0,12.0,10.0,140,113,114,121,122
2025-02-26 14:24:57.137,-537.0,-886.0,-118.0,-14.0,13.0,12.0,140,113,112,121,122
2025-02-26 14:24:57.143,-531.0,-881.0,-134.0,-11.0,14.0,13.0,138,110,113,120,120
2025-02-26 14:24:57.148,-522.0,-897.0,-96.0,-7.0,13.0,14.0,140,111,112,121,120
2025-02-26 14:24:57.155,-536.0,-907.0,-98.0,-8.0,15.0,16.0,141,112,113,121,121
2025-02-26 14:24:57.159,-530.0,-871.0,-114.0,-7.0,15.0,17.0,141,110,113,120,120
2025-02-26 14:24:57.162,-536.0,-884.0,-105.0,-8.0,15.0,19.0,141,109,111,120,120
2025-02-26 14:24:57.172,-538.0,-853.0,-131.0,-9.0,14.0,20.0,141,108,113,121,119
2025-02-26 14:24:57.173,-523.0,-861.0,-108.0,-8.0,13.0,21.0,139,110,112,119,119
2025-02-26 14:24:57.180,-559.0,-879.0,-96.0,-10.0,14.0,22.0,140,108,112,120,121
2025-02-26 14:24:57.184,-552.0,-877.0,-140.0,-13.0,12.0,22.0,140,107,113,120,119
2025-02-26 14:24:57.192,-558.0,-882.0,-107.0,-11.0,14.0,23.0,141,107,112,121,120
2025-02-26 14:24:57.196,-566.0,-869.0,-110.0,-12.0,14.0,24.0,140,106,111,120,120
2025-02-26 14:24:57.201,-565.0,-876.0,-100.0,-11.0,13.0,23.0,140,103,110,118,120
2025-02-26 14:24:57.208,-561.0,-874.0,-120.0,-9.0,14.0,24.0,140,104,110,117,120
2025-02-26 14:24:57.211,-549.0,-867.0,-134.0,-7.0,15.0,24.0,141,104,110,117,120
2025-02-26 14:24:57.217,-584.0,-865.0,-129.0,-7.0,17.0,25.0,140,102,108,115,119
2025-02-26 14:24:57.223,-563.0,-863.0,-130.0,-5.0,19.0,26.0,140,100,107,113,119
2025-02-26 14:24:57.229,-566.0,-863.0,-134.0,-3.0,20.0,26.0,141,99,104,112,117
2025-02-26 14:24:57.233,-577.0,-868.0,-146.0,-3.0,20.0,28.0,139,99,104,109,118
2025-02-26 14:24:57.238,-569.0,-819.0,-159.0,-2.0,20.0,29.0,141,99,103,109,118
2025-02-26 14:24:57.245,-569.0,-821.0,-192.0,-3.0,21.0,31.0,140,98,100,107,116
2025-02-26 14:24:57.250,-561.0,-787.0,-165.0,1.0,21.0,33.0,139,97,102,106,116
2025-02-26 14:24:57.253,-566.0,-823.0,-172.0,0.0,23.0,34.0,142,98,101,104,117
2025-02-26 14:24:57.258,-575.0,-801.0,-156.0,0.0,23.0,34.0,140,96,103,103,116
2025-02-26 14:24:57.266,-581.0,-790.0,-170.0,1.0,23.0,34.0,140,96,99,101,116
2025-02-26 14:24:57.270,-607.0,-801.0,-125.0,1.0,25.0,34.0,140,94,98,98,115
2025-02-26 14:24:57.274,-607.0,-793.0,-148.0,-1.0,27.0,33.0,140,96,98,98,117
2025-02-26 14:24:57.279,-617.0,-764.0,-147.0,-5.0,28.0,32.0,139,94,97,99,116
2025-02-26 14:24:57.287,-619.0,-756.0,-104.0,3.0,30.0,31.0,140,92,96,96,115
2025-02-26 14:24:57.290,-662.0,-802.0,-79.0,6.0,38.0,31.0,140,93,95,96,116
2025-02-26 14:24:57.295,-645.0,-798.0,-128.0,-4.0,41.0,29.0,139,91,95,94,114
2025-02-26 14:24:57.299,-626.0,-767.0,-171.0,-11.0,43.0,31.0,139,89,94,92,114
2025-02-26 14:24:57.307,-638.0,-773.0,-139.0,-9.0,47.0,35.0,139,87,93,88,113
2025-02-26 14:24:57.311,-629.0,-790.0,-128.0,-12.0,50.0,38.0,142,85,92,88,113
2025-02-26 14:24:57.315,-586.0,-774.0,-150.0,-14.0,55.0,40.0,142,84,91,85,112
2025-02-26 14:24:57.320,-576.0,-766.0,-205.0,-14.0,57.0,43.0,139,81,90,83,110
2025-02-26 14:24:57.327,-588.0,-755.0,-195.0,-12.0,57.0,44.0,140,81,89,83,111
2025-02-26 14:24:57.331,-583.0,-754.0,-158.0,-3.0,50.0,42.0,142,82,88,83,111
2025-02-26 14:24:57.335,-604.0,-755.0,-113.0,-1.0,35.0,37.0,140,78,88,80,109
2025-02-26 14:24:57.340,-609.0,-764.0,-113.0,-5.0,27.0,35.0,139,78,88,78,107
2025-02-26 14:24:57.344,-610.0,-731.0,-132.0,-6.0,24.0,34.0,140,77,88,78,107
2025-02-26 14:24:57.352,-608.0,-685.0,-233.0,-5.0,26.0,33.0,141,76,89,78,107
2025-02-26 14:24:57.356,-616.0,-696.0,-226.0,-8.0,28.0,31.0,140,74,87,78,106
2025-02-26 14:24:57.360,-651.0,-716.0,-166.0,-10.0,33.0,29.0,140,73,87,76,106
2025-02-26 14:24:57.365,-678.0,-709.0,-130.0,-9.0,34.0,27.0,140,71,86,76,105
2025-02-26 14:24:57.373,-697.0,-705.0,-118.0,-8.0,29.0,25.0,140,70,86,76,104
2025-02-26 14:24:57.376,-704.0,-700.0,-171.0,-9.0,28.0,26.0,139,68,85,75,103
2025-02-26 14:24:57.381,-683.0,-680.0,-186.0,-5.0,24.0,24.0,140,67,86,73,101
2025-02-26 14:24:57.385,-713.0,-663.0,-228.0,-2.0,21.0,21.0,140,63,85,73,100
2025-02-26 14:24:57.393,-725.0,-668.0,-211.0,1.0,21.0,20.0,141,62,84,72,98
2025-02-26 14:24:57.397,-715.0,-647.0,-183.0,2.0,19.0,19.0,140,60,83,71,98
2025-02-26 14:24:57.402,-680.0,-588.0,-170.0,3.0,20.0,19.0,142,61,81,69,96
2025-02-26 14:24:57.405,-644.0,-598.0,-204.0,4.0,20.0,18.0,139,57,80,69,94
2025-02-26 14:24:57.409,-631.0,-581.0,-213.0,5.0,20.0,18.0,142,58,79,70,93
2025-02-26 14:24:57.417,-667.0,-573.0,-195.0,8.0,21.0,15.0,140,56,77,68,92
2025-02-26 14:24:57.421,-684.0,-556.0,-230.0,7.0,22.0,14.0,140,53,77,67,88
2025-02-26 14:24:57.426,-688.0,-507.0,-206.0,7.0,18.0,13.0,141,54,77,68,87
2025-02-26 14:24:57.430,-693.0,-468.0,-208.0,9.0,17.0,12.0,142,55,78,68,86
2025-02-26 14:24:57.435,-703.0,-398.0,-156.0,16.0,18.0,11.0,139,53,76,65,83
2025-02-26 14:24:57.442,-670.0,-388.0,-167.0,24.0,21.0,10.0,141,54,76,65,82
2025-02-26 14:24:57.446,-678.0,-331.0,-216.0,31.0,20.0,9.0,141,53,75,63,81
2025-02-26 14:24:57.451,-716.0,-228.0,-246.0,34.0,18.0,5.0,144,53,74,64,79
2025-02-26 14:24:57.454,-735.0,-186.0,-207.0,48.0,23.0,5.0,140,53,73,64,77
2025-02-26 14:24:57.459,-748.0,-78.0,-173.0,60.0,35.0,6.0,138,52,76,64,75
2025-02-26 14:24:57.463,-774.0,116.0,-184.0,66.0,39.0,6.0,140,50,71,63,72
2025-02-26 14:24:57.471,-769.0,127.0,-258.0,91.0,46.0,6.0,142,51,72,63,72
2025-02-26 14:24:57.475,-798.0,342.0,-287.0,117.0,54.0,11.0,140,51,68,62,68
2025-02-26 14:24:57.478,-819.0,524.0,-297.0,138.0,54.0,9.0,139,49,68,61,65
2025-02-26 14:24:57.483,-872.0,642.0,-357.0,173.0,52.0,8.0,139,48,67,60,63
2025-02-26 14:24:57.487,-905.0,809.0,-216.0,189.0,76.0,1.0,142,50,67,59,61
2025-02-26 14:24:57.495,-960.0,769.0,514.0,167.0,122.0,-9.0,140,49,65,61,58
2025-02-26 14:24:57.499,-924.0,921.0,-268.0,203.0,117.0,-15.0,138,48,64,60,57
2025-02-26 14:24:57.504,-963.0,856.0,-190.0,234.0,113.0,-33.0,140,49,65,62,55
2025-02-26 14:24:57.508,-897.0,1029.0,-426.0,263.0,97.0,-64.0,137,48,65,61,54
2025-02-26 14:24:57.516,-832.0,1041.0,-815.0,293.0,87.0,-78.0,137,47,66,62,53
2025-02-26 14:24:57.519,-775.0,1066.0,-785.0,289.0,86.0,-121.0,137,47,68,62,54
2025-02-26 14:24:57.525,-748.0,1167.0,-1041.0,303.0,81.0,-176.0,137,48,70,63,52
2025-02-26 14:24:57.531,-658.0,1193.0,-1286.0,277.0,72.0,-233.0,135,48,70,63,50
2025-02-26 14:24:57.536,-558.0,1449.0,-1468.0,315.0,58.0,-264.0,132,47,69,64,53
2025-02-26 14:24:57.541,-528.0,1793.0,-1510.0,338.0,-7.0,-332.0,131,47,72,64,52
2025-02-26 14:24:57.544,-396.0,1632.0,-1283.0,344.0,-89.0,-396.0,130,47,72,64,51
2025-02-26 14:24:57.553,-306.0,1240.0,-1046.0,359.0,-139.0,-456.0,130,46,73,65,51
2025-02-26 14:24:57.557,-268.0,926.0,-567.0,350.0,-225.0,-509.0,126,46,71,64,51
2025-02-26 14:24:57.562,-9.0,825.0,-43.0,330.0,-272.0,-526.0,127,46,72,63,51
2025-02-26 14:24:57.569,474.0,484.0,278.0,315.0,-290.0,-540.0,126,48,73,65,53
2025-02-26 14:24:57.574,1044.0,-56.0,826.0,304.0,-294.0,-535.0,128,48,76,65,53
2025-02-26 14:24:57.578,1341.0,-740.0,1771.0,302.0,-286.0,-499.0,126,48,77,65,54
2025-02-26 14:24:57.582,1876.0,-1196.0,2643.0,286.0,-261.0,-474.0,126,47,75,64,53
2025-02-26 14:24:57.590,2404.0,-2182.0,3570.0,314.0,-191.0,-396.0,126,48,75,67,55
2025-02-26 14:24:57.593,2976.0,-3494.0,3726.0,335.0,-100.0,-292.0,125,48,78,67,55
2025-02-26 14:24:57.599,3044.0,-4538.0,3830.0,342.0,21.0,-194.0,123,48,77,67,55
2025-02-26 14:24:57.606,2537.0,-4749.0,3628.0,333.0,132.0,-129.0,121,48,78,66,54
2025-02-26 14:24:57.610,2122.0,-4281.0,3267.0,276.0,176.0,-87.0,118,48,75,64,53
2025-02-26 14:24:57.614,1124.0,-3875.0,2616.0,169.0,206.0,-69.0,118,47,77,65,52
2025-02-26 14:24:57.624,437.0,-2707.0,2310.0,6.0,204.0,-48.0,118,49,73,63,51
2025-02-26 14:24:57.626,-47.0,-1821.0,1523.0,-76.0,145.0,-54.0,116,48,73,62,51
2025-02-26 14:24:57.630,-384.0,-1106.0,1002.0,-248.0,100.0,-56.0,115,48,75,63,52
2025-02-26 14:24:57.635,-366.0,-971.0,501.0,-371.0,29.0,-77.0,113,48,74,63,50
2025-02-26 14:24:57.643,-241.0,-1081.0,172.0,-451.0,-27.0,-87.0,113,49,75,64,52
2025-02-26 14:24:57.648,-81.0,-1413.0,105.0,-480.0,-62.0,-103.0,114,49,76,65,51
2025-02-26 14:24:57.652,119.0,-1824.0,-104.0,-475.0,-68.0,-118.0,112,49,76,66,52
2025-02-26 14:24:57.659,200.0,-2172.0,-208.0,-451.0,-66.0,-128.0,109,49,74,65,52
2025-02-26 14:24:57.663,268.0,-2403.0,-184.0,-404.0,-61.0,-129.0,111,49,73,66,51
2025-02-26 14:24:57.668,390.0,-2492.0,-173.0,-365.0,-48.0,-123.0,111,49,71,68,53
2025-02-26 14:24:57.675,276.0,-2507.0,-165.0,-324.0,-50.0,-106.0,112,51,73,69,54
2025-02-26 14:24:57.680,277.0,-2553.0,-117.0,-293.0,-71.0,-84.0,112,51,72,69,54
2025-02-26 14:24:57.684,308.0,-2599.0,-62.0,-282.0,-78.0,-49.0,107,51,71,72,53
2025-02-26 14:24:57.688,377.0,-2616.0,71.0,-274.0,-79.0,-8.0,111,49,72,68,51
2025-02-26 14:24:57.696,416.0,-2624.0,174.0,-270.0,-80.0,13.0,114,50,73,69,53
2025-02-26 14:24:57.700,489.0,-2646.0,213.0,-266.0,-84.0,52.0,112,51,74,71,53
2025-02-26 14:24:57.704,582.0,-2595.0,277.0,-261.0,-90.0,90.0,111,49,78,68,51
2025-02-26 14:24:57.712,561.0,-2476.0,323.0,-246.0,-89.0,108.0,112,51,75,69,53
2025-02-26 14:24:57.716,593.0,-2390.0,301.0,-228.0,-85.0,142.0,112,51,74,68,55
2025-02-26 14:24:57.720,573.0,-2215.0,276.0,-201.0,-77.0,172.0,113,52,73,68,54
2025-02-26 14:24:57.725,519.0,-2032.0,233.0,-186.0,-68.0,195.0,112,50,74,68,54
2025-02-26 14:24:57.732,514.0,-1837.0,127.0,-149.0,-63.0,213.0,113,51,74,69,54
2025-02-26 14:24:57.737,531.0,-1761.0,46.0,-115.0,-48.0,222.0,114,50,75,69,56
2025-02-26 14:24:57.741,468.0,-1640.0,23.0,-85.0,-36.0,239.0,112,51,75,68,55
2025-02-26 14:24:57.746,362.0,-1487.0,-24.0,-68.0,-42.0,255.0,113,51,75,69,55
2025-02-26 14:24:57.753,391.0,-1336.0,-56.0,-43.0,-42.0,271.0,113,51,75,68,55
2025-02-26 14:24:57.757,375.0,-1281.0,-70.0,-24.0,-38.0,279.0,112,51,75,70,55
2025-02-26 14:24:57.762,340.0,-1173.0,-48.0,-8.0,-31.0,292.0,113,52,74,69,55
2025-02-26 14:24:57.766,291.0,-1028.0,-72.0,-2.0,-29.0,302.0,112,50,75,70,55
2025-02-26 14:24:57.774,249.0,-976.0,-44.0,10.0,-32.0,305.0,114,51,74,69,55
2025-02-26 14:24:57.778,234.0,-852.0,-51.0,16.0,-30.0,310.0,114,51,75,70,56
2025-02-26 14:24:57.782,184.0,-735.0,-64.0,15.0,-24.0,312.0,114,52,76,69,56
2025-02-26 14:24:57.786,193.0,-590.0,-62.0,11.0,-21.0,310.0,114,50,75,68,56
2025-02-26 14:24:57.790,92.0,-546.0,-101.0,-7.0,-11.0,308.0,115,51,76,70,57
2025-02-26 14:24:57.799,19.0,-396.0,-105.0,-18.0,0.0,302.0,113,50,76,70,58
2025-02-26 14:24:57.803,14.0,-255.0,-149.0,-44.0,6.0,297.0,113,50,75,69,57
2025-02-26 14:24:57.804,-74.0,-206.0,-161.0,-76.0,23.0,287.0,115,50,77,68,57
2025-02-26 14:24:57.811,-125.0,-75.0,-194.0,-90.0,30.0,274.0,118,52,76,69,57
2025-02-26 14:24:57.817,-179.0,16.0,-216.0,-120.0,29.0,252.0,115,49,75,67,57
2025-02-26 14:24:57.823,-275.0,38.0,-190.0,-126.0,1.0,239.0,115,49,74,68,58
2025-02-26 14:24:57.828,-322.0,138.0,-149.0,-138.0,-19.0,216.0,116,49,73,70,58
2025-02-26 14:24:57.832,-365.0,189.0,-229.0,-146.0,-27.0,193.0,115,50,75,68,58
2025-02-26 14:24:57.839,-377.0,206.0,-240.0,-155.0,-38.0,183.0,115,50,75,67,57
2025-02-26 14:24:57.843,-424.0,147.0,-182.0,-181.0,-51.0,167.0,115,50,76,69,58
2025-02-26 14:24:57.847,-454.0,203.0,-219.0,-192.0,-57.0,154.0,117,50,76,70,57
2025-02-26 14:24:57.852,-381.0,310.0,-125.0,-207.0,-65.0,142.0,118,50,77,69,58
2025-02-26 14:24:57.860,-447.0,260.0,-252.0,-197.0,-70.0,123.0,117,50,77,68,57
2025-02-26 14:24:57.864,-382.0,157.0,-206.0,-176.0,-75.0,116.0,116,50,78,74,58
2025-02-26 14:24:57.868,-559.0,186.0,-148.0,-175.0,-80.0,107.0,118,52,76,69,58
2025-02-26 14:24:57.873,-620.0,208.0,-191.0,-167.0,-84.0,100.0,123,51,77,68,59
2025-02-26 14:24:57.880,-617.0,205.0,-178.0,-149.0,-85.0,93.0,118,50,76,70,58
2025-02-26 14:24:57.884,-671.0,256.0,-215.0,-129.0,-90.0,89.0,113,51,74,71,58
2025-02-26 14:24:57.889,-687.0,290.0,-206.0,-108.0,-95.0,80.0,120,51,76,69,58
2025-02-26 14:24:57.897,-755.0,353.0,-200.0,-101.0,-98.0,73.0,118,51,78,68,58
2025-02-26 14:24:57.901,-800.0,471.0,-162.0,-83.0,-99.0,65.0,118,50,75,68,58
2025-02-26 14:24:57.905,-821.0,504.0,-167.0,-61.0,-105.0,61.0,117,50,77,68,58
2025-02-26 14:24:57.909,-826.0,616.0,-206.0,-37.0,-106.0,50.0,118,53,76,68,59
2025-02-26 14:24:57.917,-825.0,784.0,-170.0,-27.0,-107.0,35.0,120,51,76,69,58
2025-02-26 14:24:57.921,-857.0,942.0,-146.0,-6.0,-106.0,18.0,119,52,76,67,58
2025-02-26 14:24:57.926,-961.0,1075.0,-141.0,2.0,-101.0,12.0,119,51,77,68,58
2025-02-26 14:24:57.930,-1012.0,1287.0,-44.0,8.0,-92.0,-5.0,120,51,76,70,58
2025-02-26 14:24:57.934,-1028.0,1486.0,-68.0,20.0,-86.0,-25.0,118,50,77,68,59
2025-02-26 14:24:57.942,-1071.0,1668.0,17.0,25.0,-70.0,-36.0,119,52,77,68,58
2025-02-26 14:24:57.946,-1152.0,1916.0,5.0,35.0,-48.0,-66.0,120,52,76,68,58
2025-02-26 14:24:57.950,-1146.0,2208.0,91.0,48.0,-19.0,-110.0,121,51,77,69,60
2025-02-26 14:24:57.955,-1087.0,2475.0,200.0,76.0,-1.0,-138.0,121,50,76,69,59
2025-02-26 14:24:57.962,-980.0,2465.0,193.0,119.0,29.0,-198.0,120,52,78,71,61
2025-02-26 14:24:57.966,-867.0,2378.0,155.0,146.0,49.0,-266.0,120,51,77,70,61
2025-02-26 14:24:57.971,-793.0,2142.0,57.0,202.0,53.0,-337.0,122,51,77,69,60
2025-02-26 14:24:57.975,-672.0,2024.0,-155.0,250.0,70.0,-372.0,120,50,77,69,60
2025-02-26 14:24:57.983,-553.0,1709.0,-184.0,279.0,78.0,-430.0,121,52,76,70,62
2025-02-26 14:24:57.986,-297.0,1409.0,-268.0,304.0,80.0,-481.0,120,52,77,68,60
2025-02-26 14:24:57.991,63.0,1188.0,-301.0,346.0,76.0,-531.0,121,52,77,72,62
2025-02-26 14:24:57.995,233.0,1063.0,-326.0,373.0,64.0,-554.0,120,49,78,70,61
2025-02-26 14:24:58.003,600.0,846.0,-312.0,393.0,54.0,-596.0,120,51,79,70,62
2025-02-26 14:24:58.007,874.0,575.0,-179.0,407.0,40.0,-643.0,120,51,79,69,62
2025-02-26 14:24:58.011,967.0,129.0,-229.0,429.0,22.0,-696.0,120,51,80,70,62
2025-02-26 14:24:58.016,1041.0,-254.0,31.0,423.0,-16.0,-719.0,121,52,79,70,63
2025-02-26 14:24:58.024,1504.0,-989.0,334.0,410.0,-39.0,-712.0,118,52,78,69,63
2025-02-26 14:24:58.028,2012.0,-2271.0,1191.0,438.0,-74.0,-623.0,120,51,79,69,62
2025-02-26 14:24:58.032,2358.0,-4256.0,1947.0,455.0,-100.0,-465.0,118,51,79,66,63
2025-02-26 14:24:58.040,2675.0,-6763.0,2750.0,463.0,-164.0,-361.0,120,52,78,69,62
2025-02-26 14:24:58.045,3300.0,-7661.0,3354.0,459.0,-93.0,-128.0,122,50,77,68,62
2025-02-26 14:24:58.049,3642.0,-8669.0,3487.0,421.0,19.0,83.0,121,51,77,66,63
2025-02-26 14:24:58.056,3400.0,-7529.0,3393.0,402.0,119.0,216.0,127,51,77,57,62
2025-02-26 14:24:58.058,2305.0,-5278.0,3031.0,281.0,158.0,270.0,121,50,78,62,58
2025-02-26 14:24:58.065,1760.0,-2602.0,2300.0,107.0,197.0,235.0,119,50,79,59,57
2025-02-26 14:24:58.069,726.0,-1444.0,1693.0,-117.0,184.0,202.0,120,51,82,61,57
2025-02-26 14:24:58.077,-215.0,-144.0,1275.0,-329.0,147.0,141.0,120,50,83,62,57
2025-02-26 14:24:58.081,-225.0,-23.0,703.0,-410.0,100.0,98.0,118,50,84,62,57
2025-02-26 14:24:58.085,-189.0,-502.0,-51.0,-523.0,69.0,62.0,118,51,82,62,56
2025-02-26 14:24:58.090,-38.0,-861.0,-255.0,-566.0,-5.0,46.0,118,52,80,67,58
2025-02-26 14:24:58.098,39.0,-1600.0,-412.0,-560.0,-79.0,27.0,117,52,75,68,57
2025-02-26 14:24:58.102,-61.0,-2083.0,-569.0,-543.0,-118.0,20.0,115,51,73,69,58
2025-02-26 14:24:58.107,-148.0,-2518.0,-576.0,-465.0,-124.0,16.0,115,51,71,68,58
2025-02-26 14:24:58.113,-149.0,-2535.0,-457.0,-387.0,-111.0,21.0,116,51,75,70,59
2025-02-26 14:24:58.118,-35.0,-2653.0,-373.0,-319.0,-86.0,29.0,116,53,75,70,59
2025-02-26 14:24:58.122,56.0,-2648.0,-313.0,-256.0,-62.0,46.0,116,53,75,70,60
2025-02-26 14:24:58.126,100.0,-2500.0,-199.0,-228.0,-55.0,75.0,116,52,75,70,59
2025-02-26 14:24:58.135,152.0,-2414.0,-65.0,-176.0,-58.0,108.0,117,53,76,70,59
2025-02-26 14:24:58.139,155.0,-2330.0,-10.0,-139.0,-77.0,126.0,117,53,75,71,61
2025-02-26 14:24:58.143,272.0,-2133.0,14.0,-116.0,-86.0,161.0,119,52,78,71,60
2025-02-26 14:24:58.149,256.0,-1945.0,36.0,-104.0,-87.0,197.0,119,51,76,70,61
2025-02-26 14:24:58.155,276.0,-1757.0,47.0,-87.0,-82.0,227.0,118,51,81,71,61
2025-02-26 14:24:58.159,295.0,-1655.0,77.0,-59.0,-83.0,240.0,118,52,76,71,62
2025-02-26 14:24:58.164,289.0,-1445.0,96.0,-52.0,-79.0,264.0,119,51,75,70,60
2025-02-26 14:24:58.168,308.0,-1187.0,79.0,-31.0,-72.0,280.0,119,51,75,69,62
2025-02-26 14:24:58.173,331.0,-1068.0,22.0,-25.0,-56.0,286.0,114,50,77,70,62
2025-02-26 14:24:58.180,285.0,-821.0,37.0,-24.0,-49.0,292.0,122,52,76,71,63
2025-02-26 14:24:58.184,244.0,-588.0,5.0,-27.0,-37.0,294.0,121,53,75,70,63
2025-02-26 14:24:58.188,257.0,-441.0,64.0,-35.0,-37.0,292.0,120,51,77,70,61
2025-02-26 14:24:58.195,145.0,-257.0,-60.0,-51.0,-45.0,279.0,124,53,78,70,63
2025-02-26 14:24:58.197,11.0,-37.0,-23.0,-57.0,-50.0,265.0,123,52,77,70,62
2025-02-26 14:24:58.203,-42.0,113.0,-40.0,-74.0,-52.0,257.0,122,51,76,69,63
2025-02-26 14:24:58.209,-153.0,164.0,-121.0,-71.0,-64.0,238.0,124,54,78,71,63
2025-02-26 14:24:58.213,-253.0,219.0,-112.0,-72.0,-71.0,224.0,122,53,77,70,63
2025-02-26 14:24:58.220,-293.0,115.0,-47.0,-87.0,-69.0,204.0,124,53,78,69,62
2025-02-26 14:24:58.221,-245.0,311.0,-96.0,-100.0,-70.0,197.0,125,53,80,69,63
2025-02-26 14:24:58.229,-163.0,203.0,-59.0,-128.0,-69.0,177.0,125,52,79,70,63
2025-02-26 14:24:58.232,-306.0,192.0,21.0,-148.0,-63.0,172.0,126,50,79,70,62
2025-02-26 14:24:58.241,-368.0,192.0,-141.0,-186.0,-56.0,169.0,125,52,78,71,64
2025-02-26 14:24:58.245,-454.0,253.0,-94.0,-215.0,-52.0,169.0,124,54,77,70,66
2025-02-26 14:24:58.245,-413.0,274.0,-138.0,-224.0,-44.0,162.0,126,53,79,70,64
2025-02-26 14:24:58.257,-504.0,252.0,-147.0,-229.0,-37.0,155.0,126,54,77,71,63
2025-02-26 14:24:58.257,-538.0,296.0,-231.0,-223.0,-34.0,146.0,127,53,78,70,63
2025-02-26 14:24:58.265,-663.0,279.0,-196.0,-207.0,-33.0,145.0,129,53,78,69,63
2025-02-26 14:24:58.270,-638.0,369.0,-269.0,-190.0,-33.0,135.0,129,54,80,72,65
2025-02-26 14:24:58.277,-598.0,357.0,-213.0,-182.0,-33.0,128.0,127,53,78,70,64
2025-02-26 14:24:58.282,-584.0,440.0,-229.0,-170.0,-34.0,117.0,128,53,79,69,63
2025-02-26 14:24:58.286,-627.0,432.0,-197.0,-151.0,-32.0,114.0,128,53,79,70,62
2025-02-26 14:24:58.291,-560.0,496.0,-263.0,-121.0,-27.0,99.0,129,55,81,71,64
2025-02-26 14:24:58.298,-524.0,452.0,-101.0,-121.0,-26.0,88.0,130,53,79,70,63
2025-02-26 14:24:58.303,-595.0,467.0,-212.0,-112.0,-27.0,89.0,128,53,77,70,63
2025-02-26 14:24:58.306,-734.0,468.0,-204.0,-102.0,-27.0,91.0,130,52,74,70,65
2025-02-26 14:24:58.311,-822.0,617.0,-181.0,-90.0,-37.0,81.0,129,54,76,71,65
2025-02-26 14:24:58.319,-841.0,736.0,-219.0,-84.0,-44.0,59.0,132,54,77,71,65
2025-02-26 14:24:58.322,-961.0,981.0,-113.0,-57.0,-48.0,29.0,130,52,77,70,63
2025-02-26 14:24:58.328,-1092.0,1063.0,-229.0,-30.0,-65.0,11.0,132,53,78,68,65
2025-02-26 14:24:58.330,-1226.0,1253.0,-217.0,8.0,-86.0,-27.0,134,55,78,72,67
2025-02-26 14:24:58.336,-1260.0,1366.0,-220.0,25.0,-108.0,-69.0,133,53,77,70,65
2025-02-26 14:24:58.343,-1272.0,1424.0,-301.0,51.0,-116.0,-113.0,134,52,75,70,65
2025-02-26 14:24:58.348,-1310.0,1517.0,-215.0,84.0,-127.0,-133.0,135,53,75,69,65
2025-02-26 14:24:58.354,-1374.0,1463.0,-238.0,97.0,-137.0,-170.0,136,54,77,71,66
2025-02-26 14:24:58.360,-1205.0,1588.0,-46.0,133.0,-132.0,-205.0,139,54,78,71,65
2025-02-26 14:24:58.363,-1114.0,1535.0,19.0,141.0,-131.0,-241.0,133,53,78,72,65
2025-02-26 14:24:58.372,-1006.0,1462.0,226.0,156.0,-129.0,-276.0,137,53,77,70,64
2025-02-26 14:24:58.372,-810.0,1349.0,356.0,194.0,-122.0,-294.0,138,53,77,70,66
2025-02-26 14:24:58.380,-615.0,1258.0,402.0,211.0,-117.0,-333.0,139,53,78,70,66
2025-02-26 14:24:58.384,-465.0,1139.0,431.0,240.0,-107.0,-369.0,139,51,77,68,67
2025-02-26 14:24:58.392,-302.0,931.0,385.0,257.0,-94.0,-398.0,139,54,79,72,67
2025-02-26 14:24:58.396,-192.0,727.0,281.0,277.0,-87.0,-427.0,140,52,78,71,67
2025-02-26 14:24:58.401,-63.0,704.0,187.0,291.0,-76.0,-441.0,140,51,78,72,67
2025-02-26 14:24:58.402,70.0,520.0,125.0,308.0,-70.0,-474.0,140,53,78,72,67
2025-02-26 14:24:58.412,259.0,313.0,-23.0,322.0,-68.0,-506.0,141,52,80,73,67
2025-02-26 14:24:58.417,349.0,162.0,-164.0,342.0,-79.0,-521.0,141,50,77,70,66
2025-02-26 14:24:58.421,464.0,-237.0,-220.0,353.0,-103.0,-544.0,140,51,78,72,67
2025-02-26 14:24:58.426,506.0,-526.0,-190.0,366.0,-133.0,-574.0,142,50,77,70,66
2025-02-26 14:24:58.434,689.0,-711.0,-83.0,349.0,-165.0,-596.0,143,51,77,72,66
2025-02-26 14:24:58.438,802.0,-1175.0,97.0,326.0,-179.0,-591.0,142,50,77,70,65
2025-02-26 14:24:58.438,1106.0,-1413.0,361.0,297.0,-211.0,-578.0,142,50,79,72,65
2025-02-26 14:24:58.450,1631.0,-2295.0,702.0,301.0,-206.0,-520.0,145,51,78,70,67
2025-02-26 14:24:58.454,2244.0,-3673.0,1239.0,289.0,-171.0,-426.0,146,52,78,71,67
2025-02-26 14:24:58.458,2813.0,-4929.0,2033.0,263.0,-92.0,-318.0,147,50,76,68,65
2025-02-26 14:24:58.467,2892.0,-5743.0,2149.0,223.0,-43.0,-204.0,146,50,76,65,65
2025-02-26 14:24:58.471,2646.0,-5711.0,2056.0,244.0,67.0,-145.0,147,51,75,63,63
2025-02-26 14:24:58.474,2377.0,-5530.0,1923.0,247.0,173.0,-36.0,149,52,78,63,62
2025-02-26 14:24:58.482,1998.0,-4502.0,1990.0,212.0,249.0,65.0,149,51,78,61,60
2025-02-26 14:24:58.487,1697.0,-3303.0,2083.0,185.0,264.0,124.0,150,52,81,62,59
2025-02-26 14:24:58.490,1385.0,-2481.0,1863.0,116.0,242.0,140.0,150,52,81,61,59
2025-02-26 14:24:58.495,1032.0,-2209.0,1449.0,4.0,178.0,140.0,150,51,82,62,59
2025-02-26 14:24:58.501,567.0,-1567.0,1097.0,-109.0,116.0,146.0,150,51,82,60,57
2025-02-26 14:24:58.507,398.0,-1496.0,644.0,-193.0,62.0,151.0,151,52,82,63,58
2025-02-26 14:24:58.511,258.0,-1569.0,383.0,-225.0,36.0,155.0,149,52,80,63,58
2025-02-26 14:24:58.519,196.0,-1727.0,187.0,-232.0,-26.0,153.0,148,51,77,62,57
2025-02-26 14:24:58.524,157.0,-1863.0,69.0,-217.0,-83.0,148.0,149,52,74,65,58
2025-02-26 14:24:58.525,262.0,-2155.0,111.0,-219.0,-102.0,151.0,149,51,73,66,56
2025-02-26 14:24:58.532,270.0,-2256.0,122.0,-241.0,-90.0,160.0,149,51,71,69,59
2025-02-26 14:24:58.536,197.0,-2360.0,259.0,-236.0,-77.0,174.0,149,53,71,69,58
2025-02-26 14:24:58.544,240.0,-2343.0,385.0,-228.0,-48.0,177.0,148,51,74,70,59
2025-02-26 14:24:58.548,287.0,-2220.0,426.0,-190.0,-39.0,186.0,149,51,74,70,60
2025-02-26 14:24:58.552,338.0,-2057.0,509.0,-178.0,-24.0,196.0,148,52,72,69,60
2025-02-26 14:24:58.560,306.0,-1847.0,523.0,-154.0,-7.0,210.0,149,51,75,69,59
2025-02-26 14:24:58.564,321.0,-1727.0,494.0,-131.0,20.0,213.0,146,51,76,68,60
2025-02-26 14:24:58.568,317.0,-1451.0,566.0,-111.0,36.0,222.0,148,51,77,72,60
2025-02-26 14:24:58.574,192.0,-1246.0,516.0,-104.0,45.0,224.0,148,51,80,71,60
2025-02-26 14:24:58.580,158.0,-1084.0,416.0,-88.0,50.0,227.0,149,50,75,68,59
2025-02-26 14:24:58.585,98.0,-1005.0,321.0,-70.0,60.0,228.0,147,49,75,65,60
2025-02-26 14:24:58.589,21.0,-901.0,322.0,-65.0,67.0,229.0,148,50,77,70,60
2025-02-26 14:24:58.592,-12.0,-747.0,273.0,-54.0,70.0,229.0,149,50,76,69,60
2025-02-26 14:24:58.601,-43.0,-699.0,199.0,-51.0,81.0,228.0,152,51,76,69,61
2025-02-26 14:24:58.606,-47.0,-542.0,217.0,-64.0,97.0,228.0,148,50,76,70,62
2025-02-26 14:24:58.610,-84.0,-427.0,162.0,-65.0,102.0,225.0,147,50,75,69,61
2025-02-26 14:24:58.614,-108.0,-396.0,148.0,-85.0,113.0,224.0,149,50,75,68,61
2025-02-26 14:24:58.621,-161.0,-278.0,130.0,-105.0,119.0,217.0,148,50,77,71,61
2025-02-26 14:24:58.626,-232.0,-152.0,90.0,-116.0,128.0,217.0,148,50,75,70,60
2025-02-26 14:24:58.628,-267.0,-101.0,86.0,-123.0,127.0,213.0,149,50,75,71,62
2025-02-26 14:24:58.635,-315.0,-80.0,78.0,-130.0,118.0,210.0,149,51,78,68,61
2025-02-26 14:24:58.640,-366.0,-63.0,123.0,-128.0,98.0,204.0,149,53,76,70,61
2025-02-26 14:24:58.646,-388.0,0.0,95.0,-123.0,71.0,193.0,147,50,77,70,61
2025-02-26 14:24:58.651,-445.0,61.0,-47.0,-119.0,57.0,191.0,148,50,75,71,61
2025-02-26 14:24:58.652,-489.0,118.0,69.0,-98.0,41.0,178.0,148,51,72,71,62
2025-02-26 14:24:58.659,-569.0,176.0,-81.0,-99.0,40.0,166.0,148,52,76,71,62
2025-02-26 14:24:58.666,-590.0,230.0,-86.0,-100.0,38.0,157.0,150,51,76,69,61
2025-02-26 14:24:58.671,-620.0,185.0,-107.0,-98.0,45.0,141.0,148,51,77,71,61
2025-02-26 14:24:58.676,-692.0,179.0,-186.0,-97.0,50.0,124.0,148,52,78,70,62
2025-02-26 14:24:58.680,-695.0,121.0,-219.0,-100.0,49.0,108.0,147,52,76,67,62
2025-02-26 14:24:58.687,-794.0,141.0,-279.0,-97.0,40.0,101.0,148,49,75,70,63
2025-02-26 14:24:58.692,-832.0,107.0,-329.0,-92.0,36.0,87.0,148,51,76,69,61
2025-02-26 14:24:58.696,-835.0,68.0,-334.0,-93.0,35.0,78.0,148,49,74,70,65
2025-02-26 14:24:58.699,-849.0,66.0,-354.0,-80.0,29.0,73.0,148,52,75,69,61
2025-02-26 14:24:58.704,-834.0,59.0,-328.0,-60.0,17.0,65.0,148,52,72,69,61
2025-02-26 14:24:58.711,-788.0,66.0,-299.0,-52.0,11.0,58.0,148,50,75,70,62
2025-02-26 14:24:58.716,-779.0,74.0,-262.0,-35.0,3.0,55.0,149,51,76,69,61
2025-02-26 14:24:58.720,-757.0,115.0,-260.0,-25.0,-4.0,48.0,148,52,76,70,63
2025-02-26 14:24:58.725,-772.0,141.0,-253.0,-21.0,-8.0,42.0,152,51,76,73,62
2025-02-26 14:24:58.729,-783.0,167.0,-236.0,-10.0,-18.0,39.0,148,51,75,69,61
2025-02-26 14:24:58.736,-824.0,274.0,-221.0,7.0,-28.0,32.0,150,52,77,72,62
2025-02-26 14:24:58.741,-880.0,407.0,-215.0,11.0,-31.0,25.0,148,51,75,71,63
2025-02-26 14:24:58.745,-937.0,486.0,-183.0,23.0,-38.0,19.0,146,52,80,71,62
2025-02-26 14:24:58.749,-1029.0,665.0,-160.0,35.0,-37.0,2.0,150,52,81,71,62
2025-02-26 14:24:58.754,-1046.0,820.0,-91.0,45.0,-36.0,-26.0,148,51,75,70,62
2025-02-26 14:24:58.761,-1030.0,935.0,-3.0,64.0,-34.0,-43.0,149,51,76,69,61
2025-02-26 14:24:58.765,-1046.0,1041.0,20.0,88.0,-32.0,-79.0,148,52,76,69,62
2025-02-26 14:24:58.770,-1056.0,1116.0,108.0,97.0,-29.0,-116.0,149,52,76,70,62
2025-02-26 14:24:58.774,-1065.0,1142.0,116.0,120.0,-27.0,-152.0,148,50,76,71,62
2025-02-26 14:24:58.782,-1067.0,1166.0,142.0,143.0,-19.0,-169.0,148,50,79,71,62
2025-02-26 14:24:58.786,-1030.0,1186.0,138.0,165.0,-8.0,-202.0,149,52,78,72,63
2025-02-26 14:24:58.790,-1032.0,1213.0,98.0,171.0,-2.0,-239.0,148,51,77,71,63
2025-02-26 14:24:58.798,-987.0,1283.0,100.0,190.0,2.0,-279.0,148,51,77,70,62
2025-02-26 14:24:58.802,-855.0,1302.0,51.0,203.0,8.0,-299.0,148,56,78,70,62
2025-02-26 14:24:58.806,-694.0,1233.0,44.0,215.0,10.0,-340.0,149,51,77,70,61
2025-02-26 14:24:58.811,-545.0,1028.0,20.0,219.0,3.0,-377.0,150,53,76,71,62
2025-02-26 14:24:58.815,-486.0,871.0,2.0,226.0,-2.0,-393.0,147,52,77,71,63
2025-02-26 14:24:58.822,-353.0,578.0,5.0,230.0,-18.0,-420.0,150,51,78,72,64
2025-02-26 14:24:58.827,-119.0,225.0,68.0,231.0,-35.0,-448.0,148,52,78,72,64
2025-02-26 14:24:58.831,42.0,-92.0,147.0,234.0,-41.0,-461.0,148,51,77,71,64
2025-02-26 14:24:58.836,337.0,-289.0,257.0,232.0,-54.0,-482.0,150,52,78,72,65
2025-02-26 14:24:58.843,592.0,-649.0,357.0,230.0,-66.0,-496.0,149,52,77,70,64
2025-02-26 14:24:58.847,733.0,-1064.0,588.0,219.0,-72.0,-503.0,149,52,77,70,63
2025-02-26 14:24:58.852,1004.0,-1268.0,856.0,207.0,-74.0,-504.0,150,52,77,71,66
2025-02-26 14:24:58.856,1399.0,-1801.0,1068.0,175.0,-67.0,-500.0,152,52,78,72,65
2025-02-26 14:24:58.864,1854.0,-2617.0,1269.0,135.0,-60.0,-478.0,150,51,76,71,65
2025-02-26 14:24:58.868,2122.0,-3705.0,1521.0,118.0,-36.0,-419.0,149,51,76,70,65
2025-02-26 14:24:58.872,2241.0,-4939.0,2040.0,75.0,-18.0,-317.0,151,52,76,68,65
2025-02-26 14:24:58.880,2389.0,-5585.0,1825.0,10.0,27.0,-257.0,152,50,75,70,64
2025-02-26 14:24:58.884,2198.0,-5779.0,1731.0,-7.0,75.0,-115.0,153,50,73,64,63
2025-02-26 14:24:58.888,2005.0,-5281.0,1617.0,-60.0,129.0,10.0,151,51,74,64,63
2025-02-26 14:24:58.896,1789.0,-4366.0,1329.0,-106.0,173.0,104.0,151,52,76,63,63
2025-02-26 14:24:58.901,1644.0,-3273.0,768.0,-200.0,177.0,153.0,151,52,74,62,61
2025-02-26 14:24:58.905,1340.0,-2869.0,297.0,-262.0,145.0,165.0,150,50,76,63,60
2025-02-26 14:24:58.909,902.0,-2131.0,97.0,-336.0,88.0,173.0,151,52,78,64,61
2025-02-26 14:24:58.916,615.0,-1622.0,-390.0,-351.0,17.0,175.0,151,52,78,64,61
2025-02-26 14:24:58.921,452.0,-1484.0,-575.0,-334.0,-22.0,167.0,151,52,78,64,60
2025-02-26 14:24:58.925,296.0,-1494.0,-844.0,-307.0,-84.0,167.0,149,52,73,64,60
2025-02-26 14:24:58.932,194.0,-1510.0,-834.0,-242.0,-147.0,162.0,152,52,72,66,60
2025-02-26 14:24:58.937,109.0,-1689.0,-785.0,-232.0,-174.0,162.0,150,53,70,68,63
2025-02-26 14:24:58.942,-95.0,-1714.0,-786.0,-203.0,-180.0,166.0,151,52,69,71,61
2025-02-26 14:24:58.949,-175.0,-1848.0,-713.0,-168.0,-156.0,161.0,149,50,71,68,61
2025-02-26 14:24:58.953,-155.0,-1885.0,-595.0,-172.0,-143.0,152.0,150,54,70,70,62
2025-02-26 14:24:58.956,-86.0,-1954.0,-494.0,-157.0,-134.0,151.0,149,51,72,72,63
2025-02-26 14:24:58.962,75.0,-1998.0,-312.0,-114.0,-132.0,155.0,151,53,75,72,65
2025-02-26 14:24:58.968,201.0,-2027.0,-206.0,-82.0,-136.0,167.0,152,53,75,71,65
2025-02-26 14:24:58.974,316.0,-1949.0,-15.0,-64.0,-131.0,184.0,150,53,76,72,65
2025-02-26 14:24:58.978,379.0,-1914.0,102.0,-39.0,-125.0,208.0,151,52,75,69,65
2025-02-26 14:24:58.986,380.0,-1847.0,241.0,-27.0,-96.0,220.0,150,52,74,70,64
2025-02-26 14:24:58.990,386.0,-1701.0,245.0,-23.0,-62.0,240.0,150,53,76,71,65
2025-02-26 14:24:58.995,388.0,-1549.0,310.0,-24.0,-24.0,253.0,150,54,76,71,67
2025-02-26 14:24:58.999,376.0,-1351.0,159.0,-35.0,-13.0,266.0,151,52,75,70,70
2025-02-26 14:24:59.007,368.0,-1253.0,178.0,-77.0,27.0,273.0,150,50,73,65,66
2025-02-26 14:24:59.011,263.0,-1065.0,205.0,-141.0,57.0,288.0,152,52,68,69,65
2025-02-26 14:24:59.015,124.0,-712.0,147.0,-142.0,106.0,307.0,150,54,74,70,65
2025-02-26 14:24:59.020,70.0,-530.0,-28.0,-103.0,112.0,324.0,149,51,72,70,66
2025-02-26 14:24:59.027,68.0,-432.0,207.0,-50.0,134.0,328.0,151,51,73,70,65
2025-02-26 14:24:59.031,16.0,-213.0,66.0,-25.0,107.0,322.0,151,52,74,71,67
2025-02-26 14:24:59.036,-24.0,-64.0,154.0,14.0,94.0,304.0,149,51,74,68,66
2025-02-26 14:24:59.040,-107.0,64.0,39.0,16.0,58.0,294.0,152,54,75,69,66
2025-02-26 14:24:59.044,-188.0,137.0,41.0,14.0,26.0,272.0,151,54,75,70,67
2025-02-26 14:24:59.049,-230.0,286.0,31.0,6.0,18.0,252.0,150,54,75,70,66
2025-02-26 14:24:59.056,-311.0,249.0,50.0,-13.0,6.0,242.0,150,56,75,71,68
2025-02-26 14:24:59.059,-386.0,356.0,59.0,-31.0,-1.0,219.0,151,52,74,72,67
2025-02-26 14:24:59.064,-441.0,347.0,94.0,-41.0,-3.0,199.0,150,53,74,69,66
2025-02-26 14:24:59.068,-494.0,344.0,159.0,-65.0,0.0,189.0,152,55,75,70,67
2025-02-26 14:24:59.071,-519.0,374.0,129.0,-96.0,5.0,171.0,152,54,77,71,69
2025-02-26 14:24:59.080,-544.0,315.0,166.0,-100.0,10.0,155.0,148,55,74,71,70
2025-02-26 14:24:59.085,-607.0,307.0,41.0,-112.0,17.0,149.0,151,54,75,74,69
2025-02-26 14:24:59.089,-659.0,279.0,28.0,-115.0,20.0,136.0,150,54,75,74,72
2025-02-26 14:24:59.093,-664.0,179.0,-9.0,-110.0,20.0,125.0,150,55,75,73,71
2025-02-26 14:24:59.098,-707.0,143.0,-16.0,-102.0,24.0,120.0,148,56,74,73,72
2025-02-26 14:24:59.105,-775.0,117.0,-90.0,-85.0,23.0,111.0,150,57,75,75,74
2025-02-26 14:24:59.110,-762.0,36.0,-123.0,-81.0,24.0,107.0,149,57,75,74,75
2025-02-26 14:24:59.114,-765.0,69.0,-116.0,-69.0,23.0,103.0,150,58,72,74,77
2025-02-26 14:24:59.117,-800.0,57.0,-86.0,-58.0,19.0,100.0,150,58,76,77,79
2025-02-26 14:24:59.122,-685.0,74.0,-77.0,-54.0,17.0,92.0,150,59,76,77,79
2025-02-26 14:24:59.129,-660.0,86.0,-15.0,-30.0,18.0,87.0,149,59,77,75,82
2025-02-26 14:24:59.134,-675.0,106.0,-38.0,-10.0,11.0,77.0,150,60,77,78,84
2025-02-26 14:24:59.139,-691.0,142.0,-20.0,0.0,8.0,68.0,151,60,76,79,86
2025-02-26 14:24:59.142,-695.0,145.0,-51.0,21.0,4.0,63.0,149,61,75,76,87
2025-02-26 14:24:59.147,-737.0,247.0,-57.0,35.0,-3.0,53.0,150,63,77,79,89
2025-02-26 14:24:59.151,-787.0,356.0,-31.0,43.0,-6.0,42.0,150,64,77,81,91
2025-02-26 14:24:59.158,-816.0,458.0,-8.0,72.0,0.0,35.0,150,63,77,81,92
2025-02-26 14:24:59.162,-833.0,639.0,-114.0,91.0,0.0,19.0,150,64,78,81,95
2025-02-26 14:24:59.167,-850.0,637.0,-118.0,96.0,-3.0,2.0,149,66,79,82,97
2025-02-26 14:24:59.171,-903.0,652.0,-54.0,111.0,-7.0,-7.0,151,70,81,82,98
2025-02-26 14:24:59.175,-1004.0,841.0,-64.0,141.0,-6.0,-30.0,149,71,81,84,100
2025-02-26 14:24:59.183,-1073.0,972.0,-91.0,152.0,-6.0,-52.0,149,72,83,84,101
2025-02-26 14:24:59.187,-1104.0,1041.0,-172.0,175.0,-12.0,-63.0,149,76,84,87,103
2025-02-26 14:24:59.192,-1188.0,1137.0,-171.0,198.0,-14.0,-88.0,150,80,88,90,105
2025-02-26 14:24:59.199,-1212.0,1214.0,-207.0,213.0,-18.0,-118.0,149,83,89,89,107
2025-02-26 14:24:59.204,-1200.0,1241.0,-298.0,222.0,-12.0,-137.0,148,86,90,93,106
2025-02-26 14:24:59.208,-1161.0,1186.0,-399.0,238.0,-21.0,-174.0,150,90,92,93,107
2025-02-26 14:24:59.215,-1130.0,1062.0,-442.0,240.0,-29.0,-216.0,151,96,95,95,109
2025-02-26 14:24:59.220,-1039.0,1075.0,-622.0,244.0,-56.0,-266.0,149,97,97,98,109
2025-02-26 14:24:59.222,-979.0,1084.0,-679.0,255.0,-71.0,-319.0,151,99,96,100,109
2025-02-26 14:24:59.232,-964.0,995.0,-859.0,271.0,-102.0,-338.0,149,103,103,102,109
2025-02-26 14:24:59.234,-952.0,975.0,-814.0,267.0,-137.0,-365.0,152,104,105,105,110
2025-02-26 14:24:59.240,-918.0,939.0,-675.0,270.0,-145.0,-393.0,150,108,110,107,111
2025-02-26 14:24:59.249,-756.0,765.0,-528.0,262.0,-141.0,-419.0,150,109,111,110,113
2025-02-26 14:24:59.253,-535.0,516.0,-437.0,242.0,-155.0,-447.0,151,112,112,111,114
2025-02-26 14:24:59.257,69.0,399.0,23.0,264.0,-157.0,-474.0,151,113,113,113,115
2025-02-26 14:24:59.264,411.0,-9.0,458.0,278.0,-152.0,-478.0,152,114,113,114,115
2025-02-26 14:24:59.269,405.0,-264.0,352.0,296.0,-158.0,-474.0,151,115,114,113,116
2025-02-26 14:24:59.277,333.0,-368.0,-193.0,295.0,-187.0,-470.0,151,117,112,115,116
2025-02-26 14:24:59.281,441.0,-501.0,-12.0,289.0,-198.0,-468.0,149,117,116,116,117
2025-02-26 14:24:59.286,805.0,-574.0,-55.0,275.0,-213.0,-469.0,151,119,117,115,117
2025-02-26 14:24:59.294,1311.0,-974.0,29.0,234.0,-245.0,-479.0,152,123,120,118,117
2025-02-26 14:24:59.297,1816.0,-1528.0,181.0,190.0,-268.0,-474.0,151,122,118,119,117
2025-02-26 14:24:59.303,2072.0,-2189.0,490.0,146.0,-261.0,-446.0,154,122,118,119,117
2025-02-26 14:24:59.307,2260.0,-2911.0,792.0,110.0,-232.0,-384.0,152,124,118,119,119
2025-02-26 14:24:59.315,2573.0,-3302.0,554.0,57.0,-208.0,-320.0,155,122,118,119,118
2025-02-26 14:24:59.322,2588.0,-3960.0,1865.0,58.0,-60.0,-185.0,152,123,117,120,120
2025-02-26 14:24:59.326,2195.0,-3530.0,2256.0,-23.0,21.0,-144.0,151,122,118,119,119
2025-02-26 14:24:59.331,2188.0,-4471.0,4759.0,-117.0,92.0,-55.0,153,123,119,120,119
2025-02-26 14:24:59.338,1395.0,-3772.0,4057.0,113.0,-71.0,-38.0,152,122,118,116,119
2025-02-26 14:24:59.343,920.0,-3301.0,665.0,-67.0,-76.0,21.0,153,122,119,120,121
2025-02-26 14:24:59.348,1035.0,-2437.0,569.0,-197.0,-39.0,63.0,152,122,118,119,120
2025-02-26 14:24:59.355,871.0,-2208.0,617.0,-217.0,39.0,179.0,153,119,120,118,121
2025-02-26 14:24:59.359,655.0,-2350.0,1046.0,-283.0,93.0,258.0,153,120,120,119,122
2025-02-26 14:24:59.363,785.0,-2698.0,1363.0,-297.0,97.0,282.0,153,121,118,120,121
2025-02-26 14:24:59.372,724.0,-2128.0,912.0,-299.0,24.0,257.0,152,122,119,120,121
2025-02-26 14:24:59.376,717.0,-1918.0,725.0,-295.0,-14.0,228.0,152,120,119,121,122
2025-02-26 14:24:59.384,643.0,-1804.0,490.0,-291.0,-65.0,201.0,151,119,119,120,120
2025-02-26 14:24:59.386,534.0,-1626.0,132.0,-276.0,-106.0,190.0,151,120,119,120,120
2025-02-26 14:24:59.393,321.0,-1566.0,-57.0,-235.0,-144.0,173.0,151,121,119,119,121
2025-02-26 14:24:59.398,237.0,-1400.0,-48.0,-174.0,-136.0,162.0,151,121,120,122,120
2025-02-26 14:24:59.405,151.0,-1561.0,-185.0,-156.0,-90.0,164.0,152,120,120,121,122
2025-02-26 14:24:59.409,49.0,-1524.0,-317.0,-142.0,-59.0,171.0,151,120,119,120,121
2025-02-26 14:24:59.417,80.0,-1515.0,-248.0,-134.0,-47.0,174.0,150,121,120,119,122
2025-02-26 14:24:59.421,241.0,-1414.0,20.0,-124.0,-54.0,161.0,152,120,119,121,121
2025-02-26 14:24:59.426,218.0,-1338.0,205.0,-84.0,-73.0,151.0,151,119,122,120,122
2025-02-26 14:24:59.433,171.0,-1294.0,279.0,-26.0,-81.0,150.0,150,121,119,121,121
2025-02-26 14:24:59.437,80.0,-1185.0,402.0,17.0,-75.0,153.0,151,121,119,119,121
2025-02-26 14:24:59.442,5.0,-1177.0,335.0,46.0,-37.0,166.0,151,121,119,120,122
2025-02-26 14:24:59.448,-78.0,-1076.0,284.0,51.0,9.0,185.0,150,122,121,121,122
2025-02-26 14:24:59.453,-102.0,-933.0,125.0,50.0,35.0,200.0,154,123,121,121,122
2025-02-26 14:24:59.458,-98.0,-853.0,-51.0,38.0,35.0,210.0,152,121,119,120,121
2025-02-26 14:24:59.462,-92.0,-810.0,65.0,39.0,31.0,214.0,150,121,119,121,121
2025-02-26 14:24:59.470,-79.0,-785.0,173.0,35.0,46.0,222.0,152,121,119,121,122
2025-02-26 14:24:59.472,-54.0,-724.0,255.0,42.0,65.0,223.0,151,123,121,121,123
2025-02-26 14:24:59.478,-39.0,-671.0,410.0,47.0,78.0,222.0,150,123,120,121,122
2025-02-26 14:24:59.486,-9.0,-664.0,456.0,48.0,111.0,221.0,150,121,117,119,122
2025-02-26 14:24:59.490,8.0,-554.0,426.0,65.0,135.0,213.0,151,123,119,122,126
2025-02-26 14:24:59.495,-57.0,-583.0,269.0,62.0,129.0,208.0,153,123,119,122,123
2025-02-26 14:24:59.499,-131.0,-444.0,167.0,46.0,123.0,198.0,150,122,120,122,123
2025-02-26 14:24:59.507,-183.0,-361.0,189.0,42.0,115.0,193.0,151,123,121,122,122
2025-02-26 14:24:59.511,-277.0,-323.0,283.0,46.0,124.0,193.0,150,122,119,122,123
2025-02-26 14:24:59.515,-297.0,-125.0,146.0,37.0,128.0,184.0,151,121,120,124,124
2025-02-26 14:24:59.523,-309.0,-77.0,141.0,52.0,150.0,181.0,151,124,120,121,123
2025-02-26 14:24:59.527,-294.0,30.0,78.0,61.0,181.0,181.0,151,123,120,121,122
2025-02-26 14:24:59.532,-296.0,219.0,7.0,95.0,195.0,171.0,151,123,121,122,123
2025-02-26 14:24:59.539,-517.0,264.0,-106.0,108.0,204.0,165.0,151,122,120,122,124
2025-02-26 14:24:59.543,-871.0,228.0,-167.0,103.0,190.0,149.0,152,124,121,122,123
2025-02-26 14:24:59.548,-1026.0,172.0,-329.0,73.0,158.0,131.0,149,122,122,123,123
2025-02-26 14:24:59.555,-1029.0,128.0,-328.0,58.0,121.0,112.0,150,123,121,123,124
2025-02-26 14:24:59.560,-1027.0,120.0,-327.0,22.0,101.0,96.0,150,122,119,122,124
2025-02-26 14:24:59.564,-1047.0,162.0,-346.0,-22.0,59.0,79.0,148,121,120,123,122
2025-02-26 14:24:59.572,-1036.0,166.0,-249.0,-39.0,19.0,71.0,148,123,120,122,122
2025-02-26 14:24:59.576,-894.0,212.0,-171.0,-37.0,2.0,51.0,149,124,120,123,123
2025-02-26 14:24:59.580,-846.0,274.0,-231.0,-37.0,-12.0,33.0,151,123,121,121,124
2025-02-26 14:24:59.585,-920.0,408.0,-275.0,-34.0,-25.0,17.0,148,123,121,122,125
2025-02-26 14:24:59.593,-932.0,490.0,-311.0,-28.0,-33.0,-1.0,149,121,121,122,123
2025-02-26 14:24:59.597,-915.0,446.0,-204.0,-11.0,-46.0,-10.0,150,123,120,122,123
2025-02-26 14:24:59.602,-932.0,608.0,-153.0,3.0,-53.0,-25.0,149,122,120,122,124
2025-02-26 14:24:59.609,-967.0,681.0,-134.0,18.0,-60.0,-39.0,149,122,121,123,124
2025-02-26 14:24:59.614,-1059.0,793.0,-90.0,31.0,-65.0,-54.0,149,123,120,124,124
2025-02-26 14:24:59.616,-1136.0,871.0,-83.0,52.0,-71.0,-72.0,148,121,120,125,124
2025-02-26 14:24:59.625,-1179.0,891.0,-83.0,68.0,-75.0,-93.0,150,121,120,122,121
2025-02-26 14:24:59.629,-1180.0,888.0,12.0,88.0,-82.0,-105.0,148,120,120,124,123
2025-02-26 14:24:59.634,-1095.0,865.0,105.0,107.0,-79.0,-133.0,150,122,119,123,125
2025-02-26 14:24:59.640,-992.0,860.0,75.0,129.0,-80.0,-164.0,150,122,120,123,123
2025-02-26 14:24:59.646,-894.0,787.0,71.0,139.0,-83.0,-196.0,148,120,119,123,124
2025-02-26 14:24:59.650,-778.0,743.0,54.0,150.0,-88.0,-229.0,148,121,119,125,123
2025-02-26 14:24:59.658,-728.0,675.0,-14.0,154.0,-88.0,-260.0,149,120,121,125,124
2025-02-26 14:24:59.663,-593.0,644.0,-133.0,155.0,-94.0,-275.0,150,121,119,123,123
2025-02-26 14:24:59.667,-410.0,580.0,-157.0,170.0,-94.0,-303.0,150,121,119,122,123
2025-02-26 14:24:59.675,-236.0,529.0,-178.0,183.0,-88.0,-328.0,151,122,120,124,123
2025-02-26 14:24:59.677,-86.0,455.0,-201.0,199.0,-85.0,-351.0,149,121,120,123,123
2025-02-26 14:24:59.683,75.0,334.0,-212.0,204.0,-86.0,-375.0,149,122,120,123,124
2025-02-26 14:24:59.689,214.0,82.0,-305.0,208.0,-113.0,-398.0,151,121,118,123,123
2025-02-26 14:24:59.695,306.0,-261.0,-129.0,193.0,-123.0,-418.0,149,122,120,120,123
2025-02-26 14:24:59.699,503.0,-656.0,4.0,182.0,-143.0,-430.0,149,122,119,123,122
2025-02-26 14:24:59.707,651.0,-915.0,96.0,160.0,-175.0,-434.0,150,117,119,122,121
2025-02-26 14:24:59.712,804.0,-1506.0,188.0,117.0,-224.0,-439.0,151,121,120,123,122
2025-02-26 14:24:59.720,1085.0,-2274.0,202.0,27.0,-290.0,-449.0,152,122,120,123,123
2025-02-26 14:24:59.724,1516.0,-3244.0,159.0,-78.0,-344.0,-427.0,151,122,120,123,123
2025-02-26 14:24:59.729,1900.0,-4017.0,653.0,-174.0,-342.0,-367.0,151,119,119,123,124
2025-02-26 14:24:59.737,2220.0,-4443.0,1122.0,-288.0,-322.0,-292.0,152,120,121,123,122
2025-02-26 14:24:59.742,2474.0,-4375.0,1774.0,-265.0,-185.0,-232.0,151,119,120,123,124
2025-02-26 14:24:59.748,1818.0,-4772.0,4172.0,-117.0,77.0,-75.0,152,124,121,122,122
2025-02-26 14:24:59.753,1383.0,-3471.0,1397.0,-93.0,28.0,11.0,152,118,120,121,124
2025-02-26 14:24:59.755,1895.0,-2397.0,700.0,-27.0,-25.0,65.0,153,117,120,121,123
2025-02-26 14:24:59.760,2052.0,-2696.0,892.0,-25.0,-14.0,137.0,153,118,120,121,124
2025-02-26 14:24:59.766,1167.0,-2953.0,856.0,-123.0,19.0,170.0,153,116,120,121,124
2025-02-26 14:24:59.772,763.0,-2924.0,894.0,-92.0,67.0,230.0,154,116,121,122,125
2025-02-26 14:24:59.781,1055.0,-2621.0,860.0,-80.0,92.0,263.0,153,116,120,122,125
2025-02-26 14:24:59.784,1156.0,-2392.0,605.0,-96.0,77.0,258.0,153,117,121,122,125
2025-02-26 14:24:59.789,932.0,-2279.0,443.0,-108.0,44.0,249.0,152,114,121,123,125
2025-02-26 14:24:59.795,701.0,-2057.0,-43.0,-93.0,-45.0,246.0,152,117,118,122,125
2025-02-26 14:24:59.802,588.0,-1948.0,213.0,-86.0,-73.0,246.0,152,117,120,123,125
2025-02-26 14:24:59.806,452.0,-1644.0,504.0,-21.0,-77.0,244.0,154,116,120,123,124
2025-02-26 14:24:59.814,350.0,-1611.0,859.0,13.0,0.0,247.0,154,117,122,123,125
2025-02-26 14:24:59.814,251.0,-1734.0,848.0,7.0,112.0,252.0,153,118,120,123,125
2025-02-26 14:24:59.814,135.0,-1503.0,160.0,-3.0,155.0,247.0,150,118,120,124,125
2025-02-26 14:24:59.830,138.0,-1443.0,-287.0,1.0,154.0,236.0,154,115,116,122,128
2025-02-26 14:24:59.834,97.0,-1482.0,-299.0,-53.0,104.0,225.0,152,120,120,124,126
2025-02-26 14:24:59.838,-29.0,-1309.0,-191.0,-145.0,33.0,218.0,152,117,119,124,124
2025-02-26 14:24:59.838,-116.0,-1361.0,270.0,-170.0,-6.0,216.0,153,118,119,123,124
2025-02-26 14:24:59.850,4.0,-1131.0,418.0,-133.0,-10.0,214.0,152,119,119,123,125
2025-02-26 14:24:59.855,65.0,-1029.0,475.0,-104.0,16.0,219.0,153,118,121,123,128
2025-02-26 14:24:59.862,-19.0,-1025.0,439.0,-87.0,53.0,223.0,154,119,119,125,126
2025-02-26 14:24:59.862,-101.0,-974.0,330.0,-60.0,66.0,234.0,152,117,115,123,125
2025-02-26 14:24:59.871,-87.0,-780.0,-21.0,-79.0,52.0,233.0,153,117,119,125,125
2025-02-26 14:24:59.874,-45.0,-775.0,293.0,-95.0,49.0,239.0,156,120,122,128,128
2025-02-26 14:24:59.884,-120.0,-745.0,329.0,-148.0,51.0,247.0,167,130,132,138,139
2025-02-26 14:24:59.886,-82.0,-630.0,228.0,-169.0,49.0,251.0,176,141,144,149,150
2025-02-26 14:24:59.892,-73.0,-538.0,209.0,-179.0,50.0,254.0,189,154,156,163,162
2025-02-26 14:24:59.900,-49.0,-384.0,299.0,-178.0,55.0,254.0,223,190,191,198,198
2025-02-26 14:24:59.905,-44.0,-382.0,310.0,-172.0,70.0,254.0,213,177,179,187,186
2025-02-26 14:24:59.905,-79.0,-276.0,-20.0,-171.0,76.0,251.0,198,159,160,168,169
2025-02-26 14:24:59.916,-143.0,-209.0,278.0,-139.0,94.0,251.0,192,154,159,164,163
2025-02-26 14:24:59.917,-290.0,-77.0,71.0,-126.0,91.0,246.0,279,245,245,254,253
2025-02-26 14:24:59.925,-264.0,182.0,419.0,-111.0,97.0,239.0,198,159,161,170,168
2025-02-26 14:24:59.929,-296.0,177.0,-241.0,-66.0,70.0,228.0,194,152,154,166,164
2025-02-26 14:24:59.937,-467.0,102.0,-7.0,-29.0,76.0,224.0,199,160,158,171,167
2025-02-26 14:24:59.940,-536.0,205.0,62.0,6.0,81.0,215.0,211,169,169,179,180
2025-02-26 14:24:59.940,-550.0,184.0,143.0,17.0,94.0,207.0,207,164,167,179,177
2025-02-26 14:24:59.952,-570.0,258.0,-6.0,32.0,93.0,194.0,200,155,156,171,170
2025-02-26 14:24:59.958,-641.0,316.0,-100.0,33.0,81.0,187.0,199,150,154,168,167
2025-02-26 14:24:59.962,-669.0,398.0,-108.0,47.0,76.0,172.0,210,161,163,179,177
2025-02-26 14:24:59.969,-738.0,468.0,-144.0,49.0,62.0,157.0,219,168,172,186,186
2025-02-26 14:24:59.971,-767.0,482.0,-181.0,52.0,50.0,138.0,224,170,172,190,187
2025-02-26 14:24:59.977,-781.0,465.0,-135.0,56.0,45.0,121.0,218,162,165,180,181
2025-02-26 14:24:59.983,-796.0,509.0,-151.0,55.0,38.0,112.0,226,171,174,188,189
2025-02-26 14:24:59.990,-804.0,573.0,-163.0,59.0,30.0,93.0,234,177,180,194,196
2025-02-26 14:24:59.994,-802.0,605.0,-146.0,60.0,23.0,75.0,237,177,181,195,196
2025-02-26 14:24:59.999,-817.0,646.0,-126.0,69.0,23.0,59.0,225,163,167,179,180
2025-02-26 14:25:00.007,-850.0,646.0,-103.0,86.0,22.0,50.0,216,149,155,167,170
2025-02-26 14:25:00.008,-886.0,685.0,-24.0,100.0,24.0,38.0,223,155,160,168,172
2025-02-26 14:25:00.014,-917.0,760.0,-74.0,110.0,18.0,25.0,220,148,156,163,167
2025-02-26 14:25:00.020,-957.0,849.0,-56.0,115.0,11.0,11.0,212,136,145,152,156
2025-02-26 14:25:00.026,-978.0,903.0,-82.0,131.0,7.0,-3.0,210,131,143,148,150
2025-02-26 14:25:00.031,-983.0,966.0,-108.0,131.0,-6.0,-12.0,215,135,145,150,154
2025-02-26 14:25:00.036,-972.0,1039.0,-136.0,138.0,-25.0,-34.0,222,140,143,154,157
2025-02-26 14:25:00.043,-1062.0,1082.0,-266.0,147.0,-52.0,-58.0,231,148,158,160,164
2025-02-26 14:25:00.044,-1092.0,1106.0,-167.0,146.0,-65.0,-85.0,193,103,117,118,121
2025-02-26 14:25:00.055,-1085.0,1268.0,-141.0,165.0,-78.0,-113.0,194,103,117,118,119
2025-02-26 14:25:00.056,-1082.0,1276.0,-246.0,173.0,-87.0,-145.0,203,112,125,124,127
2025-02-26 14:25:00.065,-1107.0,1345.0,-172.0,170.0,-106.0,-184.0,193,97,109,109,110
2025-02-26 14:25:00.068,-1167.0,1349.0,289.0,150.0,-79.0,-234.0,180,81,96,95,93
2025-02-26 14:25:00.076,-1174.0,1291.0,199.0,103.0,-33.0,-251.0,179,80,94,91,88
2025-02-26 14:25:00.081,-949.0,1190.0,50.0,85.0,-14.0,-291.0,182,84,99,95,90
2025-02-26 14:25:00.084,-781.0,1235.0,259.0,86.0,20.0,-328.0,179,76,95,91,83
2025-02-26 14:25:00.093,-728.0,966.0,74.0,56.0,22.0,-371.0,209,111,127,125,116
2025-02-26 14:25:00.096,-439.0,903.0,200.0,37.0,53.0,-391.0,202,105,124,119,107
2025-02-26 14:25:00.101,-199.0,733.0,115.0,53.0,72.0,-438.0,188,89,108,104,92
2025-02-26 14:25:00.106,-91.0,568.0,217.0,64.0,92.0,-474.0,182,84,105,101,86
2025-02-26 14:25:00.113,-79.0,200.0,133.0,68.0,91.0,-495.0,195,96,119,113,99
2025-02-26 14:25:00.117,-69.0,155.0,-149.0,56.0,77.0,-508.0,198,98,122,115,100
2025-02-26 14:25:00.121,372.0,50.0,-217.0,40.0,58.0,-518.0,209,111,136,129,114
2025-02-26 14:25:00.129,955.0,-192.0,-666.0,51.0,1.0,-531.0,208,109,134,128,112
2025-02-26 14:25:00.133,1120.0,-617.0,-672.0,85.0,-33.0,-546.0,206,109,135,128,112
2025-02-26 14:25:00.138,1113.0,-1373.0,-369.0,139.0,-97.0,-562.0,201,103,125,121,104
2025-02-26 14:25:00.146,1062.0,-2230.0,106.0,168.0,-167.0,-592.0,201,102,125,119,104
2025-02-26 14:25:00.149,985.0,-3022.0,558.0,222.0,-223.0,-597.0,198,98,119,115,100
2025-02-26 14:25:00.154,1286.0,-3371.0,636.0,291.0,-271.0,-592.0,195,95,117,112,97
2025-02-26 14:25:00.160,2037.0,-4092.0,852.0,319.0,-291.0,-542.0,192,92,113,109,96
2025-02-26 14:25:00.167,2381.0,-4997.0,892.0,371.0,-287.0,-454.0,211,113,140,133,120
2025-02-26 14:25:00.174,3078.0,-5173.0,1512.0,382.0,-172.0,-338.0,235,142,171,155,145
2025-02-26 14:25:00.179,3450.0,-5469.0,1780.0,389.0,-27.0,-188.0,235,140,169,153,145
2025-02-26 14:25:00.183,3112.0,-4940.0,2085.0,357.0,101.0,-20.0,236,143,171,156,148
2025-02-26 14:25:00.191,2909.0,-4068.0,1838.0,304.0,180.0,97.0,196,96,126,112,103
2025-02-26 14:25:00.195,2597.0,-2787.0,1796.0,191.0,208.0,160.0,201,102,133,117,108
2025-02-26 14:25:00.200,2264.0,-1850.0,1238.0,107.0,203.0,189.0,187,87,119,101,92
2025-02-26 14:25:00.204,1517.0,-1343.0,761.0,-5.0,201.0,210.0,204,104,129,116,108
2025-02-26 14:25:00.210,970.0,-1183.0,432.0,-100.0,189.0,222.0,244,151,167,164,155
2025-02-26 14:25:00.219,323.0,-1246.0,358.0,-187.0,151.0,229.0,204,108,124,124,113
2025-02-26 14:25:00.222,147.0,-1436.0,280.0,-272.0,102.0,224.0,180,80,100,98,85
2025-02-26 14:25:00.228,112.0,-1539.0,268.0,-286.0,14.0,212.0,180,80,101,96,85
2025-02-26 14:25:00.232,31.0,-1717.0,393.0,-281.0,-34.0,203.0,180,81,105,99,86
2025-02-26 14:25:00.240,166.0,-1739.0,427.0,-275.0,-94.0,199.0,181,82,103,100,87
2025-02-26 14:25:00.244,151.0,-1666.0,572.0,-266.0,-86.0,195.0,197,101,123,121,107
2025-02-26 14:25:00.248,243.0,-1632.0,696.0,-265.0,-77.0,195.0,208,112,134,132,117
2025-02-26 14:25:00.256,257.0,-1592.0,753.0,-244.0,-78.0,199.0,249,160,182,174,164
2025-02-26 14:25:00.258,179.0,-1478.0,705.0,-230.0,-69.0,207.0,233,141,163,159,145
2025-02-26 14:25:00.268,137.0,-1321.0,722.0,-222.0,-59.0,219.0,257,167,187,182,171
2025-02-26 14:25:00.272,28.0,-1201.0,638.0,-218.0,-54.0,231.0,224,129,153,148,136
2025-02-26 14:25:00.277,-31.0,-1113.0,563.0,-209.0,-57.0,242.0,213,118,138,134,123
2025-02-26 14:25:00.284,-91.0,-1050.0,524.0,-189.0,-61.0,244.0,195,100,118,117,104
2025-02-26 14:25:00.287,-146.0,-905.0,524.0,-174.0,-58.0,240.0,228,135,151,151,138
2025-02-26 14:25:00.293,-213.0,-827.0,518.0,-159.0,-38.0,234.0,238,148,164,164,152
2025-02-26 14:25:00.301,-195.0,-703.0,539.0,-141.0,-23.0,223.0,230,137,156,156,142
2025-02-26 14:25:00.306,-182.0,-490.0,493.0,-129.0,-10.0,209.0,224,130,151,149,135
2025-02-26 14:25:00.307,-264.0,-398.0,478.0,-124.0,-6.0,195.0,243,153,172,169,158
2025-02-26 14:25:00.317,-328.0,-320.0,412.0,-116.0,2.0,187.0,216,122,146,140,127
2025-02-26 14:25:00.322,-368.0,-272.0,329.0,-112.0,5.0,183.0,222,128,147,147,134
2025-02-26 14:25:00.326,-446.0,-249.0,238.0,-102.0,10.0,180.0,222,131,148,147,134
2025-02-26 14:25:00.331,-535.0,-217.0,245.0,-87.0,11.0,172.0,225,133,152,151,139
2025-02-26 14:25:00.338,-558.0,-157.0,241.0,-83.0,17.0,163.0,225,132,153,151,138
2025-02-26 14:25:00.343,-591.0,-189.0,178.0,-73.0,14.0,154.0,222,128,149,144,132
2025-02-26 14:25:00.351,-638.0,-154.0,143.0,-64.0,3.0,147.0,218,124,146,140,128
2025-02-26 14:25:00.359,-648.0,-126.0,134.0,-51.0,-12.0,141.0,221,127,149,145,133
2025-02-26 14:25:00.361,-630.0,-125.0,84.0,-46.0,-8.0,139.0,218,122,145,140,126
2025-02-26 14:25:00.367,-653.0,-136.0,72.0,-44.0,6.0,136.0,226,132,150,147,135
2025-02-26 14:25:00.370,-668.0,-178.0,44.0,-46.0,9.0,135.0,226,134,155,151,137
2025-02-26 14:25:00.375,-681.0,-173.0,39.0,-46.0,12.0,132.0,226,133,153,150,138
2025-02-26 14:25:00.379,-715.0,-134.0,46.0,-40.0,20.0,121.0,229,137,159,155,142
2025-02-26 14:25:00.387,-661.0,-98.0,105.0,-41.0,34.0,113.0,240,149,174,166,154
2025-02-26 14:25:00.391,-572.0,-63.0,128.0,-34.0,44.0,94.0,240,147,168,166,153
2025-02-26 14:25:00.396,-584.0,2.0,133.0,-31.0,58.0,79.0,236,147,168,161,153
2025-02-26 14:25:00.400,-618.0,30.0,131.0,-25.0,66.0,69.0,229,135,157,154,141
2025-02-26 14:25:00.408,-658.0,34.0,79.0,-19.0,78.0,66.0,228,141,162,159,146
2025-02-26 14:25:00.412,-714.0,38.0,63.0,-10.0,85.0,62.0,242,152,171,169,156
2025-02-26 14:25:00.416,-762.0,109.0,45.0,-13.0,84.0,56.0,239,149,169,166,152
2025-02-26 14:25:00.420,-821.0,174.0,-42.0,-5.0,82.0,53.0,239,147,170,166,151
2025-02-26 14:25:00.428,-854.0,183.0,-63.0,8.0,70.0,47.0,241,150,172,168,156
2025-02-26 14:25:00.432,-854.0,229.0,-54.0,14.0,63.0,38.0,241,150,168,164,154
2025-02-26 14:25:00.436,-841.0,307.0,-84.0,28.0,59.0,26.0,236,144,165,162,149
2025-02-26 14:25:00.441,-890.0,343.0,-120.0,40.0,54.0,19.0,227,135,157,153,140
2025-02-26 14:25:00.448,-927.0,377.0,-140.0,48.0,49.0,3.0,237,146,167,164,151
2025-02-26 14:25:00.451,-942.0,422.0,-146.0,49.0,43.0,-12.0,233,143,163,159,146
2025-02-26 14:25:00.458,-982.0,466.0,-185.0,52.0,43.0,-25.0,236,144,167,164,151
2025-02-26 14:25:00.465,-1011.0,514.0,-143.0,56.0,41.0,-39.0,239,146,169,164,152
2025-02-26 14:25:00.470,-1085.0,553.0,-99.0,61.0,40.0,-48.0,234,142,162,158,146
2025-02-26 14:25:00.473,-1128.0,653.0,-75.0,73.0,42.0,-70.0,239,148,170,166,154
2025-02-26 14:25:00.481,-1134.0,741.0,-72.0,83.0,39.0,-98.0,230,139,160,156,145
2025-02-26 14:25:00.486,-1147.0,801.0,-88.0,104.0,36.0,-128.0,224,133,154,150,137
2025-02-26 14:25:00.490,-1147.0,836.0,-53.0,126.0,28.0,-158.0,216,122,144,142,127
2025-02-26 14:25:00.495,-1094.0,820.0,-59.0,146.0,20.0,-174.0,186,92,115,111,98
2025-02-26 14:25:00.501,-1004.0,797.0,-74.0,164.0,13.0,-206.0,198,105,128,122,111
2025-02-26 14:25:00.507,-878.0,769.0,-93.0,174.0,10.0,-239.0,203,109,126,127,115
2025-02-26 14:25:00.511,-750.0,728.0,-111.0,179.0,6.0,-272.0,205,110,133,128,116
2025-02-26 14:25:00.519,-604.0,664.0,-125.0,184.0,-6.0,-307.0,219,125,149,143,132
2025-02-26 14:25:00.523,-529.0,569.0,-169.0,189.0,-14.0,-342.0,212,119,142,136,124
2025-02-26 14:25:00.531,-393.0,428.0,-209.0,188.0,-30.0,-374.0,220,127,148,146,133
2025-02-26 14:25:00.535,-272.0,348.0,-190.0,189.0,-48.0,-389.0,219,126,150,145,135
2025-02-26 14:25:00.539,-105.0,105.0,-115.0,190.0,-73.0,-417.0,218,126,148,143,132
2025-02-26 14:25:00.547,122.0,-152.0,-96.0,205.0,-108.0,-441.0,219,125,148,144,131
2025-02-26 14:25:00.551,396.0,-491.0,14.0,221.0,-141.0,-465.0,221,128,150,146,133
2025-02-26 14:25:00.555,642.0,-799.0,166.0,228.0,-173.0,-482.0,222,130,150,145,135
2025-02-26 14:25:00.563,934.0,-1151.0,333.0,243.0,-203.0,-487.0,219,125,148,143,132
2025-02-26 14:25:00.568,1125.0,-1674.0,605.0,250.0,-215.0,-472.0,221,126,148,142,132
2025-02-26 14:25:00.572,1536.0,-2384.0,927.0,233.0,-219.0,-432.0,222,128,152,146,137
2025-02-26 14:25:00.580,1989.0,-3281.0,1362.0,203.0,-185.0,-370.0,217,122,145,138,129
2025-02-26 14:25:00.584,2423.0,-4189.0,1967.0,127.0,-109.0,-275.0,208,111,137,127,120
2025-02-26 14:25:00.592,2752.0,-5052.0,2154.0,77.0,10.0,-143.0,191,94,120,108,102
2025-02-26 14:25:00.597,2529.0,-5192.0,1965.0,90.0,148.0,-75.0,190,90,119,102,96
2025-02-26 14:25:00.598,2342.0,-4787.0,1987.0,228.0,218.0,43.0,188,90,115,103,97
2025-02-26 14:25:00.608,2279.0,-4169.0,1995.0,176.0,233.0,116.0,190,93,121,104,98
2025-02-26 14:25:00.613,2151.0,-2878.0,1849.0,143.0,247.0,149.0,188,91,121,101,96
2025-02-26 14:25:00.617,1484.0,-2087.0,1616.0,72.0,234.0,160.0,174,75,108,87,81
2025-02-26 14:25:00.625,1340.0,-1265.0,870.0,-69.0,222.0,150.0,173,73,105,88,80
2025-02-26 14:25:00.629,1201.0,-1174.0,618.0,-157.0,145.0,141.0,175,75,104,89,82
2025-02-26 14:25:00.634,811.0,-1222.0,363.0,-250.0,58.0,120.0,178,80,103,91,85
2025-02-26 14:25:00.638,453.0,-1254.0,95.0,-251.0,-14.0,110.0,183,88,108,101,93
2025-02-26 14:25:00.645,227.0,-1638.0,-171.0,-232.0,-42.0,130.0,182,84,103,100,90
2025-02-26 14:25:00.647,169.0,-1789.0,-172.0,-227.0,-60.0,147.0,180,83,102,99,89
2025-02-26 14:25:00.654,254.0,-1925.0,-195.0,-250.0,-42.0,159.0,179,84,104,99,90
2025-02-26 14:25:00.661,152.0,-2014.0,-214.0,-335.0,2.0,164.0,177,81,102,97,86
2025-02-26 14:25:00.666,290.0,-2034.0,-2.0,-340.0,4.0,167.0,175,78,97,97,86
2025-02-26 14:25:00.670,299.0,-1965.0,-4.0,-321.0,-21.0,160.0,173,75,98,94,82
2025-02-26 14:25:00.674,213.0,-1961.0,145.0,-302.0,-77.0,161.0,173,82,97,94,80
2025-02-26 14:25:00.682,304.0,-1912.0,78.0,-251.0,-116.0,167.0,176,78,100,98,85
2025-02-26 14:25:00.687,348.0,-1825.0,201.0,-225.0,-117.0,180.0,175,75,99,96,89
2025-02-26 14:25:00.689,280.0,-1631.0,169.0,-212.0,-94.0,202.0,168,73,94,89,79
2025-02-26 14:25:00.699,267.0,-1616.0,63.0,-183.0,-90.0,226.0,164,59,89,85,73
2025-02-26 14:25:00.701,346.0,-1543.0,211.0,-161.0,-81.0,236.0,164,69,89,86,76
2025-02-26 14:25:00.707,349.0,-1365.0,87.0,-168.0,-91.0,247.0,163,65,86,84,74
2025-02-26 14:25:00.711,274.0,-1306.0,150.0,-172.0,-97.0,259.0,164,66,85,83,75
2025-02-26 14:25:00.719,285.0,-1128.0,139.0,-189.0,-96.0,268.0,163,65,83,83,74
2025-02-26 14:25:00.723,268.0,-1047.0,79.0,-230.0,-88.0,272.0,161,66,86,84,75
2025-02-26 14:25:00.725,232.0,-912.0,47.0,-269.0,-83.0,278.0,163,67,88,83,74
2025-02-26 14:25:00.731,178.0,-768.0,-192.0,-310.0,-70.0,278.0,164,66,89,85,77
2025-02-26 14:25:00.740,207.0,-641.0,268.0,-330.0,-41.0,288.0,162,66,87,83,76
2025-02-26 14:25:00.743,59.0,-607.0,-26.0,-294.0,-10.0,295.0,163,66,89,84,76
2025-02-26 14:25:00.748,-66.0,-607.0,114.0,-263.0,4.0,304.0,163,68,92,87,76
2025-02-26 14:25:00.752,-100.0,-562.0,233.0,-237.0,14.0,308.0,165,70,89,86,77
2025-02-26 14:25:00.760,-144.0,-436.0,117.0,-189.0,29.0,309.0,162,67,88,83,77
2025-02-26 14:25:00.764,-195.0,-440.0,91.0,-112.0,11.0,304.0,164,70,89,87,79
2025-02-26 14:25:00.769,-286.0,-333.0,202.0,-69.0,-13.0,293.0,163,70,92,88,83
2025-02-26 14:25:00.773,-308.0,-183.0,310.0,-23.0,-20.0,285.0,165,73,94,88,83
2025-02-26 14:25:00.780,-321.0,-147.0,195.0,28.0,-19.0,281.0,166,75,96,92,86
2025-02-26 14:25:00.785,-422.0,48.0,167.0,53.0,-10.0,271.0,164,74,96,92,87
2025-02-26 14:25:00.789,-458.0,205.0,341.0,69.0,16.0,270.0,162,73,93,91,85
2025-02-26 14:25:00.792,-471.0,256.0,273.0,92.0,33.0,269.0,162,75,96,93,88
2025-02-26 14:25:00.798,-521.0,403.0,285.0,120.0,62.0,267.0,165,77,97,94,89
2025-02-26 14:25:00.805,-661.0,623.0,326.0,118.0,78.0,255.0,161,74,96,92,89
2025-02-26 14:25:00.809,-737.0,635.0,214.0,128.0,79.0,248.0,159,74,97,93,89
2025-02-26 14:25:00.814,-803.0,702.0,168.0,118.0,83.0,226.0,166,79,99,95,94
2025-02-26 14:25:00.817,-942.0,773.0,137.0,126.0,97.0,199.0,161,77,96,96,92
2025-02-26 14:25:00.826,-962.0,807.0,47.0,140.0,103.0,169.0,160,75,94,94,91
2025-02-26 14:25:00.829,-1059.0,856.0,19.0,162.0,107.0,152.0,161,79,95,98,94
2025-02-26 14:25:00.834,-1009.0,810.0,103.0,174.0,121.0,125.0,163,79,94,100,95
2025-02-26 14:25:00.838,-1045.0,901.0,-57.0,190.0,119.0,93.0,159,75,92,99,95
2025-02-26 14:25:00.842,-1081.0,866.0,-32.0,191.0,113.0,80.0,160,78,93,96,96
2025-02-26 14:25:00.850,-1033.0,868.0,-87.0,190.0,108.0,50.0,162,83,95,99,99
2025-02-26 14:25:00.854,-1000.0,884.0,-263.0,181.0,107.0,23.0,161,81,95,101,98
2025-02-26 14:25:00.859,-1003.0,815.0,-261.0,191.0,91.0,13.0,160,81,94,102,100
2025-02-26 14:25:00.864,-1012.0,719.0,-315.0,192.0,88.0,0.0,160,85,94,104,102
2025-02-26 14:25:00.871,-955.0,754.0,-340.0,205.0,86.0,-21.0,161,87,96,104,101
2025-02-26 14:25:00.875,-975.0,746.0,-543.0,206.0,70.0,-40.0,160,88,95,104,103
2025-02-26 14:25:00.876,-985.0,692.0,-446.0,205.0,67.0,-64.0,159,91,96,104,102
2025-02-26 14:25:00.887,-981.0,684.0,-578.0,189.0,56.0,-79.0,159,97,100,105,105
2025-02-26 14:25:00.891,-946.0,665.0,-694.0,173.0,25.0,-99.0,158,100,104,106,106
2025-02-26 14:25:00.894,-1027.0,758.0,-754.0,167.0,-26.0,-133.0,159,112,109,105,104
2025-02-26 14:25:00.903,-1103.0,817.0,-917.0,149.0,-101.0,-169.0,157,107,113,103,105
2025-02-26 14:25:00.908,-1091.0,840.0,-525.0,135.0,-135.0,-193.0,155,108,116,98,105
2025-02-26 14:25:00.915,-1017.0,1135.0,-95.0,137.0,-138.0,-225.0,156,112,122,98,107
2025-02-26 14:25:00.920,-939.0,805.0,71.0,133.0,-129.0,-245.0,152,112,121,94,104
2025-02-26 14:25:00.924,-820.0,611.0,-66.0,144.0,-105.0,-252.0,150,112,121,93,103
2025-02-26 14:25:00.932,-538.0,389.0,-383.0,151.0,-89.0,-266.0,149,115,126,96,102
2025-02-26 14:25:00.937,-263.0,410.0,-410.0,158.0,-77.0,-289.0,147,116,128,97,102
2025-02-26 14:25:00.941,-77.0,400.0,-205.0,193.0,-50.0,-308.0,144,119,128,97,99
2025-02-26 14:25:00.945,-41.0,281.0,-364.0,212.0,-43.0,-319.0,142,117,127,96,98
2025-02-26 14:25:00.953,-12.0,225.0,-318.0,247.0,-39.0,-329.0,139,117,130,96,96
2025-02-26 14:25:00.957,10.0,214.0,-277.0,269.0,-39.0,-340.0,130,114,131,92,93
2025-02-26 14:25:00.961,-19.0,207.0,-373.0,288.0,-45.0,-359.0,135,117,130,97,96
2025-02-26 14:25:00.968,188.0,110.0,-76.0,318.0,-65.0,-379.0,134,120,133,96,95
2025-02-26 14:25:00.974,282.0,155.0,-131.0,313.0,-72.0,-403.0,131,119,130,93,92
2025-02-26 14:25:00.978,342.0,-20.0,28.0,358.0,-108.0,-425.0,131,120,130,95,92
2025-02-26 14:25:00.982,487.0,-277.0,-1.0,379.0,-134.0,-437.0,133,122,132,96,94
2025-02-26 14:25:00.990,447.0,-561.0,9.0,375.0,-181.0,-463.0,131,122,133,94,93
2025-02-26 14:25:00.993,586.0,-691.0,263.0,386.0,-232.0,-485.0,131,126,131,95,94
2025-02-26 14:25:00.999,681.0,-987.0,479.0,403.0,-265.0,-510.0,130,124,131,93,91
2025-02-26 14:25:01.006,855.0,-1221.0,726.0,388.0,-337.0,-522.0,130,126,133,93,91
2025-02-26 14:25:01.009,1143.0,-1394.0,1368.0,374.0,-390.0,-518.0,130,128,133,93,92
2025-02-26 14:25:01.014,1586.0,-1958.0,2333.0,351.0,-399.0,-477.0,133,134,136,96,94
2025-02-26 14:25:01.022,1866.0,-2311.0,2744.0,348.0,-341.0,-392.0,133,134,134,96,95
2025-02-26 14:25:01.026,2036.0,-2576.0,3096.0,281.0,-253.0,-291.0,133,137,134,97,96
2025-02-26 14:25:01.034,2164.0,-2454.0,3139.0,170.0,-162.0,-191.0,134,139,133,98,97
2025-02-26 14:25:01.039,2284.0,-2418.0,3347.0,115.0,-71.0,-93.0,134,138,134,99,96
2025-02-26 14:25:01.043,2299.0,-2798.0,3051.0,23.0,10.0,3.0,132,135,134,99,96
2025-02-26 14:25:01.050,2094.0,-3100.0,2763.0,-59.0,44.0,85.0,129,134,133,97,94
2025-02-26 14:25:01.054,1584.0,-3272.0,2321.0,-114.0,98.0,119.0,132,138,136,102,97
2025-02-26 14:25:01.059,1469.0,-2934.0,2108.0,-151.0,129.0,165.0,129,138,135,102,95
2025-02-26 14:25:01.064,1163.0,-2542.0,1719.0,-184.0,134.0,188.0,128,137,134,101,93
2025-02-26 14:25:01.069,848.0,-2249.0,1518.0,-216.0,128.0,199.0,127,137,135,101,91
2025-02-26 14:25:01.076,575.0,-1929.0,1225.0,-231.0,109.0,199.0,130,139,138,103,92
2025-02-26 14:25:01.083,400.0,-1796.0,1038.0,-251.0,83.0,193.0,130,138,137,103,91
2025-02-26 14:25:01.088,341.0,-1792.0,922.0,-256.0,65.0,181.0,126,136,137,102,90
2025-02-26 14:25:01.092,256.0,-1781.0,858.0,-253.0,34.0,175.0,126,137,137,105,89
2025-02-26 14:25:01.100,249.0,-1763.0,758.0,-250.0,1.0,166.0,127,138,139,102,91
2025-02-26 14:25:01.104,209.0,-1747.0,770.0,-239.0,-26.0,159.0,127,138,138,103,92
2025-02-26 14:25:01.108,256.0,-1671.0,867.0,-239.0,-40.0,155.0,128,136,138,103,91
2025-02-26 14:25:01.117,307.0,-1593.0,895.0,-223.0,-49.0,154.0,129,139,141,105,93
2025-02-26 14:25:01.120,342.0,-1518.0,851.0,-221.0,-53.0,156.0,127,135,141,103,90
2025-02-26 14:25:01.125,366.0,-1456.0,808.0,-220.0,-53.0,164.0,127,136,137,102,90
2025-02-26 14:25:01.131,406.0,-1449.0,825.0,-210.0,-50.0,169.0,128,135,138,101,90
2025-02-26 14:25:01.137,391.0,-1413.0,779.0,-204.0,-43.0,180.0,131,139,140,106,95
2025-02-26 14:25:01.141,390.0,-1334.0,727.0,-205.0,-37.0,193.0,132,138,141,106,93
2025-02-26 14:25:01.149,369.0,-1268.0,725.0,-201.0,-29.0,208.0,131,138,140,104,93
2025-02-26 14:25:01.154,318.0,-1193.0,648.0,-202.0,-18.0,224.0,131,140,142,107,96
2025-02-26 14:25:01.158,309.0,-1102.0,591.0,-205.0,-16.0,238.0,129,137,137,105,94
2025-02-26 14:25:01.165,283.0,-968.0,563.0,-201.0,-9.0,251.0,130,136,137,104,92
2025-02-26 14:25:01.168,241.0,-921.0,532.0,-197.0,-1.0,257.0,131,138,141,107,96
2025-02-26 14:25:01.174,180.0,-809.0,491.0,-189.0,7.0,269.0,134,139,143,110,98
2025-02-26 14:25:01.179,121.0,-686.0,411.0,-184.0,12.0,277.0,133,137,141,107,95
2025-02-26 14:25:01.186,96.0,-626.0,421.0,-170.0,18.0,284.0,129,136,142,106,94
2025-02-26 14:25:01.190,41.0,-590.0,287.0,-156.0,21.0,285.0,129,134,139,106,94
2025-02-26 14:25:01.194,-25.0,-511.0,282.0,-147.0,27.0,286.0,132,137,142,110,98
2025-02-26 14:25:01.202,-89.0,-436.0,251.0,-136.0,36.0,285.0,131,139,147,109,97
2025-02-26 14:25:01.207,-104.0,-361.0,256.0,-128.0,50.0,279.0,131,137,140,108,96
2025-02-26 14:25:01.211,-181.0,-241.0,257.0,-112.0,60.0,270.0,129,136,139,106,95
2025-02-26 14:25:01.216,-201.0,-130.0,206.0,-101.0,70.0,266.0,128,133,138,107,96
2025-02-26 14:25:01.223,-306.0,-48.0,217.0,-85.0,80.0,256.0,132,139,142,109,97
2025-02-26 14:25:01.227,-376.0,2.0,140.0,-78.0,84.0,243.0,129,136,142,108,96
2025-02-26 14:25:01.232,-448.0,124.0,82.0,-76.0,86.0,232.0,128,136,140,107,95
2025-02-26 14:25:01.239,-479.0,187.0,88.0,-70.0,87.0,223.0,129,135,141,109,95
2025-02-26 14:25:01.243,-531.0,227.0,104.0,-67.0,94.0,217.0,129,136,141,108,96
2025-02-26 14:25:01.247,-596.0,254.0,48.0,-79.0,93.0,207.0,128,136,143,109,95
2025-02-26 14:25:01.252,-629.0,351.0,29.0,-83.0,93.0,198.0,128,136,142,110,97
2025-02-26 14:25:01.259,-659.0,388.0,-42.0,-87.0,92.0,195.0,126,134,140,108,94
2025-02-26 14:25:01.265,-692.0,407.0,-59.0,-84.0,90.0,184.0,127,134,141,109,95
2025-02-26 14:25:01.269,-728.0,428.0,-118.0,-85.0,80.0,169.0,128,135,141,110,94
2025-02-26 14:25:01.276,-790.0,503.0,-184.0,-91.0,67.0,155.0,128,138,143,112,96
2025-02-26 14:25:01.280,-799.0,523.0,-179.0,-80.0,64.0,140.0,125,134,140,108,93
2025-02-26 14:25:01.282,-838.0,526.0,-261.0,-69.0,52.0,130.0,123,131,139,113,92
2025-02-26 14:25:01.287,-912.0,534.0,-311.0,-63.0,35.0,111.0,125,134,140,108,95
2025-02-26 14:25:01.297,-922.0,634.0,-264.0,-45.0,22.0,90.0,129,136,141,111,95
2025-02-26 14:25:01.301,-990.0,704.0,-312.0,-36.0,11.0,69.0,125,135,141,108,94
2025-02-26 14:25:01.305,-1022.0,783.0,-311.0,-14.0,4.0,45.0,124,131,133,106,92
2025-02-26 14:25:01.311,-1073.0,819.0,-288.0,4.0,-8.0,32.0,126,134,140,109,94
2025-02-26 14:25:01.317,-1107.0,938.0,-311.0,22.0,-20.0,7.0,125,126,142,111,90
2025-02-26 14:25:01.321,-1174.0,1055.0,-296.0,32.0,-31.0,-18.0,126,135,142,110,97
2025-02-26 14:25:01.329,-1185.0,1103.0,-280.0,58.0,-33.0,-42.0,126,130,136,107,93
2025-02-26 14:25:01.330,-1244.0,1251.0,-64.0,64.0,-28.0,-68.0,125,133,141,109,91
2025-02-26 14:25:01.337,-1224.0,1234.0,-235.0,78.0,-34.0,-80.0,126,131,141,108,93
2025-02-26 14:25:01.342,-1203.0,1304.0,-151.0,100.0,-38.0,-111.0,125,134,140,110,95
2025-02-26 14:25:01.350,-1167.0,1253.0,-99.0,114.0,-32.0,-145.0,125,132,141,111,95
2025-02-26 14:25:01.354,-1079.0,1195.0,-152.0,136.0,-31.0,-182.0,128,135,136,110,97
2025-02-26 14:25:01.362,-941.0,1028.0,-140.0,153.0,-24.0,-219.0,126,133,140,109,95
2025-02-26 14:25:01.366,-832.0,852.0,-213.0,175.0,-16.0,-253.0,125,132,141,110,96
2025-02-26 14:25:01.370,-757.0,771.0,-194.0,197.0,-8.0,-286.0,122,131,140,108,94
2025-02-26 14:25:01.378,-638.0,693.0,-207.0,218.0,0.0,-319.0,123,131,141,109,95
2025-02-26 14:25:01.382,-483.0,630.0,-195.0,243.0,1.0,-335.0,124,133,141,110,98
2025-02-26 14:25:01.384,-345.0,574.0,-240.0,264.0,-3.0,-365.0,124,132,140,111,96
2025-02-26 14:25:01.394,-190.0,484.0,-168.0,271.0,-12.0,-396.0,125,135,140,115,92
2025-02-26 14:25:01.396,-75.0,310.0,-168.0,279.0,-31.0,-425.0,123,131,141,111,95
2025-02-26 14:25:01.403,-6.0,119.0,-58.0,288.0,-41.0,-456.0,121,129,138,109,95
2025-02-26 14:25:01.408,165.0,51.0,-41.0,289.0,-70.0,-471.0,120,131,138,109,95
2025-02-26 14:25:01.415,322.0,-241.0,-54.0,288.0,-109.0,-502.0,124,132,144,116,98
2025-02-26 14:25:01.419,461.0,-576.0,3.0,279.0,-155.0,-535.0,123,131,141,113,97
2025-02-26 14:25:01.421,719.0,-984.0,167.0,272.0,-200.0,-569.0,124,128,142,111,96
2025-02-26 14:25:01.431,876.0,-1568.0,478.0,237.0,-223.0,-581.0,122,129,139,111,95
2025-02-26 14:25:01.436,1212.0,-2431.0,931.0,176.0,-242.0,-557.0,125,130,139,111,95
2025-02-26 14:25:01.444,1629.0,-2861.0,1537.0,107.0,-236.0,-535.0,126,130,140,113,96
2025-02-26 14:25:01.449,2088.0,-3509.0,2848.0,262.0,-222.0,-454.0,126,132,137,111,96
2025-02-26 14:25:01.453,2300.0,-4375.0,1963.0,341.0,-172.0,-330.0,131,135,142,115,101
2025-02-26 14:25:01.457,2578.0,-4409.0,2317.0,307.0,-99.0,-188.0,129,135,142,112,99
2025-02-26 14:25:01.465,2924.0,-3943.0,2316.0,278.0,-50.0,-63.0,130,136,141,110,99
2025-02-26 14:25:01.469,2752.0,-3463.0,2412.0,183.0,4.0,35.0,133,135,142,108,99
2025-02-26 14:25:01.476,2534.0,-3179.0,2688.0,119.0,63.0,127.0,132,134,140,107,98
2025-02-26 14:25:01.481,1741.0,-2968.0,2444.0,-13.0,109.0,182.0,130,133,137,106,95
2025-02-26 14:25:01.489,1431.0,-2543.0,2133.0,-120.0,127.0,218.0,132,132,137,104,94
2025-02-26 14:25:01.494,1074.0,-2139.0,1718.0,-221.0,143.0,239.0,130,132,138,106,95
2025-02-26 14:25:01.498,822.0,-1987.0,1365.0,-305.0,141.0,241.0,131,131,138,107,94
2025-02-26 14:25:01.505,529.0,-1869.0,989.0,-358.0,132.0,238.0,132,135,138,109,95
2025-02-26 14:25:01.509,403.0,-1721.0,772.0,-396.0,112.0,234.0,130,130,139,108,94
2025-02-26 14:25:01.514,336.0,-1717.0,514.0,-404.0,93.0,229.0,132,133,141,111,96
2025-02-26 14:25:01.517,269.0,-1802.0,326.0,-397.0,73.0,223.0,129,132,140,110,93
2025-02-26 14:25:01.526,234.0,-1891.0,259.0,-372.0,66.0,217.0,126,129,138,112,93
2025-02-26 14:25:01.530,204.0,-1968.0,230.0,-334.0,57.0,213.0,125,128,137,110,92
2025-02-26 14:25:01.538,208.0,-1959.0,194.0,-281.0,46.0,210.0,128,128,140,114,93
2025-02-26 14:25:01.542,136.0,-1873.0,173.0,-235.0,31.0,207.0,129,129,140,116,95
2025-02-26 14:25:01.547,125.0,-1757.0,205.0,-188.0,19.0,212.0,128,130,146,115,95
2025-02-26 14:25:01.551,146.0,-1584.0,250.0,-169.0,13.0,223.0,129,128,140,114,96
2025-02-26 14:25:01.559,152.0,-1397.0,291.0,-141.0,13.0,235.0,127,126,139,115,95
2025-02-26 14:25:01.563,192.0,-1218.0,297.0,-121.0,12.0,241.0,127,128,140,116,96
2025-02-26 14:25:01.568,279.0,-1147.0,273.0,-109.0,20.0,256.0,127,128,141,115,98
2025-02-26 14:25:01.572,353.0,-915.0,245.0,-102.0,33.0,265.0,128,134,143,115,101
2025-02-26 14:25:01.579,372.0,-702.0,251.0,-100.0,50.0,265.0,125,129,142,113,101
2025-02-26 14:25:01.584,281.0,-596.0,309.0,-109.0,74.0,263.0,123,129,141,112,101
2025-02-26 14:25:01.592,261.0,-610.0,448.0,-136.0,86.0,262.0,123,128,138,112,101
2025-02-26 14:25:01.596,102.0,-459.0,406.0,-173.0,107.0,257.0,123,128,140,112,104
2025-02-26 14:25:01.597,-99.0,-442.0,233.0,-193.0,120.0,255.0,126,131,141,111,107
2025-02-26 14:25:01.608,-135.0,-284.0,209.0,-220.0,120.0,249.0,125,128,140,112,106
2025-02-26 14:25:01.612,-247.0,-238.0,68.0,-200.0,96.0,257.0,124,131,138,111,110
2025-02-26 14:25:01.617,-189.0,-221.0,-429.0,-190.0,59.0,259.0,124,131,139,113,110
2025-02-26 14:25:01.624,-291.0,-158.0,-13.0,-176.0,56.0,258.0,128,128,134,110,110
2025-02-26 14:25:01.629,-345.0,-42.0,-83.0,-138.0,54.0,252.0,128,128,135,109,111
2025-02-26 14:25:01.633,-337.0,10.0,-207.0,-93.0,53.0,251.0,132,129,134,110,112
2025-02-26 14:25:01.641,-359.0,79.0,-16.0,-73.0,58.0,242.0,133,129,133,109,114
2025-02-26 14:25:01.645,-371.0,288.0,253.0,-55.0,69.0,238.0,136,129,131,108,112
2025-02-26 14:25:01.650,-399.0,259.0,-602.0,-66.0,45.0,225.0,134,126,129,108,111
2025-02-26 14:25:01.657,-387.0,302.0,-156.0,-69.0,48.0,215.0,138,123,126,108,112
2025-02-26 14:25:01.662,-469.0,390.0,-202.0,-78.0,57.0,209.0,140,119,123,107,110
2025-02-26 14:25:01.666,-616.0,508.0,-244.0,-80.0,59.0,196.0,142,118,124,110,112
2025-02-26 14:25:01.674,-731.0,575.0,-282.0,-62.0,63.0,181.0,144,113,121,111,113
2025-02-26 14:25:01.678,-862.0,601.0,-421.0,-61.0,49.0,165.0,146,114,119,113,114
2025-02-26 14:25:01.682,-1013.0,644.0,-425.0,-61.0,34.0,140.0,145,104,114,112,112
2025-02-26 14:25:01.690,-1110.0,578.0,-392.0,-71.0,27.0,118.0,147,99,112,111,111
2025-02-26 14:25:01.694,-1127.0,518.0,-234.0,-83.0,21.0,111.0,144,96,107,110,112
2025-02-26 14:25:01.698,-1027.0,570.0,-282.0,-83.0,22.0,89.0,148,95,108,113,116
2025-02-26 14:25:01.702,-964.0,684.0,-339.0,-91.0,14.0,64.0,149,90,107,112,114
2025-02-26 14:25:01.710,-951.0,818.0,-398.0,-93.0,1.0,38.0,148,91,101,112,115
2025-02-26 14:25:01.715,-896.0,935.0,-328.0,-99.0,-6.0,15.0,150,87,101,110,115
2025-02-26 14:25:01.726,-850.0,945.0,-384.0,-91.0,-21.0,2.0,151,87,99,110,114
2025-02-26 14:25:01.728,-928.0,1024.0,-415.0,-84.0,-38.0,-20.0,148,85,96,108,113
2025-02-26 14:25:01.731,-992.0,1084.0,-331.0,-79.0,-55.0,-41.0,149,84,94,103,111
2025-02-26 14:25:01.735,-1123.0,1057.0,-285.0,-63.0,-62.0,-64.0,151,82,94,102,108
2025-02-26 14:25:01.742,-1201.0,1152.0,-235.0,-38.0,-70.0,-98.0,148,78,91,100,109
2025-02-26 14:25:01.747,-1283.0,1163.0,-76.0,-8.0,-75.0,-111.0,148,77,87,95,105
2025-02-26 14:25:01.749,-1268.0,1184.0,-93.0,36.0,-82.0,-140.0,150,78,90,97,104
2025-02-26 14:25:01.756,-1196.0,1206.0,-123.0,85.0,-103.0,-172.0,152,77,90,95,104
2025-02-26 14:25:01.764,-1197.0,1225.0,12.0,102.0,-121.0,-208.0,152,75,88,94,99
2025-02-26 14:25:01.768,-1147.0,1141.0,-21.0,149.0,-130.0,-243.0,150,69,87,92,98
2025-02-26 14:25:01.772,-1045.0,1160.0,-142.0,179.0,-154.0,-278.0,152,72,86,92,94
2025-02-26 14:25:01.780,-954.0,1167.0,-96.0,204.0,-164.0,-292.0,150,73,84,89,92
2025-02-26 14:25:01.784,-839.0,1194.0,-47.0,241.0,-155.0,-315.0,151,70,88,91,91
2025-02-26 14:25:01.789,-715.0,1101.0,-118.0,253.0,-149.0,-336.0,152,67,87,90,86
2025-02-26 14:25:01.796,-463.0,1013.0,164.0,273.0,-109.0,-357.0,154,68,88,89,84
2025-02-26 14:25:01.801,-361.0,900.0,154.0,280.0,-82.0,-373.0,152,65,84,83,77
2025-02-26 14:25:01.805,-152.0,790.0,-47.0,279.0,-48.0,-381.0,152,66,86,85,77
2025-02-26 14:25:01.809,-10.0,539.0,85.0,291.0,-2.0,-396.0,153,65,90,87,74
2025-02-26 14:25:01.817,157.0,171.0,475.0,281.0,61.0,-398.0,150,64,87,85,73
2025-02-26 14:25:01.821,177.0,79.0,-200.0,265.0,58.0,-396.0,151,63,86,82,70
2025-02-26 14:25:01.825,141.0,-58.0,-158.0,247.0,41.0,-397.0,153,65,89,86,71
2025-02-26 14:25:01.829,480.0,-427.0,-152.0,246.0,12.0,-406.0,155,65,87,84,69
2025-02-26 14:25:01.834,552.0,-493.0,-124.0,269.0,-8.0,-434.0,155,60,86,83,70
2025-02-26 14:25:01.841,854.0,-581.0,-90.0,306.0,-85.0,-443.0,156,64,89,86,70
2025-02-26 14:25:01.846,940.0,-849.0,220.0,362.0,-97.0,-461.0,157,65,87,84,69
2025-02-26 14:25:01.850,1111.0,-1516.0,436.0,364.0,-128.0,-465.0,157,60,87,82,68
2025-02-26 14:25:01.858,987.0,-2127.0,842.0,343.0,-152.0,-442.0,161,66,88,82,67
2025-02-26 14:25:01.862,1053.0,-2493.0,1087.0,356.0,-182.0,-414.0,157,60,86,80,68
2025-02-26 14:25:01.866,1633.0,-3314.0,1519.0,334.0,-178.0,-337.0,162,64,87,80,70
2025-02-26 14:25:01.874,1971.0,-4139.0,1770.0,251.0,-97.0,-281.0,162,65,89,80,70
2025-02-26 14:25:01.879,1919.0,-4982.0,1765.0,212.0,-27.0,-167.0,163,69,90,78,68
2025-02-26 14:25:01.882,2402.0,-5052.0,2921.0,319.0,20.0,-42.0,162,66,96,77,67
2025-02-26 14:25:01.887,2564.0,-4354.0,2626.0,281.0,52.0,33.0,162,62,97,76,67
2025-02-26 14:25:01.895,1969.0,-4049.0,2578.0,273.0,96.0,60.0,166,67,102,79,71
2025-02-26 14:25:01.899,1724.0,-3015.0,2540.0,184.0,93.0,80.0,164,65,99,78,70
2025-02-26 14:25:01.903,1439.0,-2356.0,2001.0,120.0,74.0,97.0,163,62,93,75,67
2025-02-26 14:25:01.911,1086.0,-2070.0,1623.0,-14.0,57.0,108.0,162,63,91,76,68
2025-02-26 14:25:01.915,552.0,-1875.0,1316.0,-114.0,15.0,109.0,167,67,91,81,71
2025-02-26 14:25:01.920,279.0,-1715.0,1012.0,-153.0,-20.0,118.0,163,66,85,82,70
2025-02-26 14:25:01.924,201.0,-1725.0,747.0,-181.0,-23.0,130.0,165,67,84,84,70
2025-02-26 14:25:01.932,175.0,-1782.0,485.0,-206.0,-11.0,136.0,163,63,83,82,71
2025-02-26 14:25:01.936,79.0,-2012.0,597.0,-257.0,22.0,138.0,163,66,88,86,72
2025-02-26 14:25:01.940,142.0,-2030.0,537.0,-277.0,22.0,135.0,163,68,91,87,71
2025-02-26 14:25:01.944,117.0,-2045.0,657.0,-300.0,12.0,138.0,161,65,88,85,71
2025-02-26 14:25:01.949,157.0,-2174.0,782.0,-303.0,-8.0,146.0,160,64,85,85,69
2025-02-26 14:25:01.955,132.0,-2106.0,716.0,-272.0,-52.0,153.0,164,68,86,87,73
2025-02-26 14:25:01.961,126.0,-2046.0,741.0,-251.0,-53.0,163.0,163,66,89,87,71
2025-02-26 14:25:01.965,187.0,-1912.0,723.0,-248.0,-25.0,167.0,162,65,88,85,71
2025-02-26 14:25:01.973,131.0,-1820.0,702.0,-229.0,-12.0,175.0,161,63,87,84,71
2025-02-26 14:25:01.976,173.0,-1768.0,763.0,-212.0,-15.0,179.0,160,66,91,86,72
2025-02-26 14:25:01.980,208.0,-1659.0,759.0,-217.0,-20.0,191.0,165,67,90,85,72
2025-02-26 14:25:01.988,186.0,-1548.0,718.0,-218.0,-24.0,202.0,161,66,86,84,72
2025-02-26 14:25:01.992,149.0,-1366.0,663.0,-236.0,-23.0,210.0,161,64,85,82,71
2025-02-26 14:25:01.997,123.0,-1257.0,543.0,-250.0,-10.0,214.0,164,73,82,83,70
2025-02-26 14:25:02.002,111.0,-1021.0,500.0,-256.0,6.0,219.0,163,69,86,85,72
2025-02-26 14:25:02.010,39.0,-851.0,415.0,-263.0,23.0,224.0,162,67,84,83,72
2025-02-26 14:25:02.014,3.0,-679.0,293.0,-277.0,28.0,232.0,162,64,86,84,71
2025-02-26 14:25:02.018,-37.0,-593.0,269.0,-293.0,28.0,235.0,163,67,89,85,73
2025-02-26 14:25:02.022,-115.0,-493.0,209.0,-301.0,23.0,241.0,163,68,88,85,72
2025-02-26 14:25:02.030,-190.0,-416.0,174.0,-309.0,18.0,240.0,162,66,85,82,71
2025-02-26 14:25:02.034,-165.0,-350.0,158.0,-294.0,2.0,238.0,161,65,84,82,69
2025-02-26 14:25:02.039,-189.0,-399.0,176.0,-266.0,-15.0,225.0,163,67,88,84,72
2025-02-26 14:25:02.042,-187.0,-335.0,203.0,-253.0,-24.0,211.0,164,68,89,84,71
2025-02-26 14:25:02.050,-173.0,-375.0,216.0,-209.0,-27.0,193.0,162,66,87,84,71
2025-02-26 14:25:02.054,-117.0,-379.0,225.0,-176.0,-34.0,185.0,163,68,89,85,74
2025-02-26 14:25:02.058,-100.0,-393.0,260.0,-151.0,-28.0,177.0,162,67,91,87,74
2025-02-26 14:25:02.063,-159.0,-332.0,302.0,-142.0,-11.0,179.0,162,67,90,85,73
2025-02-26 14:25:02.069,-234.0,-307.0,145.0,-132.0,10.0,186.0,161,65,89,85,71
2025-02-26 14:25:02.075,-260.0,-264.0,138.0,-134.0,20.0,196.0,163,69,91,86,73
2025-02-26 14:25:02.079,-292.0,-230.0,113.0,-136.0,33.0,198.0,163,68,91,85,73
2025-02-26 14:25:02.084,-379.0,-128.0,76.0,-139.0,49.0,204.0,162,66,90,85,73
2025-02-26 14:25:02.088,-385.0,20.0,27.0,-140.0,57.0,207.0,161,67,90,84,71
2025-02-26 14:25:02.095,-462.0,83.0,-39.0,-125.0,67.0,205.0,161,66,89,85,73
2025-02-26 14:25:02.100,-483.0,235.0,-50.0,-104.0,59.0,198.0,163,68,89,86,74
2025-02-26 14:25:02.104,-557.0,350.0,-82.0,-89.0,46.0,182.0,161,67,89,85,71
2025-02-26 14:25:02.112,-568.0,385.0,-128.0,-72.0,40.0,175.0,160,66,88,85,71
2025-02-26 14:25:02.113,-613.0,543.0,-140.0,-59.0,32.0,159.0,163,68,92,87,75
2025-02-26 14:25:02.117,-667.0,657.0,-184.0,-57.0,31.0,147.0,163,67,89,86,75
2025-02-26 14:25:02.124,-719.0,769.0,-187.0,-54.0,25.0,130.0,161,64,87,84,72
2025-02-26 14:25:02.129,-809.0,797.0,-183.0,-48.0,17.0,120.0,162,68,90,85,74
2025-02-26 14:25:02.137,-861.0,901.0,-173.0,-43.0,8.0,103.0,163,68,90,86,75
2025-02-26 14:25:02.141,-884.0,1048.0,-124.0,-33.0,5.0,80.0,160,67,89,84,72
2025-02-26 14:25:02.145,-964.0,1079.0,-119.0,-15.0,-4.0,70.0,162,67,92,85,74
2025-02-26 14:25:02.150,-1033.0,1167.0,-87.0,20.0,-17.0,42.0,161,66,93,86,73
2025-02-26 14:25:02.155,-1028.0,1318.0,-20.0,38.0,-38.0,11.0,161,67,91,87,74
2025-02-26 14:25:02.161,-1079.0,1497.0,12.0,59.0,-46.0,-4.0,161,66,90,85,73
2025-02-26 14:25:02.165,-1177.0,1616.0,36.0,84.0,-59.0,-28.0,163,66,89,89,74
2025-02-26 14:25:02.167,-1274.0,1718.0,1.0,105.0,-64.0,-55.0,161,66,89,86,73
2025-02-26 14:25:02.176,-1204.0,1809.0,87.0,134.0,-64.0,-90.0,162,67,89,85,73
2025-02-26 14:25:02.180,-1139.0,1860.0,7.0,164.0,-64.0,-110.0,162,67,91,86,75
2025-02-26 14:25:02.185,-1105.0,1848.0,-17.0,189.0,-56.0,-152.0,162,67,91,86,73
2025-02-26 14:25:02.190,-1098.0,1799.0,-127.0,190.0,-46.0,-193.0,161,67,91,86,74
2025-02-26 14:25:02.197,-1131.0,1740.0,-171.0,209.0,-42.0,-231.0,160,67,91,86,74
2025-02-26 14:25:02.202,-1052.0,1656.0,-164.0,226.0,-33.0,-249.0,160,68,91,86,73
2025-02-26 14:25:02.206,-956.0,1583.0,-220.0,232.0,-36.0,-290.0,161,68,91,88,74
2025-02-26 14:25:02.214,-806.0,1387.0,-152.0,248.0,-41.0,-331.0,162,69,91,88,75
2025-02-26 14:25:02.218,-636.0,1206.0,-168.0,256.0,-53.0,-370.0,162,71,92,87,76
2025-02-26 14:25:02.223,-344.0,1054.0,-83.0,276.0,-59.0,-406.0,160,67,90,86,74
2025-02-26 14:25:02.227,-216.0,811.0,-5.0,297.0,-69.0,-422.0,159,67,90,87,73
2025-02-26 14:25:02.234,68.0,628.0,24.0,306.0,-74.0,-457.0,163,67,93,89,76
2025-02-26 14:25:02.239,255.0,273.0,51.0,302.0,-77.0,-491.0,162,67,92,89,76
2025-02-26 14:25:02.243,313.0,-141.0,92.0,302.0,-84.0,-521.0,161,66,91,86,74
2025-02-26 14:25:02.246,485.0,-264.0,240.0,293.0,-112.0,-530.0,162,67,93,87,77
2025-02-26 14:25:02.255,682.0,-622.0,370.0,283.0,-145.0,-537.0,164,70,95,88,77
2025-02-26 14:25:02.259,934.0,-1058.0,570.0,274.0,-166.0,-535.0,163,67,92,88,78
2025-02-26 14:25:02.264,1078.0,-1706.0,812.0,248.0,-171.0,-530.0,162,67,92,86,75
2025-02-26 14:25:02.270,1496.0,-2128.0,1176.0,215.0,-157.0,-521.0,161,65,91,86,76
2025-02-26 14:25:02.276,1920.0,-3108.0,1662.0,188.0,-122.0,-484.0,165,70,94,88,81
2025-02-26 14:25:02.280,2188.0,-4198.0,1829.0,146.0,-76.0,-422.0,163,68,93,87,80
2025-02-26 14:25:02.288,2528.0,-5462.0,2197.0,145.0,-12.0,-295.0,162,67,93,84,79
2025-02-26 14:25:02.288,2368.0,-6212.0,1693.0,154.0,79.0,-122.0,162,65,93,81,79
2025-02-26 14:25:02.296,2613.0,-6101.0,2368.0,263.0,108.0,21.0,159,69,96,84,80
2025-02-26 14:25:02.300,2720.0,-6036.0,1789.0,285.0,138.0,65.0,165,70,104,85,82
2025-02-26 14:25:02.308,1907.0,-4300.0,1761.0,235.0,175.0,125.0,166,67,105,85,78
2025-02-26 14:25:02.312,1636.0,-3563.0,1814.0,205.0,231.0,172.0,164,68,101,84,81
2025-02-26 14:25:02.317,1405.0,-2492.0,1474.0,76.0,225.0,184.0,164,68,97,83,81
2025-02-26 14:25:02.325,1216.0,-1448.0,966.0,-19.0,185.0,158.0,162,67,95,83,80
2025-02-26 14:25:02.329,856.0,-1366.0,776.0,-122.0,84.0,148.0,165,71,96,86,83
2025-02-26 14:25:02.333,261.0,-1235.0,666.0,-193.0,13.0,123.0,185,91,112,110,107
2025-02-26 14:25:02.337,297.0,-911.0,121.0,-199.0,-4.0,119.0,183,93,108,114,106
2025-02-26 14:25:02.345,155.0,-889.0,-293.0,-201.0,5.0,129.0,177,87,103,106,99
2025-02-26 14:25:02.350,-79.0,-1264.0,-25.0,-219.0,36.0,124.0,172,82,105,103,94
2025-02-26 14:25:02.354,-334.0,-1666.0,-33.0,-271.0,53.0,109.0,176,86,111,109,99
2025-02-26 14:25:02.361,-381.0,-1811.0,-523.0,-327.0,40.0,96.0,173,82,107,105,96
2025-02-26 14:25:02.366,-295.0,-1952.0,-296.0,-319.0,-31.0,87.0,173,82,103,108,96
2025-02-26 14:25:02.370,-275.0,-2132.0,-30.0,-357.0,-111.0,97.0,172,80,99,102,94
2025-02-26 14:25:02.377,-311.0,-2035.0,-102.0,-288.0,-129.0,110.0,172,82,102,105,95
2025-02-26 14:25:02.382,-65.0,-1936.0,-12.0,-271.0,-115.0,113.0,171,82,103,107,96
2025-02-26 14:25:02.385,-9.0,-1892.0,94.0,-247.0,-86.0,127.0,171,84,105,105,96
2025-02-26 14:25:02.394,70.0,-1854.0,296.0,-206.0,-57.0,149.0,173,84,108,107,100
2025-02-26 14:25:02.397,278.0,-1613.0,249.0,-211.0,-57.0,159.0,175,84,105,108,100
2025-02-26 14:25:02.403,284.0,-1591.0,315.0,-228.0,-69.0,179.0,172,82,102,106,98
2025-02-26 14:25:02.410,216.0,-1488.0,261.0,-259.0,-78.0,203.0,170,81,101,106,96
2025-02-26 14:25:02.415,147.0,-1337.0,175.0,-297.0,-103.0,209.0,174,85,104,106,100
2025-02-26 14:25:02.420,188.0,-1152.0,436.0,-303.0,-100.0,225.0,174,85,104,109,101
2025-02-26 14:25:02.427,105.0,-957.0,365.0,-320.0,-69.0,238.0,173,85,104,110,101
2025-02-26 14:25:02.432,1.0,-792.0,189.0,-307.0,-38.0,244.0,176,89,108,111,104
2025-02-26 14:25:02.434,-99.0,-684.0,22.0,-318.0,-20.0,250.0,176,87,110,114,104
2025-02-26 14:25:02.443,-148.0,-453.0,4.0,-329.0,-18.0,252.0,174,84,104,110,101
2025-02-26 14:25:02.447,-239.0,-392.0,371.0,-292.0,-3.0,253.0,172,82,104,105,97
2025-02-26 14:25:02.452,-285.0,-310.0,192.0,-246.0,-12.0,242.0,177,87,106,112,103
2025-02-26 14:25:02.458,-335.0,-193.0,133.0,-183.0,-28.0,222.0,177,88,110,107,105
2025-02-26 14:25:02.464,-375.0,-96.0,94.0,-155.0,-55.0,198.0,177,87,108,109,104
2025-02-26 14:25:02.469,-425.0,-80.0,80.0,-115.0,-66.0,176.0,173,84,107,108,102
2025-02-26 14:25:02.471,-404.0,23.0,85.0,-99.0,-74.0,155.0,176,88,109,109,106
2025-02-26 14:25:02.480,-365.0,20.0,92.0,-81.0,-63.0,147.0,177,89,110,113,107
2025-02-26 14:25:02.483,-379.0,-6.0,137.0,-67.0,-37.0,132.0,176,87,110,112,107
2025-02-26 14:25:02.488,-347.0,89.0,226.0,-56.0,0.0,120.0,171,83,108,108,103
2025-02-26 14:25:02.492,-370.0,67.0,78.0,-51.0,17.0,117.0,176,89,112,113,106
2025-02-26 14:25:02.501,-412.0,59.0,-75.0,-59.0,37.0,114.0,175,89,111,114,107
2025-02-26 14:25:02.505,-469.0,97.0,-163.0,-60.0,54.0,112.0,172,87,109,112,105
2025-02-26 14:25:02.509,-544.0,72.0,-119.0,-62.0,66.0,111.0,175,89,111,114,109
2025-02-26 14:25:02.517,-551.0,111.0,-136.0,-35.0,74.0,110.0,176,93,113,117,111
2025-02-26 14:25:02.521,-616.0,168.0,-132.0,13.0,75.0,106.0,178,93,115,120,112
2025-02-26 14:25:02.526,-728.0,116.0,-203.0,48.0,67.0,101.0,176,92,112,117,110
2025-02-26 14:25:02.530,-808.0,305.0,-342.0,54.0,48.0,95.0,175,90,110,113,108
2025-02-26 14:25:02.537,-828.0,335.0,-287.0,101.0,41.0,92.0,178,90,111,118,110
2025-02-26 14:25:02.542,-907.0,358.0,-56.0,144.0,39.0,90.0,182,100,120,125,119
2025-02-26 14:25:02.546,-872.0,473.0,-19.0,175.0,33.0,82.0,174,90,109,115,108
2025-02-26 14:25:02.550,-915.0,497.0,-155.0,185.0,2.0,62.0,171,87,106,113,106
2025-02-26 14:25:02.558,-935.0,551.0,-149.0,178.0,-11.0,38.0,169,75,103,110,102
2025-02-26 14:25:02.562,-903.0,648.0,-296.0,164.0,-26.0,27.0,170,84,103,109,104
2025-02-26 14:25:02.567,-1032.0,750.0,-319.0,155.0,-36.0,5.0,169,83,105,108,102
2025-02-26 14:25:02.575,-1092.0,823.0,-215.0,153.0,-47.0,-19.0,168,83,102,107,101
2025-02-26 14:25:02.579,-1089.0,797.0,-43.0,148.0,-57.0,-41.0,170,84,105,109,102
2025-02-26 14:25:02.583,-1064.0,771.0,-209.0,153.0,-66.0,-64.0,168,81,103,107,98
2025-02-26 14:25:02.591,-1079.0,860.0,-225.0,159.0,-77.0,-76.0,166,79,102,104,96
2025-02-26 14:25:02.595,-1141.0,877.0,327.0,99.0,-40.0,-107.0,167,81,103,105,94
2025-02-26 14:25:02.599,-1046.0,881.0,268.0,88.0,-7.0,-127.0,168,81,104,104,94
2025-02-26 14:25:02.603,-1104.0,893.0,254.0,87.0,19.0,-149.0,164,75,101,99,89
2025-02-26 14:25:02.611,-1074.0,845.0,231.0,82.0,33.0,-171.0,162,75,100,98,86
2025-02-26 14:25:02.616,-1038.0,871.0,363.0,80.0,69.0,-180.0,171,84,107,105,93
2025-02-26 14:25:02.620,-995.0,784.0,328.0,89.0,101.0,-200.0,166,82,108,104,91
