timestamp,ax,ay,az,gx,gy,gz,flex1,flex2,flex3,flex4,flex5,emg1,emg2,emg3
2025-02-25 18:25:12.216,-311.0,-943.0,289.0,-1.0,0.0,-1.0,184,158,149,164,161
2025-02-25 18:25:12.221,-311.0,-943.0,289.0,-1.0,0.0,-1.0,184,158,149,164,161
2025-02-25 18:25:12.226,-319.0,-952.0,290.0,-4.0,-1.0,-1.0,184,160,150,164,162
2025-02-25 18:25:12.228,-315.0,-950.0,284.0,-4.0,0.0,0.0,180,156,146,161,157
2025-02-25 18:25:12.230,-319.0,-952.0,288.0,-4.0,0.0,0.0,178,153,144,160,157
2025-02-25 18:25:12.232,-317.0,-950.0,290.0,-4.0,0.0,1.0,187,160,152,166,163
2025-02-25 18:25:12.235,-315.0,-943.0,281.0,-3.0,0.0,1.0,181,155,145,161,158
2025-02-25 18:25:12.237,-322.0,-942.0,280.0,-3.0,0.0,1.0,182,157,146,163,159
2025-02-25 18:25:12.240,-324.0,-935.0,279.0,-2.0,0.0,2.0,185,160,151,166,163
2025-02-25 18:25:12.242,-317.0,-930.0,285.0,-2.0,1.0,2.0,182,158,148,164,160
2025-02-25 18:25:12.244,-320.0,-922.0,276.0,-1.0,1.0,2.0,184,156,148,163,159
2025-02-25 18:25:12.246,-322.0,-920.0,277.0,0.0,1.0,2.0,185,160,149,166,162
2025-02-25 18:25:12.249,-322.0,-914.0,271.0,0.0,1.0,1.0,181,156,146,161,158
2025-02-25 18:25:12.251,-330.0,-907.0,270.0,1.0,1.0,1.0,187,161,152,167,163
2025-02-25 18:25:12.253,-327.0,-911.0,267.0,1.0,1.0,0.0,184,159,150,165,163
2025-02-25 18:25:12.256,-331.0,-904.0,272.0,2.0,1.0,0.0,180,154,146,160,159
2025-02-25 18:25:12.258,-331.0,-898.0,269.0,2.0,1.0,0.0,184,160,150,165,163
2025-02-25 18:25:12.260,-334.0,-900.0,267.0,2.0,1.0,0.0,188,162,152,169,167
2025-02-25 18:25:12.262,-336.0,-902.0,271.0,2.0,1.0,0.0,181,154,146,161,157
2025-02-25 18:25:12.265,-332.0,-902.0,269.0,1.0,0.0,0.0,185,160,150,165,163
2025-02-25 18:25:12.267,-335.0,-907.0,270.0,1.0,0.0,-1.0,184,158,149,164,162
2025-02-25 18:25:12.270,-331.0,-898.0,270.0,0.0,-1.0,-1.0,185,159,150,166,163
2025-02-25 18:25:12.272,-331.0,-905.0,277.0,0.0,-1.0,-1.0,185,159,149,165,163
2025-02-25 18:25:12.274,-328.0,-902.0,271.0,-1.0,-1.0,-1.0,183,158,148,163,161
2025-02-25 18:25:12.277,-326.0,-903.0,271.0,-1.0,-1.0,-1.0,181,156,146,161,158
2025-02-25 18:25:12.279,-326.0,-904.0,276.0,-2.0,-2.0,-2.0,190,163,154,171,165
2025-02-25 18:25:12.282,-322.0,-911.0,276.0,-2.0,-2.0,-2.0,183,157,148,164,160
2025-02-25 18:25:12.284,-323.0,-904.0,273.0,-3.0,-2.0,-2.0,180,154,146,161,158
2025-02-25 18:25:12.286,-322.0,-904.0,273.0,-3.0,-2.0,-2.0,185,159,149,166,162
2025-02-25 18:25:12.288,-321.0,-910.0,276.0,-3.0,-2.0,-2.0,189,164,155,169,166
2025-02-25 18:25:12.291,-326.0,-914.0,279.0,-3.0,-2.0,-1.0,181,155,146,161,158
2025-02-25 18:25:12.293,-322.0,-916.0,282.0,-3.0,-2.0,-2.0,186,158,150,165,162
2025-02-25 18:25:12.296,-323.0,-915.0,274.0,-2.0,-2.0,-2.0,185,160,151,166,163
2025-02-25 18:25:12.297,-330.0,-920.0,276.0,-2.0,-2.0,-2.0,185,159,150,165,162
2025-02-25 18:25:12.301,-330.0,-923.0,274.0,-1.0,-2.0,-2.0,182,156,146,161,158
2025-02-25 18:25:12.303,-331.0,-925.0,279.0,-1.0,-2.0,-2.0,186,160,150,163,162
2025-02-25 18:25:12.305,-328.0,-931.0,278.0,0.0,-2.0,-2.0,183,159,150,164,162
2025-02-25 18:25:12.308,-326.0,-933.0,278.0,0.0,-2.0,-2.0,186,160,151,166,164
2025-02-25 18:25:12.310,-327.0,-932.0,278.0,1.0,-1.0,-2.0,181,155,145,161,158
2025-02-25 18:25:12.312,-324.0,-933.0,283.0,1.0,-2.0,-2.0,185,158,149,165,163
2025-02-25 18:25:12.314,-326.0,-930.0,282.0,1.0,-2.0,-2.0,184,159,150,165,163
2025-02-25 18:25:12.317,-319.0,-925.0,277.0,2.0,-2.0,-1.0,183,158,148,164,162
2025-02-25 18:25:12.319,-316.0,-924.0,277.0,2.0,-2.0,-2.0,180,156,147,162,160
2025-02-25 18:25:12.322,-315.0,-928.0,282.0,2.0,-1.0,-2.0,185,160,150,165,162
2025-02-25 18:25:12.324,-318.0,-928.0,287.0,2.0,-1.0,-2.0,185,160,150,166,162
2025-02-25 18:25:12.326,-319.0,-932.0,289.0,2.0,-1.0,-1.0,183,157,147,164,161
2025-02-25 18:25:12.329,-320.0,-928.0,288.0,1.0,-1.0,-1.0,181,155,146,161,158
2025-02-25 18:25:12.331,-323.0,-937.0,290.0,1.0,-1.0,-1.0,185,160,149,164,163
2025-02-25 18:25:12.334,-318.0,-932.0,287.0,0.0,-1.0,-1.0,184,158,149,165,163
2025-02-25 18:25:12.336,-326.0,-932.0,293.0,0.0,-1.0,0.0,183,157,147,165,160
2025-02-25 18:25:12.338,-331.0,-928.0,297.0,0.0,-1.0,0.0,180,154,144,159,155
2025-02-25 18:25:12.340,-322.0,-932.0,294.0,-1.0,-1.0,1.0,185,160,151,166,163
2025-02-25 18:25:12.343,-328.0,-924.0,287.0,-1.0,-1.0,0.0,183,160,148,163,161
2025-02-25 18:25:12.348,-327.0,-924.0,292.0,-1.0,-1.0,0.0,181,156,146,162,159
2025-02-25 18:25:12.352,-324.0,-923.0,295.0,-2.0,-1.0,0.0,181,154,145,159,157
2025-02-25 18:25:12.360,-326.0,-915.0,293.0,-2.0,-1.0,0.0,186,160,151,165,162
2025-02-25 18:25:12.364,-326.0,-912.0,291.0,-2.0,-1.0,0.0,183,157,148,165,162
2025-02-25 18:25:12.368,-325.0,-910.0,289.0,-2.0,-1.0,0.0,181,156,147,163,159
2025-02-25 18:25:12.372,-322.0,-910.0,284.0,-2.0,-1.0,0.0,182,155,147,160,160
2025-02-25 18:25:12.380,-322.0,-912.0,287.0,-2.0,-1.0,0.0,184,159,151,167,163
2025-02-25 18:25:12.384,-319.0,-908.0,286.0,-2.0,-1.0,0.0,182,158,149,164,161
2025-02-25 18:25:12.388,-315.0,-915.0,288.0,-1.0,-1.0,0.0,180,155,145,162,159
2025-02-25 18:25:12.396,-314.0,-913.0,293.0,-1.0,-1.0,0.0,184,159,149,164,162
2025-02-25 18:25:12.400,-317.0,-911.0,290.0,-1.0,-1.0,-1.0,185,160,150,165,163
2025-02-25 18:25:12.404,-314.0,-919.0,291.0,-2.0,0.0,-1.0,184,158,149,164,161
2025-02-25 18:25:12.409,-314.0,-920.0,289.0,-1.0,0.0,-1.0,181,155,146,161,157
2025-02-25 18:25:12.416,-314.0,-920.0,289.0,-1.0,0.0,-1.0,182,155,147,162,159
2025-02-25 18:25:12.421,-321.0,-913.0,281.0,0.0,0.0,0.0,186,160,150,166,163
2025-02-25 18:25:12.425,-327.0,-918.0,295.0,0.0,0.0,0.0,185,160,150,166,165
2025-02-25 18:25:12.429,-325.0,-919.0,281.0,-1.0,-1.0,-1.0,182,155,146,162,160
2025-02-25 18:25:12.437,-328.0,-916.0,285.0,-1.0,0.0,0.0,185,159,150,166,163
2025-02-25 18:25:12.441,-324.0,-917.0,276.0,-1.0,0.0,0.0,186,159,151,165,163
2025-02-25 18:25:12.445,-324.0,-917.0,285.0,-2.0,0.0,0.0,184,159,150,165,162
2025-02-25 18:25:12.450,-329.0,-917.0,279.0,-2.0,-1.0,0.0,179,154,145,160,157
2025-02-25 18:25:12.454,-329.0,-918.0,278.0,-2.0,0.0,0.0,186,160,151,165,163
2025-02-25 18:25:12.461,-329.0,-919.0,283.0,-2.0,0.0,1.0,184,158,150,165,162
2025-02-25 18:25:12.466,-327.0,-924.0,273.0,-3.0,0.0,2.0,183,158,148,163,162
2025-02-25 18:25:12.470,-329.0,-929.0,271.0,-3.0,-1.0,2.0,184,160,150,166,163
2025-02-25 18:25:12.475,-338.0,-932.0,268.0,-3.0,-1.0,4.0,185,159,150,166,163
2025-02-25 18:25:12.482,-336.0,-934.0,267.0,-3.0,-1.0,7.0,182,159,147,163,160
2025-02-25 18:25:12.486,-335.0,-947.0,259.0,-3.0,-2.0,11.0,184,157,147,163,161
2025-02-25 18:25:12.491,-333.0,-951.0,269.0,-3.0,-1.0,12.0,186,160,150,165,163
2025-02-25 18:25:12.499,-331.0,-966.0,279.0,-4.0,-1.0,14.0,188,158,150,166,163
2025-02-25 18:25:12.503,-321.0,-969.0,264.0,-5.0,-4.0,14.0,184,160,149,164,162
2025-02-25 18:25:12.507,-326.0,-968.0,279.0,-4.0,-4.0,14.0,182,155,147,163,160
2025-02-25 18:25:12.511,-322.0,-976.0,287.0,-2.0,-3.0,14.0,182,154,144,160,158
2025-02-25 18:25:12.519,-315.0,-953.0,289.0,-3.0,-3.0,13.0,185,159,151,166,162
2025-02-25 18:25:12.523,-326.0,-936.0,295.0,-3.0,-3.0,13.0,187,159,150,165,162
2025-02-25 18:25:12.528,-325.0,-922.0,272.0,-4.0,-4.0,12.0,184,157,147,163,160
2025-02-25 18:25:12.532,-329.0,-918.0,271.0,-3.0,-3.0,12.0,181,154,144,163,159
2025-02-25 18:25:12.540,-334.0,-911.0,250.0,-2.0,-4.0,11.0,184,160,150,165,164
2025-02-25 18:25:12.544,-320.0,-893.0,280.0,0.0,-3.0,10.0,185,159,151,166,163
2025-02-25 18:25:12.548,-329.0,-920.0,266.0,-2.0,-4.0,8.0,182,157,147,162,161
2025-02-25 18:25:12.553,-330.0,-922.0,255.0,0.0,-5.0,6.0,179,156,148,161,160
2025-02-25 18:25:12.560,-321.0,-915.0,302.0,-2.0,-3.0,5.0,185,159,150,166,163
2025-02-25 18:25:12.564,-333.0,-912.0,269.0,-1.0,-3.0,3.0,184,160,151,166,163
2025-02-25 18:25:12.568,-338.0,-887.0,308.0,-1.0,-2.0,1.0,181,154,145,162,158
2025-02-25 18:25:12.573,-336.0,-891.0,288.0,0.0,-1.0,1.0,181,155,146,161,159
2025-02-25 18:25:12.580,-349.0,-896.0,279.0,1.0,0.0,0.0,184,160,149,166,164
2025-02-25 18:25:12.584,-350.0,-874.0,272.0,2.0,0.0,-2.0,183,157,147,163,161
2025-02-25 18:25:12.588,-349.0,-881.0,278.0,3.0,0.0,-2.0,179,154,145,162,159
2025-02-25 18:25:12.593,-356.0,-878.0,289.0,2.0,-2.0,-2.0,185,159,149,165,162
2025-02-25 18:25:12.601,-349.0,-865.0,269.0,2.0,-3.0,-3.0,185,159,150,166,163
2025-02-25 18:25:12.605,-352.0,-867.0,294.0,2.0,-2.0,-4.0,186,161,152,169,166
2025-02-25 18:25:12.610,-352.0,-862.0,281.0,3.0,-2.0,-5.0,181,154,144,160,158
2025-02-25 18:25:12.614,-352.0,-864.0,277.0,6.0,-1.0,-5.0,185,159,150,165,163
2025-02-25 18:25:12.621,-356.0,-873.0,283.0,6.0,-1.0,-6.0,185,158,149,165,164
2025-02-25 18:25:12.626,-348.0,-865.0,281.0,5.0,-2.0,-7.0,186,160,151,167,165
2025-02-25 18:25:12.630,-352.0,-881.0,299.0,4.0,-3.0,-7.0,180,155,146,161,158
2025-02-25 18:25:12.634,-349.0,-882.0,294.0,2.0,-4.0,-6.0,185,159,149,164,163
2025-02-25 18:25:12.642,-344.0,-883.0,294.0,1.0,-3.0,-6.0,185,160,150,165,163
2025-02-25 18:25:12.646,-346.0,-893.0,292.0,1.0,-2.0,-6.0,184,159,150,165,162
2025-02-25 18:25:12.650,-344.0,-894.0,302.0,2.0,-2.0,-5.0,182,153,146,162,159
2025-02-25 18:25:12.655,-336.0,-903.0,302.0,0.0,-1.0,-6.0,186,161,147,166,164
2025-02-25 18:25:12.662,-334.0,-913.0,297.0,-1.0,-2.0,-5.0,184,160,149,165,165
2025-02-25 18:25:12.667,-331.0,-917.0,297.0,-2.0,-2.0,-4.0,185,158,147,163,162
2025-02-25 18:25:12.671,-329.0,-919.0,302.0,-5.0,-2.0,-4.0,180,154,144,159,158
2025-02-25 18:25:12.679,-334.0,-925.0,300.0,-5.0,-2.0,-5.0,185,159,150,165,164
2025-02-25 18:25:12.683,-333.0,-929.0,298.0,-5.0,-2.0,-4.0,184,160,150,166,163
2025-02-25 18:25:12.687,-336.0,-934.0,296.0,-5.0,-1.0,-4.0,185,159,150,164,162
2025-02-25 18:25:12.692,-333.0,-931.0,291.0,-4.0,-1.0,-4.0,181,156,146,160,159
2025-02-25 18:25:12.699,-334.0,-936.0,290.0,-4.0,-1.0,-4.0,179,153,143,159,158
2025-02-25 18:25:12.703,-326.0,-939.0,294.0,-5.0,-1.0,-3.0,185,158,149,165,164
2025-02-25 18:25:12.707,-325.0,-943.0,294.0,-4.0,-1.0,-3.0,185,159,150,165,163
2025-02-25 18:25:12.715,-323.0,-944.0,294.0,-4.0,0.0,-3.0,181,156,146,162,159
2025-02-25 18:25:12.719,-325.0,-950.0,288.0,-2.0,0.0,-3.0,183,157,146,162,159
2025-02-25 18:25:12.724,-326.0,-947.0,288.0,-1.0,0.0,-2.0,186,160,150,164,164
2025-02-25 18:25:12.728,-328.0,-947.0,289.0,0.0,0.0,-2.0,184,159,150,165,163
2025-02-25 18:25:12.732,-328.0,-947.0,290.0,0.0,0.0,-2.0,181,155,146,160,159
2025-02-25 18:25:12.740,-332.0,-947.0,289.0,0.0,0.0,-1.0,179,155,143,159,158
2025-02-25 18:25:12.744,-335.0,-941.0,289.0,1.0,0.0,-1.0,185,160,150,165,163
2025-02-25 18:25:12.748,-335.0,-943.0,289.0,1.0,1.0,0.0,184,158,148,164,161
2025-02-25 18:25:12.753,-336.0,-939.0,281.0,2.0,1.0,0.0,180,154,145,161,159
2025-02-25 18:25:12.760,-333.0,-937.0,282.0,3.0,1.0,0.0,185,158,151,165,163
2025-02-25 18:25:12.765,-341.0,-931.0,281.0,3.0,1.0,1.0,183,159,148,160,163
2025-02-25 18:25:12.769,-337.0,-927.0,279.0,2.0,1.0,1.0,180,155,145,160,159
2025-02-25 18:25:12.773,-339.0,-926.0,280.0,2.0,1.0,1.0,185,159,150,166,164
2025-02-25 18:25:12.777,-337.0,-913.0,286.0,2.0,1.0,1.0,185,160,151,166,163
2025-02-25 18:25:12.785,-341.0,-923.0,268.0,1.0,0.0,1.0,181,155,145,162,159
2025-02-25 18:25:12.789,-331.0,-917.0,271.0,1.0,0.0,1.0,185,159,150,165,164
2025-02-25 18:25:12.794,-337.0,-902.0,272.0,1.0,0.0,1.0,184,160,149,165,164
2025-02-25 18:25:12.798,-327.0,-900.0,275.0,0.0,0.0,1.0,181,156,146,161,160
2025-02-25 18:25:12.805,-329.0,-903.0,276.0,0.0,0.0,0.0,179,153,144,160,158
2025-02-25 18:25:12.810,-340.0,-895.0,277.0,0.0,0.0,0.0,184,159,150,166,164
2025-02-25 18:25:12.814,-334.0,-897.0,277.0,-1.0,0.0,-1.0,181,156,145,161,161
2025-02-25 18:25:12.818,-333.0,-894.0,287.0,-2.0,-1.0,-1.0,181,155,146,161,160
2025-02-25 18:25:12.826,-331.0,-905.0,273.0,-3.0,-1.0,-1.0,186,160,150,166,163
2025-02-25 18:25:12.830,-335.0,-912.0,261.0,-1.0,-1.0,-2.0,185,158,148,165,163
2025-02-25 18:25:12.834,-346.0,-900.0,297.0,-1.0,0.0,-2.0,184,158,150,166,163
2025-02-25 18:25:12.839,-335.0,-911.0,282.0,-1.0,0.0,-2.0,182,154,145,161,160
2025-02-25 18:25:12.846,-346.0,-910.0,287.0,-1.0,0.0,-2.0,189,164,154,169,168
2025-02-25 18:25:12.851,-340.0,-913.0,275.0,-1.0,0.0,-2.0,184,158,149,165,164
2025-02-25 18:25:12.855,-344.0,-914.0,271.0,-1.0,0.0,-3.0,186,160,150,165,163
2025-02-25 18:25:12.859,-348.0,-921.0,279.0,-2.0,0.0,-2.0,180,154,145,161,158
2025-02-25 18:25:12.867,-339.0,-930.0,274.0,-2.0,-1.0,-2.0,189,163,153,168,166
2025-02-25 18:25:12.871,-343.0,-934.0,273.0,-1.0,0.0,-2.0,185,160,149,165,162
2025-02-25 18:25:12.876,-340.0,-938.0,274.0,-1.0,0.0,-2.0,184,158,148,165,163
2025-02-25 18:25:12.880,-340.0,-959.0,277.0,-1.0,0.0,-2.0,181,155,145,160,160
2025-02-25 18:25:12.888,-338.0,-960.0,289.0,-1.0,0.0,-1.0,187,161,151,166,165
2025-02-25 18:25:12.892,-344.0,-973.0,282.0,-1.0,0.0,0.0,184,159,150,165,163
2025-02-25 18:25:12.896,-350.0,-979.0,307.0,-1.0,1.0,0.0,182,156,147,163,161
2025-02-25 18:25:12.901,-345.0,-994.0,300.0,-1.0,1.0,1.0,180,155,145,162,160
2025-02-25 18:25:12.909,-359.0,-995.0,308.0,-1.0,2.0,2.0,187,162,151,166,165
2025-02-25 18:25:12.912,-366.0,-1006.0,297.0,-2.0,1.0,3.0,184,158,150,165,163
2025-02-25 18:25:12.917,-360.0,-993.0,287.0,-1.0,1.0,4.0,181,155,146,162,160
2025-02-25 18:25:12.921,-369.0,-981.0,296.0,-1.0,2.0,4.0,180,153,144,160,160
2025-02-25 18:25:12.929,-360.0,-984.0,294.0,-2.0,2.0,5.0,187,162,151,168,165
2025-02-25 18:25:12.933,-351.0,-983.0,289.0,-1.0,2.0,6.0,183,158,149,165,163
2025-02-25 18:25:12.937,-356.0,-963.0,291.0,0.0,2.0,6.0,181,155,145,160,159
2025-02-25 18:25:12.941,-355.0,-970.0,289.0,0.0,1.0,6.0,185,157,151,166,163
2025-02-25 18:25:12.946,-342.0,-951.0,306.0,0.0,2.0,6.0,185,160,150,167,163
2025-02-25 18:25:12.953,-351.0,-960.0,272.0,2.0,1.0,7.0,180,154,145,161,159
2025-02-25 18:25:12.958,-349.0,-953.0,328.0,-1.0,2.0,6.0,185,158,150,165,164
2025-02-25 18:25:12.962,-340.0,-933.0,326.0,-1.0,3.0,7.0,185,160,151,169,159
2025-02-25 18:25:12.966,-352.0,-928.0,314.0,-2.0,2.0,7.0,182,157,149,163,162
2025-02-25 18:25:12.973,-354.0,-934.0,318.0,-5.0,3.0,7.0,175,152,143,159,158
2025-02-25 18:25:12.978,-347.0,-919.0,327.0,-5.0,4.0,7.0,184,159,150,165,164
2025-02-25 18:25:12.982,-361.0,-917.0,338.0,-5.0,6.0,7.0,185,157,145,163,162
2025-02-25 18:25:12.986,-363.0,-897.0,331.0,-4.0,7.0,7.0,181,157,147,163,161
2025-02-25 18:25:12.994,-353.0,-904.0,307.0,-4.0,9.0,7.0,185,160,150,165,164
2025-02-25 18:25:12.998,-363.0,-884.0,313.0,-3.0,9.0,7.0,185,159,150,164,165
2025-02-25 18:25:13.003,-355.0,-902.0,305.0,-5.0,9.0,7.0,182,155,143,161,160
2025-02-25 18:25:13.007,-363.0,-886.0,291.0,-6.0,9.0,6.0,180,154,144,162,160
2025-02-25 18:25:13.012,-361.0,-870.0,306.0,-5.0,10.0,6.0,186,159,149,166,165
2025-02-25 18:25:13.019,-356.0,-876.0,291.0,-5.0,10.0,6.0,184,157,146,162,162
2025-02-25 18:25:13.023,-367.0,-866.0,297.0,-4.0,11.0,5.0,180,153,145,160,162
2025-02-25 18:25:13.028,-359.0,-859.0,299.0,-2.0,11.0,5.0,179,154,144,161,159
2025-02-25 18:25:13.035,-352.0,-850.0,299.0,-1.0,12.0,4.0,185,160,150,165,165
2025-02-25 18:25:13.039,-353.0,-846.0,295.0,-1.0,13.0,2.0,183,157,148,163,162
2025-02-25 18:25:13.043,-357.0,-843.0,284.0,-1.0,13.0,1.0,179,154,145,160,160
2025-02-25 18:25:13.048,-352.0,-840.0,291.0,-1.0,12.0,0.0,181,155,146,162,160
2025-02-25 18:25:13.056,-340.0,-856.0,287.0,-3.0,11.0,-2.0,186,160,150,164,164
2025-02-25 18:25:13.060,-339.0,-846.0,292.0,-4.0,12.0,-4.0,182,157,148,163,162
2025-02-25 18:25:13.064,-337.0,-862.0,282.0,-3.0,11.0,-5.0,181,156,146,161,161
2025-02-25 18:25:13.069,-339.0,-858.0,269.0,-3.0,12.0,-5.0,179,155,145,160,161
2025-02-25 18:25:13.076,-350.0,-870.0,270.0,-6.0,11.0,-6.0,185,158,149,164,165
2025-02-25 18:25:13.081,-336.0,-868.0,288.0,-8.0,14.0,-7.0,185,159,149,166,166
2025-02-25 18:25:13.085,-342.0,-875.0,268.0,-6.0,13.0,-8.0,185,159,149,166,166
2025-02-25 18:25:13.089,-344.0,-884.0,283.0,-8.0,13.0,-8.0,180,154,145,161,160
2025-02-25 18:25:13.097,-323.0,-887.0,265.0,-10.0,13.0,-8.0,185,159,150,165,164
2025-02-25 18:25:13.101,-328.0,-902.0,281.0,-9.0,14.0,-9.0,184,159,150,164,164
2025-02-25 18:25:13.105,-335.0,-912.0,243.0,-9.0,13.0,-8.0,184,159,149,164,165
2025-02-25 18:25:13.113,-321.0,-917.0,265.0,-8.0,13.0,-8.0,182,154,147,162,161
2025-02-25 18:25:13.117,-348.0,-933.0,229.0,-7.0,10.0,-8.0,179,153,144,159,160
2025-02-25 18:25:13.121,-325.0,-927.0,312.0,-11.0,12.0,-7.0,185,160,151,164,165
2025-02-25 18:25:13.126,-325.0,-948.0,257.0,-9.0,10.0,-7.0,186,158,149,164,165
2025-02-25 18:25:13.133,-339.0,-962.0,253.0,-9.0,10.0,-6.0,183,157,148,163,161
2025-02-25 18:25:13.138,-338.0,-958.0,247.0,-10.0,10.0,-5.0,181,154,145,160,161
2025-02-25 18:25:13.142,-341.0,-963.0,249.0,-9.0,10.0,-4.0,181,156,145,161,160
2025-02-25 18:25:13.149,-355.0,-982.0,240.0,-9.0,11.0,-4.0,186,159,151,165,165
2025-02-25 18:25:13.154,-362.0,-979.0,247.0,-9.0,12.0,-3.0,183,157,148,164,163
2025-02-25 18:25:13.158,-353.0,-970.0,237.0,-10.0,12.0,-1.0,182,153,147,160,161
2025-02-25 18:25:13.162,-351.0,-990.0,234.0,-11.0,10.0,-1.0,181,155,146,161,161
2025-02-25 18:25:13.170,-377.0,-985.0,208.0,-9.0,9.0,0.0,186,159,149,165,165
2025-02-25 18:25:13.174,-368.0,-985.0,212.0,-7.0,9.0,1.0,184,158,150,165,165
2025-02-25 18:25:13.178,-374.0,-976.0,226.0,-7.0,9.0,2.0,181,153,145,161,162
2025-02-25 18:25:13.183,-375.0,-975.0,227.0,-5.0,9.0,2.0,180,146,144,160,160
2025-02-25 18:25:13.190,-380.0,-968.0,225.0,-2.0,8.0,3.0,185,159,150,166,166
2025-02-25 18:25:13.195,-377.0,-945.0,226.0,-1.0,7.0,4.0,183,156,148,163,163
2025-02-25 18:25:13.199,-378.0,-948.0,224.0,0.0,6.0,5.0,180,153,145,160,161
2025-02-25 18:25:13.204,-377.0,-952.0,230.0,1.0,6.0,5.0,185,160,150,165,165
2025-02-25 18:25:13.211,-383.0,-938.0,228.0,2.0,6.0,5.0,185,160,151,165,167
2025-02-25 18:25:13.215,-383.0,-930.0,237.0,4.0,6.0,5.0,180,153,145,161,160
2025-02-25 18:25:13.220,-372.0,-922.0,236.0,5.0,8.0,4.0,184,158,150,163,165
2025-02-25 18:25:13.224,-385.0,-921.0,222.0,5.0,7.0,3.0,186,159,151,165,166
2025-02-25 18:25:13.228,-378.0,-915.0,245.0,6.0,8.0,2.0,181,154,147,160,161
2025-02-25 18:25:13.236,-379.0,-910.0,246.0,7.0,8.0,2.0,179,152,144,159,159
2025-02-25 18:25:13.240,-374.0,-911.0,228.0,7.0,8.0,1.0,186,159,151,166,166
2025-02-25 18:25:13.244,-357.0,-906.0,250.0,6.0,10.0,0.0,181,155,148,162,162
2025-02-25 18:25:13.249,-355.0,-916.0,235.0,7.0,9.0,0.0,181,155,147,161,161
2025-02-25 18:25:13.253,-353.0,-918.0,234.0,8.0,10.0,0.0,184,158,147,166,165
2025-02-25 18:25:13.260,-352.0,-926.0,227.0,8.0,11.0,0.0,183,157,148,164,164
2025-02-25 18:25:13.265,-349.0,-924.0,236.0,8.0,12.0,0.0,181,155,146,161,161
2025-02-25 18:25:13.269,-352.0,-921.0,235.0,9.0,12.0,0.0,185,160,150,166,166
2025-02-25 18:25:13.273,-358.0,-918.0,253.0,9.0,11.0,0.0,185,159,151,165,165
2025-02-25 18:25:13.281,-355.0,-922.0,248.0,9.0,10.0,0.0,183,156,147,161,162
2025-02-25 18:25:13.285,-356.0,-929.0,235.0,11.0,9.0,1.0,182,156,147,162,164
2025-02-25 18:25:13.289,-356.0,-928.0,238.0,10.0,9.0,1.0,186,160,152,168,167
2025-02-25 18:25:13.293,-353.0,-920.0,236.0,11.0,8.0,1.0,183,157,148,163,164
2025-02-25 18:25:13.301,-342.0,-923.0,236.0,10.0,8.0,2.0,181,154,146,162,162
2025-02-25 18:25:13.305,-353.0,-915.0,228.0,11.0,7.0,2.0,187,160,152,165,166
2025-02-25 18:25:13.310,-350.0,-911.0,229.0,10.0,6.0,3.0,185,159,151,165,165
2025-02-25 18:25:13.314,-348.0,-902.0,232.0,10.0,6.0,4.0,181,154,145,161,162
2025-02-25 18:25:13.322,-342.0,-907.0,229.0,10.0,6.0,3.0,182,155,147,161,162
2025-02-25 18:25:13.326,-339.0,-908.0,226.0,9.0,5.0,5.0,186,160,151,166,167
2025-02-25 18:25:13.330,-343.0,-903.0,227.0,9.0,4.0,5.0,183,157,149,162,165
2025-02-25 18:25:13.334,-341.0,-905.0,231.0,9.0,3.0,5.0,179,153,145,160,159
2025-02-25 18:25:13.339,-338.0,-901.0,233.0,8.0,2.0,6.0,186,160,151,165,166
2025-02-25 18:25:13.346,-338.0,-898.0,231.0,7.0,1.0,6.0,185,159,151,166,167
2025-02-25 18:25:13.350,-345.0,-900.0,243.0,7.0,1.0,6.0,181,154,145,160,162
2025-02-25 18:25:13.355,-345.0,-899.0,256.0,5.0,0.0,5.0,187,159,150,165,165
2025-02-25 18:25:13.359,-336.0,-891.0,250.0,6.0,-1.0,6.0,186,161,151,166,166
2025-02-25 18:25:13.363,-339.0,-895.0,245.0,8.0,-1.0,5.0,181,155,147,162,163
2025-02-25 18:25:13.371,-342.0,-896.0,257.0,8.0,-1.0,5.0,180,154,146,159,160
2025-02-25 18:25:13.375,-343.0,-887.0,253.0,9.0,0.0,4.0,184,157,151,165,165
2025-02-25 18:25:13.379,-341.0,-895.0,251.0,9.0,1.0,4.0,185,157,149,164,165
2025-02-25 18:25:13.383,-337.0,-893.0,264.0,7.0,0.0,4.0,180,154,146,161,161
2025-02-25 18:25:13.392,-342.0,-893.0,258.0,6.0,0.0,3.0,185,158,150,164,166
2025-02-25 18:25:13.396,-339.0,-897.0,265.0,5.0,-1.0,3.0,182,155,148,162,163
2025-02-25 18:25:13.400,-343.0,-898.0,261.0,4.0,-1.0,2.0,181,154,144,160,162
2025-02-25 18:25:13.404,-337.0,-885.0,257.0,4.0,-1.0,2.0,185,159,150,165,166
2025-02-25 18:25:13.412,-336.0,-890.0,247.0,4.0,-1.0,3.0,184,157,150,164,164
2025-02-25 18:25:13.416,-348.0,-880.0,260.0,4.0,-1.0,4.0,180,154,145,160,161
2025-02-25 18:25:13.420,-351.0,-884.0,256.0,3.0,-1.0,4.0,182,154,145,160,161
2025-02-25 18:25:13.425,-357.0,-887.0,259.0,2.0,-3.0,6.0,184,158,150,166,165
2025-02-25 18:25:13.429,-365.0,-896.0,252.0,1.0,-4.0,7.0,182,156,148,162,163
2025-02-25 18:25:13.436,-373.0,-890.0,254.0,0.0,-5.0,7.0,179,153,144,158,160
2025-02-25 18:25:13.441,-369.0,-895.0,262.0,1.0,-6.0,7.0,181,158,147,161,161
2025-02-25 18:25:13.445,-372.0,-895.0,264.0,2.0,-7.0,7.0,184,159,149,164,165
2025-02-25 18:25:13.449,-375.0,-895.0,275.0,2.0,-7.0,6.0,181,154,146,162,162
2025-02-25 18:25:13.457,-373.0,-893.0,270.0,4.0,-8.0,6.0,179,152,143,158,159
2025-02-25 18:25:13.462,-376.0,-890.0,282.0,5.0,-7.0,6.0,183,158,150,164,165
2025-02-25 18:25:13.466,-378.0,-877.0,282.0,6.0,-7.0,5.0,184,157,148,163,163
2025-02-25 18:25:13.470,-383.0,-880.0,294.0,6.0,-7.0,4.0,180,154,144,159,159
2025-02-25 18:25:13.478,-392.0,-878.0,298.0,5.0,-7.0,4.0,180,154,146,160,161
2025-02-25 18:25:13.482,-382.0,-870.0,305.0,6.0,-6.0,2.0,183,158,150,164,164
2025-02-25 18:25:13.486,-393.0,-867.0,283.0,7.0,-5.0,2.0,181,156,148,162,162
2025-02-25 18:25:13.491,-392.0,-861.0,299.0,9.0,-4.0,1.0,180,153,144,159,160
2025-02-25 18:25:13.498,-392.0,-860.0,295.0,11.0,-2.0,0.0,183,157,149,162,163
2025-02-25 18:25:13.502,-396.0,-859.0,311.0,11.0,-1.0,0.0,184,160,150,164,164
2025-02-25 18:25:13.507,-388.0,-853.0,315.0,13.0,-1.0,-1.0,179,153,145,164,161
2025-02-25 18:25:13.511,-382.0,-849.0,298.0,14.0,0.0,-1.0,180,154,145,161,161
2025-02-25 18:25:13.519,-386.0,-845.0,308.0,15.0,1.0,-1.0,184,157,148,164,164
2025-02-25 18:25:13.523,-387.0,-840.0,317.0,15.0,2.0,-2.0,183,156,150,163,163
2025-02-25 18:25:13.527,-389.0,-843.0,303.0,16.0,2.0,-3.0,180,154,145,159,160
2025-02-25 18:25:13.531,-396.0,-848.0,298.0,16.0,1.0,-3.0,180,154,146,160,160
2025-02-25 18:25:13.539,-395.0,-846.0,306.0,16.0,4.0,-5.0,183,156,148,163,163
2025-02-25 18:25:13.543,-388.0,-859.0,282.0,16.0,3.0,-6.0,183,156,148,163,164
2025-02-25 18:25:13.548,-392.0,-864.0,319.0,15.0,4.0,-9.0,181,152,144,160,161
2025-02-25 18:25:13.552,-386.0,-867.0,294.0,13.0,4.0,-11.0,178,151,143,158,160
2025-02-25 18:25:13.560,-373.0,-882.0,274.0,11.0,2.0,-13.0,182,156,149,162,162
2025-02-25 18:25:13.564,-375.0,-881.0,282.0,8.0,3.0,-15.0,182,156,149,163,164
2025-02-25 18:25:13.568,-374.0,-897.0,285.0,6.0,1.0,-16.0,180,154,144,159,160
2025-02-25 18:25:13.572,-372.0,-900.0,300.0,4.0,1.0,-17.0,179,153,144,159,160
2025-02-25 18:25:13.580,-370.0,-922.0,276.0,2.0,-1.0,-18.0,184,156,149,164,163
2025-02-25 18:25:13.584,-351.0,-926.0,294.0,0.0,0.0,-18.0,184,160,150,165,166
2025-02-25 18:25:13.589,-344.0,-948.0,270.0,0.0,0.0,-17.0,179,155,146,159,159
2025-02-25 18:25:13.596,-349.0,-962.0,294.0,-2.0,-1.0,-16.0,178,152,143,158,159
2025-02-25 18:25:13.601,-347.0,-971.0,304.0,-6.0,-1.0,-14.0,182,155,147,163,163
2025-02-25 18:25:13.605,-350.0,-980.0,287.0,-5.0,-2.0,-13.0,184,157,148,165,164
2025-02-25 18:25:13.609,-340.0,-988.0,307.0,-7.0,-1.0,-11.0,183,154,145,162,162
2025-02-25 18:25:13.616,-339.0,-992.0,283.0,-5.0,0.0,-9.0,180,152,144,158,160
2025-02-25 18:25:13.621,-343.0,-1007.0,295.0,-3.0,0.0,-7.0,179,153,143,159,159
2025-02-25 18:25:13.625,-341.0,-990.0,279.0,-3.0,0.0,-4.0,182,155,148,162,164
2025-02-25 18:25:13.629,-348.0,-981.0,306.0,-1.0,2.0,0.0,182,155,149,163,162
2025-02-25 18:25:13.637,-346.0,-976.0,287.0,-2.0,1.0,3.0,179,150,143,159,159
2025-02-25 18:25:13.641,-353.0,-963.0,312.0,-3.0,-1.0,5.0,176,151,141,157,157
2025-02-25 18:25:13.645,-347.0,-960.0,304.0,-2.0,0.0,8.0,183,156,147,163,163
2025-02-25 18:25:13.650,-360.0,-956.0,274.0,-1.0,0.0,10.0,182,154,145,159,161
2025-02-25 18:25:13.657,-348.0,-941.0,275.0,0.0,0.0,11.0,178,150,143,158,159
2025-02-25 18:25:13.662,-362.0,-932.0,292.0,1.0,0.0,12.0,182,156,145,161,162
2025-02-25 18:25:13.666,-351.0,-927.0,291.0,4.0,1.0,12.0,183,156,149,164,158
2025-02-25 18:25:13.670,-369.0,-915.0,291.0,4.0,1.0,13.0,179,148,144,158,159
2025-02-25 18:25:13.678,-368.0,-907.0,291.0,9.0,2.0,13.0,179,151,143,157,159
2025-02-25 18:25:13.682,-381.0,-897.0,272.0,12.0,3.0,13.0,184,155,146,157,162
2025-02-25 18:25:13.686,-383.0,-881.0,288.0,13.0,3.0,12.0,182,155,145,162,161
2025-02-25 18:25:13.691,-394.0,-871.0,282.0,16.0,4.0,11.0,177,151,143,157,158
2025-02-25 18:25:13.698,-398.0,-870.0,274.0,18.0,5.0,11.0,175,150,141,155,157
2025-02-25 18:25:13.703,-414.0,-863.0,269.0,21.0,4.0,10.0,184,158,152,164,164
2025-02-25 18:25:13.707,-413.0,-854.0,282.0,22.0,4.0,8.0,180,154,145,160,162
2025-02-25 18:25:13.712,-415.0,-851.0,281.0,24.0,4.0,7.0,176,150,142,157,158
2025-02-25 18:25:13.719,-425.0,-850.0,272.0,26.0,4.0,6.0,182,154,144,161,161
2025-02-25 18:25:13.724,-420.0,-847.0,281.0,27.0,4.0,4.0,184,158,150,163,164
2025-02-25 18:25:13.728,-429.0,-854.0,275.0,27.0,4.0,4.0,177,152,145,160,159
2025-02-25 18:25:13.732,-425.0,-847.0,297.0,28.0,4.0,4.0,177,150,142,157,159
2025-02-25 18:25:13.740,-415.0,-855.0,308.0,28.0,4.0,4.0,181,154,146,163,162
2025-02-25 18:25:13.744,-415.0,-855.0,325.0,27.0,3.0,4.0,182,156,146,162,163
2025-02-25 18:25:13.748,-418.0,-859.0,318.0,26.0,3.0,4.0,178,152,143,158,158
2025-02-25 18:25:13.752,-422.0,-864.0,326.0,24.0,2.0,4.0,178,151,143,158,158
2025-02-25 18:25:13.757,-404.0,-862.0,370.0,24.0,4.0,4.0,183,155,145,162,162
2025-02-25 18:25:13.764,-421.0,-874.0,314.0,24.0,2.0,4.0,182,154,146,162,161
2025-02-25 18:25:13.768,-396.0,-866.0,341.0,22.0,3.0,4.0,177,154,144,162,159
2025-02-25 18:25:13.773,-403.0,-869.0,340.0,18.0,2.0,3.0,181,152,147,161,162
2025-02-25 18:25:13.777,-399.0,-883.0,334.0,18.0,0.0,3.0,180,155,144,160,163
2025-02-25 18:25:13.785,-395.0,-867.0,345.0,16.0,1.0,2.0,178,152,144,158,160
2025-02-25 18:25:13.789,-391.0,-869.0,326.0,13.0,2.0,2.0,180,151,143,157,159
2025-02-25 18:25:13.793,-385.0,-868.0,342.0,12.0,3.0,1.0,181,155,146,160,162
2025-02-25 18:25:13.798,-383.0,-872.0,359.0,8.0,4.0,1.0,180,152,146,160,161
2025-02-25 18:25:13.805,-370.0,-876.0,345.0,1.0,2.0,1.0,180,152,145,159,160
2025-02-25 18:25:13.810,-373.0,-874.0,353.0,-10.0,-2.0,1.0,182,157,148,163,164
2025-02-25 18:25:13.814,-372.0,-867.0,357.0,-14.0,-1.0,0.0,181,155,146,161,162
2025-02-25 18:25:13.818,-361.0,-878.0,341.0,-21.0,-1.0,1.0,178,151,142,158,160
2025-02-25 18:25:13.826,-365.0,-869.0,352.0,-30.0,0.0,0.0,178,152,143,159,160
2025-02-25 18:25:13.830,-359.0,-878.0,347.0,-31.0,2.0,1.0,181,157,149,163,162
2025-02-25 18:25:13.842,-352.0,-900.0,329.0,-36.0,0.0,0.0,182,154,147,161,161
2025-02-25 18:25:13.844,-364.0,-912.0,336.0,-43.0,0.0,2.0,178,150,142,157,158
2025-02-25 18:25:13.846,-349.0,-911.0,312.0,-43.0,0.0,2.0,179,153,145,158,159
2025-02-25 18:25:13.851,-339.0,-901.0,331.0,-43.0,-3.0,3.0,182,155,147,163,162
2025-02-25 18:25:13.855,-355.0,-922.0,310.0,-46.0,-5.0,4.0,182,155,146,162,163
2025-02-25 18:25:13.859,-343.0,-906.0,342.0,-44.0,-5.0,5.0,180,152,144,157,159
2025-02-25 18:25:13.867,-358.0,-909.0,316.0,-41.0,-7.0,6.0,177,150,141,158,159
2025-02-25 18:25:13.871,-355.0,-913.0,325.0,-52.0,-7.0,6.0,181,155,146,162,161
2025-02-25 18:25:13.876,-370.0,-897.0,308.0,-55.0,-12.0,7.0,182,155,147,161,163
2025-02-25 18:25:13.883,-354.0,-892.0,320.0,-53.0,-13.0,7.0,185,155,147,163,165
2025-02-25 18:25:13.887,-352.0,-883.0,288.0,-42.0,-13.0,7.0,179,150,143,159,160
2025-02-25 18:25:13.891,-365.0,-895.0,316.0,-25.0,-8.0,5.0,175,151,143,162,158
2025-02-25 18:25:13.896,-366.0,-875.0,218.0,-17.0,-9.0,6.0,184,157,147,162,163
2025-02-25 18:25:13.904,-345.0,-861.0,299.0,-20.0,-5.0,5.0,185,159,148,165,166
2025-02-25 18:25:13.908,-380.0,-871.0,298.0,-16.0,-7.0,4.0,184,157,149,165,166
2025-02-25 18:25:13.912,-384.0,-866.0,297.0,-17.0,-9.0,4.0,180,152,145,159,160
2025-02-25 18:25:13.920,-378.0,-859.0,325.0,-15.0,-7.0,3.0,181,153,144,160,160
2025-02-25 18:25:13.924,-404.0,-850.0,288.0,-10.0,-5.0,3.0,186,158,150,167,167
2025-02-25 18:25:13.928,-388.0,-852.0,262.0,-11.0,-4.0,2.0,183,155,148,163,162
2025-02-25 18:25:13.933,-383.0,-844.0,311.0,-11.0,-2.0,2.0,180,152,144,160,160
2025-02-25 18:25:13.940,-405.0,-854.0,279.0,-9.0,-5.0,2.0,181,154,147,160,161
2025-02-25 18:25:13.945,-396.0,-850.0,309.0,-7.0,-4.0,1.0,185,159,150,166,164
2025-02-25 18:25:13.949,-407.0,-858.0,282.0,-8.0,-5.0,1.0,183,156,150,167,166
2025-02-25 18:25:13.954,-395.0,-845.0,291.0,-7.0,-4.0,0.0,180,153,145,160,159
2025-02-25 18:25:13.961,-391.0,-855.0,284.0,1.0,-3.0,0.0,180,151,145,160,158
2025-02-25 18:25:13.965,-419.0,-861.0,280.0,4.0,-4.0,-1.0,185,159,152,165,165
2025-02-25 18:25:13.970,-396.0,-860.0,293.0,7.0,-3.0,-2.0,183,156,148,162,160
2025-02-25 18:25:13.974,-400.0,-874.0,283.0,14.0,-5.0,-2.0,182,151,145,161,158
2025-02-25 18:25:13.982,-398.0,-871.0,306.0,19.0,-3.0,-2.0,179,152,143,160,157
2025-02-25 18:25:13.986,-400.0,-895.0,280.0,19.0,-6.0,-2.0,184,159,151,165,162
2025-02-25 18:25:13.990,-392.0,-906.0,326.0,14.0,-5.0,-2.0,184,156,143,165,161
2025-02-25 18:25:13.998,-398.0,-904.0,326.0,17.0,-5.0,-2.0,181,153,145,161,156
2025-02-25 18:25:14.002,-408.0,-931.0,289.0,18.0,-7.0,-2.0,180,154,144,159,153
2025-02-25 18:25:14.006,-378.0,-904.0,313.0,13.0,-4.0,-2.0,185,158,149,164,161
2025-02-25 18:25:14.010,-404.0,-939.0,293.0,11.0,-5.0,-1.0,184,157,150,164,159
2025-02-25 18:25:14.018,-403.0,-932.0,344.0,7.0,-4.0,-1.0,183,156,148,165,158
2025-02-25 18:25:14.022,-385.0,-927.0,333.0,6.0,-4.0,-1.0,180,153,146,161,156
2025-02-25 18:25:14.026,-402.0,-925.0,283.0,9.0,-1.0,0.0,183,156,149,165,159
2025-02-25 18:25:14.031,-406.0,-923.0,288.0,10.0,-3.0,1.0,186,156,148,163,160
2025-02-25 18:25:14.039,-397.0,-932.0,342.0,13.0,0.0,2.0,182,156,149,166,160
2025-02-25 18:25:14.043,-414.0,-926.0,290.0,10.0,0.0,3.0,180,153,140,159,156
2025-02-25 18:25:14.047,-394.0,-908.0,314.0,13.0,-3.0,3.0,184,155,148,164,162
2025-02-25 18:25:14.051,-398.0,-919.0,323.0,7.0,-4.0,4.0,184,156,151,164,160
2025-02-25 18:25:14.059,-403.0,-906.0,313.0,5.0,-5.0,5.0,180,151,145,162,156
2025-02-25 18:25:14.063,-400.0,-915.0,307.0,4.0,-5.0,5.0,178,150,144,158,154
2025-02-25 18:25:14.067,-397.0,-905.0,299.0,7.0,-3.0,6.0,184,158,149,164,160
2025-02-25 18:25:14.071,-411.0,-905.0,295.0,7.0,-3.0,7.0,183,156,149,164,159
2025-02-25 18:25:14.076,-400.0,-903.0,321.0,5.0,-3.0,6.0,180,153,143,158,155
2025-02-25 18:25:14.084,-406.0,-903.0,329.0,-2.0,-3.0,6.0,187,162,152,168,164
2025-02-25 18:25:14.088,-410.0,-889.0,313.0,-2.0,-3.0,6.0,185,159,150,165,161
2025-02-25 18:25:14.093,-415.0,-888.0,301.0,-4.0,-4.0,5.0,181,154,146,160,156
2025-02-25 18:25:14.100,-409.0,-878.0,322.0,-6.0,-2.0,5.0,179,152,144,159,156
2025-02-25 18:25:14.105,-422.0,-880.0,299.0,-5.0,-2.0,4.0,183,160,150,165,160
2025-02-25 18:25:14.111,-417.0,-878.0,281.0,-7.0,-1.0,3.0,183,155,147,163,158
2025-02-25 18:25:14.114,-415.0,-870.0,302.0,-7.0,-2.0,3.0,178,150,141,158,153
2025-02-25 18:25:14.120,-426.0,-885.0,293.0,-8.0,-3.0,3.0,179,151,141,157,153
2025-02-25 18:25:14.125,-417.0,-870.0,310.0,-7.0,-1.0,1.0,184,157,149,163,158
2025-02-25 18:25:14.129,-408.0,-895.0,265.0,-9.0,-3.0,1.0,181,155,146,161,157
2025-02-25 18:25:14.134,-412.0,-882.0,317.0,-8.0,-1.0,1.0,177,152,142,157,153
2025-02-25 18:25:14.141,-419.0,-911.0,302.0,-7.0,0.0,1.0,177,150,143,157,152
2025-02-25 18:25:14.145,-424.0,-906.0,306.0,-10.0,0.0,1.0,183,158,148,161,157
2025-02-25 18:25:14.150,-406.0,-910.0,305.0,-10.0,0.0,1.0,184,156,149,164,160
2025-02-25 18:25:14.154,-417.0,-907.0,310.0,-13.0,0.0,1.0,183,156,149,163,160
2025-02-25 18:25:14.161,-408.0,-913.0,289.0,-14.0,0.0,1.0,164,137,130,147,141
2025-02-25 18:25:14.166,-404.0,-917.0,290.0,-18.0,-1.0,2.0,162,133,126,141,137
2025-02-25 18:25:14.170,-396.0,-902.0,327.0,-18.0,1.0,2.0,172,146,139,153,148
2025-02-25 18:25:14.174,-408.0,-903.0,296.0,-17.0,1.0,2.0,186,159,153,168,163
2025-02-25 18:25:14.182,-398.0,-910.0,278.0,-17.0,0.0,2.0,194,165,158,174,170
2025-02-25 18:25:14.186,-390.0,-903.0,294.0,-17.0,-1.0,3.0,201,174,166,182,177
2025-02-25 18:25:14.190,-396.0,-905.0,304.0,-17.0,-1.0,3.0,196,171,165,180,176
2025-02-25 18:25:14.194,-381.0,-897.0,294.0,-16.0,-2.0,3.0,196,171,164,180,175
2025-02-25 18:25:14.202,-375.0,-893.0,314.0,-12.0,0.0,2.0,206,179,169,186,185
2025-02-25 18:25:14.207,-377.0,-893.0,268.0,-9.0,0.0,3.0,206,181,173,186,184
2025-02-25 18:25:14.211,-368.0,-888.0,287.0,-9.0,0.0,3.0,200,174,163,184,179
2025-02-25 18:25:14.215,-363.0,-911.0,289.0,-8.0,1.0,3.0,199,172,164,179,175
2025-02-25 18:25:14.223,-377.0,-905.0,284.0,-9.0,1.0,3.0,196,169,162,176,172
2025-02-25 18:25:14.227,-368.0,-902.0,284.0,-11.0,0.0,3.0,201,174,166,181,179
2025-02-25 18:25:14.231,-372.0,-900.0,291.0,-11.0,1.0,3.0,194,169,160,175,171
2025-02-25 18:25:14.235,-382.0,-905.0,290.0,-12.0,2.0,3.0,190,166,157,171,168
2025-02-25 18:25:14.243,-374.0,-899.0,287.0,-13.0,3.0,3.0,195,168,162,175,171
2025-02-25 18:25:14.247,-376.0,-901.0,302.0,-12.0,5.0,3.0,194,168,159,176,172
2025-02-25 18:25:14.251,-367.0,-902.0,259.0,-12.0,4.0,4.0,189,164,155,170,167
2025-02-25 18:25:14.256,-375.0,-892.0,266.0,-12.0,3.0,4.0,184,158,150,164,161
2025-02-25 18:25:14.264,-376.0,-890.0,251.0,-9.0,2.0,5.0,195,167,161,176,171
2025-02-25 18:25:14.268,-384.0,-880.0,269.0,-8.0,2.0,6.0,188,161,154,170,166
2025-02-25 18:25:14.272,-380.0,-873.0,257.0,-7.0,3.0,6.0,182,156,148,164,161
2025-02-25 18:25:14.276,-393.0,-866.0,249.0,-5.0,2.0,6.0,183,156,149,163,160
2025-02-25 18:25:14.284,-383.0,-857.0,272.0,-7.0,4.0,6.0,190,163,156,169,167
2025-02-25 18:25:14.289,-399.0,-853.0,250.0,-6.0,2.0,7.0,185,158,148,164,162
2025-02-25 18:25:14.293,-405.0,-859.0,251.0,-6.0,2.0,6.0,181,156,147,161,159
2025-02-25 18:25:14.297,-392.0,-857.0,247.0,-8.0,2.0,6.0,185,158,148,163,161
2025-02-25 18:25:14.304,-408.0,-850.0,241.0,-7.0,0.0,6.0,223,198,192,205,202
2025-02-25 18:25:14.309,-409.0,-848.0,269.0,-9.0,2.0,5.0,165,138,130,146,144
2025-02-25 18:25:14.313,-406.0,-832.0,232.0,-6.0,1.0,4.0,166,138,133,143,143
2025-02-25 18:25:14.317,-408.0,-855.0,274.0,-7.0,3.0,3.0,168,140,134,147,146
2025-02-25 18:25:14.322,-422.0,-850.0,227.0,-2.0,2.0,2.0,171,139,131,148,146
2025-02-25 18:25:14.330,-410.0,-843.0,230.0,-6.0,3.0,-1.0,162,135,126,143,140
2025-02-25 18:25:14.334,-423.0,-845.0,233.0,-6.0,-1.0,-2.0,163,135,129,143,141
2025-02-25 18:25:14.338,-412.0,-847.0,250.0,-7.0,-2.0,-3.0,167,140,133,145,145
2025-02-25 18:25:14.346,-424.0,-828.0,229.0,-5.0,-2.0,-4.0,172,145,138,153,151
2025-02-25 18:25:14.350,-413.0,-837.0,253.0,1.0,-1.0,-6.0,167,139,131,145,144
2025-02-25 18:25:14.355,-417.0,-841.0,223.0,3.0,-1.0,-6.0,166,142,130,145,144
2025-02-25 18:25:14.358,-417.0,-860.0,243.0,6.0,-4.0,-6.0,170,141,134,150,148
2025-02-25 18:25:14.366,-416.0,-880.0,255.0,5.0,-5.0,-5.0,170,143,134,149,148
2025-02-25 18:25:14.371,-432.0,-907.0,272.0,8.0,-3.0,-5.0,168,139,130,145,143
2025-02-25 18:25:14.375,-419.0,-880.0,284.0,7.0,-5.0,-5.0,165,135,130,145,143
2025-02-25 18:25:14.380,-406.0,-890.0,303.0,7.0,-1.0,-4.0,171,143,134,149,148
2025-02-25 18:25:14.386,-410.0,-912.0,245.0,8.0,-1.0,-4.0,169,142,134,150,147
2025-02-25 18:25:14.390,-413.0,-927.0,258.0,1.0,-2.0,-4.0,166,139,132,146,145
2025-02-25 18:25:14.395,-426.0,-959.0,285.0,-3.0,-5.0,-3.0,165,138,130,145,143
2025-02-25 18:25:14.399,-422.0,-962.0,280.0,-10.0,-4.0,-2.0,170,142,139,151,149
2025-02-25 18:25:14.407,-414.0,-949.0,281.0,-13.0,-2.0,-1.0,171,142,136,152,150
2025-02-25 18:25:14.411,-413.0,-982.0,304.0,-11.0,2.0,0.0,170,141,134,153,146
2025-02-25 18:25:14.416,-419.0,-1015.0,266.0,-11.0,1.0,1.0,182,155,148,159,160
2025-02-25 18:25:14.423,-412.0,-1019.0,291.0,-14.0,2.0,1.0,194,168,161,175,174
2025-02-25 18:25:14.428,-397.0,-1028.0,299.0,-18.0,2.0,2.0,190,162,155,168,168
2025-02-25 18:25:14.432,-391.0,-1046.0,259.0,-20.0,-2.0,4.0,190,160,154,169,168
2025-02-25 18:25:14.437,-382.0,-1034.0,317.0,-25.0,2.0,3.0,188,159,151,167,166
2025-02-25 18:25:14.444,-381.0,-1022.0,310.0,-25.0,4.0,3.0,191,163,157,171,171
2025-02-25 18:25:14.448,-358.0,-1047.0,346.0,-29.0,13.0,0.0,200,171,165,178,178
2025-02-25 18:25:14.453,-353.0,-1014.0,371.0,-25.0,23.0,-3.0,199,171,163,178,178
2025-02-25 18:25:14.461,-388.0,-1049.0,241.0,-27.0,23.0,-2.0,184,154,146,164,162
2025-02-25 18:25:14.465,-409.0,-1055.0,258.0,-32.0,22.0,0.0,174,145,139,152,154
2025-02-25 18:25:14.469,-428.0,-1068.0,297.0,-32.0,19.0,1.0,189,160,152,167,166
2025-02-25 18:25:14.473,-431.0,-1074.0,251.0,-33.0,19.0,3.0,192,163,158,172,171
2025-02-25 18:25:14.481,-444.0,-1068.0,271.0,-35.0,19.0,6.0,202,169,166,180,179
2025-02-25 18:25:14.485,-464.0,-1073.0,192.0,-32.0,11.0,8.0,198,169,165,177,177
2025-02-25 18:25:14.490,-463.0,-1094.0,262.0,-26.0,11.0,11.0,185,158,152,167,167
2025-02-25 18:25:14.497,-437.0,-1042.0,249.0,-22.0,10.0,12.0,187,156,152,167,166
2025-02-25 18:25:14.501,-450.0,-1039.0,196.0,-15.0,22.0,13.0,185,154,151,164,164
2025-02-25 18:25:14.506,-431.0,-1057.0,195.0,-13.0,27.0,16.0,184,153,148,165,163
2025-02-25 18:25:14.514,-439.0,-1060.0,205.0,-19.0,23.0,18.0,180,152,149,165,165
2025-02-25 18:25:14.518,-443.0,-1051.0,196.0,-30.0,16.0,18.0,193,161,157,173,175
2025-02-25 18:25:14.523,-442.0,-1041.0,253.0,-39.0,14.0,18.0,164,131,126,144,144
2025-02-25 18:25:14.530,-413.0,-1009.0,306.0,-40.0,19.0,18.0,157,124,120,137,137
2025-02-25 18:25:14.535,-409.0,-1018.0,278.0,-37.0,27.0,17.0,161,125,121,139,138
2025-02-25 18:25:14.539,-386.0,-1008.0,276.0,-43.0,37.0,16.0,162,127,122,139,139
2025-02-25 18:25:14.547,-408.0,-1006.0,201.0,-45.0,42.0,17.0,163,129,123,141,140
2025-02-25 18:25:14.551,-429.0,-1019.0,70.0,-46.0,33.0,20.0,161,120,119,137,138
2025-02-25 18:25:14.556,-414.0,-985.0,237.0,-49.0,34.0,20.0,159,125,118,136,137
2025-02-25 18:25:14.560,-415.0,-980.0,233.0,-44.0,35.0,20.0,158,122,120,137,138
2025-02-25 18:25:14.567,-437.0,-928.0,238.0,-32.0,33.0,20.0,161,127,121,141,138
2025-02-25 18:25:14.572,-427.0,-963.0,264.0,-25.0,36.0,20.0,161,127,118,140,136
2025-02-25 18:25:14.576,-425.0,-931.0,234.0,-24.0,40.0,19.0,161,123,121,139,137
2025-02-25 18:25:14.584,-421.0,-898.0,177.0,-16.0,40.0,19.0,158,119,116,135,135
2025-02-25 18:25:14.588,-430.0,-912.0,180.0,-13.0,38.0,19.0,158,121,116,136,136
2025-02-25 18:25:14.592,-446.0,-896.0,182.0,-3.0,38.0,20.0,161,123,118,138,138
2025-02-25 18:25:14.600,-457.0,-894.0,189.0,5.0,39.0,19.0,160,121,118,138,137
2025-02-25 18:25:14.604,-453.0,-879.0,259.0,7.0,43.0,19.0,162,121,119,138,138
2025-02-25 18:25:14.608,-452.0,-854.0,229.0,19.0,44.0,21.0,160,115,114,134,135
2025-02-25 18:25:14.613,-451.0,-840.0,208.0,18.0,47.0,21.0,162,119,116,138,136
2025-02-25 18:25:14.621,-436.0,-833.0,163.0,17.0,46.0,22.0,160,116,115,137,132
2025-02-25 18:25:14.625,-450.0,-794.0,167.0,20.0,47.0,24.0,160,113,114,135,133
2025-02-25 18:25:14.629,-451.0,-804.0,197.0,11.0,50.0,23.0,157,106,111,132,130
2025-02-25 18:25:14.633,-452.0,-801.0,146.0,7.0,59.0,23.0,155,105,108,128,128
2025-02-25 18:25:14.641,-480.0,-790.0,166.0,-2.0,70.0,23.0,160,105,111,133,129
2025-02-25 18:25:14.645,-474.0,-778.0,153.0,2.0,74.0,25.0,159,104,114,132,129
2025-02-25 18:25:14.649,-472.0,-737.0,99.0,8.0,73.0,24.0,155,101,109,130,126
2025-02-25 18:25:14.654,-486.0,-768.0,128.0,3.0,71.0,23.0,157,97,108,129,123
2025-02-25 18:25:14.661,-507.0,-759.0,116.0,0.0,69.0,22.0,159,102,111,130,130
2025-02-25 18:25:14.666,-494.0,-717.0,115.0,-4.0,66.0,20.0,159,100,109,129,125
2025-02-25 18:25:14.670,-481.0,-664.0,95.0,-4.0,64.0,19.0,156,93,111,126,119
2025-02-25 18:25:14.674,-502.0,-649.0,59.0,1.0,58.0,18.0,158,92,106,128,121
2025-02-25 18:25:14.682,-555.0,-627.0,96.0,5.0,57.0,17.0,159,92,106,127,119
2025-02-25 18:25:14.686,-626.0,-586.0,73.0,5.0,58.0,17.0,156,86,104,124,117
2025-02-25 18:25:14.690,-658.0,-571.0,77.0,8.0,63.0,19.0,157,85,101,121,115
2025-02-25 18:25:14.694,-708.0,-486.0,57.0,12.0,63.0,20.0,159,85,104,124,115
2025-02-25 18:25:14.699,-760.0,-412.0,77.0,18.0,67.0,22.0,158,84,106,123,111
2025-02-25 18:25:14.706,-776.0,-349.0,46.0,28.0,67.0,23.0,159,79,101,119,106
2025-02-25 18:25:14.710,-834.0,-337.0,24.0,32.0,69.0,21.0,162,82,101,121,107
2025-02-25 18:25:14.714,-883.0,-214.0,14.0,31.0,72.0,20.0,167,86,105,125,109
2025-02-25 18:25:14.719,-893.0,-100.0,-20.0,30.0,73.0,14.0,167,80,105,121,107
2025-02-25 18:25:14.726,-891.0,-74.0,-94.0,28.0,72.0,13.0,167,81,101,119,101
2025-02-25 18:25:14.731,-876.0,-50.0,-31.0,33.0,79.0,15.0,175,91,109,127,109
2025-02-25 18:25:14.735,-800.0,-29.0,215.0,40.0,84.0,8.0,178,95,112,129,108
2025-02-25 18:25:14.739,-1013.0,168.0,-151.0,29.0,82.0,-1.0,171,89,105,123,102
2025-02-25 18:25:14.747,-1076.0,259.0,-39.0,27.0,99.0,-2.0,176,92,109,124,103
2025-02-25 18:25:14.751,-1085.0,381.0,-228.0,16.0,100.0,-2.0,185,101,116,133,110
2025-02-25 18:25:14.755,-1074.0,405.0,-114.0,15.0,118.0,-1.0,186,100,116,134,107
2025-02-25 18:25:14.763,-1079.0,481.0,-215.0,14.0,122.0,-11.0,192,109,123,144,116
2025-02-25 18:25:14.768,-1105.0,566.0,-373.0,-22.0,126.0,-28.0,194,113,127,147,117
2025-02-25 18:25:14.772,-1001.0,546.0,-257.0,-28.0,137.0,-39.0,210,135,148,168,139
2025-02-25 18:25:14.780,-869.0,622.0,-242.0,-23.0,158.0,-76.0,218,140,151,173,143
2025-02-25 18:25:14.784,-668.0,638.0,-596.0,-16.0,147.0,-100.0,221,146,155,179,149
2025-02-25 18:25:14.789,-383.0,810.0,-593.0,23.0,111.0,-155.0,214,141,149,171,143
2025-02-25 18:25:14.797,-562.0,864.0,-886.0,47.0,59.0,-224.0,210,139,145,174,143
2025-02-25 18:25:14.801,-578.0,985.0,-871.0,82.0,30.0,-289.0,197,128,134,159,129
2025-02-25 18:25:14.805,-550.0,911.0,-762.0,71.0,12.0,-352.0,170,99,107,130,102
2025-02-25 18:25:14.813,-609.0,921.0,-763.0,46.0,-48.0,-384.0,165,96,102,126,99
2025-02-25 18:25:14.817,-558.0,603.0,-703.0,51.0,-125.0,-442.0,173,105,114,133,109
2025-02-25 18:25:14.821,-358.0,411.0,-655.0,49.0,-204.0,-498.0,201,135,141,160,137
2025-02-25 18:25:14.829,25.0,77.0,-578.0,41.0,-267.0,-535.0,205,141,149,166,144
2025-02-25 18:25:14.833,577.0,-422.0,-284.0,37.0,-307.0,-550.0,173,104,111,130,106
2025-02-25 18:25:14.838,1151.0,-1059.0,178.0,33.0,-321.0,-531.0,164,97,102,123,100
2025-02-25 18:25:14.845,1418.0,-1778.0,696.0,35.0,-327.0,-475.0,162,94,102,119,98
2025-02-25 18:25:14.850,1855.0,-2566.0,1210.0,46.0,-300.0,-434.0,168,103,113,129,107
2025-02-25 18:25:14.857,2228.0,-2973.0,1603.0,69.0,-239.0,-330.0,221,162,169,184,165
2025-02-25 18:25:14.862,2464.0,-3761.0,1977.0,116.0,-156.0,-213.0,206,145,153,169,148
2025-02-25 18:25:14.866,2567.0,-4341.0,2070.0,176.0,-61.0,-102.0,198,134,146,161,140
2025-02-25 18:25:14.874,2520.0,-4576.0,2051.0,247.0,31.0,-7.0,198,138,150,160,142
2025-02-25 18:25:14.878,2569.0,-4587.0,2137.0,296.0,106.0,69.0,191,129,145,154,136
2025-02-25 18:25:14.883,2170.0,-4352.0,1517.0,316.0,200.0,118.0,160,96,112,118,101
2025-02-25 18:25:14.890,1404.0,-3476.0,1204.0,326.0,211.0,151.0,157,94,111,113,102
2025-02-25 18:25:14.895,918.0,-2711.0,977.0,260.0,197.0,175.0,158,94,115,113,98
2025-02-25 18:25:14.899,783.0,-1920.0,870.0,196.0,176.0,174.0,156,99,119,115,104
2025-02-25 18:25:14.907,628.0,-1620.0,770.0,78.0,152.0,170.0,156,94,114,115,100
2025-02-25 18:25:14.911,387.0,-1333.0,602.0,-48.0,128.0,165.0,161,99,115,117,103
2025-02-25 18:25:14.916,386.0,-1219.0,577.0,-141.0,83.0,148.0,161,101,116,119,104
2025-02-25 18:25:14.924,253.0,-1284.0,447.0,-174.0,47.0,132.0,159,100,114,123,106
2025-02-25 18:25:14.928,271.0,-1449.0,360.0,-232.0,25.0,125.0,157,100,111,125,104
2025-02-25 18:25:14.932,266.0,-1630.0,245.0,-259.0,18.0,118.0,153,95,107,121,101
2025-02-25 18:25:14.940,299.0,-1792.0,241.0,-262.0,9.0,124.0,154,98,106,121,101
2025-02-25 18:25:14.944,340.0,-1921.0,218.0,-249.0,11.0,128.0,152,96,103,121,99
2025-02-25 18:25:14.948,267.0,-2015.0,232.0,-228.0,8.0,146.0,152,97,101,118,98
2025-02-25 18:25:14.952,344.0,-2020.0,236.0,-209.0,4.0,159.0,147,91,98,115,95
2025-02-25 18:25:14.961,314.0,-1886.0,248.0,-182.0,3.0,175.0,144,87,97,111,93
2025-02-25 18:25:14.965,233.0,-1837.0,237.0,-150.0,1.0,181.0,145,88,95,112,91
2025-02-25 18:25:14.969,226.0,-1683.0,270.0,-129.0,-22.0,192.0,144,87,96,110,93
2025-02-25 18:25:14.977,193.0,-1457.0,261.0,-123.0,-13.0,204.0,144,87,95,112,91
2025-02-25 18:25:14.981,273.0,-1364.0,435.0,-114.0,-10.0,211.0,142,84,93,107,90
2025-02-25 18:25:14.986,86.0,-1040.0,291.0,-112.0,-17.0,214.0,142,85,95,107,89
2025-02-25 18:25:14.990,66.0,-962.0,300.0,-114.0,-23.0,217.0,145,86,100,112,94
2025-02-25 18:25:14.997,-1.0,-849.0,270.0,-117.0,-20.0,220.0,145,89,99,114,93
2025-02-25 18:25:15.002,-73.0,-773.0,250.0,-117.0,-26.0,221.0,146,92,101,116,98
2025-02-25 18:25:15.006,-83.0,-692.0,233.0,-120.0,-27.0,224.0,143,85,94,111,89
2025-02-25 18:25:15.013,-124.0,-668.0,215.0,-121.0,-27.0,226.0,140,81,95,109,88
2025-02-25 18:25:15.017,-229.0,-573.0,189.0,-122.0,-27.0,229.0,143,88,98,115,95
2025-02-25 18:25:15.022,-221.0,-451.0,235.0,-124.0,-22.0,229.0,147,91,101,119,96
2025-02-25 18:25:15.026,-316.0,-329.0,193.0,-123.0,-23.0,225.0,143,88,99,113,93
2025-02-25 18:25:15.034,-386.0,-262.0,189.0,-120.0,-22.0,221.0,140,84,96,110,90
2025-02-25 18:25:15.038,-485.0,-189.0,136.0,-115.0,-20.0,217.0,141,82,96,109,88
2025-02-25 18:25:15.043,-529.0,-136.0,116.0,-106.0,-19.0,205.0,145,88,101,113,95
2025-02-25 18:25:15.050,-617.0,2.0,103.0,-97.0,-18.0,191.0,144,88,98,112,93
2025-02-25 18:25:15.055,-651.0,61.0,92.0,-92.0,-12.0,174.0,142,84,94,108,90
2025-02-25 18:25:15.059,-667.0,94.0,90.0,-82.0,-10.0,166.0,141,86,95,108,91
2025-02-25 18:25:15.063,-701.0,108.0,61.0,-74.0,-3.0,150.0,145,90,100,113,94
2025-02-25 18:25:15.067,-701.0,117.0,56.0,-70.0,7.0,136.0,144,87,98,112,91
2025-02-25 18:25:15.075,-713.0,137.0,23.0,-65.0,11.0,124.0,140,84,96,109,89
2025-02-25 18:25:15.079,-757.0,132.0,0.0,-59.0,22.0,118.0,144,88,98,114,94
2025-02-25 18:25:15.083,-776.0,174.0,-39.0,-55.0,29.0,107.0,144,87,99,114,94
2025-02-25 18:25:15.087,-806.0,197.0,-78.0,-46.0,32.0,97.0,140,85,97,108,89
2025-02-25 18:25:15.095,-859.0,219.0,-116.0,-38.0,39.0,92.0,145,90,100,113,93
2025-02-25 18:25:15.100,-896.0,290.0,-137.0,-32.0,42.0,83.0,148,93,105,118,99
2025-02-25 18:25:15.103,-924.0,326.0,-162.0,-29.0,45.0,76.0,154,102,109,123,100
2025-02-25 18:25:15.108,-919.0,367.0,-183.0,-23.0,47.0,70.0,151,93,102,118,98
2025-02-25 18:25:15.116,-963.0,389.0,-222.0,-15.0,45.0,67.0,153,98,108,123,104
2025-02-25 18:25:15.120,-948.0,443.0,-203.0,-9.0,43.0,62.0,155,95,109,125,104
2025-02-25 18:25:15.124,-1024.0,522.0,-280.0,-7.0,39.0,55.0,154,100,107,123,104
2025-02-25 18:25:15.129,-1011.0,600.0,-289.0,2.0,38.0,46.0,150,90,100,118,99
2025-02-25 18:25:15.136,-1047.0,647.0,-318.0,6.0,29.0,42.0,155,99,106,122,105
2025-02-25 18:25:15.141,-1039.0,746.0,-320.0,10.0,24.0,31.0,159,103,110,127,108
2025-02-25 18:25:15.145,-1067.0,863.0,-324.0,11.0,15.0,16.0,152,97,105,120,103
2025-02-25 18:25:15.149,-1083.0,930.0,-335.0,14.0,11.0,0.0,147,90,99,113,95
2025-02-25 18:25:15.157,-1068.0,964.0,-305.0,19.0,7.0,-8.0,154,97,104,120,101
2025-02-25 18:25:15.161,-1046.0,973.0,-289.0,29.0,4.0,-29.0,159,103,112,128,108
2025-02-25 18:25:15.165,-986.0,959.0,-261.0,35.0,4.0,-53.0,152,97,105,121,104
2025-02-25 18:25:15.173,-959.0,934.0,-227.0,52.0,6.0,-83.0,149,92,101,118,99
2025-02-25 18:25:15.178,-929.0,937.0,-191.0,69.0,8.0,-98.0,153,93,103,121,100
2025-02-25 18:25:15.182,-914.0,919.0,-188.0,86.0,9.0,-131.0,157,101,109,126,106
2025-02-25 18:25:15.186,-859.0,913.0,-160.0,95.0,10.0,-168.0,153,97,104,122,102
2025-02-25 18:25:15.194,-807.0,919.0,-154.0,106.0,8.0,-213.0,151,93,101,118,100
2025-02-25 18:25:15.198,-859.0,800.0,-87.0,114.0,3.0,-253.0,150,94,102,123,100
2025-02-25 18:25:15.202,-776.0,913.0,-123.0,110.0,-5.0,-275.0,156,100,107,126,106
2025-02-25 18:25:15.210,-647.0,871.0,-99.0,105.0,-14.0,-321.0,154,99,106,124,104
2025-02-25 18:25:15.215,-466.0,786.0,-22.0,99.0,-19.0,-368.0,154,98,107,124,105
2025-02-25 18:25:15.219,-247.0,693.0,62.0,80.0,-21.0,-411.0,152,93,104,123,102
2025-02-25 18:25:15.223,-130.0,545.0,123.0,55.0,-19.0,-452.0,150,92,98,121,101
2025-02-25 18:25:15.231,74.0,437.0,171.0,30.0,-22.0,-471.0,148,98,106,122,104
2025-02-25 18:25:15.235,269.0,110.0,180.0,13.0,-22.0,-501.0,154,97,106,125,104
2025-02-25 18:25:15.239,492.0,-371.0,249.0,9.0,-28.0,-522.0,157,100,108,128,103
2025-02-25 18:25:15.247,607.0,-966.0,316.0,15.0,-29.0,-524.0,149,94,103,122,101
2025-02-25 18:25:15.252,867.0,-1637.0,442.0,43.0,-34.0,-520.0,148,92,98,120,101
2025-02-25 18:25:15.256,1086.0,-1987.0,578.0,88.0,-31.0,-494.0,153,97,108,127,108
2025-02-25 18:25:15.263,1323.0,-2701.0,654.0,147.0,-24.0,-443.0,154,97,108,128,108
2025-02-25 18:25:15.268,1515.0,-3454.0,762.0,227.0,-19.0,-377.0,150,96,105,125,104
2025-02-25 18:25:15.272,1719.0,-4108.0,791.0,261.0,-2.0,-303.0,149,92,102,120,102
2025-02-25 18:25:15.280,1839.0,-4758.0,705.0,311.0,20.0,-203.0,146,91,105,121,101
2025-02-25 18:25:15.284,1795.0,-5317.0,883.0,456.0,18.0,-117.0,148,92,105,119,102
2025-02-25 18:25:15.289,2020.0,-5468.0,945.0,501.0,89.0,-61.0,150,90,107,117,103
2025-02-25 18:25:15.296,2057.0,-5146.0,978.0,501.0,171.0,62.0,161,104,122,122,114
2025-02-25 18:25:15.300,1811.0,-4770.0,902.0,467.0,185.0,178.0,165,106,124,123,115
2025-02-25 18:25:15.305,1456.0,-3825.0,889.0,384.0,209.0,264.0,158,99,120,117,110
2025-02-25 18:25:15.313,1148.0,-2920.0,716.0,314.0,181.0,304.0,154,96,115,114,106
2025-02-25 18:25:15.317,803.0,-2146.0,634.0,212.0,153.0,300.0,154,96,115,115,106
2025-02-25 18:25:15.322,577.0,-1494.0,471.0,118.0,132.0,271.0,152,95,113,114,103
2025-02-25 18:25:15.329,407.0,-1327.0,426.0,23.0,94.0,250.0,151,93,107,113,104
2025-02-25 18:25:15.334,269.0,-1159.0,382.0,-64.0,63.0,214.0,156,99,113,120,109
2025-02-25 18:25:15.338,101.0,-1127.0,352.0,-134.0,24.0,186.0,157,99,109,125,107
2025-02-25 18:25:15.342,133.0,-1243.0,290.0,-161.0,-4.0,165.0,156,98,108,126,108
2025-02-25 18:25:15.350,168.0,-1478.0,263.0,-192.0,-19.0,148.0,152,92,101,124,105
2025-02-25 18:25:15.354,149.0,-1576.0,215.0,-200.0,-40.0,140.0,149,91,100,123,102
2025-02-25 18:25:15.358,115.0,-1866.0,286.0,-195.0,-47.0,137.0,146,87,97,119,96
2025-02-25 18:25:15.366,206.0,-1776.0,351.0,-181.0,-52.0,140.0,150,91,99,123,103
2025-02-25 18:25:15.370,230.0,-1739.0,448.0,-164.0,-54.0,148.0,148,90,96,122,101
2025-02-25 18:25:15.374,192.0,-1621.0,499.0,-159.0,-57.0,160.0,148,89,95,118,100
2025-02-25 18:25:15.382,198.0,-1474.0,557.0,-145.0,-54.0,173.0,147,91,99,118,100
2025-02-25 18:25:15.386,175.0,-1317.0,565.0,-132.0,-42.0,182.0,149,85,95,115,98
2025-02-25 18:25:15.391,107.0,-1230.0,574.0,-140.0,-45.0,188.0,148,88,97,115,99
2025-02-25 18:25:15.398,115.0,-1153.0,561.0,-156.0,-37.0,200.0,151,89,99,118,102
2025-02-25 18:25:15.403,42.0,-973.0,545.0,-171.0,-40.0,210.0,152,89,102,122,104
2025-02-25 18:25:15.407,-26.0,-891.0,506.0,-175.0,-37.0,217.0,150,90,98,119,100
2025-02-25 18:25:15.414,-20.0,-749.0,472.0,-189.0,-38.0,220.0,148,85,96,116,97
2025-02-25 18:25:15.419,-84.0,-683.0,382.0,-205.0,-41.0,221.0,148,86,97,117,98
2025-02-25 18:25:15.423,-161.0,-533.0,421.0,-211.0,-41.0,217.0,152,91,102,123,101
2025-02-25 18:25:15.427,-238.0,-405.0,392.0,-209.0,-39.0,209.0,153,91,100,121,101
2025-02-25 18:25:15.435,-253.0,-307.0,374.0,-211.0,-42.0,201.0,151,88,100,121,99
2025-02-25 18:25:15.440,-325.0,-232.0,353.0,-209.0,-45.0,193.0,152,88,101,121,101
2025-02-25 18:25:15.444,-395.0,-164.0,331.0,-205.0,-46.0,183.0,150,86,96,116,98
2025-02-25 18:25:15.452,-457.0,-121.0,299.0,-197.0,-47.0,178.0,150,87,97,116,100
2025-02-25 18:25:15.456,-504.0,-101.0,260.0,-188.0,-45.0,166.0,153,89,106,118,101
2025-02-25 18:25:15.460,-509.0,-104.0,274.0,-180.0,-40.0,158.0,154,91,103,118,104
2025-02-25 18:25:15.468,-538.0,-114.0,253.0,-176.0,-35.0,152.0,154,88,102,116,101
2025-02-25 18:25:15.472,-578.0,-134.0,212.0,-165.0,-27.0,147.0,153,90,102,118,100
2025-02-25 18:25:15.477,-582.0,-152.0,197.0,-146.0,-23.0,144.0,148,83,95,114,95
2025-02-25 18:25:15.484,-607.0,-149.0,193.0,-128.0,-14.0,142.0,150,86,100,117,98
2025-02-25 18:25:15.489,-614.0,-134.0,151.0,-108.0,-2.0,142.0,164,99,111,129,111
2025-02-25 18:25:15.493,-662.0,-112.0,168.0,-97.0,6.0,144.0,167,101,114,132,115
2025-02-25 18:25:15.501,-696.0,-51.0,106.0,-90.0,15.0,145.0,165,104,113,132,116
2025-02-25 18:25:15.505,-707.0,-24.0,121.0,-71.0,21.0,145.0,169,103,117,134,115
2025-02-25 18:25:15.509,-716.0,36.0,84.0,-58.0,28.0,146.0,171,101,112,131,113
2025-02-25 18:25:15.513,-706.0,73.0,139.0,-41.0,42.0,148.0,173,110,120,139,120
2025-02-25 18:25:15.522,-835.0,97.0,104.0,-37.0,46.0,147.0,184,120,133,151,132
2025-02-25 18:25:15.526,-853.0,135.0,14.0,-33.0,50.0,148.0,182,117,124,146,129
2025-02-25 18:25:15.530,-892.0,237.0,-16.0,-14.0,56.0,147.0,180,117,124,148,128
2025-02-25 18:25:15.538,-821.0,162.0,-28.0,-9.0,57.0,144.0,190,123,135,157,138
2025-02-25 18:25:15.542,-815.0,376.0,-50.0,-2.0,66.0,134.0,215,152,161,183,164
2025-02-25 18:25:15.546,-836.0,386.0,-64.0,2.0,72.0,127.0,232,168,175,196,179
2025-02-25 18:25:15.550,-858.0,499.0,-58.0,4.0,72.0,119.0,199,134,143,165,146
2025-02-25 18:25:15.558,-873.0,548.0,-117.0,10.0,70.0,115.0,192,127,134,157,137
2025-02-25 18:25:15.562,-907.0,622.0,-158.0,9.0,73.0,103.0,198,131,142,163,144
2025-02-25 18:25:15.566,-913.0,738.0,-188.0,3.0,73.0,90.0,193,127,136,157,140
2025-02-25 18:25:15.571,-928.0,795.0,-151.0,6.0,75.0,77.0,187,119,128,151,131
2025-02-25 18:25:15.578,-911.0,833.0,-173.0,9.0,74.0,58.0,186,119,128,151,131
2025-02-25 18:25:15.583,-875.0,860.0,-242.0,16.0,70.0,49.0,192,124,134,157,139
2025-02-25 18:25:15.587,-959.0,822.0,-230.0,17.0,67.0,28.0,189,124,132,155,136
2025-02-25 18:25:15.595,-915.0,855.0,-276.0,23.0,70.0,5.0,188,120,129,151,133
2025-02-25 18:25:15.599,-936.0,899.0,-288.0,36.0,70.0,-24.0,187,118,126,149,130
2025-02-25 18:25:15.603,-958.0,968.0,-316.0,52.0,65.0,-41.0,191,123,132,156,137
2025-02-25 18:25:15.608,-1077.0,1008.0,-351.0,71.0,52.0,-73.0,191,124,130,153,138
2025-02-25 18:25:15.616,-1179.0,1157.0,-440.0,87.0,37.0,-111.0,192,122,131,156,136
2025-02-25 18:25:15.620,-1233.0,1235.0,-562.0,96.0,23.0,-153.0,194,124,137,158,139
2025-02-25 18:25:15.628,-1215.0,1263.0,-604.0,114.0,7.0,-199.0,189,119,128,151,131
2025-02-25 18:25:15.632,-1204.0,1244.0,-607.0,136.0,2.0,-243.0,187,118,126,149,130
2025-02-25 18:25:15.637,-1107.0,1219.0,-581.0,157.0,-16.0,-284.0,187,115,124,149,128
2025-02-25 18:25:15.644,-991.0,1146.0,-501.0,176.0,-33.0,-325.0,190,119,127,151,132
2025-02-25 18:25:15.649,-829.0,1121.0,-443.0,184.0,-53.0,-345.0,187,115,122,150,129
2025-02-25 18:25:15.653,-680.0,1007.0,-343.0,187.0,-70.0,-384.0,192,120,127,154,134
2025-02-25 18:25:15.661,-504.0,940.0,-253.0,183.0,-91.0,-427.0,199,129,132,161,142
2025-02-25 18:25:15.665,-304.0,943.0,-189.0,170.0,-112.0,-473.0,196,123,130,156,137
2025-02-25 18:25:15.673,-113.0,732.0,-106.0,164.0,-146.0,-513.0,196,121,129,156,136
2025-02-25 18:25:15.677,156.0,573.0,-153.0,141.0,-178.0,-561.0,197,121,129,158,135
2025-02-25 18:25:15.682,381.0,467.0,-23.0,128.0,-206.0,-593.0,195,119,128,155,134
2025-02-25 18:25:15.690,688.0,77.0,-37.0,115.0,-236.0,-607.0,192,116,122,152,131
2025-02-25 18:25:15.694,854.0,-387.0,21.0,110.0,-256.0,-611.0,190,113,123,149,130
2025-02-25 18:25:15.698,1212.0,-628.0,42.0,117.0,-299.0,-608.0,191,116,121,150,130
2025-02-25 18:25:15.705,1608.0,-1155.0,203.0,118.0,-337.0,-591.0,196,120,129,156,137
2025-02-25 18:25:15.710,1805.0,-1782.0,328.0,80.0,-356.0,-578.0,198,120,129,157,137
2025-02-25 18:25:15.714,1967.0,-2759.0,414.0,39.0,-336.0,-533.0,200,119,131,155,139
2025-02-25 18:25:15.722,2686.0,-4281.0,1120.0,25.0,-226.0,-409.0,203,124,136,159,145
2025-02-25 18:25:15.726,3024.0,-5460.0,1896.0,23.0,-64.0,-269.0,202,119,133,149,137
2025-02-25 18:25:15.734,2855.0,-6383.0,1872.0,115.0,24.0,-80.0,202,121,138,150,139
2025-02-25 18:25:15.738,2863.0,-6528.0,1993.0,284.0,-12.0,23.0,211,129,147,155,149
2025-02-25 18:25:15.743,2983.0,-5616.0,1758.0,322.0,54.0,115.0,193,103,125,128,126
2025-02-25 18:25:15.750,2678.0,-4573.0,1494.0,425.0,96.0,167.0,184,99,119,115,114
2025-02-25 18:25:15.755,2433.0,-2957.0,1383.0,302.0,239.0,213.0,175,89,111,109,103
2025-02-25 18:25:15.759,1762.0,-2515.0,1037.0,169.0,296.0,232.0,173,85,104,107,100
2025-02-25 18:25:15.767,1211.0,-1641.0,721.0,43.0,249.0,233.0,174,86,106,108,101
2025-02-25 18:25:15.772,803.0,-1100.0,357.0,-41.0,157.0,203.0,173,85,101,104,99
2025-02-25 18:25:15.775,283.0,-1013.0,-84.0,-61.0,51.0,172.0,171,84,99,105,97
2025-02-25 18:25:15.783,194.0,-1230.0,-201.0,-94.0,14.0,157.0,172,84,97,107,98
2025-02-25 18:25:15.787,83.0,-1567.0,-156.0,-161.0,-16.0,156.0,169,81,88,108,97
2025-02-25 18:25:15.793,-42.0,-1409.0,-179.0,-168.0,-14.0,140.0,173,85,93,113,99
2025-02-25 18:25:15.797,69.0,-1816.0,67.0,-220.0,18.0,146.0,172,85,90,115,99
2025-02-25 18:25:15.804,51.0,-1890.0,42.0,-229.0,22.0,168.0,173,85,91,118,100
2025-02-25 18:25:15.808,-140.0,-1885.0,99.0,-211.0,15.0,174.0,167,80,85,112,94
2025-02-25 18:25:15.812,12.0,-2019.0,245.0,-176.0,3.0,179.0,169,83,90,114,96
2025-02-25 18:25:15.817,49.0,-1645.0,277.0,-141.0,8.0,184.0,172,85,90,118,99
2025-02-25 18:25:15.825,93.0,-1390.0,336.0,-131.0,23.0,188.0,171,84,88,113,98
2025-02-25 18:25:15.829,37.0,-1131.0,382.0,-121.0,23.0,197.0,167,82,87,110,96
2025-02-25 18:25:15.833,-77.0,-811.0,357.0,-124.0,-5.0,200.0,171,87,93,113,100
2025-02-25 18:25:15.837,-301.0,-846.0,398.0,-120.0,-43.0,197.0,173,86,95,111,96
2025-02-25 18:25:15.845,-211.0,-636.0,316.0,-130.0,-56.0,193.0,174,88,96,114,102
2025-02-25 18:25:15.849,-246.0,-526.0,252.0,-135.0,-49.0,188.0,170,84,93,112,98
2025-02-25 18:25:15.853,-261.0,-475.0,250.0,-151.0,-27.0,186.0,170,82,95,113,98
2025-02-25 18:25:15.861,-291.0,-454.0,320.0,-156.0,-14.0,181.0,172,88,99,116,101
2025-02-25 18:25:15.866,-256.0,-420.0,336.0,-174.0,-10.0,174.0,173,87,96,117,103
2025-02-25 18:25:15.870,-371.0,-416.0,308.0,-180.0,-7.0,172.0,173,85,95,118,101
2025-02-25 18:25:15.877,-409.0,-311.0,280.0,-178.0,-8.0,165.0,169,82,91,115,98
2025-02-25 18:25:15.882,-417.0,-244.0,259.0,-186.0,5.0,163.0,174,87,97,118,100
2025-02-25 18:25:15.886,-516.0,-185.0,209.0,-168.0,14.0,159.0,173,85,94,117,101
2025-02-25 18:25:15.890,-560.0,-186.0,182.0,-133.0,20.0,146.0,173,87,96,116,100
2025-02-25 18:25:15.898,-522.0,-180.0,213.0,-119.0,10.0,132.0,172,87,95,113,98
2025-02-25 18:25:15.902,-648.0,-114.0,221.0,-99.0,5.0,122.0,171,86,95,112,99
2025-02-25 18:25:15.907,-665.0,-113.0,93.0,-64.0,-4.0,114.0,169,82,93,108,94
2025-02-25 18:25:15.911,-663.0,-89.0,125.0,-44.0,-8.0,100.0,174,87,97,111,99
2025-02-25 18:25:15.918,-701.0,-89.0,133.0,-37.0,-7.0,87.0,170,85,96,111,99
2025-02-25 18:25:15.923,-685.0,-102.0,64.0,-26.0,-5.0,77.0,173,87,96,112,98
2025-02-25 18:25:15.927,-686.0,-122.0,74.0,-21.0,-5.0,73.0,172,88,98,113,100
2025-02-25 18:25:15.932,-674.0,-199.0,60.0,-23.0,1.0,66.0,171,86,97,114,97
2025-02-25 18:25:15.936,-693.0,-233.0,-1.0,-23.0,8.0,62.0,169,83,95,114,96
2025-02-25 18:25:15.943,-706.0,-229.0,-9.0,-31.0,21.0,59.0,176,89,99,119,102
2025-02-25 18:25:15.947,-730.0,-234.0,-32.0,-39.0,33.0,53.0,173,86,96,115,99
2025-02-25 18:25:15.952,-718.0,-274.0,-86.0,-33.0,37.0,48.0,172,84,96,113,97
2025-02-25 18:25:15.956,-692.0,-294.0,-105.0,-32.0,38.0,45.0,172,85,94,115,98
2025-02-25 18:25:15.964,-725.0,-314.0,-122.0,-14.0,35.0,41.0,174,88,97,118,101
2025-02-25 18:25:15.968,-741.0,-335.0,-92.0,-9.0,33.0,41.0,173,85,93,115,99
2025-02-25 18:25:15.972,-748.0,-334.0,-158.0,-5.0,28.0,37.0,170,84,93,113,97
2025-02-25 18:25:15.976,-755.0,-415.0,-132.0,9.0,25.0,34.0,173,90,97,117,100
2025-02-25 18:25:15.985,-712.0,-359.0,-112.0,27.0,13.0,32.0,173,87,97,119,102
2025-02-25 18:25:15.989,-722.0,-312.0,-67.0,29.0,3.0,27.0,169,86,93,113,98
2025-02-25 18:25:15.993,-766.0,-290.0,-111.0,32.0,4.0,25.0,169,81,92,113,96
2025-02-25 18:25:15.997,-776.0,-159.0,-64.0,23.0,4.0,26.0,171,87,97,117,101
2025-02-25 18:25:16.002,-847.0,-19.0,-75.0,20.0,1.0,25.0,171,86,93,116,99
2025-02-25 18:25:16.009,-831.0,32.0,3.0,21.0,-3.0,23.0,169,82,92,114,97
2025-02-25 18:25:16.013,-878.0,210.0,-10.0,11.0,-1.0,17.0,174,90,95,117,100
2025-02-25 18:25:16.017,-947.0,359.0,10.0,9.0,8.0,4.0,170,86,95,116,97
2025-02-25 18:25:16.021,-959.0,424.0,71.0,11.0,9.0,-7.0,171,84,94,116,99
2025-02-25 18:25:16.025,-948.0,520.0,103.0,24.0,10.0,-34.0,174,88,97,117,100
2025-02-25 18:25:16.033,-920.0,590.0,110.0,26.0,12.0,-62.0,172,86,94,116,99
2025-02-25 18:25:16.038,-971.0,571.0,37.0,37.0,17.0,-75.0,169,84,95,114,97
2025-02-25 18:25:16.042,-1011.0,537.0,47.0,46.0,27.0,-93.0,173,88,96,118,103
2025-02-25 18:25:16.046,-1103.0,514.0,29.0,53.0,23.0,-109.0,171,86,95,117,98
2025-02-25 18:25:16.050,-1130.0,535.0,-14.0,73.0,19.0,-123.0,170,83,92,113,96
2025-02-25 18:25:16.058,-1202.0,576.0,-6.0,90.0,20.0,-129.0,172,86,95,117,100
2025-02-25 18:25:16.062,-1163.0,643.0,10.0,97.0,24.0,-146.0,173,88,95,118,100
2025-02-25 18:25:16.066,-1149.0,717.0,30.0,114.0,24.0,-172.0,170,83,93,114,97
2025-02-25 18:25:16.071,-1028.0,717.0,92.0,132.0,21.0,-187.0,175,86,96,117,99
2025-02-25 18:25:16.078,-914.0,745.0,70.0,149.0,23.0,-219.0,172,88,94,118,100
2025-02-25 18:25:16.083,-737.0,720.0,89.0,155.0,20.0,-254.0,171,85,97,114,98
2025-02-25 18:25:16.086,-663.0,675.0,107.0,162.0,18.0,-271.0,169,83,94,115,97
2025-02-25 18:25:16.092,-492.0,621.0,121.0,162.0,15.0,-307.0,174,88,97,118,100
2025-02-25 18:25:16.099,-299.0,533.0,127.0,151.0,7.0,-344.0,173,85,96,119,102
2025-02-25 18:25:16.104,-73.0,413.0,151.0,139.0,-3.0,-380.0,170,84,97,115,100
2025-02-25 18:25:16.108,63.0,250.0,121.0,117.0,-10.0,-398.0,169,80,94,113,97
2025-02-25 18:25:16.112,317.0,102.0,139.0,87.0,-22.0,-425.0,174,86,97,119,102
2025-02-25 18:25:16.120,587.0,-290.0,181.0,75.0,-37.0,-440.0,174,88,94,117,101
2025-02-25 18:25:16.124,935.0,-849.0,294.0,55.0,-46.0,-444.0,172,85,93,116,100
2025-02-25 18:25:16.129,1068.0,-1482.0,375.0,38.0,-58.0,-437.0,170,84,92,115,101
2025-02-25 18:25:16.136,1331.0,-1850.0,524.0,30.0,-61.0,-430.0,175,91,98,119,102
2025-02-25 18:25:16.140,1571.0,-2586.0,555.0,48.0,-45.0,-418.0,174,89,98,118,101
2025-02-25 18:25:16.146,1777.0,-3158.0,953.0,73.0,-83.0,-368.0,174,86,97,116,103
2025-02-25 18:25:16.153,2008.0,-3862.0,918.0,80.0,-73.0,-306.0,174,85,98,116,103
2025-02-25 18:25:16.157,2050.0,-4771.0,759.0,181.0,-47.0,-226.0,174,84,98,110,99
2025-02-25 18:25:16.162,2333.0,-4884.0,891.0,175.0,50.0,-167.0,173,87,103,111,104
2025-02-25 18:25:16.169,2152.0,-4961.0,1088.0,204.0,103.0,-61.0,172,85,100,106,101
2025-02-25 18:25:16.173,2148.0,-4748.0,862.0,181.0,144.0,53.0,174,87,103,107,103
2025-02-25 18:25:16.178,2075.0,-4396.0,832.0,159.0,155.0,137.0,177,88,103,107,103
2025-02-25 18:25:16.185,1781.0,-3682.0,474.0,153.0,180.0,203.0,173,86,104,109,103
2025-02-25 18:25:16.190,1597.0,-2780.0,102.0,132.0,171.0,228.0,172,85,100,105,99
2025-02-25 18:25:16.194,1434.0,-2054.0,8.0,55.0,170.0,232.0,172,84,99,104,100
2025-02-25 18:25:16.198,1061.0,-1801.0,-133.0,6.0,153.0,229.0,169,82,102,104,97
2025-02-25 18:25:16.206,695.0,-1599.0,-87.0,-60.0,120.0,225.0,171,89,99,112,104
2025-02-25 18:25:16.210,434.0,-1583.0,-202.0,-94.0,69.0,220.0,170,87,99,113,104
2025-02-25 18:25:16.214,221.0,-1584.0,-273.0,-104.0,20.0,215.0,169,87,94,112,102
2025-02-25 18:25:16.222,268.0,-1524.0,-285.0,-121.0,-1.0,204.0,172,86,94,117,102
2025-02-25 18:25:16.227,226.0,-1690.0,-54.0,-137.0,-27.0,200.0,171,83,92,114,100
2025-02-25 18:25:16.231,218.0,-1576.0,-12.0,-136.0,-35.0,195.0,172,85,92,118,104
2025-02-25 18:25:16.239,215.0,-1535.0,36.0,-129.0,-46.0,188.0,172,87,96,119,104
2025-02-25 18:25:16.243,284.0,-1460.0,224.0,-125.0,-47.0,187.0,175,91,95,119,103
2025-02-25 18:25:16.248,263.0,-1381.0,267.0,-112.0,-45.0,196.0,170,84,94,116,97
2025-02-25 18:25:16.254,234.0,-1279.0,431.0,-115.0,-45.0,205.0,170,84,93,113,100
2025-02-25 18:25:16.259,258.0,-1220.0,489.0,-123.0,-53.0,208.0,168,85,95,112,99
2025-02-25 18:25:16.263,119.0,-1033.0,401.0,-145.0,-59.0,217.0,172,88,99,116,106
2025-02-25 18:25:16.271,117.0,-936.0,501.0,-165.0,-47.0,223.0,175,88,100,114,105
2025-02-25 18:25:16.276,7.0,-806.0,434.0,-165.0,-40.0,225.0,173,87,99,115,104
2025-02-25 18:25:16.280,-15.0,-692.0,401.0,-171.0,-35.0,225.0,169,83,97,112,101
2025-02-25 18:25:16.284,-77.0,-663.0,347.0,-189.0,-17.0,225.0,169,83,101,112,102
2025-02-25 18:25:16.291,-210.0,-598.0,346.0,-230.0,0.0,226.0,172,88,104,115,105
2025-02-25 18:25:16.295,-378.0,-485.0,310.0,-245.0,11.0,230.0,173,88,104,118,103
2025-02-25 18:25:16.300,-452.0,-417.0,243.0,-242.0,14.0,231.0,175,90,104,118,106
2025-02-25 18:25:16.308,-497.0,-332.0,187.0,-222.0,16.0,226.0,169,85,99,113,101
2025-02-25 18:25:16.312,-552.0,-214.0,265.0,-155.0,21.0,208.0,168,86,98,116,101
2025-02-25 18:25:16.316,-574.0,-106.0,357.0,-107.0,14.0,198.0,174,89,102,117,105
2025-02-25 18:25:16.324,-558.0,-160.0,289.0,-80.0,-1.0,172.0,173,89,103,118,106
2025-02-25 18:25:16.328,-529.0,-72.0,265.0,-65.0,-14.0,148.0,169,88,101,117,104
2025-02-25 18:25:16.332,-529.0,-17.0,200.0,-42.0,-19.0,130.0,169,86,98,114,102
2025-02-25 18:25:16.337,-558.0,-41.0,229.0,-24.0,-16.0,117.0,170,86,99,112,101
2025-02-25 18:25:16.344,-575.0,-36.0,208.0,-15.0,-10.0,112.0,172,90,104,118,106
2025-02-25 18:25:16.349,-612.0,-64.0,197.0,-5.0,-10.0,103.0,174,89,104,118,105
2025-02-25 18:25:16.353,-657.0,-88.0,151.0,-5.0,-6.0,95.0,172,88,102,117,103
2025-02-25 18:25:16.357,-655.0,-92.0,99.0,-6.0,-1.0,91.0,168,84,99,116,102
2025-02-25 18:25:16.365,-700.0,-100.0,48.0,-7.0,6.0,88.0,174,92,103,120,106
2025-02-25 18:25:16.369,-748.0,-131.0,61.0,-13.0,20.0,85.0,164,87,99,113,104
2025-02-25 18:25:16.373,-776.0,-92.0,-89.0,-19.0,23.0,82.0,172,88,101,119,106
2025-02-25 18:25:16.378,-795.0,-111.0,-55.0,-26.0,24.0,80.0,170,86,103,120,105
2025-02-25 18:25:16.385,-823.0,-125.0,-96.0,-25.0,25.0,74.0,184,105,115,133,119
2025-02-25 18:25:16.389,-784.0,-99.0,-78.0,-14.0,27.0,71.0,185,108,116,137,121
2025-02-25 18:25:16.394,-794.0,-106.0,-76.0,-8.0,21.0,65.0,192,113,124,145,128
2025-02-25 18:25:16.398,-778.0,-84.0,-42.0,-4.0,16.0,58.0,196,117,129,145,129
2025-02-25 18:25:16.407,-804.0,-58.0,-35.0,11.0,8.0,53.0,195,118,127,149,135
2025-02-25 18:25:16.410,-802.0,-84.0,1.0,18.0,-3.0,48.0,195,119,130,151,135
2025-02-25 18:25:16.415,-813.0,-29.0,-3.0,22.0,-9.0,43.0,191,112,122,147,134
2025-02-25 18:25:16.419,-802.0,-11.0,39.0,28.0,-12.0,40.0,196,118,128,152,137
2025-02-25 18:25:16.427,-822.0,35.0,7.0,32.0,-14.0,34.0,197,118,133,153,136
2025-02-25 18:25:16.431,-853.0,111.0,-43.0,31.0,-15.0,28.0,195,120,132,155,138
2025-02-25 18:25:16.435,-863.0,212.0,-23.0,27.0,-12.0,21.0,192,117,127,154,136
2025-02-25 18:25:16.440,-888.0,306.0,-48.0,29.0,-6.0,17.0,200,126,136,161,144
2025-02-25 18:25:16.447,-926.0,423.0,-45.0,34.0,-5.0,5.0,200,126,136,163,147
2025-02-25 18:25:16.452,-981.0,537.0,-39.0,39.0,-5.0,-10.0,205,132,145,169,153
2025-02-25 18:25:16.456,-1012.0,703.0,-111.0,59.0,-8.0,-27.0,204,131,146,171,156
2025-02-25 18:25:16.464,-1156.0,756.0,-146.0,76.0,-19.0,-35.0,207,133,144,170,155
2025-02-25 18:25:16.468,-1221.0,891.0,-68.0,97.0,-19.0,-57.0,205,132,142,169,155
2025-02-25 18:25:16.472,-1228.0,999.0,-42.0,121.0,-11.0,-87.0,198,124,139,161,150
2025-02-25 18:25:16.480,-1143.0,1027.0,-144.0,138.0,-7.0,-123.0,193,125,137,160,147
2025-02-25 18:25:16.484,-1082.0,1028.0,-140.0,151.0,-2.0,-163.0,189,120,135,156,143
2025-02-25 18:25:16.489,-1003.0,999.0,-112.0,170.0,5.0,-201.0,187,121,132,155,144
2025-02-25 18:25:16.497,-962.0,924.0,-160.0,191.0,8.0,-237.0,182,117,128,149,140
2025-02-25 18:25:16.501,-892.0,812.0,-246.0,210.0,8.0,-269.0,187,123,135,154,143
2025-02-25 18:25:16.505,-848.0,800.0,-311.0,223.0,5.0,-285.0,183,123,132,149,141
2025-02-25 18:25:16.513,-798.0,674.0,-268.0,234.0,7.0,-317.0,183,127,135,153,144
2025-02-25 18:25:16.517,-729.0,538.0,-389.0,230.0,-7.0,-344.0,183,129,139,151,145
2025-02-25 18:25:16.522,-645.0,461.0,-488.0,228.0,-30.0,-373.0,182,132,139,150,145
2025-02-25 18:25:16.529,-564.0,325.0,-352.0,211.0,-73.0,-394.0,178,134,136,146,141
2025-02-25 18:25:16.534,-447.0,193.0,-701.0,209.0,-107.0,-412.0,175,132,135,145,141
2025-02-25 18:25:16.538,-295.0,94.0,-473.0,191.0,-165.0,-428.0,176,134,133,145,139
2025-02-25 18:25:16.546,-44.0,-64.0,-375.0,174.0,-212.0,-431.0,175,136,133,147,141
2025-02-25 18:25:16.550,161.0,-105.0,-251.0,158.0,-261.0,-440.0,177,140,137,146,141
2025-02-25 18:25:16.558,710.0,-264.0,-189.0,141.0,-317.0,-467.0,179,145,136,151,147
2025-02-25 18:25:16.562,1549.0,-395.0,-39.0,87.0,-366.0,-519.0,182,150,141,154,150
2025-02-25 18:25:16.566,2571.0,-1293.0,71.0,21.0,-371.0,-520.0,181,148,136,153,149
2025-02-25 18:25:16.574,2828.0,-2537.0,1479.0,21.0,-263.0,-465.0,180,147,140,152,150
2025-02-25 18:25:16.578,2276.0,-3580.0,2029.0,13.0,-147.0,-382.0,177,149,140,152,150
2025-02-25 18:25:16.583,2085.0,-3832.0,1543.0,14.0,-111.0,-308.0,181,151,138,152,151
2025-02-25 18:25:16.591,2250.0,-3678.0,1299.0,23.0,-73.0,-231.0,181,151,141,152,151
2025-02-25 18:25:16.595,2270.0,-3409.0,1490.0,8.0,6.0,-167.0,180,149,139,147,148
2025-02-25 18:25:16.603,2113.0,-3646.0,1388.0,-126.0,1.0,-134.0,180,152,139,151,151
2025-02-25 18:25:16.608,2091.0,-3365.0,1192.0,-225.0,-101.0,-62.0,179,152,137,149,150
2025-02-25 18:25:16.619,1848.0,-3263.0,1625.0,-112.0,-95.0,-10.0,180,152,136,151,150
2025-02-25 18:25:16.622,1660.0,-3243.0,861.0,-93.0,0.0,77.0,179,150,136,149,149
2025-02-25 18:25:16.624,1420.0,-3120.0,930.0,-129.0,26.0,152.0,183,156,142,153,155
2025-02-25 18:25:16.628,1189.0,-2868.0,504.0,-80.0,138.0,220.0,182,154,142,153,155
2025-02-25 18:25:16.636,1264.0,-2395.0,561.0,24.0,152.0,239.0,182,155,139,152,154
2025-02-25 18:25:16.640,862.0,-2261.0,393.0,28.0,106.0,243.0,182,154,135,151,152
2025-02-25 18:25:16.644,805.0,-2003.0,354.0,25.0,81.0,224.0,177,151,135,148,151
2025-02-25 18:25:16.652,583.0,-1888.0,318.0,-16.0,39.0,214.0,179,152,136,149,151
2025-02-25 18:25:16.656,419.0,-1775.0,189.0,-66.0,-6.0,209.0,182,155,138,155,157
2025-02-25 18:25:16.661,350.0,-1562.0,104.0,-62.0,-20.0,200.0,184,158,141,157,158
2025-02-25 18:25:16.668,311.0,-1329.0,183.0,-48.0,4.0,194.0,181,154,141,153,153
2025-02-25 18:25:16.673,249.0,-1253.0,193.0,-52.0,34.0,192.0,180,155,138,152,155
2025-02-25 18:25:16.677,168.0,-1144.0,98.0,-36.0,38.0,184.0,179,154,136,150,152
2025-02-25 18:25:16.685,122.0,-1138.0,78.0,-21.0,33.0,179.0,179,153,137,150,153
2025-02-25 18:25:16.689,146.0,-1112.0,94.0,-21.0,0.0,163.0,181,157,140,153,155
2025-02-25 18:25:16.693,139.0,-1060.0,97.0,-22.0,-29.0,152.0,186,156,141,152,156
2025-02-25 18:25:16.698,94.0,-934.0,143.0,-13.0,-55.0,144.0,179,153,139,151,153
2025-02-25 18:25:16.705,85.0,-994.0,226.0,0.0,-59.0,141.0,179,154,140,151,152
2025-02-25 18:25:16.710,71.0,-891.0,339.0,9.0,-47.0,144.0,175,151,137,149,151
2025-02-25 18:25:16.713,2.0,-847.0,301.0,25.0,-27.0,151.0,181,158,142,153,155
2025-02-25 18:25:16.722,-24.0,-837.0,243.0,29.0,-20.0,156.0,180,153,141,153,156
2025-02-25 18:25:16.725,-5.0,-768.0,261.0,41.0,-21.0,160.0,178,152,137,151,152
2025-02-25 18:25:16.730,9.0,-673.0,390.0,71.0,-15.0,158.0,176,154,140,150,151
2025-02-25 18:25:16.734,-31.0,-720.0,135.0,72.0,-11.0,151.0,182,155,143,156,156
2025-02-25 18:25:16.742,16.0,-721.0,283.0,73.0,1.0,156.0,185,159,144,158,159
2025-02-25 18:25:16.746,-90.0,-720.0,420.0,63.0,34.0,162.0,177,153,139,151,152
2025-02-25 18:25:16.750,-126.0,-668.0,321.0,43.0,42.0,162.0,179,159,139,150,152
2025-02-25 18:25:16.755,-153.0,-623.0,335.0,2.0,41.0,162.0,183,158,143,155,156
2025-02-25 18:25:16.763,-231.0,-564.0,397.0,-33.0,35.0,160.0,182,160,147,154,157
2025-02-25 18:25:16.767,-286.0,-567.0,500.0,-41.0,43.0,156.0,181,155,142,154,154
2025-02-25 18:25:16.772,-312.0,-521.0,456.0,-52.0,55.0,150.0,179,156,140,153,155
2025-02-25 18:25:16.779,-349.0,-440.0,351.0,-79.0,61.0,146.0,179,154,141,151,153
2025-02-25 18:25:16.783,-509.0,-393.0,304.0,-89.0,70.0,147.0,177,154,140,152,152
2025-02-25 18:25:16.788,-532.0,-390.0,166.0,-93.0,73.0,144.0,181,156,142,156,157
2025-02-25 18:25:16.795,-603.0,-324.0,177.0,-79.0,69.0,139.0,182,159,145,156,157
2025-02-25 18:25:16.800,-691.0,-283.0,288.0,-65.0,72.0,136.0,181,157,143,155,157
2025-02-25 18:25:16.805,-696.0,-273.0,150.0,-51.0,61.0,129.0,178,153,142,152,153
2025-02-25 18:25:16.812,-714.0,-190.0,159.0,-30.0,57.0,120.0,177,155,141,152,152
2025-02-25 18:25:16.816,-756.0,-149.0,162.0,-6.0,56.0,115.0,176,153,140,152,152
2025-02-25 18:25:16.821,-771.0,-127.0,83.0,-2.0,48.0,104.0,184,161,148,158,161
2025-02-25 18:25:16.825,-802.0,-82.0,80.0,15.0,39.0,94.0,180,157,146,156,156
2025-02-25 18:25:16.832,-845.0,-47.0,68.0,18.0,32.0,83.0,177,155,142,153,154
2025-02-25 18:25:16.836,-842.0,-38.0,66.0,11.0,22.0,77.0,180,154,142,151,151
2025-02-25 18:25:16.841,-865.0,40.0,30.0,2.0,13.0,63.0,182,160,149,158,158
2025-02-25 18:25:16.845,-959.0,121.0,33.0,3.0,10.0,50.0,180,156,146,156,156
2025-02-25 18:25:16.852,-978.0,223.0,56.0,-3.0,10.0,37.0,177,155,142,150,152
2025-02-25 18:25:16.857,-1010.0,275.0,81.0,-2.0,19.0,30.0,181,158,145,158,156
2025-02-25 18:25:16.861,-1096.0,367.0,87.0,-1.0,26.0,16.0,183,159,145,156,158
2025-02-25 18:25:16.865,-1208.0,474.0,29.0,7.0,26.0,0.0,178,154,140,153,153
2025-02-25 18:25:16.873,-1238.0,488.0,-30.0,23.0,26.0,-9.0,177,153,140,152,151
2025-02-25 18:25:16.878,-1275.0,534.0,-77.0,39.0,20.0,-29.0,181,159,145,156,156
2025-02-25 18:25:16.882,-1284.0,506.0,-93.0,49.0,20.0,-51.0,183,159,145,158,158
2025-02-25 18:25:16.886,-1276.0,464.0,-147.0,67.0,19.0,-73.0,180,155,141,153,154
2025-02-25 18:25:16.894,-1262.0,440.0,-169.0,79.0,19.0,-96.0,178,155,141,153,153
2025-02-25 18:25:16.898,-1233.0,462.0,-213.0,93.0,13.0,-108.0,177,156,141,151,149
2025-02-25 18:25:16.903,-1183.0,510.0,-251.0,112.0,4.0,-133.0,181,159,145,157,156
2025-02-25 18:25:16.911,-1138.0,506.0,-205.0,124.0,-1.0,-158.0,183,158,145,156,155
2025-02-25 18:25:16.915,-1078.0,503.0,-205.0,138.0,-6.0,-185.0,180,156,145,156,157
2025-02-25 18:25:16.922,-995.0,489.0,-154.0,142.0,-9.0,-211.0,184,162,147,161,160
2025-02-25 18:25:16.926,-898.0,439.0,-64.0,144.0,-12.0,-237.0,180,156,144,154,155
2025-02-25 18:25:16.931,-845.0,398.0,-28.0,140.0,-16.0,-264.0,178,154,141,153,153
2025-02-25 18:25:16.939,-681.0,383.0,-15.0,133.0,-29.0,-293.0,177,153,141,153,153
2025-02-25 18:25:16.943,-495.0,361.0,-37.0,119.0,-47.0,-308.0,176,154,143,155,154
2025-02-25 18:25:16.947,-314.0,282.0,-39.0,100.0,-66.0,-335.0,181,162,144,156,151
2025-02-25 18:25:16.955,-86.0,167.0,-62.0,72.0,-89.0,-360.0,182,156,144,156,156
2025-02-25 18:25:16.960,114.0,-24.0,-36.0,55.0,-110.0,-379.0,181,156,144,155,156
2025-02-25 18:25:16.964,292.0,-286.0,9.0,24.0,-129.0,-391.0,179,155,142,155,153
2025-02-25 18:25:16.968,371.0,-626.0,79.0,-3.0,-140.0,-397.0,176,153,139,152,153
2025-02-25 18:25:16.976,579.0,-831.0,144.0,-33.0,-158.0,-399.0,179,152,140,155,153
2025-02-25 18:25:16.980,844.0,-1252.0,285.0,-54.0,-176.0,-394.0,187,163,149,161,159
2025-02-25 18:25:16.988,1115.0,-1708.0,325.0,-81.0,-185.0,-377.0,179,157,144,156,156
2025-02-25 18:25:16.992,1439.0,-2141.0,377.0,-103.0,-190.0,-352.0,181,157,145,157,156
2025-02-25 18:25:16.997,1759.0,-2537.0,526.0,-123.0,-174.0,-317.0,182,157,145,156,155
2025-02-25 18:25:17.004,2025.0,-2840.0,587.0,-139.0,-153.0,-279.0,184,157,144,158,155
2025-02-25 18:25:17.009,2146.0,-3098.0,482.0,-168.0,-146.0,-232.0,181,156,143,157,157
2025-02-25 18:25:17.016,2206.0,-3209.0,317.0,-220.0,-164.0,-193.0,183,155,141,155,156
2025-02-25 18:25:17.021,2206.0,-3442.0,847.0,-192.0,-79.0,-110.0,186,156,144,158,159
2025-02-25 18:25:17.025,1810.0,-3196.0,967.0,-265.0,-86.0,-48.0,182,153,140,156,156
2025-02-25 18:25:17.033,2207.0,-2911.0,1232.0,-222.0,4.0,14.0,181,150,135,154,154
2025-02-25 18:25:17.037,1809.0,-3288.0,2235.0,0.0,87.0,70.0,181,147,132,150,154
2025-02-25 18:25:17.041,1708.0,-2839.0,789.0,70.0,90.0,124.0,181,146,133,151,153
2025-02-25 18:25:17.049,1515.0,-2624.0,113.0,95.0,56.0,145.0,177,144,130,149,152
2025-02-25 18:25:17.053,1398.0,-2529.0,446.0,13.0,93.0,191.0,182,148,134,153,156
2025-02-25 18:25:17.058,1256.0,-2223.0,-10.0,-94.0,63.0,221.0,183,151,131,154,156
2025-02-25 18:25:17.066,856.0,-1906.0,-449.0,-119.0,9.0,232.0,180,146,131,151,153
2025-02-25 18:25:17.070,738.0,-1597.0,-149.0,-91.0,2.0,240.0,180,146,131,151,152
2025-02-25 18:25:17.074,759.0,-1694.0,698.0,-52.0,35.0,253.0,179,145,129,150,151
2025-02-25 18:25:17.082,746.0,-1746.0,570.0,-21.0,88.0,255.0,182,147,131,153,155
2025-02-25 18:25:17.086,521.0,-1621.0,234.0,28.0,94.0,248.0,180,149,135,153,154
2025-02-25 18:25:17.090,386.0,-1549.0,125.0,20.0,59.0,236.0,183,149,135,155,154
2025-02-25 18:25:17.098,371.0,-1404.0,1.0,4.0,17.0,220.0,180,145,132,151,152
2025-02-25 18:25:17.102,337.0,-1244.0,71.0,-3.0,-5.0,206.0,178,146,131,151,151
2025-02-25 18:25:17.108,281.0,-1246.0,341.0,-3.0,-10.0,203.0,178,146,130,150,149
2025-02-25 18:25:17.111,267.0,-1004.0,190.0,-3.0,-12.0,194.0,181,148,139,153,154
2025-02-25 18:25:17.119,202.0,-913.0,151.0,15.0,-11.0,185.0,182,147,135,154,153
2025-02-25 18:25:17.123,96.0,-863.0,344.0,31.0,2.0,181.0,181,148,138,154,153
2025-02-25 18:25:17.127,63.0,-866.0,459.0,44.0,12.0,180.0,176,144,133,150,147
2025-02-25 18:25:17.131,55.0,-814.0,406.0,61.0,29.0,178.0,182,146,139,156,153
2025-02-25 18:25:17.139,-17.0,-765.0,403.0,73.0,52.0,187.0,183,147,139,155,153
2025-02-25 18:25:17.143,-121.0,-648.0,258.0,67.0,54.0,188.0,181,146,138,157,153
2025-02-25 18:25:17.148,-104.0,-551.0,61.0,44.0,49.0,186.0,178,143,135,151,149
2025-02-25 18:25:17.156,-155.0,-470.0,157.0,47.0,52.0,187.0,177,143,134,152,149
2025-02-25 18:25:17.160,-224.0,-534.0,76.0,22.0,67.0,191.0,185,151,142,161,156
2025-02-25 18:25:17.164,-336.0,-593.0,165.0,-40.0,64.0,195.0,180,147,138,154,155
2025-02-25 18:25:17.172,-376.0,-496.0,179.0,-56.0,54.0,195.0,180,144,138,154,152
2025-02-25 18:25:17.176,-399.0,-543.0,314.0,-74.0,54.0,194.0,178,146,134,151,150
2025-02-25 18:25:17.181,-377.0,-447.0,327.0,-100.0,64.0,191.0,179,145,136,153,149
2025-02-25 18:25:17.189,-429.0,-407.0,186.0,-118.0,62.0,185.0,181,145,138,156,151
2025-02-25 18:25:17.193,-483.0,-351.0,176.0,-134.0,57.0,177.0,181,146,138,156,152
2025-02-25 18:25:17.198,-531.0,-298.0,47.0,-141.0,52.0,167.0,179,146,141,155,151
2025-02-25 18:25:17.205,-584.0,-208.0,91.0,-133.0,54.0,156.0,179,144,139,153,150
2025-02-25 18:25:17.209,-649.0,-197.0,61.0,-126.0,51.0,144.0,179,141,135,151,147
2025-02-25 18:25:17.213,-682.0,-192.0,176.0,-120.0,46.0,134.0,177,139,134,152,146
2025-02-25 18:25:17.218,-733.0,-88.0,95.0,-78.0,50.0,128.0,179,139,135,152,147
2025-02-25 18:25:17.225,-792.0,-62.0,110.0,-52.0,49.0,118.0,182,139,135,154,148
2025-02-25 18:25:17.230,-779.0,-54.0,61.0,-47.0,44.0,106.0,182,140,136,155,148
2025-02-25 18:25:17.234,-802.0,29.0,-38.0,-46.0,35.0,94.0,178,134,133,151,143
2025-02-25 18:25:17.242,-829.0,65.0,-64.0,-45.0,33.0,82.0,180,136,135,152,144
2025-02-25 18:25:17.246,-883.0,74.0,-76.0,-46.0,31.0,76.0,180,136,134,153,143
2025-02-25 18:25:17.250,-899.0,104.0,-126.0,-43.0,33.0,65.0,180,134,132,153,145
2025-02-25 18:25:17.254,-922.0,88.0,-60.0,-39.0,34.0,55.0,179,133,132,153,142
2025-02-25 18:25:17.262,-924.0,145.0,-131.0,-39.0,30.0,38.0,179,132,129,150,138
2025-02-25 18:25:17.266,-898.0,183.0,-154.0,-34.0,17.0,31.0,179,131,127,148,139
2025-02-25 18:25:17.271,-949.0,183.0,-108.0,-37.0,12.0,17.0,181,133,130,150,141
2025-02-25 18:25:17.278,-1005.0,220.0,-74.0,-34.0,12.0,3.0,179,130,132,150,144
2025-02-25 18:25:17.283,-1028.0,303.0,-34.0,-16.0,13.0,-11.0,180,128,127,149,137
2025-02-25 18:25:17.287,-1045.0,372.0,-50.0,11.0,13.0,-29.0,177,115,125,144,136
2025-02-25 18:25:17.291,-1074.0,413.0,-73.0,42.0,7.0,-40.0,178,122,125,145,133
2025-02-25 18:25:17.299,-1164.0,488.0,-99.0,69.0,-1.0,-60.0,177,123,127,147,136
2025-02-25 18:25:17.303,-1230.0,516.0,-146.0,77.0,-10.0,-81.0,179,121,128,144,132
2025-02-25 18:25:17.308,-1253.0,561.0,-250.0,92.0,-18.0,-102.0,180,119,124,141,131
2025-02-25 18:25:17.316,-1218.0,556.0,-248.0,113.0,-18.0,-121.0,180,114,122,138,124
2025-02-25 18:25:17.320,-1226.0,559.0,-242.0,130.0,-15.0,-142.0,179,116,128,138,127
2025-02-25 18:25:17.328,-1258.0,585.0,-266.0,133.0,-16.0,-162.0,175,111,121,133,123
2025-02-25 18:25:17.332,-1296.0,604.0,-215.0,131.0,-19.0,-175.0,178,109,121,134,122
2025-02-25 18:25:17.336,-1234.0,595.0,-35.0,129.0,-16.0,-199.0,173,106,121,136,120
2025-02-25 18:25:17.344,-1262.0,635.0,-56.0,134.0,-6.0,-223.0,181,108,124,136,124
2025-02-25 18:25:17.348,-1077.0,639.0,-95.0,137.0,-6.0,-250.0,176,104,119,136,122
2025-02-25 18:25:17.352,-996.0,630.0,93.0,126.0,1.0,-284.0,181,100,119,134,122
2025-02-25 18:25:17.360,-850.0,629.0,30.0,122.0,-9.0,-323.0,177,95,112,132,114
2025-02-25 18:25:17.364,-687.0,596.0,-45.0,118.0,-15.0,-357.0,178,90,109,129,112
2025-02-25 18:25:17.369,-405.0,569.0,4.0,107.0,-30.0,-372.0,176,88,108,127,111
2025-02-25 18:25:17.373,-167.0,605.0,-76.0,77.0,-56.0,-413.0,181,91,110,128,112
2025-02-25 18:25:17.381,151.0,522.0,-29.0,80.0,-82.0,-443.0,183,90,112,128,110
2025-02-25 18:25:17.385,457.0,301.0,78.0,62.0,-91.0,-464.0,177,83,101,121,102
2025-02-25 18:25:17.389,589.0,92.0,-64.0,41.0,-121.0,-476.0,178,83,102,123,96
2025-02-25 18:25:17.397,964.0,-125.0,-18.0,22.0,-143.0,-483.0,181,86,104,117,99
2025-02-25 18:25:17.402,1322.0,-662.0,144.0,-2.0,-137.0,-467.0,182,87,102,117,99
2025-02-25 18:25:17.406,1866.0,-1328.0,484.0,-19.0,-89.0,-432.0,181,85,100,112,95
2025-02-25 18:25:17.413,2611.0,-2055.0,1426.0,-32.0,-44.0,-401.0,179,82,98,108,89
2025-02-25 18:25:17.418,2844.0,-3064.0,1039.0,-36.0,-45.0,-351.0,173,82,93,105,89
2025-02-25 18:25:17.422,2939.0,-3543.0,1283.0,-9.0,-82.0,-320.0,177,81,94,102,88
2025-02-25 18:25:17.426,2921.0,-4063.0,900.0,62.0,-67.0,-253.0,183,84,97,105,91
2025-02-25 18:25:17.434,2969.0,-4400.0,1633.0,-8.0,-10.0,-116.0,182,85,98,102,91
2025-02-25 18:25:17.439,2741.0,-4362.0,1474.0,73.0,96.0,-22.0,179,84,99,101,89
2025-02-25 18:25:17.443,2629.0,-4586.0,1424.0,94.0,190.0,103.0,177,81,97,99,85
2025-02-25 18:25:17.450,2593.0,-4166.0,1463.0,188.0,282.0,138.0,178,82,96,97,84
2025-02-25 18:25:17.455,2671.0,-3721.0,1058.0,161.0,226.0,183.0,181,84,101,104,88
2025-02-25 18:25:17.459,2038.0,-3101.0,880.0,46.0,180.0,222.0,182,85,104,106,92
2025-02-25 18:25:17.467,1800.0,-2612.0,455.0,17.0,83.0,226.0,177,83,98,100,87
2025-02-25 18:25:17.471,1722.0,-2252.0,-321.0,-55.0,33.0,223.0,177,80,94,96,86
2025-02-25 18:25:17.475,1666.0,-1724.0,-638.0,-95.0,-35.0,224.0,173,80,92,99,84
2025-02-25 18:25:17.480,869.0,-1324.0,-675.0,-134.0,4.0,233.0,179,85,96,101,89
2025-02-25 18:25:17.488,418.0,-1466.0,-630.0,-166.0,99.0,225.0,178,82,93,105,90
2025-02-25 18:25:17.492,172.0,-1801.0,-431.0,-173.0,102.0,204.0,176,82,90,103,90
2025-02-25 18:25:17.496,195.0,-1946.0,-278.0,-159.0,62.0,191.0,174,84,87,102,90
2025-02-25 18:25:17.504,448.0,-1707.0,-266.0,-142.0,-38.0,188.0,174,79,86,101,87
2025-02-25 18:25:17.508,298.0,-1652.0,-167.0,-126.0,-72.0,194.0,176,82,89,106,91
2025-02-25 18:25:17.513,254.0,-1575.0,-73.0,-125.0,-45.0,201.0,176,83,89,105,90
2025-02-25 18:25:17.517,348.0,-1388.0,41.0,-119.0,-37.0,201.0,176,83,89,105,88
2025-02-25 18:25:17.525,395.0,-1250.0,152.0,-106.0,-44.0,206.0,174,83,89,102,87
2025-02-25 18:25:17.529,321.0,-1151.0,227.0,-89.0,-69.0,208.0,174,80,87,100,86
2025-02-25 18:25:17.533,244.0,-1094.0,301.0,-69.0,-100.0,208.0,177,83,91,103,91
2025-02-25 18:25:17.541,99.0,-1010.0,294.0,-59.0,-101.0,211.0,180,86,94,109,96
2025-02-25 18:25:17.545,-39.0,-910.0,271.0,-53.0,-83.0,215.0,177,83,91,102,90
2025-02-25 18:25:17.549,-78.0,-817.0,343.0,-44.0,-75.0,216.0,174,82,89,101,87
2025-02-25 18:25:17.554,-107.0,-736.0,375.0,-40.0,-61.0,215.0,178,84,95,105,91
2025-02-25 18:25:17.561,-164.0,-553.0,376.0,-36.0,-48.0,214.0,181,83,96,108,95
2025-02-25 18:25:17.565,-245.0,-431.0,443.0,-39.0,-32.0,208.0,175,82,94,104,90
2025-02-25 18:25:17.571,-232.0,-299.0,441.0,-49.0,-20.0,198.0,175,81,93,103,89
2025-02-25 18:25:17.578,-380.0,-192.0,427.0,-60.0,-3.0,194.0,174,80,91,103,87
2025-02-25 18:25:17.582,-467.0,-114.0,371.0,-68.0,20.0,184.0,179,85,96,108,93
2025-02-25 18:25:17.586,-548.0,-41.0,343.0,-67.0,34.0,170.0,177,83,95,107,90
2025-02-25 18:25:17.590,-571.0,-13.0,290.0,-61.0,37.0,155.0,175,81,93,104,88
2025-02-25 18:25:17.595,-681.0,-4.0,219.0,-48.0,33.0,148.0,176,82,94,105,90
2025-02-25 18:25:17.603,-740.0,-11.0,208.0,-34.0,23.0,132.0,178,85,96,106,93
2025-02-25 18:25:17.607,-833.0,-37.0,146.0,-25.0,4.0,119.0,175,84,91,100,88
2025-02-25 18:25:17.610,-823.0,-33.0,129.0,-12.0,-1.0,113.0,175,79,92,101,87
2025-02-25 18:25:17.615,-838.0,-62.0,123.0,8.0,-2.0,99.0,179,84,95,106,92
2025-02-25 18:25:17.619,-870.0,-72.0,105.0,16.0,2.0,87.0,180,86,96,106,93
2025-02-25 18:25:17.627,-885.0,-97.0,132.0,25.0,4.0,78.0,174,82,91,103,88
2025-02-25 18:25:17.631,-856.0,-101.0,130.0,32.0,6.0,75.0,178,86,94,107,92
2025-02-25 18:25:17.636,-907.0,-106.0,129.0,30.0,12.0,69.0,175,85,94,106,92
2025-02-25 18:25:17.640,-900.0,-65.0,117.0,19.0,19.0,64.0,175,82,92,104,89
2025-02-25 18:25:17.643,-949.0,-99.0,56.0,18.0,39.0,61.0,177,86,96,109,92
2025-02-25 18:25:17.651,-941.0,-22.0,69.0,14.0,48.0,55.0,177,84,92,107,92
2025-02-25 18:25:17.655,-978.0,56.0,63.0,13.0,48.0,44.0,175,80,89,105,88
2025-02-25 18:25:17.659,-958.0,66.0,41.0,23.0,49.0,38.0,180,86,97,110,96
2025-02-25 18:25:17.664,-982.0,142.0,44.0,20.0,52.0,24.0,176,85,92,108,93
2025-02-25 18:25:17.668,-947.0,150.0,46.0,26.0,54.0,7.0,174,81,89,106,89
2025-02-25 18:25:17.672,-943.0,171.0,61.0,33.0,50.0,1.0,177,84,92,109,93
2025-02-25 18:25:17.680,-949.0,214.0,46.0,33.0,39.0,-11.0,179,85,93,109,94
2025-02-25 18:25:17.685,-969.0,191.0,12.0,42.0,34.0,-26.0,173,82,88,105,89
2025-02-25 18:25:17.688,-983.0,241.0,-8.0,42.0,32.0,-32.0,177,86,92,109,93
2025-02-25 18:25:17.693,-993.0,252.0,-28.0,39.0,31.0,-44.0,177,85,90,108,93
2025-02-25 18:25:17.697,-991.0,256.0,-25.0,35.0,29.0,-56.0,175,82,89,105,92
2025-02-25 18:25:17.705,-1021.0,267.0,-53.0,40.0,21.0,-62.0,173,82,87,104,89
2025-02-25 18:25:17.709,-1052.0,329.0,-33.0,38.0,17.0,-75.0,177,85,92,108,93
2025-02-25 18:25:17.713,-1088.0,400.0,-44.0,38.0,18.0,-90.0,176,84,89,106,92
2025-02-25 18:25:17.717,-1102.0,433.0,-38.0,45.0,18.0,-99.0,173,82,90,106,89
2025-02-25 18:25:17.725,-1121.0,516.0,-24.0,53.0,18.0,-120.0,177,84,93,108,92
2025-02-25 18:25:17.729,-1096.0,555.0,-19.0,59.0,17.0,-144.0,175,83,92,107,93
2025-02-25 18:25:17.733,-1086.0,555.0,20.0,71.0,17.0,-157.0,174,82,91,105,91
2025-02-25 18:25:17.737,-1064.0,540.0,16.0,81.0,15.0,-183.0,177,87,95,110,97
2025-02-25 18:25:17.746,-956.0,542.0,19.0,87.0,12.0,-212.0,176,84,91,106,91
2025-02-25 18:25:17.750,-905.0,517.0,42.0,97.0,8.0,-245.0,172,81,89,105,91
2025-02-25 18:25:17.754,-737.0,514.0,43.0,95.0,5.0,-260.0,178,85,93,110,94
2025-02-25 18:25:17.758,-556.0,520.0,44.0,92.0,-6.0,-294.0,178,88,94,109,95
2025-02-25 18:25:17.763,-444.0,480.0,85.0,80.0,-16.0,-329.0,174,82,90,104,90
2025-02-25 18:25:17.771,-223.0,457.0,103.0,63.0,-40.0,-347.0,174,86,94,110,94
2025-02-25 18:25:17.775,55.0,352.0,140.0,53.0,-54.0,-379.0,176,84,94,110,95
2025-02-25 18:25:17.779,184.0,85.0,155.0,28.0,-58.0,-402.0,178,84,94,109,93
2025-02-25 18:25:17.783,434.0,-96.0,209.0,3.0,-66.0,-410.0,177,83,96,108,94
2025-02-25 18:25:17.788,634.0,-553.0,219.0,-7.0,-88.0,-411.0,176,84,94,109,96
2025-02-25 18:25:17.795,724.0,-977.0,346.0,-10.0,-99.0,-394.0,173,83,92,108,92
2025-02-25 18:25:17.800,1038.0,-1211.0,554.0,-9.0,-110.0,-386.0,178,86,98,110,94
2025-02-25 18:25:17.804,1444.0,-1784.0,688.0,-4.0,-101.0,-367.0,177,84,93,109,95
2025-02-25 18:25:17.811,1862.0,-2373.0,912.0,6.0,-70.0,-337.0,176,85,95,109,94
2025-02-25 18:25:17.815,2024.0,-3021.0,930.0,32.0,-34.0,-287.0,176,82,92,108,95
2025-02-25 18:25:17.819,2337.0,-3174.0,985.0,62.0,-31.0,-252.0,175,84,94,107,95
2025-02-25 18:25:17.827,2449.0,-3920.0,1592.0,109.0,6.0,-199.0,177,85,97,109,96
2025-02-25 18:25:17.831,2459.0,-4072.0,1144.0,159.0,68.0,-139.0,177,84,98,107,97
2025-02-25 18:25:17.836,2504.0,-3970.0,1124.0,145.0,129.0,-60.0,176,81,99,102,96
2025-02-25 18:25:17.843,2228.0,-3677.0,1115.0,146.0,149.0,16.0,177,84,101,104,96
2025-02-25 18:25:17.848,2214.0,-3345.0,634.0,66.0,197.0,78.0,192,104,119,121,113
2025-02-25 18:25:17.852,1967.0,-3189.0,177.0,54.0,185.0,102.0,190,104,122,122,114
2025-02-25 18:25:17.860,1479.0,-2927.0,21.0,23.0,127.0,136.0,194,106,123,125,119
2025-02-25 18:25:17.864,1426.0,-2277.0,-250.0,-10.0,92.0,150.0,193,107,121,125,117
2025-02-25 18:25:17.869,1014.0,-2053.0,-499.0,-6.0,73.0,160.0,191,107,121,127,119
2025-02-25 18:25:17.877,812.0,-1844.0,-346.0,-81.0,67.0,178.0,189,105,116,125,116
2025-02-25 18:25:17.881,693.0,-1723.0,-483.0,-127.0,55.0,182.0,189,103,115,124,114
2025-02-25 18:25:17.885,595.0,-1838.0,-312.0,-161.0,15.0,178.0,184,98,108,122,109
2025-02-25 18:25:17.893,599.0,-1845.0,-281.0,-177.0,-41.0,176.0,186,100,106,122,109
2025-02-25 18:25:17.897,483.0,-1875.0,-214.0,-166.0,-68.0,179.0,188,104,109,129,113
2025-02-25 18:25:17.902,524.0,-1814.0,-49.0,-151.0,-75.0,177.0,190,106,112,130,117
2025-02-25 18:25:17.910,534.0,-1726.0,29.0,-126.0,-73.0,180.0,191,105,111,128,116
2025-02-25 18:25:17.914,584.0,-1646.0,198.0,-100.0,-73.0,186.0,172,90,97,115,102
2025-02-25 18:25:17.918,505.0,-1568.0,257.0,-80.0,-85.0,191.0,175,91,97,114,101
2025-02-25 18:25:17.926,539.0,-1391.0,401.0,-61.0,-88.0,200.0,172,85,92,108,97
2025-02-25 18:25:17.930,506.0,-1330.0,494.0,-61.0,-95.0,204.0,175,86,95,109,98
2025-02-25 18:25:17.935,383.0,-1220.0,476.0,-70.0,-108.0,216.0,181,97,107,118,109
2025-02-25 18:25:17.942,289.0,-1130.0,443.0,-85.0,-108.0,225.0,183,97,107,121,110
2025-02-25 18:25:17.946,214.0,-980.0,457.0,-99.0,-79.0,234.0,181,93,103,116,107
2025-02-25 18:25:17.951,68.0,-840.0,422.0,-122.0,-67.0,238.0,175,92,105,116,104
2025-02-25 18:25:17.955,-16.0,-725.0,434.0,-158.0,-46.0,238.0,179,91,103,114,102
2025-02-25 18:25:17.963,-68.0,-632.0,433.0,-181.0,-32.0,235.0,181,94,107,119,108
2025-02-25 18:25:17.967,-125.0,-568.0,440.0,-184.0,-24.0,228.0,175,85,101,112,100
2025-02-25 18:25:17.971,-265.0,-411.0,476.0,-169.0,-17.0,218.0,176,89,104,114,101
2025-02-25 18:25:17.979,-374.0,-302.0,427.0,-147.0,-4.0,205.0,180,94,109,121,108
2025-02-25 18:25:17.984,-411.0,-185.0,373.0,-108.0,0.0,186.0,174,85,99,111,97
2025-02-25 18:25:17.988,-462.0,-208.0,393.0,-73.0,-1.0,177.0,178,93,106,121,105
2025-02-25 18:25:17.996,-504.0,-178.0,376.0,-46.0,-6.0,163.0,211,127,143,156,142
2025-02-25 18:25:18.000,-537.0,-144.0,367.0,-33.0,-8.0,152.0,193,109,123,136,121
2025-02-25 18:25:18.004,-570.0,-117.0,328.0,-27.0,-1.0,140.0,168,82,95,112,96
2025-02-25 18:25:18.008,-579.0,-89.0,332.0,-25.0,6.0,131.0,165,80,93,110,94
2025-02-25 18:25:18.016,-632.0,-127.0,339.0,-11.0,18.0,127.0,167,79,92,109,93
2025-02-25 18:25:18.020,-651.0,-99.0,259.0,-13.0,25.0,119.0,169,85,96,113,99
2025-02-25 18:25:18.024,-649.0,-104.0,277.0,-18.0,33.0,114.0,168,81,94,110,96
2025-02-25 18:25:18.028,-676.0,-123.0,227.0,-24.0,39.0,111.0,166,79,92,110,95
2025-02-25 18:25:18.036,-662.0,-152.0,204.0,-28.0,42.0,110.0,165,83,93,110,93
2025-02-25 18:25:18.040,-668.0,-120.0,179.0,-31.0,44.0,110.0,165,80,92,112,96
2025-02-25 18:25:18.045,-683.0,-114.0,109.0,-26.0,47.0,111.0,163,78,91,109,94
2025-02-25 18:25:18.050,-717.0,-164.0,51.0,-20.0,51.0,112.0,160,76,88,109,92
2025-02-25 18:25:18.057,-809.0,-179.0,94.0,-17.0,55.0,112.0,163,81,93,112,94
2025-02-25 18:25:18.061,-802.0,-87.0,90.0,-16.0,57.0,111.0,165,81,93,114,98
2025-02-25 18:25:18.065,-780.0,-40.0,44.0,-8.0,57.0,104.0,161,77,91,112,94
2025-02-25 18:25:18.069,-828.0,-64.0,-12.0,-13.0,55.0,99.0,161,78,92,113,95
2025-02-25 18:25:18.073,-818.0,-43.0,10.0,-12.0,57.0,92.0,164,83,95,115,97
2025-02-25 18:25:18.081,-895.0,-55.0,-27.0,-16.0,55.0,86.0,161,79,88,114,95
2025-02-25 18:25:18.086,-864.0,-35.0,-26.0,-23.0,48.0,80.0,160,76,89,110,93
2025-02-25 18:25:18.089,-885.0,2.0,-2.0,-24.0,46.0,72.0,161,77,93,114,97
2025-02-25 18:25:18.094,-885.0,5.0,-42.0,-26.0,46.0,59.0,159,75,89,113,95
2025-02-25 18:25:18.098,-879.0,58.0,-34.0,-19.0,47.0,53.0,160,77,92,114,97
2025-02-25 18:25:18.105,-884.0,65.0,-88.0,-16.0,47.0,42.0,162,81,96,115,97
2025-02-25 18:25:18.110,-853.0,122.0,-70.0,-13.0,50.0,32.0,159,78,92,116,98
2025-02-25 18:25:18.114,-850.0,147.0,-87.0,-4.0,52.0,27.0,160,79,94,114,97
2025-02-25 18:25:18.119,-835.0,200.0,-48.0,8.0,59.0,15.0,163,83,100,118,100
2025-02-25 18:25:18.123,-773.0,243.0,-143.0,14.0,61.0,6.0,161,82,96,119,98
2025-02-25 18:25:18.131,-769.0,260.0,-121.0,34.0,66.0,-2.0,161,81,96,118,98
2025-02-25 18:25:18.135,-846.0,243.0,-74.0,44.0,82.0,-9.0,162,85,99,119,99
2025-02-25 18:25:18.140,-917.0,454.0,-319.0,54.0,76.0,-34.0,161,88,103,120,101
2025-02-25 18:25:18.144,-945.0,305.0,-277.0,76.0,79.0,-49.0,158,85,100,118,98
2025-02-25 18:25:18.151,-983.0,260.0,-223.0,95.0,91.0,-57.0,160,91,106,120,101
2025-02-25 18:25:18.156,-959.0,296.0,-394.0,113.0,82.0,-69.0,159,93,105,119,100
2025-02-25 18:25:18.160,-1211.0,732.0,-711.0,139.0,51.0,-91.0,161,95,109,121,102
2025-02-25 18:25:18.168,-917.0,507.0,-927.0,168.0,37.0,-112.0,158,94,108,120,100
2025-02-25 18:25:18.172,-862.0,455.0,-948.0,214.0,17.0,-123.0,156,96,111,119,99
2025-02-25 18:25:18.177,-793.0,522.0,-855.0,230.0,0.0,-155.0,160,102,113,123,104
2025-02-25 18:25:18.184,-605.0,635.0,-537.0,256.0,-16.0,-200.0,158,109,117,121,104
2025-02-25 18:25:18.188,-657.0,343.0,-815.0,270.0,-67.0,-248.0,155,110,120,121,104
2025-02-25 18:25:18.194,-689.0,392.0,-450.0,260.0,-114.0,-304.0,156,114,122,121,103
2025-02-25 18:25:18.201,-756.0,485.0,-176.0,255.0,-134.0,-363.0,156,122,126,120,103
2025-02-25 18:25:18.205,-806.0,519.0,62.0,244.0,-162.0,-397.0,152,124,127,118,100
2025-02-25 18:25:18.209,-709.0,303.0,252.0,219.0,-169.0,-413.0,153,124,130,122,103
2025-02-25 18:25:18.216,-458.0,119.0,222.0,195.0,-169.0,-424.0,153,129,132,124,107
2025-02-25 18:25:18.221,-70.0,-56.0,111.0,176.0,-173.0,-443.0,156,137,140,128,111
2025-02-25 18:25:18.225,262.0,-183.0,123.0,163.0,-189.0,-464.0,152,135,138,127,109
2025-02-25 18:25:18.233,542.0,-414.0,27.0,154.0,-213.0,-476.0,150,138,139,128,112
2025-02-25 18:25:18.237,865.0,-761.0,223.0,160.0,-224.0,-474.0,147,138,141,133,108
2025-02-25 18:25:18.245,1209.0,-1116.0,464.0,164.0,-224.0,-472.0,145,142,140,130,109
2025-02-25 18:25:18.250,1496.0,-1585.0,705.0,172.0,-217.0,-445.0,144,141,140,131,109
2025-02-25 18:25:18.254,1579.0,-2030.0,881.0,171.0,-211.0,-399.0,140,143,139,131,109
2025-02-25 18:25:18.262,1747.0,-2180.0,1190.0,171.0,-191.0,-337.0,143,148,141,132,107
2025-02-25 18:25:18.266,2060.0,-2632.0,1395.0,174.0,-154.0,-264.0,142,145,140,139,108
2025-02-25 18:25:18.274,2250.0,-2857.0,1545.0,137.0,-110.0,-183.0,139,148,140,137,108
2025-02-25 18:25:18.279,2426.0,-2961.0,1612.0,119.0,-56.0,-97.0,140,152,140,135,107
2025-02-25 18:25:18.283,2469.0,-3205.0,1634.0,94.0,11.0,-15.0,141,149,139,136,106
2025-02-25 18:25:18.290,2431.0,-3254.0,1496.0,42.0,66.0,24.0,137,149,140,138,104
2025-02-25 18:25:18.295,2245.0,-3210.0,1458.0,8.0,108.0,96.0,139,151,142,142,107
2025-02-25 18:25:18.299,1941.0,-3062.0,1278.0,-19.0,132.0,154.0,141,154,147,143,108
2025-02-25 18:25:18.307,1599.0,-2781.0,715.0,-46.0,109.0,189.0,138,151,142,139,105
2025-02-25 18:25:18.311,1335.0,-2444.0,1010.0,-83.0,112.0,214.0,138,151,144,141,104
2025-02-25 18:25:18.315,1039.0,-2045.0,726.0,-93.0,86.0,219.0,139,150,139,136,100
2025-02-25 18:25:18.323,917.0,-1893.0,545.0,-94.0,80.0,219.0,133,147,139,139,101
2025-02-25 18:25:18.327,717.0,-1817.0,402.0,-132.0,48.0,218.0,132,147,137,138,102
2025-02-25 18:25:18.332,586.0,-1814.0,287.0,-138.0,16.0,215.0,136,151,141,141,102
2025-02-25 18:25:18.339,541.0,-1807.0,254.0,-143.0,-14.0,208.0,135,150,141,143,104
2025-02-25 18:25:18.344,552.0,-1775.0,276.0,-145.0,-31.0,202.0,135,151,141,144,104
2025-02-25 18:25:18.352,573.0,-1764.0,237.0,-145.0,-45.0,199.0,134,148,141,143,103
2025-02-25 18:25:18.356,580.0,-1725.0,372.0,-132.0,-49.0,200.0,133,150,142,144,103
2025-02-25 18:25:18.360,594.0,-1675.0,417.0,-107.0,-47.0,204.0,134,147,141,144,103
2025-02-25 18:25:18.368,571.0,-1609.0,452.0,-86.0,-45.0,211.0,132,148,140,142,102
2025-02-25 18:25:18.372,549.0,-1520.0,461.0,-65.0,-35.0,216.0,134,149,141,143,102
2025-02-25 18:25:18.377,496.0,-1470.0,492.0,-49.0,-25.0,226.0,134,149,141,145,101
2025-02-25 18:25:18.384,418.0,-1333.0,472.0,-31.0,-12.0,234.0,134,150,141,146,105
2025-02-25 18:25:18.389,316.0,-1246.0,490.0,-13.0,6.0,243.0,135,150,143,145,104
2025-02-25 18:25:18.393,206.0,-1088.0,483.0,-3.0,21.0,251.0,132,147,142,143,103
2025-02-25 18:25:18.397,144.0,-921.0,442.0,12.0,26.0,260.0,134,150,143,146,103
2025-02-25 18:25:18.405,9.0,-841.0,441.0,25.0,35.0,263.0,132,148,141,143,102
2025-02-25 18:25:18.409,-113.0,-673.0,422.0,26.0,40.0,269.0,135,150,144,147,105
2025-02-25 18:25:18.414,-201.0,-487.0,400.0,25.0,45.0,271.0,135,150,142,146,105
2025-02-25 18:25:18.422,-306.0,-353.0,416.0,21.0,49.0,270.0,134,148,143,145,104
2025-02-25 18:25:18.426,-355.0,-227.0,383.0,11.0,50.0,267.0,130,146,140,143,102
2025-02-25 18:25:18.430,-443.0,-168.0,403.0,3.0,54.0,264.0,131,147,142,143,103
2025-02-25 18:25:18.435,-512.0,-70.0,392.0,-3.0,58.0,256.0,133,148,143,146,105
2025-02-25 18:25:18.442,-575.0,12.0,376.0,-6.0,60.0,244.0,132,149,143,146,105
2025-02-25 18:25:18.447,-606.0,93.0,329.0,-15.0,62.0,227.0,131,146,140,143,102
2025-02-25 18:25:18.451,-661.0,107.0,290.0,-21.0,67.0,218.0,130,146,143,145,104
2025-02-25 18:25:18.459,-785.0,114.0,257.0,-24.0,69.0,200.0,133,147,142,148,104
2025-02-25 18:25:18.463,-866.0,139.0,201.0,-25.0,70.0,182.0,135,149,143,145,104
2025-02-25 18:25:18.467,-959.0,175.0,139.0,-25.0,67.0,164.0,129,146,141,143,102
2025-02-25 18:25:18.471,-977.0,222.0,96.0,-24.0,66.0,144.0,126,140,134,139,98
2025-02-25 18:25:18.479,-1034.0,240.0,7.0,-27.0,61.0,133.0,123,142,135,136,97
2025-02-25 18:25:18.483,-1070.0,279.0,-9.0,-32.0,57.0,114.0,127,144,139,140,100
2025-02-25 18:25:18.487,-1109.0,292.0,-14.0,-30.0,54.0,96.0,127,142,138,140,99
2025-02-25 18:25:18.495,-1126.0,304.0,-39.0,-28.0,51.0,78.0,124,140,134,139,98
2025-02-25 18:25:18.499,-1140.0,317.0,-50.0,-25.0,47.0,62.0,127,143,139,141,100
2025-02-25 18:25:18.504,-1149.0,335.0,-82.0,-20.0,43.0,53.0,126,143,138,141,99
2025-02-25 18:25:18.508,-1145.0,353.0,-84.0,-17.0,38.0,36.0,126,140,138,139,100
2025-02-25 18:25:18.515,-1128.0,345.0,-112.0,-16.0,32.0,21.0,126,140,137,138,99
2025-02-25 18:25:18.520,-1122.0,341.0,-111.0,-12.0,30.0,7.0,127,142,139,139,97
2025-02-25 18:25:18.524,-1094.0,340.0,-136.0,-8.0,24.0,0.0,124,139,137,137,98
2025-02-25 18:25:18.532,-1069.0,350.0,-144.0,-8.0,19.0,-14.0,126,142,137,139,99
2025-02-25 18:25:18.536,-1043.0,375.0,-141.0,-5.0,14.0,-27.0,125,141,138,141,99
2025-02-25 18:25:18.540,-1023.0,391.0,-158.0,-5.0,11.0,-40.0,127,141,137,141,100
2025-02-25 18:25:18.545,-1000.0,386.0,-163.0,-3.0,10.0,-55.0,125,140,135,138,97
2025-02-25 18:25:18.552,-1001.0,382.0,-153.0,4.0,9.0,-62.0,122,138,136,138,97
2025-02-25 18:25:18.557,-1004.0,408.0,-149.0,11.0,7.0,-76.0,124,141,137,139,100
2025-02-25 18:25:18.561,-999.0,433.0,-157.0,19.0,4.0,-89.0,127,142,139,140,100
2025-02-25 18:25:18.569,-999.0,436.0,-163.0,25.0,1.0,-102.0,125,140,136,138,98
2025-02-25 18:25:18.573,-988.0,445.0,-152.0,37.0,-1.0,-117.0,124,138,136,138,98
2025-02-25 18:25:18.577,-957.0,435.0,-154.0,51.0,-4.0,-125.0,126,139,137,140,99
2025-02-25 18:25:18.581,-926.0,397.0,-149.0,71.0,-6.0,-142.0,126,140,139,140,99
2025-02-25 18:25:18.589,-897.0,362.0,-139.0,80.0,-9.0,-164.0,125,140,136,139,99
2025-02-25 18:25:18.593,-835.0,358.0,-104.0,96.0,-13.0,-189.0,125,140,134,138,96
2025-02-25 18:25:18.598,-799.0,340.0,-50.0,113.0,-16.0,-217.0,126,142,136,138,98
2025-02-25 18:25:18.605,-708.0,337.0,-5.0,125.0,-23.0,-233.0,123,137,135,138,93
2025-02-25 18:25:18.610,-599.0,340.0,66.0,127.0,-31.0,-266.0,127,141,138,141,98
2025-02-25 18:25:18.614,-489.0,328.0,113.0,122.0,-36.0,-301.0,126,143,137,141,98
2025-02-25 18:25:18.622,-366.0,290.0,183.0,119.0,-45.0,-337.0,126,140,138,141,98
2025-02-25 18:25:18.626,-275.0,189.0,247.0,110.0,-49.0,-370.0,122,137,137,137,96
2025-02-25 18:25:18.630,-109.0,20.0,297.0,98.0,-59.0,-402.0,122,139,133,137,96
2025-02-25 18:25:18.636,78.0,-81.0,354.0,85.0,-69.0,-416.0,122,141,137,147,98
2025-02-25 18:25:18.642,270.0,-357.0,398.0,78.0,-82.0,-435.0,128,141,138,141,98
2025-02-25 18:25:18.647,486.0,-681.0,449.0,76.0,-99.0,-446.0,127,141,138,142,100
2025-02-25 18:25:18.651,597.0,-1104.0,537.0,76.0,-106.0,-449.0,125,139,135,140,97
2025-02-25 18:25:18.659,826.0,-1518.0,735.0,79.0,-119.0,-437.0,125,140,135,141,97
2025-02-25 18:25:18.663,1135.0,-1739.0,896.0,100.0,-128.0,-425.0,124,138,134,140,95
2025-02-25 18:25:18.671,1434.0,-2214.0,1073.0,122.0,-135.0,-395.0,127,141,137,144,98
2025-02-25 18:25:18.675,1771.0,-2611.0,1272.0,136.0,-126.0,-356.0,129,142,137,141,95
2025-02-25 18:25:18.680,2056.0,-2952.0,1515.0,128.0,-104.0,-299.0,130,143,137,144,99
2025-02-25 18:25:18.688,2289.0,-3167.0,1673.0,118.0,-61.0,-231.0,130,140,135,142,99
2025-02-25 18:25:18.692,2373.0,-3262.0,1801.0,91.0,-5.0,-146.0,128,141,134,142,99
2025-02-25 18:25:18.696,2402.0,-3260.0,1808.0,73.0,52.0,-60.0,130,144,135,140,98
2025-02-25 18:25:18.704,2248.0,-3188.0,1310.0,-5.0,83.0,22.0,129,139,134,140,95
2025-02-25 18:25:18.708,2231.0,-3145.0,1519.0,-60.0,109.0,94.0,130,138,133,139,95
2025-02-25 18:25:18.713,1885.0,-2986.0,1064.0,-115.0,129.0,121.0,128,138,134,138,95
2025-02-25 18:25:18.720,1756.0,-2694.0,811.0,-159.0,128.0,162.0,130,138,136,140,96
2025-02-25 18:25:18.724,1399.0,-2542.0,631.0,-195.0,117.0,194.0,130,138,133,140,97
2025-02-25 18:25:18.729,1045.0,-2357.0,493.0,-216.0,95.0,216.0,129,138,135,140,97
2025-02-25 18:25:18.737,818.0,-2245.0,298.0,-224.0,67.0,230.0,136,138,134,138,97
2025-02-25 18:25:18.741,627.0,-2085.0,104.0,-222.0,36.0,239.0,129,139,136,141,96
2025-02-25 18:25:18.746,540.0,-2006.0,22.0,-204.0,19.0,240.0,125,135,133,140,94
2025-02-25 18:25:18.753,474.0,-1889.0,68.0,-180.0,-11.0,238.0,127,136,134,141,94
2025-02-25 18:25:18.757,415.0,-1816.0,113.0,-143.0,-35.0,230.0,128,136,135,143,95
2025-02-25 18:25:18.762,388.0,-1669.0,114.0,-118.0,-59.0,222.0,129,135,136,144,97
2025-02-25 18:25:18.769,351.0,-1562.0,234.0,-104.0,-73.0,217.0,128,137,135,143,97
2025-02-25 18:25:18.774,335.0,-1409.0,265.0,-104.0,-87.0,212.0,129,135,134,143,97
2025-02-25 18:25:18.778,341.0,-1248.0,315.0,-99.0,-93.0,212.0,128,136,135,143,97
2025-02-25 18:25:18.786,324.0,-1146.0,424.0,-91.0,-93.0,214.0,125,133,134,142,96
2025-02-25 18:25:18.790,319.0,-1070.0,421.0,-91.0,-88.0,216.0,128,134,134,142,98
2025-02-25 18:25:18.794,274.0,-1031.0,442.0,-92.0,-76.0,222.0,132,139,140,147,105
2025-02-25 18:25:18.802,190.0,-1003.0,442.0,-93.0,-69.0,229.0,136,141,143,149,105
2025-02-25 18:25:18.806,103.0,-983.0,425.0,-88.0,-59.0,237.0,131,134,135,143,98
2025-02-25 18:25:18.811,50.0,-912.0,454.0,-81.0,-45.0,246.0,125,131,131,139,95
2025-02-25 18:25:18.818,7.0,-832.0,470.0,-68.0,-36.0,258.0,123,128,128,137,93
2025-02-25 18:25:18.823,-63.0,-789.0,443.0,-58.0,-19.0,264.0,125,129,131,138,95
2025-02-25 18:25:18.828,-100.0,-651.0,433.0,-49.0,-3.0,273.0,121,125,129,136,92
2025-02-25 18:25:18.832,-167.0,-530.0,464.0,-42.0,13.0,276.0,122,125,127,135,91
2025-02-25 18:25:18.840,-192.0,-392.0,449.0,-35.0,21.0,277.0,122,125,127,133,92
2025-02-25 18:25:18.844,-203.0,-218.0,351.0,-25.0,39.0,271.0,118,122,124,132,91
2025-02-25 18:25:18.848,-235.0,-218.0,422.0,-18.0,53.0,268.0,122,126,126,130,91
2025-02-25 18:25:18.856,-373.0,-116.0,472.0,-29.0,67.0,257.0,122,124,128,127,93
2025-02-25 18:25:18.860,-485.0,-93.0,396.0,-34.0,79.0,248.0,122,127,127,126,94
2025-02-25 18:25:18.865,-515.0,7.0,389.0,-53.0,86.0,234.0,120,125,125,123,93
2025-02-25 18:25:18.869,-619.0,14.0,430.0,-64.0,97.0,226.0,119,121,120,121,93
2025-02-25 18:25:18.876,-734.0,67.0,324.0,-62.0,104.0,214.0,122,122,123,122,95
2025-02-25 18:25:18.881,-822.0,105.0,101.0,-60.0,98.0,204.0,124,123,122,122,95
2025-02-25 18:25:18.885,-943.0,154.0,-31.0,-48.0,92.0,194.0,121,119,124,120,93
2025-02-25 18:25:18.889,-956.0,228.0,-22.0,-38.0,88.0,191.0,124,120,120,119,94
2025-02-25 18:25:18.896,-968.0,252.0,10.0,-28.0,84.0,183.0,126,122,120,119,95
2025-02-25 18:25:18.901,-960.0,318.0,3.0,-15.0,83.0,174.0,126,119,119,120,95
2025-02-25 18:25:18.905,-979.0,386.0,-22.0,-7.0,83.0,160.0,125,117,116,121,93
2025-02-25 18:25:18.913,-1002.0,384.0,-28.0,-1.0,82.0,150.0,127,117,116,117,91
2025-02-25 18:25:18.917,-993.0,367.0,16.0,-4.0,75.0,134.0,129,114,115,118,92
2025-02-25 18:25:18.921,-973.0,356.0,21.0,-6.0,76.0,115.0,131,111,112,115,91
2025-02-25 18:25:18.926,-1000.0,286.0,16.0,-11.0,78.0,100.0,131,107,106,114,91
2025-02-25 18:25:18.933,-1033.0,305.0,77.0,-26.0,86.0,91.0,136,103,102,114,90
2025-02-25 18:25:18.938,-1000.0,470.0,37.0,-21.0,101.0,75.0,137,102,104,115,93
2025-02-25 18:25:18.942,-1040.0,501.0,-131.0,-23.0,102.0,59.0,136,97,102,117,93
2025-02-25 18:25:18.946,-1156.0,677.0,-168.0,-17.0,96.0,36.0,138,92,94,112,90
2025-02-25 18:25:18.954,-1215.0,688.0,-190.0,-16.0,92.0,27.0,138,87,94,111,90
2025-02-25 18:25:18.957,-1279.0,718.0,-193.0,-22.0,90.0,5.0,140,82,93,110,88
2025-02-25 18:25:18.963,-1302.0,822.0,-260.0,-25.0,80.0,-20.0,139,77,93,108,86
2025-02-25 18:25:18.967,-1322.0,888.0,-308.0,-16.0,75.0,-38.0,140,76,88,104,86
2025-02-25 18:25:18.974,-1322.0,984.0,-285.0,-19.0,70.0,-61.0,141,75,86,103,83
2025-02-25 18:25:18.979,-1187.0,992.0,-549.0,-19.0,53.0,-73.0,143,75,86,104,86
2025-02-25 18:25:18.983,-1079.0,1113.0,-511.0,-13.0,24.0,-102.0,144,70,83,105,82
2025-02-25 18:25:18.991,-1038.0,1104.0,-548.0,-7.0,-5.0,-137.0,143,70,81,105,81
2025-02-25 18:25:18.995,-1120.0,1177.0,-667.0,0.0,-19.0,-184.0,143,68,80,106,79
2025-02-25 18:25:18.999,-1191.0,1196.0,-327.0,15.0,-11.0,-207.0,143,68,79,106,79
2025-02-25 18:25:19.004,-1104.0,1152.0,-443.0,47.0,16.0,-239.0,144,68,78,106,80
2025-02-25 18:25:19.011,-864.0,1156.0,-481.0,70.0,33.0,-269.0,146,66,77,108,78
2025-02-25 18:25:19.015,-845.0,1075.0,-274.0,93.0,38.0,-295.0,144,66,74,107,78
2025-02-25 18:25:19.019,-854.0,929.0,-315.0,112.0,35.0,-320.0,143,64,77,107,77
2025-02-25 18:25:19.027,-762.0,883.0,-429.0,138.0,4.0,-333.0,145,62,73,106,76
2025-02-25 18:25:19.031,-645.0,816.0,-349.0,139.0,-52.0,-369.0,145,65,76,111,78
2025-02-25 18:25:19.036,-340.0,738.0,-537.0,151.0,-111.0,-403.0,146,63,76,109,78
2025-02-25 18:25:19.040,65.0,549.0,-625.0,144.0,-142.0,-448.0,145,62,73,106,78
2025-02-25 18:25:19.048,39.0,518.0,-611.0,140.0,-144.0,-454.0,145,62,73,104,74
2025-02-25 18:25:19.052,92.0,571.0,-529.0,121.0,-135.0,-462.0,144,60,70,102,76
2025-02-25 18:25:19.057,333.0,206.0,-431.0,94.0,-129.0,-483.0,146,62,73,103,77
2025-02-25 18:25:19.064,469.0,-118.0,-146.0,90.0,-137.0,-497.0,147,60,71,102,76
2025-02-25 18:25:19.068,738.0,-668.0,235.0,95.0,-143.0,-488.0,145,61,69,98,77
2025-02-25 18:25:19.073,861.0,-956.0,493.0,105.0,-169.0,-486.0,146,62,69,99,77
2025-02-25 18:25:19.077,1125.0,-1240.0,442.0,115.0,-210.0,-471.0,149,62,74,100,79
2025-02-25 18:25:19.085,1313.0,-1643.0,566.0,134.0,-212.0,-452.0,149,61,71,97,78
2025-02-25 18:25:19.089,1802.0,-1965.0,764.0,138.0,-167.0,-423.0,151,63,74,97,78
2025-02-25 18:25:19.093,2130.0,-2589.0,765.0,175.0,-83.0,-373.0,152,63,77,93,79
2025-02-25 18:25:19.101,2437.0,-3339.0,1205.0,199.0,-68.0,-293.0,153,63,74,92,79
2025-02-25 18:25:19.106,2580.0,-3371.0,1714.0,313.0,-79.0,-274.0,154,61,74,83,79
2025-02-25 18:25:19.110,2580.0,-3975.0,1977.0,341.0,-24.0,-206.0,156,65,78,88,81
2025-02-25 18:25:19.118,2733.0,-3986.0,2101.0,354.0,13.0,-138.0,155,64,88,88,82
2025-02-25 18:25:19.122,2405.0,-3878.0,2201.0,312.0,72.0,-49.0,155,63,82,88,78
2025-02-25 18:25:19.126,2312.0,-3642.0,1877.0,229.0,109.0,43.0,156,62,78,87,81
2025-02-25 18:25:19.130,1987.0,-3479.0,1539.0,139.0,140.0,74.0,155,63,76,86,78
2025-02-25 18:25:19.138,1789.0,-3007.0,1351.0,46.0,130.0,114.0,157,65,81,86,80
2025-02-25 18:25:19.142,1529.0,-2498.0,892.0,-29.0,96.0,128.0,158,65,79,87,82
2025-02-25 18:25:19.147,1171.0,-2249.0,531.0,-64.0,77.0,135.0,156,63,77,89,79
2025-02-25 18:25:19.154,994.0,-2004.0,287.0,-147.0,63.0,140.0,158,63,79,87,80
2025-02-25 18:25:19.159,718.0,-1955.0,177.0,-211.0,73.0,160.0,157,66,80,92,81
2025-02-25 18:25:19.163,549.0,-2020.0,122.0,-237.0,60.0,174.0,156,67,74,90,81
2025-02-25 18:25:19.167,492.0,-2084.0,18.0,-253.0,44.0,177.0,155,64,72,90,81
2025-02-25 18:25:19.171,385.0,-2084.0,41.0,-255.0,4.0,178.0,158,63,71,90,80
2025-02-25 18:25:19.179,328.0,-2079.0,13.0,-227.0,-12.0,177.0,158,67,74,93,82
2025-02-25 18:25:19.183,320.0,-2032.0,10.0,-214.0,-4.0,181.0,157,65,72,91,81
2025-02-25 18:25:19.188,354.0,-1920.0,50.0,-180.0,-9.0,183.0,154,63,68,91,81
2025-02-25 18:25:19.192,368.0,-1885.0,229.0,-140.0,-29.0,188.0,156,64,72,91,81
2025-02-25 18:25:19.199,367.0,-1689.0,251.0,-123.0,-54.0,195.0,159,69,77,93,83
2025-02-25 18:25:19.204,325.0,-1530.0,415.0,-116.0,-58.0,204.0,161,70,75,97,86
2025-02-25 18:25:19.209,361.0,-1393.0,398.0,-104.0,-66.0,211.0,161,71,79,99,87
2025-02-25 18:25:19.216,347.0,-1302.0,479.0,-105.0,-71.0,212.0,161,73,85,99,88
2025-02-25 18:25:19.221,277.0,-1114.0,483.0,-119.0,-53.0,217.0,161,72,82,100,87
2025-02-25 18:25:19.225,202.0,-1004.0,549.0,-130.0,-44.0,220.0,159,69,82,95,80
2025-02-25 18:25:19.229,132.0,-896.0,553.0,-155.0,-37.0,221.0,158,67,78,92,82
2025-02-25 18:25:19.237,74.0,-855.0,503.0,-165.0,-36.0,220.0,157,67,88,93,82
2025-02-25 18:25:19.241,6.0,-710.0,521.0,-187.0,-19.0,220.0,159,70,82,95,84
2025-02-25 18:25:19.245,-125.0,-599.0,399.0,-190.0,-6.0,220.0,153,67,80,98,84
2025-02-25 18:25:19.250,-157.0,-497.0,445.0,-196.0,-2.0,216.0,159,68,81,93,82
2025-02-25 18:25:19.257,-243.0,-460.0,374.0,-185.0,0.0,214.0,161,68,79,96,83
2025-02-25 18:25:19.261,-370.0,-398.0,382.0,-162.0,-5.0,207.0,161,70,82,95,85
2025-02-25 18:25:19.266,-476.0,-310.0,364.0,-148.0,-14.0,197.0,158,64,79,96,86
2025-02-25 18:25:19.270,-484.0,-204.0,380.0,-116.0,-16.0,180.0,158,67,80,94,82
2025-02-25 18:25:19.278,-498.0,-164.0,332.0,-85.0,-16.0,171.0,157,67,78,92,81
2025-02-25 18:25:19.282,-568.0,-161.0,331.0,-59.0,-12.0,153.0,158,69,80,97,85
2025-02-25 18:25:19.286,-586.0,-170.0,310.0,-45.0,-3.0,141.0,158,69,76,95,83
2025-02-25 18:25:19.291,-646.0,-134.0,248.0,-29.0,3.0,136.0,157,65,79,95,82
2025-02-25 18:25:19.298,-654.0,-150.0,237.0,-28.0,16.0,133.0,158,69,78,97,84
2025-02-25 18:25:19.302,-678.0,-138.0,212.0,-16.0,19.0,126.0,159,69,80,97,83
2025-02-25 18:25:19.307,-690.0,-138.0,176.0,-16.0,23.0,117.0,158,68,74,96,82
2025-02-25 18:25:19.311,-729.0,-108.0,56.0,-13.0,53.0,115.0,156,67,75,95,82
2025-02-25 18:25:19.315,-752.0,-64.0,59.0,-17.0,66.0,109.0,157,70,80,99,85
2025-02-25 18:25:19.323,-814.0,-10.0,28.0,-19.0,61.0,105.0,156,64,75,93,80
2025-02-25 18:25:19.327,-823.0,-63.0,-51.0,-11.0,57.0,101.0,156,67,74,93,79
2025-02-25 18:25:19.331,-829.0,75.0,-60.0,-14.0,52.0,94.0,157,66,75,97,81
2025-02-25 18:25:19.336,-848.0,148.0,-96.0,-18.0,53.0,86.0,159,71,80,99,86
2025-02-25 18:25:19.339,-835.0,218.0,-107.0,-19.0,53.0,75.0,159,69,78,97,85
2025-02-25 18:25:19.347,-875.0,177.0,-98.0,-19.0,46.0,71.0,161,75,79,101,86
2025-02-25 18:25:19.351,-939.0,187.0,-126.0,-19.0,33.0,60.0,162,72,79,100,85
2025-02-25 18:25:19.356,-892.0,245.0,-127.0,-27.0,24.0,51.0,159,70,79,100,86
2025-02-25 18:25:19.360,-948.0,290.0,-174.0,-39.0,17.0,47.0,161,74,81,101,87
2025-02-25 18:25:19.368,-980.0,286.0,-189.0,-41.0,12.0,37.0,161,71,81,100,85
2025-02-25 18:25:19.372,-1001.0,347.0,-141.0,-44.0,9.0,23.0,163,71,77,98,84
2025-02-25 18:25:19.376,-939.0,392.0,-93.0,-40.0,7.0,13.0,160,72,80,101,86
2025-02-25 18:25:19.380,-887.0,500.0,-75.0,-35.0,5.0,-11.0,159,70,77,100,84
2025-02-25 18:25:19.385,-857.0,566.0,-70.0,-28.0,6.0,-35.0,157,68,75,98,82
2025-02-25 18:25:19.392,-916.0,598.0,-85.0,-19.0,7.0,-46.0,159,70,77,98,84
2025-02-25 18:25:19.396,-959.0,673.0,-89.0,-9.0,11.0,-65.0,158,69,76,99,85
2025-02-25 18:25:19.401,-990.0,699.0,-132.0,-5.0,11.0,-83.0,157,67,77,98,82
2025-02-25 18:25:19.405,-1022.0,740.0,-146.0,-1.0,11.0,-93.0,155,70,76,101,84
2025-02-25 18:25:19.413,-1042.0,751.0,-186.0,14.0,8.0,-113.0,158,69,79,99,83
2025-02-25 18:25:19.417,-1041.0,761.0,-196.0,20.0,8.0,-134.0,157,69,76,96,82
2025-02-25 18:25:19.421,-1048.0,753.0,-209.0,35.0,9.0,-144.0,158,72,76,99,82
2025-02-25 18:25:19.426,-1045.0,759.0,-222.0,50.0,9.0,-167.0,158,68,76,100,84
2025-02-25 18:25:19.430,-1034.0,746.0,-257.0,62.0,6.0,-192.0,157,69,74,101,85
2025-02-25 18:25:19.437,-995.0,709.0,-266.0,80.0,5.0,-221.0,155,69,78,98,81
2025-02-25 18:25:19.441,-927.0,686.0,-275.0,97.0,3.0,-237.0,156,67,73,97,79
2025-02-25 18:25:19.446,-807.0,639.0,-282.0,113.0,-5.0,-269.0,158,69,76,98,83
2025-02-25 18:25:19.450,-677.0,586.0,-257.0,118.0,-17.0,-301.0,156,68,76,99,80
2025-02-25 18:25:19.458,-581.0,543.0,-253.0,130.0,-25.0,-339.0,155,67,73,96,81
2025-02-25 18:25:19.463,-399.0,498.0,-212.0,134.0,-45.0,-357.0,155,67,75,97,80
2025-02-25 18:25:19.467,-154.0,401.0,-176.0,131.0,-64.0,-389.0,157,68,76,98,82
2025-02-25 18:25:19.474,125.0,223.0,-150.0,129.0,-85.0,-409.0,158,68,76,100,83
2025-02-25 18:25:19.479,270.0,-22.0,-52.0,116.0,-95.0,-421.0,159,70,75,99,84
2025-02-25 18:25:19.483,560.0,-193.0,113.0,107.0,-113.0,-423.0,154,64,74,97,82
2025-02-25 18:25:19.487,896.0,-688.0,198.0,90.0,-122.0,-426.0,158,68,76,101,85
2025-02-25 18:25:19.495,1140.0,-1315.0,292.0,84.0,-130.0,-426.0,160,69,78,101,84
2025-02-25 18:25:19.499,1352.0,-2021.0,360.0,96.0,-112.0,-414.0,156,69,78,101,85
2025-02-25 18:25:19.504,1609.0,-2639.0,540.0,68.0,-125.0,-389.0,155,66,76,98,84
2025-02-25 18:25:19.511,1684.0,-3125.0,852.0,106.0,-140.0,-362.0,155,66,76,98,82
2025-02-25 18:25:19.515,2304.0,-3607.0,894.0,210.0,-162.0,-318.0,157,67,82,100,84
2025-02-25 18:25:19.520,2545.0,-3970.0,998.0,209.0,-121.0,-258.0,160,69,83,98,86
2025-02-25 18:25:19.528,2497.0,-4144.0,1225.0,206.0,-1.0,-183.0,158,69,80,95,85
2025-02-25 18:25:19.532,2443.0,-4212.0,1056.0,161.0,80.0,-78.0,158,67,82,97,85
2025-02-25 18:25:19.536,2364.0,-4262.0,1034.0,169.0,88.0,15.0,164,68,81,95,88
2025-02-25 18:25:19.540,2267.0,-4160.0,826.0,122.0,67.0,57.0,162,71,87,99,89
2025-02-25 18:25:19.548,2037.0,-3744.0,604.0,95.0,59.0,130.0,161,72,86,99,89
2025-02-25 18:25:19.552,1735.0,-3098.0,375.0,79.0,55.0,180.0,163,68,86,98,87
2025-02-25 18:25:19.556,1666.0,-2829.0,168.0,18.0,71.0,192.0,159,70,86,101,89
2025-02-25 18:25:19.561,1270.0,-2172.0,47.0,-21.0,78.0,207.0,166,74,87,105,93
2025-02-25 18:25:19.569,998.0,-2059.0,102.0,-57.0,70.0,218.0,166,78,87,106,92
2025-02-25 18:25:19.573,855.0,-1996.0,77.0,-120.0,56.0,233.0,166,78,88,109,95
2025-02-25 18:25:19.577,644.0,-2001.0,30.0,-170.0,17.0,234.0,167,78,88,110,95
2025-02-25 18:25:19.581,590.0,-1998.0,28.0,-186.0,-9.0,232.0,169,80,85,111,99
2025-02-25 18:25:19.589,528.0,-1861.0,-3.0,-185.0,-13.0,223.0,166,80,87,112,97
2025-02-25 18:25:19.593,481.0,-1846.0,-23.0,-165.0,-5.0,221.0,164,77,83,111,96
2025-02-25 18:25:19.597,412.0,-1858.0,39.0,-147.0,8.0,218.0,168,79,85,111,97
2025-02-25 18:25:19.601,392.0,-1771.0,45.0,-139.0,-5.0,221.0,167,81,87,114,99
2025-02-25 18:25:19.609,268.0,-1616.0,74.0,-124.0,-32.0,226.0,167,78,89,113,98
2025-02-25 18:25:19.614,273.0,-1424.0,160.0,-106.0,-45.0,231.0,165,78,90,111,96
2025-02-25 18:25:19.618,269.0,-1280.0,182.0,-81.0,-69.0,234.0,166,80,89,110,97
2025-02-25 18:25:19.623,222.0,-1222.0,202.0,-69.0,-78.0,239.0,168,81,92,114,99
2025-02-25 18:25:19.630,166.0,-1125.0,209.0,-71.0,-70.0,245.0,166,81,92,113,98
2025-02-25 18:25:19.634,32.0,-1028.0,200.0,-74.0,-71.0,250.0,167,80,91,110,96
2025-02-25 18:25:19.638,-57.0,-912.0,217.0,-87.0,-73.0,255.0,165,79,88,111,95
2025-02-25 18:25:19.645,-122.0,-833.0,214.0,-111.0,-73.0,257.0,168,80,90,113,97
2025-02-25 18:25:19.651,-185.0,-711.0,211.0,-129.0,-59.0,258.0,168,80,93,111,100
2025-02-25 18:25:19.654,-232.0,-541.0,238.0,-137.0,-43.0,257.0,167,79,92,112,97
2025-02-25 18:25:19.659,-242.0,-386.0,239.0,-141.0,-36.0,249.0,166,77,91,111,96
2025-02-25 18:25:19.667,-211.0,-278.0,301.0,-140.0,-20.0,239.0,165,81,90,109,91
2025-02-25 18:25:19.671,-230.0,-236.0,320.0,-129.0,-5.0,235.0,166,80,93,115,98
2025-02-25 18:25:19.675,-293.0,-229.0,353.0,-110.0,3.0,223.0,165,79,91,111,98
2025-02-25 18:25:19.683,-367.0,-229.0,361.0,-106.0,5.0,215.0,165,78,90,112,97
2025-02-25 18:25:19.687,-377.0,-197.0,333.0,-94.0,2.0,203.0,161,77,88,110,94
2025-02-25 18:25:19.691,-437.0,-222.0,315.0,-70.0,-2.0,196.0,165,80,90,115,98
2025-02-25 18:25:19.695,-469.0,-250.0,354.0,-40.0,4.0,186.0,165,84,93,115,100
2025-02-25 18:25:19.703,-502.0,-227.0,360.0,-25.0,14.0,178.0,164,79,90,113,97
2025-02-25 18:25:19.707,-529.0,-250.0,258.0,-3.0,22.0,173.0,159,75,88,113,96
2025-02-25 18:25:19.711,-669.0,-187.0,243.0,10.0,33.0,171.0,164,79,90,117,99
2025-02-25 18:25:19.716,-833.0,-136.0,194.0,23.0,39.0,167.0,165,84,92,120,101
2025-02-25 18:25:19.724,-927.0,-110.0,158.0,34.0,45.0,163.0,160,78,88,113,97
2025-02-25 18:25:19.728,-946.0,9.0,285.0,32.0,57.0,157.0,159,77,89,114,95
2025-02-25 18:25:19.732,-905.0,83.0,238.0,26.0,54.0,149.0,160,78,90,118,98
2025-02-25 18:25:19.736,-885.0,229.0,179.0,23.0,38.0,139.0,162,81,92,120,100
2025-02-25 18:25:19.740,-848.0,395.0,83.0,23.0,37.0,125.0,157,76,84,113,93
2025-02-25 18:25:19.748,-848.0,475.0,43.0,14.0,48.0,117.0,155,74,82,112,94
2025-02-25 18:25:19.752,-848.0,569.0,27.0,7.0,65.0,109.0,155,74,83,113,90
2025-02-25 18:25:19.757,-913.0,581.0,-26.0,5.0,67.0,94.0,155,74,81,110,92
2025-02-25 18:25:19.761,-886.0,657.0,-28.0,-2.0,64.0,87.0,154,74,81,113,91
2025-02-25 18:25:19.765,-925.0,617.0,-31.0,-9.0,68.0,75.0,153,72,79,111,91
2025-02-25 18:25:19.770,-912.0,610.0,-38.0,-7.0,69.0,59.0,151,71,79,110,91
2025-02-25 18:25:19.777,-951.0,560.0,-62.0,-6.0,70.0,52.0,153,75,80,112,92
2025-02-25 18:25:19.781,-969.0,598.0,-65.0,-4.0,65.0,35.0,153,71,80,112,91
2025-02-25 18:25:19.785,-992.0,506.0,-109.0,-7.0,60.0,20.0,150,71,81,112,90
2025-02-25 18:25:19.790,-1061.0,524.0,-155.0,-12.0,53.0,9.0,156,71,83,108,87
2025-02-25 18:25:19.798,-1065.0,559.0,-169.0,-13.0,47.0,-9.0,152,73,80,114,92
2025-02-25 18:25:19.802,-1112.0,595.0,-220.0,-2.0,42.0,-31.0,149,73,84,111,90
2025-02-25 18:25:19.806,-1151.0,640.0,-183.0,2.0,31.0,-42.0,152,75,83,113,91
2025-02-25 18:25:19.811,-1171.0,746.0,-146.0,10.0,21.0,-64.0,151,72,81,115,90
2025-02-25 18:25:19.818,-1143.0,793.0,-125.0,10.0,16.0,-86.0,149,71,81,113,90
2025-02-25 18:25:19.823,-1081.0,842.0,-177.0,10.0,11.0,-98.0,148,69,80,109,89
2025-02-25 18:25:19.827,-1064.0,991.0,-162.0,10.0,10.0,-118.0,150,72,82,114,90
2025-02-25 18:25:19.831,-1095.0,988.0,-98.0,4.0,3.0,-141.0,150,74,81,113,90
2025-02-25 18:25:19.839,-1061.0,963.0,-45.0,11.0,5.0,-167.0,148,73,82,112,91
2025-02-25 18:25:19.843,-1032.0,954.0,25.0,26.0,7.0,-180.0,147,73,82,114,89
2025-02-25 18:25:19.847,-905.0,897.0,44.0,48.0,14.0,-211.0,147,75,83,112,91
2025-02-25 18:25:19.851,-848.0,779.0,83.0,63.0,19.0,-247.0,143,70,79,112,88
2025-02-25 18:25:19.856,-741.0,724.0,104.0,94.0,30.0,-264.0,142,70,81,110,89
2025-02-25 18:25:19.863,-645.0,617.0,138.0,130.0,44.0,-298.0,141,71,81,111,89
2025-02-25 18:25:19.867,-508.0,531.0,177.0,147.0,53.0,-332.0,139,71,78,112,89
2025-02-25 18:25:19.872,-413.0,534.0,124.0,170.0,55.0,-366.0,136,70,78,107,85
2025-02-25 18:25:19.876,-340.0,504.0,111.0,178.0,56.0,-384.0,139,74,82,110,89
2025-02-25 18:25:19.884,-326.0,459.0,130.0,181.0,46.0,-420.0,136,72,79,106,86
2025-02-25 18:25:19.888,-174.0,475.0,120.0,177.0,31.0,-458.0,134,72,79,105,86
2025-02-25 18:25:19.892,-85.0,359.0,190.0,165.0,21.0,-493.0,131,69,77,100,83
2025-02-25 18:25:19.896,163.0,256.0,208.0,153.0,0.0,-508.0,132,73,81,101,86
2025-02-25 18:25:19.904,446.0,-20.0,258.0,145.0,-22.0,-536.0,128,72,77,99,84
2025-02-25 18:25:19.908,785.0,-428.0,389.0,145.0,-30.0,-548.0,129,69,75,97,82
2025-02-25 18:25:19.913,968.0,-739.0,617.0,150.0,-38.0,-547.0,127,70,75,97,80
2025-02-25 18:25:19.917,1437.0,-1325.0,705.0,159.0,-37.0,-527.0,123,71,80,99,84
2025-02-25 18:25:19.925,1901.0,-2144.0,956.0,181.0,-19.0,-482.0,128,71,79,99,83
2025-02-25 18:25:19.929,2311.0,-3058.0,1192.0,198.0,12.0,-415.0,124,68,78,97,83
2025-02-25 18:25:19.933,2497.0,-3965.0,1393.0,250.0,42.0,-333.0,122,68,78,95,82
2025-02-25 18:25:19.941,2847.0,-4265.0,1495.0,304.0,76.0,-294.0,121,68,77,92,80
2025-02-25 18:25:19.945,3066.0,-4873.0,1391.0,328.0,115.0,-204.0,124,72,83,95,83
2025-02-25 18:25:19.950,3024.0,-5362.0,1402.0,353.0,162.0,-116.0,123,70,81,91,81
2025-02-25 18:25:19.957,2845.0,-4925.0,1164.0,330.0,196.0,-26.0,120,70,81,86,80
2025-02-25 18:25:19.962,2579.0,-4268.0,935.0,272.0,208.0,44.0,123,67,82,88,76
2025-02-25 18:25:19.966,2155.0,-3769.0,639.0,153.0,183.0,78.0,118,67,84,86,76
2025-02-25 18:25:19.970,1654.0,-2996.0,405.0,10.0,143.0,127.0,118,68,85,90,77
2025-02-25 18:25:19.978,1205.0,-2296.0,32.0,-63.0,64.0,153.0,119,69,84,88,77
2025-02-25 18:25:19.982,945.0,-1968.0,-270.0,-188.0,24.0,160.0,115,65,78,90,77
2025-02-25 18:25:19.986,761.0,-1987.0,-435.0,-271.0,-44.0,162.0,119,69,80,91,76
2025-02-25 18:25:19.991,784.0,-2191.0,-402.0,-294.0,-110.0,164.0,121,73,82,97,80
2025-02-25 18:25:19.999,905.0,-2495.0,-225.0,-290.0,-134.0,180.0,126,78,83,104,86
2025-02-25 18:25:20.003,959.0,-2717.0,-56.0,-274.0,-141.0,202.0,125,74,78,100,84
2025-02-25 18:25:20.007,1001.0,-2924.0,142.0,-227.0,-141.0,228.0,123,76,77,99,82
