timestamp,ax,ay,az,gx,gy,gz,flex1,flex2,flex3,flex4,flex5,emg1,emg2,emg3
2025-02-26 14:10:54.432,-148.0,-969.0,248.0,3.0,-2.0,0.0,147,114,121,121,120
2025-02-26 14:10:54.432,-146.0,-968.0,253.0,2.0,-3.0,0.0,148,121,120,122,121
2025-02-26 14:10:54.438,-147.0,-980.0,250.0,1.0,-3.0,0.0,149,117,121,123,121
2025-02-26 14:10:54.440,-148.0,-985.0,256.0,1.0,-3.0,1.0,147,116,120,122,120
2025-02-26 14:10:54.443,-152.0,-993.0,260.0,1.0,-2.0,1.0,148,117,122,123,121
2025-02-26 14:10:54.443,-154.0,-997.0,260.0,0.0,-2.0,2.0,149,118,122,120,121
2025-02-26 14:10:54.447,-152.0,-1002.0,263.0,0.0,-2.0,3.0,148,116,120,122,121
2025-02-26 14:10:54.449,-150.0,-1008.0,259.0,1.0,-2.0,3.0,149,118,121,123,121
2025-02-26 14:10:54.449,-150.0,-995.0,259.0,1.0,-1.0,4.0,148,116,120,122,120
2025-02-26 14:10:54.453,-150.0,-989.0,256.0,2.0,-1.0,4.0,147,116,119,121,120
2025-02-26 14:10:54.454,-145.0,-983.0,256.0,3.0,-1.0,5.0,150,118,122,124,122
2025-02-26 14:10:54.456,-144.0,-976.0,249.0,3.0,-1.0,4.0,148,117,121,124,121
2025-02-26 14:10:54.461,-141.0,-967.0,251.0,4.0,-1.0,4.0,147,116,120,122,121
2025-02-26 14:10:54.463,-141.0,-969.0,244.0,4.0,-1.0,4.0,150,118,123,124,121
2025-02-26 14:10:54.465,-133.0,-967.0,249.0,4.0,0.0,3.0,149,118,121,125,121
2025-02-26 14:10:54.467,-134.0,-965.0,249.0,4.0,0.0,3.0,149,117,120,121,120
2025-02-26 14:10:54.467,-137.0,-975.0,250.0,3.0,0.0,3.0,148,117,121,122,121
2025-02-26 14:10:54.472,-139.0,-975.0,251.0,3.0,1.0,3.0,148,117,123,122,120
2025-02-26 14:10:54.473,-131.0,-985.0,256.0,3.0,1.0,4.0,148,118,121,123,122
2025-02-26 14:10:54.473,-129.0,-988.0,256.0,1.0,2.0,3.0,148,117,121,123,122
2025-02-26 14:10:54.478,-126.0,-989.0,262.0,0.0,3.0,4.0,148,117,120,122,120
2025-02-26 14:10:54.480,-130.0,-996.0,260.0,-1.0,4.0,4.0,147,116,120,119,119
2025-02-26 14:10:54.483,-141.0,-1001.0,259.0,-2.0,5.0,5.0,149,119,123,124,122
2025-02-26 14:10:54.485,-161.0,-995.0,251.0,-3.0,5.0,6.0,147,116,120,121,119
2025-02-26 14:10:54.485,-164.0,-997.0,223.0,-2.0,5.0,7.0,146,116,120,122,119
2025-02-26 14:10:54.491,-166.0,-983.0,214.0,-2.0,5.0,7.0,148,117,121,123,120
2025-02-26 14:10:54.491,-189.0,-1010.0,255.0,-3.0,6.0,10.0,148,117,121,122,121
2025-02-26 14:10:54.503,-203.0,-1014.0,246.0,-3.0,5.0,11.0,148,116,121,121,119
2025-02-26 14:10:54.508,-196.0,-992.0,247.0,1.0,4.0,12.0,148,117,121,122,120
2025-02-26 14:10:54.512,-187.0,-1008.0,249.0,1.0,3.0,13.0,147,116,121,122,120
2025-02-26 14:10:54.517,-172.0,-1001.0,267.0,-1.0,3.0,13.0,148,116,121,122,121
2025-02-26 14:10:54.523,-146.0,-1022.0,266.0,-2.0,3.0,14.0,149,117,121,124,120
2025-02-26 14:10:54.528,-156.0,-1029.0,298.0,-1.0,2.0,14.0,149,116,121,123,120
2025-02-26 14:10:54.532,-167.0,-1066.0,310.0,0.0,3.0,15.0,148,116,120,122,118
2025-02-26 14:10:54.540,-139.0,-1069.0,304.0,3.0,5.0,15.0,151,117,121,124,121
2025-02-26 14:10:54.544,-140.0,-1075.0,293.0,5.0,7.0,17.0,149,116,121,122,119
2025-02-26 14:10:54.549,-161.0,-1070.0,306.0,9.0,9.0,18.0,148,114,118,122,119
2025-02-26 14:10:54.553,-174.0,-1066.0,294.0,12.0,12.0,20.0,147,115,121,122,119
2025-02-26 14:10:54.558,-196.0,-1047.0,271.0,15.0,14.0,22.0,149,116,123,124,121
2025-02-26 14:10:54.565,-207.0,-1033.0,261.0,16.0,13.0,23.0,148,115,120,121,119
2025-02-26 14:10:54.569,-218.0,-1008.0,262.0,19.0,13.0,24.0,147,114,119,121,118
2025-02-26 14:10:54.576,-230.0,-1008.0,193.0,18.0,13.0,24.0,148,113,119,121,118
2025-02-26 14:10:54.581,-216.0,-977.0,270.0,15.0,13.0,23.0,149,114,121,123,119
2025-02-26 14:10:54.585,-202.0,-976.0,214.0,15.0,10.0,23.0,148,115,121,122,119
2025-02-26 14:10:54.588,-207.0,-974.0,234.0,12.0,9.0,22.0,147,113,119,121,117
2025-02-26 14:10:54.597,-221.0,-967.0,264.0,9.0,8.0,22.0,147,114,119,121,116
2025-02-26 14:10:54.601,-219.0,-957.0,263.0,10.0,6.0,21.0,150,116,121,123,118
2025-02-26 14:10:54.605,-215.0,-1076.0,167.0,11.0,-1.0,22.0,147,113,120,123,118
2025-02-26 14:10:54.606,-221.0,-981.0,358.0,2.0,1.0,24.0,148,112,123,120,115
2025-02-26 14:10:54.618,-214.0,-977.0,333.0,3.0,-3.0,24.0,147,113,119,120,115
2025-02-26 14:10:54.622,-222.0,-978.0,394.0,-4.0,3.0,22.0,148,115,120,122,117
2025-02-26 14:10:54.626,-224.0,-1004.0,324.0,-4.0,3.0,22.0,150,114,120,123,116
2025-02-26 14:10:54.630,-213.0,-1052.0,331.0,-2.0,6.0,21.0,151,113,119,124,115
2025-02-26 14:10:54.638,-238.0,-1057.0,344.0,-4.0,9.0,18.0,147,113,119,124,115
2025-02-26 14:10:54.643,-238.0,-1040.0,353.0,-5.0,13.0,16.0,150,115,119,122,116
2025-02-26 14:10:54.646,-255.0,-990.0,336.0,-7.0,15.0,12.0,149,115,120,123,115
2025-02-26 14:10:54.655,-232.0,-1042.0,316.0,-7.0,15.0,13.0,147,113,119,120,114
2025-02-26 14:10:54.658,-167.0,-1011.0,293.0,-6.0,17.0,4.0,147,113,121,123,116
2025-02-26 14:10:54.663,-302.0,-927.0,249.0,6.0,20.0,5.0,148,114,119,122,115
2025-02-26 14:10:54.667,-241.0,-999.0,336.0,1.0,23.0,1.0,148,113,120,124,115
2025-02-26 14:10:54.673,-189.0,-1063.0,275.0,0.0,24.0,1.0,147,113,119,120,112
2025-02-26 14:10:54.679,-210.0,-1062.0,260.0,-8.0,20.0,1.0,148,113,119,122,114
2025-02-26 14:10:54.684,-287.0,-1090.0,267.0,-12.0,16.0,1.0,149,113,119,122,113
2025-02-26 14:10:54.685,-283.0,-1068.0,281.0,-7.0,14.0,1.0,148,113,119,122,113
2025-02-26 14:10:54.691,-265.0,-1083.0,280.0,-4.0,16.0,2.0,147,113,118,121,113
2025-02-26 14:10:54.700,-260.0,-1089.0,248.0,-3.0,15.0,3.0,148,113,118,121,113
2025-02-26 14:10:54.704,-259.0,-1066.0,287.0,-3.0,14.0,4.0,149,114,119,122,114
2025-02-26 14:10:54.710,-237.0,-1062.0,313.0,-7.0,12.0,5.0,148,113,118,122,114
2025-02-26 14:10:54.716,-202.0,-1063.0,325.0,-12.0,12.0,5.0,148,112,118,123,113
2025-02-26 14:10:54.721,-201.0,-1038.0,300.0,-25.0,10.0,6.0,147,114,119,121,113
2025-02-26 14:10:54.725,-160.0,-1094.0,282.0,-39.0,5.0,7.0,148,111,117,122,112
2025-02-26 14:10:54.732,-149.0,-1071.0,282.0,-53.0,4.0,8.0,152,113,118,124,111
2025-02-26 14:10:54.737,-192.0,-1053.0,265.0,-39.0,2.0,8.0,149,114,119,123,113
2025-02-26 14:10:54.740,-212.0,-1027.0,251.0,-38.0,-1.0,7.0,146,113,117,120,112
2025-02-26 14:10:54.749,-199.0,-1026.0,310.0,-38.0,0.0,8.0,148,111,117,122,111
2025-02-26 14:10:54.752,-165.0,-1024.0,249.0,-36.0,9.0,8.0,148,113,118,122,113
2025-02-26 14:10:54.757,-191.0,-1014.0,191.0,-38.0,7.0,9.0,148,113,119,122,114
2025-02-26 14:10:54.761,-187.0,-1002.0,216.0,-39.0,4.0,12.0,148,113,119,121,112
2025-02-26 14:10:54.769,-195.0,-998.0,273.0,-41.0,5.0,15.0,147,112,118,122,113
2025-02-26 14:10:54.773,-197.0,-975.0,262.0,-42.0,6.0,16.0,147,112,119,121,113
2025-02-26 14:10:54.778,-196.0,-963.0,201.0,-45.0,4.0,20.0,149,115,120,124,115
2025-02-26 14:10:54.782,-210.0,-971.0,233.0,-37.0,2.0,22.0,149,112,120,122,114
2025-02-26 14:10:54.790,-251.0,-986.0,208.0,-34.0,2.0,21.0,146,111,118,122,112
2025-02-26 14:10:54.794,-252.0,-957.0,217.0,-23.0,2.0,21.0,147,111,118,119,112
2025-02-26 14:10:54.799,-230.0,-943.0,185.0,-7.0,5.0,20.0,150,114,120,120,114
2025-02-26 14:10:54.806,-241.0,-928.0,192.0,6.0,7.0,20.0,149,113,119,123,113
2025-02-26 14:10:54.810,-238.0,-919.0,185.0,10.0,7.0,19.0,147,112,119,121,112
2025-02-26 14:10:54.815,-236.0,-905.0,187.0,15.0,5.0,19.0,148,112,117,121,111
2025-02-26 14:10:54.818,-237.0,-901.0,193.0,11.0,1.0,18.0,149,113,121,122,114
2025-02-26 14:10:54.827,-240.0,-890.0,205.0,9.0,-2.0,18.0,149,113,119,122,113
2025-02-26 14:10:54.831,-244.0,-858.0,186.0,6.0,-4.0,17.0,147,111,118,121,112
2025-02-26 14:10:54.835,-228.0,-873.0,178.0,5.0,-5.0,17.0,148,113,117,122,112
2025-02-26 14:10:54.839,-253.0,-884.0,201.0,7.0,-6.0,16.0,150,114,119,123,114
2025-02-26 14:10:54.843,-249.0,-911.0,183.0,7.0,-6.0,16.0,149,114,119,121,113
2025-02-26 14:10:54.851,-242.0,-913.0,191.0,4.0,-8.0,17.0,147,112,118,120,112
2025-02-26 14:10:54.855,-246.0,-922.0,232.0,-2.0,-8.0,17.0,148,114,118,121,113
2025-02-26 14:10:54.859,-230.0,-928.0,224.0,-9.0,-10.0,18.0,149,115,119,122,114
2025-02-26 14:10:54.868,-243.0,-927.0,224.0,-11.0,-10.0,20.0,149,114,119,123,114
2025-02-26 14:10:54.872,-244.0,-924.0,221.0,-18.0,-11.0,20.0,153,112,117,117,113
2025-02-26 14:10:54.873,-250.0,-929.0,223.0,-22.0,-10.0,21.0,148,113,118,120,112
2025-02-26 14:10:54.884,-241.0,-932.0,207.0,-27.0,-10.0,21.0,147,113,119,121,112
2025-02-26 14:10:54.885,-241.0,-917.0,208.0,-33.0,-10.0,21.0,149,114,118,122,114
2025-02-26 14:10:54.893,-255.0,-918.0,209.0,-36.0,-11.0,21.0,148,113,119,123,114
2025-02-26 14:10:54.897,-269.0,-933.0,228.0,-38.0,-10.0,21.0,149,115,120,122,114
2025-02-26 14:10:54.905,-284.0,-934.0,199.0,-40.0,-9.0,20.0,148,113,117,121,112
2025-02-26 14:10:54.909,-282.0,-945.0,179.0,-43.0,-10.0,20.0,147,112,117,120,114
2025-02-26 14:10:54.915,-267.0,-949.0,200.0,-46.0,-9.0,20.0,149,114,117,120,113
2025-02-26 14:10:54.921,-283.0,-946.0,210.0,-47.0,-8.0,20.0,150,114,121,122,113
2025-02-26 14:10:54.925,-289.0,-956.0,201.0,-47.0,-9.0,19.0,149,113,118,123,115
2025-02-26 14:10:54.932,-284.0,-949.0,199.0,-47.0,-6.0,19.0,147,112,117,121,114
2025-02-26 14:10:54.934,-293.0,-958.0,182.0,-47.0,-5.0,19.0,146,112,117,122,114
2025-02-26 14:10:54.941,-301.0,-947.0,161.0,-43.0,-4.0,19.0,148,113,116,121,114
2025-02-26 14:10:54.946,-300.0,-960.0,170.0,-55.0,-2.0,19.0,149,115,118,123,116
2025-02-26 14:10:54.953,-296.0,-959.0,171.0,-56.0,-1.0,20.0,148,114,118,123,116
2025-02-26 14:10:54.958,-326.0,-939.0,145.0,-47.0,-2.0,21.0,149,115,119,122,115
2025-02-26 14:10:54.958,-337.0,-940.0,145.0,-35.0,-4.0,21.0,147,113,117,120,113
2025-02-26 14:10:54.970,-338.0,-930.0,167.0,-28.0,-4.0,21.0,149,114,119,121,115
2025-02-26 14:10:54.974,-340.0,-914.0,161.0,-20.0,-4.0,21.0,148,114,117,123,116
2025-02-26 14:10:54.979,-354.0,-915.0,136.0,-17.0,-6.0,21.0,149,115,119,124,116
2025-02-26 14:10:54.983,-342.0,-906.0,134.0,-11.0,-6.0,21.0,149,113,117,120,115
2025-02-26 14:10:54.988,-340.0,-883.0,134.0,-6.0,-6.0,20.0,147,113,119,119,114
2025-02-26 14:10:54.995,-343.0,-880.0,118.0,2.0,-6.0,19.0,149,113,119,122,117
2025-02-26 14:10:54.999,-331.0,-875.0,119.0,10.0,-7.0,18.0,150,115,119,123,117
2025-02-26 14:10:55.006,-336.0,-885.0,122.0,11.0,-5.0,17.0,149,114,119,122,117
2025-02-26 14:10:55.011,-345.0,-891.0,111.0,13.0,-5.0,16.0,148,113,117,118,116
2025-02-26 14:10:55.012,-342.0,-886.0,126.0,15.0,-5.0,16.0,148,114,119,122,116
2025-02-26 14:10:55.020,-348.0,-902.0,137.0,13.0,-3.0,15.0,149,115,120,122,117
2025-02-26 14:10:55.027,-343.0,-886.0,134.0,13.0,-4.0,13.0,148,114,119,123,116
2025-02-26 14:10:55.031,-342.0,-876.0,142.0,15.0,-4.0,13.0,147,113,120,121,117
2025-02-26 14:10:55.036,-343.0,-880.0,148.0,14.0,-1.0,13.0,146,112,117,120,116
2025-02-26 14:10:55.039,-350.0,-881.0,116.0,9.0,-1.0,13.0,150,114,119,121,118
2025-02-26 14:10:55.048,-339.0,-885.0,138.0,7.0,-2.0,13.0,148,113,119,122,118
2025-02-26 14:10:55.050,-355.0,-877.0,152.0,10.0,-2.0,12.0,148,113,118,121,117
2025-02-26 14:10:55.056,-346.0,-894.0,166.0,7.0,-1.0,12.0,148,111,118,121,118
2025-02-26 14:10:55.063,-325.0,-870.0,186.0,4.0,0.0,13.0,148,115,120,121,119
2025-02-26 14:10:55.068,-310.0,-864.0,177.0,3.0,0.0,13.0,149,114,119,122,118
2025-02-26 14:10:55.072,-309.0,-868.0,177.0,3.0,0.0,13.0,146,114,118,120,118
2025-02-26 14:10:55.074,-296.0,-866.0,146.0,3.0,-3.0,13.0,149,116,122,127,121
2025-02-26 14:10:55.085,-284.0,-856.0,158.0,-3.0,-4.0,12.0,149,115,120,121,119
2025-02-26 14:10:55.089,-277.0,-848.0,175.0,-5.0,-5.0,11.0,147,115,120,125,118
2025-02-26 14:10:55.093,-272.0,-847.0,178.0,-5.0,-5.0,11.0,148,114,117,121,118
2025-02-26 14:10:55.097,-261.0,-853.0,175.0,-8.0,-5.0,10.0,149,115,121,123,120
2025-02-26 14:10:55.105,-283.0,-841.0,162.0,-3.0,-4.0,10.0,149,116,121,123,119
2025-02-26 14:10:55.109,-290.0,-867.0,150.0,-4.0,-4.0,10.0,148,114,120,123,119
2025-02-26 14:10:55.113,-288.0,-863.0,146.0,-8.0,-5.0,10.0,146,114,120,122,120
2025-02-26 14:10:55.117,-306.0,-876.0,180.0,-11.0,-5.0,10.0,147,116,119,120,120
2025-02-26 14:10:55.126,-303.0,-880.0,131.0,-10.0,-8.0,10.0,149,116,120,123,121
2025-02-26 14:10:55.129,-305.0,-876.0,156.0,-6.0,-11.0,9.0,148,115,119,122,120
2025-02-26 14:10:55.134,-317.0,-879.0,175.0,-6.0,-11.0,8.0,148,116,120,122,120
2025-02-26 14:10:55.141,-314.0,-887.0,175.0,-6.0,-10.0,7.0,147,116,119,121,121
2025-02-26 14:10:55.146,-325.0,-890.0,166.0,-5.0,-11.0,7.0,150,116,121,123,121
2025-02-26 14:10:55.151,-309.0,-892.0,179.0,-5.0,-11.0,5.0,151,116,121,121,120
2025-02-26 14:10:55.153,-307.0,-885.0,186.0,-5.0,-12.0,4.0,148,115,122,121,121
2025-02-26 14:10:55.163,-301.0,-884.0,190.0,-7.0,-11.0,3.0,148,115,121,122,120
2025-02-26 14:10:55.165,-293.0,-882.0,177.0,-6.0,-10.0,2.0,147,110,119,121,120
2025-02-26 14:10:55.171,-281.0,-889.0,170.0,-7.0,-9.0,2.0,149,116,121,122,121
2025-02-26 14:10:55.176,-276.0,-879.0,171.0,-8.0,-8.0,2.0,148,116,121,122,121
2025-02-26 14:10:55.183,-281.0,-877.0,174.0,-8.0,-7.0,3.0,149,115,120,122,121
2025-02-26 14:10:55.187,-285.0,-876.0,156.0,-11.0,-6.0,3.0,148,115,120,121,119
2025-02-26 14:10:55.191,-293.0,-875.0,152.0,-10.0,-4.0,3.0,148,116,121,122,121
2025-02-26 14:10:55.199,-302.0,-884.0,139.0,-10.0,-3.0,4.0,149,117,122,124,123
2025-02-26 14:10:55.203,-310.0,-888.0,143.0,-10.0,-3.0,4.0,148,115,120,121,121
2025-02-26 14:10:55.207,-316.0,-886.0,127.0,-9.0,-3.0,5.0,148,116,120,121,121
2025-02-26 14:10:55.212,-334.0,-888.0,128.0,-8.0,-3.0,5.0,149,115,121,123,122
2025-02-26 14:10:55.219,-350.0,-897.0,138.0,-7.0,-3.0,5.0,150,117,120,122,122
2025-02-26 14:10:55.223,-354.0,-898.0,130.0,-7.0,-4.0,4.0,148,116,120,121,121
2025-02-26 14:10:55.228,-354.0,-891.0,137.0,-6.0,-4.0,4.0,147,115,121,120,120
2025-02-26 14:10:55.233,-365.0,-894.0,131.0,-4.0,-5.0,4.0,148,117,121,123,121
2025-02-26 14:10:55.241,-364.0,-892.0,136.0,-3.0,-5.0,4.0,149,117,121,123,121
2025-02-26 14:10:55.245,-363.0,-888.0,143.0,0.0,-5.0,4.0,147,116,121,122,121
2025-02-26 14:10:55.249,-371.0,-891.0,149.0,1.0,-5.0,4.0,148,116,121,123,121
2025-02-26 14:10:55.254,-372.0,-888.0,153.0,3.0,-5.0,4.0,149,118,122,125,122
2025-02-26 14:10:55.261,-382.0,-881.0,162.0,4.0,-5.0,4.0,147,115,122,121,121
2025-02-26 14:10:55.265,-380.0,-876.0,169.0,5.0,-4.0,3.0,147,116,120,122,121
2025-02-26 14:10:55.269,-381.0,-876.0,170.0,8.0,-3.0,3.0,149,116,122,121,121
2025-02-26 14:10:55.273,-393.0,-866.0,162.0,9.0,-3.0,2.0,150,116,122,123,121
2025-02-26 14:10:55.281,-395.0,-859.0,192.0,11.0,-2.0,2.0,147,116,122,121,122
2025-02-26 14:10:55.286,-400.0,-871.0,184.0,12.0,-2.0,2.0,150,116,122,122,121
2025-02-26 14:10:55.290,-408.0,-869.0,191.0,12.0,-2.0,1.0,148,116,121,123,122
2025-02-26 14:10:55.294,-408.0,-859.0,202.0,12.0,-2.0,0.0,149,114,122,122,122
2025-02-26 14:10:55.301,-403.0,-857.0,184.0,13.0,-2.0,-1.0,147,116,122,122,121
2025-02-26 14:10:55.306,-411.0,-859.0,194.0,13.0,-1.0,-3.0,149,116,121,122,121
2025-02-26 14:10:55.310,-413.0,-864.0,193.0,11.0,-1.0,-4.0,150,117,121,121,121
2025-02-26 14:10:55.314,-420.0,-854.0,187.0,12.0,0.0,-6.0,148,115,122,122,121
2025-02-26 14:10:55.322,-415.0,-858.0,204.0,12.0,0.0,-7.0,148,115,121,122,120
2025-02-26 14:10:55.326,-421.0,-866.0,194.0,9.0,1.0,-8.0,150,116,122,122,121
2025-02-26 14:10:55.331,-407.0,-866.0,205.0,7.0,1.0,-10.0,149,116,122,121,120
2025-02-26 14:10:55.335,-411.0,-885.0,205.0,8.0,1.0,-11.0,148,116,121,121,120
2025-02-26 14:10:55.343,-407.0,-885.0,202.0,4.0,2.0,-13.0,148,115,121,122,120
2025-02-26 14:10:55.347,-381.0,-879.0,207.0,5.0,2.0,-14.0,148,117,121,122,121
2025-02-26 14:10:55.352,-373.0,-894.0,203.0,4.0,2.0,-15.0,148,117,121,121,120
2025-02-26 14:10:55.356,-361.0,-902.0,211.0,3.0,2.0,-16.0,149,117,121,123,121
2025-02-26 14:10:55.363,-360.0,-908.0,206.0,5.0,2.0,-16.0,149,114,120,121,121
2025-02-26 14:10:55.367,-350.0,-916.0,191.0,2.0,0.0,-17.0,148,116,121,122,121
2025-02-26 14:10:55.371,-340.0,-929.0,204.0,2.0,1.0,-17.0,149,116,121,123,120
2025-02-26 14:10:55.376,-350.0,-931.0,204.0,2.0,0.0,-18.0,149,117,121,123,120
2025-02-26 14:10:55.383,-349.0,-948.0,221.0,-4.0,0.0,-18.0,150,116,119,121,119
2025-02-26 14:10:55.388,-345.0,-945.0,220.0,-4.0,2.0,-18.0,148,117,122,122,119
2025-02-26 14:10:55.390,-361.0,-964.0,203.0,-9.0,2.0,-20.0,151,117,122,123,120
2025-02-26 14:10:55.400,-354.0,-967.0,212.0,-10.0,4.0,-20.0,149,116,121,123,120
2025-02-26 14:10:55.404,-354.0,-986.0,200.0,-12.0,4.0,-20.0,147,116,121,120,120
2025-02-26 14:10:55.409,-357.0,-996.0,190.0,-15.0,5.0,-21.0,148,116,120,122,119
2025-02-26 14:10:55.413,-365.0,-1003.0,191.0,-16.0,5.0,-21.0,148,117,121,122,120
2025-02-26 14:10:55.421,-363.0,-1015.0,181.0,-17.0,4.0,-20.0,150,117,122,123,121
2025-02-26 14:10:55.425,-364.0,-1022.0,174.0,-19.0,4.0,-20.0,148,117,123,123,121
2025-02-26 14:10:55.429,-366.0,-1025.0,167.0,-22.0,4.0,-20.0,147,115,117,122,119
2025-02-26 14:10:55.437,-361.0,-1029.0,167.0,-24.0,4.0,-20.0,149,115,120,123,120
2025-02-26 14:10:55.441,-350.0,-1039.0,162.0,-27.0,3.0,-19.0,150,117,122,124,120
2025-02-26 14:10:55.445,-340.0,-1045.0,157.0,-28.0,2.0,-19.0,149,117,122,122,120
2025-02-26 14:10:55.454,-334.0,-1050.0,152.0,-29.0,2.0,-18.0,149,116,122,122,119
2025-02-26 14:10:55.458,-335.0,-1063.0,150.0,-29.0,2.0,-16.0,149,116,121,124,120
2025-02-26 14:10:55.462,-339.0,-1056.0,157.0,-30.0,2.0,-15.0,148,115,121,121,119
2025-02-26 14:10:55.469,-339.0,-1065.0,153.0,-30.0,2.0,-14.0,147,116,121,124,119
2025-02-26 14:10:55.474,-343.0,-1071.0,139.0,-30.0,2.0,-13.0,150,117,121,122,120
2025-02-26 14:10:55.478,-336.0,-1074.0,140.0,-28.0,2.0,-12.0,150,118,127,123,120
2025-02-26 14:10:55.486,-336.0,-1071.0,142.0,-26.0,1.0,-10.0,148,116,124,122,120
2025-02-26 14:10:55.491,-332.0,-1066.0,144.0,-24.0,2.0,-8.0,145,116,122,120,119
2025-02-26 14:10:55.495,-331.0,-1062.0,151.0,-20.0,3.0,-6.0,147,116,121,122,119
2025-02-26 14:10:55.499,-339.0,-1067.0,149.0,-18.0,5.0,-5.0,149,116,121,123,121
2025-02-26 14:10:55.507,-325.0,-1047.0,132.0,-12.0,5.0,-3.0,149,116,121,122,119
2025-02-26 14:10:55.511,-314.0,-1047.0,136.0,-11.0,6.0,-1.0,149,116,121,122,120
2025-02-26 14:10:55.516,-313.0,-1018.0,128.0,-7.0,7.0,0.0,148,117,123,124,121
2025-02-26 14:10:55.523,-302.0,-1019.0,140.0,-2.0,10.0,1.0,147,115,120,120,119
2025-02-26 14:10:55.528,-305.0,-1005.0,133.0,0.0,11.0,2.0,148,116,121,121,121
2025-02-26 14:10:55.531,-309.0,-1000.0,139.0,2.0,13.0,2.0,152,116,121,123,120
2025-02-26 14:10:55.536,-315.0,-980.0,115.0,3.0,14.0,2.0,149,117,121,123,120
2025-02-26 14:10:55.543,-321.0,-977.0,112.0,4.0,14.0,2.0,148,115,123,122,119
2025-02-26 14:10:55.548,-328.0,-969.0,112.0,4.0,14.0,2.0,148,116,123,123,120
2025-02-26 14:10:55.552,-334.0,-954.0,108.0,4.0,13.0,2.0,148,115,121,121,120
2025-02-26 14:10:55.557,-339.0,-953.0,102.0,5.0,13.0,3.0,148,116,121,123,119
2025-02-26 14:10:55.564,-342.0,-947.0,110.0,6.0,13.0,3.0,150,116,122,122,121
2025-02-26 14:10:55.568,-330.0,-933.0,87.0,7.0,11.0,3.0,149,116,121,123,119
2025-02-26 14:10:55.572,-334.0,-937.0,102.0,7.0,11.0,4.0,148,116,121,123,120
2025-02-26 14:10:55.577,-334.0,-929.0,95.0,9.0,10.0,5.0,152,118,121,123,120
2025-02-26 14:10:55.581,-339.0,-919.0,91.0,10.0,8.0,5.0,150,116,121,123,120
2025-02-26 14:10:55.589,-341.0,-925.0,106.0,10.0,7.0,5.0,148,115,121,124,119
2025-02-26 14:10:55.592,-337.0,-921.0,116.0,9.0,6.0,5.0,147,115,120,120,119
2025-02-26 14:10:55.595,-336.0,-919.0,114.0,7.0,5.0,4.0,149,117,123,123,121
2025-02-26 14:10:55.601,-334.0,-922.0,118.0,6.0,5.0,2.0,148,116,121,122,120
2025-02-26 14:10:55.609,-325.0,-923.0,121.0,5.0,5.0,1.0,148,115,120,122,120
2025-02-26 14:10:55.613,-317.0,-918.0,121.0,3.0,5.0,-1.0,149,116,121,124,121
2025-02-26 14:10:55.618,-307.0,-916.0,141.0,2.0,5.0,-2.0,149,116,122,123,121
2025-02-26 14:10:55.621,-314.0,-930.0,143.0,1.0,6.0,-2.0,148,115,121,122,119
2025-02-26 14:10:55.625,-312.0,-927.0,129.0,-2.0,6.0,-2.0,150,116,121,124,120
2025-02-26 14:10:55.631,-307.0,-936.0,122.0,-6.0,4.0,-2.0,147,117,122,123,120
2025-02-26 14:10:55.638,-304.0,-945.0,132.0,-9.0,6.0,-1.0,148,117,121,123,120
2025-02-26 14:10:55.642,-303.0,-931.0,112.0,-15.0,7.0,-1.0,149,115,121,121,120
2025-02-26 14:10:55.650,-289.0,-951.0,124.0,-24.0,10.0,-1.0,150,116,122,124,121
2025-02-26 14:10:55.654,-282.0,-942.0,125.0,-26.0,13.0,0.0,150,117,121,123,120
2025-02-26 14:10:55.658,-293.0,-931.0,133.0,-26.0,18.0,0.0,150,116,120,123,121
2025-02-26 14:10:55.662,-287.0,-917.0,125.0,-34.0,21.0,0.0,148,116,122,120,119
2025-02-26 14:10:55.670,-299.0,-938.0,123.0,-46.0,20.0,1.0,153,115,121,120,119
2025-02-26 14:10:55.674,-295.0,-934.0,125.0,-50.0,22.0,1.0,149,117,122,123,120
2025-02-26 14:10:55.680,-314.0,-917.0,75.0,-43.0,17.0,0.0,148,116,125,122,121
2025-02-26 14:10:55.683,-308.0,-919.0,82.0,-38.0,12.0,-1.0,148,115,122,121,120
2025-02-26 14:10:55.691,-298.0,-932.0,212.0,-34.0,13.0,-2.0,148,115,119,121,120
2025-02-26 14:10:55.695,-284.0,-917.0,148.0,-29.0,16.0,-1.0,149,116,122,123,120
2025-02-26 14:10:55.698,-302.0,-944.0,69.0,-17.0,5.0,-1.0,149,116,122,124,122
2025-02-26 14:10:55.707,-288.0,-979.0,91.0,-19.0,1.0,-2.0,149,115,122,125,120
2025-02-26 14:10:55.711,-281.0,-981.0,63.0,-16.0,-9.0,-2.0,147,116,122,123,119
2025-02-26 14:10:55.715,-284.0,-983.0,18.0,-13.0,-14.0,-2.0,149,116,123,123,122
2025-02-26 14:10:55.721,-257.0,-986.0,107.0,-11.0,-11.0,-1.0,149,116,121,123,122
2025-02-26 14:10:55.728,-255.0,-984.0,177.0,-6.0,-6.0,0.0,149,116,123,123,120
2025-02-26 14:10:55.729,-259.0,-985.0,142.0,3.0,-6.0,2.0,147,117,121,122,119
2025-02-26 14:10:55.736,-272.0,-1014.0,56.0,-9.0,-10.0,2.0,150,117,121,124,122
2025-02-26 14:10:55.741,-265.0,-970.0,73.0,-13.0,-11.0,3.0,149,116,122,123,121
2025-02-26 14:10:55.748,-289.0,-960.0,99.0,-13.0,-8.0,4.0,149,116,121,124,120
2025-02-26 14:10:55.753,-286.0,-959.0,75.0,-20.0,-8.0,5.0,148,115,122,121,119
2025-02-26 14:10:55.757,-261.0,-943.0,93.0,-20.0,-10.0,5.0,149,116,122,124,120
2025-02-26 14:10:55.765,-287.0,-951.0,92.0,-16.0,-11.0,6.0,149,116,121,123,120
2025-02-26 14:10:55.769,-288.0,-962.0,79.0,-19.0,-14.0,7.0,149,117,121,122,118
2025-02-26 14:10:55.772,-274.0,-959.0,41.0,-23.0,-18.0,8.0,148,116,121,122,119
2025-02-26 14:10:55.777,-290.0,-972.0,67.0,-26.0,-21.0,9.0,149,118,121,121,122
2025-02-26 14:10:55.783,-274.0,-966.0,140.0,-15.0,-19.0,9.0,150,116,122,124,121
2025-02-26 14:10:55.789,-269.0,-946.0,123.0,-14.0,-16.0,10.0,150,114,122,123,120
2025-02-26 14:10:55.793,-278.0,-918.0,96.0,-14.0,-14.0,11.0,148,115,122,122,120
2025-02-26 14:10:55.802,-275.0,-925.0,100.0,-8.0,-13.0,11.0,148,116,121,123,119
2025-02-26 14:10:55.806,-272.0,-913.0,101.0,-11.0,-12.0,11.0,149,114,120,123,119
2025-02-26 14:10:55.810,-284.0,-894.0,73.0,-4.0,-12.0,10.0,149,115,121,122,119
2025-02-26 14:10:55.815,-299.0,-903.0,72.0,-6.0,-14.0,9.0,150,118,124,120,121
2025-02-26 14:10:55.819,-288.0,-878.0,102.0,-6.0,-13.0,8.0,148,115,122,123,119
2025-02-26 14:10:55.826,-296.0,-897.0,67.0,-4.0,-18.0,7.0,148,116,121,121,119
2025-02-26 14:10:55.831,-299.0,-902.0,83.0,0.0,-20.0,6.0,149,114,122,124,120
2025-02-26 14:10:55.834,-300.0,-889.0,90.0,3.0,-18.0,5.0,150,118,122,126,122
2025-02-26 14:10:55.842,-315.0,-889.0,107.0,10.0,-18.0,5.0,149,116,121,123,120
2025-02-26 14:10:55.844,-304.0,-890.0,79.0,9.0,-14.0,5.0,147,115,122,121,118
2025-02-26 14:10:55.850,-325.0,-881.0,75.0,9.0,-14.0,5.0,149,117,122,122,120
2025-02-26 14:10:55.855,-337.0,-868.0,70.0,10.0,-14.0,5.0,149,116,122,124,121
2025-02-26 14:10:55.863,-334.0,-885.0,100.0,5.0,-13.0,5.0,148,114,122,122,120
2025-02-26 14:10:55.868,-331.0,-867.0,103.0,-5.0,-11.0,6.0,148,115,122,122,119
2025-02-26 14:10:55.872,-325.0,-870.0,141.0,-8.0,-6.0,6.0,149,117,125,123,120
2025-02-26 14:10:55.879,-344.0,-852.0,132.0,-5.0,-6.0,6.0,150,116,124,123,121
2025-02-26 14:10:55.883,-342.0,-867.0,83.0,-14.0,-5.0,6.0,147,117,121,122,119
2025-02-26 14:10:55.888,-335.0,-840.0,118.0,-11.0,-5.0,7.0,149,116,122,123,120
2025-02-26 14:10:55.892,-354.0,-872.0,131.0,-15.0,-1.0,7.0,150,118,122,122,121
2025-02-26 14:10:55.900,-367.0,-870.0,71.0,-11.0,-4.0,5.0,143,118,123,121,120
2025-02-26 14:10:55.904,-364.0,-896.0,92.0,-3.0,-4.0,3.0,148,116,122,122,121
2025-02-26 14:10:55.909,-359.0,-896.0,93.0,-3.0,-1.0,2.0,150,118,124,123,122
2025-02-26 14:10:55.912,-376.0,-904.0,112.0,-1.0,-2.0,0.0,150,119,126,124,123
2025-02-26 14:10:55.917,-407.0,-935.0,42.0,-3.0,-7.0,-2.0,151,120,125,123,120
2025-02-26 14:10:55.924,-392.0,-911.0,24.0,-12.0,-9.0,-3.0,151,120,124,123,122
2025-02-26 14:10:55.929,-403.0,-901.0,51.0,-14.0,-17.0,-6.0,151,117,125,125,120
2025-02-26 14:10:55.934,-404.0,-929.0,77.0,-15.0,-20.0,-7.0,151,119,123,124,123
2025-02-26 14:10:55.941,-394.0,-901.0,104.0,-15.0,-20.0,-8.0,151,119,126,124,122
2025-02-26 14:10:55.945,-406.0,-891.0,85.0,-12.0,-20.0,-9.0,149,116,124,121,120
2025-02-26 14:10:55.949,-404.0,-894.0,83.0,2.0,-18.0,-8.0,151,117,123,121,121
2025-02-26 14:10:55.957,-415.0,-913.0,55.0,0.0,-17.0,-7.0,151,119,125,123,123
2025-02-26 14:10:55.961,-406.0,-914.0,20.0,1.0,-26.0,-7.0,150,118,125,123,121
2025-02-26 14:10:55.966,-403.0,-945.0,12.0,4.0,-29.0,-6.0,149,117,124,121,119
2025-02-26 14:10:55.970,-418.0,-929.0,58.0,4.0,-31.0,-6.0,149,116,122,121,121
2025-02-26 14:10:55.977,-383.0,-904.0,152.0,6.0,-22.0,-6.0,151,119,126,124,124
2025-02-26 14:10:55.981,-386.0,-968.0,120.0,5.0,-18.0,-6.0,149,116,123,123,121
2025-02-26 14:10:55.983,-360.0,-974.0,153.0,7.0,-16.0,-6.0,150,117,121,122,120
2025-02-26 14:10:55.991,-370.0,-969.0,149.0,6.0,-8.0,-5.0,150,117,122,123,121
2025-02-26 14:10:55.998,-360.0,-979.0,65.0,-1.0,-5.0,-4.0,149,117,127,123,122
2025-02-26 14:10:56.002,-363.0,-964.0,80.0,2.0,-7.0,-4.0,149,118,124,123,122
2025-02-26 14:10:56.007,-369.0,-990.0,88.0,5.0,-7.0,-4.0,149,116,123,121,121
2025-02-26 14:10:56.011,-337.0,-985.0,104.0,4.0,-4.0,-4.0,147,117,123,122,121
2025-02-26 14:10:56.018,-342.0,-965.0,40.0,7.0,-6.0,-5.0,148,117,126,122,124
2025-02-26 14:10:56.020,-348.0,-994.0,90.0,5.0,-3.0,-5.0,150,117,125,123,124
2025-02-26 14:10:56.027,-348.0,-980.0,125.0,6.0,-2.0,-6.0,148,116,123,121,121
2025-02-26 14:10:56.032,-329.0,-984.0,80.0,3.0,0.0,-6.0,151,118,124,121,122
2025-02-26 14:10:56.039,-353.0,-965.0,81.0,6.0,2.0,-6.0,149,116,124,123,120
2025-02-26 14:10:56.043,-344.0,-968.0,72.0,4.0,1.0,-5.0,148,115,123,121,121
2025-02-26 14:10:56.045,-337.0,-952.0,88.0,6.0,6.0,-5.0,148,116,123,121,121
2025-02-26 14:10:56.051,-346.0,-956.0,91.0,12.0,8.0,-4.0,150,117,124,122,123
2025-02-26 14:10:56.056,-352.0,-970.0,93.0,11.0,9.0,-3.0,150,120,124,119,119
2025-02-26 14:10:56.064,-350.0,-946.0,111.0,15.0,9.0,-2.0,148,116,123,120,122
2025-02-26 14:10:56.068,-339.0,-950.0,90.0,21.0,7.0,-1.0,150,118,124,121,122
2025-02-26 14:10:56.072,-340.0,-951.0,96.0,19.0,2.0,0.0,150,119,125,123,122
2025-02-26 14:10:56.076,-338.0,-935.0,108.0,24.0,2.0,1.0,149,117,124,122,123
2025-02-26 14:10:56.084,-333.0,-939.0,104.0,27.0,4.0,2.0,152,118,124,124,124
2025-02-26 14:10:56.086,-328.0,-925.0,106.0,25.0,4.0,2.0,152,119,126,125,123
2025-02-26 14:10:56.092,-319.0,-929.0,120.0,27.0,5.0,2.0,150,120,125,122,124
2025-02-26 14:10:56.097,-322.0,-931.0,80.0,25.0,5.0,2.0,146,117,125,126,124
2025-02-26 14:10:56.105,-325.0,-953.0,111.0,18.0,4.0,2.0,153,121,127,127,126
2025-02-26 14:10:56.109,-317.0,-928.0,101.0,19.0,3.0,1.0,156,119,125,130,126
2025-02-26 14:10:56.111,-316.0,-929.0,91.0,14.0,2.0,0.0,152,120,127,125,124
2025-02-26 14:10:56.117,-313.0,-920.0,100.0,15.0,1.0,-1.0,152,119,130,125,127
2025-02-26 14:10:56.122,-332.0,-936.0,110.0,18.0,1.0,-1.0,153,120,127,125,126
2025-02-26 14:10:56.129,-325.0,-914.0,106.0,19.0,1.0,-2.0,151,114,126,125,127
2025-02-26 14:10:56.133,-322.0,-902.0,87.0,20.0,-3.0,-2.0,152,118,123,125,125
2025-02-26 14:10:56.135,-332.0,-911.0,118.0,21.0,-2.0,-2.0,152,117,126,125,125
2025-02-26 14:10:56.145,-334.0,-891.0,89.0,22.0,-3.0,-4.0,150,115,125,124,125
2025-02-26 14:10:56.150,-322.0,-895.0,99.0,21.0,-6.0,-5.0,150,116,124,123,122
2025-02-26 14:10:56.154,-327.0,-886.0,129.0,18.0,-5.0,-6.0,148,116,127,122,122
2025-02-26 14:10:56.159,-326.0,-870.0,102.0,15.0,-8.0,-9.0,151,117,123,123,125
2025-02-26 14:10:56.164,-330.0,-864.0,130.0,15.0,-6.0,-10.0,153,120,126,126,127
2025-02-26 14:10:56.170,-343.0,-852.0,87.0,12.0,-8.0,-13.0,152,118,127,125,126
2025-02-26 14:10:56.175,-329.0,-847.0,139.0,10.0,-10.0,-14.0,152,120,125,125,126
2025-02-26 14:10:56.182,-341.0,-846.0,127.0,10.0,-11.0,-16.0,153,119,126,126,128
2025-02-26 14:10:56.184,-347.0,-846.0,104.0,5.0,-13.0,-18.0,152,120,126,125,126
2025-02-26 14:10:56.189,-332.0,-862.0,128.0,3.0,-14.0,-19.0,152,119,127,125,126
2025-02-26 14:10:56.195,-336.0,-881.0,136.0,4.0,-13.0,-19.0,151,119,125,125,126
2025-02-26 14:10:56.200,-335.0,-877.0,119.0,4.0,-13.0,-18.0,152,118,125,124,125
2025-02-26 14:10:56.208,-319.0,-888.0,136.0,-1.0,-12.0,-17.0,153,119,126,123,126
2025-02-26 14:10:56.211,-328.0,-902.0,127.0,-3.0,-10.0,-14.0,151,121,127,126,127
2025-02-26 14:10:56.220,-317.0,-917.0,144.0,-7.0,-6.0,-12.0,154,120,135,126,127
2025-02-26 14:10:56.224,-324.0,-933.0,139.0,-8.0,-7.0,-10.0,151,119,126,124,126
2025-02-26 14:10:56.228,-321.0,-950.0,147.0,-12.0,-8.0,-9.0,150,118,125,124,124
2025-02-26 14:10:56.236,-325.0,-945.0,150.0,-9.0,-7.0,-9.0,151,118,125,126,124
2025-02-26 14:10:56.240,-332.0,-961.0,154.0,-8.0,-7.0,-9.0,152,119,126,126,128
2025-02-26 14:10:56.244,-338.0,-954.0,163.0,-2.0,-11.0,-10.0,152,119,126,124,125
2025-02-26 14:10:56.249,-323.0,-969.0,189.0,1.0,-9.0,-10.0,152,117,124,122,124
2025-02-26 14:10:56.255,-328.0,-951.0,165.0,3.0,-6.0,-10.0,151,120,125,124,125
2025-02-26 14:10:56.261,-322.0,-946.0,184.0,14.0,-8.0,-11.0,151,120,126,125,126
2025-02-26 14:10:56.267,-318.0,-962.0,227.0,11.0,5.0,-12.0,151,119,125,124,126
2025-02-26 14:10:56.273,-301.0,-928.0,115.0,4.0,1.0,-13.0,153,119,127,125,125
2025-02-26 14:10:56.273,-320.0,-980.0,184.0,-2.0,1.0,-12.0,149,117,127,123,124
2025-02-26 14:10:56.279,-339.0,-972.0,111.0,-1.0,-2.0,-13.0,152,118,127,125,126
2025-02-26 14:10:56.285,-319.0,-969.0,109.0,-5.0,-10.0,-14.0,152,119,127,124,125
2025-02-26 14:10:56.293,-326.0,-959.0,165.0,-3.0,-5.0,-13.0,152,119,126,125,125
2025-02-26 14:10:56.297,-333.0,-949.0,188.0,4.0,1.0,-12.0,147,118,125,126,126
2025-02-26 14:10:56.302,-325.0,-955.0,179.0,18.0,3.0,-12.0,151,118,125,124,125
2025-02-26 14:10:56.309,-335.0,-967.0,160.0,21.0,2.0,-11.0,151,118,127,123,125
2025-02-26 14:10:56.312,-327.0,-976.0,174.0,20.0,1.0,-11.0,152,118,126,124,127
2025-02-26 14:10:56.316,-345.0,-970.0,177.0,27.0,-2.0,-11.0,151,122,125,126,124
2025-02-26 14:10:56.322,-357.0,-980.0,169.0,28.0,-4.0,-11.0,151,118,124,125,124
2025-02-26 14:10:56.330,-311.0,-954.0,149.0,29.0,-7.0,-11.0,150,116,124,121,124
2025-02-26 14:10:56.334,-326.0,-971.0,162.0,20.0,-8.0,-11.0,152,121,128,127,126
2025-02-26 14:10:56.338,-309.0,-962.0,184.0,19.0,-10.0,-11.0,151,120,127,124,124
2025-02-26 14:10:56.346,-295.0,-973.0,201.0,17.0,-8.0,-11.0,152,119,126,125,125
2025-02-26 14:10:56.350,-297.0,-963.0,210.0,11.0,-7.0,-11.0,151,118,124,122,123
2025-02-26 14:10:56.354,-292.0,-946.0,207.0,4.0,-4.0,-11.0,151,118,126,124,124
2025-02-26 14:10:56.360,-291.0,-962.0,186.0,3.0,-2.0,-11.0,150,118,125,124,125
2025-02-26 14:10:56.366,-279.0,-967.0,186.0,3.0,-3.0,-12.0,150,119,124,123,125
2025-02-26 14:10:56.371,-277.0,-982.0,162.0,1.0,-3.0,-13.0,150,117,124,122,122
2025-02-26 14:10:56.375,-279.0,-980.0,177.0,-5.0,-4.0,-14.0,152,119,127,124,124
2025-02-26 14:10:56.382,-282.0,-976.0,174.0,-3.0,-5.0,-14.0,152,119,126,124,124
2025-02-26 14:10:56.387,-280.0,-984.0,193.0,-9.0,-4.0,-14.0,151,124,126,124,129
2025-02-26 14:10:56.392,-289.0,-967.0,186.0,-9.0,-4.0,-14.0,150,117,124,124,125
2025-02-26 14:10:56.399,-283.0,-985.0,198.0,-10.0,-3.0,-14.0,151,118,130,124,124
2025-02-26 14:10:56.404,-274.0,-998.0,143.0,-8.0,-5.0,-14.0,150,118,125,126,125
2025-02-26 14:10:56.408,-299.0,-986.0,235.0,13.0,-14.0,-14.0,150,118,126,124,125
2025-02-26 14:10:56.412,-259.0,-989.0,380.0,19.0,8.0,-15.0,152,118,125,125,126
2025-02-26 14:10:56.419,-236.0,-974.0,205.0,23.0,12.0,-14.0,152,120,127,125,124
2025-02-26 14:10:56.424,-264.0,-1025.0,180.0,18.0,11.0,-12.0,150,118,125,128,124
2025-02-26 14:10:56.428,-276.0,-1033.0,181.0,15.0,10.0,-9.0,150,117,124,123,123
2025-02-26 14:10:56.436,-265.0,-1039.0,136.0,-2.0,2.0,-8.0,152,120,126,126,127
2025-02-26 14:10:56.440,-250.0,-1036.0,158.0,-9.0,1.0,-5.0,150,120,128,124,127
2025-02-26 14:10:56.444,-257.0,-1021.0,220.0,-8.0,7.0,-3.0,151,117,126,124,124
2025-02-26 14:10:56.450,-241.0,-1009.0,173.0,-10.0,9.0,-3.0,149,116,124,125,123
2025-02-26 14:10:56.456,-240.0,-1003.0,168.0,-3.0,9.0,-3.0,150,117,125,123,125
2025-02-26 14:10:56.461,-271.0,-1041.0,184.0,-1.0,7.0,-2.0,152,120,125,123,125
2025-02-26 14:10:56.466,-281.0,-1026.0,103.0,0.0,-1.0,-3.0,152,118,129,124,125
2025-02-26 14:10:56.473,-268.0,-1035.0,253.0,7.0,2.0,-2.0,150,118,125,124,124
2025-02-26 14:10:56.478,-255.0,-1004.0,173.0,5.0,5.0,-3.0,154,118,124,126,125
2025-02-26 14:10:56.482,-252.0,-1003.0,170.0,4.0,5.0,-3.0,151,120,125,125,126
2025-02-26 14:10:56.486,-281.0,-990.0,183.0,6.0,6.0,-3.0,150,119,123,124,125
2025-02-26 14:10:56.493,-262.0,-990.0,176.0,1.0,6.0,-3.0,150,117,124,125,124
2025-02-26 14:10:56.498,-253.0,-985.0,158.0,-8.0,3.0,-3.0,149,117,126,124,126
2025-02-26 14:10:56.501,-285.0,-985.0,166.0,-11.0,1.0,-3.0,149,120,127,125,126
2025-02-26 14:10:56.506,-256.0,-959.0,202.0,-9.0,2.0,-5.0,150,119,125,124,123
2025-02-26 14:10:56.514,-258.0,-960.0,179.0,-12.0,4.0,-5.0,152,117,124,124,125
2025-02-26 14:10:56.518,-271.0,-964.0,154.0,-11.0,3.0,-5.0,150,118,124,124,124
2025-02-26 14:10:56.522,-284.0,-964.0,160.0,-6.0,2.0,-5.0,151,119,126,125,124
2025-02-26 14:10:56.527,-280.0,-947.0,164.0,-4.0,-1.0,-5.0,150,118,125,123,125
2025-02-26 14:10:56.534,-281.0,-976.0,186.0,-2.0,0.0,-4.0,152,120,126,124,125
2025-02-26 14:10:56.538,-291.0,-965.0,122.0,-3.0,1.0,-4.0,149,119,124,123,123
2025-02-26 14:10:56.543,-278.0,-940.0,129.0,0.0,-2.0,-5.0,153,120,131,125,125
2025-02-26 14:10:56.548,-269.0,-959.0,165.0,1.0,0.0,-4.0,148,117,124,125,125
2025-02-26 14:10:56.555,-263.0,-964.0,172.0,-3.0,0.0,-4.0,152,119,126,126,126
2025-02-26 14:10:56.559,-256.0,-965.0,144.0,-5.0,-2.0,-3.0,151,119,125,125,126
2025-02-26 14:10:56.563,-252.0,-973.0,154.0,-10.0,-2.0,-3.0,155,119,126,125,126
2025-02-26 14:10:56.568,-246.0,-953.0,160.0,-9.0,-2.0,-4.0,151,118,125,124,125
2025-02-26 14:10:56.576,-244.0,-973.0,177.0,-10.0,-1.0,-5.0,149,119,126,126,126
2025-02-26 14:10:56.578,-245.0,-969.0,188.0,-10.0,1.0,-5.0,151,119,124,124,124
2025-02-26 14:10:56.584,-256.0,-980.0,145.0,-9.0,2.0,-5.0,150,119,125,125,126
2025-02-26 14:10:56.590,-245.0,-971.0,138.0,-8.0,-1.0,-5.0,150,119,126,125,126
2025-02-26 14:10:56.596,-265.0,-991.0,153.0,-5.0,-2.0,-6.0,150,119,126,125,125
2025-02-26 14:10:56.600,-252.0,-993.0,163.0,-6.0,-4.0,-7.0,150,119,125,125,126
2025-02-26 14:10:56.605,-231.0,-987.0,152.0,-2.0,-6.0,-7.0,152,120,129,124,126
2025-02-26 14:10:56.612,-250.0,-1042.0,169.0,-4.0,-2.0,-6.0,152,121,125,125,126
2025-02-26 14:10:56.617,-231.0,-982.0,158.0,-1.0,-1.0,-6.0,149,121,125,126,128
2025-02-26 14:10:56.620,-214.0,-1001.0,145.0,0.0,-1.0,-4.0,150,120,125,127,127
2025-02-26 14:10:56.627,-226.0,-997.0,163.0,0.0,1.0,-3.0,150,119,129,123,126
2025-02-26 14:10:56.633,-219.0,-1013.0,157.0,-3.0,1.0,-2.0,151,121,126,124,127
2025-02-26 14:10:56.637,-228.0,-1020.0,144.0,-4.0,0.0,0.0,150,120,127,127,129
2025-02-26 14:10:56.642,-244.0,-1015.0,154.0,-5.0,1.0,2.0,146,119,124,124,126
2025-02-26 14:10:56.649,-233.0,-1013.0,137.0,-10.0,4.0,2.0,152,122,126,125,127
2025-02-26 14:10:56.654,-237.0,-991.0,143.0,-7.0,1.0,3.0,152,123,128,127,130
2025-02-26 14:10:56.657,-237.0,-1002.0,148.0,-9.0,1.0,3.0,149,121,127,126,128
2025-02-26 14:10:56.662,-238.0,-993.0,122.0,-11.0,2.0,4.0,150,120,123,124,127
2025-02-26 14:10:56.670,-236.0,-996.0,133.0,-14.0,1.0,4.0,152,122,126,124,126
2025-02-26 14:10:56.674,-231.0,-985.0,137.0,-10.0,1.0,3.0,154,122,128,129,128
2025-02-26 14:10:56.678,-233.0,-991.0,143.0,-7.0,0.0,3.0,149,121,126,124,127
2025-02-26 14:10:56.683,-230.0,-996.0,121.0,-7.0,0.0,2.0,150,121,125,125,127
2025-02-26 14:10:56.690,-230.0,-994.0,128.0,-6.0,1.0,2.0,152,120,127,124,128
2025-02-26 14:10:56.693,-233.0,-987.0,125.0,-7.0,2.0,1.0,152,120,127,127,129
2025-02-26 14:10:56.698,-226.0,-987.0,155.0,-8.0,3.0,1.0,148,120,124,124,127
2025-02-26 14:10:56.703,-233.0,-989.0,124.0,-8.0,4.0,1.0,151,120,126,126,127
2025-02-26 14:10:56.710,-253.0,-1008.0,139.0,-11.0,5.0,2.0,144,122,127,125,128
2025-02-26 14:10:56.715,-261.0,-984.0,114.0,-10.0,3.0,2.0,152,123,128,127,129
2025-02-26 14:10:56.719,-259.0,-992.0,119.0,-8.0,2.0,4.0,149,120,126,124,126
2025-02-26 14:10:56.723,-273.0,-995.0,102.0,-5.0,0.0,4.0,151,122,132,126,128
2025-02-26 14:10:56.727,-264.0,-978.0,147.0,-3.0,0.0,4.0,155,121,125,125,127
2025-02-26 14:10:56.736,-268.0,-991.0,118.0,-5.0,-1.0,5.0,151,123,128,125,127
2025-02-26 14:10:56.739,-275.0,-996.0,110.0,-1.0,-2.0,5.0,148,120,126,126,126
2025-02-26 14:10:56.744,-281.0,-1016.0,101.0,-6.0,-5.0,6.0,151,122,128,125,129
2025-02-26 14:10:56.751,-261.0,-980.0,94.0,-8.0,-5.0,6.0,150,122,126,125,128
2025-02-26 14:10:56.753,-272.0,-1020.0,137.0,-1.0,-6.0,7.0,150,122,126,125,128
2025-02-26 14:10:56.760,-290.0,-1023.0,136.0,-3.0,-3.0,8.0,151,122,125,125,125
2025-02-26 14:10:56.765,-266.0,-994.0,115.0,-2.0,-3.0,9.0,151,127,127,125,129
2025-02-26 14:10:56.772,-277.0,-1015.0,97.0,-3.0,-7.0,11.0,150,122,126,123,128
2025-02-26 14:10:56.776,-254.0,-1000.0,158.0,-4.0,-7.0,11.0,158,121,124,130,126
2025-02-26 14:10:56.781,-244.0,-996.0,102.0,-4.0,-9.0,11.0,151,122,124,124,126
2025-02-26 14:10:56.784,-255.0,-1005.0,140.0,-7.0,-7.0,12.0,151,123,126,122,128
2025-02-26 14:10:56.792,-247.0,-1005.0,139.0,-4.0,-4.0,12.0,151,123,126,126,127
2025-02-26 14:10:56.797,-254.0,-1002.0,181.0,-1.0,-2.0,13.0,153,124,127,125,128
2025-02-26 14:10:56.801,-264.0,-1003.0,149.0,0.0,-4.0,15.0,151,121,125,125,127
2025-02-26 14:10:56.809,-245.0,-997.0,174.0,-7.0,0.0,16.0,148,121,124,123,126
2025-02-26 14:10:56.813,-265.0,-961.0,176.0,-1.0,-1.0,16.0,153,123,130,128,127
2025-02-26 14:10:56.818,-279.0,-990.0,208.0,4.0,-2.0,17.0,151,121,126,125,126
2025-02-26 14:10:56.821,-299.0,-1006.0,131.0,2.0,-2.0,18.0,149,121,125,126,127
2025-02-26 14:10:56.829,-273.0,-1001.0,196.0,-8.0,-9.0,17.0,149,121,124,123,127
2025-02-26 14:10:56.834,-311.0,-990.0,183.0,-4.0,-2.0,17.0,153,125,127,125,130
2025-02-26 14:10:56.838,-235.0,-988.0,164.0,-17.0,0.0,17.0,150,123,125,126,129
2025-02-26 14:10:56.845,-282.0,-976.0,205.0,-9.0,5.0,17.0,150,120,125,125,125
2025-02-26 14:10:56.850,-277.0,-969.0,120.0,-10.0,2.0,17.0,151,122,125,124,126
2025-02-26 14:10:56.854,-294.0,-981.0,181.0,-10.0,-2.0,18.0,154,124,126,128,129
2025-02-26 14:10:56.859,-305.0,-1001.0,155.0,-22.0,-4.0,19.0,151,122,127,126,128
2025-02-26 14:10:56.867,-279.0,-969.0,156.0,-26.0,-5.0,18.0,152,121,124,125,129
2025-02-26 14:10:56.868,-292.0,-980.0,173.0,-21.0,-4.0,19.0,151,123,126,125,127
2025-02-26 14:10:56.875,-271.0,-956.0,228.0,-24.0,4.0,18.0,151,122,126,126,127
2025-02-26 14:10:56.881,-266.0,-956.0,168.0,-20.0,7.0,18.0,153,124,126,128,128
2025-02-26 14:10:56.887,-297.0,-973.0,166.0,-21.0,6.0,18.0,151,123,131,126,128
2025-02-26 14:10:56.891,-299.0,-969.0,142.0,-21.0,4.0,17.0,150,122,123,124,127
2025-02-26 14:10:56.895,-300.0,-948.0,124.0,-21.0,3.0,17.0,151,122,126,125,126
2025-02-26 14:10:56.903,-302.0,-950.0,125.0,-17.0,2.0,17.0,153,125,126,125,128
2025-02-26 14:10:56.908,-312.0,-960.0,138.0,-14.0,1.0,16.0,150,120,122,125,127
2025-02-26 14:10:56.911,-326.0,-970.0,129.0,-12.0,0.0,15.0,152,122,127,126,128
2025-02-26 14:10:56.916,-321.0,-966.0,134.0,-10.0,0.0,15.0,151,122,125,124,127
2025-02-26 14:10:56.923,-328.0,-959.0,131.0,-10.0,0.0,15.0,149,120,125,123,127
2025-02-26 14:10:56.928,-327.0,-959.0,126.0,-13.0,-1.0,15.0,150,121,127,125,128
2025-02-26 14:10:56.930,-332.0,-941.0,132.0,-13.0,-1.0,15.0,153,122,127,127,129
2025-02-26 14:10:56.940,-314.0,-951.0,139.0,-13.0,2.0,15.0,151,122,125,126,127
2025-02-26 14:10:56.944,-329.0,-935.0,108.0,-10.0,3.0,15.0,149,118,126,126,127
2025-02-26 14:10:56.948,-314.0,-954.0,119.0,-14.0,0.0,14.0,151,122,124,127,130
2025-02-26 14:10:56.953,-310.0,-930.0,132.0,-14.0,2.0,14.0,153,123,127,127,129
2025-02-26 14:10:56.961,-319.0,-912.0,159.0,-11.0,9.0,13.0,151,122,127,126,128
2025-02-26 14:10:56.965,-317.0,-923.0,102.0,-13.0,8.0,12.0,152,120,125,128,128
2025-02-26 14:10:56.969,-309.0,-909.0,146.0,-19.0,8.0,13.0,153,121,126,125,127
2025-02-26 14:10:56.977,-325.0,-908.0,145.0,-19.0,10.0,13.0,149,121,127,126,129
2025-02-26 14:10:56.981,-313.0,-901.0,132.0,-19.0,8.0,13.0,151,123,127,129,129
2025-02-26 14:10:56.985,-320.0,-893.0,136.0,-19.0,9.0,13.0,149,120,126,124,127
2025-02-26 14:10:56.990,-322.0,-889.0,139.0,-19.0,16.0,13.0,150,120,124,125,127
2025-02-26 14:10:56.998,-314.0,-880.0,109.0,-15.0,16.0,13.0,152,121,127,128,128
2025-02-26 14:10:57.002,-317.0,-898.0,121.0,-11.0,15.0,13.0,150,121,127,127,129
2025-02-26 14:10:57.006,-323.0,-897.0,84.0,-10.0,13.0,13.0,150,119,127,125,128
2025-02-26 14:10:57.014,-340.0,-894.0,65.0,-10.0,11.0,12.0,151,121,126,127,129
2025-02-26 14:10:57.018,-324.0,-902.0,70.0,-10.0,6.0,11.0,150,119,126,125,126
2025-02-26 14:10:57.022,-330.0,-903.0,98.0,-7.0,8.0,10.0,153,123,126,124,128
2025-02-26 14:10:57.026,-337.0,-890.0,64.0,-7.0,9.0,9.0,152,119,126,126,127
2025-02-26 14:10:57.031,-331.0,-890.0,61.0,-9.0,8.0,8.0,152,120,124,128,128
2025-02-26 14:10:57.038,-334.0,-898.0,72.0,-8.0,7.0,7.0,152,123,126,125,129
2025-02-26 14:10:57.048,-333.0,-898.0,85.0,-8.0,7.0,7.0,152,119,124,127,129
2025-02-26 14:10:57.050,-342.0,-893.0,50.0,-7.0,6.0,6.0,150,120,125,124,127
2025-02-26 14:10:57.053,-342.0,-900.0,55.0,-9.0,6.0,6.0,153,123,127,129,129
2025-02-26 14:10:57.058,-355.0,-890.0,61.0,-7.0,6.0,5.0,151,121,127,126,127
2025-02-26 14:10:57.063,-349.0,-896.0,58.0,-6.0,6.0,4.0,151,119,124,125,127
2025-02-26 14:10:57.067,-356.0,-888.0,39.0,-5.0,5.0,3.0,152,121,126,125,128
2025-02-26 14:10:57.071,-356.0,-878.0,32.0,-1.0,5.0,2.0,155,123,127,129,130
2025-02-26 14:10:57.076,-368.0,-894.0,46.0,-1.0,4.0,1.0,150,120,124,126,126
2025-02-26 14:10:57.083,-361.0,-887.0,41.0,3.0,5.0,0.0,151,120,126,125,127
2025-02-26 14:10:57.087,-381.0,-892.0,39.0,5.0,4.0,0.0,151,122,126,127,129
2025-02-26 14:10:57.092,-379.0,-892.0,34.0,6.0,5.0,1.0,153,123,125,125,128
2025-02-26 14:10:57.096,-371.0,-901.0,31.0,7.0,3.0,0.0,153,120,126,128,128
2025-02-26 14:10:57.100,-365.0,-897.0,41.0,6.0,2.0,1.0,152,122,126,126,128
2025-02-26 14:10:57.108,-372.0,-907.0,51.0,7.0,2.0,2.0,150,119,125,125,126
2025-02-26 14:10:57.112,-369.0,-904.0,41.0,6.0,3.0,3.0,153,121,127,127,129
2025-02-26 14:10:57.116,-370.0,-905.0,44.0,6.0,3.0,2.0,151,121,127,127,130
2025-02-26 14:10:57.121,-369.0,-909.0,72.0,7.0,4.0,3.0,153,120,124,124,126
2025-02-26 14:10:57.124,-374.0,-902.0,50.0,10.0,2.0,2.0,152,122,126,127,128
2025-02-26 14:10:57.133,-372.0,-896.0,43.0,11.0,2.0,2.0,152,123,129,127,128
2025-02-26 14:10:57.135,-367.0,-891.0,69.0,14.0,3.0,1.0,152,120,123,126,126
2025-02-26 14:10:57.141,-379.0,-880.0,85.0,19.0,1.0,0.0,152,120,127,126,129
2025-02-26 14:10:57.145,-383.0,-883.0,69.0,22.0,2.0,-1.0,152,120,125,126,127
2025-02-26 14:10:57.147,-391.0,-893.0,71.0,26.0,2.0,-2.0,151,119,126,125,127
2025-02-26 14:10:57.158,-388.0,-891.0,74.0,27.0,3.0,-3.0,151,121,126,126,127
2025-02-26 14:10:57.161,-398.0,-895.0,56.0,31.0,1.0,-5.0,152,121,124,128,128
2025-02-26 14:10:57.166,-387.0,-894.0,113.0,27.0,2.0,-6.0,151,119,125,126,126
2025-02-26 14:10:57.170,-358.0,-843.0,58.0,26.0,2.0,-8.0,151,121,126,128,127
2025-02-26 14:10:57.177,-388.0,-851.0,87.0,34.0,3.0,-8.0,152,120,124,126,128
2025-02-26 14:10:57.181,-389.0,-869.0,63.0,32.0,2.0,-9.0,152,120,125,124,128
2025-02-26 14:10:57.186,-376.0,-857.0,101.0,31.0,3.0,-9.0,152,120,127,123,127
2025-02-26 14:10:57.191,-402.0,-867.0,114.0,31.0,1.0,-9.0,151,121,125,127,128
2025-02-26 14:10:57.196,-392.0,-865.0,127.0,31.0,1.0,-10.0,151,121,125,126,129
2025-02-26 14:10:57.202,-398.0,-858.0,125.0,33.0,3.0,-12.0,151,120,124,125,127
2025-02-26 14:10:57.206,-400.0,-875.0,134.0,35.0,4.0,-14.0,151,119,126,126,129
2025-02-26 14:10:57.215,-404.0,-858.0,134.0,36.0,3.0,-16.0,150,120,125,125,128
2025-02-26 14:10:57.219,-367.0,-839.0,158.0,38.0,7.0,-19.0,152,120,128,125,128
2025-02-26 14:10:57.223,-385.0,-834.0,87.0,38.0,4.0,-22.0,153,121,128,127,128
2025-02-26 14:10:57.227,-370.0,-849.0,124.0,34.0,3.0,-26.0,150,119,124,125,127
2025-02-26 14:10:57.235,-379.0,-865.0,156.0,32.0,4.0,-27.0,152,120,125,126,128
2025-02-26 14:10:57.239,-378.0,-862.0,122.0,22.0,0.0,-29.0,153,120,125,127,128
2025-02-26 14:10:57.243,-365.0,-884.0,142.0,19.0,0.0,-30.0,154,120,125,126,128
2025-02-26 14:10:57.248,-370.0,-898.0,164.0,16.0,0.0,-30.0,150,121,125,126,128
2025-02-26 14:10:57.256,-360.0,-918.0,132.0,11.0,-1.0,-29.0,146,121,125,120,127
2025-02-26 14:10:57.260,-349.0,-937.0,179.0,10.0,-2.0,-29.0,151,121,126,124,127
2025-02-26 14:10:57.263,-355.0,-950.0,172.0,10.0,0.0,-27.0,151,120,129,126,128
2025-02-26 14:10:57.272,-339.0,-952.0,171.0,12.0,-1.0,-24.0,150,120,126,124,127
2025-02-26 14:10:57.275,-317.0,-974.0,182.0,12.0,0.0,-22.0,152,119,127,126,125
2025-02-26 14:10:57.281,-322.0,-976.0,153.0,15.0,0.0,-21.0,150,121,124,124,127
2025-02-26 14:10:57.285,-330.0,-980.0,128.0,15.0,-3.0,-19.0,151,122,126,126,128
2025-02-26 14:10:57.292,-308.0,-974.0,160.0,13.0,-1.0,-16.0,152,123,128,127,130
2025-02-26 14:10:57.297,-299.0,-979.0,185.0,15.0,2.0,-15.0,151,121,127,127,128
2025-02-26 14:10:57.300,-296.0,-980.0,164.0,15.0,1.0,-14.0,150,120,124,124,127
2025-02-26 14:10:57.309,-285.0,-988.0,196.0,13.0,2.0,-14.0,151,120,125,126,126
2025-02-26 14:10:57.313,-287.0,-990.0,187.0,15.0,3.0,-14.0,151,122,128,129,130
2025-02-26 14:10:57.317,-299.0,-1004.0,161.0,14.0,1.0,-14.0,152,122,128,125,127
2025-02-26 14:10:57.322,-292.0,-1006.0,181.0,16.0,1.0,-15.0,150,119,126,126,128
2025-02-26 14:10:57.330,-301.0,-1018.0,190.0,16.0,4.0,-15.0,150,119,123,125,126
2025-02-26 14:10:57.333,-289.0,-1012.0,168.0,15.0,5.0,-15.0,153,120,127,129,129
2025-02-26 14:10:57.338,-297.0,-1006.0,186.0,16.0,5.0,-15.0,151,120,127,126,129
2025-02-26 14:10:57.345,-301.0,-1025.0,177.0,18.0,6.0,-15.0,150,120,120,125,126
2025-02-26 14:10:57.349,-310.0,-1016.0,168.0,19.0,8.0,-15.0,150,122,125,127,127
2025-02-26 14:10:57.354,-313.0,-1028.0,120.0,16.0,5.0,-14.0,152,121,121,126,127
2025-02-26 14:10:57.362,-316.0,-1034.0,158.0,13.0,0.0,-12.0,150,119,126,128,128
2025-02-26 14:10:57.365,-313.0,-1042.0,183.0,14.0,-1.0,-11.0,151,120,125,128,128
2025-02-26 14:10:57.370,-298.0,-1041.0,165.0,13.0,-2.0,-9.0,152,122,127,128,128
2025-02-26 14:10:57.375,-285.0,-1030.0,175.0,10.0,-1.0,-8.0,149,119,126,127,127
2025-02-26 14:10:57.383,-289.0,-1033.0,195.0,8.0,0.0,-6.0,150,119,125,124,126
2025-02-26 14:10:57.387,-275.0,-1031.0,181.0,4.0,0.0,-6.0,151,120,125,125,128
2025-02-26 14:10:57.391,-254.0,-1047.0,191.0,-5.0,1.0,-4.0,153,123,127,127,129
2025-02-26 14:10:57.399,-260.0,-1034.0,226.0,-7.0,1.0,-3.0,149,120,126,126,126
2025-02-26 14:10:57.403,-262.0,-1026.0,166.0,-7.0,0.0,-3.0,150,119,125,125,126
2025-02-26 14:10:57.408,-255.0,-1045.0,153.0,-10.0,0.0,-2.0,151,120,126,126,127
2025-02-26 14:10:57.412,-274.0,-1046.0,163.0,-13.0,-2.0,-1.0,153,121,127,127,128
2025-02-26 14:10:57.419,-265.0,-1034.0,164.0,-13.0,-3.0,-1.0,151,120,126,126,127
2025-02-26 14:10:57.424,-270.0,-1040.0,191.0,-11.0,-2.0,1.0,155,118,123,126,127
2025-02-26 14:10:57.427,-287.0,-1038.0,162.0,-6.0,-3.0,2.0,150,119,125,125,124
2025-02-26 14:10:57.435,-286.0,-1037.0,156.0,-3.0,-3.0,4.0,150,122,126,130,128
2025-02-26 14:10:57.440,-285.0,-1035.0,183.0,-4.0,-2.0,5.0,151,120,126,128,128
2025-02-26 14:10:57.444,-294.0,-1029.0,174.0,-3.0,-3.0,7.0,151,120,125,122,127
2025-02-26 14:10:57.448,-297.0,-1031.0,166.0,0.0,-3.0,8.0,150,119,127,124,125
2025-02-26 14:10:57.456,-292.0,-1021.0,169.0,0.0,-4.0,8.0,153,119,126,126,126
2025-02-26 14:10:57.461,-285.0,-1013.0,175.0,-4.0,-3.0,9.0,150,121,127,127,127
2025-02-26 14:10:57.462,-281.0,-984.0,180.0,-1.0,-3.0,9.0,153,119,125,125,127
2025-02-26 14:10:57.469,-285.0,-984.0,177.0,1.0,-3.0,8.0,151,119,123,125,126
2025-02-26 14:10:57.475,-274.0,-973.0,186.0,0.0,-3.0,7.0,152,121,125,125,128
2025-02-26 14:10:57.480,-280.0,-969.0,199.0,1.0,-1.0,7.0,149,120,127,127,129
2025-02-26 14:10:57.485,-278.0,-966.0,193.0,0.0,-1.0,6.0,151,119,124,124,126
2025-02-26 14:10:57.490,-268.0,-957.0,197.0,2.0,0.0,5.0,151,120,126,126,128
2025-02-26 14:10:57.497,-279.0,-961.0,181.0,1.0,0.0,5.0,151,121,125,126,129
2025-02-26 14:10:57.501,-277.0,-952.0,164.0,0.0,-3.0,5.0,150,119,125,124,127
2025-02-26 14:10:57.506,-289.0,-968.0,186.0,-2.0,-1.0,5.0,149,119,124,125,126
2025-02-26 14:10:57.509,-291.0,-955.0,203.0,-5.0,-1.0,6.0,153,122,127,128,129
2025-02-26 14:10:57.516,-303.0,-969.0,162.0,-8.0,-3.0,6.0,152,121,127,127,127
2025-02-26 14:10:57.521,-297.0,-974.0,172.0,-9.0,-3.0,6.0,151,119,124,125,125
2025-02-26 14:10:57.526,-308.0,-980.0,166.0,-18.0,-5.0,6.0,151,119,126,126,126
2025-02-26 14:10:57.530,-300.0,-972.0,173.0,-18.0,-7.0,6.0,152,123,126,126,129
2025-02-26 14:10:57.538,-300.0,-961.0,188.0,-14.0,-6.0,6.0,153,120,125,125,128
2025-02-26 14:10:57.542,-306.0,-958.0,164.0,-14.0,-7.0,5.0,151,119,125,125,127
2025-02-26 14:10:57.547,-305.0,-966.0,160.0,-11.0,-9.0,5.0,149,120,123,123,126
2025-02-26 14:10:57.551,-319.0,-966.0,167.0,-6.0,-12.0,5.0,151,120,125,127,129
2025-02-26 14:10:57.559,-304.0,-974.0,174.0,-4.0,-14.0,6.0,151,121,126,126,129
2025-02-26 14:10:57.563,-299.0,-976.0,172.0,-5.0,-17.0,7.0,150,118,125,126,127
2025-02-26 14:10:57.568,-312.0,-980.0,203.0,-5.0,-16.0,9.0,149,119,124,125,126
2025-02-26 14:10:57.575,-293.0,-983.0,207.0,-7.0,-13.0,10.0,147,118,124,122,126
2025-02-26 14:10:57.578,-289.0,-967.0,205.0,-6.0,-12.0,11.0,151,120,127,125,128
2025-02-26 14:10:57.584,-283.0,-974.0,213.0,-8.0,-8.0,13.0,154,120,126,128,127
2025-02-26 14:10:57.588,-272.0,-955.0,211.0,-9.0,-4.0,14.0,149,120,127,126,127
2025-02-26 14:10:57.596,-269.0,-959.0,201.0,-9.0,-4.0,15.0,151,119,124,125,127
2025-02-26 14:10:57.599,-276.0,-966.0,220.0,-8.0,-3.0,15.0,152,121,126,125,127
2025-02-26 14:10:57.604,-293.0,-940.0,200.0,-7.0,-2.0,15.0,151,120,125,125,128
2025-02-26 14:10:57.612,-300.0,-941.0,200.0,-6.0,-3.0,14.0,152,121,126,125,129
2025-02-26 14:10:57.615,-301.0,-930.0,203.0,-9.0,-1.0,14.0,150,119,125,125,126
2025-02-26 14:10:57.620,-304.0,-925.0,201.0,-8.0,-2.0,14.0,149,119,124,125,127
2025-02-26 14:10:57.625,-311.0,-925.0,168.0,-8.0,-3.0,13.0,151,120,128,127,127
2025-02-26 14:10:57.632,-313.0,-909.0,205.0,-7.0,-3.0,13.0,152,122,126,128,128
2025-02-26 14:10:57.636,-317.0,-913.0,216.0,-5.0,-1.0,13.0,150,119,125,126,126
2025-02-26 14:10:57.641,-324.0,-894.0,221.0,-4.0,0.0,13.0,150,120,125,126,126
2025-02-26 14:10:57.643,-314.0,-903.0,189.0,-7.0,0.0,13.0,150,121,125,125,127
2025-02-26 14:10:57.653,-334.0,-893.0,192.0,-5.0,-2.0,12.0,152,121,127,126,127
2025-02-26 14:10:57.657,-329.0,-900.0,182.0,-9.0,-3.0,11.0,149,119,125,126,127
2025-02-26 14:10:57.661,-332.0,-893.0,188.0,-13.0,-3.0,11.0,150,118,124,125,128
2025-02-26 14:10:57.670,-334.0,-897.0,177.0,-15.0,-4.0,10.0,151,121,126,126,126
2025-02-26 14:10:57.673,-326.0,-898.0,202.0,-19.0,-5.0,9.0,151,125,126,126,133
2025-02-26 14:10:57.677,-318.0,-906.0,178.0,-18.0,-7.0,8.0,149,119,125,125,127
2025-02-26 14:10:57.680,-324.0,-922.0,207.0,-18.0,-5.0,8.0,150,113,125,122,123
2025-02-26 14:10:57.690,-317.0,-917.0,193.0,-16.0,-4.0,8.0,150,119,125,123,127
2025-02-26 14:10:57.693,-327.0,-934.0,197.0,-14.0,-4.0,8.0,151,126,125,124,129
2025-02-26 14:10:57.699,-336.0,-932.0,209.0,-14.0,-3.0,8.0,151,121,125,126,128
2025-02-26 14:10:57.705,-339.0,-938.0,168.0,-13.0,-4.0,10.0,149,121,123,125,126
2025-02-26 14:10:57.710,-340.0,-937.0,172.0,-16.0,-6.0,10.0,150,118,127,125,127
2025-02-26 14:10:57.715,-340.0,-928.0,181.0,-16.0,-5.0,11.0,152,121,126,125,128
2025-02-26 14:10:57.719,-338.0,-925.0,164.0,-18.0,-4.0,13.0,151,120,126,125,127
2025-02-26 14:10:57.726,-324.0,-911.0,180.0,-18.0,-3.0,13.0,151,119,125,125,127
2025-02-26 14:10:57.731,-326.0,-906.0,170.0,-17.0,-2.0,14.0,150,121,125,127,127
2025-02-26 14:10:57.735,-327.0,-910.0,164.0,-18.0,-5.0,14.0,150,121,124,125,126
2025-02-26 14:10:57.743,-329.0,-905.0,187.0,-17.0,-5.0,14.0,150,120,124,126,128
2025-02-26 14:10:57.747,-334.0,-904.0,179.0,-16.0,-5.0,15.0,151,122,124,127,128
2025-02-26 14:10:57.751,-334.0,-917.0,174.0,-17.0,-4.0,16.0,153,122,125,126,128
2025-02-26 14:10:57.759,-337.0,-932.0,195.0,-14.0,-2.0,16.0,150,118,123,124,128
2025-02-26 14:10:57.763,-356.0,-928.0,157.0,-15.0,-2.0,16.0,149,118,129,124,125
2025-02-26 14:10:57.765,-346.0,-923.0,151.0,-14.0,-1.0,17.0,151,120,126,126,127
2025-02-26 14:10:57.772,-353.0,-928.0,152.0,-15.0,0.0,16.0,151,119,124,125,122
2025-02-26 14:10:57.777,-359.0,-913.0,138.0,-14.0,1.0,15.0,151,120,125,126,127
2025-02-26 14:10:57.783,-358.0,-910.0,134.0,-14.0,1.0,14.0,148,118,124,123,123
2025-02-26 14:10:57.788,-357.0,-903.0,139.0,-13.0,1.0,14.0,150,120,125,126,128
2025-02-26 14:10:57.793,-363.0,-901.0,136.0,-12.0,1.0,12.0,151,122,126,126,128
2025-02-26 14:10:57.800,-361.0,-893.0,140.0,-11.0,1.0,10.0,149,119,124,127,127
2025-02-26 14:10:57.805,-359.0,-888.0,126.0,-9.0,2.0,8.0,151,120,123,125,126
2025-02-26 14:10:57.808,-351.0,-881.0,134.0,-10.0,3.0,7.0,151,121,127,125,129
2025-02-26 14:10:57.813,-355.0,-872.0,128.0,-7.0,2.0,5.0,151,122,125,125,127
2025-02-26 14:10:57.820,-361.0,-877.0,124.0,-7.0,4.0,2.0,150,119,124,123,128
2025-02-26 14:10:57.825,-361.0,-867.0,101.0,-6.0,4.0,0.0,150,120,124,123,126
2025-02-26 14:10:57.829,-371.0,-882.0,108.0,-6.0,5.0,-1.0,151,123,126,127,130
2025-02-26 14:10:57.833,-376.0,-885.0,117.0,-6.0,5.0,-4.0,149,123,125,126,127
2025-02-26 14:10:57.841,-373.0,-881.0,130.0,-5.0,5.0,-5.0,150,119,124,124,127
2025-02-26 14:10:57.845,-394.0,-908.0,79.0,-5.0,6.0,-5.0,148,119,128,123,126
2025-02-26 14:10:57.849,-373.0,-917.0,77.0,-5.0,5.0,-6.0,154,124,126,127,130
2025-02-26 14:10:57.854,-390.0,-927.0,81.0,-4.0,3.0,-5.0,151,120,125,127,127
2025-02-26 14:10:57.862,-375.0,-916.0,107.0,-7.0,4.0,-5.0,149,117,123,122,127
2025-02-26 14:10:57.865,-368.0,-913.0,77.0,-6.0,2.0,-4.0,150,120,125,124,128
2025-02-26 14:10:57.871,-367.0,-933.0,111.0,-8.0,3.0,-3.0,151,122,127,128,131
2025-02-26 14:10:57.874,-359.0,-923.0,95.0,-5.0,1.0,-3.0,149,121,124,125,127
2025-02-26 14:10:57.882,-367.0,-932.0,78.0,-6.0,0.0,-4.0,149,120,124,124,127
2025-02-26 14:10:57.886,-360.0,-932.0,84.0,-7.0,1.0,-4.0,149,121,126,125,127
2025-02-26 14:10:57.891,-366.0,-925.0,73.0,-7.0,0.0,-5.0,150,122,125,124,126
2025-02-26 14:10:57.895,-376.0,-933.0,69.0,-7.0,-1.0,-5.0,148,120,124,125,126
2025-02-26 14:10:57.903,-370.0,-929.0,75.0,-9.0,-2.0,-5.0,151,123,124,125,128
2025-02-26 14:10:57.905,-383.0,-934.0,70.0,-9.0,-2.0,-6.0,150,122,125,125,128
2025-02-26 14:10:57.910,-378.0,-933.0,77.0,-9.0,-2.0,-7.0,152,121,124,127,130
2025-02-26 14:10:57.916,-381.0,-939.0,75.0,-7.0,-3.0,-7.0,150,119,124,124,126
2025-02-26 14:10:57.922,-378.0,-937.0,79.0,-6.0,-3.0,-8.0,151,120,124,125,127
2025-02-26 14:10:57.927,-377.0,-942.0,75.0,-5.0,-2.0,-8.0,150,120,124,125,128
2025-02-26 14:10:57.932,-360.0,-944.0,83.0,-6.0,-1.0,-7.0,150,121,124,124,128
2025-02-26 14:10:57.937,-350.0,-938.0,74.0,-4.0,-2.0,-7.0,150,120,123,125,127
2025-02-26 14:10:57.944,-353.0,-957.0,85.0,-5.0,-1.0,-7.0,150,122,130,124,128
2025-02-26 14:10:57.945,-344.0,-939.0,85.0,-4.0,0.0,-6.0,151,122,125,126,129
2025-02-26 14:10:57.952,-351.0,-950.0,89.0,-4.0,1.0,-3.0,152,121,126,125,128
2025-02-26 14:10:57.956,-354.0,-958.0,88.0,-3.0,1.0,-3.0,148,120,124,124,127
2025-02-26 14:10:57.964,-357.0,-959.0,86.0,-1.0,1.0,-1.0,150,121,125,125,128
2025-02-26 14:10:57.968,-359.0,-963.0,71.0,-1.0,0.0,1.0,150,122,125,125,130
2025-02-26 14:10:57.972,-359.0,-960.0,89.0,-1.0,0.0,2.0,152,121,123,122,127
2025-02-26 14:10:57.976,-359.0,-957.0,90.0,1.0,0.0,2.0,151,121,124,125,127
2025-02-26 14:10:57.980,-349.0,-945.0,107.0,1.0,-1.0,2.0,150,123,125,125,127
2025-02-26 14:10:57.989,-350.0,-937.0,114.0,1.0,0.0,2.0,148,120,123,123,127
2025-02-26 14:10:57.993,-348.0,-929.0,109.0,2.0,-1.0,1.0,152,122,125,129,127
2025-02-26 14:10:57.994,-347.0,-922.0,128.0,1.0,1.0,1.0,149,121,126,125,128
2025-02-26 14:10:58.002,-352.0,-915.0,106.0,2.0,0.0,0.0,149,123,124,123,129
2025-02-26 14:10:58.006,-353.0,-917.0,109.0,1.0,1.0,0.0,150,122,125,126,128
2025-02-26 14:10:58.014,-361.0,-909.0,105.0,2.0,2.0,-1.0,151,126,125,126,124
2025-02-26 14:10:58.018,-369.0,-913.0,102.0,3.0,1.0,-1.0,149,120,124,124,125
2025-02-26 14:10:58.022,-368.0,-910.0,99.0,3.0,2.0,-1.0,146,120,123,126,125
2025-02-26 14:10:58.027,-371.0,-907.0,81.0,4.0,0.0,-2.0,147,118,124,122,125
2025-02-26 14:10:58.034,-368.0,-904.0,93.0,5.0,-1.0,-3.0,150,121,121,124,125
2025-02-26 14:10:58.038,-366.0,-908.0,103.0,5.0,-2.0,-4.0,148,120,123,123,127
2025-02-26 14:10:58.042,-360.0,-913.0,113.0,5.0,-3.0,-5.0,150,119,124,124,127
2025-02-26 14:10:58.047,-357.0,-902.0,125.0,6.0,-3.0,-6.0,151,119,124,124,126
2025-02-26 14:10:58.055,-360.0,-907.0,109.0,7.0,-4.0,-6.0,149,120,124,124,125
2025-02-26 14:10:58.059,-353.0,-904.0,123.0,5.0,-4.0,-6.0,149,121,125,125,126
2025-02-26 14:10:58.063,-351.0,-885.0,125.0,5.0,-4.0,-6.0,149,122,125,124,125
2025-02-26 14:10:58.067,-350.0,-909.0,136.0,3.0,-3.0,-7.0,150,120,125,122,126
2025-02-26 14:10:58.075,-356.0,-921.0,144.0,1.0,-3.0,-8.0,149,121,123,123,125
2025-02-26 14:10:58.079,-356.0,-929.0,135.0,1.0,-1.0,-8.0,147,122,124,123,126
2025-02-26 14:10:58.083,-367.0,-957.0,137.0,1.0,1.0,-8.0,149,119,124,124,126
2025-02-26 14:10:58.088,-350.0,-945.0,122.0,1.0,2.0,-10.0,151,120,125,126,128
2025-02-26 14:10:58.096,-356.0,-932.0,132.0,3.0,2.0,-11.0,150,120,123,123,125
2025-02-26 14:10:58.099,-353.0,-932.0,125.0,6.0,2.0,-11.0,150,122,125,124,127
2025-02-26 14:10:58.104,-350.0,-932.0,118.0,7.0,3.0,-12.0,149,120,123,124,126
2025-02-26 14:10:58.112,-345.0,-924.0,117.0,8.0,3.0,-12.0,151,122,127,125,128
2025-02-26 14:10:58.116,-345.0,-918.0,101.0,10.0,3.0,-13.0,149,120,123,125,127
2025-02-26 14:10:58.120,-348.0,-927.0,116.0,10.0,3.0,-13.0,150,120,124,123,125
2025-02-26 14:10:58.125,-342.0,-923.0,114.0,11.0,3.0,-14.0,150,121,125,125,124
2025-02-26 14:10:58.132,-341.0,-931.0,121.0,12.0,3.0,-15.0,149,123,124,124,126
2025-02-26 14:10:58.136,-345.0,-939.0,122.0,12.0,2.0,-17.0,150,121,124,123,125
2025-02-26 14:10:58.141,-330.0,-942.0,132.0,12.0,2.0,-18.0,148,122,125,124,125
2025-02-26 14:10:58.145,-331.0,-953.0,137.0,14.0,1.0,-19.0,149,121,123,125,127
2025-02-26 14:10:58.153,-309.0,-972.0,160.0,13.0,1.0,-20.0,149,122,124,127,126
2025-02-26 14:10:58.157,-297.0,-966.0,138.0,13.0,1.0,-20.0,150,122,126,123,124
2025-02-26 14:10:58.162,-292.0,-982.0,150.0,14.0,0.0,-19.0,149,120,124,124,128
2025-02-26 14:10:58.169,-295.0,-979.0,157.0,14.0,2.0,-16.0,149,120,123,125,126
2025-02-26 14:10:58.173,-307.0,-986.0,146.0,13.0,2.0,-12.0,149,124,125,124,125
2025-02-26 14:10:58.177,-304.0,-1001.0,148.0,12.0,1.0,-8.0,150,121,124,127,125
2025-02-26 14:10:58.182,-308.0,-1010.0,166.0,12.0,1.0,-5.0,147,120,121,122,125
2025-02-26 14:10:58.190,-309.0,-1005.0,161.0,12.0,-1.0,-4.0,149,121,123,124,127
2025-02-26 14:10:58.194,-306.0,-1011.0,156.0,11.0,0.0,-2.0,149,123,127,125,129
2025-02-26 14:10:58.197,-325.0,-1010.0,147.0,12.0,-1.0,0.0,149,122,123,123,127
2025-02-26 14:10:58.202,-314.0,-993.0,149.0,13.0,-1.0,0.0,149,120,125,124,126
2025-02-26 14:10:58.207,-313.0,-983.0,156.0,13.0,-1.0,-1.0,149,120,124,127,128
2025-02-26 14:10:58.214,-313.0,-977.0,158.0,12.0,-1.0,-1.0,151,122,125,125,127
2025-02-26 14:10:58.219,-326.0,-969.0,176.0,12.0,0.0,-2.0,148,122,124,125,127
2025-02-26 14:10:58.225,-331.0,-957.0,163.0,13.0,1.0,-3.0,149,121,125,125,124
2025-02-26 14:10:58.231,-327.0,-950.0,154.0,13.0,1.0,-3.0,148,121,123,124,127
2025-02-26 14:10:58.235,-333.0,-940.0,155.0,13.0,0.0,-4.0,149,121,124,124,127
2025-02-26 14:10:58.238,-331.0,-928.0,152.0,13.0,-2.0,-5.0,148,121,124,124,126
2025-02-26 14:10:58.246,-327.0,-922.0,159.0,14.0,-2.0,-6.0,148,122,123,123,125
2025-02-26 14:10:58.251,-331.0,-921.0,154.0,15.0,-2.0,-6.0,149,121,124,121,125
2025-02-26 14:10:58.255,-343.0,-917.0,154.0,17.0,-3.0,-7.0,151,121,124,124,127
2025-02-26 14:10:58.256,-341.0,-912.0,166.0,17.0,-3.0,-7.0,149,121,124,124,126
2025-02-26 14:10:58.267,-343.0,-898.0,164.0,19.0,-2.0,-6.0,150,121,123,124,125
2025-02-26 14:10:58.271,-342.0,-900.0,156.0,18.0,-4.0,-5.0,149,120,126,123,127
2025-02-26 14:10:58.276,-352.0,-903.0,182.0,16.0,-4.0,-5.0,151,121,126,126,127
2025-02-26 14:10:58.284,-358.0,-914.0,169.0,15.0,-4.0,-4.0,149,120,124,123,126
2025-02-26 14:10:58.288,-361.0,-912.0,161.0,14.0,-4.0,-3.0,148,120,123,125,126
2025-02-26 14:10:58.292,-365.0,-913.0,158.0,11.0,-4.0,-3.0,150,122,122,122,123
2025-02-26 14:10:58.297,-363.0,-914.0,176.0,8.0,-4.0,-4.0,149,122,125,125,128
2025-02-26 14:10:58.304,-363.0,-908.0,163.0,8.0,-5.0,-5.0,149,121,125,124,127
2025-02-26 14:10:58.308,-362.0,-911.0,161.0,7.0,-6.0,-6.0,151,121,123,124,127
2025-02-26 14:10:58.313,-365.0,-903.0,169.0,5.0,-6.0,-6.0,149,120,123,124,126
2025-02-26 14:10:58.317,-359.0,-896.0,187.0,5.0,-6.0,-7.0,148,122,125,123,126
2025-02-26 14:10:58.325,-353.0,-900.0,189.0,5.0,-6.0,-8.0,150,121,124,124,126
2025-02-26 14:10:58.329,-344.0,-906.0,172.0,5.0,-7.0,-8.0,151,120,123,126,126
2025-02-26 14:10:58.333,-329.0,-898.0,182.0,4.0,-7.0,-8.0,149,120,124,124,126
2025-02-26 14:10:58.337,-311.0,-891.0,189.0,3.0,-6.0,-7.0,149,121,124,124,126
2025-02-26 14:10:58.345,-303.0,-898.0,191.0,3.0,-5.0,-7.0,148,119,123,124,126
2025-02-26 14:10:58.349,-304.0,-900.0,196.0,3.0,-4.0,-7.0,150,122,126,126,130
2025-02-26 14:10:58.354,-310.0,-916.0,192.0,4.0,-4.0,-7.0,148,121,123,125,126
2025-02-26 14:10:58.358,-307.0,-919.0,191.0,6.0,-3.0,-7.0,149,124,124,124,126
2025-02-26 14:10:58.365,-312.0,-933.0,193.0,6.0,-2.0,-7.0,149,121,124,124,126
2025-02-26 14:10:58.369,-308.0,-942.0,190.0,7.0,-2.0,-8.0,149,120,123,123,128
2025-02-26 14:10:58.374,-312.0,-947.0,199.0,10.0,-1.0,-7.0,149,120,124,123,125
2025-02-26 14:10:58.378,-309.0,-954.0,186.0,10.0,-1.0,-7.0,150,121,124,124,126
2025-02-26 14:10:58.387,-306.0,-964.0,190.0,10.0,-1.0,-7.0,149,121,123,120,126
2025-02-26 14:10:58.391,-308.0,-970.0,196.0,10.0,-1.0,-8.0,149,120,123,124,128
2025-02-26 14:10:58.395,-299.0,-971.0,194.0,10.0,-1.0,-8.0,149,121,124,123,127
2025-02-26 14:10:58.403,-279.0,-975.0,204.0,10.0,-1.0,-8.0,153,123,124,121,125
2025-02-26 14:10:58.407,-272.0,-981.0,213.0,10.0,0.0,-7.0,150,122,125,126,126
2025-02-26 14:10:58.411,-275.0,-992.0,214.0,9.0,2.0,-7.0,155,122,124,128,126
2025-02-26 14:10:58.415,-277.0,-991.0,213.0,8.0,2.0,-7.0,149,121,124,124,126
2025-02-26 14:10:58.423,-284.0,-1002.0,223.0,6.0,3.0,-6.0,148,121,119,123,128
2025-02-26 14:10:58.427,-293.0,-1014.0,225.0,4.0,3.0,-5.0,150,122,121,123,127
2025-02-26 14:10:58.431,-295.0,-1022.0,225.0,2.0,3.0,-4.0,149,120,122,124,126
2025-02-26 14:10:58.435,-293.0,-1026.0,240.0,-1.0,3.0,-3.0,145,120,123,123,127
2025-02-26 14:10:58.443,-300.0,-1032.0,244.0,-4.0,4.0,-2.0,150,121,123,124,126
2025-02-26 14:10:58.447,-302.0,-1045.0,244.0,-5.0,5.0,0.0,149,121,124,124,127
2025-02-26 14:10:58.452,-295.0,-1064.0,235.0,-7.0,5.0,1.0,148,119,123,125,126
2025-02-26 14:10:58.456,-286.0,-1059.0,247.0,-10.0,7.0,2.0,148,119,122,124,127
2025-02-26 14:10:58.463,-283.0,-1069.0,249.0,-11.0,8.0,4.0,148,120,123,124,126
2025-02-26 14:10:58.467,-268.0,-1093.0,256.0,-13.0,9.0,7.0,149,121,126,126,129
2025-02-26 14:10:58.472,-254.0,-1101.0,258.0,-16.0,10.0,9.0,150,119,122,124,126
2025-02-26 14:10:58.480,-260.0,-1111.0,265.0,-19.0,12.0,11.0,149,120,123,123,126
2025-02-26 14:10:58.484,-252.0,-1116.0,257.0,-22.0,14.0,12.0,150,121,124,125,127
2025-02-26 14:10:58.488,-263.0,-1113.0,257.0,-23.0,14.0,14.0,151,121,127,131,127
2025-02-26 14:10:58.497,-265.0,-1116.0,229.0,-29.0,15.0,16.0,149,120,124,124,127
2025-02-26 14:10:58.501,-271.0,-1121.0,236.0,-31.0,15.0,17.0,150,120,122,123,126
2025-02-26 14:10:58.505,-281.0,-1125.0,223.0,-32.0,16.0,18.0,148,119,123,124,126
2025-02-26 14:10:58.513,-290.0,-1107.0,207.0,-35.0,18.0,19.0,151,118,122,125,126
2025-02-26 14:10:58.517,-299.0,-1107.0,186.0,-36.0,17.0,20.0,148,119,123,124,126
2025-02-26 14:10:58.522,-309.0,-1103.0,189.0,-36.0,17.0,21.0,150,119,125,124,128
2025-02-26 14:10:58.526,-322.0,-1088.0,186.0,-37.0,17.0,23.0,148,119,125,123,127
2025-02-26 14:10:58.534,-328.0,-1078.0,166.0,-42.0,18.0,24.0,149,119,124,125,127
2025-02-26 14:10:58.538,-334.0,-1070.0,185.0,-40.0,18.0,25.0,147,119,124,124,125
2025-02-26 14:10:58.542,-340.0,-1063.0,176.0,-42.0,19.0,26.0,147,120,122,122,126
2025-02-26 14:10:58.550,-340.0,-1048.0,154.0,-42.0,20.0,27.0,151,118,124,126,127
2025-02-26 14:10:58.553,-359.0,-1037.0,158.0,-41.0,21.0,28.0,148,117,122,126,129
2025-02-26 14:10:58.558,-348.0,-1030.0,140.0,-42.0,21.0,28.0,150,117,122,123,124
2025-02-26 14:10:58.566,-358.0,-1029.0,152.0,-40.0,21.0,29.0,149,118,122,123,125
2025-02-26 14:10:58.571,-367.0,-1030.0,138.0,-38.0,20.0,29.0,148,116,122,124,126
2025-02-26 14:10:58.575,-363.0,-1016.0,124.0,-37.0,20.0,30.0,148,115,123,122,125
2025-02-26 14:10:58.583,-363.0,-1011.0,132.0,-35.0,22.0,30.0,149,116,123,125,128
2025-02-26 14:10:58.587,-376.0,-1016.0,127.0,-37.0,24.0,30.0,149,117,122,125,124
2025-02-26 14:10:58.590,-382.0,-1000.0,105.0,-38.0,25.0,31.0,148,114,123,124,127
2025-02-26 14:10:58.599,-386.0,-996.0,92.0,-40.0,25.0,31.0,148,113,120,124,125
2025-02-26 14:10:58.603,-385.0,-975.0,80.0,-45.0,26.0,31.0,148,112,120,123,125
2025-02-26 14:10:58.608,-368.0,-963.0,86.0,-47.0,27.0,31.0,152,114,121,126,127
2025-02-26 14:10:58.612,-384.0,-959.0,64.0,-50.0,26.0,32.0,149,114,120,123,126
2025-02-26 14:10:58.619,-390.0,-937.0,37.0,-52.0,25.0,33.0,148,112,119,123,125
2025-02-26 14:10:58.624,-383.0,-943.0,50.0,-53.0,25.0,35.0,147,110,117,121,121
2025-02-26 14:10:58.626,-370.0,-932.0,40.0,-58.0,27.0,37.0,149,111,120,125,124
2025-02-26 14:10:58.632,-382.0,-935.0,42.0,-56.0,26.0,40.0,149,111,117,123,122
2025-02-26 14:10:58.638,-377.0,-932.0,70.0,-56.0,27.0,43.0,148,109,114,122,121
2025-02-26 14:10:58.644,-376.0,-931.0,67.0,-51.0,28.0,46.0,147,105,113,120,119
2025-02-26 14:10:58.648,-397.0,-924.0,27.0,-52.0,29.0,48.0,147,108,112,120,119
2025-02-26 14:10:58.656,-404.0,-901.0,1.0,-51.0,29.0,49.0,150,106,114,122,123
2025-02-26 14:10:58.660,-443.0,-916.0,-1.0,-53.0,30.0,50.0,148,104,110,120,118
2025-02-26 14:10:58.665,-437.0,-912.0,12.0,-54.0,32.0,50.0,148,100,108,119,116
2025-02-26 14:10:58.669,-460.0,-898.0,14.0,-58.0,31.0,50.0,147,101,111,120,116
2025-02-26 14:10:58.677,-451.0,-874.0,-7.0,-60.0,32.0,49.0,149,103,109,118,115
2025-02-26 14:10:58.681,-442.0,-823.0,-26.0,-56.0,31.0,48.0,148,97,106,121,113
2025-02-26 14:10:58.686,-454.0,-852.0,-30.0,-51.0,31.0,47.0,148,94,107,115,111
2025-02-26 14:10:58.693,-475.0,-804.0,-48.0,-49.0,30.0,46.0,146,92,104,117,113
2025-02-26 14:10:58.697,-462.0,-779.0,-76.0,-41.0,30.0,44.0,149,90,102,116,108
2025-02-26 14:10:58.702,-431.0,-798.0,-35.0,-37.0,32.0,43.0,147,87,102,116,107
2025-02-26 14:10:58.706,-427.0,-761.0,-70.0,-34.0,31.0,41.0,149,86,101,115,105
2025-02-26 14:10:58.714,-427.0,-741.0,-46.0,-22.0,33.0,40.0,146,83,99,112,103
2025-02-26 14:10:58.718,-439.0,-744.0,-59.0,-17.0,35.0,39.0,146,81,97,113,103
2025-02-26 14:10:58.722,-460.0,-723.0,-84.0,-11.0,37.0,38.0,147,82,96,112,102
2025-02-26 14:10:58.727,-449.0,-676.0,-54.0,-9.0,42.0,35.0,149,80,96,111,102
2025-02-26 14:10:58.734,-462.0,-670.0,-105.0,1.0,43.0,33.0,147,76,94,109,98
2025-02-26 14:10:58.738,-489.0,-659.0,-82.0,8.0,44.0,31.0,148,75,93,108,96
2025-02-26 14:10:58.743,-459.0,-657.0,-57.0,12.0,49.0,29.0,147,73,90,105,94
2025-02-26 14:10:58.747,-485.0,-651.0,-71.0,21.0,51.0,27.0,148,72,92,108,94
2025-02-26 14:10:58.751,-515.0,-609.0,-83.0,35.0,57.0,26.0,146,71,88,105,94
2025-02-26 14:10:58.759,-559.0,-594.0,-98.0,39.0,63.0,24.0,146,66,86,104,91
2025-02-26 14:10:58.763,-563.0,-636.0,-102.0,50.0,68.0,24.0,147,64,82,102,87
2025-02-26 14:10:58.767,-548.0,-576.0,-144.0,59.0,73.0,23.0,149,65,85,102,87
2025-02-26 14:10:58.771,-590.0,-517.0,-122.0,72.0,78.0,21.0,148,63,80,100,85
2025-02-26 14:10:58.778,-605.0,-482.0,-80.0,79.0,82.0,24.0,145,60,78,98,81
2025-02-26 14:10:58.783,-588.0,-538.0,13.0,84.0,97.0,25.0,148,59,78,97,78
2025-02-26 14:10:58.787,-751.0,-615.0,-25.0,86.0,106.0,28.0,146,59,74,96,79
2025-02-26 14:10:58.792,-790.0,-446.0,-15.0,92.0,114.0,30.0,147,58,73,94,75
2025-02-26 14:10:58.796,-751.0,-467.0,-41.0,99.0,126.0,26.0,145,55,71,92,70
2025-02-26 14:10:58.804,-662.0,-433.0,-85.0,96.0,129.0,44.0,146,56,70,93,70
2025-02-26 14:10:58.808,-689.0,-110.0,380.0,83.0,156.0,41.0,146,56,71,88,65
2025-02-26 14:10:58.812,-651.0,-15.0,69.0,69.0,147.0,39.0,143,56,66,85,64
2025-02-26 14:10:58.817,-646.0,174.0,50.0,68.0,140.0,24.0,146,56,67,86,64
2025-02-26 14:10:58.820,-789.0,367.0,56.0,59.0,159.0,-1.0,143,54,66,81,61
2025-02-26 14:10:58.825,-809.0,525.0,-14.0,12.0,175.0,-16.0,144,56,65,81,61
2025-02-26 14:10:58.832,-766.0,787.0,-14.0,-36.0,219.0,-41.0,144,55,66,82,59
2025-02-26 14:10:58.837,-556.0,826.0,22.0,-54.0,244.0,-71.0,142,54,64,80,58
2025-02-26 14:10:58.841,-521.0,978.0,-247.0,-54.0,230.0,-86.0,139,53,63,80,57
2025-02-26 14:10:58.845,-365.0,1041.0,-420.0,9.0,178.0,-138.0,138,55,66,83,58
2025-02-26 14:10:58.853,-294.0,1540.0,-776.0,45.0,129.0,-207.0,129,55,64,82,58
2025-02-26 14:10:58.857,-261.0,2037.0,-1054.0,138.0,128.0,-286.0,125,53,64,83,57
2025-02-26 14:10:58.861,-75.0,2127.0,-1582.0,158.0,107.0,-325.0,124,52,61,82,57
2025-02-26 14:10:58.869,-101.0,1626.0,-1649.0,148.0,45.0,-380.0,122,55,64,88,59
2025-02-26 14:10:58.873,-980.0,1496.0,-1530.0,180.0,-11.0,-465.0,121,54,63,83,58
2025-02-26 14:10:58.877,-902.0,1237.0,-1326.0,214.0,-82.0,-515.0,119,53,63,82,58
2025-02-26 14:10:58.886,-816.0,990.0,-1333.0,291.0,-134.0,-567.0,118,56,65,80,56
2025-02-26 14:10:58.890,-389.0,1046.0,-1377.0,363.0,-231.0,-593.0,119,55,64,78,58
2025-02-26 14:10:58.894,377.0,885.0,-931.0,425.0,-302.0,-638.0,118,56,65,81,61
2025-02-26 14:10:58.898,778.0,826.0,-585.0,466.0,-324.0,-640.0,122,56,65,74,60
2025-02-26 14:10:58.905,1469.0,423.0,228.0,489.0,-359.0,-621.0,117,55,65,82,60
2025-02-26 14:10:58.910,1889.0,-13.0,1107.0,518.0,-349.0,-565.0,116,55,67,82,61
2025-02-26 14:10:58.914,2718.0,-339.0,2341.0,510.0,-286.0,-520.0,116,55,67,82,61
2025-02-26 14:10:58.923,3315.0,-1348.0,3488.0,484.0,-199.0,-416.0,118,57,71,81,61
2025-02-26 14:10:58.927,3877.0,-2584.0,3872.0,465.0,-72.0,-317.0,119,59,72,83,64
2025-02-26 14:10:58.931,4138.0,-3859.0,4098.0,468.0,52.0,-248.0,116,57,71,82,63
2025-02-26 14:10:58.939,3801.0,-5089.0,4293.0,486.0,165.0,-182.0,114,55,72,81,60
2025-02-26 14:10:58.943,3534.0,-5382.0,3810.0,468.0,210.0,-80.0,115,58,72,81,62
2025-02-26 14:10:58.948,2397.0,-5035.0,2948.0,372.0,251.0,-42.0,117,61,72,82,64
2025-02-26 14:10:58.955,1531.0,-4432.0,2526.0,217.0,228.0,66.0,116,60,68,83,64
2025-02-26 14:10:58.960,686.0,-3426.0,1952.0,127.0,160.0,129.0,116,60,68,83,65
2025-02-26 14:10:58.964,281.0,-2026.0,1344.0,-66.0,107.0,151.0,114,59,68,83,64
2025-02-26 14:10:58.968,-138.0,-1580.0,1029.0,-229.0,3.0,143.0,114,60,70,84,65
2025-02-26 14:10:58.976,-89.0,-1009.0,880.0,-356.0,-74.0,113.0,114,61,73,86,67
2025-02-26 14:10:58.980,131.0,-1042.0,854.0,-425.0,-112.0,74.0,116,62,72,90,66
2025-02-26 14:10:58.984,482.0,-1319.0,776.0,-443.0,-103.0,35.0,114,63,70,87,68
2025-02-26 14:10:58.989,767.0,-1748.0,723.0,-446.0,-92.0,7.0,114,61,70,87,66
2025-02-26 14:10:58.995,626.0,-1921.0,628.0,-405.0,-70.0,1.0,112,59,68,86,65
2025-02-26 14:10:59.001,608.0,-2260.0,586.0,-381.0,-52.0,8.0,120,62,71,87,67
2025-02-26 14:10:59.005,617.0,-2425.0,511.0,-323.0,-51.0,25.0,114,62,72,91,67
2025-02-26 14:10:59.009,609.0,-2520.0,502.0,-274.0,-36.0,43.0,115,64,76,89,68
2025-02-26 14:10:59.017,480.0,-2473.0,477.0,-232.0,-36.0,74.0,114,65,77,91,70
2025-02-26 14:10:59.021,450.0,-2413.0,533.0,-214.0,-37.0,106.0,116,64,74,89,68
2025-02-26 14:10:59.025,463.0,-2304.0,651.0,-186.0,-31.0,137.0,113,63,72,86,67
2025-02-26 14:10:59.030,547.0,-2144.0,751.0,-175.0,-28.0,159.0,114,64,70,87,68
2025-02-26 14:10:59.038,490.0,-2090.0,755.0,-157.0,-35.0,178.0,116,65,72,89,69
2025-02-26 14:10:59.041,603.0,-2040.0,857.0,-149.0,-24.0,202.0,115,64,70,86,68
2025-02-26 14:10:59.043,572.0,-1944.0,852.0,-130.0,-26.0,223.0,117,66,72,88,69
2025-02-26 14:10:59.054,601.0,-1770.0,840.0,-119.0,-14.0,236.0,115,64,70,87,68
2025-02-26 14:10:59.058,602.0,-1837.0,801.0,-102.0,-9.0,261.0,116,63,74,88,69
2025-02-26 14:10:59.062,655.0,-1707.0,773.0,-88.0,14.0,288.0,114,62,70,89,69
2025-02-26 14:10:59.067,657.0,-1556.0,693.0,-76.0,21.0,310.0,115,63,70,86,69
2025-02-26 14:10:59.073,610.0,-1439.0,629.0,-61.0,29.0,320.0,113,62,67,82,66
2025-02-26 14:10:59.078,610.0,-1161.0,561.0,-61.0,50.0,333.0,115,67,67,85,67
2025-02-26 14:10:59.083,486.0,-882.0,474.0,-61.0,52.0,340.0,116,63,67,87,66
2025-02-26 14:10:59.087,406.0,-662.0,346.0,-67.0,50.0,342.0,115,63,67,85,66
2025-02-26 14:10:59.090,311.0,-586.0,307.0,-80.0,46.0,342.0,115,63,66,84,67
2025-02-26 14:10:59.099,146.0,-374.0,179.0,-87.0,36.0,335.0,114,61,67,84,66
2025-02-26 14:10:59.103,80.0,-298.0,151.0,-98.0,25.0,319.0,114,62,66,84,65
2025-02-26 14:10:59.107,85.0,-257.0,77.0,-114.0,14.0,312.0,116,63,67,85,67
2025-02-26 14:10:59.111,-33.0,-191.0,26.0,-121.0,3.0,297.0,115,62,69,85,68
2025-02-26 14:10:59.116,-32.0,-129.0,43.0,-136.0,1.0,281.0,112,61,65,83,65
2025-02-26 14:10:59.123,-62.0,-113.0,26.0,-149.0,-10.0,272.0,114,62,68,86,67
2025-02-26 14:10:59.127,-83.0,-34.0,7.0,-155.0,-11.0,255.0,117,63,69,86,68
2025-02-26 14:10:59.132,-84.0,-23.0,-9.0,-167.0,-9.0,239.0,115,62,68,84,65
2025-02-26 14:10:59.135,-149.0,19.0,-44.0,-172.0,-11.0,231.0,117,61,69,85,67
2025-02-26 14:10:59.140,-238.0,33.0,-44.0,-174.0,-10.0,214.0,115,62,67,84,65
2025-02-26 14:10:59.147,-246.0,98.0,-81.0,-179.0,-10.0,196.0,116,62,67,85,66
2025-02-26 14:10:59.152,-337.0,206.0,-114.0,-185.0,-10.0,191.0,117,63,66,86,67
2025-02-26 14:10:59.156,-334.0,178.0,-143.0,-191.0,-11.0,178.0,116,65,67,84,65
2025-02-26 14:10:59.164,-410.0,225.0,-177.0,-194.0,-16.0,170.0,116,62,67,85,66
2025-02-26 14:10:59.168,-471.0,279.0,-240.0,-198.0,-18.0,160.0,117,62,65,85,66
2025-02-26 14:10:59.173,-421.0,262.0,-241.0,-204.0,-20.0,158.0,117,62,65,84,65
2025-02-26 14:10:59.177,-480.0,341.0,-238.0,-199.0,-24.0,149.0,119,63,66,85,67
2025-02-26 14:10:59.184,-519.0,381.0,-299.0,-197.0,-28.0,137.0,117,63,68,85,66
2025-02-26 14:10:59.189,-632.0,428.0,-309.0,-190.0,-34.0,121.0,118,59,61,86,66
2025-02-26 14:10:59.193,-655.0,481.0,-374.0,-174.0,-43.0,112.0,117,63,67,86,67
2025-02-26 14:10:59.197,-642.0,507.0,-420.0,-155.0,-53.0,93.0,119,62,67,85,67
2025-02-26 14:10:59.205,-663.0,563.0,-434.0,-137.0,-62.0,78.0,117,62,70,86,67
2025-02-26 14:10:59.210,-696.0,658.0,-425.0,-127.0,-67.0,64.0,117,62,68,85,67
2025-02-26 14:10:59.214,-744.0,805.0,-433.0,-110.0,-77.0,59.0,116,62,65,83,66
2025-02-26 14:10:59.217,-806.0,875.0,-420.0,-92.0,-88.0,52.0,118,62,66,86,66
2025-02-26 14:10:59.226,-860.0,1051.0,-371.0,-83.0,-101.0,42.0,117,62,67,85,66
2025-02-26 14:10:59.230,-893.0,1297.0,-320.0,-69.0,-104.0,33.0,117,61,65,86,66
2025-02-26 14:10:59.232,-935.0,1414.0,-227.0,-55.0,-109.0,25.0,118,61,66,84,63
2025-02-26 14:10:59.242,-953.0,1636.0,-190.0,-36.0,-105.0,2.0,120,62,67,84,66
2025-02-26 14:10:59.246,-907.0,1840.0,-34.0,-21.0,-91.0,-37.0,119,63,66,84,67
2025-02-26 14:10:59.250,-952.0,2069.0,106.0,11.0,-79.0,-95.0,118,62,66,84,68
2025-02-26 14:10:59.254,-861.0,2166.0,222.0,56.0,-51.0,-132.0,116,60,67,83,66
2025-02-26 14:10:59.263,-824.0,2290.0,259.0,112.0,-18.0,-216.0,119,62,67,86,68
2025-02-26 14:10:59.266,-613.0,2246.0,320.0,137.0,23.0,-306.0,119,63,69,89,69
2025-02-26 14:10:59.271,-504.0,2170.0,269.0,178.0,50.0,-387.0,118,60,64,85,68
2025-02-26 14:10:59.275,-397.0,2138.0,177.0,210.0,85.0,-426.0,118,62,65,84,66
2025-02-26 14:10:59.280,-250.0,1890.0,144.0,244.0,81.0,-504.0,117,63,71,87,67
2025-02-26 14:10:59.287,-136.0,1506.0,43.0,260.0,70.0,-566.0,120,64,68,87,69
2025-02-26 14:10:59.291,3.0,1144.0,-15.0,292.0,58.0,-624.0,116,61,69,87,68
2025-02-26 14:10:59.295,257.0,969.0,-58.0,322.0,38.0,-650.0,118,62,70,88,70
2025-02-26 14:10:59.299,436.0,604.0,-81.0,340.0,4.0,-708.0,117,61,69,88,70
2025-02-26 14:10:59.308,593.0,347.0,13.0,371.0,-11.0,-753.0,119,64,73,87,70
2025-02-26 14:10:59.311,899.0,208.0,242.0,396.0,-40.0,-768.0,119,63,72,88,71
2025-02-26 14:10:59.316,1634.0,-502.0,489.0,404.0,-80.0,-761.0,120,61,72,88,73
2025-02-26 14:10:59.320,2291.0,-1742.0,1111.0,428.0,-107.0,-707.0,118,60,75,87,73
2025-02-26 14:10:59.328,2577.0,-3127.0,1574.0,443.0,-147.0,-596.0,120,62,77,89,73
2025-02-26 14:10:59.333,3017.0,-3918.0,2195.0,449.0,-123.0,-516.0,121,62,77,88,73
2025-02-26 14:10:59.335,3652.0,-5554.0,2770.0,431.0,-43.0,-329.0,120,63,82,90,74
2025-02-26 14:10:59.345,4021.0,-6718.0,2889.0,421.0,48.0,-148.0,121,63,96,88,74
2025-02-26 14:10:59.347,4173.0,-7135.0,2838.0,407.0,154.0,5.0,127,63,93,85,76
2025-02-26 14:10:59.353,4011.0,-6575.0,2409.0,352.0,190.0,115.0,120,60,91,88,74
2025-02-26 14:10:59.361,3046.0,-6119.0,1972.0,267.0,204.0,160.0,119,61,85,84,73
2025-02-26 14:10:59.365,2020.0,-4773.0,1469.0,135.0,191.0,220.0,120,63,84,82,73
2025-02-26 14:10:59.369,1165.0,-3324.0,1235.0,-11.0,125.0,242.0,121,63,81,80,74
2025-02-26 14:10:59.373,519.0,-2301.0,915.0,-87.0,53.0,251.0,119,63,82,79,73
2025-02-26 14:10:59.381,435.0,-1721.0,786.0,-221.0,18.0,255.0,118,60,84,81,72
2025-02-26 14:10:59.386,430.0,-1502.0,689.0,-320.0,-30.0,255.0,121,64,88,83,75
2025-02-26 14:10:59.390,515.0,-1373.0,624.0,-377.0,-55.0,249.0,119,62,84,86,76
2025-02-26 14:10:59.398,468.0,-1452.0,496.0,-386.0,-64.0,229.0,119,62,85,86,75
2025-02-26 14:10:59.401,446.0,-1564.0,446.0,-385.0,-57.0,201.0,119,63,79,85,73
2025-02-26 14:10:59.406,442.0,-1690.0,375.0,-364.0,-64.0,183.0,120,63,79,88,74
2025-02-26 14:10:59.411,325.0,-1820.0,391.0,-321.0,-57.0,166.0,121,65,79,90,76
2025-02-26 14:10:59.418,412.0,-1911.0,439.0,-297.0,-48.0,156.0,121,64,79,91,74
2025-02-26 14:10:59.422,416.0,-1848.0,458.0,-261.0,-48.0,159.0,120,62,79,90,74
2025-02-26 14:10:59.427,540.0,-2064.0,477.0,-235.0,-47.0,163.0,118,61,81,88,74
2025-02-26 14:10:59.431,510.0,-2019.0,449.0,-220.0,-42.0,186.0,119,61,80,86,72
2025-02-26 14:10:59.438,447.0,-1891.0,477.0,-217.0,-52.0,216.0,123,67,82,88,74
2025-02-26 14:10:59.443,382.0,-1692.0,461.0,-218.0,-56.0,250.0,124,68,85,93,79
2025-02-26 14:10:59.448,323.0,-1542.0,464.0,-228.0,-56.0,285.0,123,63,77,93,81
2025-02-26 14:10:59.455,318.0,-1424.0,459.0,-232.0,-58.0,296.0,127,69,79,93,78
2025-02-26 14:10:59.460,295.0,-1226.0,495.0,-233.0,-59.0,306.0,125,65,76,92,75
2025-02-26 14:10:59.464,183.0,-910.0,422.0,-228.0,-59.0,307.0,124,66,79,92,76
2025-02-26 14:10:59.470,160.0,-572.0,347.0,-222.0,-60.0,300.0,129,66,80,90,75
2025-02-26 14:10:59.475,20.0,-543.0,291.0,-221.0,-72.0,295.0,126,66,84,94,77
2025-02-26 14:10:59.479,-97.0,-338.0,313.0,-220.0,-79.0,285.0,127,68,86,90,75
2025-02-26 14:10:59.484,-134.0,-145.0,271.0,-219.0,-85.0,275.0,128,70,88,93,76
2025-02-26 14:10:59.489,-21.0,-74.0,274.0,-219.0,-82.0,259.0,125,64,83,91,76
2025-02-26 14:10:59.496,-84.0,-82.0,317.0,-231.0,-77.0,254.0,126,67,85,92,75
2025-02-26 14:10:59.498,-171.0,-10.0,367.0,-233.0,-72.0,245.0,125,64,84,91,76
2025-02-26 14:10:59.505,-143.0,52.0,407.0,-247.0,-69.0,233.0,125,64,85,89,74
2025-02-26 14:10:59.509,-51.0,110.0,425.0,-253.0,-54.0,229.0,124,62,81,88,71
2025-02-26 14:10:59.516,-47.0,82.0,362.0,-258.0,-40.0,215.0,128,65,81,89,72
2025-02-26 14:10:59.520,-181.0,134.0,334.0,-253.0,-22.0,204.0,125,64,82,90,73
2025-02-26 14:10:59.525,-174.0,76.0,350.0,-241.0,-15.0,196.0,127,65,82,89,73
2025-02-26 14:10:59.529,-299.0,173.0,158.0,-241.0,-1.0,194.0,127,65,84,90,73
2025-02-26 14:10:59.533,-280.0,186.0,70.0,-234.0,18.0,187.0,125,63,84,90,72
2025-02-26 14:10:59.541,-223.0,306.0,11.0,-223.0,25.0,183.0,126,63,79,86,71
2025-02-26 14:10:59.545,-348.0,235.0,-45.0,-216.0,40.0,184.0,128,63,82,89,76
2025-02-26 14:10:59.550,-389.0,281.0,-108.0,-204.0,53.0,183.0,127,64,79,90,72
2025-02-26 14:10:59.554,-438.0,339.0,-134.0,-199.0,55.0,189.0,127,63,79,89,71
2025-02-26 14:10:59.557,-416.0,354.0,-287.0,-176.0,60.0,186.0,129,64,77,86,70
2025-02-26 14:10:59.566,-567.0,460.0,-312.0,-150.0,61.0,174.0,129,65,79,91,74
2025-02-26 14:10:59.570,-626.0,528.0,-299.0,-143.0,54.0,158.0,131,64,80,92,74
2025-02-26 14:10:59.574,-783.0,533.0,-372.0,-127.0,47.0,142.0,128,63,78,88,72
2025-02-26 14:10:59.582,-781.0,502.0,-402.0,-108.0,33.0,130.0,130,62,74,88,71
2025-02-26 14:10:59.586,-760.0,644.0,-445.0,-87.0,27.0,108.0,129,64,80,90,74
2025-02-26 14:10:59.591,-821.0,627.0,-498.0,-74.0,16.0,86.0,130,63,78,91,73
2025-02-26 14:10:59.593,-866.0,578.0,-471.0,-48.0,9.0,67.0,129,63,75,89,72
2025-02-26 14:10:59.603,-882.0,602.0,-465.0,-19.0,-8.0,61.0,132,64,76,92,74
2025-02-26 14:10:59.606,-832.0,593.0,-460.0,-3.0,-22.0,51.0,132,64,79,93,74
2025-02-26 14:10:59.611,-795.0,599.0,-447.0,25.0,-28.0,44.0,131,62,75,90,74
2025-02-26 14:10:59.615,-762.0,593.0,-377.0,42.0,-35.0,41.0,133,64,76,92,74
2025-02-26 14:10:59.620,-717.0,618.0,-358.0,50.0,-43.0,33.0,135,63,76,94,74
2025-02-26 14:10:59.626,-725.0,665.0,-318.0,65.0,-46.0,23.0,134,63,78,92,74
2025-02-26 14:10:59.632,-734.0,685.0,-282.0,80.0,-47.0,18.0,135,64,77,92,76
2025-02-26 14:10:59.636,-755.0,800.0,-259.0,97.0,-49.0,4.0,135,64,77,93,75
2025-02-26 14:10:59.640,-784.0,870.0,-180.0,105.0,-51.0,-12.0,135,64,75,90,73
2025-02-26 14:10:59.647,-858.0,949.0,-150.0,122.0,-54.0,-24.0,137,63,76,92,75
2025-02-26 14:10:59.651,-910.0,1086.0,-139.0,135.0,-61.0,-50.0,137,65,76,93,75
2025-02-26 14:10:59.656,-1011.0,1278.0,-55.0,147.0,-68.0,-79.0,135,62,78,93,76
2025-02-26 14:10:59.661,-1087.0,1497.0,41.0,170.0,-71.0,-115.0,137,64,74,91,74
2025-02-26 14:10:59.668,-1170.0,1659.0,215.0,194.0,-77.0,-137.0,138,63,77,92,76
2025-02-26 14:10:59.672,-1189.0,1873.0,353.0,223.0,-81.0,-190.0,139,65,78,92,76
2025-02-26 14:10:59.676,-1028.0,2154.0,452.0,255.0,-80.0,-262.0,137,61,79,93,77
2025-02-26 14:10:59.685,-822.0,2236.0,528.0,270.0,-64.0,-338.0,140,65,79,94,76
2025-02-26 14:10:59.689,-662.0,2185.0,643.0,298.0,-51.0,-406.0,141,66,78,93,75
2025-02-26 14:10:59.693,-512.0,2153.0,604.0,327.0,-24.0,-437.0,140,63,78,93,76
2025-02-26 14:10:59.697,-342.0,1865.0,613.0,354.0,-19.0,-502.0,141,64,81,94,79
2025-02-26 14:10:59.705,-69.0,1862.0,512.0,375.0,-47.0,-568.0,141,64,80,92,77
2025-02-26 14:10:59.709,32.0,1548.0,374.0,399.0,-61.0,-626.0,142,65,82,94,77
2025-02-26 14:10:59.713,259.0,1380.0,178.0,419.0,-87.0,-645.0,143,63,82,95,78
2025-02-26 14:10:59.717,594.0,951.0,53.0,435.0,-106.0,-674.0,143,62,82,93,77
2025-02-26 14:10:59.725,744.0,526.0,-135.0,439.0,-120.0,-700.0,143,60,83,94,77
2025-02-26 14:10:59.729,766.0,100.0,-141.0,426.0,-124.0,-724.0,142,62,82,91,76
2025-02-26 14:10:59.734,1056.0,-82.0,104.0,395.0,-130.0,-734.0,144,61,83,96,78
2025-02-26 14:10:59.742,1478.0,-291.0,133.0,375.0,-163.0,-741.0,143,62,84,94,79
2025-02-26 14:10:59.746,2165.0,-650.0,447.0,370.0,-221.0,-720.0,147,61,84,93,80
2025-02-26 14:10:59.750,2886.0,-1536.0,900.0,400.0,-249.0,-688.0,146,59,84,93,78
2025-02-26 14:10:59.754,3331.0,-3169.0,1573.0,477.0,-291.0,-630.0,147,59,86,92,80
2025-02-26 14:10:59.762,4667.0,-4168.0,2458.0,579.0,-305.0,-592.0,148,59,90,91,79
2025-02-26 14:10:59.772,5432.0,-6297.0,3357.0,604.0,-213.0,-480.0,152,62,92,93,83
2025-02-26 14:10:59.774,5083.0,-8215.0,3706.0,629.0,-40.0,-303.0,154,60,93,89,81
2025-02-26 14:10:59.777,4364.0,-8675.0,4025.0,621.0,135.0,-104.0,154,60,91,85,81
2025-02-26 14:10:59.782,3907.0,-7078.0,3462.0,603.0,254.0,46.0,154,60,89,83,78
2025-02-26 14:10:59.788,3703.0,-4570.0,3089.0,457.0,307.0,144.0,154,60,90,80,77
2025-02-26 14:10:59.795,3045.0,-3451.0,2629.0,209.0,376.0,178.0,157,62,90,78,76
2025-02-26 14:10:59.800,2076.0,-1425.0,2221.0,-78.0,356.0,199.0,157,60,87,77,76
2025-02-26 14:10:59.803,1065.0,-394.0,1400.0,-197.0,241.0,199.0,157,62,85,80,75
2025-02-26 14:10:59.808,637.0,-589.0,690.0,-430.0,160.0,210.0,154,59,82,79,75
2025-02-26 14:10:59.815,581.0,-915.0,-69.0,-595.0,9.0,219.0,154,59,80,82,74
2025-02-26 14:10:59.820,396.0,-1381.0,-257.0,-649.0,-64.0,246.0,155,61,85,83,77
2025-02-26 14:10:59.825,283.0,-1947.0,-457.0,-656.0,-70.0,268.0,157,63,86,86,77
2025-02-26 14:10:59.832,558.0,-2246.0,-241.0,-614.0,-63.0,256.0,155,60,86,85,76
2025-02-26 14:10:59.836,651.0,-2573.0,-11.0,-526.0,-58.0,243.0,152,60,83,86,75
2025-02-26 14:10:59.837,648.0,-2598.0,241.0,-411.0,-52.0,248.0,154,62,81,88,79
2025-02-26 14:10:59.845,986.0,-2267.0,187.0,-294.0,-67.0,245.0,156,63,84,90,77
2025-02-26 14:10:59.849,599.0,-2580.0,205.0,-250.0,-27.0,275.0,156,62,92,88,77
2025-02-26 14:10:59.856,936.0,-2815.0,419.0,-203.0,-18.0,291.0,154,60,80,87,76
2025-02-26 14:10:59.861,832.0,-1974.0,754.0,-163.0,-7.0,311.0,154,61,80,88,77
2025-02-26 14:10:59.869,681.0,-1894.0,622.0,-158.0,-11.0,336.0,154,63,77,89,76
2025-02-26 14:10:59.873,643.0,-1734.0,714.0,-180.0,9.0,361.0,155,62,73,90,78
2025-02-26 14:10:59.877,888.0,-1194.0,541.0,-205.0,16.0,373.0,154,63,69,86,77
2025-02-26 14:10:59.881,542.0,-892.0,634.0,-158.0,17.0,368.0,157,64,74,86,76
2025-02-26 14:10:59.885,593.0,-511.0,458.0,-152.0,67.0,365.0,157,62,76,85,72
2025-02-26 14:10:59.894,339.0,-71.0,171.0,-120.0,84.0,363.0,154,61,76,84,73
2025-02-26 14:10:59.898,296.0,-33.0,311.0,-98.0,73.0,356.0,155,63,79,83,71
2025-02-26 14:10:59.901,213.0,201.0,327.0,-107.0,5.0,322.0,157,64,81,86,74
2025-02-26 14:10:59.907,97.0,220.0,400.0,-117.0,-75.0,287.0,156,67,84,84,74
2025-02-26 14:10:59.914,30.0,294.0,389.0,-139.0,-90.0,276.0,158,62,80,85,73
2025-02-26 14:10:59.918,-51.0,308.0,282.0,-144.0,-64.0,262.0,157,71,82,86,70
2025-02-26 14:10:59.923,45.0,146.0,405.0,-155.0,-36.0,253.0,155,63,80,85,76
2025-02-26 14:10:59.927,23.0,258.0,477.0,-183.0,-19.0,246.0,151,63,85,88,75
2025-02-26 14:10:59.931,-125.0,97.0,528.0,-196.0,-17.0,243.0,158,65,85,87,76
2025-02-26 14:10:59.939,-137.0,77.0,350.0,-197.0,-14.0,235.0,156,58,85,88,77
2025-02-26 14:10:59.943,-93.0,-16.0,551.0,-197.0,-11.0,221.0,156,65,87,87,73
2025-02-26 14:10:59.947,-34.0,203.0,407.0,-188.0,7.0,218.0,159,64,89,89,71
2025-02-26 14:10:59.952,-355.0,60.0,338.0,-172.0,45.0,220.0,158,64,88,88,76
2025-02-26 14:10:59.957,-389.0,196.0,172.0,-142.0,62.0,213.0,157,64,79,88,75
2025-02-26 14:10:59.963,-345.0,70.0,204.0,-140.0,54.0,208.0,158,65,86,88,75
2025-02-26 14:10:59.967,-419.0,179.0,197.0,-152.0,50.0,196.0,159,68,81,89,76
2025-02-26 14:10:59.971,-523.0,284.0,-8.0,-145.0,49.0,183.0,156,63,84,88,75
2025-02-26 14:10:59.976,-542.0,273.0,-82.0,-144.0,53.0,177.0,154,63,84,87,73
2025-02-26 14:10:59.984,-621.0,356.0,-127.0,-115.0,48.0,163.0,158,65,84,89,74
2025-02-26 14:10:59.988,-761.0,377.0,-151.0,-108.0,32.0,148.0,158,66,84,88,75
2025-02-26 14:10:59.992,-705.0,404.0,-139.0,-84.0,24.0,140.0,157,65,84,86,73
2025-02-26 14:10:59.997,-760.0,461.0,-128.0,-71.0,11.0,136.0,158,61,86,87,75
2025-02-26 14:11:00.004,-783.0,550.0,-144.0,-64.0,15.0,124.0,157,65,86,88,75
2025-02-26 14:11:00.009,-804.0,649.0,-137.0,-61.0,16.0,109.0,158,65,86,88,75
2025-02-26 14:11:00.012,-806.0,688.0,-138.0,-59.0,14.0,101.0,156,63,84,86,73
2025-02-26 14:11:00.017,-805.0,725.0,-125.0,-56.0,6.0,84.0,158,65,84,89,75
2025-02-26 14:11:00.025,-850.0,747.0,-141.0,-53.0,-2.0,65.0,157,61,84,88,74
2025-02-26 14:11:00.028,-830.0,780.0,-161.0,-33.0,-5.0,55.0,159,65,86,87,74
2025-02-26 14:11:00.031,-845.0,754.0,-167.0,-17.0,-14.0,39.0,158,66,85,88,77
2025-02-26 14:11:00.037,-874.0,740.0,-202.0,-1.0,-24.0,23.0,158,63,85,87,73
2025-02-26 14:11:00.042,-870.0,767.0,-135.0,19.0,-28.0,6.0,157,64,84,86,73
2025-02-26 14:11:00.049,-908.0,798.0,-82.0,45.0,-36.0,-6.0,159,66,85,87,75
2025-02-26 14:11:00.054,-905.0,871.0,-46.0,58.0,-41.0,-35.0,159,65,85,88,75
2025-02-26 14:11:00.056,-947.0,928.0,-15.0,79.0,-42.0,-64.0,157,64,84,85,73
2025-02-26 14:11:00.062,-1044.0,958.0,52.0,100.0,-41.0,-76.0,157,65,87,87,76
2025-02-26 14:11:00.066,-1184.0,1109.0,64.0,108.0,-44.0,-97.0,158,64,87,88,75
2025-02-26 14:11:00.074,-1229.0,1232.0,159.0,129.0,-47.0,-120.0,156,64,86,86,75
2025-02-26 14:11:00.078,-1257.0,1376.0,233.0,154.0,-54.0,-134.0,156,64,86,87,74
2025-02-26 14:11:00.082,-1215.0,1434.0,354.0,172.0,-59.0,-171.0,159,64,87,89,75
2025-02-26 14:11:00.090,-1137.0,1512.0,411.0,182.0,-57.0,-213.0,159,64,88,88,77
2025-02-26 14:11:00.092,-1063.0,1497.0,504.0,185.0,-44.0,-257.0,158,65,89,86,74
2025-02-26 14:11:00.098,-996.0,1483.0,513.0,187.0,-34.0,-301.0,156,63,88,87,74
2025-02-26 14:11:00.104,-815.0,1466.0,475.0,194.0,-7.0,-322.0,156,63,95,89,75
2025-02-26 14:11:00.110,-755.0,1339.0,445.0,212.0,11.0,-369.0,161,64,90,91,76
2025-02-26 14:11:00.115,-499.0,1256.0,500.0,222.0,9.0,-428.0,159,64,89,87,75
2025-02-26 14:11:00.119,-410.0,1108.0,420.0,257.0,7.0,-490.0,157,63,91,87,75
2025-02-26 14:11:00.123,-159.0,1031.0,285.0,282.0,-3.0,-519.0,160,66,90,90,77
2025-02-26 14:11:00.131,76.0,864.0,182.0,288.0,0.0,-568.0,158,65,92,88,77
2025-02-26 14:11:00.135,332.0,689.0,49.0,290.0,4.0,-604.0,157,62,91,88,75
2025-02-26 14:11:00.139,563.0,491.0,20.0,291.0,10.0,-617.0,156,63,92,87,75
2025-02-26 14:11:00.143,965.0,253.0,33.0,310.0,4.0,-642.0,160,71,94,91,78
2025-02-26 14:11:00.148,1536.0,-474.0,260.0,315.0,-7.0,-640.0,159,66,92,90,77
2025-02-26 14:11:00.156,1900.0,-844.0,392.0,328.0,-13.0,-632.0,157,62,90,89,77
2025-02-26 14:11:00.159,2459.0,-1744.0,467.0,357.0,-26.0,-591.0,158,64,94,90,79
2025-02-26 14:11:00.164,2940.0,-3053.0,781.0,380.0,-21.0,-519.0,159,63,93,90,79
2025-02-26 14:11:00.171,3176.0,-4778.0,1458.0,411.0,-8.0,-424.0,157,64,90,88,79
2025-02-26 14:11:00.177,3382.0,-6700.0,2106.0,429.0,22.0,-369.0,158,62,88,89,79
2025-02-26 14:11:00.181,3792.0,-7601.0,2319.0,455.0,21.0,-236.0,159,61,88,87,80
2025-02-26 14:11:00.185,3537.0,-8585.0,2468.0,489.0,12.0,-95.0,166,63,84,89,78
2025-02-26 14:11:00.193,3124.0,-7411.0,2452.0,456.0,96.0,43.0,160,61,86,80,78
2025-02-26 14:11:00.197,2768.0,-5136.0,2451.0,358.0,137.0,147.0,159,62,85,77,78
2025-02-26 14:11:00.202,2188.0,-4051.0,2232.0,155.0,197.0,178.0,158,63,85,77,77
2025-02-26 14:11:00.207,1580.0,-2149.0,1954.0,-41.0,191.0,204.0,160,64,88,80,78
2025-02-26 14:11:00.213,1165.0,-744.0,1475.0,-217.0,92.0,183.0,162,65,86,79,79
2025-02-26 14:11:00.217,761.0,-274.0,928.0,-300.0,6.0,157.0,158,64,86,80,78
2025-02-26 14:11:00.219,641.0,-294.0,416.0,-426.0,-21.0,149.0,158,64,84,79,78
2025-02-26 14:11:00.229,281.0,-809.0,231.0,-493.0,-56.0,138.0,160,66,86,84,81
2025-02-26 14:11:00.233,308.0,-1583.0,-40.0,-523.0,-59.0,143.0,158,64,83,86,80
2025-02-26 14:11:00.237,246.0,-2305.0,-225.0,-523.0,-52.0,156.0,157,64,80,86,79
2025-02-26 14:11:00.242,213.0,-2556.0,-121.0,-486.0,-37.0,157.0,158,65,80,90,81
2025-02-26 14:11:00.248,159.0,-2624.0,61.0,-407.0,-47.0,165.0,159,64,79,89,81
2025-02-26 14:11:00.254,261.0,-2823.0,140.0,-331.0,-56.0,198.0,159,64,79,89,81
2025-02-26 14:11:00.259,437.0,-2842.0,101.0,-268.0,-69.0,182.0,158,63,80,89,79
2025-02-26 14:11:00.266,546.0,-2525.0,395.0,-221.0,-55.0,218.0,157,65,83,90,80
2025-02-26 14:11:00.270,633.0,-2314.0,621.0,-202.0,8.0,237.0,159,67,82,89,81
2025-02-26 14:11:00.275,493.0,-1631.0,548.0,-170.0,44.0,266.0,159,66,78,89,81
2025-02-26 14:11:00.279,494.0,-1771.0,629.0,-172.0,58.0,295.0,157,63,75,88,78
2025-02-26 14:11:00.287,701.0,-1436.0,639.0,-178.0,70.0,331.0,158,64,74,91,80
2025-02-26 14:11:00.291,489.0,-1347.0,645.0,-136.0,65.0,337.0,160,66,74,91,81
2025-02-26 14:11:00.295,499.0,-1048.0,625.0,-73.0,48.0,343.0,159,66,76,90,78
2025-02-26 14:11:00.299,423.0,-817.0,593.0,-40.0,49.0,346.0,158,63,77,89,76
2025-02-26 14:11:00.304,245.0,-659.0,427.0,12.0,55.0,344.0,158,64,80,88,77
2025-02-26 14:11:00.310,117.0,-344.0,431.0,8.0,50.0,345.0,160,68,88,89,78
2025-02-26 14:11:00.315,-17.0,10.0,404.0,2.0,29.0,330.0,160,65,86,87,76
2025-02-26 14:11:00.319,-57.0,198.0,438.0,-6.0,-7.0,320.0,159,65,85,85,75
2025-02-26 14:11:00.324,-106.0,440.0,358.0,-37.0,4.0,305.0,162,69,86,88,79
2025-02-26 14:11:00.328,-194.0,609.0,369.0,-53.0,15.0,287.0,160,64,79,86,76
2025-02-26 14:11:00.336,-211.0,585.0,368.0,-99.0,30.0,277.0,159,62,80,85,75
2025-02-26 14:11:00.340,-307.0,705.0,410.0,-155.0,60.0,255.0,160,66,83,89,79
2025-02-26 14:11:00.344,-398.0,617.0,332.0,-182.0,101.0,241.0,159,66,84,87,77
2025-02-26 14:11:00.348,-222.0,719.0,415.0,-239.0,112.0,232.0,158,64,85,88,77
2025-02-26 14:11:00.356,-351.0,687.0,255.0,-252.0,120.0,208.0,158,66,86,89,77
2025-02-26 14:11:00.361,-177.0,455.0,363.0,-271.0,107.0,179.0,159,64,89,90,78
2025-02-26 14:11:00.365,-442.0,180.0,279.0,-251.0,106.0,162.0,160,67,87,89,77
2025-02-26 14:11:00.370,-554.0,338.0,211.0,-226.0,90.0,152.0,160,67,85,90,78
2025-02-26 14:11:00.376,-561.0,235.0,93.0,-196.0,84.0,139.0,158,64,85,88,77
2025-02-26 14:11:00.381,-536.0,-14.0,23.0,-188.0,91.0,130.0,157,65,81,89,77
2025-02-26 14:11:00.385,-670.0,14.0,-80.0,-164.0,94.0,131.0,158,67,84,91,80
2025-02-26 14:11:00.390,-741.0,-135.0,-108.0,-153.0,91.0,140.0,158,67,84,91,80
2025-02-26 14:11:00.395,-622.0,-176.0,-164.0,-152.0,90.0,143.0,157,64,80,89,80
2025-02-26 14:11:00.401,-711.0,-195.0,-316.0,-141.0,87.0,151.0,158,66,84,90,79
2025-02-26 14:11:00.406,-659.0,-173.0,-246.0,-136.0,84.0,149.0,159,70,84,94,81
2025-02-26 14:11:00.407,-667.0,42.0,-314.0,-136.0,71.0,145.0,160,69,86,91,84
2025-02-26 14:11:00.418,-704.0,156.0,-238.0,-135.0,65.0,136.0,158,70,85,91,81
2025-02-26 14:11:00.422,-750.0,174.0,-407.0,-113.0,55.0,122.0,158,67,83,90,79
2025-02-26 14:11:00.426,-799.0,176.0,-323.0,-112.0,49.0,115.0,160,70,85,95,84
2025-02-26 14:11:00.431,-711.0,258.0,-380.0,-132.0,25.0,96.0,158,71,86,94,84
2025-02-26 14:11:00.436,-737.0,325.0,-332.0,-120.0,21.0,80.0,159,70,86,94,84
2025-02-26 14:11:00.443,-713.0,377.0,-323.0,-101.0,19.0,69.0,157,68,86,96,83
2025-02-26 14:11:00.446,-632.0,370.0,-403.0,-84.0,6.0,44.0,159,73,89,99,86
2025-02-26 14:11:00.448,-580.0,342.0,-307.0,-76.0,2.0,32.0,156,73,87,98,87
2025-02-26 14:11:00.455,-644.0,280.0,-363.0,-74.0,-6.0,24.0,155,71,86,98,85
2025-02-26 14:11:00.463,-708.0,215.0,-246.0,-59.0,-4.0,9.0,157,73,87,100,89
2025-02-26 14:11:00.467,-707.0,255.0,-296.0,-45.0,0.0,2.0,154,74,87,97,89
2025-02-26 14:11:00.472,-733.0,172.0,-285.0,-15.0,-2.0,-3.0,157,72,89,97,90
2025-02-26 14:11:00.475,-761.0,107.0,-186.0,23.0,-2.0,-7.0,159,73,89,100,92
2025-02-26 14:11:00.480,-783.0,79.0,-188.0,37.0,-11.0,-14.0,159,77,89,101,93
2025-02-26 14:11:00.486,-764.0,144.0,-144.0,57.0,-16.0,-29.0,158,75,91,100,93
2025-02-26 14:11:00.491,-729.0,141.0,-126.0,85.0,-28.0,-35.0,158,76,93,104,96
2025-02-26 14:11:00.496,-705.0,124.0,-42.0,108.0,-30.0,-45.0,156,77,93,103,98
2025-02-26 14:11:00.497,-711.0,138.0,-79.0,116.0,-34.0,-54.0,156,78,94,105,100
2025-02-26 14:11:00.508,-712.0,189.0,-43.0,136.0,-38.0,-65.0,156,78,96,104,102
2025-02-26 14:11:00.510,-792.0,196.0,-9.0,163.0,-33.0,-67.0,157,81,99,109,105
2025-02-26 14:11:00.517,-880.0,320.0,-31.0,198.0,-26.0,-73.0,156,82,101,110,107
2025-02-26 14:11:00.522,-980.0,426.0,-71.0,224.0,-24.0,-79.0,158,86,103,116,112
2025-02-26 14:11:00.528,-1004.0,533.0,-27.0,271.0,-20.0,-88.0,156,86,101,112,110
2025-02-26 14:11:00.533,-1044.0,583.0,-89.0,310.0,-16.0,-96.0,155,86,102,112,113
2025-02-26 14:11:00.540,-1107.0,794.0,-310.0,337.0,-23.0,-119.0,157,94,103,120,115
2025-02-26 14:11:00.545,-1277.0,1057.0,-371.0,352.0,-16.0,-156.0,157,96,95,117,117
2025-02-26 14:11:00.550,-1447.0,1368.0,-240.0,396.0,8.0,-199.0,158,97,100,114,116
2025-02-26 14:11:00.557,-1447.0,1483.0,-675.0,377.0,-46.0,-247.0,153,99,105,114,118
2025-02-26 14:11:00.562,-1515.0,1625.0,-367.0,394.0,-61.0,-300.0,153,103,104,114,118
2025-02-26 14:11:00.566,-1545.0,1616.0,-981.0,378.0,-91.0,-348.0,153,106,107,115,119
2025-02-26 14:11:00.571,-1445.0,1757.0,-850.0,352.0,-133.0,-405.0,155,110,113,114,117
2025-02-26 14:11:00.578,-1199.0,1816.0,-804.0,344.0,-165.0,-461.0,155,113,114,117,119
2025-02-26 14:11:00.586,-892.0,1749.0,-879.0,345.0,-220.0,-503.0,155,117,119,118,120
2025-02-26 14:11:00.589,-518.0,1514.0,-579.0,327.0,-255.0,-552.0,156,118,120,119,120
2025-02-26 14:11:00.597,258.0,1313.0,-475.0,300.0,-261.0,-631.0,156,122,119,119,121
2025-02-26 14:11:00.602,1667.0,1153.0,-555.0,279.0,-325.0,-675.0,155,124,123,122,123
2025-02-26 14:11:00.607,2842.0,232.0,627.0,303.0,-335.0,-702.0,155,126,124,121,126
2025-02-26 14:11:00.615,3034.0,-686.0,1427.0,275.0,-256.0,-713.0,157,127,125,128,128
2025-02-26 14:11:00.619,2853.0,-1581.0,1385.0,235.0,-178.0,-689.0,158,130,125,125,127
2025-02-26 14:11:00.623,2771.0,-2188.0,539.0,235.0,-210.0,-648.0,160,133,128,128,128
2025-02-26 14:11:00.631,3021.0,-2826.0,-21.0,202.0,-269.0,-583.0,160,133,128,127,127
2025-02-26 14:11:00.635,3398.0,-3672.0,262.0,111.0,-249.0,-480.0,159,133,128,126,128
2025-02-26 14:11:00.643,3716.0,-4073.0,329.0,-2.0,-236.0,-359.0,162,133,127,126,127
2025-02-26 14:11:00.647,3555.0,-4209.0,631.0,-67.0,-184.0,-207.0,160,134,129,126,128
2025-02-26 14:11:00.655,2746.0,-4930.0,1838.0,-17.0,-122.0,-123.0,159,134,127,124,127
2025-02-26 14:11:00.660,2519.0,-5172.0,5425.0,-40.0,95.0,-46.0,161,133,128,124,131
2025-02-26 14:11:00.664,2052.0,-3992.0,3765.0,287.0,80.0,49.0,160,135,128,125,129
2025-02-26 14:11:00.672,1842.0,-3424.0,1892.0,293.0,122.0,149.0,160,134,127,122,127
2025-02-26 14:11:00.676,1494.0,-2633.0,1776.0,212.0,237.0,210.0,159,132,128,129,127
2025-02-26 14:11:00.680,1292.0,-2200.0,1176.0,35.0,295.0,283.0,161,132,127,125,129
2025-02-26 14:11:00.686,980.0,-1765.0,847.0,-72.0,201.0,286.0,161,137,127,125,131
2025-02-26 14:11:00.692,761.0,-1885.0,1148.0,-127.0,108.0,276.0,160,133,129,126,128
2025-02-26 14:11:00.697,763.0,-1808.0,1709.0,-108.0,69.0,246.0,159,134,130,124,130
2025-02-26 14:11:00.705,863.0,-1488.0,1572.0,-94.0,43.0,206.0,159,135,130,126,132
2025-02-26 14:11:00.709,757.0,-1264.0,1193.0,-45.0,12.0,178.0,158,135,128,124,130
2025-02-26 14:11:00.710,618.0,-1093.0,724.0,13.0,0.0,182.0,157,133,128,126,130
2025-02-26 14:11:00.720,237.0,-1084.0,161.0,62.0,-4.0,195.0,156,134,130,127,129
2025-02-26 14:11:00.725,-220.0,-1292.0,333.0,-45.0,-1.0,180.0,157,135,131,128,130
2025-02-26 14:11:00.730,-26.0,-1629.0,-971.0,-114.0,22.0,173.0,158,135,130,128,131
2025-02-26 14:11:00.734,-217.0,-1631.0,-221.0,-112.0,44.0,156.0,157,137,130,127,130
2025-02-26 14:11:00.741,50.0,-1529.0,99.0,-112.0,5.0,142.0,156,138,138,129,131
2025-02-26 14:11:00.746,150.0,-1309.0,644.0,-80.0,-9.0,127.0,155,136,130,126,130
2025-02-26 14:11:00.754,310.0,-1293.0,686.0,-70.0,-16.0,116.0,156,135,130,128,129
2025-02-26 14:11:00.758,381.0,-1147.0,409.0,-134.0,-41.0,112.0,157,136,130,128,132
2025-02-26 14:11:00.762,123.0,-1028.0,367.0,-187.0,-57.0,134.0,157,136,131,129,134
2025-02-26 14:11:00.770,-149.0,-1084.0,557.0,-234.0,-27.0,175.0,157,136,130,128,132
2025-02-26 14:11:00.774,-48.0,-918.0,504.0,-249.0,-16.0,192.0,158,135,129,128,130
2025-02-26 14:11:00.779,161.0,-834.0,422.0,-275.0,-21.0,205.0,157,136,130,130,131
2025-02-26 14:11:00.787,156.0,-769.0,496.0,-317.0,-20.0,210.0,164,135,129,127,130
2025-02-26 14:11:00.791,109.0,-672.0,411.0,-308.0,-26.0,212.0,155,134,129,127,132
2025-02-26 14:11:00.795,46.0,-666.0,289.0,-284.0,-22.0,213.0,156,134,127,127,130
2025-02-26 14:11:00.803,-1.0,-699.0,364.0,-264.0,-7.0,213.0,158,138,133,130,132
2025-02-26 14:11:00.807,16.0,-640.0,297.0,-240.0,6.0,210.0,157,135,132,131,131
2025-02-26 14:11:00.812,59.0,-599.0,436.0,-229.0,21.0,202.0,156,135,131,131,131
2025-02-26 14:11:00.819,48.0,-657.0,441.0,-208.0,30.0,193.0,156,135,130,127,130
2025-02-26 14:11:00.824,52.0,-649.0,329.0,-173.0,21.0,183.0,156,133,129,127,131
2025-02-26 14:11:00.828,-25.0,-716.0,707.0,-115.0,45.0,179.0,157,135,131,130,132
2025-02-26 14:11:00.836,-52.0,-632.0,503.0,-88.0,38.0,171.0,158,133,130,130,131
2025-02-26 14:11:00.840,-163.0,-592.0,446.0,-78.0,48.0,169.0,156,131,130,130,131
2025-02-26 14:11:00.844,-189.0,-522.0,250.0,-55.0,59.0,170.0,156,132,130,130,129
2025-02-26 14:11:00.849,-263.0,-482.0,127.0,-50.0,69.0,170.0,157,132,131,128,129
2025-02-26 14:11:00.856,-334.0,-469.0,117.0,-48.0,77.0,170.0,156,132,129,130,131
2025-02-26 14:11:00.861,-436.0,-415.0,85.0,-56.0,80.0,171.0,157,132,131,130,132
2025-02-26 14:11:00.864,-544.0,-360.0,-20.0,-57.0,77.0,170.0,156,132,130,129,130
2025-02-26 14:11:00.872,-625.0,-330.0,-81.0,-54.0,79.0,170.0,156,131,129,128,129
2025-02-26 14:11:00.877,-653.0,-260.0,-94.0,-50.0,82.0,165.0,154,129,127,127,129
2025-02-26 14:11:00.881,-680.0,-193.0,-132.0,-36.0,76.0,161.0,158,131,128,130,131
2025-02-26 14:11:00.889,-741.0,-147.0,-18.0,-19.0,74.0,153.0,158,132,128,130,132
2025-02-26 14:11:00.893,-744.0,-42.0,-35.0,-3.0,68.0,141.0,154,131,129,131,131
2025-02-26 14:11:00.898,-757.0,37.0,2.0,6.0,61.0,126.0,157,130,130,130,131
2025-02-26 14:11:00.902,-780.0,149.0,11.0,23.0,55.0,110.0,156,131,129,130,129
2025-02-26 14:11:00.909,-826.0,242.0,54.0,38.0,45.0,101.0,156,132,132,131,131
2025-02-26 14:11:00.914,-876.0,418.0,82.0,60.0,36.0,86.0,157,132,127,128,130
2025-02-26 14:11:00.918,-957.0,538.0,72.0,65.0,32.0,71.0,157,130,128,128,129
2025-02-26 14:11:00.923,-1072.0,661.0,-17.0,81.0,19.0,61.0,156,132,128,128,129
2025-02-26 14:11:00.930,-1111.0,783.0,55.0,90.0,15.0,43.0,158,133,129,132,130
2025-02-26 14:11:00.934,-1150.0,890.0,-120.0,84.0,16.0,21.0,159,130,125,130,130
2025-02-26 14:11:00.938,-1231.0,1014.0,-90.0,91.0,22.0,-1.0,155,131,128,130,133
2025-02-26 14:11:00.946,-1404.0,1191.0,-126.0,106.0,13.0,-15.0,156,131,128,131,130
2025-02-26 14:11:00.950,-1506.0,1311.0,-71.0,130.0,10.0,-45.0,156,132,130,130,129
2025-02-26 14:11:00.955,-1582.0,1356.0,-121.0,141.0,7.0,-81.0,156,131,128,131,129
2025-02-26 14:11:00.963,-1530.0,1457.0,-138.0,148.0,-11.0,-124.0,161,132,128,132,131
2025-02-26 14:11:00.966,-1491.0,1588.0,-166.0,166.0,-28.0,-174.0,157,132,126,131,130
2025-02-26 14:11:00.975,-1367.0,1770.0,-135.0,164.0,-48.0,-228.0,157,131,128,131,130
2025-02-26 14:11:00.977,-1197.0,1908.0,-63.0,162.0,-50.0,-280.0,154,129,128,131,129
2025-02-26 14:11:00.981,-1009.0,1833.0,-102.0,175.0,-61.0,-333.0,156,130,130,132,127
2025-02-26 14:11:00.991,-659.0,1595.0,5.0,183.0,-74.0,-386.0,155,131,127,130,128
2025-02-26 14:11:00.995,-469.0,1426.0,86.0,184.0,-78.0,-439.0,156,129,122,131,128
2025-02-26 14:11:01.000,-78.0,1351.0,66.0,191.0,-86.0,-465.0,158,130,125,130,128
2025-02-26 14:11:01.007,393.0,1113.0,-97.0,207.0,-96.0,-507.0,159,131,127,131,129
2025-02-26 14:11:01.012,822.0,778.0,-150.0,237.0,-116.0,-542.0,158,131,130,133,127
2025-02-26 14:11:01.016,1243.0,321.0,-166.0,261.0,-138.0,-571.0,158,129,127,132,128
2025-02-26 14:11:01.024,1634.0,-261.0,-148.0,282.0,-153.0,-593.0,157,131,127,133,128
2025-02-26 14:11:01.028,1964.0,-887.0,28.0,298.0,-161.0,-604.0,157,131,127,132,128
2025-02-26 14:11:01.036,2101.0,-1482.0,89.0,296.0,-191.0,-593.0,156,130,128,130,127
2025-02-26 14:11:01.040,2294.0,-2348.0,610.0,364.0,-202.0,-563.0,158,128,127,133,125
2025-02-26 14:11:01.045,2708.0,-3136.0,1375.0,375.0,-177.0,-514.0,158,129,127,130,127
2025-02-26 14:11:01.053,3259.0,-4009.0,1599.0,288.0,-115.0,-429.0,156,129,127,130,126
2025-02-26 14:11:01.057,3301.0,-4944.0,1902.0,200.0,-83.0,-304.0,158,130,129,130,125
2025-02-26 14:11:01.065,3041.0,-5155.0,2399.0,144.0,-34.0,-239.0,160,130,130,130,127
2025-02-26 14:11:01.069,2822.0,-4823.0,2404.0,76.0,45.0,-111.0,160,130,128,133,127
2025-02-26 14:11:01.074,2118.0,-5174.0,2832.0,110.0,144.0,47.0,159,131,130,130,128
2025-02-26 14:11:01.078,1767.0,-4308.0,2308.0,154.0,174.0,150.0,161,130,131,130,129
2025-02-26 14:11:01.085,1779.0,-3217.0,2265.0,156.0,162.0,230.0,163,131,129,129,128
2025-02-26 14:11:01.090,1662.0,-2392.0,2235.0,96.0,211.0,265.0,162,131,131,130,129
2025-02-26 14:11:01.098,1320.0,-1731.0,1937.0,66.0,227.0,256.0,160,129,129,129,129
2025-02-26 14:11:01.102,959.0,-1256.0,1138.0,10.0,152.0,231.0,163,132,131,130,129
2025-02-26 14:11:01.106,889.0,-1209.0,790.0,-54.0,104.0,195.0,160,130,128,129,126
2025-02-26 14:11:01.114,988.0,-1211.0,838.0,-133.0,27.0,180.0,159,130,129,129,126
2025-02-26 14:11:01.118,1013.0,-1178.0,965.0,-181.0,10.0,174.0,160,130,128,129,122
2025-02-26 14:11:01.126,665.0,-1355.0,432.0,-228.0,-13.0,172.0,163,134,127,137,126
2025-02-26 14:11:01.131,404.0,-1402.0,389.0,-246.0,10.0,172.0,160,129,126,132,126
2025-02-26 14:11:01.133,239.0,-1689.0,147.0,-294.0,37.0,163.0,159,130,128,132,124
2025-02-26 14:11:01.143,225.0,-1736.0,253.0,-304.0,53.0,151.0,160,130,126,132,123
2025-02-26 14:11:01.145,195.0,-1645.0,658.0,-294.0,52.0,146.0,157,128,124,129,122
2025-02-26 14:11:01.151,134.0,-1667.0,883.0,-328.0,20.0,150.0,157,126,124,130,121
2025-02-26 14:11:01.159,191.0,-1663.0,848.0,-407.0,-23.0,157.0,158,127,123,129,120
2025-02-26 14:11:01.163,444.0,-1454.0,459.0,-494.0,-79.0,175.0,162,130,125,131,122
2025-02-26 14:11:01.168,377.0,-1314.0,445.0,-547.0,-135.0,198.0,159,127,127,132,122
2025-02-26 14:11:01.176,341.0,-1332.0,279.0,-536.0,-178.0,219.0,158,128,127,130,122
2025-02-26 14:11:01.177,145.0,-1206.0,-36.0,-498.0,-176.0,212.0,159,127,129,131,122
2025-02-26 14:11:01.184,205.0,-1064.0,656.0,-440.0,-25.0,232.0,159,126,127,131,121
2025-02-26 14:11:01.192,85.0,-738.0,369.0,-368.0,34.0,248.0,160,126,126,129,123
2025-02-26 14:11:01.196,110.0,-893.0,140.0,-337.0,25.0,258.0,157,125,128,129,122
2025-02-26 14:11:01.201,209.0,-926.0,398.0,-275.0,-1.0,261.0,159,124,125,130,121
2025-02-26 14:11:01.208,210.0,-942.0,153.0,-263.0,-41.0,263.0,160,126,126,131,122
2025-02-26 14:11:01.212,201.0,-848.0,227.0,-242.0,-60.0,264.0,159,124,124,129,122
2025-02-26 14:11:01.217,176.0,-680.0,282.0,-218.0,-47.0,265.0,158,125,124,129,122
2025-02-26 14:11:01.224,179.0,-599.0,380.0,-170.0,-13.0,265.0,157,124,131,132,122
2025-02-26 14:11:01.228,166.0,-539.0,309.0,-129.0,0.0,268.0,157,124,123,129,121
2025-02-26 14:11:01.233,79.0,-441.0,290.0,-94.0,10.0,267.0,156,124,127,128,120
2025-02-26 14:11:01.241,79.0,-402.0,311.0,-67.0,26.0,260.0,157,123,125,129,120
2025-02-26 14:11:01.244,36.0,-376.0,250.0,-66.0,57.0,249.0,158,122,122,127,120
2025-02-26 14:11:01.250,-103.0,-274.0,191.0,-49.0,58.0,247.0,156,117,118,126,118
2025-02-26 14:11:01.254,-182.0,-250.0,-51.0,-37.0,53.0,242.0,153,117,117,124,118
2025-02-26 14:11:01.261,-276.0,-185.0,255.0,-32.0,71.0,239.0,154,115,118,123,119
2025-02-26 14:11:01.266,-361.0,-248.0,-179.0,-18.0,104.0,249.0,154,112,116,125,117
2025-02-26 14:11:01.269,-463.0,-93.0,-166.0,-29.0,82.0,241.0,153,112,116,124,117
2025-02-26 14:11:01.278,-510.0,-54.0,-65.0,-49.0,90.0,238.0,155,111,116,124,117
2025-02-26 14:11:01.280,-566.0,110.0,-156.0,-60.0,91.0,232.0,153,107,113,122,114
2025-02-26 14:11:01.286,-569.0,171.0,-146.0,-49.0,93.0,225.0,154,102,111,123,112
2025-02-26 14:11:01.294,-573.0,179.0,-164.0,-34.0,97.0,219.0,155,101,108,122,111
2025-02-26 14:11:01.299,-636.0,171.0,-266.0,-26.0,89.0,207.0,155,90,109,122,113
2025-02-26 14:11:01.303,-739.0,137.0,-236.0,-40.0,84.0,197.0,155,87,105,121,114
2025-02-26 14:11:01.310,-726.0,285.0,-334.0,-40.0,68.0,183.0,155,83,103,121,110
2025-02-26 14:11:01.315,-771.0,409.0,-475.0,-45.0,52.0,163.0,153,76,97,120,107
2025-02-26 14:11:01.319,-880.0,364.0,-303.0,-37.0,34.0,154.0,153,73,95,116,105
2025-02-26 14:11:01.323,-959.0,456.0,-287.0,-19.0,6.0,139.0,155,70,96,114,104
2025-02-26 14:11:01.331,-981.0,617.0,-305.0,-10.0,-16.0,123.0,154,67,93,110,100
2025-02-26 14:11:01.335,-1069.0,740.0,-323.0,11.0,-30.0,103.0,154,64,88,110,99
2025-02-26 14:11:01.340,-1081.0,816.0,-259.0,42.0,-52.0,89.0,156,61,87,111,101
2025-02-26 14:11:01.347,-1051.0,894.0,-5.0,75.0,-67.0,69.0,153,60,82,108,99
2025-02-26 14:11:01.352,-1281.0,809.0,13.0,84.0,-89.0,31.0,155,57,79,104,98
2025-02-26 14:11:01.356,-1195.0,1245.0,-357.0,119.0,-113.0,-10.0,155,56,74,102,98
2025-02-26 14:11:01.360,-1036.0,1160.0,194.0,183.0,-104.0,-13.0,155,56,73,100,98
2025-02-26 14:11:01.368,-1036.0,1145.0,260.0,220.0,-65.0,-25.0,156,56,72,98,96
2025-02-26 14:11:01.372,-1145.0,1377.0,-22.0,237.0,-68.0,-68.0,155,54,69,93,92
2025-02-26 14:11:01.376,-1036.0,1352.0,-156.0,246.0,-84.0,-97.0,155,53,69,94,88
2025-02-26 14:11:01.382,-1057.0,1501.0,228.0,288.0,-72.0,-135.0,155,53,70,94,85
2025-02-26 14:11:01.388,-1084.0,1540.0,447.0,328.0,-22.0,-155.0,155,50,67,90,81
2025-02-26 14:11:01.392,-1075.0,1366.0,687.0,223.0,63.0,-188.0,152,53,66,91,80
2025-02-26 14:11:01.397,-983.0,1379.0,184.0,189.0,73.0,-224.0,154,52,67,88,77
2025-02-26 14:11:01.404,-1061.0,1581.0,461.0,181.0,82.0,-253.0,153,52,71,86,75
2025-02-26 14:11:01.408,-995.0,1305.0,-233.0,130.0,51.0,-290.0,154,52,65,83,74
2025-02-26 14:11:01.413,-916.0,1311.0,312.0,76.0,42.0,-312.0,156,52,66,83,77
2025-02-26 14:11:01.417,-890.0,1110.0,24.0,89.0,52.0,-347.0,153,52,65,84,83
2025-02-26 14:11:01.426,-797.0,1104.0,-212.0,82.0,52.0,-388.0,153,51,67,84,86
2025-02-26 14:11:01.430,-793.0,638.0,-16.0,155.0,102.0,-394.0,152,50,66,83,85
2025-02-26 14:11:01.431,-617.0,955.0,-606.0,144.0,16.0,-448.0,155,52,67,86,85
2025-02-26 14:11:01.438,129.0,1246.0,-1084.0,169.0,-76.0,-474.0,154,52,67,83,80
2025-02-26 14:11:01.446,788.0,1418.0,-1379.0,193.0,-94.0,-500.0,154,53,67,82,77
2025-02-26 14:11:01.450,351.0,394.0,-539.0,166.0,-53.0,-514.0,152,49,67,81,74
2025-02-26 14:11:01.454,-219.0,288.0,99.0,137.0,-48.0,-534.0,153,52,68,79,74
2025-02-26 14:11:01.459,209.0,73.0,239.0,155.0,-176.0,-545.0,155,53,71,82,73
2025-02-26 14:11:01.466,705.0,-427.0,256.0,235.0,-265.0,-562.0,153,52,71,78,71
2025-02-26 14:11:01.471,1740.0,-508.0,277.0,296.0,-315.0,-574.0,153,50,71,78,70
2025-02-26 14:11:01.475,2294.0,-1081.0,286.0,296.0,-196.0,-590.0,153,51,73,77,70
2025-02-26 14:11:01.483,2604.0,-2100.0,1028.0,356.0,-120.0,-564.0,156,53,75,80,71
2025-02-26 14:11:01.487,3166.0,-3407.0,1776.0,402.0,-144.0,-524.0,155,53,74,79,69
2025-02-26 14:11:01.491,3511.0,-4685.0,2525.0,494.0,-157.0,-452.0,154,52,75,77,68
2025-02-26 14:11:01.498,3596.0,-6002.0,2969.0,564.0,-115.0,-338.0,155,51,76,78,68
2025-02-26 14:11:01.504,3601.0,-6526.0,3067.0,619.0,19.0,-269.0,154,61,77,79,73
2025-02-26 14:11:01.508,3402.0,-6420.0,2697.0,652.0,121.0,-128.0,157,53,79,80,67
2025-02-26 14:11:01.515,2817.0,-5066.0,2728.0,577.0,197.0,-2.0,156,53,76,79,66
2025-02-26 14:11:01.519,2077.0,-3043.0,2550.0,480.0,239.0,86.0,155,52,75,79,65
2025-02-26 14:11:01.524,1853.0,-1428.0,2104.0,235.0,243.0,128.0,154,53,76,79,65
2025-02-26 14:11:01.528,1274.0,-883.0,1661.0,-27.0,215.0,138.0,155,51,76,78,64
2025-02-26 14:11:01.536,775.0,-364.0,1390.0,-262.0,128.0,132.0,156,54,76,79,64
2025-02-26 14:11:01.540,509.0,-404.0,801.0,-358.0,53.0,117.0,155,54,76,80,65
2025-02-26 14:11:01.544,404.0,-998.0,412.0,-498.0,24.0,115.0,153,52,74,78,64
2025-02-26 14:11:01.548,288.0,-1351.0,188.0,-564.0,-2.0,119.0,155,53,75,79,63
2025-02-26 14:11:01.557,306.0,-2034.0,153.0,-551.0,-20.0,125.0,156,53,73,82,64
2025-02-26 14:11:01.561,365.0,-2516.0,147.0,-525.0,-32.0,129.0,157,54,78,79,64
2025-02-26 14:11:01.565,351.0,-2733.0,299.0,-447.0,-36.0,140.0,155,53,69,78,64
2025-02-26 14:11:01.572,413.0,-2800.0,443.0,-350.0,-50.0,148.0,155,53,71,79,64
2025-02-26 14:11:01.577,470.0,-2800.0,527.0,-265.0,-55.0,165.0,156,55,76,80,66
2025-02-26 14:11:01.581,528.0,-2539.0,578.0,-218.0,-60.0,184.0,157,54,75,82,66
2025-02-26 14:11:01.585,552.0,-2134.0,634.0,-168.0,-50.0,199.0,154,55,73,82,65
2025-02-26 14:11:01.593,577.0,-1850.0,625.0,-136.0,-24.0,203.0,156,53,73,79,66
2025-02-26 14:11:01.597,616.0,-1720.0,594.0,-124.0,-7.0,211.0,155,54,73,80,67
2025-02-26 14:11:01.602,522.0,-1481.0,560.0,-120.0,0.0,220.0,155,55,73,75,67
2025-02-26 14:11:01.606,411.0,-1182.0,508.0,-124.0,5.0,226.0,153,53,72,82,67
2025-02-26 14:11:01.614,369.0,-1101.0,382.0,-140.0,21.0,228.0,152,52,71,80,65
2025-02-26 14:11:01.618,254.0,-928.0,347.0,-146.0,17.0,228.0,154,55,70,82,67
2025-02-26 14:11:01.622,166.0,-807.0,178.0,-142.0,6.0,224.0,158,54,75,80,66
2025-02-26 14:11:01.627,91.0,-622.0,56.0,-129.0,1.0,218.0,153,52,69,78,64
2025-02-26 14:11:01.631,17.0,-557.0,48.0,-127.0,3.0,216.0,151,52,70,76,63
2025-02-26 14:11:01.638,-88.0,-399.0,-16.0,-127.0,3.0,207.0,152,55,69,79,66
2025-02-26 14:11:01.643,-83.0,-370.0,22.0,-120.0,-5.0,198.0,161,62,78,87,74
2025-02-26 14:11:01.647,-134.0,-222.0,81.0,-124.0,-29.0,194.0,191,94,111,119,106
2025-02-26 14:11:01.654,-189.0,-236.0,95.0,-130.0,-38.0,183.0,197,101,121,122,111
2025-02-26 14:11:01.658,-192.0,-255.0,154.0,-132.0,-39.0,175.0,178,82,101,106,95
2025-02-26 14:11:01.663,-198.0,-293.0,243.0,-131.0,-36.0,169.0,194,98,115,122,110
2025-02-26 14:11:01.670,-200.0,-341.0,270.0,-127.0,-30.0,166.0,207,110,128,135,124
2025-02-26 14:11:01.675,-193.0,-330.0,361.0,-130.0,-16.0,167.0,204,112,128,135,124
2025-02-26 14:11:01.679,-213.0,-454.0,337.0,-131.0,-1.0,164.0,221,127,144,151,140
2025-02-26 14:11:01.687,-306.0,-327.0,282.0,-119.0,19.0,164.0,216,124,141,147,137
2025-02-26 14:11:01.691,-262.0,-313.0,309.0,-120.0,24.0,163.0,198,106,124,130,118
2025-02-26 14:11:01.696,-339.0,-220.0,187.0,-123.0,30.0,159.0,212,119,137,144,133
2025-02-26 14:11:01.704,-497.0,-315.0,120.0,-122.0,36.0,157.0,216,126,141,149,137
2025-02-26 14:11:01.708,-471.0,-299.0,59.0,-132.0,38.0,154.0,212,119,133,143,130
2025-02-26 14:11:01.711,-542.0,-235.0,5.0,-137.0,36.0,152.0,219,125,141,149,137
2025-02-26 14:11:01.720,-612.0,-250.0,-56.0,-142.0,33.0,145.0,223,134,148,159,146
2025-02-26 14:11:01.723,-649.0,-158.0,-124.0,-126.0,42.0,139.0,248,158,170,180,167
2025-02-26 14:11:01.729,-673.0,-152.0,-109.0,-124.0,44.0,129.0,214,122,136,147,135
2025-02-26 14:11:01.734,-652.0,-105.0,-126.0,-95.0,30.0,114.0,214,123,135,144,134
2025-02-26 14:11:01.741,-664.0,-63.0,-97.0,-79.0,20.0,98.0,214,123,135,147,134
2025-02-26 14:11:01.745,-641.0,-83.0,-54.0,-72.0,10.0,94.0,219,125,138,149,138
2025-02-26 14:11:01.747,-594.0,6.0,-40.0,-65.0,7.0,82.0,219,127,140,151,140
2025-02-26 14:11:01.757,-612.0,-51.0,-73.0,-56.0,6.0,77.0,205,115,128,138,126
2025-02-26 14:11:01.762,-595.0,-92.0,-5.0,-49.0,6.0,73.0,191,97,109,120,107
2025-02-26 14:11:01.765,-608.0,-56.0,-2.0,-43.0,8.0,73.0,179,83,98,108,97
2025-02-26 14:11:01.770,-637.0,-55.0,7.0,-39.0,10.0,70.0,169,70,85,98,87
2025-02-26 14:11:01.774,-663.0,-11.0,-31.0,-29.0,13.0,71.0,176,79,92,105,92
2025-02-26 14:11:01.781,-727.0,49.0,-40.0,-25.0,14.0,70.0,194,98,113,125,112
2025-02-26 14:11:01.786,-812.0,145.0,-54.0,-18.0,8.0,64.0,215,123,135,146,136
2025-02-26 14:11:01.789,-859.0,204.0,-56.0,-6.0,5.0,53.0,208,114,126,138,127
2025-02-26 14:11:01.794,-855.0,229.0,-101.0,-1.0,-4.0,45.0,211,115,128,139,128
2025-02-26 14:11:01.802,-928.0,392.0,-127.0,10.0,-13.0,28.0,216,126,140,150,138
2025-02-26 14:11:01.806,-1030.0,508.0,-142.0,16.0,-17.0,12.0,207,113,126,138,127
2025-02-26 14:11:01.810,-1099.0,664.0,-129.0,27.0,-21.0,-9.0,180,85,98,110,98
2025-02-26 14:11:01.819,-1125.0,757.0,-119.0,35.0,-23.0,-35.0,179,83,95,107,94
2025-02-26 14:11:01.822,-1106.0,826.0,-94.0,47.0,-26.0,-51.0,181,84,98,112,98
2025-02-26 14:11:01.826,-1139.0,927.0,-88.0,54.0,-26.0,-81.0,179,83,99,109,98
2025-02-26 14:11:01.832,-1172.0,1026.0,-63.0,57.0,-20.0,-112.0,176,81,95,105,92
2025-02-26 14:11:01.838,-1157.0,1039.0,-55.0,69.0,-16.0,-143.0,176,80,96,106,92
2025-02-26 14:11:01.843,-1115.0,1113.0,-64.0,79.0,-6.0,-159.0,179,82,98,108,97
2025-02-26 14:11:01.848,-1069.0,1139.0,-51.0,94.0,2.0,-193.0,178,82,97,107,95
2025-02-26 14:11:01.852,-1054.0,1189.0,-72.0,102.0,7.0,-232.0,178,81,97,106,95
2025-02-26 14:11:01.860,-1026.0,1220.0,-85.0,117.0,12.0,-280.0,177,81,95,107,95
2025-02-26 14:11:01.863,-878.0,1251.0,-127.0,137.0,27.0,-308.0,174,78,93,104,94
2025-02-26 14:11:01.868,-722.0,1091.0,-142.0,163.0,33.0,-371.0,179,81,97,108,97
2025-02-26 14:11:01.876,-406.0,1175.0,-174.0,198.0,19.0,-432.0,177,81,96,107,97
2025-02-26 14:11:01.881,-202.0,968.0,-189.0,208.0,-10.0,-482.0,179,83,99,109,99
2025-02-26 14:11:01.885,-52.0,731.0,-220.0,223.0,-26.0,-520.0,178,79,96,107,94
2025-02-26 14:11:01.888,111.0,576.0,-237.0,232.0,-58.0,-532.0,175,80,96,107,96
2025-02-26 14:11:01.896,323.0,271.0,-238.0,237.0,-88.0,-542.0,178,83,99,109,100
2025-02-26 14:11:01.901,657.0,9.0,-169.0,239.0,-117.0,-545.0,181,85,101,114,104
2025-02-26 14:11:01.905,1044.0,-281.0,-57.0,244.0,-127.0,-550.0,185,91,108,116,106
2025-02-26 14:11:01.911,1251.0,-718.0,78.0,239.0,-144.0,-549.0,187,94,109,119,113
2025-02-26 14:11:01.917,1564.0,-1302.0,231.0,240.0,-162.0,-544.0,188,94,112,122,115
2025-02-26 14:11:01.923,1936.0,-1729.0,404.0,246.0,-177.0,-523.0,178,82,101,111,101
2025-02-26 14:11:01.929,2349.0,-2490.0,793.0,253.0,-179.0,-490.0,181,87,105,114,108
2025-02-26 14:11:01.933,2818.0,-3581.0,1418.0,239.0,-146.0,-418.0,170,72,93,100,94
2025-02-26 14:11:01.941,3506.0,-5065.0,1650.0,237.0,-84.0,-301.0,197,102,125,129,125
2025-02-26 14:11:01.945,3588.0,-5867.0,2188.0,283.0,-21.0,-146.0,204,109,135,136,132
2025-02-26 14:11:01.949,3438.0,-6113.0,2444.0,300.0,35.0,-12.0,173,74,105,104,97
2025-02-26 14:11:01.958,3248.0,-5406.0,2560.0,288.0,155.0,106.0,168,69,101,99,93
2025-02-26 14:11:01.962,3041.0,-4176.0,2224.0,250.0,216.0,185.0,162,66,92,98,90
2025-02-26 14:11:01.966,2563.0,-3545.0,1713.0,160.0,269.0,212.0,164,64,91,93,87
2025-02-26 14:11:01.974,1843.0,-2464.0,1283.0,24.0,246.0,248.0,166,66,92,99,90
2025-02-26 14:11:01.977,1283.0,-1371.0,1117.0,-109.0,180.0,248.0,168,69,93,97,90
2025-02-26 14:11:01.983,883.0,-950.0,707.0,-175.0,109.0,246.0,175,76,103,107,101
2025-02-26 14:11:01.989,574.0,-702.0,347.0,-271.0,69.0,239.0,189,94,113,123,114
2025-02-26 14:11:01.995,428.0,-774.0,291.0,-335.0,23.0,235.0,174,77,95,105,97
2025-02-26 14:11:01.999,319.0,-961.0,13.0,-380.0,25.0,221.0,164,68,85,96,90
2025-02-26 14:11:02.003,127.0,-1284.0,-60.0,-394.0,32.0,198.0,172,75,91,105,97
2025-02-26 14:11:02.010,99.0,-1560.0,-158.0,-378.0,25.0,177.0,180,85,101,113,106
2025-02-26 14:11:02.015,83.0,-1738.0,-144.0,-366.0,-4.0,171.0,181,86,104,115,109
2025-02-26 14:11:02.020,4.0,-1857.0,-72.0,-339.0,-40.0,166.0,182,88,105,118,110
2025-02-26 14:11:02.027,-90.0,-2055.0,-8.0,-318.0,-92.0,174.0,179,85,102,115,106
2025-02-26 14:11:02.032,78.0,-2069.0,54.0,-305.0,-128.0,187.0,176,83,98,112,105
2025-02-26 14:11:02.035,199.0,-1957.0,129.0,-279.0,-135.0,205.0,175,80,96,110,103
2025-02-26 14:11:02.040,263.0,-1806.0,225.0,-274.0,-139.0,220.0,176,81,96,111,104
2025-02-26 14:11:02.048,382.0,-1742.0,270.0,-272.0,-132.0,226.0,177,81,96,107,102
2025-02-26 14:11:02.052,365.0,-1618.0,341.0,-254.0,-129.0,240.0,178,85,98,113,106
2025-02-26 14:11:02.060,425.0,-1465.0,303.0,-253.0,-105.0,249.0,181,87,102,116,108
2025-02-26 14:11:02.064,361.0,-1216.0,349.0,-271.0,-72.0,256.0,171,75,90,105,96
2025-02-26 14:11:02.068,409.0,-987.0,381.0,-277.0,-42.0,258.0,165,69,82,101,89
2025-02-26 14:11:02.072,336.0,-923.0,317.0,-254.0,-35.0,262.0,161,66,79,95,86
2025-02-26 14:11:02.081,261.0,-784.0,269.0,-236.0,-18.0,263.0,163,69,83,98,90
2025-02-26 14:11:02.085,243.0,-660.0,279.0,-232.0,7.0,264.0,162,68,82,96,88
2025-02-26 14:11:02.089,166.0,-489.0,192.0,-223.0,34.0,264.0,160,67,83,95,86
2025-02-26 14:11:02.093,92.0,-355.0,72.0,-186.0,45.0,267.0,160,66,83,95,86
2025-02-26 14:11:02.097,-52.0,-316.0,92.0,-159.0,55.0,270.0,162,69,87,97,89
2025-02-26 14:11:02.105,-148.0,-171.0,179.0,-154.0,52.0,263.0,162,70,87,94,88
2025-02-26 14:11:02.110,-203.0,-141.0,33.0,-98.0,46.0,256.0,157,67,87,95,86
2025-02-26 14:11:02.113,-275.0,-128.0,106.0,-62.0,31.0,252.0,160,70,87,96,88
2025-02-26 14:11:02.118,-333.0,-80.0,137.0,-42.0,21.0,244.0,159,70,87,99,88
2025-02-26 14:11:02.126,-392.0,-59.0,19.0,-8.0,19.0,235.0,158,69,84,98,86
2025-02-26 14:11:02.130,-415.0,-34.0,-10.0,6.0,26.0,232.0,159,69,82,99,88
2025-02-26 14:11:02.134,-481.0,-39.0,-52.0,4.0,42.0,225.0,160,71,83,99,89
2025-02-26 14:11:02.139,-502.0,16.0,34.0,8.0,54.0,223.0,156,72,81,101,88
2025-02-26 14:11:02.143,-531.0,-78.0,-105.0,18.0,47.0,221.0,158,73,83,100,91
2025-02-26 14:11:02.147,-567.0,115.0,13.0,12.0,47.0,202.0,157,72,84,101,91
2025-02-26 14:11:02.154,-518.0,166.0,-325.0,13.0,36.0,198.0,157,71,84,100,89
2025-02-26 14:11:02.158,-562.0,84.0,-17.0,-1.0,52.0,197.0,157,76,87,102,92
2025-02-26 14:11:02.163,-591.0,88.0,-91.0,7.0,61.0,196.0,158,75,88,102,92
2025-02-26 14:11:02.168,-615.0,213.0,-191.0,-1.0,57.0,190.0,156,73,84,103,90
2025-02-26 14:11:02.175,-706.0,199.0,-21.0,-9.0,64.0,189.0,158,75,86,103,91
2025-02-26 14:11:02.177,-731.0,270.0,-162.0,-19.0,67.0,184.0,158,77,88,105,91
2025-02-26 14:11:02.183,-768.0,438.0,-199.0,-20.0,65.0,176.0,154,76,86,104,91
2025-02-26 14:11:02.188,-814.0,503.0,-225.0,-22.0,58.0,170.0,158,76,86,102,90
2025-02-26 14:11:02.195,-908.0,649.0,-230.0,-5.0,47.0,155.0,158,78,90,105,92
2025-02-26 14:11:02.199,-953.0,795.0,-355.0,8.0,42.0,131.0,157,77,92,105,93
2025-02-26 14:11:02.200,-976.0,881.0,-381.0,34.0,28.0,117.0,153,77,91,104,92
2025-02-26 14:11:02.208,-919.0,906.0,-495.0,52.0,11.0,82.0,158,82,95,106,93
2025-02-26 14:11:02.213,-955.0,981.0,-396.0,62.0,-4.0,39.0,156,83,96,106,95
2025-02-26 14:11:02.220,-899.0,902.0,-361.0,83.0,-10.0,18.0,156,86,97,106,96
2025-02-26 14:11:02.225,-831.0,863.0,-324.0,106.0,-3.0,-18.0,156,91,101,109,98
2025-02-26 14:11:02.229,-775.0,759.0,-405.0,118.0,-3.0,-46.0,158,94,100,110,98
2025-02-26 14:11:02.233,-793.0,721.0,-537.0,141.0,-8.0,-69.0,155,93,103,108,98
2025-02-26 14:11:02.237,-789.0,773.0,-514.0,156.0,-27.0,-90.0,155,101,108,110,100
2025-02-26 14:11:02.245,-915.0,750.0,-562.0,175.0,-52.0,-98.0,158,107,111,114,102
2025-02-26 14:11:02.248,-1017.0,906.0,-591.0,188.0,-96.0,-119.0,166,118,122,121,114
2025-02-26 14:11:02.255,-1132.0,1127.0,-484.0,183.0,-137.0,-146.0,171,127,130,125,118
2025-02-26 14:11:02.262,-1253.0,1286.0,-94.0,187.0,-158.0,-169.0,172,128,131,127,119
2025-02-26 14:11:02.269,-1308.0,1166.0,154.0,195.0,-148.0,-181.0,169,129,133,125,115
2025-02-26 14:11:02.273,-1105.0,1190.0,59.0,201.0,-134.0,-216.0,169,129,134,122,115
2025-02-26 14:11:02.282,-878.0,1168.0,-24.0,207.0,-127.0,-289.0,164,129,134,125,115
2025-02-26 14:11:02.286,-692.0,1017.0,-121.0,224.0,-92.0,-323.0,162,130,138,124,116
2025-02-26 14:11:02.290,-578.0,1033.0,-5.0,263.0,-71.0,-362.0,163,128,134,119,113
