timestamp,ax,ay,az,gx,gy,gz,flex1,flex2,flex3,flex4,flex5,emg1,emg2,emg3
2025-02-26 14:41:36.884,-233.0,-894.0,431.0,0.0,-3.0,-3.0,144,114,122,124,124
2025-02-26 14:41:36.892,-233.0,-889.0,435.0,0.0,-2.0,-3.0,143,113,122,124,122
2025-02-26 14:41:36.894,-234.0,-883.0,431.0,1.0,-2.0,-4.0,143,114,122,125,124
2025-02-26 14:41:36.896,-230.0,-884.0,430.0,1.0,-2.0,-4.0,145,114,123,125,123
2025-02-26 14:41:36.898,-239.0,-880.0,423.0,1.0,-2.0,-4.0,143,114,121,124,123
2025-02-26 14:41:36.901,-230.0,-882.0,433.0,0.0,-2.0,-4.0,143,113,121,123,124
2025-02-26 14:41:36.903,-234.0,-886.0,433.0,-1.0,-2.0,-4.0,144,114,123,126,124
2025-02-26 14:41:36.906,-236.0,-895.0,433.0,-2.0,-3.0,-4.0,144,113,123,124,123
2025-02-26 14:41:36.908,-235.0,-892.0,437.0,-2.0,-2.0,-3.0,143,113,122,125,123
2025-02-26 14:41:36.908,-238.0,-895.0,433.0,-2.0,-2.0,-3.0,144,114,123,124,123
2025-02-26 14:41:36.908,-240.0,-898.0,430.0,-1.0,-3.0,-2.0,145,114,123,126,124
2025-02-26 14:41:36.915,-240.0,-898.0,441.0,0.0,-3.0,-2.0,145,113,122,122,123
2025-02-26 14:41:36.917,-241.0,-906.0,438.0,0.0,-3.0,-2.0,145,113,122,123,123
2025-02-26 14:41:36.919,-239.0,-896.0,436.0,0.0,-4.0,-1.0,143,113,122,124,123
2025-02-26 14:41:36.920,-239.0,-890.0,434.0,0.0,-3.0,-1.0,145,114,123,125,123
2025-02-26 14:41:36.920,-237.0,-885.0,435.0,0.0,-3.0,-1.0,144,114,122,124,124
2025-02-26 14:41:36.926,-237.0,-886.0,430.0,0.0,-3.0,0.0,143,112,122,124,123
2025-02-26 14:41:36.929,-235.0,-878.0,437.0,0.0,-3.0,0.0,144,113,121,124,123
2025-02-26 14:41:36.931,-238.0,-878.0,431.0,0.0,-3.0,0.0,145,115,123,127,125
2025-02-26 14:41:36.932,-238.0,-880.0,426.0,0.0,-3.0,0.0,144,114,123,125,124
2025-02-26 14:41:36.932,-238.0,-877.0,431.0,0.0,-3.0,0.0,144,113,122,124,124
2025-02-26 14:41:36.932,-237.0,-880.0,435.0,0.0,-2.0,0.0,144,113,122,124,123
2025-02-26 14:41:36.939,-238.0,-887.0,435.0,0.0,-2.0,0.0,142,112,121,124,123
2025-02-26 14:41:36.939,-238.0,-888.0,437.0,0.0,-2.0,0.0,146,115,122,126,124
2025-02-26 14:41:36.939,-239.0,-896.0,436.0,1.0,-2.0,0.0,143,113,121,126,125
2025-02-26 14:41:36.945,-241.0,-894.0,438.0,1.0,-2.0,-1.0,144,113,121,123,123
2025-02-26 14:41:36.945,-240.0,-895.0,440.0,2.0,-1.0,0.0,145,113,122,125,123
2025-02-26 14:41:36.951,-241.0,-895.0,437.0,2.0,-2.0,0.0,144,114,122,124,124
2025-02-26 14:41:36.952,-242.0,-898.0,444.0,1.0,-2.0,0.0,144,113,122,124,123
2025-02-26 14:41:36.957,-241.0,-891.0,436.0,1.0,-2.0,0.0,143,112,122,125,123
2025-02-26 14:41:36.959,-236.0,-892.0,435.0,1.0,-2.0,1.0,145,114,123,125,125
2025-02-26 14:41:36.965,-240.0,-893.0,437.0,0.0,-2.0,1.0,144,113,123,124,123
2025-02-26 14:41:36.970,-233.0,-888.0,437.0,0.0,-3.0,1.0,144,112,122,124,123
2025-02-26 14:41:36.973,-233.0,-885.0,439.0,0.0,-3.0,1.0,144,114,122,125,123
2025-02-26 14:41:36.981,-237.0,-893.0,436.0,0.0,-3.0,1.0,145,114,122,125,124
2025-02-26 14:41:36.986,-236.0,-889.0,440.0,0.0,-3.0,1.0,144,114,122,124,123
2025-02-26 14:41:36.991,-234.0,-889.0,436.0,0.0,-3.0,1.0,144,113,122,124,123
2025-02-26 14:41:36.993,-241.0,-868.0,436.0,0.0,-3.0,1.0,144,116,121,123,124
2025-02-26 14:41:37.002,-254.0,-878.0,444.0,2.0,-4.0,1.0,143,111,122,124,123
2025-02-26 14:41:37.005,-252.0,-877.0,453.0,-1.0,-3.0,0.0,144,114,122,126,124
2025-02-26 14:41:37.011,-236.0,-869.0,437.0,0.0,-1.0,0.0,145,113,122,124,124
2025-02-26 14:41:37.014,-249.0,-892.0,411.0,1.0,-4.0,0.0,144,113,122,125,124
2025-02-26 14:41:37.022,-236.0,-866.0,449.0,0.0,-2.0,0.0,144,114,123,126,124
2025-02-26 14:41:37.027,-240.0,-881.0,437.0,-1.0,-1.0,0.0,144,114,122,125,124
2025-02-26 14:41:37.031,-247.0,-881.0,432.0,0.0,-2.0,0.0,145,113,123,125,124
2025-02-26 14:41:37.035,-237.0,-869.0,448.0,0.0,-2.0,0.0,144,113,122,124,123
2025-02-26 14:41:37.044,-238.0,-872.0,443.0,-2.0,-2.0,0.0,144,113,122,124,125
2025-02-26 14:41:37.047,-237.0,-875.0,450.0,-2.0,-1.0,0.0,143,113,123,125,124
2025-02-26 14:41:37.049,-242.0,-875.0,436.0,-2.0,-2.0,0.0,143,114,123,124,123
2025-02-26 14:41:37.059,-241.0,-875.0,448.0,-1.0,-2.0,-1.0,144,114,121,124,122
2025-02-26 14:41:37.063,-244.0,-868.0,452.0,0.0,-1.0,-1.0,145,114,122,125,124
2025-02-26 14:41:37.068,-236.0,-868.0,454.0,0.0,0.0,-1.0,144,112,122,125,124
2025-02-26 14:41:37.072,-250.0,-875.0,440.0,0.0,0.0,-2.0,143,114,122,124,123
2025-02-26 14:41:37.072,-253.0,-874.0,445.0,-1.0,-1.0,-2.0,144,113,121,124,123
2025-02-26 14:41:37.084,-252.0,-878.0,450.0,-1.0,-1.0,-2.0,144,113,121,124,124
2025-02-26 14:41:37.088,-248.0,-878.0,441.0,-2.0,-2.0,-2.0,147,114,122,126,125
2025-02-26 14:41:37.093,-249.0,-878.0,453.0,-2.0,-2.0,-2.0,143,112,122,125,124
2025-02-26 14:41:37.096,-244.0,-886.0,453.0,-2.0,-2.0,-2.0,144,113,122,124,123
2025-02-26 14:41:37.105,-241.0,-883.0,459.0,-1.0,-2.0,-2.0,145,114,121,123,124
2025-02-26 14:41:37.108,-244.0,-882.0,449.0,-2.0,-1.0,-2.0,144,114,122,125,124
2025-02-26 14:41:37.114,-235.0,-883.0,443.0,-2.0,-1.0,-2.0,144,115,122,125,123
2025-02-26 14:41:37.117,-242.0,-882.0,450.0,-2.0,-2.0,-2.0,144,113,122,125,122
2025-02-26 14:41:37.126,-232.0,-883.0,454.0,-2.0,-1.0,-2.0,144,113,121,125,123
2025-02-26 14:41:37.129,-230.0,-885.0,451.0,-2.0,-1.0,-2.0,144,114,123,126,123
2025-02-26 14:41:37.137,-235.0,-883.0,454.0,-2.0,-1.0,-2.0,144,110,122,124,125
2025-02-26 14:41:37.138,-239.0,-889.0,451.0,-2.0,0.0,-2.0,144,113,121,125,124
2025-02-26 14:41:37.146,-237.0,-886.0,450.0,-1.0,-1.0,-2.0,143,113,122,123,123
2025-02-26 14:41:37.150,-233.0,-888.0,448.0,-2.0,0.0,-2.0,144,113,121,124,122
2025-02-26 14:41:37.156,-234.0,-879.0,445.0,-2.0,0.0,-2.0,144,114,122,123,124
2025-02-26 14:41:37.156,-235.0,-887.0,439.0,-2.0,0.0,-2.0,144,114,123,124,122
2025-02-26 14:41:37.167,-237.0,-894.0,451.0,-3.0,0.0,-2.0,142,113,122,126,124
2025-02-26 14:41:37.169,-234.0,-896.0,446.0,-3.0,0.0,-2.0,144,112,121,125,124
2025-02-26 14:41:37.179,-236.0,-894.0,447.0,-3.0,0.0,-2.0,145,113,123,123,125
2025-02-26 14:41:37.180,-233.0,-894.0,450.0,-3.0,0.0,-1.0,146,114,124,125,125
2025-02-26 14:41:37.180,-234.0,-894.0,449.0,-3.0,1.0,-1.0,143,112,121,123,124
2025-02-26 14:41:37.191,-232.0,-898.0,444.0,-3.0,1.0,-1.0,144,114,123,125,123
2025-02-26 14:41:37.196,-236.0,-902.0,442.0,-2.0,1.0,-1.0,143,113,122,124,124
2025-02-26 14:41:37.203,-235.0,-900.0,438.0,-2.0,1.0,0.0,144,116,123,126,124
2025-02-26 14:41:37.208,-233.0,-895.0,439.0,-3.0,1.0,0.0,144,113,123,124,124
2025-02-26 14:41:37.212,-235.0,-896.0,444.0,-2.0,1.0,0.0,144,113,123,126,124
2025-02-26 14:41:37.220,-237.0,-893.0,441.0,-2.0,1.0,0.0,144,113,122,124,123
2025-02-26 14:41:37.223,-239.0,-885.0,439.0,-3.0,1.0,0.0,144,113,122,125,124
2025-02-26 14:41:37.228,-238.0,-885.0,439.0,-3.0,1.0,0.0,143,114,122,125,124
2025-02-26 14:41:37.232,-241.0,-886.0,435.0,-3.0,1.0,0.0,144,113,122,124,124
2025-02-26 14:41:37.240,-241.0,-881.0,433.0,-3.0,1.0,-1.0,143,113,123,124,123
2025-02-26 14:41:37.244,-241.0,-880.0,430.0,-3.0,0.0,-1.0,145,115,124,124,124
2025-02-26 14:41:37.249,-243.0,-881.0,432.0,-2.0,0.0,-1.0,145,114,123,124,125
2025-02-26 14:41:37.253,-241.0,-880.0,434.0,-2.0,0.0,-1.0,144,113,122,124,124
2025-02-26 14:41:37.260,-241.0,-883.0,431.0,-2.0,0.0,-1.0,142,113,121,123,123
2025-02-26 14:41:37.262,-241.0,-882.0,429.0,-2.0,0.0,-1.0,143,113,122,123,124
2025-02-26 14:41:37.267,-240.0,-881.0,433.0,-1.0,0.0,-1.0,144,115,123,125,124
2025-02-26 14:41:37.274,-243.0,-880.0,428.0,-1.0,0.0,-2.0,143,112,122,123,123
2025-02-26 14:41:37.281,-246.0,-883.0,424.0,-1.0,0.0,-2.0,143,112,121,122,120
2025-02-26 14:41:37.285,-242.0,-880.0,433.0,-1.0,0.0,-2.0,143,112,122,124,123
2025-02-26 14:41:37.290,-245.0,-884.0,435.0,-2.0,0.0,-2.0,144,114,122,125,126
2025-02-26 14:41:37.293,-244.0,-881.0,434.0,-2.0,-1.0,-2.0,145,114,122,125,123
2025-02-26 14:41:37.298,-245.0,-884.0,435.0,-2.0,-1.0,-2.0,144,113,122,125,122
2025-02-26 14:41:37.305,-240.0,-885.0,439.0,-2.0,-1.0,-2.0,144,113,121,125,123
2025-02-26 14:41:37.310,-244.0,-886.0,437.0,-2.0,-1.0,-2.0,144,113,123,125,124
2025-02-26 14:41:37.317,-237.0,-882.0,441.0,-1.0,-1.0,-2.0,144,113,123,125,126
2025-02-26 14:41:37.322,-238.0,-884.0,438.0,-2.0,-1.0,-2.0,145,113,122,123,123
2025-02-26 14:41:37.326,-237.0,-881.0,437.0,-1.0,0.0,-2.0,144,113,124,125,122
2025-02-26 14:41:37.330,-239.0,-885.0,441.0,-1.0,0.0,-2.0,145,114,123,126,122
2025-02-26 14:41:37.338,-240.0,-883.0,442.0,-1.0,0.0,-2.0,143,113,122,124,124
2025-02-26 14:41:37.342,-244.0,-878.0,437.0,-1.0,0.0,-2.0,146,113,122,124,123
2025-02-26 14:41:37.347,-240.0,-880.0,434.0,-1.0,0.0,-2.0,143,113,121,123,123
2025-02-26 14:41:37.351,-244.0,-875.0,436.0,-1.0,0.0,-3.0,145,114,122,124,123
2025-02-26 14:41:37.357,-246.0,-877.0,432.0,0.0,0.0,-3.0,145,114,122,124,123
2025-02-26 14:41:37.361,-245.0,-878.0,445.0,-1.0,0.0,-3.0,144,114,122,124,124
2025-02-26 14:41:37.361,-232.0,-876.0,439.0,0.0,0.0,-3.0,143,113,122,124,122
2025-02-26 14:41:37.370,-239.0,-876.0,435.0,0.0,0.0,-3.0,144,114,121,124,124
2025-02-26 14:41:37.379,-241.0,-880.0,441.0,0.0,-1.0,-4.0,144,114,122,123,123
2025-02-26 14:41:37.379,-241.0,-885.0,445.0,0.0,0.0,-4.0,145,113,122,126,124
2025-02-26 14:41:37.379,-239.0,-881.0,438.0,0.0,0.0,-4.0,144,114,123,124,124
2025-02-26 14:41:37.391,-239.0,-885.0,441.0,0.0,0.0,-4.0,145,113,123,125,123
2025-02-26 14:41:37.396,-235.0,-886.0,454.0,0.0,0.0,-5.0,144,111,122,123,122
2025-02-26 14:41:37.404,-239.0,-889.0,451.0,-1.0,0.0,-5.0,145,113,123,125,124
2025-02-26 14:41:37.408,-237.0,-894.0,441.0,-1.0,-1.0,-5.0,145,113,120,125,124
2025-02-26 14:41:37.413,-242.0,-887.0,457.0,-2.0,-1.0,-5.0,143,113,122,125,124
2025-02-26 14:41:37.420,-234.0,-897.0,456.0,-2.0,-1.0,-5.0,145,113,122,124,122
2025-02-26 14:41:37.424,-237.0,-896.0,458.0,-3.0,-1.0,-4.0,144,112,121,125,123
2025-02-26 14:41:37.429,-239.0,-910.0,459.0,-4.0,-1.0,-5.0,144,113,120,126,124
2025-02-26 14:41:37.432,-233.0,-902.0,456.0,-5.0,-1.0,-5.0,144,113,123,125,123
2025-02-26 14:41:37.441,-229.0,-896.0,468.0,-6.0,-1.0,-4.0,144,113,122,125,123
2025-02-26 14:41:37.444,-230.0,-905.0,461.0,-7.0,-1.0,-4.0,143,113,122,126,123
2025-02-26 14:41:37.449,-228.0,-900.0,472.0,-8.0,-1.0,-3.0,145,114,122,125,124
2025-02-26 14:41:37.454,-227.0,-898.0,475.0,-8.0,-1.0,-3.0,143,113,122,124,122
2025-02-26 14:41:37.461,-226.0,-902.0,472.0,-9.0,-1.0,-3.0,144,115,122,125,122
2025-02-26 14:41:37.466,-227.0,-902.0,473.0,-9.0,-1.0,-3.0,145,113,122,128,122
2025-02-26 14:41:37.470,-231.0,-902.0,460.0,-10.0,-1.0,-3.0,144,114,123,125,123
2025-02-26 14:41:37.473,-230.0,-913.0,474.0,-13.0,-2.0,-3.0,144,114,122,123,123
2025-02-26 14:41:37.482,-219.0,-898.0,487.0,-14.0,0.0,-3.0,143,113,123,126,124
2025-02-26 14:41:37.486,-230.0,-924.0,479.0,-12.0,0.0,-2.0,143,113,123,125,124
2025-02-26 14:41:37.490,-244.0,-936.0,472.0,-11.0,-1.0,-1.0,143,112,121,123,123
2025-02-26 14:41:37.498,-230.0,-932.0,466.0,-11.0,0.0,-1.0,144,113,122,124,122
2025-02-26 14:41:37.502,-226.0,-931.0,468.0,-12.0,1.0,1.0,144,114,125,125,125
2025-02-26 14:41:37.506,-232.0,-924.0,449.0,-13.0,-1.0,1.0,143,113,122,126,124
2025-02-26 14:41:37.514,-201.0,-954.0,501.0,-12.0,0.0,3.0,144,114,122,124,123
2025-02-26 14:41:37.518,-212.0,-881.0,439.0,-17.0,2.0,5.0,144,114,122,125,123
2025-02-26 14:41:37.523,-228.0,-912.0,434.0,-19.0,4.0,6.0,145,114,123,126,125
2025-02-26 14:41:37.527,-221.0,-903.0,410.0,-19.0,5.0,8.0,143,113,122,124,122
2025-02-26 14:41:37.535,-210.0,-897.0,448.0,-20.0,6.0,8.0,144,112,122,124,124
2025-02-26 14:41:37.539,-236.0,-893.0,406.0,-24.0,8.0,9.0,144,114,122,123,123
2025-02-26 14:41:37.543,-246.0,-874.0,396.0,-26.0,7.0,11.0,145,113,124,126,124
2025-02-26 14:41:37.548,-278.0,-882.0,406.0,-25.0,7.0,12.0,144,114,122,125,123
2025-02-26 14:41:37.551,-294.0,-874.0,377.0,-26.0,6.0,13.0,143,112,122,124,122
2025-02-26 14:41:37.559,-312.0,-866.0,406.0,-26.0,5.0,13.0,143,113,122,125,124
2025-02-26 14:41:37.565,-325.0,-875.0,396.0,-28.0,4.0,12.0,144,113,122,126,125
2025-02-26 14:41:37.568,-347.0,-871.0,378.0,-30.0,2.0,11.0,144,113,123,124,124
2025-02-26 14:41:37.576,-339.0,-882.0,396.0,-30.0,1.0,10.0,143,113,121,123,123
2025-02-26 14:41:37.580,-351.0,-889.0,377.0,-29.0,0.0,9.0,145,113,121,125,122
2025-02-26 14:41:37.584,-331.0,-899.0,391.0,-28.0,-2.0,8.0,143,114,122,125,123
2025-02-26 14:41:37.592,-319.0,-898.0,385.0,-27.0,-3.0,5.0,144,113,122,126,123
2025-02-26 14:41:37.594,-313.0,-896.0,385.0,-24.0,-3.0,3.0,144,113,122,124,123
2025-02-26 14:41:37.601,-295.0,-892.0,389.0,-24.0,-3.0,3.0,143,113,120,124,122
2025-02-26 14:41:37.605,-267.0,-875.0,389.0,-23.0,-3.0,0.0,145,113,122,125,124
2025-02-26 14:41:37.612,-258.0,-860.0,390.0,-22.0,-1.0,-2.0,144,113,122,126,124
2025-02-26 14:41:37.617,-266.0,-859.0,387.0,-20.0,-1.0,-4.0,144,112,121,123,123
2025-02-26 14:41:37.621,-275.0,-863.0,377.0,-18.0,1.0,-7.0,144,114,122,125,124
2025-02-26 14:41:37.626,-280.0,-853.0,383.0,-18.0,3.0,-10.0,145,114,123,125,123
2025-02-26 14:41:37.633,-301.0,-873.0,382.0,-18.0,3.0,-13.0,144,113,122,125,123
2025-02-26 14:41:37.636,-320.0,-891.0,361.0,-20.0,0.0,-17.0,143,113,121,124,124
2025-02-26 14:41:37.642,-315.0,-896.0,377.0,-24.0,0.0,-20.0,144,114,122,125,124
2025-02-26 14:41:37.649,-319.0,-929.0,362.0,-27.0,0.0,-21.0,144,112,122,124,124
2025-02-26 14:41:37.654,-323.0,-942.0,363.0,-30.0,-1.0,-24.0,143,112,122,125,124
2025-02-26 14:41:37.658,-297.0,-963.0,378.0,-34.0,0.0,-25.0,144,114,123,126,124
2025-02-26 14:41:37.666,-280.0,-998.0,387.0,-35.0,1.0,-25.0,144,113,123,125,124
2025-02-26 14:41:37.668,-276.0,-1046.0,389.0,-37.0,0.0,-25.0,144,113,122,123,124
2025-02-26 14:41:37.674,-263.0,-1085.0,392.0,-41.0,0.0,-24.0,143,112,122,125,123
2025-02-26 14:41:37.682,-236.0,-1105.0,412.0,-43.0,-1.0,-24.0,143,112,121,125,125
2025-02-26 14:41:37.686,-216.0,-1145.0,412.0,-46.0,-3.0,-23.0,147,114,122,127,124
2025-02-26 14:41:37.691,-201.0,-1175.0,414.0,-48.0,-2.0,-22.0,143,114,122,124,123
2025-02-26 14:41:37.697,-199.0,-1200.0,404.0,-47.0,-1.0,-21.0,143,112,121,124,123
2025-02-26 14:41:37.702,-207.0,-1219.0,379.0,-43.0,-2.0,-18.0,144,113,123,125,124
2025-02-26 14:41:37.707,-205.0,-1232.0,390.0,-39.0,-2.0,-16.0,143,113,122,124,123
2025-02-26 14:41:37.715,-192.0,-1211.0,408.0,-36.0,2.0,-15.0,143,112,122,125,123
2025-02-26 14:41:37.719,-185.0,-1223.0,389.0,-35.0,2.0,-10.0,144,113,122,124,124
2025-02-26 14:41:37.723,-171.0,-1215.0,389.0,-32.0,2.0,-5.0,144,114,123,125,124
2025-02-26 14:41:37.729,-164.0,-1198.0,397.0,-33.0,5.0,1.0,143,112,122,124,123
2025-02-26 14:41:37.736,-165.0,-1173.0,380.0,-32.0,6.0,6.0,143,112,123,123,123
2025-02-26 14:41:37.740,-163.0,-1160.0,384.0,-31.0,10.0,9.0,144,113,122,124,123
2025-02-26 14:41:37.745,-162.0,-1140.0,411.0,-34.0,16.0,10.0,146,114,123,122,124
2025-02-26 14:41:37.752,-148.0,-1143.0,369.0,-23.0,16.0,15.0,145,113,123,124,124
2025-02-26 14:41:37.756,-128.0,-1125.0,359.0,-21.0,17.0,16.0,144,112,122,124,123
2025-02-26 14:41:37.761,-143.0,-1112.0,343.0,-20.0,19.0,16.0,144,113,122,124,124
2025-02-26 14:41:37.768,-140.0,-1090.0,315.0,-20.0,20.0,16.0,143,112,121,125,123
2025-02-26 14:41:37.773,-147.0,-1082.0,304.0,-25.0,22.0,16.0,143,113,122,122,123
2025-02-26 14:41:37.777,-153.0,-1059.0,320.0,-25.0,16.0,16.0,144,113,122,124,123
2025-02-26 14:41:37.785,-158.0,-1061.0,341.0,-30.0,18.0,14.0,145,114,123,125,125
2025-02-26 14:41:37.789,-150.0,-1061.0,372.0,-30.0,22.0,13.0,143,113,123,125,124
2025-02-26 14:41:37.793,-146.0,-1040.0,322.0,-26.0,21.0,14.0,143,111,121,124,124
2025-02-26 14:41:37.801,-158.0,-1041.0,305.0,-26.0,24.0,14.0,143,112,123,124,124
2025-02-26 14:41:37.805,-168.0,-1054.0,287.0,-23.0,22.0,13.0,144,113,121,124,124
2025-02-26 14:41:37.808,-182.0,-1057.0,284.0,-24.0,17.0,13.0,143,113,122,124,124
2025-02-26 14:41:37.818,-201.0,-1065.0,283.0,-22.0,13.0,13.0,144,112,123,124,123
2025-02-26 14:41:37.820,-209.0,-1037.0,333.0,-26.0,13.0,13.0,143,115,122,124,124
2025-02-26 14:41:37.826,-199.0,-1012.0,301.0,-22.0,12.0,13.0,143,112,123,124,124
2025-02-26 14:41:37.833,-239.0,-1024.0,272.0,-15.0,5.0,14.0,142,113,121,124,125
2025-02-26 14:41:37.838,-228.0,-992.0,305.0,-10.0,8.0,14.0,144,112,122,124,125
2025-02-26 14:41:37.842,-250.0,-978.0,290.0,-6.0,10.0,16.0,144,113,123,127,126
2025-02-26 14:41:37.847,-252.0,-940.0,261.0,-4.0,7.0,16.0,144,113,122,125,125
2025-02-26 14:41:37.854,-262.0,-916.0,198.0,0.0,2.0,16.0,143,111,121,124,124
2025-02-26 14:41:37.859,-230.0,-906.0,228.0,-4.0,-3.0,15.0,144,112,121,124,125
2025-02-26 14:41:37.863,-235.0,-887.0,254.0,-5.0,-4.0,13.0,145,113,124,127,125
2025-02-26 14:41:37.867,-236.0,-904.0,309.0,-9.0,-3.0,11.0,145,113,120,124,126
2025-02-26 14:41:37.875,-241.0,-879.0,291.0,-11.0,-5.0,8.0,141,111,120,124,124
2025-02-26 14:41:37.879,-206.0,-892.0,295.0,-11.0,-4.0,8.0,143,113,121,124,125
2025-02-26 14:41:37.884,-221.0,-886.0,334.0,-13.0,2.0,7.0,144,113,122,124,125
2025-02-26 14:41:37.888,-215.0,-871.0,286.0,-12.0,2.0,8.0,143,113,121,126,124
2025-02-26 14:41:37.895,-210.0,-885.0,313.0,-12.0,4.0,9.0,142,111,120,123,124
2025-02-26 14:41:37.899,-213.0,-885.0,325.0,-14.0,7.0,10.0,143,112,121,124,124
2025-02-26 14:41:37.904,-222.0,-884.0,326.0,-16.0,14.0,10.0,145,113,123,125,126
2025-02-26 14:41:37.909,-228.0,-910.0,339.0,-19.0,16.0,12.0,143,113,121,125,125
2025-02-26 14:41:37.916,-246.0,-907.0,322.0,-18.0,16.0,13.0,142,112,120,124,124
2025-02-26 14:41:37.920,-246.0,-906.0,257.0,-17.0,13.0,13.0,144,112,120,123,124
2025-02-26 14:41:37.924,-256.0,-920.0,293.0,-23.0,15.0,15.0,146,112,121,124,126
2025-02-26 14:41:37.932,-256.0,-939.0,306.0,-28.0,21.0,14.0,144,117,122,125,126
2025-02-26 14:41:37.936,-250.0,-913.0,201.0,-34.0,15.0,15.0,143,113,121,124,124
2025-02-26 14:41:37.939,-252.0,-905.0,273.0,-39.0,17.0,17.0,143,112,122,124,124
2025-02-26 14:41:37.945,-262.0,-908.0,275.0,-42.0,21.0,17.0,145,112,121,124,125
2025-02-26 14:41:37.951,-254.0,-893.0,278.0,-47.0,25.0,17.0,144,113,122,125,125
2025-02-26 14:41:37.958,-261.0,-896.0,267.0,-47.0,29.0,16.0,144,112,122,124,126
2025-02-26 14:41:37.964,-254.0,-885.0,241.0,-45.0,28.0,15.0,144,113,123,125,126
2025-02-26 14:41:37.969,-263.0,-865.0,226.0,-45.0,28.0,13.0,144,112,120,124,125
2025-02-26 14:41:37.969,-268.0,-833.0,227.0,-50.0,31.0,12.0,143,113,120,124,126
2025-02-26 14:41:37.975,-282.0,-829.0,200.0,-49.0,32.0,10.0,144,113,121,125,126
2025-02-26 14:41:37.981,-296.0,-829.0,171.0,-45.0,24.0,8.0,144,113,122,126,126
2025-02-26 14:41:37.987,-302.0,-791.0,169.0,-46.0,18.0,6.0,145,114,122,126,126
2025-02-26 14:41:37.993,-304.0,-785.0,171.0,-49.0,18.0,4.0,144,112,120,124,124
2025-02-26 14:41:38.000,-329.0,-809.0,164.0,-50.0,14.0,3.0,143,112,121,123,126
2025-02-26 14:41:38.005,-319.0,-780.0,152.0,-47.0,11.0,1.0,145,117,121,126,129
2025-02-26 14:41:38.010,-319.0,-808.0,139.0,-43.0,6.0,-2.0,145,114,122,126,126
2025-02-26 14:41:38.014,-329.0,-827.0,153.0,-43.0,5.0,-4.0,144,115,120,123,127
2025-02-26 14:41:38.022,-331.0,-825.0,133.0,-38.0,4.0,-5.0,143,112,120,123,126
2025-02-26 14:41:38.026,-322.0,-834.0,127.0,-39.0,0.0,-7.0,143,113,121,126,126
2025-02-26 14:41:38.031,-325.0,-825.0,110.0,-37.0,-2.0,-9.0,144,113,121,125,126
2025-02-26 14:41:38.039,-330.0,-851.0,137.0,-36.0,-3.0,-10.0,144,113,121,123,126
2025-02-26 14:41:38.042,-314.0,-847.0,127.0,-37.0,-4.0,-11.0,144,112,122,125,125
2025-02-26 14:41:38.047,-303.0,-869.0,98.0,-35.0,-1.0,-11.0,144,112,120,124,126
2025-02-26 14:41:38.051,-314.0,-864.0,97.0,-30.0,-1.0,-11.0,144,113,121,126,126
2025-02-26 14:41:38.058,-321.0,-870.0,116.0,-33.0,3.0,-10.0,144,113,122,126,127
2025-02-26 14:41:38.063,-324.0,-858.0,125.0,-34.0,8.0,-9.0,146,115,122,124,127
2025-02-26 14:41:38.068,-313.0,-874.0,79.0,-35.0,9.0,-9.0,143,113,120,126,125
2025-02-26 14:41:38.075,-333.0,-880.0,80.0,-35.0,8.0,-9.0,143,114,121,125,127
2025-02-26 14:41:38.079,-328.0,-870.0,87.0,-36.0,9.0,-10.0,144,117,121,125,126
2025-02-26 14:41:38.084,-328.0,-846.0,85.0,-35.0,10.0,-10.0,144,114,121,126,128
2025-02-26 14:41:38.087,-332.0,-842.0,81.0,-35.0,10.0,-12.0,143,113,122,124,126
2025-02-26 14:41:38.096,-336.0,-835.0,109.0,-32.0,7.0,-13.0,142,112,121,124,125
2025-02-26 14:41:38.100,-316.0,-844.0,96.0,-31.0,6.0,-14.0,143,113,121,124,127
2025-02-26 14:41:38.105,-313.0,-845.0,92.0,-29.0,1.0,-16.0,144,115,120,126,127
2025-02-26 14:41:38.112,-305.0,-844.0,97.0,-29.0,-2.0,-18.0,144,114,120,126,127
2025-02-26 14:41:38.116,-295.0,-851.0,91.0,-29.0,-4.0,-20.0,145,114,121,125,125
2025-02-26 14:41:38.121,-294.0,-857.0,81.0,-29.0,-6.0,-21.0,140,114,120,125,126
2025-02-26 14:41:38.125,-288.0,-872.0,87.0,-27.0,-9.0,-22.0,145,113,121,125,126
2025-02-26 14:41:38.132,-271.0,-864.0,91.0,-28.0,-12.0,-23.0,144,114,121,127,127
2025-02-26 14:41:38.137,-261.0,-871.0,113.0,-29.0,-12.0,-24.0,143,116,120,124,125
2025-02-26 14:41:38.142,-266.0,-881.0,99.0,-28.0,-13.0,-24.0,144,112,120,127,126
2025-02-26 14:41:38.147,-256.0,-872.0,106.0,-29.0,-15.0,-25.0,145,113,120,125,126
2025-02-26 14:41:38.153,-242.0,-888.0,102.0,-27.0,-19.0,-24.0,144,113,122,125,127
2025-02-26 14:41:38.157,-224.0,-912.0,98.0,-28.0,-22.0,-24.0,143,115,119,126,127
2025-02-26 14:41:38.166,-215.0,-922.0,103.0,-27.0,-24.0,-23.0,145,114,122,126,127
2025-02-26 14:41:38.170,-196.0,-927.0,129.0,-27.0,-23.0,-22.0,144,115,121,126,126
2025-02-26 14:41:38.175,-192.0,-938.0,136.0,-26.0,-23.0,-20.0,143,115,120,125,125
2025-02-26 14:41:38.182,-188.0,-959.0,155.0,-25.0,-22.0,-18.0,144,113,119,125,125
2025-02-26 14:41:38.186,-176.0,-954.0,176.0,-24.0,-19.0,-17.0,143,114,121,125,126
2025-02-26 14:41:38.190,-173.0,-969.0,174.0,-24.0,-16.0,-14.0,144,114,120,125,127
2025-02-26 14:41:38.198,-164.0,-967.0,187.0,-22.0,-11.0,-13.0,143,114,121,123,126
2025-02-26 14:41:38.203,-152.0,-968.0,177.0,-21.0,-9.0,-10.0,145,117,121,128,130
2025-02-26 14:41:38.207,-152.0,-960.0,173.0,-20.0,-6.0,-8.0,145,115,121,126,127
2025-02-26 14:41:38.214,-152.0,-961.0,163.0,-21.0,-5.0,-5.0,143,113,120,124,125
2025-02-26 14:41:38.219,-164.0,-961.0,159.0,-21.0,-4.0,-3.0,144,114,118,123,125
2025-02-26 14:41:38.223,-156.0,-960.0,151.0,-20.0,-3.0,0.0,145,115,122,127,127
2025-02-26 14:41:38.231,-159.0,-969.0,152.0,-20.0,-1.0,3.0,144,115,121,127,122
2025-02-26 14:41:38.235,-169.0,-973.0,158.0,-20.0,0.0,6.0,144,114,120,125,125
2025-02-26 14:41:38.240,-165.0,-979.0,168.0,-20.0,2.0,8.0,143,115,119,125,125
2025-02-26 14:41:38.244,-165.0,-989.0,159.0,-18.0,3.0,10.0,144,115,122,127,127
2025-02-26 14:41:38.251,-174.0,-990.0,162.0,-16.0,4.0,13.0,145,115,121,127,127
2025-02-26 14:41:38.256,-186.0,-982.0,162.0,-15.0,6.0,14.0,143,115,121,125,126
2025-02-26 14:41:38.260,-198.0,-969.0,177.0,-13.0,7.0,15.0,143,113,119,124,126
2025-02-26 14:41:38.267,-198.0,-973.0,179.0,-10.0,10.0,15.0,143,116,121,126,127
2025-02-26 14:41:38.272,-203.0,-962.0,161.0,-7.0,11.0,16.0,144,116,121,126,127
2025-02-26 14:41:38.276,-200.0,-962.0,149.0,-7.0,12.0,16.0,143,115,120,125,126
2025-02-26 14:41:38.281,-200.0,-956.0,144.0,-7.0,13.0,17.0,143,115,120,124,126
2025-02-26 14:41:38.286,-204.0,-958.0,140.0,-7.0,14.0,17.0,143,113,120,125,126
2025-02-26 14:41:38.293,-208.0,-944.0,124.0,-9.0,13.0,17.0,145,116,121,125,126
2025-02-26 14:41:38.297,-207.0,-943.0,129.0,-9.0,14.0,16.0,143,115,121,126,126
2025-02-26 14:41:38.301,-218.0,-936.0,90.0,-8.0,13.0,17.0,143,115,121,125,128
2025-02-26 14:41:38.308,-225.0,-923.0,114.0,-10.0,11.0,16.0,143,115,121,125,126
2025-02-26 14:41:38.314,-252.0,-934.0,114.0,-12.0,13.0,15.0,143,115,121,126,127
2025-02-26 14:41:38.317,-266.0,-933.0,108.0,-11.0,13.0,15.0,144,117,122,125,126
2025-02-26 14:41:38.322,-283.0,-933.0,81.0,-12.0,12.0,15.0,145,115,121,126,127
2025-02-26 14:41:38.329,-287.0,-935.0,79.0,-14.0,12.0,14.0,141,114,119,125,126
2025-02-26 14:41:38.334,-302.0,-938.0,76.0,-13.0,13.0,14.0,142,114,119,124,125
2025-02-26 14:41:38.338,-311.0,-946.0,57.0,-13.0,12.0,14.0,144,116,122,127,127
2025-02-26 14:41:38.346,-309.0,-951.0,75.0,-14.0,12.0,12.0,146,117,122,129,128
2025-02-26 14:41:38.350,-320.0,-960.0,69.0,-15.0,12.0,12.0,145,115,122,128,128
2025-02-26 14:41:38.354,-322.0,-968.0,65.0,-16.0,13.0,11.0,144,115,123,126,127
2025-02-26 14:41:38.362,-330.0,-965.0,53.0,-15.0,13.0,10.0,145,116,123,127,128
2025-02-26 14:41:38.366,-339.0,-983.0,63.0,-16.0,14.0,10.0,145,116,122,126,129
2025-02-26 14:41:38.371,-347.0,-978.0,57.0,-15.0,14.0,10.0,145,115,122,126,127
2025-02-26 14:41:38.375,-349.0,-985.0,55.0,-15.0,15.0,10.0,146,114,122,124,127
2025-02-26 14:41:38.383,-354.0,-986.0,66.0,-9.0,16.0,10.0,144,116,123,126,128
2025-02-26 14:41:38.387,-355.0,-1001.0,62.0,-4.0,17.0,12.0,146,115,122,127,128
2025-02-26 14:41:38.391,-362.0,-995.0,78.0,-2.0,21.0,12.0,143,115,122,127,127
2025-02-26 14:41:38.395,-354.0,-996.0,81.0,2.0,22.0,14.0,144,114,120,126,127
2025-02-26 14:41:38.403,-350.0,-997.0,62.0,7.0,24.0,14.0,145,117,122,127,127
2025-02-26 14:41:38.406,-342.0,-998.0,60.0,9.0,25.0,15.0,144,117,121,128,128
2025-02-26 14:41:38.412,-343.0,-996.0,47.0,11.0,26.0,17.0,145,114,120,126,126
2025-02-26 14:41:38.415,-341.0,-1013.0,45.0,13.0,27.0,18.0,142,114,122,126,128
2025-02-26 14:41:38.424,-335.0,-1012.0,60.0,12.0,29.0,20.0,146,116,124,128,128
2025-02-26 14:41:38.428,-322.0,-1009.0,71.0,12.0,32.0,22.0,145,116,122,127,129
2025-02-26 14:41:38.432,-314.0,-1019.0,70.0,14.0,33.0,24.0,144,116,122,126,127
2025-02-26 14:41:38.437,-319.0,-1017.0,81.0,11.0,36.0,24.0,142,115,121,125,125
2025-02-26 14:41:38.444,-317.0,-1011.0,55.0,14.0,39.0,26.0,146,118,121,128,129
2025-02-26 14:41:38.448,-322.0,-1007.0,56.0,14.0,41.0,27.0,145,116,123,127,127
2025-02-26 14:41:38.453,-334.0,-1005.0,60.0,11.0,44.0,27.0,144,115,122,126,127
2025-02-26 14:41:38.461,-338.0,-956.0,31.0,10.0,45.0,27.0,144,114,121,125,127
2025-02-26 14:41:38.465,-361.0,-980.0,17.0,11.0,46.0,28.0,146,117,122,126,128
2025-02-26 14:41:38.469,-355.0,-975.0,7.0,16.0,44.0,28.0,145,116,122,128,127
2025-02-26 14:41:38.473,-357.0,-956.0,10.0,17.0,44.0,27.0,142,114,121,125,127
2025-02-26 14:41:38.481,-367.0,-949.0,19.0,16.0,45.0,27.0,143,114,124,127,126
2025-02-26 14:41:38.485,-378.0,-945.0,-19.0,17.0,42.0,25.0,144,116,122,128,128
2025-02-26 14:41:38.490,-374.0,-932.0,-3.0,16.0,40.0,24.0,145,116,122,128,128
2025-02-26 14:41:38.494,-381.0,-920.0,4.0,16.0,39.0,21.0,143,115,121,126,126
2025-02-26 14:41:38.502,-384.0,-911.0,2.0,14.0,36.0,19.0,143,115,120,125,126
2025-02-26 14:41:38.505,-385.0,-907.0,-4.0,13.0,33.0,16.0,145,115,123,128,127
2025-02-26 14:41:38.510,-392.0,-905.0,-8.0,11.0,30.0,12.0,143,114,122,129,128
2025-02-26 14:41:38.514,-393.0,-895.0,-1.0,10.0,29.0,9.0,144,114,122,125,127
2025-02-26 14:41:38.522,-396.0,-886.0,-19.0,6.0,26.0,8.0,145,115,122,126,127
2025-02-26 14:41:38.526,-383.0,-879.0,-26.0,0.0,20.0,5.0,143,116,121,126,128
2025-02-26 14:41:38.530,-378.0,-880.0,-24.0,-1.0,15.0,2.0,143,114,122,126,127
2025-02-26 14:41:38.535,-384.0,-882.0,-22.0,-3.0,12.0,0.0,143,114,122,125,126
2025-02-26 14:41:38.543,-384.0,-869.0,-24.0,-6.0,8.0,-1.0,145,114,120,126,129
2025-02-26 14:41:38.547,-372.0,-883.0,-16.0,-5.0,7.0,-3.0,148,115,122,132,128
2025-02-26 14:41:38.551,-363.0,-905.0,-28.0,-6.0,6.0,-4.0,145,115,119,126,127
2025-02-26 14:41:38.555,-359.0,-913.0,-16.0,-9.0,5.0,-5.0,142,113,121,127,126
2025-02-26 14:41:38.563,-345.0,-925.0,-25.0,-11.0,3.0,-6.0,144,114,122,127,128
2025-02-26 14:41:38.567,-324.0,-947.0,-5.0,-12.0,4.0,-7.0,145,115,122,127,128
2025-02-26 14:41:38.571,-311.0,-952.0,-32.0,-14.0,3.0,-7.0,142,113,121,126,127
2025-02-26 14:41:38.576,-321.0,-989.0,6.0,-18.0,4.0,-7.0,143,113,121,126,127
2025-02-26 14:41:38.583,-338.0,-987.0,-19.0,-19.0,3.0,-6.0,144,115,125,128,128
2025-02-26 14:41:38.588,-320.0,-1009.0,20.0,-20.0,5.0,-5.0,144,114,122,128,127
2025-02-26 14:41:38.592,-298.0,-1033.0,39.0,-19.0,7.0,-4.0,143,112,121,128,127
2025-02-26 14:41:38.596,-312.0,-1044.0,22.0,-20.0,8.0,-3.0,142,114,122,126,127
2025-02-26 14:41:38.604,-303.0,-1067.0,31.0,-20.0,9.0,-2.0,145,115,123,128,129
2025-02-26 14:41:38.608,-287.0,-1083.0,24.0,-21.0,7.0,0.0,144,114,122,128,128
2025-02-26 14:41:38.612,-271.0,-1094.0,29.0,-23.0,7.0,3.0,143,113,122,125,126
2025-02-26 14:41:38.619,-274.0,-1106.0,14.0,-26.0,5.0,4.0,142,112,122,126,127
2025-02-26 14:41:38.624,-263.0,-1120.0,51.0,-27.0,5.0,9.0,143,113,123,130,128
2025-02-26 14:41:38.629,-255.0,-1143.0,54.0,-28.0,7.0,14.0,143,111,123,128,128
2025-02-26 14:41:38.632,-234.0,-1173.0,57.0,-28.0,9.0,19.0,142,109,121,126,126
2025-02-26 14:41:38.641,-230.0,-1200.0,62.0,-25.0,11.0,25.0,142,109,120,123,126
2025-02-26 14:41:38.644,-218.0,-1220.0,50.0,-22.0,13.0,27.0,144,109,122,127,128
2025-02-26 14:41:38.649,-222.0,-1242.0,49.0,-19.0,16.0,32.0,144,108,122,128,128
2025-02-26 14:41:38.657,-212.0,-1273.0,42.0,-19.0,19.0,37.0,144,106,121,127,126
2025-02-26 14:41:38.661,-205.0,-1302.0,38.0,-21.0,19.0,42.0,143,105,122,125,125
2025-02-26 14:41:38.665,-195.0,-1307.0,27.0,-20.0,22.0,44.0,142,106,121,126,125
2025-02-26 14:41:38.669,-209.0,-1339.0,26.0,-24.0,24.0,48.0,144,105,122,127,126
2025-02-26 14:41:38.677,-227.0,-1344.0,22.0,-26.0,25.0,52.0,143,105,122,127,125
2025-02-26 14:41:38.682,-258.0,-1370.0,30.0,-29.0,29.0,56.0,143,103,122,126,125
2025-02-26 14:41:38.686,-274.0,-1355.0,19.0,-34.0,30.0,61.0,144,102,122,124,126
2025-02-26 14:41:38.694,-293.0,-1352.0,-1.0,-37.0,31.0,64.0,143,101,121,126,123
2025-02-26 14:41:38.697,-328.0,-1355.0,-21.0,-42.0,31.0,69.0,143,100,122,126,124
2025-02-26 14:41:38.703,-354.0,-1330.0,-25.0,-45.0,31.0,75.0,145,101,121,128,123
2025-02-26 14:41:38.710,-367.0,-1300.0,-48.0,-46.0,31.0,82.0,144,98,120,126,123
2025-02-26 14:41:38.715,-377.0,-1258.0,-61.0,-48.0,30.0,87.0,142,95,118,124,124
2025-02-26 14:41:38.719,-383.0,-1250.0,-77.0,-47.0,29.0,92.0,142,94,118,123,122
2025-02-26 14:41:38.723,-396.0,-1221.0,-36.0,-46.0,30.0,94.0,144,96,119,124,124
2025-02-26 14:41:38.731,-376.0,-1205.0,-42.0,-41.0,27.0,97.0,144,94,118,123,121
2025-02-26 14:41:38.735,-408.0,-1178.0,-49.0,-45.0,21.0,98.0,144,90,116,123,122
2025-02-26 14:41:38.740,-405.0,-1157.0,1.0,-39.0,22.0,100.0,142,92,117,121,120
2025-02-26 14:41:38.747,-435.0,-1129.0,-11.0,-39.0,21.0,101.0,144,91,115,121,119
2025-02-26 14:41:38.752,-421.0,-1081.0,-67.0,-42.0,22.0,102.0,143,89,115,121,120
2025-02-26 14:41:38.755,-448.0,-1055.0,-69.0,-45.0,21.0,102.0,143,88,110,118,119
2025-02-26 14:41:38.763,-525.0,-1022.0,-16.0,-47.0,18.0,102.0,143,86,114,122,119
2025-02-26 14:41:38.768,-514.0,-978.0,-8.0,-54.0,26.0,103.0,144,86,112,118,119
2025-02-26 14:41:38.772,-505.0,-919.0,-92.0,-67.0,24.0,103.0,141,83,110,118,117
2025-02-26 14:41:38.777,-545.0,-930.0,-58.0,-84.0,25.0,102.0,141,79,108,116,114
2025-02-26 14:41:38.784,-539.0,-843.0,2.0,-102.0,31.0,102.0,142,80,107,115,115
2025-02-26 14:41:38.788,-568.0,-836.0,-125.0,-111.0,27.0,99.0,142,77,104,114,115
2025-02-26 14:41:38.792,-569.0,-780.0,-87.0,-139.0,17.0,96.0,141,75,101,112,111
2025-02-26 14:41:38.800,-634.0,-763.0,-137.0,-147.0,7.0,93.0,141,72,99,111,110
2025-02-26 14:41:38.804,-612.0,-708.0,-179.0,-170.0,-8.0,90.0,143,72,103,111,110
2025-02-26 14:41:38.806,-607.0,-660.0,-237.0,-182.0,-17.0,90.0,142,69,99,109,108
2025-02-26 14:41:38.817,-564.0,-635.0,-98.0,-169.0,-8.0,87.0,142,65,97,107,106
2025-02-26 14:41:38.819,-597.0,-617.0,-191.0,-147.0,-6.0,85.0,141,68,96,105,104
2025-02-26 14:41:38.825,-589.0,-634.0,-171.0,-139.0,-4.0,79.0,142,65,100,103,102
2025-02-26 14:41:38.830,-611.0,-597.0,-219.0,-137.0,-10.0,74.0,142,65,97,102,100
2025-02-26 14:41:38.837,-600.0,-562.0,-143.0,-128.0,-8.0,70.0,141,65,98,103,100
2025-02-26 14:41:38.841,-588.0,-545.0,-170.0,-111.0,-5.0,67.0,143,64,97,102,98
2025-02-26 14:41:38.846,-614.0,-527.0,-192.0,-106.0,-3.0,64.0,142,64,95,100,97
2025-02-26 14:41:38.853,-621.0,-500.0,-197.0,-98.0,-3.0,63.0,141,62,94,98,94
2025-02-26 14:41:38.858,-606.0,-502.0,-218.0,-93.0,-3.0,61.0,141,62,93,99,93
2025-02-26 14:41:38.862,-625.0,-472.0,-174.0,-88.0,-2.0,59.0,140,62,95,97,93
2025-02-26 14:41:38.866,-639.0,-472.0,-176.0,-76.0,2.0,58.0,140,59,91,95,90
2025-02-26 14:41:38.871,-639.0,-462.0,-200.0,-62.0,4.0,58.0,141,59,91,96,88
2025-02-26 14:41:38.878,-613.0,-434.0,-201.0,-45.0,3.0,57.0,142,57,89,93,86
2025-02-26 14:41:38.880,-639.0,-403.0,-223.0,-34.0,4.0,59.0,140,58,88,92,85
2025-02-26 14:41:38.886,-619.0,-418.0,-193.0,-25.0,4.0,59.0,142,60,87,94,83
2025-02-26 14:41:38.890,-643.0,-380.0,-227.0,-9.0,8.0,61.0,140,56,82,90,80
2025-02-26 14:41:38.899,-625.0,-403.0,-172.0,-1.0,11.0,66.0,155,75,99,104,94
2025-02-26 14:41:38.903,-617.0,-351.0,-205.0,2.0,15.0,67.0,155,70,96,102,93
2025-02-26 14:41:38.907,-627.0,-319.0,-237.0,-2.0,16.0,71.0,163,76,100,107,94
2025-02-26 14:41:38.911,-615.0,-270.0,-203.0,8.0,20.0,73.0,157,73,98,102,91
2025-02-26 14:41:38.916,-636.0,-271.0,-213.0,24.0,19.0,74.0,154,71,95,101,90
2025-02-26 14:41:38.923,-670.0,-257.0,-217.0,46.0,17.0,74.0,160,76,97,106,94
2025-02-26 14:41:38.928,-659.0,-196.0,-226.0,61.0,20.0,74.0,157,73,95,101,90
2025-02-26 14:41:38.931,-642.0,-181.0,-255.0,100.0,21.0,74.0,154,70,91,100,86
2025-02-26 14:41:38.936,-678.0,-138.0,-295.0,130.0,24.0,73.0,152,68,88,96,81
2025-02-26 14:41:38.944,-709.0,-43.0,-325.0,153.0,13.0,70.0,155,71,90,97,83
2025-02-26 14:41:38.948,-757.0,42.0,-206.0,165.0,19.0,67.0,151,65,87,94,79
2025-02-26 14:41:38.952,-793.0,221.0,-293.0,181.0,18.0,65.0,150,64,82,90,76
2025-02-26 14:41:38.957,-823.0,318.0,-261.0,200.0,14.0,59.0,157,72,90,97,82
2025-02-26 14:41:38.960,-865.0,505.0,-246.0,213.0,11.0,52.0,165,82,99,106,90
2025-02-26 14:41:38.968,-913.0,607.0,-225.0,220.0,13.0,42.0,161,75,92,100,83
2025-02-26 14:41:38.971,-1001.0,945.0,-148.0,222.0,8.0,36.0,163,74,94,103,85
2025-02-26 14:41:38.977,-1088.0,1277.0,-90.0,228.0,52.0,12.0,160,73,94,100,82
2025-02-26 14:41:38.981,-1164.0,1355.0,253.0,130.0,68.0,-19.0,159,72,91,99,81
2025-02-26 14:41:38.989,-1045.0,1577.0,-287.0,71.0,39.0,-41.0,156,69,89,95,75
2025-02-26 14:41:38.993,-997.0,2009.0,-288.0,77.0,13.0,-96.0,161,71,91,98,77
2025-02-26 14:41:38.997,-957.0,2499.0,-97.0,100.0,-14.0,-145.0,158,71,91,98,77
2025-02-26 14:41:39.001,-1021.0,2011.0,-845.0,1.0,-38.0,-221.0,157,75,93,98,75
2025-02-26 14:41:39.007,-983.0,2224.0,-656.0,6.0,-13.0,-256.0,154,68,90,97,73
2025-02-26 14:41:39.014,-913.0,2268.0,-797.0,11.0,15.0,-327.0,154,70,93,99,75
2025-02-26 14:41:39.018,-808.0,2324.0,-782.0,23.0,32.0,-405.0,154,70,93,97,74
2025-02-26 14:41:39.022,-682.0,1978.0,-636.0,65.0,38.0,-465.0,150,69,94,96,73
2025-02-26 14:41:39.030,-322.0,1901.0,-706.0,132.0,42.0,-493.0,150,68,96,98,73
2025-02-26 14:41:39.032,58.0,2027.0,-939.0,203.0,9.0,-559.0,147,69,98,100,75
2025-02-26 14:41:39.038,260.0,1729.0,-725.0,250.0,-28.0,-621.0,143,70,98,97,74
2025-02-26 14:41:39.044,405.0,1482.0,-459.0,288.0,-51.0,-680.0,141,67,98,95,73
2025-02-26 14:41:39.050,873.0,1264.0,-380.0,318.0,-102.0,-701.0,137,67,100,95,72
2025-02-26 14:41:39.055,1224.0,748.0,-324.0,355.0,-162.0,-715.0,141,71,100,98,76
2025-02-26 14:41:39.059,1704.0,89.0,121.0,380.0,-181.0,-691.0,138,72,99,97,76
2025-02-26 14:41:39.066,2397.0,-634.0,230.0,391.0,-220.0,-640.0,136,70,94,96,77
2025-02-26 14:41:39.071,2625.0,-1710.0,701.0,411.0,-260.0,-575.0,136,70,97,94,74
2025-02-26 14:41:39.075,3151.0,-2564.0,2063.0,415.0,-254.0,-544.0,134,66,93,96,76
2025-02-26 14:41:39.083,3825.0,-3290.0,2305.0,452.0,-245.0,-493.0,140,76,101,101,81
2025-02-26 14:41:39.088,3947.0,-4527.0,2557.0,490.0,-189.0,-401.0,139,73,101,100,81
2025-02-26 14:41:39.095,4337.0,-6034.0,3151.0,509.0,-96.0,-276.0,136,73,100,97,78
2025-02-26 14:41:39.099,4335.0,-7000.0,3257.0,493.0,41.0,-110.0,135,72,98,95,76
2025-02-26 14:41:39.104,3458.0,-6702.0,3012.0,416.0,110.0,66.0,135,73,97,95,77
2025-02-26 14:41:39.108,2834.0,-5385.0,2321.0,299.0,185.0,132.0,135,72,98,90,76
2025-02-26 14:41:39.115,1421.0,-4181.0,1884.0,117.0,156.0,218.0,135,72,102,87,75
2025-02-26 14:41:39.120,762.0,-2002.0,1579.0,-30.0,67.0,216.0,136,73,103,88,76
2025-02-26 14:41:39.122,227.0,-660.0,906.0,-130.0,-2.0,172.0,137,73,110,92,75
2025-02-26 14:41:39.132,-76.0,-403.0,742.0,-289.0,-50.0,136.0,134,72,108,89,75
2025-02-26 14:41:39.136,61.0,-287.0,447.0,-412.0,-84.0,119.0,133,69,107,90,71
2025-02-26 14:41:39.141,324.0,-810.0,506.0,-466.0,-70.0,90.0,136,78,91,94,75
2025-02-26 14:41:39.145,240.0,-1528.0,473.0,-471.0,-86.0,67.0,134,76,88,95,77
2025-02-26 14:41:39.152,207.0,-1927.0,277.0,-446.0,-98.0,71.0,132,72,84,96,75
2025-02-26 14:41:39.156,242.0,-2099.0,82.0,-402.0,-89.0,77.0,134,75,88,99,78
2025-02-26 14:41:39.161,201.0,-2278.0,13.0,-349.0,-87.0,86.0,135,76,93,101,80
2025-02-26 14:41:39.165,158.0,-2185.0,24.0,-327.0,-46.0,97.0,131,74,92,98,78
2025-02-26 14:41:39.169,204.0,-2184.0,40.0,-279.0,-38.0,103.0,128,68,92,92,72
2025-02-26 14:41:39.177,106.0,-2199.0,34.0,-237.0,-49.0,119.0,131,75,100,96,77
2025-02-26 14:41:39.181,15.0,-2152.0,46.0,-191.0,-58.0,143.0,136,77,106,104,83
2025-02-26 14:41:39.186,243.0,-2023.0,215.0,-171.0,-72.0,168.0,135,77,101,101,81
2025-02-26 14:41:39.193,198.0,-1933.0,431.0,-130.0,-85.0,182.0,132,72,92,95,80
2025-02-26 14:41:39.195,294.0,-1767.0,482.0,-103.0,-68.0,189.0,128,69,86,92,73
2025-02-26 14:41:39.201,332.0,-1671.0,583.0,-88.0,-46.0,207.0,136,77,94,101,81
2025-02-26 14:41:39.206,230.0,-1533.0,507.0,-79.0,-42.0,217.0,123,61,83,87,70
2025-02-26 14:41:39.214,200.0,-1357.0,494.0,-57.0,-53.0,227.0,121,59,83,84,68
2025-02-26 14:41:39.218,208.0,-1205.0,411.0,-58.0,-41.0,233.0,122,62,85,84,71
2025-02-26 14:41:39.223,155.0,-1053.0,439.0,-59.0,-29.0,237.0,129,69,91,92,77
2025-02-26 14:41:39.227,63.0,-840.0,396.0,-66.0,-27.0,238.0,130,70,87,92,77
2025-02-26 14:41:39.235,-13.0,-655.0,381.0,-84.0,-21.0,236.0,128,68,85,90,75
2025-02-26 14:41:39.239,-97.0,-648.0,379.0,-95.0,-24.0,232.0,132,70,86,91,77
2025-02-26 14:41:39.243,-198.0,-546.0,318.0,-104.0,-38.0,224.0,134,74,90,99,80
2025-02-26 14:41:39.247,-272.0,-475.0,216.0,-117.0,-36.0,215.0,130,68,87,95,78
2025-02-26 14:41:39.255,-270.0,-469.0,199.0,-133.0,-22.0,211.0,126,64,84,89,73
2025-02-26 14:41:39.259,-280.0,-448.0,221.0,-142.0,-23.0,201.0,126,65,83,87,73
2025-02-26 14:41:39.263,-332.0,-435.0,171.0,-150.0,-17.0,194.0,128,66,84,89,74
2025-02-26 14:41:39.271,-382.0,-435.0,172.0,-153.0,-18.0,188.0,125,62,83,88,71
2025-02-26 14:41:39.274,-393.0,-441.0,166.0,-157.0,-17.0,182.0,122,63,83,83,70
2025-02-26 14:41:39.280,-386.0,-443.0,137.0,-155.0,-17.0,178.0,125,61,82,87,71
2025-02-26 14:41:39.284,-401.0,-425.0,118.0,-154.0,-6.0,173.0,124,63,81,84,70
2025-02-26 14:41:39.292,-416.0,-386.0,87.0,-153.0,10.0,170.0,124,62,81,83,70
2025-02-26 14:41:39.296,-435.0,-369.0,11.0,-141.0,14.0,166.0,122,59,74,81,67
2025-02-26 14:41:39.301,-461.0,-369.0,-20.0,-131.0,20.0,164.0,126,61,79,83,70
2025-02-26 14:41:39.305,-499.0,-305.0,-27.0,-118.0,24.0,159.0,124,61,80,84,69
2025-02-26 14:41:39.316,-524.0,-228.0,-97.0,-114.0,28.0,153.0,121,58,78,80,67
2025-02-26 14:41:39.318,-554.0,-154.0,-119.0,-101.0,38.0,151.0,121,57,78,83,67
2025-02-26 14:41:39.321,-521.0,-140.0,-152.0,-86.0,37.0,141.0,123,59,77,82,68
2025-02-26 14:41:39.325,-528.0,-72.0,-174.0,-79.0,36.0,131.0,122,59,79,84,69
2025-02-26 14:41:39.332,-485.0,-16.0,-191.0,-68.0,38.0,121.0,121,56,76,82,67
2025-02-26 14:41:39.337,-493.0,26.0,-227.0,-57.0,46.0,117.0,121,57,76,82,66
2025-02-26 14:41:39.341,-484.0,79.0,-238.0,-48.0,57.0,110.0,121,58,78,84,70
2025-02-26 14:41:39.346,-481.0,139.0,-262.0,-46.0,62.0,102.0,123,57,78,83,69
2025-02-26 14:41:39.349,-511.0,181.0,-300.0,-36.0,64.0,98.0,122,56,76,83,69
2025-02-26 14:41:39.357,-545.0,192.0,-306.0,-26.0,62.0,89.0,124,59,79,84,71
2025-02-26 14:41:39.362,-618.0,241.0,-345.0,-22.0,58.0,80.0,122,58,79,83,69
2025-02-26 14:41:39.365,-661.0,327.0,-396.0,-13.0,55.0,74.0,121,57,77,82,68
2025-02-26 14:41:39.370,-720.0,366.0,-411.0,-6.0,44.0,71.0,122,58,78,82,69
2025-02-26 14:41:39.374,-797.0,488.0,-428.0,0.0,29.0,62.0,121,57,78,82,69
2025-02-26 14:41:39.382,-851.0,647.0,-456.0,6.0,20.0,54.0,122,57,79,83,70
2025-02-26 14:41:39.386,-967.0,749.0,-467.0,10.0,9.0,49.0,122,56,80,84,69
2025-02-26 14:41:39.390,-1112.0,934.0,-460.0,16.0,-7.0,37.0,122,58,80,81,68
2025-02-26 14:41:39.395,-1156.0,1137.0,-434.0,22.0,-15.0,19.0,119,55,79,81,67
2025-02-26 14:41:39.403,-1232.0,1227.0,-364.0,34.0,-28.0,4.0,122,56,79,83,68
2025-02-26 14:41:39.407,-1185.0,1472.0,-334.0,43.0,-36.0,-37.0,123,58,79,83,70
2025-02-26 14:41:39.411,-1141.0,1661.0,-247.0,63.0,-36.0,-96.0,121,56,80,83,68
2025-02-26 14:41:39.415,-1048.0,1763.0,-161.0,87.0,-24.0,-130.0,121,56,81,81,69
2025-02-26 14:41:39.422,-943.0,1907.0,-156.0,116.0,-5.0,-202.0,124,59,82,85,71
2025-02-26 14:41:39.426,-803.0,1947.0,-104.0,128.0,9.0,-274.0,123,57,80,84,69
2025-02-26 14:41:39.432,-791.0,1837.0,-76.0,157.0,15.0,-342.0,122,57,82,80,67
2025-02-26 14:41:39.436,-659.0,1754.0,-84.0,182.0,27.0,-372.0,121,55,81,81,67
2025-02-26 14:41:39.443,-428.0,1522.0,-82.0,209.0,34.0,-426.0,124,59,83,86,71
2025-02-26 14:41:39.447,-200.0,1308.0,-84.0,223.0,34.0,-473.0,122,55,82,83,68
2025-02-26 14:41:39.452,-140.0,1114.0,-134.0,247.0,28.0,-512.0,120,55,83,83,68
2025-02-26 14:41:39.456,94.0,974.0,-113.0,274.0,16.0,-528.0,118,55,82,83,68
2025-02-26 14:41:39.462,343.0,648.0,-55.0,304.0,5.0,-547.0,122,58,84,85,71
2025-02-26 14:41:39.468,612.0,248.0,18.0,320.0,-2.0,-562.0,120,56,83,82,68
2025-02-26 14:41:39.472,723.0,41.0,96.0,353.0,-9.0,-568.0,117,57,82,83,68
2025-02-26 14:41:39.477,897.0,-329.0,134.0,380.0,-21.0,-563.0,118,58,85,83,70
2025-02-26 14:41:39.484,1221.0,-799.0,376.0,390.0,-36.0,-539.0,118,58,85,87,71
2025-02-26 14:41:39.489,1457.0,-1511.0,737.0,417.0,-49.0,-496.0,115,56,84,83,69
2025-02-26 14:41:39.493,1869.0,-1998.0,1260.0,433.0,-78.0,-468.0,114,56,84,85,70
2025-02-26 14:41:39.497,2435.0,-2907.0,1517.0,449.0,-81.0,-401.0,113,58,84,83,71
2025-02-26 14:41:39.505,3031.0,-4008.0,1952.0,454.0,-48.0,-333.0,112,59,85,87,73
2025-02-26 14:41:39.509,3607.0,-5119.0,2377.0,452.0,13.0,-268.0,113,59,86,84,74
2025-02-26 14:41:39.513,3759.0,-6090.0,2569.0,420.0,41.0,-195.0,110,58,82,81,71
2025-02-26 14:41:39.521,3577.0,-6348.0,2422.0,342.0,92.0,-148.0,111,55,80,79,69
2025-02-26 14:41:39.525,2833.0,-6135.0,2218.0,208.0,132.0,-17.0,111,61,81,77,73
2025-02-26 14:41:39.530,1879.0,-5372.0,1614.0,47.0,116.0,119.0,111,59,82,74,71
2025-02-26 14:41:39.535,914.0,-4279.0,1098.0,-24.0,21.0,212.0,109,54,82,69,69
2025-02-26 14:41:39.542,577.0,-3168.0,776.0,-149.0,-33.0,261.0,111,59,84,74,68
2025-02-26 14:41:39.546,356.0,-2809.0,517.0,-244.0,-101.0,272.0,111,61,89,76,71
2025-02-26 14:41:39.550,407.0,-2306.0,538.0,-303.0,-139.0,283.0,115,61,89,73,72
2025-02-26 14:41:39.558,666.0,-1981.0,539.0,-312.0,-153.0,281.0,115,60,91,76,72
2025-02-26 14:41:39.562,752.0,-1907.0,633.0,-311.0,-157.0,270.0,115,60,87,80,74
2025-02-26 14:41:39.566,784.0,-1903.0,666.0,-286.0,-160.0,265.0,113,60,87,81,72
2025-02-26 14:41:39.574,764.0,-1827.0,623.0,-254.0,-142.0,252.0,115,60,85,80,73
2025-02-26 14:41:39.578,791.0,-1723.0,594.0,-219.0,-84.0,245.0,114,60,81,82,73
2025-02-26 14:41:39.582,744.0,-1580.0,563.0,-205.0,-40.0,234.0,115,62,80,83,73
2025-02-26 14:41:39.587,691.0,-1435.0,490.0,-174.0,-21.0,222.0,113,60,75,82,72
2025-02-26 14:41:39.594,535.0,-1390.0,422.0,-141.0,5.0,215.0,114,59,75,82,71
2025-02-26 14:41:39.599,452.0,-1267.0,356.0,-116.0,27.0,208.0,115,59,78,84,74
2025-02-26 14:41:39.604,344.0,-1205.0,307.0,-106.0,50.0,210.0,115,61,78,86,74
2025-02-26 14:41:39.607,249.0,-1166.0,249.0,-87.0,59.0,217.0,114,58,78,84,72
2025-02-26 14:41:39.616,106.0,-1096.0,245.0,-79.0,66.0,224.0,113,60,79,87,74
2025-02-26 14:41:39.618,-20.0,-1048.0,244.0,-64.0,53.0,239.0,114,60,80,87,74
2025-02-26 14:41:39.624,20.0,-979.0,271.0,-62.0,43.0,248.0,114,59,79,83,74
2025-02-26 14:41:39.630,-34.0,-937.0,282.0,-59.0,24.0,253.0,114,58,78,84,74
2025-02-26 14:41:39.630,-42.0,-780.0,259.0,-54.0,27.0,258.0,115,57,83,83,75
2025-02-26 14:41:39.636,-4.0,-686.0,317.0,-58.0,38.0,263.0,114,57,84,85,74
2025-02-26 14:41:39.642,-11.0,-626.0,321.0,-63.0,53.0,265.0,113,56,85,84,74
2025-02-26 14:41:39.648,-64.0,-449.0,325.0,-71.0,57.0,270.0,114,57,88,86,77
2025-02-26 14:41:39.653,-69.0,-255.0,328.0,-82.0,58.0,272.0,114,57,87,82,74
2025-02-26 14:41:39.660,-151.0,-339.0,281.0,-87.0,61.0,271.0,113,56,84,82,74
2025-02-26 14:41:39.665,-234.0,-139.0,256.0,-90.0,55.0,262.0,117,59,84,83,75
2025-02-26 14:41:39.668,-262.0,-101.0,232.0,-90.0,42.0,250.0,116,59,87,86,75
2025-02-26 14:41:39.673,-339.0,-61.0,198.0,-89.0,35.0,239.0,116,58,84,84,74
2025-02-26 14:41:39.677,-435.0,-36.0,181.0,-98.0,30.0,232.0,116,58,86,87,77
2025-02-26 14:41:39.685,-466.0,64.0,110.0,-99.0,33.0,220.0,117,59,88,84,76
2025-02-26 14:41:39.689,-447.0,64.0,157.0,-106.0,30.0,206.0,116,57,86,84,75
2025-02-26 14:41:39.694,-485.0,130.0,126.0,-122.0,39.0,200.0,116,57,87,85,77
2025-02-26 14:41:39.698,-536.0,154.0,103.0,-129.0,43.0,188.0,117,58,87,85,75
2025-02-26 14:41:39.705,-507.0,235.0,-5.0,-144.0,43.0,175.0,116,56,83,84,75
2025-02-26 14:41:39.710,-578.0,256.0,-3.0,-153.0,43.0,168.0,118,60,82,82,76
2025-02-26 14:41:39.713,-591.0,297.0,6.0,-157.0,40.0,150.0,118,60,83,82,76
2025-02-26 14:41:39.718,-595.0,346.0,-90.0,-158.0,41.0,132.0,118,58,82,83,77
2025-02-26 14:41:39.723,-597.0,387.0,-116.0,-166.0,43.0,126.0,119,58,79,83,76
2025-02-26 14:41:39.730,-593.0,364.0,-164.0,-169.0,44.0,112.0,120,60,81,84,77
2025-02-26 14:41:39.734,-614.0,280.0,-214.0,-168.0,41.0,103.0,124,62,82,85,79
2025-02-26 14:41:39.739,-637.0,266.0,-248.0,-172.0,37.0,96.0,120,61,82,85,78
2025-02-26 14:41:39.743,-681.0,243.0,-251.0,-170.0,28.0,92.0,125,61,84,89,79
2025-02-26 14:41:39.751,-696.0,258.0,-281.0,-161.0,23.0,83.0,127,64,86,91,81
2025-02-26 14:41:39.755,-730.0,281.0,-331.0,-151.0,26.0,75.0,126,63,83,92,80
2025-02-26 14:41:39.759,-688.0,300.0,-288.0,-143.0,26.0,72.0,126,62,82,88,79
2025-02-26 14:41:39.763,-701.0,309.0,-350.0,-121.0,14.0,59.0,129,63,83,90,82
2025-02-26 14:41:39.771,-745.0,363.0,-364.0,-111.0,4.0,44.0,129,61,82,88,80
2025-02-26 14:41:39.775,-722.0,434.0,-405.0,-91.0,2.0,28.0,129,54,82,89,84
2025-02-26 14:41:39.779,-697.0,426.0,-408.0,-74.0,4.0,22.0,131,62,84,88,79
2025-02-26 14:41:39.784,-730.0,473.0,-473.0,-59.0,-1.0,13.0,132,59,83,89,80
2025-02-26 14:41:39.788,-756.0,587.0,-525.0,-29.0,-9.0,3.0,132,61,82,87,79
2025-02-26 14:41:39.795,-827.0,641.0,-560.0,3.0,-22.0,-5.0,134,60,83,88,80
2025-02-26 14:41:39.799,-1016.0,795.0,-500.0,20.0,-25.0,-25.0,135,61,86,90,81
2025-02-26 14:41:39.804,-1031.0,1033.0,-508.0,44.0,-27.0,-56.0,135,61,86,93,80
2025-02-26 14:41:39.808,-1145.0,1173.0,-468.0,76.0,-31.0,-75.0,137,61,84,89,79
2025-02-26 14:41:39.813,-1291.0,1476.0,-385.0,106.0,-35.0,-116.0,137,63,85,90,81
2025-02-26 14:41:39.821,-1279.0,1692.0,-259.0,119.0,-36.0,-164.0,139,62,87,90,79
2025-02-26 14:41:39.825,-1223.0,1808.0,-121.0,158.0,-37.0,-220.0,140,63,89,89,79
2025-02-26 14:41:39.832,-1160.0,1812.0,3.0,208.0,-36.0,-278.0,139,59,87,88,82
2025-02-26 14:41:39.836,-1044.0,1783.0,28.0,258.0,-31.0,-307.0,143,60,87,91,80
2025-02-26 14:41:39.841,-763.0,1625.0,51.0,304.0,-18.0,-360.0,145,62,92,92,80
2025-02-26 14:41:39.845,-537.0,1472.0,-22.0,323.0,-5.0,-407.0,146,62,90,90,81
2025-02-26 14:41:39.853,-457.0,1284.0,-146.0,354.0,2.0,-442.0,143,61,90,89,79
2025-02-26 14:41:39.857,-332.0,1139.0,-294.0,392.0,7.0,-453.0,146,60,90,91,79
2025-02-26 14:41:39.862,-286.0,851.0,-342.0,434.0,-12.0,-477.0,149,62,89,91,80
2025-02-26 14:41:39.866,-95.0,623.0,-359.0,459.0,-63.0,-506.0,146,61,89,92,78
2025-02-26 14:41:39.873,35.0,419.0,-365.0,502.0,-99.0,-526.0,145,58,86,87,76
2025-02-26 14:41:39.878,310.0,346.0,-322.0,536.0,-183.0,-533.0,150,60,88,90,78
2025-02-26 14:41:39.882,578.0,127.0,-203.0,550.0,-259.0,-542.0,149,61,90,91,80
2025-02-26 14:41:39.887,1024.0,-37.0,106.0,550.0,-312.0,-544.0,149,60,87,90,79
2025-02-26 14:41:39.894,1321.0,-402.0,506.0,539.0,-328.0,-534.0,149,59,87,89,76
2025-02-26 14:41:39.898,1858.0,-605.0,988.0,511.0,-327.0,-529.0,149,60,89,89,77
2025-02-26 14:41:39.903,2444.0,-1327.0,1231.0,493.0,-298.0,-509.0,151,62,92,89,80
2025-02-26 14:41:39.910,3033.0,-2455.0,1960.0,468.0,-232.0,-459.0,151,60,91,89,82
2025-02-26 14:41:39.914,3538.0,-4365.0,2933.0,449.0,-152.0,-354.0,153,59,88,88,82
2025-02-26 14:41:39.919,4045.0,-6328.0,3730.0,425.0,-115.0,-190.0,154,60,90,84,81
2025-02-26 14:41:39.926,4083.0,-7220.0,4188.0,381.0,-33.0,-30.0,155,61,90,84,81
2025-02-26 14:41:39.931,3904.0,-7094.0,4025.0,311.0,76.0,38.0,155,58,91,79,80
2025-02-26 14:41:39.935,3161.0,-6058.0,3655.0,238.0,183.0,142.0,154,61,93,80,81
2025-02-26 14:41:39.943,2194.0,-4415.0,2923.0,185.0,262.0,202.0,155,60,93,78,76
2025-02-26 14:41:39.948,1351.0,-2578.0,2448.0,42.0,275.0,230.0,157,61,94,79,75
2025-02-26 14:41:39.952,1013.0,-1264.0,1898.0,-110.0,248.0,228.0,157,60,95,78,73
2025-02-26 14:41:39.956,488.0,-930.0,1316.0,-227.0,162.0,207.0,155,61,96,80,73
2025-02-26 14:41:39.964,251.0,-626.0,1092.0,-319.0,62.0,177.0,157,64,99,82,75
2025-02-26 14:41:39.966,161.0,-604.0,772.0,-344.0,-15.0,153.0,155,62,97,81,74
2025-02-26 14:41:39.972,138.0,-815.0,505.0,-357.0,-46.0,133.0,154,59,96,79,73
2025-02-26 14:41:39.976,198.0,-899.0,315.0,-356.0,-87.0,129.0,157,61,95,81,74
2025-02-26 14:41:39.984,154.0,-1245.0,285.0,-345.0,-93.0,127.0,154,62,93,82,77
2025-02-26 14:41:39.989,144.0,-1469.0,289.0,-343.0,-69.0,133.0,155,62,85,83,77
2025-02-26 14:41:39.992,156.0,-1697.0,396.0,-357.0,-51.0,143.0,155,60,78,81,75
2025-02-26 14:41:40.000,216.0,-1715.0,413.0,-359.0,-18.0,150.0,157,61,76,82,77
2025-02-26 14:41:40.005,208.0,-1728.0,443.0,-335.0,-4.0,166.0,156,63,78,85,78
2025-02-26 14:41:40.010,196.0,-1720.0,451.0,-323.0,0.0,183.0,156,62,79,87,79
2025-02-26 14:41:40.012,190.0,-1555.0,465.0,-282.0,1.0,197.0,154,60,80,85,76
2025-02-26 14:41:40.021,173.0,-1494.0,496.0,-249.0,10.0,200.0,155,62,86,87,79
2025-02-26 14:41:40.025,69.0,-1387.0,520.0,-204.0,19.0,215.0,156,62,85,87,80
2025-02-26 14:41:40.029,165.0,-1210.0,545.0,-187.0,21.0,221.0,154,61,85,90,79
2025-02-26 14:41:40.033,158.0,-1002.0,546.0,-161.0,18.0,221.0,153,64,86,86,82
2025-02-26 14:41:40.038,72.0,-863.0,523.0,-153.0,30.0,227.0,153,61,89,87,80
2025-02-26 14:41:40.045,70.0,-625.0,441.0,-152.0,48.0,227.0,154,61,91,86,80
2025-02-26 14:41:40.049,47.0,-402.0,385.0,-169.0,66.0,229.0,154,60,90,87,79
2025-02-26 14:41:40.054,13.0,-363.0,386.0,-201.0,94.0,230.0,156,57,91,86,80
2025-02-26 14:41:40.058,-11.0,-205.0,395.0,-230.0,98.0,229.0,156,60,90,87,81
2025-02-26 14:41:40.066,-124.0,-178.0,278.0,-253.0,85.0,221.0,154,63,89,89,78
2025-02-26 14:41:40.068,-238.0,-160.0,176.0,-240.0,48.0,216.0,152,60,88,85,79
2025-02-26 14:41:40.074,-334.0,-115.0,116.0,-227.0,20.0,204.0,148,60,88,89,79
2025-02-26 14:41:40.079,-398.0,-47.0,73.0,-228.0,18.0,198.0,153,60,85,86,79
2025-02-26 14:41:40.086,-440.0,-59.0,25.0,-232.0,17.0,192.0,154,58,78,87,79
2025-02-26 14:41:40.091,-466.0,-21.0,55.0,-243.0,15.0,188.0,154,60,83,87,81
2025-02-26 14:41:40.095,-574.0,-30.0,65.0,-248.0,12.0,184.0,154,57,81,89,77
2025-02-26 14:41:40.099,-584.0,41.0,68.0,-255.0,5.0,174.0,154,57,79,85,78
2025-02-26 14:41:40.103,-634.0,1.0,4.0,-249.0,-11.0,166.0,152,63,81,82,79
2025-02-26 14:41:40.111,-619.0,58.0,8.0,-238.0,-18.0,149.0,154,60,81,86,79
2025-02-26 14:41:40.115,-645.0,77.0,-39.0,-227.0,-17.0,133.0,155,59,79,82,76
2025-02-26 14:41:40.119,-664.0,95.0,-32.0,-197.0,2.0,126.0,156,61,81,85,80
2025-02-26 14:41:40.123,-672.0,42.0,-7.0,-184.0,8.0,115.0,148,59,82,85,80
2025-02-26 14:41:40.128,-638.0,10.0,7.0,-157.0,8.0,99.0,154,58,80,85,78
2025-02-26 14:41:40.132,-643.0,94.0,17.0,-136.0,8.0,95.0,153,60,81,85,79
2025-02-26 14:41:40.140,-642.0,-6.0,-67.0,-132.0,24.0,88.0,159,60,81,84,78
2025-02-26 14:41:40.144,-703.0,-25.0,-157.0,-111.0,32.0,85.0,153,58,83,85,78
2025-02-26 14:41:40.148,-707.0,-16.0,-135.0,-90.0,39.0,85.0,155,61,83,86,79
2025-02-26 14:41:40.152,-689.0,-44.0,-153.0,-79.0,36.0,80.0,153,60,82,85,76
2025-02-26 14:41:40.156,-693.0,-37.0,-173.0,-48.0,34.0,77.0,153,59,82,84,77
2025-02-26 14:41:40.164,-685.0,-57.0,-192.0,-19.0,34.0,75.0,156,61,87,84,80
2025-02-26 14:41:40.169,-663.0,-32.0,-218.0,-4.0,35.0,71.0,154,62,83,89,81
2025-02-26 14:41:40.173,-658.0,-14.0,-232.0,21.0,35.0,66.0,155,58,81,85,78
2025-02-26 14:41:40.177,-662.0,-14.0,-277.0,43.0,38.0,64.0,154,60,85,86,79
2025-02-26 14:41:40.181,-682.0,-16.0,-301.0,59.0,44.0,62.0,155,63,87,85,79
2025-02-26 14:41:40.188,-707.0,-15.0,-341.0,71.0,45.0,60.0,153,59,84,84,79
2025-02-26 14:41:40.193,-722.0,0.0,-353.0,96.0,43.0,60.0,153,61,86,85,78
2025-02-26 14:41:40.197,-730.0,23.0,-332.0,122.0,35.0,54.0,153,61,88,85,78
2025-02-26 14:41:40.201,-727.0,71.0,-359.0,135.0,33.0,45.0,155,61,86,85,78
2025-02-26 14:41:40.205,-749.0,100.0,-358.0,162.0,31.0,38.0,154,62,85,87,78
2025-02-26 14:41:40.214,-809.0,246.0,-339.0,186.0,26.0,22.0,154,61,85,86,80
2025-02-26 14:41:40.218,-818.0,364.0,-242.0,198.0,26.0,3.0,155,59,86,84,77
2025-02-26 14:41:40.221,-859.0,481.0,-282.0,223.0,7.0,-10.0,155,60,86,86,80
2025-02-26 14:41:40.226,-889.0,622.0,-274.0,235.0,0.0,-38.0,155,62,86,88,79
2025-02-26 14:41:40.231,-956.0,793.0,-208.0,241.0,-2.0,-69.0,153,59,85,83,78
2025-02-26 14:41:40.237,-997.0,915.0,-118.0,251.0,-4.0,-86.0,154,60,85,85,76
2025-02-26 14:41:40.243,-1002.0,1140.0,-92.0,262.0,-9.0,-126.0,154,63,88,88,81
2025-02-26 14:41:40.247,-1018.0,1303.0,48.0,264.0,-11.0,-174.0,153,59,85,84,79
2025-02-26 14:41:40.255,-994.0,1389.0,130.0,269.0,-11.0,-202.0,153,60,85,85,78
2025-02-26 14:41:40.259,-904.0,1485.0,141.0,261.0,-10.0,-258.0,156,62,88,87,80
2025-02-26 14:41:40.263,-828.0,1441.0,106.0,258.0,-10.0,-310.0,152,61,88,87,81
2025-02-26 14:41:40.267,-810.0,1204.0,56.0,249.0,-11.0,-349.0,153,60,87,86,80
2025-02-26 14:41:40.275,-785.0,1111.0,-33.0,234.0,-13.0,-368.0,154,61,90,90,81
2025-02-26 14:41:40.279,-723.0,845.0,-81.0,237.0,-20.0,-402.0,155,62,88,88,81
2025-02-26 14:41:40.283,-573.0,574.0,-100.0,233.0,-40.0,-427.0,154,60,88,88,80
2025-02-26 14:41:40.287,-505.0,340.0,-193.0,236.0,-52.0,-441.0,153,61,88,86,80
2025-02-26 14:41:40.295,-385.0,232.0,-348.0,245.0,-86.0,-446.0,154,64,89,88,82
2025-02-26 14:41:40.299,-167.0,77.0,-157.0,231.0,-116.0,-454.0,155,61,89,90,82
2025-02-26 14:41:40.304,97.0,-199.0,-91.0,229.0,-136.0,-458.0,155,62,90,89,81
2025-02-26 14:41:40.308,323.0,-599.0,98.0,241.0,-150.0,-456.0,152,60,91,89,80
2025-02-26 14:41:40.315,826.0,-729.0,303.0,234.0,-171.0,-458.0,149,61,91,86,81
2025-02-26 14:41:40.320,1217.0,-1097.0,410.0,239.0,-187.0,-456.0,156,62,94,90,83
2025-02-26 14:41:40.325,1596.0,-1613.0,573.0,247.0,-205.0,-446.0,151,64,94,87,82
2025-02-26 14:41:40.333,1887.0,-2319.0,895.0,256.0,-210.0,-412.0,155,60,90,88,82
2025-02-26 14:41:40.337,2077.0,-3170.0,1421.0,262.0,-206.0,-346.0,157,59,88,89,83
2025-02-26 14:41:40.341,2543.0,-3630.0,2101.0,245.0,-175.0,-301.0,156,61,92,90,84
2025-02-26 14:41:40.349,2947.0,-4444.0,2761.0,211.0,-112.0,-201.0,156,60,92,90,86
2025-02-26 14:41:40.353,3236.0,-5017.0,2985.0,184.0,-43.0,-96.0,156,60,91,89,87
2025-02-26 14:41:40.358,3287.0,-5048.0,3201.0,168.0,32.0,5.0,157,61,88,88,87
2025-02-26 14:41:40.365,3218.0,-4503.0,2856.0,145.0,67.0,83.0,156,61,87,87,87
2025-02-26 14:41:40.369,2767.0,-4110.0,2350.0,93.0,139.0,113.0,159,61,86,84,84
2025-02-26 14:41:40.373,2233.0,-3306.0,1990.0,23.0,184.0,161.0,156,61,87,83,85
2025-02-26 14:41:40.378,1741.0,-2596.0,1379.0,-20.0,193.0,191.0,155,62,86,79,83
2025-02-26 14:41:40.385,1124.0,-2002.0,770.0,-87.0,187.0,214.0,156,61,89,80,82
2025-02-26 14:41:40.389,869.0,-1539.0,311.0,-151.0,171.0,221.0,157,60,86,79,79
2025-02-26 14:41:40.394,483.0,-1349.0,5.0,-194.0,141.0,223.0,157,61,90,80,81
2025-02-26 14:41:40.398,311.0,-1053.0,-106.0,-214.0,97.0,216.0,156,62,90,79,79
2025-02-26 14:41:40.406,197.0,-1045.0,-279.0,-240.0,73.0,203.0,155,61,89,81,81
2025-02-26 14:41:40.410,123.0,-1132.0,-343.0,-240.0,32.0,187.0,156,60,88,81,80
2025-02-26 14:41:40.415,37.0,-1254.0,-228.0,-231.0,-10.0,179.0,156,62,84,82,81
2025-02-26 14:41:40.422,-5.0,-1381.0,-166.0,-224.0,-40.0,171.0,157,62,83,83,80
2025-02-26 14:41:40.427,15.0,-1522.0,-26.0,-217.0,-53.0,172.0,156,61,80,86,80
2025-02-26 14:41:40.431,89.0,-1590.0,115.0,-213.0,-51.0,182.0,154,60,84,85,81
2025-02-26 14:41:40.435,125.0,-1613.0,269.0,-193.0,-51.0,189.0,156,62,84,88,83
2025-02-26 14:41:40.443,128.0,-1575.0,361.0,-175.0,-41.0,203.0,157,65,88,91,83
2025-02-26 14:41:40.447,165.0,-1461.0,413.0,-162.0,-18.0,215.0,157,63,88,89,84
2025-02-26 14:41:40.451,183.0,-1366.0,486.0,-143.0,-7.0,231.0,154,60,89,86,82
2025-02-26 14:41:40.456,129.0,-1251.0,447.0,-131.0,13.0,240.0,156,61,89,89,84
2025-02-26 14:41:40.463,118.0,-1168.0,500.0,-110.0,20.0,249.0,157,62,91,92,87
2025-02-26 14:41:40.468,19.0,-1030.0,459.0,-105.0,32.0,259.0,157,62,93,90,84
2025-02-26 14:41:40.472,-79.0,-817.0,406.0,-89.0,42.0,266.0,156,59,89,88,83
2025-02-26 14:41:40.476,-237.0,-748.0,394.0,-77.0,61.0,266.0,154,62,92,90,86
2025-02-26 14:41:40.484,-368.0,-496.0,351.0,-73.0,76.0,260.0,157,62,91,91,87
2025-02-26 14:41:40.488,-378.0,-355.0,288.0,-62.0,83.0,249.0,154,58,90,89,83
2025-02-26 14:41:40.492,-430.0,-318.0,268.0,-61.0,95.0,244.0,153,61,92,90,86
2025-02-26 14:41:40.496,-508.0,-176.0,237.0,-71.0,92.0,235.0,155,61,92,90,86
2025-02-26 14:41:40.501,-579.0,-29.0,208.0,-77.0,69.0,225.0,153,59,90,90,85
2025-02-26 14:41:40.509,-618.0,52.0,227.0,-96.0,57.0,219.0,152,60,88,90,85
2025-02-26 14:41:40.513,-646.0,152.0,197.0,-113.0,41.0,204.0,154,59,91,88,86
2025-02-26 14:41:40.515,-695.0,190.0,131.0,-124.0,37.0,189.0,152,60,89,90,85
2025-02-26 14:41:40.521,-708.0,239.0,99.0,-140.0,36.0,174.0,154,61,90,90,86
2025-02-26 14:41:40.528,-729.0,246.0,63.0,-149.0,35.0,167.0,153,63,90,91,87
2025-02-26 14:41:40.533,-755.0,252.0,0.0,-147.0,33.0,152.0,151,61,86,91,86
2025-02-26 14:41:40.537,-717.0,207.0,-53.0,-163.0,32.0,137.0,151,59,87,89,84
2025-02-26 14:41:40.540,-794.0,147.0,-131.0,-158.0,30.0,132.0,153,62,88,91,87
2025-02-26 14:41:40.546,-801.0,54.0,-129.0,-153.0,27.0,117.0,150,61,88,91,86
2025-02-26 14:41:40.554,-758.0,-23.0,-150.0,-145.0,26.0,103.0,149,61,84,88,85
2025-02-26 14:41:40.558,-766.0,-61.0,-163.0,-140.0,30.0,96.0,151,59,83,88,86
2025-02-26 14:41:40.559,-792.0,-104.0,-189.0,-129.0,24.0,85.0,150,61,87,91,88
2025-02-26 14:41:40.566,-775.0,-142.0,-246.0,-120.0,16.0,76.0,151,62,86,90,86
2025-02-26 14:41:40.574,-799.0,-168.0,-289.0,-98.0,11.0,68.0,147,60,84,90,88
2025-02-26 14:41:40.577,-767.0,-198.0,-188.0,-80.0,15.0,64.0,150,63,86,90,88
2025-02-26 14:41:40.583,-803.0,-303.0,-277.0,-68.0,15.0,58.0,149,62,85,93,89
2025-02-26 14:41:40.587,-777.0,-298.0,-248.0,-58.0,15.0,52.0,149,64,87,91,92
2025-02-26 14:41:40.595,-758.0,-247.0,-282.0,-38.0,7.0,51.0,147,64,85,93,91
2025-02-26 14:41:40.599,-683.0,-252.0,-250.0,-20.0,-2.0,49.0,149,64,86,94,94
2025-02-26 14:41:40.603,-687.0,-248.0,-291.0,-10.0,-3.0,49.0,148,65,88,97,97
2025-02-26 14:41:40.607,-710.0,-360.0,-275.0,3.0,0.0,52.0,149,64,87,96,97
2025-02-26 14:41:40.611,-758.0,-350.0,-317.0,19.0,-2.0,53.0,151,66,87,98,99
2025-02-26 14:41:40.619,-742.0,-298.0,-298.0,32.0,-3.0,57.0,149,68,87,99,102
2025-02-26 14:41:40.623,-723.0,-328.0,-194.0,54.0,0.0,59.0,148,68,88,102,102
2025-02-26 14:41:40.627,-730.0,-294.0,-193.0,76.0,9.0,58.0,150,71,90,102,105
2025-02-26 14:41:40.631,-686.0,-216.0,-219.0,98.0,13.0,54.0,149,69,90,104,104
2025-02-26 14:41:40.640,-697.0,-154.0,-189.0,109.0,17.0,48.0,148,71,91,104,107
2025-02-26 14:41:40.642,-675.0,-56.0,-213.0,134.0,23.0,44.0,150,73,92,104,109
2025-02-26 14:41:40.648,-658.0,-18.0,-248.0,155.0,26.0,35.0,148,73,94,109,114
2025-02-26 14:41:40.654,-650.0,122.0,-224.0,165.0,30.0,18.0,146,76,94,108,114
2025-02-26 14:41:40.660,-683.0,286.0,-250.0,188.0,29.0,-2.0,147,76,96,107,113
2025-02-26 14:41:40.673,-687.0,361.0,-298.0,209.0,30.0,-15.0,148,79,97,110,115
2025-02-26 14:41:40.675,-749.0,464.0,-409.0,224.0,23.0,-41.0,148,82,99,110,115
2025-02-26 14:41:40.677,-879.0,530.0,-469.0,237.0,11.0,-71.0,149,77,100,112,113
2025-02-26 14:41:40.680,-1044.0,628.0,-512.0,242.0,-1.0,-100.0,149,85,101,111,117
2025-02-26 14:41:40.684,-1095.0,688.0,-585.0,250.0,-9.0,-130.0,147,89,103,112,119
2025-02-26 14:41:40.693,-1162.0,682.0,-605.0,265.0,-24.0,-146.0,145,91,104,113,119
2025-02-26 14:41:40.697,-1200.0,619.0,-613.0,270.0,-40.0,-179.0,148,95,104,112,125
2025-02-26 14:41:40.701,-1149.0,595.0,-702.0,266.0,-63.0,-212.0,149,98,108,117,124
2025-02-26 14:41:40.709,-1093.0,529.0,-798.0,269.0,-96.0,-248.0,149,103,109,114,121
2025-02-26 14:41:40.713,-942.0,467.0,-690.0,258.0,-137.0,-275.0,148,103,109,115,122
2025-02-26 14:41:40.721,-853.0,408.0,-681.0,257.0,-181.0,-302.0,150,107,113,116,122
2025-02-26 14:41:40.725,-602.0,449.0,-506.0,254.0,-207.0,-335.0,150,106,113,116,119
2025-02-26 14:41:40.730,-322.0,384.0,-443.0,258.0,-225.0,-359.0,148,111,115,118,123
2025-02-26 14:41:40.738,-50.0,271.0,-133.0,273.0,-221.0,-377.0,149,114,115,118,122
2025-02-26 14:41:40.742,96.0,-79.0,-60.0,286.0,-215.0,-382.0,150,116,117,123,124
2025-02-26 14:41:40.746,664.0,-254.0,-75.0,292.0,-246.0,-384.0,150,114,117,119,123
2025-02-26 14:41:40.754,1199.0,-558.0,308.0,269.0,-285.0,-399.0,152,121,120,122,123
2025-02-26 14:41:40.758,1279.0,-856.0,845.0,250.0,-291.0,-402.0,150,121,120,124,124
2025-02-26 14:41:40.762,1166.0,-989.0,1119.0,211.0,-280.0,-386.0,153,124,122,126,125
2025-02-26 14:41:40.771,1294.0,-1158.0,1455.0,205.0,-253.0,-348.0,154,127,123,125,126
2025-02-26 14:41:40.775,1342.0,-1454.0,1757.0,174.0,-241.0,-316.0,152,127,122,126,128
2025-02-26 14:41:40.783,1565.0,-1891.0,1821.0,130.0,-250.0,-285.0,155,129,124,128,127
2025-02-26 14:41:40.788,1805.0,-2244.0,1973.0,69.0,-254.0,-262.0,157,129,123,127,128
2025-02-26 14:41:40.795,1876.0,-2646.0,2142.0,45.0,-254.0,-235.0,156,131,125,125,129
2025-02-26 14:41:40.799,1807.0,-2980.0,2174.0,7.0,-249.0,-197.0,154,127,124,128,128
2025-02-26 14:41:40.804,1688.0,-3311.0,2226.0,-13.0,-223.0,-150.0,153,131,123,127,128
2025-02-26 14:41:40.811,1544.0,-3578.0,2275.0,-57.0,-159.0,-98.0,153,130,124,126,127
2025-02-26 14:41:40.816,1318.0,-3596.0,2281.0,-106.0,-123.0,-41.0,155,126,123,125,126
2025-02-26 14:41:40.823,1320.0,-2976.0,2129.0,-147.0,-42.0,30.0,156,128,123,126,127
2025-02-26 14:41:40.828,1329.0,-2350.0,1372.0,-206.0,32.0,85.0,154,128,124,123,126
2025-02-26 14:41:40.832,1439.0,-1968.0,972.0,-187.0,3.0,115.0,155,127,122,124,125
2025-02-26 14:41:40.840,1188.0,-1885.0,1013.0,-134.0,-13.0,160.0,157,131,124,126,127
2025-02-26 14:41:40.844,911.0,-1664.0,998.0,-100.0,53.0,207.0,156,130,125,128,130
2025-02-26 14:41:40.849,813.0,-1365.0,752.0,-128.0,73.0,234.0,154,129,125,126,128
2025-02-26 14:41:40.857,719.0,-1242.0,332.0,-137.0,50.0,247.0,148,128,125,125,130
2025-02-26 14:41:40.861,606.0,-1281.0,293.0,-136.0,25.0,254.0,153,128,125,126,128
2025-02-26 14:41:40.865,546.0,-1350.0,266.0,-149.0,15.0,261.0,154,127,125,127,128
2025-02-26 14:41:40.873,482.0,-1301.0,490.0,-184.0,30.0,256.0,152,128,125,123,126
2025-02-26 14:41:40.877,377.0,-1280.0,339.0,-199.0,34.0,254.0,153,129,126,126,127
2025-02-26 14:41:40.882,307.0,-1266.0,311.0,-187.0,22.0,243.0,154,130,127,128,129
2025-02-26 14:41:40.889,209.0,-1398.0,348.0,-152.0,23.0,230.0,153,129,126,126,129
2025-02-26 14:41:40.893,111.0,-1433.0,359.0,-137.0,26.0,218.0,153,129,125,125,128
2025-02-26 14:41:40.898,54.0,-1348.0,470.0,-115.0,30.0,208.0,153,130,126,127,127
2025-02-26 14:41:40.905,52.0,-1235.0,535.0,-88.0,34.0,201.0,151,129,126,127,128
2025-02-26 14:41:40.910,2.0,-1146.0,535.0,-49.0,44.0,200.0,153,129,126,126,128
2025-02-26 14:41:40.914,4.0,-1000.0,616.0,-24.0,58.0,188.0,145,131,125,133,129
2025-02-26 14:41:40.922,-39.0,-1017.0,65.0,-30.0,26.0,195.0,155,131,126,127,128
2025-02-26 14:41:40.927,-189.0,-899.0,375.0,-19.0,40.0,200.0,153,130,126,128,128
2025-02-26 14:41:40.931,-148.0,-844.0,377.0,-3.0,51.0,207.0,152,129,125,127,129
2025-02-26 14:41:40.934,-175.0,-778.0,363.0,0.0,67.0,209.0,153,130,123,126,126
2025-02-26 14:41:40.942,-177.0,-759.0,350.0,0.0,69.0,214.0,153,131,125,128,131
2025-02-26 14:41:40.946,-178.0,-709.0,438.0,-4.0,78.0,215.0,153,130,128,127,129
2025-02-26 14:41:40.951,-174.0,-621.0,419.0,-11.0,85.0,213.0,152,130,124,128,129
2025-02-26 14:41:40.958,-166.0,-517.0,360.0,-18.0,88.0,208.0,152,130,126,126,128
2025-02-26 14:41:40.963,-224.0,-489.0,378.0,-17.0,95.0,205.0,152,131,126,126,127
2025-02-26 14:41:40.968,-292.0,-401.0,362.0,-15.0,110.0,195.0,153,134,126,128,129
2025-02-26 14:41:40.975,-377.0,-317.0,308.0,-18.0,121.0,188.0,149,131,127,129,129
2025-02-26 14:41:40.980,-473.0,-206.0,336.0,-17.0,131.0,179.0,153,133,127,129,129
2025-02-26 14:41:40.984,-499.0,-195.0,232.0,-18.0,133.0,170.0,150,129,126,129,135
2025-02-26 14:41:40.991,-533.0,-117.0,243.0,-27.0,137.0,157.0,151,132,124,126,128
2025-02-26 14:41:40.996,-587.0,-65.0,63.0,-39.0,133.0,143.0,153,128,125,127,126
2025-02-26 14:41:41.000,-621.0,21.0,6.0,-55.0,131.0,135.0,152,131,126,130,129
2025-02-26 14:41:41.008,-701.0,137.0,-58.0,-68.0,124.0,120.0,154,132,125,129,128
2025-02-26 14:41:41.012,-833.0,217.0,202.0,-84.0,121.0,102.0,152,130,126,129,128
2025-02-26 14:41:41.016,-809.0,94.0,-242.0,-65.0,106.0,97.0,152,129,124,128,128
2025-02-26 14:41:41.020,-925.0,235.0,-319.0,-55.0,80.0,88.0,153,131,126,127,129
2025-02-26 14:41:41.028,-996.0,217.0,-217.0,-60.0,73.0,74.0,151,131,126,129,129
2025-02-26 14:41:41.033,-984.0,241.0,-248.0,-63.0,57.0,60.0,152,129,125,128,129
2025-02-26 14:41:41.038,-1012.0,193.0,-273.0,-61.0,35.0,46.0,152,128,124,127,128
2025-02-26 14:41:41.045,-1030.0,136.0,-242.0,-55.0,25.0,32.0,151,128,125,127,128
2025-02-26 14:41:41.049,-1044.0,128.0,-211.0,-52.0,8.0,19.0,152,127,123,128,127
2025-02-26 14:41:41.053,-1010.0,112.0,-185.0,-45.0,-4.0,13.0,154,131,124,130,127
2025-02-26 14:41:41.062,-995.0,153.0,-185.0,-34.0,-16.0,0.0,152,129,125,129,127
2025-02-26 14:41:41.066,-1004.0,198.0,-160.0,-27.0,-23.0,-12.0,150,128,124,123,128
2025-02-26 14:41:41.070,-989.0,270.0,-142.0,-8.0,-25.0,-26.0,150,129,124,128,128
2025-02-26 14:41:41.078,-974.0,337.0,-115.0,11.0,-25.0,-40.0,151,129,123,128,127
2025-02-26 14:41:41.082,-974.0,372.0,-111.0,29.0,-25.0,-49.0,151,130,125,127,128
2025-02-26 14:41:41.087,-951.0,386.0,-97.0,47.0,-24.0,-66.0,153,130,125,130,129
2025-02-26 14:41:41.091,-953.0,473.0,-118.0,63.0,-24.0,-86.0,152,127,124,128,128
2025-02-26 14:41:41.097,-990.0,567.0,-182.0,72.0,-27.0,-108.0,149,130,123,129,128
2025-02-26 14:41:41.102,-1032.0,708.0,-278.0,96.0,-33.0,-130.0,151,128,126,130,131
2025-02-26 14:41:41.109,-1048.0,807.0,-330.0,122.0,-35.0,-154.0,151,129,123,128,127
2025-02-26 14:41:41.114,-1056.0,879.0,-426.0,148.0,-40.0,-178.0,150,131,124,127,127
2025-02-26 14:41:41.119,-1054.0,962.0,-527.0,174.0,-49.0,-191.0,150,130,126,128,128
2025-02-26 14:41:41.126,-1023.0,993.0,-592.0,199.0,-61.0,-216.0,152,126,124,128,127
2025-02-26 14:41:41.132,-902.0,960.0,-588.0,226.0,-76.0,-242.0,152,128,125,130,129
2025-02-26 14:41:41.136,-702.0,879.0,-528.0,257.0,-89.0,-267.0,149,128,126,129,126
2025-02-26 14:41:41.144,-513.0,638.0,-434.0,269.0,-109.0,-288.0,152,129,126,129,128
2025-02-26 14:41:41.147,-318.0,524.0,-209.0,276.0,-130.0,-310.0,151,130,125,131,129
2025-02-26 14:41:41.156,-114.0,425.0,-126.0,283.0,-160.0,-325.0,152,128,124,128,129
2025-02-26 14:41:41.160,132.0,225.0,-27.0,296.0,-188.0,-338.0,155,127,125,127,128
2025-02-26 14:41:41.164,449.0,41.0,116.0,306.0,-199.0,-346.0,151,130,122,128,127
2025-02-26 14:41:41.172,608.0,-100.0,270.0,308.0,-216.0,-346.0,153,126,123,129,126
2025-02-26 14:41:41.176,920.0,-239.0,370.0,320.0,-231.0,-348.0,150,126,123,128,128
2025-02-26 14:41:41.181,1178.0,-449.0,801.0,299.0,-237.0,-343.0,153,131,128,129,129
2025-02-26 14:41:41.188,1542.0,-953.0,1040.0,269.0,-237.0,-329.0,152,128,125,129,127
2025-02-26 14:41:41.192,1810.0,-1551.0,1290.0,237.0,-257.0,-318.0,153,128,127,130,129
2025-02-26 14:41:41.200,2122.0,-2360.0,1643.0,186.0,-259.0,-300.0,154,129,123,129,128
2025-02-26 14:41:41.205,2264.0,-3140.0,1933.0,119.0,-253.0,-272.0,153,128,123,129,130
2025-02-26 14:41:41.206,2214.0,-3768.0,2137.0,58.0,-242.0,-223.0,153,126,125,128,129
2025-02-26 14:41:41.217,2083.0,-4082.0,2276.0,27.0,-228.0,-155.0,153,126,124,126,128
2025-02-26 14:41:41.222,1923.0,-4119.0,2239.0,8.0,-221.0,-76.0,152,125,126,128,129
2025-02-26 14:41:41.229,1683.0,-3723.0,2310.0,-34.0,-186.0,6.0,156,126,126,127,129
2025-02-26 14:41:41.234,1540.0,-3290.0,2361.0,-30.0,-150.0,80.0,151,121,122,128,129
2025-02-26 14:41:41.238,1445.0,-2858.0,2044.0,-62.0,-74.0,147.0,151,121,125,128,128
2025-02-26 14:41:41.246,1298.0,-2403.0,1785.0,-108.0,-65.0,204.0,155,121,125,128,127
2025-02-26 14:41:41.250,1075.0,-1771.0,2006.0,-103.0,1.0,216.0,154,120,125,128,132
2025-02-26 14:41:41.254,918.0,-1634.0,1523.0,-131.0,18.0,233.0,152,121,127,128,129
2025-02-26 14:41:41.262,740.0,-1464.0,1127.0,-175.0,-11.0,245.0,159,124,127,127,130
2025-02-26 14:41:41.266,543.0,-1272.0,1085.0,-181.0,-14.0,251.0,154,122,125,127,131
2025-02-26 14:41:41.274,357.0,-1151.0,818.0,-199.0,6.0,246.0,154,122,125,128,129
2025-02-26 14:41:41.279,255.0,-1138.0,573.0,-210.0,30.0,237.0,155,122,125,125,128
2025-02-26 14:41:41.283,224.0,-1261.0,504.0,-229.0,49.0,221.0,153,122,124,129,129
2025-02-26 14:41:41.291,202.0,-1372.0,466.0,-218.0,51.0,200.0,151,121,125,127,128
2025-02-26 14:41:41.295,234.0,-1517.0,662.0,-180.0,62.0,190.0,151,123,124,128,125
2025-02-26 14:41:41.299,158.0,-1644.0,753.0,-148.0,70.0,173.0,152,122,125,128,129
2025-02-26 14:41:41.307,18.0,-1658.0,790.0,-121.0,70.0,157.0,157,127,125,128,129
2025-02-26 14:41:41.311,10.0,-1469.0,784.0,-74.0,65.0,150.0,152,124,126,130,128
2025-02-26 14:41:41.316,0.0,-1433.0,791.0,-59.0,84.0,155.0,154,123,125,128,128
2025-02-26 14:41:41.320,4.0,-1278.0,508.0,-22.0,88.0,160.0,152,123,127,130,130
2025-02-26 14:41:41.328,-17.0,-1325.0,444.0,-34.0,56.0,170.0,154,122,125,130,130
2025-02-26 14:41:41.332,-29.0,-1223.0,765.0,-21.0,70.0,179.0,154,125,125,128,128
2025-02-26 14:41:41.336,37.0,-1177.0,708.0,-31.0,71.0,201.0,154,124,125,128,128
2025-02-26 14:41:41.344,-78.0,-1001.0,700.0,-39.0,76.0,214.0,151,124,125,129,130
2025-02-26 14:41:41.349,-38.0,-896.0,694.0,-45.0,83.0,221.0,153,125,124,129,128
2025-02-26 14:41:41.353,51.0,-809.0,659.0,-53.0,95.0,222.0,151,123,121,126,129
2025-02-26 14:41:41.357,-1.0,-811.0,633.0,-74.0,105.0,221.0,153,125,123,130,130
2025-02-26 14:41:41.365,-22.0,-712.0,539.0,-85.0,108.0,215.0,154,128,125,130,132
2025-02-26 14:41:41.369,-45.0,-633.0,508.0,-94.0,122.0,208.0,152,123,125,127,129
2025-02-26 14:41:41.374,-79.0,-579.0,477.0,-119.0,123.0,202.0,152,126,127,129,129
2025-02-26 14:41:41.381,-167.0,-447.0,426.0,-139.0,124.0,201.0,152,122,123,129,129
2025-02-26 14:41:41.385,-208.0,-433.0,416.0,-147.0,126.0,199.0,150,124,123,127,129
2025-02-26 14:41:41.393,-233.0,-348.0,467.0,-159.0,132.0,194.0,152,124,125,130,129
2025-02-26 14:41:41.396,-212.0,-289.0,482.0,-179.0,145.0,190.0,153,126,124,130,131
2025-02-26 14:41:41.402,-283.0,-180.0,294.0,-188.0,144.0,183.0,153,130,125,132,130
2025-02-26 14:41:41.407,-361.0,-159.0,162.0,-198.0,141.0,179.0,153,124,124,129,130
2025-02-26 14:41:41.414,-432.0,-47.0,25.0,-206.0,131.0,172.0,154,126,123,128,129
2025-02-26 14:41:41.418,-462.0,87.0,-47.0,-209.0,128.0,165.0,153,122,123,129,129
2025-02-26 14:41:41.426,-517.0,95.0,-84.0,-197.0,119.0,160.0,154,125,122,132,131
2025-02-26 14:41:41.430,-564.0,163.0,-123.0,-170.0,119.0,149.0,155,125,123,130,129
2025-02-26 14:41:41.435,-579.0,494.0,230.0,-145.0,121.0,136.0,153,122,122,127,130
2025-02-26 14:41:41.443,-660.0,271.0,-221.0,-107.0,116.0,125.0,154,124,123,129,129
2025-02-26 14:41:41.447,-764.0,337.0,-16.0,-97.0,103.0,109.0,153,122,121,129,129
2025-02-26 14:41:41.451,-672.0,284.0,-129.0,-80.0,98.0,97.0,150,119,121,130,128
2025-02-26 14:41:41.459,-684.0,247.0,-167.0,-70.0,87.0,80.0,151,121,120,130,127
2025-02-26 14:41:41.463,-734.0,244.0,-186.0,-60.0,77.0,72.0,151,120,122,132,130
2025-02-26 14:41:41.468,-710.0,298.0,-308.0,-53.0,61.0,56.0,153,117,119,129,128
2025-02-26 14:41:41.471,-761.0,307.0,-330.0,-47.0,49.0,39.0,152,115,116,130,126
2025-02-26 14:41:41.479,-833.0,314.0,-347.0,-34.0,43.0,22.0,151,107,116,128,126
2025-02-26 14:41:41.484,-844.0,338.0,-387.0,-15.0,33.0,8.0,151,104,114,127,126
2025-02-26 14:41:41.488,-893.0,333.0,-405.0,3.0,26.0,2.0,154,104,112,127,125
2025-02-26 14:41:41.496,-972.0,412.0,-412.0,11.0,12.0,-12.0,150,96,107,126,126
2025-02-26 14:41:41.500,-1039.0,547.0,-485.0,33.0,-12.0,-24.0,152,92,101,123,120
2025-02-26 14:41:41.504,-1083.0,642.0,-532.0,63.0,-26.0,-33.0,151,87,98,119,112
2025-02-26 14:41:41.508,-1235.0,666.0,-617.0,90.0,-43.0,-35.0,150,83,95,115,110
2025-02-26 14:41:41.515,-1320.0,823.0,-607.0,104.0,-55.0,-48.0,150,78,92,113,105
2025-02-26 14:41:41.520,-1445.0,884.0,-774.0,118.0,-71.0,-66.0,149,79,91,110,97
2025-02-26 14:41:41.524,-1447.0,1082.0,-655.0,133.0,-80.0,-98.0,150,73,88,106,93
2025-02-26 14:41:41.533,-1451.0,1148.0,-680.0,170.0,-91.0,-129.0,147,70,86,103,88
2025-02-26 14:41:41.537,-1457.0,1250.0,-271.0,175.0,-104.0,-150.0,152,68,84,98,82
2025-02-26 14:41:41.542,-1459.0,1328.0,-304.0,173.0,-100.0,-201.0,151,66,85,96,79
2025-02-26 14:41:41.547,-1155.0,1488.0,-312.0,165.0,-89.0,-248.0,152,64,82,95,73
2025-02-26 14:41:41.553,-813.0,1594.0,-352.0,156.0,-96.0,-294.0,153,62,82,93,70
2025-02-26 14:41:41.557,-510.0,1546.0,-366.0,166.0,-123.0,-332.0,150,59,80,91,68
2025-02-26 14:41:41.564,-423.0,1439.0,-180.0,181.0,-122.0,-375.0,151,58,78,87,64
2025-02-26 14:41:41.570,-136.0,1168.0,-184.0,180.0,-119.0,-389.0,151,56,79,81,60
2025-02-26 14:41:41.574,110.0,985.0,-50.0,172.0,-110.0,-423.0,148,55,78,80,60
2025-02-26 14:41:41.576,343.0,890.0,17.0,185.0,-100.0,-455.0,150,52,79,81,59
2025-02-26 14:41:41.586,732.0,614.0,213.0,191.0,-96.0,-486.0,153,51,76,76,58
2025-02-26 14:41:41.588,878.0,415.0,413.0,210.0,-95.0,-501.0,152,51,77,79,58
2025-02-26 14:41:41.594,1005.0,39.0,401.0,233.0,-106.0,-533.0,151,53,78,77,57
2025-02-26 14:41:41.598,1112.0,-222.0,628.0,241.0,-120.0,-546.0,153,51,76,76,57
2025-02-26 14:41:41.606,1200.0,-697.0,719.0,261.0,-131.0,-525.0,152,49,75,76,58
2025-02-26 14:41:41.610,1444.0,-1201.0,896.0,268.0,-157.0,-511.0,151,50,76,72,58
2025-02-26 14:41:41.615,1704.0,-1570.0,1095.0,254.0,-178.0,-467.0,153,50,77,77,61
2025-02-26 14:41:41.622,2034.0,-2334.0,1341.0,222.0,-184.0,-410.0,154,53,77,76,63
2025-02-26 14:41:41.627,2383.0,-3161.0,1623.0,204.0,-178.0,-352.0,153,53,76,77,64
2025-02-26 14:41:41.631,2613.0,-4029.0,1783.0,196.0,-175.0,-288.0,154,53,75,75,65
2025-02-26 14:41:41.639,2723.0,-4836.0,2033.0,188.0,-161.0,-206.0,155,53,73,76,65
2025-02-26 14:41:41.643,2783.0,-5386.0,2323.0,163.0,-145.0,-106.0,155,52,72,74,65
2025-02-26 14:41:41.648,2652.0,-5433.0,2734.0,132.0,-92.0,-53.0,155,53,72,73,65
2025-02-26 14:41:41.655,2494.0,-5225.0,2767.0,72.0,-28.0,54.0,154,57,76,74,64
2025-02-26 14:41:41.659,2240.0,-4307.0,2681.0,17.0,24.0,136.0,155,53,76,73,65
2025-02-26 14:41:41.662,1936.0,-3100.0,2397.0,-27.0,49.0,183.0,155,53,78,72,66
2025-02-26 14:41:41.672,1711.0,-2010.0,1968.0,-122.0,84.0,198.0,154,55,80,73,65
2025-02-26 14:41:41.676,1406.0,-1667.0,1551.0,-230.0,100.0,211.0,154,54,82,74,62
2025-02-26 14:41:41.680,1024.0,-1189.0,1327.0,-322.0,84.0,214.0,157,53,81,73,64
2025-02-26 14:41:41.685,690.0,-1098.0,979.0,-355.0,46.0,218.0,155,55,81,74,64
2025-02-26 14:41:41.692,599.0,-1136.0,655.0,-396.0,25.0,221.0,154,53,81,73,62
2025-02-26 14:41:41.696,483.0,-1135.0,404.0,-412.0,-5.0,220.0,153,53,77,73,62
2025-02-26 14:41:41.701,329.0,-1237.0,360.0,-415.0,-3.0,212.0,156,56,77,77,66
2025-02-26 14:41:41.705,233.0,-1410.0,231.0,-411.0,16.0,198.0,154,53,69,74,65
2025-02-26 14:41:41.713,194.0,-1666.0,150.0,-383.0,24.0,180.0,153,53,67,75,64
2025-02-26 14:41:41.717,131.0,-1768.0,163.0,-338.0,23.0,176.0,153,54,66,76,64
2025-02-26 14:41:41.721,154.0,-1874.0,219.0,-279.0,3.0,178.0,155,56,70,79,67
2025-02-26 14:41:41.725,163.0,-1916.0,324.0,-249.0,-5.0,189.0,154,56,71,77,67
2025-02-26 14:41:41.733,195.0,-1853.0,348.0,-211.0,-2.0,208.0,153,54,71,75,65
2025-02-26 14:41:41.737,236.0,-1762.0,472.0,-173.0,6.0,215.0,157,54,73,77,68
2025-02-26 14:41:41.740,280.0,-1618.0,462.0,-135.0,8.0,231.0,156,55,76,80,68
2025-02-26 14:41:41.746,327.0,-1455.0,493.0,-119.0,9.0,244.0,153,55,76,78,68
2025-02-26 14:41:41.752,329.0,-1409.0,485.0,-79.0,19.0,249.0,152,52,75,76,68
2025-02-26 14:41:41.758,232.0,-1192.0,479.0,-58.0,35.0,263.0,153,54,76,78,66
2025-02-26 14:41:41.762,235.0,-1004.0,453.0,-50.0,53.0,273.0,154,55,78,81,70
2025-02-26 14:41:41.766,220.0,-807.0,409.0,-31.0,59.0,277.0,153,53,75,78,68
2025-02-26 14:41:41.774,216.0,-710.0,340.0,-19.0,65.0,278.0,154,55,78,79,69
2025-02-26 14:41:41.778,126.0,-528.0,317.0,-12.0,80.0,278.0,155,54,78,79,70
2025-02-26 14:41:41.782,80.0,-335.0,249.0,-11.0,88.0,276.0,154,55,77,79,72
2025-02-26 14:41:41.787,-2.0,-282.0,169.0,-18.0,99.0,274.0,154,56,76,79,71
2025-02-26 14:41:41.790,-127.0,-165.0,147.0,-17.0,99.0,266.0,153,52,76,80,71
2025-02-26 14:41:41.798,-169.0,-60.0,112.0,-22.0,96.0,256.0,153,54,76,78,70
2025-02-26 14:41:41.802,-277.0,-9.0,79.0,-27.0,88.0,251.0,153,56,77,81,72
2025-02-26 14:41:41.806,-334.0,100.0,105.0,-38.0,83.0,237.0,155,58,75,79,70
2025-02-26 14:41:41.811,-429.0,120.0,33.0,-43.0,80.0,221.0,152,54,77,77,70
2025-02-26 14:41:41.816,-493.0,154.0,43.0,-60.0,78.0,213.0,153,56,76,80,72
2025-02-26 14:41:41.823,-561.0,246.0,13.0,-75.0,83.0,198.0,155,58,77,80,72
2025-02-26 14:41:41.828,-576.0,349.0,-2.0,-79.0,85.0,184.0,154,55,76,78,71
2025-02-26 14:41:41.831,-613.0,397.0,-74.0,-84.0,84.0,175.0,155,56,75,78,71
2025-02-26 14:41:41.835,-676.0,471.0,-99.0,-87.0,79.0,157.0,155,58,76,81,72
2025-02-26 14:41:41.840,-692.0,530.0,-164.0,-87.0,76.0,138.0,154,56,74,79,73
2025-02-26 14:41:41.848,-765.0,541.0,-253.0,-90.0,70.0,130.0,153,55,74,77,69
2025-02-26 14:41:41.852,-812.0,534.0,-283.0,-99.0,63.0,112.0,154,56,76,81,71
2025-02-26 14:41:41.856,-871.0,519.0,-367.0,-101.0,58.0,95.0,151,54,74,79,70
2025-02-26 14:41:41.860,-900.0,496.0,-430.0,-100.0,45.0,87.0,152,57,74,80,71
2025-02-26 14:41:41.868,-923.0,457.0,-453.0,-96.0,31.0,69.0,153,56,75,80,71
2025-02-26 14:41:41.873,-937.0,419.0,-488.0,-93.0,18.0,52.0,153,57,76,78,71
2025-02-26 14:41:41.874,-931.0,395.0,-498.0,-83.0,13.0,43.0,152,55,74,81,71
2025-02-26 14:41:41.881,-920.0,367.0,-500.0,-67.0,1.0,29.0,154,58,77,79,73
2025-02-26 14:41:41.885,-883.0,348.0,-477.0,-57.0,-10.0,14.0,153,55,77,79,74
2025-02-26 14:41:41.892,-880.0,316.0,-444.0,-36.0,-16.0,0.0,152,54,75,79,71
2025-02-26 14:41:41.897,-867.0,316.0,-435.0,-9.0,-27.0,-7.0,153,56,76,80,74
2025-02-26 14:41:41.901,-858.0,311.0,-398.0,3.0,-35.0,-21.0,153,56,77,81,74
2025-02-26 14:41:41.904,-855.0,339.0,-360.0,30.0,-37.0,-33.0,153,55,75,79,71
2025-02-26 14:41:41.910,-838.0,369.0,-318.0,59.0,-40.0,-40.0,151,55,77,81,74
2025-02-26 14:41:41.915,-820.0,431.0,-282.0,87.0,-45.0,-57.0,153,57,78,80,71
2025-02-26 14:41:41.921,-823.0,534.0,-224.0,101.0,-47.0,-76.0,153,55,77,80,75
2025-02-26 14:41:41.926,-835.0,593.0,-199.0,124.0,-51.0,-85.0,153,56,77,80,72
2025-02-26 14:41:41.933,-846.0,686.0,-177.0,145.0,-55.0,-105.0,152,57,79,79,73
2025-02-26 14:41:41.937,-900.0,767.0,-155.0,156.0,-57.0,-126.0,152,57,77,79,73
2025-02-26 14:41:41.940,-926.0,865.0,-134.0,172.0,-57.0,-151.0,153,56,78,80,74
2025-02-26 14:41:41.944,-938.0,948.0,-129.0,184.0,-58.0,-163.0,151,56,77,81,77
2025-02-26 14:41:41.954,-910.0,984.0,-96.0,196.0,-60.0,-192.0,152,56,76,80,73
2025-02-26 14:41:41.956,-864.0,1010.0,-80.0,207.0,-65.0,-222.0,154,55,77,81,73
2025-02-26 14:41:41.963,-826.0,1062.0,-70.0,213.0,-68.0,-252.0,153,55,78,80,73
2025-02-26 14:41:41.967,-775.0,1065.0,-36.0,223.0,-71.0,-285.0,153,55,77,81,73
2025-02-26 14:41:41.975,-636.0,1066.0,5.0,232.0,-77.0,-301.0,153,56,79,80,73
2025-02-26 14:41:41.975,-449.0,959.0,31.0,243.0,-88.0,-333.0,151,56,78,81,74
2025-02-26 14:41:41.983,-281.0,831.0,47.0,249.0,-93.0,-364.0,151,55,77,81,73
2025-02-26 14:41:41.987,-196.0,744.0,72.0,256.0,-104.0,-379.0,151,55,79,80,73
2025-02-26 14:41:41.995,-1.0,551.0,86.0,262.0,-118.0,-406.0,149,57,79,80,75
2025-02-26 14:41:41.999,205.0,337.0,154.0,263.0,-134.0,-425.0,154,56,78,81,73
2025-02-26 14:41:42.004,327.0,151.0,243.0,265.0,-142.0,-441.0,149,55,79,78,73
2025-02-26 14:41:42.005,599.0,46.0,396.0,261.0,-156.0,-447.0,151,57,81,83,76
2025-02-26 14:41:42.016,882.0,-253.0,468.0,253.0,-168.0,-454.0,148,58,79,78,75
2025-02-26 14:41:42.020,1221.0,-753.0,723.0,250.0,-170.0,-446.0,152,57,86,83,75
2025-02-26 14:41:42.024,1435.0,-1392.0,1024.0,247.0,-166.0,-417.0,152,56,78,80,74
2025-02-26 14:41:42.032,1766.0,-1843.0,1335.0,228.0,-154.0,-400.0,153,53,81,81,75
2025-02-26 14:41:42.038,2097.0,-2633.0,1559.0,215.0,-125.0,-360.0,154,58,83,82,76
2025-02-26 14:41:42.042,2258.0,-3503.0,1711.0,203.0,-100.0,-312.0,155,57,84,84,77
2025-02-26 14:41:42.049,2216.0,-4290.0,1876.0,209.0,-87.0,-253.0,154,56,80,85,77
2025-02-26 14:41:42.052,2126.0,-4928.0,2098.0,209.0,-80.0,-176.0,153,56,79,82,77
2025-02-26 14:41:42.057,2123.0,-5250.0,2266.0,198.0,-75.0,-86.0,154,57,76,79,78
2025-02-26 14:41:42.065,2061.0,-5066.0,2388.0,159.0,-55.0,-37.0,155,57,74,79,77
2025-02-26 14:41:42.068,1947.0,-4839.0,2256.0,107.0,-18.0,54.0,155,56,74,78,78
2025-02-26 14:41:42.074,1730.0,-3992.0,2166.0,26.0,23.0,122.0,153,56,77,70,75
2025-02-26 14:41:42.078,1451.0,-2929.0,1958.0,-13.0,50.0,167.0,152,57,77,75,75
2025-02-26 14:41:42.085,1339.0,-2032.0,1782.0,-103.0,60.0,190.0,153,57,81,74,74
2025-02-26 14:41:42.090,1102.0,-1665.0,1476.0,-198.0,68.0,196.0,155,56,83,75,76
2025-02-26 14:41:42.092,838.0,-1230.0,1365.0,-284.0,66.0,201.0,153,62,84,76,72
2025-02-26 14:41:42.098,688.0,-1069.0,1087.0,-317.0,55.0,204.0,154,56,85,77,75
2025-02-26 14:41:42.106,613.0,-1087.0,839.0,-354.0,46.0,200.0,155,57,83,77,73
2025-02-26 14:41:42.110,479.0,-1115.0,642.0,-369.0,33.0,197.0,153,56,81,79,72
2025-02-26 14:41:42.114,329.0,-1207.0,553.0,-380.0,40.0,190.0,154,58,78,78,74
2025-02-26 14:41:42.119,169.0,-1328.0,340.0,-374.0,57.0,182.0,153,57,78,81,79
2025-02-26 14:41:42.127,96.0,-1410.0,203.0,-370.0,64.0,172.0,151,56,71,80,73
2025-02-26 14:41:42.128,-31.0,-1527.0,109.0,-322.0,68.0,166.0,151,58,71,82,75
2025-02-26 14:41:42.134,-102.0,-1669.0,96.0,-281.0,63.0,156.0,151,55,71,80,75
2025-02-26 14:41:42.139,-183.0,-1711.0,84.0,-258.0,49.0,155.0,153,58,76,84,79
2025-02-26 14:41:42.146,-184.0,-1725.0,147.0,-215.0,39.0,163.0,152,55,74,82,76
2025-02-26 14:41:42.152,-137.0,-1663.0,144.0,-176.0,23.0,170.0,152,57,78,83,77
2025-02-26 14:41:42.156,-53.0,-1634.0,196.0,-135.0,15.0,184.0,149,57,80,82,77
2025-02-26 14:41:42.163,32.0,-1475.0,252.0,-117.0,15.0,196.0,151,59,81,84,78
2025-02-26 14:41:42.167,89.0,-1375.0,416.0,-75.0,21.0,205.0,149,55,80,82,78
2025-02-26 14:41:42.172,160.0,-1314.0,363.0,-52.0,27.0,211.0,152,57,81,83,78
2025-02-26 14:41:42.176,125.0,-1101.0,382.0,-41.0,43.0,219.0,153,58,79,82,78
2025-02-26 14:41:42.180,150.0,-930.0,375.0,-15.0,51.0,225.0,153,57,84,83,78
2025-02-26 14:41:42.188,151.0,-844.0,419.0,2.0,69.0,226.0,151,59,84,85,82
2025-02-26 14:41:42.192,137.0,-721.0,374.0,3.0,81.0,225.0,152,59,82,84,80
2025-02-26 14:41:42.194,126.0,-544.0,339.0,3.0,84.0,223.0,148,58,83,83,80
2025-02-26 14:41:42.200,40.0,-422.0,268.0,1.0,94.0,221.0,151,60,83,85,84
2025-02-26 14:41:42.205,-53.0,-304.0,290.0,-3.0,104.0,219.0,154,59,83,85,83
2025-02-26 14:41:42.212,-107.0,-252.0,122.0,-14.0,103.0,210.0,149,60,81,86,84
2025-02-26 14:41:42.216,-158.0,-169.0,53.0,-40.0,94.0,206.0,149,60,78,84,86
2025-02-26 14:41:42.221,-273.0,-60.0,35.0,-70.0,76.0,193.0,153,62,80,89,89
2025-02-26 14:41:42.224,-341.0,90.0,35.0,-82.0,70.0,181.0,149,61,80,87,86
2025-02-26 14:41:42.224,-404.0,112.0,5.0,-99.0,63.0,174.0,148,61,79,88,86
2025-02-26 14:41:42.237,-472.0,181.0,40.0,-101.0,65.0,159.0,147,62,80,88,87
2025-02-26 14:41:42.241,-558.0,143.0,-26.0,-100.0,64.0,145.0,149,61,80,89,89
2025-02-26 14:41:42.246,-560.0,116.0,-63.0,-100.0,68.0,136.0,146,61,79,88,90
2025-02-26 14:41:42.249,-549.0,43.0,-74.0,-99.0,75.0,121.0,147,64,80,91,91
2025-02-26 14:41:42.254,-649.0,48.0,-148.0,-96.0,77.0,108.0,146,62,80,89,90
2025-02-26 14:41:42.261,-643.0,22.0,-184.0,-83.0,83.0,105.0,147,63,83,91,94
2025-02-26 14:41:42.266,-631.0,-84.0,-172.0,-70.0,85.0,95.0,147,66,84,94,94
2025-02-26 14:41:42.270,-643.0,-187.0,-187.0,-60.0,83.0,86.0,148,64,82,92,94
2025-02-26 14:41:42.275,-638.0,-270.0,-157.0,-38.0,82.0,82.0,147,64,81,92,94
2025-02-26 14:41:42.280,-645.0,-302.0,-152.0,-24.0,81.0,71.0,150,66,85,94,98
2025-02-26 14:41:42.287,-702.0,-276.0,-217.0,-13.0,80.0,64.0,146,68,85,93,96
2025-02-26 14:41:42.291,-696.0,-258.0,-217.0,2.0,81.0,60.0,146,66,84,96,97
2025-02-26 14:41:42.295,-677.0,-225.0,-233.0,17.0,83.0,56.0,148,69,85,96,99
2025-02-26 14:41:42.299,-646.0,-108.0,-216.0,23.0,86.0,54.0,148,69,85,98,101
2025-02-26 14:41:42.304,-630.0,35.0,-230.0,41.0,86.0,52.0,147,71,86,97,101
2025-02-26 14:41:42.311,-648.0,115.0,-235.0,65.0,83.0,50.0,147,73,89,96,100
2025-02-26 14:41:42.315,-709.0,227.0,-334.0,81.0,74.0,48.0,149,76,89,98,102
2025-02-26 14:41:42.316,-714.0,398.0,-401.0,104.0,70.0,42.0,146,77,89,97,101
2025-02-26 14:41:42.327,-817.0,484.0,-515.0,121.0,63.0,37.0,148,80,91,98,104
2025-02-26 14:41:42.331,-957.0,606.0,-620.0,139.0,49.0,34.0,149,80,92,102,103
2025-02-26 14:41:42.335,-1018.0,648.0,-714.0,166.0,40.0,17.0,147,83,90,98,107
2025-02-26 14:41:42.340,-1546.0,1362.0,-678.0,179.0,25.0,17.0,149,85,93,101,104
2025-02-26 14:41:42.348,-1245.0,816.0,-651.0,204.0,10.0,3.0,151,91,95,100,102
2025-02-26 14:41:42.351,-1223.0,845.0,-825.0,215.0,-22.0,-24.0,147,91,97,98,99
2025-02-26 14:41:42.356,-1352.0,988.0,-758.0,214.0,-34.0,-70.0,147,97,98,99,94
2025-02-26 14:41:42.361,-1384.0,1061.0,-639.0,229.0,-52.0,-92.0,147,102,101,100,94
2025-02-26 14:41:42.368,-1492.0,1234.0,-390.0,251.0,-78.0,-138.0,150,104,105,99,92
2025-02-26 14:41:42.370,-1294.0,1317.0,-20.0,254.0,-88.0,-188.0,148,105,107,100,93
2025-02-26 14:41:42.380,-1039.0,1063.0,-88.0,248.0,-121.0,-239.0,148,106,109,100,94
2025-02-26 14:41:42.382,-873.0,920.0,-334.0,260.0,-148.0,-279.0,148,108,112,103,95
2025-02-26 14:41:42.389,-616.0,833.0,-432.0,257.0,-152.0,-314.0,149,109,111,100,95
2025-02-26 14:41:42.396,-459.0,637.0,-107.0,258.0,-135.0,-341.0,146,112,114,101,96
2025-02-26 14:41:42.400,-363.0,367.0,217.0,259.0,-126.0,-371.0,148,112,117,103,96
2025-02-26 14:41:42.406,-129.0,303.0,211.0,269.0,-131.0,-400.0,145,114,117,102,94
2025-02-26 14:41:42.411,116.0,234.0,166.0,292.0,-139.0,-413.0,143,114,118,103,91
2025-02-26 14:41:42.418,338.0,72.0,233.0,300.0,-133.0,-437.0,142,119,120,104,93
2025-02-26 14:41:42.422,600.0,-145.0,176.0,302.0,-127.0,-456.0,144,116,120,109,93
2025-02-26 14:41:42.429,857.0,-306.0,213.0,305.0,-127.0,-472.0,139,119,120,105,93
2025-02-26 14:41:42.434,1087.0,-461.0,319.0,304.0,-133.0,-483.0,135,123,123,106,91
2025-02-26 14:41:42.437,1194.0,-834.0,591.0,276.0,-134.0,-473.0,135,125,123,106,93
2025-02-26 14:41:42.443,1533.0,-1240.0,812.0,243.0,-136.0,-446.0,131,125,123,108,93
2025-02-26 14:41:42.448,1891.0,-1473.0,1171.0,227.0,-177.0,-429.0,132,128,123,106,92
2025-02-26 14:41:42.457,2051.0,-2081.0,2129.0,185.0,-168.0,-385.0,132,129,123,109,94
2025-02-26 14:41:42.463,1948.0,-2672.0,2170.0,166.0,-173.0,-317.0,132,134,125,108,95
2025-02-26 14:41:42.467,2186.0,-3022.0,2664.0,209.0,-135.0,-231.0,131,133,124,107,96
2025-02-26 14:41:42.474,2292.0,-3488.0,2663.0,173.0,-88.0,-133.0,128,134,124,108,98
2025-02-26 14:41:42.478,2364.0,-3333.0,2794.0,116.0,-38.0,-39.0,129,134,124,103,97
2025-02-26 14:41:42.483,2112.0,-3051.0,3069.0,89.0,18.0,45.0,130,136,124,106,98
2025-02-26 14:41:42.491,1761.0,-2488.0,2759.0,68.0,47.0,116.0,127,135,122,100,97
2025-02-26 14:41:42.495,1470.0,-2060.0,2372.0,-40.0,73.0,168.0,124,135,122,99,92
2025-02-26 14:41:42.500,1076.0,-1906.0,1937.0,-132.0,65.0,181.0,123,135,123,101,94
2025-02-26 14:41:42.508,735.0,-1542.0,1473.0,-188.0,35.0,195.0,123,136,125,101,94
2025-02-26 14:41:42.511,472.0,-1402.0,1308.0,-231.0,-6.0,193.0,120,137,123,101,93
2025-02-26 14:41:42.516,350.0,-1357.0,991.0,-258.0,-48.0,187.0,119,135,124,101,91
2025-02-26 14:41:42.524,313.0,-1286.0,893.0,-259.0,-73.0,175.0,119,136,124,101,91
2025-02-26 14:41:42.528,315.0,-1292.0,746.0,-262.0,-79.0,161.0,117,134,124,102,87
2025-02-26 14:41:42.532,334.0,-1359.0,695.0,-269.0,-82.0,145.0,117,134,121,100,86
2025-02-26 14:41:42.540,360.0,-1548.0,735.0,-261.0,-72.0,136.0,113,133,125,103,86
2025-02-26 14:41:42.544,352.0,-1541.0,660.0,-259.0,-62.0,127.0,113,136,127,103,85
2025-02-26 14:41:42.548,384.0,-1595.0,688.0,-246.0,-50.0,123.0,113,134,127,104,83
2025-02-26 14:41:42.557,423.0,-1517.0,692.0,-224.0,-36.0,124.0,112,134,126,105,85
2025-02-26 14:41:42.561,378.0,-1499.0,704.0,-214.0,-18.0,128.0,111,136,128,106,84
2025-02-26 14:41:42.565,354.0,-1430.0,729.0,-190.0,-9.0,139.0,109,135,128,104,85
2025-02-26 14:41:42.571,331.0,-1429.0,699.0,-171.0,10.0,151.0,106,133,127,106,83
2025-02-26 14:41:42.577,294.0,-1441.0,642.0,-159.0,29.0,157.0,106,133,127,105,82
2025-02-26 14:41:42.582,252.0,-1375.0,626.0,-133.0,40.0,170.0,107,135,127,106,85
2025-02-26 14:41:42.589,213.0,-1330.0,626.0,-105.0,47.0,183.0,107,135,128,106,84
2025-02-26 14:41:42.594,171.0,-1251.0,570.0,-91.0,61.0,195.0,106,138,127,104,82
2025-02-26 14:41:42.598,160.0,-1116.0,541.0,-66.0,68.0,205.0,104,134,128,104,83
2025-02-26 14:41:42.606,139.0,-1000.0,494.0,-47.0,82.0,209.0,106,134,127,107,85
2025-02-26 14:41:42.610,97.0,-921.0,436.0,-30.0,89.0,213.0,105,135,127,106,86
2025-02-26 14:41:42.614,41.0,-756.0,436.0,-19.0,95.0,214.0,104,138,129,104,84
2025-02-26 14:41:42.619,-18.0,-623.0,390.0,-19.0,98.0,211.0,104,135,128,106,83
2025-02-26 14:41:42.626,-57.0,-494.0,388.0,-25.0,108.0,209.0,105,135,128,106,84
2025-02-26 14:41:42.631,-147.0,-449.0,363.0,-36.0,119.0,204.0,106,136,129,106,86
2025-02-26 14:41:42.635,-263.0,-370.0,339.0,-48.0,124.0,197.0,105,134,128,107,87
2025-02-26 14:41:42.643,-355.0,-314.0,330.0,-52.0,127.0,189.0,107,136,130,109,88
2025-02-26 14:41:42.647,-443.0,-284.0,237.0,-61.0,126.0,180.0,105,134,127,107,89
2025-02-26 14:41:42.651,-476.0,-266.0,159.0,-66.0,125.0,171.0,105,136,127,105,85
2025-02-26 14:41:42.659,-555.0,-267.0,144.0,-68.0,124.0,167.0,105,133,127,106,87
2025-02-26 14:41:42.663,-603.0,-240.0,30.0,-62.0,131.0,158.0,107,135,128,107,88
2025-02-26 14:41:42.667,-643.0,-231.0,13.0,-55.0,130.0,149.0,104,134,130,107,88
2025-02-26 14:41:42.674,-657.0,-260.0,-64.0,-50.0,129.0,143.0,106,135,128,108,87
2025-02-26 14:41:42.679,-678.0,-244.0,-142.0,-45.0,128.0,137.0,104,136,128,107,87
2025-02-26 14:41:42.683,-692.0,-213.0,-226.0,-41.0,123.0,132.0,105,133,128,107,88
2025-02-26 14:41:42.692,-696.0,-181.0,-292.0,-34.0,119.0,130.0,104,134,127,107,88
2025-02-26 14:41:42.696,-698.0,-204.0,-320.0,-28.0,111.0,124.0,104,134,127,107,90
2025-02-26 14:41:42.701,-729.0,-187.0,-329.0,-23.0,101.0,118.0,107,135,130,109,90
2025-02-26 14:41:42.708,-729.0,-171.0,-347.0,-23.0,92.0,113.0,107,135,130,107,90
2025-02-26 14:41:42.711,-739.0,-181.0,-361.0,-12.0,85.0,108.0,105,133,127,107,88
2025-02-26 14:41:42.717,-736.0,-175.0,-394.0,-4.0,81.0,102.0,106,133,128,107,88
2025-02-26 14:41:42.721,-717.0,-125.0,-405.0,5.0,76.0,100.0,107,131,127,107,90
2025-02-26 14:41:42.728,-744.0,-84.0,-404.0,19.0,67.0,95.0,108,135,130,108,91
2025-02-26 14:41:42.733,-792.0,1.0,-364.0,25.0,56.0,88.0,107,133,128,106,89
2025-02-26 14:41:42.737,-810.0,105.0,-433.0,38.0,47.0,82.0,103,133,130,107,91
2025-02-26 14:41:42.741,-843.0,186.0,-446.0,48.0,30.0,79.0,108,133,129,108,90
2025-02-26 14:41:42.749,-882.0,307.0,-444.0,53.0,14.0,70.0,110,134,130,108,91
2025-02-26 14:41:42.753,-955.0,424.0,-484.0,55.0,-6.0,58.0,109,134,126,109,92
2025-02-26 14:41:42.758,-985.0,587.0,-500.0,62.0,-16.0,44.0,106,133,128,107,89
2025-02-26 14:41:42.762,-1051.0,645.0,-508.0,69.0,-36.0,33.0,108,132,131,107,93
2025-02-26 14:41:42.770,-1100.0,793.0,-508.0,72.0,-55.0,7.0,108,133,129,107,91
2025-02-26 14:41:42.774,-1118.0,863.0,-518.0,75.0,-73.0,-27.0,108,132,130,105,91
2025-02-26 14:41:42.779,-1099.0,898.0,-486.0,82.0,-82.0,-70.0,108,133,128,106,90
2025-02-26 14:41:42.786,-1058.0,920.0,-514.0,96.0,-93.0,-117.0,109,132,128,106,90
2025-02-26 14:41:42.789,-1022.0,938.0,-462.0,108.0,-99.0,-141.0,106,130,127,106,93
2025-02-26 14:41:42.795,-946.0,939.0,-407.0,131.0,-103.0,-190.0,109,133,128,107,91
2025-02-26 14:41:42.803,-836.0,940.0,-412.0,163.0,-112.0,-237.0,110,133,130,109,92
2025-02-26 14:41:42.807,-721.0,955.0,-418.0,188.0,-122.0,-282.0,110,133,129,107,90
2025-02-26 14:41:42.815,-551.0,895.0,-424.0,198.0,-131.0,-321.0,110,133,127,107,90
2025-02-26 14:41:42.819,-394.0,805.0,-412.0,212.0,-139.0,-352.0,109,133,129,109,93
2025-02-26 14:41:42.824,-265.0,636.0,-377.0,223.0,-143.0,-376.0,108,132,129,110,90
2025-02-26 14:41:42.831,-193.0,459.0,-270.0,232.0,-156.0,-395.0,108,132,128,109,91
2025-02-26 14:41:42.836,-34.0,269.0,-184.0,239.0,-178.0,-403.0,107,133,127,108,90
2025-02-26 14:41:42.837,188.0,208.0,-73.0,242.0,-203.0,-417.0,109,133,128,110,92
2025-02-26 14:41:42.847,423.0,66.0,-39.0,234.0,-229.0,-431.0,111,133,129,111,95
2025-02-26 14:41:42.849,723.0,-142.0,176.0,224.0,-243.0,-441.0,110,135,129,109,92
2025-02-26 14:41:42.854,1040.0,-526.0,547.0,189.0,-245.0,-438.0,110,133,129,109,95
2025-02-26 14:41:42.862,1158.0,-956.0,902.0,159.0,-247.0,-425.0,112,132,129,112,95
2025-02-26 14:41:42.868,1379.0,-1519.0,1292.0,125.0,-234.0,-399.0,109,132,125,111,96
2025-02-26 14:41:42.872,1690.0,-2292.0,1634.0,90.0,-210.0,-358.0,108,128,127,112,97
2025-02-26 14:41:42.880,2025.0,-2668.0,1957.0,81.0,-179.0,-333.0,111,134,127,110,98
2025-02-26 14:41:42.884,2388.0,-3322.0,2271.0,86.0,-115.0,-278.0,112,135,124,114,103
2025-02-26 14:41:42.892,2551.0,-3859.0,2630.0,75.0,-36.0,-207.0,109,136,128,113,104
2025-02-26 14:41:42.896,2491.0,-3952.0,2656.0,99.0,28.0,-130.0,111,134,126,110,106
2025-02-26 14:41:42.901,2332.0,-3710.0,2895.0,141.0,62.0,-47.0,112,134,126,112,108
2025-02-26 14:41:42.908,2081.0,-3177.0,2793.0,138.0,61.0,33.0,112,134,127,110,107
2025-02-26 14:41:42.913,1759.0,-2383.0,2674.0,71.0,83.0,103.0,110,134,126,107,105
2025-02-26 14:41:42.914,1498.0,-1761.0,2221.0,-37.0,79.0,155.0,108,131,126,104,105
2025-02-26 14:41:42.925,1069.0,-1411.0,1886.0,-124.0,57.0,178.0,106,137,126,104,104
2025-02-26 14:41:42.929,642.0,-1292.0,1320.0,-171.0,1.0,182.0,107,132,127,102,104
2025-02-26 14:41:42.934,339.0,-1279.0,870.0,-214.0,-76.0,182.0,106,132,126,103,105
2025-02-26 14:41:42.940,236.0,-1314.0,844.0,-210.0,-128.0,182.0,106,133,128,107,106
2025-02-26 14:41:42.946,215.0,-1490.0,540.0,-210.0,-154.0,191.0,105,134,128,107,105
2025-02-26 14:41:42.954,165.0,-1603.0,314.0,-231.0,-153.0,190.0,105,133,128,108,103
2025-02-26 14:41:42.958,152.0,-1749.0,285.0,-231.0,-125.0,189.0,104,133,127,108,104
2025-02-26 14:41:42.962,211.0,-1881.0,301.0,-226.0,-90.0,182.0,104,133,126,108,103
2025-02-26 14:41:42.970,382.0,-1840.0,433.0,-201.0,-68.0,172.0,103,131,125,110,102
2025-02-26 14:41:42.974,380.0,-1850.0,341.0,-181.0,-69.0,174.0,110,132,126,110,101
2025-02-26 14:41:42.979,461.0,-1728.0,537.0,-161.0,-54.0,178.0,101,134,126,110,101
2025-02-26 14:41:42.987,457.0,-1676.0,532.0,-138.0,-33.0,182.0,102,134,126,112,102
2025-02-26 14:41:42.991,477.0,-1565.0,634.0,-116.0,-8.0,192.0,105,134,127,110,102
2025-02-26 14:41:42.995,436.0,-1503.0,579.0,-99.0,6.0,201.0,104,135,127,111,103
2025-02-26 14:41:43.003,437.0,-1388.0,642.0,-84.0,21.0,208.0,104,136,127,113,105
2025-02-26 14:41:43.006,410.0,-1281.0,613.0,-62.0,35.0,214.0,104,134,126,111,102
2025-02-26 14:41:43.011,424.0,-1174.0,612.0,-41.0,43.0,219.0,103,133,126,110,101
2025-02-26 14:41:43.020,353.0,-1119.0,606.0,-26.0,57.0,221.0,104,134,125,113,103
2025-02-26 14:41:43.024,255.0,-1079.0,612.0,-8.0,77.0,220.0,104,137,128,113,106
2025-02-26 14:41:43.028,280.0,-890.0,579.0,17.0,99.0,214.0,105,136,128,113,106
2025-02-26 14:41:43.035,186.0,-792.0,513.0,16.0,111.0,210.0,109,135,128,113,105
2025-02-26 14:41:43.038,147.0,-643.0,475.0,20.0,117.0,205.0,106,133,128,112,105
2025-02-26 14:41:43.044,58.0,-624.0,401.0,14.0,129.0,203.0,108,133,125,112,105
2025-02-26 14:41:43.048,-32.0,-499.0,422.0,6.0,142.0,198.0,111,134,127,113,106
2025-02-26 14:41:43.056,-149.0,-416.0,356.0,-1.0,154.0,194.0,112,134,127,113,105
2025-02-26 14:41:43.061,-210.0,-404.0,247.0,-26.0,164.0,191.0,113,135,126,112,106
2025-02-26 14:41:43.064,-253.0,-320.0,351.0,-50.0,174.0,187.0,111,132,124,112,106
2025-02-26 14:41:43.073,-350.0,-248.0,273.0,-63.0,177.0,184.0,116,133,125,109,104
2025-02-26 14:41:43.077,-424.0,-166.0,211.0,-72.0,166.0,179.0,120,134,125,111,105
2025-02-26 14:41:43.081,-479.0,-184.0,174.0,-63.0,147.0,174.0,120,134,126,111,108
2025-02-26 14:41:43.089,-470.0,-162.0,75.0,-60.0,130.0,166.0,123,133,122,111,106
2025-02-26 14:41:43.093,-627.0,21.0,136.0,-56.0,120.0,154.0,125,130,125,112,106
2025-02-26 14:41:43.098,-639.0,-84.0,37.0,-49.0,115.0,144.0,124,126,123,108,106
2025-02-26 14:41:43.106,-646.0,-113.0,-13.0,-50.0,108.0,139.0,123,132,123,114,108
2025-02-26 14:41:43.110,-654.0,-80.0,-94.0,-51.0,108.0,128.0,128,131,121,110,111
2025-02-26 14:41:43.114,-706.0,-109.0,-115.0,-65.0,105.0,119.0,129,131,122,110,108
2025-02-26 14:41:43.121,-720.0,-57.0,-133.0,-72.0,94.0,108.0,130,130,122,110,110
2025-02-26 14:41:43.126,-725.0,-80.0,-239.0,-77.0,74.0,96.0,132,130,121,110,108
2025-02-26 14:41:43.130,-712.0,-160.0,-260.0,-93.0,63.0,85.0,130,128,119,109,107
2025-02-26 14:41:43.138,-745.0,-167.0,-265.0,-106.0,49.0,80.0,131,131,120,109,108
2025-02-26 14:41:43.143,-757.0,-182.0,-292.0,-113.0,31.0,70.0,133,128,120,110,111
2025-02-26 14:41:43.146,-802.0,-92.0,-261.0,-116.0,17.0,59.0,133,128,118,109,109
2025-02-26 14:41:43.154,-789.0,-77.0,-246.0,-110.0,4.0,43.0,135,124,116,107,109
2025-02-26 14:41:43.159,-793.0,12.0,-272.0,-109.0,-12.0,27.0,135,124,117,108,109
2025-02-26 14:41:43.163,-818.0,66.0,-253.0,-105.0,-19.0,10.0,133,120,116,103,110
2025-02-26 14:41:43.167,-897.0,195.0,-180.0,-93.0,-27.0,1.0,134,113,114,106,110
2025-02-26 14:41:43.175,-1032.0,244.0,-197.0,-71.0,-31.0,-15.0,138,114,115,107,109
2025-02-26 14:41:43.179,-1115.0,347.0,-240.0,-56.0,-45.0,-28.0,138,109,109,107,110
2025-02-26 14:41:43.187,-1276.0,520.0,-340.0,-34.0,-60.0,-44.0,138,105,108,107,109
2025-02-26 14:41:43.191,-1416.0,639.0,-235.0,-20.0,-59.0,-64.0,140,104,104,105,108
2025-02-26 14:41:43.195,-1459.0,755.0,-252.0,-1.0,-64.0,-91.0,140,99,101,105,108
2025-02-26 14:41:43.203,-1494.0,922.0,-209.0,15.0,-66.0,-130.0,141,95,98,105,108
2025-02-26 14:41:43.207,-1576.0,988.0,-259.0,36.0,-78.0,-153.0,142,91,95,103,108
2025-02-26 14:41:43.213,-1564.0,1076.0,-339.0,60.0,-97.0,-198.0,141,89,93,104,109
2025-02-26 14:41:43.219,-1479.0,1148.0,-360.0,83.0,-115.0,-244.0,143,84,90,105,108
2025-02-26 14:41:43.224,-1405.0,1256.0,-452.0,98.0,-130.0,-296.0,143,78,92,106,108
2025-02-26 14:41:43.229,-1240.0,1371.0,-401.0,114.0,-121.0,-342.0,144,74,88,104,106
2025-02-26 14:41:43.236,-1043.0,1437.0,-442.0,148.0,-97.0,-396.0,143,71,88,103,107
2025-02-26 14:41:43.241,-777.0,1399.0,-564.0,157.0,-90.0,-445.0,144,67,88,102,104
2025-02-26 14:41:43.245,-557.0,1388.0,-16.0,195.0,-41.0,-482.0,144,64,88,99,99
2025-02-26 14:41:43.253,-268.0,1289.0,-190.0,234.0,-16.0,-486.0,146,62,89,101,97
2025-02-26 14:41:43.257,59.0,1090.0,-104.0,270.0,-3.0,-489.0,148,59,87,96,94
2025-02-26 14:41:43.261,248.0,699.0,-131.0,278.0,-8.0,-478.0,146,58,89,96,91
2025-02-26 14:41:43.265,365.0,333.0,-102.0,272.0,-9.0,-459.0,145,56,86,90,88
2025-02-26 14:41:43.273,577.0,148.0,151.0,245.0,-2.0,-445.0,146,53,86,88,86
2025-02-26 14:41:43.277,870.0,-242.0,253.0,239.0,-8.0,-414.0,149,53,86,86,84
2025-02-26 14:41:43.280,1118.0,-557.0,633.0,222.0,-20.0,-389.0,147,54,87,85,84
2025-02-26 14:41:43.286,1634.0,-598.0,771.0,250.0,-43.0,-378.0,147,53,87,82,83
2025-02-26 14:41:43.294,1961.0,-1085.0,903.0,270.0,-77.0,-368.0,147,51,88,82,82
2025-02-26 14:41:43.297,2122.0,-1689.0,1213.0,343.0,-71.0,-351.0,147,52,89,80,82
2025-02-26 14:41:43.302,2508.0,-2387.0,1550.0,395.0,-52.0,-320.0,148,53,88,79,81
2025-02-26 14:41:43.309,2662.0,-3389.0,1782.0,461.0,-47.0,-277.0,150,52,87,77,82
2025-02-26 14:41:43.314,2827.0,-4238.0,2127.0,478.0,-49.0,-247.0,148,52,86,76,82
2025-02-26 14:41:43.319,2832.0,-4584.0,2516.0,458.0,-29.0,-153.0,149,52,85,74,83
2025-02-26 14:41:43.322,2657.0,-4818.0,2690.0,402.0,26.0,-46.0,150,51,84,73,83
2025-02-26 14:41:43.330,2413.0,-4386.0,2943.0,358.0,105.0,59.0,151,53,82,70,81
2025-02-26 14:41:43.334,2271.0,-3167.0,3003.0,249.0,133.0,127.0,150,53,77,61,79
2025-02-26 14:41:43.339,1797.0,-1974.0,2960.0,115.0,153.0,145.0,153,55,80,66,79
2025-02-26 14:41:43.346,1485.0,-1498.0,2664.0,-56.0,118.0,151.0,153,56,80,65,77
2025-02-26 14:41:43.351,1196.0,-831.0,2363.0,-233.0,67.0,146.0,152,56,81,66,76
2025-02-26 14:41:43.355,845.0,-624.0,1651.0,-300.0,3.0,126.0,152,52,82,66,77
2025-02-26 14:41:43.359,662.0,-758.0,1192.0,-439.0,-33.0,124.0,153,54,83,70,74
2025-02-26 14:41:43.368,439.0,-953.0,733.0,-492.0,-111.0,128.0,151,54,78,73,75
2025-02-26 14:41:43.372,458.0,-1193.0,578.0,-510.0,-139.0,149.0,153,54,82,73,74
2025-02-26 14:41:43.376,554.0,-1395.0,213.0,-500.0,-95.0,165.0,151,53,80,75,75
2025-02-26 14:41:43.384,502.0,-1545.0,90.0,-472.0,-59.0,165.0,150,53,78,77,76
2025-02-26 14:41:43.388,407.0,-1639.0,69.0,-424.0,3.0,158.0,149,52,74,75,75
2025-02-26 14:41:43.400,274.0,-1796.0,127.0,-358.0,4.0,148.0,149,53,73,77,76
2025-02-26 14:41:43.403,90.0,-1803.0,235.0,-321.0,-18.0,146.0,151,53,74,80,76
2025-02-26 14:41:43.405,84.0,-1779.0,296.0,-254.0,-27.0,153.0,150,54,78,79,77
2025-02-26 14:41:43.409,115.0,-1729.0,361.0,-204.0,-43.0,160.0,152,59,81,81,78
2025-02-26 14:41:43.413,176.0,-1591.0,382.0,-160.0,-49.0,173.0,150,55,83,81,80
2025-02-26 14:41:43.417,261.0,-1392.0,475.0,-144.0,-47.0,180.0,149,56,87,78,80
2025-02-26 14:41:43.424,254.0,-1259.0,537.0,-114.0,-42.0,184.0,151,54,95,79,80
2025-02-26 14:41:43.429,290.0,-1195.0,554.0,-91.0,-31.0,185.0,151,54,90,80,81
2025-02-26 14:41:43.433,233.0,-1062.0,572.0,-78.0,-21.0,190.0,153,56,87,76,80
2025-02-26 14:41:43.438,213.0,-951.0,568.0,-77.0,-15.0,195.0,152,55,89,82,84
2025-02-26 14:41:43.445,195.0,-824.0,558.0,-76.0,-10.0,201.0,151,55,87,79,82
2025-02-26 14:41:43.449,163.0,-779.0,534.0,-80.0,0.0,204.0,154,58,89,81,82
2025-02-26 14:41:43.453,131.0,-681.0,528.0,-83.0,9.0,209.0,153,55,85,76,82
2025-02-26 14:41:43.457,73.0,-589.0,477.0,-88.0,12.0,211.0,150,55,85,77,81
2025-02-26 14:41:43.462,-20.0,-558.0,430.0,-94.0,9.0,213.0,152,52,86,81,88
2025-02-26 14:41:43.470,-81.0,-531.0,414.0,-94.0,0.0,213.0,150,56,84,80,82
2025-02-26 14:41:43.474,-129.0,-481.0,353.0,-93.0,-3.0,212.0,149,53,82,78,82
2025-02-26 14:41:43.479,-201.0,-505.0,326.0,-96.0,-3.0,212.0,152,56,84,82,83
2025-02-26 14:41:43.483,-235.0,-471.0,327.0,-97.0,1.0,212.0,150,56,82,80,83
2025-02-26 14:41:43.487,-282.0,-454.0,340.0,-95.0,4.0,208.0,153,58,84,80,84
2025-02-26 14:41:43.492,-315.0,-463.0,367.0,-93.0,7.0,204.0,152,57,83,81,84
2025-02-26 14:41:43.498,-360.0,-400.0,370.0,-92.0,11.0,195.0,151,57,83,80,83
2025-02-26 14:41:43.503,-370.0,-310.0,373.0,-88.0,13.0,183.0,150,57,88,79,83
2025-02-26 14:41:43.508,-385.0,-242.0,343.0,-91.0,24.0,175.0,151,57,83,79,81
2025-02-26 14:41:43.515,-438.0,-133.0,311.0,-95.0,39.0,159.0,151,56,85,81,85
2025-02-26 14:41:43.519,-508.0,-88.0,257.0,-98.0,48.0,143.0,152,57,84,80,84
2025-02-26 14:41:43.522,-567.0,-48.0,145.0,-104.0,50.0,135.0,153,58,85,79,84
2025-02-26 14:41:43.527,-659.0,-36.0,96.0,-109.0,53.0,122.0,151,59,86,80,84
2025-02-26 14:41:43.532,-724.0,-26.0,0.0,-111.0,53.0,110.0,151,57,82,78,84
2025-02-26 14:41:43.540,-757.0,-29.0,-99.0,-114.0,52.0,98.0,151,56,82,80,84
2025-02-26 14:41:43.543,-782.0,-42.0,-123.0,-113.0,44.0,91.0,149,57,84,79,85
2025-02-26 14:41:43.545,-806.0,-82.0,-187.0,-111.0,36.0,79.0,150,59,85,80,85
2025-02-26 14:41:43.553,-794.0,-130.0,-196.0,-104.0,30.0,69.0,153,54,84,79,79
2025-02-26 14:41:43.558,-792.0,-156.0,-216.0,-96.0,20.0,64.0,152,58,85,81,84
2025-02-26 14:41:43.564,-757.0,-199.0,-219.0,-82.0,14.0,57.0,153,58,86,84,86
2025-02-26 14:41:43.568,-740.0,-244.0,-209.0,-75.0,9.0,53.0,150,56,86,81,86
2025-02-26 14:41:43.570,-722.0,-267.0,-222.0,-65.0,7.0,52.0,148,58,85,78,84
2025-02-26 14:41:43.580,-722.0,-265.0,-192.0,-53.0,3.0,50.0,150,58,85,84,88
2025-02-26 14:41:43.582,-708.0,-214.0,-197.0,-46.0,-3.0,46.0,153,60,87,89,86
2025-02-26 14:41:43.589,-710.0,-179.0,-187.0,-34.0,-5.0,39.0,149,57,85,81,85
2025-02-26 14:41:43.593,-747.0,-140.0,-185.0,-22.0,-8.0,35.0,153,57,90,82,88
2025-02-26 14:41:43.598,-787.0,-71.0,-170.0,-16.0,-8.0,27.0,150,60,86,82,88
2025-02-26 14:41:43.605,-800.0,69.0,-147.0,0.0,-7.0,14.0,151,60,87,84,86
2025-02-26 14:41:43.607,-805.0,123.0,-146.0,18.0,-8.0,5.0,151,61,87,85,87
2025-02-26 14:41:43.612,-859.0,231.0,-155.0,26.0,-8.0,-17.0,150,58,86,85,88
2025-02-26 14:41:43.618,-920.0,365.0,-186.0,40.0,-8.0,-40.0,151,60,84,83,87
2025-02-26 14:41:43.622,-1051.0,437.0,-209.0,55.0,-10.0,-52.0,154,60,86,83,89
2025-02-26 14:41:43.630,-1216.0,622.0,-202.0,63.0,-15.0,-73.0,151,59,86,84,88
2025-02-26 14:41:43.634,-1327.0,800.0,-161.0,75.0,-19.0,-95.0,152,57,85,84,88
2025-02-26 14:41:43.638,-1355.0,898.0,-83.0,88.0,-24.0,-107.0,151,61,86,83,87
2025-02-26 14:41:43.646,-1327.0,1062.0,-75.0,104.0,-23.0,-140.0,151,54,86,85,91
2025-02-26 14:41:43.650,-1230.0,1164.0,-47.0,111.0,-21.0,-181.0,151,60,88,85,89
2025-02-26 14:41:43.654,-1111.0,1246.0,-4.0,126.0,-18.0,-225.0,151,57,86,86,89
2025-02-26 14:41:43.658,-1029.0,1211.0,31.0,146.0,-17.0,-269.0,150,59,88,86,89
2025-02-26 14:41:43.667,-892.0,1165.0,-10.0,167.0,-15.0,-292.0,151,60,89,88,90
2025-02-26 14:41:43.671,-730.0,1046.0,-52.0,190.0,-10.0,-336.0,148,61,89,87,89
2025-02-26 14:41:43.675,-566.0,909.0,-48.0,201.0,-3.0,-384.0,151,60,88,86,91
2025-02-26 14:41:43.679,-446.0,776.0,-56.0,218.0,-1.0,-429.0,150,63,89,88,92
2025-02-26 14:41:43.687,-171.0,669.0,-85.0,236.0,-4.0,-447.0,152,58,91,89,91
2025-02-26 14:41:43.691,17.0,328.0,-120.0,266.0,-22.0,-472.0,151,62,92,90,91
2025-02-26 14:41:43.696,85.0,104.0,-47.0,287.0,-36.0,-476.0,149,60,90,87,90
2025-02-26 14:41:43.700,339.0,17.0,117.0,316.0,-67.0,-477.0,150,61,91,89,93
2025-02-26 14:41:43.707,663.0,-151.0,178.0,320.0,-89.0,-478.0,150,61,92,90,92
2025-02-26 14:41:43.711,987.0,-378.0,286.0,313.0,-100.0,-471.0,150,59,92,89,92
2025-02-26 14:41:43.716,1135.0,-719.0,452.0,306.0,-106.0,-451.0,151,61,91,90,94
2025-02-26 14:41:43.720,1467.0,-922.0,761.0,294.0,-120.0,-439.0,151,61,94,92,95
2025-02-26 14:41:43.727,1964.0,-1486.0,958.0,291.0,-119.0,-417.0,152,60,95,89,96
2025-02-26 14:41:43.733,2509.0,-2308.0,1959.0,359.0,-69.0,-392.0,150,60,93,91,98
2025-02-26 14:41:43.736,3021.0,-3458.0,2264.0,360.0,-47.0,-362.0,152,62,94,89,98
2025-02-26 14:41:43.744,3103.0,-4465.0,2917.0,347.0,-38.0,-300.0,151,58,94,88,99
2025-02-26 14:41:43.748,3216.0,-4986.0,3191.0,301.0,-25.0,-252.0,152,59,90,88,101
2025-02-26 14:41:43.753,3014.0,-5094.0,3089.0,228.0,16.0,-131.0,151,58,89,85,99
2025-02-26 14:41:43.761,2704.0,-4945.0,3016.0,135.0,76.0,6.0,152,59,84,83,100
2025-02-26 14:41:43.765,2241.0,-3923.0,2418.0,83.0,137.0,110.0,153,59,80,78,101
2025-02-26 14:41:43.770,1985.0,-2340.0,2014.0,-30.0,169.0,172.0,151,58,80,70,98
2025-02-26 14:41:43.774,1659.0,-1203.0,1649.0,-166.0,195.0,185.0,151,58,82,70,96
2025-02-26 14:41:43.781,1259.0,-820.0,1190.0,-312.0,147.0,183.0,155,61,86,70,98
2025-02-26 14:41:43.782,809.0,-476.0,977.0,-433.0,54.0,172.0,150,60,83,75,98
2025-02-26 14:41:43.789,440.0,-636.0,187.0,-457.0,-65.0,171.0,150,60,84,75,94
2025-02-26 14:41:43.798,368.0,-1061.0,-151.0,-493.0,-113.0,180.0,148,58,82,78,95
2025-02-26 14:41:43.802,213.0,-1245.0,-336.0,-486.0,-165.0,183.0,150,61,84,81,97
2025-02-26 14:41:43.806,221.0,-1385.0,-417.0,-451.0,-142.0,184.0,149,60,84,82,97
2025-02-26 14:41:43.814,296.0,-1592.0,-416.0,-403.0,-76.0,171.0,148,58,82,85,96
2025-02-26 14:41:43.818,383.0,-1852.0,-241.0,-373.0,-25.0,147.0,148,60,81,87,97
2025-02-26 14:41:43.823,378.0,-1966.0,-30.0,-302.0,-16.0,138.0,147,59,83,89,97
2025-02-26 14:41:43.827,359.0,-1995.0,31.0,-222.0,-24.0,139.0,147,60,85,89,97
2025-02-26 14:41:43.834,347.0,-2014.0,145.0,-161.0,-39.0,150.0,149,60,89,90,99
2025-02-26 14:41:43.837,350.0,-1883.0,65.0,-141.0,-43.0,164.0,146,60,90,92,99
2025-02-26 14:41:43.842,338.0,-1720.0,193.0,-110.0,-44.0,179.0,146,61,91,91,98
2025-02-26 14:41:43.847,394.0,-1642.0,290.0,-78.0,-40.0,184.0,145,59,92,92,98
2025-02-26 14:41:43.855,436.0,-1474.0,384.0,-42.0,-27.0,193.0,147,61,93,94,99
2025-02-26 14:41:43.859,387.0,-1267.0,311.0,-34.0,-17.0,203.0,149,60,92,95,98
2025-02-26 14:41:43.864,396.0,-1194.0,322.0,-8.0,-12.0,212.0,148,62,92,93,99
2025-02-26 14:41:43.867,357.0,-1117.0,366.0,10.0,3.0,216.0,148,62,92,93,100
2025-02-26 14:41:43.875,331.0,-987.0,366.0,22.0,23.0,222.0,145,61,94,96,99
2025-02-26 14:41:43.880,303.0,-798.0,359.0,22.0,33.0,224.0,146,59,91,94,99
2025-02-26 14:41:43.884,252.0,-723.0,375.0,7.0,47.0,225.0,147,61,91,93,101
2025-02-26 14:41:43.888,144.0,-567.0,368.0,-14.0,52.0,220.0,148,61,91,93,99
2025-02-26 14:41:43.892,89.0,-417.0,375.0,-24.0,52.0,212.0,143,60,87,89,98
2025-02-26 14:41:43.898,25.0,-388.0,344.0,-53.0,46.0,209.0,145,59,88,93,98
2025-02-26 14:41:43.904,-119.0,-319.0,340.0,-70.0,37.0,203.0,145,58,89,94,97
2025-02-26 14:41:43.908,-208.0,-279.0,312.0,-81.0,30.0,196.0,145,62,89,93,98
2025-02-26 14:41:43.913,-261.0,-251.0,333.0,-88.0,14.0,192.0,146,58,89,92,100
2025-02-26 14:41:43.916,-314.0,-250.0,347.0,-94.0,3.0,185.0,147,62,89,93,98
2025-02-26 14:41:43.924,-352.0,-228.0,302.0,-96.0,1.0,176.0,146,62,92,93,97
2025-02-26 14:41:43.928,-380.0,-223.0,262.0,-100.0,5.0,173.0,147,62,89,92,97
2025-02-26 14:41:43.933,-399.0,-200.0,242.0,-106.0,18.0,167.0,147,61,90,92,98
2025-02-26 14:41:43.937,-471.0,-199.0,174.0,-110.0,28.0,162.0,147,62,91,94,93
2025-02-26 14:41:43.945,-485.0,-241.0,97.0,-109.0,33.0,159.0,146,63,91,93,99
2025-02-26 14:41:43.946,-542.0,-296.0,31.0,-106.0,42.0,159.0,146,64,91,93,96
2025-02-26 14:41:43.954,-539.0,-287.0,-16.0,-94.0,45.0,157.0,150,65,93,92,96
2025-02-26 14:41:43.958,-602.0,-334.0,-154.0,-87.0,36.0,151.0,146,62,90,90,95
2025-02-26 14:41:43.965,-625.0,-310.0,-101.0,-81.0,39.0,147.0,148,62,89,91,94
2025-02-26 14:41:43.970,-671.0,-326.0,-88.0,-63.0,42.0,141.0,149,64,90,91,95
2025-02-26 14:41:43.974,-709.0,-312.0,-119.0,-64.0,46.0,131.0,146,63,92,93,98
2025-02-26 14:41:43.978,-771.0,-223.0,-24.0,-64.0,48.0,124.0,145,63,89,92,95
2025-02-26 14:41:43.986,-763.0,-167.0,55.0,-70.0,40.0,117.0,148,61,88,92,95
2025-02-26 14:41:43.990,-735.0,-115.0,78.0,-66.0,20.0,104.0,147,63,91,93,94
2025-02-26 14:41:43.994,-681.0,-66.0,74.0,-60.0,-1.0,90.0,145,62,91,91,94
2025-02-26 14:41:43.999,-644.0,-52.0,8.0,-47.0,-3.0,83.0,145,61,93,93,95
2025-02-26 14:41:44.003,-582.0,-18.0,-46.0,-39.0,6.0,69.0,146,65,91,94,97
2025-02-26 14:41:44.007,-586.0,13.0,-76.0,-33.0,22.0,57.0,145,61,90,94,94
2025-02-26 14:41:44.015,-578.0,13.0,-75.0,-16.0,25.0,50.0,144,62,90,93,93
2025-02-26 14:41:44.018,-592.0,41.0,-91.0,9.0,28.0,35.0,145,63,91,95,96
2025-02-26 14:41:44.023,-628.0,13.0,-158.0,24.0,30.0,23.0,146,63,90,92,94
2025-02-26 14:41:44.027,-660.0,18.0,-213.0,49.0,31.0,17.0,142,61,89,93,95
2025-02-26 14:41:44.032,-735.0,72.0,-214.0,73.0,30.0,7.0,145,63,91,93,95
2025-02-26 14:41:44.036,-790.0,118.0,-238.0,86.0,23.0,-1.0,145,61,90,94,96
2025-02-26 14:41:44.044,-834.0,247.0,-279.0,103.0,18.0,-5.0,147,62,91,93,94
2025-02-26 14:41:44.048,-916.0,297.0,-290.0,114.0,7.0,-16.0,146,62,90,94,96
2025-02-26 14:41:44.052,-1043.0,404.0,-305.0,116.0,-8.0,-31.0,143,62,90,95,95
2025-02-26 14:41:44.057,-1121.0,560.0,-282.0,108.0,-16.0,-40.0,146,58,89,92,95
2025-02-26 14:41:44.064,-1250.0,629.0,-240.0,82.0,-32.0,-61.0,148,60,92,96,96
2025-02-26 14:41:44.068,-1279.0,757.0,-85.0,70.0,-42.0,-91.0,146,61,92,94,95
2025-02-26 14:41:44.073,-1239.0,836.0,-18.0,58.0,-45.0,-131.0,143,61,88,92,92
2025-02-26 14:41:44.077,-1099.0,813.0,-27.0,55.0,-48.0,-153.0,144,62,95,94,93
2025-02-26 14:41:44.085,-942.0,805.0,-60.0,57.0,-42.0,-202.0,147,59,92,89,90
2025-02-26 14:41:44.089,-874.0,788.0,-98.0,70.0,-34.0,-248.0,141,59,92,90,88
2025-02-26 14:41:44.093,-780.0,782.0,-102.0,97.0,-12.0,-268.0,145,58,91,89,86
2025-02-26 14:41:44.097,-668.0,600.0,-105.0,113.0,8.0,-304.0,144,59,91,89,83
2025-02-26 14:41:44.105,-616.0,417.0,-92.0,151.0,17.0,-337.0,142,58,93,88,81
2025-02-26 14:41:44.109,-505.0,364.0,-76.0,187.0,28.0,-353.0,143,58,90,86,80
2025-02-26 14:41:44.113,-319.0,260.0,-73.0,214.0,41.0,-382.0,143,58,89,84,76
2025-02-26 14:41:44.118,-135.0,99.0,29.0,226.0,51.0,-403.0,141,58,87,80,73
2025-02-26 14:41:44.122,-30.0,43.0,0.0,266.0,63.0,-411.0,141,58,85,76,73
2025-02-26 14:41:44.129,187.0,-42.0,0.0,302.0,71.0,-427.0,137,57,87,81,72
2025-02-26 14:41:44.133,399.0,-1.0,214.0,312.0,76.0,-439.0,133,58,86,76,69
2025-02-26 14:41:44.138,548.0,-28.0,671.0,347.0,92.0,-441.0,132,57,85,76,66
2025-02-26 14:41:44.142,953.0,-510.0,708.0,431.0,88.0,-433.0,128,59,87,81,67
2025-02-26 14:41:44.150,1220.0,-826.0,1080.0,498.0,77.0,-424.0,126,55,84,79,65
2025-02-26 14:41:44.154,1508.0,-1056.0,941.0,566.0,63.0,-424.0,121,57,86,78,65
2025-02-26 14:41:44.158,1811.0,-1459.0,985.0,596.0,62.0,-398.0,121,58,87,84,69
2025-02-26 14:41:44.163,2067.0,-2147.0,1190.0,582.0,64.0,-343.0,117,56,84,77,60
2025-02-26 14:41:44.170,2242.0,-3398.0,1480.0,538.0,82.0,-275.0,115,59,83,77,67
2025-02-26 14:41:44.175,2195.0,-3920.0,1761.0,527.0,84.0,-197.0,115,57,81,74,66
2025-02-26 14:41:44.179,2014.0,-4230.0,2320.0,519.0,84.0,-152.0,116,58,80,79,68
2025-02-26 14:41:44.187,2003.0,-4549.0,2437.0,468.0,72.0,-61.0,113,58,78,74,69
2025-02-26 14:41:44.191,1909.0,-3868.0,2559.0,419.0,79.0,38.0,114,58,75,72,66
2025-02-26 14:41:44.193,1759.0,-2640.0,2705.0,275.0,90.0,110.0,113,57,76,71,65
2025-02-26 14:41:44.199,1297.0,-1979.0,2614.0,90.0,77.0,127.0,113,58,78,72,64
2025-02-26 14:41:44.205,904.0,-1101.0,2362.0,-69.0,43.0,133.0,115,60,80,71,66
2025-02-26 14:41:44.212,643.0,-570.0,2027.0,-143.0,16.0,108.0,114,59,80,72,66
2025-02-26 14:41:44.216,519.0,-404.0,1512.0,-267.0,-1.0,72.0,113,58,81,73,65
2025-02-26 14:41:44.220,348.0,-560.0,1105.0,-343.0,-38.0,59.0,112,62,84,74,67
2025-02-26 14:41:44.228,369.0,-976.0,942.0,-382.0,-52.0,46.0,112,59,85,74,65
2025-02-26 14:41:44.232,385.0,-1478.0,702.0,-386.0,-55.0,53.0,109,58,82,75,65
2025-02-26 14:41:44.236,393.0,-1843.0,616.0,-372.0,-55.0,74.0,111,57,79,76,64
2025-02-26 14:41:44.241,422.0,-1980.0,616.0,-340.0,-49.0,87.0,114,60,77,79,65
2025-02-26 14:41:44.248,423.0,-2076.0,621.0,-297.0,-45.0,112.0,112,61,75,77,65
2025-02-26 14:41:44.253,450.0,-2074.0,657.0,-276.0,-39.0,137.0,109,57,78,77,65
2025-02-26 14:41:44.257,443.0,-1924.0,687.0,-238.0,-36.0,159.0,112,57,71,79,65
2025-02-26 14:41:44.261,448.0,-1841.0,724.0,-208.0,-32.0,169.0,112,60,76,80,69
2025-02-26 14:41:44.269,458.0,-1695.0,751.0,-188.0,-30.0,187.0,110,60,82,80,68
2025-02-26 14:41:44.273,431.0,-1525.0,788.0,-181.0,-28.0,203.0,104,58,83,76,68
2025-02-26 14:41:44.277,402.0,-1353.0,789.0,-175.0,-26.0,213.0,111,58,82,75,67
2025-02-26 14:41:44.285,305.0,-1275.0,777.0,-174.0,-25.0,217.0,113,61,81,77,68
2025-02-26 14:41:44.290,215.0,-1124.0,761.0,-172.0,-23.0,215.0,112,60,84,80,70
2025-02-26 14:41:44.290,152.0,-1028.0,738.0,-167.0,-23.0,209.0,112,59,82,77,69
2025-02-26 14:41:44.298,145.0,-929.0,694.0,-160.0,-21.0,202.0,110,58,83,78,70
2025-02-26 14:41:44.306,122.0,-909.0,701.0,-153.0,-14.0,199.0,113,58,83,77,69
2025-02-26 14:41:44.308,54.0,-831.0,684.0,-146.0,-7.0,194.0,113,60,86,79,71
2025-02-26 14:41:44.314,-10.0,-733.0,644.0,-145.0,2.0,191.0,108,59,83,79,70
2025-02-26 14:41:44.318,-54.0,-649.0,611.0,-143.0,4.0,187.0,114,58,82,77,69
2025-02-26 14:41:44.322,-128.0,-638.0,577.0,-141.0,8.0,185.0,112,62,82,80,71
2025-02-26 14:41:44.326,-201.0,-583.0,533.0,-140.0,11.0,182.0,113,59,81,78,70
2025-02-26 14:41:44.334,-224.0,-537.0,515.0,-143.0,14.0,180.0,113,58,77,78,70
2025-02-26 14:41:44.338,-270.0,-513.0,502.0,-149.0,18.0,180.0,111,60,81,78,72
2025-02-26 14:41:44.347,-291.0,-474.0,493.0,-157.0,24.0,180.0,114,60,83,80,72
2025-02-26 14:41:44.351,-325.0,-444.0,476.0,-162.0,27.0,181.0,115,61,81,77,72
2025-02-26 14:41:44.355,-340.0,-404.0,447.0,-169.0,29.0,178.0,113,60,83,78,71
2025-02-26 14:41:44.359,-368.0,-389.0,424.0,-175.0,33.0,176.0,115,60,83,80,74
2025-02-26 14:41:44.363,-378.0,-363.0,410.0,-178.0,42.0,171.0,117,61,82,77,71
2025-02-26 14:41:44.371,-444.0,-309.0,337.0,-177.0,49.0,162.0,116,59,82,78,72
2025-02-26 14:41:44.375,-468.0,-278.0,249.0,-173.0,52.0,151.0,115,60,82,78,71
2025-02-26 14:41:44.380,-521.0,-264.0,134.0,-166.0,58.0,145.0,116,62,84,78,73
2025-02-26 14:41:44.387,-587.0,-274.0,85.0,-158.0,64.0,135.0,116,62,83,77,74
2025-02-26 14:41:44.391,-654.0,-263.0,10.0,-152.0,65.0,125.0,115,61,82,76,71
2025-02-26 14:41:44.396,-659.0,-255.0,-90.0,-138.0,66.0,120.0,116,58,83,76,72
2025-02-26 14:41:44.399,-677.0,-248.0,-125.0,-123.0,67.0,112.0,117,61,83,77,75
2025-02-26 14:41:44.407,-676.0,-225.0,-190.0,-111.0,71.0,106.0,116,61,84,79,76
2025-02-26 14:41:44.412,-685.0,-188.0,-237.0,-105.0,73.0,102.0,114,60,83,78,73
2025-02-26 14:41:44.416,-681.0,-169.0,-270.0,-93.0,74.0,97.0,113,59,83,77,75
2025-02-26 14:41:44.417,-676.0,-166.0,-264.0,-84.0,76.0,96.0,116,61,85,79,76
2025-02-26 14:41:44.428,-667.0,-128.0,-265.0,-77.0,74.0,90.0,120,62,84,77,75
2025-02-26 14:41:44.429,-666.0,-95.0,-272.0,-65.0,72.0,86.0,116,59,83,76,73
2025-02-26 14:41:44.436,-666.0,-96.0,-287.0,-53.0,70.0,84.0,118,61,85,78,74
2025-02-26 14:41:44.441,-674.0,-58.0,-289.0,-42.0,66.0,78.0,117,61,86,78,78
2025-02-26 14:41:44.445,-709.0,-34.0,-316.0,-36.0,64.0,73.0,117,60,85,77,75
2025-02-26 14:41:44.453,-750.0,-5.0,-340.0,-23.0,58.0,69.0,116,60,85,77,74
2025-02-26 14:41:44.457,-811.0,37.0,-364.0,-7.0,48.0,62.0,117,62,87,81,76
2025-02-26 14:41:44.462,-867.0,87.0,-386.0,0.0,42.0,52.0,118,62,84,79,75
2025-02-26 14:41:44.466,-899.0,101.0,-431.0,16.0,34.0,46.0,117,60,84,78,76
2025-02-26 14:41:44.466,-969.0,164.0,-437.0,32.0,27.0,35.0,117,61,89,84,77
2025-02-26 14:41:44.477,-1039.0,274.0,-489.0,40.0,22.0,24.0,118,61,85,77,76
2025-02-26 14:41:44.478,-1087.0,327.0,-508.0,57.0,12.0,18.0,116,60,82,78,76
2025-02-26 14:41:44.485,-1232.0,461.0,-521.0,76.0,1.0,6.0,116,60,86,79,77
2025-02-26 14:41:44.490,-1331.0,583.0,-514.0,89.0,-8.0,-9.0,114,60,85,78,75
2025-02-26 14:41:44.494,-1362.0,632.0,-417.0,124.0,-12.0,-18.0,116,58,83,78,76
2025-02-26 14:41:44.496,-1334.0,741.0,-368.0,179.0,-10.0,-48.0,119,62,86,80,82
2025-02-26 14:41:44.506,-1221.0,848.0,-262.0,213.0,3.0,-90.0,116,61,85,79,78
2025-02-26 14:41:44.511,-1117.0,938.0,-201.0,284.0,15.0,-115.0,117,59,86,80,76
2025-02-26 14:41:44.515,-969.0,978.0,-228.0,356.0,40.0,-172.0,118,61,85,80,77
2025-02-26 14:41:44.523,-969.0,1013.0,-278.0,426.0,62.0,-229.0,121,62,88,80,78
2025-02-26 14:41:44.527,-902.0,991.0,-381.0,457.0,75.0,-283.0,119,60,86,79,79
2025-02-26 14:41:44.531,-881.0,1000.0,-482.0,508.0,79.0,-308.0,121,60,85,79,78
2025-02-26 14:41:44.538,-751.0,1017.0,-580.0,534.0,75.0,-354.0,122,60,86,81,78
2025-02-26 14:41:44.543,-611.0,954.0,-580.0,543.0,60.0,-386.0,123,63,90,81,81
2025-02-26 14:41:44.548,-376.0,870.0,-593.0,540.0,33.0,-402.0,120,60,86,80,78
2025-02-26 14:41:44.551,-328.0,832.0,-558.0,523.0,14.0,-399.0,125,60,85,80,78
2025-02-26 14:41:44.557,-282.0,801.0,-422.0,495.0,-60.0,-421.0,124,61,86,81,80
2025-02-26 14:41:44.564,-18.0,676.0,-361.0,472.0,-184.0,-448.0,129,63,86,81,81
2025-02-26 14:41:44.568,429.0,463.0,-117.0,460.0,-288.0,-459.0,126,61,84,81,81
2025-02-26 14:41:44.572,727.0,-81.0,380.0,442.0,-320.0,-443.0,131,61,84,84,81
2025-02-26 14:41:44.580,1302.0,-476.0,1043.0,438.0,-368.0,-430.0,129,62,87,83,84
2025-02-26 14:41:44.584,1942.0,-1279.0,1331.0,455.0,-409.0,-397.0,130,62,92,82,84
2025-02-26 14:41:44.589,2478.0,-2166.0,2183.0,469.0,-397.0,-339.0,130,61,93,84,88
2025-02-26 14:41:44.594,3011.0,-2983.0,3054.0,502.0,-349.0,-260.0,131,61,94,83,89
2025-02-26 14:41:44.601,3176.0,-3464.0,3875.0,518.0,-307.0,-176.0,131,62,96,83,90
2025-02-26 14:41:44.605,3416.0,-3546.0,4359.0,505.0,-196.0,-90.0,132,61,95,83,90
2025-02-26 14:41:44.613,3292.0,-3433.0,4667.0,446.0,-66.0,-45.0,134,60,94,83,90
2025-02-26 14:41:44.617,2970.0,-2925.0,4666.0,322.0,60.0,22.0,134,63,93,83,90
2025-02-26 14:41:44.621,2426.0,-2019.0,4436.0,240.0,160.0,69.0,135,63,91,80,90
2025-02-26 14:41:44.626,2090.0,-1180.0,4027.0,42.0,202.0,98.0,134,61,89,80,88
2025-02-26 14:41:44.633,1583.0,-908.0,3363.0,-143.0,257.0,107.0,135,61,85,75,86
2025-02-26 14:41:44.637,1179.0,-574.0,2959.0,-305.0,274.0,114.0,136,64,87,75,88
2025-02-26 14:41:44.642,772.0,-451.0,2101.0,-415.0,257.0,114.0,136,64,86,76,87
2025-02-26 14:41:44.649,430.0,-616.0,1369.0,-448.0,216.0,110.0,133,61,90,74,87
2025-02-26 14:41:44.654,338.0,-862.0,858.0,-483.0,193.0,114.0,139,60,86,70,86
2025-02-26 14:41:44.658,259.0,-945.0,485.0,-474.0,147.0,120.0,135,61,85,79,86
2025-02-26 14:41:44.662,230.0,-1224.0,381.0,-441.0,108.0,133.0,133,63,85,79,91
2025-02-26 14:41:44.670,251.0,-1366.0,228.0,-418.0,74.0,143.0,131,61,84,81,87
2025-02-26 14:41:44.672,251.0,-1464.0,162.0,-360.0,59.0,148.0,132,60,82,78,87
2025-02-26 14:41:44.679,238.0,-1501.0,173.0,-302.0,35.0,148.0,135,62,83,80,86
2025-02-26 14:41:44.682,173.0,-1479.0,181.0,-247.0,28.0,147.0,135,62,82,82,88
2025-02-26 14:41:44.690,138.0,-1394.0,252.0,-220.0,31.0,144.0,133,61,80,82,87
2025-02-26 14:41:44.695,125.0,-1291.0,329.0,-177.0,27.0,141.0,132,61,84,83,87
2025-02-26 14:41:44.699,69.0,-1278.0,305.0,-138.0,26.0,141.0,135,64,87,84,89
2025-02-26 14:41:44.704,85.0,-1130.0,441.0,-132.0,35.0,146.0,134,63,83,84,89
2025-02-26 14:41:44.708,75.0,-984.0,541.0,-120.0,39.0,151.0,134,63,86,82,89
2025-02-26 14:41:44.715,112.0,-894.0,626.0,-114.0,38.0,153.0,137,63,89,84,90
2025-02-26 14:41:44.719,46.0,-826.0,598.0,-98.0,27.0,157.0,137,66,89,85,91
2025-02-26 14:41:44.720,42.0,-764.0,655.0,-93.0,31.0,165.0,135,63,87,82,90
2025-02-26 14:41:44.728,-1.0,-704.0,612.0,-101.0,46.0,169.0,135,64,88,84,89
2025-02-26 14:41:44.733,-52.0,-639.0,632.0,-96.0,53.0,176.0,138,65,88,84,90
