timestamp,ax,ay,az,gx,gy,gz,flex1,flex2,flex3,flex4,flex5,emg1,emg2,emg3
2025-03-17 18:44:10.150,-504.0,-331.0,840.0,2.0,0.0,-1.0,117,81,142,101,92
2025-03-17 18:44:10.166,-510.0,-318.0,839.0,2.0,-1.0,-1.0,117,81,143,101,92
2025-03-17 18:44:10.169,-506.0,-314.0,850.0,1.0,-1.0,-3.0,117,81,143,102,92
2025-03-17 18:44:10.171,-501.0,-331.0,847.0,1.0,1.0,-3.0,117,82,142,101,92
2025-03-17 18:44:10.174,-500.0,-328.0,834.0,2.0,1.0,-3.0,118,81,142,103,92
2025-03-17 18:44:10.176,-501.0,-331.0,843.0,1.0,1.0,-2.0,117,82,143,102,93
2025-03-17 18:44:10.179,-495.0,-341.0,831.0,1.0,1.0,-2.0,118,82,143,102,92
2025-03-17 18:44:10.182,-489.0,-329.0,827.0,0.0,1.0,-2.0,117,82,144,102,93
2025-03-17 18:44:10.182,-497.0,-337.0,827.0,-1.0,0.0,-3.0,117,81,142,101,91
2025-03-17 18:44:10.187,-499.0,-341.0,829.0,-1.0,0.0,-1.0,117,81,142,101,92
2025-03-17 18:44:10.190,-500.0,-335.0,833.0,-1.0,-1.0,-1.0,116,81,143,101,92
2025-03-17 18:44:10.213,-507.0,-329.0,838.0,0.0,0.0,-1.0,117,81,143,101,91
2025-03-17 18:44:10.232,-520.0,-324.0,847.0,0.0,1.0,-1.0,117,81,143,102,92
2025-03-17 18:44:10.259,-513.0,-317.0,833.0,-1.0,0.0,-1.0,117,81,143,101,92
2025-03-17 18:44:10.279,-518.0,-335.0,846.0,-1.0,0.0,-1.0,117,82,143,101,92
2025-03-17 18:44:10.307,-518.0,-322.0,840.0,-1.0,0.0,-1.0,118,82,142,101,92
2025-03-17 18:44:10.332,-507.0,-324.0,832.0,0.0,1.0,-1.0,117,82,142,98,91
2025-03-17 18:44:10.353,-508.0,-324.0,824.0,0.0,0.0,-1.0,117,81,142,102,92
2025-03-17 18:44:10.378,-510.0,-332.0,825.0,0.0,-1.0,-1.0,117,81,143,103,91
2025-03-17 18:44:10.401,-505.0,-317.0,819.0,0.0,0.0,-1.0,117,81,148,102,91
2025-03-17 18:44:10.426,-507.0,-320.0,823.0,0.0,0.0,-1.0,116,82,143,99,91
2025-03-17 18:44:10.449,-509.0,-321.0,820.0,-1.0,-1.0,-1.0,117,82,142,102,92
2025-03-17 18:44:10.475,-504.0,-321.0,824.0,-1.0,-1.0,-1.0,117,81,143,102,93
2025-03-17 18:44:10.497,-512.0,-325.0,824.0,-1.0,-1.0,-1.0,117,82,143,102,92
2025-03-17 18:44:10.521,-512.0,-315.0,830.0,-1.0,-2.0,-1.0,118,82,144,102,92
2025-03-17 18:44:10.549,-502.0,-318.0,841.0,-2.0,-1.0,-1.0,116,81,142,101,92
2025-03-17 18:44:10.570,-512.0,-319.0,829.0,-1.0,0.0,-1.0,117,81,143,102,91
2025-03-17 18:44:10.595,-512.0,-310.0,823.0,-2.0,-2.0,-1.0,116,82,144,103,92
2025-03-17 18:44:10.619,-508.0,-322.0,838.0,-2.0,-2.0,-2.0,116,81,143,101,92
2025-03-17 18:44:10.643,-503.0,-330.0,843.0,0.0,-1.0,-2.0,117,81,143,101,92
2025-03-17 18:44:10.667,-501.0,-330.0,849.0,-1.0,-2.0,-1.0,116,81,143,101,92
2025-03-17 18:44:10.692,-503.0,-334.0,855.0,-2.0,-1.0,-1.0,117,81,143,101,92
2025-03-17 18:44:10.716,-502.0,-324.0,853.0,-3.0,-1.0,-1.0,117,83,143,102,92
2025-03-17 18:44:10.738,-504.0,-326.0,848.0,-3.0,0.0,-1.0,118,82,142,102,92
2025-03-17 18:44:10.763,-511.0,-315.0,850.0,-4.0,0.0,-1.0,116,81,142,102,92
2025-03-17 18:44:10.787,-504.0,-326.0,841.0,-5.0,1.0,-2.0,117,81,143,102,91
2025-03-17 18:44:10.811,-506.0,-332.0,833.0,-5.0,1.0,-1.0,117,82,143,102,93
2025-03-17 18:44:10.836,-512.0,-327.0,824.0,-5.0,0.0,-2.0,118,82,141,102,92
2025-03-17 18:44:10.860,-504.0,-330.0,829.0,-3.0,1.0,-1.0,118,82,143,100,92
2025-03-17 18:44:10.885,-501.0,-322.0,822.0,-3.0,2.0,-2.0,117,82,144,102,92
2025-03-17 18:44:10.906,-505.0,-341.0,821.0,-3.0,1.0,-2.0,117,82,143,102,93
2025-03-17 18:44:10.930,-504.0,-336.0,816.0,-1.0,1.0,0.0,117,83,143,102,92
2025-03-17 18:44:10.954,-509.0,-324.0,817.0,-1.0,0.0,0.0,117,81,143,101,92
2025-03-17 18:44:10.979,-512.0,-329.0,818.0,-2.0,-1.0,0.0,117,82,143,101,92
2025-03-17 18:44:11.003,-513.0,-329.0,827.0,-2.0,-1.0,-1.0,116,82,143,101,92
2025-03-17 18:44:11.026,-509.0,-318.0,827.0,-2.0,0.0,-1.0,117,81,143,101,92
2025-03-17 18:44:11.053,-517.0,-322.0,819.0,-3.0,1.0,-2.0,117,82,143,101,92
2025-03-17 18:44:11.077,-510.0,-338.0,816.0,-4.0,-1.0,-2.0,118,83,143,101,92
2025-03-17 18:44:11.099,-509.0,-342.0,827.0,-3.0,-1.0,-2.0,117,82,143,101,92
2025-03-17 18:44:11.123,-506.0,-334.0,831.0,-3.0,-1.0,-2.0,117,81,143,103,92
2025-03-17 18:44:11.147,-504.0,-341.0,837.0,-3.0,-1.0,-2.0,116,81,144,102,92
2025-03-17 18:44:11.171,-508.0,-346.0,831.0,-3.0,0.0,-1.0,117,81,142,101,92
2025-03-17 18:44:11.196,-508.0,-333.0,840.0,-3.0,0.0,-1.0,117,81,143,101,91
2025-03-17 18:44:11.221,-494.0,-332.0,858.0,-3.0,1.0,-1.0,117,81,143,101,92
2025-03-17 18:44:11.244,-505.0,-330.0,827.0,-3.0,1.0,-1.0,117,82,144,102,91
2025-03-17 18:44:11.267,-503.0,-327.0,814.0,-2.0,0.0,-1.0,117,81,143,102,88
2025-03-17 18:44:11.291,-505.0,-322.0,819.0,-1.0,0.0,-2.0,117,83,143,102,92
2025-03-17 18:44:11.315,-505.0,-326.0,819.0,1.0,0.0,-1.0,117,82,143,103,86
2025-03-17 18:44:11.339,-516.0,-324.0,817.0,2.0,0.0,-1.0,115,82,143,102,93
2025-03-17 18:44:11.364,-516.0,-324.0,807.0,1.0,1.0,-2.0,117,81,142,102,91
2025-03-17 18:44:11.388,-527.0,-334.0,802.0,1.0,0.0,-1.0,117,81,143,101,91
2025-03-17 18:44:11.412,-519.0,-335.0,809.0,0.0,-2.0,-2.0,117,82,142,101,95
2025-03-17 18:44:11.432,-520.0,-346.0,807.0,0.0,-2.0,-2.0,117,82,142,101,92
2025-03-17 18:44:11.459,-507.0,-349.0,815.0,0.0,-2.0,-2.0,118,85,143,102,93
2025-03-17 18:44:11.483,-496.0,-352.0,816.0,-1.0,-2.0,-3.0,117,82,143,99,92
2025-03-17 18:44:11.505,-491.0,-360.0,845.0,-1.0,-3.0,-2.0,117,83,142,102,93
2025-03-17 18:44:11.533,-484.0,-355.0,857.0,-5.0,-2.0,-2.0,117,82,143,108,91
2025-03-17 18:44:11.556,-489.0,-371.0,856.0,-6.0,-1.0,-1.0,118,83,140,102,92
2025-03-17 18:44:11.581,-488.0,-374.0,852.0,-7.0,0.0,0.0,118,83,142,101,93
2025-03-17 18:44:11.602,-498.0,-366.0,835.0,-9.0,0.0,1.0,117,81,143,101,92
2025-03-17 18:44:11.626,-504.0,-370.0,814.0,-8.0,0.0,3.0,117,81,143,102,92
2025-03-17 18:44:11.649,-510.0,-365.0,802.0,-2.0,-3.0,4.0,117,84,143,101,92
2025-03-17 18:44:11.676,-521.0,-352.0,811.0,-4.0,-4.0,4.0,117,82,143,102,92
2025-03-17 18:44:11.700,-520.0,-341.0,895.0,4.0,-4.0,5.0,116,82,143,102,92
2025-03-17 18:44:11.724,-527.0,-322.0,826.0,1.0,0.0,5.0,118,81,142,103,92
2025-03-17 18:44:11.749,-524.0,-315.0,847.0,5.0,1.0,5.0,118,82,143,101,92
2025-03-17 18:44:11.770,-533.0,-298.0,832.0,5.0,0.0,6.0,117,83,142,101,92
2025-03-17 18:44:11.794,-540.0,-288.0,837.0,0.0,-2.0,3.0,117,82,142,102,93
2025-03-17 18:44:11.819,-515.0,-323.0,836.0,3.0,-2.0,1.0,117,82,143,100,93
2025-03-17 18:44:11.843,-523.0,-316.0,861.0,6.0,3.0,2.0,118,82,142,101,92
2025-03-17 18:44:11.868,-529.0,-321.0,830.0,7.0,2.0,1.0,119,82,143,101,93
2025-03-17 18:44:11.892,-523.0,-324.0,803.0,8.0,0.0,2.0,116,81,142,101,93
2025-03-17 18:44:11.917,-498.0,-327.0,819.0,6.0,2.0,2.0,117,81,143,101,93
2025-03-17 18:44:11.939,-513.0,-338.0,801.0,12.0,3.0,4.0,118,82,143,101,92
2025-03-17 18:44:11.962,-510.0,-294.0,813.0,10.0,1.0,5.0,117,83,143,101,93
2025-03-17 18:44:11.987,-521.0,-288.0,811.0,7.0,0.0,4.0,117,81,143,100,92
2025-03-17 18:44:12.011,-533.0,-268.0,860.0,2.0,1.0,1.0,117,82,143,101,89
2025-03-17 18:44:12.036,-521.0,-278.0,827.0,-1.0,2.0,0.0,117,81,143,101,92
2025-03-17 18:44:12.048,-539.0,-281.0,786.0,0.0,0.0,0.0,117,82,143,102,92
2025-03-17 18:44:12.085,-531.0,-277.0,813.0,-4.0,-3.0,-2.0,117,82,143,102,93
2025-03-17 18:44:12.105,-537.0,-293.0,833.0,-5.0,-2.0,-2.0,118,82,143,102,93
2025-03-17 18:44:12.130,-520.0,-283.0,820.0,-4.0,-1.0,-3.0,120,82,143,102,93
2025-03-17 18:44:12.155,-520.0,-292.0,805.0,-3.0,0.0,-4.0,118,82,143,102,92
2025-03-17 18:44:12.179,-522.0,-289.0,815.0,-3.0,-1.0,-4.0,118,81,142,104,92
2025-03-17 18:44:12.201,-521.0,-307.0,822.0,-4.0,-2.0,-5.0,115,82,143,100,93
2025-03-17 18:44:12.228,-523.0,-314.0,799.0,0.0,-3.0,-4.0,115,82,143,103,94
2025-03-17 18:44:12.253,-508.0,-300.0,799.0,-1.0,-5.0,-5.0,117,82,142,100,92
2025-03-17 18:44:12.274,-509.0,-324.0,801.0,1.0,-10.0,-6.0,117,82,144,102,92
2025-03-17 18:44:12.298,-509.0,-257.0,787.0,-10.0,-10.0,-4.0,117,82,143,101,92
2025-03-17 18:44:12.323,-476.0,-344.0,833.0,0.0,-3.0,-6.0,117,82,143,102,94
2025-03-17 18:44:12.347,-477.0,-310.0,886.0,3.0,-6.0,-4.0,117,83,143,102,94
2025-03-17 18:44:12.372,-489.0,-306.0,869.0,2.0,-6.0,-2.0,118,82,144,102,94
2025-03-17 18:44:12.396,-490.0,-297.0,850.0,-1.0,-5.0,-3.0,117,81,142,102,93
2025-03-17 18:44:12.421,-537.0,-288.0,861.0,1.0,-14.0,-7.0,117,81,143,102,93
2025-03-17 18:44:12.445,-535.0,-277.0,847.0,-4.0,-25.0,-9.0,117,82,142,101,93
2025-03-17 18:44:12.466,-470.0,-309.0,818.0,-7.0,-22.0,-9.0,117,82,143,101,93
2025-03-17 18:44:12.490,-480.0,-355.0,869.0,-2.0,-20.0,-3.0,115,83,143,102,98
2025-03-17 18:44:12.515,-472.0,-306.0,832.0,4.0,-18.0,-3.0,115,82,144,103,94
2025-03-17 18:44:12.540,-523.0,-293.0,877.0,2.0,-17.0,-6.0,111,83,144,101,94
2025-03-17 18:44:12.564,-480.0,-307.0,861.0,-2.0,-20.0,-7.0,112,84,144,102,96
2025-03-17 18:44:12.589,-470.0,-309.0,854.0,-5.0,-18.0,-5.0,115,83,143,104,97
2025-03-17 18:44:12.613,-470.0,-342.0,840.0,-6.0,-22.0,-3.0,113,83,145,103,97
2025-03-17 18:44:12.635,-423.0,-330.0,819.0,-2.0,-20.0,-4.0,114,84,143,102,98
2025-03-17 18:44:12.659,-437.0,-341.0,904.0,2.0,-12.0,-4.0,115,85,144,103,99
2025-03-17 18:44:12.681,-438.0,-312.0,889.0,1.0,-7.0,-5.0,115,85,144,103,100
2025-03-17 18:44:12.707,-418.0,-332.0,917.0,-5.0,-3.0,-4.0,116,86,144,103,101
2025-03-17 18:44:12.732,-409.0,-345.0,912.0,-1.0,2.0,-1.0,115,88,144,102,101
2025-03-17 18:44:12.757,-416.0,-318.0,879.0,-1.0,5.0,0.0,116,86,144,103,100
2025-03-17 18:44:12.781,-422.0,-323.0,864.0,1.0,-3.0,-1.0,115,85,144,104,100
2025-03-17 18:44:12.803,-412.0,-308.0,866.0,-1.0,-6.0,-1.0,115,86,143,103,101
2025-03-17 18:44:12.827,-412.0,-350.0,875.0,5.0,-4.0,0.0,116,86,144,102,100
2025-03-17 18:44:12.851,-424.0,-309.0,884.0,11.0,-5.0,1.0,116,86,144,102,101
2025-03-17 18:44:12.875,-409.0,-311.0,890.0,9.0,-6.0,1.0,115,87,144,103,101
2025-03-17 18:44:12.900,-407.0,-308.0,912.0,20.0,-8.0,5.0,118,86,144,104,101
2025-03-17 18:44:12.922,-346.0,-255.0,947.0,10.0,2.0,1.0,115,85,144,105,101
2025-03-17 18:44:12.947,-373.0,-295.0,950.0,-1.0,13.0,1.0,116,81,144,103,101
2025-03-17 18:44:12.970,-414.0,-342.0,869.0,6.0,9.0,6.0,117,81,144,103,101
2025-03-17 18:44:12.994,-417.0,-272.0,888.0,10.0,1.0,4.0,116,81,144,103,101
2025-03-17 18:44:13.006,-413.0,-263.0,882.0,1.0,-4.0,3.0,115,82,143,104,101
2025-03-17 18:44:13.044,-420.0,-315.0,875.0,2.0,-5.0,3.0,114,82,144,106,100
2025-03-17 18:44:13.068,-437.0,-287.0,865.0,4.0,-8.0,3.0,116,83,144,104,101
2025-03-17 18:44:13.092,-420.0,-287.0,886.0,7.0,-12.0,5.0,115,84,145,104,101
2025-03-17 18:44:13.117,-393.0,-270.0,927.0,8.0,-4.0,1.0,115,84,143,103,105
2025-03-17 18:44:13.127,-418.0,-295.0,912.0,8.0,-2.0,2.0,117,85,144,104,102
2025-03-17 18:44:13.163,-408.0,-271.0,913.0,6.0,-1.0,3.0,117,86,144,103,101
2025-03-17 18:44:13.187,-423.0,-273.0,926.0,5.0,-3.0,4.0,116,85,144,105,101
2025-03-17 18:44:13.211,-416.0,-248.0,897.0,3.0,-3.0,2.0,116,84,144,104,101
2025-03-17 18:44:13.230,-419.0,-266.0,902.0,0.0,-2.0,1.0,117,85,143,104,102
2025-03-17 18:44:13.261,-405.0,-268.0,905.0,0.0,0.0,1.0,117,85,143,104,101
2025-03-17 18:44:13.284,-423.0,-267.0,901.0,3.0,2.0,0.0,115,86,144,106,102
2025-03-17 18:44:13.304,-416.0,-244.0,907.0,3.0,3.0,0.0,115,85,143,105,102
2025-03-17 18:44:13.328,-434.0,-243.0,901.0,0.0,1.0,1.0,116,86,144,104,100
2025-03-17 18:44:13.355,-417.0,-248.0,901.0,-2.0,0.0,-1.0,117,86,144,104,102
2025-03-17 18:44:13.378,-425.0,-268.0,900.0,-1.0,2.0,1.0,117,85,144,105,102
2025-03-17 18:44:13.404,-418.0,-254.0,910.0,2.0,2.0,2.0,118,86,144,106,101
2025-03-17 18:44:13.428,-432.0,-249.0,904.0,2.0,1.0,0.0,117,85,138,104,101
2025-03-17 18:44:13.451,-438.0,-250.0,902.0,0.0,0.0,0.0,116,85,144,104,101
2025-03-17 18:44:13.474,-431.0,-245.0,900.0,2.0,-1.0,0.0,118,86,143,106,100
2025-03-17 18:44:13.498,-430.0,-244.0,903.0,0.0,-1.0,-1.0,117,87,144,104,102
2025-03-17 18:44:13.509,-432.0,-253.0,903.0,0.0,-1.0,-1.0,118,87,144,104,101
2025-03-17 18:44:13.547,-427.0,-253.0,909.0,1.0,1.0,-1.0,116,84,144,103,102
2025-03-17 18:44:13.572,-428.0,-253.0,898.0,0.0,-2.0,0.0,117,86,145,104,100
2025-03-17 18:44:13.596,-423.0,-260.0,911.0,-1.0,-2.0,0.0,117,86,144,104,102
2025-03-17 18:44:13.621,-434.0,-254.0,916.0,1.0,0.0,1.0,117,86,144,105,99
2025-03-17 18:44:13.630,-446.0,-244.0,920.0,1.0,1.0,0.0,116,85,142,105,104
2025-03-17 18:44:13.667,-431.0,-248.0,900.0,-2.0,1.0,0.0,114,86,144,104,101
2025-03-17 18:44:13.691,-433.0,-248.0,908.0,-3.0,-2.0,1.0,117,86,144,103,101
2025-03-17 18:44:13.715,-421.0,-250.0,904.0,-4.0,1.0,0.0,116,85,144,104,101
2025-03-17 18:44:13.740,-432.0,-250.0,904.0,-5.0,3.0,1.0,118,86,145,105,100
2025-03-17 18:44:13.764,-439.0,-246.0,896.0,-5.0,1.0,2.0,116,86,144,105,101
2025-03-17 18:44:13.788,-441.0,-239.0,885.0,-6.0,-3.0,1.0,117,86,142,104,101
2025-03-17 18:44:13.807,-436.0,-260.0,899.0,-6.0,-2.0,1.0,117,86,144,105,100
2025-03-17 18:44:13.824,-454.0,-254.0,878.0,-2.0,0.0,1.0,117,86,145,104,100
2025-03-17 18:44:13.856,-446.0,-235.0,880.0,-1.0,-5.0,3.0,117,86,144,103,100
2025-03-17 18:44:13.873,-422.0,-220.0,897.0,-3.0,-7.0,2.0,117,87,144,104,99
2025-03-17 18:44:13.903,-427.0,-250.0,900.0,-2.0,-3.0,2.0,116,86,144,104,101
2025-03-17 18:44:13.932,-422.0,-238.0,889.0,-3.0,-5.0,3.0,117,86,144,105,99
2025-03-17 18:44:13.956,-432.0,-244.0,889.0,-2.0,-6.0,4.0,116,86,145,105,100
2025-03-17 18:44:13.981,-450.0,-227.0,897.0,-2.0,-7.0,4.0,116,84,144,105,100
2025-03-17 18:44:14.002,-442.0,-215.0,875.0,-5.0,-5.0,2.0,116,87,144,105,99
2025-03-17 18:44:14.027,-438.0,-223.0,841.0,-7.0,-5.0,1.0,115,80,144,106,99
2025-03-17 18:44:14.050,-435.0,-209.0,825.0,-11.0,-7.0,-1.0,117,85,144,105,99
2025-03-17 18:44:14.074,-455.0,-148.0,695.0,-25.0,-5.0,-3.0,116,83,144,104,99
2025-03-17 18:44:14.100,-429.0,-178.0,639.0,-29.0,-8.0,-7.0,117,86,144,104,97
2025-03-17 18:44:14.122,-396.0,-204.0,575.0,-49.0,-27.0,-13.0,119,85,144,105,95
2025-03-17 18:44:14.149,-418.0,-317.0,670.0,-67.0,-53.0,-6.0,115,81,145,105,91
2025-03-17 18:44:14.171,-379.0,-384.0,1070.0,-77.0,-45.0,22.0,117,75,143,104,97
2025-03-17 18:44:14.195,-231.0,-548.0,1484.0,-96.0,10.0,30.0,119,68,140,101,71
2025-03-17 18:44:14.219,-229.0,-1048.0,1837.0,-124.0,61.0,48.0,113,59,133,98,63
2025-03-17 18:44:14.244,-220.0,-1139.0,1891.0,-158.0,151.0,76.0,104,48,122,77,51
2025-03-17 18:44:14.268,-359.0,-1228.0,1485.0,-169.0,186.0,102.0,105,43,112,69,46
2025-03-17 18:44:14.293,-476.0,-1139.0,1174.0,-170.0,187.0,131.0,104,40,98,57,39
2025-03-17 18:44:14.317,-240.0,-976.0,778.0,-154.0,202.0,161.0,116,38,98,64,40
2025-03-17 18:44:14.339,-427.0,-774.0,575.0,-123.0,216.0,184.0,115,39,97,62,39
2025-03-17 18:44:14.363,-480.0,-516.0,465.0,-125.0,192.0,212.0,111,38,93,60,38
2025-03-17 18:44:14.387,-396.0,-149.0,218.0,-89.0,184.0,228.0,109,32,93,61,36
2025-03-17 18:44:14.412,-358.0,59.0,42.0,-66.0,190.0,220.0,110,35,92,63,34
2025-03-17 18:44:14.436,-244.0,559.0,-191.0,-87.0,195.0,205.0,108,32,93,64,37
2025-03-17 18:44:14.460,-535.0,677.0,-228.0,-39.0,154.0,180.0,110,33,93,63,39
2025-03-17 18:44:14.485,-375.0,1222.0,-464.0,2.0,119.0,154.0,115,36,94,64,40
2025-03-17 18:44:14.504,-224.0,2376.0,-1283.0,68.0,55.0,80.0,110,36,95,63,42
2025-03-17 18:44:14.521,-62.0,4005.0,-2353.0,86.0,-136.0,-249.0,107,35,94,53,40
2025-03-17 18:44:14.551,488.0,4005.0,-2946.0,-10.0,-409.0,-727.0,112,36,95,61,39
2025-03-17 18:44:14.577,1722.0,3576.0,-2658.0,-139.0,-792.0,-1159.0,103,32,95,58,38
2025-03-17 18:44:14.594,7984.0,2074.0,1648.0,-353.0,-883.0,-1286.0,95,32,96,61,39
2025-03-17 18:44:14.629,7859.0,-7367.0,1462.0,-476.0,-32.0,-625.0,92,32,95,61,42
2025-03-17 18:44:14.653,3733.0,-7625.0,-923.0,288.0,235.0,181.0,83,24,91,60,41
2025-03-17 18:44:14.675,1789.0,-2253.0,250.0,63.0,85.0,305.0,102,31,93,62,49
2025-03-17 18:44:14.699,665.0,-1794.0,436.0,-6.0,45.0,291.0,96,37,94,63,44
2025-03-17 18:44:14.723,402.0,-1564.0,411.0,25.0,84.0,341.0,103,39,99,64,47
2025-03-17 18:44:14.748,37.0,-756.0,191.0,37.0,122.0,360.0,102,31,100,65,44
2025-03-17 18:44:14.772,-390.0,-261.0,78.0,-29.0,57.0,316.0,104,41,99,65,43
2025-03-17 18:44:14.797,-182.0,-384.0,407.0,-39.0,46.0,277.0,101,33,100,65,43
2025-03-17 18:44:14.821,-189.0,-537.0,359.0,24.0,91.0,266.0,102,32,101,65,44
2025-03-17 18:44:14.842,-308.0,-324.0,309.0,47.0,116.0,300.0,106,39,101,65,45
2025-03-17 18:44:14.867,-237.0,-266.0,323.0,85.0,125.0,336.0,107,37,102,63,45
2025-03-17 18:44:14.891,-121.0,-14.0,145.0,161.0,159.0,379.0,109,38,102,65,45
2025-03-17 18:44:14.915,-452.0,837.0,-180.0,152.0,138.0,361.0,111,31,101,66,39
2025-03-17 18:44:14.940,-584.0,1750.0,-601.0,155.0,81.0,281.0,114,36,101,63,46
2025-03-17 18:44:14.954,-489.0,3022.0,-1533.0,237.0,11.0,11.0,113,40,102,64,43
2025-03-17 18:44:14.989,-692.0,4269.0,-2494.0,74.0,-221.0,-445.0,105,36,102,65,41
2025-03-17 18:44:15.014,-89.0,3796.0,-2796.0,-120.0,-579.0,-968.0,108,40,101,66,40
2025-03-17 18:44:15.038,3770.0,3793.0,-2559.0,-304.0,-1170.0,-1389.0,105,34,100,66,45
2025-03-17 18:44:15.048,9742.0,-4410.0,1983.0,-786.0,-520.0,-700.0,100,33,100,65,47
2025-03-17 18:44:15.084,6103.0,-8976.0,-166.0,121.0,263.0,-4.0,97,35,97,65,48
2025-03-17 18:44:15.108,1769.0,-2423.0,-950.0,150.0,171.0,327.0,89,0,98,67,50
2025-03-17 18:44:15.129,377.0,-1745.0,217.0,-5.0,22.0,286.0,107,39,99,67,51
2025-03-17 18:44:15.156,151.0,-1139.0,520.0,67.0,87.0,304.0,105,38,102,69,51
2025-03-17 18:44:15.177,-256.0,-496.0,64.0,62.0,99.0,288.0,112,41,104,67,53
2025-03-17 18:44:15.202,-820.0,-128.0,84.0,-74.0,57.0,243.0,116,41,105,67,51
2025-03-17 18:44:15.226,-278.0,-98.0,342.0,-63.0,-3.0,148.0,120,37,105,66,57
2025-03-17 18:44:15.251,-154.0,-714.0,382.0,-43.0,23.0,139.0,122,40,107,67,51
2025-03-17 18:44:15.274,-48.0,-841.0,380.0,12.0,62.0,191.0,126,40,107,65,53
2025-03-17 18:44:15.300,-200.0,-857.0,350.0,37.0,77.0,258.0,125,38,108,67,50
2025-03-17 18:44:15.324,-85.0,-624.0,424.0,132.0,107.0,295.0,126,33,109,68,48
2025-03-17 18:44:15.349,-216.0,-404.0,286.0,158.0,161.0,347.0,127,39,106,68,48
2025-03-17 18:44:15.371,-395.0,196.0,-8.0,192.0,173.0,375.0,120,41,109,68,47
2025-03-17 18:44:15.395,-321.0,1370.0,-587.0,303.0,191.0,313.0,127,36,104,68,44
2025-03-17 18:44:15.419,-1689.0,4520.0,-2509.0,139.0,-19.0,-87.0,125,38,104,67,44
2025-03-17 18:44:15.444,-1358.0,4503.0,-2844.0,-176.0,-390.0,-683.0,130,37,105,65,42
2025-03-17 18:44:15.468,1374.0,3431.0,-2561.0,-367.0,-789.0,-1164.0,129,36,105,63,43
2025-03-17 18:44:15.492,7331.0,-2929.0,1407.0,-564.0,-860.0,-786.0,123,40,105,64,50
2025-03-17 18:44:15.517,5511.0,-8333.0,729.0,-277.0,-25.0,-224.0,113,27,105,63,54
2025-03-17 18:44:15.542,1877.0,-3570.0,-1183.0,293.0,198.0,172.0,137,28,102,63,54
2025-03-17 18:44:15.562,377.0,-1511.0,-95.0,31.0,44.0,148.0,124,30,101,63,53
2025-03-17 18:44:15.587,233.0,-1776.0,746.0,68.0,40.0,181.0,107,30,103,63,53
2025-03-17 18:44:15.612,-458.0,-875.0,613.0,81.0,85.0,183.0,137,37,106,64,52
2025-03-17 18:44:15.636,-369.0,-676.0,169.0,13.0,61.0,172.0,134,36,108,65,50
2025-03-17 18:44:15.661,-81.0,-758.0,263.0,3.0,52.0,137.0,130,30,107,67,51
2025-03-17 18:44:15.685,-10.0,-779.0,196.0,18.0,49.0,147.0,135,40,103,65,53
2025-03-17 18:44:15.704,-47.0,-862.0,233.0,23.0,46.0,207.0,138,39,103,68,49
2025-03-17 18:44:15.731,318.0,-739.0,579.0,121.0,99.0,191.0,138,40,103,67,51
2025-03-17 18:44:15.754,11.0,-815.0,358.0,144.0,161.0,262.0,134,39,107,67,51
2025-03-17 18:44:15.780,-296.0,-677.0,210.0,168.0,173.0,330.0,128,41,106,63,49
2025-03-17 18:44:15.801,-119.0,-471.0,322.0,199.0,179.0,376.0,131,40,105,67,50
2025-03-17 18:44:15.828,-164.0,-134.0,183.0,260.0,215.0,375.0,126,37,104,70,50
2025-03-17 18:44:15.853,-789.0,937.0,-405.0,224.0,197.0,322.0,128,36,103,68,46
2025-03-17 18:44:15.874,-1351.0,3231.0,-1343.0,116.0,65.0,57.0,128,40,103,66,40
2025-03-17 18:44:15.899,-1522.0,4200.0,-2663.0,-49.0,-174.0,-485.0,118,36,106,66,38
2025-03-17 18:44:15.923,-1063.0,3974.0,-4326.0,-79.0,-643.0,-1015.0,105,39,105,67,42
2025-03-17 18:44:15.948,6811.0,3089.0,-2082.0,-572.0,-1348.0,-1125.0,132,37,103,68,50
2025-03-17 18:44:15.972,8299.0,-7330.0,502.0,-1013.0,-391.0,-518.0,139,32,104,67,57
2025-03-17 18:44:15.995,3881.0,-6312.0,-1669.0,550.0,476.0,132.0,127,35,100,68,59
2025-03-17 18:44:16.019,395.0,-302.0,-1294.0,-26.0,4.0,120.0,138,34,100,69,58
2025-03-17 18:44:16.042,1099.0,-2365.0,1071.0,6.0,58.0,137.0,137,39,104,68,57
2025-03-17 18:44:16.060,-132.0,-1134.0,693.0,54.0,113.0,206.0,132,41,105,71,56
2025-03-17 18:44:16.091,-296.0,-559.0,608.0,-18.0,131.0,189.0,127,41,107,69,57
2025-03-17 18:44:16.116,220.0,-764.0,657.0,-69.0,121.0,170.0,134,42,109,73,56
2025-03-17 18:44:16.140,193.0,-1365.0,167.0,49.0,105.0,248.0,129,36,117,75,61
2025-03-17 18:44:16.154,244.0,-1149.0,223.0,239.0,176.0,308.0,136,32,118,52,83
2025-03-17 18:44:16.189,343.0,-960.0,-79.0,230.0,206.0,401.0,138,43,127,66,91
2025-03-17 18:44:16.213,-16.0,-610.0,-208.0,168.0,249.0,445.0,136,51,138,80,100
2025-03-17 18:44:16.236,-113.0,194.0,-212.0,185.0,254.0,451.0,136,59,142,98,100
2025-03-17 18:44:16.259,-506.0,235.0,-194.0,148.0,219.0,403.0,135,67,142,99,98
2025-03-17 18:44:16.284,-502.0,690.0,-538.0,167.0,124.0,352.0,129,70,145,98,100
2025-03-17 18:44:16.304,-579.0,2135.0,-1462.0,79.0,29.0,219.0,126,74,145,99,103
2025-03-17 18:44:16.332,-1071.0,3296.0,-2495.0,10.0,-217.0,-211.0,123,75,145,98,104
2025-03-17 18:44:16.357,-629.0,3083.0,-2449.0,-11.0,-474.0,-724.0,104,80,145,100,106
2025-03-17 18:44:16.382,1178.0,3086.0,-1282.0,-213.0,-589.0,-948.0,129,81,145,100,110
2025-03-17 18:44:16.406,4638.0,-1261.0,632.0,-940.0,-886.0,-1056.0,137,59,145,99,110
2025-03-17 18:44:16.431,4788.0,-4586.0,-921.0,-472.0,-273.0,-550.0,135,58,145,102,114
2025-03-17 18:44:16.452,3899.0,-5325.0,-123.0,239.0,166.0,221.0,126,61,146,101,113
2025-03-17 18:44:16.474,754.0,-1560.0,-77.0,170.0,248.0,310.0,136,55,146,101,114
2025-03-17 18:44:16.500,-176.0,-858.0,286.0,-71.0,-8.0,202.0,129,64,148,101,114
2025-03-17 18:44:16.522,-248.0,-1113.0,686.0,-28.0,26.0,205.0,138,78,145,103,116
2025-03-17 18:44:16.548,265.0,-1249.0,236.0,121.0,113.0,255.0,140,71,147,103,118
2025-03-17 18:44:16.573,103.0,-696.0,396.0,109.0,162.0,309.0,140,89,146,104,118
2025-03-17 18:44:16.598,-143.0,-395.0,415.0,39.0,151.0,299.0,136,81,145,103,120
2025-03-17 18:44:16.620,-131.0,-296.0,519.0,80.0,162.0,297.0,138,74,146,101,117
2025-03-17 18:44:16.644,-382.0,-185.0,157.0,123.0,145.0,309.0,135,80,147,103,118
2025-03-17 18:44:16.668,-322.0,-190.0,153.0,101.0,137.0,304.0,120,92,146,104,116
2025-03-17 18:44:16.692,-291.0,-41.0,10.0,122.0,135.0,304.0,124,91,146,102,117
2025-03-17 18:44:16.716,-520.0,186.0,-181.0,191.0,110.0,300.0,134,88,145,104,117
2025-03-17 18:44:16.742,-655.0,1423.0,-530.0,201.0,63.0,247.0,133,87,147,104,117
2025-03-17 18:44:16.764,-801.0,1941.0,-1464.0,119.0,-61.0,-20.0,131,92,147,105,119
2025-03-17 18:44:16.788,-1002.0,2956.0,-1978.0,23.0,-307.0,-464.0,119,93,146,107,121
2025-03-17 18:44:16.813,-194.0,3200.0,-1332.0,-229.0,-559.0,-903.0,124,96,146,106,123
2025-03-17 18:44:16.837,3227.0,667.0,-906.0,-550.0,-856.0,-1160.0,130,86,146,112,122
2025-03-17 18:44:16.862,5292.0,-4678.0,-562.0,-459.0,-662.0,-646.0,135,62,145,106,122
2025-03-17 18:44:16.886,4472.0,-5700.0,900.0,192.0,-1.0,72.0,115,58,147,107,125
2025-03-17 18:44:16.911,895.0,-2459.0,666.0,205.0,270.0,235.0,132,91,148,107,123
2025-03-17 18:44:16.935,-17.0,-868.0,732.0,-84.0,95.0,179.0,136,87,158,106,124
2025-03-17 18:44:16.959,-198.0,-1055.0,671.0,-59.0,7.0,153.0,137,88,147,107,125
2025-03-17 18:44:16.983,174.0,-1116.0,505.0,23.0,102.0,159.0,138,93,146,106,125
2025-03-17 18:44:17.005,133.0,-898.0,595.0,-10.0,152.0,201.0,136,77,146,106,123
2025-03-17 18:44:17.029,9.0,-680.0,423.0,-14.0,133.0,219.0,137,88,146,106,123
2025-03-17 18:44:17.054,108.0,-684.0,407.0,2.0,106.0,238.0,137,80,146,105,122
2025-03-17 18:44:17.078,16.0,-578.0,482.0,62.0,140.0,242.0,131,70,146,108,119
2025-03-17 18:44:17.103,-125.0,-561.0,358.0,102.0,168.0,265.0,118,60,145,104,122
2025-03-17 18:44:17.127,-198.0,-448.0,196.0,52.0,177.0,298.0,125,61,142,104,108
2025-03-17 18:44:17.151,-108.0,-379.0,271.0,52.0,144.0,354.0,132,50,143,103,98
2025-03-17 18:44:17.169,-211.0,-42.0,208.0,192.0,120.0,416.0,130,54,141,103,91
2025-03-17 18:44:17.195,-322.0,1410.0,-563.0,264.0,142.0,330.0,128,46,137,100,86
2025-03-17 18:44:17.222,-1216.0,2859.0,-1533.0,68.0,69.0,-37.0,111,42,131,70,70
2025-03-17 18:44:17.247,-1087.0,3072.0,-1208.0,-33.0,-125.0,-516.0,110,40,130,0,46
2025-03-17 18:44:17.269,-592.0,1531.0,-1155.0,-91.0,-383.0,-758.0,112,25,123,63,45
2025-03-17 18:44:17.292,1978.0,796.0,19.0,-223.0,-604.0,-935.0,120,33,112,66,41
2025-03-17 18:44:17.319,4267.0,-1825.0,1097.0,-607.0,-550.0,-685.0,120,35,107,69,42
2025-03-17 18:44:17.340,3239.0,-7075.0,384.0,-169.0,24.0,-181.0,110,30,105,67,44
2025-03-17 18:44:17.365,1627.0,-3078.0,-749.0,183.0,79.0,170.0,131,30,104,69,46
2025-03-17 18:44:17.390,524.0,-1440.0,-224.0,-14.0,-5.0,131.0,109,27,106,68,45
2025-03-17 18:44:17.413,390.0,-1692.0,379.0,-13.0,-39.0,170.0,133,31,107,70,46
2025-03-17 18:44:17.438,292.0,-503.0,626.0,51.0,37.0,234.0,103,28,110,71,43
2025-03-17 18:44:17.463,-413.0,-390.0,280.0,32.0,50.0,203.0,108,32,109,71,44
2025-03-17 18:44:17.485,-337.0,-318.0,391.0,-11.0,14.0,153.0,132,35,111,72,45
2025-03-17 18:44:17.508,-259.0,-521.0,413.0,13.0,34.0,143.0,132,35,110,71,47
2025-03-17 18:44:17.533,-157.0,-593.0,466.0,28.0,77.0,172.0,136,35,111,73,46
2025-03-17 18:44:17.558,-220.0,-299.0,473.0,39.0,70.0,194.0,134,36,110,74,46
2025-03-17 18:44:17.582,-466.0,-105.0,235.0,65.0,96.0,154.0,134,35,112,75,45
2025-03-17 18:44:17.593,-553.0,85.0,243.0,73.0,128.0,146.0,136,36,112,74,45
2025-03-17 18:44:17.631,-966.0,1976.0,-251.0,123.0,135.0,31.0,132,36,112,75,44
2025-03-17 18:44:17.656,-1892.0,2873.0,-1502.0,44.0,-56.0,-306.0,135,36,110,75,46
2025-03-17 18:44:17.680,-1035.0,2538.0,-2109.0,-13.0,-423.0,-685.0,135,35,111,76,45
2025-03-17 18:44:17.701,3765.0,1618.0,23.0,-352.0,-681.0,-863.0,130,36,112,75,47
2025-03-17 18:44:17.725,5786.0,-7221.0,2090.0,-161.0,-68.0,-360.0,134,26,113,75,49
2025-03-17 18:44:17.750,2639.0,-4168.0,-932.0,332.0,238.0,128.0,128,23,109,76,53
2025-03-17 18:44:17.775,463.0,-1866.0,-178.0,-42.0,-42.0,85.0,124,31,109,74,53
2025-03-17 18:44:17.799,748.0,-2424.0,1036.0,19.0,45.0,162.0,135,35,109,78,52
2025-03-17 18:44:17.823,37.0,-1180.0,410.0,34.0,105.0,217.0,123,31,111,77,52
2025-03-17 18:44:17.845,57.0,-488.0,0.0,-6.0,79.0,151.0,98,31,113,78,52
2025-03-17 18:44:17.867,77.0,-922.0,145.0,-61.0,61.0,166.0,133,33,113,81,52
2025-03-17 18:44:17.894,403.0,-1127.0,321.0,-46.0,65.0,218.0,134,33,114,83,58
2025-03-17 18:44:17.916,291.0,-922.0,188.0,130.0,129.0,280.0,129,40,117,85,50
2025-03-17 18:44:17.942,77.0,-713.0,155.0,154.0,164.0,348.0,112,36,121,84,53
2025-03-17 18:44:17.967,124.0,-658.0,116.0,161.0,185.0,401.0,113,26,130,85,54
2025-03-17 18:44:17.991,199.0,-504.0,24.0,237.0,256.0,454.0,114,50,138,77,52
2025-03-17 18:44:18.013,-225.0,723.0,-401.0,279.0,280.0,490.0,133,59,142,70,46
2025-03-17 18:44:18.037,-1001.0,2159.0,-1053.0,205.0,110.0,265.0,134,64,142,54,47
2025-03-17 18:44:18.061,-1193.0,2720.0,-1305.0,115.0,-143.0,-126.0,135,76,144,61,46
2025-03-17 18:44:18.086,-1190.0,2566.0,-1534.0,32.0,-403.0,-554.0,133,83,145,57,43
2025-03-17 18:44:18.110,1060.0,2305.0,-794.0,-11.0,-762.0,-849.0,121,83,146,70,47
2025-03-17 18:44:18.135,3299.0,-685.0,175.0,-276.0,-883.0,-837.0,110,69,145,79,53
2025-03-17 18:44:18.159,4114.0,-3753.0,1311.0,-286.0,-497.0,-356.0,100,80,146,71,57
2025-03-17 18:44:18.180,3739.0,-4446.0,1846.0,124.0,43.0,73.0,116,55,147,76,61
2025-03-17 18:44:18.205,822.0,-1802.0,970.0,121.0,188.0,165.0,109,68,146,82,60
2025-03-17 18:44:18.217,358.0,-1469.0,921.0,-65.0,62.0,186.0,107,95,147,81,60
2025-03-17 18:44:18.254,462.0,-1364.0,979.0,15.0,116.0,218.0,114,63,146,77,59
2025-03-17 18:44:18.278,168.0,-881.0,665.0,68.0,203.0,257.0,121,73,146,82,61
2025-03-17 18:44:18.303,-71.0,-485.0,447.0,46.0,184.0,273.0,119,66,148,84,60
2025-03-17 18:44:18.314,-53.0,-268.0,494.0,9.0,156.0,251.0,117,82,147,81,59
2025-03-17 18:44:18.348,59.0,-539.0,467.0,59.0,208.0,261.0,121,82,147,86,60
2025-03-17 18:44:18.372,0.0,-349.0,304.0,94.0,249.0,311.0,121,97,147,87,58
2025-03-17 18:44:18.396,-269.0,-40.0,136.0,88.0,240.0,323.0,118,98,147,84,58
2025-03-17 18:44:18.418,-262.0,-22.0,85.0,161.0,244.0,290.0,124,91,146,88,58
2025-03-17 18:44:18.436,-470.0,561.0,-206.0,204.0,243.0,264.0,108,99,148,86,52
2025-03-17 18:44:18.470,-852.0,1495.0,-602.0,61.0,131.0,141.0,121,97,147,87,50
2025-03-17 18:44:18.495,-1237.0,1978.0,-1535.0,46.0,-70.0,-98.0,122,99,147,86,51
2025-03-17 18:44:18.520,-1041.0,2532.0,-1885.0,-10.0,-386.0,-467.0,122,104,147,86,49
2025-03-17 18:44:18.541,2.0,2198.0,-1297.0,-73.0,-698.0,-816.0,122,90,147,85,53
2025-03-17 18:44:18.566,2588.0,1302.0,-572.0,-269.0,-983.0,-878.0,117,72,147,86,57
2025-03-17 18:44:18.590,4788.0,-2780.0,636.0,-494.0,-723.0,-575.0,94,82,147,84,60
2025-03-17 18:44:18.613,5035.0,-5757.0,1798.0,-10.0,-19.0,-7.0,111,84,146,79,64
2025-03-17 18:44:18.638,1476.0,-2087.0,638.0,171.0,266.0,160.0,113,55,148,88,69
2025-03-17 18:44:18.663,209.0,-1397.0,811.0,-102.0,56.0,161.0,123,59,147,90,67
2025-03-17 18:44:18.685,399.0,-1473.0,947.0,-85.0,72.0,165.0,107,58,146,89,65
2025-03-17 18:44:18.709,473.0,-1284.0,842.0,-56.0,157.0,204.0,125,74,146,91,66
2025-03-17 18:44:18.734,287.0,-1007.0,430.0,-12.0,188.0,254.0,115,80,146,90,67
2025-03-17 18:44:18.758,195.0,-648.0,430.0,-21.0,181.0,275.0,123,98,146,90,69
2025-03-17 18:44:18.782,118.0,-455.0,531.0,-22.0,195.0,290.0,130,80,145,92,71
2025-03-17 18:44:18.807,145.0,-547.0,376.0,-6.0,234.0,343.0,134,99,146,86,73
2025-03-17 18:44:18.831,84.0,-426.0,313.0,8.0,256.0,404.0,133,82,145,72,77
2025-03-17 18:44:18.852,-163.0,-193.0,19.0,96.0,246.0,407.0,131,58,142,74,77
2025-03-17 18:44:18.877,-658.0,906.0,-197.0,95.0,186.0,313.0,133,45,135,67,70
2025-03-17 18:44:18.901,-1141.0,1933.0,-447.0,70.0,44.0,87.0,133,29,125,81,58
2025-03-17 18:44:18.926,-697.0,2676.0,-1255.0,-15.0,-88.0,-220.0,130,29,121,79,47
2025-03-17 18:44:18.950,-385.0,2206.0,-1744.0,-47.0,-244.0,-510.0,125,25,119,75,45
2025-03-17 18:44:18.975,-72.0,2064.0,-1750.0,-118.0,-516.0,-745.0,117,27,120,78,47
2025-03-17 18:44:18.999,2821.0,708.0,-525.0,-324.0,-634.0,-836.0,130,29,123,78,48
2025-03-17 18:44:19.023,4519.0,-2890.0,1214.0,-442.0,-458.0,-624.0,133,27,123,80,48
2025-03-17 18:44:19.045,3604.0,-6486.0,808.0,122.0,56.0,-68.0,117,32,122,80,51
2025-03-17 18:44:19.069,1283.0,-2340.0,-403.0,154.0,123.0,90.0,133,28,122,81,52
2025-03-17 18:44:19.094,703.0,-2199.0,451.0,-56.0,-10.0,94.0,133,34,122,82,53
2025-03-17 18:44:19.118,680.0,-2188.0,572.0,-19.0,22.0,167.0,134,37,124,82,54
2025-03-17 18:44:19.141,488.0,-1253.0,457.0,54.0,66.0,221.0,135,32,125,82,53
2025-03-17 18:44:19.167,325.0,-797.0,205.0,40.0,81.0,229.0,134,36,125,82,52
2025-03-17 18:44:19.188,23.0,-627.0,359.0,59.0,73.0,205.0,130,35,125,84,53
2025-03-17 18:44:19.212,2.0,-553.0,369.0,69.0,93.0,221.0,135,36,124,82,51
2025-03-17 18:44:19.223,-90.0,-590.0,259.0,72.0,106.0,253.0,140,36,124,81,52
2025-03-17 18:44:19.261,560.0,-355.0,500.0,171.0,149.0,251.0,132,35,124,82,52
2025-03-17 18:44:19.286,-36.0,-314.0,366.0,188.0,209.0,297.0,132,37,124,82,52
2025-03-17 18:44:19.310,-225.0,-53.0,157.0,232.0,243.0,319.0,134,35,124,84,52
2025-03-17 18:44:19.334,-304.0,1202.0,-204.0,254.0,222.0,271.0,134,39,124,82,53
2025-03-17 18:44:19.350,-1742.0,3786.0,-1814.0,67.0,65.0,-92.0,134,33,120,85,49
2025-03-17 18:44:19.382,-1427.0,3238.0,-2355.0,-92.0,-280.0,-544.0,133,39,125,84,49
2025-03-17 18:44:19.399,539.0,2770.0,-2410.0,-280.0,-636.0,-958.0,136,38,126,85,49
2025-03-17 18:44:19.430,5536.0,-1162.0,-731.0,-435.0,-910.0,-863.0,137,36,125,85,52
2025-03-17 18:44:19.454,6293.0,-7905.0,2410.0,-178.0,-224.0,-171.0,134,35,126,84,63
2025-03-17 18:44:19.479,2385.0,-3787.0,428.0,307.0,349.0,142.0,135,31,123,86,65
2025-03-17 18:44:19.503,1098.0,-1286.0,-230.0,-31.0,135.0,157.0,139,31,122,86,69
2025-03-17 18:44:19.514,679.0,-2102.0,1412.0,-13.0,91.0,203.0,136,41,123,87,66
2025-03-17 18:44:19.549,285.0,-1653.0,669.0,108.0,178.0,288.0,134,39,128,87,65
2025-03-17 18:44:19.573,212.0,-690.0,279.0,40.0,188.0,351.0,126,41,128,87,61
2025-03-17 18:44:19.596,366.0,-518.0,499.0,90.0,229.0,329.0,131,39,126,86,62
2025-03-17 18:44:19.622,94.0,-471.0,177.0,88.0,234.0,322.0,136,29,122,83,63
2025-03-17 18:44:19.647,-49.0,-335.0,80.0,142.0,206.0,329.0,128,35,119,83,65
2025-03-17 18:44:19.671,-59.0,-89.0,292.0,74.0,205.0,337.0,123,36,119,77,67
2025-03-17 18:44:19.695,-160.0,-25.0,77.0,79.0,200.0,323.0,107,38,119,80,61
2025-03-17 18:44:19.716,-516.0,351.0,-75.0,146.0,214.0,299.0,119,36,117,79,52
2025-03-17 18:44:19.732,-930.0,2114.0,-584.0,52.0,190.0,166.0,131,31,113,72,42
2025-03-17 18:44:19.766,-1002.0,3614.0,-1955.0,-133.0,29.0,-267.0,121,37,108,71,45
2025-03-17 18:44:19.790,-681.0,3571.0,-3077.0,-33.0,-331.0,-710.0,84,35,106,71,39
2025-03-17 18:44:19.815,1385.0,3627.0,-1962.0,-173.0,-786.0,-1069.0,101,37,108,70,42
2025-03-17 18:44:19.839,6527.0,-118.0,1126.0,-578.0,-697.0,-1034.0,99,31,108,68,49
2025-03-17 18:44:19.861,5894.0,-7934.0,1824.0,-191.0,-115.0,-249.0,99,37,106,67,58
2025-03-17 18:44:19.878,2466.0,-3912.0,-393.0,290.0,203.0,210.0,99,22,102,63,61
2025-03-17 18:44:19.909,960.0,-2056.0,545.0,-62.0,52.0,155.0,92,23,103,65,60
2025-03-17 18:44:19.934,546.0,-2110.0,746.0,-30.0,81.0,217.0,97,33,105,68,58
2025-03-17 18:44:19.957,90.0,-1592.0,516.0,1.0,95.0,296.0,96,38,108,69,57
2025-03-17 18:44:19.982,-37.0,-790.0,271.0,-19.0,130.0,320.0,96,40,110,68,65
2025-03-17 18:44:20.007,-311.0,33.0,295.0,-70.0,89.0,216.0,104,39,110,68,52
2025-03-17 18:44:20.031,-464.0,-395.0,9.0,-42.0,74.0,158.0,95,24,109,67,51
2025-03-17 18:44:20.053,-90.0,-619.0,223.0,-17.0,96.0,199.0,101,32,109,68,52
2025-03-17 18:44:20.077,-114.0,-688.0,159.0,23.0,115.0,295.0,104,33,111,69,51
2025-03-17 18:44:20.101,-147.0,-508.0,123.0,92.0,126.0,348.0,107,35,111,69,49
2025-03-17 18:44:20.125,-62.0,-251.0,188.0,139.0,151.0,358.0,106,35,111,70,49
2025-03-17 18:44:20.150,-224.0,-217.0,-72.0,198.0,174.0,387.0,112,34,111,68,48
2025-03-17 18:44:20.175,-366.0,693.0,-594.0,215.0,112.0,416.0,117,35,103,71,48
2025-03-17 18:44:20.199,-618.0,2778.0,-1849.0,219.0,-15.0,189.0,117,39,109,69,42
2025-03-17 18:44:20.224,-1086.0,5218.0,-2372.0,78.0,-225.0,-495.0,115,39,109,72,44
2025-03-17 18:44:20.249,-266.0,4904.0,-2459.0,-247.0,-705.0,-1194.0,110,33,112,71,40
2025-03-17 18:44:20.268,7352.0,1322.0,-355.0,-656.0,-990.0,-1412.0,79,24,109,72,43
2025-03-17 18:44:20.294,7071.0,-10724.0,1033.0,-527.0,-285.0,-305.0,98,31,107,68,58
2025-03-17 18:44:20.316,2569.0,-5110.0,-2158.0,662.0,255.0,332.0,92,36,102,61,65
2025-03-17 18:44:20.332,784.0,-1126.0,-637.0,-92.0,24.0,244.0,107,28,103,70,68
2025-03-17 18:44:20.366,-326.0,-1892.0,1419.0,105.0,114.0,240.0,112,32,106,71,57
2025-03-17 18:44:20.391,-295.0,-1076.0,231.0,100.0,169.0,305.0,111,38,110,69,61
2025-03-17 18:44:20.413,-335.0,-472.0,389.0,29.0,142.0,304.0,113,35,112,71,59
2025-03-17 18:44:20.430,-152.0,-380.0,207.0,-1.0,117.0,267.0,121,33,114,71,58
2025-03-17 18:44:20.461,-139.0,-838.0,153.0,99.0,99.0,273.0,123,29,116,71,59
2025-03-17 18:44:20.486,-149.0,-605.0,-167.0,162.0,76.0,296.0,123,38,115,73,60
2025-03-17 18:44:20.511,-81.0,-306.0,254.0,215.0,122.0,346.0,123,31,115,73,58
2025-03-17 18:44:20.535,-238.0,-146.0,-201.0,211.0,125.0,381.0,124,59,116,73,54
2025-03-17 18:44:20.559,-375.0,36.0,-245.0,236.0,133.0,398.0,122,61,115,73,49
2025-03-17 18:44:20.581,-839.0,862.0,-823.0,277.0,70.0,329.0,105,61,109,66,34
2025-03-17 18:44:20.605,-2033.0,1827.0,-1384.0,158.0,-111.0,16.0,95,64,103,66,45
2025-03-17 18:44:20.630,-568.0,3082.0,-2965.0,100.0,-843.0,-466.0,76,55,98,69,48
2025-03-17 18:44:20.654,2791.0,631.0,-3041.0,-31.0,-1394.0,-458.0,73,19,98,71,55
2025-03-17 18:44:20.666,5968.0,-2360.0,2846.0,432.0,-1050.0,-20.0,77,44,101,68,71
2025-03-17 18:44:20.703,2696.0,607.0,4781.0,141.0,-78.0,-82.0,76,45,100,68,71
2025-03-17 18:44:20.722,1043.0,-290.0,2102.0,95.0,19.0,27.0,74,61,103,76,70
2025-03-17 18:44:20.750,940.0,363.0,2416.0,-109.0,114.0,85.0,75,63,100,74,71
2025-03-17 18:44:20.769,761.0,363.0,2535.0,-210.0,243.0,99.0,76,55,102,75,68
2025-03-17 18:44:20.797,353.0,-62.0,1131.0,-113.0,303.0,71.0,68,68,101,73,70
2025-03-17 18:44:20.822,33.0,377.0,1010.0,-16.0,223.0,44.0,72,68,102,73,67
2025-03-17 18:44:20.846,331.0,58.0,1137.0,-136.0,278.0,62.0,81,68,103,72,67
2025-03-17 18:44:20.871,144.0,-297.0,730.0,-170.0,350.0,97.0,86,63,103,72,69
2025-03-17 18:44:20.895,-99.0,-443.0,322.0,-43.0,301.0,123.0,86,69,103,72,66
2025-03-17 18:44:20.916,22.0,24.0,628.0,9.0,304.0,107.0,86,61,103,72,65
2025-03-17 18:44:20.940,-151.0,51.0,370.0,-37.0,320.0,101.0,88,63,103,74,66
2025-03-17 18:44:20.966,-391.0,-73.0,140.0,-69.0,282.0,119.0,88,72,104,74,59
2025-03-17 18:44:20.990,-371.0,-143.0,28.0,-10.0,225.0,117.0,91,65,105,73,57
2025-03-17 18:44:21.014,-352.0,151.0,127.0,65.0,217.0,112.0,92,79,105,72,56
2025-03-17 18:44:21.037,-791.0,532.0,-264.0,64.0,172.0,132.0,94,72,106,73,52
2025-03-17 18:44:21.063,-1186.0,1028.0,-1526.0,85.0,26.0,9.0,93,72,104,70,52
2025-03-17 18:44:21.085,-1994.0,2266.0,-3186.0,173.0,-380.0,-359.0,90,71,103,72,49
2025-03-17 18:44:21.109,-45.0,2479.0,-3936.0,71.0,-1127.0,-551.0,81,76,102,73,49
2025-03-17 18:44:21.133,6085.0,-1828.0,-1284.0,-56.0,-1528.0,-259.0,85,81,102,71,61
2025-03-17 18:44:21.144,5198.0,-1934.0,5552.0,63.0,-480.0,120.0,76,77,104,66,71
2025-03-17 18:44:21.182,2833.0,-2165.0,3981.0,-139.0,119.0,1.0,84,83,104,68,75
2025-03-17 18:44:21.206,1076.0,-401.0,2701.0,-15.0,278.0,36.0,87,73,106,69,77
2025-03-17 18:44:21.231,899.0,-915.0,2062.0,-253.0,384.0,123.0,93,70,105,71,69
2025-03-17 18:44:21.252,607.0,-819.0,1222.0,-296.0,440.0,206.0,83,77,105,71,59
2025-03-17 18:44:21.277,69.0,-631.0,718.0,-187.0,399.0,244.0,95,82,106,72,59
2025-03-17 18:44:21.301,246.0,-125.0,401.0,-126.0,365.0,231.0,96,79,109,71,58
2025-03-17 18:44:21.326,412.0,-354.0,464.0,-28.0,381.0,221.0,101,63,113,72,61
2025-03-17 18:44:21.350,99.0,-485.0,88.0,92.0,423.0,247.0,103,82,120,77,57
2025-03-17 18:44:21.375,-215.0,-59.0,-139.0,113.0,323.0,257.0,84,85,127,32,60
2025-03-17 18:44:21.399,-721.0,-3.0,-792.0,89.0,135.0,236.0,105,79,135,50,79
2025-03-17 18:44:21.419,-664.0,377.0,-340.0,140.0,71.0,203.0,104,83,142,23,96
2025-03-17 18:44:21.445,-802.0,317.0,-245.0,92.0,33.0,149.0,106,77,144,93,104
2025-03-17 18:44:21.467,-540.0,1117.0,-805.0,79.0,13.0,85.0,107,78,144,94,103
2025-03-17 18:44:21.494,-1126.0,1983.0,-1706.0,-37.0,-170.0,-175.0,108,82,143,95,103
2025-03-17 18:44:21.518,-1131.0,2202.0,-1705.0,-182.0,-337.0,-557.0,108,93,144,97,110
2025-03-17 18:44:21.540,384.0,1635.0,-2623.0,-300.0,-614.0,-891.0,108,98,144,98,117
2025-03-17 18:44:21.569,3967.0,-733.0,-390.0,-411.0,-839.0,-931.0,113,67,145,99,121
2025-03-17 18:44:21.591,3534.0,-3513.0,45.0,-525.0,-560.0,-614.0,117,62,144,102,122
2025-03-17 18:44:21.613,3572.0,-6233.0,766.0,118.0,-43.0,3.0,101,89,146,102,123
2025-03-17 18:44:21.637,1375.0,-2954.0,606.0,350.0,298.0,285.0,117,92,146,103,123
2025-03-17 18:44:21.661,108.0,-1143.0,243.0,91.0,209.0,257.0,120,99,146,104,122
2025-03-17 18:44:21.686,-199.0,-1086.0,486.0,-39.0,36.0,196.0,119,92,150,104,122
2025-03-17 18:44:21.711,59.0,-928.0,726.0,-29.0,67.0,229.0,120,104,145,103,123
2025-03-17 18:44:21.735,154.0,-922.0,560.0,52.0,117.0,308.0,121,102,146,104,122
2025-03-17 18:44:21.761,54.0,-566.0,192.0,97.0,173.0,310.0,119,103,146,103,120
2025-03-17 18:44:21.781,-108.0,-191.0,164.0,111.0,184.0,279.0,116,107,146,104,120
2025-03-17 18:44:21.806,-182.0,-268.0,173.0,99.0,121.0,277.0,115,107,146,105,119
2025-03-17 18:44:21.829,-432.0,-293.0,74.0,141.0,77.0,299.0,109,106,146,104,119
2025-03-17 18:44:21.854,-376.0,67.0,264.0,188.0,91.0,286.0,108,105,146,103,117
2025-03-17 18:44:21.878,-461.0,334.0,168.0,140.0,61.0,245.0,107,105,144,103,116
2025-03-17 18:44:21.903,-485.0,939.0,112.0,164.0,15.0,186.0,113,103,145,103,115
2025-03-17 18:44:21.928,-814.0,1739.0,-230.0,34.0,50.0,23.0,111,103,146,104,117
2025-03-17 18:44:21.952,-1400.0,1853.0,-1390.0,32.0,-124.0,-329.0,112,103,146,104,119
2025-03-17 18:44:21.977,-837.0,1836.0,-567.0,-26.0,-181.0,-691.0,112,105,146,98,121
2025-03-17 18:44:22.001,1152.0,2465.0,-1239.0,-151.0,-462.0,-905.0,118,91,146,103,121
2025-03-17 18:44:22.026,4329.0,-2033.0,3589.0,-545.0,-674.0,-830.0,99,95,141,104,121
2025-03-17 18:44:22.047,3708.0,-4259.0,581.0,-365.0,-381.0,-402.0,118,93,145,103,121
2025-03-17 18:44:22.071,2628.0,-5084.0,1160.0,82.0,66.0,94.0,116,100,145,105,122
2025-03-17 18:44:22.096,663.0,-1933.0,673.0,129.0,233.0,262.0,113,105,145,104,122
2025-03-17 18:44:22.121,59.0,-1077.0,179.0,-53.0,109.0,200.0,116,108,147,104,119
2025-03-17 18:44:22.145,-81.0,-1140.0,742.0,-20.0,12.0,139.0,120,105,145,105,120
2025-03-17 18:44:22.169,-15.0,-882.0,492.0,53.0,73.0,174.0,108,109,144,104,120
2025-03-17 18:44:22.191,85.0,-746.0,564.0,44.0,135.0,234.0,115,106,143,105,118
2025-03-17 18:44:22.212,-12.0,-743.0,182.0,69.0,175.0,288.0,114,104,143,103,115
2025-03-17 18:44:22.240,138.0,-586.0,394.0,114.0,187.0,332.0,108,92,145,103,103
2025-03-17 18:44:22.264,9.0,-450.0,384.0,165.0,158.0,344.0,97,90,141,100,91
2025-03-17 18:44:22.289,-245.0,-161.0,156.0,195.0,181.0,340.0,107,70,138,89,89
2025-03-17 18:44:22.313,-390.0,-215.0,-166.0,177.0,143.0,356.0,87,78,127,27,79
2025-03-17 18:44:22.337,-595.0,0.0,-849.0,324.0,186.0,364.0,115,68,112,24,57
2025-03-17 18:44:22.359,-1616.0,1505.0,-1264.0,93.0,82.0,137.0,96,56,98,49,39
2025-03-17 18:44:22.383,-1793.0,4847.0,-6839.0,119.0,-589.0,-440.0,80,30,97,59,36
2025-03-17 18:44:22.406,679.0,2315.0,-3884.0,-89.0,-1252.0,-642.0,66,39,94,57,45
2025-03-17 18:44:22.432,7044.0,-3952.0,1932.0,22.0,-1194.0,-191.0,63,43,96,61,55
2025-03-17 18:44:22.456,3567.0,-847.0,4816.0,192.0,-29.0,-91.0,68,55,100,62,69
2025-03-17 18:44:22.481,1087.0,-1098.0,2618.0,218.0,108.0,-25.0,70,79,99,64,76
2025-03-17 18:44:22.505,547.0,-677.0,2743.0,-154.0,127.0,60.0,73,69,99,62,67
2025-03-17 18:44:22.527,336.0,-853.0,2161.0,-128.0,210.0,88.0,72,73,101,62,65
2025-03-17 18:44:22.551,194.0,-445.0,1335.0,-23.0,283.0,124.0,67,77,101,62,67
2025-03-17 18:44:22.576,120.0,-319.0,1106.0,-49.0,269.0,87.0,66,80,101,62,67
2025-03-17 18:44:22.600,371.0,-413.0,948.0,-108.0,354.0,113.0,81,81,102,63,68
2025-03-17 18:44:22.625,-42.0,-584.0,464.0,-50.0,368.0,156.0,85,77,107,65,64
2025-03-17 18:44:22.649,-248.0,-70.0,198.0,27.0,296.0,169.0,84,80,105,66,61
2025-03-17 18:44:22.673,-348.0,225.0,217.0,38.0,275.0,106.0,82,64,104,65,59
2025-03-17 18:44:22.691,-500.0,337.0,0.0,-25.0,251.0,94.0,87,71,105,65,58
2025-03-17 18:44:22.708,-748.0,103.0,-364.0,24.0,154.0,91.0,85,74,105,67,56
2025-03-17 18:44:22.744,-552.0,396.0,-279.0,77.0,104.0,58.0,83,72,105,66,56
2025-03-17 18:44:22.768,-935.0,1022.0,-1179.0,60.0,16.0,-46.0,84,70,103,65,52
2025-03-17 18:44:22.793,-1753.0,1726.0,-3160.0,126.0,-390.0,-312.0,84,80,102,63,50
2025-03-17 18:44:22.817,341.0,2106.0,-3821.0,119.0,-1092.0,-496.0,84,77,100,64,52
2025-03-17 18:44:22.841,5437.0,-1769.0,510.0,62.0,-1312.0,-189.0,77,83,103,66,63
2025-03-17 18:44:22.866,4822.0,-1350.0,5701.0,27.0,-185.0,-30.0,82,88,105,68,76
2025-03-17 18:44:22.887,1654.0,-1608.0,3347.0,217.0,171.0,-52.0,66,85,104,69,80
2025-03-17 18:44:22.909,592.0,-493.0,2190.0,-186.0,226.0,49.0,84,84,103,69,78
2025-03-17 18:44:22.927,537.0,-518.0,2120.0,-267.0,281.0,103.0,87,81,107,69,64
2025-03-17 18:44:22.960,-38.0,-820.0,1164.0,-128.0,297.0,140.0,95,83,109,69,69
2025-03-17 18:44:22.983,75.0,-341.0,926.0,-140.0,295.0,134.0,94,68,111,69,65
2025-03-17 18:44:23.009,125.0,-468.0,642.0,-203.0,325.0,170.0,98,69,117,72,62
2025-03-17 18:44:23.034,33.0,-685.0,462.0,-136.0,332.0,209.0,95,51,121,75,60
2025-03-17 18:44:23.054,81.0,-469.0,217.0,15.0,335.0,220.0,105,59,130,78,60
2025-03-17 18:44:23.079,-375.0,-110.0,38.0,-35.0,305.0,261.0,101,68,138,81,59
2025-03-17 18:44:23.103,-295.0,22.0,-253.0,-19.0,259.0,298.0,95,83,140,72,58
2025-03-17 18:44:23.128,-451.0,196.0,-292.0,124.0,210.0,284.0,118,84,145,84,56
2025-03-17 18:44:23.151,-613.0,707.0,-698.0,223.0,165.0,220.0,114,83,144,79,50
2025-03-17 18:44:23.177,-928.0,1607.0,-1008.0,138.0,41.0,76.0,123,90,144,76,56
2025-03-17 18:44:23.202,-795.0,1912.0,-1435.0,36.0,-139.0,-205.0,125,87,145,78,53
2025-03-17 18:44:23.226,-1052.0,2239.0,-2066.0,25.0,-472.0,-611.0,99,90,146,74,38
2025-03-17 18:44:23.248,944.0,1703.0,-1935.0,-100.0,-1061.0,-845.0,80,93,145,61,50
2025-03-17 18:44:23.272,4463.0,-1462.0,-307.0,-344.0,-1174.0,-688.0,84,78,146,56,51
2025-03-17 18:44:23.290,5129.0,-4519.0,2876.0,-337.0,-377.0,-150.0,93,101,147,78,61
2025-03-17 18:44:23.321,2809.0,-4359.0,1581.0,278.0,168.0,114.0,94,86,146,75,67
2025-03-17 18:44:23.345,349.0,-1301.0,1524.0,93.0,249.0,138.0,86,78,147,86,65
2025-03-17 18:44:23.369,286.0,-1463.0,1068.0,-65.0,167.0,209.0,85,77,148,89,61
2025-03-17 18:44:23.390,-82.0,-989.0,976.0,26.0,183.0,231.0,96,100,147,83,61
2025-03-17 18:44:23.414,-139.0,-350.0,858.0,42.0,242.0,190.0,95,72,147,87,60
2025-03-17 18:44:23.439,-56.0,-456.0,458.0,43.0,248.0,186.0,95,84,146,88,61
2025-03-17 18:44:23.464,-70.0,-454.0,451.0,37.0,227.0,216.0,94,89,147,87,60
2025-03-17 18:44:23.489,34.0,-319.0,447.0,23.0,223.0,216.0,97,105,148,90,62
2025-03-17 18:44:23.513,-112.0,-482.0,447.0,83.0,245.0,208.0,99,109,148,87,59
2025-03-17 18:44:23.538,-405.0,-316.0,311.0,89.0,255.0,238.0,102,109,147,89,57
2025-03-17 18:44:23.558,-601.0,135.0,95.0,20.0,187.0,224.0,102,110,147,92,55
2025-03-17 18:44:23.583,-630.0,204.0,-39.0,6.0,143.0,161.0,98,112,148,90,55
2025-03-17 18:44:23.607,-628.0,745.0,-123.0,36.0,134.0,113.0,97,107,151,91,50
2025-03-17 18:44:23.633,-1073.0,1683.0,-1051.0,0.0,52.0,-63.0,91,110,147,88,50
2025-03-17 18:44:23.657,-1373.0,2120.0,-1855.0,81.0,-197.0,-395.0,94,112,147,87,49
2025-03-17 18:44:23.679,-513.0,2385.0,-1780.0,19.0,-639.0,-740.0,102,112,147,86,53
2025-03-17 18:44:23.705,2460.0,1979.0,-673.0,-318.0,-909.0,-953.0,100,106,147,89,60
2025-03-17 18:44:23.729,4185.0,-2053.0,298.0,-398.0,-793.0,-657.0,93,107,149,90,67
2025-03-17 18:44:23.751,5362.0,-5388.0,1289.0,37.0,-230.0,-66.0,104,78,148,86,76
2025-03-17 18:44:23.776,1903.0,-2609.0,949.0,246.0,274.0,132.0,104,77,148,87,81
2025-03-17 18:44:23.800,82.0,-1297.0,1267.0,-15.0,169.0,172.0,95,97,147,88,76
2025-03-17 18:44:23.824,101.0,-1252.0,1011.0,-69.0,85.0,173.0,101,79,146,89,76
2025-03-17 18:44:23.848,216.0,-1260.0,1071.0,-17.0,173.0,187.0,103,115,146,90,75
2025-03-17 18:44:23.873,251.0,-882.0,865.0,68.0,266.0,229.0,91,76,146,92,74
2025-03-17 18:44:23.895,259.0,-684.0,476.0,98.0,278.0,286.0,101,104,144,91,75
2025-03-17 18:44:23.919,54.0,-541.0,391.0,90.0,299.0,306.0,110,107,145,91,75
2025-03-17 18:44:23.944,56.0,-417.0,358.0,114.0,297.0,294.0,109,99,142,92,66
2025-03-17 18:44:23.968,-229.0,-255.0,93.0,110.0,255.0,293.0,105,84,133,87,56
2025-03-17 18:44:23.992,-414.0,-84.0,-93.0,126.0,233.0,290.0,114,76,121,81,57
2025-03-17 18:44:24.017,-454.0,17.0,-219.0,138.0,211.0,272.0,109,70,110,86,52
2025-03-17 18:44:24.041,-438.0,549.0,-940.0,136.0,154.0,221.0,98,60,100,73,52
2025-03-17 18:44:24.065,-1429.0,1312.0,-1883.0,227.0,-62.0,27.0,89,61,92,67,51
2025-03-17 18:44:24.086,-1155.0,2587.0,-3901.0,174.0,-856.0,-329.0,72,54,89,68,52
2025-03-17 18:44:24.112,2218.0,1151.0,-3178.0,-33.0,-1370.0,-327.0,77,41,91,71,61
2025-03-17 18:44:24.134,5502.0,-2453.0,1783.0,250.0,-1081.0,-50.0,77,54,95,70,73
2025-03-17 18:44:24.160,3704.0,801.0,7303.0,238.0,3.0,-99.0,78,39,97,72,83
2025-03-17 18:44:24.185,1195.0,-661.0,3089.0,111.0,170.0,-42.0,69,45,96,73,85
2025-03-17 18:44:24.209,798.0,-65.0,3203.0,-108.0,169.0,31.0,78,53,96,70,78
2025-03-17 18:44:24.230,348.0,8.0,2309.0,-183.0,268.0,31.0,79,62,97,69,74
2025-03-17 18:44:24.255,-44.0,-333.0,1494.0,-78.0,285.0,35.0,83,72,97,71,72
2025-03-17 18:44:24.280,-28.0,-122.0,1011.0,-92.0,311.0,48.0,74,64,97,73,73
2025-03-17 18:44:24.304,-62.0,-74.0,594.0,-149.0,310.0,68.0,85,62,100,71,70
2025-03-17 18:44:24.328,-162.0,-541.0,307.0,-45.0,259.0,63.0,84,68,99,73,67
2025-03-17 18:44:24.352,-109.0,-143.0,338.0,23.0,217.0,96.0,84,67,99,72,66
2025-03-17 18:44:24.376,-223.0,179.0,361.0,-47.0,206.0,80.0,86,67,101,72,67
2025-03-17 18:44:24.399,-461.0,-165.0,72.0,-37.0,189.0,65.0,85,81,101,71,64
2025-03-17 18:44:24.422,-474.0,-83.0,79.0,-5.0,113.0,87.0,88,78,100,73,61
2025-03-17 18:44:24.448,-351.0,119.0,387.0,-1.0,148.0,98.0,87,77,101,72,61
2025-03-17 18:44:24.472,-683.0,569.0,-195.0,11.0,146.0,92.0,81,75,100,71,58
2025-03-17 18:44:24.496,-1542.0,1234.0,-1737.0,85.0,-65.0,-64.0,74,81,100,74,53
2025-03-17 18:44:24.521,-1888.0,1714.0,-3624.0,175.0,-621.0,-290.0,85,82,100,71,53
2025-03-17 18:44:24.545,2153.0,1334.0,-3991.0,27.0,-1310.0,-310.0,83,79,102,74,55
2025-03-17 18:44:24.570,5171.0,-2169.0,938.0,29.0,-1244.0,-20.0,80,98,101,72,71
2025-03-17 18:44:24.588,4854.0,-1247.0,5807.0,99.0,-339.0,24.0,78,80,102,68,82
2025-03-17 18:44:24.615,2448.0,-1246.0,3186.0,52.0,171.0,-55.0,74,76,105,70,86
2025-03-17 18:44:24.640,1229.0,-825.0,2501.0,-46.0,237.0,29.0,87,89,106,69,85
2025-03-17 18:44:24.664,976.0,-730.0,1305.0,-232.0,290.0,98.0,94,79,110,69,79
2025-03-17 18:44:24.688,201.0,-486.0,1157.0,-181.0,281.0,132.0,103,104,117,72,81
2025-03-17 18:44:24.713,284.0,-325.0,887.0,-127.0,341.0,131.0,114,98,122,74,81
2025-03-17 18:44:24.738,378.0,-323.0,708.0,-115.0,407.0,118.0,117,80,126,69,79
2025-03-17 18:44:24.757,343.0,-377.0,778.0,-119.0,443.0,140.0,117,40,130,57,85
2025-03-17 18:44:24.783,163.0,-451.0,231.0,-81.0,454.0,163.0,118,53,134,49,81
2025-03-17 18:44:24.807,-161.0,-380.0,-42.0,-92.0,329.0,224.0,117,49,136,24,82
2025-03-17 18:44:24.832,-370.0,-119.0,318.0,-90.0,221.0,242.0,118,35,135,60,88
2025-03-17 18:44:24.857,-501.0,51.0,14.0,-81.0,199.0,197.0,121,39,133,62,86
2025-03-17 18:44:24.880,-703.0,468.0,-309.0,10.0,169.0,147.0,110,36,127,75,84
2025-03-17 18:44:24.905,-767.0,1354.0,-527.0,29.0,147.0,57.0,108,33,118,49,67
2025-03-17 18:44:24.927,-865.0,2305.0,-1664.0,73.0,42.0,-162.0,122,29,112,0,50
2025-03-17 18:44:24.952,-1393.0,3592.0,-2999.0,7.0,-249.0,-578.0,119,27,105,34,41
2025-03-17 18:44:24.976,772.0,2441.0,-2654.0,-76.0,-778.0,-941.0,115,23,101,65,46
2025-03-17 18:44:25.000,5717.0,1232.0,985.0,-308.0,-1087.0,-974.0,108,28,101,64,50
2025-03-17 18:44:25.025,5743.0,-5961.0,2642.0,-475.0,-371.0,-314.0,108,32,100,65,57
2025-03-17 18:44:25.049,2648.0,-5396.0,887.0,272.0,240.0,105.0,115,25,98,64,59
2025-03-17 18:44:25.072,605.0,-1576.0,962.0,65.0,202.0,134.0,115,24,100,66,62
2025-03-17 18:44:25.097,887.0,-2117.0,1160.0,-154.0,145.0,175.0,113,29,101,69,60
2025-03-17 18:44:25.119,314.0,-2063.0,534.0,-70.0,148.0,292.0,106,33,105,71,59
2025-03-17 18:44:25.144,471.0,-1202.0,473.0,-22.0,159.0,343.0,113,33,106,70,57
2025-03-17 18:44:25.168,398.0,-571.0,385.0,27.0,206.0,364.0,117,36,106,70,54
2025-03-17 18:44:25.193,68.0,-482.0,134.0,49.0,217.0,366.0,118,36,106,71,52
2025-03-17 18:44:25.217,-81.0,-473.0,-73.0,75.0,186.0,372.0,120,33,104,71,53
2025-03-17 18:44:25.241,-108.0,-170.0,-45.0,106.0,169.0,361.0,117,32,105,74,53
2025-03-17 18:44:25.263,-224.0,153.0,-17.0,125.0,161.0,356.0,122,33,104,74,53
2025-03-17 18:44:25.285,-269.0,446.0,-296.0,123.0,155.0,351.0,123,32,108,75,53
2025-03-17 18:44:25.311,-530.0,997.0,-413.0,165.0,126.0,245.0,125,33,107,74,51
2025-03-17 18:44:25.333,-636.0,1510.0,-635.0,95.0,47.0,111.0,126,34,108,75,50
2025-03-17 18:44:25.359,-575.0,2273.0,-1403.0,-5.0,-68.0,-115.0,128,36,108,74,49
2025-03-17 18:44:25.385,-701.0,2973.0,-2364.0,64.0,-241.0,-512.0,126,37,106,73,46
2025-03-17 18:44:25.410,-435.0,2810.0,-3184.0,21.0,-652.0,-905.0,113,32,105,72,48
2025-03-17 18:44:25.423,5097.0,2067.0,-708.0,-70.0,-1387.0,-1028.0,104,29,104,70,52
2025-03-17 18:44:25.456,7740.0,-7379.0,4337.0,-293.0,-574.0,-189.0,113,29,104,68,64
2025-03-17 18:44:25.480,3292.0,-4764.0,3777.0,477.0,395.0,35.0,110,37,103,68,77
2025-03-17 18:44:25.504,-135.0,319.0,1257.0,233.0,206.0,94.0,120,32,95,71,75
2025-03-17 18:44:25.529,209.0,-1356.0,615.0,-81.0,114.0,49.0,96,37,104,70,66
2025-03-17 18:44:25.553,-445.0,-915.0,957.0,178.0,112.0,67.0,110,26,105,71,67
2025-03-17 18:44:25.575,-609.0,-314.0,714.0,239.0,46.0,45.0,119,38,106,73,67
2025-03-17 18:44:25.598,-373.0,216.0,472.0,183.0,-25.0,-8.0,123,36,109,73,70
2025-03-17 18:44:25.623,-117.0,-431.0,779.0,149.0,-38.0,-14.0,117,38,107,74,71
2025-03-17 18:44:25.647,-41.0,-476.0,970.0,163.0,2.0,-29.0,126,36,106,73,71
2025-03-17 18:44:25.672,-213.0,-334.0,715.0,210.0,34.0,-43.0,109,36,106,73,71
2025-03-17 18:44:25.696,-362.0,-303.0,502.0,253.0,21.0,-63.0,127,28,108,73,71
2025-03-17 18:44:25.721,-198.0,-475.0,540.0,291.0,-20.0,-94.0,128,29,106,73,71
2025-03-17 18:44:25.745,-11.0,-776.0,661.0,303.0,-47.0,-103.0,131,33,105,73,72
2025-03-17 18:44:25.769,748.0,-1790.0,974.0,257.0,-57.0,-21.0,132,34,106,73,74
2025-03-17 18:44:25.789,2145.0,-2575.0,2196.0,102.0,60.0,230.0,129,35,107,73,78
2025-03-17 18:44:25.811,2877.0,-2489.0,2989.0,-126.0,285.0,597.0,138,34,107,71,78
2025-03-17 18:44:25.840,3208.0,-936.0,1692.0,-259.0,409.0,895.0,137,26,106,65,70
2025-03-17 18:44:25.864,2476.0,2522.0,2072.0,-320.0,272.0,893.0,140,34,105,67,63
2025-03-17 18:44:25.889,-636.0,4238.0,64.0,-75.0,253.0,331.0,139,37,105,72,57
2025-03-17 18:44:25.901,161.0,4156.0,600.0,164.0,174.0,77.0,140,32,106,70,50
2025-03-17 18:44:25.937,79.0,3271.0,744.0,89.0,101.0,-148.0,140,29,108,74,49
2025-03-17 18:44:25.956,-256.0,1552.0,408.0,98.0,-12.0,-283.0,140,37,109,74,49
2025-03-17 18:44:25.984,-137.0,270.0,609.0,90.0,-116.0,-310.0,142,39,109,73,51
2025-03-17 18:44:26.007,121.0,-75.0,944.0,103.0,-232.0,-287.0,141,33,104,73,58
2025-03-17 18:44:26.032,343.0,-140.0,957.0,97.0,-172.0,-291.0,141,37,103,70,67
2025-03-17 18:44:26.057,41.0,-86.0,708.0,226.0,-193.0,-318.0,137,36,103,69,68
2025-03-17 18:44:26.081,-107.0,290.0,798.0,180.0,-238.0,-242.0,139,33,104,69,68
2025-03-17 18:44:26.105,139.0,61.0,972.0,82.0,-297.0,-272.0,139,39,104,70,70
2025-03-17 18:44:26.127,222.0,21.0,908.0,186.0,-221.0,-244.0,140,40,105,70,73
2025-03-17 18:44:26.152,251.0,-123.0,1412.0,230.0,-141.0,-228.0,141,40,105,70,73
2025-03-17 18:44:26.176,126.0,-113.0,1527.0,89.0,-89.0,-142.0,141,40,104,67,73
2025-03-17 18:44:26.200,478.0,-794.0,1577.0,-9.0,-16.0,-58.0,141,39,104,71,74
2025-03-17 18:44:26.225,1247.0,-2118.0,1932.0,27.0,94.0,98.0,142,41,105,70,74
2025-03-17 18:44:26.249,2229.0,-2477.0,2733.0,-94.0,278.0,393.0,141,39,105,69,80
2025-03-17 18:44:26.275,2767.0,-1068.0,2065.0,-473.0,477.0,822.0,142,37,104,67,72
2025-03-17 18:44:26.295,2017.0,572.0,1259.0,-710.0,326.0,914.0,142,40,102,64,65
2025-03-17 18:44:26.320,1069.0,2382.0,1946.0,-232.0,343.0,644.0,142,35,104,68,65
2025-03-17 18:44:26.343,378.0,4879.0,2068.0,206.0,285.0,200.0,143,37,105,73,51
2025-03-17 18:44:26.356,252.0,3548.0,1098.0,-18.0,286.0,1.0,142,34,105,69,47
2025-03-17 18:44:26.393,-204.0,1775.0,1387.0,71.0,245.0,-139.0,141,37,108,72,47
2025-03-17 18:44:26.417,-319.0,-184.0,1557.0,-85.0,234.0,-183.0,135,31,109,73,49
2025-03-17 18:44:26.441,-996.0,-839.0,2417.0,-138.0,283.0,-115.0,136,38,110,70,49
2025-03-17 18:44:26.461,-582.0,-803.0,480.0,12.0,163.0,-73.0,128,36,105,71,53
2025-03-17 18:44:26.487,-549.0,-431.0,41.0,190.0,150.0,-57.0,118,36,109,72,58
2025-03-17 18:44:26.509,-854.0,-242.0,-109.0,157.0,116.0,-46.0,115,42,116,71,75
2025-03-17 18:44:26.533,-975.0,-453.0,213.0,160.0,118.0,-6.0,109,42,128,66,87
2025-03-17 18:44:26.561,-830.0,254.0,153.0,150.0,114.0,29.0,108,49,137,73,104
2025-03-17 18:44:26.585,-625.0,675.0,-137.0,132.0,124.0,6.0,107,55,138,91,105
2025-03-17 18:44:26.610,-510.0,1314.0,-647.0,115.0,83.0,-79.0,109,62,140,97,104
2025-03-17 18:44:26.634,-747.0,1750.0,-1664.0,15.0,-58.0,-302.0,110,66,141,97,100
2025-03-17 18:44:26.655,-492.0,1585.0,-1160.0,-59.0,-162.0,-592.0,110,74,142,96,103
2025-03-17 18:44:26.680,-38.0,1627.0,-2453.0,-14.0,-377.0,-850.0,110,78,142,96,108
2025-03-17 18:44:26.704,2139.0,1356.0,179.0,-312.0,-918.0,-916.0,115,44,144,96,113
2025-03-17 18:44:26.728,3664.0,-4193.0,1038.0,-584.0,-358.0,-991.0,121,42,144,97,115
2025-03-17 18:44:26.753,4321.0,-6030.0,1734.0,-90.0,-170.0,-90.0,118,16,145,99,118
2025-03-17 18:44:26.776,2324.0,-3974.0,976.0,284.0,287.0,281.0,120,70,146,101,119
2025-03-17 18:44:26.799,76.0,-1285.0,384.0,16.0,239.0,268.0,122,87,147,102,119
2025-03-17 18:44:26.817,-485.0,-932.0,811.0,-159.0,-38.0,195.0,126,84,146,102,118
2025-03-17 18:44:26.847,-133.0,-914.0,360.0,-145.0,-22.0,173.0,122,95,146,101,119
2025-03-17 18:44:26.872,63.0,-898.0,521.0,-27.0,79.0,222.0,126,94,144,103,120
2025-03-17 18:44:26.897,13.0,-866.0,191.0,37.0,121.0,294.0,125,89,145,105,120
2025-03-17 18:44:26.921,-103.0,-643.0,366.0,70.0,119.0,325.0,126,84,146,103,119
2025-03-17 18:44:26.945,47.0,-541.0,339.0,92.0,155.0,344.0,126,81,145,104,119
2025-03-17 18:44:26.962,46.0,-527.0,483.0,117.0,99.0,398.0,109,85,144,103,118
2025-03-17 18:44:26.991,-89.0,-122.0,35.0,146.0,111.0,392.0,106,77,144,103,115
2025-03-17 18:44:27.016,-284.0,28.0,-31.0,158.0,86.0,366.0,113,78,145,103,112
2025-03-17 18:44:27.041,-488.0,1336.0,-809.0,156.0,44.0,285.0,116,76,146,104,110
2025-03-17 18:44:27.065,-1494.0,2571.0,-2074.0,99.0,-38.0,-99.0,118,81,145,104,111
2025-03-17 18:44:27.089,-1498.0,3302.0,-1328.0,33.0,-151.0,-721.0,118,82,145,103,112
2025-03-17 18:44:27.113,-26.0,3406.0,-3646.0,-112.0,-430.0,-1062.0,108,80,144,104,117
2025-03-17 18:44:27.138,5072.0,-3961.0,-1749.0,-318.0,-854.0,-1041.0,121,60,145,104,117
2025-03-17 18:44:27.162,5102.0,-7159.0,409.0,245.0,-314.0,-43.0,121,92,145,105,121
2025-03-17 18:44:27.187,2151.0,-3501.0,2527.0,411.0,290.0,311.0,123,49,146,106,120
2025-03-17 18:44:27.208,-1159.0,238.0,1383.0,113.0,343.0,171.0,123,74,144,105,121
2025-03-17 18:44:27.230,-924.0,-989.0,-217.0,116.0,171.0,44.0,128,72,145,105,121
2025-03-17 18:44:27.254,-513.0,-976.0,543.0,161.0,51.0,149.0,128,82,143,106,121
2025-03-17 18:44:27.282,-343.0,-85.0,505.0,139.0,134.0,114.0,125,79,143,105,120
2025-03-17 18:44:27.302,-396.0,-221.0,623.0,144.0,95.0,18.0,126,78,144,104,119
2025-03-17 18:44:27.330,-392.0,-418.0,291.0,59.0,23.0,-4.0,127,81,144,102,117
2025-03-17 18:44:27.351,-221.0,-901.0,532.0,114.0,-19.0,27.0,126,75,142,86,108
2025-03-17 18:44:27.376,-22.0,-969.0,299.0,203.0,-27.0,54.0,119,82,143,61,113
2025-03-17 18:44:27.399,-330.0,-466.0,840.0,246.0,-23.0,49.0,118,58,143,0,82
2025-03-17 18:44:27.425,-436.0,-275.0,591.0,336.0,-56.0,42.0,101,47,142,1,104
2025-03-17 18:44:27.447,-545.0,46.0,741.0,413.0,-92.0,-2.0,107,40,139,55,99
2025-03-17 18:44:27.474,-397.0,78.0,489.0,412.0,-89.0,-61.0,127,44,132,81,97
2025-03-17 18:44:27.499,222.0,-849.0,1255.0,423.0,-32.0,-34.0,122,36,125,83,86
2025-03-17 18:44:27.523,1157.0,-1794.0,1666.0,291.0,29.0,144.0,116,35,117,72,78
2025-03-17 18:44:27.544,1710.0,-2170.0,3111.0,37.0,97.0,426.0,131,26,108,64,68
2025-03-17 18:44:27.568,1967.0,-541.0,1994.0,-256.0,297.0,725.0,134,30,106,64,62
2025-03-17 18:44:27.593,1334.0,944.0,1444.0,-396.0,192.0,751.0,137,32,108,66,53
2025-03-17 18:44:27.618,769.0,3024.0,1159.0,-209.0,216.0,472.0,139,32,109,71,52
2025-03-17 18:44:27.642,142.0,3777.0,216.0,136.0,173.0,109.0,138,30,109,75,47
2025-03-17 18:44:27.666,1.0,3794.0,437.0,61.0,56.0,-93.0,127,32,109,75,46
2025-03-17 18:44:27.690,185.0,2323.0,470.0,-34.0,25.0,-250.0,130,32,108,78,45
2025-03-17 18:44:27.712,405.0,163.0,1089.0,27.0,-21.0,-253.0,127,35,112,77,48
2025-03-17 18:44:27.737,171.0,-63.0,1228.0,45.0,10.0,-219.0,141,37,111,77,51
2025-03-17 18:44:27.761,-264.0,-30.0,1055.0,-14.0,-13.0,-227.0,140,37,112,76,55
2025-03-17 18:44:27.786,-200.0,-9.0,356.0,51.0,-89.0,-271.0,134,37,113,76,59
2025-03-17 18:44:27.810,-141.0,-437.0,1169.0,138.0,-127.0,-204.0,141,38,113,75,54
2025-03-17 18:44:27.834,-221.0,438.0,921.0,58.0,-64.0,-230.0,140,38,114,75,60
2025-03-17 18:44:27.859,-458.0,-106.0,682.0,44.0,-88.0,-239.0,145,39,113,76,61
2025-03-17 18:44:27.880,-429.0,-130.0,754.0,86.0,-161.0,-191.0,139,37,114,77,62
2025-03-17 18:44:27.904,-69.0,-312.0,885.0,80.0,-197.0,-173.0,140,39,114,75,62
2025-03-17 18:44:27.929,588.0,-1374.0,1566.0,66.0,-136.0,-107.0,139,37,114,76,65
2025-03-17 18:44:27.953,1419.0,-2567.0,2388.0,35.0,7.0,87.0,141,39,113,77,66
2025-03-17 18:44:27.978,2218.0,-2827.0,2870.0,-110.0,203.0,348.0,135,40,114,78,69
2025-03-17 18:44:28.000,2433.0,-2215.0,2046.0,-255.0,388.0,676.0,138,42,114,77,66
2025-03-17 18:44:28.026,1706.0,597.0,663.0,-319.0,247.0,846.0,141,37,112,78,56
2025-03-17 18:44:28.047,1522.0,3655.0,1012.0,-282.0,162.0,682.0,141,38,113,81,55
2025-03-17 18:44:28.072,700.0,4763.0,686.0,206.0,248.0,81.0,142,35,114,85,50
2025-03-17 18:44:28.096,-292.0,4226.0,467.0,91.0,186.0,-92.0,142,25,112,84,48
2025-03-17 18:44:28.121,-79.0,1441.0,1535.0,-25.0,118.0,-257.0,135,31,114,84,46
2025-03-17 18:44:28.131,171.0,-930.0,2080.0,25.0,210.0,-203.0,140,39,113,84,49
2025-03-17 18:44:28.170,-703.0,-1008.0,891.0,-102.0,318.0,-156.0,138,39,114,83,52
2025-03-17 18:44:28.194,-868.0,-718.0,251.0,14.0,181.0,-151.0,130,41,117,80,48
2025-03-17 18:44:28.216,-881.0,-838.0,-30.0,80.0,195.0,-98.0,136,41,121,82,53
2025-03-17 18:44:28.241,-676.0,-437.0,297.0,122.0,261.0,-64.0,139,42,123,83,50
2025-03-17 18:44:28.265,-897.0,-145.0,75.0,74.0,266.0,-16.0,130,47,136,84,41
2025-03-17 18:44:28.289,-677.0,123.0,-220.0,110.0,194.0,12.0,132,50,140,71,49
2025-03-17 18:44:28.314,-751.0,1030.0,-750.0,115.0,89.0,-10.0,130,68,142,55,48
2025-03-17 18:44:28.338,-605.0,2073.0,-1391.0,71.0,-66.0,-243.0,130,73,145,73,46
2025-03-17 18:44:28.362,-689.0,1702.0,-2275.0,62.0,-315.0,-530.0,115,81,146,72,42
2025-03-17 18:44:28.386,-117.0,1690.0,-2532.0,14.0,-699.0,-691.0,97,84,146,76,44
2025-03-17 18:44:28.408,2639.0,1456.0,-2006.0,-215.0,-1167.0,-726.0,78,68,145,73,45
2025-03-17 18:44:28.433,5351.0,-4471.0,989.0,-80.0,-956.0,-451.0,91,59,146,82,46
2025-03-17 18:44:28.457,4298.0,-4054.0,2495.0,145.0,-162.0,-5.0,90,46,146,74,58
2025-03-17 18:44:28.482,1790.0,-2289.0,2492.0,182.0,186.0,74.0,91,40,146,84,67
2025-03-17 18:44:28.507,397.0,-1277.0,1862.0,-81.0,220.0,138.0,95,77,147,73,61
2025-03-17 18:44:28.530,300.0,-1440.0,1431.0,-35.0,279.0,212.0,95,79,148,91,60
2025-03-17 18:44:28.552,-171.0,-610.0,906.0,44.0,300.0,246.0,100,101,147,90,60
2025-03-17 18:44:28.576,-215.0,-244.0,426.0,-15.0,289.0,253.0,102,77,147,92,57
2025-03-17 18:44:28.600,-92.0,-371.0,345.0,12.0,272.0,267.0,102,89,147,90,58
2025-03-17 18:44:28.624,-94.0,-335.0,315.0,90.0,244.0,280.0,102,78,147,93,57
2025-03-17 18:44:28.649,-268.0,-32.0,56.0,79.0,236.0,260.0,100,91,147,88,54
2025-03-17 18:44:28.674,-478.0,-114.0,12.0,44.0,159.0,191.0,105,90,147,89,45
2025-03-17 18:44:28.698,-507.0,-22.0,331.0,81.0,137.0,158.0,100,98,147,91,50
2025-03-17 18:44:28.720,-676.0,531.0,60.0,105.0,149.0,171.0,89,100,146,83,49
2025-03-17 18:44:28.744,-1511.0,1584.0,-1217.0,133.0,-12.0,43.0,99,96,150,83,51
2025-03-17 18:44:28.769,-1714.0,3367.0,-2140.0,116.0,-384.0,-399.0,99,98,147,82,46
2025-03-17 18:44:28.793,-26.0,3252.0,-1482.0,-128.0,-955.0,-829.0,96,96,147,90,48
2025-03-17 18:44:28.818,4509.0,-2688.0,67.0,-93.0,-1107.0,-628.0,96,56,150,92,56
2025-03-17 18:44:28.842,5052.0,-3693.0,3621.0,-15.0,-423.0,-35.0,96,75,150,89,71
2025-03-17 18:44:28.866,1958.0,-2126.0,2573.0,256.0,187.0,78.0,82,89,152,89,83
2025-03-17 18:44:28.884,-220.0,-38.0,1270.0,14.0,199.0,62.0,83,87,146,77,78
2025-03-17 18:44:28.901,-102.0,-562.0,1381.0,-2.0,268.0,40.0,89,98,142,92,64
2025-03-17 18:44:28.937,-510.0,-210.0,924.0,147.0,240.0,40.0,106,68,151,88,61
2025-03-17 18:44:28.955,-544.0,206.0,621.0,175.0,198.0,25.0,109,75,145,94,68
2025-03-17 18:44:28.985,-462.0,149.0,502.0,171.0,149.0,-7.0,117,84,145,89,69
2025-03-17 18:44:29.010,-137.0,-190.0,576.0,208.0,145.0,-11.0,122,87,144,91,72
2025-03-17 18:44:29.034,-282.0,-338.0,452.0,239.0,86.0,12.0,126,75,143,89,77
2025-03-17 18:44:29.056,-336.0,-111.0,787.0,243.0,68.0,6.0,130,63,140,86,73
2025-03-17 18:44:29.080,-487.0,-120.0,1037.0,225.0,2.0,22.0,131,34,136,84,77
2025-03-17 18:44:29.104,-454.0,-78.0,788.0,193.0,30.0,1.0,132,38,133,79,80
2025-03-17 18:44:29.129,-554.0,-27.0,568.0,151.0,-51.0,-31.0,136,39,127,79,80
2025-03-17 18:44:29.153,-223.0,-725.0,773.0,131.0,-148.0,14.0,135,42,124,79,80
2025-03-17 18:44:29.175,928.0,-1581.0,2189.0,5.0,-63.0,154.0,137,35,121,75,83
2025-03-17 18:44:29.202,1799.0,-2260.0,3029.0,-259.0,171.0,420.0,139,36,119,75,84
2025-03-17 18:44:29.224,2141.0,-2267.0,2119.0,-288.0,267.0,693.0,141,33,118,72,79
2025-03-17 18:44:29.249,1727.0,588.0,1602.0,-213.0,239.0,735.0,140,39,118,72,68
2025-03-17 18:44:29.272,901.0,3390.0,1158.0,-280.0,315.0,528.0,139,39,118,76,59
2025-03-17 18:44:29.297,442.0,4186.0,79.0,111.0,176.0,110.0,140,37,117,78,52
2025-03-17 18:44:29.321,254.0,3543.0,566.0,66.0,111.0,-31.0,142,42,120,77,49
2025-03-17 18:44:29.346,-63.0,2610.0,-196.0,81.0,14.0,-215.0,140,45,122,76,49
2025-03-17 18:44:29.370,-211.0,1047.0,527.0,150.0,-97.0,-285.0,142,45,122,79,50
2025-03-17 18:44:29.392,15.0,44.0,703.0,67.0,-181.0,-281.0,141,45,119,79,52
2025-03-17 18:44:29.416,124.0,-146.0,988.0,63.0,-142.0,-345.0,141,43,116,77,62
2025-03-17 18:44:29.441,25.0,-962.0,1107.0,24.0,-107.0,-220.0,142,41,119,71,67
2025-03-17 18:44:29.465,310.0,-1106.0,839.0,73.0,-55.0,-171.0,141,37,118,71,69
2025-03-17 18:44:29.490,-547.0,-247.0,1142.0,38.0,-39.0,-139.0,141,38,117,73,71
2025-03-17 18:44:29.514,-519.0,69.0,761.0,92.0,-91.0,-172.0,140,45,117,74,67
2025-03-17 18:44:29.538,-433.0,24.0,680.0,93.0,-147.0,-112.0,139,39,118,74,70
2025-03-17 18:44:29.562,-445.0,340.0,741.0,80.0,-173.0,-110.0,104,42,118,73,73
2025-03-17 18:44:29.583,-256.0,-146.0,906.0,47.0,-161.0,-103.0,126,46,117,75,74
2025-03-17 18:44:29.609,201.0,-1247.0,1107.0,120.0,-142.0,-33.0,127,44,118,74,77
2025-03-17 18:44:29.633,1103.0,-1921.0,2551.0,84.0,46.0,166.0,130,43,117,74,78
2025-03-17 18:44:29.658,1680.0,-2410.0,2580.0,-143.0,257.0,441.0,141,46,118,72,79
2025-03-17 18:44:29.682,1723.0,-1187.0,1925.0,-227.0,324.0,664.0,141,41,117,74,74
2025-03-17 18:44:29.707,1196.0,1165.0,657.0,-291.0,276.0,672.0,142,44,118,74,69
2025-03-17 18:44:29.731,236.0,4137.0,81.0,-160.0,202.0,329.0,142,45,119,78,63
2025-03-17 18:44:29.752,339.0,3829.0,708.0,73.0,138.0,53.0,143,43,119,84,51
2025-03-17 18:44:29.776,-131.0,2615.0,1390.0,46.0,83.0,-115.0,143,46,114,81,51
2025-03-17 18:44:29.800,88.0,1018.0,1603.0,11.0,140.0,-178.0,143,47,123,82,51
2025-03-17 18:44:29.824,-249.0,-280.0,1982.0,-96.0,189.0,-158.0,144,44,121,78,54
2025-03-17 18:44:29.840,-380.0,-487.0,1426.0,-176.0,304.0,-151.0,142,46,118,77,53
2025-03-17 18:44:29.872,-1044.0,-521.0,457.0,-76.0,206.0,-174.0,141,35,118,77,51
2025-03-17 18:44:29.899,-949.0,-918.0,154.0,-9.0,140.0,-92.0,138,42,120,66,57
2025-03-17 18:44:29.920,-568.0,-703.0,643.0,131.0,182.0,-36.0,122,44,122,76,64
2025-03-17 18:44:29.945,-605.0,-299.0,817.0,161.0,220.0,13.0,114,44,126,72,66
2025-03-17 18:44:29.969,-930.0,-75.0,409.0,100.0,224.0,28.0,122,34,124,75,65
2025-03-17 18:44:29.993,-574.0,398.0,26.0,59.0,166.0,48.0,127,35,118,66,66
2025-03-17 18:44:30.017,-490.0,862.0,-529.0,28.0,103.0,35.0,129,36,113,66,66
2025-03-17 18:44:30.034,-368.0,1410.0,-1090.0,20.0,50.0,-31.0,120,33,109,67,60
2025-03-17 18:44:30.066,-990.0,2708.0,-1927.0,59.0,20.0,-288.0,127,35,106,61,48
2025-03-17 18:44:30.091,-266.0,3821.0,-4267.0,-52.0,-372.0,-764.0,102,26,106,68,44
2025-03-17 18:44:30.112,1094.0,2706.0,-3244.0,-45.0,-1157.0,-1085.0,106,17,106,67,46
2025-03-17 18:44:30.131,8994.0,-3213.0,-363.0,-82.0,-1453.0,-695.0,97,27,103,61,53
2025-03-17 18:44:30.161,6795.0,-5453.0,3892.0,-180.0,-124.0,40.0,119,35,104,69,70
2025-03-17 18:44:30.186,399.0,-5637.0,-3417.0,218.0,405.0,38.0,89,28,103,70,75
2025-03-17 18:44:30.210,556.0,-661.0,1689.0,-14.0,372.0,157.0,109,25,102,66,68
2025-03-17 18:44:30.234,504.0,-1463.0,962.0,-79.0,280.0,196.0,103,31,108,71,63
2025-03-17 18:44:30.256,-250.0,-532.0,960.0,18.0,242.0,214.0,116,36,107,71,59
2025-03-17 18:44:30.278,-342.0,-310.0,727.0,12.0,204.0,182.0,118,36,108,69,59
2025-03-17 18:44:30.305,-120.0,-101.0,391.0,-113.0,201.0,186.0,121,35,110,69,59
2025-03-17 18:44:30.329,-227.0,-594.0,230.0,-69.0,205.0,224.0,122,38,109,68,58
2025-03-17 18:44:30.354,-22.0,-426.0,416.0,-25.0,194.0,259.0,123,35,108,69,54
2025-03-17 18:44:30.378,-83.0,-53.0,209.0,-1.0,211.0,292.0,116,33,107,67,52
2025-03-17 18:44:30.403,-415.0,114.0,228.0,0.0,192.0,308.0,125,35,109,72,50
2025-03-17 18:44:30.424,-425.0,-92.0,98.0,68.0,165.0,309.0,128,36,109,69,48
2025-03-17 18:44:30.434,-354.0,382.0,-189.0,125.0,138.0,346.0,128,36,111,69,47
2025-03-17 18:44:30.472,-875.0,2198.0,-617.0,129.0,97.0,259.0,123,38,110,70,45
2025-03-17 18:44:30.497,-950.0,3851.0,-1501.0,117.0,-21.0,-169.0,120,35,105,69,45
2025-03-17 18:44:30.522,-1199.0,4291.0,-2348.0,9.0,-303.0,-775.0,116,43,108,69,43
2025-03-17 18:44:30.546,1473.0,2510.0,-1692.0,-13.0,-817.0,-1094.0,124,33,110,71,46
2025-03-17 18:44:30.570,6230.0,-2914.0,269.0,27.0,-1125.0,-681.0,123,36,110,69,54
2025-03-17 18:44:30.595,6874.0,-5217.0,5462.0,308.0,69.0,80.0,117,29,108,69,67
2025-03-17 18:44:30.616,-246.0,-1243.0,1012.0,143.0,149.0,15.0,106,35,106,66,74
2025-03-17 18:44:30.640,333.0,-1202.0,2488.0,-174.0,169.0,68.0,106,32,107,70,71
2025-03-17 18:44:30.665,-272.0,-1269.0,1013.0,69.0,214.0,104.0,108,35,110,70,61
2025-03-17 18:44:30.689,-474.0,-326.0,268.0,84.0,184.0,111.0,119,38,110,70,63
2025-03-17 18:44:30.714,-546.0,-450.0,198.0,33.0,66.0,89.0,130,38,113,71,64
2025-03-17 18:44:30.739,-42.0,-959.0,467.0,100.0,8.0,108.0,129,34,113,70,68
2025-03-17 18:44:30.763,215.0,-948.0,828.0,172.0,73.0,198.0,130,32,114,69,68
2025-03-17 18:44:30.784,20.0,-249.0,728.0,163.0,93.0,261.0,132,34,111,64,67
2025-03-17 18:44:30.806,-90.0,-232.0,523.0,117.0,59.0,255.0,135,34,111,65,67
2025-03-17 18:44:30.833,-116.0,-374.0,1104.0,107.0,57.0,284.0,135,26,113,57,66
2025-03-17 18:44:30.857,-269.0,-10.0,527.0,132.0,2.0,278.0,137,34,114,65,69
2025-03-17 18:44:30.882,-302.0,611.0,632.0,129.0,-34.0,250.0,137,34,112,71,71
2025-03-17 18:44:30.906,-558.0,1390.0,501.0,94.0,-56.0,199.0,139,35,112,73,86
2025-03-17 18:44:30.931,-1129.0,2827.0,-325.0,74.0,-171.0,-45.0,137,35,111,74,81
2025-03-17 18:44:30.955,-1207.0,3801.0,-540.0,155.0,-310.0,-307.0,123,32,111,66,102
2025-03-17 18:44:30.977,-695.0,3353.0,-828.0,259.0,-490.0,-468.0,130,32,112,59,107
2025-03-17 18:44:31.000,1268.0,1679.0,433.0,289.0,-556.0,-452.0,129,37,114,64,111
2025-03-17 18:44:31.026,2418.0,147.0,2487.0,213.0,-467.0,-296.0,136,32,116,68,113
2025-03-17 18:44:31.050,2583.0,-488.0,3346.0,-42.0,-126.0,-160.0,132,31,116,75,119
2025-03-17 18:44:31.075,2058.0,-1416.0,2051.0,-124.0,77.0,-34.0,139,35,116,74,124
2025-03-17 18:44:31.097,1167.0,-1227.0,1720.0,-77.0,205.0,49.0,108,38,117,72,118
2025-03-17 18:44:31.120,375.0,-453.0,1220.0,-108.0,178.0,110.0,135,34,118,69,120
2025-03-17 18:44:31.144,226.0,-39.0,-1287.0,-22.0,282.0,143.0,117,39,118,68,123
2025-03-17 18:44:31.168,-155.0,633.0,861.0,-115.0,146.0,189.0,130,36,117,63,124
2025-03-17 18:44:31.193,-195.0,692.0,841.0,-83.0,65.0,189.0,137,37,117,60,121
2025-03-17 18:44:31.217,-148.0,749.0,690.0,-53.0,143.0,157.0,136,36,118,68,120
2025-03-17 18:44:31.241,-264.0,856.0,494.0,-26.0,178.0,148.0,136,35,116,75,120
2025-03-17 18:44:31.266,-209.0,924.0,502.0,41.0,188.0,112.0,137,40,118,73,120
2025-03-17 18:44:31.288,-261.0,953.0,463.0,-32.0,157.0,91.0,131,40,117,75,119
2025-03-17 18:44:31.313,-171.0,808.0,608.0,-26.0,141.0,94.0,135,37,118,77,119
2025-03-17 18:44:31.337,-396.0,1192.0,339.0,-17.0,89.0,62.0,133,40,119,74,116
2025-03-17 18:44:31.361,-679.0,2414.0,129.0,41.0,95.0,-85.0,130,38,116,74,113
2025-03-17 18:44:31.374,-1671.0,3304.0,-1256.0,57.0,-50.0,-362.0,122,40,116,72,119
2025-03-17 18:44:31.411,-1658.0,2793.0,-1952.0,50.0,-497.0,-408.0,120,30,113,66,124
2025-03-17 18:44:31.434,1252.0,981.0,-707.0,-72.0,-737.0,-381.0,120,29,114,66,120
2025-03-17 18:44:31.459,3642.0,-2036.0,3071.0,76.0,-448.0,-125.0,126,28,112,73,123
2025-03-17 18:44:31.481,3095.0,-1065.0,2114.0,-21.0,31.0,-110.0,134,37,111,72,123
2025-03-17 18:44:31.505,1322.0,-1771.0,2226.0,-102.0,148.0,5.0,132,34,110,73,122
2025-03-17 18:44:31.528,617.0,-1324.0,1291.0,-102.0,124.0,86.0,122,36,113,80,123
2025-03-17 18:44:31.554,231.0,-536.0,936.0,-69.0,197.0,119.0,119,35,115,80,121
2025-03-17 18:44:31.578,-242.0,337.0,1169.0,-99.0,246.0,135.0,130,39,117,80,123
2025-03-17 18:44:31.602,-314.0,329.0,785.0,-100.0,197.0,157.0,133,35,118,82,124
2025-03-17 18:44:31.626,-93.0,545.0,1279.0,-155.0,238.0,147.0,137,32,119,82,120
2025-03-17 18:44:31.649,-11.0,411.0,1160.0,-129.0,303.0,148.0,127,24,123,74,116
2025-03-17 18:44:31.673,-54.0,423.0,1363.0,-153.0,409.0,167.0,134,26,124,87,122
2025-03-17 18:44:31.683,19.0,290.0,362.0,-125.0,351.0,171.0,134,24,130,80,119
2025-03-17 18:44:31.721,-522.0,350.0,57.0,-96.0,318.0,187.0,126,35,135,43,119
2025-03-17 18:44:31.746,-495.0,378.0,-81.0,-42.0,238.0,182.0,119,42,139,95,119
2025-03-17 18:44:31.770,-662.0,328.0,-467.0,-9.0,168.0,149.0,119,51,140,95,121
2025-03-17 18:44:31.795,-863.0,1216.0,-1176.0,15.0,71.0,60.0,103,51,141,98,122
2025-03-17 18:44:31.820,-1280.0,2313.0,-2243.0,-65.0,-161.0,-218.0,109,58,141,101,125
2025-03-17 18:44:31.841,-675.0,2741.0,-2310.0,-246.0,-402.0,-613.0,98,63,143,103,129
2025-03-17 18:44:31.865,554.0,1795.0,-1162.0,-348.0,-444.0,-945.0,101,73,143,101,118
2025-03-17 18:44:31.883,3609.0,283.0,-647.0,-558.0,-650.0,-984.0,112,59,143,104,115
2025-03-17 18:44:31.914,4702.0,-4332.0,-600.0,-432.0,-418.0,-646.0,111,50,142,102,123
2025-03-17 18:44:31.938,4075.0,-6330.0,1601.0,168.0,-7.0,203.0,104,60,144,104,128
2025-03-17 18:44:31.963,1027.0,-1558.0,758.0,388.0,297.0,366.0,112,71,147,105,129
2025-03-17 18:44:31.984,-167.0,-1286.0,849.0,41.0,263.0,318.0,109,73,145,103,128
2025-03-17 18:44:32.009,-228.0,-1015.0,270.0,134.0,129.0,321.0,112,74,144,104,129
2025-03-17 18:44:32.022,-239.0,-268.0,731.0,83.0,175.0,318.0,97,86,144,105,129
2025-03-17 18:44:32.058,-453.0,156.0,227.0,47.0,139.0,304.0,101,80,148,105,129
2025-03-17 18:44:32.081,-193.0,117.0,32.0,71.0,157.0,286.0,99,83,143,103,133
2025-03-17 18:44:32.107,-369.0,-117.0,-48.0,130.0,85.0,276.0,112,81,145,105,128
2025-03-17 18:44:32.131,-469.0,182.0,-15.0,124.0,116.0,240.0,111,76,147,98,128
2025-03-17 18:44:32.143,-580.0,459.0,-1.0,106.0,78.0,221.0,108,80,145,105,126
2025-03-17 18:44:32.177,-520.0,1396.0,92.0,132.0,34.0,140.0,110,74,145,106,130
2025-03-17 18:44:32.200,-772.0,2666.0,-734.0,9.0,7.0,-172.0,104,85,143,105,128
2025-03-17 18:44:32.226,-1331.0,2718.0,-1545.0,-138.0,-231.0,-576.0,106,86,144,107,130
2025-03-17 18:44:32.251,-305.0,1974.0,-957.0,-129.0,-359.0,-970.0,111,91,143,106,128
2025-03-17 18:44:32.273,3815.0,240.0,2103.0,-596.0,-613.0,-1108.0,103,69,145,106,129
2025-03-17 18:44:32.300,3812.0,-5903.0,-526.0,-169.0,-332.0,-409.0,107,74,145,107,127
2025-03-17 18:44:32.324,3589.0,-4693.0,753.0,237.0,60.0,286.0,100,79,146,107,129
2025-03-17 18:44:32.348,-198.0,-543.0,261.0,169.0,286.0,265.0,105,83,145,109,130
2025-03-17 18:44:32.373,-613.0,-872.0,-435.0,-32.0,122.0,101.0,94,88,146,106,134
2025-03-17 18:44:32.398,-540.0,-863.0,725.0,80.0,7.0,112.0,113,84,144,108,132
2025-03-17 18:44:32.421,-175.0,-1009.0,416.0,120.0,17.0,181.0,108,97,144,107,130
2025-03-17 18:44:32.443,-71.0,-656.0,755.0,182.0,87.0,205.0,113,84,143,106,130
2025-03-17 18:44:32.467,-156.0,-664.0,480.0,159.0,127.0,223.0,114,76,143,106,130
2025-03-17 18:44:32.492,-11.0,-729.0,335.0,210.0,77.0,240.0,113,63,143,103,126
2025-03-17 18:44:32.515,-20.0,-386.0,308.0,192.0,79.0,242.0,109,42,137,92,128
2025-03-17 18:44:32.541,-120.0,-574.0,435.0,67.0,-2.0,258.0,106,37,133,0,126
2025-03-17 18:44:32.564,-421.0,-646.0,296.0,133.0,0.0,300.0,110,31,130,53,124
2025-03-17 18:44:32.589,-194.0,-124.0,237.0,164.0,-47.0,314.0,111,34,126,50,124
2025-03-17 18:44:32.611,135.0,688.0,589.0,182.0,-6.0,257.0,112,33,120,50,125
2025-03-17 18:44:32.635,-765.0,1155.0,522.0,211.0,20.0,175.0,115,32,119,57,129
2025-03-17 18:44:32.646,-1333.0,2829.0,-504.0,322.0,-67.0,0.0,109,28,120,60,129
2025-03-17 18:44:32.685,-1950.0,4087.0,-1366.0,268.0,-296.0,-248.0,106,19,120,61,129
2025-03-17 18:44:32.700,-1004.0,3625.0,-941.0,122.0,-565.0,-423.0,107,33,121,75,129
2025-03-17 18:44:32.732,1531.0,197.0,988.0,138.0,-703.0,-411.0,111,27,123,82,130
2025-03-17 18:44:32.757,2964.0,-1053.0,2958.0,196.0,-333.0,-244.0,121,32,125,83,130
2025-03-17 18:44:32.782,2149.0,-1424.0,2932.0,-15.0,-44.0,-99.0,123,26,122,86,131
2025-03-17 18:44:32.804,1545.0,-1878.0,1910.0,-103.0,39.0,38.0,125,32,122,86,130
2025-03-17 18:44:32.828,753.0,-1332.0,1381.0,-49.0,118.0,86.0,114,26,123,84,124
2025-03-17 18:44:32.852,-212.0,738.0,1807.0,-46.0,143.0,138.0,122,37,124,84,130
2025-03-17 18:44:32.877,-224.0,146.0,698.0,-53.0,56.0,167.0,120,39,125,82,127
2025-03-17 18:44:32.902,-21.0,279.0,1072.0,-34.0,57.0,178.0,124,41,125,84,130
2025-03-17 18:44:32.925,-55.0,474.0,774.0,-16.0,113.0,173.0,126,40,126,83,129
2025-03-17 18:44:32.945,-286.0,795.0,714.0,5.0,131.0,135.0,125,35,125,84,134
2025-03-17 18:44:32.972,-497.0,1051.0,505.0,1.0,100.0,107.0,124,36,126,84,131
2025-03-17 18:44:32.996,-377.0,894.0,547.0,-55.0,77.0,96.0,124,35,124,86,132
2025-03-17 18:44:33.020,-446.0,1021.0,585.0,12.0,100.0,62.0,124,39,125,80,132
2025-03-17 18:44:33.045,-773.0,1542.0,206.0,10.0,47.0,17.0,120,30,123,82,131
2025-03-17 18:44:33.069,-1146.0,2517.0,-88.0,-31.0,19.0,-75.0,118,32,125,83,130
2025-03-17 18:44:33.094,-1537.0,2749.0,-657.0,23.0,15.0,-210.0,111,31,125,86,124
2025-03-17 18:44:33.118,-1651.0,2759.0,-1250.0,160.0,-158.0,-362.0,109,34,125,85,128
2025-03-17 18:44:33.139,1058.0,1071.0,898.0,33.0,-537.0,-415.0,110,39,125,84,131
2025-03-17 18:44:33.162,3821.0,-2126.0,4115.0,-247.0,-353.0,-145.0,116,33,125,85,135
2025-03-17 18:44:33.188,3166.0,-3805.0,3202.0,-194.0,59.0,-1.0,112,31,123,87,131
2025-03-17 18:44:33.213,284.0,-1310.0,1280.0,-54.0,185.0,75.0,109,35,123,85,131
2025-03-17 18:44:33.237,-447.0,-625.0,536.0,-141.0,108.0,120.0,106,39,129,86,129
2025-03-17 18:44:33.260,-689.0,57.0,1076.0,-67.0,50.0,96.0,110,40,124,90,125
2025-03-17 18:44:33.285,-143.0,61.0,1307.0,-101.0,93.0,96.0,116,41,123,84,130
2025-03-17 18:44:33.307,26.0,59.0,1678.0,-117.0,186.0,109.0,123,37,126,89,131
2025-03-17 18:44:33.332,-227.0,157.0,1329.0,-99.0,200.0,99.0,125,40,125,88,129
2025-03-17 18:44:33.356,-143.0,21.0,1085.0,-135.0,210.0,106.0,129,31,126,86,128
2025-03-17 18:44:33.380,-203.0,-141.0,1008.0,-117.0,262.0,130.0,130,32,123,86,127
2025-03-17 18:44:33.404,-144.0,-112.0,539.0,-121.0,249.0,145.0,134,41,126,69,123
2025-03-17 18:44:33.429,-503.0,37.0,408.0,-83.0,228.0,172.0,135,33,130,72,108
2025-03-17 18:44:33.452,-644.0,172.0,258.0,-27.0,265.0,183.0,136,42,137,54,90
2025-03-17 18:44:33.475,-521.0,638.0,51.0,-21.0,275.0,180.0,135,53,140,0,80
2025-03-17 18:44:33.500,-870.0,1478.0,-1113.0,-106.0,158.0,104.0,132,65,141,44,72
2025-03-17 18:44:33.513,-1289.0,1999.0,-2296.0,9.0,-103.0,-176.0,119,69,143,28,71
2025-03-17 18:44:33.548,-1026.0,2556.0,-2507.0,11.0,-402.0,-526.0,109,83,142,0,69
2025-03-17 18:44:33.567,304.0,1717.0,-2525.0,-156.0,-927.0,-731.0,121,85,145,0,55
2025-03-17 18:44:33.598,3404.0,-841.0,-1043.0,-358.0,-1172.0,-636.0,91,62,146,0,58
2025-03-17 18:44:33.622,4781.0,-3353.0,1260.0,-334.0,-760.0,-223.0,104,70,146,0,60
2025-03-17 18:44:33.643,4454.0,-4891.0,2975.0,51.0,59.0,59.0,107,40,146,48,61
2025-03-17 18:44:33.668,1022.0,-2041.0,1347.0,289.0,348.0,98.0,108,73,146,49,61
2025-03-17 18:44:33.690,169.0,-1065.0,1311.0,-11.0,223.0,196.0,97,73,147,41,63
2025-03-17 18:44:33.707,-109.0,-823.0,1147.0,-2.0,180.0,169.0,103,78,147,58,61
2025-03-17 18:44:33.738,-44.0,-673.0,965.0,51.0,254.0,165.0,101,86,146,62,62
2025-03-17 18:44:33.765,-206.0,-646.0,71.0,123.0,269.0,174.0,101,48,146,66,62
2025-03-17 18:44:33.787,-39.0,-178.0,530.0,155.0,302.0,163.0,107,97,146,66,63
2025-03-17 18:44:33.811,-125.0,-119.0,352.0,127.0,281.0,156.0,109,88,146,66,64
2025-03-17 18:44:33.836,-152.0,-43.0,392.0,80.0,242.0,159.0,108,97,146,56,66
2025-03-17 18:44:33.860,-137.0,-141.0,461.0,39.0,219.0,166.0,101,86,147,65,63
2025-03-17 18:44:33.884,-415.0,21.0,199.0,30.0,225.0,195.0,97,94,147,47,64
2025-03-17 18:44:33.908,-879.0,1092.0,-572.0,-7.0,198.0,178.0,102,91,146,54,63
2025-03-17 18:44:33.933,-1691.0,2054.0,-2366.0,62.0,-57.0,-103.0,102,78,143,56,62
2025-03-17 18:44:33.958,-1399.0,3551.0,-2445.0,5.0,-493.0,-495.0,100,81,145,74,58
2025-03-17 18:44:33.982,867.0,1618.0,-1019.0,-240.0,-863.0,-802.0,109,92,145,71,59
2025-03-17 18:44:34.004,4411.0,-3445.0,1197.0,-151.0,-819.0,-439.0,102,70,147,72,64
2025-03-17 18:44:34.016,4201.0,-3909.0,3007.0,121.0,-68.0,2.0,106,61,146,62,70
2025-03-17 18:44:34.052,1065.0,-1777.0,1560.0,141.0,117.0,22.0,99,75,148,71,68
2025-03-17 18:44:34.077,283.0,-1480.0,1444.0,-23.0,114.0,86.0,107,108,149,77,73
2025-03-17 18:44:34.101,22.0,-1206.0,1263.0,91.0,117.0,93.0,105,84,147,77,73
2025-03-17 18:44:34.113,-8.0,-844.0,984.0,134.0,119.0,120.0,115,103,147,75,77
2025-03-17 18:44:34.147,-35.0,-732.0,660.0,111.0,128.0,131.0,125,83,145,62,77
2025-03-17 18:44:34.169,112.0,-672.0,402.0,134.0,114.0,161.0,128,91,143,56,79
2025-03-17 18:44:34.196,200.0,-524.0,312.0,188.0,92.0,178.0,131,59,143,51,83
2025-03-17 18:44:34.221,-44.0,-288.0,480.0,183.0,86.0,207.0,131,44,140,53,83
2025-03-17 18:44:34.244,-242.0,-234.0,482.0,135.0,49.0,223.0,133,34,134,57,93
2025-03-17 18:44:34.269,-162.0,95.0,665.0,83.0,17.0,244.0,133,29,129,49,97
2025-03-17 18:44:34.288,-4.0,327.0,686.0,104.0,32.0,213.0,133,22,127,57,95
2025-03-17 18:44:34.313,-80.0,255.0,768.0,83.0,52.0,180.0,133,27,122,71,102
2025-03-17 18:44:34.339,-505.0,976.0,321.0,111.0,56.0,143.0,134,27,117,65,108
2025-03-17 18:44:34.363,-952.0,2453.0,70.0,90.0,-45.0,5.0,132,33,116,66,118
2025-03-17 18:44:34.379,-1351.0,3395.0,-73.0,169.0,-111.0,-252.0,124,34,117,68,124
2025-03-17 18:44:34.413,-1419.0,3310.0,-149.0,264.0,-237.0,-407.0,120,29,117,74,126
2025-03-17 18:44:34.435,587.0,1902.0,921.0,186.0,-408.0,-426.0,128,36,119,71,126
2025-03-17 18:44:34.460,2369.0,-190.0,3061.0,-37.0,-172.0,-282.0,131,30,121,71,127
2025-03-17 18:44:34.487,2444.0,-2675.0,2579.0,-116.0,10.0,-160.0,130,34,120,74,127
2025-03-17 18:44:34.507,1503.0,-2518.0,1983.0,-30.0,81.0,-19.0,116,30,121,76,127
2025-03-17 18:44:34.532,441.0,-2258.0,1654.0,-136.0,79.0,81.0,128,34,122,74,128
2025-03-17 18:44:34.557,-108.0,-646.0,266.0,-18.0,90.0,125.0,123,36,124,74,130
2025-03-17 18:44:34.581,-263.0,6.0,936.0,-9.0,81.0,151.0,129,39,123,61,129
2025-03-17 18:44:34.606,-344.0,544.0,957.0,-20.0,93.0,151.0,134,38,125,75,128
2025-03-17 18:44:34.629,-249.0,556.0,811.0,-18.0,113.0,151.0,137,38,126,79,131
2025-03-17 18:44:34.651,-361.0,688.0,797.0,31.0,119.0,113.0,138,40,126,77,130
2025-03-17 18:44:34.676,-361.0,751.0,618.0,18.0,127.0,110.0,128,38,126,76,130
2025-03-17 18:44:34.699,-434.0,912.0,631.0,20.0,120.0,77.0,133,38,125,77,130
2025-03-17 18:44:34.724,-608.0,1105.0,335.0,7.0,116.0,54.0,132,39,126,75,129
2025-03-17 18:44:34.749,-952.0,1969.0,-182.0,8.0,115.0,-9.0,133,39,127,74,129
2025-03-17 18:44:34.773,-1450.0,2484.0,-1127.0,46.0,27.0,-156.0,137,38,124,77,129
2025-03-17 18:44:34.798,-1827.0,2879.0,-1539.0,97.0,-230.0,-326.0,129,40,125,69,130
2025-03-17 18:44:34.822,-236.0,1745.0,-551.0,-4.0,-538.0,-429.0,127,30,127,79,130
2025-03-17 18:44:34.840,3224.0,-1696.0,2343.0,-80.0,-628.0,-230.0,139,39,130,78,129
2025-03-17 18:44:34.868,3680.0,-2629.0,4219.0,-136.0,-38.0,-73.0,139,35,127,81,130
2025-03-17 18:44:34.892,1686.0,-2481.0,2676.0,22.0,232.0,9.0,130,40,127,80,131
2025-03-17 18:44:34.914,60.0,-1200.0,1587.0,-92.0,156.0,106.0,136,42,128,76,131
2025-03-17 18:44:34.938,-104.0,-923.0,680.0,-103.0,119.0,154.0,132,41,128,79,131
2025-03-17 18:44:34.963,-292.0,-55.0,1400.0,-60.0,151.0,160.0,138,43,127,70,130
2025-03-17 18:44:34.990,-544.0,143.0,1075.0,-103.0,209.0,154.0,140,45,128,78,130
2025-03-17 18:44:35.010,-413.0,511.0,1291.0,-175.0,242.0,144.0,136,36,128,80,128
2025-03-17 18:44:35.036,-222.0,303.0,1044.0,-101.0,278.0,141.0,127,39,126,80,127
2025-03-17 18:44:35.060,-203.0,427.0,979.0,-147.0,327.0,176.0,136,34,126,83,107
2025-03-17 18:44:35.083,-545.0,422.0,468.0,-141.0,334.0,158.0,138,38,127,84,102
2025-03-17 18:44:35.109,-565.0,408.0,765.0,-116.0,341.0,115.0,138,43,126,74,102
2025-03-17 18:44:35.132,-394.0,441.0,287.0,-108.0,341.0,99.0,139,32,123,32,80
2025-03-17 18:44:35.156,-480.0,415.0,-214.0,-95.0,298.0,126.0,138,38,120,40,79
2025-03-17 18:44:35.179,-637.0,1087.0,-1160.0,-74.0,179.0,124.0,137,43,118,39,71
2025-03-17 18:44:35.203,-450.0,3125.0,-2856.0,-7.0,63.0,-131.0,118,40,113,29,45
2025-03-17 18:44:35.228,-636.0,3671.0,-4296.0,-34.0,-349.0,-701.0,111,32,109,32,40
2025-03-17 18:44:35.253,1081.0,3485.0,-4026.0,-130.0,-927.0,-1043.0,105,21,107,19,34
2025-03-17 18:44:35.278,7981.0,2185.0,-2046.0,-522.0,-1464.0,-1160.0,100,20,109,43,43
2025-03-17 18:44:35.302,8994.0,-8306.0,2619.0,-732.0,-446.0,-372.0,97,35,108,36,37
2025-03-17 18:44:35.312,3677.0,-7088.0,-1251.0,533.0,425.0,179.0,89,21,103,50,46
2025-03-17 18:44:35.350,592.0,-1315.0,564.0,45.0,128.0,302.0,98,31,101,61,47
2025-03-17 18:44:35.374,662.0,-2094.0,2169.0,17.0,167.0,314.0,98,31,104,59,48
2025-03-17 18:44:35.396,68.0,-1249.0,639.0,105.0,188.0,396.0,90,34,107,66,49
2025-03-17 18:44:35.421,39.0,-202.0,416.0,106.0,219.0,340.0,103,31,109,66,49
2025-03-17 18:44:35.445,-440.0,-36.0,-115.0,46.0,191.0,283.0,104,42,111,68,49
2025-03-17 18:44:35.469,-185.0,24.0,503.0,1.0,219.0,241.0,105,33,110,72,51
2025-03-17 18:44:35.494,-238.0,-192.0,192.0,19.0,190.0,253.0,103,31,110,70,50
2025-03-17 18:44:35.519,-262.0,18.0,190.0,30.0,195.0,279.0,107,37,110,69,50
2025-03-17 18:44:35.537,-132.0,32.0,428.0,62.0,206.0,307.0,109,37,111,70,50
2025-03-17 18:44:35.562,-117.0,340.0,-292.0,136.0,214.0,330.0,96,37,111,72,54
2025-03-17 18:44:35.586,-296.0,1146.0,-1122.0,198.0,150.0,341.0,108,39,111,69,47
2025-03-17 18:44:35.613,-875.0,3029.0,-2378.0,220.0,-5.0,3.0,110,39,110,69,41
2025-03-17 18:44:35.634,-1022.0,4502.0,-3136.0,19.0,-364.0,-568.0,105,38,106,73,42
2025-03-17 18:44:35.662,747.0,3249.0,-3388.0,-92.0,-915.0,-988.0,100,40,107,71,42
2025-03-17 18:44:35.687,6572.0,-1622.0,-678.0,-30.0,-1266.0,-814.0,100,28,111,67,48
2025-03-17 18:44:35.711,7236.0,-6534.0,5968.0,180.0,6.0,-14.0,104,35,110,64,46
2025-03-17 18:44:35.732,158.0,-2251.0,2316.0,268.0,265.0,67.0,93,31,106,67,48
2025-03-17 18:44:35.757,-387.0,-1121.0,2472.0,-170.0,92.0,31.0,99,39,107,68,55
2025-03-17 18:44:35.781,-637.0,-772.0,900.0,30.0,106.0,58.0,95,34,107,68,52
2025-03-17 18:44:35.806,-965.0,111.0,514.0,-21.0,53.0,2.0,100,38,107,67,55
2025-03-17 18:44:35.830,-481.0,-245.0,775.0,-78.0,-22.0,-48.0,102,37,109,70,56
2025-03-17 18:44:35.855,38.0,-888.0,729.0,-30.0,-17.0,-30.0,103,39,110,69,56
2025-03-17 18:44:35.876,139.0,-858.0,887.0,11.0,40.0,7.0,102,43,108,69,57
2025-03-17 18:44:35.901,-190.0,-574.0,651.0,18.0,22.0,17.0,101,39,107,69,56
2025-03-17 18:44:35.925,-263.0,-482.0,666.0,-8.0,1.0,3.0,103,41,107,69,57
2025-03-17 18:44:35.949,-267.0,-529.0,750.0,-6.0,-5.0,-6.0,104,41,108,68,56
2025-03-17 18:44:35.973,-237.0,-610.0,862.0,6.0,3.0,-4.0,104,42,108,69,57
2025-03-17 18:44:35.998,-271.0,-703.0,809.0,2.0,10.0,0.0,105,42,113,68,57
2025-03-17 18:44:36.022,-280.0,-618.0,789.0,0.0,1.0,3.0,104,39,108,68,60
2025-03-17 18:44:36.047,-285.0,-579.0,761.0,-11.0,0.0,-3.0,104,43,109,69,57
2025-03-17 18:44:36.068,-241.0,-572.0,752.0,-15.0,1.0,-9.0,105,44,109,69,57
2025-03-17 18:44:36.089,-223.0,-656.0,701.0,-13.0,-8.0,-9.0,105,43,109,69,58
2025-03-17 18:44:36.117,-217.0,-655.0,747.0,0.0,-4.0,-5.0,105,43,110,69,57
2025-03-17 18:44:36.138,-170.0,-613.0,810.0,4.0,7.0,-2.0,105,40,109,69,61
2025-03-17 18:44:36.166,-237.0,-642.0,754.0,5.0,7.0,0.0,105,43,109,69,56
2025-03-17 18:44:36.190,-279.0,-632.0,730.0,2.0,1.0,-1.0,105,45,110,68,57
2025-03-17 18:44:36.215,-277.0,-590.0,794.0,-4.0,-2.0,-5.0,105,43,109,70,57
2025-03-17 18:44:36.236,-229.0,-636.0,746.0,-16.0,-3.0,-11.0,105,43,109,71,57
2025-03-17 18:44:36.260,-202.0,-778.0,763.0,-8.0,3.0,-1.0,106,43,107,70,57
2025-03-17 18:44:36.285,-234.0,-689.0,767.0,6.0,11.0,6.0,106,44,109,71,57
2025-03-17 18:44:36.308,-271.0,-601.0,761.0,1.0,8.0,4.0,106,44,109,69,57
2025-03-17 18:44:36.333,-303.0,-571.0,729.0,-11.0,-2.0,-4.0,106,44,109,69,57
2025-03-17 18:44:36.358,-249.0,-725.0,753.0,-9.0,-2.0,-3.0,106,43,110,71,56
2025-03-17 18:44:36.382,-219.0,-660.0,778.0,-2.0,5.0,2.0,105,43,109,69,57
2025-03-17 18:44:36.404,-270.0,-666.0,740.0,-3.0,2.0,2.0,106,43,109,70,58
2025-03-17 18:44:36.429,-282.0,-647.0,719.0,1.0,-1.0,0.0,106,43,108,71,58
2025-03-17 18:44:36.453,-251.0,-612.0,763.0,-3.0,-3.0,-2.0,107,43,109,70,58
2025-03-17 18:44:36.477,-236.0,-691.0,771.0,-5.0,-1.0,-1.0,105,44,109,69,58
2025-03-17 18:44:36.502,-244.0,-687.0,776.0,1.0,5.0,5.0,106,43,110,69,59
2025-03-17 18:44:36.526,-307.0,-584.0,708.0,-4.0,-1.0,2.0,107,43,109,70,58
2025-03-17 18:44:36.550,-273.0,-585.0,734.0,-17.0,-12.0,-8.0,107,43,109,69,58
2025-03-17 18:44:36.572,-196.0,-789.0,792.0,-12.0,-3.0,-2.0,106,43,109,70,59
2025-03-17 18:44:36.596,-229.0,-687.0,737.0,11.0,12.0,8.0,106,43,109,70,58
2025-03-17 18:44:36.621,-295.0,-570.0,711.0,2.0,3.0,1.0,106,43,109,70,58
2025-03-17 18:44:36.633,-257.0,-646.0,725.0,-6.0,-5.0,-3.0,106,44,110,71,58
2025-03-17 18:44:36.669,-200.0,-684.0,760.0,0.0,-1.0,1.0,107,44,110,71,57
2025-03-17 18:44:36.694,-250.0,-596.0,744.0,1.0,3.0,2.0,107,43,109,71,58
2025-03-17 18:44:36.719,-260.0,-633.0,728.0,-4.0,1.0,-1.0,107,43,110,69,59
2025-03-17 18:44:36.738,-257.0,-651.0,724.0,-2.0,-1.0,1.0,107,44,109,70,58
2025-03-17 18:44:36.764,-269.0,-596.0,740.0,3.0,1.0,-1.0,107,43,112,69,58
2025-03-17 18:44:36.788,-260.0,-659.0,744.0,-3.0,-4.0,-5.0,107,42,110,70,58
2025-03-17 18:44:36.813,-252.0,-665.0,745.0,0.0,-3.0,-2.0,106,43,109,70,55
2025-03-17 18:44:36.835,-259.0,-660.0,745.0,1.0,-1.0,-3.0,107,44,110,70,58
2025-03-17 18:44:36.859,-276.0,-677.0,741.0,7.0,-1.0,0.0,107,43,110,70,58
2025-03-17 18:44:36.886,-321.0,-580.0,753.0,9.0,0.0,-3.0,107,44,110,70,59
2025-03-17 18:44:36.907,-269.0,-657.0,789.0,8.0,1.0,-5.0,106,44,110,71,59
2025-03-17 18:44:36.932,-239.0,-670.0,800.0,2.0,0.0,-3.0,107,44,110,68,59
2025-03-17 18:44:36.949,-242.0,-674.0,770.0,0.0,0.0,0.0,108,44,109,71,58
2025-03-17 18:44:36.981,-241.0,-668.0,760.0,3.0,3.0,2.0,108,43,110,70,59
2025-03-17 18:44:37.006,-268.0,-607.0,744.0,0.0,3.0,-1.0,107,43,110,71,58
2025-03-17 18:44:37.030,-269.0,-633.0,738.0,-7.0,-2.0,-3.0,108,43,110,71,58
2025-03-17 18:44:37.054,-224.0,-701.0,763.0,-2.0,0.0,1.0,107,44,109,71,58
2025-03-17 18:44:37.075,-258.0,-644.0,737.0,3.0,3.0,5.0,108,44,111,71,59
2025-03-17 18:44:37.100,-272.0,-611.0,720.0,-2.0,-1.0,0.0,108,47,111,70,59
2025-03-17 18:44:37.124,-247.0,-666.0,751.0,-3.0,-5.0,2.0,107,44,110,71,59
2025-03-17 18:44:37.149,-284.0,-623.0,749.0,1.0,-2.0,4.0,107,44,110,71,59
2025-03-17 18:44:37.174,-279.0,-601.0,761.0,1.0,4.0,1.0,108,44,110,70,58
2025-03-17 18:44:37.197,-264.0,-650.0,738.0,-2.0,3.0,2.0,107,44,111,70,58
2025-03-17 18:44:37.222,-280.0,-664.0,723.0,2.0,-1.0,4.0,107,42,110,71,59
2025-03-17 18:44:37.243,-295.0,-622.0,742.0,5.0,-5.0,2.0,108,44,110,71,59
2025-03-17 18:44:37.265,-272.0,-639.0,790.0,2.0,-5.0,0.0,108,43,111,71,59
2025-03-17 18:44:37.289,-271.0,-647.0,767.0,4.0,-3.0,1.0,107,44,111,71,59
2025-03-17 18:44:37.317,-258.0,-628.0,769.0,1.0,-7.0,-1.0,106,43,111,71,60
2025-03-17 18:44:37.341,-253.0,-629.0,789.0,-1.0,-3.0,-1.0,108,44,110,71,59
2025-03-17 18:44:37.366,-251.0,-607.0,774.0,-5.0,-1.0,-2.0,108,44,111,72,58
2025-03-17 18:44:37.390,-225.0,-659.0,791.0,-4.0,2.0,1.0,108,44,111,71,59
2025-03-17 18:44:37.412,-257.0,-621.0,752.0,-2.0,4.0,3.0,107,43,111,71,59
2025-03-17 18:44:37.435,-263.0,-614.0,766.0,-4.0,4.0,3.0,108,43,110,70,59
2025-03-17 18:44:37.459,-278.0,-584.0,768.0,-6.0,6.0,3.0,108,43,110,71,59
2025-03-17 18:44:37.485,-269.0,-596.0,781.0,-8.0,8.0,2.0,108,44,111,71,59
