timestamp,ax,ay,az,gx,gy,gz,flex1,flex2,flex3,flex4,flex5,emg1,emg2,emg3
2025-02-20 16:40:06.079,-267.0,-199.0,998.0,16.0,-1.0,-6.0,133,100,91,123,104,426,463,458
2025-02-20 16:40:06.079,-271.0,-185.0,999.0,14.0,1.0,-8.0,135,100,91,123,104,439,466,460
2025-02-20 16:40:06.085,-267.0,-191.0,980.0,10.0,0.0,-9.0,132,100,90,124,104,451,468,461
2025-02-20 16:40:06.087,-254.0,-198.0,960.0,7.0,-2.0,-10.0,135,101,92,124,104,460,469,459
2025-02-20 16:40:06.090,-238.0,-217.0,980.0,6.0,-1.0,-10.0,132,101,92,124,104,469,469,461
2025-02-20 16:40:06.093,-231.0,-215.0,996.0,5.0,1.0,-9.0,136,101,91,123,104,473,470,463
2025-02-20 16:40:06.093,-227.0,-204.0,993.0,3.0,2.0,-9.0,134,102,92,124,104,474,470,464
2025-02-20 16:40:06.111,-229.0,-215.0,970.0,-2.0,1.0,-8.0,132,101,91,124,104,476,474,464
2025-02-20 16:40:06.135,-236.0,-235.0,956.0,-3.0,0.0,-5.0,135,100,92,124,104,475,475,464
2025-02-20 16:40:06.155,-227.0,-242.0,960.0,1.0,1.0,-3.0,134,99,92,124,104,477,473,463
2025-02-20 16:40:06.172,-248.0,-219.0,973.0,3.0,0.0,-1.0,133,101,90,124,103,478,472,465
2025-02-20 16:40:06.192,-251.0,-209.0,973.0,4.0,1.0,0.0,135,101,91,124,104,478,470,464
2025-02-20 16:40:06.209,-259.0,-207.0,973.0,4.0,1.0,2.0,135,98,91,123,104,475,465,464
2025-02-20 16:40:06.227,-262.0,-194.0,987.0,4.0,0.0,3.0,135,99,91,128,104,472,459,465
2025-02-20 16:40:06.250,-267.0,-186.0,993.0,2.0,1.0,2.0,136,99,91,123,104,472,451,465
2025-02-20 16:40:06.269,-263.0,-180.0,978.0,2.0,1.0,2.0,134,100,91,123,103,471,449,465
2025-02-20 16:40:06.286,-264.0,-181.0,987.0,1.0,1.0,1.0,133,99,91,124,104,467,453,465
2025-02-20 16:40:06.306,-259.0,-179.0,991.0,0.0,3.0,2.0,134,100,91,124,104,465,458,466
2025-02-20 16:40:06.323,-255.0,-172.0,971.0,-1.0,3.0,0.0,135,99,91,123,104,465,459,467
2025-02-20 16:40:06.343,-268.0,-181.0,964.0,-2.0,2.0,0.0,133,100,91,124,103,464,462,467
2025-02-20 16:40:06.362,-274.0,-191.0,964.0,-1.0,1.0,1.0,134,101,92,124,104,463,466,467
2025-02-20 16:40:06.379,-269.0,-180.0,974.0,0.0,1.0,2.0,134,100,90,124,103,463,468,468
2025-02-20 16:40:06.401,-266.0,-166.0,979.0,0.0,4.0,2.0,134,100,91,124,105,463,467,469
2025-02-20 16:40:06.421,-273.0,-166.0,949.0,-1.0,4.0,1.0,133,101,92,123,105,461,468,469
2025-02-20 16:40:06.438,-271.0,-171.0,938.0,-2.0,2.0,1.0,134,101,91,123,104,461,469,467
2025-02-20 16:40:06.459,-271.0,-166.0,933.0,-2.0,0.0,0.0,135,100,91,124,104,459,469,467
2025-02-20 16:40:06.479,-278.0,-166.0,936.0,0.0,-2.0,-1.0,134,100,91,123,104,460,469,466
2025-02-20 16:40:06.496,-275.0,-175.0,951.0,2.0,-4.0,-2.0,134,101,91,122,104,461,468,464
2025-02-20 16:40:06.512,-266.0,-177.0,987.0,4.0,-3.0,-3.0,134,102,88,123,103,462,469,463
2025-02-20 16:40:06.536,-264.0,-167.0,998.0,3.0,-2.0,-4.0,134,100,91,123,105,462,471,464
2025-02-20 16:40:06.553,-260.0,-177.0,988.0,1.0,-2.0,-4.0,133,100,92,124,104,461,470,463
2025-02-20 16:40:06.573,-255.0,-197.0,984.0,2.0,-3.0,-3.0,134,100,91,123,104,463,473,463
2025-02-20 16:40:06.590,-253.0,-189.0,983.0,3.0,-1.0,-3.0,134,100,91,123,104,467,472,464
2025-02-20 16:40:06.610,-258.0,-184.0,975.0,2.0,-1.0,-1.0,135,99,91,122,103,466,471,464
2025-02-20 16:40:06.630,-268.0,-180.0,971.0,1.0,-2.0,0.0,136,99,92,122,104,467,470,465
2025-02-20 16:40:06.647,-271.0,-179.0,975.0,3.0,-1.0,1.0,133,101,91,124,104,465,468,465
2025-02-20 16:40:06.667,-278.0,-159.0,967.0,4.0,0.0,1.0,136,99,91,124,105,466,465,466
2025-02-20 16:40:06.687,-289.0,-150.0,964.0,3.0,0.0,1.0,134,99,91,124,104,464,464,467
2025-02-20 16:40:06.705,-291.0,-160.0,958.0,2.0,-2.0,1.0,134,100,92,124,103,462,463,466
2025-02-20 16:40:06.724,-284.0,-157.0,967.0,3.0,-2.0,0.0,134,100,92,124,104,463,463,466
2025-02-20 16:40:06.745,-285.0,-163.0,977.0,4.0,-2.0,0.0,135,100,91,124,103,464,464,465
2025-02-20 16:40:06.762,-270.0,-178.0,962.0,5.0,-1.0,0.0,135,99,92,123,104,463,468,465
2025-02-20 16:40:06.782,-274.0,-167.0,978.0,6.0,0.0,0.0,134,100,91,123,103,464,470,465
2025-02-20 16:40:06.799,-270.0,-162.0,982.0,6.0,0.0,0.0,135,101,91,125,103,462,469,464
2025-02-20 16:40:06.816,-262.0,-170.0,991.0,6.0,0.0,0.0,135,99,91,123,103,463,467,464
2025-02-20 16:40:06.834,-267.0,-175.0,996.0,6.0,0.0,2.0,136,100,91,123,104,464,467,463
2025-02-20 16:40:06.856,-265.0,-164.0,1000.0,4.0,1.0,2.0,133,100,91,124,103,466,467,463
2025-02-20 16:40:06.876,-263.0,-153.0,985.0,2.0,1.0,2.0,134,96,92,123,103,468,465,463
2025-02-20 16:40:06.897,-262.0,-160.0,990.0,-1.0,0.0,2.0,134,100,91,124,104,469,463,463
2025-02-20 16:40:06.913,-261.0,-156.0,992.0,-1.0,1.0,2.0,132,100,91,123,103,470,462,461
2025-02-20 16:40:06.933,-270.0,-135.0,988.0,0.0,1.0,2.0,135,100,91,124,104,470,457,462
2025-02-20 16:40:06.953,-273.0,-121.0,983.0,0.0,1.0,1.0,135,100,91,124,103,470,449,462
2025-02-20 16:40:06.971,-273.0,-121.0,974.0,1.0,1.0,0.0,135,101,91,123,103,470,447,462
2025-02-20 16:40:06.991,-273.0,-118.0,976.0,0.0,1.0,0.0,134,99,91,124,103,470,451,462
2025-02-20 16:40:07.006,-272.0,-124.0,970.0,-1.0,0.0,0.0,134,100,91,124,104,468,454,463
2025-02-20 16:40:07.028,-277.0,-127.0,968.0,0.0,0.0,-1.0,134,100,91,125,103,467,450,463
2025-02-20 16:40:07.047,-273.0,-132.0,959.0,1.0,-1.0,-1.0,134,99,92,124,102,464,452,464
2025-02-20 16:40:07.065,-273.0,-121.0,970.0,2.0,-2.0,-2.0,134,99,91,124,104,466,455,464
2025-02-20 16:40:07.084,-276.0,-126.0,979.0,4.0,-1.0,-2.0,134,100,91,123,103,464,459,465
2025-02-20 16:40:07.106,-281.0,-154.0,948.0,7.0,-1.0,-2.0,134,99,91,123,103,464,473,466
2025-02-20 16:40:07.123,-284.0,-149.0,995.0,4.0,-2.0,-3.0,136,100,91,123,104,462,475,467
2025-02-20 16:40:07.142,-271.0,-143.0,984.0,5.0,-1.0,-2.0,133,99,91,123,103,462,474,466
2025-02-20 16:40:07.162,-270.0,-136.0,976.0,4.0,-1.0,-2.0,134,99,91,123,103,462,472,467
2025-02-20 16:40:07.180,-268.0,-126.0,969.0,3.0,-2.0,-2.0,135,100,91,123,103,461,469,467
2025-02-20 16:40:07.199,-278.0,-136.0,969.0,1.0,-2.0,-2.0,134,100,92,123,103,461,467,467
2025-02-20 16:40:07.220,-274.0,-150.0,988.0,2.0,-1.0,-2.0,134,100,91,123,103,462,466,468
2025-02-20 16:40:07.236,-272.0,-145.0,983.0,5.0,-1.0,-1.0,135,99,91,124,103,463,465,467
2025-02-20 16:40:07.257,-270.0,-141.0,979.0,5.0,-2.0,-1.0,134,101,91,125,103,462,466,465
2025-02-20 16:40:07.274,-283.0,-140.0,1010.0,1.0,-2.0,0.0,135,100,92,124,103,461,465,465
2025-02-20 16:40:07.294,-262.0,-142.0,1000.0,7.0,-1.0,0.0,133,100,92,124,103,462,466,464
2025-02-20 16:40:07.313,-265.0,-125.0,1004.0,2.0,0.0,0.0,133,100,91,124,104,461,467,465
2025-02-20 16:40:07.331,-286.0,-127.0,989.0,-3.0,-2.0,0.0,134,99,91,124,103,461,467,464
2025-02-20 16:40:07.350,-271.0,-151.0,985.0,-2.0,-2.0,0.0,134,100,91,124,103,461,467,466
2025-02-20 16:40:07.371,-276.0,-129.0,1007.0,2.0,-1.0,1.0,134,100,92,123,104,459,466,466
2025-02-20 16:40:07.387,-273.0,-115.0,1006.0,0.0,1.0,0.0,134,99,92,124,101,465,466,468
2025-02-20 16:40:07.409,-267.0,-113.0,986.0,-3.0,2.0,-1.0,135,99,91,123,103,464,467,468
2025-02-20 16:40:07.429,-267.0,-123.0,954.0,-5.0,1.0,0.0,133,100,92,123,103,463,465,470
2025-02-20 16:40:07.446,-256.0,-126.0,944.0,-8.0,1.0,0.0,135,99,92,124,102,463,464,471
2025-02-20 16:40:07.463,-248.0,-123.0,932.0,-9.0,1.0,1.0,133,100,92,126,104,463,463,471
2025-02-20 16:40:07.483,-238.0,-122.0,903.0,-11.0,0.0,1.0,135,100,91,124,103,462,466,472
2025-02-20 16:40:07.502,-253.0,-90.0,832.0,-13.0,-4.0,1.0,134,102,91,123,103,461,466,471
2025-02-20 16:40:07.523,-309.0,-73.0,727.0,-7.0,-13.0,0.0,132,100,92,124,104,465,472,471
2025-02-20 16:40:07.538,-314.0,-79.0,600.0,-17.0,-30.0,-8.0,133,100,91,124,104,466,478,470
2025-02-20 16:40:07.561,-391.0,-121.0,641.0,-12.0,-60.0,-24.0,134,97,89,123,104,469,492,470
2025-02-20 16:40:07.579,-449.0,-193.0,827.0,14.0,-86.0,-24.0,134,90,83,122,101,478,496,470
2025-02-20 16:40:07.598,-448.0,-160.0,855.0,16.0,-150.0,-28.0,135,86,79,120,90,477,481,466
2025-02-20 16:40:07.615,-215.0,-228.0,1140.0,-16.0,-223.0,-27.0,134,82,76,116,84,456,462,462
2025-02-20 16:40:07.638,239.0,-620.0,1830.0,-54.0,-207.0,51.0,134,80,75,112,77,438,411,451
2025-02-20 16:40:07.653,668.0,-575.0,2411.0,-121.0,-65.0,122.0,135,78,73,110,72,439,403,432
2025-02-20 16:40:07.674,590.0,-471.0,2493.0,-210.0,86.0,137.0,135,70,67,100,68,455,423,442
2025-02-20 16:40:07.694,436.0,-421.0,2206.0,-230.0,208.0,129.0,135,64,60,88,61,488,456,465
2025-02-20 16:40:07.712,209.0,-435.0,1674.0,-252.0,251.0,122.0,133,60,57,79,58,492,483,489
2025-02-20 16:40:07.732,117.0,-558.0,1322.0,-280.0,251.0,133.0,128,59,52,71,54,498,478,511
2025-02-20 16:40:07.750,-5.0,-503.0,945.0,-299.0,242.0,151.0,124,56,50,64,56,486,470,517
2025-02-20 16:40:07.770,-226.0,-425.0,679.0,-290.0,218.0,145.0,119,57,51,62,54,456,457,523
2025-02-20 16:40:07.786,-275.0,-315.0,440.0,-267.0,191.0,138.0,110,55,49,62,56,434,445,511
2025-02-20 16:40:07.806,-383.0,-177.0,273.0,-244.0,166.0,127.0,105,55,49,62,55,391,435,516
2025-02-20 16:40:07.827,-395.0,-58.0,291.0,-214.0,149.0,118.0,102,56,49,59,55,376,431,540
2025-02-20 16:40:07.847,-462.0,314.0,250.0,-189.0,138.0,99.0,98,55,50,60,54,387,434,546
2025-02-20 16:40:07.864,-446.0,635.0,199.0,-159.0,131.0,63.0,99,56,49,60,54,429,432,526
2025-02-20 16:40:07.884,-509.0,1048.0,95.0,-109.0,134.0,25.0,97,55,50,60,53,497,447,516
2025-02-20 16:40:07.902,-719.0,1760.0,-255.0,-75.0,109.0,-64.0,94,55,51,59,52,610,468,496
2025-02-20 16:40:07.921,-819.0,2274.0,-626.0,-37.0,63.0,-210.0,93,54,50,60,51,614,476,463
2025-02-20 16:40:07.942,-875.0,2211.0,-1192.0,28.0,-16.0,-412.0,92,53,50,62,49,556,470,440
2025-02-20 16:40:07.962,-331.0,1484.0,-1498.0,96.0,-208.0,-652.0,90,53,50,64,48,509,457,419
2025-02-20 16:40:07.978,758.0,750.0,-1417.0,157.0,-449.0,-800.0,90,53,50,66,51,435,425,414
2025-02-20 16:40:07.999,3474.0,-1592.0,584.0,249.0,-589.0,-680.0,92,54,50,68,54,362,398,434
2025-02-20 16:40:08.015,4606.0,-5095.0,3776.0,312.0,-88.0,-312.0,92,55,51,72,55,320,446,474
2025-02-20 16:40:08.033,2652.0,-3808.0,2373.0,312.0,218.0,-47.0,90,54,51,68,51,406,558,489
2025-02-20 16:40:08.056,1072.0,-1785.0,1690.0,105.0,163.0,110.0,90,54,51,66,48,332,634,467
2025-02-20 16:40:08.071,370.0,-1075.0,724.0,-255.0,81.0,178.0,93,54,52,71,50,184,630,426
2025-02-20 16:40:08.093,295.0,-1585.0,292.0,-349.0,10.0,211.0,91,56,52,73,51,166,606,442
2025-02-20 16:40:08.113,391.0,-2090.0,520.0,-220.0,32.0,243.0,93,59,53,73,55,172,497,485
2025-02-20 16:40:08.130,512.0,-1621.0,476.0,-70.0,117.0,264.0,94,57,53,72,57,261,434,496
2025-02-20 16:40:08.150,17.0,-915.0,244.0,4.0,110.0,235.0,94,58,53,73,59,358,437,473
2025-02-20 16:40:08.167,-221.0,-405.0,206.0,-23.0,61.0,200.0,95,58,53,72,59,532,492,461
2025-02-20 16:40:08.187,-181.0,-497.0,308.0,-77.0,46.0,195.0,96,58,53,68,58,560,514,481
2025-02-20 16:40:08.207,-30.0,-571.0,517.0,-95.0,75.0,224.0,96,57,53,65,58,544,485,501
2025-02-20 16:40:08.222,-282.0,-284.0,214.0,-94.0,102.0,213.0,96,57,54,67,58,510,437,503
2025-02-20 16:40:08.244,-420.0,-149.0,105.0,-65.0,82.0,170.0,96,56,53,66,59,476,418,486
2025-02-20 16:40:08.265,-242.0,-238.0,176.0,-32.0,77.0,138.0,98,57,52,65,59,531,465,499
2025-02-20 16:40:08.282,-135.0,-242.0,138.0,7.0,102.0,150.0,96,58,54,65,61,674,441,509
2025-02-20 16:40:08.302,-409.0,57.0,-83.0,57.0,84.0,160.0,97,57,55,65,61,750,423,497
2025-02-20 16:40:08.318,-784.0,848.0,-314.0,118.0,36.0,127.0,98,57,55,68,61,711,394,467
2025-02-20 16:40:08.339,-1077.0,1780.0,-500.0,175.0,-3.0,-3.0,98,57,56,67,62,662,428,432
2025-02-20 16:40:08.359,-999.0,2203.0,-535.0,150.0,-50.0,-255.0,99,57,56,70,62,627,430,420
2025-02-20 16:40:08.379,-731.0,1722.0,-477.0,73.0,-125.0,-454.0,98,59,56,73,61,545,408,423
2025-02-20 16:40:08.396,-116.0,816.0,-718.0,64.0,-257.0,-649.0,101,59,55,75,62,452,370,416
2025-02-20 16:40:08.417,1306.0,-251.0,-386.0,105.0,-488.0,-729.0,101,60,54,76,63,300,338,404
2025-02-20 16:40:08.437,3435.0,-1741.0,1211.0,144.0,-564.0,-642.0,105,60,55,80,68,288,341,392
2025-02-20 16:40:08.454,3416.0,-5058.0,2858.0,157.0,-157.0,-276.0,108,60,53,82,67,359,436,376
2025-02-20 16:40:08.474,2917.0,-4337.0,1881.0,168.0,180.0,30.0,107,57,53,78,60,474,557,364
2025-02-20 16:40:08.489,1026.0,-1877.0,796.0,22.0,148.0,157.0,107,55,53,74,57,476,622,373
2025-02-20 16:40:08.511,437.0,-1163.0,341.0,-119.0,-11.0,194.0,108,56,53,77,58,416,609,372
2025-02-20 16:40:08.531,520.0,-1457.0,406.0,-181.0,-47.0,228.0,108,57,55,79,63,414,583,369
2025-02-20 16:40:08.548,558.0,-1591.0,526.0,-138.0,-19.0,248.0,110,60,55,80,68,388,509,387
2025-02-20 16:40:08.568,480.0,-1216.0,748.0,-51.0,26.0,266.0,110,61,56,77,72,522,446,435
2025-02-20 16:40:08.586,221.0,-962.0,581.0,4.0,82.0,262.0,114,62,57,76,73,508,450,500
2025-02-20 16:40:08.605,-38.0,-458.0,441.0,11.0,75.0,234.0,113,62,57,72,74,588,493,519
2025-02-20 16:40:08.625,-151.0,-230.0,525.0,-45.0,55.0,211.0,114,62,55,68,72,658,564,508
2025-02-20 16:40:08.643,-46.0,-345.0,637.0,-104.0,89.0,215.0,117,61,56,69,71,603,552,489
2025-02-20 16:40:08.663,-142.0,-282.0,441.0,-119.0,102.0,211.0,118,59,60,68,71,601,395,470
2025-02-20 16:40:08.682,-232.0,-345.0,378.0,-78.0,100.0,192.0,117,60,60,68,71,625,353,498
2025-02-20 16:40:08.699,-108.0,-415.0,369.0,7.0,116.0,184.0,120,60,58,65,74,608,387,505
2025-02-20 16:40:08.720,-28.0,-172.0,315.0,62.0,146.0,219.0,123,62,59,66,73,528,435,497
2025-02-20 16:40:08.740,-237.0,320.0,171.0,57.0,157.0,253.0,126,61,59,65,73,518,416,493
2025-02-20 16:40:08.757,-815.0,1650.0,-99.0,54.0,113.0,161.0,130,62,60,66,70,484,471,479
2025-02-20 16:40:08.777,-1281.0,2223.0,-764.0,193.0,21.0,-116.0,135,60,60,67,63,465,471,455
2025-02-20 16:40:08.797,-957.0,2288.0,-828.0,202.0,-37.0,-394.0,137,57,58,70,54,489,441,444
2025-02-20 16:40:08.815,-537.0,1207.0,-1172.0,138.0,-192.0,-533.0,141,56,58,71,54,468,338,422
2025-02-20 16:40:08.834,89.0,471.0,-1108.0,67.0,-461.0,-615.0,142,55,57,72,55,445,210,404
2025-02-20 16:40:08.853,2117.0,-1144.0,-706.0,-8.0,-679.0,-556.0,146,55,55,72,59,324,236,419
2025-02-20 16:40:08.871,3754.0,-2813.0,2326.0,-61.0,-600.0,-374.0,148,56,55,73,60,273,315,430
2025-02-20 16:40:08.891,3645.0,-4489.0,3110.0,-25.0,-172.0,-136.0,150,55,54,72,59,252,417,426
2025-02-20 16:40:08.907,1774.0,-3894.0,1247.0,109.0,176.0,-21.0,152,53,53,67,56,268,523,441
2025-02-20 16:40:08.928,543.0,-2397.0,187.0,51.0,102.0,95.0,148,52,52,72,53,211,636,475
2025-02-20 16:40:08.949,410.0,-1455.0,200.0,-97.0,13.0,181.0,150,54,52,73,56,221,688,511
2025-02-20 16:40:08.965,402.0,-1351.0,313.0,-117.0,12.0,180.0,150,56,54,73,58,281,706,531
2025-02-20 16:40:08.985,338.0,-1494.0,354.0,-18.0,57.0,176.0,150,56,55,72,60,449,606,494
2025-02-20 16:40:08.996,346.0,-1261.0,456.0,66.0,76.0,169.0,149,56,56,71,62,627,500,497
2025-02-20 16:40:09.022,130.0,-589.0,430.0,36.0,65.0,192.0,150,56,55,70,62,650,447,508
2025-02-20 16:40:09.043,-75.0,-294.0,397.0,-52.0,34.0,178.0,149,57,55,69,62,599,448,484
2025-02-20 16:40:09.060,-100.0,-325.0,346.0,-96.0,29.0,162.0,149,56,55,68,61,461,461,458
2025-02-20 16:40:09.080,-146.0,-308.0,298.0,-69.0,32.0,127.0,151,57,53,70,61,438,474,467
2025-02-20 16:40:09.100,-49.0,-473.0,387.0,-61.0,44.0,131.0,149,56,54,70,62,517,461,463
2025-02-20 16:40:09.118,28.0,-417.0,469.0,-24.0,78.0,154.0,149,57,54,69,61,585,468,465
2025-02-20 16:40:09.137,-160.0,-61.0,398.0,59.0,95.0,121.0,148,57,56,68,62,638,506,459
2025-02-20 16:40:09.158,-348.0,423.0,388.0,84.0,92.0,55.0,148,56,55,67,62,669,552,459
2025-02-20 16:40:09.175,-664.0,877.0,378.0,74.0,80.0,11.0,149,58,57,69,62,633,563,460
2025-02-20 16:40:09.195,-787.0,1502.0,155.0,63.0,75.0,-87.0,148,58,57,69,61,558,512,440
2025-02-20 16:40:09.214,-912.0,2052.0,-292.0,16.0,26.0,-299.0,148,58,57,70,61,512,477,438
2025-02-20 16:40:09.232,-692.0,1542.0,-992.0,-34.0,-95.0,-505.0,148,57,56,72,61,513,431,442
2025-02-20 16:40:09.252,293.0,86.0,-1261.0,-73.0,-278.0,-522.0,146,56,57,74,61,485,382,448
2025-02-20 16:40:09.272,1873.0,-1405.0,-792.0,-84.0,-454.0,-489.0,147,54,57,76,62,450,370,452
2025-02-20 16:40:09.289,3444.0,-4378.0,1692.0,10.0,-337.0,-261.0,149,55,56,78,63,405,415,456
2025-02-20 16:40:09.307,3148.0,-4432.0,1687.0,144.0,80.0,-126.0,148,56,55,76,62,427,453,449
2025-02-20 16:40:09.324,1533.0,-3574.0,129.0,166.0,169.0,22.0,146,53,53,71,57,317,439,421
2025-02-20 16:40:09.347,534.0,-1535.0,-160.0,-16.0,50.0,165.0,149,54,53,72,57,334,470,395
2025-02-20 16:40:09.366,615.0,-1819.0,207.0,-111.0,-3.0,230.0,147,54,55,76,59,304,468,405
2025-02-20 16:40:09.383,860.0,-2125.0,725.0,-48.0,42.0,286.0,146,58,56,74,63,327,358,419
2025-02-20 16:40:09.404,811.0,-1654.0,782.0,52.0,154.0,314.0,146,58,57,73,67,392,407,478
2025-02-20 16:40:09.423,540.0,-821.0,531.0,77.0,182.0,302.0,146,59,58,73,68,478,475,498
2025-02-20 16:40:09.441,276.0,-385.0,394.0,22.0,168.0,279.0,147,59,59,72,70,537,538,472
2025-02-20 16:40:09.459,48.0,-291.0,338.0,-32.0,124.0,266.0,146,61,61,72,72,556,556,450
2025-02-20 16:40:09.481,-94.0,-294.0,348.0,-61.0,108.0,264.0,146,61,63,76,72,467,500,460
2025-02-20 16:40:09.498,24.0,-478.0,233.0,-58.0,141.0,252.0,144,63,68,81,76,355,373,485
2025-02-20 16:40:09.518,-215.0,-192.0,171.0,-13.0,141.0,238.0,146,65,72,90,81,351,319,559
2025-02-20 16:40:09.532,-277.0,-102.0,71.0,46.0,120.0,207.0,142,73,76,99,86,630,364,552
2025-02-20 16:40:09.556,-428.0,198.0,-17.0,110.0,97.0,174.0,142,79,79,108,91,773,432,526
2025-02-20 16:40:09.575,-632.0,541.0,158.0,156.0,93.0,128.0,140,84,82,112,95,701,551,504
2025-02-20 16:40:09.592,-805.0,790.0,-144.0,234.0,65.0,66.0,138,89,82,113,97,668,592,484
2025-02-20 16:40:09.613,-1137.0,1580.0,-430.0,284.0,-5.0,-69.0,139,92,84,116,99,604,543,482
2025-02-20 16:40:09.632,-1372.0,2488.0,-953.0,342.0,-133.0,-317.0,138,95,87,117,100,501,446,473
2025-02-20 16:40:09.650,-1228.0,2328.0,-1484.0,326.0,-296.0,-591.0,135,97,91,120,105,405,325,470
2025-02-20 16:40:09.670,555.0,1303.0,-1238.0,442.0,-482.0,-662.0,133,103,95,125,111,355,246,468
2025-02-20 16:40:09.689,2575.0,-550.0,67.0,38.0,-825.0,-541.0,131,108,97,126,114,333,225,439
2025-02-20 16:40:09.707,4316.0,-2402.0,1549.0,-132.0,-834.0,-259.0,133,113,99,129,116,404,285,437
2025-02-20 16:40:09.725,3973.0,-3992.0,2785.0,-155.0,-500.0,-35.0,140,116,102,131,119,279,422,409
2025-02-20 16:40:09.747,2785.0,-3507.0,1968.0,-261.0,-121.0,118.0,143,117,103,132,121,194,552,420
2025-02-20 16:40:09.762,1366.0,-1815.0,982.0,-228.0,88.0,178.0,144,111,101,131,122,105,634,419
2025-02-20 16:40:09.784,468.0,-1192.0,418.0,-131.0,156.0,237.0,142,110,100,131,123,180,707,449
2025-02-20 16:40:09.802,266.0,-977.0,342.0,8.0,101.0,260.0,141,108,101,131,123,265,695,470
2025-02-20 16:40:09.822,268.0,-1278.0,447.0,79.0,117.0,249.0,138,109,100,132,122,319,553,476
2025-02-20 16:40:09.840,414.0,-1250.0,510.0,111.0,191.0,220.0,140,109,101,132,124,383,532,489
2025-02-20 16:40:09.858,503.0,-1110.0,645.0,121.0,263.0,173.0,138,113,103,135,124,434,519,519
2025-02-20 16:40:09.877,276.0,-1047.0,364.0,39.0,191.0,172.0,138,113,102,132,123,414,472,516
2025-02-20 16:40:09.899,34.0,-688.0,417.0,-70.0,119.0,196.0,136,115,102,133,125,478,372,490
2025-02-20 16:40:09.916,-76.0,-497.0,277.0,-114.0,77.0,213.0,136,111,102,133,124,542,398,475
2025-02-20 16:40:09.937,-127.0,-411.0,300.0,-187.0,26.0,221.0,137,110,102,133,125,599,447,487
2025-02-20 16:40:09.954,-113.0,-302.0,232.0,-216.0,12.0,199.0,137,108,101,134,124,633,467,484
2025-02-20 16:40:09.973,-304.0,-677.0,-320.0,-168.0,-6.0,174.0,139,106,101,132,123,707,476,455
2025-02-20 16:40:09.993,-205.0,-449.0,527.0,-58.0,85.0,161.0,136,106,101,132,125,704,525,449
2025-02-20 16:40:10.010,-300.0,-256.0,228.0,27.0,83.0,136.0,137,105,100,132,122,650,526,444
2025-02-20 16:40:10.030,-340.0,-158.0,348.0,113.0,67.0,122.0,138,105,99,131,123,607,523,448
2025-02-20 16:40:10.051,-258.0,124.0,280.0,151.0,91.0,113.0,138,105,99,132,122,602,501,446
2025-02-20 16:40:10.067,-778.0,792.0,663.0,277.0,106.0,85.0,139,105,99,131,123,569,454,442
2025-02-20 16:40:10.088,-1013.0,1718.0,57.0,279.0,142.0,-68.0,139,106,100,132,123,533,405,450
2025-02-20 16:40:10.108,-1498.0,2628.0,-981.0,306.0,-3.0,-421.0,139,107,101,131,122,601,407,430
2025-02-20 16:40:10.125,-838.0,2287.0,-1516.0,236.0,-175.0,-705.0,137,110,101,131,123,586,403,413
2025-02-20 16:40:10.145,1563.0,770.0,-938.0,114.0,-472.0,-793.0,127,114,101,132,124,504,358,450
2025-02-20 16:40:10.165,3765.0,-1324.0,689.0,-102.0,-776.0,-574.0,127,117,103,133,125,405,176,492
2025-02-20 16:40:10.183,4103.0,-5547.0,1245.0,-233.0,-639.0,-149.0,128,116,103,132,125,353,303,489
2025-02-20 16:40:10.202,3350.0,-5245.0,1815.0,39.0,-235.0,150.0,128,115,102,133,127,450,471,453
2025-02-20 16:40:10.222,2309.0,-2863.0,894.0,-263.0,-142.0,125.0,131,108,95,132,125,481,575,433
2025-02-20 16:40:10.239,281.0,-763.0,727.0,-22.0,128.0,114.0,133,105,96,133,126,442,656,432
2025-02-20 16:40:10.260,-168.0,-597.0,332.0,2.0,104.0,156.0,134,104,93,132,124,427,646,424
2025-02-20 16:40:10.277,-30.0,-877.0,467.0,106.0,35.0,159.0,134,103,92,133,123,349,500,426
2025-02-20 16:40:10.295,367.0,-1414.0,-174.0,215.0,147.0,138.0,133,105,93,133,125,426,339,454
2025-02-20 16:40:10.312,746.0,-1545.0,594.0,181.0,244.0,107.0,133,108,95,134,124,445,450,508
2025-02-20 16:40:10.334,625.0,-1390.0,605.0,89.0,172.0,151.0,133,111,96,133,124,341,578,484
2025-02-20 16:40:10.354,360.0,-935.0,457.0,36.0,177.0,183.0,133,112,97,133,124,331,409,487
2025-02-20 16:40:10.374,55.0,-674.0,363.0,-24.0,104.0,226.0,136,112,97,133,124,279,340,474
2025-02-20 16:40:10.391,-15.0,-460.0,249.0,-112.0,39.0,248.0,135,106,96,134,124,278,421,444
2025-02-20 16:40:10.410,-52.0,-426.0,319.0,-199.0,3.0,229.0,135,104,93,133,122,346,494,445
2025-02-20 16:40:10.431,-143.0,-343.0,391.0,-101.0,85.0,196.0,136,101,93,132,121,426,482,484
2025-02-20 16:40:10.449,-243.0,-359.0,231.0,-31.0,101.0,175.0,137,97,90,131,117,547,428,507
2025-02-20 16:40:10.468,-336.0,-242.0,214.0,14.0,111.0,163.0,135,98,90,131,111,715,385,531
2025-02-20 16:40:10.486,-330.0,-190.0,352.0,117.0,109.0,153.0,138,92,86,129,101,713,422,531
2025-02-20 16:40:10.505,-441.0,-7.0,471.0,177.0,175.0,125.0,139,85,80,125,90,691,448,499
2025-02-20 16:40:10.526,-696.0,619.0,504.0,287.0,247.0,28.0,140,74,75,114,74,651,464,468
2025-02-20 16:40:10.543,-1313.0,2285.0,-555.0,305.0,188.0,-245.0,141,66,69,104,63,600,454,446
2025-02-20 16:40:10.561,-1496.0,2823.0,-1480.0,178.0,-128.0,-543.0,140,64,62,91,60,573,427,424
2025-02-20 16:40:10.583,-242.0,1557.0,-1837.0,19.0,-442.0,-719.0,140,55,56,75,56,459,415,433
2025-02-20 16:40:10.598,2112.0,-637.0,-1222.0,-170.0,-764.0,-603.0,140,52,51,72,57,330,450,440
2025-02-20 16:40:10.620,3945.0,-3345.0,1567.0,-193.0,-706.0,-278.0,143,53,51,71,59,264,457,462
2025-02-20 16:40:10.640,3959.0,-5006.0,2724.0,-73.0,-118.0,-59.0,145,52,51,69,60,319,498,470
2025-02-20 16:40:10.658,2219.0,-3228.0,1000.0,155.0,179.0,11.0,147,48,49,71,54,369,669,483
2025-02-20 16:40:10.675,365.0,-1563.0,-239.0,69.0,133.0,111.0,145,47,49,72,50,267,696,465
2025-02-20 16:40:10.695,156.0,-1122.0,-4.0,-104.0,-6.0,175.0,147,47,50,73,54,146,654,411
2025-02-20 16:40:10.715,502.0,-1838.0,545.0,-103.0,3.0,215.0,148,51,50,72,58,150,565,412
2025-02-20 16:40:10.734,743.0,-1993.0,817.0,-18.0,101.0,254.0,147,54,52,71,60,234,416,438
2025-02-20 16:40:10.751,629.0,-921.0,522.0,86.0,133.0,209.0,146,53,52,71,62,348,392,475
2025-02-20 16:40:10.772,188.0,-854.0,301.0,76.0,125.0,173.0,148,54,52,71,63,427,364,471
2025-02-20 16:40:10.792,-35.0,-626.0,261.0,-50.0,83.0,215.0,148,54,52,68,63,549,462,470
2025-02-20 16:40:10.808,-181.0,-469.0,189.0,-163.0,33.0,241.0,149,54,51,69,61,602,453,482
2025-02-20 16:40:10.829,-287.0,-467.0,189.0,-149.0,5.0,252.0,150,53,52,71,61,592,435,510
2025-02-20 16:40:10.849,-105.0,-36.0,547.0,-48.0,3.0,139.0,147,54,54,70,61,567,423,524
2025-02-20 16:40:10.865,-71.0,-587.0,625.0,6.0,83.0,113.0,149,52,53,70,60,567,406,518
2025-02-20 16:40:10.886,-316.0,-354.0,304.0,83.0,113.0,126.0,148,54,54,69,61,639,412,500
2025-02-20 16:40:10.898,-445.0,31.0,261.0,88.0,90.0,97.0,147,55,54,69,62,750,459,481
2025-02-20 16:40:10.923,-478.0,383.0,370.0,85.0,75.0,62.0,148,55,55,70,61,799,469,480
2025-02-20 16:40:10.943,-661.0,1206.0,411.0,110.0,77.0,-27.0,147,56,54,70,59,793,457,470
2025-02-20 16:40:10.960,-1020.0,2216.0,33.0,118.0,64.0,-185.0,148,55,54,67,56,718,442,449
2025-02-20 16:40:10.981,-1295.0,2581.0,-911.0,47.0,-23.0,-389.0,146,54,55,70,54,639,428,428
2025-02-20 16:40:10.997,-869.0,2058.0,-1663.0,-73.0,-275.0,-626.0,146,54,54,71,54,547,398,436
2025-02-20 16:40:11.014,1377.0,268.0,-1272.0,-191.0,-559.0,-609.0,145,54,58,72,57,409,365,453
2025-02-20 16:40:11.037,4009.0,-3748.0,959.0,-287.0,-454.0,-329.0,145,55,56,75,59,307,374,466
2025-02-20 16:40:11.057,3870.0,-5343.0,1625.0,-24.0,2.0,-166.0,146,55,55,77,59,362,377,422
2025-02-20 16:40:11.075,2197.0,-3746.0,42.0,196.0,196.0,-3.0,145,50,55,71,58,278,455,404
2025-02-20 16:40:11.095,538.0,-2043.0,-298.0,25.0,118.0,122.0,147,48,55,74,54,91,538,398
2025-02-20 16:40:11.113,270.0,-1490.0,-130.0,-68.0,26.0,162.0,144,49,57,76,55,151,611,429
2025-02-20 16:40:11.132,370.0,-1741.0,429.0,-39.0,31.0,174.0,146,52,59,83,61,188,558,477
2025-02-20 16:40:11.152,543.0,-1792.0,647.0,38.0,126.0,172.0,146,59,61,85,62,269,580,499
2025-02-20 16:40:11.170,477.0,-1447.0,427.0,105.0,163.0,168.0,146,62,63,86,63,442,610,554
2025-02-20 16:40:11.189,224.0,-1101.0,269.0,97.0,122.0,170.0,145,64,64,88,64,537,602,572
2025-02-20 16:40:11.210,101.0,-852.0,162.0,8.0,93.0,205.0,142,64,66,87,61,463,517,514
2025-02-20 16:40:11.227,70.0,-748.0,273.0,-41.0,66.0,227.0,142,64,68,88,62,455,500,456
2025-02-20 16:40:11.246,51.0,-540.0,380.0,-50.0,95.0,233.0,141,61,69,90,60,373,483,437
2025-02-20 16:40:11.267,-83.0,-363.0,106.0,-75.0,112.0,250.0,141,70,74,93,61,418,464,484
2025-02-20 16:40:11.285,-110.0,-375.0,254.0,-73.0,120.0,265.0,139,78,79,95,62,452,454,501
2025-02-20 16:40:11.304,-167.0,-355.0,250.0,-11.0,135.0,241.0,141,87,82,95,62,581,469,517
2025-02-20 16:40:11.324,-327.0,-142.0,234.0,153.0,157.0,215.0,141,92,84,95,63,729,467,494
2025-02-20 16:40:11.341,-622.0,270.0,-15.0,215.0,146.0,149.0,141,95,84,94,63,716,420,472
2025-02-20 16:40:11.361,-857.0,556.0,-109.0,233.0,98.0,97.0,143,100,86,92,64,641,394,451
2025-02-20 16:40:11.379,-935.0,1180.0,-252.0,199.0,48.0,16.0,142,99,93,90,62,609,425,461
2025-02-20 16:40:11.398,-1152.0,1604.0,-647.0,125.0,-80.0,-211.0,142,102,91,88,61,585,415,471
2025-02-20 16:40:11.419,-1160.0,1372.0,-596.0,163.0,-202.0,-415.0,139,105,95,85,58,494,406,472
2025-02-20 16:40:11.435,-460.0,1218.0,-542.0,187.0,-362.0,-617.0,137,108,97,87,59,340,371,469
2025-02-20 16:40:11.456,1427.0,1038.0,-195.0,-31.0,-529.0,-718.0,133,111,101,91,62,278,342,460
2025-02-20 16:40:11.476,2562.0,-1328.0,520.0,-209.0,-580.0,-665.0,130,116,103,94,64,273,322,449
2025-02-20 16:40:11.493,3085.0,-4343.0,866.0,-153.0,-394.0,-333.0,127,120,98,98,66,412,354,441
2025-02-20 16:40:11.513,3471.0,-4401.0,1303.0,-17.0,-77.0,30.0,127,121,104,100,67,509,451,439
2025-02-20 16:40:11.533,2012.0,-2262.0,881.0,-66.0,153.0,197.0,127,120,104,100,62,520,545,441
2025-02-20 16:40:11.551,860.0,-1527.0,188.0,-37.0,145.0,215.0,126,119,106,99,60,419,605,439
2025-02-20 16:40:11.571,322.0,-1248.0,217.0,-4.0,81.0,229.0,126,120,104,99,62,240,628,457
2025-02-20 16:40:11.587,260.0,-1042.0,399.0,9.0,49.0,239.0,131,122,104,101,64,208,533,454
2025-02-20 16:40:11.607,311.0,-1141.0,639.0,29.0,81.0,212.0,131,122,106,92,67,293,383,436
2025-02-20 16:40:11.628,245.0,-1045.0,488.0,45.0,107.0,202.0,131,124,107,89,67,371,471,459
2025-02-20 16:40:11.645,217.0,-953.0,353.0,48.0,109.0,231.0,134,125,107,88,67,428,580,489
2025-02-20 16:40:11.665,120.0,-624.0,391.0,21.0,86.0,264.0,134,125,107,86,68,424,584,470
2025-02-20 16:40:11.681,-47.0,-334.0,427.0,-40.0,80.0,266.0,135,125,108,88,68,468,542,452
2025-02-20 16:40:11.702,-161.0,-208.0,437.0,-55.0,83.0,251.0,136,121,109,86,67,540,489,435
2025-02-20 16:40:11.722,-274.0,-170.0,483.0,-44.0,117.0,237.0,137,120,107,86,66,640,448,438
2025-02-20 16:40:11.742,-295.0,-116.0,395.0,11.0,149.0,210.0,139,119,106,86,66,661,380,463
2025-02-20 16:40:11.759,-488.0,38.0,276.0,81.0,154.0,169.0,139,118,107,86,67,664,323,481
2025-02-20 16:40:11.779,-578.0,274.0,57.0,140.0,134.0,126.0,140,119,108,87,68,789,364,485
2025-02-20 16:40:11.799,-775.0,1082.0,-64.0,139.0,103.0,38.0,139,119,107,87,67,791,394,489
2025-02-20 16:40:11.816,-1131.0,1515.0,-715.0,63.0,-8.0,-111.0,141,118,107,86,68,731,399,480
2025-02-20 16:40:11.833,-1311.0,1239.0,-1099.0,116.0,-178.0,-341.0,139,119,108,86,67,679,412,459
2025-02-20 16:40:11.857,-686.0,1020.0,-833.0,222.0,-400.0,-531.0,139,119,109,88,69,606,395,447
2025-02-20 16:40:11.874,792.0,625.0,-448.0,129.0,-594.0,-633.0,138,121,108,89,73,503,351,447
2025-02-20 16:40:11.893,2775.0,-210.0,163.0,4.0,-713.0,-594.0,140,123,109,93,77,323,360,465
2025-02-20 16:40:11.911,3405.0,-3005.0,1729.0,-76.0,-508.0,-405.0,139,123,108,96,83,348,474,479
2025-02-20 16:40:11.931,3307.0,-3896.0,2121.0,13.0,-120.0,-33.0,139,123,109,99,80,411,569,455
2025-02-20 16:40:11.951,2084.0,-2446.0,1651.0,1.0,144.0,152.0,140,120,108,99,80,393,605,433
2025-02-20 16:40:11.970,901.0,-1311.0,994.0,-69.0,163.0,182.0,141,118,107,100,78,305,647,437
2025-02-20 16:40:11.989,458.0,-1269.0,625.0,-89.0,115.0,168.0,140,117,107,103,79,249,610,418
2025-02-20 16:40:12.008,413.0,-1476.0,542.0,-71.0,96.0,191.0,140,114,106,102,82,224,534,428
2025-02-20 16:40:12.025,446.0,-1293.0,572.0,-56.0,106.0,242.0,141,118,105,101,88,273,491,448
2025-02-20 16:40:12.045,336.0,-1086.0,603.0,-48.0,120.0,251.0,141,120,104,102,92,424,548,462
2025-02-20 16:40:12.063,262.0,-1070.0,664.0,-81.0,127.0,258.0,141,116,100,104,92,467,471,491
2025-02-20 16:40:12.082,195.0,-939.0,673.0,-140.0,128.0,281.0,144,104,92,99,89,509,406,508
2025-02-20 16:40:12.101,73.0,-684.0,562.0,-200.0,112.0,325.0,144,87,82,102,82,476,372,499
2025-02-20 16:40:12.119,7.0,-516.0,612.0,-155.0,135.0,341.0,147,81,76,102,76,401,412,473
2025-02-20 16:40:12.140,-20.0,-468.0,363.0,-104.0,150.0,313.0,144,74,71,98,71,359,503,467
2025-02-20 16:40:12.160,61.0,-314.0,134.0,-63.0,184.0,293.0,146,70,68,95,70,433,527,488
2025-02-20 16:40:12.177,-538.0,0.0,-202.0,33.0,154.0,203.0,146,66,64,92,71,474,489,479
2025-02-20 16:40:12.197,-546.0,187.0,-180.0,112.0,110.0,123.0,146,64,61,85,66,562,470,460
2025-02-20 16:40:12.215,-549.0,417.0,-219.0,148.0,87.0,96.0,146,64,59,84,65,642,430,461
2025-02-20 16:40:12.235,-904.0,1221.0,-281.0,221.0,48.0,-13.0,147,61,56,81,62,679,394,453
2025-02-20 16:40:12.252,-1009.0,2158.0,-502.0,272.0,-14.0,-193.0,147,59,53,82,58,699,409,460
2025-02-20 16:40:12.275,-1120.0,2345.0,-831.0,214.0,-92.0,-417.0,145,58,52,81,54,684,434,467
2025-02-20 16:40:12.292,-847.0,1927.0,-1371.0,102.0,-338.0,-667.0,145,56,51,84,55,590,398,462
2025-02-20 16:40:12.311,719.0,1227.0,-1685.0,-98.0,-691.0,-768.0,145,55,51,84,59,402,333,450
2025-02-20 16:40:12.329,4061.0,-1848.0,-893.0,-253.0,-896.0,-554.0,144,57,51,83,63,341,299,434
2025-02-20 16:40:12.348,4852.0,-5223.0,2886.0,-231.0,-376.0,-197.0,146,57,51,82,65,333,362,447
2025-02-20 16:40:12.368,3319.0,-4826.0,1253.0,51.0,111.0,-58.0,145,55,49,76,64,398,500,458
2025-02-20 16:40:12.385,789.0,-2341.0,-182.0,248.0,204.0,46.0,147,52,49,71,59,411,607,487
2025-02-20 16:40:12.406,70.0,-1009.0,-489.0,-27.0,28.0,113.0,148,54,50,72,61,279,683,464
2025-02-20 16:40:12.426,679.0,-1567.0,174.0,-105.0,-34.0,166.0,148,58,53,84,63,187,655,481
2025-02-20 16:40:12.443,942.0,-2347.0,753.0,18.0,68.0,214.0,147,59,54,88,66,298,514,493
2025-02-20 16:40:12.464,736.0,-1649.0,532.0,51.0,182.0,288.0,146,58,56,83,67,417,435,469
2025-02-20 16:40:12.480,129.0,-273.0,309.0,80.0,95.0,203.0,147,60,57,85,68,427,431,506
2025-02-20 16:40:12.501,-101.0,-495.0,302.0,-44.0,50.0,206.0,148,60,55,80,66,465,437,514
2025-02-20 16:40:12.521,-89.0,-668.0,364.0,-110.0,26.0,245.0,145,60,50,73,66,457,511,487
2025-02-20 16:40:12.537,-129.0,-613.0,246.0,-129.0,17.0,269.0,146,58,51,72,65,465,550,473
2025-02-20 16:40:12.557,-33.0,168.0,379.0,-50.0,36.0,197.0,147,59,56,71,66,482,504,466
2025-02-20 16:40:12.577,-59.0,-329.0,406.0,51.0,98.0,102.0,148,59,56,72,66,502,451,466
2025-02-20 16:40:12.595,-276.0,-209.0,386.0,85.0,121.0,134.0,148,60,55,69,68,613,466,483
2025-02-20 16:40:12.615,-471.0,-21.0,214.0,118.0,117.0,146.0,147,62,54,70,67,796,415,482
2025-02-20 16:40:12.635,-613.0,791.0,335.0,143.0,90.0,119.0,148,63,58,71,68,813,391,483
2025-02-20 16:40:12.652,-759.0,1893.0,141.0,204.0,105.0,-87.0,149,63,59,73,69,739,372,480
2025-02-20 16:40:12.670,-1114.0,2238.0,-583.0,133.0,57.0,-305.0,148,64,58,77,68,634,388,470
2025-02-20 16:40:12.692,-982.0,1780.0,-941.0,27.0,-168.0,-497.0,148,63,59,81,66,529,394,478
2025-02-20 16:40:12.707,143.0,1025.0,-1213.0,-77.0,-370.0,-619.0,145,63,59,86,68,427,365,509
2025-02-20 16:40:12.730,1889.0,-1009.0,-1032.0,-130.0,-570.0,-492.0,142,63,59,86,70,340,320,514
2025-02-20 16:40:12.749,3411.0,-3517.0,598.0,-123.0,-497.0,-296.0,144,63,60,89,74,351,348,496
2025-02-20 16:40:12.767,3567.0,-5012.0,2004.0,-57.0,-62.0,-124.0,143,64,58,86,75,331,480,475
2025-02-20 16:40:12.787,1773.0,-3439.0,359.0,131.0,198.0,-22.0,146,60,57,79,72,301,603,462
2025-02-20 16:40:12.803,501.0,-1994.0,-320.0,44.0,143.0,91.0,146,58,58,75,69,268,626,449
2025-02-20 16:40:12.824,480.0,-1337.0,73.0,-14.0,1.0,159.0,144,60,60,83,71,309,648,431
2025-02-20 16:40:12.844,644.0,-2012.0,591.0,-23.0,41.0,204.0,145,65,64,89,75,261,602,413
2025-02-20 16:40:12.858,696.0,-1593.0,586.0,40.0,91.0,235.0,144,67,65,88,77,335,579,408
2025-02-20 16:40:12.881,561.0,-1271.0,628.0,96.0,154.0,219.0,145,70,67,87,78,476,598,446
2025-02-20 16:40:12.900,353.0,-945.0,381.0,39.0,174.0,225.0,143,69,65,85,78,463,513,461
2025-02-20 16:40:12.918,143.0,-625.0,326.0,30.0,184.0,239.0,142,70,66,83,78,512,442,472
2025-02-20 16:40:12.937,-24.0,-612.0,454.0,34.0,153.0,241.0,144,68,67,85,75,469,431,485
2025-02-20 16:40:12.955,42.0,-505.0,429.0,-31.0,158.0,255.0,144,66,66,89,73,371,419,443
2025-02-20 16:40:12.975,28.0,-416.0,299.0,-79.0,238.0,254.0,144,66,67,93,72,368,405,431
2025-02-20 16:40:12.996,-167.0,-426.0,218.0,33.0,177.0,255.0,143,67,66,93,72,469,431,474
2025-02-20 16:40:13.013,0.0,-268.0,185.0,130.0,210.0,264.0,144,67,67,93,74,548,423,492
2025-02-20 16:40:13.032,-420.0,-52.0,-176.0,184.0,216.0,245.0,144,65,66,92,74,610,436,500
2025-02-20 16:40:13.052,-679.0,417.0,-343.0,258.0,144.0,232.0,144,62,63,92,74,663,498,498
2025-02-20 16:40:13.069,-794.0,1251.0,-417.0,291.0,86.0,172.0,144,60,61,89,72,622,502,492
2025-02-20 16:40:13.089,-1233.0,2217.0,-823.0,238.0,11.0,-82.0,143,60,57,82,66,608,465,472
2025-02-20 16:40:13.110,-1701.0,2113.0,-1596.0,233.0,-206.0,-353.0,140,59,53,75,59,590,427,453
2025-02-20 16:40:13.127,-1188.0,1442.0,-2349.0,310.0,-589.0,-595.0,123,59,50,69,62,521,374,441
2025-02-20 16:40:13.147,2235.0,727.0,-2035.0,319.0,-1011.0,-634.0,114,58,53,70,66,317,289,447
2025-02-20 16:40:13.168,5036.0,-1495.0,3548.0,307.0,-882.0,-365.0,119,59,52,72,68,274,248,418
2025-02-20 16:40:13.184,4076.0,-2870.0,5431.0,190.0,-66.0,-12.0,117,60,54,70,64,510,330,481
2025-02-20 16:40:13.205,2079.0,-1113.0,3800.0,39.0,275.0,-30.0,109,60,52,67,59,552,416,501
2025-02-20 16:40:13.221,806.0,-1086.0,1974.0,-114.0,269.0,57.0,103,59,52,69,56,479,519,526
2025-02-20 16:40:13.240,420.0,-787.0,1175.0,-276.0,247.0,115.0,103,60,54,68,61,440,577,501
2025-02-20 16:40:13.261,117.0,-1091.0,743.0,-272.0,190.0,130.0,103,60,54,71,64,335,621,370
2025-02-20 16:40:13.276,116.0,-1183.0,704.0,-224.0,182.0,166.0,106,60,56,74,67,349,549,382
2025-02-20 16:40:13.299,10.0,-936.0,612.0,-166.0,201.0,190.0,110,61,56,73,67,458,515,497
2025-02-20 16:40:13.319,-189.0,-670.0,647.0,-132.0,185.0,182.0,111,60,57,72,67,556,569,573
2025-02-20 16:40:13.336,-183.0,-394.0,611.0,-133.0,178.0,155.0,114,59,57,70,66,601,596,562
2025-02-20 16:40:13.356,-337.0,-369.0,467.0,-127.0,173.0,124.0,115,60,57,70,64,616,559,522
2025-02-20 16:40:13.377,-392.0,-384.0,291.0,-103.0,167.0,118.0,115,60,57,70,64,531,559,489
2025-02-20 16:40:13.393,-252.0,-385.0,292.0,-77.0,192.0,132.0,115,59,58,72,67,471,436,452
2025-02-20 16:40:13.413,-431.0,-244.0,164.0,-55.0,185.0,133.0,119,61,59,72,67,415,380,418
2025-02-20 16:40:13.429,-480.0,-92.0,-7.0,-32.0,161.0,116.0,125,61,60,71,69,384,370,426
2025-02-20 16:40:13.450,-546.0,32.0,-52.0,-6.0,116.0,93.0,123,63,61,72,70,472,398,434
2025-02-20 16:40:13.471,-581.0,251.0,-200.0,-2.0,86.0,84.0,119,61,60,73,69,536,438,447
2025-02-20 16:40:13.487,-744.0,552.0,-542.0,19.0,35.0,52.0,126,65,60,72,68,549,482,444
2025-02-20 16:40:13.507,-1048.0,1003.0,-1235.0,151.0,-43.0,-96.0,121,62,61,73,68,522,481,451
2025-02-20 16:40:13.528,-1634.0,1347.0,-2401.0,328.0,-250.0,-305.0,113,61,58,72,63,503,451,448
2025-02-20 16:40:13.543,-787.0,1339.0,-2775.0,409.0,-722.0,-448.0,109,60,59,69,63,521,419,467
2025-02-20 16:40:13.565,2258.0,900.0,-1392.0,321.0,-984.0,-431.0,112,60,57,68,67,419,337,474
2025-02-20 16:40:13.586,4697.0,-1312.0,1827.0,318.0,-914.0,-275.0,121,61,58,76,69,372,318,485
2025-02-20 16:40:13.603,4093.0,-2138.0,5031.0,403.0,-284.0,-33.0,128,62,60,72,71,374,339,483
2025-02-20 16:40:13.623,2507.0,-450.0,4976.0,211.0,189.0,-37.0,128,62,59,76,69,447,326,448
2025-02-20 16:40:13.639,1182.0,-345.0,3051.0,-111.0,368.0,5.0,129,63,60,75,70,345,481,402
2025-02-20 16:40:13.659,504.0,-486.0,1467.0,-253.0,337.0,61.0,133,63,61,76,71,348,600,387
2025-02-20 16:40:13.680,117.0,-868.0,1021.0,-271.0,280.0,77.0,133,63,61,75,75,195,624,324
2025-02-20 16:40:13.695,237.0,-1162.0,768.0,-217.0,265.0,118.0,133,64,59,77,77,348,548,420
2025-02-20 16:40:13.717,91.0,-873.0,597.0,-184.0,267.0,182.0,135,64,63,79,77,481,544,517
2025-02-20 16:40:13.737,-179.0,-524.0,393.0,-176.0,229.0,195.0,136,65,64,79,76,613,553,581
2025-02-20 16:40:13.752,-256.0,-459.0,422.0,-170.0,200.0,183.0,138,64,67,82,75,633,518,594
2025-02-20 16:40:13.774,-266.0,-401.0,358.0,-159.0,182.0,187.0,138,67,70,84,76,641,502,557
2025-02-20 16:40:13.791,-289.0,-516.0,287.0,-100.0,174.0,189.0,138,70,71,84,76,587,492,516
2025-02-20 16:40:13.810,-177.0,-366.0,239.0,-23.0,205.0,195.0,138,82,68,84,79,553,506,468
2025-02-20 16:40:13.831,-587.0,-231.0,83.0,59.0,197.0,181.0,139,90,68,81,80,498,473,466
2025-02-20 16:40:13.845,-685.0,229.0,-182.0,97.0,163.0,150.0,140,94,66,80,80,512,427,445
2025-02-20 16:40:13.868,-845.0,509.0,-611.0,95.0,62.0,89.0,139,95,64,77,78,517,379,412
2025-02-20 16:40:13.888,-1329.0,697.0,-1299.0,176.0,-85.0,-65.0,139,96,59,72,71,547,337,432
2025-02-20 16:40:13.906,-1672.0,1331.0,-2139.0,284.0,-372.0,-225.0,128,98,55,68,65,497,397,462
2025-02-20 16:40:13.926,-672.0,1317.0,-2450.0,262.0,-722.0,-334.0,109,103,55,65,62,364,449,471
2025-02-20 16:40:13.946,1968.0,621.0,-1728.0,249.0,-1021.0,-316.0,95,106,54,67,63,296,447,459
2025-02-20 16:40:13.961,3535.0,-77.0,-218.0,320.0,-1096.0,-258.0,98,108,53,67,67,272,386,421
2025-02-20 16:40:13.983,3658.0,-580.0,1905.0,413.0,-907.0,-140.0,110,111,52,69,72,410,360,440
2025-02-20 16:40:14.003,3310.0,-209.0,3621.0,419.0,-448.0,-51.0,124,115,54,70,75,514,439,442
2025-02-20 16:40:14.020,2397.0,739.0,4532.0,146.0,-43.0,-27.0,126,117,53,72,78,464,473,429
2025-02-20 16:40:14.040,1927.0,402.0,3303.0,-121.0,279.0,7.0,125,118,54,72,78,503,498,414
2025-02-20 16:40:14.061,1180.0,157.0,1680.0,-198.0,355.0,35.0,121,117,54,71,76,382,512,450
2025-02-20 16:40:14.078,848.0,29.0,999.0,-240.0,350.0,47.0,121,118,54,74,75,337,518,425
2025-02-20 16:40:14.098,679.0,-327.0,809.0,-219.0,319.0,75.0,120,117,53,73,75,413,467,461
2025-02-20 16:40:14.115,570.0,-650.0,785.0,-183.0,295.0,106.0,118,116,54,72,73,485,469,539
2025-02-20 16:40:14.135,383.0,-219.0,871.0,-177.0,283.0,96.0,117,117,55,73,75,539,568,535
2025-02-20 16:40:14.155,339.0,-422.0,927.0,-143.0,291.0,97.0,115,116,54,72,74,530,613,554
2025-02-20 16:40:14.172,335.0,-333.0,911.0,-135.0,343.0,108.0,117,117,54,74,76,508,602,536
2025-02-20 16:40:14.191,15.0,-277.0,597.0,-134.0,356.0,118.0,114,116,55,74,74,458,560,509
2025-02-20 16:40:14.208,-182.0,-345.0,367.0,-105.0,290.0,130.0,113,116,56,73,73,375,493,493
2025-02-20 16:40:14.229,-163.0,-275.0,381.0,-110.0,247.0,133.0,112,116,56,73,74,269,399,483
2025-02-20 16:40:14.250,-160.0,-170.0,387.0,-125.0,233.0,135.0,115,115,56,73,73,233,347,439
2025-02-20 16:40:14.269,-414.0,-249.0,270.0,-105.0,214.0,123.0,118,115,57,72,75,303,392,433
2025-02-20 16:40:14.287,-449.0,-297.0,53.0,-47.0,189.0,112.0,117,114,57,70,74,420,448,430
2025-02-20 16:40:14.306,-617.0,-249.0,-57.0,11.0,127.0,90.0,113,114,57,70,74,519,521,434
2025-02-20 16:40:14.323,-589.0,109.0,-60.0,27.0,89.0,79.0,115,114,57,69,73,558,527,437
2025-02-20 16:40:14.342,-660.0,451.0,-246.0,14.0,40.0,53.0,115,113,57,69,72,581,487,440
2025-02-20 16:40:14.361,-1417.0,1072.0,-1421.0,14.0,-106.0,-67.0,108,113,56,69,69,589,445,444
2025-02-20 16:40:14.380,-1867.0,1440.0,-2345.0,163.0,-384.0,-307.0,98,113,55,67,63,573,410,438
2025-02-20 16:40:14.401,-280.0,1393.0,-2850.0,255.0,-863.0,-430.0,91,114,56,65,63,519,367,464
2025-02-20 16:40:14.421,2730.0,174.0,-1413.0,266.0,-1060.0,-330.0,93,114,54,67,66,475,348,484
2025-02-20 16:40:14.438,4158.0,-271.0,436.0,281.0,-1067.0,-282.0,100,116,55,70,70,503,338,463
2025-02-20 16:40:14.457,3952.0,-2163.0,3292.0,437.0,-653.0,-102.0,115,117,54,70,75,552,285,446
2025-02-20 16:40:14.478,3257.0,-62.0,4598.0,328.0,-146.0,14.0,122,117,58,72,80,567,279,421
2025-02-20 16:40:14.495,2136.0,406.0,4552.0,-81.0,213.0,23.0,125,118,58,74,84,463,465,405
2025-02-20 16:40:14.513,1751.0,113.0,2490.0,-319.0,419.0,58.0,128,118,58,76,83,451,626,407
2025-02-20 16:40:14.535,1317.0,-449.0,1357.0,-355.0,481.0,85.0,130,118,61,80,85,339,704,441
2025-02-20 16:40:14.547,819.0,-680.0,793.0,-287.0,455.0,136.0,129,116,59,80,86,413,637,448
2025-02-20 16:40:14.572,494.0,-498.0,901.0,-271.0,392.0,177.0,128,116,59,77,83,384,563,480
2025-02-20 16:40:14.590,358.0,-375.0,738.0,-298.0,351.0,175.0,128,116,59,77,81,477,535,548
2025-02-20 16:40:14.610,176.0,-426.0,619.0,-304.0,329.0,183.0,131,113,60,77,82,477,475,584
2025-02-20 16:40:14.628,45.0,-652.0,517.0,-251.0,304.0,200.0,130,111,62,77,86,402,452,583
2025-02-20 16:40:14.647,169.0,-763.0,330.0,-172.0,305.0,245.0,130,111,64,77,85,302,396,527
2025-02-20 16:40:14.667,-122.0,-652.0,114.0,-38.0,303.0,256.0,135,112,67,79,91,228,373,465
2025-02-20 16:40:14.687,-203.0,-305.0,10.0,98.0,306.0,236.0,130,112,73,85,95,277,357,447
2025-02-20 16:40:14.704,-625.0,212.0,-304.0,112.0,271.0,157.0,129,108,78,95,98,366,463,443
2025-02-20 16:40:14.724,-824.0,-2.0,-47.0,36.0,185.0,111.0,126,108,81,102,101,443,524,442
2025-02-20 16:40:14.743,-543.0,125.0,-239.0,38.0,132.0,75.0,121,108,83,106,102,510,529,467
2025-02-20 16:40:14.760,-845.0,421.0,-542.0,53.0,62.0,44.0,119,109,85,110,103,684,534,469
2025-02-20 16:40:14.780,-958.0,811.0,-803.0,81.0,-51.0,-20.0,117,108,86,111,105,753,516,465
2025-02-20 16:40:14.802,-1085.0,1463.0,-1312.0,51.0,-200.0,-164.0,115,109,87,113,109,733,496,463
2025-02-20 16:40:14.819,-1147.0,1579.0,-1443.0,51.0,-359.0,-355.0,114,110,88,115,115,678,483,467
2025-02-20 16:40:14.839,-632.0,1307.0,-1047.0,-11.0,-554.0,-571.0,116,113,92,119,120,586,468,469
2025-02-20 16:40:14.856,938.0,1106.0,-947.0,-106.0,-723.0,-696.0,117,117,96,123,123,417,439,475
2025-02-20 16:40:14.875,2921.0,-459.0,-319.0,-314.0,-942.0,-592.0,119,122,98,126,124,259,391,490
2025-02-20 16:40:14.894,2860.0,-2877.0,454.0,-241.0,-786.0,-320.0,117,126,100,127,125,263,324,487
2025-02-20 16:40:14.913,3608.0,-3879.0,1071.0,-41.0,-378.0,-10.0,116,125,103,130,127,506,343,456
2025-02-20 16:40:14.934,2879.0,-3370.0,1362.0,141.0,20.0,63.0,120,128,104,130,128,583,444,455
2025-02-20 16:40:14.953,1617.0,-2066.0,1020.0,143.0,216.0,44.0,121,126,103,130,128,485,517,442
2025-02-20 16:40:14.971,499.0,-1406.0,889.0,110.0,291.0,111.0,124,125,103,131,128,363,565,433
2025-02-20 16:40:14.990,330.0,-1094.0,755.0,54.0,234.0,189.0,123,124,104,131,128,220,559,473
2025-02-20 16:40:15.008,227.0,-962.0,767.0,2.0,201.0,196.0,123,125,103,132,127,272,449,497
2025-02-20 16:40:15.027,227.0,-980.0,678.0,-81.0,165.0,179.0,122,130,104,131,128,347,466,517
2025-02-20 16:40:15.048,430.0,-1436.0,492.0,-101.0,170.0,169.0,118,126,105,133,128,482,518,488
2025-02-20 16:40:15.064,203.0,-1293.0,520.0,-18.0,180.0,223.0,121,129,105,131,128,534,563,472
2025-02-20 16:40:15.082,150.0,-861.0,489.0,-42.0,182.0,238.0,122,129,104,132,127,520,486,493
2025-02-20 16:40:15.105,-101.0,-502.0,376.0,-122.0,169.0,214.0,123,125,104,133,128,502,449,474
2025-02-20 16:40:15.122,-176.0,-203.0,494.0,-217.0,134.0,208.0,122,124,104,132,130,448,450,454
2025-02-20 16:40:15.142,-89.0,-662.0,-404.0,-265.0,103.0,199.0,124,123,104,131,127,430,386,466
2025-02-20 16:40:15.163,-193.0,-414.0,422.0,-69.0,159.0,201.0,124,120,103,131,128,449,389,501
2025-02-20 16:40:15.179,-389.0,-176.0,199.0,43.0,130.0,180.0,123,120,103,132,127,531,468,494
2025-02-20 16:40:15.197,-425.0,-2.0,152.0,91.0,96.0,169.0,125,119,103,132,126,649,534,513
2025-02-20 16:40:15.217,-456.0,98.0,89.0,189.0,99.0,153.0,124,119,103,132,126,653,509,519
2025-02-20 16:40:15.236,-666.0,519.0,-1.0,287.0,92.0,123.0,124,119,103,132,126,631,473,507
2025-02-20 16:40:15.256,-1039.0,1447.0,-225.0,256.0,77.0,16.0,125,120,103,132,127,569,453,481
2025-02-20 16:40:15.276,-1204.0,1599.0,-777.0,204.0,-31.0,-219.0,123,119,103,131,128,508,420,457
2025-02-20 16:40:15.294,-961.0,1884.0,-1309.0,147.0,-273.0,-491.0,121,120,103,132,130,476,398,445
2025-02-20 16:40:15.310,-63.0,898.0,-747.0,-1.0,-467.0,-704.0,121,123,104,132,130,412,374,406
2025-02-20 16:40:15.331,1465.0,-240.0,37.0,-136.0,-740.0,-712.0,120,123,105,132,131,284,350,387
2025-02-20 16:40:15.351,3062.0,-1390.0,89.0,-155.0,-763.0,-541.0,119,126,105,133,131,263,287,420
2025-02-20 16:40:15.371,3104.0,-3646.0,67.0,-111.0,-475.0,-167.0,116,128,106,134,130,398,224,458
2025-02-20 16:40:15.388,3114.0,-3783.0,1485.0,77.0,-126.0,55.0,120,129,108,135,132,540,440,486
2025-02-20 16:40:15.408,2090.0,-2610.0,1225.0,130.0,158.0,85.0,120,128,106,133,132,466,535,496
2025-02-20 16:40:15.428,851.0,-1659.0,1061.0,120.0,281.0,107.0,124,126,107,134,131,316,612,448
2025-02-20 16:40:15.446,415.0,-1048.0,787.0,52.0,268.0,150.0,123,126,107,134,132,166,663,370
2025-02-20 16:40:15.464,199.0,-1025.0,701.0,-34.0,206.0,171.0,124,126,106,134,130,243,588,386
2025-02-20 16:40:15.485,305.0,-1184.0,604.0,-88.0,182.0,154.0,125,128,105,134,130,410,548,462
2025-02-20 16:40:15.503,391.0,-1247.0,579.0,-73.0,215.0,151.0,125,129,106,133,129,485,570,492
2025-02-20 16:40:15.523,286.0,-1097.0,527.0,-37.0,239.0,178.0,125,129,104,133,128,529,549,514
2025-02-20 16:40:15.540,140.0,-767.0,323.0,-75.0,244.0,227.0,127,127,99,130,119,612,428,474
2025-02-20 16:40:15.560,-73.0,-575.0,21.0,-149.0,170.0,286.0,128,123,91,128,107,548,398,445
2025-02-20 16:40:15.579,-70.0,-516.0,28.0,-79.0,232.0,315.0,132,117,82,122,98,521,467,441
2025-02-20 16:40:15.597,-161.0,23.0,168.0,-17.0,214.0,326.0,132,114,76,115,89,553,445,418
2025-02-20 16:40:15.617,-397.0,-153.0,27.0,123.0,197.0,310.0,134,112,70,104,82,611,430,448
2025-02-20 16:40:15.637,-339.0,-52.0,-264.0,252.0,190.0,261.0,133,110,64,91,79,646,443,469
2025-02-20 16:40:15.654,-377.0,379.0,-330.0,348.0,167.0,213.0,133,107,58,77,74,727,416,475
2025-02-20 16:40:15.675,-737.0,645.0,-894.0,387.0,87.0,89.0,131,104,52,66,71,743,425,502
2025-02-20 16:40:15.695,-1373.0,1151.0,-1791.0,347.0,-122.0,-93.0,125,103,52,60,60,695,433,492
2025-02-20 16:40:15.712,-1268.0,1443.0,-2016.0,351.0,-450.0,-288.0,105,104,51,59,55,586,428,494
2025-02-20 16:40:15.729,419.0,1505.0,-2188.0,264.0,-953.0,-423.0,92,107,52,59,53,490,416,495
2025-02-20 16:40:15.749,3541.0,-83.0,-933.0,225.0,-1200.0,-334.0,88,112,51,59,55,407,389,469
2025-02-20 16:40:15.769,4237.0,-1609.0,1299.0,379.0,-1055.0,-115.0,98,115,49,61,60,425,357,439
2025-02-20 16:40:15.789,3411.0,-878.0,3711.0,387.0,-537.0,-13.0,106,118,51,64,62,523,383,471
2025-02-20 16:40:15.806,2800.0,-386.0,4324.0,238.0,-76.0,10.0,109,119,53,65,61,535,490,496
2025-02-20 16:40:15.827,1602.0,159.0,3499.0,-74.0,254.0,10.0,108,120,53,66,65,373,562,481
2025-02-20 16:40:15.845,1093.0,-65.0,1587.0,-191.0,337.0,26.0,101,118,54,65,65,329,598,451
2025-02-20 16:40:15.863,899.0,-535.0,1186.0,-222.0,352.0,85.0,100,116,54,65,66,246,639,451
2025-02-20 16:40:15.884,566.0,-699.0,1052.0,-165.0,314.0,117.0,104,116,53,68,65,353,560,438
2025-02-20 16:40:15.904,422.0,-545.0,1085.0,-159.0,325.0,153.0,106,117,54,67,69,432,500,482
2025-02-20 16:40:15.920,360.0,-455.0,911.0,-157.0,326.0,171.0,106,116,54,64,70,511,549,549
2025-02-20 16:40:15.941,61.0,-292.0,754.0,-135.0,279.0,147.0,104,117,52,68,69,487,536,556
2025-02-20 16:40:15.958,40.0,-256.0,800.0,-115.0,274.0,109.0,104,117,53,67,69,467,487,538
2025-02-20 16:40:15.978,35.0,-246.0,666.0,-96.0,308.0,101.0,105,117,53,68,70,477,414,509
2025-02-20 16:40:15.997,-289.0,-263.0,393.0,-82.0,288.0,96.0,108,119,52,68,69,327,366,436
2025-02-20 16:40:16.014,-366.0,-229.0,311.0,-59.0,251.0,99.0,109,117,54,67,69,225,320,391
2025-02-20 16:40:16.035,-420.0,-150.0,164.0,-54.0,206.0,100.0,108,117,54,66,69,239,373,352
2025-02-20 16:40:16.055,-442.0,-125.0,101.0,-41.0,160.0,96.0,110,117,55,66,69,264,489,396
2025-02-20 16:40:16.072,-543.0,35.0,-85.0,-23.0,119.0,91.0,109,114,55,66,70,436,550,421
2025-02-20 16:40:16.092,-690.0,402.0,-385.0,0.0,57.0,71.0,108,113,55,66,71,645,591,443
2025-02-20 16:40:16.113,-1268.0,1050.0,-1394.0,93.0,-72.0,-100.0,102,111,53,64,69,735,575,445
2025-02-20 16:40:16.129,-1749.0,1250.0,-2178.0,247.0,-402.0,-337.0,94,109,54,65,64,668,475,433
2025-02-20 16:40:16.149,-265.0,1292.0,-2188.0,237.0,-784.0,-395.0,89,110,53,66,61,547,424,444
2025-02-20 16:40:16.170,2464.0,210.0,-1105.0,255.0,-1045.0,-297.0,88,113,54,65,62,450,369,472
2025-02-20 16:40:16.185,4013.0,-626.0,790.0,307.0,-1024.0,-227.0,95,113,53,66,65,474,352,497
2025-02-20 16:40:16.207,3746.0,-1458.0,3596.0,443.0,-563.0,-14.0,107,115,53,66,68,576,428,485
2025-02-20 16:40:16.220,2893.0,-176.0,4419.0,309.0,-36.0,31.0,113,115,56,69,71,510,429,467
2025-02-20 16:40:16.244,1873.0,468.0,3583.0,-76.0,271.0,-3.0,119,116,57,73,73,426,469,474
2025-02-20 16:40:16.264,1161.0,294.0,1616.0,-311.0,416.0,18.0,122,114,58,77,80,370,452,443
2025-02-20 16:40:16.281,1021.0,-439.0,978.0,-342.0,400.0,67.0,123,113,59,78,82,213,485,344
2025-02-20 16:40:16.301,618.0,-798.0,895.0,-251.0,360.0,130.0,124,113,58,79,82,354,422,348
2025-02-20 16:40:16.322,499.0,-642.0,930.0,-212.0,343.0,156.0,124,114,59,79,83,396,412,402
2025-02-20 16:40:16.336,453.0,-665.0,876.0,-202.0,353.0,176.0,128,114,58,79,83,575,531,533
2025-02-20 16:40:16.358,231.0,-450.0,627.0,-195.0,340.0,185.0,127,113,61,78,82,693,559,572
2025-02-20 16:40:16.375,24.0,-475.0,438.0,-173.0,308.0,182.0,129,114,63,77,82,593,545,566
2025-02-20 16:40:16.396,-126.0,-461.0,467.0,-157.0,279.0,191.0,129,114,67,74,79,503,552,524
2025-02-20 16:40:16.416,-78.0,-394.0,375.0,-90.0,301.0,199.0,130,114,72,73,78,348,527,505
2025-02-20 16:40:16.433,-140.0,-300.0,366.0,-40.0,325.0,183.0,128,112,78,74,79,224,432,474
2025-02-20 16:40:16.453,-466.0,-155.0,120.0,35.0,320.0,147.0,127,113,79,74,80,293,409,460
2025-02-20 16:40:16.473,-674.0,125.0,-147.0,78.0,273.0,103.0,130,113,80,76,80,362,403,439
2025-02-20 16:40:16.488,-788.0,577.0,-472.0,69.0,183.0,58.0,131,112,83,78,80,500,376,438
2025-02-20 16:40:16.510,-991.0,1090.0,-1213.0,47.0,58.0,-15.0,131,115,87,78,80,690,395,422
2025-02-20 16:40:16.531,-1446.0,1472.0,-1738.0,69.0,-135.0,-227.0,130,117,91,75,74,677,430,423
2025-02-20 16:40:16.548,-1244.0,1669.0,-1976.0,119.0,-418.0,-446.0,126,119,94,77,70,562,455,427
2025-02-20 16:40:16.567,-321.0,1231.0,-1757.0,67.0,-738.0,-592.0,120,123,95,80,69,467,466,444
2025-02-20 16:40:16.587,2177.0,614.0,-1144.0,-18.0,-1005.0,-514.0,116,124,97,80,73,349,458,474
2025-02-20 16:40:16.603,3904.0,-1521.0,489.0,-114.0,-1009.0,-403.0,119,126,99,81,78,343,429,480
2025-02-20 16:40:16.625,3822.0,-3434.0,2367.0,63.0,-481.0,-82.0,123,130,100,84,81,404,463,474
2025-02-20 16:40:16.640,3063.0,-2552.0,2456.0,167.0,-32.0,38.0,125,130,103,85,85,601,528,455
2025-02-20 16:40:16.662,1567.0,-1504.0,2368.0,117.0,248.0,36.0,126,130,103,84,85,563,534,449
2025-02-20 16:40:16.682,928.0,-1291.0,1465.0,10.0,327.0,68.0,128,131,103,83,86,371,494,446
2025-02-20 16:40:16.699,466.0,-1117.0,781.0,-53.0,297.0,139.0,126,130,104,83,84,276,439,443
2025-02-20 16:40:16.718,146.0,-712.0,653.0,-153.0,208.0,169.0,123,131,103,81,84,348,466,439
2025-02-20 16:40:16.736,127.0,-769.0,678.0,-211.0,161.0,173.0,124,131,104,79,81,447,458,486
2025-02-20 16:40:16.757,173.0,-1086.0,634.0,-158.0,151.0,185.0,125,131,104,80,81,437,529,454
2025-02-20 16:40:16.776,180.0,-1034.0,562.0,-70.0,181.0,202.0,124,131,105,80,80,582,517,475
2025-02-20 16:40:16.794,82.0,-631.0,589.0,-32.0,211.0,221.0,125,130,105,79,79,559,517,501
2025-02-20 16:40:16.813,-145.0,-417.0,458.0,-27.0,230.0,214.0,125,130,105,78,78,537,502,496
2025-02-20 16:40:16.834,-180.0,-501.0,500.0,-18.0,229.0,192.0,124,130,105,75,76,487,515,481
2025-02-20 16:40:16.851,-265.0,-419.0,278.0,27.0,244.0,170.0,124,129,107,75,75,442,466,504
2025-02-20 16:40:16.871,-488.0,-228.0,52.0,56.0,221.0,157.0,124,129,106,75,76,458,392,534
2025-02-20 16:40:16.891,-462.0,139.0,-34.0,68.0,190.0,131.0,124,129,106,75,76,552,388,519
2025-02-20 16:40:16.908,-564.0,518.0,-14.0,33.0,176.0,103.0,125,128,106,76,77,690,426,463
2025-02-20 16:40:16.928,-911.0,1104.0,-710.0,7.0,114.0,20.0,124,128,106,75,76,688,470,448
2025-02-20 16:40:16.948,-1518.0,1204.0,-1454.0,91.0,-94.0,-168.0,124,128,106,75,76,609,473,439
2025-02-20 16:40:16.966,-1470.0,1510.0,-1633.0,187.0,-319.0,-403.0,122,128,107,74,74,521,480,441
2025-02-20 16:40:16.985,-391.0,1099.0,-1154.0,153.0,-637.0,-531.0,118,130,106,76,76,408,460,451
2025-02-20 16:40:17.005,1772.0,711.0,-618.0,15.0,-861.0,-542.0,114,130,107,78,80,246,396,472
2025-02-20 16:40:17.023,3654.0,-1711.0,374.0,-90.0,-857.0,-419.0,119,131,108,79,84,196,348,496
2025-02-20 16:40:17.043,3518.0,-3662.0,2243.0,180.0,-400.0,-170.0,122,133,108,82,89,289,384,466
2025-02-20 16:40:17.060,2918.0,-2419.0,2520.0,269.0,40.0,38.0,124,132,108,86,92,418,452,453
2025-02-20 16:40:17.080,1360.0,-1191.0,2262.0,131.0,262.0,44.0,123,133,107,87,91,414,497,471
2025-02-20 16:40:17.100,740.0,-1042.0,1458.0,13.0,278.0,51.0,126,131,107,87,91,286,523,434
2025-02-20 16:40:17.117,522.0,-1168.0,1148.0,-39.0,276.0,88.0,129,132,106,89,92,258,582,378
2025-02-20 16:40:17.137,466.0,-1032.0,935.0,-85.0,290.0,141.0,130,131,104,92,91,406,568,410
2025-02-20 16:40:17.157,319.0,-952.0,875.0,-104.0,283.0,179.0,132,130,97,92,89,463,490,473
2025-02-20 16:40:17.173,187.0,-922.0,815.0,-112.0,271.0,203.0,130,128,87,89,89,539,474,510
2025-02-20 16:40:17.194,40.0,-750.0,677.0,-112.0,255.0,223.0,134,124,77,92,85,563,469,472
2025-02-20 16:40:17.214,30.0,-560.0,527.0,-94.0,248.0,226.0,136,121,68,92,84,560,464,468
2025-02-20 16:40:17.231,-66.0,-558.0,477.0,-75.0,259.0,226.0,138,118,59,86,80,514,482,460
2025-02-20 16:40:17.252,-195.0,-423.0,213.0,-22.0,268.0,225.0,136,118,59,83,78,434,474,491
2025-02-20 16:40:17.268,-463.0,-258.0,43.0,17.0,227.0,220.0,137,116,56,79,77,452,403,504
2025-02-20 16:40:17.288,-469.0,92.0,-127.0,23.0,174.0,204.0,134,116,55,73,76,467,384,518
2025-02-20 16:40:17.309,-651.0,359.0,-320.0,50.0,127.0,163.0,130,115,55,72,75,485,387,528
2025-02-20 16:40:17.325,-841.0,713.0,-820.0,107.0,60.0,47.0,121,113,54,71,72,624,430,497
2025-02-20 16:40:17.346,-1344.0,1004.0,-1437.0,244.0,-103.0,-107.0,108,112,52,68,68,744,458,454
2025-02-20 16:40:17.366,-1480.0,1223.0,-2157.0,306.0,-364.0,-244.0,96,110,52,65,62,730,445,441
2025-02-20 16:40:17.383,-152.0,1124.0,-2336.0,311.0,-797.0,-297.0,87,113,52,64,60,643,454,440
2025-02-20 16:40:17.403,2232.0,399.0,-1279.0,308.0,-986.0,-230.0,85,116,52,65,61,557,437,448
2025-02-20 16:40:17.423,3333.0,-141.0,81.0,353.0,-1010.0,-193.0,88,118,52,64,65,548,391,469
2025-02-20 16:40:17.440,3438.0,-737.0,1744.0,476.0,-793.0,-88.0,99,122,51,66,69,524,389,468
2025-02-20 16:40:17.457,3224.0,283.0,3554.0,503.0,-442.0,17.0,111,121,51,67,76,430,380,440
2025-02-20 16:40:17.478,2197.0,1091.0,4625.0,103.0,-25.0,9.0,122,123,54,71,80,320,470,407
2025-02-20 16:40:17.498,1691.0,686.0,3207.0,-165.0,269.0,12.0,123,123,53,73,80,332,490,382
2025-02-20 16:40:17.517,945.0,63.0,1791.0,-258.0,408.0,33.0,116,123,53,73,80,290,514,377
2025-02-20 16:40:17.535,922.0,-71.0,1112.0,-255.0,411.0,27.0,116,121,54,73,80,360,519,425
2025-02-20 16:40:17.553,748.0,-403.0,990.0,-230.0,410.0,50.0,117,120,55,74,81,260,560,440
2025-02-20 16:40:17.572,596.0,-458.0,895.0,-183.0,395.0,73.0,119,118,55,72,81,363,615,501
2025-02-20 16:40:17.592,249.0,-461.0,794.0,-147.0,348.0,85.0,110,119,54,72,78,538,619,565
2025-02-20 16:40:17.612,140.0,-423.0,786.0,-119.0,292.0,80.0,108,119,55,73,76,471,621,543
2025-02-20 16:40:17.632,39.0,-256.0,834.0,-134.0,284.0,70.0,108,119,56,72,75,364,560,476
2025-02-20 16:40:17.649,51.0,-156.0,661.0,-158.0,318.0,77.0,111,120,56,73,78,395,486,464
2025-02-20 16:40:17.669,-219.0,-237.0,380.0,-160.0,296.0,84.0,113,121,57,73,78,443,418,492
2025-02-20 16:40:17.689,-421.0,-401.0,196.0,-131.0,230.0,89.0,114,119,57,72,74,445,366,470
2025-02-20 16:40:17.706,-271.0,-312.0,219.0,-89.0,197.0,101.0,114,119,58,70,77,433,352,468
2025-02-20 16:40:17.725,-422.0,-95.0,41.0,-60.0,169.0,99.0,116,119,57,70,77,425,381,525
2025-02-20 16:40:17.743,-569.0,174.0,-177.0,-43.0,135.0,88.0,117,120,58,70,76,521,435,559
2025-02-20 16:40:17.764,-959.0,676.0,-1040.0,-27.0,31.0,31.0,115,120,57,68,76,631,466,524
2025-02-20 16:40:17.784,-1744.0,833.0,-1945.0,126.0,-258.0,-176.0,106,119,55,67,71,641,454,476
2025-02-20 16:40:17.802,-1167.0,1015.0,-1998.0,255.0,-556.0,-310.0,99,122,54,67,68,542,448,458
2025-02-20 16:40:17.821,654.0,637.0,-1690.0,250.0,-840.0,-291.0,94,122,55,67,68,452,445,458
2025-02-20 16:40:17.841,2916.0,325.0,-850.0,310.0,-1016.0,-258.0,98,124,55,67,70,444,430,472
2025-02-20 16:40:17.857,3493.0,-956.0,1204.0,387.0,-946.0,-173.0,105,125,54,68,72,475,383,481
2025-02-20 16:40:17.878,3432.0,-959.0,3077.0,477.0,-503.0,6.0,119,129,55,69,79,579,335,452
2025-02-20 16:40:17.898,2590.0,505.0,4354.0,238.0,-136.0,56.0,127,129,55,72,83,520,407,426
2025-02-20 16:40:17.915,2139.0,567.0,3801.0,-120.0,226.0,54.0,129,130,56,76,86,425,503,419
2025-02-20 16:40:17.936,1437.0,213.0,2111.0,-251.0,388.0,70.0,131,130,57,76,89,352,526,406
2025-02-20 16:40:17.955,1144.0,-274.0,1213.0,-270.0,437.0,87.0,133,128,57,78,91,460,560,386
2025-02-20 16:40:17.973,843.0,-589.0,933.0,-205.0,406.0,117.0,132,128,57,80,92,460,519,395
2025-02-20 16:40:17.993,722.0,-573.0,944.0,-166.0,379.0,160.0,133,128,57,79,90,392,535,420
2025-02-20 16:40:18.009,429.0,-187.0,921.0,-188.0,358.0,171.0,132,126,58,80,90,405,555,481
2025-02-20 16:40:18.030,235.0,-210.0,828.0,-226.0,332.0,169.0,133,124,60,80,90,421,573,515
2025-02-20 16:40:18.050,111.0,-258.0,758.0,-234.0,320.0,179.0,134,121,63,82,91,365,570,501
2025-02-20 16:40:18.067,-30.0,-312.0,615.0,-230.0,308.0,185.0,134,117,67,81,90,307,505,473
2025-02-20 16:40:18.087,-7.0,-299.0,510.0,-187.0,332.0,174.0,136,110,68,83,89,366,441,488
2025-02-20 16:40:18.108,-170.0,-266.0,413.0,-136.0,349.0,152.0,135,98,69,84,88,428,364,500
2025-02-20 16:40:18.124,-290.0,-50.0,117.0,-80.0,343.0,117.0,138,85,69,84,83,457,375,510
2025-02-20 16:40:18.142,-659.0,202.0,-30.0,-76.0,297.0,73.0,137,73,70,86,82,460,418,493
2025-02-20 16:40:18.160,-844.0,449.0,-400.0,-65.0,226.0,45.0,138,65,65,85,81,520,418,471
2025-02-20 16:40:18.182,-866.0,983.0,-623.0,-70.0,141.0,-24.0,137,60,63,83,78,716,432,465
2025-02-20 16:40:18.202,-1003.0,1373.0,-848.0,27.0,79.0,-147.0,136,58,61,80,73,745,452,461
2025-02-20 16:40:18.215,-1288.0,2031.0,-1242.0,78.0,-54.0,-363.0,133,56,57,76,68,677,465,465
2025-02-20 16:40:18.239,-1289.0,2268.0,-2026.0,201.0,-376.0,-599.0,122,53,55,71,66,568,476,453
2025-02-20 16:40:18.258,587.0,1271.0,-2057.0,148.0,-681.0,-728.0,117,51,52,69,65,422,445,444
2025-02-20 16:40:18.276,3043.0,-108.0,-1300.0,77.0,-977.0,-586.0,117,50,50,71,68,295,402,453
2025-02-20 16:40:18.296,4728.0,-2723.0,1282.0,90.0,-842.0,-339.0,120,52,50,69,71,282,366,458
2025-02-20 16:40:18.317,4292.0,-4066.0,3239.0,295.0,-179.0,-84.0,123,51,51,65,71,359,405,438
2025-02-20 16:40:18.334,2723.0,-2309.0,3167.0,308.0,217.0,-68.0,127,52,51,68,73,432,520,428
2025-02-20 16:40:18.354,1374.0,-1413.0,1971.0,121.0,364.0,10.0,125,53,51,70,73,312,538,435
2025-02-20 16:40:18.374,576.0,-1258.0,1321.0,-89.0,338.0,103.0,124,54,53,76,73,172,533,416
2025-02-20 16:40:18.390,339.0,-1260.0,851.0,-210.0,248.0,176.0,121,55,53,80,75,197,514,373
2025-02-20 16:40:18.410,250.0,-1013.0,760.0,-268.0,175.0,225.0,125,54,55,81,79,404,468,443
2025-02-20 16:40:18.427,327.0,-981.0,868.0,-269.0,169.0,233.0,125,55,56,79,79,596,478,484
2025-02-20 16:40:18.448,101.0,-908.0,643.0,-216.0,193.0,232.0,125,56,56,80,77,569,582,490
2025-02-20 16:40:18.468,-96.0,-857.0,364.0,-155.0,195.0,227.0,127,57,56,81,77,565,598,503
2025-02-20 16:40:18.485,-64.0,-583.0,252.0,-110.0,181.0,218.0,128,57,55,78,77,481,518,506
2025-02-20 16:40:18.505,-113.0,-516.0,191.0,-90.0,194.0,217.0,128,57,56,78,77,414,485,538
2025-02-20 16:40:18.524,-320.0,-553.0,-10.0,-69.0,179.0,210.0,129,59,58,80,78,380,431,541
2025-02-20 16:40:18.541,-356.0,-425.0,114.0,-12.0,138.0,195.0,127,56,58,78,80,406,369,515
2025-02-20 16:40:18.561,-190.0,-286.0,62.0,16.0,132.0,192.0,128,59,58,74,80,575,355,498
2025-02-20 16:40:18.578,-528.0,82.0,-41.0,27.0,110.0,167.0,129,60,57,72,79,674,384,488
2025-02-20 16:40:18.599,-520.0,363.0,-99.0,26.0,79.0,138.0,129,60,59,74,80,762,401,463
2025-02-20 16:40:18.620,-754.0,773.0,-407.0,45.0,40.0,82.0,129,59,61,74,81,701,414,453
2025-02-20 16:40:18.637,-1089.0,1475.0,-848.0,100.0,-42.0,-50.0,130,61,60,74,80,629,430,434
2025-02-20 16:40:18.657,-1494.0,2112.0,-1510.0,209.0,-182.0,-277.0,128,60,60,75,75,575,456,420
2025-02-20 16:40:18.668,-1111.0,2034.0,-1879.0,277.0,-451.0,-553.0,126,58,58,73,72,519,433,425
2025-02-20 16:40:18.694,876.0,1503.0,-1376.0,283.0,-792.0,-667.0,127,58,57,71,73,420,358,446
2025-02-20 16:40:18.715,3622.0,-748.0,-64.0,210.0,-945.0,-499.0,128,56,55,71,75,341,340,463
2025-02-20 16:40:18.735,4131.0,-3604.0,2508.0,389.0,-595.0,-234.0,132,59,53,68,77,284,404,484
2025-02-20 16:40:18.748,3421.0,-1713.0,3914.0,351.0,-70.0,-6.0,133,58,54,69,76,419,479,480
2025-02-20 16:40:18.771,1451.0,-262.0,3259.0,54.0,204.0,-9.0,134,62,55,70,78,397,527,467
2025-02-20 16:40:18.791,811.0,-890.0,1869.0,-146.0,285.0,71.0,132,58,56,73,81,266,539,437
2025-02-20 16:40:18.809,98.0,-1044.0,932.0,-132.0,279.0,107.0,130,58,57,82,86,153,553,315
2025-02-20 16:40:18.827,-18.0,-463.0,651.0,-71.0,246.0,37.0,129,58,58,83,89,255,580,377
2025-02-20 16:40:18.845,-134.0,-622.0,588.0,13.0,201.0,-22.0,132,59,57,83,87,459,530,467
2025-02-20 16:40:18.866,-158.0,-432.0,582.0,39.0,168.0,-42.0,133,59,58,83,86,666,537,553
2025-02-20 16:40:18.886,-268.0,-458.0,523.0,85.0,137.0,-81.0,134,61,57,84,87,743,535,563
2025-02-20 16:40:18.903,-184.0,-698.0,528.0,169.0,109.0,-85.0,136,61,57,84,87,731,485,530
2025-02-20 16:40:18.923,-193.0,-476.0,502.0,238.0,89.0,-92.0,135,62,57,84,85,639,455,502
2025-02-20 16:40:18.942,-70.0,-447.0,600.0,279.0,73.0,-107.0,136,60,56,84,87,448,460,489
2025-02-20 16:40:18.960,-64.0,-394.0,763.0,276.0,86.0,-101.0,139,62,57,84,87,338,418,468
2025-02-20 16:40:18.980,-150.0,-204.0,779.0,225.0,82.0,-95.0,141,60,56,81,86,291,377,412
2025-02-20 16:40:19.000,-37.0,-400.0,797.0,198.0,75.0,-93.0,141,60,55,79,85,322,446,398
2025-02-20 16:40:19.018,-24.0,-434.0,857.0,174.0,65.0,-73.0,141,59,55,78,84,392,451,405
2025-02-20 16:40:19.037,43.0,-493.0,875.0,139.0,56.0,-44.0,143,60,55,79,84,476,489,436
2025-02-20 16:40:19.054,225.0,-822.0,750.0,120.0,49.0,-9.0,142,59,57,78,83,631,520,452
2025-02-20 16:40:19.074,403.0,-1352.0,682.0,123.0,2.0,93.0,144,59,55,77,81,657,521,431
2025-02-20 16:40:19.093,709.0,-1806.0,699.0,89.0,-72.0,269.0,142,60,54,76,79,568,461,419
2025-02-20 16:40:19.112,1559.0,-2374.0,928.0,43.0,-61.0,563.0,142,58,52,76,76,462,436,420
2025-02-20 16:40:19.129,2321.0,-1100.0,1129.0,-1.0,-32.0,733.0,143,58,53,73,72,370,457,427
2025-02-20 16:40:19.152,1347.0,933.0,1742.0,-205.0,-90.0,661.0,145,58,52,69,72,331,475,491
2025-02-20 16:40:19.166,815.0,1376.0,2011.0,-257.0,-50.0,502.0,145,59,53,70,72,344,479,516
2025-02-20 16:40:19.189,369.0,1585.0,1770.0,-86.0,25.0,301.0,148,60,53,70,72,356,461,508
2025-02-20 16:40:19.209,-174.0,2560.0,1775.0,21.0,96.0,150.0,149,60,53,69,72,395,440,479
2025-02-20 16:40:19.226,-490.0,3051.0,1579.0,3.0,120.0,4.0,149,60,54,68,72,464,413,462
2025-02-20 16:40:19.245,-493.0,2328.0,1280.0,-39.0,131.0,-115.0,149,61,55,70,70,516,406,461
2025-02-20 16:40:19.266,-247.0,1278.0,1050.0,29.0,152.0,-212.0,150,61,55,69,67,517,419,490
2025-02-20 16:40:19.283,-23.0,593.0,847.0,102.0,166.0,-273.0,149,61,54,69,67,491,453,543
2025-02-20 16:40:19.303,-43.0,226.0,681.0,132.0,123.0,-315.0,150,62,54,70,68,461,474,548
2025-02-20 16:40:19.318,-36.0,-55.0,576.0,86.0,53.0,-298.0,148,59,56,70,67,467,482,532
2025-02-20 16:40:19.341,-42.0,-183.0,570.0,61.0,-22.0,-311.0,150,59,55,69,69,513,494,509
2025-02-20 16:40:19.361,151.0,-709.0,728.0,124.0,-58.0,-301.0,149,59,57,69,70,557,473,483
2025-02-20 16:40:19.378,181.0,-755.0,958.0,185.0,-38.0,-235.0,149,59,55,69,72,591,482,422
2025-02-20 16:40:19.396,-21.0,-216.0,1046.0,120.0,-37.0,-212.0,150,60,54,70,72,591,434,398
2025-02-20 16:40:19.418,75.0,-257.0,1079.0,50.0,-35.0,-209.0,149,60,55,70,73,602,381,435
2025-02-20 16:40:19.433,172.0,-759.0,1009.0,39.0,-18.0,-142.0,150,59,55,70,74,563,396,454
2025-02-20 16:40:19.455,175.0,-800.0,938.0,83.0,-6.0,-86.0,149,61,56,72,75,499,438,448
2025-02-20 16:40:19.475,154.0,-643.0,923.0,76.0,-19.0,-21.0,149,60,56,70,75,350,476,417
2025-02-20 16:40:19.493,425.0,-1025.0,1045.0,34.0,-49.0,59.0,149,62,56,71,75,337,497,410
2025-02-20 16:40:19.513,767.0,-1789.0,1000.0,8.0,-72.0,253.0,149,56,55,70,74,359,483,410
2025-02-20 16:40:19.530,1439.0,-2272.0,960.0,-7.0,-72.0,487.0,149,60,53,70,72,399,461,430
2025-02-20 16:40:19.550,1833.0,-1212.0,743.0,-92.0,-152.0,656.0,146,58,54,70,71,447,468,462
2025-02-20 16:40:19.570,1294.0,397.0,1267.0,-272.0,-242.0,587.0,148,60,53,72,72,503,487,490
2025-02-20 16:40:19.587,996.0,742.0,1752.0,-329.0,-206.0,518.0,146,60,54,70,71,538,518,503
2025-02-20 16:40:19.607,654.0,1798.0,2145.0,-323.0,-156.0,399.0,147,59,54,69,72,552,613,494
2025-02-20 16:40:19.628,303.0,1936.0,2471.0,-190.0,-69.0,207.0,149,59,53,68,72,516,611,479
2025-02-20 16:40:19.644,357.0,1531.0,2730.0,-43.0,69.0,75.0,147,61,55,69,71,466,571,474
2025-02-20 16:40:19.664,210.0,1412.0,2440.0,-27.0,225.0,-2.0,148,61,55,69,71,499,512,523
2025-02-20 16:40:19.684,198.0,637.0,1818.0,-69.0,315.0,-26.0,144,61,56,69,70,519,464,565
2025-02-20 16:40:19.700,358.0,-250.0,1236.0,-90.0,364.0,-13.0,145,61,55,69,69,363,449,563
2025-02-20 16:40:19.721,353.0,-660.0,929.0,-117.0,352.0,5.0,144,62,55,68,69,323,412,548
2025-02-20 16:40:19.739,342.0,-1085.0,851.0,-130.0,357.0,35.0,144,61,55,68,70,364,366,514
2025-02-20 16:40:19.759,25.0,-829.0,632.0,-177.0,354.0,57.0,143,61,55,66,71,427,348,474
2025-02-20 16:40:19.779,-255.0,-558.0,343.0,-199.0,321.0,57.0,141,60,54,66,72,442,373,462
2025-02-20 16:40:19.796,-303.0,-522.0,333.0,-182.0,298.0,48.0,142,61,57,67,74,427,305,450
2025-02-20 16:40:19.816,-354.0,-365.0,95.0,-96.0,303.0,33.0,141,62,57,68,76,406,360,502
2025-02-20 16:40:19.836,-502.0,-188.0,-54.0,-29.0,267.0,24.0,138,64,60,71,79,483,433,509
2025-02-20 16:40:19.853,-581.0,-30.0,-82.0,29.0,226.0,17.0,137,66,62,74,83,539,480,521
2025-02-20 16:40:19.873,-415.0,91.0,-43.0,81.0,186.0,-12.0,135,66,65,82,88,574,495,511
2025-02-20 16:40:19.894,-578.0,258.0,-112.0,151.0,156.0,-39.0,131,69,66,92,91,608,503,489
2025-02-20 16:40:19.910,-642.0,393.0,-638.0,223.0,85.0,-87.0,129,73,72,100,94,579,510,465
2025-02-20 16:40:19.930,-1322.0,1171.0,-1027.0,282.0,-60.0,-187.0,126,79,76,111,94,518,508,433
2025-02-20 16:40:19.950,-1196.0,1516.0,-1381.0,290.0,-234.0,-356.0,124,85,80,115,94,469,495,425
2025-02-20 16:40:19.966,-515.0,875.0,-1162.0,208.0,-437.0,-551.0,127,95,87,113,108,423,516,439
2025-02-20 16:40:19.988,641.0,379.0,-905.0,67.0,-723.0,-605.0,125,107,92,118,116,325,483,436
2025-02-20 16:40:20.007,2377.0,-884.0,44.0,-88.0,-938.0,-407.0,124,114,95,122,121,389,493,448
2025-02-20 16:40:20.025,3163.0,-2315.0,738.0,-198.0,-875.0,-176.0,127,120,98,127,123,398,527,458
2025-02-20 16:40:20.045,3371.0,-3399.0,1817.0,-109.0,-528.0,-14.0,133,122,99,128,125,493,554,459
2025-02-20 16:40:20.062,2692.0,-3416.0,1743.0,37.0,-52.0,77.0,136,124,101,128,126,523,613,448
2025-02-20 16:40:20.082,1579.0,-2075.0,1162.0,86.0,137.0,96.0,140,122,100,130,127,432,598,457
2025-02-20 16:40:20.102,719.0,-1341.0,965.0,111.0,249.0,101.0,140,120,101,130,128,286,552,428
2025-02-20 16:40:20.119,449.0,-1125.0,722.0,132.0,281.0,169.0,139,122,99,129,128,225,503,409
2025-02-20 16:40:20.140,325.0,-745.0,796.0,83.0,288.0,217.0,137,120,99,130,128,283,406,407
2025-02-20 16:40:20.160,230.0,-702.0,674.0,24.0,271.0,221.0,138,123,100,130,128,404,384,409
2025-02-20 16:40:20.177,151.0,-789.0,633.0,22.0,275.0,188.0,137,123,100,130,127,482,394,440
2025-02-20 16:40:20.196,92.0,-636.0,743.0,-29.0,218.0,195.0,138,124,100,130,126,480,438,463
2025-02-20 16:40:20.213,0.0,-639.0,517.0,-74.0,189.0,203.0,136,122,100,129,126,527,408,467
2025-02-20 16:40:20.234,-23.0,-542.0,388.0,-99.0,130.0,226.0,136,117,99,130,125,444,386,440
2025-02-20 16:40:20.252,-107.0,-289.0,426.0,-99.0,132.0,212.0,137,112,99,130,125,437,347,454
2025-02-20 16:40:20.271,-126.0,-277.0,133.0,-92.0,174.0,187.0,137,108,97,130,124,517,389,464
2025-02-20 16:40:20.291,-361.0,-98.0,343.0,57.0,203.0,175.0,135,106,97,129,124,575,422,479
2025-02-20 16:40:20.311,-130.0,80.0,150.0,159.0,219.0,142.0,134,104,95,130,124,622,444,492
2025-02-20 16:40:20.328,-413.0,755.0,136.0,226.0,263.0,84.0,133,102,96,130,123,672,455,473
2025-02-20 16:40:20.348,-1032.0,1357.0,-809.0,258.0,220.0,5.0,133,104,97,130,124,636,465,457
2025-02-20 16:40:20.367,-1466.0,1552.0,-1480.0,195.0,-15.0,-179.0,132,103,97,130,123,615,475,452
2025-02-20 16:40:20.384,-1456.0,1492.0,-1542.0,174.0,-294.0,-376.0,133,107,98,130,125,564,477,466
2025-02-20 16:40:20.406,-330.0,1293.0,-1449.0,133.0,-526.0,-586.0,131,112,99,130,128,458,436,481
2025-02-20 16:40:20.426,1661.0,738.0,-1023.0,-141.0,-838.0,-583.0,122,117,101,131,131,339,407,483
2025-02-20 16:40:20.443,3015.0,-1231.0,509.0,-343.0,-919.0,-392.0,122,118,102,132,131,379,390,475
2025-02-20 16:40:20.463,3483.0,-3285.0,1163.0,-187.0,-657.0,-91.0,123,120,104,133,132,480,378,464
2025-02-20 16:40:20.474,3397.0,-4415.0,1399.0,-83.0,-347.0,91.0,125,118,105,133,131,570,424,453
2025-02-20 16:40:20.500,2340.0,-2782.0,1270.0,9.0,-54.0,65.0,126,112,103,133,132,551,515,451
2025-02-20 16:40:20.520,798.0,-1604.0,1139.0,178.0,127.0,26.0,130,110,103,134,132,436,567,435
2025-02-20 16:40:20.536,95.0,-441.0,862.0,224.0,146.0,55.0,133,107,101,132,133,267,595,349
2025-02-20 16:40:20.553,-33.0,-460.0,901.0,199.0,180.0,87.0,131,106,102,133,133,217,566,324
2025-02-20 16:40:20.577,186.0,-506.0,800.0,187.0,193.0,50.0,131,111,101,133,132,300,463,405
2025-02-20 16:40:20.595,4.0,-687.0,619.0,151.0,181.0,-11.0,132,116,101,133,132,401,589,504
2025-02-20 16:40:20.615,162.0,-377.0,1116.0,147.0,161.0,-21.0,135,116,101,132,128,566,539,530
2025-02-20 16:40:20.635,-7.0,-423.0,1024.0,104.0,172.0,-24.0,133,114,97,127,125,670,479,487
2025-02-20 16:40:20.651,-55.0,-215.0,875.0,28.0,205.0,-31.0,131,107,91,122,114,707,396,476
2025-02-20 16:40:20.669,-120.0,-181.0,958.0,48.0,233.0,-55.0,136,99,85,118,96,576,401,441
2025-02-20 16:40:20.686,-409.0,185.0,654.0,54.0,224.0,-71.0,138,92,81,116,82,493,392,439
2025-02-20 16:40:20.710,-141.0,22.0,829.0,173.0,229.0,-96.0,138,84,78,115,71,458,365,484
2025-02-20 16:40:20.728,-206.0,-381.0,424.0,250.0,218.0,-136.0,140,75,75,113,65,480,442,517
2025-02-20 16:40:20.745,-68.0,-656.0,282.0,322.0,175.0,-143.0,137,69,68,107,63,504,480,534
2025-02-20 16:40:20.766,-87.0,-863.0,168.0,381.0,134.0,-115.0,138,69,65,99,67,480,456,549
2025-02-20 16:40:20.786,39.0,-898.0,216.0,420.0,55.0,-69.0,138,68,59,92,66,496,501,540
2025-02-20 16:40:20.803,408.0,-1228.0,766.0,373.0,8.0,38.0,139,63,57,85,64,545,496,513
2025-02-20 16:40:20.823,820.0,-1304.0,1157.0,225.0,-35.0,217.0,139,62,56,84,65,494,483,476
2025-02-20 16:40:20.843,1295.0,-1573.0,1457.0,78.0,-52.0,433.0,142,61,54,79,63,325,500,419
2025-02-20 16:40:20.860,1655.0,-896.0,1629.0,-52.0,-19.0,610.0,143,59,53,74,58,241,497,438
2025-02-20 16:40:20.881,1152.0,385.0,1664.0,-214.0,-37.0,588.0,147,58,53,73,59,300,483,464
2025-02-20 16:40:20.897,707.0,1183.0,1749.0,-224.0,-10.0,476.0,147,59,54,73,60,355,465,488
2025-02-20 16:40:20.917,-105.0,2280.0,1538.0,-174.0,57.0,281.0,148,61,55,73,62,381,445,485
2025-02-20 16:40:20.938,-335.0,2132.0,1380.0,-49.0,78.0,126.0,147,61,57,72,62,388,415,437
2025-02-20 16:40:20.955,-595.0,2402.0,1332.0,13.0,63.0,-17.0,150,64,57,72,64,438,378,416
2025-02-20 16:40:20.975,-395.0,2188.0,1354.0,0.0,67.0,-118.0,150,62,57,72,63,505,415,422
2025-02-20 16:40:20.995,-97.0,1109.0,1237.0,-10.0,93.0,-191.0,149,62,57,73,64,573,453,489
2025-02-20 16:40:21.012,55.0,422.0,1014.0,1.0,97.0,-214.0,149,62,57,74,66,570,461,531
2025-02-20 16:40:21.033,-27.0,107.0,818.0,-10.0,77.0,-221.0,149,61,56,75,63,520,390,530
2025-02-20 16:40:21.049,12.0,-179.0,886.0,6.0,44.0,-252.0,149,61,56,74,62,520,363,492
2025-02-20 16:40:21.070,114.0,-460.0,880.0,45.0,35.0,-241.0,147,60,56,74,64,516,389,431
2025-02-20 16:40:21.088,-19.0,-523.0,906.0,57.0,30.0,-211.0,150,61,57,76,64,463,427,379
2025-02-20 16:40:21.106,-91.0,-444.0,958.0,60.0,22.0,-210.0,151,61,56,75,64,422,432,348
2025-02-20 16:40:21.123,-44.0,-410.0,956.0,52.0,23.0,-225.0,149,60,58,76,65,371,453,384
2025-02-20 16:40:21.147,54.0,-614.0,999.0,50.0,35.0,-195.0,148,61,57,78,64,377,472,427
2025-02-20 16:40:21.164,39.0,-533.0,963.0,12.0,59.0,-128.0,149,61,57,77,66,398,524,459
2025-02-20 16:40:21.184,-69.0,-542.0,729.0,-37.0,39.0,-109.0,149,62,58,78,67,455,581,478
2025-02-20 16:40:21.204,57.0,-844.0,624.0,-66.0,-4.0,-90.0,147,61,57,79,67,455,584,481
2025-02-20 16:40:21.221,513.0,-1853.0,569.0,-47.0,-40.0,24.0,148,61,57,79,66,471,551,480
2025-02-20 16:40:21.241,856.0,-2786.0,610.0,11.0,-63.0,221.0,148,62,57,78,63,482,526,469
2025-02-20 16:40:21.262,1378.0,-2509.0,697.0,31.0,-102.0,437.0,148,62,56,78,62,491,496,483
2025-02-20 16:40:21.279,1585.0,-1842.0,472.0,7.0,-155.0,560.0,142,62,56,79,62,461,468,506
2025-02-20 16:40:21.298,1403.0,-76.0,722.0,-42.0,-219.0,585.0,149,61,56,79,62,442,449,514
2025-02-20 16:40:21.318,938.0,1067.0,1217.0,-186.0,-230.0,549.0,149,61,58,79,61,457,449,504
2025-02-20 16:40:21.336,133.0,2436.0,1966.0,-242.0,-209.0,403.0,148,61,56,76,64,490,534,485
2025-02-20 16:40:21.356,139.0,2535.0,2752.0,-117.0,-76.0,164.0,150,63,58,75,66,546,543,461
2025-02-20 16:40:21.373,108.0,2438.0,2966.0,0.0,70.0,67.0,151,64,58,78,67,617,571,477
2025-02-20 16:40:21.393,0.0,2055.0,2602.0,-7.0,178.0,-39.0,149,64,58,78,67,641,560,542
2025-02-20 16:40:21.413,250.0,886.0,1986.0,-59.0,267.0,-82.0,151,64,58,77,67,548,517,567
2025-02-20 16:40:21.430,323.0,-197.0,1202.0,-75.0,295.0,-78.0,148,63,58,76,66,418,486,565
2025-02-20 16:40:21.450,124.0,-616.0,894.0,-92.0,269.0,-69.0,150,64,58,76,65,387,435,541
2025-02-20 16:40:21.470,76.0,-807.0,792.0,-92.0,242.0,-53.0,150,61,58,76,65,415,367,486
2025-02-20 16:40:21.487,-180.0,-773.0,782.0,-91.0,228.0,-32.0,149,63,58,77,65,403,383,417
2025-02-20 16:40:21.508,-159.0,-809.0,800.0,-76.0,236.0,-8.0,150,63,59,75,67,442,373,462
2025-02-20 16:40:21.525,-265.0,-493.0,664.0,-61.0,266.0,-3.0,149,64,59,76,66,380,355,484
2025-02-20 16:40:21.545,-483.0,-366.0,443.0,-55.0,259.0,-19.0,148,64,61,77,67,303,358,508
2025-02-20 16:40:21.564,-449.0,-419.0,359.0,-46.0,249.0,-22.0,148,65,63,78,68,285,382,513
2025-02-20 16:40:21.582,-336.0,-391.0,307.0,-24.0,266.0,-13.0,147,68,68,82,68,361,413,507
2025-02-20 16:40:21.602,-497.0,-242.0,13.0,16.0,264.0,-20.0,145,70,71,85,70,517,473,525
2025-02-20 16:40:21.622,-607.0,-92.0,-30.0,37.0,219.0,-27.0,144,72,73,87,72,520,526,491
2025-02-20 16:40:21.639,-607.0,17.0,-36.0,74.0,194.0,-48.0,143,79,77,87,72,538,512,542
2025-02-20 16:40:21.659,-657.0,540.0,-253.0,106.0,163.0,-92.0,144,85,80,88,72,591,487,534
2025-02-20 16:40:21.679,-1126.0,1043.0,-820.0,70.0,42.0,-187.0,145,90,83,90,72,616,494,525
2025-02-20 16:40:21.696,-1032.0,1446.0,-1252.0,38.0,-108.0,-358.0,143,97,87,90,71,590,447,495
2025-02-20 16:40:21.716,-895.0,1475.0,-1527.0,70.0,-339.0,-558.0,140,103,93,90,69,488,399,486
2025-02-20 16:40:21.736,353.0,905.0,-1283.0,110.0,-550.0,-697.0,136,110,96,91,69,438,410,459
2025-02-20 16:40:21.754,1658.0,-211.0,-588.0,58.0,-743.0,-639.0,128,116,99,95,72,519,438,429
2025-02-20 16:40:21.774,3058.0,-1558.0,209.0,42.0,-818.0,-455.0,127,121,102,99,75,589,428,425
2025-02-20 16:40:21.794,3478.0,-2987.0,1542.0,48.0,-612.0,-146.0,131,125,104,101,75,534,456,416
2025-02-20 16:40:21.811,3513.0,-3079.0,2479.0,55.0,-156.0,68.0,134,126,106,99,75,582,510,391
2025-02-20 16:40:21.831,2032.0,-1977.0,2032.0,18.0,129.0,157.0,133,127,105,100,73,457,564,369
2025-02-20 16:40:21.848,1051.0,-1415.0,1337.0,-55.0,246.0,179.0,134,125,104,98,68,226,576,396
2025-02-20 16:40:21.867,622.0,-1532.0,670.0,-35.0,257.0,222.0,134,125,105,99,70,144,555,393
2025-02-20 16:40:21.887,428.0,-1129.0,668.0,-15.0,253.0,270.0,135,125,106,98,72,156,547,418
2025-02-20 16:40:21.903,186.0,-779.0,639.0,-27.0,248.0,284.0,135,129,106,99,74,334,523,437
2025-02-20 16:40:21.925,25.0,-555.0,607.0,-35.0,233.0,266.0,135,125,107,99,74,528,505,497
2025-02-20 16:40:21.946,-42.0,-592.0,460.0,-57.0,196.0,258.0,136,127,108,99,77,505,500,542
2025-02-20 16:40:21.959,-18.0,-615.0,437.0,-80.0,198.0,267.0,137,127,107,97,75,399,428,528
2025-02-20 16:40:21.983,-177.0,-492.0,473.0,-50.0,211.0,264.0,138,126,107,95,73,398,445,482
2025-02-20 16:40:22.002,-442.0,-294.0,147.0,21.0,196.0,225.0,139,124,107,91,71,486,423,444
2025-02-20 16:40:22.020,-551.0,-25.0,95.0,76.0,164.0,154.0,139,123,108,89,70,539,376,459
2025-02-20 16:40:22.040,-416.0,16.0,282.0,109.0,174.0,120.0,139,123,108,89,72,604,383,469
2025-02-20 16:40:22.057,-474.0,142.0,73.0,156.0,186.0,106.0,139,123,108,91,70,678,419,473
2025-02-20 16:40:22.077,-780.0,836.0,-111.0,122.0,142.0,63.0,140,123,108,93,73,611,393,461
2025-02-20 16:40:22.097,-903.0,1281.0,-662.0,44.0,51.0,-33.0,139,124,106,95,72,581,392,456
2025-02-20 16:40:22.112,-1227.0,1211.0,-1126.0,24.0,-129.0,-223.0,135,123,107,93,72,561,418,440
2025-02-20 16:40:22.134,-1136.0,1312.0,-1372.0,110.0,-308.0,-411.0,141,126,108,93,71,534,455,428
2025-02-20 16:40:22.155,-370.0,1021.0,-907.0,131.0,-527.0,-578.0,140,125,107,97,74,511,433,438
2025-02-20 16:40:22.171,1274.0,607.0,-338.0,-21.0,-775.0,-594.0,138,126,107,102,76,379,444,417
2025-02-20 16:40:22.192,3415.0,-1379.0,675.0,-179.0,-804.0,-484.0,139,125,107,105,81,448,467,445
2025-02-20 16:40:22.212,3199.0,-3678.0,1833.0,-9.0,-368.0,-215.0,141,128,107,111,86,614,471,457
2025-02-20 16:40:22.229,2879.0,-3298.0,1970.0,53.0,5.0,54.0,138,125,107,114,91,733,481,420
2025-02-20 16:40:22.249,1326.0,-1741.0,1709.0,115.0,179.0,147.0,140,123,106,115,89,685,505,433
2025-02-20 16:40:22.269,228.0,-889.0,1088.0,118.0,200.0,111.0,141,120,105,115,85,467,478,439
2025-02-20 16:40:22.286,-69.0,-813.0,840.0,113.0,177.0,53.0,139,119,103,112,84,260,429,413
2025-02-20 16:40:22.306,-98.0,-764.0,769.0,120.0,158.0,35.0,141,120,101,109,84,205,459,434
2025-02-20 16:40:22.323,-73.0,-708.0,704.0,161.0,160.0,4.0,141,118,95,108,85,370,471,517
2025-02-20 16:40:22.343,-10.0,-695.0,634.0,217.0,172.0,-24.0,146,116,91,108,85,490,549,480
2025-02-20 16:40:22.363,-87.0,-445.0,821.0,268.0,186.0,-39.0,144,108,84,108,84,560,584,448
2025-02-20 16:40:22.381,-172.0,-235.0,812.0,234.0,184.0,-37.0,143,97,76,106,82,599,624,479
2025-02-20 16:40:22.401,-205.0,-245.0,848.0,184.0,179.0,-39.0,145,87,71,104,79,569,576,485
2025-02-20 16:40:22.421,-192.0,-355.0,685.0,173.0,161.0,-52.0,143,81,68,101,73,413,506,442
2025-02-20 16:40:22.437,-43.0,-553.0,551.0,236.0,146.0,-40.0,146,81,67,99,74,317,424,441
2025-02-20 16:40:22.457,73.0,-797.0,479.0,246.0,117.0,-32.0,140,76,64,98,76,295,333,460
2025-02-20 16:40:22.474,175.0,-1089.0,599.0,218.0,68.0,25.0,146,70,58,94,75,308,375,476
2025-02-20 16:40:22.493,441.0,-1501.0,826.0,150.0,15.0,150.0,145,69,56,89,75,392,450,471
2025-02-20 16:40:22.515,713.0,-2028.0,823.0,82.0,-71.0,355.0,146,64,53,81,73,482,476,460
2025-02-20 16:40:22.532,1464.0,-1957.0,1321.0,-9.0,-88.0,563.0,145,62,52,73,67,526,469,433
2025-02-20 16:40:22.552,1860.0,-502.0,1539.0,-156.0,-93.0,702.0,147,62,51,67,63,560,426,416
2025-02-20 16:40:22.572,857.0,577.0,1619.0,-282.0,-132.0,607.0,149,62,51,65,62,537,370,417
2025-02-20 16:40:22.589,494.0,1406.0,1690.0,-192.0,-44.0,376.0,151,63,51,64,60,489,341,432
2025-02-20 16:40:22.608,110.0,2061.0,1540.0,-90.0,46.0,225.0,151,62,51,64,64,464,363,449
2025-02-20 16:40:22.626,-398.0,2774.0,1483.0,-23.0,45.0,112.0,150,63,51,64,62,485,403,472
2025-02-20 16:40:22.644,-530.0,2849.0,1616.0,-18.0,87.0,-48.0,149,63,52,66,64,462,425,431
2025-02-20 16:40:22.666,-250.0,1792.0,1342.0,-26.0,105.0,-128.0,150,63,52,67,63,477,454,426
2025-02-20 16:40:22.683,-55.0,603.0,1018.0,20.0,120.0,-185.0,150,63,53,67,65,545,442,498
2025-02-20 16:40:22.704,-78.0,121.0,743.0,42.0,98.0,-214.0,151,64,51,66,65,537,427,521
2025-02-20 16:40:22.724,-75.0,-118.0,700.0,24.0,54.0,-217.0,150,63,53,67,64,430,449,485
2025-02-20 16:40:22.735,26.0,-451.0,823.0,26.0,30.0,-216.0,151,65,52,67,67,435,456,470
2025-02-20 16:40:22.761,106.0,-877.0,1007.0,88.0,55.0,-209.0,150,65,53,68,66,551,489,458
2025-02-20 16:40:22.781,-52.0,-789.0,943.0,123.0,73.0,-164.0,151,63,53,67,66,514,523,447
2025-02-20 16:40:22.796,-256.0,-488.0,844.0,118.0,52.0,-157.0,150,64,54,68,66,406,542,420
2025-02-20 16:40:22.818,-207.0,-505.0,763.0,103.0,36.0,-141.0,151,64,54,72,66,294,546,437
2025-02-20 16:40:22.838,-259.0,-512.0,742.0,93.0,20.0,-127.0,151,65,54,68,68,259,525,480
2025-02-20 16:40:22.855,-247.0,-558.0,735.0,106.0,5.0,-108.0,153,65,54,69,67,290,508,520
2025-02-20 16:40:22.875,-264.0,-470.0,726.0,103.0,-24.0,-78.0,152,63,54,68,67,383,470,561
2025-02-20 16:40:22.892,-64.0,-619.0,834.0,91.0,-48.0,-41.0,152,66,53,69,69,457,491,564
2025-02-20 16:40:22.912,295.0,-1187.0,1108.0,62.0,-33.0,59.0,151,65,54,69,68,532,533,543
2025-02-20 16:40:22.933,457.0,-1638.0,1137.0,4.0,-22.0,197.0,151,66,54,70,68,556,604,535
2025-02-20 16:40:22.948,573.0,-1797.0,1015.0,-76.0,-59.0,345.0,151,65,54,69,67,570,583,537
2025-02-20 16:40:22.969,906.0,-1794.0,1054.0,-98.0,-69.0,436.0,150,66,54,70,67,580,510,529
2025-02-20 16:40:22.990,1004.0,-1000.0,1323.0,-18.0,-24.0,473.0,152,65,54,69,67,544,457,513
2025-02-20 16:40:23.007,333.0,1561.0,1476.0,-43.0,35.0,329.0,152,66,55,70,68,503,405,497
2025-02-20 16:40:23.027,-27.0,2343.0,1106.0,-175.0,66.0,234.0,151,68,56,70,68,469,395,469
2025-02-20 16:40:23.047,-446.0,2129.0,955.0,-152.0,32.0,131.0,152,66,55,70,67,483,419,440
2025-02-20 16:40:23.064,-573.0,2354.0,1212.0,-21.0,15.0,17.0,147,68,57,71,68,517,445,401
2025-02-20 16:40:23.084,-551.0,2377.0,1528.0,0.0,24.0,-109.0,151,67,56,70,66,542,435,424
2025-02-20 16:40:23.105,-160.0,1138.0,1546.0,-41.0,64.0,-154.0,152,69,57,72,69,500,436,463
2025-02-20 16:40:23.122,66.0,19.0,1658.0,-70.0,101.0,-154.0,152,68,56,71,70,352,439,479
2025-02-20 16:40:23.140,257.0,-831.0,1811.0,-86.0,161.0,-101.0,151,68,58,71,69,275,416,462
2025-02-20 16:40:23.159,128.0,-876.0,1737.0,-142.0,196.0,-71.0,152,68,55,72,70,312,363,398
2025-02-20 16:40:23.171,-36.0,-865.0,1417.0,-204.0,236.0,-43.0,151,69,58,73,71,256,393,320
2025-02-20 16:40:23.197,-223.0,-897.0,1026.0,-236.0,264.0,-21.0,151,71,59,72,73,274,434,333
2025-02-20 16:40:23.214,-342.0,-812.0,655.0,-216.0,281.0,8.0,150,71,62,74,75,271,442,434
2025-02-20 16:40:23.236,-395.0,-460.0,602.0,-191.0,287.0,32.0,153,73,61,75,76,310,453,477
2025-02-20 16:40:23.256,-478.0,-59.0,373.0,-178.0,281.0,28.0,150,72,61,74,78,340,445,490
2025-02-20 16:40:23.273,-641.0,167.0,104.0,-151.0,257.0,-11.0,149,73,63,76,78,426,449,535
2025-02-20 16:40:23.292,-642.0,178.0,-46.0,-109.0,213.0,-41.0,150,73,64,78,80,532,477,546
2025-02-20 16:40:23.312,-629.0,412.0,-89.0,-83.0,187.0,-71.0,146,73,65,81,80,517,462,516
2025-02-20 16:40:23.331,-653.0,718.0,-311.0,-73.0,156.0,-107.0,146,71,63,82,81,469,447,494
2025-02-20 16:40:23.351,-551.0,1202.0,-553.0,-72.0,114.0,-178.0,143,70,63,84,77,460,442,485
2025-02-20 16:40:23.366,-880.0,1344.0,-1214.0,7.0,24.0,-315.0,134,71,62,84,70,527,449,476
2025-02-20 16:40:23.388,-788.0,1286.0,-1631.0,202.0,-132.0,-479.0,120,66,61,83,65,621,493,471
2025-02-20 16:40:23.408,11.0,1113.0,-1716.0,265.0,-414.0,-636.0,114,62,59,80,62,584,450,478
2025-02-20 16:40:23.425,1451.0,538.0,-1190.0,209.0,-674.0,-649.0,112,61,56,79,65,485,418,478
2025-02-20 16:40:23.445,3322.0,-1913.0,560.0,156.0,-768.0,-435.0,113,63,56,80,68,448,434,479
2025-02-20 16:40:23.465,3835.0,-3885.0,2318.0,299.0,-393.0,-163.0,115,64,57,82,69,537,438,467
2025-02-20 16:40:23.481,2762.0,-2377.0,2935.0,327.0,-52.0,-5.0,119,64,56,75,71,519,549,450
2025-02-20 16:40:23.502,1078.0,-949.0,2382.0,121.0,117.0,31.0,120,63,56,71,69,456,634,409
2025-02-20 16:40:23.522,508.0,-1017.0,1455.0,-136.0,127.0,93.0,121,64,56,74,70,344,628,366
2025-02-20 16:40:23.540,326.0,-1480.0,1046.0,-174.0,93.0,132.0,120,64,58,81,71,311,617,396
2025-02-20 16:40:23.559,333.0,-1495.0,912.0,-121.0,94.0,155.0,119,64,59,83,71,295,560,437
2025-02-20 16:40:23.578,561.0,-1292.0,1045.0,-100.0,155.0,195.0,119,63,59,84,72,380,409,439
2025-02-20 16:40:23.594,340.0,-1031.0,776.0,-105.0,192.0,208.0,124,64,60,84,72,451,381,464
2025-02-20 16:40:23.614,-28.0,-762.0,583.0,-126.0,153.0,204.0,123,65,59,82,72,487,407,524
2025-02-20 16:40:23.631,41.0,-687.0,540.0,-138.0,122.0,215.0,126,66,58,81,72,469,374,521
2025-02-20 16:40:23.654,54.0,-651.0,718.0,-150.0,130.0,231.0,125,66,58,78,71,425,404,493
2025-02-20 16:40:23.674,136.0,-654.0,712.0,-141.0,213.0,266.0,124,64,59,78,71,301,436,496
2025-02-20 16:40:23.691,-1.0,-565.0,441.0,-114.0,254.0,287.0,128,66,59,81,71,291,459,496
2025-02-20 16:40:23.711,-334.0,-292.0,-1.0,-70.0,236.0,293.0,127,68,59,80,72,343,488,484
2025-02-20 16:40:23.731,-389.0,-101.0,143.0,-33.0,173.0,264.0,125,68,60,79,72,459,439,456
2025-02-20 16:40:23.748,-512.0,150.0,-7.0,8.0,173.0,196.0,124,68,58,78,72,559,417,432
2025-02-20 16:40:23.768,-557.0,264.0,34.0,58.0,148.0,133.0,124,68,61,78,71,654,427,426
2025-02-20 16:40:23.789,-592.0,408.0,-322.0,108.0,142.0,109.0,126,67,60,80,71,700,446,416
2025-02-20 16:40:23.805,-1087.0,1209.0,-563.0,115.0,57.0,33.0,126,66,61,80,70,682,471,403
2025-02-20 16:40:23.826,-1250.0,1640.0,-958.0,132.0,-46.0,-111.0,125,68,61,82,69,607,476,415
2025-02-20 16:40:23.843,-1187.0,1806.0,-1128.0,212.0,-165.0,-337.0,123,68,61,83,67,618,457,417
2025-02-20 16:40:23.863,-1094.0,1932.0,-1579.0,283.0,-407.0,-592.0,119,67,59,86,66,625,421,433
2025-02-20 16:40:23.883,425.0,1566.0,-1541.0,231.0,-750.0,-735.0,117,64,58,83,66,525,401,449
2025-02-20 16:40:23.900,3735.0,-681.0,-525.0,80.0,-1009.0,-543.0,120,63,58,84,70,337,427,458
2025-02-20 16:40:23.917,4560.0,-4125.0,2185.0,194.0,-741.0,-231.0,127,65,57,85,73,372,473,446
2025-02-20 16:40:23.940,3606.0,-3111.0,3127.0,361.0,-160.0,27.0,129,64,57,75,74,604,516,412
2025-02-20 16:40:23.957,1420.0,-449.0,2379.0,208.0,144.0,-24.0,134,64,58,74,72,543,526,458
2025-02-20 16:40:23.978,854.0,-1169.0,1889.0,38.0,215.0,25.0,133,63,59,75,71,465,505,467
2025-02-20 16:40:23.997,478.0,-1451.0,1259.0,-21.0,243.0,107.0,133,66,58,81,77,391,492,445
2025-02-20 16:40:24.014,294.0,-1365.0,964.0,29.0,232.0,150.0,131,68,59,86,79,181,569,413
2025-02-20 16:40:24.033,331.0,-1078.0,797.0,36.0,216.0,198.0,133,66,60,89,81,265,573,464
2025-02-20 16:40:24.051,304.0,-970.0,671.0,22.0,219.0,246.0,133,68,61,90,80,466,522,486
2025-02-20 16:40:24.071,136.0,-769.0,510.0,-3.0,198.0,306.0,135,69,61,87,81,700,553,529
2025-02-20 16:40:24.091,-47.0,-372.0,559.0,-71.0,131.0,336.0,136,69,62,81,80,755,467,527
2025-02-20 16:40:24.108,-355.0,-176.0,531.0,-116.0,81.0,323.0,136,69,62,81,79,669,410,504
2025-02-20 16:40:24.129,-396.0,-241.0,393.0,-61.0,57.0,265.0,138,69,64,83,81,498,450,496
2025-02-20 16:40:24.149,-330.0,-346.0,309.0,74.0,86.0,198.0,137,69,65,83,83,452,499,487
2025-02-20 16:40:24.166,-554.0,49.0,247.0,181.0,77.0,129.0,139,73,67,85,87,514,500,476
2025-02-20 16:40:24.184,-699.0,658.0,298.0,209.0,26.0,77.0,139,73,68,86,87,489,454,466
2025-02-20 16:40:24.205,-878.0,1467.0,217.0,127.0,-48.0,-19.0,141,73,69,87,85,447,353,467
2025-02-20 16:40:24.224,-1012.0,1665.0,225.0,70.0,-136.0,-138.0,140,73,70,92,82,494,357,451
2025-02-20 16:40:24.244,-1029.0,1803.0,217.0,96.0,-192.0,-313.0,143,76,73,93,96,488,410,449
2025-02-20 16:40:24.264,-644.0,1711.0,466.0,192.0,-229.0,-467.0,142,76,72,100,98,474,416,442
2025-02-20 16:40:24.281,196.0,858.0,989.0,277.0,-222.0,-511.0,142,75,71,106,101,439,400,437
2025-02-20 16:40:24.301,1095.0,-397.0,1549.0,314.0,-121.0,-452.0,142,76,70,111,105,484,385,436
2025-02-20 16:40:24.318,1632.0,-1005.0,2347.0,283.0,6.0,-366.0,142,78,73,115,106,541,368,416
2025-02-20 16:40:24.338,1516.0,-1286.0,2513.0,139.0,88.0,-233.0,143,77,72,116,110,537,448,416
2025-02-20 16:40:24.358,1235.0,-1673.0,2030.0,-68.0,110.0,-76.0,141,78,72,119,111,326,536,414
2025-02-20 16:40:24.375,838.0,-2070.0,1356.0,-107.0,100.0,102.0,139,77,71,116,113,129,503,379
2025-02-20 16:40:24.396,390.0,-1660.0,860.0,-46.0,90.0,203.0,140,79,70,117,114,103,531,407
2025-02-20 16:40:24.416,158.0,-1046.0,789.0,21.0,65.0,267.0,139,79,71,113,112,194,596,439
2025-02-20 16:40:24.432,6.0,-275.0,853.0,27.0,41.0,308.0,137,77,71,111,112,258,591,423
2025-02-20 16:40:24.449,-143.0,208.0,880.0,-36.0,-1.0,307.0,138,78,72,108,111,363,577,412
2025-02-20 16:40:24.472,-85.0,292.0,1005.0,-84.0,-19.0,270.0,139,79,71,108,112,445,565,448
2025-02-20 16:40:24.487,-106.0,221.0,1131.0,-61.0,10.0,242.0,141,80,73,103,112,498,463,472
2025-02-20 16:40:24.510,-154.0,313.0,1018.0,-26.0,50.0,222.0,140,77,72,102,111,524,413,487
2025-02-20 16:40:24.527,-410.0,742.0,925.0,-15.0,66.0,187.0,140,80,72,100,112,554,397,502
2025-02-20 16:40:24.547,-513.0,914.0,803.0,6.0,60.0,120.0,140,80,72,97,111,575,405,510
2025-02-20 16:40:24.567,-482.0,796.0,735.0,38.0,58.0,62.0,140,79,72,96,111,592,419,504
2025-02-20 16:40:24.584,-563.0,890.0,632.0,77.0,52.0,36.0,139,81,72,95,111,607,452,477
2025-02-20 16:40:24.605,-630.0,1107.0,542.0,124.0,55.0,-34.0,140,80,73,94,111,603,490,478
2025-02-20 16:40:24.625,-749.0,1388.0,503.0,174.0,57.0,-124.0,139,80,73,96,110,605,492,463
2025-02-20 16:40:24.641,-952.0,2147.0,331.0,202.0,35.0,-240.0,140,79,74,96,112,565,472,479
2025-02-20 16:40:24.661,-897.0,2149.0,-16.0,143.0,-54.0,-389.0,141,81,73,99,114,514,425,485
2025-02-20 16:40:24.682,-472.0,1211.0,148.0,176.0,-134.0,-472.0,138,79,74,103,115,463,368,472
2025-02-20 16:40:24.699,46.0,502.0,298.0,250.0,-268.0,-479.0,139,79,72,107,116,491,383,468
2025-02-20 16:40:24.717,802.0,-84.0,625.0,236.0,-410.0,-406.0,140,79,70,113,116,487,426,470
2025-02-20 16:40:24.739,1718.0,-1283.0,2025.0,107.0,-404.0,-182.0,141,81,73,114,115,436,472,454
2025-02-20 16:40:24.755,1896.0,-1516.0,2560.0,-96.0,-218.0,24.0,142,82,76,116,116,410,479,451
2025-02-20 16:40:24.775,1559.0,-1386.0,2290.0,-175.0,-78.0,120.0,142,81,76,116,116,370,497,496
2025-02-20 16:40:24.793,1040.0,-1171.0,1801.0,-108.0,33.0,177.0,141,82,76,117,117,304,524,576
2025-02-20 16:40:24.813,488.0,-671.0,1480.0,-16.0,85.0,224.0,141,82,77,115,116,324,540,593
2025-02-20 16:40:24.833,321.0,-266.0,1516.0,-7.0,139.0,293.0,142,83,76,116,115,383,510,581
2025-02-20 16:40:24.850,321.0,175.0,1545.0,-59.0,172.0,327.0,142,83,77,114,114,394,462,523
2025-02-20 16:40:24.871,116.0,502.0,1612.0,-142.0,187.0,284.0,141,81,75,112,114,417,432,487
2025-02-20 16:40:24.890,-35.0,660.0,1624.0,-186.0,262.0,253.0,142,81,74,109,113,447,482,477
2025-02-20 16:40:24.908,-27.0,532.0,1351.0,-222.0,299.0,234.0,140,81,75,106,117,475,550,495
2025-02-20 16:40:24.928,13.0,267.0,1070.0,-211.0,345.0,242.0,140,80,74,102,112,496,583,522
2025-02-20 16:40:24.947,-231.0,340.0,636.0,-153.0,368.0,209.0,142,79,76,101,111,497,535,543
2025-02-20 16:40:24.964,-168.0,426.0,645.0,-56.0,414.0,144.0,142,78,75,101,108,523,520,538
2025-02-20 16:40:24.984,-550.0,690.0,242.0,18.0,423.0,85.0,141,77,77,103,108,552,502,506
2025-02-20 16:40:25.002,-739.0,826.0,-142.0,-7.0,344.0,19.0,139,80,80,107,110,530,482,465
2025-02-20 16:40:25.022,-833.0,519.0,-770.0,24.0,197.0,-34.0,137,84,84,112,108,464,445,443
2025-02-20 16:40:25.042,-1083.0,688.0,-788.0,54.0,-20.0,-83.0,136,92,87,116,108,463,418,428
2025-02-20 16:40:25.059,-964.0,1324.0,-1255.0,-91.0,-153.0,-177.0,133,94,91,118,111,524,385,405
2025-02-20 16:40:25.079,-485.0,1694.0,-1375.0,-94.0,-372.0,-305.0,133,100,92,121,117,549,291,384
2025-02-20 16:40:25.099,-897.0,1293.0,-1183.0,-104.0,-535.0,-455.0,132,105,93,122,125,513,297,399
2025-02-20 16:40:25.117,-50.0,983.0,-742.0,-70.0,-594.0,-542.0,132,112,96,126,127,486,278,407
2025-02-20 16:40:25.137,911.0,259.0,-340.0,-258.0,-664.0,-555.0,131,117,98,127,128,474,269,411
2025-02-20 16:40:25.156,2280.0,-704.0,6.0,-354.0,-861.0,-402.0,132,122,101,130,130,404,302,422
2025-02-20 16:40:25.172,2424.0,-2077.0,282.0,-328.0,-682.0,-162.0,131,124,104,131,125,449,393,474
2025-02-20 16:40:25.194,2262.0,-3383.0,588.0,-212.0,-406.0,91.0,131,123,102,132,132,555,481,492
2025-02-20 16:40:25.214,2426.0,-2875.0,1281.0,-5.0,-131.0,113.0,132,125,106,133,132,699,560,480
2025-02-20 16:40:25.231,1566.0,-1994.0,1241.0,57.0,50.0,22.0,134,124,106,130,133,622,583,456
2025-02-20 16:40:25.251,679.0,-1338.0,1163.0,121.0,215.0,18.0,135,123,105,132,132,505,634,454
2025-02-20 16:40:25.269,446.0,-1059.0,945.0,123.0,272.0,92.0,136,123,106,133,131,244,588,428
2025-02-20 16:40:25.289,324.0,-1000.0,941.0,93.0,263.0,130.0,134,123,106,133,131,183,504,377
2025-02-20 16:40:25.309,293.0,-931.0,796.0,44.0,223.0,121.0,136,124,105,134,132,342,486,461
2025-02-20 16:40:25.326,239.0,-938.0,811.0,2.0,230.0,106.0,134,126,106,134,131,463,513,513
2025-02-20 16:40:25.346,168.0,-968.0,695.0,-17.0,230.0,132.0,133,126,106,133,133,559,622,490
2025-02-20 16:40:25.365,142.0,-918.0,685.0,0.0,257.0,194.0,132,126,107,133,131,651,604,484
2025-02-20 16:40:25.382,-26.0,-733.0,407.0,-42.0,222.0,226.0,134,125,107,133,131,605,534,476
2025-02-20 16:40:25.402,-26.0,-334.0,298.0,-46.0,181.0,224.0,132,121,105,131,131,526,489,446
2025-02-20 16:40:25.420,-292.0,-404.0,245.0,-57.0,151.0,209.0,133,117,104,133,132,509,461,453
2025-02-20 16:40:25.437,-337.0,-240.0,350.0,-36.0,152.0,184.0,133,114,103,132,134,451,407,495
2025-02-20 16:40:25.460,-297.0,-161.0,252.0,57.0,199.0,153.0,133,113,104,133,131,383,408,500
2025-02-20 16:40:25.478,-296.0,-166.0,110.0,149.0,201.0,137.0,127,111,103,132,131,483,411,478
2025-02-20 16:40:25.498,-433.0,208.0,204.0,203.0,214.0,117.0,130,112,103,133,130,569,452,467
2025-02-20 16:40:25.516,-667.0,519.0,-42.0,232.0,203.0,87.0,131,110,103,132,130,658,443,465
2025-02-20 16:40:25.535,-879.0,683.0,-464.0,218.0,147.0,43.0,129,107,103,132,130,604,431,470
2025-02-20 16:40:25.553,-1320.0,1418.0,-1115.0,190.0,-10.0,-106.0,128,112,103,130,131,561,384,468
2025-02-20 16:40:25.575,-1484.0,1568.0,-1437.0,135.0,-249.0,-339.0,129,113,104,132,132,508,380,468
2025-02-20 16:40:25.590,-881.0,1520.0,-1484.0,48.0,-541.0,-611.0,126,116,105,133,135,386,379,471
2025-02-20 16:40:25.612,1093.0,734.0,-870.0,-23.0,-778.0,-674.0,124,120,106,134,134,234,391,472
2025-02-20 16:40:25.632,3225.0,-1179.0,491.0,-191.0,-952.0,-478.0,118,124,107,134,134,224,381,409
2025-02-20 16:40:25.649,3243.0,-2286.0,1561.0,-251.0,-659.0,-178.0,119,126,109,134,135,324,429,405
2025-02-20 16:40:25.669,3003.0,-3443.0,1348.0,-239.0,-302.0,68.0,119,126,109,135,134,454,504,472
2025-02-20 16:40:25.689,2216.0,-2726.0,1201.0,-77.0,-36.0,87.0,123,125,109,134,136,438,555,480
2025-02-20 16:40:25.706,924.0,-1689.0,1273.0,26.0,129.0,44.0,125,123,110,135,136,325,600,475
2025-02-20 16:40:25.727,333.0,-1156.0,817.0,77.0,185.0,89.0,124,122,109,136,136,138,605,468
2025-02-20 16:40:25.741,177.0,-1113.0,772.0,72.0,162.0,122.0,124,122,108,134,136,107,585,392
2025-02-20 16:40:25.758,255.0,-1090.0,718.0,106.0,145.0,121.0,124,123,109,135,135,176,499,400
2025-02-20 16:40:25.784,416.0,-1159.0,792.0,92.0,152.0,100.0,122,124,109,136,136,341,521,519
2025-02-20 16:40:25.800,428.0,-1191.0,740.0,89.0,176.0,110.0,124,130,108,136,136,430,568,515
2025-02-20 16:40:25.820,207.0,-1006.0,741.0,113.0,210.0,178.0,123,128,109,134,136,699,498,469
2025-02-20 16:40:25.841,-17.0,-813.0,523.0,105.0,223.0,231.0,126,126,108,135,135,739,404,435
2025-02-20 16:40:25.856,24.0,-539.0,550.0,51.0,226.0,294.0,127,122,105,133,135,700,417,423
2025-02-20 16:40:25.878,-1.0,-475.0,331.0,43.0,203.0,345.0,129,111,101,132,132,675,429,431
2025-02-20 16:40:25.892,-168.0,-301.0,258.0,83.0,218.0,366.0,129,99,90,129,125,592,392,435
2025-02-20 16:40:25.915,-378.0,-184.0,141.0,162.0,152.0,333.0,131,81,78,126,114,510,386,481
2025-02-20 16:40:25.935,-677.0,-165.0,-231.0,206.0,4.0,273.0,132,63,63,119,102,447,378,506
2025-02-20 16:40:25.952,-805.0,228.0,-469.0,203.0,-171.0,190.0,132,60,55,104,90,444,432,505
2025-02-20 16:40:25.972,-532.0,816.0,-486.0,272.0,-295.0,113.0,130,61,55,91,96,514,455,471
2025-02-20 16:40:25.992,-387.0,2226.0,392.0,295.0,-294.0,-153.0,131,63,58,94,103,534,444,391
2025-02-20 16:40:26.008,-637.0,2534.0,1227.0,374.0,-169.0,-330.0,132,62,56,103,107,561,449,391
2025-02-20 16:40:26.030,-456.0,2159.0,1353.0,371.0,-102.0,-401.0,132,60,53,110,105,664,444,470
2025-02-20 16:40:26.050,187.0,1338.0,1656.0,287.0,-49.0,-464.0,131,59,54,114,106,697,454,509
2025-02-20 16:40:26.067,821.0,507.0,1657.0,222.0,-30.0,-500.0,129,61,55,117,108,657,478,521
2025-02-20 16:40:26.087,926.0,-837.0,1476.0,164.0,-88.0,-399.0,130,62,57,119,111,515,526,528
2025-02-20 16:40:26.107,1059.0,-1865.0,1582.0,83.0,-136.0,-178.0,131,64,58,120,112,423,561,475
2025-02-20 16:40:26.124,1019.0,-1510.0,1775.0,-29.0,-132.0,17.0,133,66,60,121,112,384,556,443
2025-02-20 16:40:26.144,799.0,-1210.0,1807.0,-102.0,-58.0,116.0,133,68,61,121,114,415,510,473
2025-02-20 16:40:26.159,418.0,-599.0,1464.0,-100.0,4.0,174.0,132,68,63,121,113,418,443,484
2025-02-20 16:40:26.181,107.0,-437.0,1340.0,-55.0,35.0,185.0,132,69,62,121,115,377,497,452
2025-02-20 16:40:26.201,24.0,-240.0,1284.0,-11.0,72.0,214.0,132,69,63,120,114,328,507,343
2025-02-20 16:40:26.218,-12.0,83.0,1233.0,-26.0,111.0,217.0,132,69,64,120,114,348,492,357
2025-02-20 16:40:26.238,-80.0,149.0,1060.0,-41.0,144.0,210.0,133,70,65,120,115,398,459,395
2025-02-20 16:40:26.258,-201.0,164.0,820.0,-39.0,154.0,201.0,133,70,64,118,116,464,330,431
2025-02-20 16:40:26.276,-351.0,216.0,625.0,-22.0,133.0,207.0,134,69,65,118,116,517,332,451
2025-02-20 16:40:26.293,-413.0,349.0,583.0,-10.0,104.0,226.0,135,69,65,116,116,532,414,459
2025-02-20 16:40:26.312,-388.0,748.0,561.0,-32.0,75.0,210.0,134,70,67,117,116,534,453,461
2025-02-20 16:40:26.333,-509.0,883.0,657.0,-28.0,76.0,157.0,135,70,64,113,117,498,498,468
2025-02-20 16:40:26.353,-738.0,1038.0,550.0,-5.0,54.0,86.0,135,70,67,112,118,490,580,488
2025-02-20 16:40:26.370,-789.0,1255.0,439.0,15.0,16.0,29.0,135,71,68,110,118,472,561,499
2025-02-20 16:40:26.390,-934.0,2028.0,461.0,59.0,20.0,-131.0,138,72,68,111,119,454,531,493
2025-02-20 16:40:26.410,-1171.0,2729.0,149.0,111.0,13.0,-321.0,134,71,67,112,120,467,507,486
2025-02-20 16:40:26.428,-1123.0,2358.0,-251.0,104.0,-78.0,-486.0,134,71,68,114,120,438,452,494
2025-02-20 16:40:26.447,-555.0,1371.0,-204.0,105.0,-303.0,-538.0,134,71,66,115,121,368,432,499
2025-02-20 16:40:26.468,720.0,28.0,345.0,138.0,-489.0,-472.0,135,72,65,119,123,389,438,538
2025-02-20 16:40:26.485,2072.0,-1384.0,1369.0,125.0,-485.0,-259.0,137,73,66,120,124,420,364,556
2025-02-20 16:40:26.504,2304.0,-1870.0,2393.0,39.0,-284.0,-56.0,141,75,70,124,122,500,337,557
2025-02-20 16:40:26.523,1957.0,-1253.0,2646.0,-100.0,-97.0,72.0,140,76,70,124,123,544,373,567
2025-02-20 16:40:26.539,1267.0,-990.0,1940.0,-168.0,27.0,147.0,139,75,70,125,124,452,423,572
2025-02-20 16:40:26.562,585.0,-589.0,1458.0,-153.0,59.0,177.0,140,75,70,124,124,337,481,518
2025-02-20 16:40:26.578,346.0,-567.0,1448.0,-84.0,106.0,195.0,138,76,69,124,124,280,483,487
2025-02-20 16:40:26.599,247.0,-294.0,1620.0,-49.0,163.0,225.0,139,76,68,123,123,257,467,450
2025-02-20 16:40:26.619,64.0,316.0,1581.0,-120.0,209.0,223.0,140,74,70,123,120,288,443,402
2025-02-20 16:40:26.636,-89.0,270.0,1356.0,-209.0,225.0,226.0,140,77,73,122,116,374,497,409
2025-02-20 16:40:26.656,-190.0,81.0,1163.0,-216.0,226.0,255.0,140,79,76,121,107,449,552,459
2025-02-20 16:40:26.674,-135.0,0.0,1020.0,-185.0,254.0,276.0,138,81,80,123,101,540,595,510
2025-02-20 16:40:26.693,7.0,406.0,722.0,-170.0,289.0,283.0,141,83,82,124,93,613,635,539
2025-02-20 16:40:26.714,-459.0,377.0,570.0,-130.0,282.0,233.0,141,87,84,124,83,576,595,539
2025-02-20 16:40:26.734,-621.0,276.0,439.0,-68.0,282.0,177.0,138,91,79,121,72,551,571,514
2025-02-20 16:40:26.751,-650.0,432.0,321.0,10.0,298.0,111.0,136,96,86,107,66,547,540,489
2025-02-20 16:40:26.771,-458.0,673.0,22.0,27.0,299.0,50.0,135,98,87,99,60,698,502,465
2025-02-20 16:40:26.788,-765.0,910.0,-229.0,7.0,265.0,-30.0,134,100,87,94,57,655,463,479
2025-02-20 16:40:26.807,-977.0,1908.0,-1377.0,-47.0,121.0,-149.0,132,101,88,96,52,650,411,493
2025-02-20 16:40:26.828,-1575.0,1977.0,-2018.0,-47.0,-109.0,-361.0,131,104,90,95,51,625,266,435
2025-02-20 16:40:26.845,-971.0,1759.0,-2335.0,-23.0,-451.0,-571.0,128,105,92,88,53,517,260,402
2025-02-20 16:40:26.862,195.0,1355.0,-1741.0,-71.0,-698.0,-666.0,125,117,97,86,54,408,305,409
2025-02-20 16:40:26.885,1988.0,-103.0,-744.0,-88.0,-846.0,-602.0,122,121,98,89,59,357,367,423
2025-02-20 16:40:26.902,2959.0,-1824.0,293.0,49.0,-841.0,-389.0,123,124,101,91,61,379,450,454
2025-02-20 16:40:26.923,3094.0,-1807.0,1325.0,59.0,-632.0,-120.0,128,127,102,90,61,474,518,481
2025-02-20 16:40:26.942,2941.0,-2255.0,2297.0,-40.0,-268.0,11.0,129,127,105,91,61,583,547,470
2025-02-20 16:40:26.960,2270.0,-2176.0,2320.0,0.0,38.0,63.0,130,127,106,89,62,488,545,466
2025-02-20 16:40:26.978,1221.0,-1551.0,1888.0,31.0,205.0,85.0,131,128,107,89,63,291,527,432
2025-02-20 16:40:26.995,668.0,-1208.0,1407.0,1.0,256.0,108.0,131,127,108,87,65,246,494,349
2025-02-20 16:40:27.017,372.0,-1015.0,1135.0,-29.0,262.0,132.0,132,129,107,86,69,235,472,371
2025-02-20 16:40:27.037,197.0,-822.0,1001.0,-62.0,237.0,132.0,131,129,107,86,72,345,465,430
2025-02-20 16:40:27.054,83.0,-792.0,844.0,-84.0,214.0,126.0,132,128,108,87,74,461,533,481
2025-02-20 16:40:27.074,146.0,-878.0,829.0,-83.0,224.0,137.0,132,129,109,86,76,580,540,576
2025-02-20 16:40:27.094,161.0,-862.0,707.0,-38.0,256.0,174.0,134,130,108,85,73,581,608,559
2025-02-20 16:40:27.111,21.0,-553.0,558.0,-18.0,284.0,210.0,137,127,109,89,71,557,531,534
2025-02-20 16:40:27.131,-114.0,-411.0,408.0,-4.0,284.0,227.0,136,127,108,88,70,600,443,483
2025-02-20 16:40:27.152,-133.0,-305.0,344.0,18.0,290.0,235.0,135,125,109,89,69,622,425,462
2025-02-20 16:40:27.169,-187.0,-231.0,275.0,45.0,305.0,235.0,134,126,108,90,70,513,440,451
2025-02-20 16:40:27.188,-371.0,-46.0,5.0,56.0,295.0,227.0,135,125,109,89,71,359,425,448
2025-02-20 16:40:27.209,-471.0,111.0,-286.0,75.0,242.0,206.0,136,126,108,89,72,258,373,432
2025-02-20 16:40:27.226,-647.0,450.0,-628.0,100.0,172.0,171.0,135,126,108,90,72,260,326,409
2025-02-20 16:40:27.245,-1205.0,1354.0,-1146.0,76.0,14.0,26.0,137,126,108,88,72,295,368,390
2025-02-20 16:40:27.266,-1550.0,1795.0,-1552.0,53.0,-174.0,-209.0,133,127,109,87,70,356,395,424
2025-02-20 16:40:27.283,-1200.0,1678.0,-1602.0,79.0,-398.0,-470.0,133,128,109,86,69,428,373,444
2025-02-20 16:40:27.303,-440.0,996.0,-1187.0,94.0,-671.0,-577.0,131,127,110,88,70,477,352,454
2025-02-20 16:40:27.321,1761.0,1312.0,-601.0,77.0,-872.0,-611.0,131,129,110,89,75,501,333,432
2025-02-20 16:40:27.341,3193.0,-1189.0,964.0,-147.0,-886.0,-496.0,133,132,109,90,80,520,338,421
2025-02-20 16:40:27.361,3346.0,-3288.0,1665.0,-54.0,-531.0,-158.0,134,132,111,92,82,540,393,449
2025-02-20 16:40:27.378,2922.0,-2803.0,1663.0,123.0,-109.0,108.0,135,132,110,92,83,659,469,454
2025-02-20 16:40:27.397,1590.0,-1439.0,1638.0,83.0,59.0,61.0,137,131,110,91,81,664,529,471
2025-02-20 16:40:27.417,943.0,-1345.0,1340.0,58.0,138.0,50.0,136,129,110,90,80,526,601,442
2025-02-20 16:40:27.434,650.0,-1446.0,1073.0,97.0,176.0,91.0,138,129,109,93,83,389,636,382
2025-02-20 16:40:27.455,501.0,-1396.0,859.0,156.0,193.0,131.0,136,128,108,96,83,368,599,385
2025-02-20 16:40:27.475,430.0,-1354.0,795.0,174.0,221.0,190.0,135,128,107,101,85,388,539,422
2025-02-20 16:40:27.492,309.0,-1001.0,767.0,212.0,227.0,244.0,137,127,104,103,86,488,565,468
2025-02-20 16:40:27.509,172.0,-549.0,509.0,178.0,185.0,304.0,140,122,99,105,85,617,569,477
2025-02-20 16:40:27.529,103.0,-356.0,513.0,114.0,122.0,346.0,138,116,94,108,84,575,551,459
2025-02-20 16:40:27.549,19.0,30.0,540.0,53.0,58.0,346.0,139,109,91,108,82,495,523,427
2025-02-20 16:40:27.569,-256.0,222.0,504.0,-28.0,-23.0,292.0,139,101,85,110,81,431,470,433
2025-02-20 16:40:27.583,-282.0,236.0,631.0,-23.0,-58.0,217.0,141,98,84,111,81,402,433,447
2025-02-20 16:40:27.607,-308.0,440.0,527.0,6.0,-76.0,156.0,142,89,80,108,82,327,435,460
2025-02-20 16:40:27.627,-359.0,624.0,781.0,75.0,-84.0,113.0,141,87,78,97,92,337,385,464
2025-02-20 16:40:27.644,-520.0,1315.0,832.0,117.0,-88.0,23.0,142,85,74,89,106,411,322,474
2025-02-20 16:40:27.664,-751.0,2113.0,1117.0,184.0,-44.0,-119.0,142,81,73,90,112,463,352,481
2025-02-20 16:40:27.684,-840.0,2530.0,1318.0,217.0,19.0,-288.0,143,79,70,92,117,463,359,468
2025-02-20 16:40:27.701,-639.0,2285.0,1159.0,301.0,90.0,-426.0,144,77,68,95,119,472,386,523
2025-02-20 16:40:27.721,-54.0,1603.0,993.0,339.0,114.0,-543.0,143,75,69,100,120,500,420,559
2025-02-20 16:40:27.738,733.0,606.0,1100.0,322.0,65.0,-606.0,143,73,68,105,120,492,454,548
2025-02-20 16:40:27.758,1313.0,-516.0,1142.0,292.0,-101.0,-547.0,142,70,67,107,118,455,526,526
2025-02-20 16:40:27.777,1840.0,-2083.0,1572.0,189.0,-228.0,-264.0,143,72,67,107,118,453,549,471
2025-02-20 16:40:27.795,1858.0,-2191.0,2339.0,-21.0,-194.0,33.0,143,75,69,109,119,457,581,466
2025-02-20 16:40:27.816,1377.0,-1528.0,2170.0,-204.0,-81.0,211.0,143,75,69,108,121,431,584,526
2025-02-20 16:40:27.836,665.0,-1185.0,1310.0,-169.0,19.0,261.0,143,76,71,106,121,436,521,541
2025-02-20 16:40:27.853,443.0,-838.0,1423.0,-44.0,77.0,292.0,142,77,71,103,122,424,419,500
2025-02-20 16:40:27.873,222.0,-139.0,1310.0,14.0,137.0,335.0,141,78,73,99,121,470,429,452
2025-02-20 16:40:27.890,93.0,391.0,1099.0,-17.0,150.0,327.0,144,78,73,99,121,478,428,372
2025-02-20 16:40:27.910,-133.0,617.0,1112.0,-57.0,149.0,264.0,141,78,74,94,121,473,438,357
2025-02-20 16:40:27.929,-375.0,465.0,1096.0,-51.0,157.0,227.0,141,76,72,91,124,513,420,408
2025-02-20 16:40:27.947,-302.0,705.0,729.0,-63.0,131.0,210.0,140,80,73,88,122,538,400,445
2025-02-20 16:40:27.967,-478.0,860.0,650.0,-83.0,82.0,186.0,141,79,73,88,126,521,399,463
2025-02-20 16:40:27.988,-560.0,1042.0,687.0,-99.0,52.0,149.0,142,78,73,85,125,434,443,448
2025-02-20 16:40:28.004,-558.0,1172.0,689.0,-94.0,54.0,78.0,141,78,74,85,126,451,464,471
2025-02-20 16:40:28.024,-689.0,1294.0,564.0,-23.0,52.0,10.0,142,79,74,81,126,584,531,513
2025-02-20 16:40:28.045,-796.0,1596.0,535.0,44.0,41.0,-107.0,140,79,73,81,126,620,599,520
2025-02-20 16:40:28.062,-945.0,2056.0,440.0,117.0,8.0,-253.0,140,79,75,80,127,589,559,518
2025-02-20 16:40:28.082,-895.0,2472.0,174.0,110.0,-36.0,-409.0,141,80,73,86,127,460,473,487
2025-02-20 16:40:28.100,-494.0,1966.0,90.0,103.0,-94.0,-532.0,141,80,74,89,127,360,419,454
2025-02-20 16:40:28.116,182.0,985.0,211.0,149.0,-226.0,-594.0,142,77,71,94,127,299,386,422
2025-02-20 16:40:28.139,1405.0,-598.0,710.0,172.0,-399.0,-494.0,142,80,72,100,128,301,364,455
2025-02-20 16:40:28.159,2339.0,-1862.0,1930.0,99.0,-361.0,-273.0,143,82,74,106,126,336,357,470
2025-02-20 16:40:28.176,2297.0,-1950.0,2588.0,-24.0,-163.0,-5.0,143,82,74,108,128,327,342,450
2025-02-20 16:40:28.197,1598.0,-1526.0,2232.0,-166.0,-6.0,85.0,143,83,75,108,128,325,474,519
2025-02-20 16:40:28.214,933.0,-1220.0,1458.0,-130.0,55.0,148.0,143,82,74,108,128,432,562,582
2025-02-20 16:40:28.233,303.0,-653.0,1395.0,-84.0,71.0,180.0,144,82,75,108,130,491,543,577
2025-02-20 16:40:28.253,191.0,-267.0,1601.0,-104.0,122.0,196.0,143,83,76,108,128,510,510,538
2025-02-20 16:40:28.269,83.0,-300.0,1468.0,-126.0,164.0,212.0,143,84,77,109,127,485,462,487
2025-02-20 16:40:28.291,-98.0,-305.0,1289.0,-132.0,157.0,242.0,141,87,79,110,127,458,413,441
2025-02-20 16:40:28.310,-187.0,-149.0,1224.0,-147.0,143.0,272.0,143,88,82,110,124,471,560,427
2025-02-20 16:40:28.329,-31.0,-5.0,1203.0,-179.0,179.0,292.0,143,91,83,110,117,517,663,437
2025-02-20 16:40:28.348,-136.0,-21.0,1249.0,-191.0,211.0,299.0,144,91,84,113,111,574,710,500
2025-02-20 16:40:28.368,-310.0,122.0,1148.0,-164.0,249.0,272.0,144,91,84,112,106,549,667,546
2025-02-20 16:40:28.383,-346.0,218.0,763.0,-127.0,276.0,217.0,144,90,84,111,108,602,548,535
2025-02-20 16:40:28.400,-281.0,265.0,767.0,-40.0,354.0,169.0,144,91,83,109,107,568,452,507
2025-02-20 16:40:28.422,-397.0,397.0,408.0,34.0,387.0,111.0,145,90,83,108,103,414,426,478
2025-02-20 16:40:28.442,-745.0,502.0,166.0,18.0,367.0,43.0,146,89,81,105,96,343,450,419
2025-02-20 16:40:28.462,-855.0,537.0,-168.0,-35.0,275.0,6.0,144,86,77,102,91,276,415,353
2025-02-20 16:40:28.480,-538.0,583.0,-421.0,-24.0,218.0,-19.0,143,78,73,99,85,359,326,389
2025-02-20 16:40:28.499,-613.0,1022.0,-712.0,-20.0,149.0,-50.0,143,73,70,97,80,478,288,411
2025-02-20 16:40:28.516,-719.0,1253.0,-1282.0,-7.0,63.0,-113.0,139,67,64,91,75,519,312,460
2025-02-20 16:40:28.535,-1187.0,1840.0,-1798.0,83.0,-103.0,-305.0,139,62,61,77,62,474,325,507
2025-02-20 16:40:28.557,-1389.0,2288.0,-1952.0,53.0,-325.0,-539.0,134,61,59,73,57,453,363,499
2025-02-20 16:40:28.577,-509.0,2698.0,-2515.0,-64.0,-678.0,-870.0,134,64,57,69,59,409,383,494
2025-02-20 16:40:28.594,2915.0,2074.0,-2517.0,-273.0,-1094.0,-980.0,130,62,55,66,60,387,392,521
2025-02-20 16:40:28.614,5175.0,-1923.0,-549.0,-324.0,-1212.0,-677.0,130,62,51,66,64,483,293,511
2025-02-20 16:40:28.632,5386.0,-6372.0,2325.0,-245.0,-444.0,-69.0,127,62,54,69,62,564,295,456
2025-02-20 16:40:28.651,4417.0,-4832.0,1556.0,117.0,208.0,148.0,124,61,55,67,58,560,514,398
2025-02-20 16:40:28.672,1288.0,-2451.0,602.0,334.0,339.0,130.0,123,54,54,65,52,465,599,377
2025-02-20 16:40:28.689,309.0,-1090.0,387.0,212.0,231.0,203.0,124,54,55,66,51,491,619,416
2025-02-20 16:40:28.708,42.0,-702.0,634.0,15.0,177.0,202.0,123,54,56,68,54,555,562,442
2025-02-20 16:40:28.728,107.0,-1167.0,952.0,-29.0,162.0,218.0,123,63,58,68,62,325,482,448
2025-02-20 16:40:28.745,260.0,-1567.0,813.0,16.0,198.0,207.0,124,61,57,69,65,266,336,427
2025-02-20 16:40:28.765,-73.0,-625.0,713.0,44.0,231.0,206.0,124,63,57,69,70,258,328,400
2025-02-20 16:40:28.786,-99.0,-408.0,640.0,-16.0,239.0,200.0,125,64,58,71,72,302,602,347
2025-02-20 16:40:28.803,-210.0,-341.0,585.0,-76.0,211.0,217.0,127,63,56,66,70,536,691,398
2025-02-20 16:40:28.823,-200.0,-392.0,438.0,-111.0,187.0,223.0,129,64,56,65,67,556,578,435
2025-02-20 16:40:28.838,-297.0,-81.0,320.0,-119.0,148.0,222.0,130,61,57,68,66,490,474,469
2025-02-20 16:40:28.860,-540.0,-1.0,136.0,-58.0,181.0,206.0,131,60,59,69,66,435,543,517
2025-02-20 16:40:28.880,-501.0,-57.0,-72.0,56.0,190.0,174.0,131,60,59,70,68,466,460,549
2025-02-20 16:40:28.897,-436.0,319.0,-282.0,115.0,180.0,162.0,131,62,58,69,74,412,246,559
2025-02-20 16:40:28.917,-690.0,625.0,-630.0,199.0,137.0,146.0,132,64,59,68,76,511,295,548
2025-02-20 16:40:28.936,-941.0,1379.0,-1125.0,179.0,40.0,43.0,133,64,60,67,72,658,372,524
2025-02-20 16:40:28.955,-1478.0,2015.0,-1627.0,164.0,-159.0,-211.0,131,64,59,68,72,727,448,492
2025-02-20 16:40:28.975,-1257.0,2350.0,-1537.0,189.0,-390.0,-535.0,128,64,58,66,67,613,524,486
2025-02-20 16:40:28.995,119.0,2262.0,-1781.0,106.0,-787.0,-736.0,125,65,57,68,66,482,576,461
2025-02-20 16:40:29.012,3100.0,807.0,-1070.0,-148.0,-1108.0,-711.0,127,63,57,69,68,402,575,438
2025-02-20 16:40:29.032,4666.0,-3931.0,1168.0,-142.0,-874.0,-328.0,130,64,58,71,73,361,582,455
2025-02-20 16:40:29.052,4655.0,-5083.0,2828.0,132.0,-179.0,39.0,132,65,58,71,74,492,563,425
2025-02-20 16:40:29.069,2256.0,-1666.0,1778.0,203.0,197.0,38.0,131,61,55,68,70,507,498,422
2025-02-20 16:40:29.086,249.0,-851.0,1118.0,49.0,196.0,27.0,129,62,59,69,67,410,396,381
2025-02-20 16:40:29.106,-222.0,-788.0,581.0,-92.0,137.0,59.0,128,64,57,69,72,318,388,373
2025-02-20 16:40:29.124,-137.0,-943.0,500.0,-76.0,43.0,27.0,127,66,58,74,73,214,386,402
2025-02-20 16:40:29.147,68.0,-1291.0,493.0,-12.0,18.0,6.0,124,61,59,75,77,124,270,407
2025-02-20 16:40:29.164,274.0,-956.0,593.0,35.0,18.0,15.0,126,63,59,75,79,193,291,439
2025-02-20 16:40:29.184,270.0,-851.0,708.0,13.0,29.0,24.0,127,64,59,77,80,276,598,451
2025-02-20 16:40:29.204,190.0,-791.0,740.0,-26.0,26.0,38.0,127,65,58,77,79,497,645,454
2025-02-20 16:40:29.220,33.0,-643.0,690.0,-39.0,12.0,44.0,129,65,58,72,78,651,552,461
2025-02-20 16:40:29.241,-70.0,-521.0,606.0,-33.0,-8.0,24.0,129,65,58,70,77,626,527,408
2025-02-20 16:40:29.258,20.0,-605.0,626.0,-18.0,-1.0,13.0,129,65,59,71,78,582,477,349
2025-02-20 16:40:29.277,117.0,-661.0,654.0,-6.0,19.0,6.0,130,66,59,72,78,581,350,406
2025-02-20 16:40:29.298,169.0,-791.0,608.0,7.0,38.0,9.0,129,66,60,73,79,528,378,501
2025-02-20 16:40:29.315,132.0,-760.0,570.0,25.0,41.0,12.0,132,65,60,73,80,421,416,546
2025-02-20 16:40:29.335,61.0,-727.0,525.0,32.0,26.0,8.0,128,67,60,74,80,508,420,567
2025-02-20 16:40:29.353,8.0,-661.0,532.0,21.0,2.0,12.0,131,66,60,74,81,590,471,543
2025-02-20 16:40:29.369,22.0,-555.0,629.0,-3.0,-10.0,12.0,129,67,60,74,80,661,477,479
2025-02-20 16:40:29.392,57.0,-597.0,677.0,-25.0,-8.0,0.0,129,68,59,73,79,677,518,457
2025-02-20 16:40:29.412,84.0,-766.0,692.0,-18.0,-1.0,0.0,130,67,60,73,80,585,495,473
2025-02-20 16:40:29.429,85.0,-816.0,682.0,3.0,10.0,2.0,130,67,60,73,79,493,525,519
2025-02-20 16:40:29.449,60.0,-789.0,645.0,15.0,11.0,5.0,131,68,60,73,80,450,545,531
2025-02-20 16:40:29.466,38.0,-715.0,671.0,17.0,8.0,2.0,128,68,59,74,80,460,515,504
2025-02-20 16:40:29.487,35.0,-749.0,695.0,13.0,7.0,-1.0,130,67,61,74,81,475,474,480
2025-02-20 16:40:29.507,38.0,-727.0,721.0,2.0,6.0,0.0,130,67,61,74,80,455,421,458
2025-02-20 16:40:29.524,39.0,-747.0,711.0,-11.0,3.0,-2.0,130,68,61,73,80,437,429,450
2025-02-20 16:40:29.544,46.0,-802.0,681.0,-17.0,0.0,1.0,130,68,61,76,81,460,480,445
2025-02-20 16:40:29.564,60.0,-790.0,658.0,-16.0,1.0,-1.0,131,68,60,74,80,495,533,438
2025-02-20 16:40:29.582,57.0,-822.0,632.0,-11.0,3.0,0.0,131,69,61,75,78,525,529,439
2025-02-20 16:40:29.601,81.0,-842.0,634.0,-3.0,6.0,0.0,130,68,61,75,80,533,519,453
2025-02-20 16:40:29.618,70.0,-835.0,633.0,3.0,7.0,3.0,130,67,61,75,80,539,509,452
2025-02-20 16:40:29.638,67.0,-788.0,653.0,3.0,4.0,2.0,128,68,61,75,81,535,494,429
2025-02-20 16:40:29.658,43.0,-792.0,666.0,-1.0,1.0,5.0,130,67,61,75,80,504,474,423
2025-02-20 16:40:29.675,30.0,-760.0,683.0,-4.0,1.0,4.0,130,68,62,75,80,481,425,433
2025-02-20 16:40:29.696,26.0,-754.0,681.0,-7.0,1.0,3.0,132,69,61,75,80,458,370,444
2025-02-20 16:40:29.715,42.0,-747.0,681.0,-8.0,1.0,-1.0,131,69,62,75,80,441,350,456
2025-02-20 16:40:29.732,54.0,-798.0,665.0,-8.0,4.0,-1.0,130,67,61,74,80,434,370,465
2025-02-20 16:40:29.753,39.0,-799.0,635.0,-6.0,5.0,0.0,130,67,61,71,80,440,408,470
2025-02-20 16:40:29.773,30.0,-805.0,621.0,-3.0,2.0,2.0,130,68,60,75,80,455,457,470
2025-02-20 16:40:29.790,26.0,-781.0,627.0,-1.0,-2.0,1.0,129,69,61,75,80,487,504,473
2025-02-20 16:40:29.811,53.0,-775.0,662.0,-1.0,2.0,-1.0,130,68,61,75,81,485,506,478
2025-02-20 16:40:29.830,50.0,-788.0,660.0,-1.0,9.0,-1.0,130,68,62,75,81,466,493,480
2025-02-20 16:40:29.848,32.0,-789.0,644.0,-2.0,9.0,1.0,130,68,62,77,81,461,490,481
2025-02-20 16:40:29.868,27.0,-778.0,627.0,-3.0,7.0,0.0,130,69,62,75,82,459,477,479
2025-02-20 16:40:29.884,19.0,-795.0,622.0,-4.0,5.0,2.0,130,68,62,76,81,459,456,480
2025-02-20 16:40:29.903,20.0,-790.0,614.0,-4.0,3.0,2.0,130,68,61,76,82,452,420,480
2025-02-20 16:40:29.923,16.0,-787.0,614.0,-3.0,0.0,3.0,132,68,60,75,82,440,402,480
2025-02-20 16:40:29.942,26.0,-781.0,641.0,-3.0,0.0,2.0,131,69,61,75,81,428,399,475
2025-02-20 16:40:29.962,23.0,-790.0,643.0,-3.0,2.0,0.0,133,68,61,74,81,428,409,471
2025-02-20 16:40:29.982,19.0,-814.0,634.0,-2.0,1.0,2.0,132,69,62,74,80,438,425,471
2025-02-20 16:40:29.999,26.0,-789.0,649.0,-3.0,1.0,4.0,130,67,61,75,82,448,441,473
2025-02-20 16:40:30.019,18.0,-789.0,657.0,-3.0,3.0,3.0,129,69,61,74,81,457,456,475
2025-02-20 16:40:30.040,12.0,-779.0,645.0,-4.0,5.0,2.0,131,69,61,74,82,461,467,477
2025-02-20 16:40:30.055,17.0,-792.0,641.0,-5.0,5.0,2.0,132,67,62,73,82,463,470,479
2025-02-20 16:40:30.074,11.0,-799.0,638.0,-4.0,5.0,2.0,131,67,63,74,83,465,468,480
2025-02-20 16:40:30.093,17.0,-790.0,630.0,-4.0,4.0,2.0,130,69,62,74,83,467,470,481
2025-02-20 16:40:30.111,7.0,-786.0,624.0,-5.0,1.0,3.0,130,68,61,72,81,471,476,482
2025-02-20 16:40:30.134,-3.0,-794.0,604.0,-4.0,-3.0,3.0,129,68,61,73,82,471,481,481
2025-02-20 16:40:30.150,0.0,-767.0,614.0,-2.0,-6.0,3.0,130,69,62,73,83,473,486,479
2025-02-20 16:40:30.171,16.0,-761.0,655.0,-2.0,-5.0,2.0,131,68,61,72,82,473,486,476
2025-02-20 16:40:30.191,24.0,-799.0,694.0,-4.0,1.0,0.0,130,68,61,73,82,470,482,472
2025-02-20 16:40:30.207,9.0,-789.0,660.0,-2.0,3.0,0.0,132,68,61,72,83,472,480,471
2025-02-20 16:40:30.228,2.0,-781.0,644.0,-1.0,2.0,0.0,131,68,62,73,83,475,477,468
2025-02-20 16:40:30.248,-1.0,-777.0,634.0,-3.0,-1.0,0.0,131,69,62,74,83,476,476,468
2025-02-20 16:40:30.265,4.0,-788.0,641.0,-3.0,-1.0,0.0,131,68,61,72,84,475,475,467
2025-02-20 16:40:30.285,6.0,-795.0,647.0,-2.0,0.0,0.0,132,69,61,73,84,477,476,467
2025-02-20 16:40:30.302,-8.0,-783.0,647.0,2.0,0.0,-1.0,132,67,61,74,83,481,482,466
2025-02-20 16:40:30.321,25.0,-790.0,664.0,0.0,2.0,-1.0,130,68,61,73,83,479,478,467
2025-02-20 16:40:30.341,17.0,-795.0,651.0,-1.0,3.0,0.0,131,68,62,70,84,477,471,468
2025-02-20 16:40:30.357,-5.0,-785.0,635.0,-2.0,2.0,0.0,132,67,62,72,83,464,463,468
2025-02-20 16:40:30.379,-2.0,-772.0,632.0,-4.0,1.0,0.0,132,67,62,73,85,452,456,471
2025-02-20 16:40:30.400,1.0,-778.0,633.0,-4.0,1.0,-2.0,131,68,62,72,85,444,450,471
2025-02-20 16:40:30.414,5.0,-806.0,637.0,-2.0,1.0,-2.0,132,67,61,73,83,442,449,471
2025-02-20 16:40:30.437,5.0,-798.0,643.0,-2.0,1.0,-2.0,131,68,63,73,83,451,450,473
2025-02-20 16:40:30.457,17.0,-820.0,643.0,-3.0,1.0,0.0,131,67,62,72,83,460,453,475
2025-02-20 16:40:30.474,4.0,-808.0,627.0,-5.0,1.0,2.0,132,67,62,74,83,469,454,477
2025-02-20 16:40:30.494,5.0,-795.0,629.0,-7.0,2.0,2.0,131,67,61,72,83,476,455,477
2025-02-20 16:40:30.514,-13.0,-803.0,629.0,-6.0,1.0,3.0,130,68,62,72,84,476,456,475
2025-02-20 16:40:30.528,-8.0,-792.0,634.0,-5.0,1.0,2.0,130,67,62,72,83,474,457,472
2025-02-20 16:40:30.552,4.0,-804.0,634.0,-4.0,4.0,1.0,132,67,62,72,84,477,457,470
2025-02-20 16:40:30.569,-4.0,-811.0,620.0,-3.0,4.0,2.0,131,68,61,73,84,479,459,470
2025-02-20 16:40:30.588,-11.0,-799.0,619.0,-2.0,1.0,3.0,129,67,61,71,83,484,460,466
2025-02-20 16:40:30.607,-17.0,-785.0,623.0,-2.0,-3.0,2.0,132,67,62,72,83,487,461,463
2025-02-20 16:40:30.626,-19.0,-780.0,635.0,-4.0,-3.0,3.0,132,67,62,71,83,486,462,462
2025-02-20 16:40:30.646,-20.0,-784.0,647.0,-2.0,0.0,1.0,132,68,62,71,84,484,465,462
2025-02-20 16:40:30.666,-16.0,-790.0,642.0,0.0,3.0,0.0,131,68,62,72,83,483,465,461
2025-02-20 16:40:30.683,-18.0,-792.0,629.0,0.0,3.0,-1.0,131,67,62,72,83,482,467,461
2025-02-20 16:40:30.703,-7.0,-798.0,631.0,-3.0,1.0,-1.0,131,67,61,72,83,477,469,461
2025-02-20 16:40:30.723,12.0,-796.0,635.0,-5.0,0.0,-1.0,133,67,61,71,83,469,470,461
2025-02-20 16:40:30.740,17.0,-820.0,638.0,-6.0,1.0,0.0,132,67,62,72,83,465,474,460
2025-02-20 16:40:30.760,7.0,-809.0,635.0,-3.0,2.0,1.0,130,67,61,72,83,463,473,461
2025-02-20 16:40:30.778,-13.0,-796.0,636.0,-3.0,4.0,2.0,131,67,62,72,82,461,473,460
2025-02-20 16:40:30.798,-15.0,-772.0,626.0,-4.0,2.0,1.0,131,67,62,71,83,462,471,460
2025-02-20 16:40:30.818,-29.0,-782.0,616.0,-3.0,0.0,0.0,133,66,62,73,82,458,467,461
2025-02-20 16:40:30.835,-31.0,-776.0,630.0,-2.0,-1.0,1.0,132,67,62,73,83,452,463,463
2025-02-20 16:40:30.854,-28.0,-768.0,643.0,-1.0,2.0,-3.0,130,66,60,72,82,439,459,461
2025-02-20 16:40:30.874,-29.0,-795.0,633.0,2.0,3.0,-3.0,131,68,62,71,82,437,456,463
2025-02-20 16:40:30.892,-36.0,-784.0,620.0,2.0,3.0,-4.0,132,66,61,72,82,436,455,462
2025-02-20 16:40:30.912,-17.0,-790.0,622.0,-2.0,1.0,-5.0,133,67,62,72,82,436,456,464
2025-02-20 16:40:30.932,-4.0,-817.0,625.0,-3.0,2.0,-4.0,132,68,61,72,82,437,455,465
2025-02-20 16:40:30.949,-10.0,-828.0,600.0,0.0,3.0,-2.0,132,67,63,73,82,436,457,467
2025-02-20 16:40:30.970,-15.0,-819.0,603.0,2.0,1.0,-2.0,131,66,61,72,83,437,458,466
2025-02-20 16:40:30.989,-12.0,-816.0,611.0,2.0,-1.0,-3.0,130,67,62,72,82,437,459,465
2025-02-20 16:40:31.006,-7.0,-806.0,616.0,4.0,-1.0,-2.0,134,67,62,72,84,439,459,466
2025-02-20 16:40:31.027,-18.0,-826.0,622.0,5.0,0.0,-1.0,132,67,61,71,82,440,460,466
2025-02-20 16:40:31.044,-26.0,-811.0,624.0,3.0,-3.0,-1.0,132,66,62,72,83,436,462,465
2025-02-20 16:40:31.064,-31.0,-815.0,630.0,2.0,-4.0,0.0,131,68,63,71,82,429,462,462
2025-02-20 16:40:31.083,-25.0,-808.0,635.0,3.0,-4.0,0.0,133,69,62,71,80,429,464,461
2025-02-20 16:40:31.099,-10.0,-797.0,649.0,1.0,-2.0,-1.0,131,68,62,72,83,430,466,461
2025-02-20 16:40:31.121,-13.0,-811.0,633.0,1.0,-1.0,-1.0,131,67,61,72,83,428,466,460
2025-02-20 16:40:31.139,-10.0,-807.0,623.0,1.0,-2.0,0.0,132,67,62,72,82,432,466,459
