timestamp,ax,ay,az,gx,gy,gz,flex1,flex2,flex3,flex4,flex5,emg1,emg2,emg3
2025-02-26 14:08:31.089,-241.0,-890.0,405.0,-4.0,0.0,0.0,144,116,124,123,115
2025-02-26 14:08:31.089,-234.0,-888.0,395.0,-5.0,1.0,0.0,145,118,126,125,118
2025-02-26 14:08:31.094,-239.0,-887.0,405.0,-5.0,1.0,0.0,148,116,124,121,115
2025-02-26 14:08:31.097,-245.0,-890.0,407.0,-4.0,1.0,0.0,144,116,124,124,116
2025-02-26 14:08:31.099,-247.0,-891.0,412.0,-5.0,1.0,0.0,145,117,123,126,118
2025-02-26 14:08:31.101,-248.0,-890.0,409.0,-5.0,1.0,-1.0,145,115,125,123,117
2025-02-26 14:08:31.103,-246.0,-892.0,404.0,-5.0,1.0,-1.0,145,118,125,124,116
2025-02-26 14:08:31.105,-251.0,-903.0,402.0,-4.0,2.0,-1.0,145,118,127,124,117
2025-02-26 14:08:31.108,-253.0,-912.0,397.0,-3.0,1.0,-1.0,144,117,125,126,118
2025-02-26 14:08:31.110,-250.0,-909.0,407.0,-3.0,1.0,-1.0,145,117,125,120,117
2025-02-26 14:08:31.112,-248.0,-908.0,407.0,-2.0,1.0,-1.0,145,117,126,125,117
2025-02-26 14:08:31.113,-250.0,-903.0,398.0,-2.0,0.0,-2.0,143,116,125,122,117
2025-02-26 14:08:31.113,-250.0,-896.0,408.0,-1.0,0.0,-1.0,146,119,126,124,118
2025-02-26 14:08:31.119,-250.0,-906.0,409.0,-1.0,1.0,-1.0,142,117,125,125,117
2025-02-26 14:08:31.119,-243.0,-897.0,397.0,0.0,1.0,-1.0,143,117,123,122,116
2025-02-26 14:08:31.124,-243.0,-889.0,414.0,-1.0,0.0,-1.0,144,117,125,124,117
2025-02-26 14:08:31.127,-249.0,-896.0,415.0,-2.0,0.0,-1.0,146,118,127,127,117
2025-02-26 14:08:31.129,-247.0,-894.0,395.0,-2.0,0.0,-1.0,144,117,124,123,116
2025-02-26 14:08:31.131,-245.0,-895.0,400.0,-1.0,-1.0,-1.0,144,117,125,124,118
2025-02-26 14:08:31.131,-238.0,-893.0,395.0,-1.0,-1.0,-1.0,145,118,126,124,117
2025-02-26 14:08:31.131,-235.0,-896.0,401.0,-1.0,-1.0,-1.0,145,117,126,123,117
2025-02-26 14:08:31.138,-231.0,-890.0,401.0,-2.0,-1.0,-1.0,145,117,126,125,118
2025-02-26 14:08:31.140,-232.0,-886.0,403.0,-2.0,-1.0,-1.0,143,117,125,123,118
2025-02-26 14:08:31.142,-237.0,-889.0,406.0,-3.0,0.0,-1.0,142,116,124,123,117
2025-02-26 14:08:31.143,-237.0,-888.0,410.0,-3.0,0.0,-1.0,144,120,127,126,120
2025-02-26 14:08:31.143,-233.0,-900.0,404.0,-3.0,1.0,-1.0,145,117,125,123,118
2025-02-26 14:08:31.150,-238.0,-906.0,400.0,-2.0,1.0,-1.0,143,118,125,123,118
2025-02-26 14:08:31.152,-242.0,-907.0,415.0,-2.0,1.0,0.0,145,120,126,124,118
2025-02-26 14:08:31.154,-249.0,-901.0,416.0,-2.0,0.0,0.0,145,118,127,126,118
2025-02-26 14:08:31.156,-249.0,-913.0,406.0,-2.0,1.0,0.0,144,116,123,123,118
2025-02-26 14:08:31.156,-247.0,-921.0,406.0,-2.0,2.0,1.0,143,116,124,123,118
2025-02-26 14:08:31.161,-246.0,-933.0,410.0,-1.0,1.0,2.0,144,119,126,125,116
2025-02-26 14:08:31.162,-242.0,-923.0,410.0,-1.0,2.0,2.0,144,119,127,126,122
2025-02-26 14:08:31.165,-252.0,-921.0,408.0,0.0,2.0,2.0,141,116,124,123,118
2025-02-26 14:08:31.167,-249.0,-924.0,411.0,0.0,0.0,2.0,145,119,126,124,118
2025-02-26 14:08:31.170,-240.0,-917.0,407.0,0.0,0.0,2.0,143,117,125,125,120
2025-02-26 14:08:31.173,-240.0,-907.0,400.0,-1.0,0.0,3.0,143,118,126,124,118
2025-02-26 14:08:31.174,-241.0,-908.0,411.0,-2.0,1.0,3.0,141,118,126,124,118
2025-02-26 14:08:31.177,-244.0,-900.0,417.0,-2.0,1.0,3.0,141,118,126,125,118
2025-02-26 14:08:31.180,-247.0,-898.0,409.0,-2.0,1.0,4.0,143,116,124,122,117
2025-02-26 14:08:31.180,-250.0,-898.0,406.0,-1.0,2.0,4.0,144,115,124,124,118
2025-02-26 14:08:31.180,-250.0,-901.0,403.0,-2.0,1.0,4.0,145,118,126,126,119
2025-02-26 14:08:31.186,-250.0,-897.0,415.0,-2.0,2.0,4.0,141,117,124,124,119
2025-02-26 14:08:31.193,-250.0,-883.0,415.0,-3.0,2.0,4.0,143,116,124,120,119
2025-02-26 14:08:31.197,-247.0,-883.0,412.0,-3.0,2.0,5.0,146,119,127,124,119
2025-02-26 14:08:31.198,-258.0,-894.0,414.0,-3.0,2.0,4.0,144,117,126,124,119
2025-02-26 14:08:31.210,-252.0,-895.0,397.0,-3.0,2.0,4.0,143,117,128,122,117
2025-02-26 14:08:31.210,-256.0,-893.0,403.0,-3.0,2.0,4.0,142,118,123,121,117
2025-02-26 14:08:31.218,-249.0,-896.0,405.0,-3.0,2.0,3.0,144,115,126,125,119
2025-02-26 14:08:31.222,-252.0,-901.0,405.0,-3.0,2.0,3.0,144,119,128,123,118
2025-02-26 14:08:31.228,-252.0,-902.0,402.0,-3.0,1.0,2.0,145,116,123,122,117
2025-02-26 14:08:31.234,-252.0,-909.0,405.0,-4.0,1.0,3.0,144,117,127,124,119
2025-02-26 14:08:31.238,-256.0,-904.0,409.0,-5.0,1.0,3.0,145,117,125,125,119
2025-02-26 14:08:31.243,-254.0,-901.0,405.0,-4.0,1.0,3.0,143,117,125,123,120
2025-02-26 14:08:31.247,-246.0,-893.0,404.0,-4.0,1.0,2.0,145,115,123,121,118
2025-02-26 14:08:31.254,-248.0,-909.0,416.0,-5.0,2.0,2.0,144,117,125,122,119
2025-02-26 14:08:31.259,-251.0,-917.0,411.0,-5.0,1.0,2.0,146,117,129,125,120
2025-02-26 14:08:31.259,-252.0,-912.0,412.0,-4.0,1.0,2.0,142,118,124,120,118
2025-02-26 14:08:31.271,-258.0,-916.0,415.0,-4.0,1.0,3.0,144,118,127,122,119
2025-02-26 14:08:31.275,-265.0,-911.0,422.0,-3.0,1.0,2.0,145,118,126,125,119
2025-02-26 14:08:31.276,-259.0,-899.0,400.0,-3.0,1.0,2.0,143,116,120,123,119
2025-02-26 14:08:31.284,-259.0,-903.0,410.0,-4.0,0.0,2.0,143,115,123,123,119
2025-02-26 14:08:31.288,-269.0,-884.0,410.0,-2.0,1.0,3.0,143,117,118,122,118
2025-02-26 14:08:31.295,-266.0,-863.0,395.0,-2.0,2.0,3.0,145,116,125,122,118
2025-02-26 14:08:31.300,-255.0,-871.0,396.0,-2.0,4.0,3.0,143,117,127,122,119
2025-02-26 14:08:31.304,-255.0,-882.0,395.0,-3.0,3.0,3.0,144,118,125,125,121
2025-02-26 14:08:31.308,-245.0,-881.0,443.0,-1.0,1.0,1.0,149,116,125,126,119
2025-02-26 14:08:31.313,-272.0,-909.0,376.0,-4.0,-3.0,2.0,143,117,125,123,118
2025-02-26 14:08:31.319,-276.0,-881.0,412.0,-3.0,-1.0,2.0,143,117,126,122,118
2025-02-26 14:08:31.324,-267.0,-860.0,389.0,-3.0,1.0,2.0,144,118,127,123,120
2025-02-26 14:08:31.325,-260.0,-887.0,406.0,-3.0,1.0,1.0,144,125,126,123,118
2025-02-26 14:08:31.336,-257.0,-915.0,415.0,-4.0,0.0,1.0,144,115,124,120,118
2025-02-26 14:08:31.340,-288.0,-917.0,389.0,-4.0,-2.0,0.0,144,119,125,124,121
2025-02-26 14:08:31.345,-269.0,-892.0,407.0,-3.0,-2.0,0.0,145,115,127,123,120
2025-02-26 14:08:31.349,-257.0,-892.0,409.0,-3.0,-1.0,0.0,142,118,126,123,118
2025-02-26 14:08:31.357,-255.0,-884.0,412.0,-3.0,0.0,0.0,140,116,126,123,119
2025-02-26 14:08:31.361,-261.0,-891.0,404.0,-3.0,0.0,-1.0,145,118,126,124,120
2025-02-26 14:08:31.365,-254.0,-904.0,404.0,-3.0,1.0,-1.0,143,116,126,123,119
2025-02-26 14:08:31.370,-256.0,-897.0,393.0,-4.0,0.0,-1.0,143,117,125,121,118
2025-02-26 14:08:31.377,-262.0,-887.0,397.0,-3.0,1.0,-1.0,144,120,125,122,120
2025-02-26 14:08:31.380,-261.0,-890.0,400.0,-3.0,2.0,-1.0,143,119,126,120,120
2025-02-26 14:08:31.386,-275.0,-898.0,392.0,-3.0,3.0,-1.0,145,118,125,122,119
2025-02-26 14:08:31.390,-280.0,-911.0,395.0,-2.0,3.0,-1.0,142,117,125,121,119
2025-02-26 14:08:31.398,-281.0,-922.0,388.0,-2.0,2.0,-1.0,143,119,126,124,119
2025-02-26 14:08:31.402,-277.0,-930.0,384.0,-3.0,1.0,0.0,143,119,125,123,120
2025-02-26 14:08:31.407,-279.0,-919.0,395.0,-3.0,1.0,0.0,143,116,125,123,120
2025-02-26 14:08:31.410,-286.0,-923.0,395.0,-2.0,1.0,1.0,142,117,125,121,118
2025-02-26 14:08:31.418,-277.0,-918.0,400.0,-3.0,2.0,1.0,145,120,126,123,121
2025-02-26 14:08:31.422,-268.0,-932.0,401.0,-3.0,2.0,1.0,143,119,123,121,120
2025-02-26 14:08:31.427,-275.0,-946.0,386.0,-5.0,1.0,2.0,142,117,123,121,119
2025-02-26 14:08:31.431,-272.0,-945.0,398.0,-6.0,1.0,2.0,145,119,125,121,120
2025-02-26 14:08:31.434,-265.0,-943.0,402.0,-7.0,2.0,2.0,145,119,126,125,121
2025-02-26 14:08:31.443,-260.0,-938.0,413.0,-8.0,3.0,2.0,142,117,125,122,121
2025-02-26 14:08:31.446,-256.0,-941.0,403.0,-8.0,4.0,2.0,143,118,124,122,118
2025-02-26 14:08:31.452,-251.0,-943.0,410.0,-8.0,5.0,2.0,145,117,125,123,120
2025-02-26 14:08:31.456,-257.0,-952.0,404.0,-9.0,5.0,3.0,145,119,127,123,120
2025-02-26 14:08:31.463,-259.0,-953.0,423.0,-10.0,6.0,3.0,141,114,125,122,119
2025-02-26 14:08:31.465,-262.0,-957.0,424.0,-11.0,7.0,3.0,146,119,127,123,119
2025-02-26 14:08:31.472,-262.0,-953.0,421.0,-12.0,7.0,4.0,143,119,126,122,121
2025-02-26 14:08:31.476,-261.0,-939.0,418.0,-12.0,8.0,4.0,144,119,126,124,120
2025-02-26 14:08:31.484,-256.0,-946.0,416.0,-14.0,8.0,5.0,140,117,124,122,119
2025-02-26 14:08:31.488,-250.0,-949.0,413.0,-16.0,9.0,6.0,141,118,124,122,120
2025-02-26 14:08:31.489,-257.0,-937.0,405.0,-16.0,10.0,8.0,143,119,127,123,120
2025-02-26 14:08:31.500,-274.0,-923.0,395.0,-17.0,11.0,10.0,138,118,124,114,121
2025-02-26 14:08:31.501,-286.0,-912.0,399.0,-18.0,13.0,11.0,142,117,124,121,118
2025-02-26 14:08:31.509,-295.0,-913.0,394.0,-18.0,15.0,13.0,143,113,126,120,118
2025-02-26 14:08:31.513,-312.0,-910.0,393.0,-19.0,15.0,15.0,143,118,126,122,120
2025-02-26 14:08:31.519,-324.0,-833.0,509.0,-16.0,19.0,15.0,145,120,125,123,120
2025-02-26 14:08:31.525,-344.0,-892.0,363.0,-20.0,16.0,14.0,143,118,125,121,118
2025-02-26 14:08:31.530,-345.0,-868.0,438.0,-22.0,17.0,13.0,143,117,124,120,120
2025-02-26 14:08:31.537,-333.0,-871.0,402.0,-22.0,18.0,12.0,143,117,125,123,120
2025-02-26 14:08:31.537,-339.0,-877.0,416.0,-26.0,18.0,9.0,145,119,126,123,120
2025-02-26 14:08:31.545,-331.0,-881.0,420.0,-27.0,17.0,7.0,140,118,124,121,120
2025-02-26 14:08:31.550,-336.0,-892.0,408.0,-27.0,17.0,3.0,142,117,123,121,119
2025-02-26 14:08:31.556,-314.0,-896.0,414.0,-28.0,17.0,1.0,144,118,128,122,120
2025-02-26 14:08:31.562,-300.0,-913.0,414.0,-31.0,17.0,0.0,143,118,125,122,120
2025-02-26 14:08:31.566,-292.0,-933.0,419.0,-34.0,18.0,-2.0,144,118,126,121,120
2025-02-26 14:08:31.574,-292.0,-959.0,418.0,-35.0,18.0,-3.0,145,118,125,121,120
2025-02-26 14:08:31.578,-287.0,-982.0,412.0,-38.0,18.0,-1.0,145,118,124,121,120
2025-02-26 14:08:31.582,-290.0,-988.0,397.0,-38.0,19.0,0.0,142,116,124,121,119
2025-02-26 14:08:31.587,-306.0,-1021.0,398.0,-41.0,20.0,2.0,146,118,126,121,120
2025-02-26 14:08:31.595,-307.0,-1042.0,441.0,-44.0,23.0,5.0,143,119,124,122,120
2025-02-26 14:08:31.598,-315.0,-1072.0,443.0,-44.0,22.0,8.0,143,118,118,121,119
2025-02-26 14:08:31.603,-339.0,-1121.0,432.0,-45.0,22.0,11.0,142,117,125,123,120
2025-02-26 14:08:31.610,-334.0,-1126.0,446.0,-50.0,24.0,12.0,144,117,125,119,119
2025-02-26 14:08:31.615,-327.0,-1138.0,433.0,-51.0,27.0,13.0,145,119,126,123,122
2025-02-26 14:08:31.616,-332.0,-1162.0,421.0,-51.0,30.0,15.0,144,120,126,122,121
2025-02-26 14:08:31.627,-334.0,-1166.0,423.0,-51.0,33.0,18.0,144,117,124,121,120
2025-02-26 14:08:31.628,-320.0,-1146.0,428.0,-53.0,35.0,21.0,144,117,124,119,119
2025-02-26 14:08:31.635,-318.0,-1130.0,429.0,-55.0,39.0,25.0,146,118,125,122,120
2025-02-26 14:08:31.643,-309.0,-1100.0,430.0,-60.0,42.0,26.0,143,118,123,119,119
2025-02-26 14:08:31.647,-305.0,-1072.0,430.0,-63.0,47.0,28.0,145,119,125,121,120
2025-02-26 14:08:31.652,-302.0,-1066.0,420.0,-66.0,49.0,30.0,143,118,125,120,119
2025-02-26 14:08:31.660,-300.0,-1059.0,400.0,-66.0,54.0,32.0,143,117,125,123,122
2025-02-26 14:08:31.664,-305.0,-1044.0,367.0,-71.0,56.0,33.0,143,118,125,120,119
2025-02-26 14:08:31.665,-309.0,-1049.0,327.0,-72.0,56.0,34.0,142,125,125,121,114
2025-02-26 14:08:31.676,-343.0,-1037.0,365.0,-84.0,61.0,35.0,144,119,125,121,120
2025-02-26 14:08:31.677,-327.0,-1024.0,327.0,-88.0,58.0,35.0,145,117,123,121,122
2025-02-26 14:08:31.685,-354.0,-1036.0,336.0,-95.0,59.0,35.0,143,118,124,121,121
2025-02-26 14:08:31.689,-350.0,-1017.0,349.0,-95.0,59.0,35.0,142,116,124,121,120
2025-02-26 14:08:31.697,-365.0,-1113.0,315.0,-104.0,59.0,36.0,144,117,126,123,121
2025-02-26 14:08:31.701,-359.0,-976.0,359.0,-90.0,61.0,37.0,144,116,124,120,119
2025-02-26 14:08:31.705,-354.0,-980.0,263.0,-82.0,63.0,38.0,142,117,124,122,121
2025-02-26 14:08:31.713,-342.0,-981.0,260.0,-82.0,60.0,39.0,144,117,122,123,121
2025-02-26 14:08:31.718,-330.0,-965.0,241.0,-88.0,65.0,40.0,145,116,125,122,121
2025-02-26 14:08:31.719,-318.0,-919.0,149.0,-92.0,62.0,42.0,142,114,123,121,121
2025-02-26 14:08:31.729,-315.0,-897.0,188.0,-107.0,60.0,42.0,144,116,131,120,121
2025-02-26 14:08:31.731,-286.0,-854.0,215.0,-107.0,71.0,43.0,144,116,124,121,120
2025-02-26 14:08:31.738,-311.0,-862.0,181.0,-117.0,84.0,41.0,144,117,126,124,122
2025-02-26 14:08:31.746,-307.0,-873.0,99.0,-114.0,86.0,41.0,143,117,124,123,121
2025-02-26 14:08:31.751,-337.0,-926.0,-57.0,-90.0,67.0,40.0,143,115,123,120,120
2025-02-26 14:08:31.754,-355.0,-936.0,36.0,-102.0,63.0,37.0,145,116,123,122,121
2025-02-26 14:08:31.757,-346.0,-919.0,55.0,-89.0,56.0,38.0,144,114,121,121,121
2025-02-26 14:08:31.767,-352.0,-945.0,38.0,-91.0,54.0,37.0,144,115,123,121,122
2025-02-26 14:08:31.770,-353.0,-875.0,24.0,-86.0,52.0,39.0,145,118,122,121,121
2025-02-26 14:08:31.775,-356.0,-862.0,0.0,-72.0,50.0,42.0,144,117,123,122,122
2025-02-26 14:08:31.783,-360.0,-870.0,-8.0,-65.0,58.0,43.0,144,116,124,120,121
2025-02-26 14:08:31.787,-336.0,-831.0,-11.0,-61.0,63.0,47.0,145,115,123,123,122
2025-02-26 14:08:31.791,-372.0,-838.0,-94.0,-56.0,54.0,47.0,142,116,123,122,122
2025-02-26 14:08:31.795,-371.0,-857.0,-99.0,-46.0,47.0,47.0,144,115,122,121,122
2025-02-26 14:08:31.803,-388.0,-800.0,-61.0,-51.0,49.0,43.0,144,116,121,121,121
2025-02-26 14:08:31.807,-381.0,-780.0,-106.0,-47.0,49.0,42.0,148,116,123,121,122
2025-02-26 14:08:31.812,-402.0,-771.0,-132.0,-35.0,44.0,37.0,144,118,124,124,123
2025-02-26 14:08:31.820,-411.0,-777.0,-95.0,-28.0,40.0,32.0,149,119,124,124,124
2025-02-26 14:08:31.824,-432.0,-757.0,-167.0,-25.0,33.0,27.0,146,118,122,123,123
2025-02-26 14:08:31.828,-422.0,-780.0,-200.0,-25.0,29.0,24.0,144,117,123,123,121
2025-02-26 14:08:31.836,-439.0,-769.0,-183.0,-17.0,22.0,22.0,143,119,122,123,123
2025-02-26 14:08:31.840,-432.0,-763.0,-195.0,-8.0,15.0,18.0,145,119,124,124,124
2025-02-26 14:08:31.843,-415.0,-766.0,-140.0,-8.0,11.0,15.0,147,118,123,123,124
2025-02-26 14:08:31.848,-400.0,-752.0,-134.0,-8.0,9.0,13.0,145,117,125,123,123
2025-02-26 14:08:31.856,-422.0,-763.0,-153.0,-7.0,5.0,13.0,144,119,123,123,123
2025-02-26 14:08:31.860,-444.0,-766.0,-90.0,-18.0,0.0,13.0,145,119,123,123,122
2025-02-26 14:08:31.866,-411.0,-755.0,-128.0,-15.0,-6.0,12.0,143,119,123,121,124
2025-02-26 14:08:31.873,-457.0,-796.0,-130.0,-22.0,-8.0,11.0,144,118,124,123,124
2025-02-26 14:08:31.878,-440.0,-776.0,-149.0,-24.0,-11.0,10.0,146,120,124,125,124
2025-02-26 14:08:31.881,-432.0,-787.0,-157.0,-18.0,-13.0,8.0,145,118,123,124,123
2025-02-26 14:08:31.889,-447.0,-815.0,-90.0,-13.0,-16.0,6.0,139,118,120,123,123
2025-02-26 14:08:31.893,-427.0,-832.0,-136.0,-7.0,-16.0,5.0,147,120,125,124,125
2025-02-26 14:08:31.898,-431.0,-837.0,-143.0,6.0,-18.0,2.0,146,122,124,125,127
2025-02-26 14:08:31.904,-413.0,-839.0,-121.0,12.0,-20.0,0.0,143,119,123,125,125
2025-02-26 14:08:31.910,-415.0,-843.0,-71.0,27.0,-21.0,-1.0,143,117,123,123,124
2025-02-26 14:08:31.914,-419.0,-858.0,-83.0,40.0,-19.0,-2.0,145,119,125,125,125
2025-02-26 14:08:31.919,-426.0,-885.0,-59.0,46.0,-20.0,-2.0,145,119,125,125,127
2025-02-26 14:08:31.926,-431.0,-875.0,-113.0,49.0,-26.0,-2.0,145,119,124,125,126
2025-02-26 14:08:31.930,-443.0,-879.0,-60.0,52.0,-25.0,0.0,144,119,123,124,126
2025-02-26 14:08:31.933,-443.0,-896.0,-46.0,54.0,-26.0,2.0,145,119,125,127,128
2025-02-26 14:08:31.942,-447.0,-896.0,-37.0,54.0,-30.0,3.0,143,119,124,125,126
2025-02-26 14:08:31.947,-418.0,-892.0,-35.0,52.0,-31.0,5.0,147,120,124,125,128
2025-02-26 14:08:31.951,-446.0,-915.0,34.0,50.0,-25.0,9.0,145,121,125,125,128
2025-02-26 14:08:31.955,-414.0,-888.0,36.0,58.0,-23.0,9.0,144,121,125,126,128
2025-02-26 14:08:31.963,-420.0,-897.0,159.0,65.0,-20.0,10.0,144,120,124,124,128
2025-02-26 14:08:31.967,-332.0,-894.0,88.0,63.0,-11.0,13.0,144,121,126,126,127
2025-02-26 14:08:31.970,-401.0,-894.0,74.0,62.0,-8.0,15.0,146,120,126,126,129
2025-02-26 14:08:31.976,-381.0,-893.0,92.0,52.0,-1.0,17.0,145,120,127,125,128
2025-02-26 14:08:31.983,-352.0,-867.0,108.0,31.0,3.0,17.0,146,122,126,125,131
2025-02-26 14:08:31.987,-389.0,-849.0,144.0,25.0,1.0,17.0,144,120,126,126,129
2025-02-26 14:08:31.992,-406.0,-913.0,81.0,15.0,1.0,18.0,145,121,126,126,129
2025-02-26 14:08:31.997,-420.0,-875.0,74.0,-6.0,3.0,18.0,145,120,124,123,128
2025-02-26 14:08:32.004,-455.0,-880.0,97.0,-1.0,3.0,17.0,141,118,125,124,128
2025-02-26 14:08:32.009,-492.0,-881.0,116.0,10.0,10.0,17.0,145,121,132,126,128
2025-02-26 14:08:32.012,-457.0,-840.0,86.0,16.0,9.0,14.0,145,120,125,124,127
2025-02-26 14:08:32.017,-468.0,-861.0,127.0,25.0,6.0,13.0,145,120,126,124,128
2025-02-26 14:08:32.024,-499.0,-869.0,129.0,53.0,4.0,13.0,145,121,126,125,129
2025-02-26 14:08:32.029,-499.0,-953.0,114.0,31.0,-1.0,15.0,143,122,125,126,129
2025-02-26 14:08:32.030,-511.0,-876.0,31.0,25.0,-10.0,15.0,144,121,125,126,129
2025-02-26 14:08:32.038,-496.0,-871.0,53.0,21.0,-9.0,16.0,144,120,124,125,128
2025-02-26 14:08:32.045,-510.0,-888.0,135.0,16.0,-9.0,15.0,146,120,126,124,127
2025-02-26 14:08:32.049,-506.0,-807.0,138.0,18.0,2.0,14.0,143,121,125,126,129
2025-02-26 14:08:32.054,-541.0,-799.0,64.0,17.0,2.0,13.0,144,121,126,127,129
2025-02-26 14:08:32.058,-521.0,-823.0,88.0,21.0,-3.0,11.0,143,120,124,125,127
2025-02-26 14:08:32.065,-522.0,-882.0,184.0,17.0,-1.0,12.0,144,121,126,126,129
2025-02-26 14:08:32.069,-496.0,-834.0,161.0,9.0,7.0,10.0,143,121,125,125,129
2025-02-26 14:08:32.071,-470.0,-820.0,86.0,8.0,7.0,8.0,145,122,126,126,128
2025-02-26 14:08:32.078,-509.0,-812.0,320.0,3.0,16.0,7.0,142,119,124,125,128
2025-02-26 14:08:32.083,-487.0,-854.0,61.0,2.0,6.0,6.0,144,121,125,126,129
2025-02-26 14:08:32.090,-483.0,-825.0,110.0,4.0,4.0,3.0,144,120,127,126,127
2025-02-26 14:08:32.094,-513.0,-848.0,130.0,-5.0,6.0,2.0,144,122,124,125,128
2025-02-26 14:08:32.099,-500.0,-823.0,121.0,-19.0,10.0,-2.0,144,120,124,124,129
2025-02-26 14:08:32.106,-481.0,-782.0,67.0,-19.0,12.0,-6.0,144,121,128,126,129
2025-02-26 14:08:32.111,-472.0,-799.0,122.0,-19.0,16.0,-8.0,144,121,125,124,127
2025-02-26 14:08:32.115,-499.0,-865.0,140.0,-24.0,18.0,-9.0,146,122,126,127,127
2025-02-26 14:08:32.119,-533.0,-858.0,161.0,-29.0,21.0,-10.0,146,123,125,126,129
2025-02-26 14:08:32.127,-531.0,-857.0,143.0,-29.0,21.0,-10.0,145,122,127,127,129
2025-02-26 14:08:32.131,-521.0,-835.0,104.0,-24.0,15.0,-10.0,147,121,127,127,128
2025-02-26 14:08:32.135,-521.0,-837.0,129.0,-20.0,13.0,-9.0,150,128,132,134,135
2025-02-26 14:08:32.143,-522.0,-842.0,142.0,-8.0,12.0,-8.0,149,126,131,131,133
2025-02-26 14:08:32.147,-525.0,-835.0,133.0,-5.0,10.0,-8.0,146,121,127,129,130
2025-02-26 14:08:32.150,-516.0,-823.0,99.0,3.0,10.0,-8.0,150,126,129,133,134
2025-02-26 14:08:32.159,-529.0,-833.0,187.0,7.0,16.0,-7.0,150,129,130,131,134
2025-02-26 14:08:32.163,-524.0,-810.0,98.0,10.0,15.0,-7.0,149,123,130,131,133
2025-02-26 14:08:32.168,-509.0,-808.0,91.0,11.0,16.0,-7.0,150,124,130,130,132
2025-02-26 14:08:32.172,-531.0,-813.0,57.0,10.0,17.0,-7.0,148,124,132,132,133
2025-02-26 14:08:32.180,-522.0,-800.0,46.0,8.0,16.0,-8.0,149,125,130,132,132
2025-02-26 14:08:32.184,-524.0,-791.0,38.0,9.0,15.0,-10.0,144,120,125,127,128
2025-02-26 14:08:32.186,-510.0,-806.0,57.0,6.0,17.0,-11.0,146,121,125,127,129
2025-02-26 14:08:32.193,-502.0,-779.0,58.0,10.0,18.0,-14.0,148,121,128,127,130
2025-02-26 14:08:32.198,-504.0,-765.0,45.0,11.0,18.0,-18.0,143,119,126,127,128
2025-02-26 14:08:32.204,-506.0,-769.0,45.0,11.0,17.0,-23.0,145,118,124,127,127
2025-02-26 14:08:32.209,-514.0,-761.0,22.0,11.0,17.0,-25.0,146,118,126,128,129
2025-02-26 14:08:32.213,-525.0,-757.0,16.0,12.0,15.0,-30.0,147,120,128,129,129
2025-02-26 14:08:32.221,-533.0,-750.0,30.0,13.0,16.0,-35.0,146,119,124,127,129
2025-02-26 14:08:32.222,-540.0,-746.0,16.0,17.0,17.0,-39.0,144,119,125,127,127
2025-02-26 14:08:32.230,-536.0,-738.0,-5.0,19.0,15.0,-42.0,144,118,124,127,126
2025-02-26 14:08:32.235,-534.0,-735.0,-22.0,22.0,13.0,-46.0,147,121,126,128,129
2025-02-26 14:08:32.241,-525.0,-724.0,-21.0,22.0,11.0,-49.0,147,121,128,128,130
2025-02-26 14:08:32.247,-500.0,-715.0,-43.0,25.0,6.0,-50.0,144,120,125,127,127
2025-02-26 14:08:32.247,-481.0,-702.0,-64.0,26.0,2.0,-48.0,145,120,125,126,128
2025-02-26 14:08:32.258,-478.0,-681.0,59.0,23.0,-5.0,-46.0,148,123,129,129,130
2025-02-26 14:08:32.263,-507.0,-645.0,101.0,21.0,-8.0,-43.0,148,121,127,128,128
2025-02-26 14:08:32.264,-477.0,-702.0,79.0,19.0,-10.0,-40.0,145,120,126,128,130
2025-02-26 14:08:32.264,-491.0,-724.0,72.0,15.0,-9.0,-39.0,145,120,127,127,129
2025-02-26 14:08:32.277,-485.0,-721.0,46.0,18.0,-11.0,-40.0,145,119,125,128,128
2025-02-26 14:08:32.283,-476.0,-738.0,33.0,23.0,-12.0,-40.0,149,121,127,130,130
2025-02-26 14:08:32.288,-475.0,-776.0,19.0,30.0,-13.0,-40.0,148,123,127,129,130
2025-02-26 14:08:32.295,-480.0,-783.0,29.0,31.0,-12.0,-42.0,150,123,130,131,132
2025-02-26 14:08:32.295,-459.0,-789.0,49.0,34.0,-9.0,-46.0,149,122,127,128,129
2025-02-26 14:08:32.301,-441.0,-799.0,70.0,39.0,-10.0,-49.0,146,120,126,128,129
2025-02-26 14:08:32.308,-426.0,-793.0,57.0,38.0,-9.0,-54.0,147,122,127,129,129
2025-02-26 14:08:32.313,-411.0,-788.0,65.0,37.0,-7.0,-60.0,147,122,126,128,129
2025-02-26 14:08:32.320,-430.0,-793.0,102.0,39.0,-6.0,-65.0,145,120,122,127,127
2025-02-26 14:08:32.324,-423.0,-784.0,113.0,35.0,-1.0,-70.0,146,119,124,128,127
2025-02-26 14:08:32.332,-417.0,-768.0,83.0,33.0,1.0,-72.0,146,120,123,126,128
2025-02-26 14:08:32.336,-408.0,-788.0,54.0,28.0,-1.0,-75.0,145,120,127,127,129
2025-02-26 14:08:32.340,-390.0,-786.0,21.0,24.0,-8.0,-77.0,147,121,126,131,129
2025-02-26 14:08:32.348,-381.0,-781.0,39.0,17.0,-12.0,-76.0,143,121,128,127,125
2025-02-26 14:08:32.352,-385.0,-779.0,96.0,16.0,-12.0,-75.0,146,121,126,128,128
2025-02-26 14:08:32.357,-376.0,-788.0,85.0,15.0,-11.0,-73.0,146,122,127,129,130
2025-02-26 14:08:32.360,-361.0,-814.0,97.0,14.0,-8.0,-72.0,148,122,127,129,130
2025-02-26 14:08:32.368,-375.0,-857.0,60.0,16.0,-12.0,-71.0,144,120,125,126,126
2025-02-26 14:08:32.373,-375.0,-882.0,26.0,8.0,-15.0,-70.0,147,123,128,129,129
2025-02-26 14:08:32.377,-369.0,-894.0,19.0,9.0,-21.0,-70.0,146,122,126,128,130
2025-02-26 14:08:32.385,-394.0,-920.0,50.0,10.0,-22.0,-69.0,145,120,125,126,126
2025-02-26 14:08:32.388,-395.0,-927.0,15.0,9.0,-21.0,-68.0,145,121,123,125,126
2025-02-26 14:08:32.394,-367.0,-947.0,16.0,13.0,-21.0,-67.0,144,121,124,126,127
2025-02-26 14:08:32.397,-367.0,-962.0,49.0,19.0,-20.0,-67.0,145,120,123,124,126
2025-02-26 14:08:32.405,-349.0,-999.0,71.0,22.0,-21.0,-66.0,146,119,126,127,127
2025-02-26 14:08:32.410,-345.0,-1006.0,92.0,26.0,-23.0,-66.0,144,119,124,126,127
2025-02-26 14:08:32.415,-355.0,-1011.0,91.0,28.0,-25.0,-64.0,144,120,126,128,127
2025-02-26 14:08:32.422,-350.0,-1021.0,86.0,32.0,-25.0,-64.0,144,119,124,125,126
2025-02-26 14:08:32.426,-330.0,-1013.0,95.0,35.0,-27.0,-63.0,145,119,124,123,124
2025-02-26 14:08:32.430,-317.0,-1027.0,102.0,39.0,-29.0,-63.0,145,122,125,127,126
2025-02-26 14:08:32.438,-321.0,-1023.0,117.0,43.0,-28.0,-62.0,144,120,127,125,127
2025-02-26 14:08:32.442,-314.0,-1015.0,116.0,49.0,-29.0,-62.0,145,121,127,127,128
2025-02-26 14:08:32.447,-283.0,-1013.0,169.0,50.0,-25.0,-62.0,144,120,126,125,126
2025-02-26 14:08:32.455,-299.0,-1007.0,157.0,61.0,-24.0,-62.0,143,122,125,125,129
2025-02-26 14:08:32.458,-284.0,-991.0,150.0,61.0,-22.0,-61.0,143,120,125,127,126
2025-02-26 14:08:32.464,-283.0,-989.0,156.0,69.0,-22.0,-61.0,142,119,124,125,126
2025-02-26 14:08:32.471,-270.0,-1024.0,187.0,68.0,-21.0,-60.0,145,122,126,126,128
2025-02-26 14:08:32.475,-245.0,-995.0,200.0,73.0,-21.0,-60.0,145,120,127,127,129
2025-02-26 14:08:32.480,-251.0,-1003.0,223.0,72.0,-19.0,-59.0,146,121,127,126,127
2025-02-26 14:08:32.487,-253.0,-988.0,221.0,73.0,-19.0,-59.0,144,118,125,125,130
2025-02-26 14:08:32.491,-231.0,-988.0,252.0,76.0,-19.0,-59.0,142,120,125,126,127
2025-02-26 14:08:32.496,-203.0,-983.0,262.0,74.0,-17.0,-59.0,144,121,127,125,129
2025-02-26 14:08:32.504,-180.0,-976.0,267.0,73.0,-16.0,-59.0,143,121,127,126,128
2025-02-26 14:08:32.508,-150.0,-1005.0,287.0,71.0,-17.0,-56.0,145,122,126,127,128
2025-02-26 14:08:32.512,-122.0,-1014.0,300.0,67.0,-19.0,-53.0,146,124,129,129,130
2025-02-26 14:08:32.520,-102.0,-1010.0,303.0,60.0,-20.0,-51.0,146,124,128,127,130
2025-02-26 14:08:32.524,-93.0,-1027.0,300.0,52.0,-21.0,-50.0,142,120,125,125,126
2025-02-26 14:08:32.529,-89.0,-1017.0,323.0,46.0,-22.0,-50.0,142,120,126,125,126
2025-02-26 14:08:32.536,-85.0,-1042.0,333.0,40.0,-20.0,-49.0,143,122,127,128,129
2025-02-26 14:08:32.541,-76.0,-1051.0,331.0,35.0,-21.0,-49.0,144,121,125,126,129
2025-02-26 14:08:32.545,-62.0,-1065.0,355.0,36.0,-19.0,-47.0,142,122,127,126,128
2025-02-26 14:08:32.553,-74.0,-1112.0,372.0,35.0,-19.0,-44.0,144,122,126,125,128
2025-02-26 14:08:32.557,-63.0,-1123.0,369.0,29.0,-20.0,-41.0,144,120,126,123,127
2025-02-26 14:08:32.561,-62.0,-1126.0,405.0,25.0,-20.0,-39.0,143,121,126,125,128
2025-02-26 14:08:32.569,-51.0,-1139.0,404.0,21.0,-19.0,-34.0,145,124,127,126,128
2025-02-26 14:08:32.573,-46.0,-1147.0,421.0,15.0,-18.0,-30.0,146,123,127,127,130
2025-02-26 14:08:32.578,-37.0,-1138.0,426.0,15.0,-16.0,-26.0,145,123,127,127,128
2025-02-26 14:08:32.582,-30.0,-1145.0,439.0,11.0,-13.0,-23.0,142,122,125,125,127
2025-02-26 14:08:32.588,-8.0,-1109.0,422.0,5.0,-12.0,-21.0,143,121,126,124,127
2025-02-26 14:08:32.594,4.0,-1102.0,414.0,1.0,-9.0,-20.0,143,123,127,126,128
2025-02-26 14:08:32.598,-2.0,-1104.0,420.0,-3.0,-7.0,-18.0,143,123,129,126,129
2025-02-26 14:08:32.605,6.0,-1080.0,403.0,-3.0,-6.0,-16.0,143,122,127,127,128
2025-02-26 14:08:32.610,-8.0,-1099.0,365.0,-11.0,-5.0,-12.0,142,121,125,125,127
2025-02-26 14:08:32.615,-21.0,-1085.0,380.0,-15.0,-5.0,-11.0,143,120,125,124,127
2025-02-26 14:08:32.617,-21.0,-1113.0,399.0,-17.0,-4.0,-8.0,143,123,126,126,128
2025-02-26 14:08:32.627,-21.0,-1112.0,381.0,-21.0,-3.0,-5.0,147,122,127,129,128
2025-02-26 14:08:32.629,-45.0,-1099.0,351.0,-21.0,-2.0,-2.0,142,122,125,127,128
2025-02-26 14:08:32.635,-49.0,-1112.0,386.0,-23.0,0.0,0.0,142,118,125,126,125
2025-02-26 14:08:32.642,-33.0,-1090.0,362.0,-20.0,0.0,2.0,143,123,128,125,128
2025-02-26 14:08:32.647,-37.0,-1105.0,354.0,-21.0,1.0,4.0,143,125,127,126,127
2025-02-26 14:08:32.651,-46.0,-1070.0,338.0,-20.0,2.0,6.0,143,122,127,128,129
2025-02-26 14:08:32.654,-25.0,-1064.0,330.0,-19.0,2.0,8.0,142,121,126,127,127
2025-02-26 14:08:32.663,-24.0,-1063.0,324.0,-18.0,4.0,8.0,143,122,126,127,129
2025-02-26 14:08:32.667,-40.0,-1070.0,335.0,-18.0,6.0,10.0,143,123,127,127,127
2025-02-26 14:08:32.672,-39.0,-1043.0,322.0,-16.0,8.0,12.0,143,123,126,128,129
2025-02-26 14:08:32.677,-42.0,-1055.0,306.0,-17.0,9.0,14.0,143,121,126,126,128
2025-02-26 14:08:32.683,-48.0,-1044.0,300.0,-17.0,12.0,15.0,144,122,127,126,128
2025-02-26 14:08:32.689,-59.0,-1037.0,291.0,-17.0,12.0,18.0,142,121,127,126,128
2025-02-26 14:08:32.692,-62.0,-1031.0,282.0,-16.0,12.0,19.0,146,125,128,127,129
2025-02-26 14:08:32.700,-76.0,-1033.0,293.0,-13.0,12.0,20.0,143,123,127,126,127
2025-02-26 14:08:32.703,-73.0,-996.0,277.0,-12.0,13.0,21.0,141,122,126,125,128
2025-02-26 14:08:32.709,-82.0,-996.0,292.0,-8.0,12.0,21.0,142,122,127,126,127
2025-02-26 14:08:32.713,-103.0,-996.0,293.0,-8.0,13.0,22.0,143,124,128,126,130
2025-02-26 14:08:32.720,-105.0,-966.0,291.0,-8.0,13.0,22.0,142,124,127,127,128
2025-02-26 14:08:32.725,-106.0,-944.0,283.0,-7.0,13.0,22.0,142,122,126,126,127
2025-02-26 14:08:32.729,-139.0,-948.0,288.0,-8.0,13.0,22.0,142,125,127,126,128
2025-02-26 14:08:32.736,-123.0,-933.0,250.0,-10.0,13.0,21.0,142,124,128,128,129
2025-02-26 14:08:32.741,-149.0,-913.0,243.0,-10.0,11.0,21.0,143,123,127,127,129
2025-02-26 14:08:32.746,-161.0,-921.0,263.0,-11.0,10.0,20.0,143,123,128,127,127
2025-02-26 14:08:32.750,-161.0,-917.0,248.0,-14.0,9.0,20.0,143,122,126,125,127
2025-02-26 14:08:32.758,-163.0,-917.0,269.0,-17.0,5.0,19.0,143,118,127,126,126
2025-02-26 14:08:32.762,-167.0,-921.0,281.0,-17.0,5.0,18.0,143,122,128,127,129
2025-02-26 14:08:32.766,-180.0,-926.0,274.0,-16.0,5.0,16.0,142,123,127,126,128
2025-02-26 14:08:32.770,-170.0,-920.0,270.0,-18.0,5.0,15.0,141,125,127,126,127
2025-02-26 14:08:32.778,-174.0,-930.0,256.0,-17.0,5.0,15.0,141,122,128,126,128
2025-02-26 14:08:32.782,-186.0,-941.0,274.0,-17.0,4.0,14.0,144,124,127,126,127
2025-02-26 14:08:32.787,-167.0,-938.0,263.0,-18.0,4.0,13.0,144,124,127,126,128
2025-02-26 14:08:32.794,-169.0,-929.0,250.0,-17.0,4.0,12.0,143,124,128,127,128
2025-02-26 14:08:32.799,-179.0,-939.0,285.0,-19.0,6.0,12.0,142,123,127,127,128
2025-02-26 14:08:32.803,-193.0,-920.0,270.0,-15.0,4.0,11.0,143,126,129,127,129
2025-02-26 14:08:32.808,-176.0,-917.0,295.0,-15.0,6.0,11.0,143,121,127,126,128
2025-02-26 14:08:32.815,-188.0,-904.0,249.0,-14.0,6.0,11.0,141,122,128,128,129
2025-02-26 14:08:32.818,-195.0,-917.0,254.0,-13.0,7.0,10.0,143,124,128,128,130
2025-02-26 14:08:32.824,-197.0,-914.0,255.0,-11.0,6.0,10.0,146,127,129,129,131
2025-02-26 14:08:32.831,-201.0,-921.0,253.0,-9.0,7.0,10.0,145,126,131,130,131
2025-02-26 14:08:32.835,-201.0,-941.0,244.0,-6.0,7.0,11.0,145,126,130,127,130
2025-02-26 14:08:32.840,-197.0,-955.0,268.0,-4.0,7.0,10.0,145,126,126,128,130
2025-02-26 14:08:32.843,-197.0,-958.0,281.0,-2.0,7.0,10.0,145,126,130,133,131
2025-02-26 14:08:32.852,-209.0,-959.0,272.0,-4.0,7.0,9.0,144,125,128,129,131
2025-02-26 14:08:32.854,-207.0,-948.0,284.0,-4.0,6.0,7.0,147,126,129,130,130
2025-02-26 14:08:32.861,-195.0,-935.0,289.0,-5.0,8.0,7.0,142,122,128,130,130
2025-02-26 14:08:32.864,-198.0,-930.0,276.0,-4.0,8.0,6.0,138,125,130,129,131
2025-02-26 14:08:32.869,-181.0,-936.0,282.0,-6.0,10.0,5.0,144,125,129,128,128
2025-02-26 14:08:32.877,-187.0,-929.0,283.0,-6.0,11.0,5.0,144,124,130,129,129
2025-02-26 14:08:32.881,-191.0,-935.0,287.0,-11.0,11.0,4.0,144,125,131,129,130
2025-02-26 14:08:32.885,-194.0,-919.0,275.0,-15.0,14.0,3.0,145,122,127,127,130
2025-02-26 14:08:32.893,-208.0,-909.0,244.0,-13.0,15.0,3.0,143,123,128,128,130
2025-02-26 14:08:32.896,-207.0,-924.0,280.0,-17.0,18.0,2.0,145,123,127,127,128
2025-02-26 14:08:32.901,-220.0,-902.0,247.0,-16.0,15.0,2.0,143,121,127,126,129
2025-02-26 14:08:32.906,-209.0,-947.0,282.0,-12.0,16.0,1.0,148,124,131,130,130
2025-02-26 14:08:32.913,-219.0,-952.0,261.0,-13.0,17.0,1.0,148,127,132,132,133
2025-02-26 14:08:32.915,-210.0,-950.0,239.0,-12.0,15.0,1.0,146,124,129,130,132
2025-02-26 14:08:32.922,-212.0,-959.0,292.0,-12.0,14.0,2.0,144,124,128,128,131
2025-02-26 14:08:32.926,-181.0,-955.0,284.0,-10.0,16.0,2.0,145,125,131,129,131
2025-02-26 14:08:32.932,-191.0,-963.0,254.0,-9.0,13.0,2.0,147,126,131,130,133
2025-02-26 14:08:32.938,-173.0,-981.0,278.0,-15.0,15.0,3.0,145,123,130,129,130
2025-02-26 14:08:32.942,-178.0,-956.0,248.0,-18.0,17.0,4.0,143,122,127,127,129
2025-02-26 14:08:32.950,-177.0,-972.0,288.0,-19.0,19.0,5.0,145,124,128,129,130
2025-02-26 14:08:32.954,-191.0,-962.0,280.0,-19.0,19.0,5.0,147,126,129,128,130
2025-02-26 14:08:32.958,-196.0,-981.0,263.0,-23.0,24.0,7.0,144,125,130,130,130
2025-02-26 14:08:32.963,-204.0,-982.0,198.0,-22.0,23.0,8.0,143,121,127,127,129
2025-02-26 14:08:32.970,-214.0,-991.0,208.0,-25.0,23.0,9.0,143,122,127,127,128
2025-02-26 14:08:32.975,-220.0,-993.0,223.0,-23.0,26.0,10.0,149,123,127,128,130
2025-02-26 14:08:32.979,-212.0,-985.0,156.0,-24.0,21.0,11.0,145,123,128,129,130
2025-02-26 14:08:32.987,-230.0,-1004.0,207.0,-24.0,22.0,11.0,145,122,132,128,129
2025-02-26 14:08:32.991,-220.0,-999.0,161.0,-22.0,22.0,11.0,143,121,127,127,130
2025-02-26 14:08:32.994,-213.0,-1005.0,187.0,-25.0,19.0,12.0,145,123,129,130,131
2025-02-26 14:08:33.003,-217.0,-984.0,195.0,-21.0,20.0,11.0,144,122,128,127,129
2025-02-26 14:08:33.008,-193.0,-972.0,188.0,-23.0,22.0,11.0,143,120,127,130,128
2025-02-26 14:08:33.012,-191.0,-942.0,145.0,-21.0,20.0,11.0,143,123,126,128,128
2025-02-26 14:08:33.016,-203.0,-960.0,157.0,-15.0,18.0,12.0,142,121,126,126,127
2025-02-26 14:08:33.023,-208.0,-955.0,202.0,-16.0,18.0,13.0,142,122,122,126,128
2025-02-26 14:08:33.028,-204.0,-930.0,208.0,-9.0,19.0,13.0,142,121,125,124,127
2025-02-26 14:08:33.032,-230.0,-933.0,167.0,-9.0,21.0,13.0,144,119,126,127,129
2025-02-26 14:08:33.040,-218.0,-936.0,177.0,-9.0,24.0,13.0,143,117,123,125,126
2025-02-26 14:08:33.044,-216.0,-923.0,139.0,-5.0,20.0,12.0,141,118,123,124,127
2025-02-26 14:08:33.048,-214.0,-973.0,149.0,-10.0,18.0,12.0,143,120,125,126,126
2025-02-26 14:08:33.053,-230.0,-984.0,153.0,-14.0,17.0,11.0,143,120,125,127,128
2025-02-26 14:08:33.061,-226.0,-972.0,158.0,-14.0,17.0,10.0,141,119,125,128,128
2025-02-26 14:08:33.065,-220.0,-992.0,160.0,-18.0,20.0,9.0,141,118,127,125,126
2025-02-26 14:08:33.070,-231.0,-977.0,144.0,-18.0,18.0,8.0,140,116,123,125,126
2025-02-26 14:08:33.077,-224.0,-981.0,166.0,-13.0,22.0,7.0,142,118,124,125,127
2025-02-26 14:08:33.080,-221.0,-990.0,140.0,-14.0,18.0,6.0,139,119,125,126,127
2025-02-26 14:08:33.086,-218.0,-1009.0,108.0,-18.0,13.0,5.0,141,116,125,127,127
2025-02-26 14:08:33.090,-230.0,-987.0,154.0,-17.0,13.0,4.0,142,119,123,126,126
2025-02-26 14:08:33.097,-218.0,-980.0,126.0,-17.0,13.0,5.0,142,118,125,127,128
2025-02-26 14:08:33.101,-228.0,-973.0,126.0,-18.0,12.0,6.0,141,117,124,126,127
2025-02-26 14:08:33.106,-235.0,-978.0,156.0,-18.0,14.0,8.0,141,117,123,126,126
2025-02-26 14:08:33.110,-235.0,-977.0,203.0,-17.0,18.0,9.0,144,120,127,129,130
2025-02-26 14:08:33.118,-231.0,-970.0,142.0,-18.0,18.0,10.0,146,123,128,130,130
2025-02-26 14:08:33.121,-246.0,-988.0,123.0,-20.0,17.0,12.0,146,119,128,129,130
2025-02-26 14:08:33.127,-233.0,-977.0,141.0,-21.0,18.0,13.0,145,120,127,128,130
2025-02-26 14:08:33.135,-231.0,-986.0,137.0,-22.0,20.0,14.0,145,121,127,128,129
2025-02-26 14:08:33.139,-229.0,-980.0,98.0,-24.0,19.0,14.0,143,121,125,128,129
2025-02-26 14:08:33.143,-231.0,-986.0,136.0,-23.0,19.0,15.0,144,119,127,129,129
2025-02-26 14:08:33.151,-229.0,-993.0,130.0,-20.0,21.0,15.0,146,119,127,129,129
2025-02-26 14:08:33.155,-242.0,-981.0,106.0,-19.0,21.0,15.0,146,120,132,129,129
2025-02-26 14:08:33.159,-259.0,-986.0,96.0,-19.0,19.0,15.0,143,117,124,126,128
2025-02-26 14:08:33.163,-253.0,-990.0,83.0,-20.0,20.0,15.0,143,114,126,127,127
2025-02-26 14:08:33.171,-248.0,-975.0,75.0,-17.0,18.0,15.0,143,119,126,130,128
2025-02-26 14:08:33.174,-255.0,-973.0,72.0,-17.0,18.0,15.0,145,119,133,128,127
2025-02-26 14:08:33.180,-270.0,-964.0,66.0,-14.0,16.0,14.0,144,116,125,128,128
2025-02-26 14:08:33.187,-253.0,-943.0,-11.0,-17.0,13.0,12.0,143,117,124,118,125
2025-02-26 14:08:33.191,-260.0,-978.0,71.0,-7.0,9.0,12.0,143,118,125,128,127
2025-02-26 14:08:33.193,-277.0,-980.0,98.0,-4.0,7.0,12.0,145,120,127,130,129
2025-02-26 14:08:33.200,-247.0,-952.0,75.0,1.0,11.0,10.0,142,117,125,128,126
2025-02-26 14:08:33.205,-291.0,-936.0,87.0,-3.0,2.0,11.0,143,115,124,126,125
2025-02-26 14:08:33.212,-262.0,-926.0,113.0,-5.0,8.0,10.0,144,117,123,129,126
2025-02-26 14:08:33.216,-266.0,-918.0,42.0,2.0,3.0,9.0,142,115,122,125,125
2025-02-26 14:08:33.221,-267.0,-932.0,88.0,-5.0,4.0,8.0,141,116,122,123,121
2025-02-26 14:08:33.225,-292.0,-909.0,108.0,-1.0,6.0,10.0,140,115,121,128,123
2025-02-26 14:08:33.233,-273.0,-924.0,91.0,-12.0,12.0,9.0,141,114,121,125,125
2025-02-26 14:08:33.237,-228.0,-912.0,58.0,-14.0,15.0,11.0,140,113,121,124,122
2025-02-26 14:08:33.242,-256.0,-959.0,58.0,-20.0,11.0,11.0,141,110,122,123,121
2025-02-26 14:08:33.246,-275.0,-954.0,64.0,-21.0,1.0,8.0,139,112,120,123,122
2025-02-26 14:08:33.254,-285.0,-966.0,160.0,-18.0,5.0,8.0,140,112,121,123,123
2025-02-26 14:08:33.258,-278.0,-955.0,89.0,-25.0,6.0,6.0,139,113,121,125,122
2025-02-26 14:08:33.260,-254.0,-946.0,55.0,-14.0,-1.0,6.0,139,111,119,121,121
2025-02-26 14:08:33.266,-259.0,-970.0,105.0,-6.0,-3.0,5.0,140,112,119,122,122
2025-02-26 14:08:33.273,-265.0,-967.0,97.0,-6.0,-9.0,4.0,140,112,121,123,121
2025-02-26 14:08:33.278,-231.0,-978.0,79.0,4.0,-13.0,3.0,139,112,120,123,120
2025-02-26 14:08:33.282,-274.0,-982.0,69.0,11.0,-12.0,4.0,140,114,120,123,123
2025-02-26 14:08:33.285,-240.0,-960.0,106.0,7.0,-13.0,4.0,140,110,122,125,121
2025-02-26 14:08:33.294,-209.0,-926.0,123.0,-1.0,-13.0,2.0,140,113,121,124,122
2025-02-26 14:08:33.296,-231.0,-975.0,172.0,14.0,-14.0,4.0,140,113,119,121,120
2025-02-26 14:08:33.303,-264.0,-1020.0,138.0,10.0,-12.0,4.0,140,113,118,122,121
2025-02-26 14:08:33.308,-246.0,-978.0,85.0,12.0,-17.0,5.0,139,110,120,123,122
2025-02-26 14:08:33.314,-255.0,-1003.0,201.0,10.0,-13.0,6.0,137,111,120,121,121
2025-02-26 14:08:33.318,-268.0,-986.0,157.0,8.0,-15.0,6.0,139,109,119,122,121
2025-02-26 14:08:33.320,-244.0,-1005.0,186.0,10.0,-13.0,7.0,140,109,120,118,120
2025-02-26 14:08:33.331,-287.0,-1009.0,172.0,8.0,-10.0,9.0,141,110,120,122,121
2025-02-26 14:08:33.335,-254.0,-986.0,173.0,6.0,-8.0,10.0,137,109,119,123,120
2025-02-26 14:08:33.340,-270.0,-985.0,164.0,6.0,-10.0,11.0,138,109,120,122,120
2025-02-26 14:08:33.344,-272.0,-988.0,176.0,1.0,-6.0,11.0,139,108,120,119,119
2025-02-26 14:08:33.352,-279.0,-989.0,146.0,1.0,-6.0,11.0,139,110,120,124,120
2025-02-26 14:08:33.356,-282.0,-966.0,132.0,-3.0,-9.0,13.0,140,108,121,124,123
2025-02-26 14:08:33.357,-190.0,-810.0,287.0,-5.0,-7.0,13.0,139,108,118,122,121
2025-02-26 14:08:33.367,-268.0,-958.0,269.0,-5.0,-7.0,12.0,140,109,118,120,120
2025-02-26 14:08:33.372,-239.0,-960.0,19.0,5.0,6.0,15.0,143,108,121,124,122
2025-02-26 14:08:33.377,-307.0,-931.0,38.0,-10.0,-7.0,12.0,140,107,120,122,121
2025-02-26 14:08:33.381,-218.0,-855.0,119.0,-13.0,-7.0,14.0,140,108,118,121,118
2025-02-26 14:08:33.389,-317.0,-885.0,155.0,-10.0,-15.0,10.0,138,107,119,122,120
2025-02-26 14:08:33.392,-255.0,-974.0,130.0,-1.0,0.0,12.0,140,109,119,123,123
2025-02-26 14:08:33.397,-268.0,-892.0,153.0,2.0,0.0,10.0,141,106,120,122,121
2025-02-26 14:08:33.400,-356.0,-939.0,203.0,7.0,1.0,9.0,140,107,120,121,121
2025-02-26 14:08:33.408,-273.0,-957.0,79.0,11.0,0.0,9.0,140,108,119,123,122
2025-02-26 14:08:33.412,-337.0,-942.0,68.0,-4.0,-8.0,9.0,143,109,119,123,123
2025-02-26 14:08:33.417,-241.0,-899.0,75.0,0.0,-12.0,8.0,141,108,119,123,123
2025-02-26 14:08:33.422,-322.0,-1011.0,263.0,17.0,-8.0,10.0,139,107,119,123,120
2025-02-26 14:08:33.429,-314.0,-996.0,177.0,10.0,1.0,10.0,141,108,121,124,121
2025-02-26 14:08:33.433,-245.0,-883.0,67.0,17.0,5.0,10.0,141,109,120,124,122
2025-02-26 14:08:33.438,-345.0,-978.0,144.0,21.0,-3.0,11.0,142,106,120,126,122
2025-02-26 14:08:33.442,-355.0,-1002.0,189.0,15.0,-8.0,11.0,140,107,119,124,120
2025-02-26 14:08:33.447,-272.0,-950.0,64.0,-3.0,-6.0,11.0,139,107,118,124,121
2025-02-26 14:08:33.454,-305.0,-894.0,89.0,-5.0,-3.0,12.0,139,109,120,128,121
2025-02-26 14:08:33.464,-345.0,-949.0,213.0,-4.0,1.0,12.0,140,107,120,122,120
2025-02-26 14:08:33.466,-322.0,-930.0,167.0,2.0,2.0,11.0,138,107,119,122,120
2025-02-26 14:08:33.470,-296.0,-916.0,87.0,-4.0,2.0,11.0,140,108,120,124,121
2025-02-26 14:08:33.475,-368.0,-945.0,102.0,-8.0,-1.0,10.0,138,109,119,125,122
2025-02-26 14:08:33.479,-341.0,-930.0,142.0,-6.0,-2.0,10.0,140,107,119,123,120
2025-02-26 14:08:33.483,-322.0,-923.0,114.0,-10.0,-3.0,8.0,136,108,119,128,119
2025-02-26 14:08:33.491,-326.0,-914.0,119.0,-9.0,-5.0,8.0,141,109,119,123,121
2025-02-26 14:08:33.495,-354.0,-926.0,149.0,-11.0,-5.0,7.0,141,109,120,125,120
2025-02-26 14:08:33.500,-318.0,-907.0,102.0,-11.0,-8.0,5.0,141,109,119,124,121
2025-02-26 14:08:33.507,-311.0,-918.0,108.0,-9.0,-7.0,5.0,140,107,116,122,120
2025-02-26 14:08:33.511,-343.0,-927.0,126.0,-6.0,-4.0,5.0,142,108,119,125,122
2025-02-26 14:08:33.516,-314.0,-916.0,131.0,-6.0,-5.0,3.0,142,108,121,124,121
2025-02-26 14:08:33.520,-310.0,-916.0,98.0,-5.0,-5.0,3.0,141,108,119,124,120
2025-02-26 14:08:33.527,-323.0,-944.0,129.0,-2.0,-5.0,3.0,139,108,118,124,120
2025-02-26 14:08:33.532,-318.0,-933.0,82.0,-4.0,-6.0,2.0,141,109,121,123,120
2025-02-26 14:08:33.536,-322.0,-935.0,68.0,-2.0,-6.0,2.0,141,109,121,126,121
2025-02-26 14:08:33.540,-327.0,-958.0,96.0,-6.0,-7.0,3.0,139,110,118,122,120
2025-02-26 14:08:33.545,-308.0,-937.0,76.0,2.0,-6.0,3.0,140,106,118,122,120
2025-02-26 14:08:33.552,-331.0,-962.0,127.0,2.0,-6.0,4.0,141,111,121,124,121
2025-02-26 14:08:33.557,-340.0,-957.0,105.0,1.0,-5.0,4.0,142,109,119,121,121
2025-02-26 14:08:33.561,-323.0,-955.0,145.0,6.0,-4.0,5.0,141,110,120,122,120
2025-02-26 14:08:33.565,-357.0,-944.0,136.0,4.0,-2.0,6.0,141,111,119,123,120
2025-02-26 14:08:33.573,-334.0,-938.0,78.0,5.0,-6.0,6.0,141,110,121,125,122
2025-02-26 14:08:33.575,-329.0,-948.0,96.0,9.0,-6.0,6.0,142,110,120,122,120
2025-02-26 14:08:33.581,-337.0,-966.0,130.0,8.0,-7.0,5.0,139,112,120,122,121
2025-02-26 14:08:33.585,-333.0,-928.0,143.0,16.0,-6.0,3.0,140,112,120,123,120
2025-02-26 14:08:33.593,-319.0,-942.0,169.0,22.0,-3.0,4.0,142,112,120,123,122
2025-02-26 14:08:33.597,-325.0,-942.0,142.0,16.0,3.0,4.0,140,112,119,122,121
2025-02-26 14:08:33.599,-342.0,-913.0,76.0,17.0,-1.0,3.0,141,111,119,122,118
2025-02-26 14:08:33.605,-362.0,-956.0,152.0,18.0,2.0,4.0,141,111,118,127,120
2025-02-26 14:08:33.611,-366.0,-941.0,88.0,10.0,1.0,3.0,139,110,117,123,121
2025-02-26 14:08:33.618,-340.0,-929.0,102.0,11.0,-2.0,4.0,141,112,118,124,122
2025-02-26 14:08:33.622,-374.0,-950.0,112.0,9.0,-2.0,4.0,141,110,119,123,122
2025-02-26 14:08:33.626,-372.0,-951.0,125.0,8.0,-2.0,3.0,139,112,118,124,121
2025-02-26 14:08:33.631,-359.0,-955.0,121.0,13.0,-1.0,3.0,142,114,121,123,120
2025-02-26 14:08:33.638,-356.0,-967.0,129.0,16.0,-1.0,3.0,142,115,120,124,121
2025-02-26 14:08:33.643,-355.0,-952.0,127.0,17.0,-3.0,1.0,141,115,118,123,121
2025-02-26 14:08:33.647,-339.0,-938.0,147.0,17.0,-2.0,1.0,139,112,118,124,121
2025-02-26 14:08:33.651,-351.0,-949.0,144.0,17.0,-4.0,1.0,140,113,120,123,122
2025-02-26 14:08:33.659,-348.0,-952.0,138.0,13.0,-4.0,1.0,141,113,120,124,123
2025-02-26 14:08:33.663,-329.0,-944.0,126.0,12.0,-6.0,1.0,139,114,118,123,121
2025-02-26 14:08:33.667,-331.0,-974.0,183.0,7.0,-5.0,1.0,140,113,118,122,121
2025-02-26 14:08:33.672,-326.0,-956.0,140.0,8.0,-4.0,0.0,141,114,125,125,122
2025-02-26 14:08:33.679,-315.0,-962.0,171.0,6.0,-2.0,1.0,140,114,121,125,121
2025-02-26 14:08:33.684,-319.0,-952.0,167.0,8.0,-2.0,1.0,139,114,118,122,117
2025-02-26 14:08:33.688,-320.0,-962.0,197.0,13.0,-1.0,1.0,140,114,120,122,121
2025-02-26 14:08:33.691,-323.0,-965.0,177.0,12.0,-1.0,1.0,140,108,118,124,124
2025-02-26 14:08:33.700,-314.0,-967.0,176.0,11.0,0.0,1.0,140,113,119,123,121
2025-02-26 14:08:33.702,-329.0,-980.0,192.0,7.0,1.0,2.0,140,115,118,122,123
2025-02-26 14:08:33.708,-326.0,-965.0,183.0,1.0,3.0,2.0,139,115,120,123,121
2025-02-26 14:08:33.712,-316.0,-970.0,168.0,-4.0,4.0,2.0,141,116,120,124,125
2025-02-26 14:08:33.720,-324.0,-973.0,205.0,-8.0,6.0,2.0,140,113,120,122,121
2025-02-26 14:08:33.724,-313.0,-966.0,141.0,-13.0,6.0,2.0,138,113,119,122,124
2025-02-26 14:08:33.726,-331.0,-983.0,148.0,-18.0,4.0,2.0,142,116,118,126,122
2025-02-26 14:08:33.732,-312.0,-967.0,185.0,-22.0,2.0,2.0,142,116,119,124,122
2025-02-26 14:08:33.740,-326.0,-971.0,138.0,-20.0,0.0,2.0,141,115,120,123,120
2025-02-26 14:08:33.744,-339.0,-983.0,207.0,-20.0,1.0,3.0,139,114,123,124,121
2025-02-26 14:08:33.749,-333.0,-969.0,186.0,-18.0,2.0,3.0,142,116,119,123,122
2025-02-26 14:08:33.751,-313.0,-993.0,167.0,-21.0,2.0,3.0,140,114,120,124,123
2025-02-26 14:08:33.761,-314.0,-1004.0,166.0,-17.0,-1.0,5.0,138,114,118,122,121
2025-02-26 14:08:33.762,-328.0,-1012.0,201.0,-17.0,1.0,6.0,139,114,118,122,120
2025-02-26 14:08:33.769,-305.0,-1003.0,94.0,-24.0,-5.0,7.0,140,116,121,123,121
2025-02-26 14:08:33.774,-331.0,-1019.0,155.0,-27.0,-5.0,9.0,140,115,120,122,121
2025-02-26 14:08:33.781,-304.0,-1014.0,208.0,-32.0,-4.0,10.0,139,114,118,123,121
2025-02-26 14:08:33.787,-307.0,-1008.0,186.0,-37.0,-3.0,11.0,139,114,120,122,121
2025-02-26 14:08:33.790,-300.0,-1005.0,182.0,-41.0,0.0,11.0,141,116,119,123,121
2025-02-26 14:08:33.798,-300.0,-1005.0,159.0,-48.0,-1.0,11.0,140,115,120,124,123
2025-02-26 14:08:33.802,-290.0,-1008.0,207.0,-45.0,3.0,10.0,141,116,121,123,122
2025-02-26 14:08:33.804,-312.0,-1005.0,188.0,-42.0,2.0,10.0,140,115,120,124,121
2025-02-26 14:08:33.814,-310.0,-995.0,153.0,-44.0,-1.0,9.0,140,115,121,123,120
2025-02-26 14:08:33.816,-282.0,-993.0,175.0,-45.0,1.0,8.0,141,115,119,123,120
2025-02-26 14:08:33.823,-307.0,-991.0,167.0,-41.0,1.0,8.0,140,114,118,122,120
2025-02-26 14:08:33.827,-292.0,-1001.0,226.0,-37.0,6.0,7.0,138,115,120,123,122
2025-02-26 14:08:33.834,-270.0,-997.0,230.0,-19.0,9.0,8.0,142,114,119,115,121
2025-02-26 14:08:33.839,-292.0,-1013.0,167.0,-13.0,13.0,8.0,141,113,119,122,120
2025-02-26 14:08:33.844,-292.0,-1003.0,141.0,-12.0,12.0,9.0,139,114,119,124,122
2025-02-26 14:08:33.851,-292.0,-1033.0,160.0,-13.0,11.0,11.0,140,114,120,123,121
2025-02-26 14:08:33.856,-286.0,-1041.0,189.0,-13.0,13.0,13.0,142,113,119,123,122
2025-02-26 14:08:33.859,-290.0,-1034.0,139.0,-15.0,12.0,15.0,142,113,118,121,121
2025-02-26 14:08:33.867,-277.0,-1042.0,162.0,-20.0,18.0,16.0,139,112,118,124,121
2025-02-26 14:08:33.872,-290.0,-1048.0,181.0,-18.0,22.0,17.0,142,114,120,123,122
2025-02-26 14:08:33.877,-313.0,-1072.0,134.0,-24.0,22.0,18.0,141,112,119,123,122
2025-02-26 14:08:33.881,-285.0,-1056.0,104.0,-22.0,20.0,18.0,139,111,119,122,122
2025-02-26 14:08:33.888,-355.0,-1054.0,92.0,-24.0,18.0,19.0,139,110,117,122,121
2025-02-26 14:08:33.893,-336.0,-1017.0,130.0,-29.0,19.0,19.0,139,108,118,120,121
2025-02-26 14:08:33.897,-356.0,-1025.0,92.0,-27.0,18.0,20.0,143,110,118,122,120
2025-02-26 14:08:33.901,-389.0,-1022.0,87.0,-35.0,17.0,20.0,145,110,117,122,121
2025-02-26 14:08:33.909,-375.0,-996.0,94.0,-41.0,20.0,21.0,139,108,118,121,121
2025-02-26 14:08:33.913,-383.0,-991.0,84.0,-42.0,20.0,23.0,140,102,116,121,121
2025-02-26 14:08:33.921,-389.0,-1000.0,25.0,-43.0,8.0,24.0,140,106,117,120,119
2025-02-26 14:08:33.925,-374.0,-985.0,101.0,-46.0,8.0,24.0,140,105,116,121,120
2025-02-26 14:08:33.929,-391.0,-979.0,72.0,-34.0,6.0,25.0,140,103,115,120,119
2025-02-26 14:08:33.933,-406.0,-977.0,39.0,-34.0,-4.0,24.0,140,102,114,120,119
2025-02-26 14:08:33.941,-403.0,-965.0,119.0,-32.0,-4.0,26.0,140,100,113,119,119
2025-02-26 14:08:33.943,-424.0,-979.0,165.0,-20.0,-2.0,28.0,139,99,113,121,120
2025-02-26 14:08:33.950,-392.0,-978.0,165.0,-18.0,7.0,30.0,141,97,113,118,119
2025-02-26 14:08:33.954,-365.0,-961.0,61.0,-16.0,9.0,30.0,141,95,113,117,118
2025-02-26 14:08:33.962,-371.0,-956.0,57.0,-16.0,10.0,30.0,138,92,110,115,118
2025-02-26 14:08:33.966,-386.0,-956.0,95.0,-24.0,15.0,31.0,139,90,110,115,117
2025-02-26 14:08:33.970,-372.0,-926.0,39.0,-34.0,16.0,31.0,141,90,109,113,117
2025-02-26 14:08:33.974,-347.0,-906.0,15.0,-35.0,15.0,30.0,141,87,108,113,115
2025-02-26 14:08:33.982,-351.0,-922.0,59.0,-37.0,19.0,30.0,139,84,106,111,114
2025-02-26 14:08:33.986,-374.0,-931.0,51.0,-32.0,29.0,31.0,137,83,106,112,114
2025-02-26 14:08:33.991,-402.0,-928.0,27.0,-35.0,31.0,32.0,140,82,107,109,113
2025-02-26 14:08:33.995,-423.0,-910.0,-15.0,-43.0,30.0,30.0,139,79,104,110,110
2025-02-26 14:08:34.003,-447.0,-948.0,130.0,-36.0,32.0,31.0,140,77,103,108,109
2025-02-26 14:08:34.007,-466.0,-939.0,124.0,-35.0,49.0,34.0,140,76,103,108,109
2025-02-26 14:08:34.012,-444.0,-874.0,25.0,-27.0,56.0,35.0,136,74,102,106,107
2025-02-26 14:08:34.016,-427.0,-859.0,41.0,-28.0,65.0,38.0,140,71,99,105,103
2025-02-26 14:08:34.024,-422.0,-855.0,-51.0,-19.0,66.0,38.0,128,66,97,107,102
2025-02-26 14:08:34.027,-479.0,-840.0,-63.0,-12.0,58.0,40.0,140,66,98,102,100
2025-02-26 14:08:34.031,-478.0,-842.0,56.0,-10.0,62.0,41.0,140,63,96,100,97
2025-02-26 14:08:34.036,-436.0,-776.0,-21.0,9.0,58.0,40.0,140,64,92,98,96
2025-02-26 14:08:34.043,-471.0,-812.0,112.0,20.0,52.0,40.0,138,62,93,101,93
2025-02-26 14:08:34.048,-453.0,-735.0,50.0,22.0,54.0,35.0,142,62,92,94,90
2025-02-26 14:08:34.052,-461.0,-745.0,8.0,27.0,58.0,37.0,139,66,90,93,92
2025-02-26 14:08:34.056,-465.0,-734.0,-17.0,32.0,72.0,37.0,141,58,91,92,87
2025-02-26 14:08:34.061,-489.0,-684.0,-78.0,13.0,75.0,35.0,138,57,81,90,84
2025-02-26 14:08:34.069,-560.0,-571.0,-141.0,6.0,73.0,31.0,139,54,85,87,79
2025-02-26 14:08:34.072,-529.0,-557.0,-11.0,3.0,74.0,30.0,131,55,85,85,78
2025-02-26 14:08:34.077,-532.0,-531.0,24.0,1.0,80.0,29.0,140,53,85,85,76
2025-02-26 14:08:34.081,-545.0,-450.0,-92.0,1.0,81.0,24.0,138,52,74,81,72
2025-02-26 14:08:34.085,-560.0,-334.0,-145.0,21.0,72.0,21.0,140,52,79,79,72
2025-02-26 14:08:34.090,-573.0,-331.0,-138.0,37.0,66.0,15.0,138,53,83,79,73
2025-02-26 14:08:34.097,-578.0,-239.0,-247.0,46.0,60.0,8.0,135,51,77,77,68
2025-02-26 14:08:34.101,-632.0,-167.0,-208.0,65.0,53.0,4.0,138,49,75,76,67
2025-02-26 14:08:34.102,-722.0,-50.0,42.0,58.0,70.0,-4.0,139,50,75,74,64
2025-02-26 14:08:34.109,-724.0,4.0,-230.0,60.0,68.0,-13.0,139,50,73,72,61
2025-02-26 14:08:34.114,-683.0,219.0,-156.0,77.0,72.0,-18.0,139,49,74,73,61
2025-02-26 14:08:34.122,-633.0,316.0,-226.0,62.0,77.0,-29.0,138,51,72,73,60
2025-02-26 14:08:34.125,-530.0,451.0,-207.0,61.0,83.0,-46.0,136,50,70,72,59
2025-02-26 14:08:34.130,-528.0,475.0,-437.0,53.0,85.0,-57.0,136,50,68,72,56
2025-02-26 14:08:34.134,-503.0,594.0,-429.0,41.0,74.0,-87.0,136,49,68,69,56
2025-02-26 14:08:34.139,-544.0,549.0,-665.0,39.0,67.0,-116.0,136,48,68,70,55
2025-02-26 14:08:34.144,-597.0,570.0,-823.0,22.0,57.0,-131.0,135,47,68,71,54
2025-02-26 14:08:34.151,-759.0,586.0,-863.0,12.0,56.0,-151.0,135,50,70,72,53
2025-02-26 14:08:34.155,-814.0,550.0,-1035.0,10.0,42.0,-172.0,135,51,68,72,55
2025-02-26 14:08:34.156,-828.0,614.0,-1147.0,26.0,27.0,-182.0,131,49,66,69,52
2025-02-26 14:08:34.167,-737.0,611.0,-1084.0,90.0,-18.0,-209.0,129,49,67,72,53
2025-02-26 14:08:34.169,-654.0,994.0,-1304.0,126.0,-80.0,-261.0,126,50,66,73,53
2025-02-26 14:08:34.175,-693.0,911.0,-1320.0,182.0,-107.0,-298.0,122,49,65,72,53
2025-02-26 14:08:34.181,-353.0,822.0,-1220.0,227.0,-162.0,-316.0,122,49,64,75,53
2025-02-26 14:08:34.187,-263.0,451.0,-1048.0,278.0,-198.0,-370.0,120,49,65,73,54
2025-02-26 14:08:34.192,55.0,141.0,-859.0,305.0,-228.0,-405.0,120,49,60,75,54
2025-02-26 14:08:34.199,154.0,-168.0,-453.0,340.0,-233.0,-426.0,118,47,64,75,54
2025-02-26 14:08:34.203,259.0,-291.0,104.0,378.0,-229.0,-429.0,116,50,60,73,53
2025-02-26 14:08:34.205,522.0,-445.0,426.0,408.0,-245.0,-422.0,120,51,63,75,53
2025-02-26 14:08:34.212,1084.0,-794.0,1145.0,400.0,-223.0,-396.0,117,51,62,79,55
2025-02-26 14:08:34.217,1611.0,-1171.0,1900.0,388.0,-172.0,-340.0,119,51,62,74,56
2025-02-26 14:08:34.224,1887.0,-1768.0,2554.0,346.0,-133.0,-282.0,117,52,61,75,56
2025-02-26 14:08:34.229,2156.0,-2386.0,2824.0,303.0,-54.0,-233.0,116,50,62,75,57
2025-02-26 14:08:34.236,2177.0,-2673.0,2798.0,267.0,1.0,-210.0,115,52,62,75,58
2025-02-26 14:08:34.241,2123.0,-3262.0,2667.0,228.0,64.0,-169.0,113,51,62,77,59
2025-02-26 14:08:34.241,1649.0,-3614.0,2397.0,212.0,77.0,-121.0,115,52,64,74,60
2025-02-26 14:08:34.253,1164.0,-3824.0,2134.0,173.0,60.0,-69.0,117,53,64,76,59
2025-02-26 14:08:34.257,999.0,-3715.0,1919.0,111.0,29.0,-39.0,113,52,66,77,59
2025-02-26 14:08:34.261,842.0,-3542.0,1893.0,33.0,4.0,14.0,112,52,64,74,61
2025-02-26 14:08:34.266,760.0,-3220.0,1949.0,-5.0,-19.0,53.0,111,54,65,77,60
2025-02-26 14:08:34.270,765.0,-2826.0,1988.0,-77.0,-25.0,73.0,114,52,65,78,60
2025-02-26 14:08:34.277,786.0,-2585.0,1947.0,-140.0,-24.0,83.0,113,53,66,78,61
2025-02-26 14:08:34.282,723.0,-2323.0,1865.0,-194.0,-20.0,94.0,113,53,66,77,60
2025-02-26 14:08:34.284,627.0,-2001.0,1632.0,-216.0,-18.0,98.0,112,53,67,79,62
2025-02-26 14:08:34.294,579.0,-1831.0,1355.0,-247.0,-20.0,100.0,111,53,64,76,60
2025-02-26 14:08:34.296,436.0,-1780.0,1063.0,-271.0,-20.0,102.0,112,54,66,75,60
2025-02-26 14:08:34.302,328.0,-1651.0,928.0,-283.0,-25.0,103.0,108,53,69,79,62
2025-02-26 14:08:34.307,223.0,-1660.0,701.0,-287.0,-32.0,110.0,111,55,68,78,60
2025-02-26 14:08:34.315,292.0,-1682.0,530.0,-285.0,-33.0,118.0,109,53,69,77,60
2025-02-26 14:08:34.319,341.0,-1698.0,451.0,-278.0,-29.0,131.0,109,52,67,77,60
2025-02-26 14:08:34.322,333.0,-1730.0,391.0,-261.0,-26.0,140.0,111,53,67,78,60
2025-02-26 14:08:34.323,375.0,-1686.0,353.0,-237.0,-20.0,158.0,111,55,66,78,60
2025-02-26 14:08:34.335,395.0,-1628.0,328.0,-225.0,-12.0,175.0,110,53,66,76,58
2025-02-26 14:08:34.339,381.0,-1547.0,258.0,-200.0,-8.0,195.0,108,53,66,74,57
2025-02-26 14:08:34.342,334.0,-1498.0,214.0,-178.0,-5.0,207.0,110,51,67,77,59
2025-02-26 14:08:34.348,283.0,-1369.0,198.0,-158.0,-8.0,228.0,112,56,70,79,59
2025-02-26 14:08:34.355,223.0,-1319.0,181.0,-146.0,-16.0,246.0,112,54,70,77,59
2025-02-26 14:08:34.360,328.0,-1150.0,254.0,-135.0,-12.0,263.0,112,53,68,76,57
2025-02-26 14:08:34.364,252.0,-1100.0,267.0,-121.0,-14.0,269.0,111,54,69,78,58
2025-02-26 14:08:34.367,245.0,-947.0,263.0,-106.0,-10.0,275.0,112,51,71,78,58
2025-02-26 14:08:34.376,213.0,-744.0,264.0,-99.0,-3.0,274.0,113,57,73,79,61
2025-02-26 14:08:34.379,209.0,-605.0,248.0,-89.0,0.0,268.0,114,56,75,79,61
2025-02-26 14:08:34.384,170.0,-525.0,269.0,-85.0,6.0,264.0,115,59,77,81,63
2025-02-26 14:08:34.388,84.0,-382.0,262.0,-82.0,14.0,253.0,120,63,81,87,67
2025-02-26 14:08:34.388,82.0,-269.0,250.0,-77.0,18.0,237.0,119,61,78,84,65
2025-02-26 14:08:34.400,0.0,-220.0,247.0,-75.0,24.0,228.0,120,65,79,85,66
2025-02-26 14:08:34.405,-44.0,-157.0,215.0,-75.0,33.0,213.0,125,66,81,88,69
2025-02-26 14:08:34.409,-116.0,-135.0,173.0,-78.0,36.0,197.0,125,65,80,89,69
2025-02-26 14:08:34.416,-167.0,-143.0,148.0,-83.0,40.0,191.0,130,71,85,94,77
2025-02-26 14:08:34.421,-176.0,-81.0,139.0,-86.0,49.0,179.0,123,67,84,90,72
2025-02-26 14:08:34.425,-189.0,-175.0,46.0,-90.0,53.0,172.0,124,65,81,88,70
2025-02-26 14:08:34.430,-249.0,-132.0,-21.0,-96.0,50.0,169.0,129,72,89,96,77
2025-02-26 14:08:34.430,-310.0,-178.0,-19.0,-99.0,52.0,164.0,130,73,90,98,79
2025-02-26 14:08:34.441,-310.0,-170.0,-68.0,-103.0,55.0,159.0,129,70,87,93,76
2025-02-26 14:08:34.446,-375.0,-220.0,-146.0,-104.0,57.0,157.0,120,61,77,84,66
2025-02-26 14:08:34.449,-395.0,-238.0,-157.0,-106.0,54.0,153.0,139,81,98,105,88
2025-02-26 14:08:34.458,-453.0,-177.0,-196.0,-106.0,43.0,149.0,124,63,82,88,72
2025-02-26 14:08:34.462,-487.0,-134.0,-251.0,-103.0,41.0,142.0,120,59,76,83,68
2025-02-26 14:08:34.466,-499.0,-70.0,-274.0,-106.0,36.0,141.0,120,60,77,83,66
2025-02-26 14:08:34.471,-555.0,-47.0,-294.0,-102.0,27.0,134.0,124,70,83,90,69
2025-02-26 14:08:34.478,-563.0,13.0,-312.0,-103.0,17.0,130.0,124,64,81,88,72
2025-02-26 14:08:34.482,-581.0,69.0,-334.0,-100.0,13.0,123.0,125,65,80,86,69
2025-02-26 14:08:34.486,-569.0,90.0,-317.0,-92.0,2.0,117.0,122,63,80,86,69
2025-02-26 14:08:34.491,-588.0,150.0,-313.0,-81.0,-6.0,106.0,125,65,82,89,73
2025-02-26 14:08:34.495,-582.0,222.0,-299.0,-75.0,-16.0,95.0,124,63,83,88,71
2025-02-26 14:08:34.501,-602.0,291.0,-282.0,-65.0,-21.0,91.0,118,64,80,88,70
2025-02-26 14:08:34.507,-619.0,313.0,-285.0,-55.0,-28.0,83.0,125,64,82,89,71
2025-02-26 14:08:34.510,-594.0,399.0,-271.0,-51.0,-33.0,75.0,125,65,82,88,72
2025-02-26 14:08:34.515,-611.0,427.0,-258.0,-44.0,-32.0,67.0,124,63,81,86,70
2025-02-26 14:08:34.523,-670.0,480.0,-269.0,-34.0,-32.0,63.0,126,60,82,87,72
2025-02-26 14:08:34.527,-709.0,567.0,-283.0,-22.0,-35.0,53.0,125,63,82,89,73
2025-02-26 14:08:34.531,-781.0,702.0,-314.0,-12.0,-37.0,41.0,120,63,81,86,70
2025-02-26 14:08:34.536,-814.0,763.0,-303.0,8.0,-40.0,34.0,126,62,80,86,70
2025-02-26 14:08:34.540,-899.0,895.0,-309.0,31.0,-44.0,15.0,126,63,80,86,69
2025-02-26 14:08:34.546,-930.0,1069.0,-282.0,43.0,-46.0,-11.0,126,64,79,86,70
2025-02-26 14:08:34.552,-899.0,1196.0,-248.0,75.0,-43.0,-49.0,124,64,79,85,72
2025-02-26 14:08:34.557,-877.0,1328.0,-193.0,106.0,-28.0,-75.0,127,64,79,87,72
2025-02-26 14:08:34.564,-770.0,1528.0,-155.0,132.0,-9.0,-131.0,125,61,80,87,73
2025-02-26 14:08:34.568,-747.0,1682.0,-135.0,145.0,13.0,-191.0,124,63,81,86,70
2025-02-26 14:08:34.572,-710.0,1755.0,-159.0,160.0,24.0,-263.0,123,62,81,85,71
2025-02-26 14:08:34.577,-786.0,2004.0,-150.0,175.0,38.0,-294.0,125,64,81,87,71
2025-02-26 14:08:34.584,-637.0,1668.0,-179.0,184.0,45.0,-364.0,126,63,81,86,71
2025-02-26 14:08:34.586,-436.0,1462.0,-194.0,191.0,45.0,-436.0,126,63,81,90,73
2025-02-26 14:08:34.593,-434.0,1110.0,-260.0,202.0,40.0,-500.0,125,63,80,88,71
2025-02-26 14:08:34.597,-395.0,976.0,-351.0,220.0,12.0,-526.0,123,61,78,87,71
2025-02-26 14:08:34.605,-390.0,558.0,-406.0,241.0,-28.0,-568.0,125,63,82,86,71
2025-02-26 14:08:34.609,-329.0,75.0,-469.0,254.0,-87.0,-599.0,124,64,82,91,74
2025-02-26 14:08:34.613,-223.0,-304.0,-470.0,278.0,-120.0,-621.0,123,62,81,87,71
2025-02-26 14:08:34.621,77.0,-668.0,-375.0,303.0,-186.0,-628.0,123,63,80,84,70
2025-02-26 14:08:34.626,500.0,-960.0,-13.0,330.0,-248.0,-619.0,125,64,81,86,73
2025-02-26 14:08:34.630,1136.0,-1679.0,321.0,351.0,-281.0,-568.0,126,64,83,88,74
2025-02-26 14:08:34.638,1988.0,-2593.0,1112.0,355.0,-265.0,-474.0,126,63,85,89,74
2025-02-26 14:08:34.640,2690.0,-3495.0,1864.0,354.0,-234.0,-344.0,125,55,85,85,70
2025-02-26 14:08:34.646,2953.0,-4502.0,2443.0,344.0,-140.0,-192.0,123,60,86,86,73
2025-02-26 14:08:34.652,3343.0,-4887.0,2752.0,327.0,-29.0,-117.0,125,60,86,85,76
2025-02-26 14:08:34.658,3465.0,-5287.0,2722.0,308.0,67.0,7.0,127,65,87,86,74
2025-02-26 14:08:34.663,3086.0,-5276.0,2613.0,298.0,138.0,85.0,126,63,85,83,73
2025-02-26 14:08:34.666,2281.0,-4905.0,2249.0,258.0,162.0,138.0,119,56,77,75,66
2025-02-26 14:08:34.671,1873.0,-4099.0,1801.0,193.0,186.0,169.0,122,60,82,77,69
2025-02-26 14:08:34.679,1134.0,-3637.0,1499.0,96.0,154.0,177.0,125,60,85,78,69
2025-02-26 14:08:34.683,572.0,-2698.0,1291.0,-12.0,120.0,191.0,123,62,86,77,67
2025-02-26 14:08:34.688,255.0,-2084.0,1145.0,-63.0,39.0,189.0,122,59,85,76,66
2025-02-26 14:08:34.695,223.0,-1639.0,969.0,-172.0,24.0,190.0,119,55,79,71,63
2025-02-26 14:08:34.699,199.0,-1494.0,878.0,-252.0,-9.0,186.0,118,56,77,72,61
2025-02-26 14:08:34.704,291.0,-1428.0,838.0,-300.0,-38.0,168.0,117,56,74,74,64
2025-02-26 14:08:34.708,248.0,-1445.0,687.0,-313.0,-38.0,144.0,119,59,75,80,67
2025-02-26 14:08:34.713,261.0,-1580.0,565.0,-318.0,-34.0,118.0,118,58,76,77,65
2025-02-26 14:08:34.720,229.0,-1637.0,432.0,-310.0,-11.0,109.0,119,58,75,78,64
2025-02-26 14:08:34.724,104.0,-1786.0,365.0,-287.0,1.0,99.0,118,57,78,81,65
2025-02-26 14:08:34.731,120.0,-1870.0,312.0,-274.0,13.0,100.0,120,58,76,81,66
2025-02-26 14:08:34.733,48.0,-1860.0,252.0,-249.0,13.0,109.0,118,55,70,82,66
2025-02-26 14:08:34.741,58.0,-1831.0,181.0,-235.0,18.0,118.0,118,57,72,81,65
2025-02-26 14:08:34.745,21.0,-1783.0,188.0,-222.0,9.0,134.0,120,56,71,82,66
2025-02-26 14:08:34.749,0.0,-1626.0,160.0,-215.0,9.0,149.0,119,57,71,81,66
2025-02-26 14:08:34.756,17.0,-1552.0,186.0,-206.0,-1.0,157.0,119,57,74,81,65
2025-02-26 14:08:34.760,-92.0,-1488.0,208.0,-192.0,-21.0,173.0,118,55,73,80,67
2025-02-26 14:08:34.764,13.0,-1374.0,196.0,-181.0,-36.0,187.0,119,56,74,79,66
2025-02-26 14:08:34.770,23.0,-1272.0,258.0,-168.0,-41.0,199.0,119,55,78,80,67
2025-02-26 14:08:34.776,16.0,-1140.0,310.0,-160.0,-37.0,208.0,120,56,73,82,67
2025-02-26 14:08:34.782,-19.0,-1031.0,305.0,-149.0,-41.0,217.0,119,57,76,82,67
2025-02-26 14:08:34.786,-47.0,-956.0,329.0,-142.0,-48.0,227.0,121,59,75,82,68
2025-02-26 14:08:34.790,-30.0,-757.0,340.0,-135.0,-47.0,234.0,121,56,74,82,68
2025-02-26 14:08:34.798,12.0,-667.0,321.0,-131.0,-35.0,236.0,122,58,77,82,68
2025-02-26 14:08:34.802,-1.0,-487.0,332.0,-132.0,-16.0,236.0,122,58,77,83,68
2025-02-26 14:08:34.806,-16.0,-229.0,313.0,-141.0,-7.0,231.0,120,56,77,80,67
2025-02-26 14:08:34.810,-50.0,-142.0,258.0,-148.0,6.0,227.0,122,55,77,83,68
2025-02-26 14:08:34.818,-105.0,-49.0,323.0,-163.0,6.0,216.0,121,58,78,82,68
2025-02-26 14:08:34.829,-179.0,162.0,207.0,-166.0,4.0,203.0,120,56,77,86,67
2025-02-26 14:08:34.829,-230.0,204.0,163.0,-182.0,4.0,198.0,122,54,76,80,66
2025-02-26 14:08:34.834,-284.0,178.0,128.0,-191.0,6.0,186.0,124,57,77,81,67
2025-02-26 14:08:34.836,-284.0,163.0,127.0,-191.0,7.0,175.0,123,57,78,81,66
2025-02-26 14:08:34.842,-291.0,123.0,81.0,-196.0,11.0,171.0,129,56,77,82,67
2025-02-26 14:08:34.846,-371.0,109.0,28.0,-195.0,15.0,166.0,124,57,77,81,68
2025-02-26 14:08:34.851,-410.0,79.0,10.0,-191.0,20.0,163.0,124,63,77,83,70
2025-02-26 14:08:34.856,-411.0,46.0,-38.0,-184.0,22.0,161.0,123,55,75,81,68
2025-02-26 14:08:34.860,-460.0,63.0,-88.0,-166.0,25.0,159.0,126,56,77,81,67
2025-02-26 14:08:34.866,-529.0,89.0,-126.0,-157.0,29.0,153.0,124,59,76,85,67
2025-02-26 14:08:34.871,-563.0,76.0,-137.0,-133.0,31.0,148.0,126,57,75,81,67
2025-02-26 14:08:34.875,-502.0,93.0,-137.0,-111.0,34.0,145.0,126,56,76,82,67
2025-02-26 14:08:34.880,-576.0,129.0,-191.0,-81.0,33.0,138.0,127,51,75,81,68
2025-02-26 14:08:34.888,-544.0,211.0,-249.0,-68.0,33.0,134.0,128,56,76,80,66
2025-02-26 14:08:34.891,-561.0,187.0,-250.0,-43.0,32.0,131.0,129,55,76,80,66
2025-02-26 14:08:34.896,-615.0,294.0,-274.0,-20.0,31.0,124.0,129,57,76,82,67
2025-02-26 14:08:34.900,-646.0,414.0,-278.0,-9.0,27.0,117.0,132,58,74,78,69
2025-02-26 14:08:34.908,-661.0,527.0,-309.0,11.0,25.0,108.0,126,55,74,80,68
2025-02-26 14:08:34.912,-677.0,602.0,-281.0,29.0,16.0,103.0,129,57,74,81,68
2025-02-26 14:08:34.914,-678.0,720.0,-318.0,39.0,11.0,91.0,130,57,75,82,67
2025-02-26 14:08:34.921,-698.0,880.0,-312.0,58.0,7.0,74.0,130,55,72,79,67
2025-02-26 14:08:34.925,-719.0,952.0,-303.0,74.0,2.0,63.0,132,57,71,81,67
2025-02-26 14:08:34.933,-760.0,1132.0,-320.0,81.0,-7.0,33.0,131,56,73,81,68
2025-02-26 14:08:34.937,-795.0,1244.0,-350.0,105.0,-14.0,-4.0,131,56,72,81,67
2025-02-26 14:08:34.941,-851.0,1341.0,-384.0,126.0,-27.0,-25.0,135,62,73,82,65
2025-02-26 14:08:34.945,-894.0,1422.0,-366.0,136.0,-37.0,-73.0,134,57,72,81,68
2025-02-26 14:08:34.953,-921.0,1487.0,-383.0,164.0,-46.0,-127.0,134,56,73,81,69
2025-02-26 14:08:34.958,-884.0,1575.0,-366.0,190.0,-57.0,-185.0,135,55,74,80,67
2025-02-26 14:08:34.961,-899.0,1629.0,-348.0,213.0,-57.0,-211.0,135,58,74,82,68
2025-02-26 14:08:34.969,-932.0,1568.0,-335.0,231.0,-53.0,-254.0,137,58,74,83,69
2025-02-26 14:08:34.974,-850.0,1557.0,-268.0,241.0,-61.0,-295.0,136,58,71,81,69
2025-02-26 14:08:34.978,-811.0,1554.0,-196.0,265.0,-66.0,-338.0,136,57,72,81,69
2025-02-26 14:08:34.983,-766.0,1560.0,-147.0,289.0,-82.0,-381.0,137,57,73,84,68
2025-02-26 14:08:34.991,-613.0,1485.0,-166.0,308.0,-107.0,-405.0,141,59,75,82,70
2025-02-26 14:08:34.995,-373.0,1345.0,-152.0,323.0,-133.0,-452.0,139,59,75,83,69
2025-02-26 14:08:34.999,-205.0,1026.0,-175.0,330.0,-165.0,-490.0,139,57,74,82,69
2025-02-26 14:08:35.006,-2.0,903.0,-170.0,343.0,-191.0,-528.0,140,55,73,82,68
2025-02-26 14:08:35.011,23.0,542.0,-39.0,346.0,-206.0,-561.0,140,56,75,82,72
2025-02-26 14:08:35.015,130.0,442.0,28.0,353.0,-230.0,-573.0,140,57,74,83,69
2025-02-26 14:08:35.019,462.0,-42.0,51.0,354.0,-267.0,-589.0,141,56,75,83,69
2025-02-26 14:08:35.027,662.0,-459.0,175.0,352.0,-285.0,-590.0,140,56,74,82,69
2025-02-26 14:08:35.031,1011.0,-713.0,390.0,346.0,-315.0,-587.0,141,56,78,83,69
2025-02-26 14:08:35.036,1437.0,-1395.0,843.0,328.0,-319.0,-573.0,144,56,76,85,70
2025-02-26 14:08:35.043,2029.0,-2264.0,1104.0,342.0,-298.0,-522.0,145,56,78,83,70
2025-02-26 14:08:35.047,2903.0,-3492.0,2104.0,354.0,-227.0,-416.0,144,56,77,82,70
2025-02-26 14:08:35.052,3462.0,-5073.0,3358.0,357.0,-110.0,-270.0,147,57,82,80,71
2025-02-26 14:08:35.059,3803.0,-6024.0,4483.0,341.0,-39.0,-131.0,143,54,82,78,69
2025-02-26 14:08:35.064,4008.0,-6176.0,4819.0,321.0,75.0,-76.0,147,56,82,74,70
2025-02-26 14:08:35.068,3800.0,-5800.0,4683.0,261.0,177.0,5.0,158,68,92,83,80
2025-02-26 14:08:35.073,3040.0,-4966.0,3690.0,221.0,267.0,67.0,180,91,115,106,103
2025-02-26 14:08:35.080,2134.0,-3338.0,2916.0,63.0,326.0,109.0,212,127,151,143,138
2025-02-26 14:08:35.084,1720.0,-2397.0,1904.0,-94.0,304.0,119.0,208,121,144,134,129
2025-02-26 14:08:35.092,962.0,-1726.0,1034.0,-251.0,206.0,123.0,190,102,126,118,109
2025-02-26 14:08:35.097,576.0,-1717.0,392.0,-366.0,90.0,126.0,235,152,174,165,161
2025-02-26 14:08:35.101,521.0,-1593.0,224.0,-439.0,14.0,137.0,171,81,103,99,89
2025-02-26 14:08:35.105,577.0,-1792.0,192.0,-474.0,-50.0,144.0,156,64,82,81,73
2025-02-26 14:08:35.113,626.0,-1922.0,17.0,-480.0,-45.0,153.0,159,66,82,87,76
2025-02-26 14:08:35.115,580.0,-2341.0,-153.0,-436.0,-33.0,163.0,152,61,75,84,71
2025-02-26 14:08:35.121,318.0,-2526.0,-142.0,-385.0,4.0,164.0,153,63,75,85,71
2025-02-26 14:08:35.127,401.0,-2660.0,-112.0,-311.0,31.0,175.0,157,66,78,87,74
2025-02-26 14:08:35.133,321.0,-2486.0,-170.0,-268.0,42.0,196.0,155,63,79,87,73
2025-02-26 14:08:35.138,258.0,-2386.0,-110.0,-212.0,41.0,221.0,153,62,79,86,71
2025-02-26 14:08:35.142,341.0,-2098.0,-100.0,-164.0,29.0,233.0,153,65,77,84,72
2025-02-26 14:08:35.149,375.0,-1890.0,72.0,-136.0,30.0,251.0,155,65,80,87,74
2025-02-26 14:08:35.154,451.0,-1469.0,166.0,-134.0,54.0,261.0,153,64,77,88,73
2025-02-26 14:08:35.158,372.0,-1164.0,153.0,-108.0,62.0,262.0,152,63,78,86,72
2025-02-26 14:08:35.162,400.0,-1033.0,214.0,-85.0,69.0,263.0,153,62,78,85,72
2025-02-26 14:08:35.169,288.0,-781.0,212.0,-67.0,77.0,264.0,155,65,81,88,74
2025-02-26 14:08:35.174,251.0,-520.0,296.0,-68.0,83.0,263.0,157,65,80,86,73
2025-02-26 14:08:35.178,187.0,-368.0,363.0,-71.0,81.0,257.0,152,63,79,86,72
2025-02-26 14:08:35.183,96.0,-255.0,358.0,-83.0,62.0,253.0,157,63,80,86,73
2025-02-26 14:08:35.187,-30.0,-113.0,275.0,-84.0,41.0,241.0,156,63,84,86,74
2025-02-26 14:08:35.195,-40.0,12.0,262.0,-84.0,37.0,227.0,154,64,81,86,73
2025-02-26 14:08:35.199,-89.0,133.0,208.0,-108.0,38.0,222.0,156,65,82,86,74
2025-02-26 14:08:35.203,-177.0,168.0,150.0,-119.0,39.0,207.0,154,64,82,86,72
2025-02-26 14:08:35.207,-253.0,35.0,159.0,-133.0,39.0,191.0,155,64,84,86,73
2025-02-26 14:08:35.211,-242.0,273.0,7.0,-155.0,46.0,185.0,156,64,84,87,74
2025-02-26 14:08:35.219,-324.0,136.0,-15.0,-162.0,51.0,175.0,154,64,84,86,73
2025-02-26 14:08:35.223,-309.0,83.0,-53.0,-181.0,52.0,168.0,153,62,83,85,72
2025-02-26 14:08:35.228,-394.0,75.0,-78.0,-185.0,46.0,164.0,158,65,82,89,74
2025-02-26 14:08:35.232,-451.0,-11.0,-110.0,-177.0,34.0,153.0,155,64,82,85,72
2025-02-26 14:08:35.240,-428.0,-25.0,-156.0,-165.0,33.0,146.0,154,61,80,85,70
2025-02-26 14:08:35.242,-478.0,-21.0,-184.0,-142.0,20.0,140.0,151,60,80,82,71
2025-02-26 14:08:35.249,-520.0,-43.0,-165.0,-118.0,7.0,127.0,153,64,85,84,72
2025-02-26 14:08:35.253,-416.0,-109.0,-89.0,-108.0,10.0,116.0,153,62,81,83,71
2025-02-26 14:08:35.260,-448.0,-119.0,-85.0,-85.0,16.0,109.0,152,61,80,83,70
2025-02-26 14:08:35.264,-403.0,-135.0,-46.0,-75.0,27.0,109.0,154,62,80,84,71
2025-02-26 14:08:35.266,-476.0,-122.0,-79.0,-61.0,38.0,108.0,155,63,82,85,72
2025-02-26 14:08:35.273,-508.0,-104.0,-63.0,-57.0,48.0,109.0,153,61,80,83,70
2025-02-26 14:08:35.278,-545.0,-79.0,-101.0,-41.0,49.0,108.0,154,60,80,83,70
2025-02-26 14:08:35.285,-597.0,-18.0,-128.0,-20.0,42.0,102.0,153,63,83,84,71
2025-02-26 14:08:35.289,-610.0,73.0,-165.0,-12.0,40.0,95.0,154,63,81,84,71
2025-02-26 14:08:35.293,-606.0,147.0,-206.0,10.0,38.0,85.0,153,62,81,83,71
2025-02-26 14:08:35.298,-644.0,167.0,-193.0,20.0,31.0,79.0,155,62,80,84,71
2025-02-26 14:08:35.306,-626.0,232.0,-197.0,22.0,27.0,68.0,154,61,81,84,72
2025-02-26 14:08:35.309,-637.0,282.0,-221.0,32.0,28.0,56.0,154,63,80,84,70
2025-02-26 14:08:35.314,-633.0,318.0,-232.0,35.0,24.0,51.0,155,62,82,86,72
2025-02-26 14:08:35.318,-650.0,367.0,-218.0,38.0,20.0,40.0,152,63,81,84,71
2025-02-26 14:08:35.322,-659.0,419.0,-227.0,45.0,19.0,29.0,152,60,81,83,69
2025-02-26 14:08:35.326,-655.0,444.0,-221.0,56.0,15.0,23.0,154,63,83,86,72
2025-02-26 14:08:35.332,-658.0,521.0,-207.0,59.0,3.0,11.0,154,63,81,83,72
2025-02-26 14:08:35.338,-723.0,569.0,-215.0,71.0,-4.0,-5.0,154,63,80,83,70
2025-02-26 14:08:35.342,-813.0,627.0,-238.0,92.0,-15.0,-15.0,153,62,80,85,70
2025-02-26 14:08:35.347,-921.0,828.0,-243.0,106.0,-23.0,-42.0,154,61,81,86,72
2025-02-26 14:08:35.355,-966.0,916.0,-276.0,130.0,-27.0,-76.0,152,60,78,85,71
2025-02-26 14:08:35.359,-991.0,1008.0,-335.0,145.0,-40.0,-94.0,153,63,79,87,72
2025-02-26 14:08:35.365,-1072.0,1074.0,-317.0,156.0,-54.0,-132.0,153,62,80,84,71
2025-02-26 14:08:35.369,-1179.0,1076.0,-351.0,158.0,-69.0,-163.0,155,63,80,86,72
2025-02-26 14:08:35.375,-1209.0,1118.0,-302.0,180.0,-77.0,-192.0,152,61,78,84,71
2025-02-26 14:08:35.379,-1177.0,1119.0,-250.0,188.0,-90.0,-207.0,153,62,79,85,71
2025-02-26 14:08:35.383,-1102.0,1155.0,-212.0,202.0,-98.0,-238.0,154,63,77,86,71
2025-02-26 14:08:35.392,-962.0,1121.0,-235.0,213.0,-103.0,-275.0,156,63,80,81,73
2025-02-26 14:08:35.393,-880.0,1089.0,-170.0,221.0,-112.0,-311.0,155,65,80,86,71
2025-02-26 14:08:35.400,-776.0,956.0,-201.0,233.0,-119.0,-349.0,154,61,79,84,72
2025-02-26 14:08:35.408,-692.0,799.0,-170.0,235.0,-124.0,-389.0,155,61,78,86,73
2025-02-26 14:08:35.412,-450.0,753.0,-112.0,233.0,-140.0,-407.0,155,61,77,85,72
2025-02-26 14:08:35.417,-173.0,583.0,-110.0,230.0,-164.0,-441.0,154,62,79,86,73
2025-02-26 14:08:35.422,121.0,237.0,94.0,223.0,-188.0,-468.0,154,63,80,86,73
2025-02-26 14:08:35.429,321.0,-164.0,318.0,232.0,-195.0,-488.0,155,62,80,85,73
2025-02-26 14:08:35.433,659.0,-399.0,629.0,231.0,-207.0,-497.0,152,60,79,84,72
2025-02-26 14:08:35.437,1048.0,-959.0,913.0,228.0,-205.0,-503.0,153,63,81,85,72
2025-02-26 14:08:35.440,1431.0,-1620.0,1000.0,230.0,-194.0,-496.0,154,61,82,87,74
2025-02-26 14:08:35.449,1738.0,-2343.0,1118.0,239.0,-179.0,-461.0,155,61,82,86,75
2025-02-26 14:08:35.452,1907.0,-3109.0,1393.0,259.0,-169.0,-392.0,153,60,82,84,75
2025-02-26 14:08:35.461,2105.0,-3933.0,1875.0,263.0,-121.0,-301.0,153,60,83,83,74
2025-02-26 14:08:35.466,2471.0,-4373.0,2424.0,251.0,-45.0,-250.0,154,59,83,81,74
2025-02-26 14:08:35.470,2689.0,-5177.0,2790.0,247.0,38.0,-138.0,155,63,85,81,74
2025-02-26 14:08:35.477,2839.0,-5656.0,2862.0,247.0,110.0,-31.0,157,63,88,81,76
2025-02-26 14:08:35.482,2702.0,-5452.0,2913.0,227.0,169.0,52.0,174,83,106,97,94
2025-02-26 14:08:35.483,2541.0,-4708.0,2551.0,168.0,196.0,115.0,164,71,98,86,81
2025-02-26 14:08:35.493,1903.0,-3948.0,2062.0,77.0,233.0,148.0,159,67,91,83,75
2025-02-26 14:08:35.498,1480.0,-3055.0,1527.0,6.0,223.0,164.0,166,73,101,88,83
2025-02-26 14:08:35.503,1020.0,-2287.0,1436.0,-117.0,187.0,179.0,162,68,99,85,78
2025-02-26 14:08:35.507,863.0,-1823.0,1133.0,-171.0,141.0,170.0,164,72,96,87,79
2025-02-26 14:08:35.514,853.0,-1386.0,739.0,-229.0,122.0,163.0,160,65,89,83,75
2025-02-26 14:08:35.519,703.0,-1267.0,569.0,-303.0,83.0,158.0,152,59,80,75,68
2025-02-26 14:08:35.522,585.0,-1300.0,431.0,-321.0,52.0,147.0,153,60,81,79,66
2025-02-26 14:08:35.525,348.0,-1405.0,151.0,-310.0,18.0,131.0,151,58,76,78,67
2025-02-26 14:08:35.535,300.0,-1660.0,105.0,-297.0,14.0,133.0,150,57,73,79,67
2025-02-26 14:08:35.537,198.0,-1642.0,-36.0,-286.0,14.0,134.0,152,57,79,79,67
2025-02-26 14:08:35.543,175.0,-1860.0,-35.0,-278.0,27.0,151.0,153,58,74,80,66
2025-02-26 14:08:35.548,139.0,-1732.0,92.0,-274.0,18.0,163.0,150,58,74,83,68
2025-02-26 14:08:35.555,155.0,-1623.0,111.0,-259.0,7.0,177.0,151,58,69,80,67
2025-02-26 14:08:35.555,272.0,-1629.0,273.0,-242.0,2.0,186.0,146,58,71,73,67
2025-02-26 14:08:35.561,218.0,-1572.0,184.0,-240.0,23.0,209.0,150,58,70,81,67
2025-02-26 14:08:35.568,374.0,-1323.0,321.0,-218.0,26.0,231.0,156,57,72,82,68
2025-02-26 14:08:35.576,306.0,-1351.0,367.0,-199.0,19.0,230.0,149,56,72,79,66
2025-02-26 14:08:35.580,240.0,-1025.0,365.0,-202.0,3.0,246.0,157,57,71,74,68
2025-02-26 14:08:35.584,219.0,-821.0,360.0,-210.0,0.0,256.0,151,60,73,83,68
2025-02-26 14:08:35.588,207.0,-648.0,348.0,-213.0,1.0,264.0,153,55,73,83,68
2025-02-26 14:08:35.596,178.0,-568.0,378.0,-217.0,-3.0,267.0,154,61,75,84,71
2025-02-26 14:08:35.600,91.0,-381.0,339.0,-227.0,7.0,272.0,149,59,75,78,69
2025-02-26 14:08:35.604,90.0,-288.0,377.0,-232.0,16.0,273.0,153,60,78,83,71
2025-02-26 14:08:35.608,68.0,-129.0,333.0,-249.0,33.0,274.0,157,60,80,84,73
2025-02-26 14:08:35.613,1.0,-99.0,375.0,-259.0,34.0,268.0,154,60,82,85,72
2025-02-26 14:08:35.621,-41.0,-71.0,394.0,-264.0,29.0,259.0,154,59,80,82,71
2025-02-26 14:08:35.625,-114.0,-76.0,339.0,-260.0,30.0,252.0,155,62,77,84,72
2025-02-26 14:08:35.629,-184.0,21.0,339.0,-258.0,35.0,238.0,149,61,81,83,71
2025-02-26 14:08:35.634,-228.0,46.0,281.0,-253.0,34.0,224.0,154,60,79,83,71
2025-02-26 14:08:35.638,-301.0,10.0,295.0,-247.0,25.0,216.0,154,60,80,83,72
2025-02-26 14:08:35.645,-292.0,10.0,191.0,-244.0,22.0,200.0,153,63,79,85,72
2025-02-26 14:08:35.646,-343.0,-7.0,185.0,-242.0,28.0,187.0,154,62,78,76,73
2025-02-26 14:08:35.654,-377.0,85.0,166.0,-222.0,42.0,180.0,152,61,80,83,73
2025-02-26 14:08:35.658,-378.0,311.0,311.0,-179.0,38.0,154.0,154,66,83,87,76
2025-02-26 14:08:35.666,-476.0,-124.0,62.0,-184.0,53.0,152.0,152,63,81,84,75
2025-02-26 14:08:35.671,-542.0,-113.0,-124.0,-166.0,48.0,145.0,154,62,80,87,76
2025-02-26 14:08:35.671,-663.0,-33.0,-312.0,-155.0,52.0,129.0,151,64,80,88,77
2025-02-26 14:08:35.679,-690.0,40.0,-206.0,-129.0,45.0,118.0,154,63,82,89,77
2025-02-26 14:08:35.683,-772.0,65.0,-517.0,-110.0,37.0,114.0,152,63,79,91,78
2025-02-26 14:08:35.691,-852.0,-98.0,-428.0,-81.0,16.0,111.0,151,63,78,90,80
2025-02-26 14:08:35.695,-831.0,14.0,-362.0,-64.0,8.0,103.0,151,66,80,93,82
2025-02-26 14:08:35.699,-890.0,-30.0,-422.0,-52.0,5.0,97.0,149,64,78,92,82
2025-02-26 14:08:35.703,-875.0,76.0,-376.0,-46.0,-1.0,95.0,148,66,77,93,83
2025-02-26 14:08:35.710,-880.0,-54.0,-328.0,-9.0,15.0,93.0,150,66,80,96,87
2025-02-26 14:08:35.713,-771.0,90.0,-278.0,5.0,19.0,87.0,151,68,80,98,89
2025-02-26 14:08:35.720,-701.0,145.0,-278.0,18.0,20.0,82.0,159,68,79,104,91
2025-02-26 14:08:35.724,-641.0,129.0,-326.0,32.0,11.0,74.0,151,70,81,101,94
2025-02-26 14:08:35.727,-649.0,110.0,-185.0,33.0,11.0,68.0,152,81,82,103,95
2025-02-26 14:08:35.735,-634.0,34.0,-153.0,39.0,8.0,66.0,150,74,83,102,98
2025-02-26 14:08:35.739,-622.0,122.0,-271.0,37.0,2.0,58.0,151,77,84,105,101
2025-02-26 14:08:35.743,-652.0,58.0,-160.0,40.0,5.0,53.0,150,79,84,104,102
2025-02-26 14:08:35.748,-691.0,97.0,-188.0,40.0,6.0,48.0,157,81,88,109,103
2025-02-26 14:08:35.752,-693.0,144.0,-179.0,53.0,4.0,41.0,150,82,89,107,106
2025-02-26 14:08:35.760,-770.0,208.0,-205.0,62.0,-1.0,27.0,152,84,89,104,108
2025-02-26 14:08:35.764,-817.0,255.0,-249.0,70.0,-5.0,12.0,148,87,90,105,106
2025-02-26 14:08:35.768,-854.0,275.0,-276.0,90.0,-17.0,-1.0,152,91,94,107,110
2025-02-26 14:08:35.772,-896.0,351.0,-346.0,98.0,-32.0,-19.0,151,94,95,106,110
2025-02-26 14:08:35.781,-906.0,463.0,-419.0,106.0,-44.0,-46.0,150,95,98,105,111
2025-02-26 14:08:35.785,-910.0,520.0,-315.0,110.0,-65.0,-59.0,149,98,100,106,110
2025-02-26 14:08:35.788,-885.0,629.0,-217.0,122.0,-80.0,-84.0,150,103,106,108,113
2025-02-26 14:08:35.797,-1007.0,720.0,-266.0,147.0,-107.0,-112.0,149,103,107,108,112
2025-02-26 14:08:35.801,-1055.0,930.0,-195.0,164.0,-129.0,-144.0,151,106,108,109,112
2025-02-26 14:08:35.806,-947.0,856.0,-43.0,180.0,-129.0,-178.0,150,106,112,112,114
2025-02-26 14:08:35.813,-814.0,980.0,-220.0,198.0,-138.0,-215.0,150,107,111,111,114
2025-02-26 14:08:35.816,-773.0,931.0,-95.0,228.0,-131.0,-251.0,151,108,113,111,114
2025-02-26 14:08:35.825,-718.0,978.0,-276.0,266.0,-128.0,-293.0,149,108,116,115,115
2025-02-26 14:08:35.830,-693.0,856.0,-187.0,294.0,-123.0,-311.0,149,112,114,114,114
2025-02-26 14:08:35.835,-600.0,520.0,106.0,334.0,-68.0,-318.0,150,112,119,115,115
2025-02-26 14:08:35.842,-549.0,416.0,-12.0,342.0,-27.0,-343.0,150,113,119,116,116
2025-02-26 14:08:35.846,-464.0,169.0,-85.0,362.0,-20.0,-366.0,152,116,121,118,116
2025-02-26 14:08:35.850,-435.0,232.0,-106.0,393.0,-34.0,-388.0,150,116,118,116,121
2025-02-26 14:08:35.858,-410.0,395.0,-246.0,400.0,-68.0,-405.0,151,116,120,116,116
2025-02-26 14:08:35.862,-284.0,194.0,-518.0,410.0,-120.0,-410.0,150,117,121,117,117
2025-02-26 14:08:35.868,-150.0,11.0,-219.0,383.0,-139.0,-414.0,151,117,122,117,117
2025-02-26 14:08:35.875,35.0,-104.0,-34.0,356.0,-172.0,-415.0,150,115,120,119,117
2025-02-26 14:08:35.879,448.0,-203.0,380.0,334.0,-202.0,-416.0,149,116,120,117,116
2025-02-26 14:08:35.884,846.0,-247.0,328.0,282.0,-248.0,-430.0,150,119,123,119,118
2025-02-26 14:08:35.891,1153.0,-836.0,627.0,278.0,-259.0,-435.0,153,119,121,120,115
2025-02-26 14:08:35.896,1375.0,-1535.0,628.0,239.0,-268.0,-421.0,152,119,117,120,118
2025-02-26 14:08:35.903,1632.0,-2250.0,946.0,204.0,-249.0,-383.0,151,121,122,120,118
2025-02-26 14:08:35.908,1897.0,-2849.0,1242.0,187.0,-194.0,-321.0,153,121,123,120,118
2025-02-26 14:08:35.916,2111.0,-3364.0,1407.0,162.0,-129.0,-247.0,153,122,124,120,118
2025-02-26 14:08:35.919,2278.0,-3616.0,1327.0,133.0,-144.0,-227.0,149,125,123,122,118
2025-02-26 14:08:35.925,2342.0,-4184.0,2231.0,-48.0,-139.0,-227.0,153,126,122,119,120
2025-02-26 14:08:35.933,2158.0,-4296.0,4246.0,-156.0,-202.0,-194.0,151,125,122,121,120
2025-02-26 14:08:35.937,1457.0,-4090.0,6013.0,36.0,-14.0,-74.0,151,123,123,120,120
2025-02-26 14:08:35.944,1267.0,-2965.0,-65.0,-21.0,-23.0,11.0,152,123,121,121,122
2025-02-26 14:08:35.949,1062.0,-1804.0,432.0,-185.0,14.0,138.0,153,124,123,119,121
2025-02-26 14:08:35.950,1094.0,-2143.0,1665.0,-132.0,83.0,216.0,150,124,122,120,121
2025-02-26 14:08:35.961,1165.0,-2592.0,1416.0,-186.0,102.0,237.0,151,124,121,118,121
2025-02-26 14:08:35.962,805.0,-2506.0,1064.0,-200.0,84.0,257.0,153,124,121,119,122
2025-02-26 14:08:35.969,637.0,-2198.0,655.0,-219.0,38.0,244.0,152,124,123,121,122
2025-02-26 14:08:35.974,568.0,-1905.0,626.0,-229.0,-4.0,220.0,152,124,123,120,122
2025-02-26 14:08:35.981,531.0,-1755.0,463.0,-221.0,-17.0,205.0,150,123,123,121,123
2025-02-26 14:08:35.986,329.0,-1729.0,370.0,-218.0,-1.0,208.0,151,125,123,121,122
2025-02-26 14:08:35.994,186.0,-1693.0,253.0,-183.0,13.0,210.0,151,124,123,119,122
2025-02-26 14:08:35.998,140.0,-1713.0,200.0,-146.0,44.0,214.0,149,124,117,121,120
2025-02-26 14:08:36.002,110.0,-1657.0,135.0,-137.0,64.0,213.0,152,125,118,119,121
2025-02-26 14:08:36.010,199.0,-1605.0,237.0,-136.0,67.0,212.0,149,125,118,122,122
2025-02-26 14:08:36.015,239.0,-1335.0,272.0,-119.0,61.0,202.0,149,124,123,122,122
2025-02-26 14:08:36.018,134.0,-1281.0,582.0,-102.0,74.0,192.0,151,124,122,120,122
2025-02-26 14:08:36.023,55.0,-1107.0,690.0,-94.0,88.0,182.0,150,125,122,123,123
2025-02-26 14:08:36.031,125.0,-895.0,604.0,-64.0,94.0,179.0,150,124,125,121,121
2025-02-26 14:08:36.035,149.0,-896.0,509.0,-62.0,115.0,180.0,148,124,123,121,120
2025-02-26 14:08:36.042,52.0,-784.0,250.0,-64.0,125.0,179.0,149,125,120,122,122
2025-02-26 14:08:36.047,9.0,-667.0,165.0,-74.0,117.0,182.0,152,127,125,123,123
2025-02-26 14:08:36.051,-56.0,-513.0,114.0,-79.0,105.0,181.0,150,127,125,124,124
2025-02-26 14:08:36.059,-53.0,-447.0,-159.0,-109.0,91.0,177.0,150,127,124,123,122
2025-02-26 14:08:36.063,-124.0,-482.0,-100.0,-126.0,64.0,185.0,150,128,125,125,124
2025-02-26 14:08:36.068,-195.0,-519.0,-36.0,-133.0,76.0,188.0,149,127,120,123,124
2025-02-26 14:08:36.076,-158.0,-427.0,-26.0,-138.0,85.0,190.0,152,128,125,123,124
2025-02-26 14:08:36.077,-169.0,-463.0,-19.0,-141.0,89.0,189.0,150,127,124,123,124
2025-02-26 14:08:36.084,-218.0,-495.0,-45.0,-146.0,82.0,182.0,153,129,126,126,125
2025-02-26 14:08:36.090,-209.0,-514.0,-18.0,-157.0,69.0,173.0,152,129,126,125,123
2025-02-26 14:08:36.096,-234.0,-511.0,-21.0,-166.0,59.0,164.0,149,127,124,126,124
2025-02-26 14:08:36.100,-289.0,-501.0,36.0,-174.0,38.0,155.0,149,127,124,124,124
2025-02-26 14:08:36.108,-292.0,-449.0,37.0,-159.0,28.0,153.0,151,128,125,128,124
2025-02-26 14:08:36.113,-343.0,-378.0,18.0,-139.0,26.0,150.0,149,129,125,124,123
2025-02-26 14:08:36.117,-419.0,-359.0,-52.0,-125.0,26.0,146.0,151,128,125,131,123
2025-02-26 14:08:36.125,-475.0,-181.0,-255.0,-128.0,23.0,143.0,150,128,125,124,123
2025-02-26 14:08:36.129,-521.0,-143.0,-59.0,-105.0,26.0,138.0,149,122,124,125,123
2025-02-26 14:08:36.134,-571.0,-122.0,-127.0,-90.0,25.0,133.0,149,127,124,125,123
2025-02-26 14:08:36.141,-603.0,-67.0,-206.0,-89.0,20.0,128.0,149,126,122,124,123
2025-02-26 14:08:36.146,-612.0,-189.0,-230.0,-82.0,16.0,119.0,150,128,125,125,124
2025-02-26 14:08:36.151,-660.0,-30.0,-194.0,-65.0,4.0,108.0,149,127,124,124,125
2025-02-26 14:08:36.157,-674.0,9.0,-191.0,-58.0,0.0,97.0,149,130,126,125,123
2025-02-26 14:08:36.161,-676.0,60.0,-191.0,-43.0,-3.0,85.0,148,126,122,123,123
2025-02-26 14:08:36.166,-738.0,72.0,-243.0,-28.0,-12.0,78.0,149,125,124,123,123
2025-02-26 14:08:36.170,-752.0,150.0,-211.0,-9.0,-24.0,61.0,149,128,123,124,124
2025-02-26 14:08:36.178,-761.0,242.0,-147.0,15.0,-32.0,44.0,149,127,124,124,124
2025-02-26 14:08:36.193,-778.0,326.0,-44.0,31.0,-38.0,26.0,150,127,125,124,123
2025-02-26 14:08:36.195,-799.0,401.0,-8.0,66.0,-41.0,5.0,150,125,123,124,123
2025-02-26 14:08:36.198,-830.0,456.0,14.0,96.0,-47.0,-7.0,149,125,125,124,124
2025-02-26 14:08:36.200,-875.0,524.0,-13.0,123.0,-55.0,-33.0,150,126,130,123,124
2025-02-26 14:08:36.203,-946.0,620.0,33.0,136.0,-61.0,-56.0,149,127,124,124,123
2025-02-26 14:08:36.207,-965.0,714.0,35.0,162.0,-62.0,-77.0,150,125,125,124,121
2025-02-26 14:08:36.215,-1064.0,799.0,49.0,193.0,-62.0,-87.0,149,126,124,124,124
2025-02-26 14:08:36.219,-1161.0,851.0,46.0,222.0,-58.0,-104.0,148,127,124,126,124
2025-02-26 14:08:36.224,-1229.0,999.0,-76.0,232.0,-63.0,-127.0,150,128,124,127,125
2025-02-26 14:08:36.231,-1195.0,1064.0,5.0,244.0,-59.0,-148.0,149,128,121,124,124
2025-02-26 14:08:36.236,-1229.0,1106.0,19.0,251.0,-53.0,-173.0,149,127,123,125,124
2025-02-26 14:08:36.240,-1177.0,1125.0,19.0,264.0,-50.0,-207.0,150,127,123,123,122
2025-02-26 14:08:36.248,-1132.0,1088.0,19.0,276.0,-49.0,-244.0,150,127,125,123,124
2025-02-26 14:08:36.252,-1024.0,1029.0,32.0,288.0,-47.0,-285.0,149,125,122,124,123
2025-02-26 14:08:36.257,-915.0,982.0,0.0,290.0,-54.0,-307.0,147,127,122,118,122
2025-02-26 14:08:36.264,-800.0,875.0,17.0,284.0,-62.0,-349.0,149,128,125,124,125
2025-02-26 14:08:36.268,-645.0,770.0,35.0,284.0,-75.0,-390.0,146,125,125,124,124
2025-02-26 14:08:36.273,-430.0,621.0,157.0,278.0,-91.0,-425.0,150,127,124,124,122
2025-02-26 14:08:36.279,-162.0,469.0,266.0,270.0,-101.0,-459.0,149,125,124,125,123
2025-02-26 14:08:36.285,-15.0,309.0,330.0,252.0,-127.0,-491.0,150,125,124,123,123
2025-02-26 14:08:36.289,365.0,59.0,425.0,218.0,-144.0,-507.0,151,129,126,124,122
2025-02-26 14:08:36.297,820.0,-119.0,431.0,197.0,-158.0,-526.0,150,126,119,124,123
2025-02-26 14:08:36.300,1318.0,-588.0,380.0,180.0,-172.0,-527.0,150,125,123,124,121
2025-02-26 14:08:36.308,1665.0,-1179.0,369.0,154.0,-181.0,-513.0,151,125,123,125,123
2025-02-26 14:08:36.313,1941.0,-1966.0,486.0,121.0,-177.0,-474.0,150,124,124,125,122
2025-02-26 14:08:36.318,2212.0,-2730.0,735.0,100.0,-165.0,-411.0,152,125,123,121,122
2025-02-26 14:08:36.325,2399.0,-3319.0,1074.0,41.0,-150.0,-323.0,151,123,125,125,122
2025-02-26 14:08:36.330,2582.0,-3823.0,1231.0,-21.0,-162.0,-260.0,152,125,124,125,121
2025-02-26 14:08:36.337,2873.0,-4507.0,2975.0,-89.0,12.0,-157.0,151,124,125,124,121
2025-02-26 14:08:36.342,2709.0,-4558.0,4171.0,-86.0,96.0,-72.0,154,124,123,122,120
2025-02-26 14:08:36.346,2631.0,-4342.0,1919.0,-31.0,45.0,-9.0,150,124,124,126,120
2025-02-26 14:08:36.354,2207.0,-3939.0,1333.0,-3.0,-37.0,23.0,153,121,125,122,120
2025-02-26 14:08:36.359,1672.0,-3588.0,1035.0,-66.0,42.0,99.0,156,122,124,132,120
2025-02-26 14:08:36.363,1542.0,-2864.0,728.0,-130.0,110.0,182.0,153,121,125,123,120
2025-02-26 14:08:36.371,1216.0,-2507.0,551.0,-154.0,109.0,222.0,152,120,123,123,117
2025-02-26 14:08:36.375,1102.0,-2367.0,567.0,-178.0,60.0,228.0,153,119,124,123,119
2025-02-26 14:08:36.379,953.0,-2146.0,586.0,-177.0,-1.0,216.0,150,119,125,122,118
2025-02-26 14:08:36.387,792.0,-1980.0,724.0,-164.0,-9.0,218.0,152,123,126,125,117
2025-02-26 14:08:36.392,704.0,-1656.0,845.0,-136.0,3.0,207.0,150,117,124,122,116
2025-02-26 14:08:36.396,566.0,-1587.0,558.0,-92.0,30.0,204.0,149,118,122,121,116
2025-02-26 14:08:36.403,458.0,-1488.0,219.0,-51.0,39.0,192.0,152,119,125,123,115
2025-02-26 14:08:36.407,215.0,-1540.0,278.0,-38.0,57.0,180.0,152,119,123,122,116
2025-02-26 14:08:36.412,87.0,-1659.0,21.0,-36.0,55.0,172.0,149,117,122,123,116
2025-02-26 14:08:36.420,105.0,-1568.0,6.0,-69.0,54.0,165.0,149,117,121,122,114
2025-02-26 14:08:36.424,189.0,-1527.0,151.0,-110.0,50.0,162.0,151,118,122,121,112
2025-02-26 14:08:36.429,213.0,-1336.0,465.0,-119.0,55.0,155.0,152,117,121,123,114
2025-02-26 14:08:36.434,190.0,-1295.0,395.0,-117.0,58.0,161.0,151,117,119,124,114
2025-02-26 14:08:36.441,172.0,-1228.0,443.0,-129.0,69.0,173.0,149,117,120,124,115
2025-02-26 14:08:36.445,186.0,-1097.0,462.0,-134.0,85.0,192.0,152,119,122,122,114
2025-02-26 14:08:36.452,149.0,-1005.0,192.0,-145.0,80.0,206.0,149,117,119,122,115
2025-02-26 14:08:36.453,160.0,-886.0,61.0,-187.0,61.0,215.0,150,116,119,122,114
2025-02-26 14:08:36.461,150.0,-832.0,-64.0,-203.0,22.0,222.0,151,115,118,121,114
2025-02-26 14:08:36.469,46.0,-794.0,-22.0,-232.0,4.0,231.0,152,116,119,122,115
2025-02-26 14:08:36.472,109.0,-676.0,170.0,-236.0,15.0,239.0,149,116,119,124,117
2025-02-26 14:08:36.477,91.0,-615.0,181.0,-242.0,21.0,244.0,155,116,119,126,116
2025-02-26 14:08:36.482,46.0,-617.0,178.0,-246.0,23.0,243.0,150,115,119,122,115
2025-02-26 14:08:36.490,-42.0,-588.0,215.0,-244.0,26.0,240.0,149,114,118,121,115
2025-02-26 14:08:36.494,-54.0,-520.0,254.0,-242.0,21.0,229.0,149,114,119,121,116
2025-02-26 14:08:36.498,-43.0,-525.0,231.0,-261.0,-11.0,210.0,152,113,117,123,116
2025-02-26 14:08:36.506,-13.0,-465.0,294.0,-265.0,-28.0,194.0,150,114,119,123,117
2025-02-26 14:08:36.509,-139.0,-299.0,311.0,-244.0,-24.0,183.0,150,112,117,122,116
2025-02-26 14:08:36.515,-182.0,-232.0,299.0,-209.0,-9.0,179.0,151,110,117,123,116
2025-02-26 14:08:36.520,-273.0,-213.0,146.0,-193.0,31.0,178.0,151,109,118,121,116
2025-02-26 14:08:36.527,-296.0,-159.0,102.0,-150.0,24.0,176.0,152,110,117,123,116
2025-02-26 14:08:36.534,-294.0,-266.0,210.0,-103.0,12.0,169.0,151,110,116,121,115
2025-02-26 14:08:36.538,-346.0,-286.0,237.0,-67.0,12.0,167.0,153,111,115,123,115
2025-02-26 14:08:36.543,-403.0,-201.0,33.0,-58.0,20.0,166.0,150,109,114,120,111
2025-02-26 14:08:36.547,-405.0,-177.0,-47.0,-44.0,21.0,161.0,151,108,115,118,115
2025-02-26 14:08:36.555,-458.0,-159.0,-23.0,-36.0,23.0,155.0,152,107,113,116,115
2025-02-26 14:08:36.557,-487.0,-199.0,-46.0,-30.0,25.0,152.0,151,109,111,117,114
2025-02-26 14:08:36.563,-498.0,-200.0,-75.0,-32.0,27.0,145.0,153,109,114,117,116
2025-02-26 14:08:36.571,-507.0,-204.0,-149.0,-39.0,25.0,136.0,152,108,112,117,113
2025-02-26 14:08:36.576,-528.0,-140.0,-142.0,-38.0,20.0,123.0,151,107,110,115,110
2025-02-26 14:08:36.580,-571.0,-151.0,-75.0,-24.0,18.0,111.0,153,105,108,116,111
2025-02-26 14:08:36.588,-577.0,-123.0,-96.0,-9.0,12.0,100.0,150,104,107,116,112
2025-02-26 14:08:36.592,-595.0,-106.0,-147.0,6.0,3.0,94.0,150,102,107,114,110
2025-02-26 14:08:36.593,-661.0,-73.0,-122.0,20.0,-5.0,85.0,152,99,105,113,109
2025-02-26 14:08:36.600,-744.0,-1.0,-133.0,29.0,-14.0,74.0,152,99,103,113,109
2025-02-26 14:08:36.608,-748.0,52.0,-70.0,42.0,-18.0,67.0,152,96,100,109,108
2025-02-26 14:08:36.613,-832.0,113.0,-62.0,55.0,-23.0,63.0,151,93,102,110,106
2025-02-26 14:08:36.617,-917.0,220.0,-24.0,68.0,-29.0,54.0,156,91,99,108,106
2025-02-26 14:08:36.621,-1034.0,340.0,4.0,76.0,-31.0,42.0,150,89,96,106,105
2025-02-26 14:08:36.629,-1066.0,404.0,-83.0,88.0,-37.0,30.0,150,91,94,103,101
2025-02-26 14:08:36.633,-1183.0,721.0,-160.0,100.0,-52.0,3.0,151,84,94,104,104
2025-02-26 14:08:36.636,-1322.0,897.0,-67.0,109.0,-64.0,-19.0,152,87,90,100,100
2025-02-26 14:08:36.645,-1361.0,1201.0,63.0,118.0,-65.0,-49.0,151,78,88,100,101
2025-02-26 14:08:36.648,-1488.0,1251.0,108.0,149.0,-61.0,-66.0,151,73,86,97,99
2025-02-26 14:08:36.654,-1412.0,1241.0,115.0,171.0,-53.0,-102.0,152,74,82,96,96
2025-02-26 14:08:36.657,-1249.0,1295.0,181.0,170.0,-33.0,-146.0,152,73,82,95,93
2025-02-26 14:08:36.666,-1105.0,1382.0,-25.0,174.0,-36.0,-194.0,154,71,80,95,92
2025-02-26 14:08:36.670,-1042.0,1308.0,60.0,198.0,-34.0,-232.0,153,67,78,93,89
2025-02-26 14:08:36.674,-939.0,1338.0,161.0,216.0,-21.0,-246.0,154,65,76,90,86
2025-02-26 14:08:36.678,-865.0,979.0,160.0,234.0,-3.0,-272.0,152,60,77,91,85
2025-02-26 14:08:36.685,-843.0,858.0,132.0,243.0,24.0,-305.0,153,59,76,88,80
2025-02-26 14:08:36.690,-777.0,739.0,159.0,271.0,35.0,-330.0,152,56,71,86,76
2025-02-26 14:08:36.695,-644.0,609.0,306.0,267.0,69.0,-343.0,150,54,71,83,73
2025-02-26 14:08:36.696,-544.0,480.0,116.0,282.0,81.0,-367.0,154,52,68,80,70
2025-02-26 14:08:36.706,-513.0,308.0,125.0,298.0,94.0,-393.0,153,51,68,78,67
2025-02-26 14:08:36.710,-361.0,257.0,220.0,306.0,112.0,-407.0,152,48,67,77,66
2025-02-26 14:08:36.715,-183.0,189.0,40.0,290.0,100.0,-427.0,154,50,69,76,64
2025-02-26 14:08:36.719,25.0,161.0,36.0,288.0,64.0,-448.0,153,50,70,74,63
2025-02-26 14:08:36.726,75.0,234.0,-81.0,302.0,36.0,-456.0,152,50,69,74,62
2025-02-26 14:08:36.730,358.0,54.0,-544.0,229.0,-36.0,-450.0,151,51,71,75,61
2025-02-26 14:08:36.735,1057.0,-298.0,-459.0,203.0,-67.0,-431.0,150,50,71,75,58
2025-02-26 14:08:36.739,1057.0,-833.0,-510.0,192.0,-79.0,-424.0,155,49,70,74,58
2025-02-26 14:08:36.744,1102.0,-1738.0,-277.0,193.0,-146.0,-420.0,153,50,68,72,59
2025-02-26 14:08:36.751,1076.0,-2448.0,912.0,164.0,-173.0,-388.0,153,49,69,72,61
2025-02-26 14:08:36.756,1855.0,-2895.0,1174.0,165.0,-178.0,-348.0,152,52,66,73,60
2025-02-26 14:08:36.764,2489.0,-3468.0,1653.0,209.0,-150.0,-267.0,154,50,72,75,60
2025-02-26 14:08:36.768,3070.0,-4332.0,2236.0,230.0,-70.0,-176.0,152,50,74,71,61
2025-02-26 14:08:36.773,3112.0,-4765.0,2781.0,247.0,-21.0,-77.0,150,49,72,71,59
2025-02-26 14:08:36.780,2990.0,-4688.0,2938.0,266.0,59.0,0.0,150,49,72,72,60
2025-02-26 14:08:36.784,2757.0,-4747.0,2777.0,270.0,101.0,34.0,152,51,75,70,59
2025-02-26 14:08:36.787,2054.0,-4126.0,2251.0,242.0,143.0,81.0,153,51,73,69,58
2025-02-26 14:08:36.793,1507.0,-3083.0,1769.0,194.0,170.0,119.0,152,50,73,63,55
2025-02-26 14:08:36.800,1233.0,-2126.0,1254.0,76.0,177.0,135.0,151,51,72,63,55
2025-02-26 14:08:36.805,864.0,-1808.0,769.0,-28.0,134.0,139.0,152,52,73,67,59
2025-02-26 14:08:36.809,420.0,-1515.0,602.0,-122.0,66.0,142.0,150,51,72,67,57
2025-02-26 14:08:36.813,193.0,-1201.0,504.0,-164.0,11.0,137.0,151,52,75,66,58
2025-02-26 14:08:36.821,184.0,-1088.0,526.0,-224.0,-16.0,117.0,151,51,73,67,56
2025-02-26 14:08:36.825,210.0,-1253.0,415.0,-249.0,-53.0,109.0,152,52,73,71,59
2025-02-26 14:08:36.830,179.0,-1583.0,369.0,-249.0,-61.0,99.0,152,51,74,69,57
2025-02-26 14:08:36.837,163.0,-1914.0,434.0,-245.0,-45.0,106.0,150,52,71,73,59
2025-02-26 14:08:36.841,194.0,-2057.0,555.0,-226.0,-41.0,119.0,152,52,70,74,59
2025-02-26 14:08:36.846,246.0,-2084.0,644.0,-202.0,-35.0,129.0,153,52,71,75,60
2025-02-26 14:08:36.850,275.0,-2075.0,711.0,-174.0,-31.0,147.0,151,53,66,76,60
2025-02-26 14:08:36.860,321.0,-1913.0,724.0,-166.0,-17.0,168.0,156,54,67,85,61
2025-02-26 14:08:36.864,342.0,-1827.0,731.0,-134.0,-15.0,179.0,152,52,66,77,61
2025-02-26 14:08:36.866,351.0,-1574.0,794.0,-126.0,-10.0,187.0,151,56,68,76,60
2025-02-26 14:08:36.871,292.0,-1474.0,732.0,-117.0,-1.0,192.0,152,55,68,79,61
2025-02-26 14:08:36.878,268.0,-1236.0,668.0,-116.0,19.0,196.0,152,54,66,78,61
2025-02-26 14:08:36.883,195.0,-1076.0,625.0,-116.0,20.0,199.0,152,54,69,76,61
2025-02-26 14:08:36.884,52.0,-954.0,575.0,-124.0,19.0,200.0,154,54,70,78,62
2025-02-26 14:08:36.891,-7.0,-804.0,575.0,-140.0,35.0,201.0,153,55,72,78,63
2025-02-26 14:08:36.896,-101.0,-647.0,501.0,-151.0,37.0,198.0,154,54,68,79,62
2025-02-26 14:08:36.903,-89.0,-507.0,472.0,-170.0,31.0,195.0,152,54,71,78,62
2025-02-26 14:08:36.908,-100.0,-376.0,453.0,-191.0,24.0,187.0,153,57,70,78,64
2025-02-26 14:08:36.912,-240.0,-370.0,372.0,-188.0,19.0,179.0,152,54,70,80,63
2025-02-26 14:08:36.919,-266.0,-319.0,320.0,-191.0,18.0,169.0,152,53,69,75,62
2025-02-26 14:08:36.920,-311.0,-272.0,304.0,-188.0,14.0,165.0,152,53,73,78,63
2025-02-26 14:08:36.925,-344.0,-300.0,286.0,-176.0,7.0,154.0,152,55,72,76,62
2025-02-26 14:08:36.932,-319.0,-281.0,308.0,-170.0,-9.0,143.0,150,54,73,77,62
2025-02-26 14:08:36.940,-283.0,-276.0,301.0,-163.0,-15.0,132.0,150,54,71,76,61
2025-02-26 14:08:36.946,-290.0,-269.0,286.0,-152.0,-11.0,129.0,151,54,72,79,62
2025-02-26 14:08:36.950,-287.0,-300.0,287.0,-149.0,3.0,123.0,153,55,71,77,65
2025-02-26 14:08:36.956,-331.0,-311.0,243.0,-143.0,17.0,118.0,152,55,71,76,63
2025-02-26 14:08:36.961,-376.0,-362.0,212.0,-133.0,23.0,117.0,152,54,70,77,62
2025-02-26 14:08:36.964,-393.0,-377.0,184.0,-131.0,31.0,117.0,151,55,74,77,64
2025-02-26 14:08:36.969,-422.0,-392.0,146.0,-121.0,33.0,118.0,152,55,71,78,64
2025-02-26 14:08:36.974,-469.0,-383.0,98.0,-114.0,30.0,117.0,150,55,73,77,63
2025-02-26 14:08:36.981,-488.0,-328.0,37.0,-99.0,35.0,117.0,151,54,71,76,63
2025-02-26 14:08:36.985,-510.0,-329.0,-14.0,-87.0,44.0,117.0,152,55,72,79,64
2025-02-26 14:08:36.989,-552.0,-292.0,-34.0,-83.0,45.0,117.0,152,55,71,76,63
2025-02-26 14:08:36.993,-579.0,-230.0,-62.0,-75.0,42.0,114.0,150,54,71,77,63
2025-02-26 14:08:36.999,-596.0,-176.0,-97.0,-68.0,37.0,113.0,152,54,71,77,64
2025-02-26 14:08:37.006,-658.0,-125.0,-129.0,-60.0,31.0,106.0,151,55,71,77,65
2025-02-26 14:08:37.010,-694.0,-14.0,-117.0,-55.0,28.0,98.0,151,56,72,77,64
2025-02-26 14:08:37.013,-702.0,75.0,-104.0,-45.0,27.0,91.0,151,54,72,76,63
2025-02-26 14:08:37.018,-673.0,108.0,-83.0,-37.0,24.0,77.0,153,56,73,79,65
2025-02-26 14:08:37.026,-683.0,201.0,-68.0,-31.0,20.0,60.0,153,57,72,77,64
2025-02-26 14:08:37.030,-704.0,250.0,-70.0,-18.0,20.0,53.0,153,55,72,78,64
2025-02-26 14:08:37.034,-749.0,280.0,-59.0,-9.0,21.0,40.0,153,55,72,77,64
2025-02-26 14:08:37.038,-793.0,326.0,-62.0,-2.0,19.0,28.0,151,54,72,79,66
2025-02-26 14:08:37.042,-811.0,356.0,-46.0,15.0,18.0,23.0,155,56,71,78,63
2025-02-26 14:08:37.047,-846.0,369.0,-48.0,37.0,18.0,10.0,153,56,74,77,65
2025-02-26 14:08:37.054,-857.0,410.0,-35.0,48.0,21.0,-4.0,151,55,73,77,65
2025-02-26 14:08:37.058,-873.0,461.0,-50.0,71.0,21.0,-11.0,151,55,74,77,63
2025-02-26 14:08:37.063,-967.0,492.0,-47.0,86.0,25.0,-24.0,151,58,74,77,65
2025-02-26 14:08:37.067,-1035.0,561.0,-50.0,94.0,26.0,-38.0,154,55,73,76,65
2025-02-26 14:08:37.071,-1076.0,646.0,-97.0,112.0,27.0,-56.0,153,54,73,77,63
2025-02-26 14:08:37.079,-1183.0,681.0,-114.0,132.0,27.0,-65.0,154,55,74,78,65
2025-02-26 14:08:37.084,-1306.0,810.0,-115.0,143.0,26.0,-86.0,152,55,74,77,64
2025-02-26 14:08:37.088,-1327.0,923.0,-121.0,165.0,25.0,-115.0,151,56,73,78,64
2025-02-26 14:08:37.096,-1296.0,987.0,-78.0,190.0,19.0,-133.0,150,56,74,76,65
2025-02-26 14:08:37.100,-1226.0,1053.0,-74.0,200.0,17.0,-172.0,153,56,71,77,64
2025-02-26 14:08:37.104,-1225.0,1072.0,-146.0,219.0,18.0,-212.0,149,56,72,77,65
2025-02-26 14:08:37.108,-1214.0,1073.0,-185.0,235.0,19.0,-233.0,150,54,71,77,65
2025-02-26 14:08:37.115,-1111.0,1019.0,-244.0,248.0,11.0,-274.0,152,57,73,78,65
2025-02-26 14:08:37.119,-957.0,908.0,-245.0,259.0,0.0,-314.0,152,56,70,75,65
2025-02-26 14:08:37.124,-766.0,742.0,-256.0,262.0,-21.0,-347.0,150,54,72,76,65
2025-02-26 14:08:37.129,-623.0,633.0,-229.0,269.0,-37.0,-378.0,149,54,71,77,64
2025-02-26 14:08:37.136,-369.0,590.0,-139.0,267.0,-75.0,-394.0,151,54,74,77,69
2025-02-26 14:08:37.139,-151.0,470.0,-92.0,247.0,-114.0,-423.0,150,55,72,77,68
2025-02-26 14:08:37.145,179.0,244.0,4.0,232.0,-142.0,-444.0,148,56,73,83,67
2025-02-26 14:08:37.153,372.0,-175.0,86.0,209.0,-155.0,-461.0,151,53,73,77,66
2025-02-26 14:08:37.157,744.0,-421.0,244.0,198.0,-190.0,-466.0,147,50,75,79,66
2025-02-26 14:08:37.162,1136.0,-950.0,379.0,189.0,-216.0,-464.0,153,55,73,77,67
2025-02-26 14:08:37.166,1500.0,-1503.0,622.0,187.0,-221.0,-451.0,152,55,75,80,68
2025-02-26 14:08:37.173,1667.0,-2136.0,995.0,180.0,-217.0,-418.0,152,54,75,77,68
2025-02-26 14:08:37.178,2072.0,-2965.0,1411.0,175.0,-189.0,-393.0,152,54,75,78,68
2025-02-26 14:08:37.182,2440.0,-3407.0,1971.0,177.0,-136.0,-321.0,151,57,78,80,71
2025-02-26 14:08:37.187,2737.0,-4120.0,2225.0,174.0,-66.0,-224.0,152,55,76,78,70
2025-02-26 14:08:37.193,3024.0,-4655.0,2535.0,173.0,3.0,-120.0,151,54,78,75,69
2025-02-26 14:08:37.199,2971.0,-4792.0,2549.0,167.0,63.0,-14.0,153,54,77,74,68
2025-02-26 14:08:37.205,2827.0,-4358.0,2377.0,155.0,99.0,64.0,152,54,78,72,69
2025-02-26 14:08:37.210,2657.0,-3856.0,2214.0,106.0,179.0,97.0,151,55,79,73,69
2025-02-26 14:08:37.215,2127.0,-3339.0,1999.0,25.0,214.0,142.0,152,54,80,70,67
2025-02-26 14:08:37.217,1676.0,-2536.0,1442.0,-18.0,198.0,165.0,152,56,79,69,66
2025-02-26 14:08:37.227,1384.0,-1859.0,887.0,-95.0,176.0,167.0,150,55,81,70,66
2025-02-26 14:08:37.231,943.0,-1607.0,480.0,-168.0,127.0,164.0,150,53,79,70,67
2025-02-26 14:08:37.236,561.0,-1353.0,324.0,-213.0,59.0,159.0,151,55,80,72,67
2025-02-26 14:08:37.239,356.0,-1293.0,193.0,-231.0,-13.0,150.0,150,54,82,73,66
2025-02-26 14:08:37.247,343.0,-1307.0,178.0,-247.0,-44.0,137.0,149,51,80,72,66
2025-02-26 14:08:37.251,368.0,-1346.0,169.0,-263.0,-85.0,132.0,153,56,78,74,67
2025-02-26 14:08:37.253,345.0,-1457.0,114.0,-261.0,-95.0,123.0,150,56,73,74,68
2025-02-26 14:08:37.264,296.0,-1645.0,134.0,-257.0,-87.0,126.0,151,54,73,77,68
2025-02-26 14:08:37.267,269.0,-1630.0,174.0,-258.0,-76.0,135.0,151,54,69,79,68
2025-02-26 14:08:37.272,235.0,-1780.0,239.0,-255.0,-69.0,150.0,150,54,68,79,69
2025-02-26 14:08:37.276,245.0,-1877.0,344.0,-247.0,-61.0,160.0,151,55,69,79,70
2025-02-26 14:08:37.282,222.0,-1751.0,372.0,-224.0,-46.0,185.0,151,58,72,83,72
2025-02-26 14:08:37.288,306.0,-1714.0,392.0,-216.0,-24.0,207.0,151,57,72,82,72
2025-02-26 14:08:37.292,348.0,-1479.0,356.0,-188.0,-16.0,224.0,153,54,75,79,71
2025-02-26 14:08:37.296,279.0,-1417.0,401.0,-170.0,0.0,230.0,151,58,76,83,73
2025-02-26 14:08:37.304,271.0,-1180.0,321.0,-182.0,10.0,238.0,153,60,79,83,76
2025-02-26 14:08:37.308,188.0,-1066.0,543.0,-179.0,34.0,247.0,152,59,77,85,77
2025-02-26 14:08:37.314,184.0,-864.0,477.0,-203.0,41.0,249.0,151,59,74,84,76
2025-02-26 14:08:37.317,146.0,-787.0,537.0,-226.0,42.0,251.0,152,60,75,86,76
2025-02-26 14:08:37.325,-22.0,-676.0,449.0,-259.0,33.0,250.0,154,62,76,87,78
2025-02-26 14:08:37.326,-65.0,-524.0,394.0,-310.0,27.0,246.0,153,60,75,87,77
2025-02-26 14:08:37.334,-62.0,-483.0,477.0,-287.0,30.0,247.0,152,61,77,87,78
2025-02-26 14:08:37.338,-172.0,-456.0,401.0,-263.0,31.0,254.0,153,64,79,87,79
2025-02-26 14:08:37.346,-254.0,-304.0,291.0,-250.0,31.0,250.0,153,63,78,88,81
2025-02-26 14:08:37.350,-336.0,-156.0,378.0,-188.0,31.0,245.0,151,63,80,88,79
2025-02-26 14:08:37.354,-396.0,-143.0,381.0,-134.0,23.0,239.0,154,66,81,89,80
2025-02-26 14:08:37.358,-358.0,-221.0,276.0,-114.0,36.0,228.0,152,64,83,90,82
2025-02-26 14:08:37.366,-375.0,-229.0,168.0,-102.0,53.0,220.0,151,64,83,91,83
2025-02-26 14:08:37.370,-375.0,-156.0,231.0,-75.0,58.0,207.0,152,66,83,88,82
2025-02-26 14:08:37.375,-410.0,-126.0,186.0,-43.0,71.0,202.0,154,65,83,90,84
2025-02-26 14:08:37.379,-397.0,-166.0,103.0,-31.0,84.0,190.0,151,66,84,94,86
2025-02-26 14:08:37.386,-417.0,-192.0,21.0,3.0,92.0,177.0,150,67,88,95,86
2025-02-26 14:08:37.391,-431.0,-190.0,-72.0,24.0,100.0,170.0,151,68,84,92,88
2025-02-26 14:08:37.392,-447.0,-114.0,-93.0,36.0,103.0,158.0,148,68,84,96,87
2025-02-26 14:08:37.399,-503.0,-21.0,-188.0,51.0,103.0,149.0,149,68,86,96,86
2025-02-26 14:08:37.403,-669.0,-43.0,-439.0,68.0,100.0,139.0,148,71,85,96,86
2025-02-26 14:08:37.411,-650.0,10.0,-482.0,77.0,92.0,119.0,150,72,88,98,89
2025-02-26 14:08:37.415,-639.0,-37.0,-443.0,85.0,91.0,106.0,148,74,86,98,89
2025-02-26 14:08:37.416,-694.0,93.0,-516.0,79.0,82.0,99.0,148,76,88,98,89
2025-02-26 14:08:37.424,-758.0,111.0,-525.0,81.0,68.0,93.0,148,78,93,99,93
2025-02-26 14:08:37.428,-834.0,238.0,-624.0,88.0,33.0,79.0,147,80,93,100,89
2025-02-26 14:08:37.435,-867.0,167.0,-689.0,98.0,16.0,71.0,142,81,94,97,90
2025-02-26 14:08:37.439,-730.0,208.0,-673.0,96.0,-9.0,53.0,148,86,94,99,91
2025-02-26 14:08:37.444,-771.0,47.0,-577.0,99.0,-31.0,41.0,142,87,94,103,93
2025-02-26 14:08:37.448,-811.0,112.0,-443.0,73.0,-36.0,21.0,146,91,99,99,91
2025-02-26 14:08:37.454,-825.0,232.0,-466.0,46.0,-52.0,11.0,145,91,102,99,94
2025-02-26 14:08:37.460,-850.0,249.0,-384.0,38.0,-68.0,-5.0,144,97,105,99,91
2025-02-26 14:08:37.465,-884.0,274.0,-259.0,23.0,-76.0,-16.0,145,99,109,89,92
2025-02-26 14:08:37.468,-777.0,270.0,-215.0,24.0,-89.0,-21.0,141,102,110,99,92
2025-02-26 14:08:37.476,-791.0,282.0,-222.0,26.0,-101.0,-36.0,141,103,116,97,92
2025-02-26 14:08:37.480,-827.0,231.0,-230.0,28.0,-105.0,-49.0,142,103,114,103,93
2025-02-26 14:08:37.484,-835.0,319.0,-102.0,43.0,-101.0,-63.0,139,101,115,98,89
2025-02-26 14:08:37.493,-799.0,302.0,-245.0,66.0,-101.0,-68.0,139,105,116,99,92
2025-02-26 14:08:37.496,-842.0,314.0,-288.0,98.0,-108.0,-79.0,137,106,118,100,94
2025-02-26 14:08:37.501,-825.0,350.0,-189.0,108.0,-105.0,-94.0,134,108,121,101,94
2025-02-26 14:08:37.505,-835.0,469.0,-94.0,115.0,-92.0,-117.0,130,108,121,101,95
2025-02-26 14:08:37.514,-841.0,529.0,-151.0,129.0,-86.0,-141.0,130,109,119,100,94
2025-02-26 14:08:37.518,-825.0,594.0,-44.0,144.0,-62.0,-163.0,128,107,120,100,94
2025-02-26 14:08:37.522,-786.0,623.0,-220.0,165.0,-40.0,-175.0,128,109,121,102,94
2025-02-26 14:08:37.530,-778.0,671.0,-326.0,197.0,-32.0,-202.0,129,111,122,102,95
2025-02-26 14:08:37.534,-790.0,608.0,-328.0,215.0,-37.0,-237.0,127,110,122,103,95
2025-02-26 14:08:37.538,-841.0,558.0,-195.0,219.0,-43.0,-275.0,125,111,125,102,97
2025-02-26 14:08:37.546,-725.0,583.0,-262.0,238.0,-52.0,-311.0,124,113,117,101,95
2025-02-26 14:08:37.556,-664.0,505.0,-272.0,261.0,-58.0,-346.0,120,113,125,101,94
2025-02-26 14:08:37.557,-524.0,373.0,-172.0,272.0,-75.0,-378.0,119,111,123,99,93
2025-02-26 14:08:37.563,-410.0,333.0,-131.0,282.0,-96.0,-392.0,118,115,125,102,94
2025-02-26 14:08:37.567,-124.0,319.0,-67.0,290.0,-122.0,-420.0,117,116,124,105,94
2025-02-26 14:08:37.575,-159.0,-112.0,10.0,296.0,-142.0,-432.0,116,116,124,103,93
2025-02-26 14:08:37.579,61.0,-210.0,199.0,296.0,-166.0,-448.0,116,116,125,105,91
2025-02-26 14:08:37.583,386.0,-266.0,319.0,292.0,-196.0,-469.0,116,116,125,106,94
2025-02-26 14:08:37.590,538.0,-488.0,490.0,286.0,-209.0,-486.0,115,117,125,106,92
2025-02-26 14:08:37.595,841.0,-790.0,689.0,274.0,-230.0,-489.0,116,124,125,107,94
2025-02-26 14:08:37.600,1233.0,-871.0,925.0,267.0,-245.0,-488.0,116,121,126,107,93
2025-02-26 14:08:37.607,1596.0,-1255.0,1037.0,235.0,-248.0,-469.0,120,122,124,109,95
2025-02-26 14:08:37.612,2005.0,-1828.0,1428.0,195.0,-238.0,-435.0,116,123,125,107,94
2025-02-26 14:08:37.616,2309.0,-2421.0,1870.0,170.0,-207.0,-374.0,118,124,125,113,94
2025-02-26 14:08:37.623,2466.0,-2822.0,2144.0,152.0,-157.0,-295.0,119,125,127,112,95
2025-02-26 14:08:37.628,2548.0,-3023.0,2280.0,129.0,-105.0,-211.0,120,127,127,112,94
2025-02-26 14:08:37.635,2745.0,-3290.0,2271.0,108.0,-53.0,-126.0,116,127,123,108,94
2025-02-26 14:08:37.641,2689.0,-3417.0,2217.0,72.0,-9.0,-37.0,119,127,124,110,94
2025-02-26 14:08:37.644,2499.0,-3375.0,2101.0,31.0,10.0,53.0,118,126,126,107,91
2025-02-26 14:08:37.652,2018.0,-3111.0,1962.0,-29.0,49.0,94.0,117,126,123,107,91
2025-02-26 14:08:37.657,1748.0,-2920.0,1709.0,-83.0,67.0,158.0,115,127,124,107,89
2025-02-26 14:08:37.660,1454.0,-2391.0,1541.0,-136.0,68.0,196.0,116,130,128,110,88
2025-02-26 14:08:37.669,1160.0,-2000.0,1287.0,-173.0,61.0,218.0,114,128,127,110,89
2025-02-26 14:08:37.673,890.0,-1761.0,1062.0,-189.0,48.0,225.0,114,127,125,109,86
2025-02-26 14:08:37.677,701.0,-1618.0,916.0,-206.0,34.0,224.0,114,127,125,108,85
2025-02-26 14:08:37.685,650.0,-1516.0,750.0,-221.0,23.0,217.0,112,128,126,110,85
2025-02-26 14:08:37.689,532.0,-1504.0,708.0,-221.0,7.0,212.0,111,126,125,106,84
2025-02-26 14:08:37.693,468.0,-1487.0,694.0,-214.0,-4.0,199.0,113,126,129,112,85
2025-02-26 14:08:37.702,471.0,-1487.0,688.0,-205.0,-8.0,185.0,111,126,128,113,84
2025-02-26 14:08:37.706,488.0,-1411.0,717.0,-201.0,-5.0,172.0,112,126,124,112,86
2025-02-26 14:08:37.710,492.0,-1387.0,703.0,-183.0,-3.0,164.0,113,130,129,115,89
2025-02-26 14:08:37.714,489.0,-1330.0,693.0,-168.0,-1.0,165.0,113,129,129,114,87
2025-02-26 14:08:37.722,469.0,-1308.0,651.0,-158.0,1.0,168.0,115,131,130,115,89
2025-02-26 14:08:37.726,462.0,-1268.0,646.0,-149.0,4.0,181.0,115,130,130,114,88
2025-02-26 14:08:37.731,437.0,-1250.0,627.0,-146.0,10.0,198.0,113,128,128,112,87
2025-02-26 14:08:37.739,392.0,-1215.0,572.0,-138.0,14.0,217.0,115,127,126,113,86
2025-02-26 14:08:37.742,366.0,-1172.0,572.0,-129.0,18.0,238.0,112,127,125,113,87
2025-02-26 14:08:37.746,315.0,-1124.0,566.0,-116.0,24.0,247.0,116,129,128,115,87
2025-02-26 14:08:37.755,272.0,-1028.0,532.0,-102.0,31.0,264.0,113,129,129,115,87
2025-02-26 14:08:37.759,253.0,-906.0,529.0,-90.0,39.0,277.0,115,130,129,114,87
2025-02-26 14:08:37.763,181.0,-782.0,446.0,-86.0,44.0,288.0,118,129,129,118,87
2025-02-26 14:08:37.768,158.0,-691.0,416.0,-78.0,46.0,296.0,110,128,128,115,86
2025-02-26 14:08:37.774,111.0,-650.0,370.0,-70.0,52.0,298.0,111,127,127,112,86
2025-02-26 14:08:37.779,76.0,-519.0,359.0,-63.0,57.0,298.0,114,130,126,113,86
2025-02-26 14:08:37.784,18.0,-404.0,342.0,-60.0,67.0,294.0,111,128,120,115,87
2025-02-26 14:08:37.791,-45.0,-330.0,284.0,-51.0,69.0,287.0,112,129,130,112,84
2025-02-26 14:08:37.796,-129.0,-297.0,256.0,-51.0,73.0,282.0,114,126,126,112,85
2025-02-26 14:08:37.800,-212.0,-216.0,238.0,-47.0,75.0,270.0,113,128,128,112,85
2025-02-26 14:08:37.804,-307.0,-114.0,258.0,-46.0,80.0,253.0,115,129,130,115,87
2025-02-26 14:08:37.811,-397.0,-21.0,201.0,-45.0,81.0,231.0,114,129,128,114,87
2025-02-26 14:08:37.816,-430.0,66.0,159.0,-45.0,82.0,209.0,113,127,128,113,85
2025-02-26 14:08:37.821,-501.0,117.0,80.0,-52.0,79.0,197.0,116,129,130,115,87
2025-02-26 14:08:37.823,-583.0,138.0,41.0,-58.0,73.0,173.0,114,128,133,113,85
2025-02-26 14:08:37.833,-639.0,159.0,-1.0,-65.0,65.0,149.0,113,127,128,112,85
2025-02-26 14:08:37.835,-669.0,179.0,-45.0,-76.0,62.0,127.0,114,127,129,112,84
2025-02-26 14:08:37.842,-697.0,168.0,-76.0,-80.0,53.0,117.0,112,127,130,113,86
2025-02-26 14:08:37.847,-768.0,161.0,-84.0,-87.0,44.0,98.0,113,127,128,111,84
2025-02-26 14:08:37.853,-802.0,151.0,-152.0,-90.0,30.0,82.0,110,126,129,111,85
2025-02-26 14:08:37.858,-823.0,114.0,-216.0,-94.0,23.0,70.0,112,125,128,111,84
2025-02-26 14:08:37.859,-850.0,103.0,-234.0,-96.0,11.0,63.0,113,130,130,112,86
2025-02-26 14:08:37.869,-848.0,136.0,-260.0,-91.0,1.0,52.0,114,130,131,113,88
2025-02-26 14:08:37.871,-863.0,148.0,-269.0,-86.0,-7.0,42.0,115,130,131,114,88
2025-02-26 14:08:37.878,-877.0,151.0,-269.0,-79.0,-11.0,32.0,113,129,129,112,88
2025-02-26 14:08:37.882,-890.0,175.0,-257.0,-67.0,-15.0,27.0,114,129,132,112,88
2025-02-26 14:08:37.890,-893.0,227.0,-247.0,-49.0,-17.0,17.0,114,129,133,113,88
2025-02-26 14:08:37.894,-905.0,263.0,-270.0,-31.0,-18.0,7.0,110,131,130,108,89
2025-02-26 14:08:37.899,-924.0,330.0,-279.0,-19.0,-23.0,-5.0,114,128,132,111,88
2025-02-26 14:08:37.906,-939.0,416.0,-250.0,3.0,-24.0,-18.0,114,128,130,112,88
2025-02-26 14:08:37.910,-972.0,455.0,-270.0,27.0,-29.0,-25.0,114,130,130,112,88
2025-02-26 14:08:37.915,-1014.0,518.0,-240.0,54.0,-35.0,-43.0,114,128,131,112,89
2025-02-26 14:08:37.921,-1071.0,592.0,-218.0,66.0,-36.0,-66.0,116,129,131,113,89
2025-02-26 14:08:37.927,-1096.0,686.0,-193.0,95.0,-34.0,-92.0,115,128,130,111,87
2025-02-26 14:08:37.932,-1105.0,750.0,-146.0,121.0,-32.0,-123.0,116,127,131,112,87
2025-02-26 14:08:37.939,-1110.0,785.0,-116.0,147.0,-24.0,-140.0,117,128,128,111,86
2025-02-26 14:08:37.943,-1091.0,781.0,-71.0,162.0,-11.0,-175.0,115,129,130,113,87
2025-02-26 14:08:37.947,-1026.0,823.0,-126.0,180.0,-3.0,-212.0,114,129,131,113,88
2025-02-26 14:08:37.956,-951.0,757.0,-115.0,200.0,4.0,-251.0,115,128,135,114,88
2025-02-26 14:08:37.959,-823.0,719.0,-113.0,206.0,8.0,-293.0,113,129,130,113,89
2025-02-26 14:08:37.964,-745.0,647.0,-106.0,223.0,6.0,-332.0,115,130,131,115,89
2025-02-26 14:08:37.968,-634.0,515.0,-78.0,233.0,0.0,-350.0,113,129,131,112,88
2025-02-26 14:08:37.976,-477.0,447.0,-45.0,241.0,-15.0,-384.0,115,130,133,115,88
2025-02-26 14:08:37.981,-304.0,330.0,-11.0,243.0,-36.0,-414.0,116,132,135,115,89
2025-02-26 14:08:37.985,-96.0,169.0,57.0,243.0,-64.0,-441.0,114,129,130,116,89
2025-02-26 14:08:37.992,13.0,-12.0,201.0,233.0,-78.0,-465.0,112,128,130,113,88
2025-02-26 14:08:37.996,252.0,-117.0,262.0,224.0,-111.0,-476.0,113,128,129,115,88
2025-02-26 14:08:38.001,516.0,-459.0,390.0,213.0,-149.0,-489.0,115,129,132,118,91
2025-02-26 14:08:38.008,821.0,-915.0,472.0,214.0,-185.0,-490.0,116,129,131,116,89
2025-02-26 14:08:38.013,1147.0,-1484.0,690.0,226.0,-223.0,-476.0,111,126,129,117,89
2025-02-26 14:08:38.018,1473.0,-2044.0,974.0,229.0,-249.0,-444.0,115,126,129,115,89
2025-02-26 14:08:38.025,1909.0,-2588.0,1380.0,234.0,-250.0,-387.0,116,130,129,117,88
2025-02-26 14:08:38.030,2277.0,-3016.0,1783.0,239.0,-225.0,-311.0,116,127,128,116,90
2025-02-26 14:08:38.037,2610.0,-3234.0,2078.0,218.0,-204.0,-223.0,118,128,128,116,90
2025-02-26 14:08:38.041,2758.0,-3341.0,2383.0,185.0,-139.0,-130.0,124,137,134,124,97
2025-02-26 14:08:38.046,2850.0,-3247.0,2534.0,129.0,-59.0,-35.0,134,145,144,130,108
2025-02-26 14:08:38.053,2706.0,-3122.0,2417.0,65.0,18.0,43.0,135,144,142,128,106
2025-02-26 14:08:38.059,2399.0,-2989.0,2231.0,-11.0,81.0,79.0,133,143,142,129,105
2025-02-26 14:08:38.063,1989.0,-2754.0,2126.0,-92.0,127.0,140.0,135,146,148,131,107
2025-02-26 14:08:38.071,1699.0,-2360.0,1726.0,-162.0,148.0,185.0,135,145,145,130,107
2025-02-26 14:08:38.074,1378.0,-1980.0,1306.0,-221.0,146.0,216.0,137,146,146,130,107
2025-02-26 14:08:38.083,958.0,-1778.0,1009.0,-260.0,137.0,236.0,142,150,150,136,110
2025-02-26 14:08:38.083,656.0,-1603.0,751.0,-272.0,122.0,246.0,135,144,146,134,106
2025-02-26 14:08:38.092,439.0,-1489.0,541.0,-285.0,103.0,248.0,130,142,143,132,103
2025-02-26 14:08:38.098,373.0,-1439.0,357.0,-287.0,92.0,244.0,131,142,146,133,102
2025-02-26 14:08:38.103,298.0,-1458.0,207.0,-271.0,66.0,235.0,132,144,145,136,107
2025-02-26 14:08:38.108,228.0,-1466.0,184.0,-248.0,44.0,231.0,133,141,145,133,102
2025-02-26 14:08:38.115,173.0,-1470.0,182.0,-224.0,25.0,222.0,133,141,147,135,103
2025-02-26 14:08:38.118,144.0,-1441.0,181.0,-197.0,7.0,213.0,132,144,146,133,105
2025-02-26 14:08:38.124,126.0,-1343.0,241.0,-183.0,-5.0,207.0,132,145,148,135,107
2025-02-26 14:08:38.131,136.0,-1235.0,343.0,-163.0,-11.0,203.0,132,142,146,135,105
2025-02-26 14:08:38.136,117.0,-1166.0,342.0,-146.0,-14.0,202.0,131,142,146,132,103
2025-02-26 14:08:38.141,115.0,-1076.0,391.0,-139.0,-19.0,207.0,131,142,147,136,107
2025-02-26 14:08:38.148,75.0,-1062.0,429.0,-134.0,-17.0,214.0,128,141,145,133,105
2025-02-26 14:08:38.152,79.0,-948.0,449.0,-128.0,-9.0,225.0,131,144,148,136,107
2025-02-26 14:08:38.157,102.0,-882.0,493.0,-121.0,3.0,236.0,134,147,153,140,113
2025-02-26 14:08:38.165,98.0,-819.0,501.0,-122.0,19.0,242.0,140,153,155,146,120
2025-02-26 14:08:38.168,130.0,-689.0,400.0,-114.0,26.0,241.0,134,151,154,142,117
2025-02-26 14:08:38.174,198.0,-520.0,427.0,-106.0,46.0,236.0,134,150,154,141,118
2025-02-26 14:08:38.181,111.0,-491.0,352.0,-115.0,62.0,236.0,138,154,158,144,124
2025-02-26 14:08:38.186,47.0,-392.0,445.0,-111.0,76.0,231.0,136,156,159,144,125
2025-02-26 14:08:38.190,-185.0,-376.0,220.0,-117.0,72.0,226.0,134,153,158,141,124
2025-02-26 14:08:38.197,-299.0,-369.0,262.0,-134.0,75.0,219.0,135,153,158,139,124
2025-02-26 14:08:38.199,-323.0,-246.0,76.0,-140.0,70.0,209.0,136,152,155,135,122
2025-02-26 14:08:38.203,-365.0,-164.0,-60.0,-138.0,54.0,205.0,131,148,150,129,120
2025-02-26 14:08:38.214,-451.0,-123.0,41.0,-125.0,43.0,192.0,131,143,147,126,116
2025-02-26 14:08:38.217,-475.0,-110.0,39.0,-116.0,44.0,179.0,129,143,143,125,115
2025-02-26 14:08:38.223,-532.0,-127.0,57.0,-94.0,53.0,172.0,132,140,139,123,118
2025-02-26 14:08:38.230,-658.0,-131.0,-14.0,-78.0,58.0,166.0,133,140,138,121,116
2025-02-26 14:08:38.234,-708.0,-147.0,-12.0,-52.0,60.0,153.0,133,142,133,119,120
2025-02-26 14:08:38.239,-801.0,-164.0,-256.0,-40.0,44.0,144.0,137,138,129,119,117
2025-02-26 14:08:38.247,-827.0,-147.0,-349.0,-62.0,8.0,119.0,142,140,132,124,120
2025-02-26 14:08:38.248,-851.0,-198.0,-296.0,-98.0,-19.0,100.0,146,144,134,124,123
2025-02-26 14:08:38.252,-872.0,-164.0,-97.0,-117.0,-27.0,87.0,147,141,132,125,123
2025-02-26 14:08:38.263,-753.0,-86.0,-196.0,-110.0,-29.0,76.0,153,143,135,127,126
2025-02-26 14:08:38.264,-724.0,21.0,-150.0,-108.0,-32.0,62.0,149,138,130,122,122
2025-02-26 14:08:38.272,-734.0,25.0,-30.0,-105.0,-22.0,50.0,147,136,128,118,120
2025-02-26 14:08:38.276,-744.0,24.0,-107.0,-109.0,-10.0,44.0,149,133,126,120,120
2025-02-26 14:08:38.283,-736.0,-24.0,-54.0,-111.0,-1.0,36.0,153,133,125,123,122
2025-02-26 14:08:38.288,-726.0,26.0,-91.0,-108.0,8.0,33.0,154,130,125,122,122
2025-02-26 14:08:38.290,-741.0,31.0,-72.0,-102.0,13.0,32.0,151,118,121,118,119
2025-02-26 14:08:38.300,-743.0,117.0,-68.0,-102.0,23.0,30.0,151,119,116,118,116
2025-02-26 14:08:38.304,-806.0,136.0,-97.0,-103.0,24.0,26.0,156,118,119,115,119
2025-02-26 14:08:38.308,-846.0,187.0,-58.0,-81.0,34.0,24.0,158,113,115,118,120
2025-02-26 14:08:38.313,-936.0,295.0,-88.0,-68.0,39.0,18.0,153,106,112,117,117
2025-02-26 14:08:38.320,-986.0,383.0,-97.0,-42.0,39.0,5.0,154,100,108,115,115
2025-02-26 14:08:38.324,-1078.0,438.0,-151.0,-14.0,33.0,-1.0,155,97,105,115,116
2025-02-26 14:08:38.329,-1161.0,458.0,-88.0,12.0,30.0,-12.0,157,94,102,114,116
2025-02-26 14:08:38.336,-1271.0,469.0,-67.0,28.0,27.0,-30.0,157,89,100,113,112
2025-02-26 14:08:38.341,-1328.0,426.0,-142.0,62.0,23.0,-51.0,158,88,100,116,111
2025-02-26 14:08:38.345,-1271.0,611.0,-172.0,102.0,12.0,-68.0,157,84,97,113,106
2025-02-26 14:08:38.349,-1189.0,798.0,-43.0,132.0,-6.0,-111.0,159,81,94,111,103
2025-02-26 14:08:38.357,-1206.0,799.0,180.0,146.0,22.0,-155.0,153,77,90,109,96
2025-02-26 14:08:38.362,-1008.0,876.0,-122.0,167.0,23.0,-202.0,155,77,91,111,96
2025-02-26 14:08:38.366,-878.0,995.0,-109.0,211.0,27.0,-251.0,153,73,88,107,92
2025-02-26 14:08:38.374,-669.0,939.0,-91.0,232.0,49.0,-271.0,153,71,87,107,89
2025-02-26 14:08:38.374,-422.0,854.0,-67.0,251.0,72.0,-308.0,153,72,91,107,90
2025-02-26 14:08:38.382,-415.0,776.0,-3.0,268.0,97.0,-348.0,153,71,87,107,89
2025-02-26 14:08:38.386,-392.0,808.0,1.0,250.0,106.0,-388.0,154,67,85,104,85
2025-02-26 14:08:38.393,-441.0,736.0,161.0,229.0,111.0,-404.0,153,69,83,106,86
2025-02-26 14:08:38.398,-323.0,590.0,294.0,264.0,94.0,-423.0,154,67,82,102,84
2025-02-26 14:08:38.403,41.0,444.0,20.0,272.0,5.0,-429.0,154,72,84,100,81
2025-02-26 14:08:38.406,203.0,276.0,-411.0,283.0,-53.0,-435.0,151,66,81,97,81
2025-02-26 14:08:38.413,499.0,68.0,-473.0,282.0,-130.0,-453.0,152,67,77,98,82
2025-02-26 14:08:38.417,1170.0,-499.0,-187.0,241.0,-131.0,-487.0,152,69,86,99,82
2025-02-26 14:08:38.423,1124.0,-987.0,-16.0,235.0,-182.0,-489.0,153,69,81,97,83
2025-02-26 14:08:38.427,1075.0,-1531.0,10.0,206.0,-210.0,-486.0,155,69,83,98,82
2025-02-26 14:08:38.435,867.0,-1871.0,461.0,207.0,-234.0,-475.0,156,71,84,97,84
2025-02-26 14:08:38.440,1604.0,-2740.0,610.0,208.0,-245.0,-436.0,159,71,87,98,86
2025-02-26 14:08:38.443,2250.0,-3545.0,1055.0,218.0,-243.0,-373.0,159,71,88,97,86
2025-02-26 14:08:38.451,2885.0,-4394.0,1776.0,218.0,-192.0,-257.0,161,71,87,97,86
2025-02-26 14:08:38.454,3014.0,-4935.0,2450.0,186.0,-146.0,-116.0,163,69,87,93,83
2025-02-26 14:08:38.461,3059.0,-4800.0,2699.0,149.0,-17.0,3.0,161,69,90,93,85
2025-02-26 14:08:38.466,3028.0,-4596.0,2597.0,155.0,86.0,46.0,166,74,92,96,87
2025-02-26 14:08:38.471,2786.0,-4036.0,2358.0,119.0,145.0,89.0,166,72,94,98,86
2025-02-26 14:08:38.476,2038.0,-3051.0,1546.0,112.0,198.0,121.0,164,72,91,97,83
2025-02-26 14:08:38.480,1728.0,-2344.0,937.0,44.0,199.0,140.0,169,76,90,100,87
2025-02-26 14:08:38.488,1068.0,-2120.0,273.0,-48.0,163.0,153.0,173,80,90,102,91
2025-02-26 14:08:38.493,547.0,-1674.0,66.0,-114.0,89.0,165.0,173,81,89,105,92
2025-02-26 14:08:38.496,218.0,-1375.0,-37.0,-157.0,22.0,170.0,174,80,91,103,90
2025-02-26 14:08:38.503,174.0,-1284.0,-125.0,-190.0,-2.0,164.0,170,77,90,103,93
2025-02-26 14:08:38.509,189.0,-1277.0,-97.0,-192.0,-25.0,159.0,171,79,93,102,89
2025-02-26 14:08:38.513,350.0,-1375.0,73.0,-180.0,-30.0,149.0,170,71,93,102,94
2025-02-26 14:08:38.518,289.0,-1625.0,185.0,-166.0,-44.0,151.0,169,76,91,101,87
2025-02-26 14:08:38.525,293.0,-1686.0,305.0,-161.0,-58.0,158.0,167,73,90,99,87
2025-02-26 14:08:38.525,297.0,-1735.0,402.0,-165.0,-60.0,167.0,165,73,86,94,84
2025-02-26 14:08:38.534,321.0,-1665.0,440.0,-170.0,-59.0,172.0,166,72,87,97,85
2025-02-26 14:08:38.541,306.0,-1618.0,441.0,-162.0,-51.0,179.0,169,77,91,101,88
2025-02-26 14:08:38.546,323.0,-1477.0,461.0,-160.0,-39.0,187.0,164,74,88,97,86
2025-02-26 14:08:38.549,286.0,-1333.0,477.0,-144.0,-37.0,188.0,164,72,85,95,83
2025-02-26 14:08:38.554,258.0,-1189.0,476.0,-134.0,-35.0,189.0,163,70,85,96,82
2025-02-26 14:08:38.562,228.0,-1092.0,500.0,-129.0,-36.0,191.0,171,76,91,101,87
2025-02-26 14:08:38.566,129.0,-902.0,528.0,-123.0,-44.0,189.0,180,90,103,114,101
2025-02-26 14:08:38.570,32.0,-747.0,493.0,-120.0,-49.0,185.0,170,77,91,100,88
2025-02-26 14:08:38.575,26.0,-630.0,454.0,-121.0,-48.0,179.0,160,69,85,92,81
2025-02-26 14:08:38.579,-83.0,-606.0,379.0,-122.0,-43.0,174.0,165,75,87,95,86
2025-02-26 14:08:38.587,-169.0,-541.0,357.0,-123.0,-41.0,165.0,158,65,78,87,77
2025-02-26 14:08:38.591,-278.0,-447.0,302.0,-126.0,-33.0,159.0,152,58,73,82,70
2025-02-26 14:08:38.599,-318.0,-414.0,291.0,-122.0,-29.0,154.0,150,58,74,83,70
2025-02-26 14:08:38.603,-367.0,-355.0,332.0,-127.0,-24.0,151.0,152,60,74,83,70
2025-02-26 14:08:38.607,-413.0,-267.0,309.0,-121.0,-18.0,140.0,152,61,76,84,71
2025-02-26 14:08:38.612,-426.0,-257.0,338.0,-119.0,-8.0,128.0,151,59,75,87,71
2025-02-26 14:08:38.619,-480.0,-245.0,282.0,-114.0,-2.0,118.0,152,60,77,81,70
2025-02-26 14:08:38.624,-521.0,-253.0,271.0,-100.0,7.0,114.0,153,60,76,82,70
2025-02-26 14:08:38.627,-554.0,-264.0,260.0,-94.0,9.0,107.0,153,60,76,85,73
2025-02-26 14:08:38.631,-545.0,-274.0,219.0,-87.0,10.0,101.0,153,61,77,89,73
2025-02-26 14:08:38.639,-603.0,-270.0,163.0,-80.0,13.0,98.0,153,61,76,85,72
2025-02-26 14:08:38.642,-559.0,-277.0,169.0,-76.0,20.0,93.0,153,62,78,87,74
2025-02-26 14:08:38.648,-616.0,-321.0,156.0,-71.0,24.0,87.0,155,61,77,85,74
2025-02-26 14:08:38.652,-593.0,-299.0,133.0,-62.0,25.0,78.0,150,60,76,86,73
2025-02-26 14:08:38.657,-615.0,-345.0,99.0,-55.0,32.0,76.0,156,61,78,86,74
2025-02-26 14:08:38.664,-632.0,-342.0,72.0,-56.0,34.0,73.0,156,60,75,87,73
2025-02-26 14:08:38.666,-649.0,-401.0,58.0,-51.0,35.0,71.0,152,60,76,84,73
2025-02-26 14:08:38.671,-680.0,-407.0,16.0,-46.0,39.0,70.0,157,60,76,86,74
2025-02-26 14:08:38.677,-669.0,-415.0,-6.0,-48.0,44.0,69.0,155,60,78,87,72
2025-02-26 14:08:38.681,-675.0,-391.0,-32.0,-42.0,44.0,66.0,147,60,76,88,74
2025-02-26 14:08:38.689,-670.0,-372.0,-43.0,-36.0,48.0,64.0,153,61,76,86,75
2025-02-26 14:08:38.693,-700.0,-361.0,-39.0,-28.0,42.0,57.0,153,60,77,87,77
2025-02-26 14:08:38.697,-697.0,-298.0,-42.0,-12.0,36.0,47.0,153,60,76,82,72
2025-02-26 14:08:38.701,-638.0,-255.0,-31.0,2.0,29.0,42.0,155,59,79,87,78
2025-02-26 14:08:38.706,-676.0,-206.0,-26.0,5.0,30.0,34.0,154,61,78,88,74
2025-02-26 14:08:38.713,-690.0,-165.0,-9.0,12.0,29.0,25.0,155,60,76,84,72
2025-02-26 14:08:38.717,-682.0,-148.0,6.0,17.0,26.0,21.0,154,63,78,86,74
2025-02-26 14:08:38.722,-686.0,-103.0,5.0,18.0,24.0,12.0,161,64,79,92,76
2025-02-26 14:08:38.726,-660.0,-50.0,-7.0,17.0,27.0,2.0,157,62,78,87,74
2025-02-26 14:08:38.730,-670.0,-42.0,-27.0,18.0,30.0,-3.0,154,64,78,87,76
2025-02-26 14:08:38.735,-683.0,-24.0,-37.0,19.0,30.0,-14.0,154,63,78,86,75
2025-02-26 14:08:38.738,-680.0,-26.0,-75.0,23.0,29.0,-23.0,153,59,78,87,77
2025-02-26 14:08:38.746,-724.0,-25.0,-94.0,31.0,25.0,-26.0,154,64,78,86,75
2025-02-26 14:08:38.750,-790.0,-6.0,-102.0,36.0,18.0,-32.0,157,61,77,87,74
2025-02-26 14:08:38.755,-820.0,35.0,-113.0,50.0,16.0,-40.0,153,61,76,85,73
2025-02-26 14:08:38.758,-837.0,83.0,-81.0,62.0,14.0,-46.0,154,61,78,87,72
2025-02-26 14:08:38.763,-896.0,150.0,-68.0,71.0,12.0,-58.0,153,61,79,87,75
2025-02-26 14:08:38.770,-919.0,263.0,-13.0,87.0,11.0,-73.0,153,62,75,85,73
2025-02-26 14:08:38.774,-957.0,350.0,41.0,101.0,12.0,-83.0,153,62,78,87,74
2025-02-26 14:08:38.779,-983.0,476.0,70.0,107.0,17.0,-106.0,153,63,78,86,74
2025-02-26 14:08:38.783,-968.0,602.0,89.0,131.0,19.0,-138.0,152,61,76,85,76
2025-02-26 14:08:38.788,-839.0,632.0,65.0,149.0,28.0,-156.0,151,62,78,85,73
2025-02-26 14:08:38.793,-791.0,676.0,35.0,159.0,32.0,-195.0,153,62,79,87,75
2025-02-26 14:08:38.799,-751.0,642.0,-100.0,177.0,32.0,-233.0,155,60,77,86,75
2025-02-26 14:08:38.804,-707.0,616.0,-205.0,190.0,24.0,-252.0,152,61,78,86,75
2025-02-26 14:08:38.808,-597.0,555.0,-228.0,193.0,13.0,-290.0,155,61,76,86,73
2025-02-26 14:08:38.815,-454.0,398.0,-311.0,195.0,6.0,-323.0,152,60,76,86,73
2025-02-26 14:08:38.819,-388.0,315.0,-302.0,194.0,-12.0,-339.0,154,62,77,86,73
2025-02-26 14:08:38.825,-192.0,195.0,-248.0,188.0,-37.0,-367.0,153,62,79,87,75
2025-02-26 14:08:38.829,104.0,-46.0,-108.0,186.0,-66.0,-398.0,151,63,79,86,76
2025-02-26 14:08:38.836,267.0,-208.0,24.0,182.0,-82.0,-412.0,152,59,77,86,73
2025-02-26 14:08:38.841,591.0,-562.0,86.0,183.0,-113.0,-434.0,155,64,81,89,76
2025-02-26 14:08:38.845,911.0,-1006.0,247.0,180.0,-137.0,-434.0,153,61,79,89,76
2025-02-26 14:08:38.853,1047.0,-1531.0,452.0,176.0,-147.0,-427.0,153,61,78,85,77
2025-02-26 14:08:38.857,1344.0,-1816.0,754.0,164.0,-154.0,-402.0,154,62,77,86,76
2025-02-26 14:08:38.861,1656.0,-2448.0,923.0,147.0,-143.0,-359.0,154,64,81,90,76
2025-02-26 14:08:38.869,2017.0,-3133.0,1385.0,140.0,-108.0,-298.0,155,61,80,86,77
2025-02-26 14:08:38.874,2229.0,-3717.0,1703.0,121.0,-60.0,-222.0,153,59,82,86,76
2025-02-26 14:08:38.878,2328.0,-4111.0,1817.0,141.0,-42.0,-139.0,151,60,80,87,77
2025-02-26 14:08:38.882,2479.0,-4143.0,1888.0,138.0,-2.0,-98.0,154,62,81,86,77
2025-02-26 14:08:38.890,2445.0,-4078.0,1737.0,129.0,39.0,-27.0,155,63,83,87,79
2025-02-26 14:08:38.894,2144.0,-3895.0,1518.0,113.0,100.0,44.0,155,61,85,88,78
2025-02-26 14:08:38.898,1951.0,-3337.0,1332.0,52.0,124.0,99.0,160,64,85,89,81
2025-02-26 14:08:38.906,1783.0,-2781.0,982.0,-18.0,145.0,120.0,156,63,82,92,82
