timestamp,ax,ay,az,gx,gy,gz,flex1,flex2,flex3,flex4,flex5,emg1,emg2,emg3
2025-02-20 15:45:14.326,-419.0,-111.0,933.0,4.0,0.0,-2.0,132,113,103,132,123,462,1,466
2025-02-20 15:45:14.330,-399.0,-98.0,944.0,2.0,-2.0,-1.0,133,113,104,133,123,466,2,465
2025-02-20 15:45:14.333,-389.0,-98.0,960.0,-1.0,-2.0,-2.0,132,113,104,133,123,467,2,465
2025-02-20 15:45:14.335,-377.0,-99.0,961.0,-1.0,0.0,-2.0,132,113,105,132,124,464,3,465
2025-02-20 15:45:14.337,-379.0,-97.0,955.0,0.0,1.0,-2.0,133,114,104,133,124,463,3,463
2025-02-20 15:45:14.340,-375.0,-107.0,959.0,3.0,2.0,-2.0,131,114,104,133,123,460,2,465
2025-02-20 15:45:14.342,-384.0,-104.0,948.0,2.0,2.0,-1.0,133,114,104,133,124,455,2,465
2025-02-20 15:45:14.355,-401.0,-94.0,931.0,0.0,2.0,-1.0,132,114,103,133,124,452,2,464
2025-02-20 15:45:14.377,-409.0,-88.0,933.0,-2.0,0.0,-1.0,133,114,104,132,124,452,2,464
2025-02-20 15:45:14.396,-411.0,-94.0,934.0,-1.0,-1.0,-1.0,132,113,104,133,123,452,2,464
2025-02-20 15:45:14.414,-413.0,-92.0,947.0,-1.0,1.0,-2.0,132,113,104,132,124,453,2,464
2025-02-20 15:45:14.433,-421.0,-91.0,941.0,2.0,3.0,-2.0,132,113,104,133,124,453,3,463
2025-02-20 15:45:14.452,-423.0,-81.0,928.0,2.0,3.0,-3.0,133,113,103,132,124,455,2,463
2025-02-20 15:45:14.471,-423.0,-79.0,934.0,0.0,2.0,-3.0,133,114,104,133,124,459,2,463
2025-02-20 15:45:14.487,-417.0,-95.0,924.0,-2.0,2.0,-4.0,132,113,104,133,123,462,3,463
2025-02-20 15:45:14.511,-413.0,-101.0,927.0,0.0,2.0,-4.0,132,114,103,133,124,464,3,462
2025-02-20 15:45:14.529,-419.0,-104.0,933.0,0.0,2.0,-4.0,132,114,105,133,124,466,3,464
2025-02-20 15:45:14.548,-406.0,-130.0,939.0,0.0,2.0,-4.0,132,114,104,133,123,466,2,463
2025-02-20 15:45:14.569,-404.0,-128.0,927.0,-1.0,2.0,-3.0,133,114,104,133,123,465,3,463
2025-02-20 15:45:14.585,-406.0,-123.0,912.0,-2.0,2.0,-2.0,133,113,104,133,124,463,3,463
2025-02-20 15:45:14.602,-418.0,-119.0,901.0,-2.0,-2.0,-2.0,132,114,104,133,124,460,2,464
2025-02-20 15:45:14.622,-393.0,-102.0,926.0,-1.0,0.0,0.0,132,114,105,132,123,456,0,463
2025-02-20 15:45:14.639,-399.0,-118.0,927.0,-2.0,2.0,0.0,133,114,104,132,123,449,2,463
2025-02-20 15:45:14.663,-410.0,-105.0,920.0,-1.0,1.0,-1.0,132,114,104,133,123,443,3,463
2025-02-20 15:45:14.680,-414.0,-106.0,922.0,-1.0,1.0,-1.0,133,113,104,133,124,442,2,463
2025-02-20 15:45:14.700,-418.0,-104.0,923.0,-1.0,0.0,0.0,132,113,106,132,123,442,3,464
2025-02-20 15:45:14.719,-422.0,-90.0,913.0,-2.0,-1.0,-1.0,133,114,104,133,123,440,3,461
2025-02-20 15:45:14.737,-425.0,-95.0,919.0,-3.0,-2.0,-1.0,133,115,104,134,123,440,3,461
2025-02-20 15:45:14.757,-421.0,-105.0,937.0,-1.0,-1.0,-1.0,132,113,104,133,123,441,2,462
2025-02-20 15:45:14.773,-421.0,-97.0,941.0,1.0,-1.0,0.0,133,113,104,133,124,441,2,462
2025-02-20 15:45:14.794,-427.0,-85.0,938.0,-1.0,-1.0,-1.0,132,114,105,132,123,441,2,463
2025-02-20 15:45:14.810,-427.0,-93.0,939.0,-2.0,-1.0,-2.0,132,114,104,133,123,442,3,463
2025-02-20 15:45:14.832,-417.0,-108.0,943.0,1.0,-1.0,-2.0,133,113,104,133,124,444,3,462
2025-02-20 15:45:14.852,-418.0,-100.0,943.0,1.0,0.0,-2.0,132,114,104,132,123,443,2,461
2025-02-20 15:45:14.869,-418.0,-101.0,939.0,0.0,-1.0,-2.0,133,113,103,133,124,444,2,462
2025-02-20 15:45:14.889,-423.0,-116.0,941.0,0.0,0.0,-2.0,132,113,104,133,124,443,2,463
2025-02-20 15:45:14.909,-417.0,-113.0,944.0,1.0,0.0,-1.0,132,114,105,133,125,444,2,464
2025-02-20 15:45:14.929,-418.0,-103.0,938.0,0.0,1.0,-1.0,133,114,104,132,124,444,2,464
2025-02-20 15:45:14.946,-416.0,-105.0,933.0,-1.0,0.0,-1.0,132,113,104,131,124,444,2,463
2025-02-20 15:45:14.966,-417.0,-117.0,932.0,-1.0,0.0,-1.0,132,114,104,132,123,446,3,463
2025-02-20 15:45:14.987,-410.0,-119.0,936.0,1.0,0.0,-1.0,132,113,103,133,123,446,2,464
2025-02-20 15:45:15.003,-417.0,-100.0,931.0,2.0,0.0,0.0,132,113,104,133,124,444,2,464
2025-02-20 15:45:15.023,-419.0,-88.0,930.0,0.0,0.0,-1.0,132,113,104,133,124,442,2,462
2025-02-20 15:45:15.040,-419.0,-98.0,928.0,-1.0,-1.0,0.0,133,113,104,133,124,446,3,464
2025-02-20 15:45:15.061,-414.0,-97.0,931.0,-1.0,0.0,-1.0,132,114,104,131,123,448,1,463
2025-02-20 15:45:15.080,-415.0,-102.0,927.0,0.0,1.0,-1.0,133,113,103,134,122,447,3,463
2025-02-20 15:45:15.098,-420.0,-96.0,924.0,1.0,1.0,-2.0,132,114,103,132,123,446,3,464
2025-02-20 15:45:15.117,-416.0,-101.0,921.0,2.0,0.0,-2.0,132,114,104,132,123,449,1,464
2025-02-20 15:45:15.137,-414.0,-106.0,927.0,1.0,-1.0,-2.0,133,114,104,133,123,451,2,465
2025-02-20 15:45:15.155,-413.0,-99.0,917.0,-2.0,-2.0,-1.0,132,113,105,133,123,451,2,466
2025-02-20 15:45:15.174,-418.0,-107.0,916.0,-3.0,-4.0,0.0,133,112,104,133,124,454,3,466
2025-02-20 15:45:15.195,-411.0,-108.0,930.0,-1.0,-3.0,-1.0,133,113,105,133,124,457,2,468
2025-02-20 15:45:15.210,-413.0,-109.0,936.0,2.0,0.0,-1.0,133,113,105,132,123,459,1,468
2025-02-20 15:45:15.233,-425.0,-88.0,926.0,3.0,1.0,-1.0,132,114,104,133,123,458,3,469
2025-02-20 15:45:15.250,-435.0,-72.0,928.0,0.0,-2.0,-2.0,132,113,104,134,123,461,3,470
2025-02-20 15:45:15.269,-424.0,-102.0,935.0,-3.0,-3.0,-2.0,132,114,104,133,123,469,3,471
2025-02-20 15:45:15.290,-411.0,-121.0,944.0,0.0,-1.0,-2.0,133,114,104,134,124,477,2,471
2025-02-20 15:45:15.306,-415.0,-118.0,941.0,3.0,1.0,-1.0,133,113,104,134,123,481,2,471
2025-02-20 15:45:15.326,-428.0,-102.0,939.0,0.0,1.0,0.0,133,113,104,134,123,483,3,473
2025-02-20 15:45:15.347,-430.0,-96.0,931.0,-3.0,-1.0,0.0,133,113,102,133,123,488,2,473
2025-02-20 15:45:15.364,-421.0,-104.0,935.0,-5.0,-2.0,0.0,133,114,105,133,124,496,2,475
2025-02-20 15:45:15.384,-414.0,-110.0,936.0,-3.0,0.0,0.0,132,113,104,132,123,500,2,473
2025-02-20 15:45:15.404,-423.0,-98.0,936.0,0.0,1.0,0.0,133,114,104,133,124,499,3,474
2025-02-20 15:45:15.421,-420.0,-80.0,934.0,-1.0,0.0,0.0,132,113,104,133,123,498,2,473
2025-02-20 15:45:15.441,-420.0,-89.0,925.0,-3.0,-1.0,0.0,133,114,104,133,123,494,2,474
2025-02-20 15:45:15.461,-413.0,-93.0,924.0,-2.0,-2.0,-1.0,133,115,104,133,123,495,3,474
2025-02-20 15:45:15.478,-406.0,-105.0,935.0,0.0,-1.0,-1.0,133,114,104,134,123,495,3,473
2025-02-20 15:45:15.498,-412.0,-93.0,938.0,1.0,-1.0,-1.0,133,114,104,133,123,494,2,473
2025-02-20 15:45:15.513,-413.0,-83.0,937.0,0.0,-2.0,-1.0,132,114,104,133,123,491,2,472
2025-02-20 15:45:15.535,-417.0,-90.0,938.0,0.0,-2.0,0.0,133,113,104,133,123,491,3,472
2025-02-20 15:45:15.555,-416.0,-92.0,946.0,1.0,-1.0,-1.0,133,113,104,133,123,491,2,471
2025-02-20 15:45:15.573,-415.0,-92.0,950.0,2.0,0.0,-1.0,132,113,104,133,124,491,2,470
2025-02-20 15:45:15.593,-423.0,-93.0,945.0,1.0,0.0,-1.0,133,113,104,133,124,489,2,470
2025-02-20 15:45:15.610,-421.0,-88.0,937.0,0.0,0.0,-1.0,132,112,104,133,124,488,3,469
2025-02-20 15:45:15.630,-423.0,-96.0,922.0,-1.0,0.0,-1.0,133,114,104,133,123,486,2,468
2025-02-20 15:45:15.650,-424.0,-96.0,916.0,0.0,-1.0,-1.0,132,113,103,133,124,486,2,468
2025-02-20 15:45:15.670,-425.0,-87.0,921.0,0.0,-2.0,-2.0,133,113,105,133,123,487,2,469
2025-02-20 15:45:15.687,-420.0,-101.0,920.0,-1.0,-1.0,-2.0,133,114,105,134,124,484,3,473
2025-02-20 15:45:15.708,-424.0,-103.0,911.0,0.0,-1.0,-1.0,133,114,104,133,123,482,2,468
2025-02-20 15:45:15.724,-427.0,-106.0,918.0,0.0,-3.0,-2.0,132,113,104,133,123,481,1,469
2025-02-20 15:45:15.743,-427.0,-115.0,926.0,0.0,-4.0,0.0,133,114,105,133,123,478,2,468
2025-02-20 15:45:15.765,-443.0,-127.0,937.0,0.0,-4.0,1.0,133,114,104,133,124,481,2,470
2025-02-20 15:45:15.780,-456.0,-125.0,959.0,1.0,-6.0,2.0,132,113,103,133,123,490,2,469
2025-02-20 15:45:15.802,-459.0,-127.0,1015.0,1.0,-8.0,3.0,132,114,105,134,123,497,3,467
2025-02-20 15:45:15.822,-477.0,-157.0,1087.0,-3.0,-12.0,4.0,133,113,104,133,123,496,3,465
2025-02-20 15:45:15.839,-374.0,-125.0,1382.0,-11.0,-3.0,9.0,133,113,103,132,123,493,2,463
2025-02-20 15:45:15.858,-298.0,-36.0,1711.0,-52.0,63.0,11.0,133,111,100,132,123,494,2,463
2025-02-20 15:45:15.877,-283.0,74.0,1774.0,-129.0,152.0,-1.0,133,101,88,131,114,498,2,462
2025-02-20 15:45:15.896,-275.0,-13.0,1894.0,-203.0,250.0,10.0,133,82,75,128,97,508,3,462
2025-02-20 15:45:15.916,-238.0,152.0,1366.0,-239.0,339.0,29.0,132,65,61,115,78,514,2,463
2025-02-20 15:45:15.931,-272.0,651.0,589.0,-278.0,347.0,13.0,133,57,55,91,63,488,2,466
2025-02-20 15:45:15.953,-438.0,1207.0,-650.0,-240.0,259.0,-27.0,130,54,53,83,55,462,2,464
2025-02-20 15:45:15.974,-699.0,1022.0,-964.0,-148.0,128.0,-188.0,118,53,51,76,52,423,2,457
2025-02-20 15:45:15.992,-1343.0,1202.0,-2643.0,-116.0,-125.0,-348.0,102,50,49,71,48,390,2,456
2025-02-20 15:45:16.009,-1449.0,70.0,-2996.0,-4.0,-436.0,-376.0,96,48,48,69,46,380,3,454
2025-02-20 15:45:16.031,85.0,-475.0,-2358.0,165.0,-784.0,-321.0,96,49,48,70,48,366,3,456
2025-02-20 15:45:16.047,2478.0,-579.0,-564.0,365.0,-912.0,-225.0,102,50,50,71,52,415,2,473
2025-02-20 15:45:16.068,3928.0,-1636.0,3154.0,452.0,-556.0,-55.0,112,51,52,73,51,445,2,478
2025-02-20 15:45:16.088,3053.0,-658.0,4652.0,182.0,-94.0,-11.0,113,53,52,73,54,484,2,467
2025-02-20 15:45:16.105,1936.0,-940.0,3785.0,-67.0,187.0,27.0,113,52,52,74,53,465,2,471
2025-02-20 15:45:16.125,833.0,-817.0,2532.0,-188.0,268.0,75.0,115,52,55,76,54,460,3,463
2025-02-20 15:45:16.146,822.0,-684.0,1966.0,-248.0,350.0,105.0,115,53,55,78,55,347,2,462
2025-02-20 15:45:16.163,665.0,-880.0,1451.0,-240.0,457.0,128.0,118,55,56,80,57,408,3,467
2025-02-20 15:45:16.183,27.0,-1036.0,730.0,-195.0,494.0,167.0,118,55,55,79,57,503,2,480
2025-02-20 15:45:16.199,168.0,-417.0,230.0,-194.0,443.0,219.0,116,54,55,77,56,505,3,487
2025-02-20 15:45:16.219,-42.0,-104.0,57.0,-207.0,376.0,235.0,117,55,56,78,57,449,3,490
2025-02-20 15:45:16.240,-37.0,102.0,-69.0,-218.0,335.0,255.0,117,54,57,78,57,400,3,471
2025-02-20 15:45:16.257,-468.0,180.0,-363.0,-223.0,271.0,286.0,119,55,56,79,58,403,2,469
2025-02-20 15:45:16.277,-574.0,501.0,-821.0,-125.0,154.0,281.0,117,55,56,76,57,402,2,475
2025-02-20 15:45:16.295,-413.0,998.0,-954.0,-52.0,62.0,250.0,117,55,57,77,58,439,2,478
2025-02-20 15:45:16.313,-366.0,1712.0,-1114.0,23.0,-15.0,186.0,117,55,57,76,58,471,3,475
2025-02-20 15:45:16.335,-685.0,2583.0,-1452.0,162.0,-55.0,-108.0,111,55,58,75,57,493,2,462
2025-02-20 15:45:16.354,-1323.0,3093.0,-1863.0,240.0,-222.0,-419.0,107,55,56,75,55,491,3,467
2025-02-20 15:45:16.371,-1108.0,2924.0,-1981.0,86.0,-525.0,-716.0,104,54,55,74,55,513,2,471
2025-02-20 15:45:16.391,1374.0,1259.0,-1870.0,-36.0,-983.0,-881.0,108,54,56,75,57,510,3,474
2025-02-20 15:45:16.412,6055.0,-3312.0,3179.0,22.0,-989.0,-572.0,115,56,56,80,58,498,2,474
2025-02-20 15:45:16.429,5929.0,-6258.0,4615.0,-61.0,-3.0,126.0,116,58,58,80,58,546,2,466
2025-02-20 15:45:16.447,1786.0,-3123.0,2317.0,-30.0,272.0,52.0,117,57,58,77,58,411,3,454
2025-02-20 15:45:16.464,575.0,-2896.0,1604.0,-49.0,369.0,177.0,121,58,57,77,57,381,1,450
2025-02-20 15:45:16.486,283.0,-1838.0,975.0,-40.0,332.0,221.0,126,60,59,79,59,421,2,458
2025-02-20 15:45:16.506,2.0,-966.0,657.0,-81.0,309.0,227.0,129,61,60,80,59,433,2,454
2025-02-20 15:45:16.523,-18.0,-510.0,546.0,-88.0,286.0,229.0,131,61,60,80,60,440,3,448
2025-02-20 15:45:16.543,-63.0,-642.0,453.0,-98.0,276.0,272.0,132,60,59,80,60,459,2,489
2025-02-20 15:45:16.561,-33.0,10.0,136.0,-135.0,297.0,338.0,133,60,59,79,59,525,3,524
2025-02-20 15:45:16.580,-102.0,110.0,-53.0,-142.0,256.0,325.0,134,61,59,79,60,571,3,546
2025-02-20 15:45:16.597,-513.0,224.0,-90.0,-159.0,218.0,318.0,134,60,58,78,61,519,3,526
2025-02-20 15:45:16.614,-584.0,98.0,-222.0,-82.0,147.0,301.0,135,57,56,76,61,449,2,476
2025-02-20 15:45:16.638,-702.0,432.0,-528.0,16.0,98.0,238.0,135,54,54,75,60,470,2,476
2025-02-20 15:45:16.658,-984.0,983.0,-308.0,-7.0,-12.0,165.0,138,55,53,76,60,499,3,474
2025-02-20 15:45:16.675,-765.0,1549.0,-483.0,27.0,-30.0,-9.0,139,52,51,74,59,512,2,468
2025-02-20 15:45:16.694,-867.0,1661.0,-836.0,-29.0,-125.0,-187.0,139,53,49,74,58,505,3,463
2025-02-20 15:45:16.715,-657.0,1912.0,-1043.0,-29.0,-227.0,-313.0,138,53,49,74,58,476,3,454
2025-02-20 15:45:16.731,-566.0,2048.0,-1152.0,7.0,-275.0,-416.0,137,51,49,75,57,469,3,452
2025-02-20 15:45:16.753,-327.0,2512.0,-1109.0,-51.0,-396.0,-552.0,138,52,49,77,58,467,1,446
2025-02-20 15:45:16.772,283.0,2996.0,-1705.0,-283.0,-578.0,-772.0,141,51,50,78,58,519,2,441
2025-02-20 15:45:16.789,2795.0,180.0,-2056.0,-510.0,-799.0,-761.0,144,51,50,83,59,492,3,449
2025-02-20 15:45:16.810,4762.0,-3818.0,-162.0,-331.0,-651.0,-490.0,145,51,50,84,60,480,2,453
2025-02-20 15:45:16.830,4924.0,-5484.0,1405.0,-145.0,24.0,-220.0,145,52,50,84,60,431,4,451
2025-02-20 15:45:16.846,2258.0,-5196.0,-432.0,165.0,254.0,-90.0,144,53,51,82,59,365,2,450
2025-02-20 15:45:16.867,643.0,-3106.0,-585.0,37.0,221.0,113.0,142,52,51,80,59,398,3,449
2025-02-20 15:45:16.884,902.0,-2129.0,959.0,-110.0,61.0,179.0,143,54,51,82,60,527,2,447
2025-02-20 15:45:16.904,700.0,-2637.0,498.0,52.0,97.0,200.0,145,55,53,86,61,511,3,444
2025-02-20 15:45:16.924,305.0,-2103.0,899.0,61.0,216.0,243.0,147,56,55,88,63,477,5,448
2025-02-20 15:45:16.941,328.0,-1326.0,-20.0,141.0,170.0,300.0,146,56,53,85,62,471,4,461
2025-02-20 15:45:16.961,72.0,-510.0,-21.0,179.0,93.0,269.0,146,56,53,85,62,517,4,457
2025-02-20 15:45:16.980,196.0,-43.0,194.0,138.0,93.0,205.0,145,55,53,85,62,521,3,450
2025-02-20 15:45:16.998,-67.0,-102.0,322.0,66.0,126.0,202.0,146,55,53,83,62,486,3,462
2025-02-20 15:45:17.018,-253.0,-176.0,118.0,28.0,132.0,209.0,145,55,54,84,62,465,3,466
2025-02-20 15:45:17.036,-374.0,-96.0,-61.0,13.0,93.0,234.0,144,55,54,85,62,497,3,472
2025-02-20 15:45:17.056,-273.0,578.0,233.0,53.0,96.0,158.0,145,56,54,84,62,497,3,472
2025-02-20 15:45:17.076,-257.0,651.0,436.0,43.0,145.0,99.0,145,56,54,85,62,514,3,468
2025-02-20 15:45:17.092,-643.0,500.0,225.0,-10.0,147.0,80.0,144,56,54,84,62,523,3,458
2025-02-20 15:45:17.112,-737.0,504.0,-133.0,44.0,116.0,64.0,143,56,54,84,61,455,3,450
2025-02-20 15:45:17.133,-466.0,1069.0,-177.0,170.0,94.0,-31.0,141,56,54,86,61,411,3,438
2025-02-20 15:45:17.150,-988.0,1666.0,-594.0,228.0,88.0,-208.0,139,56,54,84,62,392,3,448
2025-02-20 15:45:17.167,-1934.0,2453.0,-1469.0,53.0,-93.0,-440.0,137,56,54,86,61,463,3,446
2025-02-20 15:45:17.190,-1722.0,2550.0,-2696.0,-170.0,-601.0,-745.0,136,55,53,86,60,477,4,451
2025-02-20 15:45:17.207,2604.0,1463.0,-2846.0,-617.0,-1068.0,-862.0,137,55,53,88,61,417,3,475
2025-02-20 15:45:17.227,6286.0,-5266.0,-172.0,-819.0,-829.0,-357.0,141,56,52,87,61,362,3,482
2025-02-20 15:45:17.247,5936.0,-8021.0,707.0,-125.0,129.0,-49.0,140,56,54,89,61,383,4,467
2025-02-20 15:45:17.264,2240.0,-4442.0,-1407.0,375.0,418.0,165.0,138,55,53,88,58,546,3,449
2025-02-20 15:45:17.285,17.0,-1052.0,-2202.0,177.0,140.0,281.0,140,56,53,88,59,524,4,461
2025-02-20 15:45:17.302,800.0,-1925.0,-327.0,90.0,79.0,240.0,142,56,54,86,59,566,2,485
2025-02-20 15:45:17.319,743.0,-2091.0,229.0,107.0,196.0,333.0,144,59,57,88,61,457,5,505
2025-02-20 15:45:17.341,278.0,-1242.0,-602.0,146.0,249.0,408.0,144,60,59,91,62,398,6,500
2025-02-20 15:45:17.358,218.0,-446.0,-146.0,240.0,232.0,393.0,141,58,58,90,61,441,4,488
2025-02-20 15:45:17.379,373.0,34.0,54.0,168.0,240.0,423.0,140,58,59,87,62,425,3,476
2025-02-20 15:45:17.399,100.0,124.0,116.0,99.0,245.0,422.0,138,59,60,88,65,522,3,472
2025-02-20 15:45:17.416,170.0,211.0,-207.0,206.0,259.0,398.0,138,61,63,91,71,500,3,455
2025-02-20 15:45:17.436,49.0,307.0,-417.0,170.0,289.0,389.0,135,65,65,94,78,445,3,461
2025-02-20 15:45:17.456,-135.0,924.0,145.0,59.0,238.0,366.0,135,69,68,101,88,473,3,460
2025-02-20 15:45:17.473,-382.0,920.0,-838.0,257.0,231.0,305.0,132,75,74,108,97,490,3,462
2025-02-20 15:45:17.494,-348.0,1856.0,-1212.0,247.0,169.0,163.0,126,80,79,112,103,506,3,454
2025-02-20 15:45:17.513,-1438.0,2039.0,-2257.0,58.0,-104.0,-52.0,129,87,81,115,110,491,2,450
2025-02-20 15:45:17.531,-866.0,1960.0,-1369.0,-12.0,-320.0,-455.0,128,96,85,116,118,472,2,458
2025-02-20 15:45:17.551,-1147.0,1592.0,-1977.0,-30.0,-433.0,-738.0,128,105,90,121,126,486,3,490
2025-02-20 15:45:17.570,298.0,1484.0,-248.0,-47.0,-429.0,-903.0,129,112,93,126,128,426,3,493
2025-02-20 15:45:17.588,1535.0,-195.0,-375.0,-390.0,-789.0,-980.0,133,117,97,130,129,348,3,479
2025-02-20 15:45:17.608,3418.0,-2436.0,-883.0,-273.0,-894.0,-764.0,135,121,101,132,130,345,2,468
2025-02-20 15:45:17.628,4643.0,-4763.0,-467.0,-245.0,-630.0,-184.0,132,123,104,133,132,358,2,475
2025-02-20 15:45:17.645,3505.0,-4869.0,104.0,-162.0,-65.0,178.0,134,125,105,133,133,457,2,482
2025-02-20 15:45:17.662,848.0,-2875.0,36.0,-45.0,-5.0,278.0,135,126,104,134,133,480,2,481
2025-02-20 15:45:17.683,792.0,-1642.0,768.0,157.0,229.0,354.0,137,126,105,134,133,486,3,460
2025-02-20 15:45:17.700,139.0,-1097.0,-141.0,193.0,159.0,381.0,135,125,105,135,132,535,3,444
2025-02-20 15:45:17.722,-105.0,-839.0,272.0,111.0,102.0,326.0,137,126,104,134,133,551,3,444
2025-02-20 15:45:17.740,-274.0,-728.0,-49.0,147.0,181.0,320.0,137,126,105,134,133,498,3,455
2025-02-20 15:45:17.760,-343.0,-438.0,347.0,164.0,154.0,312.0,136,125,105,134,134,581,3,471
2025-02-20 15:45:17.777,149.0,301.0,-418.0,297.0,62.0,263.0,137,125,105,134,134,462,3,453
2025-02-20 15:45:17.797,-122.0,50.0,202.0,46.0,134.0,216.0,136,125,104,134,134,540,2,452
2025-02-20 15:45:17.817,-263.0,312.0,-58.0,-138.0,107.0,189.0,136,125,104,134,134,583,3,452
2025-02-20 15:45:17.834,-412.0,392.0,9.0,-58.0,55.0,178.0,138,124,104,133,134,557,2,457
2025-02-20 15:45:17.854,-388.0,178.0,295.0,76.0,79.0,159.0,136,124,104,133,134,489,2,454
2025-02-20 15:45:17.874,-514.0,454.0,311.0,48.0,98.0,139.0,135,123,104,133,134,435,2,452
2025-02-20 15:45:17.892,-662.0,782.0,123.0,185.0,82.0,79.0,134,122,104,134,134,458,2,464
2025-02-20 15:45:17.911,-880.0,1277.0,-229.0,240.0,60.0,-67.0,134,122,104,133,135,481,2,469
2025-02-20 15:45:17.932,-1375.0,1827.0,-862.0,269.0,-21.0,-306.0,132,121,104,133,135,438,2,467
2025-02-20 15:45:17.949,-1186.0,1864.0,-774.0,131.0,-283.0,-620.0,130,123,106,133,136,431,2,465
2025-02-20 15:45:17.969,57.0,1224.0,1032.0,-275.0,-449.0,-818.0,131,126,106,134,136,384,1,460
2025-02-20 15:45:17.989,3239.0,-1058.0,73.0,-393.0,-698.0,-837.0,132,126,106,134,135,258,4,455
2025-02-20 15:45:18.006,3975.0,-3362.0,1315.0,-517.0,-503.0,-487.0,130,127,106,135,135,296,2,448
2025-02-20 15:45:18.026,2890.0,-5478.0,-850.0,-215.0,-256.0,36.0,128,125,105,135,135,374,2,431
2025-02-20 15:45:18.046,2424.0,-4305.0,101.0,-250.0,-91.0,191.0,129,124,104,135,135,383,2,442
2025-02-20 15:45:18.063,618.0,-2368.0,-1948.0,-13.0,53.0,243.0,131,123,103,134,133,408,2,458
2025-02-20 15:45:18.082,342.0,-1429.0,-365.0,41.0,235.0,293.0,133,123,101,135,133,399,2,465
2025-02-20 15:45:18.101,78.0,-1276.0,134.0,101.0,136.0,284.0,134,121,102,136,133,384,4,478
2025-02-20 15:45:18.118,-157.0,-804.0,-578.0,-14.0,167.0,288.0,135,119,98,133,132,375,2,484
2025-02-20 15:45:18.140,-990.0,-1441.0,-364.0,33.0,351.0,308.0,135,115,94,132,132,379,3,489
2025-02-20 15:45:18.155,-7.0,-746.0,-174.0,83.0,63.0,321.0,135,107,85,124,126,457,3,478
2025-02-20 15:45:18.178,10.0,-508.0,143.0,61.0,171.0,322.0,135,98,79,117,112,467,3,469
2025-02-20 15:45:18.197,-140.0,-355.0,143.0,-15.0,155.0,344.0,135,90,75,106,94,534,2,468
2025-02-20 15:45:18.215,-269.0,-63.0,-151.0,-175.0,167.0,356.0,135,81,69,100,79,563,2,461
2025-02-20 15:45:18.234,-426.0,-15.0,-155.0,64.0,53.0,387.0,135,74,65,96,65,536,4,455
2025-02-20 15:45:18.252,-11.0,265.0,168.0,221.0,-24.0,308.0,134,68,64,99,64,453,2,449
2025-02-20 15:45:18.272,-201.0,1790.0,-399.0,365.0,5.0,103.0,134,67,63,99,61,418,3,453
2025-02-20 15:45:18.292,-471.0,2893.0,-870.0,364.0,66.0,-184.0,133,58,57,91,53,463,2,442
2025-02-20 15:45:18.309,-1570.0,3605.0,-1118.0,83.0,-109.0,-472.0,134,54,52,79,48,528,2,446
2025-02-20 15:45:18.329,-1194.0,3074.0,-1989.0,-175.0,-442.0,-732.0,134,51,49,78,47,593,2,443
2025-02-20 15:45:18.349,1060.0,1183.0,-2146.0,-352.0,-790.0,-868.0,136,52,49,82,50,500,2,447
2025-02-20 15:45:18.367,4190.0,-1611.0,-339.0,-471.0,-806.0,-635.0,144,53,51,84,52,465,1,458
2025-02-20 15:45:18.386,5058.0,-5006.0,667.0,-562.0,-375.0,-252.0,145,54,50,85,52,403,1,458
2025-02-20 15:45:18.404,3275.0,-6616.0,678.0,31.0,203.0,-83.0,145,54,51,84,52,392,2,458
2025-02-20 15:45:18.423,1240.0,-3116.0,-1141.0,136.0,224.0,155.0,143,53,50,81,51,397,2,461
2025-02-20 15:45:18.443,91.0,-1737.0,-983.0,70.0,55.0,171.0,144,56,51,82,51,400,3,457
2025-02-20 15:45:18.459,517.0,-2061.0,-53.0,11.0,47.0,158.0,145,57,52,83,52,441,4,455
2025-02-20 15:45:18.481,428.0,-1959.0,66.0,73.0,84.0,201.0,147,59,53,86,54,403,4,441
2025-02-20 15:45:18.501,347.0,-1534.0,-19.0,140.0,139.0,242.0,147,59,53,87,54,433,4,445
2025-02-20 15:45:18.518,57.0,-1159.0,21.0,162.0,99.0,317.0,146,58,54,85,54,445,3,480
2025-02-20 15:45:18.538,327.0,-212.0,293.0,193.0,114.0,248.0,146,56,53,85,53,451,2,494
2025-02-20 15:45:18.559,89.0,-383.0,498.0,135.0,159.0,247.0,145,58,54,87,53,548,2,506
2025-02-20 15:45:18.573,-167.0,-239.0,221.0,75.0,196.0,274.0,145,57,53,88,54,572,2,505
2025-02-20 15:45:18.590,-433.0,-328.0,-117.0,36.0,183.0,304.0,144,57,54,86,53,550,2,493
2025-02-20 15:45:18.616,-185.0,167.0,134.0,63.0,124.0,273.0,144,57,54,86,54,507,2,485
2025-02-20 15:45:18.633,-207.0,299.0,-172.0,157.0,166.0,209.0,144,57,54,87,53,556,3,478
2025-02-20 15:45:18.652,-575.0,764.0,-125.0,102.0,176.0,175.0,144,57,51,87,54,557,2,462
2025-02-20 15:45:18.670,-891.0,1050.0,-288.0,55.0,141.0,96.0,143,59,58,87,54,527,3,441
2025-02-20 15:45:18.690,-1087.0,1685.0,-477.0,84.0,98.0,-103.0,140,58,54,86,54,478,2,448
2025-02-20 15:45:18.710,-1313.0,1936.0,-919.0,115.0,-24.0,-257.0,139,57,54,86,55,405,2,461
2025-02-20 15:45:18.727,-1552.0,2549.0,-1157.0,-12.0,-192.0,-452.0,139,58,54,87,54,411,2,458
2025-02-20 15:45:18.747,-606.0,2750.0,-1793.0,-264.0,-530.0,-758.0,140,58,54,89,55,386,2,456
2025-02-20 15:45:18.767,1979.0,1711.0,-1788.0,-657.0,-774.0,-883.0,142,57,54,90,55,411,2,463
2025-02-20 15:45:18.785,4564.0,-2704.0,-1119.0,-805.0,-654.0,-633.0,140,57,55,90,56,410,2,451
2025-02-20 15:45:18.804,5178.0,-6837.0,240.0,-298.0,-33.0,-244.0,141,58,55,92,55,490,2,425
2025-02-20 15:45:18.825,2911.0,-4537.0,-1667.0,304.0,277.0,66.0,139,58,55,91,53,467,2,437
2025-02-20 15:45:18.842,337.0,-1463.0,-2117.0,101.0,47.0,185.0,137,59,56,88,54,460,2,443
2025-02-20 15:45:18.862,440.0,-1723.0,-568.0,33.0,-26.0,137.0,139,60,56,90,55,521,2,459
2025-02-20 15:45:18.878,788.0,-2146.0,-88.0,131.0,45.0,159.0,141,63,60,94,59,508,5,519
2025-02-20 15:45:18.899,385.0,-1732.0,-203.0,117.0,137.0,225.0,143,65,62,95,58,498,4,521
2025-02-20 15:45:18.919,105.0,-1456.0,-391.0,201.0,168.0,264.0,141,64,62,95,57,433,4,522
2025-02-20 15:45:18.936,220.0,-1191.0,-54.0,253.0,154.0,278.0,139,65,63,93,57,308,3,503
2025-02-20 15:45:18.956,201.0,-821.0,58.0,266.0,149.0,299.0,138,68,66,96,58,422,2,487
2025-02-20 15:45:18.976,43.0,-811.0,320.0,213.0,233.0,312.0,138,72,69,96,59,539,2,466
2025-02-20 15:45:18.992,372.0,-448.0,207.0,111.0,307.0,338.0,138,78,73,96,59,567,2,464
2025-02-20 15:45:19.013,32.0,-134.0,-93.0,138.0,282.0,401.0,138,85,76,95,61,578,2,459
2025-02-20 15:45:19.033,-49.0,-77.0,-137.0,164.0,256.0,400.0,138,93,81,95,62,521,2,437
2025-02-20 15:45:19.050,-235.0,333.0,-150.0,179.0,246.0,393.0,138,100,86,94,64,533,1,435
2025-02-20 15:45:19.071,-364.0,392.0,-295.0,160.0,219.0,348.0,138,106,89,94,65,535,2,422
2025-02-20 15:45:19.091,-595.0,741.0,-744.0,187.0,168.0,274.0,138,109,93,94,64,499,2,423
2025-02-20 15:45:19.108,-915.0,1253.0,-921.0,194.0,69.0,120.0,138,113,98,93,64,486,2,426
2025-02-20 15:45:19.128,-1224.0,1813.0,-1257.0,82.0,-77.0,-74.0,138,115,101,93,65,472,2,431
2025-02-20 15:45:19.147,-1344.0,2097.0,-1319.0,40.0,-221.0,-368.0,139,118,103,91,63,480,1,444
2025-02-20 15:45:19.165,-973.0,2013.0,-1285.0,34.0,-423.0,-612.0,138,122,105,94,62,448,2,450
2025-02-20 15:45:19.171,-387.0,2000.0,-1183.0,-91.0,-702.0,-849.0,137,123,107,96,61,401,2,455
2025-02-20 15:45:19.202,2235.0,639.0,-609.0,-371.0,-927.0,-887.0,136,126,108,99,63,370,2,441
2025-02-20 15:45:19.223,2995.0,-2297.0,-164.0,-381.0,-877.0,-622.0,135,127,106,101,63,404,1,444
2025-02-20 15:45:19.239,4617.0,-4889.0,-28.0,-290.0,-490.0,-171.0,136,130,107,102,64,424,3,458
2025-02-20 15:45:19.257,3935.0,-4537.0,1017.0,118.0,63.0,96.0,136,131,108,100,65,468,2,461
2025-02-20 15:45:19.280,1379.0,-2562.0,615.0,306.0,355.0,134.0,137,131,108,100,62,446,2,487
2025-02-20 15:45:19.299,508.0,-1664.0,237.0,158.0,285.0,179.0,136,131,109,101,62,422,2,501
2025-02-20 15:45:19.310,321.0,-1504.0,309.0,30.0,193.0,235.0,137,131,107,99,63,408,1,497
2025-02-20 15:45:19.336,113.0,-1181.0,281.0,-22.0,173.0,242.0,138,131,109,100,62,493,2,496
2025-02-20 15:45:19.355,220.0,-1030.0,387.0,25.0,210.0,254.0,137,131,108,100,62,414,1,494
2025-02-20 15:45:19.373,14.0,-872.0,177.0,77.0,258.0,284.0,139,132,109,99,63,380,3,482
2025-02-20 15:45:19.394,-144.0,-422.0,138.0,102.0,273.0,307.0,139,132,108,99,64,374,4,448
2025-02-20 15:45:19.411,-326.0,-157.0,169.0,85.0,266.0,311.0,138,132,110,100,64,382,3,444
2025-02-20 15:45:19.431,-452.0,178.0,4.0,40.0,240.0,299.0,139,132,109,99,63,442,4,466
2025-02-20 15:45:19.451,-433.0,162.0,16.0,41.0,219.0,263.0,139,132,110,99,62,525,2,478
2025-02-20 15:45:19.468,-271.0,211.0,91.0,54.0,256.0,248.0,138,131,111,97,63,546,3,475
2025-02-20 15:45:19.488,-549.0,322.0,-109.0,49.0,262.0,252.0,138,130,109,95,63,527,2,469
2025-02-20 15:45:19.508,-834.0,683.0,-514.0,37.0,166.0,181.0,137,131,110,95,61,514,3,468
2025-02-20 15:45:19.525,-1036.0,1143.0,-1200.0,26.0,23.0,13.0,138,130,110,94,62,528,2,460
2025-02-20 15:45:19.546,-1193.0,1696.0,-1059.0,111.0,-102.0,-269.0,137,130,110,95,61,505,4,450
2025-02-20 15:45:19.566,-1201.0,1997.0,-917.0,19.0,-288.0,-497.0,137,130,109,95,62,468,2,452
2025-02-20 15:45:19.583,-938.0,1574.0,-777.0,-38.0,-478.0,-757.0,137,131,111,96,62,447,3,448
2025-02-20 15:45:19.603,762.0,1054.0,-527.0,-89.0,-704.0,-845.0,136,131,111,101,63,336,3,433
2025-02-20 15:45:19.623,1973.0,-470.0,-338.0,-276.0,-821.0,-701.0,137,132,111,101,63,336,3,448
2025-02-20 15:45:19.640,4326.0,-3388.0,77.0,-300.0,-582.0,-370.0,137,132,110,102,64,339,2,451
2025-02-20 15:45:19.660,3807.0,-4145.0,673.0,-66.0,-123.0,-61.0,137,133,110,103,64,473,3,444
2025-02-20 15:45:19.677,2401.0,-2858.0,442.0,90.0,154.0,64.0,137,133,110,101,62,479,2,449
2025-02-20 15:45:19.698,885.0,-2371.0,252.0,76.0,169.0,121.0,137,133,110,102,62,519,2,455
2025-02-20 15:45:19.712,530.0,-1930.0,218.0,7.0,122.0,185.0,138,133,109,103,62,528,2,456
2025-02-20 15:45:19.735,554.0,-1781.0,181.0,-6.0,133.0,205.0,138,133,108,102,62,532,2,469
2025-02-20 15:45:19.754,625.0,-1760.0,407.0,-14.0,172.0,253.0,138,133,109,103,62,446,2,467
2025-02-20 15:45:19.774,449.0,-1345.0,204.0,40.0,188.0,290.0,138,132,107,102,64,351,2,461
2025-02-20 15:45:19.792,247.0,-988.0,170.0,39.0,185.0,316.0,139,131,106,103,64,396,2,482
2025-02-20 15:45:19.812,195.0,-681.0,118.0,27.0,176.0,346.0,138,130,104,101,65,458,2,491
2025-02-20 15:45:19.829,-9.0,-349.0,185.0,-14.0,177.0,369.0,140,127,101,102,67,542,3,484
2025-02-20 15:45:19.848,-181.0,-129.0,337.0,-62.0,165.0,385.0,141,121,93,101,67,579,3,477
2025-02-20 15:45:19.869,-93.0,28.0,197.0,-76.0,185.0,406.0,142,115,86,101,68,575,2,468
2025-02-20 15:45:19.886,-146.0,129.0,109.0,-98.0,184.0,422.0,142,105,76,99,67,535,2,464
2025-02-20 15:45:19.906,-348.0,118.0,-23.0,-25.0,156.0,371.0,142,96,69,100,65,543,1,458
2025-02-20 15:45:19.926,-259.0,559.0,-97.0,78.0,166.0,309.0,143,83,66,95,64,504,2,445
2025-02-20 15:45:19.944,-519.0,1064.0,-553.0,163.0,114.0,186.0,143,72,63,95,65,490,2,445
2025-02-20 15:45:19.962,-897.0,1625.0,-1062.0,197.0,-44.0,35.0,142,71,62,95,64,489,3,454
2025-02-20 15:45:19.984,-841.0,2557.0,-979.0,146.0,-193.0,-164.0,142,65,59,96,61,488,1,461
2025-02-20 15:45:20.001,-545.0,2544.0,-1385.0,122.0,-255.0,-417.0,141,61,56,95,59,454,1,468
2025-02-20 15:45:20.020,-642.0,2331.0,-1332.0,-24.0,-378.0,-600.0,140,57,52,94,56,406,2,466
2025-02-20 15:45:20.040,335.0,1893.0,-1546.0,-199.0,-619.0,-826.0,140,56,51,95,57,345,1,468
2025-02-20 15:45:20.058,2646.0,-246.0,-1535.0,-329.0,-823.0,-861.0,144,57,47,99,58,339,3,470
2025-02-20 15:45:20.077,4643.0,-2989.0,-121.0,-460.0,-804.0,-491.0,146,58,52,99,59,441,1,466
2025-02-20 15:45:20.095,4872.0,-6037.0,1500.0,-248.0,-183.0,-181.0,147,60,53,99,59,484,2,452
2025-02-20 15:45:20.114,2669.0,-4867.0,432.0,25.0,153.0,-36.0,146,60,52,99,57,464,1,458
2025-02-20 15:45:20.135,238.0,-2383.0,-903.0,-15.0,24.0,129.0,146,62,52,97,58,386,2,459
2025-02-20 15:45:20.152,302.0,-2245.0,-221.0,18.0,-10.0,122.0,147,62,54,99,58,499,2,463
2025-02-20 15:45:20.173,576.0,-2250.0,209.0,23.0,36.0,164.0,148,63,54,98,58,489,1,475
2025-02-20 15:45:20.192,305.0,-1945.0,132.0,79.0,127.0,202.0,148,64,54,99,59,460,2,476
2025-02-20 15:45:20.209,218.0,-1533.0,64.0,110.0,151.0,243.0,148,64,55,98,58,455,2,465
2025-02-20 15:45:20.228,142.0,-1117.0,185.0,99.0,121.0,303.0,148,64,55,96,58,406,2,452
2025-02-20 15:45:20.246,81.0,-564.0,290.0,127.0,104.0,288.0,148,62,55,96,58,439,2,449
2025-02-20 15:45:20.266,74.0,-313.0,323.0,136.0,143.0,249.0,149,64,56,98,58,537,3,460
2025-02-20 15:45:20.287,-119.0,-122.0,156.0,75.0,166.0,264.0,148,64,56,98,59,591,3,467
2025-02-20 15:45:20.304,-38.0,-127.0,103.0,19.0,201.0,291.0,147,63,57,98,59,576,2,468
2025-02-20 15:45:20.324,-233.0,258.0,206.0,39.0,144.0,289.0,147,62,59,98,59,548,2,470
2025-02-20 15:45:20.344,-265.0,450.0,1.0,146.0,165.0,166.0,147,64,58,98,60,531,3,465
2025-02-20 15:45:20.361,-624.0,1270.0,-142.0,129.0,158.0,127.0,147,63,59,93,59,497,2,461
2025-02-20 15:45:20.379,-752.0,1768.0,-91.0,83.0,94.0,-27.0,146,63,59,91,59,432,1,457
2025-02-20 15:45:20.398,-1295.0,1766.0,-757.0,88.0,32.0,-253.0,144,64,60,93,60,411,2,457
2025-02-20 15:45:20.419,-1450.0,2050.0,-1009.0,38.0,-116.0,-422.0,142,64,58,97,60,452,2,460
2025-02-20 15:45:20.438,-762.0,1818.0,-1273.0,-34.0,-302.0,-617.0,142,64,59,100,60,508,1,472
2025-02-20 15:45:20.459,740.0,1680.0,-1094.0,-281.0,-605.0,-728.0,145,64,59,101,61,463,2,469
2025-02-20 15:45:20.476,3135.0,-150.0,-202.0,-616.0,-679.0,-714.0,146,65,59,101,62,476,1,473
2025-02-20 15:45:20.496,4942.0,-4197.0,-108.0,-704.0,-331.0,-389.0,147,65,60,101,62,435,1,469
2025-02-20 15:45:20.513,4648.0,-7431.0,-199.0,-25.0,235.0,-79.0,141,66,60,103,60,434,1,473
2025-02-20 15:45:20.533,1623.0,-3119.0,-2030.0,222.0,261.0,186.0,138,67,60,102,58,315,2,469
2025-02-20 15:45:20.553,15.0,-1530.0,-2172.0,35.0,30.0,219.0,138,69,59,102,58,331,2,483
2025-02-20 15:45:20.570,202.0,-2257.0,-874.0,88.0,20.0,160.0,140,70,62,106,61,457,3,494
2025-02-20 15:45:20.590,371.0,-2234.0,-468.0,151.0,49.0,199.0,141,71,63,107,62,500,4,475
2025-02-20 15:45:20.611,480.0,-1660.0,-30.0,196.0,79.0,231.0,141,72,64,104,63,438,3,470
2025-02-20 15:45:20.627,543.0,-1629.0,0.0,241.0,83.0,247.0,140,72,64,105,64,495,4,470
2025-02-20 15:45:20.647,308.0,-1289.0,66.0,301.0,134.0,277.0,138,72,65,97,64,567,5,467
2025-02-20 15:45:20.667,519.0,-837.0,308.0,328.0,206.0,322.0,137,75,65,95,65,474,2,457
2025-02-20 15:45:20.684,409.0,-502.0,197.0,270.0,287.0,338.0,138,77,66,97,68,429,2,473
2025-02-20 15:45:20.705,-87.0,-103.0,494.0,182.0,316.0,342.0,138,80,67,97,69,465,2,489
2025-02-20 15:45:20.722,73.0,257.0,-320.0,132.0,390.0,351.0,138,82,67,98,73,519,2,505
2025-02-20 15:45:20.742,39.0,540.0,-279.0,90.0,400.0,336.0,137,84,69,98,74,552,2,480
2025-02-20 15:45:20.762,-346.0,694.0,-578.0,126.0,267.0,311.0,138,85,70,98,75,523,3,463
2025-02-20 15:45:20.778,-494.0,693.0,-308.0,80.0,264.0,265.0,138,82,68,98,76,458,2,460
2025-02-20 15:45:20.799,-467.0,398.0,-384.0,92.0,227.0,247.0,135,75,66,94,74,451,2,455
2025-02-20 15:45:20.819,-786.0,321.0,-979.0,214.0,141.0,175.0,133,69,64,91,69,477,3,450
2025-02-20 15:45:20.836,-1452.0,1061.0,-1231.0,213.0,6.0,24.0,131,62,58,82,62,455,1,435
2025-02-20 15:45:20.856,-1607.0,1902.0,-1727.0,233.0,-360.0,-230.0,129,58,54,80,55,427,2,436
2025-02-20 15:45:20.877,-1126.0,2198.0,-2787.0,199.0,-734.0,-465.0,118,56,53,80,57,400,2,444
2025-02-20 15:45:20.894,909.0,-201.0,-1946.0,202.0,-979.0,-425.0,114,55,50,79,57,358,2,444
2025-02-20 15:45:20.913,3166.0,-1089.0,817.0,436.0,-978.0,-213.0,117,56,51,78,58,402,0,455
2025-02-20 15:45:20.931,3108.0,-296.0,4081.0,308.0,-571.0,-57.0,121,57,53,79,60,307,4,442
2025-02-20 15:45:20.950,2232.0,-979.0,4457.0,67.0,-151.0,-37.0,121,58,53,81,60,250,2,449
2025-02-20 15:45:20.971,1377.0,-1062.0,3577.0,-2.0,91.0,28.0,117,57,53,80,59,248,1,453
2025-02-20 15:45:20.987,186.0,-516.0,2539.0,-115.0,186.0,40.0,117,58,54,80,60,351,2,470
2025-02-20 15:45:21.008,174.0,-817.0,1939.0,-149.0,212.0,59.0,117,57,54,83,60,524,1,478
2025-02-20 15:45:21.019,-118.0,-869.0,1476.0,-157.0,278.0,84.0,120,58,56,85,61,572,2,476
2025-02-20 15:45:21.045,-196.0,-778.0,1128.0,-124.0,286.0,117.0,120,58,58,85,61,517,2,479
2025-02-20 15:45:21.065,-263.0,-323.0,817.0,-151.0,303.0,151.0,120,58,56,83,60,549,2,466
2025-02-20 15:45:21.085,-459.0,-188.0,390.0,-169.0,268.0,154.0,121,59,57,82,61,601,1,456
2025-02-20 15:45:21.102,-433.0,-88.0,278.0,-148.0,241.0,123.0,122,59,58,80,60,541,1,450
2025-02-20 15:45:21.122,-733.0,-199.0,65.0,-103.0,207.0,108.0,121,60,57,81,61,498,2,454
2025-02-20 15:45:21.142,-506.0,-127.0,152.0,-68.0,187.0,113.0,118,60,52,79,59,553,2,457
2025-02-20 15:45:21.160,-482.0,164.0,15.0,-91.0,182.0,115.0,114,60,58,78,58,609,1,441
2025-02-20 15:45:21.180,-247.0,233.0,-178.0,-106.0,136.0,95.0,113,60,57,81,59,593,2,442
2025-02-20 15:45:21.197,-445.0,86.0,-121.0,-92.0,120.0,75.0,115,59,58,80,59,535,1,447
2025-02-20 15:45:21.217,-630.0,66.0,-152.0,-45.0,99.0,64.0,117,61,57,80,59,518,2,458
2025-02-20 15:45:21.237,-629.0,229.0,-450.0,10.0,55.0,17.0,116,60,58,80,59,514,2,473
2025-02-20 15:45:21.254,-677.0,392.0,-711.0,82.0,-10.0,-31.0,114,61,59,79,59,470,2,465
2025-02-20 15:45:21.274,-1210.0,816.0,-1760.0,169.0,-160.0,-133.0,109,58,58,78,58,453,2,455
2025-02-20 15:45:21.295,-1671.0,1116.0,-2917.0,262.0,-546.0,-273.0,107,59,56,77,56,448,2,453
2025-02-20 15:45:21.312,182.0,1174.0,-2574.0,347.0,-911.0,-327.0,107,59,56,78,57,430,2,465
2025-02-20 15:45:21.330,2641.0,347.0,-644.0,338.0,-1042.0,-268.0,114,58,56,79,60,437,2,479
2025-02-20 15:45:21.347,3973.0,-1736.0,3535.0,446.0,-676.0,-88.0,122,59,59,79,60,423,2,477
2025-02-20 15:45:21.368,3049.0,85.0,5113.0,206.0,-201.0,2.0,123,60,59,80,62,363,1,454
2025-02-20 15:45:21.388,1726.0,-187.0,4361.0,-111.0,131.0,19.0,124,60,59,82,62,334,2,466
2025-02-20 15:45:21.403,696.0,-584.0,2692.0,-230.0,230.0,66.0,122,61,60,83,63,288,2,469
2025-02-20 15:45:21.425,340.0,-746.0,2104.0,-201.0,294.0,62.0,126,61,60,85,63,310,2,478
2025-02-20 15:45:21.446,97.0,-784.0,1678.0,-156.0,345.0,62.0,130,62,62,88,65,415,2,472
2025-02-20 15:45:21.463,-115.0,-766.0,1186.0,-128.0,372.0,80.0,132,64,63,88,67,509,2,490
2025-02-20 15:45:21.482,-116.0,-654.0,792.0,-116.0,363.0,114.0,133,67,65,87,68,516,2,480
2025-02-20 15:45:21.503,-137.0,-379.0,616.0,-95.0,341.0,133.0,134,70,63,86,67,439,2,455
2025-02-20 15:45:21.521,-51.0,-374.0,477.0,-88.0,352.0,137.0,134,77,63,86,68,401,2,444
2025-02-20 15:45:21.541,-248.0,-285.0,145.0,-62.0,351.0,161.0,134,84,64,85,69,423,2,435
2025-02-20 15:45:21.559,-330.0,-182.0,19.0,-28.0,320.0,175.0,132,89,64,85,69,515,2,474
2025-02-20 15:45:21.577,-81.0,-62.0,-69.0,-9.0,284.0,181.0,132,95,66,87,70,517,2,481
2025-02-20 15:45:21.598,-493.0,276.0,-445.0,-15.0,231.0,184.0,129,98,67,87,70,515,1,475
2025-02-20 15:45:21.615,-709.0,446.0,-695.0,-11.0,178.0,139.0,126,100,66,87,71,559,2,468
2025-02-20 15:45:21.634,-1132.0,343.0,-1194.0,83.0,21.0,45.0,120,103,64,86,71,555,2,463
2025-02-20 15:45:21.655,-1448.0,711.0,-1490.0,155.0,-215.0,-81.0,110,104,61,84,67,540,1,458
2025-02-20 15:45:21.669,-1019.0,829.0,-2020.0,176.0,-486.0,-162.0,97,104,60,81,61,523,6,433
2025-02-20 15:45:21.692,-212.0,788.0,-2782.0,205.0,-832.0,-186.0,88,108,58,77,59,497,1,433
2025-02-20 15:45:21.712,1674.0,483.0,-2605.0,323.0,-1153.0,-151.0,87,111,58,76,60,443,1,440
2025-02-20 15:45:21.730,2855.0,-135.0,-619.0,429.0,-1133.0,0.0,89,111,56,76,62,419,2,449
2025-02-20 15:45:21.748,2943.0,464.0,1198.0,399.0,-891.0,40.0,96,114,58,77,65,414,2,441
2025-02-20 15:45:21.769,3580.0,628.0,3385.0,266.0,-565.0,36.0,107,117,58,77,66,362,0,454
2025-02-20 15:45:21.785,3100.0,999.0,4415.0,112.0,-111.0,53.0,111,119,59,79,68,401,2,472
2025-02-20 15:45:21.802,2419.0,872.0,3342.0,-132.0,154.0,42.0,111,119,59,79,68,369,1,479
2025-02-20 15:45:21.827,1362.0,386.0,2257.0,-195.0,274.0,27.0,110,119,60,81,68,417,2,474
2025-02-20 15:45:21.844,913.0,193.0,1968.0,-132.0,352.0,-8.0,111,119,60,83,69,440,2,476
2025-02-20 15:45:21.864,531.0,304.0,1311.0,-170.0,393.0,-45.0,115,118,59,84,71,447,1,477
2025-02-20 15:45:21.881,388.0,-92.0,1133.0,-135.0,386.0,-52.0,109,118,58,84,70,473,2,472
2025-02-20 15:45:21.901,375.0,-75.0,909.0,-118.0,327.0,-25.0,102,118,58,82,68,485,2,442
2025-02-20 15:45:21.920,266.0,-184.0,870.0,-109.0,272.0,14.0,103,117,60,83,69,476,1,442
2025-02-20 15:45:21.937,186.0,-89.0,928.0,-143.0,311.0,26.0,106,118,59,83,70,461,2,449
2025-02-20 15:45:21.959,-43.0,-280.0,458.0,-132.0,330.0,56.0,105,118,59,83,70,475,1,460
2025-02-20 15:45:21.978,-160.0,-169.0,229.0,-106.0,284.0,70.0,99,118,59,84,69,442,2,487
2025-02-20 15:45:21.995,-249.0,29.0,150.0,-112.0,227.0,66.0,97,117,60,84,67,494,3,510
2025-02-20 15:45:22.016,-309.0,29.0,357.0,-139.0,208.0,54.0,100,117,59,84,69,539,1,498
2025-02-20 15:45:22.035,-386.0,-162.0,204.0,-127.0,213.0,85.0,100,116,59,85,68,515,2,491
2025-02-20 15:45:22.053,-536.0,-223.0,19.0,-45.0,185.0,95.0,98,116,60,85,68,491,2,479
2025-02-20 15:45:22.073,-645.0,17.0,-59.0,29.0,118.0,72.0,96,116,60,84,67,470,2,472
2025-02-20 15:45:22.089,-657.0,276.0,147.0,41.0,72.0,21.0,96,116,60,84,67,461,2,468
2025-02-20 15:45:22.110,-655.0,281.0,220.0,-2.0,65.0,-2.0,97,117,60,84,67,468,2,469
2025-02-20 15:45:22.130,-700.0,23.0,-85.0,3.0,54.0,12.0,94,116,60,85,66,483,2,467
2025-02-20 15:45:22.147,-1036.0,254.0,-917.0,54.0,-50.0,-13.0,90,116,58,82,64,492,2,458
2025-02-20 15:45:22.168,-1799.0,875.0,-2502.0,185.0,-397.0,-141.0,87,117,58,81,60,486,1,441
2025-02-20 15:45:22.185,-626.0,1199.0,-2815.0,268.0,-933.0,-208.0,85,118,56,81,60,483,2,449
2025-02-20 15:45:22.204,1661.0,-18.0,-1517.0,354.0,-1100.0,-92.0,88,120,58,79,61,427,1,435
2025-02-20 15:45:22.225,2723.0,186.0,734.0,405.0,-948.0,-11.0,94,120,58,78,64,404,2,446
2025-02-20 15:45:22.244,3630.0,220.0,3190.0,347.0,-562.0,7.0,105,121,59,78,66,356,2,446
2025-02-20 15:45:22.261,3729.0,1058.0,4571.0,140.0,-159.0,35.0,110,121,60,79,68,333,2,456
2025-02-20 15:45:22.282,2658.0,932.0,3970.0,-129.0,189.0,39.0,111,121,62,81,69,359,2,472
2025-02-20 15:45:22.298,1652.0,430.0,2569.0,-281.0,321.0,67.0,112,120,63,81,68,402,1,470
2025-02-20 15:45:22.320,868.0,182.0,2034.0,-324.0,403.0,88.0,112,117,62,83,69,429,1,471
2025-02-20 15:45:22.339,721.0,141.0,1874.0,-387.0,495.0,79.0,114,109,63,84,69,460,2,474
2025-02-20 15:45:22.356,763.0,443.0,1474.0,-466.0,581.0,63.0,115,98,62,85,69,498,2,461
2025-02-20 15:45:22.372,830.0,184.0,968.0,-481.0,636.0,71.0,114,89,64,87,70,473,2,449
2025-02-20 15:45:22.396,558.0,-157.0,491.0,-411.0,636.0,106.0,115,79,63,87,68,445,2,445
2025-02-20 15:45:22.414,252.0,-253.0,-271.0,-321.0,543.0,146.0,113,73,63,87,65,412,3,463
2025-02-20 15:45:22.433,-49.0,7.0,-272.0,-287.0,447.0,106.0,112,73,63,89,65,394,2,483
2025-02-20 15:45:22.454,-76.0,211.0,-531.0,-297.0,419.0,120.0,113,75,61,90,66,445,2,488
2025-02-20 15:45:22.471,-382.0,87.0,-709.0,-285.0,341.0,132.0,116,78,62,91,70,512,3,485
2025-02-20 15:45:22.491,-531.0,-199.0,-1122.0,-235.0,231.0,167.0,119,80,62,92,74,520,1,479
2025-02-20 15:45:22.506,-391.0,-334.0,-968.0,34.0,155.0,172.0,120,82,67,97,82,513,3,472
2025-02-20 15:45:22.527,-619.0,555.0,-737.0,278.0,87.0,135.0,121,84,71,103,96,478,2,479
2025-02-20 15:45:22.548,-638.0,997.0,-1008.0,196.0,-81.0,46.0,122,89,75,113,104,424,1,473
2025-02-20 15:45:22.565,-761.0,917.0,-1398.0,111.0,-224.0,-57.0,123,97,79,116,110,399,1,468
2025-02-20 15:45:22.586,-935.0,1258.0,-1531.0,8.0,-440.0,-320.0,123,106,83,117,115,403,2,472
2025-02-20 15:45:22.605,-557.0,1605.0,-1193.0,1.0,-557.0,-552.0,124,112,90,120,124,430,2,469
2025-02-20 15:45:22.623,570.0,603.0,70.0,-215.0,-737.0,-788.0,124,119,94,126,128,460,2,473
2025-02-20 15:45:22.639,1305.0,-428.0,221.0,-426.0,-774.0,-801.0,122,123,98,130,129,315,3,476
2025-02-20 15:45:22.662,2821.0,-1675.0,-225.0,-472.0,-814.0,-619.0,122,125,101,127,131,328,1,469
2025-02-20 15:45:22.679,3512.0,-4169.0,-360.0,-375.0,-501.0,-161.0,119,126,104,132,132,364,2,460
2025-02-20 15:45:22.699,2721.0,-4473.0,378.0,-7.0,-55.0,130.0,121,131,103,133,133,422,2,481
2025-02-20 15:45:22.719,1391.0,-3087.0,115.0,-113.0,69.0,226.0,123,127,103,133,133,509,2,506
2025-02-20 15:45:22.736,99.0,-1797.0,-526.0,243.0,184.0,254.0,125,129,104,134,133,563,2,513
2025-02-20 15:45:22.757,70.0,-1130.0,78.0,280.0,131.0,264.0,125,128,104,133,133,608,2,507
2025-02-20 15:45:22.769,-125.0,-1056.0,6.0,78.0,124.0,238.0,125,128,104,134,133,574,2,495
2025-02-20 15:45:22.792,-247.0,-1272.0,604.0,-50.0,171.0,246.0,124,129,104,133,133,448,1,478
2025-02-20 15:45:22.814,-60.0,-759.0,-30.0,64.0,192.0,222.0,124,128,105,134,134,424,2,463
2025-02-20 15:45:22.831,-373.0,-833.0,484.0,156.0,119.0,227.0,124,128,105,133,134,518,2,463
2025-02-20 15:45:22.850,-235.0,-503.0,479.0,159.0,157.0,247.0,124,127,103,133,134,542,1,473
2025-02-20 15:45:22.870,-57.0,-263.0,486.0,-120.0,199.0,250.0,124,128,104,134,134,504,2,451
2025-02-20 15:45:22.888,-500.0,-19.0,242.0,-143.0,192.0,237.0,123,128,104,133,134,490,2,440
2025-02-20 15:45:22.907,-443.0,-40.0,36.0,45.0,122.0,213.0,123,128,104,134,135,557,2,458
2025-02-20 15:45:22.928,-424.0,68.0,189.0,2.0,130.0,196.0,122,127,103,133,134,470,1,486
2025-02-20 15:45:22.945,-587.0,11.0,128.0,6.0,129.0,168.0,122,127,104,134,135,396,2,488
2025-02-20 15:45:22.965,-689.0,376.0,125.0,60.0,97.0,134.0,122,127,103,133,135,474,2,483
2025-02-20 15:45:22.983,-654.0,565.0,-10.0,96.0,80.0,68.0,121,127,104,133,135,488,2,469
2025-02-20 15:45:23.003,-798.0,727.0,-391.0,137.0,43.0,-44.0,122,127,104,132,135,487,2,446
2025-02-20 15:45:23.021,-1075.0,1313.0,-571.0,186.0,-24.0,-251.0,122,126,105,132,135,406,2,451
2025-02-20 15:45:23.043,-1428.0,1525.0,-774.0,178.0,-194.0,-455.0,123,126,104,133,136,392,1,478
2025-02-20 15:45:23.060,-990.0,1595.0,-855.0,144.0,-454.0,-732.0,125,127,105,133,134,399,2,478
2025-02-20 15:45:23.080,1598.0,693.0,-984.0,-142.0,-842.0,-856.0,118,130,106,134,135,348,2,470
2025-02-20 15:45:23.097,3203.0,-1816.0,489.0,-491.0,-676.0,-744.0,118,130,105,134,135,321,1,475
2025-02-20 15:45:23.118,4083.0,-4998.0,-1298.0,-297.0,-467.0,-226.0,115,130,106,134,135,381,2,470
2025-02-20 15:45:23.136,3393.0,-5311.0,-175.0,76.0,9.0,188.0,120,130,105,134,135,482,2,442
2025-02-20 15:45:23.153,1433.0,-2607.0,-2.0,-205.0,131.0,338.0,127,131,102,133,134,478,2,455
2025-02-20 15:45:23.172,369.0,-1803.0,680.0,436.0,309.0,302.0,132,131,101,133,129,555,2,487
2025-02-20 15:45:23.189,190.0,-1365.0,705.0,272.0,256.0,269.0,134,130,97,133,124,574,2,497
2025-02-20 15:45:23.211,-145.0,-1155.0,272.0,115.0,287.0,244.0,133,130,91,130,114,467,2,490
2025-02-20 15:45:23.232,-101.0,-1340.0,405.0,183.0,257.0,252.0,132,130,78,116,101,352,2,486
2025-02-20 15:45:23.248,407.0,-1559.0,294.0,212.0,206.0,338.0,130,129,65,96,93,352,1,484
2025-02-20 15:45:23.269,441.0,-913.0,18.0,197.0,236.0,317.0,129,128,60,89,79,422,2,509
2025-02-20 15:45:23.289,-72.0,-430.0,-49.0,213.0,256.0,316.0,128,125,56,87,70,512,2,503
2025-02-20 15:45:23.306,-155.0,-16.0,-38.0,167.0,287.0,349.0,127,123,54,84,64,571,2,490
2025-02-20 15:45:23.325,-289.0,99.0,-406.0,186.0,260.0,355.0,126,122,55,84,59,574,2,480
2025-02-20 15:45:23.346,-322.0,339.0,-331.0,205.0,224.0,306.0,123,120,55,83,57,501,2,474
2025-02-20 15:45:23.364,-451.0,668.0,-498.0,168.0,177.0,240.0,119,117,56,80,57,439,2,469
2025-02-20 15:45:23.383,-658.0,721.0,-1003.0,189.0,92.0,125.0,110,115,54,76,56,452,2,460
2025-02-20 15:45:23.404,-1036.0,845.0,-1154.0,205.0,-84.0,-14.0,102,114,54,74,57,537,2,451
2025-02-20 15:45:23.421,-1355.0,1033.0,-1491.0,158.0,-306.0,-140.0,93,114,53,71,55,569,2,439
2025-02-20 15:45:23.439,-1065.0,541.0,-2190.0,207.0,-707.0,-241.0,85,115,52,67,53,582,2,436
2025-02-20 15:45:23.461,1246.0,551.0,-2523.0,260.0,-1058.0,-213.0,83,114,52,66,54,557,2,444
2025-02-20 15:45:23.478,3157.0,-530.0,-911.0,349.0,-1182.0,-119.0,86,116,53,69,57,571,1,453
2025-02-20 15:45:23.498,3099.0,-279.0,861.0,453.0,-956.0,-70.0,94,118,52,71,61,487,3,458
2025-02-20 15:45:23.515,2814.0,140.0,3037.0,415.0,-639.0,12.0,104,120,53,71,65,368,2,456
2025-02-20 15:45:23.536,2451.0,980.0,3947.0,149.0,-245.0,34.0,108,121,54,73,68,296,2,456
2025-02-20 15:45:23.555,2139.0,716.0,3586.0,-66.0,40.0,50.0,111,121,56,75,68,299,2,452
2025-02-20 15:45:23.572,1340.0,667.0,2591.0,-188.0,228.0,43.0,111,120,56,79,68,367,3,450
2025-02-20 15:45:23.592,900.0,119.0,1724.0,-182.0,299.0,13.0,111,120,56,81,68,405,3,454
2025-02-20 15:45:23.612,564.0,-83.0,1389.0,-117.0,330.0,-22.0,110,117,57,82,69,435,3,468
2025-02-20 15:45:23.629,429.0,-79.0,1302.0,-89.0,343.0,-24.0,110,116,56,83,69,505,3,466
2025-02-20 15:45:23.650,354.0,-61.0,1015.0,-108.0,325.0,-7.0,107,117,56,83,69,527,3,465
2025-02-20 15:45:23.667,244.0,-204.0,898.0,-111.0,300.0,18.0,107,118,57,83,70,552,3,466
2025-02-20 15:45:23.687,241.0,-187.0,971.0,-118.0,309.0,34.0,107,118,57,80,69,553,1,453
2025-02-20 15:45:23.706,112.0,-181.0,758.0,-143.0,343.0,54.0,108,119,58,82,69,487,3,453
2025-02-20 15:45:23.724,-62.0,-247.0,409.0,-136.0,336.0,74.0,106,120,58,82,71,459,3,465
2025-02-20 15:45:23.744,-232.0,-124.0,219.0,-114.0,299.0,82.0,103,120,58,82,69,433,3,471
2025-02-20 15:45:23.764,-371.0,7.0,136.0,-107.0,243.0,76.0,103,120,59,82,69,470,3,471
2025-02-20 15:45:23.781,-489.0,-42.0,78.0,-117.0,204.0,81.0,104,120,58,82,69,508,2,477
2025-02-20 15:45:23.802,-410.0,-29.0,68.0,-95.0,174.0,93.0,105,120,59,83,69,525,2,486
2025-02-20 15:45:23.822,-539.0,28.0,-67.0,-42.0,148.0,85.0,104,120,58,83,68,513,2,487
2025-02-20 15:45:23.839,-671.0,179.0,-211.0,-3.0,99.0,54.0,102,120,58,83,68,526,3,488
2025-02-20 15:45:23.856,-909.0,483.0,-650.0,41.0,25.0,-18.0,99,120,59,83,67,566,3,488
2025-02-20 15:45:23.879,-1715.0,933.0,-1568.0,98.0,-206.0,-188.0,93,119,57,79,63,568,2,482
2025-02-20 15:45:23.894,-1239.0,1023.0,-2176.0,209.0,-648.0,-270.0,90,120,55,80,61,526,3,473
2025-02-20 15:45:23.916,504.0,563.0,-2228.0,319.0,-981.0,-224.0,88,120,55,78,60,461,4,474
2025-02-20 15:45:23.934,2481.0,-160.0,-437.0,403.0,-1035.0,-132.0,94,120,55,79,64,425,3,482
2025-02-20 15:45:23.954,3251.0,-260.0,2598.0,389.0,-772.0,-43.0,104,120,57,79,66,414,2,473
2025-02-20 15:45:23.973,3658.0,400.0,4074.0,236.0,-286.0,49.0,111,121,58,81,69,347,2,471
2025-02-20 15:45:23.990,2660.0,541.0,3919.0,-92.0,11.0,57.0,113,121,58,82,71,359,3,470
2025-02-20 15:45:24.010,1905.0,45.0,2722.0,-213.0,169.0,94.0,113,118,58,83,71,451,3,474
2025-02-20 15:45:24.031,1087.0,-276.0,2013.0,-271.0,265.0,121.0,113,114,59,84,71,536,3,473
2025-02-20 15:45:24.047,760.0,-212.0,1794.0,-316.0,344.0,133.0,116,106,60,85,72,525,2,475
2025-02-20 15:45:24.068,568.0,-259.0,1475.0,-340.0,415.0,138.0,120,100,61,88,73,575,3,485
2025-02-20 15:45:24.087,532.0,-112.0,1172.0,-339.0,474.0,115.0,123,96,64,91,74,585,3,482
2025-02-20 15:45:24.105,644.0,-314.0,786.0,-302.0,534.0,124.0,124,97,68,92,75,504,3,470
2025-02-20 15:45:24.125,334.0,-459.0,490.0,-250.0,561.0,162.0,124,100,71,93,76,432,3,466
2025-02-20 15:45:24.142,169.0,-229.0,154.0,-195.0,551.0,171.0,125,104,74,93,76,399,3,486
2025-02-20 15:45:24.160,-70.0,-116.0,-7.0,-130.0,502.0,177.0,125,107,78,94,75,462,3,493
2025-02-20 15:45:24.182,-54.0,-296.0,-490.0,-100.0,465.0,199.0,125,109,80,95,77,547,3,485
2025-02-20 15:45:24.197,-471.0,-111.0,-559.0,-27.0,364.0,218.0,124,111,83,96,78,583,3,474
2025-02-20 15:45:24.219,-311.0,181.0,-736.0,-2.0,286.0,214.0,125,113,85,96,78,554,2,477
2025-02-20 15:45:24.239,-468.0,286.0,-908.0,56.0,202.0,177.0,125,114,87,94,79,539,2,478
2025-02-20 15:45:24.256,-830.0,583.0,-1361.0,148.0,79.0,91.0,125,115,89,94,79,540,3,475
2025-02-20 15:45:24.277,-1151.0,1374.0,-1660.0,107.0,-127.0,-113.0,126,116,93,93,76,498,3,474
2025-02-20 15:45:24.297,-1556.0,1936.0,-1773.0,14.0,-407.0,-377.0,127,120,95,95,71,466,3,469
2025-02-20 15:45:24.312,-901.0,1881.0,-1276.0,14.0,-658.0,-652.0,125,122,98,99,70,452,2,471
2025-02-20 15:45:24.334,1624.0,1151.0,-500.0,-121.0,-908.0,-823.0,124,126,102,104,73,411,0,470
2025-02-20 15:45:24.354,2733.0,-1773.0,691.0,-133.0,-946.0,-672.0,124,129,104,105,74,373,3,467
2025-02-20 15:45:24.371,3904.0,-3602.0,1162.0,-191.0,-767.0,-237.0,122,131,104,105,73,347,2,459
2025-02-20 15:45:24.392,3674.0,-4164.0,1351.0,-80.0,-236.0,119.0,121,132,105,105,73,424,3,468
2025-02-20 15:45:24.409,1833.0,-2431.0,1353.0,59.0,62.0,163.0,122,132,106,104,73,535,2,481
2025-02-20 15:45:24.429,518.0,-1391.0,1174.0,69.0,182.0,110.0,123,133,107,105,73,566,3,481
2025-02-20 15:45:24.448,339.0,-1513.0,932.0,16.0,201.0,143.0,122,132,107,103,72,539,2,474
2025-02-20 15:45:24.466,232.0,-1287.0,565.0,-10.0,186.0,207.0,122,133,108,102,73,639,2,464
2025-02-20 15:45:24.486,35.0,-1065.0,479.0,-28.0,187.0,212.0,123,132,108,101,73,523,2,462
2025-02-20 15:45:24.505,94.0,-862.0,520.0,-28.0,229.0,210.0,121,133,107,98,73,435,2,444
2025-02-20 15:45:24.523,-137.0,-680.0,222.0,22.0,233.0,223.0,123,133,107,99,73,455,3,454
2025-02-20 15:45:24.543,-117.0,-480.0,92.0,59.0,229.0,231.0,122,133,105,99,73,380,2,474
2025-02-20 15:45:24.560,-229.0,-244.0,140.0,58.0,233.0,253.0,123,133,108,99,73,434,3,482
2025-02-20 15:45:24.576,-419.0,-27.0,106.0,46.0,233.0,252.0,124,133,107,99,76,477,2,480
2025-02-20 15:45:24.600,-354.0,188.0,99.0,14.0,240.0,245.0,125,133,108,98,75,528,3,470
2025-02-20 15:45:24.616,-315.0,60.0,-83.0,33.0,254.0,237.0,125,132,107,102,73,542,2,469
2025-02-20 15:45:24.637,-476.0,234.0,-249.0,87.0,247.0,218.0,126,134,108,95,72,538,3,463
2025-02-20 15:45:24.657,-1031.0,859.0,-632.0,75.0,144.0,132.0,126,133,109,94,72,490,3,457
2025-02-20 15:45:24.675,-1529.0,1444.0,-1149.0,44.0,-33.0,-106.0,126,132,108,92,71,469,3,459
2025-02-20 15:45:24.693,-1410.0,1922.0,-951.0,-8.0,-225.0,-377.0,126,133,109,93,72,461,2,458
2025-02-20 15:45:24.714,-716.0,1971.0,-468.0,-174.0,-356.0,-652.0,125,133,109,95,72,467,2,450
2025-02-20 15:45:24.732,225.0,1050.0,-480.0,-282.0,-512.0,-873.0,122,133,109,103,73,417,3,452
2025-02-20 15:45:24.752,1679.0,-1104.0,-308.0,-231.0,-556.0,-838.0,121,134,109,102,73,320,2,457
2025-02-20 15:45:24.772,2221.0,-1797.0,-781.0,-186.0,-591.0,-504.0,120,134,109,102,74,364,3,453
2025-02-20 15:45:24.789,3475.0,-3370.0,-208.0,-328.0,-383.0,-213.0,121,134,110,103,75,394,2,445
2025-02-20 15:45:24.807,3192.0,-4155.0,167.0,47.0,8.0,29.0,120,134,108,104,73,417,2,455
2025-02-20 15:45:24.827,1475.0,-2826.0,539.0,240.0,236.0,133.0,121,134,109,105,74,458,2,462
2025-02-20 15:45:24.846,412.0,-1777.0,192.0,158.0,202.0,196.0,122,134,111,106,74,467,2,465
2025-02-20 15:45:24.866,274.0,-1449.0,192.0,51.0,148.0,205.0,122,134,106,106,74,479,3,466
2025-02-20 15:45:24.881,221.0,-1451.0,343.0,44.0,131.0,209.0,123,134,106,104,75,397,2,460
2025-02-20 15:45:24.903,339.0,-1385.0,88.0,67.0,173.0,258.0,125,134,105,103,73,416,1,460
2025-02-20 15:45:24.924,322.0,-1366.0,132.0,142.0,210.0,302.0,127,134,99,104,72,409,3,461
2025-02-20 15:45:24.940,240.0,-967.0,130.0,177.0,244.0,349.0,128,135,85,102,73,498,2,465
2025-02-20 15:45:24.960,167.0,-539.0,107.0,169.0,267.0,385.0,130,133,72,103,74,548,3,463
2025-02-20 15:45:24.981,51.0,-407.0,136.0,182.0,309.0,398.0,131,133,63,103,72,554,3,460
2025-02-20 15:45:24.998,-154.0,-237.0,-87.0,177.0,320.0,387.0,132,131,58,98,72,532,3,457
2025-02-20 15:45:25.018,-184.0,56.0,-251.0,203.0,302.0,373.0,132,128,56,96,71,538,3,454
2025-02-20 15:45:25.034,-121.0,296.0,-532.0,204.0,282.0,341.0,130,128,56,92,69,534,3,454
2025-02-20 15:45:25.055,-449.0,599.0,-1095.0,210.0,189.0,277.0,129,125,57,89,69,462,1,452
2025-02-20 15:45:25.075,-1089.0,916.0,-2055.0,273.0,26.0,143.0,121,123,55,83,68,476,3,442
2025-02-20 15:45:25.092,-1702.0,1284.0,-2288.0,354.0,-321.0,-47.0,109,122,54,76,63,505,3,440
2025-02-20 15:45:25.113,-1176.0,1793.0,-2826.0,321.0,-720.0,-201.0,98,122,54,74,62,498,3,428
2025-02-20 15:45:25.133,1367.0,1339.0,-2792.0,261.0,-1159.0,-220.0,86,122,53,73,62,446,0,407
2025-02-20 15:45:25.150,3723.0,-90.0,-1577.0,334.0,-1295.0,-110.0,91,123,53,74,65,477,3,426
2025-02-20 15:45:25.170,4086.0,-547.0,983.0,538.0,-1097.0,-23.0,100,123,53,74,68,435,2,436
2025-02-20 15:45:25.190,3707.0,363.0,3044.0,446.0,-691.0,70.0,111,122,52,75,73,425,3,444
2025-02-20 15:45:25.207,3006.0,809.0,4148.0,154.0,-308.0,95.0,117,123,54,77,76,370,2,456
2025-02-20 15:45:25.227,2521.0,673.0,3865.0,-94.0,76.0,109.0,118,123,55,79,76,347,3,437
2025-02-20 15:45:25.247,1591.0,722.0,2428.0,-154.0,237.0,84.0,120,121,56,79,77,368,4,437
2025-02-20 15:45:25.263,672.0,642.0,1512.0,-166.0,281.0,36.0,119,118,56,81,76,378,3,459
2025-02-20 15:45:25.284,650.0,721.0,1889.0,-118.0,294.0,0.0,120,117,55,83,77,433,3,468
2025-02-20 15:45:25.301,428.0,-15.0,1362.0,-125.0,330.0,-18.0,121,117,56,84,78,422,3,467
2025-02-20 15:45:25.322,440.0,2.0,1169.0,-128.0,345.0,-15.0,122,117,57,84,78,470,3,474
2025-02-20 15:45:25.341,375.0,-307.0,797.0,-109.0,326.0,12.0,117,118,57,83,73,460,2,482
2025-02-20 15:45:25.358,174.0,-109.0,773.0,-103.0,294.0,41.0,116,118,57,83,76,468,2,468
2025-02-20 15:45:25.379,3.0,14.0,685.0,-143.0,286.0,40.0,117,120,58,83,76,435,3,469
2025-02-20 15:45:25.399,-110.0,6.0,590.0,-170.0,292.0,23.0,120,119,58,84,77,463,2,462
2025-02-20 15:45:25.415,-98.0,-122.0,415.0,-129.0,297.0,26.0,117,120,58,85,76,476,3,468
2025-02-20 15:45:25.433,-163.0,-87.0,300.0,-88.0,286.0,28.0,111,120,59,84,74,483,2,471
2025-02-20 15:45:25.453,-237.0,14.0,117.0,-84.0,256.0,27.0,110,121,59,84,74,464,3,468
2025-02-20 15:45:25.473,-331.0,173.0,118.0,-98.0,245.0,23.0,110,120,59,84,74,496,2,469
2025-02-20 15:45:25.493,-588.0,-78.0,-128.0,-87.0,213.0,56.0,111,120,60,84,74,469,2,474
2025-02-20 15:45:25.510,-736.0,-15.0,-413.0,-31.0,151.0,74.0,108,120,59,84,73,468,2,475
2025-02-20 15:45:25.530,-1178.0,412.0,-1320.0,27.0,1.0,-13.0,101,117,59,80,69,478,1,467
2025-02-20 15:45:25.551,-1944.0,720.0,-2338.0,223.0,-424.0,-152.0,94,116,57,79,65,458,3,462
2025-02-20 15:45:25.564,-404.0,1020.0,-2427.0,280.0,-860.0,-185.0,91,117,56,77,65,437,2,438
2025-02-20 15:45:25.587,2125.0,-153.0,-1370.0,343.0,-1077.0,-86.0,94,119,56,77,68,471,3,442
2025-02-20 15:45:25.607,3247.0,-263.0,630.0,413.0,-1004.0,-21.0,102,119,56,76,72,437,2,459
2025-02-20 15:45:25.624,3843.0,-409.0,3062.0,458.0,-591.0,51.0,112,119,55,78,78,326,2,467
2025-02-20 15:45:25.645,3348.0,1042.0,4854.0,144.0,-171.0,73.0,120,119,57,81,81,321,2,457
2025-02-20 15:45:25.664,2463.0,508.0,3860.0,-113.0,158.0,87.0,124,117,59,85,84,402,3,458
2025-02-20 15:45:25.681,1571.0,536.0,2469.0,-262.0,318.0,101.0,129,114,60,90,87,448,2,464
2025-02-20 15:45:25.702,977.0,132.0,1753.0,-305.0,363.0,112.0,131,112,61,95,88,485,2,471
2025-02-20 15:45:25.719,562.0,-127.0,1291.0,-318.0,388.0,101.0,133,112,64,98,90,497,3,473
2025-02-20 15:45:25.739,405.0,-341.0,1144.0,-267.0,423.0,101.0,134,113,65,99,92,555,2,478
2025-02-20 15:45:25.759,309.0,-423.0,1081.0,-240.0,461.0,123.0,135,114,64,100,89,457,3,481
2025-02-20 15:45:25.777,462.0,-239.0,811.0,-268.0,499.0,157.0,137,116,65,99,88,401,3,481
2025-02-20 15:45:25.796,383.0,119.0,487.0,-287.0,508.0,195.0,137,115,64,99,84,407,0,471
2025-02-20 15:45:25.817,-47.0,-71.0,429.0,-302.0,465.0,184.0,137,105,63,97,84,406,2,469
2025-02-20 15:45:25.833,91.0,-71.0,45.0,-289.0,443.0,196.0,139,97,63,96,80,452,3,469
2025-02-20 15:45:25.854,-190.0,-18.0,-92.0,-249.0,395.0,201.0,137,91,65,96,79,492,3,466
2025-02-20 15:45:25.874,-450.0,171.0,-245.0,-222.0,331.0,189.0,137,92,66,96,77,575,3,460
2025-02-20 15:45:25.891,-621.0,314.0,-450.0,-150.0,260.0,141.0,136,83,63,92,75,578,2,472
2025-02-20 15:45:25.910,-709.0,640.0,-752.0,47.0,192.0,47.0,135,72,63,87,71,535,3,474
2025-02-20 15:45:25.928,-965.0,1241.0,-957.0,184.0,85.0,-75.0,131,59,60,84,65,493,2,472
2025-02-20 15:45:25.948,-1004.0,2170.0,-1489.0,265.0,-134.0,-233.0,124,54,56,81,61,463,3,462
2025-02-20 15:45:25.968,-1003.0,2155.0,-2478.0,191.0,-381.0,-434.0,114,51,52,81,59,458,2,458
2025-02-20 15:45:25.985,-863.0,2108.0,-2209.0,131.0,-716.0,-651.0,111,50,52,82,59,427,2,446
2025-02-20 15:45:26.002,2545.0,872.0,-605.0,-35.0,-1025.0,-684.0,112,50,52,85,61,427,2,449
2025-02-20 15:45:26.019,4571.0,-3059.0,2375.0,-243.0,-587.0,-350.0,109,52,53,85,61,451,2,449
2025-02-20 15:45:26.043,3931.0,-4875.0,2919.0,-71.0,-36.0,-124.0,104,52,53,87,62,377,2,451
2025-02-20 15:45:26.063,1795.0,-3747.0,1529.0,151.0,195.0,-27.0,102,52,51,86,59,420,2,448
2025-02-20 15:45:26.082,129.0,-1691.0,875.0,-47.0,174.0,59.0,103,53,52,87,59,531,2,455
2025-02-20 15:45:26.100,9.0,-2059.0,707.0,-139.0,100.0,81.0,104,54,54,89,59,578,1,453
2025-02-20 15:45:26.121,185.0,-2132.0,716.0,-67.0,150.0,128.0,108,55,55,91,60,500,0,462
2025-02-20 15:45:26.135,104.0,-1639.0,561.0,-8.0,188.0,154.0,111,55,56,92,61,448,1,477
2025-02-20 15:45:26.157,-195.0,-1050.0,418.0,-30.0,189.0,197.0,113,55,56,92,62,400,2,466
2025-02-20 15:45:26.177,-164.0,-664.0,221.0,-71.0,162.0,193.0,115,55,56,93,62,416,2,485
2025-02-20 15:45:26.194,-261.0,-630.0,417.0,-114.0,154.0,224.0,115,56,58,92,63,479,2,508
2025-02-20 15:45:26.214,-231.0,-583.0,281.0,-96.0,158.0,229.0,117,56,59,92,63,510,1,524
2025-02-20 15:45:26.233,-267.0,-445.0,97.0,-53.0,148.0,234.0,117,56,58,92,63,500,1,509
2025-02-20 15:45:26.251,-210.0,-227.0,102.0,-44.0,170.0,239.0,117,56,59,92,64,562,1,491
2025-02-20 15:45:26.269,-325.0,75.0,-75.0,-86.0,168.0,240.0,118,56,59,91,63,540,2,471
2025-02-20 15:45:26.291,-522.0,166.0,-135.0,-115.0,151.0,216.0,120,57,60,92,65,537,2,462
2025-02-20 15:45:26.305,-634.0,104.0,-211.0,-73.0,98.0,169.0,120,58,60,92,66,534,2,458
2025-02-20 15:45:26.329,-524.0,22.0,-189.0,1.0,76.0,116.0,120,58,61,90,65,509,2,447
2025-02-20 15:45:26.346,-518.0,286.0,-262.0,74.0,69.0,90.0,120,59,60,90,67,466,2,440
2025-02-20 15:45:26.366,-682.0,629.0,-599.0,153.0,44.0,60.0,119,58,59,90,65,461,2,433
2025-02-20 15:45:26.384,-1372.0,1564.0,-1128.0,266.0,-46.0,-114.0,117,57,60,91,66,464,1,433
2025-02-20 15:45:26.407,-1886.0,2427.0,-1747.0,312.0,-246.0,-360.0,115,58,59,88,64,469,2,426
2025-02-20 15:45:26.424,-1570.0,2458.0,-2124.0,250.0,-599.0,-651.0,114,55,58,88,64,362,2,435
2025-02-20 15:45:26.444,1915.0,699.0,-1524.0,97.0,-1036.0,-682.0,117,55,59,91,66,368,2,438
2025-02-20 15:45:26.461,5594.0,-4210.0,1573.0,238.0,-906.0,-353.0,124,58,56,95,68,385,1,445
2025-02-20 15:45:26.480,4462.0,-4553.0,3661.0,557.0,-149.0,26.0,129,58,58,93,72,443,2,446
2025-02-20 15:45:26.500,1244.0,141.0,2803.0,219.0,190.0,-25.0,131,59,59,92,71,413,2,447
2025-02-20 15:45:26.517,180.0,-1258.0,2154.0,-12.0,192.0,-25.0,132,60,58,93,71,426,2,446
2025-02-20 15:45:26.537,-73.0,-1217.0,1344.0,13.0,200.0,40.0,133,59,59,96,72,569,2,449
2025-02-20 15:45:26.558,-215.0,-869.0,1149.0,89.0,228.0,-20.0,133,59,58,97,72,599,2,466
2025-02-20 15:45:26.574,-187.0,-950.0,808.0,210.0,273.0,-44.0,133,59,60,97,71,517,3,473
2025-02-20 15:45:26.595,-403.0,-771.0,415.0,287.0,266.0,-49.0,132,59,59,94,72,393,1,450
2025-02-20 15:45:26.612,-560.0,-444.0,230.0,317.0,192.0,-53.0,131,59,58,89,71,314,2,440
2025-02-20 15:45:26.632,-599.0,-110.0,177.0,310.0,91.0,-59.0,132,59,58,87,71,360,2,429
2025-02-20 15:45:26.653,-482.0,-17.0,479.0,290.0,38.0,-86.0,132,60,58,89,71,386,1,451
2025-02-20 15:45:26.669,-384.0,81.0,562.0,274.0,12.0,-93.0,135,60,59,87,72,437,2,465
2025-02-20 15:45:26.689,-265.0,-92.0,802.0,212.0,0.0,-75.0,138,59,58,88,71,461,2,468
2025-02-20 15:45:26.709,-245.0,-36.0,907.0,111.0,-13.0,-51.0,139,60,58,88,72,477,2,468
2025-02-20 15:45:26.726,-169.0,-376.0,995.0,53.0,-14.0,-33.0,139,60,58,87,71,510,2,467
2025-02-20 15:45:26.747,-131.0,-573.0,1052.0,37.0,-4.0,-12.0,140,60,58,88,72,517,1,463
2025-02-20 15:45:26.766,-94.0,-688.0,1042.0,37.0,-4.0,14.0,141,60,58,88,72,526,2,463
2025-02-20 15:45:26.783,109.0,-993.0,1188.0,12.0,-30.0,96.0,142,60,59,88,72,500,1,462
2025-02-20 15:45:26.803,313.0,-1392.0,1348.0,-41.0,-64.0,212.0,143,61,59,89,72,423,2,461
2025-02-20 15:45:26.824,686.0,-1660.0,1466.0,-131.0,-66.0,451.0,143,60,58,88,74,446,1,456
2025-02-20 15:45:26.841,1132.0,-1470.0,1506.0,-281.0,-41.0,661.0,143,61,58,87,73,456,2,455
2025-02-20 15:45:26.861,1836.0,-599.0,1255.0,-325.0,-21.0,819.0,144,59,56,84,73,461,2,446
2025-02-20 15:45:26.875,970.0,779.0,1619.0,-473.0,-99.0,689.0,144,60,63,81,71,491,1,449
2025-02-20 15:45:26.898,908.0,768.0,1896.0,-454.0,-77.0,554.0,144,61,58,80,69,437,3,452
2025-02-20 15:45:26.919,450.0,1545.0,1981.0,-278.0,-8.0,341.0,143,62,57,81,70,429,2,461
2025-02-20 15:45:26.935,340.0,1689.0,2202.0,-59.0,77.0,123.0,144,62,60,82,69,459,2,466
2025-02-20 15:45:26.955,250.0,1284.0,1840.0,103.0,165.0,-13.0,143,63,60,82,68,474,2,462
2025-02-20 15:45:26.976,-28.0,1255.0,1364.0,149.0,199.0,-88.0,143,62,59,82,69,470,1,461
2025-02-20 15:45:26.992,-261.0,1089.0,984.0,124.0,188.0,-163.0,143,62,59,82,68,497,1,467
2025-02-20 15:45:27.012,-148.0,464.0,777.0,151.0,178.0,-264.0,141,62,59,81,67,550,2,472
2025-02-20 15:45:27.033,-209.0,-146.0,500.0,245.0,157.0,-306.0,141,61,60,82,67,535,1,465
2025-02-20 15:45:27.050,-344.0,-330.0,438.0,353.0,100.0,-314.0,139,61,59,82,66,486,1,460
2025-02-20 15:45:27.061,-340.0,-303.0,403.0,401.0,36.0,-286.0,135,61,59,83,66,476,2,462
2025-02-20 15:45:27.087,-553.0,221.0,409.0,326.0,-44.0,-297.0,135,60,59,83,68,551,1,467
2025-02-20 15:45:27.107,-361.0,90.0,651.0,226.0,-141.0,-329.0,136,60,58,86,69,500,2,489
2025-02-20 15:45:27.127,-19.0,-395.0,1044.0,201.0,-151.0,-304.0,136,61,58,84,69,427,1,484
2025-02-20 15:45:27.144,47.0,-628.0,1215.0,194.0,-118.0,-240.0,138,61,59,86,70,448,2,477
2025-02-20 15:45:27.165,-95.0,-521.0,1208.0,134.0,-102.0,-176.0,138,62,60,85,70,456,2,468
2025-02-20 15:45:27.184,-179.0,-508.0,1139.0,57.0,-101.0,-112.0,137,62,58,88,70,461,1,455
2025-02-20 15:45:27.202,-80.0,-896.0,1224.0,29.0,-74.0,-70.0,138,60,57,86,70,486,2,430
2025-02-20 15:45:27.213,46.0,-1066.0,1176.0,50.0,-27.0,-24.0,138,60,56,86,70,391,1,433
2025-02-20 15:45:27.242,266.0,-1329.0,1097.0,65.0,-2.0,43.0,138,59,57,86,69,429,2,442
2025-02-20 15:45:27.259,683.0,-1891.0,1145.0,55.0,-2.0,235.0,137,59,55,84,69,437,2,447
2025-02-20 15:45:27.279,836.0,-1308.0,1369.0,-106.0,-38.0,457.0,136,58,56,84,68,389,2,435
2025-02-20 15:45:27.299,1197.0,-1441.0,1276.0,-251.0,-17.0,665.0,136,59,55,82,68,382,2,439
2025-02-20 15:45:27.316,1168.0,341.0,1079.0,-338.0,-65.0,767.0,137,59,56,81,66,446,1,440
2025-02-20 15:45:27.335,911.0,1306.0,1612.0,-481.0,-133.0,654.0,137,60,56,80,66,448,2,439
2025-02-20 15:45:27.354,936.0,1329.0,2355.0,-445.0,-84.0,477.0,137,60,56,78,65,468,1,463
2025-02-20 15:45:27.374,693.0,1694.0,2834.0,-303.0,53.0,290.0,137,61,56,78,66,467,3,488
2025-02-20 15:45:27.391,591.0,1458.0,2817.0,-153.0,216.0,123.0,136,61,56,78,65,462,1,489
2025-02-20 15:45:27.410,499.0,666.0,2238.0,-65.0,390.0,24.0,136,61,57,80,65,506,2,482
2025-02-20 15:45:27.431,442.0,137.0,1599.0,-39.0,489.0,-19.0,135,62,58,80,63,513,2,473
2025-02-20 15:45:27.451,355.0,-230.0,1150.0,-92.0,554.0,-16.0,134,61,57,79,64,511,1,475
2025-02-20 15:45:27.468,219.0,-342.0,712.0,-149.0,582.0,-17.0,134,62,60,82,66,507,2,483
2025-02-20 15:45:27.488,-58.0,-721.0,-242.0,-144.0,572.0,-4.0,134,63,61,83,67,449,2,485
2025-02-20 15:45:27.505,-719.0,-809.0,-650.0,-62.0,471.0,-3.0,134,63,62,86,70,431,2,493
2025-02-20 15:45:27.525,-642.0,-724.0,-409.0,-77.0,381.0,13.0,133,63,61,87,71,361,2,492
2025-02-20 15:45:27.545,-288.0,-512.0,-608.0,-21.0,314.0,16.0,132,63,61,90,72,370,1,496
2025-02-20 15:45:27.560,-253.0,-689.0,-992.0,98.0,300.0,77.0,132,64,63,91,75,410,2,499
2025-02-20 15:45:27.576,-608.0,-72.0,-1453.0,142.0,160.0,133.0,130,66,66,92,84,385,1,486
2025-02-20 15:45:27.602,-1027.0,-249.0,-759.0,175.0,83.0,108.0,128,71,68,97,95,378,2,477
2025-02-20 15:45:27.619,-861.0,145.0,-418.0,211.0,35.0,97.0,129,81,68,105,102,407,1,473
2025-02-20 15:45:27.637,-607.0,179.0,-364.0,177.0,-2.0,78.0,131,82,72,108,106,461,1,474
2025-02-20 15:45:27.657,-112.0,502.0,-343.0,235.0,35.0,54.0,131,84,76,111,107,477,2,473
2025-02-20 15:45:27.677,-334.0,708.0,-785.0,213.0,-17.0,-42.0,129,87,78,115,109,505,2,474
2025-02-20 15:45:27.697,-1288.0,932.0,-1068.0,185.0,-92.0,-152.0,129,92,82,118,114,507,3,467
2025-02-20 15:45:27.717,-1054.0,1395.0,-1309.0,117.0,-268.0,-371.0,128,97,85,120,119,501,2,457
2025-02-20 15:45:27.734,-1091.0,1396.0,-1637.0,26.0,-456.0,-621.0,129,102,91,123,125,408,2,450
2025-02-20 15:45:27.754,-11.0,1989.0,-541.0,-38.0,-620.0,-833.0,130,108,92,125,128,378,2,442
2025-02-20 15:45:27.774,2914.0,253.0,-934.0,-245.0,-945.0,-904.0,132,116,97,128,129,382,2,457
2025-02-20 15:45:27.791,4835.0,-2694.0,-572.0,-553.0,-875.0,-601.0,126,121,101,131,130,449,2,468
2025-02-20 15:45:27.812,3470.0,-4953.0,-738.0,-373.0,-510.0,-92.0,123,122,103,132,131,421,2,461
2025-02-20 15:45:27.829,3255.0,-4577.0,693.0,-83.0,-1.0,189.0,127,122,103,133,132,445,1,468
2025-02-20 15:45:27.849,1733.0,-2714.0,-453.0,15.0,165.0,256.0,131,123,103,132,132,554,2,475
2025-02-20 15:45:27.869,716.0,-1301.0,2408.0,168.0,265.0,255.0,133,124,103,132,131,501,3,467
2025-02-20 15:45:27.886,-10.0,-1246.0,15.0,283.0,215.0,295.0,133,124,101,132,132,489,1,479
2025-02-20 15:45:27.905,-299.0,-967.0,-530.0,26.0,149.0,250.0,133,123,101,132,133,439,1,497
2025-02-20 15:45:27.926,-202.0,-965.0,814.0,53.0,181.0,217.0,132,123,104,132,133,445,2,492
2025-02-20 15:45:27.943,-85.0,-1010.0,150.0,164.0,123.0,206.0,131,124,104,132,133,424,1,482
2025-02-20 15:45:27.963,-268.0,-1030.0,-3.0,98.0,99.0,240.0,132,124,103,133,134,474,1,472
2025-02-20 15:45:27.983,30.0,-478.0,643.0,-89.0,116.0,261.0,131,123,104,132,134,511,2,473
2025-02-20 15:45:28.001,-113.0,-215.0,459.0,41.0,104.0,258.0,132,123,104,132,135,526,2,474
2025-02-20 15:45:28.021,-344.0,-398.0,187.0,-30.0,110.0,252.0,130,122,102,132,135,522,1,468
2025-02-20 15:45:28.037,-334.0,-320.0,115.0,62.0,146.0,231.0,129,122,103,132,135,529,2,466
2025-02-20 15:45:28.058,-396.0,-204.0,347.0,105.0,131.0,216.0,128,121,103,134,135,518,2,467
2025-02-20 15:45:28.076,-473.0,250.0,92.0,36.0,183.0,212.0,127,120,102,134,134,536,1,470
2025-02-20 15:45:28.095,-450.0,310.0,-89.0,168.0,144.0,170.0,126,119,102,133,134,568,3,473
2025-02-20 15:45:28.115,-656.0,737.0,-284.0,221.0,112.0,112.0,126,119,101,132,134,595,1,466
2025-02-20 15:45:28.135,-1157.0,1089.0,-1026.0,245.0,75.0,-58.0,125,120,103,131,135,508,1,460
2025-02-20 15:45:28.152,-1890.0,2054.0,-1499.0,173.0,-127.0,-348.0,125,119,102,132,134,485,2,456
2025-02-20 15:45:28.171,-1234.0,1716.0,-987.0,-1.0,-414.0,-742.0,125,121,104,132,136,495,1,454
2025-02-20 15:45:28.190,608.0,631.0,-716.0,-113.0,-675.0,-837.0,125,121,104,131,135,379,2,456
2025-02-20 15:45:28.209,2475.0,-1058.0,494.0,-236.0,-777.0,-647.0,128,123,104,133,135,332,2,444
2025-02-20 15:45:28.229,3440.0,-3718.0,492.0,-232.0,-487.0,-360.0,128,122,104,132,135,361,2,447
2025-02-20 15:45:28.244,2604.0,-4392.0,732.0,14.0,-115.0,39.0,130,122,104,134,134,430,2,455
2025-02-20 15:45:28.267,846.0,-2935.0,-246.0,380.0,90.0,143.0,133,123,103,133,134,404,2,460
2025-02-20 15:45:28.286,-252.0,-1526.0,1037.0,93.0,138.0,155.0,135,122,101,133,133,334,1,454
2025-02-20 15:45:28.303,-381.0,-910.0,523.0,92.0,108.0,88.0,137,121,99,133,133,433,1,467
2025-02-20 15:45:28.323,-498.0,-982.0,489.0,26.0,107.0,76.0,137,119,97,132,131,546,1,474
2025-02-20 15:45:28.343,-401.0,-933.0,618.0,49.0,86.0,71.0,136,116,96,130,128,456,2,478
2025-02-20 15:45:28.361,-244.0,-975.0,478.0,138.0,93.0,79.0,136,113,94,129,121,406,2,485
2025-02-20 15:45:28.379,-110.0,-660.0,380.0,197.0,129.0,58.0,136,108,90,127,110,406,2,493
2025-02-20 15:45:28.401,-329.0,-599.0,504.0,241.0,142.0,53.0,136,96,84,123,97,470,2,484
2025-02-20 15:45:28.418,-320.0,-839.0,295.0,255.0,153.0,57.0,135,84,78,118,86,435,1,471
2025-02-20 15:45:28.438,-138.0,-583.0,281.0,246.0,141.0,72.0,134,75,74,116,76,501,0,462
2025-02-20 15:45:28.455,-143.0,-765.0,275.0,355.0,145.0,46.0,134,70,69,114,68,517,2,471
2025-02-20 15:45:28.475,-396.0,-676.0,116.0,415.0,133.0,-3.0,133,64,63,107,62,533,2,473
2025-02-20 15:45:28.495,-361.0,-590.0,-160.0,461.0,98.0,-35.0,132,63,61,101,60,458,1,471
2025-02-20 15:45:28.512,-405.0,-667.0,-117.0,443.0,40.0,-37.0,132,59,58,94,57,455,2,462
2025-02-20 15:45:28.530,-194.0,-1055.0,491.0,400.0,-54.0,8.0,132,57,55,86,55,452,2,449
2025-02-20 15:45:28.553,383.0,-1212.0,1354.0,265.0,-83.0,126.0,133,56,55,83,54,454,2,433
2025-02-20 15:45:28.570,786.0,-1167.0,2102.0,54.0,-35.0,297.0,135,54,54,80,53,390,2,436
2025-02-20 15:45:28.590,903.0,-1128.0,2099.0,-159.0,34.0,474.0,137,55,53,79,54,401,2,435
2025-02-20 15:45:28.610,1000.0,-802.0,1601.0,-224.0,66.0,638.0,139,56,54,79,54,423,1,424
2025-02-20 15:45:28.627,284.0,1038.0,1337.0,-343.0,-27.0,600.0,142,57,55,79,54,402,2,410
2025-02-20 15:45:28.645,-11.0,1598.0,1464.0,-437.0,-87.0,483.0,143,58,56,78,55,433,2,431
2025-02-20 15:45:28.663,2.0,1763.0,1798.0,-415.0,-57.0,325.0,144,59,57,79,56,438,2,459
2025-02-20 15:45:28.685,-42.0,1926.0,1955.0,-268.0,45.0,151.0,144,60,58,80,57,424,2,461
2025-02-20 15:45:28.704,8.0,1229.0,1778.0,-93.0,148.0,-3.0,144,61,59,80,56,515,2,456
2025-02-20 15:45:28.721,-145.0,951.0,1258.0,66.0,200.0,-75.0,144,62,58,81,57,567,2,467
2025-02-20 15:45:28.742,-314.0,722.0,788.0,119.0,189.0,-137.0,144,62,58,81,57,562,2,467
2025-02-20 15:45:28.760,-362.0,229.0,656.0,129.0,148.0,-179.0,143,61,58,79,56,541,1,468
2025-02-20 15:45:28.778,-486.0,-37.0,489.0,153.0,86.0,-222.0,143,60,57,78,55,465,2,475
2025-02-20 15:45:28.797,-311.0,-441.0,491.0,201.0,34.0,-270.0,143,59,57,79,56,478,2,477
2025-02-20 15:45:28.819,-364.0,-630.0,512.0,265.0,-15.0,-234.0,142,59,57,79,57,532,3,475
2025-02-20 15:45:28.837,-394.0,-230.0,572.0,265.0,-72.0,-192.0,141,60,57,80,57,561,1,484
2025-02-20 15:45:28.856,-301.0,31.0,811.0,196.0,-110.0,-192.0,141,60,57,81,58,515,2,494
2025-02-20 15:45:28.874,-268.0,-55.0,1068.0,157.0,-94.0,-221.0,141,59,57,82,59,448,1,474
2025-02-20 15:45:28.893,-250.0,-42.0,1069.0,158.0,-49.0,-247.0,141,60,58,83,60,418,2,456
2025-02-20 15:45:28.913,-347.0,-136.0,916.0,168.0,-36.0,-253.0,141,60,58,82,61,404,2,453
2025-02-20 15:45:28.930,-421.0,-282.0,716.0,159.0,-79.0,-187.0,140,60,57,84,61,424,2,458
2025-02-20 15:45:28.950,-268.0,-369.0,888.0,105.0,-116.0,-171.0,140,60,57,84,62,470,2,464
2025-02-20 15:45:28.971,218.0,-1613.0,1239.0,133.0,-91.0,-92.0,141,61,58,84,61,467,2,468
2025-02-20 15:45:28.987,860.0,-2389.0,1429.0,185.0,-23.0,100.0,141,60,57,84,61,430,2,469
2025-02-20 15:45:29.007,1005.0,-1548.0,1605.0,-43.0,-16.0,355.0,138,58,55,82,60,391,1,465
2025-02-20 15:45:29.028,946.0,-1545.0,1367.0,-240.0,-28.0,574.0,135,59,56,82,61,351,2,458
2025-02-20 15:45:29.045,1061.0,-318.0,1302.0,-408.0,-51.0,731.0,135,59,56,81,60,380,0,460
2025-02-20 15:45:29.065,571.0,1489.0,1768.0,-613.0,-126.0,663.0,137,60,58,81,58,410,2,456
2025-02-20 15:45:29.085,653.0,1269.0,2514.0,-639.0,-109.0,542.0,138,60,59,81,58,454,2,471
2025-02-20 15:45:29.100,621.0,1163.0,3016.0,-447.0,24.0,321.0,138,61,59,82,58,483,2,496
2025-02-20 15:45:29.122,398.0,991.0,2849.0,-209.0,234.0,153.0,138,62,59,83,57,496,2,478
2025-02-20 15:45:29.139,373.0,321.0,2091.0,-83.0,382.0,39.0,138,62,60,83,58,560,1,477
2025-02-20 15:45:29.159,278.0,-92.0,1370.0,-60.0,494.0,1.0,138,63,62,85,59,592,4,485
2025-02-20 15:45:29.177,106.0,-533.0,653.0,-92.0,509.0,-20.0,138,63,64,87,59,575,2,489
2025-02-20 15:45:29.196,-116.0,-1015.0,-3.0,-81.0,454.0,9.0,138,65,65,88,60,545,1,488
2025-02-20 15:45:29.213,-377.0,-1462.0,-621.0,-24.0,385.0,58.0,137,68,68,89,62,503,2,486
2025-02-20 15:45:29.236,-583.0,-1064.0,-618.0,28.0,327.0,85.0,137,72,72,90,64,435,1,481
2025-02-20 15:45:29.253,-760.0,-609.0,-477.0,64.0,277.0,90.0,138,83,77,91,66,428,2,478
2025-02-20 15:45:29.274,-681.0,-325.0,-478.0,64.0,235.0,91.0,139,92,85,94,67,432,1,483
2025-02-20 15:45:29.294,-706.0,-310.0,-427.0,72.0,191.0,94.0,139,100,87,95,69,435,1,463
2025-02-20 15:45:29.311,-549.0,-106.0,-381.0,167.0,174.0,95.0,138,106,89,96,70,411,2,463
2025-02-20 15:45:29.331,-608.0,252.0,-446.0,236.0,161.0,95.0,139,109,92,96,71,393,1,464
2025-02-20 15:45:29.348,-615.0,542.0,-327.0,284.0,163.0,86.0,138,112,95,96,72,406,1,469
2025-02-20 15:45:29.368,-521.0,755.0,-568.0,280.0,168.0,41.0,137,113,97,97,73,444,2,475
2025-02-20 15:45:29.389,-719.0,1031.0,-1135.0,305.0,99.0,-39.0,137,114,100,97,71,467,2,473
2025-02-20 15:45:29.406,-1144.0,1832.0,-1590.0,263.0,-64.0,-197.0,137,115,100,97,69,487,2,458
2025-02-20 15:45:29.426,-1451.0,1881.0,-1890.0,176.0,-401.0,-506.0,136,116,102,98,64,531,2,454
2025-02-20 15:45:29.445,-520.0,1808.0,-1273.0,65.0,-690.0,-731.0,134,118,104,101,63,568,2,459
2025-02-20 15:45:29.463,1890.0,1615.0,-1122.0,-106.0,-978.0,-882.0,129,120,107,102,63,477,1,470
2025-02-20 15:45:29.482,3904.0,-2316.0,-75.0,-236.0,-1016.0,-720.0,127,123,107,106,63,396,1,476
2025-02-20 15:45:29.502,4112.0,-3954.0,506.0,-136.0,-703.0,-197.0,127,125,105,105,63,408,1,463
2025-02-20 15:45:29.517,3856.0,-3548.0,577.0,-117.0,-285.0,71.0,129,127,106,105,62,373,2,456
2025-02-20 15:45:29.540,2354.0,-3214.0,1065.0,16.0,40.0,75.0,129,128,107,105,62,369,1,461
2025-02-20 15:45:29.559,1103.0,-2440.0,589.0,145.0,192.0,124.0,130,128,107,105,61,431,2,457
2025-02-20 15:45:29.577,509.0,-1772.0,605.0,123.0,201.0,191.0,131,129,107,104,62,530,1,457
2025-02-20 15:45:29.597,-19.0,-1026.0,366.0,64.0,184.0,202.0,132,129,107,102,63,510,2,463
2025-02-20 15:45:29.614,-57.0,-675.0,423.0,14.0,158.0,183.0,132,129,107,101,63,487,2,470
2025-02-20 15:45:29.635,-247.0,-899.0,363.0,14.0,168.0,181.0,133,129,107,99,63,501,2,475
2025-02-20 15:45:29.654,147.0,-949.0,304.0,65.0,204.0,217.0,133,130,105,101,63,543,2,481
2025-02-20 15:45:29.670,131.0,-771.0,353.0,128.0,250.0,255.0,133,129,107,100,64,555,1,471
2025-02-20 15:45:29.692,99.0,-342.0,338.0,138.0,318.0,285.0,132,129,107,100,64,554,2,471
2025-02-20 15:45:29.711,-185.0,-88.0,204.0,137.0,329.0,293.0,133,129,108,99,64,562,3,469
2025-02-20 15:45:29.729,-346.0,5.0,122.0,105.0,300.0,264.0,134,129,107,99,64,553,2,465
2025-02-20 15:45:29.748,-267.0,15.0,56.0,71.0,276.0,244.0,133,128,108,99,64,599,1,468
2025-02-20 15:45:29.765,-161.0,30.0,10.0,72.0,285.0,234.0,133,126,107,99,64,585,1,468
2025-02-20 15:45:29.784,-713.0,125.0,-149.0,73.0,265.0,220.0,133,127,107,97,64,553,1,465
2025-02-20 15:45:29.801,-707.0,254.0,-425.0,84.0,193.0,178.0,134,126,106,95,63,559,2,461
2025-02-20 15:45:29.824,-897.0,660.0,-624.0,76.0,114.0,107.0,134,125,106,95,63,520,1,458
2025-02-20 15:45:29.843,-1137.0,1100.0,-1185.0,44.0,-15.0,-26.0,135,124,107,94,64,484,2,446
2025-02-20 15:45:29.864,-1627.0,1623.0,-1455.0,54.0,-189.0,-287.0,134,124,107,94,62,423,2,457
2025-02-20 15:45:29.880,-1584.0,1885.0,-1409.0,48.0,-475.0,-569.0,135,124,107,97,61,450,2,456
2025-02-20 15:45:29.892,-699.0,1697.0,-1244.0,-61.0,-783.0,-775.0,130,126,106,99,62,378,2,445
2025-02-20 15:45:29.921,2712.0,132.0,-954.0,-172.0,-1034.0,-734.0,132,127,107,102,66,404,2,466
2025-02-20 15:45:29.936,4264.0,-3005.0,1089.0,29.0,-860.0,-419.0,133,128,107,105,66,444,1,489
2025-02-20 15:45:29.957,3858.0,-3761.0,2105.0,159.0,-177.0,-7.0,135,127,106,106,68,490,2,468
2025-02-20 15:45:29.978,2221.0,-2354.0,1914.0,181.0,196.0,141.0,135,127,105,105,67,399,1,469
2025-02-20 15:45:29.995,610.0,-1266.0,1284.0,123.0,221.0,87.0,135,128,105,103,66,314,1,463
2025-02-20 15:45:30.014,327.0,-1280.0,1116.0,179.0,219.0,76.0,136,127,104,104,66,336,1,456
2025-02-20 15:45:30.032,-57.0,-845.0,1061.0,236.0,265.0,94.0,135,127,102,104,65,396,1,455
2025-02-20 15:45:30.052,-177.0,-681.0,854.0,258.0,308.0,73.0,136,124,102,105,65,516,2,461
2025-02-20 15:45:30.072,-475.0,-701.0,441.0,329.0,321.0,41.0,136,119,99,105,66,495,3,475
2025-02-20 15:45:30.087,-588.0,-398.0,152.0,363.0,264.0,22.0,135,115,96,104,67,466,1,480
2025-02-20 15:45:30.110,-600.0,-160.0,109.0,364.0,186.0,-11.0,136,109,90,104,65,455,2,485
2025-02-20 15:45:30.130,-639.0,-86.0,213.0,368.0,108.0,-39.0,136,100,84,103,64,353,2,484
2025-02-20 15:45:30.147,-666.0,174.0,360.0,266.0,43.0,-46.0,137,92,80,104,65,416,2,473
2025-02-20 15:45:30.165,-628.0,115.0,593.0,176.0,25.0,-58.0,138,81,71,103,64,430,2,471
2025-02-20 15:45:30.186,-512.0,-57.0,596.0,110.0,-6.0,-40.0,140,72,63,102,63,439,3,476
2025-02-20 15:45:30.204,-460.0,-318.0,627.0,91.0,-53.0,-32.0,141,68,60,100,63,441,1,490
2025-02-20 15:45:30.224,-290.0,-734.0,648.0,96.0,-105.0,1.0,141,66,58,100,63,511,2,492
2025-02-20 15:45:30.238,-10.0,-1101.0,887.0,100.0,-125.0,74.0,142,66,57,100,64,513,2,471
2025-02-20 15:45:30.262,376.0,-1206.0,1634.0,33.0,-115.0,229.0,143,63,53,97,64,466,1,462
2025-02-20 15:45:30.281,871.0,-1319.0,2100.0,-184.0,-38.0,426.0,143,62,51,90,62,444,2,458
2025-02-20 15:45:30.299,1232.0,-1659.0,1606.0,-311.0,17.0,686.0,143,60,54,87,61,434,2,455
2025-02-20 15:45:30.319,912.0,567.0,1451.0,-404.0,-61.0,735.0,144,62,48,84,58,427,2,443
2025-02-20 15:45:30.338,171.0,1421.0,1626.0,-557.0,-114.0,578.0,145,61,51,85,58,454,1,445
2025-02-20 15:45:30.356,359.0,1231.0,1863.0,-501.0,-70.0,443.0,144,62,51,83,58,492,1,446
2025-02-20 15:45:30.375,149.0,1461.0,2153.0,-179.0,59.0,222.0,145,64,54,84,59,505,2,452
2025-02-20 15:45:30.396,18.0,1589.0,1708.0,123.0,173.0,-22.0,146,65,54,84,59,548,1,453
2025-02-20 15:45:30.413,-176.0,1385.0,1204.0,182.0,198.0,-107.0,144,63,53,84,57,560,1,464
2025-02-20 15:45:30.433,-179.0,677.0,805.0,145.0,182.0,-150.0,144,66,54,84,60,477,2,480
2025-02-20 15:45:30.450,-267.0,-65.0,609.0,157.0,138.0,-206.0,142,65,55,84,57,474,1,486
2025-02-20 15:45:30.469,-290.0,-501.0,501.0,240.0,82.0,-218.0,142,64,55,85,58,495,2,484
2025-02-20 15:45:30.490,-346.0,-450.0,568.0,286.0,32.0,-218.0,142,65,54,86,57,499,1,477
2025-02-20 15:45:30.508,-392.0,-260.0,692.0,284.0,-24.0,-206.0,140,66,56,87,59,523,1,474
2025-02-20 15:45:30.528,-406.0,-66.0,810.0,213.0,-57.0,-178.0,139,65,56,87,59,514,2,455
2025-02-20 15:45:30.547,-462.0,-31.0,871.0,155.0,-78.0,-179.0,141,65,55,86,60,487,2,450
2025-02-20 15:45:30.564,-421.0,-57.0,882.0,162.0,-85.0,-209.0,142,65,56,89,62,448,2,464
2025-02-20 15:45:30.585,-270.0,-225.0,1029.0,191.0,-80.0,-201.0,143,66,55,88,65,423,2,459
2025-02-20 15:45:30.605,-266.0,-91.0,954.0,181.0,-86.0,-169.0,143,66,56,89,64,439,2,458
2025-02-20 15:45:30.622,-345.0,63.0,1023.0,110.0,-109.0,-149.0,143,66,56,90,64,441,2,455
2025-02-20 15:45:30.642,-249.0,-272.0,1041.0,37.0,-120.0,-116.0,143,67,57,91,65,421,2,456
2025-02-20 15:45:30.662,-91.0,-735.0,1140.0,37.0,-113.0,-52.0,143,67,57,91,65,408,1,464
2025-02-20 15:45:30.679,314.0,-1374.0,1331.0,99.0,-59.0,72.0,143,67,57,91,66,421,2,465
2025-02-20 15:45:30.699,696.0,-1528.0,1281.0,82.0,-27.0,261.0,143,67,56,91,65,394,2,461
2025-02-20 15:45:30.716,894.0,-1134.0,1442.0,-32.0,31.0,497.0,144,67,57,90,66,348,1,468
2025-02-20 15:45:30.737,745.0,2.0,1543.0,-310.0,52.0,616.0,144,68,57,91,67,393,2,472
2025-02-20 15:45:30.756,567.0,1057.0,1232.0,-607.0,43.0,630.0,144,67,56,91,66,466,2,472
2025-02-20 15:45:30.773,310.0,1084.0,1026.0,-651.0,-60.0,574.0,144,68,58,90,67,451,2,467
2025-02-20 15:45:30.793,-33.0,1511.0,1763.0,-445.0,-58.0,299.0,144,69,59,90,66,500,2,483
2025-02-20 15:45:30.814,94.0,1185.0,1965.0,-131.0,36.0,69.0,145,69,60,91,66,534,2,471
2025-02-20 15:45:30.831,-55.0,1194.0,1815.0,67.0,130.0,-54.0,144,69,60,91,65,571,2,462
2025-02-20 15:45:30.851,-74.0,571.0,1423.0,51.0,182.0,-101.0,144,68,60,92,65,581,2,457
2025-02-20 15:45:30.871,-19.0,-183.0,1123.0,-19.0,193.0,-107.0,142,71,61,93,65,494,2,457
2025-02-20 15:45:30.888,7.0,-992.0,1262.0,-68.0,202.0,-75.0,140,71,61,92,65,466,2,460
2025-02-20 15:45:30.908,-96.0,-1124.0,1171.0,-92.0,235.0,-37.0,139,74,63,91,65,523,2,474
2025-02-20 15:45:30.924,-283.0,-1044.0,1070.0,-121.0,252.0,1.0,138,74,64,92,65,531,2,479
2025-02-20 15:45:30.945,-246.0,-981.0,1069.0,-151.0,309.0,37.0,138,76,67,93,65,445,2,475
2025-02-20 15:45:30.965,-335.0,-885.0,881.0,-168.0,355.0,67.0,138,77,67,93,66,459,1,470
2025-02-20 15:45:30.983,-481.0,-656.0,623.0,-172.0,368.0,78.0,133,77,68,94,66,467,2,472
2025-02-20 15:45:31.002,-530.0,-716.0,452.0,-155.0,359.0,101.0,136,76,68,94,66,441,2,474
2025-02-20 15:45:31.019,-568.0,-377.0,141.0,-120.0,352.0,113.0,135,75,66,92,66,433,2,479
2025-02-20 15:45:31.039,-662.0,-88.0,-87.0,-77.0,320.0,96.0,135,74,66,92,65,465,2,477
2025-02-20 15:45:31.060,-605.0,237.0,-246.0,-50.0,266.0,75.0,133,72,63,91,64,407,2,472
2025-02-20 15:45:31.080,-666.0,552.0,-492.0,-23.0,189.0,55.0,131,70,62,92,63,371,1,474
2025-02-20 15:45:31.097,-675.0,853.0,-688.0,56.0,107.0,25.0,129,69,62,92,62,378,3,469
2025-02-20 15:45:31.117,-599.0,1579.0,-851.0,173.0,38.0,-70.0,125,66,60,90,60,426,2,456
2025-02-20 15:45:31.135,-565.0,2676.0,-1169.0,246.0,-64.0,-266.0,116,63,57,89,56,439,3,456
2025-02-20 15:45:31.153,-869.0,3308.0,-1653.0,195.0,-231.0,-548.0,108,59,54,87,55,430,2,452
2025-02-20 15:45:31.174,-423.0,2943.0,-1960.0,14.0,-552.0,-809.0,102,57,52,88,55,473,3,453
2025-02-20 15:45:31.191,2400.0,959.0,-1564.0,-137.0,-904.0,-955.0,101,55,51,90,58,473,2,454
2025-02-20 15:45:31.212,6191.0,-3555.0,2225.0,-290.0,-528.0,-542.0,97,58,51,92,60,537,1,466
2025-02-20 15:45:31.232,4172.0,-6305.0,1567.0,-153.0,38.0,-104.0,92,58,49,92,59,559,2,464
2025-02-20 15:45:31.249,1553.0,-4399.0,183.0,175.0,221.0,-1.0,92,59,48,89,56,541,2,465
2025-02-20 15:45:31.268,194.0,-1916.0,-104.0,14.0,152.0,103.0,93,59,49,88,57,558,1,460
2025-02-20 15:45:31.286,-17.0,-2417.0,40.0,-57.0,69.0,122.0,93,60,50,93,57,449,3,463
2025-02-20 15:45:31.306,1487.0,-2015.0,479.0,28.0,132.0,145.0,94,61,51,95,58,379,2,458
2025-02-20 15:45:31.325,154.0,-1295.0,420.0,55.0,175.0,172.0,95,61,52,96,58,324,1,456
2025-02-20 15:45:31.343,-148.0,-1084.0,383.0,22.0,178.0,208.0,96,63,52,94,59,310,2,445
2025-02-20 15:45:31.363,-304.0,-1087.0,239.0,-38.0,151.0,222.0,98,61,53,93,59,418,2,439
2025-02-20 15:45:31.383,-331.0,-628.0,284.0,-66.0,117.0,221.0,101,62,54,95,58,452,1,491
2025-02-20 15:45:31.400,-138.0,-510.0,337.0,-81.0,127.0,221.0,103,62,56,95,59,472,2,503
2025-02-20 15:45:31.420,-316.0,-483.0,181.0,-59.0,130.0,215.0,105,62,56,96,59,502,2,498
2025-02-20 15:45:31.440,-289.0,-350.0,0.0,-51.0,133.0,210.0,106,63,56,95,60,541,2,502
2025-02-20 15:45:31.457,-509.0,-175.0,-125.0,-45.0,107.0,190.0,108,63,56,93,59,513,1,492
2025-02-20 15:45:31.478,-429.0,-47.0,-18.0,-44.0,88.0,152.0,110,64,56,93,60,487,2,484
2025-02-20 15:45:31.498,-506.0,-139.0,-46.0,-31.0,77.0,121.0,112,64,57,92,60,477,2,474
2025-02-20 15:45:31.515,-631.0,-86.0,-94.0,0.0,83.0,101.0,112,64,57,92,60,472,1,459
2025-02-20 15:45:31.535,-672.0,201.0,-193.0,38.0,59.0,73.0,112,65,57,92,60,461,2,448
2025-02-20 15:45:31.552,-791.0,484.0,-269.0,116.0,44.0,9.0,110,65,58,93,59,453,2,433
2025-02-20 15:45:31.572,-1453.0,1475.0,-675.0,233.0,17.0,-142.0,107,65,58,93,59,432,2,417
2025-02-20 15:45:31.593,-2029.0,3181.0,-1244.0,125.0,-175.0,-441.0,105,63,58,91,58,479,2,434
2025-02-20 15:45:31.613,-942.0,2696.0,-1573.0,-77.0,-569.0,-769.0,105,63,58,95,58,471,2,447
2025-02-20 15:45:31.629,1812.0,-1375.0,-1047.0,-61.0,-721.0,-706.0,108,61,57,95,60,433,2,448
2025-02-20 15:45:31.649,3917.0,-3108.0,856.0,91.0,-586.0,-361.0,112,62,57,97,61,511,1,447
2025-02-20 15:45:31.666,3619.0,-3817.0,1585.0,153.0,-127.0,-111.0,114,64,57,97,62,551,2,444
2025-02-20 15:45:31.686,1764.0,-2723.0,914.0,187.0,121.0,-10.0,115,64,56,95,60,537,2,444
2025-02-20 15:45:31.706,353.0,-2092.0,421.0,133.0,115.0,38.0,116,66,58,93,60,517,2,441
2025-02-20 15:45:31.723,237.0,-2131.0,405.0,104.0,119.0,85.0,117,67,57,95,61,538,3,450
2025-02-20 15:45:31.740,292.0,-1816.0,279.0,133.0,160.0,148.0,120,68,57,97,62,495,1,459
2025-02-20 15:45:31.764,13.0,-1491.0,-53.0,212.0,153.0,161.0,123,70,58,98,63,500,2,460
2025-02-20 15:45:31.781,-93.0,-1299.0,48.0,225.0,130.0,183.0,124,68,58,98,64,398,2,442
2025-02-20 15:45:31.800,49.0,-1436.0,-64.0,257.0,90.0,247.0,125,69,60,99,67,399,1,444
2025-02-20 15:45:31.818,531.0,-1171.0,11.0,264.0,82.0,324.0,124,69,59,97,70,416,2,449
2025-02-20 15:45:31.838,239.0,-884.0,-63.0,311.0,35.0,390.0,125,70,59,98,74,459,1,450
2025-02-20 15:45:31.858,138.0,173.0,305.0,273.0,-10.0,370.0,125,70,59,104,74,473,2,450
2025-02-20 15:45:31.875,-107.0,513.0,542.0,153.0,-38.0,339.0,128,70,60,110,76,490,2,465
2025-02-20 15:45:31.892,-200.0,561.0,706.0,43.0,-54.0,316.0,130,71,64,106,87,510,2,486
2025-02-20 15:45:31.915,-230.0,467.0,775.0,-43.0,-54.0,245.0,132,72,64,106,101,528,2,482
2025-02-20 15:45:31.933,-338.0,646.0,991.0,-77.0,-52.0,179.0,134,72,64,106,106,512,2,471
2025-02-20 15:45:31.953,-456.0,809.0,960.0,-31.0,-33.0,100.0,134,72,65,105,110,456,1,459
2025-02-20 15:45:31.972,-435.0,924.0,969.0,65.0,-3.0,33.0,134,71,67,106,114,422,3,438
2025-02-20 15:45:31.990,-706.0,1786.0,1011.0,190.0,18.0,-69.0,135,72,66,106,119,411,2,428
2025-02-20 15:45:32.010,-1114.0,3052.0,818.0,234.0,-8.0,-276.0,136,72,67,106,127,409,2,445
2025-02-20 15:45:32.030,-1103.0,2730.0,590.0,276.0,-29.0,-445.0,138,71,68,107,132,466,2,459
2025-02-20 15:45:32.047,-715.0,1479.0,241.0,397.0,-43.0,-584.0,136,71,67,107,133,575,2,471
2025-02-20 15:45:32.067,249.0,811.0,604.0,532.0,-172.0,-639.0,138,70,69,112,134,585,2,473
2025-02-20 15:45:32.088,1399.0,224.0,1285.0,534.0,-342.0,-608.0,140,69,70,115,134,518,2,473
2025-02-20 15:45:32.105,2004.0,-750.0,2762.0,333.0,-360.0,-361.0,141,72,72,119,132,482,2,466
2025-02-20 15:45:32.124,2432.0,-1507.0,3574.0,-33.0,-135.0,-31.0,143,74,74,122,134,424,1,460
2025-02-20 15:45:32.141,1685.0,-1443.0,2375.0,-233.0,106.0,74.0,143,75,74,122,133,393,2,448
2025-02-20 15:45:32.161,929.0,-1911.0,1232.0,-119.0,215.0,104.0,143,73,72,121,134,365,2,432
2025-02-20 15:45:32.182,161.0,-858.0,598.0,50.0,185.0,155.0,142,72,71,120,135,292,2,417
2025-02-20 15:45:32.196,-307.0,179.0,913.0,-26.0,97.0,205.0,142,74,73,121,135,388,2,433
2025-02-20 15:45:32.219,-432.0,351.0,1106.0,-190.0,91.0,265.0,142,74,72,120,135,415,2,448
2025-02-20 15:45:32.239,-496.0,266.0,887.0,-275.0,74.0,313.0,142,75,73,119,135,469,2,430
2025-02-20 15:45:32.256,-421.0,122.0,646.0,-278.0,45.0,308.0,140,74,73,120,134,484,2,459
2025-02-20 15:45:32.277,-194.0,-128.0,874.0,-194.0,52.0,309.0,137,75,74,120,134,467,2,480
2025-02-20 15:45:32.293,-110.0,20.0,690.0,-86.0,87.0,331.0,136,75,74,121,134,459,2,480
2025-02-20 15:45:32.311,-278.0,656.0,567.0,-53.0,62.0,309.0,137,75,73,118,132,456,1,490
2025-02-20 15:45:32.333,-611.0,1381.0,625.0,-125.0,-15.0,223.0,137,75,74,116,133,463,2,493
2025-02-20 15:45:32.350,-612.0,1104.0,771.0,-132.0,-63.0,125.0,136,75,72,115,134,474,2,492
2025-02-20 15:45:32.370,-573.0,960.0,765.0,-86.0,-95.0,26.0,137,77,74,115,134,454,1,493
2025-02-20 15:45:32.391,-523.0,1228.0,892.0,13.0,-108.0,-53.0,137,76,74,114,135,474,2,491
2025-02-20 15:45:32.407,-537.0,1533.0,985.0,106.0,-71.0,-172.0,137,76,73,112,135,498,2,466
2025-02-20 15:45:32.428,-720.0,1976.0,927.0,204.0,-14.0,-287.0,138,76,74,112,137,462,1,456
2025-02-20 15:45:32.448,-810.0,2331.0,557.0,212.0,-4.0,-453.0,138,75,73,111,137,481,1,450
2025-02-20 15:45:32.465,-513.0,1803.0,275.0,231.0,-63.0,-577.0,138,75,71,112,137,499,6,444
2025-02-20 15:45:32.485,257.0,746.0,-68.0,320.0,-200.0,-641.0,138,71,69,114,136,473,1,461
2025-02-20 15:45:32.506,1236.0,-787.0,262.0,433.0,-376.0,-514.0,137,70,68,113,133,503,2,460
2025-02-20 15:45:32.523,2100.0,-1166.0,1806.0,343.0,-454.0,-221.0,139,69,68,116,132,500,2,457
2025-02-20 15:45:32.541,2695.0,-1202.0,3178.0,78.0,-311.0,75.0,141,69,69,117,132,510,2,452
2025-02-20 15:45:32.560,2335.0,-1048.0,2975.0,-110.0,-13.0,131.0,142,69,69,117,133,447,2,446
2025-02-20 15:45:32.580,1426.0,-579.0,1832.0,-82.0,133.0,122.0,141,69,67,116,133,406,2,428
2025-02-20 15:45:32.599,345.0,72.0,1486.0,-88.0,163.0,158.0,141,69,66,115,125,337,1,425
2025-02-20 15:45:32.615,5.0,585.0,1645.0,-251.0,162.0,230.0,141,70,67,115,123,370,2,432
2025-02-20 15:45:32.637,24.0,666.0,1736.0,-413.0,198.0,296.0,140,72,68,116,119,386,2,430
2025-02-20 15:45:32.656,124.0,784.0,1814.0,-512.0,272.0,297.0,139,73,68,117,115,427,3,426
2025-02-20 15:45:32.673,207.0,493.0,1852.0,-551.0,388.0,285.0,133,72,66,116,110,372,2,444
2025-02-20 15:45:32.694,453.0,375.0,1129.0,-520.0,520.0,257.0,125,72,65,113,107,412,2,438
2025-02-20 15:45:32.711,280.0,62.0,264.0,-395.0,552.0,241.0,126,73,65,110,102,416,2,448
2025-02-20 15:45:32.731,-272.0,-2.0,175.0,-234.0,498.0,231.0,128,74,66,107,103,379,1,476
2025-02-20 15:45:32.751,-280.0,411.0,-185.0,-199.0,448.0,232.0,132,74,68,107,105,413,1,494
2025-02-20 15:45:32.768,-625.0,833.0,-555.0,-234.0,355.0,193.0,133,76,71,105,107,466,2,504
2025-02-20 15:45:32.788,-1019.0,273.0,-604.0,-79.0,261.0,130.0,133,77,76,109,111,521,3,510
2025-02-20 15:45:32.808,-852.0,711.0,-1319.0,134.0,102.0,42.0,132,81,80,112,113,551,2,506
2025-02-20 15:45:32.825,-1000.0,779.0,-1185.0,74.0,-56.0,-45.0,129,88,83,115,117,592,2,496
2025-02-20 15:45:32.846,-536.0,1091.0,-1331.0,-59.0,-283.0,-156.0,128,94,86,117,121,558,2,487
2025-02-20 15:45:32.866,-514.0,1329.0,-1013.0,-77.0,-349.0,-289.0,128,100,89,118,127,472,2,477
2025-02-20 15:45:32.881,-985.0,1565.0,-1230.0,-96.0,-420.0,-482.0,128,106,91,122,132,448,3,476
2025-02-20 15:45:32.903,145.0,1466.0,-759.0,-118.0,-431.0,-717.0,129,112,93,127,134,478,1,479
2025-02-20 15:45:32.923,788.0,538.0,-387.0,-307.0,-715.0,-880.0,129,118,98,128,134,516,2,477
2025-02-20 15:45:32.941,2705.0,-1529.0,-494.0,-283.0,-785.0,-747.0,130,122,100,132,133,434,2,467
2025-02-20 15:45:32.960,3600.0,-2712.0,-105.0,-299.0,-678.0,-402.0,129,123,103,133,134,418,2,469
2025-02-20 15:45:32.980,3268.0,-4209.0,-48.0,-225.0,-363.0,8.0,130,124,104,133,135,458,1,464
2025-02-20 15:45:32.998,2569.0,-3955.0,605.0,-107.0,163.0,130.0,133,124,104,133,135,516,2,453
2025-02-20 15:45:33.017,1049.0,-2951.0,1753.0,40.0,258.0,231.0,134,125,104,133,135,532,3,466
2025-02-20 15:45:33.033,233.0,-1453.0,93.0,271.0,230.0,259.0,135,124,102,133,135,511,1,469
2025-02-20 15:45:33.055,-434.0,-1256.0,256.0,69.0,219.0,249.0,135,125,104,133,135,471,2,469
2025-02-20 15:45:33.075,-400.0,-1207.0,-176.0,-131.0,275.0,243.0,136,124,104,134,134,498,1,465
2025-02-20 15:45:33.091,-124.0,-850.0,542.0,78.0,67.0,217.0,134,124,104,133,135,493,2,458
2025-02-20 15:45:33.111,-73.0,-676.0,280.0,89.0,119.0,205.0,132,125,105,134,136,480,2,444
2025-02-20 15:45:33.130,-164.0,-677.0,166.0,105.0,110.0,214.0,131,124,104,133,136,415,1,450
2025-02-20 15:45:33.149,-65.0,-436.0,458.0,97.0,138.0,233.0,130,124,104,133,136,506,1,477
2025-02-20 15:45:33.169,-223.0,-330.0,313.0,19.0,146.0,236.0,130,123,104,133,136,516,1,481
2025-02-20 15:45:33.190,-211.0,-410.0,258.0,23.0,145.0,220.0,129,124,104,133,136,540,1,481
2025-02-20 15:45:33.206,-459.0,-298.0,281.0,60.0,151.0,188.0,128,123,103,133,136,533,1,478
2025-02-20 15:45:33.227,-585.0,-141.0,95.0,61.0,108.0,180.0,126,123,103,133,136,525,2,479
2025-02-20 15:45:33.243,-766.0,-26.0,386.0,37.0,81.0,155.0,125,123,103,133,137,508,1,474
2025-02-20 15:45:33.263,-327.0,241.0,528.0,20.0,128.0,81.0,123,123,103,133,135,496,2,471
2025-02-20 15:45:33.284,-757.0,233.0,-57.0,123.0,147.0,15.0,122,122,103,133,136,479,2,462
2025-02-20 15:45:33.301,-1404.0,1159.0,-512.0,209.0,54.0,-131.0,122,122,102,133,137,479,2,454
2025-02-20 15:45:33.321,-1578.0,2112.0,-917.0,57.0,-153.0,-419.0,122,123,104,134,137,475,2,452
2025-02-20 15:45:33.341,-989.0,2170.0,-850.0,-151.0,-403.0,-752.0,120,125,104,133,137,460,2,454
2025-02-20 15:45:33.358,-191.0,1301.0,-409.0,-435.0,-665.0,-852.0,120,126,105,133,136,378,2,451
2025-02-20 15:45:33.379,2147.0,201.0,-1263.0,-658.0,-772.0,-819.0,119,125,104,134,137,446,2,450
2025-02-20 15:45:33.399,3816.0,-3171.0,-2118.0,-482.0,-570.0,-468.0,115,124,105,134,137,447,2,452
2025-02-20 15:45:33.416,3574.0,-4731.0,-1141.0,59.0,-129.0,-1.0,116,124,104,134,137,455,2,441
2025-02-20 15:45:33.436,1617.0,-2916.0,-162.0,234.0,91.0,151.0,122,125,104,134,138,393,1,451
2025-02-20 15:45:33.456,1195.0,-1602.0,623.0,303.0,125.0,126.0,129,125,104,134,137,431,2,449
2025-02-20 15:45:33.473,-360.0,-1094.0,22.0,250.0,241.0,178.0,131,126,104,134,136,476,2,449
2025-02-20 15:45:33.493,-57.0,-1330.0,458.0,105.0,146.0,160.0,132,126,102,134,136,362,2,471
2025-02-20 15:45:33.509,276.0,-1392.0,451.0,187.0,124.0,167.0,131,124,100,132,136,338,1,472
2025-02-20 15:45:33.530,201.0,-1532.0,46.0,418.0,208.0,205.0,130,118,96,130,136,348,1,464
2025-02-20 15:45:33.547,105.0,-1271.0,-100.0,511.0,225.0,241.0,128,106,88,124,134,357,2,466
2025-02-20 15:45:33.567,-47.0,-674.0,-37.0,454.0,232.0,276.0,128,86,75,114,128,449,2,471
2025-02-20 15:45:33.587,-89.0,-334.0,-254.0,397.0,157.0,275.0,128,72,69,108,123,502,1,471
2025-02-20 15:45:33.607,-85.0,-472.0,-426.0,377.0,79.0,268.0,127,66,65,109,124,520,2,462
2025-02-20 15:45:33.624,-182.0,-144.0,-37.0,345.0,25.0,255.0,127,63,63,112,123,486,2,446
2025-02-20 15:45:33.644,-275.0,306.0,-167.0,296.0,-57.0,233.0,122,61,62,110,124,593,2,459
2025-02-20 15:45:33.661,-173.0,83.0,291.0,219.0,-93.0,187.0,120,60,60,107,126,651,2,462
2025-02-20 15:45:33.681,-329.0,190.0,650.0,244.0,-76.0,171.0,119,60,60,103,128,581,2,463
2025-02-20 15:45:33.701,-366.0,594.0,654.0,218.0,-74.0,173.0,118,58,59,100,129,518,2,447
2025-02-20 15:45:33.718,-563.0,1669.0,973.0,89.0,-75.0,76.0,116,60,60,98,129,457,2,448
2025-02-20 15:45:33.739,-394.0,1087.0,1335.0,145.0,22.0,-115.0,115,61,61,99,128,442,4,444
2025-02-20 15:45:33.759,-688.0,1229.0,1069.0,301.0,119.0,-176.0,115,61,62,103,130,418,1,449
2025-02-20 15:45:33.776,-992.0,2578.0,982.0,289.0,105.0,-298.0,117,62,64,107,131,404,2,447
2025-02-20 15:45:33.795,-979.0,2651.0,695.0,137.0,75.0,-486.0,120,64,67,111,131,457,2,440
2025-02-20 15:45:33.816,-839.0,1515.0,107.0,10.0,-44.0,-577.0,123,64,68,111,130,435,2,442
2025-02-20 15:45:33.833,-120.0,-1074.0,250.0,130.0,-214.0,-456.0,125,64,67,113,130,497,2,444
2025-02-20 15:45:33.854,543.0,-1117.0,584.0,275.0,-358.0,-290.0,130,63,67,115,131,448,2,440
2025-02-20 15:45:33.874,899.0,-935.0,1520.0,180.0,-401.0,-194.0,135,65,69,118,133,412,1,444
2025-02-20 15:45:33.890,1339.0,-1668.0,2027.0,107.0,-250.0,-21.0,138,67,72,122,134,323,2,434
2025-02-20 15:45:33.911,1228.0,-989.0,2286.0,15.0,-67.0,64.0,140,69,73,124,136,329,2,429
2025-02-20 15:45:33.927,872.0,-672.0,1828.0,-61.0,76.0,121.0,140,69,72,124,135,304,2,442
2025-02-20 15:45:33.948,282.0,-381.0,1318.0,-82.0,115.0,168.0,140,69,72,124,137,344,3,462
2025-02-20 15:45:33.967,-100.0,-74.0,1053.0,-107.0,112.0,199.0,139,69,72,122,137,434,2,476
2025-02-20 15:45:33.984,-321.0,92.0,1029.0,-147.0,102.0,223.0,139,70,72,119,138,503,2,483
2025-02-20 15:45:34.005,-348.0,236.0,938.0,-157.0,95.0,233.0,137,70,74,117,135,526,2,491
2025-02-20 15:45:34.025,-396.0,245.0,893.0,-148.0,76.0,216.0,136,71,80,118,138,588,1,495
2025-02-20 15:45:34.042,-406.0,169.0,851.0,-128.0,73.0,206.0,136,70,76,119,139,622,3,490
2025-02-20 15:45:34.062,-404.0,142.0,717.0,-95.0,72.0,210.0,136,71,76,121,139,514,2,481
2025-02-20 15:45:34.079,-379.0,270.0,701.0,-67.0,57.0,220.0,136,70,77,118,138,447,2,463
2025-02-20 15:45:34.099,-391.0,344.0,697.0,-29.0,49.0,200.0,136,71,77,116,138,429,1,466
2025-02-20 15:45:34.119,-614.0,793.0,578.0,38.0,22.0,148.0,136,71,77,114,139,456,2,471
2025-02-20 15:45:34.136,-748.0,1551.0,668.0,21.0,-13.0,41.0,136,73,77,111,139,535,2,469
2025-02-20 15:45:34.156,-856.0,1872.0,644.0,30.0,-29.0,-106.0,137,71,77,109,139,435,2,449
2025-02-20 15:45:34.177,-977.0,2161.0,657.0,68.0,-48.0,-235.0,137,71,77,109,140,336,2,448
2025-02-20 15:45:34.193,-1099.0,2616.0,289.0,79.0,-117.0,-447.0,136,71,76,112,140,415,2,446
2025-02-20 15:45:34.214,-376.0,1426.0,500.0,96.0,-233.0,-527.0,137,70,76,116,141,515,2,466
2025-02-20 15:45:34.234,556.0,-292.0,660.0,275.0,-238.0,-494.0,138,70,76,119,140,514,1,462
2025-02-20 15:45:34.250,1186.0,-439.0,1117.0,402.0,-270.0,-423.0,140,71,76,122,140,534,2,455
2025-02-20 15:45:34.271,1726.0,-1204.0,2377.0,215.0,-258.0,-252.0,142,71,76,124,140,447,2,459
2025-02-20 15:45:34.291,2190.0,-1743.0,2820.0,-46.0,-85.0,30.0,142,71,77,124,140,440,2,461
2025-02-20 15:45:34.308,1747.0,-1662.0,1914.0,-211.0,57.0,140.0,143,71,76,124,140,360,2,460
2025-02-20 15:45:34.329,879.0,-1271.0,1230.0,-177.0,109.0,201.0,143,70,75,124,139,270,2,423
2025-02-20 15:45:34.349,221.0,-360.0,1117.0,-173.0,114.0,240.0,143,72,74,124,139,400,2,435
2025-02-20 15:45:34.365,-205.0,419.0,1399.0,-246.0,81.0,259.0,143,71,72,124,139,406,2,452
2025-02-20 15:45:34.386,-195.0,575.0,1855.0,-386.0,101.0,291.0,143,73,77,124,137,410,3,452
2025-02-20 15:45:34.402,-145.0,542.0,1776.0,-516.0,155.0,311.0,143,73,80,123,130,438,2,460
2025-02-20 15:45:34.423,65.0,-112.0,1649.0,-499.0,239.0,287.0,143,77,83,122,117,481,3,480
2025-02-20 15:45:34.443,106.0,-351.0,1449.0,-371.0,342.0,300.0,143,80,86,123,104,439,2,469
2025-02-20 15:45:34.460,340.0,-121.0,1099.0,-274.0,448.0,294.0,142,82,87,121,95,435,2,499
2025-02-20 15:45:34.480,-124.0,-161.0,217.0,-120.0,463.0,260.0,142,86,89,121,90,459,2,510
2025-02-20 15:45:34.500,-898.0,-172.0,-173.0,-50.0,366.0,244.0,140,93,90,120,84,454,2,502
2025-02-20 15:45:34.517,-852.0,524.0,-146.0,-11.0,263.0,236.0,142,99,91,118,78,470,2,496
2025-02-20 15:45:34.537,-671.0,682.0,-258.0,-61.0,212.0,180.0,140,104,91,114,72,465,2,491
2025-02-20 15:45:34.553,-971.0,465.0,-495.0,-66.0,150.0,101.0,139,109,96,114,69,518,2,471
2025-02-20 15:45:34.571,-742.0,891.0,-943.0,4.0,71.0,24.0,138,112,99,111,68,615,3,455
2025-02-20 15:45:34.595,-778.0,1295.0,-1305.0,25.0,-54.0,-84.0,138,116,101,107,65,632,2,447
2025-02-20 15:45:34.611,-811.0,2001.0,-1180.0,69.0,-180.0,-217.0,138,119,103,106,60,566,3,454
2025-02-20 15:45:34.632,-679.0,2493.0,-1687.0,16.0,-349.0,-464.0,137,123,106,111,55,536,2,473
2025-02-20 15:45:34.650,-259.0,2194.0,-1180.0,-73.0,-551.0,-691.0,136,126,107,113,56,503,2,482
2025-02-20 15:45:34.669,1020.0,1525.0,-673.0,-188.0,-731.0,-830.0,136,128,108,113,58,476,1,476
2025-02-20 15:45:34.689,2524.0,-1910.0,121.0,-211.0,-790.0,-729.0,133,131,109,112,58,491,1,482
2025-02-20 15:45:34.709,3008.0,-2781.0,502.0,-80.0,-619.0,-399.0,130,132,109,111,59,514,3,470
2025-02-20 15:45:34.726,3647.0,-3898.0,1179.0,-59.0,-258.0,-7.0,132,132,108,111,60,506,3,453
2025-02-20 15:45:34.746,2179.0,-2949.0,1308.0,36.0,93.0,71.0,132,133,108,108,62,464,2,446
2025-02-20 15:45:34.766,844.0,-2209.0,981.0,108.0,168.0,47.0,131,132,106,105,62,451,2,447
2025-02-20 15:45:34.783,290.0,-1675.0,840.0,39.0,138.0,98.0,131,132,107,104,63,456,1,458
2025-02-20 15:45:34.802,141.0,-1426.0,751.0,-34.0,119.0,129.0,132,132,106,104,64,487,2,463
2025-02-20 15:45:34.820,62.0,-1146.0,626.0,-45.0,129.0,129.0,131,132,106,105,63,512,1,469
2025-02-20 15:45:34.841,200.0,-1211.0,580.0,9.0,180.0,161.0,132,132,107,104,64,507,2,468
2025-02-20 15:45:34.861,246.0,-924.0,453.0,57.0,234.0,202.0,132,132,107,106,64,446,2,454
2025-02-20 15:45:34.878,-67.0,-551.0,394.0,62.0,257.0,218.0,133,132,107,107,65,497,3,463
2025-02-20 15:45:34.898,-140.0,-277.0,305.0,45.0,259.0,225.0,133,133,107,106,65,580,1,463
2025-02-20 15:45:34.918,-214.0,-56.0,186.0,22.0,257.0,213.0,133,132,107,107,65,588,1,466
2025-02-20 15:45:34.935,-205.0,-66.0,98.0,20.0,267.0,198.0,133,133,108,106,66,519,2,468
2025-02-20 15:45:34.953,-336.0,-181.0,-35.0,55.0,275.0,212.0,133,133,107,106,64,495,1,469
2025-02-20 15:45:34.975,-363.0,40.0,-78.0,91.0,264.0,230.0,133,132,108,106,65,443,1,476
2025-02-20 15:45:34.989,-597.0,573.0,-491.0,80.0,215.0,233.0,133,131,108,105,65,409,2,474
2025-02-20 15:45:35.012,-1156.0,868.0,-961.0,80.0,62.0,130.0,134,131,108,104,65,390,2,474
2025-02-20 15:45:35.033,-1689.0,1642.0,-1285.0,179.0,-126.0,-107.0,133,131,109,103,65,407,2,475
2025-02-20 15:45:35.049,-1572.0,2931.0,-1195.0,61.0,-419.0,-472.0,132,132,110,103,65,436,1,475
2025-02-20 15:45:35.069,-782.0,2735.0,-1081.0,-267.0,-692.0,-724.0,129,132,109,102,64,403,2,472
2025-02-20 15:45:35.087,1924.0,502.0,-1135.0,-453.0,-918.0,-809.0,126,132,110,103,66,362,1,468
2025-02-20 15:45:35.105,4147.0,-3612.0,-114.0,-77.0,-713.0,-524.0,125,132,108,105,69,305,2,451
2025-02-20 15:45:35.127,4140.0,-3655.0,983.0,108.0,-296.0,-102.0,126,132,109,105,70,384,2,439
2025-02-20 15:45:35.144,2732.0,-3360.0,1625.0,117.0,189.0,60.0,127,133,108,106,71,412,2,440
2025-02-20 15:45:35.164,1278.0,-2637.0,775.0,191.0,259.0,64.0,127,132,109,105,68,396,1,458
2025-02-20 15:45:35.183,438.0,-1767.0,767.0,128.0,208.0,131.0,127,132,110,105,69,373,2,477
2025-02-20 15:45:35.201,239.0,-1765.0,599.0,114.0,196.0,194.0,129,132,108,106,69,579,2,478
2025-02-20 15:45:35.221,798.0,-1724.0,242.0,152.0,210.0,237.0,129,129,104,106,71,502,1,477
2025-02-20 15:45:35.241,145.0,-1290.0,250.0,280.0,221.0,261.0,131,126,101,110,73,461,1,468
2025-02-20 15:45:35.256,-66.0,-818.0,220.0,326.0,229.0,291.0,132,117,90,113,75,525,2,458
2025-02-20 15:45:35.278,-156.0,-348.0,258.0,278.0,190.0,316.0,134,99,79,114,78,463,2,467
2025-02-20 15:45:35.296,-74.0,-325.0,-241.0,142.0,121.0,338.0,133,84,73,117,80,454,1,464
2025-02-20 15:45:35.316,-230.0,75.0,73.0,93.0,32.0,307.0,135,80,70,115,80,458,2,443
2025-02-20 15:45:35.334,-428.0,115.0,175.0,117.0,-22.0,258.0,136,76,68,114,81,492,2,444
2025-02-20 15:45:35.352,-338.0,422.0,130.0,60.0,-58.0,224.0,136,74,65,115,84,535,2,466
2025-02-20 15:45:35.373,-219.0,286.0,424.0,42.0,-88.0,203.0,137,78,68,112,106,542,2,473
2025-02-20 15:45:35.393,-353.0,772.0,651.0,22.0,-128.0,140.0,137,76,68,111,108,512,2,465
2025-02-20 15:45:35.409,-606.0,1264.0,649.0,8.0,-138.0,56.0,138,78,71,112,114,482,1,461
2025-02-20 15:45:35.431,-507.0,1615.0,821.0,124.0,-107.0,-79.0,138,77,70,110,125,468,1,462
2025-02-20 15:45:35.451,-816.0,2399.0,755.0,228.0,-112.0,-252.0,139,77,68,109,133,439,2,470
2025-02-20 15:45:35.467,-850.0,2567.0,807.0,277.0,-103.0,-389.0,140,77,71,110,134,446,2,478
2025-02-20 15:45:35.487,-386.0,2125.0,789.0,275.0,-88.0,-559.0,141,78,72,112,135,504,1,488
2025-02-20 15:45:35.504,522.0,671.0,1120.0,310.0,-84.0,-624.0,141,79,73,115,135,493,2,478
2025-02-20 15:45:35.523,1026.0,-693.0,1224.0,418.0,-118.0,-517.0,141,78,73,117,131,417,2,468
2025-02-20 15:45:35.544,1257.0,-559.0,1811.0,283.0,-249.0,-294.0,142,78,72,117,134,410,2,466
2025-02-20 15:45:35.559,1808.0,-1286.0,2688.0,31.0,-215.0,-92.0,143,77,74,118,135,453,1,464
2025-02-20 15:45:35.581,1635.0,-1596.0,2575.0,-87.0,-23.0,75.0,145,79,75,119,134,453,1,459
2025-02-20 15:45:35.602,971.0,-1106.0,1838.0,-106.0,75.0,130.0,143,79,74,119,135,456,1,450
2025-02-20 15:45:35.619,279.0,-381.0,1303.0,-143.0,89.0,182.0,144,79,73,118,135,426,1,440
2025-02-20 15:45:35.639,-163.0,26.0,1253.0,-177.0,47.0,215.0,145,80,74,118,136,287,2,405
2025-02-20 15:45:35.659,-275.0,315.0,1302.0,-217.0,43.0,229.0,145,80,75,117,136,321,2,400
2025-02-20 15:45:35.675,-250.0,240.0,1286.0,-224.0,68.0,232.0,145,81,76,117,136,358,2,435
2025-02-20 15:45:35.696,-239.0,187.0,1142.0,-201.0,94.0,218.0,145,82,76,118,136,379,2,453
2025-02-20 15:45:35.708,-267.0,173.0,961.0,-128.0,118.0,181.0,143,82,77,118,136,426,1,452
2025-02-20 15:45:35.733,-319.0,208.0,808.0,-55.0,128.0,141.0,144,82,76,118,136,420,2,463
2025-02-20 15:45:35.754,-459.0,347.0,718.0,-5.0,133.0,117.0,144,82,77,118,135,395,2,465
2025-02-20 15:45:35.771,-500.0,458.0,683.0,-14.0,125.0,122.0,144,82,77,117,136,406,3,471
2025-02-20 15:45:35.790,-572.0,473.0,583.0,-17.0,105.0,119.0,144,83,76,115,135,451,2,496
2025-02-20 15:45:35.810,-593.0,632.0,502.0,-14.0,68.0,85.0,143,82,78,114,136,496,2,507
2025-02-20 15:45:35.828,-658.0,800.0,510.0,26.0,37.0,30.0,144,82,78,112,137,482,1,503
2025-02-20 15:45:35.848,-766.0,1152.0,493.0,74.0,32.0,-60.0,143,82,78,111,137,489,2,497
2025-02-20 15:45:35.868,-1020.0,1836.0,386.0,108.0,11.0,-164.0,143,83,78,110,138,490,2,482
2025-02-20 15:45:35.886,-1300.0,2375.0,109.0,150.0,-37.0,-366.0,143,82,78,109,139,495,1,488
2025-02-20 15:45:35.904,-1024.0,1715.0,-41.0,160.0,-182.0,-477.0,144,82,77,112,139,535,2,465
2025-02-20 15:45:35.921,-25.0,311.0,192.0,260.0,-279.0,-471.0,143,82,77,115,138,525,1,461
2025-02-20 15:45:35.943,1157.0,-707.0,1008.0,348.0,-329.0,-371.0,143,82,76,117,138,502,2,457
2025-02-20 15:45:35.963,1917.0,-1221.0,2385.0,283.0,-265.0,-219.0,145,82,77,119,138,467,1,465
2025-02-20 15:45:35.977,2196.0,-1401.0,2857.0,23.0,-147.0,-13.0,144,83,78,120,137,410,0,465
2025-02-20 15:45:35.994,1765.0,-1667.0,2191.0,-150.0,-35.0,123.0,145,82,77,120,137,346,1,457
2025-02-20 15:45:36.020,1055.0,-1143.0,1607.0,-145.0,0.0,202.0,145,82,76,120,136,280,2,434
2025-02-20 15:45:36.036,285.0,-399.0,1485.0,-160.0,25.0,232.0,145,83,76,120,138,276,2,438
2025-02-20 15:45:36.057,-33.0,137.0,1706.0,-219.0,49.0,243.0,145,82,76,120,135,315,3,421
2025-02-20 15:45:36.077,-216.0,283.0,1736.0,-257.0,86.0,258.0,144,83,77,121,136,366,1,435
2025-02-20 15:45:36.094,-113.0,280.0,1766.0,-302.0,133.0,267.0,145,86,79,122,133,400,1,438
2025-02-20 15:45:36.114,13.0,150.0,1601.0,-325.0,212.0,248.0,144,90,83,121,128,403,2,447
2025-02-20 15:45:36.134,28.0,-225.0,1356.0,-263.0,325.0,246.0,145,94,85,120,124,458,2,473
2025-02-20 15:45:36.152,-112.0,-143.0,903.0,-155.0,399.0,235.0,145,97,86,118,112,496,2,503
2025-02-20 15:45:36.172,-317.0,216.0,653.0,-100.0,422.0,205.0,145,99,88,118,103,495,1,507
2025-02-20 15:45:36.189,-465.0,356.0,431.0,-72.0,415.0,174.0,145,97,87,116,94,511,2,506
2025-02-20 15:45:36.209,-281.0,409.0,135.0,-81.0,401.0,162.0,145,98,85,115,85,501,1,517
2025-02-20 15:45:36.229,-248.0,357.0,21.0,-114.0,404.0,173.0,145,94,83,105,78,486,2,509
2025-02-20 15:45:36.242,-359.0,436.0,-298.0,-61.0,363.0,193.0,145,89,78,102,70,552,2,485
2025-02-20 15:45:36.266,-150.0,717.0,-605.0,24.0,346.0,172.0,142,81,71,96,65,558,2,476
2025-02-20 15:45:36.286,-626.0,1291.0,-1992.0,141.0,250.0,32.0,137,71,64,89,62,514,2,470
2025-02-20 15:45:36.303,-1762.0,2176.0,-3254.0,250.0,-81.0,-155.0,135,63,58,81,59,498,1,470
2025-02-20 15:45:36.323,-1782.0,2251.0,-3098.0,167.0,-501.0,-340.0,130,57,52,73,53,465,1,482
2025-02-20 15:45:36.341,329.0,2062.0,-3305.0,225.0,-1006.0,-556.0,122,56,51,68,50,412,2,485
2025-02-20 15:45:36.358,3127.0,838.0,-1923.0,107.0,-1324.0,-566.0,118,56,50,67,51,443,2,488
2025-02-20 15:45:36.375,6024.0,-3104.0,2302.0,313.0,-1210.0,-195.0,124,58,52,68,54,417,1,478
2025-02-20 15:45:36.396,4727.0,-2385.0,4631.0,442.0,-424.0,97.0,130,60,54,71,54,405,2,464
2025-02-20 15:45:36.418,2236.0,458.0,4783.0,65.0,44.0,42.0,130,60,55,72,56,456,2,458
2025-02-20 15:45:36.438,593.0,-736.0,3118.0,-196.0,215.0,49.0,127,60,54,73,56,380,2,434
2025-02-20 15:45:36.454,-11.0,-863.0,1952.0,-172.0,199.0,93.0,125,59,53,74,57,417,1,438
2025-02-20 15:45:36.474,-3.0,-584.0,1819.0,-115.0,221.0,55.0,124,59,54,73,57,371,1,440
2025-02-20 15:45:36.490,18.0,-765.0,1599.0,-81.0,290.0,55.0,125,61,54,75,56,396,2,454
2025-02-20 15:45:36.512,-149.0,-579.0,918.0,-84.0,334.0,84.0,126,61,54,74,57,491,1,467
2025-02-20 15:45:36.532,-241.0,-515.0,579.0,-81.0,322.0,107.0,127,62,55,75,58,525,2,479
2025-02-20 15:45:36.552,-184.0,-247.0,617.0,-94.0,309.0,123.0,127,61,54,74,58,510,2,480
2025-02-20 15:45:36.569,-159.0,-220.0,707.0,-123.0,313.0,138.0,128,62,55,75,61,533,2,487
2025-02-20 15:45:36.589,-152.0,-95.0,430.0,-153.0,337.0,147.0,129,61,55,75,60,484,1,501
2025-02-20 15:45:36.606,-366.0,-49.0,128.0,-147.0,330.0,147.0,130,62,57,76,61,492,2,523
2025-02-20 15:45:36.626,-260.0,6.0,88.0,-109.0,328.0,144.0,131,62,56,77,63,523,2,512
2025-02-20 15:45:36.647,-367.0,-75.0,45.0,-79.0,307.0,146.0,132,63,56,79,63,530,1,503
2025-02-20 15:45:36.664,-641.0,108.0,-334.0,-44.0,275.0,127.0,131,64,57,80,64,557,1,492
2025-02-20 15:45:36.683,-770.0,221.0,-564.0,-17.0,214.0,110.0,131,63,57,80,64,569,1,488
2025-02-20 15:45:36.704,-315.0,639.0,-689.0,7.0,157.0,103.0,131,63,57,79,64,529,1,487
2025-02-20 15:45:36.721,-424.0,773.0,-1097.0,81.0,119.0,80.0,130,63,58,80,65,537,1,474
2025-02-20 15:45:36.740,-873.0,1222.0,-2201.0,145.0,2.0,-45.0,129,63,56,77,62,497,2,465
2025-02-20 15:45:36.761,-2071.0,1753.0,-3759.0,278.0,-364.0,-246.0,124,60,54,72,57,484,1,453
2025-02-20 15:45:36.778,-1046.0,2293.0,-3854.0,324.0,-865.0,-445.0,119,59,56,72,56,501,2,445
2025-02-20 15:45:36.795,3145.0,997.0,-2394.0,325.0,-1324.0,-454.0,118,59,56,72,58,495,2,453
2025-02-20 15:45:36.818,5897.0,-1320.0,2665.0,529.0,-1174.0,-248.0,125,60,56,73,62,543,1,458
2025-02-20 15:45:36.835,4229.0,-823.0,5705.0,416.0,-289.0,58.0,130,63,58,76,64,490,2,465
2025-02-20 15:45:36.855,1433.0,1342.0,4462.0,-137.0,95.0,-23.0,129,63,57,78,63,485,2,451
2025-02-20 15:45:36.872,169.0,-1073.0,2234.0,-285.0,131.0,26.0,127,62,55,78,64,456,1,443
2025-02-20 15:45:36.893,-233.0,-834.0,1374.0,-137.0,111.0,31.0,126,62,54,80,64,524,2,449
2025-02-20 15:45:36.913,-544.0,-564.0,1039.0,-63.0,125.0,-17.0,124,61,55,81,64,448,1,462
2025-02-20 15:45:36.930,-714.0,-548.0,731.0,-32.0,105.0,-21.0,123,62,56,81,63,447,2,458
2025-02-20 15:45:36.949,-654.0,-421.0,565.0,-12.0,68.0,-17.0,122,66,56,81,64,560,2,455
2025-02-20 15:45:36.970,-299.0,-464.0,642.0,13.0,1.0,-15.0,124,62,56,81,64,477,2,451
2025-02-20 15:45:36.987,-198.0,-401.0,883.0,36.0,-51.0,3.0,126,63,57,81,65,510,2,459
2025-02-20 15:45:37.007,-85.0,-251.0,1091.0,17.0,-39.0,4.0,126,63,56,81,66,484,1,476
2025-02-20 15:45:37.025,-65.0,-426.0,1107.0,-18.0,7.0,6.0,127,63,57,81,66,442,2,455
2025-02-20 15:45:37.044,-122.0,-430.0,921.0,-13.0,32.0,4.0,127,62,56,81,65,441,1,451
2025-02-20 15:45:37.062,-177.0,-450.0,840.0,0.0,33.0,6.0,127,63,58,82,66,463,1,461
2025-02-20 15:45:37.079,-238.0,-286.0,759.0,-5.0,14.0,9.0,127,64,57,81,66,458,1,472
2025-02-20 15:45:37.098,-229.0,-363.0,829.0,-13.0,0.0,10.0,127,63,57,81,66,489,2,481
2025-02-20 15:45:37.122,-183.0,-315.0,911.0,-11.0,7.0,5.0,127,64,58,81,66,531,1,492
2025-02-20 15:45:37.138,-220.0,-306.0,852.0,-8.0,13.0,4.0,127,63,57,81,66,566,2,499
2025-02-20 15:45:37.159,-293.0,-307.0,837.0,-6.0,9.0,3.0,127,63,58,82,66,563,1,505
2025-02-20 15:45:37.176,-313.0,-369.0,831.0,2.0,0.0,-1.0,127,63,57,81,66,550,1,501
2025-02-20 15:45:37.196,-233.0,-414.0,892.0,-1.0,-3.0,-1.0,127,64,57,81,66,507,2,492
2025-02-20 15:45:37.216,-198.0,-441.0,982.0,-2.0,7.0,-1.0,127,63,58,81,66,466,0,487
2025-02-20 15:45:37.233,-205.0,-452.0,959.0,-4.0,19.0,4.0,128,64,57,82,67,452,1,481
2025-02-20 15:45:37.253,-246.0,-443.0,926.0,-7.0,20.0,3.0,127,64,58,82,66,448,2,475
2025-02-20 15:45:37.274,-255.0,-461.0,898.0,-4.0,15.0,5.0,127,63,59,82,66,448,2,469
2025-02-20 15:45:37.290,-278.0,-401.0,905.0,-6.0,7.0,6.0,128,63,57,82,66,450,3,463
2025-02-20 15:45:37.310,-263.0,-455.0,897.0,-6.0,4.0,9.0,127,63,58,83,66,455,1,461
2025-02-20 15:45:37.329,-271.0,-421.0,910.0,-11.0,3.0,13.0,127,64,58,82,66,469,2,461
2025-02-20 15:45:37.348,-295.0,-389.0,909.0,-13.0,1.0,11.0,128,64,57,82,66,466,1,466
2025-02-20 15:45:37.366,-294.0,-405.0,928.0,-9.0,3.0,12.0,127,63,58,82,66,475,2,466
2025-02-20 15:45:37.388,-331.0,-371.0,905.0,-3.0,7.0,9.0,127,64,58,82,66,484,2,465
2025-02-20 15:45:37.404,-340.0,-352.0,899.0,-2.0,8.0,7.0,127,63,57,82,66,471,2,460
2025-02-20 15:45:37.425,-330.0,-347.0,917.0,-7.0,8.0,3.0,128,65,58,81,67,456,2,451
2025-02-20 15:45:37.443,-291.0,-380.0,930.0,-8.0,8.0,3.0,127,64,58,82,66,472,2,457
2025-02-20 15:45:37.460,-273.0,-394.0,935.0,-9.0,14.0,3.0,127,64,57,82,67,499,1,463
2025-02-20 15:45:37.480,-289.0,-413.0,909.0,-8.0,20.0,4.0,127,64,58,82,68,516,2,468
2025-02-20 15:45:37.500,-318.0,-386.0,849.0,-13.0,17.0,4.0,127,64,58,82,67,517,1,471
2025-02-20 15:45:37.519,-337.0,-431.0,812.0,-7.0,9.0,3.0,128,64,58,83,66,513,2,474
2025-02-20 15:45:37.539,-339.0,-424.0,821.0,-3.0,2.0,4.0,127,64,58,82,67,503,1,476
2025-02-20 15:45:37.557,-314.0,-443.0,849.0,1.0,0.0,5.0,128,64,59,84,66,490,2,474
2025-02-20 15:45:37.577,-300.0,-425.0,874.0,0.0,0.0,7.0,127,64,58,82,67,477,1,475
2025-02-20 15:45:37.597,-306.0,-410.0,889.0,-2.0,1.0,7.0,128,64,58,82,67,465,1,477
2025-02-20 15:45:37.614,-313.0,-382.0,894.0,-7.0,2.0,8.0,127,64,57,83,68,466,2,477
2025-02-20 15:45:37.633,-314.0,-390.0,895.0,-6.0,1.0,6.0,127,64,58,83,66,470,2,477
2025-02-20 15:45:37.651,-339.0,-384.0,881.0,-5.0,-1.0,7.0,129,66,58,83,67,475,2,481
2025-02-20 15:45:37.671,-347.0,-378.0,890.0,-2.0,-2.0,6.0,127,65,58,82,67,468,2,482
2025-02-20 15:45:37.691,-348.0,-359.0,890.0,-5.0,2.0,5.0,128,64,57,83,67,463,2,484
2025-02-20 15:45:37.708,-346.0,-374.0,869.0,-4.0,4.0,3.0,127,65,59,84,67,461,2,477
2025-02-20 15:45:37.728,-347.0,-366.0,859.0,-5.0,4.0,2.0,128,65,59,83,67,462,2,473
2025-02-20 15:45:37.748,-346.0,-374.0,848.0,-5.0,3.0,0.0,128,64,59,83,67,460,2,469
2025-02-20 15:45:37.765,-317.0,-418.0,854.0,0.0,2.0,-2.0,128,63,57,83,67,452,2,464
2025-02-20 15:45:37.785,-329.0,-416.0,851.0,1.0,0.0,-1.0,128,65,59,83,68,438,2,457
2025-02-20 15:45:37.806,-342.0,-411.0,834.0,-3.0,-2.0,0.0,127,64,58,82,67,431,1,451
2025-02-20 15:45:37.823,-342.0,-408.0,831.0,-7.0,-4.0,1.0,128,65,59,83,67,446,2,454
2025-02-20 15:45:37.842,-339.0,-422.0,840.0,-7.0,-5.0,1.0,128,64,57,83,68,454,2,457
2025-02-20 15:45:37.862,-335.0,-431.0,862.0,-3.0,-4.0,1.0,128,64,58,82,68,475,1,462
2025-02-20 15:45:37.879,-328.0,-437.0,874.0,2.0,-2.0,0.0,128,63,59,83,67,482,2,470
2025-02-20 15:45:37.898,-322.0,-423.0,885.0,4.0,-1.0,1.0,128,64,58,84,67,475,1,472
2025-02-20 15:45:37.917,-344.0,-384.0,881.0,-3.0,-1.0,0.0,129,65,58,83,68,463,1,473
2025-02-20 15:45:37.937,-344.0,-414.0,874.0,-6.0,-3.0,1.0,129,64,58,84,68,455,1,472
2025-02-20 15:45:37.957,-340.0,-426.0,877.0,-4.0,-2.0,0.0,129,64,59,84,69,452,2,469
2025-02-20 15:45:37.974,-333.0,-426.0,875.0,0.0,0.0,0.0,127,64,59,83,67,456,1,467
2025-02-20 15:45:37.994,-342.0,-415.0,872.0,3.0,0.0,0.0,128,65,58,84,68,469,2,465
2025-02-20 15:45:38.014,-344.0,-399.0,876.0,1.0,-1.0,0.0,129,65,60,84,68,469,3,463
2025-02-20 15:45:38.031,-337.0,-411.0,895.0,-2.0,-4.0,0.0,128,65,59,84,68,466,1,460
2025-02-20 15:45:38.051,-325.0,-424.0,897.0,-1.0,-2.0,0.0,129,64,59,84,69,462,2,458
2025-02-20 15:45:38.068,-310.0,-435.0,908.0,3.0,3.0,1.0,128,65,59,83,68,459,2,456
2025-02-20 15:45:38.086,-321.0,-415.0,901.0,5.0,6.0,1.0,129,65,59,84,68,459,2,455
2025-02-20 15:45:38.109,-343.0,-389.0,877.0,0.0,5.0,2.0,129,64,59,84,68,455,1,451
2025-02-20 15:45:38.126,-370.0,-399.0,854.0,-4.0,2.0,2.0,129,65,58,84,68,446,2,448
2025-02-20 15:45:38.146,-355.0,-395.0,860.0,-4.0,-2.0,2.0,129,69,59,84,68,456,2,457
2025-02-20 15:45:38.166,-344.0,-408.0,886.0,-6.0,-3.0,3.0,129,65,59,84,68,463,1,463
2025-02-20 15:45:38.183,-323.0,-438.0,898.0,-1.0,0.0,3.0,129,65,59,83,68,463,2,464
2025-02-20 15:45:38.203,-324.0,-418.0,909.0,1.0,3.0,4.0,129,65,59,84,68,460,2,464
2025-02-20 15:45:38.223,-344.0,-403.0,889.0,-1.0,5.0,4.0,129,66,58,84,68,460,2,464
2025-02-20 15:45:38.240,-362.0,-376.0,866.0,-4.0,4.0,3.0,129,65,59,83,68,462,1,464
2025-02-20 15:45:38.261,-363.0,-398.0,857.0,-3.0,2.0,2.0,129,64,59,84,67,461,2,464
2025-02-20 15:45:38.280,-346.0,-427.0,869.0,3.0,3.0,1.0,129,65,61,84,69,460,2,464
2025-02-20 15:45:38.298,-343.0,-421.0,864.0,5.0,5.0,2.0,129,65,59,83,68,459,1,464
2025-02-20 15:45:38.317,-353.0,-419.0,851.0,3.0,4.0,2.0,128,65,61,84,68,462,1,464
2025-02-20 15:45:38.335,-351.0,-387.0,860.0,1.0,2.0,4.0,128,65,59,84,68,462,2,464
2025-02-20 15:45:38.355,-343.0,-391.0,874.0,-1.0,3.0,5.0,129,65,59,84,69,464,2,466
2025-02-20 15:45:38.375,-348.0,-397.0,872.0,1.0,3.0,3.0,129,65,59,84,68,457,1,464
2025-02-20 15:45:38.392,-361.0,-385.0,877.0,6.0,2.0,2.0,129,66,61,84,68,455,2,463
2025-02-20 15:45:38.412,-367.0,-352.0,894.0,4.0,1.0,1.0,129,65,60,84,69,455,2,463
2025-02-20 15:45:38.432,-366.0,-360.0,910.0,0.0,2.0,1.0,129,65,60,84,68,457,2,463
2025-02-20 15:45:38.449,-365.0,-379.0,904.0,-2.0,2.0,0.0,129,65,59,85,69,459,2,463
2025-02-20 15:45:38.470,-353.0,-389.0,912.0,0.0,4.0,-1.0,128,65,59,84,68,459,2,463
2025-02-20 15:45:38.490,-360.0,-393.0,895.0,0.0,5.0,0.0,129,66,59,84,64,460,1,462
2025-02-20 15:45:38.507,-369.0,-384.0,879.0,-2.0,6.0,-1.0,129,65,59,84,69,463,1,463
2025-02-20 15:45:38.527,-372.0,-396.0,861.0,-3.0,6.0,-1.0,128,66,59,84,68,461,2,461
2025-02-20 15:45:38.545,-377.0,-401.0,845.0,-1.0,6.0,-1.0,129,66,60,84,68,456,2,460
2025-02-20 15:45:38.564,-377.0,-400.0,832.0,1.0,4.0,-1.0,128,65,59,84,68,448,2,460
2025-02-20 15:45:38.582,-373.0,-388.0,833.0,-1.0,0.0,-1.0,129,66,60,84,69,448,3,460
2025-02-20 15:45:38.600,-369.0,-413.0,842.0,-2.0,-1.0,0.0,129,65,60,84,68,454,6,459
2025-02-20 15:45:38.619,-364.0,-396.0,850.0,-4.0,-1.0,-1.0,128,66,59,85,68,456,2,460
2025-02-20 15:45:38.642,-354.0,-409.0,864.0,-1.0,1.0,0.0,129,65,59,84,69,458,1,458
2025-02-20 15:45:38.654,-356.0,-396.0,876.0,1.0,2.0,-2.0,129,65,59,84,69,456,1,458
2025-02-20 15:45:38.679,-371.0,-398.0,861.0,-1.0,3.0,-1.0,129,65,60,85,69,455,2,458
2025-02-20 15:45:38.698,-361.0,-416.0,852.0,-3.0,1.0,-1.0,129,65,60,84,68,458,1,457
2025-02-20 15:45:38.716,-363.0,-395.0,860.0,-2.0,0.0,1.0,129,65,59,85,68,458,2,458
2025-02-20 15:45:38.736,-387.0,-389.0,848.0,-2.0,-1.0,2.0,129,65,59,84,68,456,1,458
2025-02-20 15:45:38.755,-414.0,-372.0,833.0,0.0,-2.0,2.0,129,65,60,83,69,458,2,458
2025-02-20 15:45:38.770,-409.0,-377.0,861.0,3.0,-3.0,0.0,129,65,58,84,69,458,2,459
2025-02-20 15:45:38.793,-397.0,-374.0,880.0,2.0,-1.0,0.0,129,65,59,84,69,459,1,460
2025-02-20 15:45:38.810,-387.0,-395.0,872.0,0.0,-1.0,-1.0,129,66,60,85,69,457,1,459
2025-02-20 15:45:38.830,-384.0,-396.0,875.0,0.0,-1.0,-1.0,128,66,60,83,68,456,2,458
2025-02-20 15:45:38.850,-364.0,-404.0,884.0,0.0,-2.0,-1.0,129,65,60,83,69,453,2,459
2025-02-20 15:45:38.868,-359.0,-395.0,895.0,-4.0,-1.0,0.0,128,65,59,83,69,444,1,456
2025-02-20 15:45:38.888,-347.0,-427.0,890.0,-3.0,3.0,1.0,129,65,59,84,68,446,2,456
2025-02-20 15:45:38.908,-362.0,-396.0,871.0,-1.0,5.0,1.0,129,66,60,84,69,453,1,455
2025-02-20 15:45:38.925,-377.0,-392.0,857.0,-4.0,4.0,1.0,129,65,59,84,68,461,2,456
2025-02-20 15:45:38.945,-382.0,-400.0,846.0,-3.0,1.0,1.0,129,64,59,84,68,466,1,459
2025-02-20 15:45:38.965,-386.0,-395.0,842.0,-2.0,1.0,1.0,129,66,59,85,69,465,1,460
2025-02-20 15:45:38.981,-380.0,-406.0,843.0,0.0,0.0,1.0,128,66,60,87,69,470,2,464
2025-02-20 15:45:38.999,-376.0,-383.0,861.0,2.0,0.0,1.0,129,64,60,84,69,473,1,467
2025-02-20 15:45:39.019,-383.0,-371.0,863.0,1.0,0.0,1.0,128,65,60,84,69,473,2,468
2025-02-20 15:45:39.039,-393.0,-368.0,848.0,-1.0,-2.0,1.0,129,65,59,85,68,471,2,467
2025-02-20 15:45:39.059,-395.0,-372.0,858.0,-1.0,-5.0,0.0,129,66,59,84,69,467,1,467
2025-02-20 15:45:39.077,-385.0,-384.0,881.0,1.0,-5.0,-1.0,129,66,59,85,69,462,2,463
2025-02-20 15:45:39.097,-366.0,-394.0,902.0,4.0,-2.0,-1.0,129,66,59,84,69,457,1,461
2025-02-20 15:45:39.116,-373.0,-379.0,899.0,3.0,1.0,-2.0,129,65,60,84,69,456,2,458
2025-02-20 15:45:39.133,-375.0,-393.0,884.0,2.0,3.0,0.0,129,65,59,85,69,453,2,457
2025-02-20 15:45:39.152,-387.0,-380.0,871.0,0.0,2.0,0.0,129,65,60,84,68,451,3,456
2025-02-20 15:45:39.173,-402.0,-373.0,851.0,-1.0,-1.0,0.0,129,66,59,89,69,451,2,455
2025-02-20 15:45:39.189,-390.0,-386.0,857.0,0.0,-3.0,-1.0,129,66,60,84,69,449,2,454
2025-02-20 15:45:39.211,-383.0,-391.0,867.0,0.0,-2.0,-1.0,129,62,60,84,69,447,2,451
2025-02-20 15:45:39.231,-377.0,-397.0,875.0,-1.0,-1.0,0.0,129,66,59,85,69,442,2,448
2025-02-20 15:45:39.248,-370.0,-398.0,873.0,0.0,2.0,0.0,129,66,58,85,68,444,2,448
2025-02-20 15:45:39.268,-380.0,-379.0,867.0,2.0,2.0,0.0,129,66,59,84,69,449,2,453
2025-02-20 15:45:39.285,-384.0,-388.0,869.0,0.0,0.0,0.0,128,65,59,84,69,455,1,455
2025-02-20 15:45:39.305,-380.0,-389.0,870.0,1.0,-1.0,0.0,129,66,60,84,69,460,2,456
2025-02-20 15:45:39.325,-387.0,-378.0,858.0,0.0,-1.0,1.0,130,65,60,85,69,462,1,459
2025-02-20 15:45:39.328,-379.0,-367.0,857.0,-1.0,0.0,1.0,129,66,60,84,69,462,2,460
2025-02-20 15:45:39.362,-383.0,-388.0,848.0,0.0,1.0,0.0,129,66,60,84,69,464,2,461
2025-02-20 15:45:39.383,-392.0,-370.0,843.0,1.0,-1.0,0.0,129,66,60,84,69,463,2,461
2025-02-20 15:45:39.399,-395.0,-374.0,849.0,0.0,-2.0,0.0,129,66,60,85,70,464,0,461
2025-02-20 15:45:39.419,-393.0,-374.0,852.0,-2.0,-3.0,0.0,129,65,60,85,68,464,0,461
2025-02-20 15:45:39.436,-377.0,-390.0,861.0,-1.0,-2.0,-1.0,129,66,59,84,70,464,2,462
2025-02-20 15:45:39.457,-374.0,-387.0,871.0,0.0,-1.0,0.0,129,66,60,84,69,464,3,462
2025-02-20 15:45:39.477,-382.0,-382.0,869.0,-1.0,-1.0,0.0,130,66,60,84,69,462,2,462
2025-02-20 15:45:39.494,-379.0,-384.0,873.0,-2.0,-3.0,0.0,129,66,59,84,70,464,1,462
2025-02-20 15:45:39.514,-383.0,-387.0,883.0,-2.0,-2.0,0.0,129,66,59,84,69,463,2,462
2025-02-20 15:45:39.534,-382.0,-395.0,876.0,-1.0,0.0,0.0,129,65,60,85,69,463,2,461
2025-02-20 15:45:39.551,-400.0,-366.0,863.0,0.0,0.0,0.0,129,66,60,84,69,463,1,464
2025-02-20 15:45:39.570,-394.0,-362.0,860.0,-2.0,-2.0,0.0,129,66,60,85,69,464,1,461
2025-02-20 15:45:39.589,-394.0,-358.0,869.0,-2.0,-3.0,-1.0,129,65,59,85,70,465,2,460
2025-02-20 15:45:39.608,-383.0,-376.0,878.0,-1.0,-2.0,-1.0,129,65,59,85,70,462,1,460
2025-02-20 15:45:39.629,-374.0,-395.0,886.0,1.0,0.0,-1.0,128,66,60,85,68,457,1,458
2025-02-20 15:45:39.649,-373.0,-372.0,894.0,0.0,0.0,0.0,129,66,60,86,69,466,2,459
2025-02-20 15:45:39.662,-371.0,-376.0,885.0,-3.0,0.0,0.0,129,65,60,84,69,477,2,461
2025-02-20 15:45:39.686,-377.0,-379.0,874.0,-3.0,1.0,0.0,129,66,60,86,70,482,1,459
2025-02-20 15:45:39.702,-384.0,-384.0,855.0,-3.0,1.0,0.0,129,66,60,85,70,476,2,460
2025-02-20 15:45:39.723,-395.0,-394.0,845.0,0.0,0.0,1.0,129,65,60,85,69,475,2,458
2025-02-20 15:45:39.740,-391.0,-383.0,848.0,0.0,-1.0,0.0,129,65,60,86,69,482,2,459
2025-02-20 15:45:39.758,-382.0,-388.0,864.0,0.0,-3.0,0.0,128,65,60,84,69,479,2,465
2025-02-20 15:45:39.777,-370.0,-387.0,900.0,0.0,-3.0,2.0,129,66,60,86,69,470,2,460
2025-02-20 15:45:39.800,-371.0,-364.0,915.0,-3.0,-1.0,1.0,129,66,60,85,70,458,2,461
2025-02-20 15:45:39.818,-376.0,-370.0,894.0,-5.0,1.0,1.0,129,66,60,85,69,456,2,461
2025-02-20 15:45:39.838,-394.0,-367.0,860.0,-4.0,2.0,1.0,129,65,60,84,70,464,2,461
2025-02-20 15:45:39.857,-401.0,-385.0,849.0,0.0,1.0,0.0,129,66,60,85,69,465,2,461
