timestamp,ax,ay,az,gx,gy,gz,flex1,flex2,flex3,flex4,flex5,emg1,emg2,emg3
2025-02-20 15:43:40.354,-381.0,-164.0,949.0,-2.0,-1.0,-3.0,125,106,95,126,115,463,457,466
2025-02-20 15:43:40.354,-381.0,-161.0,938.0,-1.0,0.0,-3.0,125,106,96,126,116,462,457,467
2025-02-20 15:43:40.361,-389.0,-153.0,934.0,-1.0,0.0,-3.0,125,106,97,125,115,461,456,466
2025-02-20 15:43:40.364,-396.0,-152.0,921.0,0.0,0.0,-3.0,126,106,95,125,115,462,455,466
2025-02-20 15:43:40.367,-389.0,-149.0,933.0,-1.0,-1.0,-3.0,125,107,96,124,116,462,456,465
2025-02-20 15:43:40.369,-396.0,-155.0,938.0,0.0,0.0,-2.0,125,106,96,125,114,462,457,465
2025-02-20 15:43:40.370,-396.0,-155.0,930.0,0.0,0.0,-2.0,125,106,96,124,115,462,459,464
2025-02-20 15:43:40.375,-399.0,-152.0,930.0,0.0,0.0,-3.0,125,105,96,125,115,464,461,465
2025-02-20 15:43:40.376,-403.0,-152.0,931.0,0.0,0.0,-3.0,125,105,96,125,115,465,465,463
2025-02-20 15:43:40.395,-397.0,-151.0,931.0,1.0,0.0,-3.0,125,106,96,125,115,465,468,464
2025-02-20 15:43:40.413,-395.0,-158.0,930.0,0.0,0.0,-3.0,125,106,96,125,115,463,470,462
2025-02-20 15:43:40.432,-398.0,-163.0,929.0,0.0,0.0,-3.0,125,106,96,125,115,464,471,463
2025-02-20 15:43:40.453,-396.0,-165.0,929.0,-1.0,0.0,-3.0,125,108,96,125,115,464,470,463
2025-02-20 15:43:40.467,-399.0,-172.0,930.0,-1.0,1.0,-3.0,125,106,96,124,115,463,468,462
2025-02-20 15:43:40.486,-395.0,-168.0,926.0,0.0,0.0,-2.0,126,106,97,125,115,462,468,462
2025-02-20 15:43:40.510,-391.0,-161.0,934.0,-1.0,0.0,-3.0,125,106,96,125,116,462,465,464
2025-02-20 15:43:40.527,-396.0,-174.0,936.0,-1.0,0.0,-2.0,126,106,95,125,115,462,463,463
2025-02-20 15:43:40.546,-392.0,-176.0,933.0,-1.0,0.0,-1.0,125,106,96,125,115,461,460,465
2025-02-20 15:43:40.567,-395.0,-168.0,935.0,-1.0,0.0,-1.0,125,106,97,125,116,461,458,464
2025-02-20 15:43:40.584,-396.0,-167.0,937.0,-2.0,0.0,-1.0,126,106,96,125,115,462,456,465
2025-02-20 15:43:40.604,-398.0,-172.0,939.0,-2.0,1.0,0.0,125,106,96,125,115,461,455,465
2025-02-20 15:43:40.619,-398.0,-169.0,930.0,0.0,1.0,0.0,125,106,96,126,115,462,456,465
2025-02-20 15:43:40.642,-405.0,-161.0,924.0,-1.0,1.0,0.0,125,106,96,124,115,461,457,466
2025-02-20 15:43:40.661,-402.0,-153.0,915.0,-2.0,-1.0,0.0,126,106,96,125,115,461,459,465
2025-02-20 15:43:40.679,-399.0,-149.0,927.0,-2.0,-1.0,0.0,125,105,96,126,116,462,460,466
2025-02-20 15:43:40.699,-402.0,-157.0,929.0,-1.0,0.0,0.0,126,106,97,125,115,462,461,465
2025-02-20 15:43:40.719,-395.0,-153.0,932.0,0.0,1.0,0.0,125,106,95,125,115,463,462,465
2025-02-20 15:43:40.736,-399.0,-145.0,929.0,-2.0,1.0,-1.0,126,106,97,125,115,463,464,466
2025-02-20 15:43:40.754,-395.0,-156.0,922.0,-3.0,1.0,-2.0,126,106,96,125,115,464,465,465
2025-02-20 15:43:40.776,-396.0,-165.0,919.0,-3.0,1.0,-2.0,125,106,96,126,115,464,467,464
2025-02-20 15:43:40.789,-393.0,-164.0,919.0,-2.0,0.0,-1.0,126,105,96,125,115,464,466,464
2025-02-20 15:43:40.814,-394.0,-164.0,924.0,-4.0,1.0,-1.0,125,106,96,126,115,464,465,464
2025-02-20 15:43:40.831,-402.0,-168.0,914.0,-4.0,0.0,-1.0,126,106,96,126,115,465,463,463
2025-02-20 15:43:40.851,-401.0,-157.0,870.0,-4.0,-2.0,-1.0,125,106,96,126,115,465,464,463
2025-02-20 15:43:40.871,-410.0,-174.0,923.0,-4.0,0.0,0.0,125,106,96,125,115,463,463,462
2025-02-20 15:43:40.888,-417.0,-171.0,913.0,-3.0,-2.0,0.0,125,106,96,125,115,463,463,463
2025-02-20 15:43:40.908,-421.0,-169.0,916.0,-1.0,-2.0,0.0,125,106,96,125,115,464,462,464
2025-02-20 15:43:40.928,-420.0,-173.0,932.0,-1.0,-3.0,0.0,125,106,96,125,114,465,461,465
2025-02-20 15:43:40.945,-411.0,-165.0,938.0,-1.0,-4.0,0.0,125,105,97,126,115,464,459,464
2025-02-20 15:43:40.965,-404.0,-175.0,947.0,-1.0,-4.0,0.0,126,106,96,125,115,464,458,464
2025-02-20 15:43:40.985,-401.0,-174.0,947.0,0.0,-3.0,0.0,126,106,96,125,115,465,457,466
2025-02-20 15:43:41.002,-392.0,-172.0,950.0,2.0,-3.0,0.0,125,106,96,125,115,463,459,465
2025-02-20 15:43:41.020,-398.0,-163.0,949.0,3.0,-2.0,0.0,125,107,96,126,115,465,459,465
2025-02-20 15:43:41.039,-395.0,-149.0,935.0,2.0,-1.0,-1.0,126,106,96,125,115,463,459,465
2025-02-20 15:43:41.060,-393.0,-157.0,923.0,1.0,-2.0,-1.0,125,106,97,125,115,464,459,465
2025-02-20 15:43:41.080,-391.0,-167.0,908.0,3.0,-4.0,0.0,125,106,96,125,115,463,459,465
2025-02-20 15:43:41.097,-391.0,-161.0,920.0,5.0,-6.0,1.0,125,106,96,125,115,463,458,464
2025-02-20 15:43:41.117,-392.0,-155.0,931.0,5.0,-6.0,1.0,125,106,97,124,115,463,460,464
2025-02-20 15:43:41.136,-394.0,-153.0,939.0,5.0,-4.0,1.0,125,106,95,126,116,462,463,464
2025-02-20 15:43:41.154,-396.0,-154.0,935.0,5.0,-4.0,1.0,125,106,96,125,116,462,466,463
2025-02-20 15:43:41.174,-398.0,-141.0,935.0,4.0,-4.0,1.0,126,106,96,125,116,463,468,462
2025-02-20 15:43:41.194,-396.0,-137.0,930.0,2.0,-4.0,0.0,125,106,96,125,115,464,469,462
2025-02-20 15:43:41.210,-400.0,-151.0,936.0,1.0,-3.0,0.0,126,106,96,126,116,465,471,463
2025-02-20 15:43:41.231,-397.0,-153.0,943.0,3.0,-2.0,0.0,125,106,96,125,115,465,470,463
2025-02-20 15:43:41.248,-388.0,-142.0,944.0,2.0,-1.0,0.0,125,106,96,125,115,465,468,462
2025-02-20 15:43:41.269,-396.0,-136.0,946.0,0.0,-1.0,0.0,126,106,96,124,115,465,466,464
2025-02-20 15:43:41.288,-390.0,-137.0,948.0,-2.0,-1.0,-1.0,125,106,96,125,115,465,464,464
2025-02-20 15:43:41.305,-388.0,-144.0,938.0,-3.0,0.0,-1.0,125,106,96,125,115,464,462,464
2025-02-20 15:43:41.326,-391.0,-152.0,935.0,-3.0,0.0,-1.0,125,105,96,126,116,464,460,464
2025-02-20 15:43:41.345,-389.0,-149.0,937.0,-3.0,-1.0,-1.0,126,106,95,125,116,462,459,465
2025-02-20 15:43:41.361,-383.0,-153.0,932.0,-3.0,0.0,-1.0,125,106,96,125,116,462,457,466
2025-02-20 15:43:41.383,-386.0,-155.0,934.0,-1.0,-1.0,0.0,126,106,96,125,115,460,456,467
2025-02-20 15:43:41.403,-386.0,-145.0,935.0,-1.0,-1.0,1.0,125,102,96,126,115,461,455,467
2025-02-20 15:43:41.420,-392.0,-138.0,934.0,-1.0,-2.0,1.0,125,106,95,125,115,460,456,467
2025-02-20 15:43:41.438,-395.0,-126.0,929.0,-2.0,-2.0,0.0,126,107,94,125,115,460,458,468
2025-02-20 15:43:41.460,-395.0,-133.0,931.0,-1.0,-2.0,-1.0,125,106,96,125,115,462,461,468
2025-02-20 15:43:41.475,-395.0,-133.0,928.0,0.0,-2.0,-1.0,126,106,97,126,115,463,463,467
2025-02-20 15:43:41.497,-393.0,-131.0,933.0,1.0,-2.0,-2.0,125,106,96,125,115,465,465,468
2025-02-20 15:43:41.514,-394.0,-135.0,936.0,0.0,-2.0,-2.0,126,106,96,126,115,464,467,468
2025-02-20 15:43:41.534,-389.0,-141.0,940.0,0.0,-3.0,-2.0,125,106,96,125,115,465,468,467
2025-02-20 15:43:41.554,-385.0,-148.0,944.0,0.0,-2.0,-2.0,125,106,96,126,115,464,469,468
2025-02-20 15:43:41.572,-385.0,-146.0,941.0,0.0,-2.0,-2.0,125,105,96,125,115,464,470,467
2025-02-20 15:43:41.592,-390.0,-143.0,942.0,-1.0,-3.0,-2.0,124,105,96,125,115,463,471,468
2025-02-20 15:43:41.611,-392.0,-155.0,946.0,-1.0,-2.0,-2.0,125,106,96,125,115,463,470,468
2025-02-20 15:43:41.629,-383.0,-154.0,945.0,0.0,-2.0,-2.0,127,106,96,125,115,463,469,468
2025-02-20 15:43:41.649,-391.0,-147.0,944.0,-1.0,-2.0,-1.0,126,106,97,125,116,461,469,468
2025-02-20 15:43:41.669,-395.0,-150.0,943.0,-1.0,-2.0,-1.0,125,105,97,125,115,461,467,469
2025-02-20 15:43:41.686,-387.0,-154.0,949.0,0.0,-2.0,-1.0,125,106,95,126,115,461,466,468
2025-02-20 15:43:41.706,-384.0,-147.0,954.0,0.0,-1.0,-1.0,126,105,96,125,115,460,465,468
2025-02-20 15:43:41.723,-393.0,-146.0,947.0,0.0,0.0,0.0,126,106,97,125,116,459,464,469
2025-02-20 15:43:41.741,-393.0,-142.0,945.0,-1.0,-1.0,0.0,125,105,96,125,114,459,463,470
2025-02-20 15:43:41.764,-387.0,-138.0,944.0,-1.0,-1.0,-1.0,125,105,97,125,115,459,460,469
2025-02-20 15:43:41.779,-391.0,-137.0,937.0,-1.0,0.0,-1.0,126,106,96,126,115,458,461,470
2025-02-20 15:43:41.800,-390.0,-143.0,932.0,0.0,-1.0,-1.0,125,105,96,125,115,458,460,470
2025-02-20 15:43:41.821,-387.0,-139.0,934.0,0.0,-1.0,-1.0,126,106,96,125,115,458,460,469
2025-02-20 15:43:41.838,-378.0,-144.0,932.0,0.0,-1.0,-2.0,125,106,96,126,115,458,461,470
2025-02-20 15:43:41.858,-382.0,-148.0,936.0,0.0,-1.0,-1.0,125,106,96,125,115,457,460,469
2025-02-20 15:43:41.878,-384.0,-148.0,933.0,0.0,-1.0,-1.0,126,105,96,125,115,459,461,468
2025-02-20 15:43:41.896,-379.0,-146.0,935.0,0.0,-2.0,-1.0,125,106,96,125,115,457,462,468
2025-02-20 15:43:41.915,-381.0,-146.0,935.0,0.0,-2.0,-1.0,126,106,97,126,115,457,464,469
2025-02-20 15:43:41.935,-385.0,-146.0,939.0,0.0,-2.0,-1.0,125,106,96,125,115,456,466,467
2025-02-20 15:43:41.952,-383.0,-141.0,943.0,0.0,-2.0,-1.0,125,106,96,125,116,457,467,466
2025-02-20 15:43:41.972,-385.0,-144.0,947.0,1.0,-1.0,-1.0,125,106,96,126,115,457,469,466
2025-02-20 15:43:41.989,-387.0,-146.0,947.0,0.0,-1.0,-1.0,125,105,96,126,115,456,469,466
2025-02-20 15:43:42.007,-383.0,-140.0,950.0,-1.0,-1.0,-1.0,126,106,96,126,115,456,469,466
2025-02-20 15:43:42.030,-383.0,-144.0,950.0,-1.0,-1.0,-1.0,126,106,97,125,115,458,467,466
2025-02-20 15:43:42.045,-383.0,-151.0,949.0,-1.0,-1.0,-1.0,125,106,97,125,115,456,466,466
2025-02-20 15:43:42.066,-383.0,-146.0,947.0,0.0,0.0,0.0,125,106,96,126,115,455,464,466
2025-02-20 15:43:42.087,-383.0,-141.0,947.0,-1.0,0.0,0.0,125,106,96,125,115,454,462,466
2025-02-20 15:43:42.104,-390.0,-133.0,947.0,-2.0,0.0,0.0,125,106,96,125,116,455,461,467
2025-02-20 15:43:42.124,-389.0,-139.0,947.0,-2.0,1.0,-1.0,125,106,97,126,115,454,459,468
2025-02-20 15:43:42.141,-387.0,-136.0,936.0,-1.0,0.0,-1.0,126,106,96,126,115,453,459,469
2025-02-20 15:43:42.160,-396.0,-132.0,936.0,-1.0,-1.0,-1.0,124,106,96,125,115,453,458,466
2025-02-20 15:43:42.181,-386.0,-141.0,940.0,-2.0,-1.0,-1.0,126,106,97,126,115,453,458,468
2025-02-20 15:43:42.198,-390.0,-141.0,944.0,-1.0,0.0,-1.0,125,106,96,126,115,453,458,468
2025-02-20 15:43:42.219,-393.0,-133.0,938.0,-1.0,0.0,-1.0,125,105,97,125,115,453,459,467
2025-02-20 15:43:42.239,-391.0,-132.0,939.0,-1.0,0.0,-1.0,126,107,96,125,115,454,460,467
2025-02-20 15:43:42.256,-393.0,-135.0,930.0,-2.0,0.0,-1.0,125,107,96,125,115,454,462,466
2025-02-20 15:43:42.276,-390.0,-134.0,923.0,-2.0,-1.0,-2.0,126,106,97,124,115,455,463,465
2025-02-20 15:43:42.296,-391.0,-139.0,921.0,-1.0,-1.0,-2.0,125,106,96,125,115,456,464,464
2025-02-20 15:43:42.311,-386.0,-140.0,926.0,0.0,-2.0,-2.0,126,106,96,125,115,456,464,464
2025-02-20 15:43:42.333,-379.0,-137.0,938.0,-1.0,-2.0,-2.0,125,105,96,126,115,456,464,464
2025-02-20 15:43:42.353,-381.0,-147.0,938.0,-1.0,-2.0,-1.0,125,105,96,125,115,456,464,463
2025-02-20 15:43:42.371,-382.0,-151.0,939.0,-1.0,-2.0,-1.0,126,106,96,126,115,457,464,463
2025-02-20 15:43:42.389,-379.0,-147.0,943.0,-1.0,-2.0,-2.0,125,106,96,125,115,458,465,461
2025-02-20 15:43:42.407,-382.0,-147.0,945.0,0.0,-1.0,-1.0,125,106,97,125,115,458,466,461
2025-02-20 15:43:42.427,-385.0,-143.0,942.0,-1.0,-2.0,-1.0,125,105,96,125,115,458,464,462
2025-02-20 15:43:42.445,-382.0,-145.0,946.0,-3.0,-2.0,-1.0,125,106,97,125,115,457,463,462
2025-02-20 15:43:42.462,-387.0,-150.0,946.0,-1.0,-1.0,-1.0,125,106,96,125,115,456,460,462
2025-02-20 15:43:42.485,-393.0,-145.0,946.0,0.0,-1.0,-1.0,125,105,96,125,115,456,459,462
2025-02-20 15:43:42.505,-388.0,-141.0,947.0,-1.0,-1.0,-1.0,125,105,96,125,115,456,458,462
2025-02-20 15:43:42.522,-393.0,-147.0,951.0,-2.0,-1.0,-1.0,126,106,96,125,115,456,457,462
2025-02-20 15:43:42.542,-391.0,-147.0,951.0,-1.0,-1.0,-1.0,125,105,95,125,115,458,458,463
2025-02-20 15:43:42.562,-385.0,-143.0,952.0,-1.0,-1.0,-1.0,125,106,96,125,115,459,457,462
2025-02-20 15:43:42.578,-385.0,-136.0,949.0,-1.0,-1.0,-1.0,125,106,96,125,115,459,456,463
2025-02-20 15:43:42.599,-382.0,-138.0,946.0,-1.0,0.0,-1.0,125,105,96,126,116,459,457,462
2025-02-20 15:43:42.619,-386.0,-139.0,947.0,-1.0,-1.0,-1.0,125,105,96,125,115,462,457,462
2025-02-20 15:43:42.636,-383.0,-142.0,945.0,-1.0,0.0,-1.0,126,106,96,126,115,461,459,462
2025-02-20 15:43:42.656,-379.0,-141.0,939.0,-1.0,0.0,-1.0,126,106,96,125,115,461,460,461
2025-02-20 15:43:42.667,-386.0,-139.0,938.0,-1.0,0.0,-1.0,126,107,96,125,115,462,461,462
2025-02-20 15:43:42.694,-382.0,-141.0,935.0,-1.0,0.0,-1.0,125,105,96,125,115,463,462,461
2025-02-20 15:43:42.711,-381.0,-137.0,936.0,-1.0,-1.0,-1.0,125,106,96,126,115,463,464,462
2025-02-20 15:43:42.729,-389.0,-135.0,935.0,-1.0,-1.0,-1.0,126,105,97,125,115,463,466,461
2025-02-20 15:43:42.751,-384.0,-143.0,934.0,-1.0,-1.0,-1.0,126,105,96,125,115,463,466,460
2025-02-20 15:43:42.770,-379.0,-142.0,932.0,-1.0,-1.0,-1.0,127,106,96,126,115,464,467,461
2025-02-20 15:43:42.787,-381.0,-141.0,938.0,-1.0,-1.0,-1.0,125,105,96,126,115,465,466,460
2025-02-20 15:43:42.807,-385.0,-143.0,936.0,-1.0,-1.0,-1.0,125,106,91,125,116,463,466,460
2025-02-20 15:43:42.827,-386.0,-146.0,929.0,-1.0,-1.0,-1.0,126,106,96,125,115,464,464,459
2025-02-20 15:43:42.845,-386.0,-147.0,928.0,0.0,-2.0,0.0,125,106,97,125,115,463,462,460
2025-02-20 15:43:42.865,-389.0,-144.0,942.0,0.0,-2.0,-1.0,126,106,96,126,115,462,460,461
2025-02-20 15:43:42.881,-382.0,-144.0,948.0,0.0,-2.0,0.0,126,106,96,125,115,463,458,461
2025-02-20 15:43:42.903,-391.0,-146.0,945.0,0.0,-1.0,0.0,126,109,96,126,115,462,458,462
2025-02-20 15:43:42.922,-384.0,-144.0,948.0,-1.0,-1.0,0.0,126,107,96,125,115,463,456,462
2025-02-20 15:43:42.940,-382.0,-145.0,947.0,-1.0,-1.0,0.0,125,106,97,126,115,463,457,462
2025-02-20 15:43:42.960,-389.0,-148.0,946.0,-1.0,0.0,0.0,126,107,97,125,115,462,457,462
2025-02-20 15:43:42.980,-385.0,-141.0,952.0,0.0,0.0,0.0,126,106,97,126,115,459,460,464
2025-02-20 15:43:42.998,-384.0,-137.0,929.0,-1.0,-1.0,0.0,126,106,97,127,115,456,459,465
2025-02-20 15:43:43.017,-382.0,-137.0,940.0,-1.0,0.0,0.0,126,107,97,126,115,458,460,463
2025-02-20 15:43:43.038,-384.0,-137.0,937.0,-1.0,-1.0,-1.0,126,106,97,126,116,463,462,465
2025-02-20 15:43:43.055,-379.0,-138.0,940.0,-1.0,0.0,0.0,125,109,95,125,116,463,462,463
2025-02-20 15:43:43.074,-383.0,-131.0,941.0,-1.0,0.0,-1.0,126,106,96,126,116,464,461,464
2025-02-20 15:43:43.091,-382.0,-125.0,931.0,-2.0,0.0,-1.0,126,105,97,125,115,464,463,462
2025-02-20 15:43:43.111,-384.0,-137.0,936.0,-1.0,-1.0,-1.0,126,105,96,126,116,465,466,463
2025-02-20 15:43:43.131,-391.0,-139.0,930.0,0.0,-1.0,-1.0,126,106,97,125,115,464,467,462
2025-02-20 15:43:43.148,-389.0,-132.0,937.0,-1.0,-2.0,-1.0,127,106,96,126,115,464,468,462
2025-02-20 15:43:43.169,-381.0,-137.0,941.0,-1.0,-2.0,-1.0,126,107,96,126,115,464,467,462
2025-02-20 15:43:43.188,-384.0,-134.0,949.0,-1.0,-1.0,-1.0,126,106,96,126,115,464,467,463
2025-02-20 15:43:43.201,-381.0,-144.0,949.0,0.0,-1.0,-1.0,126,106,97,126,116,463,465,463
2025-02-20 15:43:43.226,-381.0,-146.0,946.0,0.0,-1.0,-1.0,126,106,96,126,115,464,463,463
2025-02-20 15:43:43.245,-379.0,-143.0,950.0,-1.0,-1.0,-1.0,125,106,95,126,116,463,461,464
2025-02-20 15:43:43.261,-384.0,-145.0,944.0,-2.0,-1.0,-1.0,126,107,97,126,115,463,460,464
2025-02-20 15:43:43.281,-383.0,-145.0,946.0,-2.0,-1.0,-1.0,125,107,96,125,116,464,458,464
2025-02-20 15:43:43.299,-385.0,-142.0,942.0,0.0,-1.0,-1.0,127,107,96,126,116,464,459,465
2025-02-20 15:43:43.318,-387.0,-145.0,949.0,0.0,-1.0,-1.0,126,106,96,125,115,463,458,465
2025-02-20 15:43:43.341,-384.0,-137.0,948.0,0.0,-1.0,-1.0,125,106,96,126,116,463,458,465
2025-02-20 15:43:43.358,-384.0,-138.0,945.0,-1.0,-1.0,-1.0,126,105,97,126,116,463,459,466
2025-02-20 15:43:43.377,-387.0,-139.0,945.0,-2.0,-1.0,0.0,126,106,97,126,119,463,459,466
2025-02-20 15:43:43.396,-379.0,-139.0,944.0,-1.0,-1.0,-1.0,126,106,97,125,115,463,459,465
2025-02-20 15:43:43.415,-382.0,-141.0,936.0,-1.0,0.0,-1.0,126,107,96,125,116,464,460,465
2025-02-20 15:43:43.435,-386.0,-138.0,940.0,-1.0,-1.0,-1.0,125,106,96,126,115,463,462,464
2025-02-20 15:43:43.455,-385.0,-142.0,938.0,-1.0,-1.0,-1.0,125,106,96,126,117,464,464,464
2025-02-20 15:43:43.472,-381.0,-138.0,942.0,-1.0,-1.0,0.0,126,106,98,126,116,464,466,463
2025-02-20 15:43:43.492,-381.0,-139.0,943.0,-1.0,-1.0,-1.0,125,106,97,126,116,466,466,463
2025-02-20 15:43:43.513,-379.0,-139.0,941.0,-1.0,-1.0,-1.0,126,106,96,126,116,467,466,463
2025-02-20 15:43:43.529,-381.0,-140.0,948.0,-1.0,-1.0,-1.0,125,105,97,126,115,467,468,462
2025-02-20 15:43:43.550,-385.0,-139.0,942.0,-2.0,-1.0,-1.0,126,106,97,125,115,468,467,461
2025-02-20 15:43:43.567,-379.0,-138.0,946.0,-2.0,-1.0,-1.0,126,107,96,126,116,469,465,462
2025-02-20 15:43:43.587,-384.0,-142.0,939.0,-1.0,-1.0,-1.0,125,106,96,125,115,468,464,462
2025-02-20 15:43:43.607,-388.0,-139.0,938.0,-2.0,-1.0,-1.0,126,107,97,126,116,468,463,463
2025-02-20 15:43:43.624,-379.0,-142.0,939.0,-1.0,-1.0,-1.0,125,105,97,126,115,467,461,463
2025-02-20 15:43:43.644,-377.0,-141.0,939.0,-1.0,-1.0,-1.0,126,106,97,125,115,467,460,463
2025-02-20 15:43:43.664,-385.0,-143.0,941.0,-1.0,-1.0,-1.0,126,107,96,126,116,467,458,464
2025-02-20 15:43:43.681,-379.0,-139.0,949.0,-1.0,-1.0,0.0,125,106,96,126,115,466,457,464
2025-02-20 15:43:43.701,-386.0,-133.0,956.0,-1.0,-1.0,-1.0,126,107,97,126,116,470,457,465
2025-02-20 15:43:43.722,-382.0,-140.0,934.0,-2.0,-1.0,-1.0,126,107,97,126,118,467,458,464
2025-02-20 15:43:43.739,-376.0,-143.0,969.0,-1.0,-1.0,-1.0,126,108,98,126,116,468,460,465
2025-02-20 15:43:43.758,-374.0,-138.0,958.0,0.0,-1.0,-1.0,127,106,97,125,116,468,460,464
2025-02-20 15:43:43.776,-379.0,-141.0,945.0,0.0,-1.0,-1.0,126,106,96,126,115,467,461,464
2025-02-20 15:43:43.796,-377.0,-131.0,934.0,-1.0,-1.0,-1.0,127,108,97,125,116,471,461,463
2025-02-20 15:43:43.816,-377.0,-146.0,948.0,0.0,-2.0,-1.0,126,106,97,126,116,472,462,462
2025-02-20 15:43:43.833,-383.0,-141.0,945.0,1.0,-1.0,0.0,126,108,98,126,116,470,463,461
2025-02-20 15:43:43.853,-388.0,-126.0,934.0,0.0,-1.0,0.0,126,106,96,126,115,468,464,461
2025-02-20 15:43:43.867,-387.0,-128.0,944.0,0.0,-1.0,-1.0,126,106,97,126,116,467,466,460
2025-02-20 15:43:43.890,-386.0,-126.0,936.0,0.0,0.0,0.0,126,108,97,126,116,466,467,461
2025-02-20 15:43:43.910,-393.0,-123.0,928.0,0.0,-1.0,-1.0,126,106,96,126,116,466,467,460
2025-02-20 15:43:43.930,-392.0,-125.0,927.0,-1.0,-1.0,-2.0,126,107,97,126,116,467,469,460
2025-02-20 15:43:43.948,-382.0,-136.0,930.0,-2.0,-1.0,-2.0,126,106,98,126,115,467,468,460
2025-02-20 15:43:43.966,-383.0,-150.0,934.0,-2.0,-1.0,-3.0,126,106,96,126,116,468,467,461
2025-02-20 15:43:43.987,-381.0,-151.0,948.0,-3.0,-1.0,-2.0,126,106,96,125,115,468,465,461
2025-02-20 15:43:44.000,-373.0,-154.0,952.0,-4.0,-1.0,-2.0,126,106,97,126,116,468,465,462
2025-02-20 15:43:44.024,-367.0,-164.0,944.0,-4.0,0.0,-2.0,126,107,97,126,116,467,464,462
2025-02-20 15:43:44.042,-366.0,-166.0,942.0,-4.0,-1.0,-1.0,126,106,99,127,116,468,461,462
2025-02-20 15:43:44.062,-367.0,-165.0,936.0,-3.0,-1.0,0.0,126,106,96,126,116,468,459,463
2025-02-20 15:43:44.082,-363.0,-157.0,942.0,-3.0,-2.0,1.0,126,105,96,126,116,467,456,463
2025-02-20 15:43:44.099,-371.0,-156.0,944.0,-3.0,-2.0,1.0,125,106,97,126,116,467,455,463
2025-02-20 15:43:44.120,-381.0,-141.0,944.0,-2.0,-3.0,2.0,126,107,98,126,115,468,455,464
2025-02-20 15:43:44.140,-385.0,-130.0,949.0,0.0,-3.0,2.0,126,106,96,125,116,468,457,463
2025-02-20 15:43:44.153,-387.0,-122.0,950.0,1.0,-3.0,1.0,126,106,97,126,116,469,460,464
2025-02-20 15:43:44.176,-391.0,-116.0,957.0,2.0,-3.0,1.0,126,106,96,126,116,470,462,464
2025-02-20 15:43:44.194,-386.0,-116.0,966.0,2.0,-3.0,0.0,126,104,97,127,116,470,464,464
2025-02-20 15:43:44.214,-380.0,-116.0,972.0,1.0,-2.0,0.0,126,107,98,126,115,470,465,463
2025-02-20 15:43:44.234,-375.0,-119.0,974.0,1.0,-1.0,-1.0,126,107,97,126,116,472,468,463
2025-02-20 15:43:44.251,-374.0,-122.0,968.0,0.0,0.0,-2.0,126,106,96,126,116,472,470,463
2025-02-20 15:43:44.268,-382.0,-124.0,957.0,0.0,1.0,-3.0,126,108,97,126,115,472,471,463
2025-02-20 15:43:44.291,-379.0,-136.0,946.0,-1.0,1.0,-3.0,126,106,97,126,117,473,470,464
2025-02-20 15:43:44.306,-382.0,-137.0,934.0,-1.0,1.0,-3.0,126,106,97,126,116,473,468,463
2025-02-20 15:43:44.328,-377.0,-146.0,926.0,0.0,0.0,-2.0,126,106,98,126,116,471,467,464
2025-02-20 15:43:44.348,-375.0,-146.0,932.0,0.0,0.0,-2.0,126,106,96,126,115,470,466,464
2025-02-20 15:43:44.365,-377.0,-152.0,931.0,0.0,0.0,-2.0,125,106,96,126,115,470,464,465
2025-02-20 15:43:44.385,-379.0,-147.0,931.0,0.0,0.0,-1.0,125,105,97,126,116,469,464,464
2025-02-20 15:43:44.405,-383.0,-144.0,934.0,-1.0,0.0,-1.0,126,106,96,126,116,469,462,465
2025-02-20 15:43:44.420,-380.0,-141.0,928.0,-3.0,-1.0,-1.0,126,107,97,126,116,467,462,464
2025-02-20 15:43:44.443,-383.0,-147.0,936.0,-3.0,-1.0,-1.0,126,106,96,126,115,468,460,464
2025-02-20 15:43:44.460,-366.0,-143.0,908.0,-3.0,-1.0,-1.0,126,106,96,126,116,469,461,465
2025-02-20 15:43:44.480,-387.0,-149.0,929.0,-3.0,-1.0,-1.0,126,106,96,126,116,468,467,465
2025-02-20 15:43:44.500,-375.0,-145.0,950.0,-2.0,-2.0,0.0,126,106,97,126,116,469,466,464
2025-02-20 15:43:44.517,-365.0,-141.0,936.0,-3.0,-2.0,-1.0,126,107,96,127,115,469,462,466
2025-02-20 15:43:44.536,-371.0,-145.0,940.0,0.0,-2.0,-1.0,126,106,96,126,116,467,462,465
2025-02-20 15:43:44.557,-390.0,-149.0,943.0,0.0,-2.0,0.0,126,107,96,126,116,468,468,464
2025-02-20 15:43:44.572,-384.0,-142.0,956.0,1.0,-4.0,0.0,126,106,96,126,116,469,469,464
2025-02-20 15:43:44.594,-385.0,-127.0,960.0,0.0,-2.0,1.0,126,106,96,127,116,469,465,464
2025-02-20 15:43:44.615,-391.0,-125.0,977.0,2.0,-4.0,-1.0,126,105,96,126,115,469,462,464
2025-02-20 15:43:44.631,-385.0,-125.0,962.0,0.0,-2.0,-1.0,126,107,97,126,112,470,463,464
2025-02-20 15:43:44.651,-387.0,-135.0,973.0,0.0,-1.0,-1.0,126,107,97,126,115,472,465,464
2025-02-20 15:43:44.668,-379.0,-139.0,979.0,0.0,-1.0,-2.0,126,106,97,125,115,473,465,464
2025-02-20 15:43:44.689,-380.0,-144.0,947.0,-2.0,0.0,-2.0,126,107,97,126,115,474,463,464
2025-02-20 15:43:44.708,-359.0,-148.0,945.0,-3.0,1.0,-2.0,125,106,97,126,115,473,463,464
2025-02-20 15:43:44.726,-374.0,-146.0,949.0,-3.0,0.0,-2.0,125,105,97,126,115,472,466,464
2025-02-20 15:43:44.746,-378.0,-145.0,952.0,-2.0,0.0,-1.0,126,106,97,124,115,471,465,464
2025-02-20 15:43:44.765,-361.0,-159.0,938.0,-2.0,0.0,-1.0,126,106,97,125,115,470,463,464
2025-02-20 15:43:44.783,-372.0,-152.0,933.0,-2.0,-1.0,0.0,126,106,96,126,116,468,462,464
2025-02-20 15:43:44.804,-369.0,-148.0,939.0,-2.0,-1.0,0.0,126,106,97,125,115,465,460,465
2025-02-20 15:43:44.823,-372.0,-140.0,939.0,-2.0,-1.0,0.0,126,106,97,126,115,464,458,466
2025-02-20 15:43:44.838,-371.0,-146.0,937.0,-2.0,-1.0,0.0,126,106,96,125,115,465,456,465
2025-02-20 15:43:44.860,-366.0,-136.0,943.0,-2.0,-1.0,0.0,126,106,97,126,115,466,456,466
2025-02-20 15:43:44.880,-367.0,-136.0,936.0,-3.0,-1.0,0.0,126,105,97,126,115,467,454,466
2025-02-20 15:43:44.897,-378.0,-136.0,942.0,-3.0,-1.0,0.0,125,106,93,126,116,467,456,466
2025-02-20 15:43:44.917,-375.0,-131.0,939.0,1.0,-1.0,1.0,126,104,97,126,115,466,456,466
2025-02-20 15:43:44.934,-365.0,-119.0,931.0,-2.0,-2.0,0.0,126,106,98,125,116,467,458,466
2025-02-20 15:43:44.954,-369.0,-120.0,944.0,-1.0,-1.0,0.0,126,106,97,126,116,470,460,465
2025-02-20 15:43:44.975,-375.0,-131.0,958.0,0.0,-1.0,0.0,125,106,97,126,116,470,462,466
2025-02-20 15:43:44.990,-378.0,-118.0,950.0,-1.0,-1.0,-1.0,126,107,96,125,116,469,466,466
2025-02-20 15:43:45.012,-380.0,-124.0,958.0,-2.0,-1.0,-2.0,126,106,96,125,116,469,469,465
2025-02-20 15:43:45.031,-382.0,-130.0,950.0,0.0,-1.0,-2.0,126,105,97,125,115,469,469,465
2025-02-20 15:43:45.049,-372.0,-145.0,954.0,0.0,0.0,-2.0,126,106,96,125,116,470,467,465
2025-02-20 15:43:45.069,-374.0,-137.0,958.0,0.0,0.0,-2.0,126,107,96,126,115,470,467,465
2025-02-20 15:43:45.090,-373.0,-143.0,955.0,0.0,0.0,-2.0,126,105,98,126,115,469,468,464
2025-02-20 15:43:45.106,-370.0,-143.0,953.0,0.0,0.0,-2.0,126,106,97,126,115,468,466,464
2025-02-20 15:43:45.123,-376.0,-151.0,948.0,0.0,1.0,-1.0,125,107,97,123,116,467,466,464
2025-02-20 15:43:45.144,-376.0,-146.0,942.0,0.0,0.0,-1.0,126,106,96,126,115,469,466,465
2025-02-20 15:43:45.159,-370.0,-142.0,944.0,0.0,-1.0,-1.0,125,106,97,126,116,470,466,463
2025-02-20 15:43:45.184,-379.0,-150.0,946.0,1.0,0.0,-1.0,126,106,98,126,116,468,471,465
2025-02-20 15:43:45.201,-381.0,-145.0,941.0,1.0,0.0,-1.0,126,105,96,125,116,468,471,465
2025-02-20 15:43:45.221,-375.0,-140.0,948.0,0.0,-1.0,-1.0,126,107,98,126,115,467,469,464
2025-02-20 15:43:45.241,-385.0,-142.0,955.0,-1.0,-1.0,-1.0,126,106,97,125,115,467,465,464
2025-02-20 15:43:45.256,-375.0,-148.0,942.0,-1.0,0.0,-1.0,126,106,99,126,115,466,461,464
2025-02-20 15:43:45.279,-383.0,-147.0,930.0,0.0,-1.0,0.0,126,106,97,126,115,466,460,465
2025-02-20 15:43:45.299,-383.0,-140.0,947.0,-1.0,-1.0,-1.0,125,105,97,126,115,465,459,465
2025-02-20 15:43:45.316,-386.0,-142.0,936.0,-1.0,-1.0,0.0,126,106,97,126,116,467,459,466
2025-02-20 15:43:45.335,-375.0,-142.0,950.0,-1.0,-1.0,-1.0,125,106,97,126,116,467,459,465
2025-02-20 15:43:45.352,-377.0,-143.0,949.0,0.0,0.0,0.0,126,106,97,126,116,468,461,464
2025-02-20 15:43:45.372,-380.0,-138.0,946.0,-1.0,-1.0,-1.0,126,106,97,126,115,467,458,464
2025-02-20 15:43:45.393,-376.0,-141.0,948.0,-2.0,-1.0,-1.0,126,107,97,125,115,469,458,464
2025-02-20 15:43:45.409,-378.0,-145.0,943.0,-1.0,-1.0,-1.0,127,106,96,126,115,468,461,464
2025-02-20 15:43:45.430,-380.0,-150.0,951.0,0.0,0.0,0.0,125,106,96,126,115,468,464,463
2025-02-20 15:43:45.450,-383.0,-141.0,952.0,0.0,-1.0,0.0,126,106,97,126,116,467,470,463
2025-02-20 15:43:45.468,-375.0,-136.0,945.0,0.0,-1.0,0.0,125,106,97,126,116,467,494,463
2025-02-20 15:43:45.486,-375.0,-141.0,946.0,0.0,-1.0,0.0,126,106,97,125,115,467,533,462
2025-02-20 15:43:45.504,-379.0,-133.0,948.0,0.0,-1.0,1.0,125,105,96,126,116,468,580,463
2025-02-20 15:43:45.524,-378.0,-129.0,944.0,-1.0,-1.0,0.0,127,106,97,126,116,469,637,463
2025-02-20 15:43:45.545,-376.0,-134.0,939.0,-1.0,-1.0,0.0,126,106,97,126,116,471,699,463
2025-02-20 15:43:45.564,-377.0,-142.0,944.0,-1.0,-2.0,-1.0,126,107,97,125,116,470,765,463
2025-02-20 15:43:45.582,-371.0,-141.0,953.0,1.0,-2.0,0.0,125,106,97,126,115,469,836,463
2025-02-20 15:43:45.601,-370.0,-130.0,950.0,1.0,-2.0,0.0,126,106,96,126,116,467,910,464
2025-02-20 15:43:45.619,-378.0,-141.0,965.0,0.0,-2.0,1.0,125,106,98,125,115,465,986,464
2025-02-20 15:43:45.638,-369.0,-131.0,960.0,0.0,-1.0,1.0,126,106,96,125,116,465,1017,464
2025-02-20 15:43:45.655,-383.0,-136.0,955.0,-1.0,0.0,1.0,126,106,97,126,115,465,1017,462
2025-02-20 15:43:45.674,-380.0,-138.0,961.0,-1.0,-1.0,1.0,126,106,97,126,116,465,1017,466
2025-02-20 15:43:45.694,-374.0,-136.0,956.0,-1.0,0.0,1.0,126,106,96,126,117,466,1017,468
2025-02-20 15:43:45.716,-373.0,-137.0,967.0,-1.0,2.0,1.0,126,106,97,126,116,465,1017,466
2025-02-20 15:43:45.734,-380.0,-156.0,957.0,-2.0,2.0,0.0,126,106,97,125,115,466,1017,466
2025-02-20 15:43:45.753,-369.0,-137.0,960.0,-2.0,2.0,1.0,126,106,97,125,115,466,1017,465
2025-02-20 15:43:45.773,-365.0,-138.0,933.0,-3.0,4.0,1.0,125,107,97,125,115,465,1017,464
2025-02-20 15:43:45.789,-368.0,-139.0,919.0,-5.0,4.0,0.0,126,106,97,126,115,465,1018,464
2025-02-20 15:43:45.811,-348.0,-130.0,910.0,-5.0,6.0,1.0,125,106,97,126,115,467,1018,463
2025-02-20 15:43:45.828,-347.0,-113.0,875.0,-6.0,5.0,0.0,125,106,97,125,115,466,1018,462
2025-02-20 15:43:45.848,-351.0,-102.0,838.0,-9.0,2.0,-1.0,126,106,97,126,115,467,1017,461
2025-02-20 15:43:45.868,-365.0,-38.0,784.0,-16.0,-1.0,-3.0,125,105,97,126,116,466,1017,463
2025-02-20 15:43:45.884,-369.0,15.0,711.0,-29.0,-3.0,-8.0,125,106,97,126,115,468,1017,463
2025-02-20 15:43:45.904,-405.0,-11.0,578.0,-32.0,-11.0,-19.0,125,106,96,126,115,467,1017,462
2025-02-20 15:43:45.925,-463.0,-121.0,479.0,-30.0,-36.0,-30.0,126,106,96,125,113,477,1017,463
2025-02-20 15:43:45.942,-481.0,-145.0,547.0,-16.0,-66.0,-30.0,125,104,94,124,107,477,1017,463
2025-02-20 15:43:45.962,-431.0,-216.0,902.0,-12.0,-111.0,-34.0,125,103,91,124,101,466,1018,460
2025-02-20 15:43:45.982,-427.0,-181.0,1144.0,-85.0,-128.0,-34.0,125,98,86,121,90,462,1018,459
2025-02-20 15:43:45.999,-237.0,-234.0,1932.0,-167.0,-67.0,-7.0,125,91,79,115,79,462,1017,464
2025-02-20 15:43:46.020,15.0,-730.0,2088.0,-222.0,15.0,20.0,125,84,73,105,70,461,1017,465
2025-02-20 15:43:46.039,359.0,-1078.0,2194.0,-229.0,110.0,51.0,124,77,69,94,63,459,1017,468
2025-02-20 15:43:46.057,221.0,-1129.0,2054.0,-221.0,203.0,69.0,123,69,64,85,55,458,1017,464
2025-02-20 15:43:46.075,-31.0,-957.0,1710.0,-213.0,258.0,86.0,122,63,58,79,54,465,1017,454
2025-02-20 15:43:46.094,-1.0,-720.0,1307.0,-206.0,280.0,94.0,117,58,52,70,50,488,1017,453
2025-02-20 15:43:46.114,-227.0,-572.0,872.0,-209.0,259.0,88.0,111,56,49,68,50,443,1017,457
2025-02-20 15:43:46.134,-474.0,-375.0,124.0,-240.0,206.0,97.0,105,54,49,65,49,418,1017,458
2025-02-20 15:43:46.151,-471.0,-404.0,215.0,-235.0,147.0,115.0,101,54,48,61,48,419,1017,463
2025-02-20 15:43:46.171,-421.0,-335.0,69.0,-194.0,143.0,125.0,96,53,47,61,48,443,1017,466
2025-02-20 15:43:46.191,-573.0,-94.0,-32.0,-147.0,137.0,117.0,95,53,46,61,47,472,1018,474
2025-02-20 15:43:46.208,-531.0,43.0,38.0,-113.0,129.0,104.0,94,53,47,61,48,511,1017,471
2025-02-20 15:43:46.228,-689.0,119.0,7.0,-99.0,116.0,80.0,92,53,46,62,48,518,1017,466
2025-02-20 15:43:46.246,-637.0,174.0,-78.0,-82.0,111.0,66.0,90,54,46,62,48,499,1017,461
2025-02-20 15:43:46.266,-702.0,366.0,-157.0,-52.0,98.0,47.0,88,52,46,62,47,475,1017,456
2025-02-20 15:43:46.286,-654.0,598.0,-209.0,-32.0,94.0,10.0,87,53,46,62,48,462,1017,456
2025-02-20 15:43:46.303,-818.0,603.0,-417.0,-11.0,79.0,-43.0,87,53,47,63,48,463,1016,445
2025-02-20 15:43:46.323,-868.0,309.0,-435.0,5.0,35.0,-108.0,86,53,47,64,48,452,1017,440
2025-02-20 15:43:46.343,-845.0,-175.0,-348.0,17.0,-9.0,-135.0,86,53,46,64,49,447,1018,448
2025-02-20 15:43:46.359,-704.0,-664.0,-43.0,20.0,-23.0,-133.0,85,53,47,63,49,436,1017,462
2025-02-20 15:43:46.380,-820.0,-790.0,22.0,18.0,-46.0,-116.0,85,53,47,63,49,432,1017,467
2025-02-20 15:43:46.400,-585.0,-972.0,458.0,24.0,-38.0,-104.0,85,53,47,64,49,441,1017,471
2025-02-20 15:43:46.418,-662.0,-1346.0,467.0,38.0,-4.0,-77.0,85,54,47,64,49,461,1017,471
2025-02-20 15:43:46.437,-782.0,-1407.0,316.0,36.0,-3.0,-41.0,86,53,47,64,50,459,1018,468
2025-02-20 15:43:46.458,-755.0,-1227.0,250.0,27.0,-3.0,-18.0,86,54,48,65,50,444,1017,463
2025-02-20 15:43:46.474,-654.0,-1079.0,240.0,14.0,9.0,-9.0,86,53,47,65,50,443,1017,461
2025-02-20 15:43:46.493,-739.0,-968.0,74.0,2.0,12.0,-2.0,86,54,48,65,50,430,1017,457
2025-02-20 15:43:46.512,-790.0,-850.0,10.0,-4.0,2.0,5.0,86,54,48,65,50,418,1017,454
2025-02-20 15:43:46.532,-794.0,-726.0,14.0,-3.0,-7.0,3.0,87,54,48,65,50,433,1018,457
2025-02-20 15:43:46.552,-703.0,-660.0,98.0,-7.0,-7.0,-4.0,87,55,47,64,50,457,1017,458
2025-02-20 15:43:46.569,-723.0,-650.0,88.0,-16.0,-11.0,-11.0,87,55,49,65,51,483,1017,460
2025-02-20 15:43:46.589,-689.0,-737.0,94.0,-16.0,-13.0,-13.0,87,55,48,66,51,494,1017,465
2025-02-20 15:43:46.609,-642.0,-771.0,117.0,-7.0,-13.0,-5.0,87,55,49,66,51,493,1017,470
2025-02-20 15:43:46.626,-602.0,-807.0,154.0,8.0,-6.0,7.0,87,54,48,66,51,496,1017,466
2025-02-20 15:43:46.644,-661.0,-704.0,122.0,17.0,-1.0,9.0,87,54,49,66,51,480,1017,460
2025-02-20 15:43:46.663,-663.0,-684.0,138.0,5.0,-3.0,3.0,84,55,49,66,52,475,1017,461
2025-02-20 15:43:46.681,-677.0,-744.0,131.0,1.0,-6.0,2.0,87,54,48,67,51,474,1017,467
2025-02-20 15:43:46.704,-670.0,-732.0,141.0,1.0,-3.0,5.0,88,55,49,67,52,455,1017,473
2025-02-20 15:43:46.721,-726.0,-662.0,105.0,0.0,-4.0,3.0,87,55,49,66,51,443,1017,476
2025-02-20 15:43:46.741,-724.0,-664.0,135.0,-6.0,-5.0,0.0,88,54,49,67,52,450,1016,474
2025-02-20 15:43:46.761,-730.0,-692.0,141.0,-4.0,-4.0,-2.0,87,55,49,66,52,452,1017,469
2025-02-20 15:43:46.778,-729.0,-683.0,137.0,-3.0,-3.0,-2.0,88,56,48,67,52,457,1017,463
2025-02-20 15:43:46.796,-734.0,-677.0,130.0,-4.0,-4.0,-4.0,88,55,48,67,53,462,1018,459
2025-02-20 15:43:46.818,-706.0,-724.0,147.0,-5.0,-4.0,-5.0,87,56,48,66,52,468,1019,454
2025-02-20 15:43:46.835,-701.0,-750.0,149.0,-1.0,-2.0,-2.0,88,56,49,67,52,474,1017,451
2025-02-20 15:43:46.855,-700.0,-714.0,143.0,2.0,0.0,1.0,88,55,49,66,53,474,1016,450
2025-02-20 15:43:46.873,-715.0,-686.0,122.0,2.0,0.0,-1.0,88,56,49,67,53,468,1020,449
2025-02-20 15:43:46.891,-712.0,-692.0,118.0,1.0,0.0,-3.0,88,55,49,67,53,464,1017,448
2025-02-20 15:43:46.912,-702.0,-719.0,122.0,1.0,-2.0,-2.0,88,55,49,68,52,462,1017,448
2025-02-20 15:43:46.929,-702.0,-705.0,129.0,2.0,-2.0,-2.0,89,54,49,68,54,461,1017,448
2025-02-20 15:43:46.949,-703.0,-697.0,139.0,1.0,-3.0,-5.0,88,55,49,68,53,460,1015,448
2025-02-20 15:43:46.970,-696.0,-737.0,135.0,2.0,-3.0,-5.0,89,56,49,68,53,460,1018,449
2025-02-20 15:43:46.987,-691.0,-721.0,144.0,6.0,-2.0,-1.0,89,56,49,68,53,459,1014,449
2025-02-20 15:43:47.007,-693.0,-686.0,162.0,3.0,-2.0,-3.0,88,56,50,68,53,460,1017,451
2025-02-20 15:43:47.026,-725.0,-700.0,140.0,-1.0,-7.0,-6.0,89,55,49,68,53,456,1017,453
2025-02-20 15:43:47.044,-693.0,-723.0,166.0,0.0,-7.0,-4.0,89,56,49,68,53,456,1017,456
2025-02-20 15:43:47.064,-692.0,-713.0,175.0,0.0,-4.0,-2.0,89,56,50,69,53,458,1017,455
2025-02-20 15:43:47.084,-701.0,-694.0,163.0,-1.0,-2.0,-3.0,88,56,50,68,54,461,1017,452
2025-02-20 15:43:47.101,-722.0,-690.0,143.0,-4.0,-3.0,-3.0,89,56,49,69,53,467,1017,452
2025-02-20 15:43:47.121,-714.0,-705.0,146.0,-2.0,-5.0,-3.0,89,56,50,69,54,466,1017,452
2025-02-20 15:43:47.138,-697.0,-702.0,160.0,2.0,-2.0,-4.0,89,56,45,69,54,466,1017,452
2025-02-20 15:43:47.159,-688.0,-723.0,151.0,2.0,-1.0,-5.0,89,55,50,68,54,464,1017,452
2025-02-20 15:43:47.179,-682.0,-738.0,154.0,3.0,-1.0,-3.0,89,56,50,69,54,462,1017,454
2025-02-20 15:43:47.195,-693.0,-738.0,163.0,0.0,-2.0,-3.0,89,56,50,69,54,459,1017,455
2025-02-20 15:43:47.216,-679.0,-753.0,170.0,0.0,-1.0,-2.0,89,56,49,69,54,456,1017,456
2025-02-20 15:43:47.235,-688.0,-759.0,150.0,0.0,-2.0,0.0,89,56,50,69,54,454,1017,457
2025-02-20 15:43:47.253,-688.0,-731.0,164.0,1.0,0.0,1.0,89,57,49,69,55,454,1017,456
2025-02-20 15:43:47.273,-713.0,-715.0,153.0,0.0,-1.0,1.0,89,57,50,70,55,455,1017,456
2025-02-20 15:43:47.293,-716.0,-711.0,153.0,0.0,-1.0,0.0,90,56,50,69,54,456,1018,454
2025-02-20 15:43:47.310,-701.0,-717.0,169.0,-1.0,-1.0,-1.0,89,57,50,69,54,459,1017,455
2025-02-20 15:43:47.329,-708.0,-730.0,163.0,-1.0,-1.0,0.0,90,57,51,69,54,461,1018,456
2025-02-20 15:43:47.347,-705.0,-704.0,166.0,0.0,-1.0,1.0,89,56,50,69,56,462,1017,455
2025-02-20 15:43:47.367,-705.0,-698.0,165.0,0.0,-1.0,-1.0,90,56,50,69,54,464,1017,455
2025-02-20 15:43:47.388,-692.0,-729.0,165.0,-1.0,-1.0,-2.0,89,56,50,69,54,465,1017,454
2025-02-20 15:43:47.405,-688.0,-735.0,163.0,0.0,-1.0,0.0,89,56,50,70,54,468,1017,455
2025-02-20 15:43:47.425,-688.0,-719.0,172.0,0.0,0.0,1.0,86,56,50,70,54,468,1017,455
2025-02-20 15:43:47.444,-703.0,-712.0,167.0,-1.0,0.0,0.0,89,56,51,70,55,468,1017,456
2025-02-20 15:43:47.462,-703.0,-715.0,161.0,-2.0,-1.0,0.0,89,56,50,70,54,469,1017,455
2025-02-20 15:43:47.482,-686.0,-699.0,173.0,-1.0,0.0,-1.0,89,57,50,69,54,469,1017,455
2025-02-20 15:43:47.502,-708.0,-709.0,157.0,-3.0,0.0,-2.0,90,56,50,70,54,468,1017,454
2025-02-20 15:43:47.519,-699.0,-734.0,152.0,-3.0,-2.0,-2.0,89,55,50,70,55,465,1016,456
2025-02-20 15:43:47.540,-682.0,-729.0,163.0,-1.0,-1.0,-1.0,89,56,51,69,54,464,1017,456
2025-02-20 15:43:47.556,-689.0,-722.0,158.0,0.0,-1.0,1.0,90,57,51,69,54,465,1017,456
2025-02-20 15:43:47.576,-692.0,-697.0,162.0,0.0,-1.0,0.0,89,56,51,70,54,466,1017,457
2025-02-20 15:43:47.594,-698.0,-694.0,163.0,0.0,0.0,-2.0,90,57,50,70,54,467,1017,459
2025-02-20 15:43:47.613,-702.0,-710.0,157.0,-3.0,0.0,-3.0,89,56,50,70,55,466,1017,458
2025-02-20 15:43:47.633,-695.0,-745.0,151.0,-2.0,-1.0,-3.0,89,56,50,70,56,467,1017,458
2025-02-20 15:43:47.653,-692.0,-736.0,158.0,1.0,-2.0,0.0,89,57,50,70,55,467,1018,458
2025-02-20 15:43:47.671,-696.0,-705.0,164.0,1.0,-1.0,-2.0,90,56,51,70,55,467,1019,457
2025-02-20 15:43:47.690,-698.0,-719.0,154.0,-1.0,-1.0,-2.0,90,57,51,70,55,468,1017,457
2025-02-20 15:43:47.709,-691.0,-734.0,153.0,0.0,-2.0,-1.0,89,57,50,70,55,467,1017,457
2025-02-20 15:43:47.728,-688.0,-715.0,166.0,1.0,-2.0,0.0,90,57,51,70,55,467,1018,457
2025-02-20 15:43:47.747,-689.0,-710.0,168.0,0.0,0.0,-1.0,89,57,50,70,55,466,1017,456
2025-02-20 15:43:47.768,-705.0,-723.0,154.0,-1.0,0.0,-1.0,90,57,50,70,55,467,1016,457
2025-02-20 15:43:47.786,-709.0,-725.0,134.0,1.0,-3.0,0.0,89,56,50,70,55,466,1017,456
2025-02-20 15:43:47.806,-690.0,-704.0,166.0,0.0,-4.0,-1.0,90,56,51,70,55,466,1017,456
2025-02-20 15:43:47.819,-693.0,-733.0,182.0,1.0,-1.0,-1.0,90,57,51,70,55,466,1017,457
2025-02-20 15:43:47.842,-702.0,-723.0,170.0,0.0,-1.0,0.0,90,57,51,70,55,464,1015,457
2025-02-20 15:43:47.862,-695.0,-716.0,160.0,-1.0,-1.0,0.0,90,57,50,70,55,462,1018,458
2025-02-20 15:43:47.880,-705.0,-709.0,143.0,1.0,-4.0,0.0,90,57,49,70,55,460,1018,460
2025-02-20 15:43:47.900,-678.0,-700.0,176.0,1.0,-2.0,-2.0,90,57,51,70,56,459,1018,462
2025-02-20 15:43:47.920,-695.0,-716.0,165.0,0.0,-2.0,-2.0,89,56,49,70,55,459,1018,463
2025-02-20 15:43:47.937,-695.0,-727.0,165.0,0.0,-3.0,-2.0,90,57,51,70,55,459,1017,460
2025-02-20 15:43:47.957,-697.0,-718.0,161.0,1.0,-3.0,-1.0,90,57,50,71,55,461,1017,463
2025-02-20 15:43:47.970,-679.0,-708.0,181.0,1.0,-3.0,-1.0,90,56,51,70,56,462,1018,463
2025-02-20 15:43:47.994,-696.0,-716.0,174.0,1.0,-2.0,-2.0,90,57,50,70,55,465,1017,462
2025-02-20 15:43:48.014,-693.0,-720.0,183.0,0.0,-3.0,-3.0,89,57,51,70,55,466,1017,462
2025-02-20 15:43:48.031,-693.0,-713.0,179.0,0.0,-1.0,-3.0,90,57,50,70,55,468,1018,462
2025-02-20 15:43:48.051,-698.0,-721.0,162.0,-1.0,-2.0,-3.0,90,57,51,70,56,468,1018,460
2025-02-20 15:43:48.068,-680.0,-744.0,188.0,-1.0,-3.0,-2.0,90,57,51,70,55,468,1017,461
2025-02-20 15:43:48.088,-688.0,-733.0,178.0,1.0,0.0,0.0,89,57,50,70,56,469,1016,460
2025-02-20 15:43:48.104,-692.0,-709.0,163.0,0.0,-1.0,0.0,89,57,51,70,56,469,1017,459
2025-02-20 15:43:48.129,-693.0,-706.0,161.0,-1.0,-3.0,-1.0,90,57,50,71,56,469,1017,458
2025-02-20 15:43:48.146,-685.0,-726.0,188.0,0.0,-2.0,-1.0,90,57,51,70,55,469,1017,457
2025-02-20 15:43:48.166,-688.0,-726.0,185.0,0.0,0.0,0.0,89,57,51,71,56,469,1018,457
2025-02-20 15:43:48.186,-694.0,-726.0,173.0,0.0,0.0,0.0,89,57,50,70,55,468,1018,457
2025-02-20 15:43:48.203,-695.0,-726.0,170.0,0.0,-1.0,0.0,90,57,50,71,56,468,1017,456
2025-02-20 15:43:48.223,-715.0,-739.0,153.0,6.0,-4.0,0.0,90,57,50,71,55,467,1017,456
2025-02-20 15:43:48.243,-690.0,-731.0,163.0,10.0,-4.0,3.0,90,56,51,71,56,466,1017,457
2025-02-20 15:43:48.261,-721.0,-732.0,125.0,15.0,-7.0,4.0,91,58,51,72,56,467,1017,457
2025-02-20 15:43:48.280,-703.0,-735.0,182.0,23.0,-11.0,5.0,91,57,52,73,58,466,1018,458
2025-02-20 15:43:48.297,-683.0,-733.0,204.0,28.0,-14.0,9.0,92,58,51,73,56,467,1017,460
2025-02-20 15:43:48.318,-684.0,-691.0,219.0,24.0,-10.0,9.0,93,58,52,74,57,467,1017,460
2025-02-20 15:43:48.338,-713.0,-667.0,199.0,23.0,-11.0,5.0,93,59,52,75,57,467,1017,462
2025-02-20 15:43:48.355,-736.0,-656.0,174.0,22.0,-14.0,0.0,94,60,52,76,58,467,1018,461
2025-02-20 15:43:48.375,-733.0,-661.0,193.0,21.0,-17.0,-4.0,95,59,53,77,58,466,1017,462
2025-02-20 15:43:48.395,-726.0,-665.0,198.0,27.0,-21.0,-7.0,98,60,54,79,62,468,1017,461
2025-02-20 15:43:48.412,-701.0,-704.0,182.0,40.0,-27.0,-5.0,99,60,55,80,60,468,1017,462
2025-02-20 15:43:48.432,-691.0,-667.0,204.0,47.0,-34.0,0.0,104,62,56,81,62,467,1017,462
2025-02-20 15:43:48.453,-690.0,-612.0,210.0,48.0,-41.0,-2.0,106,62,57,83,63,466,1017,462
2025-02-20 15:43:48.470,-699.0,-640.0,189.0,54.0,-51.0,-8.0,108,64,59,85,66,466,1017,460
2025-02-20 15:43:48.490,-663.0,-692.0,288.0,70.0,-60.0,-9.0,112,67,60,88,70,464,1017,461
2025-02-20 15:43:48.509,-635.0,-692.0,356.0,76.0,-59.0,-1.0,114,67,63,91,73,464,1017,461
2025-02-20 15:43:48.526,-630.0,-644.0,322.0,72.0,-63.0,2.0,115,70,65,95,77,465,1017,464
2025-02-20 15:43:48.547,-615.0,-679.0,392.0,75.0,-63.0,2.0,116,71,67,97,79,462,1017,463
2025-02-20 15:43:48.563,-620.0,-650.0,384.0,79.0,-71.0,3.0,118,74,69,102,83,458,1017,464
2025-02-20 15:43:48.583,-579.0,-676.0,488.0,79.0,-72.0,6.0,118,77,72,105,86,456,1016,463
2025-02-20 15:43:48.604,-592.0,-619.0,473.0,79.0,-68.0,7.0,118,79,75,108,88,454,1017,463
2025-02-20 15:43:48.621,-595.0,-561.0,477.0,71.0,-72.0,7.0,119,82,78,110,90,455,1016,462
2025-02-20 15:43:48.641,-618.0,-601.0,674.0,76.0,-78.0,5.0,120,85,81,112,93,458,1017,463
2025-02-20 15:43:48.661,-556.0,-587.0,638.0,80.0,-77.0,8.0,119,89,86,114,97,465,1017,466
2025-02-20 15:43:48.678,-536.0,-526.0,639.0,83.0,-68.0,9.0,120,90,85,116,100,468,1017,466
2025-02-20 15:43:48.698,-554.0,-501.0,674.0,84.0,-60.0,9.0,121,95,88,117,102,467,1017,465
2025-02-20 15:43:48.717,-538.0,-459.0,773.0,81.0,-55.0,6.0,121,97,89,118,105,464,1018,465
2025-02-20 15:43:48.736,-519.0,-466.0,748.0,71.0,-50.0,5.0,122,100,90,118,106,463,1017,464
2025-02-20 15:43:48.755,-527.0,-498.0,782.0,71.0,-46.0,7.0,122,102,91,119,108,464,1017,463
2025-02-20 15:43:48.775,-498.0,-438.0,858.0,62.0,-32.0,10.0,122,102,93,120,108,464,1017,462
2025-02-20 15:43:48.793,-489.0,-434.0,868.0,52.0,-14.0,9.0,122,105,93,121,109,465,1017,462
2025-02-20 15:43:48.813,-494.0,-451.0,794.0,54.0,-9.0,9.0,122,105,94,121,110,467,1017,461
2025-02-20 15:43:48.830,-531.0,-408.0,750.0,55.0,-23.0,11.0,122,106,94,121,111,469,1017,460
2025-02-20 15:43:48.850,-554.0,-359.0,792.0,51.0,-36.0,10.0,122,107,95,122,112,469,1017,460
2025-02-20 15:43:48.869,-499.0,-345.0,834.0,47.0,-37.0,6.0,123,107,95,123,112,471,1018,461
2025-02-20 15:43:48.886,-490.0,-338.0,830.0,44.0,-32.0,2.0,122,107,95,123,113,470,1016,461
2025-02-20 15:43:48.902,-490.0,-337.0,840.0,47.0,-32.0,2.0,122,108,96,123,113,464,1018,460
2025-02-20 15:43:48.927,-482.0,-308.0,835.0,44.0,-33.0,3.0,122,109,96,124,114,454,1017,459
2025-02-20 15:43:48.944,-489.0,-306.0,861.0,45.0,-37.0,3.0,123,109,96,125,114,454,1017,460
2025-02-20 15:43:48.965,-452.0,-318.0,891.0,48.0,-30.0,4.0,123,109,96,125,115,458,1018,459
2025-02-20 15:43:48.984,-453.0,-296.0,877.0,50.0,-22.0,6.0,123,110,97,125,115,465,1017,460
2025-02-20 15:43:49.001,-451.0,-266.0,897.0,50.0,-21.0,7.0,124,110,97,126,116,466,1016,460
2025-02-20 15:43:49.021,-441.0,-259.0,900.0,45.0,-23.0,7.0,125,110,98,125,115,469,1018,461
2025-02-20 15:43:49.039,-451.0,-249.0,893.0,46.0,-27.0,6.0,125,110,98,125,116,471,1017,464
2025-02-20 15:43:49.059,-432.0,-219.0,914.0,49.0,-31.0,5.0,125,111,98,126,116,469,1018,466
2025-02-20 15:43:49.079,-417.0,-193.0,951.0,43.0,-27.0,4.0,126,111,99,126,116,469,1018,465
2025-02-20 15:43:49.096,-387.0,-212.0,967.0,30.0,-22.0,5.0,127,111,99,127,117,467,1017,465
2025-02-20 15:43:49.117,-395.0,-222.0,960.0,33.0,-17.0,4.0,126,110,100,127,117,462,1017,464
2025-02-20 15:43:49.136,-396.0,-189.0,955.0,34.0,-13.0,5.0,127,111,99,127,117,460,1017,464
2025-02-20 15:43:49.154,-398.0,-153.0,946.0,25.0,-13.0,6.0,126,111,100,127,118,459,1017,465
2025-02-20 15:43:49.174,-389.0,-150.0,990.0,15.0,-9.0,5.0,127,111,100,127,118,460,1017,467
2025-02-20 15:43:49.194,-386.0,-137.0,957.0,9.0,-8.0,0.0,127,111,100,128,117,459,1017,467
2025-02-20 15:43:49.211,-394.0,-151.0,956.0,6.0,-12.0,-1.0,127,111,101,128,118,459,1017,467
2025-02-20 15:43:49.230,-396.0,-154.0,942.0,6.0,-13.0,-1.0,127,111,101,128,118,462,1017,467
2025-02-20 15:43:49.248,-389.0,-159.0,942.0,5.0,-12.0,-1.0,128,112,101,129,118,465,1017,467
2025-02-20 15:43:49.268,-378.0,-177.0,979.0,9.0,-6.0,-2.0,127,112,101,128,118,466,1017,465
2025-02-20 15:43:49.288,-381.0,-166.0,975.0,10.0,1.0,-2.0,128,111,102,129,118,468,1017,465
2025-02-20 15:43:49.306,-382.0,-176.0,971.0,6.0,0.0,-2.0,127,112,101,128,118,468,1017,466
2025-02-20 15:43:49.325,-395.0,-144.0,943.0,0.0,-5.0,-3.0,128,112,101,128,118,470,1017,466
2025-02-20 15:43:49.345,-388.0,-159.0,938.0,-3.0,-7.0,-3.0,127,111,101,128,120,469,1017,465
2025-02-20 15:43:49.363,-379.0,-178.0,947.0,-4.0,-6.0,-3.0,128,112,101,128,118,471,1017,464
2025-02-20 15:43:49.383,-371.0,-186.0,953.0,0.0,-2.0,-2.0,128,112,101,129,119,471,1017,464
2025-02-20 15:43:49.403,-366.0,-185.0,952.0,3.0,3.0,0.0,128,112,102,128,118,467,1018,463
2025-02-20 15:43:49.419,-386.0,-155.0,946.0,1.0,4.0,1.0,128,112,101,128,118,466,1014,461
2025-02-20 15:43:49.440,-402.0,-134.0,906.0,-3.0,-2.0,0.0,128,111,102,128,118,464,1018,462
2025-02-20 15:43:49.457,-399.0,-154.0,906.0,-5.0,-6.0,0.0,127,112,101,130,119,464,1017,464
2025-02-20 15:43:49.474,-387.0,-172.0,923.0,-2.0,-6.0,1.0,128,111,101,129,118,463,1018,464
2025-02-20 15:43:49.497,-375.0,-167.0,939.0,2.0,-3.0,2.0,128,112,101,128,119,464,1017,465
2025-02-20 15:43:49.514,-375.0,-154.0,945.0,4.0,0.0,2.0,128,112,101,128,118,465,1017,465
2025-02-20 15:43:49.534,-386.0,-141.0,935.0,4.0,0.0,2.0,127,111,101,129,119,464,1017,465
2025-02-20 15:43:49.555,-379.0,-135.0,940.0,0.0,-3.0,2.0,128,111,102,129,119,464,1017,465
2025-02-20 15:43:49.571,-380.0,-136.0,946.0,-1.0,-3.0,1.0,128,112,101,129,120,465,1017,465
2025-02-20 15:43:49.589,-373.0,-154.0,957.0,-1.0,-2.0,1.0,128,111,101,129,119,466,1018,466
2025-02-20 15:43:49.611,-369.0,-147.0,962.0,1.0,0.0,1.0,128,112,101,129,119,468,1017,465
2025-02-20 15:43:49.629,-370.0,-142.0,949.0,0.0,1.0,2.0,128,112,100,129,118,468,1017,464
2025-02-20 15:43:49.649,-380.0,-139.0,935.0,-2.0,0.0,2.0,128,112,102,129,119,467,1017,464
2025-02-20 15:43:49.669,-384.0,-136.0,926.0,-3.0,-2.0,1.0,128,112,101,129,118,467,1018,463
2025-02-20 15:43:49.686,-382.0,-143.0,935.0,0.0,-3.0,0.0,129,111,101,129,119,466,1016,463
2025-02-20 15:43:49.706,-372.0,-149.0,941.0,2.0,-2.0,0.0,128,111,101,129,119,466,1018,463
2025-02-20 15:43:49.723,-371.0,-149.0,952.0,3.0,-1.0,1.0,128,112,102,129,118,469,1017,463
2025-02-20 15:43:49.743,-373.0,-137.0,962.0,2.0,0.0,0.0,128,113,101,128,119,468,1016,464
2025-02-20 15:43:49.763,-377.0,-137.0,960.0,1.0,0.0,0.0,128,111,102,129,118,467,1017,463
2025-02-20 15:43:49.780,-383.0,-139.0,963.0,0.0,-1.0,0.0,128,112,102,129,118,466,1017,464
2025-02-20 15:43:49.800,-379.0,-140.0,971.0,-1.0,0.0,0.0,128,112,100,128,119,465,1017,463
2025-02-20 15:43:49.820,-381.0,-133.0,963.0,-1.0,0.0,0.0,128,112,102,129,119,466,1017,464
2025-02-20 15:43:49.837,-372.0,-132.0,953.0,-2.0,0.0,0.0,128,111,101,128,118,464,1016,464
2025-02-20 15:43:49.857,-381.0,-136.0,958.0,-2.0,0.0,0.0,128,111,101,128,119,465,1017,465
2025-02-20 15:43:49.877,-372.0,-146.0,953.0,0.0,1.0,0.0,128,112,100,129,118,465,1016,465
2025-02-20 15:43:49.895,-376.0,-143.0,942.0,2.0,2.0,1.0,128,112,101,129,119,464,1017,465
2025-02-20 15:43:49.915,-379.0,-131.0,936.0,0.0,2.0,1.0,128,112,101,129,119,464,1017,466
2025-02-20 15:43:49.932,-391.0,-133.0,922.0,-2.0,1.0,1.0,128,112,100,129,119,465,1017,466
2025-02-20 15:43:49.952,-392.0,-136.0,929.0,-1.0,0.0,0.0,128,111,102,129,119,467,1017,466
2025-02-20 15:43:49.972,-386.0,-135.0,932.0,1.0,1.0,0.0,127,111,102,129,118,464,1018,466
2025-02-20 15:43:49.989,-393.0,-128.0,936.0,2.0,1.0,0.0,128,111,102,129,118,464,1017,465
2025-02-20 15:43:50.006,-397.0,-125.0,938.0,0.0,1.0,-1.0,128,112,101,129,119,464,1017,465
2025-02-20 15:43:50.029,-394.0,-127.0,936.0,0.0,0.0,-2.0,129,111,101,128,119,464,1018,462
2025-02-20 15:43:50.045,-393.0,-127.0,929.0,0.0,0.0,-1.0,129,112,102,129,119,465,1016,464
2025-02-20 15:43:50.067,-391.0,-127.0,929.0,0.0,0.0,-2.0,128,111,102,128,119,465,1017,464
2025-02-20 15:43:50.087,-385.0,-135.0,929.0,0.0,-1.0,-3.0,128,112,102,128,118,464,1017,464
2025-02-20 15:43:50.097,-387.0,-144.0,928.0,0.0,-1.0,-2.0,128,112,102,129,119,464,1018,464
2025-02-20 15:43:50.124,-371.0,-131.0,934.0,0.0,-1.0,-2.0,128,112,103,129,118,464,1017,463
2025-02-20 15:43:50.140,-387.0,-132.0,938.0,-1.0,-2.0,-1.0,128,111,102,129,119,464,1018,465
2025-02-20 15:43:50.159,-382.0,-127.0,936.0,-2.0,-1.0,-2.0,127,112,102,129,119,465,1017,465
2025-02-20 15:43:50.181,-384.0,-131.0,935.0,-1.0,-1.0,-2.0,129,112,102,129,118,465,1017,465
2025-02-20 15:43:50.199,-391.0,-126.0,933.0,-1.0,-1.0,-2.0,127,112,101,129,118,465,1017,465
2025-02-20 15:43:50.218,-392.0,-140.0,937.0,-1.0,-1.0,-3.0,128,111,101,129,119,464,1017,465
2025-02-20 15:43:50.238,-393.0,-138.0,939.0,1.0,-1.0,-2.0,129,113,102,129,118,462,1017,466
2025-02-20 15:43:50.255,-395.0,-123.0,930.0,1.0,-2.0,-2.0,128,111,102,129,118,460,1018,467
2025-02-20 15:43:50.275,-392.0,-131.0,944.0,0.0,-2.0,-2.0,128,112,102,129,119,460,1017,468
2025-02-20 15:43:50.295,-388.0,-136.0,948.0,1.0,-2.0,-2.0,128,112,103,130,119,462,1018,468
2025-02-20 15:43:50.312,-385.0,-136.0,945.0,0.0,-2.0,-2.0,128,111,103,129,119,462,1017,468
2025-02-20 15:43:50.333,-372.0,-143.0,947.0,-3.0,-2.0,-2.0,128,111,102,129,119,462,1018,465
2025-02-20 15:43:50.353,-358.0,-159.0,950.0,-2.0,-2.0,-1.0,128,111,102,130,119,462,1018,467
2025-02-20 15:43:50.370,-368.0,-156.0,954.0,-1.0,-1.0,0.0,128,112,103,129,118,463,1016,467
2025-02-20 15:43:50.390,-384.0,-136.0,967.0,-1.0,0.0,1.0,128,111,101,129,119,464,1018,465
2025-02-20 15:43:50.407,-393.0,-127.0,955.0,-2.0,1.0,0.0,128,112,102,130,119,464,1017,466
2025-02-20 15:43:50.427,-394.0,-122.0,938.0,-2.0,1.0,-1.0,128,112,102,129,119,465,1017,466
2025-02-20 15:43:50.447,-397.0,-137.0,925.0,1.0,1.0,-1.0,128,112,102,130,119,464,1018,465
2025-02-20 15:43:50.462,-400.0,-125.0,931.0,2.0,0.0,-1.0,128,112,102,129,118,465,1017,465
2025-02-20 15:43:50.484,-396.0,-125.0,935.0,1.0,-2.0,-1.0,128,112,102,130,119,463,1017,465
2025-02-20 15:43:50.505,-377.0,-134.0,953.0,0.0,-3.0,-1.0,128,112,103,129,120,462,1017,465
2025-02-20 15:43:50.521,-377.0,-131.0,943.0,-1.0,-1.0,-1.0,128,111,101,129,118,462,1017,465
2025-02-20 15:43:50.540,-377.0,-133.0,947.0,-2.0,1.0,-2.0,128,112,102,129,119,464,1017,465
2025-02-20 15:43:50.557,-389.0,-126.0,917.0,0.0,0.0,-1.0,128,112,102,129,119,462,1018,464
2025-02-20 15:43:50.579,-385.0,-136.0,952.0,-2.0,1.0,-1.0,128,111,102,130,119,462,1017,465
2025-02-20 15:43:50.599,-392.0,-151.0,938.0,-2.0,1.0,-1.0,128,111,101,129,119,463,1017,465
2025-02-20 15:43:50.613,-389.0,-153.0,932.0,1.0,0.0,-1.0,128,112,102,129,120,462,1018,465
2025-02-20 15:43:50.636,-386.0,-128.0,956.0,0.0,-1.0,0.0,128,112,102,129,119,463,1014,462
2025-02-20 15:43:50.656,-392.0,-129.0,952.0,-2.0,-2.0,0.0,128,111,102,133,119,463,1017,465
2025-02-20 15:43:50.672,-394.0,-144.0,949.0,-1.0,-1.0,0.0,128,112,102,130,119,464,1017,466
2025-02-20 15:43:50.693,-396.0,-125.0,940.0,0.0,0.0,0.0,128,111,102,129,118,463,1018,466
2025-02-20 15:43:50.713,-401.0,-125.0,941.0,2.0,0.0,-1.0,128,112,102,130,119,462,1017,466
2025-02-20 15:43:50.730,-386.0,-126.0,935.0,1.0,0.0,-1.0,128,112,102,130,119,462,1017,465
2025-02-20 15:43:50.750,-390.0,-134.0,940.0,0.0,0.0,0.0,128,112,102,130,119,463,1017,466
2025-02-20 15:43:50.770,-390.0,-131.0,943.0,0.0,-1.0,0.0,128,112,102,129,119,461,1017,465
2025-02-20 15:43:50.788,-385.0,-125.0,946.0,-1.0,-1.0,-1.0,128,112,103,129,119,465,1017,465
2025-02-20 15:43:50.808,-389.0,-117.0,938.0,-1.0,0.0,-1.0,128,112,103,129,119,464,1017,465
2025-02-20 15:43:50.825,-382.0,-129.0,941.0,0.0,0.0,-1.0,128,113,101,129,119,465,1017,464
2025-02-20 15:43:50.844,-378.0,-134.0,946.0,1.0,0.0,-1.0,128,112,103,128,119,465,1017,464
2025-02-20 15:43:50.864,-378.0,-125.0,936.0,1.0,0.0,0.0,128,112,102,129,118,463,1017,463
2025-02-20 15:43:50.879,-385.0,-133.0,934.0,0.0,-2.0,-1.0,128,112,102,129,119,464,1017,463
2025-02-20 15:43:50.902,-380.0,-133.0,938.0,1.0,-1.0,0.0,128,111,102,129,118,463,1017,464
2025-02-20 15:43:50.922,-389.0,-116.0,933.0,2.0,-1.0,0.0,128,112,102,129,119,463,1017,463
2025-02-20 15:43:50.939,-383.0,-115.0,942.0,1.0,-2.0,-1.0,128,112,102,129,119,463,1017,463
2025-02-20 15:43:50.959,-389.0,-112.0,947.0,1.0,-2.0,-2.0,128,111,101,129,118,464,1019,464
2025-02-20 15:43:50.980,-382.0,-122.0,944.0,2.0,-1.0,-2.0,129,111,102,130,119,461,1017,465
2025-02-20 15:43:50.996,-389.0,-125.0,941.0,1.0,-2.0,-1.0,128,112,101,129,119,462,1017,465
2025-02-20 15:43:51.017,-395.0,-116.0,947.0,1.0,-2.0,-2.0,128,111,102,129,118,462,1017,466
2025-02-20 15:43:51.037,-390.0,-111.0,956.0,1.0,-1.0,-2.0,128,112,102,129,119,461,1018,467
2025-02-20 15:43:51.054,-389.0,-121.0,955.0,1.0,0.0,-2.0,128,112,101,130,119,462,1017,467
2025-02-20 15:43:51.073,-389.0,-121.0,954.0,0.0,0.0,-2.0,128,111,102,129,119,463,1016,466
2025-02-20 15:43:51.092,-392.0,-127.0,947.0,-1.0,-1.0,-2.0,128,111,103,129,119,462,1017,467
2025-02-20 15:43:51.111,-381.0,-138.0,945.0,-1.0,-1.0,-2.0,128,111,101,129,119,461,1017,466
2025-02-20 15:43:51.132,-383.0,-139.0,939.0,0.0,0.0,-1.0,128,113,102,129,118,462,1017,467
2025-02-20 15:43:51.147,-388.0,-125.0,939.0,0.0,0.0,-1.0,128,112,104,129,119,463,1017,466
2025-02-20 15:43:51.168,-389.0,-125.0,936.0,-2.0,0.0,-1.0,128,112,103,129,119,462,1017,466
2025-02-20 15:43:51.189,-387.0,-130.0,929.0,-1.0,-1.0,-2.0,127,110,102,129,119,462,1017,465
2025-02-20 15:43:51.206,-393.0,-133.0,925.0,0.0,-1.0,-1.0,129,113,102,130,119,463,1017,465
2025-02-20 15:43:51.226,-393.0,-128.0,931.0,0.0,-2.0,-1.0,128,112,102,130,118,463,1018,463
2025-02-20 15:43:51.246,-387.0,-133.0,940.0,0.0,-2.0,-1.0,128,112,102,129,118,463,1018,463
2025-02-20 15:43:51.262,-385.0,-119.0,943.0,0.0,-1.0,0.0,127,111,103,129,119,463,1018,462
2025-02-20 15:43:51.283,-393.0,-113.0,939.0,-2.0,-1.0,0.0,128,111,102,130,119,464,1017,458
2025-02-20 15:43:51.300,-396.0,-132.0,934.0,-2.0,-1.0,-1.0,128,112,102,131,119,464,1017,462
2025-02-20 15:43:51.320,-386.0,-123.0,935.0,0.0,-1.0,0.0,128,111,102,129,119,463,1017,462
2025-02-20 15:43:51.340,-388.0,-117.0,937.0,-1.0,-1.0,-1.0,128,112,103,129,119,463,1017,462
2025-02-20 15:43:51.357,-391.0,-125.0,938.0,-2.0,-2.0,-1.0,127,112,102,129,119,463,1017,462
2025-02-20 15:43:51.377,-381.0,-144.0,950.0,0.0,-2.0,0.0,128,112,102,129,118,462,1018,463
2025-02-20 15:43:51.393,-373.0,-125.0,961.0,1.0,0.0,0.0,128,113,103,129,119,461,1017,464
2025-02-20 15:43:51.413,-372.0,-119.0,960.0,0.0,0.0,0.0,128,112,102,130,119,462,1016,464
2025-02-20 15:43:51.434,-380.0,-116.0,956.0,-3.0,0.0,0.0,128,112,103,129,119,462,1018,464
2025-02-20 15:43:51.455,-381.0,-123.0,952.0,-1.0,0.0,-1.0,128,112,102,129,119,462,1018,463
2025-02-20 15:43:51.472,-381.0,-110.0,940.0,0.0,0.0,0.0,128,111,102,129,119,462,1018,465
2025-02-20 15:43:51.492,-391.0,-107.0,941.0,0.0,0.0,0.0,128,112,102,130,119,463,1017,466
2025-02-20 15:43:51.509,-389.0,-105.0,940.0,0.0,1.0,-1.0,128,112,103,130,119,462,1018,465
2025-02-20 15:43:51.528,-388.0,-104.0,935.0,1.0,1.0,-1.0,128,112,102,130,119,463,1017,465
2025-02-20 15:43:51.546,-393.0,-107.0,930.0,1.0,0.0,-2.0,128,112,102,130,119,463,1017,465
2025-02-20 15:43:51.566,-389.0,-121.0,934.0,0.0,-1.0,-3.0,128,112,103,130,119,463,1017,465
2025-02-20 15:43:51.586,-385.0,-122.0,939.0,0.0,-1.0,-2.0,128,112,102,129,119,462,1017,465
2025-02-20 15:43:51.607,-387.0,-127.0,941.0,0.0,-1.0,-2.0,128,111,103,130,119,464,1017,464
2025-02-20 15:43:51.623,-385.0,-128.0,942.0,-1.0,-1.0,-3.0,128,112,103,130,119,464,1017,464
2025-02-20 15:43:51.642,-374.0,-137.0,943.0,-1.0,-1.0,-2.0,128,112,103,130,119,464,1017,464
2025-02-20 15:43:51.664,-386.0,-129.0,937.0,0.0,0.0,-1.0,129,111,103,129,118,465,1017,465
2025-02-20 15:43:51.681,-388.0,-123.0,930.0,0.0,-1.0,-1.0,128,112,102,130,119,464,1017,464
2025-02-20 15:43:51.700,-389.0,-118.0,928.0,0.0,-2.0,-1.0,129,112,103,129,118,463,1016,463
2025-02-20 15:43:51.721,-389.0,-121.0,932.0,0.0,-3.0,-2.0,128,111,103,129,119,462,1016,464
2025-02-20 15:43:51.733,-384.0,-115.0,942.0,2.0,-4.0,-1.0,129,112,103,130,119,462,1017,464
2025-02-20 15:43:51.758,-380.0,-114.0,962.0,3.0,-3.0,-1.0,128,112,102,129,119,462,1017,465
2025-02-20 15:43:51.775,-382.0,-116.0,962.0,2.0,-1.0,-1.0,127,112,102,129,118,461,1017,464
2025-02-20 15:43:51.795,-385.0,-107.0,954.0,2.0,-2.0,-1.0,128,112,103,129,119,462,1017,465
2025-02-20 15:43:51.816,-392.0,-115.0,958.0,0.0,-2.0,-1.0,128,112,102,129,117,462,1017,466
2025-02-20 15:43:51.832,-390.0,-110.0,957.0,-1.0,-1.0,-1.0,128,112,103,129,119,462,1017,466
2025-02-20 15:43:51.850,-392.0,-109.0,944.0,-1.0,-1.0,-2.0,128,111,102,129,119,462,1017,466
2025-02-20 15:43:51.873,-391.0,-112.0,947.0,-3.0,0.0,-2.0,128,111,102,129,119,462,1017,466
2025-02-20 15:43:51.890,-386.0,-125.0,957.0,-1.0,-1.0,-1.0,128,112,104,129,119,463,1017,467
2025-02-20 15:43:51.910,-387.0,-119.0,956.0,0.0,0.0,-1.0,128,112,102,129,118,466,1017,466
2025-02-20 15:43:51.930,-393.0,-110.0,940.0,-1.0,0.0,-1.0,128,111,103,130,119,475,1018,465
2025-02-20 15:43:51.947,-380.0,-136.0,942.0,-1.0,-1.0,-2.0,128,111,100,129,119,479,1017,465
2025-02-20 15:43:51.967,-373.0,-133.0,947.0,1.0,-2.0,-2.0,128,113,103,130,119,478,1017,465
2025-02-20 15:43:51.984,-384.0,-123.0,964.0,2.0,-2.0,-1.0,128,111,102,130,118,475,1017,465
2025-02-20 15:43:52.002,-381.0,-122.0,949.0,0.0,-3.0,-1.0,128,112,102,129,119,472,1017,464
2025-02-20 15:43:52.024,-381.0,-122.0,958.0,-2.0,-1.0,0.0,128,112,101,130,118,467,1017,463
2025-02-20 15:43:52.041,-380.0,-106.0,942.0,0.0,0.0,0.0,128,112,102,129,119,465,1017,463
2025-02-20 15:43:52.061,-383.0,-99.0,933.0,1.0,0.0,-1.0,128,112,103,132,119,460,1017,464
2025-02-20 15:43:52.082,-379.0,-112.0,936.0,0.0,-1.0,-1.0,127,112,103,130,119,458,1018,463
2025-02-20 15:43:52.099,-369.0,-120.0,946.0,0.0,-2.0,-1.0,128,112,103,130,118,458,1017,463
2025-02-20 15:43:52.118,-372.0,-115.0,947.0,-1.0,-2.0,0.0,128,112,102,129,119,455,1017,464
2025-02-20 15:43:52.139,-375.0,-113.0,948.0,-4.0,-1.0,0.0,128,111,102,130,119,456,1017,464
2025-02-20 15:43:52.156,-379.0,-116.0,944.0,-2.0,-1.0,0.0,128,112,102,129,119,456,1017,465
2025-02-20 15:43:52.175,-383.0,-116.0,939.0,0.0,-1.0,0.0,128,112,103,129,119,458,1018,464
2025-02-20 15:43:52.192,-385.0,-96.0,949.0,0.0,0.0,0.0,128,112,102,129,119,457,1017,465
2025-02-20 15:43:52.213,-385.0,-100.0,944.0,-2.0,-1.0,-1.0,128,113,102,129,119,457,1017,466
2025-02-20 15:43:52.233,-385.0,-109.0,938.0,-2.0,-2.0,-1.0,128,111,102,130,119,458,1017,466
2025-02-20 15:43:52.250,-378.0,-116.0,944.0,-1.0,-2.0,-1.0,128,112,102,130,119,457,1017,465
2025-02-20 15:43:52.270,-378.0,-106.0,947.0,-1.0,-1.0,-1.0,128,111,103,129,119,458,1017,465
2025-02-20 15:43:52.290,-388.0,-106.0,950.0,-1.0,-2.0,-1.0,128,112,103,130,119,461,1017,466
2025-02-20 15:43:52.308,-380.0,-111.0,958.0,0.0,-3.0,-2.0,128,111,102,129,119,460,1017,466
2025-02-20 15:43:52.327,-377.0,-115.0,968.0,1.0,-1.0,-1.0,128,112,102,130,118,460,1018,466
2025-02-20 15:43:52.345,-373.0,-116.0,970.0,0.0,0.0,-1.0,129,111,102,129,118,460,1017,465
2025-02-20 15:43:52.365,-376.0,-109.0,968.0,-1.0,1.0,-1.0,128,112,103,129,119,463,1017,465
2025-02-20 15:43:52.385,-376.0,-111.0,949.0,-3.0,1.0,-1.0,128,112,102,129,118,462,1018,465
2025-02-20 15:43:52.401,-378.0,-113.0,936.0,-3.0,0.0,-1.0,128,112,102,130,119,463,1017,465
2025-02-20 15:43:52.422,-384.0,-118.0,928.0,0.0,-1.0,-1.0,129,111,107,130,119,462,1017,465
2025-02-20 15:43:52.442,-387.0,-113.0,949.0,1.0,-2.0,-1.0,128,111,102,129,118,463,1016,464
2025-02-20 15:43:52.459,-391.0,-105.0,956.0,0.0,-1.0,-1.0,128,112,103,129,119,463,1018,463
2025-02-20 15:43:52.479,-383.0,-106.0,953.0,-1.0,-1.0,-2.0,128,111,103,129,119,463,1017,464
2025-02-20 15:43:52.496,-386.0,-115.0,945.0,-2.0,0.0,-2.0,128,113,102,129,119,463,1017,463
2025-02-20 15:43:52.517,-386.0,-117.0,938.0,0.0,0.0,-2.0,127,112,102,130,118,463,1017,465
2025-02-20 15:43:52.537,-383.0,-119.0,934.0,0.0,0.0,-2.0,127,112,103,129,118,461,1017,465
2025-02-20 15:43:52.557,-382.0,-118.0,930.0,-2.0,-1.0,-2.0,128,111,102,130,119,462,1017,465
2025-02-20 15:43:52.574,-378.0,-126.0,936.0,-1.0,-3.0,-2.0,128,112,103,130,119,461,1017,465
2025-02-20 15:43:52.594,-380.0,-113.0,945.0,0.0,-5.0,-2.0,128,112,103,129,119,462,1018,465
2025-02-20 15:43:52.612,-368.0,-107.0,961.0,-2.0,-5.0,-2.0,128,111,103,130,118,462,1020,466
2025-02-20 15:43:52.630,-375.0,-125.0,967.0,-3.0,-3.0,-2.0,128,112,103,129,119,461,1018,462
2025-02-20 15:43:52.651,-371.0,-130.0,962.0,1.0,-2.0,-2.0,128,111,103,130,119,463,1017,465
2025-02-20 15:43:52.668,-374.0,-124.0,964.0,1.0,0.0,0.0,128,112,102,129,119,462,1017,466
2025-02-20 15:43:52.688,-380.0,-112.0,957.0,0.0,0.0,-1.0,129,112,102,130,119,463,1017,465
2025-02-20 15:43:52.708,-383.0,-105.0,964.0,0.0,0.0,0.0,128,112,103,130,119,462,1018,465
2025-02-20 15:43:52.725,-387.0,-106.0,953.0,-1.0,2.0,0.0,128,112,103,130,119,463,1017,465
2025-02-20 15:43:52.746,-385.0,-103.0,935.0,-2.0,2.0,-1.0,128,111,102,129,118,465,1017,464
2025-02-20 15:43:52.766,-380.0,-104.0,922.0,-3.0,1.0,-1.0,128,111,102,129,119,465,1017,465
2025-02-20 15:43:52.783,-386.0,-111.0,918.0,-2.0,-1.0,-1.0,128,111,103,129,119,464,1017,463
2025-02-20 15:43:52.803,-382.0,-113.0,924.0,1.0,-2.0,-1.0,128,112,103,129,119,464,1017,464
2025-02-20 15:43:52.823,-377.0,-109.0,942.0,1.0,-3.0,-1.0,128,112,102,129,119,464,1017,464
2025-02-20 15:43:52.837,-369.0,-103.0,963.0,-1.0,-2.0,-1.0,128,112,103,130,118,464,1018,464
2025-02-20 15:43:52.860,-370.0,-113.0,957.0,-3.0,-1.0,-2.0,128,113,103,130,119,463,1017,465
2025-02-20 15:43:52.877,-377.0,-112.0,945.0,-2.0,-1.0,-1.0,128,111,102,130,119,465,1017,465
2025-02-20 15:43:52.897,-379.0,-111.0,934.0,-2.0,-1.0,-1.0,128,112,102,130,119,463,1017,465
2025-02-20 15:43:52.917,-382.0,-116.0,936.0,-2.0,-2.0,-1.0,128,112,103,130,119,462,1017,465
2025-02-20 15:43:52.934,-377.0,-124.0,944.0,-1.0,-3.0,0.0,128,111,103,130,118,462,1017,465
2025-02-20 15:43:52.954,-366.0,-125.0,960.0,1.0,-3.0,0.0,128,111,103,129,119,463,1018,465
2025-02-20 15:43:52.975,-368.0,-115.0,969.0,2.0,-3.0,0.0,128,112,102,130,119,461,1017,467
2025-02-20 15:43:52.989,-368.0,-115.0,975.0,0.0,-1.0,0.0,129,113,103,130,119,463,1017,466
2025-02-20 15:43:53.012,-370.0,-103.0,979.0,-1.0,-1.0,1.0,127,111,103,130,119,463,1017,469
2025-02-20 15:43:53.031,-380.0,-84.0,969.0,-2.0,1.0,0.0,128,112,103,130,119,462,1017,466
2025-02-20 15:43:53.049,-390.0,-86.0,948.0,-1.0,1.0,-1.0,128,112,103,130,119,462,1018,467
2025-02-20 15:43:53.066,-385.0,-95.0,948.0,1.0,0.0,-2.0,128,112,102,130,119,464,1017,468
2025-02-20 15:43:53.086,-383.0,-97.0,957.0,1.0,0.0,-2.0,128,112,103,130,118,465,1017,467
2025-02-20 15:43:53.104,-376.0,-108.0,956.0,0.0,1.0,-2.0,128,112,102,129,119,465,1017,466
2025-02-20 15:43:53.126,-377.0,-115.0,944.0,0.0,0.0,-2.0,128,113,102,130,119,464,1017,466
2025-02-20 15:43:53.140,-377.0,-117.0,945.0,1.0,0.0,-2.0,128,112,103,130,119,465,1017,466
2025-02-20 15:43:53.163,-377.0,-108.0,943.0,1.0,1.0,-2.0,128,111,103,130,119,465,1017,466
2025-02-20 15:43:53.183,-378.0,-104.0,927.0,0.0,0.0,-2.0,129,112,104,130,119,465,1017,465
2025-02-20 15:43:53.200,-380.0,-117.0,932.0,-1.0,-1.0,-2.0,128,111,103,130,119,464,1018,464
2025-02-20 15:43:53.221,-379.0,-124.0,934.0,-1.0,-1.0,-1.0,128,112,103,130,118,464,1017,464
2025-02-20 15:43:53.241,-375.0,-126.0,938.0,0.0,-1.0,-1.0,128,112,102,130,119,462,1018,464
2025-02-20 15:43:53.257,-376.0,-121.0,939.0,-1.0,-2.0,-1.0,128,112,103,130,119,462,1017,463
2025-02-20 15:43:53.277,-375.0,-120.0,954.0,-2.0,-1.0,-1.0,128,111,103,129,119,462,1017,465
2025-02-20 15:43:53.295,-375.0,-120.0,944.0,-2.0,0.0,0.0,128,112,102,130,119,463,1017,465
2025-02-20 15:43:53.315,-376.0,-119.0,936.0,-1.0,-1.0,0.0,128,110,102,130,119,462,1017,466
2025-02-20 15:43:53.335,-378.0,-116.0,938.0,-1.0,-2.0,0.0,128,112,103,129,118,461,1017,465
2025-02-20 15:43:53.352,-376.0,-114.0,950.0,0.0,-3.0,1.0,128,112,103,130,119,463,1017,466
2025-02-20 15:43:53.370,-374.0,-104.0,953.0,0.0,-2.0,1.0,128,112,103,130,119,462,1017,465
2025-02-20 15:43:53.392,-384.0,-85.0,955.0,0.0,-2.0,1.0,128,112,103,130,120,462,1017,466
2025-02-20 15:43:53.407,-384.0,-82.0,962.0,0.0,-2.0,0.0,129,112,103,129,119,463,1018,466
2025-02-20 15:43:53.430,-380.0,-89.0,960.0,-1.0,-1.0,-1.0,127,111,103,130,119,461,1017,466
2025-02-20 15:43:53.449,-377.0,-96.0,951.0,0.0,-1.0,-1.0,128,112,103,130,119,462,1017,466
2025-02-20 15:43:53.467,-377.0,-95.0,958.0,0.0,-2.0,-1.0,128,112,103,129,119,462,1018,465
2025-02-20 15:43:53.486,-370.0,-92.0,964.0,0.0,-1.0,-1.0,129,112,103,130,118,462,1017,464
2025-02-20 15:43:53.507,-370.0,-86.0,954.0,0.0,-1.0,-2.0,128,113,103,130,118,463,1017,464
2025-02-20 15:43:53.524,-375.0,-107.0,943.0,0.0,-1.0,-2.0,128,112,103,130,119,464,1017,465
2025-02-20 15:43:53.544,-369.0,-109.0,950.0,3.0,-2.0,-1.0,128,112,103,130,119,463,1017,464
2025-02-20 15:43:53.561,-371.0,-103.0,951.0,2.0,-3.0,-1.0,128,112,103,130,119,464,1016,464
2025-02-20 15:43:53.581,-380.0,-90.0,955.0,1.0,-3.0,-1.0,128,112,103,130,119,465,1018,464
2025-02-20 15:43:53.601,-376.0,-100.0,958.0,2.0,-2.0,-1.0,128,112,102,130,119,465,1017,464
2025-02-20 15:43:53.618,-375.0,-101.0,962.0,3.0,-1.0,-1.0,127,111,101,129,118,464,1017,464
2025-02-20 15:43:53.638,-371.0,-94.0,958.0,1.0,-1.0,-2.0,128,111,103,129,119,464,1017,464
2025-02-20 15:43:53.656,-367.0,-100.0,946.0,0.0,0.0,-2.0,128,111,101,129,118,464,1017,464
2025-02-20 15:43:53.675,-368.0,-116.0,943.0,0.0,0.0,-2.0,128,112,102,129,119,465,1017,465
2025-02-20 15:43:53.695,-376.0,-112.0,947.0,2.0,-1.0,-1.0,128,111,103,130,117,464,1017,464
2025-02-20 15:43:53.715,-378.0,-97.0,955.0,0.0,-2.0,-1.0,128,112,103,130,119,463,1017,465
2025-02-20 15:43:53.732,-371.0,-98.0,957.0,-2.0,-1.0,-2.0,128,112,102,130,119,464,1018,466
2025-02-20 15:43:53.753,-369.0,-108.0,956.0,0.0,1.0,-1.0,128,109,102,130,119,463,1017,466
2025-02-20 15:43:53.770,-380.0,-102.0,945.0,0.0,0.0,0.0,128,111,102,130,119,462,1018,467
2025-02-20 15:43:53.790,-381.0,-104.0,943.0,0.0,0.0,-1.0,128,112,102,130,119,464,1017,466
2025-02-20 15:43:53.807,-382.0,-98.0,938.0,1.0,-1.0,0.0,128,112,102,130,119,462,1017,466
2025-02-20 15:43:53.827,-382.0,-96.0,950.0,0.0,-1.0,0.0,128,112,103,129,118,462,1017,466
2025-02-20 15:43:53.847,-377.0,-100.0,948.0,0.0,-1.0,0.0,128,113,102,131,119,464,1017,466
2025-02-20 15:43:53.867,-370.0,-103.0,952.0,1.0,-1.0,0.0,129,111,103,130,119,463,1017,465
2025-02-20 15:43:53.884,-375.0,-97.0,957.0,2.0,0.0,0.0,128,111,103,130,118,464,1017,465
2025-02-20 15:43:53.904,-378.0,-90.0,958.0,0.0,-1.0,0.0,127,111,103,130,118,465,1017,463
2025-02-20 15:43:53.925,-370.0,-100.0,956.0,-1.0,0.0,0.0,129,112,103,130,118,464,1017,463
2025-02-20 15:43:53.941,-368.0,-105.0,955.0,-1.0,0.0,0.0,129,112,103,129,119,465,1017,463
2025-02-20 15:43:53.962,-370.0,-97.0,950.0,-1.0,0.0,0.0,128,112,101,129,119,464,1016,464
2025-02-20 15:43:53.977,-376.0,-97.0,952.0,-1.0,0.0,0.0,128,112,102,129,119,464,1017,463
2025-02-20 15:43:53.999,-376.0,-93.0,946.0,-1.0,0.0,0.0,128,112,103,130,119,465,1017,462
2025-02-20 15:43:54.019,-370.0,-91.0,946.0,-2.0,0.0,0.0,128,112,103,130,119,464,1017,463
2025-02-20 15:43:54.036,-373.0,-95.0,942.0,-1.0,-1.0,0.0,128,111,103,130,119,461,1018,464
2025-02-20 15:43:54.056,-375.0,-88.0,947.0,0.0,-2.0,0.0,128,112,104,130,119,463,1017,464
2025-02-20 15:43:54.073,-369.0,-93.0,941.0,-1.0,-1.0,-1.0,129,111,102,130,119,463,1016,464
2025-02-20 15:43:54.093,-368.0,-94.0,943.0,-1.0,-2.0,0.0,128,113,102,129,117,460,1018,465
2025-02-20 15:43:54.113,-378.0,-99.0,945.0,0.0,-2.0,-1.0,128,112,103,131,119,462,1017,465
2025-02-20 15:43:54.134,-376.0,-95.0,950.0,1.0,-1.0,0.0,128,112,103,130,118,461,1018,465
2025-02-20 15:43:54.151,-369.0,-83.0,956.0,0.0,-2.0,0.0,128,112,102,130,119,461,1017,466
2025-02-20 15:43:54.170,-372.0,-84.0,968.0,-2.0,-2.0,-1.0,128,112,103,130,119,462,1017,465
2025-02-20 15:43:54.188,-385.0,-97.0,969.0,-1.0,0.0,0.0,128,112,103,129,119,462,1017,466
2025-02-20 15:43:54.208,-380.0,-86.0,970.0,0.0,-1.0,0.0,128,111,103,130,119,461,1016,466
2025-02-20 15:43:54.228,-375.0,-81.0,965.0,-2.0,-1.0,-1.0,128,112,103,129,118,464,1017,465
2025-02-20 15:43:54.245,-371.0,-95.0,951.0,-2.0,0.0,-1.0,128,112,103,129,120,466,1016,466
2025-02-20 15:43:54.265,-371.0,-96.0,949.0,0.0,-1.0,0.0,128,112,103,129,119,463,1017,464
2025-02-20 15:43:54.286,-369.0,-93.0,934.0,0.0,-1.0,0.0,128,112,102,129,119,464,1017,465
2025-02-20 15:43:54.303,-365.0,-84.0,920.0,-2.0,-1.0,-1.0,128,111,103,130,119,463,1018,462
2025-02-20 15:43:54.323,-360.0,-77.0,909.0,-2.0,-2.0,-1.0,128,112,102,131,119,463,1017,465
2025-02-20 15:43:54.343,-379.0,-42.0,887.0,-6.0,-3.0,-2.0,129,111,103,130,119,463,1017,465
2025-02-20 15:43:54.358,-409.0,36.0,803.0,-15.0,-4.0,-5.0,129,111,103,130,119,464,1018,464
2025-02-20 15:43:54.380,-442.0,27.0,721.0,-26.0,-9.0,-10.0,128,112,102,131,119,463,1017,463
2025-02-20 15:43:54.399,-480.0,-65.0,738.0,-23.0,-26.0,-15.0,128,110,103,130,118,460,1018,462
2025-02-20 15:43:54.417,-434.0,-122.0,877.0,-13.0,-48.0,-16.0,128,110,101,129,119,457,1017,461
2025-02-20 15:43:54.437,-342.0,-207.0,1349.0,-13.0,-58.0,-12.0,128,107,95,128,117,454,1017,460
2025-02-20 15:43:54.457,-123.0,-280.0,1895.0,-66.0,-18.0,4.0,127,100,85,127,110,450,1017,460
2025-02-20 15:43:54.474,25.0,-635.0,2434.0,-129.0,90.0,24.0,127,87,68,114,88,451,1016,463
2025-02-20 15:43:54.492,94.0,-463.0,2048.0,-210.0,195.0,74.0,127,69,55,87,69,442,1017,467
2025-02-20 15:43:54.512,-146.0,-560.0,1801.0,-299.0,247.0,101.0,125,58,51,73,58,437,1017,467
2025-02-20 15:43:54.532,-281.0,-777.0,1359.0,-257.0,268.0,105.0,122,55,49,65,52,431,1017,461
2025-02-20 15:43:54.552,78.0,-787.0,1181.0,-135.0,280.0,114.0,117,53,48,63,52,454,1017,465
2025-02-20 15:43:54.569,-219.0,-330.0,568.0,-88.0,292.0,107.0,108,51,47,63,52,492,1018,458
2025-02-20 15:43:54.589,-774.0,99.0,84.0,-172.0,224.0,105.0,101,51,46,60,50,505,1017,455
2025-02-20 15:43:54.609,-639.0,24.0,-17.0,-184.0,157.0,105.0,96,50,46,59,49,495,1017,458
2025-02-20 15:43:54.625,-570.0,180.0,-153.0,-122.0,136.0,83.0,92,49,45,58,48,480,1018,460
2025-02-20 15:43:54.646,-579.0,888.0,-191.0,-91.0,114.0,43.0,91,50,44,59,48,494,1017,462
2025-02-20 15:43:54.663,-595.0,1354.0,-372.0,-124.0,90.0,-5.0,90,51,46,59,47,496,1017,465
2025-02-20 15:43:54.683,-709.0,1452.0,-687.0,-110.0,42.0,-93.0,90,49,44,59,48,471,1017,466
2025-02-20 15:43:54.703,-631.0,1427.0,-1129.0,-24.0,-9.0,-184.0,88,49,43,61,48,451,1017,461
2025-02-20 15:43:54.720,-812.0,1333.0,-1570.0,65.0,-104.0,-323.0,87,49,43,61,47,429,1017,461
2025-02-20 15:43:54.740,-1270.0,1359.0,-2139.0,138.0,-338.0,-458.0,86,49,43,63,49,422,1017,467
2025-02-20 15:43:54.761,-526.0,1581.0,-2239.0,127.0,-662.0,-631.0,87,48,43,62,49,433,1017,470
2025-02-20 15:43:54.778,3635.0,-429.0,-107.0,140.0,-872.0,-602.0,88,49,44,63,51,429,1016,469
2025-02-20 15:43:54.798,4779.0,-3503.0,3932.0,118.0,-292.0,-249.0,89,51,45,65,52,432,1017,466
2025-02-20 15:43:54.817,2584.0,-3519.0,3317.0,209.0,30.0,-96.0,88,50,45,65,52,435,1017,464
2025-02-20 15:43:54.835,1479.0,-2500.0,3266.0,35.0,128.0,42.0,90,51,45,65,51,362,1017,454
2025-02-20 15:43:54.855,572.0,-1702.0,2457.0,-171.0,141.0,124.0,90,52,45,63,51,305,1017,452
2025-02-20 15:43:54.875,567.0,-1951.0,1805.0,-212.0,223.0,171.0,91,52,47,67,52,359,1018,450
2025-02-20 15:43:54.892,46.0,-1421.0,653.0,-116.0,196.0,194.0,90,52,46,67,53,384,1017,472
2025-02-20 15:43:54.912,-63.0,-922.0,452.0,-97.0,162.0,220.0,91,52,46,67,53,498,1016,506
2025-02-20 15:43:54.929,-136.0,-627.0,389.0,-89.0,155.0,239.0,91,53,47,67,53,529,1017,517
2025-02-20 15:43:54.949,-239.0,-423.0,262.0,-61.0,145.0,258.0,91,53,48,67,53,538,1017,507
2025-02-20 15:43:54.969,-368.0,-198.0,159.0,-29.0,141.0,253.0,91,52,48,67,54,536,1018,479
2025-02-20 15:43:54.986,-333.0,215.0,157.0,5.0,132.0,211.0,91,52,47,67,54,514,1017,476
2025-02-20 15:43:55.006,-296.0,297.0,153.0,26.0,151.0,188.0,91,53,47,67,54,460,1017,481
2025-02-20 15:43:55.027,-310.0,516.0,-141.0,26.0,152.0,196.0,90,52,48,67,54,439,1017,471
2025-02-20 15:43:55.044,-537.0,1003.0,-450.0,15.0,97.0,214.0,91,54,48,68,55,451,1017,470
2025-02-20 15:43:55.062,-741.0,1640.0,-893.0,90.0,36.0,107.0,90,53,48,68,55,507,1017,464
2025-02-20 15:43:55.084,-899.0,2483.0,-1190.0,200.0,-10.0,-218.0,91,54,49,68,55,498,1018,464
2025-02-20 15:43:55.101,-1050.0,2492.0,-1479.0,75.0,-162.0,-409.0,90,54,48,69,56,459,1017,464
2025-02-20 15:43:55.121,-900.0,1487.0,-1622.0,-37.0,-407.0,-623.0,90,53,48,69,56,436,1018,461
2025-02-20 15:43:55.141,1239.0,-131.0,-1277.0,-12.0,-753.0,-718.0,92,53,47,72,57,450,1017,461
2025-02-20 15:43:55.158,5098.0,-4162.0,4139.0,6.0,-511.0,-363.0,93,55,49,77,59,504,1017,466
2025-02-20 15:43:55.178,3439.0,-5258.0,3668.0,-71.0,72.0,-3.0,93,56,49,78,60,465,1017,461
2025-02-20 15:43:55.195,1166.0,-3652.0,2101.0,-38.0,113.0,101.0,95,57,49,73,58,398,1018,439
2025-02-20 15:43:55.216,727.0,-2276.0,1764.0,-172.0,176.0,227.0,96,56,50,71,58,377,1017,434
2025-02-20 15:43:55.235,347.0,-2058.0,997.0,-249.0,216.0,285.0,98,57,50,77,60,382,1018,463
2025-02-20 15:43:55.253,84.0,-1587.0,497.0,-129.0,154.0,298.0,102,56,49,80,59,445,1018,485
2025-02-20 15:43:55.273,-174.0,-972.0,235.0,-80.0,132.0,328.0,106,56,50,81,61,471,1017,493
2025-02-20 15:43:55.293,-279.0,-450.0,165.0,-53.0,105.0,337.0,111,57,52,79,62,509,1021,501
2025-02-20 15:43:55.310,-430.0,-212.0,208.0,-24.0,60.0,336.0,116,58,54,82,64,465,1017,500
2025-02-20 15:43:55.330,-423.0,-73.0,186.0,-39.0,31.0,321.0,119,59,54,83,65,464,1017,498
2025-02-20 15:43:55.347,-358.0,201.0,205.0,-53.0,3.0,286.0,119,57,55,83,65,470,1018,487
2025-02-20 15:43:55.365,-145.0,295.0,325.0,-43.0,14.0,261.0,123,59,56,83,66,513,1016,480
2025-02-20 15:43:55.387,-55.0,351.0,297.0,-34.0,66.0,259.0,126,58,55,83,66,521,1017,462
2025-02-20 15:43:55.404,-200.0,762.0,429.0,40.0,89.0,233.0,130,56,55,84,66,523,1015,456
2025-02-20 15:43:55.425,-354.0,1765.0,159.0,144.0,136.0,123.0,134,58,55,82,64,534,1013,450
2025-02-20 15:43:55.445,-585.0,2578.0,-280.0,217.0,171.0,-94.0,135,58,54,80,61,528,1017,460
2025-02-20 15:43:55.461,-667.0,3384.0,-1118.0,165.0,118.0,-331.0,137,54,51,78,55,484,1017,459
2025-02-20 15:43:55.480,-1027.0,3263.0,-2231.0,-4.0,-62.0,-589.0,138,50,48,80,52,537,1017,478
2025-02-20 15:43:55.502,-960.0,2323.0,-2745.0,-118.0,-434.0,-797.0,138,49,47,83,53,533,1017,459
2025-02-20 15:43:55.516,1328.0,903.0,-2218.0,-224.0,-764.0,-858.0,140,48,47,84,55,564,1018,436
2025-02-20 15:43:55.539,4981.0,-1640.0,-812.0,-346.0,-871.0,-690.0,143,50,48,86,58,460,1017,429
2025-02-20 15:43:55.558,5985.0,-5050.0,1895.0,-433.0,-448.0,-369.0,145,51,48,86,58,392,1017,439
2025-02-20 15:43:55.576,3893.0,-7165.0,833.0,36.0,117.0,-129.0,146,50,47,84,57,356,1017,434
2025-02-20 15:43:55.596,782.0,-4285.0,627.0,156.0,231.0,80.0,145,50,45,85,57,363,1018,441
2025-02-20 15:43:55.613,653.0,-2363.0,26.0,38.0,101.0,205.0,146,51,47,89,54,303,1017,444
2025-02-20 15:43:55.633,466.0,-2181.0,568.0,-89.0,142.0,237.0,148,53,49,91,60,479,1016,443
2025-02-20 15:43:55.653,180.0,-1798.0,-61.0,16.0,98.0,328.0,147,52,48,91,59,597,1018,449
2025-02-20 15:43:55.671,226.0,-720.0,-181.0,86.0,59.0,312.0,148,53,48,91,58,644,1017,439
2025-02-20 15:43:55.690,74.0,-101.0,430.0,100.0,56.0,207.0,148,52,48,90,58,656,1017,433
2025-02-20 15:43:55.710,-143.0,-443.0,314.0,91.0,81.0,213.0,148,52,49,91,57,615,1017,452
2025-02-20 15:43:55.727,-271.0,-267.0,291.0,74.0,90.0,236.0,148,53,49,88,57,595,1017,457
2025-02-20 15:43:55.746,-417.0,53.0,187.0,119.0,67.0,184.0,147,52,48,88,56,529,1017,476
2025-02-20 15:43:55.764,-90.0,89.0,460.0,142.0,106.0,151.0,147,52,49,88,57,471,1017,475
2025-02-20 15:43:55.785,-92.0,-82.0,444.0,143.0,152.0,172.0,147,52,49,89,57,401,1017,471
2025-02-20 15:43:55.804,-232.0,-229.0,101.0,151.0,181.0,212.0,148,52,50,87,57,384,1017,468
2025-02-20 15:43:55.822,-357.0,42.0,113.0,189.0,164.0,218.0,147,51,50,87,56,408,1017,462
2025-02-20 15:43:55.843,-292.0,671.0,72.0,287.0,193.0,109.0,146,52,51,88,57,464,1017,458
2025-02-20 15:43:55.863,-659.0,1121.0,-400.0,257.0,186.0,61.0,146,53,50,87,57,446,1017,456
2025-02-20 15:43:55.879,-928.0,1921.0,-792.0,202.0,105.0,-41.0,145,52,50,86,56,437,1017,452
2025-02-20 15:43:55.899,-1465.0,3026.0,-1484.0,129.0,-45.0,-320.0,144,53,49,86,56,449,1017,460
2025-02-20 15:43:55.919,-1528.0,2839.0,-2184.0,-19.0,-294.0,-689.0,141,52,51,86,56,443,1017,459
2025-02-20 15:43:55.936,-62.0,1994.0,-3159.0,-246.0,-801.0,-876.0,139,52,50,89,57,421,1017,459
2025-02-20 15:43:55.957,4641.0,-846.0,-1516.0,-533.0,-1186.0,-657.0,143,53,49,86,57,418,1017,456
2025-02-20 15:43:55.977,6913.0,-6266.0,1971.0,-615.0,-568.0,-218.0,145,53,50,85,59,367,1017,457
2025-02-20 15:43:55.994,4953.0,-7094.0,1541.0,-19.0,90.0,-76.0,146,52,50,87,59,262,1017,465
2025-02-20 15:43:56.014,1600.0,-4429.0,-375.0,267.0,301.0,115.0,145,53,50,84,59,344,1017,483
2025-02-20 15:43:56.031,-189.0,-1236.0,506.0,16.0,183.0,276.0,146,56,51,87,59,305,1018,467
2025-02-20 15:43:56.051,819.0,-2123.0,-69.0,-146.0,217.0,315.0,147,54,51,90,59,347,1018,450
2025-02-20 15:43:56.071,767.0,-1622.0,218.0,-33.0,195.0,388.0,148,54,51,88,59,416,1018,457
2025-02-20 15:43:56.089,322.0,-1003.0,-10.0,129.0,168.0,373.0,147,54,51,88,58,524,1016,478
2025-02-20 15:43:56.108,150.0,-511.0,67.0,158.0,136.0,350.0,147,55,51,87,59,647,1018,491
2025-02-20 15:43:56.128,126.0,-157.0,253.0,70.0,147.0,345.0,147,55,53,85,58,625,1018,483
2025-02-20 15:43:56.146,99.0,-282.0,278.0,79.0,180.0,336.0,147,55,53,84,57,597,1017,474
2025-02-20 15:43:56.166,-86.0,-18.0,67.0,82.0,242.0,342.0,145,56,54,84,59,569,1016,470
2025-02-20 15:43:56.182,-18.0,-96.0,-60.0,141.0,246.0,348.0,145,58,56,82,59,512,1017,462
2025-02-20 15:43:56.200,-135.0,480.0,-454.0,178.0,245.0,338.0,144,60,59,83,61,484,1017,435
2025-02-20 15:43:56.223,-167.0,613.0,41.0,243.0,184.0,305.0,145,63,60,86,66,461,1017,443
2025-02-20 15:43:56.243,-471.0,778.0,-614.0,240.0,195.0,219.0,143,65,62,91,73,489,1017,480
2025-02-20 15:43:56.260,-489.0,800.0,-535.0,287.0,168.0,139.0,141,67,66,95,80,500,1018,499
2025-02-20 15:43:56.279,-483.0,966.0,-643.0,243.0,172.0,96.0,138,71,69,103,87,512,1018,498
2025-02-20 15:43:56.298,-586.0,1177.0,-981.0,174.0,89.0,18.0,137,78,74,112,94,515,1018,488
2025-02-20 15:43:56.316,-684.0,1450.0,-1667.0,160.0,-30.0,-108.0,135,84,78,116,98,537,1018,472
2025-02-20 15:43:56.338,-764.0,1758.0,-2063.0,85.0,-294.0,-339.0,132,92,81,118,105,554,1018,462
2025-02-20 15:43:56.358,-400.0,1650.0,-2142.0,-135.0,-512.0,-611.0,130,102,85,119,114,497,1017,459
2025-02-20 15:43:56.374,1139.0,1189.0,-646.0,-297.0,-619.0,-817.0,131,110,92,123,120,376,1017,465
2025-02-20 15:43:56.395,2988.0,-572.0,2001.0,-483.0,-849.0,-966.0,137,120,98,129,122,447,1017,471
2025-02-20 15:43:56.412,3708.0,-2444.0,-103.0,-550.0,-750.0,-823.0,142,123,102,131,124,549,1017,469
2025-02-20 15:43:56.431,3872.0,-5546.0,-1116.0,-394.0,-559.0,-277.0,142,127,104,132,125,518,1016,467
2025-02-20 15:43:56.449,3224.0,-5691.0,19.0,-207.0,-49.0,121.0,142,126,105,132,125,489,1017,461
2025-02-20 15:43:56.467,1577.0,-2904.0,-230.0,-46.0,157.0,314.0,143,127,106,133,126,485,1018,466
2025-02-20 15:43:56.489,332.0,-1848.0,25.0,220.0,137.0,341.0,144,129,106,133,126,473,1017,450
2025-02-20 15:43:56.509,142.0,-1223.0,-264.0,61.0,17.0,317.0,144,129,105,133,128,478,1017,476
2025-02-20 15:43:56.527,-103.0,-909.0,-171.0,32.0,50.0,305.0,143,128,106,134,127,460,1018,498
2025-02-20 15:43:56.547,-558.0,-1197.0,-395.0,146.0,114.0,305.0,143,128,106,133,128,407,1017,493
2025-02-20 15:43:56.563,34.0,-690.0,-74.0,179.0,60.0,290.0,143,128,106,133,129,388,1016,498
2025-02-20 15:43:56.583,223.0,-736.0,-226.0,313.0,51.0,268.0,142,128,106,133,129,442,1017,500
2025-02-20 15:43:56.604,-365.0,-121.0,-295.0,89.0,5.0,240.0,143,128,106,133,129,474,1018,494
2025-02-20 15:43:56.622,-355.0,-84.0,-134.0,59.0,2.0,226.0,143,128,106,133,130,442,1016,484
2025-02-20 15:43:56.641,-310.0,-174.0,184.0,87.0,-4.0,215.0,143,128,106,133,129,462,1017,478
2025-02-20 15:43:56.660,-444.0,53.0,100.0,26.0,48.0,217.0,142,127,107,134,130,497,1017,479
2025-02-20 15:43:56.678,-604.0,331.0,-163.0,67.0,74.0,187.0,142,126,106,133,129,437,1018,472
2025-02-20 15:43:56.698,-564.0,568.0,-42.0,89.0,73.0,140.0,142,125,106,133,130,423,1017,469
2025-02-20 15:43:56.715,-580.0,679.0,31.0,174.0,62.0,116.0,141,125,105,132,129,396,1017,458
2025-02-20 15:43:56.735,-505.0,1042.0,92.0,232.0,83.0,80.0,140,124,106,133,129,390,1017,451
2025-02-20 15:43:56.756,-914.0,1293.0,-429.0,264.0,41.0,-34.0,139,124,107,133,130,404,1017,440
2025-02-20 15:43:56.768,-1024.0,1587.0,-538.0,264.0,-45.0,-301.0,139,124,106,133,129,396,1017,438
2025-02-20 15:43:56.793,-838.0,1026.0,-779.0,168.0,-118.0,-563.0,138,126,107,133,130,428,1017,446
2025-02-20 15:43:56.812,-709.0,463.0,-484.0,35.0,-564.0,-672.0,133,126,107,133,129,444,1017,457
2025-02-20 15:43:56.830,2594.0,-352.0,541.0,-300.0,-734.0,-666.0,137,127,108,133,129,432,1017,466
2025-02-20 15:43:56.849,3195.0,-3489.0,286.0,-562.0,-743.0,-576.0,141,128,108,133,129,367,1018,478
2025-02-20 15:43:56.870,2627.0,-4734.0,939.0,-264.0,-523.0,-213.0,143,128,109,134,129,206,1017,476
2025-02-20 15:43:56.885,1754.0,-4409.0,1095.0,-200.0,-113.0,84.0,143,128,109,134,129,291,1018,463
2025-02-20 15:43:56.906,1044.0,-2651.0,508.0,4.0,80.0,224.0,144,129,109,137,128,456,1017,460
2025-02-20 15:43:56.926,802.0,-2076.0,500.0,85.0,156.0,218.0,144,130,108,135,128,430,1017,453
2025-02-20 15:43:56.944,327.0,-1629.0,299.0,-4.0,145.0,256.0,145,129,107,134,128,435,1018,447
2025-02-20 15:43:56.964,250.0,-1376.0,25.0,-14.0,158.0,284.0,145,128,106,134,127,493,1016,449
2025-02-20 15:43:56.985,158.0,-1161.0,406.0,116.0,207.0,312.0,144,126,106,132,127,540,1018,452
2025-02-20 15:43:57.001,-46.0,-1114.0,-375.0,146.0,152.0,351.0,144,123,100,130,123,522,1017,449
2025-02-20 15:43:57.021,374.0,-550.0,514.0,17.0,188.0,354.0,144,120,99,128,117,506,1017,457
2025-02-20 15:43:57.037,-58.0,-341.0,183.0,89.0,174.0,366.0,144,117,93,126,111,521,1018,465
2025-02-20 15:43:57.058,-28.0,-214.0,277.0,42.0,170.0,362.0,143,108,87,124,106,520,1017,466
2025-02-20 15:43:57.079,-42.0,-33.0,-42.0,83.0,188.0,383.0,143,100,81,119,100,567,1017,460
2025-02-20 15:43:57.096,-122.0,131.0,164.0,95.0,208.0,394.0,142,89,73,111,90,576,1017,455
2025-02-20 15:43:57.116,-85.0,708.0,-163.0,206.0,183.0,399.0,141,75,66,108,78,569,1018,452
2025-02-20 15:43:57.136,-232.0,1168.0,-457.0,279.0,150.0,315.0,138,64,60,101,65,503,1018,453
2025-02-20 15:43:57.153,-451.0,1833.0,-1100.0,316.0,54.0,122.0,135,60,58,92,59,471,1017,452
2025-02-20 15:43:57.171,-798.0,2934.0,-1246.0,290.0,-19.0,-177.0,134,56,54,83,53,473,1018,445
2025-02-20 15:43:57.193,-589.0,3615.0,-1383.0,223.0,-308.0,-465.0,132,53,51,81,50,471,1016,449
2025-02-20 15:43:57.210,-187.0,3686.0,-1812.0,-17.0,-483.0,-752.0,134,51,49,80,48,505,1017,448
2025-02-20 15:43:57.231,515.0,2036.0,-2271.0,-322.0,-771.0,-984.0,135,49,47,77,49,442,1017,450
2025-02-20 15:43:57.251,3953.0,-418.0,-2134.0,-467.0,-1142.0,-943.0,140,49,47,79,51,442,1017,455
2025-02-20 15:43:57.268,6737.0,-4551.0,785.0,-762.0,-824.0,-343.0,144,50,47,80,52,344,1017,457
2025-02-20 15:43:57.287,4994.0,-6935.0,1466.0,-261.0,-19.0,-155.0,144,46,46,80,52,323,1017,448
2025-02-20 15:43:57.303,2130.0,-4741.0,-491.0,232.0,231.0,62.0,141,48,45,79,50,434,1017,455
2025-02-20 15:43:57.325,666.0,-1627.0,-536.0,-13.0,161.0,159.0,145,51,47,78,50,366,1017,461
2025-02-20 15:43:57.345,288.0,-1660.0,-274.0,-40.0,10.0,187.0,145,51,48,77,51,393,1017,453
2025-02-20 15:43:57.362,433.0,-2312.0,35.0,13.0,64.0,248.0,146,53,50,82,52,448,1019,459
2025-02-20 15:43:57.382,291.0,-1904.0,-77.0,117.0,50.0,280.0,147,52,49,85,53,449,1017,467
2025-02-20 15:43:57.399,391.0,-1094.0,198.0,219.0,109.0,210.0,146,52,49,86,52,413,1017,473
2025-02-20 15:43:57.419,-57.0,-915.0,210.0,149.0,117.0,251.0,147,53,50,82,52,488,1017,478
2025-02-20 15:43:57.437,-305.0,-339.0,33.0,88.0,69.0,282.0,147,52,51,83,52,551,1017,488
2025-02-20 15:43:57.456,-14.0,-418.0,484.0,90.0,75.0,259.0,146,53,51,83,53,560,1017,491
2025-02-20 15:43:57.477,16.0,-251.0,587.0,156.0,158.0,166.0,147,50,51,83,53,575,1017,481
2025-02-20 15:43:57.497,-396.0,-292.0,237.0,155.0,188.0,204.0,147,54,51,84,54,587,1017,475
2025-02-20 15:43:57.513,-700.0,204.0,22.0,99.0,145.0,193.0,147,52,51,85,54,590,1017,469
2025-02-20 15:43:57.534,-665.0,577.0,-39.0,16.0,110.0,154.0,146,53,51,85,54,571,1018,472
2025-02-20 15:43:57.554,-430.0,615.0,245.0,31.0,78.0,84.0,146,53,53,86,55,538,1017,473
2025-02-20 15:43:57.570,-579.0,1015.0,98.0,63.0,123.0,-33.0,146,53,52,86,54,516,1017,466
2025-02-20 15:43:57.591,-914.0,1744.0,-260.0,33.0,85.0,-161.0,145,54,52,87,54,510,1017,437
2025-02-20 15:43:57.611,-1435.0,2308.0,-1097.0,-62.0,-34.0,-310.0,143,54,51,86,54,459,1017,450
2025-02-20 15:43:57.628,-1385.0,2950.0,-1607.0,-160.0,-274.0,-598.0,141,54,51,87,55,437,1017,463
2025-02-20 15:43:57.648,-533.0,3036.0,-2931.0,-462.0,-664.0,-804.0,143,54,51,88,55,475,1016,472
2025-02-20 15:43:57.669,4124.0,-423.0,-1696.0,-858.0,-784.0,-689.0,145,54,52,87,56,391,1017,468
2025-02-20 15:43:57.685,6160.0,-6489.0,205.0,-533.0,-208.0,-375.0,145,54,53,86,57,335,1017,457
2025-02-20 15:43:57.706,4177.0,-6682.0,-1261.0,328.0,423.0,-7.0,140,54,52,89,56,406,1015,457
2025-02-20 15:43:57.723,165.0,-1926.0,-3236.0,195.0,148.0,118.0,137,56,53,89,55,408,1018,482
2025-02-20 15:43:57.740,511.0,-2078.0,-1100.0,-96.0,-127.0,154.0,138,55,52,89,55,498,1017,478
2025-02-20 15:43:57.763,787.0,-2828.0,-358.0,-43.0,-41.0,219.0,141,56,54,90,57,516,1017,464
2025-02-20 15:43:57.780,718.0,-2426.0,-220.0,79.0,28.0,300.0,142,57,55,92,56,539,1017,490
2025-02-20 15:43:57.799,605.0,-1406.0,-274.0,168.0,137.0,311.0,142,58,56,92,58,453,1017,488
2025-02-20 15:43:57.820,146.0,-1181.0,-256.0,263.0,114.0,302.0,141,58,59,88,58,397,1017,492
2025-02-20 15:43:57.837,331.0,-873.0,-198.0,240.0,142.0,310.0,140,59,60,92,58,456,1017,512
2025-02-20 15:43:57.855,492.0,-1096.0,156.0,251.0,196.0,336.0,140,64,63,93,59,529,1017,519
2025-02-20 15:43:57.871,271.0,-797.0,-72.0,300.0,205.0,376.0,140,66,65,94,60,550,1018,515
2025-02-20 15:43:57.892,228.0,-370.0,-140.0,259.0,186.0,404.0,140,74,70,96,59,431,1017,491
2025-02-20 15:43:57.914,90.0,444.0,-223.0,221.0,203.0,408.0,141,82,77,96,60,494,1017,466
2025-02-20 15:43:57.931,-96.0,827.0,-123.0,228.0,193.0,358.0,142,91,84,98,59,518,1017,460
2025-02-20 15:43:57.952,-466.0,835.0,-220.0,233.0,173.0,302.0,142,99,88,98,60,529,1017,472
2025-02-20 15:43:57.972,-435.0,1020.0,-585.0,244.0,152.0,224.0,141,107,90,99,61,511,1017,486
2025-02-20 15:43:57.988,-726.0,1498.0,-747.0,221.0,75.0,101.0,141,111,95,98,61,496,1017,476
2025-02-20 15:43:58.009,-1034.0,2002.0,-1006.0,72.0,-65.0,-90.0,141,114,99,97,61,480,1017,459
2025-02-20 15:43:58.029,-991.0,1889.0,-1034.0,13.0,-181.0,-359.0,139,116,101,97,61,489,1017,445
2025-02-20 15:43:58.046,-762.0,2003.0,-988.0,87.0,-322.0,-618.0,139,118,105,100,61,467,1017,444
2025-02-20 15:43:58.066,-203.0,2124.0,-1439.0,-44.0,-625.0,-887.0,135,121,106,104,61,428,1017,440
2025-02-20 15:43:58.077,2505.0,778.0,-993.0,-318.0,-948.0,-889.0,134,123,107,109,63,382,1017,443
2025-02-20 15:43:58.103,3875.0,-2557.0,237.0,-412.0,-910.0,-617.0,133,125,106,107,64,355,1018,448
2025-02-20 15:43:58.121,4471.0,-4514.0,597.0,-341.0,-440.0,-146.0,132,128,105,107,65,411,1017,458
2025-02-20 15:43:58.140,3776.0,-4426.0,1196.0,36.0,47.0,81.0,132,128,107,105,64,455,1017,468
2025-02-20 15:43:58.159,1765.0,-2928.0,730.0,182.0,301.0,157.0,132,129,106,103,62,459,1018,458
2025-02-20 15:43:58.181,662.0,-1975.0,549.0,80.0,255.0,252.0,133,130,108,102,61,448,1017,447
2025-02-20 15:43:58.198,490.0,-1402.0,407.0,-9.0,171.0,309.0,134,131,107,104,63,489,1017,450
2025-02-20 15:43:58.218,282.0,-1344.0,431.0,-10.0,156.0,298.0,134,131,107,104,62,578,1017,464
2025-02-20 15:43:58.237,-45.0,-1387.0,220.0,81.0,174.0,287.0,133,130,108,103,61,489,1017,469
2025-02-20 15:43:58.255,-117.0,-784.0,185.0,130.0,183.0,288.0,133,130,108,103,61,470,1017,462
2025-02-20 15:43:58.273,21.0,-406.0,312.0,113.0,191.0,294.0,134,130,108,103,61,433,1017,456
2025-02-20 15:43:58.295,-214.0,-427.0,329.0,99.0,198.0,300.0,133,130,108,103,60,422,1017,451
2025-02-20 15:43:58.312,-289.0,-30.0,165.0,99.0,191.0,292.0,134,130,109,99,60,444,1017,445
2025-02-20 15:43:58.332,-474.0,9.0,201.0,114.0,193.0,243.0,133,129,108,101,59,496,1017,458
2025-02-20 15:43:58.349,-580.0,67.0,30.0,106.0,169.0,204.0,133,130,108,101,60,499,1017,473
2025-02-20 15:43:58.369,-448.0,251.0,93.0,70.0,158.0,171.0,134,129,108,100,59,493,1017,478
2025-02-20 15:43:58.389,-623.0,356.0,94.0,14.0,127.0,129.0,133,128,108,99,60,503,1017,494
2025-02-20 15:43:58.407,-704.0,348.0,51.0,-10.0,97.0,98.0,134,128,108,97,59,535,1017,497
2025-02-20 15:43:58.427,-641.0,628.0,-146.0,0.0,75.0,46.0,133,127,108,97,59,525,1017,489
2025-02-20 15:43:58.447,-850.0,1007.0,-694.0,42.0,12.0,-30.0,133,128,109,95,59,495,1017,474
2025-02-20 15:43:58.464,-1314.0,1536.0,-1132.0,165.0,-104.0,-228.0,133,128,108,94,58,499,1016,454
2025-02-20 15:43:58.484,-1599.0,2292.0,-1464.0,173.0,-379.0,-490.0,133,128,110,94,58,448,1017,442
2025-02-20 15:43:58.503,-863.0,2397.0,-1883.0,34.0,-764.0,-752.0,132,128,110,97,60,400,1017,448
2025-02-20 15:43:58.520,3661.0,919.0,-1340.0,-185.0,-1098.0,-814.0,133,129,110,99,64,444,1017,454
2025-02-20 15:43:58.541,4531.0,-3240.0,2320.0,-178.0,-739.0,-498.0,134,130,109,98,66,431,1017,460
2025-02-20 15:43:58.561,4938.0,-4476.0,1823.0,-32.0,-142.0,-2.0,135,130,109,100,67,422,1017,464
2025-02-20 15:43:58.577,2433.0,-3067.0,1792.0,155.0,208.0,93.0,135,129,107,98,65,453,1017,453
2025-02-20 15:43:58.599,702.0,-1516.0,1089.0,56.0,188.0,73.0,137,130,106,96,65,434,1018,450
2025-02-20 15:43:58.615,368.0,-1671.0,897.0,-124.0,75.0,158.0,136,129,106,97,66,391,1017,440
2025-02-20 15:43:58.635,330.0,-1737.0,702.0,-150.0,92.0,214.0,137,130,105,99,66,460,1017,447
2025-02-20 15:43:58.655,391.0,-1473.0,836.0,-131.0,154.0,256.0,137,128,104,101,66,402,1017,470
2025-02-20 15:43:58.672,123.0,-1146.0,617.0,-65.0,199.0,266.0,138,127,102,104,68,352,1017,464
2025-02-20 15:43:58.693,100.0,-1009.0,743.0,-60.0,231.0,270.0,139,122,97,106,69,471,1017,457
2025-02-20 15:43:58.713,61.0,-834.0,551.0,-73.0,212.0,288.0,140,115,88,106,67,497,1017,458
2025-02-20 15:43:58.727,-72.0,-634.0,635.0,-67.0,200.0,298.0,142,104,77,105,61,469,1018,475
2025-02-20 15:43:58.750,131.0,-507.0,489.0,-65.0,206.0,308.0,143,92,69,102,58,515,1017,458
2025-02-20 15:43:58.767,133.0,-609.0,566.0,-75.0,205.0,338.0,143,78,64,102,55,498,1017,454
2025-02-20 15:43:58.787,177.0,-199.0,243.0,-87.0,237.0,368.0,143,73,60,102,58,483,1017,458
2025-02-20 15:43:58.806,-496.0,82.0,-257.0,-60.0,186.0,344.0,143,66,58,100,58,474,1017,462
2025-02-20 15:43:58.824,-740.0,556.0,-682.0,106.0,114.0,215.0,142,62,57,98,55,475,1018,486
2025-02-20 15:43:58.842,-738.0,1351.0,-600.0,119.0,50.0,105.0,141,61,55,97,54,489,1017,486
2025-02-20 15:43:58.865,-777.0,1837.0,-601.0,128.0,-39.0,-55.0,138,58,53,96,53,493,1018,478
2025-02-20 15:43:58.881,-978.0,2161.0,-973.0,118.0,-57.0,-223.0,131,56,51,96,51,480,1017,479
2025-02-20 15:43:58.902,-1126.0,2066.0,-1232.0,110.0,-203.0,-364.0,129,55,49,96,52,448,1017,471
2025-02-20 15:43:58.922,-842.0,2580.0,-1296.0,34.0,-361.0,-572.0,133,55,48,97,53,489,1017,469
2025-02-20 15:43:58.939,89.0,2253.0,-1532.0,-188.0,-616.0,-719.0,140,55,50,98,55,495,1017,471
2025-02-20 15:43:58.959,2562.0,435.0,-923.0,-448.0,-771.0,-702.0,143,55,50,98,55,421,1017,463
2025-02-20 15:43:58.977,4623.0,-2747.0,338.0,-588.0,-497.0,-548.0,143,56,51,99,56,498,1017,460
2025-02-20 15:43:58.996,4539.0,-5456.0,476.0,-240.0,-76.0,-279.0,141,55,51,100,55,428,1017,442
2025-02-20 15:43:59.017,2270.0,-4999.0,-455.0,68.0,127.0,-9.0,140,56,52,100,54,397,1017,439
2025-02-20 15:43:59.034,1209.0,-3199.0,-685.0,72.0,119.0,125.0,143,60,55,101,57,555,1016,450
2025-02-20 15:43:59.053,801.0,-2537.0,-199.0,-15.0,14.0,218.0,143,59,54,98,56,571,1017,460
2025-02-20 15:43:59.073,127.0,-2367.0,-770.0,-91.0,62.0,255.0,146,61,55,102,57,505,1018,472
2025-02-20 15:43:59.091,247.0,-1485.0,94.0,86.0,14.0,264.0,146,61,55,102,57,499,1018,465
2025-02-20 15:43:59.111,481.0,-1467.0,-42.0,202.0,72.0,269.0,146,61,56,103,58,489,1017,484
2025-02-20 15:43:59.128,71.0,-595.0,276.0,212.0,97.0,252.0,145,61,55,101,56,446,1018,472
2025-02-20 15:43:59.147,-297.0,-389.0,143.0,171.0,71.0,232.0,146,61,55,102,58,455,1017,455
2025-02-20 15:43:59.168,-254.0,-380.0,437.0,181.0,77.0,222.0,146,61,58,102,58,433,1018,461
2025-02-20 15:43:59.189,-258.0,-222.0,432.0,186.0,129.0,178.0,146,61,57,101,58,421,1017,465
2025-02-20 15:43:59.205,-388.0,169.0,387.0,172.0,160.0,168.0,145,61,56,101,59,401,1017,473
2025-02-20 15:43:59.225,-430.0,158.0,79.0,135.0,158.0,149.0,145,60,56,100,57,433,1018,471
2025-02-20 15:43:59.242,-607.0,379.0,-124.0,101.0,106.0,115.0,145,61,58,101,60,459,1017,463
2025-02-20 15:43:59.262,-556.0,279.0,137.0,51.0,67.0,86.0,144,61,56,100,57,494,1017,468
2025-02-20 15:43:59.282,-367.0,124.0,244.0,43.0,76.0,53.0,144,61,56,100,57,516,1017,497
2025-02-20 15:43:59.297,-351.0,175.0,169.0,95.0,111.0,35.0,143,61,57,98,57,474,1017,489
2025-02-20 15:43:59.319,-696.0,824.0,-222.0,113.0,117.0,-40.0,142,61,56,99,57,471,1018,471
2025-02-20 15:43:59.340,-1347.0,1638.0,-711.0,56.0,-15.0,-177.0,140,62,56,98,56,433,1018,459
2025-02-20 15:43:59.357,-1450.0,2589.0,-1415.0,-12.0,-168.0,-489.0,139,61,56,99,56,473,1017,453
2025-02-20 15:43:59.375,-1022.0,2448.0,-2068.0,-273.0,-511.0,-699.0,140,61,57,100,57,450,1017,451
2025-02-20 15:43:59.394,2216.0,-338.0,-1247.0,-500.0,-697.0,-707.0,142,61,55,101,58,391,1017,436
2025-02-20 15:43:59.413,4832.0,-3713.0,412.0,-484.0,-501.0,-477.0,143,61,57,101,58,364,1017,434
2025-02-20 15:43:59.434,4408.0,-6377.0,998.0,-125.0,-36.0,-139.0,139,62,57,103,59,357,1017,446
2025-02-20 15:43:59.455,2212.0,-4401.0,-207.0,200.0,225.0,125.0,134,63,56,102,57,415,1017,445
2025-02-20 15:43:59.471,531.0,-2236.0,-441.0,65.0,190.0,226.0,132,63,58,100,57,439,1016,464
2025-02-20 15:43:59.491,596.0,-1709.0,282.0,0.0,127.0,262.0,133,64,58,99,57,511,1017,480
2025-02-20 15:43:59.508,669.0,-2226.0,436.0,31.0,211.0,294.0,130,65,60,101,59,530,1017,488
2025-02-20 15:43:59.529,456.0,-1971.0,8.0,65.0,306.0,351.0,132,63,58,101,58,456,1017,497
2025-02-20 15:43:59.549,150.0,-1214.0,-58.0,116.0,236.0,379.0,129,64,58,101,59,403,1017,511
2025-02-20 15:43:59.566,154.0,-1012.0,113.0,78.0,207.0,415.0,125,63,57,100,58,419,1017,519
2025-02-20 15:43:59.586,73.0,-696.0,71.0,82.0,186.0,426.0,123,62,57,100,57,377,1018,500
2025-02-20 15:43:59.606,-48.0,-723.0,-47.0,122.0,161.0,434.0,117,63,57,100,58,412,1017,487
2025-02-20 15:43:59.624,-299.0,-353.0,-270.0,160.0,153.0,427.0,112,62,56,100,58,466,1018,471
2025-02-20 15:43:59.643,-445.0,257.0,-466.0,174.0,107.0,394.0,108,62,56,98,58,501,1017,453
2025-02-20 15:43:59.661,-372.0,489.0,-433.0,165.0,54.0,351.0,106,62,57,98,57,539,1017,451
2025-02-20 15:43:59.680,-213.0,694.0,-177.0,138.0,24.0,286.0,104,62,57,97,56,533,1017,459
2025-02-20 15:43:59.699,-192.0,850.0,9.0,140.0,48.0,214.0,102,62,57,94,56,517,1017,466
2025-02-20 15:43:59.714,-239.0,1133.0,-138.0,125.0,77.0,136.0,101,60,55,93,55,497,1017,474
2025-02-20 15:43:59.737,-383.0,1287.0,-310.0,116.0,68.0,67.0,101,62,56,93,56,498,1017,474
2025-02-20 15:43:59.758,-421.0,1532.0,-473.0,101.0,49.0,-25.0,101,62,56,93,55,488,1017,470
2025-02-20 15:43:59.775,-340.0,1731.0,-762.0,119.0,14.0,-199.0,100,62,56,94,55,465,1017,473
2025-02-20 15:43:59.794,-622.0,1927.0,-1427.0,79.0,-73.0,-356.0,98,61,55,94,55,504,1017,465
2025-02-20 15:43:59.814,-995.0,1877.0,-2480.0,58.0,-300.0,-610.0,95,59,55,95,54,499,1017,437
2025-02-20 15:43:59.832,-1160.0,1338.0,-3876.0,124.0,-861.0,-768.0,95,57,54,95,54,483,1017,429
2025-02-20 15:43:59.852,2756.0,804.0,-3701.0,94.0,-1407.0,-686.0,97,57,53,96,57,443,1018,440
2025-02-20 15:43:59.872,8487.0,-3795.0,898.0,255.0,-1245.0,-314.0,106,59,54,97,58,390,1016,438
2025-02-20 15:43:59.889,7462.0,-3808.0,5989.0,529.0,-153.0,-33.0,113,60,54,95,59,342,1018,448
2025-02-20 15:43:59.909,2313.0,-949.0,4417.0,187.0,296.0,-104.0,112,61,54,87,57,346,1018,434
2025-02-20 15:43:59.927,757.0,-1463.0,2866.0,-88.0,291.0,105.0,111,61,54,88,55,329,1017,413
2025-02-20 15:43:59.946,811.0,-888.0,2358.0,-247.0,274.0,147.0,111,62,55,93,56,476,1017,427
2025-02-20 15:43:59.964,492.0,-1132.0,1750.0,-216.0,360.0,176.0,114,62,55,97,57,438,1017,444
2025-02-20 15:43:59.984,21.0,-1084.0,869.0,-85.0,393.0,121.0,113,63,56,98,58,383,1018,474
2025-02-20 15:44:00.004,-100.0,-832.0,437.0,1.0,381.0,133.0,109,63,56,96,58,482,1017,479
2025-02-20 15:44:00.024,-408.0,-172.0,40.0,-36.0,323.0,135.0,107,62,56,96,58,516,1018,494
2025-02-20 15:44:00.041,-431.0,-22.0,-48.0,-89.0,243.0,139.0,108,62,57,95,58,545,1017,486
2025-02-20 15:44:00.061,-343.0,-259.0,-20.0,-101.0,218.0,153.0,110,61,58,94,58,468,1018,471
2025-02-20 15:44:00.078,-238.0,71.0,50.0,-44.0,196.0,122.0,111,61,59,96,58,432,1017,481
2025-02-20 15:44:00.098,-418.0,65.0,-94.0,-2.0,207.0,90.0,113,62,59,97,58,423,1017,490
2025-02-20 15:44:00.119,-409.0,208.0,-212.0,-23.0,189.0,92.0,114,61,59,95,59,448,1017,478
2025-02-20 15:44:00.136,-474.0,263.0,-256.0,-57.0,138.0,99.0,117,63,59,92,59,543,1017,481
2025-02-20 15:44:00.156,-461.0,137.0,-373.0,-57.0,113.0,108.0,117,63,59,91,58,588,1017,493
2025-02-20 15:44:00.175,-356.0,176.0,-541.0,69.0,88.0,68.0,117,63,60,91,58,566,1017,493
2025-02-20 15:44:00.193,-540.0,556.0,-1275.0,236.0,58.0,1.0,115,62,60,90,59,510,1016,482
2025-02-20 15:44:00.213,-1402.0,1197.0,-2705.0,289.0,-149.0,-129.0,110,62,59,88,57,489,1017,457
2025-02-20 15:44:00.233,-1761.0,1573.0,-3820.0,370.0,-672.0,-306.0,109,62,58,88,56,513,1018,449
2025-02-20 15:44:00.250,1001.0,1301.0,-2729.0,385.0,-1107.0,-365.0,110,61,57,88,56,527,1018,459
2025-02-20 15:44:00.270,4911.0,-176.0,-29.0,452.0,-1159.0,-213.0,117,60,58,90,59,517,1017,455
2025-02-20 15:44:00.290,5065.0,-633.0,6352.0,464.0,-524.0,5.0,123,61,61,88,60,442,1018,453
2025-02-20 15:44:00.307,3049.0,1237.0,6172.0,-10.0,126.0,-34.0,123,62,60,91,60,395,1018,449
2025-02-20 15:44:00.327,1406.0,-571.0,3809.0,-186.0,279.0,20.0,123,63,60,93,60,324,1017,435
2025-02-20 15:44:00.344,572.0,-473.0,2647.0,-226.0,323.0,70.0,124,63,60,91,60,331,1018,458
2025-02-20 15:44:00.364,322.0,-754.0,1856.0,-297.0,380.0,120.0,127,63,61,93,61,296,1018,458
2025-02-20 15:44:00.382,-43.0,-1059.0,951.0,-240.0,343.0,144.0,129,65,62,96,62,363,1018,452
2025-02-20 15:44:00.400,-368.0,-883.0,739.0,-133.0,276.0,150.0,130,65,62,97,62,537,1016,472
2025-02-20 15:44:00.422,-186.0,-594.0,585.0,-41.0,239.0,123.0,131,65,63,96,63,598,1017,474
2025-02-20 15:44:00.442,-310.0,-273.0,560.0,-25.0,223.0,122.0,130,65,62,94,63,638,1017,487
2025-02-20 15:44:00.459,-267.0,-270.0,564.0,-33.0,216.0,139.0,131,70,61,93,63,605,1016,550
2025-02-20 15:44:00.479,-463.0,-145.0,213.0,-54.0,181.0,151.0,130,77,62,93,63,512,1018,569
2025-02-20 15:44:00.499,-674.0,-141.0,158.0,-14.0,112.0,129.0,130,84,62,93,64,397,1017,542
2025-02-20 15:44:00.516,-408.0,135.0,186.0,8.0,103.0,88.0,129,91,62,91,64,366,1017,498
2025-02-20 15:44:00.536,-595.0,147.0,83.0,14.0,81.0,52.0,128,99,62,91,64,399,1017,469
2025-02-20 15:44:00.551,-525.0,177.0,-34.0,30.0,59.0,37.0,123,103,62,89,62,451,1017,461
2025-02-20 15:44:00.573,-719.0,375.0,-477.0,56.0,-35.0,3.0,113,103,60,90,62,509,1018,445
2025-02-20 15:44:00.594,-851.0,852.0,-918.0,101.0,-155.0,-104.0,101,102,59,89,60,535,1017,437
2025-02-20 15:44:00.611,-744.0,675.0,-1364.0,138.0,-318.0,-175.0,91,103,57,89,57,526,1017,422
2025-02-20 15:44:00.631,-695.0,323.0,-2623.0,227.0,-615.0,-189.0,87,103,55,89,57,511,1017,401
2025-02-20 15:44:00.650,605.0,-197.0,-2652.0,383.0,-899.0,-161.0,87,103,55,89,57,488,1017,416
2025-02-20 15:44:00.667,1477.0,300.0,-623.0,375.0,-883.0,-68.0,90,104,55,91,59,474,1017,407
2025-02-20 15:44:00.688,2041.0,-60.0,2020.0,247.0,-646.0,-39.0,95,107,55,91,60,448,1017,415
2025-02-20 15:44:00.707,2500.0,652.0,2801.0,216.0,-371.0,-38.0,96,107,56,91,60,430,1018,422
2025-02-20 15:44:00.725,2484.0,703.0,3107.0,143.0,-159.0,-33.0,97,107,56,93,60,461,1016,431
2025-02-20 15:44:00.745,2359.0,889.0,3473.0,23.0,-4.0,24.0,97,108,56,95,61,433,1017,434
2025-02-20 15:44:00.762,1723.0,821.0,3303.0,-158.0,177.0,52.0,98,109,57,96,61,415,1017,433
2025-02-20 15:44:00.782,1213.0,364.0,2312.0,-208.0,295.0,56.0,98,108,56,97,61,382,1018,446
2025-02-20 15:44:00.802,870.0,-150.0,1317.0,-147.0,328.0,8.0,97,108,56,98,62,473,1017,440
2025-02-20 15:44:00.819,452.0,-192.0,1222.0,-63.0,311.0,-34.0,98,109,57,98,62,500,1017,450
2025-02-20 15:44:00.837,509.0,49.0,1340.0,-109.0,362.0,-26.0,99,109,57,95,62,480,1018,465
2025-02-20 15:44:00.860,275.0,-343.0,634.0,-130.0,388.0,18.0,99,107,58,95,62,463,1017,470
2025-02-20 15:44:00.877,27.0,-235.0,73.0,-79.0,291.0,64.0,97,104,57,94,62,418,1017,466
2025-02-20 15:44:00.896,-120.0,158.0,355.0,-96.0,198.0,57.0,98,103,58,95,62,544,1017,482
2025-02-20 15:44:00.915,-48.0,139.0,613.0,-141.0,222.0,37.0,103,102,59,95,62,579,1017,496
2025-02-20 15:44:00.934,-82.0,-87.0,449.0,-137.0,267.0,46.0,103,101,60,96,62,484,1017,481
2025-02-20 15:44:00.952,-378.0,-272.0,-17.0,-62.0,246.0,70.0,101,98,60,96,62,456,1017,494
2025-02-20 15:44:00.974,-338.0,102.0,-125.0,-36.0,177.0,68.0,100,97,59,95,63,445,1017,494
2025-02-20 15:44:00.991,-343.0,397.0,126.0,-73.0,127.0,48.0,100,98,60,95,62,422,1017,483
2025-02-20 15:44:01.011,-336.0,224.0,244.0,-95.0,147.0,17.0,102,97,61,95,62,406,1017,479
2025-02-20 15:44:01.028,-644.0,-59.0,-107.0,-51.0,135.0,41.0,101,98,60,95,62,417,1017,469
2025-02-20 15:44:01.048,-689.0,92.0,-558.0,-12.0,76.0,64.0,97,95,61,95,61,444,1018,461
2025-02-20 15:44:01.067,-1278.0,704.0,-1500.0,32.0,-122.0,-24.0,95,94,59,93,59,479,1017,453
2025-02-20 15:44:01.085,-1617.0,662.0,-2825.0,170.0,-513.0,-178.0,91,96,58,92,59,482,1017,428
2025-02-20 15:44:01.103,-21.0,522.0,-3346.0,328.0,-1011.0,-218.0,90,100,56,92,59,467,1017,427
2025-02-20 15:44:01.126,2871.0,162.0,-1310.0,463.0,-1194.0,-106.0,95,104,57,93,60,448,1017,435
2025-02-20 15:44:01.138,3667.0,296.0,2723.0,422.0,-894.0,3.0,104,106,57,93,62,483,1018,439
2025-02-20 15:44:01.163,4117.0,1033.0,4994.0,231.0,-326.0,6.0,109,108,58,92,63,464,1018,448
2025-02-20 15:44:01.183,3399.0,922.0,4732.0,-40.0,72.0,17.0,110,108,59,92,63,414,1017,447
2025-02-20 15:44:01.200,2233.0,825.0,3266.0,-199.0,284.0,43.0,110,108,60,94,63,378,1017,455
2025-02-20 15:44:01.217,1619.0,256.0,2398.0,-307.0,372.0,82.0,111,107,60,95,64,350,1017,456
2025-02-20 15:44:01.240,1124.0,221.0,1888.0,-397.0,469.0,106.0,117,109,62,95,64,391,1017,468
2025-02-20 15:44:01.257,754.0,173.0,1193.0,-477.0,545.0,125.0,122,110,61,98,67,474,1017,479
2025-02-20 15:44:01.277,813.0,-398.0,707.0,-453.0,589.0,185.0,123,110,61,99,67,461,1017,488
2025-02-20 15:44:01.296,668.0,-444.0,284.0,-365.0,585.0,230.0,124,112,63,98,70,430,1017,471
2025-02-20 15:44:01.316,554.0,-413.0,-128.0,-253.0,573.0,252.0,123,111,66,101,75,380,1017,477
2025-02-20 15:44:01.335,-74.0,-512.0,-199.0,-212.0,457.0,292.0,123,109,71,106,84,375,1018,490
2025-02-20 15:44:01.351,-252.0,-160.0,-48.0,-193.0,401.0,311.0,123,110,78,112,94,381,1017,489
2025-02-20 15:44:01.370,-321.0,60.0,-278.0,-185.0,333.0,271.0,123,109,83,116,99,461,1018,481
2025-02-20 15:44:01.392,-567.0,9602.0,4472.0,27.0,378.0,23.0,123,111,86,119,105,494,1017,490
2025-02-20 15:44:01.409,-183.0,54.0,-500.0,44.0,226.0,188.0,122,112,86,120,108,505,1017,496
2025-02-20 15:44:01.429,-647.0,408.0,-755.0,70.0,112.0,114.0,121,112,87,121,112,526,1017,498
2025-02-20 15:44:01.449,-317.0,1338.0,-1063.0,123.0,3.0,30.0,119,114,88,121,115,518,1017,494
2025-02-20 15:44:01.466,-971.0,1306.0,-845.0,125.0,-143.0,-104.0,117,108,89,122,118,491,1017,488
2025-02-20 15:44:01.485,-649.0,1637.0,-1498.0,64.0,-304.0,-315.0,118,113,89,123,122,486,1017,482
2025-02-20 15:44:01.507,-572.0,1957.0,-1084.0,43.0,-466.0,-607.0,119,115,92,128,124,513,1017,480
2025-02-20 15:44:01.524,863.0,1355.0,-685.0,-274.0,-724.0,-854.0,120,119,95,126,127,556,1017,480
2025-02-20 15:44:01.544,1386.0,-446.0,-30.0,-449.0,-862.0,-906.0,121,122,98,128,128,481,1017,471
2025-02-20 15:44:01.563,2433.0,-970.0,-660.0,-517.0,-903.0,-678.0,120,125,101,129,127,380,1017,466
2025-02-20 15:44:01.581,3947.0,-3739.0,268.0,-455.0,-573.0,-289.0,121,128,104,130,128,344,1016,464
2025-02-20 15:44:01.601,3588.0,-5290.0,443.0,-204.0,-128.0,95.0,118,128,105,131,129,359,1018,444
2025-02-20 15:44:01.618,1637.0,-4068.0,-625.0,125.0,-76.0,260.0,120,130,105,132,129,418,1017,452
2025-02-20 15:44:01.638,659.0,-2161.0,-361.0,722.0,311.0,315.0,122,130,106,132,128,501,1018,471
2025-02-20 15:44:01.658,535.0,-1257.0,505.0,86.0,241.0,372.0,122,130,106,133,128,585,1017,480
2025-02-20 15:44:01.673,10.0,-838.0,541.0,142.0,172.0,339.0,123,129,105,133,129,488,1017,482
2025-02-20 15:44:01.695,-115.0,-270.0,273.0,195.0,245.0,301.0,124,130,106,132,130,422,1017,494
2025-02-20 15:44:01.715,-169.0,-757.0,-197.0,122.0,186.0,305.0,123,131,106,132,131,400,1018,489
2025-02-20 15:44:01.733,-111.0,-301.0,93.0,130.0,164.0,310.0,123,130,107,137,132,420,1017,500
2025-02-20 15:44:01.753,-192.0,-45.0,308.0,56.0,201.0,298.0,123,130,104,133,132,462,1017,494
2025-02-20 15:44:01.770,-197.0,333.0,290.0,11.0,117.0,263.0,122,130,105,133,131,453,1017,481
2025-02-20 15:44:01.790,-398.0,174.0,143.0,23.0,114.0,241.0,122,129,106,133,132,463,1017,462
2025-02-20 15:44:01.809,-364.0,219.0,171.0,-1.0,127.0,221.0,121,128,105,132,131,432,1018,440
2025-02-20 15:44:01.827,-565.0,408.0,200.0,80.0,107.0,171.0,121,128,105,132,132,414,1017,445
2025-02-20 15:44:01.847,-441.0,585.0,56.0,15.0,98.0,104.0,121,128,105,132,132,385,1017,459
2025-02-20 15:44:01.867,-675.0,902.0,-92.0,110.0,84.0,21.0,121,126,105,132,132,412,1017,474
2025-02-20 15:44:01.884,-817.0,1201.0,-263.0,200.0,31.0,-107.0,121,125,105,132,131,411,1018,460
2025-02-20 15:44:01.903,-1084.0,1662.0,-894.0,269.0,-67.0,-361.0,122,125,105,131,131,430,1017,445
2025-02-20 15:44:01.925,-1097.0,2080.0,-1643.0,312.0,-358.0,-636.0,123,125,106,132,132,503,1017,439
2025-02-20 15:44:01.939,284.0,997.0,-746.0,145.0,-769.0,-734.0,121,127,104,131,131,566,1017,442
2025-02-20 15:44:01.961,3310.0,-458.0,-53.0,-55.0,-835.0,-635.0,122,130,107,132,131,487,1017,453
2025-02-20 15:44:01.981,3447.0,-3570.0,1274.0,-334.0,-684.0,-422.0,123,130,107,133,132,464,1017,458
2025-02-20 15:44:01.998,3109.0,-4079.0,977.0,-120.0,-181.0,-94.0,125,131,107,133,131,424,1017,449
2025-02-20 15:44:02.019,2298.0,-4082.0,1025.0,-53.0,124.0,148.0,126,131,107,132,129,374,1017,417
2025-02-20 15:44:02.039,-1451.0,-2236.0,1546.0,-167.0,116.0,246.0,128,131,105,133,127,386,1017,416
2025-02-20 15:44:02.056,65.0,-1688.0,870.0,147.0,192.0,214.0,130,130,102,133,124,436,1017,427
2025-02-20 15:44:02.076,16.0,-1550.0,581.0,69.0,191.0,195.0,131,130,98,130,118,455,1018,443
2025-02-20 15:44:02.093,-111.0,-1435.0,479.0,35.0,248.0,257.0,131,130,89,128,112,460,1017,474
2025-02-20 15:44:02.113,109.0,-1169.0,627.0,93.0,226.0,236.0,130,128,80,120,102,519,1017,464
2025-02-20 15:44:02.133,249.0,-905.0,44.0,154.0,225.0,256.0,129,126,73,110,88,483,1017,491
2025-02-20 15:44:02.150,319.0,-1220.0,586.0,190.0,293.0,265.0,129,125,66,106,77,491,1018,481
2025-02-20 15:44:02.169,-46.0,-693.0,563.0,226.0,343.0,278.0,129,121,58,97,65,493,1016,469
2025-02-20 15:44:02.186,-59.0,-81.0,248.0,210.0,345.0,285.0,129,116,55,93,58,530,1017,460
2025-02-20 15:44:02.207,-111.0,158.0,1.0,161.0,330.0,252.0,129,113,54,88,55,582,1017,456
2025-02-20 15:44:02.227,-322.0,130.0,-107.0,106.0,282.0,232.0,128,110,55,84,54,540,1017,473
2025-02-20 15:44:02.244,-580.0,163.0,-202.0,115.0,231.0,207.0,125,107,54,80,53,535,1017,497
2025-02-20 15:44:02.265,-492.0,386.0,-504.0,131.0,182.0,165.0,118,105,53,78,54,544,1017,507
2025-02-20 15:44:02.285,-672.0,501.0,-765.0,164.0,98.0,93.0,112,100,54,76,53,492,1017,496
2025-02-20 15:44:02.302,-1093.0,875.0,-1556.0,155.0,-81.0,-25.0,101,97,52,72,53,455,1017,458
2025-02-20 15:44:02.322,-1552.0,805.0,-2539.0,188.0,-466.0,-194.0,91,98,51,69,52,489,1017,444
2025-02-20 15:44:02.342,-437.0,734.0,-3382.0,309.0,-943.0,-231.0,85,102,50,68,52,522,1018,438
2025-02-20 15:44:02.359,2665.0,694.0,-2730.0,346.0,-1279.0,-138.0,84,105,50,67,54,496,1016,435
2025-02-20 15:44:02.379,3644.0,52.0,-774.0,378.0,-1211.0,-40.0,88,109,51,69,56,549,1017,443
2025-02-20 15:44:02.396,3123.0,221.0,1836.0,389.0,-923.0,4.0,95,111,50,69,58,528,1018,449
2025-02-20 15:44:02.417,3397.0,476.0,3611.0,268.0,-467.0,39.0,103,111,52,72,63,409,1017,455
2025-02-20 15:44:02.436,2743.0,1206.0,4239.0,58.0,-110.0,13.0,105,112,52,74,62,358,1017,431
2025-02-20 15:44:02.453,2352.0,745.0,3458.0,-100.0,180.0,7.0,104,110,52,76,62,433,1017,440
2025-02-20 15:44:02.474,1520.0,408.0,2277.0,-188.0,303.0,17.0,104,108,52,77,64,445,1017,466
2025-02-20 15:44:02.494,994.0,-283.0,1699.0,-193.0,379.0,34.0,104,105,53,80,64,456,1016,476
2025-02-20 15:44:02.511,657.0,-439.0,1131.0,-151.0,414.0,67.0,105,104,53,81,64,466,1017,482
2025-02-20 15:44:02.531,418.0,-254.0,718.0,-108.0,350.0,78.0,100,105,51,80,63,579,1017,474
2025-02-20 15:44:02.550,166.0,9.0,853.0,-93.0,271.0,39.0,101,107,53,81,64,662,1016,488
2025-02-20 15:44:02.568,382.0,-16.0,1206.0,-103.0,318.0,33.0,104,110,53,81,64,665,1017,499
2025-02-20 15:44:02.587,312.0,-48.0,995.0,-129.0,411.0,36.0,107,109,55,83,65,530,1017,482
2025-02-20 15:44:02.605,-141.0,-31.0,369.0,-130.0,411.0,53.0,105,110,54,84,65,402,1017,447
2025-02-20 15:44:02.625,-329.0,-20.0,151.0,-84.0,324.0,52.0,101,109,54,84,63,395,1017,472
2025-02-20 15:44:02.646,-137.0,183.0,250.0,-95.0,282.0,30.0,100,111,55,83,63,386,1016,488
2025-02-20 15:44:02.662,-265.0,142.0,229.0,-130.0,284.0,23.0,103,110,56,82,63,422,1017,498
2025-02-20 15:44:02.682,-391.0,-91.0,-100.0,-103.0,266.0,29.0,103,110,56,83,63,457,1016,498
2025-02-20 15:44:02.702,-597.0,-195.0,-419.0,-30.0,203.0,42.0,101,109,55,83,62,476,1017,486
2025-02-20 15:44:02.720,-702.0,127.0,-445.0,32.0,96.0,30.0,100,108,57,84,63,464,1017,476
2025-02-20 15:44:02.739,-634.0,513.0,-490.0,54.0,30.0,4.0,99,107,57,83,62,455,1017,468
2025-02-20 15:44:02.760,-772.0,844.0,-924.0,42.0,-55.0,-63.0,96,106,57,83,62,471,1017,455
2025-02-20 15:44:02.777,-1828.0,879.0,-2251.0,106.0,-381.0,-201.0,89,99,55,81,57,430,1017,446
2025-02-20 15:44:02.797,-893.0,923.0,-3393.0,227.0,-918.0,-254.0,85,97,54,80,56,444,1017,446
2025-02-20 15:44:02.818,2690.0,552.0,-2154.0,231.0,-1295.0,-145.0,87,101,54,81,58,465,1017,452
2025-02-20 15:44:02.835,3668.0,-542.0,795.0,196.0,-1208.0,-23.0,95,102,53,79,60,531,1017,452
2025-02-20 15:44:02.854,4386.0,-1174.0,3436.0,173.0,-651.0,95.0,103,104,55,80,61,514,1017,451
2025-02-20 15:44:02.872,4190.0,-112.0,4759.0,19.0,-156.0,77.0,107,103,56,79,63,411,1018,424
2025-02-20 15:44:02.891,3129.0,-401.0,3857.0,-143.0,171.0,60.0,107,96,56,81,63,376,1017,425
2025-02-20 15:44:02.912,2006.0,-535.0,2588.0,-241.0,346.0,88.0,106,87,56,83,63,427,1017,441
2025-02-20 15:44:02.929,1479.0,-1014.0,1649.0,-294.0,432.0,144.0,109,83,57,87,64,469,1017,451
2025-02-20 15:44:02.949,637.0,-809.0,823.0,-280.0,471.0,202.0,114,86,59,90,65,477,1017,475
2025-02-20 15:44:02.969,736.0,-803.0,729.0,-269.0,522.0,219.0,118,90,60,91,65,376,1017,490
2025-02-20 15:44:02.986,691.0,-701.0,633.0,-228.0,541.0,206.0,120,96,60,90,64,336,1017,465
2025-02-20 15:44:03.006,566.0,-480.0,523.0,-148.0,520.0,214.0,121,101,64,90,64,347,1018,462
2025-02-20 15:44:03.026,436.0,-249.0,21.0,-135.0,480.0,238.0,122,106,69,91,64,380,1018,483
2025-02-20 15:44:03.043,-104.0,-296.0,-39.0,-98.0,389.0,250.0,123,110,75,93,67,416,1017,499
2025-02-20 15:44:03.063,-189.0,-52.0,-117.0,-88.0,340.0,256.0,123,111,79,93,67,450,1017,504
2025-02-20 15:44:03.081,-343.0,288.0,-246.0,-89.0,311.0,259.0,123,113,82,95,67,455,1017,526
2025-02-20 15:44:03.100,-289.0,99.0,-319.0,-55.0,277.0,242.0,124,115,85,96,69,493,1017,508
2025-02-20 15:44:03.120,-436.0,283.0,-457.0,52.0,226.0,203.0,124,115,87,94,69,512,1017,488
2025-02-20 15:44:03.137,-580.0,607.0,-454.0,106.0,173.0,156.0,125,116,90,93,70,558,1017,489
2025-02-20 15:44:03.157,-576.0,992.0,-634.0,121.0,113.0,82.0,125,117,92,93,68,559,1017,475
2025-02-20 15:44:03.178,-475.0,1388.0,-975.0,119.0,27.0,-15.0,127,120,95,92,68,524,1017,472
2025-02-20 15:44:03.193,-989.0,1628.0,-1330.0,127.0,-104.0,-155.0,128,122,98,91,66,497,1017,471
2025-02-20 15:44:03.212,-1280.0,1646.0,-1447.0,132.0,-325.0,-399.0,128,123,101,92,66,494,1017,485
2025-02-20 15:44:03.235,-1037.0,1845.0,-1435.0,97.0,-579.0,-636.0,126,124,103,94,66,498,1017,480
2025-02-20 15:44:03.252,1031.0,1990.0,-1403.0,-58.0,-910.0,-817.0,123,127,105,97,67,440,1018,477
2025-02-20 15:44:03.271,3396.0,-143.0,-472.0,-369.0,-1121.0,-756.0,122,130,105,101,68,373,1017,468
2025-02-20 15:44:03.290,4754.0,-3850.0,1354.0,-284.0,-815.0,-382.0,121,131,106,101,68,357,1017,465
2025-02-20 15:44:03.309,4133.0,-4444.0,1170.0,3.0,-228.0,27.0,122,132,106,100,68,357,1017,457
2025-02-20 15:44:03.330,2542.0,-3205.0,1644.0,134.0,97.0,120.0,122,132,107,98,67,380,1018,460
2025-02-20 15:44:03.347,895.0,-2180.0,1239.0,146.0,238.0,135.0,122,133,106,99,67,372,1017,463
2025-02-20 15:44:03.367,686.0,-1836.0,784.0,37.0,222.0,198.0,124,133,107,99,68,415,1017,459
2025-02-20 15:44:03.386,429.0,-1382.0,524.0,4.0,218.0,256.0,123,133,107,99,68,542,1017,464
2025-02-20 15:44:03.404,256.0,-1234.0,420.0,47.0,220.0,255.0,122,132,106,97,68,536,1018,491
2025-02-20 15:44:03.424,291.0,-691.0,371.0,73.0,239.0,254.0,122,132,107,96,68,497,1017,493
2025-02-20 15:44:03.444,-143.0,-463.0,324.0,84.0,246.0,246.0,122,132,107,96,68,442,1018,460
2025-02-20 15:44:03.460,-301.0,-200.0,357.0,54.0,222.0,240.0,122,132,107,96,68,353,1018,463
2025-02-20 15:44:03.481,-354.0,0.0,340.0,-23.0,185.0,237.0,123,132,107,97,68,368,1017,469
2025-02-20 15:44:03.501,-450.0,31.0,191.0,-40.0,171.0,235.0,123,132,107,96,68,428,1017,469
2025-02-20 15:44:03.518,-455.0,139.0,283.0,-14.0,176.0,230.0,123,131,107,96,68,426,1017,464
2025-02-20 15:44:03.538,-468.0,277.0,227.0,10.0,190.0,217.0,123,131,107,95,67,409,1017,478
2025-02-20 15:44:03.556,-674.0,534.0,-160.0,-3.0,149.0,152.0,123,131,106,93,65,437,1018,486
2025-02-20 15:44:03.575,-780.0,731.0,-203.0,-21.0,70.0,64.0,124,132,107,91,66,473,1017,493
2025-02-20 15:44:03.595,-755.0,925.0,-339.0,5.0,24.0,-44.0,123,131,107,91,69,455,1017,481
2025-02-20 15:44:03.612,-872.0,1074.0,-453.0,88.0,-34.0,-190.0,123,131,107,92,63,520,1017,474
2025-02-20 15:44:03.633,-1039.0,1502.0,-785.0,145.0,-144.0,-369.0,122,131,108,92,67,502,1017,467
2025-02-20 15:44:03.652,-948.0,1646.0,-680.0,92.0,-316.0,-598.0,119,130,108,93,67,345,1018,452
2025-02-20 15:44:03.670,-98.0,1626.0,-1157.0,-4.0,-634.0,-730.0,117,131,108,96,68,388,1016,449
2025-02-20 15:44:03.690,2558.0,-665.0,-286.0,-229.0,-797.0,-693.0,118,131,108,100,69,371,1017,444
2025-02-20 15:44:03.710,3729.0,-2998.0,929.0,-160.0,-518.0,-428.0,118,133,107,101,70,380,1017,454
2025-02-20 15:44:03.727,3910.0,-4631.0,1166.0,118.0,-187.0,-87.0,119,132,105,100,73,394,1018,450
2025-02-20 15:44:03.745,2338.0,-2857.0,1360.0,204.0,80.0,89.0,121,133,106,100,70,399,1017,440
2025-02-20 15:44:03.768,1020.0,-2112.0,1224.0,88.0,102.0,101.0,122,133,105,99,69,394,1017,444
2025-02-20 15:44:03.784,637.0,-1908.0,1111.0,20.0,134.0,164.0,122,133,104,100,69,422,1018,478
2025-02-20 15:44:03.805,785.0,-1630.0,1109.0,44.0,193.0,203.0,123,134,104,101,70,377,1018,487
2025-02-20 15:44:03.822,339.0,-1400.0,856.0,39.0,254.0,257.0,124,134,99,99,69,414,1017,477
2025-02-20 15:44:03.842,441.0,-1007.0,831.0,79.0,315.0,288.0,126,133,90,100,67,412,1017,444
2025-02-20 15:44:03.862,275.0,-869.0,625.0,136.0,373.0,291.0,128,133,75,102,68,436,1017,437
2025-02-20 15:44:03.879,148.0,-374.0,472.0,134.0,401.0,281.0,129,132,63,104,68,498,1017,436
2025-02-20 15:44:03.895,-250.0,-290.0,252.0,105.0,393.0,289.0,130,130,58,101,67,531,1017,430
2025-02-20 15:44:03.919,-253.0,-30.0,31.0,95.0,373.0,298.0,131,127,54,95,63,529,1018,440
2025-02-20 15:44:03.937,-291.0,95.0,-197.0,111.0,317.0,277.0,130,125,54,94,62,522,1017,462
2025-02-20 15:44:03.956,-244.0,334.0,-498.0,124.0,271.0,247.0,130,122,54,91,61,510,1017,493
2025-02-20 15:44:03.976,-505.0,471.0,-793.0,137.0,190.0,184.0,127,121,54,87,61,562,1017,500
2025-02-20 15:44:03.994,-815.0,833.0,-1460.0,171.0,48.0,104.0,120,119,53,82,60,570,1017,496
2025-02-20 15:44:04.014,-1287.0,918.0,-2106.0,187.0,-247.0,-27.0,109,119,53,78,58,554,1018,481
2025-02-20 15:44:04.033,-1103.0,1095.0,-2609.0,217.0,-614.0,-149.0,97,118,52,77,57,518,1017,468
2025-02-20 15:44:04.051,531.0,950.0,-3052.0,234.0,-1030.0,-189.0,90,117,53,77,57,497,1018,439
2025-02-20 15:44:04.071,3261.0,-101.0,-2061.0,386.0,-1280.0,-87.0,90,117,52,78,60,455,1017,440
2025-02-20 15:44:04.088,3823.0,71.0,201.0,502.0,-1154.0,-25.0,96,116,52,80,61,459,1018,439
2025-02-20 15:44:04.108,3851.0,236.0,2956.0,423.0,-749.0,45.0,105,118,53,75,63,475,1017,443
2025-02-20 15:44:04.127,3430.0,1054.0,4518.0,180.0,-352.0,98.0,110,119,53,77,65,496,1017,445
2025-02-20 15:44:04.145,2653.0,1166.0,4294.0,-65.0,3.0,90.0,110,119,53,78,65,502,1017,428
2025-02-20 15:44:04.165,2077.0,775.0,3052.0,-181.0,276.0,59.0,110,118,53,81,65,471,1017,419
2025-02-20 15:44:04.185,1262.0,310.0,1846.0,-172.0,372.0,-6.0,110,115,55,82,66,348,1018,417
2025-02-20 15:44:04.200,732.0,97.0,1311.0,-147.0,407.0,-34.0,111,111,55,83,66,381,1018,456
2025-02-20 15:44:04.222,628.0,-13.0,1008.0,-144.0,400.0,-34.0,111,107,54,82,66,459,1017,436
2025-02-20 15:44:04.239,469.0,-219.0,935.0,-135.0,382.0,-24.0,110,108,54,83,66,540,1017,438
2025-02-20 15:44:04.259,398.0,-165.0,826.0,-129.0,371.0,5.0,109,111,55,83,66,587,1017,490
2025-02-20 15:44:04.279,189.0,-104.0,613.0,-111.0,346.0,32.0,107,111,55,83,65,561,1017,522
2025-02-20 15:44:04.296,-122.0,-60.0,403.0,-92.0,288.0,28.0,106,108,56,83,66,559,1017,518
2025-02-20 15:44:04.317,-151.0,-74.0,353.0,-86.0,241.0,25.0,106,108,56,83,65,511,1017,489
2025-02-20 15:44:04.337,-364.0,-189.0,283.0,-64.0,200.0,24.0,106,109,56,84,65,484,1017,480
2025-02-20 15:44:04.353,-402.0,-170.0,145.0,-32.0,146.0,35.0,103,109,55,83,64,414,1018,497
2025-02-20 15:44:04.374,-459.0,-47.0,171.0,-15.0,72.0,29.0,103,110,57,84,65,416,1016,520
2025-02-20 15:44:04.391,-424.0,130.0,372.0,-18.0,46.0,13.0,103,110,57,83,65,435,1017,514
2025-02-20 15:44:04.412,-423.0,-22.0,311.0,-22.0,47.0,10.0,102,110,56,84,65,449,1017,500
2025-02-20 15:44:04.429,-563.0,-22.0,95.0,20.0,-7.0,5.0,99,111,57,85,64,432,1017,491
2025-02-20 15:44:04.449,-547.0,233.0,55.0,26.0,-78.0,-7.0,98,110,56,84,64,409,1017,483
2025-02-20 15:44:04.468,-565.0,312.0,-136.0,8.0,-138.0,-36.0,97,110,56,84,64,380,1017,463
2025-02-20 15:44:04.489,-927.0,69.0,-1699.0,101.0,-330.0,-57.0,93,110,54,84,62,406,1017,433
2025-02-20 15:44:04.506,-434.0,431.0,-2965.0,313.0,-826.0,-114.0,92,110,53,84,61,402,1017,433
2025-02-20 15:44:04.526,1549.0,418.0,-1094.0,393.0,-1012.0,-51.0,97,113,55,82,63,403,1017,442
2025-02-20 15:44:04.546,1976.0,157.0,1505.0,290.0,-804.0,33.0,106,115,55,81,64,403,1017,441
2025-02-20 15:44:04.563,2733.0,684.0,3123.0,117.0,-422.0,34.0,113,116,55,81,66,376,1017,424
2025-02-20 15:44:04.583,3144.0,584.0,3359.0,16.0,-129.0,-2.0,116,117,55,81,67,455,1018,418
2025-02-20 15:44:04.603,2848.0,401.0,3142.0,-10.0,102.0,-12.0,118,117,55,83,68,446,1018,436
2025-02-20 15:44:04.618,2141.0,274.0,2717.0,-119.0,225.0,30.0,120,117,56,83,68,304,1018,457
2025-02-20 15:44:04.640,1414.0,-310.0,2192.0,-201.0,339.0,98.0,123,117,57,84,70,375,1019,484
2025-02-20 15:44:04.660,1068.0,-424.0,1648.0,-250.0,417.0,163.0,126,118,60,87,71,402,1016,492
2025-02-20 15:44:04.676,964.0,-421.0,1316.0,-253.0,502.0,204.0,127,117,63,88,75,395,1017,486
2025-02-20 15:44:04.698,833.0,-527.0,1084.0,-243.0,590.0,233.0,128,109,65,93,77,430,1017,502
2025-02-20 15:44:04.714,800.0,-194.0,711.0,-263.0,596.0,290.0,129,85,62,93,79,466,1016,493
2025-02-20 15:44:04.735,964.0,-92.0,1414.0,-237.0,585.0,329.0,130,74,62,96,80,464,1017,476
2025-02-20 15:44:04.755,520.0,-36.0,918.0,-299.0,585.0,331.0,130,69,62,97,81,473,1018,475
2025-02-20 15:44:04.767,-105.0,9.0,332.0,-257.0,543.0,323.0,131,65,62,93,79,509,1017,503
2025-02-20 15:44:04.792,-250.0,292.0,-86.0,-114.0,502.0,242.0,131,59,59,87,72,466,1016,528
2025-02-20 15:44:04.812,-531.0,536.0,-623.0,38.0,406.0,110.0,130,54,56,84,66,503,1018,516
2025-02-20 15:44:04.829,-713.0,985.0,-556.0,42.0,225.0,26.0,128,54,54,81,63,532,1018,503
2025-02-20 15:44:04.850,-573.0,1334.0,-972.0,-8.0,106.0,-44.0,125,53,53,80,62,505,1018,500
2025-02-20 15:44:04.869,-362.0,1355.0,-976.0,31.0,-36.0,-134.0,123,53,53,79,62,487,1016,488
2025-02-20 15:44:04.886,-205.0,1750.0,-978.0,138.0,-87.0,-247.0,119,52,53,80,58,462,1017,452
2025-02-20 15:44:04.906,-518.0,2584.0,-1524.0,181.0,-182.0,-492.0,110,52,53,78,56,427,1017,443
2025-02-20 15:44:04.923,-749.0,3645.0,-2257.0,32.0,-454.0,-764.0,106,51,53,78,56,427,1017,446
2025-02-20 15:44:04.943,702.0,2762.0,-3215.0,-122.0,-931.0,-1000.0,104,50,53,79,56,471,1017,457
2025-02-20 15:44:04.963,5885.0,-1827.0,-2386.0,-58.0,-1256.0,-762.0,108,52,53,82,59,527,1017,474
2025-02-20 15:44:04.981,6999.0,-5556.0,2477.0,183.0,-864.0,-315.0,116,53,53,82,63,519,1017,480
2025-02-20 15:44:05.001,4817.0,-3370.0,3265.0,211.0,44.0,-94.0,116,55,55,82,61,427,1017,469
2025-02-20 15:44:05.021,1955.0,-3816.0,1979.0,192.0,195.0,-55.0,116,56,54,80,58,315,1017,427
2025-02-20 15:44:05.036,959.0,-1592.0,1726.0,58.0,143.0,134.0,118,57,54,80,58,484,1017,430
2025-02-20 15:44:05.059,566.0,-1702.0,1489.0,-77.0,128.0,151.0,120,57,55,84,60,520,1018,447
2025-02-20 15:44:05.078,822.0,-1387.0,1436.0,-55.0,222.0,189.0,123,58,57,86,61,402,1017,469
2025-02-20 15:44:05.096,773.0,-1398.0,1188.0,9.0,334.0,229.0,124,59,58,86,62,404,1018,466
2025-02-20 15:44:05.115,480.0,-1176.0,568.0,37.0,368.0,256.0,123,58,56,86,62,455,1017,464
2025-02-20 15:44:05.132,373.0,-459.0,447.0,-2.0,338.0,276.0,123,58,57,84,61,494,1017,471
2025-02-20 15:44:05.153,277.0,-326.0,694.0,-93.0,321.0,275.0,122,56,58,85,62,537,1017,491
2025-02-20 15:44:05.173,339.0,-373.0,509.0,-134.0,363.0,311.0,123,59,59,87,62,516,1017,500
2025-02-20 15:44:05.189,-119.0,-325.0,43.0,-86.0,362.0,328.0,125,59,60,87,63,526,1017,493
2025-02-20 15:44:05.210,-512.0,-84.0,-149.0,-24.0,281.0,329.0,125,58,59,88,64,531,1017,489
2025-02-20 15:44:05.230,-89.0,37.0,-159.0,39.0,231.0,307.0,124,59,59,88,64,543,1017,498
2025-02-20 15:44:05.247,-216.0,514.0,-470.0,46.0,245.0,307.0,124,58,59,88,65,597,1017,498
2025-02-20 15:44:05.267,-602.0,1195.0,-596.0,100.0,142.0,227.0,124,59,60,86,65,554,1017,484
2025-02-20 15:44:05.284,-585.0,1853.0,-1142.0,291.0,78.0,17.0,122,58,60,85,65,472,1016,461
2025-02-20 15:44:05.305,-1076.0,3145.0,-1968.0,373.0,-70.0,-292.0,119,56,58,81,61,400,1017,447
2025-02-20 15:44:05.324,-1794.0,3830.0,-3326.0,279.0,-538.0,-581.0,117,54,57,79,59,399,1017,447
2025-02-20 15:44:05.343,43.0,2892.0,-3186.0,213.0,-1052.0,-774.0,119,54,57,79,59,479,1018,457
