timestamp,ax,ay,az,gx,gy,gz,flex1,flex2,flex3,flex4,flex5,emg1,emg2,emg3
2025-03-17 18:36:45.221,-494.0,59.0,898.0,10.0,-1.0,1.0,127,89,145,100,117
2025-03-17 18:36:45.221,-496.0,65.0,908.0,5.0,0.0,-1.0,127,90,145,99,116
2025-03-17 18:36:45.236,-495.0,51.0,900.0,3.0,-1.0,-2.0,126,90,144,100,116
2025-03-17 18:36:45.237,-493.0,52.0,907.0,1.0,0.0,-3.0,126,89,143,100,116
2025-03-17 18:36:45.237,-487.0,44.0,910.0,0.0,0.0,-3.0,127,89,145,105,115
2025-03-17 18:36:45.243,-482.0,41.0,919.0,-1.0,0.0,-4.0,127,87,145,100,118
2025-03-17 18:36:45.245,-473.0,36.0,922.0,-2.0,1.0,-4.0,128,87,145,100,116
2025-03-17 18:36:45.248,-475.0,28.0,923.0,-1.0,2.0,-3.0,127,88,144,99,117
2025-03-17 18:36:45.250,-483.0,35.0,916.0,1.0,2.0,-1.0,127,87,144,100,114
2025-03-17 18:36:45.250,-482.0,35.0,908.0,3.0,0.0,0.0,127,87,145,101,114
2025-03-17 18:36:45.262,-493.0,51.0,909.0,3.0,-2.0,1.0,127,88,144,99,115
2025-03-17 18:36:45.281,-486.0,59.0,925.0,2.0,-1.0,1.0,127,88,144,101,115
2025-03-17 18:36:45.297,-492.0,71.0,925.0,2.0,0.0,0.0,127,87,145,101,115
2025-03-17 18:36:45.332,-497.0,72.0,918.0,1.0,2.0,-1.0,128,88,145,100,114
2025-03-17 18:36:45.352,-493.0,60.0,912.0,-1.0,1.0,-2.0,127,88,146,101,116
2025-03-17 18:36:45.378,-497.0,54.0,907.0,-3.0,0.0,-1.0,127,88,144,100,117
2025-03-17 18:36:45.405,-493.0,48.0,901.0,-2.0,0.0,-1.0,128,89,145,101,115
2025-03-17 18:36:45.429,-487.0,53.0,908.0,0.0,1.0,-1.0,127,87,145,100,115
2025-03-17 18:36:45.449,-500.0,60.0,896.0,1.0,2.0,0.0,127,90,144,100,115
2025-03-17 18:36:45.474,-491.0,60.0,901.0,-1.0,1.0,-1.0,127,88,145,101,115
2025-03-17 18:36:45.498,-485.0,52.0,895.0,0.0,1.0,0.0,128,88,144,99,115
2025-03-17 18:36:45.520,-488.0,52.0,895.0,1.0,2.0,0.0,127,87,145,100,115
2025-03-17 18:36:45.549,-496.0,58.0,888.0,1.0,2.0,0.0,128,88,145,101,115
2025-03-17 18:36:45.571,-499.0,69.0,884.0,0.0,1.0,0.0,129,88,146,100,115
2025-03-17 18:36:45.595,-500.0,60.0,876.0,-1.0,1.0,0.0,128,87,145,101,116
2025-03-17 18:36:45.618,-497.0,65.0,883.0,-2.0,1.0,-1.0,128,87,145,100,116
2025-03-17 18:36:45.631,-494.0,64.0,886.0,-3.0,2.0,-1.0,127,87,145,100,115
2025-03-17 18:36:45.668,-500.0,58.0,876.0,-2.0,1.0,-1.0,127,87,144,98,115
2025-03-17 18:36:45.692,-501.0,59.0,875.0,-1.0,0.0,-1.0,127,91,144,100,113
2025-03-17 18:36:45.716,-499.0,58.0,879.0,0.0,-2.0,-1.0,128,89,146,100,116
2025-03-17 18:36:45.734,-503.0,62.0,891.0,0.0,-4.0,0.0,128,88,146,100,115
2025-03-17 18:36:45.765,-503.0,60.0,897.0,-1.0,-3.0,0.0,127,88,145,100,115
2025-03-17 18:36:45.789,-501.0,64.0,914.0,0.0,-3.0,0.0,128,88,145,100,115
2025-03-17 18:36:45.812,-501.0,68.0,911.0,1.0,-2.0,-1.0,128,89,144,100,116
2025-03-17 18:36:45.837,-496.0,68.0,914.0,-1.0,0.0,-1.0,127,87,144,100,115
2025-03-17 18:36:45.861,-499.0,66.0,908.0,-1.0,0.0,-2.0,127,88,145,101,113
2025-03-17 18:36:45.885,-502.0,66.0,913.0,-2.0,2.0,-3.0,127,87,145,101,114
2025-03-17 18:36:45.907,-502.0,56.0,901.0,-1.0,2.0,-2.0,127,87,145,100,115
2025-03-17 18:36:45.934,-497.0,64.0,900.0,-2.0,3.0,-2.0,128,87,144,101,114
2025-03-17 18:36:45.958,-503.0,58.0,888.0,-2.0,3.0,-2.0,128,90,145,101,115
2025-03-17 18:36:45.979,-500.0,64.0,887.0,-2.0,4.0,-2.0,128,90,145,101,115
2025-03-17 18:36:46.004,-507.0,54.0,884.0,0.0,2.0,-2.0,128,91,145,101,115
2025-03-17 18:36:46.029,-509.0,60.0,877.0,-1.0,1.0,-2.0,127,90,144,101,114
2025-03-17 18:36:46.052,-497.0,47.0,882.0,0.0,-1.0,-2.0,127,91,144,100,115
2025-03-17 18:36:46.077,-516.0,57.0,921.0,-1.0,-2.0,-1.0,128,90,145,100,114
2025-03-17 18:36:46.100,-497.0,71.0,893.0,1.0,-1.0,-1.0,127,90,144,101,115
2025-03-17 18:36:46.124,-504.0,60.0,911.0,-1.0,-2.0,-2.0,128,91,145,101,116
2025-03-17 18:36:46.148,-512.0,60.0,895.0,0.0,-2.0,-1.0,126,92,144,101,115
2025-03-17 18:36:46.172,-509.0,59.0,894.0,6.0,-3.0,-1.0,128,88,145,100,115
2025-03-17 18:36:46.197,-510.0,73.0,890.0,3.0,0.0,-2.0,127,90,145,101,116
2025-03-17 18:36:46.222,-506.0,68.0,918.0,4.0,-1.0,-2.0,127,91,144,101,116
2025-03-17 18:36:46.246,-514.0,68.0,904.0,6.0,0.0,-2.0,126,90,145,100,115
2025-03-17 18:36:46.268,-485.0,62.0,869.0,2.0,5.0,-2.0,128,95,145,101,114
2025-03-17 18:36:46.294,-507.0,67.0,867.0,11.0,5.0,0.0,127,85,147,101,115
2025-03-17 18:36:46.316,-504.0,87.0,879.0,9.0,5.0,0.0,127,91,146,101,116
2025-03-17 18:36:46.340,-501.0,94.0,886.0,10.0,6.0,0.0,128,92,146,103,117
2025-03-17 18:36:46.365,-513.0,80.0,860.0,5.0,9.0,0.0,129,93,147,103,118
2025-03-17 18:36:46.389,-507.0,98.0,861.0,5.0,4.0,-2.0,128,93,147,101,117
2025-03-17 18:36:46.414,-528.0,86.0,875.0,0.0,1.0,-3.0,128,93,147,102,118
2025-03-17 18:36:46.438,-518.0,87.0,851.0,0.0,0.0,-2.0,128,92,147,102,115
2025-03-17 18:36:46.462,-527.0,85.0,851.0,-1.0,0.0,-1.0,128,91,146,101,115
2025-03-17 18:36:46.483,-532.0,97.0,855.0,2.0,-2.0,-1.0,124,91,149,99,114
2025-03-17 18:36:46.508,-532.0,112.0,857.0,3.0,-4.0,-2.0,128,91,147,101,115
2025-03-17 18:36:46.532,-536.0,111.0,873.0,0.0,-6.0,-4.0,126,92,148,102,116
2025-03-17 18:36:46.554,-518.0,99.0,882.0,0.0,-7.0,-5.0,129,93,146,103,115
2025-03-17 18:36:46.581,-520.0,104.0,911.0,1.0,-4.0,-6.0,128,92,147,103,116
2025-03-17 18:36:46.604,-516.0,95.0,902.0,4.0,-6.0,-6.0,129,95,149,104,119
2025-03-17 18:36:46.627,-513.0,82.0,902.0,0.0,-5.0,-5.0,132,96,148,105,119
2025-03-17 18:36:46.653,-518.0,85.0,906.0,0.0,-6.0,-5.0,129,94,148,102,117
2025-03-17 18:36:46.677,-512.0,95.0,911.0,0.0,-7.0,-5.0,129,95,148,107,118
2025-03-17 18:36:46.700,-512.0,80.0,921.0,-1.0,-4.0,-6.0,131,95,148,105,116
2025-03-17 18:36:46.725,-493.0,88.0,921.0,2.0,-2.0,-5.0,130,93,148,103,116
2025-03-17 18:36:46.750,-514.0,89.0,886.0,1.0,-3.0,-5.0,131,95,149,104,121
2025-03-17 18:36:46.774,-512.0,87.0,906.0,2.0,-3.0,-4.0,132,97,151,105,120
2025-03-17 18:36:46.795,-503.0,91.0,927.0,2.0,-1.0,-4.0,130,96,150,106,119
2025-03-17 18:36:46.823,-515.0,85.0,897.0,2.0,-1.0,-4.0,131,95,150,104,119
2025-03-17 18:36:46.844,-508.0,91.0,896.0,2.0,0.0,-4.0,130,95,148,105,118
2025-03-17 18:36:46.869,-508.0,94.0,895.0,2.0,-1.0,-4.0,126,92,147,102,115
2025-03-17 18:36:46.893,-500.0,77.0,894.0,0.0,3.0,-3.0,127,92,147,102,115
2025-03-17 18:36:46.918,-516.0,88.0,875.0,3.0,1.0,-4.0,127,92,145,103,116
2025-03-17 18:36:46.942,-514.0,82.0,881.0,-1.0,2.0,-4.0,129,93,148,103,118
2025-03-17 18:36:46.966,-518.0,69.0,867.0,1.0,0.0,-4.0,128,93,148,104,118
2025-03-17 18:36:46.991,-511.0,83.0,877.0,1.0,-1.0,-3.0,129,93,148,102,117
2025-03-17 18:36:47.009,-502.0,77.0,878.0,0.0,3.0,-5.0,128,94,148,104,118
2025-03-17 18:36:47.037,-497.0,74.0,837.0,2.0,2.0,-4.0,129,94,148,103,118
2025-03-17 18:36:47.061,-514.0,82.0,847.0,-1.0,1.0,-5.0,126,91,145,102,115
2025-03-17 18:36:47.085,-503.0,80.0,856.0,-2.0,-3.0,-6.0,128,93,149,102,115
2025-03-17 18:36:47.110,-506.0,88.0,840.0,0.0,-6.0,-5.0,127,92,147,102,115
2025-03-17 18:36:47.134,-509.0,70.0,866.0,2.0,-6.0,-5.0,126,92,146,103,115
2025-03-17 18:36:47.158,-500.0,76.0,881.0,0.0,-5.0,-4.0,129,93,147,102,116
2025-03-17 18:36:47.178,-511.0,78.0,891.0,3.0,-6.0,-3.0,130,94,147,103,117
2025-03-17 18:36:47.204,-497.0,91.0,895.0,3.0,-7.0,-3.0,127,94,147,107,117
2025-03-17 18:36:47.227,-494.0,78.0,904.0,1.0,-7.0,-3.0,130,93,148,100,117
2025-03-17 18:36:47.253,-498.0,83.0,929.0,0.0,-8.0,-1.0,128,94,151,101,118
2025-03-17 18:36:47.277,-505.0,83.0,927.0,2.0,-6.0,0.0,126,91,145,102,116
2025-03-17 18:36:47.302,-503.0,95.0,933.0,2.0,-3.0,0.0,127,92,146,101,116
2025-03-17 18:36:47.324,-510.0,89.0,917.0,-1.0,-2.0,0.0,128,92,145,102,115
2025-03-17 18:36:47.348,-505.0,83.0,919.0,0.0,-1.0,0.0,128,93,148,102,117
2025-03-17 18:36:47.372,-503.0,92.0,911.0,-1.0,-1.0,0.0,128,96,147,103,117
2025-03-17 18:36:47.397,-502.0,78.0,907.0,-1.0,0.0,0.0,129,93,149,104,117
2025-03-17 18:36:47.420,-499.0,77.0,905.0,0.0,0.0,1.0,128,94,149,101,117
2025-03-17 18:36:47.446,-499.0,85.0,914.0,2.0,1.0,2.0,129,95,147,105,117
2025-03-17 18:36:47.468,-505.0,93.0,911.0,2.0,1.0,2.0,127,91,146,101,113
2025-03-17 18:36:47.495,-499.0,95.0,905.0,0.0,2.0,0.0,127,92,147,101,116
2025-03-17 18:36:47.516,-497.0,94.0,901.0,0.0,3.0,1.0,128,92,145,101,116
2025-03-17 18:36:47.541,-504.0,97.0,884.0,0.0,3.0,1.0,127,93,146,101,115
2025-03-17 18:36:47.553,-500.0,106.0,878.0,-2.0,2.0,0.0,128,94,147,103,114
2025-03-17 18:36:47.589,-498.0,101.0,871.0,-2.0,2.0,0.0,128,94,148,104,121
2025-03-17 18:36:47.614,-504.0,100.0,865.0,-1.0,0.0,0.0,125,94,148,106,117
2025-03-17 18:36:47.638,-510.0,101.0,869.0,0.0,-2.0,1.0,129,94,148,103,118
2025-03-17 18:36:47.663,-506.0,103.0,890.0,0.0,-1.0,1.0,129,94,149,105,117
2025-03-17 18:36:47.682,-500.0,105.0,892.0,1.0,-1.0,0.0,128,92,144,102,115
2025-03-17 18:36:47.708,-498.0,97.0,902.0,-1.0,1.0,1.0,126,91,146,105,115
2025-03-17 18:36:47.732,-505.0,106.0,897.0,1.0,0.0,0.0,128,92,147,107,115
2025-03-17 18:36:47.757,-502.0,121.0,907.0,-1.0,-1.0,-1.0,127,93,147,103,116
2025-03-17 18:36:47.778,-500.0,109.0,897.0,-1.0,-1.0,-1.0,128,95,145,104,117
2025-03-17 18:36:47.795,-499.0,112.0,913.0,1.0,0.0,-1.0,128,94,148,104,117
2025-03-17 18:36:47.828,-511.0,114.0,904.0,0.0,1.0,-1.0,129,90,143,104,117
2025-03-17 18:36:47.850,-511.0,108.0,883.0,1.0,2.0,0.0,129,93,148,103,118
2025-03-17 18:36:47.875,-521.0,105.0,859.0,1.0,2.0,1.0,132,92,145,98,115
2025-03-17 18:36:47.900,-519.0,117.0,854.0,1.0,-1.0,-1.0,127,92,147,103,115
2025-03-17 18:36:47.925,-516.0,95.0,864.0,2.0,-1.0,-1.0,127,92,145,104,117
2025-03-17 18:36:47.949,-515.0,92.0,884.0,2.0,-3.0,0.0,128,87,145,102,116
2025-03-17 18:36:47.975,-506.0,101.0,901.0,3.0,-2.0,-1.0,129,94,147,104,115
2025-03-17 18:36:47.999,-504.0,97.0,897.0,1.0,-1.0,0.0,128,93,146,105,117
2025-03-17 18:36:48.023,-500.0,104.0,894.0,0.0,-1.0,-1.0,128,94,148,103,117
2025-03-17 18:36:48.046,-497.0,104.0,893.0,-2.0,-1.0,-1.0,131,95,148,103,116
2025-03-17 18:36:48.069,-492.0,89.0,877.0,0.0,-1.0,0.0,129,94,148,103,117
2025-03-17 18:36:48.092,-491.0,107.0,883.0,1.0,-1.0,1.0,127,91,146,102,115
2025-03-17 18:36:48.117,-494.0,116.0,894.0,0.0,-2.0,2.0,125,91,148,103,112
2025-03-17 18:36:48.142,-498.0,119.0,895.0,1.0,-3.0,1.0,129,92,146,103,115
2025-03-17 18:36:48.167,-502.0,114.0,896.0,2.0,-2.0,2.0,129,92,148,101,115
2025-03-17 18:36:48.190,-500.0,131.0,899.0,3.0,-2.0,2.0,129,93,147,105,117
2025-03-17 18:36:48.212,-500.0,131.0,899.0,1.0,0.0,1.0,129,94,148,104,117
2025-03-17 18:36:48.237,-510.0,129.0,885.0,2.0,0.0,1.0,129,94,148,104,117
2025-03-17 18:36:48.261,-498.0,133.0,885.0,1.0,-1.0,1.0,129,95,148,106,118
2025-03-17 18:36:48.286,-503.0,122.0,884.0,2.0,-2.0,1.0,127,91,146,102,115
2025-03-17 18:36:48.310,-496.0,113.0,889.0,2.0,0.0,2.0,127,92,147,102,117
2025-03-17 18:36:48.334,-501.0,131.0,906.0,4.0,1.0,3.0,127,92,146,101,115
2025-03-17 18:36:48.358,-514.0,144.0,893.0,0.0,2.0,2.0,128,93,148,101,113
2025-03-17 18:36:48.378,-502.0,129.0,882.0,0.0,3.0,3.0,129,94,148,103,115
2025-03-17 18:36:48.403,-511.0,133.0,889.0,-1.0,3.0,2.0,128,94,148,104,117
2025-03-17 18:36:48.429,-517.0,139.0,884.0,-1.0,3.0,1.0,132,94,148,104,118
2025-03-17 18:36:48.454,-515.0,134.0,874.0,2.0,2.0,1.0,131,94,148,101,117
2025-03-17 18:36:48.477,-510.0,144.0,872.0,0.0,1.0,0.0,129,94,144,104,117
2025-03-17 18:36:48.502,-506.0,132.0,867.0,-1.0,1.0,-1.0,127,92,145,101,115
2025-03-17 18:36:48.527,-504.0,130.0,867.0,2.0,0.0,0.0,127,92,146,102,115
2025-03-17 18:36:48.549,-501.0,147.0,869.0,-1.0,-1.0,0.0,127,92,146,102,115
2025-03-17 18:36:48.573,-506.0,137.0,881.0,0.0,-1.0,-1.0,128,93,148,103,116
2025-03-17 18:36:48.597,-509.0,144.0,882.0,-2.0,-1.0,0.0,128,92,147,104,118
2025-03-17 18:36:48.622,-507.0,143.0,877.0,-3.0,-1.0,-1.0,129,94,147,103,117
2025-03-17 18:36:48.646,-513.0,145.0,877.0,-2.0,-1.0,-1.0,129,94,148,105,116
2025-03-17 18:36:48.671,-519.0,155.0,890.0,-3.0,-1.0,-2.0,129,94,148,105,117
2025-03-17 18:36:48.694,-512.0,142.0,898.0,-3.0,0.0,-3.0,128,91,145,102,115
2025-03-17 18:36:48.717,-512.0,127.0,888.0,-3.0,-1.0,-2.0,127,91,147,103,116
2025-03-17 18:36:48.741,-510.0,136.0,894.0,-2.0,-1.0,-2.0,128,93,147,102,114
2025-03-17 18:36:48.765,-515.0,139.0,893.0,-3.0,1.0,-2.0,127,92,147,101,115
2025-03-17 18:36:48.790,-515.0,132.0,916.0,-5.0,3.0,-2.0,128,94,148,107,116
2025-03-17 18:36:48.807,-510.0,137.0,867.0,-4.0,0.0,-3.0,129,94,148,104,116
2025-03-17 18:36:48.839,-506.0,146.0,859.0,-5.0,-2.0,-3.0,129,93,148,104,116
2025-03-17 18:36:48.863,-500.0,126.0,853.0,-3.0,-3.0,-3.0,129,94,152,103,116
2025-03-17 18:36:48.887,-508.0,132.0,860.0,-1.0,-4.0,-3.0,130,92,147,104,118
2025-03-17 18:36:48.909,-507.0,125.0,863.0,-1.0,-5.0,-2.0,127,91,145,103,114
2025-03-17 18:36:48.933,-508.0,129.0,883.0,-3.0,-4.0,-3.0,127,91,146,103,114
2025-03-17 18:36:48.955,-511.0,123.0,875.0,-1.0,-2.0,-4.0,127,91,146,103,113
2025-03-17 18:36:48.977,-514.0,128.0,861.0,1.0,-2.0,-5.0,127,90,146,101,115
2025-03-17 18:36:49.006,-503.0,136.0,879.0,-1.0,-4.0,-8.0,128,92,147,104,116
2025-03-17 18:36:49.031,-490.0,115.0,889.0,-4.0,-5.0,-10.0,129,92,148,106,115
2025-03-17 18:36:49.055,-478.0,114.0,927.0,-9.0,-2.0,-9.0,129,94,147,104,116
2025-03-17 18:36:49.076,-477.0,117.0,937.0,-9.0,0.0,-10.0,128,94,147,104,116
2025-03-17 18:36:49.101,-470.0,125.0,917.0,-8.0,1.0,-12.0,126,93,147,103,114
2025-03-17 18:36:49.125,-473.0,101.0,903.0,-14.0,0.0,-12.0,126,94,146,104,113
2025-03-17 18:36:49.148,-473.0,73.0,911.0,-11.0,-2.0,-8.0,128,94,143,102,114
2025-03-17 18:36:49.174,-468.0,95.0,929.0,-11.0,1.0,-6.0,127,93,147,103,112
2025-03-17 18:36:49.199,-499.0,108.0,907.0,-16.0,8.0,-5.0,128,94,148,104,114
2025-03-17 18:36:49.221,-524.0,74.0,869.0,-14.0,9.0,-3.0,126,93,147,102,113
2025-03-17 18:36:49.244,-535.0,104.0,836.0,-11.0,4.0,-2.0,127,92,147,105,113
2025-03-17 18:36:49.269,-552.0,110.0,834.0,-12.0,-2.0,-4.0,126,90,148,104,117
2025-03-17 18:36:49.293,-551.0,120.0,880.0,-14.0,-9.0,-6.0,128,94,148,105,112
2025-03-17 18:36:49.318,-537.0,140.0,914.0,-31.0,-13.0,-12.0,123,90,145,101,109
2025-03-17 18:36:49.342,-521.0,29.0,929.0,-43.0,-12.0,-14.0,126,90,145,103,110
2025-03-17 18:36:49.366,-524.0,-39.0,926.0,-33.0,-8.0,-7.0,127,90,146,101,110
2025-03-17 18:36:49.391,-526.0,4.0,916.0,-24.0,1.0,-3.0,125,90,147,104,110
2025-03-17 18:36:49.413,-526.0,9.0,887.0,-26.0,6.0,-4.0,128,90,146,103,111
2025-03-17 18:36:49.437,-545.0,-18.0,835.0,-17.0,5.0,-2.0,129,91,148,104,111
2025-03-17 18:36:49.461,-553.0,-9.0,829.0,-18.0,0.0,-2.0,128,91,147,104,112
2025-03-17 18:36:49.486,-528.0,-29.0,852.0,-18.0,-4.0,-3.0,128,90,148,105,113
2025-03-17 18:36:49.510,-546.0,-35.0,870.0,-14.0,-10.0,-2.0,128,90,145,103,112
2025-03-17 18:36:49.534,-520.0,2.0,920.0,-26.0,-12.0,-3.0,127,92,147,104,110
2025-03-17 18:36:49.559,-498.0,-54.0,929.0,-28.0,-11.0,-5.0,127,90,146,103,108
2025-03-17 18:36:49.580,-498.0,-104.0,974.0,-18.0,-6.0,2.0,127,90,146,104,111
2025-03-17 18:36:49.605,-513.0,-49.0,1001.0,-2.0,5.0,8.0,130,93,149,104,114
2025-03-17 18:36:49.629,-539.0,18.0,982.0,-2.0,10.0,5.0,129,92,146,105,115
2025-03-17 18:36:49.654,-539.0,4.0,935.0,-3.0,11.0,6.0,129,90,149,105,116
2025-03-17 18:36:49.678,-535.0,-7.0,954.0,8.0,14.0,9.0,130,83,149,106,116
2025-03-17 18:36:49.702,-550.0,29.0,954.0,21.0,19.0,13.0,130,89,149,106,117
2025-03-17 18:36:49.724,-563.0,46.0,888.0,27.0,19.0,14.0,126,86,146,103,110
2025-03-17 18:36:49.748,-552.0,83.0,869.0,29.0,11.0,10.0,126,83,146,103,113
2025-03-17 18:36:49.773,-549.0,31.0,860.0,3.0,10.0,7.0,128,89,147,103,110
2025-03-17 18:36:49.797,-493.0,5.0,865.0,6.0,-5.0,3.0,128,88,147,103,112
2025-03-17 18:36:49.822,-456.0,-64.0,884.0,22.0,2.0,1.0,128,87,148,104,114
2025-03-17 18:36:49.845,-431.0,-43.0,859.0,31.0,9.0,6.0,130,88,149,106,113
2025-03-17 18:36:49.870,-522.0,-30.0,791.0,25.0,-2.0,11.0,128,88,146,105,114
2025-03-17 18:36:49.895,-435.0,73.0,768.0,24.0,-11.0,7.0,130,90,150,107,113
2025-03-17 18:36:49.917,-411.0,29.0,803.0,10.0,-21.0,-1.0,129,90,147,104,111
2025-03-17 18:36:49.941,-458.0,-13.0,804.0,0.0,-22.0,-7.0,128,89,147,103,111
2025-03-17 18:36:49.959,-435.0,-7.0,935.0,-16.0,-13.0,-9.0,127,89,146,102,110
2025-03-17 18:36:49.990,-463.0,-5.0,940.0,-23.0,-9.0,-18.0,127,91,147,100,111
2025-03-17 18:36:50.014,-466.0,0.0,967.0,-44.0,-6.0,-21.0,130,92,149,104,110
2025-03-17 18:36:50.039,-515.0,-71.0,930.0,-46.0,2.0,-23.0,130,93,149,105,109
2025-03-17 18:36:50.063,-475.0,-1.0,930.0,-62.0,0.0,-24.0,130,91,155,107,108
2025-03-17 18:36:50.087,-520.0,-84.0,834.0,-65.0,-8.0,-20.0,131,92,150,107,107
2025-03-17 18:36:50.106,-534.0,-53.0,864.0,-78.0,-16.0,-20.0,131,88,151,107,104
2025-03-17 18:36:50.134,-518.0,-26.0,866.0,-105.0,-30.0,-24.0,127,87,146,103,98
2025-03-17 18:36:50.158,-502.0,-172.0,899.0,-90.0,-29.0,-23.0,129,86,147,103,95
2025-03-17 18:36:50.182,-490.0,-220.0,934.0,-52.0,-22.0,-8.0,129,87,148,105,94
2025-03-17 18:36:50.207,-455.0,-156.0,946.0,-40.0,-8.0,-3.0,129,85,149,105,96
2025-03-17 18:36:50.231,-480.0,-209.0,929.0,-30.0,5.0,-4.0,131,86,149,105,96
2025-03-17 18:36:50.250,-496.0,-245.0,919.0,-7.0,9.0,0.0,133,87,151,109,94
2025-03-17 18:36:50.275,-452.0,-167.0,884.0,-7.0,16.0,3.0,133,85,151,108,96
2025-03-17 18:36:50.292,-483.0,-221.0,865.0,-12.0,16.0,1.0,132,85,151,109,97
2025-03-17 18:36:50.324,-480.0,-279.0,886.0,-4.0,12.0,2.0,132,86,150,107,95
2025-03-17 18:36:50.348,-492.0,-243.0,889.0,5.0,6.0,4.0,127,82,147,105,95
2025-03-17 18:36:50.374,-472.0,-184.0,880.0,0.0,5.0,1.0,129,82,147,103,92
2025-03-17 18:36:50.397,-494.0,-213.0,866.0,-15.0,-3.0,-3.0,129,82,148,103,91
2025-03-17 18:36:50.421,-485.0,-240.0,848.0,-14.0,-6.0,-4.0,129,85,149,106,96
2025-03-17 18:36:50.445,-463.0,-229.0,850.0,-15.0,-6.0,-6.0,130,84,149,105,96
2025-03-17 18:36:50.469,-472.0,-237.0,837.0,-20.0,-7.0,-6.0,130,85,148,107,97
2025-03-17 18:36:50.494,-482.0,-256.0,849.0,-22.0,-10.0,-6.0,129,85,149,106,98
2025-03-17 18:36:50.518,-480.0,-285.0,868.0,-9.0,-12.0,-4.0,130,82,149,106,96
2025-03-17 18:36:50.543,-474.0,-259.0,901.0,-3.0,-9.0,-2.0,126,82,145,103,93
2025-03-17 18:36:50.567,-460.0,-275.0,906.0,-12.0,-6.0,-4.0,128,84,146,104,94
2025-03-17 18:36:50.591,-453.0,-295.0,913.0,-11.0,-6.0,-2.0,127,85,146,104,94
2025-03-17 18:36:50.612,-467.0,-292.0,907.0,-6.0,-2.0,0.0,128,85,147,103,94
2025-03-17 18:36:50.637,-466.0,-295.0,896.0,-4.0,0.0,2.0,129,86,147,106,96
2025-03-17 18:36:50.661,-469.0,-272.0,878.0,-1.0,1.0,1.0,131,89,149,106,101
2025-03-17 18:36:50.686,-475.0,-261.0,858.0,-2.0,-1.0,1.0,131,87,148,106,98
2025-03-17 18:36:50.710,-470.0,-272.0,856.0,3.0,-4.0,1.0,131,87,149,106,97
2025-03-17 18:36:50.735,-460.0,-238.0,896.0,2.0,-2.0,1.0,131,87,149,106,97
2025-03-17 18:36:50.755,-458.0,-248.0,881.0,3.0,0.0,-1.0,126,84,146,104,96
2025-03-17 18:36:50.780,-455.0,-240.0,859.0,7.0,0.0,-1.0,126,87,146,103,95
2025-03-17 18:36:50.803,-451.0,-239.0,861.0,8.0,-3.0,-2.0,127,84,146,104,96
2025-03-17 18:36:50.830,-448.0,-256.0,880.0,9.0,-2.0,-2.0,128,86,149,105,98
2025-03-17 18:36:50.851,-456.0,-266.0,885.0,15.0,-2.0,0.0,129,86,147,105,99
2025-03-17 18:36:50.867,-448.0,-229.0,873.0,11.0,-4.0,-2.0,129,86,149,106,98
2025-03-17 18:36:50.899,-458.0,-239.0,886.0,8.0,-7.0,-4.0,124,87,148,106,99
2025-03-17 18:36:50.924,-452.0,-253.0,917.0,2.0,-6.0,-4.0,129,86,148,106,100
2025-03-17 18:36:50.948,-439.0,-267.0,930.0,2.0,-1.0,-3.0,127,84,145,102,96
2025-03-17 18:36:50.971,-447.0,-252.0,909.0,5.0,2.0,-1.0,128,85,145,104,100
2025-03-17 18:36:50.996,-468.0,-241.0,900.0,2.0,1.0,-1.0,127,85,146,103,98
2025-03-17 18:36:51.020,-460.0,-247.0,906.0,-4.0,1.0,-2.0,127,85,144,101,98
2025-03-17 18:36:51.046,-462.0,-259.0,900.0,-3.0,2.0,-1.0,128,85,147,104,100
2025-03-17 18:36:51.071,-461.0,-257.0,888.0,-3.0,3.0,-1.0,129,88,149,107,99
2025-03-17 18:36:51.095,-460.0,-250.0,882.0,-4.0,4.0,0.0,129,87,148,104,100
2025-03-17 18:36:51.116,-455.0,-244.0,877.0,-5.0,5.0,-1.0,128,87,146,106,100
2025-03-17 18:36:51.141,-469.0,-248.0,861.0,-3.0,4.0,1.0,132,86,149,104,99
2025-03-17 18:36:51.166,-469.0,-246.0,867.0,-1.0,3.0,1.0,126,85,146,105,97
2025-03-17 18:36:51.190,-465.0,-228.0,869.0,-3.0,1.0,-1.0,127,85,146,97,98
2025-03-17 18:36:51.214,-468.0,-240.0,871.0,-2.0,-1.0,-1.0,127,86,144,104,99
2025-03-17 18:36:51.239,-465.0,-240.0,880.0,-1.0,-1.0,0.0,128,86,147,105,100
2025-03-17 18:36:51.263,-464.0,-231.0,883.0,1.0,-2.0,0.0,129,86,147,105,104
2025-03-17 18:36:51.285,-466.0,-221.0,888.0,0.0,0.0,-1.0,129,87,148,106,100
2025-03-17 18:36:51.309,-469.0,-228.0,890.0,0.0,-1.0,-1.0,129,88,147,105,100
2025-03-17 18:36:51.333,-472.0,-219.0,874.0,0.0,-1.0,-1.0,130,87,147,105,100
2025-03-17 18:36:51.358,-473.0,-221.0,869.0,-2.0,-2.0,-3.0,125,85,145,102,98
2025-03-17 18:36:51.382,-466.0,-231.0,873.0,-2.0,-2.0,-4.0,128,86,146,103,98
2025-03-17 18:36:51.407,-472.0,-239.0,874.0,0.0,-2.0,-3.0,126,86,147,103,98
2025-03-17 18:36:51.431,-475.0,-233.0,880.0,0.0,-3.0,-4.0,127,86,147,103,96
2025-03-17 18:36:51.451,-462.0,-263.0,895.0,-1.0,-3.0,-4.0,128,86,148,103,99
2025-03-17 18:36:51.467,-466.0,-259.0,909.0,1.0,-1.0,-2.0,129,87,148,106,101
2025-03-17 18:36:51.499,-454.0,-253.0,903.0,-1.0,-1.0,-3.0,130,88,148,105,99
2025-03-17 18:36:51.523,-457.0,-261.0,895.0,-3.0,-1.0,-2.0,130,87,148,106,100
2025-03-17 18:36:51.541,-459.0,-257.0,885.0,-2.0,-1.0,-2.0,129,86,147,106,100
2025-03-17 18:36:51.572,-462.0,-263.0,890.0,-1.0,0.0,-2.0,126,85,146,104,98
2025-03-17 18:36:51.599,-470.0,-255.0,878.0,1.0,-1.0,0.0,127,90,146,103,98
2025-03-17 18:36:51.621,-471.0,-236.0,912.0,0.0,-2.0,0.0,128,85,146,103,99
2025-03-17 18:36:51.644,-471.0,-226.0,864.0,-3.0,-3.0,-1.0,127,82,146,106,99
2025-03-17 18:36:51.669,-453.0,-239.0,892.0,-4.0,-2.0,-3.0,127,78,146,105,100
2025-03-17 18:36:51.693,-462.0,-264.0,891.0,3.0,-2.0,0.0,130,77,148,103,100
2025-03-17 18:36:51.709,-466.0,-240.0,894.0,9.0,-2.0,3.0,129,77,148,106,101
2025-03-17 18:36:51.742,-440.0,-209.0,900.0,4.0,2.0,2.0,127,73,146,105,100
2025-03-17 18:36:51.767,-440.0,-250.0,879.0,4.0,-2.0,1.0,123,68,144,102,91
2025-03-17 18:36:51.788,-437.0,-235.0,935.0,1.0,5.0,-2.0,120,65,143,102,90
2025-03-17 18:36:51.812,-469.0,-269.0,879.0,12.0,5.0,5.0,120,63,144,101,89
2025-03-17 18:36:51.825,-469.0,-246.0,873.0,18.0,1.0,7.0,120,64,143,98,94
2025-03-17 18:36:51.861,-470.0,-195.0,848.0,16.0,-2.0,9.0,122,68,145,103,98
2025-03-17 18:36:51.886,-465.0,-181.0,868.0,16.0,-5.0,4.0,122,72,146,104,101
2025-03-17 18:36:51.910,-490.0,-185.0,901.0,20.0,-6.0,3.0,122,76,147,104,102
2025-03-17 18:36:51.934,-475.0,-166.0,902.0,13.0,-6.0,1.0,122,77,146,105,106
2025-03-17 18:36:51.946,-435.0,-152.0,905.0,7.0,-4.0,0.0,124,77,147,105,107
2025-03-17 18:36:51.978,-447.0,-234.0,918.0,18.0,3.0,2.0,123,74,143,103,104
2025-03-17 18:36:52.005,-464.0,-167.0,909.0,22.0,6.0,5.0,122,76,144,102,107
2025-03-17 18:36:52.026,-469.0,-125.0,918.0,10.0,1.0,2.0,123,77,145,102,108
2025-03-17 18:36:52.051,-454.0,-133.0,913.0,-3.0,-2.0,-1.0,123,79,146,103,109
2025-03-17 18:36:52.079,-448.0,-182.0,912.0,-7.0,1.0,-3.0,123,80,147,104,109
2025-03-17 18:36:52.103,-473.0,-189.0,908.0,2.0,2.0,1.0,125,82,147,105,111
2025-03-17 18:36:52.127,-478.0,-159.0,898.0,-2.0,-2.0,0.0,124,88,148,105,110
2025-03-17 18:36:52.148,-457.0,-160.0,901.0,-7.0,-3.0,-1.0,125,82,147,105,111
2025-03-17 18:36:52.173,-455.0,-179.0,912.0,-3.0,1.0,0.0,121,77,145,104,109
2025-03-17 18:36:52.198,-477.0,-168.0,899.0,-1.0,2.0,0.0,124,80,145,105,109
2025-03-17 18:36:52.221,-477.0,-158.0,896.0,-1.0,-1.0,0.0,123,80,145,103,108
2025-03-17 18:36:52.246,-468.0,-162.0,895.0,-3.0,0.0,0.0,122,80,146,105,108
2025-03-17 18:36:52.271,-477.0,-173.0,886.0,0.0,0.0,0.0,125,82,147,105,111
2025-03-17 18:36:52.293,-463.0,-146.0,891.0,0.0,-1.0,-1.0,125,83,146,105,110
2025-03-17 18:36:52.317,-467.0,-158.0,888.0,-4.0,0.0,-3.0,125,83,147,106,111
2025-03-17 18:36:52.341,-469.0,-165.0,881.0,-4.0,-2.0,-2.0,124,82,147,105,111
2025-03-17 18:36:52.366,-465.0,-175.0,887.0,-3.0,-2.0,-2.0,125,82,148,105,109
2025-03-17 18:36:52.390,-467.0,-163.0,890.0,-3.0,-2.0,-1.0,123,80,145,103,109
2025-03-17 18:36:52.414,-470.0,-162.0,870.0,-5.0,-2.0,-1.0,123,84,145,103,108
2025-03-17 18:36:52.438,-475.0,-134.0,849.0,-8.0,-2.0,-3.0,122,81,149,103,108
2025-03-17 18:36:52.463,-501.0,-144.0,841.0,-16.0,-4.0,-6.0,122,82,146,104,109
2025-03-17 18:36:52.484,-502.0,-127.0,861.0,-28.0,-1.0,-9.0,124,82,146,105,105
2025-03-17 18:36:52.509,-466.0,-113.0,916.0,-72.0,2.0,-10.0,126,71,146,105,97
2025-03-17 18:36:52.522,-518.0,-296.0,896.0,-120.0,-19.0,-4.0,127,59,138,104,72
2025-03-17 18:36:52.558,-241.0,-511.0,1490.0,-298.0,39.0,17.0,130,51,130,77,52
2025-03-17 18:36:52.582,296.0,-925.0,2832.0,-255.0,158.0,65.0,126,43,114,67,42
2025-03-17 18:36:52.606,9.0,-1552.0,1482.0,-151.0,247.0,153.0,125,40,104,54,38
2025-03-17 18:36:52.619,-720.0,-1153.0,842.0,-108.0,208.0,224.0,118,38,100,63,36
2025-03-17 18:36:52.652,-454.0,-1097.0,390.0,-92.0,192.0,244.0,113,39,99,65,38
2025-03-17 18:36:52.676,-638.0,-429.0,384.0,-57.0,191.0,253.0,113,39,99,66,40
2025-03-17 18:36:52.700,-571.0,-130.0,160.0,-22.0,159.0,257.0,115,40,99,66,39
2025-03-17 18:36:52.726,-650.0,432.0,108.0,-34.0,141.0,226.0,114,37,99,65,40
2025-03-17 18:36:52.750,-698.0,686.0,-3.0,-36.0,125.0,156.0,114,41,100,64,39
2025-03-17 18:36:52.773,-750.0,619.0,-73.0,-21.0,133.0,116.0,114,43,101,66,39
2025-03-17 18:36:52.799,-793.0,541.0,-82.0,-4.0,102.0,100.0,113,40,98,66,38
2025-03-17 18:36:52.821,-687.0,652.0,-21.0,18.0,98.0,80.0,113,41,99,67,38
2025-03-17 18:36:52.845,-657.0,867.0,-165.0,17.0,87.0,47.0,114,42,101,66,39
2025-03-17 18:36:52.870,-705.0,1348.0,-674.0,54.0,39.0,15.0,115,42,102,68,40
2025-03-17 18:36:52.894,-521.0,2788.0,-1511.0,63.0,-73.0,-138.0,117,44,102,67,40
2025-03-17 18:36:52.918,-245.0,4626.0,-2390.0,-107.0,-256.0,-625.0,115,44,102,69,41
2025-03-17 18:36:52.943,660.0,4325.0,-3377.0,-309.0,-588.0,-1240.0,108,39,101,64,37
2025-03-17 18:36:52.967,6226.0,-1.0,-151.0,-180.0,-948.0,-1371.0,127,56,113,78,55
2025-03-17 18:36:52.992,8430.0,-6827.0,2339.0,-314.0,-160.0,-197.0,118,54,110,72,47
2025-03-17 18:36:53.013,2514.0,-4673.0,419.0,258.0,144.0,96.0,115,51,108,71,47
2025-03-17 18:36:53.037,623.0,-2105.0,1346.0,-60.0,17.0,168.0,129,51,120,82,58
2025-03-17 18:36:53.062,340.0,-2185.0,1353.0,-90.0,98.0,267.0,126,61,119,81,55
2025-03-17 18:36:53.086,-448.0,-1469.0,632.0,-69.0,127.0,356.0,148,83,140,102,80
2025-03-17 18:36:53.111,-324.0,-191.0,496.0,9.0,140.0,339.0,151,83,142,104,83
2025-03-17 18:36:53.135,-567.0,50.0,47.0,-41.0,153.0,255.0,164,98,156,118,98
2025-03-17 18:36:53.159,-525.0,-238.0,-189.0,-37.0,150.0,188.0,167,97,156,117,95
2025-03-17 18:36:53.178,-417.0,-355.0,-39.0,-19.0,53.0,179.0,163,93,155,116,91
2025-03-17 18:36:53.205,-357.0,-320.0,139.0,3.0,45.0,190.0,141,67,134,91,67
2025-03-17 18:36:53.226,-287.0,-347.0,212.0,81.0,88.0,230.0,147,71,139,99,73
2025-03-17 18:36:53.254,-625.0,79.0,-17.0,150.0,90.0,292.0,143,71,134,94,69
2025-03-17 18:36:53.279,-471.0,774.0,-117.0,212.0,69.0,307.0,139,64,130,90,64
2025-03-17 18:36:53.303,-374.0,1889.0,-905.0,309.0,52.0,204.0,162,87,152,112,88
2025-03-17 18:36:53.327,-1316.0,3940.0,-1607.0,114.0,-109.0,-218.0,148,71,138,98,74
2025-03-17 18:36:53.351,-456.0,3235.0,-1709.0,-114.0,-347.0,-723.0,144,64,134,96,69
2025-03-17 18:36:53.373,1197.0,1167.0,-1162.0,-149.0,-609.0,-997.0,146,71,135,96,72
2025-03-17 18:36:53.396,5863.0,-1899.0,4134.0,-293.0,-508.0,-638.0,137,64,127,87,61
2025-03-17 18:36:53.422,3068.0,-6747.0,1665.0,-207.0,72.0,-152.0,125,51,117,77,51
2025-03-17 18:36:53.445,1383.0,-4087.0,447.0,60.0,133.0,187.0,122,50,114,76,51
2025-03-17 18:36:53.467,117.0,-2170.0,381.0,-26.0,43.0,275.0,124,44,115,75,50
2025-03-17 18:36:53.491,-11.0,-1422.0,505.0,-4.0,72.0,279.0,133,58,122,84,58
2025-03-17 18:36:53.517,-365.0,-673.0,416.0,8.0,75.0,277.0,136,60,123,83,59
2025-03-17 18:36:53.541,-476.0,-236.0,399.0,-47.0,81.0,250.0,156,76,140,102,77
2025-03-17 18:36:53.566,-758.0,-172.0,148.0,-87.0,36.0,195.0,152,68,133,94,69
2025-03-17 18:36:53.590,-512.0,-224.0,305.0,-71.0,62.0,161.0,159,71,135,96,73
2025-03-17 18:36:53.614,-576.0,-304.0,75.0,-29.0,74.0,161.0,145,50,118,76,53
2025-03-17 18:36:53.639,-574.0,-206.0,51.0,-18.0,47.0,169.0,150,56,123,82,56
2025-03-17 18:36:53.649,-494.0,-114.0,124.0,39.0,47.0,166.0,152,58,124,84,58
2025-03-17 18:36:53.685,-443.0,-234.0,166.0,92.0,68.0,194.0,151,59,123,84,60
2025-03-17 18:36:53.709,-507.0,83.0,60.0,182.0,88.0,239.0,158,65,130,90,67
2025-03-17 18:36:53.734,-647.0,2134.0,-595.0,263.0,60.0,142.0,162,73,135,95,71
2025-03-17 18:36:53.747,-1351.0,4787.0,-1712.0,59.0,-73.0,-331.0,161,67,135,96,70
2025-03-17 18:36:53.783,-965.0,3984.0,-2489.0,-210.0,-356.0,-907.0,163,71,135,97,73
2025-03-17 18:36:53.807,3329.0,2224.0,-1493.0,-537.0,-765.0,-1154.0,162,66,130,92,69
2025-03-17 18:36:53.831,6625.0,-4294.0,1640.0,-458.0,-602.0,-680.0,152,47,118,80,55
2025-03-17 18:36:53.853,3684.0,-7228.0,-736.0,76.0,132.0,-78.0,151,51,116,77,52
2025-03-17 18:36:53.875,1270.0,-2595.0,-595.0,243.0,118.0,143.0,156,57,121,83,59
2025-03-17 18:36:53.892,335.0,-2087.0,93.0,77.0,90.0,170.0,157,61,124,86,63
2025-03-17 18:36:53.926,346.0,-1669.0,486.0,91.0,79.0,244.0,163,66,129,91,67
2025-03-17 18:36:53.950,-30.0,-1259.0,194.0,87.0,119.0,290.0,172,76,137,101,77
2025-03-17 18:36:53.971,14.0,-505.0,581.0,47.0,107.0,269.0,177,85,147,110,85
2025-03-17 18:36:53.988,-161.0,-455.0,334.0,46.0,129.0,236.0,163,68,133,96,71
2025-03-17 18:36:54.021,-91.0,-770.0,264.0,63.0,148.0,248.0,151,50,120,81,56
2025-03-17 18:36:54.046,-451.0,-698.0,191.0,11.0,130.0,325.0,152,53,116,83,56
2025-03-17 18:36:54.069,18.0,-314.0,295.0,179.0,156.0,290.0,152,45,120,85,57
2025-03-17 18:36:54.094,-309.0,-105.0,36.0,138.0,164.0,295.0,155,58,124,85,57
2025-03-17 18:36:54.117,-445.0,180.0,-61.0,160.0,153.0,303.0,157,67,129,91,64
2025-03-17 18:36:54.143,-510.0,606.0,-204.0,192.0,96.0,342.0,154,61,126,89,62
2025-03-17 18:36:54.167,-1176.0,3339.0,-1600.0,284.0,78.0,110.0,149,56,121,85,57
2025-03-17 18:36:54.192,-733.0,5245.0,-3085.0,-58.0,-219.0,-543.0,148,46,122,87,59
2025-03-17 18:36:54.213,1.0,5325.0,-4168.0,-317.0,-722.0,-1262.0,154,64,127,92,63
2025-03-17 18:36:54.237,8257.0,-980.0,-544.0,-747.0,-1055.0,-1172.0,147,38,112,77,50
2025-03-17 18:36:54.261,8366.0,-8686.0,1536.0,-410.0,-81.0,-254.0,162,59,126,92,63
2025-03-17 18:36:54.279,2174.0,-3706.0,-1871.0,325.0,208.0,144.0,178,83,147,112,87
2025-03-17 18:36:54.311,481.0,-1894.0,-131.0,-29.0,28.0,140.0,191,97,157,125,101
2025-03-17 18:36:54.334,279.0,-2112.0,659.0,26.0,87.0,209.0,172,75,144,111,85
2025-03-17 18:36:54.360,-157.0,-1348.0,288.0,89.0,100.0,282.0,182,92,150,115,89
2025-03-17 18:36:54.381,-15.0,-736.0,365.0,66.0,148.0,246.0,176,91,154,117,92
2025-03-17 18:36:54.405,-334.0,-744.0,606.0,41.0,103.0,234.0,188,98,165,125,102
2025-03-17 18:36:54.430,16.0,-924.0,166.0,186.0,158.0,272.0,183,90,160,114,98
2025-03-17 18:36:54.455,61.0,-972.0,479.0,115.0,123.0,303.0,202,122,188,73,136
2025-03-17 18:36:54.479,31.0,-552.0,470.0,183.0,189.0,342.0,176,96,174,66,117
2025-03-17 18:36:54.503,-387.0,-381.0,124.0,118.0,217.0,355.0,168,90,174,124,124
2025-03-17 18:36:54.527,-357.0,199.0,-72.0,201.0,205.0,376.0,180,114,186,142,148
2025-03-17 18:36:54.549,-458.0,1526.0,-501.0,198.0,139.0,310.0,169,102,175,136,143
2025-03-17 18:36:54.573,-1222.0,2461.0,-1463.0,87.0,-24.0,41.0,171,120,185,142,153
2025-03-17 18:36:54.596,-742.0,2886.0,-1613.0,-9.0,-198.0,-364.0,164,103,179,136,145
2025-03-17 18:36:54.622,-528.0,2065.0,-1649.0,-175.0,-328.0,-742.0,153,111,169,124,139
2025-03-17 18:36:54.647,2066.0,1593.0,-319.0,-406.0,-586.0,-941.0,139,97,153,106,124
2025-03-17 18:36:54.671,4479.0,-2906.0,2556.0,-552.0,-681.0,-742.0,148,98,158,110,128
2025-03-17 18:36:54.694,3692.0,-5991.0,506.0,-51.0,-103.0,-194.0,165,97,177,131,146
2025-03-17 18:36:54.720,1903.0,-4068.0,681.0,276.0,184.0,272.0,191,133,203,159,169
2025-03-17 18:36:54.745,41.0,-1280.0,245.0,98.0,149.0,256.0,191,152,200,156,173
2025-03-17 18:36:54.766,-248.0,-1004.0,591.0,-47.0,1.0,136.0,180,135,188,144,159
2025-03-17 18:36:54.791,-119.0,-1567.0,481.0,-27.0,32.0,169.0,173,133,181,136,152
2025-03-17 18:36:54.815,-113.0,-1330.0,429.0,76.0,96.0,233.0,154,113,163,120,133
2025-03-17 18:36:54.840,79.0,-379.0,417.0,103.0,156.0,227.0,159,110,166,123,137
2025-03-17 18:36:54.864,-249.0,-318.0,365.0,53.0,115.0,208.0,168,122,176,133,146
2025-03-17 18:36:54.887,-171.0,-347.0,453.0,58.0,108.0,208.0,171,134,177,134,148
2025-03-17 18:36:54.913,-194.0,-411.0,430.0,92.0,150.0,211.0,169,131,177,133,148
2025-03-17 18:36:54.934,-375.0,-206.0,164.0,77.0,155.0,184.0,169,134,179,136,150
2025-03-17 18:36:54.959,-456.0,-239.0,244.0,56.0,116.0,164.0,169,131,179,135,149
2025-03-17 18:36:54.983,-360.0,-150.0,260.0,82.0,94.0,171.0,149,109,157,113,127
2025-03-17 18:36:55.007,-574.0,165.0,288.0,95.0,113.0,222.0,153,110,160,116,130
2025-03-17 18:36:55.032,-472.0,1248.0,-534.0,129.0,107.0,213.0,154,119,166,122,136
2025-03-17 18:36:55.056,-1015.0,2370.0,-1305.0,152.0,-59.0,-21.0,153,122,168,124,139
2025-03-17 18:36:55.081,-1424.0,3106.0,-2334.0,113.0,-333.0,-534.0,154,126,168,122,143
2025-03-17 18:36:55.105,1808.0,2034.0,-485.0,-224.0,-615.0,-901.0,178,149,190,147,164
2025-03-17 18:36:55.128,4044.0,-3527.0,1670.0,-589.0,-601.0,-737.0,162,127,167,130,146
2025-03-17 18:36:55.155,3491.0,-5551.0,1484.0,-131.0,-177.0,-169.0,191,142,201,160,176
2025-03-17 18:36:55.179,1102.0,-3313.0,654.0,155.0,142.0,189.0,163,93,173,131,146
2025-03-17 18:36:55.188,14.0,-1412.0,740.0,31.0,112.0,185.0,181,147,190,150,165
2025-03-17 18:36:55.228,-220.0,-1473.0,593.0,18.0,59.0,186.0,173,124,182,143,156
2025-03-17 18:36:55.250,-145.0,-1179.0,1035.0,75.0,143.0,230.0,181,138,187,146,158
2025-03-17 18:36:55.267,-328.0,-573.0,731.0,109.0,211.0,248.0,182,127,190,149,157
2025-03-17 18:36:55.298,-248.0,-377.0,456.0,43.0,217.0,217.0,186,127,193,152,158
2025-03-17 18:36:55.323,-360.0,-420.0,196.0,-21.0,127.0,197.0,165,100,172,130,134
2025-03-17 18:36:55.346,-244.0,-359.0,250.0,1.0,91.0,172.0,169,101,174,132,136
2025-03-17 18:36:55.372,-252.0,-435.0,324.0,24.0,122.0,186.0,168,95,174,132,134
2025-03-17 18:36:55.396,-349.0,-383.0,192.0,53.0,168.0,198.0,164,76,165,127,109
2025-03-17 18:36:55.420,-513.0,-154.0,155.0,39.0,163.0,208.0,168,77,163,97,82
2025-03-17 18:36:55.441,-883.0,673.0,33.0,-80.0,93.0,156.0,178,85,166,87,87
2025-03-17 18:36:55.466,-578.0,2300.0,-1201.0,-138.0,-59.0,-76.0,177,82,164,122,85
2025-03-17 18:36:55.491,-711.0,3143.0,-2007.0,31.0,-140.0,-451.0,178,81,155,117,84
2025-03-17 18:36:55.516,-304.0,3343.0,-2744.0,-199.0,-572.0,-753.0,172,70,144,111,74
2025-03-17 18:36:55.540,3236.0,-69.0,-703.0,-269.0,-793.0,-791.0,161,56,126,92,59
2025-03-17 18:36:55.552,5276.0,-4209.0,1872.0,-345.0,-433.0,-479.0,156,51,121,85,51
2025-03-17 18:36:55.589,2848.0,-5941.0,598.0,132.0,96.0,-67.0,149,62,137,102,68
2025-03-17 18:36:55.608,1057.0,-2718.0,342.0,124.0,108.0,96.0,182,82,153,118,87
2025-03-17 18:36:55.632,517.0,-2333.0,779.0,-8.0,62.0,140.0,179,80,151,115,83
2025-03-17 18:36:55.659,514.0,-2023.0,637.0,51.0,122.0,205.0,186,88,156,122,89
2025-03-17 18:36:55.681,88.0,-1317.0,110.0,44.0,119.0,254.0,197,99,171,136,102
2025-03-17 18:36:55.698,-9.0,-689.0,157.0,34.0,105.0,201.0,200,100,170,136,105
2025-03-17 18:36:55.728,11.0,-772.0,363.0,22.0,85.0,202.0,154,51,130,91,55
2025-03-17 18:36:55.756,41.0,-735.0,395.0,67.0,137.0,199.0,163,59,132,100,61
2025-03-17 18:36:55.778,-161.0,-130.0,229.0,54.0,133.0,173.0,165,61,132,101,64
2025-03-17 18:36:55.802,-454.0,-113.0,158.0,-17.0,64.0,123.0,161,60,136,102,66
2025-03-17 18:36:55.826,-310.0,-314.0,441.0,-31.0,68.0,101.0,168,68,142,108,73
2025-03-17 18:36:55.850,-272.0,-551.0,463.0,-9.0,111.0,140.0,177,78,150,117,82
2025-03-17 18:36:55.875,-306.0,-457.0,368.0,20.0,145.0,183.0,176,79,152,119,83
2025-03-17 18:36:55.900,-520.0,-42.0,244.0,12.0,158.0,195.0,172,72,150,118,81
2025-03-17 18:36:55.925,-549.0,392.0,202.0,84.0,148.0,222.0,168,70,148,114,77
2025-03-17 18:36:55.949,-666.0,2001.0,-1365.0,286.0,180.0,194.0,157,65,144,111,73
2025-03-17 18:36:55.970,-1830.0,4482.0,-2089.0,179.0,-90.0,-288.0,144,50,128,95,55
2025-03-17 18:36:55.994,-459.0,4438.0,-2178.0,-158.0,-443.0,-1023.0,149,57,132,98,58
2025-03-17 18:36:56.019,5916.0,97.0,-1270.0,-352.0,-862.0,-1221.0,160,64,138,107,67
2025-03-17 18:36:56.043,7514.0,-9232.0,2009.0,-517.0,-19.0,-286.0,156,58,130,99,59
2025-03-17 18:36:56.068,1737.0,-4242.0,-1386.0,266.0,169.0,196.0,169,73,149,117,82
2025-03-17 18:36:56.092,479.0,-1550.0,-55.0,20.0,36.0,114.0,169,76,148,115,81
2025-03-17 18:36:56.111,-3.0,-1740.0,565.0,33.0,29.0,150.0,184,92,163,132,97
2025-03-17 18:36:56.135,-232.0,-1109.0,130.0,29.0,44.0,201.0,155,58,129,100,62
2025-03-17 18:36:56.163,-19.0,-986.0,229.0,-65.0,24.0,211.0,144,55,128,96,58
2025-03-17 18:36:56.187,321.0,-1034.0,329.0,-31.0,4.0,198.0,154,59,134,105,64
2025-03-17 18:36:56.212,193.0,-1277.0,314.0,125.0,73.0,231.0,153,55,141,105,64
2025-03-17 18:36:56.235,156.0,-1420.0,29.0,209.0,137.0,321.0,156,64,144,105,65
2025-03-17 18:36:56.261,159.0,-992.0,355.0,137.0,177.0,367.0,136,75,160,112,73
2025-03-17 18:36:56.282,218.0,-444.0,283.0,201.0,241.0,401.0,158,80,166,111,73
2025-03-17 18:36:56.306,-146.0,-362.0,-101.0,193.0,241.0,413.0,164,91,172,117,78
2025-03-17 18:36:56.331,-143.0,318.0,-360.0,234.0,220.0,431.0,161,91,166,95,70
2025-03-17 18:36:56.355,-414.0,1969.0,-1084.0,258.0,163.0,382.0,161,102,170,102,74
2025-03-17 18:36:56.379,-1051.0,3828.0,-2277.0,100.0,-87.0,-139.0,157,105,167,86,68
2025-03-17 18:36:56.402,-1189.0,4101.0,-2717.0,-174.0,-453.0,-763.0,155,101,168,75,66
2025-03-17 18:36:56.426,1659.0,2936.0,-2526.0,-158.0,-987.0,-1138.0,150,121,172,85,69
2025-03-17 18:36:56.453,5543.0,-1966.0,1901.0,-201.0,-970.0,-871.0,149,116,177,92,74
2025-03-17 18:36:56.477,5280.0,-5835.0,1072.0,-209.0,-276.0,-80.0,143,118,178,69,76
2025-03-17 18:36:56.499,2257.0,-2212.0,1154.0,233.0,135.0,160.0,128,93,168,79,65
2025-03-17 18:36:56.516,-96.0,-1029.0,1056.0,-66.0,24.0,120.0,124,117,163,88,61
2025-03-17 18:36:56.547,264.0,-1663.0,1150.0,-21.0,57.0,151.0,122,109,159,96,54
2025-03-17 18:36:56.572,175.0,-1152.0,909.0,12.0,134.0,192.0,149,132,181,115,82
2025-03-17 18:36:56.597,-59.0,-920.0,581.0,17.0,151.0,226.0,150,119,185,120,85
2025-03-17 18:36:56.621,-114.0,-739.0,377.0,12.0,121.0,242.0,150,135,186,119,87
2025-03-17 18:36:56.646,33.0,-775.0,647.0,56.0,160.0,244.0,145,138,179,119,80
2025-03-17 18:36:56.666,6.0,-542.0,404.0,76.0,204.0,289.0,144,136,176,118,76
2025-03-17 18:36:56.691,-186.0,-226.0,325.0,58.0,175.0,296.0,126,108,158,99,55
2025-03-17 18:36:56.715,-396.0,27.0,258.0,36.0,139.0,205.0,129,118,159,102,58
2025-03-17 18:36:56.740,-393.0,-229.0,325.0,59.0,146.0,148.0,137,124,165,112,64
2025-03-17 18:36:56.765,-444.0,-43.0,268.0,79.0,155.0,196.0,144,132,171,113,70
2025-03-17 18:36:56.776,-621.0,762.0,-94.0,110.0,162.0,201.0,148,135,174,117,73
2025-03-17 18:36:56.814,-1430.0,2109.0,-1186.0,123.0,31.0,-4.0,152,145,182,124,81
2025-03-17 18:36:56.831,-1866.0,3186.0,-1893.0,20.0,-313.0,-508.0,155,145,185,128,85
2025-03-17 18:36:56.859,1025.0,2539.0,-834.0,-97.0,-698.0,-980.0,159,146,185,128,84
2025-03-17 18:36:56.883,3208.0,-1783.0,-207.0,-5.0,-858.0,-761.0,143,121,171,99,68
2025-03-17 18:36:56.905,5169.0,-4264.0,1939.0,-208.0,-420.0,-104.0,147,125,176,99,77
2025-03-17 18:36:56.929,2679.0,-3091.0,1925.0,162.0,137.0,60.0,148,107,173,107,75
2025-03-17 18:36:56.957,-11.0,-1218.0,1322.0,-24.0,100.0,121.0,154,131,177,111,81
2025-03-17 18:36:56.981,272.0,-1466.0,1320.0,-100.0,70.0,126.0,153,121,176,109,79
2025-03-17 18:36:57.006,235.0,-1332.0,1168.0,-64.0,150.0,181.0,159,130,179,113,85
2025-03-17 18:36:57.027,207.0,-1066.0,829.0,-29.0,197.0,211.0,161,127,179,114,90
2025-03-17 18:36:57.050,-6.0,-717.0,504.0,-65.0,183.0,219.0,174,145,191,126,104
2025-03-17 18:36:57.067,-4.0,-683.0,428.0,-88.0,173.0,247.0,161,126,179,116,89
2025-03-17 18:36:57.100,186.0,-835.0,479.0,-55.0,207.0,316.0,140,109,157,93,65
2025-03-17 18:36:57.123,104.0,-645.0,233.0,7.0,225.0,378.0,146,101,160,96,67
2025-03-17 18:36:57.147,-133.0,-124.0,110.0,29.0,216.0,371.0,155,102,166,95,76
2025-03-17 18:36:57.173,-253.0,-201.0,-49.0,94.0,183.0,359.0,156,94,163,65,83
2025-03-17 18:36:57.195,-283.0,165.0,-115.0,218.0,175.0,353.0,163,87,164,68,87
2025-03-17 18:36:57.219,-536.0,958.0,-443.0,229.0,108.0,299.0,170,80,165,73,94
2025-03-17 18:36:57.244,-644.0,2683.0,-943.0,140.0,17.0,26.0,168,70,155,93,90
2025-03-17 18:36:57.268,-1118.0,4225.0,-1624.0,-44.0,-147.0,-483.0,166,67,149,94,75
2025-03-17 18:36:57.293,-316.0,4154.0,-3183.0,-370.0,-471.0,-970.0,143,51,130,100,55
2025-03-17 18:36:57.318,4025.0,-315.0,-1895.0,-373.0,-778.0,-1112.0,140,43,127,105,56
2025-03-17 18:36:57.342,6167.0,-2743.0,-528.0,-573.0,-766.0,-779.0,168,63,146,125,79
2025-03-17 18:36:57.365,5473.0,-8144.0,1522.0,-35.0,103.0,-85.0,162,60,138,117,71
2025-03-17 18:36:57.391,611.0,-2732.0,-1559.0,349.0,146.0,184.0,172,70,148,126,82
2025-03-17 18:36:57.412,30.0,-1176.0,723.0,-6.0,2.0,74.0,174,83,155,133,90
2025-03-17 18:36:57.436,281.0,-2399.0,551.0,31.0,13.0,143.0,157,55,131,106,62
2025-03-17 18:36:57.461,323.0,-1574.0,208.0,61.0,69.0,210.0,158,58,133,110,65
2025-03-17 18:36:57.485,360.0,-615.0,258.0,62.0,72.0,183.0,162,62,136,113,69
2025-03-17 18:36:57.509,-46.0,-606.0,154.0,36.0,52.0,173.0,161,61,136,113,69
2025-03-17 18:36:57.534,-54.0,-707.0,202.0,62.0,80.0,203.0,161,61,135,110,69
2025-03-17 18:36:57.559,314.0,-331.0,600.0,102.0,96.0,186.0,170,70,142,120,76
2025-03-17 18:36:57.580,-260.0,-242.0,431.0,83.0,111.0,185.0,171,70,142,118,77
2025-03-17 18:36:57.604,-371.0,-383.0,301.0,76.0,123.0,200.0,171,71,143,120,77
2025-03-17 18:36:57.629,-166.0,-62.0,568.0,195.0,166.0,210.0,166,61,137,112,68
2025-03-17 18:36:57.654,-776.0,2354.0,-282.0,236.0,227.0,121.0,154,55,129,103,57
2025-03-17 18:36:57.678,-2448.0,4256.0,-2632.0,37.0,-11.0,-394.0,153,52,129,104,60
2025-03-17 18:36:57.702,-156.0,3487.0,-2532.0,-235.0,-477.0,-875.0,152,54,126,103,57
2025-03-17 18:36:57.727,4950.0,-2201.0,-127.0,-444.0,-684.0,-717.0,168,70,139,116,73
2025-03-17 18:36:57.751,5298.0,-7400.0,1506.0,-111.0,-31.0,-146.0,155,50,129,104,61
2025-03-17 18:36:57.772,1717.0,-3495.0,-840.0,256.0,195.0,123.0,157,52,130,107,62
2025-03-17 18:36:57.797,249.0,-1787.0,328.0,15.0,38.0,105.0,155,66,137,116,73
2025-03-17 18:36:57.820,418.0,-2134.0,875.0,95.0,103.0,161.0,171,71,144,121,81
2025-03-17 18:36:57.837,84.0,-1283.0,255.0,113.0,155.0,209.0,163,64,135,110,69
2025-03-17 18:36:57.868,-4.0,-665.0,152.0,49.0,105.0,193.0,163,65,135,111,70
2025-03-17 18:36:57.893,297.0,-1038.0,421.0,12.0,98.0,220.0,161,63,136,111,71
2025-03-17 18:36:57.916,251.0,-1023.0,384.0,104.0,149.0,250.0,153,49,129,106,65
2025-03-17 18:36:57.940,188.0,-574.0,609.0,64.0,207.0,271.0,158,64,136,112,72
2025-03-17 18:36:57.965,458.0,-670.0,554.0,17.0,242.0,313.0,157,66,138,109,75
2025-03-17 18:36:57.989,-185.0,-505.0,75.0,52.0,228.0,354.0,154,66,138,114,74
2025-03-17 18:36:58.014,-125.0,-364.0,64.0,73.0,198.0,363.0,151,64,136,113,73
2025-03-17 18:36:58.038,-263.0,-61.0,-235.0,184.0,196.0,365.0,140,60,137,113,71
2025-03-17 18:36:58.063,-401.0,1441.0,-1023.0,224.0,139.0,388.0,145,59,132,110,68
2025-03-17 18:36:58.073,-1385.0,5314.0,-2375.0,153.0,-1.0,-250.0,134,49,124,102,56
2025-03-17 18:36:58.109,-910.0,4364.0,-3290.0,-138.0,-363.0,-872.0,123,56,124,103,59
2025-03-17 18:36:58.121,1785.0,2188.0,-3477.0,-189.0,-1000.0,-1186.0,138,72,138,118,76
2025-03-17 18:36:58.157,8663.0,-2455.0,2930.0,-427.0,-720.0,-623.0,127,63,128,106,66
2025-03-17 18:36:58.182,4610.0,-8218.0,1705.0,203.0,175.0,-75.0,121,55,122,102,63
2025-03-17 18:36:58.206,819.0,-1762.0,246.0,95.0,154.0,188.0,120,48,120,97,64
2025-03-17 18:36:58.230,543.0,-2076.0,1354.0,-120.0,160.0,188.0,146,76,147,125,89
2025-03-17 18:36:58.250,-79.0,-1500.0,655.0,-26.0,165.0,222.0,126,60,124,102,64
2025-03-17 18:36:58.276,-380.0,-335.0,-207.0,-22.0,135.0,189.0,127,66,130,105,69
2025-03-17 18:36:58.300,-303.0,-778.0,309.0,-74.0,111.0,198.0,133,66,131,104,69
2025-03-17 18:36:58.324,-375.0,-790.0,-23.0,-89.0,73.0,231.0,128,59,126,97,61
2025-03-17 18:36:58.350,72.0,-477.0,471.0,9.0,102.0,191.0,133,71,136,108,74
2025-03-17 18:36:58.374,-373.0,-359.0,123.0,24.0,137.0,177.0,147,77,143,116,81
2025-03-17 18:36:58.398,-365.0,-485.0,97.0,18.0,137.0,195.0,143,75,146,114,79
2025-03-17 18:36:58.420,-625.0,12.0,-31.0,-3.0,79.0,212.0,145,77,144,117,81
2025-03-17 18:36:58.445,-473.0,-167.0,282.0,14.0,65.0,186.0,143,74,137,112,76
2025-03-17 18:36:58.469,-709.0,525.0,16.0,87.0,117.0,153.0,130,58,126,99,64
2025-03-17 18:36:58.493,-967.0,1233.0,-421.0,67.0,74.0,49.0,127,54,122,94,58
2025-03-17 18:36:58.503,-1208.0,2474.0,-1311.0,172.0,26.0,-210.0,125,51,121,92,55
2025-03-17 18:36:58.540,-1696.0,3972.0,-2795.0,65.0,-353.0,-748.0,128,53,129,100,62
2025-03-17 18:36:58.564,2424.0,3054.0,-2924.0,-193.0,-979.0,-1167.0,128,58,126,100,60
2025-03-17 18:36:58.592,8285.0,-3965.0,3319.0,-212.0,-568.0,-517.0,124,57,123,94,57
2025-03-17 18:36:58.613,4177.0,-6734.0,748.0,362.0,288.0,45.0,132,69,138,110,77
2025-03-17 18:36:58.637,955.0,-1494.0,376.0,85.0,165.0,177.0,133,53,134,106,74
2025-03-17 18:36:58.661,539.0,-2308.0,1279.0,-30.0,138.0,190.0,130,59,124,95,63
2025-03-17 18:36:58.685,32.0,-1501.0,439.0,-10.0,161.0,287.0,128,63,130,100,66
2025-03-17 18:36:58.709,-238.0,-871.0,202.0,-11.0,117.0,251.0,134,61,130,98,66
2025-03-17 18:36:58.735,-123.0,-646.0,308.0,11.0,131.0,206.0,136,62,132,100,66
2025-03-17 18:36:58.759,-152.0,-650.0,220.0,27.0,137.0,228.0,138,59,130,98,66
2025-03-17 18:36:58.784,-268.0,-768.0,-24.0,80.0,137.0,283.0,142,59,132,95,66
2025-03-17 18:36:58.801,-352.0,-566.0,166.0,124.0,147.0,309.0,131,49,123,88,56
2025-03-17 18:36:58.819,-233.0,-398.0,-139.0,264.0,143.0,323.0,136,48,122,87,54
2025-03-17 18:36:58.854,-328.0,138.0,-428.0,392.0,171.0,287.0,137,53,123,87,57
2025-03-17 18:36:58.878,-702.0,703.0,-795.0,392.0,104.0,234.0,137,58,122,86,58
2025-03-17 18:36:58.902,-2370.0,2218.0,-2577.0,313.0,-232.0,-49.0,114,56,115,82,54
2025-03-17 18:36:58.927,-657.0,2518.0,-3886.0,97.0,-943.0,-350.0,103,84,115,85,57
2025-03-17 18:36:58.951,3609.0,-463.0,-2490.0,210.0,-1300.0,-215.0,97,73,119,86,59
2025-03-17 18:36:58.976,3947.0,-186.0,3698.0,519.0,-628.0,-101.0,103,16,118,84,60
2025-03-17 18:36:58.997,2535.0,88.0,3602.0,167.0,-55.0,-89.0,103,98,125,91,68
2025-03-17 18:36:59.021,1375.0,362.0,3142.0,-24.0,-69.0,62.0,105,92,128,99,73
2025-03-17 18:36:59.046,1315.0,375.0,3122.0,-142.0,106.0,60.0,101,100,127,94,67
2025-03-17 18:36:59.068,475.0,264.0,2215.0,-135.0,303.0,2.0,105,96,125,93,68
2025-03-17 18:36:59.095,-53.0,-21.0,960.0,-90.0,262.0,-1.0,117,109,135,105,78
2025-03-17 18:36:59.119,174.0,-78.0,1208.0,-135.0,241.0,40.0,125,114,143,114,87
2025-03-17 18:36:59.141,332.0,-255.0,1082.0,-156.0,310.0,85.0,131,115,143,113,88
2025-03-17 18:36:59.165,-32.0,-282.0,472.0,-66.0,322.0,46.0,127,116,145,116,87
2025-03-17 18:36:59.189,-279.0,39.0,413.0,-11.0,226.0,33.0,122,107,139,107,81
2025-03-17 18:36:59.200,-128.0,99.0,688.0,-111.0,210.0,37.0,103,82,117,85,57
2025-03-17 18:36:59.239,-80.0,-268.0,480.0,-132.0,279.0,82.0,104,79,118,85,57
2025-03-17 18:36:59.263,-590.0,-179.0,-110.0,17.0,214.0,54.0,110,90,123,91,63
2025-03-17 18:36:59.287,-493.0,401.0,287.0,12.0,181.0,37.0,111,87,126,94,66
2025-03-17 18:36:59.309,-484.0,291.0,195.0,-64.0,193.0,40.0,115,92,129,97,69
2025-03-17 18:36:59.334,-866.0,182.0,-579.0,11.0,135.0,39.0,121,102,135,101,73
2025-03-17 18:36:59.358,-1918.0,850.0,-2499.0,157.0,-172.0,-102.0,118,105,136,103,73
2025-03-17 18:36:59.383,-1161.0,1514.0,-4932.0,216.0,-974.0,-287.0,119,103,137,107,77
2025-03-17 18:36:59.406,5235.0,-944.0,-2317.0,264.0,-1467.0,-102.0,104,93,119,89,62
2025-03-17 18:36:59.431,4253.0,1392.0,5639.0,410.0,-384.0,-24.0,110,97,122,87,64
2025-03-17 18:36:59.456,2240.0,147.0,3313.0,96.0,-3.0,-14.0,120,106,141,107,83
2025-03-17 18:36:59.480,1420.0,294.0,3401.0,-117.0,14.0,84.0,125,107,142,114,88
2025-03-17 18:36:59.504,662.0,309.0,2612.0,-188.0,190.0,63.0,116,98,132,103,73
2025-03-17 18:36:59.521,331.0,37.0,1732.0,-159.0,312.0,4.0,122,107,137,106,79
2025-03-17 18:36:59.550,61.0,-253.0,1045.0,-108.0,266.0,20.0,101,86,116,85,56
2025-03-17 18:36:59.575,448.0,-152.0,1452.0,-235.0,331.0,109.0,106,79,120,88,60
2025-03-17 18:36:59.599,725.0,-34.0,1178.0,-306.0,478.0,171.0,107,83,120,86,59
2025-03-17 18:36:59.623,414.0,-20.0,546.0,-280.0,524.0,200.0,119,88,130,96,69
2025-03-17 18:36:59.648,134.0,-102.0,286.0,-217.0,458.0,195.0,147,114,155,120,96
2025-03-17 18:36:59.672,-173.0,-294.0,-209.0,-87.0,415.0,215.0,137,112,149,107,82
2025-03-17 18:36:59.697,-607.0,-104.0,-890.0,171.0,285.0,210.0,141,108,157,110,93
2025-03-17 18:36:59.718,-961.0,134.0,-697.0,141.0,140.0,158.0,146,107,175,91,120
2025-03-17 18:36:59.743,-668.0,426.0,-310.0,84.0,49.0,116.0,129,90,163,24,93
2025-03-17 18:36:59.765,-1016.0,834.0,-933.0,36.0,-51.0,65.0,114,81,155,103,102
2025-03-17 18:36:59.789,-842.0,1870.0,-1624.0,-52.0,-230.0,-214.0,110,95,151,101,115
2025-03-17 18:36:59.816,-631.0,2470.0,-2192.0,-183.0,-413.0,-571.0,115,99,153,104,118
2025-03-17 18:36:59.840,522.0,903.0,-1670.0,-365.0,-605.0,-801.0,123,113,160,113,131
2025-03-17 18:36:59.865,3736.0,-1828.0,6.0,-749.0,-688.0,-829.0,123,104,159,110,130
2025-03-17 18:36:59.887,4248.0,-4260.0,778.0,-219.0,-353.0,-308.0,133,110,166,119,141
2025-03-17 18:36:59.914,2408.0,-4438.0,1250.0,273.0,105.0,169.0,121,95,155,108,124
2025-03-17 18:36:59.936,3.0,-1124.0,964.0,164.0,188.0,205.0,130,109,160,112,130
2025-03-17 18:36:59.960,-174.0,-1183.0,992.0,-99.0,33.0,130.0,133,118,162,115,134
2025-03-17 18:36:59.984,-52.0,-1480.0,1053.0,-37.0,67.0,177.0,134,123,162,117,133
2025-03-17 18:37:00.008,-97.0,-1166.0,708.0,101.0,139.0,253.0,139,130,166,122,137
2025-03-17 18:37:00.032,-177.0,-474.0,-31.0,126.0,161.0,241.0,144,135,173,127,143
2025-03-17 18:37:00.056,-332.0,-281.0,270.0,-34.0,145.0,192.0,138,125,166,120,135
2025-03-17 18:37:00.072,-231.0,-444.0,375.0,-10.0,107.0,169.0,136,126,164,119,136
2025-03-17 18:37:00.103,-303.0,-347.0,412.0,22.0,106.0,179.0,125,115,157,111,126
2025-03-17 18:37:00.128,-375.0,-345.0,520.0,62.0,141.0,178.0,123,116,155,111,126
2025-03-17 18:37:00.152,-324.0,-372.0,291.0,82.0,165.0,195.0,126,119,157,112,126
2025-03-17 18:37:00.177,-162.0,-134.0,305.0,123.0,183.0,215.0,129,123,163,118,131
2025-03-17 18:37:00.201,-301.0,69.0,-174.0,213.0,214.0,257.0,127,120,164,117,130
2025-03-17 18:37:00.226,-468.0,2158.0,-5372.0,142.0,-77.0,247.0,125,122,165,122,133
2025-03-17 18:37:00.250,-1172.0,1966.0,-1999.0,69.0,-181.0,-261.0,127,126,169,122,138
2025-03-17 18:37:00.275,-364.0,2270.0,-1406.0,-34.0,-371.0,-852.0,115,117,157,111,128
2025-03-17 18:37:00.299,1261.0,902.0,286.0,-358.0,-786.0,-1000.0,118,115,155,111,128
2025-03-17 18:37:00.324,4106.0,-3140.0,1214.0,-374.0,-626.0,-788.0,127,107,162,116,132
2025-03-17 18:37:00.348,4487.0,-5422.0,1232.0,-66.0,-223.0,-152.0,134,113,171,126,142
2025-03-17 18:37:00.373,1612.0,-3220.0,1085.0,266.0,223.0,263.0,131,122,165,122,137
2025-03-17 18:37:00.397,-149.0,-1318.0,766.0,57.0,175.0,264.0,149,141,177,134,146
2025-03-17 18:37:00.422,-354.0,-836.0,811.0,24.0,62.0,132.0,148,126,175,134,146
2025-03-17 18:37:00.444,-407.0,-960.0,427.0,-17.0,76.0,95.0,132,119,160,117,130
2025-03-17 18:37:00.468,50.0,-1105.0,646.0,4.0,89.0,153.0,134,114,158,115,127
2025-03-17 18:37:00.492,107.0,-741.0,61.0,43.0,81.0,202.0,133,118,157,113,121
2025-03-17 18:37:00.503,131.0,-1065.0,427.0,117.0,136.0,250.0,138,124,162,119,123
2025-03-17 18:37:00.541,115.0,-775.0,364.0,201.0,174.0,267.0,163,151,187,145,139
2025-03-17 18:37:00.552,-17.0,-593.0,394.0,223.0,193.0,296.0,157,142,180,117,110
2025-03-17 18:37:00.590,-386.0,-259.0,233.0,287.0,145.0,360.0,159,135,165,47,93
2025-03-17 18:37:00.611,44.0,-103.0,658.0,229.0,254.0,333.0,152,133,154,48,86
2025-03-17 18:37:00.636,-181.0,532.0,-689.0,320.0,273.0,287.0,130,100,129,71,62
2025-03-17 18:37:00.660,-2101.0,2398.0,-2534.0,104.0,-71.0,-26.0,119,105,123,85,63
2025-03-17 18:37:00.685,-1797.0,2669.0,-4127.0,25.0,-782.0,-473.0,104,95,117,79,61
2025-03-17 18:37:00.708,3229.0,-2.0,-3477.0,-5.0,-1442.0,-387.0,96,91,114,77,60
2025-03-17 18:37:00.733,6102.0,-2479.0,4990.0,510.0,-542.0,-51.0,92,72,111,73,53
2025-03-17 18:37:00.751,1592.0,-273.0,2898.0,181.0,112.0,-85.0,106,101,128,92,74
2025-03-17 18:37:00.779,449.0,570.0,2957.0,-77.0,-53.0,55.0,117,118,136,100,84
2025-03-17 18:37:00.804,885.0,217.0,2843.0,-171.0,95.0,56.0,96,98,117,79,59
2025-03-17 18:37:00.828,84.0,193.0,2000.0,-111.0,245.0,22.0,119,116,138,103,84
2025-03-17 18:37:00.851,-185.0,52.0,1296.0,-91.0,223.0,3.0,86,93,107,68,51
2025-03-17 18:37:00.877,156.0,-199.0,1165.0,-148.0,235.0,41.0,87,92,106,67,47
2025-03-17 18:37:00.901,418.0,-509.0,1016.0,-155.0,325.0,102.0,96,96,113,72,54
2025-03-17 18:37:00.925,-18.0,-402.0,451.0,-67.0,312.0,121.0,109,107,124,86,67
2025-03-17 18:37:00.947,-215.0,37.0,446.0,-19.0,244.0,63.0,118,116,134,96,77
2025-03-17 18:37:00.972,-142.0,-10.0,463.0,-77.0,244.0,71.0,125,120,142,102,83
2025-03-17 18:37:00.996,-294.0,-159.0,183.0,-114.0,241.0,93.0,125,119,141,103,83
2025-03-17 18:37:01.020,-585.0,-190.0,-6.0,-51.0,161.0,93.0,126,120,142,101,82
2025-03-17 18:37:01.044,-301.0,376.0,62.0,2.0,178.0,54.0,106,99,121,78,58
2025-03-17 18:37:01.069,-610.0,686.0,-600.0,14.0,146.0,37.0,104,85,121,77,59
2025-03-17 18:37:01.092,-1841.0,1481.0,-2683.0,64.0,-67.0,-195.0,104,87,120,80,59
2025-03-17 18:37:01.118,-1320.0,2229.0,-3948.0,153.0,-807.0,-514.0,98,79,113,72,52
2025-03-17 18:37:01.140,4479.0,-15.0,-2457.0,100.0,-1440.0,-392.0,99,99,118,79,57
2025-03-17 18:37:01.164,6682.0,-3082.0,5958.0,367.0,-436.0,54.0,112,92,129,92,70
2025-03-17 18:37:01.188,2172.0,-548.0,3849.0,25.0,140.0,-20.0,105,89,126,86,69
2025-03-17 18:37:01.213,469.0,25.0,2937.0,-113.0,138.0,60.0,111,97,127,89,70
2025-03-17 18:37:01.237,515.0,-744.0,2231.0,-142.0,208.0,77.0,120,112,134,93,75
2025-03-17 18:37:01.251,-63.0,-524.0,1597.0,-130.0,281.0,132.0,95,82,115,70,52
2025-03-17 18:37:01.283,-172.0,58.0,885.0,-167.0,256.0,131.0,101,93,116,72,54
2025-03-17 18:37:01.308,120.0,-305.0,961.0,-155.0,252.0,87.0,104,83,119,74,55
2025-03-17 18:37:01.329,356.0,-676.0,891.0,-103.0,351.0,141.0,117,93,131,83,64
2025-03-17 18:37:01.357,96.0,-492.0,478.0,-45.0,397.0,207.0,121,98,133,87,61
2025-03-17 18:37:01.381,-83.0,-343.0,245.0,33.0,379.0,241.0,138,108,153,100,72
2025-03-17 18:37:01.405,-175.0,-71.0,142.0,96.0,341.0,256.0,136,108,157,93,66
2025-03-17 18:37:01.429,-762.0,-286.0,-330.0,115.0,315.0,273.0,140,109,159,96,67
2025-03-17 18:37:01.452,-570.0,230.0,-739.0,155.0,239.0,261.0,131,100,149,80,56
2025-03-17 18:37:01.474,-828.0,1306.0,-1383.0,125.0,110.0,113.0,135,97,153,83,61
2025-03-17 18:37:01.499,-933.0,2453.0,-2071.0,-25.0,-175.0,-234.0,133,98,149,81,54
2025-03-17 18:37:01.524,-728.0,2491.0,-2181.0,-179.0,-536.0,-668.0,128,104,151,67,50
2025-03-17 18:37:01.539,813.0,1256.0,-1859.0,-221.0,-948.0,-910.0,105,114,152,51,48
2025-03-17 18:37:01.573,4403.0,-1392.0,21.0,-168.0,-1030.0,-722.0,95,99,155,67,51
2025-03-17 18:37:01.595,4627.0,-4401.0,2713.0,-128.0,-342.0,-128.0,112,85,160,70,57
2025-03-17 18:37:01.619,2192.0,-2899.0,1969.0,254.0,158.0,118.0,111,94,160,76,57
2025-03-17 18:37:01.644,-72.0,-649.0,1356.0,-58.0,53.0,96.0,113,91,160,86,58
2025-03-17 18:37:01.667,296.0,-1589.0,1392.0,-85.0,62.0,117.0,108,111,155,84,55
2025-03-17 18:37:01.692,45.0,-1110.0,1156.0,-1.0,152.0,163.0,108,116,155,86,53
2025-03-17 18:37:01.717,-27.0,-746.0,796.0,-19.0,179.0,169.0,110,113,156,90,54
2025-03-17 18:37:01.741,-42.0,-730.0,453.0,-4.0,183.0,172.0,103,121,157,95,57
2025-03-17 18:37:01.765,2.0,-587.0,528.0,16.0,185.0,185.0,115,121,159,98,58
2025-03-17 18:37:01.787,33.0,-612.0,488.0,47.0,231.0,222.0,117,126,162,101,61
2025-03-17 18:37:01.811,-195.0,-434.0,348.0,93.0,258.0,249.0,119,111,160,103,59
2025-03-17 18:37:01.835,-188.0,-177.0,133.0,107.0,250.0,261.0,117,128,161,104,59
2025-03-17 18:37:01.860,-229.0,-68.0,83.0,135.0,246.0,289.0,100,109,154,94,52
2025-03-17 18:37:01.872,-474.0,898.0,-404.0,108.0,231.0,276.0,110,114,155,98,51
2025-03-17 18:37:01.909,-1502.0,2273.0,-1723.0,67.0,21.0,-45.0,105,114,154,93,49
2025-03-17 18:37:01.927,-1549.0,3729.0,-2708.0,-7.0,-452.0,-645.0,98,112,155,90,48
2025-03-17 18:37:01.958,1309.0,1949.0,-1917.0,-180.0,-913.0,-899.0,97,123,160,97,52
2025-03-17 18:37:01.979,3823.0,-2332.0,545.0,57.0,-881.0,-552.0,101,108,159,98,55
2025-03-17 18:37:02.004,4195.0,-2729.0,2269.0,-102.0,-356.0,-78.0,104,108,159,102,56
2025-03-17 18:37:02.025,2142.0,-2878.0,1940.0,88.0,48.0,28.0,106,101,161,104,59
2025-03-17 18:37:02.053,262.0,-1193.0,1751.0,-21.0,89.0,74.0,105,119,165,111,65
2025-03-17 18:37:02.077,-19.0,-1087.0,1533.0,-37.0,109.0,70.0,98,98,154,98,52
2025-03-17 18:37:02.098,137.0,-1071.0,1304.0,-32.0,151.0,83.0,99,118,154,97,51
2025-03-17 18:37:02.125,407.0,-1209.0,1066.0,15.0,217.0,117.0,101,100,155,97,53
2025-03-17 18:37:02.148,378.0,-1048.0,760.0,24.0,250.0,165.0,101,121,158,102,58
2025-03-17 18:37:02.172,246.0,-934.0,687.0,33.0,254.0,183.0,107,114,158,104,58
2025-03-17 18:37:02.195,134.0,-703.0,504.0,40.0,262.0,207.0,124,114,159,107,61
2025-03-17 18:37:02.219,-42.0,-575.0,509.0,63.0,276.0,219.0,131,120,159,100,60
2025-03-17 18:37:02.243,-222.0,-439.0,421.0,87.0,281.0,236.0,136,104,157,103,60
2025-03-17 18:37:02.269,-316.0,-374.0,203.0,159.0,315.0,246.0,132,101,135,91,53
2025-03-17 18:37:02.294,-417.0,74.0,-161.0,187.0,327.0,232.0,133,86,117,87,51
2025-03-17 18:37:02.315,-988.0,812.0,-899.0,75.0,218.0,150.0,117,90,103,76,49
2025-03-17 18:37:02.339,-1550.0,1552.0,-2023.0,-18.0,-90.0,-92.0,107,87,97,71,48
2025-03-17 18:37:02.364,-1129.0,1140.0,-3617.0,78.0,-633.0,-348.0,95,74,97,75,51
2025-03-17 18:37:02.389,1558.0,853.0,-3988.0,163.0,-1235.0,-336.0,93,72,101,79,55
2025-03-17 18:37:02.413,5605.0,-1010.0,-329.0,466.0,-1174.0,-128.0,98,79,106,81,59
2025-03-17 18:37:02.437,3255.0,743.0,4751.0,297.0,-266.0,-88.0,96,91,105,80,59
2025-03-17 18:37:02.462,1804.0,167.0,3318.0,73.0,-36.0,-13.0,93,102,107,82,60
2025-03-17 18:37:02.483,1395.0,190.0,3409.0,-106.0,62.0,39.0,82,95,98,74,51
2025-03-17 18:37:02.508,696.0,-96.0,2187.0,-108.0,203.0,15.0,86,87,100,75,51
2025-03-17 18:37:02.528,338.0,-431.0,1603.0,-105.0,287.0,31.0,88,91,101,75,52
2025-03-17 18:37:02.557,221.0,-261.0,835.0,-75.0,250.0,54.0,90,92,102,79,54
2025-03-17 18:37:02.581,473.0,-161.0,1201.0,-80.0,277.0,27.0,94,94,105,79,57
2025-03-17 18:37:02.605,275.0,-327.0,942.0,-66.0,340.0,44.0,98,97,106,79,56
2025-03-17 18:37:02.629,-161.0,-444.0,349.0,-19.0,268.0,89.0,98,94,107,79,55
2025-03-17 18:37:02.649,-196.0,130.0,394.0,-60.0,189.0,77.0,97,98,108,79,54
2025-03-17 18:37:02.676,-92.0,10.0,492.0,-66.0,206.0,34.0,94,91,102,73,51
2025-03-17 18:37:02.700,-332.0,-299.0,97.0,-6.0,242.0,69.0,95,97,104,76,51
2025-03-17 18:37:02.722,-618.0,441.0,-197.0,38.0,175.0,58.0,93,94,104,75,50
2025-03-17 18:37:02.749,-841.0,998.0,-459.0,-8.0,97.0,-22.0,96,95,106,76,52
2025-03-17 18:37:02.770,-1595.0,923.0,-1815.0,-17.0,-131.0,-142.0,98,97,107,74,54
2025-03-17 18:37:02.797,-1502.0,1721.0,-3884.0,194.0,-817.0,-330.0,96,98,108,82,55
2025-03-17 18:37:02.822,3172.0,142.0,-2401.0,108.0,-1356.0,-142.0,95,105,108,81,55
2025-03-17 18:37:02.844,5924.0,-2394.0,4043.0,173.0,-736.0,44.0,102,116,115,82,67
2025-03-17 18:37:02.868,3484.0,-512.0,4160.0,87.0,143.0,-81.0,106,96,116,84,66
2025-03-17 18:37:02.892,1483.0,-546.0,2608.0,-24.0,255.0,-19.0,95,105,107,74,53
2025-03-17 18:37:02.916,816.0,-258.0,1784.0,-232.0,258.0,91.0,99,87,109,70,55
2025-03-17 18:37:02.941,328.0,-427.0,1362.0,-218.0,277.0,121.0,111,103,114,72,55
2025-03-17 18:37:02.965,288.0,-496.0,1058.0,-179.0,348.0,162.0,118,106,116,70,56
2025-03-17 18:37:02.990,319.0,-216.0,829.0,-157.0,380.0,162.0,128,104,118,76,60
2025-03-17 18:37:03.011,313.0,-392.0,644.0,-144.0,409.0,179.0,132,92,120,79,61
2025-03-17 18:37:03.036,119.0,-387.0,607.0,-104.0,385.0,215.0,132,84,123,83,62
2025-03-17 18:37:03.060,98.0,-118.0,493.0,-48.0,391.0,230.0,134,73,126,86,64
2025-03-17 18:37:03.085,-292.0,-106.0,197.0,-35.0,340.0,210.0,132,52,128,70,61
2025-03-17 18:37:03.109,-601.0,-112.0,-76.0,-25.0,303.0,173.0,132,46,128,62,61
2025-03-17 18:37:03.134,-636.0,209.0,-440.0,13.0,236.0,146.0,131,42,125,21,59
2025-03-17 18:37:03.155,-905.0,942.0,-644.0,27.0,125.0,77.0,133,45,125,37,65
2025-03-17 18:37:03.169,-642.0,1619.0,-1176.0,-11.0,13.0,-93.0,136,43,119,61,63
2025-03-17 18:37:03.200,-1158.0,2635.0,-1862.0,-134.0,-139.0,-383.0,136,42,114,45,53
2025-03-17 18:37:03.228,-1456.0,3870.0,-3215.0,-76.0,-500.0,-868.0,133,31,111,79,47
2025-03-17 18:37:03.253,2193.0,1470.0,-2602.0,23.0,-1043.0,-1006.0,128,41,110,74,48
2025-03-17 18:37:03.278,8061.0,-2597.0,4298.0,-299.0,-765.0,-451.0,136,53,120,85,63
2025-03-17 18:37:03.298,3950.0,-6890.0,1656.0,183.0,181.0,-130.0,125,28,104,70,49
2025-03-17 18:37:03.315,1046.0,-1316.0,939.0,82.0,146.0,142.0,129,38,104,70,50
2025-03-17 18:37:03.345,605.0,-2358.0,1624.0,-148.0,99.0,137.0,128,46,108,72,52
2025-03-17 18:37:03.372,154.0,-1671.0,684.0,-44.0,139.0,215.0,132,51,114,78,59
2025-03-17 18:37:03.395,-149.0,-1068.0,544.0,-3.0,130.0,168.0,129,51,117,80,62
2025-03-17 18:37:03.421,-62.0,-759.0,437.0,-45.0,149.0,189.0,137,55,124,83,62
2025-03-17 18:37:03.444,-39.0,-827.0,293.0,-63.0,154.0,233.0,140,57,122,84,65
2025-03-17 18:37:03.470,43.0,-661.0,572.0,-34.0,135.0,263.0,139,57,124,84,65
2025-03-17 18:37:03.493,-111.0,-540.0,551.0,-20.0,173.0,275.0,136,51,117,77,58
2025-03-17 18:37:03.515,-153.0,-467.0,233.0,-11.0,205.0,321.0,131,48,116,76,55
2025-03-17 18:37:03.540,-234.0,242.0,39.0,9.0,189.0,287.0,125,41,114,74,53
2025-03-17 18:37:03.564,-563.0,-76.0,1.0,15.0,177.0,257.0,130,47,117,77,54
2025-03-17 18:37:03.589,-576.0,-54.0,-427.0,107.0,149.0,283.0,136,53,128,84,61
2025-03-17 18:37:03.613,-358.0,431.0,-444.0,184.0,124.0,316.0,135,48,123,84,62
2025-03-17 18:37:03.638,-512.0,1505.0,-1073.0,244.0,62.0,244.0,140,46,124,86,62
2025-03-17 18:37:03.662,-599.0,3002.0,-1794.0,150.0,-86.0,-90.0,139,52,121,85,60
2025-03-17 18:37:03.683,-1042.0,3649.0,-2234.0,30.0,-331.0,-624.0,136,47,119,82,54
2025-03-17 18:37:03.707,722.0,2603.0,-2839.0,42.0,-775.0,-1061.0,128,37,110,71,46
2025-03-17 18:37:03.732,6310.0,-392.0,1805.0,75.0,-1364.0,-739.0,132,37,114,73,51
2025-03-17 18:37:03.757,7260.0,-5105.0,5352.0,-112.0,-122.0,-48.0,136,47,118,78,56
2025-03-17 18:37:03.781,971.0,-3309.0,969.0,289.0,330.0,95.0,140,39,114,77,58
2025-03-17 18:37:03.806,-1469.0,-1139.0,765.0,-53.0,129.0,39.0,135,52,118,80,56
2025-03-17 18:37:03.830,-280.0,-1033.0,731.0,199.0,148.0,114.0,156,73,139,105,81
2025-03-17 18:37:03.842,-1061.0,-239.0,76.0,195.0,52.0,42.0,157,70,137,102,81
2025-03-17 18:37:03.873,-677.0,-61.0,179.0,165.0,-51.0,-18.0,139,25,118,79,59
2025-03-17 18:37:03.898,-182.0,-376.0,645.0,221.0,-122.0,-42.0,140,40,116,79,56
2025-03-17 18:37:03.924,94.0,-472.0,925.0,284.0,-75.0,-31.0,142,42,115,79,58
2025-03-17 18:37:03.946,-133.0,-761.0,584.0,291.0,-44.0,-60.0,143,39,113,77,56
2025-03-17 18:37:03.971,-152.0,-69.0,874.0,247.0,-24.0,-83.0,145,42,113,79,56
2025-03-17 18:37:03.995,-147.0,-210.0,916.0,239.0,-2.0,-108.0,150,44,121,85,60
2025-03-17 18:37:04.017,-7.0,-495.0,989.0,242.0,10.0,-108.0,152,46,120,85,64
2025-03-17 18:37:04.044,576.0,-1227.0,1077.0,167.0,-8.0,-39.0,154,49,120,87,63
2025-03-17 18:37:04.061,2056.0,-2731.0,2038.0,52.0,82.0,176.0,157,52,123,88,65
2025-03-17 18:37:04.092,3133.0,-3164.0,2732.0,-135.0,242.0,552.0,159,54,123,87,64
2025-03-17 18:37:04.116,3308.0,-2051.0,1840.0,-309.0,233.0,893.0,148,39,109,72,50
2025-03-17 18:37:04.140,3366.0,1675.0,1735.0,-306.0,182.0,1055.0,150,39,111,74,51
2025-03-17 18:37:04.157,933.0,5538.0,1016.0,-27.0,235.0,462.0,154,47,117,80,58
2025-03-17 18:37:04.187,231.0,5331.0,587.0,152.0,209.0,92.0,153,45,117,82,56
2025-03-17 18:37:04.212,367.0,3676.0,1083.0,54.0,140.0,-118.0,157,50,120,84,59
2025-03-17 18:37:04.236,-178.0,1945.0,334.0,183.0,25.0,-270.0,162,56,126,85,63
2025-03-17 18:37:04.261,-356.0,500.0,603.0,152.0,-91.0,-321.0,177,68,141,104,80
2025-03-17 18:37:04.285,-113.0,-36.0,791.0,121.0,-218.0,-328.0,165,50,130,94,69
2025-03-17 18:37:04.309,-84.0,-17.0,1060.0,167.0,-266.0,-416.0,164,53,125,87,64
2025-03-17 18:37:04.333,317.0,-183.0,1007.0,242.0,-287.0,-383.0,160,54,122,85,62
2025-03-17 18:37:04.353,251.0,473.0,934.0,213.0,-270.0,-339.0,151,42,112,77,55
2025-03-17 18:37:04.380,125.0,57.0,822.0,65.0,-295.0,-298.0,154,47,116,80,56
2025-03-17 18:37:04.399,332.0,-401.0,1228.0,142.0,-218.0,-280.0,160,54,122,85,63
2025-03-17 18:37:04.429,354.0,-355.0,1505.0,161.0,-92.0,-220.0,157,51,119,84,61
2025-03-17 18:37:04.447,276.0,-431.0,1199.0,54.0,-68.0,-118.0,157,51,119,84,58
2025-03-17 18:37:04.474,758.0,-1036.0,1174.0,14.0,-78.0,-42.0,155,46,114,80,56
2025-03-17 18:37:04.502,1639.0,-2190.0,1913.0,91.0,30.0,96.0,155,48,115,80,56
2025-03-17 18:37:04.526,2688.0,-1952.0,2684.0,-66.0,242.0,411.0,149,41,109,74,49
2025-03-17 18:37:04.539,2860.0,-896.0,2063.0,-399.0,359.0,817.0,149,39,110,73,49
2025-03-17 18:37:04.571,3032.0,1440.0,1708.0,-410.0,385.0,1003.0,149,41,106,70,49
2025-03-17 18:37:04.587,1391.0,4016.0,2625.0,-255.0,452.0,701.0,148,41,111,71,49
2025-03-17 18:37:04.621,748.0,4478.0,1113.0,139.0,442.0,155.0,151,39,113,74,49
2025-03-17 18:37:04.645,-385.0,3704.0,481.0,20.0,344.0,-24.0,154,44,117,78,53
2025-03-17 18:37:04.669,-330.0,2043.0,747.0,42.0,274.0,-186.0,149,52,119,80,54
2025-03-17 18:37:04.694,-489.0,299.0,872.0,-24.0,196.0,-240.0,167,61,136,99,74
2025-03-17 18:37:04.716,-760.0,-667.0,1042.0,-103.0,117.0,-218.0,150,41,119,78,55
2025-03-17 18:37:04.740,-97.0,-1950.0,999.0,-61.0,179.0,-142.0,144,44,113,74,50
2025-03-17 18:37:04.764,-533.0,-1225.0,245.0,159.0,216.0,-23.0,136,43,112,72,50
2025-03-17 18:37:04.788,-763.0,-518.0,5.0,216.0,188.0,6.0,122,46,113,72,57
2025-03-17 18:37:04.813,-595.0,-382.0,83.0,158.0,235.0,-18.0,119,48,122,43,70
2025-03-17 18:37:04.829,-569.0,-210.0,249.0,34.0,97.0,19.0,116,51,132,33,90
2025-03-17 18:37:04.859,-848.0,183.0,-129.0,52.0,91.0,72.0,115,57,138,91,95
2025-03-17 18:37:04.883,-452.0,1124.0,-461.0,116.0,119.0,43.0,113,63,140,100,84
2025-03-17 18:37:04.908,-207.0,2366.0,-2055.0,102.0,51.0,-211.0,111,71,144,99,101
2025-03-17 18:37:04.921,-543.0,2525.0,-2930.0,-152.0,-208.0,-618.0,109,66,144,98,112
2025-03-17 18:37:04.957,338.0,1736.0,-2906.0,-288.0,-534.0,-1043.0,114,88,149,102,114
2025-03-17 18:37:04.982,2482.0,-442.0,-992.0,-457.0,-615.0,-1076.0,123,80,151,100,120
2025-03-17 18:37:05.005,5468.0,-4730.0,-363.0,-357.0,-698.0,-723.0,129,93,155,105,123
2025-03-17 18:37:05.030,4306.0,-6376.0,822.0,216.0,-79.0,196.0,125,94,152,103,120
2025-03-17 18:37:05.054,1039.0,-1819.0,754.0,340.0,197.0,321.0,129,98,152,105,120
2025-03-17 18:37:05.079,-503.0,-921.0,604.0,20.0,61.0,212.0,135,93,154,109,125
2025-03-17 18:37:05.104,-207.0,-1348.0,907.0,-50.0,46.0,199.0,137,103,154,106,124
2025-03-17 18:37:05.128,-116.0,-1237.0,790.0,52.0,156.0,274.0,141,110,156,110,126
2025-03-17 18:37:05.146,-135.0,-888.0,526.0,133.0,221.0,340.0,141,98,154,110,127
2025-03-17 18:37:05.174,139.0,-349.0,265.0,64.0,230.0,322.0,138,92,155,109,124
2025-03-17 18:37:05.198,-238.0,-505.0,167.0,69.0,204.0,322.0,133,96,150,105,119
2025-03-17 18:37:05.223,-95.0,-97.0,373.0,148.0,210.0,311.0,133,107,151,106,121
2025-03-17 18:37:05.247,-396.0,334.0,124.0,109.0,206.0,259.0,128,106,151,105,119
2025-03-17 18:37:05.260,-293.0,642.0,-908.0,223.0,129.0,252.0,125,102,151,105,120
2025-03-17 18:37:05.296,-633.0,2206.0,-1481.0,80.0,-5.0,-7.0,123,102,154,107,121
2025-03-17 18:37:05.318,-1065.0,3215.0,-2547.0,43.0,-257.0,-550.0,126,111,159,108,125
2025-03-17 18:37:05.341,157.0,2029.0,-2193.0,-187.0,-521.0,-909.0,127,107,154,109,126
2025-03-17 18:37:05.366,4625.0,-351.0,2801.0,-392.0,-732.0,-968.0,132,109,154,111,126
2025-03-17 18:37:05.391,4081.0,-5671.0,1630.0,28.0,-379.0,-308.0,142,114,163,120,132
2025-03-17 18:37:05.415,2666.0,-4121.0,1601.0,371.0,86.0,176.0,136,68,154,110,123
2025-03-17 18:37:05.438,-797.0,-163.0,1062.0,86.0,166.0,93.0,140,101,155,113,124
2025-03-17 18:37:05.464,-914.0,-1045.0,754.0,-67.0,-2.0,-12.0,145,109,158,114,125
2025-03-17 18:37:05.486,-264.0,-1327.0,928.0,102.0,37.0,58.0,146,115,159,117,128
2025-03-17 18:37:05.510,-178.0,-420.0,567.0,149.0,121.0,85.0,152,102,161,117,130
2025-03-17 18:37:05.534,-259.0,-428.0,595.0,108.0,101.0,37.0,151,94,164,123,133
2025-03-17 18:37:05.558,-203.0,-802.0,322.0,145.0,61.0,43.0,153,112,165,123,131
2025-03-17 18:37:05.583,-28.0,-533.0,248.0,175.0,44.0,45.0,153,111,167,122,130
2025-03-17 18:37:05.608,124.0,-286.0,420.0,128.0,36.0,0.0,142,103,156,112,120
2025-03-17 18:37:05.626,-235.0,-863.0,630.0,145.0,16.0,-8.0,144,97,157,71,113
2025-03-17 18:37:05.653,-417.0,-509.0,651.0,184.0,-16.0,9.0,141,93,154,37,98
2025-03-17 18:37:05.678,-333.0,-338.0,854.0,179.0,-3.0,-4.0,143,76,155,8,97
2025-03-17 18:37:05.703,-582.0,-304.0,838.0,265.0,-46.0,-38.0,148,76,161,63,108
2025-03-17 18:37:05.727,-691.0,-174.0,749.0,346.0,-40.0,-72.0,150,75,159,73,103
2025-03-17 18:37:05.751,57.0,-527.0,5.0,396.0,-35.0,-72.0,150,61,150,102,77
2025-03-17 18:37:05.776,1115.0,-2311.0,1309.0,323.0,55.0,80.0,130,56,139,95,65
2025-03-17 18:37:05.800,2479.0,-2818.0,2727.0,4.0,290.0,353.0,139,55,131,86,60
2025-03-17 18:37:05.817,2412.0,-2249.0,1652.0,-184.0,234.0,719.0,134,35,112,68,43
2025-03-17 18:37:05.843,2250.0,417.0,1400.0,-241.0,83.0,906.0,138,31,109,67,40
2025-03-17 18:37:05.867,1392.0,3469.0,1267.0,-128.0,113.0,672.0,141,39,111,69,44
2025-03-17 18:37:05.895,520.0,4624.0,435.0,184.0,195.0,129.0,147,39,118,76,47
2025-03-17 18:37:05.918,38.0,4409.0,190.0,96.0,73.0,-74.0,149,33,119,79,49
2025-03-17 18:37:05.944,-21.0,2637.0,469.0,8.0,-9.0,-259.0,160,54,131,90,59
2025-03-17 18:37:05.965,246.0,732.0,919.0,0.0,-66.0,-297.0,155,46,127,86,54
2025-03-17 18:37:05.981,493.0,-171.0,1344.0,4.0,-44.0,-237.0,162,55,135,94,63
2025-03-17 18:37:06.013,64.0,-275.0,1254.0,13.0,11.0,-235.0,121,38,120,74,47
2025-03-17 18:37:06.037,-529.0,-667.0,764.0,40.0,-33.0,-244.0,143,41,121,76,47
2025-03-17 18:37:06.062,-306.0,-203.0,730.0,135.0,-87.0,-239.0,139,41,120,75,45
2025-03-17 18:37:06.087,-460.0,345.0,656.0,150.0,-154.0,-270.0,149,38,120,75,46
2025-03-17 18:37:06.111,-358.0,297.0,583.0,103.0,-225.0,-292.0,151,43,122,77,49
2025-03-17 18:37:06.134,-215.0,5.0,576.0,105.0,-263.0,-251.0,155,49,128,84,56
2025-03-17 18:37:06.158,9.0,80.0,1005.0,82.0,-246.0,-217.0,157,50,129,86,58
2025-03-17 18:37:06.181,258.0,-486.0,1266.0,54.0,-197.0,-186.0,157,49,127,85,57
2025-03-17 18:37:06.207,762.0,-1340.0,1539.0,54.0,-120.0,-97.0,156,49,128,85,56
2025-03-17 18:37:06.231,1939.0,-2627.0,2312.0,15.0,48.0,119.0,150,40,120,77,47
2025-03-17 18:37:06.255,2590.0,-1570.0,2514.0,-308.0,180.0,426.0,152,45,120,78,49
2025-03-17 18:37:06.280,2454.0,-2110.0,1592.0,-482.0,283.0,721.0,152,41,123,78,48
2025-03-17 18:37:06.304,2049.0,886.0,913.0,-290.0,161.0,950.0,152,41,123,81,49
2025-03-17 18:37:06.314,427.0,3817.0,2590.0,-248.0,31.0,693.0,151,43,122,80,48
2025-03-17 18:37:06.350,608.0,4140.0,2167.0,208.0,292.0,91.0,154,40,125,83,48
2025-03-17 18:37:06.374,-355.0,3480.0,1386.0,5.0,250.0,-28.0,151,44,125,84,48
2025-03-17 18:37:06.398,2.0,1003.0,1824.0,-2.0,284.0,-162.0,151,50,125,83,49
2025-03-17 18:37:06.423,-520.0,-754.0,1251.0,-16.0,269.0,-135.0,131,45,123,80,47
2025-03-17 18:37:06.436,-690.0,-1350.0,616.0,37.0,203.0,-91.0,147,51,132,89,56
2025-03-17 18:37:06.471,-739.0,-816.0,359.0,85.0,145.0,-73.0,148,45,128,86,51
2025-03-17 18:37:06.493,-355.0,-1096.0,549.0,185.0,226.0,-30.0,137,41,127,86,51
2025-03-17 18:37:06.516,-1178.0,-168.0,-156.0,151.0,181.0,6.0,147,44,133,88,52
2025-03-17 18:37:06.542,-923.0,-99.0,148.0,55.0,148.0,12.0,136,50,137,94,54
2025-03-17 18:37:06.566,-676.0,-59.0,292.0,98.0,147.0,16.0,127,68,145,91,55
2025-03-17 18:37:06.589,-746.0,294.0,230.0,109.0,171.0,10.0,140,68,150,83,56
2025-03-17 18:37:06.616,-751.0,815.0,-206.0,88.0,166.0,-30.0,144,79,152,82,56
2025-03-17 18:37:06.639,-775.0,1770.0,-1294.0,36.0,34.0,-181.0,138,79,147,4,49
2025-03-17 18:37:06.661,-457.0,2557.0,-2063.0,8.0,-196.0,-544.0,140,83,148,2,41
2025-03-17 18:37:06.686,-493.0,2635.0,-2427.0,-60.0,-575.0,-910.0,121,81,150,3,42
2025-03-17 18:37:06.711,2282.0,1048.0,-1994.0,-110.0,-1052.0,-1050.0,133,96,155,10,46
2025-03-17 18:37:06.735,5499.0,-3262.0,354.0,-90.0,-990.0,-676.0,130,77,155,6,45
2025-03-17 18:37:06.758,5501.0,-4678.0,1104.0,-49.0,-270.0,17.0,125,76,160,13,53
2025-03-17 18:37:06.783,2060.0,-3141.0,1232.0,260.0,170.0,106.0,134,84,167,24,67
2025-03-17 18:37:06.808,83.0,-1140.0,1199.0,-40.0,34.0,153.0,132,85,168,22,66
2025-03-17 18:37:06.829,275.0,-1310.0,1327.0,-26.0,72.0,159.0,119,90,151,17,48
2025-03-17 18:37:06.854,117.0,-1062.0,844.0,18.0,168.0,171.0,115,105,151,45,46
2025-03-17 18:37:06.878,179.0,-793.0,671.0,18.0,180.0,191.0,112,96,150,50,45
2025-03-17 18:37:06.902,340.0,-827.0,487.0,44.0,194.0,206.0,110,99,150,42,46
2025-03-17 18:37:06.927,245.0,-727.0,412.0,79.0,211.0,227.0,113,98,153,53,46
2025-03-17 18:37:06.951,43.0,-390.0,493.0,3.0,183.0,221.0,113,100,152,66,47
2025-03-17 18:37:06.976,-82.0,-730.0,412.0,-40.0,167.0,234.0,114,104,151,65,47
2025-03-17 18:37:06.995,-103.0,-832.0,431.0,29.0,191.0,256.0,115,105,152,76,46
2025-03-17 18:37:07.022,-218.0,-369.0,424.0,53.0,222.0,290.0,105,104,151,70,46
2025-03-17 18:37:07.046,-715.0,391.0,72.0,8.0,184.0,282.0,93,99,150,72,44
2025-03-17 18:37:07.070,-1223.0,1661.0,-719.0,62.0,106.0,134.0,99,97,150,70,43
2025-03-17 18:37:07.092,1073.0,1073.0,1073.0,134.0,134.0,134.0,100,107,155,84,48
2025-03-17 18:37:07.116,-759.0,3642.0,-2135.0,-181.0,-586.0,-864.0,110,108,161,86,54
2025-03-17 18:37:07.140,3816.0,508.0,-1183.0,-110.0,-924.0,-897.0,105,118,162,84,53
2025-03-17 18:37:07.164,5541.0,-3958.0,1805.0,133.0,-423.0,-449.0,100,100,159,75,53
2025-03-17 18:37:07.188,3455.0,-3843.0,1763.0,199.0,126.0,58.0,93,65,152,67,50
2025-03-17 18:37:07.213,318.0,-1229.0,1502.0,57.0,130.0,61.0,99,100,153,81,49
2025-03-17 18:37:07.224,335.0,-1343.0,1579.0,55.0,183.0,95.0,105,114,155,81,52
2025-03-17 18:37:07.259,-217.0,-662.0,1288.0,175.0,306.0,92.0,112,111,154,92,53
2025-03-17 18:37:07.272,-292.0,-352.0,619.0,274.0,310.0,67.0,111,104,153,79,51
2025-03-17 18:37:07.307,-259.0,-27.0,311.0,263.0,212.0,18.0,115,88,152,76,53
2025-03-17 18:37:07.333,-187.0,-324.0,527.0,267.0,141.0,-17.0,118,71,152,87,52
2025-03-17 18:37:07.357,-189.0,-388.0,761.0,287.0,139.0,-2.0,129,78,149,69,51
2025-03-17 18:37:07.381,-243.0,-354.0,638.0,307.0,130.0,11.0,128,66,143,70,47
2025-03-17 18:37:07.406,-360.0,-220.0,625.0,298.0,111.0,7.0,135,42,140,72,49
2025-03-17 18:37:07.428,-638.0,-38.0,491.0,312.0,77.0,1.0,134,40,130,80,47
2025-03-17 18:37:07.447,-732.0,-99.0,342.0,281.0,-29.0,15.0,136,38,122,78,49
2025-03-17 18:37:07.474,60.0,-803.0,643.0,212.0,-157.0,28.0,142,41,122,80,51
2025-03-17 18:37:07.501,803.0,-1740.0,1929.0,147.0,-88.0,176.0,147,41,123,79,52
2025-03-17 18:37:07.521,1747.0,-1894.0,2770.0,-133.0,55.0,473.0,149,38,118,80,50
2025-03-17 18:37:07.549,2343.0,-1664.0,2395.0,-204.0,138.0,731.0,148,39,115,77,48
2025-03-17 18:37:07.570,1591.0,771.0,1486.0,-300.0,156.0,747.0,149,40,115,77,45
2025-03-17 18:37:07.587,957.0,3123.0,1219.0,-235.0,189.0,566.0,151,43,119,81,48
2025-03-17 18:37:07.620,129.0,4068.0,569.0,82.0,130.0,70.0,149,31,118,82,47
2025-03-17 18:37:07.644,114.0,3880.0,620.0,28.0,77.0,-65.0,148,27,119,80,46
2025-03-17 18:37:07.669,166.0,2105.0,541.0,-8.0,17.0,-201.0,150,42,121,82,47
2025-03-17 18:37:07.693,511.0,125.0,902.0,11.0,-12.0,-188.0,151,42,121,82,48
2025-03-17 18:37:07.716,236.0,27.0,1231.0,16.0,25.0,-139.0,153,43,121,82,51
2025-03-17 18:37:07.741,-42.0,-343.0,686.0,1.0,28.0,-139.0,151,47,119,78,47
2025-03-17 18:37:07.764,-206.0,-369.0,1045.0,41.0,11.0,-124.0,151,43,120,80,48
2025-03-17 18:37:07.781,-362.0,-21.0,919.0,61.0,-11.0,-115.0,152,42,118,78,45
2025-03-17 18:37:07.812,-434.0,119.0,890.0,75.0,15.0,-151.0,149,44,119,78,46
2025-03-17 18:37:07.830,-542.0,540.0,763.0,49.0,28.0,-189.0,149,46,119,78,45
2025-03-17 18:37:07.861,-557.0,455.0,530.0,100.0,-2.0,-270.0,149,45,119,78,47
2025-03-17 18:37:07.877,-420.0,46.0,491.0,125.0,-71.0,-266.0,150,47,120,79,48
2025-03-17 18:37:07.909,-291.0,-160.0,628.0,116.0,-125.0,-302.0,153,49,121,81,50
2025-03-17 18:37:07.934,239.0,-2008.0,602.0,163.0,-221.0,-131.0,151,49,121,81,49
2025-03-17 18:37:07.955,1712.0,-2968.0,3161.0,50.0,-88.0,182.0,152,46,121,82,46
2025-03-17 18:37:07.980,2436.0,-2432.0,3614.0,-188.0,227.0,413.0,151,43,121,82,49
2025-03-17 18:37:08.004,1453.0,-1016.0,1360.0,-363.0,271.0,630.0,149,40,116,79,46
2025-03-17 18:37:08.028,1201.0,1905.0,783.0,-237.0,188.0,709.0,150,43,117,80,46
2025-03-17 18:37:08.053,-99.0,5290.0,116.0,-45.0,110.0,302.0,151,35,120,83,47
2025-03-17 18:37:08.066,262.0,4136.0,854.0,31.0,107.0,3.0,153,39,123,86,51
2025-03-17 18:37:08.101,156.0,2311.0,1678.0,-84.0,153.0,-131.0,155,49,127,90,53
2025-03-17 18:37:08.124,97.0,516.0,2252.0,-169.0,291.0,-173.0,154,45,126,88,52
2025-03-17 18:37:08.148,52.0,-414.0,2019.0,-245.0,419.0,-162.0,159,60,131,92,58
2025-03-17 18:37:08.172,-433.0,-945.0,373.0,-63.0,323.0,-149.0,154,52,125,88,55
2025-03-17 18:37:08.197,-284.0,-1421.0,86.0,166.0,255.0,-42.0,146,42,124,70,52
2025-03-17 18:37:08.221,-567.0,-618.0,239.0,149.0,330.0,-32.0,132,44,126,71,59
2025-03-17 18:37:08.245,-804.0,-442.0,-558.0,112.0,318.0,-22.0,107,42,123,62,55
2025-03-17 18:37:08.267,-631.0,218.0,-416.0,92.0,254.0,-9.0,119,43,117,5,52
2025-03-17 18:37:08.292,-414.0,813.0,-926.0,91.0,60.0,7.0,127,47,118,9,64
2025-03-17 18:37:08.316,-373.0,1610.0,-1363.0,126.0,12.0,-43.0,128,42,121,8,71
2025-03-17 18:37:08.341,-491.0,2380.0,-1812.0,-8.0,-140.0,-296.0,133,45,114,11,63
2025-03-17 18:37:08.364,-1095.0,3016.0,-3076.0,-480.0,-485.0,-720.0,134,49,113,13,47
2025-03-17 18:37:08.389,1938.0,4088.0,-780.0,-412.0,-579.0,-1274.0,124,44,111,68,52
2025-03-17 18:37:08.414,5505.0,-1161.0,-1303.0,229.0,-1127.0,-1013.0,116,35,103,61,42
2025-03-17 18:37:08.437,7528.0,-6271.0,3689.0,77.0,-150.0,-67.0,119,36,105,65,43
2025-03-17 18:37:08.461,1676.0,-4195.0,728.0,414.0,239.0,119.0,108,38,106,65,49
2025-03-17 18:37:08.487,120.0,-959.0,1730.0,-117.0,52.0,125.0,122,51,117,75,59
2025-03-17 18:37:08.508,556.0,-2341.0,1482.0,-27.0,184.0,174.0,118,47,112,69,51
2025-03-17 18:37:08.533,-222.0,-1050.0,661.0,-9.0,189.0,214.0,117,46,108,67,49
2025-03-17 18:37:08.557,-136.0,-308.0,409.0,-118.0,145.0,193.0,115,38,105,62,44
2025-03-17 18:37:08.581,-50.0,-914.0,436.0,-144.0,106.0,207.0,115,33,104,59,43
2025-03-17 18:37:08.606,241.0,-904.0,586.0,-41.0,137.0,258.0,116,36,106,64,44
2025-03-17 18:37:08.630,87.0,-671.0,560.0,-7.0,205.0,312.0,112,42,108,69,45
2025-03-17 18:37:08.655,-289.0,-330.0,284.0,28.0,201.0,317.0,109,42,107,67,45
2025-03-17 18:37:08.676,-307.0,-17.0,284.0,10.0,179.0,307.0,112,41,105,70,45
2025-03-17 18:37:08.700,-611.0,42.0,165.0,35.0,175.0,307.0,113,40,110,69,45
2025-03-17 18:37:08.725,-648.0,765.0,-92.0,75.0,186.0,265.0,115,42,109,68,44
2025-03-17 18:37:08.750,-1062.0,2009.0,-804.0,100.0,128.0,103.0,112,41,106,66,41
2025-03-17 18:37:08.774,-1336.0,3320.0,-1629.0,106.0,0.0,-266.0,124,39,107,67,40
2025-03-17 18:37:08.799,-1138.0,3432.0,-2003.0,94.0,-219.0,-665.0,119,42,112,66,40
2025-03-17 18:37:08.823,906.0,3434.0,-1682.0,-56.0,-669.0,-1088.0,91,41,106,65,42
2025-03-17 18:37:08.847,6619.0,456.0,372.0,-496.0,-734.0,-1068.0,114,42,106,64,41
2025-03-17 18:37:08.868,6684.0,-9117.0,1876.0,82.0,56.0,-160.0,119,43,106,65,44
2025-03-17 18:37:08.891,2214.0,-2201.0,-479.0,307.0,335.0,231.0,110,30,108,66,46
2025-03-17 18:37:08.907,121.0,-1506.0,10.0,66.0,35.0,120.0,118,34,104,66,46
2025-03-17 18:37:08.942,222.0,-1945.0,-87.0,238.0,53.0,191.0,117,43,107,66,45
2025-03-17 18:37:08.966,41.0,-889.0,-126.0,303.0,29.0,217.0,116,34,109,64,44
2025-03-17 18:37:08.991,-143.0,-481.0,56.0,269.0,-75.0,196.0,118,39,108,65,47
2025-03-17 18:37:09.012,334.0,-469.0,628.0,250.0,-99.0,186.0,121,35,108,66,47
2025-03-17 18:37:09.036,352.0,-689.0,802.0,338.0,-20.0,230.0,128,33,109,66,51
2025-03-17 18:37:09.061,76.0,-159.0,658.0,414.0,38.0,256.0,129,42,108,73,54
2025-03-17 18:37:09.085,-127.0,370.0,497.0,341.0,48.0,243.0,131,41,108,77,55
2025-03-17 18:37:09.102,-246.0,641.0,438.0,229.0,34.0,190.0,147,55,124,90,69
2025-03-17 18:37:09.135,-417.0,586.0,581.0,207.0,-3.0,149.0,149,45,122,89,83
2025-03-17 18:37:09.159,-477.0,887.0,532.0,160.0,-45.0,111.0,134,36,111,76,87
2025-03-17 18:37:09.181,-518.0,1456.0,591.0,115.0,-99.0,20.0,135,41,112,81,98
2025-03-17 18:37:09.205,-934.0,2168.0,450.0,123.0,-140.0,-126.0,130,40,109,64,105
2025-03-17 18:37:09.229,-1308.0,2806.0,55.0,159.0,-214.0,-298.0,131,42,109,67,112
2025-03-17 18:37:09.253,-857.0,2195.0,130.0,236.0,-256.0,-431.0,120,44,113,65,108
2025-03-17 18:37:09.278,509.0,1648.0,883.0,234.0,-312.0,-379.0,138,34,115,72,114
2025-03-17 18:37:09.302,2145.0,224.0,1894.0,137.0,-273.0,-278.0,142,36,117,79,109
2025-03-17 18:37:09.326,2635.0,-815.0,2901.0,-32.0,-104.0,-91.0,145,39,119,77,120
2025-03-17 18:37:09.351,2021.0,-1233.0,2216.0,-163.0,86.0,46.0,147,43,120,73,126
2025-03-17 18:37:09.373,1052.0,-784.0,1362.0,-77.0,214.0,82.0,127,40,119,70,126
2025-03-17 18:37:09.393,135.0,-103.0,804.0,-56.0,215.0,129.0,131,40,118,67,129
2025-03-17 18:37:09.418,-98.0,377.0,812.0,-107.0,149.0,197.0,140,40,119,70,128
2025-03-17 18:37:09.446,-94.0,494.0,864.0,-125.0,127.0,192.0,143,44,121,73,129
2025-03-17 18:37:09.471,-141.0,469.0,744.0,-60.0,172.0,179.0,141,44,121,77,130
2025-03-17 18:37:09.495,-271.0,826.0,494.0,-28.0,161.0,174.0,145,47,123,82,136
2025-03-17 18:37:09.519,-312.0,928.0,483.0,-47.0,103.0,129.0,142,47,123,80,134
2025-03-17 18:37:09.541,-197.0,658.0,638.0,36.0,114.0,91.0,141,47,123,80,133
2025-03-17 18:37:09.565,-390.0,1030.0,444.0,37.0,104.0,74.0,134,39,117,76,129
2025-03-17 18:37:09.590,-647.0,1650.0,244.0,-30.0,52.0,35.0,135,45,117,76,127
2025-03-17 18:37:09.614,-1101.0,2830.0,-302.0,-83.0,15.0,-112.0,132,40,123,73,129
2025-03-17 18:37:09.637,-2022.0,3628.0,-1235.0,-127.0,-153.0,-355.0,127,38,118,60,126
2025-03-17 18:37:09.653,-1140.0,2714.0,-1270.0,-253.0,-498.0,-444.0,125,38,120,66,129
2025-03-17 18:37:09.688,2708.0,-784.0,1811.0,-34.0,-435.0,-403.0,136,39,122,65,132
2025-03-17 18:37:09.712,3508.0,-1573.0,2819.0,-17.0,2.0,-210.0,135,35,116,73,129
2025-03-17 18:37:09.736,1809.0,-2281.0,1663.0,-135.0,81.0,-39.0,132,35,118,82,128
2025-03-17 18:37:09.757,1055.0,-1795.0,1243.0,-144.0,70.0,70.0,128,43,117,80,130
2025-03-17 18:37:09.782,259.0,-1149.0,1107.0,-94.0,147.0,135.0,127,44,122,78,132
2025-03-17 18:37:09.806,-59.0,-250.0,1321.0,-97.0,189.0,162.0,127,54,127,85,136
2025-03-17 18:37:09.831,-437.0,223.0,1253.0,-175.0,190.0,160.0,119,50,124,85,132
2025-03-17 18:37:09.855,-510.0,517.0,1270.0,-224.0,212.0,149.0,122,47,122,78,134
2025-03-17 18:37:09.868,-44.0,247.0,1501.0,-272.0,303.0,187.0,123,49,122,88,131
2025-03-17 18:37:09.901,107.0,128.0,936.0,-176.0,340.0,243.0,122,39,118,81,120
2025-03-17 18:37:09.926,-254.0,88.0,433.0,-162.0,322.0,273.0,127,41,118,88,114
2025-03-17 18:37:09.950,-99.0,66.0,448.0,-94.0,325.0,257.0,130,44,121,70,112
2025-03-17 18:37:09.974,-868.0,-209.0,-439.0,64.0,220.0,210.0,129,42,130,2,114
2025-03-17 18:37:09.999,-1070.0,11.0,-349.0,83.0,91.0,165.0,128,47,140,60,118
2025-03-17 18:37:10.023,-518.0,370.0,191.0,25.0,101.0,145.0,121,55,143,104,118
2025-03-17 18:37:10.047,-623.0,732.0,-271.0,101.0,121.0,122.0,117,57,146,105,115
2025-03-17 18:37:10.072,-365.0,1586.0,-1245.0,127.0,74.0,54.0,111,59,144,104,114
2025-03-17 18:37:10.097,-673.0,2391.0,-2521.0,-22.0,-169.0,-245.0,108,49,145,106,122
2025-03-17 18:37:10.108,-533.0,2511.0,-2684.0,-193.0,-465.0,-654.0,106,74,145,104,125
2025-03-17 18:37:10.140,-102.0,1356.0,-1679.0,-407.0,-844.0,-871.0,108,81,146,105,111
2025-03-17 18:37:10.167,5031.0,-610.0,1435.0,-827.0,-1029.0,-935.0,115,78,150,108,129
2025-03-17 18:37:10.191,4346.0,-4940.0,211.0,-424.0,-339.0,-490.0,115,98,152,106,127
2025-03-17 18:37:10.216,3388.0,-5542.0,403.0,289.0,121.0,212.0,115,99,157,112,133
2025-03-17 18:37:10.241,353.0,-1362.0,242.0,268.0,230.0,318.0,118,92,151,108,127
2025-03-17 18:37:10.265,-27.0,-1552.0,553.0,37.0,104.0,209.0,124,84,153,110,131
2025-03-17 18:37:10.278,-291.0,-1455.0,746.0,21.0,106.0,265.0,123,95,151,109,130
2025-03-17 18:37:10.308,-31.0,-929.0,331.0,137.0,187.0,322.0,122,104,151,108,128
2025-03-17 18:37:10.335,-165.0,-254.0,186.0,186.0,178.0,309.0,124,94,154,111,130
2025-03-17 18:37:10.358,-209.0,-262.0,130.0,131.0,131.0,296.0,124,83,152,110,127
2025-03-17 18:37:10.384,-132.0,-159.0,306.0,145.0,147.0,266.0,122,93,153,111,131
2025-03-17 18:37:10.408,-477.0,-85.0,334.0,171.0,148.0,244.0,120,87,153,112,130
2025-03-17 18:37:10.433,-345.0,104.0,236.0,165.0,170.0,236.0,119,102,154,111,130
2025-03-17 18:37:10.457,-447.0,359.0,-61.0,146.0,162.0,230.0,113,94,150,108,123
2025-03-17 18:37:10.479,-703.0,1910.0,-1030.0,158.0,93.0,197.0,111,79,149,107,114
2025-03-17 18:37:10.504,-1267.0,3072.0,-2387.0,33.0,-140.0,-228.0,112,89,151,108,113
2025-03-17 18:37:10.527,-970.0,3081.0,-1972.0,-106.0,-435.0,-767.0,106,102,150,110,126
2025-03-17 18:37:10.552,1391.0,1884.0,-776.0,-369.0,-655.0,-1084.0,116,101,151,108,116
2025-03-17 18:37:10.574,5728.0,-3664.0,2277.0,-440.0,-650.0,-803.0,116,82,149,108,126
2025-03-17 18:37:10.601,4493.0,-6801.0,1389.0,50.0,-178.0,117.0,116,99,152,109,126
2025-03-17 18:37:10.625,1470.0,-1929.0,793.0,439.0,290.0,317.0,116,79,150,108,126
2025-03-17 18:37:10.650,-679.0,-300.0,878.0,122.0,252.0,168.0,118,99,150,107,126
2025-03-17 18:37:10.674,-861.0,-759.0,729.0,121.0,119.0,148.0,120,99,152,111,128
2025-03-17 18:37:10.695,-673.0,-1119.0,454.0,254.0,135.0,171.0,118,88,149,110,128
2025-03-17 18:37:10.720,-510.0,-1154.0,-306.0,200.0,37.0,208.0,119,54,147,106,126
2025-03-17 18:37:10.738,-153.0,-689.0,-305.0,233.0,-2.0,163.0,120,41,143,4,127
2025-03-17 18:37:10.769,-197.0,-270.0,418.0,295.0,-22.0,181.0,119,37,137,76,122
2025-03-17 18:37:10.786,461.0,-447.0,594.0,197.0,-20.0,249.0,116,32,128,60,120
2025-03-17 18:37:10.817,-49.0,-231.0,367.0,188.0,-21.0,230.0,118,30,125,65,125
2025-03-17 18:37:10.842,-219.0,512.0,336.0,143.0,-29.0,209.0,118,36,125,76,128
2025-03-17 18:37:10.864,-533.0,838.0,634.0,119.0,-48.0,119.0,118,37,129,79,130
2025-03-17 18:37:10.888,-670.0,1215.0,448.0,151.0,-57.0,74.0,115,44,132,80,137
2025-03-17 18:37:10.912,-1020.0,2154.0,263.0,223.0,-67.0,-65.0,116,47,135,89,139
2025-03-17 18:37:10.937,-1542.0,3073.0,-174.0,184.0,-172.0,-224.0,114,47,135,85,131
2025-03-17 18:37:10.961,-1027.0,2808.0,132.0,108.0,-326.0,-349.0,113,47,136,86,138
2025-03-17 18:37:10.986,621.0,811.0,1464.0,175.0,-323.0,-340.0,116,46,134,85,135
2025-03-17 18:37:11.010,1557.0,-3.0,2540.0,62.0,-170.0,-252.0,118,46,136,86,124
2025-03-17 18:37:11.032,1723.0,-1267.0,2392.0,-116.0,-55.0,-92.0,120,44,134,80,136
2025-03-17 18:37:11.056,1426.0,-1701.0,2061.0,-106.0,45.0,9.0,113,38,131,84,133
2025-03-17 18:37:11.080,586.0,-943.0,1660.0,-85.0,132.0,83.0,115,39,133,86,110
2025-03-17 18:37:11.105,-23.0,-550.0,819.0,-92.0,96.0,139.0,116,41,133,87,131
2025-03-17 18:37:11.129,-142.0,24.0,966.0,-78.0,69.0,177.0,115,42,133,88,134
2025-03-17 18:37:11.152,-226.0,459.0,1024.0,-59.0,81.0,182.0,114,45,132,86,135
2025-03-17 18:37:11.178,-370.0,756.0,762.0,-68.0,116.0,138.0,116,42,132,85,135
2025-03-17 18:37:11.200,-635.0,859.0,508.0,-12.0,103.0,100.0,112,40,131,84,134
2025-03-17 18:37:11.224,-600.0,898.0,560.0,-8.0,99.0,81.0,111,41,131,82,134
2025-03-17 18:37:11.248,-480.0,845.0,595.0,-21.0,108.0,65.0,112,40,131,83,134
2025-03-17 18:37:11.273,-450.0,642.0,453.0,13.0,97.0,54.0,111,47,131,83,136
2025-03-17 18:37:11.297,-472.0,967.0,548.0,6.0,74.0,46.0,112,43,131,84,134
2025-03-17 18:37:11.321,-717.0,1792.0,263.0,-40.0,84.0,17.0,113,43,132,84,136
2025-03-17 18:37:11.346,-1333.0,2561.0,-678.0,38.0,83.0,-89.0,109,43,132,84,133
2025-03-17 18:37:11.371,-2292.0,4035.0,-1499.0,-20.0,-137.0,-327.0,108,42,132,83,135
2025-03-17 18:37:11.392,-136.0,2112.0,-537.0,-303.0,-570.0,-592.0,110,43,130,83,129
2025-03-17 18:37:11.417,4646.0,-4068.0,4267.0,-82.0,-395.0,-299.0,97,43,133,86,135
2025-03-17 18:37:11.440,2922.0,-3265.0,2282.0,-5.0,193.0,-37.0,112,43,134,86,136
2025-03-17 18:37:11.465,-356.0,-2028.0,158.0,-104.0,97.0,55.0,110,43,133,87,136
2025-03-17 18:37:11.489,-540.0,-979.0,379.0,-90.0,19.0,101.0,115,47,140,92,141
2025-03-17 18:37:11.514,-493.0,-204.0,1436.0,-13.0,18.0,105.0,112,53,143,94,145
2025-03-17 18:37:11.532,-714.0,153.0,1504.0,-11.0,35.0,99.0,116,50,138,89,140
2025-03-17 18:37:11.559,-386.0,224.0,1565.0,-87.0,57.0,84.0,116,51,139,90,142
2025-03-17 18:37:11.584,-337.0,178.0,1412.0,-93.0,95.0,68.0,117,52,139,90,141
2025-03-17 18:37:11.609,-103.0,-112.0,1374.0,-69.0,175.0,79.0,112,45,132,86,136
2025-03-17 18:37:11.630,-39.0,-139.0,1185.0,-68.0,251.0,98.0,121,46,133,88,132
2025-03-17 18:37:11.658,-124.0,-361.0,745.0,-92.0,282.0,125.0,126,29,131,91,132
2025-03-17 18:37:11.682,-256.0,159.0,330.0,-98.0,266.0,114.0,128,41,131,91,119
2025-03-17 18:37:11.703,-653.0,-87.0,154.0,-52.0,210.0,141.0,135,49,138,74,109
2025-03-17 18:37:11.720,-525.0,-30.0,322.0,-71.0,225.0,148.0,136,45,146,72,79
2025-03-17 18:37:11.751,-332.0,386.0,144.0,-31.0,255.0,189.0,137,65,149,87,75
2025-03-17 18:37:11.776,-646.0,1163.0,-1332.0,-14.0,210.0,130.0,137,62,149,60,73
2025-03-17 18:37:11.802,-1949.0,2501.0,-2957.0,16.0,-139.0,-250.0,122,83,149,41,68
2025-03-17 18:37:11.826,-849.0,3333.0,-2741.0,-168.0,-478.0,-729.0,133,88,149,26,48
2025-03-17 18:37:11.850,621.0,1388.0,-2250.0,-236.0,-1034.0,-931.0,127,93,150,2,42
2025-03-17 18:37:11.873,6083.0,-1883.0,-779.0,-259.0,-1239.0,-643.0,115,86,151,1,39
2025-03-17 18:37:11.896,5130.0,-3933.0,1964.0,-63.0,-414.0,-80.0,125,68,152,4,47
2025-03-17 18:37:11.920,2825.0,-2930.0,1742.0,136.0,133.0,65.0,132,91,153,58,46
2025-03-17 18:37:11.945,842.0,-1492.0,1262.0,59.0,153.0,137.0,127,106,152,57,49
2025-03-17 18:37:11.969,493.0,-1286.0,1406.0,-21.0,150.0,191.0,133,107,153,56,50
2025-03-17 18:37:11.986,201.0,-1020.0,1195.0,13.0,221.0,209.0,133,108,156,63,50
2025-03-17 18:37:12.018,184.0,-782.0,774.0,71.0,311.0,211.0,131,108,149,66,45
2025-03-17 18:37:12.040,98.0,-539.0,405.0,148.0,348.0,234.0,131,112,151,59,46
2025-03-17 18:37:12.063,115.0,-285.0,343.0,151.0,381.0,249.0,131,100,149,67,47
2025-03-17 18:37:12.085,-89.0,-76.0,286.0,126.0,373.0,278.0,113,102,151,59,49
2025-03-17 18:37:12.113,-181.0,-69.0,96.0,121.0,350.0,304.0,122,100,152,45,46
2025-03-17 18:37:12.136,-335.0,232.0,-12.0,97.0,318.0,312.0,126,109,153,40,49
2025-03-17 18:37:12.162,-542.0,671.0,-322.0,14.0,256.0,292.0,127,112,152,59,49
2025-03-17 18:37:12.186,-1355.0,1361.0,-1227.0,-71.0,65.0,123.0,130,111,156,65,50
2025-03-17 18:37:12.211,-1710.0,2997.0,-1938.0,-31.0,-226.0,-382.0,129,109,152,72,47
2025-03-17 18:37:12.232,-541.0,2408.0,-1792.0,-205.0,-566.0,-745.0,120,94,150,64,47
2025-03-17 18:37:12.256,1306.0,902.0,-616.0,-134.0,-805.0,-876.0,119,104,150,69,48
2025-03-17 18:37:12.280,4041.0,-1969.0,324.0,-258.0,-829.0,-613.0,119,93,151,75,50
2025-03-17 18:37:12.303,4537.0,-4298.0,1511.0,-107.0,-175.0,-94.0,117,103,153,67,50
2025-03-17 18:37:12.327,2015.0,-2795.0,1334.0,209.0,211.0,69.0,115,93,152,73,55
2025-03-17 18:37:12.352,379.0,-1556.0,968.0,106.0,170.0,160.0,121,93,153,80,57
2025-03-17 18:37:12.378,225.0,-1565.0,738.0,197.0,192.0,181.0,122,102,155,73,60
2025-03-17 18:37:12.400,215.0,-1006.0,474.0,336.0,238.0,225.0,128,107,153,82,62
2025-03-17 18:37:12.424,83.0,-554.0,310.0,332.0,237.0,187.0,126,88,149,52,59
2025-03-17 18:37:12.449,-72.0,-651.0,524.0,320.0,202.0,206.0,132,88,149,43,58
2025-03-17 18:37:12.473,-102.0,-255.0,548.0,332.0,191.0,236.0,133,70,148,34,60
2025-03-17 18:37:12.497,-237.0,141.0,531.0,217.0,162.0,261.0,136,64,148,61,76
2025-03-17 18:37:12.522,-431.0,168.0,375.0,138.0,96.0,281.0,135,55,146,68,93
2025-03-17 18:37:12.543,-329.0,324.0,289.0,77.0,37.0,255.0,136,46,145,78,106
2025-03-17 18:37:12.568,-287.0,179.0,476.0,28.0,16.0,241.0,140,39,142,79,114
2025-03-17 18:37:12.591,-39.0,265.0,523.0,61.0,24.0,236.0,140,43,133,78,116
2025-03-17 18:37:12.616,-292.0,751.0,601.0,51.0,22.0,244.0,134,35,125,80,118
2025-03-17 18:37:12.640,-530.0,1717.0,258.0,47.0,1.0,151.0,136,38,124,76,124
2025-03-17 18:37:12.665,-1065.0,3307.0,-332.0,52.0,-59.0,-105.0,135,40,124,79,128
2025-03-17 18:37:12.690,-1396.0,3875.0,-954.0,93.0,-178.0,-370.0,129,40,126,67,113
2025-03-17 18:37:12.714,-1129.0,3862.0,-935.0,82.0,-437.0,-532.0,128,40,131,77,122
2025-03-17 18:37:12.726,1567.0,1625.0,525.0,-51.0,-670.0,-532.0,131,34,130,68,130
2025-03-17 18:37:12.757,3729.0,-1497.0,3350.0,87.0,-335.0,-322.0,133,39,132,78,133
2025-03-17 18:37:12.785,3028.0,-1655.0,3208.0,-130.0,44.0,-171.0,129,40,135,82,133
2025-03-17 18:37:12.806,1817.0,-2607.0,1421.0,-148.0,90.0,10.0,131,41,138,84,132
2025-03-17 18:37:12.833,852.0,-917.0,1073.0,-84.0,120.0,98.0,119,34,133,78,125
2025-03-17 18:37:12.854,144.0,-669.0,711.0,-25.0,140.0,156.0,136,43,133,78,129
2025-03-17 18:37:12.873,-128.0,-93.0,808.0,-28.0,84.0,200.0,136,44,136,75,126
2025-03-17 18:37:12.902,-43.0,84.0,960.0,-44.0,121.0,240.0,136,44,134,83,130
2025-03-17 18:37:12.928,-112.0,783.0,815.0,-41.0,135.0,221.0,117,44,135,65,133
2025-03-17 18:37:12.952,-175.0,665.0,825.0,-3.0,168.0,199.0,144,52,141,89,137
2025-03-17 18:37:12.977,-275.0,766.0,614.0,39.0,161.0,195.0,141,51,138,86,137
2025-03-17 18:37:13.000,-285.0,1023.0,552.0,60.0,157.0,139.0,132,48,138,86,137
2025-03-17 18:37:13.025,-496.0,1392.0,263.0,88.0,154.0,84.0,135,46,137,84,134
2025-03-17 18:37:13.050,-766.0,2150.0,-215.0,121.0,136.0,7.0,129,44,135,83,133
2025-03-17 18:37:13.073,-1406.0,3990.0,-1358.0,116.0,55.0,-299.0,124,44,136,83,134
2025-03-17 18:37:13.096,-2172.0,3943.0,-2317.0,-9.0,-282.0,-492.0,125,46,135,81,135
2025-03-17 18:37:13.114,1389.0,1770.0,-570.0,-178.0,-775.0,-613.0,136,47,139,78,133
2025-03-17 18:37:13.144,4567.0,-2796.0,3344.0,-31.0,-453.0,-309.0,139,40,140,80,135
2025-03-17 18:37:13.169,3644.0,-3064.0,3417.0,-86.0,133.0,-93.0,137,48,142,88,133
2025-03-17 18:37:13.193,1421.0,-2893.0,1288.0,-123.0,97.0,87.0,142,51,142,87,130
2025-03-17 18:37:13.205,353.0,-1762.0,883.0,-96.0,46.0,138.0,141,49,139,83,131
2025-03-17 18:37:13.239,-317.0,-508.0,1169.0,2.0,85.0,176.0,136,47,136,69,109
2025-03-17 18:37:13.264,-783.0,554.0,1480.0,-101.0,93.0,164.0,139,50,137,84,130
2025-03-17 18:37:13.289,-433.0,329.0,1494.0,-104.0,130.0,141.0,139,49,136,84,134
2025-03-17 18:37:13.313,-235.0,396.0,1592.0,-82.0,200.0,133.0,140,43,132,78,132
2025-03-17 18:37:13.337,-232.0,239.0,1329.0,-134.0,263.0,148.0,143,44,132,86,124
2025-03-17 18:37:13.350,-61.0,159.0,1036.0,-118.0,303.0,161.0,145,47,130,69,82
2025-03-17 18:37:13.386,-43.0,409.0,853.0,-102.0,339.0,163.0,143,48,131,31,88
2025-03-17 18:37:13.404,-206.0,671.0,687.0,-167.0,360.0,158.0,143,47,133,11,81
2025-03-17 18:37:13.430,-324.0,463.0,253.0,-192.0,362.0,179.0,135,51,127,20,65
2025-03-17 18:37:13.456,-348.0,1647.0,-1437.0,-88.0,316.0,146.0,139,47,122,35,79
2025-03-17 18:37:13.479,-1247.0,3256.0,-3547.0,-5.0,21.0,-269.0,139,44,116,13,51
2025-03-17 18:37:13.501,-342.0,3443.0,-2666.0,-126.0,-321.0,-743.0,138,41,109,0,36
2025-03-17 18:37:13.530,499.0,1462.0,-2511.0,-127.0,-684.0,-994.0,126,33,107,2,33
2025-03-17 18:37:13.554,4674.0,831.0,-1196.0,-43.0,-1112.0,-890.0,124,34,108,27,33
2025-03-17 18:37:13.579,6916.0,-5329.0,2702.0,-301.0,-436.0,-207.0,120,28,110,52,35
2025-03-17 18:37:13.600,3095.0,-5725.0,1215.0,307.0,281.0,83.0,118,33,108,50,38
2025-03-17 18:37:13.624,231.0,-937.0,1002.0,66.0,113.0,202.0,119,40,111,48,41
2025-03-17 18:37:13.648,136.0,-2016.0,1462.0,-50.0,118.0,185.0,112,36,107,50,38
2025-03-17 18:37:13.673,-4.0,-1151.0,1085.0,-27.0,183.0,288.0,110,43,108,54,37
2025-03-17 18:37:13.697,-91.0,-613.0,625.0,-44.0,183.0,271.0,111,37,108,50,37
2025-03-17 18:37:13.722,-183.0,-510.0,532.0,-40.0,171.0,249.0,111,32,109,58,38
2025-03-17 18:37:13.743,-26.0,-664.0,608.0,-29.0,186.0,256.0,113,39,110,56,40
2025-03-17 18:37:13.768,-41.0,-586.0,491.0,22.0,253.0,303.0,116,37,111,58,40
2025-03-17 18:37:13.792,-62.0,-349.0,236.0,59.0,252.0,341.0,117,40,112,57,41
2025-03-17 18:37:13.816,-135.0,-98.0,107.0,120.0,271.0,364.0,119,37,112,51,42
2025-03-17 18:37:13.841,-160.0,264.0,-476.0,171.0,249.0,412.0,120,39,112,55,39
2025-03-17 18:37:13.866,-31.0,1348.0,-1397.0,259.0,205.0,362.0,120,37,111,56,40
2025-03-17 18:37:13.890,-942.0,3802.0,-3029.0,215.0,46.0,-46.0,114,36,108,56,39
2025-03-17 18:37:13.914,-1016.0,4714.0,-4040.0,-17.0,-389.0,-674.0,103,42,107,59,38
2025-03-17 18:37:13.935,694.0,3376.0,-4062.0,-104.0,-989.0,-1037.0,100,39,106,64,40
2025-03-17 18:37:13.956,8363.0,-331.0,894.0,15.0,-1274.0,-875.0,104,38,109,61,40
2025-03-17 18:37:13.982,7873.0,-5375.0,5647.0,-155.0,-203.0,-168.0,92,32,110,62,42
2025-03-17 18:37:13.999,1764.0,-4668.0,1554.0,336.0,309.0,83.0,101,31,109,61,44
2025-03-17 18:37:14.030,-437.0,-560.0,849.0,-150.0,67.0,52.0,102,25,112,67,48
2025-03-17 18:37:14.058,-338.0,-1473.0,599.0,58.0,136.0,77.0,96,40,106,63,42
2025-03-17 18:37:14.079,-877.0,-154.0,177.0,-1.0,69.0,5.0,100,42,110,65,45
2025-03-17 18:37:14.103,-476.0,-371.0,389.0,-59.0,-28.0,-38.0,100,42,109,65,43
2025-03-17 18:37:14.120,236.0,-1086.0,773.0,-42.0,-28.0,-22.0,101,41,109,66,42
2025-03-17 18:37:14.153,192.0,-764.0,700.0,23.0,20.0,16.0,102,41,110,65,44
2025-03-17 18:37:14.176,-111.0,-487.0,541.0,15.0,6.0,14.0,101,43,111,68,45
2025-03-17 18:37:14.201,-127.0,-563.0,593.0,-6.0,-4.0,0.0,103,43,111,67,45
2025-03-17 18:37:14.225,-29.0,-626.0,733.0,3.0,13.0,1.0,105,44,110,67,45
2025-03-17 18:37:14.247,-107.0,-620.0,693.0,-4.0,4.0,-4.0,105,42,109,66,43
2025-03-17 18:37:14.271,-66.0,-736.0,732.0,-6.0,-5.0,-2.0,103,41,109,66,43
2025-03-17 18:37:14.296,-77.0,-721.0,691.0,3.0,1.0,1.0,104,45,109,64,44
2025-03-17 18:37:14.320,-36.0,-662.0,729.0,-2.0,3.0,0.0,104,44,110,65,44
2025-03-17 18:37:14.345,-72.0,-673.0,716.0,-9.0,-2.0,2.0,105,46,113,65,44
2025-03-17 18:37:14.369,-163.0,-585.0,673.0,-1.0,-9.0,-5.0,106,45,110,67,45
2025-03-17 18:37:14.394,-71.0,-690.0,781.0,-4.0,-9.0,-10.0,106,46,111,67,46
2025-03-17 18:37:14.412,-49.0,-750.0,852.0,-6.0,8.0,-6.0,108,48,113,68,47
2025-03-17 18:37:14.439,-146.0,-762.0,732.0,1.0,11.0,-2.0,108,48,113,70,48
2025-03-17 18:37:14.464,-129.0,-707.0,704.0,-11.0,0.0,-8.0,103,45,110,66,44
2025-03-17 18:37:14.488,-56.0,-740.0,733.0,-19.0,-4.0,-7.0,106,45,111,67,45
2025-03-17 18:37:14.512,-38.0,-838.0,747.0,0.0,11.0,1.0,104,44,111,71,44
2025-03-17 18:37:14.537,-99.0,-725.0,684.0,0.0,9.0,2.0,106,45,110,71,44
2025-03-17 18:37:14.562,-100.0,-744.0,701.0,-6.0,0.0,0.0,107,47,113,68,48
2025-03-17 18:37:14.582,-96.0,-737.0,708.0,-1.0,2.0,0.0,107,47,113,68,47
2025-03-17 18:37:14.598,-116.0,-700.0,667.0,-3.0,0.0,-1.0,107,46,112,68,47
2025-03-17 18:37:14.632,-70.0,-752.0,694.0,1.0,1.0,2.0,107,47,113,68,46
2025-03-17 18:37:14.656,-106.0,-720.0,690.0,4.0,-3.0,3.0,107,48,112,69,46
2025-03-17 18:37:14.679,-77.0,-715.0,702.0,4.0,2.0,1.0,105,46,110,67,45
2025-03-17 18:37:14.705,-99.0,-716.0,713.0,-6.0,-4.0,0.0,105,45,111,66,43
2025-03-17 18:37:14.730,-84.0,-723.0,746.0,-1.0,-2.0,0.0,105,45,112,67,44
2025-03-17 18:37:14.750,-78.0,-704.0,731.0,0.0,3.0,-1.0,107,46,110,68,46
2025-03-17 18:37:14.776,-110.0,-732.0,696.0,-7.0,-2.0,-1.0,107,47,112,69,46
2025-03-17 18:37:14.792,-128.0,-714.0,702.0,-6.0,-6.0,-3.0,107,42,112,69,46
2025-03-17 18:37:14.824,-62.0,-756.0,738.0,2.0,3.0,-1.0,108,47,113,68,46
2025-03-17 18:37:14.848,-74.0,-744.0,701.0,-4.0,2.0,1.0,108,47,113,69,46
2025-03-17 18:37:14.873,-109.0,-728.0,695.0,-3.0,-2.0,1.0,106,45,110,67,44
2025-03-17 18:37:14.897,-92.0,-708.0,681.0,-6.0,-4.0,-3.0,110,45,112,67,45
2025-03-17 18:37:14.921,-54.0,-754.0,714.0,-6.0,-4.0,-2.0,107,46,110,67,45
2025-03-17 18:37:14.938,-86.0,-763.0,724.0,1.0,2.0,3.0,106,46,111,68,45
2025-03-17 18:37:14.968,-82.0,-734.0,717.0,0.0,0.0,3.0,107,47,113,69,46
2025-03-17 18:37:14.993,-103.0,-753.0,726.0,-3.0,0.0,4.0,108,48,113,70,47
2025-03-17 18:37:15.017,-137.0,-701.0,742.0,2.0,4.0,4.0,109,47,113,72,46
2025-03-17 18:37:15.041,-149.0,-664.0,688.0,3.0,2.0,-2.0,105,47,112,69,46
2025-03-17 18:37:15.065,-109.0,-734.0,704.0,-4.0,-5.0,-3.0,108,47,112,69,46
2025-03-17 18:37:15.090,-105.0,-719.0,710.0,-4.0,-6.0,-3.0,106,45,110,67,45
2025-03-17 18:37:15.108,-49.0,-787.0,747.0,0.0,-1.0,-1.0,106,45,111,68,45
2025-03-17 18:37:15.135,-90.0,-708.0,721.0,1.0,4.0,0.0,107,45,111,68,45
2025-03-17 18:37:15.157,-121.0,-694.0,692.0,-2.0,1.0,-1.0,108,46,112,69,47
2025-03-17 18:37:15.185,-122.0,-680.0,666.0,-11.0,-8.0,-4.0,107,47,112,69,47
2025-03-17 18:37:15.205,-92.0,-712.0,730.0,-14.0,-8.0,-7.0,109,47,113,70,46
2025-03-17 18:37:15.233,-59.0,-777.0,731.0,5.0,7.0,-1.0,108,47,112,70,47
2025-03-17 18:37:15.258,-96.0,-729.0,677.0,-2.0,3.0,-2.0,108,47,113,66,47
2025-03-17 18:37:15.279,-86.0,-783.0,704.0,-5.0,-1.0,0.0,107,45,110,69,45
2025-03-17 18:37:15.296,-93.0,-715.0,724.0,-1.0,3.0,1.0,107,45,111,69,46
2025-03-17 18:37:15.327,-115.0,-730.0,694.0,0.0,1.0,-1.0,106,45,111,69,44
2025-03-17 18:37:15.352,-104.0,-741.0,701.0,-4.0,-1.0,-1.0,108,46,111,70,45
2025-03-17 18:37:15.376,-95.0,-741.0,713.0,-4.0,-1.0,-1.0,108,47,112,70,47
2025-03-17 18:37:15.401,-61.0,-760.0,718.0,1.0,3.0,2.0,109,47,113,71,47
2025-03-17 18:37:15.425,-123.0,-730.0,708.0,0.0,2.0,4.0,109,48,113,72,47
2025-03-17 18:37:15.447,-132.0,-676.0,702.0,-5.0,0.0,-2.0,109,47,112,71,48
2025-03-17 18:37:15.471,-87.0,-762.0,701.0,-3.0,0.0,-2.0,109,47,113,71,47
2025-03-17 18:37:15.496,-108.0,-737.0,698.0,-2.0,-2.0,0.0,107,45,110,70,46
2025-03-17 18:37:15.521,-121.0,-689.0,681.0,-10.0,-5.0,-3.0,106,45,110,69,45
2025-03-17 18:37:15.545,-99.0,-705.0,674.0,-18.0,-11.0,-6.0,107,45,111,69,48
2025-03-17 18:37:15.569,-79.0,-785.0,708.0,-11.0,-5.0,-4.0,107,47,112,70,47
2025-03-17 18:37:15.593,-68.0,-760.0,696.0,4.0,4.0,0.0,109,47,113,71,48
2025-03-17 18:37:15.615,-87.0,-750.0,694.0,4.0,3.0,2.0,110,47,115,70,48
2025-03-17 18:37:15.640,-121.0,-702.0,704.0,1.0,0.0,-1.0,109,47,114,71,49
