timestamp,ax,ay,az,gx,gy,gz,flex1,flex2,flex3,flex4,flex5,emg1,emg2,emg3
2025-03-17 18:29:13.713,-287.0,-921.0,343.0,-3.0,0.0,-3.0,128,86,145,97,109
2025-03-17 18:29:13.713,-283.0,-925.0,342.0,-2.0,0.0,-2.0,128,81,145,97,109
2025-03-17 18:29:13.718,-295.0,-925.0,336.0,-2.0,-1.0,-1.0,128,86,145,97,108
2025-03-17 18:29:13.720,-298.0,-911.0,336.0,-1.0,-1.0,0.0,128,87,147,96,107
2025-03-17 18:29:13.723,-310.0,-903.0,321.0,-1.0,0.0,0.0,129,85,145,97,108
2025-03-17 18:29:13.726,-311.0,-896.0,314.0,-2.0,-1.0,-1.0,128,84,146,97,109
2025-03-17 18:29:13.726,-314.0,-892.0,311.0,-1.0,-3.0,-2.0,129,87,146,97,109
2025-03-17 18:29:13.726,-307.0,-896.0,324.0,-1.0,-3.0,-3.0,129,88,146,97,109
2025-03-17 18:29:13.726,-304.0,-904.0,331.0,-1.0,-1.0,-3.0,129,87,146,97,109
2025-03-17 18:29:13.726,-296.0,-917.0,328.0,-2.0,-2.0,-3.0,129,89,147,97,109
2025-03-17 18:29:13.738,-295.0,-926.0,331.0,-1.0,-2.0,-3.0,127,89,145,97,108
2025-03-17 18:29:13.740,-294.0,-922.0,328.0,0.0,-3.0,-3.0,128,86,145,97,109
2025-03-17 18:29:13.755,-290.0,-930.0,330.0,0.0,-3.0,-2.0,128,87,145,97,109
2025-03-17 18:29:13.779,-288.0,-928.0,344.0,1.0,-2.0,-1.0,128,89,145,97,111
2025-03-17 18:29:13.807,-288.0,-923.0,341.0,1.0,-2.0,-2.0,128,89,145,98,110
2025-03-17 18:29:13.832,-287.0,-921.0,354.0,1.0,-2.0,-2.0,129,88,146,96,109
2025-03-17 18:29:13.856,-293.0,-936.0,351.0,0.0,-1.0,-1.0,126,90,148,98,110
2025-03-17 18:29:13.878,-283.0,-930.0,344.0,0.0,-1.0,0.0,128,89,147,98,110
2025-03-17 18:29:13.906,-291.0,-922.0,341.0,0.0,-1.0,1.0,129,88,146,99,109
2025-03-17 18:29:13.927,-300.0,-902.0,333.0,-1.0,-2.0,1.0,127,86,145,96,109
2025-03-17 18:29:13.950,-296.0,-903.0,333.0,-1.0,-2.0,-1.0,128,87,145,96,108
2025-03-17 18:29:13.975,-291.0,-902.0,333.0,-1.0,-2.0,-2.0,127,86,146,97,109
2025-03-17 18:29:13.998,-290.0,-909.0,340.0,0.0,-2.0,-2.0,128,88,146,97,108
2025-03-17 18:29:14.024,-285.0,-917.0,343.0,0.0,-2.0,-2.0,129,88,146,96,110
2025-03-17 18:29:14.048,-285.0,-916.0,343.0,2.0,-3.0,-2.0,129,87,147,97,110
2025-03-17 18:29:14.073,-280.0,-926.0,348.0,2.0,-2.0,-2.0,130,87,146,97,109
2025-03-17 18:29:14.095,-279.0,-928.0,355.0,2.0,-3.0,0.0,128,86,146,98,109
2025-03-17 18:29:14.120,-288.0,-924.0,362.0,3.0,-3.0,1.0,129,88,145,98,109
2025-03-17 18:29:14.143,-290.0,-907.0,357.0,2.0,-2.0,2.0,129,87,145,97,109
2025-03-17 18:29:14.168,-302.0,-902.0,357.0,0.0,-1.0,1.0,128,86,146,96,109
2025-03-17 18:29:14.186,-302.0,-896.0,346.0,0.0,-2.0,1.0,128,87,145,97,110
2025-03-17 18:29:14.216,-303.0,-898.0,349.0,0.0,-2.0,0.0,128,88,145,98,111
2025-03-17 18:29:14.241,-295.0,-899.0,355.0,-1.0,-2.0,0.0,129,87,146,98,110
2025-03-17 18:29:14.260,-294.0,-909.0,354.0,-2.0,0.0,-1.0,129,88,146,100,110
2025-03-17 18:29:14.284,-292.0,-908.0,354.0,-2.0,0.0,0.0,129,87,147,97,109
2025-03-17 18:29:14.301,-291.0,-908.0,348.0,-3.0,-1.0,0.0,129,85,146,98,110
2025-03-17 18:29:14.336,-291.0,-907.0,350.0,-2.0,-1.0,1.0,128,87,145,96,108
2025-03-17 18:29:14.361,-292.0,-902.0,344.0,-1.0,0.0,0.0,127,87,146,98,109
2025-03-17 18:29:14.380,-296.0,-904.0,343.0,0.0,-2.0,0.0,128,87,146,96,109
2025-03-17 18:29:14.409,-293.0,-911.0,354.0,1.0,-1.0,0.0,128,87,146,97,109
2025-03-17 18:29:14.429,-299.0,-899.0,356.0,0.0,-1.0,0.0,128,88,147,97,110
2025-03-17 18:29:14.453,-303.0,-908.0,355.0,-1.0,-1.0,-1.0,128,87,146,98,110
2025-03-17 18:29:14.477,-294.0,-911.0,350.0,0.0,-1.0,-1.0,128,87,146,99,110
2025-03-17 18:29:14.504,-300.0,-910.0,353.0,-1.0,-2.0,-1.0,128,87,146,98,110
2025-03-17 18:29:14.528,-288.0,-911.0,355.0,-1.0,-1.0,-1.0,129,87,146,97,109
2025-03-17 18:29:14.553,-292.0,-918.0,357.0,0.0,-1.0,-1.0,129,87,145,97,109
2025-03-17 18:29:14.574,-292.0,-907.0,346.0,-1.0,0.0,-1.0,127,85,146,97,109
2025-03-17 18:29:14.602,-296.0,-906.0,343.0,-1.0,-1.0,-1.0,128,87,146,96,108
2025-03-17 18:29:14.624,-297.0,-910.0,348.0,-1.0,0.0,0.0,129,88,147,98,111
2025-03-17 18:29:14.647,-302.0,-901.0,338.0,-1.0,-1.0,0.0,128,86,146,97,110
2025-03-17 18:29:14.671,-306.0,-890.0,335.0,0.0,-2.0,0.0,129,88,151,99,110
2025-03-17 18:29:14.695,-306.0,-893.0,335.0,-1.0,-3.0,-1.0,128,88,147,98,111
2025-03-17 18:29:14.719,-299.0,-895.0,343.0,-1.0,-3.0,-2.0,129,89,147,98,109
2025-03-17 18:29:14.743,-299.0,-893.0,344.0,-1.0,-3.0,-2.0,128,87,144,97,109
2025-03-17 18:29:14.767,-299.0,-901.0,343.0,0.0,-3.0,-3.0,127,87,146,97,110
2025-03-17 18:29:14.786,-293.0,-915.0,347.0,1.0,-3.0,-3.0,128,86,146,97,109
2025-03-17 18:29:14.816,-286.0,-925.0,361.0,1.0,-3.0,-3.0,128,88,146,96,109
2025-03-17 18:29:14.840,-281.0,-934.0,369.0,1.0,-3.0,-1.0,129,88,145,96,110
2025-03-17 18:29:14.864,-281.0,-921.0,370.0,0.0,-3.0,0.0,129,88,146,98,110
2025-03-17 18:29:14.889,-289.0,-917.0,364.0,0.0,-2.0,0.0,129,88,146,99,110
2025-03-17 18:29:14.913,-290.0,-915.0,362.0,0.0,-1.0,0.0,128,88,146,98,110
2025-03-17 18:29:14.935,-292.0,-908.0,361.0,0.0,-2.0,0.0,128,88,147,98,111
2025-03-17 18:29:14.959,-294.0,-907.0,361.0,0.0,-2.0,0.0,128,87,145,97,110
2025-03-17 18:29:14.983,-305.0,-906.0,366.0,1.0,-2.0,0.0,128,89,145,98,109
2025-03-17 18:29:15.004,-303.0,-900.0,368.0,0.0,-1.0,0.0,128,87,146,97,109
2025-03-17 18:29:15.028,-294.0,-900.0,367.0,-2.0,0.0,-1.0,128,88,146,97,110
2025-03-17 18:29:15.057,-289.0,-910.0,359.0,-1.0,0.0,0.0,128,88,146,98,110
2025-03-17 18:29:15.081,-285.0,-905.0,359.0,-1.0,-1.0,0.0,129,89,147,98,111
2025-03-17 18:29:15.105,-281.0,-906.0,358.0,0.0,-2.0,-1.0,128,88,146,98,110
2025-03-17 18:29:15.127,-284.0,-904.0,361.0,0.0,-1.0,0.0,128,88,147,98,110
2025-03-17 18:29:15.150,-290.0,-900.0,361.0,0.0,-2.0,0.0,127,86,145,97,109
2025-03-17 18:29:15.176,-293.0,-909.0,367.0,0.0,-2.0,0.0,127,86,146,96,109
2025-03-17 18:29:15.199,-289.0,-903.0,372.0,0.0,0.0,0.0,127,87,145,97,110
2025-03-17 18:29:15.225,-295.0,-899.0,366.0,-1.0,-1.0,0.0,127,87,145,97,110
2025-03-17 18:29:15.249,-297.0,-903.0,363.0,-1.0,-1.0,-1.0,128,88,147,97,110
2025-03-17 18:29:15.274,-291.0,-912.0,365.0,0.0,-1.0,0.0,128,88,146,99,111
2025-03-17 18:29:15.295,-284.0,-912.0,370.0,-2.0,-1.0,0.0,128,88,146,99,110
2025-03-17 18:29:15.319,-292.0,-915.0,366.0,-2.0,-1.0,1.0,128,88,146,98,110
2025-03-17 18:29:15.344,-299.0,-909.0,368.0,-1.0,0.0,1.0,128,85,146,98,109
2025-03-17 18:29:15.368,-295.0,-893.0,348.0,3.0,-2.0,1.0,129,85,145,97,110
2025-03-17 18:29:15.392,-305.0,-904.0,355.0,0.0,-1.0,2.0,128,88,145,97,108
2025-03-17 18:29:15.417,-319.0,-891.0,364.0,-1.0,-1.0,1.0,128,86,145,98,108
2025-03-17 18:29:15.442,-315.0,-896.0,352.0,-1.0,-2.0,0.0,127,86,146,98,114
2025-03-17 18:29:15.463,-316.0,-887.0,349.0,2.0,-2.0,-1.0,129,89,148,96,109
2025-03-17 18:29:15.485,-308.0,-899.0,335.0,-1.0,-3.0,-1.0,128,88,146,98,109
2025-03-17 18:29:15.511,-309.0,-914.0,304.0,-3.0,-3.0,-1.0,128,87,146,98,110
2025-03-17 18:29:15.536,-300.0,-900.0,340.0,-1.0,-4.0,-2.0,129,87,147,98,110
2025-03-17 18:29:15.561,-288.0,-898.0,355.0,-1.0,-4.0,-2.0,126,86,145,97,112
2025-03-17 18:29:15.585,-301.0,-896.0,354.0,-5.0,-3.0,-3.0,128,86,146,97,109
2025-03-17 18:29:15.610,-292.0,-915.0,353.0,-25.0,2.0,-3.0,128,85,146,96,109
2025-03-17 18:29:15.630,-333.0,-980.0,249.0,-40.0,1.0,1.0,125,84,145,97,109
2025-03-17 18:29:15.655,-276.0,-942.0,411.0,22.0,-7.0,-3.0,126,79,148,97,110
2025-03-17 18:29:15.677,-296.0,-917.0,359.0,11.0,-8.0,-2.0,128,82,146,98,111
2025-03-17 18:29:15.704,-302.0,-839.0,338.0,-12.0,-5.0,-8.0,127,86,146,98,110
2025-03-17 18:29:15.728,-276.0,-863.0,341.0,-9.0,-7.0,-9.0,127,85,146,97,110
2025-03-17 18:29:15.750,-254.0,-855.0,333.0,28.0,-11.0,-13.0,128,84,146,98,111
2025-03-17 18:29:15.775,-279.0,-871.0,440.0,23.0,-13.0,-9.0,127,86,144,96,109
2025-03-17 18:29:15.799,-271.0,-876.0,354.0,9.0,-13.0,-10.0,129,87,145,98,108
2025-03-17 18:29:15.823,-251.0,-897.0,358.0,-5.0,-15.0,-12.0,127,90,146,98,108
2025-03-17 18:29:15.847,-230.0,-962.0,379.0,24.0,-27.0,-10.0,129,89,147,97,110
2025-03-17 18:29:15.872,-214.0,-991.0,465.0,31.0,-15.0,-4.0,129,88,146,98,110
2025-03-17 18:29:15.888,-214.0,-953.0,446.0,-11.0,4.0,0.0,129,86,147,98,111
2025-03-17 18:29:15.921,-249.0,-914.0,385.0,-6.0,3.0,1.0,128,86,148,104,109
2025-03-17 18:29:15.945,-251.0,-905.0,390.0,-1.0,0.0,0.0,128,86,146,97,109
2025-03-17 18:29:15.967,-260.0,-888.0,363.0,-4.0,0.0,-1.0,126,86,145,97,109
2025-03-17 18:29:15.991,-279.0,-897.0,389.0,3.0,1.0,-1.0,129,84,145,97,110
2025-03-17 18:29:16.016,-269.0,-899.0,401.0,13.0,1.0,0.0,126,81,146,98,109
2025-03-17 18:29:16.040,-271.0,-883.0,405.0,5.0,5.0,0.0,128,84,144,97,110
2025-03-17 18:29:16.065,-276.0,-894.0,389.0,3.0,0.0,-2.0,128,86,147,98,110
2025-03-17 18:29:16.088,-258.0,-927.0,404.0,3.0,-1.0,-3.0,128,88,146,97,110
2025-03-17 18:29:16.113,-252.0,-917.0,408.0,-7.0,0.0,-3.0,128,80,145,99,110
2025-03-17 18:29:16.125,-250.0,-931.0,391.0,0.0,-2.0,-2.0,128,85,146,98,110
2025-03-17 18:29:16.159,-241.0,-931.0,405.0,-1.0,-3.0,0.0,127,87,146,98,110
2025-03-17 18:29:16.183,-248.0,-911.0,409.0,-3.0,-3.0,1.0,127,86,145,97,109
2025-03-17 18:29:16.208,-261.0,-919.0,406.0,1.0,-3.0,1.0,126,84,146,98,109
2025-03-17 18:29:16.229,-266.0,-912.0,420.0,-4.0,-3.0,2.0,127,85,146,96,110
2025-03-17 18:29:16.257,-280.0,-947.0,439.0,-3.0,-4.0,2.0,128,86,144,98,110
2025-03-17 18:29:16.281,-277.0,-969.0,490.0,-6.0,0.0,3.0,128,86,146,98,110
2025-03-17 18:29:16.306,-274.0,-958.0,484.0,-12.0,5.0,5.0,130,86,146,97,110
2025-03-17 18:29:16.326,-265.0,-925.0,452.0,-20.0,8.0,5.0,129,84,146,98,110
2025-03-17 18:29:16.350,-267.0,-893.0,370.0,-30.0,7.0,5.0,127,85,147,98,109
2025-03-17 18:29:16.376,-258.0,-888.0,334.0,-19.0,4.0,4.0,126,84,145,96,107
2025-03-17 18:29:16.401,-250.0,-871.0,309.0,-16.0,1.0,5.0,127,85,145,97,101
2025-03-17 18:29:16.425,-230.0,-896.0,288.0,-11.0,0.0,5.0,126,83,146,97,103
2025-03-17 18:29:16.449,-237.0,-890.0,280.0,-9.0,-1.0,7.0,127,81,146,99,98
2025-03-17 18:29:16.473,-252.0,-888.0,251.0,-2.0,-9.0,8.0,127,82,146,98,104
2025-03-17 18:29:16.495,-254.0,-906.0,284.0,1.0,-13.0,8.0,127,86,146,98,101
2025-03-17 18:29:16.520,-250.0,-885.0,315.0,1.0,-11.0,9.0,127,86,147,98,102
2025-03-17 18:29:16.544,-279.0,-884.0,333.0,-2.0,-13.0,8.0,127,87,146,99,104
2025-03-17 18:29:16.569,-289.0,-897.0,353.0,-3.0,-14.0,9.0,129,84,146,97,104
2025-03-17 18:29:16.593,-290.0,-879.0,347.0,-4.0,-13.0,9.0,126,89,145,97,102
2025-03-17 18:29:16.617,-312.0,-897.0,357.0,-2.0,-12.0,8.0,126,84,146,97,106
2025-03-17 18:29:16.642,-322.0,-927.0,381.0,-1.0,-9.0,10.0,127,86,146,97,107
2025-03-17 18:29:16.663,-343.0,-903.0,402.0,0.0,-6.0,11.0,128,87,146,97,107
2025-03-17 18:29:16.687,-355.0,-904.0,401.0,-2.0,-6.0,10.0,127,86,146,97,108
2025-03-17 18:29:16.712,-356.0,-901.0,418.0,-4.0,-4.0,10.0,127,89,146,97,107
2025-03-17 18:29:16.736,-347.0,-862.0,425.0,-5.0,-1.0,8.0,126,88,146,98,109
2025-03-17 18:29:16.760,-344.0,-870.0,395.0,-6.0,3.0,6.0,128,87,146,98,109
2025-03-17 18:29:16.785,-323.0,-857.0,375.0,-4.0,5.0,5.0,126,85,145,97,108
2025-03-17 18:29:16.810,-328.0,-858.0,392.0,-3.0,5.0,4.0,126,86,144,97,107
2025-03-17 18:29:16.831,-331.0,-855.0,367.0,1.0,4.0,1.0,126,85,144,98,109
2025-03-17 18:29:16.853,-312.0,-828.0,358.0,1.0,3.0,-1.0,127,83,145,98,107
2025-03-17 18:29:16.878,-308.0,-830.0,354.0,-2.0,2.0,-4.0,126,86,146,98,108
2025-03-17 18:29:16.894,-322.0,-856.0,360.0,3.0,2.0,-6.0,127,87,146,97,109
2025-03-17 18:29:16.927,-317.0,-841.0,347.0,7.0,-1.0,-8.0,127,85,146,98,110
2025-03-17 18:29:16.953,-305.0,-852.0,377.0,7.0,-1.0,-11.0,126,86,146,99,110
2025-03-17 18:29:16.978,-314.0,-915.0,392.0,9.0,-2.0,-13.0,128,85,146,98,110
2025-03-17 18:29:16.999,-302.0,-951.0,410.0,6.0,-3.0,-10.0,130,81,145,96,110
2025-03-17 18:29:17.023,-275.0,-1003.0,430.0,0.0,0.0,-10.0,126,82,145,97,109
2025-03-17 18:29:17.048,-275.0,-1019.0,415.0,-7.0,3.0,-3.0,126,84,145,97,109
2025-03-17 18:29:17.073,-275.0,-1017.0,397.0,-14.0,5.0,3.0,127,81,146,97,109
2025-03-17 18:29:17.097,-273.0,-994.0,364.0,-16.0,7.0,7.0,126,85,147,96,109
2025-03-17 18:29:17.120,-298.0,-936.0,330.0,-17.0,5.0,11.0,128,83,146,97,110
2025-03-17 18:29:17.145,-312.0,-832.0,335.0,-20.0,5.0,12.0,128,82,145,99,109
2025-03-17 18:29:17.167,-367.0,-722.0,378.0,-19.0,3.0,14.0,126,82,146,97,109
2025-03-17 18:29:17.191,-443.0,-434.0,367.0,-14.0,0.0,12.0,127,69,144,97,109
2025-03-17 18:29:17.215,-565.0,-202.0,142.0,13.0,-8.0,-6.0,128,75,144,96,107
2025-03-17 18:29:17.240,-566.0,-280.0,83.0,48.0,-40.0,-50.0,126,67,143,93,107
2025-03-17 18:29:17.265,-393.0,-597.0,169.0,70.0,-92.0,-85.0,126,60,140,91,105
2025-03-17 18:29:17.276,97.0,-1142.0,610.0,12.0,-80.0,-95.0,125,53,136,86,100
2025-03-17 18:29:17.313,319.0,-2146.0,1300.0,-126.0,40.0,-21.0,112,45,122,78,70
2025-03-17 18:29:17.338,657.0,-2862.0,833.0,-153.0,148.0,85.0,127,42,117,65,55
2025-03-17 18:29:17.357,510.0,-2575.0,432.0,-127.0,181.0,195.0,124,41,109,53,47
2025-03-17 18:29:17.384,-335.0,-1628.0,-426.0,-114.0,138.0,225.0,124,40,108,49,44
2025-03-17 18:29:17.409,-274.0,-1438.0,-248.0,-79.0,38.0,276.0,114,37,104,46,42
2025-03-17 18:29:17.433,-373.0,-706.0,-24.0,41.0,0.0,317.0,116,39,106,44,40
2025-03-17 18:29:17.454,-619.0,383.0,-99.0,58.0,43.0,262.0,107,38,104,42,34
2025-03-17 18:29:17.482,-975.0,927.0,220.0,-39.0,-12.0,130.0,105,41,104,45,41
2025-03-17 18:29:17.506,-750.0,291.0,483.0,-14.0,86.0,90.0,103,41,105,46,43
2025-03-17 18:29:17.527,-955.0,171.0,156.0,37.0,103.0,73.0,98,42,106,56,45
2025-03-17 18:29:17.551,-949.0,669.0,192.0,77.0,56.0,64.0,102,42,106,56,43
2025-03-17 18:29:17.574,-1068.0,2540.0,-247.0,173.0,13.0,-73.0,104,43,106,58,43
2025-03-17 18:29:17.599,-824.0,4041.0,-916.0,155.0,-123.0,-498.0,102,42,106,57,40
2025-03-17 18:29:17.625,250.0,3950.0,-952.0,15.0,-319.0,-1077.0,101,40,105,51,41
2025-03-17 18:29:17.647,6409.0,854.0,-295.0,-371.0,-815.0,-1359.0,83,35,105,57,41
2025-03-17 18:29:17.674,6132.0,-14547.0,-842.0,-109.0,315.0,92.0,98,36,105,54,42
2025-03-17 18:29:17.696,1535.0,-584.0,-2151.0,374.0,97.0,307.0,100,34,106,59,42
2025-03-17 18:29:17.719,1041.0,-1130.0,564.0,-233.0,-86.0,207.0,102,38,108,61,42
2025-03-17 18:29:17.744,162.0,-2253.0,480.0,-31.0,11.0,324.0,97,36,107,59,42
2025-03-17 18:29:17.768,-715.0,-179.0,52.0,-80.0,39.0,320.0,98,40,108,54,42
2025-03-17 18:29:17.793,-216.0,-16.0,240.0,-66.0,-27.0,211.0,104,48,108,59,44
2025-03-17 18:29:17.817,-25.0,-554.0,76.0,-137.0,-1.0,128.0,106,38,108,55,43
2025-03-17 18:29:17.842,-410.0,-984.0,-239.0,-122.0,34.0,174.0,109,43,109,39,43
2025-03-17 18:29:17.863,-289.0,-694.0,-30.0,-3.0,-26.0,202.0,111,43,109,44,42
2025-03-17 18:29:17.888,-203.0,-401.0,238.0,-13.0,-18.0,192.0,110,41,110,47,43
2025-03-17 18:29:17.912,-438.0,-538.0,97.0,52.0,10.0,167.0,111,43,110,54,44
2025-03-17 18:29:17.937,-196.0,-799.0,246.0,141.0,49.0,214.0,113,44,112,38,45
2025-03-17 18:29:17.961,-404.0,-485.0,91.0,229.0,77.0,279.0,114,45,110,46,44
2025-03-17 18:29:17.985,-375.0,377.0,219.0,300.0,112.0,273.0,115,37,111,51,46
2025-03-17 18:29:18.009,-616.0,1275.0,-666.0,445.0,121.0,227.0,113,36,111,48,43
2025-03-17 18:29:18.034,-1644.0,4961.0,-1346.0,297.0,-57.0,-167.0,111,43,110,52,44
2025-03-17 18:29:18.056,-1014.0,3856.0,-1356.0,10.0,-349.0,-901.0,109,43,109,55,44
2025-03-17 18:29:18.080,3605.0,2130.0,-1294.0,-222.0,-737.0,-1384.0,111,44,109,52,42
2025-03-17 18:29:18.102,8633.0,-6192.0,2205.0,-687.0,-274.0,-487.0,106,40,111,49,43
2025-03-17 18:29:18.129,3005.0,-8325.0,-1577.0,152.0,226.0,107.0,109,43,109,56,43
2025-03-17 18:29:18.153,908.0,-1141.0,-903.0,99.0,102.0,286.0,110,44,108,58,44
2025-03-17 18:29:18.175,385.0,-1062.0,-220.0,-125.0,-129.0,226.0,116,43,109,58,42
2025-03-17 18:29:18.199,190.0,-1823.0,387.0,-90.0,-87.0,274.0,115,37,110,46,38
2025-03-17 18:29:18.223,90.0,-1472.0,496.0,-52.0,-50.0,325.0,119,43,110,54,44
2025-03-17 18:29:18.247,132.0,-623.0,374.0,-9.0,-30.0,346.0,122,40,109,53,45
2025-03-17 18:29:18.273,-249.0,-250.0,-9.0,-103.0,-46.0,245.0,133,44,110,52,42
2025-03-17 18:29:18.297,-242.0,-587.0,15.0,-188.0,-12.0,194.0,130,44,117,51,47
2025-03-17 18:29:18.319,-312.0,-669.0,135.0,-42.0,-35.0,183.0,136,45,113,53,48
2025-03-17 18:29:18.346,-349.0,-551.0,189.0,19.0,-7.0,194.0,136,46,115,58,48
2025-03-17 18:29:18.367,-374.0,-353.0,98.0,125.0,-13.0,209.0,137,46,116,55,48
2025-03-17 18:29:18.391,-270.0,-405.0,382.0,222.0,58.0,250.0,136,44,115,57,49
2025-03-17 18:29:18.415,-625.0,231.0,62.0,329.0,74.0,262.0,139,41,115,57,48
2025-03-17 18:29:18.440,-721.0,1947.0,67.0,488.0,45.0,172.0,128,44,114,52,47
2025-03-17 18:29:18.465,-717.0,4358.0,-305.0,398.0,70.0,-280.0,131,41,115,54,47
2025-03-17 18:29:18.489,-667.0,3069.0,-1475.0,-16.0,-158.0,-727.0,139,41,113,57,43
2025-03-17 18:29:18.513,1005.0,1688.0,-1409.0,-188.0,-495.0,-1056.0,138,44,110,61,47
2025-03-17 18:29:18.538,5604.0,-1080.0,-1092.0,-498.0,-825.0,-861.0,139,36,114,61,47
2025-03-17 18:29:18.559,6430.0,-9239.0,1628.0,-354.0,-37.0,-152.0,118,43,113,39,49
2025-03-17 18:29:18.584,-159.0,-3430.0,-2968.0,370.0,261.0,216.0,142,15,114,54,49
2025-03-17 18:29:18.609,276.0,-329.0,-1564.0,-97.0,48.0,193.0,136,38,110,57,49
2025-03-17 18:29:18.633,507.0,-1863.0,-618.0,-127.0,-188.0,176.0,139,41,111,61,45
2025-03-17 18:29:18.657,639.0,-1542.0,1029.0,118.0,28.0,166.0,142,38,112,42,43
2025-03-17 18:29:18.681,186.0,-839.0,32.0,-11.0,162.0,221.0,142,41,112,58,44
2025-03-17 18:29:18.706,-301.0,-309.0,-625.0,-65.0,-18.0,232.0,142,42,112,63,47
2025-03-17 18:29:18.727,441.0,-574.0,609.0,-32.0,-12.0,131.0,145,42,113,64,48
2025-03-17 18:29:18.752,85.0,-921.0,271.0,-80.0,168.0,228.0,144,38,113,61,49
2025-03-17 18:29:18.775,-358.0,-670.0,-503.0,34.0,61.0,268.0,145,36,115,62,48
2025-03-17 18:29:18.801,-305.0,-495.0,-211.0,-6.0,-50.0,283.0,146,41,113,64,45
2025-03-17 18:29:18.825,151.0,-956.0,628.0,47.0,-17.0,310.0,133,34,113,51,46
2025-03-17 18:29:18.849,-189.0,-403.0,129.0,200.0,102.0,345.0,140,40,114,56,44
2025-03-17 18:29:18.874,-917.0,707.0,-161.0,268.0,33.0,275.0,142,35,112,62,45
2025-03-17 18:29:18.895,-804.0,2057.0,509.0,304.0,28.0,62.0,143,33,112,57,46
2025-03-17 18:29:18.920,-1017.0,2832.0,57.0,209.0,58.0,-255.0,145,43,114,61,46
2025-03-17 18:29:18.944,-1552.0,2962.0,-1248.0,61.0,-72.0,-683.0,141,42,115,60,45
2025-03-17 18:29:18.969,484.0,2784.0,-2115.0,-222.0,-562.0,-1059.0,143,43,113,54,43
2025-03-17 18:29:18.993,5977.0,-1605.0,-233.0,-511.0,-687.0,-833.0,142,38,114,65,35
2025-03-17 18:29:19.018,4580.0,-9557.0,324.0,-110.0,28.0,-93.0,119,44,112,37,43
2025-03-17 18:29:19.042,1986.0,-1181.0,-2059.0,393.0,334.0,198.0,142,15,109,54,48
2025-03-17 18:29:19.064,-265.0,-1060.0,-104.0,-40.0,-20.0,171.0,144,31,110,52,49
2025-03-17 18:29:19.088,331.0,-1616.0,467.0,-91.0,14.0,249.0,126,43,113,63,46
2025-03-17 18:29:19.112,86.0,-1298.0,332.0,3.0,79.0,278.0,125,43,112,60,44
2025-03-17 18:29:19.136,-38.0,-1065.0,371.0,47.0,51.0,290.0,143,41,114,54,46
2025-03-17 18:29:19.161,430.0,-1176.0,232.0,-24.0,111.0,317.0,140,44,113,57,51
2025-03-17 18:29:19.185,310.0,-1032.0,-355.0,30.0,189.0,365.0,146,44,113,57,40
2025-03-17 18:29:19.210,154.0,-986.0,-507.0,72.0,290.0,476.0,142,45,116,60,56
2025-03-17 18:29:19.231,131.0,-395.0,-331.0,110.0,208.0,486.0,144,43,122,60,70
2025-03-17 18:29:19.252,-137.0,-77.0,-928.0,237.0,87.0,478.0,138,49,132,66,81
2025-03-17 18:29:19.281,-488.0,1174.0,-608.0,230.0,46.0,421.0,134,64,138,84,91
2025-03-17 18:29:19.305,-959.0,1475.0,-349.0,215.0,-30.0,275.0,126,69,141,86,98
2025-03-17 18:29:19.324,-601.0,2757.0,-940.0,201.0,-55.0,63.0,112,74,144,91,99
2025-03-17 18:29:19.349,-592.0,3009.0,-1405.0,21.0,-209.0,-358.0,129,72,145,91,106
2025-03-17 18:29:19.378,-508.0,2592.0,-876.0,-35.0,-376.0,-830.0,131,74,146,92,111
2025-03-17 18:29:19.403,456.0,1766.0,-990.0,-185.0,-549.0,-1089.0,119,78,148,95,104
2025-03-17 18:29:19.424,4989.0,-926.0,258.0,-439.0,-953.0,-1001.0,100,87,147,100,112
2025-03-17 18:29:19.448,3845.0,-6718.0,-817.0,-493.0,-701.0,-201.0,123,94,146,98,113
2025-03-17 18:29:19.472,3296.0,-3962.0,-2209.0,-264.0,-68.0,358.0,135,76,148,101,113
2025-03-17 18:29:19.497,-441.0,-576.0,463.0,494.0,31.0,338.0,140,93,149,103,107
2025-03-17 18:29:19.522,98.0,-465.0,-1598.0,-282.0,-114.0,254.0,134,90,148,101,119
2025-03-17 18:29:19.545,-154.0,-1534.0,464.0,-85.0,16.0,212.0,132,93,149,101,119
2025-03-17 18:29:19.568,-27.0,-1768.0,1392.0,163.0,385.0,347.0,137,102,149,102,120
2025-03-17 18:29:19.592,-21.0,-581.0,-340.0,69.0,118.0,372.0,139,84,150,102,120
2025-03-17 18:29:19.616,-324.0,630.0,28.0,228.0,70.0,309.0,139,98,150,103,119
2025-03-17 18:29:19.641,-88.0,112.0,227.0,161.0,167.0,248.0,116,94,148,104,119
2025-03-17 18:29:19.665,-837.0,-258.0,-595.0,149.0,65.0,237.0,135,83,148,103,100
2025-03-17 18:29:19.689,-450.0,-209.0,82.0,89.0,39.0,213.0,132,84,147,102,105
2025-03-17 18:29:19.714,-515.0,-149.0,-39.0,79.0,47.0,194.0,137,85,147,102,115
2025-03-17 18:29:19.738,-510.0,-242.0,345.0,101.0,45.0,220.0,140,82,149,102,115
2025-03-17 18:29:19.760,-540.0,529.0,396.0,120.0,82.0,258.0,139,91,149,105,118
2025-03-17 18:29:19.784,-302.0,2183.0,-737.0,221.0,5.0,123.0,137,78,148,104,118
2025-03-17 18:29:19.808,-754.0,3810.0,-1523.0,196.0,-249.0,-370.0,135,80,149,103,121
2025-03-17 18:29:19.833,-465.0,2569.0,-632.0,-28.0,-411.0,-935.0,135,95,149,103,120
2025-03-17 18:29:19.857,3462.0,125.0,912.0,-341.0,-678.0,-1048.0,138,89,148,103,115
2025-03-17 18:29:19.882,2771.0,-5328.0,1409.0,-548.0,-446.0,-498.0,140,98,147,103,120
2025-03-17 18:29:19.906,2318.0,-6063.0,-1261.0,-357.0,-273.0,68.0,141,106,149,106,122
2025-03-17 18:29:19.931,524.0,-2791.0,-511.0,151.0,211.0,300.0,141,89,149,103,122
2025-03-17 18:29:19.956,-210.0,-787.0,-54.0,135.0,-2.0,250.0,142,100,148,104,121
2025-03-17 18:29:19.980,152.0,-1041.0,916.0,-82.0,152.0,220.0,142,101,149,102,122
2025-03-17 18:29:19.991,-574.0,-1134.0,778.0,-21.0,266.0,269.0,142,88,149,103,122
2025-03-17 18:29:20.026,-282.0,-610.0,-1242.0,244.0,197.0,279.0,142,92,149,105,121
2025-03-17 18:29:20.050,-354.0,-801.0,119.0,7.0,162.0,340.0,142,97,148,104,116
2025-03-17 18:29:20.075,-62.0,-247.0,219.0,96.0,253.0,298.0,140,77,147,105,117
2025-03-17 18:29:20.099,-501.0,72.0,-516.0,124.0,146.0,238.0,140,84,147,101,113
2025-03-17 18:29:20.124,-517.0,-178.0,-5.0,36.0,103.0,186.0,138,76,147,100,108
2025-03-17 18:29:20.136,-625.0,-115.0,-31.0,31.0,97.0,167.0,137,64,145,99,102
2025-03-17 18:29:20.167,-833.0,276.0,-264.0,50.0,44.0,152.0,137,55,143,92,91
2025-03-17 18:29:20.194,-790.0,1300.0,-349.0,100.0,-43.0,59.0,137,50,135,79,69
2025-03-17 18:29:20.217,-1062.0,2737.0,-791.0,251.0,-67.0,-261.0,136,34,129,66,49
2025-03-17 18:29:20.243,-699.0,3608.0,-1275.0,78.0,-272.0,-753.0,121,32,122,51,35
2025-03-17 18:29:20.265,1634.0,2904.0,-2417.0,-61.0,-628.0,-1119.0,135,29,115,52,28
2025-03-17 18:29:20.289,3833.0,-1815.0,-366.0,-303.0,-759.0,-897.0,135,30,111,57,40
2025-03-17 18:29:20.316,5728.0,-5490.0,2080.0,-329.0,-310.0,-266.0,140,35,113,56,25
2025-03-17 18:29:20.339,2148.0,-5601.0,-664.0,104.0,208.0,162.0,141,32,104,50,31
2025-03-17 18:29:20.362,195.0,-979.0,136.0,297.0,-99.0,244.0,144,32,106,56,36
2025-03-17 18:29:20.386,608.0,-1772.0,159.0,-132.0,-17.0,307.0,138,33,106,53,42
2025-03-17 18:29:20.411,940.0,-1883.0,766.0,-25.0,95.0,300.0,140,34,107,57,42
2025-03-17 18:29:20.435,-196.0,-895.0,316.0,183.0,129.0,359.0,141,39,107,50,41
2025-03-17 18:29:20.460,-50.0,-154.0,445.0,-87.0,165.0,345.0,141,36,109,58,42
2025-03-17 18:29:20.484,-472.0,-126.0,33.0,-121.0,46.0,292.0,129,35,110,60,40
2025-03-17 18:29:20.506,-91.0,-344.0,487.0,19.0,113.0,215.0,142,39,110,53,41
2025-03-17 18:29:20.530,-471.0,-300.0,-97.0,-41.0,137.0,228.0,142,36,109,57,41
2025-03-17 18:29:20.554,-629.0,-31.0,82.0,-12.0,66.0,204.0,140,37,107,58,41
2025-03-17 18:29:20.579,-661.0,328.0,198.0,68.0,91.0,170.0,138,36,110,58,41
2025-03-17 18:29:20.603,-1040.0,1423.0,-16.0,165.0,96.0,89.0,139,39,110,59,41
2025-03-17 18:29:20.628,-1192.0,2912.0,-259.0,177.0,57.0,-217.0,139,38,112,58,42
2025-03-17 18:29:20.652,-1246.0,2534.0,-973.0,98.0,-116.0,-555.0,139,42,111,59,41
2025-03-17 18:29:20.676,381.0,1938.0,-1261.0,3.0,-432.0,-893.0,136,37,107,59,43
2025-03-17 18:29:20.698,4915.0,-1018.0,1058.0,-293.0,-450.0,-801.0,141,32,107,59,41
2025-03-17 18:29:20.722,3455.0,-6777.0,-176.0,-209.0,35.0,-260.0,139,38,104,47,41
2025-03-17 18:29:20.747,2254.0,-3762.0,-938.0,77.0,223.0,126.0,144,33,101,51,38
2025-03-17 18:29:20.769,291.0,-527.0,-861.0,57.0,9.0,25.0,133,37,102,50,42
2025-03-17 18:29:20.793,132.0,-1824.0,178.0,-49.0,-56.0,41.0,137,30,104,56,40
2025-03-17 18:29:20.809,194.0,-1517.0,213.0,-19.0,40.0,48.0,142,40,103,57,40
2025-03-17 18:29:20.840,542.0,-1757.0,97.0,-17.0,-2.0,98.0,143,39,105,56,42
2025-03-17 18:29:20.866,393.0,-1499.0,38.0,-97.0,24.0,140.0,144,41,108,59,44
2025-03-17 18:29:20.890,211.0,-1214.0,-221.0,-141.0,13.0,193.0,142,41,110,60,44
2025-03-17 18:29:20.915,250.0,-1404.0,-81.0,-84.0,-21.0,294.0,149,31,111,61,44
2025-03-17 18:29:20.939,229.0,-998.0,-104.0,-65.0,69.0,330.0,145,39,114,63,44
2025-03-17 18:29:20.963,-132.0,-1137.0,-98.0,2.0,76.0,370.0,141,37,117,60,43
2025-03-17 18:29:20.986,-281.0,-230.0,-169.0,261.0,44.0,434.0,142,33,121,66,43
2025-03-17 18:29:21.004,-57.0,116.0,-236.0,380.0,78.0,363.0,138,43,126,63,44
2025-03-17 18:29:21.034,-334.0,321.0,-39.0,385.0,93.0,305.0,136,55,136,70,44
2025-03-17 18:29:21.058,-658.0,1119.0,-415.0,326.0,69.0,187.0,141,60,140,69,45
2025-03-17 18:29:21.082,-1288.0,2269.0,-948.0,140.0,-85.0,-49.0,141,78,146,73,45
2025-03-17 18:29:21.094,-911.0,2173.0,-1362.0,206.0,-268.0,-432.0,139,82,147,73,46
2025-03-17 18:29:21.132,-722.0,1655.0,-1313.0,204.0,-569.0,-698.0,132,92,150,70,44
2025-03-17 18:29:21.156,2748.0,1293.0,-419.0,-44.0,-966.0,-792.0,119,78,149,76,41
2025-03-17 18:29:21.180,4644.0,-4488.0,2899.0,-109.0,-567.0,-327.0,122,93,149,75,42
2025-03-17 18:29:21.198,3577.0,-4064.0,2177.0,135.0,103.0,115.0,125,94,149,62,43
2025-03-17 18:29:21.226,572.0,-1352.0,651.0,108.0,137.0,173.0,127,100,149,74,43
2025-03-17 18:29:21.250,330.0,-1572.0,756.0,-85.0,-5.0,203.0,129,103,149,74,48
2025-03-17 18:29:21.275,387.0,-1142.0,1247.0,-58.0,103.0,224.0,131,99,151,75,47
2025-03-17 18:29:21.299,109.0,-1003.0,916.0,53.0,186.0,240.0,133,110,150,62,46
2025-03-17 18:29:21.324,-39.0,-600.0,600.0,-15.0,182.0,229.0,129,109,150,75,45
2025-03-17 18:29:21.348,-87.0,-676.0,352.0,-95.0,141.0,254.0,127,109,150,69,46
2025-03-17 18:29:21.369,-28.0,-684.0,399.0,-73.0,148.0,279.0,127,90,149,56,45
2025-03-17 18:29:21.394,-275.0,-310.0,206.0,-32.0,163.0,276.0,127,100,150,61,44
2025-03-17 18:29:21.418,-584.0,-182.0,139.0,48.0,134.0,192.0,130,86,150,62,46
2025-03-17 18:29:21.441,-538.0,-70.0,260.0,45.0,107.0,131.0,131,98,150,53,46
2025-03-17 18:29:21.457,-419.0,-412.0,441.0,46.0,155.0,150.0,130,84,150,51,46
2025-03-17 18:29:21.488,-790.0,116.0,112.0,99.0,134.0,167.0,130,101,149,59,45
2025-03-17 18:29:21.506,-943.0,1316.0,-230.0,60.0,68.0,91.0,132,99,150,61,45
2025-03-17 18:29:21.537,-1428.0,2454.0,-986.0,80.0,-54.0,-195.0,132,97,150,64,45
2025-03-17 18:29:21.562,-1427.0,2708.0,-1353.0,59.0,-322.0,-611.0,125,92,148,69,40
2025-03-17 18:29:21.586,1339.0,1024.0,-712.0,-47.0,-659.0,-854.0,99,94,149,69,44
2025-03-17 18:29:21.610,3506.0,-1829.0,883.0,-78.0,-714.0,-697.0,99,99,150,82,44
2025-03-17 18:29:21.634,3704.0,-4876.0,1278.0,-183.0,-272.0,-96.0,111,107,149,83,47
2025-03-17 18:29:21.659,1888.0,-2581.0,852.0,82.0,63.0,68.0,114,79,153,83,48
2025-03-17 18:29:21.684,211.0,-1456.0,174.0,-57.0,1.0,128.0,116,91,152,82,49
2025-03-17 18:29:21.705,416.0,-1329.0,943.0,-87.0,18.0,142.0,123,97,148,85,49
2025-03-17 18:29:21.729,304.0,-1489.0,875.0,-91.0,120.0,199.0,130,107,150,83,51
2025-03-17 18:29:21.754,332.0,-1252.0,616.0,-62.0,179.0,247.0,131,104,149,62,53
2025-03-17 18:29:21.778,283.0,-828.0,424.0,-78.0,237.0,290.0,131,91,148,79,52
2025-03-17 18:29:21.803,289.0,-823.0,354.0,-71.0,268.0,376.0,131,98,147,74,51
2025-03-17 18:29:21.827,8.0,-411.0,-6.0,-62.0,236.0,439.0,133,94,146,58,48
2025-03-17 18:29:21.852,-451.0,24.0,-274.0,-92.0,144.0,374.0,133,83,147,75,47
2025-03-17 18:29:21.871,-403.0,-7.0,-286.0,106.0,142.0,237.0,139,54,145,77,46
2025-03-17 18:29:21.887,-526.0,536.0,50.0,101.0,135.0,182.0,137,57,136,71,47
2025-03-17 18:29:21.922,-901.0,876.0,18.0,100.0,118.0,54.0,141,46,125,67,44
2025-03-17 18:29:21.944,-884.0,1591.0,-434.0,263.0,11.0,-117.0,138,43,118,68,42
2025-03-17 18:29:21.970,-1370.0,2437.0,-1115.0,205.0,-262.0,-369.0,133,36,112,60,43
2025-03-17 18:29:21.995,112.0,1500.0,-1154.0,25.0,-339.0,-727.0,130,36,106,64,45
2025-03-17 18:29:22.019,1562.0,888.0,-238.0,-87.0,-583.0,-787.0,122,30,104,64,47
2025-03-17 18:29:22.044,4206.0,-3468.0,1198.0,-450.0,-490.0,-536.0,133,32,103,72,46
2025-03-17 18:29:22.066,3029.0,-5827.0,984.0,-258.0,-22.0,-78.0,132,26,102,57,47
2025-03-17 18:29:22.090,1172.0,-2826.0,-711.0,129.0,142.0,157.0,139,35,103,62,48
2025-03-17 18:29:22.115,476.0,-1084.0,-84.0,-28.0,54.0,189.0,140,38,104,73,50
2025-03-17 18:29:22.139,533.0,-1882.0,389.0,-164.0,26.0,225.0,129,31,106,69,48
2025-03-17 18:29:22.163,514.0,-1358.0,410.0,-13.0,76.0,230.0,129,35,104,65,46
2025-03-17 18:29:22.188,211.0,-851.0,114.0,-19.0,96.0,274.0,141,36,105,67,47
2025-03-17 18:29:22.203,-297.0,-746.0,-515.0,-136.0,26.0,314.0,141,37,104,72,47
2025-03-17 18:29:22.233,267.0,-293.0,383.0,26.0,38.0,212.0,136,33,106,61,46
2025-03-17 18:29:22.258,-429.0,-214.0,70.0,-29.0,113.0,227.0,138,32,108,66,48
2025-03-17 18:29:22.270,-612.0,11.0,-101.0,-19.0,59.0,166.0,141,37,108,66,47
2025-03-17 18:29:22.307,-491.0,-24.0,173.0,10.0,32.0,117.0,135,36,109,68,49
2025-03-17 18:29:22.332,-436.0,158.0,460.0,68.0,92.0,129.0,141,40,110,68,48
2025-03-17 18:29:22.356,-887.0,1490.0,165.0,203.0,95.0,38.0,141,39,111,70,49
2025-03-17 18:29:22.380,-1944.0,2964.0,-1385.0,211.0,-11.0,-327.0,138,34,109,73,46
2025-03-17 18:29:22.402,-830.0,2435.0,-1040.0,159.0,-317.0,-727.0,139,31,109,71,45
2025-03-17 18:29:22.426,2275.0,998.0,-222.0,-15.0,-596.0,-838.0,127,38,110,71,46
2025-03-17 18:29:22.451,5331.0,-5433.0,1338.0,-344.0,-478.0,-380.0,142,40,109,71,49
2025-03-17 18:29:22.475,3093.0,-6170.0,489.0,45.0,249.0,87.0,136,30,108,68,48
2025-03-17 18:29:22.499,614.0,0.0,-2085.0,245.0,116.0,125.0,142,41,108,75,51
2025-03-17 18:29:22.524,293.0,-1544.0,-354.0,-126.0,-108.0,102.0,144,39,112,76,49
2025-03-17 18:29:22.547,834.0,-1871.0,748.0,-45.0,-21.0,122.0,141,43,111,62,48
2025-03-17 18:29:22.560,537.0,-1855.0,384.0,8.0,73.0,203.0,142,42,112,68,50
2025-03-17 18:29:22.593,449.0,-1337.0,-133.0,-118.0,113.0,315.0,140,40,112,74,50
2025-03-17 18:29:22.616,406.0,-275.0,-39.0,-170.0,111.0,299.0,142,43,112,71,50
2025-03-17 18:29:22.643,393.0,-797.0,178.0,-17.0,114.0,339.0,144,38,114,66,51
2025-03-17 18:29:22.667,-101.0,-389.0,-93.0,-1.0,117.0,373.0,140,36,114,66,53
2025-03-17 18:29:22.689,-42.0,-215.0,82.0,12.0,82.0,373.0,141,40,115,69,53
2025-03-17 18:29:22.706,36.0,-377.0,153.0,143.0,149.0,384.0,139,42,116,69,54
2025-03-17 18:29:22.738,-244.0,-191.0,-438.0,297.0,178.0,397.0,139,40,114,71,52
2025-03-17 18:29:22.762,-709.0,614.0,-650.0,272.0,86.0,346.0,139,39,111,65,48
2025-03-17 18:29:22.786,-821.0,1274.0,-558.0,224.0,-13.0,182.0,136,38,107,63,42
2025-03-17 18:29:22.810,-964.0,2801.0,-766.0,264.0,-85.0,-104.0,129,38,101,60,42
2025-03-17 18:29:22.835,-537.0,3130.0,-2027.0,212.0,-252.0,-544.0,103,31,101,63,42
2025-03-17 18:29:22.859,-449.0,2286.0,-2221.0,141.0,-626.0,-901.0,94,39,102,60,42
2025-03-17 18:29:22.883,4875.0,2276.0,-950.0,5.0,-1161.0,-1085.0,95,29,100,58,46
2025-03-17 18:29:22.908,6232.0,-7879.0,4123.0,-351.0,-141.0,-247.0,92,34,97,48,47
2025-03-17 18:29:22.930,2739.0,-4600.0,926.0,169.0,401.0,220.0,77,40,97,50,45
2025-03-17 18:29:22.954,-562.0,900.0,-570.0,-93.0,-85.0,135.0,91,29,98,54,48
2025-03-17 18:29:22.979,695.0,-2586.0,1228.0,-177.0,-34.0,160.0,98,44,99,55,47
2025-03-17 18:29:23.003,530.0,-1543.0,878.0,-53.0,114.0,172.0,92,40,95,55,45
2025-03-17 18:29:23.027,-4.0,-1040.0,543.0,-75.0,72.0,206.0,96,36,99,55,45
2025-03-17 18:29:23.052,-21.0,-768.0,432.0,-190.0,77.0,227.0,98,38,101,56,44
2025-03-17 18:29:23.071,-176.0,-744.0,130.0,-302.0,76.0,269.0,95,35,102,56,47
2025-03-17 18:29:23.095,-96.0,-755.0,371.0,-170.0,70.0,228.0,103,39,103,56,47
2025-03-17 18:29:23.121,38.0,-291.0,348.0,-90.0,181.0,206.0,104,37,104,58,46
2025-03-17 18:29:23.144,-660.0,-9.0,-312.0,-97.0,90.0,169.0,106,40,105,58,47
2025-03-17 18:29:23.171,-498.0,-211.0,16.0,-45.0,38.0,175.0,107,39,106,59,47
2025-03-17 18:29:23.193,-396.0,-273.0,86.0,75.0,82.0,231.0,100,39,102,52,47
2025-03-17 18:29:23.220,-859.0,1447.0,-357.0,208.0,106.0,218.0,108,41,105,56,47
2025-03-17 18:29:23.241,-1148.0,2828.0,-697.0,247.0,6.0,-147.0,109,42,106,60,46
2025-03-17 18:29:23.266,-770.0,2416.0,-1026.0,222.0,-141.0,-477.0,110,39,106,59,47
2025-03-17 18:29:23.290,197.0,1936.0,-1005.0,298.0,-445.0,-798.0,108,40,106,61,48
2025-03-17 18:29:23.315,5043.0,-675.0,3580.0,133.0,-345.0,-752.0,102,43,106,52,49
2025-03-17 18:29:23.337,2981.0,-6475.0,1514.0,-99.0,21.0,-235.0,98,36,104,56,47
2025-03-17 18:29:23.362,2282.0,-3789.0,419.0,-10.0,148.0,165.0,101,35,102,56,40
2025-03-17 18:29:23.388,514.0,-2047.0,-83.0,96.0,-38.0,224.0,105,39,105,59,52
2025-03-17 18:29:23.409,503.0,-1832.0,884.0,-81.0,54.0,229.0,106,42,103,58,46
2025-03-17 18:29:23.433,217.0,-1518.0,791.0,54.0,93.0,266.0,108,39,105,46,46
2025-03-17 18:29:23.458,-87.0,-1041.0,652.0,-69.0,126.0,280.0,108,37,107,56,47
2025-03-17 18:29:23.483,-269.0,-914.0,322.0,-199.0,136.0,295.0,127,41,108,58,48
2025-03-17 18:29:23.507,-109.0,-528.0,61.0,-89.0,122.0,269.0,134,37,112,57,48
2025-03-17 18:29:23.532,-211.0,-535.0,-50.0,12.0,144.0,266.0,138,43,113,56,48
2025-03-17 18:29:23.555,-346.0,7.0,-198.0,12.0,119.0,264.0,125,43,114,55,49
2025-03-17 18:29:23.577,-550.0,68.0,-184.0,100.0,89.0,247.0,132,44,115,61,50
2025-03-17 18:29:23.602,-301.0,61.0,-200.0,170.0,88.0,249.0,136,48,113,51,44
2025-03-17 18:29:23.626,-381.0,454.0,-420.0,213.0,57.0,199.0,135,55,115,59,47
2025-03-17 18:29:23.651,-934.0,748.0,-956.0,241.0,-69.0,66.0,117,60,111,59,48
2025-03-17 18:29:23.675,-1614.0,1297.0,-1980.0,345.0,-303.0,-177.0,100,58,106,60,46
2025-03-17 18:29:23.700,181.0,1694.0,-3183.0,424.0,-837.0,-431.0,87,69,105,55,47
2025-03-17 18:29:23.724,3122.0,239.0,-756.0,392.0,-1136.0,-334.0,82,76,106,55,48
2025-03-17 18:29:23.748,3625.0,-930.0,3872.0,475.0,-610.0,-110.0,85,68,105,54,56
2025-03-17 18:29:23.769,1791.0,506.0,5099.0,112.0,20.0,-73.0,80,91,104,54,50
2025-03-17 18:29:23.794,358.0,43.0,2208.0,-92.0,83.0,3.0,80,94,103,55,51
2025-03-17 18:29:23.818,346.0,-773.0,1702.0,-154.0,130.0,64.0,81,93,103,57,51
2025-03-17 18:29:23.842,364.0,-681.0,1708.0,-146.0,235.0,129.0,81,92,103,56,49
2025-03-17 18:29:23.865,44.0,-508.0,1020.0,-97.0,180.0,185.0,82,94,103,56,49
2025-03-17 18:29:23.882,226.0,58.0,1443.0,-141.0,185.0,129.0,83,98,103,55,50
2025-03-17 18:29:23.913,109.0,-242.0,1266.0,-164.0,283.0,100.0,85,97,106,57,50
2025-03-17 18:29:23.938,-323.0,-257.0,486.0,-77.0,238.0,110.0,87,98,104,58,49
2025-03-17 18:29:23.962,-255.0,96.0,476.0,-119.0,230.0,112.0,89,98,102,58,50
2025-03-17 18:29:23.986,-190.0,15.0,389.0,-114.0,257.0,65.0,91,97,104,59,49
2025-03-17 18:29:24.011,-723.0,-295.0,-289.0,-25.0,202.0,61.0,89,96,105,57,49
2025-03-17 18:29:24.035,-413.0,14.0,-406.0,83.0,102.0,55.0,89,96,105,57,48
2025-03-17 18:29:24.045,-520.0,38.0,77.0,38.0,115.0,40.0,89,96,105,59,48
2025-03-17 18:29:24.083,-1099.0,186.0,-910.0,146.0,22.0,-18.0,89,96,104,58,47
2025-03-17 18:29:24.106,-1525.0,845.0,-2312.0,264.0,-406.0,-161.0,85,95,103,59,48
2025-03-17 18:29:24.130,529.0,1221.0,-2987.0,381.0,-1003.0,-327.0,83,97,96,60,50
2025-03-17 18:29:24.154,3775.0,12.0,364.0,366.0,-1047.0,-137.0,87,100,103,60,51
2025-03-17 18:29:24.179,3122.0,454.0,5478.0,292.0,-332.0,-53.0,90,101,104,58,52
2025-03-17 18:29:24.203,1804.0,456.0,3439.0,-52.0,182.0,-53.0,81,100,105,62,52
2025-03-17 18:29:24.228,525.0,-99.0,1691.0,-169.0,187.0,9.0,87,96,103,58,51
2025-03-17 18:29:24.239,401.0,-148.0,1672.0,-271.0,199.0,97.0,90,95,104,59,51
2025-03-17 18:29:24.273,335.0,-603.0,1583.0,-306.0,227.0,193.0,90,98,104,51,50
2025-03-17 18:29:24.295,717.0,-146.0,1783.0,-382.0,349.0,306.0,90,99,105,60,51
2025-03-17 18:29:24.318,408.0,116.0,1272.0,-472.0,393.0,294.0,91,99,104,59,53
2025-03-17 18:29:24.347,218.0,-129.0,787.0,-428.0,422.0,241.0,98,100,112,57,52
2025-03-17 18:29:24.360,109.0,-825.0,-31.0,-242.0,432.0,247.0,109,96,118,57,53
2025-03-17 18:29:24.396,-682.0,-203.0,-714.0,-36.0,315.0,227.0,118,84,123,61,59
2025-03-17 18:29:24.420,-485.0,-31.0,-288.0,-13.0,218.0,162.0,115,75,130,67,63
2025-03-17 18:29:24.442,-552.0,-148.0,-222.0,43.0,136.0,144.0,107,81,140,66,75
2025-03-17 18:29:24.466,-695.0,-142.0,-163.0,-29.0,78.0,132.0,106,84,144,84,84
2025-03-17 18:29:24.490,-894.0,419.0,-262.0,-63.0,21.0,85.0,107,77,144,85,90
2025-03-17 18:29:24.515,-396.0,1231.0,-499.0,-23.0,-44.0,-16.0,108,86,146,87,95
2025-03-17 18:29:24.540,-844.0,1945.0,-1603.0,10.0,-221.0,-249.0,110,83,146,88,101
2025-03-17 18:29:24.564,-875.0,2279.0,-1250.0,48.0,-434.0,-592.0,110,92,147,90,107
2025-03-17 18:29:24.588,417.0,1230.0,-551.0,-83.0,-541.0,-876.0,109,88,147,93,90
2025-03-17 18:29:24.611,3673.0,-1181.0,-20.0,-192.0,-674.0,-812.0,111,87,149,97,107
2025-03-17 18:29:24.634,3287.0,-4058.0,476.0,-383.0,-636.0,-336.0,114,111,147,100,114
2025-03-17 18:29:24.662,2729.0,-5109.0,483.0,-179.0,-100.0,134.0,110,104,149,100,116
2025-03-17 18:29:24.683,939.0,-1712.0,-837.0,157.0,113.0,318.0,121,103,149,100,106
2025-03-17 18:29:24.707,295.0,-859.0,388.0,5.0,99.0,274.0,124,111,150,102,119
2025-03-17 18:29:24.732,150.0,-980.0,347.0,7.0,73.0,245.0,122,104,151,101,117
2025-03-17 18:29:24.756,104.0,-1450.0,648.0,66.0,93.0,220.0,123,108,150,100,117
2025-03-17 18:29:24.781,-170.0,-695.0,0.0,-108.0,177.0,246.0,122,113,150,101,117
2025-03-17 18:29:24.804,-107.0,-246.0,250.0,-99.0,117.0,283.0,119,107,149,97,118
2025-03-17 18:29:24.826,-97.0,-265.0,152.0,-34.0,88.0,304.0,119,107,148,101,117
2025-03-17 18:29:24.851,-203.0,-462.0,41.0,83.0,112.0,307.0,118,109,149,103,119
2025-03-17 18:29:24.875,-585.0,-99.0,-200.0,130.0,96.0,285.0,109,102,149,102,122
2025-03-17 18:29:24.900,-440.0,355.0,223.0,129.0,94.0,250.0,101,108,150,102,120
2025-03-17 18:29:24.924,-622.0,610.0,18.0,130.0,83.0,196.0,106,103,149,104,119
2025-03-17 18:29:24.949,-370.0,1900.0,-535.0,215.0,-85.0,2.0,110,95,151,102,117
2025-03-17 18:29:24.974,-1537.0,2826.0,-1503.0,217.0,-164.0,-350.0,107,94,147,101,118
2025-03-17 18:29:24.998,-225.0,2195.0,-721.0,106.0,-408.0,-813.0,106,85,148,101,119
2025-03-17 18:29:25.019,3237.0,-845.0,1199.0,-288.0,-594.0,-825.0,109,110,146,104,117
2025-03-17 18:29:25.043,2565.0,-4527.0,54.0,-320.0,-429.0,-430.0,112,110,151,102,120
2025-03-17 18:29:25.068,2383.0,-5061.0,-27.0,-100.0,-110.0,33.0,114,114,149,102,120
2025-03-17 18:29:25.088,625.0,-2519.0,224.0,54.0,85.0,216.0,117,112,149,104,118
2025-03-17 18:29:25.117,-137.0,-864.0,992.0,123.0,54.0,141.0,119,111,149,104,123
2025-03-17 18:29:25.141,-356.0,-1139.0,617.0,-99.0,-40.0,55.0,123,108,149,105,122
2025-03-17 18:29:25.162,269.0,-1591.0,818.0,76.0,158.0,75.0,120,114,157,103,121
2025-03-17 18:29:25.184,204.0,-1661.0,598.0,55.0,244.0,160.0,119,113,148,103,120
2025-03-17 18:29:25.207,96.0,-1061.0,602.0,-153.0,218.0,241.0,118,114,149,103,119
2025-03-17 18:29:25.236,-74.0,-770.0,198.0,28.0,228.0,282.0,117,111,148,102,117
2025-03-17 18:29:25.260,-65.0,-568.0,51.0,128.0,247.0,302.0,118,104,148,101,113
2025-03-17 18:29:25.285,-356.0,-348.0,173.0,165.0,239.0,325.0,112,95,147,95,97
2025-03-17 18:29:25.308,-440.0,-111.0,-216.0,246.0,201.0,313.0,120,86,144,87,83
2025-03-17 18:29:25.331,-741.0,-172.0,-936.0,182.0,77.0,309.0,119,65,134,71,56
2025-03-17 18:29:25.355,-292.0,76.0,-158.0,266.0,58.0,288.0,122,71,120,67,44
2025-03-17 18:29:25.379,-679.0,710.0,-949.0,313.0,1.0,171.0,104,68,104,56,36
2025-03-17 18:29:25.404,-1436.0,1587.0,-1401.0,253.0,-237.0,-166.0,90,71,95,61,34
2025-03-17 18:29:25.428,-174.0,2108.0,-3101.0,301.0,-769.0,-536.0,77,69,93,59,38
2025-03-17 18:29:25.453,3288.0,585.0,-1507.0,212.0,-1294.0,-482.0,74,48,91,58,39
2025-03-17 18:29:25.477,4770.0,-2474.0,4085.0,444.0,-699.0,-108.0,76,79,96,58,42
2025-03-17 18:29:25.498,2048.0,256.0,5142.0,183.0,82.0,-101.0,66,79,95,54,44
2025-03-17 18:29:25.523,717.0,-282.0,2805.0,-90.0,198.0,7.0,70,93,98,61,46
2025-03-17 18:29:25.547,346.0,-607.0,1742.0,-218.0,127.0,86.0,78,94,98,60,47
2025-03-17 18:29:25.571,430.0,-692.0,1839.0,-196.0,215.0,146.0,80,94,102,60,47
2025-03-17 18:29:25.595,130.0,-306.0,1539.0,-53.0,276.0,93.0,81,95,101,60,45
2025-03-17 18:29:25.620,10.0,-54.0,1240.0,-53.0,297.0,85.0,81,94,102,61,43
2025-03-17 18:29:25.633,-35.0,-91.0,987.0,-223.0,338.0,108.0,81,90,102,62,45
2025-03-17 18:29:25.669,-390.0,-201.0,250.0,-262.0,261.0,151.0,85,88,104,64,46
2025-03-17 18:29:25.691,-255.0,-244.0,239.0,-105.0,232.0,68.0,85,88,104,64,46
2025-03-17 18:29:25.715,-398.0,-248.0,149.0,-73.0,205.0,81.0,85,89,103,64,47
2025-03-17 18:29:25.739,-433.0,-216.0,118.0,-77.0,190.0,93.0,86,87,105,65,47
2025-03-17 18:29:25.764,-532.0,-190.0,85.0,-37.0,122.0,87.0,86,89,105,65,46
2025-03-17 18:29:25.787,-483.0,69.0,38.0,-3.0,127.0,77.0,84,88,104,65,45
2025-03-17 18:29:25.813,-667.0,617.0,-558.0,38.0,84.0,39.0,85,87,103,65,45
2025-03-17 18:29:25.838,-1676.0,1210.0,-2280.0,139.0,-166.0,-195.0,81,87,103,65,44
2025-03-17 18:29:25.859,-669.0,1431.0,-3545.0,238.0,-886.0,-490.0,78,89,100,63,45
2025-03-17 18:29:25.883,3610.0,299.0,-1006.0,381.0,-1178.0,-350.0,76,96,101,64,47
2025-03-17 18:29:25.908,4153.0,-913.0,3820.0,408.0,-748.0,-113.0,81,103,103,65,50
2025-03-17 18:29:25.932,3003.0,-32.0,5784.0,-85.0,9.0,4.0,75,104,103,65,51
2025-03-17 18:29:25.957,1191.0,-704.0,2165.0,-242.0,224.0,71.0,77,103,103,63,53
2025-03-17 18:29:25.981,414.0,-801.0,1390.0,-259.0,194.0,119.0,85,98,104,65,53
2025-03-17 18:29:26.005,417.0,-920.0,1410.0,-298.0,224.0,175.0,87,99,106,63,52
2025-03-17 18:29:26.027,589.0,-978.0,1397.0,-242.0,303.0,242.0,89,97,106,61,51
2025-03-17 18:29:26.051,221.0,-464.0,845.0,-195.0,325.0,247.0,87,97,107,62,51
2025-03-17 18:29:26.076,93.0,-129.0,694.0,-247.0,320.0,228.0,91,96,112,63,50
2025-03-17 18:29:26.100,59.0,-323.0,426.0,-266.0,340.0,239.0,94,94,115,67,50
2025-03-17 18:29:26.124,-302.0,-567.0,-34.0,-145.0,317.0,273.0,102,92,118,72,52
2025-03-17 18:29:26.149,-229.0,-105.0,-150.0,-43.0,273.0,253.0,107,81,126,64,53
2025-03-17 18:29:26.173,-512.0,-51.0,-326.0,69.0,190.0,246.0,116,89,134,73,48
2025-03-17 18:29:26.192,-456.0,709.0,-936.0,177.0,138.0,205.0,118,97,139,69,50
2025-03-17 18:29:26.217,-831.0,2350.0,-1220.0,184.0,-29.0,-27.0,121,99,144,71,49
2025-03-17 18:29:26.243,-821.0,2365.0,-1808.0,150.0,-301.0,-460.0,119,104,145,68,47
2025-03-17 18:29:26.268,-226.0,1425.0,-1143.0,188.0,-579.0,-706.0,107,82,148,68,44
2025-03-17 18:29:26.293,1658.0,1050.0,-1073.0,83.0,-994.0,-709.0,99,93,149,66,43
2025-03-17 18:29:26.317,5343.0,-2606.0,1173.0,-88.0,-891.0,-552.0,103,108,146,78,33
2025-03-17 18:29:26.342,3882.0,-4125.0,3177.0,87.0,-3.0,-20.0,104,110,151,74,40
2025-03-17 18:29:26.365,1645.0,-2382.0,1990.0,135.0,292.0,139.0,107,100,152,72,42
2025-03-17 18:29:26.386,545.0,-1227.0,692.0,-96.0,145.0,189.0,107,109,149,73,45
2025-03-17 18:29:26.410,459.0,-1376.0,1149.0,-140.0,111.0,240.0,109,91,148,72,47
2025-03-17 18:29:26.436,405.0,-1373.0,901.0,-38.0,194.0,261.0,109,104,149,71,40
2025-03-17 18:29:26.460,20.0,-614.0,735.0,1.0,229.0,280.0,107,108,149,67,45
2025-03-17 18:29:26.485,-252.0,-170.0,368.0,-112.0,192.0,272.0,108,98,151,74,46
2025-03-17 18:29:26.508,-337.0,-207.0,233.0,-139.0,126.0,233.0,107,105,150,73,42
2025-03-17 18:29:26.534,-397.0,-334.0,148.0,-112.0,123.0,176.0,110,103,150,65,44
2025-03-17 18:29:26.555,-594.0,-159.0,42.0,-5.0,94.0,113.0,107,104,150,54,45
2025-03-17 18:29:26.579,-565.0,233.0,168.0,-4.0,91.0,75.0,105,106,151,60,46
2025-03-17 18:29:26.604,-796.0,709.0,-204.0,14.0,43.0,34.0,106,113,149,64,45
2025-03-17 18:29:26.629,-1150.0,1442.0,-811.0,181.0,-45.0,-191.0,108,115,148,65,45
2025-03-17 18:29:26.653,-905.0,1791.0,-972.0,336.0,-255.0,-534.0,103,102,149,72,46
2025-03-17 18:29:26.677,908.0,1063.0,-167.0,188.0,-594.0,-685.0,91,112,149,77,46
2025-03-17 18:29:26.702,2331.0,-734.0,639.0,-37.0,-699.0,-570.0,94,115,150,83,42
2025-03-17 18:29:26.723,3375.0,-3386.0,1985.0,-52.0,-346.0,-134.0,93,110,150,82,47
2025-03-17 18:29:26.748,2608.0,-2683.0,2058.0,35.0,114.0,63.0,99,117,150,82,51
2025-03-17 18:29:26.772,1183.0,-1840.0,1045.0,4.0,224.0,101.0,101,109,149,80,50
2025-03-17 18:29:26.796,656.0,-1408.0,784.0,-71.0,174.0,167.0,103,90,150,81,52
2025-03-17 18:29:26.820,509.0,-1213.0,880.0,-124.0,167.0,223.0,105,110,149,79,53
2025-03-17 18:29:26.845,518.0,-1003.0,789.0,-99.0,217.0,247.0,109,113,147,77,56
2025-03-17 18:29:26.870,388.0,-814.0,670.0,-68.0,287.0,249.0,120,110,148,71,57
2025-03-17 18:29:26.890,233.0,-522.0,237.0,-55.0,312.0,278.0,123,110,142,77,57
2025-03-17 18:29:26.915,-56.0,-407.0,244.0,-27.0,261.0,328.0,123,102,127,79,52
2025-03-17 18:29:26.940,-65.0,-402.0,108.0,75.0,287.0,318.0,124,83,116,76,50
2025-03-17 18:29:26.964,-120.0,90.0,-330.0,87.0,264.0,327.0,125,80,110,67,47
2025-03-17 18:29:26.985,-389.0,352.0,-485.0,98.0,186.0,287.0,117,78,105,66,45
2025-03-17 18:29:27.013,-550.0,533.0,-1073.0,260.0,104.0,186.0,102,75,98,63,43
2025-03-17 18:29:27.034,-1163.0,1125.0,-2137.0,341.0,-125.0,-29.0,87,72,93,64,43
2025-03-17 18:29:27.059,-1163.0,1917.0,-3250.0,414.0,-625.0,-363.0,79,79,91,64,44
2025-03-17 18:29:27.083,2340.0,1084.0,-2121.0,335.0,-1204.0,-353.0,76,86,93,63,46
2025-03-17 18:29:27.108,4168.0,-595.0,1702.0,451.0,-970.0,-124.0,77,90,95,65,50
2025-03-17 18:29:27.131,2638.0,1190.0,5182.0,252.0,-280.0,-102.0,80,97,97,65,53
2025-03-17 18:29:27.156,1727.0,156.0,3943.0,29.0,100.0,-46.0,79,99,98,64,57
2025-03-17 18:29:27.180,791.0,-202.0,2232.0,-128.0,114.0,18.0,81,100,99,64,57
2025-03-17 18:29:27.205,547.0,-419.0,1625.0,-125.0,119.0,55.0,82,100,100,66,53
2025-03-17 18:29:27.227,508.0,-337.0,1835.0,-52.0,137.0,47.0,81,100,100,69,55
2025-03-17 18:29:27.251,535.0,-67.0,2026.0,-126.0,251.0,68.0,81,100,100,67,55
2025-03-17 18:29:27.263,393.0,-296.0,1287.0,-220.0,350.0,139.0,88,101,93,65,54
2025-03-17 18:29:27.300,-38.0,96.0,480.0,-171.0,278.0,136.0,85,99,102,67,53
2025-03-17 18:29:27.324,-28.0,53.0,562.0,-121.0,253.0,40.0,87,99,102,61,52
2025-03-17 18:29:27.349,53.0,-273.0,653.0,-120.0,322.0,84.0,88,94,102,68,48
2025-03-17 18:29:27.373,-281.0,-442.0,160.0,-91.0,276.0,156.0,88,91,104,68,50
2025-03-17 18:29:27.390,-174.0,12.0,208.0,-61.0,240.0,150.0,88,88,102,68,50
2025-03-17 18:29:27.417,-388.0,177.0,-33.0,2.0,242.0,87.0,88,91,103,67,48
2025-03-17 18:29:27.443,-857.0,448.0,-694.0,56.0,158.0,64.0,89,91,103,65,47
2025-03-17 18:29:27.468,-1422.0,799.0,-2146.0,180.0,-70.0,-82.0,89,90,104,68,47
2025-03-17 18:29:27.492,-1365.0,1261.0,-2961.0,290.0,-544.0,-283.0,84,78,104,68,47
2025-03-17 18:29:27.517,2038.0,894.0,-2076.0,366.0,-1150.0,-231.0,74,89,105,70,50
2025-03-17 18:29:27.536,4307.0,-408.0,2466.0,370.0,-930.0,-60.0,81,103,105,70,55
2025-03-17 18:29:27.562,2980.0,596.0,5865.0,-11.0,-202.0,11.0,83,110,106,69,56
2025-03-17 18:29:27.587,1668.0,-5.0,3308.0,-224.0,141.0,67.0,79,111,107,56,58
2025-03-17 18:29:27.610,584.0,-520.0,1550.0,-281.0,151.0,98.0,91,110,112,62,60
2025-03-17 18:29:27.634,402.0,-556.0,1383.0,-313.0,124.0,120.0,91,106,110,65,61
2025-03-17 18:29:27.660,330.0,-672.0,1516.0,-342.0,137.0,157.0,103,107,111,65,63
2025-03-17 18:29:27.684,373.0,-628.0,1081.0,-362.0,193.0,209.0,102,105,112,53,61
2025-03-17 18:29:27.710,456.0,-660.0,908.0,-357.0,281.0,251.0,116,103,115,70,64
2025-03-17 18:29:27.731,292.0,-541.0,508.0,-369.0,303.0,278.0,118,80,117,71,64
2025-03-17 18:29:27.755,130.0,-340.0,375.0,-365.0,306.0,301.0,123,72,122,51,60
2025-03-17 18:29:27.779,-168.0,-220.0,-34.0,-289.0,276.0,308.0,125,70,125,67,59
2025-03-17 18:29:27.804,-127.0,-299.0,23.0,-139.0,309.0,279.0,125,57,124,71,66
2025-03-17 18:29:27.828,-655.0,-47.0,-400.0,9.0,270.0,206.0,124,42,121,68,60
2025-03-17 18:29:27.853,-543.0,806.0,-234.0,-13.0,171.0,143.0,124,37,118,69,58
2025-03-17 18:29:27.877,-746.0,1041.0,-658.0,107.0,97.0,54.0,123,30,108,63,52
2025-03-17 18:29:27.898,-852.0,2378.0,-848.0,335.0,-51.0,-71.0,121,33,102,63,44
2025-03-17 18:29:27.924,-922.0,4096.0,-2472.0,385.0,-310.0,-527.0,121,31,102,58,41
2025-03-17 18:29:27.948,998.0,3657.0,-1915.0,225.0,-792.0,-1031.0,114,28,100,61,42
2025-03-17 18:29:27.972,7979.0,1367.0,-480.0,31.0,-1324.0,-1040.0,121,29,101,60,35
2025-03-17 18:29:27.984,8276.0,-9457.0,4889.0,-30.0,-42.0,-56.0,107,38,101,54,44
2025-03-17 18:29:28.021,-375.0,-735.0,-956.0,4.0,506.0,182.0,128,36,101,55,45
2025-03-17 18:29:28.039,-90.0,29.0,269.0,9.0,-40.0,142.0,130,33,101,56,48
2025-03-17 18:29:28.070,1043.0,-2315.0,1587.0,-201.0,20.0,188.0,132,35,102,54,46
2025-03-17 18:29:28.091,1142.0,-1896.0,2020.0,-90.0,255.0,311.0,131,34,103,38,45
2025-03-17 18:29:28.115,-92.0,-881.0,166.0,-164.0,182.0,362.0,120,33,104,58,46
2025-03-17 18:29:28.139,278.0,-487.0,463.0,-285.0,145.0,354.0,124,38,104,59,48
2025-03-17 18:29:28.161,141.0,-662.0,96.0,-159.0,213.0,335.0,130,39,108,58,48
2025-03-17 18:29:28.189,-468.0,-860.0,-230.0,-73.0,158.0,277.0,134,39,107,61,49
2025-03-17 18:29:28.213,-38.0,-206.0,173.0,-44.0,154.0,297.0,137,40,108,63,49
2025-03-17 18:29:28.234,-376.0,181.0,-21.0,48.0,150.0,252.0,134,38,108,60,47
2025-03-17 18:29:28.259,-666.0,701.0,-346.0,134.0,133.0,191.0,134,37,108,62,48
2025-03-17 18:29:28.283,-715.0,1089.0,-275.0,124.0,35.0,90.0,133,39,109,61,47
2025-03-17 18:29:28.306,-578.0,1216.0,-349.0,190.0,7.0,-47.0,133,40,109,61,48
2025-03-17 18:29:28.332,-802.0,1987.0,-905.0,325.0,-93.0,-243.0,134,41,109,64,47
2025-03-17 18:29:28.357,-1230.0,3017.0,-2173.0,350.0,-395.0,-729.0,129,40,108,61,46
2025-03-17 18:29:28.381,2273.0,2353.0,-2213.0,107.0,-1018.0,-1056.0,125,37,106,62,49
2025-03-17 18:29:28.405,7925.0,-6045.0,3992.0,101.0,-706.0,-378.0,132,37,106,60,47
2025-03-17 18:29:28.427,3621.0,-3987.0,3201.0,212.0,504.0,90.0,126,39,106,55,52
2025-03-17 18:29:28.451,-1001.0,381.0,-361.0,6.0,251.0,115.0,126,38,105,60,56
2025-03-17 18:29:28.475,-141.0,-1501.0,902.0,-87.0,40.0,-4.0,135,41,108,60,54
2025-03-17 18:29:28.500,399.0,-1497.0,1302.0,66.0,195.0,23.0,135,40,109,59,52
2025-03-17 18:29:28.525,-347.0,-790.0,1404.0,132.0,180.0,5.0,137,37,109,66,53
2025-03-17 18:29:28.549,-23.0,-630.0,246.0,118.0,108.0,-21.0,121,42,109,54,54
2025-03-17 18:29:28.571,-53.0,-852.0,-67.0,99.0,97.0,-8.0,132,38,110,60,51
2025-03-17 18:29:28.595,-36.0,-800.0,248.0,156.0,65.0,-18.0,134,40,109,63,54
2025-03-17 18:29:28.620,57.0,-670.0,315.0,170.0,70.0,-18.0,136,38,109,63,53
2025-03-17 18:29:28.644,120.0,-727.0,331.0,170.0,60.0,-32.0,134,39,107,61,52
2025-03-17 18:29:28.668,326.0,-1359.0,310.0,180.0,38.0,-1.0,136,39,108,64,52
2025-03-17 18:29:28.692,603.0,-1507.0,357.0,180.0,0.0,60.0,138,39,108,62,53
2025-03-17 18:29:28.716,1233.0,-2134.0,700.0,222.0,-10.0,196.0,140,42,108,61,53
2025-03-17 18:29:28.742,1530.0,-2605.0,1057.0,192.0,-6.0,449.0,141,46,109,65,54
2025-03-17 18:29:28.763,2641.0,-2136.0,1213.0,-30.0,8.0,834.0,127,41,110,62,52
2025-03-17 18:29:28.787,3188.0,-184.0,1283.0,-88.0,-106.0,946.0,120,41,109,63,50
2025-03-17 18:29:28.812,1770.0,2834.0,1893.0,-49.0,-9.0,765.0,142,42,109,64,50
2025-03-17 18:29:28.836,-427.0,5130.0,994.0,100.0,94.0,180.0,147,42,109,63,52
2025-03-17 18:29:28.858,-903.0,4534.0,1406.0,121.0,34.0,-44.0,146,41,108,62,49
2025-03-17 18:29:28.885,-169.0,2327.0,1538.0,32.0,78.0,-287.0,145,42,109,63,47
2025-03-17 18:29:28.908,246.0,511.0,1179.0,-46.0,111.0,-378.0,134,41,109,63,46
2025-03-17 18:29:28.931,-94.0,-405.0,583.0,3.0,33.0,-369.0,130,42,109,65,47
2025-03-17 18:29:28.955,31.0,-231.0,497.0,74.0,5.0,-389.0,143,42,110,64,49
2025-03-17 18:29:28.980,-196.0,-65.0,406.0,103.0,-76.0,-396.0,145,41,110,65,50
2025-03-17 18:29:29.004,328.0,-466.0,630.0,111.0,-116.0,-323.0,145,42,110,64,52
2025-03-17 18:29:29.020,300.0,-697.0,1155.0,86.0,-75.0,-257.0,127,37,109,64,52
2025-03-17 18:29:29.052,106.0,-827.0,843.0,71.0,-65.0,-201.0,143,41,108,63,50
2025-03-17 18:29:29.069,101.0,-800.0,657.0,106.0,-89.0,-152.0,145,41,110,62,52
2025-03-17 18:29:29.098,282.0,-745.0,970.0,57.0,-81.0,-97.0,144,43,109,63,52
2025-03-17 18:29:29.123,587.0,-1179.0,1215.0,96.0,-14.0,-37.0,145,41,108,63,52
2025-03-17 18:29:29.147,586.0,-1199.0,1007.0,116.0,-4.0,43.0,146,43,110,63,54
2025-03-17 18:29:29.172,1061.0,-1686.0,1296.0,83.0,-17.0,194.0,146,43,110,63,53
2025-03-17 18:29:29.197,1954.0,-2189.0,1937.0,40.0,117.0,490.0,146,43,108,64,53
2025-03-17 18:29:29.221,2852.0,-1097.0,1564.0,-148.0,186.0,855.0,145,43,109,63,53
2025-03-17 18:29:29.245,2293.0,1520.0,1891.0,-343.0,77.0,873.0,147,43,109,63,51
2025-03-17 18:29:29.267,828.0,2902.0,1746.0,-298.0,249.0,563.0,144,41,108,61,51
2025-03-17 18:29:29.291,-782.0,4143.0,626.0,2.0,224.0,216.0,143,42,108,62,55
2025-03-17 18:29:29.315,-670.0,3782.0,1646.0,-41.0,129.0,-19.0,146,43,109,58,52
2025-03-17 18:29:29.340,-353.0,1779.0,1554.0,-69.0,215.0,-190.0,145,43,110,54,52
2025-03-17 18:29:29.364,-9.0,199.0,1329.0,-219.0,316.0,-284.0,147,47,114,69,52
2025-03-17 18:29:29.389,443.0,-2206.0,1071.0,-243.0,312.0,-204.0,154,53,120,76,58
2025-03-17 18:29:29.413,375.0,-2339.0,885.0,-143.0,383.0,-47.0,153,52,121,70,59
2025-03-17 18:29:29.435,-431.0,-878.0,-536.0,-95.0,425.0,34.0,142,50,122,75,64
2025-03-17 18:29:29.457,-866.0,-827.0,-753.0,-154.0,242.0,59.0,136,53,122,69,62
2025-03-17 18:29:29.484,-299.0,-310.0,-73.0,41.0,176.0,103.0,123,53,126,68,69
2025-03-17 18:29:29.508,-1107.0,-57.0,-58.0,32.0,143.0,89.0,128,56,131,71,77
2025-03-17 18:29:29.532,-826.0,483.0,-601.0,11.0,148.0,42.0,125,58,136,90,87
2025-03-17 18:29:29.557,-777.0,924.0,-372.0,14.0,70.0,-41.0,128,73,135,99,96
2025-03-17 18:29:29.581,-600.0,1622.0,-453.0,42.0,15.0,-144.0,129,76,151,102,88
2025-03-17 18:29:29.603,-763.0,2349.0,-932.0,82.0,-85.0,-363.0,133,78,155,102,94
2025-03-17 18:29:29.628,-65.0,2415.0,-1248.0,1.0,-277.0,-707.0,134,84,156,103,101
2025-03-17 18:29:29.651,1326.0,2112.0,-1011.0,50.0,-362.0,-981.0,155,109,176,126,137
2025-03-17 18:29:29.676,3404.0,-65.0,-646.0,-99.0,-728.0,-876.0,136,97,155,103,117
2025-03-17 18:29:29.700,4290.0,-4765.0,752.0,-223.0,-667.0,-366.0,137,76,150,103,115
2025-03-17 18:29:29.725,3098.0,-4937.0,-143.0,-437.0,11.0,205.0,141,103,153,108,119
2025-03-17 18:29:29.749,955.0,-2425.0,-228.0,455.0,208.0,315.0,140,97,152,108,113
2025-03-17 18:29:29.774,-77.0,-1159.0,-1416.0,-102.0,-5.0,336.0,144,103,156,109,124
2025-03-17 18:29:29.795,164.0,-1229.0,-176.0,-99.0,5.0,298.0,144,94,156,109,126
2025-03-17 18:29:29.814,79.0,-1475.0,743.0,106.0,122.0,306.0,140,102,156,109,124
2025-03-17 18:29:29.844,-366.0,-768.0,-278.0,-106.0,37.0,334.0,141,97,153,108,119
2025-03-17 18:29:29.862,-294.0,-56.0,317.0,29.0,51.0,288.0,141,96,151,104,116
2025-03-17 18:29:29.892,-231.0,-35.0,299.0,41.0,60.0,301.0,140,95,150,104,117
2025-03-17 18:29:29.911,-434.0,-75.0,65.0,60.0,89.0,247.0,142,91,150,109,117
2025-03-17 18:29:29.938,-410.0,114.0,316.0,12.0,88.0,198.0,124,97,151,105,118
2025-03-17 18:29:29.963,-625.0,413.0,508.0,82.0,95.0,201.0,129,93,154,107,119
2025-03-17 18:29:29.986,-350.0,1763.0,370.0,241.0,193.0,89.0,140,79,154,109,122
2025-03-17 18:29:30.009,-1046.0,3441.0,-1636.0,161.0,-136.0,-417.0,138,89,155,110,124
2025-03-17 18:29:30.036,-61.0,2889.0,-605.0,63.0,-285.0,-926.0,131,82,151,102,120
2025-03-17 18:29:30.059,4298.0,-1074.0,-363.0,-154.0,-724.0,-908.0,135,101,154,105,121
2025-03-17 18:29:30.086,2520.0,-7103.0,-570.0,-181.0,-309.0,-363.0,137,105,153,111,123
2025-03-17 18:29:30.110,2519.0,-3597.0,-1191.0,-49.0,75.0,209.0,133,103,151,108,124
2025-03-17 18:29:30.123,-391.0,-1008.0,3016.0,254.0,-16.0,240.0,137,112,156,109,124
2025-03-17 18:29:30.159,-191.0,-682.0,10.0,78.0,96.0,89.0,138,89,155,112,127
2025-03-17 18:29:30.184,-130.0,-1477.0,576.0,-88.0,-10.0,71.0,140,108,155,111,125
2025-03-17 18:29:30.208,130.0,-1780.0,-4.0,47.0,204.0,134.0,134,106,157,113,122
2025-03-17 18:29:30.233,-273.0,-924.0,732.0,-1.0,243.0,195.0,137,108,155,112,127
2025-03-17 18:29:30.254,-156.0,-697.0,117.0,126.0,231.0,223.0,139,107,157,113,128
2025-03-17 18:29:30.278,-171.0,-395.0,147.0,280.0,252.0,216.0,128,91,151,108,120
2025-03-17 18:29:30.302,-597.0,294.0,-99.0,309.0,201.0,135.0,132,83,149,106,115
2025-03-17 18:29:30.327,-382.0,-221.0,126.0,302.0,168.0,40.0,136,86,151,95,118
2025-03-17 18:29:30.351,-654.0,-675.0,-584.0,261.0,62.0,27.0,132,69,150,75,105
2025-03-17 18:29:30.373,-542.0,-248.0,-70.0,429.0,-10.0,-21.0,135,61,149,84,81
2025-03-17 18:29:30.397,-576.0,-90.0,-494.0,248.0,-142.0,-79.0,142,57,145,82,64
2025-03-17 18:29:30.422,-425.0,-67.0,29.0,293.0,-230.0,-201.0,142,52,135,72,55
2025-03-17 18:29:30.446,156.0,-988.0,195.0,420.0,-285.0,-188.0,140,42,128,70,50
2025-03-17 18:29:30.471,1118.0,-1633.0,1516.0,461.0,-238.0,-59.0,137,50,126,79,53
2025-03-17 18:29:30.495,1395.0,-2710.0,1928.0,464.0,-52.0,136.0,144,43,116,69,53
2025-03-17 18:29:30.520,1939.0,-2570.0,2515.0,122.0,173.0,458.0,143,41,111,66,51
2025-03-17 18:29:30.543,2130.0,-1125.0,1442.0,-96.0,164.0,795.0,146,42,108,66,49
2025-03-17 18:29:30.569,2219.0,973.0,1543.0,-237.0,25.0,863.0,146,49,114,70,52
2025-03-17 18:29:30.590,769.0,3242.0,1458.0,-85.0,170.0,559.0,139,48,114,68,51
2025-03-17 18:29:30.615,-567.0,4605.0,565.0,72.0,160.0,173.0,151,51,116,69,54
2025-03-17 18:29:30.638,-488.0,4152.0,996.0,50.0,82.0,-110.0,150,50,115,66,54
2025-03-17 18:29:30.656,52.0,1923.0,1324.0,-14.0,115.0,-280.0,157,59,125,79,67
2025-03-17 18:29:30.688,-69.0,523.0,783.0,-39.0,104.0,-333.0,150,51,116,68,54
2025-03-17 18:29:30.712,-189.0,-261.0,606.0,60.0,14.0,-318.0,148,47,114,68,51
2025-03-17 18:29:30.735,-179.0,-267.0,691.0,45.0,-29.0,-302.0,148,46,113,67,51
2025-03-17 18:29:30.747,7.0,-543.0,814.0,62.0,-30.0,-309.0,151,47,115,67,54
2025-03-17 18:29:30.779,-111.0,-480.0,596.0,140.0,-65.0,-204.0,152,51,119,71,60
2025-03-17 18:29:30.803,-121.0,-168.0,1155.0,64.0,-59.0,-175.0,152,49,120,71,64
2025-03-17 18:29:30.831,-277.0,-219.0,948.0,38.0,-40.0,-200.0,153,51,119,72,61
2025-03-17 18:29:30.856,-304.0,-605.0,588.0,76.0,-73.0,-174.0,154,52,120,72,61
2025-03-17 18:29:30.880,-13.0,-244.0,734.0,35.0,-99.0,-133.0,156,65,132,84,74
2025-03-17 18:29:30.904,333.0,-1253.0,816.0,12.0,-110.0,-108.0,153,53,120,72,61
2025-03-17 18:29:30.926,1054.0,-2578.0,997.0,80.0,-64.0,67.0,162,58,124,77,66
2025-03-17 18:29:30.950,1814.0,-3142.0,1803.0,-20.0,-33.0,359.0,152,60,125,80,69
2025-03-17 18:29:30.974,2651.0,-2578.0,1839.0,-267.0,41.0,729.0,159,59,126,80,68
2025-03-17 18:29:30.998,1807.0,655.0,1671.0,-374.0,-74.0,834.0,159,59,125,79,65
2025-03-17 18:29:31.024,367.0,3591.0,2084.0,-356.0,-28.0,641.0,153,52,120,70,58
2025-03-17 18:29:31.048,-21.0,2827.0,2302.0,45.0,189.0,211.0,149,52,121,73,60
2025-03-17 18:29:31.070,-888.0,3440.0,2184.0,51.0,154.0,71.0,153,52,123,73,60
2025-03-17 18:29:31.087,-282.0,1614.0,1973.0,-35.0,183.0,-143.0,149,49,117,62,56
2025-03-17 18:29:31.118,-46.0,-251.0,1769.0,-38.0,284.0,-161.0,149,54,124,73,62
2025-03-17 18:29:31.143,-349.0,-654.0,905.0,-40.0,255.0,-138.0,146,49,120,67,51
2025-03-17 18:29:31.167,-225.0,-956.0,631.0,-29.0,213.0,-116.0,146,44,123,69,49
2025-03-17 18:29:31.191,-278.0,-1593.0,608.0,8.0,287.0,-52.0,148,54,132,70,53
2025-03-17 18:29:31.216,-360.0,-791.0,354.0,44.0,294.0,-23.0,146,52,139,73,54
2025-03-17 18:29:31.241,-764.0,-690.0,-92.0,1.0,230.0,35.0,144,64,145,77,56
2025-03-17 18:29:31.262,-984.0,-479.0,486.0,88.0,188.0,41.0,144,72,147,78,56
2025-03-17 18:29:31.286,-575.0,-68.0,183.0,110.0,231.0,46.0,143,67,149,80,57
2025-03-17 18:29:31.310,-841.0,594.0,-260.0,97.0,219.0,27.0,137,84,145,72,51
2025-03-17 18:29:31.335,-697.0,1093.0,-672.0,81.0,158.0,-77.0,135,92,146,77,51
2025-03-17 18:29:31.359,-843.0,1665.0,-1436.0,120.0,21.0,-284.0,131,98,148,76,50
2025-03-17 18:29:31.384,-892.0,1826.0,-2017.0,52.0,-314.0,-609.0,125,103,149,73,50
2025-03-17 18:29:31.408,298.0,1520.0,-1847.0,48.0,-668.0,-836.0,105,79,152,74,50
2025-03-17 18:29:31.433,3353.0,1139.0,-1042.0,-98.0,-1044.0,-820.0,102,115,162,91,50
2025-03-17 18:29:31.454,4770.0,-3373.0,574.0,-225.0,-873.0,-480.0,100,110,153,74,40
2025-03-17 18:29:31.479,4272.0,-4519.0,1742.0,26.0,-198.0,68.0,108,100,154,71,44
2025-03-17 18:29:31.503,1709.0,-2406.0,710.0,220.0,250.0,169.0,106,116,148,75,31
2025-03-17 18:29:31.527,319.0,-1466.0,84.0,91.0,189.0,208.0,114,123,157,83,57
2025-03-17 18:29:31.552,35.0,-1117.0,837.0,-109.0,98.0,254.0,112,107,155,83,54
2025-03-17 18:29:31.573,230.0,-1330.0,807.0,-86.0,111.0,234.0,118,101,159,75,58
2025-03-17 18:29:31.600,219.0,-1240.0,539.0,39.0,193.0,288.0,127,125,169,101,68
2025-03-17 18:29:31.621,32.0,-268.0,453.0,52.0,149.0,323.0,123,113,164,89,57
2025-03-17 18:29:31.646,40.0,-264.0,491.0,-95.0,154.0,311.0,124,110,160,82,64
2025-03-17 18:29:31.671,-286.0,-538.0,225.0,-14.0,165.0,279.0,123,118,166,82,60
2025-03-17 18:29:31.695,-555.0,-280.0,207.0,77.0,142.0,204.0,129,107,164,87,64
2025-03-17 18:29:31.718,-664.0,98.0,258.0,-10.0,101.0,145.0,120,91,153,68,53
2025-03-17 18:29:31.743,-459.0,-163.0,241.0,49.0,147.0,116.0,116,110,153,83,49
2025-03-17 18:29:31.768,-765.0,575.0,-173.0,106.0,133.0,105.0,110,111,154,78,55
2025-03-17 18:29:31.789,-1208.0,1813.0,-923.0,122.0,-2.0,-16.0,118,109,154,73,56
2025-03-17 18:29:31.814,-1392.0,3022.0,-1486.0,140.0,-252.0,-374.0,118,115,157,81,58
2025-03-17 18:29:31.839,-310.0,2207.0,-640.0,132.0,-528.0,-713.0,116,114,156,81,57
2025-03-17 18:29:31.863,2560.0,-359.0,694.0,200.0,-611.0,-752.0,119,116,160,84,63
2025-03-17 18:29:31.888,3478.0,-2936.0,2466.0,120.0,-408.0,-415.0,126,124,161,84,69
2025-03-17 18:29:31.912,2655.0,-3420.0,1921.0,13.0,-74.0,17.0,118,120,161,82,63
2025-03-17 18:29:31.923,810.0,-1710.0,1309.0,-9.0,39.0,91.0,128,86,158,68,64
2025-03-17 18:29:31.955,34.0,-862.0,853.0,31.0,83.0,46.0,131,104,155,79,49
2025-03-17 18:29:31.979,-13.0,-667.0,942.0,92.0,174.0,-4.0,139,96,156,78,62
2025-03-17 18:29:32.006,49.0,-784.0,796.0,166.0,263.0,-22.0,142,123,160,78,71
2025-03-17 18:29:32.031,32.0,-831.0,543.0,267.0,272.0,-40.0,145,111,158,76,66
2025-03-17 18:29:32.055,458.0,-755.0,355.0,200.0,271.0,-14.0,147,74,156,84,63
2025-03-17 18:29:32.080,-59.0,-583.0,372.0,193.0,233.0,-1.0,141,61,146,71,58
2025-03-17 18:29:32.105,-245.0,-718.0,408.0,183.0,140.0,13.0,131,57,139,75,57
2025-03-17 18:29:32.126,-259.0,-662.0,496.0,203.0,58.0,11.0,124,46,126,67,49
2025-03-17 18:29:32.150,-62.0,-1101.0,704.0,206.0,8.0,44.0,135,43,122,75,49
2025-03-17 18:29:32.173,249.0,-1689.0,975.0,188.0,-16.0,107.0,135,45,120,69,51
2025-03-17 18:29:32.199,908.0,-1983.0,1716.0,93.0,3.0,280.0,138,46,122,69,54
2025-03-17 18:29:32.221,1625.0,-2614.0,1657.0,-28.0,81.0,663.0,142,46,118,70,52
2025-03-17 18:29:32.246,2146.0,-525.0,1525.0,-159.0,-24.0,869.0,147,47,117,69,52
2025-03-17 18:29:32.270,2083.0,1599.0,2192.0,-175.0,-13.0,785.0,144,53,117,72,55
2025-03-17 18:29:32.293,668.0,4319.0,698.0,22.0,246.0,296.0,150,51,117,68,55
2025-03-17 18:29:32.318,-977.0,4969.0,37.0,-21.0,49.0,52.0,142,49,115,66,51
2025-03-17 18:29:32.343,-214.0,3097.0,1012.0,-44.0,15.0,-225.0,141,46,114,66,50
2025-03-17 18:29:32.367,215.0,927.0,1146.0,-59.0,52.0,-331.0,148,45,113,65,48
2025-03-17 18:29:32.391,142.0,-367.0,1011.0,41.0,46.0,-310.0,142,51,119,72,55
2025-03-17 18:29:32.415,-22.0,-226.0,912.0,84.0,23.0,-306.0,152,73,138,93,77
2025-03-17 18:29:32.440,-91.0,-318.0,939.0,67.0,36.0,-314.0,148,53,119,68,55
2025-03-17 18:29:32.462,-173.0,-612.0,915.0,78.0,36.0,-234.0,144,54,122,75,58
2025-03-17 18:29:32.486,-153.0,-636.0,924.0,55.0,32.0,-173.0,156,62,129,83,67
2025-03-17 18:29:32.511,-355.0,-507.0,713.0,44.0,26.0,-163.0,149,61,128,83,65
2025-03-17 18:29:32.535,-407.0,-645.0,564.0,68.0,-19.0,-180.0,140,48,117,70,53
2025-03-17 18:29:32.559,-266.0,-833.0,623.0,62.0,-62.0,-111.0,142,52,118,73,56
2025-03-17 18:29:32.584,-30.0,-1225.0,725.0,71.0,-81.0,-62.0,149,58,124,81,63
2025-03-17 18:29:32.609,481.0,-2272.0,859.0,126.0,-108.0,78.0,157,63,131,86,70
2025-03-17 18:29:32.633,1145.0,-2532.0,1493.0,109.0,-97.0,323.0,152,65,130,76,68
2025-03-17 18:29:32.654,1689.0,-1525.0,1732.0,-156.0,-48.0,615.0,170,77,140,97,82
2025-03-17 18:29:32.678,1277.0,796.0,1550.0,-402.0,-111.0,693.0,174,85,145,104,88
2025-03-17 18:29:32.700,49.0,3496.0,1625.0,-228.0,-3.0,419.0,150,58,122,78,61
2025-03-17 18:29:32.727,-641.0,3875.0,1745.0,-129.0,47.0,17.0,152,53,119,71,56
2025-03-17 18:29:32.752,-30.0,1531.0,2701.0,-164.0,122.0,-129.0,143,50,116,65,54
2025-03-17 18:29:32.773,385.0,-455.0,2578.0,-360.0,295.0,-133.0,145,49,113,58,51
2025-03-17 18:29:32.789,36.0,-1782.0,1120.0,-360.0,332.0,-62.0,145,46,113,66,49
2025-03-17 18:29:32.822,-375.0,-1406.0,359.0,-187.0,283.0,24.0,143,49,115,68,52
2025-03-17 18:29:32.847,-368.0,-1070.0,285.0,-231.0,240.0,31.0,141,42,116,64,54
2025-03-17 18:29:32.871,-372.0,-1329.0,347.0,-237.0,283.0,81.0,141,45,114,60,52
2025-03-17 18:29:32.895,-688.0,-1116.0,-44.0,-127.0,233.0,130.0,124,43,114,67,55
2025-03-17 18:29:32.920,-157.0,-810.0,188.0,-22.0,297.0,179.0,137,42,113,69,54
2025-03-17 18:29:32.944,-587.0,96.0,73.0,-86.0,301.0,129.0,125,33,110,67,54
2025-03-17 18:29:32.967,-573.0,144.0,-146.0,-84.0,215.0,114.0,125,38,110,61,52
2025-03-17 18:29:32.990,-520.0,490.0,-88.0,-36.0,187.0,108.0,117,37,111,68,55
2025-03-17 18:29:33.014,-728.0,1148.0,-454.0,53.0,131.0,107.0,116,34,110,65,52
2025-03-17 18:29:33.039,-667.0,2355.0,-698.0,216.0,51.0,-4.0,123,42,110,68,50
2025-03-17 18:29:33.064,-293.0,3292.0,-1176.0,327.0,-107.0,-342.0,121,52,116,75,59
2025-03-17 18:29:33.074,-112.0,2922.0,-1968.0,271.0,-283.0,-657.0,105,40,105,55,45
2025-03-17 18:29:33.112,400.0,3200.0,-2518.0,226.0,-769.0,-1019.0,95,29,103,59,39
2025-03-17 18:29:33.137,7968.0,2417.0,-1146.0,-142.0,-1394.0,-1070.0,101,27,103,57,45
2025-03-17 18:29:33.161,8546.0,-9065.0,4433.0,-62.0,135.0,-58.0,101,34,104,60,41
2025-03-17 18:29:33.186,1601.0,-5683.0,-4356.0,98.0,631.0,301.0,92,33,104,57,47
2025-03-17 18:29:33.207,-697.0,-26.0,-1753.0,253.0,-187.0,119.0,98,42,106,61,52
2025-03-17 18:29:33.227,961.0,-2328.0,1436.0,-234.0,-27.0,176.0,93,40,109,60,49
2025-03-17 18:29:33.245,764.0,-2457.0,1578.0,-94.0,245.0,278.0,111,49,110,52,54
2025-03-17 18:29:33.280,269.0,-1062.0,593.0,71.0,189.0,299.0,103,36,104,53,45
2025-03-17 18:29:33.304,82.0,-150.0,440.0,-71.0,195.0,293.0,105,43,108,60,51
2025-03-17 18:29:33.329,-796.0,-184.0,583.0,-192.0,165.0,285.0,112,42,108,62,48
2025-03-17 18:29:33.353,-197.0,-196.0,395.0,-146.0,144.0,253.0,114,45,109,54,50
2025-03-17 18:29:33.371,-221.0,-178.0,247.0,-136.0,192.0,294.0,122,45,111,58,52
2025-03-17 18:29:33.399,-637.0,223.0,-81.0,-52.0,118.0,266.0,130,48,114,62,53
2025-03-17 18:29:33.424,-496.0,292.0,-14.0,57.0,114.0,216.0,131,48,114,62,52
2025-03-17 18:29:33.448,-417.0,519.0,-146.0,240.0,107.0,205.0,136,49,114,63,54
2025-03-17 18:29:33.470,-721.0,1839.0,-846.0,380.0,83.0,99.0,134,49,114,65,51
2025-03-17 18:29:33.487,-1103.0,3105.0,-1536.0,351.0,-80.0,-316.0,121,46,111,63,46
2025-03-17 18:29:33.520,-997.0,2165.0,-1633.0,296.0,-407.0,-760.0,105,41,110,65,47
2025-03-17 18:29:33.543,2889.0,960.0,-788.0,183.0,-935.0,-903.0,105,42,109,61,45
2025-03-17 18:29:33.567,6617.0,-4732.0,5052.0,18.0,-464.0,-257.0,125,41,114,66,50
2025-03-17 18:29:33.591,3161.0,-4549.0,2950.0,3.0,409.0,64.0,126,43,111,61,48
2025-03-17 18:29:33.616,-336.0,-1089.0,-1777.0,136.0,167.0,161.0,120,46,112,67,53
2025-03-17 18:29:33.641,-192.0,-1284.0,182.0,56.0,-43.0,110.0,136,44,116,70,58
2025-03-17 18:29:33.665,774.0,-1775.0,558.0,48.0,117.0,147.0,139,45,116,69,56
2025-03-17 18:29:33.689,359.0,-1578.0,400.0,173.0,157.0,233.0,137,44,111,61,51
2025-03-17 18:29:33.698,264.0,-999.0,-78.0,223.0,124.0,307.0,134,34,113,52,54
2025-03-17 18:29:33.735,148.0,-244.0,-219.0,204.0,101.0,329.0,138,42,112,56,55
2025-03-17 18:29:33.759,-5.0,-442.0,-39.0,224.0,33.0,370.0,137,45,113,47,56
2025-03-17 18:29:33.784,7.0,36.0,419.0,234.0,24.0,351.0,143,45,116,65,60
2025-03-17 18:29:33.808,52.0,44.0,643.0,217.0,-17.0,390.0,144,43,120,74,75
2025-03-17 18:29:33.833,9.0,430.0,593.0,269.0,-13.0,339.0,139,45,120,75,77
2025-03-17 18:29:33.857,-229.0,1026.0,914.0,262.0,-24.0,270.0,150,49,124,79,108
2025-03-17 18:29:33.879,-674.0,2120.0,363.0,220.0,-58.0,138.0,150,51,125,78,117
2025-03-17 18:29:33.904,-1150.0,3405.0,36.0,189.0,-106.0,-107.0,139,47,123,73,120
2025-03-17 18:29:33.928,-1367.0,3630.0,-278.0,171.0,-216.0,-375.0,143,48,123,73,123
2025-03-17 18:29:33.952,-660.0,3092.0,-82.0,88.0,-348.0,-517.0,146,47,121,75,128
2025-03-17 18:29:33.977,551.0,1146.0,495.0,-10.0,-427.0,-501.0,141,52,130,80,131
2025-03-17 18:29:34.001,2121.0,-925.0,1346.0,20.0,-362.0,-363.0,150,52,130,78,133
2025-03-17 18:29:34.026,2291.0,-2069.0,2043.0,19.0,-218.0,-165.0,151,53,131,67,133
2025-03-17 18:29:34.047,1570.0,-1788.0,2229.0,-23.0,-25.0,6.0,153,54,132,51,136
2025-03-17 18:29:34.071,1156.0,-1338.0,1764.0,-34.0,104.0,100.0,151,52,132,57,134
2025-03-17 18:29:34.096,491.0,-891.0,915.0,-26.0,152.0,159.0,147,47,127,69,130
2025-03-17 18:29:34.120,85.0,-348.0,1109.0,-22.0,111.0,198.0,148,48,129,67,131
2025-03-17 18:29:34.145,2.0,143.0,1176.0,-36.0,109.0,207.0,147,49,129,78,130
2025-03-17 18:29:34.169,-264.0,498.0,986.0,-31.0,125.0,184.0,147,49,128,78,130
2025-03-17 18:29:34.193,-320.0,578.0,780.0,-6.0,138.0,162.0,136,50,130,82,133
2025-03-17 18:29:34.215,-400.0,730.0,640.0,-5.0,131.0,147.0,146,52,132,82,136
2025-03-17 18:29:34.239,-386.0,822.0,471.0,0.0,113.0,116.0,149,52,131,82,136
2025-03-17 18:29:34.256,-408.0,775.0,474.0,37.0,82.0,96.0,150,52,133,81,135
2025-03-17 18:29:34.288,-398.0,829.0,510.0,62.0,66.0,95.0,150,52,132,84,135
2025-03-17 18:29:34.304,-498.0,1290.0,571.0,46.0,54.0,72.0,146,48,129,79,134
2025-03-17 18:29:34.336,-827.0,2053.0,322.0,30.0,35.0,-19.0,142,48,128,79,132
2025-03-17 18:29:34.361,-1261.0,2956.0,-71.0,3.0,-23.0,-194.0,144,49,129,79,132
2025-03-17 18:29:34.386,-1536.0,3222.0,-199.0,-21.0,-142.0,-402.0,143,52,131,82,134
2025-03-17 18:29:34.408,-923.0,2583.0,-472.0,-96.0,-291.0,-508.0,138,51,132,83,133
2025-03-17 18:29:34.432,1321.0,349.0,-501.0,-176.0,-457.0,-521.0,140,51,129,84,120
2025-03-17 18:29:34.456,2914.0,-3035.0,784.0,-155.0,-382.0,-312.0,140,53,131,82,131
2025-03-17 18:29:34.481,2977.0,-2728.0,2038.0,-118.0,-234.0,-62.0,146,53,131,80,135
2025-03-17 18:29:34.505,2333.0,-2571.0,2007.0,-88.0,-24.0,68.0,137,49,126,66,131
2025-03-17 18:29:34.529,1203.0,-1663.0,1205.0,-44.0,145.0,172.0,130,50,129,73,132
2025-03-17 18:29:34.554,518.0,-888.0,993.0,-94.0,126.0,231.0,137,53,132,81,134
2025-03-17 18:29:34.575,403.0,-440.0,1446.0,-144.0,172.0,284.0,143,55,135,85,137
2025-03-17 18:29:34.597,-20.0,-35.0,1101.0,-108.0,220.0,302.0,153,61,141,89,142
2025-03-17 18:29:34.624,-400.0,419.0,807.0,-32.0,219.0,261.0,157,66,143,100,147
2025-03-17 18:29:34.645,-376.0,881.0,1087.0,-59.0,242.0,227.0,160,66,144,98,148
2025-03-17 18:29:34.672,-182.0,488.0,963.0,-84.0,309.0,222.0,153,59,139,92,130
2025-03-17 18:29:34.698,-190.0,356.0,614.0,-44.0,338.0,254.0,154,61,141,93,137
2025-03-17 18:29:34.722,-263.0,643.0,-786.0,-54.0,299.0,303.0,143,50,136,85,126
2025-03-17 18:29:34.742,-764.0,1111.0,61.0,-27.0,256.0,250.0,143,42,142,86,121
2025-03-17 18:29:34.754,-1231.0,1037.0,10.0,-74.0,157.0,119.0,140,59,147,89,120
2025-03-17 18:29:34.792,-788.0,1500.0,-275.0,-124.0,7.0,-35.0,135,73,150,101,124
2025-03-17 18:29:34.816,-926.0,2108.0,-1506.0,-226.0,-134.0,-285.0,127,58,153,103,129
2025-03-17 18:29:34.841,-773.0,2477.0,-2299.0,-289.0,-394.0,-657.0,123,75,155,102,134
2025-03-17 18:29:34.865,623.0,1393.0,-1163.0,-426.0,-545.0,-901.0,118,57,152,102,130
2025-03-17 18:29:34.890,1817.0,-828.0,-1560.0,-584.0,-737.0,-866.0,123,64,153,104,133
2025-03-17 18:29:34.913,5299.0,-4763.0,-1334.0,-538.0,-815.0,-289.0,141,108,164,118,145
2025-03-17 18:29:34.939,3088.0,-7594.0,172.0,-311.0,-84.0,197.0,168,145,196,151,179
2025-03-17 18:29:34.960,1197.0,-2031.0,667.0,369.0,398.0,294.0,136,98,160,110,137
2025-03-17 18:29:34.985,-66.0,-1030.0,-365.0,227.0,247.0,288.0,132,95,154,106,131
2025-03-17 18:29:35.013,-76.0,-875.0,552.0,129.0,-17.0,231.0,132,91,153,106,133
2025-03-17 18:29:35.033,153.0,-1353.0,547.0,-38.0,137.0,200.0,119,103,156,110,137
2025-03-17 18:29:35.058,-110.0,-1087.0,390.0,-77.0,312.0,238.0,132,103,153,111,134
2025-03-17 18:29:35.083,-490.0,-350.0,-25.0,54.0,167.0,319.0,122,95,156,109,135
2025-03-17 18:29:35.107,-237.0,115.0,362.0,72.0,128.0,305.0,128,97,156,108,133
2025-03-17 18:29:35.130,-467.0,115.0,371.0,-22.0,202.0,254.0,121,94,152,106,131
2025-03-17 18:29:35.148,-579.0,433.0,-240.0,158.0,113.0,262.0,123,89,151,104,130
2025-03-17 18:29:35.181,-147.0,624.0,176.0,135.0,40.0,172.0,122,88,152,105,130
2025-03-17 18:29:35.202,-481.0,1613.0,-521.0,206.0,-2.0,83.0,123,85,155,109,134
2025-03-17 18:29:35.227,-1273.0,2872.0,-1505.0,289.0,-243.0,-227.0,115,89,154,110,132
2025-03-17 18:29:35.251,-575.0,2762.0,-906.0,56.0,-439.0,-681.0,119,84,150,105,130
2025-03-17 18:29:35.276,2474.0,12.0,-513.0,-139.0,-644.0,-755.0,126,98,155,111,134
2025-03-17 18:29:35.300,4049.0,-4555.0,2193.0,-604.0,-530.0,-414.0,129,105,155,111,137
2025-03-17 18:29:35.325,2521.0,-6586.0,30.0,-263.0,-47.0,86.0,137,119,160,117,141
2025-03-17 18:29:35.349,322.0,-2586.0,-1289.0,420.0,99.0,202.0,141,118,162,119,143
2025-03-17 18:29:35.373,-228.0,-1377.0,-588.0,146.0,419.0,148.0,137,124,167,125,148
2025-03-17 18:29:35.398,-522.0,-1111.0,552.0,-154.0,-8.0,110.0,126,96,153,111,136
2025-03-17 18:29:35.422,-138.0,-1244.0,495.0,169.0,203.0,61.0,131,108,155,110,135
2025-03-17 18:29:35.447,-17.0,-1262.0,-228.0,207.0,209.0,115.0,132,101,156,112,136
2025-03-17 18:29:35.468,65.0,-912.0,-191.0,217.0,227.0,200.0,124,91,155,110,134
2025-03-17 18:29:35.492,-107.0,-605.0,70.0,222.0,107.0,246.0,145,83,166,118,148
2025-03-17 18:29:35.517,-224.0,-733.0,-119.0,390.0,79.0,260.0,136,75,165,112,151
2025-03-17 18:29:35.542,-259.0,-184.0,-357.0,443.0,39.0,266.0,155,71,164,106,154
2025-03-17 18:29:35.566,-357.0,387.0,-1104.0,405.0,-37.0,244.0,155,59,158,99,155
2025-03-17 18:29:35.590,-92.0,572.0,340.0,324.0,-6.0,202.0,136,52,144,90,144
2025-03-17 18:29:35.615,-342.0,848.0,463.0,255.0,-8.0,166.0,138,50,138,77,140
2025-03-17 18:29:35.636,-696.0,1319.0,500.0,272.0,-17.0,73.0,129,48,135,75,139
2025-03-17 18:29:35.657,-1274.0,2491.0,-24.0,285.0,-49.0,-60.0,119,48,136,80,140
2025-03-17 18:29:35.674,-1632.0,3144.0,-489.0,239.0,-149.0,-252.0,128,59,152,91,151
2025-03-17 18:29:35.710,-1209.0,2289.0,-474.0,198.0,-314.0,-348.0,125,49,146,87,148
2025-03-17 18:29:35.734,95.0,1493.0,381.0,117.0,-497.0,-351.0,129,57,149,82,152
2025-03-17 18:29:35.758,1632.0,-389.0,1902.0,35.0,-408.0,-269.0,132,57,149,89,150
2025-03-17 18:29:35.783,2238.0,-2006.0,2761.0,34.0,-125.0,-118.0,126,56,149,85,148
2025-03-17 18:29:35.805,1101.0,-1216.0,2187.0,-23.0,13.0,21.0,124,49,139,82,141
2025-03-17 18:29:35.828,943.0,-1183.0,1885.0,-53.0,57.0,107.0,122,52,143,89,143
2025-03-17 18:29:35.853,25.0,-223.0,1221.0,-70.0,81.0,148.0,131,56,145,90,147
2025-03-17 18:29:35.878,-233.0,272.0,1234.0,-65.0,115.0,161.0,134,60,149,95,150
2025-03-17 18:29:35.902,-491.0,602.0,882.0,-40.0,128.0,132.0,136,64,153,99,153
2025-03-17 18:29:35.926,-646.0,1078.0,801.0,-29.0,93.0,101.0,145,73,160,105,162
2025-03-17 18:29:35.951,-370.0,718.0,956.0,-67.0,102.0,77.0,146,78,166,110,166
2025-03-17 18:29:35.971,-477.0,571.0,507.0,-50.0,114.0,73.0,148,77,165,109,168
2025-03-17 18:29:35.996,-521.0,590.0,355.0,-2.0,79.0,75.0,140,67,156,99,156
2025-03-17 18:29:36.021,-549.0,849.0,416.0,21.0,37.0,67.0,134,61,149,93,150
2025-03-17 18:29:36.045,-744.0,1463.0,433.0,-11.0,36.0,42.0,130,57,147,90,148
2025-03-17 18:29:36.068,-1119.0,1793.0,15.0,2.0,56.0,-25.0,134,63,151,93,150
2025-03-17 18:29:36.094,-1723.0,2886.0,-873.0,32.0,-17.0,-167.0,139,74,161,103,162
2025-03-17 18:29:36.118,-1406.0,2853.0,-1014.0,-40.0,-245.0,-357.0,138,70,159,101,159
2025-03-17 18:29:36.140,849.0,367.0,269.0,-88.0,-383.0,-416.0,138,70,156,100,158
2025-03-17 18:29:36.164,2423.0,-1927.0,1993.0,13.0,-266.0,-252.0,151,78,165,111,165
2025-03-17 18:29:36.188,1995.0,-2465.0,3092.0,-122.0,-77.0,-75.0,151,74,160,103,161
2025-03-17 18:29:36.214,1625.0,-2608.0,2111.0,-104.0,49.0,69.0,133,55,142,88,143
2025-03-17 18:29:36.225,360.0,-845.0,1573.0,-77.0,156.0,160.0,139,59,147,95,148
2025-03-17 18:29:36.262,-369.0,-123.0,1482.0,-121.0,145.0,151.0,139,62,150,96,150
2025-03-17 18:29:36.280,-605.0,342.0,1577.0,-210.0,187.0,140.0,146,62,150,100,147
2025-03-17 18:29:36.311,-431.0,139.0,1329.0,-200.0,219.0,151.0,156,67,153,104,136
2025-03-17 18:29:36.328,-392.0,339.0,1045.0,-206.0,275.0,157.0,161,72,156,107,105
2025-03-17 18:29:36.354,-746.0,336.0,1104.0,-237.0,251.0,216.0,163,74,159,108,73
2025-03-17 18:29:36.371,-483.0,441.0,-177.0,-280.0,231.0,143.0,164,73,161,103,70
2025-03-17 18:29:36.402,-726.0,-214.0,387.0,-219.0,191.0,122.0,157,70,156,94,52
2025-03-17 18:29:36.427,-604.0,182.0,71.0,-97.0,195.0,83.0,155,79,158,96,49
2025-03-17 18:29:36.455,-678.0,773.0,-446.0,-55.0,157.0,11.0,149,81,152,87,48
2025-03-17 18:29:36.479,-937.0,1520.0,-1548.0,-98.0,-19.0,-106.0,146,83,154,84,55
2025-03-17 18:29:36.500,-886.0,1728.0,-1768.0,-18.0,-201.0,-308.0,155,73,162,88,62
2025-03-17 18:29:36.525,-657.0,2007.0,-1949.0,56.0,-462.0,-566.0,151,101,161,85,58
2025-03-17 18:29:36.549,879.0,1669.0,-1386.0,-25.0,-827.0,-754.0,139,100,160,78,54
2025-03-17 18:29:36.574,3982.0,-709.0,-367.0,-143.0,-1061.0,-659.0,140,124,169,76,59
2025-03-17 18:29:36.598,4664.0,-3499.0,2334.0,-115.0,-578.0,-184.0,139,130,176,94,68
2025-03-17 18:29:36.623,3146.0,-3103.0,2076.0,34.0,146.0,107.0,137,110,163,87,57
2025-03-17 18:29:36.647,517.0,-1649.0,736.0,87.0,188.0,123.0,149,112,170,98,66
2025-03-17 18:29:36.672,442.0,-1394.0,745.0,-17.0,81.0,155.0,165,142,183,112,83
2025-03-17 18:29:36.696,404.0,-1136.0,1203.0,-93.0,91.0,136.0,155,132,172,101,72
2025-03-17 18:29:36.717,284.0,-1212.0,703.0,-6.0,122.0,146.0,148,125,167,91,60
2025-03-17 18:29:36.741,142.0,-868.0,440.0,24.0,145.0,160.0,143,123,163,78,59
2025-03-17 18:29:36.766,-221.0,-379.0,267.0,5.0,117.0,135.0,141,125,161,75,58
2025-03-17 18:29:36.791,-112.0,-376.0,304.0,-7.0,100.0,125.0,139,122,158,80,48
2025-03-17 18:29:36.815,-10.0,-490.0,533.0,-9.0,142.0,136.0,145,115,165,87,61
2025-03-17 18:29:36.840,-98.0,-469.0,472.0,13.0,178.0,171.0,154,127,170,97,71
2025-03-17 18:29:36.861,-142.0,-365.0,407.0,25.0,195.0,179.0,152,126,169,91,69
2025-03-17 18:29:36.885,-182.0,-376.0,344.0,62.0,217.0,181.0,154,125,173,101,74
2025-03-17 18:29:36.909,-364.0,-1.0,225.0,67.0,237.0,221.0,155,134,173,100,72
2025-03-17 18:29:36.934,-1157.0,1388.0,-993.0,-32.0,117.0,219.0,149,117,173,98,71
2025-03-17 18:29:36.959,-1749.0,2311.0,-2307.0,176.0,-102.0,-180.0,131,115,157,79,50
2025-03-17 18:29:36.983,-1347.0,2866.0,-1763.0,132.0,-519.0,-667.0,135,125,161,87,57
2025-03-17 18:29:37.008,2446.0,1004.0,-472.0,-125.0,-976.0,-740.0,144,140,175,102,76
2025-03-17 18:29:37.032,5281.0,-4067.0,1485.0,-224.0,-677.0,-365.0,149,137,172,85,71
2025-03-17 18:29:37.057,4404.0,-4091.0,2147.0,125.0,151.0,46.0,155,135,176,87,80
2025-03-17 18:29:37.076,508.0,-1516.0,448.0,102.0,273.0,47.0,165,144,183,109,85
2025-03-17 18:29:37.102,279.0,-1384.0,309.0,12.0,76.0,91.0,144,124,159,86,61
2025-03-17 18:29:37.124,903.0,-2074.0,1000.0,106.0,147.0,93.0,155,136,167,96,71
2025-03-17 18:29:37.151,754.0,-1305.0,556.0,211.0,287.0,175.0,167,140,176,107,85
2025-03-17 18:29:37.176,192.0,-900.0,166.0,319.0,269.0,201.0,154,137,172,101,81
2025-03-17 18:29:37.189,-62.0,-442.0,142.0,294.0,233.0,205.0,163,132,175,93,89
2025-03-17 18:29:37.222,13.0,-500.0,177.0,286.0,203.0,213.0,171,126,183,99,100
2025-03-17 18:29:37.249,-176.0,-143.0,275.0,253.0,142.0,248.0,170,112,177,94,103
2025-03-17 18:29:37.269,-218.0,159.0,509.0,205.0,101.0,250.0,151,99,175,99,123
2025-03-17 18:29:37.295,-283.0,510.0,607.0,152.0,81.0,203.0,150,76,158,82,105
2025-03-17 18:29:37.319,-342.0,505.0,546.0,98.0,69.0,190.0,153,61,154,83,125
2025-03-17 18:29:37.343,-411.0,958.0,770.0,89.0,72.0,169.0,141,59,152,84,127
2025-03-17 18:29:37.367,-643.0,1833.0,429.0,155.0,90.0,96.0,151,65,153,81,137
2025-03-17 18:29:37.393,-1449.0,3210.0,-43.0,154.0,53.0,-94.0,163,77,160,96,150
2025-03-17 18:29:37.417,-1603.0,3728.0,-546.0,128.0,-61.0,-354.0,160,77,163,103,158
2025-03-17 18:29:37.438,-799.0,2825.0,-472.0,92.0,-271.0,-549.0,164,81,167,104,162
2025-03-17 18:29:37.463,1405.0,384.0,406.0,-22.0,-484.0,-551.0,164,76,164,99,159
2025-03-17 18:29:37.487,3349.0,-3251.0,2330.0,31.0,-326.0,-272.0,172,82,170,109,164
2025-03-17 18:29:37.512,2569.0,-3170.0,3039.0,40.0,-32.0,20.0,163,71,158,65,154
2025-03-17 18:29:37.536,1270.0,-1713.0,1979.0,21.0,135.0,158.0,158,67,152,81,147
2025-03-17 18:29:37.560,66.0,-250.0,708.0,-55.0,131.0,194.0,166,80,164,92,160
2025-03-17 18:29:37.584,-185.0,-421.0,989.0,-59.0,71.0,217.0,161,84,169,104,167
2025-03-17 18:29:37.606,-357.0,128.0,1132.0,-9.0,62.0,216.0,165,85,171,113,169
2025-03-17 18:29:37.630,-653.0,836.0,1014.0,-16.0,59.0,135.0,171,84,165,98,166
2025-03-17 18:29:37.655,-627.0,714.0,765.0,-9.0,56.0,113.0,172,83,168,96,167
2025-03-17 18:29:37.679,-452.0,609.0,698.0,20.0,57.0,94.0,172,74,169,107,168
2025-03-17 18:29:37.704,-412.0,653.0,673.0,35.0,48.0,82.0,156,60,151,87,149
2025-03-17 18:29:37.729,-410.0,755.0,547.0,22.0,39.0,74.0,154,67,154,88,152
2025-03-17 18:29:37.750,-547.0,1106.0,465.0,26.0,19.0,66.0,155,69,153,90,150
2025-03-17 18:29:37.774,-789.0,1779.0,486.0,16.0,17.0,22.0,156,67,154,89,152
2025-03-17 18:29:37.798,-1493.0,3018.0,-193.0,18.0,54.0,-82.0,166,79,164,101,163
2025-03-17 18:29:37.823,-1924.0,3623.0,-1042.0,23.0,-53.0,-311.0,176,93,177,109,174
2025-03-17 18:29:37.845,-625.0,2957.0,-891.0,-57.0,-319.0,-492.0,168,87,169,104,150
2025-03-17 18:29:37.872,2591.0,-802.0,415.0,-97.0,-394.0,-499.0,175,91,180,113,160
2025-03-17 18:29:37.893,3584.0,-3669.0,2484.0,39.0,-215.0,-201.0,185,96,183,107,178
2025-03-17 18:29:37.921,2609.0,-2583.0,2487.0,-76.0,65.0,42.0,159,69,154,84,151
2025-03-17 18:29:37.942,1191.0,-1739.0,1214.0,-25.0,138.0,168.0,169,81,162,92,160
2025-03-17 18:29:37.966,-51.0,-600.0,1149.0,-115.0,122.0,180.0,164,77,159,93,159
2025-03-17 18:29:37.990,-397.0,-362.0,1430.0,-116.0,116.0,181.0,190,107,187,122,185
2025-03-17 18:29:38.016,-607.0,439.0,1484.0,-172.0,182.0,165.0,185,101,179,128,175
2025-03-17 18:29:38.040,-625.0,403.0,1333.0,-229.0,199.0,168.0,175,92,167,117,161
2025-03-17 18:29:38.064,-319.0,383.0,1548.0,-281.0,228.0,168.0,166,81,157,104,135
2025-03-17 18:29:38.087,-387.0,144.0,1042.0,-312.0,291.0,153.0,157,69,151,92,103
2025-03-17 18:29:38.104,-340.0,146.0,606.0,-309.0,309.0,147.0,160,73,151,90,80
2025-03-17 18:29:38.138,-785.0,-27.0,220.0,-209.0,262.0,118.0,169,91,160,102,88
2025-03-17 18:29:38.159,-1085.0,262.0,-227.0,-140.0,163.0,91.0,171,89,158,100,87
2025-03-17 18:29:38.184,-720.0,1129.0,-453.0,-70.0,72.0,47.0,182,103,167,113,97
2025-03-17 18:29:38.209,-606.0,2097.0,-1264.0,41.0,10.0,-91.0,172,99,163,115,88
2025-03-17 18:29:38.233,-722.0,2894.0,-2181.0,159.0,-140.0,-369.0,162,101,165,114,85
2025-03-17 18:29:38.257,-859.0,3125.0,-2872.0,173.0,-587.0,-825.0,124,59,131,78,54
2025-03-17 18:29:38.282,3945.0,2013.0,-2749.0,56.0,-1255.0,-1019.0,121,55,128,73,58
2025-03-17 18:29:38.307,8958.0,-7556.0,5447.0,-39.0,-480.0,-146.0,150,87,156,94,85
2025-03-17 18:29:38.330,3616.0,-3803.0,2856.0,243.0,539.0,85.0,118,56,126,72,54
2025-03-17 18:29:38.355,417.0,579.0,-1164.0,-272.0,156.0,174.0,152,94,159,111,92
2025-03-17 18:29:38.376,202.0,-2608.0,2699.0,-31.0,-135.0,138.0,137,78,149,98,79
2025-03-17 18:29:38.400,591.0,-863.0,1542.0,-101.0,249.0,200.0,85,43,112,60,39
2025-03-17 18:29:38.413,-245.0,-728.0,609.0,-170.0,154.0,136.0,115,69,133,81,62
2025-03-17 18:29:38.450,27.0,-1027.0,446.0,-88.0,51.0,126.0,132,64,135,81,64
2025-03-17 18:29:38.468,458.0,-631.0,650.0,-140.0,151.0,171.0,143,83,149,94,77
2025-03-17 18:29:38.498,-431.0,-572.0,43.0,-146.0,132.0,190.0,155,90,156,87,86
2025-03-17 18:29:38.517,-323.0,-446.0,104.0,-90.0,69.0,199.0,155,91,157,84,87
2025-03-17 18:29:38.544,-51.0,-316.0,362.0,-104.0,100.0,218.0,158,91,156,86,87
2025-03-17 18:29:38.566,-214.0,-252.0,171.0,-102.0,176.0,253.0,164,94,162,100,91
2025-03-17 18:29:38.593,-433.0,-28.0,5.0,11.0,152.0,293.0,141,68,136,75,61
2025-03-17 18:29:38.614,-436.0,573.0,-375.0,114.0,120.0,291.0,147,68,137,73,63
2025-03-17 18:29:38.640,-527.0,1188.0,-1238.0,267.0,91.0,209.0,146,69,137,78,64
2025-03-17 18:29:38.667,-1398.0,2741.0,-2164.0,312.0,-80.0,-70.0,143,70,136,78,65
2025-03-17 18:29:38.687,-1496.0,3658.0,-2548.0,186.0,-531.0,-653.0,137,75,141,83,69
2025-03-17 18:29:38.704,1426.0,2634.0,-2305.0,29.0,-1118.0,-1088.0,139,78,145,84,78
2025-03-17 18:29:38.737,9385.0,-5981.0,5369.0,175.0,-663.0,-398.0,158,102,165,112,96
2025-03-17 18:29:38.750,3056.0,-2311.0,2825.0,208.0,401.0,38.0,141,92,155,77,89
2025-03-17 18:29:38.786,-733.0,164.0,-919.0,-286.0,121.0,58.0,94,49,115,51,45
2025-03-17 18:29:38.809,-290.0,-1640.0,-67.0,44.0,-66.0,28.0,104,57,125,71,57
2025-03-17 18:29:38.834,-357.0,-364.0,678.0,88.0,-8.0,3.0,105,44,122,66,50
2025-03-17 18:29:38.856,10.0,-758.0,1178.0,-68.0,18.0,-11.0,110,53,121,67,51
2025-03-17 18:29:38.880,-72.0,-919.0,611.0,-48.0,26.0,-5.0,118,59,127,74,60
2025-03-17 18:29:38.898,-73.0,-774.0,337.0,38.0,3.0,5.0,115,57,126,72,58
2025-03-17 18:29:38.929,-68.0,-703.0,504.0,27.0,-10.0,3.0,122,62,131,69,62
2025-03-17 18:29:38.953,15.0,-685.0,795.0,16.0,-2.0,5.0,120,68,132,69,63
2025-03-17 18:29:38.978,-105.0,-672.0,749.0,7.0,3.0,5.0,121,69,133,74,65
2025-03-17 18:29:38.994,-23.0,-750.0,749.0,-6.0,10.0,-5.0,110,54,119,64,49
2025-03-17 18:29:39.024,-19.0,-839.0,734.0,-7.0,14.0,4.0,111,55,120,63,49
2025-03-17 18:29:39.045,-77.0,-718.0,714.0,-16.0,22.0,5.0,124,66,132,77,63
2025-03-17 18:29:39.072,-110.0,-678.0,643.0,-22.0,6.0,0.0,145,90,153,100,84
2025-03-17 18:29:39.096,-6.0,-827.0,665.0,-26.0,2.0,3.0,153,99,160,107,92
2025-03-17 18:29:39.121,-10.0,-851.0,688.0,-10.0,10.0,11.0,136,84,145,90,77
2025-03-17 18:29:39.146,-121.0,-783.0,620.0,16.0,5.0,8.0,137,80,148,95,81
2025-03-17 18:29:39.170,-104.0,-758.0,676.0,8.0,-6.0,4.0,166,111,174,121,110
2025-03-17 18:29:39.194,-47.0,-754.0,722.0,-9.0,-1.0,1.0,164,105,169,116,103
2025-03-17 18:29:39.216,-67.0,-768.0,684.0,-6.0,2.0,1.0,116,58,124,71,56
2025-03-17 18:29:39.240,-106.0,-806.0,666.0,1.0,-2.0,2.0,118,54,124,71,55
2025-03-17 18:29:39.265,-81.0,-766.0,714.0,1.0,-5.0,2.0,118,56,125,70,56
2025-03-17 18:29:39.290,-55.0,-822.0,713.0,-3.0,-2.0,5.0,129,75,135,83,68
2025-03-17 18:29:39.314,-97.0,-735.0,651.0,0.0,7.0,5.0,128,70,136,84,68
2025-03-17 18:29:39.338,-120.0,-716.0,636.0,-3.0,0.0,1.0,134,75,143,89,75
2025-03-17 18:29:39.360,-86.0,-753.0,693.0,-7.0,-5.0,4.0,135,78,143,88,75
2025-03-17 18:29:39.384,-109.0,-694.0,637.0,-11.0,-4.0,6.0,134,80,144,91,75
2025-03-17 18:29:39.408,-72.0,-749.0,626.0,-3.0,0.0,1.0,116,59,124,69,51
2025-03-17 18:29:39.433,-69.0,-773.0,659.0,-7.0,-2.0,2.0,123,63,128,75,59
2025-03-17 18:29:39.457,-73.0,-744.0,637.0,-1.0,2.0,5.0,123,65,130,77,62
2025-03-17 18:29:39.482,-119.0,-691.0,630.0,0.0,0.0,-1.0,125,68,133,79,63
2025-03-17 18:29:39.504,-88.0,-753.0,691.0,0.0,4.0,-5.0,132,73,136,84,69
2025-03-17 18:29:39.527,-104.0,-762.0,637.0,-3.0,0.0,-3.0,135,78,142,89,74
2025-03-17 18:29:39.552,-103.0,-772.0,641.0,1.0,-2.0,-6.0,137,81,142,92,77
2025-03-17 18:29:39.576,-55.0,-833.0,696.0,0.0,-2.0,-5.0,136,78,144,91,75
2025-03-17 18:29:39.600,-63.0,-837.0,679.0,-4.0,-2.0,1.0,136,79,143,90,75
2025-03-17 18:29:39.625,-89.0,-787.0,664.0,-2.0,0.0,2.0,120,62,126,72,59
2025-03-17 18:29:39.637,-102.0,-777.0,661.0,1.0,-1.0,-1.0,119,62,126,73,57
2025-03-17 18:29:39.674,-104.0,-772.0,663.0,-3.0,-3.0,2.0,121,62,127,73,59
2025-03-17 18:29:39.698,-105.0,-757.0,678.0,-6.0,-4.0,1.0,130,74,138,85,72
2025-03-17 18:29:39.719,-108.0,-738.0,668.0,-2.0,-1.0,-2.0,133,75,140,86,72
2025-03-17 18:29:39.742,-86.0,-797.0,653.0,-3.0,-2.0,-2.0,136,79,142,89,75
2025-03-17 18:29:39.769,-73.0,-799.0,671.0,1.0,-2.0,1.0,136,79,143,91,76
2025-03-17 18:29:39.790,-83.0,-786.0,673.0,2.0,-2.0,2.0,137,81,145,91,78
2025-03-17 18:29:39.817,-105.0,-737.0,679.0,3.0,-1.0,1.0,121,63,127,73,58
2025-03-17 18:29:39.837,-96.0,-772.0,686.0,-1.0,-3.0,0.0,123,64,128,74,60
2025-03-17 18:29:39.864,-84.0,-760.0,682.0,-1.0,1.0,0.0,122,65,129,76,61
2025-03-17 18:29:39.887,-83.0,-765.0,655.0,-2.0,-4.0,0.0,122,64,129,74,59
2025-03-17 18:29:39.913,-96.0,-759.0,662.0,-2.0,-4.0,1.0,130,72,137,83,69
2025-03-17 18:29:39.936,-86.0,-743.0,665.0,-1.0,-3.0,-1.0,138,80,145,92,77
2025-03-17 18:29:39.953,-83.0,-770.0,667.0,-4.0,-1.0,-1.0,140,82,146,93,78
2025-03-17 18:29:39.985,-87.0,-763.0,662.0,-4.0,0.0,0.0,138,80,144,92,77
2025-03-17 18:29:40.009,-85.0,-785.0,643.0,2.0,1.0,-1.0,138,79,142,90,75
2025-03-17 18:29:40.033,-104.0,-785.0,626.0,-1.0,-4.0,1.0,121,63,129,74,60
2025-03-17 18:29:40.056,-97.0,-757.0,690.0,0.0,-5.0,0.0,119,60,124,71,55
2025-03-17 18:29:40.080,-66.0,-807.0,679.0,1.0,1.0,1.0,126,67,135,79,64
2025-03-17 18:29:40.104,-110.0,-733.0,647.0,-2.0,0.0,1.0,132,74,138,85,71
2025-03-17 18:29:40.129,-103.0,-761.0,664.0,-1.0,-5.0,-1.0,134,77,141,88,72
2025-03-17 18:29:40.153,-89.0,-785.0,677.0,-2.0,-4.0,0.0,138,80,145,90,76
2025-03-17 18:29:40.178,-88.0,-757.0,680.0,-3.0,-3.0,0.0,137,79,143,91,77
2025-03-17 18:29:40.199,-60.0,-794.0,682.0,1.0,1.0,0.0,137,79,143,91,76
2025-03-17 18:29:40.221,-82.0,-790.0,671.0,-4.0,-1.0,3.0,122,63,127,74,59
