timestamp,ax,ay,az,gx,gy,gz,flex1,flex2,flex3,flex4,flex5,emg1,emg2,emg3
2025-02-27 15:43:26.421,-235.0,-901.0,374.0,17.0,-4.0,14.0,129,65,67,82,78
2025-02-27 15:43:26.423,-213.0,-881.0,383.0,16.0,-1.0,11.0,126,63,67,81,78
2025-02-27 15:43:26.426,-212.0,-874.0,358.0,15.0,1.0,9.0,125,61,61,78,75
2025-02-27 15:43:26.428,-210.0,-875.0,365.0,11.0,2.0,8.0,127,64,68,80,76
2025-02-27 15:43:26.430,-227.0,-870.0,352.0,9.0,4.0,5.0,128,64,69,83,79
2025-02-27 15:43:26.432,-230.0,-878.0,339.0,5.0,4.0,3.0,126,62,66,79,76
2025-02-27 15:43:26.434,-237.0,-879.0,331.0,2.0,4.0,2.0,126,64,68,80,78
2025-02-27 15:43:26.436,-237.0,-879.0,316.0,0.0,3.0,0.0,126,63,66,80,77
2025-02-27 15:43:26.438,-236.0,-875.0,309.0,-3.0,3.0,-1.0,122,62,70,80,82
2025-02-27 15:43:26.440,-233.0,-878.0,306.0,-7.0,2.0,-1.0,128,64,67,81,78
2025-02-27 15:43:26.442,-230.0,-885.0,298.0,-9.0,2.0,-2.0,128,64,68,80,78
2025-02-27 15:43:26.443,-228.0,-890.0,293.0,-11.0,1.0,-2.0,125,62,67,79,76
2025-02-27 15:43:26.445,-212.0,-889.0,296.0,-12.0,1.0,-2.0,126,65,69,81,78
2025-02-27 15:43:26.447,-196.0,-893.0,298.0,-13.0,1.0,-2.0,126,64,68,78,74
2025-02-27 15:43:26.449,-195.0,-896.0,293.0,-14.0,2.0,-1.0,127,62,67,79,77
2025-02-27 15:43:26.452,-207.0,-895.0,286.0,-15.0,1.0,-2.0,128,63,68,80,78
2025-02-27 15:43:26.454,-209.0,-889.0,275.0,-16.0,-1.0,-3.0,127,60,66,80,77
2025-02-27 15:43:26.456,-207.0,-891.0,280.0,-15.0,-1.0,-3.0,126,62,66,80,77
2025-02-27 15:43:26.458,-194.0,-889.0,261.0,-15.0,-4.0,-4.0,127,65,68,81,80
2025-02-27 15:43:26.460,-193.0,-885.0,260.0,-13.0,-6.0,-5.0,126,62,68,79,77
2025-02-27 15:43:26.462,-188.0,-885.0,245.0,-11.0,-5.0,-6.0,125,62,67,80,76
2025-02-27 15:43:26.465,-174.0,-890.0,242.0,-10.0,-5.0,-6.0,128,64,70,82,78
2025-02-27 15:43:26.466,-157.0,-900.0,252.0,-9.0,-4.0,-6.0,126,63,69,81,78
2025-02-27 15:43:26.468,-157.0,-902.0,256.0,-7.0,-4.0,-6.0,125,61,68,79,76
2025-02-27 15:43:26.470,-141.0,-912.0,265.0,-4.0,-3.0,-6.0,128,63,69,82,78
2025-02-27 15:43:26.472,-145.0,-923.0,263.0,-2.0,-1.0,-6.0,127,63,68,79,78
2025-02-27 15:43:26.474,-151.0,-929.0,269.0,1.0,-1.0,-6.0,126,63,65,79,75
2025-02-27 15:43:26.476,-171.0,-934.0,253.0,1.0,0.0,-7.0,128,63,66,80,78
2025-02-27 15:43:26.478,-195.0,-943.0,249.0,1.0,-1.0,-7.0,126,62,65,80,77
2025-02-27 15:43:26.481,-207.0,-952.0,242.0,5.0,-1.0,-7.0,127,63,66,82,78
2025-02-27 15:43:26.483,-209.0,-961.0,261.0,7.0,-3.0,-6.0,129,64,67,82,79
2025-02-27 15:43:26.485,-216.0,-974.0,258.0,9.0,-4.0,-5.0,126,62,64,80,78
2025-02-27 15:43:26.487,-211.0,-978.0,262.0,10.0,-5.0,-5.0,128,64,68,81,79
2025-02-27 15:43:26.489,-208.0,-990.0,250.0,12.0,-6.0,-4.0,129,65,69,83,79
2025-02-27 15:43:26.491,-205.0,-997.0,232.0,11.0,-5.0,-3.0,126,63,67,81,78
2025-02-27 15:43:26.494,-192.0,-980.0,258.0,13.0,-3.0,-3.0,128,63,66,81,79
2025-02-27 15:43:26.496,-206.0,-983.0,276.0,13.0,-3.0,-4.0,129,64,68,83,79
2025-02-27 15:43:26.498,-221.0,-972.0,255.0,13.0,-2.0,-3.0,128,63,68,82,78
2025-02-27 15:43:26.500,-198.0,-980.0,282.0,15.0,-2.0,-3.0,129,65,69,82,79
2025-02-27 15:43:26.502,-207.0,-980.0,297.0,17.0,-3.0,-3.0,127,64,67,82,79
2025-02-27 15:43:26.504,-240.0,-980.0,282.0,18.0,-1.0,-2.0,127,62,65,81,78
2025-02-27 15:43:26.506,-206.0,-977.0,307.0,17.0,-1.0,-2.0,128,64,65,83,80
2025-02-27 15:43:26.508,-234.0,-989.0,302.0,17.0,0.0,-1.0,129,65,69,81,79
2025-02-27 15:43:26.510,-230.0,-997.0,308.0,18.0,0.0,-1.0,126,62,66,79,77
2025-02-27 15:43:26.512,-230.0,-1001.0,330.0,17.0,1.0,-1.0,127,63,67,83,80
2025-02-27 15:43:26.515,-217.0,-1010.0,317.0,16.0,2.0,0.0,130,65,68,83,80
2025-02-27 15:43:26.518,-222.0,-1013.0,340.0,17.0,3.0,1.0,127,63,66,80,78
2025-02-27 15:43:26.519,-234.0,-1018.0,319.0,15.0,3.0,1.0,128,64,67,81,79
2025-02-27 15:43:26.521,-234.0,-1010.0,327.0,15.0,2.0,1.0,128,64,66,81,79
2025-02-27 15:43:26.523,-250.0,-1006.0,334.0,13.0,2.0,1.0,128,64,66,83,79
2025-02-27 15:43:26.524,-263.0,-1007.0,309.0,13.0,1.0,2.0,128,64,69,82,79
2025-02-27 15:43:26.527,-257.0,-1001.0,321.0,13.0,-1.0,2.0,128,63,68,80,78
2025-02-27 15:43:26.529,-253.0,-985.0,321.0,12.0,-1.0,2.0,127,63,64,80,77
2025-02-27 15:43:26.531,-250.0,-990.0,306.0,10.0,-1.0,3.0,130,66,69,82,81
2025-02-27 15:43:26.532,-238.0,-977.0,320.0,8.0,-1.0,3.0,130,63,68,82,79
2025-02-27 15:43:26.534,-238.0,-960.0,319.0,8.0,-1.0,4.0,126,63,67,80,76
2025-02-27 15:43:26.536,-233.0,-968.0,313.0,6.0,-2.0,4.0,128,65,63,81,80
2025-02-27 15:43:26.538,-215.0,-962.0,325.0,5.0,-1.0,3.0,130,66,66,84,81
2025-02-27 15:43:26.540,-213.0,-948.0,329.0,2.0,-1.0,3.0,127,66,66,80,78
2025-02-27 15:43:26.542,-213.0,-956.0,331.0,0.0,1.0,2.0,129,64,68,82,80
2025-02-27 15:43:26.545,-213.0,-937.0,324.0,-2.0,1.0,2.0,129,65,67,80,78
2025-02-27 15:43:26.547,-219.0,-947.0,314.0,-4.0,1.0,1.0,127,63,66,79,79
2025-02-27 15:43:26.549,-225.0,-947.0,314.0,-6.0,0.0,0.0,129,63,69,82,80
2025-02-27 15:43:26.551,-232.0,-952.0,317.0,-6.0,0.0,0.0,128,64,68,78,79
2025-02-27 15:43:26.553,-234.0,-957.0,304.0,-9.0,0.0,0.0,129,63,69,80,77
2025-02-27 15:43:26.555,-234.0,-962.0,309.0,-10.0,1.0,1.0,129,65,70,82,81
2025-02-27 15:43:26.558,-232.0,-963.0,304.0,-11.0,0.0,1.0,128,63,68,83,79
2025-02-27 15:43:26.559,-241.0,-961.0,310.0,-12.0,0.0,1.0,128,64,69,81,80
2025-02-27 15:43:26.561,-241.0,-967.0,293.0,-12.0,-2.0,2.0,129,63,69,81,80
2025-02-27 15:43:26.563,-242.0,-967.0,294.0,-13.0,-2.0,2.0,128,63,67,80,79
2025-02-27 15:43:26.565,-252.0,-959.0,288.0,-13.0,-2.0,2.0,130,65,67,84,81
2025-02-27 15:43:26.567,-250.0,-961.0,281.0,-13.0,-3.0,2.0,129,65,67,82,80
2025-02-27 15:43:26.569,-246.0,-962.0,275.0,-12.0,-3.0,2.0,127,62,65,80,77
2025-02-27 15:43:26.572,-242.0,-962.0,308.0,-10.0,-3.0,2.0,129,65,69,84,80
2025-02-27 15:43:26.576,-237.0,-973.0,260.0,-9.0,-5.0,3.0,129,63,68,84,81
2025-02-27 15:43:26.581,-228.0,-997.0,275.0,-6.0,-4.0,4.0,127,62,67,81,77
2025-02-27 15:43:26.585,-225.0,-979.0,255.0,-5.0,-3.0,3.0,129,65,68,81,79
2025-02-27 15:43:26.589,-211.0,-959.0,275.0,-3.0,-4.0,3.0,129,65,68,82,84
2025-02-27 15:43:26.597,-232.0,-942.0,281.0,0.0,-2.0,3.0,128,63,68,81,79
2025-02-27 15:43:26.601,-221.0,-917.0,259.0,-2.0,-3.0,3.0,130,66,70,82,80
2025-02-27 15:43:26.605,-223.0,-907.0,275.0,-3.0,-4.0,3.0,129,64,69,81,79
2025-02-27 15:43:26.609,-240.0,-895.0,270.0,-4.0,-3.0,3.0,128,63,68,79,77
2025-02-27 15:43:26.613,-231.0,-918.0,261.0,-6.0,-5.0,2.0,130,66,70,83,80
2025-02-27 15:43:26.621,-225.0,-914.0,266.0,-5.0,-6.0,2.0,129,65,69,82,81
2025-02-27 15:43:26.625,-222.0,-910.0,258.0,-3.0,-6.0,2.0,128,63,68,81,78
2025-02-27 15:43:26.629,-210.0,-909.0,265.0,-2.0,-5.0,1.0,130,64,70,81,79
2025-02-27 15:43:26.633,-209.0,-907.0,257.0,-2.0,-4.0,1.0,130,64,69,83,80
2025-02-27 15:43:26.638,-207.0,-903.0,253.0,-4.0,-4.0,1.0,129,63,67,81,79
2025-02-27 15:43:26.645,-226.0,-904.0,258.0,-4.0,-5.0,2.0,129,64,69,82,80
2025-02-27 15:43:26.649,-236.0,-915.0,260.0,-4.0,-6.0,1.0,127,63,65,80,78
2025-02-27 15:43:26.654,-230.0,-910.0,266.0,-3.0,-5.0,1.0,128,64,67,83,79
2025-02-27 15:43:26.658,-221.0,-922.0,274.0,-1.0,-5.0,0.0,130,66,68,81,79
2025-02-27 15:43:26.662,-224.0,-925.0,273.0,1.0,-5.0,0.0,128,63,67,80,78
2025-02-27 15:43:26.670,-222.0,-922.0,260.0,2.0,-4.0,-1.0,128,63,68,81,78
2025-02-27 15:43:26.674,-225.0,-916.0,269.0,1.0,-4.0,-1.0,131,66,70,84,81
2025-02-27 15:43:26.678,-229.0,-907.0,271.0,1.0,-4.0,-1.0,128,63,67,81,79
2025-02-27 15:43:26.682,-230.0,-911.0,277.0,1.0,-4.0,-1.0,130,64,69,81,80
2025-02-27 15:43:26.687,-234.0,-914.0,279.0,1.0,-5.0,-2.0,129,65,70,81,80
2025-02-27 15:43:26.694,-236.0,-928.0,289.0,0.0,-5.0,-2.0,128,65,70,83,80
2025-02-27 15:43:26.698,-233.0,-928.0,278.0,0.0,-6.0,-2.0,130,65,71,83,80
2025-02-27 15:43:26.703,-211.0,-936.0,292.0,1.0,-6.0,-1.0,129,64,70,82,78
2025-02-27 15:43:26.707,-207.0,-931.0,298.0,1.0,-6.0,0.0,127,63,69,80,78
2025-02-27 15:43:26.712,-205.0,-932.0,295.0,3.0,-4.0,-1.0,130,66,69,80,80
2025-02-27 15:43:26.718,-207.0,-922.0,301.0,4.0,-3.0,-1.0,129,65,69,81,79
2025-02-27 15:43:26.724,-208.0,-922.0,292.0,4.0,-3.0,-2.0,129,64,66,80,78
2025-02-27 15:43:26.727,-206.0,-916.0,289.0,3.0,-3.0,-2.0,129,62,68,81,79
2025-02-27 15:43:26.732,-212.0,-913.0,292.0,2.0,-3.0,-3.0,129,64,69,81,79
2025-02-27 15:43:26.736,-217.0,-912.0,300.0,1.0,-3.0,-5.0,130,62,68,80,78
2025-02-27 15:43:26.743,-210.0,-916.0,263.0,-1.0,-3.0,-5.0,129,65,69,82,80
2025-02-27 15:43:26.748,-216.0,-922.0,290.0,-2.0,0.0,-5.0,129,66,70,82,79
2025-02-27 15:43:26.752,-212.0,-914.0,288.0,-5.0,2.0,-5.0,128,63,67,80,78
2025-02-27 15:43:26.756,-214.0,-923.0,314.0,-8.0,2.0,-6.0,129,66,69,81,81
2025-02-27 15:43:26.761,-235.0,-918.0,285.0,-10.0,2.0,-7.0,129,66,69,83,79
2025-02-27 15:43:26.765,-234.0,-935.0,320.0,-10.0,1.0,-7.0,128,63,64,81,78
2025-02-27 15:43:26.772,-250.0,-937.0,295.0,-11.0,-1.0,-8.0,129,64,67,82,80
2025-02-27 15:43:26.777,-230.0,-948.0,309.0,-10.0,0.0,-7.0,130,66,69,81,79
2025-02-27 15:43:26.781,-240.0,-947.0,291.0,-8.0,1.0,-7.0,128,63,67,79,78
2025-02-27 15:43:26.785,-223.0,-957.0,309.0,-6.0,2.0,-7.0,129,64,67,82,78
2025-02-27 15:43:26.789,-233.0,-961.0,294.0,-5.0,1.0,-7.0,128,64,63,81,78
2025-02-27 15:43:26.797,-224.0,-957.0,316.0,-3.0,2.0,-7.0,128,63,65,80,78
2025-02-27 15:43:26.801,-223.0,-951.0,304.0,1.0,2.0,-6.0,130,65,67,83,80
2025-02-27 15:43:26.805,-229.0,-955.0,297.0,1.0,2.0,-7.0,128,63,67,81,78
2025-02-27 15:43:26.810,-220.0,-940.0,301.0,1.0,3.0,-7.0,128,63,69,79,78
2025-02-27 15:43:26.814,-240.0,-946.0,294.0,2.0,3.0,-7.0,130,65,72,82,81
2025-02-27 15:43:26.822,-235.0,-940.0,294.0,1.0,4.0,-7.0,129,64,71,80,79
2025-02-27 15:43:26.826,-243.0,-947.0,300.0,1.0,2.0,-7.0,130,65,71,81,81
2025-02-27 15:43:26.830,-233.0,-930.0,309.0,0.0,2.0,-6.0,129,64,71,82,80
2025-02-27 15:43:26.835,-244.0,-930.0,318.0,1.0,3.0,-6.0,129,64,70,82,79
2025-02-27 15:43:26.839,-241.0,-935.0,300.0,1.0,3.0,-6.0,130,65,70,83,80
2025-02-27 15:43:26.846,-223.0,-939.0,332.0,-1.0,4.0,-6.0,128,65,70,83,80
2025-02-27 15:43:26.851,-244.0,-941.0,299.0,-2.0,4.0,-6.0,128,64,67,81,78
2025-02-27 15:43:26.855,-247.0,-957.0,306.0,-4.0,4.0,-6.0,132,68,70,84,81
2025-02-27 15:43:26.859,-245.0,-958.0,305.0,-3.0,3.0,-6.0,129,64,69,82,79
2025-02-27 15:43:26.863,-238.0,-960.0,312.0,-5.0,3.0,-5.0,128,63,70,80,77
2025-02-27 15:43:26.871,-240.0,-953.0,319.0,-6.0,2.0,-5.0,130,65,71,82,79
2025-02-27 15:43:26.875,-250.0,-952.0,300.0,-5.0,2.0,-5.0,130,65,72,84,81
2025-02-27 15:43:26.879,-241.0,-951.0,314.0,-8.0,3.0,-5.0,128,63,69,80,79
2025-02-27 15:43:26.884,-247.0,-947.0,288.0,-8.0,3.0,-5.0,128,65,71,82,80
2025-02-27 15:43:26.888,-261.0,-951.0,318.0,-8.0,2.0,-5.0,129,64,70,82,79
2025-02-27 15:43:26.896,-261.0,-932.0,330.0,-9.0,2.0,-5.0,130,64,69,82,79
2025-02-27 15:43:26.900,-278.0,-938.0,312.0,-10.0,0.0,-4.0,130,65,71,83,80
2025-02-27 15:43:26.904,-282.0,-920.0,321.0,-10.0,-2.0,-4.0,130,64,71,83,80
2025-02-27 15:43:26.908,-273.0,-908.0,328.0,-12.0,-3.0,-5.0,128,63,69,80,77
2025-02-27 15:43:26.913,-265.0,-906.0,314.0,-16.0,-4.0,-6.0,129,65,71,81,80
2025-02-27 15:43:26.920,-255.0,-900.0,332.0,-17.0,-5.0,-7.0,130,65,71,82,78
2025-02-27 15:43:26.924,-258.0,-908.0,342.0,-20.0,-5.0,-8.0,129,64,70,81,79
2025-02-27 15:43:26.928,-247.0,-904.0,333.0,-26.0,-5.0,-9.0,130,64,70,81,79
2025-02-27 15:43:26.932,-229.0,-917.0,368.0,-26.0,-4.0,-9.0,129,64,73,84,79
2025-02-27 15:43:26.937,-229.0,-922.0,362.0,-27.0,-4.0,-9.0,129,64,71,81,77
2025-02-27 15:43:26.945,-236.0,-938.0,358.0,-29.0,-1.0,-10.0,131,65,72,82,80
2025-02-27 15:43:26.948,-235.0,-942.0,361.0,-30.0,0.0,-11.0,130,64,71,82,79
2025-02-27 15:43:26.953,-236.0,-956.0,369.0,-29.0,1.0,-12.0,128,64,70,81,78
2025-02-27 15:43:26.957,-246.0,-957.0,366.0,-30.0,1.0,-12.0,130,65,70,83,80
2025-02-27 15:43:26.964,-249.0,-968.0,354.0,-29.0,2.0,-12.0,129,64,70,82,79
2025-02-27 15:43:26.969,-261.0,-976.0,344.0,-27.0,3.0,-12.0,128,63,66,80,78
2025-02-27 15:43:26.973,-282.0,-978.0,341.0,-25.0,5.0,-12.0,131,65,70,83,80
2025-02-27 15:43:26.977,-260.0,-967.0,184.0,-32.0,6.0,-11.0,130,65,71,83,81
2025-02-27 15:43:26.982,-229.0,-1017.0,325.0,-27.0,8.0,-13.0,129,63,68,80,79
2025-02-27 15:43:26.989,-252.0,-984.0,393.0,-24.0,6.0,-13.0,130,65,72,82,80
2025-02-27 15:43:26.994,-270.0,-1008.0,297.0,-27.0,7.0,-13.0,130,65,68,82,80
2025-02-27 15:43:26.998,-266.0,-1021.0,322.0,-23.0,8.0,-12.0,129,64,67,81,78
2025-02-27 15:43:27.002,-258.0,-1027.0,345.0,-23.0,10.0,-13.0,129,65,70,83,81
2025-02-27 15:43:27.010,-248.0,-1026.0,319.0,-23.0,10.0,-13.0,128,64,69,81,80
2025-02-27 15:43:27.014,-239.0,-1053.0,345.0,-19.0,12.0,-13.0,128,63,67,80,79
2025-02-27 15:43:27.019,-227.0,-1045.0,342.0,-19.0,13.0,-13.0,131,66,71,83,81
2025-02-27 15:43:27.022,-211.0,-1028.0,312.0,-18.0,14.0,-13.0,129,63,65,82,80
2025-02-27 15:43:27.030,-209.0,-1024.0,323.0,-19.0,16.0,-13.0,128,60,63,80,79
2025-02-27 15:43:27.035,-186.0,-1013.0,312.0,-23.0,18.0,-13.0,130,64,68,82,80
2025-02-27 15:43:27.039,-181.0,-1018.0,285.0,-25.0,21.0,-13.0,129,66,70,83,80
2025-02-27 15:43:27.043,-181.0,-1026.0,272.0,-28.0,22.0,-13.0,129,63,69,82,79
2025-02-27 15:43:27.051,-190.0,-1034.0,246.0,-32.0,23.0,-14.0,130,66,67,81,79
2025-02-27 15:43:27.055,-178.0,-1043.0,223.0,-35.0,24.0,-15.0,130,65,68,83,80
2025-02-27 15:43:27.059,-178.0,-1043.0,197.0,-35.0,25.0,-16.0,129,63,69,81,79
2025-02-27 15:43:27.064,-169.0,-1042.0,180.0,-39.0,25.0,-17.0,130,65,69,83,80
2025-02-27 15:43:27.071,-165.0,-1029.0,169.0,-41.0,25.0,-17.0,129,65,68,81,80
2025-02-27 15:43:27.076,-175.0,-1017.0,145.0,-43.0,24.0,-17.0,128,63,69,81,79
2025-02-27 15:43:27.080,-170.0,-1023.0,104.0,-44.0,24.0,-17.0,129,63,68,82,79
2025-02-27 15:43:27.085,-173.0,-1013.0,110.0,-45.0,24.0,-16.0,130,65,69,83,80
2025-02-27 15:43:27.092,-179.0,-1019.0,79.0,-46.0,24.0,-15.0,128,64,70,82,79
2025-02-27 15:43:27.096,-189.0,-1017.0,60.0,-45.0,22.0,-15.0,127,64,68,78,78
2025-02-27 15:43:27.100,-196.0,-1024.0,59.0,-45.0,19.0,-15.0,131,65,71,84,81
2025-02-27 15:43:27.105,-209.0,-1018.0,53.0,-44.0,18.0,-15.0,129,63,69,83,80
2025-02-27 15:43:27.112,-204.0,-1017.0,46.0,-42.0,15.0,-15.0,127,63,65,80,78
2025-02-27 15:43:27.116,-203.0,-1004.0,47.0,-42.0,14.0,-14.0,130,65,68,78,80
2025-02-27 15:43:27.121,-189.0,-1006.0,38.0,-42.0,13.0,-13.0,130,65,68,82,80
2025-02-27 15:43:27.125,-188.0,-1000.0,32.0,-41.0,12.0,-13.0,129,64,67,81,78
2025-02-27 15:43:27.133,-181.0,-1006.0,45.0,-40.0,12.0,-11.0,129,65,70,81,80
2025-02-27 15:43:27.137,-188.0,-1021.0,50.0,-39.0,11.0,-9.0,127,65,67,82,79
2025-02-27 15:43:27.141,-193.0,-1036.0,63.0,-40.0,11.0,-9.0,130,67,70,82,80
2025-02-27 15:43:27.145,-191.0,-1042.0,34.0,-48.0,10.0,-15.0,130,65,71,83,80
2025-02-27 15:43:27.150,-236.0,-1230.0,41.0,-63.0,16.0,-18.0,129,64,68,82,80
2025-02-27 15:43:27.157,-216.0,-992.0,66.0,-33.0,16.0,-12.0,128,63,68,80,79
2025-02-27 15:43:27.162,-115.0,-1048.0,2.0,-43.0,14.0,-15.0,132,67,69,84,82
2025-02-27 15:43:27.166,-234.0,-1068.0,114.0,-34.0,18.0,-10.0,130,65,68,83,81
2025-02-27 15:43:27.171,-196.0,-986.0,35.0,-23.0,15.0,2.0,129,63,68,82,79
2025-02-27 15:43:27.178,-275.0,-964.0,63.0,-4.0,15.0,13.0,130,65,68,82,80
2025-02-27 15:43:27.182,-164.0,-1016.0,121.0,17.0,12.0,28.0,132,67,70,84,81
2025-02-27 15:43:27.186,-102.0,-970.0,-32.0,-11.0,8.0,14.0,129,64,68,82,79
2025-02-27 15:43:27.190,41.0,-1146.0,-49.0,-48.0,30.0,2.0,130,65,70,84,80
2025-02-27 15:43:27.195,-324.0,-1144.0,153.0,-45.0,26.0,1.0,130,65,69,83,79
2025-02-27 15:43:27.200,-250.0,-975.0,98.0,-24.0,19.0,21.0,130,65,69,83,81
2025-02-27 15:43:27.207,-228.0,-998.0,152.0,7.0,10.0,21.0,131,66,70,83,81
2025-02-27 15:43:27.211,-181.0,-1126.0,63.0,5.0,-8.0,13.0,130,63,69,83,80
2025-02-27 15:43:27.216,-197.0,-1036.0,90.0,2.0,-9.0,13.0,128,63,67,81,78
2025-02-27 15:43:27.220,-200.0,-1016.0,52.0,10.0,-2.0,17.0,131,67,70,85,83
2025-02-27 15:43:27.224,-96.0,-989.0,62.0,12.0,-3.0,18.0,130,64,67,83,81
2025-02-27 15:43:27.231,-228.0,-965.0,155.0,23.0,-2.0,26.0,129,63,68,81,79
2025-02-27 15:43:27.235,4.0,-646.0,-25.0,14.0,-8.0,25.0,130,65,70,83,81
2025-02-27 15:43:27.240,-158.0,-1153.0,58.0,-5.0,-2.0,11.0,131,66,69,83,82
2025-02-27 15:43:27.243,-42.0,-847.0,86.0,14.0,10.0,21.0,130,64,68,81,79
2025-02-27 15:43:27.248,-205.0,-893.0,90.0,11.0,5.0,22.0,131,66,70,84,81
2025-02-27 15:43:27.252,-254.0,-1051.0,136.0,8.0,-3.0,21.0,131,66,73,82,80
2025-02-27 15:43:27.260,-212.0,-986.0,142.0,18.0,-7.0,23.0,130,64,71,82,79
2025-02-27 15:43:27.264,-220.0,-999.0,122.0,17.0,-10.0,24.0,131,66,72,83,82
2025-02-27 15:43:27.268,-243.0,-1007.0,131.0,17.0,-6.0,26.0,131,66,72,83,81
2025-02-27 15:43:27.272,-227.0,-1000.0,190.0,21.0,-4.0,25.0,128,63,69,81,79
2025-02-27 15:43:27.277,-192.0,-991.0,149.0,18.0,-4.0,21.0,130,65,74,85,82
2025-02-27 15:43:27.285,-162.0,-1041.0,153.0,15.0,-1.0,15.0,131,65,73,82,82
2025-02-27 15:43:27.289,-223.0,-854.0,37.0,0.0,-4.0,6.0,129,64,71,82,80
2025-02-27 15:43:27.293,181.0,-875.0,-125.0,-23.0,25.0,7.0,130,65,72,83,81
2025-02-27 15:43:27.297,-401.0,-890.0,426.0,6.0,31.0,19.0,131,65,72,83,82
2025-02-27 15:43:27.302,-261.0,-1069.0,141.0,-8.0,8.0,18.0,131,64,71,82,81
2025-02-27 15:43:27.306,-320.0,-994.0,365.0,19.0,22.0,28.0,131,66,70,84,81
2025-02-27 15:43:27.313,-514.0,-1083.0,222.0,4.0,10.0,42.0,130,65,68,83,81
2025-02-27 15:43:27.318,-404.0,-1038.0,334.0,-1.0,0.0,46.0,129,64,68,81,80
2025-02-27 15:43:27.322,-334.0,-1086.0,427.0,12.0,-23.0,49.0,131,67,71,84,80
2025-02-27 15:43:27.326,15.0,-1049.0,536.0,21.0,-28.0,48.0,131,65,69,83,82
2025-02-27 15:43:27.330,-3.0,-955.0,462.0,36.0,-20.0,48.0,128,68,60,81,80
2025-02-27 15:43:27.338,7.0,-891.0,454.0,36.0,2.0,47.0,132,66,61,82,81
2025-02-27 15:43:27.342,-17.0,-857.0,425.0,40.0,25.0,44.0,131,65,64,82,82
2025-02-27 15:43:27.346,-71.0,-860.0,422.0,57.0,33.0,36.0,131,64,63,81,80
2025-02-27 15:43:27.350,-72.0,-834.0,404.0,55.0,33.0,31.0,130,66,64,84,81
2025-02-27 15:43:27.354,-148.0,-730.0,410.0,57.0,29.0,21.0,129,65,66,82,81
2025-02-27 15:43:27.358,-145.0,-699.0,359.0,68.0,26.0,14.0,129,65,65,82,80
2025-02-27 15:43:27.367,-108.0,-812.0,430.0,64.0,37.0,4.0,131,65,67,83,84
2025-02-27 15:43:27.371,-103.0,-526.0,234.0,73.0,37.0,-8.0,130,64,64,82,80
2025-02-27 15:43:27.375,-123.0,-536.0,128.0,72.0,42.0,-19.0,128,64,64,82,80
2025-02-27 15:43:27.379,-103.0,-573.0,105.0,48.0,49.0,-25.0,132,66,71,84,83
2025-02-27 15:43:27.383,-177.0,-541.0,35.0,33.0,49.0,-38.0,131,65,70,83,81
2025-02-27 15:43:27.391,-187.0,-643.0,95.0,22.0,46.0,-48.0,129,64,71,80,80
2025-02-27 15:43:27.395,-284.0,-679.0,19.0,8.0,43.0,-51.0,131,64,68,83,81
2025-02-27 15:43:27.399,-315.0,-731.0,25.0,-4.0,32.0,-57.0,131,66,68,83,83
2025-02-27 15:43:27.403,-317.0,-888.0,24.0,-23.0,23.0,-57.0,129,65,70,82,80
2025-02-27 15:43:27.408,-368.0,-896.0,29.0,-53.0,9.0,-54.0,130,66,73,83,83
2025-02-27 15:43:27.416,-362.0,-1041.0,19.0,-63.0,8.0,-44.0,130,64,72,85,81
2025-02-27 15:43:27.419,-354.0,-1127.0,99.0,-72.0,8.0,-29.0,130,65,73,82,81
2025-02-27 15:43:27.424,-326.0,-1191.0,119.0,-64.0,2.0,-24.0,131,66,71,84,82
2025-02-27 15:43:27.428,-254.0,-1333.0,144.0,-59.0,-9.0,-13.0,132,66,73,82,81
2025-02-27 15:43:27.436,-286.0,-1290.0,44.0,-45.0,-7.0,-5.0,129,64,69,82,80
2025-02-27 15:43:27.440,-186.0,-1329.0,279.0,-11.0,-4.0,-3.0,132,66,69,84,84
2025-02-27 15:43:27.445,-238.0,-1292.0,127.0,7.0,-7.0,1.0,132,66,68,83,83
2025-02-27 15:43:27.449,-213.0,-1253.0,150.0,32.0,-3.0,4.0,130,65,68,83,80
2025-02-27 15:43:27.454,-189.0,-1217.0,96.0,49.0,11.0,4.0,132,67,66,83,82
2025-02-27 15:43:27.458,-94.0,-1122.0,143.0,68.0,21.0,7.0,132,67,69,85,84
2025-02-27 15:43:27.465,-175.0,-1038.0,-70.0,31.0,34.0,10.0,131,65,71,82,81
2025-02-27 15:43:27.469,-220.0,-1076.0,221.0,59.0,27.0,13.0,131,67,75,85,83
2025-02-27 15:43:27.473,-208.0,-1129.0,181.0,48.0,37.0,15.0,135,70,76,88,86
2025-02-27 15:43:27.478,-255.0,-875.0,83.0,-10.0,49.0,15.0,134,70,78,87,86
2025-02-27 15:43:27.485,-222.0,-991.0,260.0,12.0,29.0,15.0,136,71,78,87,86
2025-02-27 15:43:27.489,-283.0,-943.0,229.0,38.0,36.0,14.0,132,69,76,87,86
2025-02-27 15:43:27.494,-263.0,-824.0,119.0,45.0,35.0,10.0,133,68,74,86,82
2025-02-27 15:43:27.498,-200.0,-843.0,20.0,60.0,20.0,6.0,138,73,79,90,88
2025-02-27 15:43:27.502,-281.0,-860.0,97.0,71.0,23.0,1.0,136,71,77,88,87
2025-02-27 15:43:27.506,-292.0,-731.0,83.0,72.0,23.0,-4.0,135,67,71,85,84
2025-02-27 15:43:27.514,-238.0,-814.0,71.0,58.0,18.0,-4.0,134,70,76,86,85
2025-02-27 15:43:27.518,-185.0,-895.0,188.0,33.0,18.0,-3.0,137,72,79,90,88
2025-02-27 15:43:27.522,-237.0,-949.0,0.0,13.0,14.0,-1.0,135,69,76,86,84
2025-02-27 15:43:27.527,-204.0,-952.0,74.0,4.0,9.0,0.0,136,70,76,87,86
2025-02-27 15:43:27.531,-264.0,-924.0,44.0,-4.0,4.0,0.0,136,70,76,87,87
2025-02-27 15:43:27.535,-242.0,-1011.0,129.0,-14.0,4.0,1.0,135,71,78,87,85
2025-02-27 15:43:27.543,-244.0,-971.0,159.0,-17.0,4.0,0.0,137,73,79,90,88
2025-02-27 15:43:27.547,-234.0,-1021.0,180.0,-9.0,-10.0,1.0,138,71,79,89,87
2025-02-27 15:43:27.551,-282.0,-1009.0,285.0,-19.0,-3.0,2.0,135,70,78,88,87
2025-02-27 15:43:27.556,-286.0,-1039.0,208.0,-6.0,-16.0,2.0,139,72,80,90,88
2025-02-27 15:43:27.560,-296.0,-969.0,-50.0,-4.0,-12.0,2.0,142,76,84,93,91
2025-02-27 15:43:27.567,-264.0,-989.0,56.0,-2.0,-17.0,2.0,143,77,85,94,92
2025-02-27 15:43:27.572,-228.0,-969.0,94.0,-6.0,-17.0,2.0,145,81,88,97,96
2025-02-27 15:43:27.576,-282.0,-1014.0,92.0,-7.0,-18.0,3.0,148,84,90,102,100
2025-02-27 15:43:27.580,-246.0,-1023.0,95.0,-14.0,-18.0,4.0,145,80,87,98,96
2025-02-27 15:43:27.584,-291.0,-1023.0,-10.0,-26.0,-25.0,5.0,147,83,90,100,99
2025-02-27 15:43:27.592,-218.0,-1043.0,232.0,-24.0,-20.0,5.0,143,77,86,96,90
2025-02-27 15:43:27.596,-235.0,-946.0,28.0,-27.0,-23.0,6.0,139,74,81,90,89
2025-02-27 15:43:27.601,-89.0,-1040.0,74.0,-22.0,-11.0,5.0,142,81,86,97,95
2025-02-27 15:43:27.605,-258.0,-918.0,-110.0,-37.0,-9.0,5.0,143,77,86,96,94
2025-02-27 15:43:27.609,-111.0,-1031.0,89.0,-20.0,0.0,6.0,141,78,84,94,94
2025-02-27 15:43:27.617,-193.0,-949.0,244.0,-13.0,-13.0,6.0,145,80,88,98,96
2025-02-27 15:43:27.621,-241.0,-1062.0,296.0,1.0,-8.0,8.0,148,83,89,101,99
2025-02-27 15:43:27.625,-231.0,-1098.0,93.0,-8.0,-12.0,7.0,145,80,87,97,96
2025-02-27 15:43:27.629,-251.0,-1037.0,131.0,-5.0,-3.0,9.0,148,82,90,100,98
2025-02-27 15:43:27.633,-252.0,-1119.0,331.0,-1.0,4.0,11.0,146,79,88,100,96
2025-02-27 15:43:27.641,-277.0,-1075.0,273.0,-6.0,-3.0,14.0,145,79,87,95,96
2025-02-27 15:43:27.645,-288.0,-1089.0,136.0,6.0,-6.0,16.0,147,82,90,98,97
2025-02-27 15:43:27.650,-247.0,-1022.0,238.0,-5.0,-4.0,18.0,146,80,83,97,96
2025-02-27 15:43:27.654,-250.0,-945.0,60.0,5.0,6.0,19.0,143,76,84,95,93
2025-02-27 15:43:27.658,-243.0,-970.0,300.0,-1.0,-1.0,17.0,145,81,89,98,97
2025-02-27 15:43:27.666,-215.0,-1019.0,153.0,5.0,-3.0,19.0,144,79,87,97,95
2025-02-27 15:43:27.670,-280.0,-937.0,238.0,-7.0,-2.0,20.0,141,76,87,94,93
2025-02-27 15:43:27.674,-253.0,-993.0,187.0,-7.0,-11.0,19.0,145,80,86,96,95
2025-02-27 15:43:27.679,-280.0,-915.0,186.0,-7.0,-14.0,18.0,145,80,84,97,95
2025-02-27 15:43:27.683,-214.0,-949.0,215.0,-3.0,-17.0,18.0,142,77,86,96,93
2025-02-27 15:43:27.690,-278.0,-890.0,301.0,-14.0,-12.0,17.0,145,81,88,97,96
2025-02-27 15:43:27.694,-247.0,-924.0,185.0,-7.0,-11.0,16.0,146,81,87,99,96
2025-02-27 15:43:27.699,-259.0,-923.0,195.0,4.0,-12.0,15.0,146,81,88,98,96
2025-02-27 15:43:27.702,-237.0,-940.0,239.0,8.0,-14.0,13.0,151,85,94,104,101
2025-02-27 15:43:27.711,-269.0,-933.0,165.0,8.0,-12.0,13.0,147,85,90,102,100
2025-02-27 15:43:27.715,-235.0,-925.0,197.0,6.0,-16.0,14.0,146,82,89,99,97
2025-02-27 15:43:27.719,-240.0,-974.0,80.0,4.0,-17.0,15.0,152,88,100,104,102
2025-02-27 15:43:27.723,-254.0,-953.0,325.0,5.0,-22.0,17.0,150,85,93,103,102
2025-02-27 15:43:27.727,-314.0,-943.0,230.0,2.0,-21.0,17.0,146,82,87,100,97
2025-02-27 15:43:27.735,-290.0,-951.0,220.0,-1.0,-21.0,18.0,148,85,93,103,102
2025-02-27 15:43:27.739,-310.0,-922.0,184.0,2.0,-17.0,16.0,152,86,92,105,104
2025-02-27 15:43:27.743,-296.0,-914.0,241.0,-3.0,-17.0,15.0,149,83,88,99,99
2025-02-27 15:43:27.748,-276.0,-877.0,179.0,-5.0,-14.0,15.0,148,84,88,101,99
2025-02-27 15:43:27.756,-276.0,-885.0,309.0,-3.0,-14.0,13.0,149,85,91,102,101
2025-02-27 15:43:27.760,-290.0,-874.0,230.0,2.0,-14.0,11.0,148,85,88,102,101
2025-02-27 15:43:27.765,-279.0,-849.0,325.0,-4.0,-17.0,11.0,147,82,86,99,98
2025-02-27 15:43:27.769,-288.0,-863.0,177.0,-9.0,-18.0,10.0,148,85,88,107,100
2025-02-27 15:43:27.776,-275.0,-866.0,273.0,-9.0,-18.0,9.0,146,79,87,100,98
2025-02-27 15:43:27.781,-260.0,-901.0,255.0,-14.0,-16.0,8.0,149,85,89,104,99
2025-02-27 15:43:27.785,-255.0,-892.0,270.0,-11.0,-14.0,8.0,149,86,93,103,100
2025-02-27 15:43:27.789,-271.0,-916.0,266.0,-11.0,-12.0,7.0,145,83,87,98,97
2025-02-27 15:43:27.793,-265.0,-929.0,299.0,-9.0,-11.0,7.0,144,80,84,97,96
2025-02-27 15:43:27.800,-258.0,-933.0,278.0,-9.0,-7.0,6.0,153,89,96,106,104
2025-02-27 15:43:27.805,-263.0,-933.0,206.0,-8.0,-6.0,4.0,146,82,90,99,99
2025-02-27 15:43:27.809,-255.0,-945.0,333.0,-5.0,-3.0,4.0,144,80,87,97,96
2025-02-27 15:43:27.813,-276.0,-935.0,205.0,-7.0,0.0,3.0,149,84,91,101,101
2025-02-27 15:43:27.817,-267.0,-938.0,252.0,-4.0,2.0,2.0,148,86,92,101,100
2025-02-27 15:43:27.821,-261.0,-953.0,214.0,-6.0,3.0,2.0,144,81,87,98,98
2025-02-27 15:43:27.830,-281.0,-936.0,250.0,-6.0,4.0,2.0,148,84,90,102,101
2025-02-27 15:43:27.834,-292.0,-936.0,290.0,-4.0,6.0,3.0,146,82,88,98,97
2025-02-27 15:43:27.838,-279.0,-946.0,221.0,12.0,-7.0,4.0,147,85,91,101,100
2025-02-27 15:43:27.842,-261.0,-990.0,388.0,11.0,-18.0,7.0,149,86,87,103,102
2025-02-27 15:43:27.850,-290.0,-1017.0,234.0,9.0,-22.0,10.0,145,82,82,99,98
2025-02-27 15:43:27.854,-300.0,-1061.0,132.0,8.0,-27.0,13.0,145,82,88,98,97
2025-02-27 15:43:27.858,-218.0,-1044.0,508.0,16.0,-14.0,16.0,148,85,91,102,102
2025-02-27 15:43:27.863,-272.0,-961.0,-53.0,-3.0,-18.0,16.0,146,83,89,100,99
2025-02-27 15:43:27.867,-228.0,-968.0,282.0,-4.0,-19.0,16.0,143,79,81,97,96
2025-02-27 15:43:27.874,-264.0,-971.0,170.0,-28.0,-19.0,20.0,146,83,85,101,100
2025-02-27 15:43:27.878,-236.0,-939.0,139.0,-48.0,-19.0,15.0,143,82,77,98,97
2025-02-27 15:43:27.883,-213.0,-866.0,-126.0,-91.0,-36.0,15.0,143,81,82,98,97
2025-02-27 15:43:27.890,-293.0,-935.0,137.0,-115.0,-44.0,17.0,145,84,81,101,100
2025-02-27 15:43:27.895,-348.0,-843.0,219.0,-114.0,-26.0,12.0,143,83,81,99,99
2025-02-27 15:43:27.899,-277.0,-809.0,545.0,-94.0,-8.0,8.0,142,80,76,98,96
2025-02-27 15:43:27.904,-237.0,-894.0,619.0,-35.0,10.0,10.0,145,84,71,101,100
2025-02-27 15:43:27.908,-234.0,-906.0,170.0,-59.0,-17.0,5.0,143,84,77,100,99
2025-02-27 15:43:27.915,-290.0,-1000.0,-17.0,-91.0,-23.0,4.0,140,81,72,97,96
2025-02-27 15:43:27.919,-235.0,-742.0,191.0,-79.0,-20.0,3.0,143,84,76,99,100
2025-02-27 15:43:27.923,-244.0,-1020.0,403.0,-73.0,-10.0,9.0,143,84,81,100,99
2025-02-27 15:43:27.927,-219.0,-1014.0,160.0,-80.0,-2.0,12.0,140,81,80,99,97
2025-02-27 15:43:27.936,-239.0,-964.0,140.0,-74.0,3.0,11.0,142,84,79,101,100
2025-02-27 15:43:27.940,-228.0,-1072.0,68.0,-73.0,12.0,13.0,140,81,76,98,98
2025-02-27 15:43:27.944,-223.0,-970.0,105.0,-77.0,16.0,13.0,140,80,76,97,97
2025-02-27 15:43:27.949,-233.0,-1012.0,194.0,-53.0,17.0,13.0,143,84,79,102,99
2025-02-27 15:43:27.956,-278.0,-1029.0,214.0,-37.0,12.0,13.0,142,83,75,98,97
2025-02-27 15:43:27.960,-307.0,-1003.0,123.0,-32.0,5.0,10.0,140,81,74,96,96
2025-02-27 15:43:27.965,-281.0,-1010.0,126.0,-16.0,5.0,10.0,143,84,77,102,100
2025-02-27 15:43:27.969,-292.0,-980.0,164.0,-14.0,12.0,12.0,143,82,76,100,100
2025-02-27 15:43:27.974,-285.0,-940.0,54.0,-15.0,9.0,9.0,139,80,72,95,97
2025-02-27 15:43:27.981,-287.0,-914.0,80.0,-16.0,10.0,10.0,142,83,73,100,98
2025-02-27 15:43:27.985,-283.0,-918.0,161.0,-15.0,18.0,12.0,143,84,77,99,100
2025-02-27 15:43:27.989,-318.0,-894.0,64.0,-8.0,12.0,10.0,140,81,75,98,97
2025-02-27 15:43:27.993,-284.0,-947.0,96.0,-8.0,12.0,8.0,143,82,81,100,99
2025-02-27 15:43:27.998,-309.0,-921.0,97.0,0.0,8.0,6.0,143,83,80,100,99
2025-02-27 15:43:28.005,-318.0,-933.0,103.0,0.0,10.0,5.0,141,81,80,99,98
2025-02-27 15:43:28.010,-310.0,-900.0,86.0,2.0,2.0,5.0,143,84,82,100,99
2025-02-27 15:43:28.014,-301.0,-909.0,123.0,3.0,-2.0,4.0,142,82,83,98,98
2025-02-27 15:43:28.018,-316.0,-913.0,50.0,0.0,-2.0,3.0,140,81,82,96,95
2025-02-27 15:43:28.023,-288.0,-933.0,99.0,1.0,-4.0,3.0,144,86,87,102,101
2025-02-27 15:43:28.027,-309.0,-909.0,61.0,-3.0,-4.0,3.0,143,82,84,99,99
2025-02-27 15:43:28.030,-288.0,-913.0,108.0,-8.0,-5.0,2.0,140,80,83,97,94
2025-02-27 15:43:28.038,-285.0,-920.0,114.0,-7.0,-4.0,2.0,142,84,86,100,99
2025-02-27 15:43:28.042,-285.0,-923.0,139.0,-8.0,-5.0,2.0,143,84,84,100,100
2025-02-27 15:43:28.046,-296.0,-911.0,112.0,-10.0,-6.0,1.0,139,81,79,96,97
2025-02-27 15:43:28.051,-279.0,-904.0,147.0,-7.0,-7.0,1.0,142,83,81,100,99
2025-02-27 15:43:28.055,-301.0,-910.0,57.0,-11.0,-7.0,0.0,142,82,79,98,98
2025-02-27 15:43:28.063,-281.0,-887.0,95.0,-6.0,-9.0,-1.0,142,82,82,99,99
2025-02-27 15:43:28.067,-284.0,-914.0,103.0,-9.0,-6.0,-2.0,143,83,83,100,99
2025-02-27 15:43:28.071,-282.0,-929.0,108.0,-7.0,-7.0,-3.0,143,84,81,99,99
2025-02-27 15:43:28.075,-294.0,-928.0,80.0,-9.0,-7.0,-3.0,141,81,80,98,97
2025-02-27 15:43:28.080,-285.0,-920.0,112.0,-2.0,-7.0,-3.0,144,85,85,102,101
2025-02-27 15:43:28.088,-305.0,-940.0,84.0,0.0,-9.0,-4.0,142,83,84,99,98
2025-02-27 15:43:28.092,-275.0,-940.0,67.0,3.0,-7.0,-3.0,140,79,80,96,95
2025-02-27 15:43:28.096,-290.0,-945.0,120.0,8.0,-6.0,-3.0,142,82,83,100,98
2025-02-27 15:43:28.100,-274.0,-912.0,103.0,12.0,0.0,-2.0,144,84,84,99,99
2025-02-27 15:43:28.105,-310.0,-917.0,105.0,9.0,2.0,-3.0,140,79,76,96,95
2025-02-27 15:43:28.109,-279.0,-887.0,115.0,17.0,7.0,-4.0,142,83,78,98,98
2025-02-27 15:43:28.116,-317.0,-917.0,68.0,18.0,10.0,-5.0,140,80,79,97,96
2025-02-27 15:43:28.120,-300.0,-887.0,189.0,15.0,9.0,-5.0,142,82,83,98,97
2025-02-27 15:43:28.124,-281.0,-926.0,133.0,20.0,10.0,-6.0,144,84,88,100,99
2025-02-27 15:43:28.128,-278.0,-945.0,159.0,27.0,12.0,-3.0,140,79,84,96,97
2025-02-27 15:43:28.133,-289.0,-957.0,133.0,49.0,2.0,-4.0,139,78,78,96,95
2025-02-27 15:43:28.141,-297.0,-1000.0,201.0,57.0,5.0,-3.0,146,86,87,102,102
2025-02-27 15:43:28.145,-282.0,-949.0,7.0,44.0,-2.0,0.0,141,81,84,97,97
2025-02-27 15:43:28.150,-292.0,-998.0,55.0,34.0,-7.0,2.0,140,79,80,95,96
2025-02-27 15:43:28.153,-271.0,-946.0,151.0,40.0,3.0,3.0,144,83,82,97,99
2025-02-27 15:43:28.157,-278.0,-894.0,88.0,34.0,4.0,0.0,141,81,79,97,97
2025-02-27 15:43:28.162,-266.0,-889.0,36.0,15.0,2.0,-1.0,143,83,81,98,98
2025-02-27 15:43:28.167,-283.0,-871.0,40.0,5.0,-2.0,1.0,143,84,84,100,96
2025-02-27 15:43:28.173,-291.0,-863.0,138.0,5.0,-3.0,0.0,140,80,81,96,96
2025-02-27 15:43:28.178,-325.0,-863.0,190.0,8.0,-10.0,-2.0,141,83,85,99,99
2025-02-27 15:43:28.182,-306.0,-875.0,77.0,14.0,-19.0,-4.0,144,84,91,100,97
2025-02-27 15:43:28.186,-311.0,-881.0,195.0,23.0,-16.0,-5.0,142,81,84,98,97
2025-02-27 15:43:28.191,-303.0,-874.0,127.0,31.0,-20.0,-6.0,145,83,87,99,99
2025-02-27 15:43:28.198,-312.0,-912.0,68.0,33.0,-21.0,-7.0,144,84,86,100,98
2025-02-27 15:43:28.202,-324.0,-888.0,40.0,29.0,-22.0,-8.0,141,80,85,98,98
2025-02-27 15:43:28.207,-311.0,-893.0,-6.0,10.0,-24.0,-8.0,144,84,85,99,100
2025-02-27 15:43:28.211,-317.0,-912.0,53.0,15.0,-27.0,-6.0,145,81,85,100,100
2025-02-27 15:43:28.215,-269.0,-929.0,246.0,12.0,-23.0,-7.0,142,81,82,98,97
2025-02-27 15:43:28.223,-302.0,-889.0,233.0,13.0,-23.0,-5.0,144,83,84,97,99
2025-02-27 15:43:28.227,-271.0,-964.0,69.0,10.0,-22.0,-6.0,144,85,85,100,99
2025-02-27 15:43:28.231,-282.0,-912.0,162.0,16.0,-20.0,-5.0,142,80,80,97,97
2025-02-27 15:43:28.236,-282.0,-905.0,199.0,24.0,-19.0,-5.0,143,82,81,98,98
2025-02-27 15:43:28.243,-288.0,-923.0,133.0,28.0,-23.0,-6.0,143,87,85,97,100
2025-02-27 15:43:28.247,-290.0,-906.0,163.0,33.0,-24.0,-5.0,142,81,81,97,97
2025-02-27 15:43:28.252,-283.0,-887.0,147.0,32.0,-23.0,-6.0,140,80,81,96,96
2025-02-27 15:43:28.256,-284.0,-878.0,157.0,27.0,-25.0,-6.0,143,83,84,99,99
2025-02-27 15:43:28.260,-275.0,-889.0,158.0,23.0,-26.0,-7.0,143,82,86,98,98
2025-02-27 15:43:28.268,-285.0,-877.0,119.0,16.0,-24.0,-8.0,142,81,85,96,96
2025-02-27 15:43:28.272,-296.0,-894.0,153.0,12.0,-24.0,-9.0,138,83,88,102,99
2025-02-27 15:43:28.276,-287.0,-892.0,163.0,10.0,-29.0,-11.0,140,81,86,97,97
2025-02-27 15:43:28.280,-291.0,-884.0,178.0,12.0,-29.0,-11.0,143,80,84,97,97
2025-02-27 15:43:28.288,-278.0,-877.0,183.0,18.0,-31.0,-12.0,144,83,88,100,99
2025-02-27 15:43:28.292,-268.0,-886.0,191.0,22.0,-31.0,-14.0,142,81,80,97,98
2025-02-27 15:43:28.296,-279.0,-892.0,158.0,22.0,-31.0,-14.0,140,80,86,97,97
2025-02-27 15:43:28.300,-276.0,-901.0,173.0,23.0,-33.0,-14.0,145,80,95,101,100
2025-02-27 15:43:28.308,-261.0,-928.0,181.0,15.0,-35.0,-14.0,143,82,90,97,98
2025-02-27 15:43:28.312,-254.0,-924.0,152.0,21.0,-35.0,-14.0,141,80,87,97,96
2025-02-27 15:43:28.317,-240.0,-931.0,233.0,25.0,-29.0,-14.0,144,83,89,99,99
2025-02-27 15:43:28.321,-238.0,-927.0,221.0,22.0,-28.0,-13.0,144,83,89,100,99
2025-02-27 15:43:28.325,-257.0,-935.0,248.0,18.0,-26.0,-13.0,141,81,86,97,96
2025-02-27 15:43:28.333,-275.0,-944.0,233.0,14.0,-26.0,-13.0,145,82,88,99,98
2025-02-27 15:43:28.337,-301.0,-937.0,133.0,14.0,-27.0,-13.0,143,83,88,98,98
2025-02-27 15:43:28.342,-265.0,-930.0,200.0,7.0,-29.0,-13.0,143,82,87,97,97
2025-02-27 15:43:28.346,-293.0,-944.0,239.0,21.0,-30.0,-12.0,144,84,88,99,100
2025-02-27 15:43:28.353,-296.0,-949.0,272.0,29.0,-29.0,-12.0,142,83,87,97,98
2025-02-27 15:43:28.358,-282.0,-947.0,183.0,31.0,-30.0,-13.0,141,80,83,95,96
2025-02-27 15:43:28.362,-303.0,-952.0,142.0,21.0,-35.0,-12.0,145,84,89,101,99
2025-02-27 15:43:28.366,-300.0,-962.0,196.0,19.0,-34.0,-11.0,145,84,86,98,98
2025-02-27 15:43:28.374,-293.0,-972.0,160.0,22.0,-30.0,-10.0,141,81,85,94,95
2025-02-27 15:43:28.378,-232.0,-978.0,201.0,28.0,-28.0,-10.0,144,82,82,97,97
2025-02-27 15:43:28.382,-283.0,-979.0,191.0,27.0,-27.0,-8.0,145,84,86,99,98
2025-02-27 15:43:28.387,-268.0,-996.0,248.0,29.0,-22.0,-8.0,141,81,79,94,96
2025-02-27 15:43:28.395,-274.0,-973.0,205.0,26.0,-23.0,-8.0,141,80,83,94,95
2025-02-27 15:43:28.399,-275.0,-997.0,226.0,29.0,-26.0,-7.0,145,82,82,96,97
2025-02-27 15:43:28.403,-289.0,-1013.0,274.0,34.0,-24.0,-6.0,143,83,82,96,96
2025-02-27 15:43:28.407,-280.0,-992.0,250.0,38.0,-24.0,-6.0,140,79,80,92,93
2025-02-27 15:43:28.411,-298.0,-993.0,201.0,45.0,-20.0,-6.0,143,84,82,95,96
2025-02-27 15:43:28.419,-287.0,-982.0,154.0,43.0,-21.0,-6.0,141,79,81,93,93
2025-02-27 15:43:28.424,-302.0,-976.0,212.0,36.0,-21.0,-5.0,144,80,82,94,94
2025-02-27 15:43:28.428,-297.0,-982.0,222.0,38.0,-21.0,-5.0,142,82,84,97,96
2025-02-27 15:43:28.432,-287.0,-974.0,242.0,36.0,-21.0,-6.0,140,80,78,92,93
2025-02-27 15:43:28.436,-297.0,-968.0,220.0,35.0,-21.0,-6.0,139,79,78,91,91
2025-02-27 15:43:28.444,-308.0,-965.0,242.0,32.0,-21.0,-6.0,146,85,86,99,98
2025-02-27 15:43:28.448,-324.0,-968.0,211.0,32.0,-23.0,-7.0,142,81,80,93,93
2025-02-27 15:43:28.452,-299.0,-993.0,243.0,32.0,-24.0,-7.0,140,79,77,91,91
2025-02-27 15:43:28.456,-306.0,-985.0,234.0,26.0,-26.0,-7.0,144,84,80,93,94
2025-02-27 15:43:28.464,-325.0,-995.0,212.0,28.0,-30.0,-6.0,145,84,84,96,96
2025-02-27 15:43:28.468,-298.0,-1004.0,274.0,29.0,-27.0,-6.0,142,80,81,92,92
2025-02-27 15:43:28.473,-285.0,-1003.0,234.0,22.0,-29.0,-6.0,144,81,82,96,93
2025-02-27 15:43:28.477,-300.0,-1007.0,278.0,20.0,-28.0,-4.0,142,81,75,94,92
2025-02-27 15:43:28.481,-276.0,-1013.0,233.0,12.0,-29.0,-3.0,145,83,85,94,94
2025-02-27 15:43:28.489,-288.0,-1010.0,309.0,15.0,-29.0,-3.0,147,84,86,94,94
2025-02-27 15:43:28.493,-264.0,-1013.0,302.0,14.0,-26.0,-3.0,144,81,84,94,93
2025-02-27 15:43:28.497,-242.0,-1004.0,300.0,14.0,-24.0,-4.0,141,80,79,91,90
2025-02-27 15:43:28.502,-260.0,-1024.0,300.0,15.0,-23.0,-4.0,147,85,87,97,95
2025-02-27 15:43:28.509,-275.0,-1018.0,300.0,15.0,-21.0,-5.0,144,83,83,94,93
2025-02-27 15:43:28.513,-257.0,-1014.0,261.0,18.0,-22.0,-5.0,141,79,82,92,90
2025-02-27 15:43:28.517,-252.0,-1020.0,336.0,17.0,-20.0,-6.0,143,82,85,93,92
2025-02-27 15:43:28.522,-264.0,-1011.0,333.0,20.0,-19.0,-7.0,147,83,85,96,95
2025-02-27 15:43:28.529,-239.0,-1012.0,309.0,18.0,-19.0,-7.0,142,79,82,92,90
2025-02-27 15:43:28.534,-238.0,-1000.0,344.0,22.0,-16.0,-7.0,143,81,80,96,93
2025-02-27 15:43:28.538,-251.0,-991.0,313.0,19.0,-13.0,-7.0,142,81,79,93,92
2025-02-27 15:43:28.542,-250.0,-990.0,337.0,18.0,-13.0,-6.0,141,78,80,92,90
2025-02-27 15:43:28.547,-266.0,-984.0,344.0,19.0,-13.0,-6.0,145,82,85,96,93
2025-02-27 15:43:28.554,-256.0,-995.0,352.0,20.0,-12.0,-4.0,144,80,83,93,92
2025-02-27 15:43:28.558,-253.0,-983.0,309.0,20.0,-12.0,-3.0,141,79,82,92,90
2025-02-27 15:43:28.563,-270.0,-992.0,353.0,21.0,-13.0,-3.0,145,82,87,95,94
2025-02-27 15:43:28.567,-267.0,-978.0,327.0,18.0,-12.0,-2.0,143,81,87,95,92
2025-02-27 15:43:28.574,-268.0,-974.0,339.0,18.0,-13.0,-1.0,141,79,84,93,91
2025-02-27 15:43:28.580,-267.0,-959.0,339.0,17.0,-12.0,-1.0,144,82,86,94,93
2025-02-27 15:43:28.583,-250.0,-947.0,340.0,15.0,-12.0,-1.0,145,81,85,93,92
2025-02-27 15:43:28.588,-252.0,-936.0,353.0,11.0,-13.0,0.0,141,78,84,92,92
2025-02-27 15:43:28.592,-248.0,-938.0,358.0,10.0,-13.0,0.0,146,82,88,96,94
2025-02-27 15:43:28.596,-262.0,-925.0,348.0,9.0,-13.0,0.0,141,81,89,93,94
2025-02-27 15:43:28.603,-252.0,-923.0,347.0,7.0,-13.0,0.0,143,78,84,89,90
2025-02-27 15:43:28.607,-259.0,-918.0,357.0,8.0,-13.0,-1.0,146,82,87,94,93
2025-02-27 15:43:28.612,-268.0,-922.0,349.0,6.0,-11.0,-1.0,142,81,86,92,92
2025-02-27 15:43:28.616,-281.0,-926.0,357.0,11.0,-11.0,-1.0,141,78,84,92,90
2025-02-27 15:43:28.620,-278.0,-944.0,319.0,4.0,-11.0,-1.0,145,82,88,95,93
2025-02-27 15:43:28.628,-231.0,-959.0,404.0,-1.0,-16.0,0.0,144,80,87,95,94
2025-02-27 15:43:28.632,-270.0,-955.0,394.0,-1.0,-16.0,3.0,142,78,83,92,91
2025-02-27 15:43:28.636,-230.0,-976.0,418.0,7.0,-12.0,4.0,143,85,88,93,96
2025-02-27 15:43:28.640,-230.0,-959.0,396.0,6.0,-7.0,3.0,143,80,88,94,94
2025-02-27 15:43:28.645,-202.0,-960.0,382.0,8.0,-6.0,2.0,144,79,85,92,90
2025-02-27 15:43:28.649,-224.0,-970.0,416.0,9.0,-7.0,2.0,145,82,86,95,95
2025-02-27 15:43:28.657,-230.0,-980.0,408.0,10.0,-5.0,2.0,142,77,86,93,95
2025-02-27 15:43:28.661,-216.0,-983.0,442.0,19.0,-5.0,2.0,142,79,84,92,92
2025-02-27 15:43:28.665,-226.0,-984.0,429.0,24.0,-2.0,2.0,146,83,88,96,95
2025-02-27 15:43:28.669,-221.0,-967.0,403.0,24.0,0.0,2.0,145,81,87,96,95
2025-02-27 15:43:28.674,-226.0,-967.0,429.0,28.0,1.0,2.0,140,79,85,92,92
2025-02-27 15:43:28.678,-240.0,-945.0,405.0,31.0,8.0,2.0,144,81,86,95,94
2025-02-27 15:43:28.686,-244.0,-943.0,318.0,21.0,8.0,1.0,144,83,89,98,96
2025-02-27 15:43:28.689,-250.0,-930.0,440.0,24.0,9.0,1.0,142,79,84,92,93
2025-02-27 15:43:28.694,-251.0,-911.0,455.0,29.0,10.0,0.0,144,81,86,95,95
2025-02-27 15:43:28.698,-233.0,-884.0,410.0,31.0,10.0,-1.0,144,86,86,93,95
2025-02-27 15:43:28.703,-260.0,-895.0,402.0,31.0,11.0,-2.0,145,80,86,95,95
2025-02-27 15:43:28.707,-248.0,-900.0,384.0,28.0,12.0,-1.0,144,82,89,97,95
2025-02-27 15:43:28.714,-240.0,-905.0,478.0,27.0,14.0,0.0,143,81,86,95,96
2025-02-27 15:43:28.727,-253.0,-903.0,401.0,27.0,11.0,1.0,141,80,85,94,93
2025-02-27 15:43:28.729,-266.0,-915.0,458.0,30.0,13.0,1.0,146,84,90,98,98
2025-02-27 15:43:28.732,-261.0,-920.0,470.0,33.0,12.0,1.0,144,81,88,96,96
2025-02-27 15:43:28.734,-248.0,-913.0,403.0,29.0,12.0,1.0,142,78,85,93,93
2025-02-27 15:43:28.739,-255.0,-900.0,363.0,31.0,15.0,2.0,144,79,86,96,95
2025-02-27 15:43:28.743,-251.0,-909.0,469.0,29.0,13.0,2.0,147,83,91,98,98
2025-02-27 15:43:28.747,-268.0,-893.0,463.0,33.0,18.0,2.0,142,80,87,94,94
2025-02-27 15:43:28.751,-247.0,-900.0,521.0,33.0,17.0,2.0,144,82,88,96,96
2025-02-27 15:43:28.755,-236.0,-902.0,454.0,30.0,15.0,2.0,144,81,87,94,96
2025-02-27 15:43:28.759,-241.0,-910.0,398.0,34.0,15.0,2.0,144,82,89,96,96
2025-02-27 15:43:28.767,-233.0,-862.0,507.0,29.0,16.0,2.0,144,81,89,96,97
2025-02-27 15:43:28.772,-241.0,-873.0,443.0,26.0,16.0,2.0,145,81,87,95,96
2025-02-27 15:43:28.776,-250.0,-851.0,531.0,31.0,19.0,2.0,141,79,83,93,93
2025-02-27 15:43:28.780,-268.0,-874.0,413.0,28.0,20.0,1.0,148,84,91,100,99
2025-02-27 15:43:28.784,-233.0,-841.0,520.0,26.0,18.0,0.0,145,81,88,88,97
2025-02-27 15:43:28.789,-254.0,-832.0,579.0,26.0,20.0,-1.0,142,79,88,94,94
2025-02-27 15:43:28.796,-283.0,-825.0,415.0,24.0,13.0,-2.0,142,82,89,93,94
2025-02-27 15:43:28.800,-284.0,-810.0,456.0,24.0,9.0,-4.0,148,84,91,99,98
2025-02-27 15:43:28.804,-265.0,-800.0,549.0,18.0,10.0,-5.0,143,81,87,94,94
2025-02-27 15:43:28.808,-289.0,-810.0,413.0,13.0,9.0,-5.0,145,82,88,95,96
2025-02-27 15:43:28.812,-280.0,-791.0,437.0,12.0,11.0,-7.0,144,81,90,95,95
2025-02-27 15:43:28.820,-273.0,-779.0,452.0,10.0,11.0,-9.0,147,82,88,96,97
2025-02-27 15:43:28.824,-284.0,-779.0,436.0,2.0,10.0,-11.0,145,82,89,97,96
2025-02-27 15:43:28.828,-269.0,-797.0,449.0,-5.0,8.0,-12.0,144,82,89,95,95
2025-02-27 15:43:28.833,-268.0,-800.0,526.0,-6.0,13.0,-13.0,142,79,84,93,93
2025-02-27 15:43:28.837,-286.0,-818.0,383.0,-3.0,6.0,-13.0,147,82,83,97,96
2025-02-27 15:43:28.845,-260.0,-847.0,486.0,-2.0,5.0,-15.0,143,81,87,96,95
2025-02-27 15:43:28.849,-287.0,-851.0,436.0,-3.0,5.0,-15.0,144,80,86,94,93
2025-02-27 15:43:28.853,-256.0,-876.0,428.0,-3.0,6.0,-16.0,144,82,88,95,95
2025-02-27 15:43:28.858,-232.0,-858.0,445.0,-6.0,8.0,-14.0,145,83,87,96,94
2025-02-27 15:43:28.862,-239.0,-900.0,451.0,0.0,11.0,-14.0,143,80,86,95,94
2025-02-27 15:43:28.869,-248.0,-871.0,523.0,-1.0,8.0,-14.0,147,83,89,96,96
2025-02-27 15:43:28.873,-223.0,-882.0,490.0,-1.0,9.0,-15.0,143,81,86,95,95
2025-02-27 15:43:28.878,-228.0,-861.0,453.0,-2.0,9.0,-14.0,141,80,86,95,92
2025-02-27 15:43:28.882,-248.0,-891.0,373.0,-4.0,9.0,-13.0,150,80,86,95,97
2025-02-27 15:43:28.886,-250.0,-883.0,375.0,1.0,4.0,-12.0,144,81,84,96,94
2025-02-27 15:43:28.895,-241.0,-895.0,396.0,7.0,6.0,-12.0,144,79,84,93,95
2025-02-27 15:43:28.898,-229.0,-884.0,431.0,4.0,5.0,-13.0,144,81,88,95,97
2025-02-27 15:43:28.902,-226.0,-887.0,365.0,4.0,3.0,-13.0,146,82,88,97,96
2025-02-27 15:43:28.906,-240.0,-904.0,390.0,3.0,3.0,-13.0,146,80,83,94,94
2025-02-27 15:43:28.911,-226.0,-873.0,404.0,0.0,1.0,-12.0,143,82,87,96,95
2025-02-27 15:43:28.918,-204.0,-886.0,404.0,0.0,1.0,-12.0,145,81,88,96,97
2025-02-27 15:43:28.923,-207.0,-891.0,396.0,-3.0,1.0,-12.0,144,80,86,94,95
2025-02-27 15:43:28.927,-185.0,-885.0,393.0,-7.0,3.0,-12.0,145,82,88,95,97
2025-02-27 15:43:28.932,-182.0,-891.0,391.0,-8.0,4.0,-12.0,143,80,85,94,93
2025-02-27 15:43:28.936,-175.0,-899.0,404.0,-6.0,3.0,-12.0,144,80,84,93,93
2025-02-27 15:43:28.943,-188.0,-899.0,399.0,-7.0,1.0,-13.0,152,83,88,100,98
2025-02-27 15:43:28.948,-200.0,-915.0,397.0,-7.0,1.0,-13.0,145,80,88,95,95
2025-02-27 15:43:28.952,-193.0,-915.0,367.0,-6.0,0.0,-13.0,141,78,84,94,93
2025-02-27 15:43:28.956,-189.0,-937.0,346.0,-6.0,2.0,-13.0,145,81,86,95,96
2025-02-27 15:43:28.961,-190.0,-938.0,347.0,-9.0,3.0,-13.0,145,81,87,95,96
2025-02-27 15:43:28.968,-183.0,-943.0,343.0,-9.0,2.0,-12.0,144,78,85,94,93
2025-02-27 15:43:28.972,-187.0,-955.0,392.0,-8.0,0.0,-12.0,145,78,88,96,96
2025-02-27 15:43:28.977,-205.0,-966.0,347.0,-9.0,0.0,-11.0,142,79,83,93,94
2025-02-27 15:43:28.981,-196.0,-964.0,396.0,-7.0,2.0,-10.0,144,80,85,94,93
2025-02-27 15:43:28.985,-209.0,-976.0,337.0,-6.0,-1.0,-9.0,144,82,88,98,98
2025-02-27 15:43:28.993,-209.0,-985.0,360.0,-5.0,1.0,-8.0,144,80,85,93,94
2025-02-27 15:43:28.997,-218.0,-973.0,377.0,-4.0,1.0,-8.0,142,76,83,92,93
2025-02-27 15:43:29.001,-210.0,-967.0,356.0,-3.0,2.0,-7.0,147,83,89,98,99
2025-02-27 15:43:29.006,-224.0,-957.0,342.0,-2.0,1.0,-6.0,144,79,84,94,94
2025-02-27 15:43:29.010,-222.0,-964.0,361.0,-2.0,0.0,-6.0,142,79,83,94,92
2025-02-27 15:43:29.014,-239.0,-960.0,345.0,0.0,0.0,-5.0,145,81,86,96,96
2025-02-27 15:43:29.021,-236.0,-962.0,358.0,2.0,0.0,-4.0,146,82,87,97,98
2025-02-27 15:43:29.026,-251.0,-962.0,348.0,1.0,-1.0,-4.0,145,82,89,97,96
2025-02-27 15:43:29.030,-225.0,-947.0,360.0,1.0,0.0,-4.0,145,81,88,95,96
2025-02-27 15:43:29.034,-242.0,-948.0,352.0,2.0,1.0,-4.0,143,79,85,92,92
2025-02-27 15:43:29.039,-230.0,-963.0,411.0,4.0,0.0,-3.0,148,84,90,98,99
2025-02-27 15:43:29.046,-249.0,-952.0,308.0,3.0,0.0,-3.0,146,82,86,95,97
2025-02-27 15:43:29.050,-212.0,-953.0,354.0,3.0,-1.0,-3.0,144,78,84,93,93
2025-02-27 15:43:29.055,-244.0,-957.0,354.0,0.0,1.0,-3.0,145,82,86,96,95
2025-02-27 15:43:29.059,-225.0,-946.0,375.0,4.0,0.0,-2.0,147,80,86,96,96
2025-02-27 15:43:29.063,-230.0,-955.0,386.0,1.0,1.0,-3.0,144,82,87,96,94
2025-02-27 15:43:29.071,-232.0,-958.0,346.0,-2.0,0.0,-2.0,146,85,88,96,97
2025-02-27 15:43:29.075,-230.0,-975.0,340.0,-2.0,0.0,-2.0,143,79,85,94,94
2025-02-27 15:43:29.079,-218.0,-962.0,365.0,-1.0,1.0,-1.0,146,78,84,93,93
2025-02-27 15:43:29.083,-229.0,-963.0,338.0,-3.0,0.0,0.0,146,83,88,97,98
2025-02-27 15:43:29.087,-230.0,-982.0,365.0,-4.0,-1.0,0.0,143,80,84,94,95
2025-02-27 15:43:29.092,-223.0,-965.0,383.0,-4.0,-1.0,0.0,143,77,84,94,94
2025-02-27 15:43:29.099,-224.0,-958.0,362.0,-6.0,-1.0,1.0,147,82,88,96,96
2025-02-27 15:43:29.104,-221.0,-961.0,360.0,-7.0,-1.0,1.0,144,83,87,98,99
2025-02-27 15:43:29.107,-222.0,-959.0,365.0,-5.0,1.0,1.0,145,82,88,97,97
2025-02-27 15:43:29.111,-240.0,-952.0,358.0,-6.0,-1.0,2.0,145,81,87,96,97
2025-02-27 15:43:29.116,-231.0,-959.0,361.0,-7.0,-2.0,2.0,144,79,82,94,95
2025-02-27 15:43:29.123,-237.0,-949.0,371.0,-6.0,-2.0,2.0,146,82,93,98,98
2025-02-27 15:43:29.127,-235.0,-969.0,373.0,-6.0,-1.0,2.0,147,81,89,96,97
2025-02-27 15:43:29.132,-218.0,-959.0,354.0,-8.0,-1.0,3.0,142,78,83,89,94
2025-02-27 15:43:29.136,-229.0,-961.0,363.0,-5.0,-1.0,3.0,145,86,88,96,96
2025-02-27 15:43:29.141,-242.0,-939.0,360.0,-8.0,-2.0,4.0,147,83,89,97,96
2025-02-27 15:43:29.148,-233.0,-950.0,346.0,-10.0,-1.0,4.0,145,82,85,94,94
2025-02-27 15:43:29.152,-240.0,-955.0,389.0,-7.0,-2.0,5.0,146,82,88,97,96
2025-02-27 15:43:29.157,-255.0,-939.0,309.0,-12.0,-2.0,5.0,145,81,86,95,96
2025-02-27 15:43:29.161,-230.0,-962.0,410.0,-5.0,-4.0,5.0,145,81,86,95,94
2025-02-27 15:43:29.165,-247.0,-952.0,373.0,-4.0,-2.0,5.0,145,82,86,96,98
2025-02-27 15:43:29.173,-220.0,-907.0,330.0,-8.0,-1.0,5.0,145,79,84,96,95
2025-02-27 15:43:29.177,-215.0,-957.0,385.0,-4.0,-2.0,5.0,142,79,85,94,93
2025-02-27 15:43:29.182,-231.0,-918.0,347.0,-11.0,-1.0,5.0,147,82,89,98,98
2025-02-27 15:43:29.186,-225.0,-918.0,416.0,-6.0,1.0,4.0,145,81,87,96,96
2025-02-27 15:43:29.190,-226.0,-907.0,333.0,-8.0,0.0,5.0,143,78,85,93,93
2025-02-27 15:43:29.198,-243.0,-919.0,434.0,-5.0,0.0,6.0,145,81,88,97,97
2025-02-27 15:43:29.202,-236.0,-918.0,374.0,-5.0,-2.0,6.0,146,83,89,98,101
2025-02-27 15:43:29.206,-235.0,-910.0,414.0,0.0,-2.0,6.0,144,80,87,95,94
2025-02-27 15:43:29.211,-236.0,-902.0,414.0,4.0,-2.0,6.0,146,82,87,95,97
2025-02-27 15:43:29.215,-238.0,-887.0,395.0,1.0,1.0,6.0,145,82,86,97,98
2025-02-27 15:43:29.222,-231.0,-893.0,380.0,2.0,0.0,6.0,146,84,87,97,97
2025-02-27 15:43:29.226,-250.0,-878.0,398.0,0.0,-1.0,5.0,145,83,85,97,98
2025-02-27 15:43:29.231,-250.0,-874.0,371.0,-2.0,0.0,4.0,142,79,83,94,94
2025-02-27 15:43:29.235,-231.0,-872.0,379.0,-3.0,-1.0,3.0,144,79,84,93,93
2025-02-27 15:43:29.238,-251.0,-864.0,398.0,-6.0,-1.0,3.0,147,85,92,100,100
2025-02-27 15:43:29.247,-243.0,-867.0,398.0,-6.0,-1.0,2.0,144,80,85,94,94
2025-02-27 15:43:29.251,-251.0,-875.0,396.0,-8.0,-2.0,2.0,144,80,85,94,94
2025-02-27 15:43:29.255,-249.0,-876.0,381.0,-7.0,-3.0,1.0,145,81,85,96,96
2025-02-27 15:43:29.259,-262.0,-883.0,409.0,-3.0,-1.0,0.0,147,81,88,95,96
2025-02-27 15:43:29.263,-262.0,-880.0,368.0,-10.0,-1.0,0.0,146,83,85,97,97
2025-02-27 15:43:29.271,-212.0,-884.0,450.0,-14.0,0.0,-1.0,146,82,86,96,98
2025-02-27 15:43:29.275,-232.0,-861.0,445.0,-14.0,3.0,-1.0,143,78,80,93,94
2025-02-27 15:43:29.279,-220.0,-875.0,441.0,-13.0,12.0,-3.0,145,83,85,96,97
2025-02-27 15:43:29.284,-196.0,-882.0,384.0,-15.0,15.0,-4.0,145,83,88,96,97
2025-02-27 15:43:29.288,-226.0,-872.0,441.0,-3.0,9.0,-3.0,141,80,85,95,95
2025-02-27 15:43:29.296,-252.0,-904.0,405.0,-3.0,0.0,-3.0,145,81,88,96,95
2025-02-27 15:43:29.300,-245.0,-897.0,441.0,-2.0,-1.0,-2.0,144,81,87,95,96
2025-02-27 15:43:29.304,-253.0,-940.0,442.0,5.0,-1.0,-1.0,145,80,83,95,94
2025-02-27 15:43:29.308,-266.0,-939.0,395.0,7.0,0.0,0.0,147,84,85,97,97
2025-02-27 15:43:29.312,-226.0,-911.0,389.0,7.0,4.0,-1.0,146,84,86,94,97
2025-02-27 15:43:29.316,-238.0,-900.0,373.0,4.0,6.0,-2.0,143,79,83,93,94
2025-02-27 15:43:29.325,-224.0,-885.0,383.0,0.0,3.0,-2.0,146,81,89,96,98
2025-02-27 15:43:29.328,-230.0,-866.0,392.0,-1.0,1.0,-1.0,147,82,86,96,96
2025-02-27 15:43:29.332,-227.0,-866.0,400.0,-2.0,0.0,-1.0,150,80,85,92,94
2025-02-27 15:43:29.337,-229.0,-872.0,400.0,-3.0,-2.0,-1.0,148,81,87,94,96
2025-02-27 15:43:29.341,-221.0,-868.0,400.0,-4.0,-1.0,-2.0,145,82,86,95,96
2025-02-27 15:43:29.349,-222.0,-869.0,452.0,-5.0,0.0,-3.0,142,79,84,94,94
2025-02-27 15:43:29.353,-230.0,-880.0,400.0,-6.0,1.0,-4.0,145,82,84,96,96
2025-02-27 15:43:29.358,-225.0,-896.0,399.0,-8.0,-2.0,-4.0,143,80,83,94,94
2025-02-27 15:43:29.362,-233.0,-898.0,396.0,-11.0,-2.0,-4.0,144,80,84,93,94
2025-02-27 15:43:29.366,-226.0,-911.0,406.0,-12.0,-3.0,-4.0,147,82,85,96,97
2025-02-27 15:43:29.373,-220.0,-907.0,395.0,-12.0,-2.0,-3.0,143,79,85,94,93
2025-02-27 15:43:29.378,-217.0,-910.0,405.0,-12.0,-1.0,-4.0,142,78,83,92,93
2025-02-27 15:43:29.382,-218.0,-903.0,370.0,-11.0,1.0,-3.0,147,83,85,98,98
2025-02-27 15:43:29.386,-211.0,-913.0,399.0,-7.0,2.0,-4.0,145,80,85,95,94
2025-02-27 15:43:29.390,-207.0,-896.0,396.0,-4.0,2.0,-4.0,142,78,83,94,93
2025-02-27 15:43:29.398,-197.0,-911.0,416.0,0.0,3.0,-4.0,146,82,86,97,96
2025-02-27 15:43:29.402,-220.0,-923.0,386.0,0.0,2.0,-4.0,146,82,84,96,96
2025-02-27 15:43:29.406,-225.0,-928.0,393.0,-1.0,3.0,-4.0,146,83,86,96,95
2025-02-27 15:43:29.411,-224.0,-945.0,391.0,0.0,4.0,-4.0,147,82,87,96,97
2025-02-27 15:43:29.415,-212.0,-949.0,384.0,-3.0,4.0,-4.0,144,79,85,93,93
2025-02-27 15:43:29.423,-220.0,-924.0,395.0,-1.0,5.0,-4.0,147,87,91,99,100
2025-02-27 15:43:29.427,-208.0,-931.0,376.0,0.0,5.0,-3.0,146,80,88,97,97
2025-02-27 15:43:29.431,-206.0,-922.0,394.0,2.0,6.0,-4.0,144,79,85,94,93
2025-02-27 15:43:29.436,-220.0,-916.0,365.0,4.0,4.0,-4.0,145,82,88,97,96
2025-02-27 15:43:29.439,-219.0,-916.0,384.0,4.0,4.0,-5.0,148,85,89,98,99
2025-02-27 15:43:29.447,-221.0,-919.0,405.0,5.0,4.0,-6.0,144,80,85,94,94
2025-02-27 15:43:29.451,-242.0,-912.0,394.0,6.0,2.0,-5.0,145,84,88,97,95
2025-02-27 15:43:29.456,-217.0,-901.0,341.0,5.0,2.0,-5.0,144,81,84,95,95
2025-02-27 15:43:29.460,-196.0,-933.0,378.0,8.0,5.0,-5.0,145,81,86,96,96
2025-02-27 15:43:29.465,-245.0,-923.0,401.0,-4.0,5.0,-5.0,147,83,87,98,97
2025-02-27 15:43:29.472,-192.0,-898.0,266.0,-4.0,7.0,-4.0,144,80,84,96,96
2025-02-27 15:43:29.476,-208.0,-917.0,354.0,-1.0,7.0,-4.0,143,79,84,93,93
2025-02-27 15:43:29.480,-229.0,-881.0,296.0,-5.0,8.0,-5.0,146,83,85,96,96
2025-02-27 15:43:29.484,-225.0,-905.0,407.0,-3.0,2.0,-5.0,148,82,84,96,96
2025-02-27 15:43:29.488,-241.0,-848.0,295.0,-11.0,5.0,-6.0,144,79,84,94,94
2025-02-27 15:43:29.497,-194.0,-926.0,466.0,1.0,1.0,-6.0,146,81,87,96,95
2025-02-27 15:43:29.501,-250.0,-923.0,376.0,0.0,1.0,-6.0,146,80,87,96,95
2025-02-27 15:43:29.505,-223.0,-900.0,321.0,-2.0,0.0,-6.0,145,82,86,95,94
2025-02-27 15:43:29.509,-224.0,-953.0,323.0,1.0,1.0,-5.0,147,82,89,98,97
2025-02-27 15:43:29.513,-236.0,-949.0,379.0,-1.0,3.0,-3.0,143,78,86,94,94
2025-02-27 15:43:29.517,-246.0,-951.0,316.0,3.0,0.0,-3.0,143,78,84,94,93
2025-02-27 15:43:29.525,-236.0,-949.0,397.0,3.0,0.0,-2.0,147,83,89,97,97
2025-02-27 15:43:29.529,-221.0,-903.0,359.0,2.0,3.0,-2.0,145,80,85,95,94
2025-02-27 15:43:29.534,-235.0,-920.0,404.0,1.0,1.0,-1.0,146,79,84,93,93
2025-02-27 15:43:29.538,-245.0,-905.0,323.0,0.0,2.0,-2.0,145,81,88,96,96
2025-02-27 15:43:29.542,-226.0,-887.0,322.0,2.0,-2.0,-2.0,145,82,85,94,94
2025-02-27 15:43:29.550,-250.0,-908.0,367.0,-3.0,-3.0,-2.0,145,83,90,95,95
2025-02-27 15:43:29.554,-237.0,-889.0,370.0,1.0,-3.0,-3.0,147,82,87,96,96
2025-02-27 15:43:29.558,-245.0,-895.0,379.0,3.0,-6.0,-3.0,143,79,86,94,95
2025-02-27 15:43:29.563,-232.0,-910.0,342.0,0.0,-4.0,-3.0,148,84,94,98,98
2025-02-27 15:43:29.567,-240.0,-895.0,360.0,0.0,-4.0,-3.0,146,83,89,98,97
2025-02-27 15:43:29.574,-255.0,-915.0,385.0,-4.0,-3.0,-2.0,144,78,85,94,94
2025-02-27 15:43:29.578,-243.0,-903.0,379.0,-1.0,-5.0,-2.0,146,82,87,96,96
2025-02-27 15:43:29.582,-258.0,-915.0,389.0,-1.0,-6.0,-3.0,147,83,89,97,97
2025-02-27 15:43:29.587,-235.0,-899.0,399.0,-2.0,-6.0,-3.0,144,81,86,95,95
2025-02-27 15:43:29.592,-236.0,-903.0,389.0,-1.0,-5.0,-3.0,146,81,89,97,97
2025-02-27 15:43:29.599,-232.0,-908.0,395.0,-1.0,-5.0,-3.0,145,80,86,95,95
2025-02-27 15:43:29.603,-233.0,-910.0,401.0,1.0,-5.0,-3.0,145,81,88,95,95
2025-02-27 15:43:29.607,-242.0,-926.0,403.0,0.0,-6.0,-3.0,146,83,89,97,97
2025-02-27 15:43:29.611,-219.0,-918.0,404.0,0.0,-5.0,-3.0,145,79,87,95,96
2025-02-27 15:43:29.615,-221.0,-920.0,407.0,1.0,-4.0,-3.0,145,79,84,95,94
2025-02-27 15:43:29.623,-209.0,-915.0,395.0,-3.0,-2.0,-3.0,148,86,91,100,99
2025-02-27 15:43:29.628,-217.0,-908.0,390.0,-4.0,-1.0,-3.0,145,83,88,97,98
2025-02-27 15:43:29.631,-217.0,-905.0,389.0,-3.0,0.0,-4.0,145,80,86,95,93
2025-02-27 15:43:29.635,-218.0,-898.0,396.0,-3.0,-2.0,-4.0,147,81,89,97,97
2025-02-27 15:43:29.641,-230.0,-911.0,409.0,-2.0,-2.0,-3.0,149,85,91,99,99
2025-02-27 15:43:29.648,-220.0,-907.0,383.0,-1.0,-2.0,-4.0,145,80,87,95,95
2025-02-27 15:43:29.652,-220.0,-918.0,386.0,-2.0,0.0,-4.0,146,82,87,96,96
2025-02-27 15:43:29.657,-234.0,-917.0,392.0,-4.0,0.0,-4.0,144,79,86,94,94
2025-02-27 15:43:29.661,-233.0,-912.0,384.0,-3.0,2.0,-4.0,145,81,87,96,96
2025-02-27 15:43:29.664,-229.0,-915.0,361.0,-4.0,0.0,-4.0,147,82,88,98,97
2025-02-27 15:43:29.673,-244.0,-910.0,375.0,-6.0,0.0,-3.0,144,80,85,93,94
2025-02-27 15:43:29.677,-216.0,-906.0,324.0,-8.0,0.0,-4.0,145,80,83,94,94
2025-02-27 15:43:29.680,-207.0,-876.0,411.0,-6.0,1.0,-4.0,146,81,84,99,97
2025-02-27 15:43:29.685,-230.0,-916.0,405.0,-4.0,3.0,-5.0,145,81,83,96,90
2025-02-27 15:43:29.690,-222.0,-872.0,351.0,-7.0,1.0,-5.0,147,81,82,96,96
2025-02-27 15:43:29.693,-211.0,-911.0,403.0,-5.0,0.0,-6.0,147,83,87,96,96
2025-02-27 15:43:29.701,-249.0,-919.0,393.0,-3.0,-1.0,-5.0,144,79,83,95,95
2025-02-27 15:43:29.705,-230.0,-909.0,362.0,-7.0,2.0,-6.0,149,83,89,98,97
2025-02-27 15:43:29.710,-215.0,-919.0,381.0,-7.0,-1.0,-6.0,148,82,86,95,96
2025-02-27 15:43:29.714,-233.0,-938.0,409.0,-4.0,0.0,-5.0,142,79,84,93,94
2025-02-27 15:43:29.718,-210.0,-924.0,364.0,-4.0,-2.0,-5.0,148,83,88,96,97
2025-02-27 15:43:29.726,-217.0,-938.0,357.0,-2.0,3.0,-6.0,146,82,88,96,96
2025-02-27 15:43:29.730,-196.0,-913.0,351.0,-5.0,2.0,-5.0,146,81,86,95,94
2025-02-27 15:43:29.735,-217.0,-925.0,364.0,-1.0,7.0,-6.0,147,84,87,97,95
2025-02-27 15:43:29.739,-228.0,-898.0,342.0,-3.0,2.0,-6.0,146,81,86,96,95
2025-02-27 15:43:29.743,-231.0,-926.0,357.0,-3.0,3.0,-6.0,145,79,85,95,94
2025-02-27 15:43:29.751,-241.0,-911.0,360.0,0.0,0.0,-6.0,147,83,88,96,97
2025-02-27 15:43:29.755,-234.0,-913.0,343.0,-4.0,2.0,-6.0,146,81,81,96,96
2025-02-27 15:43:29.759,-234.0,-913.0,339.0,-4.0,0.0,-6.0,144,80,86,96,94
2025-02-27 15:43:29.763,-260.0,-903.0,314.0,-2.0,3.0,-6.0,148,84,89,98,98
2025-02-27 15:43:29.768,-235.0,-923.0,420.0,-3.0,2.0,-6.0,148,82,88,97,97
2025-02-27 15:43:29.775,-251.0,-929.0,368.0,-1.0,1.0,-6.0,144,80,83,94,94
2025-02-27 15:43:29.780,-236.0,-932.0,367.0,0.0,-3.0,-5.0,147,82,85,97,97
2025-02-27 15:43:29.784,-230.0,-942.0,354.0,0.0,-3.0,-4.0,147,83,86,97,96
2025-02-27 15:43:29.788,-225.0,-930.0,325.0,-4.0,-3.0,-4.0,144,78,81,93,94
2025-02-27 15:43:29.792,-229.0,-932.0,341.0,-4.0,0.0,-4.0,146,82,85,97,97
2025-02-27 15:43:29.800,-220.0,-925.0,370.0,-3.0,0.0,-4.0,145,80,83,93,94
2025-02-27 15:43:29.804,-223.0,-919.0,375.0,-1.0,0.0,-4.0,144,82,84,96,95
2025-02-27 15:43:29.808,-231.0,-926.0,353.0,-3.0,0.0,-4.0,147,82,86,97,98
2025-02-27 15:43:29.813,-222.0,-919.0,349.0,-3.0,-1.0,-3.0,144,79,82,93,93
2025-02-27 15:43:29.817,-231.0,-910.0,366.0,-5.0,-3.0,-4.0,147,82,84,97,96
2025-02-27 15:43:29.824,-224.0,-911.0,346.0,-4.0,-3.0,-4.0,150,85,89,100,100
2025-02-27 15:43:29.829,-214.0,-914.0,361.0,-3.0,-3.0,-4.0,145,81,83,94,95
2025-02-27 15:43:29.832,-205.0,-912.0,352.0,-6.0,-2.0,-5.0,147,82,87,96,97
2025-02-27 15:43:29.836,-216.0,-918.0,366.0,-6.0,-1.0,-5.0,146,82,86,96,95
2025-02-27 15:43:29.841,-207.0,-919.0,368.0,-6.0,-2.0,-5.0,149,83,88,97,97
2025-02-27 15:43:29.848,-207.0,-923.0,375.0,-6.0,-2.0,-6.0,147,82,89,97,99
2025-02-27 15:43:29.853,-204.0,-931.0,358.0,-6.0,-2.0,-6.0,146,81,87,96,96
2025-02-27 15:43:29.857,-197.0,-937.0,354.0,-6.0,-3.0,-6.0,144,79,87,94,93
2025-02-27 15:43:29.861,-206.0,-935.0,351.0,-5.0,-1.0,-6.0,150,85,91,99,99
2025-02-27 15:43:29.865,-201.0,-937.0,364.0,-5.0,0.0,-6.0,147,84,87,97,96
2025-02-27 15:43:29.869,-205.0,-944.0,368.0,-5.0,0.0,-6.0,145,79,85,93,93
2025-02-27 15:43:29.877,-209.0,-946.0,365.0,-3.0,0.0,-6.0,147,81,87,96,96
2025-02-27 15:43:29.881,-224.0,-946.0,355.0,-2.0,-2.0,-6.0,147,83,89,95,96
2025-02-27 15:43:29.886,-221.0,-944.0,340.0,-3.0,-3.0,-5.0,146,82,86,95,95
2025-02-27 15:43:29.890,-220.0,-942.0,366.0,-2.0,-2.0,-5.0,148,82,87,96,98
2025-02-27 15:43:29.894,-221.0,-938.0,347.0,-2.0,-2.0,-4.0,147,83,88,96,96
2025-02-27 15:43:29.902,-217.0,-941.0,344.0,-3.0,-2.0,-4.0,145,79,87,95,95
2025-02-27 15:43:29.906,-213.0,-933.0,354.0,-5.0,-3.0,-4.0,147,83,91,97,96
2025-02-27 15:43:29.910,-207.0,-939.0,363.0,-5.0,-3.0,-4.0,147,82,89,97,96
2025-02-27 15:43:29.914,-207.0,-934.0,362.0,-3.0,-4.0,-4.0,144,79,86,95,94
2025-02-27 15:43:29.919,-219.0,-944.0,350.0,-2.0,-4.0,-3.0,147,85,89,96,96
2025-02-27 15:43:29.927,-208.0,-939.0,347.0,-2.0,-4.0,-3.0,147,83,88,96,97
2025-02-27 15:43:29.931,-215.0,-939.0,351.0,1.0,-3.0,-3.0,144,80,87,94,94
2025-02-27 15:43:29.935,-216.0,-937.0,343.0,0.0,-3.0,-3.0,145,82,89,94,96
2025-02-27 15:43:29.939,-201.0,-950.0,357.0,1.0,-2.0,-3.0,143,79,87,94,95
2025-02-27 15:43:29.943,-205.0,-949.0,345.0,0.0,-2.0,-3.0,144,79,84,95,94
2025-02-27 15:43:29.951,-201.0,-938.0,356.0,-1.0,-2.0,-2.0,147,83,90,98,97
2025-02-27 15:43:29.956,-207.0,-947.0,357.0,0.0,-2.0,-2.0,147,80,85,93,95
2025-02-27 15:43:29.960,-209.0,-941.0,358.0,1.0,-2.0,-2.0,145,81,88,95,94
2025-02-27 15:43:29.964,-204.0,-940.0,348.0,1.0,-1.0,-2.0,147,83,91,100,98
2025-02-27 15:43:29.968,-196.0,-934.0,351.0,1.0,-1.0,-2.0,145,80,88,97,95
2025-02-27 15:43:29.976,-209.0,-930.0,346.0,1.0,-1.0,-2.0,146,82,88,95,96
2025-02-27 15:43:29.980,-220.0,-935.0,353.0,-1.0,-2.0,-2.0,149,82,89,96,96
2025-02-27 15:43:29.984,-220.0,-932.0,353.0,0.0,-2.0,-2.0,145,82,89,97,97
2025-02-27 15:43:29.988,-222.0,-937.0,349.0,1.0,-3.0,-1.0,148,82,89,95,97
2025-02-27 15:43:29.993,-215.0,-932.0,353.0,1.0,-4.0,-2.0,148,82,88,95,96
2025-02-27 15:43:30.000,-222.0,-943.0,357.0,1.0,-4.0,-2.0,146,79,86,95,94
2025-02-27 15:43:30.004,-212.0,-939.0,360.0,0.0,-4.0,-2.0,149,85,90,99,99
2025-02-27 15:43:30.008,-217.0,-949.0,360.0,1.0,-3.0,-1.0,147,80,89,97,96
2025-02-27 15:43:30.013,-209.0,-940.0,360.0,2.0,-3.0,-1.0,145,78,86,94,94
2025-02-27 15:43:30.017,-205.0,-939.0,369.0,2.0,-4.0,-2.0,148,82,89,97,96
2025-02-27 15:43:30.024,-214.0,-942.0,367.0,2.0,-3.0,-1.0,148,83,90,99,98
2025-02-27 15:43:30.029,-208.0,-929.0,359.0,2.0,-3.0,-1.0,145,79,87,95,94
2025-02-27 15:43:30.033,-211.0,-928.0,373.0,2.0,-3.0,-1.0,147,82,89,97,97
2025-02-27 15:43:30.037,-210.0,-933.0,376.0,2.0,-3.0,-1.0,145,81,88,95,95
2025-02-27 15:43:30.042,-209.0,-925.0,382.0,0.0,-3.0,-1.0,148,82,91,97,97
2025-02-27 15:43:30.049,-216.0,-921.0,357.0,0.0,-3.0,-1.0,147,83,90,98,97
2025-02-27 15:43:30.053,-211.0,-918.0,377.0,0.0,-2.0,-1.0,146,82,89,96,96
2025-02-27 15:43:30.058,-203.0,-907.0,367.0,0.0,-1.0,-2.0,145,80,88,94,95
2025-02-27 15:43:30.062,-210.0,-916.0,376.0,0.0,-1.0,-3.0,151,84,91,100,100
2025-02-27 15:43:30.066,-215.0,-919.0,370.0,0.0,-3.0,-3.0,146,81,88,96,95
2025-02-27 15:43:30.071,-219.0,-918.0,373.0,1.0,-3.0,-3.0,144,78,86,93,93
2025-02-27 15:43:30.083,-218.0,-924.0,368.0,1.0,-2.0,-3.0,148,83,90,97,96
2025-02-27 15:43:30.086,-229.0,-917.0,364.0,1.0,-2.0,-3.0,146,81,88,96,95
2025-02-27 15:43:30.089,-228.0,-916.0,357.0,-1.0,-2.0,-3.0,146,79,86,94,94
2025-02-27 15:43:30.091,-231.0,-924.0,371.0,-2.0,-3.0,-4.0,147,82,88,97,96
2025-02-27 15:43:30.095,-235.0,-919.0,368.0,-2.0,-4.0,-4.0,145,79,87,94,93
2025-02-27 15:43:30.103,-235.0,-927.0,356.0,-2.0,-4.0,-3.0,146,79,86,95,93
2025-02-27 15:43:30.107,-234.0,-929.0,363.0,-3.0,-4.0,-3.0,148,82,91,98,97
2025-02-27 15:43:30.111,-237.0,-928.0,361.0,-5.0,-4.0,-3.0,146,78,87,97,95
2025-02-27 15:43:30.115,-222.0,-923.0,370.0,-4.0,-3.0,-3.0,145,76,87,94,94
2025-02-27 15:43:30.120,-225.0,-914.0,374.0,-4.0,-3.0,-4.0,148,83,88,97,97
2025-02-27 15:43:30.127,-224.0,-917.0,384.0,-4.0,-4.0,-4.0,144,79,86,96,95
2025-02-27 15:43:30.131,-233.0,-916.0,372.0,-6.0,-5.0,-4.0,147,82,89,97,97
2025-02-27 15:43:30.136,-232.0,-926.0,380.0,-6.0,-5.0,-4.0,149,82,87,97,97
2025-02-27 15:43:30.140,-232.0,-933.0,375.0,-6.0,-5.0,-3.0,145,80,86,94,95
2025-02-27 15:43:30.145,-223.0,-933.0,375.0,-5.0,-5.0,-3.0,149,84,91,97,99
2025-02-27 15:43:30.152,-216.0,-939.0,383.0,-5.0,-4.0,-4.0,147,83,90,97,98
2025-02-27 15:43:30.156,-212.0,-933.0,383.0,-6.0,-4.0,-3.0,146,79,87,97,94
2025-02-27 15:43:30.160,-213.0,-937.0,385.0,-6.0,-3.0,-3.0,149,82,89,97,97
2025-02-27 15:43:30.164,-203.0,-943.0,393.0,-6.0,-4.0,-3.0,148,83,90,97,98
2025-02-27 15:43:30.169,-209.0,-949.0,395.0,-5.0,-3.0,-2.0,146,80,87,94,94
2025-02-27 15:43:30.176,-202.0,-945.0,390.0,-4.0,-3.0,-2.0,147,81,87,97,96
2025-02-27 15:43:30.181,-203.0,-943.0,390.0,-3.0,-1.0,-2.0,145,83,88,98,95
2025-02-27 15:43:30.185,-202.0,-937.0,384.0,-2.0,-1.0,-2.0,146,81,88,95,95
2025-02-27 15:43:30.189,-198.0,-938.0,386.0,-3.0,-1.0,-2.0,146,84,90,98,97
2025-02-27 15:43:30.194,-203.0,-939.0,390.0,-3.0,-1.0,-2.0,146,84,88,95,96
2025-02-27 15:43:30.201,-202.0,-935.0,376.0,-2.0,-1.0,-2.0,144,78,86,94,94
2025-02-27 15:43:30.205,-195.0,-926.0,383.0,-2.0,-1.0,-2.0,148,83,89,99,99
2025-02-27 15:43:30.209,-200.0,-934.0,382.0,-1.0,0.0,-2.0,145,82,89,97,96
2025-02-27 15:43:30.213,-199.0,-924.0,369.0,-2.0,0.0,-2.0,146,80,88,95,94
2025-02-27 15:43:30.217,-198.0,-930.0,375.0,-3.0,0.0,-2.0,147,81,89,98,97
2025-02-27 15:43:30.226,-194.0,-922.0,374.0,-3.0,-1.0,-2.0,149,84,90,98,98
2025-02-27 15:43:30.230,-195.0,-928.0,378.0,-3.0,-1.0,-2.0,146,81,88,94,97
2025-02-27 15:43:30.234,-195.0,-928.0,374.0,-4.0,0.0,-1.0,148,84,90,97,97
2025-02-27 15:43:30.238,-196.0,-929.0,375.0,-3.0,-1.0,-1.0,144,80,87,94,95
2025-02-27 15:43:30.242,-203.0,-933.0,371.0,-3.0,-1.0,-1.0,145,80,88,96,96
2025-02-27 15:43:30.250,-198.0,-927.0,369.0,-3.0,-1.0,-1.0,145,84,91,99,97
2025-02-27 15:43:30.254,-196.0,-932.0,378.0,-3.0,-1.0,-2.0,145,81,86,94,95
2025-02-27 15:43:30.258,-195.0,-932.0,375.0,-4.0,-1.0,-2.0,144,78,85,92,92
2025-02-27 15:43:30.262,-190.0,-929.0,381.0,-3.0,-1.0,-1.0,149,85,92,101,99
2025-02-27 15:43:30.268,-194.0,-931.0,384.0,-2.0,-1.0,-1.0,148,80,87,94,96
2025-02-27 15:43:30.275,-188.0,-931.0,377.0,-1.0,0.0,-1.0,144,78,85,93,94
2025-02-27 15:43:30.279,-184.0,-929.0,377.0,-1.0,1.0,-1.0,147,82,90,97,96
2025-02-27 15:43:30.283,-185.0,-927.0,378.0,-1.0,1.0,-2.0,149,83,91,97,98
2025-02-27 15:43:30.288,-190.0,-924.0,378.0,-1.0,1.0,-2.0,147,82,89,96,96
2025-02-27 15:43:30.292,-200.0,-931.0,375.0,-1.0,1.0,-2.0,146,85,91,99,95
2025-02-27 15:43:30.296,-193.0,-924.0,379.0,0.0,1.0,-1.0,145,77,84,92,96
2025-02-27 15:43:30.304,-194.0,-930.0,374.0,0.0,1.0,-2.0,146,85,92,99,97
2025-02-27 15:43:30.308,-195.0,-927.0,368.0,0.0,2.0,-2.0,147,81,92,100,98
2025-02-27 15:43:30.312,-196.0,-928.0,373.0,0.0,2.0,-1.0,143,83,88,95,94
2025-02-27 15:43:30.316,-193.0,-924.0,376.0,-1.0,2.0,-1.0,149,80,86,95,98
2025-02-27 15:43:30.320,-202.0,-924.0,361.0,0.0,1.0,-1.0,147,81,85,93,97
2025-02-27 15:43:30.328,-197.0,-931.0,364.0,0.0,1.0,-1.0,145,78,89,97,95
2025-02-27 15:43:30.333,-204.0,-925.0,369.0,0.0,1.0,-1.0,148,83,89,98,98
2025-02-27 15:43:30.337,-201.0,-930.0,368.0,-1.0,2.0,-1.0,147,81,88,97,97
2025-02-27 15:43:30.341,-207.0,-928.0,367.0,-1.0,2.0,-1.0,145,80,87,95,95
2025-02-27 15:43:30.345,-208.0,-919.0,374.0,-1.0,1.0,-1.0,148,83,90,99,98
2025-02-27 15:43:30.353,-198.0,-926.0,373.0,-1.0,0.0,-1.0,148,81,91,96,97
2025-02-27 15:43:30.357,-212.0,-925.0,370.0,-1.0,0.0,-1.0,143,81,85,93,92
2025-02-27 15:43:30.361,-209.0,-929.0,368.0,-1.0,1.0,-1.0,147,83,90,97,98
2025-02-27 15:43:30.365,-202.0,-930.0,373.0,-1.0,1.0,-1.0,146,80,87,95,95
2025-02-27 15:43:30.369,-197.0,-926.0,375.0,-1.0,1.0,-1.0,144,79,85,93,94
2025-02-27 15:43:30.377,-196.0,-922.0,375.0,-1.0,1.0,-1.0,147,81,86,96,97
2025-02-27 15:43:30.381,-201.0,-918.0,375.0,-1.0,2.0,0.0,145,80,86,94,96
2025-02-27 15:43:30.385,-205.0,-918.0,381.0,0.0,2.0,-1.0,147,82,89,95,95
2025-02-27 15:43:30.390,-201.0,-916.0,371.0,0.0,2.0,-1.0,148,83,89,98,98
2025-02-27 15:43:30.394,-199.0,-916.0,369.0,0.0,2.0,-1.0,143,77,87,95,95
2025-02-27 15:43:30.398,-207.0,-912.0,372.0,0.0,2.0,-1.0,147,82,91,97,98
2025-02-27 15:43:30.406,-209.0,-911.0,307.0,-1.0,0.0,-1.0,147,84,90,98,98
2025-02-27 15:43:30.410,-200.0,-915.0,370.0,-2.0,3.0,-2.0,146,80,88,95,95
2025-02-27 15:43:30.414,-184.0,-899.0,382.0,-1.0,4.0,-2.0,146,82,89,96,97
2025-02-27 15:43:30.418,-212.0,-919.0,351.0,-1.0,4.0,-3.0,146,80,89,95,96
2025-02-27 15:43:30.422,-190.0,-906.0,367.0,-2.0,2.0,-3.0,146,81,88,96,97
2025-02-27 15:43:30.430,-212.0,-922.0,383.0,1.0,2.0,-3.0,147,82,90,97,98
2025-02-27 15:43:30.435,-210.0,-913.0,366.0,2.0,1.0,-3.0,146,82,88,93,94
2025-02-27 15:43:30.439,-210.0,-930.0,359.0,2.0,2.0,-3.0,146,79,86,94,94
2025-02-27 15:43:30.443,-209.0,-924.0,339.0,1.0,2.0,-2.0,148,86,92,101,100
2025-02-27 15:43:30.448,-213.0,-922.0,363.0,1.0,1.0,-2.0,147,82,89,97,98
2025-02-27 15:43:30.455,-220.0,-912.0,359.0,1.0,1.0,-3.0,146,82,86,95,94
2025-02-27 15:43:30.459,-207.0,-903.0,343.0,-1.0,1.0,-3.0,146,81,89,97,97
2025-02-27 15:43:30.463,-210.0,-914.0,354.0,-2.0,0.0,-3.0,150,87,92,100,100
2025-02-27 15:43:30.468,-217.0,-909.0,364.0,0.0,-1.0,-3.0,145,79,87,96,95
2025-02-27 15:43:30.472,-209.0,-917.0,354.0,-1.0,-1.0,-3.0,147,84,90,97,98
2025-02-27 15:43:30.480,-213.0,-927.0,343.0,0.0,-1.0,-3.0,145,77,87,95,95
2025-02-27 15:43:30.484,-207.0,-925.0,357.0,0.0,0.0,-3.0,148,82,89,96,96
2025-02-27 15:43:30.488,-211.0,-927.0,352.0,0.0,0.0,-3.0,149,83,90,98,99
2025-02-27 15:43:30.492,-195.0,-926.0,354.0,-1.0,-1.0,-3.0,146,80,88,94,95
2025-02-27 15:43:30.496,-215.0,-937.0,362.0,1.0,0.0,-3.0,147,82,88,97,97
2025-02-27 15:43:30.504,-212.0,-929.0,366.0,1.0,0.0,-3.0,146,82,90,97,97
2025-02-27 15:43:30.508,-202.0,-921.0,367.0,2.0,-1.0,-3.0,146,81,87,96,96
2025-02-27 15:43:30.512,-200.0,-909.0,366.0,3.0,1.0,-3.0,148,82,90,98,98
2025-02-27 15:43:30.516,-203.0,-917.0,359.0,2.0,0.0,-3.0,146,80,88,97,96
2025-02-27 15:43:30.520,-209.0,-917.0,361.0,1.0,0.0,-3.0,144,79,86,96,95
2025-02-27 15:43:30.525,-209.0,-921.0,366.0,1.0,0.0,-3.0,150,83,93,97,98
2025-02-27 15:43:30.533,-209.0,-927.0,364.0,1.0,0.0,-3.0,147,81,91,96,97
2025-02-27 15:43:30.537,-206.0,-932.0,360.0,1.0,1.0,-3.0,146,80,86,98,94
2025-02-27 15:43:30.541,-208.0,-932.0,364.0,1.0,1.0,-3.0,148,81,90,97,98
2025-02-27 15:43:30.545,-209.0,-936.0,360.0,1.0,1.0,-3.0,147,79,89,97,97
2025-02-27 15:43:30.549,-208.0,-931.0,354.0,-1.0,1.0,-3.0,143,80,87,96,96
2025-02-27 15:43:30.557,-203.0,-922.0,367.0,-2.0,1.0,-3.0,146,83,87,96,97
2025-02-27 15:43:30.561,-195.0,-924.0,366.0,1.0,1.0,-3.0,146,80,87,94,97
2025-02-27 15:43:30.566,-205.0,-925.0,367.0,-1.0,0.0,-3.0,144,80,87,96,96
2025-02-27 15:43:30.570,-192.0,-931.0,361.0,-1.0,-1.0,-3.0,147,81,91,98,98
2025-02-27 15:43:30.575,-205.0,-938.0,370.0,-1.0,-1.0,-3.0,144,79,87,94,97
2025-02-27 15:43:30.581,-201.0,-945.0,363.0,-1.0,0.0,-3.0,144,79,84,92,94
2025-02-27 15:43:30.586,-189.0,-934.0,363.0,-1.0,1.0,-3.0,147,82,91,99,99
2025-02-27 15:43:30.590,-190.0,-936.0,359.0,-2.0,1.0,-3.0,146,81,87,95,96
2025-02-27 15:43:30.594,-188.0,-932.0,366.0,-2.0,0.0,-3.0,146,80,87,93,95
2025-02-27 15:43:30.599,-188.0,-937.0,372.0,-2.0,1.0,-3.0,147,82,93,97,97
2025-02-27 15:43:30.606,-186.0,-931.0,358.0,-3.0,1.0,-3.0,148,82,88,96,98
2025-02-27 15:43:30.611,-188.0,-931.0,359.0,-3.0,1.0,-3.0,149,83,90,97,98
2025-02-27 15:43:30.615,-189.0,-932.0,356.0,-3.0,1.0,-3.0,147,81,88,97,98
2025-02-27 15:43:30.620,-193.0,-929.0,361.0,-4.0,1.0,-3.0,144,80,87,94,95
2025-02-27 15:43:30.625,-195.0,-939.0,345.0,-3.0,1.0,-3.0,149,84,91,100,100
2025-02-27 15:43:30.631,-202.0,-936.0,354.0,-4.0,1.0,-4.0,147,82,89,95,99
2025-02-27 15:43:30.636,-201.0,-939.0,352.0,-4.0,1.0,-3.0,147,80,87,95,95
2025-02-27 15:43:30.640,-211.0,-941.0,354.0,-3.0,0.0,-3.0,147,82,88,98,98
2025-02-27 15:43:30.644,-216.0,-948.0,349.0,-3.0,-2.0,-2.0,150,84,91,99,100
2025-02-27 15:43:30.649,-212.0,-950.0,354.0,-2.0,-2.0,-2.0,146,79,87,95,96
2025-02-27 15:43:30.656,-213.0,-952.0,350.0,-1.0,-1.0,-2.0,147,82,91,97,98
2025-02-27 15:43:30.660,-204.0,-943.0,352.0,-1.0,-1.0,-1.0,147,83,89,95,96
2025-02-27 15:43:30.664,-199.0,-943.0,357.0,-2.0,-1.0,-1.0,147,81,89,98,98
2025-02-27 15:43:30.669,-197.0,-945.0,366.0,-2.0,-1.0,0.0,148,84,92,101,97
2025-02-27 15:43:30.672,-195.0,-941.0,370.0,-2.0,-1.0,0.0,147,82,87,97,97
2025-02-27 15:43:30.677,-196.0,-936.0,368.0,-1.0,0.0,0.0,146,81,88,94,95
2025-02-27 15:43:30.685,-194.0,-934.0,366.0,-2.0,0.0,0.0,151,85,93,100,101
2025-02-27 15:43:30.689,-198.0,-936.0,365.0,-2.0,0.0,0.0,146,80,89,97,96
2025-02-27 15:43:30.693,-201.0,-939.0,367.0,-2.0,0.0,0.0,144,79,85,93,95
2025-02-27 15:43:30.697,-199.0,-935.0,372.0,-2.0,0.0,0.0,148,83,91,96,97
2025-02-27 15:43:30.701,-200.0,-939.0,374.0,-2.0,0.0,0.0,145,80,87,95,95
2025-02-27 15:43:30.709,-195.0,-930.0,370.0,-3.0,0.0,0.0,149,84,91,98,99
2025-02-27 15:43:30.714,-193.0,-933.0,376.0,-3.0,0.0,0.0,147,84,90,97,98
2025-02-27 15:43:30.718,-192.0,-931.0,375.0,-3.0,0.0,0.0,142,78,86,92,95
2025-02-27 15:43:30.722,-196.0,-933.0,376.0,-3.0,0.0,0.0,147,82,89,98,98
2025-02-27 15:43:30.726,-194.0,-927.0,369.0,-3.0,0.0,0.0,152,83,90,100,98
2025-02-27 15:43:30.730,-193.0,-929.0,369.0,-3.0,0.0,0.0,145,79,87,94,96
2025-02-27 15:43:30.737,-196.0,-921.0,367.0,-3.0,0.0,0.0,147,80,91,97,100
2025-02-27 15:43:30.741,-194.0,-924.0,367.0,-3.0,1.0,0.0,146,80,86,95,95
2025-02-27 15:43:30.746,-197.0,-924.0,368.0,-3.0,1.0,0.0,147,78,88,95,95
2025-02-27 15:43:30.750,-195.0,-922.0,370.0,-3.0,0.0,0.0,147,82,90,97,98
2025-02-27 15:43:30.754,-196.0,-921.0,367.0,-3.0,0.0,1.0,145,80,86,94,94
2025-02-27 15:43:30.762,-201.0,-918.0,366.0,-3.0,0.0,0.0,147,82,90,97,97
2025-02-27 15:43:30.766,-198.0,-914.0,363.0,-2.0,0.0,0.0,149,83,93,98,100
2025-02-27 15:43:30.770,-194.0,-912.0,358.0,-2.0,0.0,0.0,145,80,87,95,95
2025-02-27 15:43:30.774,-195.0,-909.0,355.0,-2.0,0.0,0.0,148,82,90,97,98
2025-02-27 15:43:30.778,-200.0,-911.0,359.0,-2.0,0.0,-1.0,147,84,90,98,97
2025-02-27 15:43:30.783,-200.0,-907.0,355.0,-1.0,0.0,-1.0,148,83,91,98,99
2025-02-27 15:43:30.791,-199.0,-909.0,359.0,-1.0,-1.0,-1.0,150,84,90,98,98
2025-02-27 15:43:30.795,-199.0,-910.0,362.0,-1.0,0.0,-1.0,146,80,86,94,95
2025-02-27 15:43:30.799,-200.0,-910.0,359.0,-1.0,0.0,-2.0,145,78,86,94,94
2025-02-27 15:43:30.804,-198.0,-914.0,358.0,-1.0,0.0,-2.0,151,85,93,102,101
2025-02-27 15:43:30.807,-198.0,-917.0,362.0,-1.0,0.0,-3.0,146,80,89,97,97
2025-02-27 15:43:30.815,-197.0,-921.0,364.0,0.0,0.0,-3.0,147,80,86,94,95
2025-02-27 15:43:30.819,-202.0,-916.0,366.0,0.0,0.0,-3.0,147,83,89,97,97
2025-02-27 15:43:30.824,-200.0,-921.0,367.0,0.0,-1.0,-2.0,144,80,88,95,95
2025-02-27 15:43:30.828,-198.0,-920.0,365.0,-1.0,-1.0,-2.0,148,83,91,96,98
2025-02-27 15:43:30.833,-187.0,-921.0,380.0,-1.0,-1.0,-3.0,147,82,88,96,97
2025-02-27 15:43:30.840,-191.0,-923.0,374.0,0.0,-1.0,-3.0,144,80,86,94,95
2025-02-27 15:43:30.844,-191.0,-922.0,368.0,0.0,0.0,-2.0,147,82,89,96,97
2025-02-27 15:43:30.848,-196.0,-919.0,366.0,-1.0,0.0,-3.0,149,82,89,97,98
2025-02-27 15:43:30.852,-193.0,-928.0,365.0,0.0,0.0,-3.0,147,80,88,94,96
2025-02-27 15:43:30.856,-190.0,-921.0,359.0,-1.0,0.0,-3.0,147,83,90,97,97
2025-02-27 15:43:30.861,-190.0,-928.0,364.0,0.0,0.0,-3.0,145,81,88,95,96
2025-02-27 15:43:30.868,-182.0,-920.0,356.0,0.0,0.0,-3.0,145,84,88,94,95
2025-02-27 15:43:30.872,-194.0,-930.0,369.0,0.0,1.0,-3.0,148,82,91,97,98
2025-02-27 15:43:30.877,-196.0,-920.0,357.0,-1.0,1.0,-3.0,140,79,87,93,95
2025-02-27 15:43:30.881,-196.0,-925.0,369.0,-1.0,0.0,-3.0,147,82,89,96,97
2025-02-27 15:43:30.885,-197.0,-929.0,359.0,-1.0,1.0,-3.0,151,84,90,99,100
2025-02-27 15:43:30.893,-198.0,-932.0,357.0,-1.0,0.0,-3.0,147,80,87,95,96
2025-02-27 15:43:30.897,-201.0,-933.0,354.0,0.0,0.0,-3.0,147,82,91,97,98
2025-02-27 15:43:30.902,-205.0,-933.0,351.0,0.0,0.0,-3.0,146,81,90,96,97
2025-02-27 15:43:30.906,-206.0,-937.0,352.0,-1.0,0.0,-3.0,146,80,87,96,96
2025-02-27 15:43:30.910,-206.0,-939.0,350.0,-1.0,0.0,-3.0,147,78,89,97,98
2025-02-27 15:43:30.915,-214.0,-938.0,350.0,0.0,0.0,-3.0,147,81,89,97,97
2025-02-27 15:43:30.922,-213.0,-939.0,349.0,-1.0,0.0,-3.0,145,79,86,97,96
2025-02-27 15:43:30.926,-213.0,-938.0,347.0,-1.0,-1.0,-3.0,151,83,92,99,100
2025-02-27 15:43:30.930,-213.0,-941.0,351.0,0.0,-1.0,-3.0,147,81,88,96,96
2025-02-27 15:43:30.935,-215.0,-939.0,351.0,-1.0,-1.0,-2.0,143,80,86,93,94
2025-02-27 15:43:30.939,-213.0,-947.0,352.0,-2.0,-1.0,-2.0,146,82,88,96,98
2025-02-27 15:43:30.946,-207.0,-936.0,376.0,-3.0,3.0,-3.0,148,83,91,98,97
2025-02-27 15:43:30.951,-199.0,-943.0,354.0,0.0,1.0,-2.0,144,80,86,94,93
2025-02-27 15:43:30.955,-224.0,-940.0,353.0,0.0,1.0,-3.0,147,82,89,97,98
2025-02-27 15:43:30.959,-206.0,-925.0,347.0,0.0,0.0,-3.0,144,80,88,94,96
2025-02-27 15:43:30.964,-214.0,-933.0,383.0,0.0,0.0,-3.0,151,86,93,102,102
2025-02-27 15:43:30.971,-219.0,-940.0,354.0,2.0,-2.0,-2.0,148,83,90,97,100
2025-02-27 15:43:30.975,-212.0,-952.0,354.0,2.0,-1.0,-1.0,143,78,86,94,96
2025-02-27 15:43:30.979,-205.0,-949.0,351.0,2.0,0.0,-2.0,148,82,89,98,98
2025-02-27 15:43:30.983,-199.0,-942.0,364.0,1.0,-1.0,-1.0,149,84,92,99,100
2025-02-27 15:43:30.987,-203.0,-930.0,364.0,2.0,-1.0,-2.0,146,80,84,95,96
2025-02-27 15:43:30.996,-193.0,-923.0,350.0,-1.0,1.0,-2.0,148,82,89,97,98
2025-02-27 15:43:31.000,-194.0,-925.0,354.0,-1.0,0.0,-2.0,147,81,88,96,97
2025-02-27 15:43:31.004,-204.0,-921.0,364.0,-1.0,-2.0,-2.0,145,80,86,94,94
2025-02-27 15:43:31.008,-205.0,-929.0,364.0,-1.0,-1.0,-2.0,149,83,90,97,99
2025-02-27 15:43:31.013,-193.0,-926.0,355.0,-2.0,-1.0,-3.0,149,84,88,98,98
2025-02-27 15:43:31.020,-199.0,-932.0,352.0,-3.0,-1.0,-2.0,145,79,86,94,95
2025-02-27 15:43:31.024,-197.0,-940.0,352.0,-4.0,-1.0,-3.0,147,82,89,96,97
2025-02-27 15:43:31.029,-193.0,-942.0,368.0,-4.0,-2.0,-2.0,147,83,90,97,98
2025-02-27 15:43:31.033,-189.0,-943.0,367.0,-3.0,-1.0,-2.0,146,80,88,95,96
2025-02-27 15:43:31.037,-189.0,-944.0,363.0,-4.0,-1.0,-1.0,147,80,90,97,98
2025-02-27 15:43:31.045,-190.0,-947.0,364.0,-3.0,-1.0,-1.0,149,83,89,97,97
2025-02-27 15:43:31.049,-193.0,-948.0,370.0,-2.0,0.0,-1.0,147,80,88,98,96
2025-02-27 15:43:31.054,-191.0,-944.0,369.0,-2.0,0.0,-1.0,148,83,90,98,98
2025-02-27 15:43:31.058,-192.0,-945.0,368.0,-2.0,-1.0,-1.0,146,79,87,92,96
2025-02-27 15:43:31.062,-192.0,-944.0,375.0,0.0,0.0,-1.0,143,78,86,95,94
2025-02-27 15:43:31.066,-188.0,-944.0,370.0,0.0,0.0,0.0,148,83,90,98,99
2025-02-27 15:43:31.073,-184.0,-943.0,367.0,0.0,0.0,1.0,146,80,87,93,96
2025-02-27 15:43:31.078,-183.0,-939.0,375.0,0.0,0.0,2.0,147,85,89,96,97
2025-02-27 15:43:31.082,-190.0,-934.0,370.0,0.0,0.0,5.0,147,82,89,97,98
2025-02-27 15:43:31.086,-201.0,-927.0,370.0,-1.0,0.0,6.0,147,78,87,96,97
2025-02-27 15:43:31.090,-193.0,-925.0,371.0,-1.0,0.0,5.0,148,83,91,100,100
2025-02-27 15:43:31.097,-185.0,-919.0,362.0,-1.0,-1.0,2.0,147,81,89,96,97
2025-02-27 15:43:31.102,-187.0,-911.0,364.0,-2.0,-1.0,0.0,143,80,88,95,96
2025-02-27 15:43:31.107,-189.0,-905.0,368.0,-1.0,-1.0,0.0,149,85,91,99,100
2025-02-27 15:43:31.111,-184.0,-902.0,364.0,-1.0,-1.0,-1.0,148,82,88,97,99
2025-02-27 15:43:31.115,-181.0,-905.0,360.0,-2.0,0.0,-1.0,145,80,89,95,95
2025-02-27 15:43:31.123,-186.0,-907.0,358.0,-2.0,0.0,-1.0,148,82,88,97,99
2025-02-27 15:43:31.127,-191.0,-912.0,355.0,-3.0,0.0,-1.0,148,82,89,97,98
2025-02-27 15:43:31.131,-197.0,-919.0,352.0,-3.0,-1.0,-1.0,145,80,86,98,94
2025-02-27 15:43:31.135,-199.0,-922.0,350.0,-3.0,-1.0,-1.0,148,81,89,98,99
2025-02-27 15:43:31.139,-203.0,-926.0,341.0,-3.0,-2.0,-1.0,145,80,87,94,96
2025-02-27 15:43:31.147,-198.0,-927.0,340.0,-2.0,-2.0,-2.0,146,83,88,96,98
2025-02-27 15:43:31.151,-198.0,-919.0,344.0,-2.0,-2.0,-2.0,148,83,90,98,99
2025-02-27 15:43:31.155,-195.0,-913.0,340.0,-2.0,-2.0,-2.0,147,80,87,95,96
2025-02-27 15:43:31.159,-194.0,-910.0,340.0,-2.0,-2.0,-2.0,145,79,87,94,96
2025-02-27 15:43:31.164,-198.0,-913.0,341.0,-1.0,-3.0,-2.0,149,84,93,100,101
2025-02-27 15:43:31.172,-188.0,-917.0,337.0,-2.0,-3.0,-2.0,144,80,88,95,97
2025-02-27 15:43:31.176,-191.0,-918.0,341.0,-1.0,-2.0,-2.0,147,80,88,96,97
2025-02-27 15:43:31.181,-188.0,-929.0,335.0,-1.0,-2.0,-2.0,148,82,89,97,97
2025-02-27 15:43:31.185,-195.0,-924.0,342.0,-1.0,-1.0,-2.0,147,80,88,98,98
2025-02-27 15:43:31.189,-199.0,-917.0,335.0,0.0,-1.0,-2.0,147,82,91,98,98
2025-02-27 15:43:31.193,-197.0,-917.0,312.0,0.0,-2.0,-2.0,148,83,90,99,99
2025-02-27 15:43:31.200,-210.0,-925.0,322.0,0.0,-2.0,-3.0,144,79,88,94,95
2025-02-27 15:43:31.204,-202.0,-913.0,324.0,1.0,-4.0,-3.0,147,84,90,98,98
2025-02-27 15:43:31.209,-213.0,-938.0,351.0,0.0,-4.0,-3.0,146,81,88,97,98
2025-02-27 15:43:31.213,-202.0,-927.0,335.0,1.0,-5.0,-2.0,145,79,86,95,97
2025-02-27 15:43:31.217,-200.0,-936.0,354.0,3.0,-4.0,-2.0,147,82,89,96,102
2025-02-27 15:43:31.225,-196.0,-932.0,346.0,3.0,-5.0,-3.0,147,81,88,96,97
2025-02-27 15:43:31.229,-195.0,-933.0,354.0,3.0,-5.0,-3.0,145,77,88,95,97
2025-02-27 15:43:31.233,-196.0,-931.0,359.0,3.0,-5.0,-2.0,148,82,89,97,98
2025-02-27 15:43:31.238,-189.0,-928.0,361.0,3.0,-6.0,-2.0,147,80,89,96,94
2025-02-27 15:43:31.242,-194.0,-930.0,364.0,2.0,-5.0,-2.0,146,80,86,95,96
2025-02-27 15:43:31.250,-181.0,-929.0,365.0,2.0,-4.0,-2.0,149,83,90,99,99
2025-02-27 15:43:31.253,-188.0,-927.0,374.0,3.0,-4.0,-2.0,148,82,90,97,98
2025-02-27 15:43:31.258,-187.0,-925.0,373.0,2.0,-4.0,-2.0,145,80,87,94,95
2025-02-27 15:43:31.263,-188.0,-919.0,370.0,1.0,-4.0,-2.0,147,83,89,98,98
2025-02-27 15:43:31.266,-194.0,-921.0,379.0,1.0,-4.0,-2.0,148,83,90,98,98
2025-02-27 15:43:31.274,-190.0,-925.0,380.0,0.0,-4.0,-2.0,147,81,89,96,97
2025-02-27 15:43:31.278,-197.0,-935.0,374.0,0.0,-4.0,-2.0,147,81,87,96,98
2025-02-27 15:43:31.283,-192.0,-933.0,376.0,0.0,-4.0,-2.0,146,79,88,94,96
2025-02-27 15:43:31.287,-191.0,-935.0,368.0,0.0,-4.0,-2.0,144,81,88,95,96
2025-02-27 15:43:31.291,-194.0,-927.0,365.0,0.0,-4.0,-2.0,147,81,89,98,98
2025-02-27 15:43:31.299,-193.0,-930.0,372.0,0.0,-4.0,-1.0,148,79,86,95,95
2025-02-27 15:43:31.303,-198.0,-930.0,377.0,0.0,-4.0,-1.0,145,81,86,94,96
2025-02-27 15:43:31.307,-194.0,-936.0,366.0,0.0,-4.0,-1.0,151,83,91,99,100
2025-02-27 15:43:31.311,-196.0,-935.0,371.0,1.0,-4.0,-1.0,146,82,88,94,95
2025-02-27 15:43:31.315,-200.0,-939.0,368.0,2.0,-2.0,0.0,148,82,88,97,98
2025-02-27 15:43:31.320,-191.0,-928.0,361.0,2.0,-2.0,-1.0,146,83,89,97,96
2025-02-27 15:43:31.327,-195.0,-926.0,368.0,2.0,-3.0,0.0,147,81,91,94,97
2025-02-27 15:43:31.331,-196.0,-923.0,360.0,2.0,-3.0,0.0,149,83,90,98,99
2025-02-27 15:43:31.336,-200.0,-914.0,365.0,2.0,-3.0,0.0,145,81,88,97,97
2025-02-27 15:43:31.340,-194.0,-921.0,370.0,2.0,-3.0,0.0,144,78,86,94,95
2025-02-27 15:43:31.345,-193.0,-913.0,374.0,2.0,-3.0,0.0,152,86,94,102,102
2025-02-27 15:43:31.351,-191.0,-925.0,379.0,1.0,-3.0,0.0,146,82,90,97,99
2025-02-27 15:43:31.356,-187.0,-912.0,379.0,1.0,-3.0,0.0,146,80,87,96,96
2025-02-27 15:43:31.360,-186.0,-915.0,381.0,2.0,-3.0,1.0,146,83,89,98,99
2025-02-27 15:43:31.364,-183.0,-910.0,380.0,2.0,-2.0,1.0,148,83,91,99,99
2025-02-27 15:43:31.369,-189.0,-914.0,383.0,2.0,-1.0,1.0,146,79,87,93,95
2025-02-27 15:43:31.376,-189.0,-911.0,381.0,3.0,-1.0,1.0,148,81,90,99,98
2025-02-27 15:43:31.380,-188.0,-910.0,383.0,3.0,-2.0,1.0,145,79,86,95,95
2025-02-27 15:43:31.385,-195.0,-910.0,371.0,1.0,-2.0,2.0,144,79,87,94,94
2025-02-27 15:43:31.389,-191.0,-900.0,377.0,2.0,-1.0,2.0,148,82,90,99,99
2025-02-27 15:43:31.393,-186.0,-901.0,376.0,2.0,-2.0,1.0,145,81,89,95,96
2025-02-27 15:43:31.401,-186.0,-898.0,372.0,2.0,-1.0,0.0,144,79,86,94,95
2025-02-27 15:43:31.405,-193.0,-910.0,367.0,2.0,0.0,0.0,147,83,89,97,99
2025-02-27 15:43:31.409,-193.0,-914.0,363.0,1.0,0.0,0.0,146,79,88,96,97
2025-02-27 15:43:31.413,-198.0,-912.0,375.0,0.0,0.0,-1.0,148,82,91,97,99
2025-02-27 15:43:31.418,-190.0,-922.0,374.0,0.0,0.0,-1.0,146,79,88,96,97
2025-02-27 15:43:31.422,-199.0,-925.0,374.0,0.0,0.0,-1.0,145,80,86,95,96
2025-02-27 15:43:31.429,-203.0,-929.0,365.0,0.0,-1.0,-1.0,148,83,89,98,99
2025-02-27 15:43:31.433,-204.0,-932.0,356.0,0.0,-1.0,0.0,147,83,89,98,99
2025-02-27 15:43:31.438,-202.0,-930.0,368.0,0.0,0.0,0.0,145,81,87,96,94
2025-02-27 15:43:31.442,-202.0,-933.0,355.0,-2.0,0.0,0.0,149,82,89,98,98
2025-02-27 15:43:31.447,-200.0,-939.0,369.0,-2.0,0.0,0.0,146,80,88,96,97
2025-02-27 15:43:31.451,-201.0,-936.0,373.0,-2.0,0.0,0.0,148,84,89,97,99
2025-02-27 15:43:31.459,-206.0,-944.0,377.0,-1.0,-1.0,0.0,148,82,89,98,99
2025-02-27 15:43:31.463,-203.0,-948.0,379.0,-1.0,-1.0,0.0,146,78,87,95,96
2025-02-27 15:43:31.467,-175.0,-960.0,469.0,-4.0,-1.0,0.0,149,83,90,99,99
2025-02-27 15:43:31.471,-201.0,-954.0,347.0,0.0,0.0,1.0,148,81,89,97,98
2025-02-27 15:43:31.476,-158.0,-942.0,355.0,-2.0,0.0,2.0,146,76,86,94,95
2025-02-27 15:43:31.483,-173.0,-961.0,403.0,-3.0,3.0,2.0,148,84,89,98,98
2025-02-27 15:43:31.487,-168.0,-946.0,414.0,-3.0,5.0,4.0,150,84,91,100,100
2025-02-27 15:43:31.491,-155.0,-949.0,402.0,0.0,6.0,4.0,146,80,89,94,94
2025-02-27 15:43:31.496,-175.0,-949.0,402.0,1.0,8.0,4.0,148,82,90,97,97
2025-02-27 15:43:31.500,-181.0,-942.0,385.0,-1.0,7.0,4.0,146,81,87,95,95
2025-02-27 15:43:31.508,-195.0,-948.0,406.0,5.0,8.0,4.0,146,83,90,102,96
2025-02-27 15:43:31.512,-231.0,-957.0,372.0,1.0,3.0,6.0,149,83,91,97,97
2025-02-27 15:43:31.516,-225.0,-933.0,378.0,1.0,0.0,6.0,146,80,86,94,93
2025-02-27 15:43:31.520,-225.0,-927.0,358.0,-4.0,0.0,6.0,145,79,88,93,92
2025-02-27 15:43:31.525,-221.0,-934.0,340.0,-5.0,1.0,5.0,152,87,91,99,100
2025-02-27 15:43:31.532,-215.0,-932.0,341.0,-6.0,1.0,3.0,147,79,87,93,94
2025-02-27 15:43:31.536,-221.0,-930.0,338.0,-9.0,0.0,3.0,149,81,88,95,95
2025-02-27 15:43:31.540,-230.0,-922.0,335.0,-11.0,-3.0,3.0,148,83,87,96,96
2025-02-27 15:43:31.544,-241.0,-950.0,343.0,-11.0,-5.0,2.0,148,82,88,94,95
2025-02-27 15:43:31.549,-228.0,-936.0,340.0,-12.0,-6.0,1.0,147,82,90,96,95
2025-02-27 15:43:31.556,-211.0,-940.0,340.0,-13.0,-8.0,1.0,149,83,89,95,94
2025-02-27 15:43:31.561,-202.0,-940.0,362.0,-14.0,-8.0,2.0,148,77,86,91,90
2025-02-27 15:43:31.565,-180.0,-941.0,525.0,-6.0,-2.0,4.0,148,80,88,95,94
2025-02-27 15:43:31.569,-149.0,-970.0,330.0,-15.0,-6.0,4.0,148,82,89,95,93
2025-02-27 15:43:31.574,-173.0,-965.0,394.0,-11.0,-4.0,6.0,146,79,84,91,90
2025-02-27 15:43:31.581,-157.0,-974.0,374.0,-12.0,-4.0,6.0,147,80,86,93,93
2025-02-27 15:43:31.585,-171.0,-965.0,373.0,-12.0,-4.0,7.0,148,80,85,94,92
2025-02-27 15:43:31.590,-182.0,-966.0,365.0,-11.0,-4.0,7.0,145,79,85,92,91
2025-02-27 15:43:31.594,-186.0,-966.0,368.0,-9.0,-4.0,6.0,146,83,87,95,92
2025-02-27 15:43:31.598,-184.0,-961.0,364.0,-9.0,-5.0,6.0,152,81,85,92,92
2025-02-27 15:43:31.606,-189.0,-963.0,370.0,-6.0,-5.0,5.0,144,79,82,91,88
2025-02-27 15:43:31.610,-184.0,-946.0,366.0,-4.0,-5.0,5.0,149,82,91,97,92
2025-02-27 15:43:31.614,-180.0,-948.0,359.0,-4.0,-4.0,4.0,148,81,85,94,91
2025-02-27 15:43:31.618,-192.0,-939.0,357.0,-3.0,-3.0,3.0,144,79,83,91,88
2025-02-27 15:43:31.623,-187.0,-938.0,372.0,-2.0,-3.0,3.0,146,81,85,94,91
2025-02-27 15:43:31.630,-185.0,-935.0,361.0,-2.0,-5.0,2.0,145,81,86,97,91
2025-02-27 15:43:31.635,-192.0,-939.0,371.0,-1.0,-5.0,1.0,144,79,84,90,88
2025-02-27 15:43:31.639,-189.0,-926.0,355.0,-2.0,-5.0,0.0,151,81,86,91,90
2025-02-27 15:43:31.643,-184.0,-924.0,358.0,-3.0,-6.0,0.0,146,81,84,92,89
2025-02-27 15:43:31.647,-191.0,-923.0,357.0,-2.0,-6.0,-1.0,145,79,86,92,89
2025-02-27 15:43:31.654,-182.0,-918.0,370.0,-3.0,-6.0,-1.0,148,81,87,94,91
2025-02-27 15:43:31.659,-181.0,-925.0,376.0,-3.0,-6.0,-1.0,146,80,84,92,91
2025-02-27 15:43:31.664,-193.0,-924.0,380.0,-4.0,-6.0,-1.0,144,77,83,91,88
2025-02-27 15:43:31.667,-194.0,-934.0,388.0,-4.0,-6.0,-1.0,147,82,87,94,93
2025-02-27 15:43:31.671,-198.0,-922.0,369.0,-4.0,-5.0,-1.0,147,81,88,94,92
2025-02-27 15:43:31.680,-201.0,-933.0,368.0,-3.0,-5.0,-1.0,145,79,84,92,89
2025-02-27 15:43:31.683,-197.0,-926.0,386.0,-3.0,-5.0,-2.0,149,83,87,93,90
2025-02-27 15:43:31.688,-205.0,-927.0,387.0,-2.0,-4.0,-2.0,148,80,88,95,92
2025-02-27 15:43:31.693,-209.0,-920.0,380.0,-2.0,-4.0,-3.0,146,79,83,92,89
2025-02-27 15:43:31.697,-210.0,-921.0,385.0,-3.0,-4.0,-3.0,147,80,86,95,91
2025-02-27 15:43:31.704,-211.0,-908.0,385.0,-3.0,-4.0,-3.0,147,80,85,92,90
2025-02-27 15:43:31.709,-206.0,-912.0,390.0,-2.0,-4.0,-3.0,147,80,85,94,89
2025-02-27 15:43:31.713,-202.0,-916.0,389.0,-3.0,-3.0,-4.0,148,83,87,94,91
2025-02-27 15:43:31.717,-196.0,-915.0,390.0,-4.0,-3.0,-4.0,144,79,82,91,88
2025-02-27 15:43:31.722,-196.0,-916.0,391.0,-5.0,-3.0,-4.0,144,79,84,90,87
2025-02-27 15:43:31.726,-198.0,-922.0,393.0,-5.0,-2.0,-5.0,149,83,89,97,94
2025-02-27 15:43:31.733,-200.0,-925.0,383.0,-5.0,-1.0,-5.0,146,80,84,92,89
2025-02-27 15:43:31.738,-198.0,-937.0,373.0,-6.0,-1.0,-5.0,144,78,82,91,88
2025-02-27 15:43:31.742,-192.0,-936.0,384.0,-7.0,-1.0,-5.0,149,82,86,93,96
2025-02-27 15:43:31.746,-195.0,-935.0,374.0,-7.0,-1.0,-4.0,148,81,88,96,93
2025-02-27 15:43:31.750,-192.0,-936.0,369.0,-9.0,0.0,-4.0,149,78,84,92,89
2025-02-27 15:43:31.758,-201.0,-939.0,365.0,-10.0,-1.0,-4.0,149,82,87,94,91
2025-02-27 15:43:31.762,-207.0,-939.0,365.0,-10.0,-1.0,-3.0,145,78,83,92,89
2025-02-27 15:43:31.766,-203.0,-954.0,351.0,-10.0,-2.0,-4.0,148,82,89,95,92
2025-02-27 15:43:31.771,-211.0,-943.0,359.0,-9.0,-3.0,-3.0,148,81,86,95,93
2025-02-27 15:43:31.778,-209.0,-945.0,346.0,-9.0,-3.0,-3.0,144,80,84,94,91
2025-02-27 15:43:31.782,-204.0,-940.0,354.0,-9.0,-3.0,-3.0,147,80,85,92,92
2025-02-27 15:43:31.786,-199.0,-945.0,345.0,-10.0,-3.0,-2.0,147,82,86,93,93
2025-02-27 15:43:31.790,-196.0,-939.0,350.0,-10.0,-3.0,-2.0,145,79,83,92,91
2025-02-27 15:43:31.795,-200.0,-941.0,344.0,-9.0,-3.0,-2.0,149,80,87,95,92
2025-02-27 15:43:31.803,-198.0,-942.0,345.0,-8.0,-3.0,-2.0,147,80,86,92,92
2025-02-27 15:43:31.807,-199.0,-941.0,333.0,-8.0,-3.0,-2.0,144,79,84,92,90
2025-02-27 15:43:31.811,-199.0,-943.0,337.0,-7.0,-3.0,-2.0,148,82,87,93,93
2025-02-27 15:43:31.815,-209.0,-948.0,332.0,-6.0,-3.0,-1.0,146,81,87,95,93
2025-02-27 15:43:31.820,-210.0,-951.0,332.0,-6.0,-2.0,-1.0,146,78,84,92,90
2025-02-27 15:43:31.823,-213.0,-951.0,338.0,-5.0,-3.0,0.0,149,82,87,94,93
2025-02-27 15:43:31.831,-223.0,-958.0,335.0,-5.0,-3.0,1.0,148,83,88,95,92
2025-02-27 15:43:31.835,-223.0,-957.0,329.0,-3.0,-3.0,2.0,146,81,84,92,91
2025-02-27 15:43:31.840,-221.0,-955.0,341.0,-1.0,-4.0,2.0,147,81,87,95,90
2025-02-27 15:43:31.844,-219.0,-951.0,344.0,-1.0,-4.0,3.0,148,81,86,93,91
2025-02-27 15:43:31.848,-216.0,-940.0,354.0,1.0,-3.0,3.0,145,77,84,92,94
2025-02-27 15:43:31.856,-207.0,-934.0,353.0,2.0,-4.0,3.0,147,83,87,95,95
2025-02-27 15:43:31.860,-207.0,-921.0,357.0,2.0,-4.0,3.0,146,77,86,94,94
2025-02-27 15:43:31.865,-209.0,-911.0,356.0,2.0,-3.0,4.0,146,79,83,91,89
2025-02-27 15:43:31.868,-214.0,-905.0,357.0,1.0,-3.0,4.0,150,84,89,95,94
2025-02-27 15:43:31.873,-214.0,-906.0,357.0,1.0,-3.0,4.0,154,82,87,94,93
2025-02-27 15:43:31.881,-217.0,-902.0,363.0,1.0,-3.0,3.0,145,79,84,89,90
2025-02-27 15:43:31.885,-220.0,-902.0,364.0,1.0,-3.0,3.0,148,82,86,95,93
2025-02-27 15:43:31.889,-212.0,-896.0,365.0,0.0,-3.0,2.0,149,82,88,96,95
2025-02-27 15:43:31.893,-217.0,-892.0,366.0,0.0,-3.0,1.0,146,79,86,92,90
2025-02-27 15:43:31.897,-212.0,-896.0,365.0,0.0,-3.0,0.0,149,81,88,96,93
2025-02-27 15:43:31.901,-212.0,-896.0,369.0,0.0,-3.0,0.0,145,80,85,92,91
2025-02-27 15:43:31.909,-213.0,-897.0,369.0,-1.0,-2.0,-1.0,147,82,86,94,93
2025-02-27 15:43:31.913,-215.0,-900.0,366.0,-1.0,-2.0,-1.0,148,81,87,95,94
2025-02-27 15:43:31.918,-223.0,-897.0,363.0,-2.0,-3.0,-2.0,145,78,85,92,92
2025-02-27 15:43:31.922,-214.0,-901.0,363.0,-2.0,-3.0,-2.0,147,81,86,93,93
2025-02-27 15:43:31.929,-220.0,-911.0,366.0,-2.0,-3.0,-3.0,150,86,90,98,95
2025-02-27 15:43:31.933,-216.0,-916.0,364.0,-2.0,-3.0,-3.0,146,80,87,92,92
2025-02-27 15:43:31.938,-210.0,-916.0,349.0,-2.0,-2.0,-3.0,145,81,88,94,93
2025-02-27 15:43:31.942,-207.0,-928.0,379.0,-3.0,-2.0,-2.0,148,81,88,96,93
2025-02-27 15:43:31.946,-207.0,-937.0,383.0,-3.0,-2.0,-2.0,149,82,86,94,94
2025-02-27 15:43:31.954,-204.0,-935.0,373.0,-2.0,-1.0,-2.0,148,82,88,96,94
2025-02-27 15:43:31.958,-207.0,-944.0,373.0,-2.0,-1.0,-2.0,145,82,87,94,94
2025-02-27 15:43:31.963,-203.0,-955.0,388.0,-2.0,0.0,-2.0,147,79,85,91,90
2025-02-27 15:43:31.967,-206.0,-950.0,382.0,-1.0,-1.0,-1.0,150,85,89,97,98
2025-02-27 15:43:31.971,-204.0,-958.0,375.0,-1.0,0.0,-1.0,148,81,87,96,94
2025-02-27 15:43:31.975,-201.0,-951.0,377.0,-1.0,0.0,0.0,145,78,83,91,90
2025-02-27 15:43:31.983,-201.0,-947.0,375.0,-1.0,0.0,0.0,147,80,88,93,94
2025-02-27 15:43:31.987,-199.0,-943.0,372.0,-1.0,1.0,0.0,150,84,89,97,96
2025-02-27 15:43:31.991,-194.0,-942.0,376.0,0.0,1.0,0.0,147,80,85,92,92
2025-02-27 15:43:31.996,-197.0,-942.0,374.0,-1.0,0.0,1.0,149,83,89,94,94
2025-02-27 15:43:32.000,-194.0,-942.0,373.0,-1.0,1.0,1.0,146,80,84,92,90
2025-02-27 15:43:32.007,-196.0,-939.0,373.0,-2.0,0.0,1.0,144,76,83,91,90
2025-02-27 15:43:32.012,-194.0,-933.0,368.0,-1.0,1.0,1.0,150,82,88,95,94
2025-02-27 15:43:32.015,-194.0,-932.0,371.0,-1.0,2.0,2.0,145,80,86,92,91
2025-02-27 15:43:32.020,-192.0,-937.0,366.0,-1.0,1.0,2.0,147,81,84,92,91
2025-02-27 15:43:32.024,-198.0,-919.0,364.0,-2.0,1.0,3.0,148,81,89,95,94
2025-02-27 15:43:32.032,-204.0,-923.0,365.0,-2.0,1.0,3.0,149,82,85,94,91
2025-02-27 15:43:32.036,-195.0,-921.0,363.0,-1.0,1.0,3.0,149,82,88,94,94
2025-02-27 15:43:32.040,-194.0,-919.0,357.0,-1.0,2.0,3.0,147,81,87,96,95
2025-02-27 15:43:32.044,-202.0,-904.0,351.0,0.0,2.0,3.0,144,79,83,92,92
2025-02-27 15:43:32.049,-209.0,-901.0,345.0,0.0,2.0,3.0,149,84,93,97,94
2025-02-27 15:43:32.053,-214.0,-897.0,349.0,0.0,2.0,3.0,148,81,88,95,94
2025-02-27 15:43:32.060,-222.0,-889.0,337.0,0.0,1.0,2.0,145,77,84,93,90
2025-02-27 15:43:32.065,-217.0,-885.0,330.0,0.0,1.0,2.0,149,82,87,95,94
2025-02-27 15:43:32.069,-221.0,-884.0,327.0,-1.0,0.0,3.0,149,82,88,95,94
2025-02-27 15:43:32.073,-227.0,-876.0,327.0,-1.0,0.0,2.0,145,80,84,93,93
2025-02-27 15:43:32.078,-226.0,-876.0,326.0,-1.0,-1.0,2.0,147,82,87,95,94
2025-02-27 15:43:32.085,-223.0,-857.0,321.0,-2.0,-2.0,2.0,148,83,88,94,93
2025-02-27 15:43:32.089,-222.0,-865.0,317.0,-4.0,-2.0,2.0,148,82,87,95,94
2025-02-27 15:43:32.094,-220.0,-861.0,319.0,-4.0,-3.0,1.0,149,84,89,95,95
2025-02-27 15:43:32.098,-218.0,-872.0,325.0,-4.0,-4.0,1.0,146,81,86,94,92
2025-02-27 15:43:32.103,-225.0,-870.0,324.0,-3.0,-4.0,1.0,144,78,85,93,91
2025-02-27 15:43:32.110,-215.0,-870.0,322.0,-2.0,-4.0,0.0,150,85,90,98,96
2025-02-27 15:43:32.114,-222.0,-872.0,323.0,-2.0,-4.0,-1.0,145,79,86,92,92
2025-02-27 15:43:32.118,-217.0,-874.0,338.0,-2.0,-3.0,-1.0,146,78,84,92,89
2025-02-27 15:43:32.123,-210.0,-879.0,322.0,-2.0,-3.0,-2.0,147,82,87,94,94
2025-02-27 15:43:32.127,-215.0,-878.0,333.0,-1.0,-4.0,-3.0,149,83,88,96,96
2025-02-27 15:43:32.134,-215.0,-888.0,324.0,0.0,-5.0,-3.0,146,78,84,91,91
2025-02-27 15:43:32.139,-210.0,-879.0,351.0,1.0,-3.0,-5.0,147,82,88,94,93
2025-02-27 15:43:32.143,-212.0,-883.0,336.0,1.0,-2.0,-6.0,145,79,84,92,92
2025-02-27 15:43:32.147,-211.0,-878.0,345.0,0.0,-1.0,-6.0,149,82,89,95,93
2025-02-27 15:43:32.151,-221.0,-886.0,335.0,-2.0,-2.0,-6.0,148,84,89,97,95
2025-02-27 15:43:32.158,-217.0,-891.0,344.0,-3.0,-3.0,-7.0,146,80,85,91,92
2025-02-27 15:43:32.163,-202.0,-887.0,335.0,-1.0,-2.0,-7.0,147,81,87,94,93
2025-02-27 15:43:32.167,-198.0,-894.0,351.0,-3.0,-3.0,-8.0,150,85,91,98,97
2025-02-27 15:43:32.171,-203.0,-906.0,354.0,-3.0,-3.0,-9.0,146,81,86,92,92
2025-02-27 15:43:32.175,-189.0,-909.0,340.0,-4.0,-2.0,-9.0,149,83,88,91,93
2025-02-27 15:43:32.184,-191.0,-918.0,351.0,-5.0,-1.0,-10.0,146,81,88,94,93
2025-02-27 15:43:32.188,-185.0,-931.0,355.0,-6.0,-1.0,-10.0,147,79,85,93,91
2025-02-27 15:43:32.192,-190.0,-929.0,359.0,-8.0,-1.0,-10.0,148,82,88,95,95
2025-02-27 15:43:32.196,-199.0,-933.0,350.0,-8.0,-2.0,-11.0,149,83,88,96,95
2025-02-27 15:43:32.200,-191.0,-933.0,362.0,-8.0,-2.0,-11.0,144,79,86,91,92
2025-02-27 15:43:32.208,-187.0,-947.0,345.0,-11.0,-2.0,-11.0,147,83,88,96,95
2025-02-27 15:43:32.212,-190.0,-955.0,321.0,-13.0,-2.0,-11.0,149,83,88,96,96
2025-02-27 15:43:32.217,-181.0,-961.0,309.0,-13.0,0.0,-11.0,146,80,86,92,93
2025-02-27 15:43:32.221,-177.0,-961.0,347.0,-13.0,-2.0,-11.0,148,81,87,95,94
2025-02-27 15:43:32.228,-179.0,-978.0,343.0,-14.0,-1.0,-11.0,148,81,87,94,95
2025-02-27 15:43:32.232,-178.0,-990.0,329.0,-12.0,-2.0,-10.0,148,81,85,93,93
2025-02-27 15:43:32.237,-188.0,-1000.0,342.0,-11.0,-2.0,-10.0,148,82,88,96,94
2025-02-27 15:43:32.242,-190.0,-1002.0,345.0,-10.0,-1.0,-8.0,145,81,87,92,93
2025-02-27 15:43:32.249,-180.0,-1019.0,340.0,-10.0,0.0,-7.0,145,79,85,91,92
2025-02-27 15:43:32.253,-183.0,-1019.0,354.0,-10.0,1.0,-7.0,149,83,88,95,95
2025-02-27 15:43:32.257,-173.0,-1023.0,349.0,-8.0,2.0,-6.0,149,82,88,96,95
2025-02-27 15:43:32.261,-179.0,-1029.0,354.0,-7.0,1.0,-5.0,146,78,85,91,94
2025-02-27 15:43:32.265,-175.0,-1025.0,344.0,-5.0,2.0,-4.0,147,81,89,96,94
2025-02-27 15:43:32.273,-171.0,-1026.0,357.0,-3.0,2.0,-3.0,143,83,88,96,95
2025-02-27 15:43:32.277,-171.0,-1022.0,352.0,-1.0,3.0,-2.0,145,80,85,92,92
2025-02-27 15:43:32.282,-174.0,-1016.0,342.0,2.0,4.0,-2.0,148,82,88,94,94
2025-02-27 15:43:32.286,-176.0,-1006.0,339.0,2.0,4.0,-1.0,147,80,86,94,94
2025-02-27 15:43:32.291,-182.0,-996.0,333.0,3.0,4.0,-1.0,146,76,87,94,92
2025-02-27 15:43:32.295,-182.0,-985.0,325.0,3.0,3.0,0.0,149,83,89,96,95
2025-02-27 15:43:32.298,-189.0,-972.0,321.0,3.0,3.0,0.0,154,81,88,95,93
2025-02-27 15:43:32.307,-186.0,-962.0,323.0,2.0,2.0,1.0,147,80,84,91,93
2025-02-27 15:43:32.311,-191.0,-956.0,323.0,2.0,2.0,1.0,149,83,89,97,96
2025-02-27 15:43:32.315,-192.0,-955.0,329.0,2.0,2.0,1.0,148,77,88,95,93
2025-02-27 15:43:32.319,-193.0,-955.0,332.0,1.0,2.0,0.0,144,79,86,91,92
2025-02-27 15:43:32.323,-191.0,-957.0,328.0,0.0,2.0,0.0,149,82,89,95,94
2025-02-27 15:43:32.327,-196.0,-955.0,329.0,0.0,1.0,0.0,148,83,88,95,94
2025-02-27 15:43:32.335,-193.0,-956.0,326.0,-2.0,1.0,-1.0,144,78,85,91,93
2025-02-27 15:43:32.339,-195.0,-959.0,332.0,-1.0,2.0,-1.0,148,81,88,95,91
2025-02-27 15:43:32.343,-195.0,-958.0,333.0,-1.0,1.0,-2.0,146,80,85,92,92
2025-02-27 15:43:32.347,-195.0,-958.0,324.0,-3.0,0.0,-1.0,147,80,88,94,94
2025-02-27 15:43:32.352,-193.0,-965.0,339.0,-3.0,0.0,-1.0,148,81,87,96,96
2025-02-27 15:43:32.359,-192.0,-979.0,339.0,-3.0,0.0,0.0,144,78,86,92,93
2025-02-27 15:43:32.363,-193.0,-975.0,337.0,-4.0,0.0,0.0,148,81,89,95,95
2025-02-27 15:43:32.368,-188.0,-975.0,345.0,-3.0,0.0,1.0,150,84,90,98,98
2025-02-27 15:43:32.372,-189.0,-975.0,342.0,-4.0,0.0,1.0,147,80,85,92,92
2025-02-27 15:43:32.376,-185.0,-980.0,345.0,-3.0,0.0,1.0,150,83,88,95,95
2025-02-27 15:43:32.384,-186.0,-970.0,347.0,-3.0,-1.0,2.0,146,79,86,93,94
2025-02-27 15:43:32.388,-188.0,-968.0,345.0,-3.0,-1.0,2.0,147,80,86,93,93
2025-02-27 15:43:32.392,-183.0,-965.0,345.0,-2.0,-1.0,2.0,149,83,88,96,96
2025-02-27 15:43:32.397,-183.0,-957.0,344.0,-1.0,-1.0,3.0,148,80,89,95,95
2025-02-27 15:43:32.401,-183.0,-976.0,352.0,0.0,0.0,3.0,147,79,85,93,93
2025-02-27 15:43:32.405,-185.0,-961.0,357.0,1.0,1.0,3.0,149,82,90,97,95
2025-02-27 15:43:32.413,-178.0,-955.0,350.0,2.0,2.0,3.0,147,81,88,95,90
2025-02-27 15:43:32.417,-181.0,-952.0,347.0,2.0,2.0,4.0,145,79,86,93,93
2025-02-27 15:43:32.421,-178.0,-954.0,349.0,2.0,2.0,3.0,149,83,89,95,95
2025-02-27 15:43:32.425,-192.0,-941.0,348.0,2.0,2.0,3.0,146,79,85,91,93
2025-02-27 15:43:32.429,-198.0,-935.0,336.0,4.0,1.0,3.0,143,79,86,95,92
2025-02-27 15:43:32.437,-199.0,-940.0,333.0,2.0,1.0,3.0,149,82,89,95,96
2025-02-27 15:43:32.442,-207.0,-928.0,328.0,2.0,1.0,3.0,147,80,84,92,92
2025-02-27 15:43:32.446,-212.0,-930.0,329.0,2.0,0.0,3.0,146,78,85,92,93
2025-02-27 15:43:32.450,-212.0,-932.0,323.0,1.0,-1.0,3.0,145,83,91,97,97
2025-02-27 15:43:32.454,-207.0,-934.0,329.0,1.0,-1.0,3.0,144,80,85,94,93
2025-02-27 15:43:32.462,-212.0,-931.0,329.0,0.0,-2.0,3.0,149,81,87,95,95
2025-02-27 15:43:32.466,-209.0,-930.0,333.0,0.0,-2.0,3.0,148,82,88,96,96
2025-02-27 15:43:32.470,-218.0,-924.0,332.0,0.0,-3.0,3.0,145,80,86,93,94
2025-02-27 15:43:32.474,-207.0,-923.0,337.0,1.0,-3.0,3.0,149,83,88,96,96
2025-02-27 15:43:32.479,-210.0,-920.0,340.0,1.0,-4.0,3.0,148,80,85,94,94
2025-02-27 15:43:32.487,-210.0,-905.0,338.0,1.0,-4.0,2.0,144,80,85,92,91
2025-02-27 15:43:32.491,-209.0,-907.0,333.0,2.0,-3.0,3.0,150,83,91,97,97
2025-02-27 15:43:32.495,-212.0,-901.0,333.0,2.0,-3.0,2.0,148,81,88,94,95
2025-02-27 15:43:32.500,-211.0,-897.0,340.0,3.0,-2.0,2.0,147,78,85,91,91
2025-02-27 15:43:32.504,-217.0,-902.0,331.0,3.0,-3.0,1.0,149,82,88,93,96
2025-02-27 15:43:32.511,-223.0,-903.0,333.0,3.0,-3.0,1.0,148,84,88,95,98
2025-02-27 15:43:32.515,-217.0,-900.0,336.0,3.0,-3.0,1.0,144,79,86,93,93
2025-02-27 15:43:32.519,-220.0,-901.0,334.0,4.0,-3.0,0.0,149,82,88,95,96
2025-02-27 15:43:32.524,-220.0,-898.0,340.0,2.0,-1.0,0.0,149,81,88,94,95
2025-02-27 15:43:32.528,-211.0,-896.0,335.0,3.0,-1.0,0.0,148,83,89,94,96
2025-02-27 15:43:32.536,-214.0,-896.0,341.0,3.0,-1.0,0.0,149,83,89,95,97
2025-02-27 15:43:32.540,-217.0,-896.0,345.0,2.0,-3.0,-1.0,146,80,85,93,93
2025-02-27 15:43:32.544,-222.0,-900.0,348.0,1.0,-4.0,-1.0,143,78,84,91,92
2025-02-27 15:43:32.548,-218.0,-909.0,350.0,3.0,-5.0,-1.0,151,84,91,99,99
2025-02-27 15:43:32.552,-217.0,-918.0,353.0,4.0,-5.0,-1.0,146,80,88,93,94
2025-02-27 15:43:32.560,-209.0,-915.0,335.0,3.0,-2.0,-2.0,147,79,85,92,92
2025-02-27 15:43:32.565,-202.0,-908.0,341.0,2.0,-1.0,-2.0,150,81,89,96,95
2025-02-27 15:43:32.569,-205.0,-913.0,353.0,1.0,-2.0,-2.0,148,82,88,97,96
2025-02-27 15:43:32.573,-207.0,-923.0,354.0,0.0,-4.0,-2.0,148,81,88,95,94
2025-02-27 15:43:32.577,-207.0,-921.0,358.0,1.0,-4.0,-2.0,148,81,89,95,95
2025-02-27 15:43:32.582,-209.0,-920.0,354.0,1.0,-4.0,-2.0,145,79,85,92,93
2025-02-27 15:43:32.589,-207.0,-924.0,343.0,1.0,-2.0,-2.0,148,82,88,96,95
2025-02-27 15:43:32.593,-207.0,-926.0,343.0,0.0,-2.0,-2.0,148,82,90,98,96
2025-02-27 15:43:32.597,-215.0,-931.0,345.0,0.0,-2.0,-2.0,147,80,85,93,93
2025-02-27 15:43:32.602,-218.0,-929.0,347.0,0.0,-3.0,-2.0,147,79,88,95,95
2025-02-27 15:43:32.607,-214.0,-938.0,349.0,0.0,-3.0,-2.0,147,80,87,93,95
2025-02-27 15:43:32.614,-216.0,-938.0,348.0,0.0,-3.0,-1.0,147,83,86,93,93
2025-02-27 15:43:32.619,-205.0,-941.0,354.0,1.0,-3.0,-1.0,149,82,88,97,96
2025-02-27 15:43:32.623,-202.0,-938.0,359.0,1.0,-2.0,-2.0,147,81,88,94,95
2025-02-27 15:43:32.627,-196.0,-943.0,370.0,2.0,-2.0,-2.0,145,80,85,96,93
2025-02-27 15:43:32.631,-199.0,-938.0,358.0,2.0,-3.0,-1.0,152,82,89,97,96
2025-02-27 15:43:32.638,-200.0,-932.0,363.0,3.0,-2.0,-2.0,149,82,88,96,95
2025-02-27 15:43:32.643,-211.0,-920.0,359.0,3.0,-2.0,-2.0,146,80,86,93,94
2025-02-27 15:43:32.648,-207.0,-928.0,352.0,2.0,-1.0,-3.0,149,82,88,96,95
2025-02-27 15:43:32.651,-201.0,-925.0,355.0,2.0,-1.0,-3.0,152,83,90,97,96
2025-02-27 15:43:32.655,-203.0,-927.0,354.0,0.0,-2.0,-3.0,146,78,86,91,93
2025-02-27 15:43:32.662,-200.0,-928.0,361.0,0.0,-2.0,-3.0,147,82,88,92,95
2025-02-27 15:43:32.666,-205.0,-937.0,357.0,0.0,-2.0,-3.0,145,79,87,93,94
2025-02-27 15:43:32.671,-206.0,-939.0,353.0,0.0,-1.0,-3.0,147,79,85,91,93
2025-02-27 15:43:32.675,-199.0,-945.0,351.0,-1.0,0.0,-3.0,148,82,90,96,96
2025-02-27 15:43:32.679,-202.0,-947.0,356.0,-1.0,0.0,-3.0,144,78,85,92,93
2025-02-27 15:43:32.687,-204.0,-948.0,360.0,-1.0,-1.0,-2.0,148,82,87,94,95
2025-02-27 15:43:32.691,-212.0,-956.0,358.0,-1.0,-1.0,-2.0,149,83,91,98,97
2025-02-27 15:43:32.695,-208.0,-959.0,353.0,-2.0,-1.0,-1.0,146,79,86,92,94
2025-02-27 15:43:32.699,-217.0,-961.0,353.0,-2.0,-1.0,-1.0,147,81,88,95,96
2025-02-27 15:43:32.704,-217.0,-959.0,356.0,-2.0,-1.0,-1.0,148,83,88,94,95
2025-02-27 15:43:32.712,-213.0,-960.0,354.0,-1.0,-1.0,0.0,148,79,88,94,94
2025-02-27 15:43:32.716,-213.0,-963.0,359.0,-1.0,-1.0,0.0,147,83,89,96,97
2025-02-27 15:43:32.720,-219.0,-959.0,357.0,-1.0,-1.0,0.0,148,80,87,93,94
2025-02-27 15:43:32.724,-217.0,-952.0,358.0,-1.0,-1.0,1.0,145,78,85,92,92
2025-02-27 15:43:32.728,-207.0,-952.0,361.0,-1.0,-1.0,1.0,150,84,91,98,98
2025-02-27 15:43:32.733,-202.0,-944.0,365.0,0.0,0.0,1.0,148,81,88,95,95
2025-02-27 15:43:32.740,-204.0,-937.0,369.0,0.0,0.0,1.0,144,79,86,92,93
2025-02-27 15:43:32.744,-199.0,-936.0,365.0,0.0,0.0,1.0,149,83,88,96,95
2025-02-27 15:43:32.749,-203.0,-927.0,357.0,0.0,1.0,0.0,150,82,89,95,96
2025-02-27 15:43:32.753,-198.0,-927.0,364.0,0.0,0.0,0.0,145,78,87,92,92
2025-02-27 15:43:32.757,-196.0,-921.0,365.0,0.0,1.0,0.0,148,81,89,92,95
2025-02-27 15:43:32.765,-190.0,-913.0,359.0,0.0,2.0,-1.0,145,79,86,93,93
2025-02-27 15:43:32.769,-190.0,-909.0,356.0,-2.0,2.0,-1.0,149,82,88,96,96
2025-02-27 15:43:32.773,-195.0,-905.0,358.0,-2.0,2.0,-1.0,148,83,89,96,96
2025-02-27 15:43:32.778,-200.0,-915.0,355.0,-4.0,1.0,-2.0,147,79,85,93,94
2025-02-27 15:43:32.782,-198.0,-919.0,357.0,-5.0,1.0,-2.0,147,81,89,95,96
2025-02-27 15:43:32.790,-192.0,-921.0,358.0,-5.0,1.0,-2.0,148,82,87,95,95
2025-02-27 15:43:32.793,-196.0,-926.0,350.0,-4.0,1.0,-1.0,146,80,85,92,93
2025-02-27 15:43:32.804,-188.0,-929.0,358.0,-4.0,1.0,-1.0,146,78,88,98,96
2025-02-27 15:43:32.806,-187.0,-931.0,351.0,-4.0,2.0,-1.0,147,82,87,94,94
2025-02-27 15:43:32.808,-187.0,-924.0,351.0,-4.0,2.0,-1.0,145,79,85,93,92
2025-02-27 15:43:32.810,-192.0,-928.0,343.0,-4.0,1.0,-1.0,148,83,90,96,96
2025-02-27 15:43:32.819,-193.0,-922.0,342.0,-4.0,1.0,-2.0,147,81,87,94,95
2025-02-27 15:43:32.823,-192.0,-922.0,371.0,-3.0,2.0,-2.0,146,79,85,91,96
2025-02-27 15:43:32.827,-199.0,-919.0,329.0,-3.0,0.0,-2.0,150,81,89,96,96
2025-02-27 15:43:32.831,-201.0,-907.0,327.0,-2.0,0.0,-2.0,147,84,88,95,96
2025-02-27 15:43:32.836,-207.0,-910.0,321.0,-1.0,0.0,-2.0,148,81,88,94,95
2025-02-27 15:43:32.842,-198.0,-908.0,322.0,-1.0,0.0,-2.0,148,82,87,98,95
2025-02-27 15:43:32.847,-196.0,-908.0,315.0,0.0,0.0,-2.0,147,80,87,94,94
2025-02-27 15:43:32.851,-199.0,-905.0,323.0,0.0,0.0,-3.0,140,79,86,92,93
2025-02-27 15:43:32.855,-195.0,-907.0,316.0,1.0,-1.0,-3.0,149,81,88,95,96
2025-02-27 15:43:32.859,-204.0,-901.0,320.0,1.0,-1.0,-4.0,147,80,85,92,93
2025-02-27 15:43:32.868,-204.0,-896.0,318.0,2.0,-2.0,-4.0,147,80,87,92,94
2025-02-27 15:43:32.872,-203.0,-902.0,322.0,2.0,-3.0,-4.0,151,84,89,96,97
2025-02-27 15:43:32.876,-207.0,-897.0,321.0,2.0,-3.0,-5.0,146,80,85,95,93
2025-02-27 15:43:32.880,-207.0,-902.0,323.0,2.0,-3.0,-5.0,148,81,88,94,95
2025-02-27 15:43:32.885,-209.0,-895.0,326.0,0.0,-4.0,-5.0,149,84,88,94,96
2025-02-27 15:43:32.892,-211.0,-907.0,331.0,2.0,-3.0,-6.0,148,81,88,94,94
2025-02-27 15:43:32.896,-200.0,-896.0,333.0,1.0,-4.0,-6.0,149,82,90,97,96
2025-02-27 15:43:32.900,-197.0,-896.0,331.0,0.0,-5.0,-7.0,148,82,88,96,95
2025-02-27 15:43:32.904,-203.0,-902.0,352.0,1.0,-6.0,-6.0,146,79,85,92,93
2025-02-27 15:43:32.909,-213.0,-937.0,358.0,2.0,-7.0,-6.0,151,83,91,98,98
2025-02-27 15:43:32.916,-205.0,-911.0,349.0,4.0,-7.0,-5.0,149,80,88,95,96
2025-02-27 15:43:32.921,-189.0,-916.0,341.0,5.0,-4.0,-6.0,146,79,84,91,92
2025-02-27 15:43:32.925,-179.0,-905.0,362.0,5.0,-4.0,-7.0,147,81,88,95,96
2025-02-27 15:43:32.929,-192.0,-904.0,367.0,6.0,-4.0,-8.0,150,83,90,98,98
2025-02-27 15:43:32.934,-186.0,-883.0,367.0,6.0,-4.0,-8.0,146,80,87,91,93
2025-02-27 15:43:32.941,-184.0,-888.0,364.0,4.0,-5.0,-8.0,148,81,88,95,94
2025-02-27 15:43:32.945,-182.0,-887.0,366.0,4.0,-4.0,-9.0,148,79,87,94,95
2025-02-27 15:43:32.949,-190.0,-894.0,363.0,3.0,-4.0,-9.0,148,79,87,97,96
2025-02-27 15:43:32.954,-192.0,-901.0,355.0,3.0,-3.0,-10.0,149,82,89,96,96
2025-02-27 15:43:32.958,-195.0,-907.0,357.0,3.0,-4.0,-10.0,148,82,86,94,94
2025-02-27 15:43:32.966,-190.0,-910.0,352.0,3.0,-3.0,-11.0,147,79,85,93,94
2025-02-27 15:43:32.970,-186.0,-909.0,339.0,0.0,-2.0,-11.0,151,82,90,98,98
2025-02-27 15:43:32.974,-179.0,-917.0,341.0,2.0,-3.0,-11.0,150,84,88,96,95
2025-02-27 15:43:32.978,-183.0,-925.0,357.0,-1.0,-3.0,-12.0,146,80,86,93,94
2025-02-27 15:43:32.983,-174.0,-922.0,388.0,1.0,-3.0,-11.0,148,81,87,94,97
2025-02-27 15:43:32.990,-182.0,-938.0,378.0,2.0,-3.0,-11.0,148,81,89,95,96
2025-02-27 15:43:32.995,-178.0,-949.0,363.0,0.0,-3.0,-11.0,148,80,86,94,94
2025-02-27 15:43:32.999,-187.0,-961.0,373.0,2.0,-3.0,-11.0,148,82,88,95,96
2025-02-27 15:43:33.003,-187.0,-969.0,373.0,3.0,-4.0,-9.0,148,82,88,94,96
2025-02-27 15:43:33.007,-191.0,-981.0,370.0,5.0,-3.0,-9.0,148,76,86,95,94
2025-02-27 15:43:33.014,-186.0,-980.0,357.0,3.0,-2.0,-9.0,147,83,89,95,96
2025-02-27 15:43:33.019,-181.0,-991.0,359.0,2.0,-2.0,-8.0,148,80,90,94,95
2025-02-27 15:43:33.024,-187.0,-990.0,379.0,1.0,-2.0,-7.0,144,79,84,91,93
2025-02-27 15:43:33.028,-188.0,-1002.0,371.0,0.0,-3.0,-6.0,150,82,88,94,95
2025-02-27 15:43:33.032,-196.0,-1016.0,371.0,1.0,-3.0,-5.0,148,80,87,95,94
2025-02-27 15:43:33.040,-194.0,-1017.0,371.0,1.0,-2.0,-4.0,144,78,85,93,93
2025-02-27 15:43:33.043,-195.0,-1020.0,374.0,2.0,-2.0,-4.0,153,82,89,94,95
2025-02-27 15:43:33.048,-201.0,-1024.0,372.0,2.0,-1.0,-3.0,145,77,85,94,95
2025-02-27 15:43:33.052,-199.0,-1023.0,373.0,2.0,-2.0,-3.0,149,79,85,92,93
2025-02-27 15:43:33.057,-194.0,-1024.0,378.0,1.0,-2.0,-1.0,148,82,89,94,96
2025-02-27 15:43:33.060,-192.0,-1024.0,386.0,1.0,-2.0,0.0,147,80,85,88,93
2025-02-27 15:43:33.068,-187.0,-1022.0,388.0,1.0,-1.0,1.0,146,80,85,93,92
2025-02-27 15:43:33.072,-179.0,-1023.0,392.0,0.0,0.0,2.0,150,82,88,97,97
2025-02-27 15:43:33.076,-172.0,-1023.0,399.0,0.0,0.0,2.0,147,80,86,94,95
2025-02-27 15:43:33.081,-164.0,-1019.0,398.0,-1.0,1.0,2.0,148,81,89,96,95
2025-02-27 15:43:33.085,-163.0,-1014.0,404.0,-2.0,1.0,3.0,149,81,88,95,96
2025-02-27 15:43:33.093,-168.0,-1010.0,400.0,-2.0,1.0,4.0,148,80,87,94,94
2025-02-27 15:43:33.097,-173.0,-1012.0,398.0,-4.0,3.0,4.0,150,82,89,96,97
2025-02-27 15:43:33.102,-171.0,-1009.0,393.0,-5.0,4.0,5.0,147,82,88,95,95
2025-02-27 15:43:33.106,-169.0,-1006.0,390.0,-6.0,4.0,5.0,145,78,83,92,93
2025-02-27 15:43:33.110,-179.0,-1006.0,386.0,-8.0,3.0,5.0,150,83,91,98,97
2025-02-27 15:43:33.117,-178.0,-1007.0,386.0,-9.0,3.0,6.0,148,83,89,95,95
2025-02-27 15:43:33.121,-172.0,-1007.0,378.0,-10.0,3.0,6.0,145,78,80,92,94
2025-02-27 15:43:33.126,-176.0,-1006.0,374.0,-11.0,4.0,7.0,149,82,88,96,96
2025-02-27 15:43:33.130,-173.0,-1012.0,372.0,-12.0,5.0,7.0,149,83,91,96,97
2025-02-27 15:43:33.134,-178.0,-1010.0,369.0,-13.0,5.0,9.0,149,80,85,93,93
2025-02-27 15:43:33.142,-175.0,-1016.0,382.0,-12.0,5.0,9.0,149,81,88,96,96
2025-02-27 15:43:33.146,-172.0,-1017.0,370.0,-13.0,3.0,10.0,147,78,87,95,95
2025-02-27 15:43:33.150,-181.0,-1015.0,364.0,-13.0,4.0,12.0,147,82,88,95,95
2025-02-27 15:43:33.154,-181.0,-1005.0,349.0,-12.0,4.0,12.0,149,83,89,96,96
2025-02-27 15:43:33.159,-176.0,-988.0,356.0,-12.0,4.0,12.0,147,82,88,94,95
2025-02-27 15:43:33.167,-179.0,-972.0,338.0,-12.0,5.0,13.0,148,78,85,92,93
2025-02-27 15:43:33.171,-183.0,-967.0,349.0,-11.0,6.0,13.0,155,86,90,98,99
2025-02-27 15:43:33.175,-192.0,-960.0,334.0,-12.0,6.0,14.0,148,84,88,96,96
2025-02-27 15:43:33.179,-189.0,-951.0,339.0,-13.0,6.0,14.0,146,79,84,92,93
2025-02-27 15:43:33.187,-190.0,-956.0,339.0,-12.0,5.0,14.0,149,83,89,95,96
2025-02-27 15:43:33.192,-196.0,-958.0,347.0,-11.0,4.0,13.0,152,84,91,98,99
2025-02-27 15:43:33.195,-195.0,-934.0,328.0,-11.0,4.0,13.0,147,77,88,94,94
2025-02-27 15:43:33.199,-191.0,-942.0,341.0,-9.0,5.0,13.0,148,83,89,95,96
2025-02-27 15:43:33.204,-188.0,-933.0,330.0,-9.0,6.0,13.0,147,81,88,96,96
2025-02-27 15:43:33.211,-192.0,-914.0,398.0,-10.0,6.0,13.0,148,81,89,96,96
2025-02-27 15:43:33.216,-157.0,-970.0,474.0,-14.0,11.0,14.0,149,83,90,96,97
2025-02-27 15:43:33.220,-249.0,-926.0,334.0,-9.0,7.0,15.0,150,82,89,96,97
2025-02-27 15:43:33.224,-160.0,-916.0,473.0,-10.0,2.0,10.0,146,79,84,93,94
2025-02-27 15:43:33.228,-222.0,-915.0,456.0,-20.0,-2.0,10.0,149,82,88,97,97
2025-02-27 15:43:33.236,-243.0,-870.0,266.0,-5.0,3.0,10.0,149,82,90,97,97
2025-02-27 15:43:33.240,-169.0,-874.0,439.0,-10.0,6.0,12.0,146,80,85,94,94
2025-02-27 15:43:33.245,-201.0,-847.0,335.0,-14.0,4.0,11.0,149,82,87,96,95
2025-02-27 15:43:33.249,-211.0,-880.0,328.0,-10.0,4.0,8.0,148,81,90,96,97
2025-02-27 15:43:33.253,-208.0,-852.0,330.0,-6.0,4.0,7.0,146,78,87,94,95
2025-02-27 15:43:33.260,-192.0,-884.0,331.0,-13.0,2.0,8.0,148,83,90,96,96
2025-02-27 15:43:33.265,-203.0,-864.0,347.0,-7.0,3.0,9.0,149,82,88,96,96
2025-02-27 15:43:33.269,-205.0,-873.0,319.0,-9.0,3.0,7.0,143,80,87,95,94
2025-02-27 15:43:33.274,-205.0,-881.0,293.0,-10.0,4.0,7.0,149,82,90,97,97
2025-02-27 15:43:33.278,-202.0,-875.0,336.0,-7.0,2.0,6.0,149,82,90,96,97
2025-02-27 15:43:33.285,-212.0,-859.0,335.0,-8.0,1.0,6.0,145,81,85,93,92
2025-02-27 15:43:33.290,-216.0,-857.0,313.0,-7.0,0.0,6.0,148,83,89,96,96
2025-02-27 15:43:33.294,-204.0,-856.0,314.0,-5.0,1.0,5.0,146,82,88,94,95
2025-02-27 15:43:33.298,-208.0,-851.0,297.0,-6.0,0.0,3.0,147,80,86,94,94
2025-02-27 15:43:33.302,-210.0,-863.0,294.0,-8.0,1.0,3.0,150,82,88,95,97
2025-02-27 15:43:33.307,-212.0,-849.0,315.0,-5.0,-1.0,2.0,149,80,88,94,95
2025-02-27 15:43:33.314,-220.0,-852.0,312.0,-2.0,0.0,2.0,149,81,86,95,96
2025-02-27 15:43:33.318,-204.0,-854.0,309.0,-2.0,1.0,1.0,148,83,89,96,96
2025-02-27 15:43:33.322,-201.0,-857.0,302.0,-2.0,1.0,0.0,146,81,88,97,95
2025-02-27 15:43:33.327,-210.0,-855.0,305.0,-2.0,1.0,0.0,146,79,85,93,93
2025-02-27 15:43:33.331,-212.0,-848.0,311.0,1.0,-1.0,-1.0,150,83,90,97,97
2025-02-27 15:43:33.339,-217.0,-857.0,311.0,1.0,-1.0,-1.0,147,80,87,94,94
2025-02-27 15:43:33.343,-212.0,-864.0,299.0,1.0,-1.0,-2.0,145,78,84,94,93
2025-02-27 15:43:33.347,-218.0,-856.0,298.0,1.0,-1.0,-3.0,148,82,89,95,94
2025-02-27 15:43:33.351,-215.0,-859.0,301.0,2.0,-1.0,-3.0,148,81,87,94,95
2025-02-27 15:43:33.355,-212.0,-857.0,311.0,3.0,-2.0,-4.0,145,79,85,92,93
2025-02-27 15:43:33.363,-214.0,-864.0,312.0,4.0,-3.0,-5.0,146,82,88,95,96
2025-02-27 15:43:33.367,-206.0,-857.0,307.0,4.0,-3.0,-6.0,148,79,86,94,93
2025-02-27 15:43:33.371,-208.0,-861.0,310.0,3.0,-3.0,-7.0,147,81,88,92,96
2025-02-27 15:43:33.375,-204.0,-867.0,314.0,1.0,-2.0,-7.0,150,83,89,97,97
2025-02-27 15:43:33.381,-207.0,-873.0,314.0,1.0,-3.0,-7.0,146,78,86,93,94
2025-02-27 15:43:33.388,-216.0,-880.0,321.0,4.0,-5.0,-8.0,149,81,88,94,95
2025-02-27 15:43:33.392,-214.0,-888.0,316.0,6.0,-5.0,-8.0,151,85,91,99,99
2025-02-27 15:43:33.396,-215.0,-891.0,304.0,6.0,-4.0,-9.0,146,81,86,96,93
2025-02-27 15:43:33.401,-204.0,-898.0,300.0,6.0,-1.0,-10.0,148,83,90,95,96
2025-02-27 15:43:33.405,-212.0,-888.0,299.0,4.0,-2.0,-10.0,148,82,89,94,96
2025-02-27 15:43:33.412,-218.0,-917.0,317.0,4.0,-3.0,-10.0,150,85,89,97,97
2025-02-27 15:43:33.417,-227.0,-916.0,320.0,5.0,-6.0,-10.0,149,83,89,97,97
2025-02-27 15:43:33.421,-220.0,-929.0,327.0,6.0,-6.0,-10.0,148,82,89,95,96
2025-02-27 15:43:33.425,-210.0,-916.0,293.0,5.0,-6.0,-11.0,144,79,86,93,93
2025-02-27 15:43:33.429,-210.0,-921.0,311.0,9.0,-3.0,-11.0,151,85,91,98,99
2025-02-27 15:43:33.437,-218.0,-922.0,307.0,7.0,-3.0,-11.0,148,82,90,97,98
2025-02-27 15:43:33.441,-219.0,-927.0,326.0,6.0,-4.0,-11.0,147,79,85,93,94
2025-02-27 15:43:33.446,-219.0,-937.0,333.0,7.0,-7.0,-11.0,148,81,88,95,96
2025-02-27 15:43:33.450,-211.0,-943.0,327.0,6.0,-7.0,-11.0,149,85,91,99,98
2025-02-27 15:43:33.454,-206.0,-954.0,334.0,7.0,-6.0,-11.0,147,82,87,94,94
2025-02-27 15:43:33.462,-191.0,-956.0,336.0,5.0,-4.0,-11.0,149,82,88,95,95
2025-02-27 15:43:33.466,-194.0,-963.0,335.0,5.0,-3.0,-11.0,147,82,87,96,96
2025-02-27 15:43:33.469,-197.0,-976.0,349.0,4.0,-4.0,-10.0,147,79,86,94,92
2025-02-27 15:43:33.474,-201.0,-980.0,352.0,4.0,-5.0,-9.0,147,82,89,97,97
2025-02-27 15:43:33.479,-195.0,-987.0,365.0,4.0,-5.0,-8.0,148,83,90,96,96
2025-02-27 15:43:33.485,-197.0,-992.0,345.0,2.0,-4.0,-8.0,149,78,85,92,93
2025-02-27 15:43:33.491,-192.0,-1007.0,369.0,2.0,-2.0,-8.0,149,86,89,96,96
2025-02-27 15:43:33.495,-189.0,-1011.0,348.0,0.0,-2.0,-7.0,148,82,88,96,96
2025-02-27 15:43:33.499,-188.0,-1024.0,382.0,-1.0,-3.0,-6.0,147,79,86,93,94
2025-02-27 15:43:33.504,-206.0,-1021.0,379.0,-3.0,-4.0,-5.0,149,81,89,95,95
2025-02-27 15:43:33.511,-190.0,-1029.0,361.0,-3.0,-3.0,-4.0,147,81,88,94,95
2025-02-27 15:43:33.515,-196.0,-1037.0,370.0,-4.0,-3.0,-3.0,149,79,86,94,94
2025-02-27 15:43:33.520,-190.0,-1042.0,371.0,-3.0,-1.0,-2.0,149,82,88,97,96
2025-02-27 15:43:33.523,-190.0,-1039.0,368.0,-4.0,-1.0,-1.0,151,81,88,96,95
2025-02-27 15:43:33.531,-184.0,-1042.0,374.0,-3.0,-1.0,0.0,145,79,85,93,93
2025-02-27 15:43:33.535,-198.0,-1043.0,376.0,-2.0,-1.0,1.0,149,86,91,96,97
2025-02-27 15:43:33.539,-202.0,-1042.0,365.0,-2.0,0.0,3.0,149,81,88,95,95
2025-02-27 15:43:33.543,-200.0,-1026.0,358.0,-2.0,0.0,4.0,146,79,85,92,93
2025-02-27 15:43:33.548,-209.0,-1019.0,354.0,-3.0,0.0,4.0,150,80,87,96,97
2025-02-27 15:43:33.552,-211.0,-1001.0,358.0,-3.0,0.0,4.0,147,81,89,92,96
2025-02-27 15:43:33.559,-215.0,-1002.0,354.0,-3.0,0.0,4.0,146,80,85,93,93
2025-02-27 15:43:33.564,-209.0,-989.0,354.0,-3.0,0.0,5.0,148,83,88,96,97
2025-02-27 15:43:33.568,-211.0,-985.0,358.0,-4.0,1.0,5.0,147,79,86,93,94
2025-02-27 15:43:33.572,-209.0,-982.0,354.0,-5.0,1.0,5.0,147,81,88,95,96
2025-02-27 15:43:33.576,-209.0,-980.0,352.0,-6.0,2.0,6.0,150,82,89,96,98
2025-02-27 15:43:33.580,-209.0,-975.0,353.0,-6.0,1.0,6.0,145,80,87,93,94
2025-02-27 15:43:33.588,-213.0,-980.0,353.0,-7.0,1.0,6.0,148,81,88,93,95
2025-02-27 15:43:33.592,-217.0,-975.0,355.0,-7.0,1.0,7.0,151,85,91,98,98
2025-02-27 15:43:33.597,-209.0,-968.0,354.0,-7.0,1.0,8.0,148,80,86,94,95
2025-02-27 15:43:33.601,-215.0,-971.0,350.0,-7.0,1.0,8.0,149,82,88,96,96
2025-02-27 15:43:33.606,-206.0,-961.0,352.0,-7.0,2.0,8.0,148,82,89,96,97
2025-02-27 15:43:33.613,-212.0,-952.0,357.0,-6.0,3.0,8.0,148,82,89,95,96
2025-02-27 15:43:33.617,-216.0,-950.0,353.0,-7.0,3.0,8.0,150,83,90,97,97
2025-02-27 15:43:33.622,-217.0,-939.0,352.0,-7.0,2.0,8.0,149,81,88,95,96
2025-02-27 15:43:33.626,-220.0,-931.0,349.0,-7.0,2.0,8.0,145,79,85,94,93
2025-02-27 15:43:33.630,-223.0,-928.0,346.0,-7.0,3.0,8.0,151,85,91,99,100
2025-02-27 15:43:33.637,-220.0,-927.0,352.0,-6.0,2.0,8.0,150,83,88,97,95
2025-02-27 15:43:33.642,-224.0,-921.0,345.0,-7.0,2.0,7.0,145,78,85,93,93
2025-02-27 15:43:33.646,-222.0,-922.0,344.0,-7.0,2.0,7.0,149,84,88,96,96
2025-02-27 15:43:33.650,-223.0,-914.0,339.0,-6.0,3.0,7.0,151,84,91,98,98
2025-02-27 15:43:33.654,-218.0,-908.0,337.0,-6.0,3.0,7.0,146,79,86,93,94
2025-02-27 15:43:33.662,-220.0,-907.0,338.0,-6.0,2.0,6.0,147,82,89,97,97
2025-02-27 15:43:33.666,-224.0,-898.0,329.0,-5.0,2.0,6.0,147,81,87,95,95
2025-02-27 15:43:33.671,-220.0,-892.0,328.0,-5.0,2.0,5.0,147,80,86,93,94
2025-02-27 15:43:33.675,-218.0,-887.0,334.0,-5.0,2.0,5.0,149,82,89,95,98
2025-02-27 15:43:33.679,-215.0,-882.0,329.0,-4.0,2.0,4.0,149,82,88,95,96
2025-02-27 15:43:33.687,-215.0,-877.0,325.0,-4.0,1.0,4.0,146,79,86,94,94
2025-02-27 15:43:33.691,-212.0,-873.0,330.0,-3.0,1.0,3.0,149,82,88,97,97
2025-02-27 15:43:33.695,-213.0,-863.0,317.0,-3.0,0.0,2.0,149,83,90,96,96
2025-02-27 15:43:33.699,-212.0,-855.0,312.0,-3.0,0.0,2.0,147,80,86,94,95
2025-02-27 15:43:33.703,-208.0,-850.0,307.0,-2.0,0.0,1.0,148,82,90,96,97
2025-02-27 15:43:33.711,-214.0,-849.0,304.0,-2.0,0.0,0.0,147,79,87,95,96
2025-02-27 15:43:33.716,-217.0,-845.0,302.0,-1.0,-1.0,0.0,152,81,89,94,95
2025-02-27 15:43:33.720,-220.0,-840.0,300.0,0.0,-1.0,-1.0,149,83,90,97,97
2025-02-27 15:43:33.724,-214.0,-834.0,297.0,0.0,-1.0,-3.0,147,79,91,92,94
2025-02-27 15:43:33.728,-220.0,-833.0,294.0,1.0,-2.0,-3.0,149,82,87,95,101
2025-02-27 15:43:33.736,-218.0,-828.0,291.0,1.0,-3.0,-4.0,150,83,89,97,99
2025-02-27 15:43:33.740,-222.0,-828.0,296.0,3.0,-3.0,-6.0,147,80,86,94,94
2025-02-27 15:43:33.744,-219.0,-824.0,282.0,4.0,-3.0,-7.0,148,82,86,95,96
2025-02-27 15:43:33.748,-216.0,-826.0,288.0,4.0,-3.0,-8.0,148,81,86,95,96
2025-02-27 15:43:33.753,-222.0,-832.0,283.0,5.0,-4.0,-10.0,148,81,86,93,97
2025-02-27 15:43:33.760,-224.0,-840.0,282.0,6.0,-5.0,-10.0,149,82,87,94,97
2025-02-27 15:43:33.765,-232.0,-834.0,279.0,7.0,-6.0,-11.0,151,81,88,95,95
2025-02-27 15:43:33.769,-232.0,-830.0,277.0,8.0,-6.0,-12.0,145,79,85,93,95
2025-02-27 15:43:33.773,-241.0,-834.0,276.0,9.0,-8.0,-13.0,151,83,91,97,98
2025-02-27 15:43:33.777,-235.0,-837.0,281.0,10.0,-9.0,-15.0,150,80,88,96,97
2025-02-27 15:43:33.785,-235.0,-835.0,281.0,11.0,-10.0,-17.0,145,79,87,93,93
2025-02-27 15:43:33.789,-235.0,-833.0,298.0,12.0,-11.0,-17.0,148,82,87,96,96
2025-02-27 15:43:33.794,-235.0,-839.0,278.0,13.0,-12.0,-19.0,149,83,90,97,98
2025-02-27 15:43:33.798,-225.0,-847.0,292.0,13.0,-12.0,-20.0,145,79,87,95,95
2025-02-27 15:43:33.805,-228.0,-848.0,308.0,13.0,-13.0,-21.0,149,81,88,95,95
2025-02-27 15:43:33.810,-217.0,-850.0,316.0,13.0,-13.0,-22.0,148,81,89,97,96
2025-02-27 15:43:33.814,-213.0,-872.0,317.0,12.0,-13.0,-23.0,148,81,89,96,96
2025-02-27 15:43:33.818,-203.0,-886.0,324.0,10.0,-14.0,-25.0,146,82,87,97,97
2025-02-27 15:43:33.823,-193.0,-902.0,356.0,6.0,-17.0,-28.0,149,83,89,96,96
2025-02-27 15:43:33.830,-196.0,-895.0,361.0,10.0,-17.0,-32.0,146,79,86,89,94
2025-02-27 15:43:33.834,-189.0,-918.0,393.0,18.0,-15.0,-33.0,149,80,87,94,95
2025-02-27 15:43:33.839,-156.0,-920.0,349.0,13.0,-11.0,-32.0,149,82,90,96,97
2025-02-27 15:43:33.843,-166.0,-958.0,305.0,5.0,-12.0,-30.0,146,80,85,92,93
2025-02-27 15:43:33.851,-162.0,-969.0,350.0,7.0,-12.0,-28.0,143,78,84,92,93
2025-02-27 15:43:33.855,-151.0,-995.0,429.0,3.0,-13.0,-24.0,150,84,91,97,98
2025-02-27 15:43:33.859,-168.0,-1029.0,413.0,6.0,-13.0,-22.0,147,78,87,94,95
2025-02-27 15:43:33.863,-166.0,-1027.0,437.0,0.0,-14.0,-21.0,146,78,81,90,92
2025-02-27 15:43:33.868,-166.0,-1036.0,413.0,4.0,-8.0,-20.0,148,82,89,93,96
2025-02-27 15:43:33.875,-157.0,-1030.0,371.0,-2.0,-7.0,-18.0,149,83,88,96,96
2025-02-27 15:43:33.879,-147.0,-1052.0,412.0,3.0,-6.0,-18.0,143,78,86,94,93
2025-02-27 15:43:33.884,-140.0,-1051.0,436.0,1.0,-9.0,-16.0,148,84,88,96,97
2025-02-27 15:43:33.888,-139.0,-1093.0,435.0,2.0,-7.0,-14.0,147,80,85,93,95
2025-02-27 15:43:33.896,-132.0,-1089.0,446.0,3.0,-6.0,-13.0,149,82,89,94,95
2025-02-27 15:43:33.900,-122.0,-1097.0,421.0,3.0,-2.0,-11.0,150,82,89,95,97
2025-02-27 15:43:33.904,-103.0,-1124.0,435.0,3.0,1.0,-9.0,147,82,86,94,95
2025-02-27 15:43:33.908,-108.0,-1129.0,427.0,-4.0,1.0,-8.0,144,78,86,94,94
2025-02-27 15:43:33.913,-116.0,-1150.0,460.0,-5.0,1.0,-4.0,151,84,92,99,99
2025-02-27 15:43:33.920,-111.0,-1152.0,462.0,-4.0,1.0,-1.0,148,81,86,93,95
2025-02-27 15:43:33.924,-124.0,-1156.0,447.0,-6.0,2.0,0.0,145,80,85,93,92
2025-02-27 15:43:33.929,-115.0,-1159.0,424.0,-7.0,4.0,3.0,149,82,88,96,96
2025-02-27 15:43:33.933,-130.0,-1162.0,429.0,-9.0,4.0,7.0,150,83,90,97,97
2025-02-27 15:43:33.937,-134.0,-1161.0,424.0,-11.0,4.0,8.0,148,80,86,92,94
2025-02-27 15:43:33.941,-140.0,-1151.0,423.0,-11.0,4.0,11.0,150,83,89,97,97
2025-02-27 15:43:33.948,-142.0,-1129.0,407.0,-13.0,4.0,14.0,146,80,85,93,94
2025-02-27 15:43:33.953,-146.0,-1119.0,394.0,-15.0,6.0,16.0,148,81,88,96,96
2025-02-27 15:43:33.957,-150.0,-1104.0,397.0,-15.0,8.0,18.0,149,83,93,97,97
2025-02-27 15:43:33.962,-146.0,-1100.0,393.0,-16.0,9.0,20.0,146,81,87,94,95
2025-02-27 15:43:33.969,-146.0,-1089.0,386.0,-18.0,9.0,20.0,143,78,85,92,94
2025-02-27 15:43:33.973,-153.0,-1080.0,383.0,-20.0,9.0,21.0,149,84,89,92,96
2025-02-27 15:43:33.977,-163.0,-1071.0,375.0,-20.0,10.0,23.0,147,79,87,94,96
2025-02-27 15:43:33.982,-170.0,-1064.0,375.0,-21.0,10.0,24.0,146,79,86,93,94
2025-02-27 15:43:33.986,-168.0,-1053.0,363.0,-24.0,11.0,26.0,151,82,89,97,97
2025-02-27 15:43:33.993,-167.0,-1048.0,367.0,-24.0,13.0,27.0,147,80,87,95,95
2025-02-27 15:43:33.998,-171.0,-1049.0,366.0,-26.0,14.0,28.0,147,80,87,95,95
2025-02-27 15:43:34.002,-173.0,-1048.0,371.0,-26.0,14.0,29.0,148,83,90,96,97
2025-02-27 15:43:34.007,-180.0,-1042.0,366.0,-27.0,16.0,31.0,148,81,87,95,96
2025-02-27 15:43:34.015,-173.0,-1027.0,355.0,-26.0,16.0,31.0,145,79,87,93,94
2025-02-27 15:43:34.019,-175.0,-1023.0,375.0,-26.0,17.0,32.0,151,85,91,97,97
2025-02-27 15:43:34.023,-164.0,-1009.0,354.0,-26.0,19.0,33.0,148,79,88,95,96
2025-02-27 15:43:34.027,-166.0,-988.0,349.0,-27.0,19.0,35.0,146,78,85,93,93
2025-02-27 15:43:34.035,-170.0,-988.0,353.0,-26.0,21.0,35.0,150,83,89,95,97
2025-02-27 15:43:34.039,-168.0,-973.0,362.0,-26.0,22.0,36.0,147,82,89,96,97
2025-02-27 15:43:34.043,-168.0,-954.0,342.0,-27.0,23.0,36.0,147,79,87,93,94
2025-02-27 15:43:34.047,-178.0,-952.0,333.0,-28.0,23.0,36.0,148,80,89,97,95
2025-02-27 15:43:34.051,-194.0,-928.0,324.0,-29.0,23.0,36.0,147,83,89,96,97
2025-02-27 15:43:34.059,-192.0,-918.0,313.0,-26.0,24.0,36.0,149,77,87,94,96
2025-02-27 15:43:34.063,-208.0,-911.0,336.0,-26.0,25.0,37.0,150,83,91,96,97
2025-02-27 15:43:34.067,-213.0,-896.0,288.0,-25.0,24.0,36.0,147,83,88,96,97
2025-02-27 15:43:34.072,-223.0,-891.0,286.0,-24.0,25.0,36.0,146,78,86,94,95
2025-02-27 15:43:34.076,-220.0,-882.0,288.0,-23.0,25.0,36.0,149,82,92,96,95
2025-02-27 15:43:34.084,-211.0,-868.0,292.0,-24.0,25.0,36.0,149,83,90,97,97
2025-02-27 15:43:34.088,-229.0,-854.0,273.0,-20.0,27.0,36.0,147,78,87,93,94
2025-02-27 15:43:34.092,-220.0,-844.0,270.0,-20.0,27.0,35.0,146,78,87,93,93
2025-02-27 15:43:34.096,-229.0,-834.0,248.0,-21.0,27.0,34.0,151,83,93,97,98
2025-02-27 15:43:34.104,-217.0,-837.0,262.0,-20.0,28.0,33.0,147,80,88,94,95
