timestamp,ax,ay,az,gx,gy,gz,flex1,flex2,flex3,flex4,flex5,emg1,emg2,emg3
2025-02-20 16:40:38.767,-363.0,-55.0,986.0,16.0,6.0,1.0,129,100,93,121,107,465,459,465
2025-02-20 16:40:38.767,-373.0,-44.0,997.0,7.0,6.0,-1.0,130,101,94,121,107,464,461,464
2025-02-20 16:40:38.772,-377.0,-57.0,1007.0,-4.0,4.0,-1.0,129,101,93,122,107,462,462,463
2025-02-20 16:40:38.775,-358.0,-77.0,1009.0,-7.0,3.0,-2.0,130,101,93,122,106,460,463,462
2025-02-20 16:40:38.777,-363.0,-92.0,1008.0,-7.0,8.0,-1.0,129,98,93,122,107,461,464,462
2025-02-20 16:40:38.778,-378.0,-94.0,976.0,-7.0,8.0,-2.0,129,101,93,122,107,461,463,461
2025-02-20 16:40:38.781,-385.0,-92.0,969.0,-8.0,7.0,0.0,130,100,93,122,106,461,464,460
2025-02-20 16:40:38.783,-382.0,-90.0,971.0,-7.0,7.0,2.0,129,100,93,121,107,461,464,460
2025-02-20 16:40:38.789,-368.0,-107.0,971.0,-6.0,11.0,0.0,130,101,93,122,106,464,463,459
2025-02-20 16:40:38.809,-375.0,-125.0,946.0,0.0,15.0,0.0,130,100,93,123,107,466,462,461
2025-02-20 16:40:38.827,-396.0,-113.0,922.0,3.0,13.0,5.0,129,100,92,122,108,465,461,461
2025-02-20 16:40:38.847,-402.0,-101.0,898.0,3.0,9.0,7.0,129,100,93,123,107,464,459,461
2025-02-20 16:40:38.866,-407.0,-69.0,884.0,-1.0,2.0,6.0,130,100,93,122,106,464,458,461
2025-02-20 16:40:38.883,-395.0,-76.0,907.0,-4.0,0.0,4.0,131,100,93,122,107,465,461,463
2025-02-20 16:40:38.904,-406.0,-84.0,909.0,3.0,3.0,4.0,123,101,93,123,106,464,463,464
2025-02-20 16:40:38.920,-407.0,-74.0,923.0,11.0,5.0,5.0,130,102,93,121,106,467,463,465
2025-02-20 16:40:38.940,-423.0,-61.0,915.0,9.0,4.0,4.0,130,100,93,123,106,464,463,466
2025-02-20 16:40:38.956,-433.0,-28.0,904.0,1.0,1.0,1.0,128,100,92,122,107,460,465,466
2025-02-20 16:40:38.981,-423.0,-52.0,908.0,-6.0,-4.0,-1.0,129,99,93,122,107,458,466,467
2025-02-20 16:40:38.998,-404.0,-87.0,921.0,-4.0,-4.0,-1.0,130,101,93,122,107,460,466,466
2025-02-20 16:40:39.017,-412.0,-82.0,929.0,1.0,-2.0,-1.0,129,101,93,122,107,464,467,467
2025-02-20 16:40:39.036,-414.0,-57.0,937.0,1.0,-2.0,-1.0,132,100,93,123,106,463,467,466
2025-02-20 16:40:39.055,-407.0,-54.0,935.0,-3.0,-3.0,-3.0,128,101,94,122,107,461,468,466
2025-02-20 16:40:39.075,-395.0,-70.0,938.0,-2.0,-3.0,-3.0,130,99,93,122,106,460,464,465
2025-02-20 16:40:39.092,-403.0,-81.0,936.0,0.0,-2.0,-2.0,129,100,93,122,107,463,465,465
2025-02-20 16:40:39.111,-413.0,-71.0,936.0,0.0,-2.0,-1.0,135,100,93,122,107,464,466,464
2025-02-20 16:40:39.133,-404.0,-64.0,940.0,0.0,-3.0,-2.0,129,100,93,124,105,465,466,463
2025-02-20 16:40:39.149,-399.0,-67.0,935.0,0.0,-2.0,-2.0,130,100,94,123,107,465,464,462
2025-02-20 16:40:39.170,-404.0,-68.0,941.0,-1.0,-3.0,-1.0,130,100,93,122,106,464,464,462
2025-02-20 16:40:39.187,-405.0,-79.0,939.0,0.0,-2.0,-2.0,129,101,93,122,106,464,463,461
2025-02-20 16:40:39.206,-403.0,-82.0,935.0,1.0,-3.0,-1.0,129,100,93,123,107,462,463,461
2025-02-20 16:40:39.224,-405.0,-69.0,943.0,2.0,-4.0,-1.0,128,101,93,121,107,461,462,462
2025-02-20 16:40:39.241,-402.0,-66.0,962.0,1.0,-3.0,-3.0,131,101,94,122,107,461,461,462
2025-02-20 16:40:39.264,-402.0,-77.0,954.0,1.0,-1.0,-3.0,131,101,93,122,107,461,461,463
2025-02-20 16:40:39.284,-403.0,-77.0,952.0,1.0,-2.0,-2.0,128,101,92,122,107,460,464,465
2025-02-20 16:40:39.301,-400.0,-75.0,950.0,-1.0,-2.0,-1.0,131,101,93,123,106,462,468,466
2025-02-20 16:40:39.322,-399.0,-60.0,948.0,-1.0,-2.0,-2.0,129,100,93,122,107,464,467,467
2025-02-20 16:40:39.338,-403.0,-61.0,936.0,-1.0,-2.0,-1.0,130,101,94,122,106,464,463,466
2025-02-20 16:40:39.359,-403.0,-66.0,934.0,0.0,-2.0,-2.0,130,99,94,122,107,465,460,468
2025-02-20 16:40:39.379,-410.0,-74.0,931.0,2.0,-2.0,-2.0,129,100,93,123,107,467,465,467
2025-02-20 16:40:39.399,-415.0,-70.0,939.0,3.0,-2.0,-1.0,128,100,93,123,106,466,467,467
2025-02-20 16:40:39.416,-408.0,-53.0,950.0,3.0,-3.0,-2.0,128,100,92,123,106,464,463,466
2025-02-20 16:40:39.436,-397.0,-61.0,953.0,1.0,-1.0,-3.0,131,100,93,123,107,462,462,466
2025-02-20 16:40:39.454,-402.0,-75.0,942.0,1.0,-1.0,-2.0,128,99,92,122,107,461,461,465
2025-02-20 16:40:39.473,-402.0,-71.0,948.0,2.0,0.0,-3.0,129,100,93,123,107,460,463,464
2025-02-20 16:40:39.493,-402.0,-72.0,936.0,1.0,0.0,-2.0,131,100,94,122,107,460,463,465
2025-02-20 16:40:39.510,-408.0,-72.0,929.0,0.0,-2.0,-3.0,129,102,93,123,106,460,467,462
2025-02-20 16:40:39.530,-398.0,-81.0,935.0,0.0,-3.0,-3.0,127,100,93,122,107,460,470,462
2025-02-20 16:40:39.550,-392.0,-96.0,946.0,1.0,-4.0,-2.0,131,101,93,122,107,461,473,462
2025-02-20 16:40:39.568,-383.0,-82.0,961.0,1.0,-3.0,0.0,131,100,92,122,107,463,472,462
2025-02-20 16:40:39.588,-382.0,-85.0,956.0,0.0,-1.0,0.0,132,101,93,123,106,464,471,461
2025-02-20 16:40:39.608,-391.0,-83.0,947.0,1.0,-1.0,0.0,131,101,92,123,106,463,466,462
2025-02-20 16:40:39.625,-391.0,-74.0,952.0,2.0,-1.0,1.0,127,100,93,123,106,466,465,463
2025-02-20 16:40:39.630,-393.0,-64.0,944.0,0.0,-1.0,1.0,129,100,93,123,106,468,460,463
2025-02-20 16:40:39.662,-395.0,-65.0,945.0,0.0,-2.0,1.0,129,100,93,123,106,468,457,464
2025-02-20 16:40:39.679,-396.0,-65.0,958.0,0.0,-1.0,1.0,127,101,93,123,106,469,460,465
2025-02-20 16:40:39.703,-392.0,-52.0,958.0,0.0,0.0,1.0,129,100,92,123,106,469,462,466
2025-02-20 16:40:39.719,-398.0,-39.0,950.0,-1.0,0.0,0.0,129,101,92,123,106,466,462,467
2025-02-20 16:40:39.739,-403.0,-72.0,973.0,-3.0,0.0,0.0,129,101,93,122,106,468,461,467
2025-02-20 16:40:39.759,-398.0,-50.0,947.0,0.0,-1.0,-1.0,129,100,92,123,107,465,458,468
2025-02-20 16:40:39.776,-401.0,-49.0,937.0,0.0,-2.0,-1.0,132,99,92,124,106,465,457,467
2025-02-20 16:40:39.796,-403.0,-50.0,930.0,0.0,-2.0,-1.0,133,99,92,124,106,465,455,466
2025-02-20 16:40:39.817,-397.0,-55.0,938.0,1.0,-3.0,-1.0,131,100,94,123,106,465,458,466
2025-02-20 16:40:39.820,-400.0,-51.0,939.0,1.0,-1.0,-1.0,130,100,93,123,106,462,458,466
2025-02-20 16:40:39.854,-401.0,-52.0,939.0,2.0,-1.0,-2.0,129,100,92,124,106,464,458,465
2025-02-20 16:40:39.874,-396.0,-51.0,941.0,0.0,-2.0,-3.0,132,100,93,122,106,465,460,465
2025-02-20 16:40:39.891,-392.0,-61.0,945.0,-1.0,-3.0,-2.0,128,100,92,124,106,464,458,463
2025-02-20 16:40:39.904,-390.0,-74.0,947.0,-2.0,-3.0,-2.0,129,101,92,123,106,465,459,463
2025-02-20 16:40:39.928,-390.0,-79.0,964.0,2.0,-2.0,-1.0,130,101,93,123,106,466,464,462
2025-02-20 16:40:39.945,-391.0,-57.0,972.0,3.0,-1.0,-1.0,129,100,93,123,106,464,464,461
2025-02-20 16:40:39.965,-391.0,-54.0,963.0,-1.0,-1.0,-1.0,130,101,93,124,106,462,464,462
2025-02-20 16:40:39.985,-392.0,-70.0,958.0,-3.0,-2.0,-1.0,130,100,93,123,106,463,462,462
2025-02-20 16:40:40.004,-381.0,-88.0,965.0,-1.0,-1.0,-1.0,130,101,93,122,106,463,466,463
2025-02-20 16:40:40.025,-384.0,-66.0,968.0,1.0,1.0,0.0,131,100,93,122,106,463,469,463
2025-02-20 16:40:40.038,-394.0,-50.0,958.0,-1.0,1.0,0.0,129,102,92,124,106,462,470,464
2025-02-20 16:40:40.062,-384.0,-57.0,956.0,-5.0,1.0,0.0,131,97,92,123,106,462,470,465
2025-02-20 16:40:40.083,-373.0,-64.0,946.0,-4.0,2.0,1.0,129,102,93,123,106,462,469,465
2025-02-20 16:40:40.098,-371.0,-56.0,931.0,-4.0,4.0,1.0,128,98,93,123,106,463,468,467
2025-02-20 16:40:40.107,-371.0,-33.0,888.0,-6.0,3.0,1.0,129,100,91,123,106,463,473,467
2025-02-20 16:40:40.134,-388.0,-19.0,832.0,-10.0,0.0,1.0,129,100,91,123,106,466,478,468
2025-02-20 16:40:40.157,-410.0,56.0,710.0,-11.0,-4.0,0.0,128,100,93,123,107,464,473,468
2025-02-20 16:40:40.177,-470.0,76.0,553.0,-15.0,-27.0,-15.0,132,100,92,123,106,464,467,467
2025-02-20 16:40:40.194,-594.0,0.0,531.0,-8.0,-65.0,-34.0,130,96,89,123,107,464,463,467
2025-02-20 16:40:40.205,-620.0,-59.0,698.0,-8.0,-109.0,-32.0,130,87,82,120,101,464,459,466
2025-02-20 16:40:40.235,-655.0,-77.0,835.0,-63.0,-196.0,-30.0,129,84,76,116,92,455,459,463
2025-02-20 16:40:40.242,-242.0,-206.0,1304.0,-159.0,-286.0,-17.0,131,82,74,112,87,434,461,458
2025-02-20 16:40:40.272,414.0,-658.0,1997.0,-274.0,-243.0,54.0,130,86,76,109,83,371,457,420
2025-02-20 16:40:40.292,853.0,-1104.0,2605.0,-259.0,-45.0,132.0,130,81,72,103,84,370,454,402
2025-02-20 16:40:40.309,742.0,-1155.0,2412.0,-250.0,157.0,168.0,130,69,64,89,79,454,453,441
2025-02-20 16:40:40.326,338.0,-901.0,1898.0,-179.0,256.0,175.0,133,62,63,78,70,580,466,509
2025-02-20 16:40:40.344,63.0,-605.0,1362.0,-156.0,300.0,173.0,133,60,54,74,64,498,477,494
2025-02-20 16:40:40.365,-178.0,-435.0,973.0,-184.0,296.0,172.0,131,59,52,71,61,335,475,452
2025-02-20 16:40:40.386,-264.0,-434.0,787.0,-201.0,276.0,186.0,131,57,50,66,60,370,459,470
2025-02-20 16:40:40.403,-398.0,-265.0,494.0,-185.0,251.0,186.0,130,56,49,63,61,381,385,501
2025-02-20 16:40:40.423,-469.0,-92.0,361.0,-160.0,223.0,161.0,129,55,50,63,61,423,372,508
2025-02-20 16:40:40.443,-450.0,161.0,199.0,-116.0,202.0,119.0,126,56,49,63,61,401,367,542
2025-02-20 16:40:40.461,-670.0,403.0,17.0,-113.0,175.0,88.0,121,55,49,63,61,357,382,588
2025-02-20 16:40:40.479,-486.0,622.0,-12.0,-101.0,139.0,55.0,118,56,49,62,59,378,408,584
2025-02-20 16:40:40.500,-510.0,871.0,-176.0,-73.0,121.0,27.0,115,55,50,62,59,433,414,543
2025-02-20 16:40:40.518,-529.0,1432.0,-541.0,-34.0,94.0,-25.0,115,55,49,61,58,512,436,510
2025-02-20 16:40:40.537,-711.0,2005.0,-936.0,17.0,39.0,-140.0,111,54,49,61,58,668,467,478
2025-02-20 16:40:40.558,-886.0,2579.0,-1534.0,42.0,-51.0,-363.0,105,54,49,61,54,659,486,452
2025-02-20 16:40:40.575,-772.0,2492.0,-2158.0,23.0,-298.0,-665.0,99,54,51,62,54,591,492,428
2025-02-20 16:40:40.595,73.0,1925.0,-2524.0,-5.0,-648.0,-890.0,100,53,50,57,54,451,477,408
2025-02-20 16:40:40.612,4304.0,346.0,-1790.0,-66.0,-994.0,-850.0,100,52,49,63,57,373,428,431
2025-02-20 16:40:40.633,6347.0,-5097.0,3092.0,-27.0,-538.0,-395.0,102,53,50,68,59,389,383,459
2025-02-20 16:40:40.652,4958.0,-5219.0,2997.0,158.0,181.0,-39.0,100,54,50,66,58,428,441,428
2025-02-20 16:40:40.670,1883.0,-3184.0,1298.0,269.0,272.0,39.0,98,54,50,66,55,296,674,405
2025-02-20 16:40:40.689,800.0,-1461.0,554.0,-19.0,214.0,151.0,100,54,50,68,55,254,697,387
2025-02-20 16:40:40.709,355.0,-1668.0,411.0,-187.0,109.0,199.0,102,56,52,72,57,180,653,422
2025-02-20 16:40:40.727,444.0,-1936.0,762.0,-128.0,137.0,261.0,99,56,52,74,60,313,529,428
2025-02-20 16:40:40.747,285.0,-1429.0,594.0,-39.0,160.0,285.0,102,55,52,73,61,399,320,467
2025-02-20 16:40:40.767,111.0,-822.0,469.0,-33.0,165.0,262.0,102,56,52,70,61,464,340,464
2025-02-20 16:40:40.782,-111.0,-426.0,488.0,-88.0,113.0,244.0,103,57,53,67,62,646,557,458
2025-02-20 16:40:40.804,-155.0,-399.0,374.0,-152.0,118.0,254.0,108,56,53,67,62,634,646,467
2025-02-20 16:40:40.824,-406.0,-323.0,172.0,-131.0,107.0,233.0,109,57,54,65,63,551,597,547
2025-02-20 16:40:40.841,-197.0,-425.0,345.0,-57.0,93.0,208.0,109,57,56,66,64,479,562,556
2025-02-20 16:40:40.861,-43.0,-424.0,265.0,8.0,161.0,205.0,111,58,56,66,64,430,406,517
2025-02-20 16:40:40.878,-320.0,-99.0,27.0,57.0,156.0,187.0,114,57,56,65,65,515,325,483
2025-02-20 16:40:40.898,-428.0,278.0,-126.0,66.0,125.0,179.0,114,58,56,66,67,611,342,460
2025-02-20 16:40:40.919,-589.0,952.0,-259.0,64.0,66.0,161.0,111,59,57,67,68,597,438,453
2025-02-20 16:40:40.933,-791.0,1650.0,-469.0,67.0,-1.0,81.0,115,59,57,66,69,608,492,455
2025-02-20 16:40:40.955,-893.0,2365.0,-813.0,136.0,-16.0,-148.0,111,58,57,66,69,596,471,458
2025-02-20 16:40:40.976,-1055.0,2615.0,-1070.0,158.0,-120.0,-487.0,111,58,57,68,64,557,467,453
2025-02-20 16:40:40.993,-640.0,1898.0,-1285.0,84.0,-356.0,-715.0,108,58,57,70,64,527,448,443
2025-02-20 16:40:41.013,956.0,1450.0,-1416.0,-65.0,-675.0,-880.0,108,57,57,71,65,471,339,447
2025-02-20 16:40:41.033,5096.0,-1108.0,-333.0,-389.0,-865.0,-723.0,111,58,56,71,69,386,299,444
2025-02-20 16:40:41.050,5268.0,-8142.0,2380.0,-262.0,-306.0,-211.0,110,58,57,73,69,379,443,419
2025-02-20 16:40:41.071,3345.0,-5263.0,729.0,-22.0,241.0,150.0,106,57,54,67,68,384,501,391
2025-02-20 16:40:41.088,1180.0,-2175.0,-529.0,43.0,166.0,202.0,107,55,54,69,65,311,541,395
2025-02-20 16:40:41.107,343.0,-1142.0,-413.0,-107.0,5.0,271.0,108,56,55,69,66,276,555,448
2025-02-20 16:40:41.128,356.0,-2005.0,-102.0,-96.0,-17.0,302.0,109,60,57,72,69,373,571,440
2025-02-20 16:40:41.144,338.0,-1675.0,284.0,44.0,9.0,297.0,110,59,57,72,71,449,466,422
2025-02-20 16:40:41.165,373.0,-986.0,439.0,102.0,71.0,283.0,111,59,59,70,74,597,544,418
2025-02-20 16:40:41.182,-60.0,-697.0,260.0,94.0,91.0,265.0,111,58,58,69,74,643,603,446
2025-02-20 16:40:41.202,-253.0,-347.0,219.0,88.0,66.0,268.0,113,60,57,65,73,634,580,465
2025-02-20 16:40:41.222,-218.0,-140.0,384.0,41.0,67.0,266.0,116,60,56,66,73,680,561,467
2025-02-20 16:40:41.242,-18.0,-115.0,510.0,19.0,100.0,274.0,117,59,58,66,71,659,524,474
2025-02-20 16:40:41.259,-95.0,-104.0,321.0,53.0,161.0,260.0,118,60,58,69,75,646,496,495
2025-02-20 16:40:41.278,-363.0,-18.0,168.0,140.0,168.0,194.0,120,62,60,68,73,605,471,489
2025-02-20 16:40:41.296,-229.0,68.0,33.0,179.0,158.0,176.0,122,59,60,71,74,653,386,460
2025-02-20 16:40:41.317,-358.0,410.0,-72.0,156.0,141.0,187.0,124,60,60,69,73,564,379,466
2025-02-20 16:40:41.337,-839.0,1210.0,-267.0,140.0,85.0,110.0,126,60,60,69,74,427,326,464
2025-02-20 16:40:41.354,-978.0,2196.0,-531.0,207.0,38.0,-112.0,128,60,60,69,75,393,324,463
2025-02-20 16:40:41.373,-669.0,3434.0,-593.0,111.0,-5.0,-482.0,128,57,59,72,64,436,344,456
2025-02-20 16:40:41.394,-650.0,3064.0,-1441.0,-214.0,-212.0,-769.0,127,56,56,74,59,387,362,441
2025-02-20 16:40:41.411,628.0,1422.0,-2910.0,-413.0,-598.0,-1003.0,121,51,54,72,60,290,254,401
2025-02-20 16:40:41.431,5119.0,-2060.0,-2612.0,-500.0,-940.0,-847.0,123,53,54,71,64,217,227,403
2025-02-20 16:40:41.451,6013.0,-9096.0,1311.0,-40.0,-444.0,-172.0,125,53,52,71,65,305,328,423
2025-02-20 16:40:41.468,2538.0,-4266.0,-87.0,279.0,245.0,-38.0,127,50,48,68,63,411,497,420
2025-02-20 16:40:41.488,335.0,-1741.0,-2167.0,259.0,240.0,106.0,130,49,49,69,58,468,577,449
2025-02-20 16:40:41.508,-250.0,-392.0,-689.0,113.0,-178.0,114.0,135,51,50,71,61,269,576,469
2025-02-20 16:40:41.525,474.0,-1729.0,1030.0,7.0,-87.0,111.0,138,53,51,72,63,111,680,491
2025-02-20 16:40:41.546,971.0,-1752.0,1125.0,59.0,96.0,119.0,135,52,51,74,66,182,592,518
2025-02-20 16:40:41.563,418.0,-1169.0,479.0,80.0,144.0,148.0,139,53,54,74,66,517,518,561
2025-02-20 16:40:41.583,86.0,-790.0,142.0,51.0,101.0,135.0,139,53,52,73,66,641,520,574
2025-02-20 16:40:41.603,-109.0,-536.0,94.0,-24.0,31.0,153.0,139,53,48,69,64,651,546,545
2025-02-20 16:40:41.620,-39.0,-811.0,278.0,-72.0,28.0,191.0,141,56,52,68,63,537,557,562
2025-02-20 16:40:41.641,-3.0,-712.0,168.0,-81.0,28.0,229.0,139,54,53,69,63,276,479,530
2025-02-20 16:40:41.659,133.0,-202.0,424.0,8.0,56.0,151.0,140,54,53,69,63,367,423,492
2025-02-20 16:40:41.676,217.0,-711.0,471.0,67.0,119.0,130.0,139,55,53,69,63,442,339,459
2025-02-20 16:40:41.697,0.0,-776.0,326.0,103.0,167.0,165.0,139,58,54,68,63,600,456,409
2025-02-20 16:40:41.717,-153.0,-743.0,154.0,83.0,164.0,201.0,140,55,53,68,64,711,548,398
2025-02-20 16:40:41.734,-302.0,-459.0,96.0,81.0,117.0,250.0,141,54,54,69,64,707,564,410
2025-02-20 16:40:41.755,-306.0,298.0,324.0,144.0,114.0,195.0,141,56,55,68,65,675,581,439
2025-02-20 16:40:41.770,-608.0,771.0,186.0,227.0,145.0,70.0,141,55,55,70,64,667,546,489
2025-02-20 16:40:41.787,-1141.0,1636.0,-189.0,196.0,139.0,-43.0,140,56,56,69,65,706,486,532
2025-02-20 16:40:41.812,-1504.0,2493.0,-802.0,112.0,36.0,-361.0,138,55,56,69,63,649,414,525
2025-02-20 16:40:41.830,-1254.0,1906.0,-1237.0,22.0,-211.0,-651.0,137,54,57,73,63,501,356,504
2025-02-20 16:40:41.847,145.0,1088.0,-1830.0,-147.0,-590.0,-731.0,138,55,56,76,64,430,331,473
2025-02-20 16:40:41.868,3339.0,-1556.0,-1199.0,-340.0,-850.0,-523.0,139,54,57,77,68,334,317,430
2025-02-20 16:40:41.885,4790.0,-5200.0,1652.0,-287.0,-468.0,-187.0,138,54,56,78,68,461,338,391
2025-02-20 16:40:41.906,3931.0,-5252.0,1165.0,58.0,164.0,-37.0,140,53,54,71,67,538,401,388
2025-02-20 16:40:41.926,794.0,-2197.0,-772.0,235.0,257.0,72.0,141,52,52,70,61,367,504,422
2025-02-20 16:40:41.943,177.0,-764.0,-784.0,83.0,38.0,152.0,139,53,51,73,63,82,586,442
2025-02-20 16:40:41.963,455.0,-1521.0,75.0,-13.0,-14.0,185.0,140,55,54,73,67,120,610,394
2025-02-20 16:40:41.980,496.0,-1551.0,747.0,25.0,28.0,192.0,139,54,55,76,69,87,557,407
2025-02-20 16:40:42.001,404.0,-1341.0,658.0,134.0,137.0,155.0,139,54,56,76,69,293,543,424
2025-02-20 16:40:42.020,286.0,-1196.0,442.0,108.0,166.0,210.0,138,53,56,77,69,403,555,468
2025-02-20 16:40:42.037,113.0,-681.0,317.0,2.0,164.0,265.0,139,53,55,73,67,508,544,493
2025-02-20 16:40:42.058,25.0,-519.0,371.0,-90.0,153.0,278.0,140,56,56,71,66,561,502,519
2025-02-20 16:40:42.077,6.0,-470.0,411.0,-128.0,134.0,301.0,140,56,56,71,67,583,472,482
2025-02-20 16:40:42.094,287.0,-548.0,526.0,-57.0,198.0,306.0,141,57,57,71,65,572,419,476
2025-02-20 16:40:42.114,279.0,-459.0,345.0,26.0,270.0,309.0,141,58,58,71,66,573,369,461
2025-02-20 16:40:42.135,-109.0,-181.0,50.0,105.0,283.0,287.0,141,59,58,70,68,654,426,467
2025-02-20 16:40:42.152,-309.0,18.0,-131.0,113.0,252.0,260.0,142,63,61,72,72,771,424,454
2025-02-20 16:40:42.172,-127.0,49.0,-98.0,158.0,172.0,245.0,137,65,65,74,78,745,445,451
2025-02-20 16:40:42.189,-418.0,459.0,-533.0,201.0,150.0,228.0,136,68,68,84,85,642,454,470
2025-02-20 16:40:42.210,-660.0,1121.0,-956.0,265.0,82.0,178.0,134,69,72,94,89,564,451,474
2025-02-20 16:40:42.230,-1459.0,2370.0,-982.0,272.0,-67.0,-25.0,133,76,71,105,95,506,428,468
2025-02-20 16:40:42.249,-1276.0,2387.0,-1838.0,290.0,-232.0,-334.0,132,84,74,108,97,475,374,471
2025-02-20 16:40:42.253,-906.0,1527.0,-2017.0,245.0,-443.0,-600.0,131,96,81,113,104,431,352,478
2025-02-20 16:40:42.285,389.0,1176.0,-638.0,100.0,-648.0,-712.0,128,107,88,120,114,351,336,479
2025-02-20 16:40:42.304,3447.0,-101.0,6.0,-218.0,-872.0,-598.0,127,113,94,127,121,266,297,481
2025-02-20 16:40:42.324,3463.0,-2602.0,1104.0,-249.0,-992.0,-355.0,133,122,101,130,125,378,263,519
2025-02-20 16:40:42.344,3643.0,-4536.0,1254.0,-268.0,-630.0,-52.0,138,126,103,132,126,582,249,500
2025-02-20 16:40:42.361,3226.0,-4258.0,1342.0,-18.0,-85.0,147.0,140,124,104,132,128,648,439,506
2025-02-20 16:40:42.381,1854.0,-2486.0,1083.0,83.0,124.0,97.0,141,124,104,132,128,521,582,480
2025-02-20 16:40:42.402,264.0,-1404.0,416.0,91.0,188.0,162.0,140,121,103,132,129,406,651,432
2025-02-20 16:40:42.418,133.0,-804.0,599.0,108.0,171.0,252.0,138,120,103,133,129,245,653,372
2025-02-20 16:40:42.439,51.0,-864.0,761.0,148.0,223.0,267.0,139,120,104,133,131,8,606,356
2025-02-20 16:40:42.458,182.0,-955.0,479.0,100.0,322.0,195.0,137,121,104,134,129,363,561,406
2025-02-20 16:40:42.476,185.0,-1375.0,541.0,27.0,310.0,158.0,138,124,104,133,129,424,559,491
2025-02-20 16:40:42.495,187.0,-1034.0,436.0,28.0,176.0,208.0,137,125,104,134,129,374,558,491
2025-02-20 16:40:42.510,-41.0,-574.0,404.0,-49.0,133.0,223.0,137,125,105,135,129,395,454,488
2025-02-20 16:40:42.533,-247.0,-314.0,422.0,-137.0,107.0,227.0,138,122,105,134,129,491,408,499
2025-02-20 16:40:42.553,-206.0,-404.0,144.0,-159.0,48.0,230.0,136,119,103,133,129,496,410,473
2025-02-20 16:40:42.571,-228.0,-174.0,150.0,-142.0,87.0,198.0,135,115,103,134,129,606,453,463
2025-02-20 16:40:42.588,-440.0,162.0,295.0,-32.0,80.0,155.0,135,114,102,133,129,692,488,471
2025-02-20 16:40:42.610,-473.0,255.0,481.0,86.0,85.0,130.0,134,111,102,133,128,803,440,478
2025-02-20 16:40:42.628,-521.0,588.0,55.0,210.0,87.0,91.0,135,111,102,133,128,899,414,487
2025-02-20 16:40:42.647,-802.0,1146.0,-161.0,312.0,51.0,12.0,137,112,103,133,129,800,426,496
2025-02-20 16:40:42.667,-1236.0,1646.0,-769.0,307.0,-5.0,-189.0,136,112,103,133,130,641,431,502
2025-02-20 16:40:42.684,-1309.0,1830.0,-947.0,235.0,-192.0,-448.0,136,117,104,134,129,488,385,467
2025-02-20 16:40:42.704,-449.0,1127.0,-675.0,100.0,-330.0,-703.0,134,119,103,134,131,437,395,456
2025-02-20 16:40:42.725,1658.0,499.0,-435.0,-64.0,-671.0,-601.0,130,123,105,135,131,348,412,467
2025-02-20 16:40:42.739,3249.0,-1109.0,714.0,-269.0,-796.0,-479.0,132,126,107,135,131,272,398,487
2025-02-20 16:40:42.762,3173.0,-4319.0,1202.0,-425.0,-557.0,-130.0,133,126,108,136,131,253,352,516
2025-02-20 16:40:42.779,2888.0,-4635.0,1240.0,-32.0,-171.0,101.0,136,123,108,135,132,445,540,491
2025-02-20 16:40:42.799,2079.0,-2938.0,764.0,75.0,103.0,119.0,135,123,107,136,132,407,667,481
2025-02-20 16:40:42.818,750.0,-1888.0,777.0,93.0,216.0,103.0,137,119,106,135,132,213,676,465
2025-02-20 16:40:42.835,209.0,-1178.0,428.0,57.0,214.0,173.0,136,116,105,135,132,113,635,407
2025-02-20 16:40:42.856,19.0,-918.0,302.0,71.0,189.0,227.0,135,118,106,135,133,123,517,391
2025-02-20 16:40:42.877,224.0,-1141.0,633.0,50.0,231.0,196.0,135,121,106,135,131,228,422,413
2025-02-20 16:40:42.892,326.0,-1095.0,756.0,37.0,220.0,153.0,134,123,107,135,131,333,533,418
2025-02-20 16:40:42.914,-84.0,-1156.0,181.0,11.0,201.0,182.0,136,124,107,136,132,502,561,471
2025-02-20 16:40:42.931,159.0,-749.0,446.0,-20.0,177.0,229.0,135,124,106,136,131,568,480,499
2025-02-20 16:40:42.951,-30.0,-561.0,454.0,-111.0,122.0,242.0,134,123,106,135,129,654,444,481
2025-02-20 16:40:42.962,-29.0,-435.0,283.0,-258.0,72.0,247.0,133,119,104,135,131,621,458,481
2025-02-20 16:40:42.988,-91.0,-451.0,107.0,-195.0,96.0,233.0,137,114,102,133,130,627,455,474
2025-02-20 16:40:43.008,-228.0,-291.0,105.0,-114.0,91.0,228.0,136,106,98,134,126,654,451,447
2025-02-20 16:40:43.028,-318.0,5.0,492.0,-7.0,134.0,226.0,137,98,91,132,118,667,381,435
2025-02-20 16:40:43.045,-622.0,63.0,570.0,176.0,191.0,195.0,139,82,82,127,101,687,353,435
2025-02-20 16:40:43.065,-568.0,584.0,158.0,345.0,297.0,110.0,136,70,73,108,80,616,384,443
2025-02-20 16:40:43.084,-1288.0,2117.0,-753.0,317.0,229.0,-87.0,136,64,65,94,68,591,395,466
2025-02-20 16:40:43.103,-1648.0,3602.0,-2106.0,202.0,-89.0,-461.0,134,60,60,84,60,570,411,458
2025-02-20 16:40:43.122,-229.0,2543.0,-2620.0,69.0,-506.0,-684.0,132,52,55,70,55,495,405,449
2025-02-20 16:40:43.143,1262.0,628.0,-1679.0,-133.0,-744.0,-672.0,132,48,50,70,55,321,386,446
2025-02-20 16:40:43.159,3758.0,-1705.0,-534.0,-187.0,-962.0,-440.0,138,50,49,67,56,236,363,466
2025-02-20 16:40:43.179,4773.0,-4477.0,2195.0,-247.0,-486.0,-193.0,140,50,49,67,56,306,386,472
2025-02-20 16:40:43.196,3895.0,-4457.0,2038.0,32.0,89.0,-58.0,144,49,48,67,56,398,479,482
2025-02-20 16:40:43.217,965.0,-3388.0,111.0,246.0,273.0,37.0,142,48,48,69,55,429,494,493
2025-02-20 16:40:43.236,304.0,-1437.0,78.0,64.0,167.0,120.0,141,48,48,71,55,247,459,444
2025-02-20 16:40:43.254,206.0,-1589.0,300.0,-52.0,41.0,159.0,143,51,49,70,58,110,514,420
2025-02-20 16:40:43.273,458.0,-1355.0,691.0,-35.0,36.0,147.0,143,52,51,72,59,196,583,456
2025-02-20 16:40:43.294,457.0,-1612.0,739.0,26.0,109.0,148.0,143,53,52,73,59,322,507,462
2025-02-20 16:40:43.309,335.0,-1251.0,618.0,-2.0,146.0,206.0,143,53,52,75,60,417,643,528
2025-02-20 16:40:43.329,122.0,-817.0,393.0,-38.0,123.0,235.0,145,54,53,73,60,529,593,548
2025-02-20 16:40:43.348,-82.0,-486.0,263.0,-64.0,91.0,225.0,144,53,52,69,60,545,447,525
2025-02-20 16:40:43.368,-90.0,-254.0,515.0,-81.0,95.0,198.0,144,54,52,69,59,567,361,503
2025-02-20 16:40:43.388,-43.0,-453.0,321.0,-64.0,123.0,214.0,144,53,53,70,58,508,361,501
2025-02-20 16:40:43.406,-199.0,-396.0,246.0,-49.0,135.0,214.0,145,54,54,69,58,540,385,494
2025-02-20 16:40:43.426,-226.0,-325.0,226.0,-7.0,123.0,206.0,145,55,54,67,57,552,462,471
2025-02-20 16:40:43.446,-124.0,-228.0,274.0,82.0,133.0,143.0,144,55,56,69,58,744,544,466
2025-02-20 16:40:43.462,-188.0,-119.0,157.0,99.0,148.0,174.0,144,55,54,68,58,709,542,465
2025-02-20 16:40:43.483,-601.0,68.0,-52.0,98.0,114.0,182.0,145,55,55,69,58,641,506,463
2025-02-20 16:40:43.503,-776.0,493.0,-109.0,108.0,65.0,142.0,144,54,51,70,59,605,478,447
2025-02-20 16:40:43.520,-784.0,1407.0,-43.0,166.0,46.0,-39.0,143,56,57,69,60,544,479,450
2025-02-20 16:40:43.541,-1011.0,1788.0,-480.0,177.0,22.0,-220.0,144,55,57,70,59,524,456,466
2025-02-20 16:40:43.560,-1451.0,1820.0,-923.0,133.0,-119.0,-454.0,143,55,56,71,56,490,413,466
2025-02-20 16:40:43.568,-907.0,1522.0,-1590.0,-11.0,-441.0,-644.0,144,53,55,70,56,404,355,459
2025-02-20 16:40:43.597,1080.0,649.0,-1520.0,-282.0,-803.0,-629.0,143,53,56,70,58,370,310,463
2025-02-20 16:40:43.618,4462.0,-3778.0,1183.0,-427.0,-576.0,-367.0,147,54,58,73,59,216,291,477
2025-02-20 16:40:43.635,4199.0,-5718.0,2276.0,-50.0,-15.0,-130.0,148,53,57,72,60,317,306,470
2025-02-20 16:40:43.655,1648.0,-3637.0,-99.0,217.0,241.0,12.0,147,52,53,69,58,478,541,472
2025-02-20 16:40:43.671,567.0,-1806.0,-597.0,105.0,134.0,104.0,148,51,54,70,57,409,619,444
2025-02-20 16:40:43.690,119.0,-1590.0,2.0,-80.0,-17.0,118.0,148,52,56,67,59,143,645,387
2025-02-20 16:40:43.712,448.0,-2060.0,772.0,25.0,49.0,139.0,147,54,56,73,59,86,651,378
2025-02-20 16:40:43.729,527.0,-1440.0,658.0,87.0,93.0,165.0,147,55,58,77,61,255,542,469
2025-02-20 16:40:43.749,59.0,-1011.0,593.0,61.0,132.0,203.0,147,55,59,74,62,373,527,483
2025-02-20 16:40:43.762,63.0,-903.0,513.0,-14.0,88.0,221.0,147,57,60,75,64,439,517,500
2025-02-20 16:40:43.786,83.0,-684.0,535.0,-65.0,68.0,218.0,147,56,64,74,63,515,482,479
2025-02-20 16:40:43.806,169.0,-656.0,687.0,-68.0,121.0,202.0,147,58,62,74,63,574,474,463
2025-02-20 16:40:43.823,125.0,-835.0,459.0,-16.0,158.0,212.0,146,58,64,76,63,542,468,447
2025-02-20 16:40:43.844,-5.0,-748.0,106.0,39.0,205.0,234.0,144,60,66,78,63,528,410,451
2025-02-20 16:40:43.863,-75.0,-379.0,20.0,23.0,234.0,252.0,143,63,68,75,62,557,379,461
2025-02-20 16:40:43.877,-347.0,40.0,241.0,48.0,184.0,245.0,142,69,70,77,63,568,430,486
2025-02-20 16:40:43.901,-198.0,254.0,78.0,62.0,183.0,239.0,141,75,74,75,65,608,443,494
2025-02-20 16:40:43.921,-571.0,227.0,-114.0,146.0,188.0,197.0,141,82,78,77,66,719,444,492
2025-02-20 16:40:43.938,-811.0,687.0,-563.0,269.0,155.0,149.0,142,86,79,79,67,743,451,484
2025-02-20 16:40:43.958,-1439.0,1757.0,-1181.0,237.0,15.0,-33.0,142,93,84,80,69,752,443,471
2025-02-20 16:40:43.976,-1292.0,1861.0,-1096.0,153.0,-174.0,-267.0,140,101,88,82,68,682,433,464
2025-02-20 16:40:43.996,-945.0,1479.0,-1067.0,130.0,-345.0,-474.0,137,107,93,80,68,551,421,460
2025-02-20 16:40:44.015,-325.0,710.0,-806.0,176.0,-587.0,-621.0,134,114,97,83,70,418,404,468
2025-02-20 16:40:44.033,2178.0,877.0,3.0,50.0,-716.0,-659.0,131,121,102,87,74,329,367,459
2025-02-20 16:40:44.053,3062.0,-2287.0,1697.0,-19.0,-651.0,-553.0,132,126,104,87,76,180,317,478
2025-02-20 16:40:44.072,3233.0,-3186.0,2040.0,108.0,-284.0,-225.0,134,128,105,89,76,341,330,470
2025-02-20 16:40:44.090,2993.0,-3018.0,2281.0,69.0,3.0,73.0,135,128,104,89,74,472,478,437
2025-02-20 16:40:44.110,1623.0,-2052.0,1868.0,-25.0,178.0,163.0,136,128,105,89,73,434,558,444
2025-02-20 16:40:44.130,778.0,-1450.0,1051.0,-90.0,184.0,184.0,135,127,106,88,70,209,593,438
2025-02-20 16:40:44.147,385.0,-1304.0,801.0,-107.0,162.0,197.0,135,125,106,85,71,213,578,376
2025-02-20 16:40:44.167,240.0,-1163.0,554.0,-70.0,139.0,200.0,138,127,105,87,72,299,582,428
2025-02-20 16:40:44.187,185.0,-909.0,688.0,-61.0,150.0,196.0,138,128,107,86,74,353,570,478
2025-02-20 16:40:44.204,138.0,-982.0,656.0,-36.0,182.0,203.0,138,129,108,86,74,475,541,502
2025-02-20 16:40:44.225,58.0,-766.0,504.0,-9.0,188.0,231.0,138,130,107,84,75,455,499,497
2025-02-20 16:40:44.242,-28.0,-474.0,512.0,-27.0,192.0,244.0,140,129,107,84,74,528,480,479
2025-02-20 16:40:44.262,-206.0,-319.0,444.0,-64.0,187.0,255.0,140,129,107,83,72,558,425,498
2025-02-20 16:40:44.279,-207.0,-238.0,361.0,-83.0,172.0,245.0,140,127,107,81,70,536,413,500
2025-02-20 16:40:44.299,-231.0,-232.0,311.0,-72.0,166.0,227.0,141,126,108,82,68,523,449,477
2025-02-20 16:40:44.319,-278.0,-35.0,223.0,-14.0,191.0,207.0,140,125,106,80,66,490,501,472
2025-02-20 16:40:44.339,-676.0,419.0,-2.0,4.0,154.0,179.0,140,124,106,79,68,554,447,465
2025-02-20 16:40:44.356,-757.0,813.0,-381.0,37.0,102.0,111.0,141,124,107,78,67,609,417,450
2025-02-20 16:40:44.376,-983.0,1407.0,-766.0,106.0,41.0,-40.0,140,124,108,77,67,679,436,434
2025-02-20 16:40:44.396,-1396.0,2147.0,-1296.0,177.0,-75.0,-267.0,138,125,106,77,65,660,420,428
2025-02-20 16:40:44.412,-1131.0,1801.0,-1465.0,212.0,-324.0,-543.0,133,126,107,78,66,562,411,438
2025-02-20 16:40:44.434,-66.0,880.0,-894.0,212.0,-598.0,-675.0,131,127,107,80,69,468,364,438
2025-02-20 16:40:44.453,2410.0,-21.0,-291.0,160.0,-830.0,-639.0,132,128,106,80,73,370,291,446
2025-02-20 16:40:44.466,3698.0,-2823.0,1737.0,140.0,-695.0,-361.0,136,129,108,84,75,314,305,469
2025-02-20 16:40:44.491,3520.0,-3074.0,2685.0,88.0,-276.0,17.0,137,130,107,84,75,244,393,477
2025-02-20 16:40:44.508,2238.0,-2058.0,2500.0,55.0,56.0,100.0,139,130,108,87,74,403,459,453
2025-02-20 16:40:44.528,924.0,-1327.0,1708.0,-2.0,145.0,82.0,139,129,106,85,74,276,516,468
2025-02-20 16:40:44.548,475.0,-1357.0,1248.0,-62.0,130.0,86.0,139,128,107,86,74,280,579,454
2025-02-20 16:40:44.565,502.0,-1446.0,980.0,-104.0,131.0,130.0,143,127,106,88,76,238,632,477
2025-02-20 16:40:44.585,456.0,-1227.0,805.0,-118.0,143.0,176.0,140,129,104,89,79,350,536,493
2025-02-20 16:40:44.605,293.0,-1102.0,677.0,-107.0,152.0,203.0,139,129,103,90,84,408,568,454
2025-02-20 16:40:44.619,176.0,-857.0,818.0,-102.0,162.0,223.0,140,128,103,92,86,455,604,417
2025-02-20 16:40:44.642,42.0,-616.0,776.0,-138.0,180.0,251.0,139,123,101,96,84,523,491,438
2025-02-20 16:40:44.662,29.0,-438.0,619.0,-185.0,184.0,286.0,140,115,95,97,82,559,458,499
2025-02-20 16:40:44.680,-129.0,-403.0,680.0,-177.0,194.0,311.0,140,106,90,94,80,490,493,555
2025-02-20 16:40:44.699,-131.0,-361.0,638.0,-113.0,219.0,308.0,140,94,82,93,76,549,493,537
2025-02-20 16:40:44.716,33.0,-367.0,468.0,-101.0,243.0,289.0,140,83,77,88,71,609,475,524
2025-02-20 16:40:44.736,-232.0,-118.0,81.0,28.0,236.0,248.0,139,75,69,85,69,593,465,487
2025-02-20 16:40:44.756,-632.0,776.0,-574.0,93.0,171.0,189.0,138,68,66,82,67,687,439,457
2025-02-20 16:40:44.774,-892.0,1844.0,-1072.0,164.0,30.0,34.0,136,65,63,76,62,688,443,438
2025-02-20 16:40:44.793,-1035.0,2616.0,-1141.0,223.0,-61.0,-240.0,136,60,58,76,56,647,452,430
2025-02-20 16:40:44.812,-1084.0,1836.0,-1404.0,127.0,-241.0,-470.0,131,55,54,76,55,564,413,433
2025-02-20 16:40:44.831,-548.0,855.0,-1495.0,77.0,-493.0,-579.0,132,54,51,79,56,488,413,450
2025-02-20 16:40:44.851,1333.0,-388.0,-997.0,-13.0,-725.0,-477.0,133,54,49,80,57,401,353,458
2025-02-20 16:40:44.871,3579.0,-1332.0,1326.0,-225.0,-656.0,-359.0,138,56,51,86,59,333,313,469
2025-02-20 16:40:44.889,3198.0,-4348.0,2089.0,-198.0,-264.0,-189.0,142,56,51,83,58,230,365,480
2025-02-20 16:40:44.909,1789.0,-3896.0,1468.0,80.0,66.0,-47.0,143,57,50,82,60,351,444,443
2025-02-20 16:40:44.926,569.0,-2321.0,489.0,142.0,98.0,27.0,144,57,51,80,58,321,484,389
2025-02-20 16:40:44.945,135.0,-1472.0,391.0,-14.0,-4.0,75.0,143,57,51,81,59,237,477,354
2025-02-20 16:40:44.966,537.0,-2069.0,776.0,-38.0,-8.0,98.0,143,59,52,87,60,307,511,370
2025-02-20 16:40:44.982,656.0,-1912.0,1012.0,9.0,61.0,129.0,144,59,53,88,60,417,545,465
2025-02-20 16:40:45.003,537.0,-1617.0,763.0,7.0,122.0,164.0,145,58,54,88,61,488,530,523
2025-02-20 16:40:45.022,258.0,-1353.0,533.0,-21.0,120.0,221.0,145,59,55,89,62,519,520,540
2025-02-20 16:40:45.039,111.0,-660.0,542.0,-56.0,93.0,230.0,143,60,55,89,62,536,538,527
2025-02-20 16:40:45.060,43.0,-515.0,501.0,-57.0,102.0,194.0,143,60,55,83,64,516,527,550
2025-02-20 16:40:45.080,24.0,-597.0,470.0,-91.0,134.0,225.0,143,60,54,79,62,490,496,551
2025-02-20 16:40:45.097,-137.0,-571.0,267.0,-78.0,131.0,241.0,142,61,56,78,61,459,467,542
2025-02-20 16:40:45.117,-172.0,-351.0,159.0,-51.0,115.0,234.0,143,61,56,76,62,443,426,514
2025-02-20 16:40:45.133,-64.0,-179.0,243.0,4.0,119.0,240.0,144,62,57,75,62,509,378,476
2025-02-20 16:40:45.155,-262.0,173.0,390.0,78.0,127.0,186.0,143,64,58,76,63,655,416,451
2025-02-20 16:40:45.174,-474.0,567.0,200.0,127.0,148.0,134.0,142,62,58,75,62,667,462,444
2025-02-20 16:40:45.191,-758.0,1195.0,61.0,176.0,116.0,81.0,143,62,59,76,63,606,500,446
2025-02-20 16:40:45.212,-997.0,2432.0,-457.0,216.0,97.0,-159.0,141,62,59,76,64,541,526,436
2025-02-20 16:40:45.232,-1485.0,2995.0,-1221.0,131.0,-66.0,-418.0,141,63,58,80,63,485,490,439
2025-02-20 16:40:45.249,-949.0,1927.0,-1700.0,-18.0,-334.0,-657.0,137,62,58,83,62,428,407,437
2025-02-20 16:40:45.265,1120.0,1231.0,-1789.0,-141.0,-708.0,-763.0,134,62,59,84,64,360,289,420
2025-02-20 16:40:45.289,4020.0,-2174.0,-711.0,-194.0,-829.0,-458.0,137,62,58,88,64,414,264,427
2025-02-20 16:40:45.306,4505.0,-4653.0,2393.0,-105.0,-376.0,-182.0,138,62,60,87,66,275,317,430
2025-02-20 16:40:45.326,3293.0,-4526.0,1493.0,112.0,118.0,-73.0,139,63,59,87,65,307,437,411
2025-02-20 16:40:45.346,914.0,-2848.0,250.0,195.0,218.0,11.0,139,62,59,83,65,265,533,442
2025-02-20 16:40:45.363,-2.0,-1531.0,-227.0,9.0,98.0,92.0,140,61,58,81,66,128,553,501
2025-02-20 16:40:45.384,298.0,-1834.0,571.0,-34.0,10.0,97.0,138,64,60,87,66,112,571,529
2025-02-20 16:40:45.400,762.0,-1875.0,920.0,20.0,46.0,97.0,137,65,63,91,66,283,544,526
2025-02-20 16:40:45.419,832.0,-1775.0,1005.0,86.0,184.0,114.0,136,66,63,92,68,511,566,471
2025-02-20 16:40:45.440,476.0,-1465.0,646.0,83.0,256.0,166.0,138,68,64,91,70,550,576,478
2025-02-20 16:40:45.457,200.0,-1017.0,396.0,36.0,227.0,217.0,138,68,64,90,73,611,542,488
2025-02-20 16:40:45.478,166.0,-419.0,463.0,-3.0,215.0,211.0,137,71,64,92,75,668,532,448
2025-02-20 16:40:45.498,150.0,-411.0,381.0,-32.0,248.0,211.0,136,74,65,86,77,468,546,430
2025-02-20 16:40:45.515,353.0,-720.0,334.0,-52.0,296.0,247.0,136,77,66,85,76,520,514,449
2025-02-20 16:40:45.535,-21.0,-450.0,183.0,-44.0,266.0,297.0,140,77,68,85,76,633,409,498
2025-02-20 16:40:45.552,12.0,90.0,127.0,57.0,272.0,329.0,138,75,70,87,75,706,357,542
2025-02-20 16:40:45.572,-70.0,241.0,152.0,114.0,278.0,328.0,139,74,70,87,77,767,355,505
2025-02-20 16:40:45.592,-221.0,115.0,-166.0,216.0,293.0,332.0,138,71,67,87,77,732,372,467
2025-02-20 16:40:45.609,-479.0,306.0,-672.0,292.0,247.0,304.0,136,70,64,85,78,669,408,455
2025-02-20 16:40:45.629,-805.0,587.0,-855.0,325.0,104.0,249.0,136,64,61,79,73,596,440,450
2025-02-20 16:40:45.650,-985.0,1279.0,-1203.0,324.0,-43.0,97.0,136,61,56,74,65,553,445,434
2025-02-20 16:40:45.667,-1715.0,1959.0,-2031.0,302.0,-273.0,-168.0,134,58,54,70,59,458,419,420
2025-02-20 16:40:45.687,-1754.0,2111.0,-2775.0,257.0,-704.0,-418.0,120,55,51,68,56,340,386,434
2025-02-20 16:40:45.707,2074.0,1314.0,-2301.0,120.0,-1120.0,-494.0,110,53,51,66,58,188,346,443
2025-02-20 16:40:45.723,4609.0,-588.0,445.0,110.0,-1178.0,-368.0,116,54,51,69,60,222,315,419
2025-02-20 16:40:45.744,4190.0,-2857.0,5059.0,380.0,-603.0,41.0,121,54,53,68,60,411,349,435
2025-02-20 16:40:45.764,2716.0,-432.0,5410.0,203.0,112.0,41.0,121,56,53,69,62,505,403,496
2025-02-20 16:40:45.781,1581.0,-211.0,3500.0,3.0,361.0,-41.0,115,55,53,68,62,456,560,527
2025-02-20 16:40:45.800,744.0,-529.0,2092.0,-116.0,395.0,44.0,111,56,53,68,61,401,641,530
2025-02-20 16:40:45.818,298.0,-368.0,951.0,-196.0,377.0,46.0,111,56,54,69,58,449,653,486
2025-02-20 16:40:45.836,-8.0,-436.0,994.0,-250.0,337.0,61.0,113,56,54,70,64,233,626,458
2025-02-20 16:40:45.859,-343.0,-372.0,687.0,-240.0,283.0,53.0,111,56,54,71,64,245,550,409
2025-02-20 16:40:45.876,-237.0,-480.0,565.0,-214.0,240.0,46.0,111,56,54,70,63,377,583,610
2025-02-20 16:40:45.895,-185.0,-441.0,559.0,-208.0,257.0,55.0,112,56,55,70,63,577,579,610
2025-02-20 16:40:45.914,-393.0,-456.0,269.0,-182.0,242.0,62.0,114,57,56,69,63,536,528,555
2025-02-20 16:40:45.933,-464.0,-423.0,164.0,-153.0,202.0,87.0,113,57,56,69,63,538,386,513
2025-02-20 16:40:45.953,-459.0,-385.0,45.0,-124.0,176.0,106.0,112,58,56,70,64,450,314,487
2025-02-20 16:40:45.974,-303.0,-233.0,145.0,-94.0,176.0,122.0,113,57,56,70,64,389,356,459
2025-02-20 16:40:45.990,-430.0,-178.0,124.0,-41.0,180.0,113.0,115,58,57,68,64,397,394,426
2025-02-20 16:40:46.010,-526.0,13.0,-98.0,-13.0,158.0,79.0,114,57,57,68,63,466,470,406
2025-02-20 16:40:46.027,-703.0,155.0,-234.0,3.0,87.0,51.0,115,59,56,67,64,482,517,426
2025-02-20 16:40:46.047,-442.0,98.0,-285.0,18.0,55.0,39.0,115,57,57,67,64,619,574,450
2025-02-20 16:40:46.068,-762.0,381.0,-926.0,57.0,-20.0,22.0,107,58,57,65,64,661,547,464
2025-02-20 16:40:46.085,-1274.0,723.0,-2238.0,213.0,-176.0,-90.0,107,58,58,66,61,686,511,451
2025-02-20 16:40:46.103,-1790.0,1623.0,-3154.0,314.0,-511.0,-318.0,102,56,51,65,57,629,467,454
2025-02-20 16:40:46.124,586.0,1569.0,-3020.0,259.0,-983.0,-413.0,99,55,55,66,57,507,402,454
2025-02-20 16:40:46.142,3992.0,222.0,-619.0,162.0,-1169.0,-341.0,104,55,54,66,60,427,370,452
2025-02-20 16:40:46.162,5059.0,-2233.0,2833.0,369.0,-886.0,-179.0,114,55,54,69,63,398,306,461
2025-02-20 16:40:46.182,3484.0,-1087.0,5478.0,452.0,-256.0,-11.0,121,56,57,70,66,482,246,469
2025-02-20 16:40:46.199,2134.0,297.0,5101.0,127.0,283.0,-30.0,125,57,57,72,67,445,326,462
2025-02-20 16:40:46.219,1447.0,-13.0,2601.0,-181.0,460.0,10.0,123,59,60,72,69,295,541,437
2025-02-20 16:40:46.239,591.0,-308.0,1212.0,-189.0,419.0,36.0,128,56,60,75,71,259,633,362
2025-02-20 16:40:46.257,510.0,-359.0,1128.0,-222.0,372.0,60.0,129,59,61,77,73,173,612,311
2025-02-20 16:40:46.276,-21.0,-612.0,825.0,-240.0,314.0,105.0,131,59,62,76,73,305,528,305
2025-02-20 16:40:46.290,-4.0,-622.0,729.0,-235.0,263.0,139.0,130,60,63,77,73,464,512,385
2025-02-20 16:40:46.313,-40.0,-653.0,575.0,-199.0,242.0,154.0,130,61,63,76,74,610,582,545
2025-02-20 16:40:46.333,-199.0,-718.0,478.0,-142.0,225.0,174.0,132,64,64,77,75,651,574,586
2025-02-20 16:40:46.350,-229.0,-625.0,421.0,-67.0,225.0,197.0,134,71,62,78,75,557,567,547
2025-02-20 16:40:46.371,-361.0,-293.0,396.0,-34.0,213.0,200.0,133,78,63,78,75,461,527,505
2025-02-20 16:40:46.390,-186.0,-108.0,342.0,-10.0,237.0,194.0,133,83,64,79,76,450,376,482
2025-02-20 16:40:46.408,-483.0,-75.0,113.0,30.0,240.0,168.0,132,85,64,77,77,447,264,480
2025-02-20 16:40:46.428,-652.0,185.0,-85.0,68.0,193.0,127.0,133,87,64,79,76,351,316,472
2025-02-20 16:40:46.448,-872.0,297.0,-246.0,43.0,117.0,78.0,133,91,63,76,76,379,463,464
2025-02-20 16:40:46.466,-1025.0,354.0,-530.0,20.0,-11.0,13.0,131,92,61,73,73,458,549,478
2025-02-20 16:40:46.486,-913.0,333.0,-842.0,50.0,-129.0,-47.0,128,93,61,72,71,542,570,497
2025-02-20 16:40:46.502,-1146.0,698.0,-1591.0,141.0,-257.0,-148.0,116,96,58,71,64,622,522,484
2025-02-20 16:40:46.519,-1085.0,1070.0,-2235.0,209.0,-622.0,-253.0,101,102,56,70,57,651,532,476
2025-02-20 16:40:46.543,1288.0,330.0,-2137.0,223.0,-975.0,-234.0,91,106,55,68,57,586,531,441
2025-02-20 16:40:46.560,2983.0,66.0,-836.0,249.0,-1113.0,-186.0,93,107,53,68,59,497,434,399
2025-02-20 16:40:46.580,3381.0,-182.0,1539.0,372.0,-1012.0,-185.0,100,111,54,69,62,485,353,399
2025-02-20 16:40:46.600,3411.0,-146.0,3783.0,439.0,-495.0,-22.0,109,114,56,70,65,567,316,454
2025-02-20 16:40:46.617,2022.0,1224.0,4417.0,57.0,-115.0,-64.0,114,116,56,72,66,633,292,456
2025-02-20 16:40:46.637,1969.0,-93.0,3046.0,-51.0,173.0,-35.0,105,116,55,72,63,514,302,455
2025-02-20 16:40:46.657,1157.0,159.0,1568.0,-96.0,251.0,-20.0,102,116,55,71,61,420,388,425
2025-02-20 16:40:46.674,817.0,-319.0,1275.0,-116.0,241.0,-4.0,104,116,57,72,63,443,500,390
2025-02-20 16:40:46.694,622.0,-157.0,1500.0,-145.0,278.0,37.0,109,117,57,71,65,519,536,379
2025-02-20 16:40:46.714,510.0,-40.0,1308.0,-225.0,333.0,73.0,112,117,57,74,68,525,570,463
2025-02-20 16:40:46.731,384.0,-443.0,918.0,-186.0,326.0,109.0,102,115,56,76,68,555,532,543
2025-02-20 16:40:46.752,320.0,-292.0,742.0,-90.0,258.0,89.0,99,113,57,73,68,479,470,560
2025-02-20 16:40:46.769,268.0,-161.0,1234.0,-79.0,288.0,63.0,100,111,59,73,68,394,460,521
2025-02-20 16:40:46.789,213.0,84.0,978.0,-155.0,371.0,70.0,105,106,59,75,68,286,483,479
2025-02-20 16:40:46.809,-196.0,-84.0,459.0,-166.0,351.0,82.0,107,98,59,73,69,293,466,455
2025-02-20 16:40:46.826,-171.0,-234.0,296.0,-122.0,286.0,110.0,104,95,59,74,68,259,421,424
2025-02-20 16:40:46.846,-133.0,-153.0,273.0,-104.0,262.0,122.0,105,99,59,75,69,286,469,436
2025-02-20 16:40:46.866,-430.0,-105.0,6.0,-81.0,230.0,103.0,108,102,59,74,68,324,516,502
2025-02-20 16:40:46.883,-748.0,38.0,-209.0,-7.0,146.0,70.0,105,103,59,74,67,387,593,531
2025-02-20 16:40:46.903,-725.0,190.0,-507.0,52.0,70.0,11.0,101,102,59,73,66,454,636,518
2025-02-20 16:40:46.924,-1305.0,473.0,-1202.0,92.0,-101.0,-66.0,98,103,58,74,65,522,622,492
2025-02-20 16:40:46.941,-1499.0,460.0,-2313.0,188.0,-397.0,-156.0,93,105,56,72,62,542,483,448
2025-02-20 16:40:46.961,84.0,495.0,-2896.0,266.0,-883.0,-175.0,88,108,56,69,58,522,376,435
2025-02-20 16:40:46.981,2863.0,642.0,-1231.0,277.0,-1101.0,-147.0,92,110,56,70,61,544,315,440
2025-02-20 16:40:46.998,3162.0,-102.0,1082.0,262.0,-1034.0,-132.0,100,110,55,70,64,590,280,441
2025-02-20 16:40:47.018,3247.0,-161.0,2714.0,364.0,-679.0,-41.0,114,112,55,70,68,590,280,439
2025-02-20 16:40:47.035,2812.0,874.0,4206.0,262.0,-274.0,-26.0,121,114,57,71,71,521,323,451
2025-02-20 16:40:47.055,2474.0,600.0,4467.0,-13.0,154.0,-22.0,121,114,58,72,70,494,348,432
2025-02-20 16:40:47.075,1793.0,403.0,2342.0,-147.0,372.0,22.0,122,113,57,72,69,435,413,397
2025-02-20 16:40:47.091,1237.0,82.0,1445.0,-207.0,435.0,48.0,121,113,59,72,70,430,517,426
2025-02-20 16:40:47.112,1064.0,-174.0,1173.0,-224.0,439.0,72.0,123,111,59,73,72,499,548,466
2025-02-20 16:40:47.133,938.0,-391.0,1081.0,-213.0,445.0,131.0,122,112,59,74,70,440,531,462
2025-02-20 16:40:47.150,685.0,-221.0,1087.0,-223.0,437.0,158.0,123,111,60,68,71,504,521,509
2025-02-20 16:40:47.170,345.0,47.0,908.0,-266.0,407.0,156.0,126,110,61,75,72,509,543,538
2025-02-20 16:40:47.189,249.0,-117.0,853.0,-254.0,369.0,119.0,128,107,61,75,70,470,500,525
2025-02-20 16:40:47.206,384.0,-158.0,903.0,-202.0,421.0,124.0,127,106,61,76,73,347,452,493
2025-02-20 16:40:47.224,111.0,-245.0,312.0,-123.0,441.0,123.0,128,107,64,76,75,272,478,457
2025-02-20 16:40:47.244,-2611.0,-2002.0,426.0,5.0,398.0,92.0,128,108,67,80,88,261,469,418
2025-02-20 16:40:47.264,14.0,-334.0,261.0,-60.0,376.0,126.0,127,106,73,87,96,229,463,427
2025-02-20 16:40:47.284,-237.0,36.0,-514.0,154.0,344.0,81.0,126,106,77,95,100,261,462,443
2025-02-20 16:40:47.301,-657.0,257.0,-616.0,201.0,264.0,20.0,124,106,80,103,101,521,484,452
2025-02-20 16:40:47.321,-979.0,893.0,-1336.0,133.0,100.0,-12.0,122,106,82,109,102,660,497,446
2025-02-20 16:40:47.339,-1248.0,981.0,-1978.0,64.0,-134.0,-100.0,120,108,83,112,103,638,502,450
2025-02-20 16:40:47.359,-1122.0,972.0,-2181.0,-15.0,-401.0,-278.0,117,112,88,114,109,609,487,453
2025-02-20 16:40:47.379,-887.0,989.0,-1993.0,-110.0,-651.0,-428.0,119,116,89,115,120,547,449,459
2025-02-20 16:40:47.399,218.0,1276.0,-1230.0,-109.0,-784.0,-576.0,121,120,94,121,124,397,396,457
2025-02-20 16:40:47.416,2484.0,-5.0,-458.0,-345.0,-1000.0,-554.0,122,124,97,126,126,296,341,462
2025-02-20 16:40:47.435,3220.0,-2378.0,709.0,-301.0,-914.0,-321.0,122,128,101,129,126,185,296,467
2025-02-20 16:40:47.456,3598.0,-3273.0,1424.0,-91.0,-458.0,-35.0,124,130,105,131,127,351,329,452
2025-02-20 16:40:47.473,2932.0,-3290.0,1570.0,94.0,-16.0,73.0,126,131,105,133,129,541,499,443
2025-02-20 16:40:47.492,1529.0,-2150.0,1463.0,178.0,265.0,57.0,126,129,104,133,129,519,545,438
2025-02-20 16:40:47.510,527.0,-1299.0,1093.0,167.0,313.0,80.0,126,130,106,133,129,421,556,394
2025-02-20 16:40:47.530,218.0,-825.0,816.0,93.0,265.0,137.0,129,129,105,131,129,256,540,404
2025-02-20 16:40:47.550,80.0,-803.0,786.0,-30.0,210.0,152.0,128,130,106,132,129,283,538,385
2025-02-20 16:40:47.567,141.0,-808.0,734.0,-112.0,182.0,134.0,127,131,106,132,129,495,544,507
2025-02-20 16:40:47.586,101.0,-1035.0,678.0,-134.0,154.0,145.0,126,132,107,132,129,554,533,519
2025-02-20 16:40:47.606,161.0,-1047.0,576.0,-69.0,126.0,159.0,126,132,107,133,130,614,577,524
2025-02-20 16:40:47.625,0.0,-900.0,534.0,-28.0,120.0,195.0,125,132,107,132,130,613,522,529
2025-02-20 16:40:47.642,-13.0,-732.0,421.0,-3.0,121.0,203.0,127,132,106,133,130,538,509,506
2025-02-20 16:40:47.661,6.0,-513.0,522.0,-31.0,122.0,207.0,128,130,106,133,130,495,474,492
2025-02-20 16:40:47.682,-36.0,-392.0,447.0,24.0,181.0,203.0,127,128,107,133,129,449,393,501
2025-02-20 16:40:47.702,-208.0,-329.0,312.0,35.0,174.0,189.0,126,127,105,132,129,420,330,518
2025-02-20 16:40:47.719,-470.0,-31.0,256.0,52.0,172.0,162.0,127,127,106,133,130,466,360,512
2025-02-20 16:40:47.739,-431.0,177.0,80.0,80.0,172.0,131.0,126,127,106,132,130,631,437,509
2025-02-20 16:40:47.759,-641.0,553.0,-227.0,149.0,169.0,81.0,125,126,105,133,130,665,474,492
2025-02-20 16:40:47.775,-1174.0,1300.0,-1056.0,163.0,61.0,-30.0,124,126,104,133,131,654,473,480
2025-02-20 16:40:47.796,-1430.0,1451.0,-1326.0,111.0,-181.0,-267.0,123,127,108,133,132,605,468,476
2025-02-20 16:40:47.816,-1048.0,1333.0,-1129.0,9.0,-432.0,-454.0,124,129,107,133,132,499,442,468
2025-02-20 16:40:47.834,-57.0,494.0,-439.0,-54.0,-630.0,-573.0,127,129,107,133,133,382,450,459
2025-02-20 16:40:47.853,2505.0,-63.0,-124.0,-165.0,-883.0,-514.0,122,130,107,134,133,326,443,456
2025-02-20 16:40:47.874,3171.0,-2266.0,1699.0,-245.0,-686.0,-276.0,119,131,108,134,133,320,381,452
2025-02-20 16:40:47.891,3104.0,-3417.0,1731.0,-42.0,-259.0,-16.0,120,132,109,133,133,443,309,460
2025-02-20 16:40:47.908,2544.0,-3072.0,1617.0,151.0,159.0,73.0,122,131,109,134,134,498,403,480
2025-02-20 16:40:47.926,1283.0,-1825.0,1375.0,176.0,315.0,64.0,122,129,108,135,133,460,430,466
2025-02-20 16:40:47.945,524.0,-1222.0,943.0,124.0,337.0,102.0,123,128,108,134,132,258,509,429
2025-02-20 16:40:47.968,282.0,-946.0,811.0,37.0,281.0,146.0,124,127,107,134,132,79,532,360
2025-02-20 16:40:47.985,98.0,-883.0,740.0,-40.0,202.0,155.0,124,130,108,135,131,307,522,422
2025-02-20 16:40:48.005,110.0,-1012.0,1413.0,-59.0,241.0,123.0,124,131,107,134,131,394,543,475
2025-02-20 16:40:48.025,186.0,-999.0,711.0,-41.0,232.0,130.0,124,131,107,134,130,441,592,483
2025-02-20 16:40:48.042,35.0,-867.0,538.0,52.0,245.0,162.0,127,131,106,134,128,563,540,487
2025-02-20 16:40:48.061,-5.0,-541.0,395.0,46.0,246.0,185.0,128,130,102,130,122,538,431,466
2025-02-20 16:40:48.083,-154.0,-408.0,425.0,29.0,251.0,210.0,130,127,97,126,113,476,416,444
2025-02-20 16:40:48.100,-282.0,-350.0,160.0,53.0,254.0,227.0,131,123,88,120,104,504,438,451
2025-02-20 16:40:48.119,-378.0,-12.0,66.0,26.0,210.0,241.0,133,118,79,113,96,530,477,483
2025-02-20 16:40:48.137,-390.0,-86.0,-115.0,107.0,263.0,235.0,134,114,67,106,87,560,554,458
2025-02-20 16:40:48.157,-482.0,-31.0,-445.0,184.0,261.0,203.0,132,108,62,98,76,622,494,444
2025-02-20 16:40:48.177,-703.0,432.0,-997.0,262.0,172.0,133.0,133,102,57,89,69,603,412,463
2025-02-20 16:40:48.194,-1348.0,692.0,-1305.0,313.0,-20.0,-16.0,130,93,50,75,64,575,399,494
2025-02-20 16:40:48.213,-1529.0,1146.0,-1840.0,260.0,-381.0,-177.0,119,95,48,66,60,605,433,491
2025-02-20 16:40:48.234,-785.0,1398.0,-2387.0,283.0,-811.0,-279.0,97,102,49,63,59,539,422,466
2025-02-20 16:40:48.251,2594.0,525.0,-1532.0,185.0,-1112.0,-181.0,85,104,49,68,61,372,389,423
2025-02-20 16:40:48.271,3678.0,-531.0,253.0,218.0,-1148.0,-60.0,89,106,48,67,64,462,337,372
2025-02-20 16:40:48.292,3372.0,-778.0,2596.0,316.0,-853.0,28.0,101,108,47,69,71,592,336,416
2025-02-20 16:40:48.308,2864.0,2.0,3759.0,360.0,-380.0,41.0,110,110,47,71,75,591,431,490
2025-02-20 16:40:48.329,1963.0,1073.0,4272.0,107.0,-6.0,-9.0,113,111,50,75,76,421,442,513
2025-02-20 16:40:48.345,1508.0,556.0,3211.0,-107.0,305.0,-36.0,114,113,51,74,76,415,406,473
2025-02-20 16:40:48.366,1116.0,13.0,1673.0,-178.0,400.0,-35.0,110,113,51,76,75,359,447,429
2025-02-20 16:40:48.386,766.0,-281.0,1099.0,-169.0,359.0,-20.0,107,113,51,79,74,242,586,446
2025-02-20 16:40:48.403,499.0,-519.0,861.0,-125.0,314.0,16.0,103,113,52,80,74,239,573,478
2025-02-20 16:40:48.423,407.0,-241.0,1054.0,-138.0,280.0,41.0,103,113,52,79,75,312,550,490
2025-02-20 16:40:48.443,214.0,-141.0,1042.0,-193.0,260.0,38.0,101,113,52,77,73,548,594,563
2025-02-20 16:40:48.460,274.0,-421.0,1021.0,-174.0,266.0,55.0,101,112,52,75,71,585,528,582
2025-02-20 16:40:48.480,288.0,-380.0,1014.0,-145.0,307.0,76.0,101,112,53,75,70,523,434,532
2025-02-20 16:40:48.500,6.0,-272.0,626.0,-114.0,310.0,83.0,103,111,54,77,71,394,380,458
2025-02-20 16:40:48.517,-130.0,-206.0,434.0,-97.0,283.0,92.0,104,113,54,77,71,366,352,406
2025-02-20 16:40:48.537,-214.0,-185.0,371.0,-92.0,256.0,98.0,104,114,54,77,71,313,353,394
2025-02-20 16:40:48.555,-289.0,-98.0,229.0,-99.0,233.0,105.0,103,114,54,77,71,317,415,368
2025-02-20 16:40:48.574,-400.0,-162.0,60.0,-83.0,183.0,104.0,108,114,55,77,72,353,467,419
2025-02-20 16:40:48.595,-452.0,-36.0,-31.0,-61.0,151.0,99.0,111,114,55,78,70,522,516,447
2025-02-20 16:40:48.612,-709.0,189.0,-264.0,-43.0,89.0,92.0,108,113,54,77,71,647,569,468
2025-02-20 16:40:48.630,-1059.0,716.0,-1093.0,7.0,-11.0,-19.0,100,113,53,75,68,687,576,476
2025-02-20 16:40:48.652,-1634.0,788.0,-1746.0,142.0,-216.0,-198.0,97,112,52,72,64,645,537,464
2025-02-20 16:40:48.669,-1369.0,895.0,-2475.0,263.0,-654.0,-315.0,88,112,52,69,62,582,507,467
2025-02-20 16:40:48.689,1238.0,660.0,-1864.0,268.0,-954.0,-240.0,86,114,51,71,63,476,465,470
2025-02-20 16:40:48.709,3497.0,-278.0,-330.0,273.0,-1054.0,-150.0,90,117,52,73,67,482,401,480
2025-02-20 16:40:48.727,3460.0,-1136.0,2500.0,358.0,-807.0,-37.0,100,118,52,75,70,471,323,495
2025-02-20 16:40:48.746,3250.0,-247.0,3728.0,368.0,-337.0,60.0,111,119,53,75,76,505,255,467
2025-02-20 16:40:48.763,2322.0,729.0,4185.0,102.0,3.0,32.0,120,123,55,78,79,568,350,449
2025-02-20 16:40:48.782,1634.0,334.0,3178.0,-142.0,258.0,30.0,124,119,55,82,83,522,505,413
2025-02-20 16:40:48.803,1229.0,47.0,2056.0,-267.0,414.0,38.0,123,119,55,84,83,418,545,359
2025-02-20 16:40:48.821,973.0,-406.0,1047.0,-264.0,448.0,70.0,123,119,57,84,83,379,604,323
2025-02-20 16:40:48.841,761.0,-611.0,975.0,-180.0,425.0,118.0,120,118,59,83,84,201,651,348
2025-02-20 16:40:48.860,509.0,-340.0,897.0,-179.0,392.0,143.0,123,117,57,82,81,137,612,432
2025-02-20 16:40:48.878,361.0,-202.0,893.0,-218.0,371.0,169.0,123,117,58,85,78,403,556,570
2025-02-20 16:40:48.898,225.0,-241.0,882.0,-265.0,374.0,194.0,129,114,59,86,77,523,501,577
2025-02-20 16:40:48.918,376.0,-310.0,709.0,-277.0,388.0,232.0,128,109,61,86,75,487,437,557
2025-02-20 16:40:48.932,239.0,-324.0,370.0,-211.0,392.0,249.0,128,107,62,88,75,340,411,558
2025-02-20 16:40:48.956,-100.0,-285.0,178.0,-84.0,411.0,218.0,126,105,67,90,74,336,400,500
2025-02-20 16:40:48.975,-578.0,14.0,-348.0,41.0,374.0,154.0,128,104,69,92,72,364,403,440
2025-02-20 16:40:48.992,-708.0,375.0,-332.0,101.0,316.0,82.0,128,105,72,92,71,430,439,415
2025-02-20 16:40:49.013,-637.0,720.0,-446.0,90.0,229.0,32.0,128,106,75,93,72,483,462,429
2025-02-20 16:40:49.030,-734.0,780.0,-1062.0,96.0,145.0,-22.0,130,109,80,92,73,532,456,433
2025-02-20 16:40:49.050,-1157.0,1027.0,-1394.0,122.0,-6.0,-132.0,130,112,84,89,73,644,437,424
2025-02-20 16:40:49.070,-1236.0,1479.0,-1716.0,143.0,-228.0,-300.0,130,116,91,85,70,663,442,424
2025-02-20 16:40:49.088,-786.0,1707.0,-1904.0,113.0,-474.0,-527.0,127,119,94,82,68,604,418,439
2025-02-20 16:40:49.107,345.0,1478.0,-1635.0,50.0,-808.0,-647.0,124,124,97,86,73,510,386,453
2025-02-20 16:40:49.127,2515.0,767.0,-290.0,-161.0,-995.0,-656.0,125,127,100,89,77,371,385,469
2025-02-20 16:40:49.144,3685.0,-2249.0,908.0,-214.0,-924.0,-425.0,123,129,102,92,82,413,359,484
2025-02-20 16:40:49.165,4032.0,-3584.0,1666.0,-97.0,-481.0,-112.0,125,130,103,94,83,532,407,473
2025-02-20 16:40:49.185,3731.0,-3381.0,2065.0,43.0,-25.0,87.0,125,132,104,95,80,615,484,454
2025-02-20 16:40:49.199,1593.0,-2005.0,1385.0,11.0,218.0,105.0,125,130,104,98,73,463,491,457
2025-02-20 16:40:49.221,521.0,-1177.0,840.0,-44.0,189.0,106.0,127,128,103,101,64,283,507,430
2025-02-20 16:40:49.241,285.0,-1224.0,606.0,-82.0,117.0,150.0,127,128,104,103,63,339,537,462
2025-02-20 16:40:49.258,249.0,-1285.0,582.0,-23.0,91.0,176.0,126,127,104,102,66,397,511,502
2025-02-20 16:40:49.278,337.0,-1184.0,751.0,41.0,128.0,162.0,127,127,105,101,69,489,423,533
2025-02-20 16:40:49.296,400.0,-1122.0,837.0,84.0,184.0,139.0,127,129,105,100,71,359,506,465
2025-02-20 16:40:49.316,278.0,-993.0,704.0,92.0,219.0,149.0,126,130,105,97,72,429,499,422
2025-02-20 16:40:49.336,131.0,-707.0,570.0,73.0,230.0,173.0,126,130,105,94,74,415,432,473
2025-02-20 16:40:49.353,6.0,-460.0,545.0,57.0,234.0,190.0,126,131,105,89,74,376,401,534
2025-02-20 16:40:49.373,-18.0,-400.0,511.0,40.0,254.0,194.0,127,130,106,90,76,463,441,554
2025-02-20 16:40:49.392,-145.0,-327.0,307.0,48.0,264.0,198.0,127,131,107,89,75,492,471,540
2025-02-20 16:40:49.411,-355.0,-90.0,168.0,36.0,235.0,208.0,128,130,107,90,73,552,434,463
2025-02-20 16:40:49.430,-300.0,50.0,37.0,25.0,205.0,201.0,128,130,105,90,73,546,454,445
2025-02-20 16:40:49.448,-323.0,143.0,46.0,30.0,203.0,164.0,128,129,107,91,75,577,513,483
2025-02-20 16:40:49.468,-721.0,417.0,-155.0,31.0,157.0,118.0,129,128,106,91,71,581,521,526
2025-02-20 16:40:49.488,-1295.0,1000.0,-1042.0,43.0,6.0,4.0,130,127,106,89,70,550,496,512
2025-02-20 16:40:49.508,-1498.0,1226.0,-1291.0,121.0,-201.0,-221.0,129,127,107,85,67,537,468,498
2025-02-20 16:40:49.524,-1221.0,1245.0,-1289.0,182.0,-416.0,-409.0,124,129,107,81,67,501,467,490
2025-02-20 16:40:49.545,182.0,763.0,-1091.0,146.0,-746.0,-497.0,119,129,106,83,71,405,413,482
2025-02-20 16:40:49.562,2311.0,222.0,-425.0,60.0,-932.0,-431.0,119,129,107,88,77,361,352,462
2025-02-20 16:40:49.583,3375.0,-2401.0,1426.0,19.0,-823.0,-239.0,123,131,107,87,82,339,359,436
2025-02-20 16:40:49.602,3281.0,-3091.0,2485.0,192.0,-289.0,-1.0,127,131,105,93,85,493,404,431
2025-02-20 16:40:49.619,2535.0,-1574.0,2221.0,140.0,34.0,103.0,129,130,107,98,85,658,481,407
2025-02-20 16:40:49.640,870.0,-538.0,2206.0,-32.0,194.0,79.0,131,129,105,102,75,566,590,451
2025-02-20 16:40:49.660,649.0,-857.0,1389.0,-79.0,224.0,82.0,131,127,102,103,70,434,653,480
2025-02-20 16:40:49.677,447.0,-1029.0,1109.0,-68.0,227.0,101.0,132,124,100,104,70,392,704,416
2025-02-20 16:40:49.696,394.0,-996.0,1256.0,-57.0,263.0,122.0,133,122,92,104,72,322,569,413
2025-02-20 16:40:49.713,368.0,-921.0,1116.0,-21.0,311.0,145.0,134,123,80,104,73,385,514,483
2025-02-20 16:40:49.734,310.0,-864.0,901.0,30.0,349.0,155.0,133,123,78,102,72,450,514,494
2025-02-20 16:40:49.753,184.0,-725.0,780.0,4.0,355.0,152.0,135,121,70,99,71,468,441,501
2025-02-20 16:40:49.769,64.0,-526.0,655.0,-19.0,363.0,163.0,135,119,63,97,71,365,425,486
2025-02-20 16:40:49.791,-88.0,-333.0,298.0,-39.0,338.0,166.0,136,116,58,96,69,305,511,456
2025-02-20 16:40:49.811,-500.0,-213.0,148.0,-62.0,281.0,169.0,136,114,56,94,67,298,457,479
2025-02-20 16:40:49.828,-463.0,-202.0,41.0,-72.0,222.0,178.0,135,113,54,96,66,299,345,482
2025-02-20 16:40:49.848,-468.0,-231.0,-63.0,-58.0,170.0,179.0,132,112,53,95,66,365,335,461
2025-02-20 16:40:49.868,-636.0,-93.0,-236.0,-3.0,127.0,152.0,132,113,53,93,66,439,313,484
2025-02-20 16:40:49.884,-796.0,32.0,-318.0,76.0,72.0,108.0,128,111,54,92,65,590,316,474
2025-02-20 16:40:49.905,-1059.0,330.0,-612.0,133.0,-27.0,26.0,118,108,52,88,64,655,337,449
2025-02-20 16:40:49.925,-1396.0,510.0,-1222.0,281.0,-172.0,-88.0,105,104,51,81,61,632,365,427
2025-02-20 16:40:49.942,-1406.0,1039.0,-1979.0,333.0,-435.0,-234.0,92,106,52,73,60,566,410,418
2025-02-20 16:40:49.963,163.0,878.0,-2146.0,317.0,-863.0,-264.0,83,110,52,68,62,505,419,405
2025-02-20 16:40:49.980,2393.0,84.0,-1382.0,291.0,-1048.0,-144.0,83,110,52,71,65,542,437,396
2025-02-20 16:40:50.000,3437.0,-141.0,352.0,303.0,-1011.0,-82.0,88,112,49,72,68,601,441,421
2025-02-20 16:40:50.019,3187.0,-355.0,2392.0,345.0,-750.0,-20.0,99,112,52,68,69,627,429,451
2025-02-20 16:40:50.037,2773.0,424.0,3634.0,310.0,-351.0,10.0,115,115,52,70,73,651,462,483
2025-02-20 16:40:50.057,2000.0,837.0,4009.0,64.0,-15.0,13.0,119,115,53,71,72,581,536,472
2025-02-20 16:40:50.077,1689.0,442.0,3034.0,-126.0,283.0,38.0,120,115,53,72,71,481,525,458
2025-02-20 16:40:50.095,1329.0,359.0,1837.0,-243.0,445.0,42.0,119,113,55,73,72,373,553,426
2025-02-20 16:40:50.115,1032.0,-33.0,990.0,-245.0,467.0,36.0,115,114,54,72,72,380,553,422
2025-02-20 16:40:50.132,649.0,-435.0,702.0,-182.0,411.0,45.0,109,117,54,75,73,367,607,438
2025-02-20 16:40:50.152,463.0,-398.0,638.0,-94.0,346.0,41.0,109,117,55,76,73,244,595,470
2025-02-20 16:40:50.172,170.0,-303.0,809.0,-74.0,303.0,28.0,110,118,55,75,75,366,527,594
2025-02-20 16:40:50.188,77.0,-263.0,822.0,-95.0,289.0,28.0,111,119,55,79,75,485,512,587
2025-02-20 16:40:50.208,-120.0,-343.0,665.0,-94.0,262.0,59.0,107,119,55,80,73,503,494,545
2025-02-20 16:40:50.229,-205.0,-298.0,608.0,-87.0,207.0,76.0,106,119,56,79,72,458,449,523
2025-02-20 16:40:50.246,-145.0,-132.0,706.0,-112.0,204.0,90.0,107,119,56,80,71,340,423,507
2025-02-20 16:40:50.265,-178.0,-232.0,652.0,-129.0,216.0,104.0,109,119,56,81,70,343,426,488
2025-02-20 16:40:50.285,-315.0,-294.0,451.0,-101.0,203.0,110.0,109,119,60,80,70,362,418,446
2025-02-20 16:40:50.303,-437.0,-249.0,295.0,-37.0,165.0,86.0,109,119,56,81,68,377,446,425
2025-02-20 16:40:50.321,-302.0,-75.0,337.0,17.0,172.0,75.0,109,120,57,81,68,381,462,419
2025-02-20 16:40:50.340,-519.0,509.0,-54.0,-7.0,170.0,58.0,108,121,58,81,69,401,473,433
2025-02-20 16:40:50.360,-1727.0,959.0,-1507.0,56.0,-47.0,-103.0,98,122,54,77,66,448,460,424
2025-02-20 16:40:50.381,-1725.0,812.0,-2182.0,202.0,-389.0,-267.0,92,123,55,72,63,456,467,437
2025-02-20 16:40:50.398,-140.0,476.0,-2008.0,213.0,-716.0,-244.0,89,126,55,72,64,505,446,452
2025-02-20 16:40:50.418,1480.0,149.0,-1369.0,249.0,-907.0,-176.0,91,126,56,72,71,584,441,457
2025-02-20 16:40:50.438,2812.0,-135.0,298.0,277.0,-929.0,-138.0,97,127,56,71,70,601,399,473
2025-02-20 16:40:50.456,3260.0,-790.0,1915.0,331.0,-703.0,-29.0,111,127,54,72,72,669,363,464
2025-02-20 16:40:50.475,2927.0,203.0,3235.0,303.0,-416.0,12.0,123,129,54,74,75,669,380,445
2025-02-20 16:40:50.495,2114.0,362.0,3920.0,99.0,-57.0,26.0,129,129,56,78,75,586,483,428
2025-02-20 16:40:50.512,1677.0,272.0,2984.0,-88.0,241.0,61.0,131,129,57,80,74,501,566,411
2025-02-20 16:40:50.532,1439.0,193.0,2121.0,-220.0,420.0,91.0,132,128,60,82,75,481,585,361
2025-02-20 16:40:50.553,1255.0,-213.0,1268.0,-241.0,461.0,122.0,132,126,62,84,78,413,600,360
2025-02-20 16:40:50.570,962.0,-540.0,1135.0,-179.0,459.0,164.0,132,125,61,84,82,353,580,386
2025-02-20 16:40:50.590,603.0,-143.0,1115.0,-139.0,432.0,146.0,133,120,62,87,82,419,583,462
2025-02-20 16:40:50.606,426.0,17.0,985.0,-178.0,406.0,92.0,134,111,62,87,82,429,531,522
2025-02-20 16:40:50.627,183.0,-253.0,946.0,-237.0,395.0,87.0,137,99,63,86,79,414,498,529
2025-02-20 16:40:50.646,234.0,-417.0,718.0,-262.0,394.0,146.0,137,85,62,88,78,427,469,495
2025-02-20 16:40:50.664,-93.0,-343.0,527.0,-305.0,370.0,166.0,137,73,62,88,75,430,436,480
2025-02-20 16:40:50.684,-116.0,-311.0,393.0,-302.0,341.0,189.0,138,64,61,90,72,420,412,491
2025-02-20 16:40:50.702,-355.0,-235.0,404.0,-295.0,322.0,204.0,138,58,61,91,68,392,429,513
2025-02-20 16:40:50.721,-500.0,17.0,58.0,-151.0,286.0,177.0,136,52,60,93,65,382,466,531
2025-02-20 16:40:50.741,-873.0,376.0,-464.0,-37.0,179.0,86.0,136,53,58,93,64,431,488,511
2025-02-20 16:40:50.761,-824.0,1069.0,-482.0,-41.0,130.0,33.0,135,54,58,94,63,528,486,487
2025-02-20 16:40:50.778,-871.0,1555.0,-849.0,-6.0,104.0,-70.0,130,54,54,89,61,632,472,467
2025-02-20 16:40:50.799,-1089.0,2155.0,-1264.0,89.0,-30.0,-294.0,123,57,55,85,59,663,448,448
2025-02-20 16:40:50.819,-885.0,2229.0,-1865.0,98.0,-233.0,-495.0,115,56,53,81,57,615,422,435
2025-02-20 16:40:50.837,-439.0,1579.0,-2444.0,106.0,-529.0,-678.0,107,53,51,75,58,545,403,433
2025-02-20 16:40:50.855,2060.0,88.0,-1912.0,161.0,-909.0,-620.0,107,53,51,73,63,450,385,413
2025-02-20 16:40:50.872,4294.0,-2411.0,425.0,328.0,-867.0,-354.0,110,52,50,73,67,420,394,430
2025-02-20 16:40:50.893,3598.0,-2641.0,1432.0,502.0,-487.0,-250.0,119,53,51,68,69,599,427,440
2025-02-20 16:40:50.913,2446.0,-1391.0,2926.0,490.0,-253.0,-150.0,125,52,51,69,63,594,481,429
2025-02-20 16:40:50.930,2012.0,-849.0,3661.0,292.0,13.0,7.0,129,52,53,73,54,500,526,445
2025-02-20 16:40:50.950,1608.0,-565.0,3082.0,-74.0,175.0,125.0,129,51,54,74,55,326,541,428
2025-02-20 16:40:50.970,1156.0,-751.0,2229.0,-209.0,243.0,207.0,130,51,55,73,59,207,521,374
2025-02-20 16:40:50.987,793.0,-812.0,1553.0,-216.0,309.0,221.0,131,51,55,74,66,222,475,417
2025-02-20 16:40:51.006,664.0,-820.0,1315.0,-166.0,340.0,202.0,131,56,55,75,69,404,463,488
2025-02-20 16:40:51.027,595.0,-656.0,865.0,-141.0,397.0,176.0,131,59,57,77,73,386,569,530
2025-02-20 16:40:51.045,206.0,-550.0,499.0,-160.0,372.0,147.0,132,60,59,80,74,457,573,529
2025-02-20 16:40:51.064,13.0,-418.0,431.0,-182.0,332.0,135.0,132,60,59,83,76,399,521,499
2025-02-20 16:40:51.082,-287.0,-417.0,173.0,-163.0,284.0,149.0,132,61,59,84,76,256,479,511
2025-02-20 16:40:51.102,-337.0,-415.0,92.0,-146.0,234.0,168.0,132,61,60,86,73,205,451,522
2025-02-20 16:40:51.122,-444.0,-318.0,137.0,-154.0,165.0,179.0,132,61,59,87,71,320,377,520
2025-02-20 16:40:51.139,-349.0,-2.0,25.0,-138.0,180.0,153.0,131,58,59,87,69,556,333,523
2025-02-20 16:40:51.159,-541.0,-127.0,77.0,-93.0,132.0,108.0,132,57,61,87,69,676,360,510
2025-02-20 16:40:51.179,-602.0,308.0,-162.0,-27.0,60.0,95.0,133,59,62,89,67,847,462,483
2025-02-20 16:40:51.196,-1028.0,1246.0,-466.0,-8.0,37.0,37.0,130,58,61,89,67,792,508,458
2025-02-20 16:40:51.217,-1588.0,2269.0,-1251.0,180.0,-61.0,-229.0,128,60,61,89,65,702,512,439
2025-02-20 16:40:51.237,-1410.0,2409.0,-1434.0,227.0,-233.0,-542.0,126,61,60,83,63,630,500,435
2025-02-20 16:40:51.253,178.0,1488.0,-1644.0,230.0,-688.0,-703.0,122,59,56,76,67,494,413,434
2025-02-20 16:40:51.274,3328.0,-807.0,-342.0,133.0,-920.0,-613.0,120,57,55,82,72,392,307,440
2025-02-20 16:40:51.294,4387.0,-4976.0,3604.0,200.0,-433.0,-267.0,124,59,54,84,75,324,304,472
2025-02-20 16:40:51.309,3757.0,-3540.0,3407.0,254.0,217.0,16.0,126,59,54,81,73,378,419,466
2025-02-20 16:40:51.331,662.0,-637.0,1936.0,0.0,239.0,21.0,126,56,53,75,65,365,511,451
2025-02-20 16:40:51.348,267.0,-972.0,934.0,-272.0,170.0,125.0,125,55,55,74,60,273,560,443
2025-02-20 16:40:51.368,72.0,-1411.0,612.0,-247.0,130.0,144.0,125,54,55,77,60,106,550,404
2025-02-20 16:40:51.388,121.0,-1343.0,647.0,-87.0,171.0,135.0,125,54,56,83,65,128,516,408
2025-02-20 16:40:51.406,23.0,-849.0,578.0,55.0,223.0,91.0,128,57,57,89,69,430,433,465
2025-02-20 16:40:51.425,-335.0,-731.0,466.0,119.0,195.0,53.0,128,61,59,88,70,623,564,516
2025-02-20 16:40:51.445,-257.0,-594.0,377.0,84.0,154.0,57.0,129,62,58,90,72,725,577,517
2025-02-20 16:40:51.460,-308.0,-480.0,409.0,60.0,105.0,52.0,128,62,59,88,74,664,476,473
2025-02-20 16:40:51.482,-341.0,-483.0,500.0,98.0,103.0,41.0,127,63,59,88,77,401,402,474
2025-02-20 16:40:51.500,-452.0,-416.0,537.0,137.0,102.0,35.0,129,61,59,87,77,399,388,428
2025-02-20 16:40:51.520,-469.0,-332.0,483.0,163.0,101.0,28.0,130,62,59,87,78,345,392,439
2025-02-20 16:40:51.539,-498.0,-160.0,461.0,179.0,82.0,7.0,130,62,58,87,77,408,428,454
2025-02-20 16:40:51.557,-502.0,-75.0,321.0,215.0,74.0,-57.0,131,60,58,86,78,537,536,430
2025-02-20 16:40:51.577,-551.0,-311.0,188.0,255.0,42.0,-88.0,131,62,57,83,76,627,513,430
2025-02-20 16:40:51.597,-342.0,-699.0,59.0,281.0,-9.0,-73.0,131,62,54,77,74,598,490,417
2025-02-20 16:40:51.614,20.0,-1176.0,-89.0,326.0,-81.0,-28.0,131,61,54,75,75,594,455,433
2025-02-20 16:40:51.635,553.0,-2207.0,522.0,304.0,-137.0,149.0,131,61,53,72,73,556,499,446
2025-02-20 16:40:51.653,1361.0,-2571.0,1307.0,204.0,-137.0,406.0,134,60,52,72,72,431,504,417
2025-02-20 16:40:51.670,1861.0,-2077.0,1543.0,91.0,-101.0,611.0,138,59,52,68,70,423,462,426
2025-02-20 16:40:51.691,1232.0,-276.0,1734.0,-51.0,-92.0,619.0,142,58,53,68,71,413,430,464
2025-02-20 16:40:51.709,755.0,509.0,2100.0,-53.0,7.0,481.0,145,58,53,68,70,396,439,499
2025-02-20 16:40:51.729,45.0,1983.0,1449.0,-24.0,96.0,259.0,148,59,54,69,70,379,431,501
2025-02-20 16:40:51.749,-517.0,2156.0,970.0,-128.0,71.0,182.0,150,59,54,70,70,372,403,477
2025-02-20 16:40:51.766,-544.0,2080.0,941.0,-64.0,35.0,61.0,147,57,54,68,69,396,425,451
2025-02-20 16:40:51.786,-493.0,1949.0,1132.0,38.0,48.0,-39.0,150,58,54,70,70,451,472,472
2025-02-20 16:40:51.805,-425.0,1612.0,1051.0,63.0,58.0,-108.0,150,57,54,70,70,510,543,495
2025-02-20 16:40:51.823,-242.0,810.0,1023.0,39.0,51.0,-151.0,150,59,54,70,70,506,612,509
2025-02-20 16:40:51.841,-133.0,295.0,1005.0,13.0,33.0,-167.0,151,59,55,70,69,415,594,505
2025-02-20 16:40:51.863,-163.0,101.0,1007.0,4.0,27.0,-179.0,151,59,55,70,69,357,499,493
2025-02-20 16:40:51.880,-172.0,-72.0,1043.0,40.0,37.0,-198.0,151,58,54,70,69,369,434,475
2025-02-20 16:40:51.901,-193.0,-264.0,897.0,77.0,45.0,-180.0,150,59,55,70,69,423,429,419
2025-02-20 16:40:51.918,-356.0,-173.0,896.0,83.0,20.0,-174.0,150,59,55,70,69,426,466,397
2025-02-20 16:40:51.938,-375.0,-87.0,900.0,112.0,19.0,-212.0,150,59,54,69,70,426,385,424
2025-02-20 16:40:51.956,-349.0,-176.0,796.0,135.0,2.0,-256.0,150,59,56,69,71,556,364,414
2025-02-20 16:40:51.975,-218.0,-400.0,771.0,147.0,-24.0,-221.0,150,59,55,70,71,580,385,406
2025-02-20 16:40:51.995,-239.0,-291.0,828.0,114.0,-46.0,-182.0,149,59,55,70,73,528,439,422
2025-02-20 16:40:52.015,-107.0,-340.0,864.0,62.0,-67.0,-182.0,150,59,56,71,73,513,470,448
2025-02-20 16:40:52.033,32.0,-839.0,894.0,40.0,-85.0,-156.0,150,59,55,70,73,507,485,463
2025-02-20 16:40:52.052,426.0,-1509.0,1058.0,50.0,-74.0,-50.0,150,59,55,70,73,530,464,466
2025-02-20 16:40:52.072,598.0,-1921.0,1250.0,53.0,-46.0,112.0,149,59,54,70,73,558,429,496
2025-02-20 16:40:52.089,810.0,-1924.0,1245.0,-19.0,-57.0,285.0,149,59,54,70,72,551,428,517
2025-02-20 16:40:52.107,1314.0,-2227.0,1193.0,-129.0,-85.0,474.0,149,58,53,71,70,490,443,528
2025-02-20 16:40:52.129,1567.0,-1379.0,1345.0,-215.0,-114.0,608.0,149,60,54,70,68,447,436,529
2025-02-20 16:40:52.144,1338.0,-393.0,1512.0,-232.0,-107.0,593.0,149,59,54,70,67,492,443,522
2025-02-20 16:40:52.167,686.0,1712.0,1738.0,-265.0,-58.0,484.0,150,59,53,70,67,490,564,503
2025-02-20 16:40:52.182,288.0,2018.0,2160.0,-247.0,24.0,297.0,150,58,53,69,65,459,582,484
2025-02-20 16:40:52.204,181.0,1784.0,2357.0,-107.0,127.0,197.0,150,59,53,69,66,427,544,474
2025-02-20 16:40:52.223,-51.0,2086.0,2332.0,-60.0,198.0,87.0,149,59,53,68,65,445,524,477
2025-02-20 16:40:52.241,-117.0,1587.0,2167.0,-100.0,254.0,28.0,148,59,55,70,65,468,506,484
2025-02-20 16:40:52.252,-61.0,729.0,1667.0,-141.0,294.0,-6.0,145,60,54,70,65,424,525,491
2025-02-20 16:40:52.281,-85.0,125.0,1187.0,-173.0,296.0,-24.0,144,60,56,68,65,440,515,492
2025-02-20 16:40:52.299,-110.0,-220.0,872.0,-176.0,305.0,-26.0,143,59,54,68,65,528,461,479
2025-02-20 16:40:52.319,-132.0,-164.0,659.0,-188.0,325.0,-24.0,143,60,56,68,66,562,415,494
2025-02-20 16:40:52.339,-284.0,54.0,308.0,-193.0,322.0,-51.0,143,61,58,66,70,620,377,491
2025-02-20 16:40:52.356,-348.0,-72.0,4.0,-143.0,315.0,-71.0,143,62,60,66,73,510,383,472
2025-02-20 16:40:52.376,-437.0,-226.0,-171.0,-6.0,270.0,-60.0,141,65,63,70,78,401,364,447
2025-02-20 16:40:52.396,-402.0,-248.0,-192.0,117.0,223.0,-55.0,138,67,65,76,83,407,268,450
2025-02-20 16:40:52.413,-514.0,-60.0,-408.0,182.0,180.0,-67.0,137,70,69,89,87,504,379,513
2025-02-20 16:40:52.433,-596.0,62.0,-474.0,215.0,118.0,-77.0,137,73,72,96,88,594,432,524
2025-02-20 16:40:52.450,-493.0,88.0,-361.0,290.0,57.0,-106.0,135,78,74,104,91,588,439,480
2025-02-20 16:40:52.470,-863.0,639.0,-729.0,313.0,-25.0,-170.0,135,83,76,107,92,554,463,431
2025-02-20 16:40:52.490,-971.0,612.0,-933.0,290.0,-145.0,-258.0,134,90,78,110,97,479,551,398
2025-02-20 16:40:52.507,-843.0,472.0,-1104.0,259.0,-380.0,-393.0,134,101,84,114,104,421,632,409
2025-02-20 16:40:52.527,-256.0,252.0,-784.0,193.0,-657.0,-513.0,131,108,91,118,114,305,651,423
2025-02-20 16:40:52.547,1985.0,-413.0,-64.0,11.0,-987.0,-435.0,127,113,95,122,117,72,551,405
2025-02-20 16:40:52.565,3305.0,-1792.0,378.0,-21.0,-932.0,-210.0,132,113,97,125,120,178,460,435
2025-02-20 16:40:52.585,3712.0,-3068.0,1868.0,36.0,-577.0,-35.0,140,116,100,126,123,437,391,480
2025-02-20 16:40:52.605,3127.0,-2524.0,2796.0,41.0,-138.0,3.0,144,120,102,128,123,653,335,487
2025-02-20 16:40:52.621,1784.0,-1199.0,2077.0,127.0,204.0,60.0,147,119,102,127,122,614,416,498
2025-02-20 16:40:52.642,780.0,-804.0,1369.0,-17.0,281.0,99.0,147,114,101,128,117,504,539,504
2025-02-20 16:40:52.652,339.0,-761.0,1090.0,-71.0,241.0,165.0,147,112,100,128,116,411,563,503
2025-02-20 16:40:52.678,261.0,-615.0,924.0,-126.0,219.0,229.0,147,113,100,129,118,381,521,486
2025-02-20 16:40:52.699,225.0,-661.0,778.0,-126.0,200.0,255.0,145,113,100,128,118,295,495,506
2025-02-20 16:40:52.713,192.0,-775.0,819.0,-16.0,259.0,231.0,144,114,102,129,118,440,466,534
2025-02-20 16:40:52.737,138.0,-871.0,605.0,46.0,254.0,192.0,142,114,102,129,118,587,405,507
2025-02-20 16:40:52.756,72.0,-770.0,583.0,20.0,255.0,159.0,141,115,101,130,119,492,374,491
2025-02-20 16:40:52.774,-105.0,-506.0,449.0,-24.0,230.0,160.0,140,116,101,129,119,255,389,427
2025-02-20 16:40:52.793,-157.0,-436.0,481.0,-18.0,227.0,141.0,139,115,100,129,118,171,399,426
2025-02-20 16:40:52.810,-254.0,-408.0,408.0,24.0,226.0,119.0,139,114,101,130,118,216,400,450
2025-02-20 16:40:52.829,-418.0,-262.0,283.0,17.0,197.0,117.0,138,112,101,131,117,348,396,461
2025-02-20 16:40:52.851,-477.0,-196.0,264.0,-30.0,140.0,115.0,139,113,100,129,118,471,405,467
2025-02-20 16:40:52.870,-354.0,-140.0,321.0,5.0,126.0,105.0,137,111,100,130,117,540,475,480
2025-02-20 16:40:52.888,-385.0,-98.0,353.0,59.0,127.0,88.0,140,108,100,128,117,643,525,465
2025-02-20 16:40:52.908,-620.0,596.0,280.0,89.0,143.0,60.0,140,106,99,129,117,677,540,447
2025-02-20 16:40:52.925,-1184.0,1369.0,-733.0,66.0,67.0,-46.0,140,106,99,129,118,679,526,429
2025-02-20 16:40:52.945,-1932.0,1645.0,-1584.0,145.0,-196.0,-243.0,142,109,101,130,121,694,469,406
2025-02-20 16:40:52.962,-1746.0,1637.0,-1594.0,37.0,-440.0,-490.0,141,113,102,129,122,658,413,408
2025-02-20 16:40:52.982,524.0,943.0,-1480.0,-136.0,-861.0,-529.0,142,117,101,130,122,539,385,430
2025-02-20 16:40:52.998,3599.0,-1602.0,-430.0,-179.0,-951.0,-340.0,142,117,103,130,125,447,353,464
2025-02-20 16:40:53.023,3411.0,-3721.0,2904.0,-114.0,-593.0,-156.0,146,118,104,131,126,452,387,467
2025-02-20 16:40:53.039,2801.0,-3399.0,2672.0,193.0,5.0,-64.0,147,121,103,129,126,643,477,447
2025-02-20 16:40:53.059,1597.0,-1685.0,1755.0,230.0,255.0,41.0,146,116,102,130,122,563,485,389
2025-02-20 16:40:53.076,-42.0,70.0,1584.0,132.0,266.0,38.0,149,106,96,129,115,390,526,397
2025-02-20 16:40:53.097,-374.0,-250.0,1132.0,-51.0,236.0,0.0,149,92,84,127,103,223,601,398
2025-02-20 16:40:53.117,-329.0,-291.0,845.0,-61.0,226.0,-39.0,149,80,75,124,87,130,656,387
2025-02-20 16:40:53.132,-237.0,-541.0,775.0,-33.0,220.0,-59.0,147,77,69,114,78,415,530,505
2025-02-20 16:40:53.149,77.0,-930.0,939.0,123.0,276.0,-66.0,147,74,61,100,74,526,530,548
2025-02-20 16:40:53.174,-7.0,-656.0,469.0,227.0,253.0,-38.0,147,70,58,92,74,754,551,526
2025-02-20 16:40:53.191,-346.0,-170.0,373.0,215.0,191.0,-42.0,147,61,54,86,73,632,485,429
2025-02-20 16:40:53.211,-389.0,-21.0,316.0,166.0,95.0,-68.0,146,59,55,85,74,510,403,401
2025-02-20 16:40:53.230,-245.0,-248.0,208.0,127.0,28.0,-90.0,146,61,55,87,75,440,401,416
2025-02-20 16:40:53.248,-118.0,-593.0,533.0,153.0,3.0,-91.0,146,62,55,86,75,377,383,434
2025-02-20 16:40:53.268,-15.0,-615.0,812.0,191.0,7.0,-89.0,146,60,53,84,73,351,368,403
2025-02-20 16:40:53.285,50.0,-628.0,800.0,153.0,2.0,-69.0,146,58,51,81,71,288,363,424
2025-02-20 16:40:53.306,328.0,-1015.0,802.0,114.0,-7.0,-29.0,146,58,50,77,69,419,403,477
2025-02-20 16:40:53.326,558.0,-1836.0,1015.0,105.0,-4.0,81.0,146,57,49,73,67,607,418,492
2025-02-20 16:40:53.343,1023.0,-2474.0,1142.0,119.0,20.0,292.0,147,57,48,73,64,660,449,484
2025-02-20 16:40:53.361,1574.0,-2701.0,1062.0,122.0,67.0,533.0,146,55,47,68,61,686,508,466
2025-02-20 16:40:53.381,1686.0,-1102.0,513.0,83.0,27.0,691.0,147,54,47,66,59,623,553,457
2025-02-20 16:40:53.400,975.0,977.0,880.0,-69.0,-81.0,647.0,147,56,49,66,60,422,534,434
2025-02-20 16:40:53.421,245.0,2171.0,1638.0,-136.0,-39.0,389.0,148,56,47,66,61,365,534,429
2025-02-20 16:40:53.440,-25.0,2319.0,1525.0,-4.0,59.0,205.0,149,57,49,66,60,391,501,445
2025-02-20 16:40:53.457,-704.0,3361.0,1244.0,-18.0,59.0,86.0,149,57,50,65,60,420,490,442
2025-02-20 16:40:53.478,-457.0,2871.0,1564.0,-1.0,79.0,-90.0,149,58,50,67,60,421,519,440
2025-02-20 16:40:53.496,-244.0,1856.0,1428.0,-5.0,107.0,-185.0,151,59,50,67,60,492,510,504
2025-02-20 16:40:53.514,6.0,703.0,1157.0,-25.0,129.0,-227.0,150,59,51,68,62,480,499,594
2025-02-20 16:40:53.532,-128.0,313.0,769.0,-84.0,90.0,-245.0,149,58,51,68,61,435,487,594
2025-02-20 16:40:53.552,-110.0,-126.0,580.0,-114.0,44.0,-267.0,149,58,51,69,61,463,439,568
2025-02-20 16:40:53.572,12.0,-739.0,548.0,-56.0,31.0,-266.0,150,57,51,67,62,285,401,540
2025-02-20 16:40:53.592,-56.0,-958.0,514.0,34.0,20.0,-221.0,149,58,51,68,62,270,393,486
2025-02-20 16:40:53.609,-155.0,-710.0,671.0,82.0,-9.0,-171.0,150,58,51,69,62,299,411,429
2025-02-20 16:40:53.629,-129.0,-402.0,858.0,71.0,-5.0,-162.0,150,58,53,69,64,382,456,423
2025-02-20 16:40:53.649,-166.0,-466.0,908.0,49.0,3.0,-135.0,149,58,51,69,63,461,433,388
2025-02-20 16:40:53.666,-196.0,-344.0,920.0,52.0,10.0,-141.0,150,58,52,73,64,488,390,412
2025-02-20 16:40:53.686,-225.0,-277.0,870.0,55.0,-1.0,-160.0,148,59,53,69,64,495,442,455
2025-02-20 16:40:53.707,-134.0,-611.0,820.0,31.0,-24.0,-106.0,153,58,51,71,66,518,492,475
2025-02-20 16:40:53.723,-26.0,-632.0,915.0,-11.0,-37.0,-66.0,148,56,51,71,66,529,530,468
2025-02-20 16:40:53.743,102.0,-708.0,963.0,-32.0,-37.0,-65.0,148,59,52,72,67,543,532,467
2025-02-20 16:40:53.761,243.0,-1107.0,937.0,-18.0,-29.0,-27.0,149,58,53,74,66,593,471,492
2025-02-20 16:40:53.781,449.0,-1932.0,793.0,39.0,-16.0,121.0,149,58,52,73,66,624,448,516
2025-02-20 16:40:53.801,686.0,-2091.0,619.0,55.0,-44.0,312.0,149,58,52,71,66,598,450,503
2025-02-20 16:40:53.818,1143.0,-2110.0,561.0,-22.0,-116.0,532.0,149,58,52,71,65,566,474,526
2025-02-20 16:40:53.838,1413.0,-1017.0,777.0,-88.0,-222.0,596.0,148,58,51,70,65,507,516,526
2025-02-20 16:40:53.858,1081.0,105.0,1327.0,-139.0,-241.0,560.0,148,59,52,70,65,493,581,538
2025-02-20 16:40:53.875,188.0,2324.0,1741.0,-248.0,-148.0,406.0,149,60,53,70,65,463,566,536
2025-02-20 16:40:53.896,69.0,2187.0,2152.0,-213.0,-76.0,204.0,148,60,53,71,66,443,527,510
2025-02-20 16:40:53.912,147.0,1489.0,2638.0,-67.0,17.0,90.0,149,62,55,72,68,450,516,486
2025-02-20 16:40:53.933,143.0,1443.0,2756.0,32.0,174.0,-5.0,150,64,56,72,67,461,487,475
2025-02-20 16:40:53.952,-4.0,810.0,2240.0,-13.0,279.0,-42.0,148,65,57,73,67,466,434,458
2025-02-20 16:40:53.973,191.0,134.0,1720.0,-101.0,357.0,-25.0,149,64,57,74,67,426,370,441
2025-02-20 16:40:53.990,194.0,-379.0,1048.0,-144.0,390.0,-15.0,148,64,58,73,68,373,405,435
2025-02-20 16:40:54.010,-193.0,-699.0,635.0,-127.0,337.0,-14.0,148,64,58,73,72,340,414,421
2025-02-20 16:40:54.027,-159.0,-759.0,651.0,-126.0,319.0,-1.0,147,65,61,75,72,302,460,342
2025-02-20 16:40:54.047,-259.0,-481.0,440.0,-110.0,348.0,-12.0,147,68,66,80,75,345,520,358
2025-02-20 16:40:54.067,-345.0,-408.0,145.0,-100.0,340.0,-31.0,147,70,69,81,78,406,494,377
2025-02-20 16:40:54.084,-643.0,-799.0,-343.0,-22.0,279.0,-16.0,146,74,71,80,79,444,395,463
2025-02-20 16:40:54.104,-651.0,-611.0,-280.0,56.0,196.0,7.0,147,81,76,80,79,507,345,560
2025-02-20 16:40:54.125,-586.0,-244.0,-32.0,124.0,170.0,8.0,147,91,80,83,80,630,388,600
2025-02-20 16:40:54.141,-478.0,20.0,50.0,140.0,182.0,-14.0,146,96,81,85,79,586,412,584
2025-02-20 16:40:54.162,-581.0,123.0,-73.0,162.0,203.0,-39.0,146,100,84,88,79,595,430,558
2025-02-20 16:40:54.180,-815.0,853.0,-606.0,140.0,166.0,-81.0,146,103,86,89,79,596,485,514
2025-02-20 16:40:54.198,-1300.0,1320.0,-1450.0,91.0,0.0,-199.0,145,105,90,87,78,614,512,495
2025-02-20 16:40:54.218,-1504.0,1457.0,-1828.0,106.0,-221.0,-381.0,144,110,93,85,74,664,495,502
2025-02-20 16:40:54.239,-681.0,1134.0,-1722.0,192.0,-505.0,-557.0,142,114,98,85,74,623,468,507
2025-02-20 16:40:54.253,311.0,701.0,-1088.0,127.0,-756.0,-624.0,140,119,99,91,76,455,432,508
2025-02-20 16:40:54.277,2976.0,61.0,-473.0,11.0,-944.0,-578.0,140,122,102,96,83,253,411,468
2025-02-20 16:40:54.294,4092.0,-2449.0,925.0,-13.0,-857.0,-401.0,141,125,103,99,87,412,472,387
2025-02-20 16:40:54.313,4162.0,-3334.0,2101.0,134.0,-435.0,-77.0,144,126,104,99,90,559,533,411
2025-02-20 16:40:54.333,2666.0,-2556.0,2452.0,169.0,38.0,95.0,146,130,103,99,89,623,572,496
2025-02-20 16:40:54.351,1311.0,-1358.0,1721.0,42.0,204.0,128.0,146,130,107,99,83,519,576,521
2025-02-20 16:40:54.368,647.0,-1115.0,1105.0,-55.0,213.0,148.0,146,128,107,99,78,360,539,484
2025-02-20 16:40:54.390,409.0,-1040.0,731.0,-88.0,187.0,174.0,146,127,107,98,77,175,495,456
2025-02-20 16:40:54.407,154.0,-937.0,632.0,-97.0,153.0,195.0,145,128,108,95,78,170,453,475
2025-02-20 16:40:54.428,125.0,-877.0,709.0,-72.0,146.0,204.0,145,129,107,94,82,338,403,488
2025-02-20 16:40:54.447,181.0,-898.0,783.0,-38.0,186.0,209.0,146,129,107,92,84,465,418,455
2025-02-20 16:40:54.465,252.0,-803.0,708.0,-1.0,256.0,218.0,145,130,108,92,86,511,485,443
2025-02-20 16:40:54.483,157.0,-761.0,488.0,55.0,289.0,242.0,145,128,107,89,86,421,484,459
2025-02-20 16:40:54.495,3.0,-550.0,456.0,101.0,299.0,251.0,145,128,107,87,85,331,529,471
2025-02-20 16:40:54.519,-274.0,-120.0,408.0,74.0,290.0,233.0,145,128,107,84,83,350,537,463
2025-02-20 16:40:54.543,-467.0,3.0,365.0,-16.0,249.0,204.0,144,128,107,83,80,434,493,442
2025-02-20 16:40:54.559,-423.0,-147.0,204.0,-22.0,212.0,177.0,145,127,108,83,79,458,494,424
2025-02-20 16:40:54.579,-654.0,67.0,99.0,32.0,183.0,137.0,145,125,106,84,78,501,474,426
2025-02-20 16:40:54.599,-716.0,595.0,-34.0,42.0,152.0,82.0,145,124,108,84,78,595,403,441
2025-02-20 16:40:54.617,-1075.0,1432.0,-696.0,-18.0,81.0,-17.0,145,124,106,82,77,602,374,436
2025-02-20 16:40:54.634,-1679.0,1497.0,-1568.0,-18.0,-144.0,-212.0,145,126,108,79,76,537,302,422
2025-02-20 16:40:54.657,-1680.0,1494.0,-1855.0,126.0,-414.0,-423.0,145,127,108,80,73,472,285,437
2025-02-20 16:40:54.671,-536.0,1547.0,-1479.0,57.0,-704.0,-611.0,144,128,107,83,78,397,318,439
2025-02-20 16:40:54.694,2435.0,336.0,-1155.0,-64.0,-980.0,-590.0,143,128,109,88,85,422,396,446
2025-02-20 16:40:54.712,4475.0,-2389.0,156.0,-21.0,-946.0,-417.0,145,128,108,93,92,548,440,443
2025-02-20 16:40:54.731,4157.0,-3673.0,2210.0,211.0,-367.0,-142.0,148,129,107,95,98,632,455,426
2025-02-20 16:40:54.750,2867.0,-2344.0,2848.0,239.0,78.0,61.0,148,130,109,98,96,680,490,365
2025-02-20 16:40:54.768,1082.0,-750.0,2162.0,69.0,243.0,92.0,150,129,108,97,90,625,519,375
2025-02-20 16:40:54.788,305.0,-510.0,1145.0,-67.0,232.0,91.0,149,127,106,99,86,413,551,456
2025-02-20 16:40:54.808,14.0,-496.0,860.0,-79.0,217.0,73.0,150,126,104,98,85,318,507,428
2025-02-20 16:40:54.826,41.0,-604.0,895.0,-44.0,210.0,27.0,149,124,103,96,85,271,464,466
2025-02-20 16:40:54.845,136.0,-695.0,943.0,50.0,248.0,-26.0,150,122,101,95,84,414,435,552
2025-02-20 16:40:54.866,124.0,-653.0,875.0,138.0,292.0,-61.0,149,116,97,99,87,440,519,528
2025-02-20 16:40:54.883,-80.0,-545.0,725.0,195.0,309.0,-65.0,147,106,85,97,88,520,558,504
2025-02-20 16:40:54.903,-146.0,-490.0,587.0,234.0,298.0,-55.0,147,95,77,99,86,537,512,466
2025-02-20 16:40:54.919,-357.0,-360.0,491.0,244.0,261.0,-54.0,148,84,71,97,84,466,454,457
2025-02-20 16:40:54.940,-209.0,-264.0,443.0,229.0,210.0,-63.0,147,76,65,95,82,398,464,462
2025-02-20 16:40:54.960,-184.0,-367.0,502.0,204.0,149.0,-58.0,146,73,62,90,79,321,348,459
2025-02-20 16:40:54.975,-110.0,-767.0,539.0,199.0,98.0,-62.0,146,70,59,87,77,328,353,469
2025-02-20 16:40:54.997,6.0,-1023.0,392.0,184.0,15.0,-20.0,145,66,57,83,75,372,451,459
2025-02-20 16:40:55.017,260.0,-1408.0,609.0,193.0,-44.0,56.0,145,64,54,85,72,503,578,425
2025-02-20 16:40:55.035,684.0,-1743.0,1072.0,179.0,-56.0,221.0,145,62,53,83,73,699,653,399
2025-02-20 16:40:55.055,1128.0,-1952.0,1482.0,132.0,10.0,404.0,147,60,53,82,70,702,654,406
2025-02-20 16:40:55.074,1922.0,-1995.0,1170.0,97.0,83.0,677.0,147,57,51,78,64,622,616,429
2025-02-20 16:40:55.092,1413.0,438.0,1085.0,-89.0,-23.0,730.0,148,59,51,72,62,543,477,445
2025-02-20 16:40:55.109,385.0,1625.0,1199.0,-267.0,-104.0,600.0,148,61,54,73,62,450,379,442
2025-02-20 16:40:55.132,-165.0,2732.0,1470.0,-317.0,-44.0,304.0,149,63,54,73,65,339,306,432
2025-02-20 16:40:55.149,-57.0,2015.0,1641.0,-107.0,32.0,153.0,149,64,56,74,64,330,200,431
2025-02-20 16:40:55.169,-471.0,2744.0,1692.0,12.0,60.0,13.0,150,64,55,75,64,389,206,439
2025-02-20 16:40:55.186,-384.0,2525.0,1659.0,-11.0,93.0,-109.0,152,64,56,74,64,423,328,444
2025-02-20 16:40:55.206,-55.0,1058.0,1342.0,-50.0,120.0,-167.0,151,64,56,75,63,420,410,463
2025-02-20 16:40:55.226,16.0,383.0,1000.0,-49.0,133.0,-191.0,152,64,55,73,63,465,441,529
2025-02-20 16:40:55.243,-87.0,-40.0,770.0,-59.0,101.0,-198.0,152,63,54,73,62,441,466,541
2025-02-20 16:40:55.263,-71.0,-438.0,702.0,-56.0,64.0,-179.0,152,63,56,73,62,447,498,515
2025-02-20 16:40:55.284,-154.0,-572.0,710.0,-28.0,44.0,-161.0,151,63,54,73,63,371,522,470
2025-02-20 16:40:55.301,-240.0,-575.0,733.0,9.0,40.0,-158.0,151,63,55,72,64,303,526,409
2025-02-20 16:40:55.321,-314.0,-456.0,739.0,49.0,35.0,-172.0,152,63,56,72,64,339,505,417
2025-02-20 16:40:55.338,-288.0,-583.0,645.0,73.0,14.0,-157.0,151,62,56,72,64,360,480,422
2025-02-20 16:40:55.357,-278.0,-616.0,673.0,94.0,-21.0,-119.0,152,63,55,73,65,375,503,420
2025-02-20 16:40:55.378,-219.0,-348.0,876.0,114.0,-15.0,-128.0,152,64,55,73,65,360,492,440
2025-02-20 16:40:55.395,-158.0,-386.0,973.0,106.0,15.0,-133.0,153,64,56,73,66,299,468,484
2025-02-20 16:40:55.414,-195.0,-451.0,835.0,89.0,21.0,-112.0,152,64,56,74,66,369,486,534
2025-02-20 16:40:55.434,-157.0,-620.0,751.0,65.0,-7.0,-57.0,151,63,57,73,67,515,476,569
2025-02-20 16:40:55.452,59.0,-940.0,852.0,35.0,-41.0,-5.0,152,64,58,76,67,579,475,550
2025-02-20 16:40:55.471,300.0,-1761.0,947.0,31.0,-35.0,115.0,151,63,56,74,67,615,478,526
2025-02-20 16:40:55.490,544.0,-2045.0,839.0,30.0,-47.0,272.0,151,64,57,75,66,645,487,549
2025-02-20 16:40:55.508,644.0,-1620.0,709.0,-30.0,-93.0,393.0,152,65,56,73,67,627,472,539
2025-02-20 16:40:55.530,687.0,-1021.0,578.0,-75.0,-194.0,450.0,151,65,56,74,66,607,480,514
2025-02-20 16:40:55.550,448.0,140.0,833.0,-93.0,-263.0,418.0,152,65,57,74,67,556,508,493
2025-02-20 16:40:55.567,170.0,1416.0,1232.0,-143.0,-230.0,263.0,152,67,56,75,70,537,513,473
2025-02-20 16:40:55.587,159.0,1369.0,1485.0,-119.0,-154.0,182.0,153,68,57,75,72,538,566,459
2025-02-20 16:40:55.604,34.0,1986.0,1981.0,-84.0,-120.0,88.0,152,68,59,76,71,532,592,457
2025-02-20 16:40:55.624,174.0,1911.0,2589.0,-90.0,-18.0,14.0,153,70,59,78,77,496,548,454
2025-02-20 16:40:55.641,384.0,1203.0,2546.0,-93.0,123.0,-23.0,153,71,59,79,78,442,480,458
2025-02-20 16:40:55.661,492.0,222.0,2175.0,-74.0,261.0,-36.0,152,72,60,82,79,383,446,467
2025-02-20 16:40:55.681,506.0,-258.0,1656.0,-93.0,333.0,-27.0,153,72,62,82,81,420,420,464
2025-02-20 16:40:55.701,445.0,-614.0,1259.0,-128.0,359.0,-5.0,152,71,62,82,80,426,375,429
2025-02-20 16:40:55.718,237.0,-741.0,914.0,-137.0,357.0,15.0,152,72,65,82,82,380,395,385
2025-02-20 16:40:55.738,24.0,-796.0,540.0,-116.0,338.0,26.0,152,74,68,82,83,304,385,311
2025-02-20 16:40:55.757,-245.0,-598.0,423.0,-81.0,324.0,25.0,151,76,69,83,84,308,452,321
2025-02-20 16:40:55.774,-152.0,-477.0,477.0,-66.0,352.0,17.0,151,79,72,85,83,316,426,391
2025-02-20 16:40:55.796,-196.0,-535.0,372.0,-32.0,388.0,4.0,150,82,74,90,82,360,404,470
2025-02-20 16:40:55.811,-470.0,-346.0,232.0,27.0,389.0,-15.0,146,82,74,91,80,428,363,544
2025-02-20 16:40:55.833,-516.0,-51.0,28.0,45.0,338.0,12.0,143,76,71,93,79,442,401,561
2025-02-20 16:40:55.853,-505.0,339.0,-356.0,123.0,316.0,-8.0,141,71,68,94,79,511,432,543
2025-02-20 16:40:55.870,-1154.0,1062.0,-716.0,103.0,224.0,-56.0,140,66,60,92,77,616,452,509
2025-02-20 16:40:55.890,-987.0,1435.0,-1092.0,11.0,95.0,-120.0,137,63,58,89,74,614,434,479
2025-02-20 16:40:55.907,-1313.0,1476.0,-1819.0,-15.0,-64.0,-291.0,134,60,53,79,69,644,428,485
2025-02-20 16:40:55.925,-1079.0,1800.0,-2205.0,-51.0,-297.0,-516.0,125,57,52,74,62,651,473,514
2025-02-20 16:40:55.947,-42.0,1406.0,-2726.0,59.0,-604.0,-688.0,111,54,51,74,63,575,500,517
2025-02-20 16:40:55.968,2032.0,41.0,-1688.0,173.0,-917.0,-678.0,105,51,47,75,67,370,536,508
2025-02-20 16:40:55.985,5172.0,-1969.0,448.0,313.0,-973.0,-452.0,107,53,47,79,72,249,492,484
2025-02-20 16:40:56.005,4555.0,-4289.0,4135.0,434.0,-291.0,-61.0,110,54,50,81,71,459,462,439
2025-02-20 16:40:56.025,2018.0,-1226.0,3603.0,307.0,225.0,91.0,108,54,49,71,63,546,465,390
2025-02-20 16:40:56.041,545.0,-454.0,2332.0,-1.0,217.0,61.0,108,55,51,69,56,381,624,495
2025-02-20 16:40:56.062,276.0,-774.0,1598.0,-207.0,187.0,112.0,109,54,52,72,57,330,631,470
2025-02-20 16:40:56.070,199.0,-1153.0,1121.0,-252.0,182.0,129.0,109,54,53,77,60,310,536,424
2025-02-20 16:40:56.099,105.0,-1342.0,844.0,-171.0,198.0,141.0,109,56,53,79,65,315,494,447
2025-02-20 16:40:56.119,26.0,-1069.0,675.0,-65.0,228.0,159.0,110,55,53,78,69,357,387,479
2025-02-20 16:40:56.136,6.0,-736.0,470.0,-39.0,255.0,166.0,112,56,54,78,69,462,316,479
2025-02-20 16:40:56.157,-132.0,-513.0,550.0,-76.0,238.0,172.0,115,56,56,78,71,559,357,470
2025-02-20 16:40:56.174,-244.0,-440.0,542.0,-113.0,211.0,183.0,115,56,55,77,71,601,382,464
2025-02-20 16:40:56.193,-341.0,-532.0,300.0,-101.0,190.0,191.0,116,57,55,74,70,577,409,453
2025-02-20 16:40:56.211,-209.0,-384.0,355.0,-85.0,184.0,192.0,117,57,55,76,69,407,459,457
2025-02-20 16:40:56.234,-205.0,-250.0,259.0,-88.0,208.0,191.0,117,58,56,72,68,318,524,465
2025-02-20 16:40:56.251,-771.0,-5.0,-76.0,-79.0,149.0,172.0,119,58,56,72,66,344,489,451
2025-02-20 16:40:56.271,-699.0,150.0,-55.0,-49.0,101.0,141.0,120,58,55,72,66,394,443,432
2025-02-20 16:40:56.287,-719.0,442.0,-158.0,-18.0,78.0,109.0,120,59,57,73,66,478,416,408
2025-02-20 16:40:56.307,-852.0,873.0,-542.0,36.0,46.0,72.0,121,58,57,73,68,576,372,396
2025-02-20 16:40:56.324,-1440.0,1630.0,-1358.0,177.0,-21.0,-136.0,120,59,56,72,69,662,359,386
2025-02-20 16:40:56.345,-1874.0,2183.0,-1988.0,248.0,-282.0,-389.0,118,58,57,69,65,704,404,397
2025-02-20 16:40:56.366,-914.0,1843.0,-2249.0,256.0,-670.0,-575.0,116,56,57,68,64,591,412,452
2025-02-20 16:40:56.385,2358.0,697.0,-1274.0,168.0,-997.0,-541.0,118,55,56,73,67,422,417,478
2025-02-20 16:40:56.402,4346.0,-1494.0,556.0,192.0,-1005.0,-369.0,122,56,54,76,71,413,414,382
2025-02-20 16:40:56.422,3908.0,-3528.0,3078.0,435.0,-487.0,-73.0,128,59,55,74,73,556,392,409
2025-02-20 16:40:56.442,2608.0,-1028.0,3802.0,284.0,-16.0,25.0,133,59,55,71,72,704,436,448
2025-02-20 16:40:56.459,1519.0,-383.0,3038.0,52.0,189.0,-10.0,134,59,54,72,62,637,521,467
2025-02-20 16:40:56.478,909.0,-1485.0,1705.0,-34.0,276.0,84.0,134,58,55,73,62,563,517,470
2025-02-20 16:40:56.497,516.0,-1306.0,728.0,16.0,265.0,188.0,134,58,56,75,65,455,484,463
2025-02-20 16:40:56.517,213.0,-1037.0,604.0,77.0,218.0,240.0,135,60,57,76,70,492,388,472
2025-02-20 16:40:56.537,-115.0,-543.0,561.0,103.0,164.0,249.0,135,61,56,77,74,338,330,486
2025-02-20 16:40:56.554,-64.0,-433.0,492.0,58.0,77.0,237.0,137,60,57,78,80,336,535,539
2025-02-20 16:40:56.574,-81.0,-400.0,458.0,38.0,13.0,219.0,135,59,58,80,82,403,628,548
2025-02-20 16:40:56.594,-40.0,-376.0,594.0,38.0,-52.0,196.0,136,62,59,80,86,393,562,492
2025-02-20 16:40:56.611,-234.0,-106.0,850.0,76.0,-52.0,161.0,137,64,61,84,91,323,558,480
2025-02-20 16:40:56.631,-267.0,293.0,913.0,34.0,-47.0,113.0,138,64,61,88,92,371,614,472
2025-02-20 16:40:56.652,-365.0,682.0,704.0,18.0,-44.0,73.0,139,66,60,92,95,382,498,470
2025-02-20 16:40:56.664,-423.0,1025.0,1218.0,-3.0,-70.0,19.0,140,67,60,93,100,351,443,502
2025-02-20 16:40:56.689,-430.0,1291.0,1213.0,-14.0,-18.0,-79.0,141,69,63,95,105,350,486,517
2025-02-20 16:40:56.709,-504.0,1473.0,1277.0,93.0,43.0,-197.0,141,71,66,98,103,389,470,518
2025-02-20 16:40:56.726,-632.0,1676.0,1077.0,216.0,112.0,-358.0,141,71,66,101,106,449,461,554
2025-02-20 16:40:56.746,-480.0,1488.0,662.0,274.0,140.0,-463.0,141,73,68,103,111,643,536,506
2025-02-20 16:40:56.763,70.0,548.0,666.0,301.0,116.0,-552.0,141,72,69,106,112,758,533,450
2025-02-20 16:40:56.780,1012.0,-205.0,781.0,354.0,29.0,-568.0,141,71,68,105,114,712,458,452
2025-02-20 16:40:56.803,1708.0,-1497.0,1111.0,396.0,-89.0,-420.0,142,71,68,110,113,583,407,440
2025-02-20 16:40:56.820,1406.0,-1230.0,2114.0,284.0,-130.0,-94.0,143,72,70,111,113,410,430,427
2025-02-20 16:40:56.841,1284.0,-577.0,2373.0,-124.0,-88.0,103.0,144,73,70,114,114,342,514,352
2025-02-20 16:40:56.861,890.0,-929.0,1675.0,-310.0,-29.0,222.0,144,73,72,111,115,302,514,349
2025-02-20 16:40:56.877,523.0,-956.0,1271.0,-216.0,10.0,266.0,144,74,71,110,115,317,453,372
2025-02-20 16:40:56.898,354.0,-595.0,1305.0,-43.0,54.0,294.0,143,74,69,109,117,353,452,418
2025-02-20 16:40:56.918,309.0,-156.0,1310.0,55.0,135.0,343.0,144,74,72,112,117,350,457,453
2025-02-20 16:40:56.934,126.0,616.0,1110.0,-17.0,139.0,343.0,144,74,73,107,116,296,440,429
2025-02-20 16:40:56.955,-246.0,944.0,1102.0,-140.0,92.0,249.0,144,74,73,101,115,379,441,482
2025-02-20 16:40:56.972,-216.0,500.0,1207.0,-140.0,97.0,185.0,144,75,73,102,116,407,441,505
2025-02-20 16:40:56.992,-59.0,128.0,1009.0,-76.0,118.0,167.0,143,74,72,99,117,402,432,523
2025-02-20 16:40:57.013,-70.0,133.0,915.0,19.0,154.0,174.0,144,76,73,98,118,436,419,548
2025-02-20 16:40:57.029,-371.0,559.0,769.0,46.0,148.0,145.0,144,75,72,95,117,486,440,537
2025-02-20 16:40:57.049,-579.0,805.0,653.0,25.0,97.0,86.0,144,75,72,92,117,511,423,515
2025-02-20 16:40:57.069,-531.0,675.0,595.0,-7.0,48.0,53.0,142,75,73,90,117,560,434,497
2025-02-20 16:40:57.086,-371.0,495.0,652.0,-1.0,35.0,46.0,143,76,72,90,117,576,508,494
2025-02-20 16:40:57.106,-508.0,853.0,625.0,11.0,37.0,35.0,143,75,72,89,117,542,517,472
2025-02-20 16:40:57.127,-859.0,1887.0,504.0,2.0,25.0,-63.0,142,76,72,87,118,513,498,415
2025-02-20 16:40:57.143,-1113.0,2707.0,352.0,-9.0,19.0,-237.0,142,76,72,85,119,476,462,368
2025-02-20 16:40:57.164,-1134.0,2598.0,232.0,25.0,-50.0,-433.0,139,72,69,85,119,451,384,384
2025-02-20 16:40:57.184,-330.0,1324.0,104.0,124.0,-175.0,-540.0,136,70,68,88,118,442,330,443
2025-02-20 16:40:57.198,522.0,387.0,298.0,217.0,-303.0,-557.0,135,69,66,91,118,524,338,497
2025-02-20 16:40:57.221,1718.0,-592.0,1045.0,206.0,-401.0,-501.0,136,69,65,97,118,599,367,541
2025-02-20 16:40:57.238,2315.0,-2080.0,2316.0,75.0,-283.0,-251.0,139,71,67,103,117,530,397,553
2025-02-20 16:40:57.259,2128.0,-1852.0,2666.0,-122.0,-109.0,44.0,138,71,68,103,116,421,413,490
2025-02-20 16:40:57.278,1224.0,-1170.0,2021.0,-311.0,-4.0,139.0,138,72,69,106,116,331,442,480
2025-02-20 16:40:57.295,747.0,-1117.0,1508.0,-298.0,33.0,184.0,136,72,68,104,115,272,487,508
2025-02-20 16:40:57.314,437.0,-839.0,1562.0,-220.0,117.0,221.0,134,73,69,104,115,292,495,537
2025-02-20 16:40:57.336,419.0,-527.0,1708.0,-187.0,227.0,252.0,135,72,69,105,114,376,489,537
2025-02-20 16:40:57.351,307.0,-253.0,1398.0,-197.0,303.0,266.0,135,72,69,104,113,433,508,489
2025-02-20 16:40:57.373,-159.0,-27.0,1060.0,-246.0,298.0,246.0,135,71,67,102,113,478,570,484
2025-02-20 16:40:57.390,-134.0,68.0,999.0,-287.0,280.0,227.0,135,69,65,96,113,489,582,492
2025-02-20 16:40:57.410,46.0,-252.0,767.0,-228.0,327.0,237.0,136,67,65,93,113,536,564,531
2025-02-20 16:40:57.430,-462.0,-420.0,-5.0,2.0,302.0,244.0,135,67,64,92,111,558,554,530
2025-02-20 16:40:57.447,-945.0,270.0,-113.0,18.0,191.0,193.0,136,69,67,96,111,520,541,506
2025-02-20 16:40:57.467,-1127.0,532.0,160.0,-189.0,117.0,91.0,137,71,69,103,112,439,520,515
2025-02-20 16:40:57.487,-486.0,175.0,263.0,-174.0,106.0,56.0,136,76,71,105,113,446,546,541
2025-02-20 16:40:57.504,-593.0,73.0,110.0,-107.0,114.0,41.0,136,83,76,111,114,529,523,509
2025-02-20 16:40:57.524,-976.0,425.0,-228.0,-121.0,16.0,-18.0,136,90,79,116,117,586,500,465
2025-02-20 16:40:57.542,-928.0,394.0,-286.0,-64.0,-19.0,-15.0,135,96,83,119,119,620,502,434
2025-02-20 16:40:57.561,-640.0,664.0,-445.0,34.0,-50.0,-15.0,134,97,84,121,121,619,450,420
2025-02-20 16:40:57.582,-641.0,1138.0,-862.0,92.0,-106.0,-89.0,135,98,88,122,123,607,405,392
2025-02-20 16:40:57.602,-1233.0,1286.0,-1020.0,98.0,-239.0,-231.0,135,100,90,124,127,511,419,414
2025-02-20 16:40:57.616,-1294.0,1533.0,-935.0,-14.0,-381.0,-442.0,135,104,92,126,130,437,375,428
2025-02-20 16:40:57.634,-319.0,1111.0,-968.0,-95.0,-565.0,-601.0,134,110,95,127,131,380,369,439
2025-02-20 16:40:57.659,1552.0,-94.0,-452.0,-108.0,-668.0,-585.0,126,115,98,129,132,315,388,461
2025-02-20 16:40:57.676,2956.0,-1318.0,539.0,-74.0,-723.0,-440.0,124,122,102,130,132,295,302,447
2025-02-20 16:40:57.696,2767.0,-2730.0,1675.0,-147.0,-554.0,-203.0,126,124,104,131,131,299,275,425
2025-02-20 16:40:57.713,2466.0,-3345.0,1542.0,-66.0,-299.0,67.0,130,126,104,133,132,384,432,420
2025-02-20 16:40:57.732,1964.0,-2764.0,1326.0,9.0,-71.0,143.0,134,126,106,132,133,385,579,422
2025-02-20 16:40:57.754,1159.0,-1957.0,1356.0,45.0,62.0,107.0,134,124,106,133,133,343,577,413
2025-02-20 16:40:57.771,468.0,-1411.0,792.0,31.0,136.0,120.0,134,123,106,133,133,380,549,434
2025-02-20 16:40:57.791,277.0,-896.0,823.0,0.0,144.0,158.0,135,122,106,132,132,403,504,422
2025-02-20 16:40:57.811,123.0,-834.0,879.0,5.0,174.0,184.0,135,122,105,133,132,452,451,427
2025-02-20 16:40:57.828,80.0,-766.0,620.0,62.0,219.0,172.0,134,121,106,133,133,463,493,464
2025-02-20 16:40:57.848,181.0,-892.0,629.0,49.0,253.0,138.0,134,123,107,133,133,510,512,449
2025-02-20 16:40:57.865,50.0,-842.0,603.0,29.0,245.0,137.0,133,124,106,133,134,549,599,449
2025-02-20 16:40:57.885,37.0,-707.0,515.0,56.0,258.0,147.0,133,124,106,133,132,562,564,455
2025-02-20 16:40:57.905,-32.0,-612.0,558.0,44.0,283.0,162.0,134,125,106,133,133,577,501,466
2025-02-20 16:40:57.923,-179.0,-368.0,337.0,18.0,252.0,177.0,133,124,106,134,132,591,474,465
2025-02-20 16:40:57.942,-128.0,-243.0,327.0,0.0,205.0,176.0,133,124,106,133,132,589,363,463
2025-02-20 16:40:57.961,-249.0,-285.0,281.0,59.0,189.0,167.0,132,123,105,133,133,545,335,461
2025-02-20 16:40:57.980,-358.0,-261.0,191.0,110.0,177.0,164.0,132,120,105,133,133,496,369,454
2025-02-20 16:40:58.000,-586.0,14.0,63.0,103.0,132.0,170.0,131,117,104,134,132,441,412,446
2025-02-20 16:40:58.020,-816.0,802.0,35.0,98.0,108.0,126.0,131,114,104,132,132,411,415,445
2025-02-20 16:40:58.037,-869.0,1355.0,-438.0,74.0,62.0,12.0,130,113,103,132,133,442,390,454
2025-02-20 16:40:58.057,-1200.0,1265.0,-837.0,104.0,-36.0,-192.0,129,112,105,134,134,500,407,464
2025-02-20 16:40:58.077,-1577.0,1570.0,-1099.0,82.0,-214.0,-423.0,128,114,104,133,134,554,401,471
2025-02-20 16:40:58.094,-1071.0,1396.0,-788.0,-6.0,-384.0,-619.0,129,118,106,132,133,503,369,487
2025-02-20 16:40:58.114,1463.0,832.0,-892.0,-155.0,-677.0,-670.0,120,122,105,133,135,422,334,497
2025-02-20 16:40:58.133,3221.0,-1250.0,153.0,-330.0,-782.0,-602.0,119,126,107,135,134,456,269,484
2025-02-20 16:40:58.150,3588.0,-3373.0,1060.0,-322.0,-539.0,-318.0,120,126,108,133,134,448,405,454
2025-02-20 16:40:58.166,2659.0,-4243.0,720.0,40.0,-224.0,27.0,119,126,107,135,135,542,590,443
2025-02-20 16:40:58.186,2449.0,-2744.0,1158.0,222.0,41.0,135.0,120,127,105,134,135,498,660,445
2025-02-20 16:40:58.209,875.0,-1724.0,766.0,228.0,139.0,90.0,124,126,107,134,135,465,684,441
2025-02-20 16:40:58.228,-4.0,-874.0,497.0,89.0,117.0,99.0,123,124,105,135,136,377,630,440
2025-02-20 16:40:58.246,-160.0,-847.0,520.0,-32.0,56.0,112.0,124,120,105,134,135,166,552,445
2025-02-20 16:40:58.266,-56.0,-1029.0,539.0,38.0,67.0,101.0,125,119,104,134,135,204,571,463
2025-02-20 16:40:58.286,221.0,-1083.0,557.0,87.0,65.0,79.0,124,117,103,134,135,370,627,523
2025-02-20 16:40:58.302,449.0,-1157.0,712.0,121.0,132.0,67.0,124,118,104,133,135,431,594,522
2025-02-20 16:40:58.323,342.0,-1135.0,649.0,114.0,210.0,98.0,124,119,102,133,134,634,519,482
2025-02-20 16:40:58.340,182.0,-922.0,641.0,67.0,294.0,168.0,124,118,101,133,133,632,445,459
2025-02-20 16:40:58.356,85.0,-980.0,631.0,95.0,245.0,245.0,125,116,99,131,131,576,432,449
2025-02-20 16:40:58.380,92.0,-807.0,326.0,121.0,199.0,311.0,125,111,96,127,126,446,483,503
2025-02-20 16:40:58.397,60.0,-540.0,86.0,183.0,156.0,345.0,125,100,87,119,119,435,525,521
2025-02-20 16:40:58.416,-14.0,-309.0,68.0,172.0,97.0,378.0,126,89,83,112,111,398,471,495
2025-02-20 16:40:58.438,-279.0,130.0,103.0,155.0,-27.0,345.0,129,79,75,107,105,406,395,436
2025-02-20 16:40:58.454,-547.0,610.0,-1.0,108.0,-85.0,286.0,132,73,74,101,100,431,409,425
2025-02-20 16:40:58.474,-848.0,1459.0,148.0,123.0,-143.0,102.0,130,74,71,101,102,528,373,441
2025-02-20 16:40:58.495,-980.0,1875.0,683.0,251.0,-109.0,-99.0,131,73,67,105,103,537,364,465
2025-02-20 16:40:58.512,-988.0,2136.0,774.0,420.0,-18.0,-286.0,128,64,59,104,107,529,351,494
2025-02-20 16:40:58.532,-885.0,2124.0,605.0,509.0,-11.0,-410.0,124,61,58,102,111,542,343,484
2025-02-20 16:40:58.552,-535.0,1578.0,670.0,438.0,-134.0,-493.0,123,61,59,104,116,547,411,466
2025-02-20 16:40:58.568,479.0,609.0,1044.0,369.0,-269.0,-495.0,125,61,60,109,118,516,479,470
2025-02-20 16:40:58.589,1308.0,-620.0,2020.0,303.0,-271.0,-359.0,126,63,60,113,120,571,542,459
2025-02-20 16:40:58.604,1561.0,-1088.0,2622.0,107.0,-150.0,-124.0,129,64,61,115,120,465,524,453
2025-02-20 16:40:58.627,1234.0,-1099.0,2429.0,-149.0,-59.0,20.0,128,64,62,115,121,344,503,468
2025-02-20 16:40:58.646,979.0,-1362.0,1632.0,-186.0,-6.0,140.0,125,64,62,114,123,387,483,413
2025-02-20 16:40:58.664,291.0,-1064.0,1472.0,-93.0,12.0,189.0,123,64,64,113,121,463,472,408
2025-02-20 16:40:58.682,310.0,-258.0,1338.0,-43.0,32.0,206.0,123,64,65,112,122,440,457,406
2025-02-20 16:40:58.703,21.0,-30.0,1370.0,-50.0,70.0,206.0,124,64,65,112,124,427,413,402
2025-02-20 16:40:58.721,-115.0,155.0,1353.0,-59.0,108.0,207.0,125,65,67,111,125,336,411,296
2025-02-20 16:40:58.741,-118.0,-63.0,1053.0,-58.0,133.0,247.0,125,65,67,110,126,417,392,338
2025-02-20 16:40:58.757,-204.0,293.0,721.0,-55.0,116.0,263.0,125,66,67,108,127,487,350,404
2025-02-20 16:40:58.778,-362.0,577.0,701.0,-50.0,103.0,221.0,126,66,68,105,128,532,370,454
2025-02-20 16:40:58.798,-500.0,788.0,611.0,-40.0,78.0,181.0,128,66,67,102,129,523,411,483
2025-02-20 16:40:58.816,-487.0,740.0,682.0,-12.0,72.0,143.0,129,68,67,102,129,481,461,493
2025-02-20 16:40:58.835,-542.0,790.0,672.0,13.0,70.0,105.0,129,68,69,102,129,499,465,504
2025-02-20 16:40:58.855,-602.0,895.0,588.0,18.0,54.0,72.0,132,68,69,100,130,505,466,511
2025-02-20 16:40:58.871,-616.0,1023.0,576.0,4.0,33.0,30.0,129,68,69,97,130,522,496,525
2025-02-20 16:40:58.892,-645.0,1228.0,564.0,21.0,27.0,-21.0,131,70,69,96,130,543,578,530
2025-02-20 16:40:58.912,-820.0,1751.0,605.0,62.0,49.0,-130.0,131,68,66,93,131,497,554,539
2025-02-20 16:40:58.930,-1079.0,2416.0,339.0,87.0,75.0,-262.0,129,69,67,94,131,447,560,517
2025-02-20 16:40:58.950,-965.0,2361.0,-197.0,39.0,30.0,-407.0,125,67,65,95,131,397,459,508
2025-02-20 16:40:58.970,-519.0,1575.0,-212.0,4.0,-191.0,-567.0,125,66,61,97,130,359,419,511
2025-02-20 16:40:58.987,672.0,286.0,46.0,-58.0,-455.0,-608.0,127,64,61,103,128,417,449,540
2025-02-20 16:40:59.005,2274.0,-2317.0,1264.0,-103.0,-541.0,-404.0,130,65,61,112,127,464,474,558
2025-02-20 16:40:59.027,2487.0,-2843.0,2135.0,-89.0,-287.0,-86.0,132,69,63,120,123,485,514,535
2025-02-20 16:40:59.044,2073.0,-2144.0,2376.0,-149.0,-66.0,123.0,132,70,64,116,123,614,521,524
2025-02-20 16:40:59.064,1120.0,-1174.0,1889.0,-171.0,56.0,138.0,133,71,64,118,123,655,503,519
2025-02-20 16:40:59.081,436.0,-944.0,1564.0,-162.0,111.0,161.0,132,70,65,116,124,482,514,521
2025-02-20 16:40:59.102,130.0,-774.0,1353.0,-120.0,129.0,196.0,132,69,67,120,123,341,499,496
2025-02-20 16:40:59.122,28.0,-536.0,1365.0,-137.0,146.0,219.0,134,70,69,120,115,278,467,465
2025-02-20 16:40:59.137,35.0,-307.0,1278.0,-180.0,161.0,233.0,134,74,72,120,114,287,336,431
2025-02-20 16:40:59.158,-154.0,-471.0,1045.0,-204.0,164.0,240.0,134,77,76,117,109,371,301,407
2025-02-20 16:40:59.179,-123.0,-408.0,930.0,-188.0,179.0,262.0,135,81,79,113,104,489,437,444
2025-02-20 16:40:59.196,-135.0,-404.0,685.0,-125.0,216.0,267.0,135,85,84,113,99,637,527,519
2025-02-20 16:40:59.216,-325.0,-244.0,522.0,-61.0,241.0,258.0,135,90,82,113,95,657,577,541
2025-02-20 16:40:59.235,-659.0,92.0,500.0,16.0,256.0,230.0,135,95,85,108,93,455,586,534
2025-02-20 16:40:59.253,-620.0,478.0,250.0,4.0,254.0,191.0,136,98,86,104,90,331,539,523
2025-02-20 16:40:59.273,-688.0,662.0,41.0,-20.0,230.0,134.0,136,98,86,104,86,299,520,501
2025-02-20 16:40:59.289,-804.0,620.0,-181.0,17.0,203.0,77.0,135,103,88,101,80,337,505,480
2025-02-20 16:40:59.311,-957.0,1012.0,-499.0,40.0,147.0,-19.0,135,100,89,96,71,499,488,411
2025-02-20 16:40:59.330,-1125.0,1265.0,-1000.0,22.0,-1.0,-128.0,136,102,91,94,70,720,429,356
2025-02-20 16:40:59.348,-1255.0,1433.0,-1205.0,18.0,-139.0,-280.0,136,105,93,93,70,616,309,350
2025-02-20 16:40:59.367,-891.0,1436.0,-1342.0,48.0,-311.0,-455.0,135,110,95,89,67,526,266,343
2025-02-20 16:40:59.388,-497.0,1065.0,-1336.0,50.0,-536.0,-550.0,133,116,97,89,67,480,297,373
2025-02-20 16:40:59.405,778.0,129.0,-498.0,-17.0,-710.0,-540.0,127,121,98,92,70,405,284,390
2025-02-20 16:40:59.424,1734.0,-785.0,18.0,-60.0,-797.0,-427.0,125,124,100,91,74,353,298,379
2025-02-20 16:40:59.445,2649.0,-1827.0,495.0,-5.0,-775.0,-228.0,127,126,102,90,75,260,395,456
2025-02-20 16:40:59.462,2825.0,-2331.0,1493.0,-10.0,-505.0,-50.0,130,128,103,90,76,401,499,505
2025-02-20 16:40:59.482,2517.0,-2500.0,2212.0,31.0,-151.0,60.0,132,128,104,90,74,522,523,480
2025-02-20 16:40:59.499,1541.0,-1736.0,2042.0,53.0,126.0,88.0,132,129,104,91,68,406,530,478
2025-02-20 16:40:59.520,783.0,-1181.0,1592.0,9.0,202.0,72.0,133,129,104,90,62,302,530,460
2025-02-20 16:40:59.539,479.0,-973.0,1293.0,-35.0,235.0,76.0,134,128,104,93,63,224,555,434
2025-02-20 16:40:59.556,309.0,-895.0,982.0,-86.0,234.0,95.0,134,128,105,93,67,316,610,446
2025-02-20 16:40:59.577,186.0,-1040.0,818.0,-80.0,240.0,125.0,135,128,105,92,71,446,606,461
2025-02-20 16:40:59.597,169.0,-1026.0,678.0,-29.0,251.0,147.0,133,127,107,90,75,513,573,453
2025-02-20 16:40:59.614,198.0,-709.0,625.0,24.0,263.0,143.0,133,129,105,89,77,607,605,453
2025-02-20 16:40:59.634,92.0,-551.0,648.0,22.0,298.0,139.0,133,130,106,88,80,608,574,456
2025-02-20 16:40:59.651,-54.0,-652.0,587.0,20.0,315.0,163.0,134,130,107,88,81,582,485,461
2025-02-20 16:40:59.671,-120.0,-465.0,323.0,42.0,302.0,204.0,134,131,106,91,82,545,428,468
2025-02-20 16:40:59.692,-136.0,-287.0,357.0,24.0,301.0,220.0,136,130,107,90,82,492,423,450
2025-02-20 16:40:59.707,-234.0,-53.0,293.0,-5.0,292.0,232.0,135,129,107,89,79,584,342,438
2025-02-20 16:40:59.727,-459.0,-8.0,45.0,-24.0,271.0,244.0,137,127,106,89,77,600,314,425
2025-02-20 16:40:59.748,-564.0,135.0,-359.0,43.0,230.0,240.0,136,127,108,89,75,523,319,420
2025-02-20 16:40:59.766,-934.0,972.0,-1000.0,91.0,135.0,168.0,137,125,105,88,73,467,316,422
2025-02-20 16:40:59.785,-1510.0,1667.0,-1670.0,138.0,-36.0,-31.0,136,125,107,85,71,432,383,448
2025-02-20 16:40:59.805,-1571.0,2215.0,-1969.0,132.0,-259.0,-331.0,135,126,106,82,69,407,389,473
2025-02-20 16:40:59.823,-774.0,1436.0,-1420.0,109.0,-540.0,-495.0,131,128,104,81,72,372,397,492
2025-02-20 16:40:59.842,145.0,674.0,-467.0,94.0,-763.0,-555.0,128,129,106,82,78,286,396,510
2025-02-20 16:40:59.863,2609.0,575.0,26.0,5.0,-959.0,-523.0,131,130,107,85,83,254,427,529
2025-02-20 16:40:59.880,3855.0,-2789.0,1865.0,-81.0,-831.0,-394.0,133,132,108,90,87,362,490,534
2025-02-20 16:40:59.900,3272.0,-2938.0,2100.0,40.0,-379.0,-81.0,134,132,107,91,90,557,555,491
2025-02-20 16:40:59.917,2693.0,-2510.0,2041.0,132.0,21.0,96.0,136,131,108,92,88,634,599,476
2025-02-20 16:40:59.936,1359.0,-1473.0,1676.0,114.0,173.0,119.0,136,130,107,93,80,614,608,471
2025-02-20 16:40:59.958,421.0,-1058.0,1021.0,46.0,155.0,114.0,137,128,106,94,73,471,619,455
2025-02-20 16:40:59.974,194.0,-903.0,746.0,10.0,94.0,118.0,137,126,106,94,72,227,596,377
2025-02-20 16:40:59.993,201.0,-1014.0,842.0,26.0,59.0,122.0,139,125,105,95,76,150,483,394
2025-02-20 16:41:00.015,249.0,-1074.0,880.0,96.0,79.0,136.0,140,126,102,96,81,298,488,460
2025-02-20 16:41:00.031,354.0,-1133.0,884.0,141.0,121.0,186.0,141,124,101,97,88,559,492,513
2025-02-20 16:41:00.052,464.0,-727.0,827.0,164.0,158.0,234.0,141,120,97,100,93,721,441,518
2025-02-20 16:41:00.071,275.0,-433.0,607.0,154.0,149.0,271.0,141,114,90,103,97,728,412,498
2025-02-20 16:41:00.088,93.0,-266.0,529.0,125.0,135.0,285.0,141,107,85,105,99,702,351,471
2025-02-20 16:41:00.108,-122.0,-6.0,560.0,77.0,112.0,276.0,141,99,82,106,102,567,366,414
2025-02-20 16:41:00.125,-211.0,172.0,727.0,18.0,92.0,240.0,143,87,79,103,102,431,416,426
2025-02-20 16:41:00.142,-319.0,308.0,558.0,34.0,61.0,177.0,143,83,76,98,99,368,451,436
2025-02-20 16:41:00.166,-373.0,466.0,811.0,-19.0,47.0,131.0,142,81,75,94,101,359,452,455
2025-02-20 16:41:00.183,-571.0,570.0,598.0,77.0,38.0,82.0,142,80,70,94,104,404,458,455
2025-02-20 16:41:00.204,-750.0,1262.0,773.0,154.0,42.0,15.0,141,74,69,91,106,419,436,433
2025-02-20 16:41:00.223,-898.0,1464.0,643.0,229.0,80.0,-102.0,142,74,67,87,111,422,410,426
2025-02-20 16:41:00.240,-820.0,1548.0,433.0,427.0,116.0,-209.0,141,72,66,83,116,471,439,464
2025-02-20 16:41:00.261,-934.0,1728.0,384.0,470.0,75.0,-325.0,141,69,64,83,119,490,450,511
2025-02-20 16:41:00.280,-567.0,1351.0,305.0,453.0,-21.0,-431.0,141,67,63,85,118,480,507,543
2025-02-20 16:41:00.297,-98.0,715.0,497.0,440.0,-203.0,-476.0,139,64,61,91,120,490,539,549
2025-02-20 16:41:00.318,935.0,35.0,1332.0,328.0,-406.0,-388.0,141,65,63,91,120,518,574,547
2025-02-20 16:41:00.338,1627.0,-838.0,2748.0,80.0,-340.0,-157.0,143,68,64,97,121,529,597,518
2025-02-20 16:41:00.355,1488.0,-1292.0,2831.0,-208.0,-115.0,18.0,143,69,66,100,121,486,595,544
2025-02-20 16:41:00.375,1121.0,-1511.0,1953.0,-255.0,2.0,100.0,143,69,67,101,121,503,514,567
2025-02-20 16:41:00.393,715.0,-1111.0,1788.0,-121.0,55.0,142.0,141,69,67,98,121,466,469,542
2025-02-20 16:41:00.410,141.0,-533.0,1326.0,-23.0,76.0,188.0,142,71,69,100,121,393,461,483
2025-02-20 16:41:00.429,-66.0,117.0,1459.0,-68.0,104.0,215.0,137,72,69,97,121,371,439,439
2025-02-20 16:41:00.450,-108.0,123.0,1272.0,-116.0,148.0,229.0,141,73,71,98,121,349,399,390
2025-02-20 16:41:00.469,-263.0,233.0,988.0,-111.0,149.0,195.0,141,73,70,93,122,378,396,340
2025-02-20 16:41:00.490,-384.0,238.0,771.0,-50.0,145.0,175.0,141,73,71,93,123,469,447,340
2025-02-20 16:41:00.507,-489.0,372.0,667.0,-15.0,126.0,170.0,141,75,74,92,122,501,353,383
2025-02-20 16:41:00.527,-440.0,534.0,728.0,-18.0,133.0,164.0,141,74,71,90,124,449,369,419
2025-02-20 16:41:00.547,-549.0,713.0,622.0,-37.0,134.0,156.0,142,75,73,90,123,431,405,468
2025-02-20 16:41:00.564,-750.0,964.0,436.0,-50.0,116.0,138.0,140,75,73,89,124,474,430,503
2025-02-20 16:41:00.584,-856.0,1105.0,303.0,-38.0,86.0,78.0,143,75,75,87,125,545,445,524
2025-02-20 16:41:00.601,-976.0,1459.0,256.0,19.0,69.0,-32.0,143,75,73,86,125,633,567,521
2025-02-20 16:41:00.621,-983.0,1805.0,101.0,83.0,60.0,-173.0,143,75,73,88,126,652,586,499
2025-02-20 16:41:00.641,-1101.0,2002.0,-271.0,95.0,23.0,-293.0,143,75,74,88,125,593,495,469
2025-02-20 16:41:00.659,-1119.0,1756.0,-457.0,98.0,-105.0,-441.0,142,75,73,90,125,462,406,461
2025-02-20 16:41:00.678,-764.0,1194.0,-467.0,112.0,-311.0,-525.0,142,75,72,93,124,407,419,470
2025-02-20 16:41:00.699,476.0,-99.0,17.0,55.0,-572.0,-456.0,142,73,70,98,124,317,386,469
2025-02-20 16:41:00.716,2210.0,-1766.0,1109.0,46.0,-616.0,-241.0,142,75,72,105,123,300,327,469
2025-02-20 16:41:00.735,2541.0,-2269.0,2418.0,32.0,-429.0,-16.0,143,78,75,109,124,341,324,465
2025-02-20 16:41:00.756,2139.0,-1544.0,2874.0,-48.0,-106.0,114.0,145,81,78,112,123,443,426,523
2025-02-20 16:41:00.773,1472.0,-987.0,2354.0,-132.0,72.0,125.0,145,82,79,114,123,487,516,561
2025-02-20 16:41:00.793,506.0,-669.0,1765.0,-119.0,148.0,151.0,144,82,79,114,123,374,598,524
2025-02-20 16:41:00.813,267.0,-501.0,1561.0,-114.0,173.0,169.0,145,82,81,115,122,319,586,496
2025-02-20 16:41:00.831,201.0,-427.0,1426.0,-144.0,201.0,197.0,144,86,84,117,119,245,523,449
2025-02-20 16:41:00.850,90.0,-227.0,1201.0,-193.0,228.0,213.0,143,92,85,118,115,296,453,426
2025-02-20 16:41:00.868,-158.0,-199.0,944.0,-224.0,206.0,229.0,144,97,86,113,112,378,460,447
2025-02-20 16:41:00.887,-174.0,-273.0,957.0,-193.0,209.0,236.0,143,99,86,109,109,531,588,513
2025-02-20 16:41:00.907,-177.0,-196.0,756.0,-149.0,234.0,248.0,143,101,86,108,103,619,611,548
2025-02-20 16:41:00.925,-216.0,18.0,897.0,-118.0,273.0,262.0,143,101,86,108,99,610,597,548
2025-02-20 16:41:00.945,-334.0,179.0,743.0,-66.0,335.0,267.0,144,101,85,108,94,532,553,525
2025-02-20 16:41:00.965,-686.0,619.0,371.0,-96.0,316.0,218.0,144,99,87,107,91,497,503,493
2025-02-20 16:41:00.981,-582.0,810.0,62.0,-104.0,293.0,158.0,144,96,85,106,89,481,435,475
2025-02-20 16:41:01.002,-781.0,1065.0,-354.0,-77.0,272.0,68.0,142,91,81,99,83,537,436,439
2025-02-20 16:41:01.022,-800.0,1511.0,-768.0,-42.0,194.0,-42.0,140,80,74,90,73,603,467,423
2025-02-20 16:41:01.039,-1195.0,1663.0,-1625.0,121.0,47.0,-186.0,136,68,64,80,61,656,377,459
2025-02-20 16:41:01.059,-1479.0,1972.0,-2125.0,180.0,-210.0,-412.0,131,62,61,70,56,643,309,485
2025-02-20 16:41:01.076,-863.0,1830.0,-2438.0,43.0,-518.0,-605.0,126,62,58,63,52,618,331,458
2025-02-20 16:41:01.095,433.0,1204.0,-2555.0,-39.0,-857.0,-692.0,124,59,57,61,54,546,373,458
2025-02-20 16:41:01.117,4029.0,-600.0,-1739.0,-79.0,-1167.0,-575.0,125,57,54,63,59,322,356,449
2025-02-20 16:41:01.134,4871.0,-3733.0,2004.0,149.0,-875.0,-269.0,128,59,54,64,60,248,385,499
2025-02-20 16:41:01.154,4254.0,-3192.0,3445.0,401.0,-162.0,50.0,130,62,57,64,61,482,423,486
2025-02-20 16:41:01.174,1747.0,-968.0,3092.0,264.0,153.0,7.0,130,63,57,64,57,585,547,453
2025-02-20 16:41:01.191,1020.0,-746.0,2450.0,42.0,217.0,30.0,129,62,57,65,51,522,576,438
2025-02-20 16:41:01.211,541.0,-961.0,1686.0,-118.0,219.0,116.0,129,59,58,67,52,386,577,419
2025-02-20 16:41:01.231,447.0,-891.0,1363.0,-206.0,216.0,155.0,129,59,59,65,55,121,515,387
2025-02-20 16:41:01.247,173.0,-948.0,1099.0,-210.0,243.0,171.0,131,61,59,67,58,127,421,401
2025-02-20 16:41:01.268,220.0,-980.0,854.0,-135.0,284.0,180.0,130,64,58,69,61,217,305,420
2025-02-20 16:41:01.285,103.0,-646.0,614.0,-70.0,326.0,181.0,131,65,59,71,65,468,490,478
2025-02-20 16:41:01.306,-21.0,-393.0,594.0,-55.0,343.0,188.0,131,66,60,70,69,537,697,508
2025-02-20 16:41:01.325,-112.0,-291.0,383.0,-66.0,361.0,195.0,132,66,60,71,70,625,710,483
2025-02-20 16:41:01.343,-356.0,-240.0,104.0,-39.0,324.0,206.0,131,66,60,75,73,591,662,442
2025-02-20 16:41:01.361,-199.0,-202.0,173.0,-22.0,305.0,227.0,132,67,61,71,74,604,548,424
2025-02-20 16:41:01.380,-469.0,-105.0,-71.0,-11.0,275.0,224.0,132,67,61,71,73,614,421,457
2025-02-20 16:41:01.400,-621.0,77.0,-313.0,15.0,196.0,187.0,133,65,61,71,72,567,331,453
2025-02-20 16:41:01.416,-674.0,256.0,-341.0,25.0,124.0,136.0,132,64,61,74,71,614,338,428
2025-02-20 16:41:01.437,-436.0,333.0,-363.0,41.0,95.0,123.0,132,65,63,76,71,582,307,418
2025-02-20 16:41:01.453,-684.0,594.0,-632.0,88.0,73.0,109.0,132,65,63,76,71,475,364,421
2025-02-20 16:41:01.477,-1084.0,1267.0,-1404.0,153.0,-3.0,8.0,129,65,63,75,70,495,416,414
2025-02-20 16:41:01.497,-1761.0,2297.0,-2511.0,266.0,-186.0,-251.0,126,64,60,70,62,474,463,427
2025-02-20 16:41:01.513,-1404.0,2566.0,-2778.0,222.0,-641.0,-565.0,124,67,59,67,61,424,439,462
2025-02-20 16:41:01.535,1319.0,1818.0,-1968.0,103.0,-1046.0,-687.0,124,62,60,68,66,316,342,472
2025-02-20 16:41:01.549,5140.0,-1731.0,281.0,83.0,-1111.0,-454.0,127,62,58,73,68,249,268,483
2025-02-20 16:41:01.572,4778.0,-4088.0,4031.0,411.0,-448.0,-22.0,131,66,61,73,72,377,285,483
2025-02-20 16:41:01.592,2903.0,-709.0,3488.0,283.0,101.0,61.0,132,69,61,73,71,636,403,460
2025-02-20 16:41:01.609,143.0,741.0,2609.0,11.0,160.0,-57.0,130,70,60,72,65,534,645,458
2025-02-20 16:41:01.629,-169.0,-386.0,1240.0,-161.0,97.0,0.0,129,69,59,71,62,496,660,425
2025-02-20 16:41:01.649,-182.0,-728.0,902.0,-170.0,80.0,-10.0,127,66,61,74,65,396,653,379
2025-02-20 16:41:01.664,-222.0,-997.0,686.0,-50.0,74.0,-36.0,127,67,61,76,68,194,560,376
2025-02-20 16:41:01.686,-116.0,-941.0,628.0,27.0,64.0,-24.0,127,69,61,77,69,22,405,417
2025-02-20 16:41:01.703,-13.0,-718.0,791.0,43.0,55.0,-9.0,129,69,57,78,72,255,379,469
2025-02-20 16:41:01.723,32.0,-765.0,877.0,17.0,24.0,17.0,128,69,61,79,74,565,576,507
2025-02-20 16:41:01.743,0.0,-604.0,957.0,-10.0,6.0,29.0,129,69,62,80,77,717,603,510
2025-02-20 16:41:01.760,-47.0,-551.0,947.0,-4.0,4.0,23.0,128,68,61,81,78,685,545,523
2025-02-20 16:41:01.780,-131.0,-546.0,918.0,2.0,6.0,32.0,130,67,63,80,78,495,391,516
2025-02-20 16:41:01.799,-126.0,-444.0,861.0,-2.0,9.0,27.0,130,68,62,81,78,466,421,465
2025-02-20 16:41:01.817,-133.0,-428.0,832.0,-19.0,7.0,29.0,130,69,62,81,79,464,291,441
2025-02-20 16:41:01.838,-142.0,-379.0,826.0,-30.0,5.0,21.0,130,70,62,79,78,504,315,433
2025-02-20 16:41:01.858,-137.0,-470.0,819.0,-26.0,-1.0,12.0,130,70,62,75,79,448,421,435
2025-02-20 16:41:01.875,-130.0,-492.0,809.0,-21.0,-8.0,14.0,131,71,62,77,77,449,496,449
2025-02-20 16:41:01.894,-89.0,-494.0,815.0,-19.0,-7.0,14.0,131,70,62,77,77,476,514,467
2025-02-20 16:41:01.912,-35.0,-521.0,847.0,-12.0,0.0,8.0,131,70,62,79,78,517,543,477
2025-02-20 16:41:01.931,-40.0,-558.0,845.0,4.0,11.0,6.0,131,70,62,77,78,568,562,483
2025-02-20 16:41:01.952,-103.0,-511.0,821.0,7.0,14.0,10.0,131,70,63,78,79,582,557,480
2025-02-20 16:41:01.969,-115.0,-477.0,841.0,8.0,9.0,6.0,132,70,62,79,78,561,569,485
2025-02-20 16:41:01.985,-124.0,-457.0,845.0,7.0,3.0,7.0,130,70,63,80,78,558,565,480
2025-02-20 16:41:02.009,-129.0,-470.0,892.0,3.0,-1.0,9.0,132,71,63,79,79,551,532,477
2025-02-20 16:41:02.026,-127.0,-490.0,905.0,-1.0,-3.0,8.0,131,70,62,79,79,528,476,467
2025-02-20 16:41:02.046,-150.0,-499.0,916.0,-6.0,-8.0,11.0,131,71,63,78,79,510,419,471
2025-02-20 16:41:02.066,-124.0,-498.0,940.0,-3.0,-9.0,6.0,131,71,62,79,80,500,368,478
2025-02-20 16:41:02.084,-120.0,-503.0,953.0,0.0,0.0,6.0,132,72,63,78,79,514,359,481
2025-02-20 16:41:02.104,-134.0,-500.0,923.0,1.0,9.0,5.0,131,72,63,78,78,517,404,478
2025-02-20 16:41:02.121,-148.0,-490.0,886.0,0.0,11.0,6.0,132,71,62,78,78,509,458,473
2025-02-20 16:41:02.141,-134.0,-504.0,886.0,-1.0,14.0,4.0,131,71,63,80,79,492,501,470
2025-02-20 16:41:02.161,-169.0,-530.0,836.0,-2.0,13.0,6.0,132,71,62,79,79,473,490,466
2025-02-20 16:41:02.178,-173.0,-492.0,828.0,-1.0,8.0,8.0,131,72,64,79,78,458,456,461
2025-02-20 16:41:02.198,-176.0,-493.0,825.0,-3.0,4.0,6.0,132,71,63,79,79,440,450,459
2025-02-20 16:41:02.216,-169.0,-483.0,846.0,-4.0,0.0,4.0,132,72,64,80,79,433,441,459
2025-02-20 16:41:02.235,-150.0,-507.0,862.0,-5.0,0.0,3.0,132,72,63,79,79,443,432,463
2025-02-20 16:41:02.252,-141.0,-509.0,872.0,-7.0,1.0,3.0,131,72,63,79,79,475,442,469
2025-02-20 16:41:02.269,-132.0,-537.0,864.0,-6.0,6.0,4.0,131,71,63,80,79,470,460,473
2025-02-20 16:41:02.292,-173.0,-513.0,840.0,-6.0,6.0,6.0,131,71,63,79,82,464,480,476
2025-02-20 16:41:02.313,-179.0,-508.0,826.0,-3.0,1.0,2.0,132,72,63,79,79,464,506,481
2025-02-20 16:41:02.329,-177.0,-507.0,843.0,1.0,-1.0,2.0,132,72,63,78,79,472,513,482
2025-02-20 16:41:02.349,-151.0,-504.0,872.0,2.0,0.0,-1.0,131,72,63,78,78,476,510,481
2025-02-20 16:41:02.370,-165.0,-516.0,869.0,-1.0,1.0,1.0,132,72,63,78,79,470,490,480
2025-02-20 16:41:02.386,-170.0,-518.0,860.0,-2.0,-2.0,2.0,132,72,61,79,79,458,477,475
2025-02-20 16:41:02.407,-160.0,-530.0,866.0,1.0,-3.0,2.0,132,72,64,78,78,443,468,472
2025-02-20 16:41:02.427,-167.0,-513.0,864.0,1.0,-4.0,3.0,131,72,63,80,79,436,475,469
2025-02-20 16:41:02.444,-166.0,-509.0,873.0,1.0,-4.0,1.0,132,72,64,77,79,435,480,465
2025-02-20 16:41:02.465,-170.0,-518.0,868.0,0.0,-4.0,2.0,131,72,64,79,79,438,471,464
2025-02-20 16:41:02.484,-164.0,-517.0,892.0,0.0,-3.0,1.0,132,72,63,78,79,444,461,465
2025-02-20 16:41:02.502,-172.0,-517.0,891.0,-1.0,0.0,2.0,132,72,63,79,78,453,449,465
2025-02-20 16:41:02.522,-172.0,-508.0,874.0,0.0,0.0,0.0,131,71,63,77,79,458,419,468
2025-02-20 16:41:02.537,-169.0,-523.0,858.0,0.0,0.0,1.0,132,72,64,79,79,463,402,469
2025-02-20 16:41:02.559,-167.0,-514.0,846.0,0.0,-1.0,1.0,132,72,64,79,79,465,409,470
2025-02-20 16:41:02.579,-179.0,-507.0,842.0,0.0,-2.0,2.0,132,72,64,79,78,465,425,469
2025-02-20 16:41:02.595,-170.0,-490.0,852.0,-1.0,-4.0,0.0,132,72,64,80,78,466,445,469
2025-02-20 16:41:02.616,-168.0,-513.0,872.0,-1.0,-3.0,-1.0,133,72,64,79,79,466,459,469
2025-02-20 16:41:02.635,-160.0,-522.0,871.0,3.0,-1.0,-1.0,132,73,63,79,79,464,473,469
2025-02-20 16:41:02.652,-172.0,-505.0,869.0,3.0,0.0,1.0,132,72,65,78,78,466,482,468
2025-02-20 16:41:02.674,-170.0,-492.0,876.0,2.0,0.0,-2.0,132,73,63,79,78,463,492,469
2025-02-20 16:41:02.693,-169.0,-497.0,877.0,1.0,-1.0,-3.0,132,73,64,78,78,456,496,470
2025-02-20 16:41:02.710,-169.0,-491.0,873.0,-1.0,-2.0,-2.0,131,72,63,79,79,448,495,470
2025-02-20 16:41:02.731,-156.0,-495.0,872.0,-2.0,-1.0,-3.0,132,73,64,79,79,447,484,471
2025-02-20 16:41:02.751,-153.0,-517.0,876.0,-1.0,1.0,-2.0,132,72,64,78,79,452,471,471
2025-02-20 16:41:02.768,-164.0,-510.0,867.0,-1.0,2.0,0.0,131,72,64,77,79,460,467,469
2025-02-20 16:41:02.786,-162.0,-513.0,875.0,-1.0,1.0,0.0,132,73,64,78,78,462,464,468
2025-02-20 16:41:02.804,-167.0,-492.0,892.0,-1.0,2.0,0.0,132,72,63,79,79,460,462,468
2025-02-20 16:41:02.823,-173.0,-494.0,895.0,-1.0,4.0,-1.0,132,72,64,79,79,456,462,468
2025-02-20 16:41:02.845,-169.0,-510.0,883.0,-2.0,6.0,0.0,133,73,64,78,79,454,461,469
2025-02-20 16:41:02.862,-183.0,-489.0,865.0,-3.0,7.0,1.0,132,73,64,78,79,452,464,469
2025-02-20 16:41:02.882,-193.0,-500.0,849.0,-1.0,4.0,-3.0,132,73,64,79,79,450,469,468
2025-02-20 16:41:02.899,-181.0,-511.0,845.0,-1.0,2.0,-2.0,132,73,59,79,80,451,479,468
2025-02-20 16:41:02.919,-182.0,-516.0,851.0,-1.0,-2.0,-1.0,131,72,63,78,80,451,490,467
2025-02-20 16:41:02.940,-164.0,-528.0,865.0,-2.0,-3.0,0.0,132,73,64,79,80,453,488,467
2025-02-20 16:41:02.960,-174.0,-515.0,883.0,-3.0,-3.0,1.0,132,72,64,80,80,454,480,465
2025-02-20 16:41:02.977,-161.0,-518.0,903.0,1.0,0.0,-2.0,131,72,65,78,79,451,470,465
2025-02-20 16:41:02.996,-181.0,-505.0,893.0,0.0,3.0,0.0,132,73,64,77,80,448,459,467
2025-02-20 16:41:03.014,-174.0,-502.0,878.0,-2.0,3.0,0.0,132,70,64,77,79,446,451,467
2025-02-20 16:41:03.033,-177.0,-511.0,863.0,-3.0,2.0,1.0,132,73,65,79,79,448,447,468
2025-02-20 16:41:03.054,-178.0,-509.0,858.0,-6.0,-1.0,1.0,133,73,64,79,79,449,447,468
2025-02-20 16:41:03.071,-150.0,-527.0,879.0,-4.0,0.0,2.0,132,72,64,78,79,452,441,470
2025-02-20 16:41:03.088,-140.0,-531.0,890.0,-1.0,7.0,5.0,131,73,64,79,79,456,442,471
2025-02-20 16:41:03.111,-166.0,-525.0,879.0,-1.0,11.0,7.0,132,72,64,79,79,457,443,472
2025-02-20 16:41:03.125,-156.0,-523.0,886.0,0.0,17.0,10.0,132,74,64,78,79,459,442,474
2025-02-20 16:41:03.148,-146.0,-527.0,902.0,-2.0,26.0,17.0,131,72,63,78,79,461,441,476
2025-02-20 16:41:03.167,-128.0,-521.0,927.0,-11.0,43.0,28.0,131,73,65,78,78,464,445,475
2025-02-20 16:41:03.185,-177.0,-530.0,837.0,-26.0,53.0,41.0,132,73,63,78,78,466,451,474
2025-02-20 16:41:03.205,-211.0,-545.0,809.0,-26.0,51.0,51.0,132,73,65,79,79,465,460,473
2025-02-20 16:41:03.225,-163.0,-523.0,844.0,-26.0,63.0,59.0,133,72,64,78,79,464,461,472
2025-02-20 16:41:03.243,-193.0,-528.0,813.0,-23.0,81.0,62.0,133,73,66,81,79,469,463,472
2025-02-20 16:41:03.263,-303.0,-526.0,708.0,2.0,89.0,62.0,134,73,65,80,81,466,465,469
2025-02-20 16:41:03.280,-418.0,-492.0,604.0,16.0,76.0,58.0,133,73,66,82,82,445,465,468
2025-02-20 16:41:03.300,-402.0,-401.0,690.0,15.0,65.0,58.0,134,74,66,82,82,432,465,468
2025-02-20 16:41:03.319,-257.0,-434.0,779.0,20.0,80.0,57.0,134,74,65,82,82,431,464,467
2025-02-20 16:41:03.337,-324.0,-479.0,756.0,26.0,107.0,67.0,134,74,65,83,82,437,469,466
2025-02-20 16:41:03.358,-365.0,-527.0,682.0,59.0,120.0,73.0,134,73,65,83,82,505,471,464
2025-02-20 16:41:03.378,-587.0,-373.0,520.0,76.0,106.0,74.0,133,73,65,82,81,535,473,461
2025-02-20 16:41:03.395,-646.0,-245.0,524.0,54.0,70.0,68.0,134,72,65,83,82,522,474,459
2025-02-20 16:41:03.415,-288.0,-263.0,770.0,33.0,78.0,72.0,135,72,66,85,82,486,473,457
2025-02-20 16:41:03.435,-462.0,-406.0,659.0,51.0,93.0,65.0,134,73,66,84,84,462,465,457
2025-02-20 16:41:03.451,-815.0,-317.0,510.0,81.0,73.0,54.0,134,72,66,86,83,492,470,458
2025-02-20 16:41:03.472,-660.0,-219.0,587.0,85.0,32.0,51.0,135,74,67,88,83,500,480,459
2025-02-20 16:41:03.489,-589.0,-163.0,578.0,102.0,19.0,41.0,135,75,69,93,84,493,480,459
2025-02-20 16:41:03.509,-817.0,-111.0,1150.0,117.0,23.0,28.0,135,78,71,98,84,481,482,461
2025-02-20 16:41:03.529,-837.0,-46.0,706.0,82.0,-64.0,14.0,135,81,74,103,87,462,477,462
2025-02-20 16:41:03.543,-696.0,-93.0,646.0,49.0,-78.0,-2.0,135,85,77,105,90,464,467,460
2025-02-20 16:41:03.567,-632.0,-117.0,654.0,51.0,-82.0,-14.0,135,89,79,107,91,439,466,461
2025-02-20 16:41:03.586,-589.0,-76.0,742.0,39.0,-87.0,-24.0,135,92,80,111,94,410,464,463
2025-02-20 16:41:03.603,-633.0,-46.0,825.0,17.0,-97.0,-31.0,135,93,84,112,96,391,464,466
2025-02-20 16:41:03.624,-575.0,-74.0,858.0,5.0,-99.0,-25.0,135,96,85,114,100,392,459,468
2025-02-20 16:41:03.644,-540.0,-157.0,925.0,1.0,-93.0,-21.0,135,97,86,115,100,405,453,469
2025-02-20 16:41:03.657,-460.0,-169.0,962.0,-15.0,-78.0,-26.0,135,97,88,116,103,437,451,467
2025-02-20 16:41:03.681,-448.0,-128.0,981.0,-16.0,-65.0,-24.0,135,97,89,117,103,448,446,464
2025-02-20 16:41:03.701,-497.0,-208.0,1005.0,-18.0,-56.0,-18.0,134,98,90,116,104,444,448,458
2025-02-20 16:41:03.718,-484.0,-255.0,1015.0,-14.0,-49.0,-11.0,133,98,90,118,106,452,457,459
2025-02-20 16:41:03.738,-453.0,-252.0,1042.0,-13.0,-41.0,-2.0,134,98,91,119,106,458,465,461
2025-02-20 16:41:03.756,-404.0,-269.0,1071.0,4.0,-25.0,0.0,134,98,91,120,107,470,460,463
