timestamp,ax,ay,az,gx,gy,gz,flex1,flex2,flex3,flex4,flex5,emg1,emg2,emg3
2025-03-17 18:33:21.932,-514.0,-101.0,889.0,1.0,-1.0,-1.0,136,85,147,97,115
2025-03-17 18:33:21.934,-516.0,-106.0,895.0,2.0,-1.0,-1.0,136,83,146,94,113
2025-03-17 18:33:21.937,-512.0,-100.0,892.0,-2.0,-1.0,-1.0,136,83,146,95,113
2025-03-17 18:33:21.940,-518.0,-104.0,881.0,-1.0,0.0,-1.0,137,85,146,94,113
2025-03-17 18:33:21.942,-519.0,-102.0,909.0,-1.0,-1.0,0.0,137,86,148,98,116
2025-03-17 18:33:21.945,-517.0,-89.0,882.0,-1.0,0.0,-1.0,137,86,147,97,112
2025-03-17 18:33:21.946,-511.0,-106.0,885.0,-2.0,-1.0,-1.0,136,86,148,96,115
2025-03-17 18:33:21.951,-513.0,-103.0,871.0,-1.0,-1.0,0.0,136,85,148,97,115
2025-03-17 18:33:21.952,-520.0,-89.0,879.0,0.0,-1.0,0.0,134,84,145,94,112
2025-03-17 18:33:21.957,-513.0,-94.0,877.0,0.0,-2.0,-1.0,135,83,146,96,112
2025-03-17 18:33:21.981,-506.0,-95.0,889.0,-1.0,-3.0,-1.0,136,84,146,98,113
2025-03-17 18:33:22.005,-505.0,-96.0,892.0,-2.0,-2.0,-1.0,136,86,143,96,114
2025-03-17 18:33:22.024,-517.0,-95.0,908.0,-1.0,-1.0,0.0,138,86,149,96,114
2025-03-17 18:33:22.050,-506.0,-78.0,889.0,0.0,0.0,0.0,139,84,147,97,115
2025-03-17 18:33:22.076,-509.0,-84.0,891.0,-1.0,-1.0,-1.0,135,85,147,96,116
2025-03-17 18:33:22.098,-517.0,-99.0,881.0,-1.0,-2.0,0.0,138,85,149,96,114
2025-03-17 18:33:22.120,-511.0,-94.0,893.0,1.0,-2.0,0.0,136,83,145,94,111
2025-03-17 18:33:22.149,-518.0,-83.0,903.0,1.0,-2.0,1.0,137,84,145,95,112
2025-03-17 18:33:22.163,-513.0,-73.0,886.0,-1.0,-1.0,-1.0,136,84,147,94,113
2025-03-17 18:33:22.195,-517.0,-81.0,887.0,-1.0,-1.0,-1.0,136,83,145,95,112
2025-03-17 18:33:22.219,-513.0,-90.0,904.0,-1.0,-2.0,-1.0,136,85,147,96,114
2025-03-17 18:33:22.240,-503.0,-79.0,887.0,0.0,-1.0,0.0,139,87,148,97,114
2025-03-17 18:33:22.269,-515.0,-81.0,876.0,-1.0,-1.0,0.0,139,83,148,97,115
2025-03-17 18:33:22.285,-509.0,-90.0,891.0,-1.0,0.0,0.0,137,86,148,98,116
2025-03-17 18:33:22.316,-510.0,-84.0,873.0,-1.0,0.0,0.0,139,87,147,98,114
2025-03-17 18:33:22.341,-508.0,-87.0,870.0,-1.0,-1.0,0.0,136,84,146,95,113
2025-03-17 18:33:22.363,-511.0,-77.0,883.0,1.0,-1.0,1.0,135,84,146,94,112
2025-03-17 18:33:22.388,-510.0,-65.0,887.0,1.0,-1.0,-1.0,136,85,146,93,114
2025-03-17 18:33:22.412,-505.0,-78.0,891.0,-3.0,-2.0,-2.0,137,84,147,97,115
2025-03-17 18:33:22.436,-510.0,-88.0,893.0,0.0,-2.0,-1.0,140,87,148,97,115
2025-03-17 18:33:22.461,-507.0,-73.0,895.0,1.0,-2.0,-1.0,148,97,157,108,126
2025-03-17 18:33:22.485,-514.0,-81.0,882.0,0.0,-1.0,-1.0,172,122,181,134,149
2025-03-17 18:33:22.510,-514.0,-85.0,885.0,0.0,-1.0,-1.0,197,148,206,160,176
2025-03-17 18:33:22.530,-506.0,-89.0,895.0,-1.0,-1.0,-2.0,205,156,213,165,182
2025-03-17 18:33:22.553,-493.0,-113.0,885.0,-2.0,-3.0,-1.0,147,96,156,107,125
2025-03-17 18:33:22.580,-497.0,-72.0,917.0,2.0,0.0,0.0,145,94,155,105,123
2025-03-17 18:33:22.601,-511.0,-89.0,891.0,0.0,0.0,-1.0,148,98,159,109,127
2025-03-17 18:33:22.628,-515.0,-83.0,878.0,-2.0,0.0,-1.0,157,106,165,115,133
2025-03-17 18:33:22.651,-514.0,-81.0,874.0,-2.0,0.0,-1.0,157,107,166,117,135
2025-03-17 18:33:22.678,-502.0,-91.0,875.0,0.0,0.0,-1.0,162,112,172,123,141
2025-03-17 18:33:22.698,-517.0,-87.0,886.0,1.0,0.0,-1.0,149,97,157,107,126
2025-03-17 18:33:22.724,-505.0,-84.0,875.0,0.0,0.0,-1.0,148,97,158,108,126
2025-03-17 18:33:22.748,-511.0,-77.0,876.0,-1.0,-1.0,-1.0,145,90,151,101,119
2025-03-17 18:33:22.772,-513.0,-87.0,872.0,-2.0,0.0,-1.0,150,98,159,109,125
2025-03-17 18:33:22.782,-511.0,-86.0,891.0,0.0,-2.0,-1.0,154,103,165,114,131
2025-03-17 18:33:22.821,-501.0,-77.0,901.0,0.0,-2.0,-1.0,156,105,165,117,135
2025-03-17 18:33:22.846,-500.0,-58.0,845.0,-2.0,-2.0,-1.0,159,106,167,119,136
2025-03-17 18:33:22.868,-520.0,-94.0,908.0,-1.0,-2.0,-3.0,159,108,169,118,137
2025-03-17 18:33:22.892,-505.0,-81.0,913.0,0.0,-1.0,-2.0,158,107,166,116,136
2025-03-17 18:33:22.916,-511.0,-85.0,882.0,-1.0,-2.0,-3.0,155,100,162,113,130
2025-03-17 18:33:22.940,-505.0,-98.0,875.0,-1.0,-2.0,-1.0,143,93,154,104,121
2025-03-17 18:33:22.964,-503.0,-84.0,877.0,0.0,-2.0,-1.0,146,92,155,105,121
2025-03-17 18:33:22.989,-510.0,-72.0,869.0,-4.0,-2.0,-1.0,143,90,151,102,121
2025-03-17 18:33:23.013,-520.0,-112.0,910.0,-1.0,-2.0,-2.0,143,91,152,102,120
2025-03-17 18:33:23.038,-508.0,-85.0,920.0,1.0,-2.0,-1.0,144,92,153,103,120
2025-03-17 18:33:23.059,-522.0,-112.0,883.0,0.0,-3.0,-1.0,145,92,154,103,120
2025-03-17 18:33:23.084,-519.0,-96.0,886.0,5.0,-2.0,0.0,145,95,154,103,123
2025-03-17 18:33:23.104,-512.0,-89.0,912.0,3.0,1.0,0.0,146,93,159,105,123
2025-03-17 18:33:23.133,-502.0,-74.0,894.0,-2.0,0.0,-1.0,145,93,154,104,122
2025-03-17 18:33:23.157,-507.0,-82.0,896.0,1.0,0.0,0.0,137,86,147,98,115
2025-03-17 18:33:23.181,-516.0,-91.0,870.0,0.0,0.0,0.0,138,86,148,99,117
2025-03-17 18:33:23.206,-522.0,-64.0,879.0,-1.0,0.0,-1.0,140,89,151,101,117
2025-03-17 18:33:23.227,-491.0,-83.0,928.0,-2.0,1.0,-1.0,145,90,152,101,121
2025-03-17 18:33:23.249,-505.0,-53.0,838.0,-4.0,0.0,-1.0,146,94,156,106,123
2025-03-17 18:33:23.276,-509.0,-79.0,856.0,-3.0,0.0,0.0,154,103,164,114,134
2025-03-17 18:33:23.299,-511.0,-84.0,891.0,-2.0,-2.0,0.0,175,124,185,136,158
2025-03-17 18:33:23.325,-485.0,-74.0,843.0,-2.0,-2.0,-2.0,155,104,164,115,133
2025-03-17 18:33:23.347,-519.0,-83.0,824.0,-2.0,-3.0,-2.0,138,85,148,96,114
2025-03-17 18:33:23.373,-498.0,-54.0,884.0,2.0,-2.0,-3.0,138,86,148,97,115
2025-03-17 18:33:23.395,-509.0,-76.0,936.0,2.0,-3.0,-2.0,134,82,144,94,113
2025-03-17 18:33:23.420,-527.0,-84.0,874.0,4.0,-3.0,-1.0,135,85,145,94,112
2025-03-17 18:33:23.444,-521.0,-95.0,865.0,5.0,-3.0,-1.0,135,83,145,94,115
2025-03-17 18:33:23.469,-507.0,-36.0,898.0,1.0,-3.0,-3.0,137,83,146,95,113
2025-03-17 18:33:23.493,-521.0,-61.0,907.0,-2.0,-1.0,-3.0,136,83,145,95,112
2025-03-17 18:33:23.517,-511.0,-94.0,878.0,1.0,-2.0,-3.0,136,83,146,96,113
2025-03-17 18:33:23.542,-510.0,-73.0,885.0,-1.0,-3.0,-3.0,135,83,146,94,113
2025-03-17 18:33:23.563,-509.0,-84.0,938.0,-2.0,-2.0,-3.0,134,82,145,93,111
2025-03-17 18:33:23.588,-498.0,-100.0,916.0,-1.0,-3.0,-2.0,134,81,144,94,112
2025-03-17 18:33:23.612,-513.0,-96.0,910.0,2.0,-3.0,-1.0,134,83,145,93,113
2025-03-17 18:33:23.637,-501.0,-106.0,900.0,3.0,-3.0,0.0,136,83,145,94,113
2025-03-17 18:33:23.661,-501.0,-86.0,903.0,2.0,-1.0,0.0,133,83,145,94,113
2025-03-17 18:33:23.686,-499.0,-77.0,921.0,-1.0,0.0,-1.0,137,83,146,94,113
2025-03-17 18:33:23.710,-504.0,-67.0,914.0,1.0,-1.0,-1.0,137,86,145,94,110
2025-03-17 18:33:23.731,-490.0,-99.0,867.0,0.0,1.0,-1.0,137,84,146,95,113
2025-03-17 18:33:23.752,-504.0,-81.0,918.0,-1.0,2.0,1.0,136,83,145,94,111
2025-03-17 18:33:23.777,-511.0,-64.0,925.0,-2.0,1.0,0.0,135,83,144,95,113
2025-03-17 18:33:23.794,-495.0,-80.0,878.0,0.0,0.0,0.0,134,84,145,91,113
2025-03-17 18:33:23.829,-503.0,-66.0,879.0,-1.0,-1.0,0.0,138,85,146,96,115
2025-03-17 18:33:23.849,-508.0,-70.0,887.0,-1.0,-1.0,0.0,135,85,147,97,115
2025-03-17 18:33:23.878,-506.0,-57.0,893.0,-1.0,0.0,0.0,139,87,149,100,116
2025-03-17 18:33:23.899,-495.0,-53.0,903.0,-2.0,-2.0,-1.0,139,87,148,98,116
2025-03-17 18:33:23.924,-491.0,-63.0,901.0,-2.0,0.0,-1.0,138,87,149,98,116
2025-03-17 18:33:23.946,-507.0,-76.0,861.0,-2.0,-1.0,-2.0,138,87,148,98,116
2025-03-17 18:33:23.972,-503.0,-71.0,884.0,0.0,-2.0,-2.0,136,83,145,94,113
2025-03-17 18:33:23.997,-497.0,-64.0,892.0,-1.0,-2.0,-2.0,136,84,147,96,113
2025-03-17 18:33:24.019,-494.0,-67.0,879.0,-1.0,-3.0,-3.0,137,85,146,96,115
2025-03-17 18:33:24.045,-499.0,-85.0,909.0,-1.0,-2.0,-2.0,137,85,147,98,115
2025-03-17 18:33:24.067,-505.0,-68.0,898.0,0.0,-2.0,-2.0,137,86,147,98,115
2025-03-17 18:33:24.092,-494.0,-67.0,903.0,0.0,-3.0,-2.0,139,87,149,97,116
2025-03-17 18:33:24.115,-496.0,-77.0,912.0,2.0,-3.0,-3.0,139,87,148,97,116
2025-03-17 18:33:24.141,-506.0,-75.0,916.0,0.0,-3.0,-3.0,138,85,149,98,116
2025-03-17 18:33:24.165,-506.0,-85.0,932.0,0.0,-2.0,-3.0,140,85,146,96,114
2025-03-17 18:33:24.190,-504.0,-101.0,918.0,0.0,-1.0,-3.0,137,85,147,98,114
2025-03-17 18:33:24.214,-502.0,-100.0,912.0,-1.0,0.0,-2.0,138,84,145,93,114
2025-03-17 18:33:24.235,-504.0,-95.0,915.0,-1.0,1.0,0.0,136,84,146,93,115
2025-03-17 18:33:24.260,-503.0,-104.0,897.0,0.0,1.0,1.0,139,85,149,98,116
2025-03-17 18:33:24.284,-503.0,-80.0,888.0,-2.0,1.0,2.0,138,87,148,98,117
2025-03-17 18:33:24.309,-510.0,-82.0,888.0,-3.0,1.0,2.0,133,87,149,103,116
2025-03-17 18:33:24.333,-504.0,-71.0,887.0,-3.0,0.0,2.0,139,87,148,98,116
2025-03-17 18:33:24.357,-502.0,-57.0,885.0,-6.0,2.0,0.0,139,86,149,98,116
2025-03-17 18:33:24.382,-501.0,-69.0,870.0,-7.0,0.0,0.0,135,83,145,95,113
2025-03-17 18:33:24.403,-484.0,-71.0,880.0,-2.0,-3.0,0.0,136,83,145,95,114
2025-03-17 18:33:24.428,-489.0,-61.0,905.0,0.0,-3.0,0.0,134,84,146,90,115
2025-03-17 18:33:24.450,-486.0,-60.0,907.0,-2.0,-2.0,-1.0,136,84,146,96,114
2025-03-17 18:33:24.467,-474.0,-84.0,914.0,-1.0,-1.0,-1.0,137,84,146,95,115
2025-03-17 18:33:24.498,-491.0,-86.0,880.0,1.0,-1.0,-1.0,137,86,146,96,116
2025-03-17 18:33:24.523,-476.0,-93.0,903.0,2.0,-3.0,1.0,138,86,147,97,116
2025-03-17 18:33:24.539,-488.0,-71.0,893.0,3.0,-4.0,2.0,138,85,147,97,115
2025-03-17 18:33:24.570,-503.0,-56.0,918.0,3.0,-4.0,1.0,138,87,149,97,115
2025-03-17 18:33:24.596,-506.0,-59.0,950.0,2.0,-2.0,0.0,144,93,153,103,123
2025-03-17 18:33:24.620,-522.0,-60.0,925.0,1.0,-2.0,0.0,157,105,165,115,134
2025-03-17 18:33:24.644,-530.0,-37.0,916.0,-4.0,-1.0,-3.0,155,104,164,114,132
2025-03-17 18:33:24.669,-517.0,-67.0,909.0,-5.0,1.0,-4.0,183,134,192,145,162
2025-03-17 18:33:24.692,-506.0,-80.0,927.0,-3.0,0.0,-4.0,191,141,199,152,170
2025-03-17 18:33:24.717,-511.0,-85.0,920.0,3.0,2.0,-2.0,166,116,175,126,145
2025-03-17 18:33:24.741,-510.0,-88.0,896.0,3.0,0.0,-1.0,223,176,232,187,203
2025-03-17 18:33:24.763,-496.0,-62.0,925.0,-1.0,2.0,-1.0,193,143,202,153,172
2025-03-17 18:33:24.788,-496.0,-84.0,888.0,-5.0,2.0,-2.0,169,119,179,129,148
2025-03-17 18:33:24.812,-488.0,-87.0,876.0,-1.0,1.0,0.0,166,115,174,124,143
2025-03-17 18:33:24.836,-489.0,-70.0,878.0,1.0,1.0,1.0,158,107,169,120,138
2025-03-17 18:33:24.861,-502.0,-64.0,871.0,-2.0,0.0,0.0,158,109,169,119,137
2025-03-17 18:33:24.886,-503.0,-71.0,866.0,-2.0,0.0,0.0,170,120,178,130,148
2025-03-17 18:33:24.910,-500.0,-65.0,883.0,0.0,-2.0,0.0,203,156,213,167,184
2025-03-17 18:33:24.931,-492.0,-60.0,893.0,-3.0,-2.0,-1.0,159,107,168,118,136
2025-03-17 18:33:24.953,-493.0,-54.0,886.0,-3.0,-1.0,-1.0,159,106,167,117,136
2025-03-17 18:33:24.980,-497.0,-56.0,893.0,-2.0,-2.0,-1.0,154,103,163,113,131
2025-03-17 18:33:25.005,-488.0,-63.0,897.0,-3.0,-3.0,-2.0,149,96,156,107,126
2025-03-17 18:33:25.029,-495.0,-71.0,894.0,-3.0,-3.0,-2.0,143,92,154,104,121
2025-03-17 18:33:25.054,-503.0,-74.0,912.0,-2.0,-4.0,-2.0,146,95,156,106,125
2025-03-17 18:33:25.073,-505.0,-39.0,937.0,-1.0,-2.0,-4.0,153,102,163,113,132
2025-03-17 18:33:25.099,-501.0,-39.0,934.0,-5.0,-1.0,-6.0,155,100,162,113,131
2025-03-17 18:33:25.123,-496.0,-74.0,911.0,-8.0,1.0,-7.0,155,104,163,114,132
2025-03-17 18:33:25.133,-483.0,-84.0,901.0,-1.0,1.0,-6.0,156,104,164,115,134
2025-03-17 18:33:25.173,-500.0,-95.0,912.0,-1.0,0.0,-4.0,156,106,166,117,135
2025-03-17 18:33:25.195,-507.0,-75.0,909.0,0.0,0.0,-5.0,145,92,154,104,122
2025-03-17 18:33:25.222,-500.0,-100.0,895.0,0.0,1.0,-4.0,210,161,218,171,189
2025-03-17 18:33:25.244,-521.0,-64.0,952.0,-2.0,3.0,-6.0,204,156,214,166,185
2025-03-17 18:33:25.260,-522.0,-117.0,858.0,-6.0,1.0,-6.0,161,110,170,120,139
2025-03-17 18:33:25.292,-525.0,-105.0,870.0,-3.0,2.0,-3.0,171,120,179,129,147
2025-03-17 18:33:25.316,-515.0,-113.0,887.0,-1.0,1.0,-2.0,169,120,179,131,149
2025-03-17 18:33:25.341,-508.0,-127.0,873.0,0.0,1.0,0.0,171,122,181,132,150
2025-03-17 18:33:25.365,-509.0,-104.0,863.0,-2.0,1.0,0.0,152,100,161,112,130
2025-03-17 18:33:25.389,-503.0,-107.0,868.0,0.0,1.0,0.0,154,101,161,111,130
2025-03-17 18:33:25.413,-507.0,-116.0,865.0,0.0,0.0,3.0,141,89,151,101,120
2025-03-17 18:33:25.435,-498.0,-93.0,879.0,-2.0,-1.0,5.0,143,92,153,103,119
2025-03-17 18:33:25.460,-500.0,-101.0,860.0,-1.0,1.0,5.0,150,99,160,111,128
2025-03-17 18:33:25.473,-508.0,-86.0,870.0,4.0,0.0,3.0,155,105,166,117,135
2025-03-17 18:33:25.508,-491.0,-97.0,881.0,2.0,3.0,2.0,153,103,163,114,132
2025-03-17 18:33:25.532,-499.0,-78.0,872.0,0.0,0.0,-1.0,156,106,166,118,135
2025-03-17 18:33:25.558,-489.0,-81.0,868.0,0.0,-3.0,-1.0,157,106,166,117,135
2025-03-17 18:33:25.576,-467.0,-77.0,899.0,4.0,1.0,-2.0,158,103,168,119,136
2025-03-17 18:33:25.602,-476.0,-54.0,905.0,5.0,5.0,-1.0,145,92,153,103,121
2025-03-17 18:33:25.627,-500.0,-32.0,875.0,8.0,-1.0,-5.0,149,98,159,108,127
2025-03-17 18:33:25.652,-517.0,-23.0,865.0,4.0,-4.0,-10.0,150,98,158,109,127
2025-03-17 18:33:25.674,-507.0,-48.0,854.0,3.0,-8.0,-15.0,146,95,157,106,125
2025-03-17 18:33:25.691,-497.0,-65.0,857.0,4.0,-8.0,-13.0,151,103,163,114,132
2025-03-17 18:33:25.723,-513.0,-48.0,895.0,7.0,-3.0,-12.0,157,109,168,119,136
2025-03-17 18:33:25.750,-509.0,-48.0,877.0,9.0,-7.0,-14.0,158,108,167,120,136
2025-03-17 18:33:25.774,-505.0,-81.0,902.0,11.0,-6.0,-16.0,156,106,166,116,135
2025-03-17 18:33:25.796,-484.0,-61.0,904.0,12.0,-8.0,-17.0,156,107,166,117,135
2025-03-17 18:33:25.820,-478.0,-62.0,918.0,11.0,-10.0,-17.0,146,94,155,106,126
2025-03-17 18:33:25.845,-476.0,-79.0,970.0,10.0,-9.0,-18.0,141,92,153,103,122
2025-03-17 18:33:25.868,-495.0,-68.0,936.0,11.0,-12.0,-17.0,147,95,157,106,126
2025-03-17 18:33:25.893,-487.0,-73.0,936.0,8.0,-14.0,-14.0,153,96,163,114,133
2025-03-17 18:33:25.916,-481.0,-84.0,975.0,9.0,-11.0,-12.0,153,102,162,114,134
2025-03-17 18:33:25.942,-495.0,-54.0,966.0,10.0,-10.0,-11.0,151,102,163,114,134
2025-03-17 18:33:25.964,-485.0,-42.0,937.0,8.0,-10.0,-11.0,154,104,164,116,137
2025-03-17 18:33:25.988,-495.0,-57.0,927.0,5.0,-10.0,-13.0,150,101,160,113,134
2025-03-17 18:33:26.012,-499.0,-94.0,950.0,7.0,-13.0,-9.0,142,91,152,103,126
2025-03-17 18:33:26.037,-481.0,-71.0,911.0,8.0,-19.0,-11.0,142,89,152,105,127
2025-03-17 18:33:26.061,-479.0,-68.0,953.0,7.0,-15.0,-11.0,141,94,155,106,128
2025-03-17 18:33:26.086,-443.0,-99.0,919.0,5.0,-10.0,-9.0,143,94,156,107,131
2025-03-17 18:33:26.110,-455.0,-104.0,923.0,8.0,-8.0,-5.0,148,98,159,111,136
2025-03-17 18:33:26.121,-430.0,-91.0,960.0,8.0,-4.0,-2.0,149,101,160,114,138
2025-03-17 18:33:26.152,-424.0,-90.0,953.0,6.0,3.0,2.0,150,102,162,116,139
2025-03-17 18:33:26.180,-418.0,-57.0,917.0,0.0,2.0,3.0,150,105,164,117,142
2025-03-17 18:33:26.205,-415.0,-60.0,909.0,-1.0,1.0,3.0,148,103,162,117,141
2025-03-17 18:33:26.229,-417.0,-74.0,903.0,2.0,2.0,5.0,136,91,150,105,131
2025-03-17 18:33:26.248,-428.0,-46.0,879.0,-1.0,-4.0,5.0,142,93,151,105,130
2025-03-17 18:33:26.278,-417.0,-43.0,914.0,-1.0,-6.0,0.0,140,96,153,108,133
2025-03-17 18:33:26.297,-426.0,-37.0,933.0,-3.0,-7.0,-1.0,149,102,159,114,140
2025-03-17 18:33:26.322,-443.0,-32.0,947.0,-1.0,-9.0,-3.0,145,102,158,112,139
2025-03-17 18:33:26.340,-416.0,-50.0,917.0,3.0,-9.0,-3.0,147,105,160,115,140
2025-03-17 18:33:26.371,-412.0,-23.0,945.0,3.0,-4.0,-1.0,148,105,159,114,139
2025-03-17 18:33:26.398,-420.0,-30.0,942.0,6.0,3.0,0.0,151,108,161,117,144
2025-03-17 18:33:26.419,-434.0,-13.0,936.0,3.0,1.0,1.0,142,97,153,108,136
2025-03-17 18:33:26.436,-428.0,-38.0,937.0,6.0,0.0,0.0,142,99,154,108,132
2025-03-17 18:33:26.467,-411.0,-10.0,981.0,4.0,-1.0,0.0,143,97,152,108,133
2025-03-17 18:33:26.491,-403.0,3.0,933.0,-4.0,-5.0,0.0,143,99,154,109,134
2025-03-17 18:33:26.516,-437.0,1.0,943.0,2.0,-11.0,-4.0,154,109,163,117,143
2025-03-17 18:33:26.540,-409.0,-44.0,991.0,2.0,-8.0,-5.0,154,110,165,121,145
2025-03-17 18:33:26.558,-420.0,-48.0,950.0,2.0,-7.0,-1.0,151,107,160,117,142
2025-03-17 18:33:26.590,-424.0,-42.0,937.0,-1.0,-8.0,-1.0,151,108,161,116,141
2025-03-17 18:33:26.614,-394.0,-55.0,934.0,0.0,-9.0,0.0,154,112,165,120,144
2025-03-17 18:33:26.636,-412.0,-42.0,966.0,4.0,-3.0,2.0,139,96,151,105,131
2025-03-17 18:33:26.660,-424.0,-17.0,965.0,1.0,0.0,2.0,140,97,154,105,132
2025-03-17 18:33:26.684,-430.0,-21.0,971.0,-2.0,3.0,1.0,145,99,155,111,136
2025-03-17 18:33:26.709,-432.0,-34.0,948.0,1.0,0.0,-1.0,150,107,161,116,142
2025-03-17 18:33:26.733,-416.0,-42.0,993.0,2.0,7.0,1.0,148,103,160,114,141
2025-03-17 18:33:26.757,-439.0,-13.0,954.0,-3.0,4.0,0.0,152,107,161,117,143
2025-03-17 18:33:26.781,-422.0,-36.0,906.0,-1.0,0.0,0.0,150,107,162,117,144
2025-03-17 18:33:26.801,-440.0,-31.0,946.0,0.0,-4.0,-2.0,148,105,160,115,140
2025-03-17 18:33:26.818,-420.0,-26.0,916.0,-2.0,-6.0,-4.0,140,95,151,104,132
2025-03-17 18:33:26.852,-390.0,-42.0,944.0,5.0,-1.0,0.0,143,100,153,106,135
2025-03-17 18:33:26.876,-410.0,7.0,959.0,-2.0,2.0,0.0,142,97,152,108,133
2025-03-17 18:33:26.900,-413.0,-15.0,935.0,-7.0,0.0,-1.0,137,100,154,109,135
2025-03-17 18:33:26.926,-404.0,-48.0,893.0,0.0,-1.0,0.0,145,104,158,112,139
2025-03-17 18:33:26.949,-410.0,-38.0,932.0,5.0,-1.0,2.0,148,105,160,116,143
2025-03-17 18:33:26.971,-410.0,-8.0,946.0,2.0,1.0,1.0,147,105,159,114,141
2025-03-17 18:33:26.994,-420.0,1.0,940.0,-1.0,4.0,-2.0,149,106,160,115,141
2025-03-17 18:33:27.020,-431.0,-46.0,899.0,-2.0,-3.0,-2.0,153,109,162,123,143
2025-03-17 18:33:27.044,-417.0,-40.0,930.0,0.0,-3.0,-1.0,142,100,154,108,136
2025-03-17 18:33:27.069,-411.0,-21.0,959.0,0.0,-3.0,0.0,142,98,151,107,134
2025-03-17 18:33:27.094,-415.0,-19.0,957.0,2.0,-2.0,1.0,140,100,154,107,136
2025-03-17 18:33:27.118,-410.0,-14.0,951.0,-2.0,-2.0,0.0,145,102,157,112,140
2025-03-17 18:33:27.142,-406.0,-11.0,933.0,-4.0,-3.0,-1.0,149,106,159,115,140
2025-03-17 18:33:27.163,-410.0,-27.0,963.0,-2.0,2.0,1.0,151,110,164,119,145
2025-03-17 18:33:27.188,-418.0,-11.0,965.0,-5.0,1.0,-1.0,154,109,163,120,144
2025-03-17 18:33:27.213,-401.0,-34.0,990.0,-6.0,7.0,1.0,153,108,164,121,146
2025-03-17 18:33:27.237,-419.0,-11.0,949.0,-5.0,11.0,1.0,145,103,156,111,136
2025-03-17 18:33:27.248,-438.0,5.0,887.0,-10.0,8.0,-2.0,146,102,152,110,137
2025-03-17 18:33:27.286,-441.0,-27.0,876.0,-10.0,4.0,-4.0,143,101,155,109,136
2025-03-17 18:33:27.310,-440.0,-45.0,855.0,-1.0,-5.0,-3.0,144,101,155,111,137
2025-03-17 18:33:27.332,-420.0,-25.0,922.0,2.0,-6.0,-3.0,151,108,161,116,143
2025-03-17 18:33:27.356,-407.0,-14.0,946.0,0.0,1.0,-4.0,151,109,162,117,142
2025-03-17 18:33:27.381,-425.0,-12.0,936.0,-3.0,-1.0,-4.0,153,109,162,119,145
2025-03-17 18:33:27.405,-417.0,-23.0,931.0,-3.0,-4.0,-5.0,151,107,161,116,143
2025-03-17 18:33:27.418,-392.0,-21.0,962.0,0.0,0.0,-5.0,147,106,159,115,140
2025-03-17 18:33:27.453,-410.0,-10.0,953.0,0.0,7.0,-5.0,139,97,152,105,131
2025-03-17 18:33:27.476,-430.0,0.0,943.0,-6.0,10.0,-6.0,141,96,151,105,132
2025-03-17 18:33:27.498,-434.0,8.0,922.0,-9.0,13.0,-5.0,145,98,154,105,135
2025-03-17 18:33:27.522,-483.0,68.0,908.0,-20.0,23.0,-9.0,146,98,156,108,135
2025-03-17 18:33:27.539,-534.0,198.0,741.0,-46.0,22.0,-17.0,145,96,156,106,132
2025-03-17 18:33:27.573,-464.0,298.0,530.0,-71.0,14.0,-37.0,146,93,157,108,128
2025-03-17 18:33:27.598,-511.0,288.0,465.0,-82.0,1.0,-75.0,145,85,155,101,126
2025-03-17 18:33:27.619,-613.0,17.0,513.0,-89.0,-59.0,-124.0,149,71,148,92,105
2025-03-17 18:33:27.637,-345.0,-332.0,1189.0,-134.0,-109.0,-136.0,142,53,128,71,70
2025-03-17 18:33:27.669,-166.0,-1078.0,2121.0,-247.0,-18.0,-74.0,131,47,119,70,53
2025-03-17 18:33:27.690,-35.0,-1389.0,2450.0,-356.0,104.0,14.0,136,44,110,66,36
2025-03-17 18:33:27.716,-33.0,-1281.0,1988.0,-401.0,279.0,61.0,141,44,105,63,47
2025-03-17 18:33:27.741,-217.0,-966.0,801.0,-335.0,302.0,28.0,139,49,111,68,50
2025-03-17 18:33:27.765,-671.0,-1039.0,163.0,-405.0,134.0,38.0,140,57,116,78,59
2025-03-17 18:33:27.789,-77.0,-1717.0,245.0,-283.0,133.0,147.0,124,54,113,71,52
2025-03-17 18:33:27.814,-542.0,-909.0,138.0,-117.0,130.0,242.0,120,51,108,66,49
2025-03-17 18:33:27.824,-503.0,-242.0,-178.0,-25.0,81.0,293.0,132,51,109,67,45
2025-03-17 18:33:27.860,-417.0,801.0,30.0,-30.0,101.0,211.0,130,44,101,53,32
2025-03-17 18:33:27.884,-590.0,783.0,39.0,-71.0,119.0,108.0,132,46,104,57,39
2025-03-17 18:33:27.909,-784.0,-310.0,-409.0,-21.0,80.0,99.0,129,44,102,61,43
2025-03-17 18:33:27.933,-418.0,297.0,-103.0,76.0,79.0,164.0,128,46,103,59,42
2025-03-17 18:33:27.951,-569.0,1920.0,-443.0,153.0,65.0,132.0,131,49,107,64,47
2025-03-17 18:33:27.982,-734.0,3538.0,-1166.0,179.0,-29.0,-139.0,135,49,109,67,47
2025-03-17 18:33:28.007,-652.0,4332.0,-2104.0,102.0,-263.0,-625.0,137,52,110,65,49
2025-03-17 18:33:28.025,1047.0,3289.0,-1973.0,1.0,-540.0,-1133.0,134,43,107,58,50
2025-03-17 18:33:28.049,5774.0,2117.0,-2019.0,-148.0,-1083.0,-1379.0,123,30,102,58,43
2025-03-17 18:33:28.077,10615.0,-9746.0,3659.0,-320.0,190.0,-154.0,118,46,108,56,43
2025-03-17 18:33:28.101,1894.0,-6163.0,-1524.0,307.0,576.0,234.0,107,48,108,59,49
2025-03-17 18:33:28.126,1550.0,209.0,-2305.0,79.0,-158.0,135.0,130,48,108,63,48
2025-03-17 18:33:28.150,885.0,-2963.0,1062.0,-150.0,-63.0,288.0,133,47,108,63,48
2025-03-17 18:33:28.175,313.0,-1764.0,595.0,22.0,79.0,462.0,146,47,106,62,47
2025-03-17 18:33:28.199,-445.0,633.0,200.0,-43.0,4.0,410.0,122,36,102,32,43
2025-03-17 18:33:28.221,42.0,31.0,952.0,-117.0,-28.0,258.0,133,39,103,55,43
2025-03-17 18:33:28.243,-146.0,-613.0,190.0,5.0,105.0,160.0,128,40,106,56,45
2025-03-17 18:33:28.270,-434.0,-376.0,-65.0,23.0,77.0,201.0,141,41,105,56,44
2025-03-17 18:33:28.294,102.0,-590.0,338.0,37.0,92.0,218.0,143,41,107,39,45
2025-03-17 18:33:28.317,-411.0,-423.0,-1.0,189.0,130.0,195.0,146,45,107,55,48
2025-03-17 18:33:28.342,-824.0,100.0,-136.0,202.0,83.0,231.0,140,43,109,55,45
2025-03-17 18:33:28.365,-520.0,487.0,-29.0,263.0,93.0,213.0,147,46,109,60,48
2025-03-17 18:33:28.389,-973.0,1459.0,-805.0,329.0,23.0,163.0,144,48,110,55,46
2025-03-17 18:33:28.412,-1375.0,4029.0,-1334.0,287.0,-137.0,-177.0,144,45,107,60,44
2025-03-17 18:33:28.437,-902.0,3786.0,-1280.0,17.0,-432.0,-888.0,144,31,108,62,43
2025-03-17 18:33:28.462,3763.0,1121.0,-1471.0,-194.0,-815.0,-1328.0,133,37,106,52,45
2025-03-17 18:33:28.485,8244.0,-6748.0,4261.0,-310.0,-332.0,-292.0,143,47,110,55,46
2025-03-17 18:33:28.511,2990.0,-5562.0,1094.0,24.0,249.0,150.0,146,40,107,60,45
2025-03-17 18:33:28.535,-130.0,186.0,-1262.0,-387.0,282.0,276.0,146,42,107,63,48
2025-03-17 18:33:28.545,108.0,-2122.0,-362.0,64.0,-318.0,226.0,145,43,110,64,45
2025-03-17 18:33:28.581,151.0,-1601.0,768.0,-62.0,-134.0,285.0,151,44,110,63,47
2025-03-17 18:33:28.605,297.0,-521.0,852.0,-67.0,10.0,167.0,129,45,107,61,45
2025-03-17 18:33:28.630,13.0,-771.0,411.0,-117.0,19.0,154.0,149,43,110,61,49
2025-03-17 18:33:28.654,-205.0,-926.0,24.0,-36.0,-20.0,172.0,141,45,110,59,50
2025-03-17 18:33:28.679,-160.0,-914.0,9.0,-109.0,-28.0,255.0,131,46,111,57,51
2025-03-17 18:33:28.703,-8.0,-984.0,56.0,-152.0,-55.0,269.0,148,40,110,56,52
2025-03-17 18:33:28.725,74.0,-826.0,320.0,-42.0,-36.0,223.0,149,47,112,66,52
2025-03-17 18:33:28.749,-211.0,-513.0,238.0,47.0,37.0,241.0,149,47,111,66,52
2025-03-17 18:33:28.773,-579.0,-51.0,59.0,14.0,-6.0,192.0,148,47,112,58,53
2025-03-17 18:33:28.798,-517.0,-53.0,482.0,26.0,-10.0,134.0,147,46,110,43,48
2025-03-17 18:33:28.822,-646.0,-50.0,516.0,114.0,68.0,120.0,145,43,108,55,49
2025-03-17 18:33:28.843,-671.0,444.0,395.0,244.0,104.0,96.0,145,42,108,55,48
2025-03-17 18:33:28.871,-1074.0,2926.0,116.0,338.0,99.0,-131.0,144,45,108,57,47
2025-03-17 18:33:28.896,-1494.0,3145.0,-682.0,191.0,-40.0,-514.0,146,45,110,68,47
2025-03-17 18:33:28.916,-528.0,2258.0,-1596.0,0.0,-376.0,-913.0,146,35,107,64,48
2025-03-17 18:33:28.943,4196.0,-562.0,-1025.0,-387.0,-775.0,-797.0,150,33,110,63,50
2025-03-17 18:33:28.966,5380.0,-6633.0,1755.0,-198.0,-233.0,-309.0,145,46,110,58,47
2025-03-17 18:33:28.988,2238.0,-4449.0,-429.0,297.0,322.0,0.0,133,42,110,65,51
2025-03-17 18:33:29.015,-288.0,-1176.0,-850.0,145.0,87.0,111.0,130,40,106,63,45
2025-03-17 18:33:29.039,346.0,-1934.0,359.0,42.0,-109.0,158.0,145,39,109,64,48
2025-03-17 18:33:29.064,449.0,-1846.0,536.0,18.0,68.0,263.0,138,43,108,66,46
2025-03-17 18:33:29.084,261.0,-132.0,493.0,57.0,111.0,168.0,130,44,110,62,45
2025-03-17 18:33:29.109,-207.0,-688.0,250.0,32.0,69.0,151.0,144,42,111,54,46
2025-03-17 18:33:29.133,-117.0,-809.0,299.0,-6.0,73.0,145.0,143,46,111,66,47
2025-03-17 18:33:29.158,-108.0,-1139.0,201.0,-37.0,101.0,233.0,145,45,110,63,47
2025-03-17 18:33:29.182,200.0,-557.0,617.0,69.0,133.0,186.0,145,44,112,66,47
2025-03-17 18:33:29.207,-406.0,-439.0,83.0,81.0,147.0,191.0,147,49,112,64,49
2025-03-17 18:33:29.223,-237.0,-338.0,265.0,-23.0,131.0,178.0,144,46,109,52,46
2025-03-17 18:33:29.250,-529.0,-546.0,13.0,-74.0,87.0,219.0,141,45,109,56,46
2025-03-17 18:33:29.278,-334.0,-526.0,500.0,27.0,70.0,212.0,141,44,108,60,46
2025-03-17 18:33:29.302,-585.0,-226.0,239.0,127.0,157.0,210.0,143,46,111,58,54
2025-03-17 18:33:29.326,-607.0,53.0,88.0,140.0,138.0,229.0,144,48,112,52,45
2025-03-17 18:33:29.350,-781.0,1450.0,-458.0,308.0,103.0,199.0,146,50,113,49,50
2025-03-17 18:33:29.374,-1934.0,4070.0,-1899.0,395.0,-63.0,-215.0,147,49,111,58,47
2025-03-17 18:33:29.400,-2017.0,4173.0,-3203.0,-24.0,-613.0,-829.0,148,44,109,57,47
2025-03-17 18:33:29.424,4412.0,1785.0,-2613.0,-391.0,-1172.0,-1134.0,140,35,104,57,38
2025-03-17 18:33:29.448,7545.0,-8052.0,3661.0,-451.0,-244.0,-184.0,146,48,111,62,49
2025-03-17 18:33:29.469,2312.0,-4832.0,278.0,327.0,361.0,109.0,137,44,110,64,48
2025-03-17 18:33:29.491,-976.0,90.0,-1491.0,-476.0,80.0,177.0,141,44,106,67,43
2025-03-17 18:33:29.519,435.0,-2469.0,600.0,78.0,-105.0,187.0,151,46,110,66,47
2025-03-17 18:33:29.543,113.0,-1415.0,399.0,41.0,79.0,293.0,129,39,111,68,47
2025-03-17 18:33:29.568,101.0,-863.0,332.0,-200.0,108.0,310.0,137,43,110,69,44
2025-03-17 18:33:29.592,15.0,-1253.0,143.0,-127.0,59.0,339.0,129,40,111,66,47
2025-03-17 18:33:29.617,273.0,-1135.0,231.0,167.0,66.0,365.0,146,42,113,71,40
2025-03-17 18:33:29.638,-194.0,-564.0,-256.0,358.0,144.0,381.0,144,40,116,73,59
2025-03-17 18:33:29.663,183.0,-119.0,475.0,243.0,268.0,326.0,147,51,121,66,77
2025-03-17 18:33:29.687,-124.0,-112.0,-928.0,405.0,227.0,310.0,144,38,130,72,89
2025-03-17 18:33:29.711,-526.0,269.0,-116.0,299.0,152.0,290.0,134,34,133,81,97
2025-03-17 18:33:29.735,-553.0,587.0,-446.0,339.0,131.0,267.0,131,50,133,93,102
2025-03-17 18:33:29.760,-791.0,1624.0,-1510.0,167.0,-10.0,171.0,124,42,131,95,88
2025-03-17 18:33:29.784,-1118.0,2466.0,-2449.0,1.0,-307.0,-85.0,123,65,131,96,106
2025-03-17 18:33:29.809,-648.0,2570.0,-1527.0,-172.0,-592.0,-532.0,120,75,146,96,108
2025-03-17 18:33:29.830,1191.0,1882.0,-1375.0,-205.0,-823.0,-744.0,123,81,148,99,114
2025-03-17 18:33:29.855,5001.0,-2250.0,1135.0,-329.0,-915.0,-596.0,131,80,149,102,106
2025-03-17 18:33:29.880,3270.0,-6007.0,1506.0,-477.0,-496.0,-165.0,140,99,150,104,113
2025-03-17 18:33:29.903,1592.0,-3392.0,-552.0,-948.0,131.0,203.0,136,105,153,105,125
2025-03-17 18:33:29.928,-750.0,-1037.0,71.0,-17.0,-39.0,115.0,137,101,150,102,125
2025-03-17 18:33:29.952,170.0,-1994.0,963.0,434.0,-339.0,134.0,136,95,149,102,125
2025-03-17 18:33:29.977,196.0,-1557.0,241.0,30.0,161.0,221.0,140,101,149,102,124
2025-03-17 18:33:30.001,-21.0,-854.0,458.0,-229.0,161.0,207.0,137,96,149,104,125
2025-03-17 18:33:30.017,19.0,-710.0,54.0,113.0,334.0,162.0,145,101,152,108,127
2025-03-17 18:33:30.047,-62.0,-926.0,263.0,152.0,26.0,166.0,137,99,152,103,127
2025-03-17 18:33:30.072,29.0,-1266.0,45.0,2.0,96.0,214.0,142,100,151,106,124
2025-03-17 18:33:30.095,19.0,-1033.0,209.0,-81.0,97.0,255.0,140,95,149,103,123
2025-03-17 18:33:30.121,-300.0,-535.0,227.0,-37.0,167.0,246.0,140,96,149,104,124
2025-03-17 18:33:30.145,-337.0,-448.0,215.0,35.0,95.0,244.0,137,98,148,102,124
2025-03-17 18:33:30.170,-477.0,-395.0,169.0,93.0,105.0,232.0,137,92,149,103,123
2025-03-17 18:33:30.191,-432.0,-428.0,255.0,119.0,118.0,243.0,140,91,151,104,125
2025-03-17 18:33:30.214,-538.0,317.0,172.0,156.0,133.0,251.0,140,91,150,106,129
2025-03-17 18:33:30.240,-583.0,1262.0,74.0,240.0,87.0,205.0,139,90,151,105,125
2025-03-17 18:33:30.264,-1104.0,2747.0,-1157.0,340.0,-72.0,-53.0,138,86,151,107,125
2025-03-17 18:33:30.286,-1489.0,3758.0,-1539.0,200.0,-348.0,-558.0,137,75,151,106,127
2025-03-17 18:33:30.310,352.0,2331.0,-224.0,-2.0,-542.0,-936.0,125,96,148,101,125
2025-03-17 18:33:30.335,4656.0,-1937.0,-216.0,-85.0,-901.0,-742.0,134,95,148,102,125
2025-03-17 18:33:30.362,3733.0,-5613.0,2302.0,-131.0,-460.0,-133.0,138,107,149,105,125
2025-03-17 18:33:30.386,2437.0,-4279.0,1527.0,-312.0,75.0,147.0,145,106,152,108,129
2025-03-17 18:33:30.411,-443.0,-1042.0,9919.0,-177.0,484.0,387.0,122,100,151,108,129
2025-03-17 18:33:30.432,-580.0,-1413.0,-49.0,-11.0,-3.0,208.0,131,102,151,106,127
2025-03-17 18:33:30.457,-149.0,-1467.0,-58.0,77.0,-186.0,149.0,140,100,149,107,124
2025-03-17 18:33:30.481,55.0,-809.0,613.0,-300.0,243.0,190.0,142,102,149,107,125
2025-03-17 18:33:30.505,-198.0,-751.0,211.0,-81.0,63.0,230.0,141,102,149,106,124
2025-03-17 18:33:30.528,-116.0,-513.0,373.0,102.0,47.0,241.0,145,104,151,107,124
2025-03-17 18:33:30.555,-51.0,-613.0,666.0,154.0,247.0,233.0,133,103,151,105,125
2025-03-17 18:33:30.579,-302.0,-466.0,-209.0,110.0,159.0,225.0,137,101,148,109,119
2025-03-17 18:33:30.600,-336.0,-322.0,350.0,167.0,154.0,230.0,141,105,150,108,122
2025-03-17 18:33:30.625,-299.0,-336.0,177.0,140.0,105.0,262.0,140,97,149,107,116
2025-03-17 18:33:30.649,-612.0,285.0,272.0,156.0,153.0,256.0,137,87,146,105,105
2025-03-17 18:33:30.674,-544.0,1073.0,-45.0,276.0,141.0,132.0,139,63,147,100,108
2025-03-17 18:33:30.684,-1281.0,2625.0,-1110.0,447.0,176.0,-218.0,143,28,140,36,100
2025-03-17 18:33:30.722,-1739.0,3376.0,-2007.0,229.0,-350.0,-740.0,127,32,134,56,39
2025-03-17 18:33:30.747,2107.0,2231.0,-2058.0,-50.0,-860.0,-885.0,136,28,125,60,40
2025-03-17 18:33:30.768,5185.0,-3552.0,1851.0,-286.0,-648.0,-560.0,143,39,118,57,40
2025-03-17 18:33:30.792,4369.0,-6166.0,2575.0,-95.0,97.0,-94.0,138,35,114,50,38
2025-03-17 18:33:30.817,696.0,-2008.0,-602.0,-173.0,430.0,146.0,134,38,113,65,33
2025-03-17 18:33:30.841,-459.0,-881.0,-563.0,-4.0,-206.0,83.0,146,37,119,64,40
2025-03-17 18:33:30.854,685.0,-2327.0,1043.0,74.0,-118.0,176.0,147,36,118,69,43
2025-03-17 18:33:30.890,623.0,-1353.0,845.0,-57.0,99.0,225.0,135,38,118,68,42
2025-03-17 18:33:30.912,93.0,-828.0,499.0,-63.0,81.0,211.0,144,42,117,45,41
2025-03-17 18:33:30.935,-130.0,-1052.0,187.0,-10.0,-10.0,238.0,130,42,121,70,43
2025-03-17 18:33:30.960,66.0,-946.0,633.0,-57.0,47.0,290.0,137,39,121,67,43
2025-03-17 18:33:30.985,125.0,-583.0,635.0,55.0,203.0,226.0,137,38,122,62,40
2025-03-17 18:33:31.010,-549.0,-54.0,19.0,-4.0,165.0,219.0,146,42,121,62,44
2025-03-17 18:33:31.032,-539.0,-373.0,214.0,3.0,73.0,203.0,146,41,122,55,44
2025-03-17 18:33:31.058,-369.0,-356.0,536.0,-54.0,78.0,150.0,144,38,119,59,42
2025-03-17 18:33:31.079,-519.0,-37.0,391.0,-25.0,178.0,142.0,144,40,120,60,41
2025-03-17 18:33:31.103,-945.0,477.0,-120.0,16.0,115.0,102.0,140,41,120,65,42
2025-03-17 18:33:31.128,-1029.0,2150.0,-280.0,132.0,32.0,-42.0,142,40,121,65,40
2025-03-17 18:33:31.153,-1648.0,3145.0,-1416.0,246.0,-61.0,-394.0,145,41,121,57,43
2025-03-17 18:33:31.177,-1334.0,3152.0,-2550.0,148.0,-498.0,-827.0,144,40,122,54,45
2025-03-17 18:33:31.201,4528.0,1283.0,-2194.0,-271.0,-1103.0,-852.0,144,41,121,61,45
2025-03-17 18:33:31.226,7476.0,-7623.0,3755.0,-396.0,-186.0,-232.0,144,45,121,42,34
2025-03-17 18:33:31.249,2358.0,-5574.0,-523.0,293.0,419.0,164.0,143,37,119,53,42
2025-03-17 18:33:31.265,-1081.0,441.0,-2278.0,-257.0,240.0,142.0,140,38,117,66,45
2025-03-17 18:33:31.296,51.0,-2175.0,189.0,253.0,-412.0,61.0,147,36,120,67,45
2025-03-17 18:33:31.321,613.0,-2228.0,613.0,-33.0,-10.0,198.0,148,40,121,69,47
2025-03-17 18:33:31.346,516.0,-1093.0,284.0,-244.0,112.0,232.0,140,43,122,70,41
2025-03-17 18:33:31.370,118.0,-1111.0,340.0,100.0,-3.0,233.0,149,40,124,50,46
2025-03-17 18:33:31.394,205.0,-784.0,595.0,195.0,168.0,232.0,150,41,125,64,47
2025-03-17 18:33:31.414,112.0,-712.0,174.0,28.0,263.0,280.0,140,44,129,61,48
2025-03-17 18:33:31.440,-244.0,-491.0,-435.0,6.0,221.0,322.0,144,44,128,67,50
2025-03-17 18:33:31.461,-215.0,-378.0,440.0,169.0,101.0,336.0,142,34,132,62,47
2025-03-17 18:33:31.489,-197.0,-338.0,-74.0,170.0,189.0,308.0,147,52,137,67,49
2025-03-17 18:33:31.513,-492.0,199.0,-355.0,240.0,202.0,302.0,145,60,139,66,49
2025-03-17 18:33:31.537,-952.0,1556.0,-1180.0,283.0,93.0,240.0,146,45,143,63,46
2025-03-17 18:33:31.563,-1532.0,3135.0,-2230.0,208.0,-194.0,-141.0,146,67,146,69,42
2025-03-17 18:33:31.586,-1060.0,2772.0,-1660.0,176.0,-530.0,-651.0,146,64,151,76,46
2025-03-17 18:33:31.608,1225.0,2046.0,-972.0,137.0,-906.0,-829.0,142,79,151,77,47
2025-03-17 18:33:31.632,4997.0,-965.0,1033.0,-17.0,-971.0,-712.0,122,111,156,80,47
2025-03-17 18:33:31.657,4389.0,-4215.0,2918.0,21.0,-349.0,-106.0,134,112,153,81,49
2025-03-17 18:33:31.681,2348.0,-2377.0,1696.0,-18.0,116.0,105.0,139,105,150,76,46
2025-03-17 18:33:31.705,490.0,-1513.0,477.0,-57.0,40.0,147.0,131,100,150,77,47
2025-03-17 18:33:31.730,896.0,-1776.0,961.0,-94.0,35.0,197.0,124,115,150,78,47
2025-03-17 18:33:31.754,348.0,-1105.0,1001.0,-49.0,114.0,212.0,138,104,153,82,50
2025-03-17 18:33:31.776,85.0,-947.0,773.0,-31.0,158.0,222.0,142,114,153,84,50
2025-03-17 18:33:31.801,4.0,-588.0,543.0,-10.0,161.0,254.0,143,109,154,86,51
2025-03-17 18:33:31.811,148.0,-255.0,623.0,-21.0,194.0,272.0,134,116,152,82,48
2025-03-17 18:33:31.849,-174.0,-415.0,243.0,-1.0,178.0,299.0,140,102,151,69,45
2025-03-17 18:33:31.874,-169.0,-515.0,236.0,18.0,145.0,259.0,139,88,149,57,41
2025-03-17 18:33:31.897,-201.0,-496.0,192.0,106.0,163.0,192.0,138,99,149,64,43
2025-03-17 18:33:31.922,-500.0,-261.0,213.0,101.0,142.0,192.0,140,79,148,70,42
2025-03-17 18:33:31.944,-497.0,-68.0,386.0,96.0,149.0,175.0,144,85,150,71,39
2025-03-17 18:33:31.968,-937.0,720.0,-71.0,104.0,105.0,146.0,146,86,151,77,43
2025-03-17 18:33:31.992,-1553.0,2501.0,-1267.0,75.0,-54.0,-85.0,146,100,151,76,42
2025-03-17 18:33:32.017,-1910.0,3348.0,-1875.0,83.0,-421.0,-614.0,146,91,153,76,44
2025-03-17 18:33:32.042,1578.0,2569.0,-2013.0,-167.0,-1021.0,-1007.0,142,100,153,77,48
2025-03-17 18:33:32.066,6153.0,-3378.0,2107.0,-117.0,-860.0,-678.0,140,109,150,85,47
2025-03-17 18:33:32.090,4619.0,-4935.0,2258.0,20.0,84.0,100.0,140,103,151,82,48
2025-03-17 18:33:32.115,951.0,-1243.0,145.0,-35.0,171.0,107.0,140,108,151,85,47
2025-03-17 18:33:32.139,413.0,-1536.0,528.0,-118.0,-15.0,195.0,138,118,152,86,51
2025-03-17 18:33:32.161,551.0,-1035.0,1388.0,-94.0,48.0,201.0,146,118,151,86,52
2025-03-17 18:33:32.182,472.0,-1133.0,1093.0,-61.0,153.0,191.0,146,116,151,86,51
2025-03-17 18:33:32.209,413.0,-1158.0,644.0,-11.0,201.0,225.0,133,107,151,82,50
2025-03-17 18:33:32.235,239.0,-785.0,445.0,-11.0,194.0,259.0,136,115,146,82,49
2025-03-17 18:33:32.259,241.0,-491.0,472.0,-73.0,195.0,304.0,146,109,149,82,47
2025-03-17 18:33:32.283,288.0,-716.0,425.0,-60.0,256.0,355.0,145,96,150,76,48
2025-03-17 18:33:32.308,-292.0,-344.0,158.0,-63.0,204.0,363.0,141,83,150,77,47
2025-03-17 18:33:32.327,-241.0,-8.0,-4.0,-49.0,176.0,339.0,148,84,149,71,48
2025-03-17 18:33:32.354,-646.0,384.0,-29.0,48.0,188.0,268.0,149,88,150,78,52
2025-03-17 18:33:32.376,-901.0,1428.0,-142.0,139.0,174.0,154.0,150,66,142,76,50
2025-03-17 18:33:32.400,-1117.0,2568.0,-830.0,229.0,60.0,-91.0,149,44,129,73,45
2025-03-17 18:33:32.417,-1605.0,3486.0,-1605.0,194.0,-187.0,-474.0,143,37,123,57,39
2025-03-17 18:33:32.451,350.0,2208.0,-1875.0,4.0,-561.0,-832.0,142,30,116,28,40
2025-03-17 18:33:32.476,3000.0,726.0,-824.0,-162.0,-863.0,-869.0,142,34,118,52,45
2025-03-17 18:33:32.499,5979.0,-5770.0,2852.0,-341.0,-361.0,-308.0,131,31,118,66,46
2025-03-17 18:33:32.521,2757.0,-5050.0,1016.0,42.0,390.0,36.0,143,41,120,70,50
2025-03-17 18:33:32.546,-264.0,-1490.0,-1327.0,-147.0,97.0,123.0,150,41,124,77,45
2025-03-17 18:33:32.571,597.0,-2747.0,-457.0,296.0,-399.0,99.0,153,42,127,86,52
2025-03-17 18:33:32.595,769.0,-2253.0,1052.0,-17.0,29.0,184.0,148,42,126,84,50
2025-03-17 18:33:32.619,495.0,-1213.0,579.0,-153.0,209.0,219.0,141,40,124,73,48
2025-03-17 18:33:32.643,-287.0,-834.0,53.0,70.0,13.0,208.0,125,41,123,80,48
2025-03-17 18:33:32.665,-196.0,-718.0,84.0,54.0,3.0,227.0,145,40,124,79,48
2025-03-17 18:33:32.689,78.0,-292.0,511.0,-61.0,53.0,207.0,149,39,123,66,47
2025-03-17 18:33:32.713,-293.0,-417.0,323.0,-10.0,135.0,159.0,153,47,128,57,50
2025-03-17 18:33:32.738,-250.0,-407.0,156.0,29.0,50.0,137.0,154,45,129,77,52
2025-03-17 18:33:32.751,-312.0,-497.0,177.0,-22.0,49.0,153.0,152,41,128,78,53
2025-03-17 18:33:32.787,-175.0,-260.0,527.0,-14.0,90.0,124.0,153,44,126,80,53
2025-03-17 18:33:32.805,-504.0,-95.0,437.0,32.0,107.0,150.0,156,43,129,83,53
2025-03-17 18:33:32.832,-922.0,802.0,215.0,79.0,110.0,102.0,148,41,123,63,46
2025-03-17 18:33:32.855,-1353.0,2509.0,-568.0,251.0,131.0,-128.0,147,43,124,66,43
2025-03-17 18:33:32.882,-2294.0,3694.0,-2065.0,150.0,-222.0,-595.0,146,44,125,72,46
2025-03-17 18:33:32.906,1876.0,1484.0,-1861.0,-111.0,-771.0,-893.0,136,40,125,69,47
2025-03-17 18:33:32.930,5660.0,-3781.0,1178.0,-278.0,-650.0,-432.0,134,42,127,76,50
2025-03-17 18:33:32.955,4177.0,-6556.0,2118.0,82.0,170.0,-19.0,151,48,129,76,54
2025-03-17 18:33:32.976,829.0,-1677.0,-571.0,-71.0,447.0,153.0,150,47,127,71,52
2025-03-17 18:33:33.001,-210.0,-370.0,-144.0,41.0,-98.0,109.0,143,47,130,89,54
2025-03-17 18:33:33.025,629.0,-2163.0,989.0,13.0,-35.0,137.0,153,47,124,80,51
2025-03-17 18:33:33.050,517.0,-1752.0,626.0,-142.0,180.0,227.0,131,48,125,77,52
2025-03-17 18:33:33.074,321.0,-1327.0,192.0,-19.0,178.0,302.0,148,37,124,67,51
2025-03-17 18:33:33.098,517.0,-1074.0,346.0,201.0,164.0,335.0,148,46,124,62,50
2025-03-17 18:33:33.123,232.0,-675.0,215.0,168.0,263.0,348.0,149,54,131,69,60
2025-03-17 18:33:33.147,29.0,-411.0,63.0,30.0,277.0,381.0,150,49,132,65,53
2025-03-17 18:33:33.169,-134.0,-284.0,210.0,60.0,228.0,376.0,152,53,129,76,56
2025-03-17 18:33:33.193,-309.0,-200.0,-134.0,141.0,226.0,333.0,153,51,130,68,60
2025-03-17 18:33:33.217,-587.0,256.0,-388.0,159.0,210.0,342.0,152,46,128,65,58
2025-03-17 18:33:33.242,-811.0,1470.0,-1299.0,183.0,52.0,273.0,146,40,112,45,43
2025-03-17 18:33:33.266,-1439.0,3412.0,-1668.0,143.0,-89.0,-104.0,146,30,108,49,42
2025-03-17 18:33:33.284,-809.0,3664.0,-2292.0,82.0,-365.0,-622.0,134,43,108,55,43
2025-03-17 18:33:33.315,-149.0,2719.0,-2606.0,11.0,-827.0,-1024.0,126,41,109,57,47
2025-03-17 18:33:33.339,6708.0,1603.0,-420.0,-217.0,-1243.0,-935.0,129,42,111,59,52
2025-03-17 18:33:33.361,6830.0,-7250.0,3294.0,-406.0,-245.0,-205.0,127,51,114,59,41
2025-03-17 18:33:33.385,2701.0,-5220.0,589.0,137.0,460.0,145.0,108,47,111,65,52
2025-03-17 18:33:33.410,-2021.0,-410.0,2125.0,-199.0,79.0,176.0,125,52,113,67,54
2025-03-17 18:33:33.423,657.0,-2890.0,608.0,45.0,-224.0,168.0,125,53,115,67,54
2025-03-17 18:33:33.459,668.0,-1832.0,1109.0,-140.0,125.0,278.0,105,48,112,67,51
2025-03-17 18:33:33.483,58.0,-965.0,260.0,-206.0,183.0,285.0,129,45,107,62,46
2025-03-17 18:33:33.503,-76.0,-956.0,28.0,35.0,-20.0,278.0,125,48,112,61,51
2025-03-17 18:33:33.529,39.0,-1009.0,402.0,-57.0,64.0,283.0,137,44,118,62,54
2025-03-17 18:33:33.553,-29.0,-807.0,114.0,-57.0,184.0,289.0,140,51,124,57,62
2025-03-17 18:33:33.578,-328.0,-148.0,-25.0,33.0,138.0,263.0,180,92,158,102,98
2025-03-17 18:33:33.602,-121.0,-271.0,309.0,72.0,117.0,235.0,163,74,140,86,82
2025-03-17 18:33:33.627,-461.0,48.0,-136.0,82.0,158.0,213.0,163,74,139,85,77
2025-03-17 18:33:33.649,-712.0,251.0,-194.0,79.0,104.0,200.0,152,59,125,71,60
2025-03-17 18:33:33.675,-759.0,416.0,-389.0,159.0,80.0,173.0,152,60,125,73,61
2025-03-17 18:33:33.696,-1166.0,2487.0,-979.0,148.0,-16.0,26.0,151,57,123,74,62
2025-03-17 18:33:33.720,-1025.0,3867.0,-1298.0,161.0,-175.0,-518.0,141,57,125,81,61
2025-03-17 18:33:33.746,-537.0,3283.0,-2509.0,84.0,-601.0,-991.0,146,67,128,82,64
2025-03-17 18:33:33.770,5608.0,1296.0,-1989.0,-124.0,-1139.0,-1069.0,150,68,133,85,74
2025-03-17 18:33:33.795,7794.0,-9121.0,4345.0,75.0,-36.0,-92.0,135,49,117,63,56
2025-03-17 18:33:33.818,1842.0,-1908.0,492.0,197.0,620.0,202.0,136,47,110,62,49
2025-03-17 18:33:33.843,-930.0,-129.0,-1757.0,-204.0,-57.0,36.0,130,56,118,71,54
2025-03-17 18:33:33.867,980.0,-3129.0,1843.0,1.0,49.0,166.0,124,62,125,78,62
2025-03-17 18:33:33.892,130.0,-1448.0,643.0,-151.0,247.0,234.0,139,51,125,80,63
2025-03-17 18:33:33.902,140.0,-1378.0,-106.0,-36.0,82.0,234.0,139,57,130,79,68
2025-03-17 18:33:33.939,345.0,-1512.0,493.0,92.0,79.0,305.0,158,60,129,75,68
2025-03-17 18:33:33.962,239.0,-924.0,113.0,75.0,211.0,370.0,169,71,142,92,76
2025-03-17 18:33:33.987,-416.0,-48.0,-31.0,50.0,171.0,346.0,155,48,128,63,55
2025-03-17 18:33:34.005,-426.0,-231.0,-336.0,169.0,109.0,317.0,154,58,130,66,59
2025-03-17 18:33:34.037,-272.0,482.0,-272.0,228.0,102.0,273.0,158,65,131,67,62
2025-03-17 18:33:34.053,-638.0,532.0,-499.0,259.0,104.0,203.0,156,69,129,57,59
2025-03-17 18:33:34.082,-1020.0,644.0,-813.0,320.0,-9.0,111.0,162,79,135,64,66
2025-03-17 18:33:34.106,-1527.0,1215.0,-2371.0,469.0,-272.0,-89.0,130,94,131,69,69
2025-03-17 18:33:34.131,-769.0,2292.0,-4116.0,527.0,-923.0,-383.0,118,102,135,82,70
2025-03-17 18:33:34.156,4143.0,1022.0,-1852.0,458.0,-1327.0,-281.0,116,101,133,80,72
2025-03-17 18:33:34.180,4188.0,666.0,4985.0,578.0,-713.0,-77.0,109,83,119,61,59
2025-03-17 18:33:34.204,2398.0,1200.0,5076.0,70.0,91.0,-84.0,107,94,120,48,63
2025-03-17 18:33:34.229,792.0,118.0,1724.0,-91.0,105.0,15.0,106,98,122,76,65
2025-03-17 18:33:34.254,536.0,70.0,1897.0,-175.0,148.0,65.0,120,117,135,92,82
2025-03-17 18:33:34.278,516.0,448.0,1819.0,-168.0,253.0,72.0,127,119,135,93,83
2025-03-17 18:33:34.298,250.0,118.0,1351.0,-61.0,207.0,30.0,126,122,136,92,83
2025-03-17 18:33:34.322,224.0,197.0,1563.0,-166.0,220.0,51.0,115,111,126,83,69
2025-03-17 18:33:34.347,381.0,-98.0,1298.0,-278.0,316.0,118.0,111,106,122,78,66
2025-03-17 18:33:34.370,69.0,-583.0,559.0,-173.0,296.0,173.0,106,99,116,74,59
2025-03-17 18:33:34.397,-64.0,127.0,719.0,-59.0,237.0,113.0,108,97,119,65,61
2025-03-17 18:33:34.421,-77.0,250.0,761.0,-119.0,298.0,77.0,120,107,130,75,73
2025-03-17 18:33:34.445,-323.0,132.0,299.0,-180.0,308.0,90.0,121,110,131,70,73
2025-03-17 18:33:34.467,-496.0,-53.0,-96.0,-107.0,197.0,99.0,122,112,133,90,74
2025-03-17 18:33:34.490,-274.0,270.0,391.0,-29.0,243.0,36.0,123,111,134,85,74
2025-03-17 18:33:34.516,-672.0,530.0,-461.0,-58.0,246.0,13.0,124,93,135,76,75
2025-03-17 18:33:34.541,-983.0,531.0,-1139.0,-38.0,88.0,-19.0,105,69,114,69,51
2025-03-17 18:33:34.565,-1403.0,695.0,-3037.0,171.0,-168.0,-195.0,102,88,115,72,52
2025-03-17 18:33:34.590,-1257.0,1020.0,-4771.0,457.0,-851.0,-290.0,102,95,118,78,57
2025-03-17 18:33:34.613,4044.0,1451.0,-1882.0,447.0,-1352.0,-185.0,104,94,118,72,59
2025-03-17 18:33:34.623,5139.0,268.0,6322.0,357.0,-558.0,13.0,111,104,123,68,64
2025-03-17 18:33:34.660,2781.0,230.0,5615.0,-37.0,236.0,-69.0,114,109,125,81,67
2025-03-17 18:33:34.677,635.0,-7.0,2116.0,-252.0,281.0,3.0,116,103,128,84,69
2025-03-17 18:33:34.708,310.0,-380.0,1585.0,-350.0,242.0,96.0,119,99,128,77,74
2025-03-17 18:33:34.733,183.0,-752.0,1576.0,-324.0,241.0,197.0,115,95,119,69,67
2025-03-17 18:33:34.758,398.0,-307.0,1467.0,-348.0,315.0,287.0,120,98,123,68,64
2025-03-17 18:33:34.781,178.0,-204.0,1219.0,-355.0,358.0,267.0,134,98,126,58,61
2025-03-17 18:33:34.802,67.0,-376.0,519.0,-265.0,405.0,290.0,142,102,135,12,69
2025-03-17 18:33:34.826,-377.0,-62.0,-8.0,-99.0,405.0,286.0,157,106,159,59,89
2025-03-17 18:33:34.852,-846.0,373.0,-599.0,23.0,309.0,160.0,157,80,169,73,106
2025-03-17 18:33:34.877,-769.0,214.0,-293.0,-148.0,133.0,71.0,154,93,176,101,124
2025-03-17 18:33:34.901,-525.0,-143.0,73.0,-115.0,94.0,82.0,151,91,178,123,133
2025-03-17 18:33:34.925,-709.0,460.0,-460.0,-94.0,94.0,69.0,154,108,179,127,139
2025-03-17 18:33:34.949,-778.0,863.0,-507.0,-59.0,7.0,23.0,132,99,159,104,116
2025-03-17 18:33:34.974,-621.0,1857.0,-922.0,-15.0,-118.0,-149.0,133,98,161,108,123
2025-03-17 18:33:34.996,-912.0,2200.0,-1319.0,-5.0,-277.0,-486.0,139,106,166,113,121
2025-03-17 18:33:35.020,-93.0,1902.0,-748.0,0.0,-438.0,-813.0,140,102,165,111,131
2025-03-17 18:33:35.044,2251.0,1156.0,-1451.0,-10.0,-694.0,-901.0,139,110,169,113,141
2025-03-17 18:33:35.068,5028.0,-2114.0,1217.0,-216.0,-930.0,-494.0,149,131,176,127,146
2025-03-17 18:33:35.093,3499.0,-5506.0,1466.0,-274.0,-350.0,-94.0,128,126,167,119,137
2025-03-17 18:33:35.118,2144.0,-3497.0,-11.0,-318.0,324.0,267.0,131,123,160,112,132
2025-03-17 18:33:35.142,-30.0,-2469.0,913.0,33.0,-5.0,310.0,134,125,164,115,139
2025-03-17 18:33:35.166,-373.0,-1136.0,-807.0,367.0,-149.0,268.0,142,130,171,125,146
2025-03-17 18:33:35.188,-25.0,-845.0,61.0,-92.0,-16.0,241.0,157,137,173,127,148
2025-03-17 18:33:35.213,72.0,-1328.0,207.0,-206.0,100.0,232.0,159,142,179,134,153
2025-03-17 18:33:35.237,80.0,-1321.0,-290.0,78.0,238.0,226.0,162,135,178,133,153
2025-03-17 18:33:35.262,-606.0,-134.0,-357.0,229.0,105.0,252.0,156,132,175,129,149
2025-03-17 18:33:35.285,-42.0,-332.0,279.0,127.0,143.0,275.0,136,108,163,116,133
2025-03-17 18:33:35.310,-21.0,-435.0,40.0,108.0,196.0,296.0,142,110,164,119,137
2025-03-17 18:33:35.335,-330.0,-301.0,-98.0,222.0,149.0,277.0,141,101,167,118,137
2025-03-17 18:33:35.356,-243.0,103.0,111.0,235.0,110.0,270.0,137,87,164,118,134
2025-03-17 18:33:35.381,-401.0,1152.0,101.0,283.0,132.0,226.0,145,105,173,122,143
2025-03-17 18:33:35.405,-922.0,2311.0,-1165.0,221.0,-75.0,-27.0,146,109,179,130,152
2025-03-17 18:33:35.429,-1520.0,2490.0,-1724.0,62.0,-280.0,-493.0,149,131,180,136,155
2025-03-17 18:33:35.454,-328.0,1664.0,-1024.0,-58.0,-469.0,-952.0,125,108,157,111,131
2025-03-17 18:33:35.479,3958.0,353.0,333.0,-232.0,-970.0,-886.0,142,139,176,133,150
2025-03-17 18:33:35.503,4208.0,-5236.0,1767.0,-302.0,-580.0,-311.0,213,209,238,198,214
2025-03-17 18:33:35.528,3112.0,-4907.0,1147.0,-353.0,62.0,239.0,133,141,174,131,149
2025-03-17 18:33:35.552,1081.0,-1815.0,9.0,373.0,491.0,331.0,179,150,195,154,172
2025-03-17 18:33:35.576,-117.0,-792.0,552.0,286.0,59.0,252.0,249,225,264,225,242
2025-03-17 18:33:35.601,-191.0,-976.0,361.0,-4.0,197.0,194.0,207,186,223,180,196
2025-03-17 18:33:35.625,24.0,-1065.0,907.0,-148.0,177.0,165.0,180,156,196,151,159
2025-03-17 18:33:35.649,409.0,-1658.0,203.0,119.0,203.0,184.0,165,146,183,127,122
2025-03-17 18:33:35.665,167.0,-1219.0,510.0,240.0,320.0,262.0,164,129,156,78,94
2025-03-17 18:33:35.696,28.0,-529.0,147.0,157.0,324.0,337.0,172,135,147,69,78
2025-03-17 18:33:35.721,-261.0,-281.0,-28.0,133.0,252.0,350.0,180,138,152,53,85
2025-03-17 18:33:35.744,-370.0,-117.0,-311.0,210.0,191.0,265.0,178,142,165,69,101
2025-03-17 18:33:35.756,-457.0,247.0,-659.0,218.0,95.0,228.0,168,155,165,110,104
2025-03-17 18:33:35.794,-778.0,357.0,-380.0,217.0,13.0,182.0,170,141,174,129,112
2025-03-17 18:33:35.819,-866.0,711.0,-1022.0,284.0,-54.0,66.0,171,151,181,131,121
2025-03-17 18:33:35.843,-1945.0,2101.0,-2903.0,278.0,-366.0,-146.0,117,109,129,89,71
2025-03-17 18:33:35.867,-215.0,2732.0,-4170.0,225.0,-1079.0,-505.0,98,110,113,79,61
2025-03-17 18:33:35.889,5594.0,-1203.0,-930.0,148.0,-1378.0,-206.0,107,120,126,87,64
2025-03-17 18:33:35.913,4081.0,107.0,4033.0,475.0,-582.0,-125.0,113,123,134,89,78
2025-03-17 18:33:35.926,2563.0,617.0,5151.0,111.0,96.0,-88.0,111,105,124,82,66
2025-03-17 18:33:35.962,981.0,189.0,2572.0,-240.0,199.0,46.0,106,109,117,70,63
2025-03-17 18:33:35.986,732.0,-566.0,1790.0,-186.0,145.0,99.0,107,107,116,74,65
2025-03-17 18:33:36.011,693.0,-503.0,1987.0,-139.0,278.0,112.0,111,111,119,76,69
2025-03-17 18:33:36.022,335.0,-249.0,1239.0,-69.0,273.0,140.0,100,102,107,48,54
2025-03-17 18:33:36.053,120.0,230.0,1408.0,-131.0,242.0,76.0,103,110,112,64,55
2025-03-17 18:33:36.081,278.0,-117.0,1424.0,-181.0,336.0,90.0,107,110,115,71,57
2025-03-17 18:33:36.103,-369.0,-715.0,575.0,-156.0,321.0,121.0,107,111,115,61,54
2025-03-17 18:33:36.120,-281.0,-220.0,56.0,-101.0,181.0,139.0,125,128,134,91,74
2025-03-17 18:33:36.151,-141.0,212.0,519.0,-103.0,188.0,78.0,127,127,136,93,78
2025-03-17 18:33:36.176,-260.0,32.0,323.0,-141.0,236.0,57.0,127,121,137,94,78
2025-03-17 18:33:36.201,-665.0,-192.0,-126.0,-67.0,141.0,62.0,129,119,140,97,80
2025-03-17 18:33:36.224,-371.0,176.0,253.0,-83.0,103.0,102.0,126,112,135,91,74
2025-03-17 18:33:36.248,-328.0,755.0,58.0,-113.0,150.0,113.0,109,89,119,74,57
2025-03-17 18:33:36.273,-1204.0,1349.0,-2056.0,140.0,94.0,-181.0,110,97,120,75,56
2025-03-17 18:33:36.297,-2295.0,1703.0,-4082.0,306.0,-547.0,-418.0,111,93,125,80,61
2025-03-17 18:33:36.308,2657.0,807.0,-2246.0,311.0,-1191.0,-395.0,115,115,133,90,72
2025-03-17 18:33:36.345,4798.0,-1474.0,3092.0,471.0,-795.0,-131.0,117,108,131,80,72
2025-03-17 18:33:36.362,3102.0,185.0,5751.0,79.0,-16.0,-84.0,121,119,133,84,75
2025-03-17 18:33:36.392,1189.0,-335.0,2781.0,-203.0,225.0,31.0,123,117,135,92,79
2025-03-17 18:33:36.417,452.0,-768.0,1497.0,-314.0,178.0,98.0,129,121,136,91,82
2025-03-17 18:33:36.441,298.0,-1057.0,1354.0,-239.0,153.0,158.0,115,103,119,55,66
2025-03-17 18:33:36.466,422.0,-968.0,1493.0,-204.0,218.0,197.0,116,110,126,58,72
2025-03-17 18:33:36.489,426.0,-804.0,1302.0,-196.0,292.0,219.0,116,109,126,73,68
2025-03-17 18:33:36.514,152.0,-527.0,939.0,-175.0,309.0,226.0,112,101,121,72,56
2025-03-17 18:33:36.538,111.0,-363.0,818.0,-181.0,322.0,233.0,117,103,129,77,62
2025-03-17 18:33:36.560,47.0,-462.0,424.0,-153.0,350.0,253.0,123,104,137,70,56
2025-03-17 18:33:36.582,-359.0,-246.0,78.0,-42.0,351.0,216.0,127,75,138,69,57
2025-03-17 18:33:36.598,-581.0,-62.0,-345.0,43.0,283.0,164.0,132,84,144,74,55
2025-03-17 18:33:36.630,-603.0,302.0,-466.0,58.0,230.0,128.0,139,85,148,78,60
2025-03-17 18:33:36.658,-760.0,963.0,-862.0,83.0,144.0,70.0,136,68,146,65,55
2025-03-17 18:33:36.683,-1142.0,1764.0,-1747.0,75.0,-66.0,-131.0,137,76,149,69,55
2025-03-17 18:33:36.707,-1113.0,2287.0,-1879.0,96.0,-347.0,-522.0,137,87,152,69,54
2025-03-17 18:33:36.727,124.0,1613.0,-1980.0,84.0,-741.0,-757.0,126,97,160,73,50
2025-03-17 18:33:36.751,3397.0,1358.0,-1270.0,-13.0,-1127.0,-709.0,111,118,160,85,57
2025-03-17 18:33:36.768,5312.0,-3801.0,1794.0,98.0,-747.0,-407.0,120,123,161,82,59
2025-03-17 18:33:36.801,3430.0,-3136.0,3323.0,198.0,76.0,-71.0,124,128,160,80,62
2025-03-17 18:33:36.825,1381.0,-1904.0,1416.0,-39.0,232.0,47.0,127,98,165,88,64
2025-03-17 18:33:36.850,760.0,-1719.0,696.0,-144.0,98.0,140.0,120,120,156,79,56
2025-03-17 18:33:36.875,878.0,-1620.0,791.0,-93.0,110.0,186.0,121,122,157,83,59
2025-03-17 18:33:36.883,582.0,-1268.0,911.0,-45.0,193.0,195.0,123,125,158,83,59
2025-03-17 18:33:36.921,247.0,-959.0,648.0,24.0,187.0,206.0,125,122,156,77,60
2025-03-17 18:33:36.945,167.0,-709.0,533.0,1.0,186.0,217.0,127,131,163,72,65
2025-03-17 18:33:36.969,20.0,-553.0,516.0,-18.0,220.0,230.0,143,143,175,65,78
2025-03-17 18:33:36.993,-181.0,-261.0,405.0,-33.0,198.0,237.0,141,143,174,70,76
2025-03-17 18:33:37.018,-205.0,-134.0,370.0,-91.0,176.0,245.0,138,138,170,76,73
2025-03-17 18:33:37.043,-189.0,-256.0,367.0,-57.0,200.0,249.0,141,118,171,73,71
2025-03-17 18:33:37.064,-535.0,314.0,95.0,11.0,195.0,244.0,126,120,155,56,53
2025-03-17 18:33:37.088,-1063.0,1796.0,-737.0,-25.0,99.0,102.0,127,87,155,68,54
2025-03-17 18:33:37.113,-1555.0,2502.0,-1293.0,114.0,-89.0,-304.0,132,107,159,74,57
2025-03-17 18:33:37.137,-863.0,2135.0,-1326.0,158.0,-418.0,-669.0,133,128,166,84,63
2025-03-17 18:33:37.161,2139.0,1746.0,-1014.0,85.0,-825.0,-795.0,125,134,165,92,65
2025-03-17 18:33:37.186,4121.0,-2744.0,1161.0,8.0,-689.0,-578.0,133,121,168,80,68
2025-03-17 18:33:37.210,3843.0,-3662.0,2170.0,151.0,-111.0,-11.0,130,126,163,80,59
2025-03-17 18:33:37.230,1695.0,-1861.0,1260.0,73.0,140.0,7.0,135,133,165,90,66
2025-03-17 18:33:37.256,603.0,-1587.0,796.0,-21.0,82.0,93.0,121,126,156,84,59
2025-03-17 18:33:37.281,435.0,-1203.0,697.0,-76.0,18.0,115.0,124,127,156,87,61
2025-03-17 18:33:37.304,631.0,-1449.0,1078.0,-37.0,66.0,125.0,119,121,154,85,65
2025-03-17 18:33:37.330,766.0,-1353.0,1039.0,-6.0,180.0,159.0,124,125,155,84,61
2025-03-17 18:33:37.354,679.0,-1114.0,833.0,5.0,259.0,203.0,134,132,161,87,66
2025-03-17 18:33:37.379,509.0,-851.0,642.0,-11.0,326.0,269.0,147,122,162,87,69
2025-03-17 18:33:37.400,454.0,-537.0,598.0,-50.0,356.0,301.0,152,129,162,79,69
2025-03-17 18:33:37.424,204.0,-376.0,335.0,-18.0,345.0,324.0,151,128,154,67,66
2025-03-17 18:33:37.448,-99.0,-224.0,163.0,28.0,348.0,351.0,149,123,133,52,65
2025-03-17 18:33:37.459,-237.0,51.0,-334.0,83.0,326.0,346.0,138,98,114,43,52
2025-03-17 18:33:37.498,-583.0,591.0,-735.0,177.0,238.0,290.0,135,89,108,16,51
2025-03-17 18:33:37.508,-895.0,940.0,-1495.0,366.0,106.0,151.0,113,81,103,63,53
2025-03-17 18:33:37.546,-1805.0,1840.0,-2574.0,390.0,-266.0,-95.0,100,90,107,68,55
2025-03-17 18:33:37.571,-753.0,2656.0,-3872.0,379.0,-925.0,-420.0,89,97,105,72,55
2025-03-17 18:33:37.593,4068.0,862.0,-2321.0,244.0,-1436.0,-335.0,92,109,108,77,60
2025-03-17 18:33:37.616,4997.0,-580.0,2121.0,524.0,-987.0,-112.0,99,107,111,70,66
2025-03-17 18:33:37.641,3409.0,1142.0,5742.0,215.0,-211.0,-130.0,102,115,112,57,68
2025-03-17 18:33:37.666,1976.0,140.0,2687.0,-89.0,178.0,-27.0,89,107,102,63,59
2025-03-17 18:33:37.690,944.0,-616.0,1410.0,-122.0,81.0,62.0,93,99,101,73,68
2025-03-17 18:33:37.708,1171.0,-410.0,2056.0,-47.0,76.0,82.0,96,86,106,72,71
2025-03-17 18:33:37.739,892.0,-126.0,2022.0,-116.0,243.0,85.0,99,106,109,73,72
2025-03-17 18:33:37.756,565.0,-247.0,1307.0,-88.0,279.0,114.0,102,102,116,77,75
2025-03-17 18:33:37.785,132.0,360.0,966.0,-128.0,224.0,93.0,105,112,119,78,76
2025-03-17 18:33:37.809,478.0,-58.0,1147.0,-210.0,321.0,102.0,111,118,123,85,75
2025-03-17 18:33:37.833,83.0,-406.0,55.0,-70.0,357.0,96.0,112,119,124,72,73
2025-03-17 18:33:37.858,-146.0,15.0,338.0,-16.0,293.0,66.0,116,111,129,79,80
2025-03-17 18:33:37.883,-140.0,154.0,294.0,-127.0,268.0,76.0,98,84,111,60,60
2025-03-17 18:33:37.901,-362.0,-344.0,232.0,-113.0,224.0,123.0,100,90,112,55,59
2025-03-17 18:33:37.929,-436.0,87.0,-332.0,9.0,168.0,106.0,104,92,117,79,63
2025-03-17 18:33:37.953,-727.0,840.0,-539.0,65.0,96.0,3.0,108,107,121,86,68
2025-03-17 18:33:37.977,-1674.0,1229.0,-2033.0,82.0,-174.0,-190.0,108,111,124,89,67
2025-03-17 18:33:38.001,-926.0,1006.0,-3208.0,297.0,-741.0,-329.0,107,109,127,88,71
2025-03-17 18:33:38.017,2325.0,566.0,-1620.0,339.0,-1094.0,-193.0,107,113,125,91,73
2025-03-17 18:33:38.050,3956.0,-558.0,2713.0,304.0,-834.0,-56.0,115,122,128,88,79
2025-03-17 18:33:38.073,3740.0,243.0,5565.0,62.0,-160.0,-3.0,107,113,117,72,71
2025-03-17 18:33:38.097,2166.0,-40.0,2790.0,-250.0,286.0,33.0,108,114,115,68,75
2025-03-17 18:33:38.121,912.0,-536.0,865.0,-247.0,281.0,84.0,111,110,118,74,80
2025-03-17 18:33:38.145,390.0,-734.0,1077.0,-178.0,176.0,139.0,119,105,124,74,86
2025-03-17 18:33:38.169,358.0,-346.0,1262.0,-221.0,163.0,201.0,136,118,139,82,96
2025-03-17 18:33:38.194,243.0,-168.0,1340.0,-325.0,180.0,182.0,145,124,143,91,99
2025-03-17 18:33:38.218,166.0,-486.0,962.0,-279.0,218.0,193.0,153,125,147,90,100
2025-03-17 18:33:38.243,336.0,-494.0,876.0,-273.0,280.0,219.0,154,110,145,81,97
2025-03-17 18:33:38.265,293.0,-381.0,669.0,-292.0,354.0,238.0,156,105,144,87,90
2025-03-17 18:33:38.289,118.0,-390.0,182.0,-229.0,336.0,243.0,141,67,127,42,72
2025-03-17 18:33:38.313,-182.0,-549.0,75.0,-152.0,295.0,247.0,144,51,131,32,72
2025-03-17 18:33:38.337,-202.0,-243.0,-110.0,-12.0,259.0,201.0,149,50,132,49,70
2025-03-17 18:33:38.362,-871.0,468.0,-413.0,37.0,187.0,129.0,151,41,135,50,74
2025-03-17 18:33:38.386,-930.0,1248.0,-602.0,77.0,61.0,46.0,153,50,133,60,74
2025-03-17 18:33:38.411,-1141.0,1899.0,-719.0,189.0,-14.0,-145.0,156,52,133,62,64
2025-03-17 18:33:38.429,-1387.0,2403.0,-1872.0,227.0,-288.0,-471.0,154,58,130,75,64
2025-03-17 18:33:38.455,-1081.0,2124.0,-1903.0,192.0,-586.0,-801.0,151,57,130,81,68
2025-03-17 18:33:38.481,5409.0,555.0,575.0,-88.0,-1107.0,-798.0,125,46,123,74,59
2025-03-17 18:33:38.506,5995.0,-7019.0,4478.0,30.0,-57.0,-132.0,136,35,117,57,50
2025-03-17 18:33:38.530,1739.0,-2514.0,960.0,198.0,430.0,138.0,138,34,114,39,49
2025-03-17 18:33:38.553,-483.0,-1001.0,-1136.0,-202.0,-19.0,103.0,133,46,118,71,51
2025-03-17 18:33:38.575,802.0,-2733.0,1229.0,-145.0,-94.0,210.0,144,54,127,74,63
2025-03-17 18:33:38.592,370.0,-1809.0,961.0,-104.0,101.0,290.0,139,56,128,67,64
2025-03-17 18:33:38.624,493.0,-533.0,963.0,-157.0,159.0,303.0,146,67,138,82,79
2025-03-17 18:33:38.648,-52.0,-688.0,676.0,-39.0,92.0,293.0,151,56,132,74,73
2025-03-17 18:33:38.673,-141.0,-419.0,465.0,-61.0,115.0,225.0,148,56,130,73,71
2025-03-17 18:33:38.698,-82.0,-306.0,254.0,-169.0,170.0,240.0,142,41,115,55,50
2025-03-17 18:33:38.723,-320.0,-521.0,128.0,-115.0,119.0,215.0,143,42,118,68,56
2025-03-17 18:33:38.745,-432.0,-295.0,49.0,-26.0,118.0,160.0,145,44,121,75,59
2025-03-17 18:33:38.767,-347.0,-601.0,-108.0,13.0,141.0,192.0,148,52,127,81,63
2025-03-17 18:33:38.792,-556.0,19.0,-17.0,41.0,125.0,216.0,151,51,127,87,64
2025-03-17 18:33:38.816,-526.0,347.0,-184.0,159.0,71.0,200.0,158,61,132,93,72
2025-03-17 18:33:38.841,-526.0,1331.0,-638.0,261.0,42.0,197.0,161,59,133,93,71
2025-03-17 18:33:38.866,-1050.0,3677.0,-1457.0,317.0,-75.0,-180.0,157,61,135,93,73
2025-03-17 18:33:38.891,-1578.0,3074.0,-2180.0,238.0,-411.0,-716.0,143,46,121,75,56
2025-03-17 18:33:38.901,1443.0,1464.0,-1642.0,199.0,-859.0,-1006.0,129,45,122,75,59
2025-03-17 18:33:38.940,6552.0,-4503.0,3265.0,403.0,-835.0,-383.0,143,39,118,58,52
2025-03-17 18:33:38.954,3676.0,-2047.0,4576.0,374.0,310.0,-43.0,131,45,120,40,61
2025-03-17 18:33:38.985,-229.0,-561.0,1677.0,-214.0,297.0,22.0,160,59,131,80,80
2025-03-17 18:33:39.009,-375.0,-1592.0,293.0,-38.0,90.0,-28.0,149,49,121,74,70
2025-03-17 18:33:39.034,-629.0,-831.0,512.0,194.0,70.0,-6.0,141,49,119,71,71
2025-03-17 18:33:39.058,-482.0,-270.0,456.0,123.0,42.0,-42.0,152,52,121,70,73
2025-03-17 18:33:39.082,-91.0,-385.0,762.0,106.0,-6.0,-52.0,157,57,130,82,78
2025-03-17 18:33:39.103,4.0,-724.0,933.0,150.0,26.0,-58.0,145,36,116,71,58
2025-03-17 18:33:39.128,-134.0,-511.0,928.0,143.0,81.0,-54.0,147,45,117,69,57
2025-03-17 18:33:39.152,100.0,-449.0,656.0,105.0,68.0,-64.0,151,49,119,75,61
2025-03-17 18:33:39.177,136.0,-798.0,662.0,101.0,46.0,-54.0,152,47,119,75,62
2025-03-17 18:33:39.201,389.0,-1201.0,635.0,113.0,25.0,-19.0,146,50,121,76,66
2025-03-17 18:33:39.226,991.0,-1996.0,980.0,105.0,33.0,68.0,157,54,124,79,73
2025-03-17 18:33:39.248,1630.0,-3043.0,1221.0,104.0,93.0,280.0,158,56,125,78,73
2025-03-17 18:33:39.265,2283.0,-3306.0,811.0,43.0,158.0,648.0,159,50,125,82,70
2025-03-17 18:33:39.296,2889.0,-636.0,617.0,-12.0,2.0,981.0,158,44,117,74,63
2025-03-17 18:33:39.320,1830.0,2909.0,1023.0,-86.0,-99.0,858.0,155,45,116,75,65
2025-03-17 18:33:39.345,-104.0,4988.0,452.0,185.0,-4.0,161.0,152,42,116,66,63
2025-03-17 18:33:39.370,-630.0,4778.0,1008.0,201.0,-4.0,-11.0,153,47,116,67,64
2025-03-17 18:33:39.394,-217.0,3328.0,1194.0,92.0,-20.0,-280.0,157,51,122,77,68
2025-03-17 18:33:39.418,222.0,1643.0,1055.0,-72.0,-34.0,-421.0,159,58,123,79,71
2025-03-17 18:33:39.443,464.0,201.0,1249.0,-118.0,14.0,-441.0,161,57,126,65,67
2025-03-17 18:33:39.464,465.0,-498.0,729.0,101.0,-48.0,-351.0,162,55,124,82,67
2025-03-17 18:33:39.488,230.0,-431.0,780.0,187.0,-123.0,-334.0,161,57,125,84,70
2025-03-17 18:33:39.513,188.0,-328.0,789.0,106.0,-154.0,-300.0,149,45,114,74,61
2025-03-17 18:33:39.538,315.0,-435.0,570.0,-27.0,-145.0,-220.0,152,43,114,75,61
2025-03-17 18:33:39.562,246.0,-841.0,1180.0,39.0,-131.0,-144.0,154,48,116,76,64
2025-03-17 18:33:39.586,206.0,-583.0,1203.0,51.0,-38.0,-105.0,154,48,119,78,65
2025-03-17 18:33:39.610,148.0,-615.0,895.0,39.0,-37.0,-69.0,154,49,118,76,66
2025-03-17 18:33:39.631,397.0,-748.0,973.0,0.0,-55.0,-14.0,158,52,120,80,68
2025-03-17 18:33:39.657,956.0,-1480.0,1167.0,23.0,-37.0,82.0,159,53,120,81,69
2025-03-17 18:33:39.680,1804.0,-2485.0,1535.0,86.0,35.0,327.0,158,54,122,80,67
2025-03-17 18:33:39.706,2446.0,-1992.0,1329.0,-91.0,133.0,688.0,153,47,116,74,60
2025-03-17 18:33:39.727,2514.0,757.0,1245.0,-320.0,27.0,898.0,154,46,115,74,60
2025-03-17 18:33:39.744,1731.0,1814.0,1827.0,-381.0,1.0,766.0,150,47,116,75,60
2025-03-17 18:33:39.776,134.0,4245.0,1966.0,-13.0,187.0,236.0,155,47,116,73,61
2025-03-17 18:33:39.800,-412.0,3729.0,1908.0,96.0,198.0,19.0,153,53,121,78,67
2025-03-17 18:33:39.824,314.0,1884.0,2380.0,-71.0,251.0,-127.0,151,47,120,77,66
2025-03-17 18:33:39.848,781.0,-697.0,2210.0,-59.0,403.0,-116.0,156,54,124,79,68
2025-03-17 18:33:39.873,17.0,-717.0,752.0,-114.0,456.0,-81.0,156,54,126,79,69
2025-03-17 18:33:39.897,-506.0,-302.0,173.0,-153.0,429.0,-79.0,152,52,122,80,61
2025-03-17 18:33:39.922,-325.0,-1442.0,244.0,22.0,261.0,-35.0,158,64,132,81,71
2025-03-17 18:33:39.945,-455.0,-1474.0,-119.0,50.0,260.0,18.0,139,50,121,62,59
2025-03-17 18:33:39.962,-634.0,-580.0,-298.0,147.0,273.0,40.0,136,55,132,48,60
2025-03-17 18:33:39.992,-906.0,247.0,-70.0,84.0,234.0,33.0,170,94,182,114,122
2025-03-17 18:33:40.010,-710.0,-125.0,-54.0,34.0,198.0,40.0,138,68,166,87,111
2025-03-17 18:33:40.042,-882.0,782.0,-249.0,-11.0,170.0,36.0,149,88,179,109,129
2025-03-17 18:33:40.060,-655.0,1395.0,-622.0,-38.0,124.0,-57.0,151,102,180,121,129
2025-03-17 18:33:40.090,-480.0,1657.0,-1194.0,15.0,37.0,-183.0,168,119,199,140,157
2025-03-17 18:33:40.114,-825.0,2055.0,-1639.0,105.0,-157.0,-433.0,148,103,181,129,141
2025-03-17 18:33:40.139,43.0,2034.0,-1603.0,62.0,-398.0,-782.0,125,72,162,107,126
2025-03-17 18:33:40.158,868.0,1111.0,-1163.0,-79.0,-636.0,-993.0,118,74,157,102,122
2025-03-17 18:33:40.185,7219.0,-1616.0,-911.0,-120.0,-1143.0,-645.0,121,106,173,122,131
2025-03-17 18:33:40.210,4031.0,-6881.0,1826.0,-122.0,-334.0,-30.0,168,151,199,154,160
2025-03-17 18:33:40.234,2542.0,-3918.0,-1063.0,-470.0,251.0,292.0,165,147,200,157,167
2025-03-17 18:33:40.258,-35.0,-1705.0,-800.0,405.0,142.0,372.0,145,129,175,128,147
2025-03-17 18:33:40.283,34.0,-1129.0,513.0,114.0,6.0,401.0,177,150,196,152,171
2025-03-17 18:33:40.308,91.0,-882.0,1096.0,-242.0,101.0,375.0,147,115,172,126,143
2025-03-17 18:33:40.332,-14.0,-1258.0,599.0,-46.0,173.0,365.0,196,167,220,176,193
2025-03-17 18:33:40.356,-495.0,-814.0,-108.0,109.0,62.0,335.0,170,137,192,148,165
2025-03-17 18:33:40.368,-670.0,-439.0,243.0,-23.0,41.0,309.0,167,128,186,143,162
2025-03-17 18:33:40.402,-385.0,-168.0,53.0,9.0,98.0,244.0,135,92,156,106,130
2025-03-17 18:33:40.427,-423.0,352.0,159.0,65.0,128.0,192.0,136,86,155,104,129
2025-03-17 18:33:40.451,-491.0,701.0,239.0,68.0,65.0,147.0,141,84,162,116,130
2025-03-17 18:33:40.476,-388.0,1798.0,65.0,209.0,66.0,60.0,145,105,167,123,133
2025-03-17 18:33:40.500,-1082.0,3146.0,-736.0,359.0,-13.0,-222.0,144,84,168,122,141
2025-03-17 18:33:40.524,-718.0,2808.0,-1055.0,116.0,-200.0,-738.0,150,112,173,131,147
2025-03-17 18:33:40.548,921.0,1477.0,-265.0,-108.0,-676.0,-1011.0,146,118,174,129,149
2025-03-17 18:33:40.573,4900.0,-1659.0,-831.0,-92.0,-862.0,-608.0,134,105,158,115,135
2025-03-17 18:33:40.598,3268.0,-6723.0,562.0,-167.0,-257.0,-91.0,140,113,160,118,128
2025-03-17 18:33:40.623,2081.0,-3524.0,-109.0,-310.0,513.0,215.0,147,126,173,130,150
2025-03-17 18:33:40.647,-381.0,-1386.0,-1122.0,578.0,173.0,182.0,152,123,175,134,154
2025-03-17 18:33:40.672,-261.0,-656.0,946.0,330.0,200.0,63.0,149,115,165,124,140
2025-03-17 18:33:40.693,-428.0,-932.0,757.0,-7.0,247.0,33.0,158,120,174,131,138
2025-03-17 18:33:40.714,7.0,-848.0,603.0,231.0,271.0,27.0,157,114,179,132,149
2025-03-17 18:33:40.740,-238.0,-567.0,104.0,405.0,148.0,20.0,151,104,175,131,122
2025-03-17 18:33:40.765,-246.0,-81.0,661.0,343.0,160.0,-43.0,155,90,171,117,107
2025-03-17 18:33:40.791,-235.0,-393.0,309.0,204.0,135.0,-68.0,151,74,162,27,84
2025-03-17 18:33:40.816,-260.0,-550.0,210.0,239.0,45.0,-98.0,141,54,146,13,74
2025-03-17 18:33:40.840,-130.0,-794.0,1446.0,279.0,9.0,-84.0,139,50,138,8,63
2025-03-17 18:33:40.861,-77.0,-658.0,573.0,291.0,-65.0,-70.0,143,52,136,12,61
2025-03-17 18:33:40.886,445.0,-949.0,747.0,240.0,-70.0,-45.0,153,58,139,64,65
2025-03-17 18:33:40.910,820.0,-1595.0,1130.0,249.0,-22.0,60.0,151,60,134,57,64
2025-03-17 18:33:40.935,1546.0,-2397.0,1541.0,209.0,100.0,257.0,157,60,134,71,66
2025-03-17 18:33:40.959,2309.0,-2603.0,1648.0,26.0,182.0,635.0,160,59,131,66,64
2025-03-17 18:33:40.983,2809.0,-532.0,1343.0,-123.0,75.0,873.0,162,61,131,74,63
2025-03-17 18:33:41.005,2380.0,1291.0,1597.0,-132.0,63.0,829.0,150,46,118,60,48
2025-03-17 18:33:41.022,148.0,5497.0,325.0,24.0,222.0,301.0,158,56,128,71,58
2025-03-17 18:33:41.053,-1169.0,5318.0,90.0,126.0,103.0,-45.0,149,49,123,60,55
2025-03-17 18:33:41.078,-268.0,3269.0,1361.0,157.0,12.0,-316.0,157,54,127,72,59
2025-03-17 18:33:41.102,227.0,1593.0,1228.0,-14.0,8.0,-480.0,161,58,131,77,63
2025-03-17 18:33:41.114,975.0,-334.0,1295.0,-212.0,53.0,-446.0,166,65,138,87,68
2025-03-17 18:33:41.151,607.0,-1009.0,1195.0,-117.0,125.0,-322.0,176,76,147,92,76
2025-03-17 18:33:41.175,123.0,-925.0,667.0,77.0,66.0,-239.0,166,60,135,83,64
2025-03-17 18:33:41.197,-331.0,-786.0,309.0,62.0,16.0,-184.0,165,63,138,86,66
2025-03-17 18:33:41.222,-252.0,-547.0,422.0,-20.0,-37.0,-182.0,155,52,128,76,56
2025-03-17 18:33:41.246,-59.0,-697.0,1185.0,-58.0,-37.0,-126.0,153,49,127,70,54
2025-03-17 18:33:41.270,-57.0,-886.0,987.0,84.0,-49.0,-86.0,157,46,130,78,59
2025-03-17 18:33:41.294,48.0,-549.0,934.0,17.0,-4.0,-63.0,170,68,144,93,74
2025-03-17 18:33:41.319,110.0,-1014.0,574.0,-37.0,-54.0,-52.0,174,74,148,97,77
2025-03-17 18:33:41.344,996.0,-2431.0,894.0,6.0,-42.0,87.0,181,81,155,105,87
2025-03-17 18:33:41.368,1675.0,-2880.0,1314.0,-21.0,56.0,343.0,181,82,157,106,87
2025-03-17 18:33:41.387,1732.0,-2435.0,692.0,-140.0,-23.0,621.0,183,83,156,105,87
2025-03-17 18:33:41.412,1742.0,-303.0,833.0,-159.0,-139.0,781.0,161,56,134,81,61
2025-03-17 18:33:41.438,915.0,3791.0,1130.0,-52.0,-146.0,641.0,167,65,140,89,69
2025-03-17 18:33:41.463,-104.0,5001.0,1690.0,187.0,31.0,118.0,161,56,134,82,62
2025-03-17 18:33:41.487,-189.0,3744.0,2177.0,134.0,24.0,-51.0,165,60,137,85,65
2025-03-17 18:33:41.511,144.0,1611.0,2559.0,31.0,170.0,-207.0,169,66,143,93,73
2025-03-17 18:33:41.533,17.0,90.0,2077.0,-250.0,233.0,-282.0,182,84,157,107,89
2025-03-17 18:33:41.557,60.0,-1383.0,1809.0,-418.0,451.0,-225.0,176,73,150,86,79
2025-03-17 18:33:41.581,-480.0,-1749.0,631.0,-176.0,347.0,-118.0,175,74,150,99,79
2025-03-17 18:33:41.606,-679.0,-1383.0,175.0,29.0,173.0,-57.0,156,52,134,61,57
2025-03-17 18:33:41.631,-282.0,-1374.0,305.0,-49.0,261.0,55.0,150,54,133,70,56
2025-03-17 18:33:41.655,-153.0,-441.0,521.0,-8.0,301.0,117.0,151,55,134,75,54
2025-03-17 18:33:41.680,-909.0,44.0,102.0,20.0,269.0,93.0,147,52,142,69,59
2025-03-17 18:33:41.703,-899.0,253.0,-133.0,87.0,179.0,69.0,160,71,156,71,68
2025-03-17 18:33:41.725,-561.0,474.0,-110.0,90.0,157.0,33.0,161,79,161,71,71
2025-03-17 18:33:41.750,-510.0,978.0,-299.0,77.0,182.0,-20.0,171,103,175,72,83
2025-03-17 18:33:41.774,-591.0,1307.0,-739.0,72.0,136.0,-112.0,171,104,177,75,84
2025-03-17 18:33:41.799,-482.0,2093.0,-2266.0,119.0,-63.0,-297.0,159,112,177,69,82
2025-03-17 18:33:41.823,-676.0,2756.0,-2760.0,83.0,-454.0,-658.0,126,86,160,62,59
2025-03-17 18:33:41.848,670.0,1825.0,-2460.0,31.0,-904.0,-940.0,114,88,162,77,54
2025-03-17 18:33:41.871,5987.0,203.0,-773.0,-243.0,-1281.0,-890.0,108,98,163,80,47
2025-03-17 18:33:41.896,6056.0,-4264.0,1051.0,-129.0,-693.0,-253.0,108,124,161,76,58
2025-03-17 18:33:41.917,4050.0,-3977.0,1621.0,131.0,205.0,155.0,118,127,171,90,64
2025-03-17 18:33:41.943,398.0,-1544.0,-23.0,107.0,134.0,177.0,122,125,169,98,65
2025-03-17 18:33:41.966,394.0,-1550.0,316.0,-98.0,-23.0,221.0,123,132,171,104,68
2025-03-17 18:33:41.991,616.0,-1411.0,969.0,-65.0,75.0,236.0,125,130,168,105,69
2025-03-17 18:33:42.015,159.0,-982.0,960.0,21.0,144.0,229.0,124,134,169,83,70
2025-03-17 18:33:42.040,113.0,-785.0,541.0,24.0,136.0,238.0,106,119,155,74,51
2025-03-17 18:33:42.061,281.0,-901.0,569.0,-19.0,174.0,254.0,103,112,154,27,50
2025-03-17 18:33:42.083,332.0,-797.0,369.0,49.0,222.0,318.0,111,113,160,49,54
2025-03-17 18:33:42.108,54.0,-406.0,390.0,54.0,216.0,361.0,115,127,165,61,62
2025-03-17 18:33:42.125,-169.0,-228.0,301.0,7.0,185.0,348.0,118,116,165,71,63
2025-03-17 18:33:42.157,-386.0,175.0,180.0,96.0,190.0,301.0,117,117,163,58,59
2025-03-17 18:33:42.183,-860.0,918.0,-47.0,81.0,151.0,200.0,118,82,167,74,61
2025-03-17 18:33:42.205,-1031.0,1901.0,-441.0,44.0,77.0,23.0,118,86,167,69,63
2025-03-17 18:33:42.229,-1346.0,2939.0,-956.0,11.0,-68.0,-312.0,103,93,154,60,48
2025-03-17 18:33:42.254,-1059.0,2971.0,-1438.0,-56.0,-387.0,-773.0,99,82,156,42,45
2025-03-17 18:33:42.278,2187.0,189.0,-807.0,-223.0,-743.0,-883.0,99,94,158,74,54
2025-03-17 18:33:42.302,4038.0,-3189.0,344.0,163.0,-479.0,-617.0,105,112,162,65,51
2025-03-17 18:33:42.319,2644.0,-2590.0,1445.0,314.0,-115.0,-201.0,117,130,170,54,68
2025-03-17 18:33:42.351,1210.0,-1898.0,1702.0,3.0,15.0,19.0,120,135,173,104,71
2025-03-17 18:33:42.376,657.0,-1512.0,1241.0,-45.0,41.0,36.0,123,139,174,107,76
2025-03-17 18:33:42.398,510.0,-1452.0,1154.0,63.0,131.0,38.0,126,139,174,107,79
2025-03-17 18:33:42.422,253.0,-671.0,1188.0,75.0,215.0,29.0,128,134,172,104,80
2025-03-17 18:33:42.446,214.0,-517.0,878.0,95.0,262.0,2.0,113,117,155,74,57
2025-03-17 18:33:42.471,152.0,-582.0,567.0,172.0,283.0,-32.0,116,117,155,63,62
2025-03-17 18:33:42.495,-16.0,-494.0,435.0,201.0,266.0,-22.0,124,114,161,60,66
2025-03-17 18:33:42.519,-28.0,-573.0,355.0,239.0,219.0,-64.0,136,105,165,61,72
2025-03-17 18:33:42.543,-11.0,-577.0,622.0,299.0,206.0,-69.0,141,76,155,64,65
2025-03-17 18:33:42.565,-69.0,-551.0,826.0,210.0,224.0,-11.0,149,65,144,60,68
2025-03-17 18:33:42.590,-224.0,-633.0,373.0,177.0,163.0,22.0,154,63,141,28,73
2025-03-17 18:33:42.614,145.0,-1007.0,406.0,262.0,29.0,47.0,156,63,135,48,74
2025-03-17 18:33:42.638,978.0,-2007.0,853.0,219.0,-70.0,170.0,149,49,119,24,58
2025-03-17 18:33:42.661,1952.0,-3403.0,1812.0,52.0,-55.0,547.0,153,47,115,46,58
2025-03-17 18:33:42.687,2499.0,-2100.0,1329.0,-87.0,-52.0,815.0,154,49,112,59,58
2025-03-17 18:33:42.712,2491.0,-81.0,1820.0,-60.0,-59.0,808.0,154,47,110,62,57
2025-03-17 18:33:42.732,1359.0,3866.0,1885.0,-5.0,190.0,456.0,155,51,114,71,60
2025-03-17 18:33:42.757,-585.0,5115.0,116.0,-83.0,85.0,212.0,175,73,137,93,87
2025-03-17 18:33:42.781,-49.0,4008.0,1098.0,93.0,14.0,-47.0,164,66,132,93,83
2025-03-17 18:33:42.805,340.0,2289.0,1061.0,72.0,34.0,-195.0,152,42,117,74,66
2025-03-17 18:33:42.831,353.0,798.0,953.0,-52.0,31.0,-224.0,165,61,126,79,77
2025-03-17 18:33:42.855,290.0,-81.0,314.0,-98.0,40.0,-209.0,147,40,109,52,54
2025-03-17 18:33:42.879,442.0,-609.0,1048.0,24.0,65.0,-170.0,149,41,109,61,50
2025-03-17 18:33:42.904,-286.0,-456.0,750.0,150.0,-17.0,-125.0,162,56,124,76,66
2025-03-17 18:33:42.926,-398.0,-198.0,737.0,110.0,-27.0,-125.0,161,56,126,83,67
2025-03-17 18:33:42.950,-366.0,-14.0,806.0,66.0,-19.0,-146.0,175,72,139,101,81
2025-03-17 18:33:42.974,-168.0,-76.0,1116.0,15.0,5.0,-157.0,166,62,129,87,70
2025-03-17 18:33:42.999,-292.0,-212.0,956.0,74.0,-23.0,-156.0,183,84,150,108,92
2025-03-17 18:33:43.023,-273.0,-557.0,683.0,28.0,-43.0,-155.0,202,101,167,124,111
2025-03-17 18:33:43.048,90.0,-1484.0,895.0,-1.0,-64.0,-68.0,193,92,157,116,100
2025-03-17 18:33:43.072,742.0,-3432.0,1333.0,-24.0,-33.0,180.0,170,68,135,92,76
2025-03-17 18:33:43.093,1474.0,-3880.0,1667.0,-28.0,53.0,508.0,174,72,136,96,78
2025-03-17 18:33:43.118,1177.0,-701.0,1534.0,-46.0,36.0,600.0,168,65,133,87,71
2025-03-17 18:33:43.142,660.0,2694.0,754.0,-94.0,107.0,423.0,217,120,183,143,128
2025-03-17 18:33:43.167,-20.0,3188.0,12.0,3.0,-11.0,249.0,194,84,159,117,103
2025-03-17 18:33:43.191,-58.0,4027.0,1143.0,154.0,-58.0,73.0,150,58,131,88,76
2025-03-17 18:33:43.215,291.0,3060.0,2279.0,12.0,-21.0,-137.0,165,61,133,92,78
2025-03-17 18:33:43.239,644.0,620.0,2961.0,-106.0,174.0,-168.0,161,55,129,79,72
2025-03-17 18:33:43.261,85.0,621.0,2364.0,-342.0,415.0,-208.0,150,44,117,70,60
2025-03-17 18:33:43.286,119.0,-309.0,1332.0,-438.0,440.0,-222.0,157,54,119,78,58
2025-03-17 18:33:43.310,-170.0,-1143.0,143.0,-270.0,377.0,-176.0,165,66,133,88,69
2025-03-17 18:33:43.335,-492.0,-881.0,12.0,-125.0,192.0,-88.0,181,83,151,102,91
2025-03-17 18:33:43.359,-286.0,-1121.0,390.0,-132.0,270.0,-4.0,169,73,138,64,81
2025-03-17 18:33:43.381,-646.0,-771.0,517.0,-236.0,315.0,28.0,166,67,137,68,83
2025-03-17 18:33:43.398,-348.0,-236.0,78.0,-136.0,337.0,34.0,152,58,133,63,79
2025-03-17 18:33:43.430,-783.0,29.0,-30.0,-35.0,233.0,13.0,172,70,146,77,89
2025-03-17 18:33:43.454,-608.0,52.0,-188.0,-79.0,212.0,-53.0,161,62,136,54,83
2025-03-17 18:33:43.478,-513.0,362.0,-397.0,-164.0,195.0,-42.0,152,46,118,59,61
2025-03-17 18:33:43.502,-542.0,544.0,-415.0,44.0,59.0,7.0,148,37,117,54,61
2025-03-17 18:33:43.527,-545.0,1475.0,-495.0,92.0,42.0,-10.0,151,36,116,62,58
2025-03-17 18:33:43.551,-833.0,3040.0,-901.0,149.0,31.0,-239.0,158,60,126,49,62
2025-03-17 18:33:43.568,-313.0,3987.0,-2341.0,260.0,-275.0,-731.0,128,56,121,56,55
2025-03-17 18:33:43.599,500.0,2548.0,-2589.0,102.0,-678.0,-1062.0,126,56,125,67,62
2025-03-17 18:33:43.616,7593.0,2160.0,-1438.0,-97.0,-1212.0,-1110.0,110,60,120,53,52
2025-03-17 18:33:43.646,8479.0,-9861.0,3195.0,-114.0,49.0,-155.0,126,64,125,54,70
2025-03-17 18:33:43.670,2427.0,-4553.0,-1097.0,114.0,825.0,186.0,114,39,105,8,33
2025-03-17 18:33:43.695,-426.0,-77.0,-676.0,219.0,-118.0,195.0,119,50,114,53,54
2025-03-17 18:33:43.720,683.0,-2613.0,643.0,-78.0,-83.0,184.0,133,57,123,77,63
2025-03-17 18:33:43.743,700.0,-2010.0,1198.0,-57.0,177.0,280.0,114,58,128,60,66
2025-03-17 18:33:43.766,45.0,-1134.0,25.0,-57.0,126.0,299.0,154,82,145,47,83
2025-03-17 18:33:43.786,-193.0,-698.0,351.0,-29.0,17.0,278.0,143,67,131,31,71
2025-03-17 18:33:43.812,127.0,-792.0,502.0,-118.0,141.0,300.0,157,84,151,63,94
2025-03-17 18:33:43.839,120.0,-527.0,150.0,-169.0,209.0,301.0,158,79,145,88,92
2025-03-17 18:33:43.863,-467.0,-323.0,-177.0,-87.0,127.0,270.0,140,55,127,55,62
2025-03-17 18:33:43.884,-309.0,-114.0,180.0,48.0,40.0,257.0,135,52,121,62,59
2025-03-17 18:33:43.911,-395.0,195.0,46.0,44.0,124.0,289.0,164,84,147,87,84
2025-03-17 18:33:43.933,-793.0,1589.0,-537.0,190.0,75.0,271.0,150,64,128,64,64
2025-03-17 18:33:43.958,-1326.0,4225.0,-1102.0,372.0,-24.0,-184.0,165,84,144,89,79
2025-03-17 18:33:43.982,-858.0,3674.0,-1311.0,168.0,-232.0,-684.0,156,76,144,100,82
2025-03-17 18:33:44.007,251.0,2744.0,-1155.0,144.0,-545.0,-1000.0,143,69,134,77,71
2025-03-17 18:33:44.029,6655.0,-301.0,1751.0,-167.0,-699.0,-922.0,136,52,125,74,60
2025-03-17 18:33:44.053,5976.0,-8234.0,2101.0,-25.0,51.0,-99.0,164,91,154,84,90
2025-03-17 18:33:44.080,2473.0,-3429.0,-240.0,36.0,571.0,254.0,154,84,148,56,73
2025-03-17 18:33:44.102,471.0,-750.0,-2060.0,166.0,-19.0,170.0,149,71,137,93,76
2025-03-17 18:33:44.125,785.0,-1895.0,580.0,185.0,-19.0,203.0,142,68,132,89,72
2025-03-17 18:33:44.149,269.0,-1227.0,493.0,131.0,172.0,256.0,194,111,171,122,116
2025-03-17 18:33:44.174,-17.0,-953.0,12.0,196.0,39.0,256.0,173,78,146,79,93
2025-03-17 18:33:44.199,-385.0,-4.0,337.0,360.0,-42.0,276.0,185,87,156,102,98
2025-03-17 18:33:44.223,9.0,-379.0,332.0,390.0,-16.0,275.0,206,118,178,122,133
2025-03-17 18:33:44.248,50.0,-141.0,339.0,346.0,35.0,300.0,174,75,142,61,98
2025-03-17 18:33:44.263,81.0,41.0,671.0,264.0,66.0,324.0,165,64,131,62,92
2025-03-17 18:33:44.295,96.0,477.0,270.0,271.0,48.0,351.0,170,69,131,76,104
2025-03-17 18:33:44.318,-374.0,1138.0,301.0,356.0,15.0,262.0,167,61,125,80,105
2025-03-17 18:33:44.342,-1458.0,2972.0,391.0,307.0,-67.0,83.0,167,63,131,73,134
2025-03-17 18:33:44.367,-1646.0,3709.0,-123.0,230.0,-183.0,-208.0,184,85,149,89,156
2025-03-17 18:33:44.391,-1183.0,3039.0,-133.0,255.0,-301.0,-431.0,187,91,157,101,165
2025-03-17 18:33:44.416,255.0,1971.0,517.0,168.0,-429.0,-452.0,182,82,153,94,163
2025-03-17 18:33:44.440,1414.0,184.0,1100.0,-19.0,-422.0,-327.0,163,63,134,74,136
2025-03-17 18:33:44.465,2118.0,-1513.0,2168.0,-17.0,-228.0,-142.0,199,96,171,105,180
2025-03-17 18:33:44.490,1513.0,-1242.0,2300.0,-28.0,20.0,-24.0,184,78,155,86,169
2025-03-17 18:33:44.510,775.0,-858.0,1980.0,-134.0,155.0,75.0,181,77,150,105,164
2025-03-17 18:33:44.532,244.0,-925.0,892.0,-22.0,113.0,147.0,227,136,201,97,213
2025-03-17 18:33:44.558,201.0,-382.0,1123.0,-18.0,66.0,200.0,184,90,154,123,172
2025-03-17 18:33:44.581,227.0,-102.0,1217.0,-27.0,108.0,249.0,167,68,138,102,152
2025-03-17 18:33:44.608,-43.0,441.0,957.0,8.0,152.0,221.0,162,65,136,91,148
2025-03-17 18:33:44.628,-265.0,718.0,607.0,100.0,146.0,170.0,173,74,145,96,159
2025-03-17 18:33:44.657,-299.0,920.0,616.0,96.0,123.0,153.0,183,82,157,115,169
2025-03-17 18:33:44.678,-304.0,951.0,608.0,34.0,134.0,166.0,179,82,152,90,160
2025-03-17 18:33:44.702,-316.0,961.0,448.0,31.0,132.0,115.0,190,94,165,119,168
2025-03-17 18:33:44.727,-323.0,994.0,331.0,72.0,83.0,71.0,180,84,154,109,161
2025-03-17 18:33:44.752,-505.0,1592.0,373.0,24.0,42.0,58.0,182,88,159,113,165
2025-03-17 18:33:44.776,-874.0,2321.0,129.0,-35.0,24.0,-10.0,180,86,157,108,165
2025-03-17 18:33:44.800,-1625.0,3928.0,-707.0,-47.0,-92.0,-267.0,181,92,163,119,171
2025-03-17 18:33:44.826,-1362.0,3888.0,-1261.0,-125.0,-297.0,-564.0,149,67,140,77,139
2025-03-17 18:33:44.847,551.0,1153.0,-937.0,-133.0,-491.0,-539.0,163,87,158,110,163
2025-03-17 18:33:44.871,2621.0,-1417.0,161.0,-218.0,-514.0,-382.0,161,79,153,101,158
2025-03-17 18:33:44.896,3431.0,-3661.0,1670.0,-95.0,-238.0,-107.0,156,67,149,104,157
2025-03-17 18:33:44.920,2176.0,-1895.0,2457.0,-32.0,-43.0,18.0,152,67,143,85,152
2025-03-17 18:33:44.944,1117.0,-1303.0,1589.0,-59.0,91.0,103.0,151,64,143,100,149
2025-03-17 18:33:44.969,219.0,-450.0,1645.0,-92.0,105.0,145.0,132,50,131,86,138
2025-03-17 18:33:44.993,70.0,-359.0,1596.0,-84.0,120.0,152.0,137,46,126,84,135
2025-03-17 18:33:45.017,65.0,53.0,1742.0,-141.0,171.0,179.0,143,49,129,77,136
2025-03-17 18:33:45.041,112.0,125.0,1647.0,-237.0,260.0,222.0,156,54,138,82,146
2025-03-17 18:33:45.063,194.0,282.0,1463.0,-336.0,360.0,286.0,165,57,144,52,153
2025-03-17 18:33:45.087,144.0,484.0,1020.0,-367.0,387.0,296.0,167,66,147,66,152
2025-03-17 18:33:45.112,-77.0,580.0,544.0,-380.0,358.0,283.0,188,90,170,91,168
2025-03-17 18:33:45.137,-225.0,22.0,155.0,-292.0,345.0,251.0,181,87,171,91,149
2025-03-17 18:33:45.162,-939.0,191.0,-242.0,-112.0,279.0,168.0,170,70,166,92,133
2025-03-17 18:33:45.186,-768.0,333.0,-86.0,-94.0,172.0,100.0,157,70,166,89,137
2025-03-17 18:33:45.207,-586.0,456.0,-93.0,-8.0,103.0,92.0,137,43,163,103,134
2025-03-17 18:33:45.231,-654.0,1299.0,-1030.0,30.0,46.0,70.0,129,81,165,118,134
2025-03-17 18:33:45.256,-1085.0,2319.0,-1854.0,97.0,-157.0,-89.0,137,97,175,128,139
2025-03-17 18:33:45.277,-859.0,2763.0,-2205.0,110.0,-532.0,-417.0,150,96,191,144,172
2025-03-17 18:33:45.304,-79.0,2373.0,-1234.0,-25.0,-650.0,-722.0,153,127,193,139,173
2025-03-17 18:33:45.329,2322.0,1714.0,-1023.0,-124.0,-816.0,-879.0,171,148,207,161,190
2025-03-17 18:33:45.355,5684.0,-3677.0,722.0,-625.0,-957.0,-529.0,137,114,174,128,153
2025-03-17 18:33:45.378,3088.0,-6937.0,162.0,-389.0,-208.0,94.0,165,150,200,158,183
2025-03-17 18:33:45.403,2755.0,-4058.0,-71.0,-452.0,137.0,278.0,173,153,199,155,181
2025-03-17 18:33:45.428,-127.0,-1002.0,-1807.0,449.0,392.0,448.0,141,105,167,122,150
2025-03-17 18:33:45.452,138.0,-602.0,-109.0,348.0,-298.0,228.0,142,111,166,120,146
2025-03-17 18:33:45.472,411.0,-1355.0,798.0,-84.0,56.0,259.0,135,97,156,111,138
2025-03-17 18:33:45.495,220.0,-1519.0,636.0,-340.0,172.0,275.0,128,99,157,112,139
2025-03-17 18:33:45.522,-439.0,-770.0,-834.0,29.0,204.0,367.0,163,127,186,140,168
2025-03-17 18:33:45.547,-126.0,-336.0,-90.0,215.0,7.0,344.0,180,142,203,162,182
2025-03-17 18:33:45.571,97.0,-304.0,418.0,8.0,101.0,350.0,176,142,203,161,183
2025-03-17 18:33:45.596,-259.0,135.0,153.0,42.0,190.0,326.0,188,162,215,175,198
2025-03-17 18:33:45.620,-593.0,1000.0,248.0,133.0,99.0,287.0,172,139,200,159,171
2025-03-17 18:33:45.645,-597.0,1623.0,148.0,284.0,84.0,162.0,148,117,177,131,155
2025-03-17 18:33:45.666,-622.0,2937.0,-584.0,345.0,26.0,-112.0,152,124,184,141,160
2025-03-17 18:33:45.690,-1116.0,3178.0,-1292.0,110.0,-166.0,-525.0,149,108,184,131,167
2025-03-17 18:33:45.714,418.0,2135.0,-886.0,-94.0,-467.0,-900.0,145,121,181,139,165
2025-03-17 18:33:45.739,3229.0,-214.0,164.0,-258.0,-693.0,-916.0,192,180,227,190,212
2025-03-17 18:33:45.764,3833.0,-4604.0,-97.0,-399.0,-465.0,-435.0,117,105,151,110,132
2025-03-17 18:33:45.789,2953.0,-6047.0,-939.0,-269.0,-193.0,111.0,102,108,154,112,136
2025-03-17 18:33:45.813,22.0,-1619.0,-289.0,162.0,323.0,246.0,164,149,193,155,177
2025-03-17 18:33:45.838,-210.0,-1186.0,-85.0,405.0,-145.0,203.0,142,129,168,127,149
2025-03-17 18:33:45.862,-72.0,-890.0,487.0,49.0,36.0,96.0,138,118,170,123,149
2025-03-17 18:33:45.885,212.0,-1403.0,469.0,-59.0,-14.0,70.0,132,117,164,118,143
2025-03-17 18:33:45.910,185.0,-1375.0,20.0,44.0,207.0,87.0,132,110,161,117,145
2025-03-17 18:33:45.935,33.0,-927.0,563.0,199.0,85.0,167.0,141,120,165,130,152
2025-03-17 18:33:45.956,27.0,-763.0,281.0,247.0,216.0,207.0,155,127,182,143,166
2025-03-17 18:33:45.981,-5.0,-638.0,240.0,109.0,202.0,260.0,149,109,177,133,159
2025-03-17 18:33:45.992,-115.0,-777.0,498.0,272.0,122.0,297.0,161,104,185,134,165
2025-03-17 18:33:46.030,-62.0,-412.0,-682.0,479.0,86.0,313.0,161,96,186,109,175
2025-03-17 18:33:46.040,-379.0,37.0,-551.0,467.0,-35.0,331.0,146,65,160,86,153
2025-03-17 18:33:46.079,213.0,206.0,-371.0,378.0,-127.0,351.0,146,69,155,26,152
2025-03-17 18:33:46.089,-478.0,1127.0,-34.0,401.0,-160.0,252.0,140,67,151,69,154
2025-03-17 18:33:46.124,-1153.0,3152.0,213.0,478.0,-146.0,14.0,142,66,153,83,156
2025-03-17 18:33:46.149,-1916.0,4950.0,-226.0,384.0,-211.0,-262.0,137,67,154,85,156
2025-03-17 18:33:46.173,-1486.0,4662.0,-409.0,181.0,-408.0,-563.0,141,62,162,96,163
2025-03-17 18:33:46.198,1175.0,1806.0,660.0,19.0,-620.0,-596.0,157,80,174,107,162
2025-03-17 18:33:46.223,3820.0,-2226.0,2782.0,136.0,-398.0,-340.0,155,72,168,95,155
2025-03-17 18:33:46.247,2591.0,-2332.0,2984.0,35.0,-69.0,-73.0,158,74,164,91,166
2025-03-17 18:33:46.271,1874.0,-1939.0,2381.0,-149.0,214.0,65.0,139,69,158,104,161
2025-03-17 18:33:46.295,-706.0,-2219.0,-879.0,112.0,67.0,132.0,202,138,219,176,224
2025-03-17 18:33:46.321,92.0,-417.0,1550.0,-24.0,77.0,168.0,215,153,233,187,236
2025-03-17 18:33:46.341,42.0,11.0,1208.0,-54.0,92.0,177.0,177,108,194,143,196
2025-03-17 18:33:46.366,44.0,146.0,1045.0,-5.0,106.0,201.0,175,106,190,145,195
2025-03-17 18:33:46.388,-117.0,436.0,949.0,19.0,96.0,189.0,139,63,153,101,156
2025-03-17 18:33:46.415,-232.0,577.0,837.0,27.0,113.0,171.0,140,61,151,99,156
2025-03-17 18:33:46.440,-193.0,583.0,653.0,49.0,139.0,162.0,143,62,155,91,157
2025-03-17 18:33:46.464,-347.0,853.0,514.0,58.0,99.0,143.0,139,61,153,95,157
2025-03-17 18:33:46.488,-527.0,1419.0,489.0,5.0,58.0,102.0,142,71,159,104,161
2025-03-17 18:33:46.509,-824.0,1900.0,344.0,-47.0,61.0,71.0,148,79,165,111,162
2025-03-17 18:33:46.531,-1485.0,2916.0,-149.0,4.0,75.0,-60.0,146,78,170,108,169
2025-03-17 18:33:46.556,-1984.0,3875.0,-816.0,29.0,-40.0,-288.0,139,78,168,102,167
2025-03-17 18:33:46.582,-1031.0,3504.0,-514.0,-137.0,-256.0,-497.0,125,62,151,90,149
2025-03-17 18:33:46.608,1784.0,-913.0,657.0,-128.0,-281.0,-485.0,134,66,156,96,158
2025-03-17 18:33:46.632,2686.0,-2769.0,1560.0,-74.0,-204.0,-216.0,122,42,142,80,145
2025-03-17 18:33:46.655,2279.0,-3038.0,2103.0,-107.0,-94.0,-14.0,131,63,149,93,149
2025-03-17 18:33:46.677,1424.0,-2419.0,1980.0,-191.0,122.0,125.0,141,71,157,30,163
2025-03-17 18:33:46.701,209.0,-836.0,1540.0,-95.0,101.0,190.0,141,73,159,113,161
2025-03-17 18:33:46.726,-284.0,-235.0,1739.0,-170.0,118.0,199.0,137,64,151,105,154
2025-03-17 18:33:46.750,-470.0,4.0,1681.0,-228.0,209.0,220.0,145,64,150,104,149
2025-03-17 18:33:46.774,-408.0,340.0,1234.0,-204.0,260.0,227.0,151,67,151,103,135
2025-03-17 18:33:46.799,-371.0,211.0,877.0,-201.0,260.0,210.0,142,52,137,85,88
2025-03-17 18:33:46.824,-640.0,123.0,600.0,-186.0,235.0,207.0,149,58,145,59,61
2025-03-17 18:33:46.845,-615.0,128.0,634.0,-179.0,214.0,202.0,147,46,145,58,39
2025-03-17 18:33:46.870,-349.0,270.0,511.0,-108.0,260.0,168.0,161,87,164,87,64
2025-03-17 18:33:46.895,-855.0,366.0,-266.0,-29.0,241.0,81.0,166,96,167,82,65
2025-03-17 18:33:46.918,-1017.0,690.0,-463.0,-10.0,119.0,0.0,170,85,171,96,76
2025-03-17 18:33:46.943,-662.0,1288.0,-882.0,-54.0,4.0,-65.0,165,78,170,98,64
2025-03-17 18:33:46.967,-780.0,1894.0,-1693.0,-5.0,-110.0,-215.0,165,69,168,83,62
2025-03-17 18:33:46.992,-1166.0,2624.0,-2271.0,67.0,-365.0,-494.0,163,109,168,72,61
2025-03-17 18:33:47.013,-52.0,2041.0,-1972.0,81.0,-731.0,-722.0,152,96,160,79,48
2025-03-17 18:33:47.038,2626.0,1119.0,-1355.0,-39.0,-1104.0,-741.0,152,121,161,69,50
2025-03-17 18:33:47.060,5184.0,-3298.0,1931.0,56.0,-836.0,-317.0,154,109,161,71,49
2025-03-17 18:33:47.083,4155.0,-3008.0,3336.0,81.0,-27.0,-26.0,163,125,171,89,59
2025-03-17 18:33:47.111,1561.0,-2075.0,1606.0,11.0,148.0,96.0,155,118,163,84,51
2025-03-17 18:33:47.136,509.0,-1634.0,813.0,-87.0,56.0,147.0,156,116,163,92,50
2025-03-17 18:33:47.160,760.0,-1594.0,1134.0,-80.0,108.0,157.0,150,119,163,92,55
2025-03-17 18:33:47.173,482.0,-1103.0,1237.0,-76.0,214.0,181.0,152,115,159,89,51
2025-03-17 18:33:47.205,136.0,-730.0,717.0,-25.0,206.0,189.0,142,112,151,79,46
2025-03-17 18:33:47.230,66.0,-462.0,494.0,-10.0,170.0,166.0,138,119,153,78,48
2025-03-17 18:33:47.255,102.0,-480.0,495.0,-15.0,190.0,172.0,147,125,159,74,51
2025-03-17 18:33:47.279,-119.0,-282.0,384.0,-13.0,212.0,192.0,142,121,155,33,44
2025-03-17 18:33:47.302,-253.0,22.0,176.0,-39.0,171.0,176.0,142,116,155,39,45
2025-03-17 18:33:47.328,-352.0,22.0,170.0,-10.0,165.0,161.0,149,123,161,65,57
2025-03-17 18:33:47.353,-823.0,1025.0,-148.0,-49.0,139.0,172.0,146,120,160,56,53
2025-03-17 18:33:47.374,-1848.0,2352.0,-1396.0,82.0,2.0,-66.0,148,122,159,67,53
2025-03-17 18:33:47.398,-1805.0,3733.0,-2031.0,127.0,-352.0,-553.0,142,120,156,67,49
2025-03-17 18:33:47.422,1059.0,939.0,-616.0,19.0,-651.0,-693.0,138,121,154,62,44
2025-03-17 18:33:47.447,3618.0,-2157.0,1498.0,33.0,-566.0,-481.0,139,120,153,72,46
2025-03-17 18:33:47.472,4412.0,-3757.0,2564.0,38.0,-103.0,-87.0,129,107,153,62,49
2025-03-17 18:33:47.496,1531.0,-2882.0,1371.0,-16.0,197.0,56.0,143,123,155,85,51
2025-03-17 18:33:47.514,584.0,-1999.0,607.0,6.0,65.0,103.0,138,129,160,91,57
2025-03-17 18:33:47.542,729.0,-1742.0,1046.0,10.0,105.0,105.0,152,128,159,90,58
2025-03-17 18:33:47.566,345.0,-1234.0,1164.0,65.0,164.0,130.0,151,128,158,90,58
2025-03-17 18:33:47.590,517.0,-967.0,961.0,99.0,210.0,148.0,154,128,158,88,56
2025-03-17 18:33:47.615,286.0,-786.0,443.0,103.0,230.0,178.0,131,121,153,80,46
2025-03-17 18:33:47.639,398.0,-548.0,211.0,108.0,280.0,241.0,145,99,154,86,53
2025-03-17 18:33:47.663,172.0,-327.0,161.0,104.0,287.0,297.0,150,107,154,72,48
2025-03-17 18:33:47.685,1.0,-203.0,-98.0,158.0,270.0,313.0,153,120,159,72,54
2025-03-17 18:33:47.710,-205.0,-124.0,-239.0,177.0,184.0,323.0,163,109,164,74,67
2025-03-17 18:33:47.733,-330.0,53.0,-36.0,208.0,100.0,295.0,169,108,166,76,79
2025-03-17 18:33:47.758,-307.0,179.0,51.0,181.0,49.0,285.0,167,89,161,57,76
2025-03-17 18:33:47.783,-481.0,465.0,131.0,96.0,10.0,278.0,162,63,146,61,75
2025-03-17 18:33:47.805,-704.0,825.0,-30.0,36.0,-105.0,275.0,157,54,131,78,99
2025-03-17 18:33:47.822,-628.0,1866.0,-510.0,160.0,-183.0,107.0,153,52,125,82,116
2025-03-17 18:33:47.856,-1353.0,3439.0,-73.0,175.0,-198.0,-136.0,149,48,121,75,124
2025-03-17 18:33:47.877,-1658.0,3856.0,-357.0,142.0,-275.0,-357.0,143,41,122,67,130
2025-03-17 18:33:47.902,-768.0,3481.0,-251.0,81.0,-442.0,-557.0,144,43,125,75,133
2025-03-17 18:33:47.926,1875.0,779.0,987.0,-1.0,-458.0,-541.0,142,47,126,69,135
2025-03-17 18:33:47.951,3369.0,-2344.0,2120.0,31.0,-303.0,-330.0,137,27,128,47,136
2025-03-17 18:33:47.976,2629.0,-3250.0,2165.0,-12.0,-70.0,-37.0,138,44,126,51,135
2025-03-17 18:33:48.000,1937.0,-2428.0,2254.0,-116.0,104.0,127.0,148,60,144,83,152
2025-03-17 18:33:48.024,750.0,-1155.0,1088.0,5.0,114.0,217.0,130,45,128,66,137
2025-03-17 18:33:48.045,62.0,-335.0,950.0,12.0,103.0,231.0,131,48,133,84,140
2025-03-17 18:33:48.070,-322.0,549.0,983.0,-3.0,93.0,208.0,134,49,135,86,140
2025-03-17 18:33:48.094,-471.0,901.0,938.0,20.0,83.0,139.0,140,54,139,85,144
2025-03-17 18:33:48.119,-588.0,1033.0,850.0,53.0,60.0,98.0,141,56,142,89,147
2025-03-17 18:33:48.143,-613.0,997.0,674.0,28.0,47.0,59.0,151,60,148,89,154
2025-03-17 18:33:48.167,-474.0,815.0,635.0,35.0,58.0,35.0,147,56,146,88,150
2025-03-17 18:33:48.188,-452.0,889.0,527.0,53.0,47.0,23.0,143,56,142,86,147
2025-03-17 18:33:48.211,-686.0,1310.0,462.0,14.0,2.0,-3.0,142,51,137,80,142
2025-03-17 18:33:48.235,-1026.0,1961.0,347.0,-11.0,-25.0,-62.0,139,47,137,79,141
2025-03-17 18:33:48.263,-1560.0,2452.0,-74.0,-28.0,-45.0,-208.0,139,47,135,77,140
2025-03-17 18:33:48.287,-1007.0,1733.0,-362.0,-28.0,-126.0,-320.0,135,47,133,78,138
2025-03-17 18:33:48.311,809.0,-356.0,374.0,37.0,-202.0,-321.0,146,49,139,78,146
2025-03-17 18:33:48.336,2177.0,-2014.0,1661.0,35.0,-210.0,-149.0,157,59,145,91,151
2025-03-17 18:33:48.360,2337.0,-2219.0,2926.0,-10.0,-28.0,36.0,157,61,146,86,151
2025-03-17 18:33:48.382,1441.0,-1566.0,2210.0,38.0,174.0,116.0,156,59,143,88,149
2025-03-17 18:33:48.406,-65.0,-74.0,1254.0,-58.0,137.0,150.0,155,60,143,89,149
2025-03-17 18:33:48.430,-334.0,263.0,1332.0,-73.0,80.0,145.0,146,53,134,81,137
2025-03-17 18:33:48.454,-544.0,718.0,1406.0,-75.0,85.0,119.0,150,51,135,77,140
2025-03-17 18:33:48.479,-642.0,907.0,1278.0,-108.0,113.0,86.0,150,51,136,78,140
2025-03-17 18:33:48.503,-681.0,867.0,1155.0,-116.0,137.0,64.0,152,53,138,88,134
2025-03-17 18:33:48.526,-440.0,512.0,834.0,-153.0,161.0,36.0,158,58,144,93,121
2025-03-17 18:33:48.550,-490.0,659.0,1078.0,-200.0,220.0,22.0,172,75,159,90,105
2025-03-17 18:33:48.574,-334.0,567.0,1051.0,-248.0,280.0,7.0,165,74,156,76,92
2025-03-17 18:33:48.598,-125.0,423.0,875.0,-266.0,342.0,-6.0,161,71,150,68,87
2025-03-17 18:33:48.623,-324.0,228.0,374.0,-303.0,388.0,17.0,164,71,144,77,81
2025-03-17 18:33:48.647,-287.0,383.0,-269.0,-325.0,332.0,73.0,145,58,129,42,60
2025-03-17 18:33:48.672,-447.0,1076.0,-1173.0,-277.0,196.0,53.0,140,51,127,53,52
2025-03-17 18:33:48.696,-314.0,2061.0,-2904.0,-62.0,85.0,-115.0,144,57,127,65,47
2025-03-17 18:33:48.721,-1682.0,3423.0,-4521.0,127.0,-369.0,-575.0,139,55,130,64,54
2025-03-17 18:33:48.742,627.0,3905.0,-4173.0,161.0,-1036.0,-955.0,131,52,131,92,61
2025-03-17 18:33:48.766,8712.0,1535.0,-2328.0,-187.0,-1685.0,-853.0,126,50,123,87,52
2025-03-17 18:33:48.790,10583.0,-8459.0,6108.0,-115.0,-159.0,33.0,124,52,128,42,52
2025-03-17 18:33:48.815,2007.0,-4617.0,-756.0,124.0,659.0,81.0,113,55,124,53,47
2025-03-17 18:33:48.840,-3196.0,-1731.0,-623.0,-366.0,13.0,101.0,106,42,113,77,40
2025-03-17 18:33:48.864,1582.0,-2916.0,1977.0,83.0,-43.0,175.0,117,55,121,83,49
2025-03-17 18:33:48.884,712.0,-1758.0,1180.0,38.0,282.0,273.0,113,51,117,79,45
2025-03-17 18:33:48.909,-46.0,-803.0,344.0,-182.0,286.0,297.0,119,56,128,76,54
2025-03-17 18:33:48.934,-22.0,-577.0,275.0,-55.0,93.0,299.0,117,52,120,77,49
2025-03-17 18:33:48.956,402.0,-505.0,739.0,-6.0,146.0,320.0,128,59,127,70,56
2025-03-17 18:33:48.982,-91.0,-362.0,236.0,-38.0,266.0,359.0,128,62,135,23,63
2025-03-17 18:33:49.008,-280.0,-168.0,-344.0,-45.0,220.0,319.0,146,73,144,36,72
2025-03-17 18:33:49.029,54.0,9.0,227.0,100.0,179.0,287.0,150,58,142,32,71
2025-03-17 18:33:49.046,-189.0,141.0,42.0,132.0,206.0,267.0,141,60,129,18,58
2025-03-17 18:33:49.078,-582.0,930.0,-733.0,124.0,141.0,305.0,141,55,127,16,54
2025-03-17 18:33:49.102,-280.0,2666.0,-1619.0,268.0,-38.0,163.0,134,52,123,49,53
2025-03-17 18:33:49.127,-1419.0,5082.0,-3036.0,339.0,-268.0,-441.0,133,47,130,76,56
2025-03-17 18:33:49.152,-507.0,4383.0,-3554.0,-35.0,-845.0,-1074.0,125,62,137,78,68
2025-03-17 18:33:49.176,8049.0,301.0,-985.0,-147.0,-1417.0,-1085.0,126,62,138,89,69
2025-03-17 18:33:49.200,8109.0,-9415.0,5660.0,-18.0,-13.0,32.0,123,52,135,26,65
2025-03-17 18:33:49.224,1312.0,-1119.0,-677.0,195.0,485.0,117.0,125,72,141,70,69
2025-03-17 18:33:49.246,-2193.0,-1834.0,-1254.0,-386.0,14.0,-14.0,142,78,151,109,81
2025-03-17 18:33:49.270,320.0,-1513.0,910.0,359.0,-69.0,46.0,126,66,138,95,65
2025-03-17 18:33:49.294,-88.0,-724.0,1091.0,65.0,68.0,13.0,126,66,135,94,65
2025-03-17 18:33:49.319,-120.0,-802.0,814.0,-113.0,137.0,1.0,110,62,132,91,60
2025-03-17 18:33:49.344,-125.0,-840.0,420.0,-33.0,87.0,18.0,134,70,142,102,71
2025-03-17 18:33:49.368,-42.0,-897.0,433.0,103.0,-10.0,18.0,113,62,129,90,60
2025-03-17 18:33:49.389,-66.0,-621.0,637.0,25.0,9.0,12.0,129,65,130,97,67
2025-03-17 18:33:49.410,-51.0,-776.0,658.0,-19.0,21.0,13.0,132,66,142,94,72
2025-03-17 18:33:49.438,-223.0,-643.0,625.0,-22.0,22.0,4.0,122,63,130,88,59
2025-03-17 18:33:49.459,-98.0,-643.0,673.0,-5.0,0.0,-1.0,115,56,124,82,51
2025-03-17 18:33:49.487,-25.0,-839.0,723.0,-4.0,4.0,7.0,111,46,121,81,50
2025-03-17 18:33:49.511,-109.0,-736.0,644.0,-1.0,24.0,17.0,109,48,121,80,51
2025-03-17 18:33:49.536,-232.0,-544.0,572.0,-18.0,13.0,-1.0,114,52,124,83,52
2025-03-17 18:33:49.556,-93.0,-766.0,696.0,-7.0,-12.0,-7.0,115,66,133,91,63
2025-03-17 18:33:49.582,5.0,-919.0,831.0,7.0,12.0,6.0,114,60,128,83,58
2025-03-17 18:33:49.606,-129.0,-743.0,654.0,13.0,18.0,9.0,121,58,129,83,60
2025-03-17 18:33:49.629,-159.0,-749.0,655.0,-15.0,4.0,-2.0,122,57,132,83,59
2025-03-17 18:33:49.653,-186.0,-807.0,619.0,3.0,-3.0,1.0,110,49,117,78,48
2025-03-17 18:33:49.679,-84.0,-759.0,708.0,13.0,3.0,2.0,112,53,120,79,51
2025-03-17 18:33:49.703,-113.0,-769.0,737.0,-10.0,12.0,1.0,112,53,122,80,52
2025-03-17 18:33:49.725,-157.0,-810.0,670.0,-25.0,27.0,3.0,113,53,120,78,49
2025-03-17 18:33:49.749,-171.0,-769.0,590.0,-7.0,23.0,4.0,115,56,122,82,53
2025-03-17 18:33:49.774,-186.0,-736.0,561.0,2.0,-6.0,-1.0,131,71,139,100,71
2025-03-17 18:33:49.799,-43.0,-879.0,695.0,-9.0,5.0,4.0,141,85,157,117,90
2025-03-17 18:33:49.822,-113.0,-784.0,616.0,-7.0,25.0,11.0,128,70,137,98,70
2025-03-17 18:33:49.847,-193.0,-761.0,543.0,10.0,19.0,9.0,125,67,133,91,65
2025-03-17 18:33:49.871,-94.0,-824.0,628.0,-22.0,28.0,4.0,129,70,135,97,67
2025-03-17 18:33:49.896,-104.0,-815.0,664.0,12.0,19.0,16.0,125,67,133,90,63
2025-03-17 18:33:49.918,-218.0,-665.0,659.0,23.0,13.0,13.0,117,60,127,78,58
2025-03-17 18:33:49.941,-298.0,-631.0,582.0,9.0,4.0,-2.0,128,69,135,94,66
2025-03-17 18:33:49.966,-137.0,-815.0,646.0,-12.0,2.0,-5.0,127,68,135,94,66
2025-03-17 18:33:49.990,-158.0,-771.0,682.0,12.0,8.0,2.0,125,66,131,82,66
2025-03-17 18:33:50.015,-220.0,-721.0,587.0,-5.0,3.0,-1.0,122,60,129,67,62
2025-03-17 18:33:50.040,-176.0,-814.0,631.0,1.0,2.0,1.0,129,70,137,83,70
2025-03-17 18:33:50.052,-157.0,-792.0,720.0,4.0,18.0,8.0,123,62,129,76,59
2025-03-17 18:33:50.082,-290.0,-650.0,681.0,4.0,7.0,2.0,128,67,136,90,66
2025-03-17 18:33:50.109,-235.0,-757.0,695.0,-11.0,4.0,-4.0,120,57,126,84,57
2025-03-17 18:33:50.135,-182.0,-803.0,636.0,-4.0,9.0,0.0,112,50,119,70,49
2025-03-17 18:33:50.158,-173.0,-827.0,645.0,14.0,14.0,10.0,117,57,124,75,55
2025-03-17 18:33:50.183,-237.0,-728.0,670.0,16.0,10.0,11.0,120,60,128,84,58
2025-03-17 18:33:50.206,-217.0,-760.0,685.0,8.0,9.0,7.0,121,61,127,77,58
2025-03-17 18:33:50.228,-259.0,-711.0,605.0,2.0,4.0,4.0,121,60,125,76,58
2025-03-17 18:33:50.254,-269.0,-723.0,633.0,5.0,0.0,1.0,119,59,125,74,55
2025-03-17 18:33:50.278,-223.0,-758.0,710.0,0.0,-1.0,2.0,112,51,119,69,50
2025-03-17 18:33:50.301,-206.0,-775.0,657.0,-2.0,6.0,4.0,111,51,118,63,49
2025-03-17 18:33:50.326,-253.0,-739.0,597.0,-3.0,2.0,4.0,113,53,118,70,50
2025-03-17 18:33:50.351,-256.0,-712.0,647.0,-2.0,-4.0,3.0,118,57,126,75,58
2025-03-17 18:33:50.376,-236.0,-716.0,679.0,-3.0,-4.0,1.0,118,57,125,81,56
2025-03-17 18:33:50.399,-254.0,-748.0,662.0,-9.0,-3.0,-2.0,119,57,126,78,56
2025-03-17 18:33:50.421,-234.0,-758.0,647.0,-2.0,0.0,1.0,120,60,127,85,58
2025-03-17 18:33:50.445,-247.0,-739.0,662.0,1.0,-2.0,2.0,121,60,126,83,59
2025-03-17 18:33:50.470,-233.0,-752.0,669.0,-4.0,-5.0,1.0,111,49,117,72,47
2025-03-17 18:33:50.494,-246.0,-705.0,651.0,1.0,-3.0,1.0,115,52,121,75,51
2025-03-17 18:33:50.519,-243.0,-757.0,675.0,0.0,-1.0,-1.0,114,53,121,76,51
2025-03-17 18:33:50.544,-221.0,-772.0,675.0,-4.0,-2.0,1.0,114,54,120,77,51
2025-03-17 18:33:50.568,-245.0,-743.0,644.0,-4.0,-1.0,2.0,118,56,122,79,55
2025-03-17 18:33:50.589,-265.0,-754.0,636.0,-4.0,-2.0,2.0,121,61,129,84,58
2025-03-17 18:33:50.614,-241.0,-735.0,664.0,4.0,3.0,2.0,122,61,128,86,58
2025-03-17 18:33:50.638,-257.0,-711.0,650.0,0.0,1.0,-1.0,120,59,126,82,57
2025-03-17 18:33:50.663,-243.0,-753.0,652.0,-6.0,-4.0,-3.0,119,58,125,81,55
2025-03-17 18:33:50.687,-227.0,-801.0,659.0,-1.0,-2.0,2.0,114,53,120,76,50
2025-03-17 18:33:50.711,-236.0,-713.0,654.0,6.0,1.0,2.0,112,51,118,73,49
2025-03-17 18:33:50.736,-247.0,-719.0,658.0,-1.0,-2.0,-2.0,115,53,120,78,52
2025-03-17 18:33:50.757,-245.0,-750.0,659.0,-2.0,1.0,-1.0,118,57,123,81,56
2025-03-17 18:33:50.782,-239.0,-742.0,657.0,3.0,1.0,2.0,119,57,124,83,57
2025-03-17 18:33:50.804,-241.0,-712.0,662.0,2.0,0.0,0.0,121,60,127,84,57
2025-03-17 18:33:50.821,-248.0,-721.0,643.0,-2.0,-2.0,-2.0,119,59,127,83,57
2025-03-17 18:33:50.853,-250.0,-736.0,636.0,1.0,1.0,-2.0,120,59,125,83,57
2025-03-17 18:33:50.879,-228.0,-730.0,672.0,-1.0,0.0,-2.0,113,51,119,75,48
2025-03-17 18:33:50.901,-221.0,-745.0,650.0,-2.0,2.0,-1.0,115,53,120,77,50
2025-03-17 18:33:50.925,-257.0,-743.0,644.0,-4.0,-1.0,-3.0,115,53,120,78,52
2025-03-17 18:33:50.950,-217.0,-795.0,670.0,1.0,5.0,2.0,115,53,120,78,51
2025-03-17 18:33:50.974,-242.0,-754.0,640.0,1.0,1.0,5.0,119,57,124,81,55
2025-03-17 18:33:50.999,-288.0,-706.0,626.0,-1.0,-6.0,1.0,121,60,127,85,59
2025-03-17 18:33:51.023,-258.0,-752.0,696.0,0.0,-4.0,0.0,121,60,127,85,58
2025-03-17 18:33:51.047,-257.0,-730.0,689.0,3.0,1.0,2.0,122,62,128,85,58
2025-03-17 18:33:51.071,-258.0,-722.0,658.0,0.0,0.0,0.0,122,60,130,85,53
2025-03-17 18:33:51.093,-281.0,-725.0,652.0,0.0,-3.0,-2.0,115,53,121,78,50
2025-03-17 18:33:51.117,-248.0,-775.0,698.0,1.0,-3.0,1.0,113,51,118,75,51
2025-03-17 18:33:51.142,-249.0,-727.0,686.0,0.0,0.0,2.0,114,52,121,78,51
2025-03-17 18:33:51.167,-254.0,-724.0,675.0,-2.0,2.0,1.0,119,57,125,83,57
2025-03-17 18:33:51.191,-271.0,-713.0,662.0,-1.0,0.0,-1.0,118,57,123,82,55
2025-03-17 18:33:51.215,-240.0,-743.0,687.0,-1.0,0.0,0.0,121,59,127,82,57
2025-03-17 18:33:51.240,-254.0,-718.0,655.0,-1.0,0.0,0.0,122,60,128,86,58
2025-03-17 18:33:51.261,-256.0,-734.0,666.0,-5.0,-1.0,-2.0,120,58,126,83,57
2025-03-17 18:33:51.285,-243.0,-773.0,670.0,-4.0,0.0,0.0,114,51,120,76,49
2025-03-17 18:33:51.308,-255.0,-721.0,653.0,-2.0,-1.0,1.0,115,53,122,77,51
2025-03-17 18:33:51.333,-258.0,-717.0,642.0,-1.0,0.0,0.0,114,52,120,77,51
2025-03-17 18:33:51.359,-238.0,-756.0,656.0,-2.0,0.0,0.0,115,52,120,79,52
2025-03-17 18:33:51.383,-259.0,-722.0,669.0,3.0,0.0,3.0,118,56,124,82,54
2025-03-17 18:33:51.405,-282.0,-680.0,658.0,-3.0,-4.0,-2.0,120,58,126,84,57
2025-03-17 18:33:51.429,-234.0,-769.0,670.0,-3.0,1.0,-1.0,122,60,124,83,56
2025-03-17 18:33:51.453,-256.0,-715.0,649.0,2.0,1.0,0.0,124,59,128,86,60
2025-03-17 18:33:51.478,-255.0,-725.0,669.0,-2.0,-1.0,-2.0,121,58,125,82,56
2025-03-17 18:33:51.503,-241.0,-764.0,668.0,-5.0,1.0,-1.0,115,52,121,79,50
2025-03-17 18:33:51.526,-263.0,-743.0,628.0,1.0,0.0,1.0,112,51,119,77,48
2025-03-17 18:33:51.551,-236.0,-745.0,682.0,0.0,-3.0,0.0,115,52,121,78,52
2025-03-17 18:33:51.575,-272.0,-716.0,672.0,0.0,0.0,0.0,118,56,125,83,55
2025-03-17 18:33:51.598,-266.0,-730.0,661.0,-3.0,-3.0,-2.0,120,59,125,83,55
2025-03-17 18:33:51.621,-256.0,-762.0,664.0,1.0,0.0,0.0,122,61,128,81,59
2025-03-17 18:33:51.646,-249.0,-749.0,669.0,3.0,0.0,2.0,123,61,128,85,59
2025-03-17 18:33:51.670,-265.0,-719.0,668.0,1.0,0.0,2.0,123,61,128,86,58
2025-03-17 18:33:51.695,-267.0,-696.0,675.0,-1.0,-1.0,1.0,113,51,118,77,49
2025-03-17 18:33:51.719,-264.0,-712.0,659.0,0.0,3.0,-2.0,116,53,122,79,51
2025-03-17 18:33:51.744,-269.0,-721.0,649.0,-1.0,0.0,-2.0,115,52,120,78,51
2025-03-17 18:33:51.767,-215.0,-774.0,687.0,-2.0,-1.0,1.0,116,59,122,79,52
2025-03-17 18:33:51.789,-275.0,-715.0,666.0,4.0,2.0,3.0,115,57,125,82,56
2025-03-17 18:33:51.814,-301.0,-659.0,654.0,1.0,-1.0,-3.0,122,60,127,85,58
2025-03-17 18:33:51.838,-240.0,-768.0,695.0,-4.0,-2.0,-3.0,121,58,126,84,58
2025-03-17 18:33:51.863,-252.0,-763.0,665.0,5.0,3.0,3.0,123,61,128,86,60
2025-03-17 18:33:51.887,-284.0,-677.0,665.0,1.0,-1.0,-1.0,122,59,127,85,57
2025-03-17 18:33:51.911,-266.0,-719.0,669.0,-8.0,-3.0,-5.0,116,57,120,79,53
2025-03-17 18:33:51.932,-232.0,-808.0,671.0,-4.0,0.0,0.0,113,51,119,76,50
2025-03-17 18:33:51.956,-254.0,-747.0,657.0,3.0,1.0,3.0,116,53,122,78,52
2025-03-17 18:33:51.981,-288.0,-700.0,663.0,0.0,-2.0,1.0,119,57,125,82,55
2025-03-17 18:33:52.006,-284.0,-707.0,674.0,-5.0,-4.0,-3.0,120,57,124,81,56
2025-03-17 18:33:52.030,-232.0,-778.0,694.0,-2.0,1.0,0.0,121,60,128,85,59
2025-03-17 18:33:52.055,-248.0,-755.0,661.0,0.0,1.0,3.0,124,61,128,85,59
2025-03-17 18:33:52.079,-264.0,-727.0,665.0,-1.0,0.0,2.0,123,60,128,86,59
2025-03-17 18:33:52.102,-288.0,-695.0,666.0,-2.0,-2.0,0.0,115,51,119,77,50
2025-03-17 18:33:52.125,-247.0,-757.0,690.0,0.0,0.0,1.0,115,52,121,78,51
2025-03-17 18:33:52.149,-267.0,-725.0,666.0,-1.0,0.0,3.0,113,53,120,77,51
2025-03-17 18:33:52.174,-276.0,-697.0,673.0,0.0,1.0,0.0,116,53,121,79,53
2025-03-17 18:33:52.197,-270.0,-714.0,663.0,-3.0,-1.0,-2.0,121,58,125,83,55
2025-03-17 18:33:52.222,-257.0,-767.0,662.0,-1.0,-1.0,1.0,123,60,128,86,60
2025-03-17 18:33:52.247,-268.0,-704.0,679.0,1.0,0.0,2.0,124,61,128,86,59
2025-03-17 18:33:52.272,-287.0,-689.0,675.0,1.0,1.0,0.0,123,61,125,86,60
2025-03-17 18:33:52.293,-270.0,-734.0,681.0,-4.0,-1.0,-2.0,122,58,126,83,56
2025-03-17 18:33:52.318,-258.0,-743.0,659.0,-3.0,0.0,1.0,114,51,119,80,49
2025-03-17 18:33:52.341,-279.0,-706.0,671.0,0.0,0.0,2.0,114,51,119,77,50
2025-03-17 18:33:52.354,-293.0,-678.0,671.0,-1.0,1.0,-2.0,117,53,121,78,51
2025-03-17 18:33:52.391,-260.0,-750.0,674.0,-6.0,0.0,-2.0,120,57,124,83,56
2025-03-17 18:33:52.416,-257.0,-773.0,659.0,0.0,2.0,3.0,119,57,125,83,56
2025-03-17 18:33:52.440,-285.0,-694.0,646.0,3.0,0.0,3.0,123,60,127,86,59
2025-03-17 18:33:52.461,-291.0,-680.0,672.0,-4.0,-3.0,-2.0,122,59,124,84,58
2025-03-17 18:33:52.485,-252.0,-760.0,708.0,-5.0,1.0,-2.0,120,59,126,84,58
2025-03-17 18:33:52.510,-274.0,-734.0,653.0,0.0,3.0,3.0,116,53,121,80,51
2025-03-17 18:33:52.534,-313.0,-667.0,631.0,5.0,1.0,1.0,117,53,121,78,52
2025-03-17 18:33:52.555,-295.0,-704.0,680.0,-4.0,-4.0,-4.0,117,53,121,78,52
