timestamp,ax,ay,az,gx,gy,gz,flex1,flex2,flex3,flex4,flex5,emg1,emg2,emg3
2025-03-17 18:24:23.460,-368.0,-453.0,842.0,-1.0,-1.0,0.0,143,88,144,100,102
2025-03-17 18:24:23.466,-373.0,-459.0,832.0,1.0,-3.0,1.0,146,91,148,106,104
2025-03-17 18:24:23.466,-367.0,-458.0,847.0,4.0,-4.0,1.0,146,92,149,106,104
2025-03-17 18:24:23.472,-371.0,-444.0,871.0,5.0,-3.0,1.0,147,93,149,106,105
2025-03-17 18:24:23.472,-354.0,-452.0,867.0,4.0,-1.0,0.0,145,92,149,105,106
2025-03-17 18:24:23.472,-352.0,-442.0,855.0,0.0,0.0,-1.0,146,92,148,106,104
2025-03-17 18:24:23.478,-349.0,-454.0,845.0,-2.0,0.0,-1.0,144,89,145,101,101
2025-03-17 18:24:23.480,-343.0,-459.0,838.0,-2.0,-1.0,0.0,148,87,146,103,102
2025-03-17 18:24:23.482,-347.0,-462.0,839.0,0.0,-2.0,0.0,144,90,147,102,102
2025-03-17 18:24:23.484,-346.0,-455.0,859.0,2.0,-2.0,1.0,144,88,147,103,102
2025-03-17 18:24:23.486,-354.0,-440.0,857.0,1.0,-2.0,1.0,145,91,148,104,104
2025-03-17 18:24:23.488,-350.0,-444.0,853.0,0.0,-2.0,1.0,146,92,148,106,106
2025-03-17 18:24:23.490,-359.0,-443.0,853.0,0.0,-3.0,1.0,147,91,148,106,105
2025-03-17 18:24:23.491,-368.0,-447.0,837.0,2.0,-4.0,2.0,148,92,149,106,105
2025-03-17 18:24:23.491,-367.0,-442.0,867.0,5.0,-4.0,2.0,145,90,147,102,102
2025-03-17 18:24:23.496,-362.0,-437.0,882.0,7.0,-3.0,2.0,144,91,146,102,104
2025-03-17 18:24:23.499,-355.0,-423.0,883.0,2.0,-1.0,1.0,144,89,145,102,101
2025-03-17 18:24:23.501,-349.0,-436.0,886.0,-3.0,0.0,0.0,144,91,146,103,102
2025-03-17 18:24:23.503,-348.0,-448.0,860.0,-3.0,1.0,0.0,144,91,148,107,106
2025-03-17 18:24:23.505,-346.0,-445.0,851.0,-2.0,0.0,1.0,147,92,148,105,106
2025-03-17 18:24:23.527,-343.0,-440.0,850.0,-1.0,-1.0,1.0,146,91,149,106,104
2025-03-17 18:24:23.551,-343.0,-437.0,861.0,0.0,-1.0,2.0,148,92,148,105,105
2025-03-17 18:24:23.575,-338.0,-425.0,872.0,0.0,-1.0,2.0,147,93,149,106,105
2025-03-17 18:24:23.600,-343.0,-417.0,869.0,-5.0,-1.0,2.0,143,87,144,102,101
2025-03-17 18:24:23.624,-353.0,-409.0,870.0,-10.0,0.0,1.0,143,87,145,102,102
2025-03-17 18:24:23.648,-373.0,-426.0,857.0,-13.0,0.0,-1.0,144,89,146,102,103
2025-03-17 18:24:23.669,-381.0,-437.0,849.0,-8.0,0.0,-1.0,144,88,146,103,102
2025-03-17 18:24:23.691,-381.0,-432.0,841.0,-2.0,0.0,-2.0,146,91,147,102,103
2025-03-17 18:24:23.718,-371.0,-434.0,853.0,1.0,0.0,-3.0,147,92,149,105,106
2025-03-17 18:24:23.743,-360.0,-431.0,854.0,-2.0,-1.0,-4.0,148,91,148,105,105
2025-03-17 18:24:23.766,-352.0,-458.0,855.0,-2.0,0.0,-5.0,144,92,151,104,105
2025-03-17 18:24:23.792,-344.0,-457.0,856.0,0.0,2.0,-4.0,144,87,146,103,103
2025-03-17 18:24:23.814,-355.0,-457.0,851.0,0.0,1.0,-5.0,145,89,146,103,103
2025-03-17 18:24:23.837,-349.0,-446.0,862.0,0.0,1.0,-4.0,144,87,145,102,102
2025-03-17 18:24:23.861,-357.0,-445.0,843.0,-3.0,1.0,-4.0,145,87,146,104,103
2025-03-17 18:24:23.887,-370.0,-471.0,836.0,-3.0,-1.0,-3.0,147,91,148,110,105
2025-03-17 18:24:23.910,-371.0,-464.0,848.0,3.0,-2.0,-2.0,146,90,148,103,105
2025-03-17 18:24:23.935,-372.0,-455.0,860.0,6.0,-3.0,-1.0,147,91,148,105,106
2025-03-17 18:24:23.959,-369.0,-455.0,861.0,7.0,-3.0,-2.0,146,91,148,104,105
2025-03-17 18:24:23.983,-353.0,-439.0,880.0,10.0,-3.0,-1.0,147,88,143,105,103
2025-03-17 18:24:24.006,-349.0,-437.0,891.0,9.0,-1.0,-3.0,143,85,145,101,100
2025-03-17 18:24:24.027,-343.0,-443.0,889.0,8.0,1.0,-2.0,144,87,146,101,96
2025-03-17 18:24:24.054,-341.0,-440.0,871.0,11.0,2.0,0.0,144,87,146,104,98
2025-03-17 18:24:24.066,-355.0,-436.0,863.0,12.0,2.0,1.0,144,88,146,103,105
2025-03-17 18:24:24.099,-347.0,-427.0,861.0,12.0,4.0,2.0,146,95,147,103,107
2025-03-17 18:24:24.127,-366.0,-407.0,834.0,11.0,4.0,1.0,147,94,149,106,111
2025-03-17 18:24:24.139,-369.0,-407.0,822.0,11.0,1.0,0.0,147,91,149,105,108
2025-03-17 18:24:24.176,-364.0,-408.0,833.0,14.0,-2.0,0.0,145,91,149,106,109
2025-03-17 18:24:24.197,-370.0,-408.0,858.0,13.0,-3.0,0.0,145,87,146,102,106
2025-03-17 18:24:24.218,-375.0,-403.0,867.0,11.0,-3.0,-1.0,144,90,147,103,106
2025-03-17 18:24:24.244,-371.0,-401.0,884.0,9.0,-5.0,0.0,143,87,145,102,105
2025-03-17 18:24:24.266,-359.0,-397.0,899.0,4.0,-3.0,-1.0,143,90,145,103,106
2025-03-17 18:24:24.296,-355.0,-402.0,888.0,1.0,-2.0,-2.0,146,90,148,105,108
2025-03-17 18:24:24.315,-352.0,-409.0,877.0,-1.0,-2.0,-1.0,146,88,147,104,107
2025-03-17 18:24:24.344,-347.0,-410.0,893.0,1.0,-3.0,0.0,143,90,150,105,108
2025-03-17 18:24:24.365,-351.0,-407.0,900.0,2.0,-1.0,0.0,146,88,149,105,109
2025-03-17 18:24:24.390,-353.0,-398.0,919.0,-2.0,-1.0,1.0,147,92,148,105,108
2025-03-17 18:24:24.413,-341.0,-404.0,913.0,-1.0,-1.0,1.0,142,87,144,100,104
2025-03-17 18:24:24.439,-353.0,-392.0,881.0,-2.0,0.0,1.0,142,88,145,101,104
2025-03-17 18:24:24.463,-358.0,-382.0,889.0,-3.0,-1.0,0.0,143,88,145,103,104
2025-03-17 18:24:24.478,-349.0,-381.0,909.0,-3.0,0.0,0.0,145,88,146,101,105
2025-03-17 18:24:24.512,-360.0,-373.0,901.0,-2.0,3.0,0.0,144,88,147,104,107
2025-03-17 18:24:24.527,-367.0,-365.0,886.0,-5.0,2.0,-2.0,146,90,148,105,108
2025-03-17 18:24:24.558,-357.0,-375.0,882.0,-8.0,2.0,-3.0,145,89,148,104,108
2025-03-17 18:24:24.583,-347.0,-393.0,865.0,-7.0,3.0,-2.0,145,90,147,104,108
2025-03-17 18:24:24.607,-351.0,-373.0,889.0,-7.0,3.0,-1.0,144,89,146,102,106
2025-03-17 18:24:24.631,-353.0,-379.0,852.0,-3.0,2.0,-1.0,144,87,145,103,106
2025-03-17 18:24:24.656,-373.0,-361.0,834.0,-6.0,-1.0,-4.0,143,87,145,102,106
2025-03-17 18:24:24.680,-370.0,-394.0,854.0,-1.0,-4.0,-3.0,144,88,146,102,105
2025-03-17 18:24:24.702,-378.0,-386.0,865.0,4.0,-5.0,-3.0,146,90,149,104,108
2025-03-17 18:24:24.716,-382.0,-380.0,892.0,2.0,-6.0,-3.0,146,89,147,104,108
2025-03-17 18:24:24.751,-383.0,-382.0,886.0,0.0,-5.0,-3.0,146,89,148,104,108
2025-03-17 18:24:24.775,-380.0,-381.0,880.0,2.0,-5.0,-4.0,145,92,148,105,108
2025-03-17 18:24:24.799,-378.0,-380.0,904.0,3.0,-4.0,-6.0,146,92,148,105,108
2025-03-17 18:24:24.824,-369.0,-366.0,909.0,0.0,-1.0,-8.0,142,88,144,101,104
2025-03-17 18:24:24.848,-359.0,-366.0,869.0,-5.0,1.0,-11.0,143,90,145,102,105
2025-03-17 18:24:24.868,-359.0,-372.0,849.0,-6.0,2.0,-13.0,145,90,146,103,108
2025-03-17 18:24:24.893,-347.0,-363.0,846.0,-10.0,1.0,-18.0,145,91,146,103,111
2025-03-17 18:24:24.918,-335.0,-413.0,841.0,-12.0,3.0,-20.0,147,90,148,104,109
2025-03-17 18:24:24.943,-324.0,-432.0,859.0,-13.0,1.0,-21.0,150,92,150,106,110
2025-03-17 18:24:24.966,-309.0,-449.0,883.0,-16.0,2.0,-21.0,148,94,151,109,112
2025-03-17 18:24:24.988,-308.0,-455.0,878.0,-16.0,4.0,-21.0,150,94,153,110,112
2025-03-17 18:24:25.016,-303.0,-498.0,881.0,-13.0,5.0,-18.0,150,95,151,109,112
2025-03-17 18:24:25.036,-304.0,-489.0,918.0,-7.0,7.0,-15.0,147,91,150,105,109
2025-03-17 18:24:25.062,-306.0,-445.0,901.0,-12.0,10.0,-15.0,146,92,146,103,108
2025-03-17 18:24:25.086,-321.0,-459.0,863.0,-17.0,10.0,-14.0,147,91,148,105,108
2025-03-17 18:24:25.111,-322.0,-449.0,858.0,-14.0,10.0,-15.0,153,96,152,110,113
2025-03-17 18:24:25.135,-335.0,-432.0,853.0,-12.0,6.0,-16.0,153,97,150,108,110
2025-03-17 18:24:25.160,-341.0,-445.0,849.0,-14.0,6.0,-19.0,158,102,161,117,115
2025-03-17 18:24:25.184,-354.0,-456.0,818.0,-12.0,4.0,-19.0,150,95,153,109,108
2025-03-17 18:24:25.208,-341.0,-512.0,803.0,-6.0,0.0,-17.0,156,101,157,113,111
2025-03-17 18:24:25.230,-359.0,-487.0,866.0,-3.0,0.0,-18.0,147,90,148,105,100
2025-03-17 18:24:25.254,-356.0,-492.0,889.0,-3.0,2.0,-18.0,149,95,147,107,105
2025-03-17 18:24:25.279,-354.0,-477.0,854.0,-2.0,6.0,-20.0,158,100,159,117,114
2025-03-17 18:24:25.303,-355.0,-488.0,849.0,-11.0,8.0,-23.0,153,98,153,111,110
2025-03-17 18:24:25.328,-359.0,-557.0,827.0,-13.0,8.0,-20.0,161,105,161,119,118
2025-03-17 18:24:25.352,-338.0,-582.0,821.0,-2.0,8.0,-16.0,167,112,167,125,128
2025-03-17 18:24:25.377,-295.0,-661.0,775.0,14.0,10.0,-7.0,172,116,173,132,133
2025-03-17 18:24:25.395,-300.0,-584.0,798.0,33.0,12.0,1.0,169,117,171,129,134
2025-03-17 18:24:25.417,-313.0,-492.0,805.0,31.0,4.0,2.0,157,104,157,116,119
2025-03-17 18:24:25.447,-306.0,-501.0,827.0,21.0,2.0,1.0,149,94,149,108,110
2025-03-17 18:24:25.471,-299.0,-518.0,835.0,26.0,3.0,3.0,150,94,150,107,111
2025-03-17 18:24:25.496,-304.0,-485.0,841.0,31.0,3.0,5.0,152,100,152,110,112
2025-03-17 18:24:25.520,-336.0,-449.0,845.0,18.0,0.0,1.0,159,107,160,118,120
2025-03-17 18:24:25.545,-334.0,-482.0,866.0,12.0,1.0,3.0,161,107,161,120,124
2025-03-17 18:24:25.565,-333.0,-452.0,862.0,10.0,1.0,3.0,162,111,164,122,124
2025-03-17 18:24:25.590,-340.0,-451.0,852.0,8.0,0.0,3.0,168,118,170,129,131
2025-03-17 18:24:25.614,-336.0,-454.0,846.0,10.0,2.0,5.0,170,120,172,129,130
2025-03-17 18:24:25.639,-342.0,-427.0,835.0,12.0,1.0,6.0,148,97,149,106,107
2025-03-17 18:24:25.664,-371.0,-370.0,803.0,-1.0,-3.0,1.0,153,102,153,110,111
2025-03-17 18:24:25.688,-342.0,-433.0,879.0,-4.0,-2.0,0.0,152,102,153,110,108
2025-03-17 18:24:25.712,-342.0,-442.0,856.0,-4.0,-2.0,1.0,151,102,155,112,111
2025-03-17 18:24:25.733,-347.0,-444.0,863.0,-6.0,-2.0,1.0,158,110,161,121,118
2025-03-17 18:24:25.759,-338.0,-447.0,871.0,-12.0,-1.0,1.0,165,117,168,127,124
2025-03-17 18:24:25.783,-338.0,-447.0,847.0,-16.0,0.0,2.0,164,116,168,127,125
2025-03-17 18:24:25.806,-375.0,-388.0,823.0,-23.0,0.0,1.0,166,116,167,126,125
2025-03-17 18:24:25.832,-473.0,-90.0,737.0,-60.0,-6.0,-17.0,164,112,164,121,119
2025-03-17 18:24:25.856,-498.0,72.0,558.0,-100.0,-24.0,-47.0,155,95,156,111,106
2025-03-17 18:24:25.881,-637.0,-158.0,506.0,-115.0,-67.0,-79.0,151,73,146,100,98
2025-03-17 18:24:25.901,-112.0,-807.0,1140.0,-134.0,-3.0,-44.0,154,66,142,101,77
2025-03-17 18:24:25.926,9.0,-1659.0,1820.0,-219.0,109.0,19.0,160,67,141,92,77
2025-03-17 18:24:25.950,169.0,-1947.0,1684.0,-319.0,217.0,96.0,163,65,137,80,69
2025-03-17 18:24:25.975,-45.0,-1727.0,787.0,-289.0,233.0,120.0,164,64,134,95,68
2025-03-17 18:24:26.000,-37.0,-1575.0,403.0,-205.0,252.0,166.0,166,60,131,93,66
2025-03-17 18:24:26.024,-598.0,-644.0,-284.0,-138.0,187.0,185.0,147,59,125,93,61
2025-03-17 18:24:26.048,-481.0,-18.0,177.0,-81.0,95.0,150.0,129,42,108,73,44
2025-03-17 18:24:26.068,-294.0,330.0,13.0,-46.0,169.0,114.0,140,46,109,74,45
2025-03-17 18:24:26.092,-793.0,913.0,-254.0,-4.0,109.0,97.0,135,44,106,51,44
2025-03-17 18:24:26.116,-717.0,2603.0,-535.0,174.0,16.0,0.0,137,43,108,62,44
2025-03-17 18:24:26.143,-1450.0,6099.0,-1458.0,235.0,-81.0,-377.0,138,44,109,65,45
2025-03-17 18:24:26.168,-584.0,3835.0,-1878.0,28.0,-362.0,-891.0,132,41,108,68,48
2025-03-17 18:24:26.192,4357.0,909.0,-1424.0,-88.0,-831.0,-1254.0,116,43,108,70,49
2025-03-17 18:24:26.216,8656.0,-7905.0,2507.0,-311.0,-47.0,-278.0,124,42,110,63,45
2025-03-17 18:24:26.236,2375.0,-6060.0,-171.0,45.0,174.0,174.0,139,42,108,68,49
2025-03-17 18:24:26.261,1575.0,-625.0,-65.0,65.0,47.0,218.0,135,38,105,60,48
2025-03-17 18:24:26.284,691.0,-2248.0,568.0,-48.0,8.0,258.0,139,37,108,62,46
2025-03-17 18:24:26.311,513.0,-1678.0,121.0,-13.0,88.0,378.0,137,34,108,49,44
2025-03-17 18:24:26.335,-144.0,-359.0,-171.0,-28.0,33.0,391.0,133,39,110,66,47
2025-03-17 18:24:26.360,-153.0,242.0,394.0,1.0,-41.0,313.0,138,40,107,63,45
2025-03-17 18:24:26.384,-143.0,-118.0,463.0,-11.0,40.0,254.0,139,42,109,62,45
2025-03-17 18:24:26.406,-527.0,159.0,897.0,31.0,114.0,196.0,132,38,110,65,46
2025-03-17 18:24:26.430,-212.0,-132.0,316.0,119.0,92.0,234.0,124,42,112,67,47
2025-03-17 18:24:26.454,-633.0,900.0,-358.0,276.0,71.0,263.0,134,40,110,65,45
2025-03-17 18:24:26.479,-1255.0,4894.0,-1193.0,495.0,52.0,-202.0,139,41,110,65,44
2025-03-17 18:24:26.503,-1561.0,4983.0,-1957.0,57.0,-271.0,-893.0,137,42,109,65,45
2025-03-17 18:24:26.528,5550.0,665.0,-2509.0,-197.0,-1016.0,-1330.0,125,37,108,64,46
2025-03-17 18:24:26.552,8972.0,-11560.0,3667.0,-147.0,222.0,128.0,134,39,109,66,47
2025-03-17 18:24:26.576,1926.0,-2868.0,38.0,-126.0,432.0,277.0,139,31,109,56,46
2025-03-17 18:24:26.598,426.0,-2360.0,-714.0,-237.0,-200.0,186.0,144,38,110,69,48
2025-03-17 18:24:26.622,602.0,-1963.0,368.0,40.0,15.0,363.0,129,40,108,69,50
2025-03-17 18:24:26.644,20.0,-79.0,345.0,-97.0,91.0,321.0,126,42,111,68,48
2025-03-17 18:24:26.672,-550.0,42.0,-205.0,-144.0,18.0,262.0,144,34,111,69,48
2025-03-17 18:24:26.684,-324.0,-122.0,134.0,-157.0,-36.0,208.0,143,41,112,68,49
2025-03-17 18:24:26.716,-280.0,-343.0,268.0,-96.0,31.0,197.0,142,39,113,67,48
2025-03-17 18:24:26.741,-470.0,-55.0,149.0,10.0,-14.0,260.0,142,45,113,66,48
2025-03-17 18:24:26.767,-356.0,344.0,95.0,57.0,19.0,223.0,144,43,114,68,47
2025-03-17 18:24:26.790,-445.0,-250.0,491.0,154.0,34.0,230.0,143,39,115,69,47
2025-03-17 18:24:26.815,-483.0,1197.0,497.0,293.0,102.0,169.0,142,41,115,69,46
2025-03-17 18:24:26.839,-1618.0,4725.0,-1230.0,314.0,135.0,-198.0,144,38,114,69,47
2025-03-17 18:24:26.864,-2199.0,4666.0,-2855.0,-47.0,-384.0,-795.0,140,37,112,68,47
2025-03-17 18:24:26.888,3514.0,1677.0,-2031.0,-231.0,-854.0,-1056.0,143,39,112,64,48
2025-03-17 18:24:26.909,7926.0,-5989.0,2056.0,-357.0,-568.0,-445.0,142,34,113,71,49
2025-03-17 18:24:26.934,3738.0,-7178.0,-485.0,-43.0,198.0,-10.0,133,38,110,62,50
2025-03-17 18:24:26.958,787.0,-968.0,-1262.0,-118.0,220.0,170.0,145,37,112,71,53
2025-03-17 18:24:26.982,900.0,-1993.0,84.0,113.0,-12.0,183.0,141,39,113,71,52
2025-03-17 18:24:27.007,357.0,-1733.0,35.0,17.0,150.0,247.0,145,38,114,71,51
2025-03-17 18:24:27.032,33.0,-972.0,-233.0,-82.0,120.0,351.0,142,42,106,71,50
2025-03-17 18:24:27.056,300.0,-345.0,485.0,119.0,80.0,219.0,147,41,112,74,49
2025-03-17 18:24:27.081,-147.0,-144.0,205.0,50.0,160.0,234.0,143,40,113,72,47
2025-03-17 18:24:27.102,-360.0,-465.0,-548.0,-25.0,114.0,264.0,142,41,112,71,41
2025-03-17 18:24:27.127,-88.0,-153.0,285.0,106.0,57.0,182.0,134,41,113,73,40
2025-03-17 18:24:27.151,147.0,-452.0,392.0,118.0,166.0,233.0,147,42,115,74,47
2025-03-17 18:24:27.176,-495.0,-69.0,-103.0,64.0,163.0,260.0,148,41,114,75,48
2025-03-17 18:24:27.200,-489.0,209.0,69.0,140.0,60.0,200.0,147,42,114,80,48
2025-03-17 18:24:27.224,-506.0,1195.0,265.0,199.0,109.0,147.0,147,40,112,75,50
2025-03-17 18:24:27.249,-1904.0,3523.0,-1138.0,265.0,54.0,-155.0,146,42,114,76,50
2025-03-17 18:24:27.272,-1836.0,3587.0,-2085.0,66.0,-294.0,-726.0,143,40,113,73,48
2025-03-17 18:24:27.294,2061.0,2730.0,-3459.0,-181.0,-935.0,-1207.0,143,38,113,67,50
2025-03-17 18:24:27.316,9780.0,-7229.0,1596.0,-767.0,-578.0,-441.0,142,39,113,72,48
2025-03-17 18:24:27.344,4364.0,-7739.0,-366.0,185.0,269.0,102.0,137,31,110,58,47
2025-03-17 18:24:27.368,-66.0,671.0,-2105.0,-318.0,189.0,223.0,144,37,112,71,49
2025-03-17 18:24:27.392,1123.0,-2953.0,-141.0,87.0,-226.0,175.0,140,42,114,75,49
2025-03-17 18:24:27.417,460.0,-1742.0,185.0,28.0,85.0,305.0,140,40,112,75,49
2025-03-17 18:24:27.437,16.0,-967.0,-27.0,-100.0,52.0,366.0,148,39,114,70,50
2025-03-17 18:24:27.462,67.0,-725.0,164.0,-30.0,-3.0,359.0,151,39,114,80,49
2025-03-17 18:24:27.487,649.0,-849.0,557.0,29.0,105.0,389.0,146,32,114,70,47
2025-03-17 18:24:27.509,187.0,-536.0,-229.0,79.0,243.0,475.0,139,41,116,69,48
2025-03-17 18:24:27.536,109.0,496.0,-216.0,115.0,284.0,460.0,146,40,120,71,48
2025-03-17 18:24:27.560,-480.0,1514.0,-698.0,227.0,92.0,311.0,138,46,122,70,53
2025-03-17 18:24:27.571,-503.0,195.0,-94.0,269.0,168.0,291.0,131,48,132,67,48
2025-03-17 18:24:27.605,-692.0,650.0,-430.0,213.0,112.0,318.0,121,55,141,71,72
2025-03-17 18:24:27.630,-587.0,1945.0,-872.0,165.0,-92.0,140.0,124,65,143,84,83
2025-03-17 18:24:27.655,-685.0,2965.0,-1422.0,137.0,-303.0,-222.0,125,72,144,88,79
2025-03-17 18:24:27.679,-321.0,2831.0,-724.0,89.0,-395.0,-659.0,122,63,144,87,92
2025-03-17 18:24:27.703,849.0,1132.0,-909.0,-171.0,-721.0,-1026.0,122,53,144,92,97
2025-03-17 18:24:27.728,5257.0,-3289.0,246.0,-475.0,-1123.0,-695.0,124,86,145,97,104
2025-03-17 18:24:27.739,4354.0,-6743.0,11.0,-586.0,-622.0,-78.0,136,88,146,98,108
2025-03-17 18:24:27.777,2330.0,-5432.0,-1867.0,-560.0,-57.0,207.0,128,94,146,99,110
2025-03-17 18:24:27.795,-377.0,-1168.0,-1576.0,385.0,-194.0,146.0,131,84,148,99,119
2025-03-17 18:24:27.823,-213.0,-843.0,-643.0,379.0,-186.0,260.0,135,102,147,99,118
2025-03-17 18:24:27.847,194.0,-1426.0,171.0,-150.0,80.0,301.0,133,100,147,101,117
2025-03-17 18:24:27.872,469.0,-1218.0,-125.0,-423.0,485.0,369.0,140,93,147,102,116
2025-03-17 18:24:27.896,-429.0,333.0,-876.0,356.0,97.0,274.0,143,97,147,102,116
2025-03-17 18:24:27.921,-258.0,190.0,-189.0,256.0,244.0,233.0,142,84,147,100,115
2025-03-17 18:24:27.942,81.0,-67.0,892.0,-64.0,113.0,290.0,141,69,146,100,110
2025-03-17 18:24:27.966,-58.0,-817.0,-456.0,106.0,75.0,227.0,141,91,147,100,110
2025-03-17 18:24:27.990,-144.0,-256.0,279.0,170.0,141.0,243.0,124,97,147,102,111
2025-03-17 18:24:28.015,-537.0,-91.0,-258.0,71.0,-2.0,205.0,129,89,148,102,112
2025-03-17 18:24:28.039,-410.0,52.0,325.0,85.0,3.0,194.0,139,94,148,103,111
2025-03-17 18:24:28.064,-559.0,1049.0,324.0,146.0,67.0,185.0,140,93,147,103,111
2025-03-17 18:24:28.087,-636.0,2677.0,-533.0,198.0,-54.0,-84.0,136,84,146,101,110
2025-03-17 18:24:28.113,-827.0,3439.0,-996.0,174.0,-213.0,-634.0,137,93,147,104,112
2025-03-17 18:24:28.134,448.0,1664.0,-1077.0,-32.0,-500.0,-979.0,130,84,147,101,112
2025-03-17 18:24:28.158,5165.0,-3401.0,1572.0,-492.0,-871.0,-690.0,140,101,147,103,114
2025-03-17 18:24:28.186,2843.0,-6620.0,-1303.0,-417.0,-377.0,-185.0,138,96,148,104,117
2025-03-17 18:24:28.211,1665.0,-4343.0,-1667.0,-378.0,-226.0,165.0,133,102,146,105,121
2025-03-17 18:24:28.235,880.0,-2403.0,-355.0,356.0,1.0,231.0,142,99,148,105,123
2025-03-17 18:24:28.257,-15.0,-1279.0,70.0,175.0,93.0,258.0,144,100,148,104,123
2025-03-17 18:24:28.282,-215.0,-1309.0,16.0,2.0,107.0,268.0,140,97,149,104,122
2025-03-17 18:24:28.306,201.0,-960.0,-40.0,-220.0,353.0,290.0,132,94,146,104,119
2025-03-17 18:24:28.330,-234.0,-865.0,-150.0,38.0,322.0,372.0,143,88,146,103,116
2025-03-17 18:24:28.355,-171.0,-524.0,175.0,215.0,188.0,365.0,144,84,147,103,112
2025-03-17 18:24:28.376,19.0,-406.0,-242.0,89.0,245.0,402.0,128,74,146,100,101
2025-03-17 18:24:28.404,-831.0,1303.0,68.0,100.0,140.0,269.0,113,68,146,89,85
2025-03-17 18:24:28.425,-563.0,332.0,65.0,176.0,56.0,195.0,141,59,144,90,71
2025-03-17 18:24:28.449,-501.0,401.0,-157.0,126.0,-36.0,141.0,141,57,140,91,59
2025-03-17 18:24:28.474,-438.0,452.0,-137.0,239.0,-74.0,160.0,140,49,137,84,56
2025-03-17 18:24:28.498,-544.0,1732.0,95.0,396.0,97.0,12.0,136,41,132,76,39
2025-03-17 18:24:28.514,-520.0,3054.0,-1046.0,375.0,-125.0,-394.0,132,41,122,71,41
2025-03-17 18:24:28.545,-564.0,3337.0,-1678.0,-40.0,-404.0,-811.0,135,35,116,63,40
2025-03-17 18:24:28.572,2222.0,987.0,-2243.0,-354.0,-679.0,-1052.0,137,30,110,60,39
2025-03-17 18:24:28.596,6104.0,-2969.0,-679.0,-560.0,-754.0,-787.0,138,33,111,62,42
2025-03-17 18:24:28.618,5511.0,-6788.0,575.0,-416.0,-130.0,-176.0,143,37,112,59,41
2025-03-17 18:24:28.642,1834.0,-5052.0,-2017.0,169.0,412.0,163.0,144,36,112,54,41
2025-03-17 18:24:28.660,135.0,-2736.0,-981.0,260.0,-38.0,232.0,146,36,114,61,44
2025-03-17 18:24:28.691,352.0,-1993.0,-214.0,18.0,23.0,242.0,138,36,114,48,44
2025-03-17 18:24:28.709,350.0,-1581.0,20.0,-17.0,110.0,311.0,147,41,114,55,42
2025-03-17 18:24:28.739,299.0,-861.0,84.0,23.0,128.0,337.0,140,37,114,63,43
2025-03-17 18:24:28.760,-88.0,-254.0,219.0,69.0,68.0,305.0,147,35,114,64,43
2025-03-17 18:24:28.784,-267.0,-15.0,-1.0,24.0,80.0,268.0,126,39,117,68,45
2025-03-17 18:24:28.810,349.0,-717.0,-69.0,-70.0,122.0,269.0,127,39,116,66,44
2025-03-17 18:24:28.833,-470.0,-287.0,-107.0,19.0,125.0,242.0,144,38,117,67,43
2025-03-17 18:24:28.858,-415.0,40.0,78.0,56.0,113.0,214.0,143,36,116,67,44
2025-03-17 18:24:28.883,-739.0,466.0,153.0,25.0,98.0,145.0,143,39,117,68,44
2025-03-17 18:24:28.902,-696.0,678.0,165.0,72.0,86.0,73.0,141,37,116,67,42
2025-03-17 18:24:28.932,-1152.0,2528.0,-249.0,208.0,86.0,-115.0,140,38,122,66,39
2025-03-17 18:24:28.953,-1605.0,3026.0,-1175.0,96.0,-57.0,-485.0,134,39,116,66,42
2025-03-17 18:24:28.977,-106.0,3643.0,-1367.0,-70.0,-398.0,-917.0,135,35,116,66,33
2025-03-17 18:24:29.003,5426.0,250.0,-581.0,-511.0,-575.0,-958.0,143,37,115,65,44
2025-03-17 18:24:29.026,5541.0,-8229.0,-546.0,-409.0,-85.0,-317.0,141,33,118,67,43
2025-03-17 18:24:29.050,2867.0,-4550.0,-2131.0,243.0,258.0,229.0,139,35,114,47,45
2025-03-17 18:24:29.075,577.0,289.0,-2245.0,155.0,30.0,196.0,147,34,117,56,44
2025-03-17 18:24:29.097,248.0,-1694.0,-459.0,10.0,-47.0,186.0,143,38,116,62,46
2025-03-17 18:24:29.117,32.0,-1766.0,82.0,-84.0,-32.0,309.0,145,39,116,56,47
2025-03-17 18:24:29.145,277.0,-1448.0,-87.0,9.0,47.0,344.0,143,38,117,64,46
2025-03-17 18:24:29.170,273.0,-762.0,-196.0,107.0,54.0,335.0,152,36,121,69,47
2025-03-17 18:24:29.194,239.0,-702.0,-149.0,65.0,86.0,346.0,147,43,123,75,47
2025-03-17 18:24:29.219,-16.0,-526.0,-195.0,4.0,187.0,344.0,131,44,126,77,48
2025-03-17 18:24:29.244,-361.0,-417.0,-171.0,199.0,35.0,376.0,136,47,128,78,47
2025-03-17 18:24:29.263,-235.0,-56.0,-311.0,385.0,13.0,354.0,136,52,134,78,45
2025-03-17 18:24:29.290,-265.0,786.0,-158.0,376.0,59.0,333.0,131,56,141,78,45
2025-03-17 18:24:29.314,-404.0,975.0,-472.0,312.0,68.0,296.0,128,66,142,68,42
2025-03-17 18:24:29.338,-995.0,2597.0,-966.0,222.0,-38.0,21.0,133,67,144,63,46
2025-03-17 18:24:29.363,-888.0,2749.0,-1161.0,145.0,-182.0,-366.0,129,74,145,75,42
2025-03-17 18:24:29.386,-775.0,2333.0,-1187.0,124.0,-445.0,-725.0,117,56,146,78,41
2025-03-17 18:24:29.411,1708.0,1994.0,-1206.0,-95.0,-846.0,-977.0,98,79,146,80,43
2025-03-17 18:24:29.436,5075.0,-2017.0,-167.0,-332.0,-899.0,-815.0,96,97,148,84,45
2025-03-17 18:24:29.458,5299.0,-5322.0,916.0,-245.0,-409.0,-164.0,108,107,148,83,46
2025-03-17 18:24:29.482,3513.0,-4005.0,1201.0,218.0,218.0,156.0,109,96,149,71,46
2025-03-17 18:24:29.502,533.0,-1396.0,-65.0,97.0,173.0,270.0,110,109,150,81,43
2025-03-17 18:24:29.530,388.0,-1252.0,439.0,-58.0,45.0,294.0,115,109,149,81,47
2025-03-17 18:24:29.554,498.0,-1399.0,679.0,-27.0,121.0,293.0,118,109,148,79,45
2025-03-17 18:24:29.577,134.0,-896.0,392.0,52.0,179.0,352.0,118,110,148,80,47
2025-03-17 18:24:29.604,-55.0,-286.0,495.0,28.0,158.0,351.0,119,110,149,81,45
2025-03-17 18:24:29.625,-268.0,-107.0,332.0,17.0,141.0,312.0,120,108,150,79,48
2025-03-17 18:24:29.649,-229.0,-286.0,35.0,13.0,139.0,271.0,116,109,150,82,49
2025-03-17 18:24:29.675,-355.0,-15.0,97.0,81.0,105.0,191.0,116,91,149,82,46
2025-03-17 18:24:29.698,-577.0,82.0,91.0,21.0,80.0,116.0,119,83,149,76,47
2025-03-17 18:24:29.722,-344.0,-219.0,132.0,7.0,84.0,84.0,120,91,148,80,46
2025-03-17 18:24:29.746,-411.0,-298.0,171.0,108.0,89.0,111.0,122,81,149,80,46
2025-03-17 18:24:29.771,-522.0,487.0,110.0,114.0,109.0,130.0,124,84,146,78,46
2025-03-17 18:24:29.787,-766.0,1292.0,-455.0,95.0,51.0,77.0,124,97,149,79,46
2025-03-17 18:24:29.817,-1411.0,2370.0,-1310.0,194.0,-107.0,-189.0,124,101,149,81,44
2025-03-17 18:24:29.842,-1383.0,3142.0,-1424.0,117.0,-427.0,-669.0,124,97,149,83,47
2025-03-17 18:24:29.866,3012.0,2844.0,-1384.0,-259.0,-940.0,-1031.0,118,102,150,83,48
2025-03-17 18:24:29.891,5718.0,-3820.0,2354.0,-442.0,-487.0,-729.0,122,112,150,64,51
2025-03-17 18:24:29.915,4847.0,-7031.0,555.0,62.0,38.0,91.0,114,107,150,71,51
2025-03-17 18:24:29.940,876.0,-1419.0,-191.0,31.0,66.0,132.0,114,111,149,80,50
2025-03-17 18:24:29.957,714.0,-2436.0,665.0,-64.0,-71.0,148.0,116,112,149,85,52
2025-03-17 18:24:29.986,590.0,-1650.0,669.0,39.0,62.0,207.0,124,113,148,88,54
2025-03-17 18:24:30.010,108.0,-1327.0,823.0,-38.0,129.0,283.0,132,112,149,88,59
2025-03-17 18:24:30.032,125.0,-896.0,713.0,-140.0,146.0,345.0,135,114,148,78,61
2025-03-17 18:24:30.057,43.0,-781.0,500.0,-92.0,128.0,326.0,137,112,148,72,61
2025-03-17 18:24:30.083,222.0,-681.0,361.0,-75.0,175.0,350.0,137,108,149,78,62
2025-03-17 18:24:30.108,-17.0,-335.0,-78.0,-157.0,168.0,368.0,133,96,148,87,59
2025-03-17 18:24:30.129,-306.0,-221.0,-27.0,-108.0,97.0,341.0,131,79,146,63,60
2025-03-17 18:24:30.152,-379.0,99.0,66.0,-43.0,112.0,246.0,131,67,144,61,59
2025-03-17 18:24:30.178,-592.0,455.0,158.0,72.0,117.0,182.0,129,50,137,63,55
2025-03-17 18:24:30.202,-656.0,1090.0,263.0,42.0,141.0,99.0,136,40,124,71,50
2025-03-17 18:24:30.224,-903.0,2186.0,-111.0,274.0,88.0,-76.0,138,40,121,62,43
2025-03-17 18:24:30.251,-958.0,3058.0,-1013.0,220.0,-125.0,-402.0,124,37,119,54,46
2025-03-17 18:24:30.276,160.0,2212.0,-1154.0,-35.0,-265.0,-680.0,127,36,116,59,45
2025-03-17 18:24:30.290,1078.0,1345.0,-1070.0,-160.0,-474.0,-825.0,137,30,115,81,49
2025-03-17 18:24:30.322,3950.0,-1818.0,-757.0,-260.0,-567.0,-687.0,97,33,114,81,49
2025-03-17 18:24:30.338,5102.0,-5384.0,1051.0,-265.0,-145.0,-303.0,135,34,114,78,50
2025-03-17 18:24:30.369,1645.0,-4635.0,-1714.0,111.0,290.0,50.0,144,28,115,51,42
2025-03-17 18:24:30.395,417.0,-2140.0,-872.0,167.0,-35.0,133.0,143,33,118,67,51
2025-03-17 18:24:30.419,742.0,-2247.0,13.0,-45.0,33.0,173.0,137,31,119,84,51
2025-03-17 18:24:30.435,672.0,-2147.0,193.0,-20.0,24.0,248.0,146,35,119,86,49
2025-03-17 18:24:30.465,360.0,-970.0,110.0,66.0,66.0,248.0,129,30,120,85,47
2025-03-17 18:24:30.489,-42.0,-652.0,-82.0,10.0,-5.0,246.0,144,37,121,86,50
2025-03-17 18:24:30.514,156.0,-608.0,-132.0,-122.0,59.0,271.0,128,36,118,87,49
2025-03-17 18:24:30.538,282.0,-537.0,375.0,-33.0,12.0,257.0,135,37,117,84,48
2025-03-17 18:24:30.563,-128.0,-175.0,156.0,6.0,108.0,229.0,141,38,119,84,48
2025-03-17 18:24:30.587,-410.0,234.0,33.0,-18.0,108.0,169.0,143,38,119,83,49
2025-03-17 18:24:30.612,-654.0,122.0,418.0,-52.0,63.0,116.0,143,39,119,84,48
2025-03-17 18:24:30.633,-343.0,-162.0,303.0,-15.0,62.0,102.0,142,39,118,82,49
2025-03-17 18:24:30.657,-417.0,71.0,316.0,99.0,69.0,110.0,144,40,120,78,49
2025-03-17 18:24:30.681,-770.0,1538.0,461.0,185.0,125.0,4.0,142,38,121,87,44
2025-03-17 18:24:30.702,-1967.0,3256.0,-934.0,205.0,68.0,-264.0,144,36,121,86,48
2025-03-17 18:24:30.731,-1162.0,3363.0,-1234.0,1.0,-198.0,-693.0,143,30,121,88,48
2025-03-17 18:24:30.755,2914.0,108.0,-1513.0,-318.0,-479.0,-932.0,141,35,121,88,49
2025-03-17 18:24:30.779,5805.0,-5866.0,-834.0,-656.0,-475.0,-467.0,130,39,121,91,43
2025-03-17 18:24:30.804,3984.0,-7400.0,-1181.0,239.0,178.0,160.0,133,36,121,71,49
2025-03-17 18:24:30.826,382.0,622.0,-2543.0,333.0,233.0,186.0,143,40,121,78,53
2025-03-17 18:24:30.849,-267.0,-937.0,-1255.0,13.0,-56.0,86.0,140,40,122,88,49
2025-03-17 18:24:30.874,387.0,-1959.0,128.0,-63.0,-10.0,96.0,118,37,119,72,51
2025-03-17 18:24:30.899,633.0,-1937.0,-224.0,64.0,166.0,192.0,129,45,124,73,48
2025-03-17 18:24:30.923,513.0,-1152.0,-215.0,120.0,40.0,292.0,140,40,122,79,52
2025-03-17 18:24:30.947,552.0,-947.0,11.0,-42.0,83.0,310.0,139,38,122,83,52
2025-03-17 18:24:30.971,341.0,-521.0,-30.0,-148.0,94.0,343.0,133,41,123,80,50
2025-03-17 18:24:30.992,-199.0,-375.0,45.0,-21.0,4.0,341.0,134,38,123,63,55
2025-03-17 18:24:31.017,-73.0,-463.0,268.0,77.0,38.0,333.0,137,41,121,55,55
2025-03-17 18:24:31.042,68.0,-405.0,95.0,18.0,119.0,343.0,139,40,121,70,55
2025-03-17 18:24:31.066,-744.0,453.0,32.0,111.0,72.0,341.0,136,41,117,66,51
2025-03-17 18:24:31.091,-747.0,1392.0,-240.0,250.0,38.0,253.0,122,38,113,62,45
2025-03-17 18:24:31.115,-505.0,2804.0,-1007.0,495.0,19.0,-8.0,104,42,110,63,44
2025-03-17 18:24:31.132,-1167.0,4416.0,-2470.0,320.0,-181.0,-522.0,85,37,106,60,40
2025-03-17 18:24:31.162,-526.0,2715.0,-2169.0,163.0,-636.0,-970.0,83,32,101,57,42
2025-03-17 18:24:31.186,6679.0,1730.0,2198.0,-235.0,-827.0,-1024.0,80,36,102,56,43
2025-03-17 18:24:31.199,5918.0,-8856.0,990.0,-434.0,-258.0,-309.0,79,29,100,60,42
2025-03-17 18:24:31.235,3031.0,-4428.0,-461.0,160.0,361.0,193.0,83,38,99,58,43
2025-03-17 18:24:31.259,-620.0,-1318.0,-4132.0,347.0,-177.0,64.0,87,45,100,40,45
2025-03-17 18:24:31.283,1108.0,-2531.0,591.0,-28.0,-29.0,178.0,85,37,103,63,46
2025-03-17 18:24:31.307,511.0,-1503.0,471.0,-79.0,58.0,272.0,71,42,103,61,47
2025-03-17 18:24:31.328,87.0,-682.0,243.0,-119.0,57.0,279.0,84,43,103,63,45
2025-03-17 18:24:31.353,29.0,-718.0,205.0,-8.0,-24.0,220.0,88,41,102,51,45
2025-03-17 18:24:31.377,0.0,-581.0,258.0,-103.0,8.0,199.0,89,42,104,65,44
2025-03-17 18:24:31.402,192.0,-867.0,143.0,-106.0,85.0,244.0,89,41,106,64,44
2025-03-17 18:24:31.427,-138.0,-571.0,-21.0,-3.0,58.0,258.0,88,29,108,59,45
2025-03-17 18:24:31.450,-173.0,-348.0,30.0,50.0,66.0,239.0,90,42,107,65,45
2025-03-17 18:24:31.472,-471.0,-26.0,86.0,19.0,97.0,226.0,85,40,110,65,47
2025-03-17 18:24:31.497,-737.0,459.0,119.0,17.0,48.0,202.0,86,38,111,67,45
2025-03-17 18:24:31.522,-821.0,792.0,73.0,142.0,67.0,152.0,93,40,111,67,47
2025-03-17 18:24:31.546,-1109.0,2724.0,-480.0,336.0,102.0,-79.0,94,43,111,67,47
2025-03-17 18:24:31.571,-1169.0,3222.0,-960.0,147.0,-85.0,-538.0,92,39,108,66,47
2025-03-17 18:24:31.595,19.0,1600.0,-1350.0,116.0,-381.0,-917.0,92,39,108,66,45
2025-03-17 18:24:31.618,4597.0,-1579.0,-184.0,137.0,-796.0,-836.0,92,34,108,65,45
2025-03-17 18:24:31.643,5473.0,-7094.0,2764.0,-78.0,77.0,-43.0,94,38,109,65,49
2025-03-17 18:24:31.665,2078.0,-3033.0,540.0,1.0,509.0,223.0,94,40,109,58,47
2025-03-17 18:24:31.689,4.0,-1416.0,-1163.0,54.0,-4.0,201.0,97,43,109,66,51
2025-03-17 18:24:31.714,435.0,-2335.0,510.0,21.0,57.0,272.0,98,43,111,67,51
2025-03-17 18:24:31.738,-53.0,-1418.0,478.0,-118.0,149.0,350.0,104,45,111,54,51
2025-03-17 18:24:31.763,165.0,-619.0,250.0,-21.0,141.0,334.0,115,39,111,62,48
2025-03-17 18:24:31.787,13.0,-603.0,353.0,71.0,192.0,330.0,124,41,114,66,46
2025-03-17 18:24:31.812,-10.0,174.0,53.0,36.0,211.0,320.0,116,37,115,64,42
2025-03-17 18:24:31.833,-507.0,-310.0,-263.0,80.0,164.0,317.0,136,42,117,65,48
2025-03-17 18:24:31.855,-100.0,-532.0,-298.0,190.0,150.0,334.0,138,47,116,67,49
2025-03-17 18:24:31.881,-184.0,281.0,-745.0,329.0,140.0,320.0,140,55,120,71,49
2025-03-17 18:24:31.905,-542.0,557.0,-1025.0,267.0,16.0,245.0,132,58,116,69,46
2025-03-17 18:24:31.931,-1275.0,1026.0,-1520.0,391.0,-166.0,54.0,132,59,109,67,46
2025-03-17 18:24:31.955,-1067.0,2169.0,-3687.0,420.0,-670.0,-280.0,107,65,107,54,47
2025-03-17 18:24:31.980,1704.0,1212.0,-2741.0,355.0,-1212.0,-336.0,96,68,104,55,47
2025-03-17 18:24:32.004,4246.0,-167.0,1112.0,513.0,-1105.0,-170.0,92,70,103,62,48
2025-03-17 18:24:32.026,3262.0,1056.0,5096.0,407.0,-442.0,-87.0,103,71,105,62,50
2025-03-17 18:24:32.050,2119.0,496.0,4070.0,19.0,59.0,-12.0,97,79,105,62,51
2025-03-17 18:24:32.074,1229.0,102.0,2770.0,-65.0,146.0,44.0,97,83,107,56,51
2025-03-17 18:24:32.099,911.0,544.0,2310.0,-199.0,312.0,57.0,99,82,107,63,50
2025-03-17 18:24:32.123,429.0,-110.0,1216.0,-142.0,341.0,74.0,100,78,108,63,52
2025-03-17 18:24:32.147,144.0,175.0,1150.0,-118.0,285.0,52.0,101,86,108,64,51
2025-03-17 18:24:32.169,177.0,33.0,1125.0,-161.0,331.0,55.0,99,86,105,63,49
2025-03-17 18:24:32.193,120.0,-71.0,764.0,-182.0,387.0,112.0,102,83,107,63,47
2025-03-17 18:24:32.218,-160.0,-136.0,154.0,-80.0,312.0,82.0,100,86,108,63,47
2025-03-17 18:24:32.242,-80.0,268.0,441.0,-122.0,324.0,57.0,99,83,108,62,48
2025-03-17 18:24:32.266,-161.0,33.0,192.0,-189.0,315.0,61.0,103,84,110,62,48
2025-03-17 18:24:32.291,-407.0,-197.0,-247.0,-145.0,229.0,90.0,105,82,111,65,50
2025-03-17 18:24:32.316,-738.0,-243.0,21.0,-79.0,221.0,95.0,105,78,110,65,49
2025-03-17 18:24:32.335,-773.0,207.0,-118.0,22.0,161.0,52.0,105,76,111,64,49
2025-03-17 18:24:32.359,-906.0,701.0,-1706.0,66.0,8.0,11.0,103,76,112,64,49
2025-03-17 18:24:32.386,-2043.0,924.0,-3543.0,232.0,-428.0,-227.0,94,74,108,62,46
2025-03-17 18:24:32.410,327.0,1334.0,-4300.0,468.0,-1174.0,-331.0,86,71,108,64,47
2025-03-17 18:24:32.435,5472.0,1011.0,304.0,413.0,-1415.0,-138.0,93,81,108,64,50
2025-03-17 18:24:32.459,4668.0,318.0,6704.0,128.0,-372.0,82.0,103,87,110,64,51
2025-03-17 18:24:32.483,2486.0,-609.0,3867.0,-113.0,98.0,-15.0,98,87,110,63,52
2025-03-17 18:24:32.503,571.0,-367.0,2854.0,-151.0,97.0,18.0,99,88,111,67,52
2025-03-17 18:24:32.527,684.0,-631.0,2233.0,-242.0,208.0,104.0,105,89,112,68,53
2025-03-17 18:24:32.552,380.0,-469.0,1492.0,-293.0,268.0,154.0,110,93,112,68,55
2025-03-17 18:24:32.578,427.0,-736.0,1388.0,-246.0,310.0,218.0,106,92,110,66,51
2025-03-17 18:24:32.600,804.0,-124.0,1473.0,-298.0,398.0,232.0,103,92,110,65,50
2025-03-17 18:24:32.627,577.0,-206.0,641.0,-315.0,471.0,248.0,104,91,110,63,50
2025-03-17 18:24:32.648,670.0,-641.0,57.0,-288.0,438.0,279.0,111,92,113,54,50
2025-03-17 18:24:32.666,180.0,-198.0,-48.0,-272.0,459.0,310.0,115,90,121,65,51
2025-03-17 18:24:32.697,-397.0,125.0,-776.0,-96.0,363.0,278.0,117,83,126,71,54
2025-03-17 18:24:32.722,-503.0,482.0,-869.0,-28.0,252.0,197.0,116,79,130,63,57
2025-03-17 18:24:32.744,-649.0,688.0,-766.0,126.0,113.0,166.0,105,82,132,74,68
2025-03-17 18:24:32.770,-339.0,1096.0,-1261.0,26.0,-100.0,31.0,99,81,140,70,75
2025-03-17 18:24:32.795,-643.0,1755.0,-1699.0,28.0,-253.0,-167.0,97,67,142,83,85
2025-03-17 18:24:32.819,-561.0,2424.0,-1940.0,-59.0,-481.0,-548.0,96,72,143,87,71
2025-03-17 18:24:32.844,488.0,1765.0,-797.0,-113.0,-599.0,-848.0,95,81,146,88,87
2025-03-17 18:24:32.868,4064.0,-1636.0,278.0,-319.0,-839.0,-775.0,89,89,146,94,102
2025-03-17 18:24:32.890,3639.0,-5444.0,830.0,-490.0,-632.0,-348.0,98,102,147,96,106
2025-03-17 18:24:32.913,2243.0,-6531.0,-798.0,-428.0,-187.0,165.0,95,108,149,94,111
2025-03-17 18:24:32.926,169.0,-2303.0,-1965.0,-148.0,520.0,433.0,112,109,149,96,116
2025-03-17 18:24:32.963,-118.0,-1300.0,-481.0,449.0,-186.0,207.0,104,110,150,98,118
2025-03-17 18:24:32.987,-157.0,-1073.0,416.0,-27.0,-78.0,208.0,115,108,147,97,117
2025-03-17 18:24:33.012,-163.0,-1207.0,198.0,-382.0,184.0,250.0,106,106,149,97,117
2025-03-17 18:24:33.030,-105.0,-1170.0,242.0,28.0,95.0,280.0,104,107,148,96,117
2025-03-17 18:24:33.047,-137.0,-237.0,277.0,237.0,155.0,243.0,113,108,148,97,114
2025-03-17 18:24:33.080,-192.0,-286.0,-333.0,139.0,116.0,228.0,111,99,149,99,114
2025-03-17 18:24:33.103,-213.0,-26.0,183.0,-38.0,109.0,181.0,109,88,149,99,116
2025-03-17 18:24:33.120,-637.0,-159.0,342.0,30.0,54.0,197.0,107,107,149,100,113
2025-03-17 18:24:33.151,-330.0,-213.0,92.0,126.0,108.0,187.0,107,105,149,99,115
2025-03-17 18:24:33.180,-393.0,23.0,80.0,127.0,72.0,212.0,107,107,149,101,115
2025-03-17 18:24:33.200,-359.0,575.0,67.0,209.0,85.0,183.0,107,105,147,100,115
2025-03-17 18:24:33.226,-772.0,2214.0,-571.0,238.0,-20.0,-11.0,108,96,147,98,105
2025-03-17 18:24:33.250,-1000.0,3203.0,-1370.0,135.0,-207.0,-479.0,109,103,148,101,115
2025-03-17 18:24:33.273,786.0,2204.0,-357.0,-124.0,-462.0,-858.0,111,106,153,101,119
2025-03-17 18:24:33.299,3436.0,-2709.0,500.0,-448.0,-589.0,-738.0,110,102,149,100,119
2025-03-17 18:24:33.323,2446.0,-5564.0,-980.0,-456.0,-336.0,-234.0,109,102,149,102,122
2025-03-17 18:24:33.348,1502.0,-5262.0,-1558.0,-240.0,-137.0,125.0,110,106,147,102,124
2025-03-17 18:24:33.372,354.0,-1527.0,-764.0,396.0,101.0,165.0,118,106,148,101,125
2025-03-17 18:24:33.396,-229.0,-779.0,277.0,179.0,113.0,125.0,118,106,148,100,125
2025-03-17 18:24:33.418,-116.0,-1516.0,222.0,-67.0,65.0,81.0,119,104,149,102,125
2025-03-17 18:24:33.443,-169.0,-1578.0,268.0,-67.0,225.0,139.0,118,103,149,102,124
2025-03-17 18:24:33.467,-23.0,-1217.0,-577.0,129.0,199.0,210.0,118,110,149,102,123
2025-03-17 18:24:33.492,-49.0,-874.0,-185.0,231.0,263.0,253.0,120,92,149,101,119
2025-03-17 18:24:33.515,56.0,-517.0,311.0,102.0,353.0,319.0,113,106,149,100,113
2025-03-17 18:24:33.540,-35.0,-501.0,-330.0,291.0,258.0,352.0,124,94,147,86,99
2025-03-17 18:24:33.564,-30.0,-318.0,-338.0,433.0,227.0,333.0,125,93,143,73,89
2025-03-17 18:24:33.586,-194.0,-335.0,-678.0,445.0,181.0,315.0,125,85,133,68,65
2025-03-17 18:24:33.599,-471.0,-27.0,-310.0,395.0,103.0,303.0,122,77,119,63,39
2025-03-17 18:24:33.635,-769.0,564.0,-1190.0,255.0,-24.0,212.0,98,66,108,57,37
2025-03-17 18:24:33.660,-1684.0,2645.0,-1872.0,284.0,-329.0,-116.0,89,73,99,65,35
2025-03-17 18:24:33.684,-525.0,2320.0,-3311.0,404.0,-888.0,-409.0,80,74,99,65,39
2025-03-17 18:24:33.708,3594.0,773.0,-2014.0,313.0,-1361.0,-331.0,69,80,99,64,41
2025-03-17 18:24:33.733,5449.0,-1086.0,3388.0,584.0,-979.0,-96.0,79,76,101,63,41
2025-03-17 18:24:33.744,2976.0,1619.0,6262.0,143.0,-31.0,-80.0,81,74,102,64,41
2025-03-17 18:24:33.778,1419.0,118.0,2570.0,-193.0,251.0,32.0,79,84,102,61,43
2025-03-17 18:24:33.803,703.0,-2770.0,3274.0,-222.0,244.0,56.0,79,89,104,60,45
2025-03-17 18:24:33.827,576.0,-596.0,1929.0,-242.0,379.0,119.0,87,92,107,68,46
2025-03-17 18:24:33.851,4.0,-7.0,965.0,-170.0,340.0,126.0,87,91,107,68,47
2025-03-17 18:24:33.874,-19.0,10.0,1041.0,-142.0,281.0,71.0,87,89,108,69,47
2025-03-17 18:24:33.901,123.0,-134.0,860.0,-188.0,309.0,88.0,87,84,108,61,46
2025-03-17 18:24:33.922,-234.0,-308.0,284.0,-193.0,261.0,111.0,89,82,109,68,46
2025-03-17 18:24:33.947,-240.0,-150.0,363.0,-165.0,222.0,145.0,88,79,109,68,44
2025-03-17 18:24:33.970,-227.0,-63.0,270.0,-90.0,242.0,77.0,87,84,110,68,44
2025-03-17 18:24:33.995,-246.0,64.0,110.0,-81.0,236.0,76.0,88,84,110,69,45
2025-03-17 18:24:34.020,-606.0,49.0,-210.0,-85.0,162.0,73.0,88,86,111,70,47
2025-03-17 18:24:34.043,-395.0,170.0,-281.0,-85.0,101.0,95.0,88,86,112,71,46
2025-03-17 18:24:34.067,-405.0,381.0,-590.0,34.0,52.0,90.0,92,87,113,74,46
2025-03-17 18:24:34.093,-1410.0,1414.0,-2236.0,289.0,-120.0,-128.0,87,88,112,71,46
2025-03-17 18:24:34.114,-1404.0,2024.0,-4116.0,329.0,-813.0,-455.0,80,87,112,72,45
2025-03-17 18:24:34.138,4000.0,706.0,-1767.0,392.0,-1373.0,-411.0,81,92,110,69,46
2025-03-17 18:24:34.163,5577.0,-1221.0,5941.0,570.0,-646.0,-40.0,82,94,110,70,49
2025-03-17 18:24:34.188,3025.0,274.0,5791.0,-25.0,174.0,-70.0,86,94,111,70,50
2025-03-17 18:24:34.212,615.0,-230.0,2411.0,-258.0,278.0,25.0,69,91,112,70,50
2025-03-17 18:24:34.237,373.0,-1064.0,1814.0,-360.0,264.0,79.0,92,86,113,72,52
2025-03-17 18:24:34.261,10.0,-900.0,1546.0,-319.0,259.0,165.0,100,82,117,75,55
2025-03-17 18:24:34.283,274.0,-841.0,1264.0,-298.0,318.0,243.0,102,84,119,74,54
2025-03-17 18:24:34.306,437.0,-604.0,1074.0,-246.0,363.0,256.0,104,87,119,77,52
2025-03-17 18:24:34.331,61.0,-282.0,524.0,-198.0,371.0,245.0,105,89,122,76,53
2025-03-17 18:24:34.356,-192.0,-16.0,250.0,-155.0,320.0,242.0,99,86,125,69,50
2025-03-17 18:24:34.380,-191.0,-256.0,-104.0,-133.0,295.0,244.0,108,85,133,62,50
2025-03-17 18:24:34.405,-326.0,-124.0,-411.0,49.0,263.0,232.0,120,87,138,65,51
2025-03-17 18:24:34.429,-331.0,455.0,-687.0,162.0,200.0,188.0,121,93,141,71,45
2025-03-17 18:24:34.450,-474.0,1129.0,-801.0,107.0,104.0,139.0,125,78,146,66,46
2025-03-17 18:24:34.472,-347.0,1533.0,-1379.0,151.0,-28.0,-2.0,128,87,146,77,52
2025-03-17 18:24:34.499,-709.0,2017.0,-2019.0,93.0,-285.0,-308.0,128,98,147,77,51
2025-03-17 18:24:34.521,-503.0,1848.0,-1506.0,25.0,-609.0,-642.0,119,92,148,60,50
2025-03-17 18:24:34.547,1333.0,1495.0,-1475.0,28.0,-1006.0,-825.0,85,77,149,80,45
2025-03-17 18:24:34.573,4249.0,-1710.0,-43.0,-259.0,-1223.0,-710.0,102,111,148,70,48
2025-03-17 18:24:34.597,5347.0,-5673.0,2497.0,-243.0,-488.0,-22.0,99,107,146,78,43
2025-03-17 18:24:34.618,2915.0,-3018.0,2006.0,185.0,265.0,176.0,106,112,149,80,49
2025-03-17 18:24:34.643,-90.0,-750.0,587.0,95.0,189.0,137.0,108,112,151,85,51
2025-03-17 18:24:34.667,141.0,-1082.0,282.0,-92.0,69.0,197.0,109,117,149,84,50
2025-03-17 18:24:34.691,202.0,-1161.0,649.0,-104.0,104.0,199.0,110,118,150,83,51
2025-03-17 18:24:34.716,78.0,-962.0,582.0,-52.0,141.0,176.0,110,116,149,84,52
2025-03-17 18:24:34.741,-39.0,-707.0,463.0,4.0,154.0,187.0,110,113,149,83,51
2025-03-17 18:24:34.766,-148.0,-433.0,400.0,11.0,159.0,212.0,107,106,148,79,50
2025-03-17 18:24:34.786,-92.0,-317.0,291.0,1.0,153.0,187.0,103,114,148,80,48
2025-03-17 18:24:34.811,-102.0,-248.0,330.0,-6.0,150.0,158.0,105,115,148,74,47
2025-03-17 18:24:34.835,-166.0,-259.0,205.0,-42.0,144.0,158.0,104,107,149,69,49
2025-03-17 18:24:34.860,-277.0,-420.0,172.0,-38.0,126.0,164.0,107,112,150,84,48
2025-03-17 18:24:34.884,-245.0,-306.0,215.0,22.0,117.0,154.0,108,99,150,78,50
2025-03-17 18:24:34.908,-456.0,111.0,127.0,54.0,151.0,172.0,107,103,150,63,48
2025-03-17 18:24:34.932,-1315.0,1639.0,-1312.0,72.0,38.0,113.0,107,97,149,69,47
2025-03-17 18:24:34.958,-2073.0,2754.0,-2057.0,261.0,-241.0,-372.0,104,98,149,69,48
2025-03-17 18:24:34.977,432.0,2599.0,-1531.0,-2.0,-774.0,-849.0,91,110,149,84,46
2025-03-17 18:24:35.003,4322.0,-2892.0,987.0,-125.0,-843.0,-775.0,92,116,147,83,52
2025-03-17 18:24:35.026,4398.0,-5156.0,2511.0,0.0,-146.0,-39.0,95,105,149,64,50
2025-03-17 18:24:35.050,1980.0,-2746.0,1672.0,114.0,257.0,205.0,101,99,150,78,54
2025-03-17 18:24:35.076,28.0,-980.0,559.0,-19.0,146.0,161.0,104,117,149,81,55
2025-03-17 18:24:35.100,-93.0,-1755.0,765.0,-59.0,154.0,214.0,107,114,150,81,55
2025-03-17 18:24:35.122,108.0,-1250.0,743.0,-20.0,249.0,245.0,113,116,149,82,57
2025-03-17 18:24:35.147,308.0,-925.0,536.0,36.0,299.0,196.0,124,117,149,82,55
2025-03-17 18:24:35.170,-53.0,-788.0,620.0,48.0,299.0,211.0,124,109,143,76,54
2025-03-17 18:24:35.195,-11.0,-608.0,424.0,23.0,317.0,257.0,125,81,134,71,54
2025-03-17 18:24:35.220,31.0,-383.0,-51.0,67.0,335.0,260.0,119,92,123,62,50
2025-03-17 18:24:35.244,-388.0,21.0,-290.0,142.0,265.0,243.0,114,78,114,41,48
2025-03-17 18:24:35.266,-405.0,110.0,-573.0,82.0,178.0,221.0,110,59,111,65,46
2025-03-17 18:24:35.290,-462.0,296.0,-714.0,136.0,70.0,160.0,98,70,108,70,44
2025-03-17 18:24:35.315,-794.0,504.0,-995.0,168.0,-47.0,54.0,89,64,104,66,45
2025-03-17 18:24:35.339,-1603.0,992.0,-2736.0,267.0,-368.0,-142.0,82,48,100,66,43
2025-03-17 18:24:35.364,-39.0,1319.0,-3417.0,375.0,-922.0,-322.0,65,55,97,60,45
2025-03-17 18:24:35.388,3458.0,227.0,-752.0,444.0,-1167.0,-221.0,66,61,98,64,47
2025-03-17 18:24:35.405,3222.0,-143.0,4667.0,425.0,-571.0,-47.0,73,76,100,65,48
2025-03-17 18:24:35.436,2020.0,416.0,4575.0,50.0,-13.0,-43.0,69,76,100,65,48
2025-03-17 18:24:35.458,861.0,365.0,3174.0,-57.0,160.0,-8.0,70,78,102,64,50
2025-03-17 18:24:35.483,430.0,-231.0,2209.0,-171.0,240.0,34.0,79,79,103,67,51
2025-03-17 18:24:35.507,177.0,-453.0,1441.0,-183.0,288.0,69.0,83,81,105,68,52
2025-03-17 18:24:35.531,-114.0,-133.0,931.0,-77.0,209.0,91.0,83,80,104,68,52
2025-03-17 18:24:35.556,103.0,-52.0,1443.0,-96.0,223.0,70.0,81,79,103,69,51
2025-03-17 18:24:35.581,152.0,-44.0,1155.0,-189.0,310.0,108.0,82,77,105,67,49
2025-03-17 18:24:35.592,-187.0,-194.0,490.0,-159.0,299.0,129.0,82,77,107,68,46
2025-03-17 18:24:35.626,-136.0,1.0,144.0,-110.0,239.0,88.0,70,80,108,69,48
2025-03-17 18:24:35.651,-101.0,24.0,221.0,-140.0,240.0,48.0,86,82,108,64,48
2025-03-17 18:24:35.675,-461.0,-105.0,-73.0,-141.0,197.0,52.0,86,84,111,68,49
2025-03-17 18:24:35.696,-293.0,-104.0,-27.0,-52.0,143.0,41.0,88,84,111,70,48
2025-03-17 18:24:35.723,-256.0,415.0,-104.0,-53.0,141.0,54.0,86,86,111,71,49
2025-03-17 18:24:35.747,-465.0,622.0,-695.0,-63.0,120.0,38.0,88,85,112,71,47
2025-03-17 18:24:35.772,-1267.0,1241.0,-2809.0,143.0,-100.0,-165.0,85,81,111,69,46
2025-03-17 18:24:35.795,-1158.0,2111.0,-3397.0,299.0,-656.0,-439.0,75,77,110,73,47
2025-03-17 18:24:35.818,1986.0,1304.0,-2166.0,128.0,-1267.0,-453.0,82,84,110,68,48
2025-03-17 18:24:35.843,6737.0,-3684.0,3356.0,120.0,-1145.0,-132.0,88,95,110,70,51
2025-03-17 18:24:35.867,4228.0,-1265.0,6512.0,65.0,68.0,14.0,94,84,113,62,57
2025-03-17 18:24:35.892,1136.0,-1170.0,2723.0,-209.0,341.0,73.0,104,96,113,76,57
2025-03-17 18:24:35.901,184.0,-1255.0,795.0,-258.0,175.0,111.0,102,99,114,77,52
2025-03-17 18:24:35.941,212.0,-1549.0,944.0,-199.0,72.0,155.0,112,96,115,78,55
2025-03-17 18:24:35.965,519.0,-1619.0,1144.0,-220.0,151.0,241.0,120,95,116,78,56
2025-03-17 18:24:35.987,554.0,-1030.0,854.0,-284.0,240.0,304.0,123,86,118,69,57
2025-03-17 18:24:36.011,131.0,-869.0,498.0,-146.0,170.0,313.0,125,74,123,66,59
2025-03-17 18:24:36.035,132.0,-450.0,564.0,-183.0,192.0,330.0,122,60,126,75,62
2025-03-17 18:24:36.060,13.0,-180.0,542.0,-287.0,242.0,299.0,126,56,129,61,63
2025-03-17 18:24:36.084,-459.0,-354.0,284.0,-206.0,226.0,284.0,130,48,129,61,58
2025-03-17 18:24:36.108,-294.0,-101.0,53.0,-56.0,220.0,235.0,123,38,127,66,64
2025-03-17 18:24:36.133,-396.0,258.0,39.0,-35.0,210.0,184.0,130,36,125,63,63
2025-03-17 18:24:36.155,-498.0,625.0,-156.0,10.0,168.0,132.0,129,36,117,42,58
2025-03-17 18:24:36.179,-591.0,1199.0,-454.0,130.0,112.0,83.0,128,33,110,56,49
2025-03-17 18:24:36.203,-814.0,2389.0,-1013.0,265.0,-31.0,-44.0,122,33,106,52,44
2025-03-17 18:24:36.228,-602.0,3910.0,-1591.0,256.0,-266.0,-528.0,107,27,105,62,41
2025-03-17 18:24:36.252,292.0,3396.0,-1874.0,41.0,-416.0,-964.0,106,21,105,60,45
2025-03-17 18:24:36.276,3652.0,3012.0,-3087.0,-252.0,-1053.0,-1236.0,94,31,105,66,47
2025-03-17 18:24:36.301,9899.0,-6419.0,1965.0,-439.0,-597.0,-534.0,114,34,107,46,49
2025-03-17 18:24:36.323,4728.0,-8084.0,-75.0,342.0,410.0,20.0,108,31,105,57,48
2025-03-17 18:24:36.346,162.0,-3604.0,-4080.0,480.0,22.0,303.0,115,32,108,0,47
2025-03-17 18:24:36.371,1373.0,-1003.0,396.0,-112.0,-61.0,152.0,108,38,109,65,48
2025-03-17 18:24:36.396,666.0,-2961.0,880.0,-28.0,71.0,267.0,112,33,107,42,43
2025-03-17 18:24:36.420,619.0,-1360.0,310.0,-32.0,182.0,379.0,113,30,108,54,50
2025-03-17 18:24:36.444,287.0,-409.0,-41.0,-95.0,111.0,365.0,118,32,109,63,47
2025-03-17 18:24:36.469,156.0,-421.0,109.0,-77.0,42.0,314.0,121,33,110,64,49
2025-03-17 18:24:36.489,26.0,-452.0,174.0,-141.0,117.0,284.0,123,38,117,58,48
2025-03-17 18:24:36.515,-146.0,-42.0,41.0,-161.0,147.0,270.0,124,40,113,60,49
2025-03-17 18:24:36.539,-25.0,-393.0,28.0,-26.0,66.0,243.0,125,34,111,64,48
2025-03-17 18:24:36.563,-352.0,19.0,41.0,9.0,97.0,203.0,127,39,113,68,50
2025-03-17 18:24:36.588,-451.0,347.0,34.0,126.0,67.0,197.0,128,38,112,68,48
2025-03-17 18:24:36.598,-564.0,1176.0,-336.0,197.0,55.0,159.0,128,39,113,68,48
2025-03-17 18:24:36.636,-944.0,2977.0,-754.0,389.0,-20.0,-56.0,127,39,112,68,48
2025-03-17 18:24:36.661,-1308.0,4837.0,-1311.0,358.0,-188.0,-681.0,121,37,111,69,47
2025-03-17 18:24:36.683,1337.0,4051.0,-2132.0,-37.0,-734.0,-1256.0,120,35,112,69,50
2025-03-17 18:24:36.707,8433.0,-4222.0,183.0,-86.0,-898.0,-903.0,121,39,112,68,50
2025-03-17 18:24:36.732,6625.0,-8876.0,2497.0,344.0,380.0,121.0,118,34,112,58,51
2025-03-17 18:24:36.756,358.0,-1192.0,-2110.0,115.0,562.0,452.0,125,38,114,67,47
2025-03-17 18:24:36.780,-738.0,-403.0,-119.0,320.0,-77.0,58.0,133,41,113,70,53
2025-03-17 18:24:36.805,-424.0,-691.0,829.0,216.0,233.0,33.0,130,39,114,69,52
2025-03-17 18:24:36.823,-361.0,-453.0,531.0,90.0,251.0,36.0,134,40,112,69,44
2025-03-17 18:24:36.848,-329.0,-1082.0,161.0,263.0,75.0,-36.0,137,40,114,72,43
2025-03-17 18:24:36.875,16.0,-726.0,601.0,278.0,83.0,-27.0,138,41,113,66,52
2025-03-17 18:24:36.900,-84.0,-231.0,573.0,329.0,81.0,-42.0,140,42,115,65,54
2025-03-17 18:24:36.922,-20.0,-397.0,931.0,176.0,88.0,-37.0,142,42,116,70,51
2025-03-17 18:24:36.948,128.0,-958.0,565.0,208.0,92.0,-32.0,142,42,115,68,53
2025-03-17 18:24:36.970,123.0,-794.0,625.0,141.0,59.0,-26.0,143,42,116,73,53
2025-03-17 18:24:36.994,452.0,-901.0,781.0,86.0,5.0,-12.0,142,40,115,72,52
2025-03-17 18:24:37.018,919.0,-2169.0,1168.0,82.0,26.0,54.0,142,39,115,71,48
2025-03-17 18:24:37.042,1503.0,-2776.0,926.0,122.0,64.0,255.0,130,40,115,71,52
2025-03-17 18:24:37.067,1986.0,-2848.0,1090.0,0.0,25.0,553.0,133,39,114,73,52
2025-03-17 18:24:37.092,3061.0,-1972.0,1070.0,-131.0,-31.0,905.0,146,42,115,73,52
2025-03-17 18:24:37.116,2759.0,1411.0,1467.0,-165.0,-135.0,948.0,145,41,114,74,51
2025-03-17 18:24:37.140,494.0,4548.0,2064.0,-102.0,-18.0,510.0,146,42,115,71,56
2025-03-17 18:24:37.162,-19.0,4303.0,1566.0,66.0,117.0,122.0,145,42,115,70,53
2025-03-17 18:24:37.187,-137.0,3926.0,1687.0,67.0,82.0,-116.0,148,42,116,70,54
2025-03-17 18:24:37.210,48.0,1727.0,1293.0,-32.0,92.0,-277.0,146,40,114,70,52
2025-03-17 18:24:37.223,46.0,784.0,995.0,-96.0,122.0,-380.0,146,41,115,71,51
2025-03-17 18:24:37.259,14.0,-544.0,720.0,-89.0,73.0,-416.0,145,40,115,69,49
2025-03-17 18:24:37.284,340.0,-975.0,738.0,117.0,-22.0,-419.0,145,40,114,70,49
2025-03-17 18:24:37.308,158.0,-938.0,867.0,303.0,-12.0,-354.0,145,41,114,69,50
2025-03-17 18:24:37.332,-55.0,-76.0,852.0,146.0,-37.0,-336.0,145,41,115,73,51
2025-03-17 18:24:37.355,102.0,-662.0,802.0,-30.0,-79.0,-291.0,147,40,116,72,50
2025-03-17 18:24:37.379,281.0,-1397.0,871.0,49.0,-91.0,-203.0,145,41,115,71,51
2025-03-17 18:24:37.403,413.0,-1095.0,1095.0,34.0,-22.0,-132.0,146,41,115,71,50
2025-03-17 18:24:37.428,253.0,-1175.0,680.0,-9.0,-4.0,-82.0,146,41,115,72,51
2025-03-17 18:24:37.452,648.0,-1918.0,769.0,-9.0,-22.0,25.0,146,42,115,73,50
2025-03-17 18:24:37.477,1567.0,-3095.0,826.0,88.0,0.0,223.0,147,41,115,72,51
2025-03-17 18:24:37.501,2642.0,-3156.0,1105.0,31.0,58.0,605.0,146,39,115,74,50
2025-03-17 18:24:37.522,3015.0,-1344.0,855.0,-142.0,-86.0,927.0,146,40,115,68,48
2025-03-17 18:24:37.547,2625.0,996.0,1778.0,-257.0,-119.0,906.0,147,41,115,73,49
2025-03-17 18:24:37.572,602.0,4284.0,2164.0,23.0,123.0,330.0,147,41,115,71,51
2025-03-17 18:24:37.596,-425.0,4991.0,2238.0,10.0,164.0,134.0,146,42,114,71,52
2025-03-17 18:24:37.618,-191.0,3461.0,2223.0,-88.0,203.0,-135.0,139,40,114,70,51
2025-03-17 18:24:37.635,264.0,392.0,2057.0,-193.0,354.0,-240.0,146,36,114,72,51
2025-03-17 18:24:37.668,183.0,-1260.0,1337.0,-363.0,501.0,-170.0,146,40,115,71,49
2025-03-17 18:24:37.691,250.0,-1464.0,192.0,-343.0,428.0,-143.0,145,40,114,68,50
2025-03-17 18:24:37.714,340.0,-1811.0,-369.0,-45.0,277.0,-71.0,146,41,115,61,48
2025-03-17 18:24:37.739,-1596.0,-2667.0,-1782.0,120.0,156.0,59.0,139,40,118,57,51
2025-03-17 18:24:37.764,-76.0,-1217.0,-35.0,-146.0,174.0,96.0,141,38,122,61,50
2025-03-17 18:24:37.788,-367.0,-392.0,-471.0,74.0,257.0,100.0,129,40,129,76,56
2025-03-17 18:24:37.812,-795.0,-198.0,-113.0,-12.0,187.0,120.0,123,44,133,68,57
2025-03-17 18:24:37.835,-834.0,161.0,-706.0,5.0,121.0,104.0,123,55,132,59,80
2025-03-17 18:24:37.858,-527.0,714.0,-84.0,-40.0,88.0,41.0,123,48,132,70,85
2025-03-17 18:24:37.883,-341.0,1376.0,-815.0,28.0,70.0,-31.0,122,57,132,88,87
2025-03-17 18:24:37.907,-578.0,2398.0,-1617.0,59.0,-161.0,-299.0,122,72,144,94,89
2025-03-17 18:24:37.932,-199.0,2582.0,-988.0,41.0,-333.0,-707.0,125,68,145,94,88
2025-03-17 18:24:37.955,342.0,1533.0,-1080.0,-34.0,-475.0,-1042.0,127,66,147,97,92
2025-03-17 18:24:37.980,5349.0,995.0,-2123.0,-196.0,-1196.0,-944.0,123,67,148,98,107
2025-03-17 18:24:38.005,4034.0,-7193.0,275.0,-370.0,-784.0,-224.0,125,87,146,99,115
2025-03-17 18:24:38.030,2484.0,-4378.0,-675.0,-319.0,192.0,134.0,128,83,146,99,115
2025-03-17 18:24:38.054,-868.0,-2604.0,-440.0,491.0,-56.0,196.0,130,92,149,99,120
2025-03-17 18:24:38.079,213.0,-1474.0,-119.0,403.0,-240.0,226.0,130,89,148,101,121
2025-03-17 18:24:38.098,356.0,-1542.0,359.0,-18.0,35.0,318.0,130,77,150,101,121
2025-03-17 18:24:38.125,75.0,-1516.0,441.0,-106.0,214.0,360.0,139,93,149,102,120
2025-03-17 18:24:38.148,102.0,-587.0,-190.0,164.0,298.0,404.0,130,90,149,100,120
2025-03-17 18:24:38.173,-289.0,-434.0,-757.0,249.0,121.0,369.0,135,75,148,101,119
2025-03-17 18:24:38.197,-64.0,-102.0,53.0,167.0,63.0,293.0,135,86,147,101,118
2025-03-17 18:24:38.221,-606.0,142.0,734.0,73.0,149.0,216.0,131,86,147,101,118
2025-03-17 18:24:38.243,-545.0,-13.0,-267.0,65.0,126.0,171.0,126,79,149,102,119
2025-03-17 18:24:38.267,-615.0,207.0,6.0,94.0,43.0,127.0,129,81,149,101,116
2025-03-17 18:24:38.290,-419.0,946.0,310.0,158.0,32.0,56.0,129,85,148,101,118
2025-03-17 18:24:38.317,-785.0,2222.0,-342.0,131.0,25.0,-76.0,127,77,149,101,119
2025-03-17 18:24:38.342,-1054.0,3068.0,-1066.0,81.0,-153.0,-515.0,127,85,149,103,115
2025-03-17 18:24:38.365,509.0,2117.0,-795.0,-81.0,-448.0,-892.0,122,87,147,102,120
2025-03-17 18:24:38.389,3814.0,-3235.0,-531.0,-332.0,-673.0,-698.0,127,89,147,101,120
2025-03-17 18:24:38.412,2716.0,-5573.0,-901.0,-373.0,-376.0,-229.0,130,90,148,101,122
2025-03-17 18:24:38.436,1684.0,-4836.0,-1516.0,-414.0,-4.0,194.0,132,95,149,101,124
2025-03-17 18:24:38.460,-251.0,-1678.0,-132.0,424.0,30.0,227.0,128,96,149,105,125
2025-03-17 18:24:38.485,-239.0,-1081.0,634.0,253.0,19.0,117.0,132,95,149,104,121
2025-03-17 18:24:38.509,-199.0,-864.0,939.0,-110.0,434.0,91.0,128,94,148,102,119
2025-03-17 18:24:38.534,-221.0,-1047.0,369.0,137.0,254.0,126.0,123,84,148,102,115
2025-03-17 18:24:38.557,-301.0,-923.0,262.0,488.0,260.0,130.0,127,72,146,100,106
2025-03-17 18:24:38.574,154.0,-523.0,-310.0,499.0,329.0,44.0,128,48,138,84,88
2025-03-17 18:24:38.607,-379.0,-190.0,-178.0,474.0,235.0,-27.0,115,32,128,72,59
2025-03-17 18:24:38.629,-470.0,-1064.0,-3242.0,479.0,94.0,4.0,138,37,121,55,45
2025-03-17 18:24:38.653,-1308.0,-293.0,483.0,407.0,-65.0,-35.0,123,38,117,48,41
2025-03-17 18:24:38.677,162.0,-793.0,496.0,255.0,-75.0,-74.0,122,39,118,68,41
2025-03-17 18:24:38.702,97.0,-716.0,913.0,228.0,-33.0,-53.0,139,38,116,67,39
2025-03-17 18:24:38.726,-36.0,-1016.0,848.0,216.0,-35.0,-23.0,140,38,115,70,40
2025-03-17 18:24:38.750,157.0,-1013.0,802.0,141.0,-84.0,-6.0,139,38,114,70,41
2025-03-17 18:24:38.775,680.0,-1545.0,1431.0,132.0,-98.0,110.0,140,36,116,69,41
2025-03-17 18:24:38.796,1277.0,-2104.0,2073.0,77.0,-15.0,274.0,138,39,116,71,42
2025-03-17 18:24:38.821,1836.0,-2714.0,1718.0,-183.0,70.0,653.0,142,39,115,71,42
2025-03-17 18:24:38.845,2096.0,-146.0,1515.0,-277.0,-41.0,852.0,133,39,113,71,44
2025-03-17 18:24:38.869,973.0,2262.0,1962.0,-296.0,28.0,703.0,122,40,114,71,44
2025-03-17 18:24:38.894,-157.0,4061.0,1671.0,-49.0,179.0,156.0,143,40,115,69,44
2025-03-17 18:24:38.918,-813.0,3944.0,1332.0,-11.0,161.0,-79.0,142,40,114,67,42
2025-03-17 18:24:38.943,-165.0,1731.0,1371.0,-37.0,179.0,-298.0,142,40,115,66,43
2025-03-17 18:24:38.965,-86.0,458.0,789.0,-113.0,178.0,-407.0,142,40,115,65,44
2025-03-17 18:24:38.989,18.0,-937.0,278.0,-94.0,126.0,-423.0,143,40,115,68,43
2025-03-17 18:24:39.013,-102.0,-1174.0,167.0,81.0,-9.0,-334.0,143,40,116,68,44
2025-03-17 18:24:39.036,-20.0,-1050.0,393.0,150.0,-70.0,-257.0,145,41,115,70,45
2025-03-17 18:24:39.062,161.0,-561.0,882.0,53.0,-59.0,-231.0,142,42,116,70,46
2025-03-17 18:24:39.084,98.0,-789.0,956.0,-34.0,-17.0,-189.0,143,42,116,71,47
2025-03-17 18:24:39.110,-105.0,-847.0,758.0,-45.0,-21.0,-146.0,141,41,115,70,45
2025-03-17 18:24:39.132,-139.0,-667.0,547.0,-20.0,-47.0,-142.0,142,41,116,69,47
2025-03-17 18:24:39.156,87.0,-802.0,613.0,-53.0,-40.0,-120.0,143,42,116,70,47
2025-03-17 18:24:39.180,617.0,-1602.0,647.0,-43.0,-11.0,-74.0,143,41,117,70,47
2025-03-17 18:24:39.206,1485.0,-3200.0,76.0,58.0,33.0,101.0,145,43,117,71,49
2025-03-17 18:24:39.230,2251.0,-4196.0,-514.0,173.0,-47.0,443.0,144,42,117,70,48
2025-03-17 18:24:39.254,2890.0,-2814.0,-16.0,42.0,-205.0,839.0,144,42,113,70,48
2025-03-17 18:24:39.279,2690.0,922.0,1181.0,-146.0,-270.0,926.0,145,42,115,69,47
2025-03-17 18:24:39.303,-312.0,3944.0,2048.0,-9.0,-166.0,456.0,145,43,113,66,48
2025-03-17 18:24:39.319,168.0,3283.0,2789.0,189.0,49.0,161.0,139,41,114,62,48
2025-03-17 18:24:39.349,-5.0,2678.0,3379.0,-11.0,152.0,-17.0,142,37,116,67,47
2025-03-17 18:24:39.373,75.0,460.0,2710.0,-137.0,306.0,-113.0,140,41,121,69,48
2025-03-17 18:24:39.398,324.0,-1255.0,1302.0,-135.0,460.0,-99.0,141,42,123,70,49
2025-03-17 18:24:39.422,-357.0,-1239.0,173.0,-86.0,392.0,-37.0,143,41,125,70,48
2025-03-17 18:24:39.447,-704.0,-1345.0,-42.0,32.0,244.0,23.0,142,33,128,70,50
2025-03-17 18:24:39.468,-479.0,-938.0,39.0,25.0,220.0,46.0,142,50,134,75,50
2025-03-17 18:24:39.491,-465.0,-605.0,31.0,57.0,258.0,84.0,143,56,142,75,47
2025-03-17 18:24:39.516,-511.0,-348.0,-167.0,110.0,218.0,102.0,141,64,142,71,47
2025-03-17 18:24:39.540,-657.0,7.0,-72.0,124.0,192.0,124.0,141,73,143,78,51
2025-03-17 18:24:39.565,-522.0,558.0,-185.0,133.0,203.0,71.0,143,82,146,75,50
2025-03-17 18:24:39.591,-307.0,1208.0,-723.0,111.0,187.0,-2.0,141,91,145,76,51
2025-03-17 18:24:39.615,-381.0,1971.0,-1550.0,182.0,71.0,-137.0,144,89,146,74,50
2025-03-17 18:24:39.639,-690.0,2755.0,-2321.0,74.0,-260.0,-494.0,138,95,147,68,51
2025-03-17 18:24:39.660,-45.0,2393.0,-2148.0,-32.0,-646.0,-843.0,131,77,147,66,45
2025-03-17 18:24:39.684,1802.0,2049.0,-2029.0,-270.0,-1164.0,-1060.0,114,89,147,55,50
2025-03-17 18:24:39.709,7795.0,-1601.0,-935.0,-713.0,-1173.0,-959.0,109,96,148,69,48
2025-03-17 18:24:39.734,6314.0,-7180.0,-463.0,-191.0,-327.0,-33.0,102,99,147,55,51
2025-03-17 18:24:39.758,2827.0,-3754.0,-157.0,357.0,395.0,126.0,106,110,147,66,44
2025-03-17 18:24:39.782,-106.0,-1323.0,-585.0,141.0,129.0,217.0,113,113,148,68,51
2025-03-17 18:24:39.807,469.0,-1684.0,169.0,2.0,23.0,216.0,117,110,148,69,50
2025-03-17 18:24:39.829,403.0,-1610.0,422.0,71.0,107.0,255.0,117,113,148,70,53
2025-03-17 18:24:39.854,389.0,-1266.0,528.0,139.0,172.0,296.0,118,114,148,58,54
2025-03-17 18:24:39.877,-71.0,-666.0,377.0,172.0,185.0,334.0,119,111,149,62,52
2025-03-17 18:24:39.901,-94.0,-334.0,461.0,143.0,168.0,324.0,106,101,149,55,51
2025-03-17 18:24:39.926,5.0,-593.0,214.0,121.0,201.0,301.0,119,80,147,68,47
2025-03-17 18:24:39.951,-235.0,-387.0,253.0,161.0,183.0,276.0,123,111,148,58,49
2025-03-17 18:24:39.975,-342.0,-196.0,291.0,184.0,190.0,219.0,127,111,150,56,43
2025-03-17 18:24:39.996,-542.0,-12.0,72.0,128.0,161.0,203.0,129,111,148,61,43
2025-03-17 18:24:40.017,-562.0,858.0,54.0,117.0,127.0,135.0,132,111,148,62,47
2025-03-17 18:24:40.042,-1330.0,2317.0,-1251.0,-7.0,-17.0,-111.0,132,98,148,63,49
2025-03-17 18:24:40.070,-1445.0,2885.0,-1894.0,-73.0,-342.0,-535.0,132,111,148,63,49
2025-03-17 18:24:40.094,211.0,2887.0,-1643.0,-243.0,-742.0,-883.0,125,106,149,65,54
2025-03-17 18:24:40.119,4064.0,-1423.0,301.0,-484.0,-734.0,-1008.0,123,111,148,66,63
2025-03-17 18:24:40.143,4475.0,-6013.0,254.0,-116.0,-301.0,-308.0,114,111,147,48,62
2025-03-17 18:24:40.164,3152.0,-2619.0,1021.0,87.0,167.0,165.0,121,110,148,68,51
2025-03-17 18:24:40.189,-363.0,-867.0,685.0,151.0,131.0,72.0,124,109,147,66,58
2025-03-17 18:24:40.213,-154.0,-1048.0,686.0,106.0,137.0,103.0,127,107,147,72,59
2025-03-17 18:24:40.236,-43.0,-827.0,1006.0,158.0,237.0,70.0,129,103,147,71,58
2025-03-17 18:24:40.252,268.0,-575.0,627.0,208.0,273.0,18.0,131,92,147,70,59
2025-03-17 18:24:40.284,77.0,-809.0,432.0,205.0,229.0,17.0,136,66,147,71,56
2025-03-17 18:24:40.310,-38.0,-1004.0,275.0,278.0,182.0,43.0,135,54,142,68,52
2025-03-17 18:24:40.333,-166.0,-819.0,227.0,371.0,145.0,22.0,129,39,132,56,51
2025-03-17 18:24:40.350,135.0,-366.0,1327.0,345.0,133.0,41.0,132,36,125,58,51
2025-03-17 18:24:40.382,-283.0,-247.0,606.0,341.0,104.0,13.0,135,35,118,70,49
2025-03-17 18:24:40.406,-199.0,-309.0,595.0,314.0,38.0,-33.0,138,32,116,66,47
2025-03-17 18:24:40.430,30.0,-933.0,714.0,259.0,-49.0,-19.0,140,37,112,67,48
2025-03-17 18:24:40.454,883.0,-1916.0,1285.0,187.0,-68.0,99.0,141,37,113,67,46
2025-03-17 18:24:40.479,1524.0,-2509.0,1686.0,132.0,-24.0,314.0,141,37,113,64,47
2025-03-17 18:24:40.500,2329.0,-2239.0,1935.0,26.0,52.0,708.0,142,37,112,67,46
2025-03-17 18:24:40.525,2406.0,844.0,2102.0,-184.0,100.0,824.0,120,39,111,66,46
2025-03-17 18:24:40.549,860.0,3118.0,1853.0,-269.0,180.0,594.0,141,36,112,64,46
2025-03-17 18:24:40.573,224.0,3698.0,703.0,-1.0,243.0,162.0,143,41,112,61,48
2025-03-17 18:24:40.598,-335.0,3864.0,606.0,-28.0,96.0,-73.0,143,39,114,65,47
2025-03-17 18:24:40.622,96.0,2000.0,756.0,-15.0,54.0,-216.0,144,39,115,67,48
2025-03-17 18:24:40.647,229.0,540.0,1043.0,-37.0,76.0,-242.0,144,42,115,67,48
2025-03-17 18:24:40.668,-48.0,-245.0,685.0,-14.0,53.0,-237.0,144,41,115,68,47
2025-03-17 18:24:40.691,-55.0,-428.0,847.0,50.0,-18.0,-192.0,143,41,113,69,47
2025-03-17 18:24:40.716,-92.0,-540.0,1096.0,120.0,-29.0,-157.0,144,42,116,70,47
2025-03-17 18:24:40.740,-237.0,-460.0,1074.0,61.0,7.0,-122.0,143,41,115,67,46
2025-03-17 18:24:40.766,-308.0,-81.0,1819.0,-75.0,116.0,-138.0,140,41,115,68,47
2025-03-17 18:24:40.787,-629.0,-358.0,789.0,59.0,-9.0,-149.0,132,42,115,69,48
2025-03-17 18:24:40.812,-355.0,-345.0,761.0,60.0,7.0,-162.0,137,42,116,69,49
2025-03-17 18:24:40.839,-320.0,-395.0,802.0,34.0,-33.0,-141.0,137,43,117,69,49
2025-03-17 18:24:40.861,-126.0,-815.0,778.0,36.0,-40.0,-143.0,137,42,117,70,50
2025-03-17 18:24:40.885,340.0,-2044.0,824.0,86.0,-46.0,-21.0,131,41,116,71,49
2025-03-17 18:24:40.908,762.0,-2643.0,1226.0,49.0,-40.0,227.0,127,44,116,71,49
2025-03-17 18:24:40.925,1380.0,-2724.0,1589.0,-122.0,-21.0,452.0,138,43,117,70,50
2025-03-17 18:24:40.957,1177.0,-865.0,1387.0,-237.0,-29.0,637.0,134,43,116,69,48
2025-03-17 18:24:40.982,717.0,2933.0,1237.0,-70.0,68.0,446.0,143,43,116,70,48
2025-03-17 18:24:41.007,-327.0,4546.0,1186.0,-119.0,52.0,130.0,144,43,116,67,49
2025-03-17 18:24:41.029,-219.0,3401.0,1833.0,-137.0,47.0,-129.0,147,46,119,68,52
2025-03-17 18:24:41.040,194.0,1240.0,2188.0,-254.0,92.0,-263.0,143,44,119,65,53
2025-03-17 18:24:41.077,543.0,-702.0,2521.0,-440.0,307.0,-198.0,145,45,119,68,54
2025-03-17 18:24:41.102,-79.0,-480.0,1125.0,-554.0,401.0,-179.0,145,44,118,58,53
2025-03-17 18:24:41.127,-263.0,-1742.0,-338.0,-402.0,272.0,-114.0,143,42,117,66,53
2025-03-17 18:24:41.151,-147.0,-1893.0,-127.0,-143.0,187.0,10.0,126,36,115,58,52
2025-03-17 18:24:41.175,-382.0,-1197.0,-300.0,-242.0,231.0,46.0,137,36,115,62,53
2025-03-17 18:24:41.194,-307.0,-1119.0,9.0,-334.0,275.0,94.0,132,39,115,60,50
2025-03-17 18:24:41.219,-539.0,-1089.0,-647.0,-111.0,180.0,136.0,122,41,114,60,49
2025-03-17 18:24:41.246,-423.0,-560.0,-224.0,22.0,119.0,144.0,130,42,114,62,49
2025-03-17 18:24:41.270,-379.0,-203.0,-131.0,-9.0,125.0,155.0,122,41,118,63,49
2025-03-17 18:24:41.295,-222.0,-376.0,27.0,60.0,120.0,189.0,117,45,114,65,46
2025-03-17 18:24:41.318,-291.0,-209.0,-223.0,127.0,148.0,214.0,114,41,115,65,49
2025-03-17 18:24:41.343,-470.0,444.0,-335.0,174.0,95.0,208.0,102,43,116,64,48
2025-03-17 18:24:41.365,-560.0,1812.0,-639.0,152.0,20.0,141.0,103,41,115,64,47
2025-03-17 18:24:41.389,-289.0,3148.0,-1413.0,267.0,-69.0,-75.0,110,42,114,64,46
2025-03-17 18:24:41.413,-617.0,4370.0,-2223.0,269.0,-249.0,-553.0,102,39,114,65,45
2025-03-17 18:24:41.438,-96.0,4306.0,-2993.0,71.0,-732.0,-1090.0,96,37,113,63,44
2025-03-17 18:24:41.462,7695.0,1403.0,-2172.0,-47.0,-1359.0,-1235.0,95,41,114,63,45
2025-03-17 18:24:41.487,9309.0,-9505.0,4631.0,-218.0,-318.0,-168.0,92,37,113,62,45
2025-03-17 18:24:41.511,2729.0,-6137.0,-452.0,339.0,493.0,-33.0,96,42,109,45,43
2025-03-17 18:24:41.533,-974.0,30.0,-573.0,116.0,-4.0,64.0,99,41,113,62,47
2025-03-17 18:24:41.557,950.0,-2381.0,995.0,55.0,-15.0,135.0,103,35,112,63,47
2025-03-17 18:24:41.581,449.0,-1568.0,750.0,40.0,200.0,162.0,100,40,113,60,46
2025-03-17 18:24:41.605,30.0,-891.0,311.0,-126.0,197.0,221.0,95,35,111,52,45
2025-03-17 18:24:41.629,-92.0,-901.0,94.0,-22.0,9.0,200.0,108,37,112,63,46
2025-03-17 18:24:41.655,276.0,-715.0,638.0,-26.0,39.0,143.0,108,40,113,57,46
2025-03-17 18:24:41.679,140.0,-1024.0,334.0,-41.0,152.0,178.0,105,40,114,61,46
2025-03-17 18:24:41.700,-126.0,-805.0,-20.0,-73.0,133.0,217.0,109,40,115,52,46
2025-03-17 18:24:41.724,-207.0,-310.0,179.0,-42.0,30.0,205.0,109,42,115,54,46
2025-03-17 18:24:41.737,-172.0,-199.0,535.0,-70.0,76.0,163.0,112,42,116,61,47
2025-03-17 18:24:41.774,-459.0,-116.0,-42.0,-89.0,75.0,123.0,111,42,115,66,47
2025-03-17 18:24:41.798,-698.0,508.0,246.0,-61.0,1.0,68.0,111,42,116,67,46
2025-03-17 18:24:41.823,-910.0,1152.0,222.0,21.0,33.0,-47.0,111,42,115,61,45
2025-03-17 18:24:41.847,-1285.0,1867.0,-217.0,132.0,44.0,-172.0,111,39,116,60,45
2025-03-17 18:24:41.872,-1916.0,2825.0,-1169.0,293.0,-79.0,-503.0,105,38,115,65,45
2025-03-17 18:24:41.892,414.0,3720.0,-1411.0,-59.0,-602.0,-869.0,108,40,115,65,44
2025-03-17 18:24:41.917,7270.0,-4547.0,1509.0,-324.0,-526.0,-594.0,107,39,118,68,46
2025-03-17 18:24:41.942,4844.0,-7821.0,744.0,297.0,338.0,26.0,108,35,116,56,44
2025-03-17 18:24:41.963,1233.0,-1166.0,-1203.0,-139.0,687.0,297.0,111,38,118,63,48
2025-03-17 18:24:41.991,-359.0,-680.0,-1230.0,340.0,-78.0,215.0,116,42,116,67,50
2025-03-17 18:24:42.015,493.0,-1390.0,248.0,296.0,57.0,167.0,117,42,117,67,50
2025-03-17 18:24:42.037,715.0,-2070.0,379.0,201.0,255.0,281.0,118,44,118,66,51
2025-03-17 18:24:42.061,220.0,-843.0,318.0,266.0,149.0,381.0,133,44,117,64,50
2025-03-17 18:24:42.085,-619.0,-79.0,-335.0,351.0,21.0,341.0,138,43,118,55,46
2025-03-17 18:24:42.108,-178.0,20.0,346.0,360.0,37.0,295.0,138,44,118,47,53
2025-03-17 18:24:42.134,54.0,-83.0,669.0,315.0,82.0,319.0,136,43,118,64,60
2025-03-17 18:24:42.158,-290.0,543.0,107.0,213.0,2.0,328.0,140,40,117,63,53
2025-03-17 18:24:42.183,-322.0,917.0,715.0,109.0,-72.0,269.0,129,43,115,62,65
2025-03-17 18:24:42.205,-309.0,875.0,1188.0,149.0,-47.0,92.0,134,42,116,72,75
2025-03-17 18:24:42.228,-233.0,674.0,904.0,190.0,44.0,92.0,140,42,118,63,71
2025-03-17 18:24:42.240,-797.0,1458.0,507.0,100.0,-30.0,10.0,141,43,118,66,84
2025-03-17 18:24:42.278,-659.0,1505.0,485.0,18.0,-101.0,-65.0,144,43,119,70,87
2025-03-17 18:24:42.302,-794.0,2199.0,10.0,149.0,-86.0,-182.0,145,42,122,71,101
2025-03-17 18:24:42.326,-1455.0,3346.0,-516.0,158.0,-208.0,-384.0,145,43,123,58,110
2025-03-17 18:24:42.337,-276.0,2404.0,122.0,98.0,-423.0,-481.0,143,40,125,77,114
2025-03-17 18:24:42.375,1543.0,448.0,1627.0,28.0,-422.0,-409.0,142,43,127,80,116
2025-03-17 18:24:42.396,2445.0,-1623.0,2463.0,-51.0,-173.0,-252.0,143,41,129,78,120
2025-03-17 18:24:42.422,1796.0,-2375.0,2050.0,-70.0,71.0,-49.0,145,42,130,49,122
2025-03-17 18:24:42.446,1482.0,-1723.0,1506.0,-63.0,124.0,94.0,145,44,131,69,126
2025-03-17 18:24:42.470,564.0,-812.0,1124.0,-15.0,138.0,171.0,145,44,132,75,128
2025-03-17 18:24:42.494,-73.0,-40.0,908.0,-17.0,133.0,200.0,145,44,133,72,128
2025-03-17 18:24:42.519,-406.0,518.0,811.0,-15.0,105.0,195.0,146,45,133,79,128
2025-03-17 18:24:42.540,-481.0,779.0,894.0,4.0,83.0,144.0,150,45,133,77,129
2025-03-17 18:24:42.564,-490.0,901.0,880.0,14.0,102.0,111.0,149,45,133,78,128
2025-03-17 18:24:42.589,-571.0,1027.0,558.0,33.0,112.0,71.0,145,43,131,81,128
2025-03-17 18:24:42.613,-579.0,978.0,430.0,46.0,84.0,44.0,140,42,132,75,127
2025-03-17 18:24:42.637,-771.0,1461.0,422.0,34.0,42.0,-3.0,146,44,134,76,128
2025-03-17 18:24:42.663,-948.0,1718.0,210.0,-19.0,7.0,-50.0,147,41,134,76,127
2025-03-17 18:24:42.683,-1306.0,2598.0,-282.0,-78.0,-27.0,-173.0,146,44,132,74,127
2025-03-17 18:24:42.708,-1624.0,2487.0,-887.0,-64.0,-111.0,-332.0,145,44,132,79,112
2025-03-17 18:24:42.733,-738.0,1878.0,-749.0,-9.0,-325.0,-427.0,142,40,133,80,129
2025-03-17 18:24:42.757,2058.0,-265.0,1158.0,-21.0,-424.0,-399.0,144,45,133,81,129
2025-03-17 18:24:42.782,3708.0,-3527.0,1404.0,-130.0,-202.0,-138.0,145,45,132,72,129
2025-03-17 18:24:42.806,2500.0,-3088.0,1989.0,-50.0,31.0,90.0,146,44,133,76,130
2025-03-17 18:24:42.830,1375.0,-1214.0,1953.0,48.0,76.0,182.0,148,44,134,77,129
2025-03-17 18:24:42.854,-227.0,183.0,1688.0,-188.0,102.0,202.0,147,46,133,80,129
2025-03-17 18:24:42.879,-250.0,258.0,1769.0,-292.0,104.0,196.0,148,45,133,83,129
2025-03-17 18:24:42.900,-54.0,496.0,2074.0,-366.0,277.0,228.0,147,46,132,82,128
2025-03-17 18:24:42.925,2.0,-31.0,1736.0,-401.0,472.0,319.0,147,46,133,78,122
2025-03-17 18:24:42.949,67.0,353.0,1044.0,-291.0,497.0,340.0,144,45,130,75,104
2025-03-17 18:24:42.974,-545.0,800.0,186.0,-257.0,449.0,313.0,146,46,130,67,91
2025-03-17 18:24:42.999,-1092.0,717.0,-473.0,-227.0,304.0,187.0,145,47,130,75,92
2025-03-17 18:24:43.023,-925.0,937.0,-396.0,-43.0,181.0,5.0,143,50,136,79,96
2025-03-17 18:24:43.047,-710.0,-11.0,-53.0,-37.0,73.0,-31.0,125,57,140,84,98
2025-03-17 18:24:43.068,-275.0,505.0,-286.0,-116.0,9.0,-36.0,112,44,142,88,104
2025-03-17 18:24:43.090,-729.0,1003.0,-1640.0,-123.0,-111.0,-116.0,108,59,142,90,109
2025-03-17 18:24:43.114,-628.0,2189.0,-1876.0,-82.0,-300.0,-327.0,107,67,145,91,109
2025-03-17 18:24:43.142,-332.0,2356.0,-1471.0,-82.0,-495.0,-596.0,106,73,145,92,118
2025-03-17 18:24:43.164,470.0,1160.0,-832.0,-163.0,-633.0,-777.0,106,70,145,94,120
2025-03-17 18:24:43.191,3889.0,-280.0,-934.0,-338.0,-907.0,-692.0,110,76,145,97,119
2025-03-17 18:24:43.215,4373.0,-4540.0,705.0,-610.0,-787.0,-249.0,113,82,146,97,124
2025-03-17 18:24:43.240,2720.0,-6926.0,-172.0,-305.0,-190.0,132.0,101,88,144,97,125
2025-03-17 18:24:43.261,449.0,-1495.0,-1206.0,-272.0,374.0,273.0,125,82,147,98,126
2025-03-17 18:24:43.283,-431.0,-1408.0,-1223.0,718.0,-220.0,226.0,126,93,148,99,127
2025-03-17 18:24:43.310,101.0,-1074.0,-654.0,307.0,137.0,193.0,123,92,148,100,126
2025-03-17 18:24:43.332,-186.0,-1155.0,-319.0,-136.0,63.0,199.0,99,87,147,100,126
2025-03-17 18:24:43.359,-27.0,-939.0,304.0,-89.0,225.0,216.0,117,89,147,101,125
2025-03-17 18:24:43.383,52.0,-442.0,293.0,143.0,208.0,239.0,114,83,148,101,124
2025-03-17 18:24:43.404,-335.0,-167.0,83.0,246.0,126.0,214.0,122,91,148,100,125
2025-03-17 18:24:43.429,-111.0,-143.0,295.0,84.0,225.0,225.0,117,93,147,105,124
2025-03-17 18:24:43.453,147.0,706.0,278.0,141.0,132.0,240.0,114,87,147,100,119
2025-03-17 18:24:43.471,-333.0,-231.0,313.0,224.0,167.0,296.0,112,91,146,101,124
2025-03-17 18:24:43.502,-469.0,931.0,63.0,333.0,108.0,297.0,112,91,147,102,126
2025-03-17 18:24:43.513,-873.0,3039.0,-1185.0,294.0,-71.0,89.0,114,82,148,102,125
2025-03-17 18:24:43.552,-1231.0,4158.0,-2352.0,202.0,-302.0,-469.0,112,83,147,101,121
2025-03-17 18:24:43.575,505.0,2539.0,-894.0,-71.0,-550.0,-883.0,110,88,148,103,126
2025-03-17 18:24:43.597,5039.0,-2879.0,1055.0,-381.0,-791.0,-735.0,108,94,146,101,125
2025-03-17 18:24:43.624,3601.0,-6549.0,748.0,-82.0,-168.0,-95.0,114,104,148,105,126
2025-03-17 18:24:43.646,1731.0,-4053.0,-25.0,-233.0,373.0,187.0,106,104,148,102,128
2025-03-17 18:24:43.670,-992.0,-2645.0,253.0,-147.0,162.0,390.0,115,100,147,103,129
2025-03-17 18:24:43.695,-575.0,-1002.0,-988.0,486.0,40.0,200.0,116,89,148,101,128
2025-03-17 18:24:43.719,-563.0,-1101.0,266.0,280.0,104.0,168.0,115,78,147,104,126
2025-03-17 18:24:43.744,-279.0,-939.0,30.0,270.0,84.0,191.0,131,65,145,103,127
2025-03-17 18:24:43.768,-209.0,206.0,117.0,458.0,39.0,161.0,127,56,143,100,126
2025-03-17 18:24:43.789,-316.0,-128.0,370.0,487.0,-5.0,131.0,129,38,138,93,127
2025-03-17 18:24:43.810,42.0,-75.0,468.0,401.0,-26.0,172.0,120,39,137,83,127
2025-03-17 18:24:43.838,77.0,71.0,319.0,287.0,10.0,188.0,123,34,133,69,125
2025-03-17 18:24:43.863,-181.0,102.0,423.0,265.0,34.0,163.0,126,41,133,65,117
2025-03-17 18:24:43.883,-413.0,675.0,422.0,218.0,10.0,122.0,123,39,132,37,127
2025-03-17 18:24:43.911,-951.0,2149.0,277.0,162.0,-53.0,40.0,120,43,134,63,125
2025-03-17 18:24:43.931,-1271.0,2847.0,183.0,149.0,-81.0,-139.0,112,43,135,52,128
2025-03-17 18:24:43.960,-1480.0,2781.0,50.0,138.0,-119.0,-284.0,111,42,135,69,122
2025-03-17 18:24:43.982,-1066.0,2402.0,181.0,28.0,-235.0,-391.0,115,43,135,67,123
2025-03-17 18:24:44.005,958.0,437.0,1319.0,-63.0,-295.0,-395.0,110,40,135,60,128
2025-03-17 18:24:44.030,2265.0,-2060.0,2072.0,-58.0,-123.0,-262.0,120,32,136,82,129
2025-03-17 18:24:44.055,1804.0,-3186.0,1839.0,-86.0,-14.0,-25.0,120,42,137,61,129
2025-03-17 18:24:44.080,1378.0,-2192.0,1754.0,-87.0,45.0,148.0,110,42,137,77,131
2025-03-17 18:24:44.104,313.0,-887.0,1253.0,-23.0,105.0,207.0,125,44,137,49,133
2025-03-17 18:24:44.125,-341.0,88.0,924.0,-50.0,98.0,204.0,125,44,138,77,133
2025-03-17 18:24:44.149,-500.0,343.0,962.0,-57.0,59.0,180.0,123,44,137,80,132
2025-03-17 18:24:44.174,-566.0,513.0,943.0,-26.0,53.0,119.0,123,44,137,87,133
2025-03-17 18:24:44.199,-609.0,691.0,826.0,1.0,63.0,105.0,121,44,137,84,132
2025-03-17 18:24:44.223,-702.0,768.0,715.0,1.0,49.0,78.0,115,40,137,84,132
2025-03-17 18:24:44.247,-624.0,635.0,650.0,5.0,34.0,60.0,118,39,137,81,130
2025-03-17 18:24:44.272,-553.0,646.0,739.0,18.0,44.0,51.0,116,42,138,79,122
2025-03-17 18:24:44.291,-559.0,817.0,715.0,11.0,46.0,45.0,118,42,138,78,126
2025-03-17 18:24:44.318,-721.0,1303.0,588.0,-9.0,28.0,14.0,119,44,137,87,133
2025-03-17 18:24:44.342,-1038.0,1940.0,199.0,-27.0,30.0,-59.0,119,45,137,82,133
2025-03-17 18:24:44.366,-1462.0,2814.0,-395.0,-16.0,13.0,-186.0,117,44,138,84,132
2025-03-17 18:24:44.391,-1414.0,2650.0,-940.0,-15.0,-112.0,-390.0,115,43,137,84,132
2025-03-17 18:24:44.405,842.0,543.0,48.0,-43.0,-319.0,-478.0,115,44,137,84,132
2025-03-17 18:24:44.440,2945.0,-2799.0,1593.0,-11.0,-249.0,-304.0,122,44,135,83,133
2025-03-17 18:24:44.458,3033.0,-3960.0,2379.0,12.0,-40.0,-39.0,123,41,138,72,132
2025-03-17 18:24:44.486,2267.0,-1938.0,2912.0,-113.0,118.0,126.0,122,45,138,84,133
2025-03-17 18:24:44.510,-121.0,-733.0,902.0,-104.0,76.0,166.0,118,45,138,70,134
2025-03-17 18:24:44.534,-864.0,93.0,1342.0,-137.0,11.0,135.0,120,45,138,81,135
2025-03-17 18:24:44.559,-667.0,75.0,2124.0,-151.0,84.0,124.0,116,46,137,88,133
2025-03-17 18:24:44.582,-316.0,0.0,2140.0,-194.0,204.0,141.0,123,46,136,87,131
2025-03-17 18:24:44.608,-165.0,-87.0,1683.0,-200.0,297.0,176.0,130,43,135,94,120
2025-03-17 18:24:44.632,-553.0,90.0,737.0,-210.0,339.0,184.0,130,44,135,89,90
2025-03-17 18:24:44.653,-517.0,89.0,366.0,-247.0,293.0,193.0,136,49,136,83,57
2025-03-17 18:24:44.678,-707.0,156.0,59.0,-219.0,209.0,149.0,138,59,137,84,46
2025-03-17 18:24:44.702,-528.0,92.0,222.0,-170.0,184.0,134.0,140,62,143,72,42
2025-03-17 18:24:44.727,-439.0,89.0,-156.0,-53.0,212.0,102.0,142,64,144,81,32
2025-03-17 18:24:44.752,-748.0,736.0,-798.0,25.0,153.0,30.0,142,73,145,63,48
2025-03-17 18:24:44.776,-803.0,1406.0,-1123.0,1.0,-8.0,-103.0,143,77,144,72,47
2025-03-17 18:24:44.800,-505.0,1529.0,-1367.0,-16.0,-133.0,-316.0,139,81,147,76,40
2025-03-17 18:24:44.821,-441.0,1686.0,-1869.0,62.0,-303.0,-525.0,140,93,146,69,38
2025-03-17 18:24:44.846,-56.0,2050.0,-2097.0,113.0,-654.0,-689.0,116,78,147,58,37
2025-03-17 18:24:44.871,2781.0,1396.0,-980.0,-33.0,-948.0,-828.0,115,92,149,76,37
2025-03-17 18:24:44.895,4976.0,-3154.0,1839.0,-13.0,-795.0,-543.0,114,102,150,75,39
2025-03-17 18:24:44.919,4955.0,-4609.0,2579.0,-103.0,-204.0,39.0,109,104,147,67,42
2025-03-17 18:24:44.937,2297.0,-3089.0,1482.0,38.0,204.0,140.0,122,110,148,81,43
2025-03-17 18:24:44.968,653.0,-1811.0,781.0,-59.0,116.0,224.0,117,112,148,86,41
2025-03-17 18:24:44.987,347.0,-1464.0,573.0,-22.0,106.0,230.0,128,112,148,86,44
2025-03-17 18:24:45.014,101.0,-885.0,499.0,-17.0,132.0,244.0,127,112,148,86,45
2025-03-17 18:24:45.035,-43.0,-700.0,462.0,0.0,153.0,225.0,135,113,148,83,45
2025-03-17 18:24:45.063,-28.0,-333.0,356.0,35.0,131.0,214.0,134,113,149,82,40
2025-03-17 18:24:45.087,-15.0,-153.0,290.0,3.0,96.0,163.0,134,113,149,72,45
2025-03-17 18:24:45.112,-97.0,-204.0,363.0,-19.0,101.0,162.0,130,112,149,73,45
2025-03-17 18:24:45.133,14.0,-374.0,502.0,0.0,141.0,190.0,133,98,148,75,44
2025-03-17 18:24:45.158,-268.0,55.0,291.0,-12.0,171.0,222.0,132,100,149,77,44
2025-03-17 18:24:45.182,-747.0,986.0,-92.0,-86.0,123.0,226.0,134,107,148,77,44
2025-03-17 18:24:45.206,-1287.0,1496.0,-805.0,37.0,34.0,51.0,131,103,149,77,44
2025-03-17 18:24:45.229,-1726.0,4033.0,-1564.0,175.0,-174.0,-380.0,133,109,149,78,44
2025-03-17 18:24:45.255,-350.0,2372.0,-1264.0,89.0,-574.0,-736.0,133,112,149,79,46
2025-03-17 18:24:45.279,4116.0,-1372.0,677.0,190.0,-644.0,-779.0,138,112,149,75,47
2025-03-17 18:24:45.304,4606.0,-4224.0,3130.0,63.0,-203.0,-219.0,135,113,151,77,48
2025-03-17 18:24:45.325,2958.0,-3018.0,2362.0,-7.0,160.0,71.0,134,113,150,82,43
2025-03-17 18:24:45.350,591.0,-1796.0,911.0,-70.0,167.0,148.0,136,112,152,82,50
2025-03-17 18:24:45.375,765.0,-1590.0,701.0,107.0,179.0,174.0,131,112,148,82,50
2025-03-17 18:24:45.399,426.0,-1370.0,670.0,158.0,233.0,201.0,130,110,149,84,52
2025-03-17 18:24:45.423,452.0,-1167.0,245.0,149.0,206.0,236.0,140,104,149,83,54
2025-03-17 18:24:45.434,298.0,-792.0,49.0,261.0,190.0,250.0,142,86,148,81,55
2025-03-17 18:24:45.472,157.0,-183.0,10.0,322.0,191.0,252.0,145,70,146,86,57
2025-03-17 18:24:45.493,-196.0,45.0,-163.0,270.0,126.0,254.0,144,59,140,62,66
2025-03-17 18:24:45.518,-49.0,8.0,-113.0,179.0,20.0,271.0,147,37,136,74,72
2025-03-17 18:24:45.542,-66.0,323.0,210.0,142.0,-29.0,236.0,132,45,134,53,85
2025-03-17 18:24:45.567,-174.0,556.0,324.0,129.0,-54.0,209.0,145,48,130,79,91
2025-03-17 18:24:45.591,-345.0,924.0,375.0,147.0,-60.0,159.0,146,45,127,74,114
2025-03-17 18:24:45.615,-514.0,1918.0,573.0,164.0,-81.0,82.0,145,46,126,76,120
2025-03-17 18:24:45.640,-1015.0,2844.0,569.0,143.0,-64.0,-85.0,142,42,128,79,124
2025-03-17 18:24:45.664,-1388.0,3443.0,336.0,131.0,-65.0,-256.0,145,47,129,69,125
2025-03-17 18:24:45.686,-1191.0,3315.0,-69.0,181.0,-98.0,-459.0,143,47,128,79,126
2025-03-17 18:24:45.708,22.0,1776.0,127.0,191.0,-265.0,-502.0,142,40,129,71,127
2025-03-17 18:24:45.734,1941.0,352.0,1651.0,-4.0,-430.0,-400.0,143,45,130,82,128
2025-03-17 18:24:45.759,3649.0,-3128.0,2991.0,-161.0,-234.0,-173.0,145,46,130,75,118
2025-03-17 18:24:45.783,2997.0,-3113.0,2256.0,-134.0,52.0,47.0,140,47,130,77,130
2025-03-17 18:24:45.804,1696.0,-1796.0,1860.0,23.0,178.0,184.0,138,48,131,78,131
2025-03-17 18:24:45.829,-6.0,-51.0,938.0,-41.0,168.0,244.0,143,48,131,83,131
2025-03-17 18:24:45.853,-380.0,341.0,787.0,-137.0,69.0,226.0,144,50,130,72,131
2025-03-17 18:24:45.878,-260.0,104.0,1082.0,-39.0,63.0,195.0,145,51,132,69,131
2025-03-17 18:24:45.903,-484.0,847.0,898.0,-27.0,102.0,176.0,145,51,133,76,131
2025-03-17 18:24:45.927,-514.0,841.0,601.0,-1.0,126.0,131.0,146,52,133,77,132
2025-03-17 18:24:45.950,-592.0,969.0,377.0,75.0,75.0,95.0,146,51,133,72,132
2025-03-17 18:24:45.976,-615.0,1237.0,554.0,51.0,26.0,54.0,145,49,136,77,131
2025-03-17 18:24:45.996,-447.0,1026.0,739.0,25.0,14.0,24.0,145,50,134,78,109
2025-03-17 18:24:46.021,-541.0,1378.0,551.0,13.0,23.0,1.0,144,51,134,77,115
2025-03-17 18:24:46.034,-990.0,2270.0,315.0,11.0,35.0,-88.0,143,52,135,77,127
2025-03-17 18:24:46.070,-1393.0,2871.0,-558.0,-10.0,-17.0,-243.0,144,52,136,81,129
2025-03-17 18:24:46.095,-1110.0,2512.0,-916.0,-48.0,-185.0,-432.0,145,50,136,80,129
2025-03-17 18:24:46.120,861.0,190.0,-174.0,-70.0,-399.0,-472.0,146,52,137,82,125
2025-03-17 18:24:46.144,2699.0,-2539.0,1665.0,-7.0,-346.0,-273.0,147,53,138,78,130
2025-03-17 18:24:46.169,3105.0,-3139.0,3088.0,-80.0,-55.0,-42.0,144,53,140,69,133
2025-03-17 18:24:46.188,1832.0,-2928.0,1881.0,-3.0,48.0,126.0,147,54,139,68,131
2025-03-17 18:24:46.214,322.0,-777.0,1673.0,-87.0,61.0,199.0,146,53,138,82,134
2025-03-17 18:24:46.239,-54.0,-330.0,1735.0,-209.0,79.0,192.0,144,54,137,83,133
2025-03-17 18:24:46.263,-169.0,-196.0,1712.0,-154.0,128.0,215.0,147,54,133,87,133
2025-03-17 18:24:46.287,-190.0,288.0,1783.0,-124.0,216.0,210.0,147,53,130,78,133
2025-03-17 18:24:46.312,-266.0,747.0,1564.0,-198.0,304.0,186.0,147,52,130,76,113
2025-03-17 18:24:46.336,-554.0,894.0,1284.0,-288.0,276.0,191.0,148,50,126,69,76
2025-03-17 18:24:46.354,-261.0,322.0,913.0,-364.0,287.0,180.0,143,36,123,59,48
2025-03-17 18:24:46.380,-248.0,-22.0,1052.0,-299.0,360.0,197.0,147,41,119,61,48
2025-03-17 18:24:46.407,-693.0,559.0,-521.0,-257.0,319.0,127.0,145,45,117,56,41
2025-03-17 18:24:46.431,-800.0,708.0,-399.0,-187.0,190.0,37.0,146,45,114,63,36
2025-03-17 18:24:46.453,-572.0,1535.0,-652.0,-183.0,88.0,-47.0,140,45,112,60,34
2025-03-17 18:24:46.479,-273.0,2111.0,-1294.0,-86.0,0.0,-143.0,137,43,112,65,31
2025-03-17 18:24:46.504,-34.0,3019.0,-1560.0,136.0,-67.0,-348.0,130,41,113,71,33
2025-03-17 18:24:46.529,-289.0,3276.0,-2162.0,191.0,-306.0,-682.0,120,33,111,67,33
2025-03-17 18:24:46.550,785.0,3574.0,-2310.0,112.0,-787.0,-1087.0,113,39,111,66,34
2025-03-17 18:24:46.575,10360.0,663.0,1871.0,-487.0,-1137.0,-1013.0,102,42,114,64,37
2025-03-17 18:24:46.598,7282.0,-10774.0,1684.0,-203.0,22.0,-72.0,96,27,112,63,33
2025-03-17 18:24:46.623,1938.0,-3287.0,-1031.0,244.0,543.0,323.0,86,37,108,52,36
2025-03-17 18:24:46.648,0.0,-11.0,-753.0,47.0,-141.0,192.0,108,38,109,60,40
2025-03-17 18:24:46.672,924.0,-2449.0,1257.0,-5.0,0.0,203.0,107,40,111,64,38
2025-03-17 18:24:46.693,519.0,-1701.0,883.0,54.0,130.0,292.0,103,34,113,41,40
2025-03-17 18:24:46.718,136.0,-725.0,238.0,-52.0,104.0,307.0,108,42,111,60,34
2025-03-17 18:24:46.743,141.0,-456.0,463.0,-137.0,122.0,266.0,110,32,111,59,36
2025-03-17 18:24:46.767,66.0,-651.0,160.0,-41.0,59.0,259.0,111,38,113,63,41
2025-03-17 18:24:46.791,47.0,-403.0,206.0,-94.0,103.0,265.0,113,41,113,44,36
2025-03-17 18:24:46.816,17.0,-242.0,262.0,-150.0,119.0,290.0,117,32,112,52,39
2025-03-17 18:24:46.841,-191.0,-370.0,179.0,-10.0,69.0,275.0,117,39,114,57,39
2025-03-17 18:24:46.862,-225.0,68.0,87.0,94.0,78.0,312.0,122,43,113,54,40
2025-03-17 18:24:46.886,-189.0,1102.0,-428.0,169.0,80.0,381.0,125,39,114,55,40
2025-03-17 18:24:46.911,-676.0,2849.0,-1144.0,342.0,35.0,168.0,126,41,115,58,40
2025-03-17 18:24:46.934,-1184.0,4760.0,-2300.0,310.0,-162.0,-382.0,117,27,113,62,41
2025-03-17 18:24:46.959,-616.0,3032.0,-2177.0,83.0,-534.0,-880.0,107,40,113,67,40
2025-03-17 18:24:46.981,3518.0,795.0,-231.0,153.0,-1018.0,-1082.0,104,36,112,65,42
2025-03-17 18:24:47.009,8314.0,-5965.0,4696.0,-283.0,-260.0,-270.0,98,40,114,51,40
2025-03-17 18:24:47.029,2868.0,-4460.0,770.0,281.0,344.0,92.0,95,34,109,53,41
2025-03-17 18:24:47.054,-1180.0,-172.0,-1322.0,-481.0,125.0,95.0,98,39,111,61,41
2025-03-17 18:24:47.078,182.0,-1909.0,724.0,283.0,-50.0,73.0,96,41,111,65,41
2025-03-17 18:24:47.103,-388.0,-29.0,434.0,146.0,-21.0,14.0,99,43,113,65,43
2025-03-17 18:24:47.127,70.0,-892.0,901.0,-24.0,25.0,0.0,100,44,114,68,44
2025-03-17 18:24:47.151,-42.0,-852.0,441.0,-92.0,54.0,-8.0,93,42,113,68,44
2025-03-17 18:24:47.176,108.0,-1013.0,316.0,40.0,0.0,1.0,102,38,114,69,43
2025-03-17 18:24:47.197,87.0,-823.0,415.0,54.0,-2.0,8.0,104,43,113,64,43
2025-03-17 18:24:47.222,81.0,-766.0,543.0,22.0,16.0,9.0,101,45,113,62,44
2025-03-17 18:24:47.246,-34.0,-729.0,523.0,-25.0,11.0,-2.0,104,44,114,56,43
2025-03-17 18:24:47.270,21.0,-881.0,524.0,-9.0,5.0,0.0,104,39,114,64,44
2025-03-17 18:24:47.295,105.0,-955.0,577.0,19.0,5.0,8.0,106,45,115,66,44
2025-03-17 18:24:47.319,-17.0,-839.0,559.0,5.0,9.0,10.0,105,44,115,64,44
2025-03-17 18:24:47.344,-69.0,-744.0,558.0,-28.0,-2.0,-1.0,106,46,115,63,44
2025-03-17 18:24:47.365,80.0,-944.0,646.0,-13.0,-7.0,-1.0,105,43,115,58,45
2025-03-17 18:24:47.390,28.0,-902.0,592.0,4.0,16.0,8.0,105,43,116,62,46
2025-03-17 18:24:47.414,-49.0,-799.0,546.0,-14.0,12.0,7.0,104,41,114,68,45
2025-03-17 18:24:47.437,-45.0,-845.0,517.0,-6.0,-3.0,-1.0,106,43,114,65,44
2025-03-17 18:24:47.463,-14.0,-930.0,544.0,5.0,-7.0,0.0,106,45,115,67,46
2025-03-17 18:24:47.487,51.0,-897.0,585.0,4.0,3.0,4.0,110,47,116,69,47
2025-03-17 18:24:47.509,1.0,-890.0,519.0,-3.0,6.0,7.0,109,47,117,69,47
2025-03-17 18:24:47.531,-21.0,-837.0,520.0,-1.0,11.0,3.0,113,53,120,66,51
2025-03-17 18:24:47.558,-20.0,-836.0,545.0,1.0,6.0,2.0,113,54,121,71,52
2025-03-17 18:24:47.579,20.0,-891.0,582.0,6.0,1.0,5.0,118,57,124,71,55
2025-03-17 18:24:47.605,-39.0,-808.0,566.0,-1.0,3.0,5.0,110,47,115,58,45
2025-03-17 18:24:47.630,-33.0,-807.0,551.0,-19.0,5.0,-1.0,108,46,114,54,45
2025-03-17 18:24:47.656,-8.0,-893.0,519.0,-29.0,15.0,-1.0,107,47,115,61,45
2025-03-17 18:24:47.680,-42.0,-872.0,492.0,-9.0,14.0,5.0,109,47,114,61,45
2025-03-17 18:24:47.701,-77.0,-807.0,504.0,4.0,2.0,2.0,109,47,116,68,46
2025-03-17 18:24:47.726,-66.0,-843.0,539.0,-6.0,-6.0,-3.0,114,51,119,69,49
2025-03-17 18:24:47.750,3.0,-913.0,570.0,0.0,4.0,2.0,115,53,120,71,52
2025-03-17 18:24:47.775,-42.0,-825.0,542.0,5.0,5.0,3.0,118,54,119,72,54
2025-03-17 18:24:47.799,-36.0,-839.0,556.0,-6.0,1.0,-2.0,113,52,119,70,50
2025-03-17 18:24:47.824,-26.0,-905.0,536.0,-8.0,1.0,0.0,111,48,116,67,46
2025-03-17 18:24:47.848,-40.0,-870.0,509.0,2.0,2.0,4.0,111,49,116,67,47
2025-03-17 18:24:47.869,-48.0,-857.0,510.0,0.0,0.0,2.0,111,49,116,68,47
2025-03-17 18:24:47.894,-65.0,-866.0,509.0,-3.0,-2.0,1.0,112,49,117,69,47
2025-03-17 18:24:47.918,-16.0,-876.0,572.0,-3.0,-1.0,1.0,113,50,118,69,48
2025-03-17 18:24:47.943,-60.0,-867.0,533.0,1.0,3.0,4.0,113,52,119,71,49
2025-03-17 18:24:47.967,-77.0,-821.0,492.0,-3.0,-2.0,1.0,115,53,119,71,50
2025-03-17 18:24:47.991,-40.0,-875.0,545.0,-6.0,-4.0,1.0,116,53,119,70,50
2025-03-17 18:24:48.015,-39.0,-872.0,571.0,-2.0,0.0,3.0,117,52,118,72,49
2025-03-17 18:24:48.037,-72.0,-820.0,517.0,1.0,2.0,2.0,113,50,117,69,48
2025-03-17 18:24:48.060,-60.0,-839.0,508.0,-4.0,-5.0,-3.0,113,48,116,68,47
2025-03-17 18:24:48.086,-21.0,-896.0,547.0,-6.0,-6.0,-1.0,114,48,117,69,47
2025-03-17 18:24:48.108,-34.0,-860.0,539.0,0.0,0.0,1.0,115,51,120,72,51
2025-03-17 18:24:48.135,-55.0,-855.0,530.0,-2.0,-1.0,2.0,117,51,119,72,50
2025-03-17 18:24:48.160,-60.0,-848.0,534.0,-4.0,-2.0,0.0,116,52,119,72,51
2025-03-17 18:24:48.180,-41.0,-867.0,529.0,-2.0,-1.0,2.0,117,52,120,72,51
2025-03-17 18:24:48.205,-42.0,-826.0,552.0,-5.0,1.0,4.0,117,53,121,71,51
2025-03-17 18:24:48.230,-59.0,-879.0,560.0,-10.0,2.0,5.0,112,47,115,67,46
2025-03-17 18:24:48.254,-64.0,-848.0,531.0,-3.0,6.0,5.0,113,48,117,68,48
2025-03-17 18:24:48.278,-78.0,-853.0,532.0,-6.0,2.0,1.0,114,49,116,70,48
2025-03-17 18:24:48.303,-66.0,-877.0,528.0,-7.0,2.0,-2.0,113,48,117,70,48
2025-03-17 18:24:48.327,-56.0,-896.0,507.0,-3.0,3.0,1.0,116,52,119,71,50
2025-03-17 18:24:48.350,-63.0,-841.0,500.0,-1.0,1.0,-2.0,117,53,120,72,51
2025-03-17 18:24:48.373,-51.0,-894.0,514.0,-3.0,0.0,-2.0,117,53,120,72,51
2025-03-17 18:24:48.397,-36.0,-919.0,542.0,-1.0,1.0,0.0,118,53,122,72,51
2025-03-17 18:24:48.422,-63.0,-898.0,530.0,1.0,1.0,3.0,116,51,119,70,50
2025-03-17 18:24:48.447,-100.0,-839.0,516.0,3.0,-1.0,2.0,115,50,119,70,49
2025-03-17 18:24:48.471,-61.0,-870.0,558.0,-3.0,-2.0,-1.0,114,51,117,69,48
2025-03-17 18:24:48.495,-54.0,-895.0,559.0,-2.0,3.0,3.0,115,49,118,71,49
2025-03-17 18:24:48.520,-86.0,-830.0,515.0,0.0,2.0,1.0,118,53,120,73,52
2025-03-17 18:24:48.543,-73.0,-837.0,519.0,-4.0,-2.0,-2.0,120,52,119,71,50
2025-03-17 18:24:48.566,-48.0,-888.0,544.0,-7.0,1.0,-2.0,114,51,120,73,51
2025-03-17 18:24:48.590,-51.0,-878.0,522.0,0.0,6.0,2.0,118,52,120,73,52
2025-03-17 18:24:48.614,-82.0,-847.0,498.0,-2.0,1.0,1.0,118,53,121,72,52
2025-03-17 18:24:48.639,-66.0,-887.0,517.0,-7.0,-2.0,1.0,114,48,116,68,48
2025-03-17 18:24:48.662,-67.0,-877.0,514.0,-1.0,0.0,2.0,114,48,117,69,48
2025-03-17 18:24:48.688,-72.0,-867.0,535.0,-1.0,0.0,0.0,115,49,117,70,48
2025-03-17 18:24:48.711,-94.0,-866.0,518.0,-6.0,-1.0,-2.0,115,50,117,70,49
2025-03-17 18:24:48.733,-63.0,-926.0,500.0,-1.0,-2.0,0.0,116,51,119,72,51
2025-03-17 18:24:48.758,-85.0,-880.0,512.0,1.0,-6.0,1.0,118,52,122,74,53
2025-03-17 18:24:48.782,-50.0,-889.0,553.0,-2.0,-3.0,2.0,119,51,121,74,49
2025-03-17 18:24:48.806,-93.0,-856.0,529.0,-2.0,-1.0,1.0,119,53,120,74,53
2025-03-17 18:24:48.831,-71.0,-878.0,528.0,-3.0,-2.0,0.0,117,52,121,73,48
2025-03-17 18:24:48.855,-57.0,-881.0,510.0,-2.0,0.0,3.0,116,49,118,71,49
2025-03-17 18:24:48.879,-82.0,-855.0,507.0,1.0,2.0,4.0,115,49,116,70,48
