timestamp,ax,ay,az,gx,gy,gz,flex1,flex2,flex3,flex4,flex5,emg1,emg2,emg3
2025-02-20 15:44:31.119,-419.0,-117.0,932.0,-1.0,-1.0,0.0,131,109,101,130,122,469,4,469
2025-02-20 15:44:31.135,-419.0,-109.0,931.0,0.0,-1.0,-1.0,132,109,100,130,123,467,4,468
2025-02-20 15:44:31.140,-413.0,-114.0,934.0,0.0,0.0,-1.0,133,109,100,130,122,465,4,467
2025-02-20 15:44:31.143,-415.0,-118.0,931.0,0.0,0.0,-1.0,132,109,100,130,123,463,4,467
2025-02-20 15:44:31.147,-414.0,-121.0,927.0,0.0,0.0,-1.0,131,109,100,129,122,462,4,466
2025-02-20 15:44:31.149,-411.0,-117.0,928.0,0.0,-1.0,0.0,132,109,101,130,122,460,3,465
2025-02-20 15:44:31.152,-414.0,-113.0,933.0,-1.0,-1.0,0.0,132,110,100,131,123,460,3,466
2025-02-20 15:44:31.153,-412.0,-120.0,933.0,0.0,0.0,0.0,132,109,99,130,122,458,4,466
2025-02-20 15:44:31.159,-417.0,-115.0,930.0,1.0,0.0,-1.0,132,109,100,131,123,459,3,466
2025-02-20 15:44:31.177,-422.0,-105.0,928.0,-1.0,0.0,-1.0,132,110,100,130,122,461,3,466
2025-02-20 15:44:31.196,-414.0,-113.0,931.0,-2.0,0.0,-1.0,132,110,99,131,123,463,3,467
2025-02-20 15:44:31.216,-414.0,-122.0,924.0,-1.0,1.0,-1.0,132,109,100,130,122,463,4,466
2025-02-20 15:44:31.232,-419.0,-118.0,914.0,0.0,0.0,-1.0,132,109,100,130,122,465,3,466
2025-02-20 15:44:31.253,-412.0,-116.0,918.0,-1.0,-1.0,-1.0,132,109,100,131,122,467,3,466
2025-02-20 15:44:31.273,-413.0,-120.0,930.0,-1.0,-2.0,-1.0,132,109,100,130,123,468,4,467
2025-02-20 15:44:31.293,-413.0,-128.0,938.0,0.0,-1.0,-1.0,132,109,100,130,123,470,5,466
2025-02-20 15:44:31.311,-412.0,-119.0,940.0,-1.0,-1.0,0.0,133,109,100,130,122,471,3,467
2025-02-20 15:44:31.331,-417.0,-115.0,942.0,-1.0,0.0,-1.0,132,110,100,130,123,470,2,467
2025-02-20 15:44:31.347,-419.0,-112.0,935.0,-1.0,-1.0,0.0,132,110,100,130,123,470,3,467
2025-02-20 15:44:31.367,-417.0,-117.0,931.0,-1.0,-1.0,-1.0,132,109,101,130,122,470,3,471
2025-02-20 15:44:31.388,-418.0,-117.0,934.0,0.0,-1.0,-1.0,133,110,101,130,123,468,3,469
2025-02-20 15:44:31.401,-405.0,-118.0,933.0,-1.0,0.0,0.0,133,110,100,130,123,466,0,467
2025-02-20 15:44:31.425,-409.0,-120.0,928.0,-2.0,0.0,0.0,132,110,100,131,123,465,4,471
2025-02-20 15:44:31.444,-423.0,-116.0,922.0,-1.0,-1.0,0.0,132,108,101,131,123,465,4,466
2025-02-20 15:44:31.462,-415.0,-111.0,923.0,0.0,-2.0,-1.0,132,109,100,131,123,463,3,465
2025-02-20 15:44:31.482,-417.0,-104.0,935.0,0.0,-1.0,-1.0,132,109,100,131,123,462,4,465
2025-02-20 15:44:31.498,-417.0,-112.0,934.0,0.0,0.0,-1.0,132,109,99,130,122,461,0,466
2025-02-20 15:44:31.519,-420.0,-115.0,922.0,0.0,-2.0,-1.0,132,109,100,131,125,462,4,466
2025-02-20 15:44:31.539,-412.0,-123.0,930.0,0.0,-2.0,-1.0,132,109,99,130,122,461,2,465
2025-02-20 15:44:31.560,-411.0,-123.0,931.0,-1.0,-2.0,0.0,132,109,100,130,122,462,4,467
2025-02-20 15:44:31.577,-417.0,-114.0,926.0,-1.0,-2.0,1.0,132,108,101,130,123,460,4,466
2025-02-20 15:44:31.597,-414.0,-106.0,931.0,-2.0,-3.0,1.0,132,109,99,130,122,461,4,465
2025-02-20 15:44:31.614,-417.0,-111.0,915.0,-2.0,-3.0,0.0,132,109,99,131,123,463,4,467
2025-02-20 15:44:31.633,-420.0,-116.0,916.0,-1.0,-3.0,2.0,131,109,100,130,123,462,4,467
2025-02-20 15:44:31.653,-419.0,-107.0,913.0,0.0,-4.0,1.0,133,109,100,132,124,464,4,468
2025-02-20 15:44:31.671,-417.0,-115.0,924.0,-1.0,-6.0,1.0,132,108,100,129,122,465,3,468
2025-02-20 15:44:31.691,-417.0,-123.0,920.0,0.0,-6.0,1.0,132,110,101,133,123,466,4,469
2025-02-20 15:44:31.712,-414.0,-115.0,921.0,1.0,-7.0,2.0,132,110,101,131,123,465,4,467
2025-02-20 15:44:31.728,-417.0,-103.0,934.0,-1.0,-8.0,2.0,132,109,100,131,123,464,5,467
2025-02-20 15:44:31.749,-411.0,-106.0,959.0,1.0,-9.0,1.0,133,110,101,131,123,465,3,467
2025-02-20 15:44:31.768,-407.0,-109.0,956.0,4.0,-8.0,0.0,132,109,102,131,123,465,4,466
2025-02-20 15:44:31.785,-401.0,-92.0,954.0,4.0,-7.0,0.0,133,110,101,131,123,464,5,467
2025-02-20 15:44:31.806,-388.0,-100.0,957.0,2.0,-7.0,-1.0,132,110,102,130,124,463,3,466
2025-02-20 15:44:31.823,-386.0,-105.0,961.0,2.0,-4.0,-2.0,132,111,102,131,123,463,3,466
2025-02-20 15:44:31.842,-388.0,-110.0,952.0,2.0,-2.0,-2.0,132,110,103,132,124,464,4,467
2025-02-20 15:44:31.862,-395.0,-105.0,948.0,3.0,-2.0,-3.0,133,110,101,131,124,462,3,466
2025-02-20 15:44:31.880,-396.0,-100.0,947.0,2.0,-2.0,-3.0,133,110,102,132,125,462,4,467
2025-02-20 15:44:31.900,-389.0,-116.0,950.0,2.0,-2.0,-3.0,132,115,102,131,123,461,3,465
2025-02-20 15:44:31.920,-383.0,-115.0,945.0,2.0,-1.0,-2.0,132,108,103,131,123,462,4,466
2025-02-20 15:44:31.938,-388.0,-113.0,943.0,3.0,-1.0,-1.0,132,111,102,131,123,461,3,465
2025-02-20 15:44:31.948,-385.0,-104.0,946.0,1.0,-2.0,-1.0,132,111,102,132,124,462,4,467
2025-02-20 15:44:31.967,-380.0,-107.0,941.0,0.0,-2.0,-1.0,132,110,102,131,123,463,3,471
2025-02-20 15:44:31.995,-392.0,-113.0,943.0,1.0,-1.0,-1.0,132,110,102,131,123,463,3,468
2025-02-20 15:44:32.015,-394.0,-110.0,946.0,1.0,-1.0,-1.0,132,111,102,131,123,465,3,466
2025-02-20 15:44:32.032,-386.0,-106.0,945.0,1.0,-1.0,-1.0,132,110,102,131,123,467,3,468
2025-02-20 15:44:32.038,-384.0,-104.0,944.0,1.0,-2.0,0.0,133,110,103,131,123,468,4,467
2025-02-20 15:44:32.071,-392.0,-105.0,944.0,0.0,-3.0,0.0,133,111,101,131,124,468,3,468
2025-02-20 15:44:32.075,-389.0,-111.0,951.0,0.0,-2.0,1.0,132,110,102,133,124,469,3,468
2025-02-20 15:44:32.110,-390.0,-101.0,953.0,1.0,-1.0,1.0,132,111,102,131,124,470,3,468
2025-02-20 15:44:32.129,-395.0,-92.0,949.0,1.0,-2.0,1.0,131,110,102,131,123,467,4,468
2025-02-20 15:44:32.146,-401.0,-89.0,951.0,1.0,-2.0,0.0,132,111,102,131,124,468,4,468
2025-02-20 15:44:32.153,-392.0,-88.0,950.0,0.0,-1.0,0.0,133,111,102,131,124,467,3,468
2025-02-20 15:44:32.187,-400.0,-83.0,945.0,0.0,0.0,0.0,132,110,102,132,123,465,3,468
2025-02-20 15:44:32.202,-396.0,-78.0,938.0,0.0,0.0,-1.0,130,111,103,131,124,464,4,468
2025-02-20 15:44:32.221,-395.0,-93.0,937.0,2.0,-1.0,-1.0,132,110,102,131,123,464,3,465
2025-02-20 15:44:32.229,-399.0,-85.0,946.0,2.0,-1.0,-1.0,133,111,104,132,123,462,3,469
2025-02-20 15:44:32.261,-396.0,-90.0,940.0,0.0,-1.0,-1.0,132,110,102,132,123,461,3,467
2025-02-20 15:44:32.268,-385.0,-97.0,937.0,1.0,-2.0,0.0,133,111,101,131,124,462,3,468
2025-02-20 15:44:32.298,-384.0,-96.0,950.0,2.0,-2.0,0.0,132,111,102,130,123,460,4,467
2025-02-20 15:44:32.304,-394.0,-85.0,949.0,1.0,-2.0,0.0,132,110,103,132,124,459,3,467
2025-02-20 15:44:32.336,-383.0,-83.0,954.0,0.0,-1.0,0.0,132,111,103,131,124,460,4,468
2025-02-20 15:44:32.341,-384.0,-97.0,953.0,0.0,-2.0,0.0,133,112,101,132,124,460,4,468
2025-02-20 15:44:32.373,-380.0,-92.0,949.0,2.0,-1.0,-1.0,132,110,102,131,123,459,4,469
2025-02-20 15:44:32.395,-386.0,-85.0,949.0,1.0,-1.0,-1.0,132,111,101,131,124,458,3,469
2025-02-20 15:44:32.413,-390.0,-86.0,938.0,-2.0,-1.0,-1.0,132,111,102,131,124,459,5,470
2025-02-20 15:44:32.420,-391.0,-89.0,939.0,-1.0,-2.0,-1.0,132,110,102,131,124,460,3,471
2025-02-20 15:44:32.440,-385.0,-92.0,939.0,1.0,-1.0,-1.0,132,110,102,131,124,460,3,471
2025-02-20 15:44:32.470,-387.0,-86.0,950.0,0.0,0.0,-1.0,133,111,103,131,124,460,4,472
2025-02-20 15:44:32.490,-394.0,-97.0,955.0,-1.0,-1.0,-1.0,133,110,101,131,123,458,3,470
2025-02-20 15:44:32.507,-378.0,-95.0,956.0,-1.0,-2.0,-1.0,132,111,103,132,124,458,4,471
2025-02-20 15:44:32.527,-381.0,-97.0,957.0,0.0,-1.0,0.0,132,110,102,132,124,456,3,471
2025-02-20 15:44:32.547,-382.0,-94.0,955.0,0.0,-1.0,0.0,133,111,103,131,124,455,4,471
2025-02-20 15:44:32.564,-393.0,-86.0,948.0,1.0,-1.0,0.0,132,110,103,131,124,451,3,470
2025-02-20 15:44:32.584,-396.0,-87.0,946.0,0.0,-1.0,0.0,133,111,103,132,124,450,3,471
2025-02-20 15:44:32.603,-386.0,-97.0,953.0,1.0,-1.0,0.0,132,111,103,132,123,449,3,470
2025-02-20 15:44:32.608,-388.0,-93.0,958.0,2.0,0.0,0.0,132,110,102,132,124,446,3,470
2025-02-20 15:44:32.638,-383.0,-91.0,966.0,1.0,0.0,0.0,132,112,103,131,123,446,4,470
2025-02-20 15:44:32.661,-381.0,-85.0,958.0,0.0,1.0,1.0,132,110,102,132,123,442,4,469
2025-02-20 15:44:32.679,-394.0,-83.0,950.0,0.0,1.0,1.0,132,110,103,132,124,438,3,469
2025-02-20 15:44:32.699,-402.0,-79.0,939.0,-1.0,1.0,1.0,132,111,102,132,124,429,3,468
2025-02-20 15:44:32.716,-397.0,-81.0,931.0,0.0,0.0,1.0,132,111,102,132,123,421,4,469
2025-02-20 15:44:32.735,-395.0,-82.0,926.0,1.0,0.0,1.0,132,111,102,131,125,419,3,469
2025-02-20 15:44:32.756,-398.0,-77.0,930.0,2.0,0.0,0.0,132,111,102,130,123,415,3,469
2025-02-20 15:44:32.773,-384.0,-72.0,927.0,2.0,0.0,0.0,132,111,103,132,123,416,4,470
2025-02-20 15:44:32.790,-394.0,-74.0,918.0,2.0,0.0,0.0,132,111,101,131,124,415,3,469
2025-02-20 15:44:32.813,-394.0,-74.0,908.0,1.0,-2.0,0.0,132,110,102,131,124,415,3,470
2025-02-20 15:44:32.830,-391.0,-76.0,924.0,2.0,-3.0,0.0,132,110,103,132,124,418,4,470
2025-02-20 15:44:32.851,-380.0,-86.0,936.0,5.0,-3.0,-1.0,132,111,103,131,123,419,3,469
2025-02-20 15:44:32.871,-373.0,-76.0,958.0,6.0,-3.0,-1.0,132,111,102,132,124,421,4,468
2025-02-20 15:44:32.888,-370.0,-71.0,976.0,4.0,-2.0,-1.0,132,111,102,132,124,422,3,468
2025-02-20 15:44:32.908,-371.0,-70.0,974.0,3.0,0.0,0.0,133,111,102,132,124,424,3,469
2025-02-20 15:44:32.924,-390.0,-41.0,951.0,0.0,0.0,0.0,132,110,103,131,123,425,3,467
2025-02-20 15:44:32.944,-400.0,-44.0,947.0,-2.0,-1.0,-1.0,132,111,102,132,124,427,3,467
2025-02-20 15:44:32.964,-392.0,-74.0,951.0,0.0,-2.0,-2.0,132,110,104,132,125,428,4,467
2025-02-20 15:44:32.982,-390.0,-74.0,954.0,5.0,0.0,-1.0,132,115,102,130,124,439,3,467
2025-02-20 15:44:33.002,-385.0,-54.0,953.0,4.0,1.0,0.0,132,111,104,131,124,445,4,466
2025-02-20 15:44:33.022,-382.0,-56.0,968.0,1.0,0.0,-1.0,132,111,101,131,124,449,2,466
2025-02-20 15:44:33.039,-377.0,-64.0,959.0,2.0,0.0,0.0,133,110,102,132,123,453,3,465
2025-02-20 15:44:33.059,-391.0,-72.0,959.0,3.0,1.0,0.0,132,110,101,132,123,452,3,465
2025-02-20 15:44:33.079,-393.0,-63.0,959.0,2.0,1.0,0.0,132,111,103,131,123,452,3,465
2025-02-20 15:44:33.097,-401.0,-67.0,949.0,1.0,1.0,1.0,132,111,103,132,124,452,4,465
2025-02-20 15:44:33.117,-397.0,-54.0,947.0,-1.0,-1.0,1.0,132,111,102,132,124,451,2,465
2025-02-20 15:44:33.135,-397.0,-57.0,942.0,-1.0,-1.0,0.0,133,111,103,132,124,450,3,466
2025-02-20 15:44:33.154,-389.0,-67.0,947.0,2.0,0.0,1.0,132,110,102,132,124,450,4,467
2025-02-20 15:44:33.174,-391.0,-50.0,949.0,1.0,1.0,0.0,132,111,103,132,124,449,4,467
2025-02-20 15:44:33.191,-388.0,-45.0,945.0,-1.0,0.0,1.0,131,111,103,131,124,451,3,467
2025-02-20 15:44:33.211,-386.0,-54.0,946.0,-2.0,0.0,1.0,132,111,103,130,123,451,3,471
2025-02-20 15:44:33.231,-383.0,-75.0,938.0,1.0,1.0,1.0,132,111,102,131,124,451,4,468
2025-02-20 15:44:33.248,-395.0,-61.0,941.0,1.0,0.0,1.0,132,111,101,131,124,452,3,468
2025-02-20 15:44:33.267,-395.0,-59.0,944.0,0.0,-2.0,1.0,132,111,104,132,124,452,4,469
2025-02-20 15:44:33.289,-390.0,-69.0,951.0,0.0,-1.0,2.0,132,111,102,131,123,452,3,469
2025-02-20 15:44:33.305,-393.0,-53.0,950.0,0.0,0.0,2.0,132,112,102,132,124,453,4,468
2025-02-20 15:44:33.326,-395.0,-59.0,942.0,-1.0,0.0,1.0,131,110,103,130,123,453,3,466
2025-02-20 15:44:33.345,-400.0,-51.0,933.0,-1.0,-1.0,2.0,132,112,103,132,124,455,3,465
2025-02-20 15:44:33.362,-399.0,-50.0,925.0,-1.0,0.0,2.0,132,112,101,131,124,456,3,466
2025-02-20 15:44:33.383,-404.0,-47.0,933.0,0.0,-1.0,1.0,132,110,103,131,123,454,3,464
2025-02-20 15:44:33.399,-402.0,-36.0,932.0,1.0,-1.0,1.0,133,111,104,132,124,455,3,465
2025-02-20 15:44:33.420,-402.0,-46.0,946.0,0.0,-1.0,1.0,131,111,102,131,123,454,3,465
2025-02-20 15:44:33.440,-394.0,-26.0,943.0,-2.0,-2.0,1.0,132,111,102,132,123,453,2,465
2025-02-20 15:44:33.456,-405.0,-23.0,953.0,-4.0,-2.0,0.0,131,110,103,131,123,453,3,466
2025-02-20 15:44:33.476,-402.0,-39.0,958.0,-3.0,-1.0,-2.0,132,111,102,132,124,455,3,468
2025-02-20 15:44:33.497,-396.0,-48.0,946.0,-1.0,1.0,-2.0,133,111,103,132,124,457,3,467
2025-02-20 15:44:33.512,-409.0,-35.0,937.0,0.0,0.0,-2.0,131,110,102,131,123,456,4,469
2025-02-20 15:44:33.534,-384.0,-40.0,963.0,-1.0,0.0,-3.0,132,111,102,131,123,458,4,470
2025-02-20 15:44:33.554,-396.0,-46.0,970.0,-3.0,1.0,-3.0,132,110,102,131,123,459,3,469
2025-02-20 15:44:33.572,-386.0,-68.0,955.0,-3.0,1.0,-3.0,132,111,102,132,124,460,3,470
2025-02-20 15:44:33.591,-377.0,-59.0,975.0,-3.0,0.0,-2.0,132,111,102,132,124,460,3,469
2025-02-20 15:44:33.608,-370.0,-51.0,981.0,-5.0,1.0,-1.0,132,110,101,131,123,462,3,470
2025-02-20 15:44:33.628,-383.0,-72.0,971.0,-3.0,2.0,-1.0,132,110,102,131,123,464,3,469
2025-02-20 15:44:33.649,-396.0,-59.0,970.0,-1.0,3.0,0.0,132,110,103,132,123,463,4,471
2025-02-20 15:44:33.666,-396.0,-27.0,973.0,-5.0,4.0,0.0,133,111,101,132,123,465,3,468
2025-02-20 15:44:33.686,-394.0,-45.0,948.0,-9.0,5.0,-1.0,132,110,103,131,123,465,3,467
2025-02-20 15:44:33.706,-400.0,-86.0,931.0,-6.0,6.0,-2.0,133,110,102,132,124,465,3,468
2025-02-20 15:44:33.722,-402.0,-84.0,900.0,-1.0,5.0,-2.0,132,111,102,132,123,465,4,468
2025-02-20 15:44:33.742,-429.0,-73.0,884.0,-4.0,3.0,-2.0,132,110,101,131,123,463,2,467
2025-02-20 15:44:33.763,-431.0,-98.0,875.0,-3.0,-1.0,-2.0,132,110,103,132,123,462,4,467
2025-02-20 15:44:33.780,-410.0,-107.0,901.0,0.0,-3.0,-1.0,132,110,102,131,123,461,3,467
2025-02-20 15:44:33.800,-386.0,-102.0,929.0,4.0,-5.0,1.0,132,111,103,132,123,461,3,468
2025-02-20 15:44:33.817,-380.0,-78.0,958.0,3.0,-5.0,2.0,132,110,102,131,123,461,3,468
2025-02-20 15:44:33.838,-383.0,-63.0,972.0,2.0,-6.0,2.0,132,111,102,132,123,460,3,469
2025-02-20 15:44:33.858,-381.0,-59.0,984.0,1.0,-5.0,3.0,132,110,102,132,123,461,4,469
2025-02-20 15:44:33.871,-398.0,-30.0,989.0,0.0,-4.0,3.0,132,110,102,132,123,463,3,470
2025-02-20 15:44:33.895,-417.0,-10.0,987.0,0.0,-2.0,2.0,132,111,102,130,123,469,4,471
2025-02-20 15:44:33.914,-432.0,-7.0,981.0,0.0,0.0,0.0,132,110,102,132,124,467,4,471
2025-02-20 15:44:33.932,-426.0,-8.0,969.0,1.0,2.0,-1.0,133,110,103,130,124,469,3,472
2025-02-20 15:44:33.952,-427.0,-23.0,938.0,1.0,4.0,-3.0,132,111,101,130,124,471,3,472
2025-02-20 15:44:33.972,-434.0,-42.0,926.0,0.0,3.0,-3.0,131,109,102,131,122,471,4,473
2025-02-20 15:44:33.989,-408.0,-65.0,931.0,0.0,2.0,-4.0,132,111,102,132,125,474,3,473
2025-02-20 15:44:34.009,-396.0,-81.0,929.0,0.0,3.0,-4.0,132,111,102,131,124,474,3,472
2025-02-20 15:44:34.029,-384.0,-86.0,926.0,-1.0,2.0,-5.0,132,111,101,132,123,474,2,472
2025-02-20 15:44:34.047,-369.0,-101.0,938.0,-2.0,1.0,-3.0,132,110,102,131,125,473,3,471
2025-02-20 15:44:34.066,-368.0,-92.0,941.0,-3.0,1.0,-1.0,132,110,101,131,123,474,3,471
2025-02-20 15:44:34.081,-387.0,-82.0,930.0,-4.0,1.0,0.0,132,111,102,131,122,475,2,470
2025-02-20 15:44:34.104,-400.0,-72.0,925.0,-3.0,0.0,1.0,132,110,102,132,123,474,3,471
2025-02-20 15:44:34.123,-414.0,-48.0,934.0,-2.0,0.0,1.0,132,111,102,130,124,473,3,470
2025-02-20 15:44:34.141,-419.0,-27.0,930.0,-2.0,0.0,0.0,131,111,103,131,124,472,3,469
2025-02-20 15:44:34.160,-415.0,-27.0,924.0,-2.0,1.0,-2.0,132,111,102,132,122,472,2,468
2025-02-20 15:44:34.181,-420.0,-39.0,917.0,-1.0,1.0,-2.0,131,109,102,131,123,471,3,467
2025-02-20 15:44:34.198,-429.0,-49.0,906.0,-2.0,0.0,-3.0,132,111,101,132,123,470,3,467
2025-02-20 15:44:34.218,-427.0,-51.0,913.0,-2.0,-1.0,-4.0,132,110,103,131,123,469,1,466
2025-02-20 15:44:34.238,-399.0,-71.0,937.0,-1.0,-2.0,-5.0,132,110,104,131,123,470,3,467
2025-02-20 15:44:34.255,-384.0,-89.0,957.0,-1.0,0.0,-4.0,133,110,102,132,123,470,3,467
2025-02-20 15:44:34.276,-396.0,-95.0,950.0,-3.0,1.0,-3.0,131,110,101,132,123,469,2,467
2025-02-20 15:44:34.294,-402.0,-97.0,944.0,-5.0,-1.0,-3.0,132,110,101,132,123,470,4,468
2025-02-20 15:44:34.313,-390.0,-101.0,955.0,-6.0,0.0,-2.0,132,110,102,131,123,471,2,469
2025-02-20 15:44:34.333,-385.0,-96.0,949.0,-4.0,2.0,-1.0,131,110,102,131,122,472,3,469
2025-02-20 15:44:34.348,-407.0,-87.0,927.0,-5.0,2.0,0.0,132,110,101,130,122,473,3,469
2025-02-20 15:44:34.369,-425.0,-77.0,923.0,-8.0,0.0,0.0,132,110,102,130,124,475,3,469
2025-02-20 15:44:34.390,-411.0,-76.0,914.0,-6.0,-1.0,0.0,132,110,102,132,123,475,3,469
2025-02-20 15:44:34.408,-430.0,-80.0,910.0,-2.0,-1.0,0.0,130,113,102,131,123,474,4,468
2025-02-20 15:44:34.427,-435.0,-65.0,910.0,-1.0,-3.0,0.0,132,110,102,132,123,476,3,468
2025-02-20 15:44:34.445,-424.0,-64.0,950.0,-4.0,-4.0,-1.0,131,110,101,131,123,476,1,467
2025-02-20 15:44:34.461,-402.0,-79.0,973.0,-4.0,-2.0,-1.0,132,110,101,131,123,475,3,468
2025-02-20 15:44:34.485,-400.0,-93.0,959.0,-2.0,0.0,0.0,131,109,102,131,124,473,2,468
2025-02-20 15:44:34.505,-400.0,-85.0,984.0,-2.0,-1.0,1.0,132,110,103,131,122,472,3,466
2025-02-20 15:44:34.522,-415.0,-74.0,953.0,-4.0,-2.0,1.0,132,110,102,130,123,471,4,467
2025-02-20 15:44:34.542,-404.0,-88.0,964.0,-3.0,-1.0,0.0,131,110,102,131,123,471,3,467
2025-02-20 15:44:34.559,-409.0,-82.0,968.0,-2.0,1.0,1.0,132,110,103,131,123,471,3,467
2025-02-20 15:44:34.579,-411.0,-69.0,971.0,-3.0,1.0,1.0,131,110,102,131,123,470,3,467
2025-02-20 15:44:34.599,-416.0,-62.0,962.0,-6.0,1.0,1.0,132,110,102,131,122,471,3,466
2025-02-20 15:44:34.614,-418.0,-71.0,935.0,-5.0,2.0,1.0,132,110,102,131,123,471,3,467
2025-02-20 15:44:34.636,-426.0,-77.0,932.0,-2.0,2.0,2.0,132,110,101,132,123,471,3,466
2025-02-20 15:44:34.656,-426.0,-71.0,931.0,-1.0,0.0,2.0,131,110,101,131,124,474,3,468
2025-02-20 15:44:34.674,-417.0,-73.0,932.0,-2.0,0.0,2.0,131,111,101,131,123,474,3,467
2025-02-20 15:44:34.693,-406.0,-77.0,942.0,0.0,1.0,3.0,132,112,101,131,123,475,4,467
2025-02-20 15:44:34.711,-404.0,-72.0,936.0,2.0,1.0,3.0,132,110,101,131,123,476,4,467
2025-02-20 15:44:34.730,-408.0,-45.0,931.0,2.0,1.0,2.0,132,110,102,132,123,480,3,467
2025-02-20 15:44:34.748,-411.0,-49.0,920.0,0.0,0.0,1.0,131,110,103,132,124,480,3,467
2025-02-20 15:44:34.765,-413.0,-50.0,908.0,1.0,0.0,1.0,131,110,101,131,123,481,2,467
2025-02-20 15:44:34.788,-405.0,-51.0,921.0,2.0,-1.0,-1.0,132,111,102,131,123,481,3,466
2025-02-20 15:44:34.807,-399.0,-53.0,932.0,1.0,0.0,-2.0,131,110,100,131,122,480,3,466
2025-02-20 15:44:34.825,-384.0,-66.0,933.0,-1.0,0.0,-2.0,132,110,101,131,123,480,3,465
2025-02-20 15:44:34.845,-391.0,-67.0,934.0,-1.0,-1.0,-2.0,131,110,102,131,123,481,3,465
2025-02-20 15:44:34.865,-399.0,-61.0,930.0,-1.0,0.0,-3.0,131,110,102,131,124,483,3,465
2025-02-20 15:44:34.883,-407.0,-70.0,918.0,1.0,0.0,-3.0,131,111,102,131,124,482,3,465
2025-02-20 15:44:34.900,-421.0,-63.0,903.0,1.0,-1.0,-3.0,131,110,102,132,122,482,3,464
2025-02-20 15:44:34.922,-420.0,-74.0,897.0,3.0,-2.0,-3.0,132,110,102,131,123,480,3,464
2025-02-20 15:44:34.940,-424.0,-67.0,901.0,4.0,-3.0,-2.0,131,110,102,131,122,480,3,463
2025-02-20 15:44:34.959,-415.0,-73.0,910.0,4.0,-4.0,-2.0,132,110,102,132,123,482,3,464
2025-02-20 15:44:34.976,-428.0,-74.0,927.0,4.0,-5.0,-2.0,131,110,102,130,122,480,3,463
2025-02-20 15:44:34.996,-418.0,-78.0,938.0,3.0,-6.0,-2.0,132,110,103,131,124,479,3,462
2025-02-20 15:44:35.017,-406.0,-80.0,969.0,1.0,-5.0,-2.0,132,110,102,131,123,480,3,463
2025-02-20 15:44:35.034,-394.0,-97.0,979.0,1.0,-2.0,-2.0,131,110,102,131,122,481,3,463
2025-02-20 15:44:35.054,-398.0,-95.0,974.0,1.0,-1.0,-1.0,132,110,102,130,123,482,3,463
2025-02-20 15:44:35.074,-406.0,-83.0,966.0,-2.0,-1.0,-1.0,131,110,101,132,122,482,2,463
2025-02-20 15:44:35.091,-400.0,-82.0,966.0,-5.0,-1.0,-1.0,131,110,102,132,123,484,3,463
2025-02-20 15:44:35.111,-405.0,-88.0,960.0,-3.0,1.0,0.0,131,110,101,131,123,485,2,463
2025-02-20 15:44:35.132,-413.0,-83.0,943.0,-2.0,2.0,0.0,132,111,103,131,123,487,3,464
2025-02-20 15:44:35.148,-416.0,-71.0,934.0,-3.0,0.0,0.0,132,110,102,131,123,486,3,465
2025-02-20 15:44:35.169,-408.0,-74.0,931.0,-3.0,-1.0,1.0,131,110,102,131,122,486,2,464
2025-02-20 15:44:35.184,-417.0,-73.0,933.0,0.0,-1.0,2.0,132,110,102,131,122,486,3,465
2025-02-20 15:44:35.205,-414.0,-65.0,947.0,1.0,-1.0,2.0,131,110,101,129,122,485,3,464
2025-02-20 15:44:35.226,-416.0,-59.0,942.0,1.0,0.0,3.0,131,111,103,131,123,484,3,464
2025-02-20 15:44:35.243,-420.0,-52.0,938.0,2.0,0.0,3.0,131,110,101,131,123,482,2,464
2025-02-20 15:44:35.262,-425.0,-48.0,930.0,1.0,-1.0,3.0,131,110,102,131,124,481,3,464
2025-02-20 15:44:35.280,-421.0,-44.0,932.0,1.0,-1.0,3.0,132,110,102,131,123,481,3,463
2025-02-20 15:44:35.300,-415.0,-47.0,929.0,2.0,-1.0,2.0,132,110,101,131,122,480,2,463
2025-02-20 15:44:35.320,-413.0,-50.0,929.0,4.0,-1.0,1.0,131,111,102,132,124,479,3,462
2025-02-20 15:44:35.340,-407.0,-36.0,931.0,4.0,-1.0,1.0,131,110,102,132,123,476,3,462
2025-02-20 15:44:35.357,-413.0,-35.0,942.0,3.0,-2.0,0.0,131,110,102,131,123,475,3,461
2025-02-20 15:44:35.378,-408.0,-29.0,958.0,1.0,-1.0,-1.0,132,110,102,132,122,475,3,461
2025-02-20 15:44:35.398,-397.0,-46.0,956.0,0.0,1.0,-3.0,131,112,101,131,123,474,2,461
2025-02-20 15:44:35.414,-406.0,-60.0,950.0,0.0,2.0,-4.0,132,110,102,131,124,475,3,461
2025-02-20 15:44:35.434,-400.0,-65.0,935.0,-2.0,2.0,-5.0,131,110,101,131,124,475,2,461
2025-02-20 15:44:35.452,-398.0,-81.0,918.0,-3.0,2.0,-4.0,133,110,103,132,124,478,3,461
2025-02-20 15:44:35.472,-404.0,-79.0,906.0,-1.0,-1.0,-3.0,132,110,103,131,123,477,4,461
2025-02-20 15:44:35.492,-406.0,-75.0,919.0,-1.0,-3.0,-3.0,132,110,102,132,123,479,2,462
2025-02-20 15:44:35.508,-402.0,-77.0,927.0,0.0,-2.0,-2.0,132,110,102,131,123,479,3,461
2025-02-20 15:44:35.529,-410.0,-72.0,937.0,1.0,-3.0,-1.0,131,110,102,133,123,480,2,461
2025-02-20 15:44:35.547,-410.0,-66.0,947.0,1.0,-3.0,-1.0,132,110,102,132,123,479,4,462
2025-02-20 15:44:35.566,-414.0,-65.0,962.0,1.0,-3.0,1.0,131,111,102,131,123,479,3,461
2025-02-20 15:44:35.586,-416.0,-58.0,959.0,0.0,-2.0,1.0,132,110,102,132,123,481,4,463
2025-02-20 15:44:35.607,-421.0,-54.0,960.0,-1.0,-2.0,1.0,131,110,101,132,123,478,3,462
2025-02-20 15:44:35.623,-413.0,-48.0,944.0,-1.0,-2.0,1.0,132,110,102,131,123,477,3,463
2025-02-20 15:44:35.644,-415.0,-52.0,957.0,1.0,0.0,0.0,132,111,101,132,123,476,2,463
2025-02-20 15:44:35.660,-412.0,-49.0,959.0,2.0,1.0,0.0,131,111,103,130,123,474,3,462
2025-02-20 15:44:35.681,-409.0,-36.0,949.0,0.0,1.0,0.0,132,110,103,131,123,474,2,462
2025-02-20 15:44:35.691,-417.0,-48.0,936.0,-2.0,0.0,0.0,131,110,101,131,124,472,2,461
2025-02-20 15:44:35.718,-418.0,-56.0,928.0,-2.0,0.0,0.0,132,111,102,132,123,472,3,461
2025-02-20 15:44:35.738,-417.0,-55.0,927.0,-1.0,0.0,0.0,131,110,102,131,123,470,2,461
2025-02-20 15:44:35.758,-412.0,-46.0,923.0,0.0,-1.0,-1.0,132,110,102,131,123,470,3,460
2025-02-20 15:44:35.775,-403.0,-50.0,923.0,0.0,-1.0,-1.0,132,110,102,131,123,470,3,461
2025-02-20 15:44:35.796,-401.0,-62.0,934.0,1.0,-1.0,-1.0,131,110,101,131,123,469,3,460
2025-02-20 15:44:35.816,-401.0,-61.0,931.0,1.0,-2.0,0.0,132,110,102,132,123,470,4,462
2025-02-20 15:44:35.833,-405.0,-44.0,936.0,0.0,-4.0,1.0,132,110,102,132,123,471,3,461
2025-02-20 15:44:35.853,-400.0,-50.0,941.0,0.0,-3.0,0.0,132,108,102,132,123,472,3,462
2025-02-20 15:44:35.870,-401.0,-54.0,943.0,3.0,-1.0,0.0,131,110,101,131,124,473,3,462
2025-02-20 15:44:35.890,-407.0,-38.0,941.0,4.0,-2.0,0.0,132,111,102,131,123,474,3,463
2025-02-20 15:44:35.910,-412.0,-29.0,952.0,2.0,-2.0,0.0,132,111,102,131,123,474,3,463
2025-02-20 15:44:35.927,-410.0,-30.0,953.0,-1.0,-3.0,-1.0,130,111,102,131,123,475,3,462
2025-02-20 15:44:35.947,-412.0,-47.0,951.0,0.0,-1.0,-1.0,131,111,102,131,123,475,3,463
2025-02-20 15:44:35.967,-419.0,-48.0,948.0,3.0,-1.0,-1.0,131,111,102,131,123,474,3,463
2025-02-20 15:44:35.984,-415.0,-27.0,948.0,4.0,-1.0,-1.0,132,111,103,131,122,475,3,463
2025-02-20 15:44:36.002,-418.0,-21.0,956.0,1.0,0.0,-2.0,130,111,102,131,123,474,2,463
2025-02-20 15:44:36.024,-423.0,-32.0,949.0,-1.0,0.0,-2.0,132,112,103,132,123,473,3,462
2025-02-20 15:44:36.041,-408.0,-50.0,949.0,-2.0,0.0,-2.0,131,112,102,132,124,472,2,463
2025-02-20 15:44:36.062,-401.0,-59.0,951.0,1.0,1.0,-2.0,131,111,102,131,124,470,3,462
2025-02-20 15:44:36.081,-405.0,-54.0,946.0,2.0,2.0,-2.0,131,111,103,132,123,468,3,462
2025-02-20 15:44:36.099,-408.0,-59.0,948.0,1.0,0.0,-1.0,131,111,102,132,123,467,3,461
2025-02-20 15:44:36.119,-401.0,-57.0,942.0,-1.0,0.0,0.0,132,112,102,132,123,468,3,461
2025-02-20 15:44:36.136,-396.0,-53.0,938.0,-1.0,0.0,1.0,131,112,100,131,123,466,2,461
2025-02-20 15:44:36.153,-400.0,-52.0,935.0,0.0,0.0,0.0,131,111,102,132,123,466,4,461
2025-02-20 15:44:36.176,-397.0,-53.0,940.0,1.0,0.0,0.0,131,111,105,132,123,467,3,460
2025-02-20 15:44:36.192,-398.0,-48.0,933.0,0.0,1.0,1.0,131,111,102,132,123,468,3,460
2025-02-20 15:44:36.213,-406.0,-41.0,921.0,-2.0,0.0,1.0,131,111,102,131,124,469,2,461
2025-02-20 15:44:36.233,-416.0,-36.0,925.0,-1.0,-1.0,1.0,131,112,102,131,123,469,3,461
2025-02-20 15:44:36.251,-406.0,-39.0,936.0,0.0,-1.0,1.0,132,112,102,131,123,470,2,462
2025-02-20 15:44:36.270,-410.0,-27.0,935.0,0.0,-1.0,0.0,132,112,102,131,123,472,3,463
2025-02-20 15:44:36.290,-408.0,-24.0,937.0,-2.0,-1.0,0.0,131,111,102,131,123,470,2,462
2025-02-20 15:44:36.307,-406.0,-32.0,944.0,-1.0,-1.0,-1.0,132,112,103,132,123,471,3,463
2025-02-20 15:44:36.328,-412.0,-32.0,941.0,1.0,0.0,-1.0,131,111,101,132,122,472,3,463
2025-02-20 15:44:36.345,-409.0,-30.0,945.0,0.0,0.0,-1.0,132,112,102,131,123,471,3,464
2025-02-20 15:44:36.364,-414.0,-26.0,944.0,-1.0,-1.0,0.0,131,112,102,131,122,469,3,461
2025-02-20 15:44:36.385,-413.0,-33.0,948.0,-2.0,-1.0,-1.0,132,112,100,131,122,469,3,463
2025-02-20 15:44:36.402,-410.0,-37.0,946.0,1.0,0.0,-1.0,132,112,102,131,124,468,3,463
2025-02-20 15:44:36.422,-414.0,-29.0,949.0,2.0,0.0,-1.0,131,111,102,131,123,468,2,463
2025-02-20 15:44:36.442,-410.0,-30.0,949.0,0.0,0.0,-2.0,132,111,102,132,123,466,3,463
2025-02-20 15:44:36.459,-401.0,-43.0,950.0,-1.0,0.0,-1.0,132,112,101,132,122,465,2,463
2025-02-20 15:44:36.479,-410.0,-40.0,941.0,0.0,1.0,-1.0,132,112,102,131,123,464,2,462
2025-02-20 15:44:36.499,-417.0,-38.0,935.0,0.0,0.0,-1.0,131,111,101,131,123,464,3,462
2025-02-20 15:44:36.517,-411.0,-42.0,937.0,0.0,-1.0,0.0,132,111,102,131,123,464,2,462
2025-02-20 15:44:36.536,-411.0,-36.0,946.0,0.0,0.0,0.0,132,112,102,131,123,464,4,462
2025-02-20 15:44:36.553,-413.0,-36.0,942.0,0.0,0.0,0.0,132,111,101,131,123,463,3,462
2025-02-20 15:44:36.573,-410.0,-33.0,936.0,0.0,-1.0,0.0,132,112,101,131,123,464,2,462
2025-02-20 15:44:36.594,-414.0,-26.0,935.0,-1.0,-1.0,0.0,131,112,102,131,123,464,2,462
2025-02-20 15:44:36.608,-413.0,-25.0,931.0,0.0,0.0,-1.0,132,111,101,132,123,465,3,463
2025-02-20 15:44:36.631,-415.0,-23.0,931.0,0.0,0.0,-1.0,131,112,102,130,122,465,2,462
2025-02-20 15:44:36.651,-417.0,-18.0,923.0,0.0,-1.0,-1.0,132,112,102,131,122,466,3,462
2025-02-20 15:44:36.668,-418.0,-31.0,928.0,-1.0,-1.0,-1.0,132,112,103,131,123,467,3,463
2025-02-20 15:44:36.688,-405.0,-38.0,932.0,-1.0,-1.0,-1.0,132,112,101,131,123,467,2,463
2025-02-20 15:44:36.708,-411.0,-37.0,935.0,0.0,-1.0,-1.0,132,112,102,132,122,469,3,464
2025-02-20 15:44:36.724,-412.0,-47.0,929.0,0.0,-2.0,-1.0,131,111,103,131,123,468,3,463
2025-02-20 15:44:36.745,-410.0,-47.0,941.0,-1.0,-2.0,-1.0,132,112,101,134,123,468,4,463
2025-02-20 15:44:36.765,-404.0,-43.0,947.0,-1.0,-2.0,0.0,131,111,102,131,123,467,2,463
2025-02-20 15:44:36.782,-403.0,-43.0,948.0,-2.0,-1.0,0.0,132,111,102,132,123,467,3,463
2025-02-20 15:44:36.801,-406.0,-38.0,944.0,-2.0,-1.0,0.0,132,112,102,131,124,466,4,463
2025-02-20 15:44:36.820,-411.0,-29.0,945.0,-2.0,-2.0,0.0,131,113,103,132,122,466,2,463
2025-02-20 15:44:36.838,-412.0,-22.0,946.0,-2.0,-2.0,0.0,132,112,103,131,123,466,2,463
2025-02-20 15:44:36.860,-426.0,-12.0,945.0,-4.0,-4.0,0.0,131,112,101,132,123,463,4,462
2025-02-20 15:44:36.876,-411.0,-34.0,950.0,-5.0,-3.0,-1.0,132,112,102,131,123,465,3,464
2025-02-20 15:44:36.897,-409.0,-37.0,954.0,1.0,0.0,-1.0,131,112,101,131,123,464,2,463
2025-02-20 15:44:36.917,-423.0,-6.0,949.0,2.0,-1.0,-2.0,132,112,102,133,123,463,3,463
2025-02-20 15:44:36.934,-423.0,-8.0,950.0,-2.0,-2.0,-3.0,132,112,102,131,123,463,4,462
2025-02-20 15:44:36.954,-412.0,-32.0,958.0,-3.0,-3.0,-3.0,131,112,102,131,123,465,3,465
2025-02-20 15:44:36.972,-398.0,-42.0,970.0,-2.0,-1.0,-2.0,132,112,102,131,123,465,3,462
2025-02-20 15:44:36.991,-392.0,-48.0,952.0,-1.0,1.0,-2.0,131,111,102,132,123,465,3,462
2025-02-20 15:44:37.012,-401.0,-46.0,944.0,0.0,2.0,-2.0,132,112,102,132,122,467,3,462
2025-02-20 15:44:37.028,-406.0,-39.0,941.0,1.0,1.0,-2.0,132,111,102,131,122,468,2,463
2025-02-20 15:44:37.049,-401.0,-32.0,931.0,-1.0,1.0,-1.0,132,112,103,131,123,469,3,464
2025-02-20 15:44:37.069,-410.0,-47.0,918.0,-2.0,0.0,-1.0,131,112,103,131,123,469,3,464
2025-02-20 15:44:37.086,-410.0,-53.0,916.0,1.0,0.0,0.0,131,111,101,131,123,470,2,464
2025-02-20 15:44:37.106,-412.0,-42.0,922.0,3.0,0.0,0.0,132,113,102,131,123,469,2,465
2025-02-20 15:44:37.123,-414.0,-34.0,926.0,1.0,-1.0,0.0,131,112,102,131,123,468,2,464
2025-02-20 15:44:37.143,-413.0,-42.0,940.0,0.0,-1.0,0.0,131,112,102,133,123,468,3,464
2025-02-20 15:44:37.163,-406.0,-31.0,943.0,0.0,-1.0,0.0,131,111,102,131,123,467,3,464
2025-02-20 15:44:37.183,-410.0,-32.0,945.0,-1.0,-1.0,0.0,131,112,102,131,123,464,3,463
2025-02-20 15:44:37.200,-411.0,-31.0,944.0,-2.0,-1.0,0.0,132,112,102,132,123,464,3,467
2025-02-20 15:44:37.220,-408.0,-35.0,948.0,-1.0,0.0,-1.0,131,112,102,131,122,462,2,463
2025-02-20 15:44:37.238,-407.0,-32.0,945.0,0.0,1.0,-1.0,132,112,103,132,123,462,3,465
2025-02-20 15:44:37.258,-405.0,-18.0,942.0,-1.0,0.0,-1.0,131,112,102,131,123,462,3,464
2025-02-20 15:44:37.277,-410.0,-27.0,940.0,-3.0,0.0,-1.0,131,112,102,130,123,462,3,464
2025-02-20 15:44:37.295,-404.0,-36.0,935.0,-2.0,0.0,-1.0,132,113,102,131,123,461,3,464
2025-02-20 15:44:37.315,-405.0,-37.0,929.0,0.0,0.0,-1.0,132,112,101,131,123,460,3,464
2025-02-20 15:44:37.336,-412.0,-30.0,929.0,1.0,-1.0,0.0,132,112,103,131,122,461,3,465
2025-02-20 15:44:37.352,-412.0,-24.0,940.0,-1.0,-2.0,0.0,132,111,102,131,123,461,4,464
2025-02-20 15:44:37.372,-405.0,-30.0,942.0,-2.0,-2.0,-1.0,132,113,102,131,123,462,2,465
2025-02-20 15:44:37.390,-410.0,-44.0,941.0,0.0,-1.0,-1.0,131,112,102,131,123,461,2,465
2025-02-20 15:44:37.409,-415.0,-32.0,950.0,0.0,-2.0,-1.0,131,112,102,132,123,462,2,465
2025-02-20 15:44:37.430,-408.0,-37.0,958.0,-1.0,-1.0,-1.0,131,112,102,132,123,461,4,466
2025-02-20 15:44:37.446,-408.0,-38.0,960.0,-2.0,0.0,0.0,132,113,101,131,123,462,2,466
2025-02-20 15:44:37.466,-407.0,-39.0,952.0,-2.0,0.0,0.0,132,113,101,131,124,463,4,466
2025-02-20 15:44:37.486,-407.0,-34.0,943.0,-2.0,0.0,0.0,132,112,102,132,122,460,2,465
2025-02-20 15:44:37.504,-412.0,-24.0,936.0,-2.0,0.0,0.0,132,113,102,131,124,461,2,466
2025-02-20 15:44:37.525,-414.0,-25.0,933.0,-2.0,0.0,0.0,131,113,101,131,123,462,2,466
2025-02-20 15:44:37.543,-410.0,-25.0,938.0,-1.0,-1.0,0.0,131,113,102,131,123,460,3,465
2025-02-20 15:44:37.558,-408.0,-27.0,945.0,0.0,0.0,0.0,131,113,102,131,123,459,3,466
2025-02-20 15:44:37.582,-412.0,-20.0,938.0,-1.0,0.0,-1.0,131,112,101,131,123,459,2,466
2025-02-20 15:44:37.602,-408.0,-24.0,933.0,-1.0,-1.0,-1.0,131,113,102,134,124,458,4,465
2025-02-20 15:44:37.619,-403.0,-32.0,941.0,0.0,-1.0,-1.0,131,112,102,132,123,456,2,464
2025-02-20 15:44:37.639,-403.0,-26.0,935.0,0.0,0.0,-1.0,131,112,102,132,122,456,4,465
2025-02-20 15:44:37.657,-406.0,-29.0,940.0,-1.0,0.0,-1.0,131,112,102,132,123,457,2,464
2025-02-20 15:44:37.673,-410.0,-38.0,939.0,-1.0,0.0,-1.0,131,113,102,131,123,458,3,464
2025-02-20 15:44:37.696,-416.0,-33.0,937.0,0.0,0.0,-1.0,131,113,103,131,123,457,4,464
2025-02-20 15:44:37.713,-416.0,-27.0,937.0,-1.0,-1.0,-1.0,131,113,102,131,123,458,2,463
2025-02-20 15:44:37.733,-410.0,-39.0,938.0,-1.0,-1.0,-1.0,132,113,103,131,124,460,3,464
2025-02-20 15:44:37.753,-410.0,-37.0,946.0,0.0,-1.0,-1.0,132,112,102,132,123,460,2,464
2025-02-20 15:44:37.769,-415.0,-29.0,946.0,0.0,0.0,-1.0,132,113,101,131,122,462,4,465
2025-02-20 15:44:37.790,-413.0,-29.0,947.0,0.0,0.0,-1.0,132,112,102,130,122,463,3,464
2025-02-20 15:44:37.809,-417.0,-26.0,939.0,0.0,0.0,-1.0,132,113,103,131,122,466,3,466
2025-02-20 15:44:37.826,-418.0,-29.0,936.0,-2.0,0.0,-1.0,132,113,102,131,123,466,2,465
2025-02-20 15:44:37.847,-419.0,-44.0,935.0,-1.0,0.0,-1.0,132,113,101,132,123,467,3,466
2025-02-20 15:44:37.867,-414.0,-42.0,939.0,1.0,0.0,-1.0,132,113,102,132,123,468,2,467
2025-02-20 15:44:37.884,-413.0,-31.0,936.0,0.0,0.0,0.0,132,113,101,130,123,466,3,465
2025-02-20 15:44:37.905,-418.0,-35.0,938.0,-1.0,-1.0,0.0,132,113,102,132,123,465,3,465
2025-02-20 15:44:37.921,-415.0,-33.0,943.0,-1.0,-1.0,0.0,131,113,102,131,123,465,3,465
2025-02-20 15:44:37.942,-414.0,-30.0,946.0,0.0,0.0,-1.0,132,113,102,132,123,464,3,465
2025-02-20 15:44:37.962,-411.0,-33.0,943.0,0.0,0.0,0.0,132,113,101,131,123,462,4,465
2025-02-20 15:44:37.979,-414.0,-27.0,942.0,-1.0,0.0,0.0,131,113,105,131,123,461,3,464
2025-02-20 15:44:37.999,-411.0,-29.0,928.0,-2.0,-1.0,-1.0,132,113,103,131,122,461,2,464
2025-02-20 15:44:38.019,-411.0,-35.0,936.0,-1.0,-2.0,0.0,131,113,102,132,123,460,2,464
2025-02-20 15:44:38.037,-404.0,-29.0,939.0,0.0,-1.0,0.0,132,113,103,131,123,460,2,465
2025-02-20 15:44:38.056,-409.0,-24.0,940.0,0.0,-1.0,0.0,132,114,101,131,123,461,3,465
2025-02-20 15:44:38.076,-414.0,-26.0,936.0,0.0,-1.0,0.0,132,114,102,131,122,460,2,464
2025-02-20 15:44:38.093,-413.0,-20.0,940.0,-1.0,-1.0,0.0,132,114,102,131,123,460,3,464
2025-02-20 15:44:38.114,-408.0,-24.0,940.0,0.0,-1.0,-1.0,132,113,102,132,122,462,3,465
2025-02-20 15:44:38.130,-408.0,-18.0,936.0,0.0,0.0,-1.0,131,110,102,132,122,463,4,464
2025-02-20 15:44:38.151,-411.0,-22.0,928.0,-1.0,0.0,-2.0,132,114,101,131,123,463,2,465
2025-02-20 15:44:38.171,-410.0,-32.0,927.0,-1.0,-2.0,-2.0,131,112,101,132,123,465,2,467
2025-02-20 15:44:38.188,-413.0,-25.0,931.0,-1.0,-2.0,-1.0,133,113,102,131,123,465,5,466
2025-02-20 15:44:38.207,-414.0,-28.0,945.0,0.0,-2.0,-1.0,132,113,102,131,122,466,3,467
2025-02-20 15:44:38.226,-410.0,-24.0,949.0,-1.0,-2.0,-1.0,130,113,102,132,123,466,4,467
2025-02-20 15:44:38.245,-417.0,-26.0,945.0,-2.0,-1.0,-1.0,131,112,102,131,122,466,2,466
2025-02-20 15:44:38.262,-422.0,-31.0,937.0,-2.0,-1.0,-1.0,131,113,102,131,123,466,3,465
2025-02-20 15:44:38.285,-418.0,-30.0,931.0,-2.0,-1.0,-1.0,132,112,101,131,123,465,1,465
2025-02-20 15:44:38.302,-424.0,-39.0,934.0,-2.0,-2.0,-1.0,132,113,102,132,123,465,3,466
2025-02-20 15:44:38.323,-410.0,-46.0,944.0,0.0,-3.0,-1.0,131,113,102,131,123,461,3,466
2025-02-20 15:44:38.333,-408.0,-45.0,957.0,1.0,-2.0,0.0,131,113,100,131,122,463,3,466
2025-02-20 15:44:38.360,-401.0,-33.0,968.0,0.0,-2.0,0.0,133,113,101,131,123,461,3,465
2025-02-20 15:44:38.379,-399.0,-29.0,972.0,-1.0,-2.0,1.0,131,113,102,131,122,460,2,464
2025-02-20 15:44:38.396,-410.0,-28.0,966.0,-1.0,0.0,1.0,131,114,102,131,123,460,3,465
2025-02-20 15:44:38.416,-411.0,-26.0,952.0,0.0,1.0,1.0,132,113,101,132,122,460,2,464
2025-02-20 15:44:38.437,-415.0,-11.0,945.0,1.0,1.0,0.0,132,113,102,132,123,459,3,466
2025-02-20 15:44:38.448,-417.0,-13.0,941.0,0.0,0.0,0.0,131,113,101,132,122,459,3,466
2025-02-20 15:44:38.473,-417.0,-11.0,947.0,0.0,0.0,0.0,131,113,101,131,123,459,2,466
2025-02-20 15:44:38.492,-416.0,-5.0,944.0,0.0,0.0,-1.0,132,113,102,133,123,460,2,467
2025-02-20 15:44:38.511,-417.0,-14.0,940.0,0.0,1.0,-2.0,131,112,101,131,122,460,2,467
2025-02-20 15:44:38.532,-415.0,-11.0,936.0,1.0,1.0,-2.0,132,113,102,131,123,461,2,468
2025-02-20 15:44:38.552,-418.0,-20.0,929.0,1.0,1.0,-2.0,131,113,102,132,122,462,3,468
2025-02-20 15:44:38.569,-419.0,-25.0,926.0,0.0,0.0,-2.0,132,114,102,132,123,462,3,469
2025-02-20 15:44:38.589,-414.0,-22.0,932.0,-1.0,-1.0,-2.0,132,113,102,131,126,461,3,468
2025-02-20 15:44:38.605,-403.0,-39.0,945.0,-1.0,0.0,-2.0,131,113,103,131,123,462,3,468
2025-02-20 15:44:38.626,-399.0,-35.0,945.0,0.0,1.0,-1.0,132,114,101,131,123,462,3,467
2025-02-20 15:44:38.646,-409.0,-29.0,940.0,-1.0,1.0,-1.0,131,113,102,131,122,459,3,468
2025-02-20 15:44:38.663,-417.0,-24.0,936.0,-2.0,1.0,-1.0,132,114,100,132,123,459,3,470
2025-02-20 15:44:38.683,-415.0,-28.0,929.0,-3.0,0.0,-1.0,131,113,101,131,123,456,2,467
2025-02-20 15:44:38.703,-416.0,-26.0,928.0,-2.0,1.0,0.0,132,113,104,131,122,454,2,467
2025-02-20 15:44:38.720,-418.0,-24.0,926.0,0.0,0.0,0.0,132,113,102,131,123,453,3,468
2025-02-20 15:44:38.740,-426.0,-18.0,932.0,-1.0,-1.0,-1.0,132,113,102,130,122,451,2,466
2025-02-20 15:44:38.761,-413.0,-24.0,944.0,1.0,0.0,0.0,132,114,102,132,123,450,3,466
2025-02-20 15:44:38.778,-417.0,-12.0,938.0,-1.0,0.0,-1.0,131,114,101,131,123,447,3,465
2025-02-20 15:44:38.798,-419.0,-17.0,941.0,-2.0,-1.0,-1.0,132,112,101,132,123,445,4,465
2025-02-20 15:44:38.818,-416.0,-26.0,943.0,-1.0,-1.0,-1.0,132,113,102,132,122,446,3,466
2025-02-20 15:44:38.835,-413.0,-27.0,941.0,0.0,0.0,0.0,132,112,101,131,123,443,3,466
2025-02-20 15:44:38.855,-416.0,-16.0,937.0,-1.0,0.0,-1.0,131,113,102,132,123,442,4,466
2025-02-20 15:44:38.871,-418.0,-25.0,928.0,-2.0,0.0,-1.0,132,113,102,132,123,443,2,466
2025-02-20 15:44:38.892,-417.0,-27.0,926.0,-1.0,0.0,-2.0,131,113,102,131,123,443,3,467
2025-02-20 15:44:38.912,-408.0,-29.0,927.0,0.0,0.0,-2.0,132,113,100,132,123,443,2,467
2025-02-20 15:44:38.929,-420.0,-22.0,929.0,-1.0,-1.0,-1.0,132,114,102,131,122,443,3,468
2025-02-20 15:44:38.949,-422.0,-28.0,932.0,-2.0,-2.0,-1.0,132,113,101,132,123,443,3,467
2025-02-20 15:44:38.969,-412.0,-28.0,940.0,0.0,-3.0,-1.0,131,112,102,131,122,443,2,468
2025-02-20 15:44:38.983,-412.0,-21.0,949.0,1.0,-2.0,-1.0,132,113,102,131,123,445,3,468
2025-02-20 15:44:39.007,-418.0,-10.0,946.0,1.0,-1.0,-1.0,131,113,102,131,122,444,2,467
2025-02-20 15:44:39.026,-422.0,-15.0,941.0,-1.0,-1.0,-1.0,131,113,102,131,123,444,3,468
2025-02-20 15:44:39.043,-420.0,-21.0,939.0,-1.0,-1.0,-1.0,131,112,102,131,122,443,3,467
2025-02-20 15:44:39.064,-418.0,-25.0,936.0,0.0,0.0,-1.0,131,112,102,131,122,443,3,467
2025-02-20 15:44:39.081,-420.0,-27.0,929.0,-1.0,0.0,-1.0,132,113,102,131,122,444,3,467
2025-02-20 15:44:39.101,-423.0,-35.0,934.0,-1.0,0.0,-1.0,131,114,102,132,123,441,2,466
2025-02-20 15:44:39.121,-426.0,-34.0,933.0,-2.0,0.0,-1.0,132,114,102,131,123,442,4,467
2025-02-20 15:44:39.138,-424.0,-34.0,938.0,-2.0,0.0,0.0,131,113,101,131,123,440,2,470
2025-02-20 15:44:39.158,-421.0,-35.0,939.0,-2.0,0.0,0.0,132,114,102,132,123,442,2,466
2025-02-20 15:44:39.178,-411.0,-44.0,942.0,-2.0,0.0,0.0,131,113,102,133,123,439,2,464
2025-02-20 15:44:39.195,-412.0,-31.0,937.0,-2.0,0.0,1.0,132,112,102,131,122,440,3,463
2025-02-20 15:44:39.215,-416.0,-32.0,932.0,-3.0,-1.0,1.0,132,114,102,131,123,441,2,465
2025-02-20 15:44:39.236,-412.0,-31.0,934.0,-3.0,-1.0,2.0,132,113,102,131,122,442,3,465
2025-02-20 15:44:39.253,-417.0,-22.0,939.0,-2.0,-1.0,1.0,131,113,102,132,123,444,3,463
2025-02-20 15:44:39.272,-415.0,-20.0,937.0,-1.0,-1.0,1.0,132,113,102,132,123,444,3,464
2025-02-20 15:44:39.290,-418.0,-11.0,947.0,-1.0,-1.0,1.0,132,113,102,131,123,448,2,465
2025-02-20 15:44:39.310,-415.0,-9.0,948.0,-1.0,-1.0,1.0,132,113,102,131,122,448,2,465
2025-02-20 15:44:39.330,-419.0,-11.0,950.0,0.0,-1.0,0.0,132,113,101,131,124,451,2,465
2025-02-20 15:44:39.347,-410.0,-20.0,949.0,0.0,-1.0,0.0,132,114,103,132,122,452,2,465
2025-02-20 15:44:39.367,-412.0,-9.0,954.0,1.0,0.0,0.0,131,113,102,132,123,453,2,466
2025-02-20 15:44:39.387,-421.0,0.0,950.0,0.0,0.0,-1.0,132,113,103,131,123,455,3,468
2025-02-20 15:44:39.405,-419.0,-5.0,949.0,0.0,0.0,-2.0,131,113,102,131,122,454,2,466
2025-02-20 15:44:39.424,-412.0,-22.0,950.0,0.0,1.0,-2.0,132,113,102,131,122,455,3,466
2025-02-20 15:44:39.445,-417.0,-21.0,941.0,1.0,2.0,-2.0,132,113,101,131,122,456,2,466
2025-02-20 15:44:39.461,-417.0,-24.0,929.0,0.0,1.0,-1.0,130,113,102,133,123,455,3,466
2025-02-20 15:44:39.482,-421.0,-23.0,929.0,0.0,-1.0,-1.0,132,112,101,131,122,453,3,466
2025-02-20 15:44:39.498,-420.0,-20.0,937.0,0.0,-1.0,-1.0,132,113,103,131,122,451,3,466
2025-02-20 15:44:39.517,-422.0,-24.0,945.0,0.0,0.0,-1.0,132,113,101,131,122,452,3,466
2025-02-20 15:44:39.539,-427.0,-21.0,930.0,-1.0,1.0,-1.0,131,113,102,131,123,452,2,466
2025-02-20 15:44:39.553,-423.0,-24.0,932.0,-1.0,0.0,-1.0,132,113,103,132,123,452,3,466
2025-02-20 15:44:39.576,-424.0,-21.0,930.0,-2.0,0.0,-1.0,131,113,101,131,122,453,3,466
2025-02-20 15:44:39.596,-416.0,-31.0,922.0,-1.0,1.0,-1.0,132,112,101,131,123,455,3,467
2025-02-20 15:44:39.614,-425.0,-19.0,917.0,0.0,0.0,-1.0,131,113,102,132,123,454,4,466
2025-02-20 15:44:39.633,-425.0,-20.0,922.0,-1.0,-1.0,-1.0,131,113,102,131,122,456,2,465
2025-02-20 15:44:39.650,-416.0,-25.0,925.0,-2.0,-1.0,0.0,132,114,102,131,122,456,2,466
2025-02-20 15:44:39.671,-422.0,-23.0,925.0,-2.0,-2.0,0.0,131,112,102,131,123,457,3,466
2025-02-20 15:44:39.690,-419.0,-20.0,935.0,-1.0,-2.0,0.0,131,113,101,132,122,461,3,466
2025-02-20 15:44:39.710,-421.0,-14.0,940.0,-1.0,-2.0,-1.0,131,112,102,131,122,461,3,466
2025-02-20 15:44:39.728,-417.0,-14.0,942.0,-1.0,-1.0,-1.0,131,113,102,131,123,464,2,466
2025-02-20 15:44:39.748,-415.0,-15.0,941.0,-1.0,-1.0,-2.0,132,113,102,131,122,465,1,466
2025-02-20 15:44:39.765,-417.0,-21.0,943.0,-2.0,-1.0,-1.0,131,113,103,132,122,466,2,467
2025-02-20 15:44:39.785,-419.0,-29.0,934.0,-2.0,-1.0,-1.0,132,113,102,132,123,465,3,467
2025-02-20 15:44:39.805,-415.0,-22.0,936.0,-2.0,-1.0,-1.0,131,113,102,131,122,466,3,467
2025-02-20 15:44:39.822,-414.0,-22.0,939.0,-1.0,-1.0,0.0,131,113,101,131,122,468,3,468
2025-02-20 15:44:39.843,-424.0,-11.0,931.0,-2.0,-1.0,0.0,132,113,102,131,122,466,3,467
2025-02-20 15:44:39.862,-429.0,-13.0,935.0,-2.0,-2.0,-1.0,132,113,102,131,122,466,1,467
2025-02-20 15:44:39.880,-420.0,-18.0,939.0,-1.0,-2.0,-1.0,132,114,102,132,122,465,3,467
2025-02-20 15:44:39.900,-418.0,-17.0,941.0,0.0,-1.0,-1.0,132,113,101,131,122,465,3,466
2025-02-20 15:44:39.920,-425.0,-13.0,939.0,-1.0,-1.0,-1.0,131,113,103,131,122,465,3,465
2025-02-20 15:44:39.935,-420.0,-29.0,943.0,-1.0,-1.0,-2.0,132,113,102,131,123,465,2,466
2025-02-20 15:44:39.957,-422.0,-32.0,947.0,0.0,-1.0,-1.0,132,113,102,130,122,466,2,466
2025-02-20 15:44:39.971,-416.0,-22.0,949.0,0.0,-1.0,-2.0,132,113,102,131,123,466,2,466
2025-02-20 15:44:39.994,-413.0,-29.0,948.0,-1.0,0.0,-1.0,131,114,102,132,122,465,3,467
2025-02-20 15:44:40.014,-417.0,-22.0,939.0,-1.0,0.0,-1.0,131,114,102,131,123,469,3,468
2025-02-20 15:44:40.031,-420.0,-24.0,936.0,0.0,0.0,-1.0,131,113,101,131,123,469,2,468
2025-02-20 15:44:40.050,-426.0,-20.0,927.0,0.0,-1.0,-1.0,132,113,101,131,123,471,2,469
2025-02-20 15:44:40.069,-418.0,-28.0,937.0,0.0,-1.0,-1.0,131,113,103,131,123,472,3,468
2025-02-20 15:44:40.086,-416.0,-23.0,940.0,0.0,-1.0,-1.0,132,113,102,131,123,475,2,469
2025-02-20 15:44:40.109,-420.0,-21.0,936.0,-1.0,0.0,-1.0,131,113,102,132,122,475,3,469
2025-02-20 15:44:40.129,-416.0,-19.0,936.0,-1.0,0.0,-1.0,132,114,103,132,122,476,3,468
2025-02-20 15:44:40.146,-420.0,-22.0,930.0,-1.0,0.0,-1.0,132,113,102,132,123,478,3,468
2025-02-20 15:44:40.166,-426.0,-15.0,928.0,-1.0,-1.0,-1.0,132,113,101,131,122,477,3,468
2025-02-20 15:44:40.184,-422.0,-17.0,936.0,-1.0,-1.0,-1.0,132,113,102,131,123,478,2,468
2025-02-20 15:44:40.203,-419.0,-25.0,941.0,-1.0,-1.0,-1.0,132,112,102,131,122,476,3,466
2025-02-20 15:44:40.223,-417.0,-26.0,935.0,-1.0,-1.0,0.0,132,113,102,131,123,476,3,466
2025-02-20 15:44:40.239,-416.0,-28.0,937.0,-1.0,0.0,-1.0,132,113,102,131,123,476,3,466
2025-02-20 15:44:40.261,-417.0,-20.0,939.0,-1.0,-1.0,0.0,131,113,101,131,123,474,2,464
2025-02-20 15:44:40.280,-419.0,-17.0,942.0,-2.0,-1.0,0.0,131,113,102,133,122,473,4,464
2025-02-20 15:44:40.297,-415.0,-25.0,933.0,-1.0,0.0,-1.0,131,114,102,131,123,474,2,463
2025-02-20 15:44:40.318,-420.0,-20.0,934.0,0.0,-1.0,0.0,132,112,102,132,123,472,3,463
2025-02-20 15:44:40.335,-425.0,-13.0,932.0,-1.0,-1.0,0.0,132,113,102,131,122,471,2,462
2025-02-20 15:44:40.353,-419.0,-8.0,930.0,-2.0,-1.0,-1.0,132,113,102,131,122,471,3,462
2025-02-20 15:44:40.375,-423.0,-13.0,932.0,-1.0,-2.0,-1.0,132,113,99,132,123,472,3,462
2025-02-20 15:44:40.394,-415.0,-24.0,939.0,0.0,-1.0,-1.0,131,113,101,131,122,471,2,463
2025-02-20 15:44:40.412,-415.0,-22.0,944.0,1.0,-1.0,-2.0,132,114,103,132,122,472,2,463
2025-02-20 15:44:40.431,-416.0,-15.0,943.0,-1.0,-1.0,-1.0,132,113,102,132,122,473,3,464
2025-02-20 15:44:40.449,-419.0,-23.0,943.0,-2.0,-1.0,-1.0,132,113,101,132,123,472,3,465
2025-02-20 15:44:40.469,-419.0,-34.0,947.0,0.0,-1.0,-1.0,131,114,102,131,122,472,2,464
2025-02-20 15:44:40.490,-416.0,-20.0,945.0,0.0,0.0,-1.0,131,113,101,131,123,475,3,467
2025-02-20 15:44:40.505,-421.0,-20.0,937.0,-2.0,0.0,-1.0,132,114,102,131,122,475,3,467
2025-02-20 15:44:40.526,-418.0,-33.0,936.0,-1.0,0.0,-1.0,131,113,102,131,123,475,2,468
2025-02-20 15:44:40.546,-416.0,-30.0,935.0,0.0,-1.0,0.0,132,113,102,132,123,476,3,470
2025-02-20 15:44:40.564,-424.0,-21.0,935.0,0.0,-1.0,0.0,132,113,102,131,122,475,3,469
2025-02-20 15:44:40.583,-417.0,-16.0,936.0,-1.0,-1.0,0.0,132,113,102,132,123,474,3,469
2025-02-20 15:44:40.604,-421.0,-22.0,934.0,0.0,-1.0,0.0,132,113,102,132,122,474,2,470
2025-02-20 15:44:40.621,-423.0,-13.0,936.0,0.0,-1.0,0.0,131,113,102,132,123,472,3,470
2025-02-20 15:44:40.641,-426.0,-12.0,937.0,-1.0,-1.0,0.0,132,114,103,131,122,473,3,469
2025-02-20 15:44:40.656,-426.0,-15.0,938.0,-1.0,-1.0,-1.0,131,112,102,132,122,470,2,469
2025-02-20 15:44:40.678,-420.0,-18.0,940.0,0.0,-1.0,-1.0,132,114,102,131,123,469,2,469
2025-02-20 15:44:40.698,-422.0,-21.0,938.0,0.0,-1.0,-1.0,132,113,102,131,123,468,3,468
2025-02-20 15:44:40.715,-414.0,-20.0,936.0,-1.0,-1.0,-1.0,131,113,102,131,123,468,2,467
2025-02-20 15:44:40.735,-419.0,-26.0,940.0,-1.0,-1.0,-1.0,131,113,102,132,123,469,3,467
2025-02-20 15:44:40.755,-422.0,-22.0,941.0,-2.0,-1.0,0.0,132,113,102,132,122,467,3,466
2025-02-20 15:44:40.772,-416.0,-22.0,934.0,-2.0,-1.0,-1.0,131,113,102,131,123,468,3,466
2025-02-20 15:44:40.791,-417.0,-20.0,937.0,-1.0,-1.0,-1.0,131,113,103,130,122,468,3,465
2025-02-20 15:44:40.812,-415.0,-21.0,939.0,0.0,-1.0,-1.0,132,113,103,131,123,471,3,466
2025-02-20 15:44:40.829,-414.0,-17.0,942.0,-1.0,0.0,-1.0,132,114,101,131,122,473,2,466
2025-02-20 15:44:40.849,-420.0,-14.0,932.0,-2.0,-1.0,0.0,131,113,102,131,122,474,3,466
2025-02-20 15:44:40.869,-421.0,-12.0,934.0,-1.0,-1.0,-1.0,132,113,102,132,123,474,3,465
2025-02-20 15:44:40.887,-419.0,-20.0,933.0,0.0,-1.0,0.0,131,113,102,131,122,476,3,465
2025-02-20 15:44:40.904,-417.0,-12.0,936.0,0.0,-1.0,0.0,131,113,102,131,122,477,3,466
2025-02-20 15:44:40.924,-423.0,-18.0,936.0,0.0,-1.0,-1.0,132,113,102,131,122,476,2,466
2025-02-20 15:44:40.944,-417.0,-17.0,940.0,-1.0,-2.0,-1.0,132,113,101,132,123,478,3,467
2025-02-20 15:44:40.965,-409.0,-23.0,942.0,0.0,-2.0,-1.0,132,113,102,131,122,476,1,466
2025-02-20 15:44:40.981,-414.0,-26.0,945.0,0.0,-1.0,-1.0,132,113,103,132,123,474,0,467
2025-02-20 15:44:41.002,-414.0,-23.0,944.0,0.0,-2.0,-1.0,132,113,103,131,123,473,2,466
2025-02-20 15:44:41.019,-411.0,-21.0,946.0,0.0,-1.0,-1.0,131,113,101,132,123,471,2,465
2025-02-20 15:44:41.039,-416.0,-20.0,950.0,-1.0,-1.0,0.0,132,113,102,132,122,471,2,466
2025-02-20 15:44:41.059,-415.0,-24.0,943.0,-1.0,-1.0,0.0,131,113,102,131,122,470,2,464
2025-02-20 15:44:41.074,-419.0,-11.0,944.0,-1.0,0.0,0.0,132,113,102,131,123,471,3,466
2025-02-20 15:44:41.096,-418.0,-5.0,938.0,-2.0,0.0,0.0,131,113,101,131,122,469,2,464
2025-02-20 15:44:41.116,-422.0,-7.0,934.0,-2.0,0.0,-1.0,131,114,102,132,122,470,1,465
2025-02-20 15:44:41.133,-422.0,-13.0,921.0,-1.0,0.0,-1.0,132,112,101,131,122,470,3,464
2025-02-20 15:44:41.153,-420.0,-13.0,921.0,0.0,0.0,-1.0,132,113,101,131,122,470,3,465
2025-02-20 15:44:41.173,-412.0,-8.0,927.0,-1.0,-2.0,-1.0,132,113,103,127,123,471,3,464
2025-02-20 15:44:41.191,-413.0,-9.0,945.0,-2.0,-2.0,-1.0,131,112,102,132,120,471,3,465
2025-02-20 15:44:41.207,-408.0,-16.0,944.0,-2.0,-1.0,-2.0,131,114,103,131,125,473,3,466
2025-02-20 15:44:41.231,-415.0,-22.0,945.0,0.0,0.0,-1.0,131,112,102,132,122,476,3,465
2025-02-20 15:44:41.248,-419.0,-20.0,941.0,-1.0,0.0,-2.0,132,113,101,132,122,475,3,466
2025-02-20 15:44:41.268,-416.0,-21.0,936.0,-3.0,-1.0,-2.0,132,113,102,132,122,476,3,465
2025-02-20 15:44:41.288,-418.0,-33.0,937.0,-3.0,-1.0,-1.0,131,113,102,134,122,477,2,465
2025-02-20 15:44:41.304,-415.0,-38.0,936.0,-1.0,0.0,-1.0,132,113,102,131,123,475,2,465
2025-02-20 15:44:41.322,-416.0,-35.0,933.0,0.0,-1.0,0.0,131,113,102,132,123,475,2,464
2025-02-20 15:44:41.342,-421.0,-29.0,940.0,-2.0,-2.0,0.0,132,113,102,131,122,473,3,464
2025-02-20 15:44:41.362,-414.0,-22.0,943.0,-3.0,-3.0,1.0,131,113,101,131,122,474,3,465
2025-02-20 15:44:41.382,-413.0,-22.0,946.0,-1.0,-2.0,0.0,131,113,101,132,122,472,2,464
2025-02-20 15:44:41.399,-415.0,-13.0,946.0,2.0,-2.0,0.0,131,113,102,132,122,471,3,464
2025-02-20 15:44:41.419,-417.0,-8.0,955.0,2.0,-2.0,0.0,132,112,102,132,123,470,3,464
2025-02-20 15:44:41.439,-408.0,-1.0,961.0,0.0,-2.0,0.0,132,113,101,133,123,469,4,463
2025-02-20 15:44:41.456,-403.0,-9.0,957.0,0.0,-1.0,0.0,132,113,103,131,122,468,2,463
2025-02-20 15:44:41.476,-410.0,-10.0,954.0,2.0,0.0,0.0,132,113,101,131,123,468,2,463
2025-02-20 15:44:41.493,-410.0,2.0,946.0,1.0,0.0,0.0,131,113,98,131,122,468,3,463
2025-02-20 15:44:41.514,-418.0,9.0,936.0,-1.0,1.0,-1.0,132,113,102,131,122,468,3,463
2025-02-20 15:44:41.534,-420.0,-8.0,922.0,0.0,0.0,-2.0,132,113,103,130,123,468,3,463
2025-02-20 15:44:41.551,-419.0,-10.0,923.0,1.0,0.0,-2.0,132,113,100,131,122,469,1,462
2025-02-20 15:44:41.571,-416.0,-9.0,937.0,0.0,0.0,-2.0,131,113,101,132,123,471,3,463
2025-02-20 15:44:41.591,-408.0,-17.0,934.0,-2.0,0.0,-2.0,132,113,102,131,122,472,3,463
2025-02-20 15:44:41.608,-415.0,-26.0,923.0,-2.0,0.0,-2.0,132,113,102,131,123,473,2,464
2025-02-20 15:44:41.628,-415.0,-29.0,926.0,-1.0,-1.0,-1.0,132,113,102,131,122,473,2,463
2025-02-20 15:44:41.648,-418.0,-36.0,938.0,-1.0,-1.0,-1.0,131,113,102,131,121,472,3,464
2025-02-20 15:44:41.665,-417.0,-34.0,945.0,-2.0,-1.0,0.0,131,114,102,132,122,473,3,464
2025-02-20 15:44:41.686,-415.0,-21.0,949.0,-3.0,-1.0,0.0,131,113,102,131,122,473,2,464
2025-02-20 15:44:41.705,-417.0,-23.0,949.0,-3.0,0.0,0.0,131,117,102,131,123,473,3,465
2025-02-20 15:44:41.722,-417.0,-21.0,944.0,-2.0,0.0,0.0,130,113,103,132,123,472,2,465
2025-02-20 15:44:41.743,-417.0,-15.0,943.0,-2.0,0.0,0.0,132,114,102,132,122,472,2,465
2025-02-20 15:44:41.759,-415.0,-13.0,940.0,-3.0,0.0,0.0,132,113,102,131,123,470,3,464
2025-02-20 15:44:41.780,-418.0,-11.0,931.0,-7.0,1.0,0.0,132,113,102,131,122,469,3,464
2025-02-20 15:44:41.800,-415.0,-4.0,918.0,-8.0,0.0,-1.0,132,114,101,131,123,469,3,463
2025-02-20 15:44:41.817,-412.0,-16.0,901.0,-7.0,0.0,-2.0,132,113,102,131,122,468,3,464
2025-02-20 15:44:41.836,-421.0,-6.0,880.0,-8.0,-1.0,-3.0,131,113,101,131,122,468,2,462
2025-02-20 15:44:41.857,-456.0,68.0,807.0,-17.0,-2.0,-5.0,132,113,101,132,122,467,2,463
2025-02-20 15:44:41.874,-473.0,95.0,772.0,-38.0,-4.0,-9.0,131,112,102,132,123,466,3,463
2025-02-20 15:44:41.894,-510.0,17.0,618.0,-43.0,-6.0,-12.0,131,114,102,131,122,467,3,463
2025-02-20 15:44:41.914,-596.0,55.0,525.0,-48.0,-26.0,-19.0,132,112,102,131,122,466,2,462
2025-02-20 15:44:41.932,-647.0,54.0,591.0,-58.0,-54.0,-26.0,132,112,101,131,121,461,3,462
2025-02-20 15:44:41.952,-667.0,137.0,544.0,-79.0,-91.0,-40.0,131,106,96,131,117,462,3,461
2025-02-20 15:44:41.972,-646.0,-32.0,688.0,-117.0,-159.0,-48.0,132,99,88,129,107,463,3,461
2025-02-20 15:44:41.989,-483.0,-383.0,1250.0,-163.0,-221.0,-35.0,131,88,79,127,93,460,2,462
2025-02-20 15:44:42.008,164.0,-671.0,1880.0,-194.0,-156.0,27.0,132,80,76,124,80,460,2,459
2025-02-20 15:44:42.026,633.0,-966.0,2555.0,-223.0,-13.0,73.0,132,74,72,116,70,460,3,463
2025-02-20 15:44:42.044,791.0,-1268.0,2776.0,-215.0,115.0,94.0,132,67,66,101,62,462,2,465
2025-02-20 15:44:42.060,810.0,-1281.0,2627.0,-184.0,301.0,113.0,133,61,60,87,57,461,3,469
2025-02-20 15:44:42.083,335.0,-986.0,1823.0,-144.0,376.0,108.0,129,57,56,79,52,437,3,467
2025-02-20 15:44:42.103,88.0,-561.0,1371.0,-148.0,375.0,105.0,122,55,53,73,51,449,3,467
2025-02-20 15:44:42.124,-21.0,-398.0,735.0,-212.0,353.0,106.0,110,53,50,70,50,458,3,466
2025-02-20 15:44:42.141,-264.0,-409.0,123.0,-266.0,306.0,151.0,101,53,50,69,50,465,3,464
2025-02-20 15:44:42.160,-388.0,-428.0,34.0,-251.0,278.0,196.0,96,54,50,69,50,455,3,466
2025-02-20 15:44:42.180,-437.0,-210.0,-179.0,-189.0,243.0,207.0,92,51,49,67,49,432,3,466
2025-02-20 15:44:42.199,-489.0,152.0,-162.0,-124.0,216.0,184.0,91,53,50,66,50,424,3,479
2025-02-20 15:44:42.217,-454.0,509.0,-202.0,-140.0,202.0,155.0,90,52,49,67,49,467,2,476
2025-02-20 15:44:42.235,-630.0,566.0,-389.0,-121.0,140.0,103.0,90,52,51,67,49,511,2,463
2025-02-20 15:44:42.255,-566.0,686.0,-380.0,-91.0,112.0,53.0,90,53,51,68,48,515,3,464
2025-02-20 15:44:42.275,-461.0,872.0,-431.0,-79.0,81.0,20.0,90,55,52,69,49,507,2,459
2025-02-20 15:44:42.292,-506.0,963.0,-645.0,-25.0,61.0,-7.0,89,54,53,70,50,497,3,495
2025-02-20 15:44:42.312,-623.0,1180.0,-991.0,48.0,33.0,-50.0,88,53,51,68,50,470,3,485
2025-02-20 15:44:42.332,-786.0,1534.0,-1314.0,118.0,-42.0,-114.0,89,54,52,69,50,445,3,475
2025-02-20 15:44:42.347,-900.0,1807.0,-1430.0,161.0,-166.0,-264.0,89,54,51,68,51,429,3,463
2025-02-20 15:44:42.369,-800.0,1995.0,-1401.0,177.0,-353.0,-460.0,89,54,52,69,50,436,3,458
2025-02-20 15:44:42.389,24.0,2273.0,-1057.0,52.0,-546.0,-706.0,90,54,52,69,52,455,3,463
2025-02-20 15:44:42.406,2356.0,2078.0,-1005.0,-237.0,-749.0,-928.0,90,53,51,73,53,443,2,468
2025-02-20 15:44:42.427,4856.0,-1019.0,28.0,-642.0,-627.0,-820.0,91,54,52,75,54,485,2,470
2025-02-20 15:44:42.446,4435.0,-4900.0,-159.0,-620.0,-378.0,-491.0,89,54,52,77,54,477,2,446
2025-02-20 15:44:42.464,3763.0,-6855.0,-65.0,-69.0,7.0,-193.0,89,55,52,78,53,415,3,432
2025-02-20 15:44:42.484,1941.0,-4147.0,-982.0,196.0,107.0,71.0,89,55,51,76,51,434,3,439
2025-02-20 15:44:42.501,815.0,-2321.0,-711.0,75.0,-9.0,169.0,89,55,52,75,52,484,3,462
2025-02-20 15:44:42.521,787.0,-2298.0,-120.0,31.0,-17.0,192.0,91,55,53,77,53,504,3,482
2025-02-20 15:44:42.541,673.0,-2002.0,8.0,35.0,29.0,251.0,92,55,52,77,53,506,2,473
2025-02-20 15:44:42.558,205.0,-1707.0,-156.0,83.0,19.0,296.0,91,55,52,78,54,472,3,448
2025-02-20 15:44:42.578,460.0,-1042.0,66.0,116.0,44.0,328.0,91,55,53,77,54,502,1,461
2025-02-20 15:44:42.598,385.0,-752.0,145.0,132.0,74.0,347.0,91,55,53,78,54,540,2,483
2025-02-20 15:44:42.613,245.0,-487.0,134.0,139.0,88.0,371.0,91,55,54,78,54,561,2,488
2025-02-20 15:44:42.636,62.0,-142.0,157.0,128.0,117.0,404.0,92,55,54,77,55,536,2,488
2025-02-20 15:44:42.653,3.0,217.0,185.0,124.0,127.0,421.0,91,57,54,77,55,538,3,481
2025-02-20 15:44:42.672,-83.0,547.0,130.0,134.0,141.0,416.0,92,56,54,76,55,543,3,467
2025-02-20 15:44:42.691,-135.0,699.0,26.0,188.0,133.0,374.0,91,57,56,77,55,510,3,459
2025-02-20 15:44:42.710,-255.0,1607.0,-168.0,200.0,135.0,242.0,91,57,55,73,55,536,2,457
2025-02-20 15:44:42.730,-600.0,2398.0,-302.0,162.0,98.0,54.0,90,57,51,74,54,493,2,453
2025-02-20 15:44:42.751,-585.0,2721.0,-465.0,102.0,48.0,-167.0,90,57,55,74,55,479,2,448
2025-02-20 15:44:42.766,-498.0,2250.0,-728.0,67.0,-6.0,-380.0,89,56,54,72,55,507,2,444
2025-02-20 15:44:42.788,-831.0,2046.0,-1257.0,41.0,-141.0,-570.0,89,57,54,74,55,509,3,448
2025-02-20 15:44:42.808,-403.0,2357.0,-1644.0,-80.0,-408.0,-871.0,89,56,54,74,55,468,2,453
2025-02-20 15:44:42.824,2935.0,800.0,-1399.0,-247.0,-748.0,-1017.0,91,56,53,78,56,490,3,460
2025-02-20 15:44:42.845,5573.0,-3694.0,1267.0,-354.0,-552.0,-602.0,92,56,54,80,57,495,1,461
2025-02-20 15:44:42.864,4845.0,-6854.0,1106.0,-165.0,-19.0,-171.0,92,59,54,81,58,380,2,450
2025-02-20 15:44:42.882,2340.0,-5826.0,-396.0,188.0,141.0,78.0,93,58,55,79,56,358,2,449
2025-02-20 15:44:42.902,748.0,-2772.0,-232.0,148.0,45.0,238.0,95,58,54,80,57,307,3,444
2025-02-20 15:44:42.919,811.0,-2223.0,316.0,-10.0,41.0,286.0,97,58,55,79,56,381,2,457
2025-02-20 15:44:42.940,384.0,-1803.0,95.0,-19.0,68.0,326.0,99,59,55,81,57,489,3,492
2025-02-20 15:44:42.959,135.0,-1585.0,52.0,62.0,72.0,335.0,101,59,54,80,57,488,2,481
2025-02-20 15:44:42.976,108.0,-1067.0,174.0,98.0,58.0,367.0,103,57,54,78,58,443,2,462
2025-02-20 15:44:42.996,39.0,-655.0,168.0,22.0,57.0,409.0,110,57,54,78,58,492,2,459
2025-02-20 15:44:43.016,-13.0,-490.0,291.0,-65.0,25.0,437.0,118,57,54,80,58,510,1,461
2025-02-20 15:44:43.031,-73.0,-367.0,171.0,-52.0,30.0,425.0,123,56,56,80,59,509,2,457
2025-02-20 15:44:43.054,-54.0,-131.0,290.0,18.0,-2.0,377.0,130,56,56,79,59,510,3,464
2025-02-20 15:44:43.074,-186.0,331.0,374.0,50.0,33.0,320.0,135,57,56,81,59,510,2,469
2025-02-20 15:44:43.091,-246.0,839.0,380.0,99.0,69.0,227.0,140,57,57,79,59,525,3,469
2025-02-20 15:44:43.110,-285.0,1090.0,417.0,116.0,92.0,138.0,141,57,56,78,59,536,2,470
2025-02-20 15:44:43.128,-454.0,1245.0,239.0,185.0,112.0,67.0,142,56,56,77,59,451,2,454
2025-02-20 15:44:43.148,-556.0,1948.0,-127.0,272.0,103.0,-71.0,142,56,56,75,58,420,2,448
2025-02-20 15:44:43.169,-519.0,2632.0,-407.0,257.0,79.0,-288.0,142,55,55,76,56,435,2,442
2025-02-20 15:44:43.183,-781.0,2777.0,-1005.0,66.0,-26.0,-511.0,143,55,54,75,55,439,2,428
2025-02-20 15:44:43.205,-722.0,2271.0,-1640.0,-102.0,-261.0,-784.0,143,52,54,77,54,453,2,438
2025-02-20 15:44:43.225,909.0,1078.0,-1921.0,-238.0,-588.0,-948.0,143,53,54,79,57,441,1,454
2025-02-20 15:44:43.242,3485.0,-463.0,-1636.0,-350.0,-837.0,-862.0,145,54,53,81,58,373,1,456
2025-02-20 15:44:43.263,5612.0,-4383.0,511.0,-507.0,-489.0,-428.0,146,55,54,82,59,437,1,465
2025-02-20 15:44:43.280,4773.0,-7088.0,864.0,6.0,84.0,-138.0,146,56,54,81,57,435,2,463
2025-02-20 15:44:43.300,1149.0,-3735.0,-1248.0,124.0,203.0,140.0,146,56,53,79,56,531,3,469
2025-02-20 15:44:43.320,394.0,-1907.0,-451.0,131.0,-25.0,148.0,146,56,53,80,56,618,2,486
2025-02-20 15:44:43.340,704.0,-2099.0,167.0,15.0,-42.0,170.0,147,57,53,78,55,501,1,484
2025-02-20 15:44:43.356,566.0,-2454.0,239.0,66.0,61.0,239.0,148,58,54,81,57,465,2,480
2025-02-20 15:44:43.377,388.0,-1669.0,-96.0,142.0,124.0,298.0,147,56,55,81,56,446,2,465
2025-02-20 15:44:43.393,495.0,-806.0,82.0,210.0,80.0,282.0,147,56,54,80,57,446,2,465
2025-02-20 15:44:43.415,225.0,-583.0,265.0,182.0,124.0,255.0,147,56,56,82,57,491,3,466
2025-02-20 15:44:43.434,73.0,-413.0,460.0,106.0,134.0,288.0,148,56,54,81,57,494,2,466
2025-02-20 15:44:43.451,-45.0,-394.0,380.0,52.0,156.0,334.0,147,58,56,81,58,503,2,469
2025-02-20 15:44:43.472,-228.0,-232.0,193.0,36.0,129.0,385.0,147,57,55,80,57,475,1,476
2025-02-20 15:44:43.492,260.0,75.0,463.0,182.0,149.0,273.0,147,56,55,80,57,432,2,469
2025-02-20 15:44:43.508,-218.0,534.0,190.0,224.0,204.0,237.0,147,56,55,78,57,426,2,468
2025-02-20 15:44:43.529,-501.0,911.0,249.0,195.0,167.0,205.0,147,56,55,78,56,470,3,461
2025-02-20 15:44:43.549,-948.0,1214.0,1.0,120.0,148.0,118.0,147,58,56,78,57,547,2,465
2025-02-20 15:44:43.565,-905.0,1930.0,-204.0,142.0,95.0,-91.0,146,56,55,78,57,598,1,476
2025-02-20 15:44:43.584,-949.0,2242.0,-507.0,71.0,34.0,-304.0,146,57,55,78,57,536,2,466
2025-02-20 15:44:43.606,-1324.0,2360.0,-1233.0,-60.0,-112.0,-554.0,143,56,54,80,57,495,2,459
2025-02-20 15:44:43.618,-941.0,2439.0,-1965.0,-266.0,-450.0,-728.0,144,56,55,81,58,433,3,457
2025-02-20 15:44:43.644,1471.0,2450.0,-2202.0,-566.0,-750.0,-882.0,145,54,54,82,58,361,2,450
2025-02-20 15:44:43.663,4601.0,-809.0,-1407.0,-883.0,-668.0,-714.0,145,55,55,83,56,354,2,452
2025-02-20 15:44:43.680,5995.0,-8596.0,854.0,-276.0,-25.0,-294.0,145,56,54,84,56,416,3,452
2025-02-20 15:44:43.700,2545.0,-4704.0,-2187.0,374.0,304.0,90.0,144,56,52,82,54,422,3,448
2025-02-20 15:44:43.717,1.0,-747.0,-2582.0,50.0,17.0,132.0,143,56,53,82,54,406,2,458
2025-02-20 15:44:43.738,909.0,-2903.0,-405.0,23.0,-68.0,109.0,143,56,55,81,55,394,2,481
2025-02-20 15:44:43.757,744.0,-2925.0,-181.0,113.0,97.0,235.0,144,58,56,83,55,398,2,494
2025-02-20 15:44:43.774,462.0,-2056.0,-186.0,173.0,126.0,332.0,144,57,55,85,56,329,2,490
2025-02-20 15:44:43.795,704.0,-1561.0,0.0,216.0,197.0,366.0,144,59,57,84,56,358,2,486
2025-02-20 15:44:43.812,435.0,-1061.0,38.0,230.0,182.0,395.0,144,57,58,83,56,442,2,463
2025-02-20 15:44:43.831,291.0,-503.0,150.0,189.0,210.0,403.0,143,58,58,84,56,519,2,441
2025-02-20 15:44:43.852,476.0,-305.0,275.0,155.0,284.0,435.0,143,59,60,86,58,534,2,452
2025-02-20 15:44:43.869,40.0,-345.0,61.0,110.0,309.0,470.0,142,62,61,86,62,480,2,471
2025-02-20 15:44:43.889,23.0,-2.0,-385.0,-13.0,315.0,508.0,141,66,64,92,67,438,1,466
2025-02-20 15:44:43.909,-447.0,646.0,-62.0,207.0,229.0,465.0,138,69,67,96,77,461,2,464
2025-02-20 15:44:43.926,-296.0,763.0,-416.0,215.0,216.0,406.0,137,77,72,104,88,473,3,459
2025-02-20 15:44:43.947,-230.0,769.0,-443.0,215.0,215.0,338.0,133,84,79,111,98,517,3,458
2025-02-20 15:44:43.967,-481.0,1290.0,-638.0,286.0,177.0,234.0,132,92,82,115,105,551,1,460
2025-02-20 15:44:43.984,-732.0,1480.0,-830.0,184.0,24.0,81.0,130,98,85,119,110,528,3,473
2025-02-20 15:44:44.004,-718.0,1729.0,-1056.0,-16.0,-135.0,-188.0,128,101,87,119,114,514,2,476
2025-02-20 15:44:44.024,-922.0,1621.0,-1256.0,-49.0,-292.0,-445.0,128,104,90,122,121,519,2,467
2025-02-20 15:44:44.042,-1125.0,1600.0,-1196.0,-58.0,-421.0,-676.0,126,108,92,125,124,529,3,453
2025-02-20 15:44:44.061,392.0,1933.0,-271.0,-98.0,-545.0,-907.0,129,115,95,127,127,508,2,453
2025-02-20 15:44:44.081,1569.0,1057.0,-281.0,-340.0,-693.0,-1031.0,133,119,98,130,128,483,2,467
2025-02-20 15:44:44.099,2730.0,-891.0,-412.0,-390.0,-810.0,-948.0,134,120,101,131,128,422,2,499
2025-02-20 15:44:44.118,4066.0,-3222.0,-1852.0,-350.0,-801.0,-538.0,129,122,103,133,129,379,2,506
2025-02-20 15:44:44.139,3484.0,-5042.0,766.0,-169.0,-359.0,-101.0,127,123,105,133,130,457,1,490
2025-02-20 15:44:44.156,3170.0,-3689.0,-8.0,-51.0,-84.0,176.0,130,125,106,134,131,440,2,473
2025-02-20 15:44:44.176,546.0,-1674.0,-1766.0,277.0,223.0,271.0,133,125,106,134,130,426,2,458
2025-02-20 15:44:44.193,496.0,-1594.0,69.0,176.0,198.0,321.0,135,125,106,133,130,514,3,451
2025-02-20 15:44:44.213,88.0,-1298.0,-157.0,87.0,99.0,302.0,136,125,105,134,130,498,3,470
2025-02-20 15:44:44.233,62.0,-1540.0,51.0,78.0,132.0,306.0,134,124,105,134,131,477,1,468
2025-02-20 15:44:44.250,-76.0,-1289.0,-1736.0,175.0,158.0,346.0,133,125,106,134,131,371,3,456
2025-02-20 15:44:44.269,165.0,-1021.0,-430.0,206.0,171.0,356.0,134,125,106,134,131,342,2,447
2025-02-20 15:44:44.290,118.0,-548.0,286.0,196.0,281.0,393.0,134,125,106,133,132,409,2,485
2025-02-20 15:44:44.305,75.0,-306.0,12.0,-10.0,230.0,408.0,134,125,105,134,132,547,2,490
2025-02-20 15:44:44.327,-136.0,-209.0,102.0,126.0,120.0,389.0,133,124,105,134,133,522,2,484
2025-02-20 15:44:44.344,-510.0,246.0,297.0,167.0,130.0,363.0,134,124,105,134,133,496,2,463
2025-02-20 15:44:44.365,-494.0,662.0,73.0,51.0,114.0,291.0,132,124,105,134,132,482,2,454
2025-02-20 15:44:44.385,-373.0,258.0,244.0,47.0,140.0,219.0,132,124,106,133,133,462,1,455
2025-02-20 15:44:44.401,-636.0,537.0,6.0,171.0,105.0,157.0,132,122,106,132,132,477,0,458
2025-02-20 15:44:44.422,-891.0,1180.0,-318.0,203.0,23.0,40.0,132,121,105,134,133,458,2,450
2025-02-20 15:44:44.442,-736.0,1470.0,-398.0,165.0,-42.0,-105.0,131,121,105,133,134,454,2,442
2025-02-20 15:44:44.459,-639.0,1432.0,-285.0,130.0,-96.0,-323.0,131,122,106,133,133,439,1,440
2025-02-20 15:44:44.479,-669.0,1888.0,-615.0,107.0,-168.0,-557.0,132,122,108,134,133,424,2,447
2025-02-20 15:44:44.500,-415.0,1799.0,-528.0,-17.0,-401.0,-874.0,132,124,107,134,131,396,2,451
2025-02-20 15:44:44.516,1769.0,313.0,-246.0,-277.0,-631.0,-1040.0,131,127,107,134,132,356,2,464
2025-02-20 15:44:44.536,2847.0,-1347.0,-533.0,-496.0,-744.0,-936.0,127,127,108,134,131,393,2,492
2025-02-20 15:44:44.556,4593.0,-3730.0,-1350.0,-266.0,-608.0,-401.0,127,127,108,135,133,444,2,478
2025-02-20 15:44:44.574,4007.0,-5126.0,-742.0,-157.0,-225.0,19.0,128,128,109,135,132,457,2,442
2025-02-20 15:44:44.593,1740.0,-3373.0,-632.0,132.0,68.0,201.0,130,127,110,135,136,445,2,441
2025-02-20 15:44:44.612,616.0,-2415.0,50.0,246.0,87.0,230.0,133,129,109,134,131,509,2,462
2025-02-20 15:44:44.630,412.0,-1746.0,41.0,135.0,136.0,262.0,134,129,109,135,129,551,2,475
2025-02-20 15:44:44.648,15.0,-1471.0,13.0,41.0,107.0,255.0,134,128,107,135,132,415,2,495
2025-02-20 15:44:44.668,54.0,-1520.0,-276.0,-8.0,130.0,290.0,134,129,105,134,131,365,2,508
2025-02-20 15:44:44.686,176.0,-1244.0,-148.0,65.0,82.0,306.0,133,127,106,134,132,260,2,516
2025-02-20 15:44:44.708,122.0,-874.0,179.0,-9.0,107.0,312.0,133,125,105,133,133,336,2,508
2025-02-20 15:44:44.723,-159.0,-955.0,336.0,74.0,44.0,338.0,133,121,100,130,130,448,2,509
2025-02-20 15:44:44.745,-46.0,-642.0,345.0,-51.0,89.0,376.0,135,117,95,126,124,556,2,489
2025-02-20 15:44:44.762,48.0,-516.0,322.0,18.0,92.0,430.0,135,112,92,118,112,557,1,463
2025-02-20 15:44:44.783,80.0,-581.0,529.0,59.0,140.0,489.0,135,103,82,112,100,511,2,467
2025-02-20 15:44:44.802,52.0,-40.0,313.0,153.0,170.0,524.0,135,89,73,105,85,457,1,473
2025-02-20 15:44:44.819,30.0,196.0,24.0,284.0,186.0,485.0,134,78,68,99,72,447,2,470
2025-02-20 15:44:44.840,-154.0,1085.0,-302.0,392.0,195.0,359.0,133,67,62,90,61,479,1,459
2025-02-20 15:44:44.859,-542.0,3245.0,-797.0,409.0,59.0,47.0,133,60,59,86,54,489,1,447
2025-02-20 15:44:44.877,-879.0,3603.0,-1240.0,231.0,-100.0,-316.0,131,59,56,84,53,527,2,442
2025-02-20 15:44:44.897,-917.0,2622.0,-1839.0,67.0,-242.0,-580.0,129,54,53,79,51,486,1,442
2025-02-20 15:44:44.917,-695.0,2143.0,-1735.0,-13.0,-548.0,-789.0,130,52,51,74,49,458,1,441
2025-02-20 15:44:44.934,1125.0,2227.0,-1897.0,-210.0,-850.0,-908.0,134,52,51,77,50,477,2,443
2025-02-20 15:44:44.954,4134.0,-243.0,-773.0,-383.0,-925.0,-719.0,143,53,51,78,50,475,2,444
2025-02-20 15:44:44.975,5172.0,-3472.0,556.0,-724.0,-548.0,-460.0,145,53,48,79,51,470,2,447
2025-02-20 15:44:44.991,4235.0,-6359.0,656.0,-325.0,-60.0,-178.0,144,52,49,78,49,398,1,447
2025-02-20 15:44:45.011,1961.0,-4572.0,-482.0,63.0,131.0,59.0,143,52,48,77,49,376,3,441
2025-02-20 15:44:45.029,630.0,-1555.0,-1247.0,83.0,73.0,129.0,144,52,49,77,51,440,3,440
2025-02-20 15:44:45.049,549.0,-1879.0,-266.0,47.0,19.0,105.0,144,54,51,77,51,507,1,439
2025-02-20 15:44:45.069,365.0,-2083.0,-145.0,53.0,84.0,134.0,144,55,51,78,51,423,2,462
2025-02-20 15:44:45.085,403.0,-1787.0,89.0,102.0,100.0,171.0,144,56,50,79,51,372,1,454
2025-02-20 15:44:45.104,404.0,-1536.0,250.0,116.0,105.0,241.0,145,56,51,80,51,404,2,452
2025-02-20 15:44:45.126,100.0,-893.0,245.0,93.0,63.0,273.0,144,56,52,81,52,462,2,461
2025-02-20 15:44:45.139,284.0,-577.0,449.0,130.0,107.0,204.0,145,56,52,81,52,491,2,466
2025-02-20 15:44:45.163,165.0,-672.0,550.0,64.0,141.0,261.0,145,55,52,81,52,491,2,465
2025-02-20 15:44:45.180,-174.0,-756.0,186.0,8.0,180.0,339.0,144,55,52,81,52,516,2,479
2025-02-20 15:44:45.201,-326.0,-504.0,-106.0,45.0,116.0,374.0,145,55,52,81,52,492,2,486
2025-02-20 15:44:45.221,137.0,234.0,407.0,161.0,130.0,270.0,145,54,52,82,53,473,3,469
2025-02-20 15:44:45.238,-312.0,449.0,243.0,130.0,149.0,260.0,145,55,53,83,53,483,2,462
2025-02-20 15:44:45.257,-542.0,350.0,-5.0,60.0,141.0,231.0,144,56,52,80,52,503,1,459
2025-02-20 15:44:45.278,-697.0,460.0,-110.0,107.0,98.0,189.0,145,55,53,77,53,500,2,453
2025-02-20 15:44:45.292,-593.0,1119.0,-96.0,192.0,65.0,68.0,144,56,53,78,53,516,2,449
2025-02-20 15:44:45.315,-857.0,1702.0,-211.0,151.0,38.0,-115.0,144,57,53,79,54,494,2,461
2025-02-20 15:44:45.334,-1026.0,1681.0,-393.0,63.0,-31.0,-277.0,143,57,53,79,53,484,2,469
2025-02-20 15:44:45.351,-1162.0,1716.0,-584.0,18.0,-130.0,-492.0,143,56,54,81,54,511,2,472
2025-02-20 15:44:45.371,-799.0,2176.0,-1209.0,-166.0,-362.0,-748.0,143,56,54,84,55,453,2,469
2025-02-20 15:44:45.392,1418.0,904.0,-1822.0,-428.0,-664.0,-873.0,143,57,54,85,55,470,2,473
2025-02-20 15:44:45.407,4140.0,-1599.0,-958.0,-732.0,-638.0,-677.0,145,57,55,87,56,427,2,471
2025-02-20 15:44:45.430,5034.0,-5587.0,162.0,-547.0,-189.0,-336.0,146,57,56,87,54,343,2,455
2025-02-20 15:44:45.444,2809.0,-6409.0,-771.0,162.0,177.0,114.0,143,58,56,87,55,393,2,459
2025-02-20 15:44:45.466,669.0,-1637.0,-2254.0,203.0,-29.0,283.0,141,59,56,89,57,526,2,473
2025-02-20 15:44:45.486,386.0,-1566.0,-584.0,78.0,31.0,188.0,142,60,57,89,57,534,1,477
2025-02-20 15:44:45.504,614.0,-1786.0,-123.0,22.0,45.0,197.0,144,62,59,89,58,492,3,480
2025-02-20 15:44:45.522,510.0,-1602.0,0.0,40.0,123.0,248.0,145,64,61,91,58,398,3,470
2025-02-20 15:44:45.543,470.0,-1648.0,113.0,174.0,163.0,291.0,143,66,63,91,59,320,3,473
2025-02-20 15:44:45.560,376.0,-1336.0,57.0,230.0,181.0,338.0,141,67,65,91,58,354,2,449
2025-02-20 15:44:45.580,276.0,-1022.0,279.0,243.0,258.0,393.0,140,71,67,92,59,421,2,464
2025-02-20 15:44:45.601,439.0,-863.0,91.0,235.0,220.0,444.0,138,77,71,94,61,529,3,495
2025-02-20 15:44:45.617,348.0,-433.0,-95.0,223.0,256.0,503.0,138,83,76,92,62,540,2,491
2025-02-20 15:44:45.638,380.0,-20.0,-229.0,231.0,287.0,526.0,137,91,80,93,64,529,2,474
2025-02-20 15:44:45.656,-269.0,450.0,-265.0,283.0,259.0,499.0,137,99,84,93,66,536,3,471
2025-02-20 15:44:45.675,-288.0,556.0,-353.0,289.0,239.0,446.0,137,106,89,95,68,512,3,479
2025-02-20 15:44:45.695,-559.0,744.0,-636.0,291.0,201.0,386.0,136,110,91,96,70,561,3,471
2025-02-20 15:44:45.710,-825.0,1167.0,-693.0,260.0,110.0,239.0,138,113,95,96,71,532,3,462
2025-02-20 15:44:45.733,-789.0,1706.0,-674.0,92.0,10.0,67.0,138,116,99,96,72,461,3,436
2025-02-20 15:44:45.752,-855.0,1749.0,-914.0,34.0,-84.0,-191.0,138,116,101,95,70,449,3,432
2025-02-20 15:44:45.769,-1098.0,1965.0,-1055.0,-48.0,-212.0,-420.0,141,118,104,96,69,442,3,433
2025-02-20 15:44:45.790,-1004.0,1611.0,-1068.0,-50.0,-361.0,-690.0,141,121,106,97,68,509,3,451
2025-02-20 15:44:45.807,-469.0,1422.0,-1026.0,-34.0,-650.0,-877.0,141,122,107,99,68,389,2,463
2025-02-20 15:44:45.827,1592.0,1665.0,-1021.0,-308.0,-918.0,-941.0,141,125,108,100,66,348,2,466
2025-02-20 15:44:45.847,3149.0,-1434.0,-333.0,-499.0,-926.0,-695.0,140,126,109,102,67,367,3,471
2025-02-20 15:44:45.868,3625.0,-3630.0,-518.0,-419.0,-682.0,-346.0,139,129,108,104,68,472,3,476
2025-02-20 15:44:45.884,3622.0,-4021.0,159.0,-90.0,-253.0,19.0,139,130,108,103,66,447,3,432
2025-02-20 15:44:45.904,2292.0,-2768.0,604.0,222.0,159.0,105.0,139,131,109,106,67,429,3,427
2025-02-20 15:44:45.922,889.0,-1852.0,449.0,216.0,244.0,145.0,139,131,109,106,66,454,3,490
2025-02-20 15:44:45.942,523.0,-1584.0,360.0,84.0,208.0,235.0,139,131,109,107,66,448,2,486
2025-02-20 15:44:45.961,473.0,-1420.0,391.0,2.0,212.0,279.0,140,132,110,104,66,433,3,484
2025-02-20 15:44:45.976,399.0,-1300.0,265.0,32.0,251.0,301.0,139,131,109,103,64,483,2,482
2025-02-20 15:44:45.999,352.0,-1102.0,235.0,113.0,268.0,318.0,139,132,110,102,64,470,3,484
2025-02-20 15:44:46.019,-9.0,-700.0,64.0,112.0,264.0,357.0,139,134,111,102,65,446,2,473
2025-02-20 15:44:46.035,-205.0,-191.0,48.0,68.0,242.0,373.0,139,131,111,102,64,368,4,479
2025-02-20 15:44:46.056,-394.0,-106.0,110.0,37.0,218.0,377.0,140,132,110,100,63,385,2,454
2025-02-20 15:44:46.074,-281.0,-99.0,61.0,82.0,217.0,360.0,140,132,111,98,62,423,3,445
2025-02-20 15:44:46.092,-441.0,281.0,41.0,103.0,238.0,340.0,139,132,110,97,63,417,3,442
2025-02-20 15:44:46.114,-782.0,615.0,-118.0,61.0,196.0,266.0,139,131,111,94,62,466,2,449
2025-02-20 15:44:46.128,-841.0,534.0,-325.0,77.0,135.0,187.0,139,131,111,96,63,497,2,461
2025-02-20 15:44:46.151,-928.0,1077.0,-531.0,104.0,78.0,70.0,139,130,113,94,61,496,2,460
2025-02-20 15:44:46.170,-1062.0,1187.0,-752.0,47.0,-40.0,-60.0,142,131,112,94,63,477,3,473
2025-02-20 15:44:46.187,-969.0,1410.0,-801.0,80.0,-131.0,-240.0,139,130,111,95,64,517,3,483
2025-02-20 15:44:46.207,-1202.0,1664.0,-696.0,71.0,-280.0,-497.0,139,130,111,96,64,525,2,474
2025-02-20 15:44:46.223,-1060.0,1670.0,-860.0,-19.0,-508.0,-730.0,139,131,112,97,64,491,3,470
2025-02-20 15:44:46.245,816.0,1551.0,-1334.0,-163.0,-794.0,-877.0,139,131,110,100,65,465,3,478
2025-02-20 15:44:46.266,2843.0,-26.0,-1592.0,-405.0,-962.0,-776.0,139,130,111,103,67,417,3,494
2025-02-20 15:44:46.285,4274.0,-3653.0,-51.0,-353.0,-647.0,-376.0,138,131,111,104,67,442,2,496
2025-02-20 15:44:46.303,4099.0,-4623.0,676.0,18.0,-68.0,-17.0,138,132,111,104,68,482,3,479
2025-02-20 15:44:46.322,2449.0,-3183.0,686.0,251.0,234.0,98.0,138,132,109,103,66,425,2,464
2025-02-20 15:44:46.340,702.0,-1891.0,500.0,160.0,198.0,129.0,138,133,111,103,66,394,3,467
2025-02-20 15:44:46.359,328.0,-1643.0,314.0,-32.0,108.0,172.0,139,133,110,105,67,496,3,480
2025-02-20 15:44:46.377,476.0,-1735.0,397.0,-67.0,103.0,196.0,139,133,109,104,66,463,3,482
2025-02-20 15:44:46.396,554.0,-1798.0,186.0,-3.0,161.0,237.0,139,132,110,101,66,369,3,461
2025-02-20 15:44:46.417,307.0,-1219.0,247.0,54.0,179.0,264.0,138,132,111,101,67,394,2,443
2025-02-20 15:44:46.436,186.0,-782.0,395.0,43.0,182.0,274.0,139,132,110,103,68,328,3,447
2025-02-20 15:44:46.453,-83.0,-680.0,628.0,-43.0,182.0,318.0,138,132,108,102,68,326,3,468
2025-02-20 15:44:46.474,2.0,-709.0,363.0,-57.0,191.0,368.0,139,131,108,104,69,439,3,485
2025-02-20 15:44:46.494,-20.0,-488.0,434.0,-33.0,220.0,396.0,140,133,106,103,70,477,2,489
2025-02-20 15:44:46.511,-77.0,-123.0,185.0,-45.0,229.0,453.0,142,130,106,102,71,485,2,492
2025-02-20 15:44:46.531,-120.0,252.0,175.0,-56.0,209.0,460.0,143,129,105,101,72,500,2,494
2025-02-20 15:44:46.548,-103.0,522.0,31.0,76.0,229.0,425.0,142,126,101,99,70,559,2,477
2025-02-20 15:44:46.565,-617.0,1082.0,-313.0,254.0,256.0,283.0,143,122,94,98,66,541,3,466
2025-02-20 15:44:46.587,-906.0,2442.0,-1047.0,228.0,124.0,46.0,142,113,86,96,64,540,2,457
2025-02-20 15:44:46.609,-1269.0,2983.0,-1689.0,103.0,-143.0,-328.0,137,103,76,96,63,530,2,447
2025-02-20 15:44:46.625,-863.0,2496.0,-1811.0,-15.0,-396.0,-525.0,128,84,69,98,62,520,2,453
2025-02-20 15:44:46.644,58.0,1242.0,-1386.0,-8.0,-577.0,-643.0,126,74,65,100,62,523,2,464
2025-02-20 15:44:46.663,1511.0,563.0,-470.0,-99.0,-628.0,-621.0,129,67,61,98,61,509,3,473
2025-02-20 15:44:46.682,2021.0,-1392.0,30.0,-219.0,-667.0,-552.0,137,63,56,98,60,474,2,452
2025-02-20 15:44:46.702,3018.0,-3058.0,511.0,-249.0,-461.0,-429.0,142,62,54,98,60,422,3,446
2025-02-20 15:44:46.720,2801.0,-4262.0,1064.0,-59.0,-182.0,-182.0,145,63,53,96,59,420,1,447
2025-02-20 15:44:46.740,1474.0,-3405.0,743.0,18.0,37.0,-16.0,146,64,53,94,58,394,2,444
2025-02-20 15:44:46.757,546.0,-2706.0,307.0,36.0,58.0,64.0,146,66,53,93,58,418,2,437
2025-02-20 15:44:46.777,293.0,-2340.0,346.0,13.0,54.0,114.0,146,66,55,94,60,498,4,433
2025-02-20 15:44:46.797,462.0,-2341.0,492.0,17.0,111.0,159.0,146,68,55,95,60,511,3,472
2025-02-20 15:44:46.813,428.0,-2022.0,520.0,17.0,151.0,253.0,146,68,56,95,60,402,2,491
2025-02-20 15:44:46.835,153.0,-1484.0,307.0,80.0,154.0,242.0,146,68,56,96,60,307,3,468
2025-02-20 15:44:46.855,138.0,-1071.0,270.0,41.0,160.0,286.0,147,67,57,95,59,324,2,446
2025-02-20 15:44:46.872,33.0,-868.0,292.0,-23.0,161.0,349.0,146,67,59,95,60,400,2,458
2025-02-20 15:44:46.892,76.0,-787.0,68.0,-52.0,155.0,384.0,146,65,58,96,59,475,2,480
2025-02-20 15:44:46.912,64.0,-272.0,286.0,25.0,141.0,339.0,146,68,59,97,58,513,2,487
2025-02-20 15:44:46.930,27.0,91.0,59.0,136.0,148.0,312.0,147,68,59,97,60,543,2,489
2025-02-20 15:44:46.949,-269.0,409.0,53.0,94.0,152.0,331.0,145,67,59,98,59,558,2,486
2025-02-20 15:44:46.965,-299.0,748.0,244.0,95.0,104.0,275.0,145,67,60,95,58,538,1,471
2025-02-20 15:44:46.986,-489.0,1100.0,-95.0,179.0,97.0,162.0,144,68,60,95,60,508,2,461
2025-02-20 15:44:47.006,-626.0,1786.0,-208.0,241.0,72.0,-20.0,143,68,60,95,59,487,2,463
2025-02-20 15:44:47.024,-815.0,2275.0,-328.0,166.0,30.0,-195.0,141,69,61,94,60,481,3,460
2025-02-20 15:44:47.043,-1257.0,2023.0,-881.0,76.0,-78.0,-410.0,138,68,59,92,59,492,2,455
2025-02-20 15:44:47.063,-1241.0,1967.0,-1126.0,-12.0,-315.0,-616.0,138,67,60,95,59,472,3,459
2025-02-20 15:44:47.080,-164.0,2064.0,-1686.0,-125.0,-564.0,-820.0,137,66,59,98,60,432,2,461
2025-02-20 15:44:47.100,2721.0,1164.0,-1547.0,-451.0,-912.0,-733.0,143,65,60,100,61,512,3,458
2025-02-20 15:44:47.121,4523.0,-2771.0,-388.0,-817.0,-608.0,-516.0,144,66,60,100,61,447,2,463
2025-02-20 15:44:47.138,4779.0,-6476.0,632.0,-451.0,-173.0,-212.0,143,66,59,98,58,367,2,453
2025-02-20 15:44:47.158,2665.0,-5886.0,-567.0,223.0,242.0,65.0,141,66,58,98,56,429,2,459
2025-02-20 15:44:47.178,609.0,-1339.0,-1292.0,-14.0,53.0,242.0,139,66,57,99,59,470,2,467
2025-02-20 15:44:47.195,343.0,-1689.0,-523.0,85.0,16.0,137.0,141,71,59,99,59,410,2,443
2025-02-20 15:44:47.215,415.0,-1599.0,-37.0,66.0,47.0,134.0,143,71,61,99,60,340,3,474
2025-02-20 15:44:47.232,404.0,-1651.0,33.0,117.0,126.0,157.0,143,70,62,99,60,366,2,531
2025-02-20 15:44:47.250,73.0,-1583.0,-139.0,214.0,127.0,198.0,141,70,60,101,60,339,3,506
2025-02-20 15:44:47.272,94.0,-1207.0,158.0,173.0,118.0,258.0,141,70,60,99,59,430,2,476
2025-02-20 15:44:47.289,323.0,-658.0,406.0,133.0,121.0,232.0,141,69,62,100,60,486,3,479
2025-02-20 15:44:47.310,348.0,-724.0,648.0,70.0,171.0,256.0,141,69,63,102,60,523,2,477
2025-02-20 15:44:47.329,349.0,-811.0,520.0,18.0,246.0,311.0,141,71,63,102,62,554,3,482
2025-02-20 15:44:47.347,-142.0,-625.0,30.0,-2.0,257.0,346.0,139,72,64,100,61,570,2,498
2025-02-20 15:44:47.365,-66.0,-411.0,162.0,77.0,200.0,370.0,138,71,63,100,61,586,3,502
2025-02-20 15:44:47.387,394.0,-363.0,54.0,141.0,295.0,370.0,135,70,64,100,62,553,3,486
2025-02-20 15:44:47.403,-28.0,-163.0,-261.0,159.0,365.0,406.0,133,69,62,99,62,507,3,477
2025-02-20 15:44:47.423,-411.0,130.0,-552.0,208.0,259.0,422.0,133,66,61,95,62,488,2,453
2025-02-20 15:44:47.443,-481.0,632.0,-925.0,245.0,155.0,378.0,131,65,57,91,61,472,2,438
2025-02-20 15:44:47.461,-858.0,709.0,-1176.0,329.0,-8.0,260.0,128,62,55,88,60,480,3,429
2025-02-20 15:44:47.481,-627.0,1747.0,-1925.0,300.0,-130.0,99.0,121,58,52,85,58,518,2,433
2025-02-20 15:44:47.501,-1396.0,2714.0,-2611.0,265.0,-373.0,-208.0,116,58,52,85,57,477,2,418
2025-02-20 15:44:47.518,-771.0,2894.0,-2334.0,153.0,-662.0,-453.0,115,58,54,87,58,390,2,424
2025-02-20 15:44:47.534,509.0,2035.0,-1961.0,-33.0,-942.0,-602.0,117,58,54,90,59,412,2,441
2025-02-20 15:44:47.556,3871.0,-167.0,-501.0,-215.0,-1155.0,-506.0,123,60,54,96,61,457,3,451
2025-02-20 15:44:47.576,4810.0,-3872.0,4242.0,-234.0,-595.0,-82.0,125,62,58,99,63,443,3,440
2025-02-20 15:44:47.596,3309.0,-3757.0,4201.0,-68.0,193.0,-32.0,125,62,58,99,63,406,2,435
2025-02-20 15:44:47.613,987.0,-2643.0,2125.0,14.0,436.0,81.0,126,63,58,92,62,412,2,426
2025-02-20 15:44:47.633,-90.0,-781.0,1598.0,-101.0,269.0,77.0,127,64,59,93,62,397,3,435
2025-02-20 15:44:47.653,-242.0,-1578.0,965.0,-250.0,215.0,117.0,127,66,60,97,62,455,3,467
2025-02-20 15:44:47.670,-285.0,-1689.0,739.0,-183.0,214.0,182.0,128,66,61,98,60,479,2,490
2025-02-20 15:44:47.690,-63.0,-1205.0,890.0,-76.0,263.0,196.0,129,65,61,100,61,428,2,497
2025-02-20 15:44:47.708,-150.0,-500.0,266.0,-76.0,353.0,199.0,129,66,62,97,60,446,2,498
2025-02-20 15:44:47.728,-981.0,-157.0,-148.0,-43.0,273.0,152.0,128,64,63,97,60,483,2,475
2025-02-20 15:44:47.748,-706.0,89.0,-102.0,-91.0,177.0,127.0,128,65,63,98,61,484,3,445
2025-02-20 15:44:47.764,-363.0,-44.0,231.0,-161.0,137.0,141.0,129,64,63,100,61,465,3,434
2025-02-20 15:44:47.783,-456.0,-369.0,124.0,-143.0,147.0,157.0,130,64,62,98,62,538,3,450
2025-02-20 15:44:47.801,-498.0,-266.0,-74.0,-28.0,145.0,157.0,129,64,62,99,61,476,1,461
2025-02-20 15:44:47.821,-606.0,166.0,-224.0,56.0,126.0,127.0,130,64,63,97,63,416,3,456
2025-02-20 15:44:47.841,-706.0,559.0,-403.0,34.0,75.0,87.0,129,65,63,93,62,394,3,445
2025-02-20 15:44:47.859,-565.0,507.0,-530.0,55.0,16.0,42.0,129,65,62,95,62,405,2,456
2025-02-20 15:44:47.879,-673.0,561.0,-999.0,177.0,-26.0,-31.0,129,65,62,95,62,460,2,472
2025-02-20 15:44:47.898,-1583.0,1155.0,-2043.0,307.0,-251.0,-213.0,127,63,61,93,62,461,3,462
2025-02-20 15:44:47.919,-1661.0,1515.0,-2708.0,355.0,-604.0,-397.0,126,64,61,93,61,450,2,451
2025-02-20 15:44:47.934,288.0,1592.0,-2282.0,301.0,-1032.0,-501.0,127,61,60,95,62,447,2,458
2025-02-20 15:44:47.956,4565.0,-635.0,-470.0,156.0,-1229.0,-325.0,133,63,61,97,62,435,3,461
2025-02-20 15:44:47.970,5235.0,-3596.0,3275.0,457.0,-721.0,-71.0,138,63,61,96,67,421,2,461
2025-02-20 15:44:47.993,2972.0,-993.0,4744.0,502.0,-35.0,12.0,142,67,62,92,68,368,3,450
2025-02-20 15:44:48.013,1256.0,376.0,3754.0,79.0,223.0,-38.0,144,69,61,93,70,349,2,445
2025-02-20 15:44:48.030,863.0,-796.0,2752.0,-102.0,330.0,30.0,143,71,62,93,70,381,2,438
2025-02-20 15:44:48.049,476.0,-942.0,1763.0,-65.0,386.0,82.0,142,79,62,93,71,399,2,457
2025-02-20 15:44:48.066,140.0,-1085.0,1275.0,31.0,381.0,97.0,142,89,61,94,70,354,2,477
2025-02-20 15:44:48.087,-135.0,-695.0,815.0,48.0,374.0,109.0,141,101,61,92,71,441,3,475
2025-02-20 15:44:48.107,-317.0,-476.0,746.0,5.0,371.0,130.0,138,108,60,89,69,476,2,464
2025-02-20 15:44:48.125,-417.0,-66.0,420.0,27.0,324.0,116.0,136,113,59,88,69,540,3,449
2025-02-20 15:44:48.145,-343.0,-21.0,348.0,42.0,298.0,106.0,134,115,60,89,67,588,3,448
2025-02-20 15:44:48.165,-342.0,360.0,304.0,-6.0,312.0,115.0,132,115,60,89,67,566,3,456
2025-02-20 15:44:48.182,-199.0,500.0,197.0,-92.0,336.0,144.0,130,116,63,89,67,563,3,465
2025-02-20 15:44:48.201,-305.0,326.0,55.0,-125.0,343.0,149.0,128,113,61,89,66,508,3,483
2025-02-20 15:44:48.223,-233.0,236.0,-178.0,-80.0,332.0,125.0,127,109,61,88,66,489,3,480
2025-02-20 15:44:48.240,-781.0,239.0,-1042.0,-4.0,243.0,49.0,117,109,59,86,62,479,2,467
2025-02-20 15:44:48.260,-1635.0,342.0,-2037.0,98.0,-91.0,-69.0,109,107,60,85,62,513,0,475
2025-02-20 15:44:48.279,-1226.0,929.0,-1909.0,118.0,-397.0,-163.0,101,108,59,86,60,530,3,461
2025-02-20 15:44:48.297,-779.0,552.0,-2989.0,114.0,-735.0,-191.0,92,108,57,87,58,549,2,410
2025-02-20 15:44:48.316,1198.0,148.0,-3522.0,268.0,-1183.0,-130.0,88,111,58,86,59,502,3,404
2025-02-20 15:44:48.337,2750.0,-102.0,-1716.0,374.0,-1259.0,13.0,91,111,57,88,60,495,3,436
2025-02-20 15:44:48.352,2888.0,82.0,1379.0,314.0,-937.0,69.0,100,112,57,87,63,482,2,426
2025-02-20 15:44:48.374,2864.0,729.0,3257.0,209.0,-536.0,30.0,106,112,56,86,64,451,2,448
2025-02-20 15:44:48.392,2784.0,952.0,3367.0,135.0,-202.0,-53.0,107,111,57,86,65,392,2,458
2025-02-20 15:44:48.412,2552.0,684.0,3333.0,42.0,-3.0,-58.0,108,110,57,88,65,424,3,476
2025-02-20 15:44:48.432,1897.0,424.0,2904.0,-93.0,166.0,-7.0,110,109,59,88,65,333,2,484
2025-02-20 15:44:48.448,999.0,221.0,2039.0,-194.0,263.0,23.0,111,109,58,90,66,453,3,478
2025-02-20 15:44:48.467,680.0,9.0,1533.0,-195.0,309.0,3.0,109,110,57,91,67,403,3,492
2025-02-20 15:44:48.485,531.0,-210.0,1157.0,-129.0,338.0,-36.0,108,109,58,92,67,369,2,500
2025-02-20 15:44:48.503,446.0,-208.0,804.0,-36.0,304.0,-40.0,104,104,58,90,66,458,3,470
2025-02-20 15:44:48.526,273.0,39.0,1047.0,-70.0,282.0,2.0,105,101,62,90,66,447,3,469
2025-02-20 15:44:48.538,270.0,61.0,1116.0,-169.0,320.0,49.0,108,102,59,90,66,467,3,479
2025-02-20 15:44:48.563,72.0,-180.0,744.0,-171.0,341.0,101.0,108,102,59,92,66,478,3,475
2025-02-20 15:44:48.583,-164.0,48.0,323.0,-119.0,282.0,76.0,104,98,60,92,66,483,2,478
2025-02-20 15:44:48.600,-173.0,65.0,654.0,-90.0,259.0,40.0,104,96,59,93,66,514,2,491
2025-02-20 15:44:48.620,-15.0,234.0,740.0,-130.0,338.0,46.0,108,93,61,93,66,507,3,488
2025-02-20 15:44:48.638,-236.0,-6.0,204.0,-143.0,348.0,71.0,110,90,62,92,66,504,2,479
2025-02-20 15:44:48.656,-427.0,-221.0,-108.0,-92.0,278.0,108.0,108,91,61,92,65,515,2,482
2025-02-20 15:44:48.677,-502.0,-13.0,-280.0,-22.0,193.0,106.0,104,91,61,93,65,500,2,481
2025-02-20 15:44:48.697,-470.0,231.0,-163.0,-4.0,145.0,85.0,104,94,61,92,64,477,2,475
2025-02-20 15:44:48.714,-640.0,371.0,-296.0,-14.0,93.0,63.0,105,93,61,92,65,475,2,475
2025-02-20 15:44:48.734,-1377.0,596.0,-1459.0,-2.0,-62.0,-22.0,101,92,61,90,63,479,2,461
2025-02-20 15:44:48.755,-2127.0,785.0,-2855.0,175.0,-614.0,-241.0,95,92,61,89,61,482,2,450
2025-02-20 15:44:48.771,711.0,1009.0,-2270.0,315.0,-1052.0,-240.0,94,95,60,90,62,455,3,471
2025-02-20 15:44:48.792,2441.0,30.0,-404.0,328.0,-1102.0,-104.0,101,101,59,91,64,463,2,465
2025-02-20 15:44:48.813,2470.0,-123.0,1661.0,271.0,-857.0,-16.0,111,105,58,91,67,451,3,459
2025-02-20 15:44:48.829,3120.0,-43.0,3389.0,189.0,-510.0,51.0,117,106,58,90,69,410,3,447
2025-02-20 15:44:48.850,2678.0,380.0,4161.0,10.0,-119.0,64.0,120,108,60,90,71,358,1,448
2025-02-20 15:44:48.866,2327.0,465.0,3672.0,-171.0,168.0,89.0,122,108,60,88,70,385,2,450
2025-02-20 15:44:48.886,1648.0,241.0,2865.0,-325.0,385.0,112.0,127,108,61,89,71,450,1,450
2025-02-20 15:44:48.902,1180.0,248.0,1803.0,-465.0,529.0,156.0,130,104,62,92,72,492,3,461
2025-02-20 15:44:48.922,762.0,309.0,1005.0,-543.0,577.0,173.0,131,103,63,93,73,548,2,471
2025-02-20 15:44:48.944,592.0,-161.0,726.0,-517.0,599.0,190.0,131,104,66,94,74,513,2,484
2025-02-20 15:44:48.964,712.0,-534.0,322.0,-382.0,641.0,202.0,130,106,69,97,77,454,2,496
2025-02-20 15:44:48.981,506.0,-589.0,-77.0,-222.0,632.0,207.0,128,108,72,100,84,413,2,491
2025-02-20 15:44:49.001,-65.0,-234.0,-544.0,-172.0,545.0,227.0,126,108,78,103,95,417,3,484
2025-02-20 15:44:49.021,-104.0,-141.0,-354.0,-118.0,483.0,301.0,127,109,83,112,104,422,3,466
2025-02-20 15:44:49.037,-501.0,190.0,-553.0,-54.0,397.0,275.0,125,112,86,113,108,436,3,464
2025-02-20 15:44:49.058,-669.0,-260.0,-572.0,-69.0,222.0,216.0,121,113,87,115,111,465,2,471
2025-02-20 15:44:49.074,-527.0,160.0,-831.0,82.0,149.0,196.0,118,114,89,117,114,499,4,476
2025-02-20 15:44:49.095,-558.0,400.0,-507.0,113.0,43.0,140.0,117,112,88,119,115,528,2,478
2025-02-20 15:44:49.114,-350.0,758.0,-749.0,28.0,-50.0,77.0,118,111,89,120,117,554,3,495
2025-02-20 15:44:49.133,-778.0,752.0,-808.0,65.0,-125.0,-26.0,118,111,89,120,119,550,3,492
2025-02-20 15:44:49.153,-1024.0,954.0,-704.0,55.0,-212.0,-199.0,118,112,91,122,121,536,4,482
2025-02-20 15:44:49.170,-1193.0,1151.0,-1007.0,44.0,-334.0,-395.0,120,112,93,122,124,517,3,474
2025-02-20 15:44:49.189,-1074.0,1424.0,-718.0,-15.0,-404.0,-683.0,121,116,95,125,125,496,2,473
2025-02-20 15:44:49.210,353.0,1592.0,-260.0,-47.0,-792.0,-883.0,124,120,97,127,128,415,3,467
2025-02-20 15:44:49.230,2662.0,168.0,-1045.0,-411.0,-1040.0,-861.0,123,125,99,129,128,400,2,482
2025-02-20 15:44:49.247,3299.0,-1999.0,-229.0,-718.0,-854.0,-602.0,122,126,102,131,130,369,3,493
2025-02-20 15:44:49.268,3821.0,-3246.0,-659.0,-496.0,-490.0,-238.0,117,129,105,131,131,378,2,474
2025-02-20 15:44:49.288,3198.0,-4705.0,602.0,34.0,-27.0,136.0,119,129,105,132,133,464,2,469
2025-02-20 15:44:49.305,2050.0,-3088.0,1185.0,-148.0,130.0,270.0,123,130,105,131,133,516,3,477
2025-02-20 15:44:49.323,332.0,-1768.0,-1828.0,303.0,167.0,341.0,126,130,105,132,132,550,2,478
2025-02-20 15:44:49.342,-53.0,-1020.0,-562.0,285.0,317.0,389.0,128,129,106,132,131,592,3,489
2025-02-20 15:44:49.358,182.0,-579.0,-196.0,119.0,185.0,311.0,128,129,105,132,130,512,2,488
2025-02-20 15:44:49.382,-308.0,-815.0,50.0,196.0,252.0,239.0,126,130,105,133,132,445,1,490
2025-02-20 15:44:49.399,-251.0,-675.0,446.0,239.0,141.0,196.0,123,130,106,131,133,493,2,491
2025-02-20 15:44:49.419,-314.0,-712.0,104.0,165.0,109.0,205.0,123,130,105,132,134,399,5,473
2025-02-20 15:44:49.439,-171.0,-594.0,173.0,8.0,136.0,213.0,123,129,105,133,134,431,3,460
2025-02-20 15:44:49.456,-326.0,-502.0,115.0,-80.0,95.0,223.0,123,129,109,132,133,475,2,446
2025-02-20 15:44:49.476,-375.0,-466.0,347.0,-90.0,117.0,216.0,124,129,106,133,134,493,2,449
2025-02-20 15:44:49.496,-432.0,-273.0,248.0,21.0,118.0,220.0,123,129,105,132,134,381,3,444
2025-02-20 15:44:49.513,-517.0,-247.0,166.0,58.0,131.0,220.0,123,128,104,132,134,411,2,457
2025-02-20 15:44:49.534,-480.0,84.0,238.0,47.0,135.0,208.0,123,128,104,132,134,461,2,476
2025-02-20 15:44:49.551,-609.0,436.0,-53.0,112.0,125.0,173.0,122,127,103,132,133,456,2,466
2025-02-20 15:44:49.571,-261.0,717.0,386.0,11.0,169.0,116.0,121,127,104,132,134,457,2,457
2025-02-20 15:44:49.591,-951.0,865.0,-686.0,42.0,80.0,-24.0,121,125,105,131,133,495,2,451
2025-02-20 15:44:49.611,-1446.0,1264.0,-1249.0,112.0,-104.0,-215.0,121,126,104,131,133,541,2,458
2025-02-20 15:44:49.628,-1402.0,1756.0,-1125.0,121.0,-314.0,-509.0,122,125,104,132,134,561,2,454
2025-02-20 15:44:49.648,56.0,2002.0,-896.0,60.0,-609.0,-813.0,124,128,106,132,134,517,2,460
2025-02-20 15:44:49.665,1729.0,202.0,468.0,-376.0,-726.0,-843.0,120,129,106,133,133,444,3,470
2025-02-20 15:44:49.685,2755.0,-2227.0,415.0,-495.0,-539.0,-628.0,119,130,106,133,133,381,2,470
2025-02-20 15:44:49.706,2794.0,-3344.0,-305.0,-303.0,-328.0,-255.0,121,130,107,133,134,430,2,466
2025-02-20 15:44:49.722,2808.0,-4410.0,-42.0,-36.0,-122.0,100.0,119,130,105,133,133,491,2,459
2025-02-20 15:44:49.743,1656.0,-2957.0,468.0,211.0,101.0,221.0,123,132,105,132,131,481,2,444
2025-02-20 15:44:49.762,818.0,-1915.0,1812.0,185.0,186.0,291.0,128,127,103,132,129,446,3,455
2025-02-20 15:44:49.779,25.0,-1616.0,251.0,370.0,270.0,303.0,131,130,98,131,121,453,3,470
2025-02-20 15:44:49.800,254.0,-1302.0,63.0,224.0,292.0,313.0,132,130,86,127,107,478,2,500
2025-02-20 15:44:49.816,-183.0,-1257.0,14.0,314.0,216.0,313.0,130,130,75,112,91,421,2,507
2025-02-20 15:44:49.836,397.0,-936.0,-47.0,280.0,222.0,321.0,129,127,66,96,77,378,3,513
2025-02-20 15:44:49.857,240.0,-768.0,-40.0,252.0,261.0,344.0,127,126,60,90,66,379,2,482
2025-02-20 15:44:49.874,-110.0,-650.0,70.0,283.0,298.0,345.0,125,123,56,85,60,417,2,474
2025-02-20 15:44:49.892,-89.0,-130.0,-54.0,295.0,324.0,394.0,122,118,53,79,55,469,2,456
2025-02-20 15:44:49.914,-361.0,405.0,-440.0,309.0,260.0,369.0,121,115,55,78,53,485,2,472
2025-02-20 15:44:49.931,-618.0,430.0,-661.0,304.0,170.0,277.0,115,109,55,79,54,479,2,474
2025-02-20 15:44:49.952,-731.0,990.0,-721.0,259.0,84.0,173.0,115,105,56,76,54,563,2,493
2025-02-20 15:44:49.965,-912.0,1228.0,-765.0,159.0,-25.0,41.0,101,100,56,74,54,603,3,487
2025-02-20 15:44:49.989,-1355.0,1171.0,-1240.0,72.0,-211.0,-138.0,91,98,53,69,52,594,2,463
2025-02-20 15:44:50.009,-1306.0,883.0,-2208.0,78.0,-605.0,-255.0,84,98,52,65,51,551,3,448
2025-02-20 15:44:50.025,406.0,321.0,-2370.0,193.0,-994.0,-213.0,80,101,51,65,52,469,2,436
2025-02-20 15:44:50.046,2516.0,159.0,-1386.0,246.0,-1151.0,-118.0,83,104,52,67,55,477,3,435
2025-02-20 15:44:50.066,3186.0,-280.0,635.0,331.0,-1021.0,-57.0,87,107,50,69,57,444,2,433
2025-02-20 15:44:50.083,2467.0,-206.0,2677.0,357.0,-716.0,-7.0,95,108,52,71,60,447,3,414
2025-02-20 15:44:50.103,2241.0,1093.0,3751.0,197.0,-259.0,46.0,101,109,53,72,62,439,2,430
2025-02-20 15:44:50.121,1979.0,1174.0,3735.0,-63.0,45.0,43.0,101,109,51,74,63,452,1,435
2025-02-20 15:44:50.141,1499.0,657.0,2767.0,-216.0,244.0,39.0,101,108,53,76,65,445,2,449
2025-02-20 15:44:50.160,732.0,371.0,1790.0,-230.0,312.0,13.0,105,104,54,77,64,432,1,459
2025-02-20 15:44:50.181,569.0,-114.0,1481.0,-171.0,330.0,-11.0,102,101,55,78,65,388,3,453
2025-02-20 15:44:50.197,370.0,-290.0,1179.0,-123.0,328.0,-12.0,101,100,56,79,66,398,3,448
2025-02-20 15:44:50.217,211.0,-285.0,1007.0,-103.0,308.0,0.0,98,102,55,80,64,468,2,450
2025-02-20 15:44:50.234,266.0,-239.0,980.0,-106.0,289.0,29.0,98,105,56,78,64,599,4,450
2025-02-20 15:44:50.255,144.0,-81.0,881.0,-140.0,290.0,57.0,99,106,55,78,65,548,2,446
2025-02-20 15:44:50.266,-5.0,-117.0,804.0,-156.0,300.0,62.0,102,107,56,78,65,465,2,448
2025-02-20 15:44:50.291,-229.0,-293.0,525.0,-111.0,285.0,74.0,99,107,56,79,65,465,3,461
2025-02-20 15:44:50.312,-242.0,-142.0,479.0,-79.0,263.0,72.0,98,107,55,79,65,440,3,469
2025-02-20 15:44:50.331,-267.0,41.0,441.0,-105.0,263.0,71.0,100,107,57,78,65,415,2,496
2025-02-20 15:44:50.346,-322.0,-42.0,272.0,-133.0,267.0,94.0,101,107,56,80,65,448,2,494
2025-02-20 15:44:50.369,-584.0,-64.0,82.0,-107.0,217.0,113.0,102,107,57,81,64,470,2,487
2025-02-20 15:44:50.389,-587.0,-83.0,-26.0,-48.0,145.0,104.0,101,107,57,79,63,467,2,481
2025-02-20 15:44:50.406,-540.0,10.0,60.0,-16.0,96.0,81.0,101,106,57,79,64,444,2,476
2025-02-20 15:44:50.426,-498.0,205.0,121.0,-15.0,93.0,65.0,102,107,58,80,64,415,1,479
2025-02-20 15:44:50.444,-753.0,353.0,-175.0,-18.0,71.0,18.0,102,106,58,80,65,440,2,471
2025-02-20 15:44:50.462,-1496.0,724.0,-1104.0,58.0,-75.0,-129.0,97,101,57,79,62,424,2,451
2025-02-20 15:44:50.484,-1949.0,1134.0,-2146.0,216.0,-428.0,-319.0,95,97,57,78,60,374,3,430
2025-02-20 15:44:50.501,-113.0,1152.0,-1792.0,263.0,-878.0,-357.0,95,99,57,81,61,411,2,430
2025-02-20 15:44:50.521,1968.0,75.0,-730.0,254.0,-1092.0,-265.0,96,100,56,80,61,460,2,434
2025-02-20 15:44:50.540,3307.0,-1295.0,1319.0,264.0,-931.0,-62.0,104,104,56,80,64,465,3,451
2025-02-20 15:44:50.559,3318.0,-1048.0,4147.0,192.0,-457.0,105.0,111,105,58,80,66,463,2,460
2025-02-20 15:44:50.578,2620.0,101.0,4403.0,-72.0,-21.0,121.0,112,105,59,82,67,475,3,463
2025-02-20 15:44:50.598,1636.0,-52.0,3250.0,-325.0,236.0,117.0,114,101,61,83,68,495,3,466
2025-02-20 15:44:50.616,992.0,-294.0,2033.0,-343.0,326.0,150.0,119,99,60,85,69,460,1,477
2025-02-20 15:44:50.635,609.0,-542.0,1643.0,-330.0,430.0,143.0,123,98,63,90,71,417,3,484
2025-02-20 15:44:50.652,676.0,-690.0,1182.0,-323.0,534.0,143.0,124,99,65,93,72,413,4,477
2025-02-20 15:44:50.673,838.0,-649.0,572.0,-296.0,592.0,167.0,125,103,66,92,71,443,3,460
2025-02-20 15:44:50.692,335.0,-716.0,0.0,-214.0,550.0,226.0,125,107,69,93,70,486,2,472
2025-02-20 15:44:50.709,-12.0,-743.0,-183.0,-134.0,469.0,264.0,125,109,72,93,69,522,2,469
2025-02-20 15:44:50.728,-119.0,-386.0,-299.0,-44.0,410.0,294.0,125,111,77,93,71,526,3,463
2025-02-20 15:44:50.750,-677.0,-337.0,-239.0,23.0,361.0,317.0,125,113,80,92,70,461,2,456
2025-02-20 15:44:50.764,-373.0,-65.0,-369.0,45.0,315.0,311.0,125,115,84,93,70,481,3,459
2025-02-20 15:44:50.787,-442.0,247.0,-796.0,63.0,233.0,290.0,125,115,85,92,72,512,2,483
2025-02-20 15:44:50.799,-690.0,331.0,-740.0,172.0,153.0,214.0,126,115,89,93,72,547,2,495
2025-02-20 15:44:50.824,-798.0,744.0,-688.0,202.0,66.0,134.0,127,117,91,91,73,579,2,496
2025-02-20 15:44:50.845,-654.0,1062.0,-457.0,93.0,-13.0,16.0,128,118,92,93,73,549,2,498
2025-02-20 15:44:50.864,-633.0,1009.0,-695.0,-11.0,-116.0,-116.0,128,121,97,93,72,481,3,488
2025-02-20 15:44:50.881,-1014.0,943.0,-781.0,-44.0,-231.0,-310.0,129,122,99,93,70,446,2,466
2025-02-20 15:44:50.902,-1115.0,1208.0,-821.0,-38.0,-410.0,-500.0,130,124,101,96,69,402,3,452
2025-02-20 15:44:50.921,-296.0,1507.0,-797.0,-143.0,-604.0,-703.0,129,126,103,97,69,439,2,474
2025-02-20 15:44:50.939,1025.0,725.0,-560.0,-300.0,-771.0,-839.0,130,128,104,101,70,391,2,459
2025-02-20 15:44:50.958,2249.0,-572.0,-600.0,-443.0,-879.0,-755.0,127,130,105,104,69,389,2,453
2025-02-20 15:44:50.976,3368.0,-3463.0,148.0,-378.0,-649.0,-375.0,125,132,104,104,67,419,2,477
2025-02-20 15:44:50.996,3086.0,-4049.0,281.0,-75.0,-228.0,17.0,124,133,103,104,67,513,2,475
2025-02-20 15:44:51.016,2203.0,-2779.0,801.0,136.0,64.0,137.0,125,133,103,104,68,550,2,461
2025-02-20 15:44:51.034,622.0,-1860.0,878.0,193.0,177.0,124.0,125,133,105,104,68,524,3,466
2025-02-20 15:44:51.053,228.0,-1507.0,915.0,69.0,159.0,151.0,126,133,105,103,68,526,2,469
2025-02-20 15:44:51.073,173.0,-1497.0,609.0,12.0,155.0,188.0,127,134,106,104,68,500,2,480
2025-02-20 15:44:51.090,-33.0,-1214.0,515.0,55.0,152.0,203.0,127,134,106,104,68,482,2,471
2025-02-20 15:44:51.111,-125.0,-959.0,399.0,101.0,186.0,203.0,127,133,105,102,68,471,2,455
2025-02-20 15:44:51.127,-146.0,-777.0,303.0,123.0,204.0,200.0,127,134,105,101,67,468,2,449
2025-02-20 15:44:51.147,-14.0,-625.0,325.0,89.0,222.0,236.0,127,133,105,103,68,493,3,449
2025-02-20 15:44:51.168,-112.0,-496.0,356.0,74.0,220.0,265.0,128,133,107,102,70,517,2,432
2025-02-20 15:44:51.184,-289.0,-317.0,239.0,67.0,221.0,261.0,127,131,106,101,69,493,2,438
2025-02-20 15:44:51.205,-361.0,-68.0,214.0,61.0,202.0,234.0,128,133,107,101,69,476,2,439
2025-02-20 15:44:51.225,-250.0,-166.0,222.0,30.0,200.0,213.0,129,134,107,100,69,518,2,451
2025-02-20 15:44:51.242,-317.0,-1.0,137.0,29.0,209.0,190.0,129,133,108,98,68,555,1,465
2025-02-20 15:44:51.262,-666.0,291.0,-117.0,1.0,178.0,179.0,129,133,107,97,69,534,2,468
2025-02-20 15:44:51.282,-981.0,730.0,-865.0,15.0,64.0,106.0,129,133,106,95,69,476,2,451
2025-02-20 15:44:51.299,-1026.0,999.0,-1068.0,118.0,-91.0,-95.0,129,133,108,94,69,442,2,449
2025-02-20 15:44:51.319,-1064.0,1611.0,-974.0,143.0,-217.0,-297.0,129,133,110,95,68,417,2,451
2025-02-20 15:44:51.340,-1115.0,1389.0,-828.0,119.0,-427.0,-528.0,128,134,109,96,69,408,2,444
2025-02-20 15:44:51.356,-554.0,884.0,-982.0,80.0,-741.0,-625.0,127,133,109,99,69,406,2,458
2025-02-20 15:44:51.376,2757.0,299.0,-646.0,-76.0,-999.0,-582.0,132,133,109,100,71,404,3,471
2025-02-20 15:44:51.397,3844.0,-2293.0,1168.0,-126.0,-760.0,-363.0,126,134,109,104,74,481,1,487
2025-02-20 15:44:51.413,3654.0,-3576.0,1759.0,-4.0,-323.0,-73.0,125,134,107,104,76,435,2,474
2025-02-20 15:44:51.434,2310.0,-2637.0,1887.0,107.0,132.0,86.0,126,135,108,104,75,441,2,465
2025-02-20 15:44:51.450,1106.0,-1854.0,1488.0,153.0,245.0,68.0,127,135,107,104,74,410,2,441
2025-02-20 15:44:51.471,616.0,-1357.0,1317.0,52.0,256.0,105.0,126,134,105,104,75,380,2,442
2025-02-20 15:44:51.491,369.0,-1428.0,1027.0,-38.0,254.0,155.0,127,136,103,104,74,408,4,453
2025-02-20 15:44:51.508,445.0,-1365.0,657.0,-35.0,273.0,198.0,127,134,94,103,73,384,2,461
2025-02-20 15:44:51.527,402.0,-1251.0,711.0,20.0,312.0,231.0,128,134,84,102,72,434,2,470
2025-02-20 15:44:51.545,241.0,-992.0,474.0,64.0,312.0,249.0,129,133,73,101,70,441,2,464
2025-02-20 15:44:51.564,84.0,-634.0,529.0,70.0,323.0,263.0,130,131,67,101,69,455,2,463
2025-02-20 15:44:51.586,-79.0,-510.0,552.0,67.0,325.0,271.0,130,129,63,99,68,470,2,471
2025-02-20 15:44:51.601,-46.0,-292.0,388.0,43.0,350.0,281.0,130,127,61,97,67,480,3,466
2025-02-20 15:44:51.623,-11.0,-200.0,259.0,83.0,359.0,262.0,130,124,61,95,66,500,2,476
2025-02-20 15:44:51.641,-321.0,37.0,-4.0,119.0,361.0,245.0,129,121,60,91,70,498,2,489
2025-02-20 15:44:51.660,-490.0,277.0,-260.0,109.0,309.0,232.0,127,117,60,88,66,508,3,504
2025-02-20 15:44:51.680,-513.0,502.0,-509.0,84.0,233.0,209.0,125,114,59,85,65,546,2,506
2025-02-20 15:44:51.700,-758.0,576.0,-762.0,69.0,114.0,144.0,123,111,59,83,65,496,1,486
2025-02-20 15:44:51.715,-1191.0,563.0,-1302.0,130.0,-23.0,34.0,118,103,58,83,67,516,2,472
2025-02-20 15:44:51.737,-1503.0,885.0,-1816.0,209.0,-241.0,-131.0,107,95,56,79,64,505,2,447
2025-02-20 15:44:51.757,-1391.0,1085.0,-2243.0,262.0,-668.0,-255.0,96,95,55,74,62,488,2,421
2025-02-20 15:44:51.774,801.0,911.0,-2406.0,312.0,-1049.0,-240.0,87,97,54,74,61,482,2,412
2025-02-20 15:44:51.795,3186.0,145.0,-1242.0,306.0,-1172.0,-137.0,88,102,55,76,66,480,3,424
2025-02-20 15:44:51.811,3184.0,-292.0,926.0,318.0,-993.0,-86.0,92,106,54,76,69,477,2,451
2025-02-20 15:44:51.830,2734.0,944.0,3232.0,368.0,-645.0,-36.0,101,108,55,77,73,431,2,457
2025-02-20 15:44:51.851,2380.0,454.0,3600.0,239.0,-311.0,29.0,108,108,55,80,76,341,2,438
2025-02-20 15:44:51.866,1742.0,623.0,3382.0,6.0,-25.0,70.0,110,108,55,80,75,388,2,445
2025-02-20 15:44:51.889,1270.0,601.0,2812.0,-220.0,195.0,68.0,111,107,57,81,75,376,3,450
2025-02-20 15:44:51.909,939.0,-7.0,1809.0,-222.0,288.0,45.0,109,106,56,82,75,329,2,463
2025-02-20 15:44:51.926,474.0,-131.0,1434.0,-143.0,332.0,38.0,110,103,58,84,75,332,3,483
2025-02-20 15:44:51.946,274.0,-147.0,1149.0,-67.0,336.0,18.0,110,104,57,85,75,411,2,498
2025-02-20 15:44:51.966,182.0,-109.0,1173.0,-110.0,315.0,30.0,108,106,57,85,74,429,2,458
2025-02-20 15:44:51.982,184.0,-115.0,1108.0,-140.0,303.0,41.0,107,108,58,85,73,446,2,455
2025-02-20 15:44:52.003,-83.0,-90.0,1023.0,-140.0,296.0,50.0,107,109,58,84,73,465,2,457
2025-02-20 15:44:52.017,-31.0,-190.0,883.0,-124.0,296.0,39.0,108,110,60,85,73,466,1,457
2025-02-20 15:44:52.041,-170.0,-18.0,638.0,-100.0,304.0,34.0,109,110,59,85,73,445,2,458
2025-02-20 15:44:52.061,-372.0,-112.0,538.0,-85.0,290.0,54.0,107,110,59,85,72,456,2,464
2025-02-20 15:44:52.078,-280.0,-79.0,401.0,-62.0,260.0,54.0,105,110,59,85,71,542,2,481
2025-02-20 15:44:52.098,-157.0,138.0,425.0,-94.0,259.0,46.0,105,110,60,85,70,555,2,492
2025-02-20 15:44:52.118,-414.0,-29.0,190.0,-98.0,237.0,55.0,106,111,60,86,69,549,3,486
2025-02-20 15:44:52.134,-830.0,142.0,-520.0,-55.0,144.0,28.0,101,110,59,83,68,508,2,472
2025-02-20 15:44:52.155,-1250.0,548.0,-1372.0,39.0,-103.0,-84.0,98,111,58,82,68,493,3,457
2025-02-20 15:44:52.175,-1406.0,927.0,-2056.0,139.0,-436.0,-212.0,95,110,58,81,67,460,2,449
2025-02-20 15:44:52.192,-151.0,615.0,-1935.0,201.0,-831.0,-179.0,95,113,58,82,69,410,2,447
2025-02-20 15:44:52.212,1624.0,135.0,-854.0,167.0,-957.0,-112.0,97,117,57,83,71,400,2,450
2025-02-20 15:44:52.233,2382.0,-536.0,653.0,198.0,-854.0,-76.0,105,119,57,83,74,412,2,450
2025-02-20 15:44:52.250,2744.0,-721.0,2111.0,232.0,-620.0,-34.0,115,121,59,86,77,336,2,426
2025-02-20 15:44:52.270,2729.0,-145.0,3772.0,213.0,-279.0,-2.0,121,124,61,87,80,381,2,416
2025-02-20 15:44:52.286,2043.0,287.0,3836.0,36.0,58.0,31.0,123,124,60,90,82,429,3,427
2025-02-20 15:44:52.307,1372.0,281.0,2797.0,-185.0,255.0,57.0,125,125,62,93,83,376,2,452
2025-02-20 15:44:52.327,1031.0,-142.0,1893.0,-304.0,359.0,74.0,126,126,64,95,82,428,2,470
2025-02-20 15:44:52.344,695.0,-681.0,1311.0,-234.0,379.0,89.0,127,125,65,95,82,442,2,462
2025-02-20 15:44:52.364,702.0,-837.0,1237.0,-151.0,413.0,127.0,127,126,63,95,81,449,2,473
2025-02-20 15:44:52.384,695.0,-639.0,1024.0,-126.0,429.0,136.0,127,125,64,94,81,454,3,485
2025-02-20 15:44:52.401,419.0,-468.0,903.0,-135.0,470.0,184.0,127,127,65,95,80,451,2,475
2025-02-20 15:44:52.418,418.0,-167.0,564.0,-155.0,480.0,227.0,127,126,65,95,80,463,3,469
2025-02-20 15:44:52.441,-41.0,-194.0,396.0,-136.0,440.0,223.0,127,124,67,94,79,433,2,472
2025-02-20 15:44:52.458,-153.0,-72.0,265.0,-150.0,412.0,227.0,129,123,69,92,79,480,2,484
2025-02-20 15:44:52.478,-310.0,109.0,-50.0,-95.0,385.0,213.0,129,121,70,94,80,530,3,500
2025-02-20 15:44:52.496,-298.0,149.0,162.0,-37.0,387.0,200.0,130,118,70,93,80,515,1,511
2025-02-20 15:44:52.516,-690.0,427.0,-242.0,-10.0,350.0,168.0,131,109,71,92,79,537,2,502
2025-02-20 15:44:52.536,-771.0,529.0,-343.0,16.0,283.0,114.0,131,89,67,89,77,512,2,480
2025-02-20 15:44:52.552,-856.0,759.0,-821.0,82.0,183.0,24.0,131,73,65,89,75,474,3,455
2025-02-20 15:44:52.571,-945.0,1062.0,-1100.0,157.0,91.0,-93.0,130,60,61,84,71,469,2,447
2025-02-20 15:44:52.592,-1417.0,1183.0,-1254.0,178.0,-94.0,-212.0,129,55,56,81,62,488,3,449
2025-02-20 15:44:52.611,-1482.0,1590.0,-2659.0,287.0,-437.0,-346.0,118,52,52,81,59,447,0,459
2025-02-20 15:44:52.630,-409.0,1208.0,-2745.0,307.0,-836.0,-497.0,105,49,52,78,58,419,2,453
2025-02-20 15:44:52.649,1702.0,421.0,-2050.0,180.0,-1118.0,-421.0,103,50,50,80,58,440,2,457
2025-02-20 15:44:52.667,3658.0,-1022.0,1422.0,60.0,-1041.0,-164.0,105,51,51,78,59,417,2,460
2025-02-20 15:44:52.687,3477.0,-1937.0,3431.0,-34.0,-486.0,-39.0,100,53,51,81,60,446,3,475
2025-02-20 15:44:52.705,2500.0,-1788.0,3551.0,51.0,-96.0,-48.0,96,52,50,83,60,493,2,459
2025-02-20 15:44:52.725,1210.0,-1445.0,2965.0,39.0,182.0,-27.0,96,52,52,82,60,491,2,454
2025-02-20 15:44:52.745,563.0,-900.0,2059.0,-91.0,209.0,12.0,98,53,52,84,61,429,2,465
2025-02-20 15:44:52.761,338.0,-1083.0,1589.0,-188.0,237.0,64.0,101,53,53,87,61,445,2,480
2025-02-20 15:44:52.782,30.0,-1322.0,1258.0,-183.0,273.0,90.0,107,54,54,90,63,410,2,479
2025-02-20 15:44:52.802,200.0,-1281.0,1038.0,-127.0,317.0,142.0,108,54,54,89,62,460,2,472
2025-02-20 15:44:52.819,222.0,-768.0,913.0,-130.0,366.0,178.0,111,55,54,88,63,432,2,458
2025-02-20 15:44:52.837,26.0,-720.0,523.0,-150.0,352.0,188.0,114,55,56,87,63,458,2,469
2025-02-20 15:44:52.860,-287.0,-516.0,398.0,-158.0,314.0,207.0,116,56,56,87,63,418,2,483
2025-02-20 15:44:52.876,-209.0,-261.0,227.0,-166.0,279.0,230.0,117,56,56,88,64,415,3,497
2025-02-20 15:44:52.896,-191.0,-180.0,140.0,-161.0,262.0,231.0,117,56,58,87,63,431,2,489
2025-02-20 15:44:52.914,-400.0,-185.0,-86.0,-143.0,256.0,229.0,117,56,57,87,65,481,3,482
2025-02-20 15:44:52.933,-578.0,-110.0,-331.0,-69.0,210.0,206.0,117,57,56,87,64,551,2,489
2025-02-20 15:44:52.952,-697.0,162.0,-467.0,-7.0,151.0,178.0,117,57,58,87,65,607,2,486
2025-02-20 15:44:52.970,-695.0,445.0,-623.0,40.0,68.0,142.0,117,57,58,85,65,575,3,473
2025-02-20 15:44:52.991,-674.0,854.0,-705.0,43.0,-17.0,94.0,117,57,58,86,64,508,1,452
2025-02-20 15:44:53.011,-736.0,1079.0,-1018.0,147.0,-82.0,-8.0,115,57,58,84,65,464,3,430
2025-02-20 15:44:53.028,-1290.0,1629.0,-1763.0,299.0,-195.0,-229.0,110,57,57,83,62,456,2,437
2025-02-20 15:44:53.048,-1689.0,2458.0,-2519.0,365.0,-574.0,-453.0,109,57,57,80,61,457,2,433
2025-02-20 15:44:53.068,287.0,2164.0,-2050.0,272.0,-999.0,-583.0,110,56,58,80,60,435,1,451
2025-02-20 15:44:53.085,3839.0,-324.0,-285.0,178.0,-1157.0,-405.0,119,56,57,83,63,482,2,469
2025-02-20 15:44:53.104,4782.0,-2844.0,3295.0,349.0,-796.0,-191.0,126,59,58,84,67,514,2,484
2025-02-20 15:44:53.126,3252.0,-1023.0,4615.0,270.0,-105.0,15.0,132,63,59,85,68,492,3,472
2025-02-20 15:44:53.142,1517.0,0.0,3416.0,-114.0,140.0,-13.0,134,63,58,87,69,396,3,447
2025-02-20 15:44:53.162,615.0,-780.0,2012.0,-191.0,186.0,49.0,134,63,59,89,70,425,3,441
2025-02-20 15:44:53.180,315.0,-604.0,1441.0,-76.0,200.0,9.0,134,62,58,92,72,445,2,456
2025-02-20 15:44:53.199,128.0,-670.0,1143.0,53.0,185.0,-29.0,133,62,57,94,73,418,2,461
2025-02-20 15:44:53.218,-164.0,-526.0,842.0,114.0,160.0,-41.0,133,62,58,92,71,439,3,454
2025-02-20 15:44:53.237,-113.0,-516.0,783.0,169.0,138.0,-48.0,133,63,57,92,71,457,2,467
2025-02-20 15:44:53.256,25.0,-316.0,699.0,254.0,132.0,-53.0,133,62,58,91,71,451,2,472
2025-02-20 15:44:53.277,-221.0,73.0,618.0,286.0,93.0,-75.0,133,62,57,90,72,497,3,480
2025-02-20 15:44:53.294,-366.0,322.0,780.0,237.0,58.0,-101.0,134,62,57,89,71,495,2,482
2025-02-20 15:44:53.314,-276.0,79.0,877.0,242.0,77.0,-132.0,135,62,56,91,71,500,3,472
2025-02-20 15:44:53.335,-311.0,-53.0,779.0,253.0,107.0,-144.0,135,61,56,89,70,494,2,480
2025-02-20 15:44:53.351,-410.0,20.0,770.0,190.0,108.0,-136.0,137,63,51,87,70,518,3,491
2025-02-20 15:44:53.371,-272.0,-45.0,675.0,83.0,76.0,-104.0,138,61,55,87,70,542,3,485
2025-02-20 15:44:53.389,-127.0,-459.0,753.0,18.0,30.0,-61.0,139,61,55,88,69,568,2,475
2025-02-20 15:44:53.408,106.0,-933.0,895.0,0.0,-16.0,-8.0,141,61,55,88,67,517,3,465
2025-02-20 15:44:53.429,336.0,-1183.0,1078.0,-1.0,-37.0,59.0,141,61,57,87,69,484,2,452
2025-02-20 15:44:53.446,740.0,-1470.0,1390.0,-2.0,-14.0,144.0,143,62,58,88,70,472,3,467
2025-02-20 15:44:53.465,906.0,-1675.0,1400.0,-22.0,5.0,303.0,144,61,57,88,69,403,2,450
2025-02-20 15:44:53.486,1032.0,-1183.0,1419.0,-129.0,25.0,587.0,146,62,57,90,71,371,3,429
2025-02-20 15:44:53.503,1053.0,-222.0,1356.0,-358.0,42.0,758.0,147,61,55,88,70,414,2,437
2025-02-20 15:44:53.523,1322.0,597.0,1421.0,-444.0,-21.0,795.0,147,61,57,85,69,422,2,449
2025-02-20 15:44:53.543,1070.0,1083.0,2010.0,-581.0,-57.0,684.0,148,62,57,85,70,441,2,461
2025-02-20 15:44:53.557,657.0,1744.0,2297.0,-485.0,-7.0,466.0,148,64,58,84,71,450,2,460
2025-02-20 15:44:53.581,277.0,1855.0,2275.0,-193.0,104.0,200.0,148,65,59,86,71,441,2,452
2025-02-20 15:44:53.597,214.0,1579.0,1903.0,83.0,181.0,25.0,147,65,58,86,70,470,2,452
2025-02-20 15:44:53.618,-48.0,1410.0,1418.0,165.0,193.0,-87.0,147,64,59,87,69,535,2,454
2025-02-20 15:44:53.638,-191.0,1094.0,1057.0,154.0,175.0,-158.0,147,64,58,86,68,517,2,462
2025-02-20 15:44:53.655,-201.0,572.0,860.0,154.0,154.0,-242.0,144,63,58,85,66,482,2,461
2025-02-20 15:44:53.673,-282.0,147.0,695.0,220.0,112.0,-288.0,141,62,59,85,67,496,2,456
2025-02-20 15:44:53.695,-276.0,-169.0,629.0,313.0,70.0,-325.0,137,62,57,86,65,514,2,458
2025-02-20 15:44:53.709,-354.0,-339.0,428.0,371.0,15.0,-303.0,134,61,57,86,66,544,2,451
2025-02-20 15:44:53.732,-517.0,55.0,415.0,380.0,-69.0,-346.0,133,61,57,87,67,541,2,459
2025-02-20 15:44:53.752,-370.0,163.0,432.0,332.0,-195.0,-393.0,135,60,57,88,69,511,6,477
2025-02-20 15:44:53.770,31.0,-346.0,760.0,274.0,-264.0,-340.0,137,61,57,89,69,462,2,480
2025-02-20 15:44:53.786,345.0,-700.0,1440.0,242.0,-213.0,-224.0,138,62,57,90,70,436,3,486
2025-02-20 15:44:53.809,252.0,-292.0,1704.0,145.0,-122.0,-176.0,140,62,57,91,69,429,2,478
2025-02-20 15:44:53.826,277.0,-758.0,1596.0,63.0,-51.0,-112.0,140,60,56,89,69,428,2,468
2025-02-20 15:44:53.846,296.0,-938.0,1316.0,25.0,0.0,-16.0,140,60,55,90,70,451,2,456
2025-02-20 15:44:53.860,188.0,-953.0,1007.0,9.0,-2.0,53.0,140,59,55,90,70,439,2,453
2025-02-20 15:44:53.883,396.0,-1430.0,1109.0,27.0,3.0,177.0,141,59,55,89,69,359,2,464
2025-02-20 15:44:53.904,694.0,-1528.0,1387.0,23.0,62.0,388.0,140,60,55,89,68,356,2,471
2025-02-20 15:44:53.921,1098.0,-731.0,1354.0,-116.0,130.0,648.0,140,59,54,87,67,394,2,480
2025-02-20 15:44:53.941,939.0,613.0,1187.0,-364.0,69.0,752.0,140,59,55,86,67,407,2,475
2025-02-20 15:44:53.961,555.0,1275.0,1440.0,-588.0,-32.0,661.0,140,60,55,82,66,425,2,467
2025-02-20 15:44:53.977,813.0,1077.0,2043.0,-611.0,-20.0,558.0,139,61,55,80,65,452,2,470
2025-02-20 15:44:53.998,340.0,1818.0,2151.0,-482.0,41.0,343.0,139,62,56,81,64,461,4,479
2025-02-20 15:44:54.018,344.0,1294.0,2161.0,-337.0,92.0,159.0,138,62,55,79,62,495,2,454
2025-02-20 15:44:54.035,148.0,1237.0,2068.0,-175.0,179.0,32.0,138,63,56,81,63,547,3,443
2025-02-20 15:44:54.055,126.0,870.0,1632.0,-106.0,268.0,-80.0,138,62,56,82,62,557,2,458
2025-02-20 15:44:54.072,-35.0,379.0,1128.0,-69.0,328.0,-161.0,138,63,57,83,64,503,2,465
2025-02-20 15:44:54.092,284.0,-901.0,1156.0,28.0,394.0,-207.0,137,63,58,83,63,471,1,445
2025-02-20 15:44:54.113,656.0,-1762.0,1075.0,99.0,539.0,-141.0,138,63,59,85,64,447,2,464
2025-02-20 15:44:54.126,389.0,-1395.0,583.0,-4.0,556.0,-51.0,138,63,58,84,65,425,2,506
2025-02-20 15:44:54.150,-345.0,-1766.0,115.0,-125.0,446.0,30.0,138,63,59,86,66,418,2,521
2025-02-20 15:44:54.170,-207.0,-1820.0,-315.0,-79.0,407.0,149.0,138,65,61,87,69,392,2,498
2025-02-20 15:44:54.187,-744.0,-878.0,-987.0,72.0,339.0,194.0,136,68,62,91,74,388,3,496
2025-02-20 15:44:54.206,-670.0,-292.0,66.0,90.0,263.0,141.0,135,73,67,97,86,407,3,482
2025-02-20 15:44:54.224,-723.0,92.0,-498.0,126.0,171.0,91.0,131,76,70,103,95,425,2,484
2025-02-20 15:44:54.244,-595.0,-198.0,-540.0,169.0,205.0,86.0,129,80,73,107,101,428,2,483
2025-02-20 15:44:54.264,-778.0,235.0,-1031.0,176.0,121.0,64.0,127,84,77,112,106,458,2,473
2025-02-20 15:44:54.282,-1128.0,488.0,-692.0,178.0,34.0,57.0,127,87,82,113,108,463,1,469
2025-02-20 15:44:54.302,-673.0,517.0,-576.0,176.0,-22.0,36.0,127,89,83,116,111,485,2,467
2025-02-20 15:44:54.320,-488.0,881.0,-1170.0,177.0,-115.0,-137.0,127,90,84,118,114,487,2,462
2025-02-20 15:44:54.339,-851.0,1394.0,-1405.0,56.0,-269.0,-346.0,125,92,88,119,119,476,3,471
2025-02-20 15:44:54.359,-839.0,913.0,-606.0,-38.0,-348.0,-533.0,125,97,88,125,127,462,2,488
2025-02-20 15:44:54.379,-482.0,971.0,35.0,-170.0,-591.0,-747.0,128,104,93,127,129,498,3,494
2025-02-20 15:44:54.394,726.0,895.0,-847.0,-157.0,-823.0,-799.0,133,111,96,130,129,472,2,498
2025-02-20 15:44:54.416,3014.0,-2111.0,-369.0,-436.0,-877.0,-592.0,134,117,100,131,129,444,2,487
2025-02-20 15:44:54.437,3210.0,-3616.0,1086.0,-399.0,-594.0,-275.0,130,120,104,132,130,412,3,483
2025-02-20 15:44:54.453,2698.0,-4293.0,263.0,-141.0,-290.0,83.0,131,122,104,132,131,429,1,473
2025-02-20 15:44:54.473,1834.0,-3583.0,235.0,-78.0,63.0,206.0,133,125,104,133,131,450,2,469
2025-02-20 15:44:54.491,624.0,-2305.0,62.0,158.0,96.0,280.0,135,124,104,132,131,473,2,468
2025-02-20 15:44:54.508,1109.0,-960.0,2079.0,144.0,224.0,344.0,136,124,104,132,132,547,2,478
2025-02-20 15:44:54.531,-2.0,-1120.0,103.0,105.0,217.0,352.0,136,124,103,133,131,531,2,473
2025-02-20 15:44:54.546,-158.0,-681.0,-177.0,67.0,195.0,289.0,136,123,104,133,132,433,2,476
2025-02-20 15:44:54.568,-297.0,-617.0,204.0,107.0,200.0,239.0,135,124,104,133,134,466,3,480
2025-02-20 15:44:54.588,-356.0,-527.0,423.0,90.0,51.0,208.0,133,123,104,132,134,463,2,462
2025-02-20 15:44:54.605,-1120.0,-1015.0,293.0,113.0,82.0,180.0,134,123,104,133,133,444,3,465
2025-02-20 15:44:54.625,-600.0,-686.0,513.0,-38.0,75.0,153.0,133,123,104,133,134,465,2,461
2025-02-20 15:44:54.642,-321.0,-276.0,360.0,-100.0,36.0,152.0,133,123,104,133,134,525,2,467
2025-02-20 15:44:54.662,-454.0,-210.0,329.0,-90.0,94.0,145.0,131,124,104,133,134,529,3,468
2025-02-20 15:44:54.682,-473.0,-274.0,344.0,-27.0,60.0,142.0,132,123,104,133,134,540,3,470
2025-02-20 15:44:54.702,-426.0,-258.0,482.0,-62.0,86.0,129.0,132,122,104,132,135,572,2,476
2025-02-20 15:44:54.719,-487.0,-186.0,444.0,33.0,130.0,135.0,132,121,104,132,134,505,2,475
2025-02-20 15:44:54.740,-482.0,55.0,253.0,181.0,150.0,121.0,131,121,104,132,134,430,3,468
2025-02-20 15:44:54.756,-491.0,33.0,-2.0,236.0,173.0,84.0,130,121,104,133,135,456,2,469
2025-02-20 15:44:54.776,-1007.0,688.0,-758.0,343.0,56.0,55.0,128,120,104,132,135,429,2,454
2025-02-20 15:44:54.797,-1443.0,1502.0,-1465.0,321.0,-127.0,-104.0,131,120,102,131,135,411,3,433
2025-02-20 15:44:54.817,-1600.0,2442.0,-1500.0,136.0,-340.0,-555.0,128,123,105,131,135,435,1,436
2025-02-20 15:44:54.834,375.0,1676.0,-905.0,-248.0,-666.0,-840.0,131,126,105,132,136,462,2,446
2025-02-20 15:44:54.854,2361.0,-2038.0,-1056.0,-287.0,-789.0,-832.0,132,125,104,133,135,439,2,450
2025-02-20 15:44:54.872,2875.0,-3581.0,-113.0,-326.0,-709.0,-375.0,132,125,106,134,135,415,3,469
2025-02-20 15:44:54.891,3029.0,-3705.0,334.0,-192.0,-454.0,-12.0,132,126,107,135,135,426,2,460
2025-02-20 15:44:54.911,1942.0,-3117.0,1380.0,-116.0,30.0,81.0,133,126,106,134,134,457,2,454
2025-02-20 15:44:54.928,399.0,-1996.0,448.0,126.0,263.0,112.0,135,126,106,134,135,533,2,457
2025-02-20 15:44:54.949,129.0,-1294.0,453.0,272.0,252.0,141.0,137,125,105,135,134,469,3,463
2025-02-20 15:44:54.969,-225.0,-1065.0,755.0,216.0,237.0,122.0,138,124,101,134,133,492,3,479
2025-02-20 15:44:54.986,-208.0,-759.0,729.0,171.0,252.0,124.0,138,120,96,131,131,491,2,487
2025-02-20 15:44:55.006,-140.0,-691.0,462.0,247.0,229.0,88.0,137,116,93,130,127,437,2,501
2025-02-20 15:44:55.023,-294.0,-857.0,330.0,382.0,223.0,61.0,137,109,88,127,116,400,2,493
2025-02-20 15:44:55.043,-170.0,-511.0,138.0,376.0,247.0,43.0,136,100,82,123,102,406,2,477
2025-02-20 15:44:55.063,-344.0,-394.0,209.0,461.0,225.0,27.0,137,91,78,121,89,398,4,461
2025-02-20 15:44:55.080,-429.0,-302.0,237.0,483.0,217.0,14.0,136,81,73,121,80,438,2,464
2025-02-20 15:44:55.100,-551.0,23.0,354.0,425.0,126.0,-19.0,136,75,68,119,73,483,2,452
2025-02-20 15:44:55.121,-517.0,23.0,301.0,388.0,89.0,-51.0,136,70,66,112,67,509,2,448
2025-02-20 15:44:55.137,-471.0,-296.0,466.0,378.0,22.0,-82.0,136,67,61,105,62,542,2,456
2025-02-20 15:44:55.157,-248.0,42.0,886.0,301.0,-27.0,-65.0,137,65,59,97,61,541,2,457
2025-02-20 15:44:55.175,-137.0,-829.0,1038.0,200.0,-55.0,32.0,137,62,56,91,57,529,4,470
2025-02-20 15:44:55.194,245.0,-929.0,1379.0,80.0,-56.0,111.0,140,62,56,87,58,533,2,456
2025-02-20 15:44:55.215,492.0,-1492.0,1671.0,-34.0,-28.0,304.0,142,61,57,85,58,528,2,459
2025-02-20 15:44:55.232,538.0,-1312.0,1433.0,-134.0,3.0,488.0,144,61,55,85,58,463,2,451
2025-02-20 15:44:55.252,890.0,-1027.0,1321.0,-212.0,-14.0,643.0,144,59,55,81,57,448,2,448
2025-02-20 15:44:55.272,476.0,913.0,1587.0,-385.0,-75.0,619.0,146,62,54,78,57,477,3,456
2025-02-20 15:44:55.289,429.0,914.0,1834.0,-493.0,-82.0,533.0,146,61,56,78,56,471,2,459
2025-02-20 15:44:55.309,187.0,1798.0,2130.0,-422.0,-1.0,330.0,146,64,58,79,56,461,2,455
2025-02-20 15:44:55.319,38.0,1770.0,2111.0,-203.0,107.0,124.0,146,66,57,82,58,465,3,452
2025-02-20 15:44:55.346,-27.0,1279.0,1672.0,-13.0,164.0,-18.0,147,65,57,80,57,485,2,451
2025-02-20 15:44:55.366,-86.0,1122.0,1199.0,93.0,183.0,-85.0,146,64,56,80,57,449,3,449
2025-02-20 15:44:55.382,-182.0,863.0,798.0,89.0,177.0,-138.0,146,63,55,78,57,435,2,463
2025-02-20 15:44:55.404,-265.0,293.0,604.0,72.0,135.0,-177.0,145,64,56,79,57,433,2,472
2025-02-20 15:44:55.423,-339.0,-171.0,485.0,93.0,77.0,-202.0,145,63,55,77,56,437,2,471
2025-02-20 15:44:55.440,-275.0,-490.0,458.0,134.0,26.0,-215.0,145,61,55,78,57,475,1,471
2025-02-20 15:44:55.460,-305.0,-594.0,501.0,181.0,-31.0,-162.0,145,62,56,79,58,502,2,465
2025-02-20 15:44:55.481,-371.0,-132.0,729.0,174.0,-62.0,-179.0,144,63,55,81,59,539,2,477
2025-02-20 15:44:55.498,-333.0,-21.0,883.0,187.0,-61.0,-247.0,144,62,56,81,60,522,3,486
2025-02-20 15:44:55.516,-272.0,-311.0,919.0,244.0,-50.0,-277.0,144,63,56,82,60,503,2,494
2025-02-20 15:44:55.539,-291.0,-155.0,929.0,285.0,-48.0,-231.0,144,63,57,83,61,481,2,496
2025-02-20 15:44:55.555,-264.0,-24.0,957.0,234.0,-63.0,-199.0,144,62,56,83,63,461,3,488
2025-02-20 15:44:55.576,-163.0,-350.0,1160.0,134.0,-86.0,-185.0,144,63,56,84,62,444,2,491
2025-02-20 15:44:55.596,40.0,-962.0,1280.0,91.0,-57.0,-124.0,144,64,58,85,65,428,2,478
2025-02-20 15:44:55.612,405.0,-1994.0,1412.0,132.0,-2.0,32.0,145,64,58,84,64,473,1,468
2025-02-20 15:44:55.631,581.0,-1438.0,1488.0,-11.0,6.0,277.0,146,63,57,86,63,470,2,469
2025-02-20 15:44:55.649,756.0,-1798.0,1174.0,-224.0,7.0,507.0,146,62,56,83,65,421,3,470
2025-02-20 15:44:55.669,425.0,-243.0,997.0,-468.0,-90.0,663.0,146,62,55,83,64,361,2,473
2025-02-20 15:44:55.690,315.0,743.0,940.0,-743.0,-225.0,660.0,147,63,56,81,62,376,2,469
2025-02-20 15:44:55.706,310.0,736.0,1800.0,-752.0,-313.0,525.0,146,64,56,80,62,433,2,476
2025-02-20 15:44:55.727,770.0,855.0,2913.0,-406.0,-117.0,294.0,145,66,58,81,63,466,2,476
2025-02-20 15:44:55.747,592.0,948.0,2925.0,-81.0,120.0,85.0,146,67,58,82,63,506,2,466
2025-02-20 15:44:55.764,247.0,779.0,2127.0,48.0,262.0,-59.0,144,66,58,83,61,520,2,447
2025-02-20 15:44:55.781,285.0,-125.0,1604.0,36.0,322.0,-91.0,142,66,59,82,59,458,2,435
2025-02-20 15:44:55.805,732.0,-1564.0,1447.0,47.0,410.0,-49.0,138,65,58,80,56,475,2,452
2025-02-20 15:44:55.821,544.0,-1821.0,1019.0,107.0,502.0,-18.0,135,65,57,82,54,504,1,463
2025-02-20 15:44:55.842,-42.0,-1372.0,506.0,57.0,478.0,55.0,134,65,59,80,54,534,2,469
2025-02-20 15:44:55.859,-504.0,-930.0,351.0,-52.0,400.0,69.0,134,66,61,83,56,502,2,480
2025-02-20 15:44:55.878,-152.0,-1071.0,356.0,-66.0,426.0,99.0,134,66,62,85,56,473,2,497
2025-02-20 15:44:55.899,-292.0,-904.0,73.0,-8.0,461.0,134.0,134,66,63,87,58,443,2,492
2025-02-20 15:44:55.915,-552.0,-293.0,-411.0,88.0,442.0,126.0,134,67,64,89,59,463,3,485
2025-02-20 15:44:55.936,-976.0,198.0,-722.0,82.0,352.0,102.0,134,67,64,90,59,512,2,475
2025-02-20 15:44:55.956,-843.0,169.0,-774.0,23.0,228.0,94.0,135,68,66,91,59,488,3,467
2025-02-20 15:44:55.973,-505.0,178.0,-567.0,57.0,172.0,112.0,134,69,67,90,60,418,2,460
2025-02-20 15:44:55.993,-361.0,567.0,-655.0,129.0,182.0,111.0,134,72,69,91,61,393,2,459
2025-02-20 15:44:56.013,-791.0,822.0,-1042.0,156.0,129.0,71.0,135,77,71,91,63,391,0,454
2025-02-20 15:44:56.030,-802.0,1180.0,-1338.0,149.0,-22.0,0.0,135,82,77,91,64,411,2,456
2025-02-20 15:44:56.049,-479.0,1261.0,-1092.0,156.0,-118.0,-89.0,135,88,81,92,66,460,2,462
2025-02-20 15:44:56.065,-500.0,1485.0,-1340.0,165.0,-207.0,-290.0,135,96,87,95,67,445,2,456
2025-02-20 15:44:56.088,-882.0,1779.0,-1334.0,189.0,-408.0,-533.0,135,105,97,96,66,474,3,466
2025-02-20 15:44:56.108,-18.0,1359.0,-821.0,184.0,-648.0,-787.0,136,114,104,98,66,528,1,476
2025-02-20 15:44:56.127,1354.0,549.0,-349.0,-26.0,-935.0,-832.0,136,121,106,102,68,522,3,472
2025-02-20 15:44:56.143,3514.0,-1227.0,347.0,-190.0,-1040.0,-640.0,136,125,107,106,69,497,1,460
2025-02-20 15:44:56.165,4495.0,-3520.0,849.0,-252.0,-670.0,-263.0,137,129,108,107,71,482,3,450
2025-02-20 15:44:56.181,3632.0,-4301.0,1548.0,-13.0,-86.0,73.0,138,130,109,108,71,482,2,454
2025-02-20 15:44:56.200,1779.0,-2492.0,1050.0,184.0,194.0,114.0,138,131,109,105,69,450,2,452
2025-02-20 15:44:56.223,124.0,-1483.0,923.0,117.0,166.0,81.0,138,132,109,104,68,426,2,457
2025-02-20 15:44:56.236,205.0,-1423.0,751.0,-43.0,85.0,138.0,138,132,109,105,67,465,2,450
2025-02-20 15:44:56.259,205.0,-1570.0,735.0,-60.0,105.0,188.0,140,133,110,106,68,581,4,452
2025-02-20 15:44:56.280,42.0,-1125.0,826.0,6.0,150.0,174.0,139,132,109,104,66,521,2,459
2025-02-20 15:44:56.296,-76.0,-945.0,486.0,53.0,193.0,159.0,139,133,111,104,67,447,3,435
2025-02-20 15:44:56.316,179.0,-1080.0,302.0,87.0,224.0,196.0,139,133,110,103,66,406,3,440
2025-02-20 15:44:56.334,112.0,-764.0,268.0,113.0,228.0,264.0,139,133,110,103,66,454,2,449
2025-02-20 15:44:56.354,-176.0,-360.0,349.0,88.0,226.0,287.0,139,133,110,103,66,513,2,456
2025-02-20 15:44:56.374,-416.0,44.0,294.0,39.0,199.0,266.0,139,133,110,103,67,519,2,467
2025-02-20 15:44:56.391,-386.0,162.0,265.0,-32.0,175.0,236.0,139,133,110,103,67,503,2,480
2025-02-20 15:44:56.411,-256.0,-187.0,218.0,-34.0,188.0,227.0,139,133,111,103,66,528,2,489
2025-02-20 15:44:56.431,-413.0,-292.0,149.0,16.0,208.0,259.0,139,133,111,101,67,583,2,482
2025-02-20 15:44:56.448,-627.0,129.0,-108.0,94.0,176.0,250.0,138,133,109,97,67,567,2,473
2025-02-20 15:44:56.468,-875.0,895.0,-463.0,97.0,110.0,182.0,138,132,110,97,65,575,2,463
2025-02-20 15:44:56.489,-1268.0,1341.0,-833.0,72.0,-28.0,24.0,138,132,110,95,65,541,3,450
2025-02-20 15:44:56.506,-1378.0,1685.0,-853.0,81.0,-154.0,-185.0,137,131,112,94,64,488,2,443
2025-02-20 15:44:56.525,-1235.0,1819.0,-546.0,84.0,-314.0,-459.0,139,132,112,96,65,470,2,442
2025-02-20 15:44:56.546,-890.0,1508.0,-450.0,-4.0,-508.0,-669.0,139,132,112,100,65,467,2,451
2025-02-20 15:44:56.563,1231.0,526.0,312.0,-108.0,-717.0,-788.0,138,133,112,103,65,394,2,458
2025-02-20 15:44:56.582,2306.0,-1944.0,428.0,-135.0,-762.0,-582.0,138,134,110,106,67,322,2,463
2025-02-20 15:44:56.600,3654.0,-4142.0,1433.0,12.0,-420.0,-131.0,138,133,111,106,67,388,3,458
2025-02-20 15:44:56.620,2657.0,-3013.0,1422.0,152.0,68.0,127.0,139,133,110,105,68,414,3,440
2025-02-20 15:44:56.641,1022.0,-1438.0,1274.0,181.0,205.0,102.0,139,133,110,100,68,370,2,449
2025-02-20 15:44:56.657,-69.0,-865.0,1005.0,158.0,178.0,55.0,139,133,109,103,69,416,2,478
2025-02-20 15:44:56.677,-13.0,-1071.0,1095.0,179.0,178.0,54.0,139,131,107,104,70,436,2,476
2025-02-20 15:44:56.697,-60.0,-1070.0,1008.0,258.0,269.0,65.0,139,128,100,103,69,524,2,468
2025-02-20 15:44:56.714,-165.0,-739.0,593.0,403.0,330.0,39.0,141,120,92,101,70,505,2,464
2025-02-20 15:44:56.734,-652.0,-272.0,336.0,440.0,328.0,-19.0,141,101,80,103,70,489,2,453
2025-02-20 15:44:56.755,-601.0,-119.0,258.0,408.0,256.0,-45.0,141,79,69,101,69,505,3,453
2025-02-20 15:44:56.770,-495.0,35.0,270.0,358.0,159.0,-62.0,142,71,63,99,69,442,1,442
2025-02-20 15:44:56.791,-492.0,-168.0,528.0,344.0,115.0,-95.0,142,67,58,100,68,425,2,437
