timestamp,ax,ay,az,gx,gy,gz,flex1,flex2,flex3,flex4,flex5,emg1,emg2,emg3
2025-02-20 16:21:34.390,-265.0,-209.0,970.0,-4.0,7.0,3.0,128,102,99,131,111,471,449,463
2025-02-20 16:21:34.390,-282.0,-202.0,965.0,-5.0,7.0,4.0,129,102,100,130,110,469,455,462
2025-02-20 16:21:34.406,-282.0,-203.0,987.0,-7.0,8.0,5.0,130,103,98,130,110,467,470,461
2025-02-20 16:21:34.408,-294.0,-180.0,971.0,-5.0,9.0,4.0,130,103,99,130,111,468,483,461
2025-02-20 16:21:34.411,-292.0,-175.0,948.0,-8.0,8.0,3.0,130,103,99,130,111,469,481,462
2025-02-20 16:21:34.413,-279.0,-180.0,934.0,-10.0,7.0,1.0,130,102,99,129,111,468,484,461
2025-02-20 16:21:34.416,-268.0,-186.0,925.0,-7.0,7.0,-1.0,130,103,99,130,112,464,497,462
2025-02-20 16:21:34.418,-269.0,-177.0,892.0,-6.0,6.0,-2.0,129,103,98,129,111,461,496,461
2025-02-20 16:21:34.418,-267.0,-188.0,904.0,-5.0,4.0,-3.0,129,102,99,130,111,462,492,462
2025-02-20 16:21:34.424,-259.0,-199.0,903.0,-2.0,0.0,-4.0,129,103,98,129,111,463,485,462
2025-02-20 16:21:34.424,-255.0,-217.0,908.0,1.0,-2.0,-5.0,129,103,98,130,111,464,477,463
2025-02-20 16:21:34.429,-258.0,-227.0,915.0,1.0,-3.0,-4.0,129,103,99,130,111,463,470,464
2025-02-20 16:21:34.432,-261.0,-223.0,937.0,-1.0,-4.0,-2.0,129,103,99,129,111,461,459,465
2025-02-20 16:21:34.435,-269.0,-226.0,958.0,-3.0,-4.0,-2.0,129,104,99,130,111,460,451,466
2025-02-20 16:21:34.436,-276.0,-232.0,967.0,-1.0,-3.0,-1.0,129,103,99,129,111,459,446,466
2025-02-20 16:21:34.436,-292.0,-212.0,977.0,0.0,-2.0,-1.0,129,104,99,130,111,460,448,466
2025-02-20 16:21:34.441,-297.0,-209.0,992.0,-4.0,-1.0,0.0,129,103,100,130,111,459,452,466
2025-02-20 16:21:34.455,-304.0,-214.0,983.0,-8.0,0.0,0.0,130,103,99,130,111,458,455,465
2025-02-20 16:21:34.475,-295.0,-224.0,986.0,-7.0,-1.0,-1.0,130,103,99,130,111,458,459,464
2025-02-20 16:21:34.492,-288.0,-227.0,982.0,-5.0,0.0,0.0,129,102,99,129,111,458,458,464
2025-02-20 16:21:34.512,-289.0,-220.0,975.0,-5.0,1.0,0.0,129,103,99,130,112,457,458,464
2025-02-20 16:21:34.529,-258.0,-231.0,914.0,-5.0,-1.0,-1.0,129,103,99,130,111,456,460,463
2025-02-20 16:21:34.545,-267.0,-230.0,990.0,-3.0,1.0,-2.0,130,103,99,131,112,458,459,462
2025-02-20 16:21:34.569,-267.0,-229.0,971.0,-2.0,0.0,0.0,130,103,99,130,111,457,458,462
2025-02-20 16:21:34.586,-262.0,-215.0,964.0,0.0,0.0,0.0,129,104,98,130,111,458,458,461
2025-02-20 16:21:34.606,-282.0,-216.0,951.0,-4.0,-1.0,1.0,129,103,100,130,112,458,462,461
2025-02-20 16:21:34.626,-268.0,-207.0,958.0,-4.0,0.0,1.0,129,104,99,129,111,459,461,463
2025-02-20 16:21:34.644,-267.0,-213.0,964.0,-1.0,1.0,0.0,129,101,100,130,111,461,459,463
2025-02-20 16:21:34.664,-278.0,-212.0,958.0,1.0,0.0,0.0,130,103,99,129,111,461,456,464
2025-02-20 16:21:34.683,-269.0,-207.0,961.0,4.0,-1.0,-1.0,129,103,98,129,110,461,453,465
2025-02-20 16:21:34.698,-267.0,-209.0,954.0,4.0,-1.0,-2.0,129,104,99,130,112,464,457,465
2025-02-20 16:21:34.721,-265.0,-209.0,951.0,2.0,-2.0,-2.0,129,103,99,130,112,463,458,466
2025-02-20 16:21:34.738,-270.0,-211.0,950.0,2.0,-2.0,-3.0,129,103,100,130,111,463,459,466
2025-02-20 16:21:34.758,-270.0,-216.0,944.0,3.0,-3.0,-3.0,130,103,99,130,111,463,461,466
2025-02-20 16:21:34.778,-273.0,-227.0,951.0,4.0,-4.0,-2.0,130,104,99,130,111,462,462,467
2025-02-20 16:21:34.795,-273.0,-223.0,959.0,4.0,-3.0,-2.0,129,103,99,130,111,462,461,466
2025-02-20 16:21:34.815,-272.0,-226.0,969.0,3.0,-4.0,-2.0,130,104,99,130,112,463,461,466
2025-02-20 16:21:34.832,-275.0,-233.0,976.0,2.0,-3.0,-1.0,130,104,99,130,112,466,461,465
2025-02-20 16:21:34.852,-270.0,-224.0,983.0,0.0,-1.0,-1.0,129,103,99,131,111,466,461,463
2025-02-20 16:21:34.872,-272.0,-214.0,970.0,-1.0,0.0,-1.0,130,103,99,129,112,469,461,464
2025-02-20 16:21:34.892,-273.0,-225.0,956.0,-3.0,-1.0,-1.0,130,104,99,130,111,469,461,464
2025-02-20 16:21:34.909,-271.0,-232.0,962.0,-2.0,-1.0,0.0,130,104,100,130,112,469,460,465
2025-02-20 16:21:34.929,-269.0,-215.0,965.0,0.0,-2.0,0.0,129,103,99,129,111,468,460,466
2025-02-20 16:21:34.947,-273.0,-215.0,963.0,0.0,-2.0,0.0,130,104,98,129,111,467,459,469
2025-02-20 16:21:34.967,-267.0,-211.0,982.0,-1.0,-1.0,0.0,129,103,100,130,112,465,461,468
2025-02-20 16:21:34.987,-279.0,-205.0,979.0,-3.0,-1.0,-1.0,130,102,99,130,112,464,460,465
2025-02-20 16:21:35.002,-267.0,-214.0,1031.0,-3.0,-2.0,0.0,129,103,99,130,112,463,460,466
2025-02-20 16:21:35.024,-258.0,-208.0,1010.0,-2.0,-1.0,0.0,129,103,99,130,112,464,459,469
2025-02-20 16:21:35.044,-274.0,-233.0,974.0,1.0,-3.0,0.0,130,102,99,130,112,465,460,472
2025-02-20 16:21:35.061,-273.0,-209.0,980.0,2.0,-2.0,0.0,128,103,99,130,112,465,460,474
2025-02-20 16:21:35.082,-279.0,-199.0,966.0,1.0,-2.0,0.0,129,102,99,130,112,465,461,474
2025-02-20 16:21:35.101,-274.0,-195.0,984.0,1.0,0.0,0.0,128,104,99,130,112,467,461,474
2025-02-20 16:21:35.119,-273.0,-197.0,960.0,-1.0,-1.0,-2.0,129,104,99,129,111,468,459,473
2025-02-20 16:21:35.125,-260.0,-209.0,969.0,1.0,-2.0,-3.0,129,104,99,130,112,468,459,474
2025-02-20 16:21:35.158,-266.0,-212.0,964.0,2.0,-1.0,-3.0,129,104,99,130,112,470,459,471
2025-02-20 16:21:35.176,-270.0,-200.0,963.0,3.0,-1.0,-3.0,130,103,99,130,112,470,460,471
2025-02-20 16:21:35.194,-265.0,-200.0,958.0,-1.0,-2.0,-3.0,130,104,99,130,112,470,460,470
2025-02-20 16:21:35.213,-267.0,-209.0,957.0,-3.0,-1.0,-4.0,129,103,99,129,111,471,460,468
2025-02-20 16:21:35.232,-280.0,-216.0,951.0,-5.0,-2.0,-4.0,130,103,100,130,109,471,459,467
2025-02-20 16:21:35.250,-277.0,-226.0,948.0,-4.0,-2.0,-4.0,130,103,99,130,111,471,458,465
2025-02-20 16:21:35.268,-284.0,-233.0,967.0,-5.0,-2.0,-2.0,130,103,99,130,112,473,458,465
2025-02-20 16:21:35.290,-302.0,-240.0,1025.0,-10.0,-3.0,-1.0,131,104,99,130,112,472,459,464
2025-02-20 16:21:35.311,-331.0,-253.0,1122.0,-19.0,-5.0,2.0,129,104,99,130,112,474,462,464
2025-02-20 16:21:35.328,-306.0,-272.0,1318.0,-36.0,3.0,10.0,129,103,99,130,112,471,461,463
2025-02-20 16:21:35.346,-312.0,-338.0,1395.0,-78.0,4.0,9.0,131,103,98,129,111,468,459,465
2025-02-20 16:21:35.367,-265.0,-370.0,1454.0,-122.0,14.0,1.0,130,102,96,128,109,463,455,467
2025-02-20 16:21:35.384,-304.0,-440.0,1495.0,-169.0,29.0,2.0,129,97,90,126,107,453,450,467
2025-02-20 16:21:35.404,-213.0,-556.0,1402.0,-201.0,57.0,7.0,130,89,81,124,102,448,448,465
2025-02-20 16:21:35.425,-219.0,-657.0,1338.0,-230.0,80.0,22.0,128,81,75,118,94,434,443,462
2025-02-20 16:21:35.430,-322.0,-676.0,1183.0,-249.0,101.0,39.0,130,71,67,104,83,424,435,456
2025-02-20 16:21:35.461,-279.0,-570.0,1034.0,-258.0,111.0,50.0,130,62,59,88,69,423,429,458
2025-02-20 16:21:35.479,-246.0,-638.0,851.0,-248.0,129.0,65.0,130,58,54,76,59,418,437,466
2025-02-20 16:21:35.499,-244.0,-439.0,814.0,-225.0,143.0,76.0,129,55,51,68,54,375,448,475
2025-02-20 16:21:35.519,-212.0,15.0,572.0,-204.0,150.0,67.0,127,53,49,64,51,348,464,486
2025-02-20 16:21:35.536,-224.0,270.0,537.0,-178.0,135.0,35.0,122,52,49,62,49,351,478,492
2025-02-20 16:21:35.548,-396.0,677.0,38.0,-189.0,112.0,8.0,114,51,49,62,48,381,485,491
2025-02-20 16:21:35.576,-755.0,1123.0,-491.0,-151.0,86.0,-21.0,105,51,50,61,47,427,490,488
2025-02-20 16:21:35.590,-980.0,1425.0,-1189.0,67.0,65.0,-172.0,99,50,50,61,45,484,489,492
2025-02-20 16:21:35.614,-917.0,1581.0,-1375.0,178.0,-23.0,-392.0,95,49,48,60,44,517,488,494
2025-02-20 16:21:35.619,-561.0,1191.0,-1463.0,147.0,-260.0,-534.0,91,50,49,59,43,540,485,487
2025-02-20 16:21:35.652,570.0,-68.0,-1343.0,115.0,-553.0,-617.0,93,49,51,59,46,525,478,480
2025-02-20 16:21:35.669,3647.0,-1933.0,1222.0,131.0,-572.0,-456.0,94,50,51,62,48,428,469,466
2025-02-20 16:21:35.673,4179.0,-4043.0,3423.0,-36.0,-74.0,-119.0,95,51,51,63,48,345,437,457
2025-02-20 16:21:35.708,1764.0,-3728.0,1859.0,22.0,91.0,52.0,94,51,51,62,48,358,437,450
2025-02-20 16:21:35.728,1040.0,-2396.0,1373.0,-64.0,100.0,167.0,95,52,51,63,47,412,473,459
2025-02-20 16:21:35.742,484.0,-1564.0,695.0,-180.0,85.0,217.0,94,51,52,63,47,381,519,449
2025-02-20 16:21:35.765,303.0,-1512.0,390.0,-181.0,63.0,220.0,95,52,52,62,48,389,536,455
2025-02-20 16:21:35.772,182.0,-1351.0,277.0,-109.0,56.0,235.0,95,53,52,62,49,494,496,519
2025-02-20 16:21:35.802,104.0,-1013.0,337.0,-44.0,58.0,250.0,96,54,53,62,51,498,460,532
2025-02-20 16:21:35.822,88.0,-560.0,427.0,-42.0,72.0,236.0,95,53,53,62,50,539,429,532
2025-02-20 16:21:35.839,-71.0,-127.0,424.0,-94.0,95.0,229.0,96,54,53,62,50,523,423,535
2025-02-20 16:21:35.859,-270.0,4.0,328.0,-122.0,73.0,202.0,97,54,54,63,52,547,445,525
2025-02-20 16:21:35.880,-393.0,41.0,204.0,-105.0,53.0,183.0,96,54,53,63,53,516,483,500
2025-02-20 16:21:35.897,-334.0,81.0,211.0,-35.0,48.0,194.0,97,54,54,63,51,524,510,466
2025-02-20 16:21:35.917,-361.0,394.0,63.0,68.0,54.0,224.0,97,54,53,64,53,559,508,438
2025-02-20 16:21:35.937,-763.0,1261.0,-220.0,175.0,40.0,169.0,97,54,55,64,54,528,500,416
2025-02-20 16:21:35.954,-1097.0,2620.0,-529.0,261.0,33.0,-102.0,96,55,55,63,51,520,502,407
2025-02-20 16:21:35.974,-960.0,2506.0,-592.0,180.0,-54.0,-446.0,97,55,54,64,52,481,500,407
2025-02-20 16:21:35.994,-360.0,1301.0,-798.0,52.0,-247.0,-637.0,97,55,55,64,53,496,499,410
2025-02-20 16:21:36.012,1228.0,-600.0,-664.0,24.0,-478.0,-749.0,97,54,53,65,54,452,424,416
2025-02-20 16:21:36.031,4210.0,-3219.0,1290.0,153.0,-519.0,-582.0,100,56,53,68,57,438,286,422
2025-02-20 16:21:36.051,4066.0,-5464.0,2914.0,105.0,2.0,-29.0,102,57,53,69,55,390,243,424
2025-02-20 16:21:36.069,1515.0,-3195.0,1440.0,-13.0,108.0,170.0,101,57,53,69,54,436,278,413
2025-02-20 16:21:36.086,813.0,-1995.0,906.0,-128.0,10.0,214.0,104,57,54,72,54,343,392,416
2025-02-20 16:21:36.106,586.0,-1855.0,597.0,-206.0,19.0,266.0,106,57,55,73,56,319,458,447
2025-02-20 16:21:36.126,322.0,-1523.0,404.0,-148.0,30.0,274.0,110,57,55,71,57,327,493,495
2025-02-20 16:21:36.145,164.0,-1223.0,371.0,-85.0,25.0,301.0,111,56,55,70,58,396,450,531
2025-02-20 16:21:36.163,67.0,-652.0,364.0,-116.0,53.0,317.0,117,56,56,68,58,538,415,537
2025-02-20 16:21:36.183,-167.0,-18.0,430.0,-196.0,34.0,304.0,120,55,56,68,58,615,478,553
2025-02-20 16:21:36.201,-270.0,111.0,404.0,-257.0,6.0,242.0,122,54,53,68,58,618,538,560
2025-02-20 16:21:36.220,-180.0,-227.0,430.0,-162.0,12.0,179.0,126,53,56,66,57,537,569,561
2025-02-20 16:21:36.239,-272.0,-376.0,445.0,-84.0,52.0,163.0,127,54,55,66,56,539,557,534
2025-02-20 16:21:36.260,-236.0,-275.0,365.0,42.0,80.0,136.0,130,54,55,66,57,552,498,503
2025-02-20 16:21:36.277,-345.0,123.0,243.0,97.0,88.0,119.0,133,53,55,65,56,533,466,474
2025-02-20 16:21:36.298,-554.0,816.0,269.0,110.0,59.0,51.0,134,52,55,66,55,512,459,443
2025-02-20 16:21:36.318,-684.0,1988.0,227.0,115.0,66.0,-103.0,136,54,54,66,54,533,426,417
2025-02-20 16:21:36.335,-784.0,2025.0,-80.0,70.0,74.0,-305.0,138,52,56,63,52,494,443,398
2025-02-20 16:21:36.355,-813.0,1621.0,-810.0,29.0,-14.0,-495.0,139,51,54,66,51,446,508,390
2025-02-20 16:21:36.372,245.0,949.0,-1059.0,-57.0,-205.0,-692.0,140,51,54,67,51,417,545,405
2025-02-20 16:21:36.392,2089.0,-1305.0,-941.0,-125.0,-360.0,-626.0,141,51,54,67,52,361,507,416
2025-02-20 16:21:36.412,3416.0,-4107.0,580.0,-142.0,-270.0,-358.0,142,52,55,70,53,405,452,416
2025-02-20 16:21:36.429,2754.0,-5423.0,496.0,33.0,40.0,-132.0,145,51,53,69,52,485,380,408
2025-02-20 16:21:36.449,1268.0,-4074.0,-540.0,134.0,111.0,43.0,143,51,54,69,53,578,404,424
2025-02-20 16:21:36.470,623.0,-1886.0,-515.0,43.0,19.0,143.0,143,50,54,70,53,532,485,420
2025-02-20 16:21:36.487,369.0,-1678.0,-416.0,-46.0,-37.0,179.0,143,52,54,69,53,497,472,422
2025-02-20 16:21:36.506,322.0,-1897.0,-230.0,-53.0,-68.0,270.0,143,52,53,69,54,531,463,478
2025-02-20 16:21:36.522,464.0,-1360.0,27.0,12.0,-59.0,294.0,144,53,54,64,54,619,507,501
2025-02-20 16:21:36.544,396.0,-636.0,361.0,103.0,-1.0,186.0,143,53,54,65,54,608,483,494
2025-02-20 16:21:36.564,142.0,-419.0,493.0,-73.0,80.0,204.0,146,53,54,66,54,576,449,491
2025-02-20 16:21:36.581,-169.0,-274.0,66.0,-73.0,7.0,203.0,144,53,53,68,54,560,435,483
2025-02-20 16:21:36.601,-292.0,-291.0,-21.0,-92.0,-37.0,200.0,143,53,55,67,54,524,424,471
2025-02-20 16:21:36.618,-48.0,-564.0,479.0,-11.0,-20.0,182.0,143,53,54,65,54,471,429,461
2025-02-20 16:21:36.638,73.0,-561.0,625.0,75.0,59.0,155.0,143,52,55,66,55,479,490,465
2025-02-20 16:21:36.656,-223.0,-387.0,304.0,171.0,104.0,175.0,142,52,55,67,55,433,528,466
2025-02-20 16:21:36.678,-424.0,29.0,133.0,190.0,80.0,174.0,143,52,55,67,54,430,526,459
2025-02-20 16:21:36.695,-455.0,287.0,183.0,224.0,23.0,161.0,143,51,54,67,55,424,501,442
2025-02-20 16:21:36.715,-509.0,1236.0,458.0,295.0,35.0,51.0,144,52,55,67,55,411,525,436
2025-02-20 16:21:36.735,-709.0,2375.0,234.0,248.0,111.0,-219.0,143,52,55,68,55,397,568,433
2025-02-20 16:21:36.753,-942.0,2236.0,-463.0,63.0,54.0,-471.0,143,53,55,67,55,394,543,418
2025-02-20 16:21:36.769,-446.0,1636.0,-1099.0,-145.0,-151.0,-790.0,142,52,55,68,54,423,499,413
2025-02-20 16:21:36.793,2402.0,56.0,-1501.0,-365.0,-512.0,-892.0,139,52,55,72,55,468,440,416
2025-02-20 16:21:36.806,4947.0,-5746.0,419.0,-435.0,-346.0,-392.0,135,53,56,75,55,501,281,423
2025-02-20 16:21:36.830,3161.0,-6515.0,-204.0,-146.0,63.0,58.0,131,52,56,75,55,538,287,405
2025-02-20 16:21:36.847,1299.0,-3404.0,-1241.0,159.0,90.0,123.0,129,51,57,72,53,409,419,426
2025-02-20 16:21:36.867,681.0,-1543.0,-736.0,101.0,54.0,229.0,130,54,59,76,55,405,496,499
2025-02-20 16:21:36.887,348.0,-1129.0,-172.0,21.0,11.0,237.0,131,54,58,75,56,505,480,563
2025-02-20 16:21:36.904,252.0,-1627.0,250.0,42.0,34.0,255.0,134,53,57,77,56,374,465,526
2025-02-20 16:21:36.923,288.0,-1021.0,157.0,97.0,62.0,267.0,130,57,62,78,59,391,419,498
2025-02-20 16:21:36.945,81.0,-662.0,202.0,88.0,52.0,263.0,132,59,62,76,58,460,369,469
2025-02-20 16:21:36.960,132.0,-657.0,230.0,37.0,47.0,275.0,133,63,62,80,61,502,400,463
2025-02-20 16:21:36.982,-31.0,-722.0,175.0,-136.0,72.0,304.0,134,62,64,84,63,383,429,455
2025-02-20 16:21:36.999,310.0,-566.0,360.0,-95.0,72.0,332.0,134,60,67,90,68,364,409,443
2025-02-20 16:21:37.019,-147.0,-296.0,21.0,-39.0,63.0,332.0,135,65,71,96,77,360,415,445
2025-02-20 16:21:37.039,-374.0,-296.0,424.0,127.0,84.0,266.0,134,74,76,101,89,376,438,454
2025-02-20 16:21:37.056,-440.0,-141.0,48.0,159.0,70.0,232.0,135,87,82,107,97,376,473,455
2025-02-20 16:21:37.076,-291.0,-282.0,-89.0,113.0,111.0,200.0,135,92,86,114,103,420,524,457
2025-02-20 16:21:37.096,-435.0,-125.0,-6.0,159.0,90.0,189.0,134,91,88,118,105,486,529,462
2025-02-20 16:21:37.113,-621.0,298.0,56.0,217.0,68.0,182.0,136,93,90,120,106,529,541,451
2025-02-20 16:21:37.133,-865.0,1364.0,-255.0,177.0,-6.0,47.0,136,94,90,121,107,540,564,439
2025-02-20 16:21:37.153,-1113.0,2024.0,-749.0,163.0,-138.0,-203.0,135,97,93,122,109,515,557,427
2025-02-20 16:21:37.170,-1207.0,1949.0,-657.0,209.0,-280.0,-513.0,135,102,95,122,113,518,548,430
2025-02-20 16:21:37.191,-459.0,1315.0,-437.0,170.0,-406.0,-713.0,135,105,96,125,118,536,502,434
2025-02-20 16:21:37.210,1416.0,289.0,-560.0,-5.0,-570.0,-765.0,134,111,98,127,122,595,434,440
2025-02-20 16:21:37.228,3216.0,-2500.0,625.0,-295.0,-668.0,-520.0,133,118,100,133,123,526,316,454
2025-02-20 16:21:37.248,2453.0,-3831.0,380.0,-265.0,-330.0,-162.0,131,119,104,131,126,445,304,456
2025-02-20 16:21:37.268,2154.0,-4477.0,322.0,-145.0,-210.0,121.0,132,119,103,132,126,514,355,483
2025-02-20 16:21:37.285,1243.0,-2999.0,78.0,-110.0,-55.0,166.0,133,115,103,131,126,596,403,495
2025-02-20 16:21:37.304,367.0,-1500.0,43.0,-7.0,100.0,228.0,134,112,103,131,126,583,484,491
2025-02-20 16:21:37.323,-47.0,-1171.0,88.0,41.0,74.0,240.0,134,113,102,130,126,542,533,476
2025-02-20 16:21:37.343,-94.0,-1006.0,604.0,106.0,100.0,230.0,133,113,103,132,127,486,526,471
2025-02-20 16:21:37.362,-103.0,-1012.0,180.0,162.0,195.0,213.0,134,114,103,133,129,438,479,475
2025-02-20 16:21:37.378,114.0,-811.0,294.0,-34.0,183.0,211.0,134,119,103,132,128,471,422,475
2025-02-20 16:21:37.399,23.0,-625.0,296.0,-241.0,140.0,216.0,135,120,104,132,129,444,413,476
2025-02-20 16:21:37.420,79.0,-424.0,306.0,-127.0,58.0,245.0,135,120,104,132,129,387,476,474
2025-02-20 16:21:37.437,-212.0,-237.0,253.0,-66.0,33.0,229.0,135,119,104,132,129,365,541,468
2025-02-20 16:21:37.456,-608.0,-552.0,58.0,1.0,31.0,214.0,135,115,104,132,129,368,518,456
2025-02-20 16:21:37.474,-284.0,-392.0,38.0,64.0,48.0,191.0,135,112,102,130,129,381,550,448
2025-02-20 16:21:37.494,-425.0,-440.0,212.0,122.0,56.0,157.0,136,112,104,131,129,413,548,448
2025-02-20 16:21:37.514,-281.0,-296.0,102.0,192.0,56.0,136.0,134,112,104,132,128,432,517,449
2025-02-20 16:21:37.532,-417.0,-149.0,153.0,245.0,58.0,124.0,135,112,103,132,127,449,471,455
2025-02-20 16:21:37.551,-358.0,248.0,469.0,250.0,63.0,115.0,136,112,104,131,128,445,439,453
2025-02-20 16:21:37.570,-628.0,1035.0,-140.0,296.0,55.0,25.0,136,112,104,132,127,424,428,443
2025-02-20 16:21:37.588,-1284.0,1635.0,-536.0,281.0,-74.0,-181.0,137,113,102,131,127,424,423,438
2025-02-20 16:21:37.608,-1341.0,1700.0,-646.0,168.0,-248.0,-472.0,136,111,102,131,127,434,429,433
2025-02-20 16:21:37.629,-559.0,992.0,139.0,57.0,-401.0,-751.0,136,112,102,131,127,501,460,424
2025-02-20 16:21:37.645,1724.0,-616.0,155.0,-124.0,-659.0,-744.0,134,116,103,132,127,540,439,441
2025-02-20 16:21:37.666,4048.0,-2757.0,341.0,-254.0,-683.0,-467.0,135,119,102,132,128,503,355,453
2025-02-20 16:21:37.686,2840.0,-4361.0,589.0,-84.0,-241.0,-80.0,135,119,102,133,128,597,354,418
2025-02-20 16:21:37.703,2284.0,-3801.0,896.0,-21.0,11.0,198.0,135,114,99,133,126,650,439,446
2025-02-20 16:21:37.723,930.0,-2047.0,795.0,-26.0,143.0,213.0,135,106,94,132,121,663,491,491
2025-02-20 16:21:37.740,187.0,-1209.0,489.0,-110.0,197.0,219.0,137,100,92,131,114,592,546,508
2025-02-20 16:21:37.760,-105.0,-966.0,343.0,-17.0,26.0,216.0,137,97,86,131,109,455,536,517
2025-02-20 16:21:37.780,-123.0,-1135.0,334.0,26.0,65.0,238.0,138,96,87,129,104,391,474,517
2025-02-20 16:21:37.797,168.0,-1326.0,533.0,-3.0,44.0,264.0,137,103,85,119,98,324,396,507
2025-02-20 16:21:37.817,228.0,-1141.0,297.0,-93.0,81.0,269.0,137,99,84,112,89,361,336,489
2025-02-20 16:21:37.838,31.0,-669.0,471.0,-150.0,68.0,271.0,137,96,80,107,81,421,448,482
2025-02-20 16:21:37.854,-41.0,-301.0,525.0,-217.0,49.0,255.0,138,92,76,98,73,477,512,486
2025-02-20 16:21:37.875,-293.0,-286.0,472.0,-95.0,72.0,246.0,139,85,75,94,69,437,528,476
2025-02-20 16:21:37.894,-271.0,-316.0,374.0,-56.0,107.0,234.0,139,83,74,90,65,432,542,463
2025-02-20 16:21:37.912,-184.0,-324.0,395.0,93.0,136.0,204.0,140,79,70,83,64,451,600,449
2025-02-20 16:21:37.932,-256.0,-347.0,221.0,238.0,154.0,177.0,140,78,68,79,63,477,593,447
2025-02-20 16:21:37.949,-512.0,219.0,92.0,320.0,149.0,144.0,141,76,65,78,63,452,554,455
2025-02-20 16:21:37.970,-726.0,1252.0,-66.0,359.0,107.0,57.0,140,69,64,80,62,432,475,462
2025-02-20 16:21:37.989,-906.0,2695.0,-509.0,334.0,64.0,-186.0,140,63,57,78,57,412,403,452
2025-02-20 16:21:38.006,-1051.0,2877.0,-982.0,191.0,-44.0,-482.0,142,56,52,74,51,314,395,446
2025-02-20 16:21:38.025,-618.0,2395.0,-1344.0,-43.0,-378.0,-837.0,142,51,48,71,49,252,401,440
2025-02-20 16:21:38.044,2123.0,588.0,-1786.0,-315.0,-743.0,-905.0,142,50,47,71,50,272,406,454
2025-02-20 16:21:38.063,5110.0,-4448.0,260.0,-326.0,-739.0,-446.0,143,51,47,75,53,386,405,461
2025-02-20 16:21:38.084,4277.0,-6250.0,1450.0,-365.0,-101.0,-88.0,142,51,46,74,53,472,451,428
2025-02-20 16:21:38.104,1889.0,-4733.0,-632.0,151.0,144.0,16.0,144,49,46,71,52,520,440,438
2025-02-20 16:21:38.120,342.0,-1770.0,-519.0,239.0,80.0,169.0,145,50,47,73,51,553,432,451
2025-02-20 16:21:38.141,154.0,-1122.0,-139.0,33.0,9.0,190.0,146,52,48,72,53,548,521,503
2025-02-20 16:21:38.158,9.0,-1464.0,-1.0,16.0,-14.0,182.0,146,53,49,74,54,390,569,528
2025-02-20 16:21:38.178,17.0,-1322.0,202.0,76.0,13.0,193.0,146,53,49,74,53,334,508,549
2025-02-20 16:21:38.198,244.0,-474.0,316.0,38.0,31.0,174.0,146,53,49,76,53,382,398,532
2025-02-20 16:21:38.213,67.0,-570.0,369.0,-24.0,50.0,182.0,147,54,49,73,54,450,386,523
2025-02-20 16:21:38.235,-115.0,-800.0,192.0,-49.0,52.0,183.0,146,54,48,73,54,496,405,517
2025-02-20 16:21:38.255,-62.0,-913.0,164.0,-81.0,53.0,239.0,147,54,48,73,55,501,424,504
2025-02-20 16:21:38.272,103.0,-419.0,514.0,24.0,70.0,180.0,147,55,48,71,55,478,525,482
2025-02-20 16:21:38.292,49.0,-515.0,368.0,56.0,142.0,161.0,146,55,49,71,56,469,541,461
2025-02-20 16:21:38.312,-199.0,-366.0,142.0,53.0,149.0,188.0,147,55,49,73,57,492,567,449
2025-02-20 16:21:38.330,-430.0,-322.0,-94.0,15.0,99.0,222.0,146,55,49,73,57,490,598,435
2025-02-20 16:21:38.350,-271.0,-521.0,63.0,74.0,53.0,227.0,147,55,50,73,56,507,534,430
2025-02-20 16:21:38.366,-51.0,-319.0,467.0,163.0,96.0,171.0,146,55,49,72,56,514,505,439
2025-02-20 16:21:38.387,-217.0,-331.0,152.0,252.0,174.0,162.0,146,55,49,74,57,506,493,453
2025-02-20 16:21:38.407,-689.0,290.0,-217.0,304.0,130.0,155.0,147,57,50,74,57,455,469,455
2025-02-20 16:21:38.424,-963.0,1757.0,-489.0,331.0,76.0,-37.0,146,55,50,74,56,419,484,443
2025-02-20 16:21:38.443,-1368.0,2459.0,-871.0,237.0,-66.0,-299.0,146,55,51,74,56,417,495,436
2025-02-20 16:21:38.463,-1460.0,2332.0,-1353.0,98.0,-261.0,-654.0,143,55,50,77,56,481,456,437
2025-02-20 16:21:38.479,348.0,2205.0,-1830.0,-151.0,-696.0,-869.0,143,55,52,80,57,489,363,438
2025-02-20 16:21:38.502,4415.0,-1302.0,-778.0,-453.0,-956.0,-626.0,145,56,51,82,57,406,317,439
2025-02-20 16:21:38.522,4691.0,-5878.0,2042.0,-556.0,-389.0,-114.0,146,56,52,82,58,292,297,415
2025-02-20 16:21:38.538,2651.0,-4538.0,-433.0,-105.0,95.0,-11.0,145,52,53,81,58,553,367,397
2025-02-20 16:21:38.559,1307.0,-3235.0,-175.0,272.0,169.0,109.0,144,52,53,82,56,536,470,424
2025-02-20 16:21:38.577,483.0,-1530.0,-272.0,133.0,196.0,224.0,144,55,54,85,56,527,519,463
2025-02-20 16:21:38.595,235.0,-993.0,-39.0,78.0,112.0,244.0,145,58,55,84,58,532,599,487
2025-02-20 16:21:38.612,41.0,-1112.0,68.0,48.0,90.0,235.0,144,60,57,86,60,430,624,502
2025-02-20 16:21:38.632,0.0,-953.0,323.0,39.0,51.0,219.0,144,63,60,89,61,334,546,496
2025-02-20 16:21:38.653,58.0,-943.0,335.0,30.0,42.0,224.0,145,66,63,87,62,306,293,504
2025-02-20 16:21:38.673,11.0,-817.0,320.0,-42.0,76.0,241.0,144,67,64,91,62,254,273,496
2025-02-20 16:21:38.690,-6.0,-562.0,146.0,-145.0,72.0,277.0,144,70,70,94,63,300,347,487
2025-02-20 16:21:38.710,-82.0,-412.0,72.0,-61.0,123.0,287.0,145,75,73,92,63,462,396,485
2025-02-20 16:21:38.731,-347.0,-330.0,400.0,24.0,52.0,249.0,144,83,78,91,64,562,509,471
2025-02-20 16:21:38.747,-330.0,-211.0,379.0,117.0,99.0,197.0,145,91,81,91,67,619,650,471
2025-02-20 16:21:38.765,-409.0,-147.0,105.0,214.0,133.0,159.0,145,97,82,92,67,654,648,471
2025-02-20 16:21:38.784,-516.0,38.0,-7.0,262.0,134.0,122.0,144,102,85,92,68,630,570,473
2025-02-20 16:21:38.804,-828.0,704.0,-57.0,247.0,87.0,58.0,143,107,88,91,69,610,499,469
2025-02-20 16:21:38.825,-933.0,1016.0,-334.0,136.0,-3.0,-68.0,142,110,92,88,68,593,468,460
2025-02-20 16:21:38.842,-662.0,593.0,-487.0,128.0,-92.0,-180.0,142,112,97,87,67,567,485,448
2025-02-20 16:21:38.862,-1037.0,563.0,-420.0,198.0,-196.0,-295.0,141,115,95,87,63,545,475,442
2025-02-20 16:21:38.879,-840.0,806.0,-395.0,228.0,-395.0,-505.0,140,117,101,90,63,530,445,446
2025-02-20 16:21:38.898,822.0,869.0,154.0,49.0,-558.0,-631.0,139,118,103,93,65,506,444,457
2025-02-20 16:21:38.915,2508.0,-441.0,641.0,-152.0,-646.0,-630.0,137,122,104,92,66,468,398,458
2025-02-20 16:21:38.940,2463.0,-3635.0,2028.0,-171.0,-433.0,-389.0,136,125,104,92,67,395,341,443
2025-02-20 16:21:38.956,2845.0,-3526.0,1224.0,-137.0,-158.0,25.0,134,126,103,92,68,374,367,438
2025-02-20 16:21:38.977,2182.0,-2746.0,1184.0,-79.0,77.0,224.0,135,126,105,94,64,465,480,452
2025-02-20 16:21:38.997,1152.0,-1630.0,781.0,-46.0,178.0,245.0,136,127,104,94,61,488,532,477
2025-02-20 16:21:39.014,540.0,-1247.0,316.0,-22.0,159.0,229.0,134,121,106,94,60,519,539,472
2025-02-20 16:21:39.031,320.0,-1086.0,237.0,6.0,128.0,249.0,136,125,106,91,62,481,574,475
2025-02-20 16:21:39.054,271.0,-1065.0,377.0,10.0,123.0,279.0,136,125,106,89,63,433,543,472
2025-02-20 16:21:39.071,181.0,-827.0,381.0,26.0,143.0,297.0,136,126,106,86,65,412,469,465
2025-02-20 16:21:39.091,4.0,-578.0,391.0,19.0,142.0,308.0,137,127,106,83,66,350,408,450
2025-02-20 16:21:39.108,-168.0,-301.0,368.0,-35.0,122.0,299.0,138,128,106,82,66,352,385,456
2025-02-20 16:21:39.128,-253.0,-250.0,400.0,-73.0,120.0,267.0,139,127,106,82,64,449,418,460
2025-02-20 16:21:39.148,-237.0,-440.0,304.0,-42.0,145.0,222.0,142,126,107,84,65,505,503,457
2025-02-20 16:21:39.165,-388.0,-416.0,112.0,65.0,153.0,199.0,139,125,107,86,64,449,536,457
2025-02-20 16:21:39.185,-552.0,-139.0,103.0,133.0,121.0,168.0,139,124,107,85,65,409,545,460
2025-02-20 16:21:39.202,-439.0,-21.0,270.0,145.0,118.0,120.0,140,125,107,85,66,471,548,466
2025-02-20 16:21:39.223,-519.0,-63.0,224.0,149.0,119.0,62.0,140,125,106,84,66,514,522,477
2025-02-20 16:21:39.243,-540.0,-64.0,129.0,157.0,100.0,44.0,140,125,107,83,67,482,496,484
2025-02-20 16:21:39.259,-644.0,439.0,15.0,142.0,76.0,29.0,140,125,106,83,66,452,461,478
2025-02-20 16:21:39.280,-1074.0,1342.0,-515.0,86.0,-9.0,-112.0,141,125,107,84,66,449,444,468
2025-02-20 16:21:39.300,-1465.0,1436.0,-803.0,71.0,-161.0,-337.0,140,124,107,82,65,469,440,456
2025-02-20 16:21:39.321,-1022.0,1394.0,-702.0,52.0,-380.0,-634.0,139,123,107,83,65,468,413,447
2025-02-20 16:21:39.335,913.0,932.0,-528.0,-99.0,-697.0,-777.0,139,127,105,84,65,455,330,446
2025-02-20 16:21:39.357,3786.0,-1504.0,1705.0,-348.0,-538.0,-739.0,138,125,106,87,67,366,281,460
2025-02-20 16:21:39.374,2754.0,-4416.0,1050.0,-202.0,-91.0,-286.0,137,127,105,89,63,432,314,447
2025-02-20 16:21:39.395,2678.0,-4364.0,690.0,-44.0,23.0,158.0,137,126,102,92,63,614,413,465
2025-02-20 16:21:39.413,1097.0,-2090.0,879.0,-6.0,115.0,250.0,136,123,103,93,61,640,506,465
2025-02-20 16:21:39.432,286.0,-1146.0,307.0,-85.0,52.0,227.0,139,119,103,94,62,635,541,487
2025-02-20 16:21:39.452,107.0,-1215.0,262.0,-138.0,13.0,230.0,139,119,101,96,64,576,575,485
2025-02-20 16:21:39.472,270.0,-1365.0,335.0,-130.0,31.0,259.0,139,119,100,98,68,471,540,494
2025-02-20 16:21:39.485,274.0,-1364.0,386.0,-56.0,85.0,304.0,140,120,99,98,72,397,483,485
2025-02-20 16:21:39.509,-15.0,-1024.0,331.0,-29.0,97.0,318.0,140,117,96,97,73,350,265,466
2025-02-20 16:21:39.521,-202.0,-778.0,270.0,-61.0,87.0,310.0,141,107,88,97,75,316,208,463
2025-02-20 16:21:39.546,-97.0,-598.0,362.0,-70.0,94.0,313.0,141,93,79,95,73,493,349,479
2025-02-20 16:21:39.565,-256.0,-524.0,263.0,-22.0,104.0,312.0,142,81,73,93,70,603,452,480
2025-02-20 16:21:39.583,-386.0,-92.0,29.0,-7.0,98.0,240.0,142,75,69,92,68,582,470,476
2025-02-20 16:21:39.602,-578.0,32.0,39.0,28.0,71.0,153.0,143,71,64,89,69,553,625,477
2025-02-20 16:21:39.623,-557.0,-17.0,-12.0,50.0,49.0,101.0,142,68,62,85,67,508,673,477
2025-02-20 16:21:39.640,-553.0,26.0,-53.0,86.0,19.0,50.0,143,67,60,80,65,481,600,477
2025-02-20 16:21:39.660,-480.0,271.0,-91.0,159.0,24.0,-10.0,143,66,57,77,62,399,571,484
2025-02-20 16:21:39.681,-766.0,961.0,-191.0,203.0,13.0,-117.0,142,62,54,76,58,413,501,478
2025-02-20 16:21:39.698,-874.0,1432.0,-506.0,211.0,-72.0,-286.0,141,60,52,73,55,398,407,466
2025-02-20 16:21:39.717,-859.0,1642.0,-793.0,80.0,-186.0,-500.0,142,58,50,76,54,368,363,460
2025-02-20 16:21:39.738,-503.0,1230.0,-1254.0,-124.0,-432.0,-645.0,143,56,50,80,56,348,408,460
2025-02-20 16:21:39.755,1180.0,-53.0,-1596.0,-295.0,-684.0,-710.0,142,56,51,82,58,351,432,450
2025-02-20 16:21:39.775,3986.0,-2844.0,154.0,-391.0,-642.0,-368.0,141,57,52,85,61,359,424,443
2025-02-20 16:21:39.795,3931.0,-5122.0,1733.0,-370.0,-143.0,-105.0,142,57,52,86,61,440,417,424
2025-02-20 16:21:39.812,1464.0,-4701.0,-198.0,173.0,222.0,-14.0,139,52,48,83,60,549,469,414
2025-02-20 16:21:39.832,793.0,-2417.0,-738.0,225.0,146.0,129.0,139,53,53,87,58,601,540,428
2025-02-20 16:21:39.849,202.0,-1259.0,-285.0,34.0,4.0,216.0,142,58,54,81,60,627,607,456
2025-02-20 16:21:39.868,244.0,-1856.0,-136.0,-16.0,-53.0,258.0,143,58,52,86,60,566,580,474
2025-02-20 16:21:39.889,410.0,-1514.0,270.0,37.0,-28.0,276.0,143,57,54,85,61,398,468,454
2025-02-20 16:21:39.907,397.0,-833.0,502.0,101.0,22.0,212.0,144,58,54,82,61,187,385,454
2025-02-20 16:21:39.927,178.0,-662.0,357.0,40.0,89.0,194.0,144,59,54,76,60,250,331,494
2025-02-20 16:21:39.944,-34.0,-927.0,334.0,-53.0,126.0,255.0,145,60,52,73,59,402,374,504
2025-02-20 16:21:39.964,-232.0,-523.0,-108.0,-56.0,66.0,291.0,144,59,53,74,59,521,430,514
2025-02-20 16:21:39.984,-118.0,-414.0,213.0,-28.0,48.0,267.0,145,59,54,75,60,587,499,513
2025-02-20 16:21:40.001,72.0,-531.0,477.0,108.0,81.0,219.0,145,62,55,73,61,564,506,513
2025-02-20 16:21:40.021,119.0,-670.0,355.0,181.0,177.0,217.0,145,63,55,72,62,525,509,507
2025-02-20 16:21:40.041,-189.0,-307.0,-19.0,194.0,217.0,266.0,145,64,50,75,61,475,546,505
2025-02-20 16:21:40.058,-547.0,-10.0,-199.0,224.0,145.0,263.0,143,63,56,75,62,469,540,488
2025-02-20 16:21:40.079,-565.0,364.0,-169.0,260.0,91.0,192.0,145,66,59,77,63,428,512,477
2025-02-20 16:21:40.098,-769.0,974.0,-172.0,326.0,57.0,86.0,145,66,58,79,64,400,441,466
2025-02-20 16:21:40.115,-787.0,1687.0,-188.0,306.0,40.0,-105.0,144,68,59,80,63,383,455,450
2025-02-20 16:21:40.136,-1138.0,1965.0,-409.0,228.0,-60.0,-331.0,144,69,59,80,64,364,474,438
2025-02-20 16:21:40.155,-1110.0,1746.0,-681.0,89.0,-255.0,-618.0,143,67,59,82,63,365,480,426
2025-02-20 16:21:40.172,399.0,1234.0,-1012.0,-164.0,-567.0,-816.0,143,65,59,87,63,435,470,428
2025-02-20 16:21:40.193,2538.0,-1461.0,-982.0,-427.0,-781.0,-581.0,144,63,58,91,64,398,406,431
2025-02-20 16:21:40.213,3537.0,-4356.0,1030.0,-468.0,-602.0,-192.0,144,66,60,92,64,417,341,413
2025-02-20 16:21:40.230,2728.0,-4585.0,1496.0,-332.0,-125.0,-35.0,142,65,59,92,64,612,375,435
2025-02-20 16:21:40.250,1380.0,-2868.0,112.0,151.0,125.0,32.0,140,59,58,88,61,600,378,477
2025-02-20 16:21:40.267,433.0,-2161.0,-311.0,240.0,174.0,124.0,139,61,60,91,60,495,419,498
2025-02-20 16:21:40.287,89.0,-1074.0,-60.0,81.0,102.0,176.0,141,65,60,91,61,512,498,500
2025-02-20 16:21:40.307,221.0,-1172.0,135.0,86.0,121.0,169.0,141,69,63,91,64,490,522,512
2025-02-20 16:21:40.322,170.0,-1288.0,361.0,109.0,149.0,151.0,138,72,64,94,68,455,485,503
2025-02-20 16:21:40.345,82.0,-1322.0,189.0,154.0,123.0,191.0,138,75,65,93,69,398,439,466
2025-02-20 16:21:40.364,127.0,-1166.0,344.0,125.0,175.0,253.0,137,77,66,91,71,409,362,454
2025-02-20 16:21:40.382,159.0,-430.0,150.0,-2.0,206.0,315.0,138,76,68,95,69,416,368,446
2025-02-20 16:21:40.400,-329.0,164.0,120.0,-17.0,72.0,270.0,139,75,71,99,70,373,473,439
2025-02-20 16:21:40.419,-428.0,-60.0,503.0,-66.0,63.0,207.0,139,74,71,102,72,486,540,439
2025-02-20 16:21:40.439,-361.0,-744.0,570.0,-45.0,99.0,198.0,139,73,72,103,74,485,628,447
2025-02-20 16:21:40.460,-105.0,-1051.0,410.0,51.0,166.0,223.0,139,71,68,103,76,459,625,447
2025-02-20 16:21:40.474,-306.0,-806.0,229.0,126.0,201.0,266.0,139,66,63,103,75,557,601,438
2025-02-20 16:21:40.497,-703.0,-124.0,61.0,193.0,190.0,236.0,140,60,61,103,74,560,584,446
2025-02-20 16:21:40.516,-660.0,588.0,-49.0,143.0,140.0,178.0,139,57,57,98,69,535,516,455
2025-02-20 16:21:40.533,-807.0,923.0,-349.0,180.0,100.0,81.0,140,56,54,89,66,552,427,458
2025-02-20 16:21:40.551,-843.0,1237.0,-621.0,286.0,58.0,-49.0,135,57,52,80,60,552,364,438
2025-02-20 16:21:40.571,-1594.0,2111.0,-1604.0,300.0,-119.0,-347.0,120,56,51,74,54,508,357,435
2025-02-20 16:21:40.589,-1269.0,2312.0,-1921.0,207.0,-455.0,-641.0,109,56,50,71,54,474,384,437
2025-02-20 16:21:40.611,537.0,1864.0,-2338.0,35.0,-860.0,-821.0,105,55,52,72,54,419,400,453
2025-02-20 16:21:40.631,4646.0,-1175.0,-839.0,-109.0,-1137.0,-634.0,109,56,50,75,57,398,375,458
2025-02-20 16:21:40.648,5288.0,-5531.0,4438.0,-70.0,-488.0,-138.0,110,58,52,77,57,172,374,447
2025-02-20 16:21:40.668,3172.0,-3507.0,3147.0,56.0,226.0,90.0,103,56,52,70,53,303,375,461
2025-02-20 16:21:40.685,801.0,-1951.0,1369.0,132.0,309.0,65.0,101,54,52,70,49,423,476,476
2025-02-20 16:21:40.705,259.0,-809.0,748.0,-71.0,233.0,163.0,104,53,55,73,50,534,549,485
2025-02-20 16:21:40.723,-6.0,-1088.0,527.0,-200.0,153.0,175.0,105,54,55,73,51,616,606,485
2025-02-20 16:21:40.743,24.0,-1487.0,644.0,-146.0,128.0,196.0,105,57,55,74,54,647,642,498
2025-02-20 16:21:40.763,76.0,-1388.0,701.0,-37.0,165.0,216.0,108,57,55,76,57,372,520,476
2025-02-20 16:21:40.783,-22.0,-654.0,626.0,-19.0,199.0,220.0,106,59,55,77,59,316,317,484
2025-02-20 16:21:40.800,-271.0,-204.0,441.0,-67.0,197.0,203.0,111,59,56,78,60,381,325,493
2025-02-20 16:21:40.820,-569.0,-208.0,384.0,-133.0,128.0,188.0,114,60,54,76,61,557,418,492
2025-02-20 16:21:40.840,-460.0,-209.0,244.0,-156.0,89.0,165.0,114,60,54,72,60,619,440,482
2025-02-20 16:21:40.857,-217.0,-313.0,398.0,-124.0,113.0,151.0,116,60,56,74,59,558,486,477
2025-02-20 16:21:40.877,-291.0,-462.0,311.0,-68.0,158.0,145.0,115,59,54,74,59,458,518,459
2025-02-20 16:21:40.894,-379.0,-357.0,98.0,24.0,183.0,133.0,117,59,56,75,61,416,494,457
2025-02-20 16:21:40.915,-603.0,-353.0,-89.0,87.0,146.0,115.0,115,60,57,74,61,432,515,456
2025-02-20 16:21:40.934,-473.0,-171.0,-209.0,108.0,101.0,108.0,116,61,57,74,61,446,517,467
2025-02-20 16:21:40.951,-459.0,106.0,-369.0,118.0,72.0,110.0,114,61,57,71,60,450,488,476
2025-02-20 16:21:40.970,-649.0,531.0,-800.0,140.0,27.0,64.0,116,60,57,74,62,453,444,471
2025-02-20 16:21:40.987,-1325.0,989.0,-1491.0,264.0,-107.0,-88.0,113,61,57,75,62,483,394,462
2025-02-20 16:21:41.008,-1625.0,1595.0,-1787.0,357.0,-345.0,-376.0,111,61,57,75,59,518,414,449
2025-02-20 16:21:41.024,-452.0,1753.0,-1508.0,302.0,-762.0,-581.0,114,60,57,76,61,468,435,454
2025-02-20 16:21:41.049,2990.0,561.0,390.0,64.0,-1064.0,-543.0,119,60,55,79,65,410,394,454
2025-02-20 16:21:41.066,4666.0,-4594.0,4979.0,-4.0,-266.0,-10.0,120,62,58,82,65,309,294,457
2025-02-20 16:21:41.086,2491.0,-2909.0,3340.0,114.0,268.0,96.0,120,61,57,76,62,371,194,442
2025-02-20 16:21:41.103,259.0,-838.0,1630.0,89.0,292.0,53.0,118,61,56,75,58,366,146,443
2025-02-20 16:21:41.123,-441.0,-362.0,717.0,-165.0,208.0,112.0,119,61,56,77,59,534,279,442
2025-02-20 16:21:41.143,-510.0,-1114.0,318.0,-193.0,112.0,119.0,120,62,57,77,62,616,433,448
2025-02-20 16:21:41.160,-186.0,-1391.0,578.0,-76.0,76.0,114.0,122,62,57,79,64,576,535,457
2025-02-20 16:21:41.180,23.0,-1272.0,701.0,38.0,142.0,127.0,123,61,61,81,65,304,543,457
2025-02-20 16:21:41.201,-281.0,-892.0,503.0,28.0,146.0,160.0,128,61,59,78,66,221,423,495
2025-02-20 16:21:41.213,-500.0,-508.0,422.0,-42.0,73.0,155.0,132,62,59,80,66,343,458,512
2025-02-20 16:21:41.237,-451.0,-460.0,593.0,-85.0,30.0,136.0,132,63,60,79,66,424,497,538
2025-02-20 16:21:41.255,-164.0,-715.0,680.0,-56.0,59.0,137.0,133,66,61,80,66,504,520,519
2025-02-20 16:21:41.275,-371.0,-779.0,251.0,44.0,98.0,158.0,133,74,59,81,67,527,603,497
2025-02-20 16:21:41.295,-534.0,-509.0,305.0,110.0,76.0,147.0,133,87,58,81,68,546,622,476
2025-02-20 16:21:41.312,-440.0,-218.0,320.0,131.0,68.0,131.0,134,92,59,80,68,574,584,460
2025-02-20 16:21:41.332,-437.0,-34.0,363.0,131.0,62.0,114.0,132,94,59,79,67,586,650,450
2025-02-20 16:21:41.352,-521.0,42.0,258.0,168.0,75.0,74.0,131,94,56,78,67,551,632,447
2025-02-20 16:21:41.369,-745.0,313.0,4.0,199.0,45.0,24.0,126,94,55,75,64,520,553,438
2025-02-20 16:21:41.390,-1240.0,787.0,-647.0,222.0,-82.0,-70.0,111,93,54,71,58,507,510,428
2025-02-20 16:21:41.410,-1331.0,1099.0,-1319.0,193.0,-314.0,-200.0,98,92,53,66,56,510,487,420
2025-02-20 16:21:41.425,-248.0,776.0,-1650.0,186.0,-618.0,-306.0,86,92,51,66,56,486,478,430
2025-02-20 16:21:41.447,913.0,267.0,-1249.0,202.0,-811.0,-280.0,87,91,50,67,58,462,481,442
2025-02-20 16:21:41.467,2124.0,-439.0,-89.0,289.0,-863.0,-165.0,90,94,50,67,60,443,478,460
2025-02-20 16:21:41.484,2396.0,-696.0,2186.0,320.0,-624.0,-52.0,94,98,51,68,62,518,427,457
2025-02-20 16:21:41.504,2180.0,514.0,3852.0,142.0,-257.0,-24.0,96,100,51,69,63,577,451,475
2025-02-20 16:21:41.521,2056.0,-108.0,3458.0,-22.0,75.0,9.0,96,101,51,69,64,558,544,485
2025-02-20 16:21:41.541,1339.0,88.0,2303.0,-87.0,191.0,25.0,95,101,51,71,64,465,579,473
2025-02-20 16:21:41.561,871.0,-334.0,1761.0,-118.0,240.0,38.0,96,101,51,71,65,367,579,465
2025-02-20 16:21:41.576,500.0,-336.0,1358.0,-144.0,279.0,52.0,97,102,52,72,66,293,564,469
2025-02-20 16:21:41.599,304.0,-274.0,1082.0,-135.0,251.0,52.0,96,103,52,72,66,287,503,487
2025-02-20 16:21:41.619,266.0,-389.0,976.0,-99.0,212.0,52.0,95,102,53,73,66,361,405,466
2025-02-20 16:21:41.635,220.0,-338.0,1171.0,-98.0,225.0,85.0,96,100,52,73,66,450,363,457
2025-02-20 16:21:41.654,261.0,-189.0,1144.0,-131.0,276.0,103.0,99,99,52,74,67,494,393,468
2025-02-20 16:21:41.676,-122.0,-182.0,668.0,-94.0,269.0,81.0,98,97,53,74,67,464,424,479
2025-02-20 16:21:41.692,-149.0,-222.0,591.0,-43.0,212.0,45.0,95,95,54,74,66,439,446,488
2025-02-20 16:21:41.712,-97.0,-184.0,913.0,-52.0,234.0,44.0,95,94,54,74,67,456,484,488
2025-02-20 16:21:41.730,-35.0,-109.0,700.0,-96.0,278.0,64.0,97,90,54,74,66,464,507,483
2025-02-20 16:21:41.746,-299.0,-270.0,301.0,-100.0,256.0,96.0,99,87,53,75,66,534,526,462
2025-02-20 16:21:41.770,-496.0,-347.0,10.0,-50.0,168.0,114.0,98,86,53,74,66,529,516,461
2025-02-20 16:21:41.787,-365.0,-133.0,235.0,-3.0,118.0,85.0,95,88,54,74,65,535,501,457
2025-02-20 16:21:41.807,-393.0,-38.0,359.0,13.0,120.0,56.0,98,91,53,74,66,535,493,460
2025-02-20 16:21:41.827,-586.0,-22.0,186.0,19.0,93.0,35.0,100,93,54,74,68,514,483,460
2025-02-20 16:21:41.844,-816.0,150.0,-71.0,15.0,33.0,29.0,101,93,55,75,67,503,468,452
2025-02-20 16:21:41.865,-1140.0,583.0,-459.0,7.0,-59.0,-41.0,101,94,54,76,67,501,444,450
2025-02-20 16:21:41.884,-1494.0,702.0,-1093.0,123.0,-259.0,-218.0,99,94,54,75,66,457,409,443
2025-02-20 16:21:41.901,-1160.0,487.0,-1565.0,247.0,-571.0,-329.0,96,94,54,75,64,442,390,449
2025-02-20 16:21:41.922,1125.0,225.0,-1043.0,247.0,-906.0,-239.0,93,97,53,75,64,433,366,451
2025-02-20 16:21:41.942,2830.0,-251.0,735.0,174.0,-1013.0,-129.0,95,101,53,76,65,387,377,465
2025-02-20 16:21:41.958,3149.0,-1612.0,3430.0,130.0,-568.0,112.0,104,105,53,76,67,383,391,473
2025-02-20 16:21:41.979,2665.0,-482.0,4121.0,-61.0,-146.0,162.0,105,105,55,75,63,492,451,457
2025-02-20 16:21:41.999,1876.0,-315.0,3224.0,-202.0,134.0,121.0,105,106,54,77,68,545,443,462
2025-02-20 16:21:42.016,1072.0,-536.0,2117.0,-230.0,310.0,147.0,111,105,55,77,69,535,468,457
2025-02-20 16:21:42.036,775.0,-761.0,1267.0,-205.0,403.0,185.0,116,105,55,79,70,448,579,469
2025-02-20 16:21:42.053,555.0,-579.0,814.0,-184.0,439.0,207.0,120,104,56,82,73,405,599,455
2025-02-20 16:21:42.073,235.0,-324.0,651.0,-208.0,407.0,222.0,124,106,57,82,76,396,511,471
2025-02-20 16:21:42.093,61.0,-107.0,400.0,-232.0,349.0,217.0,125,106,60,86,81,425,427,499
2025-02-20 16:21:42.110,-58.0,-529.0,375.0,-212.0,302.0,225.0,125,107,65,92,95,466,380,489
2025-02-20 16:21:42.129,-101.0,-680.0,156.0,-139.0,272.0,257.0,125,107,70,101,99,518,398,476
2025-02-20 16:21:42.151,-429.0,-373.0,321.0,-11.0,281.0,243.0,126,107,81,112,107,509,431,464
2025-02-20 16:21:42.168,-387.0,-179.0,265.0,24.0,314.0,194.0,126,106,84,117,109,461,419,462
2025-02-20 16:21:42.188,-533.0,-164.0,3.0,52.0,296.0,146.0,126,106,87,119,110,421,461,465
2025-02-20 16:21:42.208,-698.0,224.0,-80.0,90.0,218.0,106.0,124,106,89,120,111,415,542,468
2025-02-20 16:21:42.225,-757.0,420.0,-157.0,111.0,131.0,65.0,123,106,89,121,111,419,523,468
2025-02-20 16:21:42.246,-921.0,744.0,-995.0,129.0,11.0,-12.0,121,106,90,121,113,444,524,464
2025-02-20 16:21:42.265,-1218.0,838.0,-1131.0,68.0,-144.0,-147.0,121,107,91,123,115,454,536,458
2025-02-20 16:21:42.282,-1366.0,993.0,-1109.0,-5.0,-355.0,-323.0,123,110,93,122,117,445,520,459
2025-02-20 16:21:42.302,-979.0,1039.0,-631.0,-76.0,-410.0,-601.0,124,111,95,125,120,452,476,464
2025-02-20 16:21:42.319,520.0,1170.0,640.0,-78.0,-820.0,-769.0,125,114,97,125,121,426,430,474
2025-02-20 16:21:42.339,3072.0,-537.0,-407.0,-134.0,-975.0,-600.0,124,120,100,127,120,371,391,480
2025-02-20 16:21:42.359,2542.0,-3473.0,1912.0,-122.0,-617.0,-253.0,126,124,100,130,125,477,249,472
2025-02-20 16:21:42.376,2574.0,-3186.0,1626.0,5.0,-228.0,43.0,129,125,102,131,126,543,188,470
2025-02-20 16:21:42.395,1884.0,-2017.0,1454.0,17.0,-11.0,100.0,130,126,102,131,126,424,258,468
2025-02-20 16:21:42.417,834.0,-1346.0,1364.0,-12.0,144.0,103.0,133,126,102,131,127,361,346,459
2025-02-20 16:21:42.432,576.0,-1187.0,876.0,-76.0,212.0,166.0,133,125,102,132,128,418,455,458
2025-02-20 16:21:42.454,458.0,-1213.0,436.0,-116.0,213.0,261.0,133,126,103,132,127,482,525,463
2025-02-20 16:21:42.474,261.0,-1021.0,398.0,-134.0,190.0,303.0,133,127,102,131,128,457,531,464
2025-02-20 16:21:42.491,-7.0,-1034.0,540.0,-132.0,187.0,303.0,132,127,103,135,129,481,506,482
2025-02-20 16:21:42.511,20.0,-916.0,768.0,-148.0,242.0,289.0,130,130,103,133,129,430,515,480
2025-02-20 16:21:42.528,-148.0,-384.0,423.0,-159.0,191.0,287.0,132,127,103,134,129,369,554,482
2025-02-20 16:21:42.547,-263.0,-298.0,77.0,-140.0,168.0,266.0,131,126,102,132,130,440,561,479
2025-02-20 16:21:42.569,-434.0,-236.0,229.0,-78.0,143.0,244.0,130,125,104,132,130,541,511,475
2025-02-20 16:21:42.585,-463.0,-352.0,20.0,-31.0,112.0,215.0,128,124,102,132,128,588,528,472
2025-02-20 16:21:42.605,-546.0,-310.0,-23.0,92.0,108.0,184.0,128,123,102,132,130,581,537,472
2025-02-20 16:21:42.626,-420.0,-220.0,-3.0,127.0,84.0,139.0,128,121,103,132,130,569,537,471
2025-02-20 16:21:42.643,-730.0,-154.0,-12.0,168.0,52.0,101.0,128,122,103,132,130,564,560,468
2025-02-20 16:21:42.663,-707.0,41.0,25.0,182.0,9.0,62.0,127,120,102,132,130,543,575,462
2025-02-20 16:21:42.680,-646.0,340.0,42.0,249.0,-6.0,33.0,127,121,102,132,130,489,560,458
2025-02-20 16:21:42.701,-1057.0,995.0,-354.0,280.0,-75.0,-63.0,128,119,103,131,129,468,526,460
2025-02-20 16:21:42.720,-1458.0,1524.0,-373.0,245.0,-203.0,-342.0,128,120,103,131,131,490,498,459
2025-02-20 16:21:42.740,-1106.0,1314.0,-312.0,97.0,-350.0,-695.0,129,120,102,131,131,522,493,461
2025-02-20 16:21:42.758,906.0,1205.0,-508.0,-42.0,-717.0,-887.0,128,123,104,132,131,461,471,464
2025-02-20 16:21:42.778,3559.0,-342.0,13.0,-404.0,-746.0,-718.0,120,126,103,133,131,258,399,452
2025-02-20 16:21:42.795,2969.0,-3692.0,87.0,-267.0,-387.0,-171.0,117,128,104,133,131,322,296,440
2025-02-20 16:21:42.815,3133.0,-4409.0,854.0,41.0,-67.0,171.0,119,128,104,133,132,430,215,449
2025-02-20 16:21:42.834,1940.0,-2950.0,711.0,175.0,160.0,164.0,122,128,101,132,129,370,287,462
2025-02-20 16:21:42.852,438.0,-1276.0,332.0,145.0,249.0,148.0,124,125,96,130,125,459,375,462
2025-02-20 16:21:42.872,0.0,-783.0,503.0,48.0,254.0,182.0,128,121,89,132,121,546,516,460
2025-02-20 16:21:42.892,-92.0,-812.0,550.0,29.0,230.0,190.0,128,121,82,130,111,556,527,467
2025-02-20 16:21:42.909,-54.0,-871.0,758.0,-16.0,211.0,212.0,129,123,76,126,104,493,504,481
2025-02-20 16:21:42.929,155.0,-1200.0,537.0,22.0,223.0,227.0,129,125,72,108,98,494,461,477
2025-02-20 16:21:42.947,287.0,-960.0,551.0,36.0,279.0,260.0,130,124,66,99,93,420,482,488
2025-02-20 16:21:42.964,86.0,-836.0,478.0,49.0,286.0,285.0,129,122,59,94,87,240,552,503
2025-02-20 16:21:42.987,99.0,-375.0,218.0,34.0,297.0,315.0,130,120,56,93,77,275,516,494
2025-02-20 16:21:43.003,-275.0,-83.0,13.0,51.0,244.0,298.0,131,118,55,89,73,377,493,470
2025-02-20 16:21:43.024,-489.0,-66.0,-16.0,80.0,187.0,261.0,128,114,52,83,69,470,528,466
2025-02-20 16:21:43.044,-477.0,-159.0,-74.0,184.0,157.0,228.0,125,112,52,76,68,502,532,470
2025-02-20 16:21:43.061,-511.0,154.0,-454.0,300.0,146.0,193.0,120,110,50,68,65,550,551,469
2025-02-20 16:21:43.081,-791.0,543.0,-566.0,361.0,87.0,138.0,107,104,50,65,63,593,582,462
2025-02-20 16:21:43.098,-1039.0,957.0,-1101.0,351.0,-29.0,8.0,92,93,50,64,59,652,549,455
2025-02-20 16:21:43.119,-1621.0,1223.0,-1628.0,329.0,-322.0,-213.0,87,87,50,62,57,602,525,453
2025-02-20 16:21:43.138,-992.0,1281.0,-2036.0,269.0,-706.0,-342.0,83,90,50,62,59,504,490,445
2025-02-20 16:21:43.158,1478.0,766.0,-1268.0,214.0,-1034.0,-339.0,81,93,50,62,59,427,458,464
2025-02-20 16:21:43.175,3185.0,-828.0,655.0,246.0,-1054.0,-174.0,83,100,51,65,67,385,420,433
2025-02-20 16:21:43.195,2877.0,-694.0,3284.0,349.0,-605.0,-3.0,88,105,49,66,70,354,380,418
2025-02-20 16:21:43.212,1949.0,433.0,4281.0,141.0,-76.0,-4.0,90,105,51,68,71,558,371,472
2025-02-20 16:21:43.232,1389.0,-104.0,3035.0,-70.0,155.0,-10.0,90,105,51,68,72,662,390,496
2025-02-20 16:21:43.253,772.0,-550.0,2018.0,-65.0,202.0,34.0,89,105,51,68,72,607,408,490
2025-02-20 16:21:43.269,473.0,-558.0,1545.0,-65.0,215.0,61.0,89,106,51,71,72,621,459,480
2025-02-20 16:21:43.290,295.0,-206.0,1396.0,-117.0,241.0,64.0,90,106,51,73,73,494,477,473
2025-02-20 16:21:43.310,92.0,-265.0,1252.0,-151.0,242.0,59.0,92,108,52,72,73,404,492,477
2025-02-20 16:21:43.327,30.0,-510.0,1086.0,-137.0,223.0,70.0,92,107,53,72,72,372,376,479
2025-02-20 16:21:43.347,69.0,-472.0,1060.0,-134.0,222.0,106.0,91,108,52,71,72,320,277,428
2025-02-20 16:21:43.364,56.0,-230.0,1006.0,-152.0,239.0,121.0,93,108,53,72,72,295,287,433
2025-02-20 16:21:43.384,-112.0,-122.0,923.0,-147.0,271.0,85.0,95,108,54,77,72,327,342,438
2025-02-20 16:21:43.404,-280.0,-209.0,635.0,-126.0,278.0,65.0,97,109,55,73,74,317,435,446
2025-02-20 16:21:43.421,-260.0,-275.0,446.0,-111.0,267.0,92.0,96,108,54,76,73,343,498,446
2025-02-20 16:21:43.442,-238.0,-256.0,447.0,-102.0,242.0,111.0,97,110,54,76,73,410,533,445
2025-02-20 16:21:43.462,-395.0,-208.0,243.0,-100.0,219.0,105.0,97,108,54,75,73,444,550,445
2025-02-20 16:21:43.478,-560.0,-188.0,29.0,-68.0,176.0,84.0,101,109,55,75,74,449,549,450
2025-02-20 16:21:43.499,-728.0,-59.0,-149.0,-17.0,118.0,67.0,101,107,55,75,73,458,543,461
2025-02-20 16:21:43.519,-673.0,135.0,-254.0,6.0,55.0,52.0,100,107,55,75,71,512,524,464
2025-02-20 16:21:43.533,-825.0,456.0,-553.0,26.0,-17.0,-6.0,98,105,54,75,71,529,511,465
2025-02-20 16:21:43.552,-1459.0,612.0,-1190.0,154.0,-152.0,-210.0,94,107,54,72,69,514,495,460
2025-02-20 16:21:43.576,-1689.0,929.0,-1969.0,292.0,-533.0,-390.0,88,99,52,69,67,510,483,459
2025-02-20 16:21:43.593,643.0,987.0,-1693.0,240.0,-964.0,-369.0,87,97,52,71,70,489,472,466
2025-02-20 16:21:43.613,3568.0,-1062.0,319.0,137.0,-1068.0,-217.0,89,101,50,76,76,502,445,477
2025-02-20 16:21:43.631,3144.0,-2114.0,3149.0,277.0,-656.0,-43.0,98,106,50,77,79,522,407,485
2025-02-20 16:21:43.650,2233.0,-296.0,4291.0,147.0,-150.0,35.0,99,103,52,73,78,533,334,479
2025-02-20 16:21:43.670,1588.0,-131.0,3356.0,-151.0,189.0,52.0,101,109,53,71,77,434,316,489
2025-02-20 16:21:43.685,864.0,-533.0,1943.0,-232.0,245.0,128.0,110,107,55,73,76,398,419,479
2025-02-20 16:21:43.707,429.0,-470.0,1302.0,-280.0,263.0,169.0,112,110,55,79,76,403,542,458
2025-02-20 16:21:43.728,307.0,-601.0,1010.0,-313.0,275.0,183.0,113,111,56,81,75,376,596,448
2025-02-20 16:21:43.745,167.0,-735.0,792.0,-282.0,275.0,204.0,116,110,56,80,75,543,526,474
2025-02-20 16:21:43.765,86.0,-805.0,692.0,-222.0,281.0,230.0,119,111,57,79,71,518,408,497
2025-02-20 16:21:43.785,-10.0,-655.0,583.0,-196.0,260.0,242.0,123,111,60,80,69,386,423,480
2025-02-20 16:21:43.802,-149.0,-455.0,434.0,-174.0,223.0,229.0,124,110,63,79,69,405,456,465
2025-02-20 16:21:43.822,-207.0,-469.0,472.0,-155.0,223.0,217.0,125,109,68,81,70,415,436,456
2025-02-20 16:21:43.840,-460.0,-454.0,302.0,-65.0,245.0,199.0,126,112,73,82,71,436,446,445
2025-02-20 16:21:43.859,-474.0,-459.0,13.0,68.0,250.0,168.0,126,112,77,82,71,467,514,441
2025-02-20 16:21:43.879,-541.0,-220.0,-135.0,144.0,222.0,139.0,126,113,78,83,72,503,527,445
2025-02-20 16:21:43.896,-617.0,85.0,-140.0,171.0,185.0,125.0,127,114,80,83,73,537,514,448
2025-02-20 16:21:43.916,-700.0,291.0,-340.0,175.0,130.0,90.0,128,113,83,82,73,500,514,448
2025-02-20 16:21:43.932,-990.0,599.0,-731.0,183.0,12.0,12.0,128,112,85,82,73,516,532,453
2025-02-20 16:21:43.952,-1035.0,1127.0,-790.0,191.0,-98.0,-156.0,129,118,89,81,71,506,522,468
2025-02-20 16:21:43.974,-1149.0,1229.0,-992.0,182.0,-271.0,-348.0,131,120,93,82,69,507,524,476
2025-02-20 16:21:43.994,-928.0,1070.0,-855.0,194.0,-498.0,-503.0,124,120,95,82,68,469,471,478
2025-02-20 16:21:44.011,822.0,1088.0,-35.0,80.0,-722.0,-563.0,117,121,99,88,72,434,423,472
2025-02-20 16:21:44.029,1980.0,-367.0,416.0,-169.0,-833.0,-506.0,114,124,101,89,73,470,413,465
2025-02-20 16:21:44.052,2506.0,-2735.0,1241.0,-110.0,-683.0,-202.0,114,126,101,91,74,412,402,473
2025-02-20 16:21:44.068,2862.0,-3036.0,1547.0,11.0,-320.0,23.0,115,128,103,90,73,405,342,470
2025-02-20 16:21:44.088,2162.0,-2076.0,1951.0,96.0,-5.0,93.0,116,128,104,89,71,422,364,476
2025-02-20 16:21:44.105,953.0,-1147.0,1671.0,78.0,176.0,87.0,118,127,104,88,68,381,418,477
2025-02-20 16:21:44.126,413.0,-852.0,1286.0,-29.0,179.0,106.0,117,127,105,87,69,421,507,467
2025-02-20 16:21:44.146,368.0,-1002.0,987.0,-94.0,182.0,145.0,116,127,105,87,72,489,555,460
2025-02-20 16:21:44.163,353.0,-1140.0,729.0,-83.0,184.0,173.0,114,128,104,87,74,470,587,441
2025-02-20 16:21:44.182,245.0,-927.0,498.0,-46.0,190.0,194.0,113,129,105,87,75,491,554,473
2025-02-20 16:21:44.200,32.0,-708.0,560.0,-33.0,194.0,211.0,113,128,105,87,76,583,504,488
2025-02-20 16:21:44.217,-168.0,-403.0,564.0,-70.0,186.0,225.0,112,129,106,86,76,590,455,483
2025-02-20 16:21:44.240,-137.0,-266.0,545.0,-118.0,179.0,244.0,112,129,106,85,74,542,439,472
2025-02-20 16:21:44.260,-140.0,-222.0,513.0,-153.0,176.0,249.0,116,128,105,82,73,502,422,466
2025-02-20 16:21:44.277,-411.0,-278.0,334.0,-131.0,139.0,229.0,114,128,106,81,73,479,488,464
2025-02-20 16:21:44.296,-397.0,-284.0,307.0,-79.0,127.0,176.0,116,128,106,78,72,464,513,461
2025-02-20 16:21:44.314,-480.0,-185.0,197.0,-22.0,135.0,98.0,116,128,105,75,72,473,513,465
2025-02-20 16:21:44.334,-589.0,-145.0,138.0,23.0,115.0,55.0,116,128,105,76,73,502,502,464
2025-02-20 16:21:44.354,-525.0,-76.0,142.0,54.0,101.0,38.0,114,128,105,74,72,516,497,476
2025-02-20 16:21:44.370,-579.0,126.0,47.0,72.0,86.0,24.0,116,128,105,75,72,558,502,482
2025-02-20 16:21:44.391,-915.0,488.0,-342.0,73.0,27.0,-23.0,116,128,105,76,73,541,498,472
2025-02-20 16:21:44.411,-1324.0,664.0,-709.0,149.0,-102.0,-191.0,114,128,105,76,70,492,480,468
2025-02-20 16:21:44.429,-1317.0,947.0,-821.0,303.0,-279.0,-397.0,111,127,107,79,73,462,454,464
2025-02-20 16:21:44.449,-306.0,883.0,-464.0,249.0,-479.0,-546.0,107,126,103,82,75,463,447,465
2025-02-20 16:21:44.469,1458.0,-93.0,402.0,138.0,-607.0,-524.0,107,129,104,89,78,454,437,462
2025-02-20 16:21:44.486,2456.0,-2435.0,1778.0,183.0,-468.0,-350.0,108,129,103,90,80,380,390,446
2025-02-20 16:21:44.506,2464.0,-2283.0,2818.0,199.0,-76.0,-38.0,108,130,101,92,82,370,353,444
2025-02-20 16:21:44.523,1677.0,-1568.0,2696.0,104.0,156.0,54.0,109,130,97,93,80,396,389,451
2025-02-20 16:21:44.541,720.0,-1174.0,1926.0,-6.0,248.0,81.0,110,129,89,93,75,463,475,458
2025-02-20 16:21:44.563,378.0,-1110.0,1295.0,-87.0,269.0,119.0,116,128,76,94,77,535,565,460
2025-02-20 16:21:44.581,127.0,-1177.0,921.0,-103.0,265.0,178.0,122,126,66,95,79,330,534,451
2025-02-20 16:21:44.599,-23.0,-1025.0,938.0,-151.0,255.0,229.0,126,125,62,94,79,310,484,454
2025-02-20 16:21:44.619,72.0,-891.0,869.0,-135.0,265.0,256.0,127,124,56,91,78,337,407,476
2025-02-20 16:21:44.638,-184.0,-787.0,708.0,-51.0,282.0,249.0,128,121,55,89,77,557,353,478
2025-02-20 16:21:44.657,-260.0,-338.0,553.0,-37.0,286.0,240.0,130,118,53,86,73,576,335,478
2025-02-20 16:21:44.678,-297.0,-77.0,457.0,-63.0,293.0,236.0,130,117,53,83,71,521,367,470
2025-02-20 16:21:44.695,-556.0,-64.0,99.0,-61.0,271.0,206.0,130,115,52,79,70,448,425,467
2025-02-20 16:21:44.715,-753.0,-69.0,-172.0,-21.0,217.0,167.0,128,112,51,76,70,424,461,462
2025-02-20 16:21:44.727,-746.0,116.0,-441.0,62.0,149.0,127.0,128,112,52,76,69,447,487,460
2025-02-20 16:21:44.752,-796.0,302.0,-402.0,141.0,92.0,65.0,121,111,51,74,70,458,490,458
2025-02-20 16:21:44.768,-935.0,555.0,-558.0,161.0,-3.0,-16.0,116,109,50,73,70,453,490,455
2025-02-20 16:21:44.789,-1137.0,514.0,-864.0,217.0,-114.0,-117.0,106,104,50,73,69,474,480,449
2025-02-20 16:21:44.808,-1277.0,735.0,-1379.0,256.0,-321.0,-237.0,96,98,49,73,67,498,467,455
2025-02-20 16:21:44.829,-496.0,707.0,-1682.0,239.0,-683.0,-285.0,90,99,49,74,67,521,435,456
2025-02-20 16:21:44.847,1292.0,247.0,-1344.0,250.0,-957.0,-245.0,88,101,49,75,68,517,441,447
2025-02-20 16:21:44.866,2867.0,-626.0,-204.0,271.0,-1006.0,-134.0,91,107,49,75,70,547,424,467
2025-02-20 16:21:44.887,2602.0,-683.0,1805.0,320.0,-808.0,-41.0,97,109,47,75,74,505,417,465
2025-02-20 16:21:44.904,2145.0,-400.0,3258.0,239.0,-387.0,26.0,103,110,48,75,75,523,373,459
2025-02-20 16:21:44.924,1938.0,60.0,3592.0,70.0,-50.0,16.0,105,111,50,76,77,499,360,466
2025-02-20 16:21:44.940,1475.0,-39.0,2786.0,-28.0,177.0,17.0,105,111,50,77,78,444,422,460
2025-02-20 16:21:44.961,943.0,-436.0,1875.0,-54.0,289.0,53.0,106,111,50,79,76,399,512,445
2025-02-20 16:21:44.981,607.0,-308.0,1294.0,-91.0,323.0,97.0,111,111,50,82,78,346,577,447
2025-02-20 16:21:44.999,97.0,136.0,1082.0,-163.0,279.0,80.0,111,112,50,83,80,437,583,463
2025-02-20 16:21:45.019,103.0,-153.0,1049.0,-197.0,229.0,59.0,109,114,51,83,79,542,512,487
2025-02-20 16:21:45.037,313.0,-538.0,1183.0,-183.0,246.0,90.0,108,114,50,82,78,480,455,491
2025-02-20 16:21:45.055,335.0,-571.0,1148.0,-163.0,308.0,137.0,111,114,51,82,78,443,442,473
2025-02-20 16:21:45.073,57.0,-417.0,765.0,-161.0,312.0,174.0,112,116,52,82,78,432,447,468
2025-02-20 16:21:45.095,-321.0,-321.0,631.0,-104.0,263.0,161.0,111,114,51,82,78,410,489,468
2025-02-20 16:21:45.113,-211.0,-240.0,599.0,-71.0,234.0,108.0,108,116,51,82,74,422,515,471
2025-02-20 16:21:45.133,-162.0,-224.0,627.0,-70.0,253.0,99.0,109,116,52,81,75,460,533,470
2025-02-20 16:21:45.152,-266.0,-285.0,469.0,-83.0,251.0,100.0,112,116,51,82,76,470,537,465
2025-02-20 16:21:45.171,-518.0,-320.0,349.0,-80.0,212.0,95.0,115,115,53,79,76,440,535,458
2025-02-20 16:21:45.190,-465.0,-309.0,246.0,-51.0,179.0,91.0,117,117,53,78,76,435,516,465
2025-02-20 16:21:45.208,-586.0,-140.0,100.0,-14.0,150.0,81.0,119,117,54,77,76,470,489,469
2025-02-20 16:21:45.223,-623.0,234.0,-105.0,7.0,101.0,65.0,120,117,54,78,76,483,481,469
2025-02-20 16:21:45.247,-1008.0,796.0,-987.0,50.0,7.0,-32.0,120,117,52,78,76,477,454,461
2025-02-20 16:21:45.264,-1699.0,1058.0,-1660.0,179.0,-247.0,-247.0,118,117,54,78,72,469,422,441
2025-02-20 16:21:45.285,-1223.0,1185.0,-1827.0,255.0,-550.0,-398.0,114,118,53,79,71,443,408,445
2025-02-20 16:21:45.305,978.0,704.0,-1242.0,230.0,-829.0,-383.0,114,118,53,82,73,449,402,453
2025-02-20 16:21:45.321,2758.0,-321.0,-31.0,194.0,-954.0,-291.0,118,118,54,85,79,446,387,467
2025-02-20 16:21:45.342,3019.0,-2056.0,1602.0,305.0,-781.0,-105.0,124,120,52,86,81,508,358,474
2025-02-20 16:21:45.362,2521.0,-963.0,3113.0,293.0,-389.0,42.0,130,122,57,87,86,499,349,470
2025-02-20 16:21:45.379,2067.0,-324.0,3712.0,97.0,-45.0,101.0,132,123,61,89,87,483,374,469
2025-02-20 16:21:45.400,1378.0,-261.0,2729.0,-109.0,200.0,108.0,133,123,64,91,88,443,458,463
2025-02-20 16:21:45.419,900.0,-566.0,1691.0,-176.0,293.0,132.0,133,124,66,96,91,434,530,457
2025-02-20 16:21:45.436,576.0,-818.0,1312.0,-134.0,330.0,154.0,131,122,66,96,93,467,570,457
2025-02-20 16:21:45.456,418.0,-714.0,1109.0,-105.0,333.0,174.0,133,118,66,99,96,544,550,468
2025-02-20 16:21:45.473,208.0,-134.0,1200.0,-146.0,335.0,155.0,135,111,65,100,95,473,463,493
2025-02-20 16:21:45.491,148.0,-258.0,1161.0,-188.0,378.0,140.0,136,101,68,102,94,438,394,491
2025-02-20 16:21:45.513,125.0,-311.0,1084.0,-218.0,404.0,165.0,137,85,65,102,93,459,339,469
2025-02-20 16:21:45.531,120.0,-397.0,816.0,-235.0,419.0,195.0,138,75,63,102,92,488,368,463
2025-02-20 16:21:45.551,-151.0,-367.0,457.0,-226.0,406.0,203.0,137,68,61,100,89,394,439,466
2025-02-20 16:21:45.571,-307.0,-271.0,140.0,-155.0,383.0,189.0,138,59,59,93,83,363,470,459
2025-02-20 16:21:45.588,-666.0,-165.0,-79.0,-65.0,324.0,149.0,136,56,54,86,78,403,491,457
2025-02-20 16:21:45.608,-666.0,200.0,-318.0,-31.0,250.0,88.0,134,56,53,79,72,427,508,460
2025-02-20 16:21:45.625,-630.0,498.0,-542.0,-13.0,151.0,34.0,133,56,52,73,70,438,531,463
2025-02-20 16:21:45.644,-881.0,628.0,-553.0,13.0,52.0,-21.0,127,55,50,68,66,483,525,469
2025-02-20 16:21:45.665,-879.0,1081.0,-952.0,107.0,-61.0,-138.0,116,51,48,67,63,521,506,463
2025-02-20 16:21:45.683,-978.0,1570.0,-1547.0,200.0,-208.0,-328.0,105,52,49,68,60,517,474,461
2025-02-20 16:21:45.702,-953.0,1955.0,-1833.0,230.0,-430.0,-589.0,100,52,48,68,56,492,447,461
2025-02-20 16:21:45.723,237.0,1338.0,-2083.0,152.0,-853.0,-651.0,96,50,48,70,56,477,419,451
2025-02-20 16:21:45.740,3416.0,-687.0,-725.0,64.0,-1074.0,-430.0,101,51,49,72,59,467,396,453
2025-02-20 16:21:45.760,4329.0,-3418.0,2602.0,101.0,-619.0,-127.0,105,53,50,75,62,495,332,463
2025-02-20 16:21:45.780,3427.0,-2347.0,3665.0,148.0,-56.0,-38.0,106,53,50,73,60,561,288,465
2025-02-20 16:21:45.797,1622.0,-1898.0,2637.0,127.0,231.0,-25.0,105,54,50,69,53,476,335,465
2025-02-20 16:21:45.817,750.0,-1275.0,1588.0,-16.0,269.0,53.0,107,55,49,70,55,428,500,464
2025-02-20 16:21:45.837,317.0,-1229.0,933.0,-125.0,215.0,124.0,106,55,51,71,58,438,590,456
2025-02-20 16:21:45.854,217.0,-1306.0,798.0,-159.0,149.0,166.0,107,55,52,74,61,364,620,463
2025-02-20 16:21:45.874,225.0,-1196.0,893.0,-153.0,150.0,197.0,107,54,51,76,64,225,538,470
2025-02-20 16:21:45.891,286.0,-993.0,907.0,-141.0,217.0,216.0,108,55,53,78,67,218,403,493
2025-02-20 16:21:45.909,13.0,-771.0,572.0,-114.0,222.0,217.0,113,57,54,77,67,354,414,509
2025-02-20 16:21:45.931,-287.0,-463.0,546.0,-106.0,183.0,202.0,114,57,53,72,66,395,397,524
2025-02-20 16:21:45.949,-151.0,-216.0,520.0,-141.0,169.0,202.0,115,57,54,72,64,444,404,514
2025-02-20 16:21:45.969,5.0,-395.0,566.0,-157.0,204.0,203.0,115,58,54,72,66,496,474,497
2025-02-20 16:21:45.989,-154.0,-538.0,366.0,-111.0,240.0,198.0,116,58,54,73,67,555,539,482
2025-02-20 16:21:46.006,-564.0,-400.0,-64.0,-27.0,216.0,172.0,117,57,54,72,69,616,556,459
2025-02-20 16:21:46.026,-442.0,-152.0,-45.0,30.0,153.0,149.0,117,58,55,72,70,598,563,445
2025-02-20 16:21:46.042,-561.0,276.0,-254.0,3.0,109.0,129.0,119,58,55,71,70,548,560,455
2025-02-20 16:21:46.063,-728.0,656.0,-473.0,0.0,15.0,79.0,117,59,57,70,69,512,543,460
2025-02-20 16:21:46.079,-1011.0,971.0,-674.0,73.0,-45.0,-31.0,117,58,54,70,69,482,514,462
2025-02-20 16:21:46.102,-1420.0,1630.0,-1334.0,256.0,-158.0,-338.0,112,58,54,70,65,474,467,453
2025-02-20 16:21:46.121,-1118.0,1843.0,-1460.0,303.0,-444.0,-546.0,109,58,53,71,62,483,437,450
2025-02-20 16:21:46.139,434.0,969.0,-1014.0,196.0,-722.0,-588.0,109,55,54,73,65,509,432,446
2025-02-20 16:21:46.158,3054.0,-1256.0,-18.0,156.0,-892.0,-417.0,113,56,53,76,68,530,422,449
2025-02-20 16:21:46.175,3618.0,-3537.0,2739.0,335.0,-557.0,-142.0,118,57,53,77,72,429,407,441
2025-02-20 16:21:46.197,2375.0,-1049.0,3635.0,289.0,-61.0,-38.0,120,54,53,74,69,460,381,437
2025-02-20 16:21:46.213,1054.0,-388.0,2892.0,42.0,203.0,-71.0,121,58,52,71,66,449,403,446
2025-02-20 16:21:46.234,595.0,-834.0,1580.0,-79.0,271.0,5.0,123,59,53,72,68,527,474,449
2025-02-20 16:21:46.255,68.0,-804.0,885.0,-56.0,254.0,22.0,124,60,54,74,70,571,560,440
2025-02-20 16:21:46.272,-166.0,-692.0,474.0,19.0,196.0,-17.0,122,59,52,78,73,505,559,442
2025-02-20 16:21:46.291,-146.0,-804.0,449.0,104.0,145.0,-35.0,124,58,53,79,74,305,477,452
2025-02-20 16:21:46.308,-176.0,-473.0,442.0,148.0,112.0,-47.0,125,57,53,80,76,283,398,469
2025-02-20 16:21:46.328,-118.0,-489.0,645.0,171.0,76.0,-54.0,120,57,53,79,77,444,417,471
2025-02-20 16:21:46.350,-94.0,-317.0,867.0,199.0,72.0,-68.0,129,57,54,76,75,515,411,488
2025-02-20 16:21:46.365,-105.0,-302.0,945.0,238.0,96.0,-86.0,128,57,54,75,75,532,436,486
2025-02-20 16:21:46.387,-191.0,-196.0,864.0,274.0,129.0,-102.0,128,57,53,76,75,522,462,475
2025-02-20 16:21:46.406,-251.0,-64.0,725.0,284.0,122.0,-124.0,128,58,53,76,74,516,555,468
2025-02-20 16:21:46.424,-177.0,-238.0,711.0,266.0,86.0,-110.0,131,58,53,76,74,514,577,470
2025-02-20 16:21:46.442,-15.0,-322.0,775.0,209.0,48.0,-86.0,131,57,53,78,74,518,539,468
2025-02-20 16:21:46.463,238.0,-945.0,944.0,173.0,15.0,-17.0,134,57,52,75,72,508,511,462
2025-02-20 16:21:46.481,642.0,-1257.0,1065.0,121.0,3.0,89.0,136,57,52,75,72,482,473,451
2025-02-20 16:21:46.501,998.0,-1948.0,1300.0,69.0,9.0,315.0,136,56,52,75,71,451,429,438
2025-02-20 16:21:46.515,1339.0,-1995.0,1254.0,2.0,32.0,555.0,139,57,52,74,67,452,401,435
2025-02-20 16:21:46.538,1875.0,-810.0,1307.0,-114.0,-21.0,689.0,140,58,52,72,70,454,408,430
2025-02-20 16:21:46.557,1229.0,261.0,1440.0,-271.0,-55.0,631.0,142,56,53,71,73,404,403,437
2025-02-20 16:21:46.575,1103.0,751.0,1838.0,-286.0,-12.0,530.0,144,57,53,71,75,381,410,445
2025-02-20 16:21:46.594,581.0,1358.0,1647.0,-212.0,43.0,362.0,145,57,51,70,76,438,425,456
2025-02-20 16:21:46.611,-6.0,1812.0,1462.0,-119.0,59.0,236.0,147,57,53,69,75,487,442,457
2025-02-20 16:21:46.631,-169.0,2433.0,1499.0,-108.0,53.0,104.0,149,58,52,68,73,495,458,457
2025-02-20 16:21:46.653,-305.0,2438.0,1500.0,-152.0,83.0,-3.0,148,58,54,69,77,563,465,476
2025-02-20 16:21:46.673,-154.0,1480.0,1339.0,-86.0,117.0,-77.0,146,57,53,70,75,623,446,494
2025-02-20 16:21:46.690,141.0,606.0,1382.0,42.0,173.0,-151.0,149,58,53,70,74,576,433,492
2025-02-20 16:21:46.710,-21.0,470.0,969.0,148.0,171.0,-213.0,151,59,53,69,72,399,458,496
2025-02-20 16:21:46.730,-10.0,252.0,770.0,164.0,139.0,-263.0,150,58,54,69,70,341,495,491
2025-02-20 16:21:46.746,-115.0,141.0,709.0,118.0,91.0,-306.0,150,58,53,70,70,431,491,477
2025-02-20 16:21:46.767,-128.0,-355.0,576.0,136.0,31.0,-323.0,149,56,52,70,69,519,465,464
2025-02-20 16:21:46.784,114.0,-757.0,736.0,247.0,-3.0,-313.0,148,57,52,71,70,487,487,460
2025-02-20 16:21:46.804,-27.0,-572.0,911.0,326.0,-14.0,-245.0,151,57,52,70,71,425,492,460
2025-02-20 16:21:46.825,-166.0,-49.0,1028.0,231.0,-30.0,-245.0,148,56,56,71,71,472,487,463
2025-02-20 16:21:46.841,31.0,-30.0,1147.0,127.0,-36.0,-272.0,150,56,52,70,71,452,458,467
2025-02-20 16:21:46.862,110.0,-640.0,1171.0,112.0,-33.0,-226.0,148,56,52,70,70,432,445,467
2025-02-20 16:21:46.880,122.0,-814.0,1050.0,146.0,-22.0,-126.0,148,57,52,71,71,463,460,459
2025-02-20 16:21:46.897,49.0,-217.0,1115.0,88.0,-37.0,-113.0,147,57,51,70,70,471,518,446
2025-02-20 16:21:46.919,356.0,-983.0,1182.0,44.0,-39.0,-62.0,148,56,52,70,70,433,534,464
2025-02-20 16:21:46.939,611.0,-1522.0,1203.0,84.0,-1.0,57.0,147,57,52,70,69,458,514,473
2025-02-20 16:21:46.956,866.0,-1620.0,1312.0,73.0,21.0,252.0,147,56,50,70,68,458,496,477
2025-02-20 16:21:46.976,1332.0,-1879.0,1326.0,-56.0,55.0,499.0,148,56,52,70,66,454,472,474
2025-02-20 16:21:46.993,1519.0,-657.0,1180.0,-211.0,0.0,676.0,146,57,51,68,66,429,440,477
2025-02-20 16:21:47.013,1322.0,63.0,1516.0,-357.0,-59.0,656.0,145,57,51,67,67,393,432,476
2025-02-20 16:21:47.034,847.0,1096.0,1732.0,-335.0,-8.0,556.0,146,57,52,68,67,387,441,472
2025-02-20 16:21:47.051,229.0,2148.0,1694.0,-242.0,76.0,306.0,143,57,52,66,68,372,452,471
2025-02-20 16:21:47.071,-140.0,2032.0,1882.0,-81.0,104.0,156.0,145,58,52,68,68,382,456,463
2025-02-20 16:21:47.091,-162.0,2399.0,2102.0,-51.0,142.0,40.0,144,58,53,67,67,417,454,456
2025-02-20 16:21:47.108,-273.0,2202.0,1936.0,-123.0,202.0,-45.0,142,58,51,68,68,459,449,457
2025-02-20 16:21:47.127,-166.0,1235.0,1511.0,-153.0,238.0,-120.0,140,59,52,68,67,483,407,457
2025-02-20 16:21:47.148,-9.0,235.0,1274.0,-119.0,276.0,-149.0,138,58,53,69,67,479,368,459
2025-02-20 16:21:47.165,85.0,-640.0,918.0,-87.0,294.0,-111.0,134,58,53,67,68,536,350,468
2025-02-20 16:21:47.183,-78.0,-681.0,800.0,-108.0,276.0,-86.0,135,59,52,69,68,638,411,491
2025-02-20 16:21:47.202,-54.0,-805.0,645.0,-184.0,276.0,-64.0,134,59,54,69,69,674,487,504
2025-02-20 16:21:47.222,-335.0,-991.0,288.0,-191.0,254.0,-36.0,135,60,54,69,70,570,503,506
2025-02-20 16:21:47.242,-333.0,-1129.0,152.0,-106.0,237.0,21.0,135,60,55,71,73,423,495,488
2025-02-20 16:21:47.255,-255.0,-793.0,40.0,-30.0,267.0,50.0,135,61,57,72,76,415,499,486
2025-02-20 16:21:47.279,-326.0,-364.0,161.0,26.0,273.0,49.0,134,67,61,75,81,456,467,497
2025-02-20 16:21:47.299,-929.0,67.0,-144.0,44.0,212.0,15.0,135,67,63,79,89,534,457,503
2025-02-20 16:21:47.316,-727.0,-131.0,104.0,102.0,117.0,-1.0,131,74,67,88,97,541,487,488
2025-02-20 16:21:47.335,-640.0,50.0,-163.0,219.0,89.0,-11.0,129,78,72,93,104,495,504,470
2025-02-20 16:21:47.357,-870.0,206.0,-56.0,162.0,66.0,-64.0,130,86,78,102,108,408,503,452
2025-02-20 16:21:47.374,-775.0,344.0,-361.0,88.0,-19.0,-127.0,131,88,80,107,108,400,523,450
2025-02-20 16:21:47.394,-897.0,335.0,-470.0,47.0,-153.0,-211.0,127,88,81,109,109,414,521,450
2025-02-20 16:21:47.414,-846.0,586.0,-743.0,77.0,-251.0,-315.0,126,90,84,112,113,400,515,449
2025-02-20 16:21:47.432,-983.0,812.0,-764.0,109.0,-331.0,-479.0,128,92,87,114,118,411,515,444
2025-02-20 16:21:47.451,-228.0,547.0,-825.0,70.0,-520.0,-626.0,126,96,90,119,121,343,498,428
2025-02-20 16:21:47.472,1025.0,410.0,-336.0,-78.0,-692.0,-647.0,128,101,91,123,123,323,475,427
2025-02-20 16:21:47.489,2137.0,-883.0,-23.0,-200.0,-905.0,-429.0,132,108,92,125,125,378,399,432
2025-02-20 16:21:47.509,3580.0,-2269.0,755.0,-190.0,-766.0,-157.0,134,112,96,127,125,503,251,435
2025-02-20 16:21:47.526,3361.0,-3539.0,1408.0,-131.0,-353.0,98.0,136,114,95,129,126,545,237,443
2025-02-20 16:21:47.546,2591.0,-2716.0,1238.0,62.0,-12.0,148.0,136,115,96,129,127,497,345,442
2025-02-20 16:21:47.566,1256.0,-1794.0,921.0,103.0,158.0,105.0,138,113,96,130,126,516,459,438
2025-02-20 16:21:47.582,594.0,-1255.0,674.0,109.0,236.0,145.0,136,110,97,130,126,539,502,434
2025-02-20 16:21:47.602,352.0,-1076.0,466.0,32.0,204.0,201.0,137,108,97,131,126,527,522,441
2025-02-20 16:21:47.623,272.0,-885.0,513.0,9.0,184.0,207.0,136,110,97,130,126,423,532,449
2025-02-20 16:21:47.640,214.0,-812.0,380.0,-66.0,153.0,196.0,134,110,97,131,126,297,494,464
2025-02-20 16:21:47.659,136.0,-1027.0,391.0,-52.0,167.0,219.0,132,113,97,131,127,206,502,474
2025-02-20 16:21:47.680,189.0,-1013.0,450.0,-23.0,163.0,240.0,131,113,97,132,129,239,522,487
2025-02-20 16:21:47.697,153.0,-730.0,442.0,-25.0,197.0,240.0,132,113,98,131,128,353,500,486
2025-02-20 16:21:47.717,-11.0,-457.0,585.0,-75.0,183.0,233.0,131,113,97,131,129,501,499,484
2025-02-20 16:21:47.735,-129.0,-425.0,349.0,-125.0,171.0,227.0,132,114,97,131,128,605,517,481
2025-02-20 16:21:47.755,-164.0,-292.0,440.0,-131.0,159.0,229.0,132,112,96,131,128,670,557,471
2025-02-20 16:21:47.774,-301.0,-312.0,278.0,-60.0,150.0,231.0,134,111,97,131,128,695,538,463
2025-02-20 16:21:47.786,-218.0,-142.0,319.0,75.0,139.0,232.0,132,108,97,130,128,739,505,467
2025-02-20 16:21:47.812,-430.0,-14.0,270.0,189.0,159.0,202.0,133,105,97,129,128,677,519,476
2025-02-20 16:21:47.830,-640.0,357.0,-164.0,362.0,139.0,159.0,134,104,96,129,128,623,522,485
2025-02-20 16:21:47.847,-983.0,1341.0,-710.0,418.0,37.0,7.0,133,102,95,130,128,596,468,490
2025-02-20 16:21:47.868,-1177.0,1305.0,-950.0,272.0,-109.0,-229.0,133,104,95,130,127,519,442,507
2025-02-20 16:21:47.890,-1271.0,1086.0,-761.0,256.0,-244.0,-506.0,134,108,95,128,128,469,460,494
2025-02-20 16:21:47.907,-540.0,1011.0,-776.0,196.0,-490.0,-611.0,128,110,98,131,128,481,449,479
2025-02-20 16:21:47.926,1567.0,73.0,392.0,-95.0,-825.0,-462.0,125,113,98,131,128,479,432,466
2025-02-20 16:21:47.944,2831.0,-1884.0,1360.0,-210.0,-800.0,-235.0,126,118,98,131,128,428,376,461
2025-02-20 16:21:47.964,2877.0,-3277.0,1294.0,-178.0,-508.0,-132.0,129,119,101,132,129,433,357,431
2025-02-20 16:21:47.982,2007.0,-3249.0,1420.0,55.0,-174.0,11.0,132,117,100,132,130,410,378,433
2025-02-20 16:21:48.000,1248.0,-1847.0,1276.0,171.0,97.0,32.0,134,114,99,133,126,338,407,443
2025-02-20 16:21:48.021,416.0,-688.0,1150.0,121.0,205.0,-3.0,135,108,96,132,123,286,458,449
2025-02-20 16:21:48.040,105.0,-490.0,891.0,49.0,179.0,10.0,138,104,95,130,118,262,551,431
2025-02-20 16:21:48.058,42.0,-742.0,781.0,42.0,206.0,24.0,138,101,94,132,117,266,552,421
2025-02-20 16:21:48.078,41.0,-586.0,770.0,42.0,119.0,33.0,138,105,93,131,114,342,492,444
2025-02-20 16:21:48.096,25.0,-588.0,686.0,31.0,152.0,20.0,138,107,90,126,111,402,420,459
2025-02-20 16:21:48.115,405.0,-488.0,1294.0,61.0,192.0,-4.0,137,105,88,121,106,449,399,468
2025-02-20 16:21:48.135,-137.0,-534.0,760.0,106.0,200.0,2.0,138,99,82,119,96,544,374,482
2025-02-20 16:21:48.152,-182.0,-406.0,634.0,127.0,189.0,5.0,138,95,81,118,87,636,376,485
2025-02-20 16:21:48.172,-188.0,-322.0,671.0,133.0,184.0,-10.0,138,90,81,116,81,646,453,477
2025-02-20 16:21:48.192,-203.0,-341.0,484.0,160.0,164.0,-30.0,139,85,80,116,74,611,509,479
2025-02-20 16:21:48.210,-218.0,-154.0,415.0,195.0,140.0,-46.0,137,79,76,118,70,598,497,479
2025-02-20 16:21:48.230,-120.0,-726.0,492.0,296.0,129.0,-56.0,138,77,72,113,67,608,494,469
2025-02-20 16:21:48.248,-119.0,-701.0,437.0,386.0,96.0,-70.0,137,69,66,102,62,568,493,457
2025-02-20 16:21:48.266,119.0,-952.0,663.0,413.0,68.0,-52.0,139,64,62,94,59,559,489,442
2025-02-20 16:21:48.287,470.0,-1480.0,1007.0,370.0,73.0,73.0,139,61,58,86,56,566,473,427
2025-02-20 16:21:48.307,903.0,-1678.0,1351.0,243.0,75.0,258.0,141,57,54,76,53,538,461,416
2025-02-20 16:21:48.325,1408.0,-1858.0,1642.0,29.0,66.0,495.0,141,54,52,69,51,497,447,417
2025-02-20 16:21:48.344,1878.0,-938.0,1612.0,-128.0,44.0,714.0,142,54,51,66,50,432,425,432
2025-02-20 16:21:48.362,1465.0,460.0,1726.0,-277.0,3.0,703.0,144,54,51,66,50,353,410,453
2025-02-20 16:21:48.381,664.0,2053.0,1784.0,-219.0,83.0,466.0,144,56,50,66,50,281,407,463
2025-02-20 16:21:48.402,-122.0,2778.0,1143.0,-149.0,163.0,236.0,147,56,51,67,51,286,428,466
2025-02-20 16:21:48.419,-633.0,2747.0,973.0,-148.0,109.0,102.0,148,55,52,68,51,331,474,465
2025-02-20 16:21:48.438,-548.0,2430.0,1290.0,-93.0,88.0,-4.0,147,57,53,69,52,344,511,461
2025-02-20 16:21:48.458,-375.0,2033.0,1230.0,-62.0,104.0,-97.0,149,58,54,69,52,387,525,479
2025-02-20 16:21:48.476,-317.0,1223.0,1117.0,-76.0,108.0,-173.0,148,57,55,70,54,404,517,508
2025-02-20 16:21:48.496,-103.0,503.0,966.0,-87.0,113.0,-212.0,149,59,55,70,54,423,499,517
2025-02-20 16:21:48.516,-164.0,133.0,801.0,-76.0,103.0,-274.0,148,59,54,71,54,487,481,512
2025-02-20 16:21:48.533,-62.0,-186.0,714.0,-53.0,96.0,-315.0,148,59,56,71,54,579,456,502
2025-02-20 16:21:48.553,-176.0,-422.0,540.0,-19.0,72.0,-347.0,148,58,55,70,54,573,435,484
2025-02-20 16:21:48.570,-57.0,-921.0,510.0,36.0,37.0,-313.0,148,59,54,70,55,506,432,475
2025-02-20 16:21:48.590,-15.0,-1091.0,633.0,78.0,26.0,-247.0,150,58,54,70,55,498,426,473
2025-02-20 16:21:48.610,-127.0,-858.0,652.0,104.0,17.0,-229.0,148,58,55,70,56,456,466,461
2025-02-20 16:21:48.628,-230.0,-799.0,596.0,128.0,-15.0,-213.0,148,58,54,72,57,423,506,453
2025-02-20 16:21:48.648,-121.0,-765.0,717.0,156.0,-43.0,-191.0,147,58,54,72,58,397,530,454
2025-02-20 16:21:48.668,-29.0,-540.0,879.0,162.0,-35.0,-161.0,148,58,55,74,59,392,517,453
2025-02-20 16:21:48.684,-72.0,-665.0,903.0,135.0,-31.0,-129.0,147,59,55,74,60,393,518,451
2025-02-20 16:21:48.705,86.0,-786.0,888.0,132.0,-44.0,-85.0,149,59,55,75,62,388,519,446
2025-02-20 16:21:48.725,376.0,-1089.0,943.0,128.0,-29.0,-24.0,148,59,55,75,62,397,519,443
2025-02-20 16:21:48.742,776.0,-1894.0,1135.0,141.0,21.0,132.0,149,59,55,76,62,432,501,444
2025-02-20 16:21:48.762,1045.0,-1772.0,1049.0,56.0,45.0,297.0,149,59,55,75,61,449,473,447
2025-02-20 16:21:48.782,1381.0,-2041.0,931.0,-44.0,39.0,583.0,148,58,54,73,59,439,448,453
2025-02-20 16:21:48.799,1788.0,-1151.0,973.0,-163.0,-40.0,765.0,149,58,54,73,58,437,453,464
2025-02-20 16:21:48.818,1149.0,1019.0,1577.0,-343.0,-148.0,731.0,147,59,55,72,58,428,470,461
2025-02-20 16:21:48.835,-78.0,2411.0,2055.0,-397.0,-104.0,477.0,146,60,55,72,59,484,463,460
2025-02-20 16:21:48.857,-411.0,2994.0,2343.0,-214.0,21.0,124.0,146,61,56,74,59,420,439,455
2025-02-20 16:21:48.877,-200.0,1541.0,2513.0,-30.0,160.0,46.0,144,61,57,75,60,374,417,446
2025-02-20 16:21:48.891,-496.0,1847.0,2295.0,39.0,244.0,-50.0,143,65,60,77,62,417,393,455
2025-02-20 16:21:48.913,-221.0,1227.0,2036.0,-77.0,318.0,-132.0,143,68,65,81,64,432,386,468
2025-02-20 16:21:48.934,106.0,233.0,1371.0,-191.0,366.0,-152.0,144,74,70,86,67,460,360,494
2025-02-20 16:21:48.950,186.0,-807.0,428.0,-195.0,337.0,-132.0,141,76,75,87,69,459,334,526
2025-02-20 16:21:48.971,-152.0,-1434.0,114.0,-155.0,268.0,-64.0,143,83,78,87,67,431,375,526
2025-02-20 16:21:48.991,-256.0,-1040.0,200.0,-123.0,254.0,-38.0,141,91,82,90,68,405,433,511
2025-02-20 16:21:49.007,-200.0,-667.0,259.0,-112.0,254.0,-30.0,140,97,83,89,67,452,490,490
2025-02-20 16:21:49.028,-508.0,-774.0,-91.0,-45.0,242.0,-25.0,141,99,83,88,66,431,505,495
2025-02-20 16:21:49.045,-688.0,-733.0,-201.0,18.0,197.0,10.0,141,103,85,89,66,393,497,529
2025-02-20 16:21:49.065,-655.0,-542.0,-73.0,64.0,157.0,28.0,141,107,85,91,67,511,513,507
2025-02-20 16:21:49.085,-637.0,-45.0,-174.0,99.0,144.0,29.0,140,109,88,90,68,552,522,483
2025-02-20 16:21:49.103,-709.0,343.0,-325.0,110.0,118.0,-8.0,141,110,89,92,67,519,515,467
2025-02-20 16:21:49.123,-788.0,589.0,-577.0,130.0,71.0,-58.0,141,110,90,93,69,560,490,450
2025-02-20 16:21:49.143,-1077.0,779.0,-850.0,138.0,-32.0,-154.0,140,110,89,93,70,611,471,429
2025-02-20 16:21:49.159,-1199.0,1077.0,-988.0,155.0,-213.0,-291.0,140,112,92,93,70,617,474,424
2025-02-20 16:21:49.180,-1011.0,1007.0,-910.0,187.0,-384.0,-507.0,139,111,92,95,72,573,459,427
2025-02-20 16:21:49.200,526.0,957.0,-636.0,175.0,-627.0,-622.0,138,114,95,97,75,501,457,433
2025-02-20 16:21:49.217,1880.0,172.0,433.0,-1.0,-731.0,-602.0,136,117,97,98,76,525,438,440
2025-02-20 16:21:49.237,2594.0,-2289.0,1070.0,-71.0,-723.0,-390.0,135,122,99,98,77,313,405,455
2025-02-20 16:21:49.257,2816.0,-2877.0,1627.0,-40.0,-486.0,-107.0,133,125,100,98,77,331,397,455
2025-02-20 16:21:49.273,2624.0,-2642.0,1376.0,2.0,-227.0,117.0,133,125,100,99,73,441,421,446
2025-02-20 16:21:49.294,1530.0,-1933.0,1596.0,-2.0,13.0,158.0,133,125,101,99,69,460,441,447
2025-02-20 16:21:49.309,787.0,-1254.0,1072.0,-4.0,111.0,148.0,134,125,101,98,66,392,475,447
2025-02-20 16:21:49.332,340.0,-1070.0,837.0,-6.0,136.0,133.0,133,124,102,97,67,375,497,441
2025-02-20 16:21:49.351,247.0,-999.0,687.0,-5.0,139.0,138.0,132,125,102,94,70,371,500,444
2025-02-20 16:21:49.368,183.0,-885.0,667.0,-14.0,146.0,157.0,131,126,102,92,69,435,464,455
2025-02-20 16:21:49.389,169.0,-822.0,574.0,-22.0,159.0,177.0,131,126,103,92,70,434,442,464
2025-02-20 16:21:49.406,128.0,-795.0,588.0,-3.0,171.0,190.0,132,127,103,93,71,394,475,461
2025-02-20 16:21:49.424,95.0,-664.0,579.0,-7.0,186.0,197.0,132,127,103,93,70,427,481,466
2025-02-20 16:21:49.446,107.0,-615.0,525.0,-26.0,202.0,228.0,132,128,103,92,68,476,480,467
2025-02-20 16:21:49.466,98.0,-567.0,504.0,-41.0,211.0,261.0,132,126,103,93,67,537,536,461
2025-02-20 16:21:49.483,-187.0,-426.0,441.0,-37.0,197.0,269.0,133,124,103,92,66,572,560,458
2025-02-20 16:21:49.503,-288.0,-372.0,466.0,-67.0,180.0,248.0,133,125,102,91,65,581,565,456
2025-02-20 16:21:49.520,-339.0,-440.0,365.0,-25.0,189.0,210.0,132,125,103,89,66,586,555,458
2025-02-20 16:21:49.540,-444.0,-184.0,120.0,67.0,184.0,173.0,135,125,103,89,67,581,543,462
2025-02-20 16:21:49.556,-837.0,510.0,-108.0,90.0,138.0,120.0,134,124,103,89,69,564,522,464
2025-02-20 16:21:49.577,-1120.0,1036.0,-550.0,38.0,34.0,14.0,133,124,103,87,69,555,478,476
2025-02-20 16:21:49.597,-1146.0,898.0,-679.0,23.0,-103.0,-126.0,135,126,103,86,70,642,431,472
2025-02-20 16:21:49.618,-1199.0,652.0,-847.0,90.0,-237.0,-219.0,134,126,104,86,71,661,400,455
2025-02-20 16:21:49.635,-1196.0,916.0,-729.0,239.0,-425.0,-385.0,133,127,105,86,70,644,389,458
2025-02-20 16:21:49.654,142.0,1166.0,-634.0,204.0,-654.0,-550.0,130,128,105,90,74,606,374,461
2025-02-20 16:21:49.673,2105.0,363.0,95.0,7.0,-795.0,-580.0,128,127,105,92,78,487,355,468
2025-02-20 16:21:49.692,3354.0,-2778.0,1331.0,-27.0,-661.0,-426.0,130,129,105,96,82,428,378,478
2025-02-20 16:21:49.713,3163.0,-3271.0,2198.0,98.0,-242.0,-81.0,133,128,104,98,85,342,422,475
2025-02-20 16:21:49.733,2158.0,-1978.0,2212.0,61.0,88.0,150.0,133,129,105,99,83,338,462,471
2025-02-20 16:21:49.749,893.0,-1042.0,1451.0,-41.0,171.0,140.0,133,128,106,98,77,346,499,467
2025-02-20 16:21:49.770,205.0,-824.0,970.0,-64.0,161.0,123.0,133,126,105,97,77,300,546,458
2025-02-20 16:21:49.786,72.0,-786.0,884.0,7.0,174.0,108.0,131,124,105,100,79,282,577,435
2025-02-20 16:21:49.806,77.0,-628.0,692.0,72.0,179.0,74.0,132,123,101,101,81,427,528,437
2025-02-20 16:21:49.827,-121.0,-234.0,734.0,118.0,174.0,24.0,133,122,100,105,82,456,443,462
2025-02-20 16:21:49.843,-175.0,-218.0,958.0,136.0,205.0,-26.0,134,119,97,108,82,527,403,512
2025-02-20 16:21:49.864,-120.0,-489.0,1010.0,170.0,274.0,-26.0,135,111,92,108,82,540,391,499
2025-02-20 16:21:49.884,-26.0,-327.0,926.0,210.0,312.0,-10.0,136,96,81,108,78,490,388,479
2025-02-20 16:21:49.901,-187.0,-342.0,780.0,272.0,333.0,-26.0,137,86,77,106,70,459,411,466
2025-02-20 16:21:49.921,-119.0,-391.0,548.0,302.0,319.0,-34.0,137,79,73,102,66,463,466,464
2025-02-20 16:21:49.939,-265.0,-380.0,580.0,281.0,276.0,-39.0,137,74,66,97,64,474,485,463
2025-02-20 16:21:49.958,-435.0,-538.0,129.0,257.0,165.0,-33.0,136,70,64,93,62,429,453,464
2025-02-20 16:21:49.978,-500.0,-580.0,188.0,243.0,50.0,-16.0,136,66,61,89,59,445,436,468
2025-02-20 16:21:49.995,-411.0,-574.0,420.0,180.0,-51.0,26.0,137,64,60,87,59,471,420,465
2025-02-20 16:21:50.015,-104.0,-776.0,769.0,115.0,-94.0,78.0,137,65,59,86,58,446,425,431
2025-02-20 16:21:50.036,126.0,-1325.0,1018.0,76.0,-106.0,196.0,136,64,59,84,58,414,425,424
2025-02-20 16:21:50.053,598.0,-1504.0,1219.0,6.0,-98.0,367.0,137,65,58,83,56,477,424,441
2025-02-20 16:21:50.073,912.0,-1206.0,1369.0,-54.0,-121.0,509.0,138,65,58,82,56,464,429,450
2025-02-20 16:21:50.093,1044.0,-593.0,1845.0,-167.0,-154.0,551.0,140,67,59,82,57,435,440,456
2025-02-20 16:21:50.109,879.0,-168.0,2135.0,-260.0,-114.0,511.0,142,68,59,81,59,440,461,470
2025-02-20 16:21:50.127,436.0,767.0,2006.0,-220.0,6.0,333.0,143,69,60,81,59,418,492,489
2025-02-20 16:21:50.144,357.0,915.0,1511.0,-196.0,76.0,249.0,143,69,59,81,60,402,492,469
2025-02-20 16:21:50.167,-267.0,2053.0,1042.0,-251.0,44.0,170.0,143,69,58,80,59,367,485,444
2025-02-20 16:21:50.187,-321.0,2283.0,1078.0,-293.0,16.0,81.0,144,69,58,79,59,369,486,439
2025-02-20 16:21:50.205,-184.0,1874.0,1341.0,-239.0,43.0,-20.0,144,70,59,79,59,429,475,469
2025-02-20 16:21:50.223,-203.0,1091.0,1321.0,-109.0,101.0,-112.0,145,71,59,80,59,461,457,493
2025-02-20 16:21:50.243,-167.0,529.0,1041.0,65.0,146.0,-179.0,141,71,59,80,59,446,425,504
2025-02-20 16:21:50.260,-54.0,158.0,827.0,157.0,148.0,-245.0,145,69,59,79,59,391,425,506
2025-02-20 16:21:50.281,90.0,6.0,768.0,172.0,122.0,-267.0,146,69,58,80,59,404,437,503
2025-02-20 16:21:50.302,-12.0,-531.0,775.0,152.0,80.0,-241.0,146,67,59,78,60,503,462,494
2025-02-20 16:21:50.319,13.0,-988.0,928.0,149.0,39.0,-187.0,146,67,59,77,60,482,478,483
2025-02-20 16:21:50.339,-26.0,-888.0,1045.0,176.0,42.0,-184.0,146,66,58,78,60,441,481,478
2025-02-20 16:21:50.359,-8.0,-948.0,1128.0,187.0,70.0,-157.0,146,67,59,78,59,423,492,480
2025-02-20 16:21:50.376,-129.0,-823.0,991.0,196.0,75.0,-107.0,147,67,59,79,61,495,502,494
2025-02-20 16:21:50.395,-348.0,-543.0,949.0,161.0,44.0,-64.0,146,66,58,79,59,534,494,491
2025-02-20 16:21:50.413,-352.0,-339.0,941.0,139.0,34.0,-71.0,146,62,60,79,60,499,501,475
2025-02-20 16:21:50.433,-304.0,-454.0,946.0,135.0,51.0,-75.0,145,67,59,80,60,496,519,465
2025-02-20 16:21:50.453,-233.0,-633.0,874.0,134.0,49.0,-36.0,146,68,60,80,61,511,503,467
2025-02-20 16:21:50.466,-148.0,-988.0,859.0,91.0,21.0,57.0,144,65,57,77,58,473,466,474
2025-02-20 16:21:50.490,293.0,-1442.0,858.0,3.0,-18.0,220.0,145,65,57,77,60,465,455,478
2025-02-20 16:21:50.510,474.0,-1727.0,1026.0,-106.0,-66.0,376.0,145,67,59,79,60,445,449,477
2025-02-20 16:21:50.528,1074.0,-1607.0,1434.0,-175.0,-42.0,509.0,146,67,60,80,59,474,454,474
2025-02-20 16:21:50.548,583.0,-41.0,1429.0,-165.0,13.0,496.0,147,69,61,78,61,479,451,473
2025-02-20 16:21:50.568,-19.0,1758.0,1165.0,-150.0,31.0,276.0,148,69,59,79,59,439,448,468
2025-02-20 16:21:50.585,-279.0,1883.0,923.0,-157.0,20.0,189.0,147,70,60,79,60,430,455,462
2025-02-20 16:21:50.606,-539.0,2344.0,1090.0,-89.0,-17.0,88.0,147,70,60,78,61,408,460,452
2025-02-20 16:21:50.622,-464.0,2512.0,1653.0,-75.0,-4.0,-59.0,147,70,59,81,62,477,457,443
2025-02-20 16:21:50.642,-127.0,1582.0,2164.0,-132.0,83.0,-129.0,148,72,63,81,63,530,436,439
2025-02-20 16:21:50.660,-34.0,428.0,1952.0,-207.0,171.0,-151.0,147,73,63,82,64,496,399,445
2025-02-20 16:21:50.680,-102.0,-304.0,1617.0,-280.0,221.0,-149.0,148,74,64,82,64,557,389,458
2025-02-20 16:21:50.700,-5.0,-793.0,1435.0,-336.0,253.0,-118.0,148,72,64,83,65,566,387,471
2025-02-20 16:21:50.720,110.0,-934.0,1012.0,-333.0,315.0,-86.0,147,72,63,82,65,523,408,471
2025-02-20 16:21:50.737,-180.0,-843.0,297.0,-302.0,320.0,-57.0,146,73,65,81,66,315,422,482
2025-02-20 16:21:50.757,-502.0,-631.0,-128.0,-271.0,254.0,-50.0,145,74,65,81,66,256,411,506
2025-02-20 16:21:50.777,-602.0,-584.0,-392.0,-215.0,169.0,-46.0,147,76,65,82,68,304,454,520
2025-02-20 16:21:50.793,-359.0,-1029.0,140.0,-210.0,166.0,-6.0,146,72,65,83,67,406,509,517
2025-02-20 16:21:50.814,-250.0,-1037.0,29.0,-100.0,208.0,43.0,144,69,65,85,69,486,544,502
2025-02-20 16:21:50.831,-480.0,-522.0,31.0,-29.0,231.0,55.0,143,67,65,86,68,627,551,481
2025-02-20 16:21:50.852,-711.0,127.0,-187.0,42.0,188.0,76.0,142,67,65,86,70,677,556,464
2025-02-20 16:21:50.871,-875.0,775.0,-292.0,92.0,135.0,68.0,142,65,63,86,69,668,564,441
2025-02-20 16:21:50.888,-906.0,1222.0,-455.0,132.0,93.0,-36.0,140,65,59,82,67,582,520,432
2025-02-20 16:21:50.908,-930.0,1743.0,-827.0,241.0,41.0,-193.0,137,63,58,79,61,494,492,428
2025-02-20 16:21:50.927,-1126.0,2123.0,-1559.0,269.0,-127.0,-487.0,124,60,56,79,59,478,487,430
2025-02-20 16:21:50.944,-76.0,1458.0,-1796.0,305.0,-477.0,-689.0,112,57,53,81,58,485,479,433
2025-02-20 16:21:50.963,1369.0,-200.0,-1196.0,195.0,-796.0,-655.0,106,55,49,80,60,387,440,434
2025-02-20 16:21:50.986,4479.0,-2406.0,1272.0,186.0,-800.0,-373.0,113,57,50,81,62,445,405,439
2025-02-20 16:21:51.003,4138.0,-4434.0,3593.0,281.0,-235.0,-26.0,114,58,50,79,62,346,369,451
2025-02-20 16:21:51.023,1812.0,-1875.0,2663.0,252.0,143.0,47.0,115,58,49,72,57,296,377,437
2025-02-20 16:21:51.043,659.0,-1127.0,1705.0,37.0,167.0,71.0,113,57,52,71,56,421,430,434
2025-02-20 16:21:51.061,392.0,-1232.0,1214.0,-144.0,163.0,154.0,115,58,51,73,58,452,497,429
2025-02-20 16:21:51.081,184.0,-1333.0,865.0,-165.0,134.0,179.0,116,59,53,78,61,358,504,431
2025-02-20 16:21:51.096,45.0,-1182.0,693.0,-103.0,113.0,175.0,116,58,54,81,62,152,459,415
2025-02-20 16:21:51.115,107.0,-959.0,765.0,-70.0,148.0,192.0,117,59,55,82,63,145,325,435
2025-02-20 16:21:51.138,-27.0,-608.0,691.0,-88.0,175.0,197.0,118,59,55,81,63,394,317,473
2025-02-20 16:21:51.155,-332.0,-328.0,462.0,-121.0,163.0,187.0,120,60,56,77,62,517,372,498
2025-02-20 16:21:51.175,-306.0,-294.0,518.0,-161.0,138.0,188.0,122,61,55,75,62,476,399,500
2025-02-20 16:21:51.195,-305.0,-292.0,461.0,-177.0,132.0,181.0,123,61,55,76,62,431,490,508
2025-02-20 16:21:51.212,-229.0,-510.0,463.0,-131.0,155.0,183.0,123,61,56,76,61,494,548,514
2025-02-20 16:21:51.232,-107.0,-518.0,401.0,-73.0,196.0,209.0,125,63,58,75,62,501,572,481
2025-02-20 16:21:51.252,-505.0,-352.0,69.0,10.0,189.0,222.0,125,63,59,74,62,548,591,460
2025-02-20 16:21:51.266,-646.0,230.0,-61.0,44.0,127.0,223.0,126,63,59,73,61,624,603,483
2025-02-20 16:21:51.290,-844.0,1095.0,-141.0,9.0,55.0,137.0,126,63,59,73,62,640,554,486
2025-02-20 16:21:51.307,-934.0,1329.0,-195.0,78.0,30.0,-10.0,124,62,59,72,62,704,524,477
2025-02-20 16:21:51.326,-1206.0,1756.0,-670.0,262.0,20.0,-268.0,122,63,59,76,60,683,493,466
2025-02-20 16:21:51.347,-1555.0,2295.0,-1025.0,314.0,-163.0,-538.0,118,62,59,75,57,635,459,451
2025-02-20 16:21:51.363,-724.0,1486.0,-1323.0,207.0,-541.0,-744.0,114,60,57,77,58,558,445,442
2025-02-20 16:21:51.384,2854.0,-1159.0,-851.0,94.0,-897.0,-627.0,118,60,56,81,60,520,393,441
2025-02-20 16:21:51.404,4453.0,-4433.0,2124.0,315.0,-664.0,-233.0,125,63,56,83,62,496,357,436
2025-02-20 16:21:51.421,3291.0,-2460.0,3000.0,363.0,-12.0,77.0,126,64,58,77,61,560,382,432
2025-02-20 16:21:51.441,908.0,-332.0,2390.0,108.0,97.0,20.0,128,64,58,77,56,452,474,454
2025-02-20 16:21:51.461,499.0,-1436.0,1567.0,-51.0,120.0,99.0,128,64,58,78,56,511,535,462
2025-02-20 16:21:51.478,361.0,-1788.0,1027.0,16.0,169.0,173.0,129,65,59,80,60,541,629,463
2025-02-20 16:21:51.498,136.0,-1605.0,583.0,114.0,191.0,231.0,130,66,58,80,64,521,639,461
2025-02-20 16:21:51.515,-101.0,-748.0,288.0,125.0,153.0,291.0,130,63,58,82,65,325,543,444
2025-02-20 16:21:51.533,-190.0,-115.0,322.0,-5.0,97.0,284.0,130,63,58,83,70,293,439,460
2025-02-20 16:21:51.555,-201.0,-349.0,338.0,-54.0,34.0,249.0,131,63,58,85,73,401,419,484
2025-02-20 16:21:51.572,-91.0,-429.0,428.0,-82.0,-33.0,244.0,132,64,59,87,74,466,411,481
2025-02-20 16:21:51.593,-212.0,-394.0,601.0,-69.0,-74.0,234.0,132,65,58,93,74,492,394,477
2025-02-20 16:21:51.613,-136.0,-240.0,438.0,-45.0,-77.0,239.0,132,66,60,96,83,477,410,472
2025-02-20 16:21:51.630,-344.0,303.0,593.0,-62.0,-62.0,196.0,134,67,60,94,101,481,472,460
2025-02-20 16:21:51.649,-290.0,-74.0,1007.0,10.0,-106.0,91.0,133,67,60,93,106,461,450,465
2025-02-20 16:21:51.670,-255.0,435.0,858.0,34.0,-79.0,60.0,134,67,64,95,109,495,444,471
2025-02-20 16:21:51.685,-473.0,1255.0,1293.0,94.0,-51.0,-61.0,135,70,65,96,115,462,458,471
2025-02-20 16:21:51.707,-813.0,1661.0,1284.0,169.0,-24.0,-226.0,136,72,68,99,119,414,457,464
2025-02-20 16:21:51.727,-595.0,1687.0,1228.0,253.0,-11.0,-418.0,135,73,69,105,121,402,462,461
2025-02-20 16:21:51.745,-48.0,915.0,1238.0,340.0,15.0,-477.0,136,71,70,105,123,457,464,463
2025-02-20 16:21:51.765,486.0,175.0,1465.0,415.0,88.0,-506.0,136,72,72,108,123,546,422,465
2025-02-20 16:21:51.784,858.0,-252.0,1462.0,417.0,102.0,-525.0,137,72,73,113,124,621,384,473
2025-02-20 16:21:51.802,995.0,-1026.0,1803.0,292.0,71.0,-409.0,138,73,75,115,121,605,378,484
2025-02-20 16:21:51.821,1076.0,-1798.0,1803.0,196.0,46.0,-160.0,138,71,75,116,121,524,421,476
2025-02-20 16:21:51.834,978.0,-1432.0,1846.0,-30.0,8.0,28.0,139,71,77,117,122,446,454,456
2025-02-20 16:21:51.859,451.0,-874.0,1418.0,-109.0,5.0,147.0,139,72,77,116,122,418,452,441
2025-02-20 16:21:51.879,332.0,-1184.0,1208.0,-127.0,19.0,225.0,138,72,77,117,123,399,431,425
2025-02-20 16:21:51.896,56.0,-811.0,961.0,-89.0,-6.0,308.0,137,72,78,115,122,325,493,463
2025-02-20 16:21:51.915,162.0,-525.0,1042.0,-73.0,-31.0,385.0,136,73,79,115,122,239,535,435
2025-02-20 16:21:51.936,161.0,153.0,1121.0,-99.0,-39.0,383.0,137,73,79,116,123,272,521,438
2025-02-20 16:21:51.952,-180.0,536.0,1325.0,-142.0,-29.0,265.0,137,74,78,112,125,348,502,447
2025-02-20 16:21:51.973,-217.0,427.0,1468.0,-87.0,40.0,181.0,139,75,78,108,127,424,502,470
2025-02-20 16:21:51.991,-252.0,384.0,1249.0,-54.0,80.0,123.0,138,76,78,109,127,484,488,487
2025-02-20 16:21:52.006,-275.0,341.0,1083.0,-34.0,105.0,112.0,138,77,79,110,128,498,480,477
2025-02-20 16:21:52.030,-411.0,427.0,829.0,-42.0,97.0,87.0,139,76,79,110,127,473,491,461
2025-02-20 16:21:52.047,-456.0,420.0,691.0,-38.0,87.0,52.0,139,77,79,109,128,445,491,452
2025-02-20 16:21:52.068,-441.0,397.0,593.0,-27.0,60.0,37.0,139,76,79,108,128,439,483,454
2025-02-20 16:21:52.088,-444.0,479.0,535.0,-7.0,34.0,19.0,139,76,79,108,129,424,455,456
2025-02-20 16:21:52.105,-557.0,886.0,552.0,26.0,4.0,-30.0,139,76,78,109,129,490,448,457
2025-02-20 16:21:52.125,-676.0,1458.0,652.0,65.0,8.0,-168.0,137,76,78,105,128,542,457,458
2025-02-20 16:21:52.145,-734.0,2002.0,688.0,146.0,24.0,-308.0,139,77,78,106,128,514,440,457
2025-02-20 16:21:52.162,-627.0,1974.0,741.0,208.0,7.0,-441.0,138,75,77,108,126,475,435,457
2025-02-20 16:21:52.182,-64.0,1372.0,934.0,171.0,-71.0,-552.0,137,74,76,109,127,447,428,455
2025-02-20 16:21:52.200,755.0,313.0,1208.0,24.0,-174.0,-576.0,138,72,72,112,124,395,409,455
2025-02-20 16:21:52.219,1356.0,-2029.0,1344.0,-107.0,-242.0,-394.0,136,70,72,114,119,376,412,452
2025-02-20 16:21:52.239,1627.0,-2734.0,1342.0,-139.0,-185.0,-132.0,137,70,72,115,110,415,455,459
2025-02-20 16:21:52.260,1385.0,-2260.0,1318.0,-218.0,-142.0,60.0,137,71,72,116,105,440,510,470
2025-02-20 16:21:52.277,1130.0,-1939.0,1236.0,-162.0,-92.0,142.0,136,71,71,115,101,390,538,491
2025-02-20 16:21:52.297,466.0,-1317.0,1081.0,-86.0,-32.0,204.0,137,72,71,114,98,433,524,517
2025-02-20 16:21:52.314,304.0,-785.0,1428.0,-92.0,32.0,288.0,134,72,72,112,97,487,505,512
2025-02-20 16:21:52.334,201.0,-406.0,1424.0,-195.0,76.0,335.0,135,73,72,111,98,522,497,485
2025-02-20 16:21:52.352,24.0,-114.0,1516.0,-295.0,101.0,350.0,135,74,71,110,94,478,493,427
2025-02-20 16:21:52.371,44.0,-119.0,1424.0,-373.0,146.0,341.0,136,73,73,108,95,481,499,418
2025-02-20 16:21:52.391,68.0,-346.0,1132.0,-348.0,208.0,326.0,136,75,74,109,100,527,490,443
2025-02-20 16:21:52.411,-82.0,-373.0,708.0,-216.0,281.0,301.0,137,78,78,110,103,576,480,494
2025-02-20 16:21:52.429,-432.0,-158.0,442.0,-60.0,309.0,235.0,138,83,83,114,107,566,475,530
2025-02-20 16:21:52.448,-607.0,-6.0,-12.0,14.0,267.0,157.0,137,86,85,116,110,512,485,521
2025-02-20 16:21:52.466,-617.0,236.0,301.0,83.0,248.0,117.0,135,90,87,119,113,423,477,495
2025-02-20 16:21:52.482,-834.0,199.0,-193.0,7.0,135.0,68.0,133,93,89,120,114,320,477,482
2025-02-20 16:21:52.506,-782.0,102.0,-459.0,40.0,60.0,54.0,131,94,91,121,115,321,483,471
2025-02-20 16:21:52.522,-1036.0,386.0,-314.0,65.0,15.0,49.0,130,95,91,121,117,378,460,462
2025-02-20 16:21:52.543,-670.0,783.0,-367.0,94.0,-48.0,-1.0,130,96,93,122,119,474,437,453
2025-02-20 16:21:52.563,-869.0,1436.0,-715.0,149.0,-155.0,-111.0,132,96,93,122,122,499,423,456
2025-02-20 16:21:52.580,-1125.0,1642.0,-440.0,137.0,-316.0,-346.0,131,96,93,123,126,505,415,451
2025-02-20 16:21:52.599,-1084.0,1153.0,-300.0,0.0,-391.0,-554.0,132,100,95,123,129,518,398,458
2025-02-20 16:21:52.619,-157.0,1096.0,-701.0,-82.0,-555.0,-719.0,131,103,96,125,130,464,367,466
2025-02-20 16:21:52.637,1802.0,-133.0,76.0,-315.0,-774.0,-641.0,129,111,98,127,132,387,364,455
2025-02-20 16:21:52.658,2753.0,-1739.0,855.0,-268.0,-736.0,-424.0,131,114,100,129,130,385,367,447
2025-02-20 16:21:52.677,2561.0,-3322.0,449.0,-276.0,-426.0,-80.0,129,117,102,131,132,450,427,448
2025-02-20 16:21:52.695,2455.0,-3845.0,590.0,-85.0,-191.0,174.0,128,117,104,131,134,527,439,450
2025-02-20 16:21:52.713,1751.0,-2668.0,820.0,22.0,-20.0,158.0,129,116,104,131,133,588,461,454
2025-02-20 16:21:52.732,726.0,-1805.0,663.0,172.0,180.0,133.0,130,110,102,131,133,593,496,458
2025-02-20 16:21:52.752,239.0,-1188.0,481.0,130.0,195.0,188.0,129,106,103,132,133,681,554,453
2025-02-20 16:21:52.772,-3.0,-883.0,440.0,67.0,153.0,227.0,130,106,103,130,133,646,577,448
2025-02-20 16:21:52.789,-12.0,-876.0,410.0,51.0,185.0,220.0,130,107,103,130,132,310,537,436
2025-02-20 16:21:52.809,126.0,-917.0,563.0,14.0,174.0,184.0,130,112,103,131,133,252,416,427
2025-02-20 16:21:52.829,46.0,-870.0,440.0,5.0,168.0,172.0,130,115,103,131,133,348,410,422
2025-02-20 16:21:52.846,18.0,-807.0,249.0,-19.0,239.0,195.0,129,116,104,132,138,333,443,452
2025-02-20 16:21:52.866,-83.0,-612.0,482.0,-27.0,161.0,235.0,129,116,104,136,133,488,445,486
2025-02-20 16:21:52.887,-55.0,-448.0,395.0,-33.0,196.0,244.0,130,114,103,131,134,673,473,490
2025-02-20 16:21:52.903,-164.0,-616.0,316.0,-104.0,162.0,251.0,128,116,103,130,132,693,505,482
2025-02-20 16:21:52.923,-209.0,-235.0,-55.0,-123.0,179.0,249.0,125,107,102,132,132,699,526,467
2025-02-20 16:21:52.941,-418.0,-41.0,0.0,91.0,125.0,264.0,124,106,102,131,132,663,512,464
2025-02-20 16:21:52.958,-375.0,98.0,210.0,184.0,125.0,229.0,122,103,102,131,132,595,492,468
2025-02-20 16:21:52.981,-302.0,441.0,157.0,314.0,138.0,185.0,121,103,102,130,131,535,475,468
2025-02-20 16:21:52.998,-851.0,938.0,-126.0,487.0,97.0,121.0,120,102,101,131,130,464,452,465
2025-02-20 16:21:53.018,-1127.0,1746.0,-148.0,433.0,3.0,-41.0,120,103,102,131,131,402,451,474
2025-02-20 16:21:53.038,-1588.0,1735.0,-1152.0,221.0,-248.0,-329.0,120,106,102,131,132,397,457,467
2025-02-20 16:21:53.055,-1131.0,1354.0,-569.0,74.0,-434.0,-592.0,123,108,102,131,133,396,450,468
2025-02-20 16:21:53.075,639.0,1382.0,-338.0,-54.0,-697.0,-820.0,122,111,102,131,133,317,430,449
2025-02-20 16:21:53.096,2479.0,-568.0,531.0,-374.0,-901.0,-726.0,121,115,103,131,133,171,364,439
2025-02-20 16:21:53.113,3022.0,-3017.0,571.0,-262.0,-701.0,-339.0,117,117,105,132,132,123,356,408
2025-02-20 16:21:53.133,3126.0,-4091.0,703.0,1.0,-272.0,73.0,119,118,105,133,133,258,440,425
2025-02-20 16:21:53.152,2521.0,-3055.0,1019.0,176.0,3.0,179.0,120,116,104,133,132,410,510,447
2025-02-20 16:21:53.170,827.0,-1639.0,866.0,217.0,186.0,125.0,124,110,103,132,131,464,484,451
2025-02-20 16:21:53.190,-117.0,-895.0,905.0,166.0,261.0,123.0,127,106,101,132,130,514,478,453
2025-02-20 16:21:53.206,-156.0,-735.0,904.0,99.0,244.0,127.0,127,101,99,132,128,524,512,454
2025-02-20 16:21:53.227,-219.0,-1020.0,719.0,66.0,246.0,159.0,127,92,94,131,126,418,523,455
2025-02-20 16:21:53.247,-167.0,-1363.0,592.0,119.0,185.0,239.0,127,94,89,128,122,475,448,479
2025-02-20 16:21:53.264,182.0,-1338.0,357.0,124.0,77.0,311.0,127,89,85,116,115,473,341,512
2025-02-20 16:21:53.284,495.0,-952.0,120.0,163.0,79.0,343.0,127,77,75,112,111,372,397,477
2025-02-20 16:21:53.305,50.0,-171.0,323.0,118.0,-4.0,358.0,128,67,65,109,110,259,408,450
2025-02-20 16:21:53.321,-44.0,331.0,468.0,50.0,-31.0,334.0,129,64,63,104,109,316,429,430
2025-02-20 16:21:53.342,-152.0,426.0,278.0,60.0,-66.0,229.0,128,63,66,105,111,430,472,439
2025-02-20 16:21:53.358,-284.0,250.0,567.0,68.0,-55.0,156.0,128,63,64,111,114,447,515,443
2025-02-20 16:21:53.379,-250.0,-65.0,833.0,178.0,-35.0,107.0,126,63,64,105,119,494,541,454
2025-02-20 16:21:53.399,-334.0,229.0,478.0,259.0,-54.0,80.0,125,64,64,102,125,561,556,468
2025-02-20 16:21:53.416,-435.0,993.0,781.0,287.0,-58.0,32.0,122,66,64,101,127,625,543,492
2025-02-20 16:21:53.435,-681.0,2058.0,1123.0,262.0,-30.0,-133.0,125,65,67,105,129,585,515,498
2025-02-20 16:21:53.455,-619.0,2479.0,1271.0,225.0,18.0,-308.0,126,65,69,108,127,513,467,506
2025-02-20 16:21:53.472,-420.0,1695.0,877.0,265.0,18.0,-475.0,129,67,70,111,127,525,448,512
2025-02-20 16:21:53.493,-241.0,840.0,863.0,358.0,-47.0,-544.0,131,67,71,115,126,533,436,505
2025-02-20 16:21:53.513,234.0,421.0,940.0,350.0,-149.0,-519.0,132,65,70,117,126,437,419,495
2025-02-20 16:21:53.530,690.0,-156.0,1338.0,169.0,-238.0,-416.0,134,66,71,120,126,330,422,485
2025-02-20 16:21:53.551,1138.0,-1384.0,1798.0,23.0,-227.0,-217.0,136,66,72,121,124,314,428,453
2025-02-20 16:21:53.570,1163.0,-1306.0,2085.0,-62.0,-133.0,-19.0,136,67,73,123,125,366,450,408
2025-02-20 16:21:53.587,981.0,-1218.0,1988.0,-114.0,-37.0,82.0,137,67,74,122,126,489,455,408
2025-02-20 16:21:53.606,677.0,-1008.0,1557.0,-103.0,43.0,169.0,135,68,74,122,126,526,470,435
2025-02-20 16:21:53.625,253.0,-835.0,1260.0,-74.0,96.0,244.0,136,68,75,121,126,585,517,453
2025-02-20 16:21:53.641,120.0,-642.0,1184.0,-72.0,130.0,353.0,137,68,74,121,127,572,532,444
2025-02-20 16:21:53.664,281.0,-208.0,1146.0,-89.0,160.0,406.0,135,68,75,120,126,552,531,446
2025-02-20 16:21:53.681,-54.0,414.0,1153.0,-157.0,145.0,393.0,137,68,74,117,127,538,521,451
2025-02-20 16:21:53.702,-379.0,721.0,1020.0,-212.0,103.0,325.0,138,68,75,116,127,516,498,458
2025-02-20 16:21:53.721,-432.0,448.0,929.0,-177.0,80.0,255.0,136,70,75,114,126,479,462,464
2025-02-20 16:21:53.740,-460.0,289.0,895.0,-79.0,107.0,159.0,136,69,75,113,126,475,439,466
2025-02-20 16:21:53.759,-313.0,336.0,876.0,61.0,173.0,121.0,137,70,75,113,125,482,452,467
2025-02-20 16:21:53.776,-604.0,735.0,641.0,78.0,166.0,81.0,137,71,76,111,125,462,463,463
2025-02-20 16:21:53.797,-624.0,754.0,482.0,46.0,132.0,43.0,136,71,76,106,125,410,470,464
2025-02-20 16:21:53.816,-631.0,670.0,286.0,16.0,88.0,11.0,135,71,74,104,125,402,465,468
2025-02-20 16:21:53.834,-569.0,925.0,267.0,5.0,44.0,-10.0,136,71,76,103,125,432,457,472
2025-02-20 16:21:53.854,-646.0,1314.0,229.0,20.0,24.0,-92.0,133,71,76,103,123,422,452,472
2025-02-20 16:21:53.871,-625.0,1450.0,256.0,135.0,31.0,-228.0,131,71,76,105,123,394,451,468
2025-02-20 16:21:53.891,-949.0,1897.0,123.0,251.0,-11.0,-393.0,129,69,76,108,122,416,469,467
2025-02-20 16:21:53.911,-1042.0,2278.0,87.0,193.0,-190.0,-582.0,128,66,72,111,123,453,478,465
2025-02-20 16:21:53.931,143.0,1672.0,219.0,35.0,-522.0,-715.0,130,66,68,112,122,422,488,465
2025-02-20 16:21:53.948,2206.0,-592.0,1392.0,-223.0,-601.0,-613.0,133,67,69,117,123,435,485,458
2025-02-20 16:21:53.968,2671.0,-3507.0,2104.0,-202.0,-239.0,-189.0,135,69,72,121,122,512,470,452
2025-02-20 16:21:53.988,2275.0,-3220.0,2022.0,-39.0,52.0,32.0,135,70,74,121,118,553,441,502
2025-02-20 16:21:54.006,1015.0,-1420.0,1347.0,65.0,164.0,84.0,136,72,74,121,123,635,431,573
2025-02-20 16:21:54.025,40.0,-651.0,974.0,-30.0,140.0,117.0,136,68,74,123,115,645,468,554
2025-02-20 16:21:54.043,-135.0,-546.0,898.0,-80.0,106.0,151.0,136,69,74,124,105,590,547,510
2025-02-20 16:21:54.063,-292.0,-582.0,939.0,-94.0,69.0,181.0,137,71,75,123,95,528,605,486
2025-02-20 16:21:54.083,-325.0,-480.0,1024.0,-110.0,44.0,202.0,138,72,76,120,93,381,577,428
2025-02-20 16:21:54.100,-254.0,-500.0,1267.0,-137.0,64.0,238.0,136,76,78,117,89,263,510,418
2025-02-20 16:21:54.120,-30.0,-255.0,1223.0,-221.0,95.0,273.0,136,82,82,111,86,414,411,445
2025-02-20 16:21:54.139,-134.0,-310.0,1100.0,-225.0,138.0,275.0,137,90,87,107,78,516,333,444
2025-02-20 16:21:54.157,-230.0,-284.0,1295.0,-188.0,198.0,272.0,136,95,87,107,72,562,356,481
2025-02-20 16:21:54.175,-229.0,-135.0,899.0,-126.0,269.0,261.0,135,97,89,105,66,490,345,528
2025-02-20 16:21:54.197,-732.0,71.0,393.0,-25.0,277.0,184.0,134,98,91,102,65,421,358,525
2025-02-20 16:21:54.214,-764.0,346.0,-115.0,50.0,244.0,102.0,133,101,90,98,63,368,386,507
2025-02-20 16:21:54.234,-925.0,803.0,-233.0,78.0,210.0,8.0,135,103,92,96,64,334,415,486
2025-02-20 16:21:54.251,-979.0,988.0,-560.0,19.0,117.0,-69.0,135,106,93,91,64,325,429,475
2025-02-20 16:21:54.271,-1005.0,933.0,-1036.0,-5.0,2.0,-179.0,134,109,95,89,64,420,417,468
2025-02-20 16:21:54.292,-1168.0,1052.0,-1339.0,77.0,-177.0,-312.0,131,111,97,90,63,459,409,458
2025-02-20 16:21:54.311,-1120.0,1143.0,-1452.0,133.0,-387.0,-464.0,130,113,98,91,62,452,440,447
2025-02-20 16:21:54.326,-193.0,1225.0,-1264.0,91.0,-716.0,-581.0,129,115,99,93,65,421,467,440
2025-02-20 16:21:54.349,1820.0,596.0,-250.0,-89.0,-884.0,-561.0,126,120,100,97,69,432,484,435
2025-02-20 16:21:54.363,2837.0,-2485.0,1187.0,-99.0,-850.0,-339.0,126,124,101,99,71,455,490,433
2025-02-20 16:21:54.387,2985.0,-2480.0,2048.0,-55.0,-423.0,-70.0,129,127,102,97,72,522,504,445
2025-02-20 16:21:54.405,2524.0,-2186.0,1882.0,-34.0,-107.0,93.0,128,125,102,97,69,525,545,453
2025-02-20 16:21:54.424,1338.0,-1817.0,1810.0,26.0,108.0,80.0,129,126,102,95,65,437,585,460
2025-02-20 16:21:54.442,551.0,-1204.0,1153.0,23.0,144.0,61.0,130,124,103,94,65,460,621,462
2025-02-20 16:21:54.463,316.0,-1073.0,1057.0,-39.0,156.0,94.0,128,124,102,96,67,461,681,451
2025-02-20 16:21:54.479,328.0,-1209.0,835.0,-72.0,166.0,137.0,129,125,103,96,71,505,614,423
2025-02-20 16:21:54.501,338.0,-1262.0,783.0,-43.0,200.0,198.0,129,125,103,96,72,557,500,460
2025-02-20 16:21:54.518,253.0,-1015.0,707.0,22.0,226.0,234.0,132,126,103,96,75,628,366,485
2025-02-20 16:21:54.537,122.0,-608.0,745.0,34.0,240.0,237.0,130,126,103,95,75,644,348,491
2025-02-20 16:21:54.558,-46.0,-442.0,747.0,-2.0,260.0,232.0,133,125,105,92,75,657,346,481
2025-02-20 16:21:54.575,-178.0,-396.0,498.0,-38.0,242.0,235.0,133,123,103,89,73,613,393,468
2025-02-20 16:21:54.595,-286.0,-371.0,441.0,-46.0,216.0,237.0,132,124,105,89,73,526,428,461
2025-02-20 16:21:54.615,-175.0,-470.0,372.0,-8.0,236.0,239.0,133,124,104,89,73,475,429,459
2025-02-20 16:21:54.631,-334.0,-315.0,188.0,69.0,246.0,228.0,133,123,104,88,74,370,404,457
2025-02-20 16:21:54.652,-653.0,87.0,28.0,111.0,212.0,189.0,133,123,105,87,76,369,411,454
2025-02-20 16:21:54.672,-848.0,548.0,-119.0,86.0,152.0,131.0,133,124,105,84,77,409,432,450
2025-02-20 16:21:54.689,-921.0,925.0,-393.0,58.0,79.0,59.0,133,124,105,83,78,425,444,469
2025-02-20 16:21:54.708,-1009.0,1291.0,-890.0,84.0,-13.0,-104.0,132,124,105,83,78,428,441,482
2025-02-20 16:21:54.726,-1450.0,1789.0,-1135.0,155.0,-177.0,-365.0,128,124,107,84,75,462,439,483
2025-02-20 16:21:54.747,-1159.0,1801.0,-899.0,124.0,-417.0,-573.0,122,124,106,86,75,500,425,479
2025-02-20 16:21:54.762,60.0,1332.0,-471.0,-43.0,-693.0,-698.0,120,125,106,89,79,452,417,464
2025-02-20 16:21:54.784,2409.0,-49.0,-409.0,-181.0,-880.0,-630.0,120,126,107,95,82,363,425,451
2025-02-20 16:21:54.804,3515.0,-3354.0,983.0,-152.0,-728.0,-368.0,120,127,107,98,82,336,431,461
2025-02-20 16:21:54.824,3576.0,-3922.0,1857.0,51.0,-141.0,18.0,122,128,107,99,82,453,451,457
2025-02-20 16:21:54.841,2340.0,-2594.0,1537.0,230.0,185.0,152.0,124,126,107,97,74,462,487,464
2025-02-20 16:21:54.859,748.0,-1231.0,1051.0,212.0,256.0,155.0,125,122,106,94,68,467,546,463
2025-02-20 16:21:54.878,184.0,-983.0,798.0,102.0,201.0,181.0,127,119,105,95,71,549,552,454
2025-02-20 16:21:54.898,134.0,-1074.0,583.0,95.0,165.0,223.0,129,118,104,98,77,499,566,452
2025-02-20 16:21:54.919,-6.0,-952.0,775.0,91.0,170.0,248.0,127,120,103,101,86,393,528,438
2025-02-20 16:21:54.937,-60.0,-846.0,686.0,121.0,184.0,283.0,131,119,100,102,94,565,429,436
2025-02-20 16:21:54.956,5.0,-616.0,589.0,94.0,150.0,318.0,133,116,96,100,99,536,355,464
2025-02-20 16:21:54.975,-128.0,-440.0,458.0,49.0,113.0,333.0,133,108,90,102,101,546,351,491
2025-02-20 16:21:54.992,-164.0,-341.0,554.0,0.0,67.0,343.0,135,98,85,99,103,628,353,472
2025-02-20 16:21:55.012,-295.0,-220.0,503.0,-43.0,36.0,322.0,135,93,86,100,107,575,438,463
2025-02-20 16:21:55.033,-315.0,-76.0,406.0,22.0,23.0,243.0,135,93,87,102,107,460,521,469
2025-02-20 16:21:55.047,-398.0,144.0,251.0,102.0,5.0,194.0,135,91,85,103,109,407,545,465
2025-02-20 16:21:55.070,-355.0,49.0,502.0,145.0,-5.0,171.0,138,90,83,100,113,419,528,466
2025-02-20 16:21:55.090,-368.0,413.0,582.0,182.0,-14.0,143.0,136,84,79,95,118,364,495,474
2025-02-20 16:21:55.107,-557.0,1012.0,593.0,194.0,-24.0,92.0,136,83,78,92,122,346,476,475
2025-02-20 16:21:55.126,-706.0,1792.0,744.0,199.0,-14.0,-18.0,136,86,75,94,125,346,478,472
2025-02-20 16:21:55.148,-753.0,2365.0,848.0,236.0,44.0,-180.0,135,86,77,97,125,364,476,479
2025-02-20 16:21:55.163,-935.0,2648.0,400.0,301.0,59.0,-425.0,134,83,78,101,125,370,451,490
2025-02-20 16:21:55.185,-996.0,2121.0,67.0,289.0,-128.0,-607.0,135,80,76,105,125,432,447,484
2025-02-20 16:21:55.202,-34.0,1328.0,289.0,190.0,-410.0,-706.0,135,76,72,106,124,450,468,474
2025-02-20 16:21:55.218,1824.0,-1110.0,907.0,85.0,-602.0,-545.0,136,76,70,111,124,385,476,458
2025-02-20 16:21:55.241,2566.0,-3121.0,2512.0,51.0,-374.0,-172.0,136,81,77,116,124,510,444,384
2025-02-20 16:21:55.259,2080.0,-1713.0,2777.0,-21.0,-45.0,59.0,137,83,80,117,124,517,439,362
2025-02-20 16:21:55.278,1114.0,-1210.0,1978.0,-81.0,123.0,59.0,138,82,79,116,127,464,443,456
2025-02-20 16:21:55.297,330.0,-1217.0,1008.0,-52.0,134.0,145.0,134,80,77,113,126,385,457,502
2025-02-20 16:21:55.316,-51.0,-696.0,873.0,-33.0,87.0,190.0,133,81,75,109,127,364,492,482
2025-02-20 16:21:55.332,14.0,-617.0,1075.0,-45.0,106.0,240.0,132,81,79,110,128,309,549,445
2025-02-20 16:21:55.357,-118.0,-331.0,916.0,-64.0,113.0,299.0,133,82,75,107,128,226,514,429
2025-02-20 16:21:55.373,-298.0,-35.0,729.0,-96.0,73.0,324.0,133,82,77,101,128,378,423,437
2025-02-20 16:21:55.394,-422.0,240.0,615.0,-113.0,18.0,312.0,134,83,79,98,128,519,428,437
2025-02-20 16:21:55.404,-267.0,397.0,668.0,-132.0,-24.0,249.0,136,83,79,97,127,554,496,447
2025-02-20 16:21:55.431,-314.0,347.0,973.0,-49.0,14.0,163.0,137,83,79,96,128,533,493,461
2025-02-20 16:21:55.451,-477.0,564.0,905.0,36.0,56.0,123.0,136,83,80,95,129,441,459,465
2025-02-20 16:21:55.468,-576.0,828.0,728.0,64.0,29.0,99.0,136,85,79,93,129,403,444,476
2025-02-20 16:21:55.488,-671.0,782.0,679.0,60.0,25.0,54.0,136,84,80,93,129,415,445,483
2025-02-20 16:21:55.508,-567.0,856.0,831.0,79.0,36.0,4.0,137,84,80,91,129,494,452,508
2025-02-20 16:21:55.525,-580.0,1363.0,911.0,101.0,50.0,-77.0,135,84,80,91,129,538,411,502
2025-02-20 16:21:55.545,-686.0,1740.0,863.0,133.0,76.0,-204.0,137,85,78,91,130,534,383,497
2025-02-20 16:21:55.563,-774.0,1964.0,598.0,166.0,79.0,-365.0,136,83,80,93,130,494,425,488
2025-02-20 16:21:55.582,-670.0,1844.0,251.0,139.0,-23.0,-506.0,132,82,78,96,130,501,466,477
2025-02-20 16:21:55.603,-363.0,1248.0,-6.0,38.0,-208.0,-596.0,132,82,76,101,129,481,488,470
2025-02-20 16:21:55.623,895.0,-426.0,22.0,-57.0,-459.0,-535.0,134,82,74,108,129,485,505,463
2025-02-20 16:21:55.639,1958.0,-2555.0,1080.0,-37.0,-466.0,-282.0,136,83,74,113,129,551,492,466
2025-02-20 16:21:55.659,2352.0,-2549.0,2006.0,15.0,-247.0,13.0,137,84,78,116,128,549,471,468
2025-02-20 16:21:55.677,1658.0,-1473.0,2204.0,-29.0,-18.0,83.0,137,84,81,117,129,605,453,504
2025-02-20 16:21:55.697,889.0,-1135.0,1642.0,-42.0,61.0,113.0,138,80,80,118,127,677,497,522
2025-02-20 16:21:55.714,269.0,-940.0,1318.0,-50.0,67.0,161.0,138,82,79,118,124,633,564,508
2025-02-20 16:21:55.734,166.0,-596.0,1379.0,-83.0,82.0,202.0,139,83,78,119,121,422,598,471
2025-02-20 16:21:55.754,44.0,-407.0,1339.0,-118.0,114.0,229.0,139,88,79,119,114,176,591,432
2025-02-20 16:21:55.775,-193.0,-218.0,1180.0,-158.0,114.0,252.0,139,94,81,119,106,214,524,429
2025-02-20 16:21:55.786,-284.0,-156.0,1137.0,-209.0,101.0,252.0,139,98,83,115,97,285,453,447
2025-02-20 16:21:55.812,-281.0,-107.0,1270.0,-219.0,141.0,246.0,139,100,85,114,92,368,429,509
2025-02-20 16:21:55.831,-22.0,-210.0,1206.0,-195.0,240.0,242.0,140,98,84,113,85,459,433,541
2025-02-20 16:21:55.848,-179.0,-266.0,954.0,-144.0,317.0,225.0,141,92,80,111,77,470,399,533
2025-02-20 16:21:55.869,-358.0,-84.0,507.0,-81.0,325.0,235.0,141,87,78,109,70,459,373,509
2025-02-20 16:21:55.884,-477.0,84.0,390.0,-28.0,314.0,202.0,139,82,75,106,65,503,384,489
2025-02-20 16:21:55.906,-461.0,152.0,175.0,67.0,334.0,150.0,140,78,71,103,64,555,394,467
2025-02-20 16:21:55.926,-729.0,405.0,-178.0,119.0,311.0,70.0,140,72,68,98,64,508,422,471
2025-02-20 16:21:55.943,-861.0,770.0,-437.0,88.0,214.0,27.0,139,70,65,96,62,499,452,472
2025-02-20 16:21:55.963,-845.0,1028.0,-1022.0,43.0,116.0,-12.0,137,66,62,91,61,585,462,465
2025-02-20 16:21:55.983,-1140.0,1239.0,-1834.0,114.0,-68.0,-135.0,135,63,59,85,59,623,457,442
2025-02-20 16:21:56.001,-1626.0,1448.0,-1726.0,218.0,-274.0,-290.0,133,60,55,75,53,592,465,439
2025-02-20 16:21:56.021,-1132.0,1809.0,-2363.0,279.0,-647.0,-499.0,128,58,52,69,51,493,492,446
2025-02-20 16:21:56.040,1200.0,1757.0,-2120.0,192.0,-1068.0,-600.0,125,59,50,70,53,460,487,444
2025-02-20 16:21:56.057,4811.0,-1577.0,89.0,97.0,-1233.0,-331.0,126,60,50,72,56,513,479,438
2025-02-20 16:21:56.078,4694.0,-4667.0,3845.0,420.0,-562.0,83.0,132,62,53,73,59,579,493,411
2025-02-20 16:21:56.095,3042.0,-664.0,4089.0,246.0,3.0,151.0,132,63,54,75,56,601,521,427
2025-02-20 16:21:56.114,943.0,560.0,3436.0,13.0,227.0,-1.0,126,60,52,71,52,456,531,461
2025-02-20 16:21:56.135,530.0,-670.0,2192.0,-152.0,266.0,69.0,118,58,51,67,51,446,552,451
2025-02-20 16:21:56.150,505.0,-597.0,1786.0,-187.0,304.0,126.0,114,59,50,65,52,334,580,429
2025-02-20 16:21:56.172,442.0,-691.0,1484.0,-170.0,368.0,129.0,115,59,51,70,53,174,593,414
2025-02-20 16:21:56.191,-84.0,-505.0,1010.0,-165.0,382.0,160.0,116,59,51,71,53,97,557,402
2025-02-20 16:21:56.209,-92.0,-225.0,720.0,-169.0,367.0,168.0,112,58,51,68,53,233,391,416
2025-02-20 16:21:56.229,-298.0,-158.0,552.0,-154.0,336.0,162.0,110,58,50,65,51,506,331,423
2025-02-20 16:21:56.247,-233.0,14.0,476.0,-170.0,347.0,163.0,114,58,51,64,52,695,352,466
2025-02-20 16:21:56.266,-646.0,76.0,-68.0,-184.0,304.0,138.0,111,60,52,66,53,554,344,494
2025-02-20 16:21:56.287,-728.0,-31.0,-55.0,-135.0,213.0,123.0,116,60,52,68,54,576,385,492
2025-02-20 16:21:56.302,-274.0,-70.0,111.0,-80.0,229.0,126.0,117,60,53,69,55,580,474,472
2025-02-20 16:21:56.323,-674.0,73.0,-229.0,1.0,213.0,96.0,118,59,52,70,58,646,506,469
2025-02-20 16:21:56.343,-623.0,348.0,-370.0,33.0,153.0,75.0,119,60,54,71,59,610,520,487
2025-02-20 16:21:56.360,-798.0,611.0,-461.0,59.0,85.0,51.0,120,60,54,72,58,541,512,491
2025-02-20 16:21:56.380,-842.0,920.0,-1009.0,90.0,-27.0,-17.0,116,60,54,69,56,491,536,491
2025-02-20 16:21:56.401,-946.0,1309.0,-1852.0,187.0,-162.0,-169.0,111,60,53,69,55,386,515,473
2025-02-20 16:21:56.418,-1308.0,1525.0,-2211.0,229.0,-412.0,-411.0,110,55,51,68,55,352,443,436
2025-02-20 16:21:56.436,-307.0,1215.0,-2621.0,338.0,-924.0,-531.0,102,56,50,65,55,398,373,425
2025-02-20 16:21:56.459,3180.0,331.0,-1811.0,289.0,-1195.0,-416.0,104,54,48,64,54,445,392,437
2025-02-20 16:21:56.475,5092.0,-2326.0,4153.0,358.0,-656.0,-72.0,107,57,49,67,55,473,394,430
2025-02-20 16:21:56.496,2898.0,-554.0,4512.0,202.0,-87.0,-37.0,105,55,44,65,55,518,376,425
2025-02-20 16:21:56.514,1158.0,-783.0,3222.0,108.0,119.0,-34.0,102,57,48,62,51,372,447,430
2025-02-20 16:21:56.533,157.0,-131.0,1659.0,-82.0,117.0,14.0,100,57,47,62,53,348,526,425
2025-02-20 16:21:56.553,-54.0,-1040.0,1137.0,-149.0,82.0,33.0,99,57,48,65,54,351,566,425
2025-02-20 16:21:56.570,24.0,-1155.0,1146.0,-58.0,116.0,36.0,100,57,49,70,55,363,588,412
2025-02-20 16:21:56.590,-226.0,-640.0,602.0,36.0,102.0,39.0,102,57,50,69,56,360,509,428
2025-02-20 16:21:56.610,-223.0,-173.0,749.0,53.0,40.0,11.0,101,57,50,73,56,544,351,503
2025-02-20 16:21:56.627,-177.0,-162.0,898.0,-18.0,0.0,9.0,100,58,49,70,56,620,412,484
2025-02-20 16:21:56.647,-3.0,-399.0,973.0,-59.0,-18.0,29.0,103,58,50,69,57,635,499,492
2025-02-20 16:21:56.667,25.0,-477.0,969.0,-63.0,-9.0,48.0,103,58,51,69,57,516,536,493
2025-02-20 16:21:56.684,7.0,-397.0,948.0,-31.0,2.0,30.0,105,58,50,69,57,375,525,501
2025-02-20 16:21:56.705,23.0,-488.0,969.0,15.0,30.0,22.0,106,58,51,70,57,411,534,480
2025-02-20 16:21:56.721,-23.0,-407.0,956.0,25.0,59.0,30.0,106,57,51,70,57,431,490,457
2025-02-20 16:21:56.741,-261.0,-324.0,838.0,25.0,43.0,37.0,107,60,50,70,58,400,478,449
2025-02-20 16:21:56.761,-227.0,-152.0,791.0,16.0,10.0,27.0,106,60,52,71,58,401,461,451
2025-02-20 16:21:56.778,-157.0,-141.0,878.0,-2.0,-11.0,7.0,107,59,52,71,58,438,458,438
2025-02-20 16:21:56.799,-81.0,-275.0,940.0,-21.0,-6.0,5.0,108,59,51,71,59,474,439,446
2025-02-20 16:21:56.818,-69.0,-375.0,928.0,-20.0,3.0,9.0,107,59,52,72,59,482,397,459
2025-02-20 16:21:56.836,-88.0,-377.0,877.0,-4.0,8.0,8.0,108,60,52,72,60,489,385,467
2025-02-20 16:21:56.854,-162.0,-347.0,836.0,13.0,-8.0,0.0,108,61,51,71,59,465,381,460
2025-02-20 16:21:56.876,-142.0,-369.0,870.0,16.0,-15.0,2.0,109,60,52,72,60,432,411,453
2025-02-20 16:21:56.892,-110.0,-338.0,946.0,11.0,-12.0,7.0,109,61,52,73,60,428,476,453
2025-02-20 16:21:56.913,-85.0,-350.0,983.0,8.0,-5.0,9.0,109,60,52,73,60,442,514,455
2025-02-20 16:21:56.926,-126.0,-327.0,999.0,14.0,-4.0,9.0,110,60,51,72,60,488,523,462
2025-02-20 16:21:56.951,-104.0,-292.0,1001.0,17.0,-5.0,5.0,109,61,53,72,60,504,511,466
2025-02-20 16:21:56.969,-101.0,-284.0,993.0,9.0,2.0,1.0,110,61,52,72,60,509,486,465
2025-02-20 16:21:56.988,-99.0,-292.0,971.0,2.0,7.0,-2.0,109,60,52,73,59,522,469,461
2025-02-20 16:21:57.008,-117.0,-340.0,947.0,1.0,7.0,-1.0,109,60,52,72,60,547,449,455
2025-02-20 16:21:57.028,-194.0,-312.0,878.0,10.0,-12.0,-5.0,109,61,53,73,60,598,450,453
2025-02-20 16:21:57.045,-99.0,-350.0,964.0,10.0,-18.0,-3.0,109,61,52,73,60,577,448,456
2025-02-20 16:21:57.065,-106.0,-330.0,1010.0,3.0,-7.0,0.0,110,62,54,73,60,540,455,460
2025-02-20 16:21:57.085,-106.0,-326.0,1027.0,0.0,1.0,-3.0,109,61,53,73,60,503,461,462
2025-02-20 16:21:57.102,-134.0,-338.0,1011.0,1.0,3.0,0.0,110,61,53,74,61,467,457,465
2025-02-20 16:21:57.122,-87.0,-343.0,1021.0,3.0,2.0,-3.0,110,61,53,72,60,415,454,467
2025-02-20 16:21:57.138,-93.0,-362.0,1004.0,1.0,8.0,1.0,110,61,53,73,61,397,451,471
2025-02-20 16:21:57.156,-90.0,-346.0,982.0,0.0,11.0,1.0,110,61,53,72,60,390,452,473
2025-02-20 16:21:57.179,-117.0,-363.0,944.0,-3.0,12.0,5.0,110,60,53,73,61,393,462,474
2025-02-20 16:21:57.197,-125.0,-370.0,926.0,-6.0,8.0,11.0,111,61,54,74,61,395,470,473
2025-02-20 16:21:57.216,-150.0,-330.0,929.0,5.0,0.0,4.0,111,62,54,73,61,404,478,472
2025-02-20 16:21:57.236,-122.0,-339.0,960.0,12.0,1.0,5.0,111,62,53,74,61,432,478,474
2025-02-20 16:21:57.254,-135.0,-279.0,948.0,6.0,1.0,6.0,111,61,53,74,61,454,478,473
2025-02-20 16:21:57.274,-149.0,-269.0,936.0,0.0,-2.0,4.0,112,62,54,74,62,451,476,471
2025-02-20 16:21:57.293,-151.0,-289.0,958.0,4.0,-6.0,-1.0,113,61,54,74,61,462,468,471
2025-02-20 16:21:57.309,-116.0,-302.0,975.0,8.0,-4.0,-1.0,112,61,54,75,60,473,456,470
2025-02-20 16:21:57.331,-111.0,-296.0,976.0,6.0,-2.0,-2.0,112,62,54,75,61,459,446,469
2025-02-20 16:21:57.349,-111.0,-316.0,984.0,2.0,0.0,0.0,113,62,53,74,62,444,440,468
2025-02-20 16:21:57.368,-103.0,-320.0,988.0,2.0,2.0,-1.0,113,62,53,74,62,442,438,469
2025-02-20 16:21:57.388,-121.0,-302.0,975.0,3.0,3.0,-1.0,112,62,53,74,61,445,439,467
2025-02-20 16:21:57.406,-126.0,-303.0,976.0,3.0,5.0,-2.0,112,61,54,74,61,452,443,468
2025-02-20 16:21:57.426,-128.0,-313.0,961.0,0.0,4.0,-1.0,112,62,53,74,65,466,445,467
2025-02-20 16:21:57.445,-125.0,-338.0,958.0,2.0,0.0,1.0,112,62,54,74,61,480,448,467
2025-02-20 16:21:57.458,-119.0,-323.0,983.0,2.0,0.0,1.0,112,62,54,75,62,498,451,468
2025-02-20 16:21:57.483,-124.0,-322.0,983.0,-1.0,2.0,3.0,115,63,55,74,62,512,453,467
2025-02-20 16:21:57.502,-128.0,-324.0,1000.0,-1.0,1.0,2.0,114,62,54,75,61,518,457,466
2025-02-20 16:21:57.520,-124.0,-322.0,1015.0,-3.0,3.0,5.0,114,62,55,74,62,531,459,465
2025-02-20 16:21:57.540,-147.0,-295.0,1004.0,-3.0,5.0,2.0,114,62,54,74,62,523,462,464
2025-02-20 16:21:57.556,-127.0,-324.0,1007.0,5.0,5.0,1.0,114,62,54,76,62,508,464,465
2025-02-20 16:21:57.574,-141.0,-280.0,999.0,5.0,7.0,2.0,114,62,55,75,63,491,465,464
2025-02-20 16:21:57.597,-146.0,-275.0,991.0,2.0,9.0,0.0,114,62,54,74,63,478,466,464
2025-02-20 16:21:57.614,-154.0,-283.0,971.0,-1.0,10.0,2.0,115,63,54,75,63,466,467,464
2025-02-20 16:21:57.634,-180.0,-271.0,941.0,-2.0,8.0,3.0,116,62,54,75,61,459,470,465
2025-02-20 16:21:57.654,-180.0,-278.0,916.0,0.0,5.0,2.0,115,63,54,75,64,451,470,466
2025-02-20 16:21:57.671,-162.0,-283.0,922.0,1.0,4.0,2.0,115,58,54,75,63,430,469,467
2025-02-20 16:21:57.691,-155.0,-303.0,925.0,6.0,4.0,0.0,115,63,55,75,62,413,466,468
2025-02-20 16:21:57.712,-156.0,-305.0,952.0,6.0,3.0,2.0,115,62,55,75,62,410,462,468
2025-02-20 16:21:57.728,-149.0,-309.0,967.0,7.0,4.0,1.0,114,63,54,75,62,417,460,468
2025-02-20 16:21:57.749,-151.0,-295.0,975.0,5.0,5.0,3.0,115,62,55,74,62,425,456,468
2025-02-20 16:21:57.770,-161.0,-282.0,951.0,-1.0,5.0,3.0,114,62,54,75,63,438,454,469
2025-02-20 16:21:57.786,-176.0,-293.0,928.0,-4.0,2.0,3.0,113,62,54,75,63,453,452,468
2025-02-20 16:21:57.805,-173.0,-313.0,930.0,0.0,0.0,3.0,116,61,54,76,63,464,453,468
2025-02-20 16:21:57.823,-174.0,-300.0,939.0,2.0,-2.0,4.0,115,62,55,75,63,474,453,469
2025-02-20 16:21:57.842,-167.0,-294.0,967.0,2.0,-3.0,4.0,114,62,54,75,62,478,455,468
2025-02-20 16:21:57.863,-174.0,-278.0,984.0,4.0,-2.0,3.0,115,62,55,74,62,471,459,468
2025-02-20 16:21:57.880,-164.0,-259.0,1001.0,3.0,0.0,3.0,115,62,56,75,63,465,463,467
2025-02-20 16:21:57.900,-188.0,-247.0,989.0,0.0,1.0,2.0,114,63,55,74,63,460,468,465
2025-02-20 16:21:57.921,-182.0,-256.0,971.0,-2.0,1.0,1.0,115,63,55,75,62,464,472,464
2025-02-20 16:21:57.931,-177.0,-272.0,965.0,-1.0,0.0,1.0,115,62,55,75,63,477,476,463
2025-02-20 16:21:57.957,-158.0,-282.0,979.0,1.0,1.0,-1.0,116,63,55,75,63,486,479,462
2025-02-20 16:21:57.978,-162.0,-274.0,969.0,2.0,3.0,0.0,116,63,55,75,63,486,480,462
2025-02-20 16:21:57.993,-176.0,-271.0,956.0,2.0,2.0,1.0,117,62,54,76,63,485,480,462
2025-02-20 16:21:58.016,-181.0,-259.0,958.0,2.0,0.0,0.0,117,62,54,76,64,482,478,462
2025-02-20 16:21:58.033,-163.0,-270.0,959.0,3.0,-2.0,-2.0,117,63,55,76,63,475,475,462
2025-02-20 16:21:58.052,-173.0,-259.0,956.0,1.0,-1.0,-2.0,117,62,55,75,64,467,470,464
2025-02-20 16:21:58.072,-171.0,-275.0,947.0,-1.0,-1.0,0.0,118,62,54,76,64,460,466,467
2025-02-20 16:21:58.088,-170.0,-292.0,940.0,-2.0,-3.0,2.0,117,63,55,76,64,455,461,467
2025-02-20 16:21:58.110,-162.0,-280.0,972.0,2.0,-2.0,0.0,118,62,55,76,64,452,455,469
2025-02-20 16:21:58.130,-194.0,-271.0,964.0,6.0,-1.0,0.0,119,62,55,76,65,449,452,471
2025-02-20 16:21:58.144,-176.0,-258.0,967.0,9.0,-5.0,-1.0,118,63,55,76,65,446,449,471
2025-02-20 16:21:58.166,-177.0,-240.0,979.0,5.0,-4.0,-1.0,118,64,55,76,65,452,448,471
2025-02-20 16:21:58.185,-168.0,-250.0,981.0,1.0,-2.0,-2.0,119,63,56,76,64,458,448,470
2025-02-20 16:21:58.204,-172.0,-253.0,972.0,0.0,-3.0,-1.0,119,62,55,75,64,461,449,468
2025-02-20 16:21:58.224,-160.0,-261.0,984.0,2.0,-2.0,-2.0,119,63,56,76,65,464,452,468
2025-02-20 16:21:58.244,-164.0,-276.0,986.0,3.0,-1.0,-2.0,118,63,56,77,64,465,455,467
2025-02-20 16:21:58.259,-162.0,-277.0,986.0,5.0,0.0,-2.0,117,63,56,77,66,463,461,467
2025-02-20 16:21:58.281,-173.0,-258.0,988.0,4.0,2.0,-1.0,118,63,56,76,65,466,464,464
2025-02-20 16:21:58.299,-176.0,-238.0,994.0,1.0,3.0,-2.0,119,63,56,76,65,470,469,463
2025-02-20 16:21:58.319,-180.0,-257.0,980.0,-1.0,1.0,-1.0,119,63,56,76,65,473,476,462
2025-02-20 16:21:58.339,-186.0,-264.0,977.0,-1.0,-2.0,-1.0,120,63,56,77,65,476,475,461
2025-02-20 16:21:58.355,-158.0,-271.0,981.0,-1.0,-2.0,0.0,120,63,56,77,66,475,477,463
2025-02-20 16:21:58.368,-159.0,-265.0,986.0,-2.0,-1.0,0.0,120,63,56,77,65,475,475,462
2025-02-20 16:21:58.396,-160.0,-280.0,983.0,-1.0,2.0,1.0,120,64,56,77,65,472,474,462
2025-02-20 16:21:58.411,-178.0,-262.0,955.0,2.0,2.0,2.0,120,62,56,77,65,466,472,463
2025-02-20 16:21:58.433,-185.0,-229.0,957.0,5.0,-3.0,-1.0,120,63,56,77,66,463,468,463
2025-02-20 16:21:58.453,-189.0,-216.0,970.0,0.0,-4.0,-2.0,121,63,56,77,66,459,463,465
2025-02-20 16:21:58.465,-163.0,-264.0,979.0,-3.0,-2.0,-2.0,120,63,56,75,66,458,459,466
2025-02-20 16:21:58.490,-163.0,-269.0,968.0,1.0,1.0,0.0,121,63,57,78,66,457,454,465
2025-02-20 16:21:58.507,-180.0,-236.0,958.0,2.0,-2.0,1.0,120,63,56,77,66,457,453,467
2025-02-20 16:21:58.527,-174.0,-234.0,967.0,1.0,-3.0,-1.0,121,63,56,78,66,456,452,468
2025-02-20 16:21:58.548,-173.0,-244.0,980.0,2.0,0.0,-2.0,121,63,56,78,67,458,451,468
2025-02-20 16:21:58.562,-196.0,-240.0,965.0,3.0,-2.0,-3.0,121,64,56,77,67,457,452,467
2025-02-20 16:21:58.584,-168.0,-253.0,968.0,1.0,-4.0,-3.0,120,63,56,77,66,461,453,467
2025-02-20 16:21:58.604,-161.0,-264.0,967.0,-2.0,-3.0,-1.0,121,63,56,77,66,462,455,466
2025-02-20 16:21:58.623,-150.0,-271.0,965.0,-2.0,-3.0,-1.0,121,64,57,77,67,463,459,466
2025-02-20 16:21:58.642,-161.0,-265.0,971.0,0.0,-4.0,0.0,121,64,56,78,66,466,463,463
2025-02-20 16:21:58.662,-164.0,-254.0,984.0,3.0,-4.0,-1.0,121,64,56,77,66,472,469,463
2025-02-20 16:21:58.678,-170.0,-240.0,998.0,2.0,-2.0,-1.0,124,63,56,77,67,473,473,462
2025-02-20 16:21:58.699,-169.0,-251.0,996.0,2.0,-1.0,-2.0,121,64,57,74,66,473,476,461
2025-02-20 16:21:58.716,-160.0,-271.0,991.0,4.0,-2.0,-1.0,121,64,57,78,66,472,476,461
2025-02-20 16:21:58.736,-166.0,-231.0,1000.0,1.0,-2.0,0.0,120,64,58,78,66,471,475,461
2025-02-20 16:21:58.757,-171.0,-232.0,1002.0,-2.0,-1.0,-1.0,121,64,56,77,67,471,474,461
2025-02-20 16:21:58.773,-164.0,-250.0,1002.0,0.0,0.0,-1.0,121,63,56,78,65,468,473,462
2025-02-20 16:21:58.793,-168.0,-246.0,995.0,2.0,1.0,-2.0,121,63,57,78,66,469,469,462
2025-02-20 16:21:58.814,-175.0,-250.0,985.0,0.0,-1.0,-1.0,121,64,58,78,67,466,467,464
2025-02-20 16:21:58.830,-170.0,-249.0,984.0,0.0,-2.0,0.0,121,64,61,78,66,462,462,465
2025-02-20 16:21:58.851,-174.0,-241.0,992.0,0.0,-2.0,0.0,119,64,57,78,68,460,458,465
2025-02-20 16:21:58.871,-169.0,-225.0,990.0,0.0,-1.0,0.0,120,63,56,78,66,456,454,466
2025-02-20 16:21:58.888,-170.0,-220.0,991.0,0.0,0.0,-2.0,120,64,57,79,67,455,452,467
2025-02-20 16:21:58.907,-164.0,-253.0,988.0,1.0,2.0,-2.0,121,64,57,77,66,454,450,467
2025-02-20 16:21:58.925,-163.0,-250.0,979.0,0.0,2.0,-1.0,121,64,57,79,66,454,449,468
2025-02-20 16:21:58.945,-176.0,-248.0,971.0,-1.0,-1.0,0.0,121,68,56,79,66,457,453,469
2025-02-20 16:21:58.963,-159.0,-243.0,983.0,-3.0,-1.0,1.0,120,63,57,78,66,459,456,467
2025-02-20 16:21:58.983,-157.0,-234.0,980.0,-2.0,1.0,-1.0,121,64,57,77,66,460,460,467
2025-02-20 16:21:59.002,-166.0,-244.0,968.0,0.0,2.0,-2.0,122,65,57,78,66,457,463,466
2025-02-20 16:21:59.022,-166.0,-253.0,959.0,1.0,1.0,-1.0,121,64,57,78,66,457,468,465
2025-02-20 16:21:59.039,-159.0,-241.0,967.0,-2.0,-1.0,0.0,121,63,57,78,67,460,471,464
2025-02-20 16:21:59.059,-160.0,-253.0,959.0,0.0,-3.0,-1.0,121,65,57,78,67,463,475,463
2025-02-20 16:21:59.078,-162.0,-250.0,979.0,1.0,-2.0,0.0,122,64,57,78,66,465,478,462
2025-02-20 16:21:59.097,-171.0,-238.0,974.0,1.0,-1.0,-1.0,120,64,55,78,66,466,479,461
2025-02-20 16:21:59.114,-171.0,-239.0,981.0,1.0,-1.0,0.0,124,64,58,78,67,467,478,460
2025-02-20 16:21:59.137,-164.0,-230.0,977.0,-1.0,-2.0,0.0,122,64,56,78,66,465,478,460
2025-02-20 16:21:59.148,-164.0,-252.0,980.0,-1.0,-3.0,0.0,121,64,57,78,67,465,474,462
2025-02-20 16:21:59.173,-170.0,-229.0,986.0,0.0,-2.0,0.0,121,64,57,78,66,466,470,463
2025-02-20 16:21:59.191,-176.0,-236.0,985.0,2.0,-2.0,-1.0,122,64,57,78,66,467,466,464
2025-02-20 16:21:59.212,-169.0,-224.0,994.0,0.0,-2.0,-1.0,121,64,56,78,66,466,462,465
2025-02-20 16:21:59.231,-164.0,-241.0,990.0,-2.0,-2.0,0.0,121,65,57,78,66,465,458,465
2025-02-20 16:21:59.249,-160.0,-238.0,991.0,-3.0,-1.0,1.0,121,63,57,78,66,461,456,467
2025-02-20 16:21:59.267,-162.0,-236.0,985.0,-1.0,0.0,0.0,122,63,56,77,67,463,453,468
2025-02-20 16:21:59.289,-182.0,-219.0,976.0,1.0,-1.0,-1.0,121,64,56,78,67,466,452,470
2025-02-20 16:21:59.306,-168.0,-226.0,994.0,0.0,-2.0,-2.0,120,64,57,78,66,465,451,468
