timestamp,ax,ay,az,gx,gy,gz,flex1,flex2,flex3,flex4,flex5,emg1,emg2,emg3
2025-03-17 18:38:38.979,-505.0,74.0,891.0,-2.0,-1.0,-1.0,120,93,147,104,113
2025-03-17 18:38:38.979,-503.0,59.0,888.0,-1.0,-1.0,-1.0,123,93,146,103,113
2025-03-17 18:38:38.989,-502.0,63.0,885.0,0.0,-1.0,-1.0,120,92,147,102,114
2025-03-17 18:38:38.992,-504.0,69.0,885.0,-1.0,-1.0,-1.0,123,93,146,103,113
2025-03-17 18:38:38.995,-504.0,66.0,895.0,-1.0,-2.0,-1.0,120,92,145,102,112
2025-03-17 18:38:38.998,-500.0,67.0,896.0,0.0,-1.0,-1.0,120,92,147,102,113
2025-03-17 18:38:39.000,-505.0,64.0,891.0,-1.0,-2.0,-1.0,121,93,146,103,113
2025-03-17 18:38:39.001,-498.0,61.0,895.0,-1.0,-1.0,0.0,121,93,147,103,113
2025-03-17 18:38:39.001,-511.0,66.0,891.0,0.0,-1.0,0.0,121,95,143,103,109
2025-03-17 18:38:39.007,-508.0,75.0,895.0,-1.0,-2.0,-1.0,120,93,147,103,113
2025-03-17 18:38:39.010,-503.0,69.0,899.0,-1.0,-1.0,-1.0,121,94,146,103,113
2025-03-17 18:38:39.032,-505.0,66.0,904.0,0.0,-1.0,-1.0,120,92,146,101,113
2025-03-17 18:38:39.057,-501.0,67.0,896.0,-1.0,-1.0,-1.0,119,92,146,102,112
2025-03-17 18:38:39.081,-495.0,70.0,894.0,-1.0,-2.0,-1.0,120,92,146,103,113
2025-03-17 18:38:39.105,-497.0,66.0,896.0,0.0,-1.0,0.0,120,92,146,102,115
2025-03-17 18:38:39.129,-506.0,71.0,895.0,0.0,-1.0,0.0,121,93,146,102,112
2025-03-17 18:38:39.152,-498.0,70.0,893.0,-1.0,-1.0,0.0,121,94,147,103,114
2025-03-17 18:38:39.178,-515.0,58.0,859.0,4.0,-2.0,0.0,121,93,146,103,113
2025-03-17 18:38:39.200,-487.0,76.0,906.0,0.0,2.0,1.0,120,93,147,103,113
2025-03-17 18:38:39.224,-498.0,98.0,881.0,3.0,-1.0,1.0,119,93,145,103,112
2025-03-17 18:38:39.249,-512.0,70.0,913.0,-2.0,-2.0,0.0,120,92,145,102,112
2025-03-17 18:38:39.273,-502.0,90.0,916.0,0.0,-6.0,0.0,122,93,145,102,112
2025-03-17 18:38:39.286,-493.0,60.0,906.0,1.0,-5.0,0.0,120,92,145,102,113
2025-03-17 18:38:39.322,-495.0,65.0,851.0,-2.0,-2.0,3.0,120,93,146,103,114
2025-03-17 18:38:39.346,-488.0,73.0,901.0,4.0,4.0,2.0,120,93,146,102,113
2025-03-17 18:38:39.368,-411.0,129.0,1066.0,-6.0,14.0,1.0,121,93,146,102,113
2025-03-17 18:38:39.392,-510.0,90.0,903.0,3.0,1.0,2.0,119,94,147,103,114
2025-03-17 18:38:39.417,-582.0,130.0,926.0,9.0,-8.0,2.0,121,93,146,104,114
2025-03-17 18:38:39.440,-489.0,101.0,950.0,0.0,-1.0,0.0,119,91,145,102,112
2025-03-17 18:38:39.466,-514.0,84.0,927.0,-2.0,1.0,0.0,119,93,145,103,113
2025-03-17 18:38:39.490,-511.0,87.0,893.0,-3.0,2.0,1.0,120,92,146,102,112
2025-03-17 18:38:39.514,-521.0,72.0,858.0,1.0,-7.0,0.0,122,92,146,102,113
2025-03-17 18:38:39.536,-506.0,80.0,973.0,-2.0,-10.0,0.0,121,92,145,102,111
2025-03-17 18:38:39.560,-495.0,67.0,900.0,-7.0,0.0,-2.0,120,93,147,103,111
2025-03-17 18:38:39.585,-504.0,52.0,753.0,-2.0,-6.0,-2.0,120,91,145,101,113
2025-03-17 18:38:39.608,-469.0,79.0,867.0,-6.0,6.0,-1.0,121,93,146,102,115
2025-03-17 18:38:39.625,-481.0,80.0,907.0,-2.0,3.0,-2.0,119,93,146,104,114
2025-03-17 18:38:39.656,-473.0,66.0,897.0,-2.0,3.0,-2.0,121,92,145,101,114
2025-03-17 18:38:39.683,-482.0,77.0,886.0,0.0,1.0,-1.0,120,91,145,102,113
2025-03-17 18:38:39.704,-501.0,83.0,875.0,-4.0,-1.0,-1.0,119,91,145,101,114
2025-03-17 18:38:39.728,-496.0,83.0,879.0,-4.0,-3.0,-1.0,119,92,146,103,114
2025-03-17 18:38:39.752,-493.0,69.0,899.0,-1.0,0.0,-1.0,120,92,146,102,114
2025-03-17 18:38:39.777,-526.0,91.0,862.0,5.0,-1.0,0.0,119,92,145,102,113
2025-03-17 18:38:39.802,-517.0,31.0,751.0,0.0,0.0,0.0,119,92,146,102,113
2025-03-17 18:38:39.826,-498.0,116.0,865.0,1.0,1.0,-1.0,116,92,146,103,113
2025-03-17 18:38:39.850,-504.0,95.0,898.0,-2.0,0.0,-2.0,119,92,145,102,113
2025-03-17 18:38:39.870,-503.0,90.0,894.0,-2.0,1.0,-1.0,119,91,146,101,117
2025-03-17 18:38:39.893,-501.0,84.0,854.0,1.0,0.0,-1.0,118,92,145,101,114
2025-03-17 18:38:39.917,-510.0,90.0,884.0,-1.0,0.0,-1.0,119,92,145,102,113
2025-03-17 18:38:39.945,-492.0,86.0,907.0,-1.0,2.0,-1.0,119,93,144,101,114
2025-03-17 18:38:39.969,-492.0,81.0,890.0,0.0,3.0,-1.0,120,93,145,102,113
2025-03-17 18:38:39.993,-493.0,77.0,865.0,-3.0,3.0,0.0,119,93,147,101,114
2025-03-17 18:38:40.018,-494.0,75.0,839.0,-3.0,5.0,2.0,121,92,146,102,115
2025-03-17 18:38:40.043,-497.0,107.0,839.0,-1.0,2.0,-1.0,119,92,146,101,113
2025-03-17 18:38:40.064,-501.0,88.0,899.0,-5.0,0.0,-1.0,116,92,145,102,111
2025-03-17 18:38:40.088,-502.0,68.0,850.0,1.0,-5.0,1.0,119,91,144,101,114
2025-03-17 18:38:40.112,-497.0,104.0,936.0,3.0,-5.0,0.0,119,90,146,102,114
2025-03-17 18:38:40.138,-502.0,93.0,966.0,-1.0,-1.0,0.0,119,96,146,101,114
2025-03-17 18:38:40.162,-518.0,96.0,926.0,-1.0,-2.0,-1.0,118,92,146,98,112
2025-03-17 18:38:40.184,-524.0,92.0,919.0,-1.0,0.0,-1.0,118,92,146,103,113
2025-03-17 18:38:40.207,-548.0,91.0,865.0,0.0,-1.0,-1.0,118,92,145,101,114
2025-03-17 18:38:40.232,-508.0,90.0,909.0,-3.0,2.0,-4.0,119,94,145,101,114
2025-03-17 18:38:40.256,-505.0,75.0,923.0,-3.0,6.0,-2.0,117,91,144,101,113
2025-03-17 18:38:40.281,-511.0,100.0,831.0,-1.0,4.0,-1.0,118,91,145,101,113
2025-03-17 18:38:40.305,-505.0,81.0,879.0,-1.0,2.0,-1.0,118,94,145,100,113
2025-03-17 18:38:40.329,-501.0,83.0,930.0,-3.0,2.0,-1.0,121,92,145,102,113
2025-03-17 18:38:40.354,-511.0,63.0,915.0,1.0,2.0,0.0,119,92,144,102,114
2025-03-17 18:38:40.376,-503.0,82.0,917.0,1.0,4.0,0.0,118,92,146,102,114
2025-03-17 18:38:40.400,-506.0,94.0,901.0,0.0,4.0,0.0,118,92,147,100,114
2025-03-17 18:38:40.424,-508.0,79.0,924.0,-2.0,3.0,-2.0,117,92,144,105,114
2025-03-17 18:38:40.449,-511.0,63.0,874.0,-2.0,3.0,-1.0,119,94,145,102,113
2025-03-17 18:38:40.473,-517.0,67.0,876.0,-1.0,3.0,-1.0,119,92,146,101,113
2025-03-17 18:38:40.498,-524.0,63.0,897.0,-1.0,3.0,0.0,118,92,145,101,113
2025-03-17 18:38:40.510,-527.0,83.0,871.0,1.0,1.0,0.0,119,91,145,104,112
2025-03-17 18:38:40.547,-522.0,87.0,873.0,-1.0,2.0,-1.0,119,92,145,95,113
2025-03-17 18:38:40.568,-525.0,81.0,861.0,-1.0,1.0,-1.0,119,92,146,102,114
2025-03-17 18:38:40.592,-527.0,83.0,867.0,-2.0,0.0,0.0,120,92,146,101,113
2025-03-17 18:38:40.617,-526.0,89.0,862.0,-2.0,-2.0,1.0,118,92,146,102,114
2025-03-17 18:38:40.641,-524.0,98.0,875.0,-3.0,-3.0,1.0,119,91,146,101,114
2025-03-17 18:38:40.666,-529.0,81.0,876.0,0.0,-6.0,1.0,117,92,147,101,112
2025-03-17 18:38:40.688,-521.0,98.0,888.0,2.0,-4.0,1.0,118,91,145,101,112
2025-03-17 18:38:40.715,-529.0,104.0,881.0,1.0,-4.0,1.0,119,92,145,102,114
2025-03-17 18:38:40.736,-525.0,104.0,871.0,0.0,-6.0,0.0,118,91,145,101,113
2025-03-17 18:38:40.746,-513.0,96.0,893.0,-4.0,-6.0,0.0,118,92,145,101,114
2025-03-17 18:38:40.785,-513.0,97.0,861.0,-4.0,-8.0,0.0,121,92,145,98,113
2025-03-17 18:38:40.794,-528.0,127.0,876.0,-7.0,-10.0,-1.0,120,92,145,103,113
2025-03-17 18:38:40.834,-513.0,104.0,872.0,-15.0,-16.0,-3.0,119,92,145,101,113
2025-03-17 18:38:40.857,-494.0,85.0,911.0,-13.0,-16.0,-3.0,119,92,146,102,115
2025-03-17 18:38:40.881,-492.0,83.0,920.0,-8.0,-11.0,-3.0,118,92,144,101,112
2025-03-17 18:38:40.904,-471.0,79.0,935.0,-6.0,-8.0,-3.0,119,92,145,101,108
2025-03-17 18:38:40.928,-489.0,83.0,914.0,-4.0,-8.0,-1.0,119,92,146,102,112
2025-03-17 18:38:40.953,-483.0,130.0,911.0,-10.0,-11.0,-6.0,119,92,146,99,114
2025-03-17 18:38:40.977,-490.0,94.0,897.0,-15.0,-11.0,-9.0,122,92,146,101,113
2025-03-17 18:38:41.001,-482.0,70.0,910.0,-11.0,-10.0,-8.0,120,92,145,101,112
2025-03-17 18:38:41.026,-482.0,131.0,886.0,-21.0,-10.0,-10.0,120,92,144,102,113
2025-03-17 18:38:41.051,-487.0,97.0,881.0,-36.0,-12.0,-13.0,119,92,145,104,112
2025-03-17 18:38:41.075,-458.0,31.0,888.0,-28.0,-16.0,-18.0,119,91,145,102,113
2025-03-17 18:38:41.096,-456.0,26.0,953.0,-14.0,-15.0,-16.0,119,92,145,101,114
2025-03-17 18:38:41.121,-460.0,47.0,908.0,-18.0,-8.0,-12.0,119,92,144,101,112
2025-03-17 18:38:41.146,-454.0,34.0,968.0,-21.0,-10.0,-14.0,119,91,145,99,113
2025-03-17 18:38:41.169,-433.0,42.0,965.0,-16.0,-9.0,-18.0,119,92,146,102,111
2025-03-17 18:38:41.194,-435.0,-19.0,907.0,-6.0,-4.0,-14.0,123,91,145,101,113
2025-03-17 18:38:41.207,-428.0,-41.0,903.0,3.0,1.0,-9.0,118,92,145,103,112
2025-03-17 18:38:41.240,-400.0,-54.0,945.0,11.0,7.0,-2.0,119,92,151,102,112
2025-03-17 18:38:41.265,-407.0,-16.0,1011.0,31.0,11.0,0.0,119,93,145,102,112
2025-03-17 18:38:41.289,-433.0,74.0,956.0,27.0,11.0,-6.0,117,86,145,102,110
2025-03-17 18:38:41.313,-456.0,45.0,971.0,16.0,3.0,-10.0,120,91,145,101,109
2025-03-17 18:38:41.335,-414.0,4.0,960.0,11.0,1.0,-11.0,118,92,138,102,106
2025-03-17 18:38:41.361,-396.0,-50.0,982.0,13.0,8.0,-13.0,119,92,145,102,105
2025-03-17 18:38:41.387,-445.0,-76.0,956.0,18.0,11.0,-14.0,119,92,146,99,105
2025-03-17 18:38:41.407,-463.0,-47.0,912.0,4.0,8.0,-13.0,118,91,146,103,105
2025-03-17 18:38:41.432,-456.0,-49.0,875.0,-12.0,2.0,-18.0,121,92,146,103,104
2025-03-17 18:38:41.457,-461.0,-73.0,873.0,-19.0,5.0,-19.0,119,90,143,103,106
2025-03-17 18:38:41.482,-526.0,-79.0,851.0,-24.0,5.0,-15.0,120,90,145,100,104
2025-03-17 18:38:41.506,-506.0,-6.0,834.0,-43.0,2.0,-17.0,120,92,145,103,107
2025-03-17 18:38:41.530,-529.0,-67.0,805.0,-58.0,5.0,-25.0,120,90,145,102,105
2025-03-17 18:38:41.555,-602.0,-142.0,794.0,-45.0,-2.0,-18.0,121,91,145,100,105
2025-03-17 18:38:41.578,-555.0,-171.0,762.0,-19.0,-10.0,-5.0,120,90,142,101,106
2025-03-17 18:38:41.601,-564.0,-122.0,766.0,6.0,-15.0,7.0,121,91,145,102,106
2025-03-17 18:38:41.625,-560.0,-120.0,892.0,35.0,-22.0,13.0,121,91,146,102,107
2025-03-17 18:38:41.649,-535.0,-79.0,931.0,64.0,-21.0,12.0,121,91,145,102,108
2025-03-17 18:38:41.674,-499.0,-53.0,983.0,71.0,-11.0,21.0,124,92,145,103,110
2025-03-17 18:38:41.692,-458.0,57.0,1006.0,67.0,0.0,19.0,122,91,145,102,110
2025-03-17 18:38:41.723,-459.0,94.0,940.0,54.0,3.0,13.0,124,91,145,102,110
2025-03-17 18:38:41.747,-472.0,98.0,921.0,39.0,-3.0,12.0,121,91,146,102,113
2025-03-17 18:38:41.767,-418.0,114.0,940.0,18.0,-5.0,7.0,123,91,145,103,113
2025-03-17 18:38:41.793,-394.0,79.0,934.0,11.0,-1.0,3.0,123,87,146,102,112
2025-03-17 18:38:41.815,-381.0,25.0,928.0,25.0,8.0,11.0,122,92,146,103,113
2025-03-17 18:38:41.842,-405.0,110.0,906.0,32.0,13.0,13.0,125,92,145,102,114
2025-03-17 18:38:41.863,-452.0,165.0,885.0,21.0,6.0,9.0,124,92,145,103,112
2025-03-17 18:38:41.891,-459.0,183.0,886.0,13.0,-5.0,3.0,126,91,145,105,113
2025-03-17 18:38:41.915,-467.0,157.0,883.0,8.0,-11.0,2.0,124,92,145,101,114
2025-03-17 18:38:41.936,-456.0,140.0,916.0,8.0,-6.0,1.0,123,92,146,102,113
2025-03-17 18:38:41.958,-456.0,161.0,863.0,8.0,-5.0,1.0,125,92,144,103,116
2025-03-17 18:38:41.985,-439.0,181.0,968.0,7.0,-4.0,0.0,125,92,144,103,113
2025-03-17 18:38:42.009,-425.0,179.0,921.0,-2.0,-9.0,-6.0,123,92,147,103,117
2025-03-17 18:38:42.033,-409.0,166.0,920.0,-3.0,-8.0,-9.0,123,92,145,102,114
2025-03-17 18:38:42.059,-419.0,143.0,906.0,-8.0,-9.0,-9.0,125,91,146,103,119
2025-03-17 18:38:42.083,-396.0,141.0,915.0,-11.0,-7.0,-10.0,124,93,146,102,116
2025-03-17 18:38:42.104,-390.0,111.0,935.0,-14.0,-7.0,-11.0,123,92,147,103,115
2025-03-17 18:38:42.129,-416.0,95.0,911.0,-10.0,-4.0,-7.0,123,93,144,103,114
2025-03-17 18:38:42.153,-417.0,130.0,935.0,-6.0,-5.0,-4.0,123,93,145,103,115
2025-03-17 18:38:42.164,-422.0,149.0,929.0,-14.0,-5.0,-6.0,124,93,146,104,115
2025-03-17 18:38:42.202,-460.0,94.0,933.0,-12.0,-7.0,-3.0,123,92,146,102,115
2025-03-17 18:38:42.219,-443.0,130.0,945.0,-7.0,-8.0,-2.0,125,93,147,103,116
2025-03-17 18:38:42.251,-438.0,140.0,958.0,-3.0,-5.0,-4.0,125,92,145,103,115
2025-03-17 18:38:42.272,-439.0,130.0,964.0,-4.0,0.0,-5.0,124,93,145,104,116
2025-03-17 18:38:42.297,-453.0,100.0,955.0,-5.0,0.0,-6.0,124,93,145,103,114
2025-03-17 18:38:42.321,-437.0,72.0,952.0,-3.0,0.0,-3.0,125,92,145,103,116
2025-03-17 18:38:42.341,-438.0,102.0,939.0,0.0,-2.0,-4.0,121,93,145,104,115
2025-03-17 18:38:42.366,-425.0,85.0,934.0,1.0,-2.0,-6.0,124,93,142,101,115
2025-03-17 18:38:42.394,-405.0,72.0,941.0,-7.0,0.0,-6.0,123,94,146,103,116
2025-03-17 18:38:42.413,-427.0,61.0,930.0,-5.0,-1.0,-3.0,126,91,146,103,115
2025-03-17 18:38:42.439,-413.0,56.0,927.0,-6.0,-6.0,-2.0,126,93,146,103,115
2025-03-17 18:38:42.465,-402.0,60.0,949.0,-8.0,-2.0,-3.0,124,93,145,103,116
2025-03-17 18:38:42.488,-401.0,44.0,936.0,-5.0,3.0,-2.0,124,93,146,104,114
2025-03-17 18:38:42.512,-423.0,51.0,917.0,-5.0,6.0,0.0,123,92,145,104,115
2025-03-17 18:38:42.538,-413.0,63.0,934.0,-10.0,5.0,1.0,124,93,145,102,115
2025-03-17 18:38:42.562,-414.0,43.0,897.0,-10.0,7.0,2.0,125,92,144,103,113
2025-03-17 18:38:42.586,-445.0,48.0,893.0,-6.0,8.0,7.0,124,93,145,105,115
2025-03-17 18:38:42.608,-460.0,106.0,898.0,-7.0,1.0,4.0,123,94,147,104,116
2025-03-17 18:38:42.633,-456.0,105.0,908.0,-11.0,-3.0,-1.0,123,92,146,103,115
2025-03-17 18:38:42.656,-455.0,67.0,927.0,-11.0,-4.0,-3.0,123,93,145,103,116
2025-03-17 18:38:42.667,-452.0,60.0,899.0,-6.0,-3.0,-1.0,125,92,145,104,115
2025-03-17 18:38:42.705,-458.0,96.0,906.0,-3.0,-12.0,-3.0,122,92,145,103,115
2025-03-17 18:38:42.729,-446.0,72.0,920.0,-6.0,-12.0,-2.0,124,93,146,103,114
2025-03-17 18:38:42.746,-449.0,120.0,885.0,-9.0,-12.0,-4.0,124,92,145,104,114
2025-03-17 18:38:42.778,-440.0,170.0,828.0,-24.0,-13.0,-12.0,124,93,146,103,115
2025-03-17 18:38:42.801,-439.0,94.0,816.0,-27.0,-21.0,-16.0,124,95,145,103,115
2025-03-17 18:38:42.825,-410.0,54.0,867.0,-13.0,-23.0,-20.0,123,93,146,102,116
2025-03-17 18:38:42.849,-390.0,56.0,818.0,-21.0,-36.0,-18.0,128,94,145,104,115
2025-03-17 18:38:42.874,-410.0,32.0,846.0,-34.0,-47.0,-22.0,125,93,145,104,115
2025-03-17 18:38:42.898,-335.0,101.0,1270.0,-130.0,-41.0,-33.0,125,93,146,103,114
2025-03-17 18:38:42.923,-153.0,43.0,1927.0,-316.0,23.0,-54.0,122,86,145,102,109
2025-03-17 18:38:42.947,252.0,-730.0,2010.0,-451.0,125.0,-36.0,123,70,144,102,88
2025-03-17 18:38:42.958,116.0,-1927.0,2155.0,-352.0,176.0,44.0,122,52,138,96,68
2025-03-17 18:38:42.990,6.0,-1707.0,1362.0,-345.0,255.0,172.0,123,41,123,86,56
2025-03-17 18:38:43.017,-754.0,-1351.0,803.0,-234.0,211.0,303.0,111,38,107,35,35
2025-03-17 18:38:43.042,-737.0,-757.0,556.0,-166.0,181.0,281.0,121,36,100,30,33
2025-03-17 18:38:43.066,-616.0,-25.0,298.0,-150.0,136.0,261.0,121,36,97,52,34
2025-03-17 18:38:43.090,-497.0,205.0,123.0,-106.0,121.0,221.0,122,35,96,53,32
2025-03-17 18:38:43.114,-694.0,863.0,-61.0,-93.0,110.0,160.0,122,36,95,55,32
2025-03-17 18:38:43.135,-791.0,1140.0,-125.0,-102.0,93.0,75.0,120,36,94,62,32
2025-03-17 18:38:43.159,-738.0,960.0,-270.0,-44.0,80.0,38.0,115,37,94,64,35
2025-03-17 18:38:43.185,-690.0,1387.0,-536.0,43.0,37.0,37.0,125,35,96,64,37
2025-03-17 18:38:43.209,-803.0,2479.0,-1015.0,91.0,-45.0,-117.0,124,36,96,66,35
2025-03-17 18:38:43.234,-662.0,3071.0,-1412.0,29.0,-189.0,-470.0,124,35,97,66,33
2025-03-17 18:38:43.257,14.0,3370.0,-1690.0,-32.0,-372.0,-931.0,125,29,98,64,31
2025-03-17 18:38:43.283,2206.0,1804.0,-1968.0,-72.0,-815.0,-1245.0,124,31,98,63,34
2025-03-17 18:38:43.307,8625.0,-2400.0,2632.0,-554.0,-415.0,-699.0,125,37,98,63,35
2025-03-17 18:38:43.329,4297.0,-8527.0,-621.0,133.0,181.0,-84.0,123,26,96,63,34
2025-03-17 18:38:43.353,1818.0,-2182.0,194.0,124.0,44.0,260.0,123,31,97,65,35
2025-03-17 18:38:43.378,1009.0,-1868.0,548.0,-53.0,44.0,219.0,120,36,97,62,34
2025-03-17 18:38:43.402,345.0,-1845.0,172.0,-68.0,22.0,288.0,120,39,98,64,34
2025-03-17 18:38:43.427,494.0,-1355.0,527.0,-25.0,56.0,381.0,123,39,99,66,37
2025-03-17 18:38:43.451,34.0,-644.0,263.0,39.0,80.0,393.0,124,38,100,66,38
2025-03-17 18:38:43.472,-110.0,-412.0,201.0,46.0,80.0,366.0,124,39,102,67,37
2025-03-17 18:38:43.497,-70.0,-311.0,299.0,46.0,110.0,355.0,124,40,98,67,38
2025-03-17 18:38:43.521,-271.0,-248.0,52.0,74.0,107.0,352.0,124,36,101,66,38
2025-03-17 18:38:43.546,-201.0,-88.0,167.0,100.0,102.0,364.0,121,37,103,68,38
2025-03-17 18:38:43.570,-142.0,384.0,66.0,167.0,136.0,411.0,123,39,103,69,40
2025-03-17 18:38:43.594,-452.0,1413.0,-887.0,300.0,116.0,415.0,117,39,104,72,39
2025-03-17 18:38:43.619,-1125.0,4245.0,-1754.0,235.0,-50.0,97.0,142,54,127,95,65
2025-03-17 18:38:43.631,-603.0,4834.0,-1720.0,19.0,-236.0,-501.0,133,48,112,78,45
2025-03-17 18:38:43.661,189.0,3888.0,-1990.0,-194.0,-474.0,-1026.0,123,47,112,77,43
2025-03-17 18:38:43.690,4147.0,2199.0,-1529.0,-318.0,-835.0,-1363.0,140,53,118,83,54
2025-03-17 18:38:43.714,8983.0,-5474.0,1152.0,-704.0,-249.0,-605.0,145,60,124,90,63
2025-03-17 18:38:43.738,3810.0,-7308.0,-1380.0,162.0,209.0,-15.0,124,37,107,74,44
2025-03-17 18:38:43.762,943.0,-2337.0,-340.0,67.0,11.0,244.0,117,44,110,79,48
2025-03-17 18:38:43.787,509.0,-1672.0,367.0,20.0,-51.0,244.0,128,46,109,77,46
2025-03-17 18:38:43.808,220.0,-1337.0,723.0,7.0,4.0,263.0,131,51,113,80,53
2025-03-17 18:38:43.833,-251.0,-677.0,403.0,33.0,41.0,243.0,143,53,118,82,58
2025-03-17 18:38:43.856,-324.0,-422.0,377.0,-31.0,21.0,207.0,144,53,121,84,58
2025-03-17 18:38:43.873,-114.0,-721.0,263.0,-55.0,0.0,210.0,146,54,121,85,58
2025-03-17 18:38:43.906,36.0,-991.0,440.0,15.0,37.0,250.0,154,57,126,90,64
2025-03-17 18:38:43.930,-163.0,-521.0,194.0,46.0,60.0,283.0,151,55,121,83,58
2025-03-17 18:38:43.955,-205.0,-561.0,210.0,101.0,62.0,310.0,147,43,116,78,49
2025-03-17 18:38:43.976,-56.0,-429.0,436.0,178.0,87.0,332.0,143,43,115,77,50
2025-03-17 18:38:44.000,-152.0,26.0,293.0,241.0,125.0,337.0,147,51,120,85,59
2025-03-17 18:38:44.025,-792.0,1604.0,-202.0,195.0,125.0,241.0,163,70,136,100,76
2025-03-17 18:38:44.049,-1174.0,2986.0,-781.0,127.0,50.0,-7.0,160,66,131,96,68
2025-03-17 18:38:44.074,-1647.0,4277.0,-2148.0,-72.0,-130.0,-457.0,160,69,129,96,65
2025-03-17 18:38:44.099,-561.0,3546.0,-2378.0,-241.0,-475.0,-906.0,184,75,152,119,92
2025-03-17 18:38:44.123,3961.0,1603.0,-2154.0,-411.0,-898.0,-1097.0,149,45,110,75,48
2025-03-17 18:38:44.147,7243.0,-4429.0,1418.0,-512.0,-515.0,-573.0,148,41,110,77,46
2025-03-17 18:38:44.168,3919.0,-6179.0,-870.0,278.0,223.0,-25.0,148,34,111,75,48
2025-03-17 18:38:44.191,1146.0,-1980.0,-676.0,157.0,72.0,81.0,149,42,110,75,49
2025-03-17 18:38:44.217,640.0,-2369.0,697.0,28.0,8.0,135.0,149,38,119,76,50
2025-03-17 18:38:44.242,575.0,-1623.0,842.0,47.0,91.0,201.0,161,60,123,89,61
2025-03-17 18:38:44.266,1.0,-1294.0,315.0,57.0,106.0,207.0,152,50,113,79,52
2025-03-17 18:38:44.291,27.0,-730.0,327.0,12.0,68.0,213.0,150,47,112,77,49
2025-03-17 18:38:44.312,121.0,-943.0,414.0,1.0,78.0,253.0,151,48,113,78,51
2025-03-17 18:38:44.336,234.0,-661.0,347.0,115.0,164.0,220.0,150,47,111,76,47
2025-03-17 18:38:44.361,-30.0,-545.0,237.0,91.0,162.0,232.0,148,45,110,75,46
2025-03-17 18:38:44.385,-45.0,-708.0,268.0,89.0,144.0,299.0,145,43,110,74,46
2025-03-17 18:38:44.408,90.0,-476.0,215.0,206.0,190.0,285.0,147,44,111,76,47
2025-03-17 18:38:44.425,-24.0,-154.0,426.0,208.0,221.0,333.0,154,51,120,87,57
2025-03-17 18:38:44.456,-364.0,557.0,44.0,219.0,240.0,343.0,139,48,117,80,49
2025-03-17 18:38:44.484,-1049.0,1858.0,-641.0,157.0,164.0,166.0,145,48,115,80,49
2025-03-17 18:38:44.504,-1473.0,3104.0,-1361.0,3.0,-3.0,-153.0,142,40,111,77,46
2025-03-17 18:38:44.529,-1397.0,3476.0,-2375.0,-218.0,-275.0,-641.0,142,47,113,79,47
2025-03-17 18:38:44.553,57.0,2594.0,-2971.0,-267.0,-700.0,-1045.0,141,39,108,73,43
2025-03-17 18:38:44.577,5236.0,-990.0,753.0,-259.0,-808.0,-757.0,147,39,110,74,41
2025-03-17 18:38:44.602,5083.0,-5137.0,1460.0,-332.0,-206.0,-323.0,147,43,110,74,42
2025-03-17 18:38:44.626,2238.0,-4203.0,-482.0,171.0,110.0,36.0,143,43,108,72,44
2025-03-17 18:38:44.650,901.0,-1912.0,343.0,37.0,31.0,91.0,147,39,107,75,46
2025-03-17 18:38:44.673,530.0,-1940.0,660.0,0.0,48.0,141.0,148,45,110,76,47
2025-03-17 18:38:44.697,155.0,-1390.0,348.0,5.0,97.0,173.0,151,45,109,76,46
2025-03-17 18:38:44.721,59.0,-1124.0,179.0,-11.0,75.0,199.0,153,50,118,85,54
2025-03-17 18:38:44.746,205.0,-955.0,394.0,-20.0,80.0,209.0,153,52,116,84,55
2025-03-17 18:38:44.770,486.0,-1328.0,495.0,29.0,119.0,288.0,149,43,113,81,50
2025-03-17 18:38:44.794,658.0,-1000.0,322.0,217.0,202.0,383.0,142,45,115,81,47
2025-03-17 18:38:44.819,113.0,-788.0,315.0,333.0,292.0,439.0,141,44,118,79,46
2025-03-17 18:38:44.839,370.0,-454.0,-221.0,315.0,214.0,465.0,137,45,127,47,65
2025-03-17 18:38:44.865,-90.0,-121.0,321.0,319.0,223.0,475.0,134,48,135,43,74
2025-03-17 18:38:44.887,-572.0,1250.0,-253.0,336.0,249.0,412.0,132,60,139,81,95
2025-03-17 18:38:44.903,-617.0,1730.0,-1067.0,243.0,103.0,246.0,127,64,142,98,104
2025-03-17 18:38:44.936,-877.0,2980.0,-2104.0,102.0,-65.0,-88.0,130,67,144,98,109
2025-03-17 18:38:44.962,-604.0,2786.0,-2399.0,-258.0,-329.0,-532.0,132,76,143,98,95
2025-03-17 18:38:44.987,305.0,1197.0,-1859.0,-360.0,-666.0,-855.0,129,86,142,101,105
2025-03-17 18:38:45.011,4147.0,346.0,2175.0,-787.0,-859.0,-932.0,135,73,145,100,108
2025-03-17 18:38:45.035,4058.0,-3413.0,1234.0,-710.0,-306.0,-629.0,138,64,148,102,112
2025-03-17 18:38:45.058,3491.0,-6169.0,-108.0,173.0,7.0,65.0,138,62,148,104,120
2025-03-17 18:38:45.082,1011.0,-2607.0,311.0,300.0,188.0,284.0,140,88,148,104,120
2025-03-17 18:38:45.106,23.0,-1229.0,722.0,10.0,66.0,200.0,135,82,148,108,118
2025-03-17 18:38:45.130,-375.0,-1236.0,707.0,36.0,66.0,199.0,140,81,148,104,119
2025-03-17 18:38:45.153,-38.0,-1169.0,550.0,33.0,117.0,236.0,140,87,147,105,120
2025-03-17 18:38:45.177,-91.0,-740.0,422.0,91.0,158.0,267.0,141,90,148,106,117
2025-03-17 18:38:45.195,-82.0,-333.0,229.0,145.0,129.0,244.0,141,97,148,107,112
2025-03-17 18:38:45.227,-247.0,-406.0,230.0,58.0,118.0,208.0,141,103,150,106,107
2025-03-17 18:38:45.250,-187.0,-514.0,412.0,111.0,128.0,220.0,142,89,149,107,112
2025-03-17 18:38:45.274,-132.0,-478.0,506.0,106.0,167.0,258.0,141,92,149,106,113
2025-03-17 18:38:45.299,-407.0,-314.0,347.0,151.0,175.0,289.0,139,103,147,105,110
2025-03-17 18:38:45.323,-473.0,253.0,18.0,119.0,63.0,275.0,138,97,148,105,106
2025-03-17 18:38:45.348,-695.0,725.0,-674.0,273.0,-16.0,235.0,136,83,147,106,112
2025-03-17 18:38:45.372,-615.0,1628.0,-1069.0,188.0,-11.0,112.0,132,93,148,106,119
2025-03-17 18:38:45.397,-1392.0,2481.0,-1796.0,140.0,-151.0,-232.0,131,101,148,107,118
2025-03-17 18:38:45.420,-936.0,2363.0,-2381.0,-186.0,-336.0,-673.0,132,99,148,109,112
2025-03-17 18:38:45.445,2343.0,1590.0,1095.0,-786.0,-815.0,-1186.0,135,102,148,106,121
2025-03-17 18:38:45.471,4524.0,-2569.0,1238.0,-621.0,-592.0,-1061.0,139,99,147,108,120
2025-03-17 18:38:45.492,4803.0,-7952.0,-290.0,-13.0,-203.0,-3.0,136,94,149,109,119
2025-03-17 18:38:45.519,2159.0,-3002.0,611.0,482.0,341.0,361.0,138,73,150,108,119
2025-03-17 18:38:45.544,-300.0,-706.0,372.0,104.0,171.0,283.0,140,95,143,108,115
2025-03-17 18:38:45.567,-688.0,-189.0,1569.0,-113.0,-35.0,162.0,142,106,148,110,117
2025-03-17 18:38:45.590,-61.0,-1855.0,329.0,9.0,55.0,197.0,141,110,149,109,118
2025-03-17 18:38:45.614,148.0,-1234.0,549.0,62.0,139.0,252.0,142,109,149,108,117
2025-03-17 18:38:45.639,88.0,-690.0,361.0,75.0,181.0,306.0,140,86,147,106,114
2025-03-17 18:38:45.649,10.0,-666.0,478.0,110.0,166.0,338.0,141,102,147,106,113
2025-03-17 18:38:45.688,20.0,-17.0,847.0,189.0,209.0,287.0,140,79,147,105,111
2025-03-17 18:38:45.711,-225.0,-256.0,351.0,98.0,239.0,266.0,139,86,145,106,109
2025-03-17 18:38:45.733,-575.0,-198.0,82.0,64.0,190.0,277.0,140,73,145,105,104
2025-03-17 18:38:45.758,-740.0,76.0,-297.0,115.0,47.0,323.0,136,55,143,101,95
2025-03-17 18:38:45.782,-545.0,726.0,-273.0,91.0,38.0,246.0,137,49,138,76,78
2025-03-17 18:38:45.807,-760.0,2446.0,-812.0,31.0,29.0,-27.0,125,38,131,0,52
2025-03-17 18:38:45.831,-989.0,4564.0,-2697.0,-82.0,-110.0,-566.0,131,34,120,1,42
2025-03-17 18:38:45.856,270.0,2355.0,-2713.0,-311.0,-431.0,-938.0,123,31,112,53,30
2025-03-17 18:38:45.880,2949.0,-199.0,-1916.0,-220.0,-914.0,-895.0,134,34,107,63,34
2025-03-17 18:38:45.904,6353.0,-4247.0,2972.0,-196.0,-593.0,-416.0,128,28,109,70,38
2025-03-17 18:38:45.926,2682.0,-5737.0,760.0,29.0,106.0,-108.0,140,27,109,70,38
2025-03-17 18:38:45.947,1264.0,-3364.0,729.0,109.0,24.0,124.0,140,36,109,70,40
2025-03-17 18:38:45.974,571.0,-2281.0,907.0,-32.0,46.0,156.0,137,38,112,71,40
2025-03-17 18:38:45.999,528.0,-1630.0,889.0,1.0,73.0,197.0,143,37,105,69,38
2025-03-17 18:38:46.012,165.0,-1064.0,377.0,46.0,118.0,219.0,144,38,110,71,39
2025-03-17 18:38:46.048,111.0,-818.0,311.0,27.0,119.0,264.0,142,38,109,73,38
2025-03-17 18:38:46.073,280.0,-402.0,339.0,105.0,165.0,213.0,143,34,110,70,39
2025-03-17 18:38:46.092,-128.0,-252.0,208.0,23.0,145.0,200.0,142,42,111,71,39
2025-03-17 18:38:46.118,-211.0,-475.0,263.0,23.0,106.0,203.0,147,41,111,72,37
2025-03-17 18:38:46.143,-296.0,-205.0,368.0,74.0,127.0,176.0,143,39,112,70,39
2025-03-17 18:38:46.167,-254.0,-96.0,449.0,36.0,154.0,172.0,141,40,112,74,40
2025-03-17 18:38:46.190,-588.0,-71.0,251.0,71.0,147.0,148.0,142,39,113,75,40
2025-03-17 18:38:46.214,-925.0,970.0,139.0,73.0,104.0,58.0,144,39,114,76,40
2025-03-17 18:38:46.240,-1125.0,1937.0,-462.0,21.0,56.0,-112.0,124,33,114,75,38
2025-03-17 18:38:46.262,-1796.0,2566.0,-1742.0,-21.0,-97.0,-345.0,137,38,113,73,38
2025-03-17 18:38:46.286,-807.0,3352.0,-2557.0,-221.0,-519.0,-815.0,139,37,112,72,36
2025-03-17 18:38:46.311,5627.0,-1047.0,1183.0,-652.0,-712.0,-772.0,142,37,111,73,38
2025-03-17 18:38:46.335,4567.0,-7903.0,360.0,-21.0,97.0,-158.0,142,37,111,73,39
2025-03-17 18:38:46.360,1250.0,-1916.0,-1135.0,165.0,52.0,30.0,132,34,112,75,41
2025-03-17 18:38:46.384,1043.0,-3300.0,228.0,-46.0,-24.0,75.0,144,35,114,75,41
2025-03-17 18:38:46.408,429.0,-1803.0,567.0,78.0,43.0,167.0,143,39,113,74,41
2025-03-17 18:38:46.430,242.0,-1265.0,419.0,46.0,76.0,162.0,145,40,114,75,41
2025-03-17 18:38:46.454,-27.0,-1110.0,103.0,36.0,65.0,193.0,142,39,114,74,41
2025-03-17 18:38:46.479,-62.0,-914.0,110.0,-18.0,19.0,261.0,144,39,115,77,42
2025-03-17 18:38:46.502,517.0,-910.0,540.0,10.0,74.0,293.0,144,39,113,76,40
2025-03-17 18:38:46.528,342.0,-895.0,385.0,102.0,164.0,322.0,143,38,113,78,43
2025-03-17 18:38:46.552,249.0,-681.0,227.0,160.0,170.0,365.0,139,42,117,81,42
2025-03-17 18:38:46.576,261.0,-631.0,-102.0,243.0,210.0,406.0,136,34,119,85,44
2025-03-17 18:38:46.598,43.0,240.0,-225.0,255.0,278.0,396.0,135,43,122,85,45
2025-03-17 18:38:46.622,0.0,734.0,-344.0,214.0,252.0,365.0,118,36,128,85,45
2025-03-17 18:38:46.646,-427.0,909.0,-870.0,322.0,264.0,326.0,134,48,134,85,43
2025-03-17 18:38:46.671,-1559.0,3173.0,-1704.0,88.0,-24.0,24.0,135,51,138,85,40
2025-03-17 18:38:46.693,-1167.0,3433.0,-1669.0,63.0,-346.0,-601.0,137,59,143,84,42
2025-03-17 18:38:46.720,-295.0,2305.0,-1567.0,119.0,-704.0,-915.0,127,81,145,68,40
2025-03-17 18:38:46.744,3283.0,-1359.0,236.0,50.0,-944.0,-773.0,105,76,146,81,44
2025-03-17 18:38:46.765,4381.0,-3090.0,2126.0,-150.0,-607.0,-263.0,99,60,148,76,47
2025-03-17 18:38:46.790,3465.0,-3827.0,1917.0,113.0,-17.0,12.0,99,58,149,77,47
2025-03-17 18:38:46.814,722.0,-1785.0,1340.0,49.0,76.0,80.0,119,93,149,79,48
2025-03-17 18:38:46.839,417.0,-1474.0,1610.0,-58.0,49.0,123.0,111,86,149,80,49
2025-03-17 18:38:46.863,411.0,-1335.0,1386.0,-38.0,142.0,146.0,117,94,149,82,48
2025-03-17 18:38:46.886,73.0,-987.0,864.0,-20.0,179.0,179.0,107,99,149,85,49
2025-03-17 18:38:46.911,36.0,-585.0,684.0,-43.0,168.0,181.0,98,101,149,85,49
2025-03-17 18:38:46.934,299.0,-833.0,702.0,-24.0,190.0,207.0,115,103,148,86,48
2025-03-17 18:38:46.958,181.0,-635.0,512.0,39.0,240.0,245.0,113,98,150,89,49
2025-03-17 18:38:46.982,-178.0,-149.0,328.0,23.0,240.0,277.0,117,97,149,88,49
2025-03-17 18:38:47.006,-363.0,33.0,208.0,-50.0,190.0,280.0,120,94,149,88,48
2025-03-17 18:38:47.032,-181.0,-247.0,142.0,67.0,217.0,254.0,113,92,149,90,50
2025-03-17 18:38:47.056,-448.0,156.0,-199.0,160.0,211.0,257.0,110,108,149,86,49
2025-03-17 18:38:47.080,-887.0,1054.0,-389.0,53.0,113.0,198.0,118,92,149,86,45
2025-03-17 18:38:47.104,-1251.0,1808.0,-866.0,31.0,-27.0,-66.0,119,106,148,88,48
2025-03-17 18:38:47.126,-1515.0,2354.0,-1625.0,81.0,-269.0,-402.0,102,103,149,85,48
2025-03-17 18:38:47.148,-880.0,2802.0,-2166.0,20.0,-765.0,-789.0,112,104,148,88,49
2025-03-17 18:38:47.175,3977.0,-278.0,15.0,-171.0,-938.0,-875.0,97,95,153,87,50
2025-03-17 18:38:47.199,4786.0,-4245.0,1877.0,-103.0,-465.0,-247.0,95,90,150,85,51
2025-03-17 18:38:47.223,3161.0,-3265.0,2172.0,140.0,61.0,45.0,115,77,150,91,54
2025-03-17 18:38:47.248,752.0,-1492.0,1650.0,-38.0,69.0,108.0,109,92,150,85,55
2025-03-17 18:38:47.273,261.0,-1253.0,1747.0,-49.0,126.0,118.0,106,102,148,84,54
2025-03-17 18:38:47.294,104.0,-957.0,1101.0,-68.0,148.0,128.0,111,102,149,83,54
2025-03-17 18:38:47.318,280.0,-1140.0,572.0,-57.0,139.0,153.0,116,97,148,86,54
2025-03-17 18:38:47.341,480.0,-905.0,644.0,-63.0,164.0,192.0,110,99,149,85,55
2025-03-17 18:38:47.366,343.0,-828.0,633.0,-47.0,209.0,257.0,124,106,150,87,56
2025-03-17 18:38:47.389,43.0,-569.0,560.0,-50.0,210.0,297.0,119,87,149,86,57
2025-03-17 18:38:47.415,-106.0,-342.0,434.0,-61.0,181.0,299.0,131,92,148,86,59
2025-03-17 18:38:47.440,-215.0,-336.0,371.0,-86.0,164.0,300.0,134,84,148,81,59
2025-03-17 18:38:47.448,-324.0,-149.0,230.0,-58.0,150.0,276.0,134,77,147,52,60
2025-03-17 18:38:47.486,-639.0,17.0,92.0,40.0,103.0,243.0,135,76,143,58,57
2025-03-17 18:38:47.510,-796.0,1426.0,-39.0,106.0,78.0,114.0,132,50,140,60,55
2025-03-17 18:38:47.536,-936.0,2316.0,-610.0,80.0,6.0,-140.0,132,41,134,74,52
2025-03-17 18:38:47.560,-1316.0,3034.0,-1928.0,-40.0,-156.0,-484.0,130,37,126,80,46
2025-03-17 18:38:47.584,437.0,2329.0,-2382.0,-162.0,-428.0,-806.0,122,38,120,77,41
2025-03-17 18:38:47.608,2746.0,-819.0,-985.0,-260.0,-647.0,-743.0,127,35,120,79,43
2025-03-17 18:38:47.633,4510.0,-4539.0,1578.0,-306.0,-307.0,-427.0,134,35,122,84,43
2025-03-17 18:38:47.654,2086.0,-5339.0,291.0,186.0,51.0,-35.0,134,32,123,85,43
2025-03-17 18:38:47.678,809.0,-2052.0,532.0,105.0,41.0,76.0,135,33,123,83,43
2025-03-17 18:38:47.703,260.0,-2161.0,788.0,-29.0,48.0,96.0,135,36,122,83,42
2025-03-17 18:38:47.727,484.0,-1888.0,395.0,6.0,78.0,186.0,137,35,124,83,43
2025-03-17 18:38:47.752,477.0,-1248.0,169.0,17.0,53.0,220.0,140,36,123,84,43
2025-03-17 18:38:47.776,387.0,-1025.0,190.0,54.0,82.0,218.0,139,38,126,85,45
2025-03-17 18:38:47.798,229.0,-813.0,393.0,75.0,113.0,249.0,137,38,125,84,46
2025-03-17 18:38:47.820,112.0,-491.0,415.0,76.0,107.0,275.0,140,39,123,86,45
2025-03-17 18:38:47.847,-79.0,-253.0,453.0,116.0,146.0,263.0,139,38,124,84,46
2025-03-17 18:38:47.870,-189.0,12.0,417.0,117.0,160.0,228.0,140,39,124,84,43
2025-03-17 18:38:47.896,-348.0,-164.0,278.0,98.0,191.0,238.0,135,36,123,83,48
2025-03-17 18:38:47.920,-175.0,21.0,178.0,204.0,196.0,242.0,137,36,124,84,43
2025-03-17 18:38:47.944,-516.0,1544.0,-301.0,224.0,181.0,169.0,135,39,124,85,44
2025-03-17 18:38:47.966,-1655.0,3653.0,-1740.0,86.0,26.0,-199.0,136,36,125,84,44
2025-03-17 18:38:47.990,-1397.0,3230.0,-2591.0,-167.0,-344.0,-662.0,132,34,125,84,44
2025-03-17 18:38:48.014,1404.0,2468.0,-2098.0,-299.0,-699.0,-956.0,136,32,124,86,45
2025-03-17 18:38:48.038,5356.0,-2572.0,-238.0,-405.0,-808.0,-723.0,138,25,123,85,45
2025-03-17 18:38:48.063,5237.0,-6543.0,1775.0,-86.0,-76.0,-181.0,142,40,126,87,45
2025-03-17 18:38:48.088,1797.0,-3660.0,-670.0,283.0,232.0,124.0,140,40,124,86,46
2025-03-17 18:38:48.113,535.0,-1644.0,480.0,4.0,62.0,136.0,138,38,122,86,46
2025-03-17 18:38:48.133,416.0,-1956.0,843.0,46.0,101.0,168.0,140,42,123,85,46
2025-03-17 18:38:48.158,332.0,-1301.0,516.0,62.0,158.0,198.0,140,42,124,83,46
2025-03-17 18:38:48.170,169.0,-1278.0,256.0,20.0,139.0,246.0,138,42,125,85,48
2025-03-17 18:38:48.207,116.0,-860.0,102.0,11.0,110.0,272.0,135,36,122,86,47
2025-03-17 18:38:48.231,539.0,-568.0,653.0,62.0,212.0,263.0,135,42,122,84,47
2025-03-17 18:38:48.256,226.0,-558.0,526.0,41.0,290.0,302.0,133,43,121,84,49
2025-03-17 18:38:48.279,-12.0,-539.0,186.0,23.0,260.0,358.0,131,47,122,85,49
2025-03-17 18:38:48.301,89.0,-367.0,183.0,46.0,226.0,380.0,126,36,119,83,43
2025-03-17 18:38:48.326,-595.0,-189.0,-139.0,106.0,201.0,352.0,121,37,117,82,44
2025-03-17 18:38:48.351,-803.0,876.0,-359.0,52.0,134.0,281.0,119,34,112,83,41
2025-03-17 18:38:48.375,-1067.0,2923.0,-826.0,-4.0,-4.0,-48.0,111,38,111,78,33
2025-03-17 18:38:48.399,-684.0,3467.0,-1741.0,20.0,-106.0,-457.0,94,38,109,77,41
2025-03-17 18:38:48.424,-1269.0,3326.0,-3002.0,-14.0,-478.0,-794.0,86,34,109,79,42
2025-03-17 18:38:48.448,2821.0,3888.0,-2038.0,-183.0,-1025.0,-1131.0,100,35,109,79,43
2025-03-17 18:38:48.473,7459.0,-4494.0,2163.0,-559.0,-523.0,-612.0,98,40,109,78,44
2025-03-17 18:38:48.497,4866.0,-6824.0,-389.0,342.0,314.0,33.0,92,32,108,78,44
2025-03-17 18:38:48.517,1042.0,-1656.0,-127.0,40.0,47.0,100.0,100,37,108,79,46
2025-03-17 18:38:48.543,1283.0,-3165.0,1009.0,-58.0,47.0,182.0,87,36,109,79,47
2025-03-17 18:38:48.566,712.0,-1880.0,532.0,-6.0,89.0,311.0,101,37,109,78,45
2025-03-17 18:38:48.593,236.0,-751.0,468.0,34.0,117.0,262.0,102,43,110,78,46
2025-03-17 18:38:48.616,-333.0,-419.0,278.0,-58.0,90.0,213.0,105,39,108,79,46
2025-03-17 18:38:48.641,-183.0,-758.0,231.0,-52.0,99.0,223.0,102,42,110,76,44
2025-03-17 18:38:48.665,166.0,-696.0,369.0,-8.0,116.0,264.0,103,44,111,77,45
2025-03-17 18:38:48.686,-25.0,-251.0,354.0,50.0,148.0,223.0,100,41,111,76,45
2025-03-17 18:38:48.703,-334.0,-368.0,112.0,25.0,147.0,223.0,104,38,111,76,45
2025-03-17 18:38:48.735,-214.0,-350.0,243.0,42.0,129.0,249.0,106,43,113,76,46
2025-03-17 18:38:48.760,-292.0,-480.0,156.0,77.0,148.0,337.0,106,43,113,76,46
2025-03-17 18:38:48.784,-227.0,155.0,-163.0,205.0,143.0,424.0,109,43,115,76,46
2025-03-17 18:38:48.809,-707.0,2190.0,-1074.0,266.0,113.0,224.0,113,43,113,78,45
2025-03-17 18:38:48.833,-1639.0,5344.0,-2021.0,-8.0,-115.0,-514.0,109,44,115,78,40
2025-03-17 18:38:48.858,-468.0,3768.0,-3020.0,-268.0,-478.0,-1072.0,100,41,112,77,45
2025-03-17 18:38:48.879,5222.0,2151.0,-240.0,-394.0,-803.0,-1280.0,84,38,112,77,43
2025-03-17 18:38:48.903,7392.0,-7224.0,1188.0,-316.0,-254.0,-466.0,99,40,112,75,46
2025-03-17 18:38:48.915,3026.0,-4892.0,-1815.0,411.0,225.0,153.0,103,0,110,77,49
2025-03-17 18:38:48.953,1385.0,-1977.0,293.0,-8.0,-41.0,111.0,104,26,111,76,48
2025-03-17 18:38:48.977,776.0,-2854.0,1010.0,80.0,26.0,237.0,93,40,114,79,48
2025-03-17 18:38:49.001,276.0,-1459.0,775.0,86.0,131.0,297.0,105,43,112,79,48
2025-03-17 18:38:49.023,-126.0,-773.0,548.0,48.0,146.0,292.0,108,43,113,79,52
2025-03-17 18:38:49.047,10.0,-650.0,157.0,20.0,128.0,327.0,108,41,112,78,47
2025-03-17 18:38:49.072,598.0,-839.0,476.0,131.0,212.0,323.0,113,40,113,77,48
2025-03-17 18:38:49.096,275.0,-583.0,-168.0,197.0,305.0,379.0,117,41,115,79,48
2025-03-17 18:38:49.120,-94.0,-237.0,-292.0,162.0,257.0,416.0,121,41,113,75,46
2025-03-17 18:38:49.144,-42.0,-76.0,-252.0,228.0,166.0,454.0,126,31,111,75,47
2025-03-17 18:38:49.157,-112.0,394.0,-480.0,457.0,147.0,415.0,127,0,107,75,45
2025-03-17 18:38:49.194,-1000.0,1254.0,-1367.0,369.0,73.0,261.0,127,32,103,71,40
2025-03-17 18:38:49.215,-1421.0,2591.0,-2359.0,224.0,-275.0,-109.0,114,58,102,71,41
2025-03-17 18:38:49.240,-763.0,2827.0,-3836.0,44.0,-895.0,-499.0,96,69,101,72,46
2025-03-17 18:38:49.264,3006.0,-425.0,-2253.0,3.0,-1302.0,-366.0,85,44,102,73,45
2025-03-17 18:38:49.288,5022.0,-1143.0,2056.0,696.0,-887.0,-180.0,67,56,104,75,43
2025-03-17 18:38:49.313,3054.0,631.0,4350.0,268.0,-120.0,-71.0,79,67,105,74,46
2025-03-17 18:38:49.337,1610.0,155.0,2723.0,0.0,-131.0,85.0,74,57,104,76,48
2025-03-17 18:38:49.359,1667.0,133.0,3822.0,-102.0,77.0,73.0,75,79,105,82,45
2025-03-17 18:38:49.369,619.0,281.0,2355.0,-108.0,288.0,36.0,80,84,105,79,46
2025-03-17 18:38:49.407,-201.0,215.0,943.0,-125.0,170.0,76.0,79,84,106,79,46
2025-03-17 18:38:49.432,314.0,-58.0,1299.0,-173.0,198.0,86.0,80,87,106,79,46
2025-03-17 18:38:49.455,558.0,-251.0,987.0,-123.0,361.0,75.0,82,86,104,77,45
2025-03-17 18:38:49.481,142.0,-305.0,315.0,-53.0,318.0,100.0,84,69,103,78,45
2025-03-17 18:38:49.497,-42.0,-1.0,415.0,-65.0,185.0,87.0,82,68,104,78,44
2025-03-17 18:38:49.530,245.0,-190.0,836.0,-120.0,232.0,110.0,89,68,104,77,45
2025-03-17 18:38:49.551,-331.0,-383.0,24.0,-74.0,239.0,148.0,86,70,105,79,44
2025-03-17 18:38:49.575,-392.0,68.0,257.0,62.0,198.0,102.0,86,71,105,78,45
2025-03-17 18:38:49.599,-470.0,671.0,280.0,15.0,212.0,70.0,87,78,105,78,46
2025-03-17 18:38:49.624,-1189.0,682.0,-527.0,-29.0,111.0,12.0,84,76,104,78,44
2025-03-17 18:38:49.649,-1785.0,1090.0,-2079.0,76.0,-171.0,-159.0,85,67,104,78,44
2025-03-17 18:38:49.673,-1337.0,1430.0,-4078.0,231.0,-880.0,-365.0,83,69,102,77,43
2025-03-17 18:38:49.697,3489.0,-952.0,-1133.0,354.0,-1216.0,-111.0,85,79,103,77,44
2025-03-17 18:38:49.719,3535.0,-217.0,4015.0,336.0,-565.0,-65.0,87,78,104,74,45
2025-03-17 18:38:49.740,2523.0,98.0,3095.0,127.0,-41.0,-31.0,82,77,104,73,47
2025-03-17 18:38:49.767,1731.0,384.0,3002.0,-27.0,15.0,79.0,85,80,106,76,47
2025-03-17 18:38:49.789,1150.0,581.0,2564.0,-182.0,202.0,70.0,90,85,105,78,47
2025-03-17 18:38:49.817,585.0,235.0,1884.0,-134.0,347.0,19.0,90,93,106,78,47
2025-03-17 18:38:49.841,211.0,100.0,990.0,-139.0,347.0,40.0,87,88,107,78,46
2025-03-17 18:38:49.865,357.0,-39.0,943.0,-237.0,359.0,114.0,89,85,106,77,45
2025-03-17 18:38:49.887,699.0,0.0,1113.0,-279.0,454.0,166.0,90,85,107,77,44
2025-03-17 18:38:49.911,721.0,-7.0,660.0,-231.0,543.0,190.0,93,68,108,78,46
2025-03-17 18:38:49.936,216.0,-14.0,268.0,-198.0,517.0,195.0,95,64,112,77,45
2025-03-17 18:38:49.959,45.0,-157.0,64.0,-139.0,413.0,225.0,104,47,117,77,47
2025-03-17 18:38:49.983,-367.0,0.0,-503.0,74.0,361.0,205.0,107,63,125,71,44
2025-03-17 18:38:50.000,-1057.0,-14.0,-712.0,116.0,214.0,199.0,106,74,128,14,60
2025-03-17 18:38:50.031,-875.0,153.0,-679.0,123.0,68.0,155.0,108,64,138,1,72
2025-03-17 18:38:50.054,-830.0,795.0,-435.0,88.0,-25.0,122.0,107,65,142,1,81
2025-03-17 18:38:50.079,-705.0,1104.0,-560.0,54.0,-76.0,14.0,107,79,141,85,92
2025-03-17 18:38:50.104,-786.0,1783.0,-1495.0,23.0,-239.0,-277.0,104,74,141,96,108
2025-03-17 18:38:50.129,-1073.0,1693.0,-1093.0,-234.0,-391.0,-627.0,108,83,141,97,109
2025-03-17 18:38:50.153,1133.0,1176.0,-1902.0,-479.0,-695.0,-963.0,109,87,145,99,113
2025-03-17 18:38:50.169,3711.0,-1193.0,410.0,-719.0,-829.0,-918.0,112,95,147,101,113
2025-03-17 18:38:50.201,4648.0,-4190.0,421.0,-453.0,-410.0,-482.0,115,72,150,102,119
2025-03-17 18:38:50.226,3534.0,-4817.0,694.0,264.0,78.0,125.0,116,84,148,103,120
2025-03-17 18:38:50.247,685.0,-1985.0,707.0,318.0,281.0,280.0,117,109,153,103,120
2025-03-17 18:38:50.272,91.0,-768.0,458.0,-15.0,83.0,190.0,119,102,148,103,118
2025-03-17 18:38:50.296,-82.0,-1236.0,508.0,-86.0,39.0,128.0,120,100,148,103,120
2025-03-17 18:38:50.321,-32.0,-1552.0,505.0,-23.0,84.0,191.0,120,111,147,105,119
2025-03-17 18:38:50.345,181.0,-854.0,493.0,71.0,139.0,239.0,122,100,148,105,122
2025-03-17 18:38:50.369,62.0,-531.0,511.0,121.0,151.0,261.0,121,93,148,106,118
2025-03-17 18:38:50.390,-44.0,-568.0,314.0,92.0,173.0,258.0,120,110,148,106,117
2025-03-17 18:38:50.415,-76.0,-364.0,273.0,104.0,188.0,270.0,120,90,147,106,116
2025-03-17 18:38:50.440,-124.0,-274.0,365.0,106.0,210.0,302.0,119,110,147,105,117
2025-03-17 18:38:50.464,-350.0,-291.0,-9.0,154.0,179.0,338.0,117,105,148,105,111
2025-03-17 18:38:50.489,-281.0,-677.0,-115.0,219.0,105.0,329.0,113,100,143,105,106
2025-03-17 18:38:50.513,-312.0,783.0,31.0,199.0,121.0,260.0,111,94,147,106,104
2025-03-17 18:38:50.537,-830.0,1649.0,-940.0,78.0,48.0,120.0,112,106,147,104,119
2025-03-17 18:38:50.561,-1181.0,1975.0,-1953.0,64.0,-162.0,-225.0,114,100,148,106,116
2025-03-17 18:38:50.586,-476.0,2556.0,-2003.0,-100.0,-404.0,-647.0,115,106,147,107,111
2025-03-17 18:38:50.607,852.0,958.0,-891.0,-349.0,-560.0,-973.0,117,102,147,107,119
2025-03-17 18:38:50.632,3147.0,-2656.0,68.0,-228.0,-725.0,-819.0,118,95,148,107,112
2025-03-17 18:38:50.657,4985.0,-3111.0,1183.0,-265.0,-606.0,-316.0,119,85,146,107,120
2025-03-17 18:38:50.666,3243.0,-5571.0,1697.0,-38.0,-39.0,117.0,120,91,147,107,122
2025-03-17 18:38:50.704,740.0,-1959.0,1192.0,272.0,280.0,291.0,122,108,148,108,122
2025-03-17 18:38:50.729,-144.0,-647.0,961.0,62.0,181.0,226.0,124,109,149,108,115
2025-03-17 18:38:50.755,-254.0,-844.0,732.0,-16.0,137.0,160.0,124,106,148,108,115
2025-03-17 18:38:50.776,-1.0,-744.0,671.0,12.0,149.0,193.0,124,112,148,108,112
2025-03-17 18:38:50.800,-136.0,-672.0,410.0,95.0,142.0,237.0,124,111,148,109,111
2025-03-17 18:38:50.825,23.0,-909.0,-119.0,148.0,142.0,282.0,121,106,147,106,108
2025-03-17 18:38:50.849,-51.0,-609.0,347.0,160.0,214.0,284.0,118,108,147,104,103
2025-03-17 18:38:50.874,104.0,-446.0,384.0,197.0,245.0,308.0,120,103,144,102,94
2025-03-17 18:38:50.898,-123.0,-227.0,367.0,217.0,309.0,297.0,107,98,135,81,60
2025-03-17 18:38:50.922,-539.0,-43.0,-35.0,205.0,288.0,289.0,117,85,114,0,46
2025-03-17 18:38:50.944,-624.0,455.0,-361.0,147.0,234.0,258.0,107,66,102,1,34
2025-03-17 18:38:50.968,-1033.0,1734.0,-1382.0,114.0,27.0,52.0,92,61,97,24,32
2025-03-17 18:38:50.992,-1789.0,1838.0,-3774.0,72.0,-430.0,-282.0,75,45,96,43,34
2025-03-17 18:38:51.017,206.0,3140.0,-4619.0,15.0,-1199.0,-644.0,71,41,93,60,35
2025-03-17 18:38:51.041,6279.0,-1588.0,-1500.0,-45.0,-1551.0,-428.0,64,57,95,60,37
2025-03-17 18:38:51.066,5911.0,-1540.0,5683.0,491.0,-341.0,-133.0,77,67,99,63,39
2025-03-17 18:38:51.090,2186.0,-1417.0,2639.0,219.0,206.0,-100.0,73,67,99,64,40
2025-03-17 18:38:51.112,1215.0,-54.0,3403.0,-112.0,134.0,71.0,71,84,100,66,40
2025-03-17 18:38:51.136,826.0,-463.0,2769.0,-204.0,215.0,88.0,73,78,100,64,42
2025-03-17 18:38:51.160,333.0,-241.0,1958.0,-103.0,359.0,69.0,75,85,101,65,42
2025-03-17 18:38:51.183,-98.0,-82.0,920.0,-112.0,341.0,73.0,81,87,103,66,42
2025-03-17 18:38:51.210,52.0,-317.0,702.0,-154.0,318.0,108.0,81,87,102,67,45
2025-03-17 18:38:51.233,203.0,-543.0,536.0,-102.0,347.0,140.0,78,77,103,66,42
2025-03-17 18:38:51.258,-203.0,-258.0,168.0,6.0,306.0,132.0,81,78,103,67,41
2025-03-17 18:38:51.280,-323.0,196.0,275.0,-5.0,251.0,98.0,80,75,103,67,42
2025-03-17 18:38:51.303,-312.0,73.0,194.0,-98.0,227.0,101.0,82,81,105,67,42
2025-03-17 18:38:51.328,-501.0,-205.0,54.0,-61.0,176.0,109.0,83,64,105,69,43
2025-03-17 18:38:51.352,-420.0,109.0,-139.0,72.0,149.0,75.0,84,59,106,69,47
2025-03-17 18:38:51.376,-541.0,753.0,-212.0,21.0,119.0,74.0,81,70,110,69,43
2025-03-17 18:38:51.401,-1194.0,1290.0,-1559.0,9.0,1.0,-54.0,80,78,106,70,42
2025-03-17 18:38:51.425,-2669.0,1991.0,-4221.0,127.0,-503.0,-425.0,82,75,103,67,40
2025-03-17 18:38:51.449,1498.0,2755.0,-3768.0,11.0,-1326.0,-612.0,78,59,101,66,40
2025-03-17 18:38:51.471,6847.0,-3441.0,1992.0,396.0,-1156.0,-170.0,81,63,103,67,42
2025-03-17 18:38:51.496,3900.0,-690.0,5344.0,337.0,34.0,-88.0,79,61,105,69,44
2025-03-17 18:38:51.521,1030.0,-614.0,3127.0,15.0,212.0,12.0,78,68,105,69,46
2025-03-17 18:38:51.545,652.0,-216.0,2486.0,-217.0,178.0,81.0,82,80,106,69,43
2025-03-17 18:38:51.570,372.0,-363.0,1954.0,-170.0,233.0,89.0,85,74,106,69,45
2025-03-17 18:38:51.594,-35.0,-189.0,1286.0,-209.0,218.0,84.0,86,71,107,69,45
2025-03-17 18:38:51.618,-74.0,-469.0,882.0,-246.0,203.0,118.0,88,72,109,71,46
2025-03-17 18:38:51.638,557.0,-820.0,928.0,-191.0,285.0,163.0,89,65,110,71,44
2025-03-17 18:38:51.664,290.0,-555.0,575.0,-101.0,359.0,212.0,94,63,111,75,46
2025-03-17 18:38:51.689,24.0,-145.0,404.0,-83.0,346.0,213.0,99,48,116,76,44
2025-03-17 18:38:51.713,-105.0,-200.0,194.0,-59.0,298.0,225.0,105,82,122,78,45
2025-03-17 18:38:51.738,-230.0,-292.0,165.0,26.0,282.0,230.0,108,81,137,80,46
2025-03-17 18:38:51.762,-478.0,144.0,-357.0,33.0,257.0,250.0,113,84,142,82,41
2025-03-17 18:38:51.787,-384.0,483.0,-528.0,70.0,201.0,223.0,116,95,143,74,49
2025-03-17 18:38:51.808,-803.0,1161.0,-1657.0,102.0,86.0,97.0,118,82,145,80,47
2025-03-17 18:38:51.833,-1298.0,2887.0,-2344.0,-24.0,-184.0,-291.0,114,104,145,79,47
2025-03-17 18:38:51.856,-512.0,2793.0,-2273.0,21.0,-557.0,-761.0,107,108,146,79,42
2025-03-17 18:38:51.881,1513.0,839.0,-1205.0,5.0,-955.0,-910.0,99,57,146,76,43
2025-03-17 18:38:51.906,4281.0,-1949.0,630.0,-22.0,-1056.0,-526.0,96,55,148,68,45
2025-03-17 18:38:51.930,4964.0,-4416.0,2791.0,-104.0,-154.0,-39.0,97,60,148,81,45
2025-03-17 18:38:51.955,2069.0,-2277.0,2310.0,213.0,249.0,84.0,96,85,148,76,46
2025-03-17 18:38:51.975,319.0,-1289.0,1467.0,-101.0,98.0,157.0,96,72,149,81,48
2025-03-17 18:38:52.000,510.0,-1490.0,1430.0,-78.0,137.0,183.0,97,93,149,83,47
2025-03-17 18:38:52.025,85.0,-1320.0,847.0,-1.0,222.0,202.0,93,104,148,83,48
2025-03-17 18:38:52.049,-139.0,-369.0,417.0,-22.0,215.0,198.0,99,108,148,82,46
2025-03-17 18:38:52.074,-164.0,-396.0,442.0,-65.0,176.0,172.0,99,106,148,80,48
2025-03-17 18:38:52.091,-143.0,-446.0,282.0,-9.0,157.0,159.0,98,95,148,83,49
2025-03-17 18:38:52.122,-70.0,-251.0,333.0,23.0,160.0,140.0,101,104,148,83,49
2025-03-17 18:38:52.133,-196.0,-414.0,182.0,43.0,174.0,151.0,101,103,148,84,49
2025-03-17 18:38:52.168,-198.0,-57.0,210.0,37.0,167.0,169.0,99,116,148,82,50
2025-03-17 18:38:52.188,-444.0,75.0,93.0,6.0,159.0,190.0,99,117,149,84,50
2025-03-17 18:38:52.217,-707.0,307.0,-396.0,80.0,123.0,234.0,96,110,148,84,50
2025-03-17 18:38:52.242,-1953.0,1966.0,-1650.0,272.0,-56.0,-78.0,102,110,148,84,48
2025-03-17 18:38:52.266,-1879.0,3373.0,-2390.0,107.0,-628.0,-622.0,99,116,148,81,48
2025-03-17 18:38:52.278,2327.0,478.0,-1114.0,-184.0,-1074.0,-709.0,99,90,143,83,47
2025-03-17 18:38:52.315,4939.0,-3614.0,1818.0,4.0,-789.0,-318.0,103,97,148,84,47
2025-03-17 18:38:52.326,3839.0,-2337.0,2766.0,231.0,57.0,14.0,103,78,149,70,50
2025-03-17 18:38:52.358,1254.0,-1634.0,1921.0,44.0,126.0,58.0,102,104,149,86,52
2025-03-17 18:38:52.385,848.0,-1389.0,1797.0,-77.0,127.0,135.0,106,101,148,86,50
2025-03-17 18:38:52.407,390.0,-1078.0,1550.0,-16.0,223.0,148.0,115,103,149,77,53
2025-03-17 18:38:52.431,16.0,-680.0,1007.0,-23.0,269.0,170.0,120,113,146,86,51
2025-03-17 18:38:52.448,6.0,-425.0,724.0,-41.0,268.0,162.0,124,115,147,85,50
2025-03-17 18:38:52.480,148.0,-512.0,643.0,-9.0,272.0,150.0,127,115,146,87,48
2025-03-17 18:38:52.504,0.0,-392.0,530.0,36.0,291.0,144.0,127,111,145,90,45
2025-03-17 18:38:52.528,-93.0,-379.0,535.0,30.0,302.0,174.0,129,95,132,93,47
2025-03-17 18:38:52.553,-116.0,-418.0,393.0,36.0,301.0,197.0,131,99,116,85,48
2025-03-17 18:38:52.578,-242.0,-323.0,176.0,65.0,280.0,191.0,129,96,105,77,52
2025-03-17 18:38:52.602,-595.0,-140.0,93.0,104.0,243.0,195.0,123,92,98,69,44
2025-03-17 18:38:52.627,-718.0,369.0,-847.0,100.0,122.0,153.0,109,81,96,66,43
2025-03-17 18:38:52.652,-1455.0,1020.0,-2327.0,180.0,-111.0,-2.0,92,60,92,69,42
2025-03-17 18:38:52.672,-1622.0,2239.0,-3866.0,258.0,-717.0,-290.0,83,75,91,71,41
2025-03-17 18:38:52.697,1821.0,979.0,-2885.0,143.0,-1280.0,-278.0,80,58,93,73,42
2025-03-17 18:38:52.721,4975.0,-1072.0,1664.0,438.0,-1048.0,-95.0,86,61,96,64,45
2025-03-17 18:38:52.746,3726.0,110.0,5060.0,259.0,-125.0,-70.0,81,83,97,69,47
2025-03-17 18:38:52.770,1900.0,-132.0,2967.0,10.0,72.0,22.0,84,79,98,73,47
2025-03-17 18:38:52.795,1315.0,83.0,2963.0,-122.0,104.0,65.0,86,71,98,72,48
2025-03-17 18:38:52.814,867.0,-58.0,2228.0,-145.0,253.0,55.0,88,88,99,71,47
2025-03-17 18:38:52.839,157.0,-234.0,1143.0,-100.0,307.0,65.0,90,81,100,71,48
2025-03-17 18:38:52.861,-53.0,26.0,672.0,-79.0,247.0,51.0,89,85,101,71,46
2025-03-17 18:38:52.889,259.0,-95.0,1004.0,-109.0,267.0,54.0,92,80,102,73,47
2025-03-17 18:38:52.910,265.0,-423.0,733.0,-113.0,366.0,94.0,88,78,101,72,47
2025-03-17 18:38:52.934,-305.0,-82.0,78.0,-9.0,265.0,97.0,92,89,101,74,47
2025-03-17 18:38:52.962,-297.0,288.0,358.0,-14.0,174.0,46.0,93,90,102,72,48
2025-03-17 18:38:52.984,-161.0,10.0,458.0,-48.0,171.0,21.0,93,93,101,74,48
2025-03-17 18:38:53.008,-364.0,-452.0,217.0,15.0,163.0,65.0,95,88,103,73,47
2025-03-17 18:38:53.033,-415.0,43.0,207.0,35.0,119.0,93.0,97,87,103,74,48
2025-03-17 18:38:53.056,-426.0,352.0,407.0,-17.0,119.0,48.0,94,86,103,74,48
2025-03-17 18:38:53.080,-977.0,456.0,-703.0,27.0,90.0,9.0,93,89,99,73,46
2025-03-17 18:38:53.105,-2184.0,1056.0,-3179.0,250.0,-320.0,-159.0,88,93,98,72,44
2025-03-17 18:38:53.128,-305.0,1375.0,-3708.0,202.0,-1014.0,-202.0,88,90,101,73,43
2025-03-17 18:38:53.151,3918.0,-877.0,-870.0,149.0,-1272.0,2.0,91,99,101,73,46
2025-03-17 18:38:53.175,4974.0,-498.0,3996.0,234.0,-557.0,33.0,98,92,104,71,48
2025-03-17 18:38:53.201,3520.0,259.0,4280.0,79.0,47.0,-60.0,91,79,104,73,49
2025-03-17 18:38:53.225,2075.0,197.0,3112.0,-114.0,215.0,26.0,99,80,105,68,50
2025-03-17 18:38:53.249,1368.0,42.0,2295.0,-225.0,300.0,99.0,109,100,106,67,49
2025-03-17 18:38:53.274,806.0,-261.0,1480.0,-208.0,417.0,140.0,122,102,108,65,48
2025-03-17 18:38:53.298,415.0,20.0,1114.0,-251.0,500.0,197.0,128,101,111,66,49
2025-03-17 18:38:53.323,643.0,137.0,686.0,-275.0,563.0,222.0,127,90,114,72,49
2025-03-17 18:38:53.333,441.0,-45.0,423.0,-226.0,558.0,215.0,128,83,116,73,51
2025-03-17 18:38:53.365,372.0,-165.0,145.0,-123.0,513.0,202.0,127,83,119,76,51
2025-03-17 18:38:53.393,-274.0,-176.0,26.0,-12.0,425.0,212.0,127,67,121,73,51
2025-03-17 18:38:53.417,-494.0,-121.0,-450.0,116.0,343.0,153.0,127,61,125,20,55
2025-03-17 18:38:53.441,-871.0,91.0,-501.0,65.0,177.0,102.0,123,54,127,0,54
2025-03-17 18:38:53.466,-710.0,82.0,-185.0,20.0,120.0,74.0,117,43,127,0,61
2025-03-17 18:38:53.490,-466.0,503.0,-467.0,28.0,95.0,84.0,108,35,120,32,66
2025-03-17 18:38:53.506,-557.0,1548.0,-1307.0,89.0,31.0,-16.0,101,32,107,39,59
2025-03-17 18:38:53.534,-1074.0,2716.0,-1729.0,-109.0,-87.0,-373.0,121,32,100,0,37
2025-03-17 18:38:53.551,192.0,4738.0,-3471.0,-383.0,-474.0,-965.0,103,19,101,41,38
2025-03-17 18:38:53.582,3192.0,2243.0,-2839.0,-199.0,-961.0,-1269.0,118,29,99,55,36
2025-03-17 18:38:53.610,9355.0,-1358.0,3423.0,-452.0,-871.0,-761.0,119,19,102,62,40
2025-03-17 18:38:53.634,6283.0,-7233.0,2605.0,47.0,187.0,-71.0,121,29,101,61,39
2025-03-17 18:38:53.658,1260.0,-2767.0,37.0,127.0,244.0,214.0,103,25,99,62,44
2025-03-17 18:38:53.679,636.0,-2025.0,1109.0,-73.0,68.0,180.0,114,27,100,60,41
2025-03-17 18:38:53.704,416.0,-1656.0,522.0,-64.0,152.0,275.0,111,32,102,62,42
2025-03-17 18:38:53.729,162.0,-1033.0,469.0,-47.0,113.0,297.0,114,27,103,63,43
2025-03-17 18:38:53.738,108.0,-889.0,287.0,-43.0,122.0,302.0,113,25,103,63,43
2025-03-17 18:38:53.777,53.0,-745.0,181.0,-4.0,112.0,299.0,111,33,105,64,43
2025-03-17 18:38:53.801,-27.0,-702.0,272.0,-5.0,141.0,301.0,117,36,105,65,44
2025-03-17 18:38:53.826,-169.0,-405.0,260.0,40.0,110.0,287.0,107,36,105,64,43
2025-03-17 18:38:53.847,-211.0,-199.0,333.0,28.0,118.0,266.0,117,34,106,66,43
2025-03-17 18:38:53.872,-364.0,-27.0,497.0,36.0,133.0,252.0,119,35,107,68,45
2025-03-17 18:38:53.890,-509.0,88.0,179.0,74.0,151.0,280.0,118,27,107,66,43
2025-03-17 18:38:53.921,-302.0,1172.0,-480.0,180.0,136.0,305.0,118,33,106,67,44
2025-03-17 18:38:53.939,-941.0,3163.0,-1415.0,176.0,41.0,23.0,119,29,108,67,39
2025-03-17 18:38:53.970,-1064.0,3942.0,-2364.0,80.0,-192.0,-494.0,119,35,106,69,41
2025-03-17 18:38:53.994,-162.0,3057.0,-2524.0,-41.0,-478.0,-954.0,117,30,105,66,43
2025-03-17 18:38:54.018,4556.0,2104.0,-1306.0,-78.0,-1121.0,-1134.0,117,29,103,66,38
2025-03-17 18:38:54.040,7830.0,-7084.0,3907.0,-124.0,-323.0,-249.0,114,38,105,69,43
2025-03-17 18:38:54.062,2747.0,-5046.0,441.0,416.0,389.0,82.0,103,29,106,67,43
2025-03-17 18:38:54.089,-489.0,-332.0,781.0,-67.0,131.0,131.0,115,17,104,66,44
2025-03-17 18:38:54.113,-389.0,-1774.0,1044.0,-33.0,72.0,97.0,117,32,105,66,44
2025-03-17 18:38:54.132,-474.0,-392.0,581.0,99.0,167.0,93.0,118,33,109,66,45
2025-03-17 18:38:54.157,-745.0,72.0,-135.0,30.0,129.0,17.0,104,25,105,65,45
2025-03-17 18:38:54.187,-422.0,-258.0,243.0,-33.0,-21.0,-52.0,115,31,105,67,44
2025-03-17 18:38:54.208,221.0,-1250.0,569.0,8.0,-26.0,-30.0,117,36,106,67,44
2025-03-17 18:38:54.233,186.0,-993.0,555.0,100.0,25.0,12.0,120,31,107,67,45
2025-03-17 18:38:54.256,-66.0,-677.0,572.0,103.0,3.0,13.0,119,36,106,66,46
2025-03-17 18:38:54.281,-171.0,-769.0,643.0,161.0,-12.0,13.0,121,31,119,66,46
2025-03-17 18:38:54.306,-214.0,-518.0,820.0,237.0,14.0,22.0,121,33,106,66,45
2025-03-17 18:38:54.330,-356.0,-46.0,837.0,218.0,63.0,-17.0,121,36,106,66,44
2025-03-17 18:38:54.354,-362.0,-500.0,637.0,172.0,64.0,-58.0,122,27,106,67,45
2025-03-17 18:38:54.376,164.0,-1228.0,444.0,215.0,26.0,-50.0,122,29,106,66,47
2025-03-17 18:38:54.401,1083.0,-2479.0,772.0,248.0,45.0,76.0,110,32,107,67,44
2025-03-17 18:38:54.425,1730.0,-3192.0,1035.0,139.0,74.0,371.0,126,27,107,67,45
2025-03-17 18:38:54.450,2058.0,-3145.0,978.0,91.0,13.0,672.0,126,29,106,65,46
2025-03-17 18:38:54.473,2113.0,-646.0,801.0,29.0,-60.0,865.0,133,36,105,64,45
2025-03-17 18:38:54.498,427.0,3545.0,2170.0,-57.0,-93.0,589.0,137,32,106,65,44
2025-03-17 18:38:54.522,423.0,4004.0,804.0,131.0,72.0,206.0,138,28,105,67,47
2025-03-17 18:38:54.544,-63.0,4132.0,948.0,49.0,42.0,-20.0,139,34,105,65,45
2025-03-17 18:38:54.568,20.0,2241.0,734.0,21.0,-2.0,-194.0,141,36,106,66,45
2025-03-17 18:38:54.593,342.0,363.0,886.0,71.0,-42.0,-234.0,142,34,107,67,46
2025-03-17 18:38:54.617,244.0,50.0,1090.0,75.0,-80.0,-218.0,142,24,105,66,45
2025-03-17 18:38:54.642,336.0,-421.0,1200.0,102.0,-67.0,-199.0,143,32,105,63,44
2025-03-17 18:38:54.666,43.0,-347.0,1291.0,74.0,7.0,-171.0,143,34,105,62,45
2025-03-17 18:38:54.691,-253.0,-209.0,1109.0,120.0,-7.0,-190.0,143,33,105,64,46
2025-03-17 18:38:54.710,-373.0,125.0,782.0,131.0,-41.0,-228.0,142,28,105,64,44
2025-03-17 18:38:54.735,-372.0,530.0,801.0,76.0,-118.0,-243.0,142,32,105,63,45
2025-03-17 18:38:54.760,-188.0,166.0,839.0,1.0,-150.0,-263.0,142,35,106,64,44
2025-03-17 18:38:54.786,-99.0,-380.0,962.0,42.0,-157.0,-236.0,146,34,107,65,44
2025-03-17 18:38:54.810,155.0,-716.0,1051.0,162.0,-132.0,-170.0,144,35,106,68,46
2025-03-17 18:38:54.834,991.0,-1876.0,1647.0,118.0,-68.0,-11.0,145,37,108,68,47
2025-03-17 18:38:54.855,1966.0,-2433.0,2236.0,-43.0,72.0,289.0,145,38,108,65,46
2025-03-17 18:38:54.883,1969.0,-2190.0,1775.0,-306.0,139.0,639.0,145,37,107,66,45
2025-03-17 18:38:54.903,1854.0,112.0,1073.0,-506.0,88.0,875.0,145,35,106,65,38
2025-03-17 18:38:54.928,1063.0,2338.0,2263.0,-554.0,16.0,782.0,145,35,105,64,43
2025-03-17 18:38:54.953,-7.0,3569.0,2582.0,91.0,197.0,85.0,145,33,106,67,44
2025-03-17 18:38:54.978,-110.0,3797.0,1730.0,144.0,348.0,-60.0,141,31,108,68,41
2025-03-17 18:38:55.002,310.0,1292.0,2063.0,-98.0,353.0,-194.0,140,35,111,68,43
2025-03-17 18:38:55.026,533.0,-1611.0,1515.0,-116.0,376.0,-157.0,140,37,109,67,43
2025-03-17 18:38:55.048,-250.0,-1451.0,547.0,-129.0,375.0,-82.0,130,30,108,73,44
2025-03-17 18:38:55.066,-591.0,-1332.0,250.0,-63.0,290.0,-50.0,117,39,108,70,43
2025-03-17 18:38:55.096,-437.0,-1408.0,77.0,54.0,350.0,2.0,135,38,109,69,46
2025-03-17 18:38:55.122,-859.0,-743.0,-190.0,61.0,286.0,39.0,134,36,110,70,46
2025-03-17 18:38:55.145,-737.0,-310.0,73.0,129.0,193.0,60.0,137,36,112,65,51
2025-03-17 18:38:55.170,-661.0,-37.0,65.0,124.0,149.0,57.0,136,34,119,40,54
2025-03-17 18:38:55.194,-711.0,-19.0,35.0,145.0,149.0,88.0,131,39,124,0,72
2025-03-17 18:38:55.215,-481.0,408.0,-146.0,141.0,153.0,91.0,129,47,129,0,81
2025-03-17 18:38:55.240,-563.0,1245.0,-337.0,191.0,127.0,57.0,125,55,138,0,75
2025-03-17 18:38:55.264,-615.0,1875.0,-1604.0,94.0,-18.0,-146.0,123,65,138,99,84
2025-03-17 18:38:55.290,-444.0,2311.0,-2387.0,-63.0,-266.0,-502.0,111,73,140,99,97
2025-03-17 18:38:55.313,205.0,1757.0,-1939.0,-121.0,-571.0,-829.0,109,79,142,97,109
2025-03-17 18:38:55.338,2278.0,80.0,-1186.0,-296.0,-600.0,-972.0,118,72,145,95,111
2025-03-17 18:38:55.362,5919.0,-3009.0,782.0,-406.0,-827.0,-785.0,127,64,147,96,111
2025-03-17 18:38:55.387,5472.0,-6465.0,1616.0,-62.0,-252.0,-35.0,128,93,147,101,113
2025-03-17 18:38:55.399,2008.0,-3532.0,840.0,399.0,341.0,338.0,130,96,148,103,114
2025-03-17 18:38:55.432,-818.0,-713.0,0.0,99.0,165.0,244.0,132,94,149,101,115
2025-03-17 18:38:55.457,-189.0,-1090.0,636.0,-154.0,8.0,156.0,133,89,148,102,115
2025-03-17 18:38:55.479,-142.0,-1025.0,510.0,-91.0,99.0,200.0,132,96,147,104,115
2025-03-17 18:38:55.496,35.0,-1099.0,349.0,90.0,154.0,291.0,132,95,147,103,108
2025-03-17 18:38:55.530,-178.0,-434.0,401.0,82.0,182.0,282.0,132,95,148,102,101
2025-03-17 18:38:55.552,-150.0,-407.0,360.0,1.0,159.0,263.0,131,85,152,102,99
2025-03-17 18:38:55.576,-216.0,-340.0,170.0,76.0,147.0,253.0,129,98,147,102,97
2025-03-17 18:38:55.600,-265.0,-176.0,318.0,74.0,120.0,235.0,136,101,147,105,101
2025-03-17 18:38:55.625,-508.0,-36.0,250.0,88.0,56.0,247.0,128,92,147,103,108
2025-03-17 18:38:55.649,-285.0,139.0,287.0,73.0,83.0,231.0,125,88,149,104,105
2025-03-17 18:38:55.673,-419.0,1091.0,-321.0,134.0,78.0,219.0,123,87,147,103,102
2025-03-17 18:38:55.698,-1395.0,1981.0,-1839.0,139.0,-60.0,-62.0,121,93,148,104,107
2025-03-17 18:38:55.722,-1529.0,3306.0,-2277.0,31.0,-372.0,-658.0,121,81,146,104,115
2025-03-17 18:38:55.748,1095.0,2444.0,-244.0,-531.0,-634.0,-1088.0,124,97,148,103,104
2025-03-17 18:38:55.771,4865.0,-3513.0,730.0,-422.0,-696.0,-848.0,131,88,148,105,118
2025-03-17 18:38:55.793,5102.0,-5689.0,1660.0,120.0,-173.0,6.0,131,94,149,106,118
2025-03-17 18:38:55.818,1751.0,-2783.0,1306.0,304.0,349.0,261.0,134,99,149,105,119
2025-03-17 18:38:55.842,-584.0,-411.0,977.0,122.0,222.0,171.0,134,99,148,107,118
2025-03-17 18:38:55.866,-697.0,-811.0,882.0,95.0,84.0,135.0,136,98,147,105,116
2025-03-17 18:38:55.891,-541.0,-829.0,778.0,97.0,118.0,138.0,134,92,147,104,112
2025-03-17 18:38:55.916,-80.0,-614.0,346.0,140.0,153.0,115.0,135,46,145,71,100
2025-03-17 18:38:55.937,-410.0,-560.0,505.0,212.0,76.0,70.0,130,34,145,18,90
2025-03-17 18:38:55.958,-286.0,-348.0,132.0,187.0,-19.0,41.0,133,34,141,1,45
2025-03-17 18:38:55.986,-315.0,48.0,371.0,269.0,-105.0,77.0,135,30,133,0,52
2025-03-17 18:38:56.010,-6.0,-156.0,907.0,286.0,-58.0,30.0,132,26,129,38,48
2025-03-17 18:38:56.034,-89.0,-98.0,681.0,206.0,3.0,-19.0,129,25,126,45,50
2025-03-17 18:38:56.053,-886.0,-299.0,870.0,281.0,39.0,-55.0,116,28,116,61,40
2025-03-17 18:38:56.083,-453.0,37.0,561.0,323.0,-4.0,-76.0,125,30,113,64,40
2025-03-17 18:38:56.107,-173.0,-14.0,751.0,227.0,-63.0,-102.0,126,27,112,64,36
2025-03-17 18:38:56.129,953.0,-1956.0,1165.0,154.0,-72.0,-6.0,131,27,109,67,37
2025-03-17 18:38:56.152,1957.0,-3119.0,1732.0,104.0,-13.0,225.0,130,35,107,66,36
2025-03-17 18:38:56.178,2149.0,-3115.0,2053.0,-138.0,67.0,564.0,126,34,111,64,37
2025-03-17 18:38:56.201,1982.0,-970.0,1490.0,-169.0,69.0,802.0,139,30,112,68,38
2025-03-17 18:38:56.225,1727.0,1908.0,1133.0,-79.0,-10.0,849.0,141,33,113,71,37
2025-03-17 18:38:56.251,321.0,5286.0,1659.0,93.0,108.0,390.0,140,27,115,72,38
2025-03-17 18:38:56.273,178.0,3951.0,692.0,214.0,173.0,25.0,130,27,115,71,37
2025-03-17 18:38:56.297,-21.0,3211.0,681.0,70.0,124.0,-164.0,130,32,115,71,38
2025-03-17 18:38:56.321,-78.0,1305.0,583.0,9.0,27.0,-262.0,134,32,114,71,38
2025-03-17 18:38:56.346,345.0,-296.0,1122.0,-37.0,-12.0,-253.0,138,35,116,76,38
2025-03-17 18:38:56.370,260.0,-998.0,1216.0,-11.0,41.0,-208.0,140,35,117,72,38
2025-03-17 18:38:56.395,-183.0,-713.0,991.0,25.0,48.0,-141.0,139,32,117,71,38
2025-03-17 18:38:56.419,-271.0,-501.0,1056.0,80.0,50.0,-99.0,140,30,116,73,40
2025-03-17 18:38:56.436,-689.0,-368.0,547.0,62.0,27.0,-123.0,145,32,116,76,40
2025-03-17 18:38:56.465,-817.0,244.0,408.0,28.0,-57.0,-169.0,143,29,117,72,39
2025-03-17 18:38:56.489,-496.0,88.0,502.0,75.0,-143.0,-168.0,143,32,116,73,40
2025-03-17 18:38:56.514,-244.0,240.0,1090.0,110.0,-106.0,-181.0,143,33,116,72,40
2025-03-17 18:38:56.538,-365.0,-38.0,991.0,78.0,-80.0,-232.0,143,34,118,73,41
2025-03-17 18:38:56.562,-93.0,-1032.0,702.0,51.0,-163.0,-167.0,142,38,116,75,42
2025-03-17 18:38:56.588,1459.0,-2688.0,2469.0,-89.0,-57.0,91.0,144,35,117,74,41
2025-03-17 18:38:56.612,2338.0,-3521.0,2943.0,-252.0,219.0,351.0,143,37,117,72,42
2025-03-17 18:38:56.632,1362.0,-1992.0,880.0,-163.0,262.0,638.0,141,35,118,74,42
2025-03-17 18:38:56.655,797.0,1743.0,147.0,-201.0,8.0,767.0,142,36,116,75,41
2025-03-17 18:38:56.682,135.0,4653.0,1086.0,-121.0,4.0,446.0,141,31,116,77,40
2025-03-17 18:38:56.706,-242.0,4601.0,747.0,177.0,123.0,-98.0,141,35,118,80,40
2025-03-17 18:38:56.727,-305.0,3501.0,1407.0,-62.0,97.0,-295.0,140,32,117,80,40
2025-03-17 18:38:56.744,148.0,270.0,2422.0,-186.0,93.0,-413.0,133,33,118,82,41
2025-03-17 18:38:56.775,797.0,-1755.0,1829.0,-351.0,254.0,-273.0,136,40,120,78,42
2025-03-17 18:38:56.801,230.0,-2509.0,966.0,-229.0,302.0,-152.0,141,36,127,78,45
2025-03-17 18:38:56.825,-62.0,-2032.0,348.0,102.0,350.0,1.0,141,44,130,81,44
2025-03-17 18:38:56.835,-702.0,-840.0,42.0,78.0,324.0,70.0,133,48,137,60,44
2025-03-17 18:38:56.874,-862.0,-403.0,-138.0,-62.0,256.0,67.0,132,55,141,67,44
2025-03-17 18:38:56.884,-594.0,-193.0,80.0,10.0,195.0,97.0,127,62,142,64,45
2025-03-17 18:38:56.923,-668.0,279.0,-14.0,75.0,198.0,78.0,137,68,143,44,46
2025-03-17 18:38:56.947,-614.0,594.0,-345.0,112.0,178.0,54.0,136,75,145,43,47
2025-03-17 18:38:56.968,-610.0,1027.0,-1031.0,140.0,91.0,67.0,139,78,146,60,49
2025-03-17 18:38:56.993,-668.0,2116.0,-1615.0,151.0,-84.0,-155.0,137,88,144,37,48
2025-03-17 18:38:57.018,-876.0,2973.0,-2698.0,-8.0,-463.0,-640.0,132,94,146,0,46
2025-03-17 18:38:57.042,872.0,2374.0,-2241.0,-105.0,-940.0,-1007.0,112,98,147,43,38
2025-03-17 18:38:57.067,5554.0,454.0,-313.0,-273.0,-1207.0,-967.0,100,81,149,0,38
2025-03-17 18:38:57.092,6010.0,-3555.0,1137.0,-230.0,-504.0,-344.0,97,44,144,40,38
2025-03-17 18:38:57.116,4466.0,-4521.0,1468.0,230.0,153.0,153.0,101,45,144,48,36
2025-03-17 18:38:57.136,554.0,-1122.0,852.0,105.0,136.0,175.0,103,93,148,53,44
2025-03-17 18:38:57.162,325.0,-1477.0,1152.0,-88.0,15.0,189.0,106,98,148,63,43
2025-03-17 18:38:57.186,369.0,-1207.0,1010.0,-36.0,139.0,222.0,107,94,148,64,46
2025-03-17 18:38:57.211,-91.0,-796.0,730.0,48.0,208.0,276.0,110,102,149,63,43
2025-03-17 18:38:57.235,-80.0,-351.0,542.0,61.0,219.0,274.0,108,110,149,73,45
2025-03-17 18:38:57.259,119.0,-404.0,413.0,81.0,248.0,251.0,109,102,146,67,44
2025-03-17 18:38:57.284,-29.0,-504.0,309.0,113.0,252.0,277.0,120,100,145,74,44
2025-03-17 18:38:57.308,-107.0,-314.0,334.0,129.0,253.0,289.0,114,101,149,74,45
2025-03-17 18:38:57.329,-168.0,-250.0,350.0,104.0,238.0,266.0,122,103,149,73,42
2025-03-17 18:38:57.351,-359.0,-81.0,115.0,126.0,230.0,262.0,122,108,148,77,40
2025-03-17 18:38:57.378,-955.0,1321.0,-386.0,75.0,150.0,209.0,126,99,148,73,39
2025-03-17 18:38:57.400,-1470.0,2236.0,-1455.0,-18.0,-53.0,-137.0,115,106,150,71,44
2025-03-17 18:38:57.425,-1427.0,2862.0,-2055.0,-33.0,-411.0,-619.0,122,111,148,62,44
2025-03-17 18:38:57.452,-123.0,1865.0,-2028.0,-112.0,-858.0,-893.0,117,111,149,73,41
2025-03-17 18:38:57.476,4700.0,-1141.0,374.0,-75.0,-916.0,-755.0,119,105,149,58,46
2025-03-17 18:38:57.498,4559.0,-3337.0,1869.0,-78.0,-328.0,-165.0,117,87,147,57,48
2025-03-17 18:38:57.522,3127.0,-2975.0,1638.0,207.0,189.0,92.0,118,83,148,73,49
2025-03-17 18:38:57.546,301.0,-882.0,1403.0,127.0,198.0,119.0,124,95,148,63,50
2025-03-17 18:38:57.562,-203.0,-766.0,1287.0,19.0,130.0,119.0,126,101,148,71,50
2025-03-17 18:38:57.594,-218.0,-550.0,1102.0,87.0,184.0,87.0,119,103,148,71,51
2025-03-17 18:38:57.620,-219.0,-344.0,605.0,164.0,246.0,65.0,131,94,148,75,49
2025-03-17 18:38:57.641,-220.0,-300.0,489.0,177.0,227.0,31.0,133,87,145,72,53
2025-03-17 18:38:57.654,-349.0,-286.0,494.0,149.0,151.0,31.0,126,84,146,75,50
2025-03-17 18:38:57.689,-292.0,-356.0,465.0,162.0,87.0,39.0,116,69,146,75,50
2025-03-17 18:38:57.714,-229.0,-291.0,404.0,233.0,41.0,6.0,129,52,142,81,50
2025-03-17 18:38:57.738,-363.0,-42.0,511.0,259.0,25.0,-38.0,140,37,136,84,49
2025-03-17 18:38:57.763,-534.0,-88.0,957.0,252.0,82.0,1.0,139,32,122,77,50
2025-03-17 18:38:57.787,-531.0,3.0,500.0,242.0,75.0,3.0,141,36,115,68,49
2025-03-17 18:38:57.811,189.0,-1218.0,728.0,246.0,-25.0,15.0,141,34,111,69,46
2025-03-17 18:38:57.833,1333.0,-2188.0,1772.0,45.0,-34.0,199.0,144,33,107,71,43
2025-03-17 18:38:57.856,2341.0,-3636.0,2694.0,-113.0,72.0,497.0,142,34,108,73,43
2025-03-17 18:38:57.882,1707.0,-1357.0,1438.0,-165.0,76.0,779.0,146,31,107,72,42
2025-03-17 18:38:57.904,1209.0,1868.0,995.0,-243.0,-40.0,773.0,150,33,108,71,41
2025-03-17 18:38:57.930,297.0,4916.0,1170.0,-25.0,57.0,351.0,145,30,109,73,43
2025-03-17 18:38:57.956,220.0,3992.0,757.0,133.0,98.0,41.0,145,27,110,75,43
2025-03-17 18:38:57.980,-74.0,3483.0,564.0,24.0,34.0,-147.0,144,31,112,75,42
2025-03-17 18:38:58.000,386.0,1229.0,936.0,-29.0,-42.0,-233.0,144,32,113,75,43
2025-03-17 18:38:58.026,650.0,-601.0,1437.0,19.0,10.0,-154.0,148,29,113,70,44
2025-03-17 18:38:58.050,140.0,-55.0,1361.0,37.0,56.0,-118.0,147,36,112,74,44
2025-03-17 18:38:58.073,-349.0,-587.0,972.0,7.0,5.0,-125.0,144,35,113,75,45
2025-03-17 18:38:58.090,-292.0,-551.0,884.0,36.0,7.0,-98.0,144,37,113,75,45
2025-03-17 18:38:58.121,-355.0,-137.0,838.0,50.0,-11.0,-79.0,145,34,111,73,44
2025-03-17 18:38:58.146,-418.0,291.0,708.0,30.0,-22.0,-85.0,144,38,112,73,43
2025-03-17 18:38:58.163,-480.0,442.0,643.0,28.0,-18.0,-108.0,144,37,112,72,44
2025-03-17 18:38:58.194,-569.0,493.0,445.0,77.0,-34.0,-146.0,144,36,112,73,45
2025-03-17 18:38:58.218,-585.0,519.0,458.0,90.0,-80.0,-173.0,145,38,111,75,44
2025-03-17 18:38:58.242,-462.0,130.0,450.0,57.0,-154.0,-231.0,145,38,112,75,45
2025-03-17 18:38:58.267,708.0,-2333.0,1314.0,107.0,-195.0,-111.0,146,38,112,72,42
2025-03-17 18:38:58.292,1910.0,-3876.0,3401.0,56.0,38.0,254.0,146,35,112,74,46
2025-03-17 18:38:58.316,1871.0,-2261.0,2845.0,-242.0,211.0,454.0,146,39,111,73,44
2025-03-17 18:38:58.337,920.0,-497.0,1058.0,-320.0,136.0,621.0,147,39,113,74,44
2025-03-17 18:38:58.361,845.0,3100.0,-127.0,-54.0,120.0,500.0,145,35,113,73,43
2025-03-17 18:38:58.386,101.0,4730.0,925.0,-27.0,88.0,142.0,146,29,113,75,44
2025-03-17 18:38:58.410,408.0,3615.0,1861.0,-81.0,162.0,-40.0,131,37,114,76,47
2025-03-17 18:38:58.435,478.0,1217.0,2307.0,-132.0,312.0,-140.0,147,36,114,78,45
2025-03-17 18:38:58.459,-237.0,-455.0,1923.0,-110.0,354.0,-125.0,147,41,113,78,45
2025-03-17 18:38:58.484,-106.0,-886.0,1533.0,-115.0,329.0,-115.0,146,36,113,75,46
2025-03-17 18:38:58.496,-149.0,-950.0,562.0,99.0,317.0,-101.0,145,39,113,76,47
2025-03-17 18:38:58.527,-450.0,-1076.0,58.0,231.0,342.0,-68.0,124,36,115,67,49
2025-03-17 18:38:58.544,-887.0,-646.0,-132.0,156.0,340.0,-21.0,116,38,117,70,55
2025-03-17 18:38:58.578,-768.0,-182.0,40.0,122.0,288.0,-20.0,113,36,114,63,46
2025-03-17 18:38:58.600,-702.0,75.0,-464.0,44.0,161.0,21.0,120,34,111,0,65
2025-03-17 18:38:58.618,-441.0,821.0,-810.0,69.0,118.0,28.0,123,35,108,0,72
2025-03-17 18:38:58.652,-346.0,1811.0,-1685.0,128.0,37.0,-82.0,123,34,108,1,65
2025-03-17 18:38:58.676,-369.0,2900.0,-2209.0,-99.0,-167.0,-441.0,127,36,107,1,39
2025-03-17 18:38:58.697,-289.0,3305.0,-3053.0,-534.0,-489.0,-980.0,123,35,106,0,35
2025-03-17 18:38:58.721,2883.0,1373.0,-2119.0,-112.0,-753.0,-1259.0,120,30,104,24,35
2025-03-17 18:38:58.746,7301.0,-903.0,2041.0,-45.0,-937.0,-1011.0,101,17,105,47,25
2025-03-17 18:38:58.771,6347.0,-7620.0,1967.0,-121.0,-12.0,-41.0,115,36,104,52,36
2025-03-17 18:38:58.794,1320.0,-3014.0,20.0,283.0,216.0,229.0,108,19,105,57,39
2025-03-17 18:38:58.820,658.0,-1827.0,1246.0,-40.0,65.0,195.0,111,34,107,60,40
2025-03-17 18:38:58.840,484.0,-1954.0,984.0,-65.0,186.0,294.0,110,35,107,64,41
2025-03-17 18:38:58.865,18.0,-1224.0,352.0,-60.0,162.0,356.0,114,36,108,64,42
2025-03-17 18:38:58.890,-65.0,-255.0,348.0,-81.0,132.0,320.0,115,37,108,66,42
2025-03-17 18:38:58.914,-159.0,-524.0,267.0,-50.0,133.0,277.0,116,39,109,66,41
2025-03-17 18:38:58.938,-396.0,-715.0,23.0,-29.0,140.0,268.0,114,40,108,66,43
2025-03-17 18:38:58.963,-127.0,-432.0,105.0,21.0,105.0,295.0,117,39,109,69,41
2025-03-17 18:38:58.975,-26.0,-346.0,293.0,49.0,104.0,328.0,107,37,108,67,41
2025-03-17 18:38:59.009,-678.0,74.0,-24.0,39.0,106.0,286.0,119,35,113,70,41
2025-03-17 18:38:59.033,-512.0,155.0,36.0,52.0,74.0,245.0,116,41,109,70,41
2025-03-17 18:38:59.056,-296.0,486.0,-37.0,163.0,107.0,313.0,115,41,109,71,40
2025-03-17 18:38:59.082,-1164.0,2735.0,-1302.0,166.0,48.0,201.0,118,39,111,70,37
2025-03-17 18:38:59.106,-1221.0,4583.0,-1728.0,87.0,-117.0,-360.0,116,32,109,70,40
2025-03-17 18:38:59.131,-1045.0,3729.0,-2311.0,3.0,-373.0,-851.0,107,37,106,69,36
2025-03-17 18:38:59.155,1776.0,4660.0,-2443.0,-139.0,-949.0,-1324.0,119,38,106,67,38
2025-03-17 18:38:59.180,9576.0,-3192.0,2197.0,-526.0,-799.0,-667.0,111,30,109,67,40
2025-03-17 18:38:59.201,5654.0,-8363.0,315.0,276.0,260.0,-25.0,119,33,107,67,41
2025-03-17 18:38:59.225,1152.0,-1261.0,-758.0,278.0,269.0,226.0,113,31,105,67,41
2025-03-17 18:38:59.250,656.0,-2375.0,402.0,186.0,149.0,226.0,115,32,105,62,42
2025-03-17 18:38:59.273,195.0,-1240.0,147.0,335.0,222.0,308.0,108,28,106,63,44
2025-03-17 18:38:59.297,-119.0,-636.0,-104.0,292.0,179.0,316.0,117,41,107,63,43
2025-03-17 18:38:59.321,46.0,-696.0,-102.0,368.0,92.0,290.0,120,29,106,64,44
2025-03-17 18:38:59.345,75.0,-266.0,340.0,406.0,44.0,261.0,121,33,105,64,47
2025-03-17 18:38:59.370,239.0,-127.0,560.0,357.0,65.0,261.0,121,32,106,66,43
2025-03-17 18:38:59.386,-105.0,138.0,452.0,327.0,53.0,239.0,125,35,107,69,53
2025-03-17 18:38:59.418,-332.0,890.0,304.0,215.0,14.0,199.0,128,35,106,70,36
2025-03-17 18:38:59.442,-548.0,895.0,528.0,59.0,0.0,171.0,136,36,105,67,75
2025-03-17 18:38:59.467,-540.0,814.0,74.0,84.0,-70.0,98.0,127,35,105,61,89
2025-03-17 18:38:59.491,-888.0,1438.0,269.0,126.0,-86.0,13.0,137,32,104,69,99
2025-03-17 18:38:59.515,-1224.0,2300.0,-53.0,55.0,-121.0,-65.0,137,33,107,45,105
2025-03-17 18:38:59.540,-1826.0,2624.0,-943.0,40.0,-226.0,-219.0,137,34,105,37,109
2025-03-17 18:38:59.562,-1339.0,2208.0,-912.0,162.0,-384.0,-315.0,136,35,104,40,112
2025-03-17 18:38:59.586,585.0,1223.0,589.0,219.0,-460.0,-319.0,138,31,114,45,101
2025-03-17 18:38:59.605,2850.0,-157.0,2954.0,167.0,-300.0,-204.0,140,34,110,54,112
2025-03-17 18:38:59.635,2967.0,-610.0,3498.0,-15.0,33.0,-94.0,142,36,115,53,113
2025-03-17 18:38:59.659,2024.0,-1028.0,2372.0,-98.0,184.0,4.0,142,34,116,53,125
2025-03-17 18:38:59.683,767.0,-858.0,1493.0,-84.0,194.0,66.0,141,32,115,68,123
2025-03-17 18:38:59.705,191.0,-374.0,1027.0,-72.0,187.0,126.0,131,35,115,70,120
2025-03-17 18:38:59.730,-46.0,155.0,602.0,-60.0,180.0,176.0,143,36,116,70,122
2025-03-17 18:38:59.754,-362.0,612.0,420.0,-57.0,173.0,168.0,141,36,115,71,120
2025-03-17 18:38:59.778,-573.0,774.0,183.0,-40.0,161.0,148.0,137,37,115,71,120
2025-03-17 18:38:59.803,-431.0,856.0,361.0,9.0,169.0,121.0,140,41,115,71,119
2025-03-17 18:38:59.827,-569.0,1184.0,289.0,25.0,132.0,80.0,139,38,115,72,121
2025-03-17 18:38:59.848,-456.0,962.0,412.0,-23.0,73.0,51.0,141,37,116,74,120
2025-03-17 18:38:59.873,-230.0,734.0,614.0,-6.0,81.0,36.0,140,40,103,73,121
2025-03-17 18:38:59.897,-462.0,889.0,440.0,36.0,106.0,7.0,142,39,116,73,123
2025-03-17 18:38:59.922,-1152.0,1851.0,-330.0,-18.0,11.0,-51.0,136,41,117,71,122
2025-03-17 18:38:59.947,-1619.0,2610.0,-1153.0,-124.0,-113.0,-196.0,142,37,116,70,117
2025-03-17 18:38:59.959,-1821.0,2227.0,-1750.0,2.0,-328.0,-318.0,118,38,117,59,123
2025-03-17 18:38:59.995,-240.0,2267.0,-990.0,100.0,-619.0,-388.0,132,40,116,65,122
2025-03-17 18:39:00.020,3183.0,-299.0,2357.0,99.0,-471.0,-250.0,138,39,116,71,129
2025-03-17 18:39:00.040,3391.0,-957.0,3514.0,-25.0,-75.0,-161.0,140,36,116,72,129
2025-03-17 18:39:00.067,2541.0,-1636.0,2854.0,-80.0,67.0,-50.0,139,39,113,72,122
2025-03-17 18:39:00.090,1230.0,-1439.0,1834.0,-121.0,146.0,41.0,136,39,114,70,124
2025-03-17 18:39:00.114,175.0,-783.0,936.0,-79.0,180.0,102.0,134,38,114,72,127
2025-03-17 18:39:00.139,-235.0,32.0,1183.0,-126.0,161.0,144.0,135,37,114,74,127
2025-03-17 18:39:00.164,-252.0,493.0,1303.0,-184.0,231.0,141.0,137,41,116,74,126
2025-03-17 18:39:00.188,-149.0,618.0,1315.0,-189.0,296.0,135.0,138,41,116,76,126
2025-03-17 18:39:00.212,-95.0,697.0,1220.0,-248.0,385.0,161.0,142,40,117,81,126
2025-03-17 18:39:00.237,187.0,653.0,944.0,-278.0,455.0,207.0,141,42,115,80,119
2025-03-17 18:39:00.258,13.0,484.0,755.0,-229.0,439.0,240.0,133,37,118,83,81
2025-03-17 18:39:00.283,-499.0,529.0,-244.0,-163.0,382.0,249.0,134,35,125,62,118
2025-03-17 18:39:00.307,-992.0,431.0,-614.0,-84.0,207.0,172.0,120,46,133,69,108
2025-03-17 18:39:00.331,-841.0,635.0,-439.0,1.0,47.0,86.0,122,52,138,74,113
2025-03-17 18:39:00.355,-610.0,952.0,-756.0,9.0,40.0,23.0,113,61,139,96,113
2025-03-17 18:39:00.380,-582.0,1746.0,-2087.0,-35.0,-101.0,-111.0,104,67,140,100,117
2025-03-17 18:39:00.405,-596.0,2268.0,-2812.0,-180.0,-382.0,-433.0,102,67,143,102,114
2025-03-17 18:39:00.429,-38.0,1638.0,-2064.0,-322.0,-629.0,-780.0,101,82,143,105,121
2025-03-17 18:39:00.450,1832.0,552.0,-731.0,-659.0,-775.0,-951.0,101,67,141,106,76
2025-03-17 18:39:00.473,5837.0,-2095.0,29.0,-704.0,-630.0,-835.0,112,84,147,107,107
2025-03-17 18:39:00.489,3911.0,-7245.0,626.0,19.0,-70.0,58.0,110,86,148,104,108
2025-03-17 18:39:00.524,1838.0,-2940.0,61.0,443.0,264.0,323.0,112,86,148,105,122
2025-03-17 18:39:00.546,-50.0,-1129.0,368.0,68.0,113.0,284.0,116,89,147,106,125
2025-03-17 18:39:00.562,-133.0,-1515.0,723.0,-43.0,34.0,235.0,117,85,147,106,125
2025-03-17 18:39:00.595,-96.0,-1110.0,1044.0,90.0,157.0,305.0,118,96,148,107,119
2025-03-17 18:39:00.618,-237.0,-353.0,576.0,188.0,231.0,331.0,118,98,147,108,115
2025-03-17 18:39:00.642,-275.0,49.0,489.0,88.0,229.0,292.0,115,92,148,108,109
2025-03-17 18:39:00.666,-148.0,-90.0,184.0,127.0,222.0,279.0,113,93,147,107,115
2025-03-17 18:39:00.692,-141.0,196.0,29.0,170.0,213.0,258.0,111,95,148,107,115
2025-03-17 18:39:00.716,-418.0,62.0,140.0,88.0,186.0,228.0,111,97,146,108,118
2025-03-17 18:39:00.741,-309.0,124.0,-122.0,133.0,139.0,214.0,107,94,147,104,119
2025-03-17 18:39:00.764,-403.0,583.0,-234.0,135.0,75.0,189.0,105,75,146,107,123
2025-03-17 18:39:00.786,-629.0,1500.0,-548.0,127.0,58.0,114.0,101,83,148,108,123
2025-03-17 18:39:00.811,-944.0,2061.0,-1830.0,99.0,-94.0,-112.0,104,85,148,107,126
2025-03-17 18:39:00.835,-1323.0,2636.0,-2071.0,15.0,-382.0,-504.0,104,96,147,110,123
2025-03-17 18:39:00.860,-45.0,2332.0,-864.0,-161.0,-569.0,-928.0,105,100,148,110,94
2025-03-17 18:39:00.885,2848.0,465.0,1755.0,-420.0,-844.0,-1111.0,114,79,147,108,93
2025-03-17 18:39:00.909,5958.0,-3730.0,1052.0,-251.0,-497.0,-590.0,111,67,147,110,105
2025-03-17 18:39:00.934,4449.0,-6061.0,1811.0,174.0,195.0,243.0,110,81,147,109,123
2025-03-17 18:39:00.957,912.0,-1610.0,715.0,408.0,432.0,391.0,112,91,148,107,124
2025-03-17 18:39:00.974,-339.0,-417.0,288.0,203.0,290.0,305.0,114,91,147,110,117
2025-03-17 18:39:01.004,-418.0,-808.0,278.0,198.0,180.0,276.0,111,75,144,106,119
2025-03-17 18:39:01.028,-610.0,-1013.0,-121.0,127.0,83.0,290.0,114,52,141,77,108
2025-03-17 18:39:01.052,-8.0,-944.0,492.0,209.0,-27.0,332.0,106,35,134,0,118
2025-03-17 18:39:01.077,-91.0,-347.0,449.0,262.0,52.0,340.0,113,18,130,48,120
2025-03-17 18:39:01.101,-37.0,106.0,138.0,146.0,54.0,319.0,117,23,126,70,126
2025-03-17 18:39:01.125,-234.0,270.0,171.0,130.0,-43.0,304.0,114,23,126,69,126
2025-03-17 18:39:01.145,-95.0,791.0,373.0,169.0,-60.0,208.0,112,33,127,79,126
2025-03-17 18:39:01.171,-509.0,1041.0,516.0,185.0,-42.0,135.0,108,38,127,77,128
2025-03-17 18:39:01.195,-652.0,1454.0,620.0,147.0,-34.0,98.0,108,37,128,78,130
2025-03-17 18:39:01.220,-952.0,2807.0,333.0,116.0,16.0,-58.0,106,40,129,80,120
2025-03-17 18:39:01.245,-1743.0,3150.0,-674.0,96.0,-79.0,-298.0,101,37,127,80,123
2025-03-17 18:39:01.268,-1600.0,2397.0,-1064.0,115.0,-311.0,-417.0,90,42,128,70,129
2025-03-17 18:39:01.289,377.0,1299.0,326.0,146.0,-553.0,-422.0,102,33,130,53,120
2025-03-17 18:39:01.315,2619.0,-654.0,2696.0,139.0,-463.0,-265.0,115,39,130,81,130
2025-03-17 18:39:01.339,2722.0,-1090.0,3652.0,-50.0,2.0,-106.0,123,30,131,83,132
2025-03-17 18:39:01.363,1747.0,-1625.0,2237.0,-113.0,140.0,25.0,111,33,132,80,106
2025-03-17 18:39:01.388,702.0,-1073.0,1382.0,-61.0,192.0,103.0,104,38,131,79,132
2025-03-17 18:39:01.413,187.0,-506.0,901.0,-32.0,208.0,166.0,113,38,132,80,130
2025-03-17 18:39:01.437,-365.0,332.0,662.0,-61.0,144.0,188.0,113,36,131,78,129
2025-03-17 18:39:01.462,-577.0,547.0,455.0,-72.0,122.0,145.0,114,37,131,79,129
2025-03-17 18:39:01.471,-619.0,629.0,255.0,-24.0,132.0,119.0,113,41,131,77,131
2025-03-17 18:39:01.507,-514.0,813.0,307.0,42.0,129.0,106.0,113,41,131,83,131
2025-03-17 18:39:01.532,-587.0,1009.0,410.0,24.0,98.0,88.0,111,42,131,84,132
2025-03-17 18:39:01.556,-517.0,924.0,542.0,-2.0,80.0,59.0,114,43,132,84,132
2025-03-17 18:39:01.580,-594.0,844.0,402.0,28.0,81.0,35.0,114,43,131,82,132
2025-03-17 18:39:01.605,-899.0,1436.0,91.0,22.0,56.0,-3.0,111,43,130,81,134
2025-03-17 18:39:01.629,-1281.0,2049.0,-582.0,-28.0,-21.0,-80.0,109,42,131,83,134
2025-03-17 18:39:01.654,-1519.0,2207.0,-1252.0,-6.0,-125.0,-205.0,105,41,131,83,133
2025-03-17 18:39:01.679,-1326.0,1895.0,-1219.0,60.0,-359.0,-349.0,105,40,130,79,135
2025-03-17 18:39:01.698,1404.0,-481.0,1558.0,13.0,-445.0,-299.0,107,42,131,79,134
2025-03-17 18:39:01.725,3230.0,-2490.0,4257.0,57.0,-105.0,-97.0,108,43,130,80,133
2025-03-17 18:39:01.748,1367.0,-1412.0,2950.0,-22.0,84.0,21.0,106,36,132,79,125
2025-03-17 18:39:01.773,296.0,-1282.0,1745.0,-62.0,118.0,91.0,103,38,132,71,130
2025-03-17 18:39:01.794,-730.0,-48.0,548.0,-31.0,82.0,118.0,103,40,132,73,117
2025-03-17 18:39:01.811,-900.0,529.0,776.0,-53.0,76.0,104.0,105,41,132,81,130
2025-03-17 18:39:01.843,-806.0,1017.0,1276.0,-101.0,96.0,73.0,109,40,133,83,130
2025-03-17 18:39:01.868,-506.0,679.0,1579.0,-90.0,156.0,47.0,117,40,131,83,119
2025-03-17 18:39:01.892,-426.0,774.0,1386.0,-89.0,225.0,53.0,131,36,131,85,135
2025-03-17 18:39:01.916,-449.0,380.0,1088.0,-116.0,270.0,70.0,136,42,132,89,133
2025-03-17 18:39:01.939,-283.0,307.0,823.0,-104.0,305.0,75.0,138,36,135,90,117
2025-03-17 18:39:01.964,-358.0,314.0,586.0,-118.0,317.0,82.0,139,42,140,86,103
2025-03-17 18:39:01.990,-533.0,137.0,558.0,-141.0,295.0,81.0,136,51,143,84,78
2025-03-17 18:39:02.011,-565.0,313.0,169.0,-142.0,291.0,80.0,133,60,144,85,56
2025-03-17 18:39:02.036,-669.0,471.0,-462.0,-108.0,262.0,57.0,137,68,144,84,41
2025-03-17 18:39:02.060,-971.0,772.0,-1169.0,-45.0,157.0,-19.0,139,78,144,81,37
2025-03-17 18:39:02.085,-769.0,1666.0,-1613.0,-63.0,-46.0,-199.0,141,80,145,67,43
2025-03-17 18:39:02.109,-415.0,1666.0,-2477.0,-92.0,-279.0,-455.0,140,95,146,28,37
2025-03-17 18:39:02.133,-198.0,1670.0,-2662.0,-38.0,-623.0,-607.0,138,98,147,31,31
2025-03-17 18:39:02.158,1322.0,1500.0,-1947.0,-110.0,-972.0,-672.0,132,98,148,0,31
2025-03-17 18:39:02.182,4520.0,-1979.0,25.0,-146.0,-1068.0,-514.0,115,59,152,36,40
2025-03-17 18:39:02.204,4773.0,-2926.0,2274.0,-80.0,-468.0,-100.0,130,101,149,55,41
2025-03-17 18:39:02.228,3143.0,-3221.0,2506.0,167.0,131.0,11.0,133,75,149,62,42
2025-03-17 18:39:02.247,649.0,-1437.0,1930.0,20.0,133.0,91.0,131,112,149,57,40
2025-03-17 18:39:02.276,430.0,-1211.0,1723.0,-101.0,92.0,143.0,116,112,149,68,45
2025-03-17 18:39:02.301,267.0,-1071.0,1340.0,-39.0,183.0,138.0,127,113,147,69,44
2025-03-17 18:39:02.326,194.0,-855.0,854.0,25.0,249.0,158.0,128,114,148,76,45
2025-03-17 18:39:02.347,-44.0,-455.0,579.0,40.0,271.0,180.0,127,113,148,78,44
2025-03-17 18:39:02.372,-248.0,-80.0,410.0,2.0,223.0,153.0,128,115,149,80,46
2025-03-17 18:39:02.396,-101.0,-295.0,418.0,14.0,201.0,120.0,127,114,148,78,47
2025-03-17 18:39:02.420,-26.0,-440.0,458.0,61.0,242.0,145.0,130,107,148,80,48
2025-03-17 18:39:02.445,-102.0,-285.0,367.0,62.0,266.0,181.0,127,112,148,80,49
2025-03-17 18:39:02.469,-76.0,-195.0,322.0,59.0,271.0,198.0,130,115,147,83,47
2025-03-17 18:39:02.494,-347.0,-63.0,-110.0,76.0,272.0,231.0,131,116,148,70,48
2025-03-17 18:39:02.518,-724.0,1233.0,-816.0,41.0,186.0,242.0,134,101,141,80,47
2025-03-17 18:39:02.526,-1812.0,2159.0,-2480.0,80.0,-65.0,-99.0,131,111,148,76,48
2025-03-17 18:39:02.564,-1457.0,3873.0,-2603.0,47.0,-631.0,-617.0,130,117,148,79,45
2025-03-17 18:39:02.589,1352.0,1909.0,-1362.0,-207.0,-1046.0,-809.0,125,116,149,75,45
2025-03-17 18:39:02.613,4750.0,-2605.0,818.0,65.0,-869.0,-482.0,125,107,149,75,49
2025-03-17 18:39:02.637,4997.0,-2985.0,2718.0,-74.0,-196.0,-44.0,133,74,149,75,53
2025-03-17 18:39:02.660,2234.0,-2496.0,1843.0,96.0,151.0,9.0,132,85,149,84,52
2025-03-17 18:39:02.677,490.0,-1322.0,1371.0,-41.0,112.0,95.0,130,101,148,85,54
2025-03-17 18:39:02.707,89.0,-1034.0,1218.0,-4.0,113.0,86.0,130,113,148,79,54
2025-03-17 18:39:02.732,140.0,-874.0,1082.0,42.0,182.0,79.0,135,115,148,85,55
2025-03-17 18:39:02.744,289.0,-953.0,679.0,84.0,214.0,107.0,136,112,148,87,57
2025-03-17 18:39:02.781,506.0,-947.0,693.0,145.0,230.0,138.0,137,111,148,79,52
2025-03-17 18:39:02.805,330.0,-581.0,564.0,170.0,239.0,178.0,138,98,147,79,59
2025-03-17 18:39:02.829,161.0,-501.0,590.0,150.0,259.0,220.0,141,96,148,72,57
2025-03-17 18:39:02.847,26.0,-365.0,338.0,159.0,275.0,260.0,142,89,147,67,52
2025-03-17 18:39:02.875,-201.0,-292.0,-20.0,164.0,233.0,288.0,140,72,143,42,56
2025-03-17 18:39:02.897,-401.0,68.0,132.0,109.0,137.0,299.0,138,57,141,77,67
2025-03-17 18:39:02.925,-469.0,272.0,141.0,31.0,38.0,281.0,144,47,137,41,86
2025-03-17 18:39:02.949,-471.0,190.0,287.0,-14.0,-53.0,245.0,143,32,129,56,103
2025-03-17 18:39:02.962,-476.0,728.0,205.0,-20.0,-107.0,200.0,140,31,127,69,84
2025-03-17 18:39:02.997,-817.0,2708.0,-211.0,143.0,-99.0,31.0,137,35,126,57,118
2025-03-17 18:39:03.022,-1829.0,3885.0,-845.0,238.0,-214.0,-259.0,128,27,124,66,112
2025-03-17 18:39:03.046,-1397.0,3772.0,-1076.0,234.0,-471.0,-448.0,119,27,127,52,118
2025-03-17 18:39:03.068,1197.0,1640.0,979.0,190.0,-660.0,-441.0,126,27,122,62,109
2025-03-17 18:39:03.092,3309.0,-535.0,4023.0,140.0,-295.0,-242.0,133,30,126,70,134
2025-03-17 18:39:03.115,2708.0,-1889.0,3234.0,-55.0,37.0,-104.0,131,32,127,72,131
2025-03-17 18:39:03.139,1649.0,-1829.0,2247.0,-71.0,89.0,42.0,127,32,127,74,126
2025-03-17 18:39:03.166,688.0,-1240.0,1361.0,-88.0,174.0,114.0,123,36,128,74,131
2025-03-17 18:39:03.188,51.0,-423.0,709.0,-10.0,147.0,184.0,127,33,128,75,130
2025-03-17 18:39:03.211,-331.0,388.0,653.0,-50.0,78.0,212.0,126,35,128,74,121
2025-03-17 18:39:03.236,-471.0,843.0,583.0,-71.0,71.0,195.0,131,40,129,81,128
2025-03-17 18:39:03.260,-365.0,971.0,684.0,-5.0,117.0,124.0,127,41,129,81,132
2025-03-17 18:39:03.271,-543.0,1081.0,367.0,86.0,114.0,92.0,131,42,129,80,132
2025-03-17 18:39:03.309,-620.0,1455.0,459.0,32.0,46.0,61.0,125,42,127,86,133
2025-03-17 18:39:03.334,-489.0,1421.0,626.0,-17.0,26.0,13.0,133,42,130,83,132
2025-03-17 18:39:03.358,-834.0,1934.0,292.0,-30.0,56.0,-66.0,125,36,130,83,133
2025-03-17 18:39:03.379,-1248.0,2079.0,-551.0,-39.0,0.0,-212.0,129,43,131,83,133
2025-03-17 18:39:03.403,-1500.0,2030.0,-1245.0,50.0,-170.0,-296.0,124,44,131,72,133
2025-03-17 18:39:03.428,-292.0,1214.0,-756.0,52.0,-431.0,-342.0,131,44,129,85,134
2025-03-17 18:39:03.452,2425.0,-1172.0,1640.0,184.0,-448.0,-216.0,138,44,132,77,132
2025-03-17 18:39:03.471,3210.0,-1033.0,3999.0,-24.0,-139.0,-41.0,142,42,134,79,133
2025-03-17 18:39:03.501,2330.0,-1713.0,3056.0,-144.0,85.0,38.0,141,42,133,77,133
2025-03-17 18:39:03.526,751.0,-852.0,1666.0,-66.0,164.0,88.0,141,46,128,77,133
2025-03-17 18:39:03.547,-76.0,-144.0,1242.0,-117.0,160.0,146.0,140,46,133,77,133
2025-03-17 18:39:03.572,-239.0,361.0,1210.0,-160.0,232.0,156.0,140,44,135,75,133
2025-03-17 18:39:03.593,-307.0,615.0,1191.0,-122.0,288.0,126.0,141,48,134,80,133
2025-03-17 18:39:03.611,-485.0,692.0,1109.0,-142.0,288.0,107.0,142,47,135,80,132
2025-03-17 18:39:03.642,-298.0,698.0,1087.0,-186.0,317.0,117.0,141,48,134,82,125
2025-03-17 18:39:03.669,-241.0,479.0,809.0,-146.0,335.0,88.0,137,46,132,75,111
2025-03-17 18:39:03.693,-528.0,238.0,445.0,-112.0,319.0,76.0,138,42,131,75,90
2025-03-17 18:39:03.714,-403.0,440.0,559.0,-189.0,299.0,89.0,141,32,131,5,76
2025-03-17 18:39:03.739,-248.0,-13.0,308.0,-192.0,318.0,89.0,136,40,128,2,77
2025-03-17 18:39:03.764,-941.0,278.0,-137.0,-130.0,270.0,73.0,131,35,126,0,81
2025-03-17 18:39:03.787,-844.0,774.0,-414.0,-161.0,157.0,43.0,136,42,122,10,65
2025-03-17 18:39:03.812,-603.0,1455.0,-1090.0,-121.0,60.0,-58.0,137,39,120,31,37
2025-03-17 18:39:03.838,-498.0,2320.0,-2205.0,-39.0,-58.0,-257.0,135,43,118,13,39
2025-03-17 18:39:03.860,-838.0,2952.0,-3032.0,-60.0,-316.0,-577.0,130,44,114,1,33
2025-03-17 18:39:03.884,95.0,3141.0,-3344.0,-125.0,-677.0,-925.0,114,35,112,2,35
2025-03-17 18:39:03.907,4748.0,1005.0,-884.0,-137.0,-1108.0,-1018.0,109,14,112,39,32
2025-03-17 18:39:03.932,7785.0,-6217.0,3966.0,-190.0,-351.0,-179.0,110,35,113,43,34
2025-03-17 18:39:03.956,2640.0,-5741.0,325.0,438.0,240.0,127.0,100,23,113,28,43
2025-03-17 18:39:03.981,298.0,-1258.0,1566.0,-38.0,-12.0,184.0,107,35,114,39,37
2025-03-17 18:39:04.005,286.0,-2570.0,1854.0,-56.0,106.0,211.0,108,32,114,55,39
2025-03-17 18:39:04.029,-258.0,-1211.0,1071.0,-34.0,163.0,312.0,107,40,116,61,39
2025-03-17 18:39:04.048,-370.0,-312.0,642.0,-60.0,133.0,292.0,108,42,115,54,40
2025-03-17 18:39:04.072,-104.0,-189.0,730.0,-62.0,155.0,208.0,110,40,116,62,39
2025-03-17 18:39:04.100,-281.0,-460.0,436.0,-42.0,186.0,175.0,101,42,116,59,40
2025-03-17 18:39:04.124,-237.0,-525.0,262.0,-22.0,192.0,212.0,108,38,117,60,40
2025-03-17 18:39:04.149,-182.0,-275.0,290.0,9.0,185.0,269.0,109,43,117,58,40
2025-03-17 18:39:04.173,-121.0,-260.0,194.0,63.0,190.0,309.0,111,37,119,58,41
2025-03-17 18:39:04.197,-278.0,249.0,-145.0,120.0,202.0,319.0,114,32,122,58,42
2025-03-17 18:39:04.222,-491.0,1406.0,-521.0,88.0,124.0,297.0,114,33,117,57,41
2025-03-17 18:39:04.234,-410.0,2230.0,-1611.0,243.0,84.0,75.0,116,46,117,61,41
2025-03-17 18:39:04.268,-1728.0,4792.0,-3591.0,149.0,-205.0,-450.0,98,45,116,67,40
2025-03-17 18:39:04.292,-270.0,4321.0,-3469.0,-59.0,-810.0,-994.0,104,42,115,68,40
2025-03-17 18:39:04.317,7189.0,112.0,680.0,-177.0,-1243.0,-1028.0,102,39,116,56,34
2025-03-17 18:39:04.341,9018.0,-7466.0,5148.0,255.0,24.0,71.0,109,22,116,63,40
2025-03-17 18:39:04.366,368.0,-1201.0,726.0,233.0,216.0,56.0,106,30,116,53,41
2025-03-17 18:39:04.387,75.0,-1869.0,1475.0,-164.0,56.0,67.0,105,21,114,62,43
2025-03-17 18:39:04.411,-533.0,-800.0,769.0,74.0,153.0,115.0,99,38,117,64,44
2025-03-17 18:39:04.436,-1173.0,423.0,294.0,-29.0,53.0,13.0,104,39,117,66,45
2025-03-17 18:39:04.460,-433.0,-415.0,486.0,-60.0,-18.0,-39.0,101,30,117,67,45
2025-03-17 18:39:04.485,87.0,-976.0,746.0,9.0,27.0,-9.0,105,40,118,64,45
2025-03-17 18:39:04.508,-49.0,-703.0,616.0,14.0,10.0,-1.0,107,37,118,66,44
2025-03-17 18:39:04.533,-115.0,-568.0,553.0,-6.0,-26.0,-7.0,111,37,119,64,45
2025-03-17 18:39:04.555,-25.0,-775.0,850.0,-13.0,-14.0,-4.0,107,43,116,68,44
2025-03-17 18:39:04.579,-216.0,-646.0,728.0,11.0,16.0,7.0,108,39,117,68,45
2025-03-17 18:39:04.604,-198.0,-644.0,750.0,-4.0,8.0,-3.0,109,41,118,68,46
2025-03-17 18:39:04.628,-133.0,-805.0,767.0,-3.0,7.0,-2.0,109,43,118,67,45
2025-03-17 18:39:04.653,-107.0,-728.0,761.0,3.0,11.0,5.0,109,45,121,67,46
2025-03-17 18:39:04.677,-144.0,-660.0,716.0,-4.0,15.0,8.0,110,44,119,67,47
2025-03-17 18:39:04.702,-160.0,-752.0,677.0,-9.0,4.0,10.0,110,45,117,68,47
2025-03-17 18:39:04.720,-119.0,-752.0,701.0,13.0,8.0,16.0,107,44,119,67,45
2025-03-17 18:39:04.747,-169.0,-557.0,683.0,7.0,7.0,11.0,109,42,117,67,45
2025-03-17 18:39:04.769,-265.0,-581.0,663.0,-5.0,-8.0,0.0,109,39,117,67,48
2025-03-17 18:39:04.796,-209.0,-599.0,742.0,-15.0,-16.0,-6.0,110,45,117,68,45
2025-03-17 18:39:04.819,-118.0,-782.0,841.0,-24.0,-10.0,2.0,108,44,118,67,46
2025-03-17 18:39:04.842,-110.0,-782.0,851.0,4.0,19.0,8.0,110,42,118,67,46
2025-03-17 18:39:04.869,-275.0,-673.0,676.0,-6.0,5.0,7.0,111,41,118,68,46
2025-03-17 18:39:04.890,-222.0,-679.0,714.0,-1.0,-7.0,6.0,110,41,114,68,46
2025-03-17 18:39:04.915,-144.0,-690.0,754.0,3.0,10.0,8.0,112,42,119,68,44
2025-03-17 18:39:04.939,-185.0,-698.0,717.0,2.0,13.0,7.0,110,43,117,67,45
2025-03-17 18:39:04.964,-242.0,-622.0,665.0,9.0,4.0,5.0,110,36,118,68,46
2025-03-17 18:39:04.988,-177.0,-680.0,737.0,-4.0,-2.0,1.0,111,46,117,68,45
2025-03-17 18:39:05.013,-209.0,-674.0,746.0,-10.0,-1.0,-1.0,110,46,115,67,47
2025-03-17 18:39:05.038,-253.0,-730.0,724.0,-5.0,-2.0,0.0,111,46,119,68,46
2025-03-17 18:39:05.062,-229.0,-634.0,736.0,-12.0,-11.0,-3.0,110,47,118,68,46
2025-03-17 18:39:05.083,-124.0,-782.0,807.0,-18.0,-2.0,0.0,110,47,117,68,46
2025-03-17 18:39:05.108,-209.0,-741.0,737.0,-14.0,4.0,12.0,110,46,120,69,46
2025-03-17 18:39:05.132,-224.0,-653.0,728.0,-12.0,2.0,3.0,111,46,118,69,52
2025-03-17 18:39:05.156,-251.0,-614.0,690.0,-20.0,-5.0,-8.0,110,44,118,68,46
2025-03-17 18:39:05.181,-129.0,-806.0,740.0,-17.0,1.0,-2.0,111,46,120,68,46
2025-03-17 18:39:05.205,-182.0,-734.0,693.0,-4.0,10.0,6.0,111,45,118,68,45
2025-03-17 18:39:05.227,-225.0,-673.0,677.0,-7.0,5.0,0.0,111,46,118,68,46
2025-03-17 18:39:05.251,-217.0,-695.0,672.0,-15.0,-3.0,-4.0,111,47,119,68,46
2025-03-17 18:39:05.276,-173.0,-792.0,695.0,0.0,1.0,1.0,111,46,119,68,47
2025-03-17 18:39:05.299,-212.0,-674.0,674.0,9.0,10.0,3.0,111,47,118,69,47
2025-03-17 18:39:05.324,-210.0,-685.0,661.0,5.0,7.0,1.0,110,46,119,69,46
2025-03-17 18:39:05.349,-235.0,-683.0,665.0,7.0,2.0,1.0,111,46,118,67,47
2025-03-17 18:39:05.373,-227.0,-685.0,679.0,8.0,-1.0,-1.0,111,46,118,68,47
2025-03-17 18:39:05.398,-192.0,-678.0,710.0,1.0,-5.0,-4.0,111,45,118,68,47
2025-03-17 18:39:05.416,-227.0,-699.0,696.0,-4.0,-9.0,-5.0,112,46,119,69,47
2025-03-17 18:39:05.443,-178.0,-781.0,749.0,-3.0,-7.0,-5.0,112,47,120,67,47
2025-03-17 18:39:05.466,-209.0,-726.0,729.0,0.0,1.0,0.0,112,46,121,69,44
2025-03-17 18:39:05.491,-230.0,-675.0,703.0,-11.0,-3.0,-4.0,112,47,119,69,47
2025-03-17 18:39:05.515,-209.0,-750.0,707.0,-13.0,-8.0,-5.0,112,47,118,68,47
2025-03-17 18:39:05.540,-170.0,-780.0,732.0,-3.0,-1.0,1.0,111,47,119,68,48
2025-03-17 18:39:05.563,-213.0,-679.0,697.0,-5.0,0.0,0.0,110,46,119,66,46
2025-03-17 18:39:05.585,-218.0,-727.0,693.0,-6.0,-2.0,-1.0,111,47,119,68,55
2025-03-17 18:39:05.612,-195.0,-708.0,694.0,0.0,2.0,-1.0,111,49,119,67,47
2025-03-17 18:39:05.636,-179.0,-729.0,704.0,2.0,5.0,1.0,112,48,119,64,47
2025-03-17 18:39:05.660,-206.0,-723.0,700.0,2.0,4.0,2.0,113,47,119,70,48
2025-03-17 18:39:05.685,-209.0,-723.0,694.0,2.0,3.0,2.0,111,48,119,71,47
2025-03-17 18:39:05.709,-221.0,-706.0,685.0,-2.0,0.0,0.0,112,47,119,69,48
2025-03-17 18:39:05.734,-232.0,-701.0,706.0,-2.0,-3.0,0.0,112,47,119,69,47
2025-03-17 18:39:05.755,-211.0,-732.0,702.0,-1.0,-2.0,-1.0,111,47,118,69,47
2025-03-17 18:39:05.780,-199.0,-704.0,698.0,-2.0,-3.0,0.0,112,46,118,68,47
2025-03-17 18:39:05.804,-179.0,-762.0,701.0,-4.0,-2.0,1.0,111,47,119,69,47
2025-03-17 18:39:05.829,-206.0,-685.0,690.0,-5.0,-2.0,2.0,112,48,120,70,48
2025-03-17 18:39:05.853,-205.0,-754.0,678.0,-5.0,-4.0,1.0,112,46,118,70,47
2025-03-17 18:39:05.877,-203.0,-721.0,716.0,6.0,3.0,5.0,113,45,118,69,48
2025-03-17 18:39:05.901,-231.0,-671.0,699.0,4.0,4.0,2.0,112,46,119,69,48
2025-03-17 18:39:05.923,-225.0,-717.0,697.0,-1.0,-1.0,2.0,113,46,119,69,48
2025-03-17 18:39:05.944,-220.0,-700.0,714.0,2.0,-2.0,0.0,112,46,119,69,48
2025-03-17 18:39:05.972,-211.0,-707.0,716.0,5.0,1.0,0.0,113,46,119,68,48
2025-03-17 18:39:05.996,-224.0,-689.0,704.0,1.0,0.0,-1.0,112,47,118,69,47
2025-03-17 18:39:06.021,-209.0,-708.0,700.0,0.0,-2.0,-1.0,112,47,119,69,47
2025-03-17 18:39:06.045,-203.0,-706.0,718.0,-1.0,-2.0,-1.0,112,47,119,69,48
2025-03-17 18:39:06.069,-211.0,-727.0,718.0,4.0,1.0,1.0,113,49,119,69,48
2025-03-17 18:39:06.091,-234.0,-661.0,722.0,-1.0,1.0,-1.0,112,47,119,69,44
2025-03-17 18:39:06.115,-220.0,-690.0,707.0,-6.0,0.0,-3.0,112,46,119,70,48
2025-03-17 18:39:06.132,-212.0,-733.0,700.0,-5.0,-1.0,-3.0,113,47,119,69,48
2025-03-17 18:39:06.163,-215.0,-714.0,695.0,3.0,2.0,2.0,111,46,119,69,48
2025-03-17 18:39:06.188,-219.0,-681.0,689.0,-3.0,-3.0,1.0,112,47,119,69,47
2025-03-17 18:39:06.212,-211.0,-719.0,700.0,-4.0,-4.0,1.0,113,47,119,68,49
2025-03-17 18:39:06.238,-210.0,-726.0,711.0,3.0,2.0,1.0,112,47,119,69,48
2025-03-17 18:39:06.259,-217.0,-696.0,709.0,0.0,2.0,1.0,111,47,119,70,48
2025-03-17 18:39:06.284,-243.0,-689.0,687.0,-5.0,0.0,-1.0,113,47,119,71,49
2025-03-17 18:39:06.307,-216.0,-743.0,696.0,0.0,0.0,-1.0,113,48,119,68,49
2025-03-17 18:39:06.333,-215.0,-704.0,676.0,-1.0,0.0,1.0,113,47,119,70,49
2025-03-17 18:39:06.357,-228.0,-705.0,672.0,-3.0,-4.0,0.0,112,46,118,69,49
2025-03-17 18:39:06.381,-208.0,-730.0,714.0,1.0,-1.0,2.0,112,47,119,70,46
2025-03-17 18:39:06.405,-222.0,-705.0,715.0,4.0,1.0,2.0,112,47,119,70,48
2025-03-17 18:39:06.427,-231.0,-696.0,709.0,-1.0,-2.0,1.0,112,47,119,69,48
2025-03-17 18:39:06.452,-221.0,-713.0,729.0,-2.0,-3.0,1.0,112,47,119,70,41
2025-03-17 18:39:06.476,-224.0,-693.0,726.0,2.0,0.0,1.0,112,48,119,70,48
2025-03-17 18:39:06.496,-230.0,-670.0,714.0,-3.0,-1.0,-2.0,113,47,119,70,48
2025-03-17 18:39:06.524,-219.0,-714.0,726.0,-2.0,-1.0,-1.0,113,48,119,70,49
2025-03-17 18:39:06.549,-211.0,-713.0,721.0,0.0,0.0,-1.0,112,47,119,70,47
