timestamp,ax,ay,az,gx,gy,gz,flex1,flex2,flex3,flex4,flex5,emg1,emg2,emg3
2025-03-17 18:48:07.112,-613.0,-578.0,806.0,36.0,-13.0,20.0,133,76,142,104,109
2025-03-17 18:48:07.126,-623.0,-671.0,748.0,31.0,-13.0,13.0,133,78,141,104,111
2025-03-17 18:48:07.128,-613.0,-578.0,806.0,36.0,-13.0,20.0,133,76,142,104,109
2025-03-17 18:48:07.132,-510.0,-237.0,794.0,48.0,-14.0,18.0,133,78,141,105,110
2025-03-17 18:48:07.135,-520.0,-201.0,793.0,52.0,-13.0,15.0,133,79,142,104,111
2025-03-17 18:48:07.137,-527.0,-167.0,810.0,51.0,-11.0,12.0,130,79,141,100,110
2025-03-17 18:48:07.137,-524.0,-171.0,823.0,46.0,-9.0,6.0,133,79,142,102,111
2025-03-17 18:48:07.142,-511.0,-172.0,815.0,44.0,-5.0,2.0,134,79,141,103,110
2025-03-17 18:48:07.143,-513.0,-182.0,829.0,45.0,-4.0,1.0,133,79,141,100,111
2025-03-17 18:48:07.143,-518.0,-177.0,841.0,49.0,-4.0,3.0,134,80,141,102,111
2025-03-17 18:48:07.148,-507.0,-143.0,864.0,44.0,0.0,0.0,133,77,142,102,113
2025-03-17 18:48:07.151,-511.0,-160.0,883.0,38.0,1.0,0.0,133,79,139,103,111
2025-03-17 18:48:07.156,-513.0,-139.0,899.0,40.0,3.0,0.0,133,80,142,103,111
2025-03-17 18:48:07.180,-526.0,-116.0,899.0,35.0,6.0,-2.0,134,80,142,104,110
2025-03-17 18:48:07.205,-528.0,-108.0,936.0,28.0,7.0,-5.0,133,79,140,104,112
2025-03-17 18:48:07.230,-525.0,-125.0,858.0,25.0,9.0,-8.0,132,83,142,105,110
2025-03-17 18:48:07.254,-526.0,-140.0,848.0,26.0,8.0,-6.0,132,80,142,104,111
2025-03-17 18:48:07.279,-533.0,-113.0,833.0,23.0,8.0,-4.0,132,80,142,104,111
2025-03-17 18:48:07.303,-538.0,-100.0,836.0,21.0,10.0,-4.0,133,81,141,104,111
2025-03-17 18:48:07.326,-550.0,-78.0,762.0,18.0,7.0,-4.0,131,80,142,104,111
2025-03-17 18:48:07.351,-551.0,-88.0,783.0,10.0,5.0,-3.0,132,78,141,106,112
2025-03-17 18:48:07.374,-556.0,-72.0,842.0,19.0,9.0,-2.0,132,82,141,106,112
2025-03-17 18:48:07.398,-567.0,-63.0,790.0,18.0,5.0,-3.0,132,78,143,106,111
2025-03-17 18:48:07.422,-579.0,-65.0,856.0,13.0,1.0,-1.0,132,79,141,104,111
2025-03-17 18:48:07.446,-573.0,-49.0,866.0,18.0,-2.0,0.0,131,79,141,105,111
2025-03-17 18:48:07.471,-596.0,-14.0,858.0,21.0,1.0,0.0,132,80,142,105,112
2025-03-17 18:48:07.496,-585.0,11.0,876.0,16.0,0.0,-2.0,132,80,141,102,111
2025-03-17 18:48:07.520,-580.0,21.0,869.0,13.0,2.0,-6.0,132,80,142,105,111
2025-03-17 18:48:07.539,-584.0,-6.0,846.0,8.0,6.0,-8.0,132,80,141,105,112
2025-03-17 18:48:07.566,-591.0,-26.0,828.0,6.0,5.0,-6.0,132,80,141,106,111
2025-03-17 18:48:07.590,-594.0,3.0,864.0,14.0,0.0,-4.0,132,80,142,105,112
2025-03-17 18:48:07.615,-573.0,-5.0,852.0,9.0,6.0,-5.0,132,80,142,105,110
2025-03-17 18:48:07.640,-596.0,-14.0,784.0,11.0,2.0,-5.0,131,80,143,103,111
2025-03-17 18:48:07.664,-618.0,-6.0,772.0,11.0,-1.0,-5.0,132,80,141,105,112
2025-03-17 18:48:07.688,-599.0,5.0,848.0,17.0,5.0,-4.0,131,81,141,104,110
2025-03-17 18:48:07.710,-593.0,-3.0,829.0,8.0,5.0,-5.0,114,81,142,106,111
2025-03-17 18:48:07.734,-575.0,-13.0,853.0,16.0,9.0,-5.0,115,80,141,103,111
2025-03-17 18:48:07.757,-589.0,14.0,882.0,9.0,22.0,-6.0,106,80,142,105,111
2025-03-17 18:48:07.774,-585.0,-13.0,819.0,7.0,25.0,-8.0,118,80,142,106,111
2025-03-17 18:48:07.807,-586.0,-13.0,852.0,8.0,12.0,-4.0,122,80,141,100,111
2025-03-17 18:48:07.831,-630.0,11.0,928.0,-8.0,19.0,-3.0,114,80,141,104,110
2025-03-17 18:48:07.852,-658.0,10.0,806.0,7.0,8.0,-1.0,125,79,141,106,110
2025-03-17 18:48:07.877,-585.0,-10.0,860.0,0.0,12.0,0.0,123,80,140,102,111
2025-03-17 18:48:07.901,-606.0,9.0,806.0,5.0,11.0,0.0,121,80,141,104,110
2025-03-17 18:48:07.927,-594.0,12.0,770.0,-1.0,12.0,-1.0,123,79,142,106,110
2025-03-17 18:48:07.951,-610.0,-21.0,769.0,-1.0,10.0,2.0,121,80,141,99,110
2025-03-17 18:48:07.973,-617.0,-1.0,747.0,-1.0,3.0,3.0,122,81,140,96,110
2025-03-17 18:48:07.999,-622.0,17.0,776.0,0.0,-2.0,3.0,124,80,142,102,110
2025-03-17 18:48:08.024,-623.0,17.0,809.0,-1.0,0.0,1.0,125,81,141,99,113
2025-03-17 18:48:08.045,-636.0,24.0,785.0,-3.0,-3.0,0.0,127,80,142,101,109
2025-03-17 18:48:08.070,-648.0,32.0,784.0,-3.0,-5.0,0.0,128,81,141,104,110
2025-03-17 18:48:08.094,-638.0,25.0,822.0,-4.0,-1.0,-1.0,127,80,141,98,110
2025-03-17 18:48:08.118,-636.0,36.0,841.0,-3.0,1.0,-2.0,129,80,141,101,109
2025-03-17 18:48:08.142,-637.0,32.0,804.0,-6.0,0.0,-2.0,130,78,142,99,108
2025-03-17 18:48:08.167,-630.0,19.0,804.0,-8.0,0.0,-2.0,128,80,142,103,108
2025-03-17 18:48:08.192,-631.0,18.0,811.0,-8.0,1.0,-3.0,126,80,141,101,110
2025-03-17 18:48:08.212,-632.0,5.0,777.0,-10.0,2.0,-3.0,124,81,143,99,111
2025-03-17 18:48:08.237,-646.0,10.0,791.0,-6.0,-4.0,-3.0,121,80,141,103,109
2025-03-17 18:48:08.260,-664.0,-14.0,789.0,-10.0,-3.0,-2.0,119,78,142,105,112
2025-03-17 18:48:08.284,-657.0,8.0,811.0,-2.0,-4.0,0.0,121,81,141,104,111
2025-03-17 18:48:08.308,-659.0,-3.0,817.0,-3.0,-5.0,-2.0,121,79,141,104,110
2025-03-17 18:48:08.333,-655.0,8.0,877.0,-4.0,-3.0,-3.0,123,81,143,104,110
2025-03-17 18:48:08.356,-661.0,18.0,875.0,-5.0,-5.0,-5.0,121,80,143,106,110
2025-03-17 18:48:08.384,-659.0,5.0,871.0,-11.0,-1.0,-6.0,125,81,141,104,110
2025-03-17 18:48:08.405,-646.0,-16.0,824.0,-8.0,-5.0,-7.0,127,82,141,105,110
2025-03-17 18:48:08.430,-610.0,-6.0,827.0,-11.0,-1.0,-7.0,128,80,141,105,109
2025-03-17 18:48:08.455,-612.0,-39.0,804.0,-10.0,1.0,-6.0,129,80,143,99,110
2025-03-17 18:48:08.478,-632.0,-21.0,759.0,-10.0,1.0,-4.0,128,79,142,105,110
2025-03-17 18:48:08.503,-619.0,-45.0,761.0,-10.0,0.0,-1.0,128,82,142,105,110
2025-03-17 18:48:08.528,-622.0,-51.0,780.0,-7.0,0.0,1.0,125,80,142,104,110
2025-03-17 18:48:08.552,-624.0,-37.0,788.0,-6.0,-1.0,5.0,122,81,142,105,110
2025-03-17 18:48:08.575,-597.0,-28.0,799.0,-7.0,-5.0,4.0,123,80,141,99,110
2025-03-17 18:48:08.599,-612.0,-23.0,795.0,-14.0,-3.0,3.0,122,81,142,97,110
2025-03-17 18:48:08.622,-617.0,-68.0,790.0,-11.0,-6.0,3.0,119,81,142,104,111
2025-03-17 18:48:08.647,-608.0,-24.0,799.0,-9.0,-7.0,6.0,121,81,141,101,111
2025-03-17 18:48:08.671,-605.0,-18.0,807.0,-12.0,-7.0,2.0,125,81,141,100,111
2025-03-17 18:48:08.696,-623.0,-30.0,812.0,-15.0,-6.0,1.0,125,81,141,104,112
2025-03-17 18:48:08.720,-613.0,-49.0,814.0,-14.0,-7.0,2.0,125,84,142,104,110
2025-03-17 18:48:08.738,-604.0,-65.0,860.0,-15.0,-8.0,2.0,126,81,142,101,111
2025-03-17 18:48:08.763,-605.0,-57.0,815.0,-9.0,-11.0,2.0,127,82,142,107,111
2025-03-17 18:48:08.791,-600.0,-89.0,849.0,-8.0,-9.0,1.0,127,82,144,100,111
2025-03-17 18:48:08.815,-600.0,-57.0,839.0,-11.0,-13.0,-2.0,126,82,142,103,112
2025-03-17 18:48:08.835,-597.0,-56.0,841.0,-14.0,-14.0,0.0,126,81,137,105,113
2025-03-17 18:48:08.851,-593.0,-79.0,868.0,-15.0,-11.0,0.0,127,82,141,101,110
2025-03-17 18:48:08.888,-604.0,-81.0,825.0,-9.0,-12.0,3.0,126,83,141,102,110
2025-03-17 18:48:08.910,-606.0,-73.0,821.0,-10.0,-18.0,1.0,121,83,142,103,110
2025-03-17 18:48:08.934,-607.0,-122.0,833.0,-16.0,-17.0,0.0,122,82,142,102,110
2025-03-17 18:48:08.956,-579.0,-94.0,860.0,-14.0,-15.0,2.0,127,82,142,102,111
2025-03-17 18:48:08.982,-556.0,-47.0,894.0,-19.0,-12.0,-1.0,128,81,143,103,113
2025-03-17 18:48:09.005,-581.0,-70.0,836.0,-21.0,-10.0,-3.0,124,77,142,102,111
2025-03-17 18:48:09.032,-570.0,-85.0,871.0,-28.0,-7.0,-3.0,123,81,142,104,112
2025-03-17 18:48:09.056,-536.0,-87.0,894.0,-29.0,-5.0,-2.0,121,85,142,105,112
2025-03-17 18:48:09.080,-559.0,-108.0,832.0,-24.0,-2.0,-2.0,119,82,142,104,112
2025-03-17 18:48:09.102,-564.0,-102.0,827.0,-22.0,-3.0,-2.0,121,81,143,105,110
2025-03-17 18:48:09.127,-582.0,-124.0,860.0,-24.0,1.0,-3.0,121,81,141,105,111
2025-03-17 18:48:09.151,-591.0,-141.0,825.0,-23.0,-3.0,-2.0,121,82,141,105,112
2025-03-17 18:48:09.175,-581.0,-158.0,845.0,-15.0,-3.0,1.0,123,81,142,104,112
2025-03-17 18:48:09.200,-594.0,-155.0,833.0,-8.0,-4.0,4.0,122,82,142,104,112
2025-03-17 18:48:09.224,-578.0,-140.0,823.0,1.0,-5.0,8.0,122,81,142,105,112
2025-03-17 18:48:09.249,-561.0,-221.0,850.0,25.0,-2.0,17.0,120,81,142,104,113
2025-03-17 18:48:09.270,-565.0,-129.0,874.0,43.0,8.0,28.0,119,81,142,103,113
2025-03-17 18:48:09.294,-578.0,-18.0,840.0,35.0,6.0,21.0,117,86,142,103,121
2025-03-17 18:48:09.318,-601.0,-24.0,837.0,28.0,-5.0,15.0,115,82,142,103,114
2025-03-17 18:48:09.343,-584.0,-1.0,866.0,19.0,-8.0,7.0,115,80,142,104,114
2025-03-17 18:48:09.368,-583.0,-11.0,896.0,10.0,-2.0,-1.0,111,82,142,102,116
2025-03-17 18:48:09.392,-537.0,-112.0,831.0,-3.0,3.0,-6.0,113,81,143,102,115
2025-03-17 18:48:09.413,-556.0,-100.0,870.0,-2.0,0.0,-4.0,114,83,142,101,116
2025-03-17 18:48:09.437,-546.0,-86.0,872.0,1.0,0.0,-2.0,114,82,141,102,116
2025-03-17 18:48:09.462,-538.0,-67.0,899.0,-2.0,2.0,-3.0,113,82,142,101,116
2025-03-17 18:48:09.486,-536.0,-93.0,875.0,0.0,9.0,-3.0,113,83,142,101,115
2025-03-17 18:48:09.511,-561.0,-101.0,875.0,2.0,9.0,0.0,109,83,144,99,116
2025-03-17 18:48:09.536,-572.0,-66.0,813.0,1.0,6.0,0.0,111,83,143,104,116
2025-03-17 18:48:09.560,-584.0,-78.0,851.0,2.0,0.0,-1.0,110,83,143,105,103
2025-03-17 18:48:09.581,-575.0,-80.0,838.0,1.0,-2.0,0.0,110,83,142,105,116
2025-03-17 18:48:09.605,-561.0,-82.0,887.0,4.0,1.0,1.0,115,84,142,105,116
2025-03-17 18:48:09.629,-561.0,-67.0,844.0,4.0,6.0,0.0,118,84,142,104,116
2025-03-17 18:48:09.646,-578.0,-63.0,857.0,2.0,4.0,0.0,118,83,143,105,117
2025-03-17 18:48:09.678,-548.0,-50.0,852.0,2.0,4.0,-2.0,116,83,142,101,117
2025-03-17 18:48:09.704,-554.0,-69.0,867.0,1.0,3.0,-1.0,119,84,142,105,116
2025-03-17 18:48:09.728,-578.0,-61.0,816.0,3.0,-3.0,0.0,118,83,149,104,116
2025-03-17 18:48:09.753,-553.0,-43.0,818.0,0.0,-8.0,-2.0,119,85,143,105,117
2025-03-17 18:48:09.773,-536.0,-62.0,908.0,-2.0,-5.0,-2.0,118,83,142,105,117
2025-03-17 18:48:09.798,-568.0,-70.0,857.0,1.0,-1.0,0.0,118,84,143,105,117
2025-03-17 18:48:09.823,-564.0,-59.0,849.0,0.0,-2.0,1.0,118,85,143,107,118
2025-03-17 18:48:09.847,-566.0,-62.0,889.0,-2.0,2.0,0.0,118,83,143,105,117
2025-03-17 18:48:09.871,-572.0,-80.0,882.0,-1.0,6.0,2.0,117,82,142,104,117
2025-03-17 18:48:09.883,-579.0,-57.0,823.0,1.0,7.0,3.0,118,83,142,102,117
2025-03-17 18:48:09.920,-609.0,-19.0,823.0,0.0,-4.0,-1.0,118,77,143,103,117
2025-03-17 18:48:09.938,-581.0,-59.0,836.0,-3.0,-6.0,-2.0,118,84,143,106,117
2025-03-17 18:48:09.966,-570.0,-75.0,855.0,0.0,1.0,0.0,118,83,140,107,116
2025-03-17 18:48:09.991,-588.0,-51.0,843.0,2.0,4.0,2.0,117,84,143,104,118
2025-03-17 18:48:10.015,-597.0,-40.0,824.0,1.0,1.0,1.0,119,84,143,106,118
2025-03-17 18:48:10.039,-574.0,-44.0,837.0,-1.0,0.0,0.0,117,83,143,106,117
2025-03-17 18:48:10.064,-574.0,-52.0,853.0,-1.0,1.0,0.0,115,84,143,105,117
2025-03-17 18:48:10.085,-581.0,-38.0,840.0,0.0,2.0,0.0,118,84,143,105,118
2025-03-17 18:48:10.109,-575.0,-36.0,817.0,3.0,3.0,0.0,119,84,143,105,117
2025-03-17 18:48:10.134,-587.0,-20.0,835.0,-1.0,-1.0,-2.0,119,84,143,105,117
2025-03-17 18:48:10.159,-579.0,-54.0,852.0,-3.0,-1.0,-3.0,118,85,143,106,117
2025-03-17 18:48:10.182,-575.0,-49.0,852.0,1.0,1.0,-1.0,120,85,142,105,117
2025-03-17 18:48:10.206,-585.0,-47.0,847.0,3.0,4.0,-1.0,119,84,142,109,116
2025-03-17 18:48:10.232,-583.0,-29.0,833.0,1.0,2.0,-1.0,120,83,144,105,116
2025-03-17 18:48:10.256,-585.0,-46.0,836.0,-1.0,0.0,-1.0,119,84,144,104,117
2025-03-17 18:48:10.277,-575.0,-53.0,841.0,0.0,-1.0,-1.0,118,83,142,105,117
2025-03-17 18:48:10.302,-582.0,-48.0,854.0,-1.0,1.0,-1.0,118,82,142,104,117
2025-03-17 18:48:10.326,-597.0,-45.0,852.0,-1.0,0.0,-1.0,116,83,143,106,115
2025-03-17 18:48:10.351,-585.0,-69.0,849.0,-1.0,-1.0,-1.0,118,84,143,105,117
2025-03-17 18:48:10.375,-590.0,-35.0,884.0,0.0,1.0,-1.0,118,84,143,105,117
2025-03-17 18:48:10.400,-586.0,-43.0,877.0,-1.0,5.0,-1.0,119,83,143,103,117
2025-03-17 18:48:10.424,-605.0,-46.0,835.0,2.0,5.0,-2.0,118,84,142,102,116
2025-03-17 18:48:10.445,-610.0,-38.0,832.0,-3.0,3.0,-3.0,119,84,144,103,118
2025-03-17 18:48:10.470,-587.0,-63.0,824.0,-2.0,0.0,-1.0,123,84,143,101,117
2025-03-17 18:48:10.494,-577.0,-47.0,833.0,-2.0,1.0,-1.0,117,84,143,101,117
2025-03-17 18:48:10.519,-579.0,-38.0,864.0,0.0,2.0,0.0,119,82,142,101,117
2025-03-17 18:48:10.543,-594.0,-35.0,833.0,-1.0,2.0,0.0,119,84,142,102,118
2025-03-17 18:48:10.568,-596.0,-47.0,831.0,-1.0,-1.0,-1.0,119,84,143,106,120
2025-03-17 18:48:10.592,-581.0,-42.0,883.0,0.0,0.0,0.0,119,84,142,105,117
2025-03-17 18:48:10.613,-589.0,-43.0,852.0,-1.0,1.0,-1.0,118,85,142,105,118
2025-03-17 18:48:10.638,-589.0,-43.0,844.0,0.0,2.0,0.0,118,83,143,106,118
2025-03-17 18:48:10.663,-585.0,-36.0,853.0,1.0,1.0,-1.0,119,84,143,106,118
2025-03-17 18:48:10.683,-601.0,-33.0,827.0,3.0,3.0,0.0,119,84,142,105,118
2025-03-17 18:48:10.708,-605.0,-20.0,827.0,-1.0,1.0,-2.0,118,84,143,106,117
2025-03-17 18:48:10.736,-592.0,-37.0,826.0,-2.0,-2.0,-2.0,118,83,143,105,116
2025-03-17 18:48:10.760,-593.0,-48.0,825.0,0.0,-1.0,-1.0,118,83,142,106,117
2025-03-17 18:48:10.781,-587.0,-43.0,833.0,1.0,0.0,-1.0,118,83,142,106,116
2025-03-17 18:48:10.806,-587.0,-47.0,864.0,1.0,2.0,-1.0,118,85,143,106,117
2025-03-17 18:48:10.830,-598.0,-36.0,828.0,0.0,0.0,-1.0,119,84,143,106,117
2025-03-17 18:48:10.854,-601.0,-45.0,833.0,-2.0,0.0,-2.0,120,84,143,106,118
2025-03-17 18:48:10.878,-604.0,-54.0,824.0,-1.0,-1.0,0.0,118,84,142,105,117
2025-03-17 18:48:10.904,-591.0,-33.0,834.0,0.0,-1.0,-1.0,119,84,142,105,117
2025-03-17 18:48:10.928,-600.0,-54.0,831.0,-2.0,0.0,-2.0,119,85,142,105,118
2025-03-17 18:48:10.949,-601.0,-53.0,829.0,-1.0,0.0,0.0,119,82,143,106,116
2025-03-17 18:48:10.973,-607.0,-44.0,835.0,-1.0,-1.0,0.0,118,84,143,105,117
2025-03-17 18:48:10.998,-600.0,-38.0,844.0,-2.0,-2.0,-1.0,118,84,142,108,117
2025-03-17 18:48:11.023,-592.0,-43.0,843.0,-2.0,-1.0,-1.0,120,84,143,105,118
2025-03-17 18:48:11.047,-600.0,-27.0,839.0,-2.0,1.0,-1.0,119,84,143,105,117
2025-03-17 18:48:11.072,-607.0,-34.0,825.0,-1.0,-2.0,-1.0,120,85,143,106,118
2025-03-17 18:48:11.096,-609.0,-26.0,823.0,-2.0,-7.0,-3.0,118,84,142,104,119
2025-03-17 18:48:11.107,-603.0,-41.0,833.0,-2.0,-7.0,-2.0,118,84,143,104,120
2025-03-17 18:48:11.142,-573.0,-45.0,855.0,-1.0,0.0,-1.0,116,84,142,110,116
2025-03-17 18:48:11.166,-591.0,-48.0,853.0,0.0,2.0,0.0,114,83,142,105,116
2025-03-17 18:48:11.190,-595.0,-36.0,841.0,-1.0,1.0,0.0,113,84,143,104,117
2025-03-17 18:48:11.209,-588.0,-54.0,843.0,-2.0,2.0,-1.0,114,84,142,105,117
2025-03-17 18:48:11.239,-593.0,-42.0,842.0,-1.0,0.0,-1.0,111,84,141,105,118
2025-03-17 18:48:11.264,-595.0,-42.0,842.0,-2.0,0.0,-1.0,112,84,143,105,117
2025-03-17 18:48:11.285,-595.0,-54.0,836.0,-2.0,0.0,0.0,111,84,143,105,120
2025-03-17 18:48:11.310,-592.0,-34.0,833.0,0.0,1.0,0.0,112,83,142,105,117
2025-03-17 18:48:11.334,-601.0,-43.0,820.0,-1.0,1.0,-1.0,115,84,142,102,117
2025-03-17 18:48:11.355,-596.0,-34.0,826.0,-1.0,-2.0,-1.0,115,84,142,101,117
2025-03-17 18:48:11.383,-596.0,-34.0,833.0,-1.0,-2.0,-2.0,115,84,142,104,118
2025-03-17 18:48:11.407,-591.0,-49.0,827.0,-1.0,-2.0,-1.0,117,83,144,104,117
2025-03-17 18:48:11.429,-593.0,-38.0,828.0,0.0,-3.0,-1.0,117,83,143,101,117
2025-03-17 18:48:11.446,-595.0,-33.0,837.0,0.0,-2.0,-1.0,116,84,144,101,117
2025-03-17 18:48:11.477,-592.0,-38.0,837.0,-2.0,0.0,-2.0,118,85,143,105,120
2025-03-17 18:48:11.502,-593.0,-46.0,831.0,-1.0,-1.0,-2.0,116,84,143,105,118
2025-03-17 18:48:11.527,-599.0,-40.0,834.0,-1.0,-1.0,-1.0,117,84,143,103,118
2025-03-17 18:48:11.550,-593.0,-27.0,839.0,-1.0,-2.0,-2.0,116,84,142,105,117
2025-03-17 18:48:11.576,-599.0,-47.0,832.0,-2.0,0.0,-1.0,118,83,142,105,117
2025-03-17 18:48:11.600,-596.0,-39.0,835.0,0.0,-2.0,-1.0,120,84,142,106,119
2025-03-17 18:48:11.623,-594.0,-35.0,841.0,-1.0,-1.0,-1.0,118,84,143,105,117
2025-03-17 18:48:11.646,-595.0,-44.0,845.0,-1.0,-1.0,-1.0,118,85,143,106,118
2025-03-17 18:48:11.670,-593.0,-34.0,846.0,-1.0,0.0,-1.0,117,84,143,105,118
2025-03-17 18:48:11.694,-597.0,-32.0,838.0,-1.0,0.0,-2.0,117,84,143,106,116
2025-03-17 18:48:11.719,-596.0,-35.0,830.0,-1.0,-2.0,-2.0,118,84,144,106,117
2025-03-17 18:48:11.744,-597.0,-43.0,842.0,-1.0,-1.0,-2.0,117,83,142,104,117
2025-03-17 18:48:11.768,-595.0,-46.0,836.0,0.0,-1.0,-2.0,118,83,142,106,117
2025-03-17 18:48:11.793,-598.0,-49.0,840.0,-1.0,-1.0,-1.0,118,84,143,106,118
2025-03-17 18:48:11.810,-588.0,-53.0,844.0,0.0,-1.0,-1.0,118,83,142,106,118
2025-03-17 18:48:11.834,-594.0,-50.0,852.0,-1.0,0.0,-1.0,119,85,143,105,117
2025-03-17 18:48:11.859,-592.0,-43.0,852.0,-2.0,0.0,-1.0,118,84,142,106,121
2025-03-17 18:48:11.885,-596.0,-47.0,856.0,-2.0,1.0,-1.0,118,84,143,105,118
2025-03-17 18:48:11.911,-586.0,-49.0,857.0,-2.0,2.0,-1.0,118,84,143,106,116
2025-03-17 18:48:11.936,-590.0,-33.0,852.0,-6.0,5.0,-3.0,121,84,142,106,118
2025-03-17 18:48:11.960,-590.0,-48.0,841.0,-12.0,9.0,-3.0,119,84,142,105,117
2025-03-17 18:48:11.982,-612.0,-39.0,778.0,-7.0,4.0,-4.0,121,83,142,105,118
2025-03-17 18:48:12.006,-621.0,-40.0,801.0,-4.0,-6.0,-4.0,120,85,143,105,116
2025-03-17 18:48:12.031,-585.0,-77.0,821.0,-5.0,-6.0,-3.0,121,84,142,105,118
2025-03-17 18:48:12.055,-593.0,-61.0,842.0,0.0,-2.0,-2.0,121,84,143,106,118
2025-03-17 18:48:12.079,-605.0,-55.0,854.0,0.0,0.0,-2.0,120,83,142,106,118
2025-03-17 18:48:12.104,-605.0,-47.0,847.0,-2.0,-5.0,-2.0,121,84,143,107,116
2025-03-17 18:48:12.128,-609.0,-54.0,895.0,-3.0,-2.0,-2.0,120,83,142,105,116
2025-03-17 18:48:12.149,-583.0,-113.0,903.0,0.0,0.0,-1.0,121,81,143,106,116
2025-03-17 18:48:12.173,-597.0,-49.0,859.0,-1.0,2.0,0.0,120,84,143,105,118
2025-03-17 18:48:12.199,-601.0,-45.0,824.0,-3.0,-1.0,-1.0,120,85,143,106,118
2025-03-17 18:48:12.223,-590.0,-76.0,844.0,-3.0,2.0,-1.0,121,84,143,106,119
2025-03-17 18:48:12.247,-600.0,-50.0,826.0,-1.0,0.0,0.0,121,83,143,106,117
2025-03-17 18:48:12.271,-598.0,-42.0,831.0,-4.0,2.0,-1.0,121,84,140,106,116
2025-03-17 18:48:12.296,-596.0,-47.0,811.0,-4.0,2.0,-2.0,120,85,143,105,118
2025-03-17 18:48:12.318,-596.0,-51.0,804.0,-5.0,0.0,-2.0,120,84,142,105,116
2025-03-17 18:48:12.342,-581.0,-42.0,805.0,-6.0,0.0,-3.0,120,84,143,105,117
2025-03-17 18:48:12.366,-569.0,-71.0,810.0,-11.0,3.0,-4.0,118,84,142,105,116
2025-03-17 18:48:12.390,-599.0,-32.0,783.0,-15.0,4.0,-5.0,117,84,142,99,116
2025-03-17 18:48:12.415,-603.0,70.0,687.0,-29.0,8.0,-17.0,116,82,144,101,115
2025-03-17 18:48:12.440,-632.0,101.0,586.0,-48.0,-5.0,-32.0,123,79,141,99,113
2025-03-17 18:48:12.464,-597.0,151.0,416.0,-78.0,-27.0,-52.0,120,72,140,96,110
2025-03-17 18:48:12.483,-674.0,7.0,258.0,-92.0,-74.0,-65.0,125,59,136,92,92
2025-03-17 18:48:12.510,-555.0,-42.0,499.0,-121.0,-136.0,-78.0,126,45,127,78,63
2025-03-17 18:48:12.532,-211.0,-420.0,1402.0,-221.0,-153.0,-96.0,124,40,113,54,49
2025-03-17 18:48:12.549,244.0,-1938.0,2547.0,-237.0,-13.0,-6.0,125,35,101,48,38
2025-03-17 18:48:12.583,-113.0,-2336.0,2852.0,-95.0,132.0,181.0,125,33,95,51,38
2025-03-17 18:48:12.608,-241.0,-879.0,1767.0,-128.0,293.0,202.0,109,34,94,57,43
2025-03-17 18:48:12.629,-726.0,-764.0,871.0,-282.0,261.0,181.0,111,35,93,59,35
2025-03-17 18:48:12.653,-229.0,-926.0,760.0,-171.0,273.0,203.0,114,27,95,60,36
2025-03-17 18:48:12.677,-360.0,-511.0,455.0,-115.0,291.0,251.0,109,33,96,60,39
2025-03-17 18:48:12.702,-451.0,-21.0,83.0,-73.0,246.0,273.0,110,32,97,59,35
2025-03-17 18:48:12.728,-231.0,540.0,88.0,-49.0,250.0,231.0,111,36,91,58,37
2025-03-17 18:48:12.751,-283.0,689.0,-252.0,-29.0,239.0,157.0,108,37,98,58,38
2025-03-17 18:48:12.776,-321.0,769.0,-293.0,-34.0,189.0,111.0,104,37,98,60,36
2025-03-17 18:48:12.800,-334.0,662.0,-552.0,-10.0,128.0,117.0,111,35,98,61,39
2025-03-17 18:48:12.823,-121.0,1273.0,-875.0,56.0,78.0,125.0,120,34,98,61,40
2025-03-17 18:48:12.845,-111.0,2617.0,-1702.0,63.0,-77.0,13.0,120,34,98,59,42
2025-03-17 18:48:12.870,116.0,3689.0,-2389.0,28.0,-232.0,-362.0,109,33,99,60,42
2025-03-17 18:48:12.894,589.0,3656.0,-2513.0,-4.0,-451.0,-798.0,122,37,97,57,41
2025-03-17 18:48:12.919,2183.0,3357.0,-2162.0,-111.0,-817.0,-1233.0,106,28,81,56,39
2025-03-17 18:48:12.944,8106.0,-738.0,4493.0,-178.0,-786.0,-1071.0,113,30,85,58,40
2025-03-17 18:48:12.968,5697.0,-8646.0,1948.0,-221.0,27.0,-285.0,109,32,79,59,42
2025-03-17 18:48:12.992,2484.0,-4986.0,538.0,231.0,104.0,317.0,115,37,90,58,42
2025-03-17 18:48:13.013,795.0,-2436.0,1072.0,37.0,96.0,353.0,117,35,94,60,43
2025-03-17 18:48:13.039,315.0,-1777.0,1095.0,-63.0,129.0,412.0,116,33,85,60,44
2025-03-17 18:48:13.063,-19.0,-842.0,683.0,4.0,179.0,465.0,114,38,95,62,43
2025-03-17 18:48:13.087,11.0,514.0,507.0,7.0,239.0,388.0,119,36,100,61,45
2025-03-17 18:48:13.111,-439.0,308.0,1.0,-47.0,218.0,300.0,120,38,100,64,44
2025-03-17 18:48:13.136,-548.0,11.0,-231.0,-33.0,145.0,260.0,122,31,98,64,43
2025-03-17 18:48:13.155,-327.0,156.0,-47.0,-1.0,124.0,255.0,122,35,97,65,42
2025-03-17 18:48:13.181,-279.0,349.0,-88.0,49.0,113.0,255.0,119,38,95,66,43
2025-03-17 18:48:13.204,-438.0,576.0,-429.0,91.0,106.0,247.0,123,38,97,64,43
2025-03-17 18:48:13.230,-519.0,956.0,-738.0,124.0,50.0,214.0,124,31,101,64,45
2025-03-17 18:48:13.255,-374.0,1659.0,-1014.0,173.0,-44.0,139.0,125,34,94,64,44
2025-03-17 18:48:13.280,-495.0,3338.0,-1510.0,119.0,-161.0,-164.0,118,37,101,64,46
2025-03-17 18:48:13.304,-354.0,3686.0,-2124.0,21.0,-392.0,-632.0,118,34,101,64,50
2025-03-17 18:48:13.329,1020.0,2750.0,-2411.0,-99.0,-761.0,-1050.0,120,28,101,63,46
2025-03-17 18:48:13.353,5981.0,-433.0,2696.0,-305.0,-732.0,-1007.0,121,30,99,65,45
2025-03-17 18:48:13.374,5336.0,-7840.0,1982.0,-334.0,-76.0,-412.0,114,34,100,55,47
2025-03-17 18:48:13.399,2701.0,-5415.0,700.0,144.0,141.0,166.0,119,37,95,67,46
2025-03-17 18:48:13.423,1195.0,-2617.0,738.0,55.0,75.0,291.0,115,40,97,67,48
2025-03-17 18:48:13.447,202.0,-1835.0,914.0,16.0,78.0,324.0,119,37,100,68,47
2025-03-17 18:48:13.471,-161.0,-697.0,789.0,18.0,142.0,337.0,123,35,104,64,48
2025-03-17 18:48:13.496,-438.0,-171.0,281.0,-51.0,125.0,277.0,125,36,103,68,50
2025-03-17 18:48:13.520,-323.0,-283.0,482.0,-121.0,123.0,226.0,120,32,105,67,48
2025-03-17 18:48:13.542,-336.0,-479.0,374.0,-94.0,122.0,210.0,120,38,106,66,48
2025-03-17 18:48:13.567,-167.0,-454.0,261.0,-29.0,149.0,234.0,124,40,103,68,46
2025-03-17 18:48:13.591,-271.0,-248.0,106.0,-9.0,146.0,259.0,121,39,99,64,45
2025-03-17 18:48:13.616,-195.0,-218.0,21.0,13.0,138.0,290.0,117,38,103,66,45
2025-03-17 18:48:13.640,-202.0,-208.0,11.0,86.0,153.0,336.0,123,29,106,68,48
2025-03-17 18:48:13.664,-97.0,248.0,-147.0,128.0,149.0,397.0,124,33,107,63,49
2025-03-17 18:48:13.689,-296.0,1287.0,-1067.0,196.0,10.0,373.0,123,34,105,66,52
2025-03-17 18:48:13.700,-538.0,3923.0,-1712.0,123.0,-39.0,-39.0,122,36,98,64,51
2025-03-17 18:48:13.730,-586.0,4810.0,-3368.0,-61.0,-262.0,-675.0,126,33,102,63,47
2025-03-17 18:48:13.760,1176.0,3994.0,-3805.0,-167.0,-689.0,-1116.0,115,35,100,61,47
2025-03-17 18:48:13.779,6710.0,-1312.0,-427.0,-424.0,-910.0,-1068.0,130,31,88,61,45
2025-03-17 18:48:13.808,7344.0,-6121.0,2215.0,-615.0,-537.0,-587.0,135,33,84,61,45
2025-03-17 18:48:13.830,3094.0,-8171.0,-788.0,291.0,245.0,57.0,136,26,99,61,48
2025-03-17 18:48:13.851,726.0,-1174.0,-2076.0,187.0,95.0,159.0,137,34,96,60,50
2025-03-17 18:48:13.878,63.0,-1855.0,556.0,-29.0,-45.0,104.0,126,37,98,61,50
2025-03-17 18:48:13.902,355.0,-1480.0,1073.0,32.0,73.0,189.0,139,41,98,63,49
2025-03-17 18:48:13.926,-108.0,-1109.0,418.0,83.0,116.0,214.0,140,38,101,66,49
2025-03-17 18:48:13.951,-255.0,-474.0,284.0,3.0,87.0,163.0,131,37,101,62,50
2025-03-17 18:48:13.975,-45.0,-800.0,432.0,-27.0,79.0,138.0,140,40,100,63,50
2025-03-17 18:48:14.000,125.0,-1099.0,425.0,18.0,97.0,200.0,140,37,100,64,48
2025-03-17 18:48:14.023,45.0,-635.0,327.0,49.0,119.0,227.0,140,38,101,64,49
2025-03-17 18:48:14.046,-125.0,-445.0,277.0,56.0,137.0,221.0,141,39,102,66,48
2025-03-17 18:48:14.071,-226.0,-374.0,326.0,43.0,153.0,245.0,139,39,103,66,51
2025-03-17 18:48:14.095,-252.0,-605.0,281.0,72.0,167.0,290.0,131,40,102,66,50
2025-03-17 18:48:14.106,-15.0,-221.0,335.0,185.0,224.0,307.0,133,30,105,67,49
2025-03-17 18:48:14.144,-365.0,253.0,-739.0,208.0,163.0,356.0,136,33,103,67,50
2025-03-17 18:48:14.168,-1026.0,3143.0,-1302.0,127.0,65.0,158.0,134,31,99,66,48
2025-03-17 18:48:14.193,-1464.0,4274.0,-2532.0,-24.0,-135.0,-475.0,125,28,103,59,48
2025-03-17 18:48:14.217,-535.0,3241.0,-3167.0,-119.0,-445.0,-960.0,133,36,103,66,49
2025-03-17 18:48:14.238,4916.0,2500.0,-2786.0,-486.0,-1112.0,-1196.0,137,35,100,66,53
2025-03-17 18:48:14.263,8326.0,-6828.0,-111.0,-985.0,-592.0,-666.0,126,35,98,67,53
2025-03-17 18:48:14.282,4415.0,-7646.0,-845.0,676.0,461.0,179.0,129,41,101,72,52
2025-03-17 18:48:14.311,1085.0,1296.0,-707.0,118.0,24.0,200.0,132,42,83,67,54
2025-03-17 18:48:14.336,562.0,-2438.0,2021.0,13.0,-51.0,157.0,132,41,89,64,53
2025-03-17 18:48:14.361,583.0,-2140.0,919.0,174.0,131.0,253.0,129,41,103,69,54
2025-03-17 18:48:14.381,173.0,-604.0,127.0,157.0,253.0,293.0,142,40,106,71,54
2025-03-17 18:48:14.405,-76.0,-762.0,15.0,53.0,231.0,258.0,135,40,111,70,55
2025-03-17 18:48:14.430,428.0,-812.0,887.0,66.0,258.0,311.0,128,42,114,63,62
2025-03-17 18:48:14.453,669.0,-782.0,846.0,163.0,445.0,372.0,138,42,118,73,66
2025-03-17 18:48:14.469,316.0,139.0,423.0,58.0,309.0,432.0,135,39,120,0,73
2025-03-17 18:48:14.504,61.0,-197.0,-353.0,77.0,208.0,464.0,127,42,103,17,92
2025-03-17 18:48:14.526,-491.0,8.0,-630.0,247.0,186.0,436.0,125,47,128,75,100
2025-03-17 18:48:14.549,-187.0,931.0,-548.0,264.0,176.0,362.0,116,59,142,64,101
2025-03-17 18:48:14.574,-502.0,1455.0,-803.0,218.0,87.0,287.0,113,63,141,93,105
2025-03-17 18:48:14.599,-792.0,2454.0,-2594.0,65.0,-120.0,-60.0,110,62,141,97,106
2025-03-17 18:48:14.623,-740.0,2970.0,-2773.0,-112.0,-354.0,-538.0,112,67,143,99,107
2025-03-17 18:48:14.648,-51.0,2061.0,-1339.0,-229.0,-480.0,-894.0,113,67,104,98,113
2025-03-17 18:48:14.670,2799.0,1175.0,-1826.0,-370.0,-614.0,-1087.0,122,61,143,99,116
2025-03-17 18:48:14.697,3416.0,-4983.0,588.0,-273.0,-428.0,-966.0,133,86,130,94,121
2025-03-17 18:48:14.721,4754.0,-7079.0,1195.0,11.0,-124.0,-96.0,147,84,161,117,137
2025-03-17 18:48:14.745,2887.0,-3437.0,621.0,328.0,291.0,475.0,156,98,171,122,144
2025-03-17 18:48:14.767,59.0,-961.0,641.0,111.0,261.0,407.0,138,81,155,107,124
2025-03-17 18:48:14.791,-379.0,-1090.0,380.0,-71.0,57.0,284.0,143,92,154,113,128
2025-03-17 18:48:14.815,-221.0,-781.0,738.0,-46.0,131.0,262.0,144,112,155,115,130
2025-03-17 18:48:14.841,-329.0,-388.0,228.0,-52.0,178.0,267.0,135,115,157,116,132
2025-03-17 18:48:14.865,-420.0,-435.0,131.0,16.0,189.0,272.0,137,114,157,116,132
2025-03-17 18:48:14.889,-224.0,-98.0,-80.0,18.0,156.0,270.0,139,114,158,116,131
2025-03-17 18:48:14.912,-307.0,-132.0,40.0,35.0,114.0,251.0,135,104,151,109,124
2025-03-17 18:48:14.936,-560.0,-286.0,77.0,46.0,113.0,248.0,136,105,150,109,125
2025-03-17 18:48:14.959,-459.0,-128.0,-39.0,95.0,86.0,265.0,134,88,150,110,125
2025-03-17 18:48:14.984,-464.0,242.0,-179.0,110.0,4.0,275.0,134,103,152,111,126
2025-03-17 18:48:15.009,-519.0,1041.0,-576.0,150.0,-45.0,233.0,135,101,156,114,128
2025-03-17 18:48:15.033,-724.0,1914.0,-1561.0,148.0,-126.0,55.0,139,104,156,114,129
2025-03-17 18:48:15.057,-1135.0,2375.0,-1933.0,70.0,-281.0,-315.0,138,107,152,113,129
2025-03-17 18:48:15.081,-237.0,2816.0,-2318.0,-127.0,-467.0,-810.0,141,94,157,119,133
2025-03-17 18:48:15.106,3104.0,2410.0,2398.0,-467.0,-1029.0,-1151.0,138,111,125,114,128
2025-03-17 18:48:15.130,4268.0,-4176.0,881.0,-454.0,-591.0,-818.0,141,97,154,110,130
2025-03-17 18:48:15.155,4331.0,-6247.0,1728.0,-70.0,-78.0,-64.0,153,95,169,114,145
2025-03-17 18:48:15.177,2270.0,-3602.0,944.0,326.0,285.0,351.0,158,92,173,133,149
2025-03-17 18:48:15.201,-98.0,-1156.0,443.0,95.0,249.0,335.0,147,93,159,119,134
2025-03-17 18:48:15.222,-610.0,-423.0,991.0,-76.0,62.0,214.0,150,115,160,123,136
2025-03-17 18:48:15.239,-281.0,-854.0,477.0,-147.0,84.0,169.0,141,117,148,117,131
2025-03-17 18:48:15.271,-283.0,-890.0,516.0,-79.0,145.0,219.0,124,115,154,116,131
2025-03-17 18:48:15.299,-183.0,-669.0,352.0,9.0,208.0,272.0,130,100,152,114,128
2025-03-17 18:48:15.323,-184.0,-210.0,375.0,24.0,253.0,254.0,132,106,154,115,130
2025-03-17 18:48:15.344,-490.0,-224.0,385.0,7.0,220.0,232.0,135,110,160,119,132
2025-03-17 18:48:15.369,-366.0,-120.0,244.0,-22.0,171.0,230.0,136,107,114,120,126
2025-03-17 18:48:15.392,-342.0,-334.0,484.0,55.0,102.0,244.0,146,102,158,117,120
2025-03-17 18:48:15.409,-529.0,-334.0,-161.0,68.0,87.0,234.0,143,86,158,115,110
2025-03-17 18:48:15.442,-906.0,385.0,-497.0,113.0,44.0,203.0,144,59,149,68,99
2025-03-17 18:48:15.467,-1144.0,1696.0,-159.0,-2.0,-29.0,0.0,123,41,122,3,71
2025-03-17 18:48:15.491,-905.0,2843.0,-2397.0,-71.0,-109.0,-446.0,123,29,115,5,44
2025-03-17 18:48:15.512,1645.0,2314.0,-1423.0,-113.0,-420.0,-734.0,123,30,100,37,41
2025-03-17 18:48:15.536,953.0,872.0,-1439.0,-143.0,-771.0,-761.0,134,28,96,45,44
2025-03-17 18:48:15.548,4058.0,-957.0,428.0,-274.0,-712.0,-687.0,139,45,108,56,49
2025-03-17 18:48:15.585,4160.0,-4951.0,1941.0,-211.0,-136.0,-319.0,148,45,117,62,47
2025-03-17 18:48:15.611,2175.0,-4676.0,224.0,233.0,175.0,70.0,154,42,110,66,58
2025-03-17 18:48:15.635,1072.0,-2257.0,222.0,62.0,84.0,169.0,147,49,110,71,58
2025-03-17 18:48:15.653,546.0,-2012.0,682.0,12.0,54.0,178.0,149,47,113,69,59
2025-03-17 18:48:15.670,394.0,-1676.0,632.0,18.0,112.0,231.0,148,45,112,66,56
2025-03-17 18:48:15.702,281.0,-1153.0,508.0,38.0,130.0,283.0,145,40,111,70,50
2025-03-17 18:48:15.729,153.0,-553.0,439.0,79.0,173.0,279.0,147,45,113,74,55
2025-03-17 18:48:15.754,-74.0,-418.0,206.0,29.0,157.0,269.0,150,52,119,80,58
2025-03-17 18:48:15.778,-182.0,-205.0,185.0,31.0,145.0,235.0,150,49,119,77,59
2025-03-17 18:48:15.802,-188.0,-189.0,297.0,42.0,151.0,210.0,151,48,120,83,60
2025-03-17 18:48:15.823,-154.0,-91.0,376.0,63.0,183.0,187.0,149,51,121,80,61
2025-03-17 18:48:15.849,-684.0,29.0,-46.0,13.0,146.0,142.0,146,53,122,84,61
2025-03-17 18:48:15.873,-677.0,20.0,-177.0,34.0,72.0,124.0,134,43,113,74,53
2025-03-17 18:48:15.895,-681.0,1174.0,-418.0,67.0,83.0,45.0,126,43,109,73,55
2025-03-17 18:48:15.920,-1490.0,2323.0,-966.0,78.0,26.0,-142.0,128,45,111,80,55
2025-03-17 18:48:15.946,-1511.0,2633.0,-1709.0,25.0,-220.0,-451.0,130,46,103,78,56
2025-03-17 18:48:15.968,282.0,2226.0,-1110.0,-110.0,-519.0,-802.0,132,49,118,81,59
2025-03-17 18:48:15.985,4170.0,96.0,-84.0,-329.0,-671.0,-786.0,138,51,100,83,63
2025-03-17 18:48:16.015,4753.0,-6100.0,1608.0,-231.0,-37.0,-393.0,138,50,119,86,65
2025-03-17 18:48:16.040,2399.0,-4682.0,-514.0,275.0,215.0,146.0,141,54,120,87,67
2025-03-17 18:48:16.065,758.0,-1207.0,-409.0,-1.0,55.0,118.0,137,44,107,77,58
2025-03-17 18:48:16.075,333.0,-2154.0,465.0,-18.0,-3.0,117.0,131,46,113,77,59
2025-03-17 18:48:16.114,314.0,-1645.0,486.0,48.0,82.0,209.0,138,44,112,77,56
2025-03-17 18:48:16.138,0.0,-1105.0,203.0,8.0,98.0,252.0,139,43,115,78,57
2025-03-17 18:48:16.160,173.0,-730.0,401.0,37.0,93.0,203.0,140,48,119,84,60
2025-03-17 18:48:16.184,43.0,-918.0,332.0,5.0,134.0,221.0,141,50,119,87,61
2025-03-17 18:48:16.209,247.0,-1182.0,236.0,57.0,168.0,281.0,136,52,116,91,64
2025-03-17 18:48:16.233,198.0,-1255.0,213.0,142.0,227.0,347.0,132,51,127,63,65
2025-03-17 18:48:16.258,205.0,-629.0,38.0,132.0,217.0,355.0,122,51,138,46,75
2025-03-17 18:48:16.282,-236.0,-64.0,304.0,184.0,191.0,384.0,121,45,136,2,70
2025-03-17 18:48:16.306,-151.0,86.0,-230.0,212.0,213.0,415.0,121,55,139,3,64
2025-03-17 18:48:16.331,-324.0,890.0,-652.0,230.0,230.0,406.0,129,61,146,6,57
2025-03-17 18:48:16.349,-648.0,2242.0,-1778.0,162.0,70.0,193.0,136,73,145,4,49
2025-03-17 18:48:16.374,-1204.0,3162.0,-2558.0,35.0,-286.0,-336.0,130,79,63,37,49
2025-03-17 18:48:16.401,-520.0,2454.0,-2603.0,-14.0,-704.0,-728.0,119,85,106,56,53
2025-03-17 18:48:16.422,2932.0,2020.0,-1150.0,-112.0,-1087.0,-894.0,110,97,136,30,58
2025-03-17 18:48:16.450,4632.0,-1846.0,1791.0,-342.0,-984.0,-655.0,108,81,148,42,65
2025-03-17 18:48:16.474,5089.0,-5454.0,2436.0,-56.0,-176.0,-73.0,108,46,147,69,64
2025-03-17 18:48:16.495,2395.0,-2627.0,1708.0,266.0,309.0,152.0,99,5,143,78,65
2025-03-17 18:48:16.520,108.0,-1288.0,1055.0,-64.0,136.0,150.0,101,54,133,75,63
2025-03-17 18:48:16.544,347.0,-1760.0,1235.0,-50.0,99.0,187.0,109,99,149,88,65
2025-03-17 18:48:16.569,80.0,-1031.0,957.0,36.0,218.0,218.0,110,101,130,93,69
2025-03-17 18:48:16.593,-195.0,-504.0,517.0,8.0,222.0,228.0,108,71,149,94,68
2025-03-17 18:48:16.618,-156.0,-249.0,467.0,-46.0,197.0,214.0,109,84,151,91,68
2025-03-17 18:48:16.642,-97.0,-556.0,392.0,12.0,204.0,221.0,111,108,146,94,67
2025-03-17 18:48:16.666,-38.0,-393.0,340.0,94.0,251.0,242.0,113,111,152,89,67
2025-03-17 18:48:16.688,-303.0,-22.0,296.0,75.0,246.0,242.0,103,96,148,90,61
2025-03-17 18:48:16.712,-314.0,-157.0,130.0,62.0,219.0,225.0,107,107,141,92,61
2025-03-17 18:48:16.737,-379.0,-115.0,-12.0,139.0,215.0,232.0,115,94,125,92,60
2025-03-17 18:48:16.762,-662.0,749.0,-249.0,124.0,181.0,215.0,107,102,128,81,58
2025-03-17 18:48:16.785,-1282.0,1472.0,-1401.0,23.0,-9.0,30.0,113,104,130,83,57
2025-03-17 18:48:16.810,-1358.0,2439.0,-2328.0,73.0,-314.0,-331.0,111,101,151,85,59
2025-03-17 18:48:16.835,-748.0,2418.0,-3086.0,34.0,-724.0,-656.0,106,99,144,77,58
2025-03-17 18:48:16.859,2755.0,645.0,-446.0,-232.0,-1037.0,-776.0,88,98,139,72,63
2025-03-17 18:48:16.881,4550.0,-3434.0,2300.0,-131.0,-678.0,-350.0,102,90,146,80,66
2025-03-17 18:48:16.905,4120.0,-4059.0,2552.0,144.0,42.0,61.0,106,70,150,69,74
2025-03-17 18:48:16.930,877.0,-909.0,1899.0,125.0,239.0,92.0,106,69,147,83,73
2025-03-17 18:48:16.953,-14.0,-1183.0,1314.0,-80.0,104.0,121.0,107,74,147,91,70
2025-03-17 18:48:16.978,35.0,-1115.0,1304.0,-53.0,112.0,128.0,112,109,153,96,76
2025-03-17 18:48:17.003,-15.0,-839.0,1051.0,-57.0,186.0,136.0,110,106,151,94,75
2025-03-17 18:48:17.027,-180.0,-443.0,770.0,-105.0,204.0,158.0,115,95,133,93,73
2025-03-17 18:48:17.047,-233.0,-455.0,520.0,-149.0,195.0,170.0,120,108,151,99,74
2025-03-17 18:48:17.070,-31.0,-654.0,664.0,-110.0,215.0,177.0,126,106,152,93,78
2025-03-17 18:48:17.095,-122.0,-565.0,361.0,-80.0,214.0,192.0,128,102,154,83,81
2025-03-17 18:48:17.111,-183.0,-186.0,608.0,-62.0,206.0,220.0,130,97,139,77,80
2025-03-17 18:48:17.143,-215.0,-388.0,263.0,-83.0,186.0,227.0,117,87,143,69,76
2025-03-17 18:48:17.171,-1061.0,25.0,-1569.0,-253.0,106.0,263.0,131,73,132,53,80
2025-03-17 18:48:17.194,-554.0,200.0,-253.0,114.0,121.0,227.0,122,41,134,85,75
2025-03-17 18:48:17.216,-1008.0,1640.0,-449.0,52.0,47.0,99.0,133,40,127,94,71
2025-03-17 18:48:17.240,-1192.0,2666.0,-1898.0,-60.0,-106.0,-239.0,129,36,124,79,53
2025-03-17 18:48:17.265,-206.0,3062.0,-1975.0,-12.0,-318.0,-611.0,121,31,121,71,49
2025-03-17 18:48:17.290,344.0,2729.0,-2089.0,-213.0,-658.0,-868.0,123,33,111,71,49
2025-03-17 18:48:17.314,4744.0,-1950.0,-146.0,-464.0,-793.0,-880.0,123,35,117,78,51
2025-03-17 18:48:17.339,5135.0,-6381.0,2129.0,-287.0,-149.0,-270.0,132,29,121,79,51
2025-03-17 18:48:17.363,1877.0,-4465.0,-343.0,338.0,240.0,149.0,132,35,119,87,52
2025-03-17 18:48:17.384,911.0,-1649.0,-652.0,33.0,23.0,160.0,129,38,105,84,55
2025-03-17 18:48:17.409,411.0,-1724.0,724.0,37.0,29.0,143.0,135,39,122,86,54
2025-03-17 18:48:17.433,302.0,-1404.0,675.0,56.0,98.0,202.0,136,41,120,87,55
2025-03-17 18:48:17.457,-112.0,-673.0,281.0,23.0,90.0,205.0,138,42,121,85,53
2025-03-17 18:48:17.482,51.0,-565.0,358.0,13.0,63.0,177.0,136,40,122,84,54
2025-03-17 18:48:17.506,-40.0,-448.0,233.0,11.0,88.0,162.0,136,41,120,87,52
2025-03-17 18:48:17.531,-153.0,-612.0,232.0,12.0,94.0,168.0,138,41,121,88,54
2025-03-17 18:48:17.552,-244.0,-483.0,146.0,-28.0,64.0,192.0,138,41,124,90,54
2025-03-17 18:48:17.577,88.0,-338.0,616.0,90.0,115.0,164.0,140,43,123,90,55
2025-03-17 18:48:17.601,-246.0,-240.0,515.0,71.0,194.0,190.0,141,43,125,92,56
2025-03-17 18:48:17.625,-684.0,317.0,-54.0,101.0,208.0,174.0,141,48,128,96,60
2025-03-17 18:48:17.647,-1060.0,1827.0,-608.0,185.0,157.0,61.0,139,49,127,96,58
2025-03-17 18:48:17.675,-2225.0,3491.0,-2532.0,96.0,-99.0,-332.0,138,47,127,96,60
2025-03-17 18:48:17.699,-367.0,2942.0,-2317.0,-148.0,-599.0,-841.0,137,47,112,89,58
2025-03-17 18:48:17.723,4625.0,-1496.0,-1078.0,-520.0,-889.0,-841.0,138,49,125,92,57
2025-03-17 18:48:17.744,6530.0,-7448.0,2658.0,-282.0,-177.0,-189.0,134,36,125,90,55
2025-03-17 18:48:17.769,2426.0,-4126.0,-1211.0,552.0,384.0,245.0,137,41,107,93,57
2025-03-17 18:48:17.792,280.0,-1258.0,197.0,41.0,124.0,223.0,141,48,120,97,60
2025-03-17 18:48:17.816,224.0,-1709.0,913.0,22.0,77.0,254.0,140,46,123,95,61
2025-03-17 18:48:17.842,302.0,-1246.0,664.0,159.0,143.0,256.0,140,49,122,96,63
2025-03-17 18:48:17.866,9.0,-959.0,524.0,115.0,213.0,295.0,142,49,123,89,69
2025-03-17 18:48:17.888,276.0,-413.0,617.0,61.0,192.0,274.0,140,49,123,89,74
2025-03-17 18:48:17.913,-82.0,-659.0,947.0,110.0,210.0,298.0,135,32,119,79,76
2025-03-17 18:48:17.937,-128.0,-547.0,369.0,117.0,272.0,305.0,129,31,122,61,78
2025-03-17 18:48:17.962,4.0,-310.0,363.0,100.0,228.0,322.0,133,42,119,75,78
2025-03-17 18:48:17.978,-337.0,-245.0,141.0,42.0,201.0,324.0,105,41,118,64,75
2025-03-17 18:48:18.010,-496.0,75.0,127.0,76.0,209.0,311.0,119,35,116,86,70
2025-03-17 18:48:18.034,-775.0,702.0,-306.0,41.0,193.0,254.0,128,34,114,48,61
2025-03-17 18:48:18.053,-838.0,2648.0,-1350.0,26.0,89.0,11.0,130,38,109,84,46
2025-03-17 18:48:18.081,-572.0,3944.0,-3032.0,-37.0,-198.0,-474.0,119,41,107,78,51
2025-03-17 18:48:18.105,-177.0,2716.0,-2949.0,66.0,-557.0,-753.0,112,36,99,76,47
2025-03-17 18:48:18.130,2448.0,3378.0,-1689.0,-100.0,-1043.0,-1004.0,105,29,91,71,51
2025-03-17 18:48:18.154,6910.0,-2283.0,1180.0,-866.0,-639.0,-792.0,97,36,99,74,49
2025-03-17 18:48:18.178,5720.0,-9063.0,1253.0,41.0,182.0,-121.0,100,39,101,74,54
2025-03-17 18:48:18.203,1514.0,-2758.0,-1080.0,266.0,184.0,261.0,105,38,93,76,60
2025-03-17 18:48:18.224,795.0,-1571.0,635.0,-64.0,18.0,168.0,103,43,103,77,59
2025-03-17 18:48:18.246,498.0,-2129.0,690.0,-22.0,93.0,209.0,99,43,91,77,58
2025-03-17 18:48:18.271,153.0,-1642.0,583.0,34.0,140.0,293.0,106,44,106,78,59
2025-03-17 18:48:18.295,-113.0,-413.0,189.0,-12.0,142.0,290.0,105,44,105,77,59
2025-03-17 18:48:18.319,-231.0,-296.0,259.0,-58.0,131.0,229.0,102,41,104,75,53
2025-03-17 18:48:18.347,-157.0,-419.0,257.0,-26.0,137.0,208.0,107,41,93,75,53
2025-03-17 18:48:18.368,-234.0,-452.0,181.0,-33.0,153.0,225.0,107,42,103,74,50
2025-03-17 18:48:18.384,-360.0,-525.0,74.0,-8.0,142.0,261.0,107,42,103,74,49
2025-03-17 18:48:18.416,-75.0,-216.0,271.0,22.0,159.0,284.0,106,40,107,75,52
2025-03-17 18:48:18.440,-233.0,35.0,173.0,39.0,184.0,289.0,115,42,105,78,55
2025-03-17 18:48:18.465,-583.0,240.0,-232.0,29.0,135.0,294.0,115,39,109,78,54
2025-03-17 18:48:18.490,-991.0,1537.0,-1142.0,120.0,57.0,220.0,118,38,109,78,53
2025-03-17 18:48:18.514,-1101.0,4553.0,-2011.0,85.0,-86.0,-278.0,118,36,109,77,49
2025-03-17 18:48:18.539,-680.0,3498.0,-2547.0,0.0,-394.0,-822.0,112,38,106,76,46
2025-03-17 18:48:18.563,1685.0,2855.0,-1996.0,-17.0,-889.0,-1207.0,111,39,105,74,49
2025-03-17 18:48:18.585,8314.0,-1953.0,1756.0,-584.0,-810.0,-757.0,105,38,96,76,51
2025-03-17 18:48:18.609,6045.0,-9607.0,1048.0,84.0,341.0,12.0,113,46,106,77,56
2025-03-17 18:48:18.633,972.0,-665.0,-1579.0,153.0,148.0,313.0,109,40,82,76,55
2025-03-17 18:48:18.658,824.0,-1702.0,698.0,-39.0,20.0,202.0,111,47,105,79,58
2025-03-17 18:48:18.682,303.0,-1986.0,690.0,53.0,109.0,276.0,111,47,104,81,59
2025-03-17 18:48:18.707,53.0,-1248.0,281.0,72.0,161.0,335.0,118,51,114,82,63
2025-03-17 18:48:18.726,-86.0,-663.0,233.0,125.0,140.0,370.0,115,44,110,76,57
2025-03-17 18:48:18.749,176.0,-592.0,277.0,183.0,208.0,386.0,101,47,110,76,59
2025-03-17 18:48:18.774,31.0,-565.0,-251.0,245.0,254.0,427.0,121,42,110,75,62
2025-03-17 18:48:18.798,-295.0,-78.0,45.0,239.0,180.0,419.0,124,46,82,78,62
2025-03-17 18:48:18.826,-104.0,-99.0,-128.0,285.0,130.0,393.0,125,56,111,88,62
2025-03-17 18:48:18.850,-483.0,626.0,205.0,308.0,156.0,335.0,120,61,110,77,59
2025-03-17 18:48:18.863,-1074.0,806.0,-670.0,210.0,50.0,226.0,99,53,86,69,54
2025-03-17 18:48:18.896,-1234.0,1987.0,-2248.0,87.0,-256.0,-45.0,88,46,91,69,50
2025-03-17 18:48:18.919,-957.0,2498.0,-3440.0,-1.0,-729.0,-350.0,76,53,96,69,53
2025-03-17 18:48:18.945,1582.0,537.0,-3868.0,-35.0,-1273.0,-383.0,65,30,82,70,48
2025-03-17 18:48:18.969,5084.0,-2117.0,1077.0,385.0,-1122.0,-113.0,71,42,98,72,55
2025-03-17 18:48:18.994,2660.0,200.0,4392.0,501.0,-320.0,-181.0,79,38,101,72,71
2025-03-17 18:48:19.018,1984.0,355.0,3220.0,120.0,-47.0,-8.0,77,60,103,84,73
2025-03-17 18:48:19.042,1711.0,614.0,3861.0,-115.0,1.0,89.0,79,69,103,78,72
2025-03-17 18:48:19.065,1077.0,346.0,3485.0,-121.0,257.0,15.0,79,65,104,79,72
2025-03-17 18:48:19.088,344.0,-38.0,1892.0,-58.0,339.0,-37.0,82,76,90,78,72
2025-03-17 18:48:19.113,100.0,-31.0,1120.0,-87.0,239.0,6.0,82,79,94,79,71
2025-03-17 18:48:19.137,371.0,80.0,1279.0,-182.0,276.0,30.0,77,66,98,76,65
2025-03-17 18:48:19.161,264.0,-399.0,934.0,-124.0,385.0,37.0,81,69,99,75,67
2025-03-17 18:48:19.186,-96.0,-224.0,285.0,2.0,330.0,53.0,79,64,97,77,64
2025-03-17 18:48:19.210,-203.0,414.0,508.0,-60.0,268.0,32.0,84,62,99,78,64
2025-03-17 18:48:19.232,-7.0,44.0,558.0,-153.0,311.0,21.0,89,72,98,77,62
2025-03-17 18:48:19.256,-334.0,-620.0,-75.0,-62.0,278.0,80.0,89,63,103,79,60
2025-03-17 18:48:19.276,-189.0,-76.0,161.0,-22.0,228.0,138.0,85,64,103,80,58
2025-03-17 18:48:19.305,-200.0,532.0,92.0,-71.0,256.0,105.0,86,62,99,76,58
2025-03-17 18:48:19.329,-782.0,420.0,-910.0,-4.0,208.0,50.0,89,65,104,78,56
2025-03-17 18:48:19.354,-1577.0,956.0,-3459.0,174.0,-99.0,-41.0,82,66,100,74,49
2025-03-17 18:48:19.378,-1493.0,2587.0,-5168.0,292.0,-895.0,-284.0,83,67,82,73,47
2025-03-17 18:48:19.402,3749.0,263.0,-2869.0,52.0,-1506.0,-174.0,83,67,94,75,55
2025-03-17 18:48:19.424,5774.0,-1496.0,2874.0,460.0,-914.0,48.0,87,58,102,73,70
2025-03-17 18:48:19.448,3859.0,685.0,6484.0,142.0,53.0,-74.0,82,75,107,73,75
2025-03-17 18:48:19.473,1623.0,396.0,3113.0,-120.0,243.0,19.0,91,70,110,78,75
2025-03-17 18:48:19.496,1055.0,353.0,1959.0,-246.0,334.0,55.0,94,77,107,77,68
2025-03-17 18:48:19.522,624.0,212.0,1077.0,-359.0,408.0,92.0,102,63,112,75,71
2025-03-17 18:48:19.545,235.0,31.0,828.0,-312.0,451.0,119.0,103,60,104,70,62
2025-03-17 18:48:19.570,216.0,-81.0,449.0,-263.0,463.0,85.0,104,56,94,75,63
2025-03-17 18:48:19.592,423.0,-719.0,643.0,-160.0,534.0,109.0,102,32,115,78,66
2025-03-17 18:48:19.616,-95.0,-462.0,-134.0,-61.0,478.0,184.0,111,48,123,53,66
2025-03-17 18:48:19.640,-391.0,-165.0,19.0,-7.0,310.0,209.0,113,66,131,2,72
2025-03-17 18:48:19.664,-503.0,-146.0,-256.0,-16.0,202.0,198.0,114,74,140,4,83
2025-03-17 18:48:19.690,-541.0,34.0,-292.0,-27.0,145.0,156.0,115,77,142,3,99
2025-03-17 18:48:19.714,-775.0,148.0,6.0,0.0,91.0,125.0,113,77,145,6,103
2025-03-17 18:48:19.738,-729.0,602.0,-185.0,-18.0,34.0,95.0,110,84,146,98,108
2025-03-17 18:48:19.760,-641.0,1236.0,-1585.0,56.0,-76.0,45.0,105,79,145,99,108
2025-03-17 18:48:19.785,-682.0,1968.0,-2085.0,-23.0,-160.0,-185.0,105,84,145,99,111
2025-03-17 18:48:19.809,-943.0,2221.0,-1794.0,-52.0,-309.0,-542.0,106,88,102,102,116
2025-03-17 18:48:19.833,318.0,2200.0,-3003.0,-199.0,-704.0,-885.0,102,103,121,102,117
2025-03-17 18:48:19.858,5352.0,337.0,1910.0,-582.0,-1034.0,-926.0,112,104,148,106,126
2025-03-17 18:48:19.882,3522.0,-5103.0,1082.0,-274.0,-334.0,-485.0,114,74,147,86,124
2025-03-17 18:48:19.907,3387.0,-5636.0,1508.0,125.0,81.0,117.0,115,76,148,99,125
2025-03-17 18:48:19.932,1014.0,-2058.0,987.0,211.0,253.0,276.0,114,83,147,104,125
2025-03-17 18:48:19.956,-292.0,-1137.0,527.0,-64.0,154.0,194.0,115,107,148,105,125
2025-03-17 18:48:19.980,-240.0,-1168.0,756.0,-78.0,48.0,186.0,119,104,149,108,126
2025-03-17 18:48:20.001,-101.0,-1020.0,629.0,-73.0,166.0,217.0,120,109,150,109,126
2025-03-17 18:48:20.026,-130.0,-707.0,312.0,6.0,214.0,256.0,117,113,150,108,125
2025-03-17 18:48:20.050,-328.0,-393.0,257.0,6.0,200.0,251.0,119,106,150,109,127
2025-03-17 18:48:20.075,-112.0,-331.0,280.0,5.0,209.0,248.0,114,99,149,107,124
2025-03-17 18:48:20.099,-202.0,-402.0,69.0,60.0,190.0,280.0,111,108,145,106,121
2025-03-17 18:48:20.124,-220.0,-325.0,-149.0,89.0,158.0,315.0,111,105,147,106,120
2025-03-17 18:48:20.142,-228.0,-63.0,-121.0,104.0,77.0,317.0,110,94,147,106,119
2025-03-17 18:48:20.169,-328.0,227.0,-14.0,189.0,32.0,308.0,109,84,148,107,119
2025-03-17 18:48:20.194,-318.0,1089.0,-293.0,160.0,-35.0,222.0,92,89,150,108,118
2025-03-17 18:48:20.218,-706.0,2381.0,-987.0,41.0,-77.0,-15.0,106,91,149,108,121
2025-03-17 18:48:20.243,-1572.0,2306.0,-2203.0,31.0,-344.0,-476.0,109,96,150,107,121
2025-03-17 18:48:20.268,-889.0,2095.0,-1564.0,7.0,-407.0,-840.0,94,101,150,109,121
2025-03-17 18:48:20.290,2926.0,2241.0,842.0,-221.0,-1112.0,-943.0,93,109,148,105,117
2025-03-17 18:48:20.316,6733.0,-4386.0,3897.0,-609.0,-657.0,-554.0,102,69,148,73,119
2025-03-17 18:48:20.341,3219.0,-6873.0,2464.0,-150.0,65.0,164.0,103,78,148,58,122
2025-03-17 18:48:20.365,1676.0,-2597.0,1319.0,228.0,461.0,339.0,111,59,148,79,122
2025-03-17 18:48:20.386,-546.0,-247.0,1239.0,137.0,361.0,216.0,114,91,148,83,116
2025-03-17 18:48:20.411,-710.0,-490.0,508.0,-124.0,92.0,141.0,114,106,149,106,116
2025-03-17 18:48:20.434,-379.0,-621.0,702.0,-49.0,147.0,113.0,102,92,138,33,109
2025-03-17 18:48:20.460,-104.0,-896.0,650.0,-90.0,258.0,150.0,110,89,137,62,98
2025-03-17 18:48:20.484,-29.0,-929.0,241.0,59.0,259.0,220.0,111,79,120,16,90
2025-03-17 18:48:20.509,-247.0,-610.0,72.0,81.0,198.0,264.0,111,76,101,0,77
2025-03-17 18:48:20.531,-154.0,-261.0,248.0,100.0,154.0,262.0,113,58,112,2,48
2025-03-17 18:48:20.554,-331.0,-559.0,270.0,79.0,160.0,273.0,110,54,94,0,42
2025-03-17 18:48:20.579,-350.0,-235.0,-42.0,191.0,163.0,243.0,103,60,90,2,27
2025-03-17 18:48:20.603,-504.0,27.0,-577.0,129.0,28.0,203.0,95,55,98,2,41
2025-03-17 18:48:20.621,-900.0,577.0,-1262.0,177.0,-136.0,98.0,89,29,91,37,43
2025-03-17 18:48:20.652,-1275.0,1823.0,-2823.0,229.0,-470.0,-109.0,79,42,86,38,40
2025-03-17 18:48:20.663,-159.0,2291.0,-3429.0,88.0,-988.0,-280.0,76,35,84,45,38
2025-03-17 18:48:20.701,3894.0,-816.0,-2109.0,-35.0,-1338.0,-136.0,80,49,80,51,38
2025-03-17 18:48:20.723,4088.0,-1295.0,3567.0,349.0,-630.0,-49.0,78,63,77,51,60
2025-03-17 18:48:20.747,3130.0,-449.0,4269.0,212.0,36.0,-128.0,73,67,81,60,68
2025-03-17 18:48:20.771,1833.0,289.0,3177.0,75.0,65.0,-20.0,83,61,82,63,66
2025-03-17 18:48:20.795,1161.0,624.0,3341.0,-185.0,157.0,68.0,77,83,93,61,67
2025-03-17 18:48:20.821,625.0,-237.0,2357.0,-208.0,263.0,54.0,88,89,98,62,67
2025-03-17 18:48:20.845,414.0,-326.0,1197.0,-72.0,350.0,22.0,85,77,96,61,65
2025-03-17 18:48:20.865,223.0,131.0,977.0,-109.0,382.0,40.0,88,81,95,59,64
2025-03-17 18:48:20.888,126.0,162.0,641.0,-182.0,379.0,47.0,88,65,94,62,63
2025-03-17 18:48:20.913,-162.0,-480.0,200.0,-38.0,252.0,30.0,89,61,94,62,61
2025-03-17 18:48:20.929,-22.0,90.0,562.0,4.0,235.0,40.0,90,84,97,62,60
2025-03-17 18:48:20.961,-38.0,24.0,534.0,-112.0,280.0,36.0,93,59,98,64,57
2025-03-17 18:48:20.978,-522.0,-460.0,-106.0,-54.0,191.0,66.0,93,68,98,64,57
2025-03-17 18:48:21.012,-390.0,-150.0,224.0,51.0,80.0,38.0,92,75,97,65,57
2025-03-17 18:48:21.034,-135.0,270.0,564.0,-67.0,169.0,37.0,90,66,96,64,56
2025-03-17 18:48:21.058,-698.0,126.0,-323.0,-45.0,158.0,37.0,83,72,93,63,53
2025-03-17 18:48:21.083,-1285.0,1035.0,-1945.0,86.0,-18.0,-72.0,85,67,94,62,51
2025-03-17 18:48:21.107,-1858.0,1443.0,-4629.0,148.0,-663.0,-235.0,88,63,94,60,47
2025-03-17 18:48:21.132,2700.0,807.0,-2797.0,34.0,-1341.0,-156.0,88,70,96,62,54
2025-03-17 18:48:21.156,4960.0,-2521.0,3066.0,89.0,-888.0,23.0,91,67,95,67,64
2025-03-17 18:48:21.179,3406.0,-752.0,4620.0,29.0,65.0,-84.0,85,63,87,70,69
2025-03-17 18:48:21.205,1487.0,-940.0,3246.0,102.0,271.0,-53.0,92,74,97,70,71
2025-03-17 18:48:21.221,1086.0,-293.0,2557.0,-194.0,260.0,38.0,95,59,102,70,67
2025-03-17 18:48:21.251,280.0,-673.0,1508.0,-275.0,258.0,98.0,97,72,103,67,64
2025-03-17 18:48:21.275,372.0,-630.0,1233.0,-156.0,324.0,98.0,101,53,99,69,60
2025-03-17 18:48:21.299,318.0,-385.0,879.0,-126.0,436.0,108.0,103,74,105,71,56
2025-03-17 18:48:21.324,51.0,-323.0,556.0,-134.0,429.0,133.0,100,61,107,72,59
2025-03-17 18:48:21.348,-39.0,-474.0,592.0,-92.0,377.0,156.0,97,66,111,74,59
2025-03-17 18:48:21.370,35.0,-304.0,200.0,-55.0,355.0,173.0,112,76,120,77,61
2025-03-17 18:48:21.392,-92.0,-250.0,57.0,-34.0,353.0,195.0,118,63,130,78,65
2025-03-17 18:48:21.419,-462.0,-249.0,-287.0,-9.0,296.0,207.0,116,81,135,76,58
2025-03-17 18:48:21.443,-444.0,-25.0,-421.0,44.0,226.0,220.0,124,76,137,62,61
2025-03-17 18:48:21.467,-536.0,449.0,-719.0,85.0,195.0,219.0,124,73,128,71,49
2025-03-17 18:48:21.492,-591.0,907.0,-1255.0,129.0,102.0,152.0,129,86,145,48,52
2025-03-17 18:48:21.516,-710.0,1748.0,-2015.0,110.0,-71.0,-41.0,129,94,147,61,49
2025-03-17 18:48:21.541,-900.0,2415.0,-2711.0,36.0,-447.0,-458.0,120,107,148,57,47
2025-03-17 18:48:21.563,200.0,1492.0,-2453.0,-63.0,-932.0,-732.0,115,106,97,61,55
2025-03-17 18:48:21.587,4693.0,125.0,-812.0,-134.0,-1247.0,-723.0,96,82,132,58,60
2025-03-17 18:48:21.610,4901.0,-3144.0,2408.0,-76.0,-793.0,-277.0,107,19,150,42,67
2025-03-17 18:48:21.636,3937.0,-4672.0,3362.0,136.0,114.0,134.0,109,55,150,70,72
2025-03-17 18:48:21.661,541.0,-1188.0,2297.0,196.0,317.0,114.0,106,70,144,59,72
2025-03-17 18:48:21.684,-101.0,-1164.0,1696.0,-138.0,174.0,136.0,110,51,132,67,75
2025-03-17 18:48:21.709,-32.0,-1262.0,1382.0,-72.0,165.0,177.0,109,109,149,79,74
2025-03-17 18:48:21.730,-295.0,-440.0,829.0,-32.0,261.0,174.0,110,84,150,89,73
2025-03-17 18:48:21.755,-449.0,-205.0,387.0,-53.0,249.0,171.0,111,84,150,86,74
2025-03-17 18:48:21.779,-351.0,-157.0,367.0,-74.0,224.0,172.0,115,95,155,87,74
2025-03-17 18:48:21.803,-210.0,-314.0,219.0,-12.0,219.0,180.0,117,112,151,88,75
2025-03-17 18:48:21.827,-224.0,-236.0,306.0,53.0,242.0,177.0,115,96,151,83,74
2025-03-17 18:48:21.853,-372.0,-11.0,178.0,43.0,200.0,185.0,116,98,151,85,75
2025-03-17 18:48:21.877,-285.0,105.0,139.0,42.0,172.0,173.0,113,103,149,83,72
2025-03-17 18:48:21.898,-335.0,529.0,-501.0,69.0,158.0,175.0,114,101,149,77,72
2025-03-17 18:48:21.923,-960.0,1303.0,-1781.0,121.0,24.0,35.0,118,108,151,68,67
2025-03-17 18:48:21.947,-1292.0,2727.0,-2645.0,117.0,-367.0,-317.0,112,112,151,71,60
2025-03-17 18:48:21.971,959.0,2460.0,-1050.0,-9.0,-863.0,-660.0,110,101,151,78,62
2025-03-17 18:48:21.995,3116.0,581.0,-19.0,-297.0,-1057.0,-739.0,108,113,97,71,69
2025-03-17 18:48:22.020,4550.0,-3927.0,2627.0,-104.0,-596.0,-335.0,100,77,146,82,77
2025-03-17 18:48:22.045,3909.0,-4110.0,2907.0,71.0,32.0,45.0,108,42,150,85,82
2025-03-17 18:48:22.065,1257.0,-2044.0,1707.0,159.0,264.0,82.0,99,89,145,81,78
2025-03-17 18:48:22.089,48.0,-930.0,1376.0,-78.0,192.0,129.0,101,78,146,87,72
2025-03-17 18:48:22.113,-155.0,-1032.0,900.0,-50.0,106.0,105.0,109,104,151,85,75
2025-03-17 18:48:22.139,-16.0,-814.0,1018.0,-39.0,160.0,98.0,110,112,148,86,76
2025-03-17 18:48:22.164,56.0,-667.0,640.0,-50.0,201.0,100.0,105,78,149,91,75
2025-03-17 18:48:22.185,152.0,-647.0,817.0,-54.0,214.0,123.0,109,95,150,85,82
2025-03-17 18:48:22.202,206.0,-763.0,625.0,-25.0,267.0,158.0,114,112,150,82,85
2025-03-17 18:48:22.234,4.0,-644.0,625.0,12.0,273.0,195.0,118,114,144,89,84
2025-03-17 18:48:22.259,-13.0,-312.0,395.0,-8.0,298.0,203.0,127,110,144,70,82
2025-03-17 18:48:22.283,-173.0,-445.0,317.0,8.0,274.0,232.0,125,99,137,77,79
2025-03-17 18:48:22.306,-271.0,-455.0,25.0,50.0,242.0,264.0,126,86,126,71,77
2025-03-17 18:48:22.332,-432.0,166.0,17.0,124.0,210.0,269.0,123,77,104,60,71
2025-03-17 18:48:22.356,-361.0,499.0,-1348.0,67.0,162.0,243.0,104,52,92,49,56
2025-03-17 18:48:22.380,-2302.0,1565.0,-3418.0,282.0,-270.0,17.0,81,40,96,61,50
2025-03-17 18:48:22.405,38.0,3270.0,-4438.0,175.0,-1140.0,-369.0,80,36,91,68,51
2025-03-17 18:48:22.426,5238.0,-70.0,-2276.0,-2.0,-1587.0,-268.0,80,24,72,68,50
2025-03-17 18:48:22.451,5987.0,-2374.0,4261.0,478.0,-860.0,60.0,83,53,97,69,71
2025-03-17 18:48:22.462,3192.0,-118.0,4077.0,103.0,265.0,-126.0,74,63,90,73,81
2025-03-17 18:48:22.499,646.0,163.0,2389.0,26.0,216.0,-4.0,77,43,92,77,78
2025-03-17 18:48:22.524,727.0,186.0,3768.0,-242.0,231.0,51.0,77,55,96,76,72
2025-03-17 18:48:22.548,270.0,106.0,56.0,-205.0,238.0,38.0,81,57,89,76,73
2025-03-17 18:48:22.567,145.0,-681.0,1281.0,-93.0,350.0,31.0,82,63,78,76,69
2025-03-17 18:48:22.591,-90.0,-298.0,430.0,-56.0,311.0,61.0,85,48,84,79,73
2025-03-17 18:48:22.608,-25.0,-43.0,536.0,-123.0,297.0,68.0,84,62,99,76,70
2025-03-17 18:48:22.641,-381.0,-320.0,125.0,-54.0,261.0,67.0,86,66,100,76,66
2025-03-17 18:48:22.662,-341.0,-137.0,137.0,48.0,185.0,53.0,85,76,103,78,65
2025-03-17 18:48:22.692,-171.0,275.0,496.0,-14.0,194.0,45.0,85,66,100,74,69
2025-03-17 18:48:22.717,-255.0,-111.0,135.0,-71.0,216.0,89.0,83,53,95,75,65
2025-03-17 18:48:22.738,-654.0,66.0,-345.0,35.0,127.0,78.0,87,63,103,76,61
2025-03-17 18:48:22.762,-864.0,1242.0,-1060.0,100.0,-4.0,-40.0,85,64,103,78,63
2025-03-17 18:48:22.787,-1815.0,1172.0,-3182.0,104.0,-417.0,-179.0,87,63,99,74,56
2025-03-17 18:48:22.812,145.0,1478.0,-3636.0,128.0,-1109.0,-203.0,86,77,106,76,60
2025-03-17 18:48:22.836,4227.0,-1371.0,199.0,168.0,-1163.0,-36.0,86,63,97,74,62
2025-03-17 18:48:22.860,4100.0,-583.0,4912.0,161.0,-498.0,-21.0,87,66,107,73,81
2025-03-17 18:48:22.885,3054.0,-631.0,4222.0,39.0,109.0,-46.0,88,62,96,74,79
2025-03-17 18:48:22.909,1491.0,-260.0,2512.0,-88.0,236.0,8.0,97,56,110,75,75
2025-03-17 18:48:22.930,772.0,-548.0,1741.0,-205.0,241.0,89.0,110,72,120,74,76
2025-03-17 18:48:22.955,512.0,-450.0,1438.0,-219.0,317.0,141.0,123,80,122,78,77
2025-03-17 18:48:22.979,345.0,-81.0,1102.0,-260.0,406.0,128.0,118,64,125,79,76
2025-03-17 18:48:23.003,-32.0,-517.0,690.0,-156.0,414.0,82.0,121,50,126,82,80
2025-03-17 18:48:23.028,52.0,-324.0,766.0,-84.0,429.0,95.0,120,49,126,80,83
2025-03-17 18:48:23.046,290.0,-123.0,772.0,-149.0,464.0,109.0,126,43,127,57,87
2025-03-17 18:48:23.077,-259.0,16.0,517.0,-167.0,433.0,132.0,127,48,120,18,63
2025-03-17 18:48:23.098,-527.0,-439.0,-104.0,-80.0,333.0,167.0,127,34,126,1,74
2025-03-17 18:48:23.122,-297.0,-182.0,50.0,-108.0,204.0,162.0,127,35,125,0,80
2025-03-17 18:48:23.147,-651.0,-28.0,-228.0,3.0,214.0,138.0,122,34,122,0,80
2025-03-17 18:48:23.171,-678.0,640.0,-708.0,15.0,114.0,108.0,126,37,124,2,77
2025-03-17 18:48:23.196,-747.0,1253.0,-1212.0,-28.0,18.0,46.0,125,32,116,3,66
2025-03-17 18:48:23.221,-648.0,2320.0,-2108.0,67.0,-131.0,-176.0,106,33,107,2,50
2025-03-17 18:48:23.245,-541.0,3404.0,-3049.0,8.0,-436.0,-620.0,117,22,103,49,45
2025-03-17 18:48:23.269,1735.0,3161.0,-2533.0,-76.0,-954.0,-933.0,113,31,105,68,49
2025-03-17 18:48:23.291,7613.0,-298.0,2418.0,-219.0,-1022.0,-785.0,110,25,85,62,46
2025-03-17 18:48:23.314,5801.0,-6475.0,3821.0,-131.0,33.0,-115.0,106,24,102,69,54
2025-03-17 18:48:23.339,1905.0,-3900.0,1252.0,291.0,300.0,157.0,108,35,98,72,56
2025-03-17 18:48:23.364,224.0,-1442.0,1078.0,-129.0,109.0,143.0,112,29,104,76,55
2025-03-17 18:48:23.388,194.0,-2206.0,958.0,-117.0,107.0,196.0,114,37,100,77,58
2025-03-17 18:48:23.413,101.0,-1372.0,465.0,-21.0,130.0,258.0,116,39,104,78,60
2025-03-17 18:48:23.434,48.0,-474.0,804.0,-18.0,173.0,239.0,114,34,109,79,57
2025-03-17 18:48:23.458,-108.0,-309.0,684.0,-79.0,215.0,184.0,115,38,111,77,59
2025-03-17 18:48:23.482,-382.0,-502.0,259.0,-93.0,192.0,161.0,114,39,104,78,55
2025-03-17 18:48:23.507,-138.0,-631.0,385.0,-77.0,175.0,216.0,115,35,97,78,52
2025-03-17 18:48:23.531,-105.0,-531.0,310.0,-44.0,196.0,255.0,116,38,105,79,55
2025-03-17 18:48:23.555,-226.0,-470.0,122.0,19.0,213.0,233.0,117,37,107,79,54
2025-03-17 18:48:23.580,-363.0,-51.0,39.0,47.0,180.0,223.0,120,40,110,79,60
2025-03-17 18:48:23.602,-350.0,-180.0,-150.0,37.0,112.0,226.0,122,38,116,79,57
2025-03-17 18:48:23.627,-633.0,259.0,-140.0,52.0,101.0,202.0,123,38,114,75,60
2025-03-17 18:48:23.651,-459.0,889.0,-634.0,92.0,40.0,183.0,125,36,112,78,59
2025-03-17 18:48:23.676,-586.0,1959.0,-2232.0,185.0,-42.0,-11.0,127,39,114,79,55
2025-03-17 18:48:23.699,-1702.0,3708.0,-3348.0,110.0,-341.0,-455.0,122,31,107,71,49
2025-03-17 18:48:23.711,300.0,4159.0,-3199.0,-29.0,-960.0,-1056.0,119,30,89,67,50
2025-03-17 18:48:23.749,6927.0,-2875.0,649.0,-92.0,-1207.0,-866.0,122,27,92,68,50
2025-03-17 18:48:23.760,8491.0,-7288.0,3999.0,253.0,-133.0,97.0,118,21,97,71,58
2025-03-17 18:48:23.795,186.0,-2183.0,-885.0,267.0,263.0,39.0,126,36,99,72,68
2025-03-17 18:48:23.819,-449.0,-865.0,1149.0,-75.0,165.0,39.0,116,36,107,72,61
2025-03-17 18:48:23.844,-443.0,-1073.0,777.0,73.0,133.0,66.0,119,40,103,74,65
2025-03-17 18:48:23.868,-681.0,-625.0,633.0,128.0,125.0,40.0,122,40,110,73,66
2025-03-17 18:48:23.892,-583.0,-380.0,910.0,112.0,18.0,-5.0,128,47,112,78,69
2025-03-17 18:48:23.917,-255.0,-573.0,650.0,45.0,-110.0,-29.0,127,42,110,74,66
2025-03-17 18:48:23.938,53.0,-660.0,754.0,86.0,-123.0,-21.0,130,40,110,72,66
2025-03-17 18:48:23.962,112.0,-532.0,1045.0,154.0,-24.0,-17.0,130,38,109,76,65
2025-03-17 18:48:23.987,-131.0,-269.0,888.0,180.0,41.0,-37.0,132,41,114,77,69
2025-03-17 18:48:24.010,-246.0,-283.0,872.0,176.0,64.0,-54.0,134,43,114,79,69
2025-03-17 18:48:24.035,-166.0,-533.0,673.0,219.0,70.0,-76.0,134,44,114,79,71
2025-03-17 18:48:24.060,-62.0,-764.0,613.0,249.0,40.0,-74.0,138,44,115,79,71
2025-03-17 18:48:24.082,654.0,-1693.0,833.0,263.0,-38.0,-3.0,135,39,111,75,68
2025-03-17 18:48:24.109,1692.0,-2298.0,2439.0,170.0,-6.0,212.0,139,40,97,73,66
2025-03-17 18:48:24.131,2413.0,-2646.0,2671.0,-116.0,136.0,511.0,124,36,97,72,62
2025-03-17 18:48:24.155,2190.0,-1560.0,1001.0,-155.0,163.0,818.0,124,33,100,65,64
2025-03-17 18:48:24.180,1020.0,2029.0,692.0,-308.0,-4.0,750.0,128,37,105,64,61
2025-03-17 18:48:24.204,-218.0,3346.0,958.0,-164.0,19.0,372.0,137,33,92,62,63
2025-03-17 18:48:24.219,-61.0,3778.0,1185.0,147.0,70.0,47.0,139,38,106,66,64
2025-03-17 18:48:24.253,-287.0,3716.0,876.0,50.0,46.0,-140.0,138,42,107,65,60
2025-03-17 18:48:24.263,233.0,1094.0,1033.0,15.0,-2.0,-277.0,136,42,104,67,60
2025-03-17 18:48:24.299,568.0,-958.0,1585.0,93.0,8.0,-221.0,140,32,107,68,61
2025-03-17 18:48:24.322,-136.0,-434.0,1689.0,58.0,14.0,-162.0,139,24,87,68,64
2025-03-17 18:48:24.335,-351.0,-944.0,1013.0,34.0,38.0,-169.0,144,35,96,65,64
2025-03-17 18:48:24.371,-236.0,-879.0,723.0,117.0,2.0,-165.0,141,36,105,65,63
2025-03-17 18:48:24.396,-457.0,15.0,768.0,143.0,-39.0,-140.0,142,39,101,67,66
2025-03-17 18:48:24.421,-512.0,393.0,858.0,110.0,-67.0,-198.0,143,42,94,68,67
2025-03-17 18:48:24.445,-441.0,572.0,627.0,123.0,-100.0,-266.0,143,40,107,69,67
2025-03-17 18:48:24.464,-419.0,237.0,728.0,170.0,-109.0,-274.0,142,38,107,70,68
2025-03-17 18:48:24.490,-141.0,-201.0,868.0,204.0,-125.0,-217.0,143,44,109,72,70
2025-03-17 18:48:24.515,757.0,-1420.0,1852.0,139.0,-89.0,-91.0,142,35,105,69,67
2025-03-17 18:48:24.540,1777.0,-2781.0,2480.0,12.0,88.0,208.0,143,39,95,70,68
2025-03-17 18:48:24.562,2026.0,-2835.0,2191.0,-284.0,170.0,603.0,142,42,103,68,69
2025-03-17 18:48:24.589,1911.0,-896.0,1838.0,-481.0,140.0,833.0,143,45,104,68,67
2025-03-17 18:48:24.613,1144.0,1712.0,1662.0,-434.0,108.0,727.0,147,44,109,69,68
2025-03-17 18:48:24.635,-243.0,4337.0,1479.0,-91.0,157.0,177.0,126,44,104,71,66
2025-03-17 18:48:24.659,-139.0,3140.0,1883.0,96.0,261.0,22.0,146,45,108,71,61
2025-03-17 18:48:24.683,18.0,1810.0,1904.0,-11.0,299.0,-131.0,144,42,81,72,58
2025-03-17 18:48:24.699,92.0,-508.0,1857.0,-108.0,352.0,-161.0,145,36,108,72,57
2025-03-17 18:48:24.731,-260.0,-1383.0,-233.0,-121.0,301.0,-93.0,143,28,100,69,54
2025-03-17 18:48:24.757,-454.0,-1132.0,72.0,37.0,285.0,-57.0,141,30,111,69,58
2025-03-17 18:48:24.780,-363.0,-865.0,106.0,150.0,298.0,-27.0,137,39,118,72,63
2025-03-17 18:48:24.803,-494.0,-648.0,-101.0,165.0,250.0,-3.0,133,36,122,47,70
2025-03-17 18:48:24.827,-947.0,-365.0,70.0,80.0,173.0,38.0,122,35,100,2,62
2025-03-17 18:48:24.851,-871.0,-238.0,22.0,129.0,128.0,61.0,113,50,134,1,73
2025-03-17 18:48:24.876,-795.0,279.0,-126.0,126.0,98.0,65.0,105,56,136,3,103
2025-03-17 18:48:24.900,-513.0,1024.0,-791.0,79.0,95.0,49.0,111,63,142,2,104
2025-03-17 18:48:24.924,-489.0,1778.0,-1460.0,136.0,-50.0,-97.0,109,61,142,96,99
2025-03-17 18:48:24.948,-778.0,2178.0,-1961.0,8.0,-192.0,-419.0,111,63,144,101,102
2025-03-17 18:48:24.973,-533.0,1613.0,-3523.0,-65.0,-307.0,-808.0,111,68,116,101,109
2025-03-17 18:48:24.995,1529.0,1532.0,-1595.0,27.0,-596.0,-908.0,111,74,129,101,115
2025-03-17 18:48:25.019,4021.0,-1039.0,6061.0,-760.0,-497.0,-1012.0,118,68,144,99,118
2025-03-17 18:48:25.043,5095.0,-5498.0,1923.0,-69.0,-264.0,-107.0,124,61,148,79,120
2025-03-17 18:48:25.068,2881.0,-5149.0,1382.0,202.0,275.0,311.0,125,55,148,93,122
2025-03-17 18:48:25.093,-93.0,-997.0,-313.0,151.0,206.0,351.0,132,77,148,102,123
2025-03-17 18:48:25.117,-446.0,-836.0,651.0,-96.0,62.0,265.0,131,92,151,107,126
2025-03-17 18:48:25.141,-523.0,-586.0,486.0,-89.0,66.0,212.0,127,96,147,105,121
2025-03-17 18:48:25.161,-454.0,-628.0,657.0,-80.0,174.0,197.0,128,96,148,105,121
2025-03-17 18:48:25.188,-270.0,-405.0,219.0,-69.0,184.0,218.0,128,102,149,106,122
2025-03-17 18:48:25.211,-359.0,-321.0,221.0,-55.0,133.0,217.0,128,102,150,107,123
2025-03-17 18:48:25.234,-70.0,-222.0,88.0,-45.0,108.0,220.0,127,103,150,109,123
2025-03-17 18:48:25.260,-316.0,-99.0,264.0,11.0,127.0,233.0,126,101,152,109,124
2025-03-17 18:48:25.282,-476.0,135.0,146.0,20.0,100.0,225.0,124,98,149,108,123
2025-03-17 18:48:25.306,-458.0,432.0,-449.0,76.0,82.0,208.0,119,95,150,109,122
2025-03-17 18:48:25.323,-396.0,679.0,-1446.0,203.0,-51.0,200.0,116,89,146,106,119
2025-03-17 18:48:25.354,-1606.0,2772.0,-1559.0,256.0,-162.0,-103.0,114,91,148,106,120
2025-03-17 18:48:25.380,-1050.0,2367.0,-1604.0,15.0,-279.0,-659.0,110,99,148,107,122
2025-03-17 18:48:25.404,527.0,1733.0,-748.0,134.0,-479.0,-847.0,108,87,149,106,122
2025-03-17 18:48:25.429,4548.0,-3043.0,-169.0,-196.0,-912.0,-774.0,119,49,149,89,122
2025-03-17 18:48:25.453,5388.0,-5400.0,2488.0,-72.0,-394.0,26.0,125,87,153,100,127
2025-03-17 18:48:25.477,1914.0,-3672.0,2334.0,263.0,440.0,246.0,115,66,150,94,126
2025-03-17 18:48:25.498,-1284.0,-53.0,-426.0,95.0,211.0,200.0,122,81,145,97,124
2025-03-17 18:48:25.523,-573.0,-591.0,468.0,0.0,105.0,112.0,120,86,147,98,123
2025-03-17 18:48:25.547,-650.0,-626.0,628.0,0.0,99.0,96.0,120,93,147,98,121
2025-03-17 18:48:25.559,-374.0,-739.0,492.0,101.0,149.0,132.0,118,84,147,91,118
2025-03-17 18:48:25.596,-308.0,-258.0,370.0,151.0,148.0,109.0,117,68,147,72,112
2025-03-17 18:48:25.620,-410.0,-240.0,423.0,134.0,107.0,65.0,120,68,125,3,105
2025-03-17 18:48:25.641,-450.0,-520.0,424.0,131.0,75.0,61.0,124,55,117,4,74
2025-03-17 18:48:25.664,-418.0,-560.0,432.0,170.0,2.0,91.0,126,41,130,5,57
2025-03-17 18:48:25.688,-390.0,-251.0,333.0,222.0,-41.0,61.0,127,21,137,7,41
2025-03-17 18:48:25.715,-529.0,-251.0,422.0,252.0,-60.0,33.0,125,23,135,6,50
2025-03-17 18:48:25.740,-810.0,-43.0,1086.0,286.0,-76.0,5.0,125,26,128,2,44
2025-03-17 18:48:25.764,-303.0,26.0,208.0,285.0,-102.0,-49.0,119,26,120,42,36
2025-03-17 18:48:25.789,-154.0,-860.0,687.0,263.0,-143.0,-1.0,128,23,115,48,42
2025-03-17 18:48:25.813,1082.0,-2165.0,1906.0,70.0,-164.0,182.0,125,32,113,51,42
2025-03-17 18:48:25.833,2146.0,-2965.0,2965.0,-186.0,50.0,414.0,133,23,113,63,48
2025-03-17 18:48:25.858,1439.0,-2116.0,1333.0,-193.0,159.0,679.0,137,31,105,66,59
2025-03-17 18:48:25.882,828.0,1011.0,863.0,-215.0,39.0,732.0,138,34,115,59,57
2025-03-17 18:48:25.899,83.0,2850.0,1125.0,-142.0,76.0,359.0,141,35,115,67,53
2025-03-17 18:48:25.930,-346.0,3012.0,628.0,102.0,98.0,147.0,141,40,105,68,53
2025-03-17 18:48:25.956,-336.0,3208.0,447.0,41.0,71.0,-74.0,135,34,106,69,49
2025-03-17 18:48:25.982,-168.0,1343.0,773.0,-17.0,-55.0,-188.0,140,34,114,72,53
2025-03-17 18:48:26.003,326.0,-200.0,1616.0,17.0,-19.0,-161.0,141,34,116,72,54
2025-03-17 18:48:26.027,20.0,-260.0,1384.0,33.0,54.0,-130.0,141,36,96,75,57
2025-03-17 18:48:26.051,-477.0,15.0,896.0,52.0,57.0,-178.0,141,34,112,75,58
2025-03-17 18:48:26.076,-482.0,-210.0,1240.0,50.0,42.0,-197.0,141,35,118,75,59
2025-03-17 18:48:26.100,-186.0,-573.0,917.0,89.0,-26.0,-155.0,142,37,110,75,58
2025-03-17 18:48:26.124,-500.0,63.0,686.0,73.0,12.0,-147.0,140,37,118,75,59
2025-03-17 18:48:26.146,-599.0,170.0,605.0,55.0,-15.0,-201.0,139,34,115,74,58
2025-03-17 18:48:26.170,-612.0,-80.0,275.0,66.0,-82.0,-222.0,139,36,116,78,59
2025-03-17 18:48:26.195,-220.0,-136.0,923.0,121.0,-111.0,-181.0,138,36,119,75,60
2025-03-17 18:48:26.219,105.0,-1082.0,863.0,31.0,-114.0,-117.0,136,35,116,76,61
2025-03-17 18:48:26.245,1188.0,-3236.0,1579.0,-87.0,-108.0,83.0,135,40,117,77,63
2025-03-17 18:48:26.269,1976.0,-3776.0,2446.0,-93.0,39.0,352.0,135,38,119,74,66
2025-03-17 18:48:26.292,1237.0,-1830.0,1683.0,-190.0,129.0,626.0,137,40,120,79,64
2025-03-17 18:48:26.317,568.0,1531.0,710.0,-295.0,17.0,680.0,137,40,119,77,56
2025-03-17 18:48:26.336,221.0,3295.0,1491.0,-170.0,-40.0,492.0,137,37,119,80,60
2025-03-17 18:48:26.363,-296.0,3255.0,1218.0,172.0,201.0,57.0,135,38,114,79,54
2025-03-17 18:48:26.387,-467.0,2429.0,1318.0,8.0,166.0,-98.0,132,40,116,81,53
2025-03-17 18:48:26.411,-185.0,-287.0,2130.0,-17.0,202.0,-140.0,140,41,116,80,55
2025-03-17 18:48:26.436,-212.0,-1228.0,1999.0,15.0,236.0,-88.0,138,35,117,78,56
2025-03-17 18:48:26.459,-869.0,-798.0,750.0,2.0,257.0,-79.0,138,31,118,77,55
2025-03-17 18:48:26.484,-487.0,-450.0,589.0,97.0,281.0,-73.0,139,31,122,80,58
2025-03-17 18:48:26.507,-564.0,-998.0,114.0,156.0,278.0,-48.0,122,31,126,76,59
2025-03-17 18:48:26.531,-869.0,-172.0,221.0,116.0,230.0,-28.0,124,45,103,46,55
2025-03-17 18:48:26.555,-796.0,-113.0,-10.0,112.0,191.0,-12.0,122,47,122,47,46
2025-03-17 18:48:26.580,-785.0,14.0,152.0,115.0,192.0,20.0,127,36,140,40,48
2025-03-17 18:48:26.604,-548.0,926.0,-400.0,103.0,204.0,24.0,127,59,140,1,49
2025-03-17 18:48:26.628,-614.0,1487.0,-1234.0,79.0,94.0,-77.0,128,70,142,1,47
2025-03-17 18:48:26.653,-690.0,1997.0,-1758.0,92.0,-77.0,-362.0,122,75,147,4,40
2025-03-17 18:48:26.677,-641.0,2539.0,-2403.0,58.0,-404.0,-643.0,103,80,137,5,43
2025-03-17 18:48:26.699,774.0,1926.0,-2140.0,-37.0,-873.0,-871.0,97,93,131,4,18
2025-03-17 18:48:26.723,4737.0,-994.0,-217.0,-193.0,-1003.0,-842.0,93,88,135,8,49
2025-03-17 18:48:26.748,4802.0,-3597.0,1717.0,32.0,-594.0,-254.0,91,76,149,4,62
2025-03-17 18:48:26.772,3667.0,-3711.0,2273.0,204.0,23.0,81.0,87,46,130,1,59
2025-03-17 18:48:26.796,766.0,-1665.0,1850.0,112.0,140.0,145.0,88,83,100,0,60
2025-03-17 18:48:26.821,-46.0,-1166.0,1782.0,-86.0,108.0,183.0,93,75,145,2,62
2025-03-17 18:48:26.842,28.0,-931.0,1082.0,-11.0,186.0,186.0,94,89,149,8,65
2025-03-17 18:48:26.862,-250.0,-654.0,697.0,4.0,257.0,186.0,96,85,108,47,65
2025-03-17 18:48:26.888,-392.0,-158.0,280.0,-36.0,199.0,181.0,96,93,143,45,67
2025-03-17 18:48:26.905,-322.0,-156.0,444.0,-63.0,150.0,149.0,96,106,150,49,66
2025-03-17 18:48:26.940,-9.0,-467.0,554.0,10.0,167.0,122.0,98,106,150,57,65
2025-03-17 18:48:26.965,-256.0,-491.0,184.0,61.0,169.0,155.0,97,98,150,42,64
2025-03-17 18:48:26.989,-223.0,-339.0,382.0,60.0,140.0,173.0,96,91,147,46,64
2025-03-17 18:48:27.009,-287.0,-255.0,424.0,69.0,156.0,191.0,92,96,148,28,63
2025-03-17 18:48:27.034,-730.0,601.0,-304.0,105.0,142.0,229.0,95,105,149,28,61
2025-03-17 18:48:27.058,-1605.0,1925.0,-1679.0,137.0,-70.0,-25.0,94,92,150,9,56
2025-03-17 18:48:27.082,-1612.0,3260.0,-2816.0,118.0,-492.0,-512.0,91,109,149,44,56
2025-03-17 18:48:27.107,1416.0,1282.0,-986.0,-141.0,-900.0,-743.0,90,100,121,45,64
2025-03-17 18:48:27.132,4227.0,-3862.0,712.0,231.0,-788.0,-370.0,93,51,148,46,68
2025-03-17 18:48:27.156,3978.0,-3025.0,3385.0,129.0,64.0,77.0,92,61,151,73,79
2025-03-17 18:48:27.178,679.0,-1017.0,1703.0,78.0,238.0,56.0,86,66,146,77,77
2025-03-17 18:48:27.203,-332.0,-922.0,633.0,-80.0,180.0,55.0,95,62,145,66,72
2025-03-17 18:48:27.227,-379.0,-253.0,1485.0,86.0,163.0,27.0,95,70,139,77,73
2025-03-17 18:48:27.252,-391.0,-211.0,1091.0,86.0,210.0,11.0,100,66,148,81,75
2025-03-17 18:48:27.275,-427.0,-176.0,699.0,84.0,211.0,-3.0,104,80,147,76,73
2025-03-17 18:48:27.300,-220.0,-255.0,432.0,77.0,119.0,-12.0,111,87,140,79,78
2025-03-17 18:48:27.324,-82.0,-586.0,758.0,128.0,97.0,-4.0,113,85,129,79,76
2025-03-17 18:48:27.349,-243.0,-498.0,745.0,141.0,118.0,18.0,120,56,143,74,72
2025-03-17 18:48:27.370,-368.0,-493.0,471.0,156.0,84.0,42.0,123,53,133,73,64
2025-03-17 18:48:27.394,-448.0,-194.0,587.0,209.0,32.0,19.0,128,29,134,62,66
2025-03-17 18:48:27.419,-590.0,-67.0,559.0,214.0,16.0,8.0,129,24,126,77,58
2025-03-17 18:48:27.432,-114.0,-946.0,931.0,195.0,-15.0,20.0,129,27,105,77,58
2025-03-17 18:48:27.468,258.0,-1252.0,708.0,197.0,-154.0,83.0,133,34,102,74,53
2025-03-17 18:48:27.493,1572.0,-2242.0,2879.0,-56.0,-94.0,259.0,127,33,112,60,66
2025-03-17 18:48:27.516,2242.0,-3338.0,2775.0,-147.0,76.0,549.0,127,34,109,67,63
2025-03-17 18:48:27.538,1654.0,-719.0,1561.0,-169.0,103.0,746.0,134,31,106,63,57
2025-03-17 18:48:27.562,841.0,2765.0,791.0,-141.0,68.0,611.0,141,30,108,66,58
2025-03-17 18:48:27.587,20.0,3624.0,515.0,38.0,52.0,310.0,126,29,98,56,54
2025-03-17 18:48:27.609,-412.0,4423.0,-181.0,73.0,11.0,10.0,121,28,101,73,57
2025-03-17 18:48:27.636,-189.0,2479.0,440.0,5.0,-65.0,-148.0,126,38,106,74,57
2025-03-17 18:48:27.661,324.0,739.0,803.0,36.0,-33.0,-179.0,129,37,98,74,58
2025-03-17 18:48:27.685,317.0,-22.0,1183.0,-4.0,18.0,-120.0,130,34,101,75,59
2025-03-17 18:48:27.706,-26.0,64.0,988.0,22.0,1.0,-130.0,134,34,112,78,62
2025-03-17 18:48:27.730,-143.0,-317.0,1069.0,30.0,-9.0,-114.0,126,41,106,74,61
2025-03-17 18:48:27.756,-388.0,-142.0,718.0,112.0,-45.0,-118.0,135,44,114,74,56
2025-03-17 18:48:27.780,-360.0,190.0,869.0,96.0,-54.0,-109.0,127,38,107,73,59
2025-03-17 18:48:27.804,-360.0,499.0,1194.0,62.0,-52.0,-138.0,125,39,93,74,60
2025-03-17 18:48:27.827,-298.0,565.0,801.0,67.0,-38.0,-182.0,133,37,80,73,59
2025-03-17 18:48:27.853,-405.0,345.0,598.0,113.0,-61.0,-179.0,133,36,101,75,61
2025-03-17 18:48:27.874,-313.0,416.0,656.0,101.0,-144.0,-190.0,133,36,109,75,62
2025-03-17 18:48:27.899,114.0,-350.0,986.0,87.0,-213.0,-201.0,133,35,113,75,64
2025-03-17 18:48:27.917,1115.0,-2500.0,2625.0,150.0,-165.0,67.0,127,44,112,76,64
2025-03-17 18:48:27.947,1811.0,-2244.0,3647.0,-56.0,87.0,313.0,121,41,114,75,65
2025-03-17 18:48:27.972,1890.0,-1278.0,2807.0,-236.0,293.0,570.0,126,45,115,74,64
2025-03-17 18:48:27.997,1212.0,1427.0,-729.0,-426.0,235.0,627.0,124,41,113,65,59
2025-03-17 18:48:28.021,281.0,2446.0,531.0,-282.0,256.0,434.0,133,33,107,71,61
2025-03-17 18:48:28.039,-366.0,3667.0,576.0,140.0,159.0,57.0,134,37,92,73,60
2025-03-17 18:48:28.067,-39.0,3114.0,1273.0,9.0,182.0,-107.0,139,42,117,76,58
2025-03-17 18:48:28.091,-171.0,875.0,1500.0,-115.0,213.0,-172.0,134,46,118,74,55
2025-03-17 18:48:28.116,-278.0,-713.0,1714.0,-219.0,219.0,-142.0,134,45,116,75,59
2025-03-17 18:48:28.140,-263.0,-799.0,1653.0,-99.0,270.0,-103.0,134,44,115,75,55
2025-03-17 18:48:28.165,-248.0,-924.0,371.0,118.0,282.0,-101.0,142,45,116,67,56
2025-03-17 18:48:28.189,-920.0,-1102.0,132.0,141.0,316.0,-62.0,135,37,117,68,58
2025-03-17 18:48:28.209,-642.0,-716.0,187.0,52.0,268.0,-6.0,128,45,118,53,56
2025-03-17 18:48:28.233,-599.0,-151.0,186.0,81.0,267.0,-6.0,126,42,120,29,45
2025-03-17 18:48:28.259,-828.0,243.0,-146.0,64.0,243.0,-1.0,111,43,121,22,58
2025-03-17 18:48:28.284,-688.0,569.0,-429.0,38.0,174.0,23.0,125,36,109,3,45
2025-03-17 18:48:28.308,-347.0,983.0,-808.0,82.0,70.0,25.0,126,38,114,2,67
2025-03-17 18:48:28.332,-252.0,1796.0,-1382.0,135.0,8.0,-75.0,128,37,96,1,52
2025-03-17 18:48:28.357,-948.0,2550.0,-2207.0,9.0,-149.0,-385.0,117,32,103,3,39
2025-03-17 18:48:28.381,-206.0,3241.0,-4713.0,-31.0,-451.0,-900.0,91,35,103,27,39
2025-03-17 18:48:28.402,3497.0,1648.0,-2275.0,-176.0,-1233.0,-1121.0,87,29,49,15,37
2025-03-17 18:48:28.427,7911.0,-7591.0,5133.0,189.0,-635.0,-121.0,86,20,93,50,40
2025-03-17 18:48:28.451,2649.0,-3777.0,2655.0,538.0,255.0,156.0,88,35,82,44,60
2025-03-17 18:48:28.476,-9.0,-996.0,1769.0,-45.0,119.0,121.0,88,35,98,52,56
2025-03-17 18:48:28.500,64.0,-2149.0,1939.0,-119.0,166.0,156.0,93,42,103,68,57
2025-03-17 18:48:28.525,-248.0,-1229.0,1113.0,-74.0,226.0,253.0,95,44,100,72,62
2025-03-17 18:48:28.549,-330.0,-247.0,734.0,-82.0,265.0,229.0,92,39,107,57,58
2025-03-17 18:48:28.570,-606.0,-207.0,71.0,-115.0,245.0,184.0,94,25,97,64,51
2025-03-17 18:48:28.595,-390.0,-316.0,237.0,-56.0,188.0,192.0,96,36,105,60,54
2025-03-17 18:48:28.619,-424.0,-364.0,83.0,-34.0,182.0,216.0,100,40,108,67,49
2025-03-17 18:48:28.644,-244.0,-209.0,479.0,26.0,171.0,238.0,102,39,95,65,45
2025-03-17 18:48:28.656,-311.0,-75.0,171.0,47.0,172.0,239.0,104,32,103,63,49
2025-03-17 18:48:28.692,-568.0,150.0,83.0,58.0,152.0,234.0,110,35,107,70,49
2025-03-17 18:48:28.713,-397.0,429.0,-65.0,55.0,120.0,216.0,111,36,107,63,47
2025-03-17 18:48:28.738,-846.0,2187.0,-959.0,73.0,63.0,57.0,106,43,107,67,47
2025-03-17 18:48:28.763,-1229.0,3799.0,-2299.0,48.0,-123.0,-365.0,102,42,105,67,44
2025-03-17 18:48:28.786,-869.0,3624.0,-2791.0,154.0,-457.0,-740.0,101,38,105,65,43
2025-03-17 18:48:28.812,1982.0,1389.0,-680.0,157.0,-846.0,-914.0,98,28,104,52,44
2025-03-17 18:48:28.834,5540.0,-4651.0,4893.0,-212.0,-335.0,-375.0,95,29,96,63,51
2025-03-17 18:48:28.861,2670.0,-5103.0,2105.0,226.0,105.0,61.0,95,31,91,56,53
2025-03-17 18:48:28.882,-93.0,-1353.0,588.0,63.0,60.0,61.0,95,37,96,62,51
2025-03-17 18:48:28.906,-216.0,-1701.0,783.0,74.0,23.0,119.0,97,35,105,68,57
2025-03-17 18:48:28.931,-614.0,-756.0,708.0,135.0,42.0,120.0,101,44,99,69,57
2025-03-17 18:48:28.955,-545.0,-680.0,665.0,120.0,11.0,104.0,102,42,106,67,57
2025-03-17 18:48:28.980,-209.0,-865.0,796.0,147.0,-47.0,110.0,106,43,107,66,58
2025-03-17 18:48:29.004,245.0,-1195.0,1032.0,192.0,-10.0,161.0,114,37,107,64,54
2025-03-17 18:48:29.027,182.0,-756.0,835.0,228.0,71.0,234.0,123,33,103,61,58
2025-03-17 18:48:29.053,-121.0,-260.0,129.0,233.0,76.0,247.0,128,37,102,49,57
2025-03-17 18:48:29.074,-162.0,-29.0,309.0,165.0,-30.0,224.0,132,31,105,51,50
2025-03-17 18:48:29.099,77.0,-232.0,431.0,152.0,-62.0,228.0,135,27,94,37,51
2025-03-17 18:48:29.124,66.0,-21.0,813.0,198.0,-79.0,302.0,135,35,107,2,51
2025-03-17 18:48:29.148,-202.0,988.0,661.0,157.0,-18.0,280.0,143,35,104,42,59
2025-03-17 18:48:29.172,-497.0,1485.0,570.0,24.0,-48.0,188.0,140,36,107,26,70
2025-03-17 18:48:29.197,-824.0,2242.0,14.0,23.0,-36.0,77.0,141,37,108,41,69
2025-03-17 18:48:29.221,-1763.0,3602.0,-643.0,154.0,-89.0,-237.0,139,37,102,33,59
2025-03-17 18:48:29.245,-1574.0,3661.0,-537.0,290.0,-257.0,-528.0,140,39,78,46,94
2025-03-17 18:48:29.267,573.0,1461.0,-1078.0,285.0,-535.0,-463.0,119,33,93,52,95
2025-03-17 18:48:29.292,2774.0,162.0,2646.0,166.0,-493.0,-247.0,140,30,106,58,109
2025-03-17 18:48:29.315,3136.0,-1572.0,4075.0,-203.0,-74.0,-105.0,138,25,106,58,114
2025-03-17 18:48:29.340,2152.0,-2046.0,2857.0,-25.0,256.0,-14.0,139,30,109,77,119
2025-03-17 18:48:29.364,840.0,-572.0,-1571.0,-135.0,175.0,106.0,129,40,111,79,120
2025-03-17 18:48:29.388,35.0,-347.0,971.0,-14.0,104.0,136.0,133,41,115,59,124
2025-03-17 18:48:29.411,-102.0,268.0,1153.0,-38.0,81.0,149.0,138,42,115,86,125
2025-03-17 18:48:29.433,-285.0,733.0,896.0,15.0,71.0,125.0,140,35,115,77,125
2025-03-17 18:48:29.457,-425.0,837.0,639.0,-5.0,113.0,100.0,141,35,114,75,127
2025-03-17 18:48:29.484,-429.0,848.0,446.0,-8.0,94.0,90.0,138,36,113,70,126
2025-03-17 18:48:29.509,-285.0,704.0,551.0,-1.0,88.0,68.0,135,33,117,81,128
2025-03-17 18:48:29.530,-289.0,693.0,575.0,10.0,116.0,58.0,136,30,116,85,129
2025-03-17 18:48:29.557,-421.0,650.0,314.0,14.0,66.0,62.0,132,34,117,75,128
2025-03-17 18:48:29.578,-400.0,856.0,484.0,32.0,32.0,38.0,139,39,117,87,129
2025-03-17 18:48:29.602,-1044.0,1639.0,92.0,-24.0,30.0,3.0,125,37,117,77,129
2025-03-17 18:48:29.627,-1568.0,1948.0,-1015.0,-71.0,-24.0,-91.0,116,35,113,68,126
2025-03-17 18:48:29.651,-1730.0,1888.0,-1487.0,61.0,-189.0,-197.0,135,39,80,76,127
2025-03-17 18:48:29.676,-663.0,1752.0,-174.0,43.0,-426.0,-242.0,137,38,104,76,127
2025-03-17 18:48:29.700,2358.0,-110.0,2666.0,0.0,-341.0,-166.0,140,36,113,83,129
2025-03-17 18:48:29.725,2295.0,-680.0,3444.0,-48.0,-66.0,-103.0,141,36,116,86,129
2025-03-17 18:48:29.749,1425.0,-1001.0,2613.0,-59.0,91.0,-24.0,138,37,117,92,130
2025-03-17 18:48:29.770,369.0,-778.0,181.0,-152.0,101.0,37.0,136,43,120,93,132
2025-03-17 18:48:29.795,9.0,-486.0,227.0,-59.0,152.0,69.0,143,42,119,95,133
2025-03-17 18:48:29.820,-605.0,517.0,1171.0,-128.0,114.0,90.0,142,40,116,77,129
2025-03-17 18:48:29.844,-543.0,827.0,1521.0,-255.0,158.0,80.0,139,39,115,69,129
2025-03-17 18:48:29.869,-128.0,276.0,1098.0,-282.0,199.0,101.0,134,41,77,79,128
2025-03-17 18:48:29.893,-78.0,479.0,997.0,-248.0,262.0,120.0,128,39,105,84,126
2025-03-17 18:48:29.914,87.0,418.0,666.0,-245.0,366.0,125.0,133,38,113,87,113
2025-03-17 18:48:29.936,-149.0,242.0,610.0,-204.0,387.0,111.0,133,20,122,22,118
2025-03-17 18:48:29.962,-330.0,371.0,98.0,-213.0,300.0,109.0,140,37,131,3,122
2025-03-17 18:48:29.987,-797.0,96.0,-203.0,-119.0,158.0,101.0,135,36,133,9,122
2025-03-17 18:48:30.012,-993.0,101.0,78.0,-44.0,119.0,95.0,122,45,141,2,116
2025-03-17 18:48:30.037,-995.0,174.0,-10.0,-41.0,122.0,89.0,117,55,141,94,123
2025-03-17 18:48:30.061,-521.0,1413.0,-1327.0,-95.0,46.0,-4.0,112,67,148,99,123
2025-03-17 18:48:30.085,-1277.0,2113.0,-2473.0,-59.0,-195.0,-290.0,107,67,139,102,127
2025-03-17 18:48:30.110,-725.0,2688.0,-1459.0,-99.0,-309.0,-694.0,105,73,144,105,129
2025-03-17 18:48:30.131,658.0,1666.0,-73.0,-199.0,-394.0,-949.0,100,82,136,102,66
2025-03-17 18:48:30.154,4687.0,-286.0,857.0,-508.0,-607.0,-928.0,111,84,142,107,84
2025-03-17 18:48:30.180,5352.0,-4324.0,2844.0,-315.0,-391.0,-333.0,114,92,148,97,117
2025-03-17 18:48:30.203,3351.0,-5604.0,1578.0,271.0,293.0,233.0,116,59,148,106,124
2025-03-17 18:48:30.219,311.0,-1082.0,217.0,178.0,365.0,349.0,118,76,143,107,129
2025-03-17 18:48:30.253,-355.0,-755.0,384.0,-108.0,91.0,208.0,114,87,146,107,123
2025-03-17 18:48:30.274,-211.0,-1180.0,276.0,-77.0,32.0,152.0,114,91,146,107,124
2025-03-17 18:48:30.299,-174.0,-835.0,657.0,-31.0,122.0,190.0,115,97,145,106,125
2025-03-17 18:48:30.324,-342.0,-582.0,654.0,46.0,211.0,224.0,118,98,148,108,131
2025-03-17 18:48:30.348,-370.0,-441.0,223.0,53.0,186.0,266.0,117,94,147,109,128
2025-03-17 18:48:30.372,-112.0,49.0,107.0,9.0,128.0,240.0,117,98,148,109,131
2025-03-17 18:48:30.397,-457.0,-71.0,354.0,16.0,118.0,194.0,114,91,148,109,131
2025-03-17 18:48:30.421,-247.0,-472.0,141.0,88.0,68.0,223.0,110,95,149,109,134
2025-03-17 18:48:30.439,-334.0,-219.0,438.0,99.0,72.0,255.0,107,89,145,106,121
2025-03-17 18:48:30.467,-393.0,477.0,55.0,147.0,74.0,304.0,103,82,144,108,120
2025-03-17 18:48:30.491,-527.0,1628.0,-235.0,190.0,75.0,248.0,106,88,147,108,133
2025-03-17 18:48:30.516,-2201.0,3131.0,-2303.0,70.0,-159.0,-229.0,107,87,147,108,120
2025-03-17 18:48:30.540,-939.0,3348.0,-1821.0,-54.0,-417.0,-868.0,103,93,146,110,133
2025-03-17 18:48:30.565,2613.0,1355.0,-1059.0,-194.0,-590.0,-1168.0,106,91,147,110,118
2025-03-17 18:48:30.576,5465.0,-3953.0,4216.0,-31.0,-563.0,-536.0,108,14,145,95,99
2025-03-17 18:48:30.614,4218.0,-5982.0,3268.0,57.0,-90.0,232.0,110,46,146,70,128
2025-03-17 18:48:30.638,1015.0,-1679.0,583.0,308.0,466.0,282.0,110,40,147,43,129
2025-03-17 18:48:30.660,-702.0,-974.0,245.0,7.0,276.0,226.0,115,50,147,109,132
2025-03-17 18:48:30.681,-747.0,-937.0,-111.0,129.0,29.0,225.0,113,59,130,83,130
2025-03-17 18:48:30.706,-553.0,-774.0,283.0,251.0,-18.0,256.0,113,36,130,2,121
2025-03-17 18:48:30.733,-437.0,-617.0,873.0,231.0,102.0,247.0,115,28,124,2,122
2025-03-17 18:48:30.758,-33.0,-188.0,467.0,87.0,140.0,240.0,116,27,112,1,129
2025-03-17 18:48:30.782,-108.0,-149.0,276.0,201.0,129.0,238.0,116,22,124,6,104
2025-03-17 18:48:30.806,-455.0,64.0,-60.0,170.0,47.0,202.0,112,24,126,50,115
2025-03-17 18:48:30.828,-353.0,191.0,186.0,133.0,-64.0,146.0,112,32,126,69,122
2025-03-17 18:48:30.852,-385.0,122.0,343.0,183.0,-101.0,145.0,109,29,123,32,123
2025-03-17 18:48:30.866,-319.0,702.0,509.0,136.0,-69.0,133.0,106,38,116,46,127
2025-03-17 18:48:30.900,-540.0,774.0,431.0,118.0,-46.0,68.0,103,38,120,49,129
2025-03-17 18:48:30.925,-1075.0,1616.0,-57.0,154.0,-92.0,20.0,100,40,124,65,128
2025-03-17 18:48:30.950,-1542.0,3015.0,-530.0,103.0,-163.0,-127.0,98,39,124,71,131
2025-03-17 18:48:30.975,-1479.0,2542.0,-562.0,116.0,-282.0,-251.0,101,43,123,75,132
2025-03-17 18:48:30.997,-238.0,1935.0,672.0,147.0,-376.0,-315.0,103,36,115,66,128
2025-03-17 18:48:31.020,1385.0,540.0,2358.0,58.0,-320.0,-271.0,109,36,120,74,131
2025-03-17 18:48:31.045,2040.0,-1036.0,2786.0,-91.0,-78.0,-171.0,110,30,124,63,131
2025-03-17 18:48:31.069,1652.0,-2167.0,2372.0,-32.0,47.0,-37.0,110,41,124,66,132
2025-03-17 18:48:31.093,854.0,-1372.0,1666.0,-49.0,76.0,83.0,109,40,128,83,135
2025-03-17 18:48:31.118,293.0,-529.0,1172.0,-67.0,71.0,153.0,112,42,129,102,136
2025-03-17 18:48:31.142,141.0,-57.0,1329.0,-42.0,80.0,184.0,113,40,122,102,135
2025-03-17 18:48:31.164,-156.0,650.0,1068.0,-45.0,105.0,159.0,115,44,130,105,134
2025-03-17 18:48:31.187,-417.0,830.0,880.0,-63.0,117.0,139.0,112,39,124,101,120
2025-03-17 18:48:31.213,-538.0,912.0,655.0,-47.0,136.0,110.0,113,41,102,88,129
2025-03-17 18:48:31.237,-588.0,960.0,416.0,3.0,139.0,82.0,114,41,126,87,133
2025-03-17 18:48:31.260,-669.0,1120.0,345.0,-16.0,90.0,41.0,114,42,129,79,124
2025-03-17 18:48:31.285,-588.0,841.0,361.0,-40.0,48.0,24.0,113,42,129,89,134
2025-03-17 18:48:31.310,-658.0,1168.0,352.0,-59.0,35.0,8.0,113,45,130,102,137
2025-03-17 18:48:31.332,-853.0,1535.0,-66.0,-46.0,65.0,-48.0,116,40,130,95,118
2025-03-17 18:48:31.356,-1533.0,2072.0,-980.0,24.0,33.0,-144.0,109,43,121,94,135
2025-03-17 18:48:31.379,-1674.0,2635.0,-1373.0,36.0,-221.0,-276.0,109,38,117,94,131
2025-03-17 18:48:31.405,528.0,1251.0,1049.0,-99.0,-483.0,-355.0,103,42,122,92,128
2025-03-17 18:48:31.427,3077.0,-2146.0,3604.0,-41.0,-171.0,-193.0,113,43,125,85,133
2025-03-17 18:48:31.454,1816.0,-1892.0,3177.0,52.0,104.0,-76.0,116,45,128,100,134
2025-03-17 18:48:31.478,670.0,-1744.0,1696.0,-163.0,70.0,37.0,114,46,131,107,134
2025-03-17 18:48:31.503,167.0,-1501.0,1161.0,-133.0,91.0,90.0,115,46,132,104,119
2025-03-17 18:48:31.523,-500.0,-35.0,847.0,-57.0,125.0,128.0,117,45,131,104,128
2025-03-17 18:48:31.548,-628.0,644.0,1207.0,-172.0,166.0,98.0,124,46,107,104,134
2025-03-17 18:48:31.573,-477.0,396.0,1179.0,-233.0,225.0,104.0,131,46,89,97,125
2025-03-17 18:48:31.597,-374.0,210.0,795.0,-160.0,237.0,99.0,126,35,122,78,110
2025-03-17 18:48:31.622,-508.0,90.0,780.0,-84.0,223.0,125.0,135,34,125,62,72
2025-03-17 18:48:31.646,-520.0,474.0,503.0,-137.0,239.0,103.0,137,35,135,1,74
2025-03-17 18:48:31.667,-751.0,-68.0,475.0,-158.0,211.0,85.0,138,49,140,1,54
2025-03-17 18:48:31.680,-626.0,-107.0,266.0,-36.0,226.0,82.0,139,51,141,1,58
2025-03-17 18:48:31.716,-686.0,382.0,91.0,-60.0,226.0,82.0,137,67,145,3,37
2025-03-17 18:48:31.740,-608.0,653.0,-277.0,-78.0,184.0,76.0,139,70,145,2,23
2025-03-17 18:48:31.765,-1281.0,1685.0,-2091.0,-96.0,-14.0,-89.0,141,82,146,1,29
2025-03-17 18:48:31.790,-955.0,2539.0,-3155.0,-55.0,-374.0,-451.0,140,88,145,3,28
2025-03-17 18:48:31.813,292.0,1947.0,-2355.0,-65.0,-788.0,-724.0,134,89,132,1,38
2025-03-17 18:48:31.838,2608.0,-238.0,-238.0,-83.0,-1043.0,-613.0,133,71,122,0,45
2025-03-17 18:48:31.857,4555.0,-3575.0,1972.0,-100.0,-683.0,-261.0,132,37,112,2,47
2025-03-17 18:48:31.884,3674.0,-4329.0,2912.0,20.0,83.0,126.0,131,51,140,3,51
2025-03-17 18:48:31.906,720.0,-1296.0,1996.0,130.0,209.0,92.0,130,62,137,36,55
2025-03-17 18:48:31.933,162.0,-1353.0,1371.0,-104.0,106.0,150.0,114,56,137,62,58
2025-03-17 18:48:31.958,2.0,-1125.0,1096.0,-19.0,186.0,168.0,118,80,149,57,60
2025-03-17 18:48:31.982,-230.0,-769.0,907.0,54.0,274.0,166.0,119,94,149,74,61
2025-03-17 18:48:32.006,-324.0,-302.0,455.0,20.0,251.0,166.0,124,98,147,72,62
2025-03-17 18:48:32.019,-354.0,-265.0,484.0,3.0,199.0,146.0,127,94,148,46,64
2025-03-17 18:48:32.052,-232.0,-367.0,481.0,43.0,199.0,135.0,129,102,149,56,63
2025-03-17 18:48:32.077,-155.0,-337.0,492.0,75.0,208.0,151.0,130,107,147,50,67
2025-03-17 18:48:32.101,-394.0,-207.0,394.0,47.0,200.0,169.0,123,106,150,59,66
2025-03-17 18:48:32.122,-438.0,-204.0,423.0,60.0,180.0,163.0,122,104,149,61,69
2025-03-17 18:48:32.150,-553.0,218.0,344.0,56.0,174.0,156.0,132,109,150,53,69
2025-03-17 18:48:32.175,-1032.0,1196.0,-579.0,11.0,163.0,86.0,132,102,149,45,67
2025-03-17 18:48:32.199,-1894.0,2371.0,-2687.0,92.0,-116.0,-193.0,125,110,150,64,62
2025-03-17 18:48:32.220,-958.0,3613.0,-2692.0,36.0,-630.0,-592.0,115,108,149,65,62
2025-03-17 18:48:32.245,1669.0,839.0,-1026.0,-191.0,-934.0,-782.0,111,108,126,64,65
2025-03-17 18:48:32.269,4548.0,-2813.0,1254.0,-89.0,-763.0,-428.0,111,97,147,71,66
2025-03-17 18:48:32.293,4512.0,-3803.0,2761.0,-1.0,-154.0,-26.0,113,75,140,85,71
2025-03-17 18:48:32.318,2030.0,-2892.0,1878.0,109.0,179.0,46.0,114,72,146,77,70
2025-03-17 18:48:32.343,123.0,-1455.0,1303.0,-32.0,117.0,127.0,115,61,126,72,70
2025-03-17 18:48:32.364,-46.0,-1188.0,1010.0,0.0,134.0,94.0,115,66,146,86,73
2025-03-17 18:48:32.388,5.0,-1048.0,702.0,34.0,177.0,114.0,118,102,149,84,74
2025-03-17 18:48:32.412,163.0,-921.0,647.0,99.0,204.0,132.0,127,87,147,75,75
2025-03-17 18:48:32.437,243.0,-857.0,666.0,124.0,187.0,163.0,128,83,149,51,80
2025-03-17 18:48:32.461,335.0,-916.0,482.0,182.0,212.0,212.0,133,75,143,1,85
2025-03-17 18:48:32.486,62.0,-583.0,322.0,254.0,211.0,249.0,136,66,90,0,80
2025-03-17 18:48:32.510,-124.0,-158.0,245.0,253.0,181.0,264.0,137,60,132,1,82
2025-03-17 18:48:32.531,-247.0,48.0,126.0,173.0,83.0,252.0,138,41,134,1,96
2025-03-17 18:48:32.555,-425.0,381.0,123.0,173.0,20.0,219.0,139,43,132,2,94
2025-03-17 18:48:32.580,-656.0,579.0,241.0,97.0,-35.0,162.0,139,42,132,15,53
2025-03-17 18:48:32.605,-669.0,764.0,542.0,21.0,-80.0,127.0,141,43,123,36,95
2025-03-17 18:48:32.627,-595.0,826.0,546.0,10.0,-102.0,68.0,138,23,93,35,112
2025-03-17 18:48:32.654,-1005.0,1928.0,369.0,41.0,-78.0,-29.0,128,31,113,33,118
2025-03-17 18:48:32.676,-1338.0,2138.0,-150.0,69.0,-73.0,-175.0,134,34,110,39,124
2025-03-17 18:48:32.700,-1244.0,2018.0,-379.0,117.0,-107.0,-292.0,130,32,107,27,125
2025-03-17 18:48:32.723,-771.0,1373.0,-292.0,293.0,-233.0,-337.0,124,25,112,41,126
2025-03-17 18:48:32.748,948.0,582.0,791.0,299.0,-410.0,-297.0,127,26,116,39,127
2025-03-17 18:48:32.772,2361.0,-194.0,2968.0,100.0,-264.0,-165.0,129,34,118,37,128
2025-03-17 18:48:32.798,2257.0,-1790.0,2842.0,-78.0,10.0,-52.0,123,38,122,55,130
2025-03-17 18:48:32.822,1361.0,-1710.0,2216.0,-24.0,115.0,62.0,120,37,121,59,128
2025-03-17 18:48:32.846,375.0,-265.0,1247.0,-55.0,119.0,124.0,123,38,122,79,130
2025-03-17 18:48:32.868,-208.0,205.0,1351.0,-33.0,83.0,134.0,123,40,124,78,130
2025-03-17 18:48:32.892,-295.0,552.0,1246.0,-34.0,69.0,128.0,124,41,126,64,133
2025-03-17 18:48:32.904,-388.0,648.0,650.0,-28.0,106.0,121.0,125,40,111,76,132
2025-03-17 18:48:32.940,-482.0,783.0,515.0,-30.0,92.0,87.0,124,42,87,59,134
2025-03-17 18:48:32.965,-506.0,780.0,478.0,21.0,95.0,72.0,126,41,110,69,134
2025-03-17 18:48:32.990,-498.0,821.0,367.0,18.0,71.0,67.0,126,42,123,76,136
2025-03-17 18:48:33.013,-575.0,997.0,274.0,4.0,48.0,51.0,129,39,127,77,135
2025-03-17 18:48:33.035,-888.0,1250.0,-70.0,9.0,40.0,6.0,125,38,126,75,133
2025-03-17 18:48:33.060,-1324.0,1726.0,-831.0,10.0,-6.0,-73.0,122,40,125,66,131
2025-03-17 18:48:33.084,-1737.0,2000.0,-1413.0,53.0,-140.0,-163.0,121,41,108,64,133
2025-03-17 18:48:33.109,-530.0,1563.0,-497.0,107.0,-372.0,-259.0,125,41,113,74,135
2025-03-17 18:48:33.133,1877.0,-219.0,2190.0,152.0,-406.0,-186.0,133,47,124,80,136
2025-03-17 18:48:33.146,2668.0,-841.0,4157.0,-34.0,-107.0,-69.0,136,40,129,85,136
2025-03-17 18:48:33.182,1795.0,-1532.0,3041.0,-84.0,161.0,5.0,134,40,131,87,136
2025-03-17 18:48:33.206,569.0,-967.0,1271.0,-64.0,214.0,64.0,132,39,128,83,135
2025-03-17 18:48:33.226,-261.0,-171.0,1164.0,-62.0,145.0,99.0,131,40,127,86,133
2025-03-17 18:48:33.253,-569.0,643.0,1260.0,-119.0,94.0,105.0,135,39,128,76,135
2025-03-17 18:48:33.276,-418.0,717.0,1409.0,-127.0,141.0,83.0,135,43,127,67,134
2025-03-17 18:48:33.300,-200.0,530.0,1329.0,-149.0,222.0,80.0,138,43,104,74,135
2025-03-17 18:48:33.326,-250.0,670.0,1188.0,-146.0,301.0,77.0,143,48,124,70,138
2025-03-17 18:48:33.348,-301.0,599.0,669.0,-176.0,297.0,67.0,144,48,132,75,136
2025-03-17 18:48:33.372,-207.0,380.0,685.0,-151.0,334.0,60.0,144,44,132,66,129
2025-03-17 18:48:33.396,-227.0,465.0,419.0,-194.0,352.0,67.0,145,53,130,74,101
2025-03-17 18:48:33.421,-300.0,292.0,116.0,-221.0,320.0,81.0,143,42,129,71,63
2025-03-17 18:48:33.444,-447.0,378.0,-543.0,-157.0,308.0,120.0,140,43,123,57,46
2025-03-17 18:48:33.469,-283.0,1407.0,-1224.0,89.0,272.0,49.0,137,43,106,40,51
2025-03-17 18:48:33.494,-1538.0,2226.0,-4036.0,-124.0,-106.0,-258.0,122,31,99,0,39
2025-03-17 18:48:33.518,9.0,1892.0,-3456.0,-32.0,-640.0,-593.0,120,30,91,3,40
2025-03-17 18:48:33.543,2006.0,696.0,-2540.0,-65.0,-1092.0,-730.0,116,31,110,4,43
2025-03-17 18:48:33.564,6413.0,-2634.0,3245.0,-55.0,-1033.0,-233.0,128,32,115,4,45
2025-03-17 18:48:33.588,4299.0,-4618.0,5702.0,265.0,203.0,77.0,120,26,112,30,57
2025-03-17 18:48:33.613,-26.0,-1024.0,2692.0,111.0,272.0,170.0,114,38,114,53,49
2025-03-17 18:48:33.637,-432.0,-1134.0,2857.0,-166.0,254.0,125.0,108,13,112,11,47
2025-03-17 18:48:33.662,-374.0,-548.0,1498.0,-96.0,199.0,154.0,110,31,108,36,50
2025-03-17 18:48:33.686,-655.0,8.0,752.0,-86.0,223.0,110.0,111,33,103,60,51
2025-03-17 18:48:33.711,-389.0,-48.0,710.0,-124.0,288.0,108.0,112,32,107,56,52
2025-03-17 18:48:33.728,-230.0,-151.0,729.0,-16.0,303.0,118.0,115,27,113,60,52
2025-03-17 18:48:33.755,-401.0,-124.0,346.0,-73.0,244.0,157.0,120,37,100,70,54
2025-03-17 18:48:33.781,-277.0,-119.0,400.0,21.0,257.0,143.0,122,40,111,72,56
2025-03-17 18:48:33.802,-346.0,67.0,243.0,47.0,274.0,122.0,123,47,118,71,58
2025-03-17 18:48:33.830,-629.0,68.0,-182.0,17.0,227.0,116.0,125,48,110,67,59
2025-03-17 18:48:33.854,-688.0,-27.0,-176.0,0.0,140.0,125.0,124,43,109,57,54
2025-03-17 18:48:33.878,-403.0,62.0,-123.0,33.0,128.0,152.0,126,44,114,63,58
2025-03-17 18:48:33.899,-417.0,698.0,-1031.0,103.0,126.0,154.0,128,45,113,51,58
2025-03-17 18:48:33.924,-933.0,2179.0,-3103.0,181.0,-75.0,-81.0,119,47,111,60,51
2025-03-17 18:48:33.948,-1218.0,3066.0,-3995.0,46.0,-523.0,-535.0,109,44,98,56,46
2025-03-17 18:48:33.972,1618.0,2642.0,-2598.0,-32.0,-1080.0,-845.0,102,29,105,38,47
2025-03-17 18:48:33.996,6219.0,-3410.0,3237.0,222.0,-1105.0,-276.0,110,15,100,55,45
2025-03-17 18:48:34.022,4347.0,-2281.0,6814.0,365.0,206.0,-10.0,103,38,110,60,63
2025-03-17 18:48:34.046,116.0,-780.0,2160.0,128.0,324.0,61.0,91,37,85,55,53
2025-03-17 18:48:34.068,-778.0,-861.0,1373.0,-156.0,92.0,-22.0,94,47,104,63,54
2025-03-17 18:48:34.092,-779.0,-312.0,713.0,-108.0,37.0,-16.0,93,39,105,62,57
2025-03-17 18:48:34.104,-659.0,-533.0,527.0,-82.0,43.0,-37.0,94,44,98,63,57
2025-03-17 18:48:34.140,-399.0,-597.0,502.0,5.0,-12.0,-26.0,98,48,111,67,60
2025-03-17 18:48:34.166,-135.0,-619.0,730.0,-9.0,-33.0,-6.0,99,45,97,67,59
2025-03-17 18:48:34.189,-80.0,-589.0,925.0,-28.0,-17.0,4.0,100,45,112,67,60
2025-03-17 18:48:34.214,-115.0,-743.0,953.0,46.0,16.0,31.0,100,48,111,69,60
2025-03-17 18:48:34.235,-363.0,-242.0,838.0,48.0,25.0,31.0,100,49,109,68,60
2025-03-17 18:48:34.257,-452.0,-152.0,790.0,-4.0,2.0,11.0,98,45,106,64,58
2025-03-17 18:48:34.284,-402.0,-335.0,851.0,-30.0,-12.0,-8.0,98,44,104,65,58
2025-03-17 18:48:34.309,-212.0,-648.0,1003.0,24.0,16.0,8.0,92,44,101,66,59
2025-03-17 18:48:34.333,-388.0,-354.0,838.0,35.0,40.0,12.0,101,46,112,68,61
2025-03-17 18:48:34.358,-400.0,-306.0,793.0,-9.0,16.0,-1.0,100,43,111,66,60
2025-03-17 18:48:34.371,-370.0,-498.0,762.0,-3.0,-13.0,-5.0,101,46,110,68,61
2025-03-17 18:48:34.401,-271.0,-474.0,914.0,18.0,2.0,5.0,102,47,108,68,60
2025-03-17 18:48:34.428,-354.0,-385.0,836.0,-4.0,5.0,4.0,102,47,110,68,62
2025-03-17 18:48:34.451,-352.0,-443.0,875.0,-4.0,-2.0,2.0,100,44,100,66,60
2025-03-17 18:48:34.475,-379.0,-405.0,879.0,17.0,2.0,2.0,99,44,102,65,59
2025-03-17 18:48:34.501,-406.0,-294.0,891.0,-9.0,5.0,-8.0,97,44,99,65,55
2025-03-17 18:48:34.524,-365.0,-471.0,857.0,-27.0,-6.0,-12.0,98,45,108,65,57
2025-03-17 18:48:34.547,-306.0,-558.0,868.0,3.0,9.0,1.0,98,44,108,65,58
2025-03-17 18:48:34.571,-352.0,-428.0,813.0,11.0,9.0,2.0,99,41,106,66,59
2025-03-17 18:48:34.596,-404.0,-377.0,787.0,-12.0,-4.0,-1.0,99,45,106,66,58
2025-03-17 18:48:34.620,-349.0,-481.0,819.0,2.0,-10.0,-1.0,97,44,105,65,58
2025-03-17 18:48:34.644,-346.0,-417.0,896.0,2.0,-4.0,0.0,99,45,101,66,60
2025-03-17 18:48:34.669,-339.0,-447.0,901.0,1.0,4.0,0.0,97,44,99,66,56
2025-03-17 18:48:34.694,-383.0,-457.0,874.0,-4.0,-1.0,1.0,98,43,100,60,59
2025-03-17 18:48:34.718,-375.0,-413.0,850.0,-2.0,-4.0,0.0,98,44,104,66,58
2025-03-17 18:48:34.739,-358.0,-457.0,852.0,1.0,-4.0,1.0,98,45,106,66,59
2025-03-17 18:48:34.764,-386.0,-362.0,877.0,-3.0,-3.0,-3.0,99,45,102,65,59
2025-03-17 18:48:34.788,-336.0,-507.0,880.0,0.0,0.0,-1.0,100,45,105,66,59
2025-03-17 18:48:34.813,-350.0,-456.0,856.0,4.0,0.0,2.0,101,45,99,68,59
2025-03-17 18:48:34.837,-391.0,-376.0,820.0,-5.0,-4.0,-2.0,100,46,101,66,59
2025-03-17 18:48:34.862,-327.0,-479.0,884.0,-6.0,-5.0,-3.0,99,45,103,65,58
2025-03-17 18:48:34.886,-349.0,-430.0,883.0,3.0,2.0,2.0,99,44,105,66,58
2025-03-17 18:48:34.907,-378.0,-417.0,837.0,-2.0,-2.0,-1.0,99,43,106,66,58
2025-03-17 18:48:34.930,-359.0,-395.0,858.0,-12.0,-9.0,-5.0,98,44,106,66,59
2025-03-17 18:48:34.956,-290.0,-553.0,895.0,-2.0,0.0,1.0,100,44,100,64,59
2025-03-17 18:48:34.978,-362.0,-397.0,839.0,3.0,3.0,3.0,100,45,102,68,59
2025-03-17 18:48:35.003,-378.0,-401.0,829.0,-6.0,-3.0,-2.0,100,45,100,67,58
2025-03-17 18:48:35.029,-325.0,-480.0,864.0,-6.0,-8.0,-1.0,101,45,105,66,60
2025-03-17 18:48:35.054,-333.0,-459.0,875.0,9.0,3.0,4.0,104,45,105,67,59
2025-03-17 18:48:35.075,-361.0,-386.0,858.0,2.0,3.0,2.0,99,44,105,67,58
2025-03-17 18:48:35.100,-366.0,-424.0,869.0,-9.0,-3.0,-2.0,100,42,103,67,58
2025-03-17 18:48:35.124,-322.0,-486.0,883.0,7.0,3.0,2.0,101,45,103,63,58
2025-03-17 18:48:35.148,-375.0,-390.0,850.0,2.0,2.0,2.0,100,44,103,66,59
2025-03-17 18:48:35.173,-380.0,-396.0,834.0,-7.0,-5.0,-2.0,101,44,102,66,59
2025-03-17 18:48:35.198,-328.0,-507.0,894.0,3.0,1.0,2.0,100,45,106,67,60
2025-03-17 18:48:35.222,-375.0,-402.0,858.0,6.0,3.0,2.0,100,45,106,67,59
2025-03-17 18:48:35.243,-380.0,-391.0,859.0,-7.0,-4.0,-2.0,101,44,106,66,60
2025-03-17 18:48:35.267,-347.0,-476.0,884.0,-4.0,-4.0,-1.0,100,44,104,66,58
2025-03-17 18:48:35.280,-359.0,-408.0,866.0,1.0,2.0,0.0,100,44,103,67,58
2025-03-17 18:48:35.316,-365.0,-407.0,844.0,-2.0,1.0,-2.0,101,44,101,66,59
2025-03-17 18:48:35.341,-342.0,-475.0,860.0,-1.0,0.0,0.0,100,45,103,67,60
2025-03-17 18:48:35.365,-354.0,-421.0,855.0,1.0,1.0,1.0,101,45,105,67,60
2025-03-17 18:48:35.390,-335.0,-431.0,857.0,5.0,4.0,3.0,101,45,106,67,59
2025-03-17 18:48:35.408,-382.0,-376.0,840.0,-3.0,0.0,-1.0,101,46,105,67,59
2025-03-17 18:48:35.425,-355.0,-429.0,854.0,-4.0,-2.0,-2.0,101,45,105,67,60
2025-03-17 18:48:35.456,-359.0,-421.0,838.0,2.0,-1.0,-1.0,101,45,105,67,59
2025-03-17 18:48:35.484,-355.0,-420.0,847.0,-2.0,-2.0,-2.0,101,44,104,67,59
2025-03-17 18:48:35.509,-381.0,-399.0,845.0,-2.0,-3.0,-2.0,100,44,104,67,59
2025-03-17 18:48:35.533,-346.0,-465.0,885.0,-3.0,-3.0,-2.0,100,44,107,67,60
2025-03-17 18:48:35.557,-362.0,-421.0,881.0,0.0,1.0,-1.0,101,45,107,67,59
2025-03-17 18:48:35.582,-382.0,-424.0,848.0,-4.0,-2.0,-3.0,101,45,106,67,60
2025-03-17 18:48:35.604,-365.0,-443.0,861.0,-5.0,-5.0,-2.0,101,45,105,68,59
2025-03-17 18:48:35.628,-338.0,-469.0,880.0,1.0,-2.0,0.0,102,45,106,68,60
2025-03-17 18:48:35.652,-358.0,-431.0,881.0,-3.0,0.0,1.0,102,45,107,68,60
2025-03-17 18:48:35.675,-362.0,-447.0,865.0,-2.0,3.0,0.0,101,44,106,67,59
2025-03-17 18:48:35.701,-396.0,-404.0,838.0,-5.0,-1.0,-2.0,100,45,107,67,59
2025-03-17 18:48:35.726,-354.0,-456.0,860.0,0.0,0.0,0.0,102,44,104,68,64
2025-03-17 18:48:35.746,-334.0,-451.0,882.0,0.0,2.0,1.0,102,43,105,67,59
2025-03-17 18:48:35.771,-385.0,-412.0,840.0,0.0,2.0,1.0,102,46,107,68,60
2025-03-17 18:48:35.796,-374.0,-404.0,852.0,-7.0,-5.0,-2.0,102,45,106,67,59
2025-03-17 18:48:35.820,-336.0,-478.0,874.0,3.0,-1.0,2.0,102,45,106,68,60
2025-03-17 18:48:35.836,-358.0,-385.0,851.0,-2.0,1.0,0.0,102,45,105,68,60
