timestamp,ax,ay,az,gx,gy,gz,flex1,flex2,flex3,flex4,flex5,emg1,emg2,emg3
2025-02-20 16:11:44.548,-119.0,-514.0,880.0,-3.0,0.0,0.0,132,71,60,77,69,456,455,461
2025-02-20 16:11:44.548,-124.0,-502.0,869.0,-4.0,0.0,0.0,131,70,61,78,71,456,455,462
2025-02-20 16:11:44.563,-129.0,-504.0,860.0,-4.0,-2.0,0.0,132,71,60,78,70,453,455,461
2025-02-20 16:11:44.565,-122.0,-509.0,853.0,-3.0,-3.0,0.0,130,72,60,77,70,451,455,462
2025-02-20 16:11:44.567,-121.0,-516.0,867.0,-2.0,-3.0,0.0,133,70,61,78,70,449,456,460
2025-02-20 16:11:44.570,-122.0,-511.0,879.0,-1.0,-2.0,1.0,132,71,59,78,69,446,456,459
2025-02-20 16:11:44.573,-134.0,-486.0,884.0,-1.0,-3.0,1.0,133,71,61,78,70,445,458,459
2025-02-20 16:11:44.575,-132.0,-477.0,898.0,-2.0,-2.0,0.0,131,70,61,78,70,445,459,457
2025-02-20 16:11:44.576,-131.0,-501.0,897.0,-2.0,-1.0,-1.0,132,69,62,78,70,446,459,457
2025-02-20 16:11:44.588,-126.0,-530.0,888.0,-1.0,0.0,-1.0,132,71,61,76,70,446,458,457
2025-02-20 16:11:44.600,-119.0,-522.0,891.0,-1.0,0.0,0.0,133,71,60,77,70,444,460,455
2025-02-20 16:11:44.624,-118.0,-514.0,890.0,-2.0,-1.0,1.0,132,71,60,78,71,444,460,456
2025-02-20 16:11:44.643,-142.0,-489.0,879.0,-3.0,-1.0,1.0,131,71,59,77,70,445,459,456
2025-02-20 16:11:44.663,-143.0,-481.0,882.0,-3.0,-2.0,-2.0,133,71,61,78,70,445,458,456
2025-02-20 16:11:44.683,-122.0,-506.0,886.0,1.0,0.0,-3.0,132,71,61,77,71,444,457,456
2025-02-20 16:11:44.703,-121.0,-507.0,881.0,1.0,0.0,-2.0,131,71,60,79,69,440,458,457
2025-02-20 16:11:44.720,-114.0,-514.0,883.0,-2.0,-1.0,-1.0,131,71,60,77,70,441,455,457
2025-02-20 16:11:44.740,-122.0,-506.0,880.0,-2.0,-1.0,0.0,132,71,61,78,70,441,454,461
2025-02-20 16:11:44.757,-127.0,-492.0,880.0,0.0,-1.0,-1.0,132,71,60,78,70,441,455,462
2025-02-20 16:11:44.777,-124.0,-500.0,890.0,0.0,-1.0,-3.0,131,72,59,77,69,440,455,463
2025-02-20 16:11:44.797,-110.0,-527.0,889.0,2.0,1.0,-2.0,133,70,61,77,71,441,454,464
2025-02-20 16:11:44.811,-113.0,-525.0,886.0,0.0,0.0,-1.0,133,71,63,77,70,444,453,466
2025-02-20 16:11:44.831,-126.0,-514.0,878.0,0.0,-1.0,0.0,132,70,61,78,70,446,455,465
2025-02-20 16:11:44.854,-135.0,-507.0,886.0,0.0,-1.0,-1.0,132,71,60,78,70,449,455,465
2025-02-20 16:11:44.871,-129.0,-507.0,883.0,2.0,-1.0,-2.0,131,71,60,77,70,450,457,467
2025-02-20 16:11:44.892,-127.0,-504.0,892.0,1.0,0.0,-1.0,134,72,61,76,71,451,458,467
2025-02-20 16:11:44.911,-126.0,-514.0,884.0,-1.0,0.0,0.0,133,70,60,78,70,451,460,466
2025-02-20 16:11:44.928,-134.0,-509.0,883.0,-1.0,0.0,0.0,132,71,61,77,70,452,462,466
2025-02-20 16:11:44.946,-137.0,-492.0,885.0,-2.0,1.0,0.0,132,72,60,78,70,455,464,466
2025-02-20 16:11:44.966,-135.0,-505.0,872.0,-1.0,1.0,-1.0,132,71,60,78,70,454,464,466
2025-02-20 16:11:44.986,-130.0,-509.0,863.0,0.0,1.0,-1.0,133,71,60,77,70,457,465,468
2025-02-20 16:11:45.006,-127.0,-512.0,859.0,0.0,1.0,0.0,132,71,60,78,70,457,465,467
2025-02-20 16:11:45.023,-138.0,-496.0,849.0,-2.0,-1.0,0.0,131,73,60,78,70,456,466,468
2025-02-20 16:11:45.043,-133.0,-489.0,858.0,-4.0,-3.0,-1.0,132,70,60,78,70,456,464,469
2025-02-20 16:11:45.063,-129.0,-505.0,861.0,-2.0,-1.0,-1.0,133,71,61,77,70,459,464,471
2025-02-20 16:11:45.081,-129.0,-501.0,862.0,0.0,-2.0,-2.0,133,70,61,77,70,459,463,473
2025-02-20 16:11:45.101,-121.0,-507.0,870.0,-2.0,-3.0,0.0,134,71,60,77,70,459,462,474
2025-02-20 16:11:45.120,-121.0,-503.0,870.0,-2.0,-3.0,0.0,132,70,61,78,70,458,462,475
2025-02-20 16:11:45.137,-122.0,-489.0,886.0,-1.0,-3.0,-1.0,132,70,60,79,70,460,461,476
2025-02-20 16:11:45.158,-122.0,-491.0,886.0,0.0,-2.0,-1.0,131,71,60,78,70,460,461,477
2025-02-20 16:11:45.178,-128.0,-487.0,882.0,-1.0,-3.0,-1.0,132,71,60,78,71,461,462,478
2025-02-20 16:11:45.195,-125.0,-479.0,875.0,-2.0,-3.0,-2.0,132,71,60,77,71,465,461,477
2025-02-20 16:11:45.215,-126.0,-477.0,863.0,-2.0,-3.0,-2.0,133,71,61,77,70,467,464,477
2025-02-20 16:11:45.232,-145.0,-465.0,858.0,-1.0,-4.0,-2.0,132,71,61,77,71,470,465,477
2025-02-20 16:11:45.250,-154.0,-459.0,843.0,1.0,-4.0,-5.0,133,71,61,78,70,475,466,476
2025-02-20 16:11:45.272,-150.0,-462.0,851.0,5.0,-4.0,-8.0,132,71,60,77,70,479,466,476
2025-02-20 16:11:45.289,-133.0,-481.0,861.0,5.0,-7.0,-9.0,132,71,60,78,70,479,467,476
2025-02-20 16:11:45.303,-98.0,-534.0,902.0,4.0,-7.0,-8.0,132,70,60,78,70,477,467,475
2025-02-20 16:11:45.330,-76.0,-555.0,922.0,5.0,-5.0,-6.0,132,72,60,77,70,479,469,474
2025-02-20 16:11:45.342,-82.0,-544.0,937.0,4.0,-3.0,-5.0,133,71,60,77,70,485,469,474
2025-02-20 16:11:45.354,-93.0,-542.0,936.0,1.0,-3.0,-3.0,132,71,61,77,70,491,472,473
2025-02-20 16:11:45.387,-96.0,-545.0,934.0,-3.0,-2.0,0.0,133,71,61,77,70,495,470,473
2025-02-20 16:11:45.389,-100.0,-546.0,937.0,-3.0,0.0,1.0,132,72,61,78,70,501,468,473
2025-02-20 16:11:45.423,-113.0,-528.0,928.0,-2.0,1.0,1.0,132,71,61,78,70,504,473,472
2025-02-20 16:11:45.441,-116.0,-524.0,918.0,-1.0,2.0,1.0,132,71,60,78,70,502,476,473
2025-02-20 16:11:45.453,-118.0,-512.0,917.0,-3.0,2.0,2.0,132,70,61,77,71,500,477,473
2025-02-20 16:11:45.481,-120.0,-508.0,907.0,-5.0,1.0,2.0,131,72,60,79,70,499,477,473
2025-02-20 16:11:45.499,-105.0,-501.0,901.0,-4.0,3.0,3.0,132,71,61,78,70,498,474,473
2025-02-20 16:11:45.516,-113.0,-499.0,880.0,-4.0,4.0,2.0,132,71,61,78,70,495,473,472
2025-02-20 16:11:45.538,-126.0,-487.0,859.0,-3.0,3.0,2.0,132,71,61,78,70,492,472,471
2025-02-20 16:11:45.555,-123.0,-472.0,852.0,-3.0,2.0,2.0,133,71,61,78,70,490,472,473
2025-02-20 16:11:45.576,-132.0,-456.0,828.0,-4.0,1.0,1.0,132,71,59,78,70,488,474,471
2025-02-20 16:11:45.596,-128.0,-456.0,824.0,-4.0,0.0,1.0,132,71,61,78,70,489,476,471
2025-02-20 16:11:45.613,-138.0,-445.0,811.0,-2.0,-2.0,0.0,132,71,61,78,69,488,478,471
2025-02-20 16:11:45.631,-145.0,-419.0,793.0,-2.0,-4.0,-1.0,133,71,60,78,70,483,479,470
2025-02-20 16:11:45.650,-161.0,-403.0,771.0,-3.0,-8.0,-5.0,132,71,61,78,70,480,481,470
2025-02-20 16:11:45.668,-173.0,-449.0,775.0,0.0,-11.0,-8.0,133,71,61,78,70,480,483,468
2025-02-20 16:11:45.690,-140.0,-521.0,824.0,5.0,-16.0,-8.0,132,72,60,79,70,480,481,466
2025-02-20 16:11:45.704,-21.0,-678.0,1068.0,8.0,-10.0,1.0,131,71,60,77,71,479,476,463
2025-02-20 16:11:45.727,286.0,-979.0,1517.0,-12.0,50.0,53.0,134,72,61,77,73,479,475,463
2025-02-20 16:11:45.747,332.0,-1097.0,1607.0,-74.0,117.0,136.0,132,71,60,76,69,466,477,471
2025-02-20 16:11:45.753,74.0,-913.0,1360.0,-115.0,128.0,186.0,132,71,60,76,69,450,471,471
2025-02-20 16:11:45.784,193.0,-842.0,1512.0,-149.0,166.0,204.0,132,71,62,75,69,462,473,473
2025-02-20 16:11:45.805,229.0,-883.0,1511.0,-166.0,255.0,235.0,130,71,59,75,70,549,466,469
2025-02-20 16:11:45.822,104.0,-951.0,1206.0,-166.0,335.0,271.0,132,70,60,75,70,580,465,463
2025-02-20 16:11:45.827,-394.0,-630.0,576.0,-144.0,325.0,268.0,132,70,59,74,69,554,460,462
2025-02-20 16:11:45.862,-611.0,-378.0,351.0,-112.0,270.0,203.0,130,69,59,75,69,530,451,464
2025-02-20 16:11:45.879,-649.0,-183.0,140.0,-76.0,252.0,147.0,130,70,59,75,69,518,447,466
2025-02-20 16:11:45.899,-698.0,237.0,-64.0,-69.0,216.0,117.0,130,69,59,74,70,479,451,465
2025-02-20 16:11:45.915,-673.0,842.0,-371.0,-64.0,150.0,101.0,129,69,60,73,71,439,448,462
2025-02-20 16:11:45.936,-766.0,1750.0,-834.0,-13.0,85.0,35.0,128,69,59,73,71,404,446,462
2025-02-20 16:11:45.950,-1021.0,2637.0,-1443.0,116.0,1.0,-196.0,125,69,59,72,69,416,437,462
2025-02-20 16:11:45.962,-1157.0,3126.0,-1787.0,91.0,-170.0,-479.0,122,69,58,72,64,405,434,459
2025-02-20 16:11:45.993,-707.0,2686.0,-2089.0,-26.0,-508.0,-820.0,120,69,57,73,60,365,435,454
2025-02-20 16:11:46.014,1818.0,1470.0,-2152.0,-86.0,-891.0,-957.0,117,67,57,76,62,451,430,468
2025-02-20 16:11:46.031,5307.0,-3882.0,-56.0,4.0,-989.0,-557.0,122,70,56,78,66,491,455,475
2025-02-20 16:11:46.037,5394.0,-6483.0,3237.0,379.0,-191.0,-29.0,126,68,57,78,66,533,464,461
2025-02-20 16:11:46.069,2575.0,-1356.0,1851.0,331.0,239.0,51.0,125,63,55,73,58,478,458,468
2025-02-20 16:11:46.088,380.0,-1132.0,1544.0,32.0,143.0,19.0,121,63,56,73,52,347,491,457
2025-02-20 16:11:46.094,307.0,-1541.0,1251.0,-163.0,63.0,130.0,121,60,56,73,53,336,500,436
2025-02-20 16:11:46.127,406.0,-1743.0,1166.0,-149.0,98.0,130.0,119,60,56,76,56,343,473,439
2025-02-20 16:11:46.145,224.0,-1563.0,921.0,-58.0,164.0,164.0,119,64,55,79,59,391,434,454
2025-02-20 16:11:46.165,311.0,-1074.0,835.0,-29.0,228.0,207.0,119,68,56,80,61,556,389,481
2025-02-20 16:11:46.182,293.0,-824.0,641.0,-61.0,268.0,226.0,121,68,57,77,65,684,455,490
2025-02-20 16:11:46.203,-329.0,-507.0,284.0,-48.0,169.0,210.0,122,69,58,76,69,622,506,493
2025-02-20 16:11:46.223,-228.0,-514.0,269.0,-67.0,158.0,197.0,123,68,58,78,72,539,446,485
2025-02-20 16:11:46.240,-182.0,-405.0,374.0,-70.0,135.0,227.0,124,67,58,77,73,542,406,477
2025-02-20 16:11:46.259,-267.0,-177.0,314.0,-88.0,149.0,254.0,125,68,57,75,73,457,449,482
2025-02-20 16:11:46.279,-480.0,-97.0,150.0,-74.0,114.0,229.0,127,68,58,76,72,424,470,479
2025-02-20 16:11:46.296,-592.0,54.0,64.0,-59.0,76.0,187.0,126,68,57,76,70,452,468,478
2025-02-20 16:11:46.317,-551.0,152.0,100.0,-1.0,45.0,140.0,127,68,59,74,72,454,469,482
2025-02-20 16:11:46.333,-412.0,149.0,152.0,37.0,69.0,125.0,127,67,58,75,72,519,496,472
2025-02-20 16:11:46.354,-626.0,575.0,-115.0,93.0,57.0,127.0,127,69,60,75,73,500,517,459
2025-02-20 16:11:46.374,-947.0,1590.0,-541.0,165.0,30.0,11.0,126,69,60,76,73,501,508,444
2025-02-20 16:11:46.394,-1408.0,2649.0,-1115.0,234.0,-49.0,-366.0,125,72,60,76,72,500,453,435
2025-02-20 16:11:46.411,-1254.0,2508.0,-1221.0,89.0,-290.0,-616.0,124,70,59,80,70,417,423,447
2025-02-20 16:11:46.430,-28.0,1077.0,-1264.0,-5.0,-610.0,-796.0,124,68,59,83,71,419,399,451
2025-02-20 16:11:46.448,3658.0,-1206.0,-449.0,-18.0,-908.0,-713.0,125,68,59,86,72,503,411,460
2025-02-20 16:11:46.469,4628.0,-5534.0,3495.0,173.0,-489.0,-275.0,129,71,58,88,75,529,407,478
2025-02-20 16:11:46.487,3736.0,-3713.0,2733.0,194.0,184.0,145.0,129,70,59,87,71,430,455,472
2025-02-20 16:11:46.504,799.0,-755.0,1555.0,-20.0,194.0,82.0,127,67,58,83,62,345,506,462
2025-02-20 16:11:46.526,662.0,-1448.0,914.0,-176.0,88.0,123.0,126,63,60,81,58,288,532,440
2025-02-20 16:11:46.546,135.0,-1791.0,592.0,-220.0,57.0,183.0,126,61,58,82,61,355,525,442
2025-02-20 16:11:46.564,154.0,-1703.0,520.0,-161.0,95.0,236.0,126,62,58,86,63,419,520,453
2025-02-20 16:11:46.582,72.0,-1364.0,510.0,-115.0,119.0,302.0,129,66,58,88,67,510,491,471
2025-02-20 16:11:46.600,-74.0,-937.0,339.0,-121.0,120.0,338.0,131,69,58,84,69,571,472,481
2025-02-20 16:11:46.620,-224.0,-400.0,316.0,-92.0,62.0,274.0,132,69,59,77,71,584,507,476
2025-02-20 16:11:46.640,-56.0,-526.0,453.0,-51.0,66.0,223.0,134,67,60,80,74,549,485,472
2025-02-20 16:11:46.658,-146.0,-466.0,360.0,-82.0,98.0,264.0,137,68,59,78,73,473,434,466
2025-02-20 16:11:46.674,-536.0,-183.0,214.0,-89.0,55.0,251.0,140,68,58,74,74,503,477,474
2025-02-20 16:11:46.698,-557.0,84.0,99.0,-21.0,14.0,171.0,141,67,58,74,73,456,454,484
2025-02-20 16:11:46.715,-429.0,395.0,305.0,30.0,32.0,89.0,144,65,56,75,71,428,455,484
2025-02-20 16:11:46.734,-551.0,761.0,277.0,63.0,57.0,25.0,144,65,57,74,71,433,456,477
2025-02-20 16:11:46.755,-1234.0,2067.0,-219.0,121.0,19.0,-140.0,143,64,57,75,66,489,485,454
2025-02-20 16:11:46.772,-1481.0,2791.0,-784.0,106.0,-88.0,-357.0,145,62,54,75,62,491,530,432
2025-02-20 16:11:46.792,-1053.0,2003.0,-1019.0,-2.0,-276.0,-567.0,144,61,56,76,63,440,496,440
2025-02-20 16:11:46.813,496.0,1125.0,-1128.0,-124.0,-478.0,-714.0,143,60,56,80,66,430,445,450
2025-02-20 16:11:46.829,2675.0,-1593.0,-646.0,-113.0,-667.0,-617.0,144,60,31,84,68,483,414,464
2025-02-20 16:11:46.849,3668.0,-4278.0,1688.0,15.0,-371.0,-280.0,145,62,56,84,70,458,419,465
2025-02-20 16:11:46.866,3242.0,-3917.0,1525.0,132.0,68.0,-162.0,145,62,56,86,68,412,430,457
2025-02-20 16:11:46.887,1298.0,-2886.0,471.0,216.0,193.0,-52.0,144,62,54,82,61,357,468,447
2025-02-20 16:11:46.907,513.0,-1730.0,310.0,1.0,141.0,78.0,145,58,53,75,62,361,476,438
2025-02-20 16:11:46.924,479.0,-1314.0,550.0,-98.0,70.0,160.0,145,57,55,77,58,410,492,409
2025-02-20 16:11:46.944,681.0,-1950.0,728.0,-88.0,123.0,189.0,145,56,55,83,61,508,503,428
2025-02-20 16:11:46.964,529.0,-1891.0,551.0,-15.0,178.0,242.0,145,61,57,87,63,511,480,468
2025-02-20 16:11:46.981,150.0,-774.0,335.0,40.0,173.0,209.0,145,64,57,85,64,532,441,483
2025-02-20 16:11:47.001,68.0,-750.0,257.0,40.0,151.0,198.0,144,64,57,84,67,505,455,481
2025-02-20 16:11:47.021,-57.0,-617.0,273.0,-21.0,143.0,232.0,143,64,57,82,67,443,465,482
2025-02-20 16:11:47.036,-232.0,-377.0,290.0,-10.0,103.0,200.0,144,64,58,86,70,415,457,470
2025-02-20 16:11:47.058,-359.0,-344.0,276.0,-21.0,77.0,188.0,144,63,57,80,69,469,445,463
2025-02-20 16:11:47.074,-367.0,-255.0,334.0,-38.0,53.0,155.0,145,64,58,78,69,471,453,471
2025-02-20 16:11:47.096,-331.0,-244.0,320.0,-39.0,49.0,176.0,143,65,56,80,68,498,447,482
2025-02-20 16:11:47.116,-291.0,-110.0,397.0,-61.0,46.0,190.0,145,64,55,76,67,461,472,476
2025-02-20 16:11:47.132,-428.0,65.0,434.0,-5.0,49.0,169.0,145,64,55,73,67,458,478,474
2025-02-20 16:11:47.153,-450.0,498.0,490.0,130.0,76.0,34.0,145,64,56,75,66,457,489,473
2025-02-20 16:11:47.172,-774.0,1019.0,141.0,201.0,113.0,2.0,144,65,56,77,66,465,467,464
2025-02-20 16:11:47.190,-1302.0,2361.0,-576.0,203.0,71.0,-204.0,144,65,56,78,65,442,458,458
2025-02-20 16:11:47.210,-1821.0,2561.0,-1361.0,95.0,-180.0,-482.0,144,62,56,80,63,439,455,459
2025-02-20 16:11:47.230,-811.0,1913.0,-1808.0,-119.0,-540.0,-703.0,143,63,57,82,64,480,457,453
2025-02-20 16:11:47.247,3378.0,-1030.0,-1372.0,-292.0,-884.0,-621.0,142,64,59,86,68,482,426,453
2025-02-20 16:11:47.267,4787.0,-5343.0,2028.0,-170.0,-611.0,-257.0,140,65,57,86,70,426,421,444
2025-02-20 16:11:47.284,4353.0,-4736.0,1980.0,76.0,30.0,-66.0,143,65,57,84,69,448,412,431
2025-02-20 16:11:47.303,1693.0,-2841.0,404.0,202.0,273.0,-14.0,145,62,57,84,62,319,427,435
2025-02-20 16:11:47.322,378.0,-1393.0,-189.0,-10.0,176.0,136.0,144,58,55,74,57,318,466,431
2025-02-20 16:11:47.341,266.0,-1060.0,206.0,-119.0,64.0,186.0,144,57,57,73,57,390,496,450
2025-02-20 16:11:47.362,494.0,-1646.0,753.0,-70.0,111.0,218.0,142,58,58,79,58,497,512,453
2025-02-20 16:11:47.382,437.0,-1469.0,731.0,16.0,213.0,272.0,144,61,60,83,62,573,495,468
2025-02-20 16:11:47.399,600.0,-1196.0,522.0,50.0,278.0,304.0,143,68,61,84,64,536,467,465
2025-02-20 16:11:47.419,231.0,-480.0,549.0,23.0,262.0,324.0,143,71,60,84,68,493,464,466
2025-02-20 16:11:47.439,277.0,-440.0,311.0,56.0,283.0,331.0,142,74,62,86,76,456,465,465
2025-02-20 16:11:47.456,165.0,-640.0,273.0,65.0,309.0,313.0,141,75,64,88,85,491,482,469
2025-02-20 16:11:47.476,-4.0,-575.0,279.0,27.0,287.0,329.0,140,81,69,92,95,499,478,479
2025-02-20 16:11:47.496,-146.0,147.0,-468.0,-18.0,183.0,340.0,139,88,75,98,101,503,436,477
2025-02-20 16:11:47.513,-780.0,752.0,-396.0,16.0,150.0,260.0,139,87,78,108,105,450,438,476
2025-02-20 16:11:47.533,-911.0,853.0,-269.0,133.0,108.0,171.0,136,89,80,113,105,458,483,469
2025-02-20 16:11:47.551,-1159.0,1502.0,-689.0,147.0,9.0,41.0,136,90,82,116,108,493,515,458
2025-02-20 16:11:47.570,-1142.0,2239.0,-1219.0,201.0,-195.0,-215.0,136,96,87,118,115,462,481,444
2025-02-20 16:11:47.591,-1149.0,2347.0,-913.0,228.0,-282.0,-528.0,135,102,90,119,124,432,453,449
2025-02-20 16:11:47.607,-661.0,1362.0,-792.0,190.0,-439.0,-718.0,133,109,94,124,129,420,450,459
2025-02-20 16:11:47.625,1456.0,1130.0,-268.0,150.0,-584.0,-736.0,130,114,94,127,132,410,425,474
2025-02-20 16:11:47.642,2538.0,-1503.0,182.0,-109.0,-875.0,-502.0,131,118,101,129,134,406,433,494
2025-02-20 16:11:47.665,3737.0,-3461.0,873.0,-275.0,-637.0,-227.0,134,119,103,132,135,387,428,487
2025-02-20 16:11:47.685,3058.0,-4289.0,1223.0,-33.0,-251.0,99.0,134,119,105,132,136,421,439,472
2025-02-20 16:11:47.705,2085.0,-3194.0,668.0,19.0,-114.0,200.0,135,117,106,133,136,360,474,461
2025-02-20 16:11:47.722,1173.0,-1865.0,763.0,-56.0,-24.0,116.0,134,113,104,133,136,317,492,460
2025-02-20 16:11:47.742,-39.0,-550.0,464.0,-184.0,79.0,213.0,136,109,103,132,136,379,515,463
2025-02-20 16:11:47.762,-166.0,-1217.0,397.0,-90.0,60.0,279.0,136,108,103,132,135,428,531,473
2025-02-20 16:11:47.780,-43.0,-827.0,356.0,27.0,44.0,267.0,136,107,103,132,135,590,505,480
2025-02-20 16:11:47.800,78.0,-956.0,608.0,67.0,119.0,208.0,135,108,104,131,136,591,465,475
2025-02-20 16:11:47.817,179.0,-1103.0,420.0,139.0,211.0,166.0,136,109,103,133,136,584,442,457
2025-02-20 16:11:47.837,142.0,-937.0,257.0,108.0,197.0,182.0,136,112,104,133,137,503,432,447
2025-02-20 16:11:47.856,-98.0,-613.0,279.0,119.0,262.0,193.0,136,115,104,134,136,471,441,447
2025-02-20 16:11:47.874,-333.0,-523.0,124.0,83.0,251.0,202.0,137,116,104,133,134,485,462,459
2025-02-20 16:11:47.894,-209.0,-500.0,146.0,48.0,156.0,198.0,136,117,89,133,137,505,479,467
2025-02-20 16:11:47.914,-164.0,-475.0,397.0,-34.0,108.0,181.0,136,117,104,134,137,499,476,463
2025-02-20 16:11:47.931,-448.0,-68.0,320.0,-32.0,90.0,168.0,136,116,103,134,137,487,465,462
2025-02-20 16:11:47.951,-557.0,145.0,275.0,-1.0,47.0,153.0,135,115,103,132,136,444,461,460
2025-02-20 16:11:47.968,-500.0,163.0,382.0,29.0,37.0,131.0,135,112,103,133,136,478,459,457
2025-02-20 16:11:47.988,-251.0,192.0,191.0,49.0,60.0,88.0,135,108,103,133,135,499,451,459
2025-02-20 16:11:48.008,-959.0,1033.0,-280.0,136.0,-12.0,12.0,134,104,101,132,135,490,458,458
2025-02-20 16:11:48.029,-1612.0,1805.0,-358.0,252.0,-112.0,-173.0,135,106,102,131,136,465,466,450
2025-02-20 16:11:48.046,-1459.0,2065.0,-488.0,264.0,-190.0,-521.0,135,110,102,133,136,422,467,450
2025-02-20 16:11:48.066,-389.0,1621.0,-653.0,283.0,-347.0,-706.0,133,117,103,133,136,358,458,463
2025-02-20 16:11:48.083,2258.0,-1019.0,655.0,-126.0,-475.0,-604.0,128,120,105,133,136,508,448,474
2025-02-20 16:11:48.103,2823.0,-2217.0,1165.0,-145.0,-625.0,-395.0,129,122,106,134,138,548,440,486
2025-02-20 16:11:48.123,2958.0,-4208.0,1414.0,-95.0,-388.0,-146.0,131,121,107,135,137,543,430,486
2025-02-20 16:11:48.140,2184.0,-3691.0,1206.0,124.0,-45.0,104.0,131,122,107,135,137,391,447,473
2025-02-20 16:11:48.158,1390.0,-2223.0,1131.0,-39.0,-85.0,167.0,133,121,107,135,137,261,475,449
2025-02-20 16:11:48.181,481.0,-1139.0,140.0,-210.0,-53.0,131.0,135,116,105,135,137,274,480,457
2025-02-20 16:11:48.195,118.0,-1062.0,602.0,-159.0,82.0,179.0,134,113,103,135,136,253,471,455
2025-02-20 16:11:48.217,7.0,-1164.0,321.0,-83.0,45.0,203.0,134,112,103,134,136,453,445,455
2025-02-20 16:11:48.235,17.0,-1139.0,358.0,-22.0,28.0,215.0,134,112,103,133,136,538,386,459
2025-02-20 16:11:48.255,148.0,-992.0,605.0,13.0,80.0,201.0,136,113,102,132,136,532,383,460
2025-02-20 16:11:48.275,213.0,-974.0,637.0,25.0,160.0,183.0,133,117,96,131,135,461,413,449
2025-02-20 16:11:48.292,78.0,-799.0,651.0,10.0,184.0,196.0,135,116,99,131,133,467,444,454
2025-02-20 16:11:48.310,-53.0,-860.0,644.0,-13.0,263.0,229.0,136,114,97,129,129,501,465,457
2025-02-20 16:11:48.332,88.0,-631.0,447.0,-25.0,258.0,272.0,137,111,92,126,121,502,482,460
2025-02-20 16:11:48.349,74.0,-648.0,506.0,-27.0,239.0,324.0,136,105,92,120,108,523,491,452
2025-02-20 16:11:48.369,106.0,-417.0,389.0,0.0,168.0,355.0,138,100,83,114,94,547,482,466
2025-02-20 16:11:48.386,-102.0,97.0,232.0,98.0,190.0,345.0,137,89,79,109,83,466,493,474
2025-02-20 16:11:48.406,-582.0,1180.0,222.0,222.0,226.0,212.0,137,78,74,107,75,458,494,472
2025-02-20 16:11:48.426,-1130.0,3101.0,-569.0,340.0,173.0,-79.0,135,74,71,103,67,474,494,463
2025-02-20 16:11:48.447,-1381.0,3703.0,-1612.0,225.0,-78.0,-461.0,133,63,61,85,55,457,485,443
2025-02-20 16:11:48.462,-965.0,2499.0,-1574.0,-72.0,-279.0,-745.0,133,51,55,73,48,430,494,451
2025-02-20 16:11:48.484,353.0,1267.0,-2308.0,-254.0,-724.0,-925.0,132,52,54,70,50,447,483,447
2025-02-20 16:11:48.502,4900.0,-2846.0,-1176.0,-350.0,-908.0,-596.0,133,53,54,74,53,475,435,469
2025-02-20 16:11:48.522,5281.0,-6331.0,2718.0,-100.0,-301.0,-109.0,136,57,54,76,55,399,391,463
2025-02-20 16:11:48.541,2481.0,-4053.0,736.0,241.0,211.0,-37.0,139,52,52,74,52,375,423,461
2025-02-20 16:11:48.558,493.0,-1875.0,-177.0,159.0,204.0,53.0,138,51,52,73,49,263,454,443
2025-02-20 16:11:48.576,-6.0,-1233.0,-271.0,-67.0,-1.0,155.0,140,51,52,73,47,268,503,432
2025-02-20 16:11:48.593,238.0,-1577.0,393.0,-100.0,-26.0,146.0,138,49,52,76,49,342,535,450
2025-02-20 16:11:48.616,381.0,-1907.0,794.0,36.0,73.0,169.0,141,51,53,77,50,419,500,454
2025-02-20 16:11:48.635,273.0,-1225.0,577.0,95.0,149.0,189.0,140,53,54,77,51,407,461,453
2025-02-20 16:11:48.652,64.0,-805.0,351.0,85.0,161.0,174.0,141,57,54,77,54,467,506,443
2025-02-20 16:11:48.673,-138.0,-584.0,323.0,25.0,135.0,156.0,141,59,56,72,55,548,540,452
2025-02-20 16:11:48.692,-48.0,-625.0,370.0,-5.0,125.0,163.0,140,58,57,72,57,618,522,458
2025-02-20 16:11:48.709,-145.0,-758.0,322.0,-7.0,113.0,222.0,140,58,57,72,58,627,488,476
2025-02-20 16:11:48.729,-108.0,-408.0,474.0,-22.0,101.0,183.0,140,58,56,72,59,610,439,497
2025-02-20 16:11:48.750,-196.0,-274.0,340.0,-32.0,123.0,167.0,141,56,58,73,58,538,419,495
2025-02-20 16:11:48.764,-373.0,-106.0,225.0,-29.0,128.0,163.0,141,59,58,76,58,538,416,492
2025-02-20 16:11:48.787,-667.0,119.0,121.0,-34.0,80.0,154.0,141,59,57,75,58,501,436,486
2025-02-20 16:11:48.804,-652.0,452.0,158.0,20.0,67.0,75.0,141,60,57,78,57,508,448,465
2025-02-20 16:11:48.824,-636.0,799.0,313.0,146.0,106.0,-24.0,142,60,58,79,57,529,439,459
2025-02-20 16:11:48.844,-1054.0,1627.0,-432.0,233.0,99.0,-202.0,140,60,59,79,57,513,449,453
2025-02-20 16:11:48.861,-1707.0,2020.0,-1116.0,174.0,-112.0,-393.0,139,61,59,78,56,493,460,455
2025-02-20 16:11:48.881,-918.0,1653.0,-1646.0,13.0,-391.0,-571.0,138,59,60,78,56,482,472,460
2025-02-20 16:11:48.902,1492.0,166.0,-1114.0,-139.0,-682.0,-537.0,138,60,60,80,57,424,469,463
2025-02-20 16:11:48.922,3470.0,-2481.0,932.0,-257.0,-637.0,-344.0,140,61,63,83,60,410,446,461
2025-02-20 16:11:48.939,3985.0,-4183.0,2306.0,-144.0,-193.0,-120.0,141,61,64,85,59,468,440,466
2025-02-20 16:11:48.959,2364.0,-4021.0,1129.0,95.0,190.0,-42.0,141,62,64,88,57,389,420,455
2025-02-20 16:11:48.976,1087.0,-2159.0,196.0,0.0,255.0,46.0,143,57,63,90,52,295,434,442
2025-02-20 16:11:48.996,57.0,-1339.0,-470.0,-141.0,111.0,109.0,141,57,65,94,51,325,465,442
2025-02-20 16:11:49.015,94.0,-1386.0,-88.0,-138.0,14.0,139.0,141,59,67,96,53,378,479,438
2025-02-20 16:11:49.033,274.0,-2030.0,204.0,-11.0,44.0,186.0,141,62,70,98,54,454,402,458
2025-02-20 16:11:49.053,604.0,-1951.0,350.0,108.0,134.0,231.0,140,67,71,100,55,458,414,459
2025-02-20 16:11:49.073,445.0,-1336.0,412.0,177.0,184.0,260.0,140,75,73,99,57,479,483,469
2025-02-20 16:11:49.091,328.0,-977.0,246.0,114.0,244.0,268.0,141,82,77,93,57,537,482,471
2025-02-20 16:11:49.110,122.0,-377.0,208.0,30.0,276.0,291.0,142,89,80,89,60,540,457,464
2025-02-20 16:11:49.127,-91.0,-537.0,314.0,15.0,304.0,323.0,140,96,83,87,62,557,432,471
2025-02-20 16:11:49.147,-172.0,-364.0,215.0,72.0,228.0,340.0,140,101,86,86,62,547,450,480
2025-02-20 16:11:49.165,-418.0,-173.0,42.0,72.0,191.0,322.0,141,106,89,86,64,483,464,481
2025-02-20 16:11:49.182,-524.0,220.0,-259.0,91.0,140.0,262.0,139,109,91,86,64,426,450,480
2025-02-20 16:11:49.204,-699.0,828.0,-355.0,110.0,77.0,145.0,140,113,94,86,65,440,456,466
2025-02-20 16:11:49.211,-1015.0,1255.0,-469.0,104.0,0.0,28.0,140,112,97,87,66,526,460,460
2025-02-20 16:11:49.242,-1110.0,1528.0,-749.0,96.0,-83.0,-130.0,140,114,99,86,65,478,444,449
2025-02-20 16:11:49.262,-1201.0,1790.0,-869.0,124.0,-214.0,-326.0,140,116,101,86,64,443,425,447
2025-02-20 16:11:49.279,-1017.0,1564.0,-500.0,145.0,-361.0,-539.0,137,117,103,87,64,435,433,457
2025-02-20 16:11:49.298,532.0,1090.0,-148.0,9.0,-556.0,-715.0,137,121,105,87,65,430,464,472
2025-02-20 16:11:49.319,2238.0,-250.0,276.0,-149.0,-660.0,-736.0,136,125,106,88,69,443,495,500
2025-02-20 16:11:49.340,2919.0,-3330.0,925.0,-36.0,-544.0,-451.0,133,126,107,89,69,452,503,494
2025-02-20 16:11:49.357,3175.0,-3550.0,1093.0,40.0,-181.0,-88.0,132,128,107,89,70,446,515,477
2025-02-20 16:11:49.377,2377.0,-2668.0,1448.0,-22.0,72.0,147.0,133,124,108,92,66,381,564,469
2025-02-20 16:11:49.394,962.0,-1719.0,916.0,-60.0,148.0,157.0,134,126,107,93,62,320,558,451
2025-02-20 16:11:49.411,365.0,-1051.0,950.0,-71.0,109.0,154.0,133,126,107,95,61,343,517,449
2025-02-20 16:11:49.432,189.0,-1248.0,319.0,-80.0,73.0,158.0,133,124,108,95,61,453,491,452
2025-02-20 16:11:49.451,118.0,-1241.0,337.0,-7.0,83.0,181.0,132,124,108,91,62,501,461,463
2025-02-20 16:11:49.471,146.0,-1000.0,533.0,41.0,107.0,200.0,133,124,107,89,63,601,435,459
2025-02-20 16:11:49.491,105.0,-881.0,540.0,51.0,137.0,208.0,135,126,108,87,65,561,445,456
2025-02-20 16:11:49.508,-10.0,-737.0,533.0,48.0,145.0,199.0,135,127,108,86,66,546,479,452
2025-02-20 16:11:49.528,-95.0,-683.0,485.0,43.0,148.0,196.0,136,127,108,86,66,495,446,453
2025-02-20 16:11:49.545,-77.0,-652.0,497.0,44.0,148.0,205.0,137,129,108,84,68,459,437,454
2025-02-20 16:11:49.565,-114.0,-422.0,460.0,22.0,157.0,222.0,137,128,108,86,71,479,429,458
2025-02-20 16:11:49.585,-256.0,-307.0,439.0,-5.0,169.0,223.0,136,127,108,87,68,500,441,467
2025-02-20 16:11:49.602,-397.0,-341.0,424.0,-28.0,159.0,222.0,139,128,108,86,67,449,472,456
2025-02-20 16:11:49.623,-517.0,-269.0,309.0,0.0,149.0,199.0,137,126,108,87,67,426,471,461
2025-02-20 16:11:49.643,-476.0,-36.0,284.0,45.0,136.0,146.0,137,125,108,86,66,482,461,463
2025-02-20 16:11:49.660,-588.0,192.0,247.0,54.0,144.0,87.0,138,124,108,87,66,497,445,471
2025-02-20 16:11:49.680,-762.0,724.0,-262.0,48.0,117.0,52.0,139,124,108,86,65,477,415,470
2025-02-20 16:11:49.700,-1466.0,1282.0,-1128.0,72.0,-42.0,-87.0,135,124,108,81,63,461,398,468
2025-02-20 16:11:49.717,-1587.0,1672.0,-1246.0,134.0,-231.0,-305.0,137,125,109,79,62,462,412,463
2025-02-20 16:11:49.738,-1030.0,1411.0,-927.0,111.0,-462.0,-580.0,136,126,110,79,64,445,436,475
2025-02-20 16:11:49.758,1035.0,561.0,-540.0,6.0,-764.0,-653.0,135,128,110,81,68,441,450,480
2025-02-20 16:11:49.775,3315.0,-878.0,530.0,-9.0,-801.0,-609.0,136,128,109,84,70,430,443,495
2025-02-20 16:11:49.794,2985.0,-3575.0,2241.0,74.0,-334.0,-315.0,138,128,109,86,72,416,440,489
2025-02-20 16:11:49.811,2757.0,-3232.0,1904.0,56.0,52.0,35.0,139,126,108,90,73,364,476,470
2025-02-20 16:11:49.831,1328.0,-1717.0,1525.0,-33.0,139.0,169.0,138,123,107,93,68,275,520,447
2025-02-20 16:11:49.852,473.0,-1201.0,1079.0,-153.0,103.0,162.0,139,118,106,98,68,326,526,447
2025-02-20 16:11:49.869,330.0,-1300.0,508.0,-190.0,60.0,148.0,138,113,105,103,70,400,524,448
2025-02-20 16:11:49.889,431.0,-1587.0,469.0,-129.0,99.0,162.0,137,109,101,102,74,516,505,436
2025-02-20 16:11:49.909,267.0,-1542.0,617.0,-60.0,117.0,229.0,140,106,100,102,75,568,459,464
2025-02-20 16:11:49.926,187.0,-1379.0,516.0,-50.0,150.0,295.0,138,107,95,103,77,676,469,462
2025-02-20 16:11:49.946,131.0,-1035.0,594.0,-70.0,136.0,294.0,143,104,89,103,76,551,488,455
2025-02-20 16:11:49.966,-42.0,-882.0,571.0,-77.0,142.0,260.0,139,97,82,101,74,551,468,451
2025-02-20 16:11:49.983,0.0,-797.0,412.0,-24.0,149.0,259.0,141,90,78,100,73,486,443,459
2025-02-20 16:11:50.002,-85.0,-726.0,346.0,-51.0,141.0,277.0,141,86,72,99,72,477,459,475
2025-02-20 16:11:50.021,-289.0,-522.0,326.0,-82.0,93.0,277.0,142,79,65,97,71,487,481,488
2025-02-20 16:11:50.040,-297.0,-301.0,160.0,-66.0,69.0,277.0,143,73,64,93,68,450,455,487
2025-02-20 16:11:50.061,-470.0,41.0,135.0,-4.0,48.0,176.0,143,69,62,89,64,428,480,475
2025-02-20 16:11:50.078,-417.0,54.0,298.0,14.0,72.0,108.0,143,65,60,87,61,421,488,469
2025-02-20 16:11:50.097,-436.0,170.0,172.0,30.0,73.0,105.0,144,63,57,85,60,442,466,468
2025-02-20 16:11:50.108,-716.0,627.0,137.0,93.0,67.0,40.0,143,64,57,81,59,481,442,459
2025-02-20 16:11:50.135,-662.0,1417.0,29.0,146.0,70.0,-72.0,144,62,56,78,59,462,421,443
2025-02-20 16:11:50.154,-1224.0,2060.0,-494.0,160.0,21.0,-222.0,142,58,56,76,56,476,396,442
2025-02-20 16:11:50.175,-1506.0,2373.0,-1150.0,74.0,-151.0,-425.0,141,57,53,76,56,476,387,430
2025-02-20 16:11:50.193,-848.0,2094.0,-1720.0,-68.0,-466.0,-715.0,140,54,52,79,55,462,411,429
2025-02-20 16:11:50.213,1729.0,772.0,-1822.0,-255.0,-796.0,-759.0,141,56,52,84,58,446,422,438
2025-02-20 16:11:50.233,4173.0,-3489.0,242.0,-259.0,-797.0,-405.0,143,57,55,86,61,470,411,452
2025-02-20 16:11:50.249,4114.0,-4624.0,2460.0,-169.0,-205.0,-101.0,144,57,54,88,63,449,440,450
2025-02-20 16:11:50.269,2229.0,-3688.0,755.0,84.0,136.0,-99.0,144,56,54,89,58,328,486,452
2025-02-20 16:11:50.287,674.0,-2642.0,-291.0,93.0,183.0,15.0,145,54,52,86,54,283,506,435
2025-02-20 16:11:50.303,56.0,-1416.0,-545.0,-68.0,54.0,97.0,147,52,52,77,52,321,522,416
2025-02-20 16:11:50.327,624.0,-1886.0,229.0,-47.0,21.0,151.0,145,52,53,82,54,428,513,435
2025-02-20 16:11:50.344,528.0,-2178.0,522.0,49.0,110.0,172.0,146,54,55,91,55,433,493,438
2025-02-20 16:11:50.364,350.0,-1801.0,357.0,75.0,170.0,235.0,146,57,55,92,55,529,463,444
2025-02-20 16:11:50.381,71.0,-1314.0,-178.0,79.0,150.0,300.0,146,60,56,88,58,507,490,451
2025-02-20 16:11:50.401,80.0,-728.0,161.0,13.0,116.0,298.0,146,61,57,81,60,486,510,467
2025-02-20 16:11:50.421,-40.0,-560.0,169.0,-20.0,97.0,284.0,146,60,58,80,61,468,490,469
2025-02-20 16:11:50.437,-31.0,-480.0,329.0,7.0,62.0,232.0,146,61,58,81,62,437,477,479
2025-02-20 16:11:50.458,-60.0,-485.0,428.0,-30.0,83.0,229.0,146,63,60,76,62,456,461,497
2025-02-20 16:11:50.478,-130.0,-427.0,122.0,-36.0,88.0,251.0,147,65,62,77,62,469,449,497
2025-02-20 16:11:50.496,-437.0,93.0,132.0,-13.0,60.0,224.0,147,65,61,78,62,444,437,471
2025-02-20 16:11:50.516,-559.0,599.0,350.0,48.0,38.0,129.0,147,65,61,82,62,437,475,460
2025-02-20 16:11:50.535,-471.0,829.0,391.0,95.0,70.0,63.0,148,66,61,83,62,499,477,459
2025-02-20 16:11:50.553,-769.0,1179.0,350.0,188.0,110.0,3.0,146,65,64,84,62,564,465,457
2025-02-20 16:11:50.570,-1088.0,2363.0,-232.0,292.0,86.0,-199.0,145,68,65,83,62,583,446,461
2025-02-20 16:11:50.592,-986.0,2952.0,-751.0,109.0,-100.0,-504.0,145,70,65,83,62,565,441,460
2025-02-20 16:11:50.610,-113.0,1978.0,-1084.0,-208.0,-338.0,-646.0,147,70,67,85,61,516,442,486
2025-02-20 16:11:50.630,1568.0,-1136.0,-678.0,-311.0,-477.0,-617.0,146,70,67,89,60,455,441,487
2025-02-20 16:11:50.650,2879.0,-3521.0,587.0,17.0,-357.0,-437.0,146,72,68,94,64,453,439,479
2025-02-20 16:11:50.667,3076.0,-4474.0,1010.0,204.0,-139.0,-209.0,146,72,68,97,64,456,460,471
2025-02-20 16:11:50.687,1536.0,-2802.0,628.0,72.0,-41.0,-67.0,146,70,67,98,61,357,492,466
2025-02-20 16:11:50.703,885.0,-2633.0,409.0,-207.0,34.0,14.0,145,64,67,102,60,313,519,463
2025-02-20 16:11:50.722,764.0,-2365.0,172.0,-268.0,43.0,75.0,146,67,68,100,61,339,490,440
2025-02-20 16:11:50.745,495.0,-2153.0,171.0,9.0,8.0,130.0,146,70,71,103,63,405,455,452
2025-02-20 16:11:50.762,499.0,-1940.0,238.0,119.0,66.0,164.0,145,73,73,106,61,422,410,457
2025-02-20 16:11:50.782,317.0,-1610.0,249.0,188.0,55.0,194.0,144,78,74,106,62,458,414,473
2025-02-20 16:11:50.802,242.0,-1042.0,218.0,75.0,100.0,209.0,145,84,76,103,65,492,463,483
2025-02-20 16:11:50.819,132.0,-705.0,752.0,65.0,110.0,230.0,145,88,76,100,72,478,450,471
2025-02-20 16:11:50.836,101.0,-749.0,854.0,146.0,176.0,236.0,144,89,77,99,77,438,435,478
2025-02-20 16:11:50.859,109.0,-469.0,307.0,29.0,306.0,249.0,145,86,75,101,81,455,439,489
2025-02-20 16:11:50.874,-28.0,-411.0,40.0,-41.0,280.0,261.0,145,87,74,104,86,463,440,493
2025-02-20 16:11:50.897,15.0,-367.0,-24.0,-17.0,228.0,269.0,144,88,74,107,89,441,435,499
2025-02-20 16:11:50.915,-494.0,-161.0,202.0,-67.0,144.0,282.0,143,87,72,109,90,439,471,485
2025-02-20 16:11:50.933,-334.0,-13.0,339.0,11.0,98.0,298.0,142,80,68,109,90,432,510,476
2025-02-20 16:11:50.953,-359.0,-12.0,85.0,80.0,111.0,284.0,142,70,64,109,88,534,506,476
2025-02-20 16:11:50.971,-305.0,67.0,-19.0,205.0,129.0,264.0,141,63,63,107,83,567,483,481
2025-02-20 16:11:50.990,-694.0,570.0,-229.0,316.0,150.0,213.0,139,58,61,99,72,552,469,482
2025-02-20 16:11:51.011,-1040.0,1823.0,-593.0,442.0,148.0,62.0,136,57,58,92,60,500,446,473
2025-02-20 16:11:51.025,-1314.0,3872.0,-1530.0,144.0,11.0,-401.0,132,56,53,83,55,480,429,465
2025-02-20 16:11:51.048,-1170.0,3565.0,-2592.0,-3.0,-464.0,-726.0,118,54,52,79,56,478,434,466
2025-02-20 16:11:51.068,892.0,1804.0,-2269.0,-119.0,-770.0,-880.0,111,52,51,81,55,455,437,470
2025-02-20 16:11:51.086,4137.0,-1290.0,-988.0,-27.0,-997.0,-787.0,112,52,52,82,59,451,415,478
2025-02-20 16:11:51.105,5559.0,-4564.0,3180.0,271.0,-609.0,-383.0,115,54,53,86,62,505,458,486
2025-02-20 16:11:51.126,4552.0,-4395.0,3282.0,232.0,120.0,65.0,118,52,54,87,57,451,508,481
2025-02-20 16:11:51.140,1116.0,-527.0,1429.0,-18.0,244.0,87.0,116,55,55,84,52,270,533,465
2025-02-20 16:11:51.163,385.0,-1189.0,869.0,-232.0,47.0,124.0,117,51,55,85,49,229,523,450
2025-02-20 16:11:51.180,307.0,-1806.0,648.0,-281.0,34.0,139.0,116,49,55,84,50,347,503,459
2025-02-20 16:11:51.200,221.0,-1867.0,514.0,-129.0,70.0,153.0,116,49,55,85,51,460,465,465
2025-02-20 16:11:51.220,150.0,-1343.0,632.0,-47.0,155.0,189.0,119,51,57,87,52,436,485,474
2025-02-20 16:11:51.237,28.0,-803.0,536.0,-38.0,177.0,183.0,120,55,57,87,54,620,485,493
2025-02-20 16:11:51.256,-141.0,-561.0,324.0,-37.0,150.0,125.0,121,59,57,86,57,599,506,479
2025-02-20 16:11:51.277,-100.0,-814.0,344.0,-37.0,123.0,107.0,121,58,57,81,60,539,467,465
2025-02-20 16:11:51.294,-44.0,-821.0,356.0,-36.0,145.0,139.0,122,59,58,81,63,498,425,466
2025-02-20 16:11:51.314,-76.0,-678.0,369.0,-43.0,159.0,184.0,124,58,58,84,64,536,475,479
2025-02-20 16:11:51.333,-291.0,-494.0,165.0,-58.0,146.0,210.0,124,59,58,84,64,526,484,499
2025-02-20 16:11:51.352,-397.0,-261.0,99.0,-66.0,93.0,204.0,126,60,59,83,63,410,453,490
2025-02-20 16:11:51.370,-285.0,-174.0,254.0,-75.0,77.0,194.0,126,61,60,85,63,429,450,471
2025-02-20 16:11:51.386,-260.0,-198.0,249.0,-83.0,91.0,202.0,126,59,62,87,62,479,444,466
2025-02-20 16:11:51.407,-620.0,77.0,-53.0,-50.0,91.0,216.0,127,59,64,89,62,580,455,470
2025-02-20 16:11:51.429,-832.0,641.0,-373.0,43.0,51.0,221.0,127,59,64,90,62,599,456,466
2025-02-20 16:11:51.443,-1157.0,1523.0,-1061.0,226.0,9.0,-9.0,124,59,62,89,61,618,454,464
2025-02-20 16:11:51.465,-1555.0,2373.0,-1614.0,403.0,-113.0,-302.0,122,62,63,85,60,598,440,462
2025-02-20 16:11:51.486,-1291.0,1862.0,-1714.0,330.0,-511.0,-546.0,122,59,61,81,60,529,444,464
2025-02-20 16:11:51.503,1466.0,610.0,-1179.0,272.0,-871.0,-612.0,124,59,61,80,63,497,456,471
2025-02-20 16:11:51.522,4233.0,-2518.0,1880.0,360.0,-870.0,-385.0,129,59,60,86,67,514,456,471
2025-02-20 16:11:51.543,3858.0,-3466.0,4418.0,356.0,-131.0,43.0,132,62,63,88,68,616,469,484
2025-02-20 16:11:51.560,1680.0,-391.0,3132.0,94.0,194.0,55.0,135,62,62,87,64,448,510,483
2025-02-20 16:11:51.581,413.0,-962.0,2145.0,-106.0,157.0,20.0,135,62,63,85,58,278,531,475
2025-02-20 16:11:51.600,370.0,-1243.0,1242.0,-218.0,181.0,89.0,136,60,63,89,57,299,537,436
2025-02-20 16:11:51.617,309.0,-1329.0,845.0,-202.0,211.0,112.0,136,59,67,91,59,414,480,404
2025-02-20 16:11:51.638,187.0,-1462.0,741.0,-77.0,242.0,154.0,137,63,69,93,62,437,448,415
2025-02-20 16:11:51.654,165.0,-1220.0,381.0,-24.0,319.0,196.0,138,67,70,93,63,507,427,471
2025-02-20 16:11:51.674,8.0,-721.0,437.0,34.0,293.0,220.0,137,79,66,92,66,572,446,496
2025-02-20 16:11:51.695,-291.0,-440.0,452.0,62.0,266.0,201.0,137,92,63,92,67,583,459,495
2025-02-20 16:11:51.712,-276.0,-387.0,351.0,84.0,258.0,181.0,137,100,60,91,69,508,469,472
2025-02-20 16:11:51.732,-332.0,-454.0,250.0,78.0,270.0,204.0,138,107,62,91,70,387,449,468
2025-02-20 16:11:51.752,-559.0,-257.0,37.0,92.0,236.0,234.0,139,109,62,90,72,380,437,468
2025-02-20 16:11:51.769,-635.0,-59.0,-95.0,131.0,189.0,217.0,136,113,64,88,71,444,424,469
2025-02-20 16:11:51.788,-905.0,189.0,-341.0,182.0,132.0,143.0,130,112,59,87,71,501,446,476
2025-02-20 16:11:51.804,-1216.0,631.0,-815.0,178.0,-19.0,39.0,127,111,57,85,70,454,468,467
2025-02-20 16:11:51.825,-1341.0,948.0,-837.0,176.0,-187.0,-80.0,114,111,55,79,66,438,476,456
2025-02-20 16:11:51.847,-1508.0,1024.0,-1640.0,179.0,-493.0,-222.0,96,111,54,74,62,485,467,441
2025-02-20 16:11:51.860,-92.0,570.0,-2532.0,198.0,-864.0,-264.0,84,112,54,71,61,541,459,445
2025-02-20 16:11:51.883,2329.0,155.0,-1721.0,231.0,-1090.0,-137.0,85,112,54,72,63,525,463,456
2025-02-20 16:11:51.903,2425.0,-275.0,193.0,248.0,-1056.0,-45.0,90,112,54,74,65,481,439,463
2025-02-20 16:11:51.921,3067.0,-424.0,2026.0,300.0,-779.0,39.0,100,113,53,75,68,511,425,445
2025-02-20 16:11:51.940,2813.0,574.0,3318.0,244.0,-425.0,20.0,112,115,54,78,70,403,452,450
2025-02-20 16:11:51.959,2482.0,611.0,3968.0,88.0,-56.0,13.0,118,115,55,79,71,379,495,472
2025-02-20 16:11:51.978,1884.0,640.0,3272.0,-104.0,292.0,1.0,120,116,56,80,70,394,527,473
2025-02-20 16:11:51.998,1404.0,290.0,1857.0,-219.0,432.0,11.0,120,116,56,81,70,341,517,464
2025-02-20 16:11:52.018,979.0,154.0,1110.0,-237.0,471.0,-8.0,117,115,56,80,72,482,497,455
2025-02-20 16:11:52.031,636.0,-350.0,629.0,-208.0,451.0,-22.0,113,114,56,82,72,510,466,466
2025-02-20 16:11:52.056,458.0,-447.0,664.0,-160.0,399.0,-7.0,109,114,57,83,71,555,476,499
2025-02-20 16:11:52.073,438.0,-332.0,801.0,-145.0,388.0,30.0,112,115,56,83,72,545,508,486
2025-02-20 16:11:52.091,89.0,-354.0,525.0,-151.0,376.0,71.0,109,114,55,83,73,527,523,464
2025-02-20 16:11:52.108,-258.0,-163.0,377.0,-142.0,296.0,93.0,108,115,56,83,72,368,493,442
2025-02-20 16:11:52.129,-172.0,-69.0,364.0,-120.0,236.0,65.0,109,115,57,83,72,379,499,459
2025-02-20 16:11:52.150,-200.0,-107.0,535.0,-124.0,244.0,43.0,110,115,57,83,73,512,469,463
2025-02-20 16:11:52.170,-435.0,-267.0,307.0,-92.0,232.0,49.0,111,115,57,83,73,507,439,466
2025-02-20 16:11:52.187,-408.0,-401.0,237.0,-33.0,198.0,76.0,111,116,56,83,72,464,478,467
2025-02-20 16:11:52.207,-465.0,-283.0,175.0,-15.0,157.0,104.0,109,116,57,84,72,427,494,458
2025-02-20 16:11:52.225,-418.0,-52.0,191.0,-26.0,138.0,111.0,110,115,57,83,72,480,473,456
2025-02-20 16:11:52.241,-618.0,12.0,10.0,-38.0,97.0,111.0,110,115,57,84,72,506,443,461
2025-02-20 16:11:52.265,-902.0,284.0,-648.0,-23.0,6.0,73.0,104,115,57,82,71,530,409,465
2025-02-20 16:11:52.284,-1660.0,651.0,-1701.0,92.0,-208.0,-114.0,97,113,55,79,66,602,387,461
2025-02-20 16:11:52.301,-1503.0,856.0,-2829.0,275.0,-656.0,-248.0,89,112,55,78,63,583,412,459
2025-02-20 16:11:52.321,1011.0,825.0,-2305.0,280.0,-982.0,-209.0,88,112,56,78,64,440,440,486
2025-02-20 16:11:52.339,2638.0,364.0,-572.0,212.0,-1054.0,-152.0,93,114,57,79,66,438,451,470
2025-02-20 16:11:52.359,3282.0,-730.0,1208.0,248.0,-919.0,-89.0,103,117,55,80,69,396,443,452
2025-02-20 16:11:52.379,3666.0,-555.0,3119.0,363.0,-514.0,15.0,116,118,55,81,73,394,394,445
2025-02-20 16:11:52.396,2907.0,619.0,4423.0,206.0,-131.0,31.0,125,120,57,85,74,406,423,452
2025-02-20 16:11:52.416,2307.0,522.0,3580.0,-102.0,220.0,49.0,130,119,60,89,75,381,496,462
2025-02-20 16:11:52.436,1545.0,356.0,2308.0,-334.0,436.0,83.0,132,121,66,94,75,351,550,471
2025-02-20 16:11:52.453,1210.0,184.0,1485.0,-397.0,524.0,111.0,132,119,70,95,78,427,553,462
2025-02-20 16:11:52.474,979.0,-280.0,908.0,-347.0,512.0,144.0,132,118,72,97,86,594,529,460
2025-02-20 16:11:52.494,795.0,-562.0,890.0,-255.0,508.0,178.0,131,120,73,100,94,620,521,492
2025-02-20 16:11:52.511,442.0,-463.0,583.0,-189.0,468.0,195.0,131,119,79,105,100,642,483,483
2025-02-20 16:11:52.531,170.0,-370.0,436.0,-151.0,428.0,196.0,131,120,85,112,104,573,430,461
2025-02-20 16:11:52.545,-141.0,-291.0,350.0,-182.0,386.0,203.0,130,118,87,116,106,507,382,459
2025-02-20 16:11:52.567,-171.0,-262.0,358.0,-143.0,347.0,204.0,131,118,88,119,107,484,371,444
2025-02-20 16:11:52.588,-319.0,-337.0,336.0,-123.0,318.0,191.0,129,112,89,121,108,431,388,443
2025-02-20 16:11:52.605,-527.0,-166.0,174.0,-142.0,303.0,161.0,128,111,90,122,109,414,401,454
2025-02-20 16:11:52.626,-564.0,126.0,-151.0,-48.0,256.0,146.0,126,112,91,123,110,386,406,463
2025-02-20 16:11:52.645,-532.0,474.0,-308.0,22.0,211.0,101.0,125,111,94,123,112,392,432,466
2025-02-20 16:11:52.663,-711.0,770.0,-644.0,88.0,148.0,41.0,122,110,93,125,113,428,460,468
2025-02-20 16:11:52.682,-1279.0,1289.0,-1282.0,138.0,-8.0,-78.0,120,111,94,125,114,464,469,467
2025-02-20 16:11:52.702,-1419.0,1701.0,-1780.0,150.0,-274.0,-243.0,121,112,94,124,119,474,476,468
2025-02-20 16:11:52.720,-1053.0,1523.0,-1423.0,102.0,-425.0,-458.0,121,117,96,126,124,478,481,483
2025-02-20 16:11:52.740,-61.0,1303.0,-1333.0,-47.0,-663.0,-661.0,124,121,99,126,131,450,474,489
2025-02-20 16:11:52.760,1912.0,393.0,-565.0,-73.0,-1029.0,-691.0,123,124,101,131,133,435,480,495
2025-02-20 16:11:52.777,3734.0,-1959.0,783.0,-114.0,-1050.0,-410.0,122,127,103,138,134,450,496,499
2025-02-20 16:11:52.796,3346.0,-3059.0,1149.0,-177.0,-607.0,-194.0,123,128,106,133,135,447,513,486
2025-02-20 16:11:52.817,3104.0,-3542.0,1373.0,-21.0,-161.0,126.0,123,130,106,133,136,413,536,478
2025-02-20 16:11:52.834,2042.0,-2173.0,1118.0,-24.0,65.0,162.0,127,129,106,134,136,276,544,454
2025-02-20 16:11:52.854,935.0,-1452.0,996.0,-18.0,142.0,116.0,128,126,105,134,135,270,525,440
2025-02-20 16:11:52.870,320.0,-1033.0,875.0,-98.0,166.0,149.0,129,124,105,133,135,385,537,450
2025-02-20 16:11:52.891,121.0,-936.0,434.0,-32.0,100.0,205.0,129,122,104,133,135,599,514,454
2025-02-20 16:11:52.911,50.0,-1067.0,648.0,11.0,111.0,241.0,128,123,104,134,135,587,420,469
2025-02-20 16:11:52.928,195.0,-939.0,830.0,130.0,215.0,228.0,129,123,104,134,135,599,349,466
2025-02-20 16:11:52.947,252.0,-931.0,569.0,81.0,269.0,176.0,128,124,105,134,135,626,439,471
2025-02-20 16:11:52.969,93.0,-726.0,524.0,122.0,294.0,158.0,128,126,106,134,136,533,476,462
2025-02-20 16:11:52.986,-106.0,-589.0,414.0,62.0,347.0,165.0,126,128,105,134,136,472,475,450
2025-02-20 16:11:53.005,-163.0,-388.0,331.0,66.0,288.0,184.0,128,127,105,134,136,464,493,459
2025-02-20 16:11:53.022,-190.0,-383.0,291.0,37.0,271.0,201.0,127,129,106,134,136,561,460,472
2025-02-20 16:11:53.043,-354.0,-336.0,260.0,37.0,233.0,220.0,126,128,104,134,135,535,462,475
2025-02-20 16:11:53.063,-405.0,21.0,164.0,-2.0,156.0,205.0,127,128,105,133,136,526,480,462
2025-02-20 16:11:53.079,-565.0,221.0,179.0,-14.0,120.0,158.0,127,125,105,133,134,497,533,450
2025-02-20 16:11:53.100,-595.0,371.0,-4.0,26.0,78.0,140.0,126,121,104,132,134,475,516,449
2025-02-20 16:11:53.120,-850.0,1053.0,-505.0,115.0,52.0,80.0,124,118,108,132,134,503,475,453
2025-02-20 16:11:53.138,-1699.0,1582.0,-1036.0,151.0,-95.0,-169.0,125,118,104,132,134,496,452,464
2025-02-20 16:11:53.158,-1496.0,2165.0,-1036.0,216.0,-262.0,-476.0,126,120,106,132,135,431,449,464
2025-02-20 16:11:53.168,-202.0,1466.0,-762.0,192.0,-361.0,-706.0,126,124,106,133,135,362,437,456
2025-02-20 16:11:53.194,1537.0,-358.0,294.0,-12.0,-696.0,-719.0,120,128,106,134,136,370,403,465
2025-02-20 16:11:53.215,3483.0,-2511.0,1000.0,19.0,-692.0,-463.0,113,130,108,134,136,441,384,463
2025-02-20 16:11:53.231,3583.0,-2731.0,2284.0,-42.0,-351.0,-199.0,114,131,108,137,136,455,414,459
2025-02-20 16:11:53.248,2767.0,-3582.0,1908.0,-13.0,13.0,76.0,118,131,107,134,134,363,449,449
2025-02-20 16:11:53.272,1622.0,-2194.0,1604.0,17.0,106.0,152.0,121,129,106,134,130,316,477,444
2025-02-20 16:11:53.289,549.0,-1068.0,1142.0,-183.0,109.0,147.0,123,127,102,132,123,295,471,445
2025-02-20 16:11:53.308,96.0,-883.0,725.0,-102.0,123.0,159.0,123,124,101,130,116,388,478,453
2025-02-20 16:11:53.329,-210.0,-982.0,451.0,-53.0,76.0,151.0,124,122,100,129,116,582,488,487
2025-02-20 16:11:53.347,-40.0,-998.0,394.0,-29.0,93.0,141.0,124,122,98,129,116,607,476,493
2025-02-20 16:11:53.364,163.0,-1066.0,684.0,-1.0,175.0,144.0,126,123,97,127,116,576,445,491
2025-02-20 16:11:53.380,198.0,-926.0,680.0,29.0,259.0,151.0,126,126,95,124,114,472,419,469
2025-02-20 16:11:53.405,58.0,-733.0,699.0,49.0,272.0,164.0,126,126,90,121,110,428,389,454
2025-02-20 16:11:53.424,-123.0,-576.0,378.0,-7.0,314.0,183.0,127,128,86,118,108,383,374,447
2025-02-20 16:11:53.440,-263.0,-403.0,239.0,10.0,261.0,203.0,128,126,81,115,103,367,424,448
2025-02-20 16:11:53.461,-249.0,-345.0,140.0,54.0,253.0,220.0,129,124,74,111,99,459,462,461
2025-02-20 16:11:53.481,-395.0,-299.0,45.0,83.0,236.0,240.0,129,121,70,106,93,525,449,480
2025-02-20 16:11:53.497,-464.0,-76.0,-41.0,104.0,218.0,261.0,130,120,65,101,87,501,458,480
2025-02-20 16:11:53.518,-625.0,28.0,-486.0,203.0,169.0,239.0,128,117,57,92,76,511,482,477
2025-02-20 16:11:53.538,-1338.0,171.0,-1163.0,315.0,51.0,89.0,127,110,52,79,65,531,490,470
2025-02-20 16:11:53.555,-1897.0,639.0,-1557.0,461.0,-273.0,-86.0,120,109,47,66,57,454,489,457
2025-02-20 16:11:53.575,-1244.0,2014.0,-2308.0,388.0,-722.0,-253.0,106,112,46,63,55,457,480,456
2025-02-20 16:11:53.595,3276.0,-212.0,-1852.0,166.0,-1143.0,-228.0,94,117,47,66,57,591,468,460
2025-02-20 16:11:53.612,3690.0,-1656.0,431.0,266.0,-1108.0,-66.0,98,118,45,68,58,605,442,448
2025-02-20 16:11:53.633,3152.0,-85.0,1975.0,383.0,-778.0,23.0,109,120,45,66,61,553,427,451
2025-02-20 16:11:53.649,2857.0,194.0,3331.0,307.0,-423.0,38.0,117,121,47,69,63,350,494,440
2025-02-20 16:11:53.666,1914.0,564.0,3332.0,164.0,-112.0,40.0,120,120,47,70,64,256,532,445
2025-02-20 16:11:53.690,1367.0,503.0,2967.0,-83.0,168.0,33.0,120,121,49,73,65,293,559,453
2025-02-20 16:11:53.707,1162.0,104.0,1963.0,-198.0,324.0,34.0,120,120,48,72,64,310,549,452
2025-02-20 16:11:53.727,903.0,-242.0,1254.0,-225.0,406.0,41.0,120,118,49,72,65,342,540,424
2025-02-20 16:11:53.747,598.0,475.0,899.0,-192.0,409.0,42.0,120,117,49,74,67,526,494,451
2025-02-20 16:11:53.764,393.0,-450.0,756.0,-135.0,378.0,36.0,118,117,49,75,68,554,437,493
2025-02-20 16:11:53.784,329.0,-556.0,701.0,-108.0,341.0,59.0,115,117,48,76,68,599,485,492
2025-02-20 16:11:53.804,165.0,-373.0,747.0,-95.0,312.0,83.0,114,119,50,76,69,589,517,467
2025-02-20 16:11:53.822,14.0,-228.0,692.0,-141.0,298.0,116.0,116,118,50,77,68,470,502,448
2025-02-20 16:11:53.841,-206.0,-165.0,518.0,-170.0,274.0,128.0,120,118,52,77,70,461,490,444
2025-02-20 16:11:53.862,-256.0,-297.0,468.0,-152.0,242.0,137.0,122,119,51,79,70,527,470,455
2025-02-20 16:11:53.879,-314.0,-406.0,437.0,-113.0,216.0,142.0,122,119,52,79,70,485,464,458
2025-02-20 16:11:53.898,-265.0,-338.0,433.0,-61.0,205.0,145.0,124,119,54,81,71,442,451,464
2025-02-20 16:11:53.915,-330.0,-200.0,348.0,-20.0,204.0,132.0,124,118,53,81,71,386,458,464
2025-02-20 16:11:53.936,-560.0,-51.0,208.0,0.0,174.0,101.0,125,117,54,82,72,426,451,462
2025-02-20 16:11:53.952,-584.0,45.0,100.0,26.0,129.0,75.0,126,116,54,81,72,503,438,464
2025-02-20 16:11:53.973,-696.0,469.0,-234.0,12.0,85.0,43.0,125,114,54,82,72,521,419,468
2025-02-20 16:11:53.993,-1347.0,1072.0,-1120.0,9.0,-66.0,-110.0,123,113,53,80,69,549,402,474
2025-02-20 16:11:54.014,-1890.0,1068.0,-2058.0,180.0,-344.0,-302.0,112,112,51,77,63,535,437,460
2025-02-20 16:11:54.030,-250.0,835.0,-1879.0,241.0,-722.0,-362.0,106,112,52,77,63,486,448,457
2025-02-20 16:11:54.049,1561.0,123.0,-642.0,222.0,-860.0,-277.0,105,115,51,77,66,417,440,474
2025-02-20 16:11:54.071,2529.0,-931.0,885.0,280.0,-842.0,-176.0,117,117,51,78,70,344,416,481
2025-02-20 16:11:54.087,2734.0,-786.0,2235.0,348.0,-590.0,-43.0,124,120,53,79,70,310,411,473
2025-02-20 16:11:54.108,2577.0,-264.0,3225.0,305.0,-304.0,54.0,128,121,54,80,72,360,424,465
2025-02-20 16:11:54.125,1859.0,217.0,3470.0,98.0,-26.0,70.0,132,122,57,82,71,371,444,458
2025-02-20 16:11:54.138,1318.0,-38.0,2679.0,-111.0,165.0,89.0,135,122,64,86,71,372,472,463
2025-02-20 16:11:54.165,905.0,-360.0,1842.0,-198.0,275.0,120.0,136,121,69,90,75,414,499,463
2025-02-20 16:11:54.182,725.0,-517.0,1510.0,-169.0,331.0,142.0,136,121,73,92,77,486,497,457
2025-02-20 16:11:54.201,568.0,-461.0,1277.0,-149.0,363.0,151.0,135,122,73,92,78,557,481,453
2025-02-20 16:11:54.216,551.0,-249.0,1102.0,-157.0,388.0,164.0,136,122,74,92,78,509,480,471
2025-02-20 16:11:54.239,360.0,-221.0,910.0,-142.0,402.0,156.0,135,121,78,91,78,468,443,474
2025-02-20 16:11:54.259,219.0,-223.0,857.0,-141.0,426.0,161.0,135,121,79,92,78,454,394,466
2025-02-20 16:11:54.279,21.0,-194.0,725.0,-138.0,435.0,172.0,136,120,81,94,76,493,352,457
2025-02-20 16:11:54.297,-52.0,-73.0,521.0,-106.0,452.0,173.0,136,117,83,95,74,525,377,461
2025-02-20 16:11:54.317,-265.0,-94.0,239.0,-55.0,439.0,154.0,133,117,83,95,73,521,426,462
2025-02-20 16:11:54.334,-603.0,-79.0,-48.0,-1.0,370.0,114.0,136,116,83,94,72,471,466,457
2025-02-20 16:11:54.352,-632.0,51.0,-172.0,61.0,297.0,72.0,135,116,82,95,71,441,476,464
2025-02-20 16:11:54.374,-590.0,280.0,-145.0,81.0,258.0,38.0,135,117,83,92,72,426,485,462
2025-02-20 16:11:54.388,-591.0,528.0,-365.0,79.0,212.0,1.0,135,118,84,92,72,433,494,457
2025-02-20 16:11:54.411,-754.0,720.0,-872.0,108.0,143.0,-52.0,136,119,84,90,72,420,495,440
2025-02-20 16:11:54.430,-1215.0,922.0,-1386.0,114.0,-15.0,-171.0,135,120,85,88,69,429,492,441
2025-02-20 16:11:54.448,-1434.0,1351.0,-1746.0,124.0,-279.0,-336.0,134,123,89,87,66,444,485,451
2025-02-20 16:11:54.467,-969.0,1386.0,-1512.0,97.0,-514.0,-526.0,133,124,91,89,66,457,475,470
2025-02-20 16:11:54.489,-28.0,1159.0,-1262.0,-47.0,-836.0,-608.0,132,126,93,92,69,471,475,471
2025-02-20 16:11:54.504,2408.0,408.0,-570.0,-160.0,-996.0,-612.0,129,128,97,93,70,485,470,481
2025-02-20 16:11:54.526,3144.0,-2911.0,951.0,-85.0,-859.0,-326.0,127,130,100,93,70,496,452,488
2025-02-20 16:11:54.546,3385.0,-3616.0,1722.0,77.0,-453.0,-20.0,129,131,101,94,70,452,495,481
2025-02-20 16:11:54.563,2614.0,-1939.0,1734.0,104.0,-137.0,89.0,130,131,102,96,70,319,518,477
2025-02-20 16:11:54.583,1336.0,-1292.0,1996.0,0.0,84.0,73.0,133,131,101,98,66,228,480,455
2025-02-20 16:11:54.600,716.0,-1211.0,1211.0,-57.0,130.0,82.0,133,131,104,99,62,302,454,432
2025-02-20 16:11:54.620,401.0,-1148.0,1021.0,-88.0,155.0,116.0,134,129,105,99,63,396,452,441
2025-02-20 16:11:54.640,453.0,-1030.0,804.0,-83.0,195.0,136.0,133,129,103,98,65,637,419,458
2025-02-20 16:11:54.655,273.0,-1159.0,700.0,-62.0,239.0,160.0,132,130,104,93,68,726,389,472
2025-02-20 16:11:54.677,291.0,-1079.0,567.0,0.0,266.0,181.0,129,130,105,93,69,677,419,473
2025-02-20 16:11:54.697,169.0,-939.0,534.0,37.0,299.0,209.0,130,132,104,92,69,552,461,452
2025-02-20 16:11:54.715,55.0,-621.0,405.0,50.0,303.0,223.0,127,132,104,93,71,527,448,446
2025-02-20 16:11:54.733,-79.0,-354.0,282.0,30.0,292.0,247.0,130,132,107,92,71,402,462,450
2025-02-20 16:11:54.755,-292.0,-238.0,241.0,14.0,255.0,251.0,128,130,106,92,71,413,493,459
2025-02-20 16:11:54.769,-478.0,-112.0,228.0,1.0,228.0,241.0,128,131,105,92,70,477,489,469
2025-02-20 16:11:54.791,-592.0,-2.0,155.0,-4.0,190.0,226.0,130,131,106,94,69,480,520,471
2025-02-20 16:11:54.809,-716.0,364.0,-45.0,-8.0,142.0,197.0,129,130,105,94,68,479,524,467
2025-02-20 16:11:54.829,-1017.0,923.0,-604.0,-3.0,50.0,84.0,130,129,105,93,68,420,522,470
2025-02-20 16:11:54.849,-1339.0,1201.0,-768.0,83.0,-98.0,-108.0,130,129,106,91,68,409,511,460
2025-02-20 16:11:54.866,-1174.0,1713.0,-838.0,99.0,-205.0,-322.0,128,131,106,90,65,424,489,463
2025-02-20 16:11:54.886,-1093.0,1252.0,-886.0,68.0,-404.0,-449.0,121,131,106,87,63,397,432,468
2025-02-20 16:11:54.906,164.0,1045.0,-627.0,58.0,-598.0,-530.0,115,132,107,87,65,408,393,475
2025-02-20 16:11:54.919,1847.0,156.0,-2.0,-46.0,-722.0,-546.0,110,132,108,84,67,413,372,475
2025-02-20 16:11:54.943,2736.0,-2598.0,1160.0,50.0,-622.0,-380.0,113,133,108,85,67,454,372,485
2025-02-20 16:11:54.964,2941.0,-2725.0,1974.0,104.0,-304.0,-115.0,115,133,107,86,68,460,396,479
2025-02-20 16:11:54.981,2257.0,-2405.0,2100.0,101.0,37.0,62.0,119,134,107,89,67,349,437,471
2025-02-20 16:11:55.001,1407.0,-1382.0,1624.0,38.0,133.0,107.0,122,133,107,92,64,279,474,473
2025-02-20 16:11:55.018,651.0,-1039.0,1283.0,-43.0,130.0,93.0,124,130,105,96,64,346,496,477
2025-02-20 16:11:55.037,400.0,-1194.0,1061.0,-75.0,155.0,96.0,129,130,104,98,66,462,481,469
2025-02-20 16:11:55.058,494.0,-1300.0,990.0,-46.0,241.0,128.0,129,130,102,100,69,613,451,492
2025-02-20 16:11:55.074,426.0,-1206.0,1042.0,18.0,310.0,150.0,132,131,99,100,71,582,458,493
2025-02-20 16:11:55.095,239.0,-929.0,869.0,50.0,351.0,165.0,133,130,90,100,73,531,467,487
2025-02-20 16:11:55.115,44.0,-786.0,882.0,42.0,375.0,176.0,134,130,76,100,74,505,472,467
2025-02-20 16:11:55.132,-39.0,-535.0,670.0,32.0,385.0,184.0,134,129,62,100,74,449,459,465
2025-02-20 16:11:55.152,31.0,-417.0,352.0,24.0,387.0,216.0,134,127,55,95,72,436,436,462
2025-02-20 16:11:55.173,-303.0,-312.0,219.0,34.0,364.0,244.0,134,120,53,93,70,448,451,469
2025-02-20 16:11:55.190,-344.0,-85.0,-52.0,31.0,322.0,251.0,132,118,52,93,69,424,463,485
2025-02-20 16:11:55.210,-581.0,54.0,-278.0,40.0,255.0,227.0,131,115,53,91,68,391,487,490
2025-02-20 16:11:55.227,-677.0,402.0,-619.0,62.0,158.0,163.0,126,110,52,87,66,377,501,486
2025-02-20 16:11:55.247,-1049.0,554.0,-972.0,101.0,18.0,56.0,118,104,52,84,65,404,508,482
2025-02-20 16:11:55.267,-1292.0,872.0,-1322.0,185.0,-144.0,-67.0,105,97,52,80,63,411,481,475
2025-02-20 16:11:55.284,-1372.0,990.0,-1840.0,229.0,-449.0,-211.0,90,96,50,75,60,444,461,472
2025-02-20 16:11:55.304,-245.0,652.0,-2095.0,212.0,-774.0,-231.0,83,103,50,74,60,467,451,471
2025-02-20 16:11:55.324,1778.0,121.0,-1399.0,234.0,-972.0,-168.0,81,108,51,76,63,467,454,480
2025-02-20 16:11:55.339,2722.0,-572.0,-177.0,312.0,-975.0,-85.0,84,111,50,77,65,469,439,484
2025-02-20 16:11:55.362,2569.0,-572.0,1704.0,393.0,-772.0,-8.0,92,114,48,76,67,465,449,474
2025-02-20 16:11:55.381,2568.0,532.0,2962.0,325.0,-462.0,39.0,101,116,50,78,70,382,476,464
2025-02-20 16:11:55.398,2268.0,751.0,3655.0,141.0,-195.0,21.0,108,117,50,81,69,385,496,465
2025-02-20 16:11:55.419,1881.0,380.0,3473.0,-21.0,120.0,22.0,112,118,53,82,69,398,506,470
2025-02-20 16:11:55.438,1390.0,355.0,2435.0,-167.0,299.0,25.0,112,117,52,82,70,439,499,473
2025-02-20 16:11:55.456,870.0,125.0,1543.0,-203.0,379.0,11.0,113,118,53,83,73,523,496,468
2025-02-20 16:11:55.475,638.0,-150.0,1036.0,-181.0,375.0,14.0,109,118,53,84,73,510,488,473
2025-02-20 16:11:55.492,384.0,-278.0,895.0,-160.0,329.0,28.0,106,115,53,84,74,502,487,480
2025-02-20 16:11:55.513,305.0,-236.0,964.0,-148.0,309.0,35.0,109,117,54,84,74,504,474,477
2025-02-20 16:11:55.533,131.0,-226.0,748.0,-143.0,296.0,60.0,107,118,54,84,74,500,461,467
2025-02-20 16:11:55.550,-41.0,-316.0,645.0,-126.0,260.0,101.0,105,117,54,85,74,465,462,479
2025-02-20 16:11:55.569,-59.0,-97.0,670.0,-120.0,231.0,114.0,104,119,54,86,72,432,477,470
2025-02-20 16:11:55.590,-186.0,-58.0,588.0,-124.0,218.0,95.0,105,119,54,84,72,500,481,471
2025-02-20 16:11:55.607,-229.0,-62.0,500.0,-151.0,225.0,94.0,108,119,55,84,72,546,479,473
2025-02-20 16:11:55.627,-346.0,-269.0,302.0,-102.0,207.0,96.0,107,120,55,84,73,493,483,471
2025-02-20 16:11:55.647,-417.0,-182.0,106.0,-36.0,157.0,95.0,108,120,55,86,73,459,463,477
2025-02-20 16:11:55.665,-473.0,176.0,-86.0,1.0,123.0,63.0,109,121,55,85,72,533,452,471
2025-02-20 16:11:55.685,-1105.0,645.0,-691.0,27.0,-5.0,-58.0,104,122,54,84,72,606,421,471
2025-02-20 16:11:55.705,-1519.0,672.0,-1350.0,121.0,-232.0,-182.0,96,123,51,82,68,551,391,468
2025-02-20 16:11:55.722,-906.0,225.0,-1849.0,203.0,-510.0,-205.0,89,124,50,79,66,558,386,476
2025-02-20 16:11:55.742,891.0,167.0,-1682.0,258.0,-814.0,-148.0,90,124,52,81,67,547,392,487
2025-02-20 16:11:55.758,1787.0,36.0,-144.0,261.0,-889.0,-130.0,95,125,53,81,70,523,406,481
2025-02-20 16:11:55.780,2435.0,-744.0,1180.0,253.0,-762.0,-64.0,106,127,52,83,73,527,434,476
2025-02-20 16:11:55.799,2840.0,-319.0,2724.0,325.0,-519.0,-4.0,115,129,53,86,77,525,452,451
2025-02-20 16:11:55.817,2460.0,496.0,3372.0,250.0,-194.0,16.0,122,129,57,92,82,506,474,449
2025-02-20 16:11:55.836,1895.0,505.0,3336.0,46.0,82.0,33.0,126,129,64,101,87,457,501,465
2025-02-20 16:11:55.854,1577.0,286.0,2536.0,-149.0,277.0,56.0,129,130,73,106,91,445,543,454
2025-02-20 16:11:55.873,1313.0,-128.0,1944.0,-223.0,431.0,101.0,132,129,76,109,93,480,551,452
2025-02-20 16:11:55.892,1182.0,-223.0,1384.0,-237.0,511.0,147.0,132,125,74,108,95,536,543,449
2025-02-20 16:11:55.913,926.0,-209.0,1106.0,-255.0,538.0,180.0,132,118,72,108,95,538,535,454
2025-02-20 16:11:55.927,734.0,-25.0,1186.0,-232.0,558.0,194.0,133,102,70,107,92,560,511,460
2025-02-20 16:11:55.950,520.0,333.0,861.0,-342.0,538.0,205.0,134,83,67,106,91,531,481,465
2025-02-20 16:11:55.968,203.0,-184.0,733.0,-303.0,515.0,177.0,135,73,64,102,84,512,450,481
2025-02-20 16:11:55.988,34.0,-163.0,458.0,-271.0,492.0,173.0,134,66,63,101,77,529,428,464
2025-02-20 16:11:56.007,-143.0,-39.0,194.0,-216.0,424.0,162.0,135,62,63,99,71,495,439,461
2025-02-20 16:11:56.024,-596.0,211.0,-259.0,-191.0,340.0,99.0,133,57,60,98,67,482,450,472
2025-02-20 16:11:56.045,-787.0,270.0,-468.0,-147.0,209.0,11.0,132,59,58,94,64,436,464,476
2025-02-20 16:11:56.066,-515.0,479.0,-461.0,-100.0,156.0,-15.0,131,59,53,90,64,401,469,479
2025-02-20 16:11:56.083,-704.0,894.0,-763.0,-48.0,79.0,-61.0,126,59,53,86,60,434,459,476
2025-02-20 16:11:56.103,-860.0,1572.0,-1221.0,63.0,-11.0,-167.0,118,60,52,83,57,455,442,465
2025-02-20 16:11:56.123,-1413.0,2707.0,-2189.0,143.0,-207.0,-425.0,110,57,52,78,53,456,431,454
2025-02-20 16:11:56.139,-728.0,2412.0,-2706.0,142.0,-574.0,-646.0,102,54,50,74,52,375,435,447
2025-02-20 16:11:56.160,1505.0,820.0,-2268.0,162.0,-926.0,-708.0,101,54,50,75,54,421,425,471
2025-02-20 16:11:56.180,5251.0,-1396.0,-295.0,237.0,-1020.0,-524.0,105,55,51,76,57,483,446,487
2025-02-20 16:11:56.197,4832.0,-4403.0,3492.0,548.0,-534.0,-268.0,113,57,51,79,59,572,485,491
2025-02-20 16:11:56.217,3099.0,-1310.0,3582.0,442.0,45.0,-91.0,113,56,51,74,54,537,515,472
2025-02-20 16:11:56.234,1249.0,-282.0,2860.0,-18.0,133.0,-26.0,113,56,53,76,50,427,524,461
2025-02-20 16:11:56.254,815.0,-977.0,1921.0,-278.0,112.0,136.0,114,53,53,78,51,432,515,444
2025-02-20 16:11:56.274,850.0,-1114.0,1353.0,-310.0,85.0,175.0,115,53,54,79,54,380,479,413
2025-02-20 16:11:56.291,491.0,-1243.0,1077.0,-260.0,152.0,173.0,114,55,55,83,57,552,443,451
2025-02-20 16:11:56.311,448.0,-1251.0,772.0,-180.0,223.0,161.0,116,60,53,83,59,599,397,510
2025-02-20 16:11:56.331,327.0,-834.0,593.0,-105.0,259.0,104.0,118,62,55,86,61,595,400,493
2025-02-20 16:11:56.349,246.0,-971.0,493.0,-69.0,274.0,77.0,118,62,55,85,62,582,433,484
2025-02-20 16:11:56.368,42.0,-896.0,307.0,-55.0,257.0,102.0,119,62,55,85,63,496,436,478
2025-02-20 16:11:56.386,-151.0,-795.0,270.0,-57.0,194.0,139.0,121,63,55,86,63,422,416,461
2025-02-20 16:11:56.405,-104.0,-622.0,356.0,-81.0,169.0,173.0,120,65,57,87,63,473,411,461
2025-02-20 16:11:56.425,-124.0,-541.0,430.0,-102.0,178.0,196.0,122,65,57,87,63,436,441,478
2025-02-20 16:11:56.443,-128.0,-429.0,371.0,-100.0,184.0,206.0,123,64,58,88,63,437,454,477
2025-02-20 16:11:56.460,-290.0,-366.0,143.0,-89.0,171.0,206.0,124,63,59,88,63,462,528,485
2025-02-20 16:11:56.484,-542.0,-98.0,-46.0,-57.0,125.0,209.0,124,63,60,87,64,492,548,481
2025-02-20 16:11:56.500,-634.0,215.0,-170.0,-18.0,83.0,196.0,124,68,61,89,64,505,514,469
2025-02-20 16:11:56.521,-933.0,894.0,-450.0,-9.0,37.0,126.0,121,68,61,89,65,442,462,464
2025-02-20 16:11:56.540,-1584.0,1593.0,-1136.0,182.0,-102.0,-115.0,116,67,61,84,64,366,446,456
2025-02-20 16:11:56.558,-1064.0,2181.0,-1444.0,302.0,-290.0,-375.0,112,66,60,82,63,416,449,459
2025-02-20 16:11:56.575,-158.0,1216.0,-1161.0,246.0,-546.0,-523.0,110,60,57,83,58,425,447,449
2025-02-20 16:11:56.597,1753.0,-459.0,-378.0,257.0,-760.0,-495.0,111,63,57,82,62,424,443,459
2025-02-20 16:11:56.615,3402.0,-2326.0,1336.0,368.0,-742.0,-317.0,118,63,56,86,64,437,423,472
2025-02-20 16:11:56.634,3203.0,-2742.0,3485.0,476.0,-230.0,-37.0,122,66,59,86,64,469,451,483
2025-02-20 16:11:56.652,1746.0,45.0,3252.0,220.0,98.0,-14.0,124,65,61,86,60,461,492,440
2025-02-20 16:11:56.672,728.0,-312.0,2544.0,-21.0,177.0,-19.0,125,64,61,88,57,480,520,433
2025-02-20 16:11:56.692,437.0,-616.0,1462.0,-135.0,202.0,44.0,126,63,62,90,58,434,543,419
2025-02-20 16:11:56.709,35.0,-569.0,1091.0,-98.0,192.0,30.0,127,62,61,91,62,467,540,437
2025-02-20 16:11:56.729,-44.0,-690.0,895.0,32.0,198.0,-7.0,128,65,64,91,64,643,509,461
2025-02-20 16:11:56.750,-135.0,-623.0,672.0,114.0,211.0,-39.0,129,68,60,90,66,622,487,488
2025-02-20 16:11:56.766,-304.0,-308.0,503.0,146.0,199.0,-62.0,130,69,59,91,69,559,503,498
2025-02-20 16:11:56.787,-338.0,-298.0,448.0,190.0,171.0,-94.0,130,68,60,91,71,395,505,492
2025-02-20 16:11:56.806,-345.0,-550.0,423.0,267.0,129.0,-102.0,130,67,59,91,72,343,508,481
2025-02-20 16:11:56.824,-160.0,-301.0,247.0,329.0,77.0,-103.0,130,67,56,92,72,273,489,474
2025-02-20 16:11:56.844,-158.0,-260.0,593.0,308.0,47.0,-113.0,133,65,58,91,72,318,427,469
2025-02-20 16:11:56.861,-39.0,-484.0,858.0,287.0,53.0,-98.0,134,65,58,90,72,356,409,465
2025-02-20 16:11:56.881,171.0,-781.0,890.0,267.0,58.0,-35.0,138,64,56,88,71,401,397,463
2025-02-20 16:11:56.901,486.0,-1128.0,1076.0,218.0,38.0,66.0,139,63,56,89,71,404,402,440
2025-02-20 16:11:56.918,879.0,-1432.0,1444.0,172.0,65.0,196.0,141,63,57,89,70,419,429,436
2025-02-20 16:11:56.938,1192.0,-1582.0,1446.0,84.0,125.0,439.0,143,62,55,88,69,430,452,439
2025-02-20 16:11:56.956,1208.0,-448.0,1270.0,-38.0,113.0,556.0,143,63,55,86,69,438,454,445
2025-02-20 16:11:56.976,777.0,498.0,1320.0,-175.0,67.0,523.0,144,62,55,84,69,431,441,445
2025-02-20 16:11:56.994,624.0,632.0,1422.0,-259.0,42.0,485.0,145,63,56,84,70,359,437,441
2025-02-20 16:11:57.015,329.0,1792.0,1367.0,-228.0,37.0,356.0,146,63,55,84,71,403,421,454
2025-02-20 16:11:57.030,150.0,2244.0,1389.0,-233.0,60.0,227.0,147,64,56,84,71,487,415,462
2025-02-20 16:11:57.053,9.0,2015.0,1503.0,-256.0,92.0,157.0,146,65,56,84,70,530,426,470
2025-02-20 16:11:57.070,-126.0,1681.0,1391.0,-188.0,129.0,59.0,150,64,57,82,70,498,468,474
2025-02-20 16:11:57.090,-231.0,1341.0,1250.0,-81.0,146.0,-23.0,148,64,58,83,70,467,489,498
2025-02-20 16:11:57.109,-312.0,1258.0,1026.0,-1.0,163.0,-110.0,149,65,58,83,70,451,472,519
2025-02-20 16:11:57.127,-304.0,883.0,717.0,40.0,133.0,-163.0,148,64,57,83,69,421,446,508
2025-02-20 16:11:57.145,-281.0,534.0,390.0,30.0,84.0,-183.0,146,64,57,82,67,427,451,478
2025-02-20 16:11:57.167,-362.0,322.0,378.0,32.0,12.0,-210.0,147,64,57,82,68,455,450,450
2025-02-20 16:11:57.183,-289.0,-19.0,512.0,81.0,-25.0,-249.0,147,64,57,81,69,432,440,439
2025-02-20 16:11:57.204,-190.0,-357.0,582.0,172.0,-53.0,-275.0,148,64,57,83,69,419,449,434
2025-02-20 16:11:57.225,-116.0,-408.0,816.0,252.0,-56.0,-256.0,147,64,57,82,68,414,451,433
2025-02-20 16:11:57.242,-94.0,-323.0,929.0,258.0,-49.0,-208.0,147,62,56,83,69,428,444,443
2025-02-20 16:11:57.261,-139.0,-75.0,1027.0,199.0,-44.0,-210.0,147,63,56,82,69,462,440,451
2025-02-20 16:11:57.278,-76.0,-288.0,1014.0,159.0,-47.0,-227.0,147,63,57,83,69,472,457,445
2025-02-20 16:11:57.298,54.0,-682.0,1019.0,129.0,-83.0,-193.0,147,62,56,83,69,462,491,438
2025-02-20 16:11:57.319,377.0,-1327.0,1257.0,132.0,-70.0,-76.0,147,63,56,83,69,441,496,435
2025-02-20 16:11:57.333,596.0,-1415.0,1637.0,67.0,-22.0,76.0,148,60,55,83,70,495,472,435
2025-02-20 16:11:57.356,644.0,-1416.0,1514.0,-70.0,-8.0,185.0,147,60,56,82,69,458,462,438
2025-02-20 16:11:57.376,845.0,-2075.0,1315.0,-106.0,-9.0,344.0,147,60,55,81,68,451,459,458
2025-02-20 16:11:57.393,998.0,-1414.0,1253.0,-133.0,13.0,464.0,148,60,54,81,66,449,482,480
2025-02-20 16:11:57.413,763.0,-317.0,1217.0,-172.0,13.0,471.0,148,61,54,81,66,433,499,478
2025-02-20 16:11:57.433,542.0,462.0,1117.0,-171.0,7.0,430.0,150,60,54,81,66,445,511,477
2025-02-20 16:11:57.448,283.0,1474.0,1157.0,-159.0,-19.0,364.0,147,62,54,79,65,489,523,475
2025-02-20 16:11:57.470,179.0,2036.0,1479.0,-154.0,26.0,251.0,148,62,54,80,65,486,496,471
2025-02-20 16:11:57.488,29.0,2058.0,1803.0,-83.0,54.0,142.0,148,63,55,79,66,494,460,465
2025-02-20 16:11:57.508,56.0,2024.0,2051.0,-32.0,104.0,40.0,148,63,56,79,67,507,420,465
2025-02-20 16:11:57.526,25.0,1726.0,1950.0,-4.0,181.0,-34.0,148,63,56,80,66,505,412,461
2025-02-20 16:11:57.544,46.0,985.0,1749.0,-5.0,234.0,-72.0,147,64,55,80,67,454,423,445
2025-02-20 16:11:57.565,103.0,369.0,1598.0,-55.0,293.0,-88.0,146,63,55,80,67,420,436,446
2025-02-20 16:11:57.585,32.0,-4.0,1292.0,-126.0,329.0,-94.0,146,64,55,80,67,448,432,454
2025-02-20 16:11:57.599,-42.0,-372.0,1036.0,-179.0,337.0,-91.0,148,64,57,79,68,500,439,457
2025-02-20 16:11:57.623,-120.0,-421.0,577.0,-199.0,362.0,-83.0,146,66,59,81,69,489,466,452
2025-02-20 16:11:57.642,-182.0,-547.0,318.0,-178.0,359.0,-68.0,144,66,59,85,70,494,441,458
2025-02-20 16:11:57.660,-401.0,-393.0,35.0,-145.0,350.0,-58.0,142,69,63,84,72,473,455,453
2025-02-20 16:11:57.680,-472.0,-310.0,-215.0,-78.0,296.0,-49.0,139,71,65,91,76,481,430,501
2025-02-20 16:11:57.700,-568.0,-100.0,-134.0,-14.0,214.0,-46.0,136,71,68,97,81,486,437,516
2025-02-20 16:11:57.716,-669.0,-13.0,-418.0,59.0,137.0,-43.0,134,75,71,104,87,469,449,500
2025-02-20 16:11:57.737,-816.0,410.0,-482.0,80.0,52.0,-69.0,134,81,76,110,91,479,464,481
2025-02-20 16:11:57.754,-836.0,582.0,-777.0,143.0,-42.0,-114.0,133,85,78,113,94,460,479,470
2025-02-20 16:11:57.774,-963.0,851.0,-837.0,170.0,-108.0,-206.0,131,91,80,116,101,434,458,461
2025-02-20 16:11:57.794,-860.0,1147.0,-898.0,170.0,-217.0,-376.0,130,96,86,118,113,440,466,469
2025-02-20 16:11:57.811,-671.0,810.0,-928.0,135.0,-322.0,-570.0,128,103,91,120,124,467,480,477
2025-02-20 16:11:57.831,520.0,504.0,-743.0,53.0,-497.0,-692.0,127,109,93,123,129,423,489,481
2025-02-20 16:11:57.852,1522.0,-207.0,138.0,-13.0,-692.0,-617.0,127,115,97,125,134,394,486,469
2025-02-20 16:11:57.868,2523.0,-2066.0,745.0,-91.0,-758.0,-372.0,129,118,99,129,133,469,499,458
2025-02-20 16:11:57.889,2676.0,-2961.0,1105.0,-105.0,-610.0,-74.0,129,119,101,129,134,442,515,455
2025-02-20 16:11:57.909,2768.0,-3309.0,1595.0,-18.0,-318.0,142.0,129,122,103,130,133,444,519,457
2025-02-20 16:11:57.926,2053.0,-2571.0,1471.0,18.0,-91.0,183.0,130,124,102,131,134,393,508,437
2025-02-20 16:11:57.946,1530.0,-1604.0,1108.0,-43.0,-18.0,92.0,132,120,103,130,134,365,504,423
2025-02-20 16:11:57.966,535.0,-1353.0,439.0,-134.0,62.0,158.0,133,117,101,131,133,430,515,429
2025-02-20 16:11:57.983,163.0,-870.0,507.0,-70.0,70.0,212.0,133,114,100,131,133,603,491,453
2025-02-20 16:11:58.003,94.0,-776.0,628.0,-14.0,102.0,213.0,132,115,100,131,133,612,454,463
2025-02-20 16:11:58.020,66.0,-941.0,505.0,56.0,145.0,198.0,132,113,102,130,134,594,427,464
2025-02-20 16:11:58.040,171.0,-1086.0,538.0,63.0,170.0,181.0,130,113,101,131,133,548,430,475
2025-02-20 16:11:58.060,205.0,-949.0,597.0,66.0,216.0,169.0,126,117,102,133,134,490,442,474
2025-02-20 16:11:58.078,95.0,-682.0,544.0,71.0,257.0,152.0,131,119,102,132,134,468,460,462
2025-02-20 16:11:58.097,26.0,-576.0,354.0,78.0,207.0,173.0,131,120,102,132,134,452,494,443
2025-02-20 16:11:58.118,51.0,-395.0,530.0,-19.0,218.0,189.0,131,120,102,132,135,466,494,434
2025-02-20 16:11:58.134,16.0,-534.0,638.0,-32.0,208.0,194.0,131,119,101,132,134,442,492,425
2025-02-20 16:11:58.154,-13.0,-196.0,457.0,-22.0,227.0,225.0,131,118,102,131,135,402,468,444
2025-02-20 16:11:58.175,-379.0,-84.0,415.0,-27.0,230.0,260.0,129,114,101,132,134,429,484,450
2025-02-20 16:11:58.192,-499.0,66.0,104.0,40.0,203.0,260.0,129,109,100,131,135,459,499,433
2025-02-20 16:11:58.211,-409.0,299.0,-167.0,161.0,200.0,214.0,127,105,100,131,133,493,491,439
2025-02-20 16:11:58.232,-1070.0,1633.0,-599.0,237.0,151.0,45.0,126,104,100,131,134,558,468,447
2025-02-20 16:11:58.250,-1770.0,2069.0,-1390.0,239.0,-73.0,-189.0,125,106,101,130,136,522,437,456
2025-02-20 16:11:58.270,-1457.0,1931.0,-1535.0,186.0,-307.0,-489.0,125,111,102,131,136,422,456,468
2025-02-20 16:11:58.285,-434.0,1184.0,-1142.0,68.0,-513.0,-647.0,125,116,102,131,138,440,454,483
2025-02-20 16:11:58.306,1967.0,-50.0,-739.0,-13.0,-784.0,-563.0,120,120,104,132,137,569,450,481
2025-02-20 16:11:58.326,3492.0,-2225.0,1333.0,-95.0,-865.0,-243.0,124,119,105,132,138,574,430,467
2025-02-20 16:11:58.343,3572.0,-3883.0,2786.0,-207.0,-411.0,-74.0,126,121,107,134,138,533,429,460
2025-02-20 16:11:58.364,2179.0,-3681.0,2093.0,61.0,57.0,16.0,130,121,104,134,138,455,421,456
2025-02-20 16:11:58.384,980.0,-2197.0,1428.0,80.0,81.0,33.0,132,114,104,134,138,263,416,451
2025-02-20 16:11:58.401,-3.0,-477.0,866.0,21.0,149.0,53.0,131,106,101,133,136,274,465,455
2025-02-20 16:11:58.418,-355.0,-381.0,560.0,-52.0,151.0,67.0,131,104,100,129,136,328,508,452
2025-02-20 16:11:58.435,-456.0,-809.0,507.0,-26.0,66.0,62.0,132,105,98,131,134,478,518,452
2025-02-20 16:11:58.458,-106.0,-851.0,509.0,9.0,60.0,43.0,132,105,100,131,134,563,485,485
2025-02-20 16:11:58.478,170.0,-873.0,558.0,60.0,62.0,18.0,132,111,99,132,132,521,454,477
2025-02-20 16:11:58.495,205.0,-843.0,684.0,123.0,69.0,-12.0,134,114,99,129,132,487,440,471
2025-02-20 16:11:58.515,46.0,-706.0,737.0,175.0,85.0,-28.0,133,114,99,127,130,378,423,464
2025-02-20 16:11:58.532,-51.0,-473.0,691.0,164.0,132.0,-42.0,133,111,95,125,123,342,423,461
2025-02-20 16:11:58.551,-196.0,-438.0,590.0,182.0,124.0,-37.0,133,107,92,119,108,369,446,478
2025-02-20 16:11:58.572,-171.0,-397.0,496.0,210.0,96.0,-40.0,133,104,87,115,97,463,469,483
2025-02-20 16:11:58.593,-177.0,-276.0,657.0,221.0,72.0,-58.0,134,101,85,114,87,492,465,480
2025-02-20 16:11:58.610,-195.0,-239.0,807.0,199.0,90.0,-95.0,134,94,79,112,78,462,459,481
2025-02-20 16:11:58.629,-127.0,-344.0,704.0,218.0,94.0,-125.0,134,88,75,110,71,469,490,477
2025-02-20 16:11:58.646,104.0,-768.0,665.0,297.0,102.0,-121.0,134,81,71,107,66,503,501,469
2025-02-20 16:11:58.667,758.0,-1579.0,1031.0,350.0,172.0,-41.0,135,73,66,102,58,476,494,460
2025-02-20 16:11:58.684,1263.0,-2019.0,1610.0,347.0,285.0,129.0,136,67,62,97,54,490,453,443
2025-02-20 16:11:58.702,1457.0,-1985.0,1972.0,182.0,351.0,366.0,138,59,58,85,52,460,430,426
2025-02-20 16:11:58.724,1415.0,-1200.0,1468.0,-76.0,313.0,546.0,140,55,55,76,50,439,432,416
2025-02-20 16:11:58.744,540.0,-266.0,927.0,-203.0,191.0,589.0,142,56,54,73,51,421,439,406
2025-02-20 16:11:58.761,240.0,82.0,1048.0,-170.0,131.0,526.0,141,54,55,73,53,446,426,414
2025-02-20 16:11:58.781,-210.0,1813.0,741.0,-61.0,128.0,376.0,144,56,56,73,54,452,437,436
2025-02-20 16:11:58.801,-605.0,3022.0,406.0,-110.0,109.0,159.0,144,55,55,74,54,434,444,454
2025-02-20 16:11:58.818,-716.0,2902.0,404.0,-224.0,57.0,41.0,145,55,55,74,56,365,486,457
2025-02-20 16:11:58.839,-710.0,2341.0,586.0,-145.0,-12.0,-79.0,146,56,56,76,55,378,491,466
2025-02-20 16:11:58.856,-378.0,1806.0,848.0,-54.0,-11.0,-169.0,145,57,57,76,56,378,473,472
2025-02-20 16:11:58.876,-450.0,1310.0,688.0,-21.0,-20.0,-225.0,145,59,58,77,57,361,454,472
2025-02-20 16:11:58.896,-307.0,561.0,618.0,-29.0,-72.0,-259.0,146,58,57,76,57,362,472,467
2025-02-20 16:11:58.913,-146.0,5.0,698.0,-27.0,-78.0,-281.0,146,60,58,76,58,420,513,484
2025-02-20 16:11:58.933,-94.0,-498.0,674.0,18.0,-74.0,-286.0,148,58,58,76,57,445,505,476
2025-02-20 16:11:58.951,-65.0,-693.0,743.0,102.0,-80.0,-241.0,146,59,57,77,58,463,494,462
2025-02-20 16:11:58.969,-228.0,-584.0,702.0,107.0,-106.0,-206.0,146,60,57,80,57,496,490,459
2025-02-20 16:11:58.990,-141.0,-502.0,702.0,93.0,-150.0,-214.0,146,60,58,78,59,517,482,467
2025-02-20 16:11:59.010,117.0,-969.0,1035.0,112.0,-145.0,-206.0,146,60,58,78,59,511,465,465
2025-02-20 16:11:59.027,398.0,-1281.0,1399.0,161.0,-37.0,-94.0,146,61,58,80,60,510,454,457
2025-02-20 16:11:59.048,213.0,-795.0,1302.0,146.0,22.0,-43.0,146,61,58,83,61,475,444,447
2025-02-20 16:11:59.065,194.0,-897.0,1147.0,59.0,6.0,12.0,146,59,58,81,61,454,434,444
2025-02-20 16:11:59.085,439.0,-1396.0,1240.0,-17.0,3.0,113.0,147,61,58,80,61,481,426,458
2025-02-20 16:11:59.105,651.0,-1708.0,1346.0,-23.0,42.0,238.0,146,60,58,80,61,501,434,478
2025-02-20 16:11:59.122,822.0,-1613.0,1192.0,-41.0,94.0,411.0,146,60,58,79,60,483,456,481
2025-02-20 16:11:59.140,381.0,-296.0,767.0,-155.0,52.0,443.0,145,61,58,81,61,486,481,482
2025-02-20 16:11:59.162,25.0,589.0,755.0,-227.0,-14.0,387.0,145,59,58,80,61,500,492,479
2025-02-20 16:11:59.179,-151.0,1226.0,890.0,-236.0,-67.0,312.0,146,59,55,80,62,466,487,472
2025-02-20 16:11:59.199,-161.0,1599.0,1458.0,-194.0,-52.0,203.0,145,58,59,80,62,473,465,472
2025-02-20 16:11:59.218,-100.0,1539.0,2165.0,-80.0,45.0,97.0,145,61,61,81,63,452,465,474
2025-02-20 16:11:59.237,-18.0,1015.0,2633.0,6.0,194.0,38.0,145,64,64,83,65,492,460,474
2025-02-20 16:11:59.257,-194.0,651.0,2362.0,20.0,310.0,-15.0,143,67,67,85,66,485,463,472
2025-02-20 16:11:59.277,-140.0,225.0,1923.0,-54.0,373.0,-49.0,143,69,69,86,67,451,453,465
2025-02-20 16:11:59.294,-279.0,-337.0,1340.0,-130.0,386.0,-57.0,142,71,71,87,65,479,437,464
2025-02-20 16:11:59.314,-756.0,220.0,788.0,-167.0,376.0,-73.0,141,78,73,84,65,514,434,463
2025-02-20 16:11:59.331,-695.0,-677.0,209.0,-174.0,322.0,-49.0,141,81,78,85,65,544,441,458
2025-02-20 16:11:59.351,-660.0,-503.0,64.0,-188.0,263.0,-16.0,142,89,82,84,65,507,451,431
2025-02-20 16:11:59.371,-645.0,-295.0,-15.0,-131.0,234.0,-8.0,141,95,82,86,66,483,446,435
2025-02-20 16:11:59.388,-403.0,-131.0,-83.0,-68.0,218.0,-2.0,143,96,83,88,68,446,447,492
2025-02-20 16:11:59.409,-557.0,-16.0,-292.0,18.0,208.0,17.0,141,100,85,89,69,439,434,498
2025-02-20 16:11:59.428,-714.0,286.0,-394.0,107.0,174.0,23.0,141,104,89,89,70,436,415,493
2025-02-20 16:11:59.445,-634.0,524.0,-424.0,184.0,124.0,3.0,140,107,90,89,71,451,412,497
2025-02-20 16:11:59.465,-522.0,856.0,-502.0,207.0,80.0,-50.0,139,110,95,88,72,466,440,483
2025-02-20 16:11:59.486,-559.0,952.0,-590.0,214.0,23.0,-123.0,140,111,98,87,71,431,465,465
2025-02-20 16:11:59.502,-788.0,966.0,-887.0,179.0,-76.0,-218.0,139,113,98,84,70,417,467,454
2025-02-20 16:11:59.523,-780.0,1220.0,-1033.0,179.0,-245.0,-373.0,136,115,101,84,67,398,461,438
2025-02-20 16:11:59.542,-656.0,1103.0,-1043.0,106.0,-430.0,-510.0,134,117,103,84,66,387,489,451
2025-02-20 16:11:59.560,86.0,347.0,-946.0,50.0,-646.0,-593.0,128,119,104,84,68,432,519,458
2025-02-20 16:11:59.580,1995.0,-54.0,-472.0,79.0,-808.0,-570.0,125,121,103,86,70,464,485,453
2025-02-20 16:11:59.597,3189.0,-2328.0,1077.0,31.0,-820.0,-407.0,123,125,105,88,70,470,474,453
2025-02-20 16:11:59.617,3475.0,-3029.0,2515.0,60.0,-403.0,-153.0,124,127,106,89,70,327,486,438
2025-02-20 16:11:59.636,3006.0,-2902.0,2506.0,85.0,-15.0,65.0,124,129,107,91,67,295,499,444
2025-02-20 16:11:59.654,1548.0,-1619.0,2076.0,29.0,147.0,132.0,126,129,108,92,61,327,527,459
2025-02-20 16:11:59.671,571.0,-1171.0,1394.0,-84.0,142.0,116.0,127,127,107,92,59,443,507,453
2025-02-20 16:11:59.694,390.0,-1275.0,1003.0,-104.0,144.0,138.0,127,128,108,92,61,599,458,451
2025-02-20 16:11:59.712,280.0,-1113.0,767.0,-75.0,161.0,151.0,129,127,107,93,63,668,452,450
2025-02-20 16:11:59.732,26.0,-945.0,681.0,-52.0,167.0,162.0,129,128,109,89,66,655,429,455
2025-02-20 16:11:59.752,-84.0,-819.0,531.0,-22.0,172.0,168.0,129,129,108,87,68,551,412,439
2025-02-20 16:11:59.769,-84.0,-621.0,468.0,-7.0,161.0,157.0,128,131,109,86,70,506,437,451
2025-02-20 16:11:59.788,-145.0,-457.0,411.0,-9.0,146.0,145.0,128,130,109,86,71,523,461,461
2025-02-20 16:11:59.806,-157.0,-368.0,466.0,-10.0,136.0,140.0,129,130,110,86,72,511,482,462
2025-02-20 16:11:59.824,-317.0,-291.0,473.0,-39.0,132.0,147.0,129,130,109,88,72,455,484,467
2025-02-20 16:11:59.846,-406.0,-248.0,458.0,-65.0,111.0,152.0,130,130,109,88,70,426,474,467
2025-02-20 16:11:59.863,-363.0,-130.0,465.0,-66.0,108.0,136.0,130,129,108,87,68,454,441,470
2025-02-20 16:11:59.883,-340.0,-60.0,488.0,-73.0,128.0,118.0,132,129,108,88,67,464,460,469
2025-02-20 16:11:59.903,-536.0,32.0,282.0,-50.0,133.0,112.0,133,129,109,88,66,481,465,466
2025-02-20 16:11:59.921,-819.0,180.0,-4.0,-1.0,94.0,68.0,133,128,110,87,67,480,446,459
2025-02-20 16:11:59.939,-1069.0,399.0,-420.0,73.0,16.0,-24.0,134,129,110,87,66,480,425,461
2025-02-20 16:11:59.961,-1146.0,1122.0,-715.0,147.0,-89.0,-165.0,134,130,109,86,67,476,419,465
2025-02-20 16:11:59.976,-1036.0,1518.0,-469.0,151.0,-168.0,-333.0,134,130,112,85,67,484,409,478
2025-02-20 16:11:59.998,-771.0,899.0,-353.0,116.0,-294.0,-481.0,129,131,112,84,66,479,406,473
2025-02-20 16:12:00.018,365.0,-50.0,-189.0,100.0,-509.0,-515.0,124,130,113,84,67,450,414,474
2025-02-20 16:12:00.035,1964.0,-1113.0,112.0,157.0,-650.0,-412.0,125,130,112,86,66,475,432,486
2025-02-20 16:12:00.055,2821.0,-1875.0,1882.0,27.0,-540.0,-204.0,127,130,113,87,69,478,485,488
2025-02-20 16:12:00.072,2955.0,-2691.0,2202.0,-20.0,-191.0,-35.0,131,131,112,89,70,421,522,481
2025-02-20 16:12:00.092,2204.0,-2213.0,1840.0,15.0,47.0,40.0,132,131,111,91,68,330,532,470
2025-02-20 16:12:00.112,1106.0,-1599.0,1330.0,20.0,160.0,63.0,136,130,111,91,64,338,548,456
2025-02-20 16:12:00.130,564.0,-1227.0,822.0,-11.0,149.0,92.0,134,127,111,92,63,434,561,448
2025-02-20 16:12:00.149,310.0,-1127.0,630.0,-26.0,115.0,101.0,136,125,110,91,65,488,550,434
2025-02-20 16:12:00.169,290.0,-1026.0,653.0,-11.0,101.0,99.0,138,126,118,90,68,545,505,445
2025-02-20 16:12:00.186,289.0,-861.0,917.0,-7.0,117.0,93.0,137,127,109,91,69,546,453,476
2025-02-20 16:12:00.205,401.0,-764.0,960.0,-42.0,191.0,96.0,137,129,110,92,73,531,455,493
2025-02-20 16:12:00.223,249.0,-848.0,803.0,-41.0,232.0,126.0,138,128,109,92,74,467,457,493
2025-02-20 16:12:00.243,194.0,-840.0,639.0,-26.0,250.0,155.0,137,128,109,91,74,451,462,487
2025-02-20 16:12:00.264,58.0,-722.0,479.0,-8.0,233.0,185.0,137,128,106,91,74,451,429,479
2025-02-20 16:12:00.281,-142.0,-502.0,625.0,-20.0,211.0,187.0,137,124,103,92,73,437,425,479
2025-02-20 16:12:00.301,-269.0,-528.0,841.0,29.0,239.0,186.0,139,118,96,92,73,453,487,490
2025-02-20 16:12:00.320,-333.0,-357.0,489.0,157.0,331.0,199.0,141,95,71,92,73,481,503,498
2025-02-20 16:12:00.339,-624.0,-128.0,115.0,248.0,327.0,230.0,143,68,59,95,73,518,507,489
2025-02-20 16:12:00.358,-901.0,153.0,-545.0,309.0,251.0,229.0,142,57,55,97,73,532,483,471
2025-02-20 16:12:00.379,-903.0,222.0,-1244.0,382.0,85.0,139.0,144,57,52,96,73,517,459,470
2025-02-20 16:12:00.395,-667.0,248.0,-1407.0,455.0,-124.0,82.0,145,58,49,92,71,476,438,472
2025-02-20 16:12:00.415,193.0,-418.0,-74.0,312.0,-219.0,127.0,146,57,51,92,70,403,432,458
2025-02-20 16:12:00.436,497.0,-1334.0,1585.0,80.0,-185.0,259.0,148,57,47,88,67,410,436,462
2025-02-20 16:12:00.452,790.0,-1617.0,1550.0,-114.0,-162.0,457.0,148,58,48,87,66,404,424,465
2025-02-20 16:12:00.472,535.0,-1013.0,1686.0,-147.0,-190.0,479.0,148,58,49,86,66,362,428,457
2025-02-20 16:12:00.490,441.0,-261.0,2355.0,-200.0,-129.0,440.0,151,60,52,88,66,379,434,423
2025-02-20 16:12:00.509,-189.0,826.0,2037.0,-163.0,7.0,316.0,151,63,54,90,68,405,446,419
2025-02-20 16:12:00.530,-580.0,1716.0,1624.0,-132.0,61.0,179.0,151,63,54,90,68,439,460,440
2025-02-20 16:12:00.545,-647.0,1887.0,1350.0,-128.0,71.0,56.0,151,64,56,90,68,448,466,461
2025-02-20 16:12:00.567,-752.0,1468.0,1186.0,-66.0,60.0,-25.0,150,66,56,89,69,453,462,473
2025-02-20 16:12:00.587,-631.0,1479.0,1044.0,-32.0,69.0,-89.0,150,65,57,89,69,451,452,489
2025-02-20 16:12:00.605,-650.0,1272.0,774.0,-40.0,66.0,-139.0,152,66,58,90,69,455,449,508
2025-02-20 16:12:00.625,-542.0,541.0,513.0,-30.0,31.0,-171.0,151,66,58,89,69,465,469,520
2025-02-20 16:12:00.642,-462.0,-2.0,456.0,13.0,-20.0,-174.0,152,66,58,89,68,468,479,503
2025-02-20 16:12:00.662,-417.0,-182.0,517.0,91.0,-50.0,-182.0,151,66,59,89,69,462,472,495
2025-02-20 16:12:00.682,-388.0,-175.0,654.0,137.0,-66.0,-188.0,152,67,58,89,69,475,477,478
2025-02-20 16:12:00.697,-400.0,-275.0,817.0,173.0,-67.0,-204.0,151,67,59,89,70,487,490,476
2025-02-20 16:12:00.719,-312.0,-573.0,854.0,215.0,-79.0,-178.0,151,66,59,89,70,499,499,483
2025-02-20 16:12:00.739,-225.0,-511.0,1031.0,215.0,-81.0,-114.0,151,68,59,90,71,520,472,475
2025-02-20 16:12:00.756,-251.0,-26.0,1288.0,169.0,-36.0,-130.0,151,67,60,90,70,518,449,462
2025-02-20 16:12:00.777,-237.0,-252.0,1225.0,97.0,11.0,-130.0,151,67,60,88,72,515,427,462
2025-02-20 16:12:00.797,-280.0,-515.0,956.0,51.0,1.0,-95.0,150,68,60,90,72,481,426,464
2025-02-20 16:12:00.813,-149.0,-907.0,967.0,31.0,-36.0,-8.0,151,66,60,91,72,476,420,464
2025-02-20 16:12:00.833,35.0,-1065.0,1186.0,-24.0,-35.0,57.0,150,67,60,92,71,463,425,455
2025-02-20 16:12:00.854,118.0,-1375.0,1293.0,-82.0,-15.0,140.0,152,67,60,91,72,448,435,448
2025-02-20 16:12:00.871,415.0,-1886.0,1324.0,-135.0,23.0,255.0,150,68,60,91,71,483,443,462
2025-02-20 16:12:00.891,213.0,-1470.0,1116.0,-180.0,17.0,339.0,151,70,61,89,70,495,460,481
2025-02-20 16:12:00.908,242.0,-777.0,995.0,-206.0,-8.0,369.0,151,67,60,89,68,510,492,489
2025-02-20 16:12:00.928,251.0,-110.0,974.0,-205.0,-8.0,377.0,152,67,59,88,69,498,511,487
2025-02-20 16:12:00.945,94.0,1194.0,1046.0,-214.0,12.0,341.0,152,68,59,86,67,509,524,484
2025-02-20 16:12:00.962,-246.0,1907.0,983.0,-179.0,2.0,230.0,151,68,59,86,65,479,516,480
2025-02-20 16:12:00.985,-447.0,1977.0,1270.0,-89.0,-32.0,93.0,152,67,57,84,65,474,516,483
2025-02-20 16:12:01.005,-300.0,1975.0,1749.0,27.0,-27.0,-4.0,151,68,58,83,65,484,504,476
2025-02-20 16:12:01.023,-183.0,1583.0,2185.0,80.0,64.0,-71.0,152,67,58,83,64,485,487,463
2025-02-20 16:12:01.042,-98.0,904.0,1984.0,75.0,172.0,-119.0,151,66,57,82,63,436,460,459
2025-02-20 16:12:01.062,-230.0,181.0,1563.0,24.0,196.0,-109.0,152,65,57,81,62,457,429,456
2025-02-20 16:12:01.079,-349.0,-478.0,1602.0,-52.0,181.0,-92.0,151,65,57,81,63,469,432,447
2025-02-20 16:12:01.100,-209.0,-847.0,1666.0,-121.0,224.0,-68.0,149,64,57,80,62,452,493,429
2025-02-20 16:12:01.120,-294.0,-666.0,1175.0,-161.0,309.0,-54.0,149,62,56,77,61,480,493,419
2025-02-20 16:12:01.137,-576.0,-311.0,503.0,-187.0,311.0,-50.0,149,61,55,76,60,571,486,428
2025-02-20 16:12:01.157,-749.0,-232.0,104.0,-235.0,259.0,-23.0,148,61,54,75,60,556,469,469
2025-02-20 16:12:01.174,-662.0,-217.0,51.0,-239.0,218.0,-15.0,148,61,53,74,61,535,454,514
2025-02-20 16:12:01.194,-572.0,-304.0,1.0,-166.0,208.0,-9.0,147,61,50,74,62,519,436,523
2025-02-20 16:12:01.214,-509.0,-223.0,-49.0,-94.0,203.0,6.0,145,60,52,73,62,505,426,504
2025-02-20 16:12:01.231,-580.0,192.0,-195.0,-26.0,182.0,-5.0,140,60,51,74,61,474,428,488
2025-02-20 16:12:01.251,-642.0,778.0,-369.0,-3.0,127.0,-51.0,134,60,52,73,61,449,441,480
2025-02-20 16:12:01.271,-629.0,1085.0,-533.0,27.0,63.0,-111.0,127,58,51,73,61,424,431,470
2025-02-20 16:12:01.288,-781.0,1527.0,-1161.0,147.0,-11.0,-225.0,118,60,50,77,60,417,408,460
2025-02-20 16:12:01.309,-843.0,1436.0,-1707.0,277.0,-182.0,-328.0,112,58,49,81,60,420,427,450
2025-02-20 16:12:01.329,-810.0,1395.0,-1964.0,384.0,-401.0,-399.0,108,57,50,82,60,406,452,439
2025-02-20 16:12:01.346,183.0,1356.0,-1454.0,369.0,-641.0,-528.0,107,60,50,86,62,380,464,442
2025-02-20 16:12:01.364,2609.0,-513.0,-487.0,374.0,-830.0,-507.0,105,59,52,91,64,403,471,441
2025-02-20 16:12:01.386,4231.0,-3406.0,3994.0,590.0,-506.0,-163.0,108,61,53,93,67,454,454,446
2025-02-20 16:12:01.401,2398.0,-674.0,4889.0,416.0,58.0,-4.0,109,63,55,89,64,392,441,453
2025-02-20 16:12:01.423,868.0,126.0,3727.0,46.0,126.0,-42.0,109,63,54,89,59,327,473,455
2025-02-20 16:12:01.440,278.0,-424.0,2631.0,-187.0,140.0,22.0,110,63,55,89,59,327,539,457
2025-02-20 16:12:01.460,53.0,-569.0,1744.0,-293.0,153.0,35.0,114,62,55,90,62,501,538,456
2025-02-20 16:12:01.477,116.0,-1004.0,1336.0,-263.0,206.0,58.0,117,63,55,94,64,497,510,460
2025-02-20 16:12:01.497,-12.0,-1051.0,988.0,-151.0,259.0,75.0,121,62,56,96,66,595,448,463
2025-02-20 16:12:01.517,-181.0,-877.0,644.0,-55.0,268.0,75.0,122,62,56,96,68,511,424,455
2025-02-20 16:12:01.537,-365.0,-623.0,453.0,-19.0,225.0,86.0,124,61,57,96,69,490,462,459
2025-02-20 16:12:01.554,-390.0,-379.0,473.0,-38.0,173.0,99.0,125,62,55,96,69,545,460,467
2025-02-20 16:12:01.574,-242.0,-258.0,597.0,-93.0,178.0,110.0,123,62,57,95,70,500,436,462
2025-02-20 16:12:01.592,-350.0,-255.0,523.0,-142.0,179.0,136.0,127,64,56,93,70,493,440,455
2025-02-20 16:12:01.612,-561.0,-183.0,223.0,-111.0,147.0,106.0,128,63,56,92,69,445,435,446
2025-02-20 16:12:01.632,-380.0,-198.0,244.0,-37.0,127.0,70.0,128,62,56,92,69,441,440,454
2025-02-20 16:12:01.649,-425.0,98.0,45.0,-34.0,122.0,75.0,127,64,56,92,70,437,455,465
2025-02-20 16:12:01.669,-768.0,558.0,-448.0,-34.0,57.0,71.0,126,63,56,92,68,489,468,461
2025-02-20 16:12:01.689,-1249.0,1432.0,-1634.0,64.0,-87.0,-78.0,118,61,56,89,64,416,471,458
2025-02-20 16:12:01.706,-1604.0,1773.0,-2113.0,143.0,-352.0,-269.0,114,60,54,88,62,422,473,452
2025-02-20 16:12:01.726,-602.0,1182.0,-1944.0,157.0,-634.0,-354.0,117,59,53,88,63,456,484,453
2025-02-20 16:12:01.746,1302.0,-243.0,-486.0,206.0,-738.0,-317.0,121,59,53,91,65,575,439,455
2025-02-20 16:12:01.764,2662.0,-1647.0,1434.0,409.0,-612.0,-212.0,128,60,54,92,68,566,405,458
2025-02-20 16:12:01.784,2504.0,-800.0,3210.0,410.0,-305.0,-73.0,133,61,55,88,68,559,434,459
2025-02-20 16:12:01.804,1682.0,-233.0,3731.0,191.0,-63.0,-40.0,134,62,56,87,64,496,507,464
2025-02-20 16:12:01.821,1297.0,-717.0,2946.0,-50.0,107.0,25.0,135,63,58,87,63,415,579,467
2025-02-20 16:12:01.841,599.0,-814.0,1878.0,-113.0,161.0,76.0,136,65,59,89,64,291,571,450
2025-02-20 16:12:01.858,408.0,-1199.0,1377.0,-37.0,178.0,104.0,137,66,60,90,67,321,537,424
2025-02-20 16:12:01.879,310.0,-1225.0,1041.0,38.0,204.0,170.0,135,66,61,91,72,483,537,452
2025-02-20 16:12:01.898,149.0,-652.0,875.0,55.0,213.0,214.0,136,68,61,93,76,569,470,468
2025-02-20 16:12:01.916,-58.0,-238.0,890.0,17.0,198.0,247.0,134,67,61,93,80,489,460,473
2025-02-20 16:12:01.935,-181.0,-143.0,706.0,-56.0,174.0,277.0,132,67,61,94,82,437,474,473
2025-02-20 16:12:01.955,-2.0,-26.0,732.0,-81.0,188.0,290.0,132,67,60,95,84,480,470,476
2025-02-20 16:12:01.973,-180.0,324.0,609.0,-101.0,196.0,270.0,133,67,61,95,85,513,467,479
2025-02-20 16:12:01.993,-375.0,352.0,628.0,-72.0,156.0,221.0,133,67,61,98,84,409,487,487
2025-02-20 16:12:02.010,-569.0,561.0,421.0,-35.0,101.0,166.0,133,67,61,98,83,426,491,487
2025-02-20 16:12:02.029,-518.0,882.0,365.0,16.0,59.0,109.0,134,68,62,101,84,430,469,479
2025-02-20 16:12:02.050,-825.0,917.0,410.0,100.0,40.0,32.0,134,68,63,100,96,459,452,461
2025-02-20 16:12:02.067,-1007.0,2199.0,269.0,209.0,19.0,-163.0,133,69,64,100,113,473,438,452
2025-02-20 16:12:02.087,-1330.0,2878.0,-96.0,327.0,4.0,-356.0,133,69,64,102,122,494,451,456
2025-02-20 16:12:02.107,-938.0,2271.0,-287.0,350.0,-99.0,-548.0,134,68,65,104,126,503,444,488
2025-02-20 16:12:02.124,-58.0,912.0,-211.0,396.0,-304.0,-577.0,133,67,63,109,126,495,446,488
2025-02-20 16:12:02.145,737.0,60.0,526.0,469.0,-476.0,-484.0,134,67,62,111,128,472,436,465
2025-02-20 16:12:02.165,2093.0,-983.0,2222.0,454.0,-501.0,-277.0,137,68,63,115,129,450,424,473
2025-02-20 16:12:02.181,2438.0,-796.0,3559.0,108.0,-240.0,-29.0,138,70,66,117,130,411,433,464
2025-02-20 16:12:02.202,1802.0,-754.0,3095.0,-191.0,20.0,83.0,139,71,69,116,132,365,445,427
2025-02-20 16:12:02.222,1143.0,-1405.0,1691.0,-225.0,110.0,138.0,138,70,68,116,132,395,426,459
2025-02-20 16:12:02.239,619.0,-1273.0,1123.0,-39.0,113.0,185.0,136,70,68,116,133,435,420,469
2025-02-20 16:12:02.259,169.0,-454.0,1267.0,21.0,117.0,225.0,136,70,68,116,132,483,430,465
2025-02-20 16:12:02.275,116.0,184.0,1314.0,-70.0,158.0,275.0,136,71,69,115,132,520,415,455
2025-02-20 16:12:02.296,-81.0,331.0,1168.0,-173.0,166.0,280.0,135,70,69,112,132,489,419,408
2025-02-20 16:12:02.316,-69.0,153.0,1019.0,-143.0,164.0,272.0,136,70,69,109,132,515,437,425
2025-02-20 16:12:02.333,-234.0,224.0,850.0,-118.0,131.0,284.0,135,71,70,107,133,499,471,450
2025-02-20 16:12:02.352,-233.0,399.0,826.0,-118.0,107.0,271.0,137,70,69,106,133,487,474,491
2025-02-20 16:12:02.374,-224.0,554.0,875.0,-92.0,103.0,214.0,136,71,70,104,133,494,462,511
2025-02-20 16:12:02.390,-334.0,663.0,837.0,-75.0,137.0,163.0,135,71,70,102,132,454,456,507
2025-02-20 16:12:02.410,-540.0,673.0,577.0,-16.0,131.0,106.0,137,70,70,100,132,452,461,494
2025-02-20 16:12:02.428,-668.0,803.0,395.0,33.0,70.0,63.0,136,71,70,96,133,471,468,498
2025-02-20 16:12:02.447,-673.0,921.0,361.0,66.0,18.0,19.0,137,71,70,94,133,497,464,499
2025-02-20 16:12:02.468,-727.0,1333.0,384.0,75.0,-28.0,-59.0,137,70,70,93,134,532,466,491
2025-02-20 16:12:02.488,-890.0,2022.0,409.0,109.0,-43.0,-184.0,136,70,70,94,134,521,497,476
2025-02-20 16:12:02.505,-970.0,2160.0,208.0,121.0,-94.0,-376.0,135,69,69,97,135,525,478,462
2025-02-20 16:12:02.525,-927.0,1841.0,-32.0,162.0,-229.0,-464.0,134,67,66,100,134,488,476,461
2025-02-20 16:12:02.542,-64.0,1101.0,-12.0,146.0,-383.0,-504.0,133,66,66,104,134,475,461,461
2025-02-20 16:12:02.563,893.0,-131.0,582.0,144.0,-467.0,-452.0,135,67,66,110,134,510,442,459
2025-02-20 16:12:02.583,1616.0,-1530.0,1373.0,155.0,-387.0,-251.0,135,68,65,113,133,543,440,464
2025-02-20 16:12:02.599,1856.0,-1522.0,2154.0,105.0,-238.0,-47.0,136,67,65,114,131,527,473,459
2025-02-20 16:12:02.620,1679.0,-1143.0,2365.0,-57.0,-118.0,52.0,136,67,66,116,130,493,485,447
2025-02-20 16:12:02.639,1370.0,-1062.0,2114.0,-179.0,-8.0,177.0,133,67,66,116,127,441,481,445
2025-02-20 16:12:02.656,737.0,-641.0,1745.0,-282.0,52.0,234.0,132,68,67,116,123,387,534,427
2025-02-20 16:12:02.676,522.0,-572.0,1790.0,-316.0,116.0,271.0,132,68,68,114,119,409,549,418
2025-02-20 16:12:02.697,806.0,-261.0,1883.0,-339.0,231.0,320.0,133,69,69,113,109,492,518,441
2025-02-20 16:12:02.714,636.0,-170.0,1637.0,-368.0,350.0,345.0,134,72,70,111,110,591,513,510
2025-02-20 16:12:02.734,327.0,-109.0,1334.0,-320.0,410.0,353.0,136,72,70,111,107,571,503,553
2025-02-20 16:12:02.751,134.0,143.0,1005.0,-291.0,421.0,335.0,137,74,71,110,107,536,484,536
2025-02-20 16:12:02.770,73.0,81.0,431.0,-225.0,429.0,327.0,138,75,75,112,108,528,470,501
2025-02-20 16:12:02.788,-590.0,232.0,48.0,-125.0,374.0,296.0,138,77,80,114,111,473,452,480
2025-02-20 16:12:02.808,-831.0,341.0,257.0,-52.0,280.0,217.0,137,80,83,118,114,415,465,481
2025-02-20 16:12:02.828,-872.0,457.0,-183.0,-8.0,249.0,133.0,138,84,86,122,115,423,501,485
2025-02-20 16:12:02.849,-483.0,384.0,-216.0,40.0,209.0,92.0,136,88,88,119,118,430,524,476
2025-02-20 16:12:02.866,-741.0,768.0,-574.0,74.0,103.0,27.0,135,91,90,121,119,439,514,463
2025-02-20 16:12:02.886,-1218.0,506.0,-455.0,20.0,-11.0,-7.0,134,93,91,123,122,404,491,448
2025-02-20 16:12:02.906,-812.0,873.0,-570.0,74.0,-91.0,-58.0,134,96,93,123,126,349,454,434
2025-02-20 16:12:02.921,-643.0,1164.0,-628.0,92.0,-215.0,-163.0,135,96,94,124,129,326,427,439
2025-02-20 16:12:02.943,-950.0,1380.0,-662.0,140.0,-281.0,-286.0,134,98,92,125,132,375,389,433
2025-02-20 16:12:02.963,-1174.0,1640.0,-48.0,134.0,-314.0,-493.0,134,100,95,127,135,420,376,446
2025-02-20 16:12:02.980,-374.0,1300.0,-765.0,4.0,-467.0,-664.0,133,103,98,129,136,530,379,456
2025-02-20 16:12:03.000,823.0,584.0,-602.0,-75.0,-648.0,-685.0,128,109,100,129,136,508,399,456
2025-02-20 16:12:03.017,2278.0,-780.0,206.0,-191.0,-789.0,-541.0,128,114,103,131,137,493,426,466
2025-02-20 16:12:03.035,2691.0,-2299.0,346.0,-208.0,-701.0,-242.0,130,117,103,132,138,485,455,468
2025-02-20 16:12:03.057,2764.0,-3453.0,614.0,-253.0,-455.0,7.0,130,119,105,133,138,467,499,463
2025-02-20 16:12:03.074,2634.0,-3471.0,1135.0,-42.0,-155.0,120.0,131,119,105,134,138,457,515,462
2025-02-20 16:12:03.095,1520.0,-2706.0,896.0,28.0,-67.0,144.0,131,118,106,133,138,395,524,461
2025-02-20 16:12:03.114,690.0,-1816.0,587.0,61.0,53.0,108.0,132,116,105,134,138,362,512,474
2025-02-20 16:12:03.131,337.0,-1131.0,344.0,-41.0,41.0,202.0,132,112,105,134,137,402,473,476
2025-02-20 16:12:03.151,253.0,-443.0,705.0,19.0,84.0,232.0,134,110,104,133,137,546,430,476
2025-02-20 16:12:03.172,298.0,-915.0,699.0,47.0,149.0,201.0,132,110,104,133,138,511,408,482
2025-02-20 16:12:03.188,215.0,-1199.0,349.0,70.0,188.0,185.0,133,111,105,134,137,462,443,475
2025-02-20 16:12:03.209,168.0,-1059.0,542.0,87.0,210.0,181.0,129,112,104,133,138,438,462,469
2025-02-20 16:12:03.222,103.0,-707.0,530.0,112.0,247.0,185.0,134,114,105,133,138,408,483,455
2025-02-20 16:12:03.246,-4.0,-539.0,367.0,104.0,321.0,193.0,137,116,105,134,138,474,461,457
2025-02-20 16:12:03.266,-98.0,-403.0,330.0,61.0,242.0,198.0,133,117,103,134,137,566,452,473
2025-02-20 16:12:03.283,-184.0,-123.0,223.0,28.0,204.0,196.0,132,117,105,133,138,520,462,472
2025-02-20 16:12:03.303,-441.0,-194.0,359.0,14.0,186.0,179.0,132,117,105,134,138,527,457,461
2025-02-20 16:12:03.324,-521.0,-216.0,230.0,-7.0,139.0,165.0,131,117,104,134,138,514,448,446
2025-02-20 16:12:03.341,-583.0,127.0,61.0,22.0,115.0,157.0,131,114,103,134,138,548,450,446
2025-02-20 16:12:03.360,-559.0,563.0,123.0,87.0,91.0,111.0,130,109,104,133,138,521,451,445
2025-02-20 16:12:03.381,-1028.0,1151.0,-8.0,112.0,58.0,4.0,130,108,104,133,138,511,454,442
2025-02-20 16:12:03.398,-1281.0,1333.0,-387.0,131.0,-28.0,-218.0,129,109,104,133,137,508,462,440
2025-02-20 16:12:03.419,-1348.0,1733.0,-534.0,130.0,-163.0,-423.0,130,111,104,133,139,481,459,444
2025-02-20 16:12:03.438,-846.0,1049.0,-487.0,35.0,-307.0,-582.0,130,115,105,134,139,467,440,445
2025-02-20 16:12:03.456,539.0,337.0,-353.0,-2.0,-512.0,-681.0,125,119,107,134,139,499,433,456
2025-02-20 16:12:03.476,2327.0,-552.0,59.0,-105.0,-727.0,-546.0,124,122,107,134,140,499,428,468
2025-02-20 16:12:03.496,2743.0,-2947.0,679.0,-201.0,-548.0,-233.0,124,122,108,135,139,424,453,467
2025-02-20 16:12:03.513,2767.0,-4013.0,983.0,17.0,-246.0,26.0,125,123,108,134,139,367,492,464
2025-02-20 16:12:03.533,2437.0,-3107.0,536.0,162.0,-37.0,128.0,126,123,108,134,140,317,506,442
2025-02-20 16:12:03.550,1562.0,-969.0,1154.0,68.0,10.0,30.0,128,116,107,135,139,315,527,441
2025-02-20 16:12:03.569,232.0,-1179.0,687.0,-69.0,68.0,51.0,128,111,104,134,138,367,537,449
2025-02-20 16:12:03.586,133.0,-1040.0,412.0,42.0,111.0,132.0,129,106,103,134,137,415,480,463
2025-02-20 16:12:03.604,154.0,-1152.0,585.0,156.0,143.0,143.0,129,97,96,133,137,519,465,467
2025-02-20 16:12:03.627,208.0,-1337.0,645.0,169.0,243.0,173.0,129,89,92,133,136,570,461,473
2025-02-20 16:12:03.644,307.0,-1169.0,642.0,140.0,329.0,214.0,129,86,88,129,134,542,441,466
2025-02-20 16:12:03.664,406.0,-930.0,431.0,71.0,397.0,292.0,129,89,84,120,126,500,419,461
2025-02-20 16:12:03.684,235.0,-715.0,151.0,205.0,144.0,294.0,129,81,80,105,111,445,410,459
2025-02-20 16:12:03.702,61.0,-677.0,286.0,207.0,107.0,278.0,128,70,70,95,104,407,440,452
2025-02-20 16:12:03.721,-159.0,-278.0,78.0,242.0,53.0,273.0,130,62,66,93,105,401,467,465
2025-02-20 16:12:03.738,141.0,671.0,3.0,186.0,7.0,285.0,129,62,66,96,112,413,446,468
2025-02-20 16:12:03.755,-527.0,750.0,312.0,155.0,-53.0,183.0,127,60,66,96,115,422,421,456
2025-02-20 16:12:03.779,-564.0,754.0,513.0,88.0,-109.0,97.0,125,64,66,104,114,438,441,465
2025-02-20 16:12:03.798,-468.0,614.0,692.0,96.0,-126.0,8.0,124,64,68,106,118,501,481,455
2025-02-20 16:12:03.816,-401.0,485.0,923.0,168.0,-115.0,-57.0,124,65,70,107,121,534,506,457
2025-02-20 16:12:03.835,-396.0,803.0,1136.0,254.0,-65.0,-142.0,125,66,69,108,124,491,490,456
2025-02-20 16:12:03.856,-661.0,1646.0,1125.0,280.0,-51.0,-261.0,124,66,71,108,132,474,465,448
2025-02-20 16:12:03.873,-636.0,1808.0,1176.0,221.0,-28.0,-368.0,129,66,74,110,130,469,465,452
2025-02-20 16:12:03.893,-254.0,1065.0,1087.0,203.0,6.0,-460.0,131,67,76,114,131,457,458,457
2025-02-20 16:12:03.909,9.0,172.0,977.0,281.0,-15.0,-499.0,132,67,76,116,131,457,462,461
2025-02-20 16:12:03.931,318.0,-780.0,812.0,368.0,-120.0,-394.0,133,68,75,119,132,442,474,461
2025-02-20 16:12:03.950,964.0,-870.0,1289.0,293.0,-226.0,-231.0,135,70,77,117,131,422,483,449
2025-02-20 16:12:03.968,1392.0,-908.0,2315.0,74.0,-181.0,-50.0,136,70,79,121,131,430,467,433
2025-02-20 16:12:03.988,1256.0,-1004.0,2309.0,-161.0,-50.0,113.0,138,71,79,121,133,426,448,420
2025-02-20 16:12:04.007,832.0,-1043.0,1499.0,-218.0,18.0,198.0,137,73,80,121,132,437,441,449
2025-02-20 16:12:04.024,422.0,-762.0,1195.0,-159.0,18.0,243.0,136,72,79,119,133,414,447,448
2025-02-20 16:12:04.045,199.0,-503.0,1241.0,-92.0,25.0,277.0,136,73,80,119,133,424,423,448
2025-02-20 16:12:04.058,201.0,-78.0,1301.0,-72.0,71.0,312.0,134,74,81,120,134,440,423,431
2025-02-20 16:12:04.082,85.0,253.0,1265.0,-112.0,100.0,294.0,140,73,80,118,134,449,425,431
2025-02-20 16:12:04.102,-259.0,576.0,1109.0,-115.0,104.0,235.0,136,73,79,114,134,453,428,464
2025-02-20 16:12:04.119,-378.0,544.0,986.0,-58.0,98.0,167.0,137,73,82,112,134,442,442,473
2025-02-20 16:12:04.139,-372.0,437.0,875.0,-20.0,82.0,135.0,136,72,78,112,135,412,466,464
2025-02-20 16:12:04.156,-441.0,611.0,821.0,-7.0,62.0,109.0,136,74,79,111,135,429,453,472
2025-02-20 16:12:04.173,-342.0,705.0,802.0,-6.0,66.0,58.0,135,71,78,111,135,451,431,479
2025-02-20 16:12:04.197,-516.0,717.0,855.0,10.0,73.0,17.0,135,73,78,111,135,472,435,485
2025-02-20 16:12:04.217,-682.0,1080.0,729.0,21.0,71.0,-30.0,136,74,79,110,136,473,441,485
2025-02-20 16:12:04.234,-855.0,1621.0,593.0,27.0,69.0,-130.0,135,75,78,109,136,458,477,470
2025-02-20 16:12:04.254,-834.0,1612.0,442.0,63.0,62.0,-277.0,135,73,76,109,136,443,503,459
2025-02-20 16:12:04.274,-831.0,1347.0,172.0,143.0,12.0,-380.0,134,72,77,112,137,453,508,456
2025-02-20 16:12:04.290,-638.0,891.0,49.0,181.0,-98.0,-439.0,132,69,74,114,136,460,525,460
2025-02-20 16:12:04.311,159.0,-30.0,245.0,179.0,-292.0,-413.0,134,70,73,116,136,454,522,462
2025-02-20 16:12:04.332,1119.0,-1301.0,1434.0,185.0,-320.0,-247.0,136,71,74,118,135,458,497,469
2025-02-20 16:12:04.349,1574.0,-1175.0,2372.0,75.0,-153.0,-68.0,136,73,76,119,135,477,472,472
2025-02-20 16:12:04.368,1348.0,-878.0,2303.0,-186.0,-62.0,19.0,137,74,76,120,134,461,482,467
2025-02-20 16:12:04.385,800.0,-1105.0,1637.0,-299.0,-55.0,97.0,137,73,75,120,132,442,479,468
2025-02-20 16:12:04.405,518.0,-1091.0,1368.0,-295.0,-54.0,151.0,136,75,75,119,129,433,474,449
2025-02-20 16:12:04.424,444.0,-930.0,1675.0,-287.0,12.0,198.0,135,74,76,120,123,484,455,468
2025-02-20 16:12:04.442,423.0,-787.0,1701.0,-280.0,146.0,233.0,136,75,77,121,115,516,444,499
2025-02-20 16:12:04.463,187.0,-635.0,1364.0,-247.0,227.0,253.0,137,76,77,120,104,544,473,526
2025-02-20 16:12:04.482,-71.0,-504.0,1051.0,-202.0,265.0,267.0,138,77,79,118,95,539,485,540
2025-02-20 16:12:04.500,62.0,-44.0,938.0,-160.0,272.0,276.0,139,78,82,118,87,520,490,529
2025-02-20 16:12:04.520,-119.0,28.0,638.0,-175.0,309.0,278.0,139,81,83,115,81,563,494,510
2025-02-20 16:12:04.537,-471.0,-16.0,526.0,-160.0,286.0,249.0,139,85,85,105,75,512,488,496
2025-02-20 16:12:04.556,-481.0,-39.0,279.0,-101.0,254.0,215.0,139,89,87,100,70,489,463,482
2025-02-20 16:12:04.577,-572.0,93.0,118.0,-26.0,239.0,197.0,137,94,89,97,67,500,488,457
2025-02-20 16:12:04.594,-633.0,346.0,-72.0,10.0,225.0,171.0,136,96,90,95,67,507,532,463
2025-02-20 16:12:04.615,-887.0,679.0,-346.0,27.0,161.0,106.0,136,98,91,94,70,501,502,458
2025-02-20 16:12:04.635,-1081.0,1182.0,-744.0,29.0,51.0,16.0,135,100,93,93,79,440,473,442
2025-02-20 16:12:04.651,-1030.0,1448.0,-1159.0,43.0,-84.0,-159.0,135,103,97,91,80,398,446,431
2025-02-20 16:12:04.672,-1178.0,1556.0,-1263.0,81.0,-222.0,-320.0,135,108,102,85,69,391,412,427
2025-02-20 16:12:04.691,-967.0,1599.0,-1223.0,120.0,-387.0,-514.0,135,115,106,81,60,426,386,424
2025-02-20 16:12:04.708,-106.0,1441.0,-1102.0,47.0,-647.0,-652.0,133,119,108,78,59,460,407,436
2025-02-20 16:12:04.727,1528.0,352.0,-557.0,-122.0,-801.0,-672.0,130,123,109,81,60,496,412,448
2025-02-20 16:12:04.749,2696.0,-2312.0,473.0,-97.0,-844.0,-443.0,129,127,111,83,61,462,434,461
2025-02-20 16:12:04.761,3176.0,-2667.0,1418.0,-32.0,-591.0,-164.0,130,130,111,83,64,460,474,457
2025-02-20 16:12:04.786,3089.0,-2890.0,1884.0,45.0,-196.0,58.0,132,131,111,84,64,420,514,456
2025-02-20 16:12:04.803,1896.0,-2000.0,1759.0,38.0,103.0,67.0,134,131,112,86,62,335,524,445
2025-02-20 16:12:04.823,969.0,-1628.0,1381.0,19.0,191.0,85.0,134,131,112,88,60,319,528,445
2025-02-20 16:12:04.843,524.0,-1258.0,1126.0,-42.0,182.0,137.0,133,130,113,88,60,365,523,462
2025-02-20 16:12:04.861,342.0,-1131.0,818.0,-76.0,156.0,167.0,131,129,113,87,62,510,477,459
2025-02-20 16:12:04.878,260.0,-977.0,776.0,-75.0,166.0,184.0,130,130,112,85,64,617,447,457
2025-02-20 16:12:04.901,248.0,-907.0,828.0,-43.0,212.0,188.0,128,131,113,85,67,583,428,444
2025-02-20 16:12:04.917,100.0,-791.0,641.0,3.0,256.0,188.0,128,132,114,84,71,531,417,472
2025-02-20 16:12:04.938,-91.0,-551.0,403.0,26.0,252.0,206.0,130,131,113,86,74,530,416,473
2025-02-20 16:12:04.957,-270.0,-258.0,249.0,16.0,220.0,215.0,129,131,112,87,76,509,453,465
2025-02-20 16:12:04.975,-386.0,-48.0,303.0,-31.0,191.0,216.0,129,131,113,87,77,492,467,468
2025-02-20 16:12:04.995,-476.0,-126.0,201.0,-49.0,185.0,204.0,131,132,113,87,77,490,455,472
2025-02-20 16:12:05.012,-570.0,130.0,188.0,-51.0,165.0,204.0,131,131,113,87,76,472,441,466
2025-02-20 16:12:05.032,-646.0,363.0,84.0,-71.0,131.0,184.0,131,130,113,86,77,460,445,457
2025-02-20 16:12:05.052,-763.0,435.0,-143.0,-64.0,81.0,112.0,133,129,114,87,76,455,464,448
2025-02-20 16:12:05.069,-1090.0,613.0,-466.0,84.0,-3.0,-21.0,133,129,113,87,74,471,481,451
2025-02-20 16:12:05.090,-1280.0,1538.0,-535.0,166.0,-77.0,-209.0,132,129,112,86,75,496,467,454
2025-02-20 16:12:05.108,-1081.0,1763.0,-411.0,114.0,-182.0,-374.0,133,130,114,85,74,507,454,465
2025-02-20 16:12:05.125,-648.0,1133.0,-212.0,46.0,-303.0,-503.0,130,130,114,86,75,502,437,474
2025-02-20 16:12:05.145,459.0,-31.0,28.0,66.0,-447.0,-581.0,129,130,114,87,76,493,436,475
2025-02-20 16:12:05.167,1711.0,-614.0,177.0,118.0,-566.0,-544.0,127,132,114,90,78,424,408,478
2025-02-20 16:12:05.184,2343.0,-2297.0,1099.0,49.0,-513.0,-316.0,129,131,113,94,79,437,389,470
2025-02-20 16:12:05.197,2812.0,-3168.0,1560.0,75.0,-205.0,-78.0,130,133,113,93,79,415,425,463
2025-02-20 16:12:05.222,2044.0,-2123.0,1543.0,98.0,12.0,68.0,130,130,113,92,75,381,495,453
2025-02-20 16:12:05.241,1022.0,-1345.0,1136.0,46.0,69.0,81.0,133,131,113,93,70,308,570,460
2025-02-20 16:12:05.258,581.0,-1250.0,921.0,-14.0,65.0,83.0,132,129,113,94,68,324,580,456
2025-02-20 16:12:05.279,556.0,-1429.0,874.0,3.0,100.0,104.0,134,127,113,91,71,419,533,451
2025-02-20 16:12:05.299,533.0,-1462.0,782.0,91.0,160.0,145.0,136,129,112,89,73,466,488,448
2025-02-20 16:12:05.318,440.0,-1263.0,632.0,160.0,198.0,203.0,135,128,111,88,76,517,464,446
2025-02-20 16:12:05.335,273.0,-978.0,697.0,154.0,204.0,253.0,135,127,109,87,79,500,458,465
2025-02-20 16:12:05.356,300.0,-932.0,596.0,139.0,188.0,290.0,136,125,107,89,83,440,473,465
2025-02-20 16:12:05.376,273.0,-733.0,532.0,156.0,161.0,334.0,136,118,103,93,89,392,448,465
2025-02-20 16:12:05.392,0.0,-329.0,175.0,135.0,96.0,344.0,135,112,96,97,94,385,422,464
2025-02-20 16:12:05.411,-319.0,-233.0,344.0,32.0,19.0,329.0,134,107,93,102,99,403,428,469
2025-02-20 16:12:05.433,-395.0,277.0,414.0,-38.0,-64.0,275.0,136,101,89,104,103,452,433,475
2025-02-20 16:12:05.447,-423.0,278.0,577.0,-17.0,-82.0,183.0,137,96,88,103,106,566,429,480
2025-02-20 16:12:05.470,-200.0,231.0,571.0,9.0,-75.0,119.0,137,91,87,104,115,542,442,477
2025-02-20 16:12:05.487,-316.0,282.0,805.0,105.0,-44.0,79.0,137,85,82,103,122,489,463,467
2025-02-20 16:12:05.507,-493.0,895.0,992.0,199.0,-51.0,5.0,137,83,79,102,126,412,471,459
2025-02-20 16:12:05.527,-619.0,1595.0,1187.0,199.0,-33.0,-83.0,137,81,77,97,130,408,468,458
2025-02-20 16:12:05.544,-771.0,2097.0,1183.0,232.0,17.0,-224.0,137,78,77,96,132,430,468,468
2025-02-20 16:12:05.563,-959.0,2432.0,954.0,272.0,62.0,-349.0,138,78,77,96,135,453,468,472
2025-02-20 16:12:05.585,-705.0,1979.0,632.0,264.0,64.0,-495.0,137,79,79,100,135,474,466,467
2025-02-20 16:12:05.599,-20.0,706.0,588.0,322.0,-18.0,-587.0,136,75,77,105,136,467,477,461
2025-02-20 16:12:05.622,959.0,-568.0,716.0,399.0,-199.0,-546.0,137,71,73,109,135,463,503,464
2025-02-20 16:12:05.627,1598.0,-1112.0,1189.0,415.0,-359.0,-350.0,138,72,75,114,135,468,500,454
2025-02-20 16:12:05.659,2035.0,-1391.0,2857.0,242.0,-251.0,-94.0,141,76,80,116,135,433,489,450
2025-02-20 16:12:05.678,1666.0,-722.0,2949.0,-134.0,-63.0,101.0,142,79,80,116,135,421,486,433
2025-02-20 16:12:05.700,1146.0,-1131.0,1744.0,-323.0,60.0,182.0,141,77,81,114,136,414,460,405
2025-02-20 16:12:05.716,588.0,-1229.0,903.0,-223.0,65.0,233.0,140,76,80,112,136,426,422,432
2025-02-20 16:12:05.736,295.0,-753.0,984.0,-65.0,34.0,253.0,139,77,81,110,135,417,398,451
2025-02-20 16:12:05.751,102.0,-120.0,1193.0,-47.0,26.0,276.0,139,78,81,110,136,415,393,456
2025-02-20 16:12:05.773,12.0,297.0,1294.0,-104.0,63.0,267.0,139,77,81,109,135,380,395,448
2025-02-20 16:12:05.791,-100.0,351.0,1207.0,-139.0,104.0,229.0,139,78,80,107,136,415,407,453
2025-02-20 16:12:05.810,-281.0,230.0,1000.0,-105.0,114.0,181.0,138,78,81,102,136,447,444,477
2025-02-20 16:12:05.831,-270.0,194.0,803.0,-45.0,97.0,164.0,138,78,81,101,136,451,485,477
2025-02-20 16:12:05.848,-427.0,499.0,717.0,-5.0,70.0,144.0,138,78,80,99,136,433,501,471
2025-02-20 16:12:05.866,-474.0,1164.0,421.0,-24.0,52.0,108.0,136,79,81,99,136,468,478,492
2025-02-20 16:12:05.888,-702.0,1110.0,767.0,-30.0,44.0,67.0,138,80,80,97,137,475,454,491
2025-02-20 16:12:05.905,-771.0,1293.0,747.0,-36.0,42.0,-26.0,138,79,80,97,136,434,430,488
2025-02-20 16:12:05.925,-976.0,1458.0,694.0,47.0,30.0,-125.0,138,80,81,96,137,456,434,488
2025-02-20 16:12:05.945,-892.0,1826.0,520.0,111.0,8.0,-257.0,139,79,81,94,138,493,436,481
2025-02-20 16:12:05.962,-963.0,1847.0,407.0,90.0,-28.0,-344.0,139,80,81,102,138,510,462,467
2025-02-20 16:12:05.981,-563.0,1000.0,226.0,82.0,-69.0,-411.0,139,80,81,101,138,481,480,450
2025-02-20 16:12:06.002,23.0,83.0,337.0,143.0,-142.0,-413.0,140,80,81,106,137,450,471,453
2025-02-20 16:12:06.019,751.0,-780.0,575.0,220.0,-232.0,-334.0,140,80,81,109,137,436,460,464
2025-02-20 16:12:06.040,1551.0,-1292.0,1370.0,237.0,-245.0,-174.0,141,81,83,113,137,446,463,464
2025-02-20 16:12:06.060,1682.0,-1318.0,2110.0,128.0,-167.0,-41.0,142,82,85,116,137,463,453,449
2025-02-20 16:12:06.077,1510.0,-989.0,2153.0,-44.0,-74.0,91.0,143,83,85,116,137,403,467,443
2025-02-20 16:12:06.096,1043.0,-848.0,1785.0,-160.0,-14.0,157.0,142,84,87,115,138,391,466,454
2025-02-20 16:12:06.117,654.0,-590.0,1524.0,-177.0,-18.0,208.0,142,85,88,116,137,402,427,472
2025-02-20 16:12:06.134,371.0,-460.0,1626.0,-174.0,9.0,234.0,143,90,91,117,137,422,431,476
2025-02-20 16:12:06.154,239.0,-355.0,1709.0,-180.0,54.0,262.0,143,96,91,116,136,448,478,491
2025-02-20 16:12:06.171,152.0,-97.0,1583.0,-182.0,109.0,264.0,144,103,92,118,136,487,497,520
2025-02-20 16:12:06.192,20.0,3.0,1411.0,-194.0,136.0,247.0,145,103,92,119,134,513,496,527
2025-02-20 16:12:06.212,-57.0,-129.0,1388.0,-203.0,178.0,231.0,144,105,91,118,129,584,501,522
2025-02-20 16:12:06.229,-40.0,-14.0,1294.0,-209.0,240.0,216.0,146,105,91,118,123,665,510,518
2025-02-20 16:12:06.249,-38.0,-170.0,1139.0,-195.0,297.0,227.0,144,105,90,118,114,611,502,518
2025-02-20 16:12:06.269,-107.0,-124.0,900.0,-147.0,356.0,238.0,145,103,87,117,103,560,507,512
2025-02-20 16:12:06.286,-115.0,-50.0,694.0,-62.0,388.0,238.0,145,99,85,117,95,516,545,490
2025-02-20 16:12:06.305,-417.0,253.0,496.0,-21.0,389.0,205.0,144,92,79,113,86,513,526,467
2025-02-20 16:12:06.323,-512.0,334.0,262.0,-18.0,360.0,171.0,144,84,75,108,83,483,482,444
2025-02-20 16:12:06.343,-441.0,638.0,-161.0,-26.0,305.0,136.0,143,79,72,103,79,448,405,434
2025-02-20 16:12:06.362,-554.0,1105.0,-391.0,1.0,251.0,93.0,138,74,69,94,73,447,452,438
2025-02-20 16:12:06.380,-431.0,1273.0,-1101.0,94.0,181.0,12.0,135,69,65,81,73,477,514,452
2025-02-20 16:12:06.401,-1536.0,2006.0,-2410.0,244.0,-9.0,-218.0,130,64,60,79,65,440,498,441
2025-02-20 16:12:06.421,-1878.0,2551.0,-2909.0,188.0,-379.0,-441.0,121,61,56,71,53,407,472,437
2025-02-20 16:12:06.437,-329.0,2090.0,-2827.0,139.0,-822.0,-638.0,115,57,54,63,49,366,470,444
2025-02-20 16:12:06.458,2239.0,-72.0,-1846.0,181.0,-1077.0,-628.0,112,55,52,62,52,383,451,442
2025-02-20 16:12:06.478,4975.0,-2514.0,2487.0,440.0,-998.0,-275.0,116,56,51,64,54,523,444,446
2025-02-20 16:12:06.494,4310.0,-2404.0,4858.0,258.0,-232.0,49.0,115,59,54,65,55,539,462,457
2025-02-20 16:12:06.515,1901.0,-286.0,3966.0,2.0,39.0,-13.0,113,59,52,61,49,464,514,463
2025-02-20 16:12:06.535,891.0,-1498.0,2833.0,-126.0,98.0,41.0,111,58,51,63,47,362,523,462
2025-02-20 16:12:06.552,363.0,-835.0,2008.0,-176.0,159.0,76.0,113,58,53,64,48,324,510,450
2025-02-20 16:12:06.572,141.0,-969.0,1406.0,-179.0,189.0,65.0,114,60,54,65,51,366,465,445
2025-02-20 16:12:06.587,-198.0,-771.0,1039.0,-160.0,180.0,82.0,115,60,54,65,53,331,447,450
2025-02-20 16:12:06.609,-263.0,-417.0,866.0,-194.0,175.0,92.0,117,61,56,67,54,425,399,481
2025-02-20 16:12:06.629,-156.0,-400.0,804.0,-197.0,177.0,72.0,115,61,55,67,57,594,383,484
2025-02-20 16:12:06.647,44.0,-671.0,805.0,-167.0,215.0,80.0,117,61,56,69,59,588,414,479
2025-02-20 16:12:06.667,-233.0,-650.0,489.0,-134.0,216.0,112.0,120,62,57,71,62,577,417,468
2025-02-20 16:12:06.685,-202.0,-461.0,439.0,-117.0,214.0,150.0,121,60,57,68,63,545,428,464
2025-02-20 16:12:06.703,-303.0,-250.0,323.0,-137.0,202.0,175.0,122,62,57,67,60,510,469,469
2025-02-20 16:12:06.723,-233.0,-152.0,317.0,-145.0,214.0,175.0,122,63,57,69,59,509,498,472
2025-02-20 16:12:06.744,-295.0,-192.0,202.0,-147.0,220.0,180.0,126,62,59,70,60,480,489,470
2025-02-20 16:12:06.761,-422.0,-276.0,-5.0,-78.0,210.0,168.0,127,63,61,72,61,474,536,464
2025-02-20 16:12:06.780,-510.0,-277.0,-12.0,5.0,184.0,163.0,126,65,60,72,62,502,508,450
2025-02-20 16:12:06.798,-200.0,-36.0,-126.0,76.0,184.0,189.0,128,64,61,72,63,482,464,455
2025-02-20 16:12:06.817,-348.0,365.0,-616.0,124.0,184.0,211.0,128,64,60,73,64,500,416,455
2025-02-20 16:12:06.835,-899.0,1141.0,-1667.0,181.0,105.0,132.0,125,64,59,71,63,470,402,447
2025-02-20 16:12:06.852,-2214.0,2294.0,-3282.0,379.0,-202.0,-171.0,118,62,56,68,57,446,368,429
2025-02-20 16:12:06.875,-1746.0,3179.0,-4155.0,347.0,-740.0,-512.0,113,61,57,68,54,443,424,446
2025-02-20 16:12:06.896,2180.0,1959.0,-2729.0,166.0,-1184.0,-548.0,114,59,57,69,58,414,427,456
2025-02-20 16:12:06.912,5270.0,-855.0,529.0,222.0,-1234.0,-400.0,121,59,57,71,62,476,422,457
2025-02-20 16:12:06.933,5099.0,-3248.0,4912.0,520.0,-447.0,-49.0,126,63,61,71,65,571,398,467
2025-02-20 16:12:06.952,3176.0,-197.0,4307.0,206.0,185.0,-12.0,128,66,60,73,60,420,453,478
2025-02-20 16:12:06.969,638.0,40.0,2680.0,-109.0,241.0,-59.0,127,65,59,72,55,280,528,478
2025-02-20 16:12:06.990,-75.0,-558.0,1311.0,-278.0,154.0,26.0,127,64,61,72,54,339,537,459
2025-02-20 16:12:07.005,-115.0,-695.0,872.0,-238.0,100.0,3.0,123,63,59,73,57,374,528,451
2025-02-20 16:12:07.027,-145.0,-1328.0,676.0,-66.0,109.0,-22.0,120,65,60,73,60,493,513,443
2025-02-20 16:12:07.047,-128.0,-1105.0,711.0,92.0,151.0,-5.0,119,66,60,73,60,602,436,481
2025-02-20 16:12:07.063,-243.0,-439.0,694.0,76.0,122.0,2.0,120,67,60,74,61,603,412,498
2025-02-20 16:12:07.084,-259.0,-347.0,844.0,1.0,50.0,3.0,121,66,60,74,63,507,420,506
2025-02-20 16:12:07.104,-169.0,-491.0,922.0,-29.0,-5.0,18.0,121,67,60,75,63,466,433,484
2025-02-20 16:12:07.121,-158.0,-465.0,995.0,-29.0,-7.0,28.0,121,66,60,76,63,399,394,466
2025-02-20 16:12:07.141,-149.0,-379.0,1027.0,-18.0,17.0,21.0,122,67,61,75,63,358,432,459
2025-02-20 16:12:07.162,-189.0,-324.0,946.0,-18.0,26.0,5.0,122,67,62,74,63,373,508,465
2025-02-20 16:12:07.179,-260.0,-401.0,841.0,-31.0,12.0,3.0,123,67,61,74,62,515,456,473
2025-02-20 16:12:07.199,-222.0,-415.0,804.0,-39.0,-10.0,3.0,123,67,61,74,63,506,430,474
2025-02-20 16:12:07.215,-109.0,-485.0,840.0,-36.0,-14.0,4.0,124,67,61,75,64,511,474,466
2025-02-20 16:12:07.236,4.0,-627.0,916.0,5.0,17.0,1.0,123,67,61,74,63,468,492,464
2025-02-20 16:12:07.252,-81.0,-548.0,820.0,25.0,37.0,3.0,123,68,62,74,64,455,502,470
2025-02-20 16:12:07.272,-180.0,-461.0,734.0,14.0,23.0,6.0,123,68,61,75,64,467,486,472
2025-02-20 16:12:07.293,-239.0,-469.0,718.0,-9.0,-8.0,13.0,122,67,62,76,64,466,455,469
2025-02-20 16:12:07.313,-268.0,-401.0,775.0,-18.0,-26.0,12.0,122,68,61,76,64,493,430,466
2025-02-20 16:12:07.330,-207.0,-445.0,875.0,-11.0,-29.0,6.0,122,68,62,76,64,512,451,461
2025-02-20 16:12:07.351,-127.0,-501.0,1000.0,2.0,-11.0,7.0,123,68,61,74,65,462,463,458
2025-02-20 16:12:07.371,-140.0,-476.0,1008.0,3.0,7.0,5.0,122,67,62,75,64,435,488,451
2025-02-20 16:12:07.386,-157.0,-476.0,968.0,-9.0,9.0,7.0,124,68,61,75,64,437,507,446
2025-02-20 16:12:07.404,-185.0,-474.0,898.0,-13.0,9.0,3.0,124,69,62,74,64,449,514,446
2025-02-20 16:12:07.423,-173.0,-517.0,838.0,-10.0,0.0,2.0,123,66,64,75,64,469,510,444
2025-02-20 16:12:07.445,-173.0,-523.0,858.0,-5.0,0.0,4.0,124,68,63,74,64,484,496,443
2025-02-20 16:12:07.464,-195.0,-505.0,836.0,-4.0,1.0,4.0,123,68,62,75,64,491,493,444
2025-02-20 16:12:07.482,-192.0,-513.0,855.0,-2.0,0.0,6.0,124,68,62,75,64,487,483,443
2025-02-20 16:12:07.502,-208.0,-499.0,872.0,4.0,-2.0,4.0,125,69,62,74,65,488,475,446
2025-02-20 16:12:07.522,-202.0,-478.0,908.0,4.0,-2.0,5.0,124,68,62,74,65,517,474,450
2025-02-20 16:12:07.538,-196.0,-482.0,920.0,1.0,1.0,3.0,122,68,62,74,65,510,461,458
2025-02-20 16:12:07.560,-208.0,-490.0,898.0,-5.0,1.0,4.0,124,68,61,75,64,499,448,461
2025-02-20 16:12:07.579,-188.0,-517.0,893.0,-2.0,3.0,3.0,124,67,63,75,64,479,441,466
2025-02-20 16:12:07.596,-197.0,-507.0,883.0,2.0,4.0,4.0,124,67,63,75,65,462,436,467
2025-02-20 16:12:07.616,-192.0,-491.0,885.0,-2.0,5.0,4.0,123,67,62,75,65,456,437,467
2025-02-20 16:12:07.634,-200.0,-498.0,875.0,-3.0,6.0,5.0,123,68,63,75,65,450,439,468
2025-02-20 16:12:07.654,-201.0,-502.0,860.0,-3.0,4.0,6.0,124,68,65,75,65,443,440,467
2025-02-20 16:12:07.672,-220.0,-514.0,845.0,2.0,4.0,5.0,123,68,62,76,65,438,440,466
2025-02-20 16:12:07.691,-230.0,-480.0,840.0,4.0,0.0,5.0,123,68,63,75,65,433,436,464
2025-02-20 16:12:07.711,-210.0,-464.0,876.0,0.0,1.0,2.0,124,69,64,75,65,419,435,461
2025-02-20 16:12:07.731,-214.0,-482.0,878.0,-1.0,4.0,3.0,124,69,63,75,65,415,435,461
2025-02-20 16:12:07.749,-219.0,-488.0,878.0,2.0,6.0,2.0,124,68,62,75,66,413,438,464
2025-02-20 16:12:07.768,-225.0,-471.0,863.0,2.0,5.0,2.0,124,71,63,75,65,417,443,465
2025-02-20 16:12:07.788,-229.0,-471.0,863.0,0.0,2.0,-1.0,123,68,63,75,65,428,444,467
2025-02-20 16:12:07.805,-223.0,-489.0,862.0,-2.0,1.0,0.0,125,69,63,74,65,441,446,468
2025-02-20 16:12:07.823,-212.0,-491.0,859.0,0.0,-1.0,-1.0,126,69,63,75,66,452,451,470
2025-02-20 16:12:07.843,-190.0,-514.0,874.0,0.0,2.0,0.0,124,69,63,75,65,460,453,470
2025-02-20 16:12:07.859,-212.0,-512.0,846.0,2.0,3.0,1.0,124,68,63,75,66,462,455,471
2025-02-20 16:12:07.882,-226.0,-482.0,850.0,-2.0,-1.0,1.0,125,68,63,75,65,460,458,471
2025-02-20 16:12:07.900,-209.0,-493.0,854.0,-1.0,1.0,2.0,124,70,63,76,65,461,456,472
2025-02-20 16:12:07.920,-218.0,-490.0,855.0,-2.0,1.0,2.0,124,68,63,76,65,462,457,473
2025-02-20 16:12:07.938,-218.0,-486.0,842.0,-1.0,1.0,1.0,123,68,63,75,65,461,460,474
2025-02-20 16:12:07.954,-222.0,-490.0,842.0,-2.0,0.0,1.0,124,67,63,75,65,463,464,476
2025-02-20 16:12:07.977,-207.0,-507.0,864.0,-3.0,0.0,2.0,124,69,63,76,66,461,463,477
2025-02-20 16:12:07.997,-204.0,-494.0,872.0,-3.0,4.0,4.0,124,69,63,76,66,460,465,479
2025-02-20 16:12:08.014,-219.0,-488.0,860.0,-4.0,3.0,3.0,128,69,64,75,66,460,468,478
2025-02-20 16:12:08.034,-228.0,-499.0,856.0,-2.0,1.0,2.0,125,69,64,77,66,458,471,479
2025-02-20 16:12:08.055,-230.0,-495.0,857.0,-3.0,-1.0,3.0,124,68,64,75,66,461,473,478
2025-02-20 16:12:08.071,-223.0,-515.0,858.0,1.0,0.0,4.0,124,69,63,75,66,463,475,477
2025-02-20 16:12:08.088,-245.0,-475.0,860.0,3.0,0.0,5.0,123,69,63,76,66,464,475,476
2025-02-20 16:12:08.109,-258.0,-460.0,874.0,-1.0,-2.0,3.0,125,69,62,76,66,464,474,476
2025-02-20 16:12:08.129,-254.0,-477.0,897.0,-3.0,-1.0,2.0,125,68,63,76,66,468,473,474
2025-02-20 16:12:08.149,-248.0,-494.0,901.0,-1.0,1.0,2.0,125,70,64,77,66,476,472,475
2025-02-20 16:12:08.166,-239.0,-501.0,900.0,1.0,1.0,1.0,125,69,63,75,66,480,471,476
2025-02-20 16:12:08.185,-231.0,-493.0,905.0,1.0,1.0,1.0,126,70,64,76,65,484,472,477
2025-02-20 16:12:08.206,-211.0,-500.0,905.0,0.0,4.0,2.0,125,68,63,77,67,488,472,478
2025-02-20 16:12:08.223,-220.0,-481.0,885.0,-3.0,5.0,2.0,125,69,63,77,66,500,471,478
2025-02-20 16:12:08.242,-238.0,-480.0,847.0,-6.0,4.0,2.0,125,69,64,76,66,511,473,477
2025-02-20 16:12:08.264,-238.0,-486.0,839.0,-6.0,2.0,3.0,125,69,64,76,66,509,473,477
2025-02-20 16:12:08.280,-228.0,-487.0,840.0,-2.0,2.0,2.0,125,70,64,77,67,508,473,478
2025-02-20 16:12:08.300,-239.0,-475.0,830.0,1.0,2.0,1.0,125,69,63,76,67,506,471,479
2025-02-20 16:12:08.314,-257.0,-466.0,815.0,-2.0,0.0,2.0,125,69,64,77,66,509,470,478
2025-02-20 16:12:08.338,-257.0,-466.0,814.0,-4.0,-3.0,2.0,125,69,64,77,66,501,471,477
2025-02-20 16:12:08.356,-252.0,-473.0,836.0,-4.0,-5.0,0.0,125,69,64,76,66,497,474,478
2025-02-20 16:12:08.375,-228.0,-524.0,873.0,1.0,-1.0,1.0,126,70,64,77,66,495,475,479
2025-02-20 16:12:08.394,-256.0,-484.0,863.0,4.0,2.0,2.0,126,68,64,77,66,490,475,477
2025-02-20 16:12:08.414,-272.0,-442.0,857.0,0.0,-1.0,0.0,125,69,64,77,66,491,472,476
2025-02-20 16:12:08.432,-267.0,-458.0,860.0,-5.0,-4.0,-1.0,126,71,64,79,66,494,470,474
2025-02-20 16:12:08.451,-240.0,-494.0,869.0,-4.0,-2.0,-2.0,126,70,65,77,63,499,472,471
2025-02-20 16:12:08.472,-239.0,-509.0,868.0,1.0,0.0,-1.0,126,68,64,77,67,500,472,470
2025-02-20 16:12:08.490,-236.0,-511.0,868.0,0.0,-1.0,1.0,126,69,64,78,67,500,473,468
2025-02-20 16:12:08.508,-240.0,-489.0,871.0,-3.0,-2.0,1.0,126,70,64,77,65,501,472,467
2025-02-20 16:12:08.529,-249.0,-481.0,871.0,-4.0,-3.0,0.0,125,70,64,77,66,504,472,466
2025-02-20 16:12:08.545,-252.0,-489.0,859.0,-4.0,-2.0,0.0,126,69,64,77,67,506,471,466
2025-02-20 16:12:08.567,-237.0,-517.0,856.0,-2.0,-1.0,-1.0,126,70,65,77,67,508,468,465
2025-02-20 16:12:08.584,-243.0,-517.0,854.0,1.0,-1.0,1.0,126,70,65,77,66,510,467,464
2025-02-20 16:12:08.604,-254.0,-488.0,845.0,-1.0,-2.0,2.0,126,70,64,76,66,510,465,463
2025-02-20 16:12:08.622,-253.0,-481.0,858.0,-2.0,-4.0,2.0,126,69,64,77,67,512,464,463
2025-02-20 16:12:08.641,-251.0,-490.0,869.0,0.0,-4.0,0.0,125,71,64,78,67,512,461,463
2025-02-20 16:12:08.661,-246.0,-492.0,891.0,2.0,0.0,0.0,125,71,66,77,66,513,459,463
2025-02-20 16:12:08.681,-254.0,-497.0,893.0,0.0,0.0,0.0,126,70,64,77,68,513,457,463
2025-02-20 16:12:08.698,-244.0,-492.0,884.0,-4.0,-1.0,2.0,126,70,64,78,67,511,456,462
2025-02-20 16:12:08.718,-237.0,-497.0,891.0,-5.0,-1.0,3.0,125,70,65,77,68,514,456,462
2025-02-20 16:12:08.736,-232.0,-501.0,882.0,-1.0,0.0,4.0,126,70,65,77,67,512,456,462
2025-02-20 16:12:08.754,-236.0,-468.0,888.0,0.0,1.0,4.0,125,68,64,77,66,504,456,461
2025-02-20 16:12:08.775,-249.0,-465.0,879.0,0.0,0.0,3.0,126,70,65,77,67,497,458,462
2025-02-20 16:12:08.792,-247.0,-448.0,854.0,1.0,0.0,3.0,126,70,65,77,67,494,457,461
2025-02-20 16:12:08.813,-260.0,-447.0,849.0,1.0,-1.0,2.0,126,70,64,78,67,492,457,460
2025-02-20 16:12:08.833,-255.0,-462.0,863.0,2.0,-1.0,0.0,125,70,65,76,67,489,458,460
2025-02-20 16:12:08.850,-260.0,-473.0,874.0,2.0,1.0,0.0,126,71,65,77,67,487,462,459
2025-02-20 16:12:08.870,-272.0,-475.0,872.0,3.0,0.0,0.0,126,70,66,77,68,483,463,458
2025-02-20 16:12:08.891,-271.0,-481.0,873.0,4.0,-1.0,-1.0,126,71,64,77,68,479,464,458
2025-02-20 16:12:08.907,-270.0,-479.0,874.0,2.0,-1.0,0.0,127,70,65,78,67,475,465,458
2025-02-20 16:12:08.928,-255.0,-481.0,875.0,1.0,-1.0,0.0,127,70,65,77,68,474,464,458
2025-02-20 16:12:08.948,-244.0,-470.0,873.0,1.0,1.0,-1.0,127,70,65,76,67,473,467,460
2025-02-20 16:12:08.964,-245.0,-465.0,871.0,0.0,2.0,-2.0,127,70,66,73,67,469,467,459
2025-02-20 16:12:08.984,-234.0,-478.0,851.0,-2.0,2.0,-1.0,124,71,65,77,67,464,467,461
2025-02-20 16:12:09.002,-243.0,-475.0,822.0,-2.0,1.0,-1.0,127,69,66,76,68,461,470,461
2025-02-20 16:12:09.022,-241.0,-479.0,819.0,-4.0,-2.0,-1.0,127,71,65,78,68,458,467,462
2025-02-20 16:12:09.042,-231.0,-488.0,839.0,-3.0,-2.0,-2.0,126,71,65,78,67,456,466,463
2025-02-20 16:12:09.059,-233.0,-486.0,854.0,0.0,-2.0,0.0,127,71,65,77,68,455,464,463
2025-02-20 16:12:09.079,-244.0,-468.0,852.0,0.0,-2.0,0.0,126,70,65,77,68,455,462,463
2025-02-20 16:12:09.099,-255.0,-453.0,845.0,-1.0,-3.0,-1.0,126,70,65,77,68,457,460,462
2025-02-20 16:12:09.116,-256.0,-479.0,853.0,0.0,-3.0,-1.0,128,71,66,77,67,459,458,462
2025-02-20 16:12:09.136,-252.0,-485.0,861.0,5.0,-2.0,-1.0,128,71,65,77,67,462,459,463
2025-02-20 16:12:09.156,-263.0,-462.0,877.0,4.0,-2.0,0.0,126,70,65,77,68,462,462,464
2025-02-20 16:12:09.174,-265.0,-463.0,875.0,1.0,-3.0,-1.0,126,70,65,78,68,463,463,463
2025-02-20 16:12:09.192,-253.0,-501.0,892.0,1.0,-2.0,0.0,127,71,65,78,67,465,461,464
2025-02-20 16:12:09.210,-268.0,-475.0,891.0,5.0,-1.0,1.0,127,70,66,78,68,468,461,464
2025-02-20 16:12:09.231,-278.0,-440.0,887.0,5.0,0.0,0.0,127,71,65,78,68,468,462,463
2025-02-20 16:12:09.250,-278.0,-441.0,880.0,0.0,0.0,-2.0,128,70,65,78,68,465,464,464
2025-02-20 16:12:09.268,-262.0,-481.0,875.0,2.0,0.0,-2.0,126,70,67,77,68,465,464,464
2025-02-20 16:12:09.288,-247.0,-489.0,880.0,5.0,1.0,-2.0,126,71,65,78,68,462,464,465
2025-02-20 16:12:09.307,-237.0,-485.0,888.0,5.0,1.0,-1.0,128,71,65,78,68,461,464,466
2025-02-20 16:12:09.325,-254.0,-476.0,868.0,0.0,-1.0,0.0,127,70,66,77,68,459,463,467
2025-02-20 16:12:09.345,-241.0,-475.0,868.0,-3.0,-4.0,-1.0,126,71,65,78,69,459,463,468
2025-02-20 16:12:09.365,-222.0,-482.0,895.0,-1.0,-1.0,-1.0,127,70,65,77,68,459,463,470
2025-02-20 16:12:09.380,-224.0,-493.0,895.0,3.0,2.0,1.0,125,71,65,77,68,457,462,469
2025-02-20 16:12:09.397,-235.0,-477.0,884.0,5.0,4.0,2.0,126,71,66,77,69,454,463,469
2025-02-20 16:12:09.420,-266.0,-430.0,854.0,4.0,3.0,2.0,127,71,65,77,68,453,461,468
2025-02-20 16:12:09.439,-276.0,-412.0,848.0,2.0,-1.0,0.0,127,71,65,78,68,453,461,467
2025-02-20 16:12:09.459,-277.0,-438.0,866.0,5.0,0.0,-1.0,126,70,65,77,68,454,460,467
