timestamp,ax,ay,az,gx,gy,gz,flex1,flex2,flex3,flex4,flex5,emg1,emg2,emg3
2025-02-19 16:18:41.650,-476.0,-335.0,836.0,0.0,0.0,1.0,166,144,141,151,158,513,85,495
2025-02-19 16:18:41.656,-465.0,-353.0,849.0,0.0,-1.0,-1.0,171,147,144,155,161,499,642,513
2025-02-19 16:18:41.659,-470.0,-348.0,845.0,0.0,-1.0,0.0,167,144,141,152,159,499,645,520
2025-02-19 16:18:41.661,-476.0,-338.0,849.0,1.0,-1.0,-1.0,170,148,145,155,161,506,654,531
2025-02-19 16:18:41.664,-480.0,-341.0,847.0,1.0,-1.0,-1.0,167,144,141,152,158,506,645,535
2025-02-19 16:18:41.666,-480.0,-348.0,842.0,1.0,-1.0,-1.0,170,148,144,155,162,513,631,544
2025-02-19 16:18:41.670,-477.0,-342.0,842.0,1.0,-2.0,-1.0,166,143,140,150,157,505,607,541
2025-02-19 16:18:41.673,-472.0,-348.0,853.0,1.0,-2.0,-1.0,170,147,144,154,161,506,589,546
2025-02-19 16:18:41.676,-467.0,-348.0,863.0,0.0,-1.0,-1.0,170,147,144,155,161,506,569,547
2025-02-19 16:18:41.677,-465.0,-349.0,866.0,0.0,0.0,-1.0,168,145,141,152,159,499,547,543
2025-02-19 16:18:41.690,-462.0,-349.0,861.0,-1.0,1.0,-1.0,170,147,144,155,161,496,537,546
2025-02-19 16:18:41.708,-461.0,-347.0,861.0,-1.0,1.0,-1.0,167,144,141,151,156,485,528,542
2025-02-19 16:18:41.731,-462.0,-343.0,849.0,-2.0,1.0,-1.0,170,147,144,155,164,482,531,543
2025-02-19 16:18:41.747,-465.0,-342.0,840.0,-1.0,1.0,-1.0,166,143,139,150,156,468,537,536
2025-02-19 16:18:41.768,-462.0,-338.0,832.0,-1.0,0.0,-1.0,170,147,143,155,161,461,571,537
2025-02-19 16:18:41.788,-468.0,-337.0,834.0,-2.0,-1.0,-1.0,170,147,143,154,161,448,615,530
2025-02-19 16:18:41.805,-462.0,-333.0,842.0,-2.0,-1.0,-1.0,168,144,141,152,158,427,668,517
2025-02-19 16:18:41.824,-468.0,-333.0,840.0,-1.0,-1.0,-1.0,170,147,144,155,161,411,739,510
2025-02-19 16:18:41.845,-467.0,-331.0,839.0,-1.0,-1.0,-2.0,167,144,140,152,158,389,801,494
2025-02-19 16:18:41.862,-470.0,-330.0,838.0,-1.0,-2.0,-2.0,169,146,142,154,160,379,863,485
2025-02-19 16:18:41.882,-472.0,-342.0,847.0,-1.0,-3.0,-2.0,167,144,140,152,158,376,902,472
2025-02-19 16:18:41.896,-470.0,-337.0,858.0,-1.0,-3.0,-1.0,169,146,143,154,161,397,922,471
2025-02-19 16:18:41.920,-470.0,-333.0,864.0,-1.0,-2.0,-1.0,171,147,144,155,161,432,914,474
2025-02-19 16:18:41.940,-474.0,-334.0,862.0,-1.0,-1.0,-1.0,168,144,142,152,159,477,879,481
2025-02-19 16:18:41.957,-472.0,-328.0,860.0,-1.0,0.0,-2.0,171,147,144,155,161,537,831,496
2025-02-19 16:18:41.977,-474.0,-336.0,854.0,-1.0,0.0,-2.0,168,145,146,152,159,589,759,509
2025-02-19 16:18:41.997,-469.0,-340.0,848.0,-1.0,0.0,-2.0,170,146,143,154,160,637,682,527
2025-02-19 16:18:42.014,-469.0,-346.0,841.0,-1.0,0.0,-2.0,168,145,142,153,159,672,597,540
2025-02-19 16:18:42.034,-472.0,-353.0,833.0,0.0,-1.0,-2.0,168,145,142,152,160,700,518,555
2025-02-19 16:18:42.054,-479.0,-350.0,837.0,1.0,-2.0,-1.0,170,148,144,155,161,718,448,563
2025-02-19 16:18:42.072,-490.0,-333.0,839.0,1.0,-3.0,-1.0,167,145,141,152,158,722,385,562
2025-02-19 16:18:42.091,-469.0,-345.0,857.0,0.0,-3.0,-1.0,170,145,144,154,161,723,335,564
2025-02-19 16:18:42.109,-459.0,-342.0,862.0,1.0,-2.0,0.0,166,145,141,151,158,710,287,557
2025-02-19 16:18:42.127,-469.0,-340.0,856.0,1.0,-1.0,0.0,168,146,143,153,160,698,256,553
2025-02-19 16:18:42.148,-473.0,-335.0,844.0,0.0,-1.0,1.0,170,147,144,155,161,680,244,546
2025-02-19 16:18:42.166,-486.0,-344.0,838.0,0.0,-2.0,1.0,167,144,141,152,157,657,251,539
2025-02-19 16:18:42.186,-479.0,-338.0,838.0,0.0,-2.0,1.0,170,147,144,155,160,640,274,541
2025-02-19 16:18:42.206,-477.0,-346.0,841.0,0.0,-1.0,1.0,166,144,140,151,157,618,291,541
2025-02-19 16:18:42.223,-471.0,-343.0,842.0,1.0,-1.0,1.0,169,147,144,154,161,600,321,544
2025-02-19 16:18:42.243,-473.0,-337.0,841.0,0.0,-1.0,1.0,165,143,140,151,157,574,344,543
2025-02-19 16:18:42.260,-477.0,-339.0,836.0,0.0,-2.0,1.0,169,145,142,153,159,552,373,535
2025-02-19 16:18:42.277,-474.0,-336.0,838.0,1.0,-3.0,1.0,170,147,144,154,161,526,406,514
2025-02-19 16:18:42.301,-464.0,-342.0,846.0,2.0,-4.0,0.0,167,144,141,151,158,496,434,497
2025-02-19 16:18:42.313,-463.0,-350.0,849.0,2.0,-4.0,2.0,170,147,144,154,161,479,466,489
2025-02-19 16:18:42.337,-459.0,-355.0,857.0,2.0,-4.0,2.0,166,143,140,150,158,462,482,482
2025-02-19 16:18:42.350,-460.0,-348.0,849.0,3.0,-5.0,3.0,170,148,144,154,162,459,495,491
2025-02-19 16:18:42.375,-467.0,-350.0,854.0,4.0,-5.0,4.0,166,143,140,151,157,449,488,494
2025-02-19 16:18:42.395,-469.0,-341.0,863.0,6.0,-6.0,4.0,169,146,143,153,160,448,482,502
2025-02-19 16:18:42.412,-467.0,-329.0,872.0,5.0,-6.0,4.0,170,147,144,154,161,447,469,511
2025-02-19 16:18:42.432,-465.0,-318.0,875.0,4.0,-5.0,4.0,167,144,141,151,158,441,447,506
2025-02-19 16:18:42.452,-465.0,-317.0,880.0,4.0,-3.0,4.0,170,147,144,154,161,448,426,506
2025-02-19 16:18:42.472,-458.0,-314.0,881.0,4.0,-3.0,3.0,166,143,140,150,157,446,397,504
2025-02-19 16:18:42.489,-457.0,-306.0,883.0,4.0,-2.0,2.0,170,147,144,155,161,452,382,512
2025-02-19 16:18:42.509,-456.0,-310.0,877.0,3.0,-1.0,1.0,165,142,139,150,156,447,373,514
2025-02-19 16:18:42.529,-455.0,-315.0,875.0,3.0,-1.0,2.0,169,146,143,153,156,453,383,521
2025-02-19 16:18:42.547,-442.0,-317.0,870.0,2.0,-1.0,3.0,170,147,144,154,161,458,401,528
2025-02-19 16:18:42.566,-456.0,-309.0,864.0,2.0,-2.0,2.0,166,144,140,151,158,459,420,527
2025-02-19 16:18:42.584,-458.0,-296.0,872.0,3.0,-2.0,2.0,170,147,145,154,161,468,464,536
2025-02-19 16:18:42.603,-451.0,-285.0,880.0,2.0,-1.0,1.0,166,143,139,150,157,465,509,533
2025-02-19 16:18:42.623,-455.0,-303.0,877.0,2.0,0.0,1.0,170,147,144,154,161,473,539,536
2025-02-19 16:18:42.641,-455.0,-300.0,875.0,3.0,-2.0,1.0,166,142,139,150,156,472,551,526
2025-02-19 16:18:42.660,-461.0,-294.0,872.0,2.0,-2.0,1.0,169,146,144,155,160,476,571,524
2025-02-19 16:18:42.681,-456.0,-296.0,873.0,2.0,-3.0,1.0,170,147,144,154,161,474,588,517
2025-02-19 16:18:42.698,-459.0,-294.0,876.0,3.0,-3.0,2.0,166,144,141,151,157,468,602,511
2025-02-19 16:18:42.718,-462.0,-292.0,865.0,3.0,-2.0,2.0,170,147,144,154,161,474,612,508
2025-02-19 16:18:42.738,-462.0,-285.0,870.0,4.0,-3.0,2.0,166,144,140,150,157,475,603,489
2025-02-19 16:18:42.755,-470.0,-293.0,880.0,4.0,-4.0,2.0,170,147,144,154,160,484,590,472
2025-02-19 16:18:42.776,-464.0,-291.0,895.0,4.0,-4.0,2.0,167,144,141,151,157,484,563,449
2025-02-19 16:18:42.792,-459.0,-287.0,897.0,3.0,-2.0,2.0,168,146,142,153,159,490,543,422
2025-02-19 16:18:42.813,-464.0,-285.0,895.0,2.0,-1.0,1.0,170,147,144,154,160,491,521,408
2025-02-19 16:18:42.830,-459.0,-277.0,890.0,3.0,-1.0,0.0,167,138,141,151,158,484,489,393
2025-02-19 16:18:42.849,-461.0,-271.0,890.0,2.0,-1.0,0.0,169,146,143,154,160,485,457,379
2025-02-19 16:18:42.870,-461.0,-270.0,884.0,0.0,-1.0,-2.0,167,144,140,152,157,478,413,366
2025-02-19 16:18:42.890,-465.0,-270.0,878.0,-1.0,-1.0,-2.0,168,146,143,154,157,474,383,367
2025-02-19 16:18:42.907,-461.0,-277.0,865.0,-2.0,1.0,-2.0,167,144,141,152,157,464,363,371
2025-02-19 16:18:42.927,-464.0,-284.0,858.0,-2.0,1.0,-1.0,167,144,142,152,157,454,348,381
2025-02-19 16:18:42.948,-453.0,-277.0,850.0,0.0,2.0,-1.0,166,146,143,154,159,446,352,392
2025-02-19 16:18:42.963,-443.0,-280.0,854.0,1.0,2.0,-1.0,166,144,140,151,156,436,364,402
2025-02-19 16:18:42.983,-441.0,-275.0,852.0,1.0,0.0,-1.0,169,146,143,154,159,435,395,424
2025-02-19 16:18:42.998,-436.0,-285.0,861.0,1.0,-2.0,-3.0,166,144,141,152,157,430,438,440
2025-02-19 16:18:43.022,-440.0,-290.0,867.0,1.0,-4.0,-4.0,168,145,143,153,158,432,502,465
2025-02-19 16:18:43.042,-439.0,-309.0,885.0,-1.0,-4.0,-3.0,169,146,144,154,159,437,557,486
2025-02-19 16:18:43.059,-448.0,-309.0,881.0,-1.0,-4.0,-1.0,167,144,141,151,157,439,601,505
2025-02-19 16:18:43.079,-452.0,-304.0,877.0,-1.0,-3.0,0.0,170,147,144,155,160,447,652,524
2025-02-19 16:18:43.099,-464.0,-306.0,872.0,0.0,-1.0,1.0,167,143,140,152,157,449,689,529
2025-02-19 16:18:43.115,-474.0,-288.0,860.0,1.0,0.0,2.0,170,147,144,155,160,460,715,537
2025-02-19 16:18:43.133,-479.0,-282.0,866.0,2.0,0.0,2.0,167,144,138,152,157,462,724,536
2025-02-19 16:18:43.156,-463.0,-268.0,872.0,0.0,-1.0,2.0,169,144,142,153,159,471,730,538
2025-02-19 16:18:43.173,-458.0,-270.0,875.0,0.0,-1.0,0.0,171,152,144,155,160,480,718,542
2025-02-19 16:18:43.193,-439.0,-279.0,888.0,-1.0,-2.0,-2.0,167,144,141,152,158,484,685,542
2025-02-19 16:18:43.214,-429.0,-284.0,903.0,-1.0,-2.0,-3.0,170,147,144,154,160,491,647,551
2025-02-19 16:18:43.230,-422.0,-292.0,912.0,-3.0,-2.0,-3.0,167,143,140,152,156,489,597,556
2025-02-19 16:18:43.251,-435.0,-292.0,895.0,-4.0,-1.0,-2.0,170,147,144,155,160,494,570,566
2025-02-19 16:18:43.268,-447.0,-294.0,882.0,-4.0,-1.0,-1.0,167,143,140,151,156,488,548,566
2025-02-19 16:18:43.288,-464.0,-289.0,860.0,-2.0,0.0,1.0,169,145,142,154,158,489,544,566
2025-02-19 16:18:43.308,-469.0,-278.0,854.0,0.0,-1.0,2.0,170,147,144,154,160,491,547,564
2025-02-19 16:18:43.325,-479.0,-261.0,863.0,1.0,-2.0,2.0,166,144,141,151,157,488,549,553
2025-02-19 16:18:43.345,-470.0,-251.0,872.0,1.0,-3.0,0.0,169,147,144,154,159,493,566,550
2025-02-19 16:18:43.365,-466.0,-253.0,893.0,0.0,-3.0,-2.0,166,142,140,151,156,491,582,541
2025-02-19 16:18:43.383,-464.0,-272.0,908.0,-1.0,-2.0,-3.0,170,147,144,154,160,498,598,542
2025-02-19 16:18:43.401,-461.0,-289.0,911.0,-1.0,-1.0,-3.0,166,142,139,150,155,495,607,538
2025-02-19 16:18:43.422,-463.0,-290.0,899.0,-2.0,1.0,-2.0,170,146,143,154,159,503,626,543
2025-02-19 16:18:43.441,-467.0,-289.0,879.0,-1.0,2.0,-1.0,170,147,144,154,160,503,644,542
2025-02-19 16:18:43.459,-470.0,-283.0,869.0,0.0,3.0,0.0,167,143,141,151,156,504,662,535
2025-02-19 16:18:43.477,-463.0,-279.0,867.0,-1.0,3.0,0.0,170,147,144,155,160,509,696,535
2025-02-19 16:18:43.497,-458.0,-274.0,860.0,-1.0,2.0,-2.0,166,144,140,151,156,507,714,524
2025-02-19 16:18:43.517,-449.0,-280.0,862.0,-2.0,0.0,-3.0,170,147,144,155,160,511,718,523
2025-02-19 16:18:43.534,-445.0,-297.0,877.0,-3.0,-1.0,-2.0,166,143,139,150,156,507,698,514
2025-02-19 16:18:43.554,-448.0,-311.0,892.0,-2.0,-1.0,-1.0,170,147,144,155,159,514,678,516
2025-02-19 16:18:43.574,-453.0,-301.0,889.0,-2.0,0.0,0.0,170,147,144,155,160,516,650,516
2025-02-19 16:18:43.591,-460.0,-294.0,885.0,-2.0,1.0,2.0,167,144,141,152,157,515,611,512
2025-02-19 16:18:43.611,-460.0,-274.0,881.0,-2.0,2.0,2.0,170,147,144,155,160,520,572,514
2025-02-19 16:18:43.631,-462.0,-266.0,870.0,-2.0,3.0,1.0,167,143,140,151,156,518,529,509
2025-02-19 16:18:43.650,-465.0,-263.0,860.0,-2.0,3.0,-1.0,169,146,143,154,159,522,499,514
2025-02-19 16:18:43.665,-463.0,-259.0,857.0,-4.0,1.0,-3.0,166,143,140,150,155,520,473,511
2025-02-19 16:18:43.689,-462.0,-289.0,864.0,-5.0,-1.0,-4.0,168,146,142,153,158,524,460,518
2025-02-19 16:18:43.704,-457.0,-309.0,882.0,-4.0,-1.0,-3.0,169,146,143,154,159,524,445,520
2025-02-19 16:18:43.726,-454.0,-308.0,887.0,-4.0,0.0,-1.0,167,144,141,152,156,522,442,521
2025-02-19 16:18:43.743,-468.0,-297.0,879.0,-2.0,1.0,0.0,170,147,144,154,160,525,462,526
2025-02-19 16:18:43.756,-475.0,-281.0,876.0,-2.0,1.0,1.0,166,143,140,151,156,520,486,519
2025-02-19 16:18:43.783,-471.0,-272.0,874.0,-3.0,2.0,0.0,169,145,141,153,159,523,528,520
2025-02-19 16:18:43.800,-469.0,-268.0,865.0,-3.0,2.0,-1.0,168,145,142,152,157,521,570,514
2025-02-19 16:18:43.820,-466.0,-271.0,872.0,-3.0,1.0,-3.0,168,145,142,152,158,522,608,514
2025-02-19 16:18:43.840,-463.0,-288.0,865.0,-5.0,0.0,-3.0,170,147,144,154,159,524,637,515
2025-02-19 16:18:43.855,-459.0,-300.0,873.0,-3.0,-2.0,-2.0,167,144,141,151,157,521,654,513
2025-02-19 16:18:43.877,-460.0,-292.0,875.0,-4.0,-1.0,-1.0,169,147,143,154,160,524,674,516
2025-02-19 16:18:43.897,-474.0,-302.0,875.0,-3.0,0.0,-1.0,168,145,142,152,157,523,680,511
2025-02-19 16:18:43.914,-461.0,-293.0,879.0,-3.0,0.0,0.0,169,145,143,153,159,526,682,510
2025-02-19 16:18:43.934,-464.0,-295.0,875.0,-3.0,1.0,1.0,169,146,143,154,159,526,675,508
2025-02-19 16:18:43.951,-471.0,-296.0,869.0,-4.0,1.0,0.0,167,144,141,151,157,523,660,505
2025-02-19 16:18:43.971,-460.0,-287.0,881.0,-5.0,2.0,0.0,170,147,144,155,160,525,640,509
2025-02-19 16:18:43.992,-464.0,-297.0,875.0,-4.0,2.0,-1.0,166,144,141,151,156,520,598,506
2025-02-19 16:18:44.009,-465.0,-293.0,870.0,-5.0,2.0,-2.0,170,147,143,154,159,524,559,511
2025-02-19 16:18:44.029,-461.0,-312.0,866.0,-5.0,1.0,-1.0,167,144,142,152,156,521,509,511
2025-02-19 16:18:44.049,-456.0,-304.0,871.0,-4.0,2.0,-1.0,168,146,142,153,158,523,470,520
2025-02-19 16:18:44.066,-456.0,-294.0,857.0,-4.0,3.0,-1.0,170,147,144,154,159,525,440,525
2025-02-19 16:18:44.085,-455.0,-283.0,857.0,-7.0,5.0,-2.0,167,144,141,151,156,522,416,525
2025-02-19 16:18:44.107,-450.0,-284.0,826.0,-8.0,5.0,-2.0,170,146,144,154,159,524,416,530
2025-02-19 16:18:44.122,-458.0,-267.0,791.0,-8.0,6.0,-3.0,166,143,141,150,155,519,431,528
2025-02-19 16:18:44.143,-479.0,-212.0,733.0,-11.0,4.0,-6.0,169,146,143,154,159,521,470,531
2025-02-19 16:18:44.163,-493.0,-199.0,678.0,-16.0,-2.0,-11.0,165,143,140,151,154,515,511,526
2025-02-19 16:18:44.180,-518.0,-167.0,713.0,-28.0,-12.0,-21.0,168,143,142,153,156,516,563,526
2025-02-19 16:18:44.201,-536.0,-113.0,593.0,-51.0,-32.0,-32.0,169,141,143,154,157,515,617,525
2025-02-19 16:18:44.217,-582.0,17.0,468.0,-96.0,-42.0,-44.0,166,132,137,152,152,508,673,521
2025-02-19 16:18:44.238,-749.0,-84.0,459.0,-105.0,-72.0,-60.0,170,128,143,154,153,506,746,525
2025-02-19 16:18:44.259,-896.0,-164.0,606.0,-134.0,-108.0,-85.0,166,117,133,149,139,499,829,522
2025-02-19 16:18:44.275,-451.0,-432.0,809.0,-145.0,-168.0,-102.0,171,114,139,150,131,504,963,526
2025-02-19 16:18:44.295,-248.0,-883.0,1352.0,-139.0,-159.0,-97.0,167,104,131,135,119,503,1015,517
2025-02-19 16:18:44.315,50.0,-1097.0,1933.0,-170.0,-75.0,-67.0,171,102,129,125,113,513,1014,512
2025-02-19 16:18:44.332,211.0,-1511.0,2165.0,-161.0,2.0,-35.0,171,99,123,115,107,505,1014,485
2025-02-19 16:18:44.351,324.0,-1634.0,2117.0,-147.0,97.0,13.0,169,94,117,104,98,466,1015,452
2025-02-19 16:18:44.368,42.0,-1646.0,1693.0,-121.0,169.0,60.0,171,96,118,102,99,412,1015,456
2025-02-19 16:18:44.389,-57.0,-1256.0,1150.0,-117.0,206.0,97.0,166,91,113,97,94,354,1009,605
2025-02-19 16:18:44.409,-73.0,-1033.0,935.0,-133.0,214.0,118.0,165,94,116,99,98,332,1014,800
2025-02-19 16:18:44.427,-100.0,-954.0,560.0,-151.0,212.0,137.0,154,89,111,95,95,317,1015,882
2025-02-19 16:18:44.447,-154.0,-777.0,456.0,-151.0,197.0,165.0,153,93,116,99,100,323,1015,975
2025-02-19 16:18:44.465,-231.0,-680.0,253.0,-149.0,193.0,175.0,148,94,116,99,100,331,997,1008
2025-02-19 16:18:44.484,-268.0,-510.0,50.0,-110.0,172.0,178.0,144,90,113,96,97,339,1015,1008
2025-02-19 16:18:44.504,-379.0,-351.0,45.0,-94.0,155.0,176.0,147,98,120,104,104,361,1015,1007
2025-02-19 16:18:44.524,-352.0,-92.0,7.0,-71.0,136.0,162.0,132,84,107,89,90,370,1015,854
2025-02-19 16:18:44.541,-440.0,25.0,-129.0,-59.0,132.0,135.0,132,85,108,91,91,401,1015,554
2025-02-19 16:18:44.561,-430.0,130.0,-119.0,-54.0,117.0,105.0,129,82,105,88,88,444,1015,33
2025-02-19 16:18:44.578,-533.0,159.0,-69.0,-37.0,99.0,76.0,130,85,108,91,90,498,1015,36
2025-02-19 16:18:44.598,-519.0,189.0,-195.0,-34.0,94.0,54.0,130,85,108,91,90,529,1015,34
2025-02-19 16:18:44.619,-415.0,471.0,-414.0,-15.0,89.0,36.0,127,82,106,88,87,535,1016,32
2025-02-19 16:18:44.635,-420.0,823.0,-739.0,43.0,39.0,30.0,128,85,108,91,90,549,994,35
2025-02-19 16:18:44.656,-542.0,1357.0,-1235.0,121.0,-25.0,-33.0,123,81,104,87,87,554,626,32
2025-02-19 16:18:44.673,-671.0,1911.0,-1824.0,167.0,-109.0,-158.0,125,86,108,92,90,565,221,37
2025-02-19 16:18:44.693,-1078.0,2433.0,-2462.0,166.0,-325.0,-359.0,123,84,106,90,87,577,36,54
2025-02-19 16:18:44.713,219.0,2229.0,-1662.0,191.0,-623.0,-622.0,123,83,105,90,88,610,82,61
2025-02-19 16:18:44.733,1847.0,1111.0,126.0,71.0,-721.0,-774.0,128,85,108,92,92,626,248,180
2025-02-19 16:18:44.751,3916.0,-2321.0,2134.0,41.0,-687.0,-701.0,127,82,105,90,90,639,351,34
2025-02-19 16:18:44.768,5104.0,-6584.0,4233.0,-33.0,-302.0,-246.0,176,132,155,139,141,686,86,88
2025-02-19 16:18:44.787,3866.0,-5509.0,2813.0,212.0,117.0,122.0,154,109,132,116,117,655,61,440
2025-02-19 16:18:44.806,606.0,-1791.0,1980.0,155.0,183.0,207.0,129,82,106,91,94,633,35,569
2025-02-19 16:18:44.828,34.0,-1355.0,1340.0,-34.0,145.0,189.0,152,106,129,114,117,657,58,966
2025-02-19 16:18:44.847,41.0,-1497.0,1043.0,-55.0,130.0,192.0,144,97,121,106,109,661,49,1009
2025-02-19 16:18:44.865,-110.0,-1099.0,760.0,-64.0,141.0,218.0,153,106,130,115,118,680,59,1009
2025-02-19 16:18:44.884,-55.0,-696.0,572.0,-71.0,167.0,233.0,148,100,124,109,112,665,86,1008
2025-02-19 16:18:44.901,-258.0,-469.0,302.0,-74.0,160.0,231.0,151,103,126,112,116,636,294,1002
2025-02-19 16:18:44.921,-244.0,-325.0,230.0,-84.0,132.0,222.0,145,97,120,106,110,584,49,685
2025-02-19 16:18:44.939,-145.0,-218.0,265.0,-90.0,112.0,224.0,144,96,119,104,108,523,46,512
2025-02-19 16:18:44.959,-135.0,-227.0,349.0,-76.0,114.0,219.0,148,99,122,108,111,471,50,692
2025-02-19 16:18:44.979,-250.0,-145.0,156.0,-21.0,119.0,190.0,144,95,118,104,108,430,46,1008
2025-02-19 16:18:44.999,-486.0,113.0,19.0,-14.0,103.0,153.0,147,99,122,107,112,412,49,1007
2025-02-19 16:18:45.017,-480.0,270.0,49.0,-24.0,83.0,100.0,146,97,120,106,110,393,538,722
2025-02-19 16:18:45.036,-531.0,200.0,76.0,-15.0,60.0,66.0,150,103,126,112,115,392,1015,370
2025-02-19 16:18:45.056,-516.0,113.0,109.0,-11.0,61.0,47.0,144,97,119,105,110,390,1016,269
2025-02-19 16:18:45.074,-633.0,152.0,54.0,3.0,52.0,44.0,148,99,122,109,112,398,1015,417
2025-02-19 16:18:45.094,-611.0,527.0,-171.0,11.0,32.0,47.0,150,102,125,111,114,407,873,436
2025-02-19 16:18:45.111,-560.0,1141.0,-535.0,71.0,8.0,-16.0,144,96,119,106,108,399,375,411
2025-02-19 16:18:45.131,-1029.0,1649.0,-1315.0,184.0,-55.0,-179.0,147,99,121,109,111,396,262,156
2025-02-19 16:18:45.151,-1131.0,2423.0,-1693.0,149.0,-181.0,-429.0,141,94,115,102,106,393,147,44
2025-02-19 16:18:45.168,-830.0,2006.0,-1703.0,85.0,-532.0,-650.0,147,100,119,107,112,419,749,51
2025-02-19 16:18:45.188,1437.0,1248.0,-894.0,-2.0,-813.0,-827.0,140,90,110,99,105,449,1016,39
2025-02-19 16:18:45.208,5545.0,-3233.0,1902.0,123.0,-741.0,-692.0,149,94,113,102,109,519,1016,43
2025-02-19 16:18:45.225,6017.0,-5087.0,4290.0,-70.0,-209.0,-89.0,157,100,122,108,116,763,49,84
2025-02-19 16:18:45.246,2810.0,-4684.0,2156.0,115.0,149.0,60.0,200,147,167,156,164,1013,98,100
2025-02-19 16:18:45.265,1162.0,-2497.0,1815.0,68.0,207.0,175.0,195,140,161,149,158,1006,91,139
2025-02-19 16:18:45.283,434.0,-1549.0,1244.0,-96.0,212.0,215.0,178,122,140,130,141,1007,70,582
2025-02-19 16:18:45.303,206.0,-1513.0,763.0,-147.0,182.0,249.0,181,123,143,135,144,1012,73,1008
2025-02-19 16:18:45.323,136.0,-1285.0,479.0,-161.0,184.0,295.0,170,112,132,124,134,1013,480,1007
2025-02-19 16:18:45.340,-48.0,-898.0,211.0,-136.0,181.0,331.0,209,152,172,165,174,1014,1016,1010
2025-02-19 16:18:45.357,-7.0,-557.0,229.0,-114.0,145.0,338.0,196,135,155,148,159,963,791,1008
2025-02-19 16:18:45.377,-22.0,-152.0,132.0,-93.0,131.0,308.0,175,113,130,123,133,897,59,1008
2025-02-19 16:18:45.397,-191.0,-44.0,250.0,-105.0,86.0,288.0,181,115,135,128,138,825,65,1008
2025-02-19 16:18:45.418,30.0,97.0,574.0,-116.0,108.0,259.0,173,104,124,118,127,717,53,1009
2025-02-19 16:18:45.434,-78.0,-28.0,143.0,15.0,101.0,192.0,178,108,128,122,131,622,57,1010
2025-02-19 16:18:45.455,-239.0,321.0,185.0,32.0,125.0,154.0,177,103,123,118,125,515,51,1008
2025-02-19 16:18:45.475,-494.0,510.0,-23.0,15.0,85.0,119.0,181,108,128,124,130,429,57,975
2025-02-19 16:18:45.489,-551.0,892.0,54.0,27.0,70.0,42.0,185,108,129,123,128,347,99,689
2025-02-19 16:18:45.509,-526.0,1420.0,-128.0,105.0,77.0,-101.0,182,103,123,118,120,269,765,515
2025-02-19 16:18:45.531,-977.0,1959.0,-597.0,103.0,74.0,-249.0,184,105,124,119,117,209,1015,419
2025-02-19 16:18:45.549,-1351.0,1993.0,-1405.0,106.0,-74.0,-432.0,180,100,118,114,110,151,1017,144
2025-02-19 16:18:45.568,-871.0,2068.0,-1567.0,79.0,-310.0,-611.0,184,102,119,117,111,109,1006,52
2025-02-19 16:18:45.586,516.0,1317.0,-1426.0,-38.0,-575.0,-707.0,183,99,114,114,108,73,1016,48
2025-02-19 16:18:45.606,3180.0,-551.0,-324.0,-139.0,-725.0,-662.0,188,101,116,116,112,68,1017,53
2025-02-19 16:18:45.624,4691.0,-3229.0,1107.0,-379.0,-563.0,-439.0,200,115,131,129,126,85,577,65
2025-02-19 16:18:45.643,4647.0,-5956.0,1519.0,-140.0,-99.0,-170.0,197,110,128,126,123,115,61,75
2025-02-19 16:18:45.664,2499.0,-4749.0,421.0,258.0,206.0,41.0,199,112,131,129,126,157,65,63
2025-02-19 16:18:45.683,1217.0,-2146.0,189.0,138.0,203.0,124.0,193,106,124,123,120,175,56,56
2025-02-19 16:18:45.701,626.0,-1936.0,161.0,-5.0,122.0,192.0,189,102,120,118,117,201,52,151
2025-02-19 16:18:45.720,413.0,-2059.0,-21.0,-31.0,71.0,246.0,197,111,129,126,124,231,60,519
2025-02-19 16:18:45.737,541.0,-1237.0,190.0,2.0,63.0,276.0,208,123,140,138,137,266,73,846
2025-02-19 16:18:45.758,377.0,-981.0,283.0,93.0,111.0,208.0,209,124,142,139,138,283,75,1009
2025-02-19 16:18:45.778,158.0,-646.0,223.0,41.0,116.0,227.0,203,117,134,131,131,296,66,1011
2025-02-19 16:18:45.794,-71.0,-721.0,190.0,-18.0,87.0,245.0,181,93,110,108,107,296,42,1011
2025-02-19 16:18:45.815,145.0,-193.0,443.0,-13.0,66.0,232.0,178,89,106,104,104,302,37,1010
2025-02-19 16:18:45.835,36.0,-426.0,403.0,52.0,116.0,187.0,178,90,107,105,105,310,178,879
2025-02-19 16:18:45.853,-99.0,-293.0,221.0,57.0,135.0,199.0,178,90,108,106,105,314,1016,481
2025-02-19 16:18:45.872,-229.0,-67.0,166.0,30.0,112.0,199.0,180,93,111,108,108,316,1018,42
2025-02-19 16:18:45.892,-295.0,-63.0,212.0,-22.0,91.0,213.0,185,99,116,114,113,311,1017,47
2025-02-19 16:18:45.908,-87.0,161.0,290.0,97.0,126.0,99.0,178,90,108,106,105,295,1018,38
2025-02-19 16:18:45.929,-478.0,458.0,73.0,76.0,123.0,84.0,180,93,110,108,107,290,1017,72
2025-02-19 16:18:45.945,-521.0,852.0,-35.0,46.0,104.0,38.0,176,89,108,105,104,271,344,86
2025-02-19 16:18:45.967,-766.0,1661.0,-384.0,27.0,68.0,-65.0,186,101,119,115,114,259,49,261
2025-02-19 16:18:45.987,-973.0,2234.0,-1175.0,122.0,29.0,-255.0,180,93,112,110,107,230,42,516
2025-02-19 16:18:46.007,-1383.0,2149.0,-1985.0,136.0,-158.0,-433.0,174,88,108,104,101,206,36,287
2025-02-19 16:18:46.024,-596.0,1954.0,-1956.0,99.0,-413.0,-548.0,190,105,123,122,119,208,54,130
2025-02-19 16:18:46.043,1334.0,1162.0,-715.0,-89.0,-630.0,-646.0,195,108,124,124,122,219,57,57
2025-02-19 16:18:46.061,4485.0,-2004.0,1090.0,-357.0,-605.0,-532.0,198,112,127,127,125,260,61,60
2025-02-19 16:18:46.082,5050.0,-5181.0,1852.0,-246.0,-254.0,-309.0,261,181,196,195,192,376,134,134
2025-02-19 16:18:46.101,3414.0,-5977.0,1139.0,118.0,140.0,-21.0,213,128,145,144,140,391,126,109
2025-02-19 16:18:46.118,1506.0,-3565.0,321.0,112.0,178.0,128.0,230,146,163,162,159,476,354,98
2025-02-19 16:18:46.138,818.0,-2468.0,367.0,-34.0,113.0,199.0,222,138,155,154,151,528,151,89
2025-02-19 16:18:46.157,629.0,-2502.0,349.0,-68.0,100.0,271.0,220,136,153,152,150,576,86,109
2025-02-19 16:18:46.175,636.0,-1934.0,300.0,-25.0,123.0,320.0,220,133,152,151,149,583,464,87
2025-02-19 16:18:46.196,509.0,-1331.0,338.0,20.0,129.0,332.0,201,116,130,132,130,516,406,66
2025-02-19 16:18:46.213,529.0,-888.0,295.0,-1.0,153.0,332.0,194,109,126,124,123,375,57,156
2025-02-19 16:18:46.233,350.0,-545.0,388.0,-29.0,158.0,341.0,199,113,132,130,128,256,63,618
2025-02-19 16:18:46.253,51.0,-442.0,271.0,-28.0,120.0,330.0,201,116,134,132,132,218,85,604
2025-02-19 16:18:46.270,214.0,-195.0,167.0,3.0,121.0,319.0,191,107,124,122,124,169,683,605
2025-02-19 16:18:46.289,299.0,24.0,129.0,26.0,152.0,318.0,194,109,129,127,128,154,1018,1008
2025-02-19 16:18:46.310,205.0,389.0,39.0,10.0,230.0,289.0,210,128,147,144,148,181,1018,1011
2025-02-19 16:18:46.327,-183.0,470.0,-72.0,49.0,179.0,250.0,181,96,117,115,121,171,833,1010
2025-02-19 16:18:46.347,-456.0,599.0,-99.0,107.0,106.0,208.0,158,72,95,92,102,166,1017,1009
2025-02-19 16:18:46.368,-119.0,1267.0,-229.0,166.0,128.0,126.0,159,76,98,97,111,189,1018,1007
2025-02-19 16:18:46.385,-564.0,1436.0,-831.0,272.0,120.0,22.0,156,77,100,100,117,188,1017,789
2025-02-19 16:18:46.405,-761.0,1918.0,-1603.0,340.0,22.0,-165.0,153,79,98,105,119,188,1018,521
2025-02-19 16:18:46.424,-1404.0,2350.0,-1835.0,293.0,-150.0,-425.0,151,87,101,117,125,199,762,241
2025-02-19 16:18:46.442,-241.0,1538.0,-1515.0,-57.0,-228.0,-708.0,141,95,100,120,129,209,711,36
2025-02-19 16:18:46.462,2873.0,398.0,757.0,-218.0,-623.0,-884.0,144,112,106,127,136,241,17,219
2025-02-19 16:18:46.482,2641.0,-2375.0,1355.0,-225.0,-673.0,-842.0,151,126,111,134,141,297,20,319
2025-02-19 16:18:46.500,3540.0,-4831.0,1325.0,-141.0,-421.0,-272.0,183,156,142,165,173,399,51,842
2025-02-19 16:18:46.519,2788.0,-5013.0,997.0,55.0,-102.0,25.0,189,163,148,171,180,501,56,987
2025-02-19 16:18:46.536,1054.0,-3093.0,887.0,220.0,166.0,173.0,172,145,129,153,161,631,36,399
2025-02-19 16:18:46.556,77.0,-1703.0,504.0,40.0,132.0,189.0,181,156,139,162,171,765,1009,46
2025-02-19 16:18:46.576,-52.0,-1650.0,212.0,-87.0,51.0,201.0,183,159,142,164,174,758,1017,48
2025-02-19 16:18:46.593,74.0,-1596.0,274.0,-88.0,43.0,239.0,180,155,137,159,170,677,1017,43
2025-02-19 16:18:46.612,168.0,-1314.0,308.0,-18.0,86.0,269.0,186,163,145,167,176,573,502,51
2025-02-19 16:18:46.633,125.0,-825.0,261.0,19.0,130.0,290.0,185,161,144,167,175,431,51,513
2025-02-19 16:18:46.650,35.0,-708.0,199.0,52.0,129.0,288.0,188,165,147,169,177,355,53,1009
2025-02-19 16:18:46.671,-24.0,-396.0,208.0,12.0,82.0,247.0,196,171,155,177,184,330,62,1010
2025-02-19 16:18:46.688,-95.0,-89.0,268.0,-1.0,63.0,191.0,178,154,137,159,167,298,42,1010
2025-02-19 16:18:46.708,-247.0,-17.0,193.0,-25.0,64.0,165.0,174,150,133,155,163,290,44,913
2025-02-19 16:18:46.727,-347.0,-105.0,190.0,-45.0,61.0,155.0,174,150,133,156,163,298,222,919
2025-02-19 16:18:46.745,-275.0,-82.0,180.0,-3.0,73.0,138.0,175,151,135,157,165,314,721,1009
2025-02-19 16:18:46.764,-318.0,136.0,114.0,13.0,73.0,95.0,170,147,131,153,161,313,1016,1009
2025-02-19 16:18:46.785,-436.0,237.0,61.0,50.0,72.0,43.0,172,148,133,155,163,302,1016,917
2025-02-19 16:18:46.799,-669.0,529.0,-54.0,30.0,59.0,-9.0,168,145,130,151,159,285,1017,661
2025-02-19 16:18:46.822,-625.0,697.0,-178.0,30.0,20.0,-78.0,172,149,134,156,164,312,1017,296
2025-02-19 16:18:46.842,-513.0,890.0,-287.0,104.0,-1.0,-174.0,167,146,132,152,162,374,886,35
2025-02-19 16:18:46.859,-565.0,1204.0,-390.0,155.0,-39.0,-293.0,168,147,133,154,163,442,662,37
2025-02-19 16:18:46.880,-631.0,1181.0,-713.0,145.0,-143.0,-401.0,171,152,137,158,167,523,48,41
2025-02-19 16:18:46.900,263.0,358.0,-186.0,18.0,-302.0,-557.0,171,153,137,157,167,604,39,366
2025-02-19 16:18:46.915,1674.0,-1831.0,769.0,14.0,-439.0,-602.0,181,163,147,167,176,685,574,820
2025-02-19 16:18:46.938,4287.0,-2412.0,800.0,-126.0,-383.0,-403.0,180,158,143,164,172,766,1017,1009
2025-02-19 16:18:46.957,2480.0,-4301.0,1159.0,-155.0,-158.0,-122.0,188,164,150,171,179,874,1016,1010
2025-02-19 16:18:46.974,1756.0,-4377.0,1023.0,43.0,43.0,69.0,193,169,155,177,184,929,860,1010
2025-02-19 16:18:46.993,620.0,-2804.0,713.0,88.0,141.0,170.0,194,170,156,177,184,905,273,1011
2025-02-19 16:18:47.010,247.0,-2016.0,537.0,-19.0,114.0,200.0,194,171,157,178,185,864,431,1009
2025-02-19 16:18:47.031,146.0,-1734.0,351.0,-76.0,75.0,216.0,186,162,148,170,176,819,314,872
2025-02-19 16:18:47.048,186.0,-1506.0,353.0,-7.0,83.0,220.0,193,170,156,178,183,791,68,592
2025-02-19 16:18:47.068,92.0,-1011.0,440.0,11.0,123.0,241.0,187,163,150,171,177,688,236,589
2025-02-19 16:18:47.089,102.0,-730.0,313.0,-13.0,133.0,253.0,192,166,155,176,182,555,667,927
2025-02-19 16:18:47.108,-26.0,-502.0,205.0,-39.0,105.0,256.0,186,156,147,168,172,414,730,1009
2025-02-19 16:18:47.126,18.0,-339.0,271.0,-35.0,89.0,239.0,190,155,151,170,173,317,298,978
2025-02-19 16:18:47.146,25.0,-253.0,216.0,-20.0,75.0,221.0,191,149,150,170,167,244,60,652
2025-02-19 16:18:47.162,-123.0,-366.0,202.0,4.0,79.0,223.0,184,133,143,161,152,184,50,231
2025-02-19 16:18:47.183,-203.0,-187.0,105.0,-10.0,66.0,245.0,187,130,146,160,148,154,54,54
2025-02-19 16:18:47.203,-296.0,-71.0,336.0,63.0,50.0,228.0,183,118,140,149,138,123,348,49
2025-02-19 16:18:47.220,-386.0,150.0,70.0,119.0,121.0,179.0,195,125,152,155,147,122,593,63
2025-02-19 16:18:47.241,-302.0,512.0,-129.0,180.0,105.0,105.0,192,117,144,143,138,115,59,58
2025-02-19 16:18:47.260,-445.0,1822.0,-534.0,172.0,48.0,-66.0,199,123,151,143,144,147,68,68
2025-02-19 16:18:47.277,-864.0,2276.0,-1286.0,104.0,-18.0,-294.0,198,121,145,137,140,194,177,69
2025-02-19 16:18:47.298,-1001.0,2103.0,-1876.0,66.0,-217.0,-466.0,187,107,128,121,121,238,954,57
2025-02-19 16:18:47.316,-434.0,1335.0,-1701.0,77.0,-450.0,-587.0,189,104,123,117,115,351,1017,196
2025-02-19 16:18:47.336,826.0,1104.0,-1235.0,-67.0,-668.0,-622.0,181,93,111,104,102,508,1009,444
2025-02-19 16:18:47.355,3812.0,-1459.0,355.0,-183.0,-670.0,-535.0,179,90,108,100,101,819,1016,311
2025-02-19 16:18:47.375,4769.0,-3917.0,2498.0,-159.0,-329.0,-311.0,178,87,107,97,101,1017,1017,688
2025-02-19 16:18:47.392,3048.0,-5204.0,1342.0,64.0,50.0,-115.0,181,90,109,101,106,1017,1017,1010
2025-02-19 16:18:47.412,1778.0,-3629.0,838.0,136.0,103.0,42.0,197,108,126,118,123,1017,1017,1010
2025-02-19 16:18:47.429,894.0,-2495.0,748.0,-12.0,93.0,124.0,193,103,122,115,120,1017,1017,1009
2025-02-19 16:18:47.449,570.0,-2395.0,653.0,-5.0,64.0,137.0,209,123,140,133,138,1018,1017,1010
2025-02-19 16:18:47.470,476.0,-2060.0,634.0,34.0,86.0,181.0,201,114,132,125,130,972,1017,1010
2025-02-19 16:18:47.487,366.0,-1679.0,536.0,34.0,93.0,222.0,201,113,132,124,129,874,1008,1006
2025-02-19 16:18:47.507,335.0,-1384.0,455.0,-22.0,76.0,283.0,196,108,126,119,123,708,461,1010
2025-02-19 16:18:47.526,451.0,-684.0,585.0,49.0,97.0,183.0,193,104,124,116,120,551,55,1010
2025-02-19 16:18:47.544,284.0,-637.0,541.0,-6.0,110.0,212.0,195,107,127,119,122,412,57,1010
2025-02-19 16:18:47.563,225.0,-513.0,399.0,-20.0,113.0,223.0,188,100,121,112,116,295,51,1003
2025-02-19 16:18:47.584,141.0,-168.0,266.0,-12.0,102.0,214.0,191,104,124,115,119,214,113,958
2025-02-19 16:18:47.600,16.0,77.0,166.0,19.0,113.0,150.0,193,106,127,118,122,157,572,1009
2025-02-19 16:18:47.621,-164.0,179.0,123.0,8.0,94.0,125.0,207,122,142,134,138,148,813,1010
2025-02-19 16:18:47.637,-323.0,251.0,34.0,-8.0,83.0,91.0,205,119,139,131,135,145,1016,1010
2025-02-19 16:18:47.658,-467.0,434.0,64.0,-14.0,47.0,42.0,179,91,111,104,108,119,1017,1008
2025-02-19 16:18:47.678,-613.0,549.0,9.0,-15.0,26.0,-10.0,184,98,118,111,114,133,1017,798
2025-02-19 16:18:47.694,-625.0,745.0,-35.0,-27.0,10.0,-62.0,171,83,103,95,100,129,1017,276
2025-02-19 16:18:47.715,-640.0,1019.0,-119.0,-30.0,-7.0,-122.0,173,85,104,97,103,159,889,33
2025-02-19 16:18:47.733,-693.0,1316.0,-271.0,2.0,-22.0,-201.0,170,84,103,96,101,196,1017,31
2025-02-19 16:18:47.752,-742.0,1289.0,-538.0,39.0,-53.0,-312.0,172,84,104,97,102,240,875,32
2025-02-19 16:18:47.773,-631.0,957.0,-726.0,22.0,-155.0,-374.0,175,89,108,101,107,299,99,37
2025-02-19 16:18:47.793,652.0,238.0,-446.0,-59.0,-283.0,-453.0,174,89,108,101,107,359,36,36
2025-02-19 16:18:47.810,2267.0,-1683.0,232.0,-133.0,-335.0,-425.0,187,100,120,114,119,446,49,53
2025-02-19 16:18:47.830,3273.0,-3766.0,1186.0,-137.0,-229.0,-271.0,224,142,160,154,161,546,93,357
2025-02-19 16:18:47.846,3046.0,-5000.0,1109.0,14.0,4.0,-89.0,212,127,146,140,146,590,344,592
2025-02-19 16:18:47.867,1889.0,-4263.0,535.0,99.0,92.0,84.0,199,114,133,128,134,655,870,222
2025-02-19 16:18:47.884,875.0,-2739.0,537.0,57.0,101.0,162.0,182,95,115,109,115,722,739,43
2025-02-19 16:18:47.904,559.0,-2293.0,502.0,-32.0,98.0,211.0,180,92,113,105,112,794,283,39
2025-02-19 16:18:47.924,523.0,-2060.0,470.0,-55.0,106.0,256.0,177,89,113,103,109,806,394,37
2025-02-19 16:18:47.945,374.0,-1583.0,510.0,12.0,117.0,282.0,179,93,119,107,112,711,579,135
2025-02-19 16:18:47.961,513.0,-1595.0,349.0,40.0,141.0,310.0,176,91,116,103,108,534,527,538
2025-02-19 16:18:47.982,402.0,-699.0,122.0,63.0,160.0,316.0,179,98,121,107,112,359,190,1010
2025-02-19 16:18:48.000,595.0,-618.0,335.0,4.0,200.0,315.0,182,108,128,113,118,243,41,1010
2025-02-19 16:18:48.019,303.0,-304.0,324.0,-14.0,197.0,323.0,211,147,161,147,151,201,264,1011
2025-02-19 16:18:48.039,147.0,73.0,-29.0,20.0,222.0,332.0,201,148,155,141,143,153,69,1010
2025-02-19 16:18:48.056,170.0,600.0,-81.0,22.0,205.0,307.0,187,145,146,130,130,146,690,1010
2025-02-19 16:18:48.076,-279.0,770.0,-285.0,53.0,153.0,250.0,192,157,156,140,140,190,1018,895
2025-02-19 16:18:48.095,-295.0,1057.0,-579.0,62.0,92.0,147.0,180,151,149,133,132,225,1018,730
2025-02-19 16:18:48.113,-493.0,1245.0,-801.0,113.0,11.0,38.0,192,169,165,149,148,282,1018,1008
2025-02-19 16:18:48.134,-568.0,1515.0,-702.0,123.0,-53.0,-74.0,182,163,157,138,138,305,1018,1011
2025-02-19 16:18:48.153,-727.0,1526.0,-909.0,169.0,-138.0,-255.0,185,172,165,144,144,358,1017,1010
2025-02-19 16:18:48.171,-716.0,1620.0,-937.0,257.0,-271.0,-475.0,179,171,163,142,139,414,965,1004
2025-02-19 16:18:48.191,-436.0,1550.0,-884.0,251.0,-475.0,-680.0,170,165,157,137,132,475,590,606
2025-02-19 16:18:48.211,1667.0,1219.0,81.0,-14.0,-727.0,-779.0,171,172,161,142,136,568,678,67
2025-02-19 16:18:48.228,3495.0,-2224.0,859.0,-165.0,-796.0,-564.0,169,173,161,140,133,652,1008,64
2025-02-19 16:18:48.248,4457.0,-4216.0,1685.0,-51.0,-431.0,-226.0,174,181,165,146,144,731,1018,71
2025-02-19 16:18:48.267,4056.0,-4205.0,2108.0,71.0,-20.0,32.0,172,179,163,143,144,790,1017,67
2025-02-19 16:18:48.284,1922.0,-3000.0,1633.0,167.0,234.0,102.0,171,178,162,141,143,839,1017,65
2025-02-19 16:18:48.303,794.0,-1879.0,1016.0,45.0,203.0,168.0,169,176,159,137,140,862,1018,61
2025-02-19 16:18:48.320,623.0,-1689.0,720.0,-26.0,150.0,227.0,166,173,155,133,137,980,999,82
2025-02-19 16:18:48.342,471.0,-1352.0,614.0,-64.0,123.0,255.0,163,169,152,129,132,1017,1018,217
2025-02-19 16:18:48.362,423.0,-969.0,628.0,-66.0,149.0,282.0,161,166,148,125,128,1017,922,737
2025-02-19 16:18:48.379,318.0,-783.0,539.0,-31.0,176.0,281.0,160,165,147,124,127,957,684,1011
2025-02-19 16:18:48.399,261.0,-460.0,345.0,-1.0,184.0,288.0,159,163,146,123,125,816,470,1010
2025-02-19 16:18:48.417,104.0,-71.0,283.0,-2.0,180.0,285.0,157,161,145,122,124,691,310,1010
2025-02-19 16:18:48.436,-56.0,150.0,219.0,-16.0,167.0,261.0,159,163,147,123,126,607,472,956
2025-02-19 16:18:48.457,-221.0,306.0,72.0,-25.0,154.0,217.0,159,163,147,124,126,545,1017,321
2025-02-19 16:18:48.477,-247.0,398.0,0.0,-22.0,130.0,179.0,186,191,176,153,154,527,1018,294
2025-02-19 16:18:48.494,-392.0,562.0,-85.0,-14.0,104.0,129.0,175,178,164,141,142,477,995,483
2025-02-19 16:18:48.514,-477.0,708.0,-146.0,-42.0,50.0,59.0,177,179,166,143,144,459,68,715
2025-02-19 16:18:48.531,-450.0,738.0,-209.0,-43.0,14.0,-6.0,173,175,159,137,139,437,62,744
2025-02-19 16:18:48.551,-578.0,763.0,-381.0,91.0,-2.0,-130.0,170,171,156,134,136,423,59,789
2025-02-19 16:18:48.570,-823.0,1282.0,-501.0,233.0,-41.0,-265.0,170,173,160,135,138,440,60,581
2025-02-19 16:18:48.588,-897.0,1649.0,-600.0,209.0,-180.0,-465.0,163,166,159,128,132,497,531,57
2025-02-19 16:18:48.609,-10.0,1220.0,-276.0,118.0,-420.0,-640.0,166,171,159,132,136,617,59,58
2025-02-19 16:18:48.629,1329.0,-1439.0,458.0,96.0,-591.0,-641.0,164,169,157,131,134,708,282,60
2025-02-19 16:18:48.646,3176.0,-2401.0,2177.0,-14.0,-448.0,-357.0,159,164,150,125,131,815,226,391
2025-02-19 16:18:48.665,3909.0,-3965.0,2327.0,-95.0,-159.0,-68.0,162,165,151,127,136,859,51,1009
2025-02-19 16:18:48.686,2536.0,-3622.0,2198.0,40.0,111.0,79.0,157,160,146,122,132,768,186,989
2025-02-19 16:18:48.703,1070.0,-2354.0,1590.0,-8.0,176.0,130.0,159,159,146,122,131,640,315,848
2025-02-19 16:18:48.723,554.0,-1997.0,1101.0,-127.0,154.0,191.0,155,154,142,118,127,543,587,934
2025-02-19 16:18:48.743,561.0,-1940.0,786.0,-157.0,150.0,237.0,157,151,141,118,129,453,780,1010
2025-02-19 16:18:48.760,496.0,-1686.0,561.0,-117.0,164.0,281.0,155,141,136,116,130,360,1017,1010
2025-02-19 16:18:48.780,301.0,-1062.0,439.0,-76.0,155.0,302.0,160,136,136,125,140,253,1017,1009
2025-02-19 16:18:48.798,-5.0,-531.0,499.0,-54.0,151.0,267.0,180,139,151,147,158,105,1018,1001
2025-02-19 16:18:48.817,30.0,-60.0,562.0,-120.0,148.0,219.0,179,118,143,141,148,49,933,1011
2025-02-19 16:18:48.838,-43.0,-6.0,392.0,-193.0,123.0,203.0,180,109,140,134,138,50,378,1010
2025-02-19 16:18:48.853,81.0,-51.0,214.0,-106.0,152.0,191.0,177,99,131,126,127,45,56,1010
2025-02-19 16:18:48.872,-153.0,137.0,-196.0,-20.0,119.0,149.0,177,97,125,122,123,43,44,1010
2025-02-19 16:18:48.895,-622.0,353.0,-196.0,-44.0,74.0,95.0,175,95,119,116,116,42,42,1010
2025-02-19 16:18:48.912,-559.0,920.0,-404.0,-71.0,2.0,18.0,178,100,118,117,114,45,45,1009
2025-02-19 16:18:48.932,-473.0,911.0,-315.0,-49.0,-22.0,-60.0,202,125,141,141,137,72,251,967
2025-02-19 16:18:48.951,-372.0,1045.0,-415.0,8.0,-21.0,-152.0,191,115,129,130,126,71,1018,858
2025-02-19 16:18:48.969,-544.0,1207.0,-658.0,41.0,-49.0,-235.0,187,115,128,129,124,107,1018,593
2025-02-19 16:18:48.989,-776.0,1234.0,-1041.0,61.0,-127.0,-329.0,180,109,122,125,117,169,1018,101
2025-02-19 16:18:49.005,-297.0,1302.0,-1000.0,24.0,-283.0,-430.0,186,115,129,130,123,260,1018,63
2025-02-19 16:18:49.024,885.0,619.0,-334.0,-69.0,-379.0,-472.0,183,108,122,123,118,353,1018,57
2025-02-19 16:18:49.046,2339.0,-1345.0,648.0,-111.0,-351.0,-464.0,189,114,129,130,125,469,1017,230
2025-02-19 16:18:49.064,3075.0,-3196.0,1127.0,-47.0,-207.0,-365.0,194,118,135,133,130,584,1018,685
2025-02-19 16:18:49.084,3021.0,-4037.0,976.0,-13.0,-69.0,-157.0,191,114,130,129,126,669,1018,837
2025-02-19 16:18:49.104,2267.0,-4229.0,790.0,9.0,37.0,-9.0,198,123,139,138,135,769,858,384
2025-02-19 16:18:49.121,1468.0,-3313.0,446.0,6.0,64.0,114.0,199,124,140,139,136,851,871,72
2025-02-19 16:18:49.139,956.0,-2630.0,191.0,11.0,54.0,158.0,204,131,147,145,144,897,1018,81
2025-02-19 16:18:49.155,660.0,-2148.0,30.0,28.0,43.0,189.0,188,113,129,128,125,898,1017,61
2025-02-19 16:18:49.175,602.0,-1617.0,128.0,45.0,46.0,223.0,176,102,118,116,114,894,1017,48
2025-02-19 16:18:49.197,522.0,-1078.0,244.0,44.0,49.0,233.0,177,102,118,116,114,856,898,45
2025-02-19 16:18:49.215,436.0,-626.0,300.0,39.0,51.0,218.0,171,94,111,109,108,769,421,191
2025-02-19 16:18:49.235,288.0,-415.0,291.0,10.0,38.0,208.0,175,99,116,115,113,693,45,46
2025-02-19 16:18:49.253,188.0,-359.0,244.0,-10.0,39.0,215.0,172,97,113,111,117,605,42,44
2025-02-19 16:18:49.272,240.0,-92.0,289.0,-10.0,47.0,201.0,172,96,113,111,108,530,117,325
2025-02-19 16:18:49.290,38.0,127.0,196.0,32.0,67.0,153.0,174,97,113,112,109,474,1017,917
2025-02-19 16:18:49.313,-258.0,400.0,114.0,8.0,53.0,117.0,188,112,129,127,125,481,1018,1012
2025-02-19 16:18:49.330,-387.0,583.0,178.0,-4.0,45.0,77.0,198,124,140,138,136,506,1017,1011
2025-02-19 16:18:49.350,-539.0,768.0,218.0,-3.0,46.0,24.0,211,137,154,151,150,552,1019,902
2025-02-19 16:18:49.370,-734.0,1177.0,198.0,16.0,62.0,-41.0,206,132,148,145,144,584,1017,1012
2025-02-19 16:18:49.387,-939.0,1611.0,-88.0,34.0,79.0,-126.0,203,129,146,143,141,614,1017,986
2025-02-19 16:18:49.405,-1083.0,1628.0,-453.0,83.0,40.0,-245.0,201,128,145,146,139,645,1018,445
2025-02-19 16:18:49.427,-833.0,1417.0,-707.0,107.0,-53.0,-347.0,199,125,142,138,136,687,1017,71
2025-02-19 16:18:49.443,607.0,859.0,-532.0,18.0,-218.0,-472.0,193,120,136,133,132,757,862,65
2025-02-19 16:18:49.464,2329.0,-1416.0,78.0,-82.0,-328.0,-459.0,209,136,149,150,149,874,82,280
2025-02-19 16:18:49.482,3816.0,-3749.0,1512.0,-123.0,-213.0,-294.0,193,118,130,131,132,952,62,636
2025-02-19 16:18:49.502,3156.0,-5056.0,962.0,-24.0,20.0,-99.0,203,128,140,145,142,1018,72,974
2025-02-19 16:18:49.520,1998.0,-3895.0,336.0,61.0,75.0,43.0,183,105,119,120,120,982,50,546
2025-02-19 16:18:49.537,778.0,-2783.0,224.0,8.0,54.0,124.0,179,100,115,116,115,926,45,45
2025-02-19 16:18:49.558,498.0,-2484.0,235.0,-5.0,35.0,146.0,187,110,124,125,125,835,54,82
2025-02-19 16:18:49.579,649.0,-2478.0,382.0,-15.0,58.0,221.0,182,103,119,120,119,770,49,244
2025-02-19 16:18:49.596,935.0,-2178.0,323.0,21.0,86.0,293.0,187,110,125,126,126,893,55,724
2025-02-19 16:18:49.616,1039.0,-1283.0,332.0,130.0,126.0,260.0,183,104,120,121,122,873,48,1011
2025-02-19 16:18:49.633,694.0,-795.0,534.0,123.0,166.0,269.0,185,108,124,124,126,716,52,1011
2025-02-19 16:18:49.653,613.0,-515.0,363.0,48.0,204.0,288.0,181,105,123,121,123,512,49,1010
2025-02-19 16:18:49.673,391.0,-433.0,124.0,15.0,196.0,317.0,183,109,127,126,127,354,54,925
2025-02-19 16:18:49.690,292.0,-23.0,93.0,-18.0,170.0,328.0,168,98,116,113,115,237,41,459
2025-02-19 16:18:49.711,224.0,156.0,70.0,-39.0,162.0,319.0,157,89,107,105,106,172,184,33
2025-02-19 16:18:49.730,180.0,102.0,-111.0,-21.0,164.0,332.0,169,107,125,121,120,175,761,165
2025-02-19 16:18:49.746,-31.0,476.0,-424.0,98.0,138.0,297.0,174,119,137,133,130,214,1017,363
2025-02-19 16:18:49.768,-297.0,607.0,-532.0,186.0,95.0,222.0,177,129,146,143,138,297,1018,187
2025-02-19 16:18:49.788,-366.0,1600.0,-778.0,188.0,65.0,104.0,149,106,125,121,115,360,1017,51
2025-02-19 16:18:49.805,-751.0,2780.0,-1295.0,155.0,-20.0,-157.0,147,108,128,124,116,437,1018,54
2025-02-19 16:18:49.825,-759.0,2894.0,-1779.0,42.0,-159.0,-358.0,147,111,130,126,118,495,1017,58
2025-02-19 16:18:49.845,-571.0,2158.0,-1955.0,32.0,-347.0,-552.0,131,96,114,112,104,536,948,63
2025-02-19 16:18:49.859,254.0,1289.0,-1305.0,14.0,-573.0,-616.0,136,101,121,117,109,599,47,161
2025-02-19 16:18:49.881,2685.0,92.0,1188.0,-192.0,-521.0,-619.0,130,97,116,113,105,655,99,41
2025-02-19 16:18:49.899,4224.0,-4053.0,2286.0,-225.0,-301.0,-448.0,130,98,118,114,107,707,43,42
2025-02-19 16:18:49.920,3958.0,-6388.0,2190.0,49.0,11.0,-166.0,128,98,117,113,107,751,41,48
2025-02-19 16:18:49.939,1575.0,-4239.0,1301.0,84.0,68.0,79.0,134,103,122,118,113,809,47,164
2025-02-19 16:18:49.956,737.0,-3057.0,942.0,-51.0,27.0,153.0,135,103,121,117,113,889,47,610
2025-02-19 16:18:49.976,477.0,-2244.0,922.0,-25.0,44.0,150.0,134,100,119,115,112,973,1017,1010
2025-02-19 16:18:49.996,59.0,-1888.0,681.0,-19.0,66.0,161.0,138,105,123,119,115,1017,1018,1010
2025-02-19 16:18:50.013,14.0,-1382.0,568.0,-19.0,56.0,181.0,133,99,117,113,110,1017,1018,877
2025-02-19 16:18:50.034,65.0,-902.0,528.0,-25.0,48.0,177.0,134,101,120,116,112,1017,1017,530
2025-02-19 16:18:50.054,100.0,-545.0,494.0,-36.0,46.0,162.0,132,98,116,112,109,1018,1017,131
2025-02-19 16:18:50.071,107.0,-347.0,440.0,-31.0,66.0,148.0,136,102,120,117,113,1017,1017,174
2025-02-19 16:18:50.090,23.0,-139.0,241.0,-21.0,80.0,137.0,129,94,113,110,106,994,1017,765
2025-02-19 16:18:50.108,-156.0,169.0,111.0,-27.0,69.0,111.0,126,90,109,105,101,924,1017,1010
2025-02-19 16:18:50.127,-128.0,333.0,127.0,-44.0,56.0,72.0,138,103,121,117,113,854,1017,1010
2025-02-19 16:18:50.148,-212.0,285.0,106.0,-64.0,48.0,38.0,133,98,117,113,109,766,1017,1009
2025-02-19 16:18:50.164,-283.0,350.0,30.0,-59.0,39.0,9.0,139,104,122,119,115,693,1018,1011
2025-02-19 16:18:50.185,-271.0,390.0,8.0,-53.0,45.0,-16.0,121,84,104,100,96,598,1017,1009
2025-02-19 16:18:50.205,-392.0,391.0,-154.0,-24.0,42.0,-46.0,123,86,106,102,98,532,1017,993
2025-02-19 16:18:50.223,-492.0,713.0,-353.0,31.0,38.0,-85.0,135,99,119,114,110,485,1018,844
2025-02-19 16:18:50.241,-713.0,1104.0,-528.0,92.0,22.0,-161.0,129,94,114,109,105,441,543,371
2025-02-19 16:18:50.263,-792.0,1074.0,-771.0,160.0,-56.0,-268.0,132,97,116,112,108,437,40,40
2025-02-19 16:18:50.278,-311.0,305.0,-891.0,197.0,-216.0,-405.0,129,94,113,108,105,468,36,39
2025-02-19 16:18:50.299,1133.0,-1314.0,-393.0,258.0,-461.0,-387.0,132,95,114,110,108,539,38,400
2025-02-19 16:18:50.319,3676.0,-2745.0,3121.0,193.0,-248.0,-177.0,139,98,117,114,110,562,41,857
2025-02-19 16:18:50.337,2487.0,-3546.0,2665.0,166.0,25.0,-114.0,151,112,131,127,124,536,56,500
2025-02-19 16:18:50.356,1667.0,-3956.0,2373.0,167.0,89.0,26.0,144,105,123,119,117,478,49,49
2025-02-19 16:18:50.375,841.0,-2953.0,2126.0,103.0,114.0,132.0,146,106,124,121,119,420,51,51
2025-02-19 16:18:50.395,627.0,-2432.0,1849.0,79.0,141.0,170.0,149,107,125,122,121,631,52,308
2025-02-19 16:18:50.414,616.0,-2008.0,1490.0,94.0,194.0,206.0,148,104,121,118,119,612,49,743
2025-02-19 16:18:50.429,479.0,-1501.0,1123.0,120.0,233.0,234.0,150,101,120,115,121,265,46,1011
2025-02-19 16:18:50.452,544.0,-756.0,1054.0,104.0,272.0,220.0,156,103,123,116,120,47,1018,1010
2025-02-19 16:18:50.471,503.0,-435.0,833.0,77.0,317.0,199.0,154,98,119,113,116,42,1018,746
2025-02-19 16:18:50.488,433.0,-231.0,512.0,58.0,349.0,191.0,154,96,118,112,116,40,1017,394
2025-02-19 16:18:50.508,263.0,-73.0,21.0,75.0,358.0,179.0,160,103,125,117,123,46,627,144
2025-02-19 16:18:50.526,124.0,-11.0,-170.0,73.0,337.0,179.0,171,116,136,127,134,57,1018,57
2025-02-19 16:18:50.544,213.0,79.0,-462.0,97.0,316.0,163.0,170,121,133,126,131,55,1017,55
2025-02-19 16:18:50.561,-17.0,289.0,-715.0,94.0,279.0,130.0,157,114,119,111,117,40,1017,40
2025-02-19 16:18:50.581,-470.0,469.0,-1312.0,77.0,167.0,93.0,180,142,142,134,138,65,1017,164
2025-02-19 16:18:50.603,-564.0,671.0,-1352.0,81.0,21.0,42.0,159,125,119,111,115,55,1018,664
2025-02-19 16:18:50.622,-373.0,561.0,-1216.0,44.0,-67.0,20.0,159,130,119,112,116,86,1017,1011
2025-02-19 16:18:50.640,-556.0,326.0,-1675.0,87.0,-188.0,-49.0,146,127,111,102,105,120,1018,1009
2025-02-19 16:18:50.661,-777.0,227.0,-2564.0,255.0,-473.0,-99.0,161,156,135,126,129,208,947,1010
2025-02-19 16:18:50.681,0.0,385.0,-3130.0,344.0,-852.0,-88.0,134,140,111,106,107,287,629,974
2025-02-19 16:18:50.698,2278.0,527.0,-2079.0,350.0,-1164.0,-14.0,130,142,108,105,106,358,42,697
2025-02-19 16:18:50.718,3358.0,139.0,412.0,394.0,-1072.0,28.0,134,145,111,107,109,405,42,346
2025-02-19 16:18:50.738,3925.0,456.0,3266.0,355.0,-732.0,27.0,136,145,112,106,112,492,40,195
2025-02-19 16:18:50.755,3692.0,1329.0,4468.0,162.0,-218.0,-25.0,138,147,114,108,116,660,42,43
2025-02-19 16:18:50.775,2813.0,743.0,3345.0,70.0,-35.0,-12.0,145,155,124,118,125,838,54,53
2025-02-19 16:18:50.792,2049.0,795.0,3318.0,-49.0,49.0,39.0,135,146,114,107,116,990,43,42
2025-02-19 16:18:50.812,1665.0,544.0,2966.0,-132.0,185.0,36.0,132,141,113,104,111,1015,37,40
2025-02-19 16:18:50.832,1120.0,263.0,2160.0,-117.0,303.0,-14.0,120,127,96,90,96,1015,22,55
2025-02-19 16:18:50.849,859.0,47.0,1477.0,-47.0,332.0,-41.0,122,131,99,94,99,1016,487,103
2025-02-19 16:18:50.869,760.0,144.0,1170.0,-50.0,298.0,-33.0,120,126,95,92,95,983,702,22
2025-02-19 16:18:50.890,633.0,197.0,1202.0,-117.0,296.0,-12.0,122,127,100,93,96,1016,1016,71
2025-02-19 16:18:50.906,488.0,90.0,791.0,-151.0,328.0,3.0,123,127,98,93,97,1016,715,24
2025-02-19 16:18:50.927,165.0,24.0,254.0,-96.0,313.0,-4.0,143,147,118,115,118,1016,345,129
2025-02-19 16:18:50.947,34.0,134.0,127.0,-74.0,270.0,-11.0,146,149,122,118,121,1016,889,847
2025-02-19 16:18:50.964,52.0,207.0,176.0,-115.0,255.0,-4.0,147,150,123,119,122,954,1016,1009
2025-02-19 16:18:50.984,20.0,250.0,65.0,-164.0,262.0,-3.0,148,150,124,120,123,856,1015,1008
2025-02-19 16:18:51.001,-176.0,-14.0,-332.0,-112.0,242.0,4.0,140,142,117,112,116,800,605,1008
2025-02-19 16:18:51.021,-327.0,50.0,-438.0,-42.0,169.0,-9.0,134,136,112,108,111,755,37,1008
2025-02-19 16:18:51.041,-341.0,295.0,-175.0,-58.0,129.0,-15.0,129,131,108,103,107,746,74,983
2025-02-19 16:18:51.058,-280.0,444.0,-145.0,-105.0,150.0,-34.0,129,126,108,102,105,767,133,684
2025-02-19 16:18:51.078,-347.0,52.0,-560.0,-76.0,169.0,-31.0,136,128,115,110,113,772,39,636
2025-02-19 16:18:51.097,-837.0,-101.0,-1694.0,59.0,35.0,-43.0,139,131,123,118,118,756,48,402
2025-02-19 16:18:51.114,-1356.0,259.0,-2709.0,214.0,-297.0,-75.0,134,129,118,112,112,722,44,43
2025-02-19 16:18:51.136,-683.0,257.0,-2812.0,278.0,-689.0,-82.0,125,126,109,105,104,709,37,36
2025-02-19 16:18:51.155,1755.0,314.0,-1834.0,337.0,-1056.0,-31.0,135,139,119,115,113,749,46,61
2025-02-19 16:18:51.173,4015.0,-148.0,3053.0,372.0,-873.0,78.0,137,140,118,113,114,796,44,44
2025-02-19 16:18:51.193,4246.0,1249.0,5872.0,139.0,-233.0,63.0,144,145,124,119,122,854,48,49
2025-02-19 16:18:51.210,2974.0,613.0,4956.0,-66.0,98.0,-2.0,144,143,122,118,121,947,47,47
2025-02-19 16:18:51.229,1268.0,217.0,3547.0,-92.0,227.0,-18.0,140,131,115,112,115,1017,41,42
2025-02-19 16:18:51.250,862.0,-99.0,2795.0,-95.0,261.0,-7.0,142,129,115,112,116,953,191,41
2025-02-19 16:18:51.265,602.0,-432.0,2350.0,-121.0,308.0,28.0,157,139,128,125,128,688,55,776
2025-02-19 16:18:51.287,482.0,-530.0,1921.0,-134.0,344.0,81.0,163,140,133,129,132,177,59,1011
2025-02-19 16:18:51.307,416.0,-153.0,1341.0,-149.0,371.0,113.0,161,131,130,125,129,54,55,1011
2025-02-19 16:18:51.325,345.0,171.0,966.0,-152.0,365.0,63.0,157,120,127,121,126,48,292,1010
2025-02-19 16:18:51.344,361.0,-158.0,572.0,-86.0,388.0,51.0,155,115,125,119,125,45,1017,1010
2025-02-19 16:18:51.365,206.0,23.0,405.0,-42.0,416.0,78.0,149,105,118,112,121,37,1017,1010
2025-02-19 16:18:51.382,84.0,287.0,129.0,-60.0,435.0,84.0,151,105,119,116,124,36,1017,1009
2025-02-19 16:18:51.402,355.0,380.0,-339.0,-127.0,448.0,102.0,163,117,129,130,138,48,1017,1009
2025-02-19 16:18:51.421,-173.0,293.0,-890.0,-100.0,384.0,124.0,167,120,131,138,145,50,1018,878
2025-02-19 16:18:51.440,-287.0,337.0,-1072.0,28.0,233.0,82.0,161,117,124,138,143,42,1017,781
2025-02-19 16:18:51.459,-855.0,222.0,-1127.0,50.0,106.0,22.0,162,124,126,142,148,41,1017,1010
2025-02-19 16:18:51.476,-792.0,219.0,-638.0,-74.0,113.0,-26.0,162,128,127,143,150,42,1018,1010
2025-02-19 16:18:51.496,-389.0,354.0,-843.0,-66.0,-83.0,-59.0,157,127,124,141,146,82,1018,1009
2025-02-19 16:18:51.517,-117.0,244.0,-1193.0,3.0,-174.0,-105.0,155,128,122,141,148,142,878,1010
2025-02-19 16:18:51.533,-284.0,285.0,-395.0,32.0,-268.0,-145.0,152,130,121,140,150,208,403,910
2025-02-19 16:18:51.554,-579.0,756.0,-268.0,-24.0,-393.0,-240.0,156,137,125,144,156,322,33,604
2025-02-19 16:18:51.574,-203.0,796.0,-478.0,-147.0,-598.0,-338.0,156,137,123,145,155,466,30,394
2025-02-19 16:18:51.591,464.0,-219.0,408.0,-348.0,-673.0,-429.0,158,141,123,150,157,687,30,32
2025-02-19 16:18:51.611,1116.0,-820.0,834.0,-399.0,-835.0,-435.0,160,144,125,149,157,915,32,33
2025-02-19 16:18:51.631,2633.0,-2232.0,1223.0,-525.0,-776.0,-313.0,161,144,125,148,156,1017,29,30
2025-02-19 16:18:51.648,3136.0,-4512.0,1663.0,-296.0,-266.0,-116.0,163,146,128,151,157,1017,31,31
2025-02-19 16:18:51.665,2515.0,-4277.0,1675.0,14.0,103.0,110.0,169,154,137,159,166,1017,41,40
2025-02-19 16:18:51.688,1227.0,-2537.0,1415.0,142.0,250.0,183.0,174,158,140,162,169,1003,43,45
2025-02-19 16:18:51.705,415.0,-1677.0,1018.0,7.0,222.0,215.0,172,156,138,160,168,898,42,42
2025-02-19 16:18:51.725,359.0,-1302.0,810.0,-120.0,138.0,216.0,184,168,151,173,180,841,56,56
2025-02-19 16:18:51.743,103.0,-1286.0,674.0,-89.0,115.0,220.0,178,164,146,168,174,772,50,154
2025-02-19 16:18:51.763,155.0,-855.0,623.0,-18.0,147.0,226.0,174,160,142,165,171,669,47,548
2025-02-19 16:18:51.783,30.0,-419.0,405.0,-1.0,161.0,222.0,178,164,146,169,174,522,186,868
2025-02-19 16:18:51.799,-123.0,-223.0,330.0,-13.0,140.0,197.0,187,174,156,178,184,383,562,1010
2025-02-19 16:18:51.819,-146.0,-98.0,234.0,-29.0,100.0,160.0,171,157,140,162,169,221,660,986
2025-02-19 16:18:51.840,-115.0,-63.0,109.0,-24.0,79.0,132.0,165,154,135,158,164,118,844,439
2025-02-19 16:18:51.857,-233.0,-84.0,105.0,-12.0,93.0,129.0,171,160,142,164,170,51,993,47
2025-02-19 16:18:51.877,-148.0,-92.0,294.0,10.0,112.0,125.0,164,153,135,158,163,39,1018,37
2025-02-19 16:18:51.894,-159.0,153.0,167.0,8.0,124.0,122.0,160,149,131,154,160,34,629,208
2025-02-19 16:18:51.914,-378.0,337.0,61.0,9.0,121.0,96.0,163,152,134,157,163,38,40,558
2025-02-19 16:18:51.934,-353.0,306.0,-48.0,-39.0,102.0,65.0,160,148,131,154,159,82,33,661
2025-02-19 16:18:51.950,-479.0,246.0,-83.0,-23.0,84.0,24.0,167,155,138,161,166,179,42,600
2025-02-19 16:18:51.971,-605.0,708.0,-412.0,36.0,54.0,-3.0,164,152,134,157,164,278,38,494
2025-02-19 16:18:51.991,-935.0,1222.0,-954.0,93.0,-1.0,-80.0,162,150,133,157,162,379,37,309
2025-02-19 16:18:52.009,-794.0,978.0,-863.0,207.0,-111.0,-242.0,160,143,131,154,160,429,35,235
2025-02-19 16:18:52.029,-677.0,1593.0,-892.0,267.0,-311.0,-563.0,157,146,129,153,157,665,31,32
2025-02-19 16:18:52.040,-196.0,-342.0,240.0,-117.0,-507.0,-721.0,164,154,136,158,164,941,39,39
2025-02-19 16:18:52.066,2125.0,-3045.0,778.0,-306.0,-624.0,-593.0,154,148,128,151,156,1017,759,29
2025-02-19 16:18:52.085,4370.0,-4351.0,1586.0,-249.0,-357.0,-256.0,153,150,131,153,159,1017,1005,219
2025-02-19 16:18:52.106,2928.0,-5542.0,1127.0,-6.0,21.0,57.0,144,140,121,143,149,1016,1018,367
2025-02-19 16:18:52.120,1362.0,-3584.0,982.0,275.0,251.0,198.0,144,137,119,141,147,1016,1018,436
2025-02-19 16:18:52.143,345.0,-2025.0,910.0,236.0,286.0,219.0,147,138,119,142,147,962,1017,384
2025-02-19 16:18:52.160,-17.0,-1516.0,731.0,148.0,218.0,201.0,145,134,114,138,142,855,1017,610
2025-02-19 16:18:52.180,9.0,-1352.0,722.0,97.0,171.0,198.0,146,134,112,138,139,746,442,374
2025-02-19 16:18:52.200,278.0,-1409.0,566.0,124.0,166.0,224.0,145,131,110,132,132,587,254,367
2025-02-19 16:18:52.216,82.0,-1068.0,641.0,163.0,184.0,262.0,146,129,109,124,111,399,15,796
2025-02-19 16:18:52.237,336.0,-538.0,309.0,210.0,199.0,264.0,153,132,111,108,99,219,23,1009
2025-02-19 16:18:52.257,186.0,-50.0,277.0,171.0,220.0,220.0,169,147,128,120,111,82,45,1012
2025-02-19 16:18:52.275,141.0,82.0,45.0,160.0,223.0,162.0,160,137,123,109,103,39,38,1010
2025-02-19 16:18:52.295,109.0,173.0,7.0,171.0,241.0,127.0,149,125,112,98,94,31,31,1009
2025-02-19 16:18:52.315,-195.0,227.0,-141.0,147.0,240.0,124.0,146,120,109,95,93,30,30,1009
2025-02-19 16:18:52.332,-118.0,317.0,-610.0,170.0,229.0,117.0,139,115,107,91,91,28,28,934
2025-02-19 16:18:52.351,-291.0,416.0,-699.0,175.0,171.0,76.0,134,114,107,91,89,28,27,784
2025-02-19 16:18:52.369,-402.0,581.0,-1173.0,150.0,72.0,34.0,137,122,112,98,97,37,37,541
2025-02-19 16:18:52.390,-695.0,501.0,-1762.0,148.0,-145.0,-20.0,130,121,107,94,92,36,845,304
2025-02-19 16:18:52.409,-815.0,420.0,-2305.0,199.0,-441.0,-87.0,120,124,106,92,91,74,1017,215
2025-02-19 16:18:52.426,-156.0,313.0,-2686.0,254.0,-846.0,-85.0,111,125,102,88,85,145,1017,100
2025-02-19 16:18:52.447,2405.0,100.0,-1876.0,331.0,-1192.0,-20.0,111,129,103,89,86,206,1017,32
2025-02-19 16:18:52.467,4303.0,-182.0,1201.0,456.0,-1099.0,41.0,111,131,100,88,88,258,1017,29
2025-02-19 16:18:52.484,4125.0,637.0,5013.0,363.0,-475.0,103.0,129,147,115,102,107,355,1018,207
2025-02-19 16:18:52.504,3163.0,1670.0,5342.0,-67.0,23.0,48.0,136,157,124,112,120,437,1018,106
2025-02-19 16:18:52.524,1829.0,725.0,3381.0,-184.0,218.0,6.0,123,142,111,100,109,477,1018,80
2025-02-19 16:18:52.541,770.0,264.0,2282.0,-115.0,263.0,-33.0,124,139,111,101,109,502,1018,270
2025-02-19 16:18:52.561,519.0,-75.0,1838.0,-84.0,293.0,-58.0,135,147,120,111,117,619,1018,405
2025-02-19 16:18:52.581,236.0,-134.0,1397.0,-83.0,283.0,-37.0,137,149,121,112,117,807,1018,715
2025-02-19 16:18:52.598,225.0,-200.0,1164.0,-73.0,241.0,-3.0,129,143,114,105,108,929,1018,971
2025-02-19 16:18:52.618,284.0,-60.0,1174.0,-67.0,224.0,21.0,130,145,116,106,109,1002,564,722
2025-02-19 16:18:52.635,265.0,199.0,1072.0,-97.0,251.0,22.0,125,141,112,102,105,971,267,369
2025-02-19 16:18:52.653,54.0,205.0,634.0,-110.0,255.0,1.0,118,133,106,96,99,922,1017,240
2025-02-19 16:18:52.675,-109.0,-57.0,406.0,-39.0,216.0,-6.0,122,135,109,100,102,910,1017,649
2025-02-19 16:18:52.690,-176.0,106.0,282.0,-29.0,180.0,-5.0,122,134,108,98,102,906,1017,1008
2025-02-19 16:18:52.713,-108.0,120.0,257.0,-63.0,160.0,-3.0,120,132,107,96,100,907,1016,1009
2025-02-19 16:18:52.731,-122.0,4.0,311.0,-92.0,166.0,8.0,116,127,102,91,95,1005,1018,833
2025-02-19 16:18:52.749,-173.0,-81.0,183.0,-86.0,162.0,17.0,118,127,104,94,98,1017,1018,551
2025-02-19 16:18:52.770,-253.0,-88.0,-37.0,-29.0,121.0,4.0,117,126,104,94,98,1017,1016,445
2025-02-19 16:18:52.786,-294.0,-30.0,35.0,-8.0,71.0,-10.0,114,124,102,92,96,1017,995,246
2025-02-19 16:18:52.807,-263.0,81.0,139.0,-44.0,66.0,1.0,116,126,103,94,97,1017,1016,27
2025-02-19 16:18:52.827,-307.0,63.0,-121.0,-79.0,84.0,27.0,113,123,101,91,94,999,977,24
2025-02-19 16:18:52.842,-560.0,79.0,-965.0,-24.0,16.0,-6.0,111,121,101,92,94,872,1017,27
2025-02-19 16:18:52.864,-1390.0,101.0,-2404.0,205.0,-276.0,-109.0,106,116,95,87,88,957,1018,23
2025-02-19 16:18:52.884,-639.0,792.0,-2307.0,293.0,-724.0,-129.0,108,120,96,88,89,1017,1017,26
2025-02-19 16:18:52.902,1270.0,633.0,-815.0,235.0,-1004.0,-94.0,109,122,98,89,89,1017,1017,25
2025-02-19 16:18:52.922,3471.0,-876.0,3282.0,176.0,-864.0,81.0,110,125,97,87,86,1017,728,22
2025-02-19 16:18:52.941,3975.0,307.0,5553.0,-98.0,-250.0,121.0,114,128,102,90,91,1016,25,331
2025-02-19 16:18:52.959,2738.0,-186.0,4269.0,-198.0,110.0,48.0,112,127,100,87,89,1013,22,859
2025-02-19 16:18:52.979,1158.0,-348.0,2986.0,-159.0,236.0,20.0,115,126,101,89,90,1017,23,1010
2025-02-19 16:18:52.999,756.0,-419.0,2067.0,-207.0,302.0,16.0,121,126,100,91,90,1017,395,1010
2025-02-19 16:18:53.016,565.0,-682.0,1504.0,-231.0,340.0,52.0,133,126,105,98,92,952,354,1010
2025-02-19 16:18:53.036,267.0,-909.0,1335.0,-231.0,340.0,109.0,157,143,123,118,109,856,42,1010
2025-02-19 16:18:53.056,341.0,-451.0,1186.0,-273.0,366.0,167.0,154,135,119,116,104,813,37,1010
2025-02-19 16:18:53.071,406.0,-618.0,788.0,-268.0,377.0,197.0,154,132,121,117,104,724,36,1010
2025-02-19 16:18:53.088,89.0,-601.0,797.0,-185.0,353.0,211.0,152,124,119,115,101,589,34,1010
2025-02-19 16:18:53.108,207.0,-173.0,456.0,-133.0,326.0,183.0,153,117,120,116,103,372,121,1010
2025-02-19 16:18:53.130,-80.0,-40.0,481.0,-133.0,319.0,141.0,154,114,121,116,102,115,295,1010
2025-02-19 16:18:53.150,-280.0,-85.0,81.0,-167.0,271.0,154.0,152,110,119,113,100,34,265,1011
2025-02-19 16:18:53.168,-307.0,-88.0,-199.0,-149.0,208.0,144.0,154,112,120,115,102,36,434,1010
2025-02-19 16:18:53.187,-521.0,-17.0,-214.0,-111.0,162.0,109.0,151,108,117,112,100,30,873,994
2025-02-19 16:18:53.204,-567.0,104.0,-111.0,-87.0,132.0,69.0,153,112,121,116,105,34,1018,817
2025-02-19 16:18:53.222,-766.0,-124.0,-195.0,-76.0,107.0,54.0,148,110,117,113,102,108,1017,606
2025-02-19 16:18:53.245,-716.0,-161.0,-161.0,-52.0,70.0,62.0,152,112,119,115,103,315,1017,566
2025-02-19 16:18:53.262,-668.0,-143.0,-42.0,-22.0,55.0,59.0,150,115,120,117,104,444,1018,564
2025-02-19 16:18:53.282,-626.0,-67.0,26.0,-4.0,54.0,48.0,147,112,118,114,102,464,1018,426
2025-02-19 16:18:53.300,-616.0,-95.0,13.0,31.0,72.0,27.0,149,113,120,117,104,452,1017,202
2025-02-19 16:18:53.319,-788.0,-130.0,136.0,26.0,66.0,-9.0,146,111,117,114,101,425,1018,27
2025-02-19 16:18:53.338,-1045.0,-306.0,185.0,-2.0,48.0,-37.0,148,116,119,116,103,387,1017,28
2025-02-19 16:18:53.354,-1170.0,-459.0,83.0,-46.0,2.0,-58.0,146,117,118,115,101,357,1018,26
2025-02-19 16:18:53.375,-939.0,-632.0,241.0,-66.0,-24.0,-56.0,147,120,119,116,102,365,1016,28
2025-02-19 16:18:53.397,-631.0,-777.0,250.0,-42.0,-7.0,-27.0,148,123,120,117,104,417,920,28
2025-02-19 16:18:53.417,-657.0,-728.0,196.0,23.0,39.0,4.0,146,123,119,115,103,517,757,85
2025-02-19 16:18:53.434,-883.0,-553.0,-68.0,66.0,55.0,19.0,148,124,120,117,104,618,691,289
2025-02-19 16:18:53.454,-1100.0,-403.0,-138.0,42.0,9.0,19.0,145,123,119,115,103,682,734,495
2025-02-19 16:18:53.471,-984.0,-390.0,-39.0,6.0,-37.0,0.0,148,125,122,118,106,727,676,637
2025-02-19 16:18:53.489,-857.0,-407.0,189.0,-12.0,-47.0,-15.0,147,123,120,116,104,768,802,769
2025-02-19 16:18:53.511,-864.0,-612.0,286.0,0.0,-27.0,-23.0,147,125,122,117,106,804,921,897
2025-02-19 16:18:53.528,-913.0,-614.0,382.0,1.0,-13.0,-22.0,147,125,123,118,107,792,920,896
2025-02-19 16:18:53.548,-975.0,-642.0,355.0,-8.0,-6.0,-19.0,146,124,121,117,106,716,892,834
2025-02-19 16:18:53.568,-917.0,-609.0,242.0,-9.0,-7.0,-15.0,148,125,123,118,107,627,826,747
2025-02-19 16:18:53.585,-821.0,-534.0,170.0,1.0,0.0,-12.0,145,124,121,116,105,554,766,620
2025-02-19 16:18:53.605,-806.0,-414.0,29.0,8.0,-4.0,-7.0,147,127,124,118,108,482,737,538
2025-02-19 16:18:53.625,-706.0,-276.0,-90.0,23.0,-17.0,-8.0,145,125,121,115,105,374,653,448
2025-02-19 16:18:53.643,-637.0,-200.0,-92.0,39.0,-33.0,-19.0,147,127,124,117,108,268,530,376
2025-02-19 16:18:53.663,-625.0,-58.0,-348.0,45.0,-73.0,-26.0,147,128,125,117,108,178,403,313
2025-02-19 16:18:53.683,-478.0,559.0,-1245.0,92.0,-163.0,-65.0,144,128,124,113,104,122,316,265
2025-02-19 16:18:53.700,-940.0,1371.0,-1653.0,281.0,-361.0,-235.0,143,134,127,110,99,125,336,263
2025-02-19 16:18:53.720,-895.0,2047.0,-1527.0,274.0,-631.0,-491.0,137,134,126,108,98,125,346,254
2025-02-19 16:18:53.738,1042.0,1977.0,-1122.0,96.0,-1017.0,-607.0,135,139,128,111,101,121,410,286
2025-02-19 16:18:53.756,2990.0,-1396.0,257.0,-55.0,-1134.0,-488.0,134,139,126,110,99,92,719,24
2025-02-19 16:18:53.773,4619.0,-2623.0,3018.0,-84.0,-653.0,-216.0,141,146,130,115,109,27,992,78
2025-02-19 16:18:53.794,4473.0,-4180.0,2993.0,38.0,-21.0,33.0,145,152,135,121,123,33,840,211
2025-02-19 16:18:53.814,2038.0,-2401.0,2498.0,252.0,292.0,0.0,145,153,135,119,123,32,34,303
2025-02-19 16:18:53.834,743.0,-1424.0,1674.0,52.0,282.0,53.0,146,153,135,119,122,33,32,443
2025-02-19 16:18:53.852,703.0,-1443.0,1204.0,-78.0,220.0,174.0,138,144,126,110,113,20,22,266
2025-02-19 16:18:53.872,417.0,-1056.0,873.0,-108.0,217.0,206.0,156,160,142,126,127,40,336,40
2025-02-19 16:18:53.892,194.0,-741.0,608.0,-102.0,243.0,221.0,157,160,143,126,125,57,613,41
2025-02-19 16:18:53.908,95.0,-568.0,445.0,-68.0,257.0,238.0,153,156,138,122,119,36,519,48
2025-02-19 16:18:53.929,31.0,-299.0,278.0,-34.0,245.0,239.0,154,157,139,123,120,36,36,580
2025-02-19 16:18:53.944,-109.0,34.0,244.0,-38.0,221.0,225.0,150,154,136,120,117,33,32,747
2025-02-19 16:18:53.966,-136.0,87.0,287.0,-32.0,196.0,210.0,152,156,138,122,117,35,34,932
2025-02-19 16:18:53.986,-250.0,101.0,222.0,-8.0,187.0,183.0,150,153,136,122,114,32,32,930
2025-02-19 16:18:54.003,-217.0,96.0,347.0,16.0,202.0,151.0,152,154,138,119,116,34,34,958
2025-02-19 16:18:54.023,-388.0,111.0,68.0,15.0,187.0,131.0,151,154,137,120,113,39,32,1009
2025-02-19 16:18:54.043,-540.0,105.0,3.0,-15.0,130.0,79.0,151,153,136,118,111,114,255,1010
2025-02-19 16:18:54.060,-477.0,73.0,69.0,-14.0,92.0,18.0,152,154,138,120,112,237,926,971
2025-02-19 16:18:54.081,-517.0,0.0,103.0,-25.0,79.0,-45.0,147,149,134,115,107,311,1018,807
2025-02-19 16:18:54.101,-600.0,-101.0,23.0,3.0,43.0,-65.0,146,148,133,114,110,433,1018,778
2025-02-19 16:18:54.118,-750.0,76.0,-411.0,63.0,-6.0,-61.0,145,147,132,112,105,627,1018,788
2025-02-19 16:18:54.138,-980.0,677.0,-805.0,157.0,-120.0,-134.0,145,147,131,111,108,838,1017,717
2025-02-19 16:18:54.158,-1055.0,1220.0,-1314.0,251.0,-299.0,-351.0,142,151,132,109,104,997,1018,466
2025-02-19 16:18:54.175,-766.0,1153.0,-1021.0,219.0,-696.0,-580.0,137,145,131,108,100,1017,1018,125
2025-02-19 16:18:54.192,2020.0,1079.0,-418.0,-93.0,-1026.0,-580.0,140,148,132,110,101,985,1017,106
2025-02-19 16:18:54.216,4103.0,-3089.0,3054.0,-158.0,-785.0,-323.0,142,149,132,113,108,803,1018,344
2025-02-19 16:18:54.233,4873.0,-4683.0,3172.0,18.0,-10.0,46.0,146,157,139,122,128,554,1017,488
2025-02-19 16:18:54.253,2219.0,-2459.0,2701.0,272.0,297.0,111.0,141,149,131,114,124,270,1017,203
2025-02-19 16:18:54.270,174.0,-996.0,1845.0,105.0,268.0,96.0,141,148,130,110,121,102,1018,25
2025-02-19 16:18:54.289,217.0,-1217.0,1328.0,-94.0,176.0,109.0,144,150,132,116,116,84,996,27
2025-02-19 16:18:54.308,371.0,-1551.0,1117.0,-71.0,187.0,175.0,142,147,128,114,112,160,23,23
2025-02-19 16:18:54.327,286.0,-1143.0,1015.0,10.0,261.0,203.0,156,156,138,127,122,259,36,109
2025-02-19 16:18:54.346,151.0,-814.0,790.0,83.0,309.0,185.0,156,152,134,124,117,251,33,926
2025-02-19 16:18:54.367,-53.0,-386.0,633.0,83.0,312.0,176.0,158,148,134,126,117,210,680,1011
2025-02-19 16:18:54.384,-96.0,-156.0,394.0,14.0,280.0,185.0,154,135,125,120,107,104,1017,1010
2025-02-19 16:18:54.404,-132.0,-222.0,501.0,-16.0,277.0,199.0,156,127,118,116,106,40,1017,1010
2025-02-19 16:18:54.421,-7.0,-320.0,292.0,30.0,291.0,183.0,156,122,113,112,106,39,802,1010
2025-02-19 16:18:54.441,11.0,-43.0,102.0,93.0,313.0,146.0,150,112,105,104,100,26,948,973
2025-02-19 16:18:54.460,-305.0,176.0,-194.0,86.0,290.0,130.0,146,108,105,102,98,26,887,912
2025-02-19 16:18:54.478,-467.0,155.0,-549.0,86.0,215.0,93.0,139,103,101,98,94,24,815,697
2025-02-19 16:18:54.497,-468.0,263.0,-708.0,77.0,108.0,66.0,135,104,103,100,97,28,508,527
2025-02-19 16:18:54.519,-522.0,227.0,-769.0,98.0,14.0,26.0,129,100,103,100,96,28,372,297
2025-02-19 16:18:54.536,-365.0,361.0,-857.0,129.0,-72.0,-31.0,123,96,99,98,95,29,182,52
2025-02-19 16:18:54.556,-582.0,306.0,-1339.0,190.0,-193.0,-87.0,117,96,97,97,92,58,65,26
2025-02-19 16:18:54.573,-727.0,79.0,-1897.0,261.0,-422.0,-108.0,110,94,94,93,88,110,24,24
2025-02-19 16:18:54.593,3.0,253.0,-2438.0,344.0,-802.0,-70.0,109,101,95,95,89,189,26,26
2025-02-19 16:18:54.613,1509.0,506.0,-1925.0,345.0,-1060.0,-33.0,106,104,94,92,88,299,24,23
2025-02-19 16:18:54.630,2732.0,33.0,135.0,336.0,-1010.0,29.0,111,112,95,94,93,420,26,100
2025-02-19 16:18:54.647,3306.0,298.0,3489.0,265.0,-636.0,61.0,126,126,107,104,108,533,608,63
2025-02-19 16:18:54.670,3253.0,854.0,4687.0,95.0,-120.0,12.0,128,130,110,107,114,662,1017,85
2025-02-19 16:18:54.688,2590.0,636.0,3896.0,18.0,100.0,-12.0,127,125,109,107,113,825,1018,275
2025-02-19 16:18:54.707,1534.0,684.0,3371.0,-110.0,195.0,-8.0,126,118,106,106,111,1005,1017,517
2025-02-19 16:18:54.726,1014.0,126.0,2663.0,-183.0,296.0,-8.0,144,133,124,123,128,1018,1017,787
2025-02-19 16:18:54.744,564.0,-205.0,1752.0,-169.0,350.0,-13.0,137,119,113,111,116,1017,1017,1011
2025-02-19 16:18:54.762,197.0,-318.0,1194.0,-102.0,305.0,-3.0,134,120,114,112,112,1017,923,1009
2025-02-19 16:18:54.785,36.0,-102.0,989.0,-71.0,234.0,5.0,129,116,110,109,108,1017,806,1010
2025-02-19 16:18:54.802,171.0,56.0,949.0,-103.0,203.0,20.0,131,116,111,109,109,1007,158,1011
2025-02-19 16:18:54.822,159.0,58.0,954.0,-142.0,221.0,23.0,134,117,112,110,112,851,351,1010
2025-02-19 16:18:54.839,41.0,-211.0,542.0,-107.0,235.0,46.0,131,115,110,108,110,623,677,998
2025-02-19 16:18:54.859,-103.0,-40.0,261.0,-45.0,190.0,38.0,129,114,109,107,108,386,712,809
2025-02-19 16:18:54.879,-265.0,176.0,211.0,-51.0,139.0,8.0,123,108,103,101,102,180,1017,893
2025-02-19 16:18:54.896,-227.0,49.0,309.0,-78.0,125.0,6.0,124,111,105,103,105,29,1017,514
2025-02-19 16:18:54.916,-199.0,11.0,306.0,-90.0,141.0,17.0,124,110,104,104,103,27,1017,27
2025-02-19 16:18:54.937,-332.0,-160.0,148.0,-55.0,128.0,30.0,123,110,104,102,103,28,884,27
2025-02-19 16:18:54.954,-358.0,-33.0,194.0,-45.0,100.0,42.0,122,110,104,102,102,41,486,40
2025-02-19 16:18:54.973,-337.0,102.0,309.0,-70.0,93.0,27.0,119,107,101,99,103,142,25,24
2025-02-19 16:18:54.993,-316.0,-7.0,308.0,-86.0,99.0,19.0,122,109,103,102,101,334,27,26
2025-02-19 16:18:55.010,-290.0,95.0,41.0,-69.0,111.0,17.0,121,107,101,100,100,516,25,24
2025-02-19 16:18:55.030,-423.0,241.0,-619.0,-3.0,90.0,-11.0,120,107,101,101,99,644,26,25
2025-02-19 16:18:55.051,-1028.0,353.0,-2253.0,150.0,-116.0,-98.0,121,110,101,102,98,741,871,27
2025-02-19 16:18:55.068,-1132.0,646.0,-2621.0,258.0,-499.0,-158.0,119,109,97,95,94,795,964,24
2025-02-19 16:18:55.088,-96.0,568.0,-2006.0,235.0,-839.0,-133.0,123,116,99,99,96,800,696,26
2025-02-19 16:18:55.106,2120.0,-338.0,1369.0,167.0,-914.0,-61.0,126,121,99,98,96,753,22,24
2025-02-19 16:18:55.125,3771.0,-327.0,4729.0,77.0,-412.0,36.0,132,129,105,101,100,581,24,24
2025-02-19 16:18:55.145,3311.0,-465.0,5584.0,-46.0,-22.0,1.0,135,132,107,103,103,835,27,281
2025-02-19 16:18:55.162,1382.0,-356.0,4017.0,-110.0,149.0,-14.0,133,130,104,101,100,1017,167,472
2025-02-19 16:18:55.183,643.0,-627.0,2850.0,-203.0,199.0,15.0,140,133,109,104,103,909,111,375
2025-02-19 16:18:55.203,473.0,-834.0,2033.0,-301.0,246.0,67.0,140,128,107,103,105,813,44,108
2025-02-19 16:18:55.220,190.0,-939.0,1373.0,-339.0,259.0,119.0,142,126,107,103,102,823,207,25
2025-02-19 16:18:55.239,-6.0,-694.0,975.0,-344.0,255.0,166.0,141,112,104,101,99,800,238,43
2025-02-19 16:18:55.258,47.0,-458.0,699.0,-305.0,241.0,177.0,145,104,108,105,101,682,421,237
2025-02-19 16:18:55.277,49.0,-445.0,1134.0,-271.0,205.0,192.0,144,94,106,104,102,585,1011,363
2025-02-19 16:18:55.297,161.0,-275.0,617.0,-243.0,222.0,191.0,146,91,108,107,105,475,1018,725
2025-02-19 16:18:55.314,48.0,-120.0,515.0,-269.0,240.0,202.0,148,84,109,106,107,368,1016,1009
2025-02-19 16:18:55.332,62.0,-12.0,249.0,-271.0,247.0,206.0,148,77,107,105,103,293,604,1010
2025-02-19 16:18:55.354,-444.0,64.0,-379.0,-218.0,202.0,160.0,153,76,109,107,106,262,25,1011
2025-02-19 16:18:55.372,-613.0,282.0,-320.0,-131.0,151.0,98.0,156,77,111,106,105,264,746,1010
2025-02-19 16:18:55.392,-464.0,527.0,-251.0,-168.0,104.0,55.0,159,78,110,106,101,280,1017,1010
2025-02-19 16:18:55.410,-675.0,645.0,-411.0,-164.0,45.0,31.0,154,73,107,99,95,309,1018,1010
2025-02-19 16:18:55.429,-279.0,850.0,-588.0,-51.0,-18.0,-37.0,154,75,108,100,92,348,1018,1011
2025-02-19 16:18:55.449,-182.0,1157.0,-1068.0,149.0,-23.0,-145.0,153,81,113,103,95,391,1017,1010
2025-02-19 16:18:55.469,-733.0,1582.0,-1030.0,203.0,-96.0,-288.0,145,78,106,100,91,441,1017,907
2025-02-19 16:18:55.487,-852.0,1666.0,-1315.0,227.0,-258.0,-457.0,138,76,104,97,87,520,976,437
2025-02-19 16:18:55.506,-154.0,1462.0,-1385.0,154.0,-475.0,-627.0,133,73,104,93,85,636,490,24
2025-02-19 16:18:55.523,1651.0,182.0,-771.0,-17.0,-724.0,-657.0,132,73,101,94,86,714,23,22
2025-02-19 16:18:55.544,4253.0,-2028.0,2488.0,-229.0,-514.0,-417.0,126,68,97,89,83,736,18,91
2025-02-19 16:18:55.563,4120.0,-4987.0,2608.0,-101.0,-64.0,-234.0,134,82,109,102,98,772,31,466
2025-02-19 16:18:55.581,2616.0,-5220.0,1631.0,187.0,157.0,-3.0,132,80,108,100,98,812,745,465
2025-02-19 16:18:55.600,1271.0,-2632.0,1095.0,103.0,163.0,143.0,130,78,106,98,96,825,1018,756
2025-02-19 16:18:55.621,624.0,-2072.0,855.0,-48.0,111.0,168.0,133,80,107,100,99,803,1017,1010
2025-02-19 16:18:55.639,563.0,-2187.0,593.0,-50.0,114.0,229.0,132,79,106,99,97,742,983,1011
2025-02-19 16:18:55.658,365.0,-1764.0,438.0,-24.0,113.0,282.0,138,85,112,105,104,671,1017,1010
2025-02-19 16:18:55.678,314.0,-1149.0,479.0,16.0,106.0,295.0,137,81,109,102,101,542,827,1010
2025-02-19 16:18:55.694,205.0,-551.0,561.0,23.0,103.0,275.0,136,79,109,101,100,319,97,1010
2025-02-19 16:18:55.714,201.0,-215.0,625.0,-26.0,125.0,243.0,136,80,109,101,100,111,29,774
2025-02-19 16:18:55.732,9.0,-189.0,425.0,-52.0,129.0,212.0,136,79,108,100,99,27,26,696
2025-02-19 16:18:55.750,-145.0,-221.0,244.0,-35.0,120.0,196.0,134,77,105,97,96,24,24,886
2025-02-19 16:18:55.772,-89.0,-129.0,248.0,-2.0,118.0,175.0,129,70,99,91,91,17,17,698
2025-02-19 16:18:55.789,-201.0,30.0,185.0,10.0,123.0,148.0,130,71,101,93,92,18,18,556
2025-02-19 16:18:55.809,-312.0,128.0,79.0,-3.0,123.0,122.0,129,70,100,92,91,16,1018,553
2025-02-19 16:18:55.829,-275.0,245.0,214.0,-32.0,116.0,98.0,128,70,100,92,91,36,1018,422
2025-02-19 16:18:55.846,-452.0,248.0,97.0,-77.0,109.0,90.0,128,70,100,93,91,96,1018,16
2025-02-19 16:18:55.867,-388.0,336.0,-180.0,-91.0,110.0,87.0,127,68,98,91,88,197,1018,14
2025-02-19 16:18:55.887,-521.0,681.0,-420.0,-17.0,46.0,78.0,128,70,99,92,87,329,999,16
2025-02-19 16:18:55.902,-542.0,1764.0,-1205.0,200.0,24.0,-101.0,124,68,97,91,85,461,1018,14
2025-02-19 16:18:55.924,-1349.0,2426.0,-2090.0,337.0,-83.0,-396.0,121,69,98,89,83,590,997,16
2025-02-19 16:18:55.944,-1619.0,2344.0,-2458.0,313.0,-485.0,-595.0,122,68,96,87,81,723,595,14
2025-02-19 16:18:55.961,2545.0,422.0,-1562.0,225.0,-1004.0,-653.0,130,72,99,92,87,843,238,18
2025-02-19 16:18:55.981,6344.0,-5707.0,4332.0,443.0,-654.0,-224.0,138,75,102,93,87,923,234,137
2025-02-19 16:18:55.998,4893.0,-1896.0,4589.0,401.0,143.0,-37.0,137,72,102,92,92,937,160,464
2025-02-19 16:18:56.018,573.0,-986.0,3492.0,81.0,170.0,-62.0,141,79,107,97,98,928,275,235
2025-02-19 16:18:56.038,-97.0,-765.0,2144.0,-150.0,162.0,5.0,138,75,104,96,96,1017,633,22
2025-02-19 16:18:56.052,-14.0,-1473.0,1456.0,-77.0,189.0,-4.0,138,75,104,96,96,1017,970,21
2025-02-19 16:18:56.076,-117.0,-1400.0,919.0,131.0,229.0,-5.0,146,82,111,103,104,1012,28,28
2025-02-19 16:18:56.095,-410.0,-773.0,535.0,210.0,225.0,-4.0,147,83,111,105,107,1018,28,170
2025-02-19 16:18:56.112,-533.0,-344.0,397.0,212.0,180.0,-11.0,145,79,109,103,105,1017,87,52
2025-02-19 16:18:56.133,-322.0,-286.0,390.0,253.0,130.0,-46.0,145,77,108,102,105,1017,24,23
2025-02-19 16:18:56.153,-189.0,-273.0,293.0,361.0,80.0,-70.0,146,78,108,104,109,1017,24,78
2025-02-19 16:18:56.170,-366.0,17.0,403.0,349.0,26.0,-97.0,147,75,106,102,108,1017,22,398
2025-02-19 16:18:56.190,-294.0,138.0,451.0,282.0,-38.0,-114.0,149,77,107,103,110,997,23,873
2025-02-19 16:18:56.210,-61.0,-163.0,617.0,217.0,-49.0,-115.0,157,81,110,108,114,1001,27,1011
2025-02-19 16:18:56.228,164.0,-432.0,727.0,180.0,-50.0,-94.0,158,79,108,105,111,952,24,1010
2025-02-19 16:18:56.247,237.0,-620.0,862.0,142.0,-54.0,-68.0,161,80,108,106,113,876,257,1011
2025-02-19 16:18:56.265,311.0,-841.0,961.0,121.0,-47.0,-36.0,160,78,105,104,110,776,627,1010
2025-02-19 16:18:56.284,485.0,-1057.0,1066.0,118.0,-39.0,3.0,164,80,109,107,113,617,1017,1010
2025-02-19 16:18:56.304,867.0,-1213.0,1350.0,105.0,-25.0,60.0,165,80,108,107,114,535,989,1010
2025-02-19 16:18:56.319,1319.0,-1430.0,1666.0,58.0,18.0,160.0,197,116,143,140,147,602,739,1012
2025-02-19 16:18:56.341,1646.0,-1903.0,1848.0,26.0,79.0,325.0,198,114,142,139,146,608,938,1011
2025-02-19 16:18:56.362,2089.0,-1396.0,1887.0,-56.0,155.0,593.0,206,122,150,147,153,659,1017,1011
2025-02-19 16:18:56.379,2411.0,-672.0,1739.0,-188.0,215.0,786.0,191,106,134,129,133,784,1017,1010
2025-02-19 16:18:56.399,2625.0,1540.0,1708.0,-334.0,192.0,807.0,180,93,122,117,119,881,1018,991
2025-02-19 16:18:56.419,1500.0,2074.0,1482.0,-436.0,157.0,697.0,177,90,119,112,114,940,1017,801
2025-02-19 16:18:56.435,450.0,3063.0,1905.0,-269.0,206.0,438.0,171,85,116,105,110,957,1017,604
2025-02-19 16:18:56.457,195.0,3027.0,1246.0,119.0,205.0,94.0,185,101,131,120,123,974,1017,437
2025-02-19 16:18:56.472,-86.0,3146.0,919.0,102.0,207.0,4.0,176,91,122,109,111,954,1017,202
2025-02-19 16:18:56.493,-266.0,2574.0,800.0,62.0,157.0,-140.0,174,88,120,107,108,975,733,164
2025-02-19 16:18:56.513,-27.0,1417.0,559.0,84.0,121.0,-203.0,179,94,125,114,114,986,1017,84
2025-02-19 16:18:56.530,-159.0,334.0,428.0,153.0,62.0,-207.0,177,91,122,111,111,951,1018,37
2025-02-19 16:18:56.551,-221.0,206.0,604.0,213.0,-24.0,-233.0,190,106,138,127,128,897,1018,55
2025-02-19 16:18:56.568,-113.0,495.0,714.0,226.0,-74.0,-273.0,173,87,117,108,108,770,1017,32
2025-02-19 16:18:56.589,-209.0,152.0,676.0,236.0,-136.0,-276.0,188,104,133,124,125,696,1017,51
2025-02-19 16:18:56.608,-145.0,343.0,767.0,235.0,-183.0,-255.0,189,105,133,126,127,596,1017,52
2025-02-19 16:18:56.628,-43.0,290.0,1044.0,169.0,-187.0,-269.0,185,101,129,122,123,368,1009,47
2025-02-19 16:18:56.646,68.0,60.0,1105.0,148.0,-173.0,-282.0,188,104,132,126,127,135,986,51
2025-02-19 16:18:56.665,59.0,-162.0,1080.0,148.0,-183.0,-294.0,195,112,138,134,135,58,863,166
2025-02-19 16:18:56.683,83.0,-581.0,1009.0,142.0,-181.0,-230.0,183,103,125,122,123,46,46,286
2025-02-19 16:18:56.701,-1.0,-426.0,925.0,100.0,-194.0,-175.0,177,93,118,116,117,38,38,346
2025-02-19 16:18:56.719,162.0,-485.0,1172.0,52.0,-198.0,-118.0,179,94,118,117,118,40,41,159
2025-02-19 16:18:56.739,397.0,-791.0,1426.0,46.0,-171.0,-73.0,179,94,118,117,119,40,40,58
2025-02-19 16:18:56.759,537.0,-909.0,1576.0,35.0,-113.0,-32.0,176,90,113,113,115,36,35,217
2025-02-19 16:18:56.779,779.0,-1747.0,2151.0,36.0,-16.0,44.0,187,102,124,125,127,59,390,572
2025-02-19 16:18:56.796,1736.0,-2121.0,2159.0,3.0,108.0,235.0,185,99,121,121,122,63,797,915
2025-02-19 16:18:56.817,2072.0,-2081.0,2132.0,-120.0,219.0,502.0,185,99,122,119,122,46,1017,968
2025-02-19 16:18:56.834,2170.0,-1060.0,1676.0,-297.0,314.0,776.0,177,89,112,108,109,46,1017,1009
2025-02-19 16:18:56.854,2424.0,1341.0,1521.0,-475.0,276.0,876.0,173,86,108,102,102,161,1017,1009
2025-02-19 16:18:56.875,1877.0,1858.0,1264.0,-476.0,197.0,777.0,172,86,109,99,98,243,1017,1009
2025-02-19 16:18:56.892,119.0,4186.0,1521.0,-90.0,234.0,246.0,166,80,106,93,92,303,945,1010
2025-02-19 16:18:56.908,-97.0,3867.0,1277.0,138.0,241.0,-3.0,167,81,108,94,91,380,340,1008
2025-02-19 16:18:56.931,-472.0,3126.0,971.0,35.0,161.0,-96.0,165,80,106,94,90,442,26,1009
2025-02-19 16:18:56.948,-102.0,1494.0,1179.0,2.0,145.0,-203.0,168,84,111,98,95,500,30,973
2025-02-19 16:18:56.969,273.0,-91.0,1467.0,-4.0,164.0,-193.0,197,118,145,136,128,579,66,756
2025-02-19 16:18:56.989,44.0,-639.0,1541.0,-27.0,182.0,-166.0,162,86,113,100,97,545,30,316
2025-02-19 16:18:57.004,-86.0,-675.0,1595.0,-103.0,220.0,-135.0,159,84,111,100,96,510,29,29
2025-02-19 16:18:57.026,-164.0,-538.0,1375.0,-225.0,272.0,-118.0,165,93,119,108,107,466,858,37
2025-02-19 16:18:57.046,-421.0,-544.0,863.0,-281.0,310.0,-117.0,209,140,165,156,154,432,1018,88
2025-02-19 16:18:57.063,-648.0,-439.0,186.0,-288.0,342.0,-103.0,205,136,162,152,151,405,1017,84
2025-02-19 16:18:57.083,-837.0,-581.0,-326.0,-176.0,235.0,-120.0,207,140,166,157,158,723,1018,86
2025-02-19 16:18:57.103,-670.0,-486.0,-334.0,-97.0,221.0,-112.0,203,137,162,156,159,1018,1017,82
2025-02-19 16:18:57.120,-665.0,-62.0,-259.0,-21.0,173.0,-125.0,193,129,153,151,159,1018,1017,71
2025-02-19 16:18:57.137,-313.0,-488.0,-294.0,13.0,156.0,-101.0,196,139,160,164,171,1018,436,77
2025-02-19 16:18:57.154,-494.0,-593.0,-257.0,111.0,120.0,-45.0,185,138,155,163,167,1002,68,357
2025-02-19 16:18:57.178,-435.0,-421.0,-166.0,154.0,96.0,-14.0,190,149,162,172,177,952,75,1011
2025-02-19 16:18:57.198,-517.0,-79.0,-192.0,116.0,46.0,-11.0,182,145,154,166,173,858,138,1010
2025-02-19 16:18:57.215,-387.0,85.0,160.0,119.0,-29.0,-51.0,186,156,163,174,180,772,828,981
2025-02-19 16:18:57.234,-385.0,127.0,-629.0,54.0,-45.0,-89.0,209,176,184,198,205,709,1018,487
2025-02-19 16:18:57.255,-323.0,227.0,-745.0,101.0,-100.0,-106.0,187,156,161,177,183,597,880,72
2025-02-19 16:18:57.271,-632.0,366.0,-1235.0,95.0,-222.0,-211.0,168,139,142,160,164,519,413,51
2025-02-19 16:18:57.292,-1155.0,684.0,-1467.0,-105.0,-221.0,-457.0,180,158,153,173,176,556,66,103
2025-02-19 16:18:57.312,-1276.0,1112.0,-1269.0,279.0,-826.0,-653.0,187,167,159,179,183,624,142,577
2025-02-19 16:18:57.330,1840.0,1653.0,-70.0,-102.0,-1058.0,-721.0,190,172,160,180,186,570,445,1011
2025-02-19 16:18:57.349,5990.0,-4521.0,-686.0,-221.0,-856.0,-417.0,195,178,164,184,193,435,72,1011
2025-02-19 16:18:57.369,3563.0,-5654.0,2400.0,70.0,-154.0,31.0,206,188,176,197,206,325,85,1012
2025-02-19 16:18:57.386,1956.0,-3113.0,1698.0,274.0,278.0,173.0,199,179,167,187,197,176,75,951
2025-02-19 16:18:57.404,514.0,-1395.0,1067.0,165.0,265.0,138.0,183,162,149,170,178,54,53,649
2025-02-19 16:18:57.424,145.0,-1269.0,788.0,-20.0,242.0,189.0,164,142,128,150,159,32,31,750
2025-02-19 16:18:57.442,162.0,-1288.0,570.0,-140.0,139.0,230.0,168,146,133,155,164,37,37,608
2025-02-19 16:18:57.463,-50.0,-1235.0,647.0,-133.0,145.0,264.0,180,159,145,167,175,52,50,318
2025-02-19 16:18:57.481,139.0,-1021.0,558.0,-62.0,213.0,290.0,184,164,151,173,181,58,57,592
2025-02-19 16:18:57.501,60.0,-588.0,558.0,-7.0,242.0,293.0,182,161,150,170,179,56,56,981
2025-02-19 16:18:57.521,-129.0,-321.0,387.0,15.0,221.0,268.0,177,157,143,166,173,50,50,1010
2025-02-19 16:18:57.537,-260.0,-90.0,188.0,10.0,152.0,244.0,180,160,147,170,177,54,54,1010
2025-02-19 16:18:57.558,-339.0,-87.0,185.0,-17.0,115.0,210.0,175,154,142,165,172,131,48,851
2025-02-19 16:18:57.575,-247.0,-39.0,119.0,-35.0,114.0,182.0,175,155,143,167,173,152,255,874
2025-02-19 16:18:57.592,-317.0,42.0,86.0,11.0,111.0,133.0,169,149,138,160,166,170,628,1009
2025-02-19 16:18:57.616,-478.0,6.0,54.0,38.0,102.0,80.0,171,151,141,164,170,272,1018,1006
2025-02-19 16:18:57.632,-470.0,170.0,102.0,30.0,84.0,49.0,174,155,144,167,173,340,994,916
2025-02-19 16:18:57.653,-490.0,146.0,141.0,2.0,68.0,14.0,168,148,139,161,168,575,475,562
2025-02-19 16:18:57.673,-410.0,188.0,102.0,40.0,74.0,-6.0,167,147,138,161,167,768,62,185
2025-02-19 16:18:57.688,-555.0,554.0,-534.0,108.0,49.0,-44.0,164,144,136,158,165,892,40,41
2025-02-19 16:18:57.707,-939.0,1186.0,-1030.0,262.0,-46.0,-174.0,165,147,138,161,166,964,43,44
2025-02-19 16:18:57.730,-1137.0,1572.0,-1317.0,183.0,-234.0,-419.0,164,148,137,159,165,986,42,42
2025-02-19 16:18:57.747,1447.0,1171.0,1977.0,48.0,-663.0,-600.0,161,147,137,159,164,969,42,67
2025-02-19 16:18:57.767,1104.0,-465.0,-965.0,151.0,-902.0,-506.0,159,148,137,158,165,957,40,40
2025-02-19 16:18:57.785,4192.0,-2368.0,1479.0,115.0,-873.0,-270.0,162,146,134,156,165,896,37,29
2025-02-19 16:18:57.805,3743.0,-3554.0,3339.0,83.0,-317.0,-103.0,172,150,137,158,168,816,38,560
2025-02-19 16:18:57.821,2222.0,-2750.0,2867.0,176.0,152.0,41.0,171,147,135,155,165,683,35,726
2025-02-19 16:18:57.840,339.0,-1285.0,2281.0,206.0,254.0,23.0,167,141,131,151,161,576,903,772
2025-02-19 16:18:57.862,-599.0,-1150.0,920.0,156.0,239.0,7.0,168,135,129,150,158,524,976,811
2025-02-19 16:18:57.882,-417.0,-347.0,1163.0,80.0,221.0,-2.0,188,142,149,170,176,547,618,910
2025-02-19 16:18:57.899,-427.0,-357.0,852.0,111.0,208.0,-13.0,183,124,141,162,166,504,163,1010
2025-02-19 16:18:57.919,-445.0,-449.0,617.0,173.0,193.0,-23.0,177,111,134,152,148,424,42,1011
2025-02-19 16:18:57.938,-208.0,-240.0,402.0,239.0,145.0,-35.0,180,109,136,143,138,354,44,1010
2025-02-19 16:18:57.956,-124.0,-55.0,529.0,296.0,93.0,-70.0,176,101,130,130,127,286,41,1010
2025-02-19 16:18:57.975,-83.0,-133.0,509.0,331.0,46.0,-96.0,179,101,129,125,127,237,955,1010
2025-02-19 16:18:57.997,-141.0,18.0,560.0,320.0,12.0,-114.0,178,100,126,121,126,233,1017,921
2025-02-19 16:18:58.014,-177.0,-66.0,666.0,289.0,-24.0,-134.0,175,95,120,115,122,243,1018,768
2025-02-19 16:18:58.033,-91.0,-147.0,807.0,255.0,-34.0,-128.0,178,96,119,115,123,65,1017,869
2025-02-19 16:18:58.050,23.0,-250.0,814.0,203.0,-37.0,-108.0,176,93,114,111,118,38,1017,883
2025-02-19 16:18:58.070,73.0,-355.0,956.0,136.0,-39.0,-83.0,178,95,115,112,119,41,1017,659
2025-02-19 16:18:58.091,168.0,-451.0,1110.0,90.0,-43.0,-44.0,178,94,112,110,118,41,1017,413
2025-02-19 16:18:58.108,507.0,-692.0,1252.0,73.0,-35.0,3.0,185,101,119,117,126,48,964,340
2025-02-19 16:18:58.125,936.0,-1111.0,1654.0,51.0,23.0,51.0,189,104,122,121,129,50,810,287
2025-02-19 16:18:58.148,1346.0,-1711.0,1785.0,36.0,98.0,166.0,188,103,121,119,128,50,557,187
2025-02-19 16:18:58.165,1693.0,-2084.0,1865.0,-13.0,178.0,392.0,187,101,119,115,125,48,601,156
2025-02-19 16:18:58.185,1949.0,-1425.0,1750.0,-159.0,252.0,651.0,176,86,105,100,109,68,899,572
2025-02-19 16:18:58.205,2386.0,-576.0,1125.0,-233.0,254.0,830.0,173,82,102,93,104,148,1017,664
2025-02-19 16:18:58.222,1678.0,1972.0,1321.0,-381.0,153.0,770.0,167,76,99,87,99,253,1018,434
2025-02-19 16:18:58.240,646.0,2541.0,1138.0,-326.0,123.0,564.0,168,78,100,88,100,370,1007,100
2025-02-19 16:18:58.257,-225.0,3973.0,1182.0,67.0,140.0,160.0,169,80,101,89,101,490,664,26
2025-02-19 16:18:58.279,-89.0,3653.0,1267.0,171.0,141.0,-60.0,168,79,101,87,99,641,26,25
2025-02-19 16:18:58.300,-240.0,3230.0,887.0,52.0,114.0,-191.0,169,81,103,90,101,801,28,27
2025-02-19 16:18:58.316,56.0,1462.0,804.0,20.0,83.0,-276.0,167,78,101,85,99,929,24,24
2025-02-19 16:18:58.337,170.0,31.0,625.0,103.0,49.0,-306.0,169,80,103,90,103,1017,28,28
2025-02-19 16:18:58.356,181.0,-697.0,579.0,175.0,4.0,-259.0,168,78,101,89,100,1016,25,25
2025-02-19 16:18:58.374,-109.0,-183.0,788.0,197.0,-63.0,-230.0,171,82,104,93,104,896,29,558
2025-02-19 16:18:58.394,-105.0,-42.0,891.0,133.0,-100.0,-236.0,185,97,119,108,120,626,74,1010
2025-02-19 16:18:58.414,-46.0,-212.0,1176.0,82.0,-101.0,-164.0,181,93,114,103,117,330,157,1010
2025-02-19 16:18:58.431,-61.0,-86.0,1281.0,39.0,-61.0,-171.0,180,93,114,103,117,102,793,944
2025-02-19 16:18:58.451,-210.0,-43.0,1117.0,26.0,-33.0,-166.0,174,87,108,98,114,33,1018,673
2025-02-19 16:18:58.468,-347.0,-19.0,895.0,19.0,-35.0,-157.0,176,90,110,101,116,36,1017,37
2025-02-19 16:18:58.489,-391.0,-7.0,789.0,-3.0,-52.0,-148.0,172,86,106,98,111,50,1018,31
2025-02-19 16:18:58.508,-336.0,-263.0,748.0,1.0,-77.0,-120.0,174,89,110,101,115,122,1017,35
2025-02-19 16:18:58.525,-254.0,-275.0,770.0,27.0,-95.0,-112.0,174,89,110,101,116,206,948,34
2025-02-19 16:18:58.545,-150.0,-481.0,890.0,46.0,-105.0,-85.0,172,87,107,100,115,292,911,83
2025-02-19 16:18:58.566,250.0,-869.0,1273.0,65.0,-76.0,-39.0,174,90,110,102,117,352,922,144
2025-02-19 16:18:58.582,757.0,-1526.0,1786.0,23.0,10.0,78.0,174,87,107,100,115,391,950,340
2025-02-19 16:18:58.603,1159.0,-1767.0,1813.0,-93.0,104.0,226.0,174,89,110,103,118,447,1018,591
2025-02-19 16:18:58.622,1268.0,-2083.0,1516.0,-242.0,156.0,466.0,173,88,108,100,115,445,1017,645
2025-02-19 16:18:58.640,1228.0,-1115.0,1194.0,-347.0,140.0,675.0,173,87,109,100,112,410,1017,488
2025-02-19 16:18:58.660,467.0,1299.0,1186.0,-480.0,64.0,635.0,172,86,110,100,110,374,1017,156
2025-02-19 16:18:58.678,-271.0,2845.0,1650.0,-425.0,36.0,365.0,169,87,108,97,109,349,1017,31
2025-02-19 16:18:58.695,-593.0,3080.0,1877.0,-31.0,116.0,13.0,171,90,112,100,111,312,1016,33
2025-02-19 16:18:58.717,-637.0,2570.0,1583.0,63.0,157.0,-136.0,167,87,111,98,106,272,963,29
2025-02-19 16:18:58.731,-598.0,1943.0,1695.0,19.0,134.0,-231.0,167,88,111,101,109,308,518,64
2025-02-19 16:18:58.749,130.0,452.0,2158.0,-118.0,181.0,-272.0,167,89,114,103,110,383,47,383
2025-02-19 16:18:58.774,314.0,-1044.0,1720.0,-158.0,259.0,-206.0,164,88,113,101,107,453,135,605
2025-02-19 16:18:58.791,-25.0,-1515.0,1257.0,-160.0,263.0,-120.0,167,94,117,105,112,522,67,759
2025-02-19 16:18:58.810,-106.0,-1212.0,715.0,-160.0,267.0,-74.0,165,97,116,104,110,547,138,950
2025-02-19 16:18:58.832,-521.0,-993.0,234.0,-162.0,224.0,-59.0,165,96,117,104,110,487,396,768
2025-02-19 16:18:58.849,-396.0,-1148.0,263.0,-213.0,196.0,-27.0,159,99,118,103,108,530,1016,239
2025-02-19 16:18:58.869,-565.0,-1295.0,293.0,-164.0,191.0,25.0,166,108,122,108,110,767,1017,36
2025-02-19 16:18:58.889,-706.0,-1184.0,221.0,-77.0,180.0,64.0,166,113,124,111,109,844,1018,33
2025-02-19 16:18:58.906,-671.0,-487.0,-35.0,-73.0,166.0,85.0,164,117,124,110,108,833,1018,243
2025-02-19 16:18:58.927,-402.0,-417.0,-42.0,-41.0,163.0,94.0,168,127,128,114,114,789,1017,616
2025-02-19 16:18:58.944,-464.0,-176.0,-53.0,26.0,192.0,82.0,163,128,125,113,111,725,936,832
2025-02-19 16:18:58.964,-597.0,57.0,-219.0,88.0,194.0,61.0,165,132,127,113,112,672,720,1010
2025-02-19 16:18:58.983,-573.0,336.0,-488.0,88.0,176.0,45.0,162,132,125,110,108,600,139,1010
2025-02-19 16:18:59.001,-506.0,458.0,-566.0,95.0,131.0,24.0,164,135,127,112,109,544,81,991
2025-02-19 16:18:59.021,-451.0,660.0,-1032.0,92.0,71.0,-12.0,162,136,127,111,109,524,30,640
2025-02-19 16:18:59.041,-573.0,848.0,-1291.0,161.0,-35.0,-97.0,160,136,126,107,108,534,27,306
2025-02-19 16:18:59.058,-789.0,1173.0,-1570.0,210.0,-165.0,-203.0,166,146,134,110,114,582,35,69
2025-02-19 16:18:59.077,-792.0,1197.0,-1943.0,213.0,-412.0,-389.0,176,160,147,122,121,681,190,51
2025-02-19 16:18:59.093,-729.0,1096.0,-1832.0,253.0,-769.0,-537.0,177,166,152,129,123,808,437,56
2025-02-19 16:18:59.115,2152.0,2277.0,-1184.0,53.0,-1191.0,-611.0,169,163,148,126,120,907,816,167
2025-02-19 16:18:59.135,4550.0,-1739.0,228.0,-254.0,-1268.0,-502.0,171,165,148,127,121,930,947,616
2025-02-19 16:18:59.156,5460.0,-4058.0,2080.0,-91.0,-743.0,-228.0,191,186,165,147,150,1012,1017,1012
2025-02-19 16:18:59.172,4263.0,-3591.0,2172.0,71.0,-99.0,126.0,182,179,158,140,151,1017,665,1011
2025-02-19 16:18:59.193,2053.0,-2509.0,2284.0,194.0,243.0,43.0,160,155,134,116,130,968,31,179
2025-02-19 16:18:59.209,737.0,-1442.0,1516.0,122.0,276.0,50.0,151,148,125,107,123,983,279,24
2025-02-19 16:18:59.228,438.0,-1430.0,1134.0,-15.0,222.0,155.0,177,173,151,132,147,1005,1013,52
2025-02-19 16:18:59.250,159.0,-1137.0,901.0,-80.0,191.0,204.0,160,156,133,114,128,947,1014,33
2025-02-19 16:18:59.266,187.0,-999.0,802.0,-102.0,220.0,210.0,170,165,144,125,131,931,740,147
2025-02-19 16:18:59.282,419.0,-980.0,577.0,-13.0,253.0,224.0,159,154,132,113,115,832,1012,390
2025-02-19 16:18:59.307,242.0,-668.0,488.0,59.0,272.0,240.0,156,152,131,111,115,765,1013,998
2025-02-19 16:18:59.324,184.0,-397.0,352.0,69.0,257.0,243.0,158,154,133,113,118,772,1012,1005
2025-02-19 16:18:59.344,-86.0,-133.0,251.0,56.0,223.0,240.0,156,151,131,110,114,791,817,1006
2025-02-19 16:18:59.362,-226.0,6.0,287.0,7.0,175.0,219.0,163,157,139,118,123,812,436,1005
2025-02-19 16:18:59.381,-285.0,41.0,269.0,-15.0,153.0,187.0,160,153,134,113,119,831,34,1004
2025-02-19 16:18:59.399,-364.0,20.0,338.0,-24.0,153.0,148.0,172,165,147,127,130,870,47,675
2025-02-19 16:18:59.419,-471.0,-79.0,234.0,-16.0,148.0,130.0,168,160,142,122,124,868,46,264
2025-02-19 16:18:59.439,-447.0,-36.0,106.0,6.0,134.0,111.0,165,155,138,118,120,818,454,521
2025-02-19 16:18:59.459,-487.0,175.0,99.0,26.0,126.0,83.0,166,154,138,119,122,770,1009,976
2025-02-19 16:18:59.476,-644.0,597.0,-43.0,-15.0,106.0,46.0,163,151,136,115,118,766,1011,982
2025-02-19 16:18:59.496,-1091.0,900.0,-798.0,-16.0,6.0,-22.0,163,150,136,112,118,774,1010,668
2025-02-19 16:18:59.513,-1631.0,1172.0,-1605.0,236.0,-192.0,-215.0,157,147,132,105,108,734,731,50
2025-02-19 16:18:59.529,-1831.0,2274.0,-1698.0,316.0,-574.0,-530.0,151,148,133,108,103,678,31,30
2025-02-19 16:18:59.553,746.0,2156.0,-1584.0,-4.0,-984.0,-593.0,145,148,133,110,102,615,32,31
2025-02-19 16:18:59.573,3638.0,-1460.0,-40.0,-120.0,-1098.0,-490.0,143,146,130,108,106,560,74,26
2025-02-19 16:18:59.590,5371.0,-4043.0,3102.0,129.0,-300.0,-134.0,149,150,133,113,125,511,219,144
2025-02-19 16:18:59.611,3272.0,-2050.0,2836.0,120.0,114.0,57.0,145,144,128,105,127,429,25,123
2025-02-19 16:18:59.628,727.0,-1275.0,2238.0,56.0,188.0,-11.0,148,146,130,110,128,348,27,39
2025-02-19 16:18:59.648,435.0,-952.0,1616.0,-37.0,169.0,1.0,149,143,126,107,122,271,23,631
2025-02-19 16:18:59.665,-3.0,-1026.0,1201.0,-8.0,236.0,38.0,153,140,127,113,124,223,26,620
2025-02-19 16:18:59.684,-233.0,-640.0,897.0,95.0,251.0,6.0,155,135,127,119,123,247,832,548
2025-02-19 16:18:59.705,-374.0,-362.0,895.0,183.0,269.0,-34.0,167,136,135,131,130,286,1005,767
2025-02-19 16:18:59.725,-374.0,-443.0,800.0,275.0,276.0,-60.0,166,115,131,131,123,327,1000,1005
2025-02-19 16:18:59.736,-85.0,-332.0,502.0,363.0,246.0,-53.0,164,96,124,126,114,404,1007,1005
2025-02-19 16:18:59.762,-313.0,-22.0,452.0,367.0,182.0,-77.0,163,86,116,119,107,491,891,1005
2025-02-19 16:18:59.782,-339.0,5.0,330.0,295.0,120.0,-76.0,165,83,111,116,104,565,357,1003
2025-02-19 16:18:59.799,-281.0,-88.0,325.0,270.0,48.0,-97.0,163,79,105,109,101,679,530,908
2025-02-19 16:18:59.819,-120.0,-209.0,411.0,253.0,-5.0,-95.0,164,79,104,107,101,811,1011,552
2025-02-19 16:18:59.835,-93.0,-95.0,631.0,191.0,-43.0,-94.0,163,78,101,104,100,681,1012,68
2025-02-19 16:18:59.856,-42.0,-299.0,758.0,124.0,-62.0,-76.0,165,79,102,107,101,430,1013,23
2025-02-19 16:18:59.877,-57.0,-415.0,920.0,87.0,-63.0,-47.0,163,77,98,103,98,167,934,22
2025-02-19 16:18:59.893,122.0,-543.0,961.0,76.0,-59.0,-17.0,164,78,100,103,100,23,762,23
2025-02-19 16:18:59.905,229.0,-529.0,1146.0,57.0,-50.0,28.0,165,79,100,103,100,24,1011,24
2025-02-19 16:18:59.933,349.0,-514.0,1275.0,11.0,-50.0,56.0,163,77,98,101,98,66,1013,21
2025-02-19 16:18:59.951,749.0,-977.0,1648.0,-2.0,2.0,106.0,165,79,100,103,99,219,1012,22
2025-02-19 16:18:59.968,1190.0,-1580.0,1958.0,-14.0,70.0,216.0,163,77,98,100,98,335,1012,20
2025-02-19 16:18:59.991,1577.0,-2003.0,1949.0,-83.0,147.0,417.0,165,79,100,99,96,469,1012,163
2025-02-19 16:19:00.008,1798.0,-1391.0,1798.0,-255.0,195.0,640.0,163,77,96,95,92,559,1012,417
2025-02-19 16:19:00.027,2302.0,-711.0,1376.0,-277.0,160.0,841.0,164,77,96,93,90,598,1012,902
2025-02-19 16:19:00.046,1505.0,2098.0,1617.0,-478.0,91.0,771.0,164,75,96,89,89,617,718,1005
2025-02-19 16:19:00.065,548.0,2993.0,1576.0,-491.0,56.0,575.0,161,74,95,85,87,621,312,1005
2025-02-19 16:19:00.085,187.0,3541.0,1635.0,-81.0,75.0,185.0,161,76,97,86,89,696,18,1006
2025-02-19 16:19:00.101,458.0,3068.0,1675.0,182.0,129.0,-15.0,167,82,103,92,93,852,24,1006
2025-02-19 16:19:00.122,-222.0,3215.0,1181.0,114.0,129.0,-129.0,169,85,107,95,96,1012,28,1005
2025-02-19 16:19:00.142,111.0,1965.0,975.0,45.0,104.0,-221.0,164,80,101,90,91,1013,22,655
2025-02-19 16:19:00.160,234.0,273.0,746.0,100.0,87.0,-236.0,168,85,106,95,96,1014,26,487
2025-02-19 16:19:00.179,10.0,-272.0,669.0,210.0,26.0,-226.0,164,81,103,93,93,972,23,156
2025-02-19 16:19:00.190,-292.0,-769.0,1069.0,263.0,-36.0,-218.0,161,79,99,91,91,579,75,21
2025-02-19 16:19:00.215,83.0,-48.0,1099.0,194.0,-55.0,-217.0,174,94,113,105,105,36,364,36
2025-02-19 16:19:00.235,-199.0,107.0,1070.0,150.0,-60.0,-235.0,171,89,109,102,102,36,739,32
2025-02-19 16:19:00.257,-224.0,-291.0,938.0,126.0,-59.0,-186.0,172,90,110,103,104,33,1009,34
2025-02-19 16:19:00.274,-393.0,141.0,795.0,136.0,-74.0,-218.0,165,85,104,97,98,27,1010,259
2025-02-19 16:19:00.295,-291.0,-40.0,807.0,133.0,-113.0,-221.0,167,87,106,101,102,30,1009,511
2025-02-19 16:19:00.311,-226.0,-30.0,901.0,105.0,-142.0,-206.0,165,84,103,99,99,26,1009,312
2025-02-19 16:19:00.332,-125.0,-69.0,1043.0,74.0,-134.0,-191.0,163,82,100,97,97,31,1010,183
2025-02-19 16:19:00.352,-118.0,-212.0,1029.0,47.0,-121.0,-180.0,165,83,102,99,100,90,1010,178
2025-02-19 16:19:00.369,-61.0,-600.0,1092.0,49.0,-107.0,-146.0,163,81,99,97,98,186,1011,22
2025-02-19 16:19:00.390,182.0,-747.0,1201.0,56.0,-73.0,-106.0,164,83,101,99,100,306,1010,25
2025-02-19 16:19:00.409,400.0,-1209.0,1436.0,20.0,-39.0,-45.0,163,81,99,97,98,440,1011,20
2025-02-19 16:19:00.426,973.0,-2142.0,1622.0,-31.0,15.0,74.0,165,83,101,99,101,471,994,25
2025-02-19 16:19:00.446,1391.0,-2741.0,1773.0,-95.0,80.0,249.0,165,82,100,98,99,439,954,24
2025-02-19 16:19:00.466,1453.0,-2272.0,1335.0,-205.0,121.0,523.0,162,81,98,94,96,397,996,175
2025-02-19 16:19:00.483,1365.0,-724.0,942.0,-359.0,86.0,721.0,165,84,102,97,97,372,869,542
2025-02-19 16:19:00.501,686.0,2006.0,1816.0,-550.0,-39.0,633.0,163,82,101,94,96,323,549,1005
2025-02-19 16:19:00.524,234.0,2749.0,1979.0,-446.0,-103.0,361.0,165,84,104,96,101,290,26,1005
2025-02-19 16:19:00.541,416.0,2708.0,2905.0,-148.0,13.0,114.0,165,84,105,97,102,276,384,1005
2025-02-19 16:19:00.561,124.0,2316.0,2852.0,-59.0,162.0,-26.0,166,86,108,100,106,351,1013,1006
2025-02-19 16:19:00.574,142.0,1417.0,2348.0,-94.0,236.0,-83.0,165,88,109,104,108,487,955,1006
2025-02-19 16:19:00.597,156.0,186.0,1823.0,-191.0,246.0,-107.0,161,87,109,104,108,643,1013,1006
2025-02-19 16:19:00.618,162.0,-687.0,1350.0,-227.0,268.0,-90.0,170,102,122,118,122,831,1014,962
2025-02-19 16:19:00.635,32.0,-1046.0,894.0,-211.0,294.0,-56.0,167,100,120,119,123,975,1014,624
2025-02-19 16:19:00.653,-100.0,-1301.0,755.0,-175.0,317.0,-21.0,158,90,111,112,117,896,1014,26
2025-02-19 16:19:00.675,-100.0,-1307.0,323.0,-164.0,324.0,32.0,190,126,146,145,149,751,1010,63
2025-02-19 16:19:00.692,-249.0,-829.0,13.0,-168.0,314.0,62.0,178,112,133,133,134,473,1011,50
2025-02-19 16:19:00.712,-544.0,-456.0,-260.0,-185.0,259.0,73.0,179,114,133,132,129,167,1010,120
2025-02-19 16:19:00.733,-708.0,-316.0,-269.0,-145.0,178.0,72.0,176,111,130,129,125,46,551,259
2025-02-19 16:19:00.749,-419.0,-120.0,-132.0,-99.0,169.0,65.0,182,120,137,137,136,53,700,284
2025-02-19 16:19:00.770,-623.0,-68.0,3.0,-76.0,183.0,44.0,174,112,130,129,121,44,671,420
2025-02-19 16:19:00.785,-440.0,113.0,-55.0,-56.0,180.0,37.0,175,111,130,130,124,44,1010,1003
2025-02-19 16:19:00.804,-584.0,194.0,-104.0,-36.0,187.0,22.0,186,122,141,138,132,59,1012,1005
2025-02-19 16:19:00.827,-486.0,181.0,-175.0,4.0,160.0,1.0,166,102,120,114,108,68,1011,1004
2025-02-19 16:19:00.844,-521.0,384.0,-300.0,44.0,136.0,-37.0,172,109,126,120,112,159,1011,961
2025-02-19 16:19:00.863,-492.0,561.0,-277.0,52.0,101.0,-74.0,156,94,112,103,97,286,921,399
2025-02-19 16:19:00.883,-227.0,854.0,-397.0,142.0,30.0,-113.0,149,94,113,101,97,473,750,35
2025-02-19 16:19:00.901,-451.0,1348.0,-1129.0,264.0,13.0,-213.0,139,92,108,99,94,695,807,35
2025-02-19 16:19:00.921,-972.0,2141.0,-1677.0,334.0,-105.0,-415.0,136,96,114,101,97,922,795,40
2025-02-19 16:19:00.941,-1165.0,2352.0,-2238.0,333.0,-469.0,-665.0,138,100,115,103,103,1011,988,48
2025-02-19 16:19:00.958,2294.0,1471.0,-2165.0,237.0,-965.0,-838.0,107,69,83,74,76,1011,1011,15
2025-02-19 16:19:00.978,6706.0,-4348.0,1065.0,317.0,-1023.0,-556.0,114,73,91,80,82,1011,948,29
2025-02-19 16:19:00.996,6731.0,-5042.0,4557.0,121.0,-55.0,-24.0,114,77,96,82,93,1012,21,457
2025-02-19 16:19:01.015,1641.0,-3614.0,2123.0,141.0,145.0,-14.0,115,80,98,85,96,1011,23,1004
2025-02-19 16:19:01.036,632.0,-2110.0,1791.0,-107.0,159.0,126.0,134,99,117,104,113,1012,257,1005
2025-02-19 16:19:01.052,401.0,-1823.0,1258.0,-160.0,196.0,134.0,132,93,114,101,111,1012,142,926
2025-02-19 16:19:01.069,437.0,-1932.0,890.0,-113.0,250.0,181.0,145,106,126,113,122,908,50,1003
2025-02-19 16:19:01.092,-161.0,-1404.0,330.0,-95.0,255.0,255.0,126,84,104,92,102,692,264,1003
2025-02-19 16:19:01.110,-74.0,-648.0,133.0,-109.0,179.0,262.0,125,84,104,92,100,550,27,1002
2025-02-19 16:19:01.130,-183.0,-295.0,292.0,-138.0,120.0,248.0,123,84,104,92,100,456,27,1003
2025-02-19 16:19:01.151,-20.0,-311.0,259.0,-146.0,101.0,240.0,128,86,107,94,102,423,29,1001
2025-02-19 16:19:01.167,-343.0,-366.0,80.0,-87.0,60.0,230.0,120,78,99,87,95,387,22,1002
2025-02-19 16:19:01.188,-221.0,-260.0,196.0,-31.0,36.0,203.0,122,80,102,90,97,378,24,1003
2025-02-19 16:19:01.204,-121.0,75.0,417.0,-27.0,74.0,169.0,121,82,103,92,98,396,25,1003
2025-02-19 16:19:01.224,-360.0,91.0,200.0,-41.0,82.0,97.0,122,80,102,89,96,467,22,909
2025-02-19 16:19:01.245,-445.0,-103.0,83.0,-37.0,67.0,51.0,124,83,104,92,98,575,26,771
2025-02-19 16:19:01.258,-570.0,-223.0,65.0,-27.0,43.0,31.0,121,81,103,91,98,681,586,549
2025-02-19 16:19:01.282,-438.0,-174.0,121.0,-23.0,44.0,32.0,123,84,105,93,100,761,1012,330
2025-02-19 16:19:01.302,-465.0,152.0,-135.0,-30.0,71.0,42.0,118,80,101,89,93,829,1013,45
2025-02-19 16:19:01.319,-786.0,627.0,-423.0,30.0,24.0,16.0,118,81,103,89,91,905,1012,24
2025-02-19 16:19:01.339,-1319.0,1722.0,-1255.0,267.0,-25.0,-180.0,113,80,102,87,90,966,797,23
2025-02-19 16:19:01.359,-1847.0,2629.0,-1797.0,288.0,-202.0,-406.0,112,78,99,85,87,1002,308,21
2025-02-19 16:19:01.376,-769.0,2382.0,-1713.0,218.0,-621.0,-611.0,115,79,97,87,90,1011,847,22
2025-02-19 16:19:01.396,2994.0,-431.0,522.0,73.0,-861.0,-573.0,147,110,126,118,122,1014,1014,54
2025-02-19 16:19:01.417,5200.0,-5369.0,3620.0,230.0,-289.0,-220.0,145,105,124,115,118,1000,1013,49
2025-02-19 16:19:01.433,3463.0,-2683.0,2635.0,341.0,175.0,-54.0,134,95,115,103,113,991,1013,353
2025-02-19 16:19:01.453,955.0,-1782.0,1818.0,98.0,172.0,-11.0,132,94,113,102,113,1013,1009,37
2025-02-19 16:19:01.470,488.0,-2283.0,904.0,-73.0,126.0,67.0,130,92,111,101,111,1012,1012,59
2025-02-19 16:19:01.488,556.0,-2607.0,429.0,77.0,135.0,133.0,138,98,118,108,118,955,1013,42
2025-02-19 16:19:01.510,89.0,-1698.0,336.0,194.0,132.0,177.0,129,88,108,100,110,795,1013,31
2025-02-19 16:19:01.528,5.0,-1098.0,310.0,194.0,115.0,219.0,129,86,105,99,110,677,854,58
2025-02-19 16:19:01.548,-54.0,-576.0,270.0,173.0,93.0,253.0,133,87,106,102,113,586,1012,29
2025-02-19 16:19:01.568,-100.0,-314.0,160.0,174.0,32.0,246.0,136,86,106,104,117,551,1013,133
2025-02-19 16:19:01.585,-129.0,-69.0,321.0,197.0,-29.0,222.0,140,85,106,107,120,539,940,222
2025-02-19 16:19:01.604,-12.0,77.0,748.0,183.0,-14.0,215.0,146,86,108,112,122,489,503,867
2025-02-19 16:19:01.623,23.0,233.0,735.0,137.0,21.0,213.0,146,84,106,112,119,425,26,1006
2025-02-19 16:19:01.643,-161.0,118.0,654.0,103.0,44.0,227.0,150,87,109,111,127,377,28,1005
2025-02-19 16:19:01.663,-396.0,449.0,398.0,56.0,8.0,205.0,150,85,106,106,139,373,26,1006
2025-02-19 16:19:01.680,-428.0,482.0,536.0,76.0,-61.0,122.0,153,86,107,104,145,422,28,1005
2025-02-19 16:19:01.700,-323.0,567.0,746.0,122.0,-61.0,82.0,155,86,108,106,142,489,28,1005
2025-02-19 16:19:01.720,-385.0,1088.0,786.0,85.0,-71.0,44.0,154,85,107,104,148,540,27,1000
2025-02-19 16:19:01.737,-504.0,1500.0,782.0,23.0,-87.0,-19.0,156,86,109,106,150,611,28,767
2025-02-19 16:19:01.757,-615.0,1749.0,773.0,51.0,-87.0,-159.0,154,83,107,105,151,669,27,447
2025-02-19 16:19:01.777,-670.0,1974.0,587.0,174.0,-53.0,-300.0,157,86,109,108,154,699,248,91
2025-02-19 16:19:01.791,-753.0,2595.0,476.0,203.0,-70.0,-456.0,155,83,107,106,154,718,417,26
2025-02-19 16:19:01.808,-166.0,1530.0,472.0,191.0,-145.0,-559.0,158,85,109,109,156,748,606,27
2025-02-19 16:19:01.833,759.0,271.0,829.0,315.0,-186.0,-530.0,160,86,110,112,157,856,646,27
2025-02-19 16:19:01.851,1412.0,-497.0,1659.0,375.0,-209.0,-372.0,160,85,107,111,156,956,147,26
2025-02-19 16:19:01.871,1926.0,-411.0,2898.0,113.0,-131.0,-198.0,162,87,110,113,158,1003,45,28
2025-02-19 16:19:01.892,2222.0,-1449.0,2903.0,-170.0,-36.0,-29.0,161,86,109,112,157,952,134,134
2025-02-19 16:19:01.909,1903.0,-2141.0,2157.0,-160.0,96.0,81.0,164,88,112,115,159,948,188,613
2025-02-19 16:19:01.929,1181.0,-1638.0,1582.0,-63.0,153.0,151.0,161,85,107,110,156,921,41,1006
2025-02-19 16:19:01.945,269.0,-470.0,1354.0,-83.0,166.0,219.0,163,88,109,111,157,865,67,1006
2025-02-19 16:19:01.966,-142.0,186.0,1246.0,-191.0,141.0,265.0,163,88,110,112,157,850,124,1005
2025-02-19 16:19:01.985,-834.0,223.0,700.0,-218.0,119.0,311.0,160,86,108,111,155,932,254,955
2025-02-19 16:19:02.003,-80.0,476.0,974.0,-197.0,136.0,298.0,162,88,110,115,156,1011,493,1004
2025-02-19 16:19:02.023,-78.0,322.0,688.0,-118.0,134.0,273.0,169,97,119,122,165,1014,616,1005
2025-02-19 16:19:02.043,-245.0,420.0,644.0,-16.0,144.0,258.0,171,100,123,124,167,1013,649,1005
2025-02-19 16:19:02.059,-332.0,669.0,500.0,29.0,135.0,235.0,167,94,117,118,162,1013,570,1006
2025-02-19 16:19:02.080,-565.0,1165.0,465.0,16.0,72.0,150.0,171,98,120,119,165,1013,39,1006
2025-02-19 16:19:02.098,-591.0,1060.0,425.0,-23.0,22.0,85.0,170,98,121,120,165,1005,40,1005
2025-02-19 16:19:02.117,-491.0,836.0,464.0,-41.0,-18.0,59.0,167,95,118,117,162,936,37,847
2025-02-19 16:19:02.137,-422.0,776.0,563.0,-47.0,-46.0,57.0,168,97,121,120,164,838,318,333
2025-02-19 16:19:02.154,-439.0,1079.0,668.0,-33.0,-50.0,-37.0,166,94,118,117,161,708,791,36
2025-02-19 16:19:02.174,-486.0,1394.0,681.0,40.0,-20.0,-136.0,169,97,121,120,164,566,1013,39
2025-02-19 16:19:02.195,-647.0,1806.0,474.0,99.0,-18.0,-230.0,162,92,116,114,160,394,1013,34
2025-02-19 16:19:02.213,-863.0,2423.0,208.0,109.0,-47.0,-389.0,164,96,118,117,164,269,1013,38
2025-02-19 16:19:02.227,-613.0,1997.0,63.0,92.0,-133.0,-498.0,161,95,118,117,162,263,536,37
2025-02-19 16:19:02.252,210.0,362.0,580.0,126.0,-236.0,-498.0,156,91,114,115,158,341,37,95
2025-02-19 16:19:02.270,1702.0,-1087.0,1866.0,154.0,-228.0,-355.0,160,96,118,119,159,398,116,297
2025-02-19 16:19:02.290,2220.0,-1571.0,2952.0,-16.0,-109.0,-162.0,158,93,116,117,156,352,226,459
2025-02-19 16:19:02.310,1957.0,-2066.0,2707.0,-192.0,22.0,-32.0,157,95,118,119,156,208,520,764
2025-02-19 16:19:02.325,1268.0,-2162.0,2045.0,-246.0,94.0,73.0,148,91,113,113,150,33,853,718
2025-02-19 16:19:02.347,572.0,-1469.0,1553.0,-251.0,174.0,158.0,144,93,115,113,147,36,1013,744
2025-02-19 16:19:02.361,60.0,-764.0,1557.0,-305.0,217.0,206.0,143,94,116,114,142,36,1013,809
2025-02-19 16:19:02.384,-213.0,-334.0,1493.0,-377.0,256.0,285.0,140,91,115,111,132,32,1014,865
2025-02-19 16:19:02.404,-393.0,-4.0,1133.0,-373.0,284.0,308.0,156,100,124,122,136,46,1013,1006
2025-02-19 16:19:02.421,-522.0,352.0,822.0,-342.0,284.0,299.0,157,98,121,121,136,96,1014,1006
2025-02-19 16:19:02.440,-310.0,399.0,569.0,-316.0,250.0,248.0,161,100,122,124,139,192,1013,1007
2025-02-19 16:19:02.461,-676.0,394.0,184.0,-239.0,232.0,192.0,158,96,118,125,137,231,838,1006
2025-02-19 16:19:02.478,-828.0,439.0,-211.0,-81.0,193.0,83.0,157,100,120,129,140,185,185,1006
2025-02-19 16:19:02.498,-853.0,491.0,20.0,-11.0,190.0,0.0,158,108,124,135,145,103,35,893
2025-02-19 16:19:02.518,-756.0,172.0,-127.0,-6.0,131.0,-34.0,155,112,122,135,146,35,32,834
2025-02-19 16:19:02.535,-617.0,-15.0,49.0,20.0,77.0,-58.0,155,120,125,140,148,34,34,575
2025-02-19 16:19:02.555,-497.0,-188.0,61.0,48.0,50.0,-55.0,148,121,124,139,147,86,30,66
2025-02-19 16:19:02.572,-780.0,-278.0,-89.0,-11.0,56.0,-36.0,146,123,124,141,149,172,37,32
2025-02-19 16:19:02.593,-543.0,-259.0,-346.0,22.0,29.0,-11.0,145,125,125,142,149,128,383,32
2025-02-19 16:19:02.611,-507.0,200.0,-177.0,28.0,8.0,-28.0,142,124,123,142,147,38,675,29
2025-02-19 16:19:02.628,-1054.0,691.0,-985.0,-2.0,-82.0,-59.0,142,121,124,143,150,52,1013,31
2025-02-19 16:19:02.650,-1044.0,1096.0,-1364.0,-52.0,-222.0,-189.0,141,118,121,142,149,323,1014,29
2025-02-19 16:19:02.670,-864.0,1405.0,-1733.0,-80.0,-375.0,-442.0,145,125,122,144,155,826,1013,32
2025-02-19 16:19:02.687,-1031.0,1271.0,-297.0,27.0,-618.0,-700.0,145,127,120,143,156,1013,1014,30
2025-02-19 16:19:02.707,415.0,1426.0,-460.0,82.0,-966.0,-884.0,148,134,122,145,159,1013,1013,321
2025-02-19 16:19:02.725,4549.0,-1624.0,-459.0,-244.0,-1092.0,-741.0,150,141,126,148,159,1013,1013,576
2025-02-19 16:19:02.742,5475.0,-3953.0,1490.0,-223.0,-353.0,-141.0,148,141,127,148,160,971,963,717
2025-02-19 16:19:02.764,3971.0,-4738.0,427.0,73.0,29.0,172.0,152,145,131,151,164,862,960,1006
2025-02-19 16:19:02.784,1626.0,-2500.0,709.0,310.0,252.0,137.0,149,139,126,147,158,751,29,958
2025-02-19 16:19:02.801,149.0,-1421.0,605.0,197.0,288.0,159.0,151,140,128,149,159,694,29,196
2025-02-19 16:19:02.822,-63.0,-1488.0,626.0,19.0,181.0,230.0,147,138,123,145,157,724,26,27
2025-02-19 16:19:02.839,-40.0,-1079.0,557.0,12.0,155.0,274.0,151,141,127,149,159,786,121,218
2025-02-19 16:19:02.859,-35.0,-798.0,361.0,1.0,192.0,285.0,148,138,124,146,157,860,28,359
2025-02-19 16:19:02.878,31.0,-614.0,469.0,-5.0,217.0,264.0,151,139,128,149,160,917,31,1001
2025-02-19 16:19:02.896,-177.0,-596.0,329.0,50.0,206.0,257.0,151,139,129,150,161,883,31,1006
2025-02-19 16:19:02.916,-158.0,-306.0,345.0,30.0,174.0,250.0,149,135,125,147,158,845,29,1006
2025-02-19 16:19:02.936,-179.0,-215.0,446.0,8.0,140.0,223.0,155,141,126,152,164,845,35,748
2025-02-19 16:19:02.953,-103.0,-174.0,398.0,-29.0,124.0,206.0,150,135,126,148,159,799,457,823
2025-02-19 16:19:02.974,-203.0,-264.0,352.0,-8.0,119.0,196.0,151,136,128,150,161,722,595,793
2025-02-19 16:19:02.991,-174.0,-44.0,198.0,30.0,112.0,166.0,149,134,126,149,160,570,101,838
2025-02-19 16:19:03.009,-526.0,135.0,311.0,48.0,129.0,124.0,147,131,125,147,158,372,29,679
2025-02-19 16:19:03.030,-645.0,333.0,-38.0,60.0,119.0,98.0,148,131,125,149,160,247,73,450
2025-02-19 16:19:03.047,-812.0,647.0,-357.0,135.0,49.0,39.0,146,128,123,145,157,171,27,156
2025-02-19 16:19:03.068,-905.0,1090.0,-491.0,60.0,-5.0,-50.0,149,131,125,148,161,157,30,31
2025-02-19 16:19:03.088,-1015.0,1566.0,-879.0,121.0,-89.0,-210.0,146,128,122,145,158,177,26,27
2025-02-19 16:19:03.105,-1157.0,1937.0,-759.0,129.0,-273.0,-493.0,149,134,125,148,161,258,30,31
2025-02-19 16:19:03.125,-532.0,1485.0,927.0,73.0,-531.0,-696.0,147,138,125,149,162,382,31,30
2025-02-19 16:19:03.145,929.0,-890.0,1213.0,-66.0,-570.0,-700.0,145,138,125,147,160,528,29,60
2025-02-19 16:19:03.162,2175.0,-4042.0,1110.0,93.0,-543.0,-424.0,151,142,127,149,162,662,634,240
2025-02-19 16:19:03.182,3622.0,-3669.0,1655.0,148.0,-225.0,-20.0,151,141,127,149,160,715,1014,791
2025-02-19 16:19:03.202,2025.0,-2883.0,1734.0,223.0,144.0,102.0,151,138,126,148,159,730,892,1006
2025-02-19 16:19:03.220,531.0,-1873.0,1279.0,258.0,249.0,85.0,151,136,125,146,158,749,1014,1005
2025-02-19 16:19:03.239,-189.0,-1196.0,1090.0,155.0,242.0,93.0,150,131,123,146,156,773,408,681
2025-02-19 16:19:03.257,-6.0,-1404.0,897.0,44.0,203.0,109.0,150,120,121,144,155,850,24,541
2025-02-19 16:19:03.277,-126.0,-1412.0,999.0,44.0,212.0,170.0,149,101,115,140,152,921,23,583
2025-02-19 16:19:03.295,69.0,-1355.0,828.0,97.0,226.0,252.0,149,88,112,136,151,919,23,649
2025-02-19 16:19:03.312,21.0,-908.0,256.0,127.0,197.0,324.0,148,79,105,123,147,884,21,932
2025-02-19 16:19:03.331,195.0,-837.0,269.0,102.0,114.0,364.0,150,77,104,116,142,878,23,1006
2025-02-19 16:19:03.354,559.0,-646.0,124.0,78.0,39.0,372.0,147,76,101,107,135,857,21,1005
2025-02-19 16:19:03.372,103.0,20.0,334.0,123.0,-29.0,321.0,142,72,96,99,135,755,22,845
2025-02-19 16:19:03.390,-2.0,233.0,525.0,112.0,-3.0,307.0,137,71,94,93,129,605,23,748
2025-02-19 16:19:03.408,-343.0,507.0,380.0,99.0,-15.0,263.0,132,75,92,88,122,408,46,788
2025-02-19 16:19:03.428,-537.0,755.0,237.0,79.0,-82.0,205.0,129,70,93,87,123,230,29,706
2025-02-19 16:19:03.448,-445.0,807.0,404.0,50.0,-137.0,154.0,126,69,93,87,124,78,21,594
2025-02-19 16:19:03.465,-252.0,815.0,805.0,53.0,-117.0,93.0,127,70,95,89,129,23,22,396
2025-02-19 16:19:03.485,-219.0,933.0,1031.0,94.0,-53.0,25.0,127,71,97,90,134,22,22,179
2025-02-19 16:19:03.506,-395.0,1267.0,1043.0,113.0,-35.0,-52.0,124,70,97,91,137,29,21,57
2025-02-19 16:19:03.522,-450.0,1756.0,1052.0,110.0,-37.0,-152.0,126,72,99,94,142,89,23,29
2025-02-19 16:19:03.543,-491.0,2235.0,986.0,82.0,-38.0,-288.0,125,71,98,93,145,186,20,22
2025-02-19 16:19:03.561,-469.0,2484.0,707.0,68.0,-17.0,-429.0,127,72,101,96,149,302,23,23
2025-02-19 16:19:03.580,-220.0,2014.0,515.0,125.0,-18.0,-530.0,127,71,100,97,149,386,21,21
2025-02-19 16:19:03.598,23.0,1411.0,395.0,163.0,-133.0,-608.0,129,72,100,100,151,445,22,77
2025-02-19 16:19:03.620,724.0,-7.0,1430.0,195.0,-238.0,-570.0,132,74,101,102,152,506,766,322
2025-02-19 16:19:03.638,1879.0,-1148.0,2011.0,166.0,-206.0,-388.0,135,74,100,103,152,541,1014,762
2025-02-19 16:19:03.658,2235.0,-2193.0,2598.0,25.0,-84.0,-219.0,139,76,102,106,154,517,1013,1006
2025-02-19 16:19:03.678,1981.0,-2911.0,2299.0,-72.0,-2.0,-37.0,137,74,101,104,153,416,1014,1007
2025-02-19 16:19:03.694,1438.0,-2645.0,1724.0,-86.0,48.0,114.0,136,76,102,105,154,293,1014,1005
2025-02-19 16:19:03.714,877.0,-1669.0,1175.0,-79.0,57.0,202.0,148,90,114,119,167,222,1014,799
2025-02-19 16:19:03.731,158.0,-763.0,1135.0,-62.0,52.0,245.0,150,92,116,120,169,191,1013,1007
2025-02-19 16:19:03.752,-97.0,-230.0,1228.0,-53.0,58.0,265.0,146,87,111,115,164,182,1014,854
2025-02-19 16:19:03.772,-299.0,364.0,1189.0,-76.0,81.0,260.0,138,77,102,105,155,184,1014,1006
2025-02-19 16:19:03.790,-389.0,495.0,913.0,-96.0,85.0,259.0,140,79,105,107,157,222,1013,1001
2025-02-19 16:19:03.809,-364.0,637.0,951.0,-67.0,85.0,215.0,138,76,103,105,155,251,1014,870
2025-02-19 16:19:03.828,-559.0,727.0,799.0,11.0,111.0,185.0,139,78,105,106,156,255,469,551
2025-02-19 16:19:03.846,-544.0,861.0,690.0,39.0,113.0,155.0,136,75,102,103,154,89,633,21
2025-02-19 16:19:03.867,-565.0,1080.0,477.0,26.0,87.0,107.0,138,77,104,104,155,23,272,23
2025-02-19 16:19:03.883,-606.0,1165.0,480.0,3.0,59.0,61.0,139,78,104,105,156,24,24,25
2025-02-19 16:19:03.903,-653.0,1327.0,427.0,0.0,40.0,-8.0,137,76,103,103,155,23,21,22
2025-02-19 16:19:03.923,-722.0,1725.0,281.0,20.0,43.0,-91.0,138,77,104,105,156,22,24,23
2025-02-19 16:19:03.941,-985.0,2316.0,0.0,66.0,48.0,-235.0,134,75,102,103,153,21,22,22
2025-02-19 16:19:03.959,-1101.0,2385.0,-247.0,108.0,-27.0,-384.0,133,77,103,105,155,61,80,23
2025-02-19 16:19:03.980,-858.0,1743.0,-141.0,104.0,-193.0,-491.0,131,73,98,102,151,136,221,20
2025-02-19 16:19:03.998,679.0,38.0,923.0,69.0,-377.0,-453.0,135,77,100,106,153,218,24,32
2025-02-19 16:19:04.017,2222.0,-1596.0,2348.0,-58.0,-258.0,-303.0,137,78,101,109,153,281,369,214
2025-02-19 16:19:04.038,2630.0,-2967.0,2689.0,-179.0,-74.0,-123.0,136,77,101,108,150,331,1013,1002
2025-02-19 16:19:04.055,1729.0,-3150.0,1970.0,-164.0,15.0,20.0,136,79,103,111,146,383,1013,1005
2025-02-19 16:19:04.075,886.0,-2113.0,1357.0,-119.0,24.0,145.0,134,76,101,107,134,449,924,1006
2025-02-19 16:19:04.095,129.0,-957.0,1614.0,-166.0,57.0,187.0,143,85,110,117,134,541,102,1003
2025-02-19 16:19:04.111,-119.0,-636.0,1960.0,-268.0,105.0,222.0,144,85,110,117,124,633,781,1002
2025-02-19 16:19:04.131,-160.0,-463.0,1903.0,-326.0,179.0,277.0,153,92,118,126,122,727,1009,1002
2025-02-19 16:19:04.153,-258.0,-294.0,1391.0,-304.0,230.0,271.0,151,92,116,125,113,832,1009,1001
2025-02-19 16:19:04.167,-370.0,37.0,894.0,-246.0,255.0,255.0,151,87,115,125,111,897,1009,944
2025-02-19 16:19:04.189,-369.0,319.0,570.0,-212.0,255.0,223.0,155,92,119,127,113,900,1009,981
2025-02-19 16:19:04.207,-563.0,126.0,313.0,-166.0,235.0,197.0,153,93,118,126,111,829,1011,1003
2025-02-19 16:19:04.226,-814.0,135.0,137.0,-73.0,196.0,175.0,154,101,120,128,111,729,1010,998
2025-02-19 16:19:04.247,-648.0,200.0,-74.0,-45.0,168.0,146.0,152,106,119,121,107,600,950,903
2025-02-19 16:19:04.263,-420.0,369.0,-58.0,-54.0,148.0,89.0,154,115,123,121,108,500,673,669
2025-02-19 16:19:04.284,-456.0,401.0,-114.0,42.0,129.0,44.0,153,122,123,121,105,405,431,148
2025-02-19 16:19:04.301,-553.0,335.0,-325.0,64.0,132.0,8.0,151,126,122,117,100,321,900,28
2025-02-19 16:19:04.321,-641.0,558.0,-517.0,57.0,43.0,-17.0,153,131,122,115,102,284,1010,30
2025-02-19 16:19:04.342,-744.0,796.0,-1027.0,33.0,-63.0,-79.0,151,132,121,112,99,345,1010,29
2025-02-19 16:19:04.361,-903.0,1002.0,-1262.0,41.0,-201.0,-192.0,151,138,124,112,96,505,1011,30
2025-02-19 16:19:04.378,-862.0,1250.0,-1492.0,114.0,-378.0,-359.0,149,138,123,111,90,642,925,28
2025-02-19 16:19:04.399,-684.0,1005.0,-1532.0,99.0,-655.0,-511.0,144,140,124,111,89,740,987,29
2025-02-19 16:19:04.416,396.0,1212.0,-1602.0,90.0,-994.0,-558.0,141,143,128,115,95,750,1010,30
2025-02-19 16:19:04.436,3399.0,-638.0,0.0,-94.0,-1205.0,-482.0,138,144,126,113,94,752,1011,27
2025-02-19 16:19:04.456,3956.0,-2305.0,1978.0,-218.0,-829.0,-208.0,143,149,128,117,98,741,1010,53
2025-02-19 16:19:04.473,4424.0,-3887.0,2303.0,-152.0,-320.0,35.0,144,150,128,117,105,623,1010,998
2025-02-19 16:19:04.494,2779.0,-2977.0,2229.0,125.0,207.0,30.0,145,151,129,118,111,488,1010,1004
2025-02-19 16:19:04.513,1244.0,-1877.0,1520.0,206.0,356.0,16.0,147,150,130,117,112,457,641,1003
2025-02-19 16:19:04.530,644.0,-1392.0,1080.0,80.0,320.0,106.0,147,148,127,114,111,514,342,975
2025-02-19 16:19:04.549,208.0,-1072.0,962.0,-46.0,264.0,163.0,146,149,127,113,110,639,326,416
2025-02-19 16:19:04.570,151.0,-839.0,811.0,-112.0,260.0,200.0,144,149,127,113,105,828,26,26
2025-02-19 16:19:04.588,214.0,-1074.0,643.0,-48.0,284.0,235.0,144,148,127,115,104,969,27,533
2025-02-19 16:19:04.607,300.0,-710.0,505.0,62.0,300.0,246.0,143,146,126,112,103,1001,25,1004
2025-02-19 16:19:04.625,-180.0,-334.0,422.0,89.0,276.0,240.0,141,144,124,111,102,977,23,1005
2025-02-19 16:19:04.645,-381.0,86.0,374.0,15.0,203.0,210.0,140,143,124,110,96,902,22,1005
2025-02-19 16:19:04.665,-396.0,115.0,267.0,-75.0,126.0,151.0,137,141,121,108,93,843,19,1004
2025-02-19 16:19:04.681,-335.0,-24.0,353.0,-95.0,110.0,110.0,138,141,123,109,96,850,20,998
2025-02-19 16:19:04.701,-342.0,-174.0,373.0,-76.0,127.0,89.0,137,139,121,107,96,879,18,809
2025-02-19 16:19:04.722,-500.0,-6.0,304.0,-60.0,136.0,74.0,138,140,122,108,98,726,20,140
2025-02-19 16:19:04.739,-517.0,-2.0,123.0,-50.0,118.0,48.0,135,137,121,106,96,308,18,20
2025-02-19 16:19:04.759,-486.0,141.0,61.0,-37.0,114.0,29.0,136,138,122,107,97,19,19,19
2025-02-19 16:19:04.777,-683.0,548.0,-420.0,-36.0,76.0,25.0,136,138,122,106,97,20,20,20
2025-02-19 16:19:04.796,-1195.0,903.0,-1005.0,34.0,-33.0,-58.0,132,136,121,101,95,22,18,18
2025-02-19 16:19:04.817,-1512.0,1336.0,-1133.0,242.0,-188.0,-240.0,135,138,123,101,93,130,246,19
2025-02-19 16:19:04.834,-1274.0,1803.0,-899.0,220.0,-423.0,-494.0,128,136,121,100,89,286,656,18
2025-02-19 16:19:04.854,622.0,726.0,-610.0,150.0,-740.0,-565.0,129,137,123,105,93,517,1013,20
2025-02-19 16:19:04.874,2729.0,-1489.0,1764.0,125.0,-775.0,-446.0,130,136,121,104,93,806,991,18
2025-02-19 16:19:04.889,4261.0,-3169.0,3535.0,161.0,-135.0,-87.0,133,139,123,109,108,906,560,20
2025-02-19 16:19:04.911,2874.0,-2686.0,2637.0,213.0,198.0,88.0,135,138,123,111,115,948,20,20
2025-02-19 16:19:04.931,702.0,-1501.0,2288.0,214.0,307.0,81.0,142,137,127,117,117,992,99,26
2025-02-19 16:19:04.948,-37.0,-1092.0,1443.0,96.0,268.0,88.0,145,128,126,117,116,1012,145,163
2025-02-19 16:19:04.968,9.0,-1000.0,403.0,27.0,220.0,134.0,146,112,120,115,115,1013,92,805
2025-02-19 16:19:04.989,-30.0,-1274.0,895.0,53.0,231.0,211.0,149,102,117,118,121,1013,85,1005
2025-02-19 16:19:05.004,-112.0,-845.0,586.0,81.0,224.0,266.0,146,91,111,116,122,1009,23,1006
2025-02-19 16:19:05.025,-392.0,-221.0,350.0,65.0,170.0,278.0,149,88,109,115,128,881,25,1005
2025-02-19 16:19:05.039,-196.0,-248.0,200.0,22.0,110.0,276.0,150,84,107,108,134,712,172,1006
2025-02-19 16:19:05.062,-92.0,-145.0,-13.0,111.0,59.0,249.0,148,83,105,100,135,523,1009,1005
2025-02-19 16:19:05.083,-241.0,191.0,373.0,91.0,18.0,216.0,149,84,104,99,135,289,1013,1006
2025-02-19 16:19:05.099,-334.0,288.0,285.0,31.0,-21.0,208.0,147,82,102,96,132,53,1014,1006
2025-02-19 16:19:05.120,-256.0,265.0,371.0,-15.0,-68.0,200.0,149,84,105,97,134,26,1012,1005
2025-02-19 16:19:05.137,-221.0,266.0,467.0,-34.0,-87.0,180.0,147,82,102,97,131,23,1013,977
2025-02-19 16:19:05.156,-200.0,385.0,588.0,-29.0,-94.0,144.0,149,84,105,99,134,25,987,771
2025-02-19 16:19:05.177,-293.0,705.0,761.0,34.0,-81.0,76.0,148,85,106,99,138,25,965,460
2025-02-19 16:19:05.197,-420.0,1444.0,899.0,99.0,-75.0,-2.0,147,83,104,98,143,23,873,210
2025-02-19 16:19:05.214,-596.0,2151.0,975.0,108.0,-80.0,-112.0,148,84,105,100,147,24,683,201
2025-02-19 16:19:05.235,-743.0,3194.0,835.0,94.0,-74.0,-310.0,146,83,104,97,149,23,796,23
2025-02-19 16:19:05.252,-585.0,2814.0,791.0,91.0,-45.0,-465.0,147,85,106,99,152,105,849,24
2025-02-19 16:19:05.271,-124.0,2015.0,769.0,145.0,-49.0,-575.0,145,84,104,99,151,163,698,22
2025-02-19 16:19:05.288,582.0,715.0,808.0,181.0,-161.0,-650.0,147,84,105,100,153,224,593,23
2025-02-19 16:19:05.305,1651.0,1051.0,865.0,244.0,-226.0,-522.0,149,87,107,106,155,350,852,25
2025-02-19 16:19:05.329,2083.0,-1884.0,2327.0,151.0,-172.0,-275.0,148,86,105,106,154,556,1013,93
2025-02-19 16:19:05.348,2482.0,-1945.0,2384.0,-101.0,-63.0,-82.0,150,90,106,106,155,711,1013,439
2025-02-19 16:19:05.366,1910.0,-2645.0,1997.0,-198.0,12.0,71.0,148,85,104,104,154,780,917,474
2025-02-19 16:19:05.386,1065.0,-1837.0,1394.0,-137.0,50.0,196.0,155,95,113,114,164,818,222,33
2025-02-19 16:19:05.405,260.0,-1036.0,1119.0,-43.0,45.0,245.0,155,95,114,113,163,824,31,132
2025-02-19 16:19:05.422,-158.0,90.0,1559.0,-70.0,34.0,272.0,148,86,105,104,155,798,70,720
2025-02-19 16:19:05.443,-234.0,192.0,1299.0,-152.0,56.0,290.0,151,89,109,106,156,784,821,1005
2025-02-19 16:19:05.464,-170.0,152.0,1053.0,-183.0,74.0,284.0,148,84,105,104,154,835,919,1005
2025-02-19 16:19:05.481,-147.0,204.0,929.0,-92.0,93.0,259.0,149,86,108,103,154,944,500,1005
2025-02-19 16:19:05.500,-255.0,302.0,847.0,2.0,99.0,233.0,148,85,106,102,153,972,113,950
2025-02-19 16:19:05.518,-363.0,572.0,729.0,52.0,78.0,203.0,148,85,106,101,153,750,99,906
2025-02-19 16:19:05.538,-447.0,967.0,701.0,20.0,55.0,140.0,149,85,107,102,154,417,949,659
2025-02-19 16:19:05.556,-489.0,928.0,696.0,-12.0,40.0,76.0,147,84,105,100,153,152,1014,298
2025-02-19 16:19:05.573,-490.0,867.0,626.0,-26.0,19.0,50.0,148,86,107,102,154,22,884,177
2025-02-19 16:19:05.595,-507.0,1003.0,586.0,-19.0,2.0,11.0,146,83,105,100,153,19,728,19
2025-02-19 16:19:05.615,-585.0,1458.0,587.0,-1.0,-4.0,-69.0,147,85,106,101,154,26,658,21
2025-02-19 16:19:05.633,-680.0,1919.0,541.0,28.0,1.0,-213.0,146,83,105,99,153,90,650,19
2025-02-19 16:19:05.651,-853.0,2264.0,416.0,49.0,-20.0,-377.0,146,84,106,99,154,128,702,19
2025-02-19 16:19:05.672,-610.0,1936.0,339.0,32.0,-80.0,-471.0,147,85,106,100,154,50,53,20
2025-02-19 16:19:05.690,209.0,676.0,407.0,13.0,-180.0,-516.0,146,84,103,101,153,20,360,20
2025-02-19 16:19:05.710,1125.0,-1093.0,781.0,98.0,-228.0,-430.0,148,87,106,104,155,74,1010,21
2025-02-19 16:19:05.729,1844.0,-2194.0,1668.0,116.0,-160.0,-228.0,147,85,104,103,152,267,1014,142
2025-02-19 16:19:05.741,1854.0,-2127.0,2099.0,-21.0,-68.0,-82.0,149,87,106,106,155,510,1013,64
2025-02-19 16:19:05.766,1490.0,-2200.0,1574.0,-135.0,-37.0,33.0,146,85,105,103,152,677,1014,19
2025-02-19 16:19:05.785,786.0,-1774.0,1481.0,-189.0,-44.0,138.0,148,87,107,105,154,796,622,136
2025-02-19 16:19:05.804,261.0,-1202.0,1413.0,-199.0,-32.0,172.0,149,87,107,105,153,908,150,717
2025-02-19 16:19:05.824,129.0,-741.0,1721.0,-227.0,19.0,192.0,148,87,106,107,150,1010,60,1003
2025-02-19 16:19:05.842,38.0,-617.0,2028.0,-270.0,105.0,215.0,161,101,121,124,159,1009,735,1003
2025-02-19 16:19:05.862,51.0,-514.0,1752.0,-279.0,169.0,240.0,155,95,116,119,142,1007,1010,1004
2025-02-19 16:19:05.881,-150.0,-183.0,1250.0,-277.0,219.0,236.0,157,97,118,121,129,910,1010,1003
2025-02-19 16:19:05.899,-140.0,-330.0,1161.0,-249.0,235.0,206.0,153,93,114,117,111,767,1012,1005
2025-02-19 16:19:05.918,-246.0,-216.0,951.0,-223.0,266.0,186.0,150,91,113,113,101,599,1012,1004
2025-02-19 16:19:05.939,-272.0,-158.0,840.0,-232.0,290.0,188.0,152,91,112,107,99,432,745,1004
2025-02-19 16:19:05.955,-314.0,-175.0,474.0,-233.0,292.0,186.0,150,88,110,99,97,317,25,1004
2025-02-19 16:19:05.976,-392.0,64.0,222.0,-172.0,270.0,158.0,150,89,111,99,104,257,26,686
2025-02-19 16:19:05.992,-481.0,142.0,-263.0,-151.0,235.0,127.0,145,84,105,92,103,195,21,266
2025-02-19 16:19:06.013,-829.0,288.0,-572.0,-132.0,142.0,83.0,143,85,106,91,91,126,436,23
2025-02-19 16:19:06.033,-742.0,440.0,-592.0,-108.0,87.0,39.0,138,83,104,88,80,45,1013,22
2025-02-19 16:19:06.050,-625.0,664.0,-562.0,-83.0,11.0,-12.0,131,79,100,84,69,59,1013,18
2025-02-19 16:19:06.070,-442.0,1027.0,-647.0,-63.0,-33.0,-51.0,127,78,98,83,66,181,1013,17
2025-02-19 16:19:06.080,-216.0,1312.0,-670.0,45.0,-56.0,-135.0,121,77,97,82,64,327,1014,15
