timestamp,ax,ay,az,gx,gy,gz,flex1,flex2,flex3,flex4,flex5,emg1,emg2,emg3
2025-02-27 14:54:31.482,-330.0,-758.0,620.0,-2.0,-1.0,0.0,160,128,113,127,129
2025-02-27 14:54:31.487,-330.0,-758.0,620.0,-2.0,-1.0,0.0,160,128,113,127,129
2025-02-27 14:54:31.491,-325.0,-748.0,627.0,-1.0,-1.0,0.0,161,127,112,127,128
2025-02-27 14:54:31.493,-325.0,-753.0,622.0,-2.0,-1.0,0.0,160,128,112,126,128
2025-02-27 14:54:31.496,-329.0,-749.0,623.0,-1.0,-1.0,0.0,160,128,111,125,128
2025-02-27 14:54:31.498,-331.0,-750.0,626.0,-1.0,-1.0,0.0,162,128,111,127,128
2025-02-27 14:54:31.500,-328.0,-743.0,634.0,-2.0,-1.0,0.0,161,128,114,125,129
2025-02-27 14:54:31.503,-329.0,-741.0,631.0,-2.0,-1.0,0.0,158,127,111,126,127
2025-02-27 14:54:31.505,-332.0,-740.0,630.0,-2.0,-1.0,0.0,161,128,112,128,127
2025-02-27 14:54:31.507,-330.0,-744.0,632.0,-2.0,-1.0,0.0,161,128,112,127,128
2025-02-27 14:54:31.509,-326.0,-746.0,630.0,-1.0,-1.0,0.0,158,128,110,125,128
2025-02-27 14:54:31.511,-328.0,-745.0,625.0,-1.0,-1.0,0.0,160,129,111,128,128
2025-02-27 14:54:31.514,-327.0,-741.0,632.0,-1.0,-1.0,0.0,160,127,111,126,130
2025-02-27 14:54:31.516,-326.0,-743.0,628.0,-1.0,0.0,0.0,159,129,111,126,128
2025-02-27 14:54:31.518,-327.0,-742.0,632.0,-1.0,0.0,0.0,160,129,114,126,128
2025-02-27 14:54:31.520,-324.0,-745.0,627.0,-1.0,0.0,0.0,156,128,112,126,127
2025-02-27 14:54:31.523,-326.0,-748.0,634.0,-1.0,0.0,0.0,160,128,111,126,126
2025-02-27 14:54:31.525,-325.0,-745.0,625.0,-2.0,1.0,0.0,161,128,112,127,128
2025-02-27 14:54:31.527,-325.0,-742.0,625.0,-1.0,1.0,0.0,160,127,113,126,127
2025-02-27 14:54:31.529,-328.0,-739.0,624.0,-1.0,1.0,1.0,159,126,111,127,128
2025-02-27 14:54:31.531,-331.0,-745.0,621.0,-1.0,1.0,0.0,161,128,112,128,129
2025-02-27 14:54:31.533,-326.0,-743.0,620.0,-2.0,1.0,0.0,159,128,110,125,127
2025-02-27 14:54:31.536,-328.0,-740.0,618.0,-1.0,0.0,0.0,160,128,112,126,127
2025-02-27 14:54:31.538,-327.0,-743.0,621.0,-2.0,1.0,0.0,161,128,111,128,128
2025-02-27 14:54:31.540,-330.0,-734.0,622.0,-2.0,0.0,0.0,160,127,112,127,124
2025-02-27 14:54:31.542,-332.0,-738.0,619.0,-2.0,0.0,-1.0,160,127,112,126,128
2025-02-27 14:54:31.544,-331.0,-736.0,620.0,-2.0,0.0,-1.0,160,128,112,127,128
2025-02-27 14:54:31.547,-329.0,-736.0,620.0,-2.0,0.0,-1.0,160,124,110,124,127
2025-02-27 14:54:31.549,-327.0,-741.0,621.0,-2.0,0.0,-1.0,159,128,113,128,129
2025-02-27 14:54:31.551,-333.0,-743.0,619.0,-2.0,0.0,-1.0,160,127,112,127,129
2025-02-27 14:54:31.554,-328.0,-743.0,614.0,-1.0,0.0,-1.0,160,128,111,125,127
2025-02-27 14:54:31.556,-328.0,-739.0,615.0,-1.0,0.0,-1.0,160,126,111,128,126
2025-02-27 14:54:31.558,-330.0,-742.0,611.0,0.0,0.0,-1.0,162,128,114,127,129
2025-02-27 14:54:31.560,-330.0,-737.0,616.0,0.0,0.0,-1.0,160,127,112,126,129
2025-02-27 14:54:31.562,-331.0,-745.0,613.0,0.0,0.0,-1.0,160,127,111,127,129
2025-02-27 14:54:31.564,-331.0,-736.0,609.0,0.0,0.0,-2.0,160,127,112,126,128
2025-02-27 14:54:31.566,-327.0,-740.0,616.0,0.0,0.0,-1.0,161,129,111,127,128
2025-02-27 14:54:31.568,-324.0,-743.0,614.0,0.0,0.0,-2.0,162,127,112,125,127
2025-02-27 14:54:31.570,-330.0,-740.0,608.0,0.0,0.0,-1.0,159,126,111,122,127
2025-02-27 14:54:31.572,-327.0,-741.0,613.0,0.0,-1.0,-2.0,160,128,112,126,128
2025-02-27 14:54:31.574,-329.0,-737.0,619.0,0.0,-1.0,-1.0,162,128,112,127,128
2025-02-27 14:54:31.576,-325.0,-738.0,622.0,-1.0,-1.0,-1.0,159,128,111,127,128
2025-02-27 14:54:31.579,-328.0,-741.0,619.0,-1.0,-1.0,-1.0,159,127,112,132,127
2025-02-27 14:54:31.581,-327.0,-743.0,611.0,-2.0,-1.0,-1.0,161,128,112,127,128
2025-02-27 14:54:31.583,-324.0,-749.0,625.0,-2.0,-1.0,-1.0,158,127,112,131,128
2025-02-27 14:54:31.585,-330.0,-750.0,624.0,-2.0,-1.0,-1.0,160,127,110,126,127
2025-02-27 14:54:31.587,-333.0,-750.0,624.0,-2.0,-1.0,-1.0,158,128,112,124,127
2025-02-27 14:54:31.589,-331.0,-753.0,625.0,-3.0,0.0,-1.0,160,128,111,126,129
2025-02-27 14:54:31.591,-332.0,-750.0,624.0,-3.0,0.0,-1.0,160,129,115,128,127
2025-02-27 14:54:31.594,-333.0,-749.0,618.0,-3.0,1.0,0.0,160,129,112,127,127
2025-02-27 14:54:31.596,-337.0,-749.0,613.0,-3.0,0.0,-1.0,159,127,111,126,129
2025-02-27 14:54:31.598,-334.0,-748.0,615.0,-2.0,1.0,0.0,161,129,113,127,129
2025-02-27 14:54:31.601,-333.0,-744.0,617.0,-2.0,1.0,-1.0,160,128,112,127,127
2025-02-27 14:54:31.603,-338.0,-744.0,616.0,-2.0,1.0,-1.0,160,126,111,127,128
2025-02-27 14:54:31.605,-341.0,-747.0,610.0,-2.0,0.0,-1.0,160,128,111,126,129
2025-02-27 14:54:31.607,-339.0,-742.0,610.0,-1.0,0.0,-1.0,160,127,111,127,129
2025-02-27 14:54:31.610,-336.0,-739.0,610.0,-1.0,0.0,-1.0,161,130,111,127,127
2025-02-27 14:54:31.613,-334.0,-743.0,612.0,-1.0,0.0,-1.0,160,127,110,121,127
2025-02-27 14:54:31.615,-335.0,-739.0,611.0,-1.0,0.0,-1.0,159,129,113,127,128
2025-02-27 14:54:31.617,-334.0,-741.0,613.0,-1.0,-1.0,-2.0,161,128,113,128,128
2025-02-27 14:54:31.619,-335.0,-736.0,617.0,-1.0,-1.0,-1.0,160,128,112,126,127
2025-02-27 14:54:31.622,-340.0,-745.0,620.0,0.0,-1.0,-1.0,159,129,112,126,127
2025-02-27 14:54:31.625,-330.0,-738.0,619.0,0.0,-1.0,-1.0,159,127,111,123,128
2025-02-27 14:54:31.627,-331.0,-739.0,625.0,0.0,-1.0,-1.0,162,128,112,128,129
2025-02-27 14:54:31.631,-332.0,-738.0,621.0,0.0,-1.0,-1.0,159,127,110,127,128
2025-02-27 14:54:31.635,-332.0,-739.0,626.0,-1.0,-1.0,-1.0,160,128,113,126,128
2025-02-27 14:54:31.642,-334.0,-741.0,621.0,-1.0,0.0,-1.0,159,127,111,126,129
2025-02-27 14:54:31.647,-333.0,-740.0,621.0,-1.0,0.0,-1.0,162,129,112,129,129
2025-02-27 14:54:31.651,-331.0,-736.0,620.0,-2.0,0.0,-1.0,158,128,111,126,128
2025-02-27 14:54:31.655,-331.0,-739.0,614.0,-2.0,0.0,-1.0,160,127,111,126,127
2025-02-27 14:54:31.663,-328.0,-739.0,617.0,-2.0,0.0,0.0,160,127,111,126,128
2025-02-27 14:54:31.667,-329.0,-736.0,614.0,-2.0,0.0,-1.0,161,129,111,125,128
2025-02-27 14:54:31.672,-330.0,-741.0,614.0,-1.0,0.0,-1.0,159,127,110,127,127
2025-02-27 14:54:31.676,-329.0,-740.0,616.0,-1.0,0.0,-1.0,159,126,112,126,127
2025-02-27 14:54:31.683,-333.0,-734.0,616.0,-2.0,0.0,-1.0,159,128,112,128,129
2025-02-27 14:54:31.688,-337.0,-730.0,615.0,-2.0,0.0,-1.0,161,126,111,127,129
2025-02-27 14:54:31.692,-338.0,-728.0,615.0,-2.0,0.0,-1.0,159,126,113,128,129
2025-02-27 14:54:31.697,-335.0,-732.0,615.0,-2.0,-1.0,-2.0,161,128,111,125,128
2025-02-27 14:54:31.704,-331.0,-737.0,612.0,-2.0,-1.0,-2.0,160,127,112,126,127
2025-02-27 14:54:31.709,-334.0,-741.0,612.0,-2.0,-1.0,-2.0,160,126,113,127,127
2025-02-27 14:54:31.713,-334.0,-740.0,618.0,-1.0,0.0,-2.0,159,126,111,127,128
2025-02-27 14:54:31.717,-333.0,-736.0,613.0,-2.0,0.0,-2.0,159,127,109,126,126
2025-02-27 14:54:31.725,-336.0,-743.0,619.0,-1.0,0.0,-3.0,161,128,113,127,129
2025-02-27 14:54:31.729,-337.0,-741.0,614.0,-2.0,-1.0,-3.0,160,128,111,127,124
2025-02-27 14:54:31.733,-334.0,-749.0,615.0,-1.0,0.0,-3.0,159,127,111,128,127
2025-02-27 14:54:31.738,-332.0,-754.0,608.0,0.0,-1.0,-3.0,158,127,111,125,128
2025-02-27 14:54:31.745,-328.0,-760.0,606.0,1.0,-1.0,-2.0,160,127,112,127,127
2025-02-27 14:54:31.749,-333.0,-755.0,614.0,2.0,-1.0,-2.0,160,129,111,127,128
2025-02-27 14:54:31.754,-334.0,-753.0,619.0,1.0,-2.0,-2.0,160,127,111,126,128
2025-02-27 14:54:31.758,-332.0,-751.0,621.0,1.0,-1.0,-1.0,161,127,112,127,128
2025-02-27 14:54:31.766,-334.0,-746.0,618.0,0.0,-1.0,-2.0,161,128,112,126,128
2025-02-27 14:54:31.770,-331.0,-745.0,625.0,0.0,-1.0,-1.0,160,129,112,127,127
2025-02-27 14:54:31.774,-337.0,-744.0,616.0,-1.0,-2.0,-1.0,158,128,112,128,127
2025-02-27 14:54:31.782,-334.0,-749.0,623.0,-2.0,-1.0,-1.0,160,127,111,127,127
2025-02-27 14:54:31.787,-335.0,-751.0,620.0,-3.0,-1.0,0.0,162,130,113,127,128
2025-02-27 14:54:31.791,-332.0,-751.0,618.0,-3.0,-1.0,0.0,161,129,112,127,126
2025-02-27 14:54:31.795,-334.0,-748.0,624.0,-3.0,-1.0,0.0,160,126,111,125,128
2025-02-27 14:54:31.803,-335.0,-744.0,626.0,-4.0,-1.0,0.0,161,129,111,126,128
2025-02-27 14:54:31.807,-334.0,-740.0,625.0,-3.0,0.0,0.0,161,129,113,128,129
2025-02-27 14:54:31.811,-333.0,-740.0,621.0,-3.0,0.0,0.0,159,130,112,127,127
2025-02-27 14:54:31.815,-333.0,-740.0,619.0,-3.0,1.0,0.0,160,129,111,127,127
2025-02-27 14:54:31.823,-337.0,-740.0,619.0,-2.0,1.0,-1.0,160,128,112,126,127
2025-02-27 14:54:31.828,-338.0,-740.0,613.0,-2.0,0.0,-1.0,161,128,113,129,130
2025-02-27 14:54:31.831,-337.0,-746.0,617.0,-2.0,0.0,-1.0,160,127,111,127,129
2025-02-27 14:54:31.835,-334.0,-745.0,614.0,-1.0,0.0,-1.0,159,128,110,125,124
2025-02-27 14:54:31.844,-333.0,-744.0,614.0,0.0,-1.0,-1.0,160,127,111,126,128
2025-02-27 14:54:31.848,-333.0,-743.0,614.0,0.0,-1.0,-1.0,162,129,112,125,129
2025-02-27 14:54:31.852,-338.0,-736.0,622.0,0.0,-1.0,-1.0,159,127,111,123,127
2025-02-27 14:54:31.856,-335.0,-743.0,618.0,0.0,-1.0,-2.0,160,128,112,127,127
2025-02-27 14:54:31.864,-337.0,-734.0,620.0,0.0,-1.0,-1.0,160,128,112,128,127
2025-02-27 14:54:31.868,-334.0,-740.0,618.0,0.0,0.0,-2.0,161,127,112,127,128
2025-02-27 14:54:31.873,-336.0,-746.0,618.0,-1.0,-1.0,-2.0,162,128,111,127,127
2025-02-27 14:54:31.877,-334.0,-745.0,613.0,-1.0,-1.0,-2.0,159,128,109,127,129
2025-02-27 14:54:31.884,-337.0,-751.0,617.0,-1.0,-1.0,-1.0,161,130,113,126,128
2025-02-27 14:54:31.889,-336.0,-749.0,617.0,-1.0,-1.0,-1.0,161,130,114,128,128
2025-02-27 14:54:31.892,-337.0,-747.0,619.0,0.0,-1.0,-1.0,160,128,111,125,129
2025-02-27 14:54:31.897,-336.0,-744.0,621.0,0.0,-1.0,-1.0,160,128,111,125,127
2025-02-27 14:54:31.904,-331.0,-750.0,622.0,-1.0,-1.0,-1.0,160,128,113,127,128
2025-02-27 14:54:31.909,-333.0,-746.0,625.0,-1.0,-1.0,-1.0,162,129,110,126,128
2025-02-27 14:54:31.913,-332.0,-750.0,621.0,-1.0,-1.0,-1.0,160,128,111,125,127
2025-02-27 14:54:31.921,-334.0,-747.0,620.0,-1.0,-1.0,-1.0,161,127,111,126,127
2025-02-27 14:54:31.925,-331.0,-748.0,616.0,-1.0,-2.0,-1.0,159,128,112,127,128
2025-02-27 14:54:31.930,-331.0,-750.0,621.0,-1.0,-1.0,0.0,160,129,112,127,128
2025-02-27 14:54:31.935,-331.0,-750.0,619.0,-1.0,-1.0,0.0,160,127,111,126,127
2025-02-27 14:54:31.942,-336.0,-747.0,622.0,-1.0,-1.0,0.0,161,130,110,125,127
2025-02-27 14:54:31.946,-332.0,-744.0,625.0,-1.0,-1.0,0.0,161,129,113,126,129
2025-02-27 14:54:31.950,-334.0,-744.0,622.0,-1.0,-1.0,0.0,161,127,111,127,129
2025-02-27 14:54:31.954,-337.0,-743.0,621.0,-1.0,-1.0,0.0,159,127,112,125,128
2025-02-27 14:54:31.962,-338.0,-747.0,619.0,-1.0,-1.0,0.0,160,128,112,127,127
2025-02-27 14:54:31.966,-330.0,-745.0,622.0,-1.0,-1.0,0.0,161,128,113,127,127
2025-02-27 14:54:31.971,-331.0,-739.0,621.0,-1.0,-1.0,0.0,161,127,111,127,129
2025-02-27 14:54:31.975,-332.0,-748.0,618.0,-1.0,-1.0,0.0,160,128,112,127,128
2025-02-27 14:54:31.983,-331.0,-747.0,614.0,-1.0,-1.0,0.0,160,128,112,127,129
2025-02-27 14:54:31.987,-334.0,-744.0,621.0,0.0,-1.0,0.0,161,129,113,127,128
2025-02-27 14:54:31.991,-332.0,-751.0,622.0,0.0,-1.0,0.0,160,128,111,126,127
2025-02-27 14:54:31.995,-332.0,-743.0,624.0,0.0,-1.0,0.0,161,129,111,126,128
2025-02-27 14:54:32.003,-333.0,-747.0,623.0,0.0,0.0,-1.0,162,128,112,127,129
2025-02-27 14:54:32.008,-331.0,-745.0,625.0,0.0,0.0,0.0,160,127,112,126,130
2025-02-27 14:54:32.012,-330.0,-747.0,622.0,-1.0,0.0,0.0,160,128,112,126,128
2025-02-27 14:54:32.016,-334.0,-745.0,623.0,-1.0,0.0,0.0,160,128,113,126,129
2025-02-27 14:54:32.021,-327.0,-754.0,616.0,0.0,0.0,0.0,161,127,111,125,126
2025-02-27 14:54:32.028,-333.0,-751.0,621.0,0.0,0.0,0.0,160,128,111,126,129
2025-02-27 14:54:32.032,-329.0,-750.0,609.0,0.0,-1.0,0.0,160,127,110,127,127
2025-02-27 14:54:32.037,-331.0,-747.0,627.0,0.0,-1.0,0.0,160,127,113,126,128
2025-02-27 14:54:32.041,-334.0,-744.0,614.0,0.0,-1.0,0.0,160,127,111,126,128
2025-02-27 14:54:32.048,-337.0,-745.0,625.0,-1.0,0.0,0.0,161,130,112,126,127
2025-02-27 14:54:32.053,-332.0,-746.0,620.0,-1.0,0.0,0.0,160,128,112,126,128
2025-02-27 14:54:32.057,-331.0,-750.0,614.0,-1.0,-1.0,0.0,159,127,110,126,128
2025-02-27 14:54:32.062,-326.0,-750.0,609.0,-1.0,-1.0,0.0,160,128,112,128,128
2025-02-27 14:54:32.069,-329.0,-752.0,616.0,-1.0,-1.0,0.0,160,128,112,127,128
2025-02-27 14:54:32.073,-330.0,-746.0,615.0,-1.0,-1.0,0.0,161,129,113,127,128
2025-02-27 14:54:32.078,-329.0,-742.0,614.0,-1.0,0.0,0.0,159,128,112,126,128
2025-02-27 14:54:32.082,-331.0,-742.0,617.0,-1.0,0.0,0.0,160,128,112,125,127
2025-02-27 14:54:32.089,-330.0,-740.0,610.0,0.0,2.0,0.0,160,128,111,127,129
2025-02-27 14:54:32.093,-339.0,-750.0,594.0,0.0,3.0,-1.0,161,128,110,127,128
2025-02-27 14:54:32.098,-347.0,-762.0,576.0,3.0,4.0,-1.0,160,127,111,126,126
2025-02-27 14:54:32.102,-356.0,-765.0,562.0,7.0,6.0,-2.0,159,129,110,125,126
2025-02-27 14:54:32.110,-371.0,-782.0,542.0,13.0,6.0,-3.0,160,128,112,128,128
2025-02-27 14:54:32.114,-376.0,-781.0,506.0,16.0,6.0,-3.0,160,128,113,126,128
2025-02-27 14:54:32.118,-381.0,-789.0,518.0,23.0,7.0,-4.0,159,127,111,123,127
2025-02-27 14:54:32.122,-383.0,-782.0,474.0,31.0,5.0,-5.0,160,127,112,127,128
2025-02-27 14:54:32.130,-383.0,-758.0,478.0,37.0,2.0,-7.0,157,129,112,128,130
2025-02-27 14:54:32.134,-388.0,-731.0,468.0,39.0,-2.0,-9.0,162,130,111,126,128
2025-02-27 14:54:32.139,-386.0,-740.0,476.0,45.0,-5.0,-10.0,159,126,111,126,127
2025-02-27 14:54:32.143,-386.0,-735.0,481.0,48.0,-9.0,-11.0,158,125,111,126,127
2025-02-27 14:54:32.151,-364.0,-708.0,447.0,50.0,-18.0,-13.0,161,130,111,126,129
2025-02-27 14:54:32.155,-358.0,-687.0,497.0,52.0,-24.0,-13.0,162,128,112,127,128
2025-02-27 14:54:32.159,-353.0,-703.0,514.0,49.0,-30.0,-13.0,160,128,112,128,129
2025-02-27 14:54:32.167,-344.0,-650.0,529.0,50.0,-34.0,-14.0,160,127,111,126,128
2025-02-27 14:54:32.172,-350.0,-679.0,634.0,47.0,-37.0,-14.0,161,128,111,126,127
2025-02-27 14:54:32.176,-345.0,-681.0,602.0,47.0,-41.0,-14.0,160,128,112,128,128
2025-02-27 14:54:32.184,-337.0,-665.0,635.0,40.0,-44.0,-13.0,160,127,112,128,129
2025-02-27 14:54:32.187,-325.0,-654.0,677.0,38.0,-43.0,-14.0,160,129,112,128,129
2025-02-27 14:54:32.192,-314.0,-657.0,640.0,37.0,-44.0,-16.0,158,126,113,128,128
2025-02-27 14:54:32.199,-311.0,-673.0,708.0,36.0,-43.0,-17.0,159,129,112,125,128
2025-02-27 14:54:32.204,-313.0,-677.0,702.0,35.0,-41.0,-17.0,159,128,111,125,128
2025-02-27 14:54:32.208,-312.0,-685.0,686.0,37.0,-40.0,-18.0,161,129,114,127,128
2025-02-27 14:54:32.216,-300.0,-694.0,726.0,39.0,-35.0,-19.0,162,129,113,128,130
2025-02-27 14:54:32.220,-297.0,-712.0,731.0,41.0,-31.0,-20.0,162,130,111,126,126
2025-02-27 14:54:32.224,-283.0,-716.0,749.0,43.0,-27.0,-20.0,160,128,112,126,129
2025-02-27 14:54:32.229,-284.0,-723.0,756.0,47.0,-25.0,-20.0,160,129,111,126,128
2025-02-27 14:54:32.237,-268.0,-706.0,733.0,51.0,-23.0,-20.0,160,128,112,125,128
2025-02-27 14:54:32.241,-277.0,-692.0,739.0,54.0,-23.0,-20.0,160,130,114,128,128
2025-02-27 14:54:32.245,-280.0,-650.0,742.0,54.0,-24.0,-19.0,161,131,114,127,130
2025-02-27 14:54:32.253,-271.0,-652.0,747.0,54.0,-25.0,-19.0,160,129,113,127,129
2025-02-27 14:54:32.258,-259.0,-626.0,753.0,51.0,-26.0,-18.0,161,130,111,124,128
2025-02-27 14:54:32.262,-255.0,-616.0,751.0,46.0,-28.0,-19.0,160,129,112,125,129
2025-02-27 14:54:32.269,-265.0,-621.0,786.0,44.0,-30.0,-17.0,161,128,112,127,131
2025-02-27 14:54:32.274,-246.0,-606.0,787.0,38.0,-32.0,-16.0,161,132,113,127,130
2025-02-27 14:54:32.278,-231.0,-654.0,805.0,33.0,-33.0,-14.0,160,130,112,126,130
2025-02-27 14:54:32.286,-234.0,-639.0,777.0,32.0,-35.0,-13.0,160,130,113,127,130
2025-02-27 14:54:32.291,-230.0,-636.0,818.0,29.0,-35.0,-12.0,164,129,113,127,130
2025-02-27 14:54:32.295,-214.0,-634.0,809.0,23.0,-34.0,-11.0,160,129,113,127,130
2025-02-27 14:54:32.302,-215.0,-634.0,824.0,19.0,-33.0,-10.0,158,129,113,129,131
2025-02-27 14:54:32.306,-212.0,-653.0,816.0,14.0,-33.0,-9.0,160,129,114,128,130
2025-02-27 14:54:32.311,-200.0,-653.0,835.0,14.0,-32.0,-8.0,160,130,112,128,131
2025-02-27 14:54:32.318,-201.0,-667.0,828.0,9.0,-31.0,-7.0,160,130,112,129,129
2025-02-27 14:54:32.323,-202.0,-678.0,854.0,7.0,-26.0,-7.0,162,129,113,127,130
2025-02-27 14:54:32.327,-201.0,-678.0,822.0,5.0,-25.0,-5.0,162,130,113,128,131
2025-02-27 14:54:32.331,-196.0,-684.0,853.0,5.0,-19.0,-4.0,161,129,113,128,130
2025-02-27 14:54:32.339,-192.0,-688.0,829.0,3.0,-16.0,-3.0,160,130,112,126,130
2025-02-27 14:54:32.343,-199.0,-701.0,836.0,5.0,-15.0,-2.0,160,128,111,126,130
2025-02-27 14:54:32.348,-202.0,-698.0,815.0,4.0,-11.0,-1.0,161,131,115,128,132
2025-02-27 14:54:32.352,-203.0,-696.0,821.0,5.0,-7.0,0.0,160,131,113,126,131
2025-02-27 14:54:32.359,-203.0,-694.0,804.0,6.0,-6.0,0.0,160,129,113,126,131
2025-02-27 14:54:32.363,-202.0,-680.0,798.0,6.0,-5.0,0.0,159,128,111,125,130
2025-02-27 14:54:32.368,-207.0,-676.0,791.0,6.0,-4.0,0.0,163,130,112,129,132
2025-02-27 14:54:32.372,-220.0,-669.0,799.0,5.0,-3.0,1.0,160,130,112,127,131
2025-02-27 14:54:32.380,-211.0,-662.0,792.0,4.0,-3.0,1.0,159,130,112,127,130
2025-02-27 14:54:32.384,-218.0,-663.0,789.0,2.0,-3.0,1.0,161,129,112,127,130
2025-02-27 14:54:32.388,-222.0,-657.0,791.0,-1.0,-3.0,1.0,162,132,113,128,132
2025-02-27 14:54:32.393,-226.0,-644.0,768.0,-1.0,-3.0,1.0,161,131,114,126,132
2025-02-27 14:54:32.401,-215.0,-653.0,766.0,-2.0,-4.0,1.0,161,129,112,125,132
2025-02-27 14:54:32.405,-223.0,-638.0,762.0,-3.0,-4.0,1.0,161,130,113,126,132
2025-02-27 14:54:32.409,-227.0,-646.0,767.0,-5.0,-4.0,2.0,163,130,113,128,132
2025-02-27 14:54:32.414,-223.0,-646.0,756.0,-6.0,-4.0,2.0,160,130,113,126,131
2025-02-27 14:54:32.421,-225.0,-651.0,763.0,-6.0,-4.0,1.0,158,129,113,125,130
2025-02-27 14:54:32.426,-230.0,-647.0,755.0,-7.0,-3.0,2.0,162,130,113,129,131
2025-02-27 14:54:32.429,-214.0,-649.0,747.0,-5.0,-3.0,1.0,161,127,113,127,131
2025-02-27 14:54:32.433,-223.0,-652.0,743.0,-5.0,-2.0,1.0,161,129,113,126,130
2025-02-27 14:54:32.442,-236.0,-659.0,758.0,-4.0,1.0,1.0,160,131,111,126,130
2025-02-27 14:54:32.446,-233.0,-657.0,716.0,-3.0,1.0,0.0,160,129,114,127,132
2025-02-27 14:54:32.450,-230.0,-674.0,741.0,-2.0,3.0,0.0,161,130,112,129,131
2025-02-27 14:54:32.455,-232.0,-665.0,724.0,2.0,4.0,-1.0,160,130,111,127,131
2025-02-27 14:54:32.462,-232.0,-659.0,718.0,5.0,5.0,-1.0,161,130,113,126,131
2025-02-27 14:54:32.467,-243.0,-654.0,720.0,7.0,6.0,-2.0,162,130,114,128,131
2025-02-27 14:54:32.471,-236.0,-639.0,707.0,9.0,6.0,-2.0,161,130,112,131,132
2025-02-27 14:54:32.475,-246.0,-635.0,714.0,12.0,5.0,-2.0,159,130,113,127,131
2025-02-27 14:54:32.482,-251.0,-645.0,742.0,11.0,6.0,-2.0,161,132,114,127,131
2025-02-27 14:54:32.486,-259.0,-610.0,664.0,11.0,4.0,-3.0,160,130,113,128,131
2025-02-27 14:54:32.491,-249.0,-636.0,708.0,14.0,4.0,-3.0,161,130,113,126,131
2025-02-27 14:54:32.495,-255.0,-637.0,696.0,15.0,5.0,-4.0,160,129,112,126,129
2025-02-27 14:54:32.502,-257.0,-642.0,674.0,16.0,2.0,-3.0,161,130,113,127,131
2025-02-27 14:54:32.507,-266.0,-636.0,692.0,18.0,1.0,-4.0,162,129,113,127,131
2025-02-27 14:54:32.512,-260.0,-648.0,698.0,15.0,1.0,-4.0,161,128,114,128,132
2025-02-27 14:54:32.515,-254.0,-645.0,710.0,14.0,-3.0,-5.0,161,128,114,126,132
2025-02-27 14:54:32.523,-260.0,-632.0,695.0,12.0,-6.0,-5.0,161,131,113,126,132
2025-02-27 14:54:32.527,-265.0,-617.0,653.0,11.0,-12.0,-6.0,163,129,113,128,131
2025-02-27 14:54:32.532,-266.0,-633.0,730.0,12.0,-12.0,-7.0,162,131,113,126,131
2025-02-27 14:54:32.536,-252.0,-652.0,706.0,11.0,-11.0,-7.0,160,130,113,127,131
2025-02-27 14:54:32.544,-258.0,-623.0,723.0,10.0,-13.0,-8.0,160,129,115,127,131
2025-02-27 14:54:32.548,-243.0,-680.0,694.0,12.0,-14.0,-9.0,161,131,116,133,133
2025-02-27 14:54:32.553,-259.0,-642.0,693.0,15.0,-14.0,-11.0,162,135,114,127,131
2025-02-27 14:54:32.560,-334.0,-676.0,679.0,20.0,-14.0,-11.0,161,129,113,125,131
2025-02-27 14:54:32.564,-265.0,-703.0,682.0,26.0,-12.0,-13.0,161,130,113,126,128
2025-02-27 14:54:32.569,-275.0,-690.0,679.0,35.0,-9.0,-13.0,162,130,115,127,132
2025-02-27 14:54:32.576,-290.0,-691.0,689.0,44.0,-7.0,-14.0,161,131,114,127,132
2025-02-27 14:54:32.581,-278.0,-686.0,699.0,51.0,-5.0,-15.0,161,131,114,127,131
2025-02-27 14:54:32.585,-288.0,-673.0,691.0,61.0,-5.0,-16.0,160,130,113,126,133
2025-02-27 14:54:32.593,-288.0,-654.0,726.0,69.0,-6.0,-17.0,159,130,113,127,132
2025-02-27 14:54:32.597,-278.0,-603.0,736.0,73.0,-7.0,-18.0,160,130,117,128,133
2025-02-27 14:54:32.602,-261.0,-587.0,775.0,71.0,-11.0,-19.0,162,129,113,128,132
2025-02-27 14:54:32.606,-258.0,-568.0,823.0,73.0,-9.0,-18.0,161,132,114,128,134
2025-02-27 14:54:32.614,-252.0,-539.0,719.0,62.0,-20.0,-17.0,159,125,113,127,132
2025-02-27 14:54:32.618,-233.0,-523.0,759.0,63.0,-22.0,-16.0,160,130,113,126,133
2025-02-27 14:54:32.622,-219.0,-515.0,775.0,56.0,-30.0,-16.0,160,130,114,127,131
2025-02-27 14:54:32.630,-212.0,-548.0,777.0,50.0,-34.0,-13.0,162,131,114,129,135
2025-02-27 14:54:32.634,-229.0,-554.0,794.0,42.0,-37.0,-11.0,162,133,115,128,133
2025-02-27 14:54:32.639,-204.0,-571.0,826.0,40.0,-37.0,-8.0,161,131,114,129,133
2025-02-27 14:54:32.646,-208.0,-595.0,806.0,36.0,-37.0,-7.0,159,130,114,128,133
2025-02-27 14:54:32.651,-199.0,-590.0,765.0,34.0,-37.0,-5.0,165,130,113,127,134
2025-02-27 14:54:32.655,-179.0,-617.0,767.0,42.0,-41.0,-5.0,162,131,114,127,133
2025-02-27 14:54:32.663,-156.0,-643.0,816.0,48.0,-41.0,-4.0,162,130,114,126,135
2025-02-27 14:54:32.667,-151.0,-617.0,814.0,51.0,-41.0,-3.0,162,130,114,127,134
2025-02-27 14:54:32.671,-155.0,-616.0,859.0,57.0,-37.0,-3.0,161,132,114,127,133
2025-02-27 14:54:32.676,-145.0,-612.0,780.0,61.0,-41.0,-3.0,161,130,115,125,134
2025-02-27 14:54:32.683,-148.0,-544.0,875.0,62.0,-45.0,-3.0,161,129,115,126,134
2025-02-27 14:54:32.687,-139.0,-553.0,881.0,64.0,-46.0,-3.0,163,132,115,127,134
2025-02-27 14:54:32.692,-139.0,-518.0,903.0,64.0,-46.0,-3.0,161,130,114,126,134
2025-02-27 14:54:32.700,-127.0,-497.0,942.0,61.0,-46.0,-3.0,162,130,115,127,133
2025-02-27 14:54:32.704,-125.0,-495.0,928.0,58.0,-45.0,-3.0,163,131,113,127,132
2025-02-27 14:54:32.708,-117.0,-488.0,936.0,55.0,-47.0,-3.0,163,132,115,129,134
2025-02-27 14:54:32.713,-114.0,-489.0,935.0,49.0,-48.0,-2.0,163,130,115,127,134
2025-02-27 14:54:32.720,-124.0,-480.0,948.0,46.0,-49.0,-2.0,162,130,114,127,134
2025-02-27 14:54:32.724,-100.0,-490.0,973.0,43.0,-49.0,-1.0,163,130,114,127,133
2025-02-27 14:54:32.729,-95.0,-501.0,982.0,40.0,-47.0,0.0,159,131,114,124,133
2025-02-27 14:54:32.736,-87.0,-508.0,972.0,37.0,-47.0,1.0,161,131,114,128,134
2025-02-27 14:54:32.741,-85.0,-519.0,968.0,37.0,-45.0,1.0,162,131,114,125,133
2025-02-27 14:54:32.745,-80.0,-507.0,970.0,32.0,-44.0,2.0,163,133,115,126,133
2025-02-27 14:54:32.749,-85.0,-531.0,969.0,26.0,-44.0,3.0,163,131,115,127,133
2025-02-27 14:54:32.757,-91.0,-512.0,950.0,27.0,-42.0,4.0,163,130,115,128,134
2025-02-27 14:54:32.761,-89.0,-532.0,973.0,27.0,-42.0,4.0,167,130,115,126,134
2025-02-27 14:54:32.766,-89.0,-517.0,973.0,27.0,-41.0,5.0,162,130,115,127,135
2025-02-27 14:54:32.770,-70.0,-531.0,961.0,27.0,-37.0,5.0,161,131,115,129,134
2025-02-27 14:54:32.777,-104.0,-436.0,1011.0,28.0,-32.0,6.0,163,131,115,131,134
2025-02-27 14:54:32.782,-91.0,-487.0,1010.0,26.0,-31.0,6.0,162,131,115,126,133
2025-02-27 14:54:32.785,-77.0,-497.0,970.0,26.0,-32.0,6.0,163,129,114,128,133
2025-02-27 14:54:32.791,-70.0,-490.0,970.0,25.0,-29.0,6.0,162,129,115,127,134
2025-02-27 14:54:32.798,-77.0,-476.0,958.0,22.0,-30.0,6.0,163,130,115,128,135
2025-02-27 14:54:32.803,-73.0,-466.0,950.0,21.0,-31.0,5.0,161,130,115,128,134
2025-02-27 14:54:32.807,-73.0,-479.0,994.0,17.0,-29.0,6.0,161,130,115,127,134
2025-02-27 14:54:32.814,-73.0,-474.0,964.0,15.0,-28.0,6.0,162,131,116,127,134
2025-02-27 14:54:32.819,-82.0,-483.0,950.0,13.0,-26.0,6.0,162,133,114,127,135
2025-02-27 14:54:32.823,-72.0,-476.0,950.0,11.0,-25.0,7.0,163,130,115,127,134
2025-02-27 14:54:32.827,-63.0,-459.0,979.0,8.0,-24.0,7.0,163,132,116,127,135
2025-02-27 14:54:32.832,-75.0,-477.0,969.0,5.0,-22.0,7.0,163,133,116,128,134
2025-02-27 14:54:32.839,-80.0,-485.0,972.0,5.0,-20.0,8.0,164,131,115,128,135
2025-02-27 14:54:32.843,-67.0,-484.0,974.0,4.0,-18.0,7.0,161,130,114,127,134
2025-02-27 14:54:32.848,-72.0,-466.0,988.0,6.0,-14.0,8.0,161,131,114,126,135
2025-02-27 14:54:32.852,-83.0,-499.0,954.0,0.0,-12.0,8.0,162,131,117,127,135
2025-02-27 14:54:32.860,-73.0,-477.0,940.0,3.0,-11.0,8.0,161,131,117,129,133
2025-02-27 14:54:32.864,-87.0,-463.0,913.0,-1.0,-12.0,8.0,162,130,114,128,136
2025-02-27 14:54:32.868,-72.0,-466.0,920.0,2.0,-11.0,8.0,164,133,115,129,136
2025-02-27 14:54:32.872,-84.0,-465.0,926.0,3.0,-9.0,7.0,163,131,115,128,135
2025-02-27 14:54:32.880,-83.0,-453.0,940.0,3.0,-8.0,6.0,162,131,114,128,134
2025-02-27 14:54:32.884,-85.0,-456.0,928.0,2.0,-6.0,6.0,162,130,113,126,134
2025-02-27 14:54:32.889,-87.0,-451.0,941.0,1.0,-4.0,5.0,163,132,117,128,136
2025-02-27 14:54:32.893,-87.0,-435.0,909.0,-1.0,-4.0,4.0,162,133,115,126,134
2025-02-27 14:54:32.897,-84.0,-434.0,913.0,0.0,-4.0,4.0,163,131,114,125,134
2025-02-27 14:54:32.905,-87.0,-450.0,906.0,-1.0,-5.0,4.0,163,131,115,127,134
2025-02-27 14:54:32.909,-75.0,-441.0,878.0,-1.0,-6.0,4.0,164,132,115,129,135
2025-02-27 14:54:32.913,-78.0,-443.0,913.0,-3.0,-6.0,4.0,163,131,114,127,134
2025-02-27 14:54:32.918,-85.0,-449.0,916.0,-7.0,-4.0,4.0,164,132,115,128,135
2025-02-27 14:54:32.925,-87.0,-451.0,908.0,-8.0,-4.0,4.0,163,131,115,126,134
2025-02-27 14:54:32.929,-81.0,-449.0,923.0,-10.0,-2.0,5.0,164,131,115,128,134
2025-02-27 14:54:32.933,-85.0,-458.0,908.0,-13.0,-1.0,5.0,164,133,113,126,133
2025-02-27 14:54:32.938,-80.0,-460.0,896.0,-15.0,0.0,5.0,161,132,115,128,134
2025-02-27 14:54:32.945,-85.0,-469.0,896.0,-16.0,1.0,6.0,164,132,116,127,134
2025-02-27 14:54:32.950,-83.0,-476.0,901.0,-16.0,2.0,6.0,161,130,115,127,135
2025-02-27 14:54:32.954,-89.0,-479.0,897.0,-19.0,3.0,7.0,162,134,115,127,134
2025-02-27 14:54:32.959,-79.0,-479.0,907.0,-18.0,5.0,7.0,163,132,114,123,135
2025-02-27 14:54:32.966,-89.0,-483.0,886.0,-19.0,5.0,6.0,163,131,115,125,134
2025-02-27 14:54:32.970,-84.0,-491.0,884.0,-16.0,7.0,6.0,163,131,115,126,134
2025-02-27 14:54:32.974,-82.0,-498.0,883.0,-12.0,8.0,5.0,162,132,116,128,134
2025-02-27 14:54:32.978,-85.0,-510.0,905.0,-10.0,9.0,5.0,163,131,115,128,134
2025-02-27 14:54:32.983,-97.0,-489.0,864.0,-7.0,10.0,4.0,163,130,114,126,134
2025-02-27 14:54:32.990,-98.0,-491.0,905.0,-4.0,12.0,3.0,164,132,117,130,135
2025-02-27 14:54:32.995,-101.0,-486.0,872.0,-2.0,11.0,2.0,164,132,116,128,134
2025-02-27 14:54:32.999,-103.0,-467.0,863.0,-1.0,11.0,1.0,162,128,114,128,135
2025-02-27 14:54:33.003,-110.0,-472.0,881.0,1.0,13.0,1.0,162,128,115,127,135
2025-02-27 14:54:33.011,-102.0,-464.0,868.0,3.0,12.0,0.0,162,133,117,129,135
2025-02-27 14:54:33.015,-104.0,-463.0,857.0,2.0,11.0,-1.0,164,133,116,126,134
2025-02-27 14:54:33.020,-111.0,-454.0,857.0,2.0,10.0,-1.0,163,130,113,127,134
2025-02-27 14:54:33.024,-105.0,-450.0,877.0,2.0,10.0,-1.0,161,131,116,128,134
2025-02-27 14:54:33.032,-111.0,-447.0,877.0,-1.0,9.0,-1.0,164,133,116,127,136
2025-02-27 14:54:33.036,-112.0,-446.0,876.0,-2.0,9.0,-1.0,163,132,116,127,136
2025-02-27 14:54:33.040,-108.0,-450.0,868.0,-4.0,8.0,-1.0,159,130,116,124,134
2025-02-27 14:54:33.045,-106.0,-467.0,872.0,-7.0,7.0,-1.0,162,130,115,129,135
2025-02-27 14:54:33.052,-109.0,-470.0,864.0,-8.0,7.0,-1.0,166,132,115,132,135
2025-02-27 14:54:33.056,-105.0,-478.0,871.0,-9.0,6.0,-1.0,164,132,116,126,134
2025-02-27 14:54:33.061,-105.0,-465.0,872.0,-10.0,6.0,0.0,162,138,116,127,132
2025-02-27 14:54:33.068,-107.0,-474.0,873.0,-11.0,5.0,0.0,162,132,115,127,135
2025-02-27 14:54:33.072,-105.0,-479.0,882.0,-11.0,6.0,0.0,164,131,117,129,135
2025-02-27 14:54:33.077,-103.0,-497.0,883.0,-12.0,6.0,1.0,162,130,115,127,134
2025-02-27 14:54:33.081,-106.0,-503.0,880.0,-11.0,5.0,1.0,162,131,115,126,134
2025-02-27 14:54:33.089,-107.0,-504.0,869.0,-11.0,5.0,1.0,164,130,115,129,134
2025-02-27 14:54:33.093,-107.0,-505.0,879.0,-11.0,5.0,0.0,164,131,116,127,135
2025-02-27 14:54:33.097,-106.0,-510.0,848.0,-8.0,4.0,1.0,162,130,115,126,135
2025-02-27 14:54:33.102,-101.0,-509.0,867.0,-7.0,4.0,0.0,162,129,115,126,133
2025-02-27 14:54:33.106,-108.0,-505.0,868.0,-6.0,3.0,0.0,162,131,116,127,135
2025-02-27 14:54:33.113,-106.0,-515.0,892.0,-5.0,4.0,0.0,163,130,116,127,136
2025-02-27 14:54:33.118,-110.0,-515.0,896.0,-5.0,4.0,0.0,163,131,114,127,135
2025-02-27 14:54:33.122,-105.0,-509.0,880.0,-3.0,4.0,0.0,162,132,116,128,135
2025-02-27 14:54:33.127,-104.0,-502.0,892.0,-3.0,5.0,0.0,163,129,115,128,135
2025-02-27 14:54:33.133,-107.0,-507.0,887.0,1.0,5.0,0.0,160,130,115,127,136
2025-02-27 14:54:33.138,-103.0,-500.0,886.0,2.0,4.0,0.0,163,131,116,128,136
2025-02-27 14:54:33.143,-112.0,-499.0,893.0,1.0,3.0,-1.0,163,131,116,128,135
2025-02-27 14:54:33.147,-109.0,-490.0,887.0,1.0,3.0,-1.0,163,131,115,126,134
2025-02-27 14:54:33.154,-106.0,-484.0,896.0,1.0,2.0,-1.0,164,131,115,126,134
2025-02-27 14:54:33.159,-110.0,-471.0,894.0,0.0,1.0,-1.0,163,130,115,128,135
2025-02-27 14:54:33.163,-122.0,-484.0,910.0,-1.0,0.0,-2.0,163,131,116,127,134
2025-02-27 14:54:33.166,-117.0,-478.0,905.0,-2.0,0.0,-2.0,163,130,114,127,134
2025-02-27 14:54:33.175,-105.0,-488.0,906.0,-4.0,-1.0,-2.0,163,131,116,127,136
2025-02-27 14:54:33.179,-107.0,-490.0,907.0,-4.0,-3.0,-2.0,163,133,115,126,135
2025-02-27 14:54:33.183,-105.0,-496.0,909.0,-4.0,-2.0,-1.0,163,131,114,126,134
2025-02-27 14:54:33.188,-93.0,-481.0,901.0,-1.0,-2.0,-2.0,163,130,115,127,135
2025-02-27 14:54:33.195,-113.0,-487.0,918.0,-3.0,-3.0,-2.0,162,130,115,128,135
2025-02-27 14:54:33.200,-107.0,-502.0,923.0,-2.0,-2.0,-2.0,162,131,114,127,135
2025-02-27 14:54:33.204,-106.0,-480.0,906.0,-2.0,-3.0,-2.0,163,133,115,127,134
2025-02-27 14:54:33.208,-111.0,-484.0,916.0,-2.0,-3.0,-2.0,161,131,115,127,135
2025-02-27 14:54:33.216,-106.0,-472.0,917.0,-2.0,-3.0,-2.0,162,130,115,127,135
2025-02-27 14:54:33.220,-102.0,-493.0,907.0,0.0,-4.0,-2.0,164,130,114,127,135
2025-02-27 14:54:33.224,-92.0,-498.0,871.0,0.0,-6.0,-2.0,163,131,114,127,133
2025-02-27 14:54:33.232,-105.0,-496.0,914.0,0.0,-7.0,-2.0,165,130,114,127,135
2025-02-27 14:54:33.236,-98.0,-508.0,924.0,0.0,-5.0,-2.0,161,131,114,127,134
2025-02-27 14:54:33.240,-96.0,-494.0,910.0,0.0,-6.0,-2.0,162,129,115,127,135
2025-02-27 14:54:33.245,-100.0,-480.0,905.0,-1.0,-6.0,-2.0,165,132,116,127,135
2025-02-27 14:54:33.252,-97.0,-481.0,911.0,-2.0,-6.0,-2.0,162,132,117,126,134
2025-02-27 14:54:33.257,-101.0,-488.0,913.0,-2.0,-6.0,-2.0,163,131,115,126,134
2025-02-27 14:54:33.261,-100.0,-490.0,911.0,-3.0,-6.0,-2.0,162,131,118,128,135
2025-02-27 14:54:33.265,-95.0,-487.0,907.0,-3.0,-6.0,-2.0,164,132,115,128,134
2025-02-27 14:54:33.273,-92.0,-492.0,911.0,-4.0,-6.0,-2.0,162,134,114,127,137
2025-02-27 14:54:33.277,-92.0,-494.0,910.0,-4.0,-6.0,-1.0,164,130,115,125,131
2025-02-27 14:54:33.282,-99.0,-490.0,908.0,-6.0,-6.0,-1.0,163,131,115,127,137
2025-02-27 14:54:33.285,-103.0,-486.0,916.0,-6.0,-5.0,-1.0,163,132,114,127,135
2025-02-27 14:54:33.293,-99.0,-489.0,910.0,-7.0,-5.0,0.0,161,133,115,131,134
2025-02-27 14:54:33.298,-98.0,-484.0,904.0,-9.0,-5.0,0.0,163,134,116,127,134
2025-02-27 14:54:33.302,-97.0,-490.0,916.0,-9.0,-4.0,0.0,162,131,115,126,136
2025-02-27 14:54:33.306,-95.0,-499.0,895.0,-9.0,-4.0,1.0,163,131,114,126,134
2025-02-27 14:54:33.314,-92.0,-489.0,899.0,-10.0,-4.0,1.0,163,130,116,127,134
2025-02-27 14:54:33.318,-99.0,-508.0,905.0,-9.0,-3.0,1.0,164,133,115,127,135
2025-02-27 14:54:33.322,-93.0,-502.0,899.0,-10.0,-3.0,1.0,162,131,116,127,135
2025-02-27 14:54:33.327,-100.0,-505.0,894.0,-9.0,-3.0,1.0,163,130,114,127,135
2025-02-27 14:54:33.334,-97.0,-509.0,904.0,-9.0,-3.0,1.0,163,130,115,128,135
2025-02-27 14:54:33.339,-95.0,-509.0,898.0,-8.0,-3.0,0.0,163,132,115,127,135
2025-02-27 14:54:33.343,-96.0,-506.0,896.0,-8.0,-2.0,0.0,163,133,115,127,134
2025-02-27 14:54:33.348,-90.0,-511.0,891.0,-6.0,-2.0,0.0,163,132,115,127,134
2025-02-27 14:54:33.352,-94.0,-505.0,898.0,-4.0,-1.0,0.0,164,132,116,128,135
2025-02-27 14:54:33.359,-98.0,-510.0,885.0,-3.0,-1.0,-1.0,163,132,115,126,135
2025-02-27 14:54:33.363,-103.0,-500.0,901.0,-1.0,-1.0,-1.0,162,130,115,127,135
2025-02-27 14:54:33.367,-102.0,-500.0,902.0,0.0,0.0,-1.0,163,131,113,127,134
2025-02-27 14:54:33.372,-105.0,-494.0,899.0,0.0,0.0,-1.0,164,133,115,128,135
2025-02-27 14:54:33.379,-99.0,-494.0,895.0,1.0,1.0,-1.0,163,132,114,129,134
2025-02-27 14:54:33.384,-107.0,-490.0,890.0,0.0,1.0,-2.0,162,131,114,127,134
2025-02-27 14:54:33.388,-102.0,-487.0,885.0,1.0,1.0,-1.0,163,132,116,127,136
2025-02-27 14:54:33.392,-98.0,-495.0,890.0,0.0,1.0,-2.0,164,132,115,129,134
2025-02-27 14:54:33.400,-104.0,-490.0,882.0,0.0,1.0,-2.0,161,131,115,126,135
2025-02-27 14:54:33.404,-104.0,-484.0,890.0,-1.0,0.0,-2.0,162,131,115,129,135
2025-02-27 14:54:33.408,-106.0,-489.0,894.0,-2.0,0.0,-2.0,162,133,116,127,135
2025-02-27 14:54:33.412,-106.0,-489.0,885.0,-3.0,0.0,-2.0,161,131,114,127,135
2025-02-27 14:54:33.420,-105.0,-496.0,885.0,-4.0,0.0,-2.0,162,130,114,127,134
2025-02-27 14:54:33.424,-97.0,-497.0,882.0,-3.0,0.0,-2.0,163,132,115,128,135
2025-02-27 14:54:33.429,-105.0,-497.0,886.0,-4.0,-1.0,-2.0,164,133,116,128,135
2025-02-27 14:54:33.433,-104.0,-504.0,887.0,-3.0,0.0,-2.0,162,131,115,127,135
2025-02-27 14:54:33.441,-105.0,-500.0,887.0,-3.0,0.0,-2.0,163,132,115,126,135
2025-02-27 14:54:33.445,-102.0,-499.0,894.0,-4.0,0.0,-2.0,163,131,113,129,135
2025-02-27 14:54:33.450,-104.0,-503.0,898.0,-4.0,1.0,-2.0,164,133,116,129,136
2025-02-27 14:54:33.454,-103.0,-503.0,890.0,-5.0,1.0,-2.0,163,133,115,127,135
2025-02-27 14:54:33.461,-99.0,-504.0,892.0,-6.0,2.0,-2.0,163,131,116,126,134
2025-02-27 14:54:33.466,-98.0,-502.0,884.0,-5.0,1.0,-2.0,163,128,115,130,135
2025-02-27 14:54:33.470,-105.0,-504.0,880.0,-5.0,1.0,-2.0,163,132,116,128,136
2025-02-27 14:54:33.474,-102.0,-512.0,884.0,-5.0,1.0,-1.0,163,131,114,128,135
2025-02-27 14:54:33.482,-99.0,-508.0,890.0,-5.0,2.0,-1.0,162,129,114,126,134
2025-02-27 14:54:33.486,-98.0,-503.0,881.0,-6.0,1.0,-1.0,163,132,115,128,136
2025-02-27 14:54:33.491,-110.0,-516.0,893.0,-7.0,2.0,-1.0,164,134,116,129,136
2025-02-27 14:54:33.495,-100.0,-508.0,864.0,-7.0,2.0,-1.0,162,130,114,126,135
2025-02-27 14:54:33.503,-105.0,-513.0,906.0,-6.0,3.0,-1.0,163,133,115,125,134
2025-02-27 14:54:33.507,-114.0,-485.0,905.0,-7.0,4.0,-1.0,163,132,115,128,135
2025-02-27 14:54:33.511,-116.0,-542.0,856.0,-8.0,2.0,0.0,164,132,114,128,133
2025-02-27 14:54:33.515,-111.0,-522.0,883.0,-9.0,2.0,-1.0,164,131,114,127,136
2025-02-27 14:54:33.523,-100.0,-506.0,889.0,-9.0,3.0,0.0,162,132,115,127,133
2025-02-27 14:54:33.527,-107.0,-518.0,878.0,-8.0,3.0,-1.0,162,131,115,127,135
2025-02-27 14:54:33.531,-109.0,-534.0,878.0,-7.0,2.0,0.0,162,133,114,130,134
2025-02-27 14:54:33.535,-104.0,-523.0,865.0,-8.0,2.0,0.0,163,131,114,127,134
2025-02-27 14:54:33.544,-108.0,-510.0,864.0,-7.0,1.0,0.0,164,128,115,128,133
2025-02-27 14:54:33.548,-106.0,-513.0,881.0,-7.0,1.0,1.0,163,128,115,127,134
2025-02-27 14:54:33.552,-111.0,-516.0,877.0,-7.0,1.0,1.0,162,132,115,126,135
2025-02-27 14:54:33.556,-110.0,-507.0,887.0,-7.0,2.0,1.0,163,130,115,128,135
2025-02-27 14:54:33.564,-109.0,-512.0,875.0,-7.0,1.0,1.0,162,131,115,126,135
2025-02-27 14:54:33.568,-114.0,-508.0,876.0,-7.0,1.0,0.0,163,132,115,127,134
2025-02-27 14:54:33.572,-108.0,-508.0,882.0,-7.0,2.0,0.0,166,134,116,125,135
2025-02-27 14:54:33.576,-110.0,-518.0,879.0,-7.0,2.0,1.0,162,132,115,127,135
2025-02-27 14:54:33.581,-116.0,-512.0,877.0,-7.0,3.0,0.0,162,129,115,127,134
2025-02-27 14:54:33.588,-116.0,-517.0,883.0,-7.0,2.0,0.0,162,131,112,127,135
2025-02-27 14:54:33.593,-115.0,-509.0,876.0,-7.0,3.0,1.0,164,132,115,128,135
2025-02-27 14:54:33.597,-119.0,-512.0,875.0,-7.0,3.0,0.0,163,131,115,126,136
2025-02-27 14:54:33.602,-114.0,-511.0,872.0,-7.0,2.0,0.0,162,132,115,126,134
2025-02-27 14:54:33.609,-118.0,-506.0,863.0,-7.0,2.0,0.0,165,133,116,127,136
2025-02-27 14:54:33.613,-114.0,-515.0,863.0,-6.0,1.0,0.0,163,132,115,126,134
2025-02-27 14:54:33.618,-119.0,-513.0,875.0,-6.0,1.0,0.0,163,132,114,127,135
2025-02-27 14:54:33.621,-123.0,-521.0,868.0,-6.0,0.0,0.0,162,131,114,127,134
2025-02-27 14:54:33.630,-119.0,-520.0,877.0,-5.0,0.0,0.0,164,134,115,128,134
2025-02-27 14:54:33.634,-112.0,-510.0,871.0,-5.0,0.0,0.0,163,133,115,127,135
2025-02-27 14:54:33.638,-114.0,-514.0,876.0,-4.0,-1.0,-1.0,163,132,114,126,134
2025-02-27 14:54:33.642,-114.0,-515.0,877.0,-4.0,-1.0,-1.0,163,132,115,127,135
2025-02-27 14:54:33.650,-120.0,-512.0,877.0,-3.0,-1.0,-1.0,163,131,116,128,135
2025-02-27 14:54:33.654,-118.0,-512.0,889.0,-3.0,0.0,-1.0,163,132,114,127,135
2025-02-27 14:54:33.658,-122.0,-516.0,885.0,-3.0,0.0,-2.0,162,131,114,127,134
2025-02-27 14:54:33.663,-117.0,-514.0,886.0,-2.0,0.0,-2.0,163,134,114,129,135
2025-02-27 14:54:33.670,-114.0,-511.0,882.0,-2.0,0.0,-2.0,163,133,114,128,135
2025-02-27 14:54:33.675,-116.0,-514.0,882.0,-2.0,0.0,-2.0,162,131,114,128,135
2025-02-27 14:54:33.679,-115.0,-512.0,884.0,-2.0,0.0,-2.0,161,131,113,127,135
2025-02-27 14:54:33.683,-110.0,-511.0,883.0,-2.0,0.0,-2.0,163,133,115,126,135
2025-02-27 14:54:33.691,-114.0,-507.0,886.0,-2.0,0.0,-2.0,163,133,115,128,133
2025-02-27 14:54:33.695,-108.0,-517.0,888.0,-2.0,-1.0,-3.0,162,132,115,127,134
2025-02-27 14:54:33.699,-109.0,-518.0,890.0,-1.0,-1.0,-2.0,163,131,114,125,134
2025-02-27 14:54:33.707,-104.0,-521.0,887.0,-1.0,-1.0,-2.0,165,132,115,127,134
2025-02-27 14:54:33.711,-106.0,-526.0,886.0,0.0,-1.0,-2.0,163,131,116,128,132
2025-02-27 14:54:33.715,-107.0,-523.0,900.0,0.0,-1.0,-2.0,165,133,115,127,135
2025-02-27 14:54:33.720,-103.0,-521.0,905.0,-1.0,-1.0,-1.0,163,131,113,128,135
2025-02-27 14:54:33.727,-106.0,-520.0,902.0,-2.0,-1.0,-1.0,163,132,114,126,135
2025-02-27 14:54:33.732,-106.0,-520.0,905.0,-2.0,0.0,-1.0,164,133,115,129,136
2025-02-27 14:54:33.736,-103.0,-519.0,902.0,-3.0,0.0,-1.0,163,132,116,127,135
2025-02-27 14:54:33.740,-108.0,-514.0,904.0,-3.0,0.0,-1.0,162,128,113,125,134
2025-02-27 14:54:33.748,-106.0,-520.0,898.0,-4.0,0.0,-1.0,163,131,115,128,134
2025-02-27 14:54:33.752,-105.0,-520.0,897.0,-4.0,1.0,-1.0,164,131,117,129,135
2025-02-27 14:54:33.756,-106.0,-526.0,898.0,-5.0,1.0,-1.0,162,131,115,128,135
2025-02-27 14:54:33.761,-107.0,-526.0,892.0,-5.0,1.0,0.0,162,131,111,127,134
2025-02-27 14:54:33.768,-107.0,-531.0,886.0,-4.0,1.0,0.0,163,132,115,129,135
2025-02-27 14:54:33.773,-108.0,-527.0,885.0,-4.0,1.0,0.0,164,132,113,128,135
2025-02-27 14:54:33.777,-105.0,-528.0,889.0,-4.0,1.0,0.0,163,132,115,128,134
2025-02-27 14:54:33.781,-105.0,-533.0,889.0,-3.0,1.0,0.0,163,129,113,126,134
2025-02-27 14:54:33.789,-113.0,-528.0,889.0,-2.0,2.0,0.0,162,132,115,127,135
2025-02-27 14:54:33.793,-107.0,-518.0,882.0,-2.0,2.0,-1.0,162,132,115,127,135
2025-02-27 14:54:33.798,-107.0,-516.0,876.0,-2.0,1.0,-1.0,162,132,114,128,134
2025-02-27 14:54:33.802,-113.0,-514.0,889.0,-2.0,1.0,0.0,163,123,110,127,137
2025-02-27 14:54:33.811,-106.0,-517.0,882.0,-2.0,2.0,-1.0,163,133,115,127,134
2025-02-27 14:54:33.814,-111.0,-522.0,887.0,-2.0,1.0,-1.0,164,131,115,128,135
2025-02-27 14:54:33.818,-112.0,-518.0,887.0,-3.0,2.0,-1.0,162,131,115,126,134
2025-02-27 14:54:33.822,-113.0,-514.0,887.0,-4.0,2.0,-1.0,162,132,115,129,135
2025-02-27 14:54:33.830,-113.0,-519.0,882.0,-4.0,2.0,-1.0,163,130,114,127,136
2025-02-27 14:54:33.834,-116.0,-521.0,884.0,-4.0,2.0,-1.0,161,132,115,127,133
2025-02-27 14:54:33.838,-116.0,-521.0,883.0,-4.0,2.0,0.0,162,129,112,127,135
2025-02-27 14:54:33.843,-118.0,-519.0,873.0,-4.0,2.0,-1.0,163,132,114,126,135
2025-02-27 14:54:33.850,-118.0,-524.0,882.0,-4.0,2.0,-1.0,162,132,115,128,135
2025-02-27 14:54:33.854,-117.0,-523.0,870.0,-4.0,2.0,-1.0,162,130,114,127,134
2025-02-27 14:54:33.858,-115.0,-526.0,878.0,-4.0,2.0,0.0,163,132,114,127,135
2025-02-27 14:54:33.863,-119.0,-532.0,880.0,-4.0,2.0,0.0,163,132,115,126,135
2025-02-27 14:54:33.870,-113.0,-528.0,874.0,-4.0,2.0,0.0,162,132,114,128,135
2025-02-27 14:54:33.876,-118.0,-531.0,872.0,-4.0,1.0,0.0,163,130,114,127,134
2025-02-27 14:54:33.879,-117.0,-524.0,874.0,-4.0,1.0,0.0,163,131,115,127,135
2025-02-27 14:54:33.883,-119.0,-531.0,878.0,-4.0,1.0,0.0,164,131,114,127,136
2025-02-27 14:54:33.887,-117.0,-533.0,876.0,-3.0,1.0,0.0,163,131,113,126,134
2025-02-27 14:54:33.896,-112.0,-526.0,869.0,-3.0,1.0,0.0,163,132,115,128,135
2025-02-27 14:54:33.900,-115.0,-525.0,872.0,-3.0,1.0,-1.0,163,131,113,128,135
2025-02-27 14:54:33.904,-121.0,-522.0,881.0,-2.0,1.0,-1.0,161,132,114,126,135
2025-02-27 14:54:33.909,-124.0,-518.0,884.0,-3.0,1.0,-1.0,163,131,115,126,135
2025-02-27 14:54:33.916,-116.0,-512.0,869.0,-2.0,1.0,-1.0,164,133,115,127,135
2025-02-27 14:54:33.921,-114.0,-520.0,876.0,-3.0,1.0,-1.0,162,131,115,127,135
2025-02-27 14:54:33.924,-117.0,-521.0,885.0,-3.0,1.0,-1.0,163,129,114,127,135
2025-02-27 14:54:33.928,-117.0,-522.0,871.0,-3.0,1.0,-1.0,164,132,115,125,134
2025-02-27 14:54:33.936,-113.0,-523.0,876.0,-3.0,1.0,-1.0,163,131,115,127,135
2025-02-27 14:54:33.940,-118.0,-529.0,884.0,-3.0,1.0,-1.0,164,133,114,128,135
2025-02-27 14:54:33.945,-118.0,-536.0,875.0,-2.0,1.0,-1.0,163,130,113,126,135
2025-02-27 14:54:33.949,-115.0,-523.0,874.0,-3.0,1.0,-1.0,161,131,113,127,134
2025-02-27 14:54:33.957,-120.0,-523.0,877.0,-3.0,2.0,-1.0,162,132,114,127,136
2025-02-27 14:54:33.961,-121.0,-524.0,874.0,-3.0,1.0,-1.0,162,132,115,128,135
2025-02-27 14:54:33.965,-117.0,-525.0,882.0,-4.0,1.0,-1.0,162,132,114,125,134
2025-02-27 14:54:33.973,-116.0,-527.0,880.0,-4.0,2.0,-1.0,162,131,114,127,134
2025-02-27 14:54:33.977,-115.0,-526.0,870.0,-5.0,2.0,0.0,164,133,114,128,135
2025-02-27 14:54:33.981,-118.0,-537.0,872.0,-4.0,1.0,0.0,163,131,114,126,135
2025-02-27 14:54:33.986,-113.0,-534.0,874.0,-4.0,1.0,0.0,162,132,114,128,134
2025-02-27 14:54:33.990,-120.0,-542.0,874.0,-4.0,1.0,0.0,164,133,114,128,135
2025-02-27 14:54:33.998,-118.0,-540.0,878.0,-4.0,2.0,0.0,163,130,115,126,135
2025-02-27 14:54:34.002,-124.0,-541.0,880.0,-4.0,2.0,0.0,161,126,114,127,134
2025-02-27 14:54:34.007,-116.0,-534.0,870.0,-4.0,2.0,0.0,162,129,114,126,133
2025-02-27 14:54:34.010,-122.0,-538.0,874.0,-4.0,2.0,0.0,163,132,111,128,136
2025-02-27 14:54:34.019,-123.0,-533.0,871.0,-4.0,2.0,0.0,162,131,115,128,134
2025-02-27 14:54:34.023,-124.0,-536.0,869.0,-4.0,2.0,0.0,163,131,115,125,134
2025-02-27 14:54:34.027,-123.0,-532.0,865.0,-4.0,2.0,0.0,162,131,114,128,135
2025-02-27 14:54:34.031,-122.0,-541.0,861.0,-4.0,2.0,1.0,164,132,115,128,135
2025-02-27 14:54:34.039,-116.0,-539.0,873.0,-5.0,2.0,1.0,162,132,113,126,134
2025-02-27 14:54:34.043,-119.0,-534.0,864.0,-6.0,2.0,1.0,161,131,112,126,134
2025-02-27 14:54:34.047,-123.0,-534.0,865.0,-6.0,2.0,1.0,162,131,114,129,136
2025-02-27 14:54:34.051,-125.0,-539.0,864.0,-6.0,2.0,1.0,163,132,114,128,133
2025-02-27 14:54:34.059,-123.0,-537.0,862.0,-6.0,2.0,1.0,163,132,114,127,135
2025-02-27 14:54:34.063,-121.0,-543.0,874.0,-5.0,2.0,1.0,163,132,115,126,135
2025-02-27 14:54:34.068,-115.0,-534.0,856.0,-5.0,2.0,1.0,163,130,115,126,133
2025-02-27 14:54:34.072,-122.0,-531.0,866.0,-5.0,1.0,1.0,162,131,114,128,135
2025-02-27 14:54:34.076,-129.0,-528.0,861.0,-6.0,1.0,1.0,163,133,115,127,135
2025-02-27 14:54:34.084,-129.0,-530.0,865.0,-6.0,2.0,2.0,162,132,114,128,135
2025-02-27 14:54:34.088,-129.0,-520.0,862.0,-6.0,1.0,1.0,161,131,113,127,135
2025-02-27 14:54:34.093,-126.0,-537.0,866.0,-6.0,1.0,1.0,164,131,114,130,135
2025-02-27 14:54:34.097,-128.0,-538.0,867.0,-6.0,2.0,2.0,163,131,115,128,135
2025-02-27 14:54:34.104,-122.0,-528.0,832.0,-6.0,1.0,1.0,163,131,112,126,134
2025-02-27 14:54:34.109,-128.0,-538.0,859.0,-5.0,1.0,1.0,162,133,114,127,135
2025-02-27 14:54:34.113,-131.0,-536.0,849.0,-4.0,1.0,1.0,163,131,115,128,134
2025-02-27 14:54:34.117,-131.0,-542.0,857.0,-4.0,1.0,1.0,163,132,115,129,135
2025-02-27 14:54:34.125,-131.0,-536.0,852.0,-3.0,1.0,1.0,163,130,110,127,134
2025-02-27 14:54:34.129,-130.0,-533.0,844.0,-3.0,0.0,1.0,164,131,113,126,134
2025-02-27 14:54:34.133,-128.0,-530.0,852.0,-3.0,0.0,0.0,164,133,115,127,134
2025-02-27 14:54:34.137,-128.0,-529.0,853.0,-2.0,0.0,0.0,163,133,114,126,135
2025-02-27 14:54:34.145,-128.0,-530.0,853.0,-2.0,-1.0,0.0,163,130,115,126,134
2025-02-27 14:54:34.149,-131.0,-531.0,854.0,-2.0,-1.0,0.0,161,132,114,128,135
2025-02-27 14:54:34.154,-135.0,-531.0,855.0,-2.0,-1.0,0.0,163,131,114,127,135
2025-02-27 14:54:34.158,-130.0,-530.0,864.0,-2.0,-1.0,-1.0,163,130,114,126,133
2025-02-27 14:54:34.166,-130.0,-532.0,863.0,-2.0,-1.0,-1.0,163,131,114,127,135
2025-02-27 14:54:34.170,-132.0,-527.0,861.0,-2.0,-1.0,-1.0,163,131,115,128,135
2025-02-27 14:54:34.174,-134.0,-536.0,862.0,-3.0,-1.0,-1.0,163,132,114,128,136
2025-02-27 14:54:34.178,-126.0,-533.0,859.0,-2.0,-1.0,0.0,163,133,115,126,134
2025-02-27 14:54:34.186,-129.0,-533.0,861.0,-2.0,-1.0,0.0,163,133,114,127,134
2025-02-27 14:54:34.191,-127.0,-534.0,862.0,-2.0,-1.0,0.0,162,131,114,129,135
2025-02-27 14:54:34.195,-125.0,-538.0,861.0,-2.0,-1.0,0.0,165,131,114,127,135
2025-02-27 14:54:34.199,-131.0,-533.0,863.0,-2.0,-1.0,0.0,162,132,115,127,135
2025-02-27 14:54:34.207,-129.0,-528.0,867.0,-2.0,-1.0,0.0,163,132,113,126,133
2025-02-27 14:54:34.211,-125.0,-532.0,865.0,-2.0,-1.0,-1.0,164,132,115,128,136
2025-02-27 14:54:34.215,-126.0,-529.0,864.0,-2.0,-2.0,-1.0,163,133,114,127,135
2025-02-27 14:54:34.220,-121.0,-528.0,871.0,-2.0,-2.0,-1.0,163,132,115,127,135
2025-02-27 14:54:34.227,-130.0,-526.0,872.0,-2.0,-2.0,-1.0,163,132,114,125,134
2025-02-27 14:54:34.232,-128.0,-531.0,878.0,-2.0,-1.0,-1.0,164,133,116,128,133
2025-02-27 14:54:34.236,-127.0,-531.0,878.0,-2.0,-1.0,-1.0,163,131,114,127,133
2025-02-27 14:54:34.244,-128.0,-534.0,879.0,-2.0,-1.0,-1.0,162,132,113,126,134
2025-02-27 14:54:34.248,-125.0,-531.0,872.0,-2.0,-1.0,-1.0,166,131,115,127,135
2025-02-27 14:54:34.252,-122.0,-530.0,876.0,-1.0,-1.0,-1.0,162,131,113,127,134
2025-02-27 14:54:34.257,-119.0,-534.0,871.0,-1.0,-1.0,-1.0,163,132,115,127,136
2025-02-27 14:54:34.265,-119.0,-535.0,878.0,-1.0,0.0,-1.0,164,131,114,126,134
2025-02-27 14:54:34.269,-124.0,-534.0,877.0,0.0,0.0,-1.0,163,132,115,127,134
2025-02-27 14:54:34.273,-123.0,-534.0,878.0,-1.0,0.0,-1.0,162,131,113,126,134
2025-02-27 14:54:34.277,-122.0,-535.0,876.0,-1.0,0.0,-2.0,162,131,116,128,135
2025-02-27 14:54:34.285,-121.0,-540.0,877.0,-1.0,0.0,-1.0,162,132,116,127,135
2025-02-27 14:54:34.289,-122.0,-529.0,870.0,-1.0,0.0,-1.0,163,131,113,127,135
2025-02-27 14:54:34.293,-127.0,-527.0,879.0,-1.0,0.0,-1.0,162,131,112,126,135
2025-02-27 14:54:34.297,-124.0,-532.0,891.0,-2.0,1.0,-1.0,163,130,115,127,135
2025-02-27 14:54:34.305,-128.0,-528.0,875.0,-2.0,1.0,-1.0,164,132,114,125,133
2025-02-27 14:54:34.310,-122.0,-532.0,883.0,-3.0,1.0,-1.0,163,131,113,126,134
2025-02-27 14:54:34.314,-129.0,-531.0,869.0,-4.0,2.0,-1.0,163,133,115,128,135
2025-02-27 14:54:34.318,-125.0,-536.0,868.0,-4.0,2.0,-1.0,163,131,114,126,135
2025-02-27 14:54:34.326,-125.0,-539.0,870.0,-4.0,2.0,-1.0,163,132,114,128,135
2025-02-27 14:54:34.330,-130.0,-541.0,863.0,-4.0,1.0,-1.0,162,130,114,126,134
2025-02-27 14:54:34.334,-125.0,-535.0,867.0,-3.0,2.0,-1.0,162,133,114,128,133
2025-02-27 14:54:34.338,-131.0,-542.0,858.0,-3.0,1.0,-1.0,161,132,114,128,134
2025-02-27 14:54:34.346,-127.0,-537.0,855.0,-3.0,1.0,-1.0,162,130,113,126,135
2025-02-27 14:54:34.350,-131.0,-540.0,859.0,-2.0,1.0,-1.0,163,131,115,126,135
2025-02-27 14:54:34.355,-137.0,-540.0,851.0,-3.0,0.0,-1.0,164,132,115,127,135
2025-02-27 14:54:34.362,-131.0,-544.0,855.0,-3.0,0.0,-1.0,164,133,115,127,135
2025-02-27 14:54:34.366,-134.0,-546.0,859.0,-3.0,0.0,-1.0,163,132,113,126,134
2025-02-27 14:54:34.371,-129.0,-545.0,854.0,-2.0,0.0,-1.0,161,131,114,129,135
2025-02-27 14:54:34.375,-129.0,-546.0,861.0,-2.0,0.0,-1.0,162,132,115,127,135
2025-02-27 14:54:34.383,-133.0,-546.0,855.0,-2.0,0.0,-1.0,163,132,115,129,136
2025-02-27 14:54:34.387,-132.0,-543.0,867.0,-3.0,0.0,-2.0,162,132,114,127,134
2025-02-27 14:54:34.392,-133.0,-556.0,889.0,-3.0,2.0,-1.0,163,131,114,128,135
2025-02-27 14:54:34.396,-132.0,-527.0,837.0,-3.0,0.0,-1.0,163,132,115,129,136
2025-02-27 14:54:34.403,-124.0,-560.0,881.0,-2.0,2.0,-1.0,162,133,114,127,135
2025-02-27 14:54:34.408,-132.0,-538.0,837.0,-1.0,1.0,-1.0,163,131,113,126,135
2025-02-27 14:54:34.412,-125.0,-538.0,877.0,-2.0,2.0,-1.0,163,132,113,128,136
2025-02-27 14:54:34.417,-127.0,-549.0,844.0,-2.0,1.0,-1.0,163,132,115,127,135
2025-02-27 14:54:34.424,-129.0,-545.0,880.0,-2.0,2.0,0.0,162,133,114,127,135
2025-02-27 14:54:34.428,-125.0,-535.0,839.0,-3.0,1.0,-1.0,162,131,114,125,134
2025-02-27 14:54:34.432,-132.0,-538.0,874.0,-2.0,2.0,0.0,164,132,114,128,137
2025-02-27 14:54:34.437,-127.0,-538.0,846.0,-2.0,0.0,0.0,163,132,114,128,136
2025-02-27 14:54:34.445,-128.0,-543.0,861.0,-1.0,0.0,0.0,163,130,112,127,134
2025-02-27 14:54:34.449,-126.0,-548.0,852.0,-2.0,0.0,0.0,162,132,115,128,134
2025-02-27 14:54:34.453,-125.0,-542.0,851.0,-1.0,0.0,0.0,164,135,114,129,135
2025-02-27 14:54:34.457,-125.0,-546.0,862.0,-2.0,0.0,0.0,163,131,116,128,135
2025-02-27 14:54:34.461,-125.0,-543.0,853.0,-2.0,0.0,0.0,161,132,113,125,134
2025-02-27 14:54:34.469,-132.0,-538.0,873.0,-2.0,0.0,0.0,163,134,115,127,135
2025-02-27 14:54:34.473,-119.0,-541.0,868.0,-3.0,1.0,0.0,165,132,114,129,136
2025-02-27 14:54:34.478,-124.0,-536.0,854.0,-3.0,1.0,0.0,163,131,113,127,135
2025-02-27 14:54:34.481,-124.0,-527.0,845.0,-3.0,0.0,0.0,161,128,113,127,136
2025-02-27 14:54:34.489,-133.0,-556.0,897.0,-4.0,2.0,0.0,163,132,114,128,135
2025-02-27 14:54:34.494,-124.0,-546.0,848.0,-4.0,0.0,0.0,164,133,114,127,135
2025-02-27 14:54:34.498,-127.0,-523.0,848.0,-4.0,0.0,0.0,162,131,113,126,135
2025-02-27 14:54:34.502,-123.0,-549.0,875.0,-3.0,1.0,1.0,164,132,114,131,134
2025-02-27 14:54:34.510,-126.0,-527.0,845.0,-4.0,0.0,0.0,163,132,113,128,134
2025-02-27 14:54:34.514,-126.0,-536.0,857.0,-3.0,0.0,1.0,162,132,114,126,134
2025-02-27 14:54:34.518,-131.0,-534.0,861.0,-3.0,0.0,0.0,163,131,113,126,134
2025-02-27 14:54:34.522,-128.0,-535.0,855.0,-4.0,0.0,0.0,164,128,115,126,135
2025-02-27 14:54:34.530,-130.0,-536.0,858.0,-4.0,0.0,0.0,163,130,113,127,135
2025-02-27 14:54:34.534,-128.0,-539.0,860.0,-4.0,0.0,0.0,164,133,114,128,134
2025-02-27 14:54:34.539,-130.0,-534.0,853.0,-3.0,0.0,0.0,163,129,114,128,136
2025-02-27 14:54:34.544,-127.0,-536.0,858.0,-3.0,1.0,0.0,163,131,112,127,134
2025-02-27 14:54:34.548,-133.0,-534.0,851.0,-3.0,1.0,0.0,162,132,114,128,134
2025-02-27 14:54:34.555,-135.0,-530.0,860.0,-3.0,1.0,0.0,164,132,114,128,136
2025-02-27 14:54:34.559,-133.0,-529.0,856.0,-3.0,1.0,0.0,163,132,114,128,135
2025-02-27 14:54:34.564,-138.0,-526.0,852.0,-3.0,1.0,0.0,166,131,114,129,134
2025-02-27 14:54:34.568,-137.0,-529.0,851.0,-4.0,1.0,-1.0,162,131,117,127,135
2025-02-27 14:54:34.576,-137.0,-524.0,850.0,-3.0,1.0,-1.0,165,132,112,127,134
2025-02-27 14:54:34.580,-138.0,-524.0,850.0,-3.0,0.0,-1.0,163,133,114,127,135
2025-02-27 14:54:34.584,-136.0,-530.0,851.0,-4.0,0.0,-2.0,162,135,114,127,134
2025-02-27 14:54:34.589,-140.0,-534.0,855.0,-4.0,-1.0,-2.0,162,130,112,127,135
2025-02-27 14:54:34.596,-129.0,-535.0,856.0,-3.0,-1.0,-3.0,163,132,115,128,135
2025-02-27 14:54:34.600,-125.0,-539.0,856.0,-3.0,-1.0,-3.0,163,131,114,128,135
2025-02-27 14:54:34.604,-127.0,-541.0,852.0,-2.0,-1.0,-3.0,162,131,113,127,133
2025-02-27 14:54:34.613,-134.0,-540.0,859.0,-2.0,-1.0,-3.0,162,131,113,127,134
2025-02-27 14:54:34.616,-132.0,-541.0,864.0,-1.0,0.0,-3.0,162,130,114,128,135
2025-02-27 14:54:34.621,-137.0,-541.0,863.0,-1.0,0.0,-2.0,165,134,114,126,134
2025-02-27 14:54:34.625,-133.0,-542.0,861.0,-2.0,0.0,-3.0,163,131,113,127,134
2025-02-27 14:54:34.632,-130.0,-538.0,862.0,-1.0,0.0,-2.0,161,133,113,127,136
2025-02-27 14:54:34.637,-131.0,-544.0,860.0,-2.0,0.0,-2.0,164,131,113,128,135
2025-02-27 14:54:34.642,-131.0,-542.0,865.0,-2.0,0.0,-2.0,162,131,113,127,135
2025-02-27 14:54:34.646,-130.0,-543.0,863.0,-2.0,0.0,-2.0,159,129,113,127,134
2025-02-27 14:54:34.654,-130.0,-542.0,859.0,-2.0,0.0,-2.0,165,132,115,127,135
2025-02-27 14:54:34.658,-129.0,-545.0,859.0,-2.0,0.0,-2.0,165,132,113,127,135
2025-02-27 14:54:34.662,-133.0,-538.0,869.0,-2.0,0.0,-2.0,163,131,114,128,134
2025-02-27 14:54:34.666,-136.0,-541.0,862.0,-3.0,0.0,-2.0,161,132,114,126,135
2025-02-27 14:54:34.674,-134.0,-539.0,865.0,-3.0,0.0,-2.0,163,132,113,126,134
2025-02-27 14:54:34.678,-131.0,-542.0,867.0,-3.0,0.0,-2.0,164,133,113,128,135
2025-02-27 14:54:34.682,-134.0,-547.0,868.0,-3.0,0.0,-2.0,162,132,114,127,134
2025-02-27 14:54:34.687,-135.0,-542.0,864.0,-3.0,0.0,-2.0,161,131,114,127,133
2025-02-27 14:54:34.695,-137.0,-542.0,866.0,-3.0,0.0,-2.0,162,132,113,127,134
2025-02-27 14:54:34.699,-139.0,-544.0,864.0,-4.0,0.0,-2.0,164,133,114,129,135
2025-02-27 14:54:34.703,-136.0,-550.0,870.0,-4.0,1.0,-2.0,163,132,112,127,133
2025-02-27 14:54:34.707,-137.0,-545.0,866.0,-4.0,1.0,-2.0,162,131,114,126,134
2025-02-27 14:54:34.714,-137.0,-553.0,863.0,-3.0,1.0,-1.0,164,132,114,132,135
2025-02-27 14:54:34.719,-136.0,-554.0,864.0,-3.0,1.0,-1.0,164,132,112,127,135
2025-02-27 14:54:34.723,-141.0,-553.0,866.0,-3.0,1.0,-1.0,161,131,113,126,135
2025-02-27 14:54:34.727,-141.0,-552.0,868.0,-3.0,1.0,-2.0,161,132,113,127,133
2025-02-27 14:54:34.735,-141.0,-554.0,865.0,-3.0,1.0,-2.0,162,131,113,127,136
2025-02-27 14:54:34.740,-136.0,-556.0,871.0,-3.0,1.0,-2.0,164,131,114,127,135
2025-02-27 14:54:34.744,-138.0,-556.0,869.0,-3.0,1.0,-2.0,163,132,111,126,134
2025-02-27 14:54:34.749,-138.0,-557.0,866.0,-2.0,1.0,-2.0,162,131,113,127,135
2025-02-27 14:54:34.756,-134.0,-562.0,864.0,-1.0,1.0,-3.0,163,130,114,128,134
2025-02-27 14:54:34.760,-136.0,-555.0,867.0,-1.0,2.0,-2.0,164,132,114,126,135
2025-02-27 14:54:34.765,-136.0,-558.0,869.0,-1.0,2.0,-2.0,162,132,114,127,134
2025-02-27 14:54:34.769,-138.0,-563.0,870.0,-1.0,2.0,-2.0,163,131,113,126,135
2025-02-27 14:54:34.776,-135.0,-559.0,874.0,-1.0,3.0,-2.0,163,132,115,128,135
2025-02-27 14:54:34.780,-132.0,-564.0,869.0,-1.0,3.0,-2.0,163,132,114,127,135
2025-02-27 14:54:34.785,-133.0,-560.0,861.0,-1.0,3.0,-2.0,163,132,115,124,135
2025-02-27 14:54:34.792,-132.0,-558.0,867.0,-1.0,3.0,-1.0,162,129,113,127,133
2025-02-27 14:54:34.798,-132.0,-559.0,863.0,-1.0,3.0,-1.0,164,132,113,127,136
2025-02-27 14:54:34.801,-136.0,-561.0,865.0,-2.0,3.0,-1.0,163,131,113,128,134
2025-02-27 14:54:34.806,-131.0,-562.0,858.0,-2.0,3.0,-1.0,162,131,114,127,134
2025-02-27 14:54:34.813,-120.0,-562.0,849.0,-1.0,3.0,0.0,163,131,113,127,134
2025-02-27 14:54:34.817,-141.0,-560.0,855.0,-3.0,1.0,0.0,163,131,113,128,135
2025-02-27 14:54:34.821,-135.0,-572.0,864.0,-3.0,2.0,0.0,162,132,114,127,134
2025-02-27 14:54:34.826,-136.0,-563.0,858.0,-3.0,3.0,1.0,162,130,114,128,134
2025-02-27 14:54:34.830,-136.0,-551.0,868.0,-5.0,1.0,1.0,163,133,117,130,136
2025-02-27 14:54:34.838,-141.0,-564.0,883.0,-4.0,3.0,1.0,162,132,114,128,134
2025-02-27 14:54:34.842,-136.0,-562.0,840.0,-4.0,2.0,1.0,164,132,113,125,133
2025-02-27 14:54:34.846,-138.0,-567.0,862.0,-4.0,3.0,2.0,163,130,113,127,135
2025-02-27 14:54:34.851,-141.0,-566.0,850.0,-3.0,3.0,2.0,165,133,114,127,135
2025-02-27 14:54:34.858,-139.0,-564.0,846.0,-4.0,2.0,2.0,163,131,114,127,133
2025-02-27 14:54:34.862,-142.0,-561.0,845.0,-4.0,2.0,2.0,162,132,114,127,134
2025-02-27 14:54:34.867,-143.0,-566.0,848.0,-4.0,2.0,2.0,162,131,116,126,136
2025-02-27 14:54:34.871,-145.0,-555.0,844.0,-4.0,2.0,2.0,164,133,115,128,135
2025-02-27 14:54:34.879,-144.0,-558.0,848.0,-4.0,2.0,2.0,160,132,113,127,135
2025-02-27 14:54:34.883,-145.0,-549.0,843.0,-4.0,1.0,2.0,163,132,114,127,135
2025-02-27 14:54:34.887,-138.0,-550.0,847.0,-4.0,1.0,2.0,162,133,114,127,132
2025-02-27 14:54:34.891,-142.0,-547.0,846.0,-4.0,1.0,2.0,163,133,114,126,134
2025-02-27 14:54:34.899,-144.0,-548.0,838.0,-5.0,1.0,2.0,162,131,113,126,134
2025-02-27 14:54:34.903,-140.0,-541.0,847.0,-5.0,1.0,2.0,163,132,114,128,134
2025-02-27 14:54:34.908,-139.0,-540.0,849.0,-5.0,0.0,2.0,163,132,113,126,134
2025-02-27 14:54:34.912,-141.0,-542.0,850.0,-6.0,0.0,1.0,163,131,114,128,135
2025-02-27 14:54:34.916,-136.0,-549.0,854.0,-6.0,0.0,1.0,162,132,114,127,135
2025-02-27 14:54:34.923,-135.0,-552.0,854.0,-5.0,0.0,1.0,163,132,114,123,135
2025-02-27 14:54:34.928,-134.0,-547.0,858.0,-5.0,0.0,1.0,162,130,113,126,133
2025-02-27 14:54:34.932,-134.0,-552.0,855.0,-4.0,0.0,0.0,162,131,112,125,133
2025-02-27 14:54:34.936,-135.0,-554.0,855.0,-2.0,0.0,1.0,162,132,114,127,136
2025-02-27 14:54:34.944,-132.0,-552.0,863.0,-1.0,1.0,0.0,162,132,113,127,135
2025-02-27 14:54:34.948,-130.0,-542.0,850.0,-1.0,1.0,0.0,163,133,113,126,133
2025-02-27 14:54:34.952,-130.0,-537.0,860.0,-1.0,1.0,0.0,164,136,116,126,135
2025-02-27 14:54:34.956,-144.0,-537.0,867.0,-1.0,1.0,0.0,164,132,115,127,134
2025-02-27 14:54:34.965,-137.0,-533.0,854.0,-2.0,1.0,0.0,163,131,112,127,134
2025-02-27 14:54:34.969,-139.0,-541.0,871.0,-2.0,2.0,0.0,161,132,113,127,134
2025-02-27 14:54:34.973,-139.0,-531.0,867.0,-3.0,1.0,0.0,165,135,114,128,135
2025-02-27 14:54:34.978,-143.0,-535.0,870.0,-3.0,2.0,0.0,163,131,114,127,135
2025-02-27 14:54:34.982,-152.0,-529.0,865.0,-4.0,2.0,0.0,162,131,113,127,134
2025-02-27 14:54:34.990,-146.0,-532.0,851.0,-5.0,2.0,0.0,164,131,112,126,135
2025-02-27 14:54:34.994,-145.0,-541.0,844.0,-6.0,1.0,0.0,164,134,115,128,136
2025-02-27 14:54:34.998,-151.0,-540.0,853.0,-6.0,1.0,0.0,162,131,112,127,134
2025-02-27 14:54:35.002,-148.0,-534.0,843.0,-7.0,0.0,-1.0,162,131,113,126,134
2025-02-27 14:54:35.010,-154.0,-542.0,852.0,-8.0,1.0,-1.0,164,132,112,126,135
2025-02-27 14:54:35.014,-154.0,-536.0,837.0,-8.0,0.0,-1.0,162,133,115,126,134
2025-02-27 14:54:35.019,-151.0,-539.0,856.0,-8.0,1.0,-1.0,162,132,113,126,135
2025-02-27 14:54:35.023,-155.0,-546.0,834.0,-8.0,0.0,-1.0,163,135,114,127,132
2025-02-27 14:54:35.031,-157.0,-542.0,855.0,-8.0,0.0,-1.0,164,132,113,127,135
2025-02-27 14:54:35.035,-145.0,-548.0,852.0,-8.0,0.0,-1.0,163,133,114,129,135
2025-02-27 14:54:35.039,-143.0,-555.0,837.0,-7.0,0.0,-1.0,163,131,112,127,134
2025-02-27 14:54:35.047,-155.0,-546.0,854.0,-8.0,-1.0,-1.0,163,131,116,125,132
2025-02-27 14:54:35.051,-150.0,-551.0,861.0,-8.0,0.0,-1.0,162,130,114,126,135
2025-02-27 14:54:35.056,-146.0,-561.0,851.0,-7.0,0.0,-1.0,163,134,113,129,137
2025-02-27 14:54:35.060,-149.0,-551.0,850.0,-7.0,0.0,-1.0,162,132,113,127,135
2025-02-27 14:54:35.067,-147.0,-550.0,866.0,-6.0,1.0,0.0,164,131,114,127,135
2025-02-27 14:54:35.071,-139.0,-541.0,844.0,-6.0,2.0,-1.0,163,134,113,127,135
2025-02-27 14:54:35.075,-156.0,-570.0,885.0,-7.0,2.0,0.0,163,132,112,128,134
2025-02-27 14:54:35.079,-152.0,-582.0,800.0,-6.0,1.0,0.0,162,131,111,126,134
2025-02-27 14:54:35.084,-144.0,-532.0,830.0,-8.0,0.0,0.0,166,135,114,129,134
2025-02-27 14:54:35.092,-146.0,-532.0,857.0,-6.0,2.0,-1.0,163,131,113,127,134
2025-02-27 14:54:35.096,-146.0,-551.0,852.0,-6.0,2.0,0.0,162,131,113,126,134
2025-02-27 14:54:35.100,-164.0,-550.0,827.0,-7.0,0.0,-1.0,165,133,113,127,134
2025-02-27 14:54:35.104,-161.0,-533.0,837.0,-8.0,0.0,-1.0,163,131,112,126,134
2025-02-27 14:54:35.113,-152.0,-526.0,844.0,-8.0,0.0,-1.0,162,131,112,127,133
2025-02-27 14:54:35.117,-151.0,-530.0,832.0,-10.0,0.0,-2.0,163,131,112,126,134
2025-02-27 14:54:35.121,-163.0,-529.0,836.0,-9.0,-2.0,-2.0,162,131,113,127,134
2025-02-27 14:54:35.128,-155.0,-521.0,847.0,-10.0,-1.0,-3.0,163,131,112,127,133
2025-02-27 14:54:35.132,-163.0,-519.0,834.0,-10.0,-1.0,-3.0,163,130,113,127,133
2025-02-27 14:54:35.138,-158.0,-507.0,822.0,-11.0,-2.0,-5.0,161,131,112,127,135
2025-02-27 14:54:35.142,-157.0,-501.0,822.0,-13.0,-3.0,-5.0,163,132,111,126,130
2025-02-27 14:54:35.149,-161.0,-500.0,821.0,-13.0,-3.0,-6.0,162,131,113,128,134
2025-02-27 14:54:35.154,-157.0,-510.0,818.0,-14.0,-3.0,-7.0,164,132,113,127,135
2025-02-27 14:54:35.166,-154.0,-524.0,820.0,-15.0,-3.0,-7.0,164,132,113,128,133
2025-02-27 14:54:35.169,-149.0,-537.0,818.0,-14.0,-3.0,-7.0,162,130,112,126,133
2025-02-27 14:54:35.171,-143.0,-551.0,812.0,-13.0,-3.0,-7.0,162,128,112,127,133
2025-02-27 14:54:35.174,-137.0,-569.0,831.0,-11.0,-3.0,-8.0,162,130,114,128,137
2025-02-27 14:54:35.182,-130.0,-588.0,831.0,-7.0,-2.0,-8.0,164,132,113,126,134
2025-02-27 14:54:35.186,-128.0,-598.0,834.0,-6.0,-1.0,-8.0,162,134,112,127,137
2025-02-27 14:54:35.190,-129.0,-608.0,834.0,-3.0,-1.0,-9.0,163,130,112,128,132
2025-02-27 14:54:35.194,-126.0,-613.0,854.0,0.0,1.0,-9.0,163,130,112,127,136
2025-02-27 14:54:35.202,-131.0,-614.0,845.0,3.0,2.0,-10.0,165,131,112,128,134
2025-02-27 14:54:35.206,-129.0,-619.0,860.0,4.0,4.0,-10.0,163,131,112,128,133
2025-02-27 14:54:35.210,-129.0,-606.0,844.0,6.0,3.0,-10.0,163,132,111,126,133
2025-02-27 14:54:35.215,-134.0,-611.0,866.0,7.0,3.0,-11.0,163,131,113,127,134
2025-02-27 14:54:35.223,-134.0,-608.0,875.0,7.0,4.0,-10.0,164,131,113,129,134
2025-02-27 14:54:35.227,-136.0,-614.0,863.0,6.0,4.0,-10.0,162,130,111,126,134
2025-02-27 14:54:35.231,-139.0,-616.0,884.0,5.0,5.0,-9.0,164,131,112,127,133
2025-02-27 14:54:35.236,-131.0,-610.0,884.0,4.0,5.0,-9.0,163,132,112,126,134
2025-02-27 14:54:35.243,-141.0,-609.0,891.0,2.0,5.0,-8.0,162,132,112,127,133
2025-02-27 14:54:35.248,-140.0,-632.0,919.0,1.0,6.0,-6.0,161,131,112,126,133
2025-02-27 14:54:35.252,-146.0,-633.0,915.0,0.0,8.0,-6.0,163,132,112,128,133
2025-02-27 14:54:35.256,-143.0,-614.0,926.0,-2.0,10.0,-5.0,164,132,112,128,134
2025-02-27 14:54:35.264,-147.0,-623.0,937.0,-4.0,13.0,-3.0,164,132,112,126,134
2025-02-27 14:54:35.268,-146.0,-625.0,934.0,-6.0,14.0,-2.0,162,131,111,127,133
2025-02-27 14:54:35.273,-146.0,-628.0,923.0,-7.0,15.0,-2.0,163,130,112,128,134
2025-02-27 14:54:35.277,-146.0,-643.0,917.0,-7.0,15.0,0.0,164,132,112,127,136
2025-02-27 14:54:35.284,-152.0,-654.0,914.0,-7.0,14.0,2.0,162,130,112,128,134
2025-02-27 14:54:35.288,-152.0,-660.0,933.0,-7.0,14.0,3.0,163,131,111,126,133
2025-02-27 14:54:35.292,-153.0,-662.0,932.0,-7.0,13.0,4.0,163,132,114,128,135
2025-02-27 14:54:35.297,-158.0,-658.0,966.0,-6.0,13.0,5.0,163,130,113,128,134
2025-02-27 14:54:35.304,-180.0,-642.0,980.0,-6.0,12.0,5.0,162,132,111,127,134
2025-02-27 14:54:35.309,-188.0,-652.0,1002.0,-6.0,12.0,5.0,162,129,112,127,133
2025-02-27 14:54:35.313,-197.0,-663.0,1072.0,-3.0,14.0,5.0,165,132,113,127,137
2025-02-27 14:54:35.321,-186.0,-671.0,1104.0,-4.0,16.0,5.0,163,131,113,130,135
2025-02-27 14:54:35.325,-191.0,-659.0,1141.0,-5.0,24.0,6.0,162,131,112,128,134
2025-02-27 14:54:35.330,-186.0,-674.0,1124.0,-3.0,26.0,7.0,161,131,111,126,133
2025-02-27 14:54:35.334,-183.0,-672.0,1152.0,-6.0,31.0,7.0,163,130,116,125,132
2025-02-27 14:54:35.342,-203.0,-621.0,1160.0,-14.0,34.0,8.0,163,131,112,129,134
2025-02-27 14:54:35.346,-198.0,-660.0,1209.0,-15.0,41.0,11.0,162,130,112,126,130
2025-02-27 14:54:35.350,-219.0,-646.0,1157.0,-21.0,46.0,12.0,163,131,111,126,134
2025-02-27 14:54:35.358,-243.0,-619.0,1170.0,-35.0,47.0,13.0,163,129,112,127,132
2025-02-27 14:54:35.362,-235.0,-641.0,1183.0,-42.0,54.0,13.0,162,130,112,126,132
2025-02-27 14:54:35.366,-250.0,-655.0,1156.0,-53.0,54.0,14.0,163,131,112,128,133
2025-02-27 14:54:35.374,-250.0,-656.0,1148.0,-60.0,43.0,13.0,162,131,111,126,134
2025-02-27 14:54:35.378,-250.0,-653.0,1168.0,-65.0,51.0,17.0,164,132,112,127,133
2025-02-27 14:54:35.382,-250.0,-663.0,1080.0,-56.0,55.0,19.0,164,131,110,125,132
2025-02-27 14:54:35.387,-234.0,-771.0,1120.0,-50.0,57.0,21.0,161,130,109,125,131
2025-02-27 14:54:35.394,-262.0,-699.0,1108.0,-60.0,58.0,22.0,163,130,110,126,132
2025-02-27 14:54:35.399,-261.0,-706.0,1061.0,-50.0,66.0,24.0,162,131,110,126,132
2025-02-27 14:54:35.403,-258.0,-698.0,998.0,-51.0,65.0,26.0,162,129,108,126,132
2025-02-27 14:54:35.410,-297.0,-667.0,1134.0,-54.0,74.0,28.0,162,129,109,126,130
2025-02-27 14:54:35.415,-282.0,-668.0,1005.0,-54.0,77.0,27.0,162,129,108,124,128
2025-02-27 14:54:35.419,-328.0,-621.0,922.0,-52.0,70.0,27.0,161,128,107,125,126
2025-02-27 14:54:35.427,-326.0,-625.0,1003.0,-50.0,75.0,25.0,160,127,105,124,127
2025-02-27 14:54:35.431,-359.0,-625.0,1000.0,-42.0,73.0,23.0,161,125,104,127,126
2025-02-27 14:54:35.436,-377.0,-700.0,989.0,-39.0,77.0,23.0,161,125,104,125,124
2025-02-27 14:54:35.444,-419.0,-641.0,947.0,-37.0,80.0,19.0,160,121,101,123,120
2025-02-27 14:54:35.448,-413.0,-589.0,983.0,-32.0,82.0,16.0,158,119,99,123,118
2025-02-27 14:54:35.453,-457.0,-641.0,933.0,-28.0,88.0,14.0,159,116,97,122,116
2025-02-27 14:54:35.457,-453.0,-572.0,851.0,-29.0,81.0,8.0,157,113,95,122,116
2025-02-27 14:54:35.465,-459.0,-744.0,1057.0,-26.0,90.0,14.0,156,109,92,121,110
2025-02-27 14:54:35.469,-446.0,-571.0,829.0,-43.0,88.0,13.0,155,106,91,118,105
2025-02-27 14:54:35.473,-415.0,-506.0,701.0,-36.0,77.0,15.0,155,103,90,120,100
2025-02-27 14:54:35.481,-377.0,-578.0,959.0,-45.0,85.0,19.0,156,101,89,120,95
2025-02-27 14:54:35.485,-379.0,-459.0,833.0,-54.0,86.0,21.0,154,95,86,117,89
2025-02-27 14:54:35.489,-380.0,-576.0,633.0,-56.0,81.0,27.0,153,91,83,116,85
2025-02-27 14:54:35.493,-388.0,-564.0,812.0,-63.0,80.0,27.0,151,89,85,116,83
2025-02-27 14:54:35.498,-407.0,-525.0,788.0,-75.0,80.0,28.0,152,84,83,113,77
2025-02-27 14:54:35.505,-434.0,-543.0,651.0,-72.0,77.0,33.0,149,80,82,111,73
2025-02-27 14:54:35.509,-454.0,-730.0,684.0,-72.0,80.0,34.0,148,73,77,109,67
2025-02-27 14:54:35.514,-382.0,-788.0,716.0,-71.0,90.0,36.0,150,70,76,106,64
2025-02-27 14:54:35.518,-778.0,-1015.0,122.0,-65.0,89.0,42.0,147,67,73,101,60
2025-02-27 14:54:35.526,-439.0,-794.0,727.0,-54.0,92.0,41.0,145,64,69,96,56
2025-02-27 14:54:35.530,-348.0,-785.0,583.0,-41.0,95.0,46.0,143,63,67,92,54
2025-02-27 14:54:35.534,-401.0,-764.0,662.0,-30.0,98.0,43.0,143,62,66,89,53
2025-02-27 14:54:35.539,-394.0,-922.0,730.0,-7.0,102.0,39.0,140,60,63,86,51
2025-02-27 14:54:35.543,-354.0,-794.0,594.0,6.0,103.0,40.0,139,58,64,84,49
2025-02-27 14:54:35.550,-94.0,-862.0,893.0,-13.0,121.0,56.0,137,60,62,81,49
2025-02-27 14:54:35.555,43.0,-888.0,1313.0,-152.0,144.0,39.0,135,60,62,81,50
2025-02-27 14:54:35.559,-714.0,421.0,-3086.0,-88.0,92.0,62.0,134,60,61,79,48
2025-02-27 14:54:35.563,-1050.0,-2488.0,1004.0,-129.0,103.0,45.0,134,59,61,78,48
2025-02-27 14:54:35.571,-203.0,-444.0,500.0,-148.0,70.0,49.0,132,60,61,78,49
2025-02-27 14:54:35.575,-417.0,-956.0,733.0,-85.0,75.0,46.0,133,60,60,81,49
2025-02-27 14:54:35.579,-181.0,-255.0,357.0,-119.0,66.0,40.0,136,64,63,82,52
2025-02-27 14:54:35.584,-124.0,-697.0,166.0,-132.0,67.0,49.0,133,62,64,82,52
2025-02-27 14:54:35.591,-389.0,-760.0,460.0,-132.0,70.0,45.0,133,61,61,79,50
2025-02-27 14:54:35.596,-419.0,-868.0,510.0,-105.0,62.0,48.0,133,60,61,78,49
2025-02-27 14:54:35.600,-415.0,-904.0,630.0,-121.0,77.0,59.0,139,67,66,83,56
2025-02-27 14:54:35.605,-405.0,-942.0,438.0,-116.0,85.0,62.0,135,62,63,79,52
2025-02-27 14:54:35.612,-402.0,-866.0,526.0,-95.0,92.0,52.0,131,58,59,75,48
2025-02-27 14:54:35.615,-418.0,-774.0,492.0,-82.0,95.0,48.0,132,60,63,75,49
2025-02-27 14:54:35.620,-386.0,-762.0,431.0,-74.0,97.0,42.0,132,59,58,74,48
2025-02-27 14:54:35.625,-375.0,-739.0,362.0,-65.0,97.0,33.0,129,58,55,74,46
2025-02-27 14:54:35.629,-396.0,-737.0,286.0,-51.0,90.0,33.0,130,60,59,73,48
2025-02-27 14:54:35.637,-395.0,-690.0,287.0,-59.0,87.0,33.0,133,57,60,74,46
2025-02-27 14:54:35.641,-436.0,-748.0,199.0,-54.0,84.0,35.0,130,59,58,72,47
2025-02-27 14:54:35.645,-447.0,-788.0,273.0,-50.0,76.0,36.0,131,59,59,74,48
2025-02-27 14:54:35.649,-482.0,-830.0,188.0,-68.0,78.0,35.0,132,58,58,73,48
2025-02-27 14:54:35.653,-470.0,-758.0,238.0,-61.0,70.0,40.0,131,57,56,70,46
2025-02-27 14:54:35.661,-513.0,-822.0,164.0,-54.0,61.0,41.0,130,58,58,72,48
2025-02-27 14:54:35.665,-496.0,-711.0,243.0,-50.0,52.0,41.0,131,59,59,72,47
2025-02-27 14:54:35.670,-506.0,-770.0,181.0,-48.0,50.0,41.0,128,57,56,72,46
2025-02-27 14:54:35.674,-516.0,-721.0,239.0,-49.0,43.0,43.0,130,59,57,74,47
2025-02-27 14:54:35.681,-527.0,-719.0,240.0,-49.0,40.0,43.0,130,59,59,72,47
2025-02-27 14:54:35.686,-480.0,-759.0,297.0,-49.0,38.0,46.0,130,58,57,73,46
2025-02-27 14:54:35.690,-462.0,-757.0,312.0,-48.0,38.0,48.0,128,56,57,70,47
2025-02-27 14:54:35.694,-412.0,-742.0,324.0,-44.0,39.0,51.0,130,58,59,73,47
2025-02-27 14:54:35.698,-409.0,-733.0,332.0,-40.0,41.0,53.0,130,58,59,72,46
2025-02-27 14:54:35.706,-412.0,-730.0,364.0,-38.0,42.0,54.0,129,56,56,71,46
2025-02-27 14:54:35.710,-413.0,-739.0,347.0,-30.0,43.0,55.0,129,58,57,71,47
2025-02-27 14:54:35.715,-421.0,-696.0,412.0,-30.0,47.0,57.0,128,59,59,72,46
2025-02-27 14:54:35.719,-422.0,-678.0,406.0,-29.0,49.0,58.0,129,58,58,70,44
2025-02-27 14:54:35.723,-411.0,-657.0,375.0,-31.0,52.0,58.0,128,57,58,72,46
2025-02-27 14:54:35.731,-414.0,-640.0,371.0,-33.0,55.0,59.0,128,57,58,72,46
2025-02-27 14:54:35.735,-433.0,-574.0,366.0,-38.0,55.0,57.0,128,57,58,70,45
2025-02-27 14:54:35.739,-480.0,-536.0,335.0,-43.0,55.0,57.0,125,56,57,73,47
2025-02-27 14:54:35.744,-474.0,-547.0,298.0,-43.0,52.0,54.0,127,57,56,71,46
2025-02-27 14:54:35.751,-482.0,-490.0,279.0,-50.0,50.0,52.0,127,57,56,71,45
2025-02-27 14:54:35.755,-472.0,-512.0,248.0,-56.0,45.0,51.0,128,57,59,72,47
2025-02-27 14:54:35.760,-472.0,-506.0,247.0,-59.0,40.0,48.0,128,58,58,74,47
2025-02-27 14:54:35.764,-458.0,-525.0,229.0,-64.0,38.0,48.0,128,58,57,70,46
2025-02-27 14:54:35.768,-411.0,-535.0,222.0,-69.0,35.0,47.0,127,57,57,71,47
2025-02-27 14:54:35.776,-363.0,-584.0,223.0,-71.0,33.0,49.0,128,58,59,72,48
2025-02-27 14:54:35.780,-325.0,-605.0,231.0,-72.0,33.0,52.0,127,57,58,71,45
2025-02-27 14:54:35.784,-300.0,-629.0,224.0,-74.0,34.0,55.0,128,57,57,72,46
2025-02-27 14:54:35.788,-262.0,-679.0,239.0,-74.0,37.0,63.0,126,58,58,71,47
2025-02-27 14:54:35.792,-171.0,-733.0,274.0,-74.0,43.0,76.0,128,59,60,74,47
2025-02-27 14:54:35.800,-131.0,-753.0,309.0,-77.0,49.0,84.0,127,59,55,71,47
2025-02-27 14:54:35.805,-83.0,-747.0,276.0,-76.0,58.0,102.0,127,58,59,73,47
2025-02-27 14:54:35.809,-73.0,-651.0,253.0,-79.0,66.0,117.0,126,57,58,73,46
2025-02-27 14:54:35.813,-105.0,-581.0,209.0,-79.0,67.0,124.0,127,59,58,72,47
2025-02-27 14:54:35.821,-93.0,-542.0,212.0,-82.0,72.0,134.0,125,59,59,74,46
2025-02-27 14:54:35.825,-101.0,-512.0,119.0,-80.0,71.0,145.0,124,57,58,72,47
2025-02-27 14:54:35.830,-92.0,-379.0,67.0,-80.0,71.0,155.0,124,58,58,72,46
2025-02-27 14:54:35.834,-136.0,-278.0,-34.0,-78.0,61.0,158.0,125,60,60,72,48
2025-02-27 14:54:35.838,-180.0,-68.0,-125.0,-69.0,39.0,157.0,123,57,59,73,46
2025-02-27 14:54:35.845,-296.0,223.0,-178.0,-61.0,29.0,166.0,123,59,58,73,46
2025-02-27 14:54:35.849,-209.0,527.0,-268.0,-48.0,1.0,172.0,122,60,58,72,46
2025-02-27 14:54:35.854,-82.0,836.0,-226.0,-27.0,-39.0,144.0,119,58,60,74,47
2025-02-27 14:54:35.858,-10.0,1170.0,-653.0,-15.0,-93.0,145.0,118,58,57,73,46
2025-02-27 14:54:35.866,-138.0,1954.0,-347.0,-45.0,-105.0,128.0,115,59,58,71,46
2025-02-27 14:54:35.870,-107.0,2031.0,-501.0,-73.0,-154.0,129.0,116,59,59,73,46
2025-02-27 14:54:35.875,-58.0,2569.0,-508.0,-133.0,-171.0,129.0,115,58,59,72,46
2025-02-27 14:54:35.883,-110.0,2757.0,-583.0,-132.0,-179.0,81.0,115,58,58,71,45
2025-02-27 14:54:35.887,-144.0,3038.0,-384.0,-128.0,-178.0,-11.0,113,58,54,69,45
2025-02-27 14:54:35.890,-95.0,3212.0,-28.0,-141.0,-128.0,-155.0,115,58,57,72,45
2025-02-27 14:54:35.895,-177.0,3617.0,-184.0,-139.0,-55.0,-226.0,115,58,53,72,45
2025-02-27 14:54:35.903,81.0,2813.0,-187.0,-73.0,-15.0,-360.0,116,61,58,71,46
2025-02-27 14:54:35.907,204.0,2322.0,-145.0,-49.0,-1.0,-453.0,118,59,57,70,46
2025-02-27 14:54:35.911,284.0,1460.0,-341.0,21.0,-3.0,-518.0,116,60,57,72,46
2025-02-27 14:54:35.915,291.0,1311.0,-347.0,56.0,-7.0,-543.0,118,60,57,63,44
2025-02-27 14:54:35.923,151.0,812.0,-352.0,89.0,-34.0,-578.0,118,60,57,70,46
2025-02-27 14:54:35.927,48.0,431.0,-339.0,96.0,-55.0,-604.0,119,59,56,64,45
2025-02-27 14:54:35.932,18.0,373.0,-369.0,93.0,-92.0,-620.0,120,58,56,69,45
2025-02-27 14:54:35.936,-44.0,305.0,-355.0,87.0,-144.0,-653.0,120,60,57,71,46
2025-02-27 14:54:35.943,174.0,76.0,-46.0,74.0,-196.0,-689.0,123,58,57,68,46
2025-02-27 14:54:35.948,489.0,-776.0,477.0,55.0,-214.0,-689.0,122,58,56,68,46
2025-02-27 14:54:35.952,1277.0,-1384.0,934.0,16.0,-189.0,-683.0,124,59,57,69,48
2025-02-27 14:54:35.957,1752.0,-2379.0,1017.0,-1.0,-165.0,-645.0,125,60,58,70,47
2025-02-27 14:54:35.964,1928.0,-3106.0,1460.0,-22.0,-123.0,-590.0,125,61,58,68,47
2025-02-27 14:54:35.969,1811.0,-3459.0,1390.0,-38.0,-98.0,-474.0,125,59,57,67,47
2025-02-27 14:54:35.973,2217.0,-4724.0,1755.0,-32.0,-66.0,-382.0,127,59,59,69,48
2025-02-27 14:54:35.980,2136.0,-5175.0,1904.0,-8.0,-30.0,-326.0,127,60,59,67,47
2025-02-27 14:54:35.985,1692.0,-5288.0,2040.0,-90.0,99.0,-226.0,128,60,58,68,48
2025-02-27 14:54:35.989,1380.0,-5502.0,1578.0,-97.0,114.0,-156.0,127,59,59,68,47
2025-02-27 14:54:35.997,587.0,-5094.0,1214.0,-103.0,115.0,-117.0,128,60,58,69,48
2025-02-27 14:54:36.001,489.0,-4918.0,1032.0,-136.0,126.0,-98.0,128,59,58,65,46
2025-02-27 14:54:36.006,38.0,-4933.0,649.0,-148.0,106.0,-88.0,128,60,58,64,46
2025-02-27 14:54:36.013,-157.0,-4950.0,652.0,-146.0,81.0,-66.0,129,59,59,67,47
2025-02-27 14:54:36.017,-344.0,-4951.0,558.0,-142.0,46.0,-23.0,129,60,59,66,48
2025-02-27 14:54:36.022,-417.0,-4807.0,482.0,-139.0,43.0,22.0,128,59,60,67,48
2025-02-27 14:54:36.026,-325.0,-4995.0,393.0,-101.0,21.0,46.0,130,58,60,68,48
2025-02-27 14:54:36.033,-327.0,-4716.0,416.0,-65.0,-1.0,95.0,129,60,59,68,49
2025-02-27 14:54:36.037,-279.0,-4423.0,440.0,-50.0,-15.0,136.0,131,60,58,67,48
2025-02-27 14:54:36.042,-362.0,-4068.0,438.0,-8.0,-18.0,166.0,129,60,60,67,47
2025-02-27 14:54:36.047,-146.0,-3768.0,532.0,35.0,-24.0,181.0,129,59,58,66,47
2025-02-27 14:54:36.054,-208.0,-3237.0,428.0,55.0,-22.0,195.0,130,61,61,69,48
2025-02-27 14:54:36.059,-117.0,-2749.0,448.0,72.0,-28.0,207.0,130,60,59,68,50
2025-02-27 14:54:36.063,-10.0,-2320.0,544.0,76.0,-25.0,217.0,131,59,60,68,48
2025-02-27 14:54:36.067,27.0,-2064.0,569.0,70.0,-16.0,220.0,130,59,59,68,48
2025-02-27 14:54:36.071,119.0,-1700.0,549.0,62.0,-6.0,221.0,130,61,59,68,49
2025-02-27 14:54:36.079,74.0,-1440.0,538.0,58.0,-4.0,224.0,130,61,59,69,48
2025-02-27 14:54:36.083,73.0,-1327.0,502.0,43.0,10.0,224.0,129,61,58,67,48
2025-02-27 14:54:36.087,108.0,-1171.0,510.0,34.0,17.0,223.0,130,60,59,67,47
2025-02-27 14:54:36.091,-23.0,-1028.0,397.0,33.0,19.0,221.0,128,59,59,69,47
2025-02-27 14:54:36.095,-41.0,-988.0,395.0,25.0,24.0,219.0,128,60,60,69,48
2025-02-27 14:54:36.103,-67.0,-888.0,365.0,23.0,26.0,216.0,128,60,59,69,48
2025-02-27 14:54:36.107,-109.0,-745.0,345.0,15.0,30.0,214.0,128,60,58,69,48
2025-02-27 14:54:36.111,-106.0,-620.0,357.0,5.0,31.0,213.0,128,60,59,73,47
2025-02-27 14:54:36.116,-141.0,-546.0,312.0,0.0,33.0,208.0,130,62,60,70,48
2025-02-27 14:54:36.123,-118.0,-376.0,304.0,-5.0,38.0,206.0,128,61,60,69,47
2025-02-27 14:54:36.128,43.0,-573.0,331.0,-21.0,46.0,200.0,128,60,60,69,47
2025-02-27 14:54:36.132,-124.0,-230.0,303.0,-21.0,44.0,196.0,127,62,61,71,48
2025-02-27 14:54:36.136,-65.0,-259.0,215.0,-11.0,46.0,188.0,126,62,61,71,47
2025-02-27 14:54:36.140,-32.0,-198.0,197.0,10.0,41.0,185.0,127,61,60,69,48
2025-02-27 14:54:36.148,-128.0,-154.0,222.0,16.0,40.0,180.0,127,61,61,70,50
2025-02-27 14:54:36.152,-86.0,-142.0,184.0,24.0,40.0,177.0,128,62,60,70,48
2025-02-27 14:54:36.156,-50.0,-114.0,180.0,28.0,42.0,174.0,127,70,60,61,47
2025-02-27 14:54:36.161,-51.0,-56.0,246.0,11.0,53.0,168.0,128,61,61,70,49
2025-02-27 14:54:36.165,-76.0,52.0,197.0,-9.0,58.0,161.0,127,61,56,66,48
2025-02-27 14:54:36.169,-130.0,78.0,172.0,-3.0,57.0,158.0,127,62,62,66,49
2025-02-27 14:54:36.177,-114.0,228.0,166.0,-27.0,68.0,161.0,128,64,62,70,50
2025-02-27 14:54:36.181,-25.0,204.0,49.0,-33.0,75.0,156.0,126,62,62,71,50
2025-02-27 14:54:36.186,27.0,281.0,120.0,-44.0,78.0,153.0,122,60,58,71,49
2025-02-27 14:54:36.190,-57.0,303.0,106.0,-77.0,92.0,153.0,127,62,61,71,50
2025-02-27 14:54:36.193,-46.0,334.0,51.0,-91.0,93.0,152.0,127,62,61,67,50
2025-02-27 14:54:36.201,-1.0,322.0,-62.0,-96.0,96.0,150.0,127,62,61,71,50
2025-02-27 14:54:36.205,-71.0,347.0,-129.0,-97.0,91.0,148.0,126,62,58,71,50
2025-02-27 14:54:36.210,-101.0,346.0,-160.0,-96.0,83.0,143.0,125,62,60,70,50
2025-02-27 14:54:36.214,-136.0,367.0,-304.0,-78.0,72.0,138.0,129,62,61,77,50
2025-02-27 14:54:36.219,-122.0,378.0,-212.0,-59.0,60.0,136.0,127,63,62,72,49
2025-02-27 14:54:36.226,-81.0,332.0,-293.0,-51.0,46.0,134.0,123,63,61,78,50
2025-02-27 14:54:36.231,-45.0,326.0,-305.0,-26.0,39.0,135.0,126,61,60,73,51
2025-02-27 14:54:36.235,42.0,306.0,-277.0,-6.0,33.0,137.0,126,63,62,74,50
2025-02-27 14:54:36.239,126.0,310.0,-327.0,3.0,27.0,139.0,126,62,61,73,51
2025-02-27 14:54:36.244,125.0,364.0,-252.0,7.0,27.0,144.0,124,67,61,72,50
2025-02-27 14:54:36.251,208.0,384.0,-275.0,10.0,27.0,145.0,125,62,62,68,50
2025-02-27 14:54:36.255,229.0,471.0,-309.0,13.0,28.0,152.0,124,63,62,70,51
2025-02-27 14:54:36.259,265.0,571.0,-321.0,14.0,31.0,148.0,122,60,62,65,50
2025-02-27 14:54:36.263,300.0,685.0,-417.0,24.0,26.0,148.0,122,63,61,65,50
2025-02-27 14:54:36.268,296.0,694.0,-417.0,37.0,21.0,142.0,122,63,62,62,51
2025-02-27 14:54:36.275,294.0,961.0,-496.0,44.0,18.0,127.0,121,63,62,70,50
2025-02-27 14:54:36.280,237.0,923.0,-608.0,72.0,8.0,120.0,119,63,61,65,50
2025-02-27 14:54:36.283,167.0,1052.0,-646.0,97.0,-13.0,98.0,118,63,63,72,51
2025-02-27 14:54:36.288,71.0,1225.0,-679.0,101.0,-22.0,71.0,118,63,62,72,50
2025-02-27 14:54:36.292,63.0,1248.0,-808.0,116.0,-47.0,53.0,118,63,61,67,50
2025-02-27 14:54:36.300,-177.0,1443.0,-870.0,123.0,-78.0,6.0,119,61,63,73,50
2025-02-27 14:54:36.305,-299.0,1611.0,-854.0,121.0,-113.0,-48.0,116,63,61,73,50
2025-02-27 14:54:36.308,-338.0,1701.0,-858.0,120.0,-131.0,-79.0,118,63,61,73,49
2025-02-27 14:54:36.317,-407.0,1762.0,-842.0,115.0,-164.0,-148.0,117,65,62,74,50
2025-02-27 14:54:36.321,-355.0,1753.0,-755.0,113.0,-190.0,-218.0,118,62,62,73,50
2025-02-27 14:54:36.325,-360.0,1705.0,-589.0,108.0,-198.0,-293.0,116,63,61,72,51
2025-02-27 14:54:36.329,-329.0,1715.0,-447.0,96.0,-215.0,-327.0,118,63,61,73,50
2025-02-27 14:54:36.337,-276.0,1358.0,-323.0,92.0,-230.0,-395.0,120,63,64,73,50
2025-02-27 14:54:36.341,-206.0,984.0,-165.0,94.0,-236.0,-456.0,118,63,62,71,49
2025-02-27 14:54:36.345,4.0,939.0,-58.0,91.0,-241.0,-481.0,119,62,61,64,48
2025-02-27 14:54:36.349,81.0,750.0,149.0,73.0,-230.0,-529.0,120,63,62,65,49
2025-02-27 14:54:36.357,248.0,172.0,240.0,87.0,-269.0,-546.0,121,62,62,69,51
2025-02-27 14:54:36.362,284.0,-166.0,407.0,86.0,-276.0,-555.0,121,63,62,70,49
2025-02-27 14:54:36.366,344.0,-395.0,499.0,76.0,-288.0,-564.0,123,63,62,72,51
2025-02-27 14:54:36.370,419.0,-558.0,599.0,53.0,-297.0,-567.0,124,64,63,72,50
2025-02-27 14:54:36.378,771.0,-1325.0,1208.0,45.0,-303.0,-536.0,123,66,64,72,51
2025-02-27 14:54:36.382,1029.0,-2394.0,1568.0,27.0,-269.0,-457.0,125,64,63,71,50
2025-02-27 14:54:36.387,1360.0,-3292.0,2579.0,-64.0,-195.0,-417.0,124,65,63,73,55
2025-02-27 14:54:36.395,1580.0,-3683.0,2199.0,-1.0,-165.0,-323.0,126,64,64,72,50
2025-02-27 14:54:36.398,1474.0,-4214.0,2744.0,-27.0,-79.0,-237.0,126,63,64,74,52
2025-02-27 14:54:36.403,1223.0,-4060.0,2962.0,-40.0,-22.0,-177.0,125,64,64,72,52
2025-02-27 14:54:36.411,958.0,-4190.0,3014.0,-51.0,-3.0,-152.0,125,63,63,70,50
2025-02-27 14:54:36.415,631.0,-4082.0,3015.0,-88.0,51.0,-138.0,125,63,63,69,51
2025-02-27 14:54:36.419,314.0,-4086.0,2909.0,-125.0,84.0,-122.0,127,67,65,71,52
2025-02-27 14:54:36.424,120.0,-4218.0,2652.0,-138.0,100.0,-109.0,125,64,63,71,51
2025-02-27 14:54:36.431,19.0,-4388.0,2506.0,-153.0,117.0,-81.0,125,63,64,70,51
2025-02-27 14:54:36.435,-170.0,-4568.0,2208.0,-172.0,115.0,-39.0,125,64,64,70,52
2025-02-27 14:54:36.440,-162.0,-4674.0,1989.0,-166.0,122.0,-17.0,125,63,63,69,50
2025-02-27 14:54:36.447,-219.0,-4649.0,1758.0,-162.0,127.0,31.0,126,66,64,69,51
2025-02-27 14:54:36.452,-310.0,-4471.0,1706.0,-152.0,129.0,73.0,127,64,64,71,51
2025-02-27 14:54:36.456,-223.0,-4172.0,1516.0,-146.0,135.0,109.0,128,64,64,72,52
2025-02-27 14:54:36.463,-231.0,-3778.0,1204.0,-123.0,131.0,136.0,128,65,64,72,51
2025-02-27 14:54:36.468,-255.0,-3282.0,1061.0,-115.0,139.0,146.0,128,62,63,70,49
2025-02-27 14:54:36.472,-237.0,-3049.0,932.0,-111.0,145.0,165.0,130,64,62,73,51
2025-02-27 14:54:36.480,-129.0,-2693.0,822.0,-108.0,141.0,182.0,131,64,62,72,52
2025-02-27 14:54:36.485,-55.0,-2267.0,672.0,-116.0,149.0,194.0,130,65,63,71,52
2025-02-27 14:54:36.489,-75.0,-1954.0,505.0,-117.0,150.0,203.0,130,63,60,70,52
2025-02-27 14:54:36.493,-109.0,-1711.0,322.0,-118.0,145.0,207.0,130,63,62,73,51
2025-02-27 14:54:36.501,-46.0,-1623.0,142.0,-115.0,140.0,212.0,131,63,63,72,52
2025-02-27 14:54:36.505,-45.0,-1365.0,143.0,-117.0,134.0,219.0,131,65,62,72,52
2025-02-27 14:54:36.510,-125.0,-1206.0,-14.0,-121.0,119.0,226.0,130,63,62,72,52
2025-02-27 14:54:36.517,-107.0,-995.0,-56.0,-131.0,116.0,232.0,130,65,63,72,52
2025-02-27 14:54:36.522,-87.0,-1163.0,-146.0,-135.0,96.0,234.0,129,63,61,70,52
2025-02-27 14:54:36.525,-163.0,-902.0,-240.0,-133.0,72.0,241.0,129,63,62,71,51
2025-02-27 14:54:36.536,-210.0,-673.0,-215.0,-144.0,59.0,244.0,128,62,63,70,51
2025-02-27 14:54:36.539,-184.0,-585.0,-405.0,-169.0,51.0,246.0,128,63,62,72,51
2025-02-27 14:54:36.542,-201.0,-470.0,-413.0,-162.0,27.0,244.0,127,62,61,60,51
2025-02-27 14:54:36.546,-187.0,-434.0,-434.0,-139.0,1.0,242.0,128,63,61,71,51
2025-02-27 14:54:36.551,-205.0,-258.0,-391.0,-127.0,-27.0,231.0,127,62,62,67,51
2025-02-27 14:54:36.558,-187.0,-213.0,-416.0,-82.0,-41.0,215.0,127,62,62,71,52
2025-02-27 14:54:36.563,-255.0,-181.0,-392.0,-53.0,-68.0,210.0,128,62,61,71,51
2025-02-27 14:54:36.567,-203.0,-104.0,-281.0,-42.0,-80.0,196.0,125,64,62,72,51
2025-02-27 14:54:36.575,-139.0,-173.0,-315.0,-35.0,-84.0,185.0,128,63,61,71,53
2025-02-27 14:54:36.579,-50.0,-47.0,-92.0,-44.0,-74.0,173.0,128,63,66,70,52
2025-02-27 14:54:36.583,-57.0,-72.0,-83.0,-46.0,-72.0,170.0,128,63,62,70,50
2025-02-27 14:54:36.587,-29.0,-11.0,-2.0,-62.0,-64.0,164.0,132,63,63,71,51
2025-02-27 14:54:36.592,17.0,-101.0,75.0,-64.0,-51.0,165.0,129,64,62,73,52
2025-02-27 14:54:36.599,33.0,30.0,125.0,-95.0,-43.0,165.0,130,64,62,69,51
2025-02-27 14:54:36.603,34.0,8.0,88.0,-109.0,-29.0,167.0,132,65,62,72,51
2025-02-27 14:54:36.607,88.0,58.0,194.0,-128.0,-5.0,169.0,130,63,63,71,51
2025-02-27 14:54:36.611,48.0,226.0,192.0,-153.0,1.0,171.0,129,64,61,69,51
2025-02-27 14:54:36.616,13.0,163.0,74.0,-168.0,7.0,173.0,131,60,62,69,54
2025-02-27 14:54:36.620,-17.0,228.0,16.0,-178.0,11.0,178.0,131,63,61,63,52
2025-02-27 14:54:36.628,-35.0,290.0,-92.0,-168.0,5.0,178.0,132,62,61,61,47
2025-02-27 14:54:36.632,-46.0,375.0,-144.0,-144.0,-6.0,179.0,135,64,62,69,51
2025-02-27 14:54:36.636,-4.0,292.0,-219.0,-135.0,-21.0,184.0,135,62,62,63,52
2025-02-27 14:54:36.641,-14.0,205.0,-392.0,-91.0,-33.0,188.0,136,62,61,63,51
2025-02-27 14:54:36.648,36.0,244.0,-375.0,-59.0,-49.0,191.0,140,65,61,60,52
2025-02-27 14:54:36.653,50.0,253.0,-350.0,-50.0,-64.0,196.0,141,63,62,69,51
2025-02-27 14:54:36.657,20.0,515.0,-208.0,-56.0,-71.0,196.0,144,64,62,66,52
2025-02-27 14:54:36.661,28.0,461.0,-249.0,-54.0,-80.0,196.0,144,64,63,69,50
2025-02-27 14:54:36.665,64.0,545.0,-259.0,-50.0,-88.0,190.0,147,64,60,70,53
2025-02-27 14:54:36.673,78.0,675.0,-147.0,-48.0,-90.0,175.0,146,61,61,72,51
2025-02-27 14:54:36.677,71.0,616.0,-166.0,-57.0,-89.0,168.0,147,64,63,73,52
2025-02-27 14:54:36.682,69.0,689.0,-230.0,-60.0,-83.0,145.0,148,64,62,73,52
2025-02-27 14:54:36.685,28.0,816.0,-359.0,-31.0,-86.0,123.0,148,63,61,72,51
2025-02-27 14:54:36.690,35.0,902.0,-230.0,-26.0,-83.0,108.0,148,63,62,73,52
2025-02-27 14:54:36.697,17.0,1069.0,-358.0,-2.0,-79.0,76.0,150,64,63,73,53
2025-02-27 14:54:36.701,-15.0,1270.0,-317.0,3.0,-75.0,36.0,149,65,63,72,52
2025-02-27 14:54:36.706,-37.0,1365.0,-478.0,30.0,-69.0,12.0,150,64,63,72,51
2025-02-27 14:54:36.710,-134.0,1567.0,-553.0,40.0,-68.0,-43.0,150,64,62,73,52
2025-02-27 14:54:36.718,-210.0,1770.0,-704.0,51.0,-76.0,-103.0,150,63,62,74,52
2025-02-27 14:54:36.722,-299.0,1801.0,-917.0,55.0,-90.0,-133.0,150,63,62,73,51
2025-02-27 14:54:36.726,-355.0,1912.0,-959.0,62.0,-121.0,-192.0,151,64,60,72,51
2025-02-27 14:54:36.731,-452.0,1941.0,-1072.0,64.0,-163.0,-244.0,151,64,61,72,50
2025-02-27 14:54:36.738,-360.0,2073.0,-1104.0,52.0,-183.0,-289.0,152,62,57,71,50
2025-02-27 14:54:36.742,-159.0,2018.0,-1230.0,33.0,-224.0,-307.0,152,62,59,71,50
2025-02-27 14:54:36.747,109.0,2138.0,-1246.0,-15.0,-246.0,-350.0,152,61,59,69,50
2025-02-27 14:54:36.755,286.0,1880.0,-1232.0,-43.0,-284.0,-370.0,154,62,59,69,50
2025-02-27 14:54:36.759,374.0,1736.0,-1145.0,-60.0,-302.0,-401.0,153,61,59,66,50
2025-02-27 14:54:36.763,518.0,1446.0,-1097.0,-90.0,-318.0,-427.0,153,60,58,67,49
2025-02-27 14:54:36.771,649.0,1135.0,-957.0,-105.0,-329.0,-456.0,153,59,58,67,49
2025-02-27 14:54:36.775,734.0,921.0,-840.0,-111.0,-339.0,-470.0,154,58,57,67,50
2025-02-27 14:54:36.779,886.0,547.0,-629.0,-96.0,-352.0,-501.0,155,59,58,68,50
2025-02-27 14:54:36.788,1088.0,80.0,-563.0,-66.0,-366.0,-530.0,155,60,59,62,52
2025-02-27 14:54:36.792,1250.0,-358.0,-359.0,-44.0,-382.0,-548.0,155,59,57,66,51
2025-02-27 14:54:36.797,1395.0,-1000.0,-91.0,-13.0,-386.0,-546.0,156,60,59,67,52
2025-02-27 14:54:36.801,1585.0,-1337.0,339.0,12.0,-379.0,-533.0,156,61,57,67,51
2025-02-27 14:54:36.808,1810.0,-2239.0,895.0,26.0,-359.0,-493.0,157,61,58,67,51
2025-02-27 14:54:36.812,1914.0,-2487.0,1068.0,23.0,-310.0,-438.0,157,60,59,67,51
2025-02-27 14:54:36.818,1683.0,-2543.0,1342.0,15.0,-286.0,-372.0,158,60,58,69,52
2025-02-27 14:54:36.825,1956.0,-2344.0,1698.0,-1.0,-261.0,-314.0,159,59,58,66,50
2025-02-27 14:54:36.829,2083.0,-2823.0,2244.0,-37.0,-192.0,-285.0,158,56,57,63,49
2025-02-27 14:54:36.834,1672.0,-2923.0,2116.0,-73.0,-109.0,-263.0,159,62,59,64,51
2025-02-27 14:54:36.841,1534.0,-3206.0,2284.0,-98.0,-39.0,-234.0,160,61,59,66,52
2025-02-27 14:54:36.845,1468.0,-3472.0,2137.0,-114.0,18.0,-204.0,159,62,61,65,53
2025-02-27 14:54:36.849,1229.0,-3715.0,1880.0,-120.0,80.0,-180.0,160,61,59,65,52
2025-02-27 14:54:36.857,1085.0,-4147.0,1758.0,-119.0,93.0,-151.0,160,60,60,65,52
2025-02-27 14:54:36.861,895.0,-4340.0,1623.0,-115.0,98.0,-119.0,158,60,60,65,52
2025-02-27 14:54:36.865,734.0,-4370.0,1565.0,-89.0,104.0,-105.0,159,61,61,65,51
2025-02-27 14:54:36.873,636.0,-4452.0,1521.0,-92.0,122.0,-71.0,159,62,61,67,52
2025-02-27 14:54:36.877,381.0,-4402.0,1295.0,-92.0,129.0,-35.0,160,61,62,66,52
2025-02-27 14:54:36.882,442.0,-4417.0,1077.0,-83.0,119.0,-12.0,160,62,61,66,52
2025-02-27 14:54:36.886,188.0,-4389.0,1032.0,-84.0,121.0,-5.0,158,61,61,67,52
2025-02-27 14:54:36.893,137.0,-4252.0,946.0,-85.0,117.0,17.0,159,61,62,67,54
2025-02-27 14:54:36.898,60.0,-4120.0,839.0,-84.0,104.0,46.0,160,61,62,67,53
2025-02-27 14:54:36.902,28.0,-3977.0,817.0,-75.0,97.0,74.0,159,61,61,66,53
2025-02-27 14:54:36.906,32.0,-3894.0,775.0,-61.0,97.0,85.0,161,67,62,66,55
2025-02-27 14:54:36.911,73.0,-3652.0,822.0,-55.0,93.0,106.0,160,62,62,67,53
2025-02-27 14:54:36.919,96.0,-3429.0,730.0,-38.0,90.0,122.0,160,62,63,67,54
2025-02-27 14:54:36.923,27.0,-3279.0,693.0,-27.0,90.0,128.0,161,61,63,67,54
2025-02-27 14:54:36.927,69.0,-2996.0,678.0,-20.0,99.0,139.0,160,62,62,66,53
2025-02-27 14:54:36.931,107.0,-2723.0,568.0,-6.0,100.0,150.0,161,61,62,67,49
2025-02-27 14:54:36.935,97.0,-2629.0,472.0,4.0,102.0,153.0,160,62,65,68,54
2025-02-27 14:54:36.943,51.0,-2329.0,412.0,12.0,98.0,162.0,161,61,61,67,55
2025-02-27 14:54:36.947,12.0,-2131.0,299.0,24.0,96.0,171.0,161,61,62,67,53
2025-02-27 14:54:36.951,40.0,-2014.0,137.0,26.0,106.0,173.0,161,62,62,67,54
2025-02-27 14:54:36.956,35.0,-1762.0,32.0,26.0,100.0,177.0,161,63,64,70,53
2025-02-27 14:54:36.960,28.0,-1626.0,0.0,26.0,101.0,181.0,160,60,62,67,53
2025-02-27 14:54:36.968,-27.0,-1542.0,-155.0,32.0,90.0,183.0,160,61,62,67,53
2025-02-27 14:54:36.972,-33.0,-1412.0,-156.0,39.0,82.0,186.0,161,61,61,68,51
2025-02-27 14:54:36.976,-26.0,-1286.0,-219.0,39.0,78.0,185.0,161,64,60,68,47
2025-02-27 14:54:36.980,-43.0,-1271.0,-301.0,45.0,64.0,185.0,160,60,59,67,52
2025-02-27 14:54:36.988,-35.0,-1131.0,-234.0,48.0,60.0,185.0,161,63,59,68,52
2025-02-27 14:54:36.992,-8.0,-957.0,-255.0,43.0,57.0,182.0,160,61,59,68,52
2025-02-27 14:54:36.997,-5.0,-934.0,-252.0,37.0,52.0,182.0,160,63,58,68,53
2025-02-27 14:54:37.001,-57.0,-731.0,-189.0,20.0,47.0,181.0,161,62,58,67,52
2025-02-27 14:54:37.005,0.0,-593.0,-178.0,10.0,40.0,176.0,160,61,58,65,52
2025-02-27 14:54:37.013,-28.0,-503.0,-132.0,-6.0,43.0,173.0,159,63,58,61,52
2025-02-27 14:54:37.017,5.0,-450.0,-130.0,-18.0,42.0,167.0,161,62,59,66,53
2025-02-27 14:54:37.021,19.0,-349.0,-226.0,-17.0,55.0,161.0,160,63,58,58,52
2025-02-27 14:54:37.025,51.0,-287.0,-208.0,-26.0,63.0,160.0,160,62,59,61,52
2025-02-27 14:54:37.030,13.0,-320.0,-254.0,-11.0,64.0,156.0,160,62,59,68,52
2025-02-27 14:54:37.037,-17.0,-205.0,-256.0,-4.0,52.0,152.0,161,62,61,69,54
2025-02-27 14:54:37.042,21.0,-196.0,-209.0,16.0,49.0,149.0,161,63,60,68,53
2025-02-27 14:54:37.046,-2.0,-125.0,-186.0,31.0,41.0,144.0,161,62,60,66,52
2025-02-27 14:54:37.050,-49.0,-147.0,-205.0,39.0,40.0,140.0,160,62,59,68,52
2025-02-27 14:54:37.054,-44.0,-38.0,-236.0,49.0,38.0,137.0,161,63,60,68,53
2025-02-27 14:54:37.062,-50.0,-20.0,-256.0,53.0,39.0,132.0,161,63,61,67,52
2025-02-27 14:54:37.066,-30.0,1.0,-234.0,52.0,45.0,130.0,161,64,60,67,53
2025-02-27 14:54:37.070,-74.0,45.0,-297.0,62.0,41.0,126.0,160,66,59,68,53
2025-02-27 14:54:37.075,-116.0,76.0,-328.0,73.0,32.0,125.0,161,65,61,69,53
2025-02-27 14:54:37.079,-120.0,98.0,-325.0,80.0,29.0,124.0,161,63,61,68,54
2025-02-27 14:54:37.087,-75.0,96.0,-268.0,73.0,25.0,128.0,161,63,60,68,52
2025-02-27 14:54:37.091,-65.0,114.0,-290.0,65.0,27.0,128.0,162,64,60,66,52
2025-02-27 14:54:37.095,-68.0,253.0,-138.0,42.0,27.0,130.0,161,63,60,67,52
2025-02-27 14:54:37.099,-109.0,325.0,-211.0,13.0,25.0,130.0,161,63,60,66,53
2025-02-27 14:54:37.103,-105.0,419.0,-246.0,-19.0,17.0,129.0,161,64,61,67,52
2025-02-27 14:54:37.110,-96.0,470.0,-157.0,-41.0,12.0,127.0,161,62,61,67,53
2025-02-27 14:54:37.115,-76.0,545.0,-204.0,-65.0,16.0,125.0,160,62,60,67,52
2025-02-27 14:54:37.119,-30.0,603.0,-271.0,-56.0,16.0,121.0,161,64,61,69,53
2025-02-27 14:54:37.123,-70.0,579.0,-348.0,-41.0,17.0,115.0,161,63,57,67,52
2025-02-27 14:54:37.127,-22.0,625.0,-237.0,-6.0,17.0,110.0,161,62,59,67,52
2025-02-27 14:54:37.136,-89.0,649.0,-240.0,9.0,7.0,108.0,160,63,61,68,53
2025-02-27 14:54:37.139,-127.0,638.0,-270.0,23.0,0.0,104.0,161,62,60,67,52
2025-02-27 14:54:37.144,-101.0,611.0,-209.0,32.0,1.0,104.0,158,62,60,67,51
2025-02-27 14:54:37.148,-72.0,615.0,-247.0,26.0,4.0,103.0,160,63,61,68,53
2025-02-27 14:54:37.152,-76.0,701.0,-267.0,23.0,19.0,99.0,160,63,60,64,52
2025-02-27 14:54:37.156,-85.0,796.0,-319.0,29.0,21.0,93.0,160,64,60,66,52
2025-02-27 14:54:37.164,-106.0,873.0,-252.0,34.0,25.0,87.0,160,64,62,65,52
2025-02-27 14:54:37.168,-146.0,1018.0,-308.0,39.0,38.0,69.0,160,62,60,66,51
2025-02-27 14:54:37.172,-146.0,1156.0,-273.0,49.0,42.0,48.0,160,63,61,60,51
2025-02-27 14:54:37.177,-141.0,1226.0,-337.0,58.0,48.0,37.0,160,64,62,68,52
2025-02-27 14:54:37.181,-179.0,1413.0,-350.0,58.0,54.0,11.0,160,63,61,69,52
2025-02-27 14:54:37.189,-182.0,1539.0,-409.0,62.0,54.0,-17.0,159,64,61,68,51
2025-02-27 14:54:37.193,-161.0,1576.0,-494.0,73.0,53.0,-33.0,158,63,61,67,52
2025-02-27 14:54:37.197,-185.0,1735.0,-517.0,81.0,54.0,-72.0,159,64,61,60,52
2025-02-27 14:54:37.202,-206.0,1904.0,-559.0,82.0,53.0,-123.0,159,62,61,68,51
2025-02-27 14:54:37.209,-270.0,1984.0,-619.0,75.0,44.0,-150.0,158,62,60,67,50
2025-02-27 14:54:37.214,-317.0,2012.0,-621.0,53.0,22.0,-204.0,160,63,61,64,51
2025-02-27 14:54:37.217,-319.0,1852.0,-622.0,40.0,9.0,-257.0,159,62,61,67,51
2025-02-27 14:54:37.222,-308.0,1700.0,-514.0,17.0,-22.0,-281.0,159,61,59,67,50
2025-02-27 14:54:37.230,-209.0,1239.0,-494.0,-4.0,-51.0,-324.0,159,65,60,67,50
2025-02-27 14:54:37.234,-100.0,747.0,-322.0,-11.0,-77.0,-359.0,158,63,60,68,51
2025-02-27 14:54:37.238,-74.0,168.0,-86.0,-17.0,-84.0,-373.0,158,64,61,67,51
2025-02-27 14:54:37.242,127.0,-187.0,58.0,-11.0,-99.0,-396.0,159,64,59,67,51
2025-02-27 14:54:37.250,321.0,-906.0,350.0,-8.0,-107.0,-403.0,157,62,59,67,51
2025-02-27 14:54:37.254,391.0,-1485.0,610.0,-1.0,-102.0,-405.0,158,62,59,67,51
2025-02-27 14:54:37.259,489.0,-1590.0,929.0,-1.0,-93.0,-398.0,159,63,59,67,51
2025-02-27 14:54:37.266,529.0,-2330.0,1038.0,0.0,-68.0,-374.0,158,63,60,67,51
2025-02-27 14:54:37.270,654.0,-3043.0,1581.0,-28.0,-12.0,-321.0,158,64,60,67,51
2025-02-27 14:54:37.275,828.0,-3564.0,1500.0,6.0,-37.0,-282.0,158,62,59,68,51
2025-02-27 14:54:37.279,571.0,-3817.0,1535.0,6.0,10.0,-246.0,159,62,60,69,53
2025-02-27 14:54:37.287,409.0,-4143.0,1598.0,0.0,44.0,-214.0,159,63,61,69,52
2025-02-27 14:54:37.291,389.0,-4442.0,1601.0,-3.0,91.0,-188.0,159,64,61,68,53
2025-02-27 14:54:37.296,343.0,-4734.0,1546.0,-47.0,112.0,-155.0,158,62,62,69,52
2025-02-27 14:54:37.300,119.0,-5092.0,1238.0,-58.0,130.0,-143.0,158,62,63,68,52
2025-02-27 14:54:37.308,-42.0,-5307.0,1282.0,-54.0,123.0,-106.0,158,63,62,68,53
2025-02-27 14:54:37.312,-373.0,-5389.0,1082.0,-66.0,124.0,-74.0,157,63,61,67,52
2025-02-27 14:54:37.317,-522.0,-5518.0,949.0,-60.0,114.0,-30.0,157,62,63,69,51
2025-02-27 14:54:37.324,-519.0,-5502.0,824.0,-38.0,84.0,19.0,157,63,61,67,53
2025-02-27 14:54:37.328,-624.0,-5247.0,811.0,-22.0,73.0,39.0,157,61,62,68,53
2025-02-27 14:54:37.332,-1251.0,-4119.0,1099.0,-19.0,51.0,83.0,157,63,64,67,52
2025-02-27 14:54:37.337,-745.0,-4648.0,815.0,17.0,45.0,123.0,157,63,63,69,54
2025-02-27 14:54:37.341,-575.0,-4616.0,868.0,49.0,26.0,135.0,156,62,62,68,52
2025-02-27 14:54:37.349,-549.0,-4007.0,833.0,70.0,17.0,167.0,156,62,63,69,53
2025-02-27 14:54:37.352,-408.0,-3477.0,808.0,74.0,17.0,191.0,157,63,62,69,53
2025-02-27 14:54:37.357,-303.0,-2958.0,853.0,77.0,22.0,209.0,158,63,63,69,53
2025-02-27 14:54:37.361,-256.0,-2611.0,779.0,68.0,29.0,217.0,158,62,62,69,53
2025-02-27 14:54:37.369,-95.0,-2267.0,751.0,62.0,46.0,228.0,157,62,62,69,53
2025-02-27 14:54:37.373,-136.0,-1843.0,656.0,40.0,57.0,237.0,157,64,60,68,51
2025-02-27 14:54:37.377,-22.0,-1666.0,463.0,24.0,66.0,239.0,158,63,62,70,53
2025-02-27 14:54:37.381,6.0,-1357.0,535.0,2.0,80.0,241.0,157,63,60,69,53
2025-02-27 14:54:37.386,5.0,-1187.0,354.0,3.0,78.0,244.0,157,61,61,69,53
2025-02-27 14:54:37.394,-1.0,-970.0,220.0,-20.0,83.0,245.0,157,62,60,69,53
2025-02-27 14:54:37.397,-29.0,-843.0,134.0,-39.0,83.0,243.0,159,65,62,69,53
2025-02-27 14:54:37.403,-80.0,-673.0,132.0,-57.0,86.0,244.0,158,63,61,69,58
2025-02-27 14:54:37.407,-180.0,-521.0,19.0,-89.0,77.0,239.0,155,62,61,68,52
2025-02-27 14:54:37.411,-195.0,-348.0,-125.0,-90.0,50.0,234.0,158,63,60,65,52
2025-02-27 14:54:37.418,-195.0,-195.0,-177.0,-89.0,38.0,228.0,158,63,61,60,53
2025-02-27 14:54:37.423,-136.0,-115.0,-144.0,-101.0,30.0,222.0,156,62,61,59,53
2025-02-27 14:54:37.427,-176.0,11.0,-236.0,-88.0,23.0,213.0,156,66,62,62,53
2025-02-27 14:54:37.431,-178.0,77.0,-229.0,-79.0,-4.0,207.0,157,64,61,65,54
2025-02-27 14:54:37.438,-157.0,165.0,-197.0,-68.0,-14.0,199.0,157,64,62,66,54
2025-02-27 14:54:37.444,-151.0,216.0,-181.0,-59.0,-26.0,197.0,158,63,62,66,54
2025-02-27 14:54:37.447,-137.0,204.0,-170.0,-48.0,-58.0,195.0,158,63,63,63,53
2025-02-27 14:54:37.451,-85.0,175.0,-121.0,-45.0,-59.0,191.0,156,63,61,61,54
2025-02-27 14:54:37.459,-45.0,203.0,27.0,-57.0,-57.0,189.0,157,62,63,65,54
2025-02-27 14:54:37.463,43.0,211.0,-27.0,-65.0,-58.0,185.0,158,64,63,65,55
2025-02-27 14:54:37.467,68.0,293.0,53.0,-69.0,-43.0,177.0,157,63,62,66,54
2025-02-27 14:54:37.471,118.0,250.0,128.0,-71.0,-35.0,174.0,157,63,63,68,54
2025-02-27 14:54:37.477,121.0,291.0,106.0,-70.0,-28.0,165.0,158,65,63,67,57
2025-02-27 14:54:37.484,142.0,360.0,117.0,-75.0,-5.0,155.0,157,64,64,62,56
2025-02-27 14:54:37.488,130.0,473.0,192.0,-87.0,7.0,149.0,156,64,63,60,57
2025-02-27 14:54:37.493,199.0,472.0,158.0,-92.0,21.0,140.0,157,65,63,68,58
2025-02-27 14:54:37.496,141.0,597.0,123.0,-96.0,24.0,130.0,158,65,64,71,60
2025-02-27 14:54:37.500,119.0,681.0,-1.0,-90.0,18.0,123.0,156,66,63,68,59
2025-02-27 14:54:37.508,55.0,671.0,-43.0,-82.0,4.0,120.0,156,65,64,70,60
2025-02-27 14:54:37.512,82.0,748.0,-44.0,-81.0,-11.0,114.0,157,65,64,73,60
2025-02-27 14:54:37.517,76.0,851.0,231.0,-51.0,16.0,101.0,157,64,65,74,61
2025-02-27 14:54:37.521,176.0,795.0,-128.0,-16.0,16.0,97.0,156,66,65,73,63
2025-02-27 14:54:37.525,145.0,831.0,-43.0,-3.0,11.0,90.0,156,66,66,70,63
2025-02-27 14:54:37.529,189.0,807.0,-102.0,43.0,2.0,89.0,156,65,66,68,64
2025-02-27 14:54:37.537,282.0,602.0,-205.0,98.0,1.0,88.0,157,66,69,71,67
2025-02-27 14:54:37.541,368.0,840.0,-69.0,112.0,8.0,85.0,157,68,67,81,67
2025-02-27 14:54:37.545,447.0,891.0,-261.0,122.0,2.0,82.0,156,68,67,64,70
2025-02-27 14:54:37.549,451.0,931.0,-253.0,116.0,-7.0,77.0,157,69,70,76,73
2025-02-27 14:54:37.553,336.0,1018.0,-404.0,120.0,-24.0,49.0,156,71,73,90,76
2025-02-27 14:54:37.558,255.0,1238.0,-597.0,124.0,-28.0,8.0,156,71,73,90,77
2025-02-27 14:54:37.565,176.0,1358.0,-786.0,124.0,-27.0,-17.0,155,73,77,93,81
2025-02-27 14:54:37.570,38.0,1670.0,-964.0,134.0,-57.0,-69.0,158,74,79,96,85
2025-02-27 14:54:37.575,-41.0,1829.0,-1230.0,141.0,-78.0,-125.0,156,75,82,100,88
2025-02-27 14:54:37.582,-203.0,1913.0,-1308.0,130.0,-116.0,-154.0,157,79,86,102,93
2025-02-27 14:54:37.586,-329.0,2030.0,-1396.0,126.0,-151.0,-200.0,157,82,90,104,97
2025-02-27 14:54:37.591,-387.0,2285.0,-1991.0,107.0,-182.0,-244.0,158,85,94,104,101
2025-02-27 14:54:37.598,-239.0,1654.0,-1423.0,88.0,-214.0,-255.0,159,90,96,104,109
2025-02-27 14:54:37.603,266.0,1743.0,-1352.0,48.0,-250.0,-283.0,158,94,98,103,114
2025-02-27 14:54:37.608,653.0,843.0,-843.0,-68.0,-304.0,-300.0,159,97,100,103,121
2025-02-27 14:54:37.615,526.0,837.0,-1011.0,-228.0,-394.0,-331.0,159,102,104,104,128
2025-02-27 14:54:37.619,475.0,-319.0,-44.0,-196.0,-363.0,-297.0,161,108,107,108,131
2025-02-27 14:54:37.627,487.0,-1060.0,118.0,-174.0,-298.0,-303.0,159,113,110,113,133
2025-02-27 14:54:37.631,303.0,-957.0,-678.0,-189.0,-334.0,-307.0,160,118,109,114,134
2025-02-27 14:54:37.635,310.0,-1068.0,250.0,-147.0,-306.0,-336.0,159,120,110,116,136
2025-02-27 14:54:37.644,360.0,-1551.0,789.0,-84.0,-235.0,-343.0,160,123,111,119,137
2025-02-27 14:54:37.648,118.0,-2001.0,674.0,-39.0,-208.0,-330.0,158,125,113,119,137
2025-02-27 14:54:37.656,103.0,-1671.0,883.0,52.0,-149.0,-324.0,160,128,114,120,138
2025-02-27 14:54:37.660,749.0,-1525.0,1488.0,-82.0,-159.0,-266.0,161,127,116,123,139
2025-02-27 14:54:37.664,37.0,-1592.0,1944.0,103.0,-137.0,-329.0,161,132,117,124,139
2025-02-27 14:54:37.672,442.0,-2834.0,1723.0,236.0,-56.0,-337.0,162,132,118,124,141
2025-02-27 14:54:37.676,811.0,-3742.0,500.0,85.0,-86.0,-304.0,162,134,118,124,141
2025-02-27 14:54:37.681,-159.0,-3175.0,1299.0,-70.0,-70.0,-246.0,161,133,119,126,142
2025-02-27 14:54:37.689,122.0,-3244.0,2107.0,-63.0,-2.0,-236.0,164,134,119,125,142
2025-02-27 14:54:37.693,298.0,-3424.0,2041.0,-43.0,-16.0,-212.0,163,134,120,126,142
2025-02-27 14:54:37.700,-102.0,-4337.0,1774.0,-80.0,-21.0,-134.0,164,135,120,128,141
2025-02-27 14:54:37.705,-383.0,-4433.0,1698.0,-133.0,-12.0,-67.0,162,135,121,127,141
2025-02-27 14:54:37.709,39.0,-4269.0,1762.0,-169.0,-4.0,-76.0,162,135,120,126,142
2025-02-27 14:54:37.717,170.0,-4013.0,1877.0,-185.0,21.0,-33.0,163,136,121,129,142
2025-02-27 14:54:37.722,-254.0,-4097.0,1766.0,-184.0,63.0,-26.0,162,136,121,127,142
2025-02-27 14:54:37.726,-160.0,-3921.0,1743.0,-156.0,100.0,-5.0,163,136,120,128,142
2025-02-27 14:54:37.734,-204.0,-4119.0,1390.0,-68.0,101.0,30.0,164,137,121,128,142
2025-02-27 14:54:37.738,-89.0,-4157.0,1278.0,-17.0,77.0,69.0,164,137,122,128,144
2025-02-27 14:54:37.742,-359.0,-3502.0,1436.0,-23.0,81.0,101.0,163,136,122,127,143
2025-02-27 14:54:37.750,-271.0,-3152.0,1358.0,-20.0,88.0,123.0,163,135,121,128,142
2025-02-27 14:54:37.755,-216.0,-2836.0,1171.0,-54.0,78.0,150.0,162,135,120,128,143
2025-02-27 14:54:37.762,-326.0,-2472.0,985.0,-34.0,72.0,139.0,163,132,121,129,143
2025-02-27 14:54:37.766,-231.0,-2276.0,938.0,-51.0,85.0,152.0,161,137,121,129,143
2025-02-27 14:54:37.771,-216.0,-2096.0,644.0,-33.0,67.0,156.0,164,137,122,127,143
2025-02-27 14:54:37.778,-109.0,-2173.0,926.0,-45.0,78.0,169.0,163,136,122,129,143
2025-02-27 14:54:37.782,-227.0,-1971.0,564.0,10.0,56.0,179.0,163,137,122,128,143
2025-02-27 14:54:37.787,-185.0,-1895.0,441.0,8.0,64.0,185.0,164,137,122,128,142
2025-02-27 14:54:37.791,-103.0,-1628.0,411.0,2.0,63.0,194.0,163,137,121,128,143
2025-02-27 14:54:37.799,-141.0,-1547.0,338.0,41.0,49.0,197.0,163,138,123,129,143
2025-02-27 14:54:37.803,-88.0,-1532.0,291.0,51.0,46.0,203.0,163,136,122,128,144
2025-02-27 14:54:37.808,-101.0,-1402.0,248.0,49.0,37.0,209.0,162,137,121,127,144
2025-02-27 14:54:37.816,-184.0,-1216.0,164.0,43.0,33.0,213.0,163,136,122,128,142
2025-02-27 14:54:37.820,-122.0,-1125.0,214.0,1.0,50.0,214.0,164,137,121,129,143
2025-02-27 14:54:37.825,-110.0,-1001.0,100.0,-59.0,53.0,212.0,161,136,121,128,142
2025-02-27 14:54:37.832,-106.0,-971.0,68.0,-124.0,62.0,211.0,162,135,120,127,143
2025-02-27 14:54:37.836,-69.0,-857.0,220.0,-230.0,59.0,212.0,163,136,120,129,143
2025-02-27 14:54:37.840,-161.0,-712.0,255.0,-291.0,46.0,199.0,162,136,121,129,144
2025-02-27 14:54:37.848,-119.0,-670.0,66.0,-301.0,-2.0,190.0,159,136,121,127,143
2025-02-27 14:54:37.853,190.0,-640.0,-226.0,-258.0,-37.0,174.0,162,136,120,128,143
2025-02-27 14:54:37.857,-94.0,-369.0,-340.0,-205.0,-60.0,171.0,163,135,121,129,144
2025-02-27 14:54:37.865,-35.0,-316.0,-200.0,-81.0,-28.0,171.0,161,135,119,128,143
2025-02-27 14:54:37.869,99.0,-348.0,-321.0,-7.0,-7.0,173.0,161,135,119,127,143
2025-02-27 14:54:37.874,-53.0,-288.0,-45.0,-4.0,12.0,173.0,163,135,121,127,143
2025-02-27 14:54:37.881,-26.0,-190.0,-36.0,12.0,12.0,172.0,162,138,120,128,143
2025-02-27 14:54:37.885,5.0,-107.0,38.0,49.0,22.0,167.0,163,136,119,128,143
2025-02-27 14:54:37.900,-64.0,-121.0,-357.0,39.0,33.0,169.0,163,136,119,129,143
2025-02-27 14:54:37.903,-5.0,-41.0,-227.0,61.0,32.0,168.0,163,136,120,129,144
2025-02-27 14:54:37.906,8.0,99.0,-187.0,64.0,29.0,167.0,163,136,121,128,144
2025-02-27 14:54:37.908,-8.0,198.0,-251.0,68.0,29.0,163.0,162,136,120,127,143
2025-02-27 14:54:37.910,-7.0,223.0,-144.0,88.0,22.0,159.0,161,136,117,130,144
2025-02-27 14:54:37.914,-39.0,438.0,-318.0,45.0,35.0,149.0,162,136,120,129,143
2025-02-27 14:54:37.922,-31.0,505.0,-332.0,11.0,47.0,144.0,163,137,120,129,144
2025-02-27 14:54:37.926,-42.0,513.0,-473.0,-12.0,40.0,134.0,161,135,119,128,143
2025-02-27 14:54:37.931,-107.0,586.0,-457.0,-92.0,14.0,127.0,161,136,120,127,143
2025-02-27 14:54:37.939,-147.0,760.0,-560.0,-192.0,-53.0,108.0,161,139,120,128,145
2025-02-27 14:54:37.943,-161.0,1120.0,-1122.0,-233.0,-100.0,93.0,161,135,120,128,144
2025-02-27 14:54:37.947,165.0,1057.0,283.0,-176.0,-8.0,84.0,162,135,119,127,144
2025-02-27 14:54:37.955,-53.0,1175.0,51.0,-150.0,33.0,73.0,161,135,120,128,144
2025-02-27 14:54:37.959,-97.0,1230.0,-97.0,-109.0,37.0,62.0,161,134,120,129,144
2025-02-27 14:54:37.963,-11.0,1362.0,110.0,-21.0,59.0,55.0,160,135,118,127,144
2025-02-27 14:54:37.968,-84.0,1479.0,-31.0,50.0,43.0,38.0,161,134,119,128,143
2025-02-27 14:54:37.976,-78.0,1550.0,-150.0,81.0,14.0,18.0,161,134,119,128,144
2025-02-27 14:54:37.980,-95.0,1558.0,-160.0,135.0,6.0,-4.0,161,134,119,129,149
2025-02-27 14:54:37.984,-114.0,1575.0,-223.0,156.0,-3.0,-13.0,160,134,119,127,143
2025-02-27 14:54:37.992,-55.0,1602.0,-318.0,181.0,1.0,-38.0,161,134,118,128,144
2025-02-27 14:54:37.995,-26.0,1499.0,-163.0,218.0,13.0,-66.0,161,134,120,128,144
2025-02-27 14:54:38.000,-43.0,1522.0,-278.0,209.0,29.0,-95.0,161,136,119,129,144
2025-02-27 14:54:38.008,29.0,1494.0,-201.0,212.0,45.0,-130.0,160,135,120,127,144
2025-02-27 14:54:38.013,35.0,1444.0,-365.0,251.0,62.0,-163.0,160,134,119,128,144
2025-02-27 14:54:38.017,31.0,1451.0,-530.0,234.0,70.0,-182.0,159,132,119,129,143
2025-02-27 14:54:38.021,-5.0,1198.0,-498.0,237.0,59.0,-217.0,161,136,120,128,144
2025-02-27 14:54:38.029,-69.0,1010.0,-551.0,235.0,29.0,-248.0,161,135,120,128,144
2025-02-27 14:54:38.033,-51.0,723.0,-384.0,255.0,2.0,-268.0,160,135,119,129,145
2025-02-27 14:54:38.038,-21.0,520.0,-266.0,232.0,-6.0,-293.0,161,135,121,129,144
2025-02-27 14:54:38.045,-26.0,226.0,-74.0,172.0,-50.0,-313.0,160,134,118,128,144
2025-02-27 14:54:38.049,54.0,199.0,458.0,111.0,-74.0,-323.0,161,134,119,128,144
2025-02-27 14:54:38.054,75.0,-52.0,344.0,96.0,-79.0,-338.0,162,135,120,127,144
2025-02-27 14:54:38.061,111.0,-464.0,0.0,101.0,-84.0,-341.0,161,135,120,128,144
2025-02-27 14:54:38.066,112.0,-848.0,-117.0,84.0,-91.0,-338.0,162,138,119,127,143
2025-02-27 14:54:38.070,111.0,-985.0,152.0,13.0,-83.0,-328.0,161,135,118,128,143
2025-02-27 14:54:38.078,48.0,-1271.0,573.0,-9.0,-59.0,-333.0,160,135,118,130,143
2025-02-27 14:54:38.082,-58.0,-1288.0,847.0,3.0,-50.0,-353.0,162,137,120,128,144
2025-02-27 14:54:38.087,578.0,-2384.0,481.0,162.0,-71.0,-325.0,161,138,119,128,144
2025-02-27 14:54:38.094,-191.0,-2588.0,743.0,139.0,-53.0,-312.0,162,136,120,128,144
2025-02-27 14:54:38.098,176.0,-2992.0,1028.0,194.0,-5.0,-315.0,161,142,120,130,145
2025-02-27 14:54:38.103,-132.0,-2828.0,1217.0,153.0,13.0,-316.0,162,136,118,127,144
2025-02-27 14:54:38.110,-76.0,-3360.0,1425.0,211.0,-15.0,-284.0,161,136,119,128,144
2025-02-27 14:54:38.115,60.0,-3579.0,1552.0,208.0,-22.0,-250.0,162,137,118,127,143
2025-02-27 14:54:38.122,-149.0,-3878.0,1538.0,174.0,-50.0,-235.0,162,136,119,128,147
2025-02-27 14:54:38.127,-375.0,-3888.0,1742.0,104.0,-37.0,-200.0,161,135,119,128,144
2025-02-27 14:54:38.131,-309.0,-3933.0,1808.0,68.0,-31.0,-158.0,162,136,118,129,143
2025-02-27 14:54:38.139,-229.0,-4321.0,1782.0,38.0,-38.0,-108.0,163,138,119,128,144
2025-02-27 14:54:38.143,-229.0,-4355.0,1681.0,12.0,-49.0,-61.0,163,138,119,130,143
2025-02-27 14:54:38.148,-378.0,-4152.0,1860.0,26.0,-33.0,-11.0,163,138,118,128,144
2025-02-27 14:54:38.155,-274.0,-3927.0,1961.0,28.0,-24.0,27.0,162,136,118,129,144
2025-02-27 14:54:38.160,-342.0,-3923.0,1490.0,26.0,-39.0,68.0,163,138,117,129,143
2025-02-27 14:54:38.164,-378.0,-3666.0,1768.0,11.0,-32.0,99.0,162,137,118,129,144
2025-02-27 14:54:38.172,-307.0,-3383.0,1773.0,-1.0,-14.0,113.0,162,136,117,130,143
2025-02-27 14:54:38.176,-332.0,-3229.0,1666.0,-13.0,5.0,132.0,161,135,117,129,144
2025-02-27 14:54:38.184,-369.0,-2980.0,1681.0,-33.0,28.0,146.0,162,137,118,129,143
2025-02-27 14:54:38.188,-320.0,-2672.0,1459.0,-54.0,46.0,154.0,162,138,117,130,143
2025-02-27 14:54:38.192,-312.0,-2470.0,1369.0,-54.0,53.0,157.0,162,137,117,129,144
2025-02-27 14:54:38.201,-292.0,-2359.0,1315.0,-50.0,59.0,160.0,163,136,118,129,145
2025-02-27 14:54:38.205,-249.0,-2221.0,1123.0,-39.0,69.0,163.0,162,136,117,129,140
2025-02-27 14:54:38.209,-191.0,-1955.0,1026.0,-60.0,75.0,164.0,162,137,116,129,143
2025-02-27 14:54:38.216,-200.0,-1736.0,781.0,-88.0,76.0,172.0,161,134,117,128,143
2025-02-27 14:54:38.221,-165.0,-1806.0,830.0,-126.0,88.0,177.0,161,133,117,129,142
2025-02-27 14:54:38.225,-102.0,-1605.0,636.0,-185.0,97.0,186.0,162,133,116,129,142
2025-02-27 14:54:38.233,-74.0,-1541.0,583.0,-262.0,100.0,199.0,161,132,115,127,141
2025-02-27 14:54:38.237,-51.0,-1352.0,307.0,-362.0,101.0,206.0,161,130,115,129,141
2025-02-27 14:54:38.242,-14.0,-1113.0,331.0,-392.0,87.0,206.0,161,129,112,127,138
2025-02-27 14:54:38.249,-78.0,-985.0,27.0,-464.0,45.0,202.0,161,125,110,127,135
2025-02-27 14:54:38.254,-43.0,-827.0,-257.0,-426.0,20.0,213.0,160,123,109,125,134
2025-02-27 14:54:38.258,21.0,-678.0,-251.0,-346.0,-36.0,212.0,161,120,106,127,134
2025-02-27 14:54:38.266,-51.0,-667.0,454.0,-248.0,-62.0,215.0,161,119,103,126,131
2025-02-27 14:54:38.270,-25.0,-661.0,298.0,-165.0,-69.0,216.0,161,114,100,127,128
2025-02-27 14:54:38.274,82.0,-397.0,209.0,-92.0,-46.0,219.0,161,113,99,124,122
2025-02-27 14:54:38.283,96.0,-326.0,-159.0,-50.0,-40.0,226.0,160,109,97,123,118
2025-02-27 14:54:38.287,18.0,-363.0,195.0,8.0,-31.0,227.0,160,107,94,123,113
2025-02-27 14:54:38.291,7.0,-347.0,-29.0,27.0,-27.0,223.0,161,108,93,121,109
2025-02-27 14:54:38.295,30.0,-297.0,-99.0,46.0,-29.0,227.0,161,105,92,123,107
2025-02-27 14:54:38.303,-59.0,-105.0,56.0,41.0,-20.0,221.0,162,103,91,121,104
2025-02-27 14:54:38.307,-55.0,86.0,-156.0,31.0,-15.0,211.0,159,103,91,120,101
2025-02-27 14:54:38.312,-38.0,40.0,-291.0,19.0,-36.0,204.0,162,101,89,118,101
2025-02-27 14:54:38.316,-73.0,-40.0,-360.0,25.0,-43.0,195.0,160,99,88,121,100
2025-02-27 14:54:38.324,-15.0,121.0,89.0,19.0,-31.0,186.0,160,97,84,118,98
2025-02-27 14:54:38.327,16.0,208.0,-232.0,-53.0,-12.0,189.0,160,97,89,119,96
2025-02-27 14:54:38.332,-106.0,252.0,-403.0,-124.0,-23.0,175.0,159,94,88,117,95
2025-02-27 14:54:38.336,-76.0,519.0,-192.0,-160.0,-31.0,162.0,160,93,88,118,93
2025-02-27 14:54:38.344,31.0,660.0,-4.0,-232.0,-33.0,155.0,159,92,88,117,92
2025-02-27 14:54:38.348,-19.0,608.0,-50.0,-268.0,-33.0,155.0,160,90,87,117,90
2025-02-27 14:54:38.352,-10.0,691.0,-79.0,-233.0,-13.0,151.0,159,86,86,115,88
2025-02-27 14:54:38.356,55.0,779.0,-139.0,-186.0,6.0,145.0,159,86,85,114,85
2025-02-27 14:54:38.364,158.0,720.0,-351.0,-74.0,4.0,137.0,159,85,84,114,81
2025-02-27 14:54:38.368,155.0,758.0,-62.0,17.0,-13.0,105.0,159,82,82,114,77
2025-02-27 14:54:38.373,59.0,810.0,-137.0,52.0,-20.0,87.0,160,79,79,111,72
2025-02-27 14:54:38.377,36.0,918.0,-59.0,83.0,-20.0,82.0,160,75,77,109,68
2025-02-27 14:54:38.381,17.0,1030.0,-48.0,87.0,-16.0,77.0,160,73,73,107,63
2025-02-27 14:54:38.385,91.0,974.0,90.0,83.0,-10.0,73.0,159,71,72,103,59
2025-02-27 14:54:38.393,100.0,976.0,-39.0,87.0,-13.0,70.0,159,67,68,100,55
2025-02-27 14:54:38.398,88.0,950.0,13.0,91.0,-8.0,62.0,160,67,66,96,55
2025-02-27 14:54:38.402,65.0,935.0,-33.0,102.0,-7.0,59.0,158,65,65,93,51
2025-02-27 14:54:38.406,69.0,1324.0,-25.0,110.0,-10.0,54.0,159,63,61,90,49
2025-02-27 14:54:38.410,181.0,1083.0,104.0,127.0,-3.0,67.0,159,62,60,85,47
2025-02-27 14:54:38.418,158.0,1210.0,-35.0,135.0,-23.0,69.0,159,60,58,84,47
2025-02-27 14:54:38.422,161.0,1346.0,-46.0,137.0,-32.0,67.0,158,58,57,81,45
2025-02-27 14:54:38.426,-34.0,1401.0,-169.0,153.0,-31.0,62.0,160,57,54,78,44
2025-02-27 14:54:38.431,8.0,1770.0,135.0,160.0,-46.0,43.0,159,55,53,75,43
2025-02-27 14:54:38.435,-158.0,2194.0,119.0,127.0,-46.0,16.0,158,52,52,73,43
2025-02-27 14:54:38.442,200.0,2333.0,-353.0,77.0,-26.0,-2.0,159,53,52,70,43
2025-02-27 14:54:38.447,389.0,2778.0,-766.0,22.0,-27.0,-83.0,156,51,50,69,44
2025-02-27 14:54:38.451,367.0,3529.0,-469.0,-45.0,-21.0,-176.0,158,50,49,68,42
2025-02-27 14:54:38.455,626.0,3481.0,-1115.0,-71.0,-19.0,-223.0,157,51,50,69,42
2025-02-27 14:54:38.463,53.0,3477.0,-1167.0,-66.0,-13.0,-337.0,157,50,50,67,42
2025-02-27 14:54:38.467,77.0,3332.0,-731.0,-66.0,-27.0,-423.0,157,49,47,65,40
2025-02-27 14:54:38.472,-198.0,3084.0,-879.0,-86.0,-74.0,-460.0,157,49,50,64,42
2025-02-27 14:54:38.479,206.0,2159.0,-1135.0,-81.0,-140.0,-520.0,154,50,50,66,43
2025-02-27 14:54:38.483,768.0,1555.0,-1230.0,-90.0,-159.0,-557.0,158,49,50,65,43
2025-02-27 14:54:38.487,938.0,934.0,-1079.0,-92.0,-164.0,-584.0,157,50,49,64,42
2025-02-27 14:54:38.491,993.0,277.0,-841.0,-72.0,-178.0,-602.0,157,50,51,63,42
2025-02-27 14:54:38.500,1162.0,-73.0,-779.0,-41.0,-193.0,-607.0,158,51,52,65,44
2025-02-27 14:54:38.512,1299.0,-718.0,-744.0,-18.0,-201.0,-621.0,158,50,51,66,43
2025-02-27 14:54:38.514,1335.0,-1179.0,-491.0,-6.0,-195.0,-625.0,159,50,51,65,44
2025-02-27 14:54:38.516,1671.0,-2192.0,-12.0,6.0,-184.0,-596.0,157,50,52,65,43
2025-02-27 14:54:38.521,1896.0,-3535.0,396.0,27.0,-156.0,-517.0,158,51,51,65,45
2025-02-27 14:54:38.525,2038.0,-4306.0,403.0,29.0,-119.0,-479.0,159,51,52,66,45
2025-02-27 14:54:38.532,1981.0,-5089.0,760.0,39.0,-90.0,-360.0,159,52,53,66,45
2025-02-27 14:54:38.537,1979.0,-4471.0,1052.0,57.0,-42.0,-279.0,159,52,52,65,45
2025-02-27 14:54:38.541,1682.0,-4854.0,1015.0,42.0,-22.0,-231.0,159,50,52,66,45
2025-02-27 14:54:38.546,1184.0,-5070.0,1043.0,21.0,4.0,-219.0,158,51,53,66,45
2025-02-27 14:54:38.553,835.0,-4605.0,1077.0,11.0,8.0,-207.0,159,52,53,66,45
2025-02-27 14:54:38.557,869.0,-5290.0,1221.0,5.0,29.0,-182.0,159,50,54,66,46
2025-02-27 14:54:38.561,769.0,-5468.0,1186.0,-28.0,25.0,-144.0,158,53,54,64,45
2025-02-27 14:54:38.565,458.0,-5432.0,1238.0,-46.0,26.0,-128.0,158,52,53,65,45
2025-02-27 14:54:38.572,362.0,-5760.0,1214.0,-50.0,12.0,-86.0,157,53,55,66,45
2025-02-27 14:54:38.577,187.0,-5907.0,1326.0,-52.0,7.0,-46.0,158,52,55,65,45
2025-02-27 14:54:38.582,238.0,-5805.0,1382.0,-47.0,10.0,-5.0,157,54,53,64,45
2025-02-27 14:54:38.587,0.0,-5711.0,1371.0,-23.0,-10.0,14.0,158,54,56,65,46
2025-02-27 14:54:38.594,20.0,-5452.0,1430.0,5.0,-9.0,43.0,158,48,56,66,47
2025-02-27 14:54:38.598,-22.0,-4974.0,1322.0,23.0,-15.0,73.0,156,53,55,65,46
2025-02-27 14:54:38.602,-84.0,-4888.0,1405.0,54.0,-22.0,83.0,158,54,57,65,47
2025-02-27 14:54:38.607,-20.0,-4200.0,1370.0,76.0,-28.0,106.0,158,55,58,66,47
2025-02-27 14:54:38.614,140.0,-3682.0,1438.0,76.0,-24.0,120.0,159,55,57,66,47
2025-02-27 14:54:38.618,108.0,-3294.0,1451.0,86.0,-21.0,137.0,158,53,57,65,47
2025-02-27 14:54:38.623,268.0,-3058.0,1451.0,85.0,-7.0,147.0,158,56,58,68,47
2025-02-27 14:54:38.627,346.0,-2793.0,1393.0,86.0,10.0,164.0,158,55,58,67,48
2025-02-27 14:54:38.631,383.0,-2557.0,1233.0,84.0,20.0,177.0,158,54,56,59,46
2025-02-27 14:54:38.639,343.0,-2298.0,1083.0,65.0,28.0,186.0,159,53,57,67,47
2025-02-27 14:54:38.643,431.0,-1820.0,1095.0,28.0,49.0,191.0,160,54,57,63,47
2025-02-27 14:54:38.648,420.0,-1176.0,433.0,0.0,43.0,189.0,161,55,55,64,47
2025-02-27 14:54:38.652,407.0,-1158.0,836.0,-5.0,65.0,190.0,159,54,55,65,47
2025-02-27 14:54:38.659,455.0,-1413.0,957.0,-20.0,118.0,200.0,161,55,54,67,47
2025-02-27 14:54:38.664,323.0,-1139.0,446.0,-32.0,118.0,213.0,161,54,55,69,48
2025-02-27 14:54:38.668,200.0,-1246.0,215.0,-17.0,119.0,217.0,160,55,53,66,45
2025-02-27 14:54:38.672,213.0,-1019.0,-179.0,-21.0,127.0,219.0,160,53,52,64,46
2025-02-27 14:54:38.680,203.0,-1031.0,-98.0,1.0,104.0,232.0,161,55,54,69,47
2025-02-27 14:54:38.684,254.0,-1154.0,-97.0,10.0,91.0,236.0,161,56,53,69,48
2025-02-27 14:54:38.688,225.0,-689.0,-214.0,18.0,89.0,231.0,160,54,52,69,46
2025-02-27 14:54:38.692,210.0,-550.0,-229.0,31.0,75.0,232.0,162,55,53,70,46
2025-02-27 14:54:38.697,191.0,-450.0,-240.0,39.0,66.0,228.0,161,53,54,70,47
2025-02-27 14:54:38.704,237.0,-233.0,-270.0,52.0,64.0,221.0,160,54,52,68,46
2025-02-27 14:54:38.708,202.0,41.0,-336.0,42.0,72.0,218.0,161,56,53,65,46
2025-02-27 14:54:38.713,215.0,46.0,-296.0,50.0,75.0,217.0,160,55,51,65,47
2025-02-27 14:54:38.717,263.0,129.0,-212.0,44.0,85.0,214.0,161,54,53,59,45
2025-02-27 14:54:38.721,242.0,111.0,-144.0,29.0,97.0,214.0,160,55,53,68,47
2025-02-27 14:54:38.729,196.0,146.0,-234.0,41.0,97.0,219.0,160,54,54,69,47
2025-02-27 14:54:38.733,271.0,253.0,-250.0,26.0,94.0,227.0,161,56,53,66,48
2025-02-27 14:54:38.737,312.0,312.0,-217.0,0.0,104.0,230.0,160,55,54,64,47
2025-02-27 14:54:38.742,185.0,636.0,-193.0,-18.0,106.0,232.0,158,55,55,66,48
2025-02-27 14:54:38.746,171.0,685.0,-224.0,-31.0,99.0,231.0,160,53,54,66,46
2025-02-27 14:54:38.754,90.0,920.0,-317.0,-60.0,88.0,232.0,161,55,54,69,47
2025-02-27 14:54:38.758,6.0,947.0,-388.0,-82.0,92.0,221.0,160,55,56,69,47
2025-02-27 14:54:38.762,2.0,939.0,-522.0,-85.0,88.0,216.0,160,55,54,69,46
2025-02-27 14:54:38.767,-25.0,928.0,-602.0,-103.0,84.0,212.0,161,56,55,69,47
2025-02-27 14:54:38.771,-116.0,1009.0,-624.0,-99.0,68.0,203.0,160,55,54,70,47
2025-02-27 14:54:38.778,-4.0,684.0,-462.0,-110.0,65.0,202.0,160,55,54,63,47
2025-02-27 14:54:38.782,242.0,-139.0,-806.0,-187.0,95.0,196.0,160,54,54,65,47
2025-02-27 14:54:38.786,-236.0,1655.0,-1080.0,-96.0,26.0,169.0,160,57,55,66,47
2025-02-27 14:54:38.791,-21.0,1060.0,-521.0,-108.0,26.0,151.0,161,56,54,65,45
2025-02-27 14:54:38.799,-72.0,897.0,-548.0,-97.0,41.0,138.0,159,56,54,66,46
2025-02-27 14:54:38.803,-22.0,1045.0,-453.0,-51.0,35.0,118.0,160,56,55,68,48
2025-02-27 14:54:38.807,74.0,780.0,-400.0,-21.0,23.0,108.0,160,56,55,57,47
2025-02-27 14:54:38.811,-64.0,1165.0,-265.0,36.0,18.0,95.0,158,57,55,60,47
2025-02-27 14:54:38.815,90.0,1150.0,-236.0,44.0,35.0,79.0,160,56,56,67,48
2025-02-27 14:54:38.823,-28.0,1285.0,-274.0,71.0,41.0,52.0,163,56,57,69,48
2025-02-27 14:54:38.828,-13.0,1425.0,-61.0,72.0,39.0,23.0,160,55,56,65,46
2025-02-27 14:54:38.832,-11.0,1453.0,-98.0,81.0,59.0,9.0,158,55,58,68,48
2025-02-27 14:54:38.836,12.0,1427.0,-81.0,88.0,52.0,-16.0,161,57,55,69,48
2025-02-27 14:54:38.840,-18.0,1555.0,-47.0,75.0,61.0,-46.0,160,55,56,67,47
2025-02-27 14:54:38.848,-68.0,1597.0,-66.0,56.0,75.0,-61.0,160,58,57,68,47
2025-02-27 14:54:38.852,-215.0,1861.0,-89.0,44.0,75.0,-93.0,162,57,57,69,47
2025-02-27 14:54:38.856,-45.0,1584.0,-268.0,24.0,78.0,-122.0,160,56,55,68,47
2025-02-27 14:54:38.860,-119.0,1561.0,-315.0,18.0,71.0,-135.0,159,55,56,69,45
2025-02-27 14:54:38.865,-114.0,1452.0,-346.0,13.0,63.0,-167.0,160,56,55,68,48
2025-02-27 14:54:38.872,-91.0,1359.0,-403.0,13.0,59.0,-198.0,159,56,55,66,47
2025-02-27 14:54:38.877,-62.0,1320.0,-550.0,20.0,45.0,-218.0,159,57,56,68,48
2025-02-27 14:54:38.881,58.0,1413.0,-346.0,10.0,28.0,-249.0,159,57,56,67,49
2025-02-27 14:54:38.885,-18.0,1150.0,-446.0,14.0,35.0,-279.0,159,57,56,66,48
2025-02-27 14:54:38.893,65.0,994.0,-538.0,29.0,12.0,-296.0,158,57,59,65,48
2025-02-27 14:54:38.897,-42.0,773.0,-440.0,32.0,-3.0,-324.0,159,57,57,64,48
2025-02-27 14:54:38.901,92.0,293.0,-484.0,51.0,-14.0,-350.0,159,55,55,71,44
2025-02-27 14:54:38.905,94.0,443.0,-358.0,47.0,-33.0,-361.0,159,56,56,70,48
2025-02-27 14:54:38.909,188.0,-51.0,-196.0,110.0,-59.0,-378.0,156,57,55,72,48
2025-02-27 14:54:38.917,150.0,-350.0,-39.0,106.0,-49.0,-398.0,158,54,56,60,48
2025-02-27 14:54:38.922,237.0,-426.0,104.0,95.0,-29.0,-407.0,159,56,55,75,49
2025-02-27 14:54:38.926,599.0,-825.0,66.0,135.0,-42.0,-403.0,159,57,55,66,49
2025-02-27 14:54:38.931,383.0,-1551.0,316.0,131.0,-27.0,-388.0,159,58,55,70,49
2025-02-27 14:54:38.938,454.0,-1870.0,360.0,106.0,-24.0,-379.0,158,56,55,71,48
2025-02-27 14:54:38.942,349.0,-2144.0,504.0,98.0,-23.0,-370.0,157,57,55,67,49
2025-02-27 14:54:38.947,537.0,-2887.0,442.0,81.0,-16.0,-346.0,158,57,56,70,49
2025-02-27 14:54:38.954,416.0,-3189.0,522.0,84.0,-20.0,-320.0,158,57,55,69,49
2025-02-27 14:54:38.958,315.0,-3554.0,555.0,100.0,-25.0,-301.0,158,56,56,69,48
2025-02-27 14:54:38.963,250.0,-3710.0,774.0,108.0,-30.0,-283.0,158,57,55,71,50
2025-02-27 14:54:38.967,166.0,-4309.0,831.0,107.0,-34.0,-246.0,159,58,56,70,50
2025-02-27 14:54:38.974,282.0,-4813.0,912.0,104.0,-28.0,-208.0,158,58,55,71,49
2025-02-27 14:54:38.979,154.0,-4891.0,1083.0,84.0,-37.0,-167.0,158,57,56,71,49
2025-02-27 14:54:38.984,1.0,-4898.0,1209.0,57.0,-31.0,-148.0,157,56,56,69,49
2025-02-27 14:54:38.988,-145.0,-5106.0,1216.0,29.0,-34.0,-104.0,159,57,57,70,49
2025-02-27 14:54:38.996,-178.0,-5218.0,1263.0,14.0,-22.0,-59.0,158,58,56,71,49
2025-02-27 14:54:38.999,-198.0,-5330.0,1318.0,2.0,-24.0,-14.0,159,57,57,72,50
2025-02-27 14:54:39.003,-307.0,-5331.0,1363.0,2.0,-17.0,8.0,159,58,57,69,49
2025-02-27 14:54:39.008,-416.0,-5276.0,1307.0,16.0,-21.0,52.0,157,58,57,71,50
2025-02-27 14:54:39.016,-500.0,-5026.0,1257.0,19.0,-21.0,91.0,159,59,57,72,49
2025-02-27 14:54:39.020,-594.0,-4613.0,1244.0,24.0,-27.0,126.0,158,58,56,72,50
2025-02-27 14:54:39.024,-582.0,-4433.0,1191.0,39.0,-30.0,140.0,160,58,57,71,50
2025-02-27 14:54:39.031,-452.0,-4006.0,1232.0,56.0,-30.0,166.0,159,59,57,71,50
2025-02-27 14:54:39.036,-396.0,-3526.0,1208.0,62.0,-29.0,184.0,159,58,57,72,48
2025-02-27 14:54:39.040,-318.0,-3117.0,1141.0,64.0,-25.0,196.0,160,57,57,72,50
2025-02-27 14:54:39.044,-178.0,-2933.0,1175.0,48.0,-18.0,202.0,159,60,56,71,49
2025-02-27 14:54:39.052,-96.0,-2644.0,1135.0,29.0,-11.0,218.0,160,58,57,73,50
2025-02-27 14:54:39.057,-29.0,-2422.0,1070.0,18.0,-10.0,233.0,159,57,57,72,51
2025-02-27 14:54:39.061,-18.0,-2126.0,960.0,-8.0,-3.0,246.0,159,57,57,74,52
2025-02-27 14:54:39.065,31.0,-1943.0,817.0,-42.0,6.0,251.0,159,58,57,73,50
2025-02-27 14:54:39.073,41.0,-1714.0,818.0,-70.0,17.0,258.0,159,58,58,73,49
2025-02-27 14:54:39.078,70.0,-1397.0,664.0,-91.0,26.0,262.0,159,57,56,73,50
2025-02-27 14:54:39.082,62.0,-1372.0,540.0,-107.0,42.0,263.0,160,59,56,73,49
2025-02-27 14:54:39.085,70.0,-1133.0,470.0,-111.0,52.0,265.0,161,58,56,74,50
2025-02-27 14:54:39.090,119.0,-979.0,369.0,-112.0,59.0,266.0,160,59,54,74,49
2025-02-27 14:54:39.097,105.0,-798.0,314.0,-115.0,64.0,268.0,160,57,54,75,49
2025-02-27 14:54:39.102,101.0,-725.0,207.0,-112.0,63.0,267.0,161,55,56,75,50
2025-02-27 14:54:39.106,95.0,-567.0,210.0,-119.0,67.0,266.0,160,58,56,75,49
2025-02-27 14:54:39.110,97.0,-341.0,64.0,-108.0,61.0,266.0,161,59,55,72,48
2025-02-27 14:54:39.115,105.0,-431.0,81.0,-95.0,46.0,263.0,161,59,55,75,49
2025-02-27 14:54:39.122,102.0,-230.0,86.0,-96.0,41.0,262.0,161,60,56,70,50
2025-02-27 14:54:39.126,91.0,-101.0,71.0,-105.0,38.0,259.0,160,58,56,69,50
2025-02-27 14:54:39.131,119.0,-13.0,171.0,-124.0,45.0,255.0,160,57,56,68,49
2025-02-27 14:54:39.135,152.0,105.0,254.0,-132.0,60.0,252.0,161,58,58,67,49
2025-02-27 14:54:39.142,183.0,276.0,169.0,-160.0,60.0,249.0,161,59,56,76,49
2025-02-27 14:54:39.147,152.0,290.0,329.0,-186.0,82.0,243.0,161,59,56,78,49
2025-02-27 14:54:39.151,134.0,329.0,240.0,-223.0,84.0,243.0,161,59,57,76,49
2025-02-27 14:54:39.155,77.0,515.0,288.0,-238.0,78.0,240.0,160,59,57,75,49
2025-02-27 14:54:39.160,366.0,428.0,252.0,-261.0,78.0,239.0,161,60,57,75,49
2025-02-27 14:54:39.167,114.0,513.0,240.0,-271.0,73.0,231.0,160,63,57,73,50
2025-02-27 14:54:39.172,47.0,688.0,417.0,-276.0,84.0,224.0,160,62,57,76,51
2025-02-27 14:54:39.176,105.0,666.0,135.0,-244.0,96.0,215.0,160,61,58,75,50
2025-02-27 14:54:39.180,230.0,470.0,10.0,-162.0,83.0,213.0,161,61,60,77,51
2025-02-27 14:54:39.184,121.0,608.0,38.0,-140.0,80.0,193.0,161,64,60,76,51
2025-02-27 14:54:39.192,116.0,792.0,-43.0,-98.0,77.0,184.0,160,63,61,75,51
2025-02-27 14:54:39.196,76.0,819.0,97.0,-99.0,70.0,167.0,161,65,62,75,51
2025-02-27 14:54:39.200,140.0,899.0,-2.0,-110.0,76.0,153.0,161,66,62,75,52
