timestamp,ax,ay,az,gx,gy,gz,flex1,flex2,flex3,flex4,flex5,emg1,emg2,emg3
2025-03-17 18:55:52.226,-660.0,154.0,786.0,0.0,-3.0,0.0,111,87,142,98,118
2025-03-17 18:55:52.226,-657.0,158.0,795.0,1.0,-1.0,0.0,111,87,140,97,118
2025-03-17 18:55:52.234,-660.0,154.0,786.0,0.0,-3.0,0.0,111,87,142,98,118
2025-03-17 18:55:52.236,-657.0,158.0,795.0,1.0,-1.0,0.0,111,87,140,97,118
2025-03-17 18:55:52.238,-657.0,153.0,763.0,0.0,-2.0,-2.0,111,87,144,97,119
2025-03-17 18:55:52.240,-657.0,146.0,777.0,0.0,-1.0,-2.0,111,87,142,97,115
2025-03-17 18:55:52.243,-657.0,144.0,769.0,1.0,-1.0,-2.0,110,88,142,95,116
2025-03-17 18:55:52.243,-661.0,148.0,782.0,-1.0,0.0,-3.0,110,87,143,95,119
2025-03-17 18:55:52.243,-659.0,144.0,761.0,-2.0,-1.0,-4.0,111,86,142,95,118
2025-03-17 18:55:52.248,-652.0,125.0,764.0,0.0,-3.0,-3.0,111,88,145,95,118
2025-03-17 18:55:52.248,-645.0,137.0,785.0,-1.0,-2.0,-2.0,111,87,143,95,117
2025-03-17 18:55:52.248,-652.0,128.0,787.0,-1.0,-1.0,-2.0,112,87,142,95,117
2025-03-17 18:55:52.255,-647.0,139.0,777.0,-1.0,0.0,-1.0,111,87,142,93,118
2025-03-17 18:55:52.258,-656.0,142.0,771.0,-1.0,-1.0,-1.0,111,85,143,99,119
2025-03-17 18:55:52.260,-654.0,143.0,782.0,-2.0,-1.0,-1.0,110,87,142,99,119
2025-03-17 18:55:52.261,-659.0,148.0,778.0,-1.0,0.0,0.0,111,87,142,98,119
2025-03-17 18:55:52.285,-655.0,159.0,769.0,-3.0,0.0,-2.0,111,87,142,99,119
2025-03-17 18:55:52.311,-647.0,142.0,760.0,-1.0,-1.0,-2.0,112,87,141,99,119
2025-03-17 18:55:52.328,-656.0,148.0,767.0,1.0,-2.0,-1.0,111,87,143,99,118
2025-03-17 18:55:52.358,-658.0,159.0,772.0,-1.0,-3.0,-2.0,111,88,142,100,117
2025-03-17 18:55:52.385,-644.0,153.0,777.0,-3.0,-4.0,-2.0,111,85,142,99,119
2025-03-17 18:55:52.410,-649.0,133.0,773.0,-1.0,-3.0,-1.0,111,87,142,98,119
2025-03-17 18:55:52.435,-652.0,148.0,774.0,1.0,-2.0,0.0,111,87,143,99,118
2025-03-17 18:55:52.456,-640.0,165.0,787.0,-2.0,-3.0,0.0,111,88,143,99,118
2025-03-17 18:55:52.481,-654.0,166.0,786.0,-10.0,-10.0,-1.0,111,87,143,99,118
2025-03-17 18:55:52.505,-655.0,131.0,794.0,-1.0,-3.0,-1.0,111,87,143,99,119
2025-03-17 18:55:52.529,-655.0,145.0,740.0,-1.0,-8.0,0.0,111,88,142,99,118
2025-03-17 18:55:52.553,-645.0,158.0,820.0,-2.0,-4.0,-1.0,111,88,142,100,119
2025-03-17 18:55:52.578,-639.0,143.0,823.0,3.0,5.0,-2.0,111,86,146,99,118
2025-03-17 18:55:52.603,-638.0,138.0,763.0,6.0,5.0,0.0,112,88,142,99,118
2025-03-17 18:55:52.624,-656.0,123.0,734.0,3.0,2.0,1.0,112,87,143,99,118
2025-03-17 18:55:52.648,-650.0,145.0,775.0,6.0,-1.0,1.0,112,87,142,99,119
2025-03-17 18:55:52.672,-663.0,164.0,770.0,2.0,2.0,0.0,112,88,142,99,118
2025-03-17 18:55:52.697,-644.0,157.0,773.0,2.0,2.0,-1.0,112,87,143,101,118
2025-03-17 18:55:52.722,-655.0,143.0,773.0,0.0,0.0,-1.0,112,87,142,100,118
2025-03-17 18:55:52.746,-660.0,172.0,784.0,1.0,-4.0,-1.0,112,87,143,99,117
2025-03-17 18:55:52.771,-654.0,168.0,792.0,-4.0,-2.0,-3.0,112,88,143,99,118
2025-03-17 18:55:52.782,-646.0,144.0,814.0,0.0,3.0,-3.0,110,87,143,100,119
2025-03-17 18:55:52.813,-623.0,147.0,793.0,4.0,4.0,0.0,112,87,142,99,118
2025-03-17 18:55:52.841,-622.0,155.0,771.0,1.0,4.0,0.0,112,87,142,100,118
2025-03-17 18:55:52.862,-643.0,175.0,751.0,2.0,2.0,-1.0,110,86,141,100,118
2025-03-17 18:55:52.889,-642.0,166.0,760.0,-3.0,1.0,-1.0,112,87,141,99,118
2025-03-17 18:55:52.911,-631.0,156.0,823.0,2.0,7.0,-3.0,112,87,141,100,118
2025-03-17 18:55:52.939,-659.0,178.0,688.0,-2.0,-5.0,-2.0,111,87,143,100,118
2025-03-17 18:55:52.959,-655.0,183.0,739.0,-3.0,-9.0,-5.0,111,87,141,100,118
2025-03-17 18:55:52.984,-653.0,180.0,790.0,-8.0,-6.0,-7.0,110,86,135,99,118
2025-03-17 18:55:53.008,-644.0,140.0,798.0,-6.0,-8.0,-6.0,111,84,141,100,119
2025-03-17 18:55:53.034,-637.0,144.0,758.0,-2.0,-4.0,-6.0,110,87,141,100,119
2025-03-17 18:55:53.056,-641.0,149.0,818.0,-4.0,-2.0,-6.0,111,87,141,101,116
2025-03-17 18:55:53.080,-650.0,142.0,790.0,-6.0,-5.0,-7.0,110,86,142,99,118
2025-03-17 18:55:53.105,-649.0,138.0,801.0,-7.0,-7.0,-7.0,110,87,143,99,118
2025-03-17 18:55:53.129,-652.0,164.0,772.0,-14.0,-11.0,-9.0,111,88,142,101,118
2025-03-17 18:55:53.152,-654.0,141.0,789.0,-18.0,-12.0,-12.0,111,87,142,100,118
2025-03-17 18:55:53.177,-639.0,123.0,775.0,-19.0,-14.0,-12.0,111,87,142,99,119
2025-03-17 18:55:53.200,-623.0,106.0,826.0,-17.0,-12.0,-12.0,110,87,143,99,119
2025-03-17 18:55:53.224,-622.0,82.0,796.0,-13.0,-9.0,-8.0,110,87,142,99,118
2025-03-17 18:55:53.250,-615.0,89.0,816.0,-7.0,-7.0,-6.0,109,87,143,98,118
2025-03-17 18:55:53.274,-632.0,98.0,769.0,-3.0,-6.0,-5.0,112,87,144,99,118
2025-03-17 18:55:53.296,-627.0,82.0,767.0,-5.0,-5.0,-4.0,111,87,140,99,118
2025-03-17 18:55:53.320,-619.0,71.0,764.0,-3.0,-6.0,-4.0,111,87,143,99,119
2025-03-17 18:55:53.344,-622.0,46.0,768.0,-1.0,-6.0,-2.0,111,90,142,102,119
2025-03-17 18:55:53.369,-633.0,69.0,796.0,0.0,-10.0,-1.0,111,87,147,99,118
2025-03-17 18:55:53.393,-641.0,73.0,802.0,-2.0,-12.0,-3.0,111,87,141,99,119
2025-03-17 18:55:53.418,-625.0,66.0,848.0,-3.0,-11.0,-2.0,109,87,142,98,118
2025-03-17 18:55:53.443,-623.0,98.0,877.0,-3.0,-13.0,-2.0,111,87,142,99,119
2025-03-17 18:55:53.467,-622.0,108.0,872.0,-5.0,-2.0,-3.0,110,87,142,100,118
2025-03-17 18:55:53.487,-605.0,103.0,859.0,-4.0,-1.0,-2.0,112,91,142,97,118
2025-03-17 18:55:53.512,-607.0,95.0,893.0,-4.0,3.0,-1.0,111,87,143,100,118
2025-03-17 18:55:53.537,-608.0,96.0,802.0,-4.0,2.0,-2.0,111,90,142,98,118
2025-03-17 18:55:53.559,-577.0,88.0,899.0,-6.0,9.0,0.0,111,87,143,100,118
2025-03-17 18:55:53.583,-618.0,84.0,837.0,-5.0,6.0,2.0,110,87,143,101,118
2025-03-17 18:55:53.608,-623.0,120.0,772.0,-1.0,2.0,-2.0,106,87,143,100,118
2025-03-17 18:55:53.632,-629.0,98.0,796.0,-8.0,1.0,-5.0,115,86,143,100,117
2025-03-17 18:55:53.656,-600.0,55.0,823.0,-5.0,4.0,-4.0,111,87,143,99,118
2025-03-17 18:55:53.680,-614.0,60.0,753.0,-2.0,3.0,0.0,113,87,142,100,118
2025-03-17 18:55:53.705,-627.0,123.0,825.0,-3.0,-1.0,-2.0,110,87,143,101,117
2025-03-17 18:55:53.730,-612.0,85.0,848.0,-8.0,1.0,-3.0,111,87,144,100,119
2025-03-17 18:55:53.754,-611.0,67.0,815.0,-7.0,-2.0,-2.0,112,87,144,100,118
2025-03-17 18:55:53.778,-614.0,89.0,832.0,-4.0,0.0,-1.0,111,87,145,102,118
2025-03-17 18:55:53.803,-609.0,80.0,811.0,-5.0,4.0,-1.0,108,87,142,102,118
2025-03-17 18:55:53.824,-617.0,73.0,803.0,-2.0,-2.0,-2.0,111,82,143,100,118
2025-03-17 18:55:53.848,-616.0,68.0,837.0,-5.0,0.0,-2.0,111,86,142,103,118
2025-03-17 18:55:53.873,-627.0,46.0,807.0,-1.0,-2.0,-3.0,111,86,143,101,119
2025-03-17 18:55:53.898,-621.0,78.0,801.0,-3.0,-4.0,-4.0,111,87,143,102,118
2025-03-17 18:55:53.922,-625.0,63.0,772.0,-8.0,-6.0,-6.0,111,86,142,100,118
2025-03-17 18:55:53.946,-624.0,27.0,782.0,-11.0,-7.0,-8.0,111,87,143,101,119
2025-03-17 18:55:53.971,-603.0,41.0,876.0,-9.0,-6.0,-5.0,113,87,143,100,119
2025-03-17 18:55:53.982,-625.0,21.0,864.0,-8.0,-4.0,-6.0,111,86,143,100,119
2025-03-17 18:55:54.017,-600.0,1.0,877.0,-11.0,4.0,-6.0,109,88,143,98,118
2025-03-17 18:55:54.041,-617.0,-1.0,826.0,-3.0,4.0,1.0,110,86,143,102,119
2025-03-17 18:55:54.065,-609.0,43.0,828.0,-4.0,5.0,0.0,111,87,142,101,118
2025-03-17 18:55:54.090,-605.0,14.0,843.0,-3.0,7.0,2.0,111,86,143,101,117
2025-03-17 18:55:54.112,-617.0,33.0,806.0,2.0,6.0,5.0,110,86,143,99,119
2025-03-17 18:55:54.139,-633.0,30.0,775.0,1.0,3.0,7.0,111,87,143,100,119
2025-03-17 18:55:54.160,-617.0,29.0,793.0,13.0,-1.0,11.0,109,87,142,100,119
2025-03-17 18:55:54.184,-629.0,57.0,809.0,14.0,-1.0,11.0,110,87,146,100,119
2025-03-17 18:55:54.209,-633.0,68.0,819.0,13.0,-3.0,12.0,108,87,144,100,119
2025-03-17 18:55:54.233,-624.0,92.0,826.0,15.0,-2.0,13.0,107,85,142,100,118
2025-03-17 18:55:54.257,-630.0,115.0,825.0,17.0,-2.0,11.0,106,88,143,100,118
2025-03-17 18:55:54.280,-626.0,120.0,820.0,10.0,-2.0,8.0,110,86,143,100,118
2025-03-17 18:55:54.307,-625.0,126.0,787.0,5.0,0.0,7.0,110,87,143,100,119
2025-03-17 18:55:54.328,-629.0,119.0,802.0,4.0,-3.0,8.0,110,88,143,100,119
2025-03-17 18:55:54.352,-627.0,115.0,811.0,4.0,-4.0,6.0,110,87,142,100,120
2025-03-17 18:55:54.378,-613.0,113.0,819.0,6.0,-1.0,6.0,109,88,143,101,119
2025-03-17 18:55:54.401,-630.0,140.0,810.0,7.0,-2.0,1.0,111,87,141,101,119
2025-03-17 18:55:54.426,-625.0,130.0,792.0,-1.0,-5.0,-3.0,109,87,143,100,119
2025-03-17 18:55:54.450,-616.0,93.0,822.0,-6.0,-8.0,-5.0,110,87,143,100,117
2025-03-17 18:55:54.475,-608.0,79.0,859.0,-5.0,-8.0,-4.0,107,86,141,100,119
2025-03-17 18:55:54.496,-587.0,100.0,838.0,-2.0,-2.0,-4.0,109,87,142,100,119
2025-03-17 18:55:54.521,-593.0,84.0,837.0,-6.0,1.0,-3.0,107,88,143,100,119
2025-03-17 18:55:54.544,-608.0,71.0,816.0,-3.0,-4.0,0.0,109,88,143,99,119
2025-03-17 18:55:54.569,-604.0,85.0,847.0,2.0,-4.0,3.0,105,87,143,99,120
2025-03-17 18:55:54.593,-608.0,110.0,859.0,1.0,0.0,5.0,103,87,142,99,119
2025-03-17 18:55:54.613,-608.0,112.0,881.0,4.0,3.0,7.0,107,88,144,100,119
2025-03-17 18:55:54.642,-635.0,119.0,821.0,8.0,4.0,8.0,107,87,142,101,121
2025-03-17 18:55:54.664,-632.0,136.0,797.0,6.0,5.0,6.0,104,87,141,101,120
2025-03-17 18:55:54.689,-625.0,109.0,799.0,0.0,5.0,2.0,109,88,141,101,120
2025-03-17 18:55:54.710,-635.0,117.0,776.0,6.0,4.0,4.0,107,88,143,102,120
2025-03-17 18:55:54.736,-651.0,142.0,772.0,2.0,3.0,0.0,107,87,142,101,113
2025-03-17 18:55:54.762,-628.0,105.0,775.0,-6.0,4.0,-3.0,107,86,143,100,120
2025-03-17 18:55:54.784,-617.0,103.0,773.0,-7.0,6.0,-5.0,110,88,143,102,121
2025-03-17 18:55:54.810,-623.0,100.0,757.0,-9.0,6.0,-6.0,110,87,143,101,121
2025-03-17 18:55:54.832,-631.0,95.0,756.0,-8.0,2.0,-5.0,109,87,143,101,120
2025-03-17 18:55:54.857,-623.0,110.0,780.0,-10.0,-2.0,-6.0,108,88,142,101,120
2025-03-17 18:55:54.866,-626.0,88.0,811.0,-5.0,-3.0,-4.0,108,87,144,101,120
2025-03-17 18:55:54.905,-629.0,98.0,808.0,-1.0,-5.0,-1.0,109,87,143,101,119
2025-03-17 18:55:54.929,-636.0,114.0,819.0,0.0,-2.0,0.0,107,87,143,100,120
2025-03-17 18:55:54.954,-634.0,105.0,830.0,-2.0,0.0,0.0,106,88,142,101,118
2025-03-17 18:55:54.978,-635.0,109.0,824.0,4.0,-3.0,1.0,107,85,143,102,120
2025-03-17 18:55:55.003,-627.0,130.0,835.0,6.0,-1.0,1.0,106,87,143,101,121
2025-03-17 18:55:55.024,-628.0,125.0,833.0,3.0,0.0,-1.0,105,86,141,100,120
2025-03-17 18:55:55.048,-622.0,116.0,841.0,3.0,4.0,-3.0,102,87,143,98,121
2025-03-17 18:55:55.073,-618.0,115.0,795.0,2.0,5.0,-4.0,107,87,143,101,128
2025-03-17 18:55:55.097,-614.0,105.0,784.0,1.0,4.0,-5.0,104,87,131,101,120
2025-03-17 18:55:55.122,-621.0,94.0,786.0,-1.0,3.0,-5.0,106,87,143,101,122
2025-03-17 18:55:55.146,-621.0,96.0,788.0,-1.0,0.0,-4.0,106,88,143,103,121
2025-03-17 18:55:55.168,-611.0,93.0,803.0,0.0,1.0,-3.0,107,87,143,102,120
2025-03-17 18:55:55.193,-620.0,96.0,795.0,1.0,1.0,-2.0,105,88,143,101,120
2025-03-17 18:55:55.217,-627.0,104.0,794.0,1.0,-1.0,-1.0,109,87,142,102,120
2025-03-17 18:55:55.242,-623.0,113.0,799.0,0.0,-3.0,-1.0,109,87,142,100,121
2025-03-17 18:55:55.265,-625.0,120.0,799.0,0.0,-2.0,0.0,110,90,143,101,124
2025-03-17 18:55:55.290,-637.0,126.0,790.0,-1.0,-1.0,-1.0,110,87,143,101,121
2025-03-17 18:55:55.314,-635.0,120.0,808.0,-1.0,-2.0,-1.0,111,89,143,101,119
2025-03-17 18:55:55.339,-634.0,117.0,803.0,1.0,-1.0,0.0,110,87,142,101,120
2025-03-17 18:55:55.361,-634.0,120.0,787.0,0.0,-1.0,-1.0,111,87,143,101,121
2025-03-17 18:55:55.385,-622.0,125.0,806.0,0.0,-2.0,-2.0,111,89,143,99,121
2025-03-17 18:55:55.410,-626.0,117.0,805.0,-1.0,-1.0,-2.0,112,88,142,100,120
2025-03-17 18:55:55.434,-615.0,129.0,814.0,-3.0,1.0,-3.0,111,87,143,99,120
2025-03-17 18:55:55.458,-625.0,107.0,795.0,-1.0,1.0,-1.0,114,87,143,101,122
2025-03-17 18:55:55.481,-618.0,133.0,789.0,-1.0,0.0,-2.0,111,87,141,98,121
2025-03-17 18:55:55.507,-618.0,129.0,804.0,-3.0,0.0,-3.0,113,85,142,101,117
2025-03-17 18:55:55.528,-621.0,118.0,788.0,-6.0,-2.0,-4.0,112,87,139,104,120
2025-03-17 18:55:55.552,-620.0,105.0,767.0,-7.0,-3.0,-4.0,112,87,143,102,121
2025-03-17 18:55:55.563,-625.0,99.0,781.0,-4.0,-3.0,-3.0,112,88,143,102,120
2025-03-17 18:55:55.601,-630.0,90.0,783.0,-3.0,-5.0,-3.0,115,87,142,107,120
2025-03-17 18:55:55.626,-639.0,89.0,798.0,-3.0,-6.0,-2.0,113,87,144,102,121
2025-03-17 18:55:55.650,-641.0,101.0,820.0,0.0,-6.0,0.0,112,87,143,102,121
2025-03-17 18:55:55.675,-636.0,126.0,850.0,0.0,-5.0,0.0,112,86,142,101,121
2025-03-17 18:55:55.696,-628.0,115.0,861.0,-1.0,-5.0,-1.0,114,87,143,101,120
2025-03-17 18:55:55.720,-620.0,101.0,889.0,-3.0,0.0,-2.0,113,87,142,100,121
2025-03-17 18:55:55.745,-616.0,77.0,864.0,0.0,3.0,1.0,113,87,139,103,118
2025-03-17 18:55:55.769,-633.0,105.0,866.0,-1.0,5.0,-1.0,112,87,143,102,120
2025-03-17 18:55:55.794,-636.0,85.0,839.0,-6.0,5.0,0.0,112,87,142,102,120
2025-03-17 18:55:55.812,-626.0,100.0,822.0,-8.0,6.0,0.0,115,87,143,102,121
2025-03-17 18:55:55.843,-626.0,82.0,805.0,-6.0,7.0,1.0,114,87,144,100,121
2025-03-17 18:55:55.860,-619.0,86.0,791.0,-4.0,6.0,2.0,112,85,143,101,119
2025-03-17 18:55:55.888,-625.0,106.0,790.0,-3.0,4.0,3.0,113,86,142,98,120
2025-03-17 18:55:55.913,-610.0,122.0,784.0,-7.0,4.0,0.0,114,87,143,101,123
2025-03-17 18:55:55.934,-606.0,106.0,758.0,-9.0,5.0,0.0,116,86,142,100,120
2025-03-17 18:55:55.959,-609.0,128.0,731.0,-9.0,3.0,0.0,114,87,141,101,120
2025-03-17 18:55:55.987,-638.0,258.0,636.0,-21.0,4.0,-11.0,113,87,144,102,120
2025-03-17 18:55:56.011,-616.0,448.0,436.0,-55.0,18.0,-32.0,103,86,143,100,120
2025-03-17 18:55:56.035,-661.0,634.0,362.0,-139.0,39.0,-82.0,114,84,143,100,119
2025-03-17 18:55:56.057,-575.0,412.0,132.0,-249.0,-30.0,-141.0,113,74,141,58,111
2025-03-17 18:55:56.066,-660.0,-72.0,545.0,-287.0,-97.0,-170.0,114,58,129,54,80
2025-03-17 18:55:56.105,-387.0,-621.0,1191.0,-413.0,-119.0,-218.0,119,47,119,27,58
2025-03-17 18:55:56.128,159.0,-2801.0,1892.0,-418.0,-68.0,-91.0,119,42,103,45,45
2025-03-17 18:55:56.153,531.0,-3259.0,3521.0,-150.0,223.0,174.0,109,35,100,48,42
2025-03-17 18:55:56.178,-281.0,-1578.0,1407.0,-51.0,304.0,253.0,114,33,96,47,43
2025-03-17 18:55:56.201,-924.0,-1078.0,795.0,-191.0,190.0,240.0,111,33,95,64,44
2025-03-17 18:55:56.224,-299.0,-777.0,829.0,-157.0,216.0,265.0,114,33,81,67,39
2025-03-17 18:55:56.249,-447.0,-293.0,470.0,-66.0,257.0,273.0,112,29,86,66,38
2025-03-17 18:55:56.273,-477.0,218.0,-122.0,-47.0,239.0,261.0,111,30,94,65,42
2025-03-17 18:55:56.298,-369.0,526.0,-223.0,-12.0,224.0,242.0,114,34,94,66,41
2025-03-17 18:55:56.322,-410.0,867.0,-636.0,19.0,197.0,210.0,112,33,95,66,44
2025-03-17 18:55:56.347,-409.0,1080.0,-741.0,8.0,132.0,160.0,113,33,96,66,46
2025-03-17 18:55:56.371,-246.0,1221.0,-669.0,20.0,53.0,111.0,115,31,92,64,46
2025-03-17 18:55:56.389,-8.0,1709.0,-1403.0,63.0,-37.0,66.0,115,33,95,65,49
2025-03-17 18:55:56.417,-14.0,2877.0,-2450.0,22.0,-236.0,-96.0,116,36,94,62,42
2025-03-17 18:55:56.441,767.0,4871.0,-2782.0,-112.0,-486.0,-601.0,114,31,88,60,40
2025-03-17 18:55:56.466,2733.0,5406.0,-3125.0,-320.0,-811.0,-1320.0,111,26,60,56,36
2025-03-17 18:55:56.490,9409.0,649.0,-426.0,-461.0,-936.0,-1648.0,96,29,80,56,39
2025-03-17 18:55:56.515,10984.0,-8258.0,2822.0,-437.0,-214.0,-376.0,106,37,83,58,43
2025-03-17 18:55:56.539,4048.0,-8201.0,-653.0,420.0,269.0,159.0,96,27,80,61,53
2025-03-17 18:55:56.561,918.0,-2518.0,-51.0,2.0,78.0,395.0,112,30,74,62,54
2025-03-17 18:55:56.584,1012.0,-2311.0,1348.0,89.0,107.0,473.0,108,25,96,63,54
2025-03-17 18:55:56.607,43.0,-721.0,766.0,86.0,234.0,528.0,107,35,61,64,52
2025-03-17 18:55:56.623,-268.0,-62.0,491.0,29.0,193.0,431.0,117,34,91,66,52
2025-03-17 18:55:56.658,-304.0,303.0,127.0,-4.0,210.0,298.0,118,33,98,68,50
2025-03-17 18:55:56.682,-254.0,-68.0,294.0,8.0,202.0,250.0,118,37,103,68,49
2025-03-17 18:55:56.704,-411.0,-143.0,-69.0,10.0,192.0,236.0,118,38,84,67,45
2025-03-17 18:55:56.721,-362.0,-1.0,155.0,43.0,146.0,238.0,118,34,85,69,50
2025-03-17 18:55:56.753,-341.0,104.0,81.0,73.0,163.0,244.0,121,35,98,70,52
2025-03-17 18:55:56.777,-347.0,159.0,-94.0,110.0,158.0,292.0,123,38,98,67,55
2025-03-17 18:55:56.801,-167.0,661.0,-484.0,182.0,128.0,327.0,125,26,92,67,54
2025-03-17 18:55:56.826,-197.0,2114.0,-1444.0,237.0,26.0,232.0,123,35,100,67,54
2025-03-17 18:55:56.851,-650.0,3911.0,-2744.0,68.0,-189.0,-222.0,129,39,99,66,49
2025-03-17 18:55:56.875,242.0,4330.0,-3073.0,-144.0,-473.0,-810.0,129,34,98,65,46
2025-03-17 18:55:56.899,2650.0,1107.0,-2940.0,-266.0,-872.0,-1257.0,127,34,70,70,47
2025-03-17 18:55:56.921,8312.0,-3631.0,5994.0,-292.0,-671.0,-518.0,128,32,72,67,46
2025-03-17 18:55:56.945,2589.0,-8939.0,1530.0,238.0,310.0,2.0,112,33,79,71,50
2025-03-17 18:55:56.970,185.0,-3441.0,-1703.0,-252.0,18.0,188.0,128,25,87,69,48
2025-03-17 18:55:56.981,48.0,-2380.0,1026.0,-90.0,66.0,274.0,128,27,99,73,49
2025-03-17 18:55:57.018,-491.0,-907.0,588.0,-16.0,157.0,322.0,129,33,91,72,50
2025-03-17 18:55:57.043,-921.0,722.0,-250.0,-118.0,125.0,202.0,129,28,85,74,50
2025-03-17 18:55:57.064,-522.0,-53.0,191.0,-150.0,89.0,106.0,128,40,101,73,50
2025-03-17 18:55:57.086,-186.0,-871.0,315.0,-50.0,103.0,142.0,121,39,103,70,46
2025-03-17 18:55:57.113,-371.0,-646.0,-3.0,-27.0,120.0,193.0,126,37,84,71,49
2025-03-17 18:55:57.138,-415.0,-247.0,21.0,2.0,54.0,217.0,125,38,98,74,52
2025-03-17 18:55:57.162,-355.0,-312.0,117.0,30.0,91.0,236.0,125,37,103,74,55
2025-03-17 18:55:57.183,-348.0,-412.0,199.0,94.0,118.0,290.0,122,36,90,69,58
2025-03-17 18:55:57.200,-346.0,89.0,38.0,118.0,125.0,391.0,125,39,95,74,60
2025-03-17 18:55:57.235,-430.0,2197.0,-503.0,165.0,73.0,317.0,125,30,101,72,49
2025-03-17 18:55:57.257,-935.0,5636.0,-3024.0,-16.0,-130.0,-301.0,125,36,100,64,45
2025-03-17 18:55:57.280,-210.0,4777.0,-3704.0,-127.0,-510.0,-985.0,124,36,91,61,38
2025-03-17 18:55:57.304,4506.0,2546.0,-2042.0,-172.0,-959.0,-1210.0,135,31,98,60,39
2025-03-17 18:55:57.326,8484.0,-4323.0,3000.0,-607.0,-734.0,-618.0,133,35,65,64,44
2025-03-17 18:55:57.354,3655.0,-8605.0,358.0,284.0,198.0,-42.0,141,37,100,70,51
2025-03-17 18:55:57.377,1109.0,-1882.0,-666.0,113.0,158.0,131.0,145,43,98,69,52
2025-03-17 18:55:57.393,193.0,-1934.0,1554.0,-38.0,-6.0,123.0,145,46,97,73,55
2025-03-17 18:55:57.425,324.0,-107.0,2703.0,126.0,77.0,207.0,146,46,83,75,57
2025-03-17 18:55:57.449,267.0,-2114.0,-1115.0,90.0,177.0,257.0,145,45,86,75,56
2025-03-17 18:55:57.474,100.0,-737.0,526.0,28.0,170.0,268.0,141,44,84,77,56
2025-03-17 18:55:57.498,241.0,-615.0,401.0,47.0,203.0,269.0,139,42,94,73,55
2025-03-17 18:55:57.522,-38.0,-626.0,163.0,49.0,203.0,282.0,141,40,91,75,53
2025-03-17 18:55:57.546,-82.0,-440.0,232.0,37.0,178.0,321.0,139,42,91,74,54
2025-03-17 18:55:57.571,98.0,-380.0,376.0,84.0,226.0,335.0,141,42,104,79,56
2025-03-17 18:55:57.592,-59.0,-158.0,224.0,101.0,235.0,393.0,139,44,95,80,50
2025-03-17 18:55:57.617,-89.0,281.0,-372.0,174.0,197.0,454.0,138,45,91,80,57
2025-03-17 18:55:57.636,-83.0,1417.0,-773.0,180.0,51.0,404.0,135,41,102,79,57
2025-03-17 18:55:57.665,-783.0,2913.0,-1474.0,184.0,-17.0,157.0,134,44,101,79,55
2025-03-17 18:55:57.690,-822.0,4020.0,-2033.0,16.0,-187.0,-368.0,128,37,87,73,49
2025-03-17 18:55:57.714,-197.0,3142.0,-2223.0,-122.0,-457.0,-894.0,127,26,96,73,49
2025-03-17 18:55:57.739,3083.0,3208.0,-2988.0,-355.0,-1094.0,-1246.0,132,41,91,69,50
2025-03-17 18:55:57.764,9328.0,-2793.0,-8.0,-880.0,-1144.0,-854.0,135,37,81,72,50
2025-03-17 18:55:57.785,7010.0,-11198.0,1215.0,-102.0,273.0,-58.0,156,63,124,99,82
2025-03-17 18:55:57.809,1153.0,-2226.0,-4308.0,176.0,139.0,261.0,162,67,114,104,87
2025-03-17 18:55:57.834,967.0,-2321.0,1391.0,-74.0,-45.0,173.0,166,59,123,107,88
2025-03-17 18:55:57.856,1059.0,-2260.0,926.0,183.0,148.0,320.0,163,74,126,107,88
2025-03-17 18:55:57.883,193.0,-1228.0,497.0,162.0,220.0,410.0,143,55,93,91,68
2025-03-17 18:55:57.907,114.0,-119.0,625.0,114.0,264.0,390.0,132,42,96,87,62
2025-03-17 18:55:57.928,77.0,-748.0,241.0,178.0,308.0,414.0,135,48,105,89,62
2025-03-17 18:55:57.953,639.0,-886.0,-241.0,262.0,256.0,432.0,137,50,122,58,87
2025-03-17 18:55:57.978,316.0,-84.0,162.0,187.0,255.0,496.0,123,41,119,3,97
2025-03-17 18:55:58.002,-45.0,371.0,-423.0,184.0,272.0,480.0,120,38,123,4,90
2025-03-17 18:55:58.027,-427.0,741.0,-895.0,322.0,144.0,415.0,118,56,137,5,107
2025-03-17 18:55:58.051,-420.0,952.0,-365.0,256.0,65.0,329.0,116,66,131,4,111
2025-03-17 18:55:58.075,-294.0,1922.0,-1760.0,114.0,-12.0,134.0,115,71,143,41,113
2025-03-17 18:55:58.100,-725.0,2720.0,-2421.0,-113.0,-240.0,-239.0,111,76,142,95,107
2025-03-17 18:55:58.121,-694.0,2622.0,-3113.0,-273.0,-431.0,-775.0,112,82,143,90,114
2025-03-17 18:55:58.145,263.0,2701.0,-2048.0,-437.0,-582.0,-1123.0,117,86,134,94,118
2025-03-17 18:55:58.169,8290.0,878.0,1431.0,-784.0,-593.0,-1367.0,124,83,134,99,112
2025-03-17 18:55:58.194,5353.0,-6023.0,186.0,-295.0,-257.0,-589.0,123,53,114,94,121
2025-03-17 18:55:58.219,4761.0,-7146.0,73.0,405.0,101.0,448.0,124,19,138,90,124
2025-03-17 18:55:58.243,336.0,-1483.0,194.0,275.0,353.0,514.0,128,60,145,85,126
2025-03-17 18:55:58.264,-478.0,-797.0,268.0,-77.0,69.0,364.0,129,84,146,90,126
2025-03-17 18:55:58.288,-423.0,-614.0,418.0,28.0,77.0,198.0,128,88,146,104,125
2025-03-17 18:55:58.310,-152.0,-984.0,649.0,-52.0,132.0,254.0,127,107,145,101,124
2025-03-17 18:55:58.337,-158.0,-639.0,271.0,48.0,193.0,303.0,129,103,145,105,123
2025-03-17 18:55:58.362,40.0,-292.0,267.0,111.0,160.0,333.0,129,105,144,106,123
2025-03-17 18:55:58.387,-233.0,-143.0,-114.0,65.0,137.0,317.0,126,108,147,106,122
2025-03-17 18:55:58.411,-378.0,-206.0,-321.0,105.0,152.0,320.0,126,82,148,106,123
2025-03-17 18:55:58.436,-257.0,38.0,-124.0,137.0,84.0,310.0,124,97,147,106,123
2025-03-17 18:55:58.455,-347.0,366.0,-56.0,167.0,82.0,290.0,124,98,146,106,123
2025-03-17 18:55:58.472,-402.0,623.0,-360.0,168.0,120.0,261.0,120,91,146,107,122
2025-03-17 18:55:58.504,-351.0,1466.0,-1396.0,137.0,-118.0,176.0,117,97,149,105,122
2025-03-17 18:55:58.521,-1041.0,2172.0,-1681.0,13.0,-187.0,-127.0,116,91,146,103,122
2025-03-17 18:55:58.554,-1209.0,2495.0,-1672.0,-163.0,-378.0,-709.0,115,99,145,105,123
2025-03-17 18:55:58.579,834.0,2402.0,-2172.0,-305.0,-568.0,-1149.0,117,99,147,107,126
2025-03-17 18:55:58.601,6492.0,-713.0,2919.0,-581.0,-898.0,-1156.0,122,66,146,106,118
2025-03-17 18:55:58.617,5479.0,-5806.0,-586.0,-487.0,-486.0,-428.0,123,92,147,84,126
2025-03-17 18:55:58.653,3830.0,-5090.0,1527.0,360.0,80.0,313.0,205,134,227,144,210
2025-03-17 18:55:58.677,426.0,-1049.0,790.0,209.0,402.0,334.0,171,102,191,128,173
2025-03-17 18:55:58.702,-22.0,-1027.0,820.0,18.0,160.0,273.0,167,146,185,149,166
2025-03-17 18:55:58.727,-37.0,-1665.0,850.0,60.0,162.0,315.0,124,109,152,117,130
2025-03-17 18:55:58.747,40.0,-860.0,491.0,40.0,247.0,392.0,119,104,151,114,126
2025-03-17 18:55:58.772,59.0,-213.0,-145.0,183.0,318.0,366.0,132,100,155,119,127
2025-03-17 18:55:58.796,-229.0,-206.0,-47.0,-47.0,191.0,278.0,143,91,162,123,130
2025-03-17 18:55:58.821,-387.0,-75.0,36.0,-33.0,153.0,224.0,138,86,164,114,122
2025-03-17 18:55:58.845,-433.0,-353.0,206.0,-26.0,131.0,221.0,155,92,172,112,131
2025-03-17 18:55:58.869,-478.0,-259.0,106.0,62.0,133.0,233.0,152,82,165,102,116
2025-03-17 18:55:58.894,-654.0,-246.0,-134.0,122.0,99.0,269.0,143,66,156,70,107
2025-03-17 18:55:58.916,-572.0,71.0,133.0,107.0,45.0,303.0,128,38,132,6,71
2025-03-17 18:55:58.940,-487.0,1101.0,-618.0,147.0,27.0,202.0,127,40,117,8,39
2025-03-17 18:55:58.964,-1155.0,3033.0,-1562.0,53.0,10.0,-131.0,124,34,108,4,16
2025-03-17 18:55:58.987,277.0,4130.0,-3594.0,-117.0,-368.0,-756.0,125,23,104,8,9
2025-03-17 18:55:59.013,1521.0,2965.0,-2608.0,-252.0,-750.0,-1202.0,132,41,104,14,29
2025-03-17 18:55:59.038,7503.0,-123.0,-2308.0,-623.0,-1207.0,-1125.0,140,41,79,15,48
2025-03-17 18:55:59.062,8274.0,-7118.0,2267.0,-745.0,-335.0,-345.0,155,73,140,43,77
2025-03-17 18:55:59.085,3043.0,-5959.0,-1222.0,631.0,482.0,178.0,155,60,125,27,73
2025-03-17 18:55:59.108,-923.0,473.0,-324.0,27.0,53.0,226.0,164,64,127,73,78
2025-03-17 18:55:59.133,357.0,-2954.0,1971.0,45.0,7.0,212.0,142,45,108,61,53
2025-03-17 18:55:59.157,219.0,-1662.0,939.0,87.0,186.0,277.0,143,43,74,65,55
2025-03-17 18:55:59.181,207.0,-1475.0,118.0,227.0,198.0,349.0,149,48,99,72,61
2025-03-17 18:55:59.193,198.0,-590.0,407.0,158.0,234.0,331.0,152,52,104,71,65
2025-03-17 18:55:59.230,284.0,-483.0,480.0,143.0,265.0,336.0,153,53,98,75,66
2025-03-17 18:55:59.252,-367.0,-493.0,-821.0,142.0,190.0,341.0,157,51,107,80,70
2025-03-17 18:55:59.276,-230.0,39.0,1037.0,155.0,173.0,322.0,156,61,119,87,73
2025-03-17 18:55:59.300,-330.0,197.0,542.0,62.0,144.0,221.0,155,58,117,81,73
2025-03-17 18:55:59.325,-734.0,7.0,123.0,-10.0,128.0,160.0,142,33,106,75,59
2025-03-17 18:55:59.346,-830.0,-100.0,131.0,16.0,79.0,166.0,141,41,103,79,60
2025-03-17 18:55:59.373,-572.0,206.0,286.0,39.0,85.0,167.0,140,45,117,81,54
2025-03-17 18:55:59.398,-665.0,1176.0,-380.0,94.0,89.0,109.0,140,40,112,71,56
2025-03-17 18:55:59.423,-872.0,2681.0,-1551.0,87.0,-14.0,-105.0,143,59,129,77,66
2025-03-17 18:55:59.444,-943.0,3790.0,-2662.0,35.0,-284.0,-552.0,149,58,119,60,68
2025-03-17 18:55:59.468,618.0,3762.0,-2963.0,-221.0,-677.0,-1013.0,142,36,116,70,57
2025-03-17 18:55:59.493,5250.0,391.0,-1527.0,-551.0,-1019.0,-1062.0,146,49,81,27,58
2025-03-17 18:55:59.518,7313.0,-7022.0,1310.0,-499.0,-545.0,-466.0,168,69,123,78,77
2025-03-17 18:55:59.540,4086.0,-6238.0,-9.0,436.0,294.0,86.0,150,50,78,70,61
2025-03-17 18:55:59.566,406.0,-346.0,-1030.0,58.0,153.0,177.0,150,36,113,82,63
2025-03-17 18:55:59.588,-62.0,-1397.0,945.0,-83.0,-18.0,100.0,146,52,116,86,62
2025-03-17 18:55:59.612,543.0,-1677.0,863.0,18.0,165.0,168.0,152,55,117,85,66
2025-03-17 18:55:59.636,18.0,-981.0,492.0,59.0,172.0,187.0,152,55,103,85,67
2025-03-17 18:55:59.661,43.0,-641.0,104.0,-26.0,121.0,167.0,179,83,124,115,94
2025-03-17 18:55:59.685,227.0,-954.0,268.0,-63.0,131.0,200.0,175,81,127,117,95
2025-03-17 18:55:59.710,532.0,-928.0,505.0,-49.0,211.0,228.0,176,74,143,120,90
2025-03-17 18:55:59.734,149.0,-1066.0,673.0,74.0,241.0,278.0,164,71,139,102,79
2025-03-17 18:55:59.745,-61.0,-692.0,15.0,157.0,252.0,311.0,157,66,122,90,78
2025-03-17 18:55:59.777,228.0,-220.0,-134.0,209.0,267.0,351.0,135,55,117,80,77
2025-03-17 18:55:59.804,-196.0,-265.0,-92.0,152.0,210.0,354.0,136,63,136,65,76
2025-03-17 18:55:59.829,-304.0,10.0,-297.0,209.0,201.0,395.0,145,68,136,43,72
2025-03-17 18:55:59.853,-240.0,1165.0,-1234.0,256.0,168.0,397.0,153,86,153,27,61
2025-03-17 18:55:59.877,-1145.0,2854.0,-2178.0,183.0,-45.0,105.0,152,95,159,27,49
2025-03-17 18:55:59.902,-1046.0,3559.0,-2806.0,-5.0,-489.0,-521.0,147,113,144,35,73
2025-03-17 18:55:59.927,361.0,2103.0,-2498.0,-106.0,-937.0,-852.0,129,106,144,24,65
2025-03-17 18:55:59.946,4719.0,-138.0,-381.0,-220.0,-1203.0,-856.0,110,104,96,5,55
2025-03-17 18:55:59.963,5330.0,-3792.0,3306.0,-134.0,-503.0,-234.0,120,67,157,59,75
2025-03-17 18:55:59.996,4322.0,-4440.0,2386.0,188.0,203.0,185.0,114,8,134,53,81
2025-03-17 18:56:00.021,2.0,-661.0,1445.0,122.0,257.0,183.0,131,26,165,76,89
2025-03-17 18:56:00.045,-101.0,-1267.0,878.0,-142.0,177.0,196.0,130,67,163,86,79
2025-03-17 18:56:00.070,50.0,-714.0,1565.0,14.0,308.0,225.0,144,126,165,86,89
2025-03-17 18:56:00.095,-243.0,-337.0,671.0,-1.0,351.0,242.0,141,123,127,90,93
2025-03-17 18:56:00.116,-399.0,-85.0,44.0,-143.0,242.0,191.0,147,118,110,87,88
2025-03-17 18:56:00.140,-291.0,-804.0,326.0,-92.0,169.0,165.0,134,117,144,63,75
2025-03-17 18:56:00.164,-267.0,-705.0,446.0,56.0,167.0,181.0,134,119,152,73,79
2025-03-17 18:56:00.189,-344.0,-303.0,324.0,64.0,169.0,207.0,134,111,156,70,75
2025-03-17 18:56:00.213,-465.0,-287.0,237.0,74.0,155.0,207.0,136,112,156,82,76
2025-03-17 18:56:00.237,-490.0,-74.0,79.0,94.0,144.0,215.0,144,104,163,73,79
2025-03-17 18:56:00.254,-439.0,453.0,-82.0,113.0,143.0,229.0,146,102,156,71,76
2025-03-17 18:56:00.284,-768.0,1664.0,-849.0,65.0,75.0,114.0,148,118,154,77,76
2025-03-17 18:56:00.308,-1194.0,2423.0,-2254.0,-17.0,-208.0,-200.0,140,129,163,78,75
2025-03-17 18:56:00.333,-1025.0,3689.0,-2692.0,-92.0,-607.0,-612.0,142,125,163,55,73
2025-03-17 18:56:00.357,2898.0,1929.0,-1623.0,-208.0,-1073.0,-931.0,128,106,149,36,71
2025-03-17 18:56:00.381,5464.0,-2686.0,696.0,-49.0,-969.0,-627.0,124,52,129,73,80
2025-03-17 18:56:00.405,5267.0,-4824.0,3214.0,5.0,-176.0,79.0,125,12,144,78,89
2025-03-17 18:56:00.430,1440.0,-2293.0,1886.0,166.0,248.0,182.0,130,69,136,73,92
2025-03-17 18:56:00.451,9.0,-948.0,1700.0,-64.0,148.0,166.0,136,69,148,80,91
2025-03-17 18:56:00.476,-85.0,-707.0,1557.0,-80.0,189.0,193.0,149,114,165,101,101
2025-03-17 18:56:00.500,-226.0,-453.0,1246.0,-46.0,266.0,159.0,149,130,136,108,103
2025-03-17 18:56:00.525,-176.0,-423.0,512.0,-90.0,280.0,166.0,151,96,143,99,103
2025-03-17 18:56:00.547,-7.0,-638.0,516.0,-107.0,260.0,178.0,148,99,143,94,96
2025-03-17 18:56:00.574,187.0,-881.0,458.0,-21.0,274.0,242.0,142,108,153,84,96
2025-03-17 18:56:00.598,-74.0,-380.0,301.0,17.0,287.0,281.0,128,96,145,7,91
2025-03-17 18:56:00.619,-156.0,-254.0,153.0,18.0,231.0,293.0,142,90,147,12,94
2025-03-17 18:56:00.642,-538.0,-276.0,83.0,54.0,133.0,263.0,153,79,145,39,104
2025-03-17 18:56:00.668,-565.0,175.0,-58.0,129.0,104.0,183.0,152,58,148,60,105
2025-03-17 18:56:00.693,-993.0,921.0,-131.0,65.0,113.0,78.0,149,65,145,70,95
2025-03-17 18:56:00.718,-950.0,1761.0,-1217.0,-14.0,-37.0,-91.0,145,22,133,68,79
2025-03-17 18:56:00.742,-543.0,3114.0,-2786.0,-48.0,-249.0,-461.0,139,48,132,46,63
2025-03-17 18:56:00.764,-137.0,338.0,-1938.0,-169.0,-538.0,-754.0,124,28,111,48,49
2025-03-17 18:56:00.790,3103.0,495.0,-684.0,-347.0,-949.0,-782.0,133,21,101,60,53
2025-03-17 18:56:00.812,5663.0,-4935.0,857.0,-599.0,-759.0,-473.0,140,42,105,62,58
2025-03-17 18:56:00.837,3462.0,-6251.0,1959.0,146.0,204.0,-17.0,142,33,114,78,64
2025-03-17 18:56:00.861,1544.0,-2905.0,-760.0,416.0,279.0,265.0,146,43,102,81,67
2025-03-17 18:56:00.885,405.0,-1400.0,362.0,41.0,47.0,274.0,149,51,125,85,70
2025-03-17 18:56:00.910,322.0,-1458.0,1361.0,50.0,99.0,240.0,151,51,120,87,70
2025-03-17 18:56:00.935,146.0,-1101.0,694.0,106.0,185.0,288.0,150,50,131,94,70
2025-03-17 18:56:00.955,31.0,-357.0,603.0,135.0,196.0,300.0,147,50,118,94,63
2025-03-17 18:56:00.980,-235.0,221.0,96.0,138.0,200.0,210.0,138,42,120,97,66
2025-03-17 18:56:01.004,-376.0,-11.0,337.0,8.0,173.0,156.0,142,42,115,97,65
2025-03-17 18:56:01.029,-246.0,-453.0,365.0,37.0,130.0,153.0,141,46,113,98,62
2025-03-17 18:56:01.053,-115.0,-281.0,422.0,100.0,159.0,152.0,146,48,127,98,69
2025-03-17 18:56:01.077,-470.0,-316.0,253.0,70.0,189.0,169.0,140,49,128,104,70
2025-03-17 18:56:01.101,-708.0,-72.0,72.0,63.0,126.0,192.0,138,52,123,106,73
2025-03-17 18:56:01.127,-355.0,1004.0,-250.0,113.0,90.0,155.0,127,43,124,104,69
2025-03-17 18:56:01.148,-1629.0,3601.0,-2364.0,103.0,42.0,-177.0,129,41,116,98,66
2025-03-17 18:56:01.170,-806.0,1930.0,-3929.0,-76.0,-376.0,-743.0,131,48,102,102,60
2025-03-17 18:56:01.197,2666.0,2563.0,-1882.0,-329.0,-1038.0,-1021.0,127,47,97,89,64
2025-03-17 18:56:01.221,6885.0,-4481.0,221.0,-552.0,-984.0,-582.0,144,51,110,99,71
2025-03-17 18:56:01.244,4878.0,-7525.0,2704.0,78.0,181.0,25.0,146,52,138,104,87
2025-03-17 18:56:01.268,45.0,-3619.0,-669.0,389.0,381.0,208.0,157,58,108,116,93
2025-03-17 18:56:01.291,-91.0,-571.0,377.0,28.0,-28.0,111.0,146,70,136,118,96
2025-03-17 18:56:01.315,101.0,-1831.0,1187.0,43.0,94.0,164.0,141,68,136,121,95
2025-03-17 18:56:01.326,309.0,-1390.0,681.0,60.0,243.0,221.0,146,59,130,122,98
2025-03-17 18:56:01.364,225.0,-709.0,85.0,101.0,193.0,236.0,139,58,132,112,92
2025-03-17 18:56:01.389,107.0,-734.0,383.0,120.0,177.0,227.0,139,56,124,14,107
2025-03-17 18:56:01.414,354.0,-628.0,540.0,138.0,290.0,236.0,137,43,121,11,101
2025-03-17 18:56:01.438,148.0,-705.0,407.0,43.0,276.0,301.0,128,58,121,48,103
2025-03-17 18:56:01.459,-159.0,-299.0,0.0,99.0,226.0,336.0,122,65,135,34,110
2025-03-17 18:56:01.484,17.0,-166.0,-186.0,98.0,180.0,353.0,143,65,137,24,109
2025-03-17 18:56:01.508,-738.0,32.0,-267.0,152.0,199.0,354.0,151,62,93,26,114
2025-03-17 18:56:01.533,-532.0,746.0,-367.0,125.0,131.0,326.0,157,66,138,30,93
2025-03-17 18:56:01.557,-776.0,1812.0,-899.0,-15.0,83.0,151.0,151,62,129,31,76
2025-03-17 18:56:01.569,-1714.0,4107.0,-2738.0,63.0,-43.0,-323.0,131,30,97,7,44
2025-03-17 18:56:01.606,896.0,3024.0,-4439.0,-159.0,-554.0,-941.0,116,26,91,5,37
2025-03-17 18:56:01.631,2644.0,3058.0,-4022.0,-245.0,-1333.0,-1180.0,107,34,99,4,42
2025-03-17 18:56:01.648,9164.0,-5848.0,4915.0,-535.0,-719.0,-465.0,108,53,98,16,59
2025-03-17 18:56:01.673,4056.0,-6747.0,1817.0,144.0,293.0,22.0,129,28,110,70,92
2025-03-17 18:56:01.697,930.0,-1441.0,1996.0,335.0,436.0,211.0,141,74,132,96,99
2025-03-17 18:56:01.725,333.0,-1006.0,941.0,-210.0,88.0,205.0,141,74,140,91,93
2025-03-17 18:56:01.750,327.0,-1694.0,574.0,-62.0,107.0,257.0,138,74,110,103,89
2025-03-17 18:56:01.774,-4.0,-768.0,755.0,-7.0,219.0,244.0,131,60,123,92,77
2025-03-17 18:56:01.798,-249.0,-564.0,-35.0,-76.0,207.0,195.0,121,52,111,79,67
2025-03-17 18:56:01.819,-364.0,-512.0,231.0,-93.0,150.0,187.0,123,43,106,75,60
2025-03-17 18:56:01.844,-28.0,-792.0,382.0,-46.0,164.0,241.0,126,52,104,81,65
2025-03-17 18:56:01.868,-269.0,-585.0,99.0,24.0,191.0,262.0,136,61,110,93,75
2025-03-17 18:56:01.893,-531.0,-122.0,23.0,39.0,166.0,241.0,135,60,121,84,73
2025-03-17 18:56:01.917,-359.0,-93.0,311.0,25.0,129.0,220.0,138,56,125,91,75
2025-03-17 18:56:01.941,-495.0,-336.0,16.0,77.0,145.0,217.0,140,58,105,90,73
2025-03-17 18:56:01.966,-536.0,74.0,-178.0,116.0,115.0,256.0,142,53,102,88,75
2025-03-17 18:56:01.988,-963.0,1519.0,-790.0,100.0,51.0,146.0,127,44,111,77,58
2025-03-17 18:56:02.012,-1212.0,4000.0,-2042.0,40.0,-62.0,-388.0,129,51,105,81,58
2025-03-17 18:56:02.036,-1272.0,3004.0,-3296.0,-105.0,-445.0,-855.0,134,57,99,83,68
2025-03-17 18:56:02.061,1677.0,3339.0,-2251.0,-162.0,-1038.0,-1161.0,128,52,101,84,61
2025-03-17 18:56:02.086,7986.0,-1297.0,1214.0,-740.0,-944.0,-830.0,140,77,118,93,85
2025-03-17 18:56:02.111,7725.0,-9568.0,1499.0,302.0,390.0,-76.0,141,63,129,107,96
2025-03-17 18:56:02.134,1662.0,-1109.0,-1242.0,314.0,342.0,217.0,126,55,118,83,76
2025-03-17 18:56:02.159,100.0,-1976.0,427.0,-51.0,66.0,147.0,127,59,123,88,78
2025-03-17 18:56:02.184,414.0,-2084.0,626.0,57.0,135.0,300.0,131,70,124,95,86
2025-03-17 18:56:02.205,186.0,-1137.0,431.0,104.0,193.0,335.0,146,75,116,105,95
2025-03-17 18:56:02.229,273.0,-934.0,145.0,136.0,218.0,344.0,150,78,140,106,97
2025-03-17 18:56:02.254,469.0,-773.0,276.0,182.0,288.0,340.0,161,85,150,103,106
2025-03-17 18:56:02.278,110.0,-792.0,639.0,117.0,269.0,354.0,165,82,149,114,111
2025-03-17 18:56:02.295,-282.0,-746.0,-474.0,159.0,143.0,392.0,165,77,157,51,110
2025-03-17 18:56:02.327,-375.0,-324.0,187.0,259.0,155.0,388.0,149,61,126,47,83
2025-03-17 18:56:02.351,-252.0,442.0,5.0,156.0,192.0,346.0,149,75,134,25,70
2025-03-17 18:56:02.370,-573.0,897.0,-741.0,148.0,147.0,294.0,140,72,121,22,55
2025-03-17 18:56:02.397,-1588.0,1329.0,-1467.0,203.0,0.0,99.0,123,80,126,24,40
2025-03-17 18:56:02.422,-1685.0,2352.0,-3117.0,91.0,-266.0,-181.0,116,99,134,35,43
2025-03-17 18:56:02.445,786.0,2849.0,-5092.0,-122.0,-1229.0,-566.0,107,102,129,49,53
2025-03-17 18:56:02.471,6427.0,-2510.0,-348.0,29.0,-1493.0,-271.0,91,49,102,34,52
2025-03-17 18:56:02.495,4987.0,-456.0,4550.0,582.0,-816.0,-127.0,70,49,109,50,73
2025-03-17 18:56:02.519,2466.0,121.0,4342.0,160.0,106.0,-96.0,90,62,120,64,92
2025-03-17 18:56:02.544,1400.0,114.0,2898.0,-94.0,73.0,60.0,103,80,126,84,101
2025-03-17 18:56:02.568,1151.0,310.0,2082.0,-223.0,308.0,46.0,99,70,123,77,93
2025-03-17 18:56:02.590,175.0,2.0,1811.0,-126.0,337.0,6.0,116,94,125,102,106
2025-03-17 18:56:02.613,-359.0,-254.0,503.0,-87.0,255.0,11.0,110,96,139,104,101
2025-03-17 18:56:02.638,303.0,2.0,1038.0,-159.0,255.0,33.0,119,107,142,106,106
2025-03-17 18:56:02.661,547.0,-565.0,865.0,-196.0,376.0,89.0,104,93,123,85,86
2025-03-17 18:56:02.688,-262.0,-561.0,240.0,-4.0,280.0,110.0,101,88,119,85,78
2025-03-17 18:56:02.710,-217.0,85.0,595.0,17.0,205.0,81.0,96,69,117,78,76
2025-03-17 18:56:02.732,-17.0,166.0,681.0,-96.0,268.0,59.0,96,93,119,81,78
2025-03-17 18:56:02.758,-563.0,-481.0,-7.0,-83.0,220.0,110.0,111,92,123,93,81
2025-03-17 18:56:02.769,-391.0,19.0,115.0,-9.0,127.0,157.0,114,104,131,97,87
2025-03-17 18:56:02.806,-348.0,508.0,336.0,-22.0,182.0,130.0,116,84,136,100,90
2025-03-17 18:56:02.831,-899.0,677.0,-801.0,3.0,137.0,94.0,117,97,135,100,87
2025-03-17 18:56:02.855,-1689.0,1578.0,-2775.0,156.0,-148.0,-116.0,115,108,134,97,83
2025-03-17 18:56:02.869,-1074.0,2266.0,-5227.0,141.0,-965.0,-483.0,102,95,112,89,74
2025-03-17 18:56:02.904,4897.0,-464.0,-2720.0,-50.0,-1493.0,-353.0,111,98,123,97,87
2025-03-17 18:56:02.930,5582.0,-2226.0,6124.0,201.0,-535.0,24.0,113,106,113,103,113
2025-03-17 18:56:02.953,2118.0,-1576.0,3337.0,238.0,146.0,-94.0,125,84,125,108,123
2025-03-17 18:56:02.975,1141.0,263.0,3500.0,-75.0,255.0,-4.0,127,114,147,108,115
2025-03-17 18:56:02.999,708.0,109.0,2751.0,-286.0,342.0,50.0,123,102,140,101,102
2025-03-17 18:56:03.024,326.0,-524.0,1507.0,-189.0,341.0,99.0,107,90,126,90,83
2025-03-17 18:56:03.048,205.0,-292.0,918.0,-125.0,372.0,126.0,104,99,124,87,79
2025-03-17 18:56:03.072,60.0,-4.0,557.0,-184.0,400.0,125.0,110,71,128,93,84
2025-03-17 18:56:03.097,25.0,-231.0,558.0,-177.0,409.0,133.0,125,88,130,110,101
2025-03-17 18:56:03.121,-79.0,-235.0,384.0,-90.0,370.0,154.0,134,91,129,112,104
2025-03-17 18:56:03.143,-64.0,-243.0,873.0,-8.0,321.0,192.0,146,116,150,110,102
2025-03-17 18:56:03.167,-406.0,-140.0,-46.0,49.0,292.0,190.0,150,117,162,96,112
2025-03-17 18:56:03.192,-682.0,36.0,-520.0,37.0,163.0,188.0,143,109,160,43,111
2025-03-17 18:56:03.216,-727.0,-133.0,-542.0,78.0,47.0,173.0,124,72,143,18,85
2025-03-17 18:56:03.241,-372.0,846.0,-590.0,91.0,-48.0,127.0,134,89,148,30,112
2025-03-17 18:56:03.265,-620.0,1266.0,-1185.0,80.0,-66.0,27.0,126,96,155,23,118
2025-03-17 18:56:03.289,-1318.0,2208.0,-2326.0,-16.0,-368.0,-282.0,129,101,149,68,125
2025-03-17 18:56:03.314,-1167.0,2035.0,-1864.0,-222.0,-558.0,-639.0,136,102,165,107,132
2025-03-17 18:56:03.338,1906.0,620.0,-2027.0,-269.0,-826.0,-860.0,142,130,141,128,151
2025-03-17 18:56:03.364,5123.0,-2080.0,71.0,-819.0,-727.0,-838.0,138,48,150,128,150
2025-03-17 18:56:03.388,4061.0,-6159.0,-282.0,-329.0,-312.0,-85.0,155,111,186,128,162
2025-03-17 18:56:03.409,2658.0,-4561.0,1082.0,314.0,280.0,220.0,122,45,151,71,131
2025-03-17 18:56:03.433,251.0,-998.0,414.0,166.0,318.0,243.0,158,114,184,138,164
2025-03-17 18:56:03.458,-16.0,-1144.0,395.0,-100.0,132.0,190.0,147,101,172,135,156
2025-03-17 18:56:03.482,153.0,-1067.0,826.0,-127.0,107.0,174.0,134,115,161,121,139
2025-03-17 18:56:03.507,163.0,-1261.0,205.0,-2.0,204.0,221.0,111,120,160,119,139
2025-03-17 18:56:03.531,-197.0,-633.0,311.0,129.0,189.0,291.0,127,109,160,117,136
2025-03-17 18:56:03.556,40.0,-262.0,135.0,72.0,198.0,294.0,129,115,161,119,138
2025-03-17 18:56:03.577,-144.0,-191.0,323.0,101.0,200.0,309.0,137,133,170,128,147
2025-03-17 18:56:03.601,-352.0,-204.0,124.0,103.0,138.0,319.0,138,134,172,130,149
2025-03-17 18:56:03.625,-224.0,-261.0,147.0,113.0,54.0,306.0,129,114,164,123,138
2025-03-17 18:56:03.651,-360.0,62.0,-99.0,154.0,-24.0,299.0,124,113,164,122,138
2025-03-17 18:56:03.675,-524.0,555.0,-522.0,182.0,25.0,260.0,123,123,168,126,140
2025-03-17 18:56:03.698,-1055.0,1328.0,-1510.0,123.0,5.0,130.0,107,102,152,109,124
2025-03-17 18:56:03.723,-1670.0,2148.0,-1820.0,8.0,-242.0,-269.0,112,109,154,111,127
2025-03-17 18:56:03.748,-1328.0,2697.0,-1437.0,-144.0,-390.0,-764.0,119,104,156,114,133
2025-03-17 18:56:03.771,3425.0,1508.0,-2468.0,-238.0,-740.0,-950.0,131,143,174,134,153
2025-03-17 18:56:03.797,4710.0,-2581.0,1948.0,-525.0,-507.0,-641.0,127,97,169,128,145
2025-03-17 18:56:03.818,3929.0,-5544.0,1322.0,-332.0,-186.0,0.0,162,160,196,140,178
2025-03-17 18:56:03.843,2266.0,-3263.0,1536.0,238.0,332.0,262.0,156,105,189,118,168
2025-03-17 18:56:03.868,-16.0,-416.0,317.0,190.0,288.0,225.0,141,127,182,140,155
2025-03-17 18:56:03.892,-189.0,-1125.0,590.0,-31.0,144.0,182.0,128,98,163,125,138
2025-03-17 18:56:03.916,-84.0,-1028.0,455.0,-61.0,150.0,170.0,132,125,136,125,138
2025-03-17 18:56:03.939,-167.0,-777.0,462.0,-40.0,295.0,214.0,134,126,151,121,131
2025-03-17 18:56:03.965,68.0,-825.0,336.0,81.0,259.0,283.0,117,110,139,88,103
2025-03-17 18:56:03.986,73.0,-392.0,575.0,148.0,260.0,332.0,99,103,130,84,95
2025-03-17 18:56:03.999,-164.0,-366.0,-333.0,101.0,179.0,361.0,104,87,123,23,97
2025-03-17 18:56:04.036,-278.0,-187.0,66.0,162.0,119.0,361.0,119,83,127,13,84
2025-03-17 18:56:04.060,-582.0,36.0,25.0,142.0,182.0,322.0,116,72,118,20,53
2025-03-17 18:56:04.085,-816.0,628.0,-708.0,118.0,140.0,256.0,123,99,127,34,50
2025-03-17 18:56:04.109,-1236.0,1434.0,-1885.0,131.0,-71.0,68.0,116,113,131,46,45
2025-03-17 18:56:04.133,-1045.0,2371.0,-2812.0,47.0,-514.0,-322.0,106,88,126,38,39
2025-03-17 18:56:04.158,310.0,3030.0,-4209.0,-124.0,-1092.0,-695.0,106,65,129,41,65
2025-03-17 18:56:04.179,5191.0,-1786.0,-1140.0,-139.0,-1425.0,-446.0,100,73,97,35,45
2025-03-17 18:56:04.200,4922.0,-2285.0,4140.0,-27.0,-669.0,-88.0,82,73,73,53,70
2025-03-17 18:56:04.228,2432.0,-2515.0,2923.0,177.0,119.0,-130.0,98,93,116,82,85
2025-03-17 18:56:04.253,1166.0,-915.0,2401.0,213.0,196.0,-53.0,116,108,140,102,108
2025-03-17 18:56:04.272,552.0,-605.0,1944.0,-119.0,209.0,78.0,158,154,186,151,153
2025-03-17 18:56:04.301,259.0,-776.0,1615.0,-212.0,225.0,97.0,76,82,99,67,65
2025-03-17 18:56:04.326,313.0,-891.0,1140.0,-65.0,276.0,94.0,85,95,112,80,73
2025-03-17 18:56:04.351,327.0,-617.0,1064.0,3.0,332.0,85.0,85,102,126,90,87
2025-03-17 18:56:04.371,247.0,-356.0,811.0,-72.0,388.0,127.0,98,101,123,86,84
2025-03-17 18:56:04.396,-84.0,-592.0,345.0,-77.0,300.0,172.0,113,122,139,102,99
2025-03-17 18:56:04.420,-124.0,-227.0,361.0,-22.0,272.0,178.0,120,121,146,114,102
2025-03-17 18:56:04.443,-200.0,2.0,219.0,-17.0,226.0,151.0,120,98,147,105,101
2025-03-17 18:56:04.469,-413.0,-5.0,-20.0,-12.0,199.0,110.0,123,118,149,115,101
2025-03-17 18:56:04.494,-619.0,-15.0,-165.0,6.0,109.0,119.0,123,126,151,109,101
2025-03-17 18:56:04.516,-374.0,354.0,-44.0,-13.0,41.0,143.0,106,94,131,90,79
2025-03-17 18:56:04.539,-905.0,898.0,-797.0,42.0,17.0,28.0,94,94,122,83,61
2025-03-17 18:56:04.564,-2109.0,2249.0,-2967.0,218.0,-212.0,-251.0,96,93,124,86,60
2025-03-17 18:56:04.589,659.0,4642.0,-3294.0,264.0,-1189.0,-514.0,102,104,130,95,82
2025-03-17 18:56:04.613,5644.0,-2323.0,793.0,47.0,-1220.0,-236.0,109,111,132,105,99
2025-03-17 18:56:04.637,4981.0,-929.0,5015.0,310.0,-204.0,-73.0,170,146,169,164,164
2025-03-17 18:56:04.662,1741.0,-1143.0,2815.0,135.0,222.0,5.0,221,214,246,215,219
2025-03-17 18:56:04.685,1000.0,-311.0,2912.0,-182.0,393.0,83.0,133,107,157,128,120
2025-03-17 18:56:04.702,535.0,-454.0,1312.0,-322.0,400.0,152.0,147,137,169,141,123
2025-03-17 18:56:04.735,31.0,-924.0,942.0,-218.0,331.0,161.0,142,117,157,124,104
2025-03-17 18:56:04.759,38.0,-380.0,1427.0,-127.0,265.0,152.0,159,130,175,135,123
2025-03-17 18:56:04.785,97.0,-308.0,656.0,-42.0,377.0,142.0,110,87,129,68,65
2025-03-17 18:56:04.806,266.0,-466.0,133.0,-169.0,364.0,190.0,139,106,138,87,79
2025-03-17 18:56:04.830,-101.0,-339.0,374.0,37.0,307.0,225.0,140,100,143,64,78
2025-03-17 18:56:04.855,-395.0,-142.0,199.0,66.0,280.0,210.0,139,98,150,42,82
2025-03-17 18:56:04.865,-453.0,5.0,-57.0,111.0,273.0,181.0,152,103,166,66,81
2025-03-17 18:56:04.903,-506.0,476.0,-249.0,138.0,215.0,128.0,152,101,167,49,74
2025-03-17 18:56:04.927,-637.0,934.0,-554.0,79.0,149.0,77.0,153,99,141,32,66
2025-03-17 18:56:04.952,-768.0,1681.0,-1689.0,46.0,-33.0,-89.0,155,106,170,87,72
2025-03-17 18:56:04.976,-985.0,2188.0,-2079.0,-3.0,-299.0,-424.0,154,133,36,51,71
2025-03-17 18:56:04.998,-348.0,1383.0,-2386.0,-63.0,-715.0,-654.0,241,219,263,150,189
2025-03-17 18:56:05.022,2917.0,400.0,-661.0,-250.0,-1040.0,-709.0,133,97,161,32,76
2025-03-17 18:56:05.047,4694.0,-2631.0,2727.0,-81.0,-697.0,-428.0,215,142,231,125,173
2025-03-17 18:56:05.072,3928.0,-3466.0,2400.0,-46.0,-164.0,66.0,136,40,164,90,94
2025-03-17 18:56:05.096,1689.0,-2357.0,2260.0,167.0,269.0,125.0,130,27,160,97,92
2025-03-17 18:56:05.120,145.0,-1048.0,1392.0,21.0,206.0,169.0,122,53,154,91,82
2025-03-17 18:56:05.145,-19.0,-764.0,1379.0,-70.0,191.0,191.0,134,118,150,96,92
2025-03-17 18:56:05.170,-286.0,-653.0,1010.0,-4.0,235.0,173.0,135,136,174,114,99
2025-03-17 18:56:05.194,-256.0,-448.0,661.0,5.0,241.0,159.0,140,113,176,111,98
2025-03-17 18:56:05.218,-218.0,-328.0,374.0,5.0,235.0,181.0,138,133,175,109,97
2025-03-17 18:56:05.241,-110.0,-497.0,435.0,73.0,237.0,202.0,140,133,176,112,97
2025-03-17 18:56:05.265,-182.0,-371.0,460.0,109.0,266.0,194.0,119,116,155,95,74
2025-03-17 18:56:05.289,-210.0,-178.0,436.0,116.0,264.0,207.0,121,111,158,63,70
2025-03-17 18:56:05.313,-377.0,-38.0,313.0,73.0,251.0,204.0,131,116,164,75,77
2025-03-17 18:56:05.337,-461.0,-80.0,142.0,93.0,229.0,189.0,132,125,165,72,76
2025-03-17 18:56:05.361,-524.0,559.0,-138.0,88.0,193.0,176.0,134,128,165,63,74
2025-03-17 18:56:05.387,-883.0,1603.0,-1642.0,31.0,40.0,53.0,131,137,171,62,70
2025-03-17 18:56:05.411,-1503.0,2470.0,-3186.0,65.0,-355.0,-327.0,132,138,172,76,77
2025-03-17 18:56:05.429,-501.0,3132.0,-3520.0,-77.0,-884.0,-721.0,128,129,172,42,75
2025-03-17 18:56:05.456,3681.0,864.0,-793.0,-323.0,-1283.0,-817.0,115,116,119,29,91
2025-03-17 18:56:05.479,6639.0,-4638.0,2059.0,-56.0,-858.0,-272.0,144,84,162,114,123
2025-03-17 18:56:05.503,4124.0,-3793.0,3882.0,116.0,120.0,152.0,178,112,220,121,161
2025-03-17 18:56:05.527,566.0,-1076.0,1566.0,127.0,352.0,78.0,158,62,181,118,130
2025-03-17 18:56:05.555,147.0,-930.0,913.0,-157.0,265.0,126.0,169,74,200,132,145
2025-03-17 18:56:05.568,-176.0,-999.0,1037.0,-88.0,190.0,131.0,195,197,218,91,171
2025-03-17 18:56:05.604,-81.0,-697.0,860.0,8.0,257.0,109.0,138,125,167,67,113
2025-03-17 18:56:05.628,-28.0,-587.0,1212.0,5.0,327.0,110.0,140,97,141,35,115
2025-03-17 18:56:05.653,-30.0,-733.0,601.0,-50.0,269.0,163.0,154,128,131,47,113
2025-03-17 18:56:05.674,15.0,-885.0,899.0,42.0,305.0,221.0,156,140,161,85,114
2025-03-17 18:56:05.698,-147.0,-454.0,489.0,60.0,327.0,230.0,161,128,169,92,111
2025-03-17 18:56:05.723,-340.0,-261.0,124.0,24.0,305.0,242.0,159,128,154,68,102
2025-03-17 18:56:05.747,-473.0,-223.0,-44.0,32.0,219.0,270.0,135,92,113,35,76
2025-03-17 18:56:05.770,-600.0,-45.0,-652.0,44.0,149.0,252.0,136,91,113,28,66
2025-03-17 18:56:05.796,-724.0,792.0,-1150.0,118.0,37.0,175.0,135,103,133,46,70
2025-03-17 18:56:05.820,-1477.0,1577.0,-2435.0,152.0,-229.0,-66.0,132,107,130,53,76
2025-03-17 18:56:05.845,104.0,2331.0,-3027.0,190.0,-918.0,-389.0,145,119,146,121,113
2025-03-17 18:56:05.867,3493.0,1499.0,-2946.0,4.0,-1403.0,-389.0,172,152,188,137,148
2025-03-17 18:56:05.891,5224.0,-2326.0,1758.0,305.0,-1004.0,-75.0,122,93,140,100,106
2025-03-17 18:56:05.916,3134.0,52.0,4145.0,451.0,-141.0,-133.0,160,159,182,148,160
2025-03-17 18:56:05.940,1648.0,-214.0,3115.0,253.0,119.0,-57.0,129,111,148,112,126
2025-03-17 18:56:05.965,1248.0,904.0,2828.0,-90.0,93.0,71.0,130,107,147,126,121
2025-03-17 18:56:05.988,733.0,329.0,2053.0,-285.0,209.0,79.0,143,121,156,138,134
2025-03-17 18:56:06.014,311.0,-291.0,1764.0,-113.0,292.0,31.0,142,125,155,139,132
2025-03-17 18:56:06.038,310.0,-134.0,1117.0,-26.0,315.0,17.0,167,164,174,160,153
2025-03-17 18:56:06.059,319.0,67.0,870.0,-143.0,343.0,32.0,176,161,186,169,163
2025-03-17 18:56:06.084,-54.0,-307.0,675.0,-146.0,309.0,54.0,143,135,157,131,123
2025-03-17 18:56:06.107,0.0,-327.0,798.0,-8.0,229.0,57.0,130,131,132,117,101
2025-03-17 18:56:06.132,-21.0,60.0,702.0,-35.0,266.0,63.0,133,124,141,122,105
2025-03-17 18:56:06.156,-168.0,-97.0,308.0,-98.0,259.0,79.0,117,102,134,109,85
2025-03-17 18:56:06.181,-434.0,-102.0,98.0,-105.0,192.0,129.0,115,118,130,107,86
2025-03-17 18:56:06.203,-227.0,369.0,111.0,19.0,147.0,49.0,123,113,139,114,93
2025-03-17 18:56:06.227,-404.0,974.0,-331.0,-15.0,156.0,1.0,123,103,139,114,90
2025-03-17 18:56:06.251,-1276.0,1303.0,-2160.0,-17.0,-1.0,-111.0,123,119,140,116,91
2025-03-17 18:56:06.273,-1505.0,1630.0,-4549.0,170.0,-628.0,-316.0,105,97,111,94,70
2025-03-17 18:56:06.301,1628.0,1201.0,-3441.0,87.0,-1320.0,-286.0,131,116,144,125,100
2025-03-17 18:56:06.325,5947.0,-2987.0,2882.0,120.0,-1072.0,-33.0,130,146,153,129,115
2025-03-17 18:56:06.349,4440.0,343.0,6375.0,218.0,28.0,-116.0,100,103,92,100,97
2025-03-17 18:56:06.374,2209.0,-157.0,2958.0,92.0,282.0,-38.0,108,85,129,99,102
2025-03-17 18:56:06.399,1150.0,-92.0,2058.0,-186.0,331.0,64.0,121,102,139,109,96
2025-03-17 18:56:06.411,212.0,-227.0,1434.0,-286.0,275.0,85.0,124,114,140,106,95
2025-03-17 18:56:06.447,135.0,-681.0,1110.0,-171.0,290.0,73.0,140,112,147,111,94
2025-03-17 18:56:06.469,270.0,-395.0,1106.0,-126.0,426.0,93.0,138,95,145,117,104
2025-03-17 18:56:06.493,443.0,-174.0,829.0,-202.0,505.0,158.0,148,96,154,113,89
2025-03-17 18:56:06.517,133.0,-180.0,729.0,-158.0,458.0,153.0,232,186,224,181,191
2025-03-17 18:56:06.541,174.0,-370.0,550.0,-64.0,384.0,192.0,229,172,220,140,186
2025-03-17 18:56:06.566,-76.0,-2.0,140.0,-54.0,395.0,208.0,154,74,152,44,111
2025-03-17 18:56:06.591,-783.0,-38.0,-420.0,-24.0,301.0,170.0,147,73,151,34,100
2025-03-17 18:56:06.615,-713.0,106.0,-306.0,-8.0,182.0,145.0,131,56,136,17,81
2025-03-17 18:56:06.636,-515.0,389.0,-489.0,21.0,101.0,132.0,138,63,139,29,101
2025-03-17 18:56:06.661,-354.0,1255.0,-1189.0,80.0,43.0,75.0,137,59,135,26,98
2025-03-17 18:56:06.686,-775.0,2324.0,-2127.0,17.0,-113.0,-166.0,135,57,130,25,75
2025-03-17 18:56:06.710,-1322.0,3383.0,-3197.0,-49.0,-349.0,-506.0,135,55,125,26,57
2025-03-17 18:56:06.735,2312.0,3265.0,-2321.0,-129.0,-839.0,-943.0,150,70,113,43,79
2025-03-17 18:56:06.758,4745.0,-947.0,-798.0,14.0,-1153.0,-870.0,130,38,89,39,61
2025-03-17 18:56:06.783,7147.0,-5349.0,5294.0,-12.0,-292.0,-97.0,147,56,117,105,90
2025-03-17 18:56:06.805,1760.0,-3349.0,2200.0,198.0,181.0,36.0,144,60,97,88,94
2025-03-17 18:56:06.829,214.0,-1806.0,1120.0,-255.0,91.0,119.0,135,45,109,96,81
2025-03-17 18:56:06.853,632.0,-2139.0,1586.0,-195.0,190.0,220.0,141,46,119,97,80
2025-03-17 18:56:06.878,262.0,-1489.0,1098.0,-84.0,210.0,315.0,152,59,120,111,87
2025-03-17 18:56:06.902,-130.0,-856.0,290.0,-186.0,225.0,322.0,157,67,121,118,91
2025-03-17 18:56:06.927,414.0,-445.0,715.0,-48.0,262.0,247.0,153,63,129,117,86
2025-03-17 18:56:06.951,-106.0,-596.0,-37.0,35.0,301.0,268.0,151,63,119,108,75
2025-03-17 18:56:06.963,-502.0,-569.0,-180.0,16.0,191.0,285.0,144,57,94,103,70
2025-03-17 18:56:06.994,4.0,-425.0,208.0,94.0,164.0,308.0,142,47,106,102,69
2025-03-17 18:56:07.011,-156.0,-23.0,-132.0,140.0,206.0,282.0,144,53,124,106,74
2025-03-17 18:56:07.046,-662.0,486.0,-304.0,68.0,150.0,237.0,159,65,139,113,93
2025-03-17 18:56:07.070,-398.0,372.0,-20.0,38.0,75.0,164.0,155,59,116,112,90
2025-03-17 18:56:07.095,-477.0,721.0,-144.0,74.0,96.0,137.0,160,66,136,116,93
2025-03-17 18:56:07.119,-541.0,1360.0,-1131.0,121.0,-1.0,127.0,162,71,145,111,88
2025-03-17 18:56:07.143,-831.0,3523.0,-2370.0,-12.0,-165.0,-218.0,170,84,147,108,94
2025-03-17 18:56:07.168,269.0,4395.0,-3750.0,-191.0,-516.0,-838.0,215,131,173,167,138
2025-03-17 18:56:07.188,2400.0,911.0,-2539.0,-57.0,-1007.0,-1189.0,148,61,116,96,67
2025-03-17 18:56:07.204,6509.0,-4768.0,775.0,486.0,-915.0,-385.0,150,62,103,103,87
2025-03-17 18:56:07.236,4311.0,-2875.0,3913.0,363.0,144.0,109.0,143,52,120,89,78
2025-03-17 18:56:07.261,104.0,-967.0,1845.0,8.0,178.0,44.0,184,97,144,129,123
2025-03-17 18:56:07.278,4.0,-1593.0,1538.0,-1.0,217.0,69.0,162,68,126,107,103
2025-03-17 18:56:07.312,-762.0,-216.0,634.0,151.0,184.0,78.0,175,88,141,129,120
2025-03-17 18:56:07.332,-1084.0,410.0,181.0,74.0,104.0,-2.0,169,83,123,122,109
2025-03-17 18:56:07.357,-619.0,-84.0,164.0,45.0,-82.0,-67.0,156,71,109,107,93
2025-03-17 18:56:07.382,146.0,-297.0,333.0,166.0,-159.0,-51.0,143,55,101,97,83
2025-03-17 18:56:07.406,290.0,-370.0,942.0,254.0,-71.0,-13.0,160,76,126,114,100
2025-03-17 18:56:07.430,-207.0,-162.0,875.0,186.0,-15.0,-33.0,160,71,139,114,99
2025-03-17 18:56:07.454,-150.0,-200.0,1012.0,164.0,14.0,-59.0,165,73,142,118,100
2025-03-17 18:56:07.479,-187.0,-318.0,831.0,180.0,54.0,-69.0,163,74,141,115,100
2025-03-17 18:56:07.501,-44.0,-635.0,735.0,177.0,21.0,-64.0,171,79,146,120,107
2025-03-17 18:56:07.525,447.0,-1377.0,705.0,122.0,-37.0,8.0,170,82,147,123,108
2025-03-17 18:56:07.551,1405.0,-2399.0,1527.0,42.0,-13.0,202.0,174,80,148,126,112
2025-03-17 18:56:07.575,2312.0,-3167.0,2327.0,-34.0,165.0,527.0,155,58,126,101,83
2025-03-17 18:56:07.599,2821.0,-1823.0,1233.0,-12.0,213.0,844.0,159,60,130,92,88
2025-03-17 18:56:07.623,1461.0,1951.0,1038.0,-122.0,92.0,789.0,151,54,131,92,84
2025-03-17 18:56:07.641,165.0,3452.0,892.0,-58.0,106.0,325.0,153,54,125,95,84
2025-03-17 18:56:07.669,111.0,3656.0,859.0,134.0,118.0,77.0,142,67,134,104,83
2025-03-17 18:56:07.691,-250.0,3819.0,569.0,139.0,81.0,-176.0,168,67,112,110,84
2025-03-17 18:56:07.707,-210.0,2346.0,332.0,56.0,-44.0,-392.0,170,72,114,113,85
2025-03-17 18:56:07.739,388.0,280.0,723.0,-3.0,-180.0,-410.0,168,71,119,115,87
2025-03-17 18:56:07.763,1025.0,-1056.0,1528.0,35.0,-60.0,-229.0,164,66,125,111,90
2025-03-17 18:56:07.791,266.0,-403.0,1323.0,-62.0,70.0,-215.0,155,51,109,92,78
2025-03-17 18:56:07.815,-168.0,-678.0,917.0,149.0,28.0,-186.0,151,45,120,91,76
2025-03-17 18:56:07.837,-311.0,-110.0,1057.0,83.0,-40.0,-179.0,152,57,121,95,77
2025-03-17 18:56:07.861,-322.0,-250.0,1041.0,76.0,-103.0,-182.0,166,71,134,112,94
2025-03-17 18:56:07.886,-394.0,-371.0,668.0,129.0,-140.0,-146.0,165,67,135,111,96
2025-03-17 18:56:07.910,-304.0,133.0,855.0,105.0,-138.0,-129.0,169,72,140,115,97
2025-03-17 18:56:07.935,-124.0,-162.0,976.0,46.0,-134.0,-124.0,165,75,141,115,95
2025-03-17 18:56:07.959,41.0,-283.0,965.0,56.0,-137.0,-105.0,169,73,141,114,97
2025-03-17 18:56:07.983,431.0,-841.0,1445.0,56.0,-85.0,-15.0,162,66,133,105,87
2025-03-17 18:56:08.006,1097.0,-2077.0,1795.0,-37.0,16.0,190.0,167,58,133,103,88
2025-03-17 18:56:08.023,2014.0,-2834.0,2035.0,-211.0,147.0,530.0,159,58,134,102,85
2025-03-17 18:56:08.054,2724.0,-1916.0,2024.0,-277.0,209.0,806.0,161,57,129,102,83
2025-03-17 18:56:08.078,1875.0,729.0,1841.0,-383.0,233.0,824.0,168,66,137,106,91
2025-03-17 18:56:08.103,418.0,4113.0,2211.0,-71.0,279.0,407.0,172,77,144,110,98
2025-03-17 18:56:08.114,87.0,3851.0,1736.0,178.0,293.0,202.0,174,81,119,102,94
2025-03-17 18:56:08.151,-226.0,3377.0,1591.0,196.0,314.0,-45.0,169,77,126,109,94
2025-03-17 18:56:08.173,1.0,1701.0,1276.0,65.0,290.0,-209.0,171,77,118,100,94
2025-03-17 18:56:08.193,-240.0,-776.0,891.0,-3.0,280.0,-173.0,155,54,118,67,81
2025-03-17 18:56:08.222,-978.0,-577.0,924.0,-42.0,219.0,-72.0,144,54,127,16,76
2025-03-17 18:56:08.246,-858.0,-330.0,253.0,47.0,157.0,-89.0,148,53,141,41,97
2025-03-17 18:56:08.270,-807.0,-727.0,145.0,199.0,132.0,-67.0,146,67,155,46,92
2025-03-17 18:56:08.295,-876.0,-636.0,259.0,187.0,148.0,-12.0,142,75,152,30,75
2025-03-17 18:56:08.319,-1122.0,-45.0,102.0,128.0,101.0,33.0,144,86,165,36,82
2025-03-17 18:56:08.340,-680.0,462.0,313.0,119.0,101.0,26.0,146,103,120,40,103
2025-03-17 18:56:08.365,-544.0,953.0,-409.0,96.0,70.0,-13.0,148,110,146,49,119
2025-03-17 18:56:08.389,-281.0,1961.0,-1633.0,44.0,-6.0,-188.0,132,98,162,120,106
2025-03-17 18:56:08.414,-589.0,2452.0,-2077.0,-130.0,-141.0,-619.0,131,96,163,112,105
2025-03-17 18:56:08.439,287.0,2223.0,-2933.0,-293.0,-441.0,-935.0,142,110,165,128,106
2025-03-17 18:56:08.464,2473.0,1146.0,-1337.0,-152.0,-495.0,-1075.0,122,93,134,105,115
2025-03-17 18:56:08.492,5471.0,-5118.0,-3504.0,-262.0,-790.0,-701.0,166,117,179,147,162
2025-03-17 18:56:08.516,4464.0,-5033.0,2604.0,139.0,-297.0,-21.0,151,115,174,108,150
2025-03-17 18:56:08.538,2249.0,-3739.0,1290.0,250.0,329.0,286.0,134,68,152,92,132
2025-03-17 18:56:08.562,4.0,-1199.0,448.0,105.0,225.0,319.0,142,91,156,123,137
2025-03-17 18:56:08.585,-266.0,-1214.0,574.0,-44.0,78.0,235.0,142,105,160,123,139
2025-03-17 18:56:08.611,-249.0,-978.0,936.0,-168.0,115.0,193.0,154,127,176,136,150
2025-03-17 18:56:08.623,-4.0,-1163.0,574.0,-33.0,187.0,270.0,151,128,173,134,146
2025-03-17 18:56:08.659,-197.0,-544.0,453.0,1.0,209.0,349.0,161,138,188,149,161
2025-03-17 18:56:08.684,-82.0,-337.0,189.0,35.0,271.0,366.0,157,135,185,147,157
2025-03-17 18:56:08.705,-69.0,-84.0,47.0,95.0,209.0,394.0,158,133,185,147,157
2025-03-17 18:56:08.730,-90.0,188.0,-292.0,148.0,132.0,382.0,135,106,141,124,134
2025-03-17 18:56:08.754,-642.0,841.0,-309.0,126.0,92.0,319.0,128,100,158,124,134
2025-03-17 18:56:08.779,-550.0,1208.0,-863.0,113.0,59.0,179.0,131,101,163,124,134
2025-03-17 18:56:08.804,-486.0,2223.0,-1572.0,64.0,-83.0,-71.0,130,104,164,124,134
2025-03-17 18:56:08.827,-783.0,2390.0,-2322.0,-17.0,-307.0,-415.0,141,120,173,133,144
2025-03-17 18:56:08.848,-484.0,1902.0,-1802.0,-100.0,-430.0,-753.0,150,115,145,140,153
2025-03-17 18:56:08.874,3031.0,1457.0,-1145.0,-106.0,-621.0,-939.0,151,134,173,141,153
2025-03-17 18:56:08.901,5800.0,-2151.0,2469.0,-760.0,-470.0,-960.0,135,89,154,121,133
2025-03-17 18:56:08.926,4274.0,-8224.0,1543.0,40.0,-137.0,-19.0,153,123,151,149,165
2025-03-17 18:56:08.950,2051.0,-3226.0,1204.0,381.0,269.0,468.0,162,106,186,127,168
2025-03-17 18:56:08.975,-810.0,-159.0,115.0,27.0,159.0,238.0,140,97,158,126,142
2025-03-17 18:56:08.994,-864.0,-321.0,955.0,-1.0,-13.0,65.0,125,93,75,115,132
2025-03-17 18:56:09.018,-489.0,-793.0,768.0,26.0,109.0,93.0,144,119,155,131,147
2025-03-17 18:56:09.035,-467.0,-621.0,611.0,145.0,160.0,151.0,146,122,160,130,145
2025-03-17 18:56:09.065,-455.0,-537.0,269.0,200.0,140.0,167.0,148,114,166,125,140
2025-03-17 18:56:09.091,-329.0,-339.0,-79.0,122.0,62.0,93.0,145,100,141,80,127
2025-03-17 18:56:09.108,-213.0,-273.0,372.0,132.0,78.0,18.0,147,89,149,27,102
2025-03-17 18:56:09.139,-284.0,-531.0,982.0,142.0,109.0,7.0,132,61,110,8,36
2025-03-17 18:56:09.165,-589.0,-777.0,609.0,194.0,57.0,70.0,133,46,115,9,49
2025-03-17 18:56:09.187,-718.0,-419.0,15.0,301.0,-24.0,89.0,137,33,120,13,32
2025-03-17 18:56:09.213,-625.0,200.0,32.0,338.0,-116.0,19.0,138,46,111,16,65
2025-03-17 18:56:09.237,-335.0,-435.0,-24.0,282.0,-186.0,-20.0,148,51,128,25,70
2025-03-17 18:56:09.262,175.0,-1187.0,505.0,288.0,-271.0,-14.0,180,89,159,73,100
2025-03-17 18:56:09.286,1479.0,-1863.0,2280.0,130.0,-201.0,169.0,167,77,144,78,89
2025-03-17 18:56:09.310,1950.0,-3031.0,2746.0,-88.0,58.0,404.0,166,71,145,78,90
2025-03-17 18:56:09.335,1927.0,-2438.0,1772.0,-114.0,120.0,675.0,163,63,139,88,81
2025-03-17 18:56:09.356,1463.0,1009.0,1090.0,-68.0,89.0,761.0,152,51,124,70,69
2025-03-17 18:56:09.380,802.0,3619.0,838.0,22.0,213.0,381.0,148,43,124,69,66
2025-03-17 18:56:09.405,-546.0,4032.0,53.0,126.0,176.0,131.0,152,54,117,70,67
2025-03-17 18:56:09.430,-493.0,3591.0,61.0,-1.0,74.0,-120.0,166,69,133,96,80
2025-03-17 18:56:09.454,-120.0,1987.0,245.0,-29.0,-18.0,-267.0,165,63,117,98,79
2025-03-17 18:56:09.479,264.0,256.0,790.0,-42.0,-69.0,-258.0,168,69,120,102,84
2025-03-17 18:56:09.500,195.0,-351.0,1140.0,-40.0,43.0,-202.0,170,65,132,106,90
2025-03-17 18:56:09.524,-128.0,-213.0,523.0,25.0,53.0,-169.0,170,73,133,105,93
2025-03-17 18:56:09.549,-564.0,-222.0,345.0,134.0,-12.0,-174.0,142,57,129,85,74
2025-03-17 18:56:09.573,-639.0,-318.0,684.0,111.0,-70.0,-155.0,143,62,132,90,79
2025-03-17 18:56:09.597,-178.0,-143.0,958.0,120.0,-51.0,-140.0,156,54,135,91,82
2025-03-17 18:56:09.622,-454.0,276.0,930.0,104.0,-2.0,-138.0,157,57,129,92,80
2025-03-17 18:56:09.646,-591.0,-6.0,671.0,66.0,-61.0,-151.0,163,68,140,99,88
2025-03-17 18:56:09.671,-393.0,-305.0,576.0,20.0,-165.0,-178.0,171,76,150,106,96
2025-03-17 18:56:09.689,507.0,-1696.0,1410.0,-63.0,-126.0,-57.0,169,83,153,116,104
2025-03-17 18:56:09.715,1087.0,-2791.0,1719.0,-149.0,13.0,156.0,182,88,160,118,110
2025-03-17 18:56:09.740,1027.0,-3204.0,1373.0,-163.0,9.0,386.0,179,78,154,113,102
2025-03-17 18:56:09.766,1275.0,-1771.0,1819.0,-178.0,20.0,599.0,156,57,134,93,82
2025-03-17 18:56:09.787,969.0,1035.0,1356.0,-143.0,24.0,659.0,155,56,133,91,75
2025-03-17 18:56:09.804,-76.0,3296.0,1201.0,-37.0,46.0,348.0,158,60,129,90,75
2025-03-17 18:56:09.837,300.0,2681.0,2000.0,156.0,161.0,121.0,159,71,124,104,86
2025-03-17 18:56:09.860,-41.0,2084.0,1793.0,137.0,234.0,38.0,161,70,128,98,88
2025-03-17 18:56:09.884,-36.0,1394.0,1651.0,88.0,337.0,-68.0,166,75,136,100,92
2025-03-17 18:56:09.909,-605.0,646.0,1091.0,-22.0,320.0,-146.0,166,79,150,89,91
2025-03-17 18:56:09.933,-541.0,-350.0,614.0,26.0,240.0,-156.0,167,79,146,73,86
2025-03-17 18:56:09.958,-683.0,-412.0,206.0,107.0,273.0,-126.0,144,73,145,69,84
2025-03-17 18:56:09.982,-695.0,-267.0,-19.0,127.0,231.0,-78.0,157,77,154,37,70
2025-03-17 18:56:09.992,-840.0,-370.0,-39.0,179.0,214.0,-33.0,155,84,155,23,65
2025-03-17 18:56:10.028,-718.0,308.0,-141.0,130.0,182.0,-15.0,153,91,157,22,69
2025-03-17 18:56:10.047,-590.0,761.0,-605.0,137.0,125.0,-19.0,162,104,115,29,76
2025-03-17 18:56:10.077,-359.0,1264.0,-1053.0,97.0,17.0,-88.0,168,109,175,40,87
2025-03-17 18:56:10.101,-331.0,2091.0,-1702.0,105.0,-147.0,-344.0,171,135,192,57,98
2025-03-17 18:56:10.126,-258.0,2391.0,-2344.0,16.0,-470.0,-708.0,174,163,214,81,112
2025-03-17 18:56:10.150,1451.0,2037.0,-2663.0,-31.0,-917.0,-945.0,141,127,161,64,73
2025-03-17 18:56:10.175,4867.0,-1654.0,729.0,-279.0,-1156.0,-812.0,118,64,154,35,36
2025-03-17 18:56:10.194,5878.0,-3963.0,3545.0,33.0,-620.0,-139.0,119,37,162,37,79
2025-03-17 18:56:10.221,3541.0,-3777.0,3081.0,185.0,85.0,137.0,119,85,165,36,90
2025-03-17 18:56:10.243,745.0,-1502.0,1279.0,148.0,292.0,151.0,113,98,117,30,85
2025-03-17 18:56:10.269,45.0,-835.0,1467.0,-105.0,92.0,207.0,148,122,172,92,120
2025-03-17 18:56:10.294,-17.0,-1007.0,1119.0,-71.0,181.0,187.0,135,137,188,114,109
2025-03-17 18:56:10.318,-57.0,-902.0,928.0,22.0,276.0,219.0,127,115,159,111,99
2025-03-17 18:56:10.342,-106.0,-597.0,584.0,45.0,280.0,257.0,127,127,164,113,102
2025-03-17 18:56:10.364,-75.0,-342.0,485.0,39.0,272.0,278.0,106,88,147,74,76
2025-03-17 18:56:10.389,-36.0,-300.0,448.0,52.0,275.0,280.0,115,123,164,84,83
2025-03-17 18:56:10.413,-297.0,-120.0,289.0,59.0,250.0,278.0,120,122,174,73,92
2025-03-17 18:56:10.437,-255.0,-77.0,386.0,79.0,265.0,267.0,121,119,172,49,87
2025-03-17 18:56:10.462,-526.0,16.0,12.0,94.0,264.0,260.0,139,124,183,49,98
2025-03-17 18:56:10.486,-662.0,454.0,-109.0,113.0,212.0,235.0,174,158,223,96,125
2025-03-17 18:56:10.511,-777.0,1506.0,-711.0,43.0,113.0,126.0,177,160,222,87,128
2025-03-17 18:56:10.533,-1048.0,2475.0,-2343.0,-25.0,-122.0,-157.0,146,152,198,53,97
2025-03-17 18:56:10.557,-520.0,3151.0,-2650.0,-55.0,-481.0,-568.0,136,149,158,48,91
2025-03-17 18:56:10.580,144.0,2666.0,-1836.0,-203.0,-923.0,-872.0,108,125,162,24,63
2025-03-17 18:56:10.606,5715.0,-2089.0,902.0,-390.0,-1045.0,-850.0,104,106,146,20,72
2025-03-17 18:56:10.630,5621.0,-5815.0,1195.0,-67.0,-742.0,-133.0,145,108,198,104,112
2025-03-17 18:56:10.654,3117.0,-3038.0,2927.0,215.0,120.0,67.0,163,135,210,133,138
2025-03-17 18:56:10.671,-137.0,-754.0,378.0,152.0,136.0,60.0,128,90,150,102,98
2025-03-17 18:56:10.702,-213.0,-585.0,1395.0,-25.0,40.0,61.0,117,113,99,113,101
2025-03-17 18:56:10.719,-183.0,-644.0,1265.0,70.0,72.0,50.0,133,149,192,137,116
2025-03-17 18:56:10.751,-32.0,-488.0,888.0,158.0,167.0,27.0,131,123,157,136,116
2025-03-17 18:56:10.776,-22.0,-165.0,914.0,195.0,217.0,-8.0,143,131,179,133,118
2025-03-17 18:56:10.798,17.0,-206.0,801.0,198.0,236.0,-17.0,146,129,189,117,123
2025-03-17 18:56:10.823,-31.0,-322.0,816.0,208.0,242.0,-7.0,145,135,143,91,125
2025-03-17 18:56:10.847,-162.0,-272.0,564.0,213.0,190.0,16.0,134,87,99,74,90
2025-03-17 18:56:10.872,-281.0,-8.0,986.0,208.0,172.0,-21.0,138,61,144,40,78
2025-03-17 18:56:10.895,-431.0,-417.0,618.0,214.0,188.0,4.0,143,62,152,25,73
2025-03-17 18:56:10.920,-668.0,-157.0,291.0,325.0,80.0,30.0,146,46,140,27,69
2025-03-17 18:56:10.931,-686.0,-60.0,-409.0,303.0,-75.0,29.0,159,66,134,33,91
2025-03-17 18:56:10.966,332.0,-733.0,1083.0,53.0,-149.0,87.0,165,76,136,90,103
2025-03-17 18:56:10.991,1354.0,-2397.0,2435.0,-85.0,-18.0,256.0,156,70,142,96,106
2025-03-17 18:56:11.015,1570.0,-2613.0,2061.0,-56.0,123.0,567.0,164,64,150,95,103
2025-03-17 18:56:11.039,1196.0,-122.0,1605.0,-144.0,87.0,678.0,157,63,138,92,84
2025-03-17 18:56:11.064,777.0,2066.0,1556.0,-122.0,106.0,480.0,149,59,123,95,82
2025-03-17 18:56:11.088,227.0,2347.0,690.0,8.0,206.0,252.0,150,52,112,80,72
2025-03-17 18:56:11.109,-290.0,3127.0,186.0,88.0,179.0,80.0,154,58,129,85,72
2025-03-17 18:56:11.134,-490.0,3260.0,-176.0,3.0,66.0,-122.0,167,72,126,97,82
2025-03-17 18:56:11.159,-196.0,1750.0,146.0,-28.0,-40.0,-242.0,159,71,140,109,87
2025-03-17 18:56:11.182,-72.0,283.0,377.0,6.0,-107.0,-214.0,167,79,149,118,92
2025-03-17 18:56:11.207,169.0,-67.0,1035.0,15.0,-37.0,-174.0,168,79,149,115,102
2025-03-17 18:56:11.232,15.0,-44.0,1125.0,67.0,-34.0,-140.0,169,74,150,116,102
2025-03-17 18:56:11.257,-268.0,-129.0,1252.0,56.0,-5.0,-113.0,145,55,130,97,79
2025-03-17 18:56:11.278,-467.0,12.0,801.0,59.0,-7.0,-121.0,142,60,133,99,81
2025-03-17 18:56:11.302,-683.0,157.0,641.0,73.0,-56.0,-152.0,149,62,136,101,84
2025-03-17 18:56:11.326,-469.0,373.0,755.0,69.0,-87.0,-154.0,152,57,136,101,84
2025-03-17 18:56:11.351,-527.0,127.0,631.0,51.0,-102.0,-168.0,147,70,142,106,89
2025-03-17 18:56:11.376,-141.0,-1033.0,618.0,32.0,-185.0,-122.0,154,76,151,110,98
2025-03-17 18:56:11.400,1237.0,-3318.0,2627.0,-28.0,-49.0,145.0,152,81,152,114,100
2025-03-17 18:56:11.424,1556.0,-3571.0,2768.0,-118.0,186.0,410.0,159,84,153,119,102
2025-03-17 18:56:11.448,421.0,-1358.0,1400.0,-238.0,105.0,569.0,160,74,148,112,91
2025-03-17 18:56:11.470,789.0,1463.0,1157.0,-136.0,90.0,509.0,153,65,138,104,84
2025-03-17 18:56:11.495,219.0,3350.0,106.0,4.0,122.0,276.0,142,59,128,96,72
2025-03-17 18:56:11.519,-190.0,3463.0,692.0,37.0,112.0,75.0,152,66,128,84,76
2025-03-17 18:56:11.543,53.0,2823.0,1562.0,33.0,162.0,-63.0,169,77,126,106,93
2025-03-17 18:56:11.567,-271.0,1152.0,1767.0,-51.0,209.0,-145.0,170,80,114,109,96
2025-03-17 18:56:11.592,-78.0,-100.0,1489.0,-238.0,260.0,-170.0,172,84,149,87,99
2025-03-17 18:56:11.617,-407.0,-954.0,797.0,41.0,251.0,-145.0,172,81,154,87,101
2025-03-17 18:56:11.638,-532.0,-396.0,646.0,186.0,311.0,-93.0,173,82,156,53,92
2025-03-17 18:56:11.660,-468.0,-347.0,-9.0,16.0,311.0,-102.0,150,57,136,15,43
2025-03-17 18:56:11.688,-700.0,-544.0,78.0,91.0,278.0,-79.0,155,58,125,19,32
2025-03-17 18:56:11.701,-716.0,61.0,57.0,101.0,240.0,-2.0,152,55,133,25,72
2025-03-17 18:56:11.731,-391.0,556.0,-755.0,91.0,161.0,36.0,148,56,133,21,85
2025-03-17 18:56:11.761,-321.0,1166.0,-1034.0,88.0,73.0,18.0,143,63,139,28,95
2025-03-17 18:56:11.785,-470.0,1615.0,-1526.0,93.0,-48.0,-70.0,153,69,141,35,111
2025-03-17 18:56:11.809,-478.0,2388.0,-1683.0,-82.0,-187.0,-342.0,168,82,149,53,91
2025-03-17 18:56:11.830,-624.0,2781.0,-2921.0,-129.0,-347.0,-739.0,150,70,130,45,73
2025-03-17 18:56:11.847,3852.0,2865.0,-2207.0,-343.0,-976.0,-1249.0,132,59,116,31,61
2025-03-17 18:56:11.878,8355.0,-1190.0,206.0,-305.0,-1232.0,-1017.0,130,47,70,38,70
2025-03-17 18:56:11.904,7707.0,-7697.0,2496.0,-308.0,-111.0,17.0,125,57,110,33,69
2025-03-17 18:56:11.928,2193.0,-5654.0,-863.0,543.0,333.0,204.0,136,77,118,82,89
2025-03-17 18:56:11.953,594.0,-204.0,961.0,189.0,154.0,270.0,141,74,142,90,90
2025-03-17 18:56:11.978,23.0,-1271.0,960.0,-44.0,112.0,203.0,139,72,136,93,91
2025-03-17 18:56:12.000,146.0,-1396.0,1447.0,10.0,161.0,251.0,121,45,104,68,66
2025-03-17 18:56:12.023,147.0,-804.0,1184.0,49.0,266.0,266.0,129,53,114,78,72
2025-03-17 18:56:12.047,175.0,-518.0,846.0,36.0,354.0,302.0,121,50,117,72,69
2025-03-17 18:56:12.072,85.0,-304.0,477.0,-4.0,342.0,310.0,129,48,109,77,70
2025-03-17 18:56:12.096,198.0,-257.0,-18.0,44.0,320.0,331.0,136,62,124,78,68
2025-03-17 18:56:12.107,-49.0,148.0,114.0,67.0,320.0,322.0,148,67,132,93,83
2025-03-17 18:56:12.145,-459.0,22.0,-226.0,42.0,289.0,296.0,152,68,140,93,88
2025-03-17 18:56:12.159,-501.0,168.0,-396.0,55.0,198.0,277.0,154,72,134,92,89
2025-03-17 18:56:12.191,-584.0,650.0,-658.0,84.0,115.0,246.0,156,66,128,65,87
2025-03-17 18:56:12.204,-770.0,1790.0,-904.0,98.0,52.0,140.0,139,51,111,13,59
2025-03-17 18:56:12.240,-473.0,2647.0,-1753.0,56.0,-77.0,-159.0,141,51,117,13,63
2025-03-17 18:56:12.259,-553.0,2797.0,-2043.0,18.0,-244.0,-495.0,144,56,108,16,66
2025-03-17 18:56:12.289,-125.0,3020.0,-2634.0,-22.0,-550.0,-904.0,148,60,120,27,74
2025-03-17 18:56:12.313,4257.0,2189.0,376.0,-27.0,-1120.0,-1220.0,144,60,120,33,79
2025-03-17 18:56:12.337,8433.0,-4556.0,2944.0,-178.0,-704.0,-523.0,153,51,124,73,83
2025-03-17 18:56:12.362,4535.0,-6322.0,3044.0,374.0,242.0,115.0,139,71,133,75,98
2025-03-17 18:56:12.373,671.0,-954.0,235.0,174.0,320.0,270.0,161,62,140,86,103
2025-03-17 18:56:12.405,-239.0,-1170.0,1431.0,34.0,110.0,169.0,138,43,119,67,84
2025-03-17 18:56:12.430,-97.0,-1769.0,855.0,178.0,109.0,258.0,133,47,99,72,81
2025-03-17 18:56:12.456,-269.0,-530.0,698.0,151.0,206.0,291.0,148,50,105,42,85
2025-03-17 18:56:12.481,-456.0,-195.0,2.0,279.0,184.0,238.0,147,55,115,46,82
2025-03-17 18:56:12.502,-21.0,-701.0,-215.0,132.0,63.0,240.0,145,61,123,41,103
2025-03-17 18:56:12.519,-269.0,-189.0,1392.0,186.0,-52.0,282.0,161,58,138,31,112
2025-03-17 18:56:12.551,-225.0,28.0,544.0,178.0,106.0,251.0,162,55,138,31,82
2025-03-17 18:56:12.575,-241.0,-198.0,466.0,215.0,105.0,254.0,162,57,137,30,69
2025-03-17 18:56:12.600,-332.0,79.0,488.0,226.0,88.0,248.0,164,57,136,30,83
2025-03-17 18:56:12.625,-719.0,1700.0,-266.0,141.0,23.0,168.0,150,41,119,14,99
2025-03-17 18:56:12.649,-1235.0,1951.0,-599.0,79.0,-146.0,-5.0,150,35,94,13,116
2025-03-17 18:56:12.673,-1218.0,2795.0,-897.0,106.0,-284.0,-180.0,138,50,125,20,128
2025-03-17 18:56:12.696,-1359.0,2947.0,-985.0,182.0,-386.0,-335.0,157,53,132,25,130
2025-03-17 18:56:12.719,-344.0,2388.0,-491.0,202.0,-580.0,-381.0,161,61,133,44,142
2025-03-17 18:56:12.731,2473.0,255.0,2396.0,48.0,-546.0,-277.0,154,58,133,54,147
2025-03-17 18:56:12.768,2948.0,-1146.0,3581.0,-19.0,-65.0,-205.0,163,67,109,58,148
2025-03-17 18:56:12.793,1963.0,-1667.0,2004.0,-31.0,176.0,-68.0,168,57,144,59,153
2025-03-17 18:56:12.817,1314.0,-1141.0,3110.0,-94.0,331.0,43.0,144,55,132,47,137
2025-03-17 18:56:12.842,522.0,-1085.0,533.0,31.0,173.0,135.0,147,54,136,67,135
2025-03-17 18:56:12.861,95.0,-388.0,704.0,-99.0,91.0,218.0,157,50,138,77,143
2025-03-17 18:56:12.887,-270.0,316.0,561.0,-80.0,-37.0,242.0,155,45,139,76,141
2025-03-17 18:56:12.911,-280.0,827.0,1251.0,-139.0,33.0,189.0,140,51,150,49,150
2025-03-17 18:56:12.933,-359.0,654.0,785.0,-60.0,57.0,133.0,161,63,143,67,155
2025-03-17 18:56:12.961,-378.0,831.0,883.0,-33.0,66.0,111.0,166,66,134,81,156
2025-03-17 18:56:12.985,-396.0,865.0,993.0,-54.0,90.0,99.0,169,68,140,92,156
2025-03-17 18:56:13.010,-405.0,601.0,911.0,-21.0,105.0,70.0,165,49,140,60,152
2025-03-17 18:56:13.031,-510.0,734.0,679.0,-6.0,86.0,47.0,145,38,128,45,139
2025-03-17 18:56:13.055,-352.0,790.0,743.0,-29.0,86.0,33.0,147,40,130,51,129
2025-03-17 18:56:13.079,-448.0,883.0,674.0,-27.0,110.0,48.0,152,52,136,67,134
2025-03-17 18:56:13.104,-813.0,1416.0,0.0,26.0,145.0,7.0,157,59,141,85,149
2025-03-17 18:56:13.128,-1527.0,2779.0,-1143.0,144.0,97.0,-196.0,148,54,86,68,133
2025-03-17 18:56:13.153,-2098.0,3238.0,-2092.0,76.0,-273.0,-424.0,149,50,134,81,144
2025-03-17 18:56:13.178,885.0,1838.0,-673.0,-113.0,-677.0,-553.0,150,54,133,53,142
2025-03-17 18:56:13.202,4105.0,-2315.0,2402.0,34.0,-763.0,-253.0,154,61,146,53,100
2025-03-17 18:56:13.223,4067.0,-1315.0,5394.0,94.0,106.0,-73.0,137,29,114,39,100
2025-03-17 18:56:13.247,2139.0,-1643.0,4600.0,-32.0,537.0,-14.0,145,39,130,32,118
2025-03-17 18:56:13.272,337.0,-214.0,1642.0,-202.0,452.0,68.0,126,49,139,67,129
2025-03-17 18:56:13.297,176.0,-826.0,805.0,-320.0,356.0,134.0,147,54,138,65,111
2025-03-17 18:56:13.321,-212.0,-585.0,622.0,-300.0,160.0,254.0,169,75,154,83,89
2025-03-17 18:56:13.345,-43.0,-121.0,1246.0,-238.0,344.0,265.0,171,76,146,89,99
2025-03-17 18:56:13.370,-950.0,104.0,-48.0,-68.0,215.0,275.0,169,71,157,53,133
2025-03-17 18:56:13.391,-689.0,66.0,-3.0,-32.0,174.0,283.0,160,78,163,39,137
2025-03-17 18:56:13.415,-634.0,623.0,318.0,-23.0,178.0,253.0,150,91,176,40,151
2025-03-17 18:56:13.434,-957.0,500.0,83.0,-44.0,143.0,193.0,123,70,156,77,131
2025-03-17 18:56:13.465,-875.0,750.0,64.0,-40.0,123.0,99.0,112,77,154,109,126
2025-03-17 18:56:13.489,-613.0,719.0,197.0,9.0,112.0,43.0,124,78,159,115,139
2025-03-17 18:56:13.513,-504.0,993.0,-288.0,-80.0,78.0,-2.0,127,93,166,120,150
2025-03-17 18:56:13.531,-457.0,1549.0,-904.0,-75.0,10.0,-84.0,123,91,165,120,148
2025-03-17 18:56:13.562,-637.0,2019.0,-1959.0,-135.0,-166.0,-293.0,128,94,170,128,154
2025-03-17 18:56:13.579,-409.0,1961.0,-2465.0,-144.0,-332.0,-685.0,120,90,128,118,145
2025-03-17 18:56:13.612,720.0,1437.0,-1077.0,-428.0,-514.0,-939.0,128,115,159,128,147
2025-03-17 18:56:13.637,3862.0,659.0,-339.0,-473.0,-856.0,-1006.0,121,103,154,115,92
2025-03-17 18:56:13.661,5598.0,-4168.0,1832.0,-541.0,-417.0,-656.0,122,88,159,118,74
2025-03-17 18:56:13.684,4301.0,-7560.0,951.0,220.0,144.0,198.0,118,56,143,120,134
2025-03-17 18:56:13.700,1645.0,-2077.0,575.0,415.0,343.0,450.0,161,109,193,146,172
2025-03-17 18:56:13.731,131.0,-908.0,225.0,186.0,123.0,367.0,126,98,161,120,138
2025-03-17 18:56:13.755,22.0,-1056.0,627.0,-13.0,114.0,323.0,128,111,160,121,141
2025-03-17 18:56:13.780,6.0,-649.0,753.0,75.0,211.0,318.0,116,97,148,111,132
2025-03-17 18:56:13.804,-87.0,-195.0,317.0,151.0,215.0,354.0,111,104,150,111,133
2025-03-17 18:56:13.829,-164.0,-31.0,234.0,166.0,202.0,361.0,117,100,150,112,132
2025-03-17 18:56:13.854,-76.0,-101.0,14.0,135.0,227.0,370.0,122,100,157,118,139
2025-03-17 18:56:13.878,-326.0,240.0,-272.0,214.0,224.0,356.0,120,91,155,115,137
2025-03-17 18:56:13.899,-341.0,550.0,-446.0,192.0,125.0,319.0,123,91,160,120,124
2025-03-17 18:56:13.924,-521.0,952.0,-260.0,172.0,93.0,251.0,123,88,160,120,135
2025-03-17 18:56:13.948,-656.0,1634.0,-806.0,143.0,26.0,103.0,122,89,159,120,139
2025-03-17 18:56:13.973,-735.0,2370.0,-2083.0,-84.0,-113.0,-216.0,112,86,150,108,132
2025-03-17 18:56:13.997,-832.0,2208.0,-1746.0,-185.0,-372.0,-699.0,115,87,152,111,135
2025-03-17 18:56:14.021,-221.0,1882.0,-1094.0,-181.0,-543.0,-984.0,108,95,150,111,131
2025-03-17 18:56:14.045,3837.0,-367.0,828.0,-494.0,-713.0,-973.0,113,88,152,113,119
2025-03-17 18:56:14.071,3969.0,-4258.0,364.0,-152.0,-294.0,-433.0,115,40,154,107,128
2025-03-17 18:56:14.091,3185.0,-5202.0,2322.0,88.0,35.0,196.0,118,72,154,79,133
2025-03-17 18:56:14.116,934.0,-1907.0,1022.0,279.0,293.0,362.0,112,74,152,100,137
2025-03-17 18:56:14.140,-762.0,-210.0,435.0,56.0,201.0,276.0,119,102,152,110,139
2025-03-17 18:56:14.164,-558.0,-581.0,783.0,103.0,119.0,208.0,121,98,131,118,139
2025-03-17 18:56:14.188,-505.0,-619.0,141.0,73.0,152.0,190.0,114,82,129,106,133
2025-03-17 18:56:14.212,-528.0,-510.0,228.0,163.0,123.0,205.0,112,66,121,65,132
2025-03-17 18:56:14.235,-236.0,-434.0,612.0,55.0,112.0,207.0,106,53,111,4,129
2025-03-17 18:56:14.260,-298.0,-496.0,270.0,114.0,75.0,243.0,117,52,130,7,131
2025-03-17 18:56:14.283,-84.0,-660.0,299.0,54.0,20.0,298.0,120,37,132,8,125
2025-03-17 18:56:14.308,-197.0,-394.0,146.0,91.0,12.0,326.0,123,35,119,8,124
2025-03-17 18:56:14.333,-129.0,203.0,333.0,124.0,-2.0,317.0,124,40,115,9,128
2025-03-17 18:56:14.357,-534.0,103.0,588.0,95.0,1.0,263.0,124,49,125,8,130
2025-03-17 18:56:14.382,-725.0,1036.0,94.0,111.0,-19.0,239.0,111,44,111,3,124
2025-03-17 18:56:14.406,-1278.0,3255.0,-1034.0,218.0,-61.0,-24.0,109,44,123,4,130
2025-03-17 18:56:14.428,-1955.0,4475.0,-2340.0,265.0,-299.0,-320.0,105,29,113,4,131
2025-03-17 18:56:14.452,-908.0,4151.0,-1480.0,158.0,-670.0,-523.0,110,37,62,4,131
2025-03-17 18:56:14.476,2503.0,942.0,501.0,-33.0,-900.0,-492.0,108,40,108,7,137
2025-03-17 18:56:14.501,4540.0,-2734.0,4324.0,200.0,-397.0,-217.0,127,42,93,12,141
2025-03-17 18:56:14.525,2591.0,-1378.0,3830.0,-22.0,162.0,-130.0,137,44,100,70,135
2025-03-17 18:56:14.549,1424.0,-2213.0,1792.0,-87.0,187.0,41.0,138,53,125,74,141
2025-03-17 18:56:14.574,695.0,-1475.0,855.0,-104.0,209.0,130.0,113,49,135,49,113
2025-03-17 18:56:14.595,91.0,-866.0,315.0,-83.0,152.0,186.0,118,42,119,32,135
2025-03-17 18:56:14.619,-395.0,63.0,604.0,-19.0,73.0,181.0,120,39,134,44,121
2025-03-17 18:56:14.641,-296.0,207.0,1030.0,-63.0,82.0,194.0,115,46,132,56,89
2025-03-17 18:56:14.666,-247.0,466.0,913.0,-4.0,120.0,170.0,119,47,90,60,121
2025-03-17 18:56:14.693,-383.0,729.0,682.0,18.0,141.0,144.0,122,51,125,63,136
2025-03-17 18:56:14.717,-454.0,712.0,572.0,37.0,129.0,127.0,126,46,131,74,140
2025-03-17 18:56:14.738,-500.0,828.0,466.0,38.0,126.0,112.0,123,48,117,72,141
2025-03-17 18:56:14.763,-533.0,884.0,398.0,17.0,88.0,90.0,125,54,137,64,142
2025-03-17 18:56:14.787,-726.0,1674.0,98.0,15.0,71.0,59.0,120,39,132,49,136
2025-03-17 18:56:14.812,-1092.0,2826.0,-669.0,5.0,61.0,-79.0,116,26,128,47,137
2025-03-17 18:56:14.837,-1784.0,3144.0,-1666.0,81.0,-85.0,-288.0,113,36,104,44,133
2025-03-17 18:56:14.861,-980.0,2911.0,-1403.0,51.0,-489.0,-458.0,116,47,103,55,139
2025-03-17 18:56:14.885,2407.0,-315.0,1615.0,9.0,-584.0,-402.0,116,43,119,73,141
2025-03-17 18:56:14.908,3723.0,-1948.0,4660.0,-18.0,-132.0,-182.0,128,47,136,71,140
2025-03-17 18:56:14.931,1962.0,-2646.0,2698.0,-119.0,150.0,-53.0,119,48,135,90,141
2025-03-17 18:56:14.955,674.0,-1010.0,-304.0,-205.0,72.0,46.0,121,37,136,60,128
2025-03-17 18:56:14.968,264.0,-1616.0,454.0,-53.0,89.0,118.0,165,88,183,137,163
2025-03-17 18:56:15.005,-470.0,-177.0,1134.0,-79.0,70.0,164.0,138,59,144,90,147
2025-03-17 18:56:15.029,-443.0,395.0,1490.0,-131.0,143.0,151.0,138,55,135,99,145
2025-03-17 18:56:15.053,-619.0,174.0,1294.0,-111.0,169.0,155.0,145,61,124,87,150
2025-03-17 18:56:15.078,-308.0,322.0,1457.0,-70.0,243.0,147.0,153,63,149,92,147
2025-03-17 18:56:15.097,-232.0,471.0,948.0,-83.0,311.0,131.0,153,68,146,78,151
2025-03-17 18:56:15.124,-367.0,375.0,568.0,-70.0,318.0,124.0,162,80,162,77,155
2025-03-17 18:56:15.148,-612.0,89.0,109.0,-21.0,260.0,113.0,163,70,164,36,153
2025-03-17 18:56:15.173,-771.0,277.0,72.0,-30.0,243.0,117.0,166,85,168,36,152
2025-03-17 18:56:15.197,-787.0,554.0,54.0,-28.0,241.0,92.0,151,65,126,16,125
2025-03-17 18:56:15.221,-519.0,763.0,-630.0,-49.0,188.0,34.0,152,88,143,20,113
2025-03-17 18:56:15.246,-1053.0,1275.0,-1832.0,-26.0,24.0,-123.0,143,89,158,17,49
2025-03-17 18:56:15.267,-958.0,2152.0,-2566.0,9.0,-274.0,-385.0,145,101,159,19,83
2025-03-17 18:56:15.290,134.0,2479.0,-2709.0,-158.0,-698.0,-611.0,123,111,133,29,72
2025-03-17 18:56:15.316,1591.0,190.0,-1025.0,-148.0,-917.0,-653.0,139,133,154,41,94
2025-03-17 18:56:15.340,2827.0,-745.0,240.0,-122.0,-967.0,-455.0,125,101,151,31,83
2025-03-17 18:56:15.365,4290.0,-3217.0,2623.0,-313.0,-488.0,-194.0,131,75,171,38,96
2025-03-17 18:56:15.389,3502.0,-4341.0,2304.0,108.0,98.0,86.0,122,29,135,49,83
2025-03-17 18:56:15.413,942.0,-1864.0,1596.0,134.0,271.0,135.0,107,42,141,55,68
2025-03-17 18:56:15.435,243.0,-1319.0,1128.0,-38.0,164.0,200.0,109,90,124,62,71
2025-03-17 18:56:15.460,52.0,-1001.0,1051.0,-5.0,171.0,187.0,112,107,157,72,76
2025-03-17 18:56:15.484,-4.0,-589.0,652.0,38.0,248.0,189.0,114,117,151,86,88
2025-03-17 18:56:15.495,-114.0,-400.0,560.0,53.0,254.0,189.0,121,99,138,83,84
2025-03-17 18:56:15.533,-83.0,-302.0,401.0,54.0,243.0,192.0,127,125,159,91,94
2025-03-17 18:56:15.557,-60.0,-250.0,438.0,79.0,262.0,190.0,130,126,168,96,95
2025-03-17 18:56:15.581,-109.0,-192.0,102.0,102.0,247.0,205.0,133,136,158,85,98
2025-03-17 18:56:15.602,-238.0,-3.0,244.0,78.0,246.0,223.0,116,115,158,53,85
2025-03-17 18:56:15.628,-578.0,272.0,52.0,25.0,221.0,231.0,122,108,158,60,84
2025-03-17 18:56:15.652,-408.0,649.0,-353.0,43.0,219.0,213.0,122,113,106,52,87
2025-03-17 18:56:15.676,-1362.0,1819.0,-1834.0,69.0,21.0,45.0,123,120,156,16,56
2025-03-17 18:56:15.701,-1464.0,3091.0,-3096.0,40.0,-422.0,-369.0,126,131,165,83,72
2025-03-17 18:56:15.725,-81.0,2931.0,-2822.0,-67.0,-853.0,-687.0,111,130,169,68,78
2025-03-17 18:56:15.749,2919.0,-281.0,175.0,-56.0,-971.0,-703.0,117,126,170,80,89
2025-03-17 18:56:15.775,5444.0,-3777.0,2920.0,21.0,-650.0,-324.0,126,62,126,90,101
2025-03-17 18:56:15.791,3995.0,-3939.0,3342.0,66.0,82.0,87.0,130,52,171,107,111
2025-03-17 18:56:15.817,1022.0,-1417.0,1771.0,107.0,293.0,91.0,110,64,137,79,89
2025-03-17 18:56:15.841,211.0,-1256.0,859.0,24.0,225.0,139.0,116,59,141,93,96
2025-03-17 18:56:15.870,-222.0,-723.0,525.0,120.0,163.0,158.0,127,84,140,58,91
2025-03-17 18:56:15.894,-221.0,-446.0,652.0,133.0,184.0,147.0,124,104,160,61,104
2025-03-17 18:56:15.914,-359.0,-463.0,79.0,159.0,135.0,154.0,139,94,156,67,100
2025-03-17 18:56:15.939,59.0,-314.0,727.0,256.0,132.0,165.0,147,84,127,65,108
2025-03-17 18:56:15.963,-429.0,-116.0,591.0,191.0,106.0,180.0,145,58,118,26,114
2025-03-17 18:56:15.988,-178.0,30.0,463.0,83.0,61.0,203.0,143,53,144,26,114
2025-03-17 18:56:16.012,-70.0,-60.0,553.0,129.0,34.0,199.0,142,36,130,12,109
2025-03-17 18:56:16.037,-208.0,748.0,436.0,103.0,18.0,152.0,143,49,112,15,101
2025-03-17 18:56:16.060,-625.0,1418.0,575.0,144.0,46.0,58.0,142,43,115,44,118
2025-03-17 18:56:16.085,-1138.0,2175.0,-171.0,207.0,44.0,-71.0,132,53,129,66,124
2025-03-17 18:56:16.110,-1914.0,2980.0,-1050.0,234.0,-91.0,-216.0,139,59,135,82,136
2025-03-17 18:56:16.133,-1228.0,2269.0,-1152.0,227.0,-335.0,-323.0,137,54,140,74,139
2025-03-17 18:56:16.156,868.0,978.0,357.0,202.0,-526.0,-291.0,141,53,120,91,137
2025-03-17 18:56:16.180,2615.0,-386.0,2987.0,-22.0,-391.0,-163.0,143,47,134,84,126
2025-03-17 18:56:16.205,2583.0,-1521.0,3380.0,-112.0,-69.0,-20.0,147,51,133,95,118
2025-03-17 18:56:16.229,2039.0,-1469.0,3180.0,-32.0,197.0,37.0,123,30,131,73,120
2025-03-17 18:56:16.254,640.0,-374.0,1178.0,-41.0,234.0,99.0,133,39,133,51,137
2025-03-17 18:56:16.278,-52.0,-27.0,902.0,-64.0,163.0,137.0,143,44,141,78,146
2025-03-17 18:56:16.299,-314.0,393.0,880.0,-69.0,105.0,144.0,144,48,143,76,131
2025-03-17 18:56:16.323,-338.0,500.0,594.0,-89.0,112.0,152.0,140,49,137,91,137
2025-03-17 18:56:16.348,-377.0,682.0,575.0,-64.0,149.0,132.0,153,57,143,87,150
2025-03-17 18:56:16.373,-416.0,785.0,583.0,-2.0,144.0,105.0,151,56,139,86,149
2025-03-17 18:56:16.397,-383.0,841.0,493.0,5.0,139.0,91.0,151,61,141,67,134
2025-03-17 18:56:16.422,-317.0,829.0,594.0,-26.0,147.0,79.0,141,51,125,62,121
2025-03-17 18:56:16.443,-361.0,850.0,472.0,-2.0,170.0,77.0,142,54,136,61,137
2025-03-17 18:56:16.467,-686.0,1523.0,-99.0,25.0,184.0,33.0,139,48,136,59,141
2025-03-17 18:56:16.491,-1128.0,2593.0,-1129.0,13.0,143.0,-106.0,135,46,131,73,132
2025-03-17 18:56:16.516,-1918.0,2723.0,-2690.0,15.0,-152.0,-275.0,135,50,135,61,127
2025-03-17 18:56:16.540,-804.0,2161.0,-2163.0,43.0,-569.0,-388.0,138,55,127,58,136
2025-03-17 18:56:16.565,2336.0,86.0,1149.0,-118.0,-707.0,-327.0,144,58,138,65,140
2025-03-17 18:56:16.589,3856.0,-2404.0,4244.0,-112.0,-312.0,-114.0,165,72,144,93,153
2025-03-17 18:56:16.615,2237.0,-2119.0,3467.0,-66.0,163.0,-27.0,152,61,142,89,127
2025-03-17 18:56:16.639,1466.0,-2104.0,2936.0,-38.0,446.0,38.0,146,60,152,80,155
2025-03-17 18:56:16.663,-65.0,-912.0,1420.0,-71.0,234.0,116.0,181,97,177,117,176
2025-03-17 18:56:16.685,-411.0,-37.0,1328.0,-95.0,197.0,143.0,163,77,161,101,156
2025-03-17 18:56:16.709,-468.0,340.0,1255.0,-133.0,249.0,138.0,158,72,147,103,149
2025-03-17 18:56:16.734,-617.0,284.0,1136.0,-103.0,276.0,130.0,186,102,173,126,120
2025-03-17 18:56:16.758,-452.0,230.0,897.0,-137.0,293.0,127.0,169,88,162,103,78
2025-03-17 18:56:16.781,-149.0,57.0,806.0,-136.0,335.0,111.0,156,72,151,100,74
2025-03-17 18:56:16.797,-422.0,351.0,593.0,-103.0,376.0,117.0,154,67,146,91,99
2025-03-17 18:56:16.831,-630.0,241.0,49.0,-83.0,335.0,121.0,154,67,146,90,106
2025-03-17 18:56:16.852,-612.0,76.0,-294.0,-79.0,271.0,118.0,163,79,154,101,81
2025-03-17 18:56:16.877,-499.0,213.0,-455.0,-15.0,233.0,90.0,161,77,141,92,105
2025-03-17 18:56:16.888,-440.0,1063.0,-1069.0,-3.0,166.0,51.0,165,78,151,100,101
2025-03-17 18:56:16.925,-191.0,1844.0,-2036.0,5.0,40.0,-62.0,161,74,141,92,81
2025-03-17 18:56:16.950,-82.0,2573.0,-3692.0,-48.0,-228.0,-346.0,149,72,141,88,68
2025-03-17 18:56:16.974,440.0,2749.0,-3573.0,10.0,-552.0,-661.0,127,45,115,50,45
2025-03-17 18:56:16.999,1710.0,2676.0,-4248.0,-12.0,-1106.0,-950.0,137,51,122,57,65
2025-03-17 18:56:17.021,8473.0,-68.0,1107.0,-323.0,-1460.0,-827.0,135,37,57,23,55
2025-03-17 18:56:17.045,8162.0,-8632.0,5501.0,-75.0,-76.0,3.0,138,55,120,70,77
2025-03-17 18:56:17.069,1547.0,-3415.0,-2.0,481.0,395.0,188.0,132,55,93,82,71
2025-03-17 18:56:17.089,-341.0,-182.0,2505.0,-110.0,168.0,157.0,126,48,134,64,73
2025-03-17 18:56:17.106,60.0,-1672.0,2178.0,-48.0,157.0,177.0,148,63,153,103,94
2025-03-17 18:56:17.142,-204.0,-917.0,1733.0,15.0,233.0,219.0,124,47,117,97,73
2025-03-17 18:56:17.166,-188.0,-551.0,1367.0,-50.0,292.0,196.0,118,55,94,81,65
2025-03-17 18:56:17.186,-38.0,-477.0,1115.0,-87.0,287.0,202.0,119,45,100,84,60
2025-03-17 18:56:17.211,111.0,-466.0,566.0,-33.0,341.0,216.0,117,49,112,86,58
2025-03-17 18:56:17.237,-204.0,-393.0,95.0,-17.0,329.0,262.0,124,35,112,90,62
2025-03-17 18:56:17.259,-11.0,-42.0,301.0,7.0,296.0,277.0,135,53,122,100,71
2025-03-17 18:56:17.285,-170.0,-121.0,37.0,46.0,273.0,284.0,137,58,130,101,73
2025-03-17 18:56:17.310,-305.0,65.0,-225.0,93.0,266.0,271.0,137,62,133,102,75
2025-03-17 18:56:17.334,-405.0,519.0,-208.0,82.0,192.0,257.0,142,67,131,89,74
2025-03-17 18:56:17.356,-455.0,978.0,-990.0,67.0,109.0,195.0,144,66,135,97,73
2025-03-17 18:56:17.380,-197.0,1959.0,-2097.0,77.0,12.0,20.0,129,51,119,75,53
2025-03-17 18:56:17.405,-542.0,3495.0,-3555.0,52.0,-256.0,-416.0,125,55,120,81,48
2025-03-17 18:56:17.421,-17.0,2788.0,-3689.0,-14.0,-686.0,-783.0,121,54,118,76,53
2025-03-17 18:56:17.453,2928.0,2421.0,-2419.0,-29.0,-1258.0,-942.0,117,37,93,61,54
2025-03-17 18:56:17.478,6488.0,-3158.0,4125.0,-244.0,-809.0,-435.0,128,49,129,77,65
2025-03-17 18:56:17.494,4533.0,-6058.0,4703.0,110.0,196.0,-134.0,147,60,152,114,98
2025-03-17 18:56:17.526,1013.0,-1906.0,221.0,385.0,406.0,196.0,148,82,145,116,97
2025-03-17 18:56:17.548,-814.0,496.0,137.0,-68.0,47.0,14.0,148,81,157,120,103
2025-03-17 18:56:17.572,-428.0,-1168.0,500.0,-95.0,-48.0,4.0,123,51,103,96,74
2025-03-17 18:56:17.598,-795.0,-530.0,1043.0,1.0,0.0,-11.0,127,59,104,95,72
2025-03-17 18:56:17.622,-186.0,-871.0,773.0,-30.0,5.0,-18.0,122,52,114,88,66
2025-03-17 18:56:17.646,-108.0,-802.0,724.0,-24.0,-4.0,-8.0,124,59,116,91,69
2025-03-17 18:56:17.671,-64.0,-836.0,893.0,-7.0,-4.0,14.0,135,69,126,100,80
2025-03-17 18:56:17.692,-32.0,-689.0,717.0,48.0,11.0,30.0,134,69,124,103,81
2025-03-17 18:56:17.714,-146.0,-450.0,710.0,30.0,21.0,26.0,137,76,138,106,83
2025-03-17 18:56:17.731,-242.0,-536.0,678.0,5.0,-3.0,15.0,137,75,138,110,85
2025-03-17 18:56:17.762,-237.0,-546.0,827.0,3.0,-10.0,13.0,138,76,122,109,85
2025-03-17 18:56:17.789,-192.0,-558.0,864.0,9.0,13.0,5.0,119,56,110,89,62
2025-03-17 18:56:17.811,-198.0,-608.0,818.0,-4.0,16.0,2.0,122,61,113,95,66
2025-03-17 18:56:17.827,-225.0,-683.0,709.0,-1.0,1.0,4.0,125,62,119,97,70
2025-03-17 18:56:17.860,-154.0,-603.0,797.0,-3.0,-8.0,0.0,126,63,114,95,69
2025-03-17 18:56:17.884,-180.0,-679.0,816.0,-4.0,6.0,2.0,130,68,127,100,75
2025-03-17 18:56:17.909,-212.0,-598.0,791.0,1.0,12.0,1.0,135,74,136,109,83
2025-03-17 18:56:17.933,-219.0,-621.0,741.0,-4.0,0.0,-1.0,131,70,128,101,75
2025-03-17 18:56:17.956,-172.0,-678.0,762.0,-4.0,-8.0,-3.0,142,80,136,112,87
2025-03-17 18:56:17.982,-154.0,-695.0,827.0,3.0,0.0,1.0,140,76,118,113,83
2025-03-17 18:56:18.006,-207.0,-664.0,779.0,12.0,5.0,6.0,125,64,125,97,71
2025-03-17 18:56:18.028,-216.0,-611.0,820.0,9.0,8.0,5.0,121,57,121,92,65
2025-03-17 18:56:18.052,-244.0,-582.0,809.0,4.0,9.0,2.0,123,60,122,94,66
2025-03-17 18:56:18.077,-239.0,-579.0,780.0,1.0,7.0,-2.0,137,74,133,106,80
2025-03-17 18:56:18.101,-184.0,-632.0,802.0,0.0,9.0,-5.0,136,72,131,103,79
2025-03-17 18:56:18.112,-207.0,-661.0,762.0,-3.0,12.0,-2.0,135,75,129,107,82
2025-03-17 18:56:18.150,-249.0,-657.0,679.0,6.0,9.0,1.0,136,74,137,108,84
2025-03-17 18:56:18.175,-247.0,-583.0,697.0,-4.0,-8.0,-2.0,150,89,150,121,96
2025-03-17 18:56:18.196,-167.0,-663.0,793.0,-8.0,-8.0,-5.0,126,62,124,91,69
2025-03-17 18:56:18.221,-173.0,-715.0,825.0,-3.0,5.0,4.0,121,58,120,89,63
2025-03-17 18:56:18.246,-236.0,-616.0,742.0,2.0,5.0,4.0,126,64,117,96,70
2025-03-17 18:56:18.270,-248.0,-596.0,696.0,3.0,2.0,1.0,124,62,116,96,69
2025-03-17 18:56:18.293,-268.0,-609.0,709.0,-6.0,-4.0,-2.0,138,77,131,109,83
2025-03-17 18:56:18.318,-220.0,-673.0,776.0,-7.0,-9.0,-3.0,139,80,134,112,86
2025-03-17 18:56:18.342,-202.0,-689.0,787.0,6.0,-2.0,4.0,132,71,123,104,79
2025-03-17 18:56:18.363,-221.0,-605.0,768.0,1.0,-2.0,2.0,134,71,123,103,78
2025-03-17 18:56:18.386,-230.0,-605.0,770.0,-5.0,-3.0,0.0,130,68,129,99,74
2025-03-17 18:56:18.413,-227.0,-645.0,778.0,-1.0,1.0,1.0,123,59,121,91,67
2025-03-17 18:56:18.435,-236.0,-614.0,762.0,3.0,1.0,2.0,121,60,120,92,66
2025-03-17 18:56:18.462,-222.0,-609.0,781.0,-2.0,-1.0,-1.0,130,68,115,100,75
2025-03-17 18:56:18.484,-221.0,-633.0,790.0,-7.0,0.0,-1.0,141,79,128,111,86
2025-03-17 18:56:18.511,-228.0,-632.0,767.0,-2.0,0.0,0.0,136,75,129,109,88
2025-03-17 18:56:18.532,-231.0,-600.0,750.0,-5.0,-6.0,-3.0,140,79,133,112,88
2025-03-17 18:56:18.556,-203.0,-653.0,771.0,-3.0,-7.0,-3.0,140,79,136,112,86
2025-03-17 18:56:18.579,-209.0,-651.0,781.0,4.0,2.0,1.0,140,79,139,112,87
2025-03-17 18:56:18.605,-215.0,-611.0,781.0,1.0,1.0,-2.0,122,60,121,93,66
2025-03-17 18:56:18.629,-220.0,-641.0,787.0,-4.0,-2.0,-2.0,128,66,125,99,72
2025-03-17 18:56:18.654,-200.0,-687.0,806.0,-3.0,0.0,2.0,128,66,121,98,73
2025-03-17 18:56:18.678,-218.0,-645.0,797.0,2.0,5.0,3.0,126,65,118,97,71
2025-03-17 18:56:18.700,-236.0,-595.0,768.0,-4.0,0.0,-1.0,132,72,125,103,76
2025-03-17 18:56:18.724,-213.0,-634.0,798.0,-4.0,-1.0,0.0,138,78,133,111,86
2025-03-17 18:56:18.749,-222.0,-627.0,805.0,1.0,2.0,2.0,138,76,133,109,84
2025-03-17 18:56:18.773,-223.0,-605.0,791.0,-1.0,4.0,2.0,138,76,132,110,85
2025-03-17 18:56:18.797,-213.0,-621.0,791.0,-6.0,4.0,0.0,134,74,126,105,80
2025-03-17 18:56:18.822,-246.0,-647.0,763.0,-2.0,6.0,3.0,125,64,120,96,74
2025-03-17 18:56:18.846,-255.0,-618.0,762.0,1.0,5.0,3.0,120,58,115,92,65
2025-03-17 18:56:18.867,-245.0,-600.0,779.0,-5.0,4.0,-1.0,126,63,123,97,71
2025-03-17 18:56:18.890,-240.0,-643.0,757.0,-7.0,1.0,-3.0,135,72,130,105,80
2025-03-17 18:56:18.906,-223.0,-670.0,761.0,-8.0,0.0,-1.0,134,72,130,105,80
2025-03-17 18:56:18.938,-238.0,-697.0,751.0,2.0,0.0,3.0,135,76,133,108,83
2025-03-17 18:56:18.954,-268.0,-646.0,734.0,5.0,2.0,6.0,136,76,133,109,83
2025-03-17 18:56:18.990,-290.0,-600.0,745.0,2.0,1.0,3.0,137,75,133,108,85
2025-03-17 18:56:19.014,-276.0,-626.0,764.0,-4.0,-3.0,0.0,121,58,118,92,65
2025-03-17 18:56:19.035,-242.0,-662.0,798.0,-2.0,0.0,0.0,122,60,120,95,67
2025-03-17 18:56:19.059,-232.0,-671.0,775.0,3.0,4.0,3.0,125,64,123,99,70
2025-03-17 18:56:19.085,-226.0,-653.0,744.0,3.0,5.0,4.0,126,64,125,98,72
2025-03-17 18:56:19.109,-229.0,-618.0,726.0,0.0,3.0,3.0,132,71,132,103,77
2025-03-17 18:56:19.133,-233.0,-664.0,731.0,2.0,1.0,3.0,137,75,135,108,81
2025-03-17 18:56:19.158,-222.0,-690.0,766.0,14.0,6.0,10.0,138,77,137,109,84
2025-03-17 18:56:19.182,-258.0,-611.0,750.0,14.0,6.0,11.0,138,76,135,110,84
2025-03-17 18:56:19.204,-281.0,-546.0,776.0,1.0,0.0,6.0,135,73,133,107,80
2025-03-17 18:56:19.228,-280.0,-576.0,818.0,-6.0,-2.0,1.0,123,61,122,94,69
2025-03-17 18:56:19.252,-257.0,-601.0,826.0,-2.0,5.0,0.0,121,58,116,92,66
2025-03-17 18:56:19.277,-241.0,-646.0,794.0,-5.0,5.0,1.0,126,62,122,94,70
2025-03-17 18:56:19.302,-240.0,-632.0,781.0,-2.0,6.0,7.0,134,73,130,105,80
2025-03-17 18:56:19.312,-258.0,-564.0,773.0,-2.0,7.0,5.0,132,71,131,104,80
2025-03-17 18:56:19.350,-282.0,-547.0,742.0,-9.0,3.0,1.0,136,74,135,107,80
2025-03-17 18:56:19.375,-254.0,-613.0,742.0,-13.0,-1.0,0.0,136,75,135,109,83
2025-03-17 18:56:19.396,-238.0,-659.0,766.0,-1.0,3.0,7.0,138,76,136,110,85
2025-03-17 18:56:19.421,-250.0,-606.0,767.0,4.0,9.0,10.0,120,56,118,91,64
2025-03-17 18:56:19.445,-290.0,-582.0,752.0,0.0,6.0,9.0,122,60,122,94,69
2025-03-17 18:56:19.469,-305.0,-557.0,760.0,-3.0,2.0,5.0,124,63,124,97,72
2025-03-17 18:56:19.494,-322.0,-566.0,747.0,-8.0,-2.0,-1.0,126,65,126,98,73
2025-03-17 18:56:19.519,-309.0,-641.0,751.0,-13.0,-5.0,-3.0,128,69,129,102,77
2025-03-17 18:56:19.537,-314.0,-649.0,744.0,-3.0,-3.0,0.0,133,74,134,107,81
2025-03-17 18:56:19.563,-330.0,-611.0,742.0,-4.0,-3.0,-2.0,135,76,135,108,81
2025-03-17 18:56:19.589,-340.0,-627.0,773.0,-8.0,-4.0,-5.0,135,75,136,107,82
