timestamp,ax,ay,az,gx,gy,gz,flex1,flex2,flex3,flex4,flex5,emg1,emg2,emg3
2025-02-19 16:39:56.567,-399.0,-31.0,974.0,1.0,2.0,-2.0,140,116,101,136,141,436,514,474
2025-02-19 16:39:56.571,-408.0,-23.0,949.0,1.0,3.0,-2.0,140,116,101,137,140,543,568,471
2025-02-19 16:39:56.574,-417.0,-23.0,928.0,-2.0,2.0,-2.0,141,117,102,137,141,635,596,468
2025-02-19 16:39:56.576,-425.0,-21.0,914.0,-3.0,0.0,-2.0,140,116,101,136,140,691,601,462
2025-02-19 16:39:56.578,-420.0,-26.0,920.0,-1.0,-1.0,-2.0,141,117,102,137,141,731,584,457
2025-02-19 16:39:56.581,-421.0,-27.0,942.0,1.0,-1.0,-1.0,141,117,101,137,141,755,555,454
2025-02-19 16:39:56.584,-415.0,-24.0,948.0,0.0,0.0,-2.0,140,116,101,136,140,765,524,453
2025-02-19 16:39:56.586,-421.0,-31.0,946.0,-3.0,0.0,-1.0,141,116,102,137,141,763,483,459
2025-02-19 16:39:56.588,-427.0,-31.0,942.0,-2.0,-1.0,0.0,140,116,101,137,140,751,439,467
2025-02-19 16:39:56.588,-430.0,-26.0,941.0,-1.0,-1.0,0.0,141,117,101,137,141,736,399,480
2025-02-19 16:39:56.594,-423.0,-28.0,948.0,-1.0,0.0,-1.0,140,116,101,136,140,712,372,491
2025-02-19 16:39:56.613,-418.0,-38.0,950.0,-1.0,1.0,0.0,141,116,100,136,141,679,359,500
2025-02-19 16:39:56.633,-421.0,-32.0,945.0,0.0,1.0,0.0,141,117,102,137,141,640,359,504
2025-02-19 16:39:56.651,-428.0,-23.0,935.0,-3.0,0.0,0.0,140,116,101,136,140,601,369,504
2025-02-19 16:39:56.668,-428.0,-27.0,932.0,-3.0,-1.0,0.0,138,117,101,137,141,568,409,505
2025-02-19 16:39:56.691,-428.0,-34.0,930.0,-2.0,0.0,0.0,138,116,101,136,140,534,469,502
2025-02-19 16:39:56.708,-425.0,-33.0,930.0,-1.0,0.0,0.0,141,116,102,137,141,502,534,501
2025-02-19 16:39:56.728,-424.0,-32.0,933.0,-1.0,-1.0,0.0,141,117,102,137,141,471,591,499
2025-02-19 16:39:56.746,-423.0,-33.0,943.0,-1.0,0.0,0.0,141,116,100,136,141,441,634,495
2025-02-19 16:39:56.765,-428.0,-27.0,943.0,0.0,0.0,0.0,141,117,102,137,141,417,670,489
2025-02-19 16:39:56.786,-426.0,-22.0,943.0,-1.0,0.0,0.0,140,116,100,136,140,397,695,475
2025-02-19 16:39:56.801,-417.0,-32.0,941.0,0.0,0.0,0.0,141,116,102,137,141,382,711,470
2025-02-19 16:39:56.819,-421.0,-17.0,937.0,-1.0,1.0,0.0,140,116,101,137,140,362,714,471
2025-02-19 16:39:56.843,-440.0,-12.0,934.0,0.0,-2.0,-1.0,141,116,101,137,141,340,711,477
2025-02-19 16:39:56.860,-429.0,-14.0,943.0,-3.0,-1.0,-1.0,141,117,101,137,141,315,688,482
2025-02-19 16:39:56.880,-417.0,-23.0,937.0,-1.0,0.0,0.0,140,116,102,136,140,290,652,482
2025-02-19 16:39:56.900,-426.0,-21.0,944.0,0.0,1.0,0.0,141,117,102,137,141,269,608,479
2025-02-19 16:39:56.917,-425.0,-15.0,940.0,0.0,1.0,-1.0,141,116,100,137,140,250,549,478
2025-02-19 16:39:56.937,-421.0,-28.0,940.0,-1.0,0.0,-1.0,141,116,102,137,137,235,491,485
2025-02-19 16:39:56.958,-420.0,-31.0,940.0,0.0,0.0,-1.0,140,115,101,136,140,220,441,493
2025-02-19 16:39:56.972,-419.0,-28.0,938.0,-1.0,-1.0,-1.0,141,116,101,137,140,206,404,498
2025-02-19 16:39:56.995,-425.0,-25.0,928.0,0.0,-1.0,0.0,141,116,102,137,141,187,378,505
2025-02-19 16:39:57.012,-427.0,-13.0,940.0,0.0,-1.0,-1.0,141,116,101,136,140,163,361,506
2025-02-19 16:39:57.032,-424.0,-12.0,949.0,0.0,0.0,-1.0,141,116,101,137,141,140,358,506
2025-02-19 16:39:57.038,-423.0,-17.0,949.0,-2.0,1.0,-2.0,140,115,101,136,140,122,369,504
2025-02-19 16:39:57.069,-425.0,-33.0,935.0,-2.0,1.0,-2.0,141,117,102,137,141,109,394,503
2025-02-19 16:39:57.090,-431.0,-29.0,929.0,-2.0,0.0,-1.0,140,115,100,136,140,95,433,498
2025-02-19 16:39:57.109,-433.0,-24.0,930.0,-3.0,0.0,-1.0,141,116,102,136,141,81,485,496
2025-02-19 16:39:57.112,-425.0,-33.0,930.0,-1.0,-1.0,-1.0,141,116,101,137,141,64,543,490
2025-02-19 16:39:57.147,-421.0,-33.0,933.0,0.0,0.0,-1.0,140,116,101,136,140,45,596,477
2025-02-19 16:39:57.167,-426.0,-27.0,934.0,-1.0,0.0,-1.0,141,116,101,137,141,29,642,463
2025-02-19 16:39:57.184,-426.0,-31.0,938.0,-3.0,-1.0,0.0,140,115,101,136,140,17,673,451
2025-02-19 16:39:57.200,-418.0,-34.0,935.0,-3.0,-1.0,0.0,141,117,102,137,141,16,698,446
2025-02-19 16:39:57.221,-419.0,-41.0,941.0,0.0,0.0,0.0,140,115,99,136,140,15,706,448
2025-02-19 16:39:57.240,-423.0,-16.0,936.0,0.0,0.0,1.0,141,116,101,137,141,16,705,456
2025-02-19 16:39:57.261,-431.0,-7.0,930.0,-3.0,-1.0,0.0,141,116,101,138,141,16,689,464
2025-02-19 16:39:57.278,-427.0,-21.0,934.0,-2.0,-1.0,-1.0,140,116,102,136,140,17,656,468
2025-02-19 16:39:57.298,-433.0,-22.0,934.0,1.0,0.0,-1.0,141,117,102,136,141,20,615,470
2025-02-19 16:39:57.316,-430.0,-22.0,934.0,1.0,-1.0,-1.0,140,115,101,137,140,18,563,475
2025-02-19 16:39:57.336,-433.0,-21.0,939.0,-1.0,-2.0,0.0,141,117,101,137,141,16,512,488
2025-02-19 16:39:57.354,-434.0,-18.0,940.0,-1.0,-2.0,1.0,140,115,100,136,140,11,461,502
2025-02-19 16:39:57.371,-445.0,-12.0,944.0,-1.0,-1.0,0.0,141,117,101,137,141,10,420,512
2025-02-19 16:39:57.391,-432.0,-17.0,936.0,-1.0,0.0,-1.0,141,116,102,138,140,10,383,512
2025-02-19 16:39:57.410,-426.0,-25.0,942.0,1.0,0.0,-1.0,140,116,101,136,140,10,357,508
2025-02-19 16:39:57.430,-425.0,-20.0,947.0,0.0,-1.0,0.0,141,116,101,137,141,10,345,508
2025-02-19 16:39:57.449,-419.0,-19.0,943.0,-2.0,1.0,0.0,140,115,100,136,140,9,348,507
2025-02-19 16:39:57.469,-428.0,-28.0,927.0,-2.0,1.0,-1.0,141,116,101,137,141,10,368,501
2025-02-19 16:39:57.487,-432.0,-28.0,911.0,-1.0,-1.0,-1.0,140,115,100,136,140,9,396,492
2025-02-19 16:39:57.507,-430.0,-25.0,918.0,-1.0,-2.0,-1.0,141,117,102,137,140,10,440,483
2025-02-19 16:39:57.527,-423.0,-33.0,937.0,-2.0,-2.0,-1.0,141,111,102,137,141,10,486,476
2025-02-19 16:39:57.544,-422.0,-34.0,943.0,-2.0,-1.0,-1.0,137,116,101,137,140,9,527,464
2025-02-19 16:39:57.564,-422.0,-37.0,944.0,-2.0,-1.0,-1.0,141,116,102,137,141,11,563,452
2025-02-19 16:39:57.584,-419.0,-31.0,948.0,-1.0,-1.0,0.0,140,116,101,137,140,9,593,442
2025-02-19 16:39:57.602,-428.0,-27.0,945.0,-2.0,0.0,0.0,140,116,102,137,140,10,611,442
2025-02-19 16:39:57.621,-432.0,-26.0,931.0,-3.0,-1.0,1.0,139,116,101,137,140,14,618,448
2025-02-19 16:39:57.642,-438.0,-23.0,919.0,-3.0,-1.0,1.0,140,116,101,137,140,17,612,458
2025-02-19 16:39:57.659,-437.0,-20.0,921.0,-1.0,-1.0,1.0,141,116,101,137,141,19,597,467
2025-02-19 16:39:57.679,-434.0,-16.0,938.0,1.0,-2.0,1.0,140,116,101,136,140,18,569,473
2025-02-19 16:39:57.693,-439.0,-8.0,936.0,-1.0,-1.0,0.0,141,116,102,137,141,20,525,481
2025-02-19 16:39:57.716,-436.0,-18.0,927.0,-2.0,-2.0,0.0,140,116,101,137,140,18,471,486
2025-02-19 16:39:57.735,-435.0,-21.0,931.0,-1.0,-2.0,1.0,141,116,101,137,141,18,416,492
2025-02-19 16:39:57.753,-429.0,-11.0,946.0,1.0,-2.0,1.0,141,116,102,137,140,15,367,496
2025-02-19 16:39:57.773,-417.0,-2.0,954.0,-1.0,-2.0,1.0,140,116,101,137,140,10,317,498
2025-02-19 16:39:57.794,-426.0,-10.0,948.0,-3.0,-1.0,1.0,141,117,102,137,141,11,281,507
2025-02-19 16:39:57.810,-432.0,-21.0,928.0,-1.0,-1.0,1.0,140,116,101,136,140,9,261,512
2025-02-19 16:39:57.831,-435.0,-19.0,925.0,1.0,-2.0,2.0,141,117,102,137,140,10,262,519
2025-02-19 16:39:57.844,-439.0,-9.0,919.0,-1.0,-3.0,0.0,140,116,101,137,140,9,276,528
2025-02-19 16:39:57.868,-435.0,-10.0,937.0,-2.0,-3.0,0.0,141,116,101,137,141,10,305,534
2025-02-19 16:39:57.888,-433.0,-23.0,951.0,-2.0,-3.0,-1.0,141,116,101,137,141,10,348,533
2025-02-19 16:39:57.905,-433.0,-31.0,948.0,0.0,-1.0,0.0,140,116,101,138,140,9,403,522
2025-02-19 16:39:57.925,-427.0,-31.0,947.0,1.0,-1.0,0.0,141,116,101,137,141,10,455,507
2025-02-19 16:39:57.945,-431.0,-26.0,942.0,-1.0,-2.0,1.0,140,116,101,137,140,10,489,487
2025-02-19 16:39:57.962,-438.0,-25.0,933.0,-3.0,-3.0,1.0,141,116,101,137,141,10,517,474
2025-02-19 16:39:57.982,-429.0,-35.0,929.0,0.0,-2.0,2.0,140,115,101,136,140,8,534,462
2025-02-19 16:39:58.002,-423.0,-30.0,939.0,1.0,-2.0,3.0,140,116,101,137,141,10,537,458
2025-02-19 16:39:58.019,-417.0,-15.0,938.0,2.0,-2.0,2.0,141,116,102,138,141,10,532,463
2025-02-19 16:39:58.039,-429.0,-24.0,933.0,1.0,-1.0,3.0,140,116,101,137,140,9,517,472
2025-02-19 16:39:58.059,-425.0,-16.0,921.0,0.0,-3.0,4.0,141,116,101,138,141,10,490,484
2025-02-19 16:39:58.076,-424.0,-45.0,945.0,0.0,-5.0,5.0,140,115,101,137,140,9,447,506
2025-02-19 16:39:58.097,-404.0,-33.0,948.0,2.0,-4.0,7.0,141,116,101,137,141,10,391,540
2025-02-19 16:39:58.112,-410.0,-7.0,947.0,-3.0,-3.0,7.0,140,115,100,136,140,9,334,565
2025-02-19 16:39:58.133,-413.0,-15.0,935.0,-6.0,-4.0,7.0,141,116,101,137,140,4,289,592
2025-02-19 16:39:58.154,-401.0,-30.0,959.0,-3.0,-5.0,7.0,141,116,102,138,141,10,250,613
2025-02-19 16:39:58.171,-400.0,-18.0,988.0,0.0,-3.0,7.0,140,115,101,136,140,10,218,627
2025-02-19 16:39:58.191,-407.0,8.0,980.0,-2.0,0.0,7.0,141,116,102,138,140,10,191,639
2025-02-19 16:39:58.208,-414.0,48.0,924.0,-9.0,0.0,5.0,140,116,101,136,140,9,185,645
2025-02-19 16:39:58.227,-415.0,0.0,920.0,-16.0,-3.0,3.0,141,116,102,138,141,11,214,644
2025-02-19 16:39:58.248,-394.0,-42.0,946.0,-10.0,-4.0,4.0,140,115,101,136,139,9,265,624
2025-02-19 16:39:58.269,-387.0,-51.0,956.0,-2.0,0.0,5.0,141,117,102,137,141,11,328,594
2025-02-19 16:39:58.285,-395.0,-24.0,938.0,-1.0,2.0,5.0,141,116,102,137,138,10,401,554
2025-02-19 16:39:58.306,-403.0,-3.0,938.0,-7.0,0.0,4.0,140,116,101,136,140,9,471,513
2025-02-19 16:39:58.325,-398.0,-11.0,943.0,-16.0,-4.0,3.0,141,116,102,137,141,11,532,481
2025-02-19 16:39:58.342,-388.0,-31.0,915.0,-16.0,-6.0,4.0,140,115,100,137,139,9,586,457
2025-02-19 16:39:58.363,-395.0,-43.0,912.0,-12.0,-3.0,5.0,141,116,101,138,141,10,635,445
2025-02-19 16:39:58.380,-416.0,-43.0,882.0,-9.0,-1.0,4.0,140,115,100,132,140,8,670,426
2025-02-19 16:39:58.400,-430.0,-33.0,894.0,-4.0,-4.0,4.0,141,116,102,137,141,11,686,400
2025-02-19 16:39:58.420,-404.0,-30.0,924.0,0.0,-7.0,3.0,141,116,102,138,141,10,682,376
2025-02-19 16:39:58.437,-406.0,-41.0,970.0,-2.0,-7.0,5.0,140,115,101,137,140,32,659,368
2025-02-19 16:39:58.456,-398.0,-29.0,974.0,-4.0,-6.0,6.0,141,116,101,138,141,154,639,397
2025-02-19 16:39:58.473,-411.0,-16.0,939.0,-11.0,-7.0,5.0,140,115,101,137,140,384,604,457
2025-02-19 16:39:58.493,-422.0,-32.0,943.0,-14.0,-10.0,4.0,140,116,101,137,141,574,559,488
2025-02-19 16:39:58.515,-368.0,-88.0,980.0,0.0,-13.0,5.0,139,115,103,137,139,512,500,427
2025-02-19 16:39:58.535,-374.0,-58.0,1021.0,8.0,-6.0,8.0,140,116,100,137,140,435,409,382
2025-02-19 16:39:58.551,-401.0,6.0,1034.0,1.0,-2.0,8.0,141,116,101,137,141,383,311,362
2025-02-19 16:39:58.572,-422.0,35.0,995.0,-13.0,-4.0,3.0,140,116,101,137,140,430,238,390
2025-02-19 16:39:58.588,-417.0,-4.0,977.0,-18.0,-9.0,0.0,141,116,102,138,141,588,215,450
2025-02-19 16:39:58.609,-371.0,-65.0,1031.0,-7.0,-11.0,1.0,140,116,101,136,140,731,236,483
2025-02-19 16:39:58.629,-363.0,-49.0,1080.0,1.0,-3.0,6.0,140,116,101,137,141,745,300,466
2025-02-19 16:39:58.646,-381.0,24.0,1066.0,-1.0,6.0,5.0,140,116,101,137,140,620,398,440
2025-02-19 16:39:58.663,-422.0,42.0,1002.0,-9.0,11.0,2.0,140,116,101,137,140,499,505,423
2025-02-19 16:39:58.686,-434.0,18.0,958.0,-11.0,8.0,1.0,141,116,102,137,141,384,599,403
2025-02-19 16:39:58.704,-426.0,3.0,917.0,-8.0,7.0,-1.0,140,115,100,137,140,285,671,387
2025-02-19 16:39:58.722,-429.0,-32.0,916.0,-2.0,9.0,0.0,141,116,102,137,141,290,711,419
2025-02-19 16:39:58.744,-417.0,-17.0,891.0,3.0,9.0,-1.0,139,116,101,137,141,459,746,487
2025-02-19 16:39:58.761,-422.0,-8.0,904.0,1.0,6.0,-2.0,140,116,101,137,141,674,779,543
2025-02-19 16:39:58.781,-411.0,1.0,889.0,-8.0,3.0,-3.0,140,116,102,137,141,799,798,560
2025-02-19 16:39:58.801,-395.0,-31.0,870.0,-14.0,-1.0,-4.0,140,116,101,137,141,808,806,537
2025-02-19 16:39:58.818,-380.0,-74.0,876.0,-10.0,-3.0,-4.0,141,117,102,138,141,723,793,488
2025-02-19 16:39:58.838,-369.0,-78.0,889.0,-3.0,-3.0,-2.0,140,115,101,137,140,519,749,409
2025-02-19 16:39:58.855,-371.0,-38.0,873.0,-3.0,-2.0,-2.0,141,116,101,137,141,53,683,287
2025-02-19 16:39:58.875,-374.0,-14.0,840.0,-11.0,-5.0,-4.0,139,116,101,137,140,10,610,209
2025-02-19 16:39:58.896,-366.0,-3.0,807.0,-18.0,-11.0,-5.0,140,116,101,137,141,10,536,173
2025-02-19 16:39:58.911,-391.0,25.0,738.0,-31.0,-15.0,-9.0,140,116,101,138,141,10,466,156
2025-02-19 16:39:58.929,-417.0,36.0,714.0,-42.0,-24.0,-15.0,139,115,100,137,140,9,400,156
2025-02-19 16:39:58.953,-524.0,1.0,634.0,-53.0,-46.0,-20.0,140,115,101,137,141,10,399,192
2025-02-19 16:39:58.970,-593.0,46.0,660.0,-72.0,-77.0,-29.0,139,114,99,135,139,9,469,286
2025-02-19 16:39:58.990,-623.0,61.0,919.0,-145.0,-130.0,-36.0,140,114,98,136,140,11,582,406
2025-02-19 16:39:59.009,-355.0,-62.0,1895.0,-277.0,-150.0,-44.0,140,112,92,122,140,14,746,539
2025-02-19 16:39:59.027,-21.0,-515.0,2438.0,-456.0,-38.0,-81.0,141,109,84,133,139,112,843,545
2025-02-19 16:39:59.047,203.0,-1001.0,1822.0,-486.0,6.0,-66.0,142,99,75,129,126,339,904,485
2025-02-19 16:39:59.067,411.0,-1709.0,1900.0,-480.0,86.0,-5.0,141,86,67,120,109,836,984,343
2025-02-19 16:39:59.084,536.0,-1833.0,1595.0,-362.0,207.0,58.0,142,76,62,112,97,1017,993,24
2025-02-19 16:39:59.104,410.0,-1534.0,1032.0,-273.0,298.0,154.0,141,65,55,98,86,1018,1018,9
2025-02-19 16:39:59.121,216.0,-1035.0,533.0,-228.0,343.0,209.0,143,62,54,87,74,1018,1019,10
2025-02-19 16:39:59.141,78.0,-616.0,187.0,-233.0,328.0,252.0,141,59,51,75,66,756,1018,9
2025-02-19 16:39:59.162,-18.0,-331.0,144.0,-244.0,276.0,293.0,141,60,52,71,65,11,1018,10
2025-02-19 16:39:59.178,-77.0,-226.0,-120.0,-181.0,266.0,286.0,140,59,51,67,65,10,758,11
2025-02-19 16:39:59.200,22.0,179.0,-461.0,-115.0,209.0,271.0,141,65,57,71,70,19,24,18
2025-02-19 16:39:59.219,-428.0,895.0,-622.0,-35.0,159.0,242.0,133,62,54,66,64,15,16,15
2025-02-19 16:39:59.237,-533.0,1661.0,-919.0,-15.0,90.0,147.0,124,59,52,62,60,14,13,231
2025-02-19 16:39:59.256,-566.0,2437.0,-1315.0,17.0,-27.0,8.0,118,59,52,62,60,14,14,831
2025-02-19 16:39:59.275,-554.0,3184.0,-1797.0,146.0,-110.0,-230.0,111,59,50,60,56,87,12,1010
2025-02-19 16:39:59.293,-672.0,3677.0,-2268.0,213.0,-325.0,-547.0,110,60,51,60,58,352,14,1010
2025-02-19 16:39:59.313,-214.0,3763.0,-2292.0,153.0,-623.0,-844.0,112,60,50,62,61,677,13,1010
2025-02-19 16:39:59.333,2498.0,2948.0,-2126.0,-38.0,-961.0,-1076.0,115,59,50,63,64,938,13,1011
2025-02-19 16:39:59.351,7631.0,-2019.0,1097.0,-293.0,-922.0,-852.0,122,62,52,66,68,1018,13,1011
2025-02-19 16:39:59.370,8057.0,-8247.0,1828.0,-213.0,-56.0,-138.0,115,60,50,65,67,1018,304,1010
2025-02-19 16:39:59.388,3087.0,-6135.0,-11.0,372.0,309.0,21.0,117,62,51,68,72,1018,371,1009
2025-02-19 16:39:59.407,1203.0,-3542.0,622.0,173.0,185.0,251.0,119,61,51,69,72,1018,644,1009
2025-02-19 16:39:59.427,835.0,-2237.0,1424.0,-17.0,148.0,309.0,121,62,53,71,73,1017,1018,1010
2025-02-19 16:39:59.444,847.0,-1995.0,1106.0,-30.0,258.0,334.0,121,63,54,72,73,1018,1018,1010
2025-02-19 16:39:59.463,150.0,-1229.0,334.0,-18.0,274.0,388.0,121,62,54,72,74,1018,1018,1010
2025-02-19 16:39:59.484,-12.0,-570.0,197.0,-18.0,236.0,398.0,120,63,54,72,74,1018,870,1011
2025-02-19 16:39:59.499,-96.0,26.0,77.0,-47.0,227.0,374.0,119,61,54,71,72,1018,166,1009
2025-02-19 16:39:59.523,-214.0,151.0,-103.0,-69.0,192.0,344.0,120,62,55,73,73,1018,351,1010
2025-02-19 16:39:59.539,-296.0,139.0,-97.0,-55.0,146.0,302.0,120,62,54,72,72,1018,191,978
2025-02-19 16:39:59.559,-283.0,236.0,-57.0,-28.0,123.0,266.0,119,61,54,73,73,1018,10,521
2025-02-19 16:39:59.579,-369.0,433.0,-49.0,15.0,112.0,229.0,119,62,55,75,73,1017,10,646
2025-02-19 16:39:59.596,-392.0,754.0,-146.0,28.0,99.0,183.0,119,61,54,74,74,1018,9,788
2025-02-19 16:39:59.616,-531.0,987.0,-330.0,54.0,63.0,134.0,119,63,56,75,74,1018,11,839
2025-02-19 16:39:59.636,-581.0,1715.0,-752.0,121.0,25.0,24.0,118,61,54,74,73,1018,9,601
2025-02-19 16:39:59.651,-706.0,3135.0,-1234.0,232.0,-28.0,-206.0,114,62,55,73,73,1018,114,218
2025-02-19 16:39:59.674,-620.0,3958.0,-1790.0,213.0,-161.0,-501.0,107,62,54,70,68,1017,390,40
2025-02-19 16:39:59.694,-562.0,3389.0,-2154.0,155.0,-475.0,-860.0,110,61,53,69,66,1017,1006,278
2025-02-19 16:39:59.711,2169.0,2207.0,-1648.0,-2.0,-934.0,-1111.0,116,61,53,70,69,1018,1019,752
2025-02-19 16:39:59.721,5867.0,-989.0,1700.0,-450.0,-1121.0,-852.0,119,62,53,71,69,1018,1018,1009
2025-02-19 16:39:59.751,8126.0,-8735.0,1445.0,-459.0,-149.0,-236.0,114,63,53,72,71,1018,1018,976
2025-02-19 16:39:59.767,4412.0,-6995.0,-319.0,340.0,316.0,44.0,114,63,53,73,75,1018,576,367
2025-02-19 16:39:59.789,1122.0,-2742.0,-612.0,246.0,216.0,330.0,115,62,53,74,75,1018,605,8
2025-02-19 16:39:59.805,719.0,-1193.0,266.0,-40.0,48.0,277.0,120,65,56,76,79,1018,12,12
2025-02-19 16:39:59.825,752.0,-1675.0,383.0,-78.0,61.0,261.0,121,63,57,76,78,1018,11,87
2025-02-19 16:39:59.845,445.0,-1666.0,229.0,-62.0,88.0,336.0,123,64,56,79,80,1017,12,12
2025-02-19 16:39:59.862,181.0,-1089.0,97.0,-15.0,80.0,380.0,125,66,59,82,84,1017,359,13
2025-02-19 16:39:59.883,193.0,-522.0,214.0,-19.0,80.0,388.0,127,65,57,82,84,1018,45,12
2025-02-19 16:39:59.903,225.0,-349.0,227.0,-58.0,80.0,379.0,130,64,58,82,84,1017,11,11
2025-02-19 16:39:59.919,109.0,-363.0,191.0,-60.0,79.0,360.0,132,66,59,84,85,1018,11,12
2025-02-19 16:39:59.940,-127.0,-380.0,202.0,-57.0,52.0,367.0,134,66,60,85,86,1018,11,646
2025-02-19 16:39:59.957,-1.0,-265.0,165.0,-35.0,39.0,357.0,139,68,62,88,88,1018,13,493
2025-02-19 16:39:59.970,-21.0,-82.0,159.0,51.0,74.0,325.0,142,70,64,90,89,1018,14,63
2025-02-19 16:39:59.997,-202.0,419.0,119.0,114.0,98.0,271.0,143,69,63,89,88,1018,13,12
2025-02-19 16:40:00.015,-472.0,936.0,-13.0,149.0,116.0,205.0,146,71,65,90,89,1018,219,14
2025-02-19 16:40:00.033,-649.0,2076.0,-188.0,137.0,124.0,71.0,145,70,64,84,85,1018,1017,161
2025-02-19 16:40:00.054,-674.0,3228.0,-716.0,121.0,107.0,-214.0,147,70,64,80,80,1018,1018,697
2025-02-19 16:40:00.069,-958.0,3089.0,-1742.0,61.0,15.0,-466.0,142,67,62,76,73,1018,1018,955
2025-02-19 16:40:00.092,-1003.0,2734.0,-2191.0,93.0,-227.0,-746.0,139,63,58,74,70,1018,1019,1010
2025-02-19 16:40:00.111,407.0,2803.0,-2033.0,43.0,-624.0,-917.0,142,64,58,74,72,1018,1018,969
2025-02-19 16:40:00.128,3516.0,1252.0,-1661.0,-296.0,-971.0,-951.0,147,62,56,75,75,1018,1018,776
2025-02-19 16:40:00.148,6130.0,-2895.0,-355.0,-624.0,-846.0,-701.0,149,65,58,76,77,1018,1018,636
2025-02-19 16:40:00.169,7132.0,-7500.0,1067.0,-183.0,-33.0,-234.0,139,64,56,76,77,1018,1018,173
2025-02-19 16:40:00.181,3259.0,-5926.0,-1123.0,415.0,431.0,58.0,133,64,56,78,81,1017,1018,53
2025-02-19 16:40:00.206,1053.0,-2382.0,-1269.0,212.0,187.0,203.0,138,68,59,81,83,1017,1018,161
2025-02-19 16:40:00.223,880.0,-1700.0,-68.0,-22.0,3.0,211.0,140,66,58,80,81,1018,1018,747
2025-02-19 16:40:00.243,1057.0,-2244.0,393.0,1.0,80.0,271.0,141,67,59,80,82,1018,1018,1010
2025-02-19 16:40:00.262,737.0,-1564.0,15.0,32.0,149.0,376.0,139,65,57,78,80,1018,1018,1009
2025-02-19 16:40:00.279,279.0,-597.0,-152.0,108.0,133.0,343.0,140,67,60,81,82,1018,1018,708
2025-02-19 16:40:00.300,-48.0,-80.0,25.0,110.0,112.0,277.0,139,67,59,80,82,1018,1018,882
2025-02-19 16:40:00.321,-32.0,120.0,259.0,18.0,96.0,242.0,140,67,60,81,82,1018,1001,864
2025-02-19 16:40:00.335,-155.0,-189.0,197.0,-45.0,81.0,239.0,140,67,60,81,82,1018,14,289
2025-02-19 16:40:00.357,-215.0,-402.0,104.0,-48.0,60.0,258.0,138,66,59,80,81,1018,13,374
2025-02-19 16:40:00.375,32.0,-114.0,360.0,74.0,79.0,211.0,140,66,60,82,82,1018,14,598
2025-02-19 16:40:00.395,-94.0,141.0,382.0,119.0,149.0,160.0,137,66,60,81,81,1018,12,836
2025-02-19 16:40:00.415,-490.0,408.0,89.0,65.0,151.0,138.0,137,67,61,82,81,1018,14,1003
2025-02-19 16:40:00.432,-710.0,564.0,-140.0,69.0,114.0,89.0,135,66,60,81,80,1018,12,1005
2025-02-19 16:40:00.453,-669.0,821.0,-229.0,152.0,111.0,26.0,135,67,61,81,80,1018,13,1010
2025-02-19 16:40:00.473,-727.0,1630.0,-569.0,255.0,117.0,-81.0,134,66,59,80,78,1017,11,1010
2025-02-19 16:40:00.490,-1263.0,3159.0,-1109.0,173.0,51.0,-332.0,132,64,57,79,76,1018,11,1010
2025-02-19 16:40:00.510,-1194.0,3011.0,-1712.0,-112.0,-266.0,-592.0,131,63,57,78,76,1018,11,914
2025-02-19 16:40:00.530,1243.0,1041.0,-1575.0,-212.0,-504.0,-868.0,130,63,56,78,76,1018,11,729
2025-02-19 16:40:00.547,4442.0,-832.0,-249.0,-386.0,-649.0,-808.0,127,63,56,80,79,1018,40,911
2025-02-19 16:40:00.567,5687.0,-3862.0,698.0,-429.0,-376.0,-581.0,126,64,57,81,78,1018,1018,1010
2025-02-19 16:40:00.584,4294.0,-7228.0,-4.0,4.0,69.0,-103.0,127,66,58,83,81,1018,1018,926
2025-02-19 16:40:00.604,2532.0,-4097.0,-598.0,284.0,173.0,140.0,130,68,59,84,83,1018,1018,388
2025-02-19 16:40:00.624,1148.0,-1964.0,-175.0,91.0,85.0,203.0,132,70,61,86,85,1018,1018,248
2025-02-19 16:40:00.641,899.0,-1734.0,292.0,1.0,39.0,199.0,132,69,61,85,84,1019,1018,243
2025-02-19 16:40:00.661,786.0,-1770.0,146.0,-17.0,59.0,250.0,130,68,61,84,83,1018,1018,112
2025-02-19 16:40:00.681,759.0,-1615.0,7.0,-18.0,76.0,330.0,130,67,60,83,83,1018,1017,367
2025-02-19 16:40:00.698,710.0,-1222.0,44.0,29.0,73.0,369.0,131,68,60,83,83,1018,1018,939
2025-02-19 16:40:00.718,722.0,-729.0,277.0,49.0,113.0,374.0,129,65,58,81,82,1018,1018,934
2025-02-19 16:40:00.739,616.0,-531.0,348.0,35.0,159.0,380.0,131,68,62,84,85,1018,1018,642
2025-02-19 16:40:00.755,293.0,-446.0,78.0,53.0,178.0,387.0,128,66,59,82,86,1018,1018,11
2025-02-19 16:40:00.775,82.0,-258.0,93.0,79.0,173.0,379.0,129,67,61,84,88,1018,124,11
2025-02-19 16:40:00.796,453.0,-13.0,218.0,104.0,229.0,383.0,128,67,61,86,90,1019,79,209
2025-02-19 16:40:00.812,17.0,199.0,-59.0,178.0,266.0,371.0,128,69,62,89,91,1017,11,350
2025-02-19 16:40:00.833,-339.0,598.0,-325.0,171.0,251.0,320.0,128,70,63,92,96,1018,11,295
2025-02-19 16:40:00.852,-133.0,807.0,-617.0,145.0,232.0,247.0,126,72,64,96,100,1018,54,277
2025-02-19 16:40:00.870,-532.0,643.0,-682.0,252.0,182.0,218.0,126,76,68,102,103,1017,228,184
2025-02-19 16:40:00.890,-412.0,1508.0,-1446.0,282.0,111.0,135.0,125,80,69,108,108,1018,10,181
2025-02-19 16:40:00.910,-1278.0,2090.0,-1731.0,140.0,-51.0,-107.0,126,86,74,115,113,1017,11,327
2025-02-19 16:40:00.927,-879.0,2492.0,-2188.0,59.0,-254.0,-474.0,125,92,79,120,113,1018,11,520
2025-02-19 16:40:00.947,877.0,2645.0,-2000.0,-67.0,-211.0,-849.0,126,100,85,124,124,1018,11,588
2025-02-19 16:40:00.965,443.0,758.0,-275.0,-106.0,-864.0,-1040.0,129,116,93,125,135,1018,706,533
2025-02-19 16:40:00.985,3341.0,-1906.0,1309.0,-280.0,-952.0,-950.0,133,123,98,130,137,1018,1018,319
2025-02-19 16:40:01.005,6222.0,-2746.0,-2176.0,-281.0,-745.0,-599.0,138,126,101,135,144,1018,1018,243
2025-02-19 16:40:01.023,4357.0,-5430.0,-815.0,46.0,-466.0,-34.0,139,127,103,137,146,1018,1018,12
2025-02-19 16:40:01.042,2924.0,-4278.0,479.0,375.0,43.0,177.0,138,126,101,135,143,1017,1018,9
2025-02-19 16:40:01.062,1228.0,-2078.0,506.0,483.0,288.0,249.0,140,126,101,134,142,1018,1018,83
2025-02-19 16:40:01.079,566.0,-1220.0,818.0,297.0,282.0,313.0,143,128,102,135,142,1018,1017,662
2025-02-19 16:40:01.099,443.0,-709.0,721.0,32.0,250.0,311.0,144,129,102,136,142,1017,1018,1009
2025-02-19 16:40:01.117,227.0,-700.0,413.0,-264.0,222.0,281.0,143,128,102,135,139,1018,140,698
2025-02-19 16:40:01.137,-61.0,-341.0,430.0,-275.0,216.0,273.0,144,130,104,137,143,1018,264,552
2025-02-19 16:40:01.157,241.0,-825.0,235.0,-114.0,183.0,284.0,141,128,102,136,142,1018,11,459
2025-02-19 16:40:01.172,84.0,-534.0,229.0,25.0,234.0,316.0,147,133,109,141,148,1018,318,1010
2025-02-19 16:40:01.194,-80.0,-290.0,70.0,22.0,219.0,309.0,144,131,107,140,145,1018,638,1010
2025-02-19 16:40:01.214,-398.0,-59.0,-45.0,24.0,190.0,288.0,143,130,107,140,144,1018,16,508
2025-02-19 16:40:01.230,-387.0,137.0,224.0,43.0,176.0,259.0,142,129,107,140,142,1017,16,14
2025-02-19 16:40:01.251,-406.0,-78.0,10.0,90.0,164.0,229.0,139,128,106,139,140,1017,14,295
2025-02-19 16:40:01.269,-390.0,317.0,-147.0,101.0,150.0,207.0,140,127,107,139,139,1017,16,456
2025-02-19 16:40:01.285,-596.0,772.0,-259.0,158.0,137.0,168.0,137,125,106,138,135,1017,14,215
2025-02-19 16:40:01.305,-781.0,1750.0,-963.0,121.0,36.0,32.0,137,125,108,139,134,1017,15,33
2025-02-19 16:40:01.328,-873.0,2277.0,-1364.0,197.0,-81.0,-224.0,136,125,106,137,135,1018,13,343
2025-02-19 16:40:01.345,-787.0,2635.0,-1544.0,151.0,-315.0,-591.0,137,129,109,139,138,1018,15,1005
2025-02-19 16:40:01.365,160.0,1176.0,510.0,26.0,-580.0,-854.0,136,131,109,139,140,1018,15,1010
2025-02-19 16:40:01.385,2125.0,523.0,729.0,-358.0,-743.0,-1041.0,138,133,108,139,141,1018,501,1011
2025-02-19 16:40:01.401,4561.0,-3579.0,17.0,-295.0,-579.0,-761.0,139,135,109,141,146,1018,1018,1010
2025-02-19 16:40:01.422,5247.0,-5946.0,-148.0,-131.0,-229.0,-48.0,137,132,105,140,146,1018,1018,1009
2025-02-19 16:40:01.440,3239.0,-4780.0,275.0,203.0,190.0,290.0,138,133,106,140,147,1018,1018,914
2025-02-19 16:40:01.460,1055.0,-1980.0,441.0,329.0,243.0,320.0,138,131,103,139,144,1018,1018,406
2025-02-19 16:40:01.480,1571.0,-1181.0,-3850.0,98.0,182.0,245.0,140,131,104,139,144,1017,1017,51
2025-02-19 16:40:01.497,-1.0,-1062.0,297.0,-100.0,91.0,223.0,142,133,105,140,143,1018,1018,15
2025-02-19 16:40:01.517,-175.0,-1191.0,335.0,-124.0,61.0,241.0,140,130,101,138,139,1018,1018,110
2025-02-19 16:40:01.537,-40.0,-987.0,193.0,-92.0,79.0,274.0,140,127,99,136,134,1018,1018,27
2025-02-19 16:40:01.554,3.0,-607.0,146.0,-54.0,101.0,293.0,139,123,93,134,126,1018,1018,93
2025-02-19 16:40:01.574,-76.0,-570.0,306.0,-37.0,106.0,294.0,143,124,92,135,121,1018,1023,16
2025-02-19 16:40:01.592,-122.0,-407.0,401.0,-19.0,105.0,281.0,142,121,89,131,117,1018,1018,14
2025-02-19 16:40:01.612,-112.0,-337.0,184.0,-3.0,87.0,283.0,142,117,86,127,113,1018,261,15
2025-02-19 16:40:01.632,-277.0,-449.0,160.0,24.0,70.0,297.0,143,110,82,124,108,1018,15,23
2025-02-19 16:40:01.648,158.0,-183.0,172.0,75.0,96.0,323.0,143,105,80,121,104,1017,15,28
2025-02-19 16:40:01.669,-182.0,59.0,125.0,171.0,114.0,320.0,144,97,80,119,102,1018,16,128
2025-02-19 16:40:01.689,-421.0,1123.0,284.0,216.0,173.0,208.0,143,84,74,108,91,1017,15,93
2025-02-19 16:40:01.706,-540.0,2341.0,-757.0,129.0,209.0,-64.0,141,81,71,95,90,1017,15,14
2025-02-19 16:40:01.726,-701.0,2873.0,-1437.0,32.0,91.0,-331.0,139,79,67,86,82,1018,14,121
2025-02-19 16:40:01.745,-586.0,2541.0,-2045.0,-48.0,-152.0,-623.0,137,74,60,77,72,1017,16,914
2025-02-19 16:40:01.760,100.0,2074.0,-2131.0,-66.0,-432.0,-840.0,139,70,58,70,68,1018,368,1010
2025-02-19 16:40:01.783,2080.0,1147.0,-1221.0,-183.0,-614.0,-980.0,141,64,55,67,66,1018,561,1010
2025-02-19 16:40:01.802,4082.0,-964.0,-341.0,-288.0,-787.0,-879.0,147,65,55,70,67,1018,1018,1010
2025-02-19 16:40:01.821,5276.0,-4668.0,770.0,-216.0,-471.0,-518.0,147,63,54,74,75,1018,1018,499
2025-02-19 16:40:01.838,4191.0,-5965.0,344.0,88.0,32.0,-80.0,145,62,53,73,76,1014,1018,11
2025-02-19 16:40:01.857,1918.0,-3885.0,-656.0,285.0,139.0,119.0,144,62,53,74,77,1017,1018,11
2025-02-19 16:40:01.878,788.0,-2163.0,-207.0,90.0,36.0,173.0,141,62,51,73,76,1018,1018,16
2025-02-19 16:40:01.897,824.0,-1926.0,204.0,7.0,2.0,190.0,141,64,54,75,78,1018,1018,649
2025-02-19 16:40:01.915,750.0,-1794.0,256.0,39.0,31.0,243.0,138,63,53,73,77,1018,1018,1010
2025-02-19 16:40:01.935,619.0,-1307.0,194.0,79.0,74.0,273.0,140,65,55,76,79,1018,1017,1010
2025-02-19 16:40:01.952,344.0,-776.0,154.0,121.0,115.0,248.0,139,65,55,75,79,1018,1016,1010
2025-02-19 16:40:01.972,74.0,-357.0,83.0,64.0,106.0,238.0,138,66,56,76,79,1018,1018,931
2025-02-19 16:40:01.992,-27.0,-388.0,81.0,-19.0,74.0,229.0,138,66,56,77,80,1018,689,280
2025-02-19 16:40:02.009,153.0,-290.0,304.0,19.0,42.0,186.0,138,66,56,77,79,1018,11,11
2025-02-19 16:40:02.026,50.0,-335.0,370.0,58.0,97.0,169.0,139,66,56,78,80,1017,13,50
2025-02-19 16:40:02.049,-28.0,-219.0,342.0,49.0,121.0,171.0,138,66,57,77,79,1018,12,90
2025-02-19 16:40:02.067,-159.0,-309.0,206.0,30.0,128.0,169.0,139,68,56,79,81,1018,12,250
2025-02-19 16:40:02.086,-270.0,-260.0,212.0,15.0,111.0,164.0,138,67,56,78,80,1018,10,696
2025-02-19 16:40:02.107,-99.0,-125.0,250.0,56.0,142.0,112.0,139,68,58,78,80,1018,12,1008
2025-02-19 16:40:02.124,-500.0,202.0,82.0,43.0,150.0,79.0,139,68,58,79,80,1018,12,901
2025-02-19 16:40:02.142,-856.0,1098.0,-103.0,52.0,134.0,-22.0,137,67,57,78,79,1018,510,507
2025-02-19 16:40:02.164,-1210.0,1789.0,-686.0,70.0,84.0,-164.0,138,69,57,78,78,1018,1018,277
2025-02-19 16:40:02.181,-1611.0,2168.0,-1470.0,52.0,-67.0,-353.0,137,64,55,75,76,1018,1018,10
2025-02-19 16:40:02.201,-1061.0,2272.0,-1520.0,-52.0,-302.0,-576.0,143,66,55,76,77,1018,1017,11
2025-02-19 16:40:02.222,870.0,1750.0,-1016.0,-255.0,-564.0,-786.0,144,64,54,76,76,1018,1018,335
2025-02-19 16:40:02.238,4316.0,-982.0,-133.0,-426.0,-650.0,-714.0,146,65,55,78,77,1018,1018,694
2025-02-19 16:40:02.256,5649.0,-5950.0,1143.0,-182.0,-166.0,-306.0,145,66,56,79,79,1017,1018,738
2025-02-19 16:40:02.275,3950.0,-5374.0,-633.0,323.0,255.0,58.0,138,64,53,77,82,1018,1017,741
2025-02-19 16:40:02.295,1302.0,-2416.0,-1288.0,140.0,147.0,158.0,139,65,55,79,83,1018,1018,437
2025-02-19 16:40:02.315,849.0,-1997.0,-288.0,-13.0,5.0,163.0,139,66,55,78,83,1018,1018,511
2025-02-19 16:40:02.327,771.0,-1979.0,214.0,48.0,28.0,185.0,139,67,57,80,83,1017,1018,554
2025-02-19 16:40:02.352,598.0,-1551.0,222.0,100.0,81.0,223.0,137,67,56,78,82,1019,1018,527
2025-02-19 16:40:02.373,320.0,-1119.0,78.0,93.0,105.0,247.0,138,68,56,80,83,1017,1018,33
2025-02-19 16:40:02.390,112.0,-750.0,73.0,5.0,78.0,259.0,138,67,57,79,84,1017,1018,11
2025-02-19 16:40:02.410,100.0,-583.0,154.0,-33.0,50.0,237.0,138,68,57,79,82,1018,1018,136
2025-02-19 16:40:02.427,202.0,-622.0,245.0,2.0,34.0,229.0,141,71,60,82,84,1018,1018,522
2025-02-19 16:40:02.446,458.0,-453.0,349.0,43.0,82.0,234.0,140,70,61,85,82,1017,1018,650
2025-02-19 16:40:02.467,387.0,-718.0,467.0,80.0,180.0,243.0,140,73,64,90,85,1018,994,464
2025-02-19 16:40:02.484,165.0,-708.0,212.0,109.0,217.0,296.0,139,75,66,91,85,1017,895,388
2025-02-19 16:40:02.504,137.0,-711.0,28.0,143.0,246.0,307.0,139,79,71,93,87,1018,787,533
2025-02-19 16:40:02.524,175.0,-182.0,-176.0,204.0,290.0,322.0,138,84,76,97,87,1018,449,559
2025-02-19 16:40:02.541,-30.0,173.0,-202.0,281.0,312.0,317.0,137,89,80,99,87,1018,10,292
2025-02-19 16:40:02.561,-407.0,463.0,-557.0,234.0,292.0,297.0,138,93,87,102,90,1018,11,750
2025-02-19 16:40:02.582,-831.0,1351.0,-1453.0,173.0,180.0,228.0,138,98,91,96,88,1018,10,1010
2025-02-19 16:40:02.599,-1550.0,1929.0,-1975.0,110.0,-117.0,-41.0,139,105,97,91,89,1017,10,1010
2025-02-19 16:40:02.620,-1448.0,2291.0,-1564.0,166.0,-328.0,-380.0,139,110,101,89,88,1018,10,1010
2025-02-19 16:40:02.639,-341.0,1886.0,-1425.0,109.0,-584.0,-610.0,138,115,104,87,88,1017,10,1011
2025-02-19 16:40:02.656,1119.0,1438.0,-1078.0,-64.0,-877.0,-662.0,139,122,106,89,90,1018,12,1010
2025-02-19 16:40:02.674,2911.0,-981.0,-170.0,-182.0,-1026.0,-619.0,139,127,107,94,90,1018,337,985
2025-02-19 16:40:02.696,4012.0,-2607.0,1723.0,-162.0,-645.0,-372.0,140,133,108,95,92,1018,1018,658
2025-02-19 16:40:02.713,4693.0,-4368.0,1308.0,-46.0,-158.0,-47.0,143,138,111,98,101,1018,1018,456
2025-02-19 16:40:02.734,2757.0,-3528.0,1420.0,242.0,225.0,96.0,142,136,110,97,99,1017,1017,360
2025-02-19 16:40:02.753,1022.0,-1792.0,1286.0,225.0,263.0,136.0,141,136,110,97,98,1013,1018,332
2025-02-19 16:40:02.771,533.0,-1301.0,1143.0,37.0,186.0,190.0,141,136,110,97,97,1017,1018,696
2025-02-19 16:40:02.790,394.0,-1156.0,959.0,-35.0,171.0,214.0,142,137,110,98,99,1018,1018,581
2025-02-19 16:40:02.807,272.0,-709.0,742.0,-39.0,200.0,214.0,142,137,110,98,98,1018,1018,188
2025-02-19 16:40:02.827,39.0,-736.0,611.0,-8.0,236.0,213.0,142,138,111,99,98,1018,837,234
2025-02-19 16:40:02.848,14.0,-619.0,332.0,37.0,244.0,219.0,141,136,110,98,96,1019,283,218
2025-02-19 16:40:02.861,-68.0,-372.0,254.0,57.0,225.0,208.0,143,137,112,99,98,1022,14,353
2025-02-19 16:40:02.885,-170.0,-165.0,252.0,27.0,196.0,189.0,143,137,111,98,97,1018,232,174
2025-02-19 16:40:02.902,-189.0,-182.0,320.0,8.0,183.0,150.0,143,137,112,98,97,1018,178,13
2025-02-19 16:40:02.922,-343.0,-341.0,328.0,19.0,180.0,140.0,143,137,111,98,97,1017,13,42
2025-02-19 16:40:02.942,-302.0,-227.0,231.0,39.0,169.0,136.0,142,135,110,97,96,1018,12,51
2025-02-19 16:40:02.959,-324.0,-50.0,370.0,8.0,177.0,125.0,143,136,111,97,97,1017,13,12
2025-02-19 16:40:02.978,-543.0,-115.0,227.0,-10.0,172.0,123.0,142,134,110,97,92,1018,12,11
2025-02-19 16:40:02.999,-510.0,-73.0,145.0,9.0,169.0,117.0,142,134,111,97,95,1018,12,12
2025-02-19 16:40:03.016,-665.0,449.0,-363.0,21.0,147.0,110.0,143,134,111,95,95,1018,12,12
2025-02-19 16:40:03.036,-1139.0,1198.0,-1186.0,37.0,32.0,-12.0,142,133,111,89,91,1018,11,10
2025-02-19 16:40:03.057,-1358.0,1732.0,-1684.0,157.0,-181.0,-235.0,143,134,113,86,88,1018,12,98
2025-02-19 16:40:03.074,-1452.0,2887.0,-1913.0,65.0,-485.0,-559.0,141,133,112,85,86,1018,234,847
2025-02-19 16:40:03.093,945.0,2677.0,-1769.0,-173.0,-889.0,-750.0,142,134,112,88,87,1017,375,1010
2025-02-19 16:40:03.114,3302.0,-1094.0,179.0,-142.0,-894.0,-787.0,140,134,115,88,91,1018,1018,1010
2025-02-19 16:40:03.132,4564.0,-2878.0,1956.0,65.0,-464.0,-413.0,141,136,110,89,96,1018,1018,953
2025-02-19 16:40:03.151,4629.0,-4010.0,1904.0,29.0,-41.0,-42.0,141,136,109,89,99,1018,1017,578
2025-02-19 16:40:03.171,2369.0,-2980.0,1661.0,106.0,113.0,77.0,141,136,109,90,99,1018,1018,11
2025-02-19 16:40:03.188,958.0,-1797.0,1336.0,-27.0,71.0,91.0,142,137,109,90,99,1018,1017,11
2025-02-19 16:40:03.208,854.0,-1953.0,946.0,-84.0,64.0,156.0,141,136,108,90,98,1018,1018,10
2025-02-19 16:40:03.226,650.0,-1536.0,943.0,-23.0,119.0,175.0,142,138,109,93,100,1018,1004,125
2025-02-19 16:40:03.245,265.0,-1098.0,832.0,2.0,164.0,187.0,142,131,107,92,99,1018,1018,576
2025-02-19 16:40:03.266,155.0,-836.0,820.0,-12.0,190.0,190.0,143,137,108,94,99,1017,1018,648
2025-02-19 16:40:03.283,161.0,-652.0,675.0,-62.0,197.0,192.0,143,135,107,94,99,1017,1017,346
2025-02-19 16:40:03.303,172.0,-557.0,456.0,-87.0,191.0,214.0,142,132,106,94,99,1018,1017,164
2025-02-19 16:40:03.323,39.0,-599.0,393.0,-81.0,170.0,220.0,143,132,103,98,101,1018,1017,118
2025-02-19 16:40:03.340,-29.0,-477.0,475.0,-74.0,173.0,223.0,143,127,100,102,101,1018,1018,10
2025-02-19 16:40:03.360,1.0,-307.0,393.0,-80.0,197.0,230.0,145,124,98,108,104,1019,1018,10
2025-02-19 16:40:03.380,8.0,-152.0,439.0,-109.0,225.0,238.0,145,114,89,110,104,1018,1017,10
2025-02-19 16:40:03.398,-187.0,-280.0,324.0,-111.0,234.0,246.0,146,103,81,112,103,1017,908,8
2025-02-19 16:40:03.418,-284.0,-351.0,116.0,-34.0,217.0,227.0,147,91,76,112,101,1017,28,10
2025-02-19 16:40:03.431,-376.0,313.0,108.0,47.0,228.0,146.0,146,80,70,110,99,1018,10,10
2025-02-19 16:40:03.454,-706.0,1039.0,-196.0,20.0,224.0,58.0,147,76,68,108,98,1017,11,23
2025-02-19 16:40:03.474,-809.0,1716.0,-1080.0,8.0,135.0,-121.0,145,72,61,102,93,1018,10,993
2025-02-19 16:40:03.492,-1480.0,2200.0,-2122.0,-48.0,-87.0,-288.0,138,71,58,93,84,1017,11,1010
2025-02-19 16:40:03.511,-1055.0,1930.0,-2070.0,-3.0,-330.0,-482.0,132,66,56,84,76,1018,10,1009
2025-02-19 16:40:03.532,582.0,1744.0,-1205.0,-19.0,-499.0,-698.0,135,63,55,81,77,1018,10,1010
2025-02-19 16:40:03.550,2119.0,889.0,-344.0,-265.0,-589.0,-794.0,139,61,53,81,78,1017,323,1011
2025-02-19 16:40:03.569,3722.0,-1622.0,400.0,-433.0,-596.0,-658.0,144,60,53,81,78,1018,1016,1010
2025-02-19 16:40:03.590,4821.0,-5545.0,1141.0,-164.0,-163.0,-314.0,144,61,53,81,80,1017,1018,700
2025-02-19 16:40:03.607,3117.0,-5079.0,-518.0,187.0,156.0,-43.0,142,60,52,79,81,1018,1018,370
2025-02-19 16:40:03.626,1349.0,-2883.0,-838.0,150.0,110.0,97.0,141,61,52,80,83,1017,845,180
2025-02-19 16:40:03.644,835.0,-2445.0,-271.0,-35.0,16.0,140.0,143,61,52,80,83,1018,950,417
2025-02-19 16:40:03.663,879.0,-2394.0,186.0,27.0,3.0,176.0,144,62,54,81,84,1018,1017,639
2025-02-19 16:40:03.682,677.0,-1945.0,178.0,82.0,45.0,231.0,144,63,55,82,85,1018,1018,363
2025-02-19 16:40:03.698,472.0,-1331.0,76.0,94.0,69.0,258.0,144,64,55,82,85,1018,1018,11
2025-02-19 16:40:03.720,248.0,-775.0,89.0,69.0,69.0,250.0,145,65,57,80,86,1013,1018,11
2025-02-19 16:40:03.741,169.0,-512.0,126.0,29.0,48.0,243.0,145,65,57,83,86,1009,1018,10
2025-02-19 16:40:03.758,145.0,-378.0,179.0,43.0,47.0,201.0,145,66,58,85,86,1004,1018,10
2025-02-19 16:40:03.777,15.0,-358.0,200.0,33.0,52.0,193.0,146,67,58,85,87,1000,1018,12
2025-02-19 16:40:03.795,-16.0,-244.0,212.0,37.0,56.0,178.0,145,66,58,85,87,995,1018,45
2025-02-19 16:40:03.815,-139.0,-39.0,205.0,45.0,70.0,144.0,146,67,59,86,89,991,204,449
2025-02-19 16:40:03.835,-258.0,22.0,186.0,20.0,74.0,116.0,146,67,54,85,88,986,10,808
2025-02-19 16:40:03.852,-348.0,-6.0,216.0,35.0,77.0,93.0,147,68,60,86,89,980,11,977
2025-02-19 16:40:03.872,-440.0,423.0,194.0,71.0,88.0,64.0,146,67,56,86,88,975,11,992
2025-02-19 16:40:03.892,-759.0,1283.0,41.0,83.0,103.0,-15.0,146,68,60,86,88,971,11,822
2025-02-19 16:40:03.910,-1276.0,2073.0,-646.0,83.0,85.0,-144.0,145,68,61,85,86,968,11,324
2025-02-19 16:40:03.929,-1790.0,2691.0,-1320.0,69.0,-52.0,-351.0,143,68,59,83,84,968,10,88
2025-02-19 16:40:03.949,-897.0,3052.0,-1607.0,-110.0,-376.0,-654.0,144,67,58,83,86,966,11,97
2025-02-19 16:40:03.967,2002.0,1268.0,-2050.0,-483.0,-643.0,-820.0,146,65,56,82,85,964,11,119
2025-02-19 16:40:03.987,5590.0,-4013.0,-253.0,-413.0,-499.0,-577.0,148,66,56,83,87,960,674,474
2025-02-19 16:40:04.007,5473.0,-6720.0,207.0,97.0,-45.0,-139.0,148,65,55,83,86,954,567,1010
2025-02-19 16:40:04.024,2697.0,-4305.0,-1016.0,357.0,247.0,90.0,148,66,56,84,88,951,252,1010
2025-02-19 16:40:04.044,1037.0,-2333.0,-616.0,133.0,125.0,176.0,150,69,59,86,91,918,962,1010
2025-02-19 16:40:04.061,804.0,-1771.0,290.0,49.0,55.0,184.0,149,68,59,86,92,890,979,890
2025-02-19 16:40:04.081,719.0,-1891.0,468.0,99.0,108.0,217.0,150,70,60,89,94,868,1018,521
2025-02-19 16:40:04.101,453.0,-1417.0,215.0,126.0,162.0,270.0,148,69,60,90,94,851,998,671
2025-02-19 16:40:04.118,346.0,-967.0,165.0,87.0,192.0,283.0,149,71,62,93,97,845,412,856
2025-02-19 16:40:04.138,498.0,-521.0,175.0,97.0,214.0,274.0,147,71,62,95,99,840,10,1010
2025-02-19 16:40:04.159,369.0,-723.0,393.0,131.0,227.0,278.0,147,71,64,100,101,837,12,1010
2025-02-19 16:40:04.176,479.0,-873.0,358.0,213.0,254.0,293.0,147,70,64,102,102,833,13,1010
2025-02-19 16:40:04.195,314.0,-583.0,290.0,216.0,300.0,312.0,147,69,62,102,102,830,11,891
2025-02-19 16:40:04.216,319.0,-356.0,122.0,211.0,344.0,309.0,147,70,68,103,102,827,319,921
2025-02-19 16:40:04.232,104.0,-218.0,-75.0,213.0,356.0,313.0,145,70,63,102,99,828,487,513
2025-02-19 16:40:04.253,-99.0,-31.0,-135.0,192.0,330.0,318.0,146,72,64,104,99,828,629,167
2025-02-19 16:40:04.270,-348.0,-30.0,-144.0,164.0,316.0,338.0,144,70,63,103,94,826,613,196
2025-02-19 16:40:04.290,-299.0,273.0,-271.0,132.0,279.0,320.0,145,70,63,97,88,825,21,602
2025-02-19 16:40:04.310,-285.0,737.0,-1056.0,176.0,249.0,249.0,143,69,62,84,80,820,12,1010
2025-02-19 16:40:04.327,-978.0,2118.0,-1983.0,186.0,122.0,-10.0,134,65,59,80,71,817,10,1011
2025-02-19 16:40:04.348,-1973.0,2897.0,-3448.0,-40.0,-379.0,-387.0,121,63,56,72,68,812,11,1010
2025-02-19 16:40:04.368,-174.0,2141.0,-3209.0,-123.0,-755.0,-627.0,116,62,55,72,70,810,10,1010
2025-02-19 16:40:04.384,1691.0,1072.0,-1932.0,-231.0,-1008.0,-649.0,120,63,56,76,76,805,12,1010
2025-02-19 16:40:04.405,3461.0,-2245.0,268.0,-49.0,-1070.0,-492.0,124,65,56,78,80,801,11,1009
2025-02-19 16:40:04.425,4994.0,-3733.0,4402.0,16.0,-231.0,-107.0,126,67,59,82,87,797,1018,566
2025-02-19 16:40:04.442,2405.0,-3065.0,3339.0,12.0,233.0,9.0,123,71,58,81,86,799,1018,170
2025-02-19 16:40:04.461,48.0,-2058.0,2149.0,-74.0,243.0,48.0,122,66,57,80,84,809,1017,10
2025-02-19 16:40:04.480,-217.0,-1801.0,1511.0,-225.0,152.0,83.0,124,69,61,82,86,778,1018,13
2025-02-19 16:40:04.500,13.0,-1966.0,975.0,-182.0,151.0,124.0,123,68,60,83,85,748,1018,12
2025-02-19 16:40:04.519,48.0,-1293.0,724.0,-112.0,187.0,158.0,123,67,59,82,85,755,1018,11
2025-02-19 16:40:04.536,-229.0,-1036.0,196.0,-40.0,191.0,169.0,123,66,58,81,84,762,1018,258
2025-02-19 16:40:04.556,-261.0,-455.0,195.0,-20.0,186.0,162.0,121,66,59,82,84,775,1018,10
2025-02-19 16:40:04.577,-230.0,-200.0,275.0,-60.0,190.0,144.0,131,73,65,89,91,719,1018,17
2025-02-19 16:40:04.594,-302.0,-438.0,168.0,-71.0,161.0,143.0,130,70,64,86,89,649,1018,308
2025-02-19 16:40:04.612,-486.0,-539.0,104.0,-49.0,121.0,163.0,132,71,64,88,90,581,748,15
2025-02-19 16:40:04.634,-250.0,-120.0,311.0,-42.0,122.0,163.0,131,69,63,88,89,571,1019,13
2025-02-19 16:40:04.651,-230.0,-19.0,356.0,-57.0,157.0,132.0,132,69,64,89,90,566,626,144
2025-02-19 16:40:04.671,-504.0,-187.0,-44.0,-43.0,157.0,104.0,132,71,64,89,90,563,14,147
2025-02-19 16:40:04.691,-667.0,-201.0,-303.0,-10.0,108.0,88.0,132,71,64,89,90,558,14,178
2025-02-19 16:40:04.706,-562.0,-44.0,-308.0,17.0,70.0,87.0,134,71,65,91,90,553,14,329
2025-02-19 16:40:04.728,-559.0,120.0,-535.0,65.0,42.0,91.0,133,70,64,90,89,552,13,387
2025-02-19 16:40:04.745,-610.0,435.0,-1183.0,213.0,-20.0,51.0,129,71,64,90,87,550,14,490
2025-02-19 16:40:04.765,-921.0,936.0,-2534.0,411.0,-162.0,-34.0,122,69,62,82,80,550,13,506
2025-02-19 16:40:04.786,-1227.0,1832.0,-3130.0,505.0,-531.0,-158.0,120,68,62,78,77,550,14,437
2025-02-19 16:40:04.802,329.0,2466.0,-2021.0,378.0,-923.0,-308.0,124,69,62,77,79,552,14,336
2025-02-19 16:40:04.820,3846.0,-668.0,1047.0,195.0,-1094.0,-225.0,131,69,61,77,80,562,12,394
2025-02-19 16:40:04.843,4951.0,-2879.0,4885.0,297.0,-442.0,55.0,136,72,64,80,83,573,14,182
2025-02-19 16:40:04.856,2710.0,-1082.0,4982.0,290.0,98.0,-4.0,135,72,62,79,82,590,11,68
2025-02-19 16:40:04.880,337.0,-832.0,3920.0,105.0,224.0,-4.0,138,77,66,83,86,581,17,15
2025-02-19 16:40:04.899,-418.0,-280.0,2849.0,-58.0,199.0,22.0,136,73,63,82,85,585,12,26
2025-02-19 16:40:04.917,-282.0,-122.0,2304.0,-185.0,199.0,9.0,135,71,61,81,86,609,1016,445
2025-02-19 16:40:04.935,-204.0,-750.0,1632.0,-166.0,241.0,23.0,137,72,62,84,88,656,1018,934
2025-02-19 16:40:04.955,-167.0,-676.0,1180.0,-88.0,286.0,45.0,137,71,62,85,88,684,696,1009
2025-02-19 16:40:04.974,-80.0,-545.0,841.0,-48.0,322.0,55.0,139,72,63,86,90,705,1016,745
2025-02-19 16:40:04.994,-194.0,-324.0,516.0,-47.0,315.0,75.0,138,72,63,87,90,724,878,378
2025-02-19 16:40:05.011,-179.0,-176.0,373.0,-86.0,289.0,102.0,140,73,65,89,93,740,886,11
2025-02-19 16:40:05.032,-199.0,-253.0,288.0,-100.0,255.0,125.0,139,73,64,89,92,754,1018,10
2025-02-19 16:40:05.052,-85.0,-285.0,223.0,-78.0,233.0,145.0,140,79,66,91,95,766,1018,10
2025-02-19 16:40:05.068,-97.0,-291.0,84.0,-4.0,246.0,140.0,139,88,67,92,95,769,1018,11
2025-02-19 16:40:05.085,-343.0,-79.0,-38.0,41.0,234.0,127.0,139,94,67,93,94,776,1018,33
2025-02-19 16:40:05.109,-441.0,135.0,-282.0,48.0,202.0,107.0,139,102,68,93,95,776,972,476
2025-02-19 16:40:05.127,-848.0,145.0,-810.0,60.0,114.0,61.0,137,100,65,92,94,775,1018,994
2025-02-19 16:40:05.146,-1195.0,192.0,-1462.0,130.0,-72.0,-3.0,134,101,62,87,88,773,874,1011
2025-02-19 16:40:05.166,-1274.0,310.0,-2097.0,178.0,-333.0,-75.0,129,98,57,79,79,771,546,1010
2025-02-19 16:40:05.183,-554.0,837.0,-2726.0,137.0,-718.0,-92.0,124,98,57,78,78,772,11,1010
2025-02-19 16:40:05.204,726.0,529.0,-2481.0,135.0,-1021.0,-62.0,115,97,57,80,79,772,11,983
2025-02-19 16:40:05.220,2566.0,-391.0,-1377.0,208.0,-1154.0,-2.0,107,98,53,74,79,774,10,923
2025-02-19 16:40:05.241,3486.0,-372.0,623.0,515.0,-1008.0,32.0,111,103,55,75,82,770,11,755
2025-02-19 16:40:05.261,3610.0,421.0,3017.0,519.0,-705.0,32.0,119,108,54,75,86,765,10,488
2025-02-19 16:40:05.278,3075.0,1378.0,4181.0,355.0,-232.0,62.0,126,115,55,80,90,760,10,497
2025-02-19 16:40:05.297,2230.0,1758.0,4001.0,-28.0,57.0,61.0,124,116,54,79,89,751,820,550
2025-02-19 16:40:05.316,1690.0,1260.0,2820.0,-214.0,260.0,38.0,123,117,56,81,90,747,1018,521
2025-02-19 16:40:05.335,1145.0,882.0,1945.0,-251.0,359.0,-21.0,128,118,61,85,95,713,132,351
2025-02-19 16:40:05.354,817.0,335.0,1363.0,-229.0,442.0,-78.0,132,117,63,81,96,634,15,14
2025-02-19 16:40:05.372,532.0,4.0,868.0,-172.0,481.0,-81.0,133,116,62,81,96,593,173,36
2025-02-19 16:40:05.392,74.0,-48.0,580.0,-119.0,445.0,-43.0,123,108,58,84,91,572,138,441
2025-02-19 16:40:05.413,169.0,-25.0,416.0,-111.0,346.0,-25.0,119,104,58,85,89,590,308,668
2025-02-19 16:40:05.430,64.0,10.0,627.0,-147.0,300.0,-19.0,120,97,59,85,89,593,1018,719
2025-02-19 16:40:05.449,39.0,-141.0,555.0,-167.0,306.0,-6.0,122,103,60,86,92,596,1018,761
2025-02-19 16:40:05.460,-129.0,-358.0,323.0,-133.0,305.0,25.0,130,109,66,90,97,550,1018,723
2025-02-19 16:40:05.486,-259.0,-233.0,243.0,-75.0,278.0,41.0,127,109,65,90,96,474,1018,343
2025-02-19 16:40:05.506,-362.0,39.0,76.0,-44.0,224.0,14.0,125,110,65,91,95,417,1018,16
2025-02-19 16:40:05.526,-452.0,-11.0,217.0,-60.0,189.0,-1.0,124,110,64,90,94,387,1018,41
2025-02-19 16:40:05.543,-501.0,-121.0,125.0,-63.0,168.0,13.0,125,112,65,91,94,365,1018,198
2025-02-19 16:40:05.563,-732.0,-212.0,-166.0,-38.0,127.0,41.0,124,110,64,89,91,354,997,506
2025-02-19 16:40:05.581,-662.0,78.0,-429.0,7.0,38.0,15.0,119,110,64,90,90,351,893,599
2025-02-19 16:40:05.601,-975.0,427.0,-970.0,49.0,-78.0,-51.0,118,110,63,89,89,348,551,642
2025-02-19 16:40:05.619,-1401.0,394.0,-2376.0,164.0,-334.0,-148.0,110,108,59,83,82,348,14,387
2025-02-19 16:40:05.641,-553.0,541.0,-3028.0,251.0,-786.0,-89.0,104,107,59,80,80,350,16,137
2025-02-19 16:40:05.656,1437.0,765.0,-2063.0,241.0,-1103.0,11.0,104,108,58,80,80,354,14,350
2025-02-19 16:40:05.678,3323.0,-607.0,299.0,274.0,-1073.0,67.0,111,111,60,83,83,360,15,671
2025-02-19 16:40:05.696,3970.0,-537.0,3259.0,397.0,-702.0,70.0,122,113,62,83,90,365,15,758
2025-02-19 16:40:05.716,3617.0,802.0,4508.0,296.0,-182.0,57.0,126,112,62,85,93,377,14,443
2025-02-19 16:40:05.736,2462.0,1281.0,4472.0,-79.0,110.0,-2.0,129,111,64,87,95,386,1014,10
2025-02-19 16:40:05.752,1731.0,681.0,2871.0,-256.0,269.0,-5.0,131,103,63,86,94,397,1018,13
2025-02-19 16:40:05.772,1057.0,185.0,1990.0,-287.0,345.0,14.0,139,102,66,90,99,411,1018,162
2025-02-19 16:40:05.793,747.0,88.0,1594.0,-264.0,403.0,27.0,139,99,66,91,100,404,722,13
2025-02-19 16:40:05.810,611.0,92.0,1250.0,-279.0,474.0,18.0,140,100,68,95,103,412,785,211
2025-02-19 16:40:05.830,656.0,9.0,587.0,-293.0,514.0,41.0,140,102,71,100,107,417,1018,397
2025-02-19 16:40:05.850,219.0,-259.0,370.0,-287.0,501.0,82.0,137,102,70,103,106,434,1018,159
2025-02-19 16:40:05.867,151.0,23.0,294.0,-239.0,468.0,95.0,138,104,74,113,114,472,1018,83
2025-02-19 16:40:05.886,-106.0,-162.0,109.0,-223.0,388.0,75.0,137,105,80,122,125,468,1018,76
2025-02-19 16:40:05.904,-201.0,-412.0,157.0,-145.0,307.0,72.0,137,109,86,129,132,462,1018,182
2025-02-19 16:40:05.925,-145.0,-226.0,64.0,-153.0,289.0,46.0,133,109,88,131,133,458,732,432
2025-02-19 16:40:05.945,-385.0,-350.0,101.0,-170.0,269.0,46.0,133,111,91,134,135,462,423,494
2025-02-19 16:40:05.962,-516.0,-673.0,-435.0,-107.0,175.0,36.0,131,113,94,131,134,458,871,373
2025-02-19 16:40:05.982,-541.0,-464.0,-290.0,-92.0,174.0,43.0,127,113,94,130,132,465,826,258
2025-02-19 16:40:06.000,-751.0,-125.0,-351.0,-76.0,93.0,41.0,126,114,96,131,133,474,547,219
2025-02-19 16:40:06.018,-206.0,240.0,42.0,-39.0,12.0,10.0,122,112,94,129,131,479,15,310
2025-02-19 16:40:06.039,-748.0,352.0,-671.0,-25.0,-47.0,-48.0,123,113,96,130,132,511,13,508
2025-02-19 16:40:06.059,-910.0,409.0,-970.0,25.0,-135.0,-160.0,122,113,95,130,130,537,11,466
2025-02-19 16:40:06.076,-1242.0,1185.0,-1306.0,52.0,-297.0,-394.0,124,115,97,130,130,559,12,240
2025-02-19 16:40:06.096,-765.0,1516.0,99.0,54.0,-528.0,-650.0,127,118,98,131,136,576,13,317
2025-02-19 16:40:06.117,624.0,817.0,-640.0,-129.0,-770.0,-790.0,127,121,99,130,141,590,120,444
2025-02-19 16:40:06.133,2736.0,-1389.0,-161.0,-188.0,-818.0,-660.0,125,128,101,133,146,598,329,891
2025-02-19 16:40:06.151,3917.0,-2705.0,842.0,-80.0,-635.0,-323.0,126,132,103,137,150,597,737,964
2025-02-19 16:40:06.171,3078.0,-3978.0,1149.0,-53.0,-240.0,4.0,127,134,105,137,151,574,1018,727
2025-02-19 16:40:06.188,2196.0,-3376.0,1145.0,110.0,31.0,161.0,126,134,104,136,148,548,1018,181
2025-02-19 16:40:06.211,993.0,-1973.0,1082.0,182.0,215.0,205.0,128,134,104,136,150,548,1018,122
2025-02-19 16:40:06.228,741.0,-1365.0,1156.0,112.0,270.0,213.0,129,135,105,135,149,556,1018,317
2025-02-19 16:40:06.248,471.0,-1038.0,848.0,-62.0,259.0,242.0,128,133,104,135,148,573,1019,533
2025-02-19 16:40:06.268,-16.0,-918.0,426.0,-109.0,239.0,261.0,128,134,104,135,148,575,324,765
2025-02-19 16:40:06.285,92.0,-775.0,330.0,-109.0,252.0,283.0,128,132,103,134,150,597,11,1010
2025-02-19 16:40:06.305,-83.0,-848.0,415.0,2.0,260.0,285.0,133,137,109,140,152,595,18,1010
2025-02-19 16:40:06.324,145.0,-545.0,-109.0,32.0,247.0,284.0,130,133,105,137,147,546,667,1010
2025-02-19 16:40:06.342,-184.0,-384.0,35.0,62.0,197.0,252.0,131,133,106,137,147,516,1018,405
2025-02-19 16:40:06.363,-247.0,-203.0,-44.0,47.0,149.0,216.0,130,131,105,136,146,517,1017,14
2025-02-19 16:40:06.378,-301.0,-359.0,124.0,34.0,123.0,185.0,129,131,104,136,145,511,1018,12
2025-02-19 16:40:06.400,-344.0,-412.0,69.0,74.0,106.0,167.0,129,131,106,137,146,507,976,14
2025-02-19 16:40:06.419,-343.0,-261.0,97.0,104.0,120.0,146.0,127,130,104,135,143,511,960,12
2025-02-19 16:40:06.436,-538.0,83.0,118.0,97.0,121.0,134.0,129,130,101,136,144,517,781,13
2025-02-19 16:40:06.456,-662.0,547.0,-122.0,50.0,105.0,102.0,127,127,104,134,141,525,12,12
2025-02-19 16:40:06.472,-1026.0,1039.0,-695.0,60.0,12.0,-35.0,128,127,106,136,139,533,14,13
2025-02-19 16:40:06.494,-1161.0,1604.0,-825.0,180.0,-81.0,-280.0,129,126,106,136,139,534,14,446
2025-02-19 16:40:06.514,-1364.0,2136.0,-1208.0,72.0,-250.0,-612.0,129,126,105,134,139,530,12,1010
2025-02-19 16:40:06.534,-642.0,2599.0,-1902.0,-107.0,-666.0,-809.0,128,130,107,136,142,527,143,1010
2025-02-19 16:40:06.552,3622.0,-1061.0,-462.0,-239.0,-681.0,-778.0,126,136,106,136,145,525,974,1010
2025-02-19 16:40:06.571,3129.0,-3308.0,402.0,78.0,-542.0,-447.0,128,135,106,137,149,521,1018,1010
2025-02-19 16:40:06.592,3424.0,-3527.0,791.0,138.0,-307.0,-95.0,130,137,106,138,151,488,1018,674
2025-02-19 16:40:06.607,2566.0,-2800.0,1352.0,125.0,-60.0,72.0,133,139,107,140,152,414,1018,690
2025-02-19 16:40:06.624,1155.0,-2197.0,1876.0,137.0,147.0,108.0,134,139,103,136,151,382,1017,703
2025-02-19 16:40:06.644,550.0,-1603.0,1354.0,133.0,219.0,125.0,135,139,100,137,150,347,1018,676
2025-02-19 16:40:06.666,272.0,-1403.0,1132.0,52.0,218.0,142.0,137,140,95,133,147,320,1018,839
2025-02-19 16:40:06.686,288.0,-1301.0,842.0,37.0,224.0,172.0,134,128,86,129,138,332,987,1011
2025-02-19 16:40:06.704,215.0,-1182.0,654.0,54.0,234.0,217.0,135,136,82,125,125,349,824,1011
2025-02-19 16:40:06.722,196.0,-1000.0,654.0,86.0,260.0,243.0,135,135,76,121,109,360,761,1010
2025-02-19 16:40:06.740,143.0,-764.0,368.0,141.0,261.0,231.0,138,134,74,118,100,329,360,1010
2025-02-19 16:40:06.759,-18.0,-568.0,422.0,160.0,252.0,216.0,140,133,74,116,96,278,20,668
2025-02-19 16:40:06.781,-42.0,-334.0,344.0,151.0,248.0,212.0,138,128,70,110,93,243,18,112
2025-02-19 16:40:06.795,-108.0,-293.0,271.0,166.0,251.0,201.0,139,125,69,104,88,219,19,19
2025-02-19 16:40:06.817,-218.0,-103.0,44.0,163.0,231.0,186.0,136,121,67,99,81,202,18,17
2025-02-19 16:40:06.836,-408.0,71.0,-46.0,147.0,210.0,163.0,133,119,66,93,79,193,18,18
2025-02-19 16:40:06.855,-496.0,325.0,-150.0,123.0,174.0,135.0,129,117,66,88,77,184,19,18
2025-02-19 16:40:06.875,-486.0,608.0,-572.0,77.0,97.0,54.0,121,114,65,88,77,185,18,17
2025-02-19 16:40:06.893,-1020.0,643.0,-1478.0,105.0,-69.0,-53.0,112,111,63,82,74,186,20,18
2025-02-19 16:40:06.911,-1518.0,419.0,-2197.0,225.0,-390.0,-165.0,102,107,58,71,67,198,17,16
2025-02-19 16:40:06.932,-35.0,415.0,-2690.0,272.0,-851.0,-121.0,98,112,59,76,68,210,18,220
2025-02-19 16:40:06.952,2033.0,100.0,-1600.0,286.0,-1089.0,-38.0,98,114,58,75,69,216,17,784
2025-02-19 16:40:06.969,3596.0,-469.0,145.0,356.0,-1051.0,49.0,102,118,59,79,69,223,17,1010
2025-02-19 16:40:06.989,3799.0,-166.0,4092.0,379.0,-576.0,93.0,111,122,62,83,80,226,19,1010
2025-02-19 16:40:07.007,2988.0,1468.0,4908.0,123.0,8.0,18.0,112,123,62,84,83,197,148,804
2025-02-19 16:40:07.026,1864.0,995.0,3720.0,-153.0,231.0,-26.0,111,123,64,86,85,181,1018,498
2025-02-19 16:40:07.044,1208.0,342.0,2422.0,-183.0,291.0,-18.0,109,118,63,87,84,182,1019,513
2025-02-19 16:40:07.063,715.0,193.0,1704.0,-177.0,341.0,-40.0,118,122,68,94,91,191,1018,1006
2025-02-19 16:40:07.084,548.0,-145.0,1245.0,-160.0,388.0,-52.0,112,113,59,84,83,225,789,1009
2025-02-19 16:40:07.104,246.0,-397.0,900.0,-133.0,393.0,-10.0,111,115,59,84,83,319,367,1010
2025-02-19 16:40:07.121,128.0,-434.0,535.0,-123.0,359.0,39.0,108,116,60,84,83,388,505,1010
2025-02-19 16:40:07.141,92.0,-265.0,519.0,-120.0,323.0,63.0,108,116,60,87,82,449,903,1010
2025-02-19 16:40:07.162,-31.0,-186.0,556.0,-105.0,296.0,64.0,111,117,61,89,84,501,696,1010
2025-02-19 16:40:07.178,-252.0,-184.0,529.0,-68.0,273.0,62.0,112,115,60,89,84,545,412,1010
2025-02-19 16:40:07.198,-328.0,-221.0,465.0,-20.0,227.0,57.0,113,118,62,90,81,581,590,715
2025-02-19 16:40:07.215,-265.0,-5.0,532.0,-26.0,211.0,48.0,111,117,60,89,83,610,1017,258
2025-02-19 16:40:07.235,-373.0,95.0,471.0,-70.0,196.0,33.0,112,120,62,90,84,628,1018,12
2025-02-19 16:40:07.256,-512.0,-56.0,286.0,-95.0,168.0,28.0,113,120,62,92,85,643,1018,14
2025-02-19 16:40:07.273,-631.0,-275.0,251.0,-80.0,125.0,49.0,114,119,62,91,83,656,556,123
2025-02-19 16:40:07.292,-566.0,-170.0,134.0,-43.0,94.0,72.0,115,121,62,92,84,662,88,374
2025-02-19 16:40:07.313,-665.0,162.0,-91.0,-12.0,68.0,44.0,114,119,62,91,82,664,29,552
2025-02-19 16:40:07.329,-1035.0,790.0,-967.0,23.0,-28.0,-90.0,111,117,63,92,81,666,29,685
2025-02-19 16:40:07.350,-1777.0,738.0,-2626.0,142.0,-341.0,-247.0,103,111,58,84,74,667,49,483
2025-02-19 16:40:07.370,-224.0,941.0,-2553.0,178.0,-834.0,-219.0,102,111,59,83,74,671,75,188
2025-02-19 16:40:07.387,1632.0,397.0,-1415.0,127.0,-1090.0,-125.0,105,113,60,84,76,671,438,274
2025-02-19 16:40:07.407,3465.0,-1474.0,1289.0,199.0,-1013.0,-15.0,112,115,60,83,76,667,1018,350
2025-02-19 16:40:07.427,3667.0,-938.0,3667.0,290.0,-458.0,54.0,119,117,62,89,85,665,985,13
2025-02-19 16:40:07.444,2910.0,203.0,4394.0,55.0,-18.0,27.0,122,120,66,92,89,633,669,77
2025-02-19 16:40:07.466,1742.0,0.0,3604.0,-162.0,216.0,14.0,123,122,68,85,92,566,1018,77
2025-02-19 16:40:07.481,1006.0,-175.0,2548.0,-248.0,288.0,35.0,123,118,66,96,91,517,1018,253
2025-02-19 16:40:07.503,781.0,-313.0,1981.0,-290.0,383.0,47.0,128,118,68,99,92,499,992,741
2025-02-19 16:40:07.522,780.0,-570.0,1386.0,-286.0,479.0,60.0,131,116,71,103,94,503,732,1010
2025-02-19 16:40:07.538,570.0,-552.0,781.0,-246.0,515.0,87.0,131,113,70,103,94,510,1018,1010
2025-02-19 16:40:07.558,203.0,-491.0,482.0,-198.0,496.0,97.0,133,112,73,104,94,517,1017,932
2025-02-19 16:40:07.579,87.0,-573.0,170.0,-152.0,462.0,125.0,133,109,75,104,89,527,1019,515
2025-02-19 16:40:07.595,-175.0,-338.0,-41.0,-134.0,400.0,165.0,134,109,78,103,91,554,1018,12
2025-02-19 16:40:07.614,-84.0,-371.0,45.0,-63.0,361.0,169.0,133,109,81,105,93,580,1018,12
2025-02-19 16:40:07.636,-248.0,-259.0,-38.0,-25.0,335.0,166.0,133,112,86,105,92,604,1018,56
2025-02-19 16:40:07.653,-315.0,-42.0,-146.0,5.0,303.0,163.0,137,120,93,111,97,607,944,146
2025-02-19 16:40:07.673,-441.0,91.0,-396.0,26.0,271.0,143.0,135,118,93,109,96,580,1018,53
2025-02-19 16:40:07.690,-667.0,253.0,-689.0,31.0,184.0,124.0,136,121,97,110,97,563,943,15
2025-02-19 16:40:07.710,-852.0,626.0,-1190.0,34.0,54.0,66.0,136,121,98,109,97,555,359,96
2025-02-19 16:40:07.731,-1024.0,933.0,-1456.0,38.0,-148.0,-81.0,136,124,101,108,98,543,15,103
2025-02-19 16:40:07.746,-1069.0,1438.0,-1535.0,50.0,-331.0,-285.0,136,126,103,103,92,530,15,14
2025-02-19 16:40:07.767,-751.0,1662.0,-1428.0,14.0,-555.0,-521.0,129,128,102,100,88,526,14,98
2025-02-19 16:40:07.788,693.0,1572.0,-695.0,-69.0,-772.0,-680.0,134,132,103,102,92,532,14,454
2025-02-19 16:40:07.805,1692.0,426.0,203.0,-297.0,-921.0,-722.0,134,134,101,99,92,538,172,602
2025-02-19 16:40:07.825,2948.0,-1802.0,203.0,-370.0,-912.0,-540.0,134,138,101,97,91,545,1018,405
2025-02-19 16:40:07.845,3259.0,-3473.0,-153.0,-122.0,-790.0,-254.0,135,141,102,109,100,513,664,242
2025-02-19 16:40:07.862,3665.0,-3808.0,1070.0,-66.0,-87.0,36.0,134,141,101,112,103,483,370,16
2025-02-19 16:40:07.880,2309.0,-3001.0,986.0,251.0,262.0,79.0,135,141,100,111,101,473,530,178
2025-02-19 16:40:07.902,774.0,-1653.0,844.0,273.0,312.0,131.0,135,140,100,110,100,487,786,633
2025-02-19 16:40:07.920,467.0,-1183.0,749.0,135.0,257.0,184.0,137,142,102,111,103,449,1017,1010
2025-02-19 16:40:07.940,223.0,-872.0,802.0,54.0,233.0,207.0,137,141,103,113,103,449,1018,953
2025-02-19 16:40:07.957,205.0,-648.0,673.0,-5.0,246.0,216.0,139,142,104,113,105,452,1017,893
2025-02-19 16:40:07.977,170.0,-690.0,359.0,0.0,270.0,209.0,142,145,108,116,105,404,992,1010
2025-02-19 16:40:07.996,158.0,-636.0,304.0,73.0,278.0,194.0,142,144,109,117,106,342,368,1011
2025-02-19 16:40:08.014,41.0,-655.0,194.0,122.0,283.0,209.0,144,146,110,118,108,294,176,1011
2025-02-19 16:40:08.034,-170.0,-409.0,182.0,131.0,258.0,221.0,142,143,108,117,104,253,392,914
2025-02-19 16:40:08.054,-74.0,-44.0,294.0,89.0,243.0,200.0,141,142,109,116,105,268,964,456
2025-02-19 16:40:08.071,-312.0,-177.0,311.0,66.0,229.0,173.0,140,140,108,115,100,285,1018,15
2025-02-19 16:40:08.091,-443.0,-174.0,259.0,62.0,205.0,151.0,141,141,110,115,100,311,426,17
2025-02-19 16:40:08.111,-615.0,-173.0,233.0,65.0,182.0,135.0,139,139,109,113,97,337,111,14
2025-02-19 16:40:08.128,-572.0,98.0,174.0,46.0,165.0,110.0,143,140,111,114,97,344,532,16
2025-02-19 16:40:08.148,-872.0,566.0,-367.0,-26.0,114.0,77.0,141,139,112,111,96,357,881,64
2025-02-19 16:40:08.165,-1299.0,534.0,-1264.0,11.0,-25.0,-84.0,140,137,111,105,95,373,634,94
2025-02-19 16:40:08.185,-1564.0,1224.0,-1797.0,183.0,-293.0,-278.0,138,138,112,102,92,383,534,485
2025-02-19 16:40:08.206,-1227.0,1898.0,-1829.0,44.0,-639.0,-436.0,136,137,110,99,91,402,137,1010
2025-02-19 16:40:08.225,882.0,1608.0,-1212.0,-145.0,-1008.0,-539.0,138,139,111,103,96,420,517,1010
2025-02-19 16:40:08.243,3458.0,-1602.0,474.0,-57.0,-981.0,-492.0,137,140,110,107,105,431,1018,1010
2025-02-19 16:40:08.263,4062.0,-3490.0,2354.0,102.0,-469.0,-166.0,138,142,110,116,116,449,1018,795
2025-02-19 16:40:08.280,3471.0,-2821.0,2662.0,169.0,21.0,75.0,137,140,109,116,116,475,1018,519
2025-02-19 16:40:08.298,1409.0,-1547.0,2320.0,142.0,155.0,71.0,136,139,108,112,112,520,1018,209
2025-02-19 16:40:08.320,339.0,-868.0,2007.0,35.0,140.0,54.0,137,140,109,117,111,557,1018,161
2025-02-19 16:40:08.337,460.0,-1107.0,1638.0,-63.0,157.0,62.0,137,139,107,114,109,588,1018,319
2025-02-19 16:40:08.357,551.0,-1125.0,1537.0,-69.0,257.0,109.0,141,142,109,116,111,592,971,577
2025-02-19 16:40:08.377,440.0,-875.0,915.0,-45.0,311.0,143.0,143,143,107,118,109,544,207,873
2025-02-19 16:40:08.394,206.0,-858.0,767.0,-31.0,340.0,166.0,146,143,101,121,110,454,20,1010
2025-02-19 16:40:08.414,110.0,-762.0,664.0,15.0,340.0,170.0,142,133,85,116,108,426,16,1011
2025-02-19 16:40:08.432,157.0,-694.0,578.0,78.0,343.0,151.0,142,124,73,112,100,429,200,972
2025-02-19 16:40:08.452,23.0,-275.0,770.0,51.0,362.0,171.0,143,116,70,107,98,434,261,290
2025-02-19 16:40:08.471,16.0,-191.0,442.0,7.0,372.0,175.0,141,99,67,102,93,443,202,15
2025-02-19 16:40:08.489,-194.0,-344.0,317.0,-12.0,343.0,169.0,142,90,64,99,90,452,34,15
2025-02-19 16:40:08.509,-456.0,-408.0,90.0,24.0,313.0,172.0,140,84,61,94,84,460,15,35
2025-02-19 16:40:08.529,-512.0,-233.0,-147.0,59.0,269.0,177.0,141,83,61,96,82,467,16,16
2025-02-19 16:40:08.546,-635.0,66.0,-323.0,38.0,205.0,167.0,140,80,61,89,81,476,16,15
2025-02-19 16:40:08.566,-881.0,259.0,-943.0,12.0,82.0,119.0,134,75,59,85,78,494,14,14
2025-02-19 16:40:08.584,-1027.0,510.0,-1560.0,147.0,-108.0,-1.0,125,78,58,80,77,509,15,14
2025-02-19 16:40:08.604,-1237.0,764.0,-1899.0,210.0,-353.0,-125.0,114,78,56,72,74,522,14,14
2025-02-19 16:40:08.623,-503.0,811.0,-2640.0,188.0,-718.0,-136.0,105,83,56,75,72,534,15,37
2025-02-19 16:40:08.636,1067.0,647.0,-2344.0,172.0,-1029.0,-89.0,100,89,55,73,73,541,14,298
2025-02-19 16:40:08.661,2570.0,-460.0,-1271.0,239.0,-1126.0,-1.0,101,97,54,78,76,545,15,481
2025-02-19 16:40:08.681,3254.0,-614.0,532.0,486.0,-968.0,40.0,108,103,57,82,82,528,17,613
2025-02-19 16:40:08.698,3300.0,292.0,2804.0,470.0,-673.0,80.0,114,102,55,81,86,527,23,173
2025-02-19 16:40:08.718,3129.0,1371.0,4293.0,210.0,-198.0,65.0,116,105,58,84,90,534,750,18
2025-02-19 16:40:08.738,2438.0,1236.0,3978.0,-92.0,92.0,3.0,117,104,57,83,88,543,1018,32
2025-02-19 16:40:08.752,1636.0,650.0,2604.0,-193.0,249.0,-12.0,119,108,61,87,90,546,1018,491
2025-02-19 16:40:08.775,994.0,354.0,1702.0,-174.0,279.0,-21.0,115,104,56,84,87,542,1017,1010
2025-02-19 16:40:08.795,615.0,107.0,1444.0,-161.0,331.0,-43.0,115,103,55,81,87,591,11,1010
2025-02-19 16:40:08.813,496.0,-206.0,1131.0,-129.0,369.0,-51.0,121,109,61,89,91,567,427,1007
2025-02-19 16:40:08.833,311.0,-173.0,801.0,-92.0,369.0,-42.0,119,108,59,88,88,537,1018,1010
2025-02-19 16:40:08.849,89.0,-77.0,583.0,-58.0,320.0,-34.0,117,109,60,89,88,524,1018,1009
2025-02-19 16:40:08.868,126.0,76.0,816.0,-77.0,289.0,-23.0,117,106,59,88,88,519,1018,967
2025-02-19 16:40:08.889,254.0,63.0,853.0,-118.0,314.0,-5.0,120,107,60,88,90,525,861,712
2025-02-19 16:40:08.906,-4.0,-234.0,529.0,-117.0,310.0,21.0,121,107,60,91,90,532,256,422
2025-02-19 16:40:08.927,-229.0,-228.0,336.0,-68.0,251.0,52.0,118,106,60,90,89,538,58,57
2025-02-19 16:40:08.947,-235.0,-7.0,380.0,-71.0,201.0,34.0,116,107,61,91,89,543,189,17
2025-02-19 16:40:08.964,-158.0,35.0,511.0,-96.0,206.0,15.0,116,106,60,90,88,551,14,257
2025-02-19 16:40:08.984,-213.0,-49.0,311.0,-100.0,228.0,18.0,120,108,61,91,89,558,14,601
2025-02-19 16:40:09.005,-523.0,-185.0,-100.0,-57.0,209.0,44.0,114,107,60,91,85,562,13,791
2025-02-19 16:40:09.019,-971.0,319.0,-1208.0,42.0,53.0,-46.0,110,107,59,87,83,560,13,665
2025-02-19 16:40:09.041,-1681.0,306.0,-2550.0,208.0,-275.0,-142.0,108,108,59,86,80,562,14,382
2025-02-19 16:40:09.056,-761.0,686.0,-2689.0,219.0,-656.0,-66.0,104,108,56,82,77,566,13,13
2025-02-19 16:40:09.078,812.0,595.0,-1981.0,138.0,-947.0,-19.0,105,112,57,82,78,569,14,86
2025-02-19 16:40:09.098,2541.0,-666.0,210.0,151.0,-993.0,37.0,108,116,55,80,78,574,14,291
2025-02-19 16:40:09.115,3564.0,-591.0,2726.0,303.0,-608.0,92.0,115,123,59,83,83,578,15,251
2025-02-19 16:40:09.135,3082.0,567.0,4572.0,87.0,-196.0,29.0,116,124,58,83,84,579,14,13
2025-02-19 16:40:09.156,2248.0,279.0,3895.0,-73.0,124.0,7.0,121,127,59,85,86,572,187,13
2025-02-19 16:40:09.173,1218.0,244.0,2640.0,-149.0,195.0,16.0,127,128,61,87,89,563,941,14
2025-02-19 16:40:09.192,693.0,15.0,1947.0,-186.0,227.0,29.0,133,127,61,88,90,565,1018,596
2025-02-19 16:40:09.213,605.0,-314.0,1586.0,-185.0,286.0,34.0,137,128,62,86,94,569,300,1009
2025-02-19 16:40:09.231,395.0,-344.0,1184.0,-200.0,322.0,61.0,138,126,61,93,95,582,141,943
2025-02-19 16:40:09.249,196.0,-290.0,885.0,-218.0,358.0,93.0,139,127,64,96,97,597,13,761
2025-02-19 16:40:09.268,180.0,-200.0,789.0,-231.0,369.0,99.0,138,122,62,95,96,608,89,707
2025-02-19 16:40:09.287,132.0,-124.0,570.0,-232.0,348.0,101.0,139,115,64,98,99,623,1002,930
2025-02-19 16:40:09.307,147.0,-91.0,574.0,-242.0,336.0,102.0,140,106,64,98,102,636,1018,962
2025-02-19 16:40:09.323,59.0,-209.0,516.0,-221.0,338.0,107.0,139,98,65,98,102,649,1018,873
2025-02-19 16:40:09.345,-164.0,-187.0,404.0,-223.0,327.0,104.0,140,89,67,100,101,661,1018,898
2025-02-19 16:40:09.365,-291.0,-210.0,281.0,-225.0,308.0,94.0,141,78,66,99,97,670,1018,824
2025-02-19 16:40:09.382,-329.0,-109.0,3.0,-197.0,276.0,84.0,143,73,67,100,96,647,1007,754
2025-02-19 16:40:09.402,-614.0,-71.0,-270.0,-132.0,226.0,60.0,141,65,64,96,90,637,1018,346
2025-02-19 16:40:09.419,-637.0,474.0,-413.0,-67.0,163.0,23.0,142,64,64,90,85,631,1007,58
2025-02-19 16:40:09.439,-806.0,1078.0,-1595.0,68.0,45.0,-71.0,137,63,63,81,83,610,460,14
2025-02-19 16:40:09.459,-997.0,1666.0,-2044.0,167.0,-156.0,-270.0,125,61,59,81,75,597,13,12
2025-02-19 16:40:09.479,-931.0,1868.0,-2119.0,179.0,-468.0,-451.0,119,61,58,79,74,594,14,14
2025-02-19 16:40:09.497,466.0,1126.0,-1719.0,111.0,-771.0,-536.0,116,60,56,77,71,593,13,11
2025-02-19 16:40:09.517,2835.0,68.0,-858.0,36.0,-1042.0,-507.0,121,63,56,80,77,593,14,34
2025-02-19 16:40:09.533,4185.0,-1944.0,2701.0,-134.0,-744.0,-274.0,125,63,57,80,78,588,632,13
2025-02-19 16:40:09.554,3418.0,-3000.0,2835.0,-183.0,-154.0,-93.0,122,64,58,83,80,587,1018,200
2025-02-19 16:40:09.574,2176.0,-3538.0,2198.0,2.0,72.0,-111.0,123,66,63,85,82,573,1018,1009
2025-02-19 16:40:09.591,1575.0,-3020.0,1742.0,69.0,177.0,50.0,122,65,57,84,82,562,1018,1010
2025-02-19 16:40:09.610,881.0,-1725.0,1473.0,-55.0,198.0,112.0,123,66,58,85,83,553,1018,1010
2025-02-19 16:40:09.630,749.0,-1516.0,1081.0,-142.0,214.0,147.0,121,65,58,85,82,543,1018,1009
2025-02-19 16:40:09.648,508.0,-1467.0,601.0,-139.0,242.0,197.0,121,65,59,85,83,543,1019,1010
2025-02-19 16:40:09.668,342.0,-1184.0,298.0,-82.0,235.0,231.0,121,65,58,85,83,549,1018,1010
2025-02-19 16:40:09.689,329.0,-809.0,260.0,-58.0,229.0,236.0,121,65,58,85,84,558,1017,1011
2025-02-19 16:40:09.704,245.0,-602.0,308.0,-58.0,223.0,236.0,122,65,59,86,84,565,444,1010
2025-02-19 16:40:09.723,58.0,-466.0,245.0,-60.0,206.0,235.0,122,64,59,85,84,577,1018,1009
2025-02-19 16:40:09.739,-73.0,-215.0,217.0,-82.0,197.0,239.0,124,65,60,86,84,596,1018,725
2025-02-19 16:40:09.764,-191.0,-255.0,45.0,-66.0,163.0,228.0,122,64,59,86,84,615,877,40
2025-02-19 16:40:09.782,-209.0,-227.0,32.0,-39.0,146.0,210.0,123,65,59,86,84,631,1001,12
2025-02-19 16:40:09.800,-213.0,-191.0,91.0,3.0,151.0,202.0,123,65,56,86,84,641,998,11
2025-02-19 16:40:09.820,-581.0,227.0,-169.0,13.0,119.0,177.0,122,64,59,86,83,652,815,46
2025-02-19 16:40:09.836,-677.0,794.0,-290.0,-48.0,52.0,139.0,124,66,61,87,84,653,470,154
2025-02-19 16:40:09.857,-699.0,1499.0,-667.0,4.0,18.0,-18.0,120,65,60,87,81,653,74,282
2025-02-19 16:40:09.874,-987.0,2233.0,-1519.0,210.0,-41.0,-230.0,117,67,61,85,80,647,13,212
2025-02-19 16:40:09.896,-1595.0,3214.0,-2441.0,243.0,-303.0,-419.0,112,64,59,79,76,647,12,70
2025-02-19 16:40:09.914,-167.0,3872.0,-2644.0,177.0,-800.0,-732.0,114,65,58,78,76,645,388,12
2025-02-19 16:40:09.935,5021.0,1350.0,-758.0,-102.0,-1141.0,-832.0,120,65,58,80,78,643,60,11
2025-02-19 16:40:09.955,7206.0,-6986.0,2349.0,287.0,-648.0,-381.0,123,65,56,79,80,644,17,11
2025-02-19 16:40:09.970,5683.0,-4350.0,3188.0,484.0,144.0,46.0,126,67,58,79,87,644,12,13
2025-02-19 16:40:09.992,1121.0,-1024.0,2944.0,130.0,111.0,-49.0,124,66,57,80,83,646,55,11
2025-02-19 16:40:10.007,1214.0,-1969.0,2244.0,-158.0,114.0,119.0,125,67,58,83,84,651,634,13
2025-02-19 16:40:10.029,467.0,-1512.0,1598.0,-79.0,197.0,109.0,126,66,58,84,84,649,1018,152
2025-02-19 16:40:10.049,136.0,-1147.0,975.0,57.0,240.0,78.0,129,69,61,87,88,623,991,392
2025-02-19 16:40:10.066,-31.0,-678.0,496.0,128.0,254.0,73.0,134,72,64,92,92,536,309,917
2025-02-19 16:40:10.086,-263.0,-316.0,198.0,136.0,220.0,57.0,132,70,62,89,90,488,15,1014
2025-02-19 16:40:10.096,-122.0,-516.0,148.0,194.0,165.0,46.0,136,74,65,93,93,403,18,1010
2025-02-19 16:40:10.123,-47.0,-381.0,331.0,253.0,133.0,33.0,135,72,64,92,93,356,17,1010
2025-02-19 16:40:10.139,15.0,-220.0,524.0,297.0,139.0,18.0,139,75,67,95,96,302,191,603
2025-02-19 16:40:10.160,-24.0,-126.0,545.0,338.0,165.0,-15.0,138,73,64,92,94,264,432,335
2025-02-19 16:40:10.180,-225.0,75.0,540.0,339.0,161.0,-46.0,140,74,65,93,94,247,18,322
2025-02-19 16:40:10.200,-401.0,237.0,507.0,295.0,131.0,-68.0,140,73,65,93,94,247,17,268
2025-02-19 16:40:10.218,-418.0,131.0,472.0,268.0,89.0,-95.0,140,72,63,91,92,258,417,236
2025-02-19 16:40:10.236,-409.0,105.0,501.0,231.0,28.0,-111.0,143,74,65,93,94,253,127,577
2025-02-19 16:40:10.258,-411.0,31.0,601.0,202.0,-36.0,-118.0,143,73,63,92,93,260,16,949
2025-02-19 16:40:10.274,-113.0,-181.0,733.0,174.0,-119.0,-111.0,145,74,64,93,94,270,17,1009
2025-02-19 16:40:10.295,176.0,-523.0,953.0,189.0,-173.0,-84.0,144,72,62,91,94,287,14,725
2025-02-19 16:40:10.314,554.0,-823.0,1070.0,197.0,-198.0,-26.0,146,73,63,93,96,304,159,289
2025-02-19 16:40:10.332,1103.0,-1223.0,1187.0,194.0,-210.0,60.0,147,73,62,93,96,322,128,16
2025-02-19 16:40:10.352,1630.0,-1554.0,1557.0,171.0,-184.0,233.0,148,72,61,92,95,337,470,15
2025-02-19 16:40:10.372,2034.0,-1368.0,2077.0,22.0,-22.0,446.0,150,72,62,93,96,347,852,14
2025-02-19 16:40:10.390,2134.0,-415.0,1607.0,-148.0,116.0,690.0,148,70,60,90,95,372,1018,13
2025-02-19 16:40:10.407,1569.0,529.0,1141.0,-323.0,138.0,804.0,149,69,61,91,94,399,1018,14
2025-02-19 16:40:10.424,1368.0,1237.0,1292.0,-440.0,37.0,836.0,148,66,60,86,88,424,1018,12
2025-02-19 16:40:10.447,1066.0,1870.0,1724.0,-535.0,-48.0,670.0,151,69,63,87,88,445,1018,526
2025-02-19 16:40:10.467,585.0,2401.0,2464.0,-328.0,7.0,351.0,152,72,65,87,88,457,1018,1010
2025-02-19 16:40:10.484,512.0,1926.0,2498.0,83.0,162.0,-18.0,152,72,64,88,89,475,1018,1011
2025-02-19 16:40:10.504,286.0,1802.0,1789.0,303.0,303.0,-139.0,153,72,65,89,87,493,910,1009
2025-02-19 16:40:10.524,65.0,1616.0,1112.0,273.0,296.0,-232.0,157,75,69,92,89,509,384,1007
2025-02-19 16:40:10.541,110.0,699.0,692.0,193.0,205.0,-275.0,156,73,67,89,87,415,18,1010
2025-02-19 16:40:10.561,92.0,-230.0,644.0,207.0,117.0,-284.0,154,71,65,87,86,396,15,1011
2025-02-19 16:40:10.581,63.0,-648.0,828.0,291.0,58.0,-269.0,155,73,66,90,88,390,57,1009
2025-02-19 16:40:10.599,-21.0,-325.0,981.0,318.0,22.0,-285.0,157,74,67,90,90,371,210,1010
2025-02-19 16:40:10.618,45.0,-132.0,1002.0,281.0,-12.0,-258.0,157,75,68,91,90,323,831,1009
2025-02-19 16:40:10.636,-75.0,-90.0,934.0,195.0,-79.0,-228.0,158,75,68,92,91,281,716,727
2025-02-19 16:40:10.653,-56.0,139.0,1018.0,122.0,-92.0,-227.0,154,72,65,89,89,275,792,473
2025-02-19 16:40:10.676,-43.0,17.0,1009.0,79.0,-77.0,-227.0,153,73,63,90,91,299,793,482
2025-02-19 16:40:10.693,65.0,-443.0,938.0,87.0,-72.0,-179.0,153,73,64,90,90,318,15,377
2025-02-19 16:40:10.713,56.0,-487.0,926.0,101.0,-83.0,-109.0,152,72,63,88,89,300,15,195
2025-02-19 16:40:10.732,127.0,-499.0,858.0,85.0,-118.0,-61.0,153,73,65,90,91,329,16,16
2025-02-19 16:40:10.750,584.0,-1584.0,1254.0,112.0,-123.0,71.0,150,70,59,87,88,379,12,12
2025-02-19 16:40:10.770,1354.0,-1706.0,1915.0,50.0,-18.0,293.0,151,70,60,86,90,429,20,14
2025-02-19 16:40:10.790,1621.0,-1785.0,1469.0,-91.0,61.0,527.0,149,67,58,84,87,473,118,11
2025-02-19 16:40:10.807,1451.0,-646.0,1190.0,-212.0,53.0,729.0,149,67,58,83,86,511,56,13
2025-02-19 16:40:10.827,978.0,860.0,1228.0,-457.0,9.0,719.0,148,67,59,83,84,540,71,13
2025-02-19 16:40:10.844,766.0,1543.0,1434.0,-580.0,-40.0,580.0,147,67,59,81,83,564,646,11
2025-02-19 16:40:10.864,512.0,2183.0,1768.0,-384.0,-67.0,322.0,150,69,60,82,83,577,1018,59
2025-02-19 16:40:10.884,776.0,1781.0,2612.0,-84.0,56.0,104.0,149,69,60,83,82,586,1017,764
2025-02-19 16:40:10.902,365.0,2191.0,2350.0,99.0,184.0,-77.0,149,70,61,83,83,593,1018,1010
2025-02-19 16:40:10.921,414.0,1282.0,1897.0,52.0,266.0,-164.0,147,70,61,83,83,590,1019,1010
2025-02-19 16:40:10.938,596.0,210.0,1540.0,-18.0,363.0,-208.0,148,70,61,83,83,596,1018,1010
2025-02-19 16:40:10.959,516.0,-643.0,1123.0,-72.0,401.0,-191.0,151,74,67,88,88,600,1018,1010
2025-02-19 16:40:10.977,145.0,-1049.0,843.0,-127.0,357.0,-148.0,148,72,65,87,87,530,1018,1011
2025-02-19 16:40:10.999,126.0,-1186.0,810.0,-182.0,328.0,-77.0,147,73,62,89,89,507,1018,1010
2025-02-19 16:40:11.016,143.0,-1041.0,708.0,-208.0,349.0,-14.0,147,74,66,90,90,456,989,1010
2025-02-19 16:40:11.036,25.0,-844.0,402.0,-177.0,367.0,14.0,148,76,68,90,93,434,591,1011
2025-02-19 16:40:11.053,-229.0,-812.0,20.0,-58.0,349.0,26.0,146,76,68,96,96,429,14,1010
2025-02-19 16:40:11.073,-538.0,-563.0,29.0,129.0,273.0,10.0,144,80,72,102,104,428,16,989
2025-02-19 16:40:11.091,-896.0,-231.0,112.0,174.0,256.0,-3.0,141,85,75,109,112,430,15,964
2025-02-19 16:40:11.108,-594.0,-178.0,-42.0,175.0,233.0,-18.0,138,92,79,115,118,446,37,841
2025-02-19 16:40:11.128,-597.0,-28.0,53.0,54.0,172.0,-53.0,138,97,84,123,123,463,507,578
2025-02-19 16:40:11.150,-724.0,315.0,-147.0,48.0,153.0,-74.0,137,99,87,126,124,475,1018,509
2025-02-19 16:40:11.168,-649.0,402.0,-653.0,-24.0,54.0,-131.0,137,101,91,129,124,485,15,693
2025-02-19 16:40:11.188,-868.0,839.0,-1172.0,52.0,-99.0,-226.0,135,104,92,127,122,494,14,494
2025-02-19 16:40:11.208,-1111.0,992.0,-1558.0,2.0,-291.0,-428.0,137,111,96,128,130,504,127,329
2025-02-19 16:40:11.225,-269.0,1118.0,258.0,190.0,-510.0,-563.0,138,114,99,130,136,506,1016,289
2025-02-19 16:40:11.246,374.0,1008.0,-745.0,-49.0,-775.0,-576.0,137,118,100,129,137,512,1018,263
2025-02-19 16:40:11.265,1410.0,-257.0,-1161.0,-124.0,-916.0,-525.0,140,125,102,133,141,512,1018,913
2025-02-19 16:40:11.283,3168.0,-2896.0,668.0,-75.0,-775.0,-276.0,139,127,103,134,144,514,1019,284
2025-02-19 16:40:11.303,3063.0,-3737.0,927.0,-171.0,-342.0,-60.0,141,130,105,136,147,488,1018,14
2025-02-19 16:40:11.322,2784.0,-3692.0,1276.0,49.0,-33.0,58.0,139,128,103,134,144,495,1018,12
2025-02-19 16:40:11.340,1557.0,-2505.0,832.0,75.0,93.0,120.0,141,130,104,135,146,515,1018,74
2025-02-19 16:40:11.360,749.0,-1629.0,1070.0,98.0,159.0,174.0,142,131,104,135,146,531,1018,190
2025-02-19 16:40:11.377,521.0,-1256.0,891.0,4.0,211.0,235.0,139,130,104,134,145,542,1018,24
2025-02-19 16:40:11.397,332.0,-935.0,558.0,-93.0,227.0,257.0,139,130,104,135,146,562,1013,29
2025-02-19 16:40:11.417,140.0,-721.0,564.0,-125.0,246.0,263.0,137,129,103,134,145,579,1018,412
2025-02-19 16:40:11.434,-189.0,-661.0,323.0,-102.0,238.0,253.0,136,129,104,135,144,600,1018,801
2025-02-19 16:40:11.454,78.0,-707.0,188.0,-9.0,219.0,266.0,137,128,104,135,144,579,1018,858
2025-02-19 16:40:11.475,88.0,-583.0,271.0,13.0,198.0,288.0,138,129,104,135,143,582,1019,940
2025-02-19 16:40:11.491,-174.0,-276.0,207.0,56.0,205.0,288.0,138,128,103,135,142,593,1018,971
2025-02-19 16:40:11.512,-308.0,-171.0,152.0,25.0,179.0,261.0,137,126,102,134,141,606,858,988
2025-02-19 16:40:11.531,-282.0,-143.0,245.0,70.0,161.0,218.0,137,124,103,134,141,618,356,994
2025-02-19 16:40:11.548,-221.0,-198.0,43.0,128.0,145.0,175.0,135,121,102,133,139,632,63,1010
2025-02-19 16:40:11.569,-541.0,30.0,-44.0,187.0,142.0,142.0,135,119,103,133,137,644,13,1009
2025-02-19 16:40:11.586,-1000.0,1090.0,-369.0,67.0,92.0,78.0,135,118,103,133,134,653,12,1010
2025-02-19 16:40:11.606,-1297.0,1493.0,-772.0,144.0,-46.0,-92.0,136,118,105,134,133,661,12,1010
2025-02-19 16:40:11.626,-1030.0,2382.0,-979.0,125.0,-196.0,-339.0,135,120,106,134,136,662,12,997
2025-02-19 16:40:11.643,-1052.0,1736.0,-308.0,-70.0,-374.0,-655.0,133,122,105,133,134,667,12,761
2025-02-19 16:40:11.663,-223.0,-26.0,-335.0,-172.0,-646.0,-766.0,132,124,105,134,139,668,12,842
2025-02-19 16:40:11.669,3104.0,-1188.0,-694.0,-219.0,-714.0,-698.0,133,126,104,134,140,671,11,779
2025-02-19 16:40:11.702,4305.0,-4164.0,1367.0,-207.0,-421.0,-323.0,135,128,105,136,144,673,267,835
2025-02-19 16:40:11.720,2805.0,-4783.0,975.0,71.0,25.0,15.0,135,128,105,137,146,650,610,213
2025-02-19 16:40:11.741,1378.0,-3192.0,901.0,281.0,228.0,144.0,136,129,105,138,146,622,1018,14
2025-02-19 16:40:11.758,215.0,-1219.0,928.0,166.0,188.0,150.0,137,128,104,137,145,599,1018,13
2025-02-19 16:40:11.777,-109.0,-721.0,1050.0,61.0,156.0,118.0,137,125,102,135,144,584,1018,12
2025-02-19 16:40:11.794,-279.0,-751.0,746.0,42.0,153.0,93.0,138,124,101,136,144,576,1018,25
2025-02-19 16:40:11.815,-199.0,-653.0,816.0,131.0,166.0,84.0,137,120,96,134,142,569,1018,547
2025-02-19 16:40:11.835,-301.0,-440.0,331.0,202.0,161.0,76.0,138,116,93,132,139,571,920,1010
2025-02-19 16:40:11.849,-301.0,-441.0,309.0,271.0,137.0,51.0,138,110,87,130,132,579,997,1010
2025-02-19 16:40:11.872,17.0,-485.0,302.0,329.0,106.0,19.0,136,103,82,127,122,593,12,1009
2025-02-19 16:40:11.892,-49.0,-381.0,303.0,340.0,88.0,4.0,137,101,80,126,116,606,12,925
2025-02-19 16:40:11.910,-138.0,-474.0,311.0,374.0,47.0,-29.0,136,97,77,121,108,608,12,532
2025-02-19 16:40:11.929,-238.0,-373.0,413.0,445.0,25.0,-69.0,137,94,75,115,105,610,13,12
2025-02-19 16:40:11.949,-234.0,-151.0,340.0,478.0,14.0,-95.0,138,89,72,116,100,612,12,12
2025-02-19 16:40:11.964,-199.0,-33.0,657.0,451.0,13.0,-122.0,140,88,71,112,96,621,13,12
2025-02-19 16:40:11.987,-74.0,-262.0,908.0,382.0,52.0,-113.0,143,86,69,110,93,623,13,12
2025-02-19 16:40:12.003,195.0,-659.0,1066.0,332.0,69.0,-49.0,144,82,66,103,87,619,12,12
2025-02-19 16:40:12.023,793.0,-1086.0,1624.0,210.0,93.0,88.0,146,80,64,97,83,617,13,12
2025-02-19 16:40:12.044,980.0,-717.0,1991.0,-72.0,89.0,292.0,147,75,61,89,78,616,12,12
2025-02-19 16:40:12.060,1138.0,-1252.0,2416.0,-309.0,78.0,507.0,150,72,60,85,77,614,13,12
2025-02-19 16:40:12.080,1455.0,-1346.0,2153.0,-380.0,109.0,639.0,150,69,58,79,74,614,233,12
2025-02-19 16:40:12.101,938.0,418.0,1831.0,-439.0,88.0,615.0,151,70,59,78,73,613,572,23
2025-02-19 16:40:12.116,491.0,1234.0,1601.0,-463.0,91.0,533.0,153,73,60,78,73,614,13,68
2025-02-19 16:40:12.138,-217.0,2048.0,1165.0,-276.0,120.0,301.0,152,75,62,77,73,615,501,176
2025-02-19 16:40:12.158,-346.0,2444.0,875.0,-18.0,86.0,109.0,154,77,62,77,74,610,1018,422
2025-02-19 16:40:12.175,-347.0,2502.0,979.0,9.0,65.0,-24.0,154,76,61,76,73,597,1018,880
2025-02-19 16:40:12.195,-314.0,2015.0,870.0,25.0,61.0,-133.0,155,77,62,77,75,585,1018,925
2025-02-19 16:40:12.213,-262.0,1108.0,702.0,85.0,50.0,-210.0,154,77,62,77,75,552,1018,896
2025-02-19 16:40:12.231,-341.0,378.0,525.0,173.0,-11.0,-298.0,157,80,66,81,79,487,613,530
2025-02-19 16:40:12.253,-136.0,-102.0,683.0,271.0,-90.0,-330.0,156,80,66,82,81,418,146,303
2025-02-19 16:40:12.269,178.0,-699.0,958.0,325.0,-141.0,-237.0,157,80,65,83,82,365,691,491
2025-02-19 16:40:12.290,165.0,-294.0,1367.0,273.0,-151.0,-212.0,159,81,68,85,84,305,1018,817
2025-02-19 16:40:12.310,155.0,-173.0,1475.0,208.0,-112.0,-207.0,157,79,66,83,83,266,1018,998
2025-02-19 16:40:12.327,137.0,-98.0,1561.0,147.0,-37.0,-192.0,158,81,67,85,84,244,1018,1010
2025-02-19 16:40:12.347,50.0,-173.0,1299.0,110.0,22.0,-145.0,156,78,64,83,83,241,498,758
2025-02-19 16:40:12.364,-222.0,23.0,972.0,54.0,8.0,-122.0,156,79,65,84,84,249,16,557
2025-02-19 16:40:12.383,-152.0,-367.0,959.0,11.0,-40.0,-102.0,155,78,64,83,84,282,16,678
2025-02-19 16:40:12.405,275.0,-1439.0,1293.0,52.0,-23.0,13.0,153,77,62,81,82,293,14,836
2025-02-19 16:40:12.421,693.0,-1573.0,1598.0,9.0,62.0,162.0,154,77,62,82,83,341,13,778
2025-02-19 16:40:12.441,754.0,-1583.0,1509.0,-132.0,68.0,329.0,153,74,59,79,80,382,13,583
2025-02-19 16:40:12.462,738.0,-1249.0,1401.0,-310.0,30.0,489.0,155,74,60,79,80,419,13,417
2025-02-19 16:40:12.479,442.0,-58.0,1099.0,-519.0,-14.0,528.0,155,73,60,76,75,452,12,316
2025-02-19 16:40:12.498,343.0,791.0,1150.0,-584.0,-61.0,501.0,155,76,62,78,76,480,14,333
2025-02-19 16:40:12.519,-56.0,1696.0,1506.0,-445.0,-69.0,345.0,155,79,63,79,77,502,14,463
2025-02-19 16:40:12.534,-105.0,1932.0,1841.0,-151.0,-10.0,78.0,154,79,63,79,76,520,13,349
2025-02-19 16:40:12.556,-192.0,2062.0,1846.0,71.0,72.0,-82.0,157,82,67,82,79,534,16,43
2025-02-19 16:40:12.576,-101.0,1473.0,1725.0,54.0,113.0,-180.0,154,79,64,80,77,528,12,12
2025-02-19 16:40:12.594,290.0,-20.0,1833.0,2.0,199.0,-222.0,158,84,70,86,83,498,18,18
2025-02-19 16:40:12.614,341.0,-1019.0,1678.0,-7.0,256.0,-200.0,155,80,68,84,81,447,16,15
2025-02-19 16:40:12.634,20.0,-1246.0,1350.0,-54.0,241.0,-132.0,155,81,69,86,83,413,934,115
2025-02-19 16:40:12.649,-127.0,-1281.0,1179.0,-158.0,208.0,-65.0,156,83,71,88,84,370,1018,986
2025-02-19 16:40:12.667,-147.0,-1249.0,1019.0,-219.0,224.0,-16.0,155,84,73,88,85,335,1017,1011
2025-02-19 16:40:12.684,-233.0,-1134.0,592.0,-212.0,258.0,17.0,155,88,76,92,87,308,1017,1010
2025-02-19 16:40:12.708,-345.0,-1063.0,290.0,-129.0,257.0,43.0,153,89,77,91,88,289,1018,1005
2025-02-19 16:40:12.728,-116.0,-943.0,469.0,-78.0,256.0,99.0,154,89,79,95,92,282,1018,995
2025-02-19 16:40:12.745,-292.0,-683.0,187.0,-1.0,287.0,117.0,153,92,83,98,95,266,1019,1003
2025-02-19 16:40:12.765,-428.0,-466.0,26.0,87.0,278.0,97.0,153,96,87,99,98,256,877,843
2025-02-19 16:40:12.783,-586.0,-206.0,-3.0,105.0,247.0,72.0,153,101,92,103,100,250,1018,550
2025-02-19 16:40:12.802,-490.0,-94.0,76.0,93.0,235.0,67.0,151,103,94,102,99,253,1018,530
2025-02-19 16:40:12.822,-500.0,-67.0,-89.0,106.0,221.0,60.0,151,109,98,102,102,266,1017,544
2025-02-19 16:40:12.843,-543.0,18.0,-293.0,102.0,190.0,49.0,150,112,99,101,102,283,1017,217
2025-02-19 16:40:12.860,-673.0,217.0,-502.0,120.0,131.0,29.0,150,116,102,102,104,301,1018,178
2025-02-19 16:40:12.878,-582.0,490.0,-698.0,140.0,75.0,-13.0,151,119,104,102,106,311,1018,292
2025-02-19 16:40:12.900,-783.0,903.0,-1063.0,136.0,-30.0,-118.0,149,120,105,101,106,322,1018,319
2025-02-19 16:40:12.916,-1084.0,1198.0,-1385.0,123.0,-192.0,-268.0,149,123,107,98,105,329,1018,304
2025-02-19 16:40:12.937,-1039.0,1398.0,-1519.0,162.0,-396.0,-464.0,146,122,106,94,102,337,1018,453
2025-02-19 16:40:12.957,-69.0,2063.0,-1518.0,143.0,-681.0,-605.0,147,125,108,94,99,341,1018,789
2025-02-19 16:40:12.975,1430.0,1725.0,-406.0,-148.0,-886.0,-752.0,144,127,108,90,96,349,1018,1011
2025-02-19 16:40:12.994,3169.0,-1951.0,517.0,-158.0,-859.0,-622.0,144,131,109,95,98,366,1017,989
2025-02-19 16:40:13.011,4307.0,-3111.0,1824.0,-128.0,-578.0,-299.0,141,136,110,96,100,386,1018,687
2025-02-19 16:40:13.029,4449.0,-4406.0,1594.0,0.0,0.0,48.0,136,134,107,99,103,381,1017,754
2025-02-19 16:40:13.051,2230.0,-3250.0,1357.0,275.0,211.0,151.0,137,134,108,98,101,423,1018,422
2025-02-19 16:40:13.067,432.0,-970.0,1205.0,123.0,140.0,179.0,137,135,108,97,100,460,1018,14
2025-02-19 16:40:13.088,528.0,-992.0,953.0,-93.0,56.0,188.0,139,137,110,99,100,487,1018,14
2025-02-19 16:40:13.108,476.0,-1224.0,1047.0,-94.0,112.0,203.0,139,136,108,98,97,514,1018,11
2025-02-19 16:40:13.125,208.0,-1118.0,803.0,-21.0,212.0,250.0,140,135,109,98,97,547,761,314
2025-02-19 16:40:13.145,117.0,-816.0,465.0,58.0,259.0,272.0,142,135,110,99,97,577,13,763
2025-02-19 16:40:13.163,-55.0,-497.0,415.0,97.0,279.0,281.0,141,135,109,98,95,602,311,863
2025-02-19 16:40:13.183,-59.0,-239.0,299.0,79.0,268.0,275.0,142,136,111,98,95,618,776,796
2025-02-19 16:40:13.203,-131.0,-132.0,225.0,67.0,249.0,251.0,141,133,109,96,94,639,746,397
2025-02-19 16:40:13.220,-106.0,-141.0,219.0,74.0,243.0,230.0,142,134,110,97,94,658,479,89
2025-02-19 16:40:13.240,-170.0,-248.0,180.0,94.0,250.0,223.0,142,133,110,97,94,671,11,37
2025-02-19 16:40:13.260,-396.0,57.0,29.0,90.0,228.0,217.0,143,134,110,97,95,678,12,330
2025-02-19 16:40:13.277,-548.0,185.0,-39.0,85.0,198.0,187.0,144,134,111,97,95,683,12,591
2025-02-19 16:40:13.297,-876.0,478.0,-112.0,72.0,143.0,111.0,143,133,110,95,94,685,12,1009
2025-02-19 16:40:13.314,-917.0,796.0,-379.0,1.0,40.0,17.0,145,133,112,95,95,686,13,1010
2025-02-19 16:40:13.333,-1028.0,1152.0,-942.0,3.0,-74.0,-169.0,144,132,110,91,92,687,158,1010
2025-02-19 16:40:13.355,-1294.0,1405.0,-1344.0,51.0,-276.0,-360.0,140,134,112,88,90,687,433,1010
2025-02-19 16:40:13.375,-1134.0,1149.0,-1379.0,56.0,-551.0,-514.0,140,132,110,85,88,687,752,1010
2025-02-19 16:40:13.392,260.0,1253.0,-1276.0,-10.0,-898.0,-551.0,141,134,111,87,90,684,1018,1010
2025-02-19 16:40:13.412,1501.0,132.0,-755.0,-185.0,-1062.0,-514.0,143,134,111,90,95,680,1017,1010
2025-02-19 16:40:13.432,4700.0,-2319.0,2241.0,-298.0,-593.0,-304.0,142,134,110,97,98,676,1018,703
2025-02-19 16:40:13.449,4106.0,-3703.0,2120.0,-94.0,47.0,-59.0,145,137,111,105,104,633,1018,16
2025-02-19 16:40:13.469,1896.0,-2799.0,1810.0,191.0,217.0,24.0,142,131,105,97,97,583,1018,14
2025-02-19 16:40:13.486,330.0,-993.0,1518.0,129.0,137.0,49.0,144,134,103,94,94,555,1018,14
2025-02-19 16:40:13.507,179.0,-803.0,1227.0,-67.0,96.0,69.0,143,133,101,94,92,538,1018,13
2025-02-19 16:40:13.526,62.0,-1114.0,964.0,-13.0,125.0,66.0,144,135,101,97,94,525,1018,15
2025-02-19 16:40:13.544,-82.0,-697.0,745.0,74.0,155.0,65.0,143,133,99,96,93,524,341,14
2025-02-19 16:40:13.564,-129.0,-755.0,670.0,143.0,177.0,58.0,143,130,95,95,91,528,651,352
2025-02-19 16:40:13.581,-201.0,-558.0,418.0,203.0,166.0,41.0,144,127,89,97,90,524,1018,1010
2025-02-19 16:40:13.601,-220.0,-452.0,378.0,200.0,140.0,33.0,142,120,83,99,88,523,995,1009
2025-02-19 16:40:13.620,-47.0,-464.0,647.0,212.0,117.0,21.0,143,117,81,101,90,530,830,807
2025-02-19 16:40:13.637,40.0,-673.0,689.0,271.0,140.0,23.0,142,111,77,103,90,541,406,136
2025-02-19 16:40:13.655,72.0,-483.0,864.0,344.0,173.0,7.0,143,103,74,104,91,557,15,12
2025-02-19 16:40:13.678,-194.0,-199.0,684.0,336.0,171.0,3.0,144,97,72,102,91,568,13,12
2025-02-19 16:40:13.695,-355.0,-66.0,561.0,318.0,152.0,-40.0,143,91,69,99,90,584,12,11
2025-02-19 16:40:13.715,-488.0,-63.0,598.0,310.0,122.0,-60.0,146,85,66,103,91,589,15,14
2025-02-19 16:40:13.735,-443.0,-191.0,631.0,260.0,75.0,-52.0,145,80,62,99,90,580,13,25
2025-02-19 16:40:13.752,-229.0,-641.0,865.0,194.0,-2.0,-9.0,146,76,59,94,90,579,15,124
2025-02-19 16:40:13.772,515.0,-1313.0,1716.0,68.0,-3.0,121.0,147,76,59,94,88,576,12,294
2025-02-19 16:40:13.793,1071.0,-1472.0,2179.0,-158.0,68.0,301.0,147,74,58,91,84,573,76,467
2025-02-19 16:40:13.810,1247.0,-1905.0,1382.0,-340.0,95.0,517.0,149,74,59,88,82,571,121,349
2025-02-19 16:40:13.829,1180.0,-1230.0,1271.0,-335.0,27.0,678.0,148,71,58,84,78,570,140,286
2025-02-19 16:40:13.847,600.0,809.0,1164.0,-427.0,-37.0,645.0,149,74,60,85,78,569,149,184
2025-02-19 16:40:13.867,-71.0,2011.0,1367.0,-420.0,-84.0,457.0,148,78,61,84,78,570,121,12
2025-02-19 16:40:13.885,-256.0,2379.0,1661.0,-195.0,-17.0,153.0,149,82,63,85,81,570,13,196
2025-02-19 16:40:13.904,-217.0,2127.0,1785.0,81.0,68.0,-15.0,151,84,64,87,82,565,13,673
2025-02-19 16:40:13.922,-384.0,1920.0,1441.0,110.0,79.0,-113.0,152,84,64,87,82,543,14,1010
2025-02-19 16:40:13.944,-215.0,1375.0,1258.0,65.0,88.0,-195.0,153,84,65,88,84,520,14,1010
2025-02-19 16:40:13.961,-114.0,340.0,857.0,33.0,77.0,-252.0,151,82,64,87,83,506,13,1010
2025-02-19 16:40:13.982,-176.0,-599.0,582.0,75.0,30.0,-228.0,152,81,65,87,83,495,14,1010
2025-02-19 16:40:14.002,-248.0,-751.0,556.0,165.0,-14.0,-215.0,150,80,63,86,82,494,13,914
2025-02-19 16:40:14.018,-261.0,-436.0,625.0,225.0,-56.0,-217.0,151,80,64,87,85,491,342,810
2025-02-19 16:40:14.039,-174.0,-294.0,698.0,233.0,-95.0,-181.0,151,81,62,89,86,485,537,809
2025-02-19 16:40:14.056,-167.0,-94.0,892.0,206.0,-119.0,-159.0,151,81,64,89,86,481,529,965
2025-02-19 16:40:14.076,-118.0,-10.0,966.0,163.0,-123.0,-146.0,152,83,65,91,89,478,418,1010
2025-02-19 16:40:14.096,-159.0,76.0,973.0,130.0,-125.0,-153.0,151,82,64,91,89,479,14,1009
2025-02-19 16:40:14.113,-10.0,-266.0,1013.0,132.0,-128.0,-138.0,152,84,64,93,93,480,95,937
2025-02-19 16:40:14.133,125.0,-597.0,1149.0,152.0,-114.0,-87.0,150,83,64,93,93,485,180,690
2025-02-19 16:40:14.153,533.0,-1145.0,1494.0,157.0,-66.0,45.0,152,84,64,94,94,495,290,472
2025-02-19 16:40:14.170,859.0,-1224.0,1837.0,44.0,-8.0,202.0,152,84,64,96,94,503,376,95
2025-02-19 16:40:14.188,1145.0,-1542.0,1834.0,-105.0,46.0,411.0,152,80,63,95,92,514,544,12
2025-02-19 16:40:14.210,1315.0,-773.0,1899.0,-321.0,125.0,599.0,153,80,62,94,90,519,843,14
2025-02-19 16:40:14.228,784.0,874.0,1266.0,-568.0,113.0,613.0,152,80,63,90,85,525,1000,12
2025-02-19 16:40:14.248,82.0,1160.0,1020.0,-603.0,8.0,504.0,153,84,63,92,86,529,849,14
2025-02-19 16:40:14.265,-278.0,1329.0,1156.0,-337.0,-36.0,290.0,152,85,65,91,85,531,1018,58
2025-02-19 16:40:14.285,-173.0,2040.0,1572.0,7.0,-2.0,29.0,153,88,68,92,88,534,1018,98
2025-02-19 16:40:14.305,-113.0,2186.0,1588.0,133.0,42.0,-100.0,153,88,68,93,88,536,738,13
2025-02-19 16:40:14.321,-74.0,1445.0,1475.0,42.0,83.0,-167.0,153,89,69,93,88,545,803,12
2025-02-19 16:40:14.338,117.0,155.0,1208.0,-50.0,99.0,-191.0,152,92,71,94,89,563,937,112
2025-02-19 16:40:14.361,243.0,-1161.0,1367.0,5.0,131.0,-181.0,151,93,71,95,90,585,480,397
2025-02-19 16:40:14.380,147.0,-1105.0,1500.0,65.0,182.0,-154.0,154,94,75,100,93,589,1018,781
2025-02-19 16:40:14.399,45.0,-749.0,1384.0,12.0,213.0,-140.0,152,95,77,101,94,578,1018,1010
2025-02-19 16:40:14.419,-42.0,-660.0,1269.0,-99.0,230.0,-105.0,153,99,80,106,96,581,1018,1010
2025-02-19 16:40:14.436,-318.0,-431.0,1184.0,-209.0,220.0,-55.0,152,102,81,109,98,582,1018,1010
2025-02-19 16:40:14.456,-406.0,-886.0,881.0,-276.0,192.0,-18.0,151,103,81,107,99,580,1018,1011
2025-02-19 16:40:14.477,-184.0,-633.0,1006.0,-266.0,239.0,5.0,152,104,84,107,103,569,1018,1010
2025-02-19 16:40:14.493,-346.0,-796.0,836.0,-258.0,283.0,13.0,151,99,80,112,105,558,1018,779
2025-02-19 16:40:14.514,-334.0,-709.0,673.0,-202.0,313.0,26.0,149,95,79,114,107,552,1018,187
2025-02-19 16:40:14.527,-461.0,-615.0,273.0,-165.0,312.0,29.0,146,89,75,111,104,547,1019,12
2025-02-19 16:40:14.551,-625.0,-330.0,123.0,-132.0,294.0,23.0,147,86,73,109,102,543,1018,86
2025-02-19 16:40:14.571,-643.0,-144.0,-44.0,-83.0,244.0,13.0,147,83,70,106,98,537,14,357
2025-02-19 16:40:14.588,-597.0,370.0,-384.0,-72.0,198.0,26.0,150,82,70,100,96,469,108,331
2025-02-19 16:40:14.608,-575.0,1078.0,-612.0,-46.0,128.0,-16.0,149,77,67,89,88,421,81,16
2025-02-19 16:40:14.628,-580.0,2079.0,-1305.0,42.0,51.0,-191.0,143,72,65,80,83,385,151,16
2025-02-19 16:40:14.646,-699.0,2549.0,-1933.0,179.0,-140.0,-412.0,128,69,63,77,77,365,327,16
2025-02-19 16:40:14.666,-813.0,2493.0,-1703.0,180.0,-406.0,-624.0,121,66,60,76,73,345,1017,15
2025-02-19 16:40:14.685,1306.0,1187.0,-1293.0,158.0,-741.0,-821.0,120,65,59,76,76,338,913,16
2025-02-19 16:40:14.702,4697.0,-1558.0,2050.0,147.0,-771.0,-722.0,123,67,60,80,80,331,705,231
2025-02-19 16:40:14.723,5342.0,-4745.0,3128.0,-57.0,-178.0,-183.0,119,68,60,81,82,326,1018,1005
2025-02-19 16:40:14.740,2679.0,-4884.0,1524.0,62.0,124.0,11.0,116,68,58,82,85,332,1019,1010
2025-02-19 16:40:14.756,1285.0,-3138.0,1102.0,125.0,149.0,105.0,115,66,56,80,84,362,1018,1011
2025-02-19 16:40:14.780,503.0,-1862.0,898.0,23.0,139.0,188.0,115,66,57,81,84,392,820,1010
2025-02-19 16:40:14.797,430.0,-1539.0,750.0,-24.0,132.0,174.0,115,66,57,80,83,424,561,788
2025-02-19 16:40:14.817,272.0,-1456.0,601.0,-42.0,149.0,221.0,114,66,58,81,84,453,16,361
2025-02-19 16:40:14.838,95.0,-1086.0,419.0,-34.0,148.0,263.0,115,67,58,82,85,473,351,82
2025-02-19 16:40:14.854,1.0,-458.0,414.0,-51.0,136.0,269.0,114,66,58,83,84,491,13,86
2025-02-19 16:40:14.873,-89.0,-181.0,417.0,-100.0,115.0,235.0,116,67,60,84,86,498,593,243
2025-02-19 16:40:14.894,-194.0,-243.0,440.0,-131.0,86.0,207.0,114,66,59,84,85,511,578,12
2025-02-19 16:40:14.910,-160.0,-313.0,352.0,-143.0,84.0,190.0,115,67,60,84,85,520,13,75
2025-02-19 16:40:14.931,-211.0,-324.0,212.0,-117.0,85.0,179.0,116,67,60,84,86,536,132,257
2025-02-19 16:40:14.949,-277.0,-287.0,302.0,-73.0,99.0,164.0,116,66,60,84,85,556,398,11
2025-02-19 16:40:14.968,-305.0,-234.0,241.0,-30.0,121.0,148.0,117,67,61,85,86,568,892,13
2025-02-19 16:40:14.989,-537.0,-143.0,11.0,3.0,116.0,120.0,117,67,61,84,85,574,1021,12
2025-02-19 16:40:15.005,-685.0,85.0,-86.0,5.0,82.0,87.0,119,68,62,86,85,568,1018,33
2025-02-19 16:40:15.025,-681.0,417.0,-144.0,-18.0,37.0,72.0,119,68,61,85,85,562,1015,483
2025-02-19 16:40:15.046,-639.0,866.0,-276.0,18.0,14.0,12.0,129,79,73,96,95,544,732,953
2025-02-19 16:40:15.063,-763.0,1734.0,-1021.0,244.0,23.0,-149.0,120,74,68,90,88,404,601,1010
2025-02-19 16:40:15.084,-1466.0,3149.0,-1519.0,273.0,-103.0,-383.0,118,72,66,86,85,331,491,1007
2025-02-19 16:40:15.103,-1200.0,3233.0,-1726.0,112.0,-459.0,-648.0,119,73,66,85,84,278,352,773
2025-02-19 16:40:15.121,1991.0,1126.0,-1001.0,-28.0,-804.0,-863.0,120,70,61,83,84,252,57,397
2025-02-19 16:40:15.140,5941.0,-3251.0,1646.0,-87.0,-756.0,-616.0,126,72,64,85,86,248,17,236
2025-02-19 16:40:15.161,5929.0,-6280.0,2563.0,-25.0,-14.0,-91.0,120,71,63,84,86,246,484,112
2025-02-19 16:40:15.177,2309.0,-4346.0,921.0,259.0,225.0,24.0,120,71,61,84,88,265,977,19
2025-02-19 16:40:15.198,1122.0,-2813.0,844.0,204.0,195.0,150.0,119,69,59,82,86,293,1018,128
2025-02-19 16:40:15.214,711.0,-1480.0,683.0,60.0,170.0,182.0,119,68,59,82,84,356,1019,11
2025-02-19 16:40:15.235,238.0,-1473.0,556.0,69.0,142.0,160.0,121,68,60,83,87,409,1018,12
2025-02-19 16:40:15.255,92.0,-1298.0,411.0,102.0,141.0,208.0,122,67,59,84,88,455,1018,39
2025-02-19 16:40:15.272,-133.0,-597.0,341.0,117.0,141.0,219.0,127,69,61,86,90,492,983,552
2025-02-19 16:40:15.292,-11.0,-112.0,654.0,63.0,163.0,192.0,128,67,60,86,89,524,232,1010
2025-02-19 16:40:15.313,207.0,-412.0,680.0,-13.0,193.0,180.0,131,69,62,88,91,553,115,612
2025-02-19 16:40:15.329,173.0,-1320.0,362.0,89.0,181.0,238.0,133,70,63,90,96,574,20,574
2025-02-19 16:40:15.346,181.0,-852.0,307.0,165.0,161.0,295.0,134,69,62,91,94,593,19,905
2025-02-19 16:40:15.370,114.0,-297.0,133.0,162.0,157.0,298.0,136,70,64,94,97,604,119,1002
2025-02-19 16:40:15.386,43.0,-405.0,-48.0,154.0,137.0,291.0,137,70,63,95,99,620,11,1006
2025-02-19 16:40:15.406,-331.0,-355.0,-133.0,170.0,66.0,279.0,139,72,65,96,99,633,12,1010
2025-02-19 16:40:15.424,-479.0,-128.0,-211.0,182.0,-5.0,271.0,139,70,64,93,98,644,11,1010
2025-02-19 16:40:15.444,-500.0,358.0,-165.0,124.0,-118.0,248.0,141,71,65,94,98,656,12,1010
2025-02-19 16:40:15.460,-620.0,742.0,130.0,55.0,-188.0,197.0,143,72,66,90,107,667,12,1010
2025-02-19 16:40:15.477,-589.0,1539.0,31.0,35.0,-247.0,41.0,143,71,67,90,123,680,11,1011
2025-02-19 16:40:15.501,-902.0,1685.0,153.0,116.0,-316.0,-73.0,144,72,68,90,139,688,11,1010
2025-02-19 16:40:15.521,-843.0,2624.0,105.0,228.0,-328.0,-201.0,144,72,68,90,142,696,10,749
2025-02-19 16:40:15.538,-909.0,3137.0,190.0,263.0,-347.0,-330.0,146,73,70,94,145,705,12,277
2025-02-19 16:40:15.558,-292.0,2627.0,660.0,249.0,-362.0,-469.0,146,77,69,95,145,714,11,44
2025-02-19 16:40:15.576,1300.0,1002.0,1946.0,265.0,-297.0,-565.0,148,74,72,102,146,720,11,87
2025-02-19 16:40:15.595,2132.0,-672.0,2717.0,306.0,-146.0,-515.0,149,76,74,107,146,722,11,179
2025-02-19 16:40:15.616,2612.0,-809.0,3409.0,241.0,42.0,-318.0,149,76,70,107,146,727,11,329
2025-02-19 16:40:15.636,2076.0,-743.0,3204.0,-83.0,104.0,-123.0,150,76,69,111,147,729,278,379
2025-02-19 16:40:15.653,1372.0,-1536.0,1843.0,-317.0,72.0,67.0,150,75,67,110,146,730,429,625
2025-02-19 16:40:15.673,598.0,-1950.0,1016.0,-306.0,49.0,210.0,151,76,67,111,147,729,413,407
2025-02-19 16:40:15.691,278.0,-1112.0,846.0,-198.0,41.0,298.0,148,76,67,110,147,727,886,140
2025-02-19 16:40:15.710,-130.0,-235.0,1042.0,-161.0,61.0,346.0,151,77,69,103,147,726,1018,10
2025-02-19 16:40:15.731,-201.0,227.0,943.0,-149.0,71.0,354.0,149,77,69,104,147,723,1018,11
2025-02-19 16:40:15.747,-124.0,137.0,1056.0,-74.0,81.0,363.0,148,76,69,105,145,723,1017,38
2025-02-19 16:40:15.767,-149.0,613.0,958.0,-35.0,68.0,332.0,148,77,70,104,146,722,918,11
2025-02-19 16:40:15.788,-338.0,1173.0,731.0,-49.0,69.0,230.0,148,77,70,102,146,724,333,9
2025-02-19 16:40:15.804,-344.0,1045.0,951.0,-28.0,96.0,106.0,149,78,72,101,147,726,27,10
2025-02-19 16:40:15.824,-490.0,879.0,707.0,-24.0,100.0,46.0,148,78,71,99,147,725,9,10
2025-02-19 16:40:15.842,-713.0,1103.0,369.0,-13.0,61.0,-7.0,148,78,71,96,146,726,53,182
2025-02-19 16:40:15.862,-700.0,1270.0,478.0,8.0,29.0,-99.0,149,79,72,95,147,720,706,486
2025-02-19 16:40:15.882,-784.0,1514.0,415.0,40.0,-3.0,-209.0,148,77,71,93,147,716,763,596
2025-02-19 16:40:15.899,-964.0,2052.0,122.0,28.0,-30.0,-287.0,149,78,72,94,148,710,576,682
2025-02-19 16:40:15.920,-963.0,2093.0,-270.0,-5.0,-69.0,-379.0,149,77,70,95,148,705,375,989
2025-02-19 16:40:15.939,-500.0,1251.0,-220.0,37.0,-177.0,-501.0,148,77,68,95,148,701,437,1010
2025-02-19 16:40:15.956,425.0,-81.0,128.0,117.0,-268.0,-501.0,148,76,66,95,149,694,593,1010
2025-02-19 16:40:15.977,1747.0,-1769.0,847.0,209.0,-307.0,-316.0,148,75,65,99,148,691,688,883
2025-02-19 16:40:15.994,2875.0,-2071.0,2475.0,184.0,-181.0,-71.0,150,77,67,106,148,688,800,639
2025-02-19 16:40:16.013,2333.0,-1143.0,3048.0,-8.0,-38.0,40.0,148,76,66,107,146,671,1018,312
2025-02-19 16:40:16.031,1482.0,-1425.0,2288.0,-148.0,41.0,91.0,147,78,67,109,146,649,982,12
2025-02-19 16:40:16.054,602.0,-856.0,1551.0,-159.0,48.0,142.0,144,77,65,106,143,644,322,9
2025-02-19 16:40:16.070,-8.0,-232.0,1465.0,-203.0,31.0,164.0,143,78,66,106,140,639,978,11
2025-02-19 16:40:16.091,-25.0,-179.0,1660.0,-236.0,48.0,168.0,144,79,67,107,137,632,298,11
2025-02-19 16:40:16.107,66.0,-203.0,1582.0,-253.0,86.0,182.0,144,79,67,107,132,612,11,204
2025-02-19 16:40:16.128,60.0,-282.0,1498.0,-254.0,145.0,195.0,145,80,68,108,138,592,12,335
2025-02-19 16:40:16.148,149.0,-111.0,1336.0,-263.0,200.0,208.0,145,79,68,107,136,576,114,763
2025-02-19 16:40:16.164,54.0,-216.0,1213.0,-259.0,242.0,211.0,147,80,71,108,136,562,493,1010
2025-02-19 16:40:16.185,-133.0,-123.0,932.0,-236.0,263.0,215.0,146,79,70,105,131,544,1018,1010
2025-02-19 16:40:16.205,-202.0,-5.0,544.0,-222.0,275.0,204.0,147,80,72,106,131,531,1018,1003
2025-02-19 16:40:16.223,-365.0,-9.0,421.0,-158.0,276.0,193.0,148,82,76,111,132,520,1018,645
2025-02-19 16:40:16.242,-202.0,172.0,143.0,-79.0,276.0,160.0,156,95,89,126,142,372,1018,437
2025-02-19 16:40:16.262,-86.0,-216.0,-125.0,-14.0,229.0,126.0,156,99,95,127,139,200,1018,474
2025-02-19 16:40:16.279,-833.0,119.0,-159.0,44.0,177.0,99.0,152,103,94,129,136,84,600,350
2025-02-19 16:40:16.300,-959.0,367.0,-402.0,-15.0,77.0,53.0,153,112,101,135,140,24,276,307
2025-02-19 16:40:16.317,-671.0,499.0,-302.0,33.0,52.0,-15.0,149,116,102,136,138,22,21,444
2025-02-19 16:40:16.337,-844.0,929.0,-794.0,-11.0,-36.0,-117.0,150,120,107,140,142,23,24,892
2025-02-19 16:40:16.357,-992.0,1163.0,-1219.0,-71.0,-136.0,-250.0,150,126,109,141,145,23,24,1011
2025-02-19 16:40:16.368,-887.0,1243.0,-926.0,46.0,-290.0,-437.0,148,130,109,138,150,23,22,1010
2025-02-19 16:40:16.394,929.0,567.0,4304.0,-27.0,-364.0,-587.0,150,137,112,140,155,24,312,998
2025-02-19 16:40:16.414,1731.0,1006.0,-897.0,-174.0,-648.0,-723.0,147,138,111,139,154,22,1018,835
2025-02-19 16:40:16.431,1593.0,-1038.0,853.0,-234.0,-684.0,-700.0,148,142,114,142,155,23,1017,894
2025-02-19 16:40:16.451,3076.0,-2493.0,809.0,-132.0,-636.0,-423.0,143,141,112,141,153,20,1018,923
2025-02-19 16:40:16.472,3993.0,-4023.0,492.0,-183.0,-200.0,20.0,142,142,115,143,155,21,1018,271
2025-02-19 16:40:16.488,2967.0,-3536.0,561.0,78.0,28.0,201.0,141,140,113,141,152,31,1018,210
2025-02-19 16:40:16.508,1023.0,-2096.0,713.0,247.0,207.0,234.0,143,138,112,140,152,72,1018,181
2025-02-19 16:40:16.528,586.0,-1586.0,727.0,158.0,237.0,249.0,144,139,113,141,152,88,1018,172
2025-02-19 16:40:16.546,315.0,-846.0,573.0,36.0,210.0,277.0,141,136,110,138,149,114,1018,126
2025-02-19 16:40:16.566,158.0,-846.0,697.0,-33.0,209.0,285.0,142,136,109,139,150,170,309,49
2025-02-19 16:40:16.583,-45.0,-572.0,-60.0,-62.0,153.0,283.0,141,134,110,137,148,209,16,560
2025-02-19 16:40:16.603,26.0,-551.0,150.0,7.0,160.0,265.0,142,133,110,138,147,263,16,1009
2025-02-19 16:40:16.623,-201.0,-396.0,274.0,23.0,168.0,233.0,142,133,111,138,149,298,88,1000
2025-02-19 16:40:16.640,-230.0,-405.0,219.0,49.0,141.0,204.0,145,136,114,141,152,273,302,449
2025-02-19 16:40:16.660,-240.0,-132.0,179.0,42.0,104.0,187.0,144,135,113,141,151,256,994,19
2025-02-19 16:40:16.681,-141.0,-51.0,334.0,4.0,138.0,159.0,144,138,113,141,151,239,906,19
2025-02-19 16:40:16.698,-578.0,-200.0,312.0,-13.0,112.0,148.0,144,135,114,142,152,211,897,73
2025-02-19 16:40:16.718,-554.0,-28.0,314.0,46.0,124.0,119.0,143,131,113,140,150,197,849,262
2025-02-19 16:40:16.738,-566.0,729.0,225.0,76.0,141.0,70.0,144,131,114,141,151,199,563,427
2025-02-19 16:40:16.755,-1094.0,1639.0,-91.0,0.0,110.0,-30.0,145,132,115,142,153,200,20,669
2025-02-19 16:40:16.775,-1452.0,2054.0,-581.0,63.0,35.0,-287.0,145,132,115,141,153,203,18,1009
2025-02-19 16:40:16.792,-923.0,2905.0,-355.0,9.0,-100.0,-585.0,147,135,116,143,154,209,19,550
2025-02-19 16:40:16.812,555.0,2121.0,-292.0,-194.0,-365.0,-851.0,142,136,115,142,154,219,18,557
2025-02-19 16:40:16.832,1769.0,-383.0,-139.0,-325.0,-494.0,-930.0,135,138,116,142,154,232,18,472
2025-02-19 16:40:16.849,4318.0,-1761.0,-372.0,-305.0,-363.0,-673.0,131,136,114,141,154,249,185,65
2025-02-19 16:40:16.870,4867.0,-4118.0,-1002.0,-116.0,-208.0,-172.0,129,136,112,140,153,277,1016,20
2025-02-19 16:40:16.890,3645.0,-4216.0,-311.0,243.0,34.0,114.0,131,136,113,141,154,285,1018,18
2025-02-19 16:40:16.907,1498.0,-2499.0,204.0,361.0,201.0,237.0,134,138,114,142,154,270,1017,19
2025-02-19 16:40:16.926,380.0,-1521.0,414.0,253.0,167.0,290.0,137,139,114,142,154,268,1018,166
2025-02-19 16:40:16.946,37.0,-1166.0,565.0,198.0,159.0,290.0,137,137,112,140,153,286,1018,17
2025-02-19 16:40:16.964,-232.0,-939.0,166.0,206.0,147.0,300.0,138,136,110,139,153,315,1018,161
2025-02-19 16:40:16.982,83.0,-794.0,-285.0,231.0,113.0,311.0,139,132,106,137,152,347,15,1010
2025-02-19 16:40:17.001,163.0,-739.0,173.0,248.0,122.0,319.0,137,119,98,133,148,389,15,1010
2025-02-19 16:40:17.019,8.0,-632.0,209.0,249.0,73.0,315.0,139,105,90,118,148,424,16,1011
2025-02-19 16:40:17.041,147.0,-498.0,-40.0,242.0,7.0,288.0,137,93,82,110,146,451,15,635
2025-02-19 16:40:17.058,5.0,-508.0,-56.0,238.0,-53.0,287.0,140,91,81,109,148,441,18,52
2025-02-19 16:40:17.078,14.0,-269.0,197.0,256.0,-100.0,279.0,139,85,76,103,146,441,16,18
2025-02-19 16:40:17.098,14.0,-96.0,342.0,203.0,-97.0,284.0,140,83,75,105,145,449,280,15
2025-02-19 16:40:17.115,-77.0,517.0,179.0,133.0,-129.0,206.0,140,85,77,101,146,457,420,17
2025-02-19 16:40:17.135,-328.0,806.0,491.0,185.0,-156.0,109.0,140,84,76,98,149,464,866,15
2025-02-19 16:40:17.155,-493.0,1146.0,874.0,203.0,-141.0,41.0,143,85,78,97,153,459,991,422
2025-02-19 16:40:17.170,-622.0,2294.0,1007.0,176.0,-125.0,-89.0,143,85,77,92,152,443,811,1011
2025-02-19 16:40:17.192,-617.0,2762.0,1204.0,101.0,-52.0,-237.0,145,86,79,95,155,436,18,1011
2025-02-19 16:40:17.210,-588.0,2687.0,1200.0,24.0,44.0,-374.0,144,85,79,97,154,428,16,1010
2025-02-19 16:40:17.229,219.0,1384.0,1289.0,46.0,124.0,-520.0,146,88,81,102,155,426,11,1010
2025-02-19 16:40:17.247,657.0,253.0,1607.0,139.0,131.0,-578.0,147,90,83,110,155,427,160,941
2025-02-19 16:40:17.267,844.0,-997.0,1673.0,135.0,98.0,-498.0,146,87,80,112,154,441,355,753
2025-02-19 16:40:17.287,1042.0,-1605.0,1603.0,0.0,-10.0,-317.0,147,87,77,113,155,463,377,429
2025-02-19 16:40:17.307,1373.0,-2454.0,1530.0,-133.0,-80.0,-74.0,146,85,75,112,154,488,15,248
2025-02-19 16:40:17.321,1021.0,-2419.0,1246.0,-173.0,-62.0,67.0,147,87,77,115,156,507,14,210
2025-02-19 16:40:17.344,621.0,-1984.0,806.0,-96.0,-19.0,173.0,145,85,76,113,154,527,14,172
2025-02-19 16:40:17.364,205.0,-961.0,946.0,-33.0,-6.0,231.0,146,87,78,114,154,548,195,14
2025-02-19 16:40:17.381,-229.0,-247.0,996.0,-50.0,-17.0,246.0,147,88,79,115,155,561,1017,15
2025-02-19 16:40:17.401,-342.0,-74.0,1029.0,-91.0,-27.0,260.0,146,87,79,115,154,574,985,13
2025-02-19 16:40:17.416,-316.0,-38.0,990.0,-81.0,-25.0,268.0,147,89,81,116,154,583,934,93
2025-02-19 16:40:17.439,-178.0,-134.0,971.0,-41.0,-1.0,266.0,146,88,81,115,152,590,836,494
2025-02-19 16:40:17.458,-125.0,12.0,863.0,18.0,32.0,259.0,148,89,83,117,153,591,727,1009
2025-02-19 16:40:17.476,-341.0,325.0,723.0,59.0,33.0,230.0,146,87,81,114,152,594,483,1010
2025-02-19 16:40:17.496,-481.0,703.0,684.0,31.0,6.0,167.0,146,88,83,114,153,598,371,1009
2025-02-19 16:40:17.515,-542.0,740.0,717.0,-15.0,-17.0,120.0,148,89,83,113,153,602,325,866
2025-02-19 16:40:17.533,-503.0,791.0,791.0,-48.0,-38.0,94.0,147,88,82,112,153,606,296,816
2025-02-19 16:40:17.553,-684.0,1415.0,992.0,-59.0,-37.0,-5.0,149,89,84,112,153,606,386,932
2025-02-19 16:40:17.573,-787.0,2205.0,926.0,-41.0,6.0,-180.0,147,88,83,110,153,608,582,997
2025-02-19 16:40:17.590,-882.0,2566.0,811.0,-36.0,54.0,-308.0,148,90,84,114,155,606,978,992
2025-02-19 16:40:17.611,-913.0,2800.0,693.0,-94.0,35.0,-456.0,147,89,83,103,153,605,1018,860
2025-02-19 16:40:17.631,51.0,2025.0,951.0,-241.0,-37.0,-605.0,148,91,85,110,154,604,1018,772
2025-02-19 16:40:17.647,1662.0,-1271.0,1180.0,-211.0,29.0,-586.0,148,91,86,123,153,603,1018,798
2025-02-19 16:40:17.666,2271.0,-2717.0,810.0,11.0,133.0,-372.0,149,89,82,122,151,603,1018,738
2025-02-19 16:40:17.683,1155.0,-2266.0,335.0,-77.0,8.0,-207.0,148,89,80,126,151,604,1018,535
2025-02-19 16:40:17.704,1120.0,-2398.0,198.0,-231.0,-157.0,-96.0,147,88,79,120,149,611,1017,105
2025-02-19 16:40:17.725,1386.0,-2881.0,460.0,-184.0,-164.0,32.0,147,89,80,124,147,622,870,14
2025-02-19 16:40:17.742,1012.0,-2055.0,1047.0,-67.0,-82.0,122.0,146,88,80,124,143,629,1018,12
2025-02-19 16:40:17.762,435.0,-1238.0,1474.0,-57.0,13.0,132.0,147,89,81,126,140,637,1019,14
2025-02-19 16:40:17.782,-7.0,-1193.0,1391.0,-83.0,45.0,165.0,147,87,82,127,135,643,1018,14
2025-02-19 16:40:17.800,-128.0,-993.0,1253.0,-104.0,48.0,206.0,147,88,80,126,128,648,1016,51
2025-02-19 16:40:17.819,-114.0,-759.0,1073.0,-103.0,69.0,224.0,148,88,82,127,124,652,474,184
2025-02-19 16:40:17.837,5.0,-710.0,855.0,-81.0,100.0,233.0,147,87,81,127,120,656,14,260
2025-02-19 16:40:17.854,1.0,-703.0,783.0,-24.0,127.0,260.0,147,90,83,128,117,661,13,113
2025-02-19 16:40:17.872,-11.0,-647.0,459.0,29.0,144.0,296.0,147,94,86,128,114,664,14,69
2025-02-19 16:40:17.894,-9.0,-355.0,462.0,97.0,153.0,324.0,147,99,88,123,111,668,99,13
2025-02-19 16:40:17.914,-193.0,-32.0,349.0,131.0,174.0,318.0,148,107,93,123,108,652,1018,15
2025-02-19 16:40:17.933,-337.0,208.0,201.0,142.0,220.0,287.0,147,111,96,119,103,640,1018,13
2025-02-19 16:40:17.951,-443.0,473.0,46.0,128.0,246.0,247.0,147,116,100,117,101,629,1018,128
2025-02-19 16:40:17.971,-467.0,732.0,-239.0,54.0,207.0,197.0,146,117,100,114,98,618,989,493
2025-02-19 16:40:17.991,-774.0,901.0,-666.0,10.0,135.0,97.0,146,120,102,108,94,611,406,1010
2025-02-19 16:40:18.008,-1035.0,1082.0,-1414.0,38.0,7.0,-63.0,146,122,104,100,92,604,14,1010
2025-02-19 16:40:18.029,-1244.0,2109.0,-1589.0,7.0,-212.0,-287.0,146,124,105,94,89,600,13,1010
2025-02-19 16:40:18.049,-747.0,2092.0,-1980.0,-167.0,-446.0,-504.0,146,126,107,91,83,595,22,1010
2025-02-19 16:40:18.066,-474.0,1610.0,-1880.0,-199.0,-695.0,-653.0,143,128,107,88,79,593,13,1010
2025-02-19 16:40:18.085,1523.0,947.0,-1050.0,-229.0,-950.0,-674.0,144,133,109,90,80,590,267,1010
2025-02-19 16:40:18.106,2816.0,-1249.0,91.0,-254.0,-1054.0,-602.0,144,135,108,92,81,589,14,1009
2025-02-19 16:40:18.121,4364.0,-2964.0,1707.0,-285.0,-634.0,-332.0,144,138,108,93,85,593,108,431
2025-02-19 16:40:18.143,4873.0,-4401.0,1521.0,-127.0,-58.0,8.0,142,140,109,93,89,591,1018,13
2025-02-19 16:40:18.161,2921.0,-3550.0,1167.0,187.0,298.0,135.0,141,139,108,93,90,599,1018,13
2025-02-19 16:40:18.180,932.0,-1576.0,1047.0,219.0,309.0,143.0,143,140,109,94,90,600,1017,15
2025-02-19 16:40:18.200,420.0,-1176.0,972.0,32.0,213.0,179.0,142,139,108,94,90,603,1018,35
2025-02-19 16:40:18.217,273.0,-1070.0,895.0,-39.0,185.0,212.0,143,141,109,96,91,609,1018,13
2025-02-19 16:40:18.236,127.0,-972.0,635.0,-6.0,215.0,229.0,146,143,113,98,94,590,1019,435
2025-02-19 16:40:18.258,36.0,-545.0,422.0,53.0,255.0,233.0,145,142,111,97,93,541,1018,814
2025-02-19 16:40:18.274,-17.0,-367.0,297.0,91.0,270.0,218.0,145,141,112,98,94,525,1018,1010
2025-02-19 16:40:18.292,-98.0,-59.0,233.0,90.0,267.0,196.0,145,140,110,97,95,512,960,876
2025-02-19 16:40:18.315,-262.0,4.0,226.0,50.0,239.0,185.0,147,142,112,100,98,490,1018,409
2025-02-19 16:40:18.332,-291.0,-7.0,249.0,20.0,213.0,166.0,145,140,111,98,98,482,1007,14
2025-02-19 16:40:18.352,-344.0,-26.0,307.0,18.0,203.0,134.0,147,140,112,99,99,490,16,15
2025-02-19 16:40:18.369,-394.0,17.0,283.0,11.0,188.0,103.0,145,139,110,97,99,502,13,13
2025-02-19 16:40:18.386,-597.0,-72.0,229.0,-3.0,158.0,73.0,146,139,112,98,100,512,15,168
2025-02-19 16:40:18.406,-710.0,89.0,45.0,-7.0,121.0,55.0,147,139,113,98,100,521,15,719
2025-02-19 16:40:18.424,-1058.0,485.0,-407.0,27.0,53.0,-31.0,146,138,111,97,99,530,55,1010
2025-02-19 16:40:18.440,-1323.0,1252.0,-839.0,107.0,-78.0,-202.0,145,139,114,97,101,537,14,1010
2025-02-19 16:40:18.466,-1494.0,2355.0,-1128.0,73.0,-250.0,-444.0,137,138,112,92,96,546,13,1010
2025-02-19 16:40:18.484,-999.0,2052.0,-1176.0,-68.0,-503.0,-571.0,131,140,113,91,93,554,15,1009
2025-02-19 16:40:18.504,392.0,1058.0,-636.0,-143.0,-732.0,-639.0,128,138,111,90,92,560,135,1010
2025-02-19 16:40:18.521,3333.0,-913.0,-10.0,-255.0,-783.0,-547.0,128,140,112,92,95,561,1018,1010
2025-02-19 16:40:18.540,4272.0,-3093.0,798.0,-212.0,-489.0,-304.0,125,140,111,93,97,564,903,566
2025-02-19 16:40:18.561,4132.0,-3753.0,782.0,-52.0,-114.0,-28.0,123,139,110,93,99,572,1017,297
2025-02-19 16:40:18.580,2393.0,-2862.0,716.0,143.0,131.0,18.0,124,143,111,94,100,580,1018,13
2025-02-19 16:40:18.598,1160.0,-1776.0,591.0,113.0,139.0,93.0,125,138,110,93,99,591,1018,12
2025-02-19 16:40:18.618,629.0,-1548.0,574.0,43.0,109.0,140.0,128,139,112,94,101,597,1018,13
2025-02-19 16:40:18.635,568.0,-1419.0,500.0,72.0,110.0,169.0,129,137,110,95,102,600,1018,12
2025-02-19 16:40:18.655,460.0,-1448.0,367.0,144.0,133.0,216.0,134,136,110,98,103,603,1018,170
2025-02-19 16:40:18.665,406.0,-1122.0,326.0,223.0,153.0,247.0,138,135,108,102,111,601,1018,575
2025-02-19 16:40:18.692,453.0,-776.0,207.0,261.0,162.0,256.0,140,131,105,105,113,598,1018,988
2025-02-19 16:40:18.712,206.0,-627.0,328.0,243.0,152.0,274.0,144,128,102,114,118,592,941,839
2025-02-19 16:40:18.732,265.0,-558.0,282.0,246.0,134.0,292.0,139,118,95,117,121,538,16,345
2025-02-19 16:40:18.750,153.0,-399.0,218.0,255.0,103.0,303.0,144,112,92,122,128,499,16,17
2025-02-19 16:40:18.768,-124.0,-324.0,454.0,262.0,91.0,297.0,144,104,85,121,134,472,15,14
2025-02-19 16:40:18.787,-90.0,67.0,440.0,233.0,90.0,281.0,144,98,81,113,140,455,174,16
2025-02-19 16:40:18.807,-195.0,263.0,368.0,180.0,66.0,244.0,146,95,80,103,144,442,608,17
2025-02-19 16:40:18.827,-341.0,524.0,403.0,126.0,25.0,212.0,144,92,78,96,144,433,667,15
2025-02-19 16:40:18.842,-512.0,887.0,529.0,93.0,-40.0,166.0,146,92,78,92,147,425,798,337
2025-02-19 16:40:18.864,-545.0,1633.0,699.0,92.0,-54.0,37.0,145,90,75,92,146,417,572,875
2025-02-19 16:40:18.884,-717.0,1878.0,774.0,130.0,-18.0,-104.0,146,88,75,91,150,412,16,1010
2025-02-19 16:40:18.902,-906.0,2712.0,619.0,192.0,44.0,-209.0,146,86,69,86,150,408,16,1010
2025-02-19 16:40:18.921,-890.0,3273.0,401.0,176.0,78.0,-377.0,146,84,71,80,151,409,15,1011
2025-02-19 16:40:18.942,-580.0,2685.0,353.0,120.0,45.0,-540.0,146,82,70,82,152,416,15,1010
2025-02-19 16:40:18.959,258.0,1136.0,960.0,158.0,-48.0,-651.0,142,77,65,81,151,424,15,1010
2025-02-19 16:40:18.980,1217.0,-446.0,1506.0,190.0,-205.0,-597.0,145,76,65,85,153,429,16,1010
2025-02-19 16:40:18.999,2270.0,-2140.0,2408.0,121.0,-211.0,-408.0,145,78,64,91,154,407,18,1009
2025-02-19 16:40:19.015,2607.0,-2906.0,2717.0,-36.0,-85.0,-81.0,147,83,65,93,155,382,18,1008
2025-02-19 16:40:19.036,2064.0,-2679.0,1983.0,-188.0,-14.0,75.0,145,79,64,92,154,371,17,644
2025-02-19 16:40:19.053,1484.0,-1959.0,1114.0,-207.0,0.0,215.0,141,78,64,94,150,384,16,16
2025-02-19 16:40:19.073,506.0,-1346.0,731.0,-111.0,-33.0,265.0,141,80,66,96,151,365,396,17
2025-02-19 16:40:19.089,79.0,-771.0,1003.0,-42.0,-43.0,285.0,145,85,72,102,155,312,752,21
2025-02-19 16:40:19.109,-218.0,-82.0,1145.0,-44.0,-1.0,317.0,146,86,73,104,154,276,1018,22
2025-02-19 16:40:19.130,-250.0,429.0,1042.0,-84.0,18.0,316.0,144,84,72,99,151,221,841,19
2025-02-19 16:40:19.150,-336.0,416.0,995.0,-72.0,8.0,275.0,145,85,74,100,152,193,21,49
2025-02-19 16:40:19.167,-349.0,590.0,853.0,-22.0,1.0,247.0,147,87,76,99,153,161,206,202
2025-02-19 16:40:19.187,-419.0,643.0,920.0,57.0,-4.0,191.0,147,86,76,97,153,136,876,376
2025-02-19 16:40:19.208,-371.0,864.0,962.0,90.0,17.0,145.0,148,87,77,98,153,117,1018,360
2025-02-19 16:40:19.224,-434.0,1139.0,949.0,51.0,22.0,71.0,146,85,75,96,152,111,563,214
2025-02-19 16:40:19.243,-595.0,1007.0,951.0,15.0,13.0,10.0,147,86,76,95,152,117,20,741
2025-02-19 16:40:19.261,-601.0,997.0,885.0,10.0,1.0,-28.0,146,84,73,93,151,138,18,1010
2025-02-19 16:40:19.282,-726.0,1563.0,884.0,8.0,14.0,-118.0,147,86,75,93,152,160,18,1011
2025-02-19 16:40:19.301,-791.0,1814.0,665.0,16.0,59.0,-217.0,148,88,77,93,153,180,19,1010
2025-02-19 16:40:19.319,-996.0,2131.0,375.0,42.0,88.0,-320.0,147,87,76,91,152,200,18,1012
2025-02-19 16:40:19.338,-675.0,1880.0,41.0,39.0,24.0,-448.0,148,88,77,92,154,215,18,1010
2025-02-19 16:40:19.359,32.0,233.0,449.0,67.0,-121.0,-510.0,147,86,74,92,152,231,18,948
2025-02-19 16:40:19.376,1456.0,-1459.0,722.0,152.0,-246.0,-436.0,149,88,74,96,154,244,20,786
2025-02-19 16:40:19.397,2323.0,-3217.0,2225.0,177.0,-213.0,-198.0,147,86,72,97,153,253,56,557
2025-02-19 16:40:19.417,2257.0,-2125.0,2535.0,60.0,-26.0,77.0,148,89,74,97,154,270,296,232
2025-02-19 16:40:19.434,1254.0,-1452.0,1716.0,-172.0,3.0,127.0,149,89,75,99,153,287,835,18
2025-02-19 16:40:19.454,263.0,-1088.0,969.0,-219.0,-16.0,200.0,147,87,73,100,151,307,1018,16
2025-02-19 16:40:19.474,-137.0,-921.0,1066.0,-152.0,-59.0,242.0,148,88,75,103,152,326,1018,17
2025-02-19 16:40:19.491,-157.0,-222.0,1501.0,-94.0,-63.0,238.0,146,87,74,102,150,350,1018,16
2025-02-19 16:40:19.511,-131.0,86.0,1828.0,-90.0,-1.0,213.0,147,88,77,103,150,389,1018,15
2025-02-19 16:40:19.528,-125.0,197.0,1828.0,-116.0,73.0,184.0,146,88,76,104,149,423,1021,236
2025-02-19 16:40:19.548,-205.0,12.0,1559.0,-114.0,125.0,149.0,149,92,79,111,150,451,1018,523
2025-02-19 16:40:19.569,-136.0,-121.0,1426.0,-89.0,165.0,140.0,149,94,80,113,145,477,1018,712
2025-02-19 16:40:19.585,-147.0,-301.0,1286.0,-66.0,202.0,132.0,149,95,81,115,138,501,1018,966
2025-02-19 16:40:19.605,-82.0,-94.0,1104.0,-56.0,259.0,111.0,150,95,82,116,133,525,53,1011
2025-02-19 16:40:19.626,-277.0,176.0,891.0,-115.0,281.0,102.0,153,94,82,119,128,513,411,1010
2025-02-19 16:40:19.643,-413.0,53.0,727.0,-198.0,278.0,103.0,156,94,82,122,123,479,1018,1011
2025-02-19 16:40:19.663,-373.0,-65.0,463.0,-210.0,278.0,94.0,153,87,77,116,107,441,1018,995
2025-02-19 16:40:19.683,-181.0,-44.0,301.0,-189.0,295.0,101.0,154,86,77,116,100,416,933,848
2025-02-19 16:40:19.696,-326.0,130.0,218.0,-175.0,309.0,106.0,155,81,75,109,95,395,701,541
2025-02-19 16:40:19.713,-559.0,943.0,-67.0,-215.0,289.0,106.0,152,76,71,97,87,381,787,361
2025-02-19 16:40:19.737,-75.0,1463.0,-496.0,-167.0,282.0,49.0,150,74,70,85,93,374,469,414
2025-02-19 16:40:19.757,-151.0,2367.0,-2420.0,97.0,156.0,-187.0,140,72,67,78,101,369,18,714
2025-02-19 16:40:19.774,-1257.0,2337.0,-3381.0,94.0,-187.0,-407.0,133,69,64,72,81,364,18,1010
2025-02-19 16:40:19.794,-888.0,2121.0,-2957.0,178.0,-592.0,-571.0,127,67,61,68,67,360,18,1010
2025-02-19 16:40:19.815,1774.0,967.0,-1906.0,192.0,-968.0,-677.0,128,67,61,70,71,361,18,802
2025-02-19 16:40:19.835,4644.0,-1883.0,-560.0,403.0,-1118.0,-537.0,134,69,62,72,78,364,18,524
2025-02-19 16:40:19.851,5623.0,-3512.0,5095.0,420.0,-617.0,-61.0,140,70,62,74,79,371,16,464
2025-02-19 16:40:19.872,3236.0,-1039.0,4252.0,40.0,45.0,10.0,139,73,64,76,82,378,19,23
2025-02-19 16:40:19.891,999.0,-2684.0,3148.0,-85.0,59.0,-38.0,135,70,62,75,80,398,273,57
2025-02-19 16:40:19.908,539.0,-1953.0,2725.0,-88.0,127.0,109.0,136,72,63,76,82,412,1017,17
2025-02-19 16:40:19.928,428.0,-866.0,2074.0,-132.0,227.0,92.0,136,71,60,75,83,425,1018,16
2025-02-19 16:40:19.949,240.0,-1081.0,1298.0,-115.0,291.0,101.0,137,73,65,78,85,344,1018,185
2025-02-19 16:40:19.965,-84.0,-864.0,700.0,-79.0,292.0,140.0,140,74,66,79,89,337,1018,758
2025-02-19 16:40:19.986,-203.0,-468.0,458.0,-80.0,267.0,153.0,138,72,64,77,89,339,1018,1002
2025-02-19 16:40:19.998,8.0,-441.0,450.0,-91.0,248.0,146.0,139,72,65,79,91,350,707,1009
2025-02-19 16:40:20.024,-9.0,-513.0,447.0,-83.0,237.0,145.0,137,73,63,78,90,372,17,649
2025-02-19 16:40:20.043,-75.0,-418.0,312.0,-76.0,227.0,158.0,138,72,64,80,93,396,17,16
2025-02-19 16:40:20.060,-139.0,-277.0,242.0,-65.0,211.0,161.0,146,79,72,89,102,312,25,23
2025-02-19 16:40:20.079,-183.0,-194.0,203.0,-60.0,204.0,151.0,144,78,70,88,102,243,43,22
2025-02-19 16:40:20.100,-151.0,-167.0,165.0,-40.0,211.0,147.0,146,79,72,90,103,189,248,206
2025-02-19 16:40:20.117,-290.0,-94.0,-8.0,-26.0,210.0,150.0,145,78,70,88,102,146,222,734
2025-02-19 16:40:20.138,-467.0,-41.0,-272.0,4.0,172.0,151.0,147,79,73,90,104,113,23,1011
2025-02-19 16:40:20.156,-605.0,548.0,-658.0,-5.0,114.0,159.0,145,70,71,89,102,92,22,1010
2025-02-19 16:40:20.175,-539.0,1518.0,-1615.0,82.0,26.0,1.0,138,78,71,85,100,90,22,1010
2025-02-19 16:40:20.195,-1198.0,2314.0,-2905.0,299.0,-170.0,-216.0,134,78,70,83,96,95,22,1010
2025-02-19 16:40:20.212,-1266.0,2843.0,-3062.0,235.0,-540.0,-421.0,131,75,68,79,89,105,20,1010
2025-02-19 16:40:20.232,973.0,2406.0,-2356.0,124.0,-979.0,-551.0,134,75,68,80,91,117,22,579
2025-02-19 16:40:20.249,4715.0,-1368.0,928.0,156.0,-1144.0,-438.0,137,75,67,81,91,131,244,615
2025-02-19 16:40:20.270,5630.0,-3795.0,5214.0,244.0,-275.0,-75.0,144,78,70,84,94,143,674,612
2025-02-19 16:40:20.289,2684.0,-1656.0,4104.0,164.0,162.0,-74.0,134,76,67,82,94,154,1018,483
2025-02-19 16:40:20.310,522.0,-1713.0,2784.0,-10.0,108.0,-35.0,134,77,68,82,93,177,1018,259
2025-02-19 16:40:20.326,70.0,-1133.0,1833.0,-194.0,91.0,27.0,133,77,68,83,94,184,1015,115
2025-02-19 16:40:20.347,-273.0,-896.0,1087.0,-192.0,94.0,3.0,130,76,66,81,94,196,1017,444
2025-02-19 16:40:20.363,-421.0,-869.0,632.0,-79.0,103.0,3.0,129,74,65,80,92,229,732,1010
2025-02-19 16:40:20.384,-529.0,-416.0,365.0,-45.0,96.0,-2.0,127,72,64,78,90,297,16,1010
2025-02-19 16:40:20.403,-437.0,-367.0,245.0,-56.0,50.0,-6.0,127,72,64,80,91,355,68,987
2025-02-19 16:40:20.421,-224.0,-466.0,363.0,-68.0,4.0,-8.0,124,70,62,77,89,408,133,754
2025-02-19 16:40:20.441,60.0,-652.0,547.0,-62.0,-21.0,-11.0,125,71,63,78,90,461,633,538
2025-02-19 16:40:20.461,256.0,-862.0,746.0,-17.0,0.0,-2.0,125,71,63,78,90,512,1020,16
2025-02-19 16:40:20.478,194.0,-795.0,720.0,19.0,24.0,8.0,124,70,62,77,89,564,1018,14
2025-02-19 16:40:20.499,60.0,-643.0,654.0,21.0,21.0,7.0,125,71,64,78,90,606,1018,153
2025-02-19 16:40:20.515,-43.0,-555.0,645.0,4.0,7.0,3.0,124,70,62,78,89,638,1018,436
2025-02-19 16:40:20.535,-107.0,-524.0,649.0,-18.0,-6.0,-4.0,126,72,64,79,91,658,1018,660
2025-02-19 16:40:20.555,-100.0,-597.0,687.0,-24.0,-12.0,-11.0,125,70,62,78,89,671,1019,885
2025-02-19 16:40:20.575,-20.0,-750.0,727.0,-10.0,-4.0,-14.0,127,72,64,80,91,679,1018,1010
2025-02-19 16:40:20.592,17.0,-808.0,753.0,5.0,1.0,-9.0,127,72,64,79,91,687,956,1010
2025-02-19 16:40:20.613,44.0,-764.0,784.0,0.0,7.0,-4.0,125,71,63,78,90,695,917,883
2025-02-19 16:40:20.629,0.0,-746.0,743.0,-9.0,9.0,-3.0,126,72,64,79,91,704,497,666
2025-02-19 16:40:20.650,-55.0,-748.0,671.0,-13.0,-1.0,-1.0,125,71,62,77,90,715,72,460
2025-02-19 16:40:20.670,-47.0,-742.0,683.0,-10.0,-14.0,-1.0,125,72,63,79,91,722,173,223
2025-02-19 16:40:20.688,-7.0,-762.0,746.0,-3.0,-12.0,-3.0,124,70,62,77,89,731,223,13
2025-02-19 16:40:20.707,21.0,-767.0,782.0,-4.0,-2.0,1.0,125,72,63,78,91,738,194,15
2025-02-19 16:40:20.725,7.0,-758.0,763.0,-6.0,5.0,1.0,126,72,63,79,91,741,162,36
2025-02-19 16:40:20.745,-35.0,-741.0,716.0,-3.0,1.0,3.0,124,71,62,78,89,744,188,130
2025-02-19 16:40:20.764,-14.0,-731.0,726.0,0.0,-9.0,2.0,126,72,63,79,90,744,153,321
2025-02-19 16:40:20.781,16.0,-701.0,765.0,-6.0,-8.0,2.0,125,70,62,78,90,742,132,659
2025-02-19 16:40:20.801,21.0,-727.0,760.0,-11.0,1.0,2.0,126,72,63,79,92,738,165,1009
2025-02-19 16:40:20.822,9.0,-764.0,727.0,-5.0,4.0,2.0,126,71,62,78,90,729,209,1010
2025-02-19 16:40:20.838,33.0,-805.0,722.0,13.0,6.0,5.0,126,71,63,78,90,725,234,1011
2025-02-19 16:40:20.859,8.0,-731.0,730.0,19.0,8.0,6.0,127,72,63,79,91,718,195,932
2025-02-19 16:40:20.879,-22.0,-689.0,723.0,10.0,9.0,6.0,126,71,62,77,90,716,120,774
2025-02-19 16:40:20.897,-79.0,-650.0,688.0,-1.0,2.0,3.0,126,72,63,79,91,714,17,668
2025-02-19 16:40:20.916,-85.0,-654.0,687.0,-6.0,-6.0,0.0,125,71,63,77,90,712,14,547
2025-02-19 16:40:20.936,-62.0,-663.0,709.0,-8.0,-11.0,-2.0,125,72,64,79,91,712,15,380
2025-02-19 16:40:20.951,-35.0,-695.0,727.0,-7.0,-11.0,-4.0,126,72,63,79,91,710,16,284
2025-02-19 16:40:20.974,4.0,-716.0,745.0,-8.0,-8.0,-5.0,125,71,62,78,90,709,155,253
2025-02-19 16:40:20.991,30.0,-749.0,773.0,-10.0,-5.0,-3.0,126,72,64,79,91,705,295,193
2025-02-19 16:40:21.010,23.0,-759.0,757.0,-8.0,-1.0,-2.0,124,71,60,78,90,704,391,13
2025-02-19 16:40:21.031,7.0,-773.0,741.0,-3.0,5.0,1.0,126,72,63,79,91,700,446,14
2025-02-19 16:40:21.047,-21.0,-754.0,696.0,5.0,3.0,2.0,125,71,63,78,90,698,445,14
2025-02-19 16:40:21.068,-24.0,-726.0,716.0,6.0,2.0,4.0,125,72,63,79,91,696,384,14
2025-02-19 16:40:21.088,-36.0,-713.0,709.0,4.0,1.0,2.0,126,72,64,79,91,692,317,14
2025-02-19 16:40:21.105,-37.0,-720.0,724.0,1.0,4.0,2.0,125,71,62,78,90,689,271,28
2025-02-19 16:40:21.125,-58.0,-703.0,714.0,2.0,4.0,2.0,126,72,63,79,92,685,214,65
2025-02-19 16:40:21.145,-59.0,-688.0,724.0,5.0,3.0,-1.0,125,71,63,78,91,682,157,116
2025-02-19 16:40:21.162,-84.0,-708.0,703.0,6.0,1.0,-1.0,126,72,64,79,91,678,104,173
2025-02-19 16:40:21.182,-55.0,-701.0,703.0,7.0,-3.0,-2.0,124,71,62,78,90,674,59,228
2025-02-19 16:40:21.199,-25.0,-694.0,743.0,4.0,-2.0,-4.0,126,71,63,79,91,670,27,281
2025-02-19 16:40:21.218,-14.0,-723.0,758.0,-1.0,2.0,-4.0,126,72,64,79,92,665,15,338
2025-02-19 16:40:21.240,-17.0,-737.0,742.0,-1.0,3.0,-4.0,126,67,63,78,91,662,35,388
2025-02-19 16:40:21.256,-13.0,-734.0,744.0,-1.0,2.0,-2.0,127,72,64,79,91,658,95,432
2025-02-19 16:40:21.277,-9.0,-727.0,742.0,2.0,1.0,-1.0,126,71,63,78,90,654,173,458
2025-02-19 16:40:21.296,-14.0,-707.0,744.0,4.0,3.0,-1.0,127,72,63,80,92,649,257,480
2025-02-19 16:40:21.314,-13.0,-699.0,748.0,4.0,6.0,-2.0,126,71,62,78,91,645,330,494
2025-02-19 16:40:21.333,-34.0,-713.0,725.0,5.0,6.0,-1.0,126,72,63,79,91,641,389,512
2025-02-19 16:40:21.354,-40.0,-702.0,730.0,6.0,4.0,0.0,127,73,64,79,92,636,429,538
2025-02-19 16:40:21.370,-47.0,-702.0,735.0,6.0,2.0,-1.0,126,71,63,78,91,632,449,559
2025-02-19 16:40:21.391,-31.0,-696.0,743.0,5.0,2.0,-1.0,124,73,64,79,92,629,468,582
2025-02-19 16:40:21.405,-49.0,-680.0,737.0,2.0,2.0,-3.0,126,72,63,78,91,626,486,609
2025-02-19 16:40:21.422,-69.0,-687.0,743.0,-3.0,2.0,-5.0,128,73,64,79,93,623,500,634
2025-02-19 16:40:21.449,-60.0,-711.0,747.0,-1.0,1.0,-4.0,126,71,62,78,90,619,506,648
