timestamp,ax,ay,az,gx,gy,gz,flex1,flex2,flex3,flex4,flex5,emg1,emg2,emg3
2025-02-20 16:31:44.411,-306.0,-83.0,974.0,1.0,-1.0,-1.0,132,105,99,128,110,463,464,464
2025-02-20 16:31:44.418,-311.0,-76.0,971.0,1.0,-1.0,-1.0,132,105,99,129,110,464,466,464
2025-02-20 16:31:44.420,-311.0,-69.0,980.0,1.0,-1.0,-1.0,132,105,98,130,110,464,466,464
2025-02-20 16:31:44.423,-306.0,-78.0,977.0,0.0,-1.0,-2.0,132,105,97,129,111,465,466,463
2025-02-20 16:31:44.425,-306.0,-82.0,972.0,1.0,-1.0,-1.0,133,104,98,129,110,464,466,464
2025-02-20 16:31:44.428,-311.0,-77.0,978.0,2.0,-1.0,-1.0,133,104,99,129,110,464,466,463
2025-02-20 16:31:44.430,-318.0,-71.0,978.0,0.0,-1.0,0.0,133,105,99,129,110,462,466,463
2025-02-20 16:31:44.434,-319.0,-73.0,974.0,-1.0,0.0,-1.0,132,104,98,129,110,465,464,464
2025-02-20 16:31:44.435,-318.0,-68.0,966.0,1.0,0.0,0.0,132,104,98,129,110,461,462,465
2025-02-20 16:31:44.441,-323.0,-65.0,958.0,1.0,-1.0,-1.0,132,107,98,130,110,459,462,465
2025-02-20 16:31:44.450,-318.0,-68.0,963.0,0.0,-1.0,-2.0,133,104,100,129,110,459,462,466
2025-02-20 16:31:44.470,-317.0,-71.0,970.0,0.0,-1.0,-3.0,132,105,97,129,111,460,460,466
2025-02-20 16:31:44.491,-320.0,-73.0,973.0,0.0,-1.0,-3.0,133,104,99,128,110,459,460,467
2025-02-20 16:31:44.508,-317.0,-78.0,978.0,1.0,-2.0,-3.0,132,104,98,128,110,457,461,467
2025-02-20 16:31:44.527,-309.0,-84.0,970.0,0.0,-2.0,-3.0,134,104,97,129,110,454,462,467
2025-02-20 16:31:44.547,-311.0,-84.0,973.0,0.0,-2.0,-3.0,132,105,99,128,110,460,462,468
2025-02-20 16:31:44.565,-303.0,-96.0,978.0,-1.0,-2.0,-2.0,132,105,98,130,110,462,462,468
2025-02-20 16:31:44.585,-303.0,-95.0,976.0,0.0,-2.0,-1.0,132,104,100,128,110,465,464,467
2025-02-20 16:31:44.600,-298.0,-86.0,981.0,0.0,-1.0,0.0,132,104,96,130,111,466,464,466
2025-02-20 16:31:44.621,-314.0,-76.0,978.0,-1.0,-1.0,0.0,133,105,99,129,111,468,464,465
2025-02-20 16:31:44.640,-320.0,-70.0,978.0,-1.0,-2.0,0.0,132,105,98,129,110,466,463,465
2025-02-20 16:31:44.658,-316.0,-67.0,982.0,0.0,-1.0,0.0,132,107,98,129,110,467,464,464
2025-02-20 16:31:44.679,-316.0,-63.0,985.0,0.0,0.0,-1.0,133,106,99,129,110,471,465,464
2025-02-20 16:31:44.695,-316.0,-65.0,973.0,-1.0,-1.0,-1.0,132,105,99,129,110,472,467,463
2025-02-20 16:31:44.717,-311.0,-67.0,979.0,-2.0,-2.0,-1.0,132,105,98,129,111,472,468,463
2025-02-20 16:31:44.737,-312.0,-68.0,985.0,-2.0,-2.0,-1.0,132,104,97,129,110,471,467,462
2025-02-20 16:31:44.753,-307.0,-64.0,984.0,-2.0,0.0,-1.0,133,104,97,129,111,471,466,463
2025-02-20 16:31:44.764,-312.0,-67.0,977.0,-3.0,1.0,-1.0,134,105,99,130,110,470,465,463
2025-02-20 16:31:44.794,-316.0,-75.0,965.0,-2.0,0.0,-1.0,129,104,99,129,110,469,465,464
2025-02-20 16:31:44.814,-321.0,-78.0,966.0,0.0,-1.0,-1.0,132,105,99,129,111,467,465,464
2025-02-20 16:31:44.830,-314.0,-71.0,975.0,1.0,-2.0,-1.0,132,104,98,129,109,465,464,464
2025-02-20 16:31:44.851,-307.0,-60.0,980.0,-1.0,-1.0,-1.0,133,104,99,129,110,465,463,465
2025-02-20 16:31:44.868,-314.0,-66.0,977.0,-3.0,-1.0,-1.0,132,108,94,129,110,461,463,465
2025-02-20 16:31:44.881,-320.0,-83.0,982.0,-2.0,-2.0,-1.0,133,103,98,127,110,460,463,466
2025-02-20 16:31:44.908,-314.0,-78.0,981.0,0.0,-1.0,-1.0,133,103,98,129,110,462,463,467
2025-02-20 16:31:44.925,-314.0,-70.0,971.0,-2.0,0.0,0.0,132,105,99,128,110,458,462,466
2025-02-20 16:31:44.945,-323.0,-77.0,968.0,-4.0,-1.0,0.0,133,106,99,130,110,459,463,467
2025-02-20 16:31:44.965,-307.0,-93.0,955.0,-1.0,0.0,0.0,133,105,99,128,110,459,462,466
2025-02-20 16:31:44.983,-314.0,-78.0,945.0,2.0,-1.0,0.0,133,105,99,129,110,458,462,467
2025-02-20 16:31:45.002,-316.0,-64.0,957.0,2.0,-3.0,0.0,133,104,98,129,110,460,463,466
2025-02-20 16:31:45.022,-307.0,-73.0,966.0,1.0,-4.0,-1.0,133,105,98,129,110,461,464,465
2025-02-20 16:31:45.040,-304.0,-79.0,985.0,2.0,-4.0,0.0,133,106,99,131,110,461,463,466
2025-02-20 16:31:45.060,-284.0,-88.0,992.0,2.0,-1.0,0.0,133,105,98,129,110,462,465,464
2025-02-20 16:31:45.076,-306.0,-60.0,988.0,5.0,2.0,-1.0,133,105,99,130,110,465,466,464
2025-02-20 16:31:45.097,-309.0,-61.0,977.0,4.0,1.0,-1.0,132,105,98,129,110,465,467,463
2025-02-20 16:31:45.117,-304.0,-57.0,969.0,5.0,0.0,-1.0,132,105,99,129,110,464,467,463
2025-02-20 16:31:45.134,-308.0,-56.0,965.0,4.0,-1.0,-2.0,133,105,99,129,110,463,466,463
2025-02-20 16:31:45.154,-309.0,-58.0,958.0,5.0,-2.0,-2.0,133,104,98,129,110,463,465,464
2025-02-20 16:31:45.175,-297.0,-59.0,960.0,6.0,-1.0,-3.0,132,104,99,129,111,463,465,464
2025-02-20 16:31:45.192,-307.0,-63.0,960.0,7.0,-1.0,-1.0,133,104,98,129,109,463,465,463
2025-02-20 16:31:45.211,-317.0,-34.0,966.0,9.0,-2.0,-2.0,132,104,99,130,111,461,464,468
2025-02-20 16:31:45.216,-313.0,-32.0,979.0,7.0,-2.0,-2.0,133,105,98,130,110,459,463,463
2025-02-20 16:31:45.249,-311.0,-32.0,974.0,5.0,-2.0,-4.0,133,104,98,129,111,458,463,467
2025-02-20 16:31:45.269,-325.0,-51.0,971.0,5.0,-2.0,-3.0,133,104,98,129,110,456,463,467
2025-02-20 16:31:45.287,-323.0,-57.0,960.0,5.0,-4.0,-2.0,132,105,98,129,110,455,461,468
2025-02-20 16:31:45.306,-317.0,-50.0,979.0,5.0,-5.0,-2.0,132,106,99,129,111,456,462,466
2025-02-20 16:31:45.326,-311.0,-45.0,1001.0,5.0,-3.0,-3.0,132,104,98,129,110,456,460,467
2025-02-20 16:31:45.343,-309.0,-46.0,998.0,3.0,-3.0,-3.0,132,106,98,130,110,461,463,466
2025-02-20 16:31:45.363,-301.0,-54.0,1003.0,1.0,-3.0,-3.0,132,105,98,129,111,463,462,467
2025-02-20 16:31:45.383,-295.0,-61.0,1002.0,1.0,-1.0,-2.0,133,106,99,129,110,466,465,465
2025-02-20 16:31:45.400,-293.0,-55.0,998.0,1.0,0.0,-1.0,133,105,99,129,110,468,467,465
2025-02-20 16:31:45.421,-296.0,-53.0,987.0,-1.0,1.0,-1.0,134,103,98,127,111,468,466,464
2025-02-20 16:31:45.441,-306.0,-55.0,971.0,-2.0,1.0,0.0,132,105,98,129,110,468,466,463
2025-02-20 16:31:45.454,-303.0,-56.0,962.0,-2.0,0.0,0.0,132,104,98,129,110,466,463,463
2025-02-20 16:31:45.478,-298.0,-44.0,963.0,-1.0,0.0,0.0,133,104,99,129,111,466,464,463
2025-02-20 16:31:45.495,-305.0,-46.0,959.0,-1.0,0.0,1.0,133,104,98,128,111,467,466,462
2025-02-20 16:31:45.515,-304.0,-27.0,964.0,-2.0,-1.0,1.0,133,104,98,129,110,468,467,462
2025-02-20 16:31:45.532,-292.0,-28.0,958.0,-3.0,-2.0,0.0,132,105,99,130,110,472,466,462
2025-02-20 16:31:45.538,-283.0,-33.0,947.0,-4.0,-2.0,0.0,133,104,98,129,111,476,464,462
2025-02-20 16:31:45.570,-277.0,-27.0,928.0,-5.0,-3.0,1.0,133,105,99,129,111,475,464,463
2025-02-20 16:31:45.592,-280.0,-15.0,888.0,-6.0,-6.0,0.0,133,104,98,129,110,471,465,464
2025-02-20 16:31:45.610,-299.0,17.0,844.0,-9.0,-9.0,-1.0,133,104,98,129,111,469,465,465
2025-02-20 16:31:45.629,-299.0,7.0,753.0,-9.0,-14.0,-1.0,132,104,98,128,110,466,464,465
2025-02-20 16:31:45.649,-337.0,-51.0,729.0,-5.0,-28.0,1.0,133,104,99,129,110,464,464,465
2025-02-20 16:31:45.662,-372.0,-127.0,806.0,12.0,-57.0,7.0,132,104,97,129,111,455,460,465
2025-02-20 16:31:45.685,-357.0,-196.0,1219.0,31.0,-86.0,7.0,133,101,96,128,110,441,460,465
2025-02-20 16:31:45.707,-283.0,-100.0,1598.0,0.0,-94.0,16.0,133,97,91,129,107,422,459,461
2025-02-20 16:31:45.724,-72.0,-66.0,2146.0,-68.0,-55.0,43.0,133,90,85,127,100,394,458,446
2025-02-20 16:31:45.744,195.0,-146.0,2504.0,-144.0,53.0,63.0,134,86,77,123,89,413,458,444
2025-02-20 16:31:45.760,212.0,-278.0,2389.0,-252.0,148.0,81.0,134,74,67,112,80,439,462,446
2025-02-20 16:31:45.781,186.0,-422.0,2057.0,-299.0,224.0,102.0,134,65,60,95,70,464,469,451
2025-02-20 16:31:45.799,45.0,-518.0,1664.0,-310.0,272.0,117.0,135,59,56,77,59,472,469,457
2025-02-20 16:31:45.818,54.0,-438.0,1341.0,-296.0,300.0,135.0,133,56,51,68,54,488,468,477
2025-02-20 16:31:45.838,27.0,-299.0,997.0,-265.0,307.0,145.0,133,55,50,62,52,493,474,500
2025-02-20 16:31:45.854,-143.0,94.0,522.0,-241.0,305.0,147.0,126,53,48,64,52,469,482,500
2025-02-20 16:31:45.874,-340.0,552.0,-25.0,-247.0,248.0,142.0,119,54,49,62,50,461,479,503
2025-02-20 16:31:45.896,-511.0,1140.0,-272.0,-241.0,166.0,126.0,114,54,50,60,48,456,470,521
2025-02-20 16:31:45.910,-505.0,1776.0,-715.0,-196.0,112.0,96.0,110,51,49,59,48,467,463,503
2025-02-20 16:31:45.924,-543.0,2833.0,-1179.0,-34.0,92.0,-72.0,107,52,49,59,48,557,456,472
2025-02-20 16:31:45.948,-698.0,3354.0,-1848.0,77.0,67.0,-426.0,103,54,48,58,47,569,452,452
2025-02-20 16:31:45.969,-710.0,3155.0,-2369.0,-41.0,-184.0,-691.0,101,52,48,59,47,531,452,440
2025-02-20 16:31:45.989,304.0,2010.0,-2520.0,-108.0,-516.0,-927.0,100,50,47,61,49,478,440,443
2025-02-20 16:31:46.005,3593.0,335.0,-1983.0,-128.0,-861.0,-920.0,102,52,48,65,52,442,424,456
2025-02-20 16:31:46.030,6269.0,-4049.0,2446.0,11.0,-683.0,-540.0,106,54,48,69,54,408,394,457
2025-02-20 16:31:46.047,5458.0,-6219.0,2877.0,46.0,201.0,-33.0,104,54,51,72,54,407,419,466
2025-02-20 16:31:46.065,1744.0,-3837.0,834.0,165.0,253.0,77.0,105,55,49,66,50,410,558,468
2025-02-20 16:31:46.084,726.0,-1819.0,497.0,-45.0,228.0,234.0,109,52,50,63,48,421,568,465
2025-02-20 16:31:46.101,-290.0,-1174.0,322.0,-168.0,24.0,215.0,107,51,50,66,50,464,540,461
2025-02-20 16:31:46.125,64.0,-1923.0,272.0,-134.0,19.0,215.0,108,50,50,69,50,364,503,462
2025-02-20 16:31:46.141,193.0,-1849.0,441.0,-7.0,87.0,258.0,110,55,52,72,52,425,393,481
2025-02-20 16:31:46.162,120.0,-1337.0,493.0,119.0,134.0,280.0,112,57,53,73,54,473,468,459
2025-02-20 16:31:46.181,123.0,-559.0,454.0,140.0,183.0,269.0,110,58,53,72,54,554,548,452
2025-02-20 16:31:46.198,-12.0,-126.0,382.0,78.0,198.0,266.0,113,60,51,72,57,526,562,461
2025-02-20 16:31:46.219,-432.0,106.0,29.0,37.0,156.0,259.0,114,59,53,73,57,527,496,458
2025-02-20 16:31:46.236,-512.0,377.0,-25.0,11.0,88.0,262.0,115,60,55,70,58,487,467,473
2025-02-20 16:31:46.256,-357.0,894.0,-56.0,4.0,55.0,271.0,116,59,55,70,58,497,421,478
2025-02-20 16:31:46.276,-758.0,1730.0,-325.0,105.0,42.0,99.0,116,58,56,72,59,491,428,462
2025-02-20 16:31:46.293,-1159.0,3007.0,-1029.0,251.0,28.0,-251.0,115,60,56,72,58,422,429,450
2025-02-20 16:31:46.313,-1068.0,3086.0,-1350.0,144.0,-174.0,-614.0,112,59,55,73,56,425,453,452
2025-02-20 16:31:46.334,213.0,1958.0,-1517.0,-2.0,-487.0,-814.0,112,60,55,74,58,434,429,453
2025-02-20 16:31:46.351,3109.0,-1057.0,-658.0,-29.0,-817.0,-748.0,113,59,54,77,60,421,428,449
2025-02-20 16:31:46.370,5296.0,-6302.0,3500.0,29.0,-362.0,-215.0,116,58,55,81,61,362,407,448
2025-02-20 16:31:46.391,4350.0,-5493.0,2491.0,138.0,163.0,163.0,114,58,54,80,58,435,465,448
2025-02-20 16:31:46.407,1113.0,-2001.0,1434.0,81.0,214.0,218.0,115,56,55,68,50,436,531,443
2025-02-20 16:31:46.427,299.0,-1182.0,812.0,-121.0,127.0,261.0,117,53,55,70,53,424,563,430
2025-02-20 16:31:46.447,-146.0,-1549.0,325.0,-208.0,37.0,283.0,119,51,55,73,53,370,507,441
2025-02-20 16:31:46.465,82.0,-1732.0,382.0,-97.0,-2.0,309.0,120,53,55,76,55,385,434,450
2025-02-20 16:31:46.484,158.0,-1236.0,596.0,-2.0,47.0,367.0,124,56,56,77,57,495,372,448
2025-02-20 16:31:46.502,151.0,-485.0,598.0,49.0,101.0,379.0,128,59,55,75,61,558,446,476
2025-02-20 16:31:46.519,-32.0,273.0,481.0,97.0,115.0,331.0,130,59,57,73,63,591,463,482
2025-02-20 16:31:46.542,-299.0,512.0,291.0,64.0,102.0,266.0,131,60,58,74,66,564,464,485
2025-02-20 16:31:46.558,-392.0,856.0,304.0,22.0,97.0,205.0,132,58,57,74,67,551,453,481
2025-02-20 16:31:46.580,-521.0,1368.0,234.0,52.0,96.0,100.0,136,58,57,71,69,490,479,470
2025-02-20 16:31:46.600,-688.0,2379.0,-8.0,124.0,117.0,-59.0,138,59,58,71,65,508,488,458
2025-02-20 16:31:46.617,-1025.0,3394.0,-782.0,97.0,68.0,-372.0,140,57,56,72,59,516,463,453
2025-02-20 16:31:46.636,-844.0,3006.0,-1574.0,-45.0,-150.0,-654.0,141,54,54,72,56,491,424,439
2025-02-20 16:31:46.657,152.0,1491.0,-2376.0,-163.0,-494.0,-721.0,142,53,52,73,55,435,398,460
2025-02-20 16:31:46.674,2808.0,-1513.0,-1784.0,-167.0,-780.0,-545.0,144,53,52,75,59,427,424,471
2025-02-20 16:31:46.694,4898.0,-3478.0,2375.0,-123.0,-527.0,-370.0,144,54,53,78,59,441,410,473
2025-02-20 16:31:46.709,4497.0,-6108.0,2434.0,-24.0,-8.0,-125.0,146,53,52,79,59,496,417,470
2025-02-20 16:31:46.732,1892.0,-3754.0,751.0,188.0,203.0,43.0,146,52,51,69,54,453,516,462
2025-02-20 16:31:46.751,296.0,-1744.0,-47.0,-58.0,101.0,178.0,147,51,50,66,51,330,544,482
2025-02-20 16:31:46.769,2.0,-1553.0,-128.0,-134.0,-54.0,182.0,146,52,52,69,53,388,527,480
2025-02-20 16:31:46.788,305.0,-2064.0,429.0,-45.0,-51.0,216.0,145,50,51,72,53,374,483,477
2025-02-20 16:31:46.805,741.0,-1071.0,848.0,78.0,64.0,160.0,147,53,53,76,55,454,410,475
2025-02-20 16:31:46.825,491.0,-1207.0,767.0,141.0,165.0,155.0,147,55,54,78,61,522,501,475
2025-02-20 16:31:46.846,121.0,-513.0,341.0,107.0,185.0,176.0,146,54,54,74,58,585,563,480
2025-02-20 16:31:46.865,-207.0,-230.0,176.0,54.0,107.0,155.0,147,56,54,75,60,588,592,467
2025-02-20 16:31:46.882,-191.0,-355.0,282.0,15.0,76.0,158.0,146,56,56,75,59,538,530,473
2025-02-20 16:31:46.901,-55.0,-370.0,436.0,-15.0,88.0,175.0,147,56,54,73,59,480,473,459
2025-02-20 16:31:46.920,-27.0,-42.0,425.0,13.0,115.0,103.0,146,57,53,70,58,421,462,464
2025-02-20 16:31:46.940,-212.0,-203.0,257.0,7.0,122.0,114.0,147,56,53,72,57,434,472,457
2025-02-20 16:31:46.958,-343.0,-157.0,108.0,-26.0,89.0,127.0,146,56,53,73,57,513,475,448
2025-02-20 16:31:46.977,-335.0,53.0,109.0,-39.0,66.0,158.0,145,55,53,71,57,494,465,446
2025-02-20 16:31:46.997,-384.0,796.0,232.0,118.0,71.0,50.0,147,56,54,72,57,477,427,452
2025-02-20 16:31:47.017,-699.0,1730.0,9.0,223.0,131.0,-107.0,145,56,54,74,57,485,397,444
2025-02-20 16:31:47.035,-1499.0,2108.0,-1030.0,230.0,41.0,-370.0,145,57,55,75,57,494,411,443
2025-02-20 16:31:47.054,-1589.0,2092.0,-1837.0,63.0,-259.0,-566.0,144,55,54,76,57,460,415,447
2025-02-20 16:31:47.073,680.0,881.0,-2604.0,-161.0,-803.0,-629.0,143,56,55,78,59,416,401,456
2025-02-20 16:31:47.090,4609.0,-2231.0,-317.0,-400.0,-980.0,-350.0,143,55,56,80,62,378,390,458
2025-02-20 16:31:47.112,5881.0,-6327.0,3531.0,-381.0,-338.0,-91.0,144,56,56,81,62,412,389,455
2025-02-20 16:31:47.131,3176.0,-5562.0,1186.0,128.0,241.0,-2.0,146,55,54,78,60,506,483,446
2025-02-20 16:31:47.149,649.0,-1658.0,-610.0,100.0,205.0,128.0,145,50,52,67,54,489,562,449
2025-02-20 16:31:47.169,85.0,-1222.0,-868.0,-148.0,-19.0,227.0,146,50,53,66,55,449,520,464
2025-02-20 16:31:47.186,427.0,-1876.0,302.0,-103.0,-109.0,244.0,145,50,55,69,56,484,479,471
2025-02-20 16:31:47.206,783.0,-2098.0,733.0,61.0,42.0,258.0,145,51,56,75,57,473,461,463
2025-02-20 16:31:47.227,685.0,-1348.0,503.0,168.0,153.0,258.0,145,56,56,78,59,485,454,473
2025-02-20 16:31:47.243,437.0,-601.0,380.0,208.0,203.0,213.0,145,57,57,76,60,515,439,486
2025-02-20 16:31:47.264,97.0,-437.0,254.0,151.0,212.0,218.0,146,58,57,75,61,528,439,487
2025-02-20 16:31:47.283,10.0,-288.0,238.0,71.0,206.0,235.0,146,58,59,76,62,477,462,518
2025-02-20 16:31:47.300,70.0,-217.0,332.0,25.0,172.0,248.0,145,60,60,79,63,458,472,500
2025-02-20 16:31:47.321,80.0,-124.0,332.0,-5.0,188.0,247.0,145,63,62,80,66,462,431,482
2025-02-20 16:31:47.337,105.0,-131.0,170.0,26.0,209.0,256.0,144,63,65,86,68,469,406,467
2025-02-20 16:31:47.358,-163.0,41.0,-23.0,90.0,219.0,253.0,142,67,70,98,74,468,507,461
2025-02-20 16:31:47.378,-280.0,819.0,-309.0,114.0,196.0,256.0,141,72,74,106,79,487,516,453
2025-02-20 16:31:47.394,-893.0,1534.0,-920.0,218.0,49.0,110.0,139,79,77,115,83,484,521,445
2025-02-20 16:31:47.415,-1752.0,2199.0,-709.0,317.0,-76.0,-117.0,139,86,77,118,90,467,479,438
2025-02-20 16:31:47.435,-1077.0,2433.0,-979.0,389.0,-152.0,-457.0,138,91,79,119,100,461,450,438
2025-02-20 16:31:47.453,-743.0,1088.0,-1284.0,444.0,-386.0,-648.0,136,99,87,120,114,423,410,442
2025-02-20 16:31:47.472,1426.0,306.0,-653.0,34.0,-704.0,-674.0,133,109,93,126,122,431,373,447
2025-02-20 16:31:47.492,3899.0,-1124.0,458.0,-86.0,-1119.0,-380.0,138,114,97,129,125,344,370,431
2025-02-20 16:31:47.510,4120.0,-3850.0,2541.0,-386.0,-803.0,-30.0,142,118,102,131,127,336,443,421
2025-02-20 16:31:47.531,3905.0,-4844.0,1642.0,-134.0,-145.0,142.0,142,119,104,132,129,412,522,452
2025-02-20 16:31:47.550,2793.0,-3420.0,1616.0,-312.0,-39.0,148.0,142,115,102,132,130,449,533,464
2025-02-20 16:31:47.567,306.0,-1811.0,759.0,-146.0,213.0,159.0,142,112,101,133,129,480,540,461
2025-02-20 16:31:47.587,-184.0,-1000.0,204.0,-118.0,212.0,285.0,141,110,99,132,130,433,533,449
2025-02-20 16:31:47.604,73.0,-828.0,27.0,49.0,-16.0,312.0,142,109,98,130,129,490,480,475
2025-02-20 16:31:47.624,134.0,-884.0,206.0,123.0,-14.0,273.0,140,109,99,132,129,488,428,455
2025-02-20 16:31:47.642,282.0,-1230.0,305.0,149.0,93.0,202.0,141,109,102,134,129,500,471,461
2025-02-20 16:31:47.661,342.0,-1045.0,497.0,298.0,292.0,155.0,142,111,102,135,130,566,448,516
2025-02-20 16:31:47.682,114.0,-851.0,621.0,283.0,277.0,147.0,141,111,101,135,131,613,456,512
2025-02-20 16:31:47.702,-70.0,-515.0,205.0,216.0,247.0,166.0,141,111,102,134,133,583,467,496
2025-02-20 16:31:47.718,-62.0,-322.0,304.0,106.0,226.0,184.0,141,111,102,134,131,532,469,472
2025-02-20 16:31:47.739,-110.0,-157.0,207.0,14.0,157.0,185.0,141,113,101,134,131,470,444,455
2025-02-20 16:31:47.758,-213.0,-55.0,51.0,-40.0,85.0,166.0,141,113,101,135,132,422,420,458
2025-02-20 16:31:47.776,-390.0,160.0,216.0,-47.0,70.0,150.0,139,110,101,134,131,460,439,464
2025-02-20 16:31:47.794,-547.0,566.0,225.0,-43.0,66.0,106.0,140,108,101,133,131,550,440,461
2025-02-20 16:31:47.816,-675.0,1130.0,-129.0,11.0,59.0,33.0,140,107,101,133,131,532,446,460
2025-02-20 16:31:47.833,-1318.0,1413.0,-454.0,83.0,-12.0,-190.0,139,107,97,134,132,473,430,457
2025-02-20 16:31:47.854,-1348.0,1844.0,-652.0,205.0,-165.0,-435.0,137,108,101,133,133,426,450,463
2025-02-20 16:31:47.874,-629.0,1353.0,-730.0,153.0,-331.0,-622.0,138,111,103,133,133,405,448,465
2025-02-20 16:31:47.891,1484.0,273.0,-139.0,-38.0,-489.0,-651.0,137,115,103,135,133,379,438,469
2025-02-20 16:31:47.911,2925.0,-2041.0,208.0,-33.0,-823.0,-398.0,137,117,104,135,137,337,434,477
2025-02-20 16:31:47.928,3352.0,-4404.0,1217.0,-316.0,-506.0,-57.0,138,120,106,134,135,405,456,465
2025-02-20 16:31:47.948,3342.0,-4383.0,1596.0,-90.0,-127.0,117.0,139,115,106,135,133,473,515,450
2025-02-20 16:31:47.967,2066.0,-2484.0,1186.0,-104.0,65.0,86.0,140,114,105,135,135,490,488,461
2025-02-20 16:31:47.985,546.0,-1445.0,522.0,-50.0,225.0,144.0,140,110,101,135,133,447,454,460
2025-02-20 16:31:48.005,-52.0,-1022.0,445.0,-38.0,199.0,236.0,141,108,101,134,133,397,429,443
2025-02-20 16:31:48.024,-22.0,-940.0,267.0,74.0,51.0,261.0,140,107,100,135,132,443,392,445
2025-02-20 16:31:48.042,102.0,-1052.0,456.0,145.0,48.0,239.0,141,106,99,135,131,442,405,450
2025-02-20 16:31:48.062,311.0,-1196.0,642.0,188.0,186.0,209.0,141,107,99,136,130,477,517,464
2025-02-20 16:31:48.082,404.0,-1029.0,632.0,185.0,284.0,153.0,141,107,99,135,128,535,549,490
2025-02-20 16:31:48.100,147.0,-855.0,350.0,151.0,255.0,171.0,141,107,97,134,122,505,521,494
2025-02-20 16:31:48.119,-17.0,-658.0,266.0,68.0,196.0,195.0,141,106,94,132,112,484,485,474
2025-02-20 16:31:48.136,-76.0,-483.0,247.0,-22.0,148.0,227.0,140,102,90,131,103,468,466,455
2025-02-20 16:31:48.156,-124.0,-386.0,205.0,-137.0,95.0,248.0,142,98,88,121,98,449,489,468
2025-02-20 16:31:48.177,-92.0,-348.0,269.0,-41.0,134.0,266.0,142,92,87,119,90,437,499,476
2025-02-20 16:31:48.194,-179.0,125.0,165.0,2.0,149.0,255.0,142,85,86,120,81,465,519,473
2025-02-20 16:31:48.214,-355.0,608.0,141.0,51.0,125.0,221.0,142,82,84,119,75,522,470,463
2025-02-20 16:31:48.233,-667.0,1623.0,59.0,147.0,114.0,67.0,143,78,80,116,71,510,430,463
2025-02-20 16:31:48.251,-1223.0,2537.0,-563.0,257.0,54.0,-198.0,141,72,75,109,64,478,463,463
2025-02-20 16:31:48.271,-1170.0,2845.0,-1124.0,243.0,-82.0,-521.0,141,66,68,95,59,442,457,449
2025-02-20 16:31:48.290,-434.0,2260.0,-1452.0,64.0,-335.0,-793.0,140,56,58,81,54,407,417,451
2025-02-20 16:31:48.308,1580.0,892.0,-1346.0,-91.0,-724.0,-847.0,139,51,54,80,54,367,398,455
2025-02-20 16:31:48.328,4481.0,-3758.0,668.0,-83.0,-809.0,-356.0,141,52,56,86,58,383,385,465
2025-02-20 16:31:48.345,5018.0,-5042.0,3150.0,-175.0,-238.0,-89.0,142,52,55,87,59,451,432,462
2025-02-20 16:31:48.365,2350.0,-3694.0,1356.0,61.0,100.0,15.0,145,50,52,78,54,408,498,448
2025-02-20 16:31:48.386,710.0,-1889.0,381.0,-21.0,123.0,109.0,146,48,51,71,49,375,535,451
2025-02-20 16:31:48.402,139.0,-1294.0,200.0,-106.0,-26.0,171.0,147,46,51,71,49,397,549,445
2025-02-20 16:31:48.422,354.0,-1252.0,654.0,-55.0,-60.0,141.0,148,48,53,71,49,350,517,427
2025-02-20 16:31:48.443,457.0,-1521.0,965.0,25.0,34.0,122.0,147,48,52,76,51,416,423,467
2025-02-20 16:31:48.460,464.0,-1323.0,885.0,26.0,117.0,148.0,149,48,53,80,53,501,400,493
2025-02-20 16:31:48.478,276.0,-1258.0,448.0,-5.0,138.0,206.0,148,53,54,78,56,486,455,504
2025-02-20 16:31:48.496,163.0,-681.0,216.0,-20.0,87.0,209.0,148,53,56,78,57,524,485,503
2025-02-20 16:31:48.517,210.0,-467.0,479.0,10.0,91.0,153.0,148,54,56,81,58,472,457,517
2025-02-20 16:31:48.537,-12.0,-423.0,410.0,-8.0,107.0,143.0,147,51,54,80,58,434,452,499
2025-02-20 16:31:48.554,-191.0,-389.0,308.0,-35.0,107.0,154.0,148,54,56,75,57,384,473,485
2025-02-20 16:31:48.574,-298.0,-387.0,151.0,-78.0,85.0,185.0,148,55,56,74,57,428,461,481
2025-02-20 16:31:48.595,-88.0,-26.0,374.0,-30.0,52.0,102.0,148,55,56,76,57,544,501,469
2025-02-20 16:31:48.612,-190.0,-169.0,358.0,-17.0,83.0,89.0,150,55,57,75,56,624,513,459
2025-02-20 16:31:48.632,-361.0,147.0,326.0,-23.0,93.0,94.0,149,54,56,75,56,607,539,470
2025-02-20 16:31:48.649,-802.0,509.0,153.0,6.0,74.0,82.0,148,55,56,75,57,553,521,472
2025-02-20 16:31:48.666,-714.0,1507.0,162.0,117.0,72.0,-136.0,147,55,58,78,57,494,468,472
2025-02-20 16:31:48.689,-1103.0,1879.0,-446.0,145.0,47.0,-318.0,147,57,59,81,57,470,429,472
2025-02-20 16:31:48.708,-1186.0,1665.0,-1257.0,25.0,-123.0,-475.0,147,55,59,82,57,463,412,460
2025-02-20 16:31:48.726,-146.0,926.0,-2002.0,-116.0,-514.0,-562.0,147,55,59,81,59,420,417,461
2025-02-20 16:31:48.746,2501.0,-572.0,-910.0,-364.0,-738.0,-453.0,146,54,59,80,60,395,404,459
2025-02-20 16:31:48.767,4853.0,-4636.0,1674.0,-351.0,-371.0,-218.0,147,54,60,82,61,426,402,458
2025-02-20 16:31:48.781,3492.0,-5745.0,1197.0,96.0,165.0,-84.0,146,54,57,82,60,342,473,431
2025-02-20 16:31:48.804,770.0,-2283.0,-382.0,175.0,154.0,40.0,148,50,56,71,57,415,512,434
2025-02-20 16:31:48.821,45.0,-1376.0,-987.0,-154.0,-59.0,128.0,148,50,56,70,56,340,527,465
2025-02-20 16:31:48.840,626.0,-2155.0,143.0,-67.0,-102.0,98.0,148,51,56,71,57,465,455,464
2025-02-20 16:31:48.860,706.0,-1943.0,620.0,107.0,-4.0,105.0,148,52,57,79,58,467,387,462
2025-02-20 16:31:48.877,658.0,-1579.0,448.0,145.0,101.0,127.0,149,54,60,86,58,502,421,464
2025-02-20 16:31:48.898,473.0,-1175.0,301.0,104.0,135.0,161.0,148,54,61,84,58,473,462,478
2025-02-20 16:31:48.918,381.0,-880.0,211.0,42.0,108.0,164.0,148,56,62,81,61,442,475,479
2025-02-20 16:31:48.935,188.0,-930.0,109.0,16.0,76.0,183.0,148,56,63,82,61,430,493,490
2025-02-20 16:31:48.955,105.0,-820.0,96.0,-14.0,53.0,218.0,149,58,64,82,61,425,492,493
2025-02-20 16:31:48.972,313.0,-496.0,352.0,-54.0,74.0,224.0,148,59,66,82,61,418,511,458
2025-02-20 16:31:48.992,338.0,-548.0,378.0,-46.0,115.0,212.0,151,60,67,82,62,439,512,464
2025-02-20 16:31:49.011,50.0,-605.0,225.0,36.0,132.0,207.0,147,61,70,86,60,565,481,478
2025-02-20 16:31:49.030,-106.0,-517.0,122.0,70.0,138.0,228.0,146,62,72,89,62,597,459,467
2025-02-20 16:31:49.049,55.0,-397.0,287.0,101.0,216.0,242.0,146,66,74,91,62,604,466,459
2025-02-20 16:31:49.069,59.0,-57.0,105.0,115.0,294.0,240.0,144,73,78,91,64,633,460,454
2025-02-20 16:31:49.086,-533.0,246.0,-2.0,177.0,290.0,264.0,143,79,81,93,63,603,456,455
2025-02-20 16:31:49.107,-831.0,1043.0,-401.0,259.0,214.0,239.0,144,84,82,93,64,551,453,468
2025-02-20 16:31:49.127,-2073.0,2288.0,-1123.0,299.0,14.0,-50.0,143,90,84,94,65,495,429,464
2025-02-20 16:31:49.144,-1448.0,2282.0,-1192.0,273.0,-198.0,-421.0,142,97,89,93,64,441,412,459
2025-02-20 16:31:49.164,-610.0,1037.0,-886.0,372.0,-400.0,-657.0,142,106,94,92,65,372,401,470
2025-02-20 16:31:49.183,1043.0,754.0,-288.0,293.0,-674.0,-706.0,141,113,98,95,69,394,386,469
2025-02-20 16:31:49.198,3027.0,143.0,904.0,60.0,-850.0,-646.0,140,121,101,103,73,439,393,463
2025-02-20 16:31:49.221,4012.0,-3217.0,2557.0,-164.0,-543.0,-284.0,141,127,102,104,73,457,450,454
2025-02-20 16:31:49.240,4267.0,-4040.0,2405.0,-146.0,-90.0,90.0,141,127,105,103,72,431,530,451
2025-02-20 16:31:49.258,2392.0,-2246.0,1487.0,-120.0,176.0,234.0,142,126,104,101,65,402,560,459
2025-02-20 16:31:49.278,784.0,-1111.0,645.0,-136.0,223.0,211.0,142,123,105,102,61,401,565,451
2025-02-20 16:31:49.295,151.0,-1051.0,-5.0,-144.0,141.0,198.0,142,122,105,101,60,386,531,427
2025-02-20 16:31:49.316,40.0,-1017.0,232.0,-75.0,83.0,211.0,142,122,104,102,61,487,447,437
2025-02-20 16:31:49.334,235.0,-991.0,582.0,10.0,109.0,197.0,141,122,105,103,62,514,414,468
2025-02-20 16:31:49.353,318.0,-977.0,622.0,95.0,194.0,186.0,141,123,106,103,64,487,438,486
2025-02-20 16:31:49.373,233.0,-788.0,514.0,109.0,225.0,185.0,142,124,106,101,65,479,497,496
2025-02-20 16:31:49.393,119.0,-682.0,439.0,89.0,226.0,209.0,142,122,106,98,66,517,455,497
2025-02-20 16:31:49.410,103.0,-593.0,408.0,71.0,229.0,232.0,143,125,106,96,67,487,463,499
2025-02-20 16:31:49.430,104.0,-436.0,340.0,50.0,255.0,244.0,143,124,106,97,67,434,460,482
2025-02-20 16:31:49.448,-141.0,-264.0,340.0,14.0,258.0,249.0,143,124,107,97,67,398,502,483
2025-02-20 16:31:49.467,-428.0,-64.0,67.0,-1.0,234.0,244.0,143,122,107,96,66,420,459,487
2025-02-20 16:31:49.487,-663.0,404.0,-232.0,-3.0,168.0,195.0,144,122,108,95,65,477,417,462
2025-02-20 16:31:49.505,-866.0,630.0,-501.0,11.0,101.0,103.0,143,117,106,95,64,525,400,455
2025-02-20 16:31:49.525,-1152.0,1029.0,-990.0,44.0,1.0,-48.0,144,119,107,94,62,586,415,463
2025-02-20 16:31:49.545,-1508.0,1421.0,-1310.0,185.0,-155.0,-239.0,144,121,107,90,61,566,428,467
2025-02-20 16:31:49.561,-1117.0,1776.0,-1292.0,263.0,-352.0,-548.0,143,121,106,89,63,493,445,469
2025-02-20 16:31:49.582,386.0,1741.0,-595.0,161.0,-696.0,-742.0,142,123,107,92,65,422,447,468
2025-02-20 16:31:49.600,2917.0,82.0,7.0,-179.0,-929.0,-698.0,142,125,107,96,69,332,461,476
2025-02-20 16:31:49.620,4083.0,-3710.0,1401.0,-255.0,-681.0,-327.0,144,128,107,100,70,348,487,463
2025-02-20 16:31:49.640,4396.0,-4517.0,1727.0,-62.0,-224.0,64.0,142,128,107,100,70,427,505,454
2025-02-20 16:31:49.660,2895.0,-2464.0,1803.0,-13.0,126.0,195.0,144,126,107,99,65,478,494,465
2025-02-20 16:31:49.677,624.0,-1066.0,735.0,16.0,236.0,181.0,142,123,105,99,61,442,498,465
2025-02-20 16:31:49.696,-6.0,-694.0,404.0,-109.0,135.0,162.0,143,121,103,97,60,361,498,427
2025-02-20 16:31:49.714,48.0,-1016.0,368.0,-132.0,64.0,182.0,140,119,101,101,61,443,455,449
2025-02-20 16:31:49.733,316.0,-1238.0,532.0,-68.0,74.0,205.0,142,118,99,106,64,442,396,459
2025-02-20 16:31:49.754,557.0,-1220.0,621.0,25.0,146.0,214.0,144,118,97,106,68,507,423,466
2025-02-20 16:31:49.771,381.0,-1033.0,528.0,76.0,209.0,223.0,144,118,96,107,72,549,487,476
2025-02-20 16:31:49.788,229.0,-682.0,522.0,78.0,245.0,261.0,144,113,93,104,72,591,536,492
2025-02-20 16:31:49.810,-142.0,-375.0,428.0,33.0,229.0,283.0,146,102,86,104,73,572,489,485
2025-02-20 16:31:49.828,-319.0,-294.0,396.0,-58.0,192.0,272.0,145,93,80,103,73,518,470,484
2025-02-20 16:31:49.848,-253.0,-239.0,178.0,-91.0,155.0,267.0,145,90,77,104,72,441,503,469
2025-02-20 16:31:49.865,-150.0,-252.0,234.0,28.0,138.0,282.0,146,86,74,105,71,406,528,470
2025-02-20 16:31:49.883,-440.0,347.0,9.0,49.0,171.0,193.0,143,77,70,104,69,383,490,496
2025-02-20 16:31:49.903,-836.0,1133.0,-533.0,97.0,99.0,45.0,142,72,69,106,66,464,468,482
2025-02-20 16:31:49.921,-1068.0,1757.0,-1164.0,152.0,-39.0,-190.0,141,66,66,101,62,513,417,462
2025-02-20 16:31:49.943,-995.0,1838.0,-1295.0,156.0,-142.0,-377.0,139,59,60,96,58,500,419,451
2025-02-20 16:31:49.962,-970.0,1623.0,-1365.0,61.0,-317.0,-570.0,141,56,54,92,56,478,431,454
2025-02-20 16:31:49.980,548.0,1324.0,-1752.0,-96.0,-730.0,-682.0,141,56,55,92,60,434,421,457
2025-02-20 16:31:50.000,3836.0,-1223.0,5.0,-337.0,-900.0,-439.0,144,56,57,94,64,372,399,465
2025-02-20 16:31:50.020,4669.0,-4990.0,2389.0,-415.0,-459.0,-139.0,144,57,58,94,65,389,417,454
2025-02-20 16:31:50.037,3050.0,-5487.0,1500.0,-39.0,55.0,-15.0,144,56,54,95,64,480,496,451
2025-02-20 16:31:50.058,715.0,-2441.0,-312.0,192.0,145.0,91.0,144,51,51,80,60,496,521,449
2025-02-20 16:31:50.077,-293.0,-268.0,-825.0,-16.0,-8.0,132.0,145,51,53,76,57,473,524,439
2025-02-20 16:31:50.095,302.0,-1534.0,138.0,-44.0,-75.0,130.0,145,51,53,77,58,467,504,416
2025-02-20 16:31:50.114,624.0,-1834.0,673.0,21.0,4.0,120.0,146,53,54,88,58,425,449,439
2025-02-20 16:31:50.132,530.0,-1754.0,586.0,99.0,87.0,154.0,145,56,56,95,60,483,423,464
2025-02-20 16:31:50.151,317.0,-1417.0,382.0,109.0,129.0,215.0,147,57,57,94,62,498,458,493
2025-02-20 16:31:50.172,205.0,-950.0,361.0,85.0,122.0,244.0,146,58,56,93,63,506,501,504
2025-02-20 16:31:50.187,153.0,-303.0,473.0,106.0,106.0,184.0,146,59,59,93,63,551,513,491
2025-02-20 16:31:50.208,-54.0,-307.0,424.0,82.0,133.0,148.0,146,60,58,94,64,487,506,489
2025-02-20 16:31:50.229,-319.0,-404.0,202.0,16.0,112.0,162.0,145,59,58,90,64,365,506,495
2025-02-20 16:31:50.245,-250.0,-321.0,284.0,-41.0,74.0,190.0,146,60,58,85,64,377,481,479
2025-02-20 16:31:50.265,-116.0,-36.0,353.0,10.0,51.0,130.0,146,60,58,86,65,416,443,459
2025-02-20 16:31:50.283,-160.0,-169.0,454.0,36.0,88.0,88.0,145,60,59,86,62,515,430,453
2025-02-20 16:31:50.294,-463.0,104.0,322.0,54.0,112.0,96.0,147,61,60,84,63,587,457,459
2025-02-20 16:31:50.321,-634.0,668.0,53.0,115.0,123.0,50.0,147,63,61,85,62,569,456,462
2025-02-20 16:31:50.340,-1035.0,1408.0,-328.0,177.0,94.0,-120.0,145,63,62,88,63,547,440,465
2025-02-20 16:31:50.360,-1524.0,2060.0,-1228.0,170.0,-16.0,-355.0,144,62,62,91,62,525,433,472
2025-02-20 16:31:50.380,-1198.0,1721.0,-1622.0,29.0,-388.0,-549.0,143,61,62,92,63,459,427,481
2025-02-20 16:31:50.397,732.0,336.0,-1756.0,-249.0,-742.0,-550.0,142,63,62,93,68,395,414,478
2025-02-20 16:31:50.417,3851.0,-3364.0,99.0,-313.0,-852.0,-310.0,140,63,63,97,71,316,421,467
2025-02-20 16:31:50.437,4685.0,-5396.0,2745.0,-157.0,-193.0,-51.0,142,63,65,100,71,382,443,451
2025-02-20 16:31:50.455,2769.0,-3511.0,449.0,105.0,218.0,2.0,144,61,63,93,68,438,500,453
2025-02-20 16:31:50.473,343.0,-1209.0,-362.0,146.0,234.0,100.0,144,59,62,80,61,431,503,469
2025-02-20 16:31:50.495,-61.0,-760.0,-316.0,-81.0,40.0,151.0,145,60,62,78,61,334,483,445
2025-02-20 16:31:50.507,249.0,-1393.0,278.0,-65.0,-37.0,176.0,144,64,65,80,62,368,470,436
2025-02-20 16:31:50.532,559.0,-1753.0,540.0,41.0,24.0,192.0,146,65,68,93,65,422,430,461
2025-02-20 16:31:50.549,636.0,-1522.0,669.0,132.0,130.0,170.0,146,70,68,101,70,514,404,465
2025-02-20 16:31:50.569,421.0,-1224.0,544.0,199.0,202.0,164.0,146,76,68,98,72,540,463,483
2025-02-20 16:31:50.589,272.0,-973.0,416.0,185.0,271.0,181.0,144,80,67,96,73,596,480,495
2025-02-20 16:31:50.607,186.0,-820.0,312.0,145.0,253.0,222.0,145,81,68,95,73,611,510,482
2025-02-20 16:31:50.627,128.0,-722.0,239.0,104.0,252.0,254.0,144,78,70,96,71,565,484,469
2025-02-20 16:31:50.646,-6.0,-494.0,155.0,75.0,260.0,266.0,144,74,71,98,71,441,456,474
2025-02-20 16:31:50.664,-101.0,-79.0,56.0,57.0,282.0,283.0,145,72,71,101,71,396,453,476
2025-02-20 16:31:50.684,-324.0,-67.0,273.0,138.0,231.0,303.0,146,69,69,103,72,404,452,467
2025-02-20 16:31:50.704,-339.0,197.0,73.0,170.0,236.0,316.0,144,65,68,104,72,435,477,460
2025-02-20 16:31:50.721,-534.0,374.0,-292.0,240.0,223.0,295.0,143,61,66,102,72,466,516,459
2025-02-20 16:31:50.741,-806.0,592.0,-824.0,353.0,155.0,205.0,140,57,61,99,69,494,501,450
2025-02-20 16:31:50.761,-1410.0,1096.0,-1533.0,443.0,49.0,45.0,140,55,57,90,63,513,460,440
2025-02-20 16:31:50.779,-2477.0,1967.0,-2356.0,344.0,-314.0,-222.0,138,55,51,78,59,512,426,425
2025-02-20 16:31:50.799,-1405.0,2338.0,-3095.0,338.0,-876.0,-487.0,127,54,50,75,60,459,403,427
2025-02-20 16:31:50.818,2645.0,821.0,-2150.0,163.0,-1259.0,-400.0,119,53,50,74,64,406,381,431
2025-02-20 16:31:50.835,5465.0,-2042.0,2682.0,268.0,-1059.0,-132.0,124,55,51,77,68,401,374,434
2025-02-20 16:31:50.856,4108.0,-1010.0,6050.0,163.0,-269.0,87.0,126,55,54,77,65,496,400,471
2025-02-20 16:31:50.873,2064.0,475.0,4810.0,-13.0,292.0,-39.0,118,55,52,71,58,473,513,503
2025-02-20 16:31:50.893,1120.0,-635.0,1999.0,-122.0,390.0,23.0,113,56,51,70,53,457,547,498
2025-02-20 16:31:50.912,479.0,-288.0,1270.0,-193.0,364.0,73.0,113,54,52,72,54,406,547,485
2025-02-20 16:31:50.930,289.0,-466.0,1022.0,-242.0,354.0,94.0,115,56,53,72,57,419,505,476
2025-02-20 16:31:50.950,-124.0,-545.0,628.0,-201.0,311.0,124.0,115,58,55,71,57,360,420,467
2025-02-20 16:31:50.970,-240.0,-492.0,520.0,-106.0,271.0,110.0,117,57,56,72,59,367,373,473
2025-02-20 16:31:50.987,-236.0,-309.0,506.0,-64.0,269.0,77.0,119,57,57,72,60,454,479,477
2025-02-20 16:31:51.005,-408.0,-153.0,413.0,-82.0,236.0,61.0,121,58,56,74,63,494,536,471
2025-02-20 16:31:51.024,-620.0,-234.0,218.0,-115.0,175.0,69.0,123,57,56,76,65,498,485,459
2025-02-20 16:31:51.044,-501.0,-196.0,269.0,-121.0,121.0,89.0,125,57,56,75,64,519,412,453
2025-02-20 16:31:51.064,-333.0,-210.0,354.0,-122.0,128.0,95.0,125,58,57,74,63,504,468,462
2025-02-20 16:31:51.082,-319.0,-222.0,396.0,-76.0,152.0,86.0,124,57,57,74,62,428,541,477
2025-02-20 16:31:51.102,-584.0,-110.0,125.0,-25.0,156.0,63.0,126,57,57,75,62,399,490,459
2025-02-20 16:31:51.122,-759.0,-43.0,43.0,5.0,98.0,48.0,127,57,57,75,62,419,438,455
2025-02-20 16:31:51.139,-501.0,-47.0,55.0,4.0,72.0,45.0,125,57,57,75,63,479,438,477
2025-02-20 16:31:51.159,-589.0,76.0,-206.0,15.0,52.0,53.0,125,58,58,75,65,494,439,481
2025-02-20 16:31:51.176,-883.0,627.0,-947.0,40.0,-15.0,5.0,123,58,58,74,62,484,417,463
2025-02-20 16:31:51.197,-1899.0,1475.0,-2537.0,235.0,-246.0,-230.0,115,58,57,72,60,478,452,456
2025-02-20 16:31:51.216,-1654.0,1983.0,-3544.0,319.0,-696.0,-460.0,110,57,56,71,58,440,475,471
2025-02-20 16:31:51.234,2067.0,1258.0,-2451.0,222.0,-1151.0,-417.0,114,55,54,71,61,383,446,466
2025-02-20 16:31:51.253,5434.0,-873.0,1510.0,116.0,-1185.0,-251.0,125,56,55,75,65,349,423,465
2025-02-20 16:31:51.273,4962.0,-2599.0,5696.0,205.0,-329.0,51.0,130,58,56,75,66,468,415,463
2025-02-20 16:31:51.290,3083.0,-400.0,4884.0,10.0,226.0,1.0,129,59,56,74,62,432,507,468
2025-02-20 16:31:51.307,1273.0,-671.0,2407.0,-182.0,377.0,50.0,129,57,56,75,57,424,579,478
2025-02-20 16:31:51.331,270.0,-692.0,1034.0,-220.0,313.0,87.0,131,56,59,79,58,456,540,467
2025-02-20 16:31:51.348,-200.0,-1191.0,739.0,-181.0,207.0,127.0,132,57,59,80,60,335,510,421
2025-02-20 16:31:51.367,-167.0,-1037.0,619.0,-136.0,103.0,148.0,133,60,60,80,64,365,477,428
2025-02-20 16:31:51.387,206.0,-922.0,1181.0,-122.0,108.0,157.0,133,60,60,81,68,436,378,444
2025-02-20 16:31:51.405,577.0,-1355.0,1187.0,-35.0,245.0,166.0,137,62,59,83,72,558,450,488
2025-02-20 16:31:51.424,34.0,-1105.0,643.0,74.0,276.0,197.0,134,62,62,84,74,630,525,518
2025-02-20 16:31:51.442,-415.0,-264.0,381.0,53.0,223.0,238.0,137,64,64,83,75,601,543,506
2025-02-20 16:31:51.461,-608.0,168.0,555.0,-7.0,159.0,219.0,137,65,65,83,70,529,473,488
2025-02-20 16:31:51.482,-79.0,-114.0,712.0,-33.0,199.0,208.0,137,64,64,83,66,563,449,471
2025-02-20 16:31:51.500,-120.0,-174.0,401.0,40.0,259.0,221.0,138,61,65,82,64,478,435,474
2025-02-20 16:31:51.519,-615.0,-132.0,-42.0,123.0,209.0,210.0,137,62,66,82,64,404,363,473
2025-02-20 16:31:51.539,-643.0,125.0,-58.0,140.0,118.0,156.0,139,65,67,82,63,390,417,476
2025-02-20 16:31:51.556,-661.0,40.0,137.0,188.0,85.0,90.0,139,70,67,79,65,449,474,467
2025-02-20 16:31:51.576,-457.0,211.0,355.0,218.0,89.0,80.0,140,82,63,77,66,521,518,465
2025-02-20 16:31:51.597,-615.0,445.0,286.0,103.0,60.0,53.0,141,97,63,78,66,499,540,463
2025-02-20 16:31:51.614,-877.0,688.0,-213.0,65.0,4.0,-14.0,141,101,62,77,65,436,507,460
2025-02-20 16:31:51.633,-1133.0,1106.0,-900.0,89.0,-112.0,-159.0,139,105,60,76,64,416,451,455
2025-02-20 16:31:51.655,-1586.0,1074.0,-2118.0,53.0,-365.0,-292.0,137,106,57,71,60,410,370,447
2025-02-20 16:31:51.671,-380.0,505.0,-3242.0,88.0,-851.0,-345.0,122,108,56,67,57,400,347,434
2025-02-20 16:31:51.692,2336.0,17.0,-3011.0,168.0,-1179.0,-214.0,115,109,55,72,59,411,384,439
2025-02-20 16:31:51.712,3757.0,-361.0,-136.0,296.0,-1173.0,-85.0,114,110,55,70,62,491,407,463
2025-02-20 16:31:51.729,3661.0,169.0,2042.0,381.0,-824.0,-24.0,123,114,54,73,64,484,422,466
2025-02-20 16:31:51.749,3365.0,865.0,4302.0,338.0,-392.0,-38.0,127,116,55,75,65,491,460,448
2025-02-20 16:31:51.764,2604.0,736.0,4422.0,92.0,72.0,-47.0,131,115,55,75,66,520,515,447
2025-02-20 16:31:51.786,1937.0,649.0,2938.0,-125.0,328.0,-25.0,131,116,54,76,66,554,570,458
2025-02-20 16:31:51.805,1300.0,447.0,1775.0,-222.0,428.0,-15.0,128,115,56,75,65,446,567,464
2025-02-20 16:31:51.823,946.0,97.0,1235.0,-248.0,445.0,-17.0,129,114,57,78,67,448,538,448
2025-02-20 16:31:51.843,527.0,-176.0,696.0,-178.0,398.0,-13.0,124,114,56,77,67,464,492,465
2025-02-20 16:31:51.863,260.0,-429.0,557.0,-68.0,298.0,-1.0,113,114,55,78,66,476,488,507
2025-02-20 16:31:51.880,136.0,-224.0,805.0,-57.0,231.0,24.0,113,116,55,78,66,497,529,507
2025-02-20 16:31:51.900,132.0,91.0,1102.0,-131.0,251.0,47.0,117,118,58,78,66,427,530,483
2025-02-20 16:31:51.917,38.0,-14.0,848.0,-182.0,280.0,36.0,122,118,56,78,67,400,470,460
2025-02-20 16:31:51.937,-117.0,-349.0,549.0,-107.0,270.0,45.0,121,118,55,78,68,419,450,463
2025-02-20 16:31:51.957,-82.0,-214.0,520.0,-21.0,255.0,42.0,119,118,56,79,67,329,428,465
2025-02-20 16:31:51.974,-125.0,66.0,557.0,-41.0,259.0,53.0,120,120,57,79,67,365,383,457
2025-02-20 16:31:51.995,-150.0,82.0,494.0,-81.0,258.0,41.0,121,121,58,79,68,395,384,467
2025-02-20 16:31:52.015,-257.0,-50.0,313.0,-83.0,251.0,36.0,125,121,58,79,68,452,442,494
2025-02-20 16:31:52.031,-484.0,-147.0,-2.0,-53.0,205.0,58.0,128,122,57,78,67,543,490,489
2025-02-20 16:31:52.052,-762.0,186.0,-544.0,-39.0,125.0,70.0,123,121,58,78,66,575,487,469
2025-02-20 16:31:52.071,-1626.0,717.0,-1809.0,12.0,-68.0,-77.0,116,119,56,73,63,549,435,459
2025-02-20 16:31:52.089,-1748.0,628.0,-2691.0,178.0,-497.0,-227.0,111,120,55,76,62,511,416,454
2025-02-20 16:31:52.109,32.0,241.0,-2435.0,279.0,-866.0,-189.0,107,119,56,76,61,487,421,446
2025-02-20 16:31:52.130,2575.0,184.0,-921.0,325.0,-1042.0,-79.0,108,121,56,77,63,513,394,462
2025-02-20 16:31:52.145,3373.0,186.0,2181.0,331.0,-908.0,-24.0,120,121,55,77,64,496,387,466
2025-02-20 16:31:52.167,3464.0,86.0,4458.0,247.0,-401.0,97.0,127,123,56,76,66,503,418,458
2025-02-20 16:31:52.180,2558.0,754.0,4854.0,-19.0,47.0,84.0,130,123,57,77,66,516,493,459
2025-02-20 16:31:52.204,1859.0,508.0,3307.0,-230.0,341.0,31.0,132,123,57,78,66,489,541,461
2025-02-20 16:31:52.223,747.0,69.0,1772.0,-253.0,487.0,42.0,133,121,58,80,68,437,542,460
2025-02-20 16:31:52.241,889.0,-579.0,1022.0,-192.0,493.0,75.0,136,118,57,81,68,444,518,452
2025-02-20 16:31:52.261,467.0,-403.0,936.0,-142.0,457.0,102.0,137,117,59,81,70,438,473,446
2025-02-20 16:31:52.278,193.0,-142.0,777.0,-177.0,408.0,128.0,137,118,61,82,71,377,461,434
2025-02-20 16:31:52.296,110.0,-116.0,710.0,-215.0,364.0,138.0,138,115,64,83,73,397,464,462
2025-02-20 16:31:52.318,-80.0,-127.0,559.0,-217.0,327.0,125.0,138,112,68,84,76,425,507,498
2025-02-20 16:31:52.338,-259.0,-253.0,468.0,-190.0,303.0,119.0,137,109,71,86,80,431,521,497
2025-02-20 16:31:52.354,-314.0,-144.0,461.0,-147.0,295.0,131.0,137,109,77,88,81,379,485,472
2025-02-20 16:31:52.375,-167.0,-266.0,291.0,-121.0,317.0,147.0,136,109,82,96,87,401,459,467
2025-02-20 16:31:52.392,-241.0,-21.0,-5.0,0.0,305.0,148.0,134,108,86,106,94,443,444,478
2025-02-20 16:31:52.413,-1057.0,282.0,-48.0,63.0,155.0,121.0,135,109,87,112,98,466,469,495
2025-02-20 16:31:52.432,-791.0,-81.0,53.0,11.0,122.0,95.0,133,104,88,116,100,466,501,493
2025-02-20 16:31:52.449,-515.0,460.0,-515.0,59.0,79.0,69.0,132,106,89,117,105,499,503,482
2025-02-20 16:31:52.470,-717.0,830.0,-893.0,48.0,-7.0,-37.0,129,106,91,118,107,563,474,469
2025-02-20 16:31:52.489,-1058.0,1317.0,-1792.0,35.0,-180.0,-190.0,127,108,91,120,113,588,458,460
2025-02-20 16:31:52.508,-1493.0,1338.0,-2039.0,29.0,-398.0,-368.0,126,111,94,120,120,559,441,462
2025-02-20 16:31:52.527,-814.0,1149.0,-1750.0,-48.0,-659.0,-550.0,126,114,97,123,126,504,422,468
2025-02-20 16:31:52.547,1419.0,1163.0,-1223.0,-139.0,-909.0,-619.0,125,118,98,127,129,445,396,469
2025-02-20 16:31:52.563,4046.0,-822.0,-38.0,-347.0,-1099.0,-467.0,127,123,102,129,130,428,390,468
2025-02-20 16:31:52.585,3624.0,-3647.0,1307.0,-416.0,-775.0,-211.0,129,126,106,132,131,387,393,467
2025-02-20 16:31:52.604,3596.0,-4225.0,1175.0,-123.0,-326.0,102.0,132,126,105,132,132,458,465,461
2025-02-20 16:31:52.621,2744.0,-2946.0,1453.0,30.0,2.0,106.0,134,126,106,133,133,489,478,464
2025-02-20 16:31:52.641,1057.0,-1892.0,1044.0,86.0,209.0,66.0,136,123,105,133,132,463,494,457
2025-02-20 16:31:52.658,309.0,-1031.0,828.0,38.0,198.0,150.0,136,121,105,133,132,384,512,458
2025-02-20 16:31:52.679,144.0,-818.0,964.0,9.0,173.0,219.0,136,120,105,132,132,411,495,459
2025-02-20 16:31:52.699,100.0,-857.0,930.0,74.0,177.0,211.0,136,121,105,133,132,450,446,476
2025-02-20 16:31:52.715,215.0,-985.0,274.0,57.0,198.0,158.0,135,122,105,133,132,516,456,462
2025-02-20 16:31:52.736,310.0,-885.0,544.0,74.0,262.0,112.0,133,124,105,133,134,497,474,467
2025-02-20 16:31:52.756,257.0,-892.0,521.0,33.0,284.0,123.0,133,126,106,135,133,565,494,477
2025-02-20 16:31:52.773,29.0,-691.0,434.0,75.0,249.0,155.0,132,127,107,134,134,556,503,474
2025-02-20 16:31:52.792,0.0,-445.0,369.0,69.0,229.0,205.0,131,126,105,133,134,547,496,465
2025-02-20 16:31:52.810,0.0,-403.0,358.0,26.0,224.0,219.0,133,124,106,134,134,478,468,468
2025-02-20 16:31:52.831,-210.0,-176.0,319.0,-49.0,171.0,211.0,131,123,106,133,134,443,458,477
2025-02-20 16:31:52.851,-435.0,-85.0,139.0,-54.0,108.0,187.0,132,120,105,132,133,445,414,473
2025-02-20 16:31:52.867,-398.0,-18.0,111.0,32.0,108.0,169.0,132,117,105,133,132,523,447,475
2025-02-20 16:31:52.887,-403.0,244.0,178.0,103.0,110.0,146.0,132,116,104,133,132,562,511,482
2025-02-20 16:31:52.908,-630.0,890.0,-65.0,140.0,109.0,91.0,132,117,104,133,132,553,533,483
2025-02-20 16:31:52.925,-1316.0,1503.0,-833.0,115.0,-6.0,-89.0,131,116,104,133,132,499,516,472
2025-02-20 16:31:52.945,-1590.0,1461.0,-1020.0,191.0,-153.0,-338.0,131,116,105,133,134,433,478,465
2025-02-20 16:31:52.962,-1054.0,1563.0,-1079.0,147.0,-337.0,-649.0,131,119,105,133,134,399,438,461
2025-02-20 16:31:52.980,789.0,1230.0,-1160.0,-62.0,-707.0,-753.0,127,123,103,134,134,343,399,460
2025-02-20 16:31:53.002,3306.0,-933.0,-191.0,-357.0,-994.0,-541.0,127,127,107,134,134,322,386,462
2025-02-20 16:31:53.022,3666.0,-3319.0,1234.0,-335.0,-637.0,-225.0,127,127,108,134,135,385,403,460
2025-02-20 16:31:53.034,3710.0,-4623.0,1378.0,-33.0,-261.0,79.0,129,128,108,134,135,469,519,462
2025-02-20 16:31:53.060,2715.0,-3443.0,987.0,113.0,73.0,107.0,132,128,105,134,136,469,497,461
2025-02-20 16:31:53.080,1117.0,-1742.0,874.0,180.0,263.0,83.0,132,122,104,134,133,463,501,454
2025-02-20 16:31:53.097,117.0,-839.0,926.0,47.0,290.0,151.0,134,118,100,133,127,387,487,434
2025-02-20 16:31:53.116,-51.0,-735.0,775.0,85.0,217.0,142.0,136,116,97,130,122,407,447,422
2025-02-20 16:31:53.133,-27.0,-867.0,691.0,65.0,244.0,127.0,138,115,88,130,111,419,391,434
2025-02-20 16:31:53.154,145.0,-1096.0,741.0,77.0,279.0,140.0,134,115,83,128,104,437,454,475
2025-02-20 16:31:53.174,488.0,-1329.0,465.0,111.0,357.0,167.0,135,117,78,113,95,535,482,468
2025-02-20 16:31:53.191,408.0,-938.0,523.0,138.0,340.0,219.0,135,118,68,101,86,545,476,457
2025-02-20 16:31:53.211,223.0,-757.0,345.0,210.0,344.0,240.0,136,118,61,92,76,547,473,453
2025-02-20 16:31:53.231,99.0,-420.0,151.0,227.0,341.0,254.0,136,116,57,84,69,470,493,459
2025-02-20 16:31:53.248,-80.0,-212.0,50.0,223.0,322.0,266.0,136,113,55,81,65,498,481,471
2025-02-20 16:31:53.269,-230.0,198.0,-71.0,201.0,296.0,279.0,134,109,52,78,60,486,509,487
2025-02-20 16:31:53.285,-423.0,397.0,-222.0,166.0,231.0,245.0,133,104,51,76,57,502,476,485
2025-02-20 16:31:53.305,-724.0,801.0,-798.0,128.0,130.0,136.0,126,100,51,72,56,460,417,474
2025-02-20 16:31:53.326,-1390.0,1319.0,-1994.0,202.0,-130.0,-80.0,113,98,49,66,54,425,398,462
2025-02-20 16:31:53.343,-1654.0,1284.0,-2381.0,213.0,-486.0,-275.0,100,99,48,61,53,441,360,448
2025-02-20 16:31:53.363,-215.0,753.0,-2650.0,201.0,-904.0,-295.0,90,103,49,60,51,430,379,442
2025-02-20 16:31:53.382,3071.0,-307.0,-1765.0,253.0,-1186.0,-121.0,89,107,50,62,54,372,410,437
2025-02-20 16:31:53.400,4230.0,-62.0,894.0,306.0,-1122.0,-43.0,94,110,48,64,58,433,416,418
2025-02-20 16:31:53.420,4147.0,-533.0,4430.0,367.0,-611.0,40.0,109,114,50,65,63,512,436,447
2025-02-20 16:31:53.440,3083.0,514.0,4880.0,227.0,-137.0,39.0,116,116,52,69,63,506,517,458
2025-02-20 16:31:53.457,1907.0,1039.0,4247.0,-119.0,311.0,7.0,117,116,52,71,63,455,514,469
2025-02-20 16:31:53.477,1604.0,544.0,2217.0,-308.0,471.0,24.0,116,113,53,71,64,402,468,469
2025-02-20 16:31:53.494,957.0,-323.0,993.0,-247.0,483.0,45.0,116,110,53,70,64,420,468,465
2025-02-20 16:31:53.515,597.0,-394.0,601.0,-133.0,416.0,65.0,116,108,54,69,67,454,457,457
2025-02-20 16:31:53.534,170.0,-217.0,700.0,-92.0,332.0,87.0,110,110,52,70,66,399,426,444
2025-02-20 16:31:53.551,-46.0,106.0,654.0,-125.0,240.0,53.0,107,113,53,70,66,426,423,486
2025-02-20 16:31:53.572,-116.0,-108.0,755.0,-154.0,202.0,37.0,108,114,53,72,66,427,468,486
2025-02-20 16:31:53.592,12.0,-216.0,850.0,-150.0,235.0,69.0,111,112,54,71,66,417,491,478
2025-02-20 16:31:53.609,-115.0,-270.0,656.0,-133.0,257.0,90.0,113,113,55,73,68,425,512,464
2025-02-20 16:31:53.629,-343.0,-229.0,372.0,-103.0,227.0,122.0,112,112,56,74,67,412,504,453
2025-02-20 16:31:53.649,-371.0,-87.0,354.0,-39.0,175.0,99.0,109,114,55,73,67,390,433,449
2025-02-20 16:31:53.666,-149.0,57.0,490.0,-10.0,197.0,55.0,109,113,56,74,68,327,417,431
2025-02-20 16:31:53.684,-216.0,89.0,445.0,-14.0,234.0,44.0,111,113,56,73,69,379,458,459
2025-02-20 16:31:53.700,-380.0,13.0,201.0,-14.0,227.0,57.0,113,111,57,73,69,439,485,489
2025-02-20 16:31:53.724,-564.0,146.0,-70.0,-23.0,176.0,82.0,116,109,56,77,69,486,496,486
2025-02-20 16:31:53.743,-689.0,401.0,-387.0,-47.0,105.0,90.0,116,104,57,74,68,450,481,476
2025-02-20 16:31:53.760,-1181.0,1016.0,-1446.0,-53.0,-28.0,-73.0,116,100,56,72,67,439,454,475
2025-02-20 16:31:53.780,-1918.0,1217.0,-2359.0,160.0,-363.0,-330.0,112,101,54,71,64,438,409,460
2025-02-20 16:31:53.801,-727.0,938.0,-2321.0,271.0,-777.0,-443.0,104,102,54,72,61,414,387,463
2025-02-20 16:31:53.818,2596.0,87.0,-1394.0,261.0,-1087.0,-275.0,103,109,55,72,64,429,378,457
2025-02-20 16:31:53.838,4046.0,-1052.0,1660.0,300.0,-1041.0,-115.0,116,112,54,73,67,496,399,461
2025-02-20 16:31:53.858,3475.0,-692.0,4364.0,281.0,-520.0,85.0,123,112,58,75,70,562,504,473
2025-02-20 16:31:53.875,2945.0,93.0,5048.0,8.0,24.0,64.0,127,114,60,77,69,554,538,470
2025-02-20 16:31:53.895,2021.0,49.0,3447.0,-219.0,311.0,35.0,128,115,61,79,67,500,561,473
2025-02-20 16:31:53.914,1150.0,-476.0,1955.0,-250.0,429.0,70.0,130,113,62,80,66,507,545,461
2025-02-20 16:31:53.932,765.0,-655.0,1158.0,-213.0,440.0,96.0,132,112,63,79,69,363,513,430
2025-02-20 16:31:53.950,402.0,-570.0,970.0,-174.0,401.0,110.0,133,112,64,83,71,326,456,412
2025-02-20 16:31:53.970,258.0,-356.0,856.0,-188.0,380.0,132.0,133,113,65,84,71,373,404,433
2025-02-20 16:31:53.986,67.0,-459.0,605.0,-189.0,348.0,143.0,132,115,68,85,73,463,460,480
2025-02-20 16:31:54.010,-1.0,-472.0,588.0,-165.0,320.0,159.0,134,114,73,85,73,502,514,513
2025-02-20 16:31:54.027,-85.0,-540.0,450.0,-111.0,317.0,188.0,134,113,78,85,73,487,511,497
2025-02-20 16:31:54.047,-235.0,-227.0,429.0,-55.0,316.0,209.0,134,111,82,87,74,429,439,469
2025-02-20 16:31:54.065,-393.0,-76.0,212.0,-54.0,304.0,214.0,134,111,81,89,74,408,453,454
2025-02-20 16:31:54.083,-465.0,119.0,-5.0,2.0,284.0,186.0,134,111,83,91,74,396,471,454
2025-02-20 16:31:54.104,-477.0,270.0,-260.0,80.0,254.0,135.0,134,111,83,90,75,371,481,465
2025-02-20 16:31:54.123,-446.0,567.0,-487.0,123.0,219.0,76.0,134,111,83,90,75,397,475,490
2025-02-20 16:31:54.139,-653.0,1088.0,-915.0,125.0,149.0,27.0,135,111,87,90,76,535,431,471
2025-02-20 16:31:54.162,-1247.0,1344.0,-2147.0,104.0,-51.0,-129.0,135,113,88,86,74,642,410,453
2025-02-20 16:31:54.182,-1531.0,1641.0,-2431.0,140.0,-384.0,-345.0,135,115,90,82,70,643,427,447
2025-02-20 16:31:54.199,-931.0,1873.0,-2281.0,114.0,-727.0,-550.0,131,117,92,83,70,548,427,464
2025-02-20 16:31:54.219,1924.0,1855.0,-1810.0,-36.0,-1122.0,-632.0,126,122,97,86,75,477,415,461
2025-02-20 16:31:54.239,4032.0,-1100.0,-197.0,-209.0,-1226.0,-493.0,125,126,99,90,78,422,407,472
2025-02-20 16:31:54.255,4541.0,-3490.0,1754.0,-10.0,-833.0,-165.0,127,129,101,91,79,461,429,467
2025-02-20 16:31:54.276,4397.0,-3370.0,2737.0,165.0,-199.0,56.0,132,129,104,92,78,459,493,456
2025-02-20 16:31:54.293,2367.0,-1573.0,2803.0,115.0,175.0,89.0,133,129,104,93,67,415,515,467
2025-02-20 16:31:54.313,921.0,-1050.0,1853.0,-1.0,275.0,92.0,132,129,104,94,62,403,513,460
2025-02-20 16:31:54.332,284.0,-835.0,1085.0,-84.0,226.0,119.0,133,128,104,94,63,327,506,437
2025-02-20 16:31:54.349,208.0,-792.0,859.0,-105.0,177.0,132.0,133,127,105,92,67,345,543,426
2025-02-20 16:31:54.368,179.0,-707.0,733.0,-105.0,171.0,128.0,132,129,106,89,72,452,498,474
2025-02-20 16:31:54.385,279.0,-861.0,878.0,-51.0,195.0,114.0,132,129,106,87,75,515,443,479
2025-02-20 16:31:54.407,306.0,-940.0,719.0,4.0,238.0,124.0,129,130,107,85,77,508,465,491
2025-02-20 16:31:54.427,198.0,-639.0,524.0,27.0,251.0,141.0,128,131,107,85,77,583,489,502
2025-02-20 16:31:54.445,-101.0,-373.0,540.0,7.0,247.0,166.0,128,131,107,86,76,593,461,484
2025-02-20 16:31:54.465,-181.0,-179.0,470.0,-45.0,231.0,184.0,128,132,107,87,74,527,466,472
2025-02-20 16:31:54.485,-253.0,-56.0,467.0,-75.0,215.0,194.0,130,130,106,87,72,473,483,461
2025-02-20 16:31:54.502,-342.0,0.0,344.0,-93.0,201.0,190.0,131,129,108,87,71,470,459,467
2025-02-20 16:31:54.522,-358.0,-106.0,250.0,-78.0,185.0,173.0,130,128,107,87,71,454,447,473
2025-02-20 16:31:54.542,-461.0,-42.0,133.0,-12.0,180.0,169.0,131,127,107,88,71,531,461,462
2025-02-20 16:31:54.557,-646.0,336.0,-65.0,57.0,164.0,147.0,132,125,107,87,73,552,516,454
2025-02-20 16:31:54.579,-846.0,979.0,-373.0,45.0,112.0,61.0,133,127,106,86,74,518,491,462
2025-02-20 16:31:54.599,-1343.0,1016.0,-1180.0,80.0,-19.0,-127.0,133,125,105,86,74,472,450,459
2025-02-20 16:31:54.616,-1415.0,1355.0,-1174.0,213.0,-198.0,-391.0,131,126,105,85,74,452,447,468
2025-02-20 16:31:54.637,-549.0,1180.0,-805.0,181.0,-469.0,-555.0,128,127,106,87,75,413,465,472
2025-02-20 16:31:54.653,773.0,754.0,-41.0,9.0,-706.0,-598.0,126,126,105,91,77,354,421,471
2025-02-20 16:31:54.672,2613.0,-1073.0,721.0,-205.0,-769.0,-515.0,126,129,106,93,76,351,410,481
2025-02-20 16:31:54.694,3099.0,-3368.0,2107.0,-193.0,-394.0,-258.0,127,130,107,97,77,505,480,475
2025-02-20 16:31:54.708,3032.0,-3792.0,1886.0,2.0,38.0,43.0,128,129,106,101,76,582,508,468
2025-02-20 16:31:54.731,1657.0,-2430.0,1525.0,97.0,207.0,146.0,129,129,105,104,71,569,517,472
2025-02-20 16:31:54.742,410.0,-1100.0,1017.0,70.0,217.0,168.0,130,125,104,105,63,487,508,464
2025-02-20 16:31:54.768,138.0,-884.0,796.0,-27.0,152.0,144.0,130,124,102,106,69,328,477,461
2025-02-20 16:31:54.788,220.0,-1255.0,748.0,-32.0,139.0,144.0,131,123,101,105,70,360,421,435
2025-02-20 16:31:54.808,263.0,-1316.0,832.0,54.0,182.0,167.0,133,125,100,102,75,383,393,444
2025-02-20 16:31:54.825,176.0,-1019.0,844.0,100.0,229.0,169.0,134,126,95,102,77,507,461,436
2025-02-20 16:31:54.845,45.0,-667.0,805.0,104.0,269.0,183.0,135,128,90,99,80,586,476,449
2025-02-20 16:31:54.862,-19.0,-537.0,701.0,52.0,289.0,203.0,136,125,82,96,81,521,497,449
2025-02-20 16:31:54.883,-58.0,-434.0,458.0,33.0,287.0,220.0,136,123,73,96,80,528,457,440
2025-02-20 16:31:54.903,-267.0,-272.0,273.0,5.0,252.0,242.0,137,122,65,93,78,512,476,427
2025-02-20 16:31:54.920,-277.0,-116.0,74.0,25.0,240.0,257.0,137,120,60,92,75,490,480,443
2025-02-20 16:31:54.939,-402.0,159.0,-92.0,62.0,229.0,239.0,137,118,62,91,72,472,478,470
2025-02-20 16:31:54.960,-592.0,377.0,-370.0,89.0,187.0,200.0,136,113,60,89,70,457,458,485
2025-02-20 16:31:54.976,-876.0,625.0,-1031.0,116.0,70.0,73.0,134,111,59,88,73,496,402,494
2025-02-20 16:31:54.997,-1437.0,672.0,-2091.0,266.0,-140.0,-74.0,130,109,55,83,68,518,396,488
2025-02-20 16:31:55.017,-1660.0,740.0,-2043.0,376.0,-460.0,-228.0,116,109,50,72,63,492,415,484
2025-02-20 16:31:55.034,320.0,787.0,-2236.0,335.0,-899.0,-205.0,106,112,53,67,65,463,429,477
2025-02-20 16:31:55.054,2805.0,331.0,-1004.0,296.0,-1112.0,-108.0,103,115,53,69,68,444,436,466
2025-02-20 16:31:55.071,3661.0,-285.0,601.0,379.0,-1035.0,-48.0,110,116,50,70,72,441,438,465
2025-02-20 16:31:55.091,3222.0,-135.0,3052.0,431.0,-681.0,69.0,121,117,52,70,74,521,424,488
2025-02-20 16:31:55.111,2498.0,1191.0,4092.0,276.0,-225.0,105.0,128,118,52,72,77,537,431,486
2025-02-20 16:31:55.126,1819.0,1093.0,4165.0,-68.0,150.0,55.0,129,119,54,74,75,543,496,480
2025-02-20 16:31:55.149,1433.0,691.0,2546.0,-273.0,394.0,43.0,127,116,55,75,74,532,510,472
2025-02-20 16:31:55.167,1196.0,131.0,1041.0,-256.0,501.0,23.0,125,118,54,74,74,468,526,460
2025-02-20 16:31:55.186,984.0,-101.0,739.0,-149.0,479.0,3.0,125,116,54,75,75,456,536,447
2025-02-20 16:31:55.206,297.0,-44.0,750.0,-87.0,428.0,-14.0,125,118,55,76,76,378,519,441
2025-02-20 16:31:55.226,104.0,-141.0,670.0,-79.0,369.0,-6.0,122,119,54,76,73,440,493,454
2025-02-20 16:31:55.242,-91.0,-134.0,617.0,-109.0,286.0,18.0,120,119,57,77,74,442,503,474
2025-02-20 16:31:55.259,-96.0,-246.0,721.0,-143.0,246.0,47.0,119,120,59,76,73,446,519,478
2025-02-20 16:31:55.283,-105.0,-330.0,630.0,-151.0,231.0,82.0,120,120,56,77,73,471,483,473
2025-02-20 16:31:55.300,-262.0,-303.0,425.0,-111.0,210.0,98.0,121,119,56,77,73,422,448,460
2025-02-20 16:31:55.320,-331.0,-191.0,422.0,-37.0,188.0,75.0,121,119,57,76,73,423,456,450
2025-02-20 16:31:55.338,-442.0,-14.0,416.0,-10.0,172.0,44.0,121,120,57,78,73,417,462,452
2025-02-20 16:31:55.357,-342.0,47.0,491.0,-28.0,171.0,47.0,122,120,57,78,74,408,466,460
2025-02-20 16:31:55.374,-295.0,-17.0,365.0,-51.0,192.0,57.0,123,118,57,77,73,433,448,462
2025-02-20 16:31:55.394,-614.0,-114.0,59.0,-54.0,158.0,83.0,124,116,58,76,74,482,441,477
2025-02-20 16:31:55.415,-787.0,100.0,-400.0,-21.0,86.0,97.0,122,119,58,76,73,511,456,479
2025-02-20 16:31:55.435,-1169.0,667.0,-1275.0,67.0,-64.0,-26.0,120,118,57,75,71,510,439,481
2025-02-20 16:31:55.452,-1663.0,1046.0,-2123.0,175.0,-312.0,-192.0,116,118,55,73,67,506,428,470
2025-02-20 16:31:55.472,-884.0,765.0,-2478.0,240.0,-756.0,-291.0,106,118,54,72,63,469,465,464
2025-02-20 16:31:55.492,1863.0,620.0,-1639.0,299.0,-1026.0,-214.0,104,121,56,71,66,444,464,460
2025-02-20 16:31:55.509,3502.0,-278.0,207.0,373.0,-1046.0,-100.0,114,123,55,72,70,501,431,454
2025-02-20 16:31:55.529,3496.0,-330.0,2143.0,393.0,-785.0,1.0,127,126,55,75,76,532,440,456
2025-02-20 16:31:55.546,3442.0,94.0,3773.0,341.0,-419.0,108.0,133,128,55,78,80,574,496,467
2025-02-20 16:31:55.566,2430.0,791.0,4210.0,79.0,17.0,124.0,136,128,60,85,84,572,465,469
2025-02-20 16:31:55.587,1684.0,913.0,3090.0,-194.0,294.0,112.0,138,128,68,91,88,495,512,456
2025-02-20 16:31:55.604,1231.0,297.0,1751.0,-323.0,438.0,120.0,141,130,75,96,89,447,508,438
2025-02-20 16:31:55.624,1058.0,-237.0,1169.0,-281.0,460.0,147.0,139,124,73,96,91,396,482,441
2025-02-20 16:31:55.641,884.0,-466.0,1106.0,-207.0,431.0,192.0,139,118,67,97,91,372,442,449
2025-02-20 16:31:55.661,656.0,-117.0,1188.0,-216.0,429.0,218.0,140,106,66,99,92,417,454,463
2025-02-20 16:31:55.681,332.0,110.0,1231.0,-301.0,418.0,212.0,141,90,68,101,91,456,469,485
2025-02-20 16:31:55.700,149.0,-42.0,1027.0,-376.0,409.0,194.0,141,76,64,101,89,467,513,498
2025-02-20 16:31:55.718,146.0,-317.0,836.0,-343.0,408.0,202.0,141,66,63,97,85,427,482,466
2025-02-20 16:31:55.738,-1.0,-478.0,512.0,-264.0,415.0,190.0,142,60,59,93,80,422,454,476
2025-02-20 16:31:55.758,-436.0,-167.0,192.0,-167.0,383.0,159.0,140,55,59,87,74,426,462,479
2025-02-20 16:31:55.774,-429.0,59.0,50.0,-110.0,333.0,115.0,138,53,54,80,66,440,486,482
2025-02-20 16:31:55.792,-563.0,342.0,-376.0,-50.0,242.0,70.0,137,53,54,75,66,460,493,507
2025-02-20 16:31:55.812,-670.0,549.0,-386.0,-40.0,182.0,42.0,135,53,53,71,65,479,485,501
2025-02-20 16:31:55.832,-760.0,975.0,-547.0,4.0,99.0,15.0,129,55,53,65,64,569,452,475
2025-02-20 16:31:55.853,-709.0,1595.0,-943.0,72.0,16.0,-84.0,122,55,53,64,61,607,428,467
2025-02-20 16:31:55.870,-886.0,2200.0,-1314.0,102.0,-96.0,-323.0,116,55,53,65,55,571,433,467
2025-02-20 16:31:55.890,-793.0,2521.0,-1952.0,84.0,-279.0,-558.0,110,53,52,66,52,506,420,458
2025-02-20 16:31:55.908,-323.0,1872.0,-2495.0,67.0,-558.0,-746.0,108,54,55,67,50,463,423,453
2025-02-20 16:31:55.924,2033.0,1327.0,-2346.0,92.0,-986.0,-781.0,111,53,52,69,53,463,432,455
2025-02-20 16:31:55.944,5958.0,-2597.0,2282.0,83.0,-924.0,-447.0,114,55,54,72,55,449,405,455
2025-02-20 16:31:55.967,5589.0,-5497.0,4200.0,219.0,-76.0,-160.0,116,56,54,73,56,455,469,455
2025-02-20 16:31:55.985,3027.0,-3515.0,2404.0,318.0,282.0,-62.0,116,53,53,69,50,399,566,446
2025-02-20 16:31:56.004,612.0,-783.0,1227.0,33.0,221.0,76.0,117,51,54,69,47,372,599,434
2025-02-20 16:31:56.022,-7.0,-944.0,606.0,-273.0,39.0,131.0,119,52,54,70,49,319,573,410
2025-02-20 16:31:56.042,297.0,-1668.0,836.0,-282.0,-25.0,181.0,119,52,55,71,52,490,512,441
2025-02-20 16:31:56.062,604.0,-1966.0,1121.0,-115.0,87.0,194.0,121,57,56,75,54,447,400,480
2025-02-20 16:31:56.079,587.0,-1451.0,902.0,31.0,204.0,170.0,122,58,56,76,56,475,403,487
2025-02-20 16:31:56.099,285.0,-870.0,648.0,70.0,256.0,152.0,123,59,57,75,57,542,497,502
2025-02-20 16:31:56.119,70.0,-556.0,474.0,-3.0,231.0,159.0,124,60,57,73,58,551,509,501
2025-02-20 16:31:56.136,-121.0,-600.0,349.0,-67.0,177.0,192.0,125,58,58,73,59,495,493,467
2025-02-20 16:31:56.156,92.0,-635.0,465.0,-99.0,186.0,220.0,126,60,56,74,61,420,496,457
2025-02-20 16:31:56.176,58.0,-522.0,431.0,-96.0,177.0,232.0,126,61,58,73,61,424,495,469
2025-02-20 16:31:56.191,-274.0,-314.0,264.0,-68.0,180.0,206.0,129,60,58,73,61,433,437,508
2025-02-20 16:31:56.214,-235.0,-219.0,244.0,-39.0,169.0,187.0,130,59,58,73,62,461,412,518
2025-02-20 16:31:56.231,-158.0,-316.0,340.0,-18.0,167.0,180.0,127,60,59,73,62,491,459,503
2025-02-20 16:31:56.250,-345.0,-260.0,148.0,-2.0,174.0,187.0,130,61,59,75,63,591,488,474
2025-02-20 16:31:56.271,-612.0,-272.0,-51.0,62.0,136.0,168.0,131,61,60,74,64,625,464,457
2025-02-20 16:31:56.287,-404.0,-53.0,83.0,118.0,125.0,171.0,130,61,61,75,66,579,448,449
2025-02-20 16:31:56.308,-535.0,395.0,-149.0,130.0,118.0,160.0,130,62,60,76,66,511,495,452
2025-02-20 16:31:56.328,-787.0,1045.0,-489.0,103.0,50.0,110.0,131,63,61,75,66,496,488,453
2025-02-20 16:31:56.345,-1074.0,2089.0,-1183.0,109.0,-27.0,-78.0,129,62,60,75,66,513,447,452
2025-02-20 16:31:56.365,-1574.0,2579.0,-1831.0,196.0,-225.0,-456.0,125,62,59,73,60,492,422,458
2025-02-20 16:31:56.385,-1056.0,2416.0,-2264.0,186.0,-558.0,-713.0,120,59,56,73,59,428,402,460
2025-02-20 16:31:56.402,1717.0,1051.0,-1963.0,105.0,-1022.0,-775.0,120,57,55,72,61,427,370,454
2025-02-20 16:31:56.422,5237.0,-2433.0,-113.0,95.0,-1135.0,-458.0,122,59,55,76,64,408,377,449
2025-02-20 16:31:56.443,5535.0,-4978.0,3932.0,346.0,-454.0,-4.0,128,61,56,76,65,483,385,450
2025-02-20 16:31:56.460,2552.0,-1981.0,3671.0,358.0,209.0,0.0,128,59,52,70,59,445,531,446
2025-02-20 16:31:56.477,969.0,-603.0,2248.0,127.0,323.0,-11.0,129,58,56,71,52,439,591,461
2025-02-20 16:31:56.496,9.0,-439.0,1273.0,-51.0,251.0,88.0,130,55,56,73,52,484,581,458
2025-02-20 16:31:56.516,-145.0,-630.0,911.0,-94.0,174.0,96.0,131,55,56,72,54,424,532,430
2025-02-20 16:31:56.537,-93.0,-885.0,839.0,33.0,151.0,29.0,131,57,56,73,58,326,468,403
2025-02-20 16:31:56.554,-125.0,-839.0,833.0,165.0,183.0,28.0,132,62,55,75,63,397,459,416
2025-02-20 16:31:56.574,-211.0,-263.0,641.0,181.0,186.0,16.0,132,61,57,74,66,478,474,464
2025-02-20 16:31:56.594,-369.0,-1.0,532.0,163.0,119.0,-16.0,128,63,57,75,72,527,460,494
2025-02-20 16:31:56.611,-391.0,-292.0,538.0,165.0,66.0,-18.0,131,61,58,77,74,461,427,495
2025-02-20 16:31:56.631,-341.0,-243.0,509.0,181.0,37.0,-11.0,132,59,57,77,75,480,411,473
2025-02-20 16:31:56.648,-322.0,87.0,584.0,184.0,31.0,-33.0,133,60,57,76,73,505,413,466
2025-02-20 16:31:56.669,-306.0,139.0,636.0,176.0,36.0,-65.0,134,61,58,75,72,443,443,467
2025-02-20 16:31:56.688,-248.0,32.0,639.0,166.0,33.0,-81.0,135,62,57,75,69,451,435,479
2025-02-20 16:31:56.705,-172.0,-48.0,639.0,184.0,5.0,-99.0,135,64,57,76,67,447,460,479
2025-02-20 16:31:56.726,-32.0,-261.0,709.0,214.0,-9.0,-107.0,135,63,55,77,68,490,485,475
2025-02-20 16:31:56.746,144.0,-324.0,834.0,244.0,-9.0,-107.0,136,63,57,77,69,465,478,466
2025-02-20 16:31:56.762,284.0,-639.0,925.0,261.0,-34.0,-77.0,135,62,57,77,69,443,481,452
2025-02-20 16:31:56.782,471.0,-916.0,1207.0,223.0,-72.0,9.0,137,63,57,77,71,456,445,432
2025-02-20 16:31:56.803,939.0,-1539.0,1611.0,134.0,-67.0,205.0,139,62,56,77,70,464,425,424
2025-02-20 16:31:56.821,1701.0,-1943.0,2004.0,40.0,61.0,448.0,141,63,57,78,69,386,399,409
2025-02-20 16:31:56.840,1974.0,-350.0,1606.0,-100.0,125.0,627.0,142,61,57,77,68,425,448,454
2025-02-20 16:31:56.858,1376.0,761.0,1805.0,-253.0,113.0,628.0,144,61,58,77,70,452,474,472
2025-02-20 16:31:56.877,714.0,1239.0,1625.0,-282.0,161.0,529.0,146,63,57,74,70,474,474,482
2025-02-20 16:31:56.898,187.0,1546.0,699.0,-140.0,174.0,305.0,146,62,57,75,69,467,479,479
2025-02-20 16:31:56.914,-183.0,1775.0,371.0,79.0,134.0,199.0,147,63,58,74,68,475,459,466
2025-02-20 16:31:56.933,-649.0,2984.0,673.0,79.0,65.0,58.0,147,62,57,75,67,488,454,463
2025-02-20 16:31:56.955,-577.0,2750.0,972.0,-16.0,37.0,-62.0,148,62,59,75,69,482,466,459
2025-02-20 16:31:56.972,-233.0,1420.0,1158.0,-8.0,38.0,-147.0,146,63,58,74,70,449,473,457
2025-02-20 16:31:56.991,-44.0,770.0,1243.0,23.0,63.0,-171.0,147,63,59,75,69,451,471,481
2025-02-20 16:31:57.011,-31.0,536.0,1149.0,20.0,62.0,-186.0,147,62,58,74,68,478,431,508
2025-02-20 16:31:57.029,-97.0,484.0,1027.0,-55.0,44.0,-188.0,146,64,59,75,67,508,432,501
2025-02-20 16:31:57.049,-79.0,260.0,948.0,-99.0,34.0,-207.0,147,64,59,74,66,510,464,461
2025-02-20 16:31:57.070,-45.0,-316.0,880.0,-45.0,43.0,-224.0,146,64,59,76,64,509,486,443
2025-02-20 16:31:57.086,-160.0,-557.0,802.0,48.0,54.0,-200.0,146,62,59,75,64,507,474,442
2025-02-20 16:31:57.106,-312.0,-207.0,713.0,114.0,37.0,-199.0,145,63,57,75,64,488,465,456
2025-02-20 16:31:57.123,-364.0,-26.0,684.0,123.0,3.0,-210.0,144,62,58,74,64,447,463,461
2025-02-20 16:31:57.144,-334.0,-26.0,661.0,140.0,-32.0,-246.0,144,62,58,74,65,437,463,455
2025-02-20 16:31:57.164,-193.0,-217.0,802.0,151.0,-69.0,-241.0,144,62,58,74,66,436,497,469
2025-02-20 16:31:57.181,-46.0,-282.0,1033.0,150.0,-65.0,-217.0,144,64,58,75,67,426,501,470
2025-02-20 16:31:57.200,37.0,-417.0,1074.0,126.0,-53.0,-193.0,144,63,58,74,68,452,486,461
2025-02-20 16:31:57.221,142.0,-584.0,1067.0,72.0,-56.0,-150.0,144,63,58,75,68,472,494,460
2025-02-20 16:31:57.238,359.0,-1225.0,1039.0,25.0,-62.0,-81.0,144,62,57,75,68,500,486,458
2025-02-20 16:31:57.258,781.0,-2065.0,1206.0,21.0,-69.0,69.0,143,61,57,75,68,479,460,461
2025-02-20 16:31:57.278,1267.0,-2355.0,1648.0,-15.0,-41.0,270.0,143,62,56,75,67,453,439,475
2025-02-20 16:31:57.296,1940.0,-2530.0,1805.0,-52.0,41.0,537.0,141,61,57,74,64,453,454,493
2025-02-20 16:31:57.315,2393.0,-1279.0,1743.0,-126.0,76.0,714.0,142,61,55,74,62,457,482,488
2025-02-20 16:31:57.335,2016.0,514.0,1736.0,-205.0,61.0,707.0,144,61,56,73,61,484,479,476
2025-02-20 16:31:57.350,1206.0,1994.0,1604.0,-319.0,104.0,642.0,144,62,56,73,61,511,463,471
2025-02-20 16:31:57.372,-13.0,3476.0,867.0,-234.0,122.0,424.0,144,61,56,72,60,474,438,466
2025-02-20 16:31:57.390,-423.0,3446.0,969.0,18.0,97.0,131.0,146,62,57,71,62,484,430,460
2025-02-20 16:31:57.410,-416.0,3191.0,1455.0,128.0,92.0,15.0,146,63,59,72,63,498,431,474
2025-02-20 16:31:57.429,-282.0,2603.0,1624.0,71.0,134.0,-108.0,145,63,58,73,64,506,422,480
2025-02-20 16:31:57.445,-133.0,1333.0,1530.0,-11.0,158.0,-170.0,145,64,58,73,64,466,424,480
2025-02-20 16:31:57.467,60.0,-65.0,1376.0,-43.0,170.0,-155.0,145,63,58,74,64,385,416,456
2025-02-20 16:31:57.487,-9.0,-471.0,1352.0,-73.0,189.0,-118.0,145,62,57,72,64,405,432,455
2025-02-20 16:31:57.502,-12.0,-586.0,1375.0,-117.0,223.0,-91.0,145,63,58,72,63,479,440,478
2025-02-20 16:31:57.524,-350.0,-456.0,901.0,-186.0,243.0,-86.0,145,64,58,72,64,476,445,473
2025-02-20 16:31:57.544,-498.0,-568.0,574.0,-239.0,218.0,-77.0,144,64,59,73,65,444,475,471
2025-02-20 16:31:57.562,-437.0,-684.0,452.0,-224.0,197.0,-31.0,144,63,61,72,66,431,508,503
2025-02-20 16:31:57.581,-138.0,-807.0,473.0,-99.0,233.0,18.0,141,66,63,73,72,415,499,526
2025-02-20 16:31:57.598,-261.0,-323.0,310.0,17.0,284.0,52.0,140,69,66,77,80,421,492,525
2025-02-20 16:31:57.617,-654.0,415.0,117.0,47.0,239.0,27.0,141,73,69,86,87,468,502,533
2025-02-20 16:31:57.638,-788.0,628.0,-172.0,114.0,176.0,0.0,140,77,74,94,93,493,519,516
2025-02-20 16:31:57.653,-410.0,896.0,-613.0,171.0,79.0,-71.0,139,83,79,106,96,503,534,488
2025-02-20 16:31:57.676,-608.0,1056.0,-911.0,149.0,-20.0,-179.0,138,89,81,112,96,497,509,469
2025-02-20 16:31:57.695,-1036.0,1276.0,-998.0,89.0,-112.0,-297.0,135,92,84,114,104,483,492,455
2025-02-20 16:31:57.713,-857.0,1805.0,-1514.0,29.0,-278.0,-483.0,133,99,88,115,116,480,478,448
2025-02-20 16:31:57.733,-603.0,891.0,-1732.0,3.0,-447.0,-671.0,131,103,92,119,125,502,460,447
2025-02-20 16:31:57.753,1038.0,449.0,-1731.0,-86.0,-775.0,-670.0,127,109,95,123,129,457,434,438
2025-02-20 16:31:57.772,2680.0,-408.0,68.0,-190.0,-903.0,-556.0,126,116,98,127,131,452,396,436
2025-02-20 16:31:57.791,3450.0,-2762.0,698.0,-300.0,-846.0,-242.0,129,121,102,130,132,445,403,442
2025-02-20 16:31:57.811,3641.0,-3997.0,1111.0,-217.0,-496.0,8.0,130,124,104,131,133,531,433,430
2025-02-20 16:31:57.828,3319.0,-3789.0,1343.0,-176.0,-217.0,97.0,131,123,104,131,134,558,464,416
2025-02-20 16:31:57.847,1787.0,-2824.0,1039.0,-60.0,65.0,124.0,133,122,104,132,133,485,482,395
2025-02-20 16:31:57.865,747.0,-1014.0,864.0,-38.0,179.0,161.0,133,118,102,131,133,421,472,424
2025-02-20 16:31:57.883,215.0,-964.0,665.0,55.0,125.0,244.0,135,117,102,132,132,368,462,482
2025-02-20 16:31:57.905,29.0,-791.0,584.0,62.0,92.0,258.0,135,116,100,132,132,395,449,500
2025-02-20 16:31:57.922,132.0,-850.0,596.0,135.0,105.0,220.0,135,117,101,133,132,334,444,518
2025-02-20 16:31:57.942,145.0,-1084.0,807.0,250.0,232.0,157.0,134,117,101,133,132,457,504,486
2025-02-20 16:31:57.961,110.0,-907.0,618.0,168.0,249.0,113.0,136,116,101,133,133,549,522,463
2025-02-20 16:31:57.979,-8.0,-560.0,586.0,162.0,234.0,117.0,135,117,102,133,133,513,487,467
2025-02-20 16:31:57.999,-55.0,-512.0,328.0,184.0,283.0,131.0,135,116,102,132,134,433,493,464
2025-02-20 16:31:58.020,-64.0,-455.0,456.0,123.0,187.0,150.0,133,117,103,132,134,387,466,482
2025-02-20 16:31:58.035,-76.0,-329.0,365.0,40.0,156.0,146.0,134,118,102,132,133,442,492,465
2025-02-20 16:31:58.057,-151.0,-200.0,282.0,-43.0,114.0,147.0,134,116,102,132,133,436,466,476
2025-02-20 16:31:58.071,-303.0,134.0,473.0,-26.0,112.0,136.0,136,114,101,133,133,454,408,478
2025-02-20 16:31:58.094,-322.0,373.0,328.0,-21.0,117.0,116.0,134,110,102,134,133,461,416,472
2025-02-20 16:31:58.106,-729.0,1074.0,-338.0,-14.0,95.0,80.0,132,108,102,133,133,457,427,452
2025-02-20 16:31:58.131,-1363.0,1534.0,-1012.0,88.0,-42.0,-137.0,134,110,102,132,134,519,424,447
2025-02-20 16:31:58.151,-1475.0,2486.0,-1329.0,187.0,-251.0,-511.0,133,111,102,132,135,511,441,437
2025-02-20 16:31:58.168,-367.0,1016.0,-481.0,110.0,-392.0,-637.0,130,114,103,133,135,473,449,442
2025-02-20 16:31:58.185,1890.0,-746.0,-339.0,-93.0,-720.0,-541.0,128,120,105,133,135,449,451,456
2025-02-20 16:31:58.209,3534.0,-2012.0,135.0,-174.0,-847.0,-202.0,131,123,106,135,135,408,426,471
2025-02-20 16:31:58.228,3054.0,-3765.0,2105.0,-114.0,-490.0,38.0,133,123,107,135,136,434,469,455
2025-02-20 16:31:58.246,2498.0,-3260.0,1936.0,-51.0,-139.0,82.0,135,124,107,135,136,500,556,436
2025-02-20 16:31:58.266,1285.0,-1661.0,1222.0,38.0,79.0,-7.0,139,121,105,135,135,502,569,442
2025-02-20 16:31:58.283,102.0,-618.0,1192.0,-66.0,156.0,1.0,138,117,105,135,135,469,569,436
2025-02-20 16:31:58.302,84.0,-495.0,825.0,4.0,140.0,42.0,139,114,104,135,135,421,489,436
2025-02-20 16:31:58.323,35.0,-710.0,684.0,33.0,102.0,41.0,138,115,104,135,134,446,387,443
2025-02-20 16:31:58.339,194.0,-851.0,790.0,163.0,133.0,28.0,138,115,103,134,133,471,363,468
2025-02-20 16:31:58.359,215.0,-882.0,727.0,259.0,199.0,1.0,138,115,101,133,131,492,411,468
2025-02-20 16:31:58.372,150.0,-731.0,678.0,175.0,201.0,-11.0,139,116,100,131,129,506,470,434
2025-02-20 16:31:58.397,95.0,-529.0,777.0,156.0,202.0,-30.0,138,117,97,129,122,529,488,443
2025-02-20 16:31:58.417,-59.0,-468.0,709.0,151.0,213.0,-44.0,138,116,95,126,108,524,487,450
2025-02-20 16:31:58.438,-129.0,-496.0,622.0,184.0,197.0,-61.0,138,114,91,122,95,501,485,451
2025-02-20 16:31:58.455,-147.0,-508.0,555.0,237.0,207.0,-72.0,138,108,86,118,84,507,463,458
2025-02-20 16:31:58.475,-154.0,-541.0,259.0,296.0,202.0,-81.0,139,99,83,117,76,503,451,460
2025-02-20 16:31:58.495,-214.0,-393.0,314.0,322.0,176.0,-100.0,137,88,76,117,67,443,480,460
2025-02-20 16:31:58.512,96.0,-738.0,400.0,357.0,120.0,-92.0,138,79,70,112,60,418,506,462
2025-02-20 16:31:58.531,422.0,-1217.0,839.0,382.0,77.0,-20.0,137,73,67,104,57,423,485,457
2025-02-20 16:31:58.549,1030.0,-1870.0,1184.0,338.0,57.0,162.0,138,67,62,93,55,425,459,448
2025-02-20 16:31:58.568,1536.0,-2161.0,1669.0,222.0,89.0,386.0,141,60,58,82,53,406,460,437
2025-02-20 16:31:58.589,1835.0,-1117.0,1821.0,54.0,107.0,601.0,143,58,55,73,52,412,481,433
2025-02-20 16:31:58.606,1541.0,385.0,1859.0,-193.0,106.0,650.0,144,57,53,69,51,444,461,458
2025-02-20 16:31:58.626,1012.0,876.0,1682.0,-224.0,128.0,516.0,145,58,54,66,52,475,425,473
2025-02-20 16:31:58.646,772.0,1533.0,1554.0,-128.0,222.0,347.0,146,56,53,69,54,466,417,479
2025-02-20 16:31:58.663,-65.0,2475.0,787.0,-135.0,210.0,248.0,148,57,54,70,53,484,423,470
2025-02-20 16:31:58.683,-667.0,3484.0,409.0,-166.0,108.0,81.0,149,56,52,68,54,480,432,470
2025-02-20 16:31:58.700,-508.0,2697.0,687.0,-67.0,70.0,-58.0,149,57,53,69,57,443,434,462
2025-02-20 16:31:58.720,-409.0,1856.0,782.0,61.0,53.0,-156.0,149,57,53,69,52,485,443,504
2025-02-20 16:31:58.741,-184.0,1207.0,806.0,109.0,67.0,-209.0,149,58,53,70,55,503,452,513
2025-02-20 16:31:58.757,-254.0,675.0,622.0,78.0,34.0,-246.0,149,57,53,70,56,455,449,497
2025-02-20 16:31:58.778,-214.0,242.0,533.0,53.0,-40.0,-274.0,149,57,53,69,56,420,447,478
2025-02-20 16:31:58.798,-73.0,-109.0,662.0,94.0,-80.0,-302.0,149,56,53,70,56,415,458,470
2025-02-20 16:31:58.815,115.0,-615.0,986.0,154.0,-65.0,-218.0,149,57,53,70,56,429,454,468
2025-02-20 16:31:58.835,-92.0,-221.0,1117.0,167.0,-36.0,-198.0,149,57,54,70,57,435,464,472
2025-02-20 16:31:58.855,-276.0,-39.0,1027.0,165.0,-36.0,-245.0,149,59,51,70,58,428,508,471
2025-02-20 16:31:58.873,-258.0,-307.0,814.0,166.0,-53.0,-254.0,149,56,51,71,58,444,505,461
2025-02-20 16:31:58.892,-135.0,-644.0,727.0,173.0,-90.0,-166.0,148,56,51,73,58,459,501,458
2025-02-20 16:31:58.912,164.0,-309.0,967.0,135.0,-102.0,-101.0,150,56,53,70,59,492,491,452
2025-02-20 16:31:58.930,113.0,-417.0,1169.0,64.0,-98.0,-100.0,149,57,52,71,59,505,474,456
2025-02-20 16:31:58.950,411.0,-1087.0,1267.0,56.0,-67.0,-14.0,149,56,53,72,60,514,469,457
2025-02-20 16:31:58.967,715.0,-1597.0,1516.0,71.0,-18.0,134.0,150,57,51,72,61,535,460,472
2025-02-20 16:31:58.987,1009.0,-1505.0,1695.0,4.0,32.0,329.0,148,57,51,72,61,527,451,506
2025-02-20 16:31:59.007,1358.0,-1417.0,1568.0,-126.0,74.0,512.0,149,55,52,72,60,564,477,519
2025-02-20 16:31:59.024,1318.0,-51.0,1596.0,-266.0,83.0,608.0,150,55,53,72,59,512,497,503
2025-02-20 16:31:59.044,752.0,1026.0,1530.0,-352.0,77.0,581.0,149,55,53,72,59,452,493,486
2025-02-20 16:31:59.064,190.0,2344.0,1413.0,-353.0,113.0,394.0,150,59,54,72,59,447,493,479
2025-02-20 16:31:59.081,103.0,1775.0,1445.0,-128.0,169.0,175.0,150,57,55,72,59,441,494,455
2025-02-20 16:31:59.101,-189.0,2000.0,1626.0,14.0,176.0,102.0,150,59,56,73,60,489,494,445
2025-02-20 16:31:59.121,-227.0,2130.0,1926.0,-6.0,196.0,-20.0,150,62,60,75,60,525,466,440
2025-02-20 16:31:59.139,-20.0,1313.0,1925.0,-113.0,267.0,-56.0,150,66,62,77,61,531,429,460
2025-02-20 16:31:59.159,-124.0,350.0,1573.0,-160.0,303.0,-69.0,148,68,65,78,60,512,423,492
2025-02-20 16:31:59.176,-255.0,-308.0,1220.0,-164.0,333.0,-68.0,148,72,67,78,60,442,410,465
2025-02-20 16:31:59.196,-328.0,-494.0,876.0,-137.0,323.0,-83.0,144,76,68,79,59,464,427,463
2025-02-20 16:31:59.216,-529.0,-482.0,400.0,-140.0,285.0,-63.0,145,80,71,78,59,447,440,463
2025-02-20 16:31:59.233,-456.0,-494.0,202.0,-167.0,252.0,-54.0,144,87,75,81,61,416,463,457
2025-02-20 16:31:59.253,-546.0,-542.0,-7.0,-119.0,231.0,-33.0,142,91,77,81,64,440,487,464
2025-02-20 16:31:59.271,-592.0,-154.0,38.0,-17.0,213.0,-8.0,144,92,80,80,68,490,483,496
2025-02-20 16:31:59.290,-566.0,238.0,-21.0,20.0,202.0,-11.0,142,95,82,84,68,439,466,526
2025-02-20 16:31:59.306,-570.0,518.0,-145.0,37.0,184.0,-40.0,142,97,84,87,69,541,463,506
2025-02-20 16:31:59.330,-642.0,618.0,-472.0,64.0,155.0,-79.0,141,99,86,92,71,552,471,506
2025-02-20 16:31:59.348,-815.0,907.0,-673.0,100.0,97.0,-151.0,140,100,89,95,73,517,487,488
2025-02-20 16:31:59.367,-946.0,1177.0,-928.0,126.0,-14.0,-246.0,140,103,91,96,73,429,492,466
2025-02-20 16:31:59.388,-1112.0,1396.0,-1216.0,155.0,-159.0,-422.0,134,105,94,95,72,417,480,446
2025-02-20 16:31:59.405,-704.0,1269.0,-1420.0,265.0,-380.0,-594.0,131,109,97,94,71,402,458,455
2025-02-20 16:31:59.424,211.0,1102.0,-1084.0,209.0,-632.0,-694.0,124,112,97,95,73,397,433,455
2025-02-20 16:31:59.441,2240.0,289.0,-515.0,29.0,-860.0,-611.0,117,117,99,97,77,360,405,447
2025-02-20 16:31:59.462,3486.0,-1874.0,1275.0,-183.0,-723.0,-389.0,118,122,100,97,78,380,433,450
2025-02-20 16:31:59.482,4037.0,-3491.0,2089.0,-105.0,-386.0,-51.0,115,124,101,99,77,495,481,438
2025-02-20 16:31:59.499,3237.0,-3423.0,2244.0,42.0,-1.0,50.0,115,125,102,99,71,533,555,417
2025-02-20 16:31:59.519,1613.0,-1979.0,1382.0,66.0,153.0,96.0,117,122,103,100,63,454,541,413
2025-02-20 16:31:59.539,520.0,-1421.0,933.0,-68.0,155.0,159.0,117,121,101,101,61,388,507,411
2025-02-20 16:31:59.556,170.0,-1216.0,480.0,-105.0,106.0,206.0,117,121,101,101,62,392,466,435
2025-02-20 16:31:59.574,174.0,-1066.0,648.0,-87.0,89.0,232.0,119,121,102,101,66,382,390,459
2025-02-20 16:31:59.596,170.0,-1072.0,847.0,7.0,157.0,233.0,122,123,102,99,70,472,402,470
2025-02-20 16:31:59.614,240.0,-890.0,736.0,72.0,231.0,232.0,124,125,104,95,70,511,460,477
2025-02-20 16:31:59.634,-20.0,-541.0,588.0,95.0,269.0,224.0,123,126,103,92,71,521,521,482
2025-02-20 16:31:59.650,-52.0,-226.0,516.0,38.0,276.0,226.0,125,125,102,91,73,398,490,493
2025-02-20 16:31:59.671,-130.0,-332.0,340.0,-7.0,264.0,249.0,126,124,103,93,72,390,479,492
2025-02-20 16:31:59.691,-66.0,-354.0,363.0,-42.0,274.0,277.0,127,124,103,93,70,432,513,485
2025-02-20 16:31:59.708,-343.0,-316.0,14.0,52.0,271.0,268.0,129,123,102,92,71,476,487,470
2025-02-20 16:31:59.725,-568.0,50.0,-70.0,129.0,235.0,211.0,131,121,103,95,69,498,512,456
2025-02-20 16:31:59.748,-592.0,430.0,-24.0,123.0,202.0,130.0,132,120,103,96,70,508,497,457
2025-02-20 16:31:59.766,-570.0,326.0,-7.0,99.0,175.0,75.0,132,119,104,98,70,500,447,460
2025-02-20 16:31:59.786,-594.0,342.0,-204.0,131.0,159.0,31.0,132,119,104,98,70,501,443,459
2025-02-20 16:31:59.806,-1003.0,1000.0,-1028.0,151.0,43.0,-12.0,130,120,105,97,69,511,456,448
2025-02-20 16:31:59.822,-1359.0,1278.0,-1987.0,149.0,-165.0,-148.0,127,119,103,91,66,502,435,440
2025-02-20 16:31:59.843,-1341.0,1360.0,-1913.0,219.0,-475.0,-388.0,120,121,104,85,65,500,426,430
2025-02-20 16:31:59.862,-649.0,1208.0,-1722.0,242.0,-838.0,-553.0,114,122,104,86,67,529,427,444
2025-02-20 16:31:59.880,2267.0,896.0,-860.0,98.0,-1193.0,-499.0,111,122,103,92,73,516,417,466
2025-02-20 16:31:59.900,5372.0,-2383.0,576.0,-129.0,-1139.0,-279.0,115,124,104,100,82,478,415,462
2025-02-20 16:31:59.917,4497.0,-3303.0,3788.0,136.0,-368.0,-4.0,119,125,106,107,92,554,442,464
2025-02-20 16:31:59.937,2369.0,-1667.0,3282.0,147.0,171.0,175.0,122,125,105,108,81,520,470,464
2025-02-20 16:31:59.948,434.0,58.0,2874.0,55.0,231.0,101.0,122,120,101,106,67,462,487,453
2025-02-20 16:31:59.974,-40.0,-353.0,1171.0,-35.0,181.0,37.0,128,117,98,108,67,427,501,450
2025-02-20 16:31:59.995,-61.0,-792.0,854.0,24.0,170.0,12.0,127,112,95,108,69,390,464,426
2025-02-20 16:32:00.014,112.0,-750.0,934.0,126.0,177.0,27.0,130,110,92,107,73,365,411,448
2025-02-20 16:32:00.032,152.0,-547.0,1043.0,186.0,200.0,3.0,133,109,87,105,78,413,406,469
2025-02-20 16:32:00.051,-8.0,-125.0,917.0,190.0,209.0,-32.0,132,106,83,105,79,480,496,479
2025-02-20 16:32:00.069,-242.0,-136.0,986.0,130.0,177.0,-46.0,130,97,77,103,80,539,492,502
2025-02-20 16:32:00.089,-161.0,-338.0,1008.0,153.0,185.0,-45.0,131,85,69,102,79,535,457,502
2025-02-20 16:32:00.108,-173.0,-321.0,755.0,183.0,170.0,-36.0,129,80,68,102,76,510,417,489
2025-02-20 16:32:00.126,-233.0,-239.0,623.0,194.0,138.0,-60.0,131,77,66,102,75,477,482,469
2025-02-20 16:32:00.146,-319.0,-248.0,534.0,178.0,91.0,-67.0,130,73,66,101,69,429,441,463
2025-02-20 16:32:00.166,-236.0,-331.0,566.0,185.0,28.0,-67.0,132,70,62,98,65,408,430,458
2025-02-20 16:32:00.183,-243.0,-412.0,511.0,202.0,-22.0,-65.0,131,69,61,95,65,407,477,457
2025-02-20 16:32:00.203,-29.0,-651.0,599.0,217.0,-60.0,-41.0,132,70,61,93,65,405,511,457
2025-02-20 16:32:00.223,101.0,-788.0,818.0,189.0,-87.0,15.0,132,69,56,92,66,430,518,452
2025-02-20 16:32:00.240,550.0,-1254.0,1200.0,142.0,-94.0,141.0,134,67,59,89,66,451,533,447
2025-02-20 16:32:00.261,1136.0,-1910.0,1529.0,103.0,-13.0,341.0,135,66,57,87,65,460,520,447
2025-02-20 16:32:00.281,1702.0,-1389.0,1468.0,47.0,54.0,552.0,139,64,56,84,62,485,482,476
2025-02-20 16:32:00.294,1550.0,-102.0,1688.0,-142.0,40.0,628.0,143,67,57,81,61,437,455,463
2025-02-20 16:32:00.318,1496.0,300.0,2182.0,-219.0,85.0,635.0,145,67,57,81,63,383,429,451
2025-02-20 16:32:00.335,708.0,1881.0,1850.0,-188.0,206.0,408.0,146,69,57,79,65,367,433,445
2025-02-20 16:32:00.354,258.0,2107.0,577.0,-89.0,186.0,247.0,147,67,58,78,62,384,439,435
2025-02-20 16:32:00.375,-359.0,2630.0,421.0,-23.0,80.0,110.0,151,65,57,78,61,396,450,419
2025-02-20 16:32:00.392,-293.0,2719.0,691.0,-39.0,32.0,-8.0,149,67,57,77,60,412,447,419
2025-02-20 16:32:00.412,-515.0,1765.0,675.0,-43.0,28.0,-97.0,149,68,58,79,62,459,445,445
2025-02-20 16:32:00.432,-173.0,1215.0,769.0,-10.0,13.0,-150.0,147,70,58,78,62,509,422,497
2025-02-20 16:32:00.449,-32.0,636.0,879.0,39.0,-4.0,-186.0,149,68,57,79,61,517,424,519
2025-02-20 16:32:00.469,36.0,488.0,1001.0,50.0,-14.0,-208.0,149,68,58,79,62,514,421,523
2025-02-20 16:32:00.486,92.0,256.0,1237.0,43.0,-7.0,-233.0,150,68,57,79,62,493,418,512
2025-02-20 16:32:00.506,16.0,37.0,1212.0,63.0,12.0,-275.0,149,67,58,80,61,490,444,495
2025-02-20 16:32:00.526,99.0,-434.0,1130.0,158.0,28.0,-272.0,150,67,57,78,63,457,465,473
2025-02-20 16:32:00.544,-112.0,-235.0,943.0,205.0,24.0,-236.0,149,66,58,78,62,449,488,450
2025-02-20 16:32:00.561,-229.0,73.0,869.0,168.0,1.0,-239.0,149,65,58,78,62,452,503,449
2025-02-20 16:32:00.583,-180.0,-23.0,844.0,138.0,-11.0,-249.0,149,66,58,77,63,444,494,447
2025-02-20 16:32:00.601,-228.0,-214.0,785.0,138.0,-39.0,-233.0,149,65,58,78,64,449,481,450
2025-02-20 16:32:00.621,-94.0,-518.0,791.0,128.0,-56.0,-148.0,148,66,58,78,64,464,485,455
2025-02-20 16:32:00.640,7.0,-515.0,848.0,97.0,-74.0,-74.0,150,66,57,79,64,488,477,462
2025-02-20 16:32:00.658,341.0,-1146.0,1035.0,58.0,-92.0,0.0,148,67,58,78,66,534,448,476
2025-02-20 16:32:00.678,869.0,-2209.0,1358.0,66.0,-73.0,203.0,148,65,56,79,65,555,435,510
2025-02-20 16:32:00.699,1583.0,-2266.0,1662.0,40.0,21.0,455.0,150,68,57,79,63,534,447,514
2025-02-20 16:32:00.715,1573.0,-575.0,1860.0,-159.0,57.0,598.0,150,68,56,77,62,506,480,494
2025-02-20 16:32:00.735,1169.0,414.0,1765.0,-334.0,79.0,604.0,149,69,56,77,61,453,492,476
2025-02-20 16:32:00.749,750.0,1271.0,1542.0,-271.0,135.0,507.0,149,68,57,76,62,389,484,466
2025-02-20 16:32:00.772,82.0,2609.0,906.0,-100.0,136.0,240.0,150,69,59,76,61,395,482,466
2025-02-20 16:32:00.793,-180.0,2792.0,1073.0,-68.0,85.0,124.0,150,69,56,77,60,434,481,468
2025-02-20 16:32:00.810,-183.0,2481.0,1581.0,-124.0,66.0,11.0,150,69,58,83,63,454,473,466
2025-02-20 16:32:00.829,163.0,1265.0,1779.0,-147.0,122.0,-57.0,151,71,59,78,65,462,441,460
2025-02-20 16:32:00.849,340.0,97.0,1843.0,-119.0,221.0,-53.0,153,73,61,77,65,553,443,503
2025-02-20 16:32:00.867,129.0,-351.0,1575.0,-115.0,276.0,-29.0,152,74,62,77,65,556,462,509
2025-02-20 16:32:00.887,85.0,-587.0,1412.0,-137.0,293.0,-2.0,151,73,63,78,66,530,467,491
2025-02-20 16:32:00.906,-55.0,-588.0,1158.0,-157.0,307.0,5.0,151,74,64,80,66,506,450,474
2025-02-20 16:32:00.924,-168.0,-639.0,839.0,-114.0,353.0,6.0,151,78,67,83,69,479,437,466
2025-02-20 16:32:00.944,-383.0,-262.0,491.0,-43.0,350.0,-3.0,150,80,72,86,71,419,480,451
2025-02-20 16:32:00.961,-561.0,-13.0,335.0,-54.0,309.0,-2.0,150,84,74,91,73,421,488,448
2025-02-20 16:32:00.982,-542.0,107.0,171.0,14.0,302.0,-21.0,150,85,76,96,76,449,488,459
2025-02-20 16:32:01.002,-503.0,475.0,171.0,25.0,295.0,-48.0,148,84,76,99,77,501,493,491
2025-02-20 16:32:01.018,-439.0,533.0,83.0,31.0,294.0,-63.0,147,84,76,101,76,542,514,503
2025-02-20 16:32:01.039,-692.0,873.0,-370.0,49.0,263.0,-101.0,146,79,74,103,77,543,507,486
2025-02-20 16:32:01.059,-443.0,1159.0,-730.0,102.0,178.0,-145.0,145,74,72,103,76,553,495,472
2025-02-20 16:32:01.076,-523.0,1299.0,-1178.0,81.0,115.0,-246.0,143,65,66,102,72,518,476,460
2025-02-20 16:32:01.095,-590.0,1623.0,-1558.0,71.0,-43.0,-446.0,139,57,58,95,66,471,458,446
2025-02-20 16:32:01.117,-622.0,1098.0,-2040.0,52.0,-245.0,-619.0,129,55,53,82,58,413,439,440
2025-02-20 16:32:01.133,-213.0,-76.0,-2265.0,104.0,-473.0,-691.0,121,56,51,79,56,375,431,441
2025-02-20 16:32:01.153,1841.0,-673.0,-2176.0,507.0,-1031.0,-584.0,114,55,50,78,58,391,395,453
2025-02-20 16:32:01.174,5633.0,-2021.0,3793.0,313.0,-798.0,-144.0,113,57,53,79,63,390,379,479
2025-02-20 16:32:01.191,4233.0,-3061.0,4657.0,171.0,-67.0,64.0,106,57,57,81,60,502,466,473
2025-02-20 16:32:01.211,1411.0,-1791.0,3181.0,95.0,209.0,43.0,101,52,53,67,52,397,558,435
2025-02-20 16:32:01.227,-154.0,-680.0,1819.0,-99.0,141.0,102.0,97,50,54,66,51,349,566,434
2025-02-20 16:32:01.247,-116.0,-963.0,1051.0,-266.0,104.0,96.0,98,50,55,70,52,338,488,422
2025-02-20 16:32:01.268,14.0,-1595.0,782.0,-211.0,83.0,118.0,98,52,54,73,54,384,418,421
2025-02-20 16:32:01.283,42.0,-1404.0,737.0,-94.0,134.0,156.0,100,54,55,75,56,402,358,459
2025-02-20 16:32:01.305,-100.0,-871.0,616.0,-35.0,170.0,184.0,102,55,56,74,58,434,393,484
2025-02-20 16:32:01.324,-191.0,-370.0,550.0,-45.0,182.0,180.0,103,56,60,74,59,448,468,494
2025-02-20 16:32:01.342,-356.0,-355.0,365.0,-90.0,164.0,172.0,106,56,57,75,60,483,479,492
2025-02-20 16:32:01.362,-471.0,-420.0,281.0,-112.0,103.0,169.0,109,57,56,75,61,449,439,482
2025-02-20 16:32:01.383,-307.0,-396.0,400.0,-94.0,88.0,164.0,112,57,58,73,61,443,459,469
2025-02-20 16:32:01.397,-224.0,-281.0,414.0,-86.0,118.0,152.0,112,57,57,73,60,397,450,481
2025-02-20 16:32:01.419,-332.0,-256.0,368.0,-72.0,139.0,146.0,114,55,58,74,61,445,453,477
2025-02-20 16:32:01.434,-618.0,-108.0,136.0,-61.0,119.0,126.0,117,56,58,74,61,483,478,466
2025-02-20 16:32:01.457,-559.0,5.0,186.0,-45.0,73.0,130.0,118,56,59,73,60,481,504,459
2025-02-20 16:32:01.477,-497.0,62.0,122.0,-7.0,72.0,149.0,118,55,58,74,60,497,558,462
2025-02-20 16:32:01.494,-685.0,639.0,-158.0,51.0,83.0,134.0,115,57,59,75,61,540,537,452
2025-02-20 16:32:01.514,-1097.0,1618.0,-1039.0,152.0,31.0,-19.0,115,55,59,74,60,540,499,441
2025-02-20 16:32:01.534,-1749.0,2513.0,-1866.0,268.0,-112.0,-371.0,108,56,57,72,57,573,471,425
2025-02-20 16:32:01.550,-1312.0,2157.0,-2236.0,302.0,-534.0,-613.0,106,56,56,70,58,563,440,444
2025-02-20 16:32:01.571,1231.0,791.0,-1323.0,211.0,-923.0,-633.0,109,56,56,71,61,509,406,474
2025-02-20 16:32:01.591,4715.0,-1853.0,806.0,151.0,-1017.0,-383.0,115,58,56,74,65,504,387,481
2025-02-20 16:32:01.609,4330.0,-3686.0,3720.0,115.0,-478.0,-47.0,120,59,56,76,67,531,396,486
2025-02-20 16:32:01.629,2810.0,-2230.0,3377.0,104.0,73.0,17.0,122,57,58,74,62,550,476,454
2025-02-20 16:32:01.649,1008.0,-1538.0,1793.0,-1.0,209.0,27.0,123,56,57,74,55,479,549,441
2025-02-20 16:32:01.666,477.0,-1504.0,853.0,-3.0,162.0,117.0,123,55,57,74,54,425,576,439
2025-02-20 16:32:01.686,36.0,-1131.0,569.0,5.0,78.0,164.0,125,53,57,75,58,430,535,435
2025-02-20 16:32:01.703,14.0,-736.0,694.0,17.0,48.0,172.0,124,56,58,75,60,282,453,398
2025-02-20 16:32:01.723,96.0,-775.0,883.0,46.0,60.0,175.0,126,60,57,77,65,380,395,473
2025-02-20 16:32:01.743,62.0,-864.0,645.0,96.0,98.0,187.0,129,61,57,75,68,444,432,495
2025-02-20 16:32:01.761,-64.0,-651.0,667.0,135.0,89.0,198.0,130,61,55,74,70,523,463,512
2025-02-20 16:32:01.780,-163.0,-252.0,612.0,102.0,54.0,205.0,130,61,57,76,71,547,471,506
2025-02-20 16:32:01.800,-86.0,-120.0,710.0,52.0,36.0,200.0,130,61,58,77,71,517,416,489
2025-02-20 16:32:01.816,-118.0,-25.0,802.0,-2.0,68.0,190.0,132,60,57,77,70,495,429,474
2025-02-20 16:32:01.835,-222.0,-33.0,661.0,2.0,74.0,168.0,133,57,58,80,69,429,473,471
2025-02-20 16:32:01.852,-417.0,52.0,527.0,36.0,28.0,138.0,133,60,59,82,70,418,450,455
2025-02-20 16:32:01.874,-396.0,273.0,601.0,80.0,6.0,111.0,134,60,59,83,72,455,482,458
2025-02-20 16:32:01.895,-471.0,687.0,695.0,121.0,-2.0,58.0,135,62,59,86,73,474,500,463
2025-02-20 16:32:01.912,-811.0,1322.0,854.0,237.0,-5.0,-34.0,136,62,59,88,79,482,511,464
2025-02-20 16:32:01.932,-1271.0,2266.0,535.0,316.0,0.0,-261.0,137,63,60,91,98,482,485,461
2025-02-20 16:32:01.952,-1313.0,2720.0,277.0,387.0,-66.0,-502.0,138,64,61,96,108,481,439,457
2025-02-20 16:32:01.969,-410.0,2162.0,189.0,402.0,-189.0,-651.0,138,66,58,97,113,462,417,454
2025-02-20 16:32:01.989,1415.0,-153.0,811.0,459.0,-322.0,-646.0,139,65,60,103,114,463,422,471
2025-02-20 16:32:02.009,2390.0,-1221.0,1805.0,566.0,-300.0,-424.0,141,65,62,108,114,445,431,482
2025-02-20 16:32:02.026,2364.0,-370.0,3002.0,369.0,-195.0,-146.0,143,67,65,110,115,458,437,470
2025-02-20 16:32:02.047,2182.0,-379.0,3339.0,-72.0,-2.0,23.0,145,68,66,111,118,417,441,430
2025-02-20 16:32:02.063,1585.0,-793.0,1963.0,-237.0,105.0,156.0,145,68,66,111,117,386,431,428
2025-02-20 16:32:02.084,594.0,-575.0,1168.0,-153.0,109.0,194.0,142,66,64,110,119,453,437,450
2025-02-20 16:32:02.103,193.0,-379.0,1023.0,-42.0,90.0,203.0,141,68,65,109,119,419,437,451
2025-02-20 16:32:02.118,-21.0,84.0,1192.0,-21.0,119.0,236.0,141,69,66,109,118,391,419,436
2025-02-20 16:32:02.137,-64.0,360.0,1045.0,-90.0,154.0,270.0,141,70,67,108,118,389,408,433
2025-02-20 16:32:02.161,-145.0,579.0,892.0,-142.0,141.0,254.0,139,68,66,106,118,392,452,429
2025-02-20 16:32:02.178,-135.0,379.0,794.0,-112.0,103.0,232.0,142,69,66,105,119,396,454,437
2025-02-20 16:32:02.198,-45.0,265.0,785.0,-58.0,84.0,234.0,142,69,65,104,119,400,455,457
2025-02-20 16:32:02.218,-65.0,477.0,843.0,-24.0,85.0,206.0,141,69,65,101,119,395,471,470
2025-02-20 16:32:02.233,-209.0,668.0,824.0,-17.0,87.0,177.0,142,67,67,99,120,410,490,470
2025-02-20 16:32:02.253,-406.0,918.0,723.0,-35.0,53.0,132.0,141,68,67,101,119,430,494,460
2025-02-20 16:32:02.276,-443.0,853.0,714.0,-37.0,27.0,78.0,142,68,67,99,120,446,483,455
2025-02-20 16:32:02.292,-371.0,677.0,728.0,6.0,24.0,26.0,142,68,67,98,121,466,475,456
2025-02-20 16:32:02.313,-486.0,1063.0,690.0,68.0,33.0,-2.0,142,68,67,95,121,479,473,464
2025-02-20 16:32:02.330,-799.0,2013.0,600.0,98.0,51.0,-151.0,141,70,67,95,118,481,454,464
2025-02-20 16:32:02.350,-1129.0,2749.0,183.0,119.0,3.0,-362.0,142,68,67,92,123,470,434,462
2025-02-20 16:32:02.370,-838.0,2253.0,-75.0,103.0,-96.0,-488.0,139,70,68,99,121,481,427,473
2025-02-20 16:32:02.387,32.0,926.0,-96.0,134.0,-255.0,-559.0,139,69,67,101,125,479,428,476
2025-02-20 16:32:02.407,976.0,-748.0,340.0,335.0,-375.0,-452.0,140,68,64,106,123,500,438,495
2025-02-20 16:32:02.427,1791.0,-824.0,1154.0,386.0,-457.0,-209.0,141,68,65,109,122,524,471,496
2025-02-20 16:32:02.444,2295.0,-463.0,2725.0,130.0,-346.0,5.0,143,70,66,110,122,474,482,474
2025-02-20 16:32:02.464,2070.0,-639.0,2985.0,-187.0,-148.0,163.0,144,71,66,114,122,446,489,467
2025-02-20 16:32:02.484,1446.0,-458.0,2168.0,-283.0,28.0,213.0,144,70,66,111,120,432,451,494
2025-02-20 16:32:02.501,870.0,-345.0,1662.0,-216.0,100.0,221.0,143,70,68,110,114,437,445,482
2025-02-20 16:32:02.520,575.0,-157.0,1758.0,-172.0,185.0,246.0,143,70,67,109,108,452,437,482
2025-02-20 16:32:02.542,491.0,160.0,1797.0,-223.0,281.0,274.0,142,70,68,110,100,439,422,465
2025-02-20 16:32:02.559,437.0,596.0,1519.0,-314.0,352.0,285.0,143,70,69,110,100,456,422,449
2025-02-20 16:32:02.577,101.0,457.0,1311.0,-329.0,391.0,284.0,143,69,66,106,104,445,437,448
2025-02-20 16:32:02.596,355.0,213.0,1136.0,-280.0,417.0,279.0,140,66,61,99,105,428,473,466
2025-02-20 16:32:02.616,248.0,146.0,824.0,-182.0,472.0,263.0,140,64,60,95,105,405,494,477
2025-02-20 16:32:02.635,101.0,227.0,386.0,-110.0,493.0,227.0,139,62,60,96,104,405,465,484
2025-02-20 16:32:02.652,-679.0,630.0,-419.0,-65.0,362.0,179.0,139,61,63,100,105,417,485,483
2025-02-20 16:32:02.673,-1142.0,764.0,-572.0,-36.0,150.0,136.0,138,65,68,109,107,430,504,472
2025-02-20 16:32:02.694,-1052.0,232.0,16.0,-58.0,149.0,46.0,137,70,70,113,108,422,515,471
2025-02-20 16:32:02.710,-414.0,-84.0,206.0,14.0,141.0,19.0,138,76,73,114,108,439,502,460
2025-02-20 16:32:02.731,-603.0,422.0,-191.0,31.0,106.0,-9.0,139,82,76,116,110,473,472,450
2025-02-20 16:32:02.750,-1072.0,138.0,-167.0,-37.0,-3.0,-18.0,136,87,79,117,114,504,449,467
2025-02-20 16:32:02.768,-968.0,406.0,-242.0,0.0,-39.0,-22.0,137,91,83,119,117,481,423,470
2025-02-20 16:32:02.787,-559.0,550.0,-269.0,35.0,-94.0,-36.0,134,95,84,121,120,462,400,467
2025-02-20 16:32:02.808,-553.0,970.0,-471.0,-4.0,-133.0,-123.0,133,95,87,123,124,438,410,451
2025-02-20 16:32:02.824,-985.0,1491.0,-1042.0,-39.0,-214.0,-292.0,131,97,88,124,128,411,423,449
2025-02-20 16:32:02.845,-1536.0,1079.0,-1163.0,-78.0,-407.0,-449.0,131,102,90,125,132,396,451,457
2025-02-20 16:32:02.865,-536.0,991.0,-1061.0,-111.0,-599.0,-625.0,132,102,93,127,133,372,466,457
2025-02-20 16:32:02.882,1281.0,411.0,-1153.0,-127.0,-775.0,-680.0,130,108,96,129,134,373,460,443
2025-02-20 16:32:02.902,3593.0,-1250.0,95.0,-161.0,-967.0,-477.0,125,115,101,131,135,455,425,450
2025-02-20 16:32:02.919,3502.0,-3098.0,1636.0,-334.0,-751.0,-133.0,125,120,104,131,135,508,443,460
2025-02-20 16:32:02.939,3238.0,-4001.0,1746.0,-149.0,-213.0,129.0,126,122,104,133,135,599,507,471
2025-02-20 16:32:02.956,2712.0,-2889.0,1292.0,-63.0,-24.0,151.0,130,120,104,133,135,575,545,463
2025-02-20 16:32:02.976,1179.0,-1789.0,943.0,16.0,166.0,116.0,130,118,104,134,135,504,517,455
2025-02-20 16:32:02.997,277.0,-1014.0,730.0,33.0,203.0,174.0,132,116,103,133,135,457,510,437
2025-02-20 16:32:03.016,87.0,-868.0,580.0,44.0,111.0,235.0,131,115,103,133,135,300,473,436
2025-02-20 16:32:03.034,112.0,-776.0,740.0,80.0,127.0,232.0,133,115,104,132,134,332,416,425
2025-02-20 16:32:03.045,128.0,-1117.0,361.0,114.0,173.0,194.0,131,116,103,133,133,447,422,466
2025-02-20 16:32:03.070,151.0,-839.0,788.0,164.0,231.0,161.0,130,117,104,133,135,478,474,461
2025-02-20 16:32:03.090,97.0,-631.0,730.0,144.0,300.0,145.0,130,117,105,134,136,524,496,478
2025-02-20 16:32:03.111,-84.0,-470.0,584.0,55.0,212.0,169.0,130,119,105,134,135,522,438,477
2025-02-20 16:32:03.126,-202.0,-395.0,542.0,34.0,194.0,168.0,130,118,104,133,137,521,432,478
2025-02-20 16:32:03.148,-173.0,-258.0,306.0,17.0,164.0,165.0,130,118,104,134,135,523,429,486
2025-02-20 16:32:03.168,-199.0,36.0,427.0,-52.0,153.0,159.0,131,116,104,136,136,544,434,469
2025-02-20 16:32:03.185,-371.0,-64.0,373.0,-85.0,130.0,138.0,130,113,104,133,136,493,413,459
2025-02-20 16:32:03.205,-499.0,-190.0,337.0,-27.0,132.0,118.0,129,111,103,133,136,460,416,461
2025-02-20 16:32:03.225,-488.0,-86.0,270.0,36.0,118.0,92.0,129,109,103,133,135,436,457,464
2025-02-20 16:32:03.242,-459.0,227.0,213.0,84.0,125.0,63.0,128,108,102,133,136,436,452,461
2025-02-20 16:32:03.263,-646.0,518.0,208.0,101.0,130.0,20.0,127,108,102,132,135,423,453,455
2025-02-20 16:32:03.282,-969.0,1044.0,-191.0,157.0,116.0,-81.0,126,108,102,133,137,455,487,455
2025-02-20 16:32:03.300,-1305.0,1104.0,-777.0,234.0,35.0,-240.0,125,107,103,132,137,480,482,460
2025-02-20 16:32:03.320,-1356.0,1216.0,-1128.0,199.0,-169.0,-513.0,125,109,103,132,137,498,457,462
2025-02-20 16:32:03.337,-453.0,953.0,-828.0,80.0,-430.0,-692.0,123,113,104,133,137,471,436,464
2025-02-20 16:32:03.358,1204.0,18.0,-381.0,-81.0,-719.0,-669.0,116,117,104,133,137,369,444,472
2025-02-20 16:32:03.378,2922.0,-1965.0,957.0,-88.0,-872.0,-399.0,112,120,106,134,138,380,491,480
2025-02-20 16:32:03.394,3264.0,-2675.0,1299.0,-119.0,-637.0,-122.0,113,122,108,134,137,484,541,463
2025-02-20 16:32:03.415,3324.0,-3562.0,1358.0,-176.0,-276.0,160.0,114,122,108,131,138,557,611,477
2025-02-20 16:32:03.434,2698.0,-2516.0,1225.0,-98.0,-48.0,159.0,118,123,108,134,138,563,601,478
2025-02-20 16:32:03.451,1166.0,-2012.0,691.0,-13.0,181.0,136.0,121,114,106,134,138,562,570,466
2025-02-20 16:32:03.471,44.0,-648.0,648.0,79.0,251.0,204.0,125,111,103,135,138,561,500,453
2025-02-20 16:32:03.492,-189.0,-792.0,520.0,160.0,155.0,212.0,125,109,103,133,135,464,425,454
2025-02-20 16:32:03.508,-135.0,-699.0,458.0,179.0,167.0,167.0,126,109,102,134,136,415,385,453
2025-02-20 16:32:03.528,-74.0,-839.0,560.0,198.0,171.0,116.0,125,108,101,136,135,420,378,474
2025-02-20 16:32:03.546,163.0,-845.0,319.0,239.0,229.0,100.0,125,108,101,132,136,430,443,457
2025-02-20 16:32:03.566,77.0,-853.0,366.0,197.0,250.0,146.0,126,110,99,134,135,461,474,455
2025-02-20 16:32:03.585,151.0,-846.0,435.0,204.0,255.0,197.0,125,110,96,128,134,482,425,472
2025-02-20 16:32:03.602,73.0,-719.0,296.0,225.0,169.0,244.0,126,105,92,122,131,475,396,477
2025-02-20 16:32:03.623,-34.0,-558.0,206.0,178.0,148.0,296.0,127,100,88,115,125,478,479,471
2025-02-20 16:32:03.644,18.0,-339.0,285.0,197.0,126.0,341.0,129,89,86,114,119,527,479,475
2025-02-20 16:32:03.658,-247.0,-10.0,125.0,206.0,53.0,335.0,132,80,87,119,113,546,443,482
2025-02-20 16:32:03.681,-292.0,611.0,179.0,188.0,-61.0,277.0,132,77,84,120,108,506,435,485
2025-02-20 16:32:03.700,-515.0,1150.0,353.0,152.0,-115.0,179.0,132,77,83,118,107,437,457,488
2025-02-20 16:32:03.718,-730.0,2257.0,773.0,160.0,-76.0,-30.0,136,77,83,114,114,420,482,474
2025-02-20 16:32:03.737,-1318.0,2847.0,197.0,317.0,-22.0,-290.0,132,78,76,105,122,453,502,452
2025-02-20 16:32:03.754,-1118.0,2658.0,-201.0,413.0,-124.0,-516.0,130,71,70,99,123,476,496,449
2025-02-20 16:32:03.775,-273.0,1589.0,226.0,410.0,-386.0,-570.0,130,66,66,102,124,484,516,459
2025-02-20 16:32:03.792,1319.0,425.0,791.0,377.0,-579.0,-508.0,132,66,66,108,125,460,513,470
2025-02-20 16:32:03.812,2221.0,-1008.0,1944.0,302.0,-515.0,-255.0,135,68,70,116,125,453,469,458
2025-02-20 16:32:03.832,2379.0,-1119.0,3145.0,163.0,-254.0,-2.0,138,71,75,119,126,461,429,453
2025-02-20 16:32:03.852,1899.0,-87.0,3148.0,-137.0,-8.0,87.0,138,71,77,121,126,432,431,474
2025-02-20 16:32:03.869,1171.0,-463.0,1986.0,-253.0,158.0,124.0,138,72,76,121,127,424,425,480
2025-02-20 16:32:03.890,533.0,-465.0,1074.0,-124.0,184.0,144.0,137,73,75,119,127,415,483,446
2025-02-20 16:32:03.907,85.0,-237.0,948.0,-3.0,170.0,158.0,139,73,76,119,127,414,484,418
2025-02-20 16:32:03.926,-40.0,-51.0,953.0,8.0,188.0,195.0,137,73,76,119,130,418,415,418
2025-02-20 16:32:03.947,-113.0,567.0,857.0,-79.0,195.0,222.0,137,73,75,116,130,392,383,428
2025-02-20 16:32:03.961,-294.0,524.0,714.0,-121.0,162.0,209.0,136,74,76,113,132,406,405,442
2025-02-20 16:32:03.984,-304.0,330.0,605.0,-99.0,136.0,213.0,137,73,76,111,132,435,466,461
2025-02-20 16:32:04.004,-164.0,196.0,519.0,-50.0,111.0,244.0,137,74,77,112,132,446,450,473
2025-02-20 16:32:04.020,-251.0,354.0,514.0,-66.0,65.0,246.0,137,73,77,112,130,470,526,484
2025-02-20 16:32:04.042,-358.0,689.0,655.0,-58.0,45.0,165.0,137,74,77,111,131,488,516,493
2025-02-20 16:32:04.058,-268.0,536.0,768.0,22.0,87.0,123.0,138,74,77,109,131,517,506,493
2025-02-20 16:32:04.076,-489.0,845.0,648.0,64.0,96.0,94.0,137,75,78,108,132,536,501,499
2025-02-20 16:32:04.098,-518.0,1203.0,454.0,74.0,61.0,62.0,135,75,77,106,133,518,500,488
2025-02-20 16:32:04.118,-813.0,2456.0,398.0,49.0,57.0,-75.0,137,75,78,103,133,489,477,480
2025-02-20 16:32:04.136,-1118.0,3197.0,-165.0,67.0,64.0,-350.0,137,76,78,103,135,487,457,466
2025-02-20 16:32:04.156,-1143.0,2538.0,-562.0,141.0,-80.0,-574.0,137,76,76,104,135,485,455,462
2025-02-20 16:32:04.176,-118.0,1492.0,-564.0,166.0,-426.0,-640.0,134,74,73,111,136,458,462,470
2025-02-20 16:32:04.192,1695.0,-150.0,435.0,154.0,-661.0,-526.0,137,74,73,113,134,508,454,487
2025-02-20 16:32:04.213,2895.0,-2430.0,2212.0,138.0,-563.0,-154.0,139,74,77,118,135,579,455,490
2025-02-20 16:32:04.229,2724.0,-1205.0,3158.0,-78.0,-224.0,93.0,141,78,81,121,134,578,457,484
2025-02-20 16:32:04.250,1909.0,-624.0,2810.0,-279.0,-20.0,129.0,142,77,80,123,135,567,453,502
2025-02-20 16:32:04.270,1059.0,-867.0,1899.0,-228.0,141.0,130.0,141,78,80,123,132,521,496,507
2025-02-20 16:32:04.287,536.0,-674.0,1418.0,-52.0,218.0,120.0,142,76,80,122,128,464,494,490
2025-02-20 16:32:04.307,114.0,-65.0,1416.0,-29.0,247.0,139.0,142,77,81,124,118,394,487,436
2025-02-20 16:32:04.326,-32.0,231.0,1416.0,-129.0,258.0,164.0,141,77,80,124,106,385,429,411
2025-02-20 16:32:04.344,-229.0,319.0,1142.0,-201.0,250.0,167.0,143,79,82,120,95,412,427,411
2025-02-20 16:32:04.364,-387.0,124.0,1141.0,-205.0,245.0,174.0,142,83,83,111,85,432,463,437
2025-02-20 16:32:04.382,-97.0,-59.0,962.0,-188.0,251.0,178.0,141,89,86,104,76,479,492,470
2025-02-20 16:32:04.402,18.0,-242.0,866.0,-127.0,303.0,191.0,140,93,88,101,72,495,506,499
2025-02-20 16:32:04.422,-212.0,-192.0,729.0,-94.0,345.0,193.0,140,96,88,99,66,439,452,489
2025-02-20 16:32:04.439,-461.0,459.0,447.0,-99.0,344.0,181.0,140,98,91,98,61,389,447,462
2025-02-20 16:32:04.459,-821.0,572.0,98.0,-132.0,293.0,144.0,137,99,91,95,57,420,480,465
2025-02-20 16:32:04.479,-669.0,640.0,-230.0,-102.0,250.0,67.0,138,101,92,89,55,486,538,479
2025-02-20 16:32:04.496,-623.0,685.0,-509.0,-21.0,200.0,-19.0,135,103,93,86,57,470,519,492
2025-02-20 16:32:04.517,-966.0,1308.0,-1299.0,-31.0,86.0,-141.0,137,103,93,82,58,494,467,508
2025-02-20 16:32:04.536,-1282.0,1425.0,-1931.0,-53.0,-161.0,-311.0,137,106,93,80,55,484,439,509
2025-02-20 16:32:04.553,-1074.0,1179.0,-2169.0,87.0,-406.0,-453.0,134,110,96,80,55,451,418,496
2025-02-20 16:32:04.573,-404.0,1317.0,-1750.0,106.0,-731.0,-579.0,133,114,98,84,54,441,417,477
2025-02-20 16:32:04.591,1678.0,1219.0,-1421.0,-53.0,-1008.0,-561.0,132,119,101,85,59,441,436,456
2025-02-20 16:32:04.611,3855.0,-2408.0,633.0,-98.0,-1077.0,-354.0,133,125,102,90,62,465,420,454
2025-02-20 16:32:04.630,3905.0,-2215.0,2234.0,-19.0,-600.0,-117.0,134,124,103,85,63,478,446,450
2025-02-20 16:32:04.648,3378.0,-2669.0,2999.0,26.0,-157.0,49.0,136,128,105,85,61,499,525,440
2025-02-20 16:32:04.668,1978.0,-1724.0,2293.0,26.0,150.0,103.0,135,128,106,86,57,482,567,435
2025-02-20 16:32:04.688,858.0,-1105.0,1445.0,-23.0,177.0,110.0,136,125,106,84,56,461,497,430
2025-02-20 16:32:04.705,273.0,-872.0,1160.0,-96.0,143.0,136.0,137,123,105,87,58,343,482,396
2025-02-20 16:32:04.725,241.0,-988.0,912.0,-89.0,127.0,154.0,136,126,103,88,61,424,456,431
2025-02-20 16:32:04.746,164.0,-921.0,975.0,-18.0,138.0,144.0,135,126,105,85,66,480,373,448
2025-02-20 16:32:04.762,229.0,-698.0,1005.0,5.0,193.0,127.0,135,128,106,85,69,492,356,456
2025-02-20 16:32:04.782,204.0,-641.0,859.0,12.0,236.0,125.0,136,127,107,83,71,551,446,465
2025-02-20 16:32:04.803,18.0,-590.0,676.0,28.0,248.0,144.0,138,129,107,83,72,558,457,476
2025-02-20 16:32:04.819,-72.0,-386.0,545.0,13.0,227.0,162.0,137,128,107,85,72,550,475,475
2025-02-20 16:32:04.839,-23.0,-191.0,657.0,-14.0,235.0,175.0,137,129,107,85,70,477,532,462
2025-02-20 16:32:04.857,0.0,-265.0,698.0,-19.0,286.0,187.0,138,128,108,86,68,349,526,452
2025-02-20 16:32:04.877,-148.0,-311.0,432.0,18.0,306.0,211.0,138,127,108,86,66,361,475,459
2025-02-20 16:32:04.897,-511.0,-105.0,171.0,44.0,262.0,209.0,139,125,107,87,66,357,443,466
2025-02-20 16:32:04.914,-582.0,52.0,62.0,51.0,197.0,168.0,137,125,108,86,67,346,430,469
2025-02-20 16:32:04.935,-597.0,258.0,-36.0,74.0,152.0,119.0,139,126,104,87,68,406,432,456
2025-02-20 16:32:04.955,-650.0,652.0,-265.0,78.0,137.0,87.0,137,125,108,87,69,477,436,436
2025-02-20 16:32:04.972,-1530.0,1454.0,-1227.0,51.0,4.0,-91.0,138,126,107,84,68,499,427,431
2025-02-20 16:32:04.990,-1948.0,1757.0,-1859.0,136.0,-274.0,-358.0,138,127,108,81,64,480,442,441
2025-02-20 16:32:05.012,-1082.0,1869.0,-1436.0,102.0,-573.0,-631.0,136,128,107,82,66,442,460,454
2025-02-20 16:32:05.028,1302.0,1070.0,-1099.0,-79.0,-939.0,-663.0,136,129,109,83,72,413,419,466
2025-02-20 16:32:05.049,4166.0,-1484.0,102.0,-81.0,-1008.0,-483.0,136,127,109,86,75,471,386,462
2025-02-20 16:32:05.069,4127.0,-3396.0,2061.0,93.0,-430.0,-152.0,138,129,108,88,77,569,408,466
2025-02-20 16:32:05.086,3130.0,-2864.0,2157.0,203.0,7.0,98.0,138,130,108,92,72,561,507,466
2025-02-20 16:32:05.106,1386.0,-949.0,1827.0,145.0,138.0,136.0,139,124,107,95,63,516,547,464
2025-02-20 16:32:05.123,526.0,-635.0,1361.0,54.0,126.0,111.0,139,121,107,97,62,493,576,457
2025-02-20 16:32:05.143,244.0,-703.0,894.0,21.0,91.0,83.0,140,119,106,96,63,399,560,443
2025-02-20 16:32:05.163,319.0,-1154.0,933.0,96.0,121.0,80.0,141,121,105,97,67,411,505,453
2025-02-20 16:32:05.180,273.0,-1180.0,997.0,189.0,179.0,110.0,141,121,104,95,71,411,426,457
2025-02-20 16:32:05.200,246.0,-783.0,934.0,198.0,205.0,172.0,145,122,103,97,75,437,420,470
2025-02-20 16:32:05.220,270.0,-585.0,990.0,161.0,205.0,225.0,144,117,100,97,79,560,493,485
2025-02-20 16:32:05.237,250.0,-530.0,790.0,124.0,196.0,288.0,143,108,89,99,82,532,493,492
2025-02-20 16:32:05.258,124.0,-396.0,608.0,83.0,159.0,325.0,145,98,82,102,84,516,421,477
2025-02-20 16:32:05.275,-19.0,40.0,462.0,29.0,116.0,314.0,145,89,78,107,82,469,411,475
2025-02-20 16:32:05.294,-314.0,138.0,505.0,2.0,65.0,281.0,144,78,71,109,78,412,457,460
2025-02-20 16:32:05.313,-374.0,414.0,524.0,18.0,19.0,198.0,143,69,64,108,75,387,473,457
2025-02-20 16:32:05.332,-403.0,63.0,664.0,44.0,-30.0,120.0,144,65,61,100,74,401,455,455
2025-02-20 16:32:05.349,-275.0,317.0,376.0,118.0,-42.0,111.0,142,65,59,92,92,432,439,452
2025-02-20 16:32:05.372,-815.0,1124.0,598.0,172.0,-49.0,-15.0,141,67,58,89,108,447,478,452
2025-02-20 16:32:05.389,-714.0,1692.0,740.0,262.0,-25.0,-158.0,141,66,57,85,117,471,494,450
2025-02-20 16:32:05.409,-928.0,2504.0,623.0,285.0,-41.0,-301.0,137,63,56,82,121,488,476,458
2025-02-20 16:32:05.429,-702.0,2331.0,395.0,301.0,-68.0,-437.0,136,62,56,85,125,489,459,464
2025-02-20 16:32:05.447,-220.0,1604.0,478.0,327.0,-111.0,-500.0,131,62,56,90,126,507,439,463
2025-02-20 16:32:05.466,491.0,819.0,753.0,345.0,-214.0,-518.0,132,63,55,94,126,489,431,466
2025-02-20 16:32:05.487,1287.0,-181.0,1064.0,318.0,-322.0,-403.0,132,62,56,97,125,446,450,471
2025-02-20 16:32:05.504,1829.0,-985.0,2324.0,187.0,-305.0,-164.0,135,64,58,98,125,458,467,468
2025-02-20 16:32:05.524,1838.0,-972.0,2903.0,-112.0,-134.0,22.0,137,66,60,99,126,466,465,466
2025-02-20 16:32:05.543,1601.0,-1197.0,2249.0,-210.0,22.0,118.0,137,67,60,100,126,431,445,458
2025-02-20 16:32:05.561,882.0,-847.0,1513.0,-110.0,109.0,168.0,136,67,61,99,128,387,413,461
2025-02-20 16:32:05.581,311.0,-200.0,1246.0,-37.0,113.0,199.0,136,68,61,98,127,414,442,467
2025-02-20 16:32:05.598,123.0,58.0,1333.0,-53.0,132.0,252.0,136,69,63,99,127,426,436,454
2025-02-20 16:32:05.616,-10.0,388.0,1150.0,-108.0,153.0,294.0,137,69,64,99,127,446,414,432
2025-02-20 16:32:05.638,-136.0,617.0,907.0,-138.0,143.0,265.0,137,69,64,97,129,456,423,426
2025-02-20 16:32:05.655,-143.0,527.0,808.0,-59.0,152.0,232.0,138,70,65,95,129,470,444,447
2025-02-20 16:32:05.675,-276.0,611.0,606.0,-8.0,135.0,212.0,139,70,66,93,129,476,473,461
2025-02-20 16:32:05.694,-376.0,838.0,577.0,-17.0,85.0,174.0,139,70,67,93,128,473,501,473
2025-02-20 16:32:05.712,-356.0,816.0,701.0,-32.0,67.0,142.0,140,70,69,92,128,467,500,479
2025-02-20 16:32:05.733,-430.0,856.0,664.0,-20.0,70.0,88.0,140,71,68,92,129,490,495,483
2025-02-20 16:32:05.750,-478.0,951.0,580.0,4.0,67.0,45.0,141,72,70,92,129,483,497,492
2025-02-20 16:32:05.769,-502.0,975.0,493.0,24.0,48.0,12.0,141,71,68,91,129,491,489,496
2025-02-20 16:32:05.790,-629.0,1540.0,523.0,26.0,14.0,-52.0,142,72,71,90,129,487,467,489
2025-02-20 16:32:05.807,-644.0,2062.0,500.0,35.0,38.0,-200.0,141,73,69,89,130,470,458,482
2025-02-20 16:32:05.827,-741.0,2409.0,258.0,56.0,65.0,-367.0,141,72,69,92,131,465,443,474
2025-02-20 16:32:05.847,-795.0,2352.0,-307.0,34.0,-19.0,-512.0,141,73,69,95,132,467,443,472
2025-02-20 16:32:05.864,-157.0,1046.0,-219.0,31.0,-229.0,-593.0,140,72,65,99,132,460,457,475
2025-02-20 16:32:05.885,1126.0,-238.0,245.0,25.0,-524.0,-508.0,141,73,65,103,131,465,479,492
2025-02-20 16:32:05.905,2466.0,-2432.0,1367.0,-63.0,-555.0,-222.0,143,72,65,108,130,471,479,492
2025-02-20 16:32:05.921,2783.0,-3338.0,2203.0,-31.0,-293.0,41.0,145,75,69,112,131,526,545,485
2025-02-20 16:32:05.942,2147.0,-1993.0,2414.0,-22.0,-104.0,171.0,145,75,72,113,132,538,561,511
2025-02-20 16:32:05.961,1016.0,-571.0,2113.0,-87.0,7.0,210.0,147,77,76,115,132,529,498,513
2025-02-20 16:32:05.979,467.0,-319.0,1629.0,-122.0,18.0,238.0,147,79,78,117,133,523,459,493
2025-02-20 16:32:05.999,430.0,-432.0,1652.0,-115.0,49.0,257.0,147,81,81,120,132,464,444,457
2025-02-20 16:32:06.016,383.0,-402.0,1598.0,-74.0,128.0,261.0,147,89,84,122,131,456,411,420
2025-02-20 16:32:06.036,208.0,42.0,1455.0,-44.0,185.0,249.0,147,93,85,122,126,454,371,415
2025-02-20 16:32:06.056,72.0,343.0,1541.0,-49.0,260.0,216.0,148,99,85,119,123,476,429,453
2025-02-20 16:32:06.071,-21.0,514.0,1219.0,-93.0,314.0,164.0,147,100,86,117,118,513,500,512
2025-02-20 16:32:06.093,-57.0,348.0,1040.0,-139.0,352.0,141.0,148,101,86,118,114,504,497,516
2025-02-20 16:32:06.113,39.0,298.0,820.0,-146.0,396.0,151.0,147,103,87,118,111,486,483,494
2025-02-20 16:32:06.131,-178.0,60.0,702.0,-141.0,411.0,164.0,148,100,87,117,104,395,429,455
2025-02-20 16:32:06.151,-302.0,433.0,439.0,-143.0,411.0,170.0,148,92,85,116,99,413,495,471
2025-02-20 16:32:06.170,-304.0,512.0,29.0,-114.0,390.0,159.0,147,84,79,112,92,415,542,487
2025-02-20 16:32:06.185,-347.0,759.0,-310.0,-61.0,358.0,115.0,145,79,75,107,87,436,486,495
2025-02-20 16:32:06.207,-590.0,1039.0,-878.0,-9.0,296.0,34.0,142,72,70,100,80,502,458,500
2025-02-20 16:32:06.225,-689.0,1307.0,-1641.0,80.0,150.0,-105.0,139,64,66,89,72,532,479,472
2025-02-20 16:32:06.245,-1358.0,1748.0,-2225.0,215.0,-52.0,-286.0,135,58,61,79,63,548,469,451
2025-02-20 16:32:06.264,-1192.0,2594.0,-2600.0,110.0,-320.0,-540.0,133,57,57,74,54,544,460,442
2025-02-20 16:32:06.282,-187.0,2210.0,-2761.0,53.0,-776.0,-742.0,130,61,55,68,53,504,448,448
2025-02-20 16:32:06.301,2488.0,-287.0,-1682.0,88.0,-1118.0,-658.0,127,58,51,67,56,450,418,450
2025-02-20 16:32:06.322,5447.0,-3653.0,1727.0,294.0,-957.0,-229.0,130,59,52,71,62,408,400,461
2025-02-20 16:32:06.336,4753.0,-3326.0,4363.0,415.0,-139.0,140.0,130,61,56,72,63,502,449,460
2025-02-20 16:32:06.360,1854.0,-34.0,3528.0,287.0,213.0,109.0,124,59,57,68,52,489,509,454
2025-02-20 16:32:06.377,35.0,225.0,2773.0,-30.0,170.0,45.0,123,58,56,68,48,484,547,452
2025-02-20 16:32:06.397,-28.0,-684.0,1593.0,-233.0,100.0,95.0,123,55,57,69,50,525,552,457
2025-02-20 16:32:06.416,10.0,-1092.0,1395.0,-267.0,93.0,126.0,124,57,57,69,53,343,505,445
2025-02-20 16:32:06.436,151.0,-1309.0,1360.0,-150.0,141.0,135.0,123,61,60,70,59,474,459,442
2025-02-20 16:32:06.453,119.0,-1038.0,1067.0,-27.0,217.0,141.0,127,63,57,73,62,390,348,490
2025-02-20 16:32:06.474,-42.0,-596.0,915.0,17.0,259.0,127.0,130,63,57,73,64,465,412,468
2025-02-20 16:32:06.488,-189.0,-216.0,834.0,-26.0,241.0,119.0,130,64,57,73,65,518,522,473
2025-02-20 16:32:06.511,-205.0,-201.0,696.0,-102.0,233.0,123.0,131,62,57,74,68,423,497,473
2025-02-20 16:32:06.531,-110.0,-309.0,532.0,-134.0,250.0,157.0,131,65,59,74,67,398,533,466
2025-02-20 16:32:06.549,-370.0,-207.0,316.0,-134.0,253.0,179.0,133,63,59,73,66,435,481,472
2025-02-20 16:32:06.568,-427.0,-96.0,258.0,-100.0,228.0,185.0,132,62,58,74,65,479,454,473
2025-02-20 16:32:06.588,-216.0,-58.0,346.0,-75.0,225.0,178.0,133,63,58,75,65,438,385,471
2025-02-20 16:32:06.604,12.0,5.0,256.0,-76.0,276.0,179.0,133,60,60,75,66,490,411,466
2025-02-20 16:32:06.625,-657.0,-109.0,-130.0,-1.0,246.0,169.0,133,62,59,76,64,446,459,452
2025-02-20 16:32:06.643,-760.0,157.0,-344.0,83.0,187.0,173.0,133,62,60,77,68,446,487,454
2025-02-20 16:32:06.663,-609.0,681.0,-603.0,111.0,141.0,169.0,134,61,62,78,69,454,486,450
2025-02-20 16:32:06.683,-451.0,1488.0,-1254.0,132.0,68.0,92.0,134,62,61,78,70,472,487,455
2025-02-20 16:32:06.700,-1248.0,2181.0,-2657.0,212.0,-76.0,-178.0,132,62,60,75,66,505,489,452
2025-02-20 16:32:06.718,-1818.0,2669.0,-3001.0,158.0,-499.0,-570.0,129,62,57,73,60,451,441,451
2025-02-20 16:32:06.740,-137.0,2063.0,-3043.0,154.0,-999.0,-760.0,127,62,58,73,62,445,361,456
2025-02-20 16:32:06.755,4803.0,-223.0,-1367.0,53.0,-1404.0,-565.0,131,61,59,74,67,400,350,442
2025-02-20 16:32:06.778,6071.0,-5589.0,4358.0,279.0,-630.0,-68.0,134,67,62,78,69,439,399,440
2025-02-20 16:32:06.798,4289.0,-2073.0,3937.0,224.0,191.0,119.0,135,69,66,76,64,474,469,455
2025-02-20 16:32:06.814,-98.0,631.0,2587.0,96.0,294.0,-24.0,135,65,63,76,52,458,567,473
2025-02-20 16:32:06.835,-757.0,-229.0,1009.0,-100.0,144.0,-6.0,135,61,63,76,51,497,586,464
2025-02-20 16:32:06.854,-364.0,-730.0,1002.0,-139.0,55.0,-1.0,133,61,63,79,54,494,636,459
2025-02-20 16:32:06.870,-283.0,-1064.0,837.0,-43.0,72.0,-18.0,130,63,62,77,58,429,534,446
2025-02-20 16:32:06.892,-336.0,-995.0,747.0,54.0,92.0,-4.0,129,68,61,77,62,459,401,457
2025-02-20 16:32:06.904,-280.0,-642.0,720.0,87.0,81.0,-1.0,131,70,61,80,66,507,375,454
2025-02-20 16:32:06.930,-325.0,-503.0,800.0,38.0,40.0,-1.0,132,70,60,79,70,454,486,476
2025-02-20 16:32:06.949,-229.0,-533.0,847.0,-4.0,-14.0,13.0,133,69,60,81,77,529,519,482
2025-02-20 16:32:06.966,-213.0,-529.0,879.0,-36.0,-17.0,23.0,136,69,61,81,73,543,494,488
2025-02-20 16:32:06.986,-175.0,-502.0,913.0,-32.0,-17.0,26.0,134,70,61,82,72,460,406,483
2025-02-20 16:32:07.006,-224.0,-462.0,907.0,-24.0,-4.0,15.0,134,69,61,81,70,449,394,464
2025-02-20 16:32:07.024,-258.0,-420.0,812.0,-28.0,3.0,11.0,133,66,61,80,66,480,455,457
2025-02-20 16:32:07.044,-283.0,-434.0,812.0,-33.0,-4.0,10.0,135,66,62,80,66,499,420,468
2025-02-20 16:32:07.058,-251.0,-509.0,822.0,-27.0,-6.0,5.0,135,67,63,80,66,462,394,475
2025-02-20 16:32:07.080,-155.0,-579.0,868.0,-13.0,4.0,10.0,134,69,61,81,67,440,455,466
2025-02-20 16:32:07.101,-102.0,-559.0,913.0,10.0,25.0,10.0,135,69,62,75,68,446,509,464
2025-02-20 16:32:07.118,-185.0,-509.0,827.0,9.0,32.0,14.0,135,69,62,82,69,461,522,458
2025-02-20 16:32:07.138,-236.0,-482.0,763.0,-4.0,19.0,15.0,135,69,62,82,71,456,518,463
2025-02-20 16:32:07.158,-283.0,-479.0,737.0,-9.0,4.0,13.0,135,71,62,82,72,477,550,466
2025-02-20 16:32:07.175,-299.0,-492.0,761.0,-8.0,-9.0,14.0,135,71,63,83,72,487,527,467
2025-02-20 16:32:07.195,-273.0,-462.0,835.0,-2.0,-4.0,11.0,135,70,63,82,71,485,490,472
2025-02-20 16:32:07.215,-295.0,-437.0,867.0,-3.0,0.0,9.0,135,70,63,82,71,489,483,474
2025-02-20 16:32:07.232,-297.0,-436.0,877.0,-4.0,1.0,0.0,136,70,63,81,70,487,470,478
2025-02-20 16:32:07.252,-302.0,-487.0,860.0,-7.0,0.0,-1.0,136,70,63,81,70,488,462,474
2025-02-20 16:32:07.270,-245.0,-505.0,854.0,-3.0,5.0,-4.0,134,70,65,82,70,503,458,468
2025-02-20 16:32:07.290,-270.0,-553.0,817.0,0.0,7.0,-3.0,135,70,64,82,71,502,467,463
2025-02-20 16:32:07.310,-289.0,-568.0,802.0,0.0,1.0,0.0,135,70,63,82,71,498,466,460
2025-02-20 16:32:07.326,-270.0,-559.0,813.0,-1.0,-2.0,2.0,136,70,62,82,71,502,452,457
2025-02-20 16:32:07.346,-252.0,-566.0,856.0,-5.0,-2.0,6.0,135,71,65,82,71,508,440,457
2025-02-20 16:32:07.366,-248.0,-575.0,879.0,-2.0,3.0,8.0,135,71,64,82,72,508,446,456
2025-02-20 16:32:07.384,-260.0,-535.0,877.0,0.0,8.0,11.0,136,71,63,82,71,507,459,455
2025-02-20 16:32:07.404,-272.0,-505.0,874.0,-1.0,10.0,11.0,134,70,63,83,71,498,462,453
2025-02-20 16:32:07.424,-304.0,-473.0,855.0,-3.0,9.0,7.0,135,71,62,82,71,477,467,452
2025-02-20 16:32:07.442,-309.0,-498.0,835.0,-7.0,7.0,7.0,135,72,63,83,71,462,468,458
2025-02-20 16:32:07.461,-303.0,-533.0,823.0,-3.0,8.0,7.0,137,70,63,82,71,455,465,464
2025-02-20 16:32:07.478,-319.0,-508.0,799.0,-1.0,5.0,8.0,136,71,63,82,72,458,461,467
2025-02-20 16:32:07.499,-324.0,-495.0,782.0,-6.0,0.0,9.0,134,70,63,82,72,460,452,470
2025-02-20 16:32:07.518,-313.0,-502.0,782.0,-10.0,-4.0,11.0,135,70,63,83,71,462,447,472
2025-02-20 16:32:07.534,-296.0,-505.0,798.0,-4.0,-3.0,7.0,136,70,64,82,72,461,451,476
2025-02-20 16:32:07.555,-284.0,-521.0,810.0,1.0,2.0,4.0,135,70,63,82,72,464,455,475
2025-02-20 16:32:07.570,-310.0,-512.0,784.0,4.0,4.0,4.0,136,72,64,83,72,469,464,477
2025-02-20 16:32:07.592,-314.0,-500.0,780.0,4.0,1.0,1.0,136,70,64,83,72,475,477,481
2025-02-20 16:32:07.612,-292.0,-499.0,804.0,4.0,-1.0,0.0,136,72,63,82,72,475,496,483
2025-02-20 16:32:07.633,-291.0,-486.0,814.0,1.0,1.0,-1.0,136,71,63,83,72,471,499,480
2025-02-20 16:32:07.650,-282.0,-486.0,817.0,-1.0,3.0,-3.0,136,71,63,83,71,466,485,474
2025-02-20 16:32:07.670,-292.0,-506.0,795.0,-2.0,2.0,-2.0,136,70,64,83,72,464,466,469
2025-02-20 16:32:07.677,-297.0,-501.0,804.0,-2.0,-1.0,-4.0,137,70,63,83,72,462,459,465
2025-02-20 16:32:07.707,-298.0,-499.0,808.0,0.0,-3.0,-3.0,136,72,63,83,71,464,462,463
2025-02-20 16:32:07.727,-309.0,-467.0,812.0,0.0,-4.0,-5.0,136,70,63,83,72,464,466,461
2025-02-20 16:32:07.741,-304.0,-497.0,822.0,0.0,-6.0,-7.0,136,71,64,82,71,465,464,461
2025-02-20 16:32:07.765,-285.0,-529.0,843.0,2.0,-6.0,-5.0,136,71,63,83,72,465,450,461
2025-02-20 16:32:07.779,-280.0,-535.0,853.0,2.0,-3.0,-1.0,135,70,64,84,71,466,432,460
2025-02-20 16:32:07.802,-292.0,-525.0,851.0,5.0,-2.0,0.0,136,72,64,82,72,468,433,461
2025-02-20 16:32:07.821,-309.0,-499.0,858.0,6.0,-3.0,-2.0,134,71,64,83,72,470,441,461
2025-02-20 16:32:07.838,-311.0,-511.0,860.0,3.0,-3.0,-3.0,137,70,63,84,72,472,454,461
2025-02-20 16:32:07.858,-301.0,-538.0,865.0,5.0,-1.0,-1.0,135,71,63,83,71,477,469,463
2025-02-20 16:32:07.880,-311.0,-520.0,865.0,5.0,1.0,0.0,135,72,64,84,72,485,489,464
2025-02-20 16:32:07.899,-306.0,-521.0,850.0,4.0,0.0,-1.0,136,71,64,83,72,479,512,464
2025-02-20 16:32:07.916,-302.0,-521.0,842.0,4.0,-1.0,0.0,136,71,64,83,73,474,505,465
2025-02-20 16:32:07.936,-299.0,-528.0,845.0,3.0,0.0,0.0,136,71,64,84,72,470,488,465
2025-02-20 16:32:07.953,-301.0,-515.0,845.0,2.0,0.0,1.0,137,71,64,84,71,467,474,466
2025-02-20 16:32:07.974,-300.0,-514.0,846.0,1.0,0.0,2.0,137,71,66,84,72,466,465,466
2025-02-20 16:32:07.993,-292.0,-502.0,864.0,2.0,2.0,0.0,136,72,64,84,72,463,459,466
2025-02-20 16:32:08.010,-295.0,-511.0,859.0,2.0,4.0,1.0,135,71,64,84,72,461,458,466
2025-02-20 16:32:08.031,-297.0,-509.0,846.0,5.0,5.0,2.0,138,71,65,84,71,462,458,465
2025-02-20 16:32:08.051,-302.0,-477.0,833.0,5.0,5.0,1.0,135,71,65,85,71,462,458,465
2025-02-20 16:32:08.068,-311.0,-476.0,828.0,1.0,3.0,0.0,137,71,64,84,71,464,452,464
2025-02-20 16:32:08.087,-299.0,-491.0,835.0,-2.0,3.0,1.0,137,72,63,83,72,464,443,463
2025-02-20 16:32:08.108,-308.0,-499.0,838.0,0.0,3.0,2.0,137,71,64,83,72,468,440,464
2025-02-20 16:32:08.125,-324.0,-497.0,816.0,4.0,2.0,3.0,136,71,64,84,71,472,444,462
2025-02-20 16:32:08.145,-335.0,-458.0,811.0,2.0,-1.0,0.0,135,72,64,84,71,465,453,463
2025-02-20 16:32:08.161,-315.0,-477.0,835.0,1.0,-2.0,-2.0,135,70,64,84,72,468,458,464
2025-02-20 16:32:08.183,-300.0,-509.0,845.0,2.0,0.0,-1.0,137,71,65,84,71,468,461,463
2025-02-20 16:32:08.203,-302.0,-508.0,847.0,1.0,2.0,0.0,135,71,65,84,72,468,464,464
2025-02-20 16:32:08.220,-301.0,-515.0,839.0,-3.0,1.0,0.0,139,71,65,84,72,468,465,464
2025-02-20 16:32:08.239,-293.0,-514.0,837.0,-4.0,0.0,0.0,136,70,64,84,71,466,467,465
2025-02-20 16:32:08.260,-296.0,-528.0,835.0,-2.0,0.0,2.0,136,72,64,84,72,461,467,465
2025-02-20 16:32:08.276,-295.0,-513.0,846.0,0.0,2.0,3.0,137,71,64,84,72,460,469,465
2025-02-20 16:32:08.297,-314.0,-487.0,841.0,-2.0,2.0,3.0,137,71,64,84,72,460,469,464
2025-02-20 16:32:08.317,-323.0,-481.0,840.0,-4.0,1.0,2.0,136,70,64,84,72,463,466,464
2025-02-20 16:32:08.331,-312.0,-490.0,851.0,-4.0,2.0,3.0,135,72,65,84,71,466,468,462
2025-02-20 16:32:08.355,-317.0,-495.0,857.0,-1.0,3.0,3.0,136,71,63,85,71,468,468,461
2025-02-20 16:32:08.371,-320.0,-489.0,854.0,0.0,4.0,6.0,137,71,64,85,72,469,468,460
2025-02-20 16:32:08.391,-329.0,-481.0,851.0,3.0,5.0,5.0,136,70,65,85,72,468,469,460
2025-02-20 16:32:08.411,-344.0,-464.0,849.0,7.0,6.0,4.0,136,69,64,84,72,467,470,459
2025-02-20 16:32:08.429,-335.0,-452.0,854.0,4.0,7.0,3.0,136,70,65,85,71,466,471,460
2025-02-20 16:32:08.449,-332.0,-483.0,866.0,5.0,9.0,4.0,136,72,64,85,71,464,471,461
2025-02-20 16:32:08.469,-321.0,-493.0,862.0,11.0,12.0,5.0,136,72,65,85,72,462,469,461
2025-02-20 16:32:08.486,-346.0,-466.0,843.0,12.0,10.0,5.0,136,72,64,85,72,461,468,461
2025-02-20 16:32:08.506,-369.0,-413.0,830.0,2.0,1.0,1.0,134,71,66,85,71,462,470,461
2025-02-20 16:32:08.523,-336.0,-451.0,865.0,-9.0,-2.0,-2.0,136,70,64,86,73,465,471,463
2025-02-20 16:32:08.543,-308.0,-527.0,873.0,-2.0,4.0,1.0,136,71,64,85,72,468,472,464
2025-02-20 16:32:08.561,-330.0,-484.0,851.0,4.0,7.0,4.0,136,69,64,85,73,471,471,465
2025-02-20 16:32:08.584,-350.0,-449.0,835.0,-2.0,4.0,4.0,136,72,65,85,72,470,473,466
2025-02-20 16:32:08.601,-354.0,-471.0,832.0,-8.0,2.0,4.0,135,71,65,85,72,469,473,467
2025-02-20 16:32:08.620,-338.0,-488.0,824.0,-2.0,4.0,4.0,136,71,64,85,72,465,467,468
2025-02-20 16:32:08.637,-356.0,-495.0,800.0,5.0,8.0,5.0,136,72,65,85,72,465,461,469
2025-02-20 16:32:08.658,-395.0,-451.0,773.0,5.0,6.0,5.0,137,71,65,85,71,465,460,468
2025-02-20 16:32:08.675,-391.0,-451.0,771.0,-1.0,2.0,3.0,136,71,64,85,71,464,460,469
2025-02-20 16:32:08.693,-389.0,-462.0,781.0,-3.0,-3.0,0.0,136,72,64,85,73,463,459,470
2025-02-20 16:32:08.712,-362.0,-493.0,807.0,-1.0,-3.0,-1.0,136,72,64,85,71,464,456,470
2025-02-20 16:32:08.735,-353.0,-489.0,815.0,0.0,-3.0,-1.0,136,72,64,85,72,465,456,470
2025-02-20 16:32:08.752,-348.0,-471.0,833.0,-4.0,-5.0,-1.0,136,71,65,85,72,465,459,467
2025-02-20 16:32:08.772,-327.0,-493.0,852.0,-7.0,-5.0,1.0,135,71,66,85,72,464,462,466
2025-02-20 16:32:08.792,-310.0,-509.0,860.0,-6.0,-2.0,3.0,137,72,66,85,72,464,463,464
2025-02-20 16:32:08.809,-334.0,-476.0,849.0,-1.0,-1.0,3.0,136,71,65,85,72,465,463,463
2025-02-20 16:32:08.829,-351.0,-471.0,838.0,0.0,-1.0,3.0,136,72,66,86,72,466,464,464
2025-02-20 16:32:08.844,-362.0,-462.0,836.0,1.0,-2.0,3.0,134,73,66,84,71,468,464,463
2025-02-20 16:32:08.863,-361.0,-458.0,859.0,2.0,-2.0,4.0,136,72,65,85,72,468,464,464
2025-02-20 16:32:08.881,-375.0,-445.0,869.0,2.0,-3.0,4.0,135,71,65,85,71,467,463,463
2025-02-20 16:32:08.904,-366.0,-443.0,881.0,4.0,1.0,3.0,136,72,66,87,72,468,459,466
2025-02-20 16:32:08.923,-370.0,-436.0,874.0,6.0,3.0,3.0,138,70,65,85,71,468,459,466
2025-02-20 16:32:08.944,-382.0,-402.0,849.0,3.0,2.0,1.0,136,70,65,85,72,467,461,466
2025-02-20 16:32:08.960,-394.0,-399.0,831.0,-2.0,-2.0,-3.0,136,71,66,85,71,466,464,467
2025-02-20 16:32:08.981,-367.0,-444.0,835.0,-2.0,-3.0,-3.0,136,72,65,85,72,465,464,468
2025-02-20 16:32:09.001,-354.0,-450.0,827.0,-2.0,-1.0,-2.0,137,72,65,85,72,466,463,469
2025-02-20 16:32:09.019,-355.0,-467.0,821.0,1.0,-1.0,-2.0,136,71,65,86,72,466,464,468
2025-02-20 16:32:09.038,-370.0,-458.0,818.0,2.0,-2.0,-2.0,135,71,65,85,72,466,464,468
2025-02-20 16:32:09.059,-358.0,-449.0,833.0,-3.0,-3.0,-3.0,136,72,65,86,72,464,465,467
2025-02-20 16:32:09.076,-354.0,-479.0,838.0,-4.0,-3.0,-3.0,135,73,65,85,72,463,467,467
2025-02-20 16:32:09.096,-347.0,-501.0,831.0,1.0,-1.0,-1.0,136,73,66,85,72,464,467,468
2025-02-20 16:32:09.113,-345.0,-476.0,842.0,3.0,-1.0,-1.0,136,71,65,85,72,464,467,466
2025-02-20 16:32:09.131,-348.0,-476.0,837.0,2.0,0.0,1.0,136,73,66,85,72,463,468,465
2025-02-20 16:32:09.153,-365.0,-463.0,835.0,2.0,-2.0,1.0,137,71,67,86,72,463,466,464
2025-02-20 16:32:09.170,-364.0,-457.0,842.0,0.0,-3.0,2.0,136,71,65,86,72,464,464,464
2025-02-20 16:32:09.190,-369.0,-458.0,845.0,0.0,-2.0,2.0,136,71,65,86,72,465,463,464
2025-02-20 16:32:09.209,-375.0,-445.0,848.0,-1.0,-2.0,1.0,136,72,66,85,72,465,465,464
2025-02-20 16:32:09.227,-369.0,-444.0,848.0,-1.0,-2.0,0.0,137,72,66,86,72,465,465,464
2025-02-20 16:32:09.247,-367.0,-450.0,847.0,-2.0,-2.0,-1.0,137,72,66,86,72,465,467,464
2025-02-20 16:32:09.267,-351.0,-460.0,848.0,-1.0,-1.0,0.0,136,73,63,86,73,465,467,464
2025-02-20 16:32:09.282,-367.0,-455.0,841.0,0.0,0.0,0.0,136,72,65,86,72,465,467,465
2025-02-20 16:32:09.305,-362.0,-445.0,852.0,0.0,-2.0,-2.0,136,72,65,86,72,466,468,465
2025-02-20 16:32:09.321,-347.0,-459.0,858.0,-1.0,-1.0,-1.0,137,73,65,86,72,466,466,466
2025-02-20 16:32:09.341,-354.0,-467.0,854.0,0.0,0.0,-1.0,136,71,66,85,70,464,463,466
2025-02-20 16:32:09.362,-361.0,-451.0,844.0,0.0,-1.0,-1.0,136,72,66,86,72,462,459,468
2025-02-20 16:32:09.379,-356.0,-450.0,851.0,-2.0,-3.0,-1.0,135,72,65,86,72,460,457,467
2025-02-20 16:32:09.399,-343.0,-465.0,858.0,-3.0,-2.0,-2.0,136,72,65,86,72,460,458,467
2025-02-20 16:32:09.415,-349.0,-460.0,844.0,0.0,0.0,-1.0,136,72,67,86,71,462,459,468
