timestamp,ax,ay,az,gx,gy,gz,flex1,flex2,flex3,flex4,flex5,emg1,emg2,emg3
2025-03-17 18:54:52.003,-659.0,66.0,835.0,-2.0,-9.0,4.0,120,86,142,105,119
2025-03-17 18:54:52.019,-666.0,82.0,836.0,0.0,-4.0,4.0,119,87,142,106,118
2025-03-17 18:54:52.019,-652.0,73.0,830.0,1.0,0.0,5.0,122,86,142,106,118
2025-03-17 18:54:52.026,-660.0,82.0,798.0,4.0,3.0,5.0,120,85,141,109,118
2025-03-17 18:54:52.028,-665.0,89.0,790.0,4.0,3.0,3.0,120,85,142,106,118
2025-03-17 18:54:52.031,-662.0,97.0,809.0,5.0,2.0,1.0,122,86,142,106,118
2025-03-17 18:54:52.031,-661.0,94.0,799.0,3.0,3.0,-1.0,120,85,142,106,118
2025-03-17 18:54:52.031,-638.0,90.0,806.0,3.0,4.0,-4.0,117,85,143,105,118
2025-03-17 18:54:52.037,-634.0,81.0,794.0,2.0,1.0,-5.0,120,87,143,106,119
2025-03-17 18:54:52.040,-619.0,66.0,825.0,1.0,3.0,-5.0,122,86,140,108,118
2025-03-17 18:54:52.055,-620.0,58.0,811.0,0.0,3.0,-4.0,122,85,142,105,117
2025-03-17 18:54:52.078,-624.0,70.0,809.0,-1.0,3.0,-3.0,122,85,144,107,118
2025-03-17 18:54:52.098,-632.0,67.0,795.0,-2.0,3.0,-2.0,120,85,142,107,119
2025-03-17 18:54:52.122,-633.0,60.0,783.0,-2.0,2.0,0.0,122,85,143,106,116
2025-03-17 18:54:52.149,-633.0,72.0,780.0,-1.0,1.0,1.0,122,85,143,103,119
2025-03-17 18:54:52.174,-630.0,80.0,779.0,-3.0,1.0,2.0,122,86,142,108,118
2025-03-17 18:54:52.198,-638.0,85.0,774.0,-2.0,1.0,2.0,120,82,142,106,119
2025-03-17 18:54:52.221,-634.0,88.0,756.0,0.0,-2.0,2.0,121,85,142,107,119
2025-03-17 18:54:52.247,-640.0,92.0,777.0,-1.0,-3.0,2.0,122,86,142,106,118
2025-03-17 18:54:52.268,-653.0,105.0,783.0,0.0,-4.0,2.0,121,85,142,106,119
2025-03-17 18:54:52.293,-636.0,106.0,803.0,0.0,-2.0,1.0,120,85,143,105,118
2025-03-17 18:54:52.317,-638.0,95.0,784.0,1.0,-2.0,1.0,121,85,142,107,118
2025-03-17 18:54:52.342,-657.0,96.0,791.0,0.0,-3.0,1.0,121,86,142,106,119
2025-03-17 18:54:52.364,-646.0,93.0,799.0,0.0,-3.0,0.0,121,85,143,106,118
2025-03-17 18:54:52.390,-652.0,97.0,798.0,1.0,-3.0,0.0,123,85,143,104,118
2025-03-17 18:54:52.414,-654.0,106.0,800.0,1.0,-4.0,-1.0,119,85,143,112,119
2025-03-17 18:54:52.436,-653.0,98.0,795.0,-1.0,-3.0,-2.0,119,85,143,106,119
2025-03-17 18:54:52.461,-645.0,87.0,802.0,1.0,-2.0,0.0,120,84,142,100,120
2025-03-17 18:54:52.484,-651.0,95.0,803.0,1.0,-2.0,0.0,122,85,142,105,118
2025-03-17 18:54:52.510,-649.0,92.0,805.0,2.0,0.0,0.0,122,86,143,104,117
2025-03-17 18:54:52.534,-645.0,91.0,775.0,4.0,1.0,0.0,121,85,141,105,118
2025-03-17 18:54:52.558,-645.0,107.0,772.0,2.0,0.0,-1.0,121,86,141,106,119
2025-03-17 18:54:52.583,-650.0,97.0,767.0,0.0,-3.0,-2.0,121,84,142,104,118
2025-03-17 18:54:52.604,-650.0,95.0,788.0,0.0,-3.0,-3.0,121,85,142,106,118
2025-03-17 18:54:52.629,-635.0,93.0,811.0,-2.0,-2.0,-3.0,120,85,143,105,117
2025-03-17 18:54:52.651,-641.0,86.0,794.0,-2.0,-2.0,-2.0,120,85,144,105,118
2025-03-17 18:54:52.677,-631.0,87.0,792.0,-2.0,-4.0,-1.0,122,85,142,105,117
2025-03-17 18:54:52.702,-635.0,89.0,806.0,-2.0,-3.0,0.0,120,87,143,105,118
2025-03-17 18:54:52.722,-635.0,99.0,811.0,-1.0,-5.0,0.0,120,85,141,103,118
2025-03-17 18:54:52.750,-637.0,98.0,794.0,0.0,-3.0,2.0,121,85,142,106,119
2025-03-17 18:54:52.772,-638.0,90.0,812.0,4.0,-2.0,4.0,121,85,142,107,118
2025-03-17 18:54:52.796,-642.0,127.0,818.0,1.0,-1.0,3.0,122,81,142,106,119
2025-03-17 18:54:52.821,-646.0,123.0,827.0,1.0,2.0,1.0,117,85,142,106,119
2025-03-17 18:54:52.844,-645.0,107.0,796.0,1.0,2.0,1.0,121,86,143,107,118
2025-03-17 18:54:52.869,-648.0,119.0,769.0,-1.0,1.0,-1.0,121,85,142,106,117
2025-03-17 18:54:52.894,-625.0,96.0,809.0,-4.0,3.0,-3.0,120,84,142,107,118
2025-03-17 18:54:52.918,-630.0,76.0,780.0,-4.0,2.0,-2.0,120,85,142,106,118
2025-03-17 18:54:52.940,-650.0,101.0,767.0,-2.0,2.0,-1.0,123,84,142,105,118
2025-03-17 18:54:52.965,-641.0,129.0,761.0,-5.0,-1.0,-5.0,121,85,142,105,118
2025-03-17 18:54:52.989,-660.0,100.0,769.0,-6.0,-1.0,-6.0,121,82,142,106,118
2025-03-17 18:54:53.014,-648.0,94.0,771.0,-4.0,-6.0,-5.0,122,86,142,100,118
2025-03-17 18:54:53.037,-636.0,105.0,789.0,-4.0,-5.0,-5.0,121,86,142,104,119
2025-03-17 18:54:53.056,-618.0,108.0,807.0,-5.0,-1.0,-2.0,121,85,141,108,118
2025-03-17 18:54:53.087,-619.0,83.0,791.0,-3.0,1.0,3.0,120,85,142,104,119
2025-03-17 18:54:53.111,-625.0,106.0,798.0,-3.0,-2.0,5.0,120,85,142,106,118
2025-03-17 18:54:53.133,-615.0,105.0,810.0,-3.0,-7.0,4.0,120,85,142,106,118
2025-03-17 18:54:53.157,-609.0,92.0,824.0,-8.0,-3.0,7.0,121,86,142,106,118
2025-03-17 18:54:53.181,-606.0,61.0,860.0,-8.0,2.0,9.0,121,86,141,107,118
2025-03-17 18:54:53.200,-660.0,100.0,783.0,2.0,0.0,5.0,122,87,141,107,119
2025-03-17 18:54:53.227,-676.0,128.0,767.0,-5.0,-6.0,0.0,120,85,143,113,119
2025-03-17 18:54:53.255,-650.0,97.0,787.0,-4.0,-10.0,-4.0,120,85,142,106,119
2025-03-17 18:54:53.274,-658.0,87.0,811.0,-1.0,-6.0,-2.0,120,86,141,106,118
2025-03-17 18:54:53.300,-645.0,92.0,807.0,-1.0,-7.0,-1.0,121,86,141,106,117
2025-03-17 18:54:53.325,-625.0,91.0,821.0,-1.0,-4.0,-1.0,122,85,142,107,118
2025-03-17 18:54:53.350,-638.0,97.0,811.0,-4.0,-9.0,-3.0,121,85,142,106,118
2025-03-17 18:54:53.364,-644.0,103.0,881.0,-2.0,-8.0,-4.0,121,86,142,107,117
2025-03-17 18:54:53.389,-615.0,84.0,846.0,-6.0,-4.0,-4.0,122,86,143,106,119
2025-03-17 18:54:53.421,-623.0,78.0,824.0,-12.0,-4.0,-7.0,114,86,141,109,114
2025-03-17 18:54:53.447,-622.0,97.0,835.0,-15.0,-2.0,-7.0,112,85,142,106,117
2025-03-17 18:54:53.468,-606.0,57.0,794.0,-11.0,-13.0,-8.0,117,86,141,107,119
2025-03-17 18:54:53.492,-583.0,56.0,815.0,-6.0,-13.0,-5.0,113,85,142,107,115
2025-03-17 18:54:53.508,-563.0,61.0,815.0,-5.0,-13.0,-3.0,112,85,141,107,117
2025-03-17 18:54:53.541,-584.0,58.0,813.0,-4.0,-13.0,0.0,114,86,141,108,118
2025-03-17 18:54:53.566,-563.0,69.0,724.0,0.0,-17.0,4.0,113,84,139,106,117
2025-03-17 18:54:53.590,-599.0,73.0,806.0,12.0,-23.0,6.0,111,84,142,106,116
2025-03-17 18:54:53.614,-618.0,79.0,819.0,12.0,-27.0,8.0,119,86,142,105,117
2025-03-17 18:54:53.637,-600.0,100.0,818.0,10.0,-27.0,10.0,114,86,143,107,117
2025-03-17 18:54:53.661,-572.0,114.0,861.0,10.0,-21.0,8.0,105,87,142,107,119
2025-03-17 18:54:53.685,-559.0,121.0,830.0,13.0,-12.0,7.0,118,87,142,109,118
2025-03-17 18:54:53.709,-567.0,111.0,884.0,15.0,-16.0,8.0,113,76,146,108,118
2025-03-17 18:54:53.734,-540.0,136.0,870.0,6.0,-10.0,5.0,109,87,144,108,118
2025-03-17 18:54:53.758,-526.0,111.0,868.0,1.0,-8.0,3.0,116,87,143,107,118
2025-03-17 18:54:53.782,-501.0,102.0,869.0,0.0,-4.0,3.0,111,88,142,107,120
2025-03-17 18:54:53.802,-511.0,109.0,883.0,1.0,-2.0,2.0,108,88,145,106,120
2025-03-17 18:54:53.829,-526.0,94.0,887.0,0.0,-5.0,2.0,106,88,142,106,118
2025-03-17 18:54:53.853,-522.0,99.0,897.0,-2.0,-9.0,6.0,105,88,143,107,119
2025-03-17 18:54:53.875,-521.0,106.0,896.0,1.0,-5.0,5.0,113,88,143,107,118
2025-03-17 18:54:53.902,-532.0,123.0,866.0,2.0,-3.0,4.0,111,89,143,107,118
2025-03-17 18:54:53.923,-531.0,127.0,887.0,-1.0,-1.0,5.0,110,89,143,107,118
2025-03-17 18:54:53.951,-537.0,134.0,893.0,1.0,1.0,2.0,111,89,143,108,118
2025-03-17 18:54:53.972,-537.0,141.0,888.0,2.0,5.0,2.0,111,89,143,108,119
2025-03-17 18:54:53.997,-551.0,166.0,896.0,-1.0,6.0,0.0,110,89,143,107,118
2025-03-17 18:54:54.021,-529.0,137.0,874.0,-8.0,6.0,-3.0,111,88,144,108,119
2025-03-17 18:54:54.045,-519.0,126.0,850.0,-8.0,11.0,-5.0,106,90,143,107,119
2025-03-17 18:54:54.070,-550.0,130.0,809.0,-7.0,10.0,-7.0,114,90,143,108,119
2025-03-17 18:54:54.094,-550.0,126.0,817.0,-10.0,4.0,-8.0,116,89,143,108,119
2025-03-17 18:54:54.119,-549.0,103.0,810.0,-11.0,2.0,-8.0,116,89,143,108,119
2025-03-17 18:54:54.140,-554.0,78.0,832.0,-9.0,1.0,-4.0,119,89,143,107,118
2025-03-17 18:54:54.165,-542.0,78.0,843.0,-3.0,-1.0,-1.0,121,89,144,107,121
2025-03-17 18:54:54.189,-558.0,98.0,854.0,-2.0,-4.0,2.0,117,89,143,106,119
2025-03-17 18:54:54.213,-561.0,114.0,878.0,0.0,-5.0,3.0,116,89,144,108,117
2025-03-17 18:54:54.237,-558.0,124.0,900.0,2.0,0.0,3.0,116,89,143,108,118
2025-03-17 18:54:54.262,-565.0,118.0,875.0,0.0,0.0,2.0,116,89,143,108,118
2025-03-17 18:54:54.287,-562.0,118.0,868.0,-1.0,1.0,-1.0,116,91,143,108,120
2025-03-17 18:54:54.305,-546.0,116.0,862.0,0.0,0.0,-1.0,118,89,143,107,118
2025-03-17 18:54:54.332,-543.0,112.0,844.0,0.0,1.0,-2.0,117,89,143,108,119
2025-03-17 18:54:54.357,-553.0,113.0,844.0,1.0,1.0,-2.0,116,88,143,108,118
2025-03-17 18:54:54.381,-556.0,128.0,841.0,0.0,-1.0,-3.0,117,89,143,111,117
2025-03-17 18:54:54.405,-540.0,121.0,853.0,-1.0,-4.0,-5.0,119,90,142,103,119
2025-03-17 18:54:54.430,-541.0,107.0,839.0,1.0,-5.0,-4.0,117,90,143,108,118
2025-03-17 18:54:54.454,-542.0,104.0,881.0,1.0,-1.0,-4.0,116,89,144,107,119
2025-03-17 18:54:54.476,-552.0,120.0,876.0,1.0,0.0,-4.0,116,89,143,108,119
2025-03-17 18:54:54.500,-547.0,130.0,873.0,0.0,-1.0,-4.0,117,90,143,108,118
2025-03-17 18:54:54.523,-541.0,104.0,869.0,-2.0,-1.0,-4.0,111,90,143,112,118
2025-03-17 18:54:54.548,-549.0,90.0,865.0,0.0,0.0,-2.0,118,88,143,106,118
2025-03-17 18:54:54.572,-553.0,104.0,853.0,0.0,1.0,-1.0,116,89,143,108,118
2025-03-17 18:54:54.598,-549.0,105.0,845.0,-1.0,0.0,-1.0,118,90,143,107,119
2025-03-17 18:54:54.622,-559.0,105.0,852.0,-1.0,0.0,-1.0,118,89,143,107,119
2025-03-17 18:54:54.645,-561.0,115.0,854.0,-1.0,-2.0,0.0,119,90,147,109,118
2025-03-17 18:54:54.668,-554.0,104.0,856.0,-1.0,-2.0,-1.0,117,90,143,109,118
2025-03-17 18:54:54.693,-547.0,103.0,865.0,-1.0,-2.0,0.0,118,90,143,108,119
2025-03-17 18:54:54.717,-546.0,112.0,872.0,0.0,-1.0,0.0,117,90,143,108,118
2025-03-17 18:54:54.741,-552.0,113.0,855.0,-2.0,0.0,-1.0,117,90,143,108,120
2025-03-17 18:54:54.766,-538.0,107.0,856.0,-1.0,1.0,0.0,122,90,143,111,118
2025-03-17 18:54:54.790,-556.0,114.0,841.0,1.0,0.0,0.0,118,90,142,108,118
2025-03-17 18:54:54.815,-564.0,116.0,843.0,0.0,-1.0,-1.0,116,90,142,109,119
2025-03-17 18:54:54.824,-557.0,110.0,860.0,-1.0,-3.0,-1.0,118,90,143,108,118
2025-03-17 18:54:54.860,-555.0,106.0,884.0,0.0,-1.0,-2.0,117,88,143,109,119
2025-03-17 18:54:54.886,-562.0,101.0,882.0,-1.0,-1.0,-1.0,118,90,143,108,119
2025-03-17 18:54:54.910,-557.0,102.0,863.0,-1.0,-1.0,-1.0,118,86,146,108,118
2025-03-17 18:54:54.933,-561.0,106.0,851.0,1.0,0.0,2.0,117,90,143,108,118
2025-03-17 18:54:54.959,-565.0,130.0,848.0,-1.0,1.0,-1.0,117,90,143,108,118
2025-03-17 18:54:54.983,-563.0,118.0,840.0,-2.0,1.0,-1.0,118,90,143,108,119
2025-03-17 18:54:55.003,-553.0,123.0,838.0,-2.0,0.0,-2.0,117,90,144,107,117
2025-03-17 18:54:55.029,-554.0,107.0,849.0,-1.0,-3.0,-3.0,116,89,142,108,119
2025-03-17 18:54:55.052,-543.0,98.0,868.0,0.0,-3.0,-2.0,118,83,143,109,119
2025-03-17 18:54:55.078,-550.0,104.0,883.0,0.0,-2.0,-1.0,118,88,143,108,119
2025-03-17 18:54:55.099,-538.0,110.0,906.0,0.0,-1.0,-1.0,116,90,144,107,118
2025-03-17 18:54:55.123,-547.0,103.0,891.0,0.0,1.0,0.0,117,91,143,109,114
2025-03-17 18:54:55.148,-539.0,119.0,896.0,-1.0,2.0,0.0,117,90,143,107,119
2025-03-17 18:54:55.173,-543.0,115.0,872.0,0.0,4.0,0.0,116,90,143,108,119
2025-03-17 18:54:55.197,-552.0,126.0,863.0,0.0,4.0,0.0,117,90,143,108,120
2025-03-17 18:54:55.221,-555.0,129.0,851.0,0.0,3.0,0.0,117,91,143,109,118
2025-03-17 18:54:55.245,-557.0,123.0,847.0,-1.0,3.0,0.0,118,89,145,108,118
2025-03-17 18:54:55.269,-558.0,120.0,844.0,-1.0,3.0,0.0,118,90,144,108,119
2025-03-17 18:54:55.294,-558.0,121.0,820.0,-1.0,2.0,-1.0,121,90,143,109,119
2025-03-17 18:54:55.319,-547.0,114.0,832.0,-1.0,2.0,0.0,118,90,143,108,119
2025-03-17 18:54:55.340,-556.0,106.0,834.0,-3.0,3.0,0.0,114,89,144,108,119
2025-03-17 18:54:55.364,-564.0,112.0,820.0,-3.0,1.0,2.0,117,89,142,107,119
2025-03-17 18:54:55.389,-562.0,125.0,817.0,-6.0,0.0,-1.0,117,90,143,108,119
2025-03-17 18:54:55.413,-567.0,104.0,831.0,-7.0,-2.0,-2.0,120,89,142,108,118
2025-03-17 18:54:55.430,-574.0,95.0,833.0,-4.0,-6.0,0.0,121,90,140,107,118
2025-03-17 18:54:55.462,-573.0,108.0,860.0,-3.0,-7.0,-1.0,118,91,143,109,117
2025-03-17 18:54:55.487,-567.0,109.0,884.0,-4.0,-6.0,0.0,120,90,143,109,118
2025-03-17 18:54:55.505,-564.0,94.0,909.0,0.0,-3.0,1.0,126,90,143,108,119
2025-03-17 18:54:55.532,-566.0,132.0,914.0,1.0,1.0,0.0,119,91,144,108,119
2025-03-17 18:54:55.557,-563.0,125.0,897.0,-2.0,3.0,-2.0,120,91,143,108,118
2025-03-17 18:54:55.576,-543.0,125.0,881.0,-2.0,6.0,-3.0,120,90,144,108,119
2025-03-17 18:54:55.606,-565.0,121.0,823.0,-2.0,4.0,-3.0,120,90,140,109,119
2025-03-17 18:54:55.630,-545.0,109.0,828.0,-2.0,2.0,-4.0,121,89,144,109,118
2025-03-17 18:54:55.655,-548.0,81.0,812.0,0.0,2.0,-2.0,120,90,143,109,118
2025-03-17 18:54:55.675,-556.0,111.0,808.0,0.0,2.0,-2.0,119,90,143,108,119
2025-03-17 18:54:55.701,-571.0,108.0,815.0,1.0,-2.0,-1.0,123,89,143,109,119
2025-03-17 18:54:55.725,-574.0,104.0,818.0,0.0,-6.0,0.0,118,90,144,107,119
2025-03-17 18:54:55.747,-563.0,97.0,843.0,-1.0,-5.0,-2.0,120,89,143,108,119
2025-03-17 18:54:55.774,-578.0,101.0,855.0,1.0,-4.0,0.0,121,89,143,108,118
2025-03-17 18:54:55.798,-587.0,102.0,864.0,-2.0,-4.0,-2.0,120,90,144,108,118
2025-03-17 18:54:55.823,-590.0,77.0,881.0,-4.0,0.0,-2.0,122,90,145,109,119
2025-03-17 18:54:55.844,-589.0,68.0,863.0,-3.0,2.0,0.0,121,90,143,108,120
2025-03-17 18:54:55.869,-586.0,95.0,829.0,-1.0,-1.0,1.0,121,91,143,108,119
2025-03-17 18:54:55.892,-570.0,95.0,848.0,0.0,-2.0,2.0,121,91,143,109,119
2025-03-17 18:54:55.917,-560.0,114.0,874.0,1.0,-3.0,1.0,120,90,143,108,119
2025-03-17 18:54:55.942,-543.0,113.0,866.0,-1.0,-2.0,-1.0,120,90,144,109,120
2025-03-17 18:54:55.964,-557.0,117.0,875.0,3.0,-2.0,1.0,122,88,143,108,118
2025-03-17 18:54:55.990,-547.0,142.0,882.0,1.0,-1.0,0.0,120,90,142,108,118
2025-03-17 18:54:56.012,-532.0,129.0,875.0,-1.0,0.0,-1.0,121,90,143,108,118
2025-03-17 18:54:56.037,-533.0,123.0,862.0,-1.0,1.0,-1.0,120,90,143,108,119
2025-03-17 18:54:56.060,-531.0,122.0,858.0,-1.0,0.0,-1.0,121,90,143,108,119
2025-03-17 18:54:56.085,-545.0,112.0,864.0,-3.0,0.0,-1.0,119,91,144,108,120
2025-03-17 18:54:56.110,-539.0,119.0,871.0,-2.0,-2.0,0.0,121,92,143,109,120
2025-03-17 18:54:56.134,-544.0,113.0,867.0,-1.0,-1.0,1.0,122,90,143,110,118
2025-03-17 18:54:56.158,-545.0,128.0,862.0,-2.0,2.0,0.0,122,91,143,107,118
2025-03-17 18:54:56.183,-553.0,124.0,833.0,-4.0,-1.0,-1.0,121,90,143,108,118
2025-03-17 18:54:56.204,-545.0,117.0,834.0,-4.0,-3.0,0.0,126,91,143,110,118
2025-03-17 18:54:56.226,-552.0,122.0,839.0,0.0,-1.0,1.0,121,90,143,109,118
2025-03-17 18:54:56.250,-567.0,142.0,831.0,0.0,-2.0,0.0,120,89,143,107,118
2025-03-17 18:54:56.274,-575.0,125.0,841.0,-3.0,-4.0,-1.0,123,89,131,108,118
2025-03-17 18:54:56.302,-563.0,109.0,855.0,0.0,-5.0,0.0,120,91,144,107,119
2025-03-17 18:54:56.327,-565.0,111.0,877.0,0.0,-2.0,0.0,121,91,143,108,122
2025-03-17 18:54:56.350,-572.0,110.0,874.0,-1.0,-3.0,-1.0,121,91,147,108,119
2025-03-17 18:54:56.372,-564.0,103.0,887.0,1.0,-3.0,0.0,121,90,143,108,118
2025-03-17 18:54:56.396,-562.0,125.0,879.0,2.0,-1.0,1.0,120,89,143,107,119
2025-03-17 18:54:56.421,-556.0,115.0,889.0,-1.0,0.0,0.0,122,90,143,108,118
2025-03-17 18:54:56.445,-554.0,111.0,877.0,1.0,2.0,0.0,121,92,143,109,118
2025-03-17 18:54:56.470,-553.0,136.0,872.0,0.0,4.0,-1.0,122,90,143,108,119
2025-03-17 18:54:56.494,-558.0,126.0,870.0,0.0,4.0,-1.0,121,87,143,109,119
2025-03-17 18:54:56.519,-551.0,113.0,856.0,-2.0,2.0,-2.0,123,89,144,109,118
2025-03-17 18:54:56.540,-546.0,114.0,867.0,0.0,2.0,0.0,122,90,143,108,118
2025-03-17 18:54:56.565,-559.0,128.0,857.0,1.0,3.0,0.0,121,91,143,113,118
2025-03-17 18:54:56.589,-558.0,121.0,854.0,-1.0,2.0,0.0,121,89,143,108,120
2025-03-17 18:54:56.600,-557.0,118.0,850.0,-1.0,2.0,-1.0,122,90,144,107,119
2025-03-17 18:54:56.638,-556.0,124.0,838.0,0.0,3.0,0.0,121,90,143,108,119
2025-03-17 18:54:56.662,-565.0,132.0,832.0,1.0,1.0,0.0,121,90,144,106,119
2025-03-17 18:54:56.686,-563.0,136.0,836.0,-1.0,0.0,0.0,123,90,144,107,119
2025-03-17 18:54:56.708,-532.0,123.0,861.0,-1.0,-1.0,-1.0,121,90,143,108,119
2025-03-17 18:54:56.733,-559.0,123.0,836.0,0.0,0.0,0.0,125,92,143,107,118
2025-03-17 18:54:56.757,-564.0,125.0,828.0,1.0,-2.0,0.0,122,90,142,108,119
2025-03-17 18:54:56.781,-561.0,132.0,849.0,0.0,-2.0,0.0,125,89,143,108,120
2025-03-17 18:54:56.806,-561.0,142.0,856.0,-1.0,0.0,0.0,124,91,143,107,118
2025-03-17 18:54:56.830,-573.0,142.0,848.0,0.0,0.0,-1.0,124,91,143,107,118
2025-03-17 18:54:56.855,-567.0,146.0,832.0,-1.0,-2.0,-2.0,123,90,143,106,118
2025-03-17 18:54:56.877,-563.0,125.0,831.0,-2.0,-3.0,-3.0,122,91,144,108,119
2025-03-17 18:54:56.899,-554.0,133.0,839.0,-1.0,-3.0,-2.0,124,90,143,109,119
2025-03-17 18:54:56.924,-572.0,134.0,840.0,-3.0,-1.0,-2.0,123,90,144,108,119
2025-03-17 18:54:56.949,-584.0,124.0,828.0,-1.0,-2.0,-1.0,123,91,143,109,119
2025-03-17 18:54:56.972,-573.0,116.0,835.0,0.0,-3.0,2.0,122,93,144,109,119
2025-03-17 18:54:56.998,-577.0,139.0,833.0,-4.0,-3.0,0.0,122,90,143,108,121
2025-03-17 18:54:57.020,-579.0,105.0,833.0,-4.0,-3.0,1.0,124,90,143,108,119
2025-03-17 18:54:57.044,-569.0,111.0,836.0,-3.0,-2.0,3.0,122,90,144,108,119
2025-03-17 18:54:57.069,-572.0,121.0,834.0,-5.0,-2.0,2.0,123,90,144,108,118
2025-03-17 18:54:57.093,-578.0,117.0,841.0,-5.0,-3.0,2.0,123,91,144,107,118
2025-03-17 18:54:57.118,-585.0,107.0,872.0,-3.0,-3.0,3.0,125,90,144,107,118
2025-03-17 18:54:57.142,-587.0,137.0,905.0,-3.0,0.0,2.0,122,90,143,109,119
2025-03-17 18:54:57.167,-586.0,144.0,841.0,-8.0,2.0,-1.0,123,90,143,106,119
2025-03-17 18:54:57.189,-575.0,127.0,873.0,-11.0,5.0,-5.0,123,90,137,108,118
2025-03-17 18:54:57.215,-552.0,112.0,851.0,-11.0,8.0,-7.0,124,85,143,109,118
2025-03-17 18:54:57.237,-543.0,72.0,846.0,-12.0,5.0,-6.0,123,90,142,108,119
2025-03-17 18:54:57.254,-536.0,62.0,913.0,-7.0,9.0,-3.0,123,89,144,109,120
2025-03-17 18:54:57.285,-527.0,81.0,908.0,-7.0,9.0,-3.0,122,90,143,108,119
2025-03-17 18:54:57.310,-554.0,69.0,848.0,-9.0,7.0,-5.0,124,90,143,108,118
2025-03-17 18:54:57.334,-514.0,108.0,872.0,-12.0,5.0,-6.0,123,90,144,106,120
2025-03-17 18:54:57.358,-509.0,63.0,840.0,-14.0,3.0,-7.0,122,90,143,109,120
2025-03-17 18:54:57.380,-523.0,64.0,862.0,-15.0,2.0,-6.0,124,90,143,109,120
2025-03-17 18:54:57.405,-518.0,46.0,835.0,-11.0,0.0,-1.0,123,90,144,108,118
2025-03-17 18:54:57.429,-528.0,67.0,834.0,-9.0,1.0,2.0,125,90,145,108,119
2025-03-17 18:54:57.453,-567.0,64.0,808.0,-7.0,-2.0,3.0,123,90,143,107,118
2025-03-17 18:54:57.476,-579.0,112.0,833.0,-8.0,-5.0,3.0,126,89,143,109,118
2025-03-17 18:54:57.502,-570.0,109.0,847.0,-6.0,-4.0,1.0,124,89,143,109,118
2025-03-17 18:54:57.527,-583.0,104.0,867.0,-3.0,-1.0,0.0,124,90,140,109,118
2025-03-17 18:54:57.548,-609.0,120.0,863.0,-1.0,0.0,-2.0,123,89,143,108,117
2025-03-17 18:54:57.572,-585.0,120.0,810.0,-4.0,-5.0,-5.0,122,89,143,107,119
2025-03-17 18:54:57.596,-566.0,101.0,859.0,-8.0,-3.0,-8.0,122,89,143,108,116
2025-03-17 18:54:57.621,-563.0,97.0,815.0,-10.0,-1.0,-11.0,120,89,142,107,115
2025-03-17 18:54:57.646,-584.0,145.0,745.0,-20.0,-3.0,-17.0,122,83,142,100,111
2025-03-17 18:54:57.668,-597.0,130.0,511.0,-30.0,-22.0,-31.0,121,75,140,102,102
2025-03-17 18:54:57.693,-578.0,171.0,392.0,-84.0,-64.0,-49.0,117,62,137,95,75
2025-03-17 18:54:57.719,-716.0,111.0,473.0,-94.0,-95.0,-56.0,119,46,125,87,52
2025-03-17 18:54:57.740,-408.0,3.0,393.0,-167.0,-174.0,-58.0,113,33,110,72,46
2025-03-17 18:54:57.765,-66.0,-234.0,1965.0,-266.0,-115.0,-53.0,115,35,100,53,42
2025-03-17 18:54:57.789,-166.0,-947.0,2316.0,-337.0,62.0,-19.0,113,34,95,65,40
2025-03-17 18:54:57.800,34.0,-1466.0,2229.0,-291.0,179.0,59.0,105,34,93,64,37
2025-03-17 18:54:57.839,-472.0,-1665.0,1935.0,-232.0,231.0,126.0,96,33,92,64,36
2025-03-17 18:54:57.849,-358.0,-1316.0,1128.0,-209.0,284.0,146.0,89,36,94,62,37
2025-03-17 18:54:57.888,-355.0,-1121.0,634.0,-157.0,279.0,190.0,82,35,83,64,37
2025-03-17 18:54:57.908,-402.0,-704.0,348.0,-69.0,273.0,264.0,83,33,91,63,38
2025-03-17 18:54:57.932,-229.0,0.0,195.0,-32.0,244.0,283.0,87,33,91,64,39
2025-03-17 18:54:57.954,-334.0,566.0,-78.0,-30.0,234.0,224.0,87,35,92,64,39
2025-03-17 18:54:57.982,-396.0,640.0,-234.0,-24.0,189.0,164.0,87,35,92,64,39
2025-03-17 18:54:58.006,-431.0,740.0,-399.0,-4.0,145.0,130.0,91,36,94,64,40
2025-03-17 18:54:58.030,-463.0,767.0,-445.0,15.0,114.0,110.0,90,36,96,64,40
2025-03-17 18:54:58.055,-252.0,1187.0,-944.0,57.0,62.0,116.0,94,36,94,64,41
2025-03-17 18:54:58.076,-71.0,2288.0,-1905.0,112.0,-88.0,45.0,89,36,95,63,36
2025-03-17 18:54:58.101,111.0,3306.0,-2537.0,48.0,-307.0,-242.0,94,37,95,60,38
2025-03-17 18:54:58.124,641.0,3732.0,-2662.0,-85.0,-543.0,-716.0,89,32,84,61,42
2025-03-17 18:54:58.150,2708.0,3960.0,-2742.0,-217.0,-945.0,-1244.0,90,32,86,60,39
2025-03-17 18:54:58.171,11111.0,-577.0,3991.0,-311.0,-932.0,-1134.0,89,32,80,60,41
2025-03-17 18:54:58.195,5168.0,-10355.0,1336.0,-204.0,50.0,-255.0,85,35,85,64,47
2025-03-17 18:54:58.223,2413.0,-4845.0,1255.0,157.0,231.0,310.0,93,24,82,64,48
2025-03-17 18:54:58.244,870.0,-2117.0,639.0,-10.0,78.0,344.0,88,26,94,64,47
2025-03-17 18:54:58.269,101.0,-1219.0,970.0,2.0,107.0,386.0,83,27,96,65,48
2025-03-17 18:54:58.292,-94.0,-378.0,524.0,40.0,158.0,338.0,91,32,74,65,48
2025-03-17 18:54:58.318,-288.0,-325.0,276.0,-13.0,171.0,257.0,93,34,97,66,47
2025-03-17 18:54:58.342,-359.0,-381.0,211.0,-45.0,149.0,214.0,92,40,99,67,44
2025-03-17 18:54:58.366,-360.0,-525.0,327.0,36.0,125.0,230.0,97,39,100,68,44
2025-03-17 18:54:58.391,-367.0,-329.0,186.0,58.0,143.0,236.0,96,35,88,67,45
2025-03-17 18:54:58.412,-439.0,-363.0,183.0,66.0,132.0,250.0,92,39,99,67,45
2025-03-17 18:54:58.437,-409.0,-341.0,194.0,109.0,137.0,282.0,96,41,98,71,46
2025-03-17 18:54:58.461,-279.0,-256.0,192.0,149.0,149.0,333.0,95,35,87,66,47
2025-03-17 18:54:58.486,-439.0,335.0,-179.0,155.0,130.0,368.0,99,33,99,67,48
2025-03-17 18:54:58.510,-547.0,1111.0,-636.0,155.0,59.0,313.0,104,38,94,65,47
2025-03-17 18:54:58.535,-490.0,2446.0,-1457.0,135.0,-55.0,117.0,105,39,100,62,47
2025-03-17 18:54:58.559,-550.0,3718.0,-2216.0,20.0,-227.0,-300.0,106,37,100,68,45
2025-03-17 18:54:58.584,127.0,4341.0,-3107.0,-186.0,-470.0,-866.0,103,32,97,65,45
2025-03-17 18:54:58.605,3186.0,3366.0,-1745.0,-378.0,-944.0,-1370.0,99,38,77,65,46
2025-03-17 18:54:58.629,9835.0,-6981.0,1485.0,26.0,-790.0,-638.0,97,33,93,65,47
2025-03-17 18:54:58.654,3751.0,-7760.0,1223.0,-103.0,149.0,127.0,93,29,71,61,49
2025-03-17 18:54:58.678,920.0,-2180.0,293.0,37.0,205.0,276.0,97,33,100,71,47
2025-03-17 18:54:58.703,-219.0,-1901.0,706.0,-98.0,41.0,312.0,96,24,102,69,49
2025-03-17 18:54:58.727,138.0,-999.0,945.0,11.0,125.0,360.0,98,35,83,70,50
2025-03-17 18:54:58.751,-340.0,-38.0,604.0,50.0,162.0,307.0,100,37,102,69,49
2025-03-17 18:54:58.772,-452.0,535.0,78.0,-59.0,167.0,171.0,93,40,104,72,51
2025-03-17 18:54:58.795,-569.0,-246.0,-11.0,-128.0,103.0,154.0,102,40,105,72,51
2025-03-17 18:54:58.812,-263.0,-562.0,268.0,-52.0,90.0,180.0,107,38,104,73,52
2025-03-17 18:54:58.844,-212.0,-331.0,319.0,40.0,115.0,210.0,110,36,86,72,53
2025-03-17 18:54:58.870,-544.0,-183.0,-50.0,46.0,130.0,222.0,114,38,103,71,53
2025-03-17 18:54:58.895,-576.0,-159.0,-39.0,41.0,83.0,216.0,111,33,91,73,47
2025-03-17 18:54:58.917,-504.0,26.0,-84.0,108.0,73.0,238.0,118,30,102,73,46
2025-03-17 18:54:58.941,-628.0,1734.0,-716.0,65.0,19.0,136.0,119,32,102,71,47
2025-03-17 18:54:58.965,-1262.0,4472.0,-2431.0,29.0,-94.0,-314.0,124,35,102,69,44
2025-03-17 18:54:58.989,-814.0,4183.0,-3785.0,-120.0,-463.0,-852.0,123,30,85,62,42
2025-03-17 18:54:59.015,3209.0,3501.0,-3344.0,-382.0,-1022.0,-1135.0,130,28,100,64,41
2025-03-17 18:54:59.038,8358.0,-6470.0,896.0,-498.0,-810.0,-553.0,135,33,94,66,40
2025-03-17 18:54:59.062,4761.0,-8286.0,1090.0,265.0,251.0,17.0,132,32,90,66,44
2025-03-17 18:54:59.087,319.0,-1654.0,3654.0,202.0,257.0,214.0,131,36,84,67,45
2025-03-17 18:54:59.108,200.0,-1768.0,1193.0,34.0,45.0,188.0,134,37,95,66,45
2025-03-17 18:54:59.133,232.0,-1590.0,-887.0,74.0,155.0,215.0,136,37,89,68,45
2025-03-17 18:54:59.146,-35.0,-608.0,1253.0,55.0,190.0,224.0,136,37,90,68,45
2025-03-17 18:54:59.182,-50.0,-372.0,565.0,80.0,172.0,181.0,136,37,104,68,47
2025-03-17 18:54:59.206,24.0,-465.0,485.0,41.0,186.0,177.0,135,37,105,69,45
2025-03-17 18:54:59.230,161.0,-901.0,443.0,58.0,265.0,246.0,135,38,106,70,46
2025-03-17 18:54:59.255,-60.0,-703.0,238.0,90.0,234.0,289.0,129,28,77,70,46
2025-03-17 18:54:59.267,-452.0,-241.0,255.0,118.0,192.0,288.0,124,31,97,72,46
2025-03-17 18:54:59.297,-161.0,15.0,472.0,69.0,157.0,276.0,121,38,86,72,46
2025-03-17 18:54:59.325,-587.0,-313.0,72.0,27.0,142.0,297.0,124,30,95,74,47
2025-03-17 18:54:59.350,-700.0,-182.0,-246.0,131.0,80.0,295.0,118,35,95,75,48
2025-03-17 18:54:59.372,-642.0,1151.0,-493.0,169.0,76.0,266.0,124,37,101,73,47
2025-03-17 18:54:59.399,-997.0,3212.0,-1777.0,114.0,-33.0,-10.0,124,34,104,72,46
2025-03-17 18:54:59.421,-867.0,4011.0,-2708.0,-22.0,-287.0,-521.0,125,36,94,70,44
2025-03-17 18:54:59.448,243.0,3972.0,-3414.0,-38.0,-702.0,-1068.0,121,33,96,69,46
2025-03-17 18:54:59.469,7077.0,655.0,993.0,-662.0,-1222.0,-1137.0,134,35,70,69,46
2025-03-17 18:54:59.493,7883.0,-9104.0,3762.0,-718.0,-57.0,-301.0,136,39,88,70,46
2025-03-17 18:54:59.518,2852.0,-5133.0,-1247.0,438.0,489.0,351.0,136,33,75,71,47
2025-03-17 18:54:59.541,123.0,-1052.0,2213.0,-1.0,70.0,276.0,137,32,101,71,49
2025-03-17 18:54:59.557,334.0,-1411.0,1229.0,106.0,104.0,246.0,135,38,100,71,49
2025-03-17 18:54:59.589,-158.0,-769.0,749.0,33.0,267.0,313.0,137,39,96,75,46
2025-03-17 18:54:59.606,-388.0,-414.0,272.0,6.0,211.0,324.0,136,37,105,72,48
2025-03-17 18:54:59.637,-67.0,-221.0,1030.0,83.0,189.0,303.0,133,38,107,74,51
2025-03-17 18:54:59.661,-45.0,-326.0,-94.0,179.0,227.0,274.0,128,38,110,69,63
2025-03-17 18:54:59.686,-419.0,-237.0,23.0,148.0,166.0,313.0,123,37,114,0,73
2025-03-17 18:54:59.710,-551.0,-453.0,-84.0,130.0,170.0,307.0,120,44,124,39,98
2025-03-17 18:54:59.734,-509.0,89.0,1486.0,50.0,75.0,319.0,118,49,111,0,106
2025-03-17 18:54:59.759,-755.0,245.0,-187.0,200.0,136.0,309.0,116,56,133,64,102
2025-03-17 18:54:59.784,-750.0,379.0,-101.0,93.0,106.0,292.0,114,52,135,99,107
2025-03-17 18:54:59.805,-708.0,1206.0,-615.0,121.0,9.0,204.0,114,60,141,99,108
2025-03-17 18:54:59.829,-591.0,2258.0,-2074.0,45.0,-90.0,-24.0,114,67,141,99,108
2025-03-17 18:54:59.854,-836.0,2639.0,-2453.0,-153.0,-281.0,-429.0,120,79,78,97,108
2025-03-17 18:54:59.878,-163.0,2244.0,-2196.0,-325.0,-466.0,-835.0,120,79,127,96,108
2025-03-17 18:54:59.902,3761.0,781.0,-1465.0,-290.0,-655.0,-1077.0,128,79,141,95,110
2025-03-17 18:54:59.927,3643.0,-5952.0,1708.0,-613.0,-232.0,-932.0,124,72,140,97,116
2025-03-17 18:54:59.945,3621.0,-5104.0,1383.0,-93.0,-167.0,-126.0,136,56,139,97,119
2025-03-17 18:54:59.972,1888.0,-3972.0,1199.0,212.0,148.0,308.0,137,51,143,102,119
2025-03-17 18:54:59.998,212.0,-1241.0,218.0,105.0,146.0,338.0,135,85,143,102,119
2025-03-17 18:55:00.021,-398.0,-972.0,1379.0,-134.0,97.0,254.0,138,82,145,103,120
2025-03-17 18:55:00.044,-300.0,-1128.0,572.0,-69.0,173.0,245.0,137,100,144,103,120
2025-03-17 18:55:00.071,-273.0,-268.0,326.0,22.0,217.0,309.0,135,97,144,104,120
2025-03-17 18:55:00.095,-343.0,-112.0,413.0,33.0,241.0,308.0,135,98,144,103,119
2025-03-17 18:55:00.120,-215.0,-361.0,116.0,86.0,214.0,324.0,134,93,144,103,118
2025-03-17 18:55:00.141,-52.0,-833.0,-681.0,130.0,133.0,337.0,133,102,145,104,118
2025-03-17 18:55:00.165,-423.0,-294.0,-99.0,120.0,81.0,321.0,130,90,144,104,117
2025-03-17 18:55:00.190,-467.0,-7.0,122.0,100.0,36.0,302.0,127,84,145,104,115
2025-03-17 18:55:00.213,-377.0,563.0,36.0,182.0,-35.0,282.0,122,78,145,103,112
2025-03-17 18:55:00.238,-681.0,1419.0,-805.0,107.0,-82.0,224.0,122,90,146,104,118
2025-03-17 18:55:00.263,-947.0,2691.0,-1978.0,77.0,-159.0,-151.0,120,96,145,104,111
2025-03-17 18:55:00.288,-1301.0,2559.0,-1977.0,-109.0,-335.0,-645.0,118,97,143,103,113
2025-03-17 18:55:00.310,-100.0,2751.0,-1601.0,-113.0,-575.0,-956.0,118,88,135,100,112
2025-03-17 18:55:00.333,7043.0,-71.0,-209.0,-475.0,-1131.0,-970.0,123,83,114,102,114
2025-03-17 18:55:00.358,4325.0,-7132.0,2933.0,-251.0,-226.0,-368.0,128,64,144,99,117
2025-03-17 18:55:00.382,2569.0,-5723.0,2744.0,248.0,230.0,278.0,128,46,143,85,117
2025-03-17 18:55:00.406,514.0,-1265.0,850.0,251.0,323.0,392.0,131,67,143,103,114
2025-03-17 18:55:00.431,-559.0,-291.0,1004.0,-63.0,124.0,240.0,132,71,143,105,110
2025-03-17 18:55:00.455,-778.0,-584.0,858.0,-132.0,164.0,158.0,129,86,115,103,110
2025-03-17 18:55:00.476,-644.0,-698.0,490.0,-134.0,167.0,188.0,133,78,135,99,107
2025-03-17 18:55:00.501,-396.0,-711.0,1316.0,-49.0,177.0,219.0,128,70,136,82,100
2025-03-17 18:55:00.525,-153.0,-248.0,448.0,37.0,215.0,206.0,132,55,133,95,91
2025-03-17 18:55:00.547,-477.0,-357.0,261.0,-31.0,247.0,238.0,130,48,109,67,76
2025-03-17 18:55:00.563,-402.0,-553.0,-186.0,-27.0,173.0,286.0,128,42,126,8,68
2025-03-17 18:55:00.597,-272.0,-532.0,-12.0,82.0,127.0,304.0,123,42,124,0,63
2025-03-17 18:55:00.623,-361.0,-277.0,55.0,115.0,126.0,300.0,120,23,105,0,59
2025-03-17 18:55:00.645,-770.0,398.0,-462.0,99.0,53.0,285.0,117,16,102,0,46
2025-03-17 18:55:00.669,-577.0,1504.0,-1278.0,83.0,-30.0,161.0,115,25,99,0,39
2025-03-17 18:55:00.693,-1018.0,3933.0,-2198.0,15.0,-186.0,-286.0,111,28,99,0,34
2025-03-17 18:55:00.718,-206.0,3122.0,-3093.0,-151.0,-510.0,-864.0,114,27,85,0,33
2025-03-17 18:55:00.741,3794.0,2744.0,-6643.0,-430.0,-1103.0,-1178.0,119,22,96,27,33
2025-03-17 18:55:00.765,7269.0,-4507.0,2297.0,-738.0,-854.0,-786.0,132,28,62,38,36
2025-03-17 18:55:00.791,4862.0,-7757.0,1821.0,-13.0,25.0,-187.0,128,33,86,38,40
2025-03-17 18:55:00.812,1679.0,-3420.0,-568.0,266.0,175.0,195.0,131,31,78,42,43
2025-03-17 18:55:00.837,618.0,-1638.0,497.0,-14.0,36.0,183.0,135,36,87,53,43
2025-03-17 18:55:00.862,150.0,-1520.0,895.0,26.0,72.0,190.0,135,36,92,54,41
2025-03-17 18:55:00.886,139.0,-1021.0,745.0,32.0,161.0,245.0,134,36,96,59,42
2025-03-17 18:55:00.911,-169.0,-745.0,220.0,32.0,166.0,272.0,136,36,98,57,41
2025-03-17 18:55:00.935,82.0,-572.0,339.0,63.0,180.0,238.0,136,38,103,62,45
2025-03-17 18:55:00.959,-98.0,-665.0,194.0,81.0,221.0,251.0,135,36,99,64,43
2025-03-17 18:55:00.980,3.0,-589.0,343.0,54.0,250.0,318.0,133,36,106,67,43
2025-03-17 18:55:01.005,-64.0,-877.0,351.0,93.0,238.0,405.0,131,29,106,68,43
2025-03-17 18:55:01.029,367.0,-65.0,206.0,230.0,268.0,429.0,128,35,106,71,44
2025-03-17 18:55:01.054,-599.0,47.0,-574.0,172.0,140.0,431.0,128,22,91,65,45
2025-03-17 18:55:01.078,-517.0,1024.0,-444.0,157.0,52.0,313.0,122,28,81,65,41
2025-03-17 18:55:01.103,-954.0,2499.0,-955.0,81.0,0.0,27.0,119,25,98,67,43
2025-03-17 18:55:01.127,-808.0,3436.0,-1879.0,-45.0,-165.0,-399.0,121,31,97,63,42
2025-03-17 18:55:01.152,-460.0,2791.0,-2676.0,-120.0,-417.0,-805.0,124,27,89,61,47
2025-03-17 18:55:01.173,1859.0,2061.0,-2629.0,-348.0,-811.0,-1113.0,124,32,105,56,45
2025-03-17 18:55:01.198,7818.0,-2455.0,2534.0,-602.0,-687.0,-833.0,133,35,95,64,43
2025-03-17 18:55:01.222,3916.0,-7452.0,1804.0,16.0,101.0,-102.0,129,36,90,64,46
2025-03-17 18:55:01.247,1407.0,-3253.0,-169.0,284.0,244.0,284.0,131,33,84,65,47
2025-03-17 18:55:01.271,133.0,-971.0,650.0,63.0,148.0,269.0,133,37,82,71,46
2025-03-17 18:55:01.294,-120.0,-1348.0,483.0,79.0,122.0,278.0,132,36,105,70,47
2025-03-17 18:55:01.317,-293.0,-826.0,789.0,81.0,137.0,247.0,131,34,108,73,50
2025-03-17 18:55:01.341,-183.0,-800.0,1077.0,112.0,144.0,212.0,131,35,111,65,54
2025-03-17 18:55:01.366,-196.0,-768.0,578.0,112.0,131.0,205.0,129,39,115,62,61
2025-03-17 18:55:01.390,-307.0,-981.0,564.0,139.0,163.0,214.0,129,40,104,55,60
2025-03-17 18:55:01.414,-314.0,-918.0,898.0,94.0,181.0,265.0,122,49,106,62,62
2025-03-17 18:55:01.439,-251.0,-468.0,125.0,151.0,267.0,318.0,121,42,130,60,56
2025-03-17 18:55:01.463,-411.0,-48.0,239.0,190.0,228.0,358.0,128,55,131,57,48
2025-03-17 18:55:01.484,-570.0,94.0,37.0,205.0,196.0,361.0,128,65,139,27,40
2025-03-17 18:55:01.509,-726.0,773.0,147.0,191.0,165.0,282.0,129,72,140,42,46
2025-03-17 18:55:01.533,-735.0,1143.0,-505.0,107.0,96.0,126.0,130,80,142,48,46
2025-03-17 18:55:01.557,-834.0,1833.0,-1125.0,50.0,-37.0,-96.0,130,85,142,58,48
2025-03-17 18:55:01.582,-884.0,2445.0,-2358.0,-9.0,-294.0,-440.0,123,84,122,60,47
2025-03-17 18:55:01.606,-647.0,3175.0,-3098.0,-108.0,-745.0,-772.0,109,72,138,40,48
2025-03-17 18:55:01.631,2859.0,1684.0,-2562.0,-269.0,-1218.0,-893.0,85,74,137,23,41
2025-03-17 18:55:01.655,5462.0,-3512.0,2036.0,-201.0,-811.0,-524.0,98,68,136,47,46
2025-03-17 18:55:01.676,5075.0,-4914.0,3208.0,42.0,-162.0,66.0,97,0,129,64,50
2025-03-17 18:55:01.701,1637.0,-2018.0,2019.0,311.0,331.0,177.0,97,61,134,71,51
2025-03-17 18:55:01.725,-427.0,-770.0,1560.0,-17.0,194.0,188.0,101,48,141,79,54
2025-03-17 18:55:01.750,-164.0,-919.0,1525.0,-25.0,184.0,176.0,102,84,144,74,54
2025-03-17 18:55:01.763,-241.0,-727.0,912.0,41.0,301.0,185.0,105,85,137,82,56
2025-03-17 18:55:01.799,-267.0,-434.0,609.0,26.0,287.0,208.0,103,80,104,85,57
2025-03-17 18:55:01.824,-196.0,-292.0,481.0,-15.0,240.0,203.0,104,88,129,91,58
2025-03-17 18:55:01.844,-203.0,-472.0,447.0,58.0,245.0,196.0,105,92,145,91,56
2025-03-17 18:55:01.869,-194.0,-336.0,346.0,94.0,249.0,210.0,108,94,145,78,56
2025-03-17 18:55:01.894,-384.0,-291.0,226.0,91.0,247.0,242.0,108,98,146,84,57
2025-03-17 18:55:01.917,-414.0,-160.0,125.0,120.0,220.0,249.0,104,103,123,80,54
2025-03-17 18:55:01.940,-523.0,192.0,202.0,126.0,202.0,223.0,110,104,140,77,52
2025-03-17 18:55:01.967,-807.0,592.0,-20.0,60.0,141.0,163.0,114,105,143,66,51
2025-03-17 18:55:01.989,-789.0,879.0,-335.0,21.0,79.0,61.0,112,105,146,64,47
2025-03-17 18:55:02.006,-828.0,1255.0,-1303.0,-19.0,-33.0,-68.0,114,104,146,60,52
2025-03-17 18:55:02.037,-1124.0,1731.0,-2190.0,-22.0,-310.0,-253.0,113,106,142,66,52
2025-03-17 18:55:02.061,-1037.0,1784.0,-2062.0,-71.0,-681.0,-540.0,109,99,88,74,54
2025-03-17 18:55:02.086,1510.0,1027.0,-1642.0,-141.0,-1070.0,-688.0,103,98,130,72,55
2025-03-17 18:55:02.110,4744.0,-2730.0,2815.0,-164.0,-768.0,-396.0,101,95,121,85,59
2025-03-17 18:55:02.135,3502.0,-3496.0,2682.0,-248.0,-314.0,67.0,101,90,146,90,56
2025-03-17 18:55:02.159,1628.0,-2461.0,2114.0,-68.0,22.0,59.0,101,75,144,93,58
2025-03-17 18:55:02.181,485.0,-1593.0,1562.0,33.0,118.0,109.0,104,64,145,99,58
2025-03-17 18:55:02.205,-141.0,-779.0,1331.0,-51.0,149.0,148.0,106,82,147,98,56
2025-03-17 18:55:02.229,-183.0,-699.0,1004.0,-69.0,158.0,129.0,103,97,128,97,58
2025-03-17 18:55:02.253,-2.0,-908.0,922.0,-25.0,194.0,116.0,115,87,143,91,63
2025-03-17 18:55:02.266,199.0,-942.0,750.0,30.0,251.0,146.0,124,87,123,92,64
2025-03-17 18:55:02.303,150.0,-607.0,828.0,46.0,318.0,225.0,111,97,145,81,68
2025-03-17 18:55:02.321,180.0,-288.0,460.0,52.0,360.0,293.0,122,103,145,90,72
2025-03-17 18:55:02.349,12.0,-430.0,421.0,30.0,321.0,367.0,122,88,116,78,69
2025-03-17 18:55:02.373,-87.0,-238.0,19.0,74.0,317.0,375.0,123,67,121,55,63
2025-03-17 18:55:02.397,-665.0,368.0,-203.0,101.0,186.0,296.0,126,58,140,78,57
2025-03-17 18:55:02.419,-1125.0,1417.0,-266.0,63.0,79.0,129.0,132,54,109,65,59
2025-03-17 18:55:02.446,-1032.0,1694.0,-796.0,-28.0,-13.0,-87.0,124,40,111,73,52
2025-03-17 18:55:02.471,-748.0,2237.0,-2107.0,-31.0,-133.0,-338.0,114,39,115,63,49
2025-03-17 18:55:02.492,-259.0,2220.0,-2024.0,-51.0,-386.0,-611.0,109,30,115,74,44
2025-03-17 18:55:02.520,699.0,2358.0,-2250.0,-211.0,-717.0,-880.0,113,22,90,68,46
2025-03-17 18:55:02.541,4082.0,-1856.0,-956.0,-326.0,-1036.0,-669.0,99,23,96,60,48
2025-03-17 18:55:02.566,5640.0,-6001.0,3988.0,-337.0,-68.0,-185.0,120,34,121,58,49
2025-03-17 18:55:02.590,1729.0,-4857.0,1032.0,433.0,228.0,156.0,129,25,110,70,49
2025-03-17 18:55:02.615,337.0,-679.0,191.0,18.0,49.0,186.0,130,33,74,69,52
2025-03-17 18:55:02.639,1132.0,-2647.0,-637.0,-11.0,-4.0,121.0,131,33,106,83,48
2025-03-17 18:55:02.664,98.0,-1364.0,1224.0,25.0,135.0,185.0,131,33,116,90,49
2025-03-17 18:55:02.685,-249.0,-669.0,604.0,47.0,138.0,200.0,131,36,115,86,51
2025-03-17 18:55:02.709,-73.0,-397.0,661.0,-17.0,116.0,172.0,125,36,116,92,49
2025-03-17 18:55:02.734,129.0,-640.0,747.0,-13.0,153.0,170.0,137,38,116,92,48
2025-03-17 18:55:02.757,-112.0,-849.0,363.0,40.0,201.0,196.0,131,38,116,92,50
2025-03-17 18:55:02.770,-110.0,-434.0,381.0,36.0,217.0,227.0,131,34,117,90,51
2025-03-17 18:55:02.807,12.0,-283.0,441.0,67.0,238.0,226.0,129,33,118,95,49
2025-03-17 18:55:02.831,-540.0,-44.0,183.0,92.0,238.0,243.0,127,39,121,93,50
2025-03-17 18:55:02.856,-719.0,1307.0,-771.0,92.0,172.0,155.0,126,34,122,97,46
2025-03-17 18:55:02.877,-1334.0,2899.0,-2013.0,15.0,-1.0,-171.0,124,39,122,93,50
2025-03-17 18:55:02.901,-1415.0,3080.0,-2897.0,-70.0,-345.0,-568.0,121,39,120,94,50
2025-03-17 18:55:02.926,1050.0,2444.0,-1894.0,-157.0,-757.0,-836.0,126,25,119,94,49
2025-03-17 18:55:02.950,4402.0,-1997.0,862.0,-411.0,-782.0,-660.0,130,38,116,88,51
2025-03-17 18:55:02.975,4458.0,-6257.0,2542.0,-69.0,41.0,-170.0,132,40,121,93,52
2025-03-17 18:55:02.999,1734.0,-3775.0,190.0,352.0,217.0,161.0,130,39,117,92,53
2025-03-17 18:55:03.012,446.0,-992.0,541.0,46.0,91.0,129.0,132,41,119,93,51
2025-03-17 18:55:03.043,225.0,-1480.0,799.0,5.0,76.0,114.0,136,40,119,92,54
2025-03-17 18:55:03.060,113.0,-1543.0,939.0,29.0,135.0,156.0,134,37,122,93,53
2025-03-17 18:55:03.092,213.0,-1349.0,697.0,23.0,210.0,237.0,131,39,119,93,48
2025-03-17 18:55:03.109,276.0,-664.0,606.0,59.0,227.0,252.0,130,34,121,93,54
2025-03-17 18:55:03.143,138.0,-839.0,447.0,145.0,249.0,231.0,130,38,123,89,58
2025-03-17 18:55:03.168,120.0,-330.0,-275.0,72.0,282.0,259.0,126,38,123,75,62
2025-03-17 18:55:03.189,-145.0,-359.0,218.0,81.0,293.0,291.0,123,33,121,57,62
2025-03-17 18:55:03.213,-3.0,-320.0,269.0,108.0,256.0,316.0,122,35,117,36,62
2025-03-17 18:55:03.237,-511.0,-327.0,-354.0,74.0,179.0,332.0,124,38,93,0,69
2025-03-17 18:55:03.261,-422.0,76.0,-263.0,60.0,159.0,325.0,122,24,107,32,64
2025-03-17 18:55:03.286,-586.0,860.0,-959.0,104.0,97.0,289.0,126,31,100,0,54
2025-03-17 18:55:03.311,-779.0,3169.0,-3116.0,68.0,-19.0,-48.0,122,29,89,37,35
2025-03-17 18:55:03.335,-555.0,4119.0,-4083.0,-101.0,-374.0,-758.0,108,35,97,43,41
2025-03-17 18:55:03.360,355.0,3028.0,-4188.0,-113.0,-1031.0,-1087.0,99,26,98,55,41
2025-03-17 18:55:03.381,10400.0,669.0,2961.0,-662.0,-1185.0,-982.0,102,24,84,37,44
2025-03-17 18:55:03.405,7403.0,-8357.0,4180.0,-274.0,-27.0,-86.0,90,40,90,62,46
2025-03-17 18:55:03.430,2189.0,-4988.0,-277.0,574.0,424.0,261.0,95,23,42,64,49
2025-03-17 18:55:03.453,446.0,-277.0,1039.0,118.0,150.0,297.0,93,29,100,63,51
2025-03-17 18:55:03.478,117.0,-870.0,1688.0,-80.0,117.0,197.0,99,33,101,69,52
2025-03-17 18:55:03.503,16.0,-1279.0,1146.0,-5.0,239.0,211.0,103,36,90,68,49
2025-03-17 18:55:03.521,-100.0,-602.0,685.0,10.0,296.0,232.0,105,35,87,72,49
2025-03-17 18:55:03.549,-86.0,-311.0,617.0,-66.0,270.0,255.0,104,37,94,71,51
2025-03-17 18:55:03.571,-167.0,-454.0,365.0,-62.0,265.0,251.0,107,36,103,71,49
2025-03-17 18:55:03.595,-249.0,-429.0,184.0,9.0,257.0,262.0,107,38,77,73,50
2025-03-17 18:55:03.619,-295.0,-203.0,178.0,8.0,245.0,278.0,110,38,105,75,49
2025-03-17 18:55:03.647,-426.0,-444.0,91.0,32.0,226.0,291.0,115,36,104,75,49
2025-03-17 18:55:03.670,-393.0,17.0,-164.0,101.0,195.0,310.0,115,35,101,77,50
2025-03-17 18:55:03.695,-416.0,1148.0,-673.0,90.0,130.0,268.0,119,36,104,79,48
2025-03-17 18:55:03.717,-542.0,1937.0,-1411.0,101.0,26.0,74.0,121,39,105,81,47
2025-03-17 18:55:03.741,-623.0,3825.0,-2231.0,32.0,-160.0,-404.0,120,39,104,82,45
2025-03-17 18:55:03.765,238.0,4339.0,-3300.0,-165.0,-437.0,-982.0,109,36,102,82,40
2025-03-17 18:55:03.789,3137.0,3446.0,-3275.0,-319.0,-982.0,-1420.0,104,38,92,70,40
2025-03-17 18:55:03.814,9142.0,1399.0,2342.0,-622.0,-848.0,-1260.0,101,35,78,64,44
2025-03-17 18:55:03.839,9161.0,-11169.0,3421.0,151.0,194.0,84.0,100,37,99,64,46
2025-03-17 18:55:03.863,2100.0,-2336.0,-2120.0,480.0,408.0,430.0,101,39,83,70,48
2025-03-17 18:55:03.885,129.0,-949.0,216.0,1.0,0.0,330.0,103,34,97,71,50
2025-03-17 18:55:03.909,231.0,-1711.0,1445.0,70.0,47.0,305.0,104,40,86,70,48
2025-03-17 18:55:03.934,198.0,-1120.0,859.0,208.0,272.0,313.0,111,40,108,68,43
2025-03-17 18:55:03.958,131.0,-830.0,178.0,170.0,335.0,361.0,112,44,108,73,52
2025-03-17 18:55:03.983,134.0,-699.0,342.0,196.0,248.0,377.0,117,41,107,71,54
2025-03-17 18:55:04.007,12.0,-449.0,-193.0,181.0,248.0,381.0,117,29,92,72,60
2025-03-17 18:55:04.032,-236.0,-174.0,-197.0,235.0,240.0,374.0,116,51,105,72,55
2025-03-17 18:55:04.053,-329.0,111.0,90.0,221.0,186.0,341.0,107,50,102,63,42
2025-03-17 18:55:04.077,-605.0,654.0,-291.0,133.0,153.0,267.0,96,57,102,31,32
2025-03-17 18:55:04.102,-851.0,984.0,-577.0,92.0,110.0,147.0,86,60,106,47,42
2025-03-17 18:55:04.126,-1263.0,1445.0,-1882.0,74.0,-90.0,-20.0,79,57,100,53,40
2025-03-17 18:55:04.150,-1313.0,2233.0,-3153.0,129.0,-561.0,-301.0,69,40,97,56,45
2025-03-17 18:55:04.175,1235.0,1639.0,-3663.0,96.0,-1144.0,-389.0,70,32,95,62,44
2025-03-17 18:55:04.187,5095.0,-1392.0,-372.0,260.0,-1208.0,-127.0,70,33,98,48,57
2025-03-17 18:55:04.223,3795.0,-293.0,3495.0,510.0,-661.0,-60.0,64,31,97,62,63
2025-03-17 18:55:04.245,2729.0,872.0,4707.0,108.0,18.0,-68.0,68,66,101,62,67
2025-03-17 18:55:04.268,1573.0,623.0,2692.0,-55.0,91.0,38.0,73,79,84,67,68
2025-03-17 18:55:04.293,996.0,421.0,2742.0,-191.0,248.0,44.0,75,53,80,68,68
2025-03-17 18:55:04.316,482.0,336.0,1246.0,-166.0,409.0,12.0,77,58,90,67,66
2025-03-17 18:55:04.343,-18.0,-64.0,1035.0,-87.0,346.0,24.0,77,68,88,67,66
2025-03-17 18:55:04.367,208.0,373.0,1253.0,-158.0,378.0,16.0,76,81,101,68,64
2025-03-17 18:55:04.388,168.0,-40.0,863.0,-176.0,422.0,23.0,81,72,101,68,64
2025-03-17 18:55:04.413,-377.0,-320.0,-72.0,-50.0,324.0,57.0,79,68,102,69,58
2025-03-17 18:55:04.437,-108.0,238.0,642.0,-19.0,243.0,43.0,79,76,102,68,57
2025-03-17 18:55:04.462,-71.0,107.0,647.0,-145.0,301.0,49.0,80,63,98,68,56
2025-03-17 18:55:04.486,-498.0,-420.0,97.0,-97.0,248.0,89.0,81,66,104,67,50
2025-03-17 18:55:04.510,-463.0,-132.0,109.0,-21.0,161.0,103.0,79,65,103,67,52
2025-03-17 18:55:04.535,-621.0,360.0,176.0,8.0,148.0,52.0,82,58,103,68,53
2025-03-17 18:55:04.556,-835.0,435.0,-87.0,-49.0,109.0,29.0,83,66,105,69,50
2025-03-17 18:55:04.581,-682.0,833.0,-358.0,-83.0,20.0,-22.0,83,70,106,69,50
2025-03-17 18:55:04.605,-633.0,975.0,-1249.0,-18.0,-83.0,-113.0,90,82,107,70,48
2025-03-17 18:55:04.630,-1983.0,814.0,-3255.0,25.0,-328.0,-322.0,83,64,101,71,46
2025-03-17 18:55:04.642,941.0,1446.0,-3930.0,179.0,-1201.0,-365.0,80,50,94,70,45
2025-03-17 18:55:04.678,5506.0,-1041.0,-596.0,99.0,-1417.0,-148.0,69,65,91,70,53
2025-03-17 18:55:04.704,5163.0,-1420.0,6444.0,321.0,-562.0,58.0,79,65,100,68,63
2025-03-17 18:55:04.727,2428.0,-161.0,3950.0,24.0,245.0,-85.0,78,81,94,70,66
2025-03-17 18:55:04.748,-122.0,-243.0,2949.0,13.0,260.0,18.0,80,85,100,71,66
2025-03-17 18:55:04.770,552.0,-276.0,1474.0,-178.0,182.0,97.0,82,88,96,72,62
2025-03-17 18:55:04.795,323.0,30.0,1440.0,-251.0,212.0,105.0,82,77,103,72,62
2025-03-17 18:55:04.822,328.0,-146.0,1574.0,-238.0,413.0,83.0,80,61,104,73,62
2025-03-17 18:55:04.846,481.0,-379.0,1150.0,-99.0,528.0,108.0,82,61,106,73,61
2025-03-17 18:55:04.871,479.0,-76.0,636.0,-59.0,560.0,139.0,87,71,104,75,55
2025-03-17 18:55:04.896,166.0,-13.0,366.0,-79.0,532.0,127.0,97,67,109,75,63
2025-03-17 18:55:04.917,-148.0,-344.0,-554.0,65.0,265.0,156.0,101,62,119,23,61
2025-03-17 18:55:04.941,-526.0,-559.0,-282.0,-46.0,240.0,207.0,103,80,130,0,79
2025-03-17 18:55:04.963,-609.0,-275.0,-315.0,51.0,187.0,185.0,102,70,135,0,69
2025-03-17 18:55:04.988,-769.0,102.0,-238.0,27.0,187.0,156.0,102,78,138,0,98
2025-03-17 18:55:05.014,-961.0,535.0,-253.0,28.0,72.0,131.0,102,66,129,41,101
2025-03-17 18:55:05.037,-468.0,965.0,-797.0,40.0,33.0,74.0,102,68,137,91,104
2025-03-17 18:55:05.061,-634.0,1890.0,-1951.0,-3.0,-111.0,-148.0,102,79,138,98,103
2025-03-17 18:55:05.087,-606.0,2590.0,-2479.0,-97.0,-331.0,-549.0,104,70,140,95,107
2025-03-17 18:55:05.109,-125.0,2023.0,-2577.0,-159.0,-548.0,-846.0,103,90,95,94,111
2025-03-17 18:55:05.134,4573.0,749.0,4575.0,-296.0,-1105.0,-953.0,95,99,120,94,113
2025-03-17 18:55:05.158,4702.0,-4042.0,3475.0,-225.0,-628.0,-559.0,112,45,139,86,117
2025-03-17 18:55:05.182,3887.0,-6027.0,2908.0,-9.0,63.0,153.0,116,50,143,97,118
2025-03-17 18:55:05.207,749.0,-2223.0,1227.0,262.0,328.0,393.0,116,95,143,96,118
2025-03-17 18:55:05.231,-667.0,-792.0,768.0,-36.0,184.0,228.0,117,108,144,102,118
2025-03-17 18:55:05.255,-519.0,-787.0,414.0,-186.0,64.0,163.0,118,110,144,101,118
2025-03-17 18:55:05.277,20.0,-944.0,407.0,-141.0,116.0,154.0,116,109,145,102,119
2025-03-17 18:55:05.302,-368.0,-856.0,404.0,-30.0,208.0,222.0,115,95,145,102,118
2025-03-17 18:55:05.327,-267.0,-351.0,165.0,-33.0,212.0,228.0,115,110,146,101,118
2025-03-17 18:55:05.351,-183.0,-248.0,317.0,-53.0,210.0,218.0,113,109,144,103,118
2025-03-17 18:55:05.374,-73.0,-302.0,373.0,22.0,188.0,261.0,110,108,144,102,118
2025-03-17 18:55:05.400,-539.0,-375.0,31.0,32.0,159.0,287.0,110,108,144,102,121
2025-03-17 18:55:05.420,-406.0,-49.0,-94.0,51.0,87.0,277.0,111,101,145,102,118
2025-03-17 18:55:05.445,-418.0,143.0,-199.0,70.0,30.0,264.0,109,101,146,102,116
2025-03-17 18:55:05.469,-523.0,2708.0,-417.0,96.0,-76.0,217.0,105,98,146,102,116
2025-03-17 18:55:05.494,-587.0,1376.0,-1841.0,133.0,-150.0,100.0,99,89,145,102,111
2025-03-17 18:55:05.518,-864.0,1912.0,-2316.0,154.0,-355.0,-266.0,92,100,146,100,109
2025-03-17 18:55:05.543,-916.0,2244.0,-1904.0,118.0,-486.0,-702.0,103,102,147,97,108
2025-03-17 18:55:05.565,1231.0,2293.0,-1001.0,142.0,-719.0,-804.0,101,100,145,101,108
2025-03-17 18:55:05.591,5002.0,-907.0,-493.0,-647.0,-716.0,-1018.0,100,68,144,79,110
2025-03-17 18:55:05.613,6689.0,-5515.0,577.0,-545.0,-511.0,-491.0,94,90,144,76,118
2025-03-17 18:55:05.638,4131.0,-5971.0,1847.0,213.0,319.0,419.0,99,53,144,97,118
2025-03-17 18:55:05.662,863.0,-800.0,261.0,331.0,519.0,514.0,106,97,147,97,117
2025-03-17 18:55:05.686,-783.0,-666.0,-250.0,-103.0,335.0,342.0,93,82,145,104,114
2025-03-17 18:55:05.710,-448.0,-499.0,284.0,-228.0,47.0,187.0,105,105,111,105,114
2025-03-17 18:55:05.735,313.0,-755.0,-50.0,-101.0,78.0,64.0,103,108,131,104,113
2025-03-17 18:55:05.760,-50.0,-1123.0,-63.0,27.0,116.0,163.0,97,106,142,106,114
2025-03-17 18:55:05.781,-115.0,-626.0,372.0,32.0,143.0,241.0,109,105,142,103,109
2025-03-17 18:55:05.805,-200.0,-499.0,324.0,11.0,147.0,270.0,107,102,124,96,104
2025-03-17 18:55:05.830,-350.0,-499.0,467.0,51.0,188.0,304.0,107,106,122,96,83
2025-03-17 18:55:05.842,-446.0,-215.0,-30.0,41.0,135.0,362.0,106,97,132,94,85
2025-03-17 18:55:05.879,-543.0,462.0,-519.0,86.0,8.0,359.0,105,82,121,26,77
2025-03-17 18:55:05.903,-906.0,1023.0,-1041.0,123.0,-97.0,185.0,98,73,108,0,45
2025-03-17 18:55:05.928,-2344.0,2012.0,-1630.0,97.0,-165.0,-235.0,102,83,93,0,21
2025-03-17 18:55:05.949,1078.0,2876.0,-4355.0,261.0,-1123.0,-685.0,82,33,79,0,24
2025-03-17 18:55:05.971,6105.0,-1109.0,-93.0,149.0,-1353.0,-349.0,73,32,82,0,46
2025-03-17 18:55:05.998,5557.0,-704.0,6372.0,612.0,-350.0,-53.0,77,41,91,61,57
2025-03-17 18:55:06.022,1634.0,-1093.0,3160.0,206.0,225.0,-56.0,69,61,86,65,64
2025-03-17 18:55:06.046,706.0,233.0,1462.0,-102.0,153.0,48.0,75,69,92,70,60
2025-03-17 18:55:06.071,767.0,-573.0,2315.0,-207.0,248.0,105.0,73,65,85,71,62
2025-03-17 18:55:06.095,388.0,-530.0,1457.0,-108.0,380.0,103.0,83,85,91,71,63
2025-03-17 18:55:06.116,161.0,-727.0,613.0,-10.0,355.0,93.0,78,83,89,69,60
2025-03-17 18:55:06.141,107.0,-9.0,729.0,-77.0,328.0,96.0,82,66,93,72,61
2025-03-17 18:55:06.166,-2.0,-124.0,527.0,-129.0,344.0,100.0,82,70,96,70,60
2025-03-17 18:55:06.188,-306.0,-539.0,206.0,-90.0,314.0,153.0,86,61,94,72,54
2025-03-17 18:55:06.215,-257.0,-255.0,288.0,14.0,241.0,160.0,87,60,94,72,54
2025-03-17 18:55:06.238,-6.0,106.0,542.0,15.0,272.0,119.0,88,58,92,72,54
2025-03-17 18:55:06.260,-523.0,27.0,70.0,-24.0,244.0,140.0,90,52,96,74,51
2025-03-17 18:55:06.284,-599.0,257.0,-454.0,-3.0,125.0,174.0,91,80,101,75,51
2025-03-17 18:55:06.309,-630.0,1071.0,-926.0,109.0,50.0,54.0,90,60,99,71,44
2025-03-17 18:55:06.334,-2149.0,2400.0,-4047.0,202.0,-390.0,-284.0,88,80,102,69,46
2025-03-17 18:55:06.358,293.0,3119.0,-4008.0,111.0,-1185.0,-545.0,81,40,100,73,45
2025-03-17 18:55:06.383,6027.0,-922.0,-259.0,-68.0,-1433.0,-278.0,79,68,87,71,50
2025-03-17 18:55:06.407,5900.0,-1922.0,4279.0,440.0,-621.0,36.0,83,46,95,71,64
2025-03-17 18:55:06.432,2665.0,-619.0,4226.0,34.0,301.0,-78.0,86,48,99,73,69
2025-03-17 18:55:06.453,-348.0,-1207.0,8733.0,-131.0,364.0,19.0,92,78,101,71,68
2025-03-17 18:55:06.478,457.0,-623.0,1802.0,-230.0,330.0,102.0,99,81,107,77,66
2025-03-17 18:55:06.502,247.0,-321.0,1694.0,-289.0,322.0,139.0,103,60,111,74,61
2025-03-17 18:55:06.526,166.0,-451.0,1052.0,-262.0,370.0,145.0,105,60,112,77,57
2025-03-17 18:55:06.551,152.0,-696.0,576.0,-102.0,391.0,153.0,107,60,117,77,56
2025-03-17 18:55:06.575,172.0,-329.0,629.0,-21.0,405.0,160.0,116,81,98,75,50
2025-03-17 18:55:06.599,26.0,-319.0,106.0,17.0,358.0,185.0,118,75,121,80,55
2025-03-17 18:55:06.611,-238.0,-327.0,295.0,20.0,338.0,222.0,122,81,122,68,54
2025-03-17 18:55:06.645,-459.0,-105.0,-189.0,46.0,264.0,236.0,123,78,135,66,53
2025-03-17 18:55:06.670,-441.0,444.0,-332.0,94.0,239.0,219.0,114,68,133,26,51
2025-03-17 18:55:06.694,-485.0,860.0,-816.0,95.0,162.0,158.0,124,76,137,0,56
2025-03-17 18:55:06.718,-736.0,1745.0,-1955.0,56.0,-11.0,-6.0,115,90,137,0,51
2025-03-17 18:55:06.742,-1076.0,2343.0,-2774.0,42.0,-355.0,-375.0,117,97,114,27,47
2025-03-17 18:55:06.768,-385.0,2051.0,-2803.0,-26.0,-791.0,-686.0,81,86,139,18,50
2025-03-17 18:55:06.788,3298.0,1261.0,-513.0,-200.0,-1283.0,-753.0,92,98,139,41,47
2025-03-17 18:55:06.813,5215.0,-4521.0,2431.0,-120.0,-818.0,-331.0,94,75,116,58,49
2025-03-17 18:55:06.837,4415.0,-4570.0,3716.0,94.0,105.0,174.0,94,42,137,81,57
2025-03-17 18:55:06.862,651.0,-1151.0,2070.0,214.0,343.0,132.0,94,40,118,84,57
2025-03-17 18:55:06.886,98.0,-793.0,1836.0,-116.0,226.0,148.0,103,55,142,82,61
2025-03-17 18:55:06.911,-153.0,-1067.0,996.0,-41.0,228.0,210.0,103,111,146,85,61
2025-03-17 18:55:06.934,-333.0,-481.0,666.0,32.0,279.0,198.0,104,102,134,89,61
2025-03-17 18:55:06.957,-504.0,-6.0,374.0,-20.0,266.0,179.0,104,101,138,93,61
2025-03-17 18:55:06.981,-501.0,-102.0,406.0,-40.0,216.0,167.0,105,104,147,93,59
2025-03-17 18:55:07.005,-191.0,-507.0,399.0,7.0,210.0,168.0,109,104,145,90,62
2025-03-17 18:55:07.030,-226.0,-287.0,431.0,87.0,217.0,183.0,110,114,146,86,60
2025-03-17 18:55:07.043,-477.0,-54.0,234.0,67.0,195.0,181.0,110,114,146,89,61
2025-03-17 18:55:07.079,-458.0,-78.0,229.0,38.0,149.0,175.0,103,111,132,86,59
2025-03-17 18:55:07.104,-483.0,168.0,164.0,58.0,142.0,167.0,110,114,146,71,59
2025-03-17 18:55:07.128,-588.0,672.0,-314.0,72.0,141.0,154.0,112,114,149,76,57
2025-03-17 18:55:07.147,-796.0,1931.0,-1632.0,-29.0,11.0,13.0,102,112,145,57,55
2025-03-17 18:55:07.174,-1430.0,2342.0,-2934.0,70.0,-401.0,-367.0,107,112,147,65,54
2025-03-17 18:55:07.198,-459.0,2577.0,-3540.0,-47.0,-958.0,-720.0,104,104,120,64,54
2025-03-17 18:55:07.223,4321.0,0.0,24.0,-297.0,-1170.0,-762.0,101,115,130,69,53
2025-03-17 18:55:07.247,4749.0,-4337.0,3827.0,13.0,-585.0,-195.0,99,67,136,88,64
2025-03-17 18:55:07.271,3014.0,-3075.0,2667.0,194.0,207.0,186.0,100,64,143,80,75
2025-03-17 18:55:07.291,94.0,-722.0,2075.0,36.0,264.0,52.0,101,88,139,72,70
2025-03-17 18:55:07.317,-34.0,-988.0,1663.0,-134.0,125.0,97.0,106,96,138,91,72
2025-03-17 18:55:07.342,-49.0,-1021.0,1529.0,-46.0,213.0,125.0,109,100,143,88,75
2025-03-17 18:55:07.366,-120.0,-563.0,1038.0,-13.0,297.0,128.0,117,111,139,77,75
2025-03-17 18:55:07.391,-405.0,-261.0,574.0,-66.0,279.0,109.0,121,82,123,90,76
2025-03-17 18:55:07.415,-51.0,-708.0,619.0,-35.0,247.0,104.0,124,110,141,91,74
2025-03-17 18:55:07.437,20.0,-625.0,528.0,-36.0,292.0,148.0,109,99,92,93,69
2025-03-17 18:55:07.461,-205.0,-526.0,258.0,17.0,290.0,200.0,119,91,125,96,69
2025-03-17 18:55:07.485,-246.0,-255.0,204.0,56.0,277.0,222.0,124,86,107,89,68
2025-03-17 18:55:07.509,-570.0,-11.0,-247.0,44.0,193.0,232.0,121,81,103,91,56
2025-03-17 18:55:07.520,-357.0,190.0,-423.0,46.0,161.0,217.0,98,65,99,60,52
2025-03-17 18:55:07.559,-902.0,971.0,-1938.0,159.0,-32.0,82.0,85,65,80,61,47
2025-03-17 18:55:07.568,-1480.0,2412.0,-4475.0,196.0,-679.0,-270.0,75,61,88,68,44
2025-03-17 18:55:07.607,2023.0,1925.0,-3436.0,105.0,-1383.0,-356.0,73,33,75,71,48
2025-03-17 18:55:07.631,5541.0,-1259.0,1006.0,382.0,-1291.0,-67.0,65,49,73,75,55
2025-03-17 18:55:07.653,4134.0,738.0,6482.0,383.0,-402.0,-70.0,73,63,76,70,66
2025-03-17 18:55:07.678,2129.0,-408.0,3823.0,93.0,192.0,-54.0,71,62,81,80,72
2025-03-17 18:55:07.702,896.0,168.0,2412.0,-91.0,160.0,26.0,73,69,78,79,73
2025-03-17 18:55:07.726,160.0,-1186.0,4065.0,-225.0,169.0,55.0,78,62,75,80,72
2025-03-17 18:55:07.751,393.0,-681.0,1370.0,-102.0,319.0,28.0,81,64,94,83,72
2025-03-17 18:55:07.775,-45.0,-461.0,937.0,-1.0,297.0,64.0,81,69,88,83,71
2025-03-17 18:55:07.796,77.0,357.0,875.0,-149.0,273.0,90.0,81,70,96,83,71
2025-03-17 18:55:07.821,83.0,-694.0,444.0,-165.0,267.0,57.0,83,58,89,83,69
2025-03-17 18:55:07.845,-2.0,-650.0,572.0,30.0,284.0,69.0,82,65,89,82,66
2025-03-17 18:55:07.867,-9.0,157.0,728.0,-11.0,311.0,88.0,83,58,87,83,66
2025-03-17 18:55:07.884,-119.0,37.0,361.0,-128.0,307.0,116.0,82,51,99,83,64
2025-03-17 18:55:07.919,-508.0,-259.0,30.0,-40.0,212.0,81.0,85,55,99,82,59
2025-03-17 18:55:07.943,-458.0,61.0,65.0,65.0,144.0,83.0,85,47,99,84,59
2025-03-17 18:55:07.967,-366.0,631.0,416.0,-42.0,196.0,73.0,84,47,91,82,61
2025-03-17 18:55:07.981,-971.0,612.0,-627.0,-79.0,152.0,56.0,85,61,101,80,55
2025-03-17 18:55:08.013,-1580.0,1300.0,-3443.0,120.0,-156.0,-156.0,82,57,98,82,52
2025-03-17 18:55:08.037,-1043.0,2594.0,-4020.0,128.0,-835.0,-401.0,86,51,95,80,50
2025-03-17 18:55:08.062,2818.0,133.0,-2680.0,-110.0,-1402.0,-264.0,79,64,98,79,53
2025-03-17 18:55:08.087,6140.0,-3192.0,3022.0,419.0,-867.0,-54.0,77,53,95,78,64
2025-03-17 18:55:08.111,3382.0,594.0,5164.0,343.0,-10.0,-92.0,79,31,100,76,76
2025-03-17 18:55:08.136,1844.0,-193.0,3643.0,-81.0,251.0,21.0,86,40,101,79,78
2025-03-17 18:55:08.157,670.0,-202.0,2458.0,-224.0,223.0,52.0,94,77,107,81,76
2025-03-17 18:55:08.181,375.0,-440.0,1642.0,-173.0,208.0,68.0,112,63,108,83,76
2025-03-17 18:55:08.205,427.0,-511.0,1547.0,-122.0,336.0,69.0,99,54,112,82,75
2025-03-17 18:55:08.230,302.0,-326.0,1008.0,-153.0,428.0,90.0,106,63,112,81,73
2025-03-17 18:55:08.254,252.0,-280.0,918.0,-160.0,456.0,137.0,112,74,106,76,74
2025-03-17 18:55:08.279,198.0,-148.0,790.0,-111.0,458.0,125.0,114,81,118,68,61
2025-03-17 18:55:08.304,216.0,-45.0,356.0,-96.0,493.0,113.0,112,80,122,21,75
2025-03-17 18:55:08.325,-423.0,0.0,-39.0,-103.0,429.0,148.0,114,66,126,0,68
2025-03-17 18:55:08.348,-301.0,-243.0,-66.0,-25.0,258.0,163.0,108,53,121,0,79
2025-03-17 18:55:08.374,-585.0,-141.0,49.0,11.0,237.0,145.0,122,45,123,0,86
2025-03-17 18:55:08.398,-714.0,296.0,-341.0,34.0,197.0,123.0,121,36,125,0,84
2025-03-17 18:55:08.422,-565.0,794.0,-1282.0,41.0,59.0,85.0,118,31,120,0,81
2025-03-17 18:55:08.447,-533.0,2318.0,-1837.0,45.0,-50.0,-170.0,109,28,112,5,56
2025-03-17 18:55:08.472,-1245.0,4776.0,-3968.0,-61.0,-324.0,-646.0,114,27,107,0,20
2025-03-17 18:55:08.495,2366.0,2968.0,-3803.0,-124.0,-1106.0,-1082.0,109,16,86,0,30
2025-03-17 18:55:08.517,6914.0,-547.0,-554.0,-178.0,-1182.0,-1014.0,106,25,92,49,35
2025-03-17 18:55:08.539,7981.0,-6983.0,3958.0,-292.0,-178.0,-219.0,97,23,91,40,45
2025-03-17 18:55:08.566,2818.0,-6620.0,-100.0,387.0,379.0,158.0,104,29,90,69,45
2025-03-17 18:55:08.591,553.0,-711.0,74.0,115.0,181.0,303.0,100,32,84,77,46
2025-03-17 18:55:08.614,103.0,-1393.0,972.0,-152.0,42.0,237.0,99,33,98,75,46
2025-03-17 18:55:08.639,122.0,-1575.0,1084.0,-39.0,113.0,266.0,108,29,80,71,47
2025-03-17 18:55:08.661,-16.0,-915.0,759.0,98.0,180.0,238.0,110,28,89,75,47
2025-03-17 18:55:08.685,-96.0,-485.0,661.0,0.0,214.0,241.0,111,22,106,76,50
2025-03-17 18:55:08.710,-442.0,-705.0,472.0,-57.0,177.0,242.0,107,31,104,78,49
2025-03-17 18:55:08.734,94.0,-764.0,587.0,28.0,182.0,277.0,112,29,105,83,48
2025-03-17 18:55:08.758,231.0,-397.0,688.0,55.0,267.0,278.0,114,30,99,76,49
2025-03-17 18:55:08.782,-577.0,-124.0,-98.0,37.0,251.0,258.0,112,34,103,73,53
2025-03-17 18:55:08.806,-379.0,-83.0,96.0,31.0,156.0,262.0,113,33,107,84,52
2025-03-17 18:55:08.829,-178.0,62.0,248.0,54.0,165.0,234.0,114,34,107,84,55
2025-03-17 18:55:08.853,-628.0,250.0,-556.0,110.0,149.0,204.0,116,30,107,80,56
2025-03-17 18:55:08.878,-834.0,972.0,-972.0,36.0,47.0,170.0,113,34,92,83,55
2025-03-17 18:55:08.902,-422.0,1625.0,-835.0,14.0,-60.0,20.0,117,33,108,76,56
2025-03-17 18:55:08.926,-464.0,1857.0,-1446.0,63.0,-135.0,-195.0,116,35,107,76,55
2025-03-17 18:55:08.951,-1482.0,2023.0,-2319.0,128.0,-352.0,-472.0,121,27,105,77,48
2025-03-17 18:55:08.963,-1.0,2424.0,-2670.0,268.0,-958.0,-765.0,116,33,104,73,46
2025-03-17 18:55:09.000,6421.0,-618.0,2404.0,-121.0,-1140.0,-717.0,111,30,91,63,49
2025-03-17 18:55:09.021,6369.0,-4469.0,4440.0,270.0,-206.0,58.0,110,27,85,72,62
2025-03-17 18:55:09.046,907.0,-1661.0,2271.0,260.0,357.0,-21.0,121,28,104,78,58
2025-03-17 18:55:09.067,-805.0,-148.0,829.0,29.0,242.0,22.0,117,34,100,79,61
2025-03-17 18:55:09.094,-542.0,-434.0,545.0,35.0,108.0,27.0,119,35,101,81,65
2025-03-17 18:55:09.119,-601.0,-365.0,475.0,113.0,72.0,19.0,119,35,104,82,65
2025-03-17 18:55:09.143,-580.0,-53.0,327.0,135.0,-34.0,-20.0,116,33,102,82,66
2025-03-17 18:55:09.163,94.0,-344.0,274.0,84.0,-103.0,-31.0,116,30,103,82,66
2025-03-17 18:55:09.189,-80.0,-523.0,951.0,144.0,-78.0,-10.0,108,34,105,82,65
2025-03-17 18:55:09.213,-160.0,-136.0,1074.0,133.0,-6.0,-12.0,121,35,105,83,65
2025-03-17 18:55:09.238,-276.0,-93.0,1010.0,88.0,18.0,-43.0,122,37,105,82,64
2025-03-17 18:55:09.254,-249.0,-286.0,899.0,100.0,38.0,-52.0,125,35,105,75,65
2025-03-17 18:55:09.285,-117.0,-680.0,640.0,104.0,-5.0,-44.0,127,37,104,82,65
2025-03-17 18:55:09.311,799.0,-1890.0,1225.0,67.0,-37.0,56.0,130,34,105,83,64
2025-03-17 18:55:09.336,1870.0,-3224.0,2465.0,-36.0,71.0,341.0,131,36,100,82,66
2025-03-17 18:55:09.357,2977.0,-4034.0,2344.0,-247.0,191.0,809.0,135,28,99,79,63
2025-03-17 18:55:09.381,2784.0,-459.0,1845.0,-227.0,111.0,966.0,135,25,105,67,59
2025-03-17 18:55:09.406,1000.0,3379.0,895.0,-109.0,78.0,640.0,102,29,106,73,59
2025-03-17 18:55:09.430,474.0,3028.0,-193.0,233.0,151.0,305.0,128,27,102,79,50
2025-03-17 18:55:09.455,-92.0,4023.0,257.0,75.0,33.0,162.0,129,31,97,78,51
2025-03-17 18:55:09.479,-177.0,3409.0,139.0,151.0,41.0,-128.0,128,33,95,77,51
2025-03-17 18:55:09.496,-445.0,2100.0,473.0,82.0,-64.0,-289.0,123,29,96,79,50
2025-03-17 18:55:09.526,-70.0,1038.0,932.0,125.0,-154.0,-366.0,127,36,94,78,54
2025-03-17 18:55:09.550,356.0,592.0,817.0,35.0,-226.0,-445.0,121,24,100,72,59
2025-03-17 18:55:09.575,509.0,-248.0,779.0,156.0,-286.0,-446.0,129,35,105,71,62
2025-03-17 18:55:09.599,666.0,-590.0,1460.0,225.0,-178.0,-295.0,131,38,106,74,64
2025-03-17 18:55:09.623,36.0,51.0,1122.0,138.0,-132.0,-234.0,129,35,108,76,64
2025-03-17 18:55:09.647,-54.0,-236.0,815.0,84.0,-172.0,-212.0,131,30,106,75,64
2025-03-17 18:55:09.671,279.0,-685.0,1209.0,141.0,-160.0,-158.0,132,38,104,75,65
2025-03-17 18:55:09.693,118.0,-210.0,1338.0,81.0,-96.0,-116.0,128,37,103,76,64
2025-03-17 18:55:09.717,511.0,-948.0,1424.0,-23.0,-87.0,-4.0,130,34,103,77,64
2025-03-17 18:55:09.740,1466.0,-2230.0,2110.0,-48.0,21.0,219.0,131,35,106,77,63
2025-03-17 18:55:09.767,2643.0,-2843.0,2501.0,-230.0,331.0,594.0,130,33,108,74,64
2025-03-17 18:55:09.789,2703.0,-351.0,1642.0,-408.0,345.0,832.0,132,32,104,74,63
2025-03-17 18:55:09.814,2106.0,1145.0,598.0,-471.0,188.0,803.0,125,28,106,72,62
2025-03-17 18:55:09.840,768.0,2493.0,929.0,75.0,263.0,336.0,132,35,104,72,55
2025-03-17 18:55:09.861,-472.0,4055.0,753.0,162.0,266.0,195.0,140,35,105,72,51
2025-03-17 18:55:09.885,-389.0,3671.0,500.0,-40.0,278.0,-106.0,140,34,90,66,50
2025-03-17 18:55:09.896,-259.0,1318.0,1660.0,-53.0,274.0,-256.0,134,34,95,76,53
2025-03-17 18:55:09.934,-519.0,-744.0,1373.0,-60.0,289.0,-208.0,134,36,101,74,58
2025-03-17 18:55:09.959,-615.0,-814.0,741.0,-17.0,271.0,-149.0,131,36,111,59,61
2025-03-17 18:55:09.983,-657.0,-876.0,405.0,205.0,235.0,-113.0,124,32,118,54,72
2025-03-17 18:55:10.007,-866.0,-1026.0,-104.0,199.0,200.0,-67.0,112,40,124,5,70
2025-03-17 18:55:10.028,-744.0,-727.0,285.0,159.0,195.0,-13.0,111,45,122,0,53
2025-03-17 18:55:10.054,-900.0,-370.0,-47.0,111.0,140.0,21.0,110,47,119,0,83
2025-03-17 18:55:10.077,-851.0,247.0,-115.0,88.0,136.0,27.0,109,56,113,0,104
2025-03-17 18:55:10.102,-500.0,884.0,-727.0,98.0,122.0,-18.0,107,61,138,78,104
2025-03-17 18:55:10.127,-368.0,1587.0,-1691.0,135.0,-12.0,-193.0,107,59,139,98,99
2025-03-17 18:55:10.151,-438.0,1605.0,-1585.0,7.0,-194.0,-501.0,110,62,86,99,100
2025-03-17 18:55:10.176,-109.0,1403.0,-2451.0,92.0,-356.0,-808.0,109,68,120,95,100
2025-03-17 18:55:10.200,1768.0,1785.0,-1792.0,-64.0,-1073.0,-873.0,97,75,113,70,102
2025-03-17 18:55:10.225,5544.0,297.0,-5559.0,-116.0,-1030.0,-723.0,112,78,128,92,106
2025-03-17 18:55:10.246,4927.0,-4910.0,3997.0,-82.0,-574.0,-231.0,108,64,108,95,115
2025-03-17 18:55:10.268,2805.0,-4705.0,2318.0,163.0,186.0,224.0,122,39,140,97,112
2025-03-17 18:55:10.295,686.0,-948.0,1286.0,160.0,306.0,345.0,123,72,141,97,116
2025-03-17 18:55:10.319,-610.0,-616.0,945.0,-131.0,224.0,248.0,122,75,143,99,116
2025-03-17 18:55:10.343,-355.0,-683.0,594.0,-231.0,186.0,172.0,124,84,125,100,115
2025-03-17 18:55:10.368,-258.0,-1117.0,411.0,-162.0,128.0,203.0,120,87,123,96,117
2025-03-17 18:55:10.389,47.0,-622.0,500.0,-39.0,210.0,290.0,123,92,142,100,116
2025-03-17 18:55:10.414,-247.0,-320.0,116.0,-27.0,217.0,293.0,122,94,143,101,115
2025-03-17 18:55:10.437,-222.0,-254.0,156.0,-3.0,139.0,296.0,115,93,99,102,115
2025-03-17 18:55:10.462,-106.0,-204.0,155.0,19.0,60.0,292.0,115,73,125,100,114
2025-03-17 18:55:10.487,-684.0,-157.0,220.0,79.0,104.0,281.0,114,73,134,101,114
2025-03-17 18:55:10.509,-764.0,323.0,-110.0,58.0,80.0,251.0,115,77,136,99,113
2025-03-17 18:55:10.526,-750.0,522.0,-240.0,101.0,-3.0,189.0,114,77,93,99,112
2025-03-17 18:55:10.557,-810.0,1796.0,-1257.0,82.0,-10.0,25.0,111,71,141,100,112
2025-03-17 18:55:10.582,-1102.0,2517.0,-2253.0,-17.0,-232.0,-383.0,112,79,127,100,112
2025-03-17 18:55:10.606,-951.0,2193.0,-2334.0,75.0,-375.0,-784.0,110,86,103,100,115
2025-03-17 18:55:10.630,1769.0,3396.0,860.0,-260.0,-1163.0,-1027.0,106,97,111,98,116
2025-03-17 18:55:10.655,6888.0,-2863.0,4048.0,-465.0,-847.0,-931.0,117,93,140,102,119
2025-03-17 18:55:10.665,5202.0,-6816.0,2841.0,6.0,84.0,137.0,115,77,143,99,121
2025-03-17 18:55:10.703,1519.0,-2465.0,36.0,470.0,403.0,498.0,119,58,124,103,120
2025-03-17 18:55:10.714,-1273.0,768.0,568.0,159.0,217.0,229.0,124,75,140,104,116
2025-03-17 18:55:10.753,-1035.0,-469.0,602.0,-6.0,81.0,88.0,121,83,135,91,116
2025-03-17 18:55:10.762,-722.0,-604.0,395.0,94.0,123.0,73.0,121,64,134,29,111
2025-03-17 18:55:10.799,-234.0,-560.0,375.0,120.0,102.0,80.0,121,46,132,44,99
2025-03-17 18:55:10.823,-230.0,-721.0,689.0,123.0,61.0,59.0,114,42,74,0,84
2025-03-17 18:55:10.847,-439.0,-685.0,608.0,151.0,37.0,103.0,120,42,72,0,47
2025-03-17 18:55:10.871,-495.0,-555.0,168.0,184.0,-27.0,108.0,122,22,99,0,45
2025-03-17 18:55:10.896,106.0,-280.0,-363.0,251.0,-106.0,55.0,124,31,114,0,64
2025-03-17 18:55:10.921,-506.0,-210.0,403.0,312.0,-82.0,52.0,123,38,117,0,67
2025-03-17 18:55:10.941,-404.0,-137.0,729.0,358.0,-77.0,23.0,118,31,110,0,62
2025-03-17 18:55:10.966,-211.0,-84.0,1071.0,300.0,-90.0,-26.0,121,34,105,29,50
2025-03-17 18:55:10.991,466.0,-1262.0,1647.0,151.0,-97.0,28.0,118,26,98,43,54
2025-03-17 18:55:11.015,1487.0,-2664.0,2039.0,-30.0,-31.0,225.0,120,32,78,47,53
2025-03-17 18:55:11.040,1930.0,-2912.0,2184.0,-107.0,92.0,607.0,120,28,77,66,55
2025-03-17 18:55:11.062,1962.0,-523.0,1533.0,-119.0,68.0,752.0,125,28,80,69,50
2025-03-17 18:55:11.088,1096.0,2083.0,1202.0,-88.0,52.0,500.0,133,30,103,72,52
2025-03-17 18:55:11.110,6.0,3154.0,364.0,41.0,176.0,264.0,135,28,105,72,49
2025-03-17 18:55:11.133,-161.0,3349.0,171.0,92.0,109.0,98.0,135,32,90,72,47
2025-03-17 18:55:11.158,-176.0,2777.0,495.0,-1.0,99.0,-101.0,137,24,84,81,47
2025-03-17 18:55:11.182,-194.0,1252.0,554.0,-24.0,38.0,-183.0,134,28,86,82,48
2025-03-17 18:55:11.199,-4.0,113.0,955.0,-10.0,8.0,-168.0,136,23,80,81,49
2025-03-17 18:55:11.231,-163.0,97.0,550.0,6.0,23.0,-178.0,132,24,97,79,52
2025-03-17 18:55:11.256,-514.0,-284.0,675.0,21.0,-12.0,-182.0,134,33,89,83,53
2025-03-17 18:55:11.278,-427.0,-591.0,877.0,53.0,-43.0,-134.0,129,31,109,83,53
2025-03-17 18:55:11.303,-275.0,-209.0,1184.0,75.0,-13.0,-96.0,137,28,107,84,53
2025-03-17 18:55:11.327,-503.0,-22.0,1061.0,47.0,8.0,-108.0,133,30,101,79,56
2025-03-17 18:55:11.352,-730.0,351.0,767.0,62.0,5.0,-185.0,136,35,111,83,52
2025-03-17 18:55:11.375,-603.0,199.0,650.0,61.0,-60.0,-196.0,129,35,108,82,55
2025-03-17 18:55:11.400,-297.0,7.0,995.0,-16.0,-52.0,-204.0,131,32,112,87,56
2025-03-17 18:55:11.424,-397.0,-492.0,786.0,-29.0,-72.0,-226.0,132,33,105,84,57
2025-03-17 18:55:11.446,293.0,-1896.0,839.0,-58.0,-136.0,-80.0,136,34,104,83,57
2025-03-17 18:55:11.471,1742.0,-4049.0,2423.0,-197.0,43.0,238.0,136,32,99,85,57
2025-03-17 18:55:11.495,1773.0,-3714.0,1224.0,-75.0,184.0,617.0,137,34,95,82,55
2025-03-17 18:55:11.519,1325.0,-869.0,850.0,-81.0,40.0,860.0,130,34,112,86,53
2025-03-17 18:55:11.543,1395.0,3199.0,1779.0,-41.0,170.0,614.0,138,29,112,84,56
2025-03-17 18:55:11.568,-36.0,5329.0,291.0,75.0,132.0,184.0,137,32,101,85,50
2025-03-17 18:55:11.593,-169.0,4373.0,571.0,68.0,81.0,-85.0,136,28,81,83,51
2025-03-17 18:55:11.613,-395.0,2007.0,1150.0,48.0,75.0,-261.0,139,33,95,81,52
2025-03-17 18:55:11.639,-143.0,133.0,2069.0,-44.0,78.0,-264.0,135,35,96,83,53
2025-03-17 18:55:11.662,-250.0,-717.0,1867.0,-227.0,249.0,-251.0,137,34,96,83,54
2025-03-17 18:55:11.687,-269.0,-1688.0,491.0,-90.0,264.0,-186.0,138,35,95,85,47
2025-03-17 18:55:11.712,-434.0,-1549.0,441.0,98.0,219.0,-68.0,137,34,116,73,53
2025-03-17 18:55:11.735,-863.0,-471.0,-247.0,112.0,197.0,7.0,136,41,118,40,50
2025-03-17 18:55:11.760,-814.0,-323.0,213.0,44.0,185.0,4.0,137,42,117,57,52
2025-03-17 18:55:11.782,-649.0,-199.0,436.0,86.0,160.0,47.0,138,46,94,24,51
2025-03-17 18:55:11.806,-792.0,26.0,53.0,89.0,206.0,59.0,134,53,127,16,49
2025-03-17 18:55:11.831,-622.0,927.0,-255.0,139.0,207.0,45.0,129,60,136,0,48
2025-03-17 18:55:11.855,-521.0,1499.0,-775.0,144.0,96.0,-73.0,131,64,139,0,49
2025-03-17 18:55:11.880,-735.0,2350.0,-2334.0,66.0,-71.0,-358.0,128,67,71,28,41
2025-03-17 18:55:11.904,-386.0,2198.0,-2893.0,64.0,-451.0,-681.0,104,80,115,0,25
2025-03-17 18:55:11.929,777.0,1217.0,-2433.0,-7.0,-947.0,-832.0,81,77,128,0,22
2025-03-17 18:55:11.952,3390.0,-440.0,-948.0,-184.0,-1121.0,-691.0,65,93,140,0,32
2025-03-17 18:55:11.974,5875.0,-4198.0,2267.0,-84.0,-865.0,-209.0,82,88,141,0,43
2025-03-17 18:55:11.999,4116.0,-4078.0,3640.0,118.0,-1.0,97.0,93,33,136,0,47
2025-03-17 18:55:12.023,812.0,-2182.0,1412.0,177.0,267.0,127.0,95,62,101,18,50
2025-03-17 18:55:12.047,216.0,-864.0,1738.0,-100.0,222.0,183.0,98,71,136,51,44
2025-03-17 18:55:12.072,54.0,-1264.0,1232.0,-68.0,253.0,249.0,93,98,141,44,49
2025-03-17 18:55:12.096,84.0,-956.0,584.0,43.0,360.0,295.0,96,96,125,48,47
2025-03-17 18:55:12.120,-124.0,-251.0,161.0,41.0,329.0,305.0,102,69,135,38,55
2025-03-17 18:55:12.142,-195.0,-162.0,522.0,17.0,269.0,308.0,98,93,142,22,55
2025-03-17 18:55:12.166,-54.0,-575.0,262.0,121.0,287.0,324.0,102,77,138,41,51
2025-03-17 18:55:12.189,-272.0,-213.0,67.0,240.0,279.0,309.0,100,96,130,0,48
2025-03-17 18:55:12.211,-384.0,248.0,-105.0,157.0,266.0,286.0,111,82,143,1,38
2025-03-17 18:55:12.240,-648.0,362.0,-208.0,122.0,206.0,247.0,119,102,134,0,43
2025-03-17 18:55:12.264,-889.0,730.0,-331.0,65.0,122.0,133.0,120,102,130,0,44
2025-03-17 18:55:12.288,-767.0,1536.0,-764.0,-5.0,53.0,-26.0,121,102,132,34,45
2025-03-17 18:55:12.313,-1010.0,1898.0,-2513.0,-13.0,-211.0,-288.0,114,89,137,38,48
2025-03-17 18:55:12.335,-801.0,2487.0,-2571.0,73.0,-612.0,-586.0,101,94,138,33,44
2025-03-17 18:55:12.359,708.0,1944.0,-1604.0,-69.0,-1024.0,-749.0,99,102,128,0,43
2025-03-17 18:55:12.383,5007.0,-2235.0,514.0,-170.0,-1039.0,-600.0,101,57,123,0,49
2025-03-17 18:55:12.408,5040.0,-3884.0,3471.0,256.0,-399.0,-31.0,97,44,127,47,63
2025-03-17 18:55:12.430,1901.0,-1731.0,2402.0,288.0,366.0,96.0,99,78,137,56,73
2025-03-17 18:55:12.454,-710.0,454.0,1157.0,-4.0,333.0,10.0,99,82,105,48,59
2025-03-17 18:55:12.478,-674.0,-668.0,652.0,-41.0,72.0,23.0,102,89,140,42,64
2025-03-17 18:55:12.503,-290.0,-312.0,928.0,56.0,112.0,-19.0,107,98,138,70,62
2025-03-17 18:55:12.527,-246.0,-339.0,960.0,51.0,167.0,-35.0,107,93,141,76,67
2025-03-17 18:55:12.551,-364.0,-357.0,979.0,8.0,131.0,-34.0,114,90,140,74,68
2025-03-17 18:55:12.575,-333.0,-543.0,872.0,60.0,54.0,-10.0,109,68,133,67,66
2025-03-17 18:55:12.600,-324.0,-349.0,729.0,117.0,40.0,16.0,112,22,134,64,57
2025-03-17 18:55:12.622,-551.0,-445.0,461.0,161.0,9.0,19.0,114,0,130,73,62
2025-03-17 18:55:12.647,-488.0,-353.0,452.0,265.0,-50.0,50.0,117,22,124,67,60
2025-03-17 18:55:12.671,-10.0,-703.0,690.0,250.0,-75.0,51.0,117,17,73,69,56
2025-03-17 18:55:12.695,1014.0,-1829.0,1570.0,101.0,-45.0,156.0,120,27,103,64,60
2025-03-17 18:55:12.719,2272.0,-3803.0,2974.0,75.0,214.0,431.0,124,29,104,60,60
2025-03-17 18:55:12.744,2704.0,-2155.0,1648.0,60.0,323.0,827.0,126,29,104,72,52
2025-03-17 18:55:12.768,2252.0,936.0,977.0,-155.0,145.0,924.0,138,30,107,69,61
2025-03-17 18:55:12.793,435.0,3615.0,250.0,-29.0,152.0,482.0,129,27,110,76,62
2025-03-17 18:55:12.812,292.0,4302.0,-301.0,67.0,112.0,161.0,130,31,94,81,53
2025-03-17 18:55:12.838,60.0,4619.0,-85.0,22.0,21.0,-119.0,130,33,78,81,51
2025-03-17 18:55:12.862,188.0,2514.0,875.0,4.0,-64.0,-311.0,131,33,84,86,50
2025-03-17 18:55:12.888,108.0,628.0,937.0,-27.0,-141.0,-337.0,129,31,100,86,51
2025-03-17 18:55:12.910,501.0,-336.0,1485.0,-95.0,-45.0,-276.0,127,39,102,82,58
2025-03-17 18:55:12.934,233.0,-877.0,1460.0,-20.0,51.0,-236.0,126,21,111,83,63
2025-03-17 18:55:12.960,-496.0,-568.0,152.0,97.0,-13.0,-173.0,130,26,113,84,65
2025-03-17 18:55:12.982,-551.0,357.0,884.0,80.0,-22.0,-172.0,126,34,112,86,65
2025-03-17 18:55:13.007,-782.0,-72.0,473.0,26.0,-101.0,-202.0,124,36,115,87,62
2025-03-17 18:55:13.031,-404.0,-72.0,479.0,92.0,-174.0,-243.0,131,34,110,86,63
2025-03-17 18:55:13.056,-319.0,99.0,753.0,126.0,-200.0,-156.0,130,31,104,87,66
2025-03-17 18:55:13.080,141.0,-36.0,546.0,25.0,-247.0,-193.0,116,37,114,88,64
2025-03-17 18:55:13.104,397.0,-831.0,1170.0,55.0,-245.0,-141.0,122,36,111,87,65
2025-03-17 18:55:13.128,851.0,-1678.0,1417.0,124.0,-139.0,21.0,128,37,111,86,67
2025-03-17 18:55:13.149,1559.0,-2143.0,2257.0,29.0,73.0,235.0,124,36,110,87,68
2025-03-17 18:55:13.175,2396.0,-2639.0,2241.0,-90.0,303.0,587.0,129,39,103,85,65
2025-03-17 18:55:13.199,2034.0,122.0,1670.0,-276.0,245.0,769.0,129,38,107,84,65
2025-03-17 18:55:13.223,1320.0,1585.0,1298.0,-298.0,267.0,674.0,129,34,109,83,65
2025-03-17 18:55:13.247,236.0,3189.0,487.0,-5.0,250.0,272.0,134,38,114,76,63
2025-03-17 18:55:13.272,-397.0,3657.0,573.0,38.0,143.0,109.0,130,40,111,88,53
2025-03-17 18:55:13.297,-40.0,2876.0,1371.0,-35.0,199.0,-152.0,134,20,85,78,54
2025-03-17 18:55:13.318,-32.0,647.0,1378.0,-85.0,204.0,-205.0,133,44,93,83,56
2025-03-17 18:55:13.342,-490.0,-632.0,1069.0,-173.0,193.0,-165.0,134,36,109,84,59
2025-03-17 18:55:13.364,-253.0,-901.0,1147.0,-82.0,221.0,-123.0,134,43,113,76,60
2025-03-17 18:55:13.386,-263.0,-1207.0,1020.0,216.0,269.0,-92.0,135,32,115,66,64
2025-03-17 18:55:13.416,-425.0,-940.0,604.0,102.0,296.0,-68.0,136,38,116,26,71
2025-03-17 18:55:13.440,-1093.0,-527.0,241.0,87.0,267.0,-31.0,129,33,114,0,49
2025-03-17 18:55:13.464,-708.0,-420.0,227.0,73.0,249.0,16.0,129,40,97,0,51
2025-03-17 18:55:13.485,-825.0,-25.0,276.0,59.0,196.0,32.0,127,36,98,0,61
2025-03-17 18:55:13.511,-623.0,710.0,-182.0,76.0,202.0,35.0,130,37,97,0,77
2025-03-17 18:55:13.534,-471.0,1133.0,-968.0,121.0,128.0,6.0,129,36,107,0,85
2025-03-17 18:55:13.558,-342.0,1713.0,-2036.0,77.0,-2.0,-120.0,122,35,101,0,54
2025-03-17 18:55:13.584,-1063.0,2185.0,-2851.0,39.0,-231.0,-417.0,106,36,80,0,29
2025-03-17 18:55:13.608,873.0,4046.0,-4712.0,-217.0,-731.0,-879.0,89,15,87,0,24
2025-03-17 18:55:13.630,4563.0,-137.0,-1074.0,54.0,-1411.0,-784.0,79,12,88,0,42
2025-03-17 18:55:13.654,7730.0,-5546.0,6787.0,139.0,-646.0,-83.0,74,28,88,36,46
2025-03-17 18:55:13.678,2423.0,-2896.0,3148.0,494.0,269.0,20.0,83,27,88,29,65
2025-03-17 18:55:13.703,3.0,-123.0,3108.0,-23.0,282.0,95.0,81,22,99,27,60
2025-03-17 18:55:13.727,187.0,-1500.0,1889.0,-242.0,263.0,101.0,85,25,104,43,49
2025-03-17 18:55:13.752,-332.0,-1129.0,1000.0,-131.0,215.0,196.0,87,30,88,47,49
2025-03-17 18:55:13.776,-314.0,-433.0,896.0,-127.0,295.0,219.0,90,38,92,62,53
2025-03-17 18:55:13.800,-82.0,-244.0,919.0,-27.0,352.0,174.0,93,27,94,57,51
2025-03-17 18:55:13.825,-379.0,-314.0,403.0,-46.0,328.0,182.0,96,28,100,64,49
2025-03-17 18:55:13.846,-425.0,-237.0,232.0,-43.0,246.0,214.0,94,36,101,68,48
2025-03-17 18:55:13.871,-171.0,-167.0,189.0,8.0,235.0,227.0,97,36,102,64,49
2025-03-17 18:55:13.895,-639.0,57.0,-149.0,74.0,222.0,193.0,101,37,105,48,50
2025-03-17 18:55:13.920,-582.0,403.0,10.0,20.0,176.0,178.0,104,37,105,48,45
2025-03-17 18:55:13.944,-520.0,297.0,-201.0,2.0,109.0,137.0,105,37,99,41,45
2025-03-17 18:55:13.969,-620.0,872.0,-741.0,53.0,55.0,99.0,111,32,104,33,48
2025-03-17 18:55:13.993,-554.0,1624.0,-1459.0,114.0,-20.0,4.0,109,39,105,37,45
2025-03-17 18:55:14.014,-771.0,3118.0,-2606.0,79.0,-238.0,-306.0,104,38,103,50,40
2025-03-17 18:55:14.036,-431.0,3030.0,-3731.0,60.0,-603.0,-708.0,96,38,95,31,47
2025-03-17 18:55:14.060,2798.0,798.0,-3314.0,215.0,-1249.0,-771.0,95,29,95,14,48
2025-03-17 18:55:14.085,8691.0,-4875.0,4108.0,179.0,-1280.0,-310.0,104,30,98,46,53
2025-03-17 18:55:14.112,5784.0,-2520.0,7282.0,426.0,189.0,10.0,86,28,95,34,69
2025-03-17 18:55:14.137,776.0,-1295.0,2442.0,335.0,433.0,76.0,104,39,95,45,70
2025-03-17 18:55:14.161,-195.0,-652.0,1780.0,0.0,400.0,133.0,104,32,103,50,50
2025-03-17 18:55:14.182,-421.0,-943.0,638.0,-61.0,70.0,203.0,119,37,104,29,48
2025-03-17 18:55:14.206,-186.0,-404.0,969.0,115.0,53.0,231.0,118,38,105,23,61
2025-03-17 18:55:14.216,-270.0,-253.0,1013.0,141.0,193.0,241.0,125,35,105,40,59
2025-03-17 18:55:14.255,-253.0,-232.0,578.0,97.0,145.0,283.0,130,37,107,38,70
2025-03-17 18:55:14.280,-150.0,283.0,517.0,71.0,83.0,296.0,133,37,106,41,75
2025-03-17 18:55:14.303,21.0,351.0,698.0,19.0,107.0,278.0,133,37,107,33,61
2025-03-17 18:55:14.327,-246.0,244.0,367.0,108.0,91.0,259.0,136,36,107,38,74
2025-03-17 18:55:14.350,-375.0,615.0,435.0,143.0,29.0,218.0,137,37,107,46,86
2025-03-17 18:55:14.374,-513.0,1125.0,527.0,93.0,-29.0,134.0,137,39,107,46,98
2025-03-17 18:55:14.399,-580.0,1828.0,288.0,61.0,-65.0,-31.0,131,36,106,54,96
2025-03-17 18:55:14.424,-758.0,2776.0,-397.0,99.0,-112.0,-220.0,131,36,105,55,102
2025-03-17 18:55:14.448,-933.0,3659.0,-1358.0,143.0,-239.0,-445.0,128,36,101,28,112
2025-03-17 18:55:14.473,-701.0,3003.0,-488.0,204.0,-478.0,-524.0,127,36,83,50,116
2025-03-17 18:55:14.497,1833.0,442.0,463.0,-7.0,-734.0,-404.0,126,29,100,43,116
2025-03-17 18:55:14.522,3540.0,-1482.0,3350.0,85.0,-494.0,-165.0,124,28,112,50,114
2025-03-17 18:55:14.543,2621.0,-1273.0,3291.0,-65.0,50.0,-94.0,115,24,93,50,114
2025-03-17 18:55:14.567,1555.0,-1584.0,1784.0,-80.0,203.0,40.0,126,26,115,56,115
2025-03-17 18:55:14.591,29.0,-698.0,2239.0,-84.0,192.0,91.0,118,34,115,68,119
2025-03-17 18:55:14.616,52.0,-468.0,1037.0,-81.0,137.0,162.0,126,34,115,80,120
2025-03-17 18:55:14.640,-132.0,308.0,916.0,-90.0,114.0,178.0,132,37,117,66,120
2025-03-17 18:55:14.665,-113.0,527.0,1173.0,-37.0,101.0,136.0,129,39,115,50,120
2025-03-17 18:55:14.686,-190.0,566.0,1065.0,-2.0,153.0,125.0,129,36,103,49,122
2025-03-17 18:55:14.711,-203.0,726.0,389.0,1.0,180.0,118.0,130,23,92,64,122
2025-03-17 18:55:14.735,-305.0,619.0,373.0,28.0,223.0,110.0,128,27,112,67,116
2025-03-17 18:55:14.759,-466.0,891.0,257.0,45.0,174.0,105.0,124,28,115,67,118
2025-03-17 18:55:14.784,-457.0,1029.0,313.0,-47.0,114.0,85.0,123,30,117,63,114
2025-03-17 18:55:14.798,-330.0,493.0,457.0,-19.0,102.0,87.0,122,23,113,61,110
2025-03-17 18:55:14.830,-568.0,1162.0,155.0,38.0,76.0,101.0,122,33,117,75,120
2025-03-17 18:55:14.854,-900.0,2674.0,-539.0,-3.0,58.0,-70.0,119,32,115,67,123
2025-03-17 18:55:14.879,-1849.0,3565.0,-2222.0,17.0,-94.0,-388.0,108,21,93,42,121
2025-03-17 18:55:14.903,-1453.0,3638.0,-2730.0,-117.0,-576.0,-552.0,108,20,92,51,122
2025-03-17 18:55:14.928,2577.0,-881.0,-21.0,-135.0,-855.0,-451.0,119,22,112,31,119
2025-03-17 18:55:14.944,5150.0,-2394.0,5125.0,84.0,-237.0,-151.0,129,26,113,40,122
2025-03-17 18:55:14.976,2043.0,-1780.0,2660.0,-38.0,151.0,-59.0,127,26,111,55,123
2025-03-17 18:55:15.000,1087.0,-1971.0,1998.0,-132.0,182.0,30.0,119,34,116,64,121
2025-03-17 18:55:15.025,926.0,-1657.0,1357.0,-97.0,290.0,111.0,119,27,120,74,125
2025-03-17 18:55:15.046,-262.0,-206.0,1177.0,-134.0,264.0,165.0,119,28,121,56,115
2025-03-17 18:55:15.070,-355.0,341.0,1273.0,-220.0,273.0,211.0,115,30,115,70,117
2025-03-17 18:55:15.096,-168.0,609.0,1827.0,-236.0,335.0,230.0,121,32,97,60,85
2025-03-17 18:55:15.120,-84.0,376.0,728.0,-172.0,333.0,198.0,122,32,88,60,113
2025-03-17 18:55:15.144,-211.0,549.0,460.0,-126.0,298.0,200.0,126,38,113,55,110
2025-03-17 18:55:15.168,-768.0,308.0,181.0,-88.0,230.0,179.0,125,42,130,0,115
2025-03-17 18:55:15.192,-741.0,407.0,172.0,-10.0,174.0,135.0,120,43,135,0,115
2025-03-17 18:55:15.212,-831.0,268.0,14.0,4.0,137.0,90.0,112,54,134,68,117
2025-03-17 18:55:15.239,-944.0,302.0,-101.0,-4.0,103.0,51.0,97,56,133,99,119
2025-03-17 18:55:15.260,-541.0,743.0,-397.0,2.0,114.0,53.0,101,58,137,97,120
2025-03-17 18:55:15.285,-569.0,1455.0,-1882.0,-8.0,-22.0,-9.0,100,64,107,97,122
2025-03-17 18:55:15.312,-947.0,2383.0,-2375.0,-109.0,-251.0,-282.0,98,68,72,99,125
2025-03-17 18:55:15.337,-452.0,2022.0,-2598.0,-47.0,-371.0,-682.0,101,73,121,100,128
2025-03-17 18:55:15.361,380.0,2061.0,-1500.0,-375.0,-619.0,-929.0,103,87,140,102,128
2025-03-17 18:55:15.381,5026.0,-69.0,1983.0,-599.0,-734.0,-909.0,102,91,124,95,82
2025-03-17 18:55:15.398,5114.0,-4825.0,1267.0,-404.0,-419.0,-405.0,113,72,139,107,101
2025-03-17 18:55:15.431,3684.0,-6789.0,1124.0,282.0,217.0,202.0,109,60,92,104,120
2025-03-17 18:55:15.455,895.0,-1901.0,437.0,380.0,393.0,403.0,103,90,139,103,125
2025-03-17 18:55:15.479,160.0,-490.0,291.0,54.0,203.0,379.0,113,93,140,104,125
2025-03-17 18:55:15.503,-120.0,-614.0,1032.0,105.0,112.0,312.0,114,91,99,105,125
2025-03-17 18:55:15.529,-243.0,-730.0,422.0,71.0,192.0,323.0,113,102,124,105,123
2025-03-17 18:55:15.551,-508.0,7.0,583.0,119.0,208.0,299.0,111,91,141,106,120
2025-03-17 18:55:15.574,-245.0,-117.0,54.0,106.0,157.0,307.0,107,93,121,106,125
2025-03-17 18:55:15.586,-271.0,148.0,164.0,102.0,191.0,249.0,109,96,145,106,124
2025-03-17 18:55:15.623,-587.0,310.0,218.0,67.0,165.0,184.0,108,96,145,106,124
2025-03-17 18:55:15.648,-756.0,57.0,16.0,49.0,102.0,118.0,103,81,144,105,126
2025-03-17 18:55:15.673,-655.0,121.0,227.0,42.0,69.0,83.0,104,72,145,106,125
2025-03-17 18:55:15.697,-608.0,310.0,-3.0,48.0,68.0,74.0,105,86,145,105,127
2025-03-17 18:55:15.718,-581.0,1278.0,-755.0,98.0,43.0,75.0,102,85,145,106,127
2025-03-17 18:55:15.743,-607.0,2283.0,-1902.0,-2.0,-106.0,-190.0,100,82,146,107,129
2025-03-17 18:55:15.767,-1396.0,2745.0,-2184.0,24.0,-375.0,-658.0,102,82,144,107,128
2025-03-17 18:55:15.792,-96.0,2502.0,-1412.0,-38.0,-559.0,-1061.0,100,95,92,106,127
2025-03-17 18:55:15.816,5685.0,654.0,513.0,-538.0,-871.0,-1100.0,102,87,119,106,63
2025-03-17 18:55:15.840,5307.0,-4630.0,748.0,-76.0,-325.0,-428.0,101,95,137,104,104
2025-03-17 18:55:15.856,4792.0,-5028.0,2789.0,341.0,264.0,332.0,102,61,142,96,121
2025-03-17 18:55:15.889,298.0,-565.0,-301.0,146.0,398.0,381.0,108,91,126,107,124
2025-03-17 18:55:15.911,-223.0,-861.0,-371.0,-9.0,206.0,292.0,107,92,139,107,124
2025-03-17 18:55:15.935,-500.0,-825.0,144.0,132.0,39.0,266.0,108,99,143,107,126
2025-03-17 18:55:15.958,-227.0,-807.0,280.0,157.0,100.0,270.0,108,90,130,106,130
2025-03-17 18:55:15.982,-17.0,-957.0,152.0,213.0,104.0,306.0,108,65,134,94,126
2025-03-17 18:55:16.008,137.0,-528.0,-84.0,185.0,63.0,347.0,107,52,104,58,109
2025-03-17 18:55:16.030,-26.0,-300.0,137.0,135.0,44.0,361.0,106,42,127,0,116
2025-03-17 18:55:16.054,-98.0,-162.0,570.0,111.0,-44.0,377.0,108,35,130,0,114
2025-03-17 18:55:16.078,14.0,52.0,105.0,158.0,-37.0,377.0,97,33,112,0,113
2025-03-17 18:55:16.103,182.0,538.0,315.0,180.0,-68.0,261.0,112,34,122,0,115
2025-03-17 18:55:16.113,-608.0,1341.0,514.0,172.0,-29.0,158.0,110,31,122,0,120
2025-03-17 18:55:16.152,-1007.0,2484.0,-379.0,216.0,-87.0,-29.0,105,36,123,0,122
2025-03-17 18:55:16.162,-1530.0,3548.0,-1208.0,301.0,-217.0,-245.0,102,31,123,0,124
2025-03-17 18:55:16.200,-1398.0,3853.0,-1124.0,295.0,-471.0,-398.0,102,30,121,0,125
2025-03-17 18:55:16.225,1200.0,1933.0,961.0,132.0,-644.0,-415.0,105,25,122,0,126
2025-03-17 18:55:16.247,2837.0,-422.0,3399.0,70.0,-392.0,-277.0,109,23,124,62,128
2025-03-17 18:55:16.271,2413.0,-1687.0,2899.0,-85.0,-38.0,-140.0,109,30,124,51,129
2025-03-17 18:55:16.295,1773.0,-1875.0,1896.0,-96.0,59.0,-1.0,111,30,122,71,129
2025-03-17 18:55:16.320,824.0,-1089.0,1691.0,-42.0,175.0,88.0,110,27,125,71,110
2025-03-17 18:55:16.344,144.0,-147.0,653.0,-66.0,148.0,141.0,105,24,124,76,126
2025-03-17 18:55:16.362,-284.0,30.0,943.0,-39.0,79.0,133.0,110,33,128,71,128
2025-03-17 18:55:16.393,-144.0,359.0,1005.0,-42.0,92.0,141.0,109,31,128,81,117
2025-03-17 18:55:16.412,-254.0,620.0,902.0,-31.0,142.0,121.0,109,37,116,72,124
2025-03-17 18:55:16.439,-421.0,698.0,584.0,-15.0,128.0,113.0,109,35,94,84,127
2025-03-17 18:55:16.461,-401.0,672.0,545.0,-27.0,98.0,111.0,111,37,111,77,128
2025-03-17 18:55:16.487,-211.0,613.0,680.0,-19.0,139.0,115.0,111,35,114,76,121
2025-03-17 18:55:16.511,-554.0,769.0,350.0,26.0,130.0,86.0,111,36,128,80,130
2025-03-17 18:55:16.536,-580.0,1317.0,373.0,2.0,88.0,82.0,111,35,128,81,129
2025-03-17 18:55:16.558,-783.0,2145.0,10.0,-46.0,97.0,-7.0,112,31,129,73,129
2025-03-17 18:55:16.581,-1814.0,2854.0,-1406.0,42.0,84.0,-189.0,105,37,119,72,130
2025-03-17 18:55:16.598,-2197.0,3650.0,-2379.0,66.0,-363.0,-417.0,99,33,106,66,103
2025-03-17 18:55:16.632,1270.0,1764.0,-846.0,-294.0,-839.0,-544.0,105,41,112,69,127
2025-03-17 18:55:16.654,5517.0,-4959.0,4116.0,-154.0,-343.0,-188.0,105,41,121,85,130
2025-03-17 18:55:16.678,2428.0,-2731.0,2896.0,140.0,312.0,-45.0,110,36,127,88,129
2025-03-17 18:55:16.702,1427.0,-1191.0,1662.0,-89.0,287.0,55.0,113,33,127,86,128
2025-03-17 18:55:16.728,41.0,-1518.0,18.0,-175.0,140.0,127.0,105,32,129,93,128
2025-03-17 18:55:16.750,-375.0,-94.0,410.0,-144.0,164.0,171.0,112,39,128,87,126
2025-03-17 18:55:16.775,-919.0,386.0,1933.0,-176.0,170.0,190.0,119,37,101,70,105
2025-03-17 18:55:16.799,-732.0,243.0,1270.0,-167.0,201.0,176.0,125,41,104,68,85
2025-03-17 18:55:16.824,-233.0,197.0,1045.0,-50.0,216.0,116.0,122,39,122,16,87
2025-03-17 18:55:16.848,-582.0,103.0,703.0,-53.0,216.0,106.0,128,40,128,0,61
2025-03-17 18:55:16.873,-583.0,296.0,877.0,-62.0,228.0,103.0,130,46,127,0,85
2025-03-17 18:55:16.897,-472.0,-20.0,438.0,-77.0,231.0,105.0,129,43,135,0,89
2025-03-17 18:55:16.915,-587.0,-46.0,30.0,-2.0,230.0,135.0,130,52,137,0,74
2025-03-17 18:55:16.940,-801.0,-16.0,215.0,42.0,226.0,126.0,132,64,122,0,48
2025-03-17 18:55:16.967,-641.0,1242.0,-1196.0,20.0,156.0,30.0,133,69,142,2,42
2025-03-17 18:55:16.992,-1182.0,1789.0,-3007.0,-57.0,-136.0,-256.0,132,72,141,0,37
2025-03-17 18:55:17.015,-491.0,2314.0,-3386.0,-1.0,-645.0,-566.0,125,87,84,0,35
2025-03-17 18:55:17.041,1508.0,1931.0,-2431.0,-34.0,-1081.0,-675.0,102,76,113,0,35
2025-03-17 18:55:17.065,5075.0,-2060.0,1566.0,-63.0,-1039.0,-470.0,107,69,135,0,35
2025-03-17 18:55:17.087,4512.0,-3396.0,3654.0,-77.0,-227.0,-18.0,96,61,142,0,44
2025-03-17 18:55:17.111,2186.0,-3046.0,3037.0,284.0,270.0,130.0,101,17,138,0,53
2025-03-17 18:55:17.135,342.0,-872.0,1487.0,-44.0,213.0,139.0,102,30,132,0,53
2025-03-17 18:55:17.160,-26.0,-1152.0,1107.0,-80.0,165.0,198.0,103,65,140,44,55
2025-03-17 18:55:17.184,-335.0,-583.0,924.0,1.0,188.0,154.0,98,97,144,42,57
2025-03-17 18:55:17.209,-300.0,-456.0,685.0,10.0,194.0,133.0,104,107,122,49,59
2025-03-17 18:55:17.229,-167.0,-280.0,664.0,1.0,169.0,144.0,109,97,134,56,60
2025-03-17 18:55:17.254,-209.0,-269.0,890.0,6.0,210.0,153.0,111,101,131,74,61
2025-03-17 18:55:17.278,-233.0,-299.0,516.0,36.0,198.0,146.0,111,99,145,74,61
2025-03-17 18:55:17.303,-214.0,-152.0,553.0,25.0,198.0,135.0,111,109,145,77,61
2025-03-17 18:55:17.328,-318.0,-193.0,461.0,28.0,205.0,144.0,108,107,146,78,58
2025-03-17 18:55:17.352,-509.0,-272.0,399.0,42.0,195.0,155.0,115,108,104,78,59
2025-03-17 18:55:17.376,-508.0,-70.0,393.0,96.0,200.0,145.0,112,107,124,68,56
2025-03-17 18:55:17.401,-651.0,678.0,-4.0,75.0,198.0,125.0,113,106,142,60,59
2025-03-17 18:55:17.425,-1074.0,1844.0,-1758.0,-21.0,26.0,-7.0,110,108,143,48,57
2025-03-17 18:55:17.434,-1513.0,3039.0,-3541.0,109.0,-416.0,-377.0,104,106,133,66,55
2025-03-17 18:55:17.471,-265.0,2504.0,-3656.0,-17.0,-1001.0,-695.0,99,101,139,46,54
2025-03-17 18:55:17.495,4525.0,-1658.0,-104.0,14.0,-1173.0,-589.0,101,106,127,49,64
2025-03-17 18:55:17.521,5641.0,-3563.0,3931.0,125.0,-508.0,-134.0,106,63,145,81,75
2025-03-17 18:55:17.545,3072.0,-2570.0,2929.0,195.0,224.0,58.0,106,13,132,58,84
2025-03-17 18:55:17.568,195.0,-548.0,1913.0,69.0,289.0,36.0,111,61,131,70,77
2025-03-17 18:55:17.590,-14.0,-1216.0,299.0,39.0,245.0,69.0,114,93,138,77,60
2025-03-17 18:55:17.614,87.0,-1063.0,1036.0,183.0,162.0,94.0,122,108,139,23,65
2025-03-17 18:55:17.636,-94.0,-534.0,412.0,208.0,170.0,130.0,127,53,137,25,76
2025-03-17 18:55:17.664,-143.0,-384.0,561.0,185.0,175.0,157.0,129,80,139,36,72
2025-03-17 18:55:17.688,-100.0,-63.0,663.0,209.0,122.0,168.0,129,73,128,49,81
2025-03-17 18:55:17.712,-203.0,207.0,722.0,150.0,52.0,173.0,130,68,108,42,84
2025-03-17 18:55:17.725,-183.0,397.0,783.0,59.0,11.0,167.0,130,48,115,18,95
2025-03-17 18:55:17.758,-242.0,500.0,824.0,21.0,-13.0,122.0,129,37,116,53,61
2025-03-17 18:55:17.782,-125.0,217.0,997.0,43.0,23.0,150.0,120,20,118,65,70
2025-03-17 18:55:17.807,191.0,713.0,1066.0,35.0,107.0,156.0,131,25,105,66,103
2025-03-17 18:55:17.831,-509.0,1595.0,176.0,67.0,149.0,33.0,133,23,115,56,104
2025-03-17 18:55:17.854,-1394.0,2376.0,-794.0,94.0,55.0,-84.0,126,24,85,50,108
2025-03-17 18:55:17.880,-1952.0,3262.0,-1649.0,101.0,-152.0,-228.0,113,18,104,37,94
2025-03-17 18:55:17.904,-1187.0,2638.0,-1135.0,125.0,-394.0,-331.0,112,18,100,40,112
2025-03-17 18:55:17.927,961.0,1784.0,1224.0,147.0,-452.0,-342.0,117,27,111,35,121
2025-03-17 18:55:17.944,2653.0,193.0,3112.0,-29.0,-244.0,-276.0,111,21,117,36,124
2025-03-17 18:55:17.975,2764.0,-2313.0,2700.0,-61.0,-50.0,-147.0,104,25,114,33,110
2025-03-17 18:55:18.000,1982.0,-1956.0,3994.0,-105.0,189.0,11.0,108,29,121,56,122
2025-03-17 18:55:18.024,868.0,-1515.0,645.0,-25.0,119.0,92.0,107,33,121,57,129
2025-03-17 18:55:18.048,81.0,-182.0,804.0,-11.0,92.0,147.0,110,33,124,66,127
2025-03-17 18:55:18.072,-255.0,174.0,928.0,-61.0,78.0,145.0,114,36,123,45,119
2025-03-17 18:55:18.096,-217.0,520.0,752.0,-32.0,76.0,148.0,116,35,108,40,126
2025-03-17 18:55:18.119,-151.0,607.0,750.0,4.0,119.0,145.0,117,25,106,65,117
2025-03-17 18:55:18.143,-204.0,668.0,605.0,17.0,147.0,118.0,120,19,108,64,129
2025-03-17 18:55:18.167,-155.0,551.0,575.0,15.0,138.0,106.0,121,31,111,62,126
2025-03-17 18:55:18.192,-82.0,546.0,550.0,26.0,167.0,125.0,124,33,120,66,120
2025-03-17 18:55:18.216,-173.0,623.0,332.0,43.0,174.0,136.0,124,27,123,58,123
2025-03-17 18:55:18.241,-373.0,1181.0,208.0,51.0,159.0,124.0,125,26,123,64,128
2025-03-17 18:55:18.265,-609.0,1898.0,-245.0,18.0,176.0,84.0,124,26,119,68,129
2025-03-17 18:55:18.286,-1362.0,3004.0,-1569.0,43.0,169.0,-43.0,112,19,84,47,124
2025-03-17 18:55:18.311,-3120.0,4780.0,-3725.0,67.0,-281.0,-372.0,110,21,83,50,106
2025-03-17 18:55:18.335,276.0,4602.0,-2498.0,-317.0,-1044.0,-624.0,118,26,103,51,115
2025-03-17 18:55:18.360,6566.0,-4330.0,3313.0,-620.0,-892.0,-311.0,128,20,73,9,111
2025-03-17 18:55:18.383,4415.0,-3038.0,3635.0,-7.0,259.0,-126.0,116,26,123,69,127
2025-03-17 18:55:18.406,918.0,-2143.0,305.0,1.0,250.0,1.0,119,33,125,39,113
2025-03-17 18:55:18.433,-276.0,-640.0,1633.0,-140.0,194.0,103.0,114,27,126,55,127
2025-03-17 18:55:18.454,-918.0,177.0,-480.0,54.0,55.0,84.0,114,40,126,63,129
2025-03-17 18:55:18.478,-904.0,607.0,835.0,-7.0,-14.0,28.0,112,46,117,78,121
2025-03-17 18:55:18.495,-401.0,499.0,1643.0,-50.0,20.0,-4.0,115,46,86,77,120
2025-03-17 18:55:18.527,-36.0,-262.0,1164.0,29.0,73.0,2.0,118,44,110,78,130
2025-03-17 18:55:18.543,-339.0,79.0,770.0,11.0,82.0,9.0,119,46,122,83,130
2025-03-17 18:55:18.577,-537.0,194.0,551.0,-36.0,-11.0,1.0,118,46,122,75,132
2025-03-17 18:55:18.601,-179.0,-340.0,1041.0,-56.0,-24.0,0.0,117,46,126,80,132
2025-03-17 18:55:18.622,-38.0,-249.0,1451.0,10.0,67.0,31.0,117,47,128,71,132
2025-03-17 18:55:18.647,-279.0,-306.0,1218.0,-43.0,78.0,46.0,119,44,123,82,131
2025-03-17 18:55:18.671,-331.0,-299.0,1176.0,-26.0,44.0,37.0,120,49,119,84,127
2025-03-17 18:55:18.696,-525.0,-157.0,821.0,-24.0,46.0,16.0,119,47,117,85,129
2025-03-17 18:55:18.720,-315.0,60.0,1151.0,-57.0,93.0,27.0,117,45,123,85,127
2025-03-17 18:55:18.744,-31.0,-188.0,1594.0,-117.0,179.0,53.0,118,47,123,86,123
2025-03-17 18:55:18.769,-82.0,-591.0,1659.0,-70.0,227.0,90.0,119,42,124,89,113
2025-03-17 18:55:18.791,142.0,257.0,1961.0,-234.0,376.0,177.0,124,41,124,91,94
2025-03-17 18:55:18.811,-552.0,270.0,1020.0,-353.0,421.0,195.0,123,39,122,88,60
2025-03-17 18:55:18.840,-372.0,22.0,-237.0,-111.0,344.0,156.0,119,41,118,82,50
2025-03-17 18:55:18.863,-1091.0,2994.0,-3056.0,-66.0,170.0,-132.0,116,38,112,62,35
2025-03-17 18:55:18.888,-133.0,3927.0,-4469.0,-94.0,-230.0,-631.0,110,32,92,47,36
2025-03-17 18:55:18.912,377.0,2355.0,-3151.0,-17.0,-644.0,-944.0,106,30,86,21,33
2025-03-17 18:55:18.937,4695.0,1099.0,-994.0,2.0,-1212.0,-1076.0,102,29,73,30,31
2025-03-17 18:55:18.961,8672.0,-8370.0,6183.0,45.0,-378.0,-79.0,109,34,109,38,40
2025-03-17 18:55:18.982,3092.0,-4104.0,1673.0,416.0,415.0,233.0,110,35,96,59,49
2025-03-17 18:55:19.005,-166.0,-176.0,327.0,-64.0,327.0,231.0,107,20,112,65,45
2025-03-17 18:55:19.031,-160.0,-1657.0,303.0,-153.0,122.0,199.0,109,24,100,67,46
2025-03-17 18:55:19.056,-231.0,-1032.0,662.0,-17.0,149.0,219.0,111,20,91,73,47
2025-03-17 18:55:19.078,-191.0,-420.0,961.0,-20.0,145.0,164.0,114,35,86,82,46
2025-03-17 18:55:19.104,-130.0,-503.0,803.0,-54.0,122.0,122.0,113,27,103,84,48
2025-03-17 18:55:19.126,48.0,-904.0,921.0,-44.0,144.0,161.0,115,38,110,76,47
2025-03-17 18:55:19.150,-159.0,-706.0,684.0,-13.0,157.0,228.0,116,32,110,84,50
2025-03-17 18:55:19.175,53.0,-586.0,557.0,34.0,247.0,259.0,116,37,108,74,55
2025-03-17 18:55:19.199,-589.0,-485.0,-8.0,47.0,215.0,246.0,117,29,111,69,51
2025-03-17 18:55:19.223,-391.0,-107.0,238.0,64.0,169.0,248.0,119,36,99,66,61
2025-03-17 18:55:19.248,-418.0,465.0,-27.0,82.0,154.0,277.0,122,35,105,56,58
2025-03-17 18:55:19.272,-339.0,1802.0,-1574.0,100.0,83.0,212.0,126,38,113,63,60
2025-03-17 18:55:19.298,-1157.0,3921.0,-3615.0,179.0,-152.0,-225.0,127,38,104,71,46
2025-03-17 18:55:19.319,-569.0,3795.0,-4056.0,-67.0,-686.0,-752.0,118,37,107,61,40
2025-03-17 18:55:19.331,4246.0,3354.0,-1126.0,-98.0,-1396.0,-1096.0,116,29,97,56,39
2025-03-17 18:55:19.368,9427.0,-6011.0,5457.0,-131.0,-909.0,-335.0,110,13,87,67,51
2025-03-17 18:55:19.392,4485.0,-4095.0,2459.0,280.0,412.0,104.0,115,38,95,68,59
2025-03-17 18:55:19.416,-330.0,-4.0,104.0,124.0,379.0,146.0,107,22,109,40,53
2025-03-17 18:55:19.434,-252.0,-1120.0,619.0,-239.0,96.0,40.0,108,24,106,71,45
2025-03-17 18:55:19.461,-485.0,-688.0,636.0,63.0,72.0,60.0,109,23,108,66,45
2025-03-17 18:55:19.486,-525.0,108.0,775.0,-39.0,58.0,5.0,106,30,98,76,50
2025-03-17 18:55:19.509,107.0,-811.0,1096.0,-75.0,43.0,-10.0,109,29,94,84,52
2025-03-17 18:55:19.535,154.0,-1224.0,881.0,-2.0,56.0,26.0,109,26,103,89,51
2025-03-17 18:55:19.557,40.0,-795.0,460.0,23.0,54.0,41.0,111,38,104,87,53
2025-03-17 18:55:19.584,-103.0,-531.0,618.0,0.0,33.0,25.0,109,34,105,85,52
2025-03-17 18:55:19.609,-106.0,-530.0,541.0,-17.0,25.0,-1.0,112,41,107,87,52
2025-03-17 18:55:19.630,-160.0,-734.0,623.0,-12.0,14.0,1.0,112,44,109,87,53
2025-03-17 18:55:19.654,-123.0,-674.0,676.0,7.0,11.0,-3.0,112,43,92,88,53
2025-03-17 18:55:19.679,-106.0,-784.0,642.0,3.0,5.0,4.0,112,42,102,88,53
2025-03-17 18:55:19.702,-138.0,-692.0,668.0,-1.0,1.0,6.0,113,45,107,88,54
2025-03-17 18:55:19.719,-117.0,-681.0,764.0,4.0,9.0,-1.0,112,47,110,89,52
2025-03-17 18:55:19.751,-168.0,-701.0,676.0,1.0,12.0,-7.0,113,31,108,91,53
2025-03-17 18:55:19.777,-145.0,-718.0,659.0,-13.0,-2.0,-12.0,114,46,109,89,53
2025-03-17 18:55:19.798,-99.0,-905.0,682.0,-13.0,-4.0,-10.0,113,51,109,88,54
2025-03-17 18:55:19.822,-122.0,-817.0,706.0,9.0,10.0,6.0,114,47,110,88,53
2025-03-17 18:55:19.847,-144.0,-727.0,677.0,1.0,7.0,-1.0,112,46,104,89,54
2025-03-17 18:55:19.871,-144.0,-791.0,640.0,-13.0,-1.0,0.0,114,46,107,89,54
2025-03-17 18:55:19.896,-104.0,-875.0,699.0,10.0,7.0,7.0,113,46,109,89,54
2025-03-17 18:55:19.920,-157.0,-709.0,680.0,6.0,8.0,6.0,114,48,110,89,53
2025-03-17 18:55:19.944,-151.0,-739.0,645.0,-11.0,0.0,0.0,114,46,111,89,55
2025-03-17 18:55:19.966,-129.0,-782.0,679.0,-10.0,-5.0,3.0,115,47,112,88,54
2025-03-17 18:55:19.991,-176.0,-711.0,641.0,2.0,1.0,5.0,115,45,110,88,54
2025-03-17 18:55:20.015,-171.0,-675.0,660.0,2.0,-2.0,-1.0,115,47,110,91,53
2025-03-17 18:55:20.039,-186.0,-693.0,666.0,-6.0,-6.0,-6.0,114,47,110,90,54
2025-03-17 18:55:20.064,-93.0,-841.0,747.0,6.0,6.0,4.0,114,46,110,89,54
2025-03-17 18:55:20.088,-161.0,-729.0,687.0,13.0,9.0,7.0,115,47,108,88,55
2025-03-17 18:55:20.112,-173.0,-635.0,658.0,-4.0,0.0,-6.0,115,47,110,89,55
2025-03-17 18:55:20.137,-137.0,-745.0,673.0,-14.0,-4.0,-11.0,110,47,112,89,55
2025-03-17 18:55:20.159,-102.0,-843.0,668.0,-2.0,1.0,-1.0,115,47,111,88,55
2025-03-17 18:55:20.182,-148.0,-776.0,640.0,4.0,1.0,5.0,115,47,110,89,54
2025-03-17 18:55:20.207,-179.0,-683.0,667.0,-1.0,-3.0,0.0,114,46,111,89,55
2025-03-17 18:55:20.232,-161.0,-760.0,708.0,-4.0,-3.0,-3.0,115,46,111,89,55
2025-03-17 18:55:20.246,-153.0,-775.0,678.0,4.0,2.0,3.0,115,46,110,89,55
2025-03-17 18:55:20.277,-189.0,-727.0,644.0,2.0,-5.0,-1.0,115,47,112,89,55
2025-03-17 18:55:20.302,-126.0,-773.0,705.0,-6.0,-8.0,-3.0,115,47,112,89,55
2025-03-17 18:55:20.326,-112.0,-809.0,727.0,-1.0,2.0,4.0,115,48,112,90,56
2025-03-17 18:55:20.351,-151.0,-730.0,692.0,-5.0,4.0,0.0,113,47,111,89,55
2025-03-17 18:55:20.375,-135.0,-830.0,650.0,-5.0,-1.0,2.0,116,47,110,90,55
2025-03-17 18:55:20.399,-161.0,-733.0,629.0,2.0,-4.0,4.0,115,47,110,89,54
2025-03-17 18:55:20.423,-150.0,-684.0,690.0,-7.0,-7.0,-4.0,115,47,111,89,54
2025-03-17 18:55:20.448,-121.0,-828.0,716.0,-5.0,-1.0,1.0,114,47,113,90,57
2025-03-17 18:55:20.470,-145.0,-780.0,708.0,8.0,6.0,8.0,115,47,111,90,55
2025-03-17 18:55:20.494,-194.0,-631.0,635.0,1.0,-1.0,0.0,115,47,113,90,54
2025-03-17 18:55:20.519,-167.0,-699.0,688.0,-13.0,-7.0,-10.0,115,47,112,90,57
2025-03-17 18:55:20.543,-107.0,-879.0,747.0,2.0,5.0,1.0,116,48,111,90,55
2025-03-17 18:55:20.568,-152.0,-725.0,708.0,7.0,14.0,5.0,116,46,111,89,56
2025-03-17 18:55:20.592,-187.0,-704.0,651.0,-10.0,3.0,-3.0,116,47,112,91,56
2025-03-17 18:55:20.616,-142.0,-816.0,691.0,-8.0,1.0,-1.0,115,47,112,91,55
2025-03-17 18:55:20.637,-157.0,-745.0,658.0,2.0,5.0,3.0,116,48,113,93,54
2025-03-17 18:55:20.660,-148.0,-749.0,654.0,0.0,4.0,2.0,114,47,114,90,53
2025-03-17 18:55:20.686,-170.0,-740.0,652.0,-5.0,1.0,0.0,116,47,113,89,53
2025-03-17 18:55:20.709,-164.0,-776.0,667.0,-6.0,0.0,-1.0,116,47,111,90,55
2025-03-17 18:55:20.733,-161.0,-802.0,655.0,-1.0,1.0,4.0,117,47,111,91,57
2025-03-17 18:55:20.760,-183.0,-723.0,657.0,-1.0,-1.0,3.0,116,47,112,90,55
2025-03-17 18:55:20.784,-173.0,-723.0,648.0,-3.0,-1.0,1.0,116,47,113,91,55
2025-03-17 18:55:20.808,-141.0,-750.0,677.0,-9.0,-2.0,-1.0,116,47,113,87,55
2025-03-17 18:55:20.830,-171.0,-770.0,667.0,-6.0,-2.0,0.0,115,47,113,90,55
2025-03-17 18:55:20.854,-187.0,-759.0,671.0,-3.0,1.0,2.0,116,47,112,90,55
2025-03-17 18:55:20.879,-188.0,-701.0,654.0,-4.0,2.0,-2.0,116,47,112,90,55
2025-03-17 18:55:20.903,-163.0,-767.0,628.0,-11.0,-2.0,-5.0,115,46,113,89,55
2025-03-17 18:55:20.927,-132.0,-831.0,619.0,-2.0,-2.0,2.0,117,46,113,91,55
2025-03-17 18:55:20.937,-157.0,-740.0,613.0,5.0,-2.0,5.0,116,47,114,90,54
2025-03-17 18:55:20.977,-159.0,-711.0,627.0,-6.0,-6.0,-4.0,117,47,114,90,56
2025-03-17 18:55:20.998,-173.0,-781.0,627.0,-14.0,-12.0,-8.0,116,47,113,91,57
2025-03-17 18:55:21.022,-134.0,-901.0,686.0,-2.0,-7.0,1.0,116,48,113,90,55
2025-03-17 18:55:21.047,-157.0,-788.0,674.0,15.0,4.0,9.0,116,47,114,90,56
