timestamp,ax,ay,az,gx,gy,gz,flex1,flex2,flex3,flex4,flex5,emg1,emg2,emg3
2025-02-19 16:39:14.389,-436.0,-3.0,906.0,-2.0,1.0,-3.0,129,109,90,125,128,477,140,493
2025-02-19 16:39:14.397,-431.0,-5.0,922.0,-1.0,2.0,-1.0,129,109,90,125,128,500,585,421
2025-02-19 16:39:14.400,-427.0,-11.0,919.0,0.0,1.0,-1.0,128,109,90,125,127,490,524,427
2025-02-19 16:39:14.403,-431.0,-18.0,915.0,0.0,0.0,-1.0,127,108,90,125,129,483,467,429
2025-02-19 16:39:14.405,-424.0,-20.0,925.0,1.0,-1.0,-1.0,128,109,91,125,127,476,417,432
2025-02-19 16:39:14.405,-421.0,-18.0,935.0,1.0,-2.0,0.0,128,109,90,125,127,473,381,435
2025-02-19 16:39:14.411,-419.0,-11.0,939.0,-1.0,-1.0,0.0,128,109,90,125,128,469,362,436
2025-02-19 16:39:14.411,-423.0,-12.0,939.0,-1.0,-1.0,0.0,128,108,90,125,127,467,362,437
2025-02-19 16:39:14.411,-419.0,-8.0,942.0,-1.0,-1.0,0.0,128,109,91,125,128,464,373,437
2025-02-19 16:39:14.418,-428.0,-3.0,942.0,-1.0,-1.0,-1.0,128,108,90,125,127,464,395,437
2025-02-19 16:39:14.418,-427.0,-5.0,935.0,-2.0,-1.0,-1.0,128,109,90,125,127,463,430,437
2025-02-19 16:39:14.425,-432.0,-4.0,929.0,-2.0,0.0,-1.0,128,109,90,125,128,461,467,435
2025-02-19 16:39:14.427,-431.0,-7.0,937.0,0.0,-2.0,-1.0,128,109,90,125,127,456,502,435
2025-02-19 16:39:14.436,-429.0,-1.0,940.0,0.0,-2.0,-1.0,128,109,90,125,127,461,531,436
2025-02-19 16:39:14.457,-431.0,1.0,949.0,-1.0,-1.0,-1.0,128,108,90,125,127,461,549,438
2025-02-19 16:39:14.473,-432.0,-1.0,941.0,-2.0,-1.0,-1.0,129,109,91,126,128,460,554,442
2025-02-19 16:39:14.494,-429.0,-1.0,939.0,0.0,-1.0,-1.0,128,108,94,124,127,461,542,444
2025-02-19 16:39:14.514,-436.0,-6.0,941.0,0.0,-1.0,-1.0,128,109,91,125,128,461,518,449
2025-02-19 16:39:14.531,-428.0,-3.0,940.0,1.0,-1.0,-1.0,128,109,90,125,127,460,482,453
2025-02-19 16:39:14.551,-428.0,-2.0,938.0,0.0,0.0,-2.0,128,109,90,124,127,461,439,456
2025-02-19 16:39:14.570,-425.0,-12.0,942.0,0.0,0.0,-2.0,128,109,91,125,127,460,388,460
2025-02-19 16:39:14.588,-427.0,-14.0,947.0,1.0,0.0,-1.0,128,109,84,125,128,462,337,465
2025-02-19 16:39:14.609,-427.0,-3.0,945.0,-1.0,0.0,-2.0,129,110,90,125,128,462,289,471
2025-02-19 16:39:14.628,-431.0,-10.0,931.0,-2.0,0.0,-2.0,128,108,89,124,128,463,246,475
2025-02-19 16:39:14.643,-432.0,-18.0,924.0,-1.0,0.0,-2.0,128,109,90,125,128,462,215,480
2025-02-19 16:39:14.666,-426.0,-16.0,931.0,1.0,0.0,-1.0,128,109,90,125,128,462,197,482
2025-02-19 16:39:14.685,-431.0,-8.0,930.0,0.0,-1.0,-1.0,128,108,90,125,127,463,197,483
2025-02-19 16:39:14.702,-429.0,-10.0,937.0,-1.0,-1.0,-1.0,128,109,90,124,127,463,217,483
2025-02-19 16:39:14.723,-424.0,-5.0,941.0,-1.0,-1.0,-1.0,130,109,91,124,127,464,253,482
2025-02-19 16:39:14.740,-428.0,8.0,938.0,0.0,-1.0,0.0,128,109,91,125,127,463,300,477
2025-02-19 16:39:14.760,-434.0,7.0,944.0,1.0,-1.0,-1.0,128,108,90,124,127,463,362,468
2025-02-19 16:39:14.780,-430.0,15.0,949.0,1.0,0.0,-1.0,128,109,90,125,128,463,422,462
2025-02-19 16:39:14.797,-432.0,8.0,940.0,-1.0,1.0,-2.0,128,109,90,125,127,463,463,452
2025-02-19 16:39:14.818,-431.0,-4.0,931.0,-2.0,1.0,-3.0,128,109,90,125,128,464,467,445
2025-02-19 16:39:14.838,-429.0,-19.0,932.0,0.0,0.0,-2.0,129,109,90,125,127,464,453,441
2025-02-19 16:39:14.854,-430.0,-19.0,939.0,1.0,1.0,-2.0,128,109,90,125,127,464,432,435
2025-02-19 16:39:14.872,-432.0,-12.0,936.0,-1.0,1.0,-2.0,128,109,91,125,128,464,402,427
2025-02-19 16:39:14.894,-434.0,-27.0,929.0,-4.0,1.0,-1.0,128,109,90,124,127,465,367,426
2025-02-19 16:39:14.910,-430.0,-34.0,930.0,-2.0,0.0,0.0,128,110,90,125,129,466,341,439
2025-02-19 16:39:14.932,-435.0,-27.0,933.0,-1.0,0.0,1.0,128,110,90,126,128,466,323,451
2025-02-19 16:39:14.952,-430.0,-14.0,940.0,-1.0,0.0,2.0,128,109,90,125,128,467,306,454
2025-02-19 16:39:14.969,-432.0,-2.0,938.0,-3.0,0.0,1.0,128,109,90,125,128,467,300,456
2025-02-19 16:39:14.989,-436.0,-2.0,932.0,-4.0,0.0,1.0,128,109,90,125,128,467,287,459
2025-02-19 16:39:15.006,-441.0,5.0,923.0,-1.0,0.0,1.0,129,109,90,125,128,467,267,465
2025-02-19 16:39:15.026,-439.0,3.0,925.0,-1.0,0.0,0.0,128,109,90,125,127,466,241,469
2025-02-19 16:39:15.044,-442.0,7.0,920.0,-1.0,-1.0,0.0,128,109,90,124,127,468,218,473
2025-02-19 16:39:15.064,-442.0,0.0,922.0,-1.0,-2.0,0.0,128,109,90,125,127,466,200,474
2025-02-19 16:39:15.083,-440.0,-7.0,936.0,1.0,-2.0,1.0,128,108,90,125,127,467,197,473
2025-02-19 16:39:15.104,-441.0,0.0,947.0,0.0,-2.0,1.0,128,109,91,125,127,466,221,473
2025-02-19 16:39:15.121,-437.0,-3.0,954.0,0.0,-1.0,0.0,128,108,90,125,128,467,260,472
2025-02-19 16:39:15.141,-430.0,-1.0,948.0,-1.0,0.0,0.0,128,109,90,125,128,468,318,468
2025-02-19 16:39:15.161,-438.0,-6.0,936.0,-2.0,0.0,0.0,128,109,90,125,128,467,388,458
2025-02-19 16:39:15.177,-436.0,-9.0,937.0,-1.0,0.0,1.0,128,109,90,125,127,468,459,444
2025-02-19 16:39:15.198,-432.0,0.0,940.0,-1.0,0.0,1.0,128,109,91,125,127,466,517,430
2025-02-19 16:39:15.214,-435.0,6.0,932.0,-2.0,1.0,0.0,128,108,90,125,127,466,567,412
2025-02-19 16:39:15.233,-436.0,5.0,924.0,-1.0,0.0,0.0,129,109,90,125,128,467,601,398
2025-02-19 16:39:15.248,-428.0,3.0,931.0,1.0,-2.0,1.0,128,109,90,125,128,467,616,390
2025-02-19 16:39:15.273,-425.0,5.0,943.0,2.0,-1.0,1.0,128,109,90,125,128,467,618,394
2025-02-19 16:39:15.293,-427.0,6.0,943.0,0.0,0.0,1.0,129,109,90,125,128,466,598,406
2025-02-19 16:39:15.310,-439.0,12.0,940.0,-1.0,0.0,1.0,128,109,90,125,128,467,554,415
2025-02-19 16:39:15.329,-441.0,6.0,928.0,0.0,0.0,1.0,127,109,91,125,128,466,505,420
2025-02-19 16:39:15.350,-446.0,2.0,931.0,1.0,-1.0,1.0,128,109,90,125,127,468,457,420
2025-02-19 16:39:15.370,-442.0,-3.0,942.0,3.0,-1.0,1.0,129,109,91,125,128,467,405,420
2025-02-19 16:39:15.387,-439.0,1.0,956.0,3.0,-1.0,2.0,128,109,90,124,127,467,355,424
2025-02-19 16:39:15.407,-438.0,5.0,964.0,1.0,1.0,2.0,128,109,90,125,128,468,312,435
2025-02-19 16:39:15.424,-436.0,-11.0,960.0,2.0,0.0,2.0,129,109,91,128,128,467,266,454
2025-02-19 16:39:15.444,-435.0,0.0,951.0,2.0,1.0,4.0,128,109,90,125,128,468,240,480
2025-02-19 16:39:15.464,-438.0,8.0,939.0,2.0,2.0,4.0,128,109,91,124,127,466,367,499
2025-02-19 16:39:15.481,-438.0,9.0,917.0,1.0,2.0,3.0,128,108,90,125,127,467,275,509
2025-02-19 16:39:15.502,-451.0,0.0,907.0,2.0,1.0,3.0,129,109,90,125,128,467,168,526
2025-02-19 16:39:15.522,-448.0,-9.0,905.0,4.0,0.0,4.0,128,108,90,124,127,467,93,536
2025-02-19 16:39:15.538,-438.0,5.0,916.0,4.0,-1.0,5.0,128,109,91,125,127,468,89,549
2025-02-19 16:39:15.559,-434.0,4.0,933.0,2.0,-1.0,5.0,128,109,91,125,128,468,153,571
2025-02-19 16:39:15.579,-431.0,4.0,917.0,0.0,-1.0,6.0,128,109,90,124,127,468,216,577
2025-02-19 16:39:15.596,-439.0,16.0,907.0,0.0,-1.0,7.0,128,109,90,125,128,467,260,573
2025-02-19 16:39:15.614,-442.0,30.0,896.0,1.0,-2.0,7.0,128,109,90,124,127,467,290,577
2025-02-19 16:39:15.636,-445.0,36.0,912.0,2.0,-3.0,7.0,129,109,90,125,128,467,314,582
2025-02-19 16:39:15.653,-438.0,30.0,930.0,4.0,-3.0,6.0,127,108,90,124,127,467,296,590
2025-02-19 16:39:15.674,-439.0,35.0,936.0,4.0,-2.0,5.0,129,109,91,125,128,468,276,598
2025-02-19 16:39:15.690,-435.0,37.0,951.0,3.0,-2.0,5.0,129,109,91,125,128,467,253,598
2025-02-19 16:39:15.710,-425.0,30.0,958.0,3.0,-1.0,4.0,128,108,90,125,127,468,206,590
2025-02-19 16:39:15.731,-428.0,25.0,955.0,0.0,1.0,3.0,128,109,91,125,128,467,158,581
2025-02-19 16:39:15.747,-427.0,17.0,948.0,0.0,1.0,3.0,128,108,90,125,128,468,112,569
2025-02-19 16:39:15.768,-420.0,22.0,945.0,1.0,1.0,3.0,128,109,91,125,127,468,72,553
2025-02-19 16:39:15.787,-428.0,30.0,940.0,0.0,3.0,2.0,128,109,89,124,128,469,38,534
2025-02-19 16:39:15.805,-423.0,38.0,923.0,-1.0,2.0,2.0,129,109,90,125,128,470,35,516
2025-02-19 16:39:15.825,-428.0,43.0,907.0,-4.0,2.0,2.0,129,109,90,125,128,469,68,491
2025-02-19 16:39:15.844,-438.0,36.0,892.0,-3.0,1.0,1.0,128,108,90,125,128,471,127,455
2025-02-19 16:39:15.861,-439.0,31.0,895.0,0.0,-1.0,1.0,128,109,91,125,128,470,207,420
2025-02-19 16:39:15.882,-437.0,40.0,923.0,2.0,-2.0,1.0,128,108,90,125,127,470,303,385
2025-02-19 16:39:15.898,-430.0,51.0,943.0,0.0,-2.0,0.0,128,109,91,125,128,470,437,352
2025-02-19 16:39:15.920,-429.0,48.0,943.0,-3.0,-2.0,0.0,129,108,90,125,127,469,585,323
2025-02-19 16:39:15.940,-435.0,30.0,934.0,-3.0,-2.0,2.0,128,109,90,125,128,470,714,300
2025-02-19 16:39:15.956,-439.0,36.0,921.0,-1.0,-2.0,3.0,129,109,91,124,128,469,815,286
2025-02-19 16:39:15.976,-461.0,37.0,914.0,0.0,-3.0,4.0,128,108,90,125,127,468,894,282
2025-02-19 16:39:15.996,-459.0,19.0,930.0,4.0,-5.0,5.0,128,110,91,125,128,467,1016,282
2025-02-19 16:39:16.013,-441.0,27.0,963.0,6.0,-3.0,7.0,128,110,90,125,128,467,1017,290
2025-02-19 16:39:16.034,-425.0,30.0,979.0,3.0,-1.0,8.0,128,107,91,125,128,467,1008,306
2025-02-19 16:39:16.054,-417.0,29.0,989.0,-1.0,1.0,9.0,128,108,90,125,127,466,966,327
2025-02-19 16:39:16.071,-417.0,30.0,972.0,-3.0,3.0,11.0,128,109,90,125,128,467,893,353
2025-02-19 16:39:16.091,-434.0,48.0,948.0,-3.0,3.0,11.0,128,109,91,125,128,466,799,384
2025-02-19 16:39:16.108,-446.0,63.0,927.0,-4.0,3.0,10.0,128,108,90,125,127,466,703,411
2025-02-19 16:39:16.127,-455.0,71.0,904.0,-5.0,3.0,8.0,129,109,91,125,128,466,658,442
2025-02-19 16:39:16.147,-456.0,71.0,896.0,-5.0,2.0,7.0,128,108,90,124,127,465,696,468
2025-02-19 16:39:16.165,-467.0,65.0,895.0,-4.0,2.0,6.0,128,109,91,125,128,465,747,490
2025-02-19 16:39:16.184,-461.0,70.0,895.0,-3.0,0.0,6.0,129,109,91,125,128,464,719,505
2025-02-19 16:39:16.205,-444.0,77.0,918.0,-1.0,-2.0,5.0,128,108,90,125,127,464,712,513
2025-02-19 16:39:16.223,-428.0,88.0,939.0,0.0,-1.0,5.0,128,109,91,125,128,463,636,519
2025-02-19 16:39:16.243,-426.0,93.0,933.0,-2.0,0.0,4.0,128,109,90,125,128,464,602,528
2025-02-19 16:39:16.263,-422.0,89.0,920.0,-2.0,-1.0,3.0,129,109,90,125,128,464,641,534
2025-02-19 16:39:16.279,-422.0,79.0,913.0,-1.0,-1.0,3.0,128,108,90,125,127,464,716,536
2025-02-19 16:39:16.300,-421.0,78.0,914.0,1.0,-1.0,2.0,128,109,91,125,128,464,801,542
2025-02-19 16:39:16.320,-423.0,77.0,904.0,0.0,-1.0,1.0,129,109,91,125,128,462,848,547
2025-02-19 16:39:16.337,-421.0,67.0,905.0,-1.0,-2.0,-1.0,128,108,90,125,128,464,859,552
2025-02-19 16:39:16.357,-419.0,42.0,915.0,1.0,-3.0,-1.0,128,109,91,125,128,463,827,560
2025-02-19 16:39:16.375,-427.0,37.0,916.0,1.0,-2.0,0.0,128,108,90,125,127,465,785,567
2025-02-19 16:39:16.394,-429.0,32.0,908.0,-1.0,-3.0,1.0,129,109,91,125,128,464,798,568
2025-02-19 16:39:16.413,-442.0,26.0,900.0,-2.0,-4.0,3.0,128,108,90,124,128,465,783,560
2025-02-19 16:39:16.431,-448.0,23.0,897.0,0.0,-5.0,4.0,128,109,90,125,128,465,671,542
2025-02-19 16:39:16.449,-448.0,19.0,905.0,2.0,-6.0,7.0,129,109,91,125,128,465,558,514
2025-02-19 16:39:16.465,-440.0,28.0,927.0,4.0,-8.0,10.0,128,109,91,126,127,466,379,482
2025-02-19 16:39:16.488,-427.0,68.0,948.0,5.0,-8.0,11.0,128,109,91,125,128,467,249,456
2025-02-19 16:39:16.509,-429.0,101.0,958.0,3.0,-6.0,10.0,128,108,90,124,127,467,169,432
2025-02-19 16:39:16.528,-430.0,103.0,958.0,2.0,-6.0,8.0,129,109,91,125,128,468,131,417
2025-02-19 16:39:16.546,-421.0,109.0,963.0,2.0,-6.0,6.0,128,108,90,125,127,468,124,410
2025-02-19 16:39:16.566,-416.0,117.0,976.0,4.0,-6.0,4.0,129,108,90,125,129,467,155,405
2025-02-19 16:39:16.582,-410.0,140.0,991.0,2.0,-3.0,2.0,129,109,91,124,128,468,210,387
2025-02-19 16:39:16.603,-421.0,148.0,978.0,-2.0,-1.0,-2.0,128,108,90,125,128,468,299,351
2025-02-19 16:39:16.624,-421.0,139.0,973.0,-2.0,0.0,-5.0,128,109,91,125,128,467,388,314
2025-02-19 16:39:16.641,-409.0,123.0,979.0,-1.0,2.0,-9.0,128,108,90,124,127,467,476,276
2025-02-19 16:39:16.660,-409.0,110.0,970.0,-2.0,4.0,-10.0,128,109,91,125,127,466,561,239
2025-02-19 16:39:16.680,-407.0,95.0,957.0,-4.0,4.0,-11.0,128,109,90,125,127,467,646,208
2025-02-19 16:39:16.698,-409.0,83.0,944.0,-5.0,5.0,-12.0,128,109,91,125,128,468,710,192
2025-02-19 16:39:16.718,-408.0,72.0,927.0,-6.0,6.0,-12.0,128,109,91,125,128,469,754,190
2025-02-19 16:39:16.738,-425.0,57.0,902.0,-6.0,6.0,-12.0,128,109,90,125,127,471,775,196
2025-02-19 16:39:16.755,-438.0,54.0,882.0,-7.0,3.0,-12.0,128,109,91,125,128,471,786,206
2025-02-19 16:39:16.775,-432.0,40.0,887.0,-5.0,1.0,-10.0,128,109,90,125,126,471,791,216
2025-02-19 16:39:16.792,-433.0,37.0,893.0,-4.0,0.0,-9.0,128,109,90,125,128,473,773,228
2025-02-19 16:39:16.812,-431.0,40.0,892.0,-5.0,-1.0,-7.0,128,108,90,124,127,473,724,249
2025-02-19 16:39:16.832,-438.0,42.0,892.0,-5.0,-3.0,-5.0,128,109,91,125,128,473,669,282
2025-02-19 16:39:16.850,-437.0,32.0,898.0,-3.0,-5.0,-4.0,128,109,91,125,128,473,602,317
2025-02-19 16:39:16.870,-430.0,23.0,921.0,-1.0,-6.0,-1.0,128,109,90,124,127,475,523,353
2025-02-19 16:39:16.890,-430.0,28.0,932.0,-3.0,-7.0,1.0,129,109,91,125,127,474,460,386
2025-02-19 16:39:16.907,-436.0,40.0,935.0,-5.0,-7.0,3.0,128,108,90,121,127,474,419,419
2025-02-19 16:39:16.927,-439.0,47.0,936.0,-4.0,-6.0,3.0,128,108,90,125,128,473,406,452
2025-02-19 16:39:16.945,-444.0,41.0,943.0,-2.0,-6.0,4.0,128,109,90,124,127,473,390,482
2025-02-19 16:39:16.964,-435.0,54.0,955.0,-1.0,-5.0,4.0,128,108,90,125,127,472,379,511
2025-02-19 16:39:16.984,-433.0,71.0,958.0,-2.0,-4.0,4.0,129,108,91,125,128,471,384,536
2025-02-19 16:39:17.004,-430.0,81.0,954.0,-5.0,-3.0,2.0,128,109,90,125,127,470,408,552
2025-02-19 16:39:17.021,-434.0,72.0,934.0,-6.0,-1.0,0.0,129,109,90,125,127,467,460,554
2025-02-19 16:39:17.042,-436.0,47.0,922.0,-4.0,-2.0,0.0,128,109,90,124,127,467,530,538
2025-02-19 16:39:17.059,-438.0,47.0,923.0,-1.0,-3.0,0.0,129,109,90,125,128,466,616,525
2025-02-19 16:39:17.078,-437.0,49.0,934.0,-1.0,-3.0,0.0,129,109,91,125,127,464,696,523
2025-02-19 16:39:17.098,-423.0,45.0,952.0,-2.0,-3.0,0.0,128,108,91,125,127,466,768,521
2025-02-19 16:39:17.116,-426.0,40.0,960.0,-2.0,-3.0,0.0,129,109,91,125,128,466,755,517
2025-02-19 16:39:17.135,-416.0,41.0,986.0,0.0,-2.0,0.0,128,108,90,125,128,467,666,513
2025-02-19 16:39:17.156,-403.0,54.0,1007.0,0.0,0.0,1.0,128,109,90,125,128,468,491,501
2025-02-19 16:39:17.173,-391.0,72.0,1016.0,-2.0,1.0,0.0,128,108,90,125,127,470,351,489
2025-02-19 16:39:17.193,-387.0,85.0,991.0,-5.0,5.0,-2.0,128,109,90,125,127,471,290,475
2025-02-19 16:39:17.213,-420.0,92.0,948.0,-7.0,4.0,-2.0,129,109,91,125,127,472,288,467
2025-02-19 16:39:17.230,-419.0,78.0,899.0,-5.0,4.0,-4.0,128,109,90,125,127,474,298,450
2025-02-19 16:39:17.251,-416.0,66.0,881.0,-1.0,3.0,-4.0,128,109,90,125,127,473,303,452
2025-02-19 16:39:17.268,-420.0,48.0,875.0,1.0,1.0,-4.0,128,108,90,125,127,474,247,469
2025-02-19 16:39:17.287,-420.0,45.0,900.0,3.0,-2.0,-4.0,129,109,91,125,128,474,199,492
2025-02-19 16:39:17.307,-416.0,39.0,933.0,2.0,-2.0,-4.0,128,108,90,125,127,474,167,509
2025-02-19 16:39:17.325,-411.0,36.0,950.0,1.0,-2.0,-4.0,129,109,90,125,127,481,144,525
2025-02-19 16:39:17.344,-409.0,41.0,969.0,0.0,-2.0,-3.0,128,109,91,125,127,474,106,533
2025-02-19 16:39:17.365,-401.0,43.0,966.0,-2.0,-1.0,-3.0,128,108,90,124,127,475,72,534
2025-02-19 16:39:17.381,-410.0,38.0,955.0,-3.0,1.0,-3.0,129,109,91,125,128,475,73,535
2025-02-19 16:39:17.402,-422.0,47.0,924.0,-3.0,0.0,-2.0,128,109,90,124,128,475,96,539
2025-02-19 16:39:17.422,-432.0,53.0,910.0,-2.0,-1.0,-2.0,129,109,91,125,128,474,146,544
2025-02-19 16:39:17.439,-443.0,42.0,907.0,-1.0,-3.0,-2.0,128,108,90,124,127,474,218,559
2025-02-19 16:39:17.460,-437.0,33.0,927.0,2.0,-4.0,-1.0,128,109,91,125,127,474,292,574
2025-02-19 16:39:17.476,-430.0,48.0,967.0,4.0,-4.0,0.0,129,109,90,125,127,472,321,596
2025-02-19 16:39:17.496,-424.0,79.0,992.0,2.0,-1.0,-1.0,129,109,90,125,128,473,349,607
2025-02-19 16:39:17.516,-432.0,83.0,976.0,-3.0,2.0,-3.0,129,109,91,126,128,472,407,603
2025-02-19 16:39:17.533,-439.0,58.0,939.0,-5.0,2.0,-4.0,128,108,90,124,127,472,468,593
2025-02-19 16:39:17.552,-440.0,41.0,911.0,-3.0,2.0,-4.0,129,109,91,125,128,471,532,582
2025-02-19 16:39:17.574,-442.0,25.0,913.0,1.0,1.0,-3.0,128,108,90,124,127,471,613,573
2025-02-19 16:39:17.590,-425.0,32.0,922.0,3.0,1.0,-2.0,129,109,91,125,128,470,667,570
2025-02-19 16:39:17.611,-423.0,29.0,935.0,0.0,0.0,-1.0,129,109,90,125,128,469,675,566
2025-02-19 16:39:17.631,-414.0,33.0,946.0,-2.0,0.0,-1.0,128,109,90,125,128,470,646,561
2025-02-19 16:39:17.648,-416.0,49.0,936.0,-2.0,0.0,0.0,129,109,90,125,128,468,602,555
2025-02-19 16:39:17.668,-423.0,50.0,925.0,-1.0,-1.0,0.0,128,108,90,125,127,468,614,544
2025-02-19 16:39:17.686,-430.0,48.0,928.0,-2.0,0.0,-1.0,129,109,88,125,128,468,638,532
2025-02-19 16:39:17.705,-423.0,40.0,933.0,-1.0,-1.0,-1.0,128,109,90,125,127,467,635,520
2025-02-19 16:39:17.725,-425.0,33.0,948.0,0.0,-1.0,0.0,129,109,91,125,128,467,622,511
2025-02-19 16:39:17.742,-419.0,46.0,956.0,0.0,-1.0,1.0,129,109,91,125,127,468,614,503
2025-02-19 16:39:17.762,-422.0,65.0,960.0,-3.0,0.0,0.0,128,108,90,125,127,467,611,497
2025-02-19 16:39:17.783,-421.0,66.0,944.0,-5.0,2.0,-2.0,129,109,91,125,127,467,620,490
2025-02-19 16:39:17.799,-430.0,48.0,928.0,-4.0,2.0,-3.0,128,108,90,125,127,467,655,483
2025-02-19 16:39:17.820,-430.0,34.0,913.0,-1.0,0.0,-2.0,128,109,90,125,128,467,699,476
2025-02-19 16:39:17.838,-424.0,31.0,920.0,0.0,-1.0,-1.0,127,109,90,125,127,466,743,467
2025-02-19 16:39:17.855,-427.0,39.0,937.0,-1.0,-1.0,0.0,129,109,91,125,125,467,781,459
2025-02-19 16:39:17.877,-421.0,42.0,943.0,-2.0,-1.0,0.0,129,109,91,124,128,466,813,452
2025-02-19 16:39:17.897,-418.0,44.0,956.0,-1.0,-1.0,0.0,128,107,90,125,127,468,842,446
2025-02-19 16:39:17.915,-427.0,67.0,948.0,-1.0,0.0,-1.0,129,109,90,125,128,468,855,446
2025-02-19 16:39:17.934,-431.0,62.0,934.0,-2.0,1.0,-2.0,128,109,90,125,127,468,849,445
2025-02-19 16:39:17.952,-439.0,53.0,917.0,-4.0,0.0,-3.0,128,109,90,125,128,469,824,447
2025-02-19 16:39:17.972,-435.0,33.0,903.0,-2.0,-1.0,-3.0,128,109,90,125,128,469,791,457
2025-02-19 16:39:17.992,-428.0,17.0,914.0,1.0,-3.0,-2.0,128,109,94,125,127,469,743,470
2025-02-19 16:39:18.008,-420.0,17.0,939.0,3.0,-3.0,0.0,129,109,91,125,128,467,681,482
2025-02-19 16:39:18.029,-413.0,43.0,968.0,1.0,-2.0,0.0,128,108,90,125,127,469,611,489
2025-02-19 16:39:18.049,-421.0,55.0,967.0,-3.0,0.0,0.0,129,109,91,126,128,469,543,491
2025-02-19 16:39:18.066,-433.0,58.0,945.0,-4.0,1.0,-1.0,128,108,91,125,127,469,483,489
2025-02-19 16:39:18.085,-445.0,55.0,921.0,-2.0,0.0,-2.0,129,109,90,125,129,470,430,490
2025-02-19 16:39:18.106,-439.0,45.0,921.0,0.0,-1.0,-2.0,129,109,91,125,127,469,389,490
2025-02-19 16:39:18.123,-436.0,46.0,923.0,1.0,-2.0,-2.0,129,108,90,125,127,470,366,488
2025-02-19 16:39:18.143,-423.0,42.0,934.0,1.0,-2.0,-2.0,128,109,91,125,128,469,365,484
2025-02-19 16:39:18.159,-419.0,41.0,958.0,1.0,-1.0,-1.0,128,108,90,124,127,471,379,477
2025-02-19 16:39:18.181,-417.0,57.0,962.0,0.0,0.0,-1.0,129,109,91,125,127,470,411,468
2025-02-19 16:39:18.201,-433.0,57.0,941.0,-2.0,1.0,-2.0,128,108,90,124,127,470,457,456
2025-02-19 16:39:18.218,-435.0,44.0,936.0,-1.0,0.0,-3.0,128,109,90,125,128,471,512,446
2025-02-19 16:39:18.237,-437.0,36.0,942.0,1.0,0.0,-2.0,130,110,91,125,128,470,563,439
2025-02-19 16:39:18.258,-436.0,42.0,938.0,0.0,1.0,-2.0,128,109,90,125,127,471,605,432
2025-02-19 16:39:18.274,-438.0,36.0,925.0,-2.0,1.0,-1.0,129,109,91,125,128,470,639,429
2025-02-19 16:39:18.295,-438.0,25.0,919.0,-1.0,0.0,0.0,128,109,90,125,128,471,660,426
2025-02-19 16:39:18.314,-429.0,26.0,958.0,3.0,-1.0,0.0,129,109,91,126,128,471,666,431
2025-02-19 16:39:18.332,-402.0,41.0,980.0,4.0,0.0,0.0,128,108,90,125,127,471,652,428
2025-02-19 16:39:18.352,-408.0,69.0,973.0,-2.0,3.0,0.0,129,109,91,125,128,471,625,423
2025-02-19 16:39:18.368,-410.0,63.0,936.0,-5.0,2.0,-1.0,129,109,91,126,128,471,609,423
2025-02-19 16:39:18.389,-420.0,55.0,914.0,-4.0,2.0,-1.0,128,108,90,125,127,472,593,429
2025-02-19 16:39:18.405,-430.0,56.0,891.0,-2.0,1.0,-1.0,129,109,91,125,128,474,550,441
2025-02-19 16:39:18.426,-431.0,58.0,893.0,1.0,-2.0,-1.0,128,108,90,125,127,473,493,454
2025-02-19 16:39:18.447,-432.0,61.0,914.0,1.0,-2.0,-1.0,128,109,91,125,127,471,428,465
2025-02-19 16:39:18.467,-434.0,64.0,935.0,1.0,-2.0,-2.0,128,108,90,124,127,472,340,472
2025-02-19 16:39:18.484,-428.0,65.0,954.0,1.0,-3.0,-2.0,129,109,91,125,127,471,281,479
2025-02-19 16:39:18.504,-434.0,63.0,966.0,-1.0,-1.0,-3.0,128,109,90,125,128,472,259,482
2025-02-19 16:39:18.524,-428.0,54.0,968.0,0.0,0.0,-3.0,128,109,90,125,127,472,263,483
2025-02-19 16:39:18.541,-426.0,49.0,971.0,-1.0,2.0,-3.0,129,109,91,125,128,471,288,484
2025-02-19 16:39:18.561,-429.0,47.0,945.0,-2.0,3.0,-2.0,128,108,90,124,127,473,328,483
2025-02-19 16:39:18.581,-429.0,46.0,942.0,-2.0,2.0,-2.0,128,109,91,125,128,472,379,484
2025-02-19 16:39:18.598,-435.0,58.0,928.0,-1.0,2.0,-2.0,128,108,90,125,127,471,424,484
2025-02-19 16:39:18.618,-438.0,58.0,916.0,0.0,2.0,-2.0,129,109,91,125,127,471,470,479
2025-02-19 16:39:18.635,-444.0,56.0,909.0,0.0,1.0,-2.0,129,109,90,125,128,471,513,474
2025-02-19 16:39:18.656,-438.0,40.0,903.0,1.0,-1.0,-2.0,128,109,90,125,128,471,561,467
2025-02-19 16:39:18.674,-437.0,38.0,914.0,2.0,-1.0,-1.0,129,108,91,125,127,470,618,464
2025-02-19 16:39:18.692,-441.0,42.0,918.0,2.0,-1.0,-1.0,128,108,90,125,127,470,656,464
2025-02-19 16:39:18.713,-434.0,44.0,926.0,0.0,-1.0,-1.0,129,109,91,125,127,470,751,465
2025-02-19 16:39:18.733,-440.0,40.0,925.0,0.0,-2.0,-1.0,128,108,90,125,127,470,711,465
2025-02-19 16:39:18.750,-437.0,45.0,935.0,1.0,-1.0,-1.0,129,109,91,123,128,470,633,471
2025-02-19 16:39:18.770,-439.0,46.0,942.0,-1.0,0.0,-1.0,128,109,90,125,128,470,563,476
2025-02-19 16:39:18.790,-436.0,53.0,931.0,-3.0,0.0,-2.0,128,109,90,121,127,470,495,479
2025-02-19 16:39:18.807,-438.0,50.0,918.0,-2.0,-1.0,-2.0,129,109,91,125,128,470,427,481
2025-02-19 16:39:18.825,-438.0,44.0,924.0,-1.0,-1.0,-1.0,128,109,91,125,127,470,370,477
2025-02-19 16:39:18.843,-444.0,57.0,926.0,-1.0,-1.0,-1.0,128,109,91,124,129,471,326,474
2025-02-19 16:39:18.865,-449.0,63.0,918.0,-3.0,-1.0,-2.0,128,108,90,125,128,471,296,468
2025-02-19 16:39:18.885,-445.0,47.0,916.0,-2.0,-1.0,-1.0,128,109,91,125,128,472,281,462
2025-02-19 16:39:18.901,-439.0,45.0,918.0,0.0,-2.0,-1.0,127,109,91,125,128,471,284,458
2025-02-19 16:39:18.922,-426.0,53.0,936.0,-1.0,-3.0,0.0,128,108,90,125,127,472,304,452
2025-02-19 16:39:18.942,-431.0,52.0,943.0,-4.0,-2.0,0.0,129,109,91,125,128,471,342,451
2025-02-19 16:39:18.959,-432.0,46.0,944.0,-5.0,-2.0,-1.0,128,108,90,125,127,471,392,447
2025-02-19 16:39:18.979,-432.0,49.0,946.0,-3.0,-2.0,0.0,128,109,91,125,127,471,455,442
2025-02-19 16:39:18.999,-435.0,54.0,951.0,-1.0,-1.0,0.0,129,109,91,125,127,471,517,438
2025-02-19 16:39:19.016,-450.0,69.0,955.0,-2.0,0.0,-1.0,128,109,90,123,127,472,570,436
2025-02-19 16:39:19.037,-444.0,50.0,931.0,-3.0,1.0,-1.0,129,109,91,125,127,470,613,432
2025-02-19 16:39:19.057,-446.0,47.0,933.0,-2.0,1.0,-1.0,128,109,90,125,127,471,658,428
2025-02-19 16:39:19.073,-435.0,41.0,940.0,0.0,1.0,-1.0,129,108,91,125,127,470,685,426
2025-02-19 16:39:19.094,-429.0,47.0,944.0,-1.0,2.0,0.0,128,109,91,124,127,470,686,424
2025-02-19 16:39:19.110,-432.0,55.0,935.0,-3.0,2.0,0.0,129,109,91,126,128,470,666,427
2025-02-19 16:39:19.131,-432.0,49.0,926.0,-4.0,1.0,0.0,129,109,90,125,127,469,625,432
2025-02-19 16:39:19.151,-428.0,50.0,919.0,-2.0,1.0,0.0,129,108,90,125,127,471,569,437
2025-02-19 16:39:19.168,-428.0,57.0,915.0,0.0,0.0,0.0,129,109,90,125,128,470,507,448
2025-02-19 16:39:19.188,-432.0,60.0,912.0,-1.0,0.0,-1.0,128,108,89,124,127,470,448,459
2025-02-19 16:39:19.208,-435.0,54.0,908.0,-2.0,-2.0,-1.0,129,109,91,125,127,471,396,474
2025-02-19 16:39:19.225,-424.0,49.0,924.0,0.0,-2.0,-1.0,128,109,91,125,127,470,353,486
2025-02-19 16:39:19.243,-423.0,44.0,942.0,1.0,-3.0,0.0,128,109,90,125,127,471,319,495
2025-02-19 16:39:19.259,-432.0,55.0,954.0,0.0,-2.0,-1.0,129,109,91,125,127,469,302,499
2025-02-19 16:39:19.282,-437.0,63.0,941.0,-3.0,-1.0,-2.0,128,108,90,124,127,470,301,500
2025-02-19 16:39:19.302,-447.0,53.0,927.0,-3.0,-1.0,-2.0,129,109,91,125,128,470,325,503
2025-02-19 16:39:19.319,-446.0,55.0,918.0,-2.0,-1.0,-3.0,128,108,90,125,128,471,358,502
2025-02-19 16:39:19.340,-440.0,39.0,930.0,1.0,-2.0,-3.0,131,109,90,125,128,470,403,501
2025-02-19 16:39:19.358,-435.0,41.0,950.0,1.0,-1.0,-2.0,128,109,90,124,127,469,462,495
2025-02-19 16:39:19.376,-437.0,45.0,949.0,-1.0,0.0,-2.0,128,109,90,125,128,470,520,486
2025-02-19 16:39:19.397,-440.0,45.0,931.0,-3.0,0.0,-2.0,129,109,90,125,128,469,577,477
2025-02-19 16:39:19.417,-435.0,44.0,912.0,-3.0,0.0,-2.0,128,109,90,124,128,469,624,468
2025-02-19 16:39:19.434,-441.0,46.0,898.0,-2.0,-1.0,-2.0,129,109,91,125,128,469,658,464
2025-02-19 16:39:19.454,-442.0,41.0,886.0,-1.0,-3.0,-2.0,128,108,90,125,127,469,671,463
2025-02-19 16:39:19.472,-435.0,49.0,878.0,-1.0,-5.0,-2.0,129,109,91,125,128,469,666,462
2025-02-19 16:39:19.490,-439.0,57.0,876.0,-2.0,-7.0,-2.0,128,108,90,125,127,469,649,461
2025-02-19 16:39:19.509,-454.0,68.0,869.0,-3.0,-10.0,-3.0,128,109,91,125,127,469,632,463
2025-02-19 16:39:19.531,-481.0,81.0,849.0,-3.0,-15.0,-6.0,129,109,91,125,127,469,609,466
2025-02-19 16:39:19.549,-580.0,157.0,875.0,-19.0,-24.0,-8.0,128,109,90,125,126,470,577,477
2025-02-19 16:39:19.569,-728.0,197.0,983.0,-72.0,-46.0,-5.0,129,109,90,125,126,469,554,496
2025-02-19 16:39:19.586,-693.0,41.0,1553.0,-126.0,-74.0,6.0,128,108,90,125,124,470,550,522
2025-02-19 16:39:19.606,-539.0,-41.0,2124.0,-162.0,-33.0,19.0,129,108,90,124,123,469,563,539
2025-02-19 16:39:19.626,-452.0,-117.0,2394.0,-191.0,48.0,16.0,128,105,87,122,119,467,1017,531
2025-02-19 16:39:19.635,-421.0,-255.0,2209.0,-201.0,135.0,5.0,129,101,82,121,113,466,1016,559
2025-02-19 16:39:19.663,-502.0,-289.0,1750.0,-223.0,185.0,-3.0,129,93,74,118,103,465,1017,677
2025-02-19 16:39:19.684,-367.0,-306.0,1277.0,-242.0,219.0,-14.0,130,85,66,110,94,463,1017,1009
2025-02-19 16:39:19.701,-357.0,-376.0,907.0,-240.0,224.0,-7.0,130,77,60,99,86,440,1017,1009
2025-02-19 16:39:19.720,-194.0,-46.0,432.0,-253.0,226.0,8.0,130,69,55,86,76,6,1017,1009
2025-02-19 16:39:19.737,56.0,149.0,98.0,-281.0,238.0,7.0,131,65,52,82,70,7,1016,682
2025-02-19 16:39:19.757,-271.0,571.0,313.0,-319.0,202.0,23.0,129,61,49,70,64,5,1017,298
2025-02-19 16:39:19.778,-7.0,1129.0,-1423.0,-297.0,149.0,-4.0,122,59,48,66,58,7,1017,89
2025-02-19 16:39:19.795,-148.0,1546.0,-1318.0,-191.0,82.0,-76.0,113,57,46,63,56,7,1004,7
2025-02-19 16:39:19.815,-405.0,1843.0,-1648.0,-15.0,-17.0,-244.0,106,54,44,56,55,6,368,6
2025-02-19 16:39:19.834,-377.0,1902.0,-1731.0,87.0,-184.0,-362.0,103,56,45,59,58,9,128,26
2025-02-19 16:39:19.852,-389.0,1671.0,-1623.0,88.0,-386.0,-488.0,101,54,45,58,57,7,432,234
2025-02-19 16:39:19.872,1185.0,1719.0,-595.0,-12.0,-592.0,-651.0,103,54,45,59,58,9,615,523
2025-02-19 16:39:19.892,3058.0,362.0,986.0,-291.0,-586.0,-779.0,102,53,44,60,57,8,655,880
2025-02-19 16:39:19.909,4469.0,-3630.0,1754.0,-420.0,-297.0,-610.0,99,54,43,62,59,47,1017,1009
2025-02-19 16:39:19.929,4389.0,-6810.0,899.0,-245.0,-37.0,-190.0,97,55,45,65,63,333,1017,998
2025-02-19 16:39:19.949,3195.0,-5643.0,361.0,81.0,101.0,121.0,97,54,44,64,63,579,723,870
2025-02-19 16:39:19.964,1786.0,-3462.0,549.0,122.0,179.0,297.0,96,54,44,64,63,791,1017,343
2025-02-19 16:39:19.986,1066.0,-1943.0,345.0,82.0,195.0,345.0,96,54,44,63,63,958,1018,7
2025-02-19 16:39:20.003,704.0,-1279.0,208.0,42.0,197.0,356.0,97,54,45,64,64,1016,803,7
2025-02-19 16:39:20.023,470.0,-1028.0,23.0,45.0,180.0,378.0,96,55,46,64,64,1018,7,7
2025-02-19 16:39:20.044,534.0,-563.0,134.0,69.0,191.0,398.0,95,54,45,64,64,1017,7,6
2025-02-19 16:39:20.061,473.0,-158.0,146.0,72.0,213.0,394.0,96,55,47,64,64,1016,7,6
2025-02-19 16:39:20.080,304.0,121.0,-53.0,56.0,216.0,381.0,95,55,46,62,65,1017,7,6
2025-02-19 16:39:20.101,-196.0,274.0,-26.0,23.0,163.0,351.0,96,56,48,66,66,1016,8,7
2025-02-19 16:39:20.116,-146.0,581.0,24.0,-18.0,126.0,292.0,95,56,47,65,66,1017,6,14
2025-02-19 16:39:20.138,-213.0,550.0,17.0,-29.0,111.0,238.0,95,56,48,66,66,1017,6,201
2025-02-19 16:39:20.158,-314.0,867.0,-287.0,-9.0,89.0,210.0,96,57,48,66,66,1004,7,580
2025-02-19 16:39:20.175,-756.0,1740.0,-633.0,34.0,30.0,125.0,94,57,48,66,66,888,1017,1004
2025-02-19 16:39:20.195,-979.0,3255.0,-1355.0,201.0,-11.0,-155.0,93,57,48,66,66,616,1017,1009
2025-02-19 16:39:20.216,-1281.0,4082.0,-1853.0,128.0,-161.0,-491.0,92,57,48,63,63,228,966,1009
2025-02-19 16:39:20.231,-485.0,3559.0,-1834.0,-28.0,-463.0,-766.0,93,56,48,64,64,8,239,1010
2025-02-19 16:39:20.253,1242.0,2485.0,-1454.0,-167.0,-801.0,-1021.0,95,56,47,62,63,7,30,1009
2025-02-19 16:39:20.273,7077.0,-1581.0,151.0,-344.0,-1086.0,-972.0,97,58,48,66,64,9,1011,1009
2025-02-19 16:39:20.290,7607.0,-7230.0,1410.0,-244.0,-57.0,-249.0,94,59,49,71,71,10,1017,864
2025-02-19 16:39:20.310,2774.0,-6334.0,-737.0,71.0,141.0,55.0,93,58,48,70,77,232,1017,174
2025-02-19 16:39:20.326,2229.0,-3728.0,182.0,168.0,113.0,195.0,105,70,60,82,88,437,1017,21
2025-02-19 16:39:20.348,1319.0,-2407.0,718.0,32.0,121.0,337.0,96,59,48,71,77,493,760,137
2025-02-19 16:39:20.367,484.0,-1706.0,567.0,86.0,137.0,343.0,100,60,51,72,77,703,10,75
2025-02-19 16:39:20.385,432.0,-978.0,413.0,91.0,176.0,328.0,100,58,50,72,78,872,164,304
2025-02-19 16:39:20.404,125.0,-550.0,259.0,74.0,183.0,331.0,102,59,51,74,80,1013,608,408
2025-02-19 16:39:20.422,129.0,-185.0,475.0,37.0,187.0,323.0,104,58,51,75,79,1017,7,537
2025-02-19 16:39:20.441,152.0,-33.0,340.0,-6.0,177.0,294.0,107,61,53,76,80,1017,8,665
2025-02-19 16:39:20.462,21.0,-180.0,299.0,-38.0,167.0,274.0,111,62,54,78,82,1017,10,853
2025-02-19 16:39:20.478,-58.0,-237.0,236.0,-36.0,159.0,267.0,113,62,54,78,82,1017,575,1009
2025-02-19 16:39:20.484,-66.0,-257.0,183.0,-33.0,152.0,279.0,120,64,57,82,86,1017,928,1010
2025-02-19 16:39:20.519,-164.0,-181.0,221.0,-48.0,161.0,288.0,125,64,56,81,87,1018,925,1010
2025-02-19 16:39:20.534,-336.0,-142.0,215.0,-23.0,142.0,289.0,130,65,57,83,88,1017,866,1010
2025-02-19 16:39:20.556,-247.0,276.0,95.0,37.0,132.0,242.0,136,64,58,82,88,1017,355,1009
2025-02-19 16:39:20.576,-608.0,1328.0,-148.0,57.0,165.0,116.0,139,63,57,79,86,1018,8,1009
2025-02-19 16:39:20.594,-614.0,2571.0,-580.0,69.0,161.0,-67.0,142,63,57,75,81,1017,9,1009
2025-02-19 16:39:20.614,-841.0,3697.0,-1771.0,46.0,80.0,-368.0,142,61,55,66,71,1017,44,1009
2025-02-19 16:39:20.635,-1123.0,3499.0,-2654.0,52.0,-237.0,-641.0,144,59,55,62,65,1017,130,963
2025-02-19 16:39:20.651,-38.0,3121.0,-2295.0,43.0,-552.0,-903.0,143,57,52,60,62,1017,48,750
2025-02-19 16:39:20.670,3818.0,2152.0,-1512.0,-182.0,-915.0,-1035.0,145,57,52,62,66,1017,8,50
2025-02-19 16:39:20.691,6599.0,-3343.0,433.0,-390.0,-913.0,-719.0,147,57,50,64,68,1017,8,8
2025-02-19 16:39:20.701,6344.0,-5670.0,979.0,-467.0,-275.0,-265.0,143,58,51,63,68,1018,122,7
2025-02-19 16:39:20.727,3914.0,-7060.0,-56.0,167.0,311.0,-26.0,132,57,49,63,71,1017,362,19
2025-02-19 16:39:20.745,1665.0,-3548.0,-1273.0,239.0,231.0,208.0,133,57,49,64,71,1017,18,621
2025-02-19 16:39:20.764,879.0,-1955.0,-510.0,35.0,42.0,258.0,136,57,51,65,72,1017,28,1009
2025-02-19 16:39:20.785,753.0,-1957.0,19.0,0.0,27.0,287.0,136,57,50,64,71,1018,236,977
2025-02-19 16:39:20.802,583.0,-1356.0,143.0,126.0,100.0,274.0,137,58,51,65,73,1017,799,635
2025-02-19 16:39:20.822,344.0,-763.0,67.0,118.0,142.0,300.0,137,59,52,66,74,1017,836,561
2025-02-19 16:39:20.841,97.0,-342.0,-71.0,54.0,109.0,320.0,136,58,52,65,73,1017,977,423
2025-02-19 16:39:20.859,11.0,-153.0,13.0,-20.0,41.0,317.0,137,59,53,67,74,1017,882,633
2025-02-19 16:39:20.879,123.0,141.0,250.0,70.0,43.0,189.0,137,58,54,66,73,1017,903,886
2025-02-19 16:39:20.900,-2.0,-141.0,366.0,59.0,91.0,189.0,136,59,54,67,74,1017,1017,1010
2025-02-19 16:39:20.916,23.0,-84.0,327.0,44.0,124.0,186.0,135,59,53,67,74,1017,1018,1010
2025-02-19 16:39:20.937,-148.0,-235.0,152.0,34.0,134.0,202.0,133,58,53,68,74,1017,1015,802
2025-02-19 16:39:20.952,-309.0,-27.0,146.0,82.0,124.0,181.0,133,59,53,68,75,1017,1017,411
2025-02-19 16:39:20.974,-306.0,312.0,333.0,137.0,153.0,121.0,132,58,53,68,74,1017,215,75
2025-02-19 16:39:20.993,-534.0,715.0,154.0,113.0,171.0,98.0,131,59,54,68,74,1017,7,7
2025-02-19 16:39:21.011,-900.0,2002.0,-365.0,105.0,169.0,10.0,129,58,53,67,72,1017,7,6
2025-02-19 16:39:21.031,-1474.0,3081.0,-1231.0,111.0,52.0,-259.0,128,59,53,65,70,1018,552,7
2025-02-19 16:39:21.051,-1437.0,3377.0,-1992.0,53.0,-154.0,-564.0,131,59,53,63,68,1016,612,6
2025-02-19 16:39:21.067,-355.0,2780.0,-2447.0,-101.0,-593.0,-851.0,133,57,51,62,68,1017,6,6
2025-02-19 16:39:21.088,2971.0,1061.0,-2480.0,-419.0,-926.0,-900.0,135,59,52,63,70,1017,7,7
2025-02-19 16:39:21.109,6742.0,-3226.0,-178.0,-610.0,-829.0,-612.0,135,58,51,64,69,1017,123,88
2025-02-19 16:39:21.126,6673.0,-6973.0,714.0,-256.0,-24.0,-221.0,132,60,51,65,71,1017,7,31
2025-02-19 16:39:21.146,3603.0,-5748.0,-1655.0,394.0,391.0,19.0,127,58,50,65,73,1017,7,6
2025-02-19 16:39:21.164,1384.0,-2682.0,-1374.0,288.0,228.0,215.0,130,59,51,65,74,1016,7,236
2025-02-19 16:39:21.183,967.0,-1586.0,100.0,55.0,85.0,256.0,134,59,48,66,75,1012,8,890
2025-02-19 16:39:21.203,815.0,-1690.0,253.0,-22.0,101.0,279.0,134,60,52,65,75,1009,106,1009
2025-02-19 16:39:21.220,636.0,-1393.0,88.0,26.0,138.0,309.0,135,60,53,70,78,996,873,1009
2025-02-19 16:39:21.240,413.0,-825.0,-88.0,63.0,170.0,302.0,136,62,56,73,81,967,1018,874
2025-02-19 16:39:21.260,335.0,-490.0,-101.0,90.0,163.0,279.0,136,61,55,73,81,933,884,562
2025-02-19 16:39:21.277,328.0,-241.0,100.0,39.0,165.0,271.0,135,61,55,73,81,922,991,676
2025-02-19 16:39:21.297,401.0,-409.0,180.0,-25.0,177.0,288.0,137,61,55,74,81,913,917,665
2025-02-19 16:39:21.318,170.0,-619.0,-85.0,19.0,170.0,314.0,137,63,56,77,84,904,965,873
2025-02-19 16:39:21.335,326.0,-541.0,7.0,100.0,170.0,347.0,138,63,54,82,86,895,957,1009
2025-02-19 16:39:21.352,169.0,-257.0,-134.0,147.0,209.0,366.0,139,66,58,86,91,890,134,986
2025-02-19 16:39:21.371,-78.0,50.0,539.0,266.0,200.0,363.0,139,69,60,92,96,885,121,900
2025-02-19 16:39:21.391,108.0,43.0,-432.0,314.0,209.0,355.0,140,77,65,99,101,877,466,900
2025-02-19 16:39:21.412,-185.0,301.0,-753.0,429.0,96.0,342.0,137,84,69,108,106,871,8,1009
2025-02-19 16:39:21.429,-782.0,1352.0,-1225.0,392.0,53.0,238.0,135,93,74,117,113,867,7,877
2025-02-19 16:39:21.448,-1293.0,2080.0,-2484.0,127.0,-59.0,20.0,136,103,79,119,114,861,8,578
2025-02-19 16:39:21.469,-908.0,3108.0,-2791.0,-116.0,-228.0,-436.0,136,108,84,119,113,851,65,421
2025-02-19 16:39:21.485,1087.0,2121.0,-1006.0,-317.0,-301.0,-788.0,137,111,90,120,122,839,463,779
2025-02-19 16:39:21.506,-630.0,706.0,-4278.0,60.0,-923.0,-899.0,136,121,94,122,129,817,1018,1009
2025-02-19 16:39:21.526,2588.0,-2117.0,656.0,-319.0,-842.0,-820.0,137,126,96,126,135,801,1017,986
2025-02-19 16:39:21.544,4007.0,-3473.0,652.0,-238.0,-580.0,-440.0,137,124,98,128,139,792,1017,680
2025-02-19 16:39:21.563,3994.0,-5088.0,1057.0,-222.0,-63.0,73.0,138,127,99,131,141,790,1017,229
2025-02-19 16:39:21.584,2157.0,-4146.0,621.0,167.0,182.0,225.0,139,128,101,132,142,770,999,9
2025-02-19 16:39:21.601,643.0,-1872.0,763.0,279.0,267.0,279.0,140,127,100,130,140,753,484,7
2025-02-19 16:39:21.621,133.0,-965.0,530.0,104.0,204.0,276.0,141,128,101,131,141,748,190,8
2025-02-19 16:39:21.637,-38.0,-923.0,432.0,-69.0,137.0,265.0,140,126,99,130,138,744,9,8
2025-02-19 16:39:21.658,-48.0,-720.0,418.0,-105.0,107.0,264.0,139,125,100,130,138,742,131,8
2025-02-19 16:39:21.678,-76.0,-649.0,294.0,-51.0,143.0,276.0,137,124,99,129,136,748,621,6
2025-02-19 16:39:21.695,19.0,-463.0,208.0,16.0,176.0,280.0,141,128,103,134,139,732,1017,73
2025-02-19 16:39:21.716,-133.0,-439.0,223.0,77.0,140.0,273.0,141,127,102,133,137,685,1017,494
2025-02-19 16:39:21.733,-519.0,-563.0,382.0,-95.0,121.0,230.0,140,126,100,131,136,659,1017,848
2025-02-19 16:39:21.750,-36.0,-315.0,176.0,93.0,94.0,215.0,140,125,100,132,135,638,1017,1008
2025-02-19 16:39:21.772,-285.0,-226.0,163.0,55.0,91.0,184.0,139,123,100,131,133,625,143,1003
2025-02-19 16:39:21.793,-179.0,-67.0,260.0,49.0,90.0,174.0,140,123,100,131,134,615,9,1009
2025-02-19 16:39:21.810,-345.0,-134.0,72.0,58.0,156.0,153.0,139,122,99,130,132,606,9,1010
2025-02-19 16:39:21.830,-564.0,109.0,183.0,75.0,161.0,154.0,139,122,100,131,131,600,10,1009
2025-02-19 16:39:21.849,-573.0,1012.0,-584.0,83.0,90.0,123.0,139,120,100,131,129,594,7,1009
2025-02-19 16:39:21.865,-978.0,1573.0,-1208.0,152.0,-28.0,-42.0,139,119,101,131,129,591,8,1009
2025-02-19 16:39:21.886,-1345.0,2839.0,-2072.0,243.0,-162.0,-348.0,140,122,103,132,132,583,29,976
2025-02-19 16:39:21.907,-1290.0,3262.0,-1037.0,215.0,-445.0,-615.0,140,123,102,130,131,577,103,768
2025-02-19 16:39:21.924,2604.0,1759.0,-885.0,48.0,-938.0,-686.0,141,126,103,132,138,573,52,654
2025-02-19 16:39:21.944,2666.0,-3245.0,410.0,-150.0,-1047.0,-536.0,143,130,104,137,143,568,614,605
2025-02-19 16:39:21.961,5392.0,-5817.0,2194.0,31.0,-251.0,-46.0,145,129,105,136,146,564,979,176
2025-02-19 16:39:21.982,2142.0,-4476.0,2165.0,158.0,194.0,149.0,146,127,103,136,145,566,423,9
2025-02-19 16:39:22.001,632.0,-1495.0,1252.0,155.0,261.0,122.0,146,127,101,134,142,575,8,8
2025-02-19 16:39:22.018,-573.0,-640.0,511.0,-93.0,144.0,112.0,147,128,99,134,141,581,9,8
2025-02-19 16:39:22.037,-769.0,-1478.0,472.0,-133.0,86.0,132.0,147,128,100,135,142,570,129,10
2025-02-19 16:39:22.055,-46.0,-834.0,830.0,-59.0,100.0,157.0,147,126,98,134,140,553,10,10
2025-02-19 16:39:22.071,-63.0,-746.0,501.0,-43.0,126.0,167.0,147,123,95,133,138,543,293,23
2025-02-19 16:39:22.096,-67.0,-697.0,468.0,-51.0,146.0,169.0,146,118,90,131,131,552,586,77
2025-02-19 16:39:22.112,36.0,-685.0,389.0,-82.0,116.0,151.0,147,113,87,130,124,553,1017,565
2025-02-19 16:39:22.133,-21.0,-752.0,367.0,-80.0,89.0,148.0,148,108,83,128,116,541,1017,903
2025-02-19 16:39:22.153,-30.0,-721.0,327.0,-87.0,76.0,177.0,149,104,79,126,110,517,792,1010
2025-02-19 16:39:22.170,141.0,-600.0,476.0,-103.0,97.0,203.0,149,100,78,123,103,503,1017,1010
2025-02-19 16:39:22.187,-105.0,-641.0,371.0,-49.0,146.0,231.0,149,96,76,119,99,495,918,1010
2025-02-19 16:39:22.210,-206.0,-447.0,291.0,-5.0,156.0,251.0,149,90,74,119,100,493,323,1009
2025-02-19 16:39:22.224,-34.0,-327.0,166.0,52.0,163.0,273.0,148,85,73,113,97,495,10,1009
2025-02-19 16:39:22.248,-160.0,-86.0,-17.0,96.0,209.0,273.0,148,81,72,110,94,496,10,1009
2025-02-19 16:39:22.268,-300.0,596.0,-305.0,121.0,203.0,254.0,146,75,69,103,87,499,10,1009
2025-02-19 16:39:22.284,-698.0,1269.0,-214.0,219.0,97.0,132.0,146,71,68,91,83,501,10,1009
2025-02-19 16:39:22.305,-801.0,2408.0,-1396.0,197.0,104.0,-154.0,143,68,64,79,78,501,10,1009
2025-02-19 16:39:22.321,-1636.0,3778.0,-2225.0,26.0,-38.0,-587.0,141,68,61,71,73,493,10,1009
2025-02-19 16:39:22.342,-343.0,3262.0,-2775.0,-190.0,-410.0,-977.0,140,67,57,64,69,489,11,1009
2025-02-19 16:39:22.362,4948.0,2145.0,316.0,-299.0,-761.0,-1164.0,140,59,52,64,63,488,10,1010
2025-02-19 16:39:22.380,6912.0,-643.0,-827.0,-540.0,-997.0,-912.0,146,59,51,68,67,491,11,900
2025-02-19 16:39:22.400,6834.0,-6650.0,429.0,-568.0,-470.0,-303.0,148,53,53,74,73,461,456,649
2025-02-19 16:39:22.420,4287.0,-6512.0,-654.0,218.0,213.0,-11.0,144,59,50,72,74,421,1018,9
2025-02-19 16:39:22.437,1546.0,-3420.0,-1067.0,346.0,238.0,196.0,142,57,48,70,72,474,1018,8
2025-02-19 16:39:22.456,378.0,-1089.0,-606.0,68.0,27.0,192.0,145,59,50,71,74,508,1017,8
2025-02-19 16:39:22.476,590.0,-1808.0,122.0,-20.0,-26.0,188.0,147,59,51,72,74,537,722,8
2025-02-19 16:39:22.493,630.0,-1645.0,233.0,68.0,35.0,228.0,146,58,50,70,72,570,751,7
2025-02-19 16:39:22.514,413.0,-1168.0,138.0,151.0,105.0,240.0,150,63,55,75,77,565,1017,11
2025-02-19 16:39:22.531,150.0,-595.0,9.0,103.0,128.0,260.0,152,66,58,79,79,456,1017,100
2025-02-19 16:39:22.551,-81.0,-446.0,-117.0,16.0,87.0,255.0,154,66,59,80,81,384,1017,718
2025-02-19 16:39:22.570,-73.0,-70.0,4.0,49.0,52.0,178.0,153,65,58,78,79,339,1018,939
2025-02-19 16:39:22.588,-64.0,-391.0,161.0,40.0,41.0,154.0,154,67,59,80,81,309,1017,1010
2025-02-19 16:39:22.608,-19.0,-508.0,227.0,9.0,57.0,172.0,154,66,58,79,80,294,1018,1009
2025-02-19 16:39:22.628,-126.0,-670.0,128.0,6.0,75.0,194.0,153,65,58,79,80,288,1017,1009
2025-02-19 16:39:22.646,-88.0,-526.0,336.0,73.0,77.0,209.0,156,68,62,82,83,278,301,1009
2025-02-19 16:39:22.666,-35.0,-301.0,416.0,196.0,113.0,155.0,156,68,61,82,83,237,15,1009
2025-02-19 16:39:22.685,-342.0,370.0,288.0,149.0,158.0,145.0,155,67,60,81,81,215,32,1009
2025-02-19 16:39:22.703,-861.0,1464.0,-57.0,120.0,171.0,21.0,154,65,58,78,78,227,12,953
2025-02-19 16:39:22.723,-1552.0,2880.0,-728.0,60.0,101.0,-240.0,154,65,58,75,75,243,13,832
2025-02-19 16:39:22.743,-1943.0,3125.0,-1857.0,-9.0,-110.0,-500.0,153,63,56,72,73,265,12,731
2025-02-19 16:39:22.761,-1268.0,3093.0,-2471.0,-124.0,-453.0,-818.0,149,63,56,70,73,280,12,394
2025-02-19 16:39:22.780,3276.0,1686.0,-2139.0,-494.0,-824.0,-868.0,153,64,56,74,75,294,13,13
2025-02-19 16:39:22.797,6637.0,-4824.0,399.0,-563.0,-594.0,-502.0,156,66,58,77,77,275,14,14
2025-02-19 16:39:22.817,5662.0,-7144.0,-40.0,-29.0,157.0,-122.0,155,65,56,77,80,246,15,9
2025-02-19 16:39:22.837,2393.0,-4280.0,-1670.0,325.0,268.0,117.0,153,63,53,73,79,237,922,12
2025-02-19 16:39:22.854,725.0,-1653.0,-968.0,104.0,45.0,191.0,155,65,56,76,81,213,1017,14
2025-02-19 16:39:22.874,557.0,-1603.0,85.0,30.0,10.0,143.0,156,66,57,77,81,211,822,67
2025-02-19 16:39:22.895,436.0,-1610.0,264.0,69.0,39.0,177.0,155,65,56,76,79,223,572,224
2025-02-19 16:39:22.913,304.0,-1339.0,142.0,89.0,76.0,209.0,156,66,57,77,81,241,787,359
2025-02-19 16:39:22.931,307.0,-490.0,103.0,91.0,72.0,182.0,154,64,55,76,79,268,1018,583
2025-02-19 16:39:22.948,100.0,-486.0,34.0,29.0,37.0,155.0,154,63,55,76,80,308,1018,960
2025-02-19 16:39:22.969,366.0,-751.0,196.0,-23.0,43.0,151.0,154,63,56,76,79,351,1017,1010
2025-02-19 16:39:22.987,509.0,-1228.0,172.0,-7.0,57.0,223.0,153,64,56,77,80,390,1017,1009
2025-02-19 16:39:23.006,466.0,-969.0,76.0,65.0,86.0,260.0,153,64,57,80,82,421,1017,1010
2025-02-19 16:39:23.026,395.0,-363.0,41.0,92.0,136.0,267.0,152,66,59,82,82,450,984,1009
2025-02-19 16:39:23.046,249.0,-404.0,70.0,165.0,162.0,254.0,153,68,62,85,84,475,393,1009
2025-02-19 16:39:23.063,169.0,-694.0,146.0,214.0,171.0,270.0,152,70,63,88,86,496,10,964
2025-02-19 16:39:23.083,195.0,-672.0,190.0,229.0,260.0,303.0,151,73,67,90,88,513,10,834
2025-02-19 16:39:23.104,231.0,-421.0,-147.0,219.0,328.0,297.0,151,81,74,93,89,523,11,670
2025-02-19 16:39:23.120,-206.0,-237.0,-185.0,268.0,376.0,319.0,149,85,79,94,88,535,10,559
2025-02-19 16:39:23.141,-303.0,462.0,-589.0,356.0,325.0,337.0,148,89,84,96,87,545,11,499
2025-02-19 16:39:23.161,-1132.0,1741.0,-1768.0,201.0,136.0,218.0,146,95,88,92,87,552,10,601
2025-02-19 16:39:23.178,-1561.0,2147.0,-2097.0,85.0,-208.0,-88.0,145,105,94,88,89,546,11,793
2025-02-19 16:39:23.198,-1385.0,2554.0,-1845.0,190.0,-447.0,-460.0,142,112,98,83,81,543,11,974
2025-02-19 16:39:23.218,-230.0,1764.0,-1482.0,65.0,-779.0,-667.0,139,117,100,80,82,554,251,1009
2025-02-19 16:39:23.235,1246.0,517.0,-311.0,-112.0,-1066.0,-649.0,138,123,102,80,84,567,1017,1009
2025-02-19 16:39:23.254,4460.0,-2825.0,1322.0,-23.0,-986.0,-430.0,138,129,103,86,89,588,1017,443
2025-02-19 16:39:23.271,4742.0,-3446.0,2399.0,-218.0,-355.0,-150.0,145,140,110,96,102,564,1017,16
2025-02-19 16:39:23.292,3930.0,-4211.0,1569.0,-14.0,77.0,148.0,139,135,102,90,99,509,1017,10
2025-02-19 16:39:23.313,1239.0,-2312.0,1661.0,192.0,265.0,135.0,140,135,107,88,98,510,1017,11
2025-02-19 16:39:23.329,309.0,-1051.0,1028.0,24.0,184.0,133.0,140,134,106,87,94,511,1018,10
2025-02-19 16:39:23.350,425.0,-1237.0,955.0,-66.0,128.0,168.0,141,136,107,88,98,511,1017,90
2025-02-19 16:39:23.370,307.0,-1109.0,773.0,-43.0,154.0,203.0,141,137,108,89,96,510,1017,273
2025-02-19 16:39:23.387,115.0,-693.0,663.0,-11.0,212.0,213.0,140,135,106,87,96,522,1017,325
2025-02-19 16:39:23.404,88.0,-605.0,529.0,33.0,249.0,208.0,140,135,107,87,95,540,1017,411
2025-02-19 16:39:23.427,60.0,-470.0,295.0,52.0,250.0,190.0,142,136,102,88,94,562,1018,1009
2025-02-19 16:39:23.444,13.0,-357.0,213.0,71.0,229.0,182.0,146,139,111,92,97,485,1017,1010
2025-02-19 16:39:23.464,-45.0,-324.0,300.0,56.0,219.0,179.0,144,137,109,90,94,443,1018,1011
2025-02-19 16:39:23.479,-120.0,-163.0,370.0,44.0,226.0,170.0,145,137,110,92,96,421,1017,1009
2025-02-19 16:39:23.502,-305.0,-175.0,308.0,25.0,226.0,164.0,145,137,110,92,95,412,510,1009
2025-02-19 16:39:23.521,-458.0,-64.0,250.0,11.0,203.0,156.0,147,136,109,90,95,410,11,1009
2025-02-19 16:39:23.538,-532.0,140.0,119.0,-9.0,167.0,145.0,147,136,106,91,96,407,12,1010
2025-02-19 16:39:23.556,-725.0,956.0,-233.0,-96.0,128.0,109.0,146,135,109,90,93,406,228,1009
2025-02-19 16:39:23.579,-1290.0,1418.0,-1131.0,-70.0,3.0,-74.0,146,135,111,86,90,407,313,1008
2025-02-19 16:39:23.596,-1630.0,2153.0,-1731.0,78.0,-159.0,-331.0,143,134,109,80,87,410,259,737
2025-02-19 16:39:23.612,-1386.0,3322.0,-2125.0,-62.0,-570.0,-662.0,140,135,110,79,84,416,380,235
2025-02-19 16:39:23.636,1104.0,1349.0,-1216.0,-243.0,-903.0,-745.0,140,135,110,80,85,421,342,12
2025-02-19 16:39:23.653,3526.0,-2016.0,367.0,-124.0,-854.0,-628.0,139,136,110,82,89,428,111,28
2025-02-19 16:39:23.673,5005.0,-3992.0,1526.0,-50.0,-254.0,-281.0,141,139,110,86,97,428,173,13
2025-02-19 16:39:23.689,3935.0,-4344.0,1154.0,56.0,33.0,49.0,140,137,109,86,99,394,46,12
2025-02-19 16:39:23.710,1254.0,-2811.0,1317.0,125.0,97.0,82.0,140,136,109,84,97,406,11,11
2025-02-19 16:39:23.730,379.0,-1536.0,1090.0,-46.0,27.0,115.0,140,136,107,85,95,428,11,10
2025-02-19 16:39:23.746,405.0,-1694.0,1119.0,-37.0,83.0,161.0,142,137,109,88,98,448,77,11
2025-02-19 16:39:23.767,429.0,-1304.0,804.0,7.0,149.0,168.0,143,137,109,89,100,462,292,12
2025-02-19 16:39:23.788,230.0,-882.0,529.0,28.0,187.0,179.0,143,136,109,90,102,451,470,12
2025-02-19 16:39:23.804,151.0,-759.0,480.0,23.0,187.0,173.0,145,137,110,92,103,423,648,71
2025-02-19 16:39:23.825,151.0,-714.0,430.0,4.0,173.0,175.0,144,134,108,92,102,402,1018,619
2025-02-19 16:39:23.845,234.0,-610.0,446.0,-32.0,164.0,191.0,146,133,108,94,103,387,1017,1010
2025-02-19 16:39:23.860,210.0,-636.0,404.0,-62.0,181.0,216.0,146,129,104,96,105,381,827,1010
2025-02-19 16:39:23.882,52.0,-596.0,243.0,-35.0,197.0,247.0,146,126,101,100,111,397,521,1009
2025-02-19 16:39:23.901,-92.0,-541.0,330.0,-22.0,204.0,267.0,147,122,95,105,114,411,619,1009
2025-02-19 16:39:23.919,-279.0,-517.0,349.0,11.0,208.0,277.0,148,112,84,107,112,423,698,1010
2025-02-19 16:39:23.939,-269.0,-439.0,309.0,54.0,218.0,266.0,150,100,77,108,111,432,600,1010
2025-02-19 16:39:23.956,-504.0,204.0,275.0,77.0,227.0,201.0,150,83,69,106,105,441,494,1010
2025-02-19 16:39:23.976,-456.0,997.0,10.0,56.0,225.0,87.0,151,76,66,102,102,449,550,1009
2025-02-19 16:39:23.996,-1041.0,1714.0,-579.0,-43.0,150.0,-39.0,149,74,63,98,97,460,125,1009
2025-02-19 16:39:24.012,-997.0,1787.0,-1571.0,-55.0,-21.0,-243.0,146,73,60,94,91,473,11,1010
2025-02-19 16:39:24.034,-955.0,1621.0,-1879.0,19.0,-238.0,-383.0,141,69,58,88,82,483,11,1009
2025-02-19 16:39:24.054,-205.0,1455.0,-1503.0,25.0,-384.0,-560.0,140,65,55,83,79,494,10,954
2025-02-19 16:39:24.070,933.0,1127.0,-1213.0,-87.0,-622.0,-658.0,142,64,55,82,79,503,11,388
2025-02-19 16:39:24.091,2782.0,-658.0,257.0,-364.0,-696.0,-587.0,144,64,54,83,81,513,10,10
2025-02-19 16:39:24.110,3578.0,-2900.0,809.0,-482.0,-443.0,-405.0,145,65,55,83,81,521,386,11
2025-02-19 16:39:24.128,3521.0,-4760.0,598.0,-233.0,-78.0,-236.0,141,63,53,82,79,526,973,11
2025-02-19 16:39:24.148,1922.0,-4821.0,-327.0,75.0,132.0,-7.0,139,61,51,79,77,544,1016,9
2025-02-19 16:39:24.165,1180.0,-3137.0,-615.0,82.0,88.0,117.0,141,61,51,80,78,550,1016,11
2025-02-19 16:39:24.185,765.0,-2470.0,-253.0,1.0,18.0,179.0,142,61,50,79,78,575,1018,9
2025-02-19 16:39:24.205,793.0,-2145.0,39.0,46.0,33.0,202.0,143,62,52,80,78,596,1016,9
2025-02-19 16:39:24.222,675.0,-1850.0,-69.0,82.0,70.0,252.0,143,63,53,81,78,603,1018,132
2025-02-19 16:39:24.242,500.0,-1465.0,-221.0,97.0,69.0,327.0,144,64,53,81,78,601,1017,505
2025-02-19 16:39:24.263,342.0,-636.0,-33.0,96.0,50.0,327.0,146,64,53,82,79,607,819,835
2025-02-19 16:39:24.279,234.0,-221.0,151.0,123.0,63.0,253.0,147,64,54,82,78,614,691,1010
2025-02-19 16:39:24.300,173.0,-170.0,284.0,81.0,89.0,255.0,148,65,55,83,79,618,950,1009
2025-02-19 16:39:24.315,89.0,-303.0,166.0,78.0,122.0,254.0,147,65,55,83,80,620,1018,1010
2025-02-19 16:39:24.337,-74.0,-146.0,93.0,92.0,113.0,265.0,148,66,57,84,82,622,1017,1010
2025-02-19 16:39:24.357,-37.0,140.0,259.0,116.0,121.0,253.0,147,65,56,83,81,624,771,1009
2025-02-19 16:39:24.374,-84.0,444.0,230.0,206.0,168.0,159.0,148,66,57,85,81,629,9,1010
2025-02-19 16:39:24.394,-441.0,1148.0,-135.0,201.0,181.0,123.0,148,67,58,83,81,631,9,1009
2025-02-19 16:39:24.414,-939.0,2486.0,-615.0,176.0,169.0,-27.0,147,66,57,82,78,633,9,1009
2025-02-19 16:39:24.430,-1661.0,3666.0,-1775.0,141.0,57.0,-296.0,145,65,57,77,76,635,685,1009
2025-02-19 16:39:24.452,-2182.0,4420.0,-2721.0,23.0,-240.0,-680.0,143,65,56,78,76,629,297,1006
2025-02-19 16:39:24.471,1395.0,4233.0,-3460.0,-257.0,-806.0,-920.0,145,66,56,80,80,612,605,734
2025-02-19 16:39:24.489,6310.0,-24.0,-390.0,-649.0,-931.0,-863.0,146,65,54,80,82,599,1011,544
2025-02-19 16:39:24.509,8052.0,-7835.0,1630.0,-482.0,-262.0,-309.0,143,74,56,82,83,583,1017,373
2025-02-19 16:39:24.529,4801.0,-7760.0,-1240.0,297.0,354.0,-47.0,138,67,54,82,86,574,1017,12
2025-02-19 16:39:24.545,1374.0,-3377.0,-1382.0,242.0,243.0,173.0,140,66,54,81,85,553,1017,15
2025-02-19 16:39:24.566,330.0,-1661.0,-384.0,-2.0,-9.0,178.0,144,68,56,83,86,521,910,358
2025-02-19 16:39:24.582,430.0,-1917.0,686.0,41.0,61.0,175.0,144,66,56,82,85,505,712,154
2025-02-19 16:39:24.603,114.0,-1516.0,363.0,123.0,119.0,222.0,145,68,58,83,86,500,881,11
2025-02-19 16:39:24.623,104.0,-878.0,224.0,102.0,115.0,238.0,144,72,56,81,85,504,547,32
2025-02-19 16:39:24.641,256.0,-591.0,248.0,52.0,95.0,216.0,145,67,57,82,86,516,860,152
2025-02-19 16:39:24.661,182.0,-403.0,334.0,59.0,96.0,146.0,144,67,58,84,88,531,939,186
2025-02-19 16:39:24.680,443.0,-917.0,499.0,70.0,124.0,137.0,142,66,57,83,89,552,844,227
2025-02-19 16:39:24.696,528.0,-1112.0,492.0,80.0,179.0,188.0,143,68,59,88,93,560,652,29
2025-02-19 16:39:24.713,410.0,-965.0,549.0,67.0,236.0,241.0,141,67,58,89,93,566,9,69
2025-02-19 16:39:24.734,304.0,-837.0,383.0,78.0,280.0,261.0,141,66,58,91,95,569,10,322
2025-02-19 16:39:24.755,237.0,-739.0,315.0,97.0,326.0,275.0,140,65,58,92,94,572,9,469
2025-02-19 16:39:24.775,-21.0,-510.0,-28.0,134.0,331.0,281.0,138,66,59,94,95,577,93,349
2025-02-19 16:39:24.792,185.0,-452.0,-73.0,118.0,346.0,304.0,138,67,59,93,95,580,10,332
2025-02-19 16:39:24.812,-387.0,-431.0,-58.0,73.0,408.0,342.0,136,66,57,87,84,582,10,491
2025-02-19 16:39:24.832,-632.0,-373.0,-428.0,117.0,276.0,348.0,132,69,55,81,78,582,9,793
2025-02-19 16:39:24.849,-631.0,206.0,-959.0,114.0,171.0,324.0,125,63,54,76,73,587,77,816
2025-02-19 16:39:24.866,-895.0,1385.0,-1171.0,45.0,7.0,172.0,121,63,54,72,71,594,9,814
2025-02-19 16:39:24.889,-825.0,2598.0,-1705.0,28.0,-112.0,-138.0,115,62,52,67,68,601,35,822
2025-02-19 16:39:24.906,-499.0,2884.0,-2338.0,-3.0,-328.0,-446.0,113,64,55,74,70,597,156,974
2025-02-19 16:39:24.927,-251.0,2142.0,-2630.0,3.0,-556.0,-579.0,110,63,54,74,71,554,399,878
2025-02-19 16:39:24.946,256.0,1675.0,-2353.0,63.0,-833.0,-692.0,110,63,54,74,73,510,1016,577
2025-02-19 16:39:24.963,4009.0,1431.0,923.0,-304.0,-1102.0,-715.0,119,67,57,78,80,446,1017,82
2025-02-19 16:39:24.980,7542.0,-3976.0,2689.0,-714.0,-503.0,-436.0,116,67,56,77,77,411,1018,12
2025-02-19 16:39:25.004,4481.0,-7166.0,1670.0,-268.0,75.0,-147.0,113,67,56,80,82,392,872,12
2025-02-19 16:39:25.019,2298.0,-5528.0,339.0,286.0,320.0,129.0,114,66,54,79,83,390,317,11
2025-02-19 16:39:25.041,314.0,-1901.0,247.0,137.0,194.0,259.0,116,66,57,81,83,399,12,18
2025-02-19 16:39:25.058,339.0,-1292.0,809.0,-70.0,133.0,233.0,118,67,58,83,84,385,174,264
2025-02-19 16:39:25.078,242.0,-1603.0,429.0,-80.0,153.0,263.0,118,66,57,82,84,375,807,670
2025-02-19 16:39:25.099,-89.0,-1360.0,276.0,-14.0,169.0,296.0,116,64,55,80,82,387,1017,777
2025-02-19 16:39:25.115,-40.0,-540.0,196.0,21.0,166.0,278.0,117,64,55,81,83,436,1001,1010
2025-02-19 16:39:25.135,-251.0,-12.0,183.0,8.0,153.0,207.0,118,64,56,83,84,468,826,1009
2025-02-19 16:39:25.156,-439.0,-42.0,72.0,-39.0,126.0,173.0,119,65,57,84,84,492,533,851
2025-02-19 16:39:25.173,-386.0,-131.0,70.0,-55.0,93.0,146.0,118,64,56,84,83,514,1017,712
2025-02-19 16:39:25.193,-200.0,-273.0,266.0,-43.0,97.0,136.0,119,64,57,84,84,533,1017,566
2025-02-19 16:39:25.213,-183.0,-225.0,181.0,-18.0,127.0,120.0,120,63,56,84,84,553,894,959
2025-02-19 16:39:25.230,-394.0,-141.0,105.0,5.0,132.0,110.0,121,65,57,85,84,570,9,1009
2025-02-19 16:39:25.250,-494.0,-113.0,0.0,2.0,117.0,101.0,121,64,57,85,85,586,7,1010
2025-02-19 16:39:25.266,-603.0,45.0,-155.0,4.0,86.0,95.0,122,65,57,86,86,597,320,1010
2025-02-19 16:39:25.287,-634.0,441.0,-368.0,-1.0,42.0,68.0,122,65,58,86,86,607,535,1009
2025-02-19 16:39:25.307,-620.0,1042.0,-879.0,88.0,17.0,-65.0,119,64,57,85,82,616,386,885
2025-02-19 16:39:25.325,-1158.0,1595.0,-2024.0,293.0,-107.0,-228.0,114,64,57,83,80,623,411,725
2025-02-19 16:39:25.345,-1849.0,2840.0,-2980.0,286.0,-466.0,-445.0,111,63,55,76,75,630,128,686
2025-02-19 16:39:25.365,803.0,3201.0,-2919.0,68.0,-1071.0,-685.0,114,63,54,73,74,636,9,357
2025-02-19 16:39:25.381,4238.0,-869.0,-1169.0,-81.0,-1393.0,-629.0,119,63,52,71,73,642,75,196
2025-02-19 16:39:25.401,7319.0,-6940.0,3739.0,9.0,-580.0,-36.0,123,65,54,71,74,640,1016,8
2025-02-19 16:39:25.421,4204.0,-3851.0,2592.0,158.0,140.0,22.0,121,64,54,76,79,637,1017,19
2025-02-19 16:39:25.439,1394.0,-3709.0,1957.0,298.0,236.0,-4.0,125,69,58,76,81,560,1017,12
2025-02-19 16:39:25.459,1144.0,-1726.0,1772.0,179.0,313.0,130.0,126,68,58,76,82,516,1017,157
2025-02-19 16:39:25.477,609.0,-1206.0,1297.0,60.0,331.0,147.0,127,67,57,77,83,495,1017,313
2025-02-19 16:39:25.496,616.0,-1266.0,1011.0,31.0,385.0,202.0,132,70,61,82,88,464,905,11
2025-02-19 16:39:25.516,312.0,-754.0,442.0,26.0,415.0,235.0,134,69,60,86,89,451,191,9
2025-02-19 16:39:25.534,280.0,-455.0,241.0,34.0,429.0,240.0,136,70,61,84,91,452,11,10
2025-02-19 16:39:25.553,305.0,-363.0,16.0,86.0,442.0,227.0,136,70,61,85,90,461,11,10
2025-02-19 16:39:25.573,365.0,-289.0,-5.0,130.0,444.0,216.0,135,72,60,83,88,479,9,172
2025-02-19 16:39:25.591,-160.0,-242.0,-256.0,161.0,399.0,225.0,135,79,61,85,89,494,10,302
2025-02-19 16:39:25.610,-223.0,-189.0,-146.0,161.0,351.0,232.0,134,88,59,84,86,506,183,675
2025-02-19 16:39:25.631,-263.0,-101.0,-360.0,131.0,282.0,232.0,134,95,59,82,85,523,525,1010
2025-02-19 16:39:25.648,-351.0,165.0,-709.0,154.0,220.0,201.0,132,98,58,81,83,541,399,1010
2025-02-19 16:39:25.668,-1114.0,514.0,-1292.0,168.0,53.0,96.0,129,102,57,79,80,556,26,1009
2025-02-19 16:39:25.688,-1508.0,855.0,-2068.0,188.0,-196.0,-22.0,120,100,57,75,76,567,9,1009
2025-02-19 16:39:25.703,-1426.0,969.0,-2571.0,138.0,-527.0,-116.0,110,95,54,65,71,579,8,993
2025-02-19 16:39:25.725,165.0,984.0,-3174.0,119.0,-958.0,-121.0,100,90,53,67,70,591,9,682
2025-02-19 16:39:25.743,1729.0,84.0,-2441.0,125.0,-1179.0,-39.0,94,88,51,68,70,602,7,449
2025-02-19 16:39:25.763,3029.0,-778.0,-640.0,283.0,-1114.0,35.0,96,90,51,71,74,611,8,287
2025-02-19 16:39:25.782,3397.0,-93.0,2179.0,412.0,-837.0,17.0,101,93,50,72,79,618,20,9
2025-02-19 16:39:25.799,3602.0,456.0,4329.0,377.0,-269.0,9.0,107,96,52,75,83,619,9,8
2025-02-19 16:39:25.819,2890.0,1229.0,4350.0,65.0,40.0,-32.0,106,94,52,73,85,618,9,9
2025-02-19 16:39:25.836,2464.0,592.0,2683.0,-69.0,173.0,10.0,104,91,51,74,83,621,8,8
2025-02-19 16:39:25.856,1173.0,627.0,2387.0,-122.0,204.0,30.0,104,92,52,77,83,621,418,8
2025-02-19 16:39:25.877,764.0,390.0,1936.0,-147.0,279.0,8.0,107,95,53,79,86,597,1017,79
2025-02-19 16:39:25.894,418.0,246.0,1278.0,-150.0,362.0,-16.0,108,97,53,80,86,573,1017,9
2025-02-19 16:39:25.914,123.0,-86.0,554.0,-73.0,344.0,-61.0,106,95,52,80,82,561,1017,131
2025-02-19 16:39:25.934,59.0,7.0,555.0,-12.0,283.0,-73.0,106,91,53,80,81,553,1017,607
2025-02-19 16:39:25.951,126.0,293.0,763.0,-79.0,293.0,-72.0,108,87,54,80,82,548,1017,503
2025-02-19 16:39:25.971,170.0,40.0,635.0,-151.0,328.0,-51.0,111,82,53,80,82,549,1017,652
2025-02-19 16:39:25.991,-35.0,-350.0,306.0,-80.0,294.0,1.0,112,82,57,84,86,523,1017,994
2025-02-19 16:39:26.006,-270.0,25.0,116.0,-19.0,189.0,-21.0,107,79,56,83,84,488,1017,1009
2025-02-19 16:39:26.028,-211.0,8.0,450.0,-23.0,133.0,-37.0,108,81,56,83,84,469,1016,1009
2025-02-19 16:39:26.049,-131.0,57.0,669.0,-81.0,169.0,-26.0,109,81,57,83,85,454,1016,1009
2025-02-19 16:39:26.066,-339.0,-200.0,360.0,-101.0,192.0,-5.0,109,81,56,83,84,445,1018,1009
2025-02-19 16:39:26.086,-489.0,-258.0,59.0,-43.0,145.0,15.0,107,82,57,83,85,437,1016,1009
2025-02-19 16:39:26.103,-583.0,-7.0,119.0,-32.0,92.0,32.0,106,84,56,83,83,433,960,1007
2025-02-19 16:39:26.123,-572.0,380.0,-1.0,-63.0,56.0,-9.0,106,87,57,83,84,429,833,1008
2025-02-19 16:39:26.143,-776.0,74.0,-959.0,-22.0,0.0,-58.0,99,87,54,81,81,428,721,924
2025-02-19 16:39:26.163,-1384.0,-135.0,-2675.0,186.0,-357.0,-80.0,97,87,53,77,76,431,363,639
2025-02-19 16:39:26.180,-655.0,708.0,-3062.0,321.0,-814.0,-43.0,95,89,52,76,75,436,35,156
2025-02-19 16:39:26.200,1985.0,188.0,-1490.0,262.0,-1091.0,46.0,98,93,52,76,75,444,9,9
2025-02-19 16:39:26.218,3712.0,-1048.0,2296.0,272.0,-817.0,164.0,105,99,54,78,78,450,10,9
2025-02-19 16:39:26.237,4046.0,666.0,5287.0,143.0,-270.0,102.0,104,100,54,78,81,456,9,13
2025-02-19 16:39:26.257,2544.0,819.0,4490.0,-85.0,111.0,5.0,108,99,56,80,83,460,9,13
2025-02-19 16:39:26.272,1377.0,487.0,3020.0,-170.0,198.0,12.0,107,96,55,80,83,463,9,246
2025-02-19 16:39:26.295,647.0,258.0,2384.0,-211.0,285.0,5.0,112,95,56,81,85,464,10,607
2025-02-19 16:39:26.314,475.0,-96.0,1674.0,-223.0,379.0,-1.0,120,93,58,84,89,470,10,593
2025-02-19 16:39:26.332,364.0,-23.0,1197.0,-230.0,455.0,19.0,126,92,59,87,92,477,9,337
2025-02-19 16:39:26.352,269.0,-47.0,745.0,-254.0,499.0,29.0,129,93,60,89,94,485,9,9
2025-02-19 16:39:26.369,238.0,-35.0,452.0,-240.0,489.0,48.0,130,91,58,88,93,496,9,38
2025-02-19 16:39:26.388,243.0,-9.0,228.0,-215.0,453.0,59.0,131,92,60,91,96,514,432,378
2025-02-19 16:39:26.409,-34.0,-194.0,205.0,-162.0,391.0,77.0,131,92,62,97,104,525,846,1008
2025-02-19 16:39:26.423,-2.0,-387.0,-51.0,-106.0,261.0,73.0,131,94,67,104,113,533,1017,1009
2025-02-19 16:39:26.447,-569.0,-318.0,187.0,23.0,172.0,94.0,131,95,71,113,121,541,1017,1010
2025-02-19 16:39:26.467,-126.0,-149.0,-117.0,-85.0,263.0,86.0,130,97,75,117,122,548,1017,1010
2025-02-19 16:39:26.484,-467.0,-155.0,750.0,-146.0,311.0,48.0,130,101,80,115,118,549,1015,1009
2025-02-19 16:39:26.502,-827.0,-403.0,-101.0,2.0,192.0,59.0,127,102,81,119,120,550,8,1010
2025-02-19 16:39:26.521,-868.0,14.0,-449.0,47.0,62.0,43.0,126,104,85,123,122,544,9,1009
2025-02-19 16:39:26.540,-994.0,449.0,-935.0,-35.0,-24.0,-3.0,124,104,86,122,120,539,7,1009
2025-02-19 16:39:26.561,-820.0,837.0,-1339.0,-35.0,-174.0,-152.0,125,107,89,125,121,539,8,963
2025-02-19 16:39:26.581,46.0,1540.0,-2654.0,-51.0,-272.0,-377.0,126,111,91,125,123,541,9,466
2025-02-19 16:39:26.597,-1339.0,1534.0,103.0,-30.0,-639.0,-601.0,127,113,92,123,126,549,165,8
2025-02-19 16:39:26.618,989.0,1493.0,-454.0,-44.0,-1066.0,-712.0,128,117,95,125,130,551,972,9
2025-02-19 16:39:26.639,2521.0,-1799.0,-1861.0,-158.0,-1406.0,-514.0,126,122,95,127,139,545,1018,41
2025-02-19 16:39:26.655,5552.0,-3182.0,1618.0,-263.0,-705.0,-109.0,125,125,99,131,143,539,1017,9
2025-02-19 16:39:26.675,4177.0,-3681.0,1024.0,-123.0,-196.0,91.0,125,126,96,130,141,533,1017,8
2025-02-19 16:39:26.691,1580.0,-3203.0,1940.0,105.0,149.0,11.0,128,126,97,131,143,532,989,9
2025-02-19 16:39:26.713,843.0,-1747.0,1096.0,84.0,247.0,77.0,131,127,98,133,145,495,1017,12
2025-02-19 16:39:26.732,751.0,-1498.0,938.0,2.0,232.0,171.0,129,128,97,132,143,472,1018,9
2025-02-19 16:39:26.749,797.0,-1264.0,508.0,-37.0,299.0,225.0,131,131,101,134,144,443,990,12
2025-02-19 16:39:26.770,272.0,-825.0,651.0,-34.0,288.0,259.0,128,129,100,133,143,425,780,10
2025-02-19 16:39:26.790,410.0,-696.0,428.0,-37.0,329.0,269.0,129,130,101,134,144,416,1018,11
2025-02-19 16:39:26.807,-103.0,-658.0,450.0,31.0,281.0,272.0,136,137,107,141,150,309,1017,50
2025-02-19 16:39:26.827,-24.0,-253.0,163.0,34.0,245.0,243.0,137,137,108,141,150,192,1018,823
2025-02-19 16:39:26.847,-88.0,-129.0,391.0,26.0,230.0,215.0,137,137,108,141,149,104,1017,1010
2025-02-19 16:39:26.864,-170.0,-264.0,156.0,35.0,207.0,194.0,135,135,106,140,146,40,1017,1010
2025-02-19 16:39:26.884,-314.0,-195.0,234.0,44.0,172.0,167.0,134,133,106,139,144,16,1017,1008
2025-02-19 16:39:26.901,-259.0,-198.0,165.0,37.0,166.0,141.0,133,131,104,138,142,14,697,999
2025-02-19 16:39:26.921,-496.0,-326.0,277.0,46.0,159.0,122.0,134,132,105,138,142,16,382,1009
2025-02-19 16:39:26.941,-542.0,-20.0,131.0,36.0,137.0,106.0,133,131,105,137,140,24,85,1010
2025-02-19 16:39:26.959,-655.0,270.0,181.0,20.0,115.0,44.0,133,130,105,137,140,35,14,1009
2025-02-19 16:39:26.978,-747.0,780.0,-125.0,6.0,99.0,-15.0,135,129,105,139,140,44,15,1008
2025-02-19 16:39:26.999,-932.0,1125.0,-1111.0,106.0,12.0,-172.0,134,127,105,137,139,57,13,857
2025-02-19 16:39:27.016,-1542.0,1985.0,-1504.0,252.0,-256.0,-403.0,136,128,106,137,141,71,15,610
2025-02-19 16:39:27.036,-1253.0,2135.0,-1969.0,159.0,-716.0,-624.0,136,130,105,136,140,86,13,339
2025-02-19 16:39:27.055,1528.0,1032.0,-1268.0,-211.0,-1034.0,-696.0,135,133,106,137,143,103,14,27
2025-02-19 16:39:27.073,4810.0,-2636.0,-5.0,-201.0,-991.0,-507.0,133,135,107,138,147,118,15,30
2025-02-19 16:39:27.090,5105.0,-4956.0,2209.0,-51.0,-160.0,-126.0,129,135,105,138,147,134,707,12
2025-02-19 16:39:27.114,3424.0,-4459.0,1765.0,262.0,267.0,81.0,131,134,105,137,147,168,1017,12
2025-02-19 16:39:27.130,1091.0,-2466.0,1553.0,394.0,388.0,107.0,132,132,102,136,145,210,1018,50
2025-02-19 16:39:27.150,427.0,-1065.0,1606.0,196.0,369.0,135.0,134,134,100,135,144,252,1017,11
2025-02-19 16:39:27.168,330.0,-1116.0,957.0,70.0,331.0,148.0,144,144,106,143,146,247,1018,23
2025-02-19 16:39:27.187,108.0,-943.0,450.0,8.0,326.0,204.0,137,137,93,133,133,190,15,15
2025-02-19 16:39:27.207,242.0,-816.0,690.0,-43.0,359.0,251.0,142,139,93,133,139,161,663,19
2025-02-19 16:39:27.224,-523.0,-558.0,-688.0,64.0,380.0,229.0,138,132,75,125,123,115,1018,294
2025-02-19 16:39:27.245,-50.0,-759.0,393.0,222.0,365.0,195.0,140,129,67,113,105,138,1017,1009
2025-02-19 16:39:27.265,1.0,-158.0,-34.0,226.0,348.0,179.0,141,126,65,102,92,149,1017,1010
2025-02-19 16:39:27.281,-289.0,136.0,151.0,182.0,296.0,174.0,146,127,66,97,86,78,1018,1010
2025-02-19 16:39:27.301,-182.0,222.0,7.0,83.0,276.0,156.0,143,120,61,86,78,34,966,1009
2025-02-19 16:39:27.319,-325.0,207.0,135.0,-4.0,242.0,125.0,149,119,63,82,76,20,579,1010
2025-02-19 16:39:27.339,-425.0,102.0,-188.0,-6.0,210.0,99.0,140,115,62,78,73,19,19,1009
2025-02-19 16:39:27.360,-694.0,186.0,-1230.0,48.0,107.0,43.0,127,105,58,73,69,20,17,1010
2025-02-19 16:39:27.377,-1084.0,257.0,-1704.0,108.0,-150.0,-2.0,119,99,58,65,69,38,17,1010
2025-02-19 16:39:27.397,-964.0,510.0,-2413.0,142.0,-424.0,-49.0,109,97,55,71,67,64,15,1004
2025-02-19 16:39:27.417,-204.0,596.0,-2774.0,189.0,-776.0,-55.0,103,100,56,66,69,88,17,652
2025-02-19 16:39:27.433,1046.0,380.0,-2385.0,267.0,-1017.0,-19.0,98,102,52,65,69,113,15,195
2025-02-19 16:39:27.453,2886.0,82.0,-792.0,398.0,-1058.0,29.0,102,106,55,69,74,137,15,15
2025-02-19 16:39:27.472,3558.0,184.0,1569.0,498.0,-900.0,70.0,114,110,57,78,81,150,16,17
2025-02-19 16:39:27.488,4117.0,862.0,3870.0,442.0,-480.0,139.0,123,113,57,81,86,160,15,15
2025-02-19 16:39:27.511,3083.0,2052.0,4781.0,60.0,-64.0,72.0,128,115,59,83,89,179,15,15
2025-02-19 16:39:27.528,2222.0,1301.0,3594.0,-172.0,177.0,2.0,127,112,57,82,88,204,14,14
2025-02-19 16:39:27.548,1268.0,752.0,2279.0,-204.0,300.0,-25.0,129,111,61,86,91,222,18,111
2025-02-19 16:39:27.568,704.0,324.0,1578.0,-146.0,338.0,-60.0,128,106,60,85,88,214,959,192
2025-02-19 16:39:27.585,399.0,206.0,1191.0,-118.0,356.0,-74.0,128,104,59,85,86,207,1017,408
2025-02-19 16:39:27.605,246.0,104.0,870.0,-110.0,354.0,-58.0,126,103,57,82,82,262,1017,597
2025-02-19 16:39:27.626,175.0,61.0,695.0,-119.0,356.0,-34.0,123,104,56,82,79,319,705,776
2025-02-19 16:39:27.642,162.0,14.0,523.0,-112.0,328.0,-18.0,120,106,56,77,80,373,560,668
2025-02-19 16:39:27.661,139.0,-1.0,514.0,-106.0,294.0,1.0,120,106,55,75,79,436,393,574
2025-02-19 16:39:27.683,48.0,-21.0,613.0,-107.0,281.0,14.0,124,109,57,80,82,490,494,419
2025-02-19 16:39:27.700,-88.0,33.0,435.0,-119.0,265.0,5.0,123,111,57,81,81,509,254,499
2025-02-19 16:39:27.720,-284.0,-5.0,307.0,-87.0,212.0,-21.0,123,112,58,82,80,524,43,852
2025-02-19 16:39:27.737,-310.0,-47.0,398.0,-79.0,183.0,-18.0,122,112,58,82,80,534,13,1010
2025-02-19 16:39:27.756,-288.0,-45.0,460.0,-85.0,191.0,-6.0,123,112,57,82,79,544,176,1010
2025-02-19 16:39:27.777,-405.0,-64.0,335.0,-94.0,198.0,9.0,125,113,58,83,79,554,857,1010
2025-02-19 16:39:27.795,-676.0,-267.0,111.0,-65.0,166.0,47.0,120,111,57,81,76,564,981,1009
2025-02-19 16:39:27.814,-632.0,-112.0,-89.0,-17.0,97.0,47.0,119,112,57,81,76,575,868,923
2025-02-19 16:39:27.834,-842.0,169.0,-747.0,37.0,11.0,-9.0,112,109,56,79,74,584,799,587
2025-02-19 16:39:27.852,-1542.0,175.0,-2017.0,138.0,-287.0,-106.0,107,110,54,75,71,594,679,420
2025-02-19 16:39:27.872,-1046.0,333.0,-2925.0,280.0,-739.0,-73.0,101,109,53,73,70,601,933,178
2025-02-19 16:39:27.892,1185.0,635.0,-2162.0,270.0,-1067.0,8.0,101,110,52,73,72,605,1017,11
2025-02-19 16:39:27.909,2817.0,-273.0,-355.0,287.0,-1073.0,61.0,109,113,54,76,76,608,1017,11
2025-02-19 16:39:27.929,3713.0,-520.0,3548.0,347.0,-662.0,116.0,121,113,55,80,84,610,1018,11
2025-02-19 16:39:27.949,3494.0,1167.0,4764.0,188.0,-118.0,56.0,126,116,57,84,90,616,549,11
2025-02-19 16:39:27.966,2194.0,1300.0,3920.0,-153.0,158.0,2.0,128,115,57,88,93,621,55,11
2025-02-19 16:39:27.985,1306.0,627.0,2623.0,-297.0,255.0,17.0,132,112,59,87,95,619,379,10
2025-02-19 16:39:28.003,693.0,79.0,1804.0,-305.0,275.0,42.0,135,109,61,95,98,625,924,12
2025-02-19 16:39:28.023,498.0,-217.0,1471.0,-277.0,308.0,52.0,135,108,60,94,96,633,1018,9
2025-02-19 16:39:28.043,415.0,-129.0,1275.0,-310.0,372.0,73.0,136,111,61,95,93,645,1017,37
2025-02-19 16:39:28.061,490.0,-260.0,831.0,-327.0,436.0,88.0,136,112,62,93,87,654,952,518
2025-02-19 16:39:28.080,546.0,-303.0,571.0,-283.0,472.0,101.0,137,112,65,91,84,672,430,1009
2025-02-19 16:39:28.100,164.0,-508.0,488.0,-219.0,449.0,100.0,137,113,71,92,83,689,9,1009
2025-02-19 16:39:28.114,273.0,-386.0,422.0,-146.0,437.0,110.0,136,113,75,93,83,704,10,1010
2025-02-19 16:39:28.138,140.0,-287.0,259.0,-75.0,429.0,105.0,136,114,78,93,81,713,60,1010
2025-02-19 16:39:28.155,-177.0,-307.0,7.0,-35.0,392.0,94.0,135,114,82,94,82,721,59,1009
2025-02-19 16:39:28.175,-349.0,-202.0,-150.0,-15.0,332.0,93.0,136,117,88,97,85,725,9,1010
2025-02-19 16:39:28.196,-417.0,-42.0,-297.0,-34.0,269.0,107.0,136,118,90,96,85,722,9,1010
2025-02-19 16:39:28.212,-393.0,31.0,-410.0,-37.0,205.0,117.0,137,120,94,97,87,715,9,1010
2025-02-19 16:39:28.232,-666.0,701.0,-1326.0,-47.0,100.0,97.0,137,121,97,93,87,705,10,1009
2025-02-19 16:39:28.252,-1305.0,978.0,-2276.0,-8.0,-117.0,-62.0,137,123,100,89,85,691,10,959
2025-02-19 16:39:28.270,-1743.0,2112.0,-2404.0,112.0,-472.0,-326.0,139,128,104,89,85,659,13,641
2025-02-19 16:39:28.290,-813.0,3097.0,-2501.0,-12.0,-834.0,-615.0,142,133,109,97,89,561,18,160
2025-02-19 16:39:28.309,2852.0,2160.0,-2082.0,-413.0,-1248.0,-737.0,140,137,111,98,91,430,441,16
2025-02-19 16:39:28.327,4653.0,-2448.0,-55.0,-400.0,-1221.0,-589.0,141,141,113,103,99,331,990,18
2025-02-19 16:39:28.347,5415.0,-5066.0,1355.0,-267.0,-410.0,-139.0,137,140,109,103,100,248,1017,15
2025-02-19 16:39:28.367,4141.0,-4248.0,982.0,57.0,74.0,121.0,132,136,106,98,97,278,1017,9
2025-02-19 16:39:28.384,1186.0,-2338.0,1397.0,202.0,226.0,44.0,134,137,108,95,98,346,1017,12
2025-02-19 16:39:28.404,433.0,-1412.0,882.0,56.0,130.0,80.0,140,143,113,100,101,316,1017,17
2025-02-19 16:39:28.421,654.0,-1657.0,951.0,-9.0,130.0,160.0,136,139,109,97,98,282,1018,12
2025-02-19 16:39:28.442,566.0,-1198.0,853.0,10.0,210.0,189.0,137,140,110,99,99,308,487,13
2025-02-19 16:39:28.462,260.0,-953.0,572.0,50.0,285.0,211.0,135,138,108,95,97,336,918,37
2025-02-19 16:39:28.478,122.0,-728.0,271.0,95.0,308.0,216.0,136,138,108,97,98,376,380,146
2025-02-19 16:39:28.497,136.0,-428.0,263.0,110.0,307.0,204.0,139,141,111,100,101,374,14,270
2025-02-19 16:39:28.519,-199.0,-292.0,237.0,106.0,285.0,198.0,139,142,111,100,97,356,1017,517
2025-02-19 16:39:28.535,-146.0,-252.0,181.0,99.0,251.0,196.0,141,142,112,103,99,319,549,879
2025-02-19 16:39:28.556,-86.0,-163.0,269.0,80.0,241.0,180.0,140,141,111,101,97,299,237,1009
2025-02-19 16:39:28.576,-145.0,-185.0,348.0,76.0,272.0,168.0,141,141,112,103,99,282,1017,1009
2025-02-19 16:39:28.593,-286.0,-304.0,194.0,90.0,278.0,175.0,139,139,110,101,96,278,1017,1009
2025-02-19 16:39:28.611,-427.0,-204.0,83.0,106.0,263.0,202.0,140,141,112,101,98,278,1018,1009
2025-02-19 16:39:28.633,-445.0,-72.0,-11.0,124.0,232.0,213.0,141,140,111,101,98,277,1017,1010
2025-02-19 16:39:28.647,-540.0,375.0,-89.0,107.0,218.0,176.0,140,139,112,98,95,269,347,1008
2025-02-19 16:39:28.670,-1094.0,914.0,-757.0,33.0,92.0,88.0,141,140,112,96,92,261,16,546
2025-02-19 16:39:28.691,-1493.0,1362.0,-1513.0,51.0,-115.0,-176.0,139,137,111,87,88,264,127,13
2025-02-19 16:39:28.707,-1834.0,2368.0,-1904.0,9.0,-457.0,-471.0,138,140,113,87,90,274,289,16
2025-02-19 16:39:28.727,-625.0,2797.0,-2092.0,-212.0,-852.0,-716.0,137,137,111,88,90,274,822,50
2025-02-19 16:39:28.744,2149.0,558.0,-1142.0,-319.0,-1087.0,-746.0,138,140,112,94,99,275,1017,228
2025-02-19 16:39:28.763,4439.0,-2891.0,332.0,-3.0,-920.0,-545.0,139,142,112,98,110,270,1017,1008
2025-02-19 16:39:28.785,5000.0,-3970.0,1957.0,300.0,-272.0,-150.0,137,141,110,101,116,269,1017,996
2025-02-19 16:39:28.800,2826.0,-2413.0,2100.0,223.0,115.0,105.0,138,141,110,100,118,277,1016,683
2025-02-19 16:39:28.822,1003.0,-1449.0,1914.0,52.0,53.0,117.0,137,139,108,94,114,307,949,106
2025-02-19 16:39:28.842,560.0,-1349.0,1679.0,-41.0,-15.0,126.0,138,139,107,95,113,349,806,13
2025-02-19 16:39:28.859,741.0,-1729.0,1723.0,9.0,92.0,143.0,139,140,107,97,114,386,747,180
2025-02-19 16:39:28.879,574.0,-1093.0,1540.0,47.0,255.0,182.0,142,142,106,100,115,377,17,267
2025-02-19 16:39:28.896,226.0,-537.0,1238.0,7.0,333.0,195.0,142,141,99,99,113,365,15,15
2025-02-19 16:39:28.917,244.0,-368.0,919.0,-20.0,387.0,170.0,141,139,85,99,111,371,13,53
2025-02-19 16:39:28.936,307.0,-752.0,691.0,48.0,436.0,147.0,142,134,76,102,111,375,15,335
2025-02-19 16:39:28.953,-409.0,-475.0,576.0,119.0,397.0,146.0,141,123,69,101,106,383,39,478
2025-02-19 16:39:28.974,90.0,-298.0,337.0,106.0,402.0,133.0,141,112,66,102,108,401,14,510
2025-02-19 16:39:28.994,-57.0,-337.0,179.0,101.0,404.0,162.0,141,101,64,100,98,415,12,471
2025-02-19 16:39:29.010,-19.0,-177.0,-16.0,102.0,372.0,168.0,140,92,61,96,94,436,13,601
2025-02-19 16:39:29.030,-244.0,-133.0,-89.0,91.0,326.0,167.0,140,87,61,96,92,451,14,749
2025-02-19 16:39:29.048,-360.0,146.0,-452.0,75.0,271.0,142.0,138,78,60,93,89,464,12,980
2025-02-19 16:39:29.066,-678.0,211.0,-1281.0,101.0,111.0,80.0,134,72,60,90,87,474,13,1010
2025-02-19 16:39:29.087,-1137.0,321.0,-1910.0,234.0,-111.0,-21.0,128,69,57,83,82,483,13,1009
2025-02-19 16:39:29.105,-979.0,648.0,-2334.0,251.0,-439.0,-78.0,121,69,55,76,78,494,53,1010
2025-02-19 16:39:29.125,-473.0,804.0,-2750.0,253.0,-794.0,-72.0,111,72,52,78,77,501,101,974
2025-02-19 16:39:29.145,1800.0,604.0,-2279.0,276.0,-1121.0,-20.0,103,76,54,73,79,513,94,610
2025-02-19 16:39:29.163,3221.0,-88.0,-596.0,414.0,-1118.0,26.0,106,85,54,77,84,521,85,329
2025-02-19 16:39:29.182,3750.0,188.0,1940.0,461.0,-916.0,39.0,114,92,53,79,90,532,156,12
2025-02-19 16:39:29.203,3718.0,298.0,4319.0,360.0,-384.0,101.0,122,107,54,82,95,537,817,12
2025-02-19 16:39:29.218,2829.0,1751.0,4489.0,66.0,-36.0,73.0,122,112,55,81,94,545,1018,12
2025-02-19 16:39:29.240,1931.0,1178.0,3365.0,-185.0,179.0,25.0,122,112,55,82,93,553,1018,38
2025-02-19 16:39:29.259,1210.0,404.0,2060.0,-185.0,253.0,9.0,119,107,55,82,93,557,1017,267
2025-02-19 16:39:29.278,536.0,166.0,1421.0,-117.0,262.0,-35.0,118,103,55,83,92,541,1018,355
2025-02-19 16:39:29.298,266.0,119.0,1211.0,-77.0,268.0,-54.0,125,107,61,89,97,437,1017,626
2025-02-19 16:39:29.313,169.0,4.0,836.0,-81.0,274.0,-55.0,123,103,58,86,93,377,1017,1009
2025-02-19 16:39:29.334,100.0,-91.0,669.0,-46.0,239.0,-41.0,121,103,59,87,93,351,954,1010
2025-02-19 16:39:29.354,164.0,-5.0,628.0,-28.0,192.0,-25.0,119,99,57,85,92,343,672,1009
2025-02-19 16:39:29.371,216.0,22.0,841.0,-37.0,188.0,-14.0,121,98,58,85,94,342,41,880
2025-02-19 16:39:29.391,237.0,76.0,799.0,-81.0,222.0,-3.0,123,96,60,86,96,347,15,677
2025-02-19 16:39:29.411,5.0,19.0,577.0,-103.0,214.0,4.0,122,93,58,83,94,357,175,575
2025-02-19 16:39:29.429,-65.0,-56.0,515.0,-74.0,168.0,-2.0,122,95,59,84,95,376,202,464
2025-02-19 16:39:29.449,-90.0,78.0,566.0,-64.0,151.0,-8.0,119,97,57,84,93,397,13,152
2025-02-19 16:39:29.466,-184.0,50.0,559.0,-75.0,153.0,-13.0,121,102,59,87,94,415,335,170
2025-02-19 16:39:29.482,-253.0,-40.0,501.0,-85.0,162.0,2.0,121,104,58,87,92,428,741,569
2025-02-19 16:39:29.503,-373.0,49.0,435.0,-92.0,158.0,25.0,123,106,59,88,92,434,1017,865
2025-02-19 16:39:29.526,-447.0,19.0,304.0,-98.0,143.0,10.0,119,105,59,88,91,438,1017,1010
2025-02-19 16:39:29.543,-532.0,166.0,-341.0,-78.0,128.0,-34.0,114,100,59,87,87,444,1017,1008
2025-02-19 16:39:29.562,-1150.0,-274.0,-1847.0,117.0,-100.0,-67.0,110,98,58,84,85,450,480,1009
2025-02-19 16:39:29.580,-1274.0,354.0,-2657.0,302.0,-514.0,-55.0,105,99,54,78,81,457,13,908
2025-02-19 16:39:29.600,380.0,335.0,-2209.0,300.0,-900.0,22.0,106,104,55,80,84,464,17,691
2025-02-19 16:39:29.620,2245.0,-220.0,575.0,282.0,-929.0,98.0,110,107,55,79,84,469,12,749
2025-02-19 16:39:29.627,3514.0,-37.0,3620.0,256.0,-480.0,181.0,118,111,58,83,90,475,13,746
2025-02-19 16:39:29.658,3306.0,1253.0,4797.0,6.0,-82.0,83.0,119,112,59,85,93,480,13,574
2025-02-19 16:39:29.677,2115.0,820.0,3709.0,-172.0,146.0,-3.0,119,109,58,85,93,488,12,388
2025-02-19 16:39:29.695,1043.0,338.0,2708.0,-196.0,241.0,-22.0,124,107,59,77,98,493,14,230
2025-02-19 16:39:29.715,632.0,29.0,1802.0,-196.0,290.0,-28.0,128,105,59,88,95,502,700,264
2025-02-19 16:39:29.735,511.0,-128.0,1453.0,-187.0,358.0,-23.0,133,107,60,90,98,504,962,526
2025-02-19 16:39:29.752,282.0,-154.0,1043.0,-213.0,397.0,-2.0,135,108,60,90,99,507,1017,156
2025-02-19 16:39:29.772,323.0,-95.0,782.0,-238.0,410.0,43.0,137,110,62,90,102,514,1017,12
2025-02-19 16:39:29.789,308.0,-71.0,510.0,-266.0,396.0,75.0,138,111,63,92,105,521,967,12
2025-02-19 16:39:29.810,172.0,-54.0,404.0,-261.0,373.0,76.0,137,110,64,98,106,533,989,33
2025-02-19 16:39:29.829,-27.0,-189.0,374.0,-258.0,334.0,78.0,139,112,67,102,109,545,816,262
2025-02-19 16:39:29.846,-65.0,-844.0,824.0,-364.0,278.0,91.0,138,111,69,99,109,555,360,660
2025-02-19 16:39:29.867,-50.0,-71.0,363.0,-279.0,283.0,62.0,140,112,70,100,106,559,439,1009
2025-02-19 16:39:29.887,-75.0,-133.0,337.0,-293.0,291.0,59.0,140,105,71,99,106,563,560,1010
2025-02-19 16:39:29.904,-243.0,-424.0,61.0,-222.0,283.0,61.0,140,97,70,99,103,569,560,1010
2025-02-19 16:39:29.924,-690.0,-193.0,-354.0,-168.0,243.0,70.0,141,92,69,100,97,574,452,1009
2025-02-19 16:39:29.944,-931.0,189.0,-336.0,-156.0,183.0,46.0,140,80,66,90,88,581,460,1009
2025-02-19 16:39:29.961,-862.0,611.0,-669.0,-48.0,93.0,-35.0,141,72,66,91,89,589,1015,1003
2025-02-19 16:39:29.981,-894.0,1345.0,-1171.0,41.0,23.0,-141.0,140,66,64,87,88,583,1017,901
2025-02-19 16:39:29.998,-992.0,2033.0,-1585.0,69.0,-124.0,-308.0,138,63,60,80,81,577,1017,440
2025-02-19 16:39:30.017,-833.0,2872.0,-2231.0,114.0,-428.0,-569.0,131,61,57,78,77,574,1017,11
2025-02-19 16:39:30.039,1783.0,2554.0,-2293.0,107.0,-730.0,-790.0,126,59,54,76,78,572,1017,12
2025-02-19 16:39:30.054,3080.0,187.0,-253.0,-81.0,-1012.0,-791.0,129,62,56,81,81,551,1018,15
2025-02-19 16:39:30.070,6118.0,-4489.0,2826.0,-253.0,-572.0,-388.0,124,63,56,82,82,504,1017,14
2025-02-19 16:39:30.095,4916.0,-6577.0,2284.0,112.0,192.0,-85.0,118,64,57,84,85,458,228,16
2025-02-19 16:39:30.113,1784.0,-4014.0,875.0,268.0,260.0,106.0,112,58,51,76,79,498,11,26
2025-02-19 16:39:30.133,665.0,-2191.0,1133.0,-40.0,144.0,195.0,113,59,51,78,80,540,11,133
2025-02-19 16:39:30.153,749.0,-2465.0,965.0,-82.0,169.0,208.0,114,60,53,79,80,573,11,17
2025-02-19 16:39:30.169,637.0,-1977.0,556.0,-39.0,236.0,303.0,115,60,53,79,80,600,270,10
2025-02-19 16:39:30.190,395.0,-1210.0,119.0,-13.0,218.0,351.0,115,61,53,80,81,617,1017,57
2025-02-19 16:39:30.206,54.0,-332.0,-20.0,-15.0,160.0,343.0,123,69,61,88,89,499,1017,237
2025-02-19 16:39:30.227,98.0,115.0,126.0,-69.0,125.0,297.0,124,68,61,88,89,385,905,601
2025-02-19 16:39:30.247,-21.0,-2.0,48.0,-91.0,117.0,260.0,125,66,59,87,88,329,1017,1009
2025-02-19 16:39:30.265,-253.0,-123.0,-11.0,-58.0,90.0,243.0,126,66,60,87,89,304,1017,1009
2025-02-19 16:39:30.283,-133.0,-45.0,31.0,-10.0,78.0,228.0,128,66,61,86,91,304,1018,1009
2025-02-19 16:39:30.304,-343.0,125.0,49.0,2.0,69.0,195.0,129,67,62,88,91,308,15,1008
2025-02-19 16:39:30.321,-460.0,168.0,130.0,5.0,67.0,147.0,132,69,65,91,94,276,18,1001
2025-02-19 16:39:30.342,-490.0,74.0,187.0,35.0,76.0,89.0,131,68,63,90,93,257,16,1010
2025-02-19 16:39:30.361,-564.0,41.0,199.0,63.0,88.0,68.0,132,70,65,91,95,243,17,1009
2025-02-19 16:39:30.379,-759.0,312.0,-22.0,37.0,64.0,46.0,131,68,63,90,93,234,15,1009
2025-02-19 16:39:30.398,-705.0,807.0,-250.0,3.0,6.0,-32.0,130,73,65,91,93,228,16,968
2025-02-19 16:39:30.419,-809.0,1278.0,-1062.0,148.0,-22.0,-178.0,126,73,65,91,91,227,17,355
2025-02-19 16:39:30.435,-1338.0,1924.0,-2017.0,330.0,-167.0,-352.0,119,67,61,85,85,238,15,15
2025-02-19 16:39:30.452,-1398.0,2342.0,-2774.0,395.0,-557.0,-474.0,121,69,61,85,84,247,16,16
2025-02-19 16:39:30.474,1031.0,1444.0,-1692.0,237.0,-992.0,-537.0,127,66,59,85,87,258,15,15
2025-02-19 16:39:30.493,5903.0,-1825.0,531.0,174.0,-1157.0,-435.0,136,69,61,88,93,269,16,15
2025-02-19 16:39:30.513,6390.0,-4994.0,4940.0,240.0,-322.0,-5.0,137,67,59,84,93,299,13,12
2025-02-19 16:39:30.530,2439.0,-1573.0,3622.0,148.0,195.0,-64.0,138,69,60,87,97,333,49,14
2025-02-19 16:39:30.551,951.0,-1914.0,2522.0,11.0,267.0,-17.0,141,73,65,91,100,327,19,18
2025-02-19 16:39:30.571,192.0,-728.0,1502.0,-48.0,258.0,53.0,139,70,62,89,99,292,972,15
2025-02-19 16:39:30.588,-238.0,-647.0,898.0,-36.0,222.0,27.0,137,70,61,89,98,302,1017,15
2025-02-19 16:39:30.608,-141.0,-789.0,640.0,81.0,202.0,19.0,133,66,58,86,94,358,1017,89
2025-02-19 16:39:30.628,-196.0,-401.0,436.0,154.0,180.0,4.0,135,67,58,87,96,435,864,682
2025-02-19 16:39:30.645,-268.0,-324.0,290.0,194.0,158.0,-5.0,134,66,57,86,94,500,275,921
2025-02-19 16:39:30.665,-173.0,-339.0,296.0,265.0,118.0,-21.0,135,67,58,87,95,557,121,1009
2025-02-19 16:39:30.682,-187.0,-144.0,388.0,343.0,86.0,-38.0,137,66,58,87,97,604,11,1010
2025-02-19 16:39:30.702,-240.0,181.0,651.0,354.0,63.0,-72.0,138,67,57,87,97,642,9,1009
2025-02-19 16:39:30.723,-209.0,273.0,827.0,352.0,78.0,-106.0,140,68,58,88,98,670,72,1009
2025-02-19 16:39:30.739,-212.0,317.0,849.0,317.0,90.0,-138.0,142,67,57,88,97,694,68,1010
2025-02-19 16:39:30.760,-254.0,329.0,794.0,255.0,49.0,-144.0,143,68,57,88,97,712,11,1009
2025-02-19 16:39:30.780,-216.0,237.0,835.0,177.0,1.0,-146.0,143,67,56,87,97,726,10,1010
2025-02-19 16:39:30.796,-90.0,-226.0,950.0,152.0,-36.0,-131.0,145,68,57,88,97,738,11,1010
2025-02-19 16:39:30.817,85.0,-550.0,1077.0,152.0,-57.0,-115.0,145,68,57,88,98,744,10,1009
2025-02-19 16:39:30.836,423.0,-1040.0,1205.0,150.0,-83.0,-67.0,145,68,56,87,97,748,9,1008
2025-02-19 16:39:30.853,945.0,-1577.0,1455.0,159.0,-92.0,39.0,147,68,56,86,98,747,10,1009
2025-02-19 16:39:30.874,1372.0,-1537.0,1877.0,106.0,-86.0,216.0,147,66,56,83,99,747,10,782
2025-02-19 16:39:30.894,1822.0,-1776.0,2103.0,19.0,22.0,424.0,147,66,56,87,101,747,10,419
2025-02-19 16:39:30.908,2031.0,-1269.0,1880.0,-124.0,159.0,659.0,147,65,56,86,99,748,9,293
2025-02-19 16:39:30.931,2179.0,66.0,1256.0,-231.0,242.0,827.0,146,63,56,86,95,744,10,223
2025-02-19 16:39:30.948,1232.0,1694.0,1380.0,-520.0,170.0,764.0,146,63,57,85,91,745,11,103
2025-02-19 16:39:30.968,1064.0,1649.0,1356.0,-552.0,63.0,608.0,145,63,57,84,87,749,9,100
2025-02-19 16:39:30.988,755.0,1986.0,1729.0,-277.0,52.0,397.0,146,65,59,84,88,751,9,176
2025-02-19 16:39:31.006,352.0,2520.0,1934.0,14.0,89.0,118.0,145,65,59,84,87,754,200,156
2025-02-19 16:39:31.023,363.0,2362.0,1960.0,149.0,174.0,-41.0,146,65,60,84,85,759,298,9
2025-02-19 16:39:31.046,134.0,2365.0,1408.0,128.0,220.0,-153.0,146,65,59,82,84,760,73,285
2025-02-19 16:39:31.063,82.0,1440.0,1047.0,100.0,218.0,-254.0,146,64,58,81,81,759,231,889
2025-02-19 16:39:31.083,-80.0,523.0,887.0,142.0,212.0,-293.0,145,64,58,79,79,759,508,892
2025-02-19 16:39:31.103,-231.0,-71.0,486.0,266.0,143.0,-303.0,143,63,57,76,76,766,1017,674
2025-02-19 16:39:31.119,-295.0,17.0,408.0,293.0,36.0,-302.0,141,64,58,77,77,760,1017,670
2025-02-19 16:39:31.140,-203.0,-71.0,657.0,262.0,-52.0,-293.0,139,63,57,77,78,748,1017,543
2025-02-19 16:39:31.157,-236.0,308.0,664.0,186.0,-161.0,-312.0,140,67,58,73,80,728,1017,715
2025-02-19 16:39:31.177,104.0,-93.0,680.0,138.0,-234.0,-304.0,141,65,58,80,85,712,991,900
2025-02-19 16:39:31.197,286.0,-723.0,968.0,175.0,-252.0,-214.0,140,65,58,79,86,698,651,559
2025-02-19 16:39:31.215,312.0,-292.0,1370.0,188.0,-184.0,-193.0,141,66,57,80,89,689,76,11
2025-02-19 16:39:31.235,292.0,-363.0,1546.0,133.0,-92.0,-165.0,141,66,57,79,89,686,9,9
2025-02-19 16:39:31.254,325.0,-715.0,1389.0,46.0,-14.0,-112.0,143,67,57,82,90,678,252,10
2025-02-19 16:39:31.272,505.0,-1267.0,1254.0,18.0,-2.0,-10.0,141,66,56,81,89,667,382,20
2025-02-19 16:39:31.292,991.0,-1893.0,1510.0,-9.0,20.0,207.0,144,67,57,81,90,642,316,10
2025-02-19 16:39:31.312,1294.0,-1858.0,1806.0,-128.0,79.0,421.0,144,66,57,79,90,620,435,120
2025-02-19 16:39:31.329,1783.0,-1748.0,1664.0,-287.0,202.0,740.0,144,63,56,80,84,617,553,701
2025-02-19 16:39:31.349,1347.0,785.0,1513.0,-518.0,170.0,813.0,144,63,55,76,81,622,462,1008
2025-02-19 16:39:31.366,813.0,1349.0,1253.0,-606.0,84.0,670.0,143,63,55,75,78,634,601,1010
2025-02-19 16:39:31.386,169.0,2193.0,1685.0,-351.0,65.0,414.0,144,66,57,75,79,635,1017,1010
2025-02-19 16:39:31.406,60.0,2494.0,2005.0,12.0,112.0,120.0,143,65,57,75,78,638,987,1009
2025-02-19 16:39:31.424,-169.0,2787.0,1922.0,156.0,192.0,-64.0,142,66,58,76,76,644,1015,868
2025-02-19 16:39:31.444,-181.0,2341.0,1639.0,37.0,203.0,-178.0,141,66,58,76,76,648,1017,532
2025-02-19 16:39:31.461,-125.0,456.0,1367.0,-44.0,205.0,-261.0,139,65,58,75,76,653,1018,647
2025-02-19 16:39:31.481,67.0,-764.0,1269.0,1.0,224.0,-281.0,138,63,58,77,77,654,1017,855
2025-02-19 16:39:31.501,242.0,-1389.0,1420.0,-12.0,265.0,-183.0,135,63,57,76,77,658,1018,473
2025-02-19 16:39:31.521,-217.0,-1021.0,1185.0,-139.0,279.0,-120.0,135,65,59,79,80,664,1017,204
2025-02-19 16:39:31.538,-231.0,-792.0,862.0,-259.0,280.0,-112.0,134,66,58,78,80,667,1017,8
2025-02-19 16:39:31.558,-210.0,-843.0,437.0,-305.0,298.0,-71.0,135,66,59,78,83,671,1017,9
2025-02-19 16:39:31.578,-252.0,-761.0,-101.0,-196.0,287.0,-44.0,135,67,60,81,86,674,1017,9
2025-02-19 16:39:31.595,-936.0,-792.0,-472.0,-82.0,201.0,-19.0,134,67,61,86,90,679,1018,62
2025-02-19 16:39:31.615,-838.0,-880.0,-268.0,133.0,144.0,8.0,134,72,65,95,102,680,1017,157
2025-02-19 16:39:31.633,-266.0,-752.0,-25.0,230.0,175.0,7.0,131,78,69,105,108,682,1017,222
2025-02-19 16:39:31.654,-867.0,-231.0,62.0,142.0,141.0,-3.0,134,89,78,118,118,613,1017,340
2025-02-19 16:39:31.672,-719.0,-10.0,-409.0,11.0,67.0,1.0,132,94,81,123,123,561,1017,479
2025-02-19 16:39:31.690,-597.0,262.0,-327.0,22.0,41.0,-31.0,134,99,85,128,127,521,1018,647
2025-02-19 16:39:31.710,-825.0,320.0,-758.0,59.0,-42.0,-99.0,135,99,87,129,126,488,1018,749
2025-02-19 16:39:31.730,-950.0,878.0,-1183.0,60.0,-124.0,-281.0,135,102,90,129,123,454,1017,688
2025-02-19 16:39:31.748,-1389.0,1087.0,-1812.0,90.0,-217.0,-498.0,136,108,95,130,126,421,1017,734
2025-02-19 16:39:31.767,-918.0,943.0,-182.0,170.0,-581.0,-557.0,134,107,96,129,131,398,1017,910
2025-02-19 16:39:31.787,1131.0,2083.0,-2122.0,57.0,-1036.0,-490.0,132,113,99,130,141,383,1017,930
2025-02-19 16:39:31.804,3192.0,-733.0,-1161.0,80.0,-1237.0,-389.0,134,117,100,133,144,372,1017,656
2025-02-19 16:39:31.825,5202.0,-4287.0,1338.0,-243.0,-676.0,-87.0,134,120,102,136,147,377,829,33
2025-02-19 16:39:31.844,2771.0,-3897.0,1462.0,-16.0,-87.0,138.0,137,121,101,136,146,396,12,12
2025-02-19 16:39:31.861,1037.0,-1917.0,1236.0,111.0,67.0,65.0,139,118,99,133,147,414,11,11
2025-02-19 16:39:31.881,452.0,-1229.0,1024.0,28.0,214.0,53.0,143,121,101,138,148,380,14,13
2025-02-19 16:39:31.896,447.0,-1261.0,1451.0,18.0,227.0,143.0,142,120,98,135,146,380,11,10
2025-02-19 16:39:31.919,672.0,-1034.0,939.0,-105.0,291.0,192.0,142,121,99,136,146,389,10,82
2025-02-19 16:39:31.938,394.0,-819.0,368.0,-183.0,323.0,232.0,143,123,103,139,149,400,11,533
2025-02-19 16:39:31.956,-64.0,-549.0,317.0,-164.0,327.0,234.0,137,121,102,137,148,378,13,639
2025-02-19 16:39:31.976,86.0,-684.0,565.0,-119.0,343.0,246.0,135,120,102,137,147,374,13,920
2025-02-19 16:39:31.994,-311.0,-616.0,58.0,-66.0,273.0,240.0,133,117,101,136,146,372,12,1009
2025-02-19 16:39:32.013,124.0,-501.0,226.0,11.0,232.0,245.0,133,116,100,137,146,376,12,1009
2025-02-19 16:39:32.033,-285.0,-271.0,-6.0,22.0,198.0,256.0,132,114,98,136,144,391,11,1009
2025-02-19 16:39:32.049,-473.0,130.0,137.0,57.0,132.0,215.0,133,113,98,136,143,405,13,1009
2025-02-19 16:39:32.070,-461.0,132.0,252.0,-14.0,112.0,164.0,136,115,101,138,144,389,13,1009
2025-02-19 16:39:32.090,-480.0,324.0,8.0,-5.0,81.0,99.0,134,112,100,137,142,372,13,990
2025-02-19 16:39:32.108,-645.0,463.0,-39.0,68.0,82.0,17.0,135,112,100,138,141,360,13,819
2025-02-19 16:39:32.127,-1229.0,1293.0,-516.0,167.0,22.0,-155.0,134,109,100,135,139,357,220,518
2025-02-19 16:39:32.144,-1459.0,1666.0,-713.0,231.0,-149.0,-378.0,136,111,101,136,139,358,724,14
2025-02-19 16:39:32.162,-1327.0,2181.0,-1329.0,182.0,-406.0,-596.0,137,112,101,135,142,359,1018,13
2025-02-19 16:39:32.185,476.0,1186.0,-411.0,-24.0,-742.0,-677.0,137,115,101,136,146,364,1018,13
2025-02-19 16:39:32.205,2816.0,-2174.0,234.0,-47.0,-811.0,-470.0,137,119,100,138,149,371,824,13
2025-02-19 16:39:32.222,4610.0,-4935.0,1680.0,114.0,-483.0,-116.0,137,119,100,137,150,384,389,15
2025-02-19 16:39:32.242,3338.0,-3880.0,1949.0,307.0,33.0,34.0,141,119,100,138,150,404,12,12
2025-02-19 16:39:32.262,1122.0,-1503.0,1636.0,335.0,240.0,23.0,144,116,93,135,148,432,779,22
2025-02-19 16:39:32.279,44.0,-376.0,1681.0,156.0,295.0,14.0,146,112,85,134,145,464,1018,395
2025-02-19 16:39:32.296,54.0,-507.0,1068.0,56.0,237.0,40.0,146,104,79,130,140,503,916,705
2025-02-19 16:39:32.316,-91.0,-484.0,985.0,10.0,205.0,78.0,148,97,75,127,137,534,11,984
2025-02-19 16:39:32.337,-224.0,-220.0,575.0,56.0,186.0,57.0,149,93,75,122,135,544,11,1010
2025-02-19 16:39:32.356,-406.0,-433.0,331.0,114.0,179.0,13.0,148,88,73,124,127,547,10,1010
2025-02-19 16:39:32.373,-18.0,-437.0,387.0,249.0,169.0,-8.0,148,86,73,123,122,548,12,1010
2025-02-19 16:39:32.394,-55.0,-341.0,367.0,317.0,137.0,-18.0,148,85,71,105,117,554,10,1006
2025-02-19 16:39:32.414,-231.0,-214.0,476.0,332.0,78.0,-40.0,148,85,71,117,117,563,10,1009
2025-02-19 16:39:32.431,-367.0,-102.0,528.0,359.0,51.0,-73.0,147,84,71,121,114,578,9,1009
2025-02-19 16:39:32.451,-438.0,-20.0,499.0,380.0,2.0,-100.0,148,83,72,103,115,594,10,546
2025-02-19 16:39:32.471,-364.0,156.0,516.0,352.0,-36.0,-119.0,148,84,72,111,110,607,10,97
2025-02-19 16:39:32.488,-193.0,45.0,681.0,334.0,-56.0,-155.0,147,83,70,114,107,618,10,8
2025-02-19 16:39:32.508,-66.0,-70.0,914.0,303.0,-86.0,-148.0,148,81,67,115,104,626,10,44
2025-02-19 16:39:32.526,189.0,-516.0,1352.0,257.0,-76.0,-101.0,147,77,63,102,97,629,498,103
2025-02-19 16:39:32.545,888.0,-968.0,1885.0,142.0,10.0,17.0,150,75,62,103,90,622,1017,286
2025-02-19 16:39:32.566,1397.0,-1205.0,2337.0,-13.0,100.0,172.0,151,69,57,92,78,614,1018,881
2025-02-19 16:39:32.581,2034.0,-1846.0,2230.0,-73.0,230.0,445.0,153,66,55,83,71,609,1017,1010
2025-02-19 16:39:32.602,1867.0,-877.0,1716.0,-278.0,337.0,642.0,154,62,52,75,66,604,1017,1010
2025-02-19 16:39:32.623,1796.0,237.0,1449.0,-408.0,277.0,809.0,152,59,50,68,61,601,1018,1010
2025-02-19 16:39:32.640,848.0,1574.0,1114.0,-594.0,146.0,732.0,153,60,52,68,62,600,815,1010
2025-02-19 16:39:32.659,560.0,2302.0,1309.0,-496.0,53.0,489.0,153,63,53,68,63,598,1017,1010
2025-02-19 16:39:32.678,-288.0,3101.0,1604.0,-231.0,50.0,160.0,154,66,56,70,66,590,1018,1010
2025-02-19 16:39:32.697,45.0,2233.0,1755.0,85.0,117.0,11.0,153,65,55,69,65,582,1017,1010
2025-02-19 16:39:32.718,-251.0,2590.0,1378.0,147.0,146.0,-113.0,154,67,57,71,67,569,950,1010
2025-02-19 16:39:32.732,-119.0,1943.0,893.0,100.0,161.0,-232.0,154,69,57,71,67,560,660,995
2025-02-19 16:39:32.754,-27.0,504.0,654.0,80.0,150.0,-296.0,153,65,56,70,67,558,251,680
2025-02-19 16:39:32.773,-81.0,-523.0,469.0,171.0,98.0,-299.0,151,65,56,70,68,558,11,205
2025-02-19 16:39:32.792,-188.0,-598.0,560.0,259.0,32.0,-282.0,149,64,56,69,67,558,10,9
2025-02-19 16:39:32.811,-147.0,-481.0,740.0,257.0,-41.0,-242.0,148,64,56,71,68,560,275,10
2025-02-19 16:39:32.832,-235.0,-301.0,813.0,151.0,-101.0,-181.0,147,65,56,71,69,554,1018,10
2025-02-19 16:39:32.848,-234.0,-152.0,985.0,55.0,-123.0,-172.0,148,66,57,74,71,551,1018,11
2025-02-19 16:39:32.869,-23.0,-423.0,1149.0,-16.0,-73.0,-156.0,149,67,58,74,72,542,1018,11
2025-02-19 16:39:32.888,-57.0,-638.0,1048.0,6.0,-33.0,-156.0,148,67,57,73,71,536,1017,176
2025-02-19 16:39:32.906,-52.0,-945.0,897.0,51.0,-29.0,-76.0,150,68,57,75,73,534,1018,170
2025-02-19 16:39:32.925,-230.0,-460.0,831.0,45.0,-78.0,-82.0,150,67,56,74,73,529,1017,41
2025-02-19 16:39:32.943,261.0,-1228.0,1342.0,4.0,-57.0,8.0,151,67,56,73,74,533,1018,16
2025-02-19 16:39:32.963,539.0,-1627.0,1473.0,-102.0,13.0,142.0,151,67,55,74,73,539,1017,271
2025-02-19 16:39:32.983,825.0,-2540.0,1124.0,-166.0,13.0,355.0,151,65,55,73,73,543,845,905
2025-02-19 16:39:32.999,980.0,-2365.0,1020.0,-283.0,-3.0,553.0,150,64,54,72,71,548,641,1010
2025-02-19 16:39:33.021,823.0,-489.0,819.0,-417.0,-71.0,642.0,150,64,54,70,68,553,733,1010
2025-02-19 16:39:33.041,628.0,759.0,1385.0,-514.0,-121.0,596.0,152,65,56,71,66,555,932,1010
2025-02-19 16:39:33.058,-65.0,2341.0,2006.0,-315.0,-106.0,345.0,151,66,56,70,65,555,938,1010
2025-02-19 16:39:33.077,143.0,2350.0,2644.0,-30.0,4.0,72.0,152,67,57,71,65,554,1014,1009
2025-02-19 16:39:33.097,-288.0,2678.0,2432.0,90.0,53.0,-59.0,152,67,58,71,67,557,734,1009
2025-02-19 16:39:33.115,-53.0,2043.0,2256.0,70.0,131.0,-199.0,150,67,57,72,67,562,9,1006
2025-02-19 16:39:33.133,166.0,604.0,1740.0,10.0,201.0,-283.0,150,68,58,73,68,567,9,849
2025-02-19 16:39:33.151,399.0,-1042.0,1487.0,0.0,263.0,-259.0,146,66,58,75,68,574,9,160
2025-02-19 16:39:33.172,168.0,-1507.0,1189.0,-40.0,289.0,-205.0,145,67,59,75,68,590,19,8
2025-02-19 16:39:33.192,60.0,-1559.0,905.0,-78.0,285.0,-121.0,143,67,59,77,69,602,434,9
2025-02-19 16:39:33.210,17.0,-1547.0,633.0,-70.0,306.0,-39.0,142,69,61,78,71,611,567,8
2025-02-19 16:39:33.229,-352.0,-1354.0,213.0,-20.0,303.0,19.0,142,71,63,83,73,616,1017,9
2025-02-19 16:39:33.250,-709.0,-824.0,146.0,-9.0,238.0,50.0,142,75,67,85,75,626,1018,8
2025-02-19 16:39:33.267,-653.0,-678.0,68.0,-4.0,202.0,73.0,143,84,78,89,78,629,1018,8
2025-02-19 16:39:33.287,-578.0,-535.0,268.0,70.0,209.0,79.0,144,94,78,91,77,634,1018,8
2025-02-19 16:39:33.307,-747.0,-301.0,300.0,87.0,214.0,60.0,145,103,85,95,78,636,1018,81
2025-02-19 16:39:33.324,-877.0,-2.0,5.0,99.0,179.0,44.0,144,108,87,97,77,636,1018,337
2025-02-19 16:39:33.344,-746.0,254.0,20.0,91.0,145.0,-2.0,146,112,90,99,79,635,1018,634
2025-02-19 16:39:33.364,-636.0,449.0,-135.0,51.0,121.0,-31.0,146,115,92,100,83,634,847,766
2025-02-19 16:39:33.381,-715.0,605.0,-475.0,25.0,79.0,-89.0,146,117,94,99,84,634,667,1010
2025-02-19 16:39:33.401,-837.0,646.0,-881.0,44.0,-29.0,-180.0,147,119,95,99,85,629,928,1009
2025-02-19 16:39:33.422,-1060.0,1079.0,-1244.0,81.0,-183.0,-352.0,146,119,96,94,83,623,1018,820
2025-02-19 16:39:33.439,-877.0,1405.0,-1242.0,39.0,-403.0,-528.0,147,121,97,90,82,621,1004,433
2025-02-19 16:39:33.458,-450.0,1291.0,-1296.0,-4.0,-636.0,-648.0,145,120,96,87,83,620,1018,93
2025-02-19 16:39:33.476,1118.0,876.0,-911.0,-130.0,-905.0,-711.0,143,123,97,88,87,619,1018,62
2025-02-19 16:39:33.496,3223.0,-1375.0,-235.0,-306.0,-947.0,-529.0,141,125,98,89,91,616,1017,90
2025-02-19 16:39:33.516,4692.0,-3769.0,620.0,-217.0,-622.0,-172.0,139,128,98,94,94,603,828,8
2025-02-19 16:39:33.533,3959.0,-3706.0,1063.0,-46.0,-146.0,27.0,142,131,100,95,97,566,950,11
2025-02-19 16:39:33.553,2333.0,-3151.0,1197.0,172.0,119.0,109.0,140,130,98,90,96,536,1018,10
2025-02-19 16:39:33.573,824.0,-1831.0,1192.0,215.0,183.0,173.0,141,131,99,90,95,527,1017,10
2025-02-19 16:39:33.587,602.0,-1163.0,1500.0,77.0,182.0,220.0,140,131,98,89,94,529,731,8
2025-02-19 16:39:33.610,270.0,-1115.0,921.0,-9.0,199.0,257.0,144,134,102,93,97,518,135,11
2025-02-19 16:39:33.628,197.0,-810.0,652.0,-1.0,220.0,267.0,143,133,100,91,96,494,1017,10
2025-02-19 16:39:33.648,23.0,-671.0,424.0,50.0,249.0,267.0,144,133,102,91,93,493,1018,380
2025-02-19 16:39:33.668,11.0,-397.0,356.0,100.0,250.0,250.0,149,137,106,93,94,412,19,1008
2025-02-19 16:39:33.683,-50.0,-190.0,212.0,92.0,240.0,221.0,146,135,103,90,92,352,28,1010
2025-02-19 16:39:33.702,-244.0,-268.0,113.0,85.0,214.0,212.0,148,136,105,93,94,315,15,1010
2025-02-19 16:39:33.724,-261.0,-101.0,156.0,89.0,181.0,202.0,147,135,104,92,94,287,212,866
2025-02-19 16:39:33.743,-473.0,45.0,220.0,50.0,148.0,148.0,148,139,105,93,95,269,15,834
2025-02-19 16:39:33.762,-558.0,-79.0,230.0,10.0,120.0,113.0,146,136,105,93,95,258,13,887
2025-02-19 16:39:33.782,-531.0,-224.0,225.0,26.0,103.0,85.0,147,134,104,92,94,253,12,989
2025-02-19 16:39:33.798,-535.0,-77.0,234.0,56.0,91.0,62.0,148,135,105,93,95,251,14,1009
2025-02-19 16:39:33.818,-761.0,324.0,68.0,47.0,69.0,27.0,146,134,103,89,92,261,12,929
2025-02-19 16:39:33.840,-1196.0,895.0,-542.0,33.0,-44.0,-93.0,147,134,104,85,93,278,35,599
2025-02-19 16:39:33.853,-1573.0,1462.0,-1116.0,141.0,-215.0,-358.0,145,133,105,79,88,293,11,379
2025-02-19 16:39:33.876,-1228.0,2315.0,-1311.0,53.0,-595.0,-618.0,142,133,104,77,86,309,11,350
2025-02-19 16:39:33.897,154.0,1345.0,-1356.0,-261.0,-993.0,-629.0,140,134,104,78,89,321,12,197
2025-02-19 16:39:33.914,3311.0,-1404.0,-352.0,-290.0,-1100.0,-408.0,138,134,102,81,97,335,33,189
2025-02-19 16:39:33.934,4852.0,-4211.0,319.0,-245.0,-413.0,-154.0,139,136,102,89,102,338,597,12
2025-02-19 16:39:33.951,4141.0,-4224.0,1203.0,204.0,133.0,36.0,138,134,99,88,104,324,1017,40
2025-02-19 16:39:33.970,1016.0,-1774.0,1577.0,379.0,329.0,-3.0,139,131,98,83,101,331,1017,397
2025-02-19 16:39:33.990,433.0,-648.0,1297.0,146.0,250.0,58.0,140,132,95,84,98,343,1018,1008
2025-02-19 16:39:34.008,401.0,-895.0,1181.0,69.0,213.0,100.0,140,132,94,85,98,369,1017,1010
2025-02-19 16:39:34.028,523.0,-676.0,834.0,139.0,228.0,89.0,142,132,96,92,101,354,1017,873
2025-02-19 16:39:34.047,145.0,-555.0,626.0,126.0,246.0,83.0,141,127,90,89,99,360,1018,742
2025-02-19 16:39:34.065,-214.0,-348.0,436.0,129.0,253.0,53.0,142,124,88,92,99,389,1017,659
2025-02-19 16:39:34.085,325.0,2.0,285.0,159.0,276.0,19.0,143,116,79,96,98,403,12,794
2025-02-19 16:39:34.102,-156.0,-523.0,472.0,260.0,209.0,11.0,148,106,78,102,101,403,15,1011
2025-02-19 16:39:34.123,-128.0,-334.0,449.0,300.0,207.0,-3.0,146,96,75,102,99,367,13,1009
2025-02-19 16:39:34.143,-350.0,-157.0,570.0,312.0,198.0,-6.0,145,90,72,102,97,353,13,756
2025-02-19 16:39:34.159,-420.0,-89.0,577.0,311.0,192.0,-35.0,147,83,69,103,97,332,14,13
2025-02-19 16:39:34.179,-297.0,-130.0,557.0,346.0,174.0,-42.0,146,78,64,94,93,321,20,11
2025-02-19 16:39:34.200,-541.0,-58.0,309.0,369.0,93.0,-53.0,148,77,64,91,90,317,14,13
2025-02-19 16:39:34.216,-535.0,211.0,447.0,331.0,5.0,-91.0,147,74,61,86,85,328,12,151
2025-02-19 16:39:34.236,-344.0,-85.0,656.0,257.0,-64.0,-84.0,146,70,57,82,83,389,10,376
2025-02-19 16:39:34.257,49.0,-618.0,1101.0,148.0,-91.0,-24.0,148,71,56,87,82,447,9,567
2025-02-19 16:39:34.271,931.0,-1557.0,1811.0,76.0,-55.0,112.0,148,69,55,83,79,492,9,704
2025-02-19 16:39:34.294,1427.0,-2089.0,2139.0,-25.0,0.0,275.0,150,69,55,82,78,524,23,891
2025-02-19 16:39:34.314,1536.0,-1953.0,2209.0,-183.0,49.0,543.0,150,65,53,81,75,547,752,1010
2025-02-19 16:39:34.331,1629.0,-1675.0,1523.0,-392.0,52.0,794.0,150,64,53,78,72,565,949,1010
2025-02-19 16:39:34.351,1484.0,622.0,1703.0,-469.0,-42.0,827.0,150,64,56,76,72,578,1017,1010
2025-02-19 16:39:34.368,893.0,2096.0,1778.0,-586.0,-124.0,671.0,151,68,51,77,74,585,1017,1010
2025-02-19 16:39:34.388,177.0,3287.0,2553.0,-393.0,-36.0,331.0,152,75,61,81,78,589,1018,1009
2025-02-19 16:39:34.406,497.0,2268.0,2594.0,-111.0,81.0,22.0,151,77,61,81,78,596,955,1010
2025-02-19 16:39:34.426,198.0,2212.0,2044.0,266.0,224.0,-95.0,152,76,61,81,78,604,409,1010
2025-02-19 16:39:34.446,-119.0,2112.0,1252.0,264.0,236.0,-239.0,151,72,59,79,76,611,8,1009
2025-02-19 16:39:34.466,112.0,1013.0,861.0,151.0,203.0,-319.0,151,70,60,78,76,620,10,1010
2025-02-19 16:39:34.483,28.0,-403.0,405.0,129.0,128.0,-320.0,146,68,57,77,75,622,440,1010
2025-02-19 16:39:34.503,-43.0,-1184.0,436.0,194.0,30.0,-221.0,145,70,60,79,77,623,1017,1009
2025-02-19 16:39:34.520,-149.0,-832.0,693.0,239.0,-30.0,-169.0,145,71,62,79,78,597,1018,996
2025-02-19 16:39:34.540,-270.0,-345.0,852.0,219.0,-55.0,-181.0,145,71,60,81,79,577,1018,810
2025-02-19 16:39:34.560,-245.0,-135.0,916.0,165.0,-58.0,-193.0,146,73,63,84,81,545,1017,411
2025-02-19 16:39:34.575,-257.0,-114.0,849.0,149.0,-64.0,-198.0,145,73,61,83,82,514,1017,11
2025-02-19 16:39:34.597,-270.0,-114.0,806.0,130.0,-82.0,-160.0,145,74,61,84,83,502,1018,11
2025-02-19 16:39:34.618,-200.0,5.0,829.0,131.0,-104.0,-150.0,144,73,60,83,83,500,1018,10
2025-02-19 16:39:34.634,-152.0,-118.0,858.0,136.0,-116.0,-139.0,145,75,61,84,86,502,837,10
2025-02-19 16:39:34.654,64.0,-508.0,1052.0,141.0,-101.0,-115.0,145,75,57,87,88,504,562,122
2025-02-19 16:39:34.675,436.0,-1397.0,1614.0,143.0,-43.0,31.0,146,74,60,86,87,510,9,440
2025-02-19 16:39:34.690,958.0,-1479.0,1986.0,26.0,38.0,227.0,148,75,60,87,87,512,11,837
2025-02-19 16:39:34.712,1073.0,-1592.0,1661.0,-174.0,77.0,457.0,148,72,58,86,85,512,10,1010
2025-02-19 16:39:34.732,1022.0,-1101.0,1229.0,-311.0,76.0,621.0,150,73,59,86,84,514,11,1010
2025-02-19 16:39:34.749,433.0,634.0,1055.0,-537.0,-1.0,629.0,149,69,59,83,78,513,10,1009
2025-02-19 16:39:34.769,369.0,1183.0,1121.0,-692.0,-120.0,564.0,149,74,62,83,78,515,55,1009
2025-02-19 16:39:34.786,-88.0,2123.0,1732.0,-429.0,-129.0,316.0,149,80,64,85,82,514,812,982
2025-02-19 16:39:34.806,233.0,2337.0,2402.0,4.0,1.0,-38.0,148,81,65,85,82,514,987,818
2025-02-19 16:39:34.826,59.0,2456.0,2143.0,218.0,132.0,-168.0,149,81,70,86,84,517,926,410
2025-02-19 16:39:34.841,61.0,1514.0,1537.0,158.0,141.0,-255.0,147,78,63,86,83,523,587,10
2025-02-19 16:39:34.863,398.0,-228.0,1502.0,50.0,111.0,-269.0,145,77,62,86,83,532,121,10
2025-02-19 16:39:34.883,530.0,-1560.0,1801.0,13.0,147.0,-192.0,145,77,63,88,85,520,270,10
2025-02-19 16:39:34.900,86.0,-1140.0,1572.0,-19.0,206.0,-117.0,145,77,65,89,86,498,247,11
2025-02-19 16:39:34.921,-146.0,-775.0,1309.0,-134.0,211.0,-103.0,147,79,66,91,87,481,478,12
2025-02-19 16:39:34.939,-241.0,-727.0,940.0,-218.0,201.0,-63.0,146,81,66,91,88,467,1016,11
2025-02-19 16:39:34.958,-329.0,-741.0,678.0,-270.0,192.0,-20.0,144,84,68,93,89,463,1018,11
2025-02-19 16:39:34.978,-332.0,-664.0,607.0,-274.0,201.0,10.0,144,88,69,93,91,472,1017,10
2025-02-19 16:39:34.995,-329.0,-672.0,738.0,-243.0,239.0,30.0,142,90,71,94,96,481,1017,10
2025-02-19 16:39:35.015,-298.0,-570.0,500.0,-168.0,275.0,36.0,144,92,72,99,99,494,1018,29
2025-02-19 16:39:35.035,-372.0,-447.0,304.0,-95.0,301.0,21.0,143,93,73,101,100,505,1017,383
2025-02-19 16:39:35.053,-529.0,-233.0,252.0,-103.0,279.0,10.0,143,95,74,103,101,510,1017,782
2025-02-19 16:39:35.072,-491.0,-236.0,141.0,-131.0,247.0,-17.0,142,94,74,103,100,513,1018,1010
2025-02-19 16:39:35.093,-292.0,-226.0,129.0,-133.0,255.0,-34.0,142,96,75,104,101,515,779,1010
2025-02-19 16:39:35.109,-700.0,-269.0,-244.0,-117.0,227.0,-52.0,141,92,74,103,99,514,907,1009
2025-02-19 16:39:35.130,-621.0,-108.0,-465.0,-83.0,146.0,-57.0,141,86,70,102,97,513,1017,958
2025-02-19 16:39:35.150,-489.0,273.0,-542.0,-46.0,95.0,-47.0,141,80,68,100,95,511,1018,1010
2025-02-19 16:39:35.167,-804.0,508.0,-531.0,-8.0,46.0,-74.0,140,73,62,89,86,507,1017,1010
2025-02-19 16:39:35.185,-743.0,1138.0,-733.0,105.0,32.0,-145.0,139,70,61,78,81,496,1018,1010
2025-02-19 16:39:35.206,-1254.0,2478.0,-1510.0,190.0,-119.0,-433.0,132,66,59,76,76,487,1018,647
2025-02-19 16:39:35.224,-150.0,2387.0,-1741.0,209.0,-472.0,-708.0,124,62,57,75,74,478,1018,11
2025-02-19 16:39:35.245,1656.0,636.0,-701.0,103.0,-799.0,-807.0,124,60,53,73,74,473,1018,10
2025-02-19 16:39:35.265,5194.0,-2316.0,1477.0,-137.0,-713.0,-571.0,126,63,54,75,76,474,1017,10
2025-02-19 16:39:35.276,5349.0,-6560.0,2001.0,-132.0,-43.0,-110.0,120,65,55,77,78,459,787,13
2025-02-19 16:39:35.302,2152.0,-4915.0,520.0,269.0,216.0,106.0,118,63,54,75,80,443,11,10
2025-02-19 16:39:35.319,734.0,-2401.0,714.0,151.0,195.0,242.0,121,65,55,77,81,401,432,12
2025-02-19 16:39:35.339,514.0,-1609.0,983.0,-50.0,171.0,249.0,121,64,56,77,81,407,1017,38
2025-02-19 16:39:35.359,462.0,-1901.0,759.0,-63.0,194.0,303.0,121,65,56,78,82,414,917,11
2025-02-19 16:39:35.375,228.0,-1399.0,223.0,-27.0,196.0,365.0,121,64,55,79,82,426,12,10
2025-02-19 16:39:35.396,0.0,-531.0,38.0,-5.0,162.0,370.0,122,64,57,80,83,434,10,267
2025-02-19 16:39:35.412,-165.0,-5.0,25.0,-31.0,124.0,328.0,124,66,58,82,84,436,22,684
2025-02-19 16:39:35.434,-251.0,218.0,68.0,-75.0,94.0,271.0,126,65,58,82,84,407,12,1010
2025-02-19 16:39:35.454,-333.0,101.0,72.0,-77.0,66.0,231.0,126,66,59,83,85,397,13,1010
2025-02-19 16:39:35.470,-383.0,9.0,36.0,-29.0,56.0,197.0,127,65,58,82,84,406,310,1009
2025-02-19 16:39:35.491,-622.0,296.0,50.0,7.0,29.0,153.0,129,67,60,85,86,408,13,1010
2025-02-19 16:39:35.511,-469.0,395.0,260.0,-4.0,29.0,99.0,129,66,60,85,85,399,11,1009
2025-02-19 16:39:35.528,-587.0,395.0,280.0,-4.0,48.0,60.0,130,68,61,85,86,385,12,874
2025-02-19 16:39:35.545,-808.0,767.0,45.0,31.0,49.0,7.0,129,68,61,84,84,376,29,724
2025-02-19 16:39:35.568,-1055.0,1888.0,-193.0,144.0,37.0,-195.0,122,67,61,79,78,372,402,619
2025-02-19 16:39:35.585,-1379.0,2833.0,-567.0,157.0,-57.0,-440.0,120,68,61,77,80,357,725,261
2025-02-19 16:39:35.605,-1142.0,2287.0,-925.0,89.0,-253.0,-670.0,118,66,59,75,70,350,1018,12
2025-02-19 16:39:35.622,424.0,954.0,-1003.0,-25.0,-562.0,-733.0,122,67,58,75,76,350,670,13
2025-02-19 16:39:35.641,2346.0,263.0,187.0,-345.0,-738.0,-694.0,123,65,56,73,74,366,10,10
2025-02-19 16:39:35.663,4629.0,-4084.0,654.0,-538.0,-345.0,-378.0,122,66,57,74,76,387,50,11
2025-02-19 16:39:35.679,4045.0,-5955.0,224.0,-29.0,92.0,-128.0,120,67,57,76,77,401,12,12
2025-02-19 16:39:35.699,2226.0,-3781.0,-705.0,259.0,253.0,88.0,120,65,56,76,78,419,650,23
2025-02-19 16:39:35.718,845.0,-2194.0,-658.0,161.0,152.0,166.0,123,67,57,76,80,439,1017,613
2025-02-19 16:39:35.737,500.0,-1639.0,-212.0,130.0,93.0,189.0,123,65,60,76,79,462,1018,1010
2025-02-19 16:39:35.755,368.0,-1473.0,-23.0,175.0,109.0,198.0,125,65,57,77,81,485,1017,984
2025-02-19 16:39:35.773,354.0,-1306.0,16.0,235.0,137.0,236.0,126,64,56,78,82,505,564,1010
2025-02-19 16:39:35.794,201.0,-834.0,-32.0,263.0,132.0,263.0,129,66,58,82,87,523,34,1010
2025-02-19 16:39:35.814,214.0,-764.0,11.0,282.0,124.0,280.0,132,67,58,84,90,536,502,989
2025-02-19 16:39:35.833,236.0,-653.0,112.0,290.0,117.0,298.0,134,67,58,87,93,543,1017,768
2025-02-19 16:39:35.851,320.0,-606.0,324.0,280.0,143.0,331.0,136,68,60,90,95,542,632,720
2025-02-19 16:39:35.871,288.0,-734.0,183.0,286.0,148.0,373.0,136,68,60,90,96,546,11,726
2025-02-19 16:39:35.888,168.0,-562.0,36.0,346.0,124.0,386.0,131,69,62,91,97,547,11,924
2025-02-19 16:39:35.908,21.0,-157.0,125.0,333.0,83.0,411.0,139,70,63,90,97,547,9,1010
2025-02-19 16:39:35.926,-351.0,737.0,343.0,198.0,17.0,376.0,140,71,64,86,102,548,10,1010
2025-02-19 16:39:35.946,-676.0,1042.0,682.0,47.0,-5.0,288.0,142,72,67,81,118,549,11,1010
2025-02-19 16:39:35.966,-641.0,1151.0,510.0,-17.0,-46.0,184.0,142,72,67,83,126,551,10,1010
2025-02-19 16:39:35.985,-769.0,2066.0,324.0,-36.0,-79.0,65.0,144,73,69,87,134,551,11,1010
2025-02-19 16:39:36.003,-1101.0,2979.0,-40.0,17.0,-127.0,-171.0,145,73,70,90,140,551,10,1010
2025-02-19 16:39:36.023,-1303.0,3807.0,-271.0,107.0,-184.0,-370.0,145,74,71,93,144,551,10,901
2025-02-19 16:39:36.043,-761.0,3170.0,-58.0,189.0,-295.0,-559.0,146,74,71,95,145,551,10,626
2025-02-19 16:39:36.060,601.0,1454.0,549.0,281.0,-380.0,-649.0,146,72,70,98,145,552,10,248
2025-02-19 16:39:36.080,1683.0,255.0,931.0,311.0,-451.0,-647.0,147,73,70,105,146,491,11,10
2025-02-19 16:39:36.100,2524.0,-2334.0,2833.0,358.0,-354.0,-359.0,147,74,71,110,147,249,9,10
2025-02-19 16:39:36.117,3032.0,-1564.0,3782.0,289.0,-9.0,-102.0,150,77,75,113,148,11,79,153
2025-02-19 16:39:36.136,1650.0,-768.0,3107.0,-36.0,102.0,-38.0,150,77,73,114,147,10,179,721
2025-02-19 16:39:36.156,1247.0,-1807.0,1918.0,-141.0,135.0,100.0,150,75,70,108,147,10,279,805
2025-02-19 16:39:36.175,499.0,-1236.0,1104.0,-91.0,111.0,206.0,149,74,68,105,147,28,947,448
2025-02-19 16:39:36.195,231.0,-395.0,1135.0,-112.0,89.0,275.0,147,74,67,104,147,151,1018,586
2025-02-19 16:39:36.212,41.0,48.0,979.0,-174.0,101.0,325.0,148,75,69,105,147,258,1017,844
2025-02-19 16:39:36.232,69.0,147.0,828.0,-173.0,125.0,356.0,146,74,69,103,147,344,1017,1010
2025-02-19 16:39:36.252,24.0,268.0,622.0,-136.0,114.0,361.0,146,75,70,100,147,411,574,914
2025-02-19 16:39:36.269,-176.0,567.0,611.0,-68.0,52.0,313.0,145,74,69,95,147,464,126,1010
2025-02-19 16:39:36.289,-258.0,854.0,704.0,-19.0,19.0,246.0,146,74,70,91,147,506,11,1010
2025-02-19 16:39:36.309,-264.0,1061.0,766.0,-4.0,26.0,207.0,147,75,71,93,148,537,309,1010
2025-02-19 16:39:36.326,-234.0,1031.0,876.0,-37.0,34.0,169.0,147,75,70,94,147,562,307,1010
2025-02-19 16:39:36.344,-450.0,1429.0,769.0,-68.0,19.0,69.0,148,77,73,94,148,514,11,1009
2025-02-19 16:39:36.361,-477.0,1158.0,938.0,-22.0,16.0,-51.0,147,77,73,95,147,540,10,820
2025-02-19 16:39:36.383,-384.0,1276.0,949.0,46.0,38.0,-109.0,147,78,75,96,148,541,11,578
2025-02-19 16:39:36.403,-579.0,2184.0,811.0,19.0,61.0,-186.0,146,77,74,96,147,566,10,396
2025-02-19 16:39:36.420,-713.0,2710.0,456.0,-56.0,57.0,-395.0,147,78,76,97,148,588,93,209
2025-02-19 16:39:36.441,-317.0,2557.0,144.0,-66.0,56.0,-573.0,147,78,76,99,149,604,11,10
2025-02-19 16:39:36.460,423.0,1097.0,436.0,74.0,22.0,-682.0,145,77,73,99,149,609,10,14
2025-02-19 16:39:36.478,954.0,-432.0,283.0,166.0,-60.0,-632.0,144,76,70,102,149,613,109,10
2025-02-19 16:39:36.496,1568.0,-2441.0,688.0,267.0,-192.0,-379.0,144,75,67,98,149,614,175,10
2025-02-19 16:39:36.519,2346.0,-3121.0,2248.0,180.0,-283.0,-64.0,147,77,70,106,151,618,255,10
2025-02-19 16:39:36.535,2361.0,-1692.0,2902.0,-83.0,-174.0,92.0,147,77,71,111,149,620,533,9
2025-02-19 16:39:36.555,1668.0,-2057.0,2276.0,-181.0,1.0,160.0,148,79,72,112,149,625,959,259
2025-02-19 16:39:36.576,499.0,-1042.0,1487.0,-101.0,42.0,203.0,148,78,71,110,149,630,1018,674
2025-02-19 16:39:36.593,-302.0,74.0,1322.0,-149.0,35.0,220.0,147,77,71,107,147,634,1018,922
2025-02-19 16:39:36.613,-429.0,98.0,1494.0,-184.0,44.0,218.0,148,78,72,109,148,638,1018,1010
2025-02-19 16:39:36.630,-187.0,391.0,1547.0,-207.0,69.0,224.0,147,77,72,110,145,630,832,948
2025-02-19 16:39:36.649,-58.0,186.0,1331.0,-210.0,130.0,192.0,147,79,74,112,142,643,523,1009
2025-02-19 16:39:36.670,-209.0,-250.0,1281.0,-138.0,164.0,172.0,147,80,75,112,129,656,9,1010
2025-02-19 16:39:36.687,-168.0,-361.0,1133.0,-64.0,192.0,186.0,148,82,76,113,105,668,9,1010
2025-02-19 16:39:36.700,-100.0,-158.0,995.0,-46.0,210.0,174.0,148,81,75,108,89,677,9,1010
2025-02-19 16:39:36.727,-220.0,41.0,1023.0,-62.0,236.0,150.0,147,80,73,104,79,686,9,1009
2025-02-19 16:39:36.744,-524.0,11.0,847.0,-112.0,250.0,124.0,147,80,73,97,71,693,10,722
2025-02-19 16:39:36.762,-535.0,-81.0,577.0,-119.0,230.0,110.0,146,80,72,88,66,701,8,281
2025-02-19 16:39:36.781,-729.0,-136.0,370.0,-128.0,185.0,113.0,146,82,73,83,63,710,65,9
2025-02-19 16:39:36.802,-626.0,-31.0,248.0,-131.0,164.0,99.0,146,83,74,81,62,714,1017,8
2025-02-19 16:39:36.822,-646.0,-190.0,186.0,-101.0,152.0,69.0,149,87,78,84,64,179,1018,12
2025-02-19 16:39:36.838,-855.0,-275.0,395.0,-82.0,141.0,57.0,149,88,77,87,64,11,1018,10
2025-02-19 16:39:36.858,-511.0,-194.0,340.0,-51.0,143.0,54.0,148,83,71,87,64,66,1018,140
2025-02-19 16:39:36.878,-809.0,-178.0,424.0,-55.0,155.0,43.0,148,81,71,87,64,208,1018,524
2025-02-19 16:39:36.896,-916.0,-137.0,217.0,-83.0,142.0,34.0,148,79,69,86,64,319,925,918
2025-02-19 16:39:36.914,-635.0,-215.0,47.0,-57.0,129.0,33.0,148,79,69,87,67,411,500,1009
2025-02-19 16:39:36.936,-819.0,-254.0,-185.0,53.0,118.0,27.0,146,79,69,89,70,489,103,1010
2025-02-19 16:39:36.953,-906.0,-62.0,-80.0,45.0,70.0,47.0,145,79,71,91,72,557,173,1009
2025-02-19 16:39:36.973,-530.0,195.0,-98.0,28.0,38.0,63.0,146,81,72,95,79,607,574,1010
2025-02-19 16:39:36.991,-476.0,281.0,-283.0,50.0,13.0,48.0,145,82,74,100,86,646,883,918
2025-02-19 16:39:37.010,-522.0,580.0,-940.0,150.0,-93.0,-12.0,144,87,78,108,97,677,766,759
2025-02-19 16:39:37.029,-1079.0,1404.0,-1646.0,1.0,-205.0,-124.0,144,92,81,112,102,703,670,557
2025-02-19 16:39:37.050,-900.0,2030.0,-1226.0,-12.0,-388.0,-384.0,145,103,85,116,122,723,376,293
2025-02-19 16:39:37.067,322.0,1915.0,-1054.0,-68.0,-567.0,-659.0,146,113,92,119,135,734,11,69
2025-02-19 16:39:37.088,751.0,1278.0,-684.0,-271.0,-819.0,-815.0,147,128,96,125,138,744,10,67
2025-02-19 16:39:37.108,1667.0,-906.0,473.0,-435.0,-806.0,-811.0,149,130,101,129,139,742,701,159
2025-02-19 16:39:37.124,2416.0,-2697.0,-9.0,-290.0,-919.0,-541.0,148,132,103,131,141,720,1018,238
2025-02-19 16:39:37.145,4583.0,-3802.0,36.0,-379.0,-444.0,-206.0,140,134,106,133,143,701,996,12
2025-02-19 16:39:37.162,3546.0,-5140.0,185.0,-53.0,-29.0,99.0,135,132,105,133,142,702,891,15
2025-02-19 16:39:37.182,1715.0,-3499.0,705.0,329.0,322.0,174.0,137,131,105,133,142,702,233,130
2025-02-19 16:39:37.202,633.0,-1873.0,706.0,269.0,331.0,222.0,138,132,105,134,143,702,120,748
2025-02-19 16:39:37.219,597.0,-1314.0,272.0,49.0,276.0,252.0,137,131,104,132,140,710,586,905
2025-02-19 16:39:37.239,399.0,-1069.0,431.0,-50.0,268.0,292.0,141,135,108,136,144,667,1017,710
2025-02-19 16:39:37.259,548.0,-585.0,1654.0,-205.0,296.0,291.0,138,132,107,135,141,638,931,364
2025-02-19 16:39:37.277,81.0,-472.0,369.0,26.0,181.0,317.0,140,132,108,136,142,612,785,969
2025-02-19 16:39:37.295,176.0,-366.0,186.0,1.0,162.0,282.0,141,132,109,138,143,584,413,1010
2025-02-19 16:39:37.312,-90.0,-266.0,112.0,37.0,157.0,250.0,142,132,109,138,143,519,135,1010
2025-02-19 16:39:37.334,-295.0,-108.0,-4.0,49.0,134.0,217.0,140,130,108,135,141,495,248,882
2025-02-19 16:39:37.354,-337.0,-70.0,132.0,41.0,110.0,186.0,137,127,105,134,138,523,710,919
2025-02-19 16:39:37.370,-150.0,4.0,325.0,42.0,103.0,143.0,138,127,106,134,138,547,1017,1009
2025-02-19 16:39:37.391,-421.0,180.0,280.0,56.0,97.0,79.0,137,125,105,133,138,568,1018,1010
2025-02-19 16:39:37.411,-620.0,203.0,244.0,24.0,102.0,35.0,138,125,106,134,139,585,966,1010
2025-02-19 16:39:37.428,-771.0,595.0,-251.0,17.0,40.0,2.0,136,122,104,132,138,600,211,951
2025-02-19 16:39:37.447,-949.0,983.0,-441.0,74.0,-34.0,-141.0,136,122,105,132,141,618,10,674
2025-02-19 16:39:37.468,-1192.0,1464.0,-518.0,202.0,-115.0,-362.0,136,124,105,132,143,631,10,468
2025-02-19 16:39:37.484,-1345.0,1694.0,-189.0,138.0,-331.0,-629.0,136,125,105,131,143,641,10,220
2025-02-19 16:39:37.505,-414.0,1244.0,-167.0,-72.0,-663.0,-745.0,137,128,105,132,145,646,238,11
2025-02-19 16:39:37.525,2311.0,-453.0,-81.0,-237.0,-747.0,-689.0,136,128,103,131,143,615,502,9
2025-02-19 16:39:37.542,4125.0,-2874.0,-24.0,-261.0,-628.0,-421.0,135,129,103,132,145,485,786,11
2025-02-19 16:39:37.563,4374.0,-4628.0,-54.0,-113.0,-207.0,-33.0,133,128,103,131,143,248,1017,10
2025-02-19 16:39:37.580,2482.0,-4165.0,-56.0,246.0,210.0,147.0,136,130,104,132,145,66,1005,12
2025-02-19 16:39:37.600,1088.0,-2175.0,458.0,419.0,352.0,166.0,137,129,99,130,144,12,1017,11
2025-02-19 16:39:37.620,386.0,-1257.0,677.0,269.0,314.0,209.0,143,132,99,131,146,53,1018,15
2025-02-19 16:39:37.635,254.0,-1077.0,851.0,168.0,266.0,235.0,144,131,97,130,147,104,1018,49
2025-02-19 16:39:37.657,312.0,-1081.0,418.0,111.0,250.0,293.0,140,120,88,123,138,185,611,227
2025-02-19 16:39:37.677,441.0,-1025.0,432.0,108.0,290.0,353.0,140,109,83,124,140,267,200,608
2025-02-19 16:39:37.694,221.0,-875.0,277.0,208.0,311.0,398.0,138,91,75,115,137,333,172,999
2025-02-19 16:39:37.714,-65.0,-628.0,-399.0,221.0,227.0,443.0,138,81,71,98,133,384,130,1010
2025-02-19 16:39:37.731,140.0,-409.0,-379.0,245.0,124.0,451.0,138,75,68,89,127,428,477,1010
2025-02-19 16:39:37.750,-203.0,160.0,-93.0,192.0,46.0,384.0,139,75,67,84,127,14,1018,994
2025-02-19 16:39:37.768,-224.0,362.0,129.0,125.0,-22.0,344.0,139,73,67,85,126,14,1017,838
2025-02-19 16:39:37.788,7.0,665.0,328.0,50.0,-40.0,314.0,138,72,65,78,122,13,509,823
2025-02-19 16:39:37.809,-290.0,902.0,285.0,27.0,-59.0,244.0,139,73,67,80,124,13,101,999
2025-02-19 16:39:37.828,-500.0,1089.0,483.0,31.0,-75.0,138.0,137,72,65,84,126,11,11,1010
2025-02-19 16:39:37.845,-682.0,1700.0,561.0,138.0,-63.0,-2.0,137,74,68,83,131,13,11,1010
2025-02-19 16:39:37.866,-795.0,2758.0,351.0,189.0,-50.0,-154.0,137,74,68,81,135,12,148,1010
2025-02-19 16:39:37.886,-811.0,3584.0,170.0,153.0,-60.0,-380.0,135,72,66,82,139,11,599,1009
2025-02-19 16:39:37.902,-633.0,3262.0,106.0,130.0,-97.0,-546.0,135,72,67,83,142,12,732,896
2025-02-19 16:39:37.923,113.0,1800.0,468.0,180.0,-184.0,-679.0,135,71,67,84,143,11,614,591
2025-02-19 16:39:37.938,1115.0,547.0,1227.0,231.0,-315.0,-697.0,138,73,67,94,146,12,11,340
2025-02-19 16:39:37.960,2131.0,-1400.0,2104.0,202.0,-347.0,-555.0,142,73,65,99,146,10,11,59
2025-02-19 16:39:37.979,3096.0,-2536.0,3248.0,91.0,-128.0,-207.0,144,74,65,101,147,11,312,11
2025-02-19 16:39:37.997,2453.0,-2325.0,3123.0,-136.0,42.0,-45.0,145,76,66,103,147,10,400,10
2025-02-19 16:39:38.017,1343.0,-2375.0,1671.0,-227.0,70.0,78.0,143,73,62,103,146,9,186,24
2025-02-19 16:39:38.038,519.0,-2006.0,813.0,-162.0,57.0,187.0,143,74,64,102,148,11,173,128
2025-02-19 16:39:38.055,-11.0,-772.0,876.0,-96.0,24.0,230.0,141,73,64,100,146,9,320,10
2025-02-19 16:39:38.075,-27.0,-166.0,1142.0,-60.0,39.0,256.0,142,74,69,102,147,10,1017,134
2025-02-19 16:39:38.096,-296.0,240.0,1053.0,-107.0,59.0,273.0,142,77,66,100,146,10,542,725
2025-02-19 16:39:38.112,-523.0,428.0,763.0,-118.0,46.0,198.0,142,74,66,97,145,10,10,1009
2025-02-19 16:39:38.132,-475.0,404.0,709.0,-65.0,35.0,165.0,143,75,67,98,146,10,10,1010
2025-02-19 16:39:38.149,-316.0,147.0,740.0,-22.0,49.0,183.0,142,74,67,99,145,9,9,1010
2025-02-19 16:39:38.169,-374.0,253.0,763.0,24.0,59.0,205.0,143,80,68,100,145,10,9,1009
2025-02-19 16:39:38.190,-373.0,343.0,712.0,38.0,47.0,162.0,143,75,68,99,145,9,9,1010
2025-02-19 16:39:38.206,-399.0,369.0,824.0,50.0,56.0,127.0,144,76,69,98,145,10,327,1009
2025-02-19 16:39:38.226,-376.0,311.0,810.0,33.0,58.0,122.0,143,75,69,98,144,9,1006,956
2025-02-19 16:39:38.247,-440.0,281.0,768.0,15.0,46.0,144.0,143,75,68,98,142,8,1017,808
2025-02-19 16:39:38.264,-578.0,615.0,731.0,-19.0,21.0,117.0,143,75,69,98,143,9,1017,507
2025-02-19 16:39:38.283,-834.0,1416.0,723.0,-16.0,14.0,-12.0,142,75,69,97,142,8,1006,348
2025-02-19 16:39:38.300,-927.0,2070.0,458.0,18.0,50.0,-184.0,146,76,70,99,144,9,1018,321
2025-02-19 16:39:38.320,-1022.0,2556.0,33.0,61.0,62.0,-344.0,143,76,70,98,143,8,1017,297
2025-02-19 16:39:38.341,-1195.0,2940.0,-416.0,35.0,0.0,-538.0,142,76,69,98,143,8,1018,251
2025-02-19 16:39:38.361,-621.0,1919.0,-375.0,-72.0,-214.0,-663.0,143,74,67,97,141,9,1017,120
2025-02-19 16:39:38.379,1692.0,-1473.0,628.0,-53.0,-385.0,-611.0,142,72,63,98,140,8,1018,121
2025-02-19 16:39:38.399,3288.0,-3107.0,2291.0,75.0,-303.0,-318.0,144,75,64,103,142,9,1017,54
2025-02-19 16:39:38.415,3258.0,-2755.0,2809.0,-47.0,-28.0,-42.0,145,75,65,103,143,8,1017,8
2025-02-19 16:39:38.435,1695.0,-2857.0,1776.0,-180.0,54.0,9.0,146,77,67,104,144,10,1017,10
2025-02-19 16:39:38.455,815.0,-2736.0,831.0,-108.0,60.0,116.0,145,75,66,101,142,9,1019,117
2025-02-19 16:39:38.470,93.0,-1553.0,637.0,-42.0,14.0,180.0,145,76,67,101,142,10,1018,469
2025-02-19 16:39:38.487,-135.0,-747.0,1017.0,-39.0,-16.0,194.0,146,77,67,101,142,10,1017,880
2025-02-19 16:39:38.513,-188.0,-366.0,1244.0,-102.0,4.0,222.0,146,76,67,102,141,9,1017,928
2025-02-19 16:39:38.530,-192.0,-395.0,1243.0,-124.0,50.0,231.0,147,77,69,105,140,10,818,905
2025-02-19 16:39:38.549,-258.0,-324.0,1073.0,-93.0,72.0,219.0,146,76,69,106,137,9,120,958
2025-02-19 16:39:38.567,-199.0,-230.0,972.0,-88.0,73.0,213.0,147,78,71,110,129,10,9,990
2025-02-19 16:39:38.587,-5.0,-182.0,997.0,-99.0,100.0,213.0,146,79,72,114,120,8,7,881
2025-02-19 16:39:38.603,-150.0,-261.0,848.0,-97.0,144.0,229.0,147,85,76,116,113,10,9,894
2025-02-19 16:39:38.623,-358.0,-126.0,653.0,-58.0,170.0,235.0,147,90,80,117,102,8,8,934
2025-02-19 16:39:38.645,-344.0,-61.0,451.0,-4.0,182.0,206.0,146,95,82,116,94,8,8,968
2025-02-19 16:39:38.665,-459.0,9.0,383.0,42.0,203.0,194.0,145,103,87,109,90,8,8,1009
2025-02-19 16:39:38.682,-446.0,236.0,133.0,47.0,209.0,152.0,144,108,89,108,89,8,138,823
2025-02-19 16:39:38.700,-606.0,560.0,-13.0,25.0,197.0,116.0,146,115,96,109,93,11,227,629
2025-02-19 16:39:38.722,-1030.0,951.0,-765.0,-57.0,101.0,46.0,144,117,97,103,93,10,210,431
2025-02-19 16:39:38.739,-1334.0,1453.0,-1226.0,-64.0,-91.0,-170.0,144,121,101,96,96,11,328,10
2025-02-19 16:39:38.759,-1161.0,1869.0,-1293.0,-16.0,-255.0,-406.0,145,124,103,91,95,12,704,11
2025-02-19 16:39:38.779,-426.0,1895.0,-1332.0,-95.0,-443.0,-612.0,145,127,104,88,91,11,1018,10
2025-02-19 16:39:38.796,-286.0,969.0,-942.0,-170.0,-699.0,-639.0,145,129,106,88,92,11,1018,11
2025-02-19 16:39:38.815,1785.0,69.0,-281.0,-315.0,-899.0,-591.0,144,131,104,87,96,11,1018,131
2025-02-19 16:39:38.837,3018.0,-1794.0,44.0,-344.0,-884.0,-441.0,144,133,105,87,108,11,1019,454
2025-02-19 16:39:38.854,3984.0,-3356.0,887.0,-383.0,-446.0,-176.0,142,134,104,93,117,10,1019,49
2025-02-19 16:39:38.874,3819.0,-4554.0,384.0,-101.0,76.0,21.0,141,135,104,94,123,41,1017,10
2025-02-19 16:39:38.891,2065.0,-3471.0,369.0,280.0,277.0,70.0,141,135,102,91,127,92,1018,63
2025-02-19 16:39:38.911,830.0,-1675.0,527.0,228.0,260.0,147.0,140,134,103,86,130,82,1017,193
2025-02-19 16:39:38.931,383.0,-1227.0,645.0,48.0,166.0,192.0,141,135,105,89,131,216,1017,124
2025-02-19 16:39:38.948,430.0,-1300.0,426.0,18.0,129.0,231.0,140,135,104,89,131,805,1007,62
2025-02-19 16:39:38.968,243.0,-846.0,344.0,31.0,160.0,241.0,142,137,106,86,128,1018,840,244
2025-02-19 16:39:38.988,246.0,-584.0,446.0,70.0,199.0,223.0,142,136,105,87,125,1018,668,556
2025-02-19 16:39:39.005,241.0,-527.0,302.0,125.0,252.0,209.0,143,136,106,89,125,1017,18,987
2025-02-19 16:39:39.026,25.0,-317.0,261.0,158.0,261.0,220.0,145,139,108,92,125,1018,13,1010
2025-02-19 16:39:39.045,-79.0,-31.0,208.0,145.0,238.0,204.0,143,136,106,89,122,954,215,916
2025-02-19 16:39:39.063,-221.0,70.0,325.0,100.0,227.0,171.0,143,137,107,90,118,122,284,766
2025-02-19 16:39:39.083,-332.0,-110.0,273.0,98.0,222.0,156.0,142,134,106,89,116,10,10,929
2025-02-19 16:39:39.100,-551.0,99.0,156.0,96.0,185.0,138.0,143,136,106,89,114,10,10,1010
2025-02-19 16:39:39.119,-776.0,332.0,22.0,35.0,109.0,108.0,143,136,106,88,111,9,10,1010
2025-02-19 16:39:39.140,-930.0,653.0,-189.0,-3.0,8.0,37.0,143,135,106,84,109,10,9,1010
2025-02-19 16:39:39.156,-1173.0,1139.0,-554.0,56.0,-89.0,-128.0,144,135,106,83,114,10,10,1009
2025-02-19 16:39:39.177,-1507.0,2240.0,-910.0,13.0,-244.0,-336.0,143,135,102,80,113,10,9,899
2025-02-19 16:39:39.197,-1427.0,2319.0,-1341.0,-129.0,-529.0,-481.0,143,135,107,80,115,10,215,452
2025-02-19 16:39:39.214,-449.0,1894.0,-975.0,-386.0,-753.0,-531.0,141,135,107,79,118,9,570,9
2025-02-19 16:39:39.234,2413.0,-999.0,-904.0,-508.0,-791.0,-498.0,142,136,107,87,125,9,604,9
2025-02-19 16:39:39.252,4090.0,-2558.0,-21.0,-396.0,-447.0,-327.0,141,136,106,98,131,9,181,9
2025-02-19 16:39:39.271,4100.0,-3830.0,-49.0,-160.0,-27.0,-144.0,141,139,105,98,133,10,396,9
2025-02-19 16:39:39.289,2694.0,-3794.0,124.0,81.0,173.0,-68.0,142,135,106,97,135,12,887,11
2025-02-19 16:39:39.312,1407.0,-2657.0,146.0,62.0,150.0,62.0,142,134,104,95,133,10,1019,147
2025-02-19 16:39:39.328,858.0,-2105.0,447.0,10.0,66.0,132.0,143,135,105,95,132,10,1017,243
2025-02-19 16:39:39.348,813.0,-2043.0,420.0,50.0,89.0,158.0,143,134,104,95,132,9,953,447
2025-02-19 16:39:39.366,814.0,-1668.0,477.0,108.0,174.0,218.0,144,134,105,94,133,111,895,947
2025-02-19 16:39:39.385,621.0,-1256.0,397.0,193.0,230.0,256.0,144,134,104,95,133,67,829,1010
2025-02-19 16:39:39.406,351.0,-673.0,395.0,203.0,256.0,267.0,143,132,104,94,132,9,390,1010
2025-02-19 16:39:39.423,391.0,-575.0,383.0,180.0,280.0,277.0,145,132,104,94,130,9,89,998
2025-02-19 16:39:39.443,403.0,-688.0,185.0,205.0,291.0,298.0,145,130,102,95,127,8,901,1009
2025-02-19 16:39:39.463,188.0,-411.0,50.0,242.0,309.0,314.0,146,129,101,96,127,10,1018,1009
2025-02-19 16:39:39.480,145.0,-353.0,43.0,225.0,318.0,335.0,145,123,93,95,121,9,1018,1010
2025-02-19 16:39:39.500,117.0,-357.0,-75.0,213.0,308.0,384.0,146,111,82,94,114,10,1017,1007
