timestamp,ax,ay,az,gx,gy,gz,flex1,flex2,flex3,flex4,flex5,emg1,emg2,emg3
2025-02-26 14:06:11.257,-322.0,-950.0,53.0,-1.0,0.0,3.0,153,123,121,131,114
2025-02-26 14:06:11.267,-329.0,-959.0,51.0,-1.0,-1.0,4.0,153,126,124,133,118
2025-02-26 14:06:11.269,-319.0,-967.0,48.0,-1.0,-1.0,5.0,151,123,121,134,115
2025-02-26 14:06:11.272,-320.0,-966.0,59.0,-2.0,-2.0,6.0,154,127,124,133,116
2025-02-26 14:06:11.274,-312.0,-968.0,56.0,-2.0,-3.0,8.0,151,126,126,134,120
2025-02-26 14:06:11.277,-318.0,-972.0,63.0,-1.0,-3.0,9.0,151,124,126,132,116
2025-02-26 14:06:11.279,-319.0,-963.0,66.0,-2.0,-3.0,10.0,152,125,122,130,115
2025-02-26 14:06:11.281,-318.0,-968.0,70.0,-1.0,-2.0,10.0,153,127,124,134,121
2025-02-26 14:06:11.281,-319.0,-973.0,73.0,-1.0,-2.0,10.0,151,124,123,132,117
2025-02-26 14:06:11.284,-321.0,-971.0,75.0,-1.0,-2.0,10.0,151,124,122,131,116
2025-02-26 14:06:11.288,-323.0,-968.0,79.0,-1.0,-1.0,10.0,155,126,123,134,119
2025-02-26 14:06:11.289,-329.0,-960.0,73.0,0.0,0.0,8.0,151,126,123,135,117
2025-02-26 14:06:11.292,-332.0,-963.0,55.0,1.0,-2.0,7.0,152,125,124,132,118
2025-02-26 14:06:11.292,-322.0,-953.0,102.0,-3.0,1.0,6.0,152,125,124,133,119
2025-02-26 14:06:11.298,-334.0,-948.0,66.0,-1.0,1.0,4.0,149,124,123,131,116
2025-02-26 14:06:11.301,-326.0,-927.0,68.0,-1.0,0.0,3.0,154,125,127,134,119
2025-02-26 14:06:11.304,-330.0,-932.0,75.0,-1.0,2.0,2.0,151,125,124,133,117
2025-02-26 14:06:11.304,-330.0,-937.0,77.0,-2.0,2.0,0.0,148,123,123,131,116
2025-02-26 14:06:11.304,-331.0,-938.0,78.0,-2.0,2.0,0.0,153,124,123,134,118
2025-02-26 14:06:11.310,-342.0,-937.0,70.0,-1.0,2.0,0.0,153,126,124,134,119
2025-02-26 14:06:11.310,-347.0,-939.0,70.0,-2.0,2.0,-1.0,152,124,122,133,116
2025-02-26 14:06:11.310,-351.0,-945.0,73.0,-2.0,2.0,-1.0,152,127,125,133,118
2025-02-26 14:06:11.317,-352.0,-940.0,70.0,-2.0,1.0,-1.0,149,124,122,132,118
2025-02-26 14:06:11.319,-357.0,-936.0,69.0,-2.0,1.0,-1.0,152,126,123,133,118
2025-02-26 14:06:11.322,-344.0,-941.0,73.0,-2.0,0.0,-2.0,150,127,126,134,119
2025-02-26 14:06:11.322,-337.0,-930.0,71.0,-2.0,0.0,-2.0,151,124,121,132,116
2025-02-26 14:06:11.322,-343.0,-936.0,75.0,-3.0,0.0,-3.0,151,124,122,133,116
2025-02-26 14:06:11.322,-337.0,-926.0,71.0,-3.0,-1.0,-3.0,154,127,125,136,120
2025-02-26 14:06:11.332,-335.0,-934.0,67.0,-3.0,-1.0,-4.0,152,126,125,134,117
2025-02-26 14:06:11.334,-330.0,-933.0,71.0,-3.0,-1.0,-4.0,150,124,123,133,116
2025-02-26 14:06:11.334,-328.0,-936.0,73.0,-3.0,-1.0,-4.0,153,125,124,133,118
2025-02-26 14:06:11.338,-326.0,-944.0,74.0,-3.0,-1.0,-4.0,154,126,125,135,119
2025-02-26 14:06:11.340,-327.0,-952.0,76.0,-3.0,-1.0,-4.0,152,125,123,132,112
2025-02-26 14:06:11.340,-319.0,-947.0,72.0,-3.0,-1.0,-3.0,150,125,124,132,117
2025-02-26 14:06:11.345,-321.0,-953.0,76.0,-3.0,-1.0,-2.0,153,126,124,133,118
2025-02-26 14:06:11.346,-326.0,-959.0,73.0,-3.0,-1.0,-2.0,152,124,121,132,118
2025-02-26 14:06:11.350,-322.0,-959.0,73.0,-3.0,-1.0,-1.0,153,126,124,136,118
2025-02-26 14:06:11.351,-327.0,-960.0,69.0,-3.0,-1.0,-1.0,152,125,125,134,117
2025-02-26 14:06:11.351,-326.0,-954.0,60.0,-2.0,-1.0,0.0,148,125,124,132,117
2025-02-26 14:06:11.356,-328.0,-955.0,66.0,-2.0,-2.0,0.0,152,125,126,134,118
2025-02-26 14:06:11.358,-330.0,-952.0,71.0,-1.0,-2.0,0.0,154,126,123,131,117
2025-02-26 14:06:11.360,-326.0,-946.0,70.0,-1.0,-2.0,0.0,152,124,122,132,116
2025-02-26 14:06:11.362,-330.0,-946.0,73.0,0.0,-2.0,0.0,151,126,125,134,118
2025-02-26 14:06:11.364,-328.0,-946.0,70.0,-1.0,-2.0,0.0,154,128,127,136,120
2025-02-26 14:06:11.368,-328.0,-948.0,72.0,-1.0,-2.0,0.0,151,124,122,133,117
2025-02-26 14:06:11.370,-323.0,-947.0,71.0,0.0,-2.0,0.0,149,123,122,133,117
2025-02-26 14:06:11.370,-330.0,-943.0,69.0,2.0,-2.0,0.0,150,126,123,134,117
2025-02-26 14:06:11.375,-326.0,-954.0,71.0,2.0,-2.0,0.0,152,125,125,135,120
2025-02-26 14:06:11.376,-327.0,-947.0,72.0,2.0,-1.0,1.0,151,127,123,134,118
2025-02-26 14:06:11.379,-331.0,-948.0,77.0,3.0,-1.0,1.0,153,126,124,134,119
2025-02-26 14:06:11.382,-331.0,-944.0,65.0,4.0,-1.0,2.0,152,126,124,133,118
2025-02-26 14:06:11.382,-331.0,-951.0,71.0,3.0,0.0,1.0,149,126,124,132,119
2025-02-26 14:06:11.388,-331.0,-945.0,68.0,3.0,-1.0,2.0,153,127,125,136,118
2025-02-26 14:06:11.388,-339.0,-939.0,64.0,4.0,-1.0,2.0,153,125,122,133,118
2025-02-26 14:06:11.388,-343.0,-944.0,58.0,5.0,-1.0,2.0,149,125,123,131,115
2025-02-26 14:06:11.395,-345.0,-939.0,61.0,6.0,-1.0,2.0,152,127,126,135,119
2025-02-26 14:06:11.399,-340.0,-948.0,73.0,6.0,-1.0,2.0,153,126,123,133,118
2025-02-26 14:06:11.400,-337.0,-945.0,75.0,7.0,-2.0,1.0,149,124,122,132,117
2025-02-26 14:06:11.400,-338.0,-944.0,90.0,6.0,-2.0,1.0,151,125,124,134,118
2025-02-26 14:06:11.400,-345.0,-943.0,84.0,6.0,-2.0,0.0,151,123,123,134,119
2025-02-26 14:06:11.400,-339.0,-943.0,70.0,6.0,-2.0,0.0,151,123,123,134,117
2025-02-26 14:06:11.400,-340.0,-944.0,69.0,5.0,-3.0,0.0,153,125,125,132,117
2025-02-26 14:06:11.416,-338.0,-951.0,73.0,4.0,-3.0,0.0,152,125,123,134,119
2025-02-26 14:06:11.416,-340.0,-955.0,77.0,3.0,-3.0,-1.0,152,124,121,133,117
2025-02-26 14:06:11.416,-329.0,-957.0,83.0,2.0,-3.0,-1.0,151,126,123,133,117
2025-02-26 14:06:11.431,-332.0,-964.0,78.0,1.0,-3.0,-1.0,153,124,124,134,118
2025-02-26 14:06:11.435,-334.0,-963.0,69.0,1.0,-2.0,-1.0,150,126,123,133,117
2025-02-26 14:06:11.441,-332.0,-975.0,66.0,1.0,-2.0,-1.0,151,125,125,134,119
2025-02-26 14:06:11.446,-334.0,-981.0,77.0,-1.0,-1.0,-1.0,153,125,124,133,119
2025-02-26 14:06:11.451,-328.0,-983.0,76.0,-1.0,-1.0,-1.0,151,125,124,133,119
2025-02-26 14:06:11.459,-325.0,-974.0,82.0,-1.0,0.0,-1.0,151,124,122,131,116
2025-02-26 14:06:11.463,-324.0,-974.0,83.0,0.0,0.0,-1.0,150,125,123,133,117
2025-02-26 14:06:11.467,-319.0,-961.0,77.0,-1.0,1.0,-1.0,151,125,123,134,119
2025-02-26 14:06:11.471,-313.0,-956.0,72.0,0.0,1.0,0.0,150,125,124,133,117
2025-02-26 14:06:11.476,-321.0,-964.0,74.0,-1.0,1.0,0.0,150,125,123,130,115
2025-02-26 14:06:11.480,-325.0,-959.0,79.0,-2.0,1.0,0.0,152,127,126,135,120
2025-02-26 14:06:11.487,-330.0,-986.0,87.0,-3.0,0.0,1.0,153,125,125,133,119
2025-02-26 14:06:11.492,-349.0,-974.0,85.0,-4.0,0.0,0.0,149,123,123,132,118
2025-02-26 14:06:11.497,-339.0,-964.0,71.0,-5.0,-1.0,0.0,152,126,123,134,119
2025-02-26 14:06:11.498,-349.0,-972.0,62.0,-6.0,-2.0,1.0,155,125,124,134,119
2025-02-26 14:06:11.498,-351.0,-973.0,65.0,-7.0,-2.0,1.0,149,123,123,134,118
2025-02-26 14:06:11.510,-343.0,-972.0,54.0,-7.0,-3.0,1.0,151,126,124,132,118
2025-02-26 14:06:11.516,-349.0,-978.0,58.0,-7.0,-3.0,0.0,152,125,124,133,120
2025-02-26 14:06:11.520,-345.0,-972.0,60.0,-7.0,-3.0,0.0,151,125,124,136,119
2025-02-26 14:06:11.528,-346.0,-971.0,71.0,-6.0,-3.0,0.0,150,123,121,132,117
2025-02-26 14:06:11.533,-347.0,-966.0,73.0,-9.0,-3.0,0.0,152,125,124,135,119
2025-02-26 14:06:11.533,-349.0,-962.0,77.0,-6.0,-1.0,1.0,149,124,124,134,117
2025-02-26 14:06:11.533,-345.0,-952.0,69.0,-9.0,0.0,1.0,151,125,123,133,117
2025-02-26 14:06:11.546,-334.0,-947.0,79.0,-10.0,-1.0,1.0,151,126,124,133,119
2025-02-26 14:06:11.546,-342.0,-949.0,76.0,-12.0,-3.0,0.0,150,126,125,133,118
2025-02-26 14:06:11.557,-331.0,-939.0,89.0,-13.0,-3.0,0.0,152,123,123,132,117
2025-02-26 14:06:11.561,-330.0,-937.0,76.0,-12.0,-3.0,0.0,151,126,123,132,118
2025-02-26 14:06:11.564,-322.0,-939.0,83.0,-10.0,-1.0,0.0,151,124,124,135,119
2025-02-26 14:06:11.573,-320.0,-942.0,92.0,-10.0,2.0,0.0,153,124,123,132,118
2025-02-26 14:06:11.577,-315.0,-942.0,83.0,-9.0,3.0,0.0,150,124,121,130,117
2025-02-26 14:06:11.583,-319.0,-947.0,82.0,-10.0,4.0,0.0,152,126,124,134,118
2025-02-26 14:06:11.587,-321.0,-949.0,78.0,-10.0,5.0,0.0,152,126,125,134,118
2025-02-26 14:06:11.595,-325.0,-954.0,70.0,-10.0,7.0,0.0,149,124,122,130,117
2025-02-26 14:06:11.598,-331.0,-953.0,65.0,-8.0,8.0,0.0,151,123,122,132,116
2025-02-26 14:06:11.601,-340.0,-951.0,63.0,-9.0,8.0,0.0,153,128,125,133,119
2025-02-26 14:06:11.606,-355.0,-948.0,75.0,-6.0,10.0,1.0,151,126,123,134,118
2025-02-26 14:06:11.613,-357.0,-942.0,71.0,-6.0,12.0,1.0,150,123,121,132,116
2025-02-26 14:06:11.613,-353.0,-935.0,56.0,-5.0,10.0,0.0,153,126,124,133,117
2025-02-26 14:06:11.623,-357.0,-941.0,56.0,-5.0,10.0,0.0,151,128,126,135,120
2025-02-26 14:06:11.625,-363.0,-934.0,58.0,-6.0,9.0,0.0,151,124,123,132,117
2025-02-26 14:06:11.625,-363.0,-932.0,59.0,-6.0,8.0,0.0,153,125,121,130,116
2025-02-26 14:06:11.639,-357.0,-927.0,65.0,-3.0,7.0,0.0,152,125,123,133,118
2025-02-26 14:06:11.644,-354.0,-921.0,57.0,-2.0,6.0,-1.0,150,124,122,131,117
2025-02-26 14:06:11.647,-356.0,-923.0,49.0,3.0,4.0,-2.0,149,124,122,132,117
2025-02-26 14:06:11.652,-344.0,-921.0,56.0,4.0,3.0,-2.0,153,126,122,133,117
2025-02-26 14:06:11.657,-340.0,-924.0,51.0,4.0,2.0,-3.0,149,125,123,132,118
2025-02-26 14:06:11.664,-334.0,-932.0,55.0,5.0,2.0,-2.0,151,126,123,132,117
2025-02-26 14:06:11.668,-336.0,-934.0,62.0,2.0,3.0,-2.0,150,127,124,135,119
2025-02-26 14:06:11.673,-328.0,-931.0,59.0,2.0,3.0,-1.0,151,125,123,133,118
2025-02-26 14:06:11.680,-328.0,-952.0,61.0,0.0,2.0,-1.0,149,123,121,132,116
2025-02-26 14:06:11.684,-323.0,-942.0,68.0,-4.0,2.0,-1.0,153,126,124,135,120
2025-02-26 14:06:11.689,-319.0,-945.0,53.0,-5.0,2.0,-1.0,152,125,124,132,117
2025-02-26 14:06:11.693,-324.0,-953.0,67.0,-5.0,3.0,-1.0,148,123,121,131,117
2025-02-26 14:06:11.700,-322.0,-958.0,80.0,-4.0,4.0,-2.0,152,125,124,132,119
2025-02-26 14:06:11.705,-318.0,-947.0,64.0,-3.0,5.0,-2.0,151,125,123,135,119
2025-02-26 14:06:11.705,-321.0,-954.0,65.0,-3.0,6.0,-2.0,150,124,122,133,117
2025-02-26 14:06:11.713,-314.0,-945.0,57.0,-2.0,6.0,-2.0,149,124,118,130,116
2025-02-26 14:06:11.718,-316.0,-947.0,51.0,-2.0,5.0,-2.0,153,125,122,132,117
2025-02-26 14:06:11.725,-327.0,-949.0,49.0,-1.0,4.0,-2.0,154,126,123,133,118
2025-02-26 14:06:11.730,-334.0,-947.0,36.0,-2.0,4.0,-2.0,147,123,121,131,118
2025-02-26 14:06:11.734,-341.0,-948.0,42.0,-3.0,2.0,-2.0,151,123,122,133,118
2025-02-26 14:06:11.736,-345.0,-957.0,43.0,-3.0,1.0,-2.0,152,127,124,134,117
2025-02-26 14:06:11.745,-351.0,-950.0,42.0,-4.0,0.0,-2.0,149,127,121,132,118
2025-02-26 14:06:11.749,-352.0,-951.0,49.0,-5.0,0.0,-2.0,148,124,121,131,116
2025-02-26 14:06:11.754,-351.0,-949.0,54.0,-6.0,0.0,-2.0,150,125,119,131,116
2025-02-26 14:06:11.759,-359.0,-957.0,42.0,-7.0,2.0,-2.0,152,125,121,131,117
2025-02-26 14:06:11.765,-352.0,-954.0,43.0,-6.0,2.0,-2.0,149,125,122,132,118
2025-02-26 14:06:11.770,-357.0,-958.0,45.0,-7.0,1.0,-2.0,150,125,121,131,118
2025-02-26 14:06:11.775,-352.0,-965.0,36.0,-6.0,-1.0,-1.0,152,127,120,132,119
2025-02-26 14:06:11.779,-357.0,-965.0,41.0,-7.0,-1.0,0.0,150,124,120,129,117
2025-02-26 14:06:11.786,-351.0,-958.0,46.0,-8.0,-2.0,0.0,149,123,118,131,117
2025-02-26 14:06:11.791,-353.0,-954.0,56.0,-6.0,-1.0,1.0,153,126,120,132,119
2025-02-26 14:06:11.795,-346.0,-955.0,59.0,-6.0,0.0,2.0,152,123,113,130,118
2025-02-26 14:06:11.796,-345.0,-942.0,60.0,-5.0,1.0,3.0,150,123,118,128,116
2025-02-26 14:06:11.804,-339.0,-941.0,51.0,-6.0,1.0,3.0,157,126,121,132,118
2025-02-26 14:06:11.811,-326.0,-933.0,46.0,-6.0,1.0,2.0,150,123,120,133,119
2025-02-26 14:06:11.815,-325.0,-936.0,43.0,-7.0,1.0,2.0,150,124,118,128,117
2025-02-26 14:06:11.819,-328.0,-935.0,58.0,-6.0,3.0,2.0,151,124,119,131,117
2025-02-26 14:06:11.823,-321.0,-933.0,58.0,-6.0,5.0,1.0,152,127,120,131,117
2025-02-26 14:06:11.828,-320.0,-939.0,53.0,-4.0,6.0,1.0,151,122,118,129,116
2025-02-26 14:06:11.833,-328.0,-932.0,59.0,-3.0,9.0,0.0,159,123,119,131,118
2025-02-26 14:06:11.840,-330.0,-936.0,56.0,-1.0,11.0,0.0,153,126,121,130,119
2025-02-26 14:06:11.844,-334.0,-939.0,45.0,-1.0,11.0,0.0,150,124,113,131,117
2025-02-26 14:06:11.849,-345.0,-944.0,32.0,0.0,13.0,0.0,150,121,117,129,116
2025-02-26 14:06:11.856,-354.0,-939.0,26.0,1.0,14.0,-1.0,149,126,118,130,117
2025-02-26 14:06:11.858,-350.0,-942.0,24.0,2.0,15.0,-1.0,150,124,117,130,118
2025-02-26 14:06:11.862,-351.0,-937.0,13.0,2.0,15.0,-2.0,153,124,117,132,117
2025-02-26 14:06:11.869,-356.0,-932.0,0.0,0.0,13.0,-2.0,154,124,117,132,118
2025-02-26 14:06:11.876,-369.0,-939.0,12.0,1.0,12.0,-2.0,149,123,116,129,118
2025-02-26 14:06:11.881,-388.0,-942.0,27.0,1.0,12.0,-3.0,148,121,115,129,116
2025-02-26 14:06:11.885,-367.0,-937.0,4.0,1.0,11.0,-3.0,153,123,116,130,118
2025-02-26 14:06:11.890,-373.0,-941.0,4.0,1.0,9.0,-4.0,153,125,117,131,118
2025-02-26 14:06:11.893,-373.0,-947.0,10.0,1.0,7.0,-4.0,151,122,115,129,117
2025-02-26 14:06:11.901,-361.0,-945.0,6.0,-1.0,6.0,-4.0,150,123,117,129,120
2025-02-26 14:06:11.906,-346.0,-948.0,-4.0,-2.0,5.0,-4.0,152,124,122,131,119
2025-02-26 14:06:11.910,-339.0,-958.0,16.0,-2.0,4.0,-4.0,148,122,116,130,118
2025-02-26 14:06:11.914,-340.0,-959.0,19.0,-3.0,4.0,-4.0,152,123,114,127,116
2025-02-26 14:06:11.918,-331.0,-961.0,16.0,-3.0,4.0,-4.0,151,124,116,130,118
2025-02-26 14:06:11.926,-331.0,-971.0,19.0,-4.0,4.0,-3.0,152,123,115,131,120
2025-02-26 14:06:11.931,-327.0,-965.0,23.0,-3.0,4.0,-2.0,151,123,117,131,117
2025-02-26 14:06:11.934,-335.0,-995.0,38.0,-2.0,4.0,-2.0,151,124,117,129,117
2025-02-26 14:06:11.938,-316.0,-975.0,36.0,0.0,5.0,-1.0,152,124,114,131,118
2025-02-26 14:06:11.947,-336.0,-967.0,13.0,1.0,4.0,-1.0,150,123,115,131,118
2025-02-26 14:06:11.949,-316.0,-979.0,19.0,0.0,4.0,-1.0,151,122,115,128,117
2025-02-26 14:06:11.955,-327.0,-964.0,10.0,2.0,3.0,-1.0,151,125,117,129,118
2025-02-26 14:06:11.959,-335.0,-960.0,28.0,1.0,4.0,-1.0,151,122,114,129,117
2025-02-26 14:06:11.966,-340.0,-957.0,22.0,1.0,1.0,-1.0,150,123,114,129,117
2025-02-26 14:06:11.971,-338.0,-956.0,29.0,3.0,0.0,-1.0,152,123,117,130,118
2025-02-26 14:06:11.975,-342.0,-959.0,38.0,4.0,1.0,-1.0,149,121,116,129,117
2025-02-26 14:06:11.980,-348.0,-953.0,32.0,5.0,1.0,-1.0,150,122,115,129,118
2025-02-26 14:06:11.984,-342.0,-952.0,12.0,7.0,-2.0,-1.0,154,125,117,130,119
2025-02-26 14:06:11.991,-332.0,-956.0,42.0,7.0,-3.0,-1.0,151,123,117,130,119
2025-02-26 14:06:11.995,-339.0,-958.0,48.0,6.0,-3.0,-2.0,150,123,115,131,116
2025-02-26 14:06:12.000,-336.0,-958.0,45.0,5.0,-1.0,-2.0,153,125,118,130,118
2025-02-26 14:06:12.004,-332.0,-949.0,29.0,4.0,-3.0,-2.0,152,123,117,132,120
2025-02-26 14:06:12.008,-331.0,-937.0,45.0,2.0,-4.0,-2.0,150,122,115,129,117
2025-02-26 14:06:12.014,-324.0,-941.0,57.0,5.0,-1.0,-2.0,150,121,114,127,117
2025-02-26 14:06:12.020,-326.0,-941.0,57.0,7.0,-2.0,-2.0,153,123,120,129,121
2025-02-26 14:06:12.024,-321.0,-938.0,59.0,6.0,-3.0,-3.0,152,124,117,130,119
2025-02-26 14:06:12.026,-323.0,-941.0,76.0,8.0,-1.0,-2.0,150,122,116,127,118
2025-02-26 14:06:12.036,-326.0,-942.0,80.0,9.0,0.0,-2.0,154,125,117,129,118
2025-02-26 14:06:12.038,-326.0,-945.0,78.0,13.0,-1.0,-2.0,153,125,118,131,120
2025-02-26 14:06:12.045,-338.0,-939.0,74.0,12.0,2.0,-2.0,150,122,117,130,118
2025-02-26 14:06:12.049,-313.0,-963.0,75.0,16.0,0.0,-2.0,150,122,115,128,118
2025-02-26 14:06:12.057,-334.0,-946.0,70.0,21.0,1.0,-2.0,151,125,113,131,119
2025-02-26 14:06:12.061,-335.0,-934.0,48.0,22.0,0.0,-2.0,154,125,118,132,120
2025-02-26 14:06:12.064,-321.0,-961.0,62.0,27.0,-1.0,-1.0,152,124,117,129,119
2025-02-26 14:06:12.070,-335.0,-972.0,96.0,28.0,-2.0,-1.0,153,123,115,129,120
2025-02-26 14:06:12.077,-334.0,-969.0,107.0,27.0,-1.0,-1.0,150,124,118,131,119
2025-02-26 14:06:12.081,-334.0,-965.0,63.0,26.0,-1.0,-1.0,151,124,117,130,119
2025-02-26 14:06:12.086,-332.0,-962.0,85.0,26.0,-1.0,0.0,150,123,117,129,119
2025-02-26 14:06:12.090,-351.0,-956.0,103.0,26.0,2.0,0.0,156,125,118,131,119
2025-02-26 14:06:12.098,-344.0,-965.0,80.0,26.0,-1.0,0.0,151,124,116,131,118
2025-02-26 14:06:12.101,-341.0,-976.0,75.0,23.0,-2.0,0.0,148,123,117,130,120
2025-02-26 14:06:12.107,-332.0,-963.0,86.0,24.0,-4.0,0.0,152,124,117,131,119
2025-02-26 14:06:12.111,-336.0,-965.0,107.0,23.0,-6.0,0.0,152,126,117,130,120
2025-02-26 14:06:12.118,-336.0,-948.0,84.0,25.0,-4.0,0.0,151,122,116,130,118
2025-02-26 14:06:12.122,-339.0,-946.0,106.0,25.0,-2.0,0.0,151,123,117,129,119
2025-02-26 14:06:12.126,-323.0,-957.0,104.0,22.0,-1.0,-1.0,152,123,118,131,119
2025-02-26 14:06:12.131,-337.0,-952.0,103.0,13.0,1.0,-1.0,150,126,116,128,119
2025-02-26 14:06:12.137,-336.0,-947.0,96.0,9.0,2.0,-1.0,150,123,116,128,118
2025-02-26 14:06:12.143,-323.0,-957.0,101.0,2.0,3.0,-1.0,151,122,116,129,118
2025-02-26 14:06:12.148,-328.0,-950.0,92.0,-1.0,2.0,-1.0,154,126,118,130,120
2025-02-26 14:06:12.149,-339.0,-967.0,104.0,-3.0,1.0,0.0,152,124,116,131,119
2025-02-26 14:06:12.159,-333.0,-951.0,84.0,-5.0,0.0,0.0,149,120,115,128,116
2025-02-26 14:06:12.163,-329.0,-957.0,94.0,-6.0,2.0,1.0,153,123,122,131,121
2025-02-26 14:06:12.168,-337.0,-957.0,96.0,-6.0,1.0,1.0,151,124,118,131,120
2025-02-26 14:06:12.172,-334.0,-959.0,106.0,-6.0,2.0,2.0,152,122,115,126,117
2025-02-26 14:06:12.176,-332.0,-952.0,86.0,-6.0,3.0,2.0,153,125,117,131,119
2025-02-26 14:06:12.184,-336.0,-953.0,71.0,-6.0,2.0,2.0,152,119,119,132,119
2025-02-26 14:06:12.188,-335.0,-959.0,99.0,-7.0,2.0,2.0,149,122,117,129,119
2025-02-26 14:06:12.192,-337.0,-947.0,90.0,-5.0,1.0,2.0,154,124,118,129,119
2025-02-26 14:06:12.197,-334.0,-938.0,100.0,-5.0,1.0,1.0,152,124,117,131,120
2025-02-26 14:06:12.201,-335.0,-932.0,78.0,-6.0,0.0,0.0,150,123,117,129,118
2025-02-26 14:06:12.208,-339.0,-932.0,110.0,-1.0,2.0,1.0,151,122,116,127,118
2025-02-26 14:06:12.213,-344.0,-929.0,106.0,-2.0,3.0,1.0,146,125,116,130,119
2025-02-26 14:06:12.217,-341.0,-923.0,99.0,0.0,3.0,1.0,150,128,118,130,121
2025-02-26 14:06:12.221,-343.0,-928.0,92.0,3.0,3.0,1.0,150,123,117,129,119
2025-02-26 14:06:12.229,-354.0,-929.0,86.0,3.0,2.0,1.0,151,125,117,130,119
2025-02-26 14:06:12.233,-340.0,-927.0,89.0,3.0,2.0,0.0,152,123,117,130,118
2025-02-26 14:06:12.237,-342.0,-935.0,91.0,6.0,2.0,0.0,150,122,117,130,119
2025-02-26 14:06:12.241,-346.0,-939.0,100.0,8.0,4.0,0.0,151,125,118,131,120
2025-02-26 14:06:12.245,-351.0,-925.0,57.0,7.0,2.0,-1.0,152,124,117,132,119
2025-02-26 14:06:12.254,-331.0,-939.0,105.0,12.0,2.0,-1.0,149,123,117,129,118
2025-02-26 14:06:12.258,-365.0,-945.0,104.0,11.0,3.0,-1.0,152,123,118,130,119
2025-02-26 14:06:12.262,-347.0,-927.0,73.0,9.0,3.0,-1.0,152,123,118,130,119
2025-02-26 14:06:12.266,-341.0,-935.0,90.0,12.0,4.0,-1.0,151,123,116,129,118
2025-02-26 14:06:12.273,-342.0,-935.0,98.0,12.0,5.0,-1.0,151,124,119,130,118
2025-02-26 14:06:12.278,-349.0,-933.0,84.0,11.0,5.0,-1.0,152,123,117,131,120
2025-02-26 14:06:12.282,-345.0,-934.0,70.0,11.0,4.0,-1.0,150,124,118,129,119
2025-02-26 14:06:12.287,-349.0,-939.0,90.0,9.0,3.0,-1.0,151,123,116,129,118
2025-02-26 14:06:12.291,-359.0,-936.0,85.0,5.0,2.0,-1.0,152,125,118,130,119
2025-02-26 14:06:12.298,-335.0,-928.0,84.0,6.0,2.0,-1.0,153,124,117,130,118
2025-02-26 14:06:12.303,-352.0,-942.0,86.0,5.0,2.0,-1.0,151,124,119,130,118
2025-02-26 14:06:12.307,-362.0,-935.0,65.0,4.0,1.0,0.0,149,123,119,130,120
2025-02-26 14:06:12.312,-355.0,-936.0,89.0,4.0,1.0,0.0,153,124,118,131,119
2025-02-26 14:06:12.315,-350.0,-934.0,74.0,7.0,0.0,-1.0,152,122,117,130,118
2025-02-26 14:06:12.322,-356.0,-941.0,80.0,9.0,-2.0,0.0,151,118,118,132,117
2025-02-26 14:06:12.325,-350.0,-941.0,81.0,11.0,-3.0,0.0,154,125,118,130,115
2025-02-26 14:06:12.331,-358.0,-952.0,82.0,14.0,-3.0,0.0,161,122,116,133,117
2025-02-26 14:06:12.336,-360.0,-954.0,85.0,15.0,-4.0,0.0,152,124,117,131,120
2025-02-26 14:06:12.343,-345.0,-960.0,86.0,16.0,-5.0,0.0,158,123,118,127,120
2025-02-26 14:06:12.348,-348.0,-958.0,79.0,16.0,-5.0,0.0,151,122,117,130,119
2025-02-26 14:06:12.352,-341.0,-960.0,-55.0,20.0,-12.0,1.0,149,121,115,120,117
2025-02-26 14:06:12.357,-346.0,-935.0,102.0,17.0,-6.0,-1.0,152,122,116,130,120
2025-02-26 14:06:12.364,-345.0,-963.0,146.0,15.0,-2.0,-1.0,148,121,119,131,119
2025-02-26 14:06:12.368,-336.0,-969.0,90.0,9.0,-2.0,-1.0,151,122,116,130,118
2025-02-26 14:06:12.372,-334.0,-953.0,93.0,12.0,-4.0,-1.0,150,118,116,129,118
2025-02-26 14:06:12.377,-329.0,-956.0,107.0,9.0,-1.0,-1.0,152,123,117,130,118
2025-02-26 14:06:12.384,-317.0,-955.0,99.0,8.0,0.0,-1.0,152,122,117,129,119
2025-02-26 14:06:12.389,-320.0,-963.0,94.0,7.0,0.0,-1.0,150,120,114,127,116
2025-02-26 14:06:12.393,-319.0,-962.0,101.0,7.0,0.0,0.0,151,122,116,128,116
2025-02-26 14:06:12.397,-333.0,-961.0,107.0,4.0,0.0,0.0,149,120,115,129,115
2025-02-26 14:06:12.404,-330.0,-962.0,114.0,2.0,0.0,0.0,150,120,114,128,116
2025-02-26 14:06:12.409,-342.0,-959.0,93.0,-2.0,0.0,0.0,151,122,115,128,117
2025-02-26 14:06:12.413,-342.0,-957.0,88.0,-5.0,0.0,0.0,150,120,117,130,120
2025-02-26 14:06:12.417,-342.0,-956.0,104.0,-4.0,1.0,1.0,148,119,114,126,116
2025-02-26 14:06:12.422,-342.0,-949.0,91.0,-5.0,1.0,0.0,151,118,115,128,116
2025-02-26 14:06:12.429,-345.0,-949.0,100.0,-4.0,1.0,1.0,150,120,116,129,118
2025-02-26 14:06:12.434,-349.0,-954.0,83.0,-3.0,-1.0,1.0,146,120,115,126,116
2025-02-26 14:06:12.439,-345.0,-952.0,89.0,-1.0,-2.0,0.0,150,119,114,127,115
2025-02-26 14:06:12.439,-353.0,-943.0,103.0,1.0,-2.0,0.0,150,122,116,131,118
2025-02-26 14:06:12.450,-350.0,-949.0,103.0,3.0,-2.0,0.0,149,119,114,128,116
2025-02-26 14:06:12.455,-353.0,-949.0,103.0,4.0,-2.0,0.0,148,119,113,127,114
2025-02-26 14:06:12.459,-344.0,-950.0,107.0,5.0,-1.0,0.0,149,122,118,127,117
2025-02-26 14:06:12.462,-345.0,-952.0,106.0,4.0,-1.0,0.0,150,120,117,131,116
2025-02-26 14:06:12.467,-344.0,-957.0,83.0,4.0,-1.0,0.0,149,119,113,128,116
2025-02-26 14:06:12.474,-342.0,-941.0,112.0,3.0,0.0,0.0,147,117,116,126,114
2025-02-26 14:06:12.479,-358.0,-958.0,120.0,3.0,2.0,0.0,151,117,117,128,115
2025-02-26 14:06:12.483,-347.0,-953.0,123.0,3.0,3.0,1.0,151,119,114,127,116
2025-02-26 14:06:12.488,-346.0,-947.0,121.0,1.0,3.0,1.0,148,118,114,127,114
2025-02-26 14:06:12.493,-350.0,-951.0,112.0,0.0,4.0,1.0,154,122,118,130,118
2025-02-26 14:06:12.499,-349.0,-952.0,111.0,-1.0,4.0,2.0,155,123,122,135,122
2025-02-26 14:06:12.503,-343.0,-948.0,114.0,-4.0,4.0,2.0,154,122,119,130,116
2025-02-26 14:06:12.505,-341.0,-950.0,95.0,-5.0,4.0,3.0,153,123,120,131,119
2025-02-26 14:06:12.512,-344.0,-940.0,104.0,-8.0,4.0,3.0,153,124,119,130,116
2025-02-26 14:06:12.517,-340.0,-937.0,113.0,-6.0,5.0,3.0,153,121,119,131,117
2025-02-26 14:06:12.524,-340.0,-937.0,110.0,-6.0,6.0,3.0,150,120,117,129,115
2025-02-26 14:06:12.528,-347.0,-929.0,113.0,-4.0,6.0,3.0,151,121,119,131,115
2025-02-26 14:06:12.532,-352.0,-939.0,117.0,-1.0,5.0,3.0,152,121,117,129,115
2025-02-26 14:06:12.540,-355.0,-936.0,119.0,0.0,5.0,3.0,153,122,118,130,116
2025-02-26 14:06:12.544,-343.0,-930.0,99.0,1.0,4.0,3.0,155,124,119,131,114
2025-02-26 14:06:12.547,-358.0,-934.0,84.0,2.0,3.0,4.0,154,121,118,127,114
2025-02-26 14:06:12.553,-356.0,-919.0,113.0,-1.0,3.0,4.0,151,120,116,127,110
2025-02-26 14:06:12.557,-340.0,-925.0,104.0,0.0,2.0,3.0,155,125,119,130,114
2025-02-26 14:06:12.565,-357.0,-939.0,104.0,1.0,2.0,3.0,154,122,117,128,111
2025-02-26 14:06:12.565,-342.0,-929.0,106.0,-1.0,1.0,2.0,149,120,116,126,110
2025-02-26 14:06:12.573,-340.0,-932.0,113.0,0.0,2.0,2.0,156,122,119,129,111
2025-02-26 14:06:12.578,-342.0,-932.0,111.0,-1.0,2.0,1.0,156,124,122,131,112
2025-02-26 14:06:12.586,-339.0,-927.0,106.0,-2.0,2.0,1.0,152,121,117,127,109
2025-02-26 14:06:12.590,-332.0,-927.0,107.0,-4.0,1.0,1.0,151,121,117,126,107
2025-02-26 14:06:12.594,-339.0,-937.0,124.0,-8.0,3.0,0.0,152,123,119,127,107
2025-02-26 14:06:12.598,-344.0,-937.0,105.0,-10.0,2.0,0.0,154,122,120,129,109
2025-02-26 14:06:12.602,-339.0,-934.0,102.0,-15.0,1.0,0.0,152,120,115,126,106
2025-02-26 14:06:12.610,-334.0,-936.0,116.0,-19.0,1.0,0.0,153,122,118,126,107
2025-02-26 14:06:12.614,-342.0,-936.0,112.0,-22.0,-1.0,0.0,153,123,117,128,108
2025-02-26 14:06:12.618,-337.0,-928.0,115.0,-22.0,-2.0,1.0,154,121,118,126,108
2025-02-26 14:06:12.626,-341.0,-939.0,125.0,-23.0,-2.0,1.0,152,120,117,124,106
2025-02-26 14:06:12.630,-343.0,-933.0,113.0,-24.0,-2.0,0.0,153,124,116,126,106
2025-02-26 14:06:12.635,-347.0,-936.0,95.0,-27.0,-2.0,1.0,156,120,117,126,108
2025-02-26 14:06:12.638,-334.0,-930.0,121.0,-29.0,-1.0,1.0,158,124,120,129,110
2025-02-26 14:06:12.647,-335.0,-942.0,101.0,-27.0,-1.0,1.0,153,123,117,124,107
2025-02-26 14:06:12.651,-326.0,-946.0,88.0,-32.0,-3.0,1.0,155,120,116,125,107
2025-02-26 14:06:12.655,-333.0,-936.0,120.0,-26.0,-3.0,1.0,155,121,116,126,108
2025-02-26 14:06:12.663,-350.0,-946.0,105.0,-26.0,-1.0,2.0,156,123,116,125,107
2025-02-26 14:06:12.667,-336.0,-938.0,78.0,-29.0,-2.0,2.0,153,122,114,123,106
2025-02-26 14:06:12.668,-332.0,-946.0,94.0,-21.0,-3.0,2.0,153,119,115,123,105
2025-02-26 14:06:12.675,-350.0,-955.0,118.0,-18.0,-3.0,2.0,156,121,115,125,107
2025-02-26 14:06:12.680,-341.0,-939.0,103.0,-16.0,-4.0,2.0,154,120,116,125,105
2025-02-26 14:06:12.687,-345.0,-956.0,109.0,-9.0,-3.0,3.0,153,118,114,122,106
2025-02-26 14:06:12.692,-348.0,-957.0,77.0,-7.0,0.0,3.0,151,117,113,122,106
2025-02-26 14:06:12.696,-340.0,-953.0,81.0,-6.0,-1.0,4.0,155,120,116,124,107
2025-02-26 14:06:12.704,-345.0,-953.0,124.0,-4.0,1.0,4.0,155,119,111,123,107
2025-02-26 14:06:12.708,-343.0,-960.0,125.0,-4.0,3.0,4.0,153,119,113,122,106
2025-02-26 14:06:12.712,-333.0,-950.0,105.0,-4.0,4.0,4.0,155,120,116,125,107
2025-02-26 14:06:12.717,-356.0,-960.0,100.0,-3.0,6.0,4.0,153,118,113,123,106
2025-02-26 14:06:12.721,-350.0,-961.0,91.0,-3.0,6.0,4.0,152,118,112,123,105
2025-02-26 14:06:12.729,-353.0,-958.0,75.0,-2.0,6.0,3.0,155,119,115,123,107
2025-02-26 14:06:12.733,-366.0,-977.0,91.0,-1.0,6.0,4.0,155,120,113,124,106
2025-02-26 14:06:12.737,-357.0,-957.0,80.0,-4.0,5.0,4.0,153,113,113,118,104
2025-02-26 14:06:12.742,-354.0,-953.0,69.0,-3.0,5.0,4.0,154,116,112,122,105
2025-02-26 14:06:12.748,-363.0,-961.0,76.0,-5.0,5.0,5.0,155,118,113,120,105
2025-02-26 14:06:12.753,-350.0,-954.0,83.0,-7.0,5.0,5.0,152,117,109,117,102
2025-02-26 14:06:12.757,-352.0,-955.0,85.0,-8.0,6.0,6.0,153,114,107,117,101
2025-02-26 14:06:12.759,-352.0,-967.0,87.0,-8.0,5.0,6.0,154,117,112,120,105
2025-02-26 14:06:12.766,-351.0,-971.0,96.0,-8.0,5.0,8.0,154,113,108,116,101
2025-02-26 14:06:12.771,-354.0,-974.0,92.0,-9.0,5.0,9.0,152,111,106,115,98
2025-02-26 14:06:12.778,-336.0,-982.0,107.0,-8.0,4.0,10.0,155,113,110,118,101
2025-02-26 14:06:12.782,-340.0,-984.0,120.0,-8.0,7.0,12.0,155,111,109,118,102
2025-02-26 14:06:12.786,-342.0,-975.0,124.0,-11.0,9.0,13.0,152,108,105,113,98
2025-02-26 14:06:12.795,-337.0,-971.0,102.0,-8.0,8.0,13.0,154,111,110,118,100
2025-02-26 14:06:12.798,-357.0,-964.0,95.0,-3.0,10.0,13.0,154,109,107,116,101
2025-02-26 14:06:12.803,-348.0,-968.0,94.0,-5.0,14.0,14.0,155,107,106,114,99
2025-02-26 14:06:12.807,-365.0,-974.0,60.0,-1.0,14.0,14.0,153,104,104,113,97
2025-02-26 14:06:12.814,-371.0,-966.0,71.0,-2.0,15.0,13.0,153,104,105,113,98
2025-02-26 14:06:12.819,-377.0,-962.0,64.0,-3.0,17.0,12.0,155,105,105,114,98
2025-02-26 14:06:12.823,-389.0,-978.0,78.0,-2.0,18.0,12.0,152,101,101,109,95
2025-02-26 14:06:12.827,-408.0,-986.0,75.0,-8.0,21.0,11.0,154,98,103,109,95
2025-02-26 14:06:12.832,-392.0,-967.0,69.0,-10.0,23.0,12.0,155,97,101,108,94
2025-02-26 14:06:12.840,-372.0,-962.0,79.0,-11.0,25.0,14.0,153,94,101,108,94
2025-02-26 14:06:12.844,-377.0,-966.0,58.0,-15.0,26.0,14.0,151,91,97,105,90
2025-02-26 14:06:12.848,-373.0,-967.0,27.0,-18.0,26.0,14.0,154,91,98,105,92
2025-02-26 14:06:12.852,-384.0,-961.0,26.0,-20.0,25.0,15.0,154,88,97,103,90
2025-02-26 14:06:12.856,-384.0,-943.0,55.0,-21.0,24.0,15.0,155,88,97,103,91
2025-02-26 14:06:12.863,-400.0,-959.0,54.0,-21.0,25.0,16.0,154,88,97,102,90
2025-02-26 14:06:12.868,-400.0,-951.0,27.0,-21.0,27.0,18.0,153,86,95,101,89
2025-02-26 14:06:12.872,-402.0,-951.0,24.0,-18.0,28.0,18.0,152,82,92,98,86
2025-02-26 14:06:12.876,-417.0,-946.0,18.0,-13.0,27.0,18.0,154,85,96,103,89
2025-02-26 14:06:12.884,-438.0,-949.0,3.0,-13.0,26.0,18.0,154,82,93,98,85
2025-02-26 14:06:12.886,-428.0,-955.0,48.0,-14.0,30.0,19.0,154,79,90,95,84
2025-02-26 14:06:12.893,-447.0,-941.0,6.0,-18.0,32.0,19.0,153,80,92,96,84
2025-02-26 14:06:12.897,-430.0,-944.0,-2.0,-19.0,29.0,19.0,156,82,93,97,84
2025-02-26 14:06:12.901,-425.0,-959.0,22.0,-24.0,30.0,19.0,152,75,90,93,82
2025-02-26 14:06:12.905,-461.0,-979.0,-29.0,-32.0,29.0,19.0,154,80,89,94,82
2025-02-26 14:06:12.912,-476.0,-942.0,-52.0,-37.0,28.0,19.0,154,76,88,92,81
2025-02-26 14:06:12.917,-474.0,-927.0,23.0,-36.0,31.0,21.0,154,76,88,93,81
2025-02-26 14:06:12.922,-442.0,-969.0,15.0,-36.0,34.0,21.0,155,76,88,91,82
2025-02-26 14:06:12.923,-419.0,-954.0,15.0,-36.0,36.0,24.0,153,74,86,91,79
2025-02-26 14:06:12.933,-406.0,-996.0,-33.0,-34.0,34.0,27.0,149,72,86,89,77
2025-02-26 14:06:12.938,-437.0,-958.0,-35.0,-43.0,31.0,27.0,154,76,88,93,81
2025-02-26 14:06:12.941,-455.0,-945.0,-74.0,-47.0,29.0,27.0,151,73,81,91,78
2025-02-26 14:06:12.946,-461.0,-936.0,-44.0,-58.0,28.0,27.0,149,71,82,87,75
2025-02-26 14:06:12.950,-425.0,-946.0,-16.0,-63.0,31.0,28.0,153,74,83,89,76
2025-02-26 14:06:12.958,-421.0,-944.0,-76.0,-62.0,30.0,30.0,151,73,84,89,77
2025-02-26 14:06:12.962,-407.0,-981.0,-37.0,-63.0,30.0,29.0,150,71,82,87,73
2025-02-26 14:06:12.965,-420.0,-951.0,-74.0,-59.0,28.0,29.0,150,72,81,88,74
2025-02-26 14:06:12.971,-454.0,-905.0,-89.0,-51.0,28.0,29.0,149,73,82,88,73
2025-02-26 14:06:12.975,-475.0,-852.0,-70.0,-48.0,28.0,31.0,147,67,79,86,71
2025-02-26 14:06:12.983,-554.0,-841.0,-55.0,-48.0,29.0,32.0,148,70,79,87,73
2025-02-26 14:06:12.987,-618.0,-750.0,-8.0,-45.0,38.0,34.0,146,70,78,88,72
2025-02-26 14:06:12.991,-639.0,-614.0,46.0,-40.0,43.0,39.0,145,67,74,86,70
2025-02-26 14:06:12.995,-616.0,-564.0,-9.0,-30.0,54.0,41.0,145,66,76,85,70
2025-02-26 14:06:13.000,-596.0,-379.0,-9.0,-17.0,58.0,38.0,145,68,77,86,71
2025-02-26 14:06:13.007,-572.0,-223.0,-28.0,-9.0,60.0,26.0,140,65,74,86,70
2025-02-26 14:06:13.011,-583.0,-173.0,-84.0,5.0,64.0,18.0,137,64,73,83,68
2025-02-26 14:06:13.013,-619.0,-20.0,-40.0,11.0,80.0,-1.0,139,67,74,85,69
2025-02-26 14:06:13.020,-590.0,91.0,67.0,18.0,94.0,-13.0,133,63,72,85,68
2025-02-26 14:06:13.024,-505.0,57.0,107.0,37.0,113.0,-23.0,131,64,70,85,67
2025-02-26 14:06:13.032,-514.0,188.0,34.0,53.0,112.0,-42.0,125,64,71,84,70
2025-02-26 14:06:13.036,-671.0,308.0,-165.0,58.0,110.0,-64.0,124,64,68,86,67
2025-02-26 14:06:13.040,-722.0,397.0,-250.0,72.0,110.0,-72.0,121,62,69,89,68
2025-02-26 14:06:13.044,-728.0,519.0,-340.0,79.0,107.0,-86.0,122,65,70,87,71
2025-02-26 14:06:13.048,-769.0,530.0,-515.0,83.0,93.0,-99.0,118,60,68,87,69
2025-02-26 14:06:13.056,-740.0,569.0,-590.0,117.0,79.0,-107.0,113,62,69,88,70
2025-02-26 14:06:13.060,-726.0,661.0,-713.0,136.0,46.0,-128.0,116,66,71,90,68
2025-02-26 14:06:13.062,-593.0,551.0,-715.0,155.0,17.0,-162.0,115,66,71,90,70
2025-02-26 14:06:13.069,-679.0,562.0,-701.0,178.0,4.0,-201.0,118,62,69,88,69
2025-02-26 14:06:13.074,-710.0,498.0,-620.0,198.0,-21.0,-221.0,112,64,69,90,70
2025-02-26 14:06:13.081,-698.0,516.0,-538.0,207.0,-53.0,-270.0,116,65,68,90,71
2025-02-26 14:06:13.085,-677.0,481.0,-446.0,225.0,-66.0,-326.0,112,64,70,89,69
2025-02-26 14:06:13.093,-482.0,512.0,-240.0,237.0,-90.0,-347.0,113,64,69,90,71
2025-02-26 14:06:13.097,-167.0,441.0,-221.0,250.0,-112.0,-400.0,113,67,70,90,72
2025-02-26 14:06:13.101,111.0,171.0,-94.0,255.0,-136.0,-441.0,111,64,70,91,72
2025-02-26 14:06:13.105,228.0,-151.0,82.0,261.0,-147.0,-469.0,110,63,70,88,71
2025-02-26 14:06:13.114,510.0,-331.0,239.0,268.0,-158.0,-476.0,110,65,68,90,72
2025-02-26 14:06:13.117,750.0,-724.0,315.0,276.0,-164.0,-477.0,115,67,72,94,75
2025-02-26 14:06:13.122,990.0,-1072.0,482.0,281.0,-161.0,-462.0,114,65,69,91,73
2025-02-26 14:06:13.130,1279.0,-1448.0,754.0,277.0,-157.0,-431.0,113,67,69,92,72
2025-02-26 14:06:13.134,1392.0,-1846.0,1086.0,262.0,-137.0,-378.0,113,64,68,88,73
2025-02-26 14:06:13.139,1497.0,-2045.0,1354.0,250.0,-112.0,-349.0,114,65,69,85,74
2025-02-26 14:06:13.146,1570.0,-2292.0,1505.0,229.0,-90.0,-290.0,116,68,70,92,75
2025-02-26 14:06:13.151,1654.0,-2556.0,1550.0,199.0,-53.0,-232.0,115,66,78,92,75
2025-02-26 14:06:13.155,1733.0,-2793.0,1715.0,182.0,-17.0,-175.0,114,67,68,90,75
2025-02-26 14:06:13.159,1758.0,-2994.0,1791.0,147.0,0.0,-115.0,113,73,69,91,76
2025-02-26 14:06:13.167,1656.0,-3200.0,1702.0,103.0,22.0,-88.0,112,65,71,93,75
2025-02-26 14:06:13.171,1426.0,-3235.0,1595.0,66.0,41.0,-35.0,115,69,70,93,77
2025-02-26 14:06:13.175,1148.0,-3225.0,1502.0,20.0,43.0,10.0,112,68,71,93,76
2025-02-26 14:06:13.179,981.0,-3049.0,1389.0,1.0,41.0,51.0,111,66,70,92,75
2025-02-26 14:06:13.187,892.0,-2951.0,1212.0,-40.0,38.0,70.0,112,66,67,90,75
2025-02-26 14:06:13.191,747.0,-2687.0,1163.0,-80.0,37.0,103.0,113,69,71,95,78
2025-02-26 14:06:13.196,709.0,-2415.0,1031.0,-97.0,31.0,126.0,114,68,71,95,76
2025-02-26 14:06:13.200,668.0,-2129.0,912.0,-124.0,24.0,140.0,113,69,73,93,77
2025-02-26 14:06:13.208,597.0,-2003.0,817.0,-142.0,7.0,144.0,112,68,72,92,77
2025-02-26 14:06:13.212,581.0,-1774.0,725.0,-159.0,-6.0,146.0,105,62,64,87,70
2025-02-26 14:06:13.214,511.0,-1586.0,624.0,-167.0,-14.0,146.0,108,67,67,89,72
2025-02-26 14:06:13.221,499.0,-1467.0,520.0,-179.0,-17.0,146.0,113,69,71,94,78
2025-02-26 14:06:13.227,458.0,-1438.0,451.0,-184.0,-15.0,149.0,104,59,62,84,70
2025-02-26 14:06:13.233,406.0,-1439.0,381.0,-196.0,-4.0,155.0,104,59,62,83,67
2025-02-26 14:06:13.237,380.0,-1464.0,354.0,-194.0,1.0,162.0,107,61,66,84,67
2025-02-26 14:06:13.241,374.0,-1450.0,319.0,-205.0,1.0,167.0,105,60,65,86,68
2025-02-26 14:06:13.248,358.0,-1449.0,296.0,-205.0,-5.0,177.0,105,61,64,85,68
2025-02-26 14:06:13.253,315.0,-1436.0,249.0,-209.0,-1.0,193.0,109,61,65,86,70
2025-02-26 14:06:13.258,317.0,-1399.0,240.0,-212.0,3.0,207.0,124,79,84,104,87
2025-02-26 14:06:13.262,264.0,-1408.0,187.0,-211.0,11.0,214.0,119,75,82,98,83
2025-02-26 14:06:13.269,245.0,-1381.0,221.0,-203.0,5.0,227.0,116,71,76,94,77
2025-02-26 14:06:13.273,273.0,-1274.0,232.0,-201.0,1.0,236.0,118,74,82,97,81
2025-02-26 14:06:13.276,268.0,-1176.0,233.0,-191.0,1.0,244.0,120,74,79,95,80
2025-02-26 14:06:13.282,251.0,-1118.0,249.0,-185.0,9.0,249.0,117,73,80,95,79
2025-02-26 14:06:13.290,251.0,-1003.0,251.0,-160.0,11.0,254.0,117,72,79,95,78
2025-02-26 14:06:13.294,205.0,-933.0,251.0,-143.0,2.0,254.0,115,68,75,91,74
2025-02-26 14:06:13.299,180.0,-915.0,244.0,-129.0,-5.0,254.0,113,66,74,89,73
2025-02-26 14:06:13.302,122.0,-787.0,205.0,-111.0,-11.0,252.0,113,68,75,93,75
2025-02-26 14:06:13.310,59.0,-773.0,149.0,-95.0,-13.0,249.0,111,66,72,90,73
2025-02-26 14:06:13.314,35.0,-680.0,186.0,-88.0,-13.0,246.0,115,70,75,92,75
2025-02-26 14:06:13.317,31.0,-672.0,182.0,-81.0,-12.0,245.0,113,67,74,91,73
2025-02-26 14:06:13.323,101.0,-640.0,194.0,-82.0,3.0,242.0,110,63,69,88,69
2025-02-26 14:06:13.328,-48.0,-457.0,144.0,-99.0,14.0,239.0,107,63,68,86,69
2025-02-26 14:06:13.335,-45.0,-439.0,147.0,-111.0,37.0,235.0,108,63,67,89,70
2025-02-26 14:06:13.337,-69.0,-335.0,133.0,-114.0,53.0,229.0,113,64,69,88,71
2025-02-26 14:06:13.344,-147.0,-224.0,104.0,-123.0,53.0,215.0,109,60,69,87,68
2025-02-26 14:06:13.348,-137.0,-166.0,19.0,-130.0,60.0,208.0,109,60,67,85,67
2025-02-26 14:06:13.356,-267.0,-68.0,14.0,-138.0,65.0,198.0,112,63,69,87,69
2025-02-26 14:06:13.359,-373.0,-63.0,-55.0,-139.0,57.0,187.0,111,63,73,89,70
2025-02-26 14:06:13.364,-365.0,-9.0,-81.0,-144.0,46.0,169.0,108,62,69,88,68
2025-02-26 14:06:13.367,-394.0,0.0,-76.0,-155.0,33.0,160.0,111,62,70,89,70
2025-02-26 14:06:13.372,-430.0,48.0,-134.0,-153.0,30.0,146.0,109,62,69,88,68
2025-02-26 14:06:13.380,-451.0,37.0,-148.0,-148.0,25.0,131.0,109,60,68,86,71
2025-02-26 14:06:13.384,-475.0,14.0,-168.0,-141.0,14.0,123.0,112,61,70,87,69
2025-02-26 14:06:13.388,-517.0,24.0,-197.0,-133.0,3.0,110.0,113,62,69,88,69
2025-02-26 14:06:13.393,-490.0,-5.0,-237.0,-128.0,-1.0,103.0,109,60,69,85,67
2025-02-26 14:06:13.400,-537.0,-25.0,-234.0,-119.0,-8.0,101.0,108,60,68,85,67
2025-02-26 14:06:13.405,-571.0,-30.0,-257.0,-103.0,-16.0,95.0,113,62,70,87,68
2025-02-26 14:06:13.409,-577.0,-32.0,-251.0,-96.0,-23.0,85.0,115,61,67,84,68
2025-02-26 14:06:13.413,-538.0,-3.0,-270.0,-74.0,-26.0,78.0,107,60,67,81,67
2025-02-26 14:06:13.421,-579.0,-17.0,-277.0,-52.0,-32.0,75.0,110,63,67,86,69
2025-02-26 14:06:13.425,-579.0,54.0,-240.0,-41.0,-34.0,70.0,109,63,69,87,68
2025-02-26 14:06:13.430,-602.0,95.0,-246.0,-21.0,-34.0,67.0,110,61,68,87,68
2025-02-26 14:06:13.434,-629.0,156.0,-249.0,4.0,-37.0,65.0,111,62,70,88,70
2025-02-26 14:06:13.438,-663.0,263.0,-206.0,28.0,-47.0,60.0,112,64,68,87,71
2025-02-26 14:06:13.445,-667.0,396.0,-224.0,40.0,-52.0,52.0,111,61,68,86,68
2025-02-26 14:06:13.450,-699.0,440.0,-223.0,62.0,-56.0,47.0,113,62,68,90,69
2025-02-26 14:06:13.454,-730.0,616.0,-235.0,86.0,-61.0,33.0,113,62,69,85,70
2025-02-26 14:06:13.458,-797.0,755.0,-226.0,98.0,-66.0,11.0,111,64,66,86,72
2025-02-26 14:06:13.462,-824.0,846.0,-211.0,114.0,-71.0,-5.0,110,60,68,86,67
2025-02-26 14:06:13.470,-841.0,949.0,-168.0,125.0,-68.0,-38.0,112,60,68,86,69
2025-02-26 14:06:13.475,-797.0,1129.0,-128.0,136.0,-61.0,-87.0,109,61,69,86,69
2025-02-26 14:06:13.478,-771.0,1272.0,-116.0,161.0,-53.0,-149.0,110,60,68,81,69
2025-02-26 14:06:13.486,-689.0,1385.0,-145.0,182.0,-38.0,-182.0,110,59,67,85,69
2025-02-26 14:06:13.491,-717.0,1423.0,-132.0,204.0,-21.0,-250.0,110,62,67,87,70
2025-02-26 14:06:13.495,-722.0,1469.0,-189.0,218.0,-17.0,-320.0,109,64,70,89,70
2025-02-26 14:06:13.503,-700.0,1369.0,-182.0,224.0,-26.0,-389.0,113,62,68,88,70
2025-02-26 14:06:13.507,-633.0,1196.0,-236.0,239.0,-32.0,-456.0,111,60,67,85,69
2025-02-26 14:06:13.511,-464.0,1057.0,-230.0,251.0,-48.0,-489.0,109,61,67,86,69
2025-02-26 14:06:13.516,-307.0,860.0,-246.0,255.0,-66.0,-545.0,113,63,72,89,73
2025-02-26 14:06:13.524,-204.0,557.0,-288.0,255.0,-91.0,-589.0,111,61,68,88,72
2025-02-26 14:06:13.528,-106.0,198.0,-296.0,258.0,-105.0,-620.0,110,59,67,88,70
2025-02-26 14:06:13.532,25.0,-209.0,-280.0,260.0,-143.0,-641.0,111,62,67,87,71
2025-02-26 14:06:13.540,344.0,-369.0,-53.0,250.0,-178.0,-642.0,114,65,70,91,74
2025-02-26 14:06:13.544,887.0,-1043.0,229.0,236.0,-185.0,-608.0,114,62,70,89,73
2025-02-26 14:06:13.548,1554.0,-1866.0,814.0,233.0,-178.0,-520.0,114,61,68,87,74
2025-02-26 14:06:13.553,1805.0,-2791.0,1411.0,226.0,-167.0,-418.0,116,61,69,87,73
2025-02-26 14:06:13.560,2054.0,-3767.0,1841.0,201.0,-131.0,-291.0,117,63,71,88,75
2025-02-26 14:06:13.565,2316.0,-4130.0,2186.0,189.0,-71.0,-217.0,113,60,70,88,75
2025-02-26 14:06:13.566,2577.0,-4626.0,2249.0,172.0,-15.0,-93.0,116,62,72,88,76
2025-02-26 14:06:13.576,2674.0,-4890.0,2218.0,167.0,40.0,-11.0,117,63,73,90,75
2025-02-26 14:06:13.578,2470.0,-4760.0,2028.0,163.0,96.0,44.0,114,63,74,87,75
2025-02-26 14:06:13.585,2213.0,-4321.0,1721.0,133.0,125.0,88.0,113,62,72,85,74
2025-02-26 14:06:13.593,1705.0,-4027.0,1359.0,86.0,170.0,106.0,116,63,74,85,76
2025-02-26 14:06:13.597,1154.0,-3335.0,1194.0,19.0,178.0,133.0,119,68,78,88,80
2025-02-26 14:06:13.601,698.0,-2668.0,854.0,-23.0,158.0,158.0,118,67,78,85,78
2025-02-26 14:06:13.605,557.0,-2140.0,636.0,-95.0,135.0,176.0,114,65,75,82,76
2025-02-26 14:06:13.613,424.0,-1914.0,473.0,-166.0,72.0,183.0,116,68,78,86,77
2025-02-26 14:06:13.617,387.0,-1573.0,343.0,-216.0,18.0,186.0,118,68,79,87,78
2025-02-26 14:06:13.621,375.0,-1402.0,192.0,-232.0,-13.0,177.0,117,66,74,88,78
2025-02-26 14:06:13.626,331.0,-1370.0,77.0,-245.0,-15.0,159.0,113,65,73,89,76
2025-02-26 14:06:13.632,237.0,-1393.0,-18.0,-255.0,-12.0,148.0,118,67,74,92,78
2025-02-26 14:06:13.638,176.0,-1396.0,-54.0,-257.0,5.0,131.0,117,67,75,91,79
2025-02-26 14:06:13.642,52.0,-1539.0,-64.0,-255.0,26.0,122.0,114,64,71,91,78
2025-02-26 14:06:13.647,138.0,-1591.0,-105.0,-240.0,31.0,116.0,115,64,71,90,77
2025-02-26 14:06:13.655,64.0,-1595.0,-36.0,-234.0,25.0,113.0,117,65,72,93,78
2025-02-26 14:06:13.659,41.0,-1643.0,1.0,-231.0,20.0,122.0,120,68,73,92,79
2025-02-26 14:06:13.663,91.0,-1593.0,10.0,-228.0,17.0,134.0,120,65,70,92,78
2025-02-26 14:06:13.667,103.0,-1635.0,102.0,-224.0,1.0,141.0,118,66,71,93,79
2025-02-26 14:06:13.671,123.0,-1521.0,84.0,-223.0,-5.0,160.0,118,66,73,93,79
2025-02-26 14:06:13.679,105.0,-1403.0,107.0,-220.0,-9.0,175.0,118,64,71,93,78
2025-02-26 14:06:13.683,87.0,-1375.0,92.0,-229.0,-10.0,184.0,116,62,67,90,76
2025-02-26 14:06:13.688,39.0,-1284.0,128.0,-234.0,-12.0,199.0,115,62,68,91,76
2025-02-26 14:06:13.692,35.0,-1175.0,159.0,-234.0,-21.0,207.0,116,62,70,88,73
2025-02-26 14:06:13.700,66.0,-1074.0,123.0,-218.0,-25.0,211.0,113,62,69,85,74
2025-02-26 14:06:13.704,15.0,-1038.0,104.0,-207.0,-27.0,215.0,114,62,70,86,73
2025-02-26 14:06:13.705,-17.0,-861.0,118.0,-176.0,-18.0,214.0,118,65,72,88,73
2025-02-26 14:06:13.713,-11.0,-846.0,73.0,-154.0,-18.0,211.0,115,63,72,89,75
2025-02-26 14:06:13.719,-19.0,-806.0,115.0,-139.0,-24.0,210.0,117,62,69,89,71
2025-02-26 14:06:13.724,-53.0,-796.0,146.0,-126.0,-38.0,208.0,118,65,73,90,75
2025-02-26 14:06:13.728,-63.0,-722.0,131.0,-121.0,-44.0,208.0,118,65,74,88,76
2025-02-26 14:06:13.732,-41.0,-631.0,116.0,-115.0,-37.0,209.0,113,60,68,86,71
2025-02-26 14:06:13.740,2.0,-535.0,130.0,-105.0,-26.0,209.0,114,59,69,86,70
2025-02-26 14:06:13.745,-22.0,-488.0,100.0,-112.0,1.0,211.0,114,59,70,87,72
2025-02-26 14:06:13.749,-53.0,-379.0,92.0,-114.0,18.0,215.0,118,63,71,89,74
2025-02-26 14:06:13.753,-94.0,-378.0,83.0,-108.0,18.0,214.0,116,65,71,86,73
2025-02-26 14:06:13.760,-187.0,-290.0,22.0,-104.0,18.0,213.0,119,64,73,89,74
2025-02-26 14:06:13.765,-165.0,-212.0,-19.0,-97.0,22.0,207.0,121,63,72,90,75
2025-02-26 14:06:13.769,-193.0,-141.0,-36.0,-98.0,27.0,200.0,121,65,72,86,73
2025-02-26 14:06:13.774,-245.0,-92.0,-117.0,-95.0,38.0,197.0,120,64,70,88,74
2025-02-26 14:06:13.781,-304.0,-56.0,-169.0,-91.0,46.0,193.0,120,65,74,91,75
2025-02-26 14:06:13.786,-337.0,30.0,-106.0,-95.0,50.0,193.0,123,64,72,90,75
2025-02-26 14:06:13.790,-332.0,6.0,-174.0,-95.0,51.0,193.0,122,62,70,87,73
2025-02-26 14:06:13.794,-499.0,54.0,-212.0,-93.0,45.0,188.0,123,63,72,90,75
2025-02-26 14:06:13.799,-438.0,100.0,-288.0,-86.0,37.0,181.0,125,63,72,91,74
2025-02-26 14:06:13.806,-477.0,123.0,-289.0,-75.0,36.0,169.0,125,62,70,89,73
2025-02-26 14:06:13.809,-538.0,125.0,-331.0,-64.0,25.0,163.0,126,62,73,91,74
2025-02-26 14:06:13.815,-604.0,220.0,-278.0,-59.0,11.0,149.0,126,63,71,89,75
2025-02-26 14:06:13.819,-562.0,253.0,-319.0,-45.0,6.0,137.0,128,62,69,89,73
2025-02-26 14:06:13.826,-666.0,278.0,-297.0,-35.0,-7.0,132.0,130,62,70,88,72
2025-02-26 14:06:13.830,-703.0,309.0,-352.0,-17.0,-22.0,117.0,129,63,70,89,74
2025-02-26 14:06:13.833,-679.0,400.0,-330.0,-8.0,-29.0,97.0,130,64,72,91,74
2025-02-26 14:06:13.839,-654.0,528.0,-322.0,4.0,-33.0,87.0,131,61,70,89,72
2025-02-26 14:06:13.843,-733.0,591.0,-305.0,23.0,-46.0,68.0,132,62,71,89,74
2025-02-26 14:06:13.851,-804.0,744.0,-294.0,32.0,-55.0,51.0,133,63,71,88,74
2025-02-26 14:06:13.855,-859.0,936.0,-235.0,45.0,-58.0,29.0,131,62,69,88,73
2025-02-26 14:06:13.857,-936.0,1026.0,-226.0,57.0,-63.0,15.0,135,64,71,90,74
2025-02-26 14:06:13.864,-949.0,1203.0,-194.0,69.0,-70.0,-25.0,135,62,70,87,72
2025-02-26 14:06:13.871,-951.0,1445.0,-125.0,91.0,-74.0,-75.0,134,62,70,89,75
2025-02-26 14:06:13.876,-946.0,1515.0,-67.0,123.0,-72.0,-106.0,138,64,71,89,74
2025-02-26 14:06:13.881,-944.0,1675.0,-67.0,151.0,-61.0,-169.0,140,65,73,91,76
2025-02-26 14:06:13.885,-901.0,1690.0,-35.0,170.0,-49.0,-228.0,138,63,68,88,74
2025-02-26 14:06:13.892,-912.0,1628.0,-24.0,207.0,-45.0,-287.0,138,61,68,87,72
2025-02-26 14:06:13.892,-875.0,1625.0,-39.0,247.0,-43.0,-316.0,141,61,70,90,73
2025-02-26 14:06:13.898,-820.0,1590.0,-12.0,286.0,-46.0,-374.0,142,62,70,90,72
2025-02-26 14:06:13.905,-707.0,1552.0,-3.0,302.0,-53.0,-433.0,142,64,68,88,73
2025-02-26 14:06:13.911,-543.0,1445.0,0.0,323.0,-55.0,-487.0,143,61,69,88,72
2025-02-26 14:06:13.917,-435.0,1367.0,-20.0,330.0,-55.0,-511.0,142,61,70,90,72
2025-02-26 14:06:13.921,-236.0,1036.0,-69.0,326.0,-67.0,-542.0,145,63,70,90,74
2025-02-26 14:06:13.929,-201.0,607.0,-174.0,322.0,-98.0,-544.0,145,61,69,91,72
2025-02-26 14:06:13.933,-305.0,145.0,-140.0,315.0,-120.0,-522.0,146,59,68,88,70
2025-02-26 14:06:13.937,-187.0,-297.0,-78.0,304.0,-161.0,-502.0,146,59,68,97,73
2025-02-26 14:06:13.942,288.0,-451.0,-6.0,293.0,-191.0,-491.0,149,63,71,91,73
2025-02-26 14:06:13.950,860.0,-722.0,93.0,295.0,-201.0,-476.0,149,61,75,90,75
2025-02-26 14:06:13.954,1344.0,-1199.0,425.0,299.0,-185.0,-469.0,150,61,71,90,75
2025-02-26 14:06:13.958,1593.0,-2219.0,729.0,311.0,-169.0,-448.0,148,61,71,89,74
2025-02-26 14:06:13.966,2007.0,-2735.0,1171.0,329.0,-142.0,-426.0,149,59,69,88,74
2025-02-26 14:06:13.966,2354.0,-3748.0,1629.0,368.0,-118.0,-360.0,148,63,74,92,76
2025-02-26 14:06:13.974,2609.0,-4866.0,1925.0,390.0,-70.0,-266.0,156,64,74,91,78
2025-02-26 14:06:13.979,2708.0,-6002.0,2325.0,408.0,15.0,-132.0,151,65,75,88,76
2025-02-26 14:06:13.986,2644.0,-6529.0,2566.0,410.0,108.0,10.0,155,66,78,88,81
2025-02-26 14:06:13.991,2598.0,-5963.0,2642.0,408.0,151.0,119.0,150,60,73,80,72
2025-02-26 14:06:13.995,2335.0,-5326.0,2249.0,373.0,226.0,158.0,152,63,77,81,74
2025-02-26 14:06:14.003,1729.0,-4010.0,2111.0,290.0,271.0,215.0,154,63,76,80,73
2025-02-26 14:06:14.007,1288.0,-2647.0,1919.0,223.0,279.0,225.0,153,65,76,78,71
2025-02-26 14:06:14.011,848.0,-1591.0,1638.0,82.0,236.0,207.0,154,62,74,78,71
2025-02-26 14:06:14.019,742.0,-1329.0,1349.0,-93.0,205.0,201.0,152,60,70,79,71
2025-02-26 14:06:14.022,313.0,-1004.0,913.0,-216.0,135.0,164.0,155,65,78,85,75
2025-02-26 14:06:14.026,135.0,-1004.0,838.0,-304.0,90.0,143.0,158,67,80,89,75
2025-02-26 14:06:14.032,29.0,-1250.0,653.0,-337.0,48.0,117.0,156,64,76,88,75
2025-02-26 14:06:14.039,40.0,-1662.0,393.0,-345.0,32.0,104.0,162,68,76,90,76
2025-02-26 14:06:14.043,177.0,-2004.0,468.0,-369.0,36.0,99.0,158,69,76,96,77
2025-02-26 14:06:14.046,88.0,-2051.0,271.0,-363.0,49.0,110.0,166,69,75,100,76
2025-02-26 14:06:14.052,-15.0,-2500.0,457.0,-361.0,62.0,133.0,157,68,73,96,76
2025-02-26 14:06:14.057,130.0,-2294.0,459.0,-345.0,71.0,145.0,159,70,75,98,78
2025-02-26 14:06:14.064,164.0,-2294.0,494.0,-328.0,74.0,167.0,161,72,78,100,81
2025-02-26 14:06:14.069,223.0,-2139.0,465.0,-321.0,81.0,188.0,159,71,77,97,80
2025-02-26 14:06:14.072,236.0,-1996.0,380.0,-296.0,77.0,206.0,158,71,76,96,78
2025-02-26 14:06:14.080,210.0,-1737.0,449.0,-298.0,70.0,209.0,160,72,76,96,79
2025-02-26 14:06:14.083,145.0,-1368.0,454.0,-316.0,51.0,221.0,162,72,78,97,80
2025-02-26 14:06:14.086,128.0,-1102.0,450.0,-325.0,43.0,230.0,162,70,78,95,78
2025-02-26 14:06:14.094,66.0,-880.0,350.0,-332.0,42.0,234.0,162,72,80,96,81
2025-02-26 14:06:14.101,46.0,-793.0,330.0,-335.0,44.0,234.0,160,72,81,97,81
2025-02-26 14:06:14.105,87.0,-544.0,334.0,-334.0,22.0,232.0,160,71,80,96,80
2025-02-26 14:06:14.110,35.0,-430.0,365.0,-344.0,12.0,230.0,158,70,77,93,77
2025-02-26 14:06:14.113,20.0,-321.0,267.0,-337.0,1.0,227.0,163,71,79,97,80
2025-02-26 14:06:14.117,0.0,-246.0,222.0,-347.0,1.0,225.0,162,71,80,96,79
2025-02-26 14:06:14.124,10.0,-132.0,173.0,-345.0,2.0,223.0,159,69,78,94,77
2025-02-26 14:06:14.129,5.0,-90.0,129.0,-346.0,9.0,223.0,160,71,78,95,79
2025-02-26 14:06:14.134,-56.0,-37.0,149.0,-340.0,-6.0,217.0,161,73,80,96,80
2025-02-26 14:06:14.138,-62.0,18.0,148.0,-340.0,-5.0,205.0,157,68,78,94,77
2025-02-26 14:06:14.143,-129.0,95.0,177.0,-304.0,-1.0,193.0,158,72,80,95,79
2025-02-26 14:06:14.150,-110.0,129.0,167.0,-288.0,7.0,173.0,160,71,79,96,78
2025-02-26 14:06:14.154,-102.0,74.0,170.0,-250.0,11.0,158.0,159,70,78,93,77
2025-02-26 14:06:14.158,-144.0,106.0,93.0,-235.0,25.0,157.0,158,71,79,96,79
2025-02-26 14:06:14.160,-161.0,158.0,84.0,-230.0,34.0,165.0,160,71,78,97,79
2025-02-26 14:06:14.166,-230.0,172.0,35.0,-227.0,39.0,174.0,160,69,76,95,76
2025-02-26 14:06:14.175,-326.0,165.0,-61.0,-208.0,45.0,177.0,163,73,79,99,81
2025-02-26 14:06:14.178,-441.0,194.0,-92.0,-166.0,47.0,175.0,163,75,83,101,82
2025-02-26 14:06:14.182,-578.0,177.0,-187.0,-138.0,49.0,164.0,160,71,78,98,79
2025-02-26 14:06:14.187,-611.0,175.0,-214.0,-97.0,45.0,160.0,158,68,77,97,78
2025-02-26 14:06:14.195,-524.0,284.0,-260.0,-61.0,37.0,156.0,162,72,80,101,81
2025-02-26 14:06:14.199,-559.0,356.0,-359.0,-49.0,39.0,148.0,161,72,81,101,82
2025-02-26 14:06:14.204,-574.0,475.0,-328.0,-26.0,36.0,143.0,160,71,78,97,79
2025-02-26 14:06:14.208,-645.0,520.0,-323.0,-3.0,23.0,138.0,163,74,82,103,83
2025-02-26 14:06:14.216,-630.0,584.0,-340.0,24.0,20.0,126.0,164,77,84,101,84
2025-02-26 14:06:14.220,-603.0,684.0,-325.0,37.0,9.0,110.0,159,71,79,97,80
2025-02-26 14:06:14.224,-615.0,697.0,-304.0,52.0,5.0,103.0,157,67,74,95,76
2025-02-26 14:06:14.228,-591.0,795.0,-305.0,59.0,-4.0,88.0,157,70,76,97,78
2025-02-26 14:06:14.233,-605.0,895.0,-323.0,61.0,-1.0,72.0,158,71,80,96,77
2025-02-26 14:06:14.239,-623.0,929.0,-331.0,63.0,-3.0,64.0,155,68,75,94,75
2025-02-26 14:06:14.244,-661.0,999.0,-347.0,70.0,-6.0,46.0,158,69,77,97,78
2025-02-26 14:06:14.245,-713.0,1045.0,-378.0,79.0,-22.0,24.0,156,68,76,94,77
2025-02-26 14:06:14.253,-725.0,1100.0,-330.0,81.0,-34.0,13.0,159,70,80,98,79
2025-02-26 14:06:14.257,-753.0,1161.0,-380.0,99.0,-61.0,-15.0,160,70,77,96,78
2025-02-26 14:06:14.263,-800.0,1224.0,-348.0,103.0,-82.0,-44.0,157,70,79,97,77
2025-02-26 14:06:14.269,-842.0,1293.0,-303.0,125.0,-89.0,-71.0,156,68,77,94,75
2025-02-26 14:06:14.273,-916.0,1324.0,-254.0,151.0,-100.0,-85.0,160,69,76,96,79
2025-02-26 14:06:14.281,-833.0,1441.0,-184.0,192.0,-108.0,-124.0,158,70,78,97,78
2025-02-26 14:06:14.286,-797.0,1502.0,-168.0,228.0,-120.0,-170.0,158,69,75,96,79
2025-02-26 14:06:14.288,-769.0,1588.0,-98.0,235.0,-126.0,-210.0,159,69,78,96,78
2025-02-26 14:06:14.297,-762.0,1725.0,-77.0,257.0,-133.0,-249.0,158,67,74,96,77
2025-02-26 14:06:14.301,-905.0,1702.0,-23.0,283.0,-135.0,-269.0,156,67,74,95,76
2025-02-26 14:06:14.306,-890.0,1732.0,35.0,279.0,-117.0,-317.0,161,69,75,96,78
2025-02-26 14:06:14.310,-729.0,1710.0,18.0,280.0,-93.0,-371.0,159,69,77,97,78
2025-02-26 14:06:14.318,-522.0,1607.0,44.0,282.0,-85.0,-430.0,156,68,78,101,78
2025-02-26 14:06:14.322,-375.0,1500.0,95.0,295.0,-73.0,-460.0,156,67,75,97,79
2025-02-26 14:06:14.326,-218.0,1388.0,113.0,314.0,-61.0,-514.0,158,69,75,96,79
2025-02-26 14:06:14.330,-27.0,1190.0,141.0,328.0,-55.0,-564.0,157,68,74,97,80
2025-02-26 14:06:14.339,224.0,917.0,115.0,332.0,-54.0,-611.0,155,61,74,95,73
2025-02-26 14:06:14.341,266.0,723.0,202.0,354.0,-59.0,-631.0,157,65,72,93,76
2025-02-26 14:06:14.347,337.0,208.0,75.0,351.0,-94.0,-662.0,156,66,72,94,77
2025-02-26 14:06:14.351,466.0,-284.0,43.0,355.0,-142.0,-684.0,154,66,74,94,75
2025-02-26 14:06:14.358,630.0,-797.0,161.0,357.0,-157.0,-678.0,154,64,72,94,75
2025-02-26 14:06:14.360,1047.0,-1161.0,370.0,377.0,-192.0,-658.0,159,69,78,98,80
2025-02-26 14:06:14.367,1431.0,-1772.0,468.0,396.0,-222.0,-599.0,158,71,81,97,81
2025-02-26 14:06:14.375,2004.0,-2562.0,1033.0,390.0,-217.0,-543.0,164,76,83,99,84
2025-02-26 14:06:14.380,2911.0,-3806.0,2030.0,380.0,-149.0,-459.0,162,71,80,97,82
2025-02-26 14:06:14.384,3558.0,-5267.0,3203.0,362.0,-100.0,-314.0,159,69,79,95,82
2025-02-26 14:06:14.392,3797.0,-6638.0,4236.0,337.0,5.0,-139.0,166,77,89,99,85
2025-02-26 14:06:14.396,4013.0,-6996.0,4486.0,301.0,79.0,-56.0,181,91,102,112,102
2025-02-26 14:06:14.401,3814.0,-6816.0,4160.0,247.0,104.0,78.0,164,74,90,94,85
2025-02-26 14:06:14.407,3075.0,-5630.0,3314.0,192.0,197.0,177.0,160,69,83,91,80
2025-02-26 14:06:14.412,2282.0,-3790.0,2468.0,119.0,287.0,210.0,152,64,76,83,74
2025-02-26 14:06:14.417,2062.0,-2368.0,1767.0,5.0,293.0,189.0,155,65,75,83,73
2025-02-26 14:06:14.421,1376.0,-1799.0,1232.0,-121.0,245.0,172.0,157,65,77,86,74
2025-02-26 14:06:14.429,706.0,-1160.0,942.0,-226.0,150.0,146.0,155,63,76,85,73
2025-02-26 14:06:14.432,424.0,-960.0,527.0,-286.0,65.0,144.0,151,62,72,84,72
2025-02-26 14:06:14.437,276.0,-998.0,42.0,-343.0,32.0,147.0,153,62,73,86,73
2025-02-26 14:06:14.442,146.0,-1155.0,-285.0,-335.0,-21.0,143.0,152,63,71,86,72
2025-02-26 14:06:14.449,100.0,-1422.0,-398.0,-329.0,-50.0,132.0,150,61,70,85,71
2025-02-26 14:06:14.452,-62.0,-1768.0,-374.0,-343.0,-39.0,130.0,150,60,69,84,70
2025-02-26 14:06:14.457,-86.0,-1783.0,-532.0,-347.0,-26.0,138.0,147,58,66,85,70
2025-02-26 14:06:14.466,-161.0,-1933.0,-418.0,-338.0,-9.0,136.0,149,58,65,84,70
2025-02-26 14:06:14.469,-71.0,-1943.0,-292.0,-308.0,-16.0,140.0,150,57,65,86,71
2025-02-26 14:06:14.474,107.0,-1951.0,-202.0,-258.0,-24.0,145.0,150,59,67,87,72
2025-02-26 14:06:14.478,217.0,-1864.0,-24.0,-254.0,-20.0,162.0,149,58,66,87,71
2025-02-26 14:06:14.486,230.0,-1687.0,83.0,-237.0,-10.0,184.0,149,58,65,86,72
2025-02-26 14:06:14.488,360.0,-1557.0,120.0,-220.0,7.0,194.0,149,56,64,86,73
2025-02-26 14:06:14.493,430.0,-1445.0,213.0,-216.0,15.0,208.0,149,59,65,87,73
2025-02-26 14:06:14.499,395.0,-1231.0,331.0,-217.0,12.0,218.0,149,59,65,85,71
2025-02-26 14:06:14.506,366.0,-979.0,249.0,-210.0,9.0,220.0,149,57,64,83,70
2025-02-26 14:06:14.511,383.0,-873.0,276.0,-180.0,-9.0,223.0,149,59,65,84,71
2025-02-26 14:06:14.515,214.0,-819.0,250.0,-170.0,-11.0,234.0,150,60,66,84,72
2025-02-26 14:06:14.519,61.0,-577.0,180.0,-177.0,0.0,243.0,149,59,68,84,70
2025-02-26 14:06:14.525,173.0,-499.0,41.0,-179.0,20.0,246.0,150,59,68,84,70
2025-02-26 14:06:14.531,4.0,-424.0,33.0,-165.0,11.0,252.0,151,59,70,83,70
2025-02-26 14:06:14.536,-24.0,-367.0,30.0,-172.0,2.0,250.0,151,59,69,84,69
2025-02-26 14:06:14.540,-158.0,-342.0,-51.0,-155.0,-25.0,250.0,150,60,69,83,70
2025-02-26 14:06:14.543,-170.0,-207.0,-40.0,-161.0,-39.0,245.0,150,59,70,84,71
2025-02-26 14:06:14.552,-167.0,-29.0,-14.0,-158.0,-30.0,234.0,150,65,72,85,70
2025-02-26 14:06:14.555,-167.0,-63.0,137.0,-151.0,-21.0,217.0,150,59,71,84,70
2025-02-26 14:06:14.560,-121.0,25.0,104.0,-160.0,-1.0,208.0,151,59,72,87,72
2025-02-26 14:06:14.564,-170.0,-29.0,179.0,-160.0,-1.0,186.0,149,54,71,85,67
2025-02-26 14:06:14.572,-174.0,-67.0,194.0,-171.0,2.0,169.0,150,60,71,87,71
2025-02-26 14:06:14.576,-188.0,-29.0,35.0,-179.0,5.0,162.0,150,62,73,86,71
2025-02-26 14:06:14.580,-346.0,-96.0,-6.0,-177.0,12.0,156.0,149,62,71,88,74
2025-02-26 14:06:14.585,-454.0,-83.0,97.0,-180.0,16.0,145.0,150,62,68,87,74
2025-02-26 14:06:14.592,-459.0,-108.0,-133.0,-172.0,23.0,143.0,149,63,70,87,74
2025-02-26 14:06:14.596,-483.0,-145.0,-50.0,-157.0,21.0,132.0,150,65,73,88,78
2025-02-26 14:06:14.601,-598.0,-161.0,-178.0,-148.0,14.0,124.0,151,64,72,92,78
2025-02-26 14:06:14.605,-632.0,-171.0,-66.0,-107.0,19.0,119.0,148,64,76,94,79
2025-02-26 14:06:14.613,-639.0,-164.0,-85.0,-34.0,37.0,121.0,150,65,74,95,81
2025-02-26 14:06:14.615,-727.0,-150.0,-267.0,-7.0,31.0,119.0,149,68,77,99,84
2025-02-26 14:06:14.622,-688.0,-151.0,-412.0,-1.0,19.0,112.0,150,70,79,101,87
2025-02-26 14:06:14.626,-659.0,-50.0,-376.0,-3.0,17.0,103.0,149,71,79,99,88
2025-02-26 14:06:14.629,-601.0,17.0,-351.0,-6.0,8.0,98.0,151,73,81,104,91
2025-02-26 14:06:14.638,-555.0,99.0,-327.0,-1.0,-1.0,86.0,152,72,80,104,94
2025-02-26 14:06:14.642,-538.0,114.0,-261.0,-3.0,-6.0,73.0,149,77,85,105,94
2025-02-26 14:06:14.646,-530.0,123.0,-290.0,-11.0,-13.0,67.0,151,79,88,105,96
2025-02-26 14:06:14.651,-584.0,217.0,-266.0,-12.0,-20.0,52.0,150,81,89,106,98
2025-02-26 14:06:14.658,-591.0,267.0,-279.0,-3.0,-27.0,37.0,150,83,90,106,101
2025-02-26 14:06:14.662,-586.0,310.0,-235.0,10.0,-40.0,28.0,150,85,91,105,101
2025-02-26 14:06:14.666,-615.0,299.0,-222.0,34.0,-57.0,10.0,151,88,94,107,103
2025-02-26 14:06:14.671,-724.0,287.0,-323.0,41.0,-79.0,-11.0,151,90,96,108,102
2025-02-26 14:06:14.678,-693.0,333.0,-314.0,62.0,-92.0,-32.0,149,92,99,106,104
2025-02-26 14:06:14.682,-748.0,378.0,-415.0,84.0,-120.0,-42.0,150,94,99,106,106
2025-02-26 14:06:14.687,-834.0,303.0,-411.0,106.0,-136.0,-58.0,151,96,103,110,108
2025-02-26 14:06:14.695,-868.0,354.0,-438.0,122.0,-152.0,-75.0,152,101,107,112,109
2025-02-26 14:06:14.699,-833.0,441.0,-361.0,144.0,-164.0,-91.0,150,103,108,113,109
2025-02-26 14:06:14.704,-837.0,603.0,-333.0,156.0,-173.0,-109.0,150,104,110,113,110
2025-02-26 14:06:14.711,-859.0,822.0,-197.0,203.0,-167.0,-137.0,150,105,111,114,110
2025-02-26 14:06:14.716,-858.0,1079.0,-193.0,238.0,-167.0,-157.0,151,108,113,115,112
2025-02-26 14:06:14.723,-885.0,892.0,79.0,279.0,-139.0,-159.0,150,109,114,115,111
2025-02-26 14:06:14.727,-1000.0,918.0,462.0,327.0,-55.0,-198.0,149,109,114,115,111
2025-02-26 14:06:14.732,-907.0,589.0,-17.0,335.0,-8.0,-214.0,151,112,116,117,113
2025-02-26 14:06:14.736,-769.0,530.0,166.0,340.0,8.0,-247.0,151,114,118,120,114
2025-02-26 14:06:14.743,-629.0,570.0,217.0,396.0,26.0,-273.0,154,116,117,118,114
2025-02-26 14:06:14.748,-601.0,531.0,85.0,405.0,29.0,-302.0,150,117,117,118,114
2025-02-26 14:06:14.752,-608.0,383.0,-202.0,405.0,21.0,-332.0,150,118,117,118,114
2025-02-26 14:06:14.760,-611.0,164.0,-91.0,413.0,4.0,-344.0,151,118,116,121,115
2025-02-26 14:06:14.764,-453.0,81.0,26.0,429.0,-17.0,-361.0,151,119,119,123,116
2025-02-26 14:06:14.767,-236.0,-84.0,-37.0,408.0,-50.0,-371.0,152,119,117,122,117
2025-02-26 14:06:14.777,-66.0,-314.0,285.0,418.0,-87.0,-377.0,154,123,120,124,119
2025-02-26 14:06:14.781,10.0,-384.0,45.0,387.0,-131.0,-379.0,153,122,119,123,121
2025-02-26 14:06:14.786,112.0,-739.0,35.0,371.0,-162.0,-378.0,153,124,120,122,119
2025-02-26 14:06:14.793,371.0,-1277.0,443.0,323.0,-221.0,-371.0,154,125,119,125,118
2025-02-26 14:06:14.798,627.0,-1519.0,707.0,249.0,-270.0,-357.0,154,124,120,124,121
2025-02-26 14:06:14.806,877.0,-1922.0,1001.0,177.0,-302.0,-344.0,156,128,120,123,122
2025-02-26 14:06:14.810,1233.0,-2185.0,1203.0,111.0,-315.0,-327.0,153,127,118,125,121
2025-02-26 14:06:14.814,1764.0,-2448.0,1250.0,51.0,-313.0,-299.0,160,130,120,124,122
2025-02-26 14:06:14.821,2262.0,-2938.0,1377.0,-8.0,-297.0,-260.0,156,128,121,125,122
2025-02-26 14:06:14.827,2547.0,-3350.0,1473.0,-111.0,-266.0,-222.0,154,128,122,126,121
2025-02-26 14:06:14.834,2444.0,-3624.0,2250.0,-165.0,-133.0,-156.0,156,130,122,127,123
2025-02-26 14:06:14.839,2072.0,-3781.0,2749.0,-161.0,-40.0,-82.0,156,128,120,124,123
2025-02-26 14:06:14.847,1771.0,-3478.0,1783.0,-132.0,-83.0,-27.0,155,129,121,125,124
2025-02-26 14:06:14.851,1949.0,-3474.0,1617.0,-117.0,-111.0,24.0,156,128,122,125,126
2025-02-26 14:06:14.855,1477.0,-3446.0,1607.0,-120.0,-60.0,108.0,157,129,118,125,125
2025-02-26 14:06:14.863,1197.0,-3156.0,923.0,-148.0,-25.0,182.0,155,127,121,124,125
2025-02-26 14:06:14.867,1013.0,-2900.0,773.0,-182.0,0.0,235.0,154,127,122,123,125
2025-02-26 14:06:14.872,908.0,-2586.0,898.0,-201.0,10.0,263.0,155,128,121,126,126
2025-02-26 14:06:14.879,726.0,-2168.0,774.0,-188.0,16.0,265.0,155,127,120,123,126
2025-02-26 14:06:14.884,670.0,-2096.0,886.0,-160.0,16.0,267.0,155,128,120,124,126
2025-02-26 14:06:14.887,575.0,-1847.0,793.0,-146.0,20.0,263.0,156,128,121,125,125
2025-02-26 14:06:14.896,438.0,-1673.0,488.0,-141.0,19.0,264.0,156,127,121,125,127
2025-02-26 14:06:14.900,261.0,-1553.0,398.0,-134.0,32.0,268.0,155,128,120,127,126
2025-02-26 14:06:14.904,204.0,-1398.0,397.0,-116.0,55.0,273.0,154,127,116,125,125
2025-02-26 14:06:14.912,203.0,-1191.0,426.0,-98.0,65.0,271.0,154,127,120,125,125
2025-02-26 14:06:14.916,255.0,-1170.0,544.0,-88.0,88.0,269.0,156,128,120,128,125
2025-02-26 14:06:14.921,236.0,-963.0,594.0,-66.0,107.0,263.0,155,128,123,127,126
2025-02-26 14:06:14.928,178.0,-862.0,553.0,-41.0,125.0,262.0,156,130,122,125,126
2025-02-26 14:06:14.933,94.0,-777.0,610.0,-40.0,149.0,265.0,155,131,123,128,128
2025-02-26 14:06:14.937,25.0,-606.0,483.0,-28.0,157.0,265.0,155,129,122,126,125
2025-02-26 14:06:14.942,54.0,-297.0,430.0,-10.0,174.0,255.0,156,130,120,125,125
2025-02-26 14:06:14.948,139.0,-411.0,177.0,0.0,174.0,252.0,155,130,122,128,125
2025-02-26 14:06:14.953,-17.0,-237.0,199.0,5.0,171.0,239.0,155,130,122,128,127
2025-02-26 14:06:14.958,-119.0,-104.0,270.0,10.0,187.0,229.0,154,129,122,128,127
2025-02-26 14:06:14.965,-158.0,-230.0,166.0,29.0,203.0,222.0,152,129,122,128,125
2025-02-26 14:06:14.969,-220.0,-151.0,171.0,-22.0,210.0,212.0,152,129,122,127,126
2025-02-26 14:06:14.974,-247.0,-146.0,28.0,-30.0,232.0,208.0,153,130,120,129,126
2025-02-26 14:06:14.978,-276.0,-124.0,-66.0,-83.0,223.0,198.0,155,130,124,128,127
2025-02-26 14:06:14.986,-409.0,-139.0,-108.0,-133.0,194.0,189.0,154,130,124,129,126
2025-02-26 14:06:14.989,-549.0,-196.0,73.0,-151.0,167.0,179.0,155,132,124,130,127
2025-02-26 14:06:14.997,-547.0,-267.0,166.0,-177.0,144.0,168.0,153,131,124,128,127
2025-02-26 14:06:15.002,-546.0,-208.0,80.0,-189.0,131.0,152.0,151,128,123,127,125
2025-02-26 14:06:15.010,-515.0,-121.0,-74.0,-178.0,102.0,132.0,153,128,123,127,125
2025-02-26 14:06:15.014,-506.0,-81.0,-168.0,-165.0,75.0,123.0,154,128,121,128,126
2025-02-26 14:06:15.018,-592.0,-17.0,-295.0,-143.0,60.0,106.0,154,129,124,128,127
2025-02-26 14:06:15.027,-630.0,154.0,-290.0,-129.0,44.0,88.0,153,128,122,127,126
2025-02-26 14:06:15.030,-653.0,71.0,-146.0,-108.0,47.0,78.0,153,129,124,128,127
2025-02-26 14:06:15.034,-631.0,76.0,-211.0,-106.0,34.0,64.0,152,128,122,128,126
2025-02-26 14:06:15.040,-616.0,53.0,-229.0,-111.0,27.0,52.0,153,127,122,126,125
2025-02-26 14:06:15.047,-628.0,61.0,-230.0,-119.0,7.0,46.0,152,127,121,125,125
2025-02-26 14:06:15.051,-670.0,-4.0,-248.0,-123.0,-8.0,38.0,153,127,123,127,127
2025-02-26 14:06:15.056,-660.0,-39.0,-215.0,-118.0,-15.0,31.0,153,128,121,128,126
2025-02-26 14:06:15.063,-597.0,-88.0,-248.0,-100.0,-16.0,27.0,151,128,122,127,126
2025-02-26 14:06:15.068,-589.0,-136.0,-250.0,-70.0,-15.0,26.0,150,127,122,127,126
2025-02-26 14:06:15.072,-643.0,-115.0,-241.0,-41.0,-11.0,26.0,152,129,123,128,126
2025-02-26 14:06:15.080,-662.0,-100.0,-238.0,-3.0,-11.0,26.0,153,128,122,127,126
2025-02-26 14:06:15.084,-703.0,-36.0,-228.0,36.0,-19.0,25.0,152,128,122,129,125
2025-02-26 14:06:15.088,-747.0,17.0,-240.0,62.0,-37.0,19.0,153,127,125,129,127
2025-02-26 14:06:15.094,-741.0,80.0,-211.0,74.0,-52.0,12.0,149,127,123,128,126
2025-02-26 14:06:15.100,-774.0,179.0,-185.0,109.0,-57.0,6.0,151,128,120,128,125
2025-02-26 14:06:15.104,-827.0,245.0,-138.0,135.0,-67.0,3.0,151,127,123,128,126
2025-02-26 14:06:15.108,-884.0,397.0,-84.0,165.0,-65.0,-4.0,151,126,123,129,127
2025-02-26 14:06:15.116,-939.0,514.0,-96.0,183.0,-62.0,-17.0,153,128,124,128,127
2025-02-26 14:06:15.121,-1035.0,559.0,-142.0,217.0,-58.0,-34.0,153,127,121,127,125
2025-02-26 14:06:15.125,-1048.0,783.0,-84.0,200.0,-65.0,-51.0,151,126,122,128,126
2025-02-26 14:06:15.133,-1250.0,1081.0,-54.0,236.0,-58.0,-59.0,153,127,124,130,127
2025-02-26 14:06:15.137,-1437.0,1232.0,-86.0,273.0,-57.0,-83.0,151,128,124,129,127
2025-02-26 14:06:15.145,-1500.0,1433.0,-94.0,300.0,-65.0,-118.0,152,130,123,128,128
2025-02-26 14:06:15.149,-1418.0,1470.0,-119.0,314.0,-77.0,-159.0,153,128,123,129,126
2025-02-26 14:06:15.154,-1267.0,1566.0,-120.0,314.0,-85.0,-210.0,150,129,123,136,127
2025-02-26 14:06:15.161,-1109.0,1648.0,-102.0,318.0,-94.0,-267.0,153,130,124,131,127
2025-02-26 14:06:15.167,-900.0,1661.0,-83.0,317.0,-102.0,-327.0,153,128,124,128,127
2025-02-26 14:06:15.174,-710.0,1442.0,-24.0,319.0,-110.0,-383.0,155,129,124,128,129
2025-02-26 14:06:15.179,-481.0,1133.0,93.0,309.0,-119.0,-434.0,153,129,124,129,126
2025-02-26 14:06:15.182,-304.0,852.0,225.0,282.0,-124.0,-481.0,152,128,123,128,126
2025-02-26 14:06:15.191,112.0,507.0,322.0,251.0,-148.0,-517.0,152,126,122,129,127
2025-02-26 14:06:15.194,642.0,304.0,356.0,220.0,-181.0,-531.0,154,130,123,128,127
2025-02-26 14:06:15.198,1269.0,-277.0,372.0,187.0,-226.0,-542.0,155,128,123,129,128
2025-02-26 14:06:15.207,1857.0,-1161.0,453.0,140.0,-264.0,-536.0,156,128,123,131,128
2025-02-26 14:06:15.208,2257.0,-2201.0,572.0,84.0,-286.0,-519.0,156,130,123,130,128
2025-02-26 14:06:15.215,2422.0,-3165.0,880.0,22.0,-286.0,-483.0,155,128,123,130,128
2025-02-26 14:06:15.222,2452.0,-4016.0,1205.0,-9.0,-278.0,-417.0,153,128,120,127,127
2025-02-26 14:06:15.228,2574.0,-4559.0,1519.0,-59.0,-272.0,-326.0,154,128,119,127,128
2025-02-26 14:06:15.235,2761.0,-4515.0,2311.0,-132.0,-178.0,-210.0,155,129,122,128,127
2025-02-26 14:06:15.240,2393.0,-4527.0,2956.0,-93.0,-73.0,-131.0,155,125,118,128,127
2025-02-26 14:06:15.248,2214.0,-4146.0,1826.0,-116.0,-92.0,-54.0,153,127,120,128,127
2025-02-26 14:06:15.251,1898.0,-3779.0,1311.0,-136.0,-80.0,30.0,155,124,119,129,132
2025-02-26 14:06:15.257,1770.0,-3423.0,1080.0,-116.0,-50.0,128.0,156,124,118,126,128
2025-02-26 14:06:15.264,1668.0,-3144.0,776.0,-116.0,7.0,203.0,155,123,116,127,127
2025-02-26 14:06:15.269,1358.0,-2909.0,577.0,-191.0,37.0,225.0,158,124,116,126,127
2025-02-26 14:06:15.273,1135.0,-2625.0,431.0,-186.0,16.0,242.0,155,124,115,126,125
2025-02-26 14:06:15.280,942.0,-2209.0,539.0,-151.0,-27.0,242.0,157,124,116,127,128
2025-02-26 14:06:15.285,820.0,-2030.0,739.0,-122.0,-10.0,250.0,158,125,117,127,128
2025-02-26 14:06:15.289,627.0,-1771.0,720.0,-73.0,31.0,251.0,155,123,116,128,128
2025-02-26 14:06:15.294,341.0,-1631.0,503.0,-58.0,63.0,245.0,155,124,116,128,127
2025-02-26 14:06:15.301,231.0,-1618.0,302.0,-16.0,73.0,236.0,154,122,114,127,127
2025-02-26 14:06:15.306,125.0,-1641.0,212.0,0.0,102.0,224.0,155,123,115,127,126
2025-02-26 14:06:15.313,105.0,-1637.0,157.0,-10.0,127.0,218.0,157,123,116,128,127
2025-02-26 14:06:15.317,86.0,-1601.0,204.0,-38.0,148.0,205.0,156,124,115,127,126
2025-02-26 14:06:15.321,5.0,-1523.0,27.0,-56.0,134.0,189.0,156,123,117,128,124
2025-02-26 14:06:15.329,-20.0,-1392.0,237.0,-57.0,120.0,176.0,154,122,116,128,124
2025-02-26 14:06:15.334,7.0,-1374.0,275.0,-97.0,112.0,170.0,152,125,117,128,124
2025-02-26 14:06:15.338,61.0,-1287.0,375.0,-104.0,120.0,169.0,153,122,117,127,124
2025-02-26 14:06:15.346,128.0,-1130.0,369.0,-98.0,138.0,170.0,155,125,119,127,125
2025-02-26 14:06:15.350,57.0,-1019.0,363.0,-116.0,125.0,175.0,155,125,120,127,125
2025-02-26 14:06:15.355,14.0,-951.0,110.0,-133.0,103.0,182.0,156,124,119,128,125
2025-02-26 14:06:15.362,-40.0,-856.0,26.0,-146.0,88.0,187.0,157,126,119,128,124
2025-02-26 14:06:15.367,-47.0,-856.0,69.0,-173.0,88.0,202.0,154,122,119,128,124
2025-02-26 14:06:15.371,-86.0,-778.0,152.0,-196.0,67.0,207.0,155,122,119,129,124
2025-02-26 14:06:15.379,-134.0,-691.0,165.0,-204.0,55.0,219.0,156,122,120,128,125
2025-02-26 14:06:15.383,-99.0,-642.0,267.0,-234.0,48.0,228.0,155,122,121,128,123
2025-02-26 14:06:15.387,-84.0,-681.0,223.0,-266.0,39.0,233.0,154,120,120,128,123
2025-02-26 14:06:15.391,-85.0,-521.0,86.0,-343.0,20.0,232.0,152,119,119,125,124
2025-02-26 14:06:15.400,-122.0,-466.0,153.0,-355.0,15.0,231.0,152,118,118,128,123
2025-02-26 14:06:15.405,-90.0,-390.0,162.0,-372.0,-2.0,227.0,154,112,118,127,118
2025-02-26 14:06:15.408,-95.0,-320.0,84.0,-364.0,-1.0,224.0,157,115,119,128,123
2025-02-26 14:06:15.416,-187.0,-236.0,138.0,-328.0,13.0,223.0,155,114,119,129,123
2025-02-26 14:06:15.417,-237.0,-315.0,136.0,-303.0,26.0,222.0,156,111,118,126,122
2025-02-26 14:06:15.425,-322.0,-198.0,434.0,-221.0,22.0,218.0,156,109,118,125,121
2025-02-26 14:06:15.431,-353.0,-437.0,529.0,-139.0,13.0,210.0,155,109,116,127,122
2025-02-26 14:06:15.431,-317.0,-415.0,343.0,-102.0,20.0,210.0,154,107,116,124,118
2025-02-26 14:06:15.431,-230.0,-122.0,-89.0,-95.0,35.0,210.0,155,105,115,128,120
2025-02-26 14:06:15.446,-357.0,33.0,-92.0,-75.0,46.0,206.0,154,104,112,124,118
2025-02-26 14:06:15.450,-384.0,1.0,114.0,-65.0,61.0,207.0,154,104,114,126,118
2025-02-26 14:06:15.457,-394.0,-49.0,78.0,-61.0,65.0,205.0,154,101,111,123,115
2025-02-26 14:06:15.462,-411.0,-35.0,23.0,-56.0,72.0,202.0,153,100,112,121,113
2025-02-26 14:06:15.469,-408.0,40.0,40.0,-35.0,77.0,195.0,155,99,109,122,114
2025-02-26 14:06:15.473,-469.0,8.0,2.0,-24.0,80.0,187.0,154,97,109,123,111
2025-02-26 14:06:15.477,-488.0,49.0,-69.0,-13.0,78.0,176.0,153,99,107,120,108
2025-02-26 14:06:15.480,-563.0,80.0,-118.0,7.0,71.0,170.0,156,94,106,116,108
2025-02-26 14:06:15.489,-588.0,127.0,-110.0,19.0,62.0,158.0,153,90,104,117,106
2025-02-26 14:06:15.493,-672.0,64.0,-48.0,45.0,62.0,148.0,151,87,107,115,102
2025-02-26 14:06:15.497,-701.0,79.0,-78.0,59.0,60.0,143.0,154,82,99,111,99
2025-02-26 14:06:15.498,-801.0,122.0,-135.0,57.0,49.0,132.0,153,82,101,109,95
2025-02-26 14:06:15.510,-825.0,222.0,-208.0,58.0,38.0,123.0,153,75,96,105,92
2025-02-26 14:06:15.514,-837.0,298.0,-234.0,70.0,31.0,117.0,149,72,92,102,88
2025-02-26 14:06:15.518,-850.0,347.0,-234.0,78.0,16.0,113.0,152,70,91,99,83
2025-02-26 14:06:15.522,-854.0,426.0,-256.0,81.0,-2.0,103.0,153,66,91,98,79
2025-02-26 14:06:15.527,-916.0,548.0,-133.0,96.0,-6.0,94.0,152,64,84,94,76
2025-02-26 14:06:15.535,-1032.0,552.0,26.0,132.0,-2.0,90.0,154,62,82,94,75
2025-02-26 14:06:15.539,-956.0,571.0,46.0,152.0,8.0,92.0,150,60,80,93,72
2025-02-26 14:06:15.542,-857.0,626.0,90.0,182.0,10.0,88.0,151,57,76,90,66
2025-02-26 14:06:15.547,-757.0,885.0,-24.0,221.0,-1.0,82.0,151,59,76,93,66
2025-02-26 14:06:15.552,-962.0,1040.0,269.0,252.0,41.0,74.0,150,57,74,92,66
2025-02-26 14:06:15.559,-1077.0,1086.0,391.0,313.0,66.0,62.0,148,56,70,92,63
2025-02-26 14:06:15.563,-848.0,1136.0,466.0,225.0,116.0,42.0,146,55,69,96,63
2025-02-26 14:06:15.565,-712.0,1313.0,-58.0,242.0,115.0,-10.0,150,55,69,95,64
2025-02-26 14:06:15.572,-778.0,1408.0,35.0,238.0,131.0,-61.0,148,53,70,96,64
2025-02-26 14:06:15.580,-772.0,1301.0,-317.0,246.0,123.0,-97.0,147,51,68,96,66
2025-02-26 14:06:15.583,-847.0,1535.0,-463.0,279.0,122.0,-185.0,147,53,67,96,67
2025-02-26 14:06:15.588,-626.0,1991.0,-756.0,297.0,117.0,-278.0,148,50,65,96,66
2025-02-26 14:06:15.595,-464.0,2008.0,-1053.0,356.0,116.0,-339.0,148,50,64,95,65
2025-02-26 14:06:15.600,-579.0,1492.0,-1598.0,308.0,85.0,-417.0,147,50,62,90,64
2025-02-26 14:06:15.604,-708.0,1805.0,-1317.0,308.0,61.0,-467.0,146,52,64,88,64
2025-02-26 14:06:15.608,-963.0,1382.0,-1384.0,289.0,-20.0,-548.0,150,53,63,84,65
2025-02-26 14:06:15.614,-1580.0,1212.0,-1118.0,280.0,-135.0,-636.0,148,52,64,79,64
2025-02-26 14:06:15.621,-1182.0,1385.0,-1029.0,256.0,-249.0,-706.0,149,50,62,76,63
2025-02-26 14:06:15.625,-521.0,1111.0,-919.0,207.0,-298.0,-746.0,149,50,61,78,63
2025-02-26 14:06:15.633,-67.0,537.0,-898.0,167.0,-392.0,-779.0,150,52,61,77,65
2025-02-26 14:06:15.645,640.0,225.0,-778.0,148.0,-492.0,-797.0,153,51,63,77,63
2025-02-26 14:06:15.647,969.0,-404.0,-617.0,151.0,-548.0,-818.0,151,53,62,77,65
2025-02-26 14:06:15.650,1661.0,-1156.0,-309.0,156.0,-557.0,-803.0,151,51,62,79,65
2025-02-26 14:06:15.654,2952.0,-2255.0,269.0,179.0,-541.0,-664.0,151,53,64,81,69
2025-02-26 14:06:15.658,3647.0,-4040.0,1314.0,156.0,-443.0,-430.0,153,52,64,77,66
2025-02-26 14:06:15.666,4347.0,-4971.0,2438.0,86.0,-292.0,-316.0,151,50,63,79,65
2025-02-26 14:06:15.669,4514.0,-6042.0,3321.0,113.0,-159.0,-122.0,155,54,69,82,69
2025-02-26 14:06:15.674,4859.0,-6075.0,3544.0,207.0,-59.0,0.0,152,53,68,79,68
2025-02-26 14:06:15.681,4647.0,-5777.0,3381.0,262.0,35.0,64.0,152,53,71,77,66
2025-02-26 14:06:15.686,4186.0,-5273.0,2680.0,326.0,95.0,112.0,162,65,80,85,75
2025-02-26 14:06:15.691,3022.0,-4720.0,1791.0,310.0,229.0,138.0,173,75,92,93,82
2025-02-26 14:06:15.695,1861.0,-3204.0,1398.0,191.0,305.0,185.0,162,64,84,81,72
2025-02-26 14:06:15.702,925.0,-2289.0,874.0,138.0,246.0,212.0,166,68,88,86,76
2025-02-26 14:06:15.707,555.0,-1284.0,756.0,27.0,197.0,215.0,162,65,83,84,71
2025-02-26 14:06:15.711,15.0,-1171.0,601.0,-72.0,80.0,204.0,162,63,83,83,71
2025-02-26 14:06:15.715,73.0,-819.0,598.0,-171.0,2.0,185.0,165,68,86,86,74
2025-02-26 14:06:15.723,214.0,-1078.0,640.0,-226.0,-19.0,162.0,163,65,80,82,72
2025-02-26 14:06:15.727,179.0,-1397.0,437.0,-260.0,-38.0,152.0,175,77,95,101,86
2025-02-26 14:06:15.731,238.0,-1618.0,326.0,-280.0,-29.0,131.0,175,79,95,105,89
2025-02-26 14:06:15.736,149.0,-1947.0,320.0,-259.0,8.0,126.0,174,78,92,102,86
2025-02-26 14:06:15.743,-63.0,-2239.0,235.0,-245.0,36.0,133.0,171,75,86,103,85
2025-02-26 14:06:15.747,-52.0,-2351.0,142.0,-227.0,46.0,153.0,169,73,87,98,84
2025-02-26 14:06:15.752,-71.0,-2238.0,150.0,-189.0,48.0,162.0,162,76,90,102,86
2025-02-26 14:06:15.759,-178.0,-2072.0,101.0,-193.0,39.0,185.0,171,75,87,103,85
2025-02-26 14:06:15.763,-39.0,-1763.0,94.0,-191.0,21.0,203.0,168,72,85,98,82
2025-02-26 14:06:15.768,-122.0,-1507.0,156.0,-183.0,20.0,219.0,166,68,81,97,79
2025-02-26 14:06:15.772,-38.0,-1464.0,45.0,-182.0,12.0,224.0,167,69,82,98,83
2025-02-26 14:06:15.780,-137.0,-1206.0,-4.0,-169.0,3.0,233.0,170,72,83,100,83
2025-02-26 14:06:15.784,-158.0,-945.0,107.0,-181.0,7.0,240.0,165,71,82,99,83
2025-02-26 14:06:15.788,-189.0,-724.0,87.0,-202.0,13.0,241.0,170,76,86,101,85
2025-02-26 14:06:15.792,-251.0,-654.0,195.0,-193.0,-4.0,241.0,172,77,87,104,88
2025-02-26 14:06:15.801,-220.0,-466.0,254.0,-155.0,-30.0,223.0,172,77,88,104,88
2025-02-26 14:06:15.803,-104.0,-177.0,341.0,-147.0,-36.0,197.0,173,78,85,101,88
2025-02-26 14:06:15.809,-188.0,-93.0,327.0,-140.0,-28.0,172.0,169,77,87,104,88
2025-02-26 14:06:15.813,-156.0,-124.0,274.0,-164.0,5.0,164.0,169,73,85,100,85
2025-02-26 14:06:15.821,-440.0,-57.0,181.0,-159.0,30.0,158.0,171,76,90,105,89
2025-02-26 14:06:15.826,-366.0,28.0,210.0,-173.0,54.0,149.0,173,76,91,103,87
2025-02-26 14:06:15.830,-389.0,41.0,103.0,-187.0,55.0,144.0,173,77,93,106,89
2025-02-26 14:06:15.834,-522.0,17.0,107.0,-177.0,41.0,140.0,174,83,94,105,90
2025-02-26 14:06:15.842,-534.0,4.0,51.0,-161.0,22.0,130.0,174,78,92,103,89
2025-02-26 14:06:15.845,-517.0,24.0,35.0,-146.0,15.0,117.0,171,73,90,102,85
2025-02-26 14:06:15.850,-515.0,2.0,-4.0,-130.0,17.0,112.0,171,77,93,105,87
2025-02-26 14:06:15.854,-569.0,-42.0,-11.0,-119.0,14.0,101.0,172,78,93,105,88
2025-02-26 14:06:15.858,-549.0,-43.0,-61.0,-118.0,14.0,96.0,172,75,90,100,86
2025-02-26 14:06:15.866,-572.0,-65.0,-88.0,-118.0,14.0,94.0,169,74,89,100,86
2025-02-26 14:06:15.870,-596.0,-51.0,-187.0,-114.0,18.0,96.0,175,77,94,108,90
2025-02-26 14:06:15.875,-581.0,-166.0,-115.0,-111.0,16.0,96.0,171,77,92,105,88
2025-02-26 14:06:15.879,-597.0,-125.0,-166.0,-99.0,16.0,97.0,170,74,89,102,85
2025-02-26 14:06:15.887,-588.0,-144.0,-145.0,-71.0,10.0,98.0,170,74,88,99,85
2025-02-26 14:06:15.890,-621.0,-141.0,-93.0,-38.0,4.0,93.0,174,79,92,104,90
2025-02-26 14:06:15.895,-545.0,-89.0,-5.0,-19.0,4.0,84.0,172,76,91,102,88
2025-02-26 14:06:15.899,-513.0,-31.0,52.0,7.0,4.0,78.0,169,74,87,103,87
2025-02-26 14:06:15.904,-496.0,-2.0,41.0,23.0,21.0,71.0,171,77,91,105,89
2025-02-26 14:06:15.911,-524.0,98.0,47.0,27.0,45.0,66.0,171,77,92,105,90
2025-02-26 14:06:15.915,-555.0,196.0,-12.0,38.0,54.0,65.0,172,76,90,103,88
2025-02-26 14:06:15.920,-610.0,240.0,-16.0,51.0,60.0,59.0,173,78,91,105,89
2025-02-26 14:06:15.924,-628.0,355.0,-67.0,57.0,56.0,46.0,172,77,91,106,90
2025-02-26 14:06:15.928,-671.0,454.0,-132.0,70.0,52.0,27.0,172,76,90,103,88
2025-02-26 14:06:15.936,-734.0,513.0,-164.0,80.0,41.0,17.0,174,79,91,105,90
2025-02-26 14:06:15.940,-804.0,605.0,-230.0,85.0,27.0,-5.0,172,75,89,104,88
2025-02-26 14:06:15.943,-828.0,683.0,-260.0,94.0,20.0,-28.0,169,74,90,101,87
2025-02-26 14:06:15.948,-885.0,722.0,-262.0,102.0,1.0,-39.0,171,78,94,106,90
2025-02-26 14:06:15.952,-910.0,786.0,-266.0,108.0,-20.0,-63.0,172,76,89,104,88
2025-02-26 14:06:15.960,-904.0,774.0,-216.0,117.0,-30.0,-89.0,170,75,88,101,85
2025-02-26 14:06:15.964,-910.0,757.0,-195.0,127.0,-48.0,-102.0,173,76,90,104,88
2025-02-26 14:06:15.969,-942.0,764.0,-183.0,134.0,-63.0,-126.0,171,78,91,104,90
2025-02-26 14:06:15.976,-952.0,708.0,-144.0,162.0,-69.0,-152.0,168,75,90,103,86
2025-02-26 14:06:15.978,-937.0,713.0,-72.0,171.0,-74.0,-177.0,167,70,88,100,85
2025-02-26 14:06:15.985,-857.0,687.0,-47.0,176.0,-70.0,-190.0,174,75,90,105,88
2025-02-26 14:06:15.990,-782.0,649.0,-4.0,184.0,-61.0,-215.0,172,77,86,105,90
2025-02-26 14:06:15.998,-766.0,536.0,9.0,182.0,-52.0,-240.0,171,77,90,105,88
2025-02-26 14:06:16.002,-743.0,456.0,23.0,184.0,-48.0,-264.0,169,73,87,102,84
2025-02-26 14:06:16.002,-691.0,413.0,24.0,191.0,-46.0,-277.0,170,76,90,105,89
2025-02-26 14:06:16.010,-602.0,330.0,25.0,195.0,-54.0,-305.0,171,77,92,104,90
2025-02-26 14:06:16.015,-488.0,304.0,44.0,190.0,-58.0,-335.0,171,75,88,103,87
2025-02-26 14:06:16.022,-427.0,198.0,39.0,187.0,-72.0,-349.0,170,73,87,102,85
2025-02-26 14:06:16.026,-280.0,142.0,43.0,176.0,-93.0,-377.0,172,78,90,105,90
2025-02-26 14:06:16.031,-88.0,-18.0,72.0,171.0,-130.0,-400.0,171,76,85,105,90
2025-02-26 14:06:16.038,43.0,-217.0,115.0,166.0,-154.0,-421.0,168,75,88,101,88
2025-02-26 14:06:16.043,346.0,-566.0,154.0,157.0,-205.0,-432.0,167,73,86,101,85
2025-02-26 14:06:16.044,667.0,-781.0,188.0,141.0,-244.0,-450.0,173,77,90,103,90
2025-02-26 14:06:16.055,927.0,-1306.0,212.0,116.0,-263.0,-458.0,172,78,90,107,91
2025-02-26 14:06:16.057,1282.0,-1923.0,264.0,107.0,-260.0,-448.0,170,74,88,104,89
2025-02-26 14:06:16.063,1640.0,-2759.0,534.0,82.0,-230.0,-417.0,167,73,87,100,89
2025-02-26 14:06:16.069,1828.0,-3652.0,876.0,70.0,-210.0,-350.0,168,74,90,102,89
2025-02-26 14:06:16.075,2180.0,-4044.0,1304.0,55.0,-160.0,-308.0,168,71,88,100,87
2025-02-26 14:06:16.079,2490.0,-4841.0,1583.0,29.0,-93.0,-210.0,193,98,117,126,117
2025-02-26 14:06:16.088,2830.0,-5293.0,1588.0,38.0,-20.0,-104.0,192,99,118,123,115
2025-02-26 14:06:16.091,2787.0,-5466.0,1534.0,34.0,59.0,4.0,167,74,93,93,88
2025-02-26 14:06:16.095,2736.0,-5212.0,1171.0,53.0,91.0,96.0,189,94,113,114,108
2025-02-26 14:06:16.103,2483.0,-4494.0,753.0,100.0,169.0,167.0,191,95,117,117,108
2025-02-26 14:06:16.105,2086.0,-4068.0,543.0,132.0,223.0,200.0,186,95,112,115,107
2025-02-26 14:06:16.113,1733.0,-2970.0,658.0,81.0,240.0,245.0,186,93,113,115,107
2025-02-26 14:06:16.120,1330.0,-1928.0,428.0,-10.0,219.0,252.0,172,76,97,99,91
2025-02-26 14:06:16.125,856.0,-1333.0,411.0,-49.0,153.0,242.0,168,75,96,99,90
2025-02-26 14:06:16.129,769.0,-1196.0,399.0,-138.0,112.0,229.0,162,67,87,87,79
2025-02-26 14:06:16.130,387.0,-1154.0,137.0,-199.0,41.0,225.0,161,66,87,88,81
2025-02-26 14:06:16.141,342.0,-1107.0,84.0,-193.0,-15.0,212.0,162,65,83,89,81
2025-02-26 14:06:16.145,300.0,-1393.0,63.0,-183.0,-37.0,212.0,157,64,83,92,80
2025-02-26 14:06:16.150,200.0,-1567.0,101.0,-191.0,-27.0,224.0,158,64,81,91,81
2025-02-26 14:06:16.154,197.0,-1604.0,-33.0,-192.0,7.0,222.0,160,65,82,93,81
2025-02-26 14:06:16.161,125.0,-1655.0,98.0,-248.0,21.0,233.0,159,63,80,92,81
2025-02-26 14:06:16.166,173.0,-1629.0,145.0,-242.0,31.0,236.0,159,62,78,91,80
2025-02-26 14:06:16.170,187.0,-1626.0,79.0,-224.0,56.0,238.0,158,63,79,95,83
2025-02-26 14:06:16.173,68.0,-1498.0,218.0,-199.0,88.0,249.0,161,64,80,95,83
2025-02-26 14:06:16.181,42.0,-1303.0,243.0,-181.0,116.0,266.0,157,63,77,94,83
2025-02-26 14:06:16.185,92.0,-1008.0,216.0,-179.0,138.0,274.0,158,62,76,93,81
2025-02-26 14:06:16.190,193.0,-919.0,232.0,-171.0,146.0,274.0,159,66,79,96,84
2025-02-26 14:06:16.194,-38.0,-768.0,157.0,-165.0,132.0,283.0,159,64,80,99,84
2025-02-26 14:06:16.202,-117.0,-496.0,311.0,-154.0,104.0,288.0,158,65,81,97,84
2025-02-26 14:06:16.207,-154.0,-363.0,310.0,-139.0,78.0,283.0,159,64,80,96,84
2025-02-26 14:06:16.211,-208.0,-213.0,289.0,-172.0,42.0,278.0,156,67,84,96,85
2025-02-26 14:06:16.215,-232.0,-58.0,98.0,-209.0,31.0,266.0,161,66,85,99,86
2025-02-26 14:06:16.223,-430.0,135.0,-24.0,-206.0,34.0,269.0,157,66,84,98,85
2025-02-26 14:06:16.227,-412.0,297.0,415.0,-157.0,41.0,267.0,156,65,85,96,85
2025-02-26 14:06:16.231,-358.0,302.0,389.0,-114.0,61.0,260.0,157,73,88,99,87
2025-02-26 14:06:16.235,-452.0,307.0,-38.0,-107.0,60.0,250.0,155,67,88,98,87
2025-02-26 14:06:16.239,-500.0,380.0,6.0,-109.0,59.0,233.0,158,69,90,99,89
2025-02-26 14:06:16.247,-565.0,443.0,-2.0,-115.0,59.0,224.0,157,69,90,98,88
2025-02-26 14:06:16.252,-564.0,465.0,-68.0,-111.0,57.0,204.0,158,70,90,99,88
2025-02-26 14:06:16.255,-579.0,446.0,-26.0,-102.0,57.0,179.0,155,69,89,99,86
2025-02-26 14:06:16.260,-575.0,416.0,-193.0,-92.0,54.0,163.0,155,68,88,100,87
2025-02-26 14:06:16.268,-605.0,405.0,-188.0,-86.0,48.0,132.0,156,71,90,100,87
2025-02-26 14:06:16.272,-661.0,358.0,-246.0,-77.0,44.0,107.0,158,69,89,98,87
2025-02-26 14:06:16.276,-678.0,271.0,-252.0,-56.0,41.0,83.0,152,67,87,98,86
2025-02-26 14:06:16.281,-647.0,214.0,-283.0,-21.0,37.0,72.0,154,69,91,101,88
2025-02-26 14:06:16.288,-621.0,124.0,-277.0,-1.0,37.0,57.0,153,69,90,100,88
2025-02-26 14:06:16.292,-609.0,34.0,-323.0,33.0,37.0,47.0,154,69,84,100,87
2025-02-26 14:06:16.297,-612.0,28.0,-378.0,58.0,36.0,43.0,153,72,91,101,89
2025-02-26 14:06:16.301,-653.0,-16.0,-402.0,62.0,30.0,37.0,156,72,93,105,87
2025-02-26 14:06:16.305,-632.0,19.0,-385.0,73.0,29.0,34.0,154,71,95,102,88
2025-02-26 14:06:16.313,-656.0,-42.0,-342.0,87.0,25.0,31.0,155,75,96,103,90
2025-02-26 14:06:16.317,-664.0,7.0,-335.0,101.0,20.0,28.0,155,74,99,102,90
2025-02-26 14:06:16.321,-689.0,24.0,-471.0,105.0,12.0,20.0,154,72,98,102,89
2025-02-26 14:06:16.325,-707.0,76.0,-543.0,96.0,-10.0,17.0,156,75,100,104,89
2025-02-26 14:06:16.330,-775.0,-14.0,-625.0,87.0,-41.0,16.0,156,77,101,104,92
2025-02-26 14:06:16.336,-826.0,139.0,-561.0,83.0,-59.0,4.0,153,79,102,105,90
2025-02-26 14:06:16.341,-791.0,160.0,-455.0,88.0,-86.0,-4.0,149,78,100,102,89
2025-02-26 14:06:16.345,-666.0,352.0,-203.0,79.0,-81.0,-35.0,155,82,103,106,90
2025-02-26 14:06:16.350,-609.0,339.0,-111.0,90.0,-85.0,-57.0,154,84,106,107,91
2025-02-26 14:06:16.358,-615.0,341.0,-14.0,90.0,-83.0,-74.0,156,88,108,106,91
2025-02-26 14:06:16.359,-659.0,251.0,-22.0,101.0,-59.0,-79.0,152,91,110,104,89
2025-02-26 14:06:16.366,-698.0,326.0,-191.0,130.0,-62.0,-92.0,153,95,116,109,95
2025-02-26 14:06:16.374,-677.0,314.0,-588.0,118.0,-72.0,-110.0,151,97,117,109,94
2025-02-26 14:06:16.378,-828.0,466.0,-484.0,125.0,-66.0,-146.0,150,101,120,108,97
2025-02-26 14:06:16.383,-1042.0,602.0,-365.0,154.0,-61.0,-179.0,145,100,121,109,96
2025-02-26 14:06:16.391,-1123.0,576.0,-296.0,186.0,-59.0,-198.0,144,104,125,110,94
2025-02-26 14:06:16.395,-1245.0,562.0,-242.0,216.0,-61.0,-210.0,142,107,125,110,95
2025-02-26 14:06:16.399,-1173.0,639.0,-261.0,238.0,-65.0,-235.0,136,108,128,105,95
2025-02-26 14:06:16.407,-1060.0,710.0,-233.0,254.0,-74.0,-261.0,139,110,129,112,95
2025-02-26 14:06:16.411,-851.0,806.0,-259.0,286.0,-88.0,-294.0,134,113,128,112,97
2025-02-26 14:06:16.416,-602.0,646.0,-265.0,313.0,-101.0,-322.0,134,114,131,113,96
2025-02-26 14:06:16.424,-646.0,690.0,-96.0,339.0,-94.0,-354.0,134,114,129,111,95
2025-02-26 14:06:16.428,-649.0,417.0,12.0,348.0,-95.0,-401.0,134,118,135,113,97
2025-02-26 14:06:16.432,-539.0,428.0,182.0,350.0,-103.0,-421.0,130,117,130,111,95
2025-02-26 14:06:16.439,-258.0,356.0,329.0,347.0,-113.0,-456.0,130,119,132,112,96
2025-02-26 14:06:16.444,-6.0,231.0,249.0,326.0,-135.0,-491.0,128,123,134,116,97
2025-02-26 14:06:16.449,174.0,-18.0,383.0,306.0,-156.0,-526.0,127,124,133,117,97
2025-02-26 14:06:16.456,461.0,-350.0,500.0,302.0,-179.0,-554.0,128,124,133,116,95
2025-02-26 14:06:16.460,648.0,-710.0,560.0,301.0,-193.0,-576.0,125,123,131,118,94
2025-02-26 14:06:16.462,990.0,-1195.0,719.0,291.0,-219.0,-589.0,123,125,133,118,93
2025-02-26 14:06:16.472,1392.0,-1486.0,1044.0,264.0,-232.0,-586.0,124,125,131,118,93
2025-02-26 14:06:16.477,1851.0,-2092.0,1680.0,246.0,-225.0,-547.0,126,128,132,120,94
2025-02-26 14:06:16.485,2186.0,-2670.0,2071.0,246.0,-191.0,-464.0,126,131,132,119,96
2025-02-26 14:06:16.489,2580.0,-3084.0,2119.0,238.0,-138.0,-362.0,129,128,135,123,97
2025-02-26 14:06:16.494,2903.0,-3427.0,2229.0,198.0,-84.0,-246.0,127,133,132,119,95
2025-02-26 14:06:16.501,3087.0,-3560.0,2328.0,147.0,-25.0,-110.0,128,133,126,118,95
2025-02-26 14:06:16.506,3127.0,-3528.0,2325.0,103.0,42.0,18.0,125,134,130,117,95
2025-02-26 14:06:16.510,2871.0,-3392.0,2325.0,77.0,88.0,129.0,125,135,131,118,94
2025-02-26 14:06:16.518,2602.0,-3094.0,2077.0,-18.0,103.0,215.0,122,133,129,115,91
2025-02-26 14:06:16.522,2153.0,-2702.0,1783.0,-68.0,124.0,260.0,122,132,128,114,89
2025-02-26 14:06:16.530,1644.0,-2497.0,1604.0,-124.0,118.0,272.0,124,134,129,115,90
2025-02-26 14:06:16.534,1168.0,-2108.0,1358.0,-162.0,111.0,281.0,122,134,129,115,89
2025-02-26 14:06:16.538,750.0,-1835.0,1100.0,-188.0,96.0,281.0,121,134,130,115,88
2025-02-26 14:06:16.546,514.0,-1668.0,1011.0,-199.0,80.0,271.0,118,134,129,115,88
2025-02-26 14:06:16.550,392.0,-1494.0,753.0,-198.0,57.0,253.0,120,134,131,116,89
2025-02-26 14:06:16.555,291.0,-1410.0,588.0,-196.0,32.0,229.0,117,132,124,119,87
2025-02-26 14:06:16.563,255.0,-1348.0,542.0,-184.0,23.0,204.0,117,132,129,113,85
2025-02-26 14:06:16.566,201.0,-1344.0,498.0,-167.0,4.0,193.0,114,131,129,117,85
2025-02-26 14:06:16.571,129.0,-1324.0,510.0,-154.0,-11.0,176.0,117,134,131,123,88
2025-02-26 14:06:16.579,118.0,-1281.0,537.0,-142.0,-24.0,167.0,117,132,130,121,88
2025-02-26 14:06:16.583,95.0,-1225.0,574.0,-136.0,-32.0,163.0,117,133,132,124,88
2025-02-26 14:06:16.587,107.0,-1179.0,554.0,-127.0,-38.0,166.0,114,133,132,126,87
2025-02-26 14:06:16.592,103.0,-1093.0,594.0,-117.0,-39.0,172.0,112,131,131,124,86
2025-02-26 14:06:16.597,97.0,-997.0,610.0,-109.0,-40.0,177.0,113,131,131,124,87
2025-02-26 14:06:16.604,64.0,-940.0,604.0,-101.0,-35.0,188.0,114,134,134,124,88
2025-02-26 14:06:16.609,11.0,-830.0,648.0,-96.0,-26.0,200.0,116,134,136,125,89
2025-02-26 14:06:16.616,-59.0,-708.0,608.0,-96.0,-17.0,211.0,114,132,135,125,89
2025-02-26 14:06:16.620,-81.0,-630.0,614.0,-95.0,-11.0,221.0,110,131,132,128,89
2025-02-26 14:06:16.625,-79.0,-523.0,534.0,-101.0,1.0,224.0,113,131,133,122,88
2025-02-26 14:06:16.632,-135.0,-453.0,547.0,-114.0,11.0,229.0,118,135,135,120,91
2025-02-26 14:06:16.637,-149.0,-349.0,518.0,-124.0,23.0,232.0,116,134,135,125,90
2025-02-26 14:06:16.641,-157.0,-275.0,501.0,-125.0,34.0,232.0,116,132,131,125,89
2025-02-26 14:06:16.649,-170.0,-206.0,461.0,-134.0,39.0,229.0,114,133,134,124,90
2025-02-26 14:06:16.653,-197.0,-179.0,430.0,-135.0,47.0,221.0,115,132,133,126,89
2025-02-26 14:06:16.657,-225.0,-170.0,365.0,-135.0,56.0,216.0,114,132,134,124,91
2025-02-26 14:06:16.661,-251.0,-196.0,352.0,-134.0,62.0,203.0,115,133,134,125,90
2025-02-26 14:06:16.669,-276.0,-174.0,352.0,-132.0,70.0,190.0,116,133,135,126,92
2025-02-26 14:06:16.673,-327.0,-154.0,314.0,-127.0,80.0,175.0,115,132,135,125,90
2025-02-26 14:06:16.675,-356.0,-136.0,250.0,-121.0,85.0,160.0,114,130,133,122,88
2025-02-26 14:06:16.685,-414.0,-81.0,175.0,-116.0,89.0,151.0,117,129,133,122,88
2025-02-26 14:06:16.689,-460.0,-74.0,89.0,-112.0,89.0,134.0,117,132,135,125,90
2025-02-26 14:06:16.694,-516.0,-60.0,50.0,-108.0,87.0,119.0,117,130,135,125,89
2025-02-26 14:06:16.700,-586.0,-116.0,-22.0,-104.0,80.0,109.0,114,128,134,124,93
2025-02-26 14:06:16.706,-606.0,-178.0,-102.0,-101.0,77.0,104.0,115,128,134,124,88
2025-02-26 14:06:16.710,-624.0,-238.0,-164.0,-95.0,64.0,102.0,116,130,133,124,90
2025-02-26 14:06:16.718,-634.0,-275.0,-214.0,-85.0,49.0,97.0,117,129,134,125,89
2025-02-26 14:06:16.723,-651.0,-308.0,-212.0,-72.0,33.0,93.0,116,130,135,125,90
2025-02-26 14:06:16.723,-647.0,-341.0,-202.0,-61.0,19.0,90.0,117,131,136,125,91
2025-02-26 14:06:16.730,-625.0,-351.0,-184.0,-45.0,13.0,86.0,115,127,133,122,88
2025-02-26 14:06:16.736,-599.0,-308.0,-172.0,-26.0,5.0,82.0,115,128,131,123,89
2025-02-26 14:06:16.743,-571.0,-286.0,-128.0,-11.0,4.0,79.0,115,130,135,125,90
2025-02-26 14:06:16.748,-546.0,-256.0,-105.0,4.0,4.0,73.0,119,130,136,126,91
2025-02-26 14:06:16.752,-572.0,-223.0,-62.0,10.0,8.0,65.0,115,128,133,123,89
2025-02-26 14:06:16.760,-570.0,-183.0,-24.0,23.0,10.0,62.0,115,126,134,123,89
2025-02-26 14:06:16.761,-589.0,-155.0,-20.0,35.0,15.0,54.0,118,130,135,124,90
2025-02-26 14:06:16.765,-632.0,-88.0,-11.0,40.0,20.0,47.0,117,129,135,126,90
2025-02-26 14:06:16.772,-658.0,1.0,-36.0,49.0,20.0,42.0,118,129,133,124,89
2025-02-26 14:06:16.777,-729.0,49.0,-57.0,54.0,19.0,40.0,117,129,135,124,90
2025-02-26 14:06:16.784,-809.0,200.0,-39.0,58.0,13.0,34.0,117,128,135,126,90
2025-02-26 14:06:16.789,-888.0,364.0,-98.0,56.0,9.0,29.0,115,127,134,125,90
2025-02-26 14:06:16.792,-944.0,477.0,-116.0,47.0,-5.0,25.0,114,127,133,123,88
2025-02-26 14:06:16.800,-1083.0,656.0,-110.0,40.0,-21.0,15.0,116,127,134,125,90
2025-02-26 14:06:16.804,-1181.0,810.0,-126.0,35.0,-39.0,0.0,118,127,134,125,90
2025-02-26 14:06:16.809,-1185.0,878.0,-107.0,39.0,-45.0,-28.0,117,127,130,124,90
2025-02-26 14:06:16.817,-1188.0,864.0,-114.0,60.0,-57.0,-75.0,117,126,134,123,90
2025-02-26 14:06:16.821,-1154.0,856.0,-100.0,83.0,-61.0,-103.0,117,127,132,125,89
2025-02-26 14:06:16.825,-1085.0,783.0,-92.0,125.0,-51.0,-157.0,119,129,134,125,90
2025-02-26 14:06:16.832,-999.0,673.0,-22.0,161.0,-28.0,-208.0,119,127,134,127,90
2025-02-26 14:06:16.837,-964.0,644.0,69.0,178.0,-2.0,-260.0,117,126,133,126,89
2025-02-26 14:06:16.841,-950.0,744.0,87.0,198.0,4.0,-318.0,117,125,133,125,89
2025-02-26 14:06:16.846,-883.0,855.0,54.0,205.0,5.0,-346.0,119,126,134,126,89
2025-02-26 14:06:16.852,-795.0,966.0,91.0,197.0,-4.0,-397.0,121,128,134,126,89
2025-02-26 14:06:16.857,-613.0,906.0,155.0,187.0,-17.0,-446.0,118,126,135,126,88
2025-02-26 14:06:16.862,-377.0,757.0,207.0,155.0,-25.0,-492.0,116,127,132,125,87
2025-02-26 14:06:16.869,-273.0,520.0,267.0,116.0,-48.0,-535.0,115,128,134,126,88
2025-02-26 14:06:16.874,-40.0,365.0,326.0,72.0,-71.0,-554.0,116,126,133,127,87
2025-02-26 14:06:16.878,258.0,22.0,330.0,41.0,-93.0,-583.0,114,127,135,128,87
2025-02-26 14:06:16.882,633.0,-441.0,350.0,33.0,-115.0,-607.0,114,128,134,128,92
2025-02-26 14:06:16.890,1033.0,-895.0,415.0,27.0,-125.0,-623.0,114,128,134,128,85
2025-02-26 14:06:16.894,1206.0,-1396.0,466.0,37.0,-145.0,-618.0,113,128,133,128,87
2025-02-26 14:06:16.899,1431.0,-1644.0,581.0,49.0,-164.0,-602.0,114,127,133,126,87
2025-02-26 14:06:16.907,1660.0,-2154.0,815.0,54.0,-177.0,-558.0,117,129,134,127,88
2025-02-26 14:06:16.911,2041.0,-2717.0,1014.0,55.0,-180.0,-488.0,117,130,134,130,89
2025-02-26 14:06:16.919,2521.0,-3318.0,1027.0,43.0,-153.0,-396.0,117,130,133,130,90
2025-02-26 14:06:16.924,2881.0,-3909.0,1149.0,34.0,-108.0,-274.0,119,131,134,129,89
2025-02-26 14:06:16.928,3129.0,-4114.0,1221.0,40.0,-60.0,-150.0,119,132,133,129,91
2025-02-26 14:06:16.936,3172.0,-4092.0,1189.0,37.0,-14.0,-35.0,119,131,133,128,88
2025-02-26 14:06:16.940,3115.0,-3998.0,1252.0,28.0,9.0,63.0,119,129,125,124,87
2025-02-26 14:06:16.941,2843.0,-3768.0,1156.0,3.0,50.0,105.0,119,129,130,126,87
2025-02-26 14:06:16.952,2413.0,-3602.0,994.0,-22.0,84.0,178.0,120,131,133,125,89
2025-02-26 14:06:16.957,2024.0,-3126.0,824.0,-48.0,98.0,228.0,120,130,129,123,86
2025-02-26 14:06:16.960,1601.0,-2757.0,729.0,-55.0,99.0,258.0,118,128,128,122,85
2025-02-26 14:06:16.965,1210.0,-2310.0,607.0,-77.0,97.0,276.0,118,129,131,124,87
2025-02-26 14:06:16.970,1069.0,-1977.0,563.0,-87.0,98.0,286.0,118,126,128,122,85
2025-02-26 14:06:16.977,820.0,-1851.0,459.0,-96.0,88.0,287.0,118,126,126,120,82
2025-02-26 14:06:16.977,680.0,-1668.0,401.0,-103.0,75.0,285.0,118,126,130,125,86
2025-02-26 14:06:16.989,587.0,-1523.0,334.0,-107.0,61.0,279.0,119,128,132,127,87
2025-02-26 14:06:16.989,487.0,-1480.0,318.0,-106.0,50.0,273.0,119,124,129,126,84
2025-02-26 14:06:16.997,465.0,-1380.0,272.0,-107.0,45.0,264.0,116,123,129,129,86
2025-02-26 14:06:17.005,408.0,-1344.0,241.0,-106.0,33.0,260.0,120,125,130,127,84
2025-02-26 14:06:17.010,406.0,-1336.0,191.0,-105.0,24.0,255.0,120,124,133,131,88
2025-02-26 14:06:17.013,267.0,-1327.0,178.0,-109.0,6.0,252.0,119,125,133,131,87
2025-02-26 14:06:17.021,277.0,-1230.0,306.0,-103.0,-3.0,255.0,119,124,133,131,87
2025-02-26 14:06:17.025,260.0,-1244.0,342.0,-96.0,-8.0,259.0,119,123,133,130,90
2025-02-26 14:06:17.030,248.0,-1128.0,296.0,-95.0,-11.0,267.0,120,124,130,129,86
2025-02-26 14:06:17.037,175.0,-1086.0,354.0,-88.0,-14.0,274.0,117,123,132,129,86
2025-02-26 14:06:17.042,162.0,-996.0,401.0,-87.0,-8.0,287.0,119,124,133,131,88
2025-02-26 14:06:17.044,154.0,-927.0,419.0,-88.0,3.0,300.0,120,126,136,132,90
2025-02-26 14:06:17.050,128.0,-810.0,394.0,-93.0,6.0,312.0,119,124,133,129,88
2025-02-26 14:06:17.057,171.0,-718.0,444.0,-110.0,21.0,316.0,121,124,133,130,88
2025-02-26 14:06:17.063,88.0,-693.0,457.0,-122.0,28.0,326.0,120,124,132,131,91
2025-02-26 14:06:17.067,69.0,-523.0,514.0,-142.0,49.0,329.0,121,124,136,132,90
2025-02-26 14:06:17.074,-2.0,-395.0,382.0,-154.0,64.0,330.0,123,123,134,133,90
2025-02-26 14:06:17.079,29.0,-226.0,566.0,-146.0,78.0,323.0,119,120,132,130,89
2025-02-26 14:06:17.081,-65.0,-247.0,465.0,-148.0,95.0,320.0,121,120,133,131,89
2025-02-26 14:06:17.088,-141.0,-123.0,428.0,-146.0,108.0,317.0,129,120,134,134,91
2025-02-26 14:06:17.095,-218.0,-67.0,307.0,-141.0,108.0,311.0,121,119,133,132,91
2025-02-26 14:06:17.099,-299.0,-39.0,245.0,-141.0,102.0,300.0,121,118,132,130,89
2025-02-26 14:06:17.103,-357.0,-4.0,182.0,-136.0,99.0,287.0,122,115,130,132,91
2025-02-26 14:06:17.111,-384.0,39.0,179.0,-126.0,92.0,277.0,120,112,130,129,91
2025-02-26 14:06:17.115,-337.0,91.0,245.0,-119.0,98.0,247.0,123,114,129,128,88
2025-02-26 14:06:17.120,-290.0,211.0,-42.0,-122.0,90.0,215.0,122,113,128,124,94
2025-02-26 14:06:17.124,-291.0,205.0,-35.0,-118.0,80.0,190.0,122,113,129,123,96
2025-02-26 14:06:17.132,-421.0,273.0,-126.0,-138.0,70.0,162.0,121,109,125,120,95
2025-02-26 14:06:17.136,-650.0,258.0,-95.0,-122.0,56.0,150.0,120,111,125,119,97
2025-02-26 14:06:17.140,-742.0,302.0,-222.0,-108.0,52.0,128.0,122,110,125,119,100
2025-02-26 14:06:17.149,-819.0,313.0,-257.0,-93.0,38.0,105.0,124,111,125,120,104
2025-02-26 14:06:17.152,-850.0,332.0,-426.0,-85.0,25.0,80.0,122,110,121,116,99
2025-02-26 14:06:17.154,-835.0,387.0,-502.0,-71.0,12.0,52.0,119,108,117,114,98
2025-02-26 14:06:17.165,-842.0,372.0,-392.0,-55.0,-9.0,39.0,125,106,116,107,98
2025-02-26 14:06:17.169,-895.0,204.0,-215.0,-31.0,-5.0,32.0,128,105,116,110,100
2025-02-26 14:06:17.173,-855.0,143.0,-49.0,-19.0,9.0,31.0,132,102,112,108,100
2025-02-26 14:06:17.178,-888.0,146.0,-66.0,-8.0,12.0,30.0,134,100,106,101,98
2025-02-26 14:06:17.185,-918.0,198.0,-56.0,-10.0,18.0,25.0,134,94,104,101,98
2025-02-26 14:06:17.189,-984.0,285.0,-155.0,-23.0,6.0,8.0,140,93,104,103,101
2025-02-26 14:06:17.194,-1026.0,343.0,-139.0,-30.0,0.0,-7.0,139,88,101,103,100
2025-02-26 14:06:17.198,-1004.0,358.0,-177.0,-19.0,-1.0,-17.0,138,84,99,101,99
2025-02-26 14:06:17.206,-1000.0,442.0,-113.0,-5.0,-3.0,-23.0,141,80,95,100,99
2025-02-26 14:06:17.210,-982.0,531.0,-33.0,3.0,3.0,-32.0,142,80,96,102,100
2025-02-26 14:06:17.214,-899.0,587.0,-56.0,6.0,1.0,-35.0,140,75,93,101,98
2025-02-26 14:06:17.218,-895.0,543.0,-128.0,13.0,1.0,-41.0,141,74,91,99,97
2025-02-26 14:06:17.223,-972.0,539.0,-150.0,14.0,0.0,-43.0,145,74,91,102,98
2025-02-26 14:06:17.230,-986.0,579.0,-170.0,21.0,-4.0,-47.0,144,73,88,101,96
2025-02-26 14:06:17.235,-939.0,664.0,-184.0,40.0,-11.0,-52.0,144,71,87,100,93
2025-02-26 14:06:17.239,-842.0,711.0,-142.0,70.0,-19.0,-69.0,148,69,84,102,91
2025-02-26 14:06:17.243,-967.0,781.0,-93.0,91.0,-10.0,-96.0,146,70,82,102,88
2025-02-26 14:06:17.251,-1116.0,722.0,148.0,122.0,5.0,-134.0,148,69,81,99,85
2025-02-26 14:06:17.255,-1074.0,751.0,-121.0,146.0,18.0,-154.0,146,65,80,101,82
2025-02-26 14:06:17.259,-816.0,895.0,-187.0,183.0,18.0,-188.0,147,65,78,98,79
2025-02-26 14:06:17.264,-683.0,979.0,-145.0,202.0,6.0,-213.0,147,65,78,97,77
2025-02-26 14:06:17.269,-646.0,856.0,195.0,239.0,19.0,-251.0,146,62,74,94,75
2025-02-26 14:06:17.276,-617.0,849.0,-139.0,247.0,10.0,-274.0,147,62,76,96,75
2025-02-26 14:06:17.279,-510.0,859.0,16.0,271.0,8.0,-321.0,147,62,76,96,75
2025-02-26 14:06:17.281,-480.0,1061.0,121.0,275.0,9.0,-387.0,148,62,73,97,77
2025-02-26 14:06:17.291,-534.0,1291.0,-190.0,283.0,0.0,-412.0,146,60,71,94,72
2025-02-26 14:06:17.293,-198.0,1268.0,-242.0,258.0,-42.0,-452.0,147,60,71,95,74
2025-02-26 14:06:17.300,-152.0,1152.0,-469.0,253.0,-88.0,-486.0,147,59,70,93,71
2025-02-26 14:06:17.304,131.0,838.0,-686.0,207.0,-105.0,-510.0,147,59,66,92,71
2025-02-26 14:06:17.312,414.0,454.0,-466.0,174.0,-122.0,-515.0,147,58,64,90,71
2025-02-26 14:06:17.316,960.0,67.0,-171.0,169.0,-174.0,-525.0,148,58,64,91,70
2025-02-26 14:06:17.321,1150.0,-744.0,99.0,164.0,-223.0,-548.0,149,59,65,89,72
2025-02-26 14:06:17.328,758.0,-1459.0,-179.0,158.0,-252.0,-560.0,149,60,65,90,72
2025-02-26 14:06:17.333,439.0,-1903.0,84.0,209.0,-252.0,-537.0,153,59,65,90,73
2025-02-26 14:06:17.337,972.0,-2147.0,201.0,242.0,-263.0,-509.0,152,60,66,87,73
2025-02-26 14:06:17.341,1536.0,-2720.0,375.0,270.0,-272.0,-443.0,154,60,69,89,75
2025-02-26 14:06:17.349,1983.0,-3303.0,822.0,293.0,-245.0,-366.0,155,61,72,87,77
2025-02-26 14:06:17.353,2500.0,-3851.0,1610.0,291.0,-175.0,-269.0,157,62,70,85,77
2025-02-26 14:06:17.358,2736.0,-4262.0,2279.0,266.0,-129.0,-177.0,159,61,72,84,77
2025-02-26 14:06:17.366,3163.0,-4495.0,2706.0,233.0,-40.0,-95.0,182,88,97,106,102
2025-02-26 14:06:17.370,3161.0,-4443.0,2574.0,195.0,31.0,-55.0,173,80,91,97,93
2025-02-26 14:06:17.374,2707.0,-4181.0,2559.0,161.0,83.0,19.0,165,71,80,85,83
2025-02-26 14:06:17.381,2283.0,-3667.0,2229.0,123.0,126.0,79.0,164,69,79,81,81
2025-02-26 14:06:17.385,1992.0,-3154.0,1671.0,64.0,138.0,122.0,164,69,80,86,83
2025-02-26 14:06:17.390,1482.0,-2765.0,1146.0,-12.0,129.0,139.0,158,62,73,79,76
2025-02-26 14:06:17.394,996.0,-2274.0,825.0,-94.0,99.0,160.0,164,64,76,86,80
2025-02-26 14:06:17.402,690.0,-1810.0,713.0,-128.0,57.0,169.0,164,72,79,89,84
2025-02-26 14:06:17.406,565.0,-1622.0,545.0,-185.0,36.0,169.0,165,71,82,92,83
2025-02-26 14:06:17.408,351.0,-1602.0,311.0,-213.0,2.0,168.0,167,72,81,92,84
2025-02-26 14:06:17.415,303.0,-1700.0,252.0,-221.0,-6.0,160.0,168,74,83,96,88
2025-02-26 14:06:17.421,187.0,-1759.0,167.0,-222.0,8.0,147.0,166,74,80,97,87
2025-02-26 14:06:17.426,162.0,-1938.0,205.0,-216.0,13.0,145.0,163,69,78,96,83
2025-02-26 14:06:17.431,119.0,-1908.0,236.0,-216.0,11.0,146.0,166,72,80,97,86
2025-02-26 14:06:17.435,154.0,-2086.0,235.0,-193.0,-1.0,155.0,165,74,77,99,83
2025-02-26 14:06:17.443,190.0,-1976.0,292.0,-187.0,-2.0,167.0,164,67,77,97,85
2025-02-26 14:06:17.447,194.0,-1841.0,329.0,-163.0,1.0,181.0,164,70,71,96,84
2025-02-26 14:06:17.452,252.0,-1769.0,457.0,-146.0,1.0,188.0,167,73,78,99,87
2025-02-26 14:06:17.456,238.0,-1608.0,495.0,-144.0,6.0,198.0,167,73,78,101,87
2025-02-26 14:06:17.464,219.0,-1417.0,443.0,-138.0,6.0,206.0,167,74,78,98,88
2025-02-26 14:06:17.468,178.0,-1326.0,447.0,-139.0,3.0,210.0,169,76,80,95,89
2025-02-26 14:06:17.472,153.0,-1119.0,422.0,-158.0,6.0,218.0,169,75,82,101,89
2025-02-26 14:06:17.476,30.0,-931.0,349.0,-160.0,4.0,223.0,168,75,73,100,88
2025-02-26 14:06:17.484,-10.0,-805.0,364.0,-151.0,0.0,224.0,166,72,78,98,86
2025-02-26 14:06:17.488,-26.0,-699.0,307.0,-157.0,-2.0,224.0,170,76,83,101,90
2025-02-26 14:06:17.492,-80.0,-571.0,256.0,-160.0,1.0,223.0,170,74,83,102,89
2025-02-26 14:06:17.497,-109.0,-428.0,229.0,-162.0,2.0,219.0,166,72,83,102,87
2025-02-26 14:06:17.504,-124.0,-381.0,286.0,-152.0,1.0,213.0,168,72,81,99,86
2025-02-26 14:06:17.509,-126.0,-281.0,264.0,-131.0,-6.0,197.0,171,77,87,103,89
2025-02-26 14:06:17.512,-99.0,-243.0,285.0,-132.0,5.0,179.0,169,75,84,101,89
2025-02-26 14:06:17.518,-98.0,-180.0,289.0,-124.0,11.0,166.0,168,75,84,102,87
2025-02-26 14:06:17.525,-170.0,-171.0,258.0,-119.0,19.0,161.0,174,82,90,106,93
2025-02-26 14:06:17.529,-267.0,-144.0,244.0,-108.0,28.0,151.0,174,80,89,106,94
2025-02-26 14:06:17.533,-308.0,-161.0,194.0,-103.0,35.0,141.0,168,76,85,103,88
2025-02-26 14:06:17.538,-344.0,-150.0,165.0,-101.0,40.0,133.0,165,73,84,101,85
2025-02-26 14:06:17.545,-390.0,-139.0,92.0,-102.0,52.0,131.0,167,77,84,101,88
2025-02-26 14:06:17.550,-432.0,-121.0,86.0,-95.0,49.0,122.0,169,76,85,104,89
2025-02-26 14:06:17.554,-469.0,-119.0,31.0,-91.0,43.0,114.0,169,76,83,102,87
2025-02-26 14:06:17.559,-515.0,-154.0,-21.0,-73.0,42.0,107.0,166,73,80,99,86
2025-02-26 14:06:17.566,-555.0,-167.0,-42.0,-58.0,41.0,104.0,172,79,85,106,91
2025-02-26 14:06:17.570,-558.0,-209.0,-62.0,-46.0,29.0,98.0,170,76,85,105,89
2025-02-26 14:06:17.575,-600.0,-195.0,-114.0,-42.0,21.0,92.0,165,76,82,102,85
2025-02-26 14:06:17.579,-622.0,-188.0,-138.0,-31.0,15.0,90.0,167,74,81,101,86
2025-02-26 14:06:17.584,-628.0,-145.0,-149.0,-26.0,11.0,84.0,175,78,86,104,91
2025-02-26 14:06:17.591,-640.0,-149.0,-152.0,-30.0,6.0,80.0,170,76,83,103,88
2025-02-26 14:06:17.595,-665.0,-152.0,-155.0,-24.0,4.0,75.0,165,74,81,101,87
2025-02-26 14:06:17.599,-672.0,-130.0,-121.0,-33.0,-3.0,74.0,169,75,81,101,87
2025-02-26 14:06:17.607,-650.0,-104.0,-119.0,-30.0,-6.0,67.0,171,80,87,108,90
2025-02-26 14:06:17.611,-639.0,-93.0,-56.0,-27.0,-8.0,60.0,168,76,84,105,89
2025-02-26 14:06:17.615,-618.0,-60.0,12.0,-25.0,-9.0,48.0,166,74,82,101,86
2025-02-26 14:06:17.620,-628.0,-35.0,35.0,-17.0,-10.0,42.0,170,78,84,103,89
2025-02-26 14:06:17.624,-647.0,1.0,61.0,-15.0,-5.0,32.0,170,77,84,103,90
2025-02-26 14:06:17.632,-647.0,64.0,59.0,-9.0,-2.0,23.0,167,75,82,102,87
2025-02-26 14:06:17.633,-677.0,93.0,33.0,-1.0,0.0,20.0,170,75,82,104,89
2025-02-26 14:06:17.639,-739.0,185.0,23.0,4.0,-3.0,11.0,168,78,84,106,90
2025-02-26 14:06:17.644,-793.0,308.0,-4.0,14.0,-6.0,7.0,168,76,81,102,89
2025-02-26 14:06:17.648,-883.0,371.0,-11.0,28.0,-11.0,-4.0,168,75,84,103,89
2025-02-26 14:06:17.652,-960.0,493.0,-21.0,34.0,-18.0,-21.0,168,75,81,103,88
2025-02-26 14:06:17.661,-1018.0,601.0,-43.0,47.0,-20.0,-40.0,164,71,79,99,85
2025-02-26 14:06:17.664,-1092.0,683.0,-51.0,69.0,-24.0,-50.0,168,76,83,105,88
2025-02-26 14:06:17.669,-1153.0,799.0,-58.0,80.0,-25.0,-76.0,166,73,81,102,87
2025-02-26 14:06:17.673,-1154.0,895.0,-16.0,98.0,-22.0,-110.0,165,72,79,99,84
2025-02-26 14:06:17.681,-1132.0,901.0,-65.0,118.0,-16.0,-131.0,166,74,81,100,87
2025-02-26 14:06:17.685,-1135.0,875.0,-28.0,129.0,-8.0,-171.0,167,74,80,101,88
2025-02-26 14:06:17.689,-1126.0,823.0,-32.0,145.0,-2.0,-207.0,165,72,79,101,87
2025-02-26 14:06:17.697,-1105.0,751.0,31.0,170.0,8.0,-225.0,164,71,76,101,86
2025-02-26 14:06:17.701,-945.0,674.0,37.0,193.0,13.0,-266.0,166,74,80,102,87
2025-02-26 14:06:17.705,-790.0,608.0,39.0,205.0,14.0,-309.0,166,74,78,104,88
2025-02-26 14:06:17.709,-713.0,519.0,19.0,221.0,15.0,-349.0,164,71,79,101,87
2025-02-26 14:06:17.714,-627.0,471.0,37.0,230.0,5.0,-365.0,166,73,80,106,89
2025-02-26 14:06:17.721,-484.0,373.0,14.0,227.0,-17.0,-391.0,170,73,81,105,89
2025-02-26 14:06:17.726,-373.0,274.0,32.0,228.0,-31.0,-413.0,166,72,79,101,88
2025-02-26 14:06:17.730,-236.0,247.0,115.0,216.0,-59.0,-425.0,165,72,80,101,87
2025-02-26 14:06:17.735,73.0,96.0,125.0,200.0,-82.0,-450.0,168,75,80,104,91
2025-02-26 14:06:17.741,420.0,-176.0,182.0,191.0,-110.0,-474.0,165,73,81,102,89
2025-02-26 14:06:17.746,591.0,-525.0,225.0,170.0,-124.0,-494.0,169,72,75,102,89
2025-02-26 14:06:17.751,836.0,-961.0,219.0,151.0,-155.0,-502.0,166,74,82,103,89
2025-02-26 14:06:17.758,1051.0,-1154.0,212.0,135.0,-187.0,-516.0,169,74,82,109,91
2025-02-26 14:06:17.761,1420.0,-1543.0,204.0,111.0,-214.0,-524.0,166,73,82,102,91
2025-02-26 14:06:17.768,1836.0,-2129.0,336.0,84.0,-228.0,-502.0,166,74,84,104,92
2025-02-26 14:06:17.772,2342.0,-2848.0,636.0,72.0,-219.0,-444.0,166,73,87,102,92
2025-02-26 14:06:17.779,2597.0,-3601.0,1032.0,56.0,-206.0,-347.0,164,71,84,100,91
2025-02-26 14:06:17.783,2738.0,-4054.0,1473.0,30.0,-156.0,-224.0,187,93,106,122,114
2025-02-26 14:06:17.790,2974.0,-4240.0,1687.0,4.0,-88.0,-164.0,186,96,110,122,117
2025-02-26 14:06:17.796,2949.0,-4351.0,1828.0,-12.0,-17.0,-52.0,192,103,118,128,123
2025-02-26 14:06:17.800,2826.0,-4438.0,1546.0,2.0,31.0,46.0,174,83,96,106,101
2025-02-26 14:06:17.808,2384.0,-3849.0,907.0,25.0,66.0,125.0,182,92,106,116,112
2025-02-26 14:06:17.812,2298.0,-3051.0,767.0,39.0,98.0,175.0,174,82,94,106,101
2025-02-26 14:06:17.816,2167.0,-2643.0,724.0,-16.0,141.0,200.0,167,75,93,101,96
2025-02-26 14:06:17.824,1734.0,-2394.0,440.0,-53.0,147.0,204.0,166,74,89,100,94
2025-02-26 14:06:17.828,1119.0,-2049.0,315.0,-88.0,98.0,207.0,172,80,94,107,100
2025-02-26 14:06:17.833,681.0,-1825.0,107.0,-116.0,37.0,216.0,168,78,90,104,97
2025-02-26 14:06:17.836,590.0,-1615.0,-70.0,-134.0,19.0,225.0,159,70,83,96,88
2025-02-26 14:06:17.844,430.0,-1596.0,-120.0,-149.0,2.0,227.0,162,71,85,99,91
2025-02-26 14:06:17.848,378.0,-1542.0,-162.0,-162.0,2.0,228.0,163,72,84,102,92
2025-02-26 14:06:17.853,399.0,-1489.0,-134.0,-163.0,-3.0,222.0,161,71,84,101,92
2025-02-26 14:06:17.857,472.0,-1499.0,14.0,-199.0,-7.0,214.0,159,70,80,101,91
2025-02-26 14:06:17.863,457.0,-1349.0,-41.0,-208.0,-34.0,207.0,159,72,81,102,91
2025-02-26 14:06:17.870,397.0,-1389.0,9.0,-214.0,-49.0,203.0,160,70,80,104,91
2025-02-26 14:06:17.874,315.0,-1335.0,24.0,-211.0,-52.0,206.0,160,69,78,103,91
2025-02-26 14:06:17.882,319.0,-1260.0,40.0,-218.0,-35.0,212.0,158,67,76,103,89
2025-02-26 14:06:17.886,341.0,-1255.0,113.0,-218.0,-28.0,223.0,160,69,75,102,90
2025-02-26 14:06:17.887,290.0,-1234.0,169.0,-219.0,-23.0,227.0,158,72,77,105,91
2025-02-26 14:06:17.894,271.0,-1156.0,259.0,-220.0,-25.0,239.0,160,69,76,104,91
2025-02-26 14:06:17.899,215.0,-1106.0,311.0,-213.0,-29.0,247.0,157,68,75,102,90
2025-02-26 14:06:17.907,185.0,-1100.0,311.0,-205.0,-29.0,255.0,158,68,74,101,89
2025-02-26 14:06:17.911,154.0,-1015.0,416.0,-186.0,-16.0,262.0,155,70,74,102,87
2025-02-26 14:06:17.918,144.0,-967.0,364.0,-168.0,2.0,262.0,161,70,77,104,90
2025-02-26 14:06:17.922,34.0,-866.0,440.0,-162.0,22.0,263.0,159,70,76,103,87
2025-02-26 14:06:17.927,-48.0,-694.0,432.0,-156.0,38.0,267.0,155,68,77,106,89
2025-02-26 14:06:17.931,-91.0,-602.0,436.0,-120.0,61.0,268.0,157,67,76,103,89
2025-02-26 14:06:17.936,-113.0,-581.0,466.0,-92.0,74.0,267.0,159,70,76,105,90
2025-02-26 14:06:17.943,-126.0,-514.0,424.0,-81.0,84.0,262.0,159,72,81,106,90
2025-02-26 14:06:17.948,-112.0,-419.0,404.0,-55.0,85.0,257.0,157,71,81,105,89
2025-02-26 14:06:17.951,-144.0,-356.0,377.0,-35.0,89.0,257.0,155,68,80,103,86
2025-02-26 14:06:17.960,-105.0,-259.0,339.0,-20.0,102.0,255.0,159,73,86,106,88
2025-02-26 14:06:17.964,-125.0,-213.0,284.0,-15.0,123.0,254.0,160,72,83,108,90
2025-02-26 14:06:17.968,-135.0,-165.0,209.0,-3.0,135.0,251.0,154,70,81,103,86
2025-02-26 14:06:17.973,-216.0,-95.0,112.0,0.0,150.0,248.0,153,70,79,103,85
2025-02-26 14:06:17.980,-262.0,-43.0,80.0,4.0,155.0,240.0,153,71,80,102,85
2025-02-26 14:06:17.984,-356.0,27.0,5.0,4.0,156.0,230.0,154,70,80,104,86
2025-02-26 14:06:17.988,-390.0,75.0,-115.0,7.0,160.0,227.0,151,69,76,101,84
2025-02-26 14:06:17.992,-485.0,53.0,-172.0,12.0,160.0,219.0,153,70,78,103,86
2025-02-26 14:06:17.996,-593.0,92.0,-258.0,18.0,152.0,208.0,151,69,76,104,83
2025-02-26 14:06:18.004,-651.0,124.0,-289.0,32.0,146.0,201.0,153,71,77,103,84
2025-02-26 14:06:18.008,-647.0,103.0,-363.0,40.0,137.0,190.0,153,71,78,104,85
2025-02-26 14:06:18.013,-763.0,238.0,-407.0,43.0,125.0,178.0,152,69,76,105,86
2025-02-26 14:06:18.017,-715.0,172.0,-400.0,56.0,124.0,164.0,150,68,74,102,83
2025-02-26 14:06:18.025,-689.0,207.0,-453.0,59.0,119.0,157.0,149,68,75,104,88
2025-02-26 14:06:18.029,-706.0,226.0,-469.0,65.0,113.0,146.0,153,69,76,104,86
2025-02-26 14:06:18.033,-790.0,259.0,-494.0,66.0,97.0,134.0,152,70,76,101,84
2025-02-26 14:06:18.038,-796.0,299.0,-522.0,70.0,88.0,120.0,150,67,72,101,82
2025-02-26 14:06:18.045,-783.0,315.0,-504.0,73.0,75.0,115.0,153,71,77,103,87
2025-02-26 14:06:18.049,-773.0,430.0,-517.0,73.0,65.0,104.0,153,71,76,103,85
2025-02-26 14:06:18.054,-830.0,569.0,-499.0,71.0,53.0,92.0,150,67,74,100,83
2025-02-26 14:06:18.058,-869.0,635.0,-505.0,66.0,46.0,84.0,148,66,73,100,81
2025-02-26 14:06:18.063,-893.0,824.0,-507.0,61.0,30.0,66.0,150,71,76,102,86
2025-02-26 14:06:18.070,-952.0,976.0,-482.0,61.0,22.0,44.0,146,68,75,101,84
2025-02-26 14:06:18.074,-983.0,1137.0,-527.0,62.0,20.0,30.0,147,68,74,99,80
2025-02-26 14:06:18.074,-1081.0,1196.0,-507.0,75.0,15.0,-5.0,146,71,75,99,83
2025-02-26 14:06:18.082,-1056.0,1290.0,-438.0,84.0,14.0,-54.0,146,69,79,101,83
2025-02-26 14:06:18.090,-1010.0,1469.0,-424.0,109.0,16.0,-119.0,142,68,73,98,82
2025-02-26 14:06:18.095,-978.0,1481.0,-463.0,147.0,26.0,-157.0,135,67,75,96,78
2025-02-26 14:06:18.099,-1044.0,1645.0,-507.0,196.0,33.0,-232.0,137,69,75,99,81
2025-02-26 14:06:18.107,-969.0,1630.0,-509.0,241.0,28.0,-311.0,135,71,77,102,82
2025-02-26 14:06:18.112,-939.0,1724.0,-625.0,256.0,19.0,-400.0,132,69,73,99,79
2025-02-26 14:06:18.116,-961.0,1809.0,-749.0,277.0,13.0,-484.0,128,64,73,96,82
2025-02-26 14:06:18.120,-977.0,1890.0,-907.0,281.0,-27.0,-521.0,129,69,75,98,81
2025-02-26 14:06:18.128,-897.0,1669.0,-922.0,275.0,-88.0,-588.0,131,70,76,97,80
2025-02-26 14:06:18.130,-778.0,1512.0,-921.0,272.0,-171.0,-644.0,127,70,76,100,79
2025-02-26 14:06:18.136,-516.0,1395.0,-902.0,261.0,-253.0,-695.0,125,68,75,100,78
2025-02-26 14:06:18.144,-268.0,1241.0,-769.0,243.0,-294.0,-735.0,126,70,75,101,80
2025-02-26 14:06:18.147,320.0,827.0,-479.0,231.0,-369.0,-745.0,124,68,73,99,77
2025-02-26 14:06:18.152,1040.0,458.0,-13.0,234.0,-426.0,-739.0,126,71,76,101,80
2025-02-26 14:06:18.160,1977.0,-386.0,334.0,248.0,-438.0,-706.0,125,70,75,101,81
2025-02-26 14:06:18.164,2811.0,-1438.0,1048.0,264.0,-401.0,-626.0,126,69,76,102,82
2025-02-26 14:06:18.168,3355.0,-2605.0,1881.0,288.0,-318.0,-499.0,123,65,74,100,80
2025-02-26 14:06:18.176,3588.0,-3750.0,2726.0,315.0,-260.0,-345.0,121,69,76,102,79
2025-02-26 14:06:18.180,4021.0,-4593.0,3315.0,341.0,-119.0,-203.0,123,69,72,102,79
2025-02-26 14:06:18.186,4236.0,-4855.0,3446.0,370.0,28.0,-147.0,124,68,76,101,79
2025-02-26 14:06:18.191,4041.0,-5117.0,3169.0,402.0,155.0,-54.0,152,99,110,129,107
2025-02-26 14:06:18.198,3447.0,-5058.0,2840.0,404.0,243.0,20.0,145,91,104,120,99
2025-02-26 14:06:18.202,2370.0,-4226.0,2144.0,386.0,285.0,78.0,162,110,124,133,115
2025-02-26 14:06:18.209,1541.0,-2916.0,1657.0,285.0,251.0,120.0,180,131,144,149,134
2025-02-26 14:06:18.214,927.0,-1646.0,1145.0,150.0,162.0,130.0,154,102,116,120,106
2025-02-26 14:06:18.219,630.0,-528.0,790.0,-53.0,120.0,110.0,149,100,112,119,104
2025-02-26 14:06:18.226,477.0,-564.0,592.0,-215.0,36.0,92.0,151,104,120,127,108
2025-02-26 14:06:18.230,346.0,-701.0,278.0,-338.0,6.0,76.0,136,86,94,108,88
2025-02-26 14:06:18.234,368.0,-1273.0,221.0,-363.0,-46.0,58.0,143,94,103,123,98
2025-02-26 14:06:18.242,427.0,-1893.0,145.0,-374.0,-57.0,63.0,128,78,85,107,83
2025-02-26 14:06:18.245,528.0,-2318.0,194.0,-346.0,-47.0,72.0,124,74,79,105,80
2025-02-26 14:06:18.250,507.0,-2406.0,185.0,-277.0,-43.0,83.0,125,74,83,111,82
2025-02-26 14:06:18.255,412.0,-2690.0,182.0,-214.0,-32.0,107.0,124,72,77,106,81
2025-02-26 14:06:18.263,514.0,-2517.0,219.0,-188.0,-20.0,135.0,121,71,78,105,78
2025-02-26 14:06:18.267,414.0,-2350.0,343.0,-138.0,-29.0,162.0,120,69,77,101,76
2025-02-26 14:06:18.271,452.0,-2193.0,375.0,-117.0,-26.0,174.0,119,66,73,100,75
2025-02-26 14:06:18.279,502.0,-1793.0,430.0,-105.0,-12.0,191.0,121,68,76,102,77
2025-02-26 14:06:18.283,446.0,-1656.0,481.0,-112.0,-21.0,204.0,121,70,75,102,78
2025-02-26 14:06:18.288,413.0,-1592.0,575.0,-111.0,-22.0,222.0,121,68,73,104,74
2025-02-26 14:06:18.294,373.0,-1378.0,546.0,-118.0,-32.0,227.0,118,66,70,100,74
2025-02-26 14:06:18.299,361.0,-1227.0,495.0,-125.0,-35.0,231.0,118,67,70,96,73
2025-02-26 14:06:18.304,391.0,-1182.0,534.0,-132.0,-27.0,236.0,122,69,72,101,77
2025-02-26 14:06:18.305,263.0,-1000.0,484.0,-142.0,-20.0,238.0,121,69,72,96,76
2025-02-26 14:06:18.316,248.0,-880.0,439.0,-144.0,-28.0,230.0,119,62,69,94,76
2025-02-26 14:06:18.320,175.0,-800.0,398.0,-154.0,-22.0,228.0,119,68,72,95,73
2025-02-26 14:06:18.324,128.0,-706.0,341.0,-159.0,-21.0,220.0,123,69,72,97,75
2025-02-26 14:06:18.328,27.0,-710.0,293.0,-160.0,-30.0,211.0,120,69,76,97,75
2025-02-26 14:06:18.336,40.0,-658.0,232.0,-162.0,-29.0,204.0,120,64,73,95,72
2025-02-26 14:06:18.341,-75.0,-634.0,172.0,-157.0,-34.0,201.0,118,65,73,95,72
2025-02-26 14:06:18.342,-138.0,-653.0,176.0,-154.0,-35.0,198.0,124,68,77,95,74
2025-02-26 14:06:18.349,-194.0,-633.0,152.0,-151.0,-39.0,196.0,119,68,77,98,75
2025-02-26 14:06:18.357,-190.0,-604.0,135.0,-141.0,-39.0,192.0,119,68,75,95,72
2025-02-26 14:06:18.360,-178.0,-552.0,165.0,-133.0,-26.0,190.0,117,64,74,95,72
2025-02-26 14:06:18.365,-197.0,-531.0,164.0,-123.0,-20.0,185.0,121,66,75,98,74
2025-02-26 14:06:18.372,-206.0,-479.0,187.0,-118.0,-10.0,180.0,118,62,76,96,74
2025-02-26 14:06:18.377,-216.0,-439.0,191.0,-107.0,-2.0,177.0,121,66,72,94,73
2025-02-26 14:06:18.381,-222.0,-404.0,161.0,-96.0,1.0,174.0,121,67,71,95,73
2025-02-26 14:06:18.386,-242.0,-344.0,127.0,-88.0,13.0,167.0,120,65,70,96,74
2025-02-26 14:06:18.390,-274.0,-333.0,90.0,-84.0,23.0,161.0,120,66,69,95,72
2025-02-26 14:06:18.396,-286.0,-311.0,43.0,-72.0,28.0,153.0,119,65,67,93,73
2025-02-26 14:06:18.402,-348.0,-304.0,-2.0,-59.0,39.0,150.0,121,67,71,96,74
2025-02-26 14:06:18.406,-375.0,-331.0,-30.0,-52.0,51.0,144.0,120,67,69,96,73
2025-02-26 14:06:18.407,-413.0,-280.0,-103.0,-41.0,54.0,139.0,117,64,67,93,73
2025-02-26 14:06:18.418,-475.0,-248.0,-143.0,-28.0,60.0,136.0,117,63,67,93,72
2025-02-26 14:06:18.423,-527.0,-203.0,-167.0,-19.0,62.0,129.0,121,68,70,96,74
2025-02-26 14:06:18.427,-576.0,-120.0,-214.0,-15.0,60.0,119.0,119,65,69,95,74
2025-02-26 14:06:18.431,-607.0,-55.0,-259.0,-8.0,59.0,110.0,117,62,68,93,73
2025-02-26 14:06:18.439,-662.0,-16.0,-286.0,-3.0,49.0,105.0,120,66,68,93,73
2025-02-26 14:06:18.443,-719.0,47.0,-313.0,-2.0,34.0,94.0,122,66,71,96,75
2025-02-26 14:06:18.447,-752.0,127.0,-341.0,2.0,26.0,80.0,119,63,70,94,73
2025-02-26 14:06:18.451,-767.0,153.0,-358.0,3.0,14.0,73.0,119,66,69,95,75
2025-02-26 14:06:18.455,-792.0,233.0,-359.0,4.0,0.0,59.0,118,65,69,95,74
2025-02-26 14:06:18.459,-792.0,307.0,-343.0,3.0,-6.0,46.0,119,65,70,95,75
2025-02-26 14:06:18.467,-812.0,337.0,-322.0,1.0,-15.0,40.0,120,66,70,95,74
2025-02-26 14:06:18.471,-839.0,380.0,-314.0,1.0,-23.0,29.0,121,63,70,97,74
2025-02-26 14:06:18.476,-848.0,409.0,-283.0,2.0,-26.0,16.0,119,64,68,94,72
2025-02-26 14:06:18.480,-865.0,409.0,-258.0,5.0,-29.0,8.0,121,67,71,96,75
2025-02-26 14:06:18.484,-874.0,436.0,-230.0,9.0,-31.0,-7.0,120,67,69,95,74
2025-02-26 14:06:18.492,-904.0,383.0,-152.0,21.0,-29.0,-27.0,119,62,68,94,72
2025-02-26 14:06:18.496,-867.0,403.0,-114.0,42.0,-23.0,-40.0,118,66,69,94,73
2025-02-26 14:06:18.498,-862.0,436.0,-93.0,53.0,-15.0,-66.0,123,66,71,97,75
2025-02-26 14:06:18.505,-870.0,471.0,-66.0,77.0,-10.0,-94.0,118,64,68,93,72
2025-02-26 14:06:18.509,-969.0,492.0,-55.0,103.0,-1.0,-106.0,118,65,71,95,74
2025-02-26 14:06:18.516,-1060.0,544.0,-62.0,132.0,4.0,-135.0,119,64,70,95,73
2025-02-26 14:06:18.520,-1083.0,606.0,-36.0,146.0,5.0,-165.0,120,66,72,96,74
2025-02-26 14:06:18.524,-1098.0,625.0,-32.0,173.0,10.0,-182.0,120,65,70,95,75
2025-02-26 14:06:18.529,-1063.0,699.0,-17.0,200.0,14.0,-220.0,120,65,70,96,73
2025-02-26 14:06:18.537,-1026.0,795.0,-37.0,211.0,15.0,-266.0,116,62,69,96,72
2025-02-26 14:06:18.541,-1000.0,843.0,-89.0,227.0,13.0,-291.0,120,64,71,97,74
2025-02-26 14:06:18.545,-973.0,913.0,-113.0,232.0,-3.0,-344.0,119,67,71,96,74
2025-02-26 14:06:18.549,-857.0,945.0,-162.0,229.0,-29.0,-399.0,119,66,70,96,73
2025-02-26 14:06:18.557,-797.0,900.0,-190.0,217.0,-46.0,-452.0,118,64,68,94,72
2025-02-26 14:06:18.561,-586.0,856.0,-165.0,199.0,-83.0,-476.0,119,66,71,97,73
2025-02-26 14:06:18.567,-266.0,687.0,-114.0,178.0,-122.0,-520.0,120,64,71,99,73
2025-02-26 14:06:18.572,158.0,385.0,57.0,155.0,-156.0,-549.0,120,66,70,95,72
2025-02-26 14:06:18.579,676.0,-87.0,351.0,150.0,-168.0,-558.0,119,65,69,94,72
2025-02-26 14:06:18.582,903.0,-347.0,556.0,139.0,-178.0,-557.0,120,66,70,96,74
2025-02-26 14:06:18.584,1331.0,-905.0,690.0,146.0,-179.0,-545.0,120,65,72,96,74
2025-02-26 14:06:18.595,1750.0,-1501.0,978.0,164.0,-171.0,-521.0,119,66,72,97,75
2025-02-26 14:06:18.596,2162.0,-2266.0,1309.0,176.0,-143.0,-470.0,119,66,72,98,75
2025-02-26 14:06:18.604,2372.0,-3069.0,1616.0,197.0,-123.0,-393.0,118,67,72,96,74
2025-02-26 14:06:18.609,2652.0,-3837.0,1943.0,216.0,-70.0,-297.0,117,63,73,97,74
2025-02-26 14:06:18.615,2884.0,-4097.0,2065.0,230.0,-3.0,-248.0,119,65,74,95,74
2025-02-26 14:06:18.620,2963.0,-4343.0,2055.0,225.0,74.0,-149.0,135,82,96,114,94
2025-02-26 14:06:18.627,2847.0,-4295.0,1941.0,199.0,133.0,-60.0,184,134,147,160,141
2025-02-26 14:06:18.631,2520.0,-3962.0,1632.0,185.0,176.0,16.0,152,100,111,126,109
2025-02-26 14:06:18.636,2083.0,-3431.0,1313.0,135.0,189.0,77.0,176,127,140,149,135
2025-02-26 14:06:18.643,1943.0,-2821.0,907.0,68.0,179.0,118.0,171,119,132,140,126
2025-02-26 14:06:18.648,1491.0,-2237.0,528.0,-21.0,162.0,143.0,162,112,124,132,119
2025-02-26 14:06:18.652,1153.0,-2015.0,262.0,-102.0,114.0,151.0,117,67,79,90,74
2025-02-26 14:06:18.658,886.0,-1714.0,121.0,-172.0,70.0,163.0,131,81,93,106,90
2025-02-26 14:06:18.664,721.0,-1608.0,41.0,-198.0,23.0,167.0,136,87,103,114,95
2025-02-26 14:06:18.668,614.0,-1540.0,-60.0,-230.0,-11.0,166.0,134,84,95,111,91
2025-02-26 14:06:18.675,638.0,-1600.0,-41.0,-235.0,-22.0,158.0,125,78,88,108,85
2025-02-26 14:06:18.680,608.0,-1643.0,36.0,-222.0,-42.0,154.0,130,80,91,109,91
2025-02-26 14:06:18.685,604.0,-1751.0,84.0,-200.0,-49.0,147.0,131,81,91,112,90
2025-02-26 14:06:18.689,612.0,-1792.0,172.0,-187.0,-55.0,150.0,131,79,88,110,88
2025-02-26 14:06:18.697,603.0,-1799.0,284.0,-162.0,-61.0,159.0,127,81,87,110,87
2025-02-26 14:06:18.701,605.0,-1637.0,387.0,-150.0,-53.0,165.0,132,82,89,110,89
2025-02-26 14:06:18.706,622.0,-1728.0,548.0,-137.0,-44.0,182.0,131,81,89,112,91
2025-02-26 14:06:18.712,548.0,-1566.0,520.0,-132.0,-38.0,199.0,132,81,87,110,90
2025-02-26 14:06:18.718,521.0,-1468.0,579.0,-135.0,-30.0,220.0,129,80,84,108,89
2025-02-26 14:06:18.721,474.0,-1348.0,522.0,-143.0,-24.0,245.0,130,81,84,108,89
2025-02-26 14:06:18.729,323.0,-1322.0,498.0,-143.0,-16.0,258.0,129,78,82,105,88
2025-02-26 14:06:18.733,276.0,-1242.0,497.0,-138.0,-14.0,275.0,130,80,84,105,88
2025-02-26 14:06:18.737,164.0,-1053.0,377.0,-130.0,-6.0,291.0,129,78,83,101,86
2025-02-26 14:06:18.742,140.0,-937.0,463.0,-124.0,3.0,303.0,130,80,87,106,89
2025-02-26 14:06:18.749,152.0,-802.0,425.0,-118.0,6.0,308.0,131,78,82,103,86
2025-02-26 14:06:18.754,61.0,-761.0,416.0,-102.0,15.0,308.0,130,79,81,104,89
2025-02-26 14:06:18.759,18.0,-635.0,444.0,-94.0,22.0,307.0,133,79,86,106,89
2025-02-26 14:06:18.762,19.0,-489.0,454.0,-80.0,25.0,302.0,131,78,91,103,85
2025-02-26 14:06:18.766,-64.0,-455.0,459.0,-68.0,33.0,296.0,130,80,89,105,89
2025-02-26 14:06:18.773,-60.0,-316.0,481.0,-56.0,42.0,286.0,131,80,89,105,89
2025-02-26 14:06:18.778,-80.0,-196.0,471.0,-52.0,53.0,267.0,129,77,86,103,87
2025-02-26 14:06:18.783,-67.0,-123.0,452.0,-43.0,62.0,258.0,129,80,92,102,87
2025-02-26 14:06:18.787,-112.0,-33.0,472.0,-45.0,78.0,242.0,133,82,89,105,91
2025-02-26 14:06:18.795,-174.0,28.0,392.0,-41.0,93.0,223.0,132,80,89,106,89
2025-02-26 14:06:18.799,-228.0,61.0,302.0,-41.0,100.0,208.0,128,76,86,103,89
2025-02-26 14:06:18.803,-273.0,58.0,157.0,-45.0,113.0,202.0,137,79,89,106,94
2025-02-26 14:06:18.808,-391.0,40.0,45.0,-41.0,120.0,189.0,134,82,90,108,92
2025-02-26 14:06:18.814,-415.0,54.0,-20.0,-48.0,122.0,184.0,133,75,86,107,89
2025-02-26 14:06:18.820,-481.0,-34.0,-281.0,-30.0,117.0,179.0,135,81,88,108,91
2025-02-26 14:06:18.824,-769.0,-87.0,-448.0,-22.0,100.0,178.0,135,81,89,111,93
2025-02-26 14:06:18.828,-717.0,-45.0,-567.0,-20.0,82.0,180.0,135,80,87,113,93
2025-02-26 14:06:18.833,-745.0,-59.0,-490.0,-22.0,78.0,184.0,136,79,87,111,91
2025-02-26 14:06:18.840,-692.0,-104.0,-542.0,-8.0,60.0,180.0,135,75,87,113,91
2025-02-26 14:06:18.844,-793.0,-68.0,-617.0,-4.0,34.0,171.0,143,84,91,118,96
2025-02-26 14:06:18.849,-659.0,-135.0,-44.0,9.0,55.0,164.0,143,83,92,119,97
2025-02-26 14:06:18.853,-622.0,43.0,-560.0,9.0,42.0,146.0,143,83,90,118,93
2025-02-26 14:06:18.860,-725.0,71.0,-349.0,6.0,40.0,137.0,147,87,94,119,100
2025-02-26 14:06:18.864,-582.0,51.0,-191.0,11.0,46.0,117.0,144,85,95,123,100
2025-02-26 14:06:18.868,-492.0,101.0,-257.0,16.0,48.0,95.0,143,83,93,119,98
2025-02-26 14:06:18.873,-481.0,56.0,-216.0,19.0,49.0,84.0,145,87,98,122,101
2025-02-26 14:06:18.881,-526.0,78.0,-273.0,17.0,38.0,71.0,145,84,96,121,101
2025-02-26 14:06:18.885,-437.0,-32.0,-65.0,18.0,51.0,48.0,143,86,96,119,101
2025-02-26 14:06:18.889,-595.0,-80.0,-258.0,30.0,63.0,51.0,146,86,99,119,103
2025-02-26 14:06:18.894,-496.0,-273.0,-167.0,37.0,52.0,53.0,145,86,103,117,104
2025-02-26 14:06:18.902,-517.0,-193.0,42.0,45.0,76.0,63.0,144,86,101,117,105
2025-02-26 14:06:18.906,-500.0,-426.0,-448.0,86.0,73.0,61.0,144,83,102,114,103
2025-02-26 14:06:18.910,-661.0,-398.0,-663.0,113.0,33.0,56.0,148,84,106,114,106
2025-02-26 14:06:18.915,-626.0,-445.0,-497.0,135.0,17.0,54.0,141,82,106,111,105
2025-02-26 14:06:18.922,-604.0,-352.0,-605.0,148.0,2.0,60.0,144,84,109,110,107
2025-02-26 14:06:18.926,-561.0,-267.0,-694.0,205.0,-4.0,57.0,139,81,106,104,102
2025-02-26 14:06:18.931,-691.0,-263.0,-883.0,274.0,-33.0,56.0,134,78,101,100,100
2025-02-26 14:06:18.938,-779.0,-363.0,-554.0,342.0,-46.0,53.0,136,85,102,102,102
2025-02-26 14:06:18.941,-754.0,-449.0,-338.0,428.0,-17.0,66.0,138,93,99,102,105
2025-02-26 14:06:18.947,-878.0,-396.0,-648.0,474.0,1.0,71.0,136,101,98,99,101
2025-02-26 14:06:18.951,-917.0,-106.0,-957.0,548.0,1.0,59.0,134,102,94,96,103
2025-02-26 14:06:18.959,-914.0,63.0,-982.0,610.0,-10.0,46.0,134,112,97,98,102
2025-02-26 14:06:18.963,-955.0,166.0,-846.0,630.0,-13.0,36.0,133,115,93,98,105
2025-02-26 14:06:18.968,-817.0,144.0,-917.0,646.0,-27.0,24.0,136,117,96,97,103
2025-02-26 14:06:18.975,-815.0,265.0,-964.0,657.0,-35.0,13.0,133,116,95,93,100
2025-02-26 14:06:18.979,-971.0,216.0,-780.0,660.0,-56.0,9.0,127,119,93,93,100
2025-02-26 14:06:18.984,-901.0,15.0,-812.0,666.0,-74.0,7.0,130,122,96,94,103
2025-02-26 14:06:18.988,-959.0,152.0,-911.0,650.0,-96.0,1.0,127,123,94,94,103
2025-02-26 14:06:18.996,-946.0,428.0,-917.0,648.0,-109.0,-10.0,125,122,91,89,100
2025-02-26 14:06:19.000,-779.0,568.0,-899.0,641.0,-155.0,-17.0,124,121,91,91,100
2025-02-26 14:06:19.004,-771.0,605.0,-783.0,666.0,-199.0,-32.0,125,123,93,93,102
2025-02-26 14:06:19.012,-778.0,618.0,-719.0,664.0,-260.0,-47.0,122,124,94,93,102
2025-02-26 14:06:19.016,-828.0,653.0,-499.0,651.0,-320.0,-70.0,121,123,90,89,101
