timestamp,ax,ay,az,gx,gy,gz,flex1,flex2,flex3,flex4,flex5,emg1,emg2,emg3
2025-02-26 14:36:58.897,-183.0,-974.0,162.0,17.0,-18.0,-2.0,163,137,142,139,144
2025-02-26 14:36:58.900,-189.0,-965.0,172.0,17.0,-14.0,-3.0,165,138,146,143,144
2025-02-26 14:36:58.902,-187.0,-960.0,167.0,18.0,-14.0,-3.0,165,139,144,142,146
2025-02-26 14:36:58.904,-187.0,-963.0,185.0,18.0,-15.0,-3.0,162,138,142,142,142
2025-02-26 14:36:58.907,-180.0,-970.0,193.0,20.0,-17.0,-4.0,162,137,141,140,144
2025-02-26 14:36:58.909,-170.0,-965.0,187.0,23.0,-20.0,-3.0,164,139,145,142,145
2025-02-26 14:36:58.909,-157.0,-968.0,198.0,23.0,-20.0,-3.0,162,136,142,141,144
2025-02-26 14:36:58.915,-153.0,-977.0,196.0,21.0,-19.0,-3.0,161,141,141,140,143
2025-02-26 14:36:58.916,-154.0,-985.0,200.0,20.0,-17.0,-3.0,164,140,144,142,145
2025-02-26 14:36:58.919,-158.0,-980.0,202.0,20.0,-15.0,-2.0,159,136,141,141,144
2025-02-26 14:36:58.922,-154.0,-980.0,220.0,20.0,-15.0,-2.0,161,136,141,139,142
2025-02-26 14:36:58.922,-146.0,-989.0,220.0,19.0,-16.0,-2.0,167,141,144,144,147
2025-02-26 14:36:58.922,-150.0,-988.0,229.0,18.0,-17.0,-1.0,162,138,144,142,145
2025-02-26 14:36:58.928,-149.0,-993.0,229.0,19.0,-18.0,-1.0,157,137,142,144,143
2025-02-26 14:36:58.928,-151.0,-987.0,230.0,19.0,-18.0,-1.0,164,140,143,143,146
2025-02-26 14:36:58.933,-151.0,-988.0,229.0,19.0,-17.0,0.0,166,142,146,145,146
2025-02-26 14:36:58.934,-157.0,-996.0,228.0,18.0,-16.0,0.0,160,140,142,142,144
2025-02-26 14:36:58.939,-165.0,-998.0,233.0,17.0,-15.0,1.0,164,140,144,144,147
2025-02-26 14:36:58.940,-170.0,-992.0,240.0,17.0,-14.0,0.0,163,139,144,141,146
2025-02-26 14:36:58.940,-171.0,-988.0,254.0,16.0,-14.0,0.0,161,139,143,143,144
2025-02-26 14:36:58.945,-171.0,-986.0,255.0,16.0,-13.0,0.0,162,138,142,141,144
2025-02-26 14:36:58.948,-169.0,-985.0,258.0,16.0,-12.0,-1.0,163,141,143,143,146
2025-02-26 14:36:58.950,-172.0,-980.0,257.0,16.0,-11.0,-1.0,164,139,144,143,146
2025-02-26 14:36:58.952,-171.0,-979.0,259.0,16.0,-10.0,0.0,163,139,145,144,146
2025-02-26 14:36:58.952,-178.0,-980.0,263.0,15.0,-10.0,-1.0,162,139,142,140,144
2025-02-26 14:36:58.952,-177.0,-981.0,270.0,14.0,-9.0,-1.0,159,136,140,139,143
2025-02-26 14:36:58.959,-168.0,-975.0,274.0,14.0,-8.0,-1.0,167,143,147,146,149
2025-02-26 14:36:58.961,-168.0,-970.0,275.0,13.0,-7.0,-1.0,165,140,145,144,147
2025-02-26 14:36:58.964,-167.0,-988.0,274.0,12.0,-7.0,-1.0,162,137,142,141,143
2025-02-26 14:36:58.964,-163.0,-988.0,286.0,11.0,-6.0,-1.0,161,138,142,141,144
2025-02-26 14:36:58.964,-166.0,-997.0,290.0,11.0,-6.0,-2.0,168,143,148,144,147
2025-02-26 14:36:58.970,-167.0,-980.0,297.0,16.0,-4.0,-2.0,165,142,147,143,147
2025-02-26 14:36:58.970,-170.0,-999.0,270.0,13.0,-5.0,-3.0,163,140,143,142,145
2025-02-26 14:36:58.975,-170.0,-1000.0,285.0,8.0,-4.0,-2.0,161,138,140,141,143
2025-02-26 14:36:58.976,-168.0,-1000.0,262.0,4.0,-2.0,-2.0,167,143,146,143,147
2025-02-26 14:36:58.980,-175.0,-1010.0,256.0,3.0,-2.0,-1.0,164,141,145,142,146
2025-02-26 14:36:58.982,-180.0,-1011.0,270.0,3.0,-1.0,0.0,162,140,144,143,145
2025-02-26 14:36:58.984,-180.0,-1016.0,277.0,1.0,0.0,1.0,161,139,143,141,143
2025-02-26 14:36:58.987,-179.0,-1017.0,271.0,0.0,1.0,1.0,166,142,146,144,148
2025-02-26 14:36:58.988,-177.0,-1021.0,266.0,-1.0,1.0,1.0,165,141,147,143,146
2025-02-26 14:36:58.992,-185.0,-1025.0,262.0,-1.0,1.0,2.0,161,136,142,139,141
2025-02-26 14:36:58.994,-187.0,-1022.0,258.0,-3.0,2.0,1.0,161,138,141,140,145
2025-02-26 14:36:58.996,-189.0,-1023.0,254.0,-4.0,3.0,1.0,167,143,150,145,147
2025-02-26 14:36:58.998,-194.0,-1021.0,257.0,-4.0,3.0,1.0,164,142,145,143,147
2025-02-26 14:36:59.000,-196.0,-1014.0,262.0,-5.0,3.0,1.0,162,141,145,139,143
2025-02-26 14:36:59.000,-198.0,-1009.0,252.0,-6.0,3.0,1.0,163,140,143,140,143
2025-02-26 14:36:59.006,-194.0,-1006.0,251.0,-7.0,3.0,0.0,167,144,145,143,150
2025-02-26 14:36:59.014,-192.0,-1000.0,245.0,-8.0,3.0,-1.0,165,143,144,142,145
2025-02-26 14:36:59.018,-188.0,-1000.0,247.0,-9.0,2.0,-1.0,160,138,141,142,143
2025-02-26 14:36:59.019,-186.0,-1002.0,250.0,-11.0,2.0,-1.0,163,140,142,139,144
2025-02-26 14:36:59.027,-188.0,-1009.0,254.0,-13.0,2.0,0.0,165,142,145,144,147
2025-02-26 14:36:59.035,-181.0,-1003.0,253.0,-13.0,2.0,0.0,165,140,144,143,145
2025-02-26 14:36:59.039,-180.0,-1016.0,253.0,-14.0,2.0,1.0,163,141,144,142,145
2025-02-26 14:36:59.042,-180.0,-1023.0,258.0,-14.0,1.0,2.0,164,142,145,144,144
2025-02-26 14:36:59.049,-176.0,-1021.0,264.0,-15.0,2.0,2.0,167,141,144,143,146
2025-02-26 14:36:59.055,-178.0,-1027.0,262.0,-15.0,2.0,3.0,165,141,144,141,146
2025-02-26 14:36:59.060,-177.0,-1025.0,263.0,-16.0,3.0,4.0,163,139,144,144,145
2025-02-26 14:36:59.064,-179.0,-1020.0,263.0,-16.0,4.0,5.0,163,141,143,142,145
2025-02-26 14:36:59.072,-181.0,-1018.0,270.0,-16.0,5.0,6.0,161,138,141,139,143
2025-02-26 14:36:59.073,-187.0,-1012.0,258.0,-15.0,5.0,7.0,163,141,145,144,147
2025-02-26 14:36:59.080,-184.0,-1009.0,264.0,-16.0,6.0,7.0,163,141,143,143,146
2025-02-26 14:36:59.087,-188.0,-996.0,257.0,-14.0,6.0,8.0,164,140,143,141,145
2025-02-26 14:36:59.091,-187.0,-994.0,255.0,-16.0,7.0,8.0,163,140,143,142,144
2025-02-26 14:36:59.096,-179.0,-988.0,260.0,-16.0,10.0,7.0,164,142,145,144,146
2025-02-26 14:36:59.100,-190.0,-975.0,254.0,-16.0,12.0,7.0,164,141,142,143,147
2025-02-26 14:36:59.108,-171.0,-980.0,264.0,-15.0,12.0,7.0,165,140,141,142,145
2025-02-26 14:36:59.109,-189.0,-975.0,236.0,-21.0,14.0,7.0,162,138,144,141,144
2025-02-26 14:36:59.115,-195.0,-958.0,229.0,-20.0,11.0,6.0,163,141,145,143,146
2025-02-26 14:36:59.120,-206.0,-966.0,237.0,-24.0,11.0,6.0,162,141,143,143,146
2025-02-26 14:36:59.129,-207.0,-943.0,252.0,-24.0,10.0,5.0,159,141,143,144,147
2025-02-26 14:36:59.133,-197.0,-961.0,226.0,-25.0,10.0,4.0,163,138,142,140,143
2025-02-26 14:36:59.137,-203.0,-945.0,208.0,-25.0,10.0,4.0,163,141,142,141,145
2025-02-26 14:36:59.145,-198.0,-938.0,199.0,-25.0,10.0,3.0,164,142,145,143,145
2025-02-26 14:36:59.148,-195.0,-934.0,202.0,-25.0,9.0,2.0,164,141,145,143,146
2025-02-26 14:36:59.152,-207.0,-919.0,197.0,-25.0,8.0,0.0,161,137,142,141,143
2025-02-26 14:36:59.157,-201.0,-919.0,216.0,-22.0,7.0,1.0,160,138,142,140,144
2025-02-26 14:36:59.163,-206.0,-929.0,229.0,-21.0,9.0,0.0,168,144,147,147,149
2025-02-26 14:36:59.163,-210.0,-926.0,201.0,-21.0,9.0,-1.0,163,140,144,143,145
2025-02-26 14:36:59.174,-214.0,-928.0,188.0,-21.0,9.0,-1.0,160,137,142,141,143
2025-02-26 14:36:59.175,-211.0,-923.0,178.0,-20.0,7.0,-1.0,161,137,140,139,141
2025-02-26 14:36:59.186,-202.0,-931.0,173.0,-19.0,4.0,-2.0,165,143,146,145,148
2025-02-26 14:36:59.190,-203.0,-939.0,188.0,-19.0,3.0,-1.0,164,139,143,144,146
2025-02-26 14:36:59.194,-201.0,-935.0,197.0,-19.0,2.0,-1.0,162,138,142,139,143
2025-02-26 14:36:59.194,-202.0,-943.0,191.0,-17.0,2.0,-1.0,160,137,142,140,143
2025-02-26 14:36:59.206,-211.0,-939.0,166.0,-15.0,3.0,-1.0,164,141,146,144,147
2025-02-26 14:36:59.211,-205.0,-940.0,161.0,-14.0,3.0,0.0,163,139,145,144,146
2025-02-26 14:36:59.215,-200.0,-950.0,156.0,-13.0,3.0,0.0,161,136,141,140,142
2025-02-26 14:36:59.215,-202.0,-940.0,152.0,-12.0,3.0,0.0,161,137,142,139,143
2025-02-26 14:36:59.226,-201.0,-947.0,176.0,-10.0,1.0,1.0,163,140,146,146,146
2025-02-26 14:36:59.230,-190.0,-927.0,169.0,-10.0,1.0,0.0,165,139,144,144,145
2025-02-26 14:36:59.234,-192.0,-921.0,168.0,-9.0,0.0,1.0,160,136,141,139,142
2025-02-26 14:36:59.234,-197.0,-924.0,177.0,-7.0,0.0,0.0,157,135,139,138,142
2025-02-26 14:36:59.248,-194.0,-909.0,179.0,-4.0,1.0,-1.0,166,142,145,144,146
2025-02-26 14:36:59.252,-183.0,-912.0,163.0,-4.0,0.0,-3.0,164,139,145,143,145
2025-02-26 14:36:59.256,-175.0,-925.0,159.0,-2.0,1.0,-4.0,159,135,141,138,142
2025-02-26 14:36:59.260,-179.0,-924.0,161.0,0.0,2.0,-4.0,163,139,143,142,145
2025-02-26 14:36:59.268,-170.0,-924.0,151.0,0.0,2.0,-6.0,156,139,145,141,146
2025-02-26 14:36:59.272,-164.0,-934.0,158.0,1.0,1.0,-6.0,162,138,141,141,144
2025-02-26 14:36:59.276,-159.0,-946.0,162.0,1.0,2.0,-7.0,158,136,143,140,143
2025-02-26 14:36:59.280,-163.0,-949.0,163.0,1.0,1.0,-8.0,163,138,143,143,145
2025-02-26 14:36:59.289,-155.0,-955.0,164.0,2.0,2.0,-8.0,161,139,144,139,145
2025-02-26 14:36:59.290,-151.0,-961.0,165.0,3.0,3.0,-7.0,162,137,140,140,144
2025-02-26 14:36:59.290,-152.0,-977.0,144.0,5.0,4.0,-6.0,162,132,144,142,147
2025-02-26 14:36:59.290,-155.0,-980.0,152.0,6.0,5.0,-5.0,163,139,145,143,145
2025-02-26 14:36:59.302,-164.0,-998.0,168.0,6.0,5.0,-3.0,163,137,143,140,142
2025-02-26 14:36:59.313,-164.0,-1002.0,175.0,7.0,4.0,-3.0,160,135,141,140,142
2025-02-26 14:36:59.317,-170.0,-1008.0,179.0,6.0,4.0,-2.0,166,138,144,145,145
2025-02-26 14:36:59.322,-173.0,-1006.0,175.0,6.0,4.0,-1.0,162,138,143,139,145
2025-02-26 14:36:59.330,-174.0,-1006.0,170.0,6.0,4.0,0.0,162,141,142,140,146
2025-02-26 14:36:59.333,-192.0,-998.0,184.0,5.0,4.0,0.0,162,137,141,140,143
2025-02-26 14:36:59.335,-189.0,-997.0,189.0,4.0,5.0,1.0,157,138,144,140,145
2025-02-26 14:36:59.342,-194.0,-1000.0,196.0,4.0,5.0,1.0,161,137,142,140,142
2025-02-26 14:36:59.350,-195.0,-1002.0,202.0,3.0,5.0,1.0,160,136,141,140,143
2025-02-26 14:36:59.354,-197.0,-1013.0,203.0,1.0,6.0,1.0,164,141,145,142,146
2025-02-26 14:36:59.359,-198.0,-1021.0,199.0,1.0,7.0,2.0,162,139,143,140,143
2025-02-26 14:36:59.363,-201.0,-1032.0,205.0,0.0,7.0,2.0,161,136,143,138,142
2025-02-26 14:36:59.366,-201.0,-1031.0,208.0,-2.0,7.0,2.0,166,139,144,143,146
2025-02-26 14:36:59.374,-209.0,-1047.0,222.0,-4.0,8.0,2.0,163,140,144,142,145
2025-02-26 14:36:59.377,-210.0,-1051.0,230.0,-5.0,9.0,2.0,159,138,142,140,143
2025-02-26 14:36:59.384,-214.0,-1065.0,244.0,-7.0,10.0,3.0,164,139,144,142,145
2025-02-26 14:36:59.389,-213.0,-1067.0,243.0,-11.0,11.0,3.0,164,139,146,144,146
2025-02-26 14:36:59.395,-207.0,-1073.0,238.0,-15.0,12.0,4.0,162,140,146,144,146
2025-02-26 14:36:59.400,-210.0,-1078.0,254.0,-17.0,15.0,4.0,164,138,143,141,144
2025-02-26 14:36:59.404,-212.0,-1079.0,250.0,-21.0,16.0,6.0,163,138,143,142,145
2025-02-26 14:36:59.412,-216.0,-1088.0,236.0,-24.0,18.0,6.0,160,137,143,142,143
2025-02-26 14:36:59.415,-217.0,-1085.0,217.0,-28.0,20.0,8.0,163,140,145,143,145
2025-02-26 14:36:59.421,-211.0,-1094.0,218.0,-32.0,21.0,10.0,164,140,144,141,145
2025-02-26 14:36:59.428,-220.0,-1107.0,234.0,-33.0,23.0,12.0,164,138,145,144,146
2025-02-26 14:36:59.432,-227.0,-1101.0,237.0,-38.0,24.0,14.0,161,139,145,141,143
2025-02-26 14:36:59.437,-228.0,-1105.0,248.0,-42.0,26.0,15.0,161,141,143,139,141
2025-02-26 14:36:59.444,-227.0,-1100.0,243.0,-46.0,28.0,16.0,162,138,143,141,143
2025-02-26 14:36:59.449,-227.0,-1089.0,245.0,-50.0,31.0,17.0,166,140,150,144,147
2025-02-26 14:36:59.453,-231.0,-1089.0,211.0,-55.0,32.0,18.0,165,140,145,144,146
2025-02-26 14:36:59.461,-235.0,-1077.0,204.0,-56.0,34.0,19.0,162,141,145,144,145
2025-02-26 14:36:59.465,-241.0,-1059.0,160.0,-58.0,35.0,19.0,163,139,144,144,146
2025-02-26 14:36:59.469,-247.0,-1041.0,132.0,-60.0,34.0,19.0,162,136,142,143,144
2025-02-26 14:36:59.477,-246.0,-1032.0,120.0,-62.0,35.0,19.0,165,140,142,143,146
2025-02-26 14:36:59.481,-236.0,-1010.0,110.0,-63.0,36.0,19.0,163,139,144,143,145
2025-02-26 14:36:59.486,-236.0,-998.0,100.0,-64.0,36.0,18.0,164,140,146,144,146
2025-02-26 14:36:59.490,-229.0,-980.0,82.0,-66.0,36.0,18.0,162,136,142,142,143
2025-02-26 14:36:59.498,-221.0,-983.0,68.0,-67.0,36.0,17.0,159,136,140,140,142
2025-02-26 14:36:59.502,-231.0,-978.0,46.0,-68.0,33.0,17.0,163,139,145,145,146
2025-02-26 14:36:59.506,-246.0,-975.0,49.0,-70.0,32.0,17.0,166,140,144,144,147
2025-02-26 14:36:59.514,-251.0,-976.0,47.0,-70.0,31.0,16.0,163,138,144,144,144
2025-02-26 14:36:59.518,-260.0,-976.0,52.0,-68.0,32.0,16.0,159,132,141,139,143
2025-02-26 14:36:59.523,-275.0,-985.0,-5.0,-70.0,30.0,15.0,162,137,140,141,142
2025-02-26 14:36:59.527,-272.0,-949.0,-6.0,-68.0,29.0,14.0,164,143,145,143,149
2025-02-26 14:36:59.534,-272.0,-938.0,-26.0,-66.0,27.0,12.0,165,140,143,143,146
2025-02-26 14:36:59.539,-271.0,-937.0,-49.0,-66.0,26.0,11.0,161,136,142,137,141
2025-02-26 14:36:59.543,-269.0,-909.0,-73.0,-66.0,24.0,8.0,163,137,140,139,143
2025-02-26 14:36:59.551,-267.0,-912.0,-70.0,-64.0,22.0,7.0,166,142,145,145,147
2025-02-26 14:36:59.555,-254.0,-887.0,-81.0,-58.0,20.0,6.0,166,141,142,143,145
2025-02-26 14:36:59.559,-258.0,-887.0,-86.0,-55.0,21.0,5.0,163,140,143,143,145
2025-02-26 14:36:59.564,-246.0,-865.0,-83.0,-50.0,18.0,5.0,163,140,143,143,145
2025-02-26 14:36:59.571,-239.0,-862.0,-42.0,-36.0,15.0,5.0,163,140,142,142,147
2025-02-26 14:36:59.576,-253.0,-869.0,-32.0,-32.0,16.0,6.0,164,140,144,145,147
2025-02-26 14:36:59.580,-246.0,-854.0,-66.0,-33.0,15.0,6.0,161,138,143,142,145
2025-02-26 14:36:59.583,-242.0,-852.0,-82.0,-29.0,15.0,6.0,163,139,144,141,145
2025-02-26 14:36:59.591,-252.0,-830.0,-68.0,-20.0,14.0,6.0,162,137,141,142,144
2025-02-26 14:36:59.595,-249.0,-843.0,-74.0,-16.0,13.0,6.0,164,141,145,144,145
2025-02-26 14:36:59.600,-246.0,-836.0,-97.0,-14.0,12.0,6.0,163,138,143,139,147
2025-02-26 14:36:59.608,-260.0,-827.0,-90.0,-11.0,11.0,5.0,163,140,143,143,144
2025-02-26 14:36:59.612,-264.0,-818.0,-83.0,-9.0,11.0,5.0,161,138,141,141,145
2025-02-26 14:36:59.616,-262.0,-796.0,-70.0,-2.0,9.0,4.0,162,140,145,143,146
2025-02-26 14:36:59.621,-263.0,-808.0,-60.0,0.0,7.0,3.0,160,140,143,143,146
2025-02-26 14:36:59.629,-259.0,-808.0,-56.0,4.0,6.0,2.0,161,138,144,142,144
2025-02-26 14:36:59.632,-253.0,-796.0,-47.0,8.0,5.0,1.0,164,138,145,144,147
2025-02-26 14:36:59.637,-258.0,-795.0,-58.0,15.0,3.0,1.0,165,140,145,142,146
2025-02-26 14:36:59.642,-250.0,-788.0,-33.0,17.0,3.0,0.0,161,138,141,139,143
2025-02-26 14:36:59.646,-258.0,-791.0,-34.0,20.0,2.0,-1.0,162,137,142,140,144
2025-02-26 14:36:59.653,-253.0,-798.0,-36.0,25.0,2.0,-2.0,164,141,142,144,147
2025-02-26 14:36:59.656,-254.0,-808.0,-29.0,27.0,2.0,-4.0,163,139,142,145,144
2025-02-26 14:36:59.662,-252.0,-818.0,-15.0,30.0,1.0,-5.0,162,138,141,140,143
2025-02-26 14:36:59.666,-261.0,-822.0,-36.0,34.0,4.0,-6.0,162,139,142,140,145
2025-02-26 14:36:59.673,-225.0,-823.0,18.0,42.0,4.0,-8.0,164,140,144,144,147
2025-02-26 14:36:59.678,-252.0,-835.0,12.0,45.0,6.0,-9.0,164,138,142,142,147
2025-02-26 14:36:59.683,-245.0,-833.0,-25.0,47.0,6.0,-10.0,164,138,142,140,143
2025-02-26 14:36:59.686,-241.0,-841.0,-25.0,46.0,6.0,-11.0,167,141,147,144,148
2025-02-26 14:36:59.694,-251.0,-839.0,0.0,48.0,4.0,-13.0,164,140,144,144,147
2025-02-26 14:36:59.699,-243.0,-839.0,16.0,48.0,3.0,-15.0,161,137,142,139,146
2025-02-26 14:36:59.703,-240.0,-852.0,11.0,50.0,4.0,-18.0,161,137,141,140,144
2025-02-26 14:36:59.710,-238.0,-851.0,-15.0,52.0,1.0,-19.0,165,141,143,143,148
2025-02-26 14:36:59.715,-237.0,-856.0,-21.0,53.0,-1.0,-22.0,163,141,142,141,147
2025-02-26 14:36:59.719,-249.0,-866.0,25.0,55.0,-1.0,-24.0,162,139,145,144,147
2025-02-26 14:36:59.723,-248.0,-885.0,-2.0,56.0,-3.0,-26.0,164,141,144,144,148
2025-02-26 14:36:59.731,-242.0,-888.0,7.0,56.0,-8.0,-27.0,164,140,144,141,146
2025-02-26 14:36:59.735,-244.0,-903.0,40.0,58.0,-9.0,-29.0,163,140,143,142,148
2025-02-26 14:36:59.739,-237.0,-920.0,47.0,56.0,-11.0,-30.0,162,138,142,142,146
2025-02-26 14:36:59.743,-234.0,-938.0,31.0,59.0,-13.0,-31.0,165,141,143,143,147
2025-02-26 14:36:59.751,-225.0,-963.0,69.0,59.0,-15.0,-32.0,162,139,142,141,146
2025-02-26 14:36:59.755,-213.0,-963.0,83.0,59.0,-17.0,-33.0,164,140,145,143,147
2025-02-26 14:36:59.760,-196.0,-994.0,79.0,59.0,-19.0,-34.0,162,140,143,143,148
2025-02-26 14:36:59.768,-184.0,-1001.0,83.0,59.0,-23.0,-34.0,164,142,145,143,148
2025-02-26 14:36:59.772,-174.0,-1014.0,106.0,59.0,-23.0,-35.0,162,140,142,140,146
2025-02-26 14:36:59.777,-165.0,-1024.0,116.0,58.0,-21.0,-34.0,160,138,144,140,145
2025-02-26 14:36:59.784,-156.0,-1029.0,111.0,55.0,-22.0,-33.0,160,140,141,140,144
2025-02-26 14:36:59.789,-149.0,-1072.0,-3.0,58.0,-28.0,-29.0,164,141,145,144,148
2025-02-26 14:36:59.790,-127.0,-1092.0,58.0,56.0,-32.0,-31.0,164,140,144,145,147
2025-02-26 14:36:59.800,-158.0,-1103.0,231.0,52.0,-21.0,-29.0,162,139,143,143,146
2025-02-26 14:36:59.805,-121.0,-1125.0,148.0,34.0,-22.0,-27.0,164,141,144,144,148
2025-02-26 14:36:59.809,-105.0,-1138.0,186.0,40.0,-22.0,-25.0,162,138,142,141,145
2025-02-26 14:36:59.815,-118.0,-1171.0,167.0,43.0,-18.0,-23.0,161,139,142,141,146
2025-02-26 14:36:59.821,-115.0,-1190.0,188.0,35.0,-16.0,-19.0,162,140,144,143,147
2025-02-26 14:36:59.826,-101.0,-1206.0,170.0,28.0,-13.0,-15.0,163,143,146,144,150
2025-02-26 14:36:59.833,-91.0,-1213.0,174.0,28.0,-13.0,-10.0,165,141,145,142,148
2025-02-26 14:36:59.834,-86.0,-1236.0,233.0,29.0,-9.0,-6.0,162,139,143,144,146
2025-02-26 14:36:59.843,-90.0,-1249.0,242.0,24.0,-6.0,-1.0,163,138,141,141,145
2025-02-26 14:36:59.843,-79.0,-1253.0,200.0,17.0,1.0,2.0,156,138,142,144,144
2025-02-26 14:36:59.853,-90.0,-1250.0,189.0,15.0,4.0,7.0,164,141,145,144,148
2025-02-26 14:36:59.853,-96.0,-1255.0,206.0,14.0,7.0,11.0,162,142,145,141,147
2025-02-26 14:36:59.859,-106.0,-1236.0,214.0,11.0,9.0,16.0,157,137,142,141,145
2025-02-26 14:36:59.859,-107.0,-1232.0,184.0,7.0,12.0,18.0,165,142,146,143,148
2025-02-26 14:36:59.859,-109.0,-1195.0,189.0,9.0,14.0,21.0,164,142,146,145,149
2025-02-26 14:36:59.875,-122.0,-1189.0,185.0,10.0,16.0,23.0,162,140,143,141,148
2025-02-26 14:36:59.875,-131.0,-1162.0,175.0,8.0,16.0,26.0,161,139,141,141,146
2025-02-26 14:36:59.888,-141.0,-1140.0,171.0,6.0,17.0,26.0,160,137,139,140,145
2025-02-26 14:36:59.895,-149.0,-1113.0,169.0,4.0,17.0,28.0,164,141,144,141,148
2025-02-26 14:36:59.897,-159.0,-1108.0,165.0,1.0,17.0,29.0,163,141,144,143,147
2025-02-26 14:36:59.907,-162.0,-1091.0,160.0,-4.0,17.0,30.0,164,141,145,145,149
2025-02-26 14:36:59.908,-172.0,-1067.0,150.0,-5.0,16.0,31.0,161,137,142,140,145
2025-02-26 14:36:59.915,-183.0,-1064.0,155.0,-6.0,18.0,31.0,163,140,144,143,149
2025-02-26 14:36:59.919,-189.0,-1048.0,154.0,-8.0,19.0,32.0,165,141,144,143,147
2025-02-26 14:36:59.919,-194.0,-1029.0,159.0,-9.0,19.0,31.0,165,141,146,145,148
2025-02-26 14:36:59.932,-208.0,-1021.0,147.0,-8.0,18.0,31.0,162,140,143,143,148
2025-02-26 14:36:59.936,-210.0,-994.0,121.0,-11.0,17.0,29.0,161,138,142,141,144
2025-02-26 14:36:59.943,-215.0,-994.0,125.0,-9.0,17.0,29.0,163,141,144,142,148
2025-02-26 14:36:59.948,-222.0,-981.0,132.0,-12.0,17.0,27.0,163,140,145,145,148
2025-02-26 14:36:59.953,-222.0,-964.0,118.0,-12.0,16.0,24.0,163,140,144,144,148
2025-02-26 14:36:59.957,-224.0,-956.0,110.0,-14.0,16.0,23.0,160,138,142,142,146
2025-02-26 14:36:59.965,-245.0,-946.0,112.0,-14.0,15.0,22.0,161,137,142,141,146
2025-02-26 14:36:59.969,-250.0,-954.0,115.0,-16.0,13.0,20.0,164,141,145,144,149
2025-02-26 14:36:59.973,-261.0,-935.0,123.0,-16.0,12.0,20.0,164,140,144,143,148
2025-02-26 14:36:59.981,-260.0,-932.0,106.0,-17.0,10.0,18.0,162,139,144,142,147
2025-02-26 14:36:59.985,-266.0,-926.0,120.0,-16.0,10.0,18.0,164,140,144,143,148
2025-02-26 14:36:59.990,-278.0,-912.0,124.0,-13.0,10.0,17.0,160,139,142,140,146
2025-02-26 14:36:59.997,-275.0,-911.0,97.0,-13.0,8.0,16.0,164,140,144,143,148
2025-02-26 14:37:00.002,-278.0,-905.0,109.0,-10.0,9.0,15.0,163,141,144,143,149
2025-02-26 14:37:00.006,-287.0,-892.0,78.0,-9.0,5.0,15.0,164,140,144,143,149
2025-02-26 14:37:00.011,-282.0,-884.0,82.0,-8.0,3.0,14.0,162,138,144,143,146
2025-02-26 14:37:00.016,-272.0,-871.0,122.0,-6.0,2.0,13.0,163,140,144,143,148
2025-02-26 14:37:00.022,-282.0,-875.0,112.0,-3.0,2.0,11.0,163,140,144,142,148
2025-02-26 14:37:00.024,-275.0,-864.0,96.0,-2.0,2.0,10.0,163,139,142,142,148
2025-02-26 14:37:00.030,-268.0,-855.0,95.0,-1.0,0.0,9.0,161,137,142,141,146
2025-02-26 14:37:00.035,-275.0,-876.0,104.0,3.0,-3.0,8.0,165,141,143,143,147
2025-02-26 14:37:00.042,-280.0,-886.0,91.0,2.0,-6.0,6.0,162,139,140,141,147
2025-02-26 14:37:00.042,-286.0,-880.0,86.0,2.0,-8.0,5.0,162,138,141,141,148
2025-02-26 14:37:00.051,-279.0,-854.0,102.0,-2.0,-10.0,2.0,164,141,145,143,148
2025-02-26 14:37:00.054,-292.0,-857.0,129.0,0.0,-10.0,1.0,160,139,142,142,148
2025-02-26 14:37:00.054,-288.0,-866.0,160.0,4.0,-10.0,-1.0,162,138,142,141,146
2025-02-26 14:37:00.066,-295.0,-864.0,165.0,12.0,-10.0,-2.0,160,138,140,142,145
2025-02-26 14:37:00.072,-267.0,-864.0,159.0,14.0,-9.0,-3.0,165,141,145,143,149
2025-02-26 14:37:00.079,-269.0,-864.0,146.0,18.0,-8.0,-4.0,160,139,143,143,148
2025-02-26 14:37:00.079,-269.0,-870.0,143.0,18.0,-7.0,-5.0,161,137,140,140,146
2025-02-26 14:37:00.087,-264.0,-874.0,139.0,20.0,-8.0,-5.0,163,136,142,142,147
2025-02-26 14:37:00.090,-256.0,-876.0,130.0,16.0,-9.0,-6.0,164,140,144,144,149
2025-02-26 14:37:00.099,-231.0,-875.0,131.0,17.0,-11.0,-7.0,165,139,142,142,149
2025-02-26 14:37:00.100,-231.0,-860.0,146.0,14.0,-12.0,-9.0,166,140,143,142,148
2025-02-26 14:37:00.100,-225.0,-854.0,166.0,14.0,-11.0,-9.0,164,138,143,143,148
2025-02-26 14:37:00.112,-232.0,-859.0,163.0,16.0,-11.0,-10.0,160,137,142,141,146
2025-02-26 14:37:00.120,-241.0,-874.0,170.0,16.0,-12.0,-10.0,164,140,143,144,149
2025-02-26 14:37:00.125,-238.0,-871.0,162.0,19.0,-12.0,-10.0,166,143,148,146,152
2025-02-26 14:37:00.132,-254.0,-890.0,175.0,19.0,-13.0,-11.0,165,140,142,143,147
2025-02-26 14:37:00.133,-252.0,-884.0,185.0,21.0,-14.0,-12.0,161,139,141,141,147
2025-02-26 14:37:00.141,-257.0,-886.0,168.0,24.0,-14.0,-13.0,161,137,141,142,147
2025-02-26 14:37:00.145,-249.0,-886.0,184.0,24.0,-16.0,-13.0,162,138,144,143,147
2025-02-26 14:37:00.145,-271.0,-892.0,178.0,25.0,-17.0,-13.0,166,140,144,145,150
2025-02-26 14:37:00.157,-271.0,-904.0,184.0,27.0,-19.0,-15.0,162,140,144,146,149
2025-02-26 14:37:00.161,-267.0,-889.0,184.0,27.0,-20.0,-16.0,162,139,143,144,149
2025-02-26 14:37:00.169,-254.0,-882.0,186.0,28.0,-20.0,-18.0,163,138,141,143,146
2025-02-26 14:37:00.173,-248.0,-858.0,225.0,31.0,-17.0,-20.0,161,136,141,141,148
2025-02-26 14:37:00.178,-258.0,-863.0,235.0,31.0,-14.0,-21.0,163,138,142,142,147
2025-02-26 14:37:00.181,-260.0,-876.0,228.0,30.0,-11.0,-22.0,163,140,146,145,149
2025-02-26 14:37:00.190,-241.0,-900.0,188.0,26.0,-13.0,-24.0,164,142,145,145,150
2025-02-26 14:37:00.194,-228.0,-904.0,211.0,23.0,-12.0,-26.0,163,140,144,145,150
2025-02-26 14:37:00.200,-230.0,-917.0,229.0,19.0,-11.0,-27.0,162,137,142,142,150
2025-02-26 14:37:00.200,-214.0,-926.0,255.0,17.0,-10.0,-27.0,165,139,142,144,150
2025-02-26 14:37:00.200,-211.0,-930.0,256.0,17.0,-8.0,-27.0,166,141,145,146,150
2025-02-26 14:37:00.218,-222.0,-944.0,268.0,18.0,-5.0,-28.0,164,141,143,146,150
2025-02-26 14:37:00.222,-221.0,-966.0,250.0,20.0,-3.0,-27.0,160,140,143,143,148
2025-02-26 14:37:00.227,-231.0,-987.0,241.0,24.0,-2.0,-28.0,164,139,142,143,149
2025-02-26 14:37:00.231,-228.0,-991.0,234.0,29.0,0.0,-28.0,163,140,142,143,148
2025-02-26 14:37:00.238,-215.0,-989.0,217.0,31.0,-1.0,-28.0,164,141,144,144,150
2025-02-26 14:37:00.244,-210.0,-994.0,209.0,33.0,-3.0,-27.0,166,138,145,143,149
2025-02-26 14:37:00.248,-202.0,-1013.0,214.0,32.0,-5.0,-26.0,165,142,143,144,150
2025-02-26 14:37:00.255,-188.0,-1005.0,230.0,32.0,-7.0,-26.0,163,137,142,143,148
2025-02-26 14:37:00.258,-193.0,-1052.0,256.0,32.0,-11.0,-24.0,162,138,140,141,147
2025-02-26 14:37:00.264,-188.0,-1052.0,245.0,30.0,-14.0,-23.0,165,138,145,145,150
2025-02-26 14:37:00.266,-173.0,-1085.0,264.0,25.0,-13.0,-21.0,166,140,145,145,151
2025-02-26 14:37:00.275,-149.0,-1115.0,272.0,23.0,-11.0,-18.0,166,139,145,145,150
2025-02-26 14:37:00.278,-145.0,-1139.0,254.0,27.0,-9.0,-18.0,164,139,142,144,149
2025-02-26 14:37:00.288,-128.0,-1163.0,242.0,22.0,-9.0,-11.0,166,139,143,143,149
2025-02-26 14:37:00.290,-138.0,-1180.0,317.0,6.0,-6.0,-6.0,163,138,142,142,147
2025-02-26 14:37:00.297,-139.0,-1193.0,265.0,3.0,-4.0,-4.0,164,137,142,143,147
2025-02-26 14:37:00.301,-116.0,-1191.0,280.0,0.0,-4.0,1.0,166,142,147,145,150
2025-02-26 14:37:00.309,-123.0,-1205.0,329.0,-1.0,-2.0,5.0,169,140,145,146,149
2025-02-26 14:37:00.309,-121.0,-1192.0,313.0,-3.0,0.0,10.0,164,138,142,143,148
2025-02-26 14:37:00.317,-95.0,-1193.0,305.0,-7.0,4.0,11.0,162,136,140,141,146
2025-02-26 14:37:00.321,-103.0,-1161.0,309.0,-5.0,11.0,14.0,166,141,144,145,150
2025-02-26 14:37:00.329,-117.0,-1154.0,292.0,-3.0,15.0,17.0,165,140,144,145,150
2025-02-26 14:37:00.333,-119.0,-1144.0,276.0,-7.0,19.0,21.0,167,139,141,142,148
2025-02-26 14:37:00.333,-126.0,-1109.0,278.0,-8.0,20.0,24.0,162,137,141,142,146
2025-02-26 14:37:00.345,-151.0,-1112.0,264.0,-8.0,23.0,25.0,167,141,144,147,151
2025-02-26 14:37:00.345,-162.0,-1101.0,287.0,-9.0,26.0,27.0,168,141,145,145,150
2025-02-26 14:37:00.354,-176.0,-1076.0,258.0,-9.0,28.0,29.0,166,139,144,144,149
2025-02-26 14:37:00.357,-209.0,-1069.0,235.0,-8.0,28.0,31.0,164,137,142,141,147
2025-02-26 14:37:00.366,-216.0,-1051.0,237.0,-10.0,29.0,33.0,165,139,144,144,151
2025-02-26 14:37:00.369,-241.0,-1047.0,226.0,-13.0,28.0,33.0,166,140,144,145,150
2025-02-26 14:37:00.369,-237.0,-1026.0,237.0,-19.0,27.0,33.0,167,139,143,147,149
2025-02-26 14:37:00.381,-238.0,-991.0,250.0,-21.0,26.0,32.0,167,141,145,146,149
2025-02-26 14:37:00.386,-266.0,-982.0,232.0,-22.0,24.0,32.0,166,140,144,145,151
2025-02-26 14:37:00.393,-270.0,-980.0,182.0,-26.0,23.0,30.0,165,138,143,142,149
2025-02-26 14:37:00.393,-273.0,-949.0,168.0,-30.0,19.0,30.0,164,141,140,141,145
2025-02-26 14:37:00.402,-272.0,-940.0,188.0,-29.0,17.0,28.0,168,141,146,145,151
2025-02-26 14:37:00.406,-270.0,-955.0,196.0,-29.0,16.0,26.0,168,139,144,146,151
2025-02-26 14:37:00.415,-249.0,-921.0,182.0,-27.0,14.0,24.0,166,141,142,143,149
2025-02-26 14:37:00.416,-270.0,-919.0,115.0,-23.0,13.0,21.0,164,138,140,141,147
2025-02-26 14:37:00.423,-279.0,-926.0,133.0,-27.0,12.0,20.0,164,138,141,142,147
2025-02-26 14:37:00.427,-271.0,-904.0,119.0,-21.0,6.0,18.0,170,144,147,146,151
2025-02-26 14:37:00.436,-279.0,-915.0,139.0,-20.0,3.0,17.0,167,140,146,146,151
2025-02-26 14:37:00.436,-270.0,-908.0,145.0,-18.0,0.0,15.0,165,139,143,143,149
2025-02-26 14:37:00.445,-268.0,-886.0,173.0,-19.0,3.0,14.0,168,142,147,147,152
2025-02-26 14:37:00.448,-267.0,-862.0,153.0,-17.0,6.0,13.0,168,139,147,149,153
2025-02-26 14:37:00.456,-246.0,-863.0,176.0,-10.0,8.0,12.0,169,144,145,149,153
2025-02-26 14:37:00.460,-252.0,-870.0,152.0,-8.0,8.0,12.0,168,142,145,145,151
2025-02-26 14:37:00.465,-245.0,-861.0,180.0,-9.0,9.0,13.0,168,144,146,145,152
2025-02-26 14:37:00.466,-265.0,-856.0,173.0,-8.0,7.0,12.0,169,144,148,148,157
2025-02-26 14:37:00.477,-265.0,-867.0,201.0,-5.0,9.0,11.0,171,144,149,149,154
2025-02-26 14:37:00.478,-252.0,-861.0,199.0,-2.0,11.0,9.0,165,141,144,146,150
2025-02-26 14:37:00.484,-266.0,-873.0,153.0,0.0,12.0,8.0,178,154,157,159,164
2025-02-26 14:37:00.489,-274.0,-872.0,176.0,2.0,14.0,5.0,188,164,167,168,174
2025-02-26 14:37:00.496,-282.0,-878.0,179.0,1.0,16.0,2.0,185,160,163,165,169
2025-02-26 14:37:00.501,-279.0,-871.0,189.0,3.0,15.0,-1.0,182,157,160,161,165
2025-02-26 14:37:00.506,-292.0,-879.0,146.0,11.0,11.0,-2.0,185,159,162,162,168
2025-02-26 14:37:00.508,-292.0,-875.0,139.0,15.0,9.0,-4.0,183,160,162,165,167
2025-02-26 14:37:00.517,-298.0,-865.0,127.0,18.0,6.0,-5.0,181,153,159,160,163
2025-02-26 14:37:00.521,-302.0,-835.0,129.0,20.0,4.0,-5.0,177,151,154,156,164
2025-02-26 14:37:00.529,-303.0,-822.0,167.0,29.0,-1.0,-6.0,191,164,168,170,174
2025-02-26 14:37:00.531,-257.0,-804.0,141.0,28.0,-7.0,-7.0,187,164,169,169,172
2025-02-26 14:37:00.538,-258.0,-765.0,159.0,22.0,-8.0,-8.0,184,159,164,164,169
2025-02-26 14:37:00.542,-268.0,-756.0,182.0,25.0,-8.0,-10.0,182,157,163,163,168
2025-02-26 14:37:00.550,-286.0,-767.0,176.0,22.0,-9.0,-10.0,187,159,164,163,169
2025-02-26 14:37:00.554,-309.0,-767.0,234.0,13.0,-5.0,-13.0,187,163,167,169,174
2025-02-26 14:37:00.559,-305.0,-789.0,87.0,11.0,-14.0,-14.0,187,161,167,166,173
2025-02-26 14:37:00.566,-304.0,-776.0,170.0,14.0,-16.0,-18.0,191,166,171,170,175
2025-02-26 14:37:00.571,-327.0,-834.0,201.0,21.0,-15.0,-20.0,194,168,173,175,178
2025-02-26 14:37:00.574,-302.0,-791.0,198.0,9.0,-9.0,-23.0,189,164,170,171,175
2025-02-26 14:37:00.580,-271.0,-785.0,188.0,20.0,-8.0,-27.0,189,164,169,171,174
2025-02-26 14:37:00.581,-298.0,-834.0,193.0,16.0,-8.0,-29.0,211,186,189,193,194
2025-02-26 14:37:00.591,-265.0,-819.0,284.0,15.0,-2.0,-34.0,206,183,187,189,192
2025-02-26 14:37:00.593,-254.0,-824.0,246.0,29.0,-2.0,-37.0,201,178,181,183,185
2025-02-26 14:37:00.603,-234.0,-851.0,250.0,35.0,-1.0,-39.0,199,176,181,181,186
2025-02-26 14:37:00.604,-228.0,-868.0,223.0,41.0,2.0,-44.0,211,186,190,193,197
2025-02-26 14:37:00.604,-223.0,-871.0,189.0,48.0,-1.0,-47.0,212,189,193,194,197
2025-02-26 14:37:00.620,-210.0,-907.0,250.0,46.0,-6.0,-52.0,210,185,192,194,193
2025-02-26 14:37:00.624,-205.0,-929.0,279.0,47.0,-4.0,-56.0,203,178,183,185,190
2025-02-26 14:37:00.628,-175.0,-949.0,287.0,42.0,-3.0,-58.0,202,180,184,184,191
2025-02-26 14:37:00.633,-179.0,-941.0,263.0,35.0,-7.0,-59.0,218,193,199,201,203
2025-02-26 14:37:00.640,-159.0,-956.0,291.0,30.0,-5.0,-58.0,220,197,203,202,205
2025-02-26 14:37:00.645,-173.0,-951.0,253.0,32.0,-5.0,-55.0,216,192,197,199,202
2025-02-26 14:37:00.649,-185.0,-1036.0,230.0,34.0,-7.0,-49.0,212,187,192,195,196
2025-02-26 14:37:00.656,-171.0,-1030.0,303.0,27.0,-8.0,-46.0,209,185,190,192,193
2025-02-26 14:37:00.661,-159.0,-1042.0,297.0,16.0,-14.0,-40.0,207,183,189,190,192
2025-02-26 14:37:00.665,-140.0,-1065.0,327.0,23.0,-24.0,-33.0,206,182,189,189,191
2025-02-26 14:37:00.673,-151.0,-1121.0,329.0,18.0,-26.0,-26.0,196,171,176,179,179
2025-02-26 14:37:00.677,-149.0,-1140.0,287.0,23.0,-27.0,-21.0,183,158,165,165,166
2025-02-26 14:37:00.681,-125.0,-1159.0,300.0,13.0,-22.0,-16.0,181,156,159,163,164
2025-02-26 14:37:00.689,-113.0,-1165.0,302.0,6.0,-15.0,-13.0,181,156,161,164,163
2025-02-26 14:37:00.693,-92.0,-1176.0,296.0,13.0,-17.0,-11.0,184,156,163,165,165
2025-02-26 14:37:00.698,-85.0,-1200.0,328.0,10.0,-19.0,-9.0,181,157,163,163,165
2025-02-26 14:37:00.706,-77.0,-1181.0,329.0,6.0,-19.0,-7.0,183,157,163,165,165
2025-02-26 14:37:00.710,-86.0,-1189.0,358.0,5.0,-17.0,-4.0,180,153,158,160,161
2025-02-26 14:37:00.712,-98.0,-1180.0,343.0,9.0,-13.0,-1.0,181,156,160,163,163
2025-02-26 14:37:00.718,-89.0,-1182.0,373.0,2.0,-4.0,0.0,185,161,166,167,168
2025-02-26 14:37:00.727,-111.0,-1140.0,270.0,7.0,1.0,3.0,190,162,169,171,173
2025-02-26 14:37:00.730,-112.0,-1145.0,313.0,8.0,3.0,6.0,181,155,162,163,164
2025-02-26 14:37:00.735,-103.0,-1151.0,337.0,12.0,5.0,7.0,177,152,159,160,161
2025-02-26 14:37:00.735,-111.0,-1134.0,301.0,10.0,5.0,10.0,183,157,164,165,166
2025-02-26 14:37:00.746,-109.0,-1105.0,262.0,12.0,4.0,13.0,186,161,168,168,170
2025-02-26 14:37:00.751,-106.0,-1080.0,270.0,18.0,5.0,16.0,183,157,162,165,165
2025-02-26 14:37:00.756,-133.0,-1050.0,295.0,15.0,6.0,16.0,183,156,164,164,165
2025-02-26 14:37:00.760,-123.0,-1038.0,311.0,23.0,9.0,17.0,187,162,169,170,171
2025-02-26 14:37:00.768,-147.0,-1031.0,270.0,25.0,8.0,18.0,184,158,165,165,166
2025-02-26 14:37:00.771,-141.0,-1027.0,299.0,24.0,10.0,19.0,170,144,151,152,153
2025-02-26 14:37:00.776,-146.0,-1009.0,290.0,21.0,11.0,20.0,168,143,148,149,151
2025-02-26 14:37:00.784,-166.0,-1003.0,297.0,14.0,9.0,21.0,174,147,155,156,156
2025-02-26 14:37:00.788,-179.0,-986.0,284.0,12.0,9.0,21.0,176,151,156,158,159
2025-02-26 14:37:00.792,-192.0,-985.0,350.0,6.0,6.0,22.0,174,148,156,156,157
2025-02-26 14:37:00.796,-200.0,-997.0,316.0,5.0,3.0,23.0,170,145,152,153,154
2025-02-26 14:37:00.804,-202.0,-965.0,320.0,-1.0,5.0,23.0,191,166,174,172,174
2025-02-26 14:37:00.808,-209.0,-961.0,266.0,-1.0,8.0,22.0,200,172,179,176,180
2025-02-26 14:37:00.813,-230.0,-980.0,267.0,2.0,6.0,22.0,188,164,170,172,174
2025-02-26 14:37:00.817,-245.0,-970.0,299.0,1.0,4.0,22.0,187,160,164,169,170
2025-02-26 14:37:00.824,-230.0,-953.0,312.0,5.0,6.0,21.0,192,167,175,176,176
2025-02-26 14:37:00.826,-222.0,-954.0,267.0,3.0,2.0,20.0,195,171,179,179,181
2025-02-26 14:37:00.833,-230.0,-954.0,287.0,2.0,1.0,20.0,192,167,176,175,177
2025-02-26 14:37:00.838,-224.0,-947.0,283.0,3.0,0.0,19.0,197,172,173,179,180
2025-02-26 14:37:00.845,-219.0,-913.0,290.0,5.0,-2.0,18.0,196,171,179,179,180
2025-02-26 14:37:00.849,-196.0,-918.0,318.0,5.0,0.0,19.0,194,169,177,177,179
2025-02-26 14:37:00.849,-222.0,-907.0,292.0,4.0,2.0,20.0,197,172,177,180,180
2025-02-26 14:37:00.858,-230.0,-911.0,267.0,5.0,4.0,20.0,202,180,182,184,187
2025-02-26 14:37:00.862,-233.0,-914.0,269.0,7.0,2.0,21.0,198,177,181,184,185
2025-02-26 14:37:00.870,-242.0,-931.0,290.0,-2.0,2.0,21.0,196,173,180,181,182
2025-02-26 14:37:00.874,-233.0,-920.0,345.0,-4.0,6.0,21.0,202,176,182,182,184
2025-02-26 14:37:00.878,-256.0,-951.0,292.0,-4.0,1.0,23.0,217,198,202,201,205
2025-02-26 14:37:00.882,-267.0,-941.0,311.0,-9.0,7.0,23.0,194,170,176,177,179
2025-02-26 14:37:00.887,-252.0,-959.0,273.0,-6.0,7.0,24.0,204,183,189,189,191
2025-02-26 14:37:00.895,-280.0,-968.0,354.0,-11.0,6.0,25.0,205,181,187,189,190
2025-02-26 14:37:00.899,-260.0,-962.0,363.0,3.0,10.0,25.0,206,183,189,188,190
2025-02-26 14:37:00.906,-281.0,-1008.0,316.0,3.0,7.0,25.0,199,176,182,184,184
2025-02-26 14:37:00.911,-271.0,-973.0,327.0,-4.0,8.0,25.0,196,173,180,180,180
2025-02-26 14:37:00.915,-238.0,-988.0,333.0,-5.0,11.0,25.0,201,178,184,183,185
2025-02-26 14:37:00.919,-270.0,-994.0,343.0,-1.0,5.0,25.0,197,173,180,182,183
2025-02-26 14:37:00.927,-280.0,-1020.0,356.0,-1.0,6.0,24.0,202,178,185,185,186
2025-02-26 14:37:00.931,-235.0,-1011.0,318.0,-4.0,6.0,23.0,197,173,179,179,180
2025-02-26 14:37:00.936,-243.0,-1000.0,290.0,-8.0,11.0,25.0,221,199,205,204,205
2025-02-26 14:37:00.939,-250.0,-1019.0,346.0,-14.0,12.0,28.0,217,197,204,204,204
2025-02-26 14:37:00.947,-236.0,-1036.0,361.0,-10.0,14.0,32.0,218,194,200,203,203
2025-02-26 14:37:00.952,-228.0,-1062.0,353.0,-12.0,15.0,36.0,204,180,186,188,189
2025-02-26 14:37:00.956,-195.0,-1087.0,333.0,-28.0,15.0,42.0,206,183,191,190,191
2025-02-26 14:37:00.964,-162.0,-1090.0,349.0,-34.0,16.0,45.0,224,199,206,207,207
2025-02-26 14:37:00.968,-187.0,-1140.0,361.0,-41.0,19.0,49.0,220,195,204,203,204
2025-02-26 14:37:00.973,-162.0,-1145.0,377.0,-50.0,23.0,52.0,225,201,209,210,210
2025-02-26 14:37:00.980,-222.0,-1160.0,280.0,-51.0,16.0,57.0,244,220,226,228,227
2025-02-26 14:37:00.985,-274.0,-1208.0,327.0,-67.0,13.0,60.0,193,166,177,174,177
2025-02-26 14:37:00.988,-285.0,-1162.0,434.0,-66.0,15.0,58.0,179,151,159,160,162
2025-02-26 14:37:00.997,-299.0,-1194.0,430.0,-62.0,21.0,58.0,203,174,184,184,186
2025-02-26 14:37:01.001,-299.0,-1232.0,335.0,-69.0,18.0,58.0,211,185,194,194,197
2025-02-26 14:37:01.006,-294.0,-1227.0,318.0,-75.0,15.0,59.0,243,216,224,226,227
2025-02-26 14:37:01.014,-278.0,-1193.0,291.0,-77.0,16.0,61.0,233,205,215,212,218
2025-02-26 14:37:01.017,-287.0,-1166.0,34.0,-98.0,10.0,64.0,226,199,208,208,212
2025-02-26 14:37:01.022,-266.0,-1180.0,311.0,-108.0,3.0,68.0,219,188,200,199,202
2025-02-26 14:37:01.029,-264.0,-1071.0,304.0,-97.0,10.0,71.0,236,206,216,214,220
2025-02-26 14:37:01.033,-260.0,-1071.0,306.0,-95.0,9.0,75.0,234,206,217,214,220
2025-02-26 14:37:01.038,-261.0,-1064.0,346.0,-95.0,15.0,78.0,225,196,207,205,209
2025-02-26 14:37:01.042,-299.0,-1018.0,296.0,-92.0,22.0,80.0,215,182,197,192,200
2025-02-26 14:37:01.050,-292.0,-1004.0,260.0,-85.0,27.0,81.0,213,179,192,189,197
2025-02-26 14:37:01.054,-354.0,-1013.0,229.0,-83.0,27.0,81.0,212,176,193,188,196
2025-02-26 14:37:01.058,-355.0,-1004.0,303.0,-86.0,33.0,80.0,217,181,198,191,202
2025-02-26 14:37:01.066,-361.0,-981.0,214.0,-83.0,31.0,80.0,223,184,202,196,201
2025-02-26 14:37:01.069,-368.0,-1018.0,188.0,-78.0,28.0,79.0,214,174,193,187,199
2025-02-26 14:37:01.074,-353.0,-985.0,196.0,-89.0,31.0,78.0,211,171,189,183,196
2025-02-26 14:37:01.080,-373.0,-977.0,171.0,-81.0,34.0,77.0,209,165,187,180,193
2025-02-26 14:37:01.086,-392.0,-975.0,127.0,-82.0,31.0,77.0,214,171,192,185,199
2025-02-26 14:37:01.091,-372.0,-939.0,84.0,-82.0,31.0,78.0,213,167,192,183,196
2025-02-26 14:37:01.098,-369.0,-911.0,137.0,-79.0,40.0,79.0,209,160,185,177,192
2025-02-26 14:37:01.103,-375.0,-919.0,158.0,-71.0,45.0,79.0,206,156,181,173,188
2025-02-26 14:37:01.107,-390.0,-878.0,51.0,-79.0,50.0,79.0,207,157,182,175,190
2025-02-26 14:37:01.112,-434.0,-896.0,151.0,-68.0,46.0,77.0,215,161,187,180,194
2025-02-26 14:37:01.119,-456.0,-896.0,236.0,-71.0,59.0,78.0,209,153,182,174,188
2025-02-26 14:37:01.123,-474.0,-827.0,125.0,-79.0,62.0,75.0,215,160,189,178,194
2025-02-26 14:37:01.128,-480.0,-802.0,97.0,-87.0,69.0,74.0,210,153,183,173,189
2025-02-26 14:37:01.134,-488.0,-801.0,-7.0,-104.0,79.0,75.0,209,151,180,171,187
2025-02-26 14:37:01.140,-517.0,-761.0,36.0,-122.0,87.0,74.0,221,162,192,185,199
2025-02-26 14:37:01.144,-508.0,-785.0,67.0,-131.0,84.0,73.0,219,160,190,180,196
2025-02-26 14:37:01.146,-502.0,-709.0,22.0,-140.0,77.0,69.0,211,150,179,171,188
2025-02-26 14:37:01.156,-490.0,-761.0,-31.0,-122.0,79.0,69.0,206,144,172,166,182
2025-02-26 14:37:01.160,-498.0,-728.0,-195.0,-105.0,55.0,68.0,212,147,175,167,184
2025-02-26 14:37:01.165,-539.0,-778.0,-35.0,-82.0,41.0,65.0,221,153,180,176,191
2025-02-26 14:37:01.173,-544.0,-772.0,-36.0,-78.0,40.0,62.0,216,150,176,171,186
2025-02-26 14:37:01.176,-528.0,-741.0,-95.0,-80.0,47.0,63.0,208,146,171,167,182
2025-02-26 14:37:01.182,-507.0,-724.0,-137.0,-80.0,52.0,63.0,214,142,171,165,177
2025-02-26 14:37:01.189,-485.0,-694.0,-128.0,-79.0,56.0,62.0,213,144,172,167,179
2025-02-26 14:37:01.194,-529.0,-673.0,-160.0,-83.0,59.0,60.0,229,160,187,182,195
2025-02-26 14:37:01.196,-573.0,-697.0,-213.0,-100.0,60.0,58.0,224,164,185,178,194
2025-02-26 14:37:01.206,-592.0,-650.0,-280.0,-98.0,50.0,54.0,221,151,180,176,185
2025-02-26 14:37:01.208,-582.0,-635.0,-284.0,-90.0,37.0,50.0,224,154,180,174,187
2025-02-26 14:37:01.214,-584.0,-617.0,-129.0,-79.0,35.0,44.0,222,149,176,168,181
2025-02-26 14:37:01.221,-561.0,-584.0,-210.0,-57.0,29.0,43.0,217,147,176,168,181
2025-02-26 14:37:01.226,-582.0,-583.0,-242.0,-29.0,19.0,40.0,230,159,186,178,189
2025-02-26 14:37:01.230,-586.0,-545.0,-200.0,-16.0,15.0,37.0,226,151,181,173,184
2025-02-26 14:37:01.238,-601.0,-556.0,-230.0,-13.0,13.0,35.0,222,149,176,171,179
2025-02-26 14:37:01.242,-580.0,-510.0,-200.0,-8.0,13.0,33.0,216,143,172,166,176
2025-02-26 14:37:01.250,-597.0,-501.0,-195.0,-10.0,16.0,32.0,219,143,171,165,174
2025-02-26 14:37:01.254,-601.0,-511.0,-149.0,-13.0,25.0,31.0,209,135,164,158,163
2025-02-26 14:37:01.259,-612.0,-491.0,-240.0,-13.0,27.0,29.0,218,144,167,164,171
2025-02-26 14:37:01.263,-616.0,-453.0,-182.0,-14.0,28.0,24.0,220,144,169,166,172
2025-02-26 14:37:01.267,-623.0,-447.0,-202.0,-11.0,26.0,20.0,214,139,163,160,166
2025-02-26 14:37:01.275,-589.0,-374.0,-175.0,-12.0,23.0,14.0,210,134,158,154,159
2025-02-26 14:37:01.279,-591.0,-332.0,-270.0,1.0,18.0,7.0,209,132,156,154,157
2025-02-26 14:37:01.280,-624.0,-319.0,-203.0,14.0,17.0,4.0,217,143,167,160,165
2025-02-26 14:37:01.291,-665.0,-300.0,-245.0,27.0,14.0,-2.0,223,148,171,170,170
2025-02-26 14:37:01.296,-676.0,-175.0,-211.0,20.0,7.0,-12.0,219,141,168,165,164
2025-02-26 14:37:01.300,-669.0,-167.0,-330.0,45.0,0.0,-16.0,193,114,137,133,133
2025-02-26 14:37:01.305,-709.0,-135.0,-166.0,64.0,-11.0,-20.0,190,108,132,130,128
2025-02-26 14:37:01.312,-742.0,-66.0,-224.0,70.0,-16.0,-27.0,194,116,138,136,132
2025-02-26 14:37:01.316,-745.0,55.0,-250.0,80.0,-22.0,-35.0,200,122,144,142,137
2025-02-26 14:37:01.321,-789.0,209.0,-302.0,85.0,-30.0,-44.0,203,124,146,144,137
2025-02-26 14:37:01.329,-767.0,315.0,-267.0,99.0,-38.0,-54.0,238,166,185,182,177
2025-02-26 14:37:01.332,-730.0,426.0,-212.0,108.0,-37.0,-63.0,229,153,171,172,164
2025-02-26 14:37:01.337,-716.0,487.0,-157.0,115.0,-35.0,-68.0,197,121,139,138,127
2025-02-26 14:37:01.342,-685.0,564.0,-147.0,112.0,-31.0,-81.0,217,140,158,159,148
2025-02-26 14:37:01.349,-689.0,848.0,-113.0,137.0,-30.0,-102.0,211,136,154,156,141
2025-02-26 14:37:01.354,-754.0,819.0,-475.0,110.0,-36.0,-121.0,212,135,154,156,141
2025-02-26 14:37:01.360,-746.0,1030.0,-342.0,106.0,-18.0,-144.0,203,125,148,148,133
2025-02-26 14:37:01.366,-626.0,1081.0,-491.0,100.0,-9.0,-164.0,206,130,152,153,136
2025-02-26 14:37:01.373,-742.0,1339.0,-656.0,89.0,-10.0,-200.0,203,124,146,147,132
2025-02-26 14:37:01.377,-896.0,1534.0,-629.0,127.0,-7.0,-238.0,200,124,146,146,129
2025-02-26 14:37:01.382,-942.0,1721.0,-682.0,172.0,-4.0,-260.0,201,129,150,150,133
2025-02-26 14:37:01.388,-788.0,1841.0,-705.0,189.0,-19.0,-316.0,201,131,151,153,134
2025-02-26 14:37:01.393,-687.0,1992.0,-747.0,207.0,-45.0,-373.0,201,129,154,154,136
2025-02-26 14:37:01.398,-501.0,1842.0,-651.0,232.0,-77.0,-437.0,200,132,155,157,138
2025-02-26 14:37:01.406,-283.0,1888.0,-682.0,257.0,-131.0,-511.0,205,137,162,164,145
2025-02-26 14:37:01.410,114.0,1878.0,-615.0,302.0,-188.0,-584.0,190,124,148,149,131
2025-02-26 14:37:01.418,570.0,1609.0,-478.0,312.0,-223.0,-645.0,188,124,152,150,133
2025-02-26 14:37:01.424,1246.0,1151.0,-223.0,337.0,-247.0,-690.0,190,127,155,150,134
2025-02-26 14:37:01.429,2024.0,748.0,570.0,355.0,-276.0,-706.0,178,112,142,139,123
2025-02-26 14:37:01.435,2440.0,14.0,840.0,374.0,-295.0,-695.0,175,113,142,136,122
2025-02-26 14:37:01.437,3041.0,-1130.0,1461.0,387.0,-287.0,-626.0,175,113,143,136,122
2025-02-26 14:37:01.443,3622.0,-2841.0,2159.0,401.0,-252.0,-506.0,180,118,149,140,128
2025-02-26 14:37:01.449,4018.0,-4237.0,2834.0,433.0,-211.0,-433.0,191,132,161,155,143
2025-02-26 14:37:01.455,4371.0,-5598.0,3167.0,513.0,-196.0,-279.0,199,141,168,164,151
2025-02-26 14:37:01.461,4775.0,-6373.0,3123.0,574.0,-155.0,-168.0,190,135,158,155,145
2025-02-26 14:37:01.467,4563.0,-6390.0,3153.0,562.0,-14.0,-56.0,180,112,146,142,132
2025-02-26 14:37:01.476,3812.0,-5946.0,2902.0,468.0,166.0,19.0,184,126,148,144,139
2025-02-26 14:37:01.480,2490.0,-5465.0,2804.0,363.0,164.0,99.0,186,133,149,143,136
2025-02-26 14:37:01.485,1467.0,-3152.0,2423.0,176.0,149.0,161.0,179,126,150,141,135
2025-02-26 14:37:01.492,951.0,-1610.0,2302.0,-34.0,44.0,179.0,228,176,206,192,185
2025-02-26 14:37:01.497,512.0,-661.0,2001.0,-163.0,17.0,203.0,226,174,203,190,181
2025-02-26 14:37:01.501,581.0,-847.0,1874.0,-339.0,-15.0,190.0,211,160,181,177,168
2025-02-26 14:37:01.508,672.0,-1321.0,1610.0,-457.0,-32.0,184.0,208,155,172,175,163
2025-02-26 14:37:01.512,586.0,-2000.0,1382.0,-498.0,-42.0,185.0,207,156,175,176,166
2025-02-26 14:37:01.517,559.0,-2171.0,1112.0,-492.0,-83.0,187.0,207,155,176,176,168
2025-02-26 14:37:01.525,571.0,-2286.0,952.0,-442.0,-63.0,192.0,168,116,134,138,126
2025-02-26 14:37:01.529,590.0,-2241.0,858.0,-400.0,-24.0,195.0,155,102,123,124,112
2025-02-26 14:37:01.537,488.0,-2250.0,689.0,-339.0,23.0,189.0,155,99,122,121,108
2025-02-26 14:37:01.541,448.0,-2133.0,607.0,-309.0,48.0,182.0,169,118,140,139,126
2025-02-26 14:37:01.545,432.0,-2054.0,539.0,-249.0,60.0,180.0,182,126,152,152,139
2025-02-26 14:37:01.554,399.0,-1914.0,582.0,-220.0,51.0,199.0,199,146,167,168,157
2025-02-26 14:37:01.557,331.0,-1737.0,602.0,-184.0,24.0,207.0,174,120,139,141,129
2025-02-26 14:37:01.560,237.0,-1610.0,567.0,-158.0,-3.0,221.0,175,118,140,142,129
2025-02-26 14:37:01.569,266.0,-1368.0,549.0,-157.0,1.0,238.0,181,125,156,151,140
2025-02-26 14:37:01.574,204.0,-1132.0,472.0,-144.0,5.0,247.0,192,136,162,156,147
2025-02-26 14:37:01.578,245.0,-989.0,482.0,-143.0,0.0,250.0,189,135,162,157,148
2025-02-26 14:37:01.583,206.0,-776.0,450.0,-151.0,1.0,252.0,179,126,151,146,139
2025-02-26 14:37:01.591,208.0,-709.0,434.0,-156.0,2.0,252.0,199,141,169,166,157
2025-02-26 14:37:01.595,113.0,-556.0,435.0,-159.0,-7.0,252.0,211,157,182,178,168
2025-02-26 14:37:01.599,198.0,-458.0,408.0,-166.0,-8.0,246.0,214,157,183,180,172
2025-02-26 14:37:01.606,115.0,-389.0,382.0,-170.0,0.0,243.0,220,164,191,187,178
2025-02-26 14:37:01.611,83.0,-322.0,321.0,-167.0,4.0,239.0,217,162,187,184,177
2025-02-26 14:37:01.615,30.0,-301.0,288.0,-160.0,8.0,236.0,215,161,185,183,174
2025-02-26 14:37:01.623,-19.0,-267.0,292.0,-154.0,12.0,228.0,221,168,189,189,182
2025-02-26 14:37:01.627,-147.0,-223.0,257.0,-151.0,16.0,222.0,222,167,189,189,179
2025-02-26 14:37:01.632,-232.0,-180.0,210.0,-143.0,21.0,214.0,213,157,180,180,173
2025-02-26 14:37:01.639,-271.0,-168.0,187.0,-136.0,19.0,203.0,207,152,174,174,167
2025-02-26 14:37:01.644,-322.0,-150.0,129.0,-122.0,20.0,191.0,208,151,174,174,167
2025-02-26 14:37:01.648,-377.0,-97.0,127.0,-111.0,24.0,186.0,213,162,179,179,172
2025-02-26 14:37:01.655,-398.0,-79.0,77.0,-103.0,35.0,175.0,218,164,185,186,178
2025-02-26 14:37:01.660,-455.0,-25.0,48.0,-95.0,48.0,167.0,219,162,182,185,176
2025-02-26 14:37:01.664,-474.0,-29.0,20.0,-92.0,53.0,159.0,213,161,181,181,172
2025-02-26 14:37:01.668,-489.0,4.0,-9.0,-88.0,54.0,152.0,204,146,169,170,162
2025-02-26 14:37:01.677,-506.0,-2.0,-29.0,-88.0,59.0,150.0,204,147,170,169,160
2025-02-26 14:37:01.681,-526.0,80.0,-46.0,-87.0,66.0,142.0,205,150,172,171,163
2025-02-26 14:37:01.685,-548.0,140.0,-82.0,-90.0,74.0,137.0,209,152,175,175,168
2025-02-26 14:37:01.692,-575.0,160.0,-121.0,-80.0,74.0,129.0,194,138,160,159,153
2025-02-26 14:37:01.697,-618.0,304.0,-121.0,-77.0,73.0,116.0,192,133,158,156,151
2025-02-26 14:37:01.701,-613.0,213.0,-147.0,-69.0,62.0,109.0,196,137,163,159,155
2025-02-26 14:37:01.705,-632.0,270.0,-129.0,-64.0,50.0,95.0,197,138,164,161,155
2025-02-26 14:37:01.713,-625.0,336.0,-149.0,-60.0,53.0,83.0,193,136,159,156,150
2025-02-26 14:37:01.718,-619.0,343.0,-152.0,-53.0,59.0,71.0,186,127,153,150,145
2025-02-26 14:37:01.722,-651.0,368.0,-138.0,-48.0,57.0,58.0,185,124,151,148,143
2025-02-26 14:37:01.729,-684.0,383.0,-180.0,-39.0,52.0,51.0,191,132,156,153,147
2025-02-26 14:37:01.734,-716.0,430.0,-192.0,-27.0,45.0,36.0,193,133,159,158,151
2025-02-26 14:37:01.738,-724.0,499.0,-218.0,-21.0,37.0,22.0,184,126,153,147,145
2025-02-26 14:37:01.743,-759.0,587.0,-249.0,-12.0,26.0,9.0,184,125,149,147,140
2025-02-26 14:37:01.751,-775.0,681.0,-271.0,0.0,21.0,-3.0,183,124,150,142,142
2025-02-26 14:37:01.754,-858.0,753.0,-265.0,7.0,6.0,-9.0,192,131,154,152,148
2025-02-26 14:37:01.759,-925.0,894.0,-292.0,12.0,-10.0,-22.0,189,127,152,149,145
2025-02-26 14:37:01.767,-1015.0,1075.0,-291.0,18.0,-26.0,-33.0,187,126,151,148,144
2025-02-26 14:37:01.771,-1062.0,1288.0,-251.0,21.0,-36.0,-47.0,185,124,149,147,144
2025-02-26 14:37:01.775,-1136.0,1515.0,-190.0,32.0,-55.0,-66.0,183,122,145,145,140
2025-02-26 14:37:01.782,-1162.0,1625.0,-70.0,47.0,-68.0,-79.0,182,122,147,146,141
2025-02-26 14:37:01.788,-1059.0,1854.0,39.0,81.0,-73.0,-127.0,192,130,157,155,150
2025-02-26 14:37:01.791,-905.0,2044.0,94.0,123.0,-69.0,-204.0,191,128,156,152,148
2025-02-26 14:37:01.799,-679.0,2206.0,121.0,183.0,-61.0,-299.0,191,126,155,153,146
2025-02-26 14:37:01.802,-405.0,2128.0,151.0,212.0,-46.0,-396.0,187,125,152,150,144
2025-02-26 14:37:01.808,-154.0,1929.0,227.0,264.0,-33.0,-484.0,183,123,154,147,143
2025-02-26 14:37:01.816,-8.0,1608.0,191.0,307.0,-30.0,-562.0,184,122,149,149,141
2025-02-26 14:37:01.820,230.0,1219.0,201.0,340.0,-31.0,-595.0,186,124,153,149,141
2025-02-26 14:37:01.824,608.0,949.0,88.0,372.0,-31.0,-650.0,197,136,165,159,154
2025-02-26 14:37:01.832,997.0,751.0,138.0,402.0,-34.0,-705.0,194,133,163,157,149
2025-02-26 14:37:01.837,1539.0,548.0,144.0,419.0,-44.0,-750.0,192,133,161,154,149
2025-02-26 14:37:01.841,2192.0,55.0,588.0,437.0,-52.0,-759.0,191,129,159,153,146
2025-02-26 14:37:01.849,2624.0,-1409.0,790.0,409.0,-57.0,-712.0,187,124,158,152,146
2025-02-26 14:37:01.853,3353.0,-3116.0,1323.0,378.0,-39.0,-601.0,185,124,159,148,141
2025-02-26 14:37:01.861,3554.0,-4978.0,1598.0,385.0,-18.0,-446.0,189,126,159,150,145
2025-02-26 14:37:01.863,4094.0,-6024.0,2174.0,377.0,-20.0,-361.0,186,125,157,152,147
2025-02-26 14:37:01.870,4330.0,-7435.0,2599.0,429.0,-3.0,-196.0,187,123,152,149,146
2025-02-26 14:37:01.875,4239.0,-8286.0,2526.0,405.0,16.0,-39.0,193,128,152,150,150
2025-02-26 14:37:01.881,3617.0,-7567.0,2409.0,297.0,89.0,124.0,192,126,150,146,148
2025-02-26 14:37:01.886,2599.0,-5852.0,1890.0,146.0,166.0,238.0,193,129,155,147,150
2025-02-26 14:37:01.894,1600.0,-3608.0,1502.0,-42.0,137.0,296.0,195,134,163,150,154
2025-02-26 14:37:01.898,715.0,-1675.0,1149.0,-104.0,9.0,303.0,180,116,149,128,133
2025-02-26 14:37:01.905,421.0,-740.0,948.0,-199.0,-119.0,287.0,163,98,129,109,116
2025-02-26 14:37:01.910,436.0,-761.0,839.0,-320.0,-140.0,294.0,165,98,128,112,117
2025-02-26 14:37:01.914,550.0,-1165.0,787.0,-407.0,-155.0,298.0,161,97,120,114,118
2025-02-26 14:37:01.922,620.0,-1345.0,595.0,-421.0,-163.0,293.0,164,100,122,119,121
2025-02-26 14:37:01.926,508.0,-1746.0,533.0,-407.0,-185.0,283.0,170,106,133,128,129
2025-02-26 14:37:01.929,551.0,-1912.0,487.0,-360.0,-184.0,277.0,167,102,131,124,126
2025-02-26 14:37:01.939,676.0,-2094.0,630.0,-275.0,-142.0,251.0,167,105,134,130,128
2025-02-26 14:37:01.943,782.0,-2053.0,659.0,-214.0,-53.0,229.0,170,104,134,131,128
2025-02-26 14:37:01.948,638.0,-1987.0,599.0,-177.0,42.0,204.0,170,105,134,132,127
2025-02-26 14:37:01.955,674.0,-1920.0,611.0,-138.0,101.0,192.0,167,100,130,126,123
2025-02-26 14:37:01.959,581.0,-1890.0,362.0,-127.0,107.0,200.0,165,100,129,126,122
2025-02-26 14:37:01.967,249.0,-1673.0,370.0,-119.0,100.0,219.0,168,101,129,128,127
2025-02-26 14:37:01.972,227.0,-1593.0,427.0,-79.0,96.0,227.0,165,98,129,125,123
2025-02-26 14:37:01.976,196.0,-1449.0,374.0,-50.0,81.0,241.0,168,103,134,132,129
2025-02-26 14:37:01.980,118.0,-1230.0,257.0,-67.0,69.0,259.0,169,102,136,132,130
2025-02-26 14:37:01.988,-82.0,-1025.0,214.0,-77.0,68.0,288.0,172,102,139,132,132
2025-02-26 14:37:01.992,-78.0,-787.0,384.0,-67.0,62.0,297.0,166,98,131,125,126
2025-02-26 14:37:01.996,27.0,-618.0,424.0,-64.0,34.0,296.0,164,96,128,123,125
2025-02-26 14:37:02.004,49.0,-437.0,343.0,-72.0,24.0,289.0,169,101,131,130,132
2025-02-26 14:37:02.009,0.0,-230.0,366.0,-82.0,44.0,289.0,171,103,130,131,132
2025-02-26 14:37:02.012,3.0,53.0,376.0,-99.0,54.0,280.0,166,98,124,126,126
2025-02-26 14:37:02.016,-130.0,135.0,319.0,-94.0,64.0,270.0,168,99,124,122,126
2025-02-26 14:37:02.024,-204.0,192.0,313.0,-97.0,63.0,247.0,169,101,127,128,129
2025-02-26 14:37:02.028,-263.0,241.0,322.0,-103.0,65.0,225.0,174,96,122,116,123
2025-02-26 14:37:02.033,-272.0,243.0,352.0,-120.0,68.0,208.0,157,90,115,117,117
2025-02-26 14:37:02.041,-274.0,222.0,300.0,-128.0,67.0,188.0,156,92,114,115,118
2025-02-26 14:37:02.045,-363.0,199.0,333.0,-141.0,52.0,178.0,161,92,122,118,121
2025-02-26 14:37:02.050,-397.0,133.0,362.0,-155.0,50.0,162.0,163,95,119,121,121
2025-02-26 14:37:02.054,-429.0,127.0,247.0,-162.0,66.0,155.0,159,92,117,118,118
2025-02-26 14:37:02.061,-423.0,179.0,192.0,-164.0,70.0,146.0,158,88,114,115,115
2025-02-26 14:37:02.066,-454.0,186.0,114.0,-156.0,78.0,142.0,162,94,117,118,120
2025-02-26 14:37:02.070,-531.0,148.0,21.0,-145.0,86.0,133.0,163,94,119,119,120
2025-02-26 14:37:02.078,-576.0,143.0,-11.0,-136.0,94.0,127.0,162,95,119,117,119
2025-02-26 14:37:02.082,-612.0,137.0,-77.0,-136.0,103.0,122.0,159,93,117,117,118
2025-02-26 14:37:02.087,-615.0,102.0,-142.0,-133.0,106.0,118.0,159,91,117,115,117
2025-02-26 14:37:02.093,-659.0,79.0,-241.0,-128.0,107.0,110.0,156,89,114,114,113
2025-02-26 14:37:02.099,-674.0,80.0,-293.0,-122.0,105.0,107.0,157,88,115,114,114
2025-02-26 14:37:02.102,-692.0,63.0,-307.0,-111.0,104.0,98.0,163,91,119,117,119
2025-02-26 14:37:02.107,-720.0,49.0,-346.0,-95.0,97.0,89.0,163,94,120,119,119
2025-02-26 14:37:02.115,-715.0,13.0,-385.0,-86.0,91.0,78.0,160,89,116,112,116
2025-02-26 14:37:02.117,-722.0,-8.0,-389.0,-68.0,79.0,74.0,162,87,113,106,114
2025-02-26 14:37:02.123,-696.0,-9.0,-404.0,-51.0,65.0,66.0,161,92,118,116,113
2025-02-26 14:37:02.127,-698.0,21.0,-401.0,-42.0,52.0,59.0,161,91,115,116,118
2025-02-26 14:37:02.135,-673.0,30.0,-372.0,-29.0,47.0,51.0,159,88,116,114,115
2025-02-26 14:37:02.140,-667.0,29.0,-357.0,-9.0,36.0,48.0,156,89,112,107,112
2025-02-26 14:37:02.141,-633.0,27.0,-345.0,11.0,25.0,42.0,161,91,117,117,117
2025-02-26 14:37:02.148,-605.0,70.0,-350.0,21.0,13.0,40.0,163,92,113,120,119
2025-02-26 14:37:02.153,-602.0,130.0,-357.0,37.0,6.0,41.0,161,88,113,115,114
2025-02-26 14:37:02.160,-608.0,160.0,-353.0,44.0,-6.0,41.0,161,89,114,119,117
2025-02-26 14:37:02.164,-603.0,255.0,-348.0,44.0,-20.0,37.0,163,92,114,118,118
2025-02-26 14:37:02.168,-689.0,439.0,-336.0,43.0,-38.0,30.0,162,90,112,115,116
2025-02-26 14:37:02.176,-757.0,645.0,-331.0,38.0,-51.0,14.0,158,90,110,114,115
2025-02-26 14:37:02.180,-898.0,802.0,-261.0,16.0,-69.0,5.0,163,93,115,119,118
2025-02-26 14:37:02.184,-1070.0,1126.0,-300.0,7.0,-89.0,-21.0,168,98,117,120,122
2025-02-26 14:37:02.193,-1375.0,1618.0,-143.0,12.0,-117.0,-56.0,163,92,115,117,118
2025-02-26 14:37:02.197,-1731.0,2242.0,-136.0,30.0,-141.0,-108.0,162,89,111,116,117
2025-02-26 14:37:02.201,-1809.0,3025.0,7.0,56.0,-149.0,-189.0,162,89,111,117,118
2025-02-26 14:37:02.209,-1647.0,3458.0,138.0,97.0,-165.0,-300.0,164,92,114,117,120
2025-02-26 14:37:02.213,-1449.0,3647.0,221.0,146.0,-167.0,-344.0,163,89,114,114,117
2025-02-26 14:37:02.218,-883.0,3547.0,208.0,208.0,-162.0,-435.0,170,93,116,120,122
2025-02-26 14:37:02.226,-505.0,3270.0,323.0,265.0,-145.0,-495.0,171,96,119,120,122
2025-02-26 14:37:02.230,-70.0,2862.0,245.0,285.0,-134.0,-545.0,168,94,121,122,124
2025-02-26 14:37:02.238,302.0,2186.0,378.0,300.0,-116.0,-597.0,170,92,122,118,121
2025-02-26 14:37:02.242,837.0,1568.0,186.0,351.0,-82.0,-654.0,168,88,120,118,121
2025-02-26 14:37:02.246,1175.0,941.0,238.0,414.0,-70.0,-688.0,171,90,122,122,123
2025-02-26 14:37:02.250,1982.0,459.0,248.0,456.0,-88.0,-704.0,168,87,117,117,119
2025-02-26 14:37:02.259,2495.0,-169.0,-94.0,515.0,-147.0,-711.0,173,91,121,121,123
2025-02-26 14:37:02.263,2762.0,-1216.0,9.0,559.0,-182.0,-707.0,175,90,124,122,125
2025-02-26 14:37:02.270,3135.0,-2353.0,136.0,510.0,-218.0,-657.0,187,101,136,134,136
2025-02-26 14:37:02.275,3457.0,-3335.0,968.0,485.0,-182.0,-558.0,180,91,127,124,127
2025-02-26 14:37:02.279,3467.0,-4561.0,1472.0,437.0,-149.0,-441.0,182,90,122,119,125
2025-02-26 14:37:02.287,3592.0,-5829.0,1723.0,459.0,-162.0,-336.0,183,91,123,122,126
2025-02-26 14:37:02.292,3680.0,-6736.0,2054.0,524.0,-167.0,-234.0,178,87,112,115,121
2025-02-26 14:37:02.299,3625.0,-7434.0,2591.0,544.0,-120.0,-91.0,181,85,110,107,121
2025-02-26 14:37:02.304,3339.0,-6817.0,2557.0,588.0,-87.0,-20.0,181,88,116,110,118
2025-02-26 14:37:02.308,2757.0,-4665.0,2530.0,493.0,-22.0,29.0,186,89,110,111,121
2025-02-26 14:37:02.316,2166.0,-4022.0,2758.0,335.0,113.0,152.0,186,92,105,115,124
2025-02-26 14:37:02.320,1950.0,-2275.0,2556.0,158.0,138.0,182.0,184,90,100,110,121
2025-02-26 14:37:02.324,1594.0,-1349.0,2622.0,-56.0,177.0,188.0,178,85,91,106,116
2025-02-26 14:37:02.332,1138.0,-1014.0,2014.0,-139.0,138.0,186.0,174,80,102,105,110
2025-02-26 14:37:02.336,664.0,-1024.0,1486.0,-280.0,96.0,194.0,175,77,108,103,108
2025-02-26 14:37:02.341,331.0,-1255.0,868.0,-356.0,79.0,218.0,199,105,142,132,136
2025-02-26 14:37:02.348,361.0,-1560.0,684.0,-358.0,48.0,215.0,225,132,169,159,163
2025-02-26 14:37:02.353,496.0,-1613.0,529.0,-317.0,73.0,203.0,230,142,173,164,168
2025-02-26 14:37:02.357,392.0,-1754.0,785.0,-259.0,77.0,186.0,237,150,174,173,179
2025-02-26 14:37:02.365,418.0,-1785.0,729.0,-202.0,105.0,177.0,237,149,172,175,179
2025-02-26 14:37:02.369,531.0,-1904.0,715.0,-206.0,114.0,179.0,245,157,182,182,185
2025-02-26 14:37:02.373,351.0,-1800.0,775.0,-216.0,59.0,204.0,245,156,185,181,184
2025-02-26 14:37:02.381,142.0,-1561.0,679.0,-184.0,1.0,213.0,242,154,184,177,183
2025-02-26 14:37:02.386,167.0,-1367.0,630.0,-151.0,-8.0,221.0,246,159,189,182,187
2025-02-26 14:37:02.390,207.0,-1220.0,653.0,-130.0,0.0,226.0,241,153,184,176,183
2025-02-26 14:37:02.397,206.0,-957.0,711.0,-126.0,5.0,228.0,233,145,168,168,172
2025-02-26 14:37:02.402,233.0,-708.0,756.0,-146.0,-7.0,221.0,230,140,160,164,170
2025-02-26 14:37:02.406,121.0,-491.0,791.0,-136.0,8.0,215.0,222,132,153,158,162
2025-02-26 14:37:02.414,69.0,-424.0,680.0,-144.0,23.0,215.0,217,127,148,150,155
2025-02-26 14:37:02.418,47.0,-328.0,667.0,-160.0,23.0,209.0,215,125,150,148,154
2025-02-26 14:37:02.423,31.0,-327.0,532.0,-159.0,19.0,204.0,221,131,155,155,161
2025-02-26 14:37:02.430,-47.0,-267.0,491.0,-173.0,20.0,201.0,223,134,157,155,162
2025-02-26 14:37:02.434,-111.0,-234.0,409.0,-180.0,20.0,197.0,219,129,151,153,159
2025-02-26 14:37:02.439,-198.0,-272.0,347.0,-180.0,15.0,192.0,217,126,147,151,156
2025-02-26 14:37:02.447,-209.0,-258.0,343.0,-177.0,19.0,180.0,229,141,160,163,169
2025-02-26 14:37:02.451,-187.0,-244.0,324.0,-171.0,25.0,175.0,233,145,165,166,173
2025-02-26 14:37:02.455,-194.0,-291.0,333.0,-155.0,28.0,162.0,238,151,173,175,178
2025-02-26 14:37:02.463,-242.0,-339.0,360.0,-140.0,27.0,155.0,250,163,185,188,191
2025-02-26 14:37:02.467,-286.0,-356.0,356.0,-124.0,34.0,149.0,245,156,180,180,184
2025-02-26 14:37:02.471,-301.0,-359.0,377.0,-117.0,36.0,144.0,237,148,172,171,176
2025-02-26 14:37:02.479,-322.0,-336.0,340.0,-108.0,45.0,138.0,233,144,166,166,171
2025-02-26 14:37:02.483,-343.0,-300.0,274.0,-97.0,50.0,133.0,231,144,165,164,172
2025-02-26 14:37:02.488,-382.0,-287.0,237.0,-91.0,55.0,130.0,235,144,166,165,172
2025-02-26 14:37:02.496,-458.0,-260.0,147.0,-85.0,61.0,125.0,240,152,176,174,180
2025-02-26 14:37:02.500,-529.0,-228.0,100.0,-84.0,65.0,122.0,237,150,173,173,177
2025-02-26 14:37:02.504,-580.0,-205.0,34.0,-85.0,67.0,116.0,236,149,175,173,176
2025-02-26 14:37:02.509,-651.0,-216.0,-37.0,-82.0,62.0,110.0,226,146,174,166,174
2025-02-26 14:37:02.516,-666.0,-176.0,-99.0,-81.0,49.0,102.0,233,145,171,167,172
2025-02-26 14:37:02.520,-694.0,-126.0,-122.0,-80.0,44.0,100.0,234,145,171,167,172
2025-02-26 14:37:02.522,-728.0,-102.0,-157.0,-78.0,39.0,93.0,249,159,186,182,186
2025-02-26 14:37:02.533,-726.0,-112.0,-163.0,-72.0,32.0,86.0,248,162,189,185,188
2025-02-26 14:37:02.534,-744.0,-112.0,-154.0,-69.0,20.0,80.0,244,159,184,181,184
2025-02-26 14:37:02.541,-740.0,-107.0,-134.0,-68.0,15.0,73.0,241,152,178,177,180
2025-02-26 14:37:02.547,-745.0,-95.0,-69.0,-63.0,5.0,64.0,242,155,179,178,181
2025-02-26 14:37:02.553,-695.0,-79.0,-8.0,-53.0,-5.0,58.0,246,160,184,183,187
2025-02-26 14:37:02.558,-636.0,-9.0,21.0,-40.0,-10.0,46.0,244,159,183,182,185
2025-02-26 14:37:02.559,-600.0,90.0,73.0,-33.0,-10.0,36.0,241,151,175,176,179
2025-02-26 14:37:02.569,-585.0,189.0,87.0,-22.0,-8.0,32.0,233,145,167,168,171
2025-02-26 14:37:02.571,-584.0,242.0,68.0,-12.0,1.0,23.0,237,149,173,172,175
2025-02-26 14:37:02.578,-634.0,333.0,54.0,-7.0,6.0,13.0,233,144,168,170,172
2025-02-26 14:37:02.582,-681.0,442.0,20.0,0.0,8.0,1.0,228,140,164,163,166
2025-02-26 14:37:02.590,-838.0,518.0,-11.0,11.0,9.0,-5.0,236,150,173,174,175
2025-02-26 14:37:02.594,-995.0,662.0,-29.0,18.0,5.0,-19.0,235,147,170,170,173
2025-02-26 14:37:02.599,-1081.0,859.0,-56.0,37.0,1.0,-36.0,228,141,163,163,166
2025-02-26 14:37:02.602,-1245.0,1111.0,-45.0,63.0,-10.0,-45.0,229,140,163,164,166
2025-02-26 14:37:02.611,-1423.0,1300.0,26.0,92.0,-22.0,-73.0,235,149,174,173,173
2025-02-26 14:37:02.615,-1592.0,1745.0,95.0,130.0,-32.0,-114.0,244,157,180,180,182
2025-02-26 14:37:02.619,-1534.0,2309.0,229.0,176.0,-27.0,-182.0,242,155,181,178,181
2025-02-26 14:37:02.629,-1195.0,2787.0,339.0,199.0,-14.0,-277.0,246,159,186,183,185
2025-02-26 14:37:02.631,-732.0,2890.0,428.0,254.0,12.0,-377.0,242,155,184,178,179
2025-02-26 14:37:02.638,-342.0,2809.0,457.0,299.0,23.0,-471.0,238,150,179,173,175
2025-02-26 14:37:02.643,-124.0,2294.0,321.0,332.0,43.0,-544.0,235,148,177,174,174
2025-02-26 14:37:02.648,329.0,1950.0,209.0,364.0,55.0,-569.0,237,152,182,176,177
2025-02-26 14:37:02.655,836.0,1113.0,127.0,390.0,60.0,-600.0,244,160,187,182,184
2025-02-26 14:37:02.660,1419.0,242.0,128.0,429.0,44.0,-613.0,241,156,187,178,184
2025-02-26 14:37:02.663,1697.0,-770.0,105.0,453.0,-1.0,-612.0,241,154,186,180,183
2025-02-26 14:37:02.672,1881.0,-1766.0,15.0,498.0,-65.0,-598.0,240,152,182,177,180
2025-02-26 14:37:02.675,1925.0,-2627.0,145.0,500.0,-103.0,-562.0,238,150,180,177,181
2025-02-26 14:37:02.681,1947.0,-3292.0,429.0,495.0,-187.0,-496.0,237,148,176,174,180
2025-02-26 14:37:02.687,2176.0,-5150.0,1009.0,486.0,-258.0,-340.0,242,154,180,181,181
2025-02-26 14:37:02.693,1895.0,-4093.0,1178.0,447.0,-301.0,-371.0,242,151,175,177,180
2025-02-26 14:37:02.701,3538.0,-4426.0,2031.0,343.0,-265.0,-315.0,239,151,172,174,181
2025-02-26 14:37:02.705,2438.0,-4882.0,2407.0,309.0,-192.0,-200.0,238,148,163,170,179
2025-02-26 14:37:02.709,2918.0,-5796.0,3045.0,177.0,-120.0,-34.0,239,150,165,170,180
2025-02-26 14:37:02.717,2831.0,-4713.0,2825.0,98.0,-134.0,79.0,243,154,170,173,184
2025-02-26 14:37:02.721,2370.0,-3812.0,2281.0,104.0,-92.0,168.0,243,156,171,173,184
2025-02-26 14:37:02.729,2243.0,-3098.0,2739.0,-67.0,18.0,217.0,247,159,177,180,187
2025-02-26 14:37:02.733,1813.0,-1926.0,2154.0,-127.0,36.0,225.0,246,155,177,176,184
2025-02-26 14:37:02.736,1513.0,-1587.0,1824.0,-139.0,24.0,210.0,243,152,176,174,182
2025-02-26 14:37:02.746,1260.0,-1648.0,1884.0,-202.0,27.0,214.0,243,153,174,177,181
2025-02-26 14:37:02.747,1025.0,-1581.0,1392.0,-258.0,34.0,220.0,242,153,174,179,184
2025-02-26 14:37:02.754,962.0,-1771.0,1399.0,-290.0,56.0,233.0,234,145,163,168,174
2025-02-26 14:37:02.760,823.0,-1793.0,1169.0,-317.0,72.0,241.0,232,143,161,166,170
2025-02-26 14:37:02.766,711.0,-1817.0,926.0,-303.0,93.0,244.0,239,151,170,177,181
2025-02-26 14:37:02.771,609.0,-1911.0,919.0,-285.0,93.0,244.0,241,150,170,176,181
2025-02-26 14:37:02.777,487.0,-1710.0,830.0,-263.0,95.0,242.0,239,150,169,173,180
2025-02-26 14:37:02.783,394.0,-1767.0,714.0,-233.0,91.0,246.0,239,150,169,176,179
2025-02-26 14:37:02.787,208.0,-1613.0,696.0,-225.0,68.0,256.0,239,151,168,174,179
2025-02-26 14:37:02.795,163.0,-1457.0,686.0,-192.0,41.0,268.0,234,146,162,171,175
2025-02-26 14:37:02.799,200.0,-1280.0,730.0,-173.0,32.0,276.0,233,143,161,171,171
2025-02-26 14:37:02.803,204.0,-1063.0,688.0,-165.0,32.0,277.0,242,150,168,176,181
2025-02-26 14:37:02.811,164.0,-993.0,742.0,-153.0,28.0,280.0,218,129,150,154,158
2025-02-26 14:37:02.815,202.0,-814.0,770.0,-163.0,20.0,280.0,232,142,167,169,172
2025-02-26 14:37:02.819,133.0,-669.0,628.0,-166.0,34.0,278.0,194,99,124,125,130
2025-02-26 14:37:02.827,148.0,-543.0,676.0,-176.0,46.0,280.0,227,139,166,163,166
2025-02-26 14:37:02.832,126.0,-463.0,673.0,-199.0,55.0,280.0,221,131,159,155,160
2025-02-26 14:37:02.836,295.0,-417.0,661.0,-229.0,84.0,280.0,221,130,158,155,159
2025-02-26 14:37:02.844,49.0,-271.0,558.0,-223.0,131.0,281.0,217,126,152,150,154
2025-02-26 14:37:02.848,61.0,-169.0,601.0,-173.0,162.0,281.0,215,124,151,147,151
2025-02-26 14:37:02.852,100.0,-96.0,742.0,-165.0,179.0,266.0,247,161,186,184,186
2025-02-26 14:37:02.860,41.0,79.0,647.0,-147.0,184.0,259.0,238,150,174,173,175
2025-02-26 14:37:02.865,20.0,86.0,625.0,-156.0,205.0,256.0,233,145,168,171,170
2025-02-26 14:37:02.869,-61.0,87.0,583.0,-179.0,211.0,252.0,229,142,160,165,169
2025-02-26 14:37:02.876,-185.0,144.0,553.0,-185.0,211.0,244.0,226,136,160,162,164
2025-02-26 14:37:02.880,-291.0,96.0,379.0,-188.0,208.0,240.0,209,120,143,143,146
2025-02-26 14:37:02.885,-381.0,148.0,298.0,-178.0,205.0,231.0,204,114,136,138,140
2025-02-26 14:37:02.892,-378.0,272.0,188.0,-183.0,190.0,220.0,206,116,135,138,142
2025-02-26 14:37:02.897,-482.0,192.0,40.0,-191.0,168.0,214.0,204,114,134,137,138
2025-02-26 14:37:02.901,-542.0,260.0,-99.0,-175.0,149.0,200.0,209,121,138,143,144
2025-02-26 14:37:02.909,-679.0,254.0,-162.0,-164.0,127.0,177.0,209,121,140,145,145
2025-02-26 14:37:02.913,-696.0,368.0,-227.0,-162.0,96.0,152.0,208,118,139,142,142
2025-02-26 14:37:02.918,-757.0,397.0,-269.0,-169.0,80.0,131.0,219,132,153,155,155
2025-02-26 14:37:02.924,-786.0,445.0,-371.0,-175.0,72.0,110.0,214,127,148,150,150
2025-02-26 14:37:02.930,-782.0,429.0,-372.0,-180.0,60.0,91.0,219,133,154,157,158
2025-02-26 14:37:02.934,-707.0,425.0,-347.0,-172.0,45.0,81.0,225,137,158,159,162
2025-02-26 14:37:02.941,-722.0,258.0,-289.0,-165.0,33.0,66.0,206,124,140,141,145
2025-02-26 14:37:02.947,-661.0,253.0,-232.0,-151.0,26.0,53.0,201,117,138,139,138
2025-02-26 14:37:02.950,-655.0,143.0,-217.0,-146.0,14.0,45.0,206,119,142,142,143
2025-02-26 14:37:02.955,-605.0,100.0,-206.0,-132.0,11.0,41.0,223,140,161,162,164
2025-02-26 14:37:02.963,-583.0,66.0,-151.0,-111.0,9.0,39.0,204,118,139,141,143
2025-02-26 14:37:02.967,-607.0,66.0,-73.0,-78.0,14.0,38.0,208,124,146,149,149
2025-02-26 14:37:02.971,-562.0,78.0,-52.0,-36.0,14.0,32.0,211,128,149,153,154
2025-02-26 14:37:02.979,-524.0,237.0,-95.0,-22.0,11.0,17.0,216,135,154,159,160
2025-02-26 14:37:02.983,-530.0,219.0,-99.0,8.0,6.0,7.0,204,123,142,148,150
2025-02-26 14:37:02.987,-528.0,184.0,-125.0,36.0,-8.0,0.0,240,162,178,185,188
2025-02-26 14:37:02.992,-577.0,341.0,-82.0,54.0,-13.0,-14.0,215,135,151,160,164
2025-02-26 14:37:03.000,-653.0,443.0,-4.0,100.0,-12.0,-32.0,197,116,131,140,146
2025-02-26 14:37:03.004,-677.0,578.0,-200.0,135.0,-35.0,-59.0,193,113,126,136,142
2025-02-26 14:37:03.007,-769.0,609.0,-267.0,170.0,-64.0,-71.0,193,113,128,140,146
2025-02-26 14:37:03.016,-925.0,711.0,-262.0,208.0,-88.0,-88.0,191,114,126,139,147
2025-02-26 14:37:03.020,-1012.0,833.0,-231.0,259.0,-90.0,-94.0,190,112,124,138,146
2025-02-26 14:37:03.024,-1026.0,948.0,-226.0,309.0,-84.0,-101.0,183,105,119,132,141
2025-02-26 14:37:03.032,-1033.0,947.0,-294.0,331.0,-92.0,-109.0,187,115,127,141,149
2025-02-26 14:37:03.037,-858.0,1180.0,-364.0,396.0,-98.0,-133.0,188,117,128,140,149
2025-02-26 14:37:03.041,-780.0,1192.0,-14.0,430.0,-83.0,-170.0,168,98,107,120,130
2025-02-26 14:37:03.049,-775.0,1188.0,-510.0,460.0,-78.0,-213.0,162,97,103,116,126
2025-02-26 14:37:03.049,-609.0,1004.0,-600.0,445.0,-81.0,-235.0,158,95,101,112,123
2025-02-26 14:37:03.060,-671.0,1017.0,-669.0,425.0,-64.0,-283.0,166,108,108,120,131
2025-02-26 14:37:03.063,-771.0,978.0,-729.0,422.0,-79.0,-320.0,172,117,115,124,137
2025-02-26 14:37:03.069,-841.0,914.0,-847.0,427.0,-120.0,-353.0,176,118,115,122,136
2025-02-26 14:37:03.074,-785.0,821.0,-857.0,411.0,-163.0,-385.0,176,128,125,128,141
2025-02-26 14:37:03.079,-664.0,803.0,-969.0,408.0,-224.0,-419.0,171,128,124,124,136
2025-02-26 14:37:03.086,-414.0,936.0,-844.0,412.0,-276.0,-451.0,171,132,131,129,139
2025-02-26 14:37:03.094,36.0,935.0,-602.0,451.0,-328.0,-489.0,159,124,124,119,128
2025-02-26 14:37:03.098,364.0,890.0,-213.0,469.0,-357.0,-540.0,161,122,121,120,128
2025-02-26 14:37:03.105,1369.0,-228.0,-828.0,484.0,-462.0,-496.0,164,127,128,124,131
2025-02-26 14:37:03.110,2423.0,-441.0,823.0,460.0,-499.0,-485.0,167,133,133,132,136
2025-02-26 14:37:03.114,2656.0,-240.0,1479.0,418.0,-448.0,-501.0,169,137,134,133,138
2025-02-26 14:37:03.122,2811.0,-1371.0,2309.0,353.0,-396.0,-476.0,175,145,139,138,144
2025-02-26 14:37:03.127,2735.0,-2092.0,2286.0,292.0,-396.0,-431.0,200,171,164,166,171
2025-02-26 14:37:03.135,2931.0,-2854.0,2315.0,253.0,-437.0,-372.0,199,171,165,164,169
2025-02-26 14:37:03.139,3468.0,-3908.0,2828.0,190.0,-438.0,-286.0,170,141,135,135,140
2025-02-26 14:37:03.143,3663.0,-4920.0,3268.0,109.0,-374.0,-177.0,174,146,139,137,142
2025-02-26 14:37:03.151,3039.0,-5086.0,3504.0,80.0,-262.0,-63.0,177,150,143,145,150
2025-02-26 14:37:03.155,2369.0,-4554.0,4136.0,168.0,-109.0,47.0,180,154,147,146,151
2025-02-26 14:37:03.163,2536.0,-2810.0,3724.0,128.0,-48.0,121.0,183,156,149,147,155
2025-02-26 14:37:03.166,2671.0,-2336.0,3127.0,45.0,15.0,188.0,187,158,151,151,158
2025-02-26 14:37:03.172,2034.0,-2155.0,3586.0,-26.0,158.0,241.0,185,156,150,149,156
2025-02-26 14:37:03.178,1634.0,-1823.0,2420.0,-77.0,193.0,285.0,167,139,134,130,137
2025-02-26 14:37:03.184,1363.0,-1681.0,1499.0,-176.0,177.0,325.0,162,133,128,127,132
2025-02-26 14:37:03.189,1077.0,-1308.0,1200.0,-257.0,165.0,349.0,168,138,132,129,136
2025-02-26 14:37:03.195,919.0,-1100.0,969.0,-283.0,165.0,355.0,175,148,141,140,145
2025-02-26 14:37:03.201,717.0,-988.0,700.0,-304.0,167.0,355.0,177,151,146,144,151
2025-02-26 14:37:03.209,557.0,-848.0,444.0,-290.0,148.0,344.0,204,180,174,175,179
2025-02-26 14:37:03.213,266.0,-969.0,366.0,-243.0,143.0,314.0,203,181,175,175,179
2025-02-26 14:37:03.217,-26.0,-1138.0,423.0,-212.0,142.0,282.0,171,146,142,140,145
2025-02-26 14:37:03.225,-221.0,-1390.0,342.0,-134.0,123.0,252.0,165,140,134,134,139
2025-02-26 14:37:03.229,-249.0,-1540.0,752.0,-90.0,116.0,220.0,166,141,135,133,138
2025-02-26 14:37:03.234,-242.0,-1237.0,1017.0,-46.0,114.0,187.0,181,157,152,151,155
2025-02-26 14:37:03.241,-82.0,-864.0,1004.0,-26.0,115.0,157.0,179,157,150,149,153
2025-02-26 14:37:03.244,-22.0,-584.0,388.0,-17.0,111.0,142.0,160,135,130,131,134
2025-02-26 14:37:03.249,-52.0,-521.0,512.0,-12.0,117.0,135.0,159,133,128,127,131
2025-02-26 14:37:03.257,40.0,-413.0,556.0,-17.0,136.0,128.0,156,131,125,124,128
2025-02-26 14:37:03.262,-72.0,-570.0,82.0,-38.0,116.0,138.0,155,134,126,123,129
2025-02-26 14:37:03.266,-158.0,-547.0,435.0,-32.0,134.0,149.0,154,130,124,123,128
2025-02-26 14:37:03.274,-271.0,-333.0,521.0,-27.0,164.0,144.0,152,130,123,121,127
2025-02-26 14:37:03.282,-145.0,-355.0,624.0,-32.0,178.0,143.0,154,131,124,123,126
2025-02-26 14:37:03.285,-60.0,-429.0,471.0,-53.0,165.0,138.0,153,132,125,124,128
2025-02-26 14:37:03.290,-197.0,-447.0,450.0,-87.0,137.0,138.0,156,133,128,127,130
2025-02-26 14:37:03.295,-187.0,-167.0,442.0,-99.0,113.0,120.0,155,132,127,127,129
2025-02-26 14:37:03.299,-221.0,-404.0,474.0,-118.0,97.0,112.0,158,135,125,127,131
2025-02-26 14:37:03.306,-225.0,-404.0,497.0,-128.0,96.0,102.0,156,135,128,128,131
2025-02-26 14:37:03.311,-363.0,-453.0,566.0,-112.0,94.0,103.0,155,135,128,126,131
2025-02-26 14:37:03.315,-433.0,-244.0,578.0,-120.0,91.0,88.0,152,134,128,128,131
2025-02-26 14:37:03.322,-370.0,-384.0,583.0,-135.0,83.0,88.0,158,138,132,128,134
2025-02-26 14:37:03.327,-428.0,-400.0,439.0,-174.0,73.0,84.0,161,141,136,134,138
2025-02-26 14:37:03.331,-559.0,-354.0,405.0,-203.0,64.0,84.0,159,138,132,132,137
2025-02-26 14:37:03.339,-588.0,-505.0,120.0,-251.0,49.0,100.0,157,136,129,128,133
2025-02-26 14:37:03.341,-537.0,-329.0,79.0,-258.0,15.0,104.0,155,135,130,129,132
2025-02-26 14:37:03.348,-614.0,-255.0,33.0,-248.0,7.0,103.0,157,134,129,127,133
2025-02-26 14:37:03.353,-639.0,-245.0,163.0,-222.0,25.0,103.0,154,133,127,126,131
2025-02-26 14:37:03.360,-691.0,-186.0,0.0,-218.0,26.0,94.0,155,132,124,127,130
2025-02-26 14:37:03.365,-653.0,-176.0,28.0,-165.0,34.0,84.0,155,131,125,124,128
2025-02-26 14:37:03.368,-722.0,-189.0,90.0,-121.0,61.0,75.0,149,133,126,131,129
2025-02-26 14:37:03.377,-729.0,-248.0,23.0,-102.0,73.0,71.0,154,133,126,127,129
2025-02-26 14:37:03.380,-693.0,-334.0,62.0,-93.0,67.0,59.0,153,129,126,124,129
2025-02-26 14:37:03.385,-661.0,-388.0,161.0,-91.0,58.0,50.0,152,131,126,125,128
2025-02-26 14:37:03.390,-646.0,-417.0,152.0,-86.0,54.0,40.0,153,132,121,126,128
2025-02-26 14:37:03.396,-622.0,-395.0,136.0,-79.0,45.0,35.0,153,130,125,126,129
2025-02-26 14:37:03.401,-595.0,-394.0,121.0,-58.0,43.0,26.0,152,131,126,127,127
2025-02-26 14:37:03.406,-581.0,-383.0,122.0,-39.0,44.0,19.0,154,134,128,127,130
2025-02-26 14:37:03.413,-546.0,-380.0,144.0,-29.0,47.0,15.0,154,131,124,126,129
2025-02-26 14:37:03.418,-521.0,-355.0,145.0,-7.0,49.0,13.0,152,131,125,124,128
2025-02-26 14:37:03.421,-526.0,-336.0,114.0,15.0,51.0,14.0,151,129,126,125,128
2025-02-26 14:37:03.430,-568.0,-269.0,97.0,32.0,53.0,15.0,153,131,126,126,130
2025-02-26 14:37:03.433,-588.0,-219.0,108.0,40.0,55.0,16.0,155,131,127,125,128
2025-02-26 14:37:03.438,-591.0,-125.0,126.0,58.0,59.0,15.0,153,130,125,125,128
2025-02-26 14:37:03.443,-615.0,-62.0,66.0,74.0,58.0,14.0,151,129,124,126,128
2025-02-26 14:37:03.450,-639.0,-5.0,2.0,89.0,47.0,10.0,153,128,125,127,129
2025-02-26 14:37:03.454,-724.0,125.0,28.0,101.0,43.0,5.0,151,129,124,126,129
2025-02-26 14:37:03.458,-789.0,293.0,1.0,121.0,41.0,-3.0,152,128,124,125,127
2025-02-26 14:37:03.462,-856.0,363.0,-64.0,150.0,37.0,-9.0,153,130,125,126,128
2025-02-26 14:37:03.470,-937.0,539.0,-70.0,171.0,23.0,-26.0,152,130,125,127,129
2025-02-26 14:37:03.474,-993.0,611.0,-43.0,180.0,14.0,-47.0,153,129,126,129,130
2025-02-26 14:37:03.479,-1029.0,726.0,-38.0,202.0,10.0,-77.0,153,128,125,126,129
2025-02-26 14:37:03.486,-1044.0,654.0,-150.0,208.0,-8.0,-91.0,153,128,127,128,129
2025-02-26 14:37:03.491,-941.0,677.0,-205.0,218.0,-33.0,-126.0,155,131,125,128,130
2025-02-26 14:37:03.495,-822.0,720.0,-253.0,243.0,-58.0,-161.0,157,130,128,129,131
2025-02-26 14:37:03.503,-819.0,822.0,-278.0,250.0,-68.0,-205.0,155,131,126,129,128
2025-02-26 14:37:03.507,-748.0,836.0,-210.0,245.0,-68.0,-245.0,159,132,129,132,134
2025-02-26 14:37:03.511,-605.0,606.0,-397.0,263.0,-89.0,-274.0,156,130,128,131,132
2025-02-26 14:37:03.519,-500.0,629.0,-339.0,273.0,-96.0,-298.0,153,128,125,127,129
2025-02-26 14:37:03.524,-410.0,488.0,-242.0,278.0,-120.0,-319.0,152,127,125,126,129
2025-02-26 14:37:03.528,-231.0,352.0,-250.0,274.0,-146.0,-334.0,154,127,126,126,128
2025-02-26 14:37:03.536,-28.0,240.0,-62.0,272.0,-176.0,-342.0,151,127,124,125,127
2025-02-26 14:37:03.540,201.0,46.0,33.0,270.0,-201.0,-352.0,154,127,124,127,127
2025-02-26 14:37:03.545,459.0,-161.0,101.0,257.0,-233.0,-361.0,153,127,123,127,127
2025-02-26 14:37:03.553,746.0,-451.0,357.0,239.0,-258.0,-367.0,152,127,125,126,129
2025-02-26 14:37:03.556,1050.0,-816.0,458.0,230.0,-284.0,-370.0,153,127,123,126,127
2025-02-26 14:37:03.564,1325.0,-1314.0,844.0,192.0,-306.0,-363.0,152,126,123,126,127
2025-02-26 14:37:03.569,1539.0,-1971.0,1129.0,159.0,-311.0,-352.0,153,126,123,126,127
2025-02-26 14:37:03.573,1644.0,-2697.0,1520.0,119.0,-336.0,-322.0,153,127,123,125,127
2025-02-26 14:37:03.581,1847.0,-3286.0,2094.0,73.0,-352.0,-270.0,154,125,124,124,127
2025-02-26 14:37:03.584,1943.0,-3571.0,2485.0,6.0,-347.0,-202.0,153,123,123,125,127
2025-02-26 14:37:03.593,1962.0,-3712.0,2646.0,-37.0,-329.0,-131.0,154,125,123,126,127
2025-02-26 14:37:03.598,2127.0,-3691.0,2582.0,-70.0,-315.0,-61.0,153,125,122,124,127
2025-02-26 14:37:03.602,2236.0,-3603.0,2478.0,-75.0,-285.0,-21.0,155,123,123,122,127
2025-02-26 14:37:03.608,2108.0,-3198.0,2166.0,-56.0,-216.0,47.0,155,123,124,124,128
2025-02-26 14:37:03.614,1830.0,-2986.0,1688.0,-86.0,-127.0,130.0,156,125,125,123,126
2025-02-26 14:37:03.622,1620.0,-2719.0,1500.0,-104.0,-20.0,198.0,158,124,124,121,129
2025-02-26 14:37:03.627,1478.0,-2328.0,1522.0,-82.0,93.0,231.0,156,124,125,122,129
2025-02-26 14:37:03.631,1216.0,-1792.0,1334.0,-72.0,146.0,249.0,156,123,124,123,128
2025-02-26 14:37:03.638,960.0,-1671.0,1120.0,-82.0,129.0,263.0,156,121,125,125,128
2025-02-26 14:37:03.642,848.0,-1523.0,1157.0,-118.0,153.0,282.0,155,122,124,123,127
2025-02-26 14:37:03.647,714.0,-1256.0,1172.0,-103.0,187.0,276.0,155,120,123,124,127
2025-02-26 14:37:03.655,657.0,-1337.0,713.0,-120.0,187.0,274.0,153,121,123,123,126
2025-02-26 14:37:03.659,595.0,-1314.0,632.0,-110.0,188.0,264.0,160,121,123,121,125
2025-02-26 14:37:03.667,542.0,-1246.0,609.0,-89.0,205.0,255.0,155,122,124,122,125
2025-02-26 14:37:03.671,473.0,-1214.0,385.0,-66.0,227.0,232.0,153,122,124,123,126
2025-02-26 14:37:03.675,360.0,-1266.0,457.0,-58.0,213.0,217.0,156,121,124,125,126
2025-02-26 14:37:03.683,225.0,-1250.0,718.0,-52.0,209.0,202.0,155,122,123,124,125
2025-02-26 14:37:03.688,167.0,-1122.0,656.0,-52.0,186.0,193.0,157,123,124,124,126
2025-02-26 14:37:03.692,82.0,-1123.0,729.0,-75.0,178.0,191.0,155,123,122,123,126
2025-02-26 14:37:03.699,-11.0,-997.0,692.0,-81.0,162.0,183.0,153,122,123,123,125
2025-02-26 14:37:03.704,47.0,-908.0,482.0,-104.0,156.0,188.0,154,120,122,123,125
2025-02-26 14:37:03.709,-194.0,-929.0,612.0,-95.0,173.0,204.0,154,121,123,124,127
2025-02-26 14:37:03.717,-162.0,-709.0,503.0,-95.0,186.0,207.0,154,121,122,125,127
2025-02-26 14:37:03.721,-97.0,-662.0,547.0,-108.0,195.0,211.0,154,120,120,123,125
2025-02-26 14:37:03.723,-116.0,-608.0,374.0,-157.0,176.0,212.0,155,121,121,125,126
2025-02-26 14:37:03.732,-147.0,-542.0,348.0,-196.0,172.0,212.0,156,120,120,123,127
2025-02-26 14:37:03.737,-126.0,-493.0,363.0,-233.0,157.0,210.0,154,119,120,123,126
2025-02-26 14:37:03.741,-142.0,-380.0,397.0,-277.0,144.0,205.0,155,116,117,123,127
2025-02-26 14:37:03.750,-219.0,-293.0,516.0,-307.0,143.0,202.0,157,118,123,125,128
2025-02-26 14:37:03.753,-319.0,-126.0,485.0,-304.0,155.0,190.0,156,116,121,123,127
2025-02-26 14:37:03.757,-285.0,-197.0,140.0,-261.0,134.0,198.0,154,115,121,125,128
2025-02-26 14:37:03.766,-383.0,27.0,60.0,-247.0,116.0,183.0,155,112,120,123,128
2025-02-26 14:37:03.770,-399.0,98.0,-106.0,-244.0,92.0,167.0,155,110,119,122,127
2025-02-26 14:37:03.772,-390.0,157.0,40.0,-277.0,91.0,150.0,154,111,117,120,125
2025-02-26 14:37:03.782,-480.0,200.0,20.0,-253.0,94.0,142.0,153,104,116,120,124
2025-02-26 14:37:03.784,-633.0,275.0,-57.0,-230.0,93.0,128.0,154,107,118,119,125
2025-02-26 14:37:03.790,-700.0,208.0,-129.0,-208.0,87.0,113.0,155,105,117,118,125
2025-02-26 14:37:03.796,-723.0,229.0,-155.0,-194.0,90.0,94.0,154,103,115,116,122
2025-02-26 14:37:03.802,-702.0,329.0,305.0,-191.0,105.0,79.0,153,101,114,114,122
2025-02-26 14:37:03.807,-843.0,-11.0,-416.0,-163.0,80.0,67.0,155,100,115,114,123
2025-02-26 14:37:03.811,-940.0,-6.0,-373.0,-132.0,57.0,58.0,154,99,112,113,121
2025-02-26 14:37:03.819,-922.0,-13.0,-307.0,-119.0,46.0,43.0,154,97,112,112,121
2025-02-26 14:37:03.823,-886.0,-90.0,-239.0,-115.0,41.0,29.0,153,95,110,112,121
2025-02-26 14:37:03.828,-933.0,-121.0,-179.0,-93.0,39.0,15.0,154,92,108,109,120
2025-02-26 14:37:03.835,-941.0,-217.0,-276.0,-74.0,28.0,8.0,154,89,106,107,122
2025-02-26 14:37:03.840,-899.0,-213.0,-219.0,-60.0,13.0,5.0,158,89,108,106,117
2025-02-26 14:37:03.844,-856.0,-206.0,-212.0,-50.0,6.0,2.0,153,83,100,103,116
2025-02-26 14:37:03.848,-818.0,-149.0,-243.0,-45.0,-6.0,-1.0,155,82,99,101,114
2025-02-26 14:37:03.855,-783.0,-135.0,-186.0,-32.0,-11.0,-3.0,153,79,96,97,112
2025-02-26 14:37:03.860,-750.0,-117.0,-84.0,-16.0,-17.0,-4.0,151,77,95,97,110
2025-02-26 14:37:03.864,-733.0,-26.0,-26.0,5.0,-17.0,-7.0,153,76,94,96,107
2025-02-26 14:37:03.868,-692.0,82.0,-48.0,13.0,-19.0,-13.0,154,75,93,94,108
2025-02-26 14:37:03.876,-690.0,127.0,-81.0,27.0,-22.0,-18.0,154,73,90,94,105
2025-02-26 14:37:03.880,-689.0,273.0,-80.0,47.0,-25.0,-29.0,153,72,89,93,105
2025-02-26 14:37:03.885,-697.0,435.0,-96.0,60.0,-27.0,-46.0,154,70,90,94,104
2025-02-26 14:37:03.889,-740.0,595.0,-39.0,88.0,-28.0,-63.0,153,68,87,92,101
2025-02-26 14:37:03.897,-842.0,668.0,43.0,119.0,-28.0,-72.0,154,67,86,90,99
2025-02-26 14:37:03.901,-940.0,785.0,61.0,138.0,-30.0,-93.0,155,62,85,91,98
2025-02-26 14:37:03.905,-986.0,888.0,279.0,178.0,-25.0,-122.0,154,62,78,88,94
2025-02-26 14:37:03.910,-1062.0,978.0,84.0,216.0,-18.0,-135.0,151,60,81,88,92
2025-02-26 14:37:03.917,-1038.0,1123.0,196.0,205.0,-9.0,-165.0,154,60,80,86,89
2025-02-26 14:37:03.921,-923.0,1194.0,61.0,186.0,-2.0,-198.0,155,57,79,82,83
2025-02-26 14:37:03.925,-868.0,1194.0,78.0,186.0,8.0,-230.0,154,53,78,79,78
2025-02-26 14:37:03.927,-686.0,1122.0,-138.0,184.0,10.0,-250.0,155,54,80,83,75
2025-02-26 14:37:03.938,-444.0,1155.0,157.0,167.0,23.0,-296.0,154,52,78,76,70
2025-02-26 14:37:03.942,-328.0,1027.0,-30.0,162.0,31.0,-339.0,153,51,77,73,65
2025-02-26 14:37:03.946,-288.0,1012.0,-102.0,173.0,36.0,-360.0,152,50,79,72,59
2025-02-26 14:37:03.951,-127.0,982.0,-151.0,181.0,55.0,-403.0,153,51,80,69,60
2025-02-26 14:37:03.958,233.0,833.0,-140.0,202.0,72.0,-438.0,152,50,81,72,59
2025-02-26 14:37:03.962,345.0,466.0,136.0,228.0,83.0,-449.0,156,48,78,70,60
2025-02-26 14:37:03.967,252.0,275.0,562.0,279.0,93.0,-451.0,154,52,81,73,61
2025-02-26 14:37:03.978,113.0,-84.0,532.0,272.0,84.0,-448.0,153,50,81,73,59
2025-02-26 14:37:03.980,457.0,-458.0,85.0,243.0,21.0,-443.0,152,50,85,73,59
2025-02-26 14:37:03.982,813.0,-280.0,-658.0,231.0,-30.0,-440.0,150,49,88,73,57
2025-02-26 14:37:03.987,1121.0,-635.0,-876.0,286.0,-127.0,-437.0,154,51,90,73,60
2025-02-26 14:37:03.991,1058.0,-1072.0,-93.0,323.0,-161.0,-460.0,156,51,84,72,61
2025-02-26 14:37:03.999,1289.0,-1692.0,569.0,325.0,-216.0,-496.0,153,51,82,72,60
2025-02-26 14:37:04.003,1416.0,-2367.0,956.0,380.0,-255.0,-532.0,153,49,81,72,62
2025-02-26 14:37:04.008,1875.0,-3121.0,1455.0,462.0,-325.0,-525.0,154,50,84,74,64
2025-02-26 14:37:04.016,2731.0,-3418.0,2121.0,464.0,-324.0,-497.0,156,51,87,71,65
2025-02-26 14:37:04.019,3162.0,-4140.0,2816.0,377.0,-224.0,-375.0,157,52,89,70,63
2025-02-26 14:37:04.024,3079.0,-4853.0,3192.0,287.0,-102.0,-180.0,157,52,86,71,68
2025-02-26 14:37:04.031,3106.0,-4756.0,3475.0,233.0,-1.0,1.0,155,52,87,70,67
2025-02-26 14:37:04.036,3110.0,-3889.0,3339.0,113.0,33.0,110.0,154,51,79,68,67
2025-02-26 14:37:04.040,2904.0,-3322.0,2722.0,-7.0,83.0,136.0,153,56,76,68,69
2025-02-26 14:37:04.045,2376.0,-2357.0,2287.0,-130.0,93.0,165.0,155,53,75,69,66
2025-02-26 14:37:04.051,1588.0,-1784.0,1412.0,-180.0,66.0,187.0,154,53,75,68,66
2025-02-26 14:37:04.056,899.0,-1499.0,994.0,-265.0,51.0,205.0,153,52,74,64,64
2025-02-26 14:37:04.061,581.0,-1468.0,637.0,-339.0,27.0,217.0,155,52,77,68,64
2025-02-26 14:37:04.065,257.0,-1496.0,496.0,-373.0,14.0,226.0,155,55,78,71,66
2025-02-26 14:37:04.072,329.0,-1638.0,375.0,-374.0,8.0,222.0,154,55,78,71,64
2025-02-26 14:37:04.074,389.0,-1700.0,377.0,-351.0,7.0,206.0,152,51,76,71,65
2025-02-26 14:37:04.081,459.0,-1735.0,429.0,-309.0,2.0,197.0,153,52,74,71,64
2025-02-26 14:37:04.086,473.0,-1808.0,426.0,-250.0,-2.0,180.0,154,56,78,73,66
2025-02-26 14:37:04.093,475.0,-1882.0,420.0,-224.0,-1.0,172.0,153,54,78,73,66
2025-02-26 14:37:04.097,407.0,-1882.0,414.0,-178.0,0.0,175.0,150,53,79,72,65
2025-02-26 14:37:04.101,360.0,-1873.0,421.0,-144.0,-5.0,181.0,153,53,80,73,67
2025-02-26 14:37:04.105,333.0,-1750.0,423.0,-123.0,-14.0,196.0,156,54,83,76,68
2025-02-26 14:37:04.114,354.0,-1564.0,466.0,-116.0,-16.0,211.0,153,53,83,74,67
2025-02-26 14:37:04.118,399.0,-1410.0,468.0,-108.0,-15.0,223.0,152,53,84,73,68
2025-02-26 14:37:04.122,321.0,-1295.0,516.0,-99.0,-13.0,223.0,153,53,87,75,69
2025-02-26 14:37:04.127,315.0,-1159.0,527.0,-92.0,-5.0,233.0,154,55,86,75,70
2025-02-26 14:37:04.134,220.0,-1086.0,531.0,-88.0,-1.0,237.0,152,54,85,74,70
2025-02-26 14:37:04.139,197.0,-974.0,512.0,-84.0,3.0,238.0,153,53,87,76,70
2025-02-26 14:37:04.142,115.0,-929.0,462.0,-92.0,20.0,244.0,153,52,87,74,71
2025-02-26 14:37:04.147,97.0,-776.0,440.0,-100.0,34.0,248.0,154,52,87,76,70
2025-02-26 14:37:04.155,49.0,-620.0,443.0,-105.0,34.0,245.0,154,51,88,75,71
2025-02-26 14:37:04.159,-27.0,-570.0,478.0,-119.0,25.0,243.0,152,53,88,75,72
2025-02-26 14:37:04.163,-49.0,-372.0,493.0,-127.0,13.0,233.0,154,53,86,74,71
2025-02-26 14:37:04.167,-11.0,-247.0,449.0,-130.0,11.0,216.0,156,54,86,76,72
2025-02-26 14:37:04.171,-73.0,-248.0,420.0,-131.0,10.0,206.0,154,54,87,75,73
2025-02-26 14:37:04.179,-137.0,-161.0,412.0,-130.0,20.0,187.0,154,54,87,75,73
2025-02-26 14:37:04.183,-212.0,-85.0,350.0,-133.0,34.0,169.0,154,54,88,75,71
2025-02-26 14:37:04.188,-256.0,-82.0,302.0,-146.0,40.0,162.0,154,52,86,76,72
2025-02-26 14:37:04.192,-332.0,-109.0,283.0,-160.0,44.0,150.0,153,54,85,76,73
2025-02-26 14:37:04.199,-367.0,-128.0,196.0,-162.0,38.0,142.0,153,53,85,74,72
2025-02-26 14:37:04.202,-415.0,-214.0,167.0,-167.0,36.0,136.0,154,53,88,76,72
2025-02-26 14:37:04.208,-470.0,-216.0,70.0,-171.0,42.0,133.0,156,53,83,75,71
2025-02-26 14:37:04.213,-498.0,-242.0,46.0,-171.0,49.0,129.0,153,56,83,75,72
2025-02-26 14:37:04.220,-542.0,-262.0,-25.0,-169.0,51.0,126.0,153,53,83,78,72
2025-02-26 14:37:04.225,-564.0,-269.0,-117.0,-158.0,52.0,124.0,153,53,81,74,72
2025-02-26 14:37:04.229,-622.0,-291.0,-200.0,-145.0,56.0,125.0,153,55,81,76,72
2025-02-26 14:37:04.236,-698.0,-310.0,-222.0,-135.0,54.0,125.0,153,54,83,75,71
2025-02-26 14:37:04.240,-764.0,-304.0,-270.0,-130.0,49.0,123.0,155,56,82,74,71
2025-02-26 14:37:04.245,-789.0,-299.0,-301.0,-118.0,45.0,117.0,151,52,82,75,71
2025-02-26 14:37:04.249,-798.0,-293.0,-309.0,-105.0,38.0,113.0,152,53,81,75,71
2025-02-26 14:37:04.256,-831.0,-230.0,-281.0,-91.0,35.0,103.0,154,54,82,75,72
2025-02-26 14:37:04.262,-800.0,-187.0,-259.0,-82.0,36.0,90.0,152,54,83,75,71
2025-02-26 14:37:04.266,-712.0,-140.0,-213.0,-63.0,35.0,74.0,152,54,82,74,71
2025-02-26 14:37:04.268,-720.0,-107.0,-182.0,-44.0,31.0,66.0,153,53,84,77,71
2025-02-26 14:37:04.278,-710.0,-47.0,-166.0,-27.0,31.0,54.0,153,54,83,75,71
2025-02-26 14:37:04.281,-686.0,-15.0,-126.0,-22.0,32.0,45.0,152,53,82,74,71
2025-02-26 14:37:04.286,-684.0,2.0,-116.0,-10.0,28.0,42.0,154,54,83,74,71
2025-02-26 14:37:04.290,-701.0,86.0,-128.0,2.0,19.0,34.0,153,56,86,75,72
2025-02-26 14:37:04.292,-710.0,161.0,-113.0,6.0,10.0,28.0,153,54,85,74,72
2025-02-26 14:37:04.299,-724.0,196.0,-110.0,12.0,8.0,24.0,152,52,87,76,70
2025-02-26 14:37:04.306,-730.0,268.0,-111.0,21.0,3.0,15.0,153,56,87,74,73
2025-02-26 14:37:04.311,-744.0,330.0,-117.0,27.0,-1.0,4.0,155,56,87,76,73
2025-02-26 14:37:04.315,-774.0,350.0,-138.0,41.0,-3.0,-2.0,153,53,86,74,72
2025-02-26 14:37:04.318,-859.0,399.0,-137.0,54.0,-11.0,-14.0,155,54,86,79,72
2025-02-26 14:37:04.324,-1002.0,479.0,-152.0,61.0,-16.0,-25.0,154,55,84,75,71
2025-02-26 14:37:04.328,-1052.0,523.0,-130.0,73.0,-19.0,-31.0,153,54,86,75,72
2025-02-26 14:37:04.335,-1101.0,628.0,-113.0,82.0,-24.0,-48.0,154,55,85,75,73
2025-02-26 14:37:04.339,-1126.0,800.0,-80.0,99.0,-33.0,-77.0,149,55,85,71,73
2025-02-26 14:37:04.343,-1125.0,972.0,-79.0,113.0,-35.0,-94.0,153,56,85,75,73
2025-02-26 14:37:04.351,-1138.0,1055.0,-84.0,129.0,-34.0,-132.0,154,55,85,77,76
2025-02-26 14:37:04.355,-1077.0,1241.0,-58.0,141.0,-35.0,-176.0,153,56,86,77,74
2025-02-26 14:37:04.360,-956.0,1372.0,-39.0,157.0,-29.0,-225.0,153,53,84,77,73
2025-02-26 14:37:04.367,-911.0,1398.0,-36.0,172.0,-25.0,-276.0,154,54,86,76,74
2025-02-26 14:37:04.371,-808.0,1395.0,-59.0,184.0,-18.0,-300.0,154,54,87,78,74
2025-02-26 14:37:04.376,-698.0,1328.0,-83.0,199.0,-18.0,-347.0,152,56,87,78,75
2025-02-26 14:37:04.380,-499.0,1177.0,-104.0,204.0,-27.0,-390.0,154,55,86,79,74
2025-02-26 14:37:04.388,-382.0,986.0,-123.0,218.0,-32.0,-427.0,154,54,88,78,75
2025-02-26 14:37:04.392,-115.0,907.0,-182.0,230.0,-48.0,-444.0,153,52,84,76,75
2025-02-26 14:37:04.397,147.0,661.0,-189.0,245.0,-69.0,-475.0,155,56,89,79,75
2025-02-26 14:37:04.402,428.0,387.0,-159.0,252.0,-92.0,-499.0,154,56,89,78,75
2025-02-26 14:37:04.409,585.0,79.0,-72.0,278.0,-104.0,-524.0,154,54,89,79,76
2025-02-26 14:37:04.413,986.0,-99.0,56.0,307.0,-130.0,-538.0,154,56,90,79,76
2025-02-26 14:37:04.417,1388.0,-373.0,116.0,337.0,-157.0,-560.0,154,55,90,78,76
2025-02-26 14:37:04.425,1704.0,-854.0,196.0,351.0,-191.0,-568.0,155,54,90,78,76
2025-02-26 14:37:04.430,1912.0,-1505.0,344.0,375.0,-209.0,-558.0,154,56,86,78,77
2025-02-26 14:37:04.433,2217.0,-2338.0,590.0,394.0,-242.0,-546.0,154,55,90,79,77
2025-02-26 14:37:04.441,2610.0,-2925.0,1162.0,397.0,-250.0,-485.0,154,55,90,79,79
2025-02-26 14:37:04.444,2980.0,-4034.0,1505.0,382.0,-246.0,-390.0,157,55,89,78,80
2025-02-26 14:37:04.450,3302.0,-5026.0,2162.0,366.0,-207.0,-260.0,159,55,87,82,81
2025-02-26 14:37:04.458,3535.0,-5647.0,2685.0,360.0,-121.0,-123.0,155,54,88,78,82
2025-02-26 14:37:04.462,3608.0,-5496.0,2983.0,327.0,-68.0,7.0,155,54,83,76,80
2025-02-26 14:37:04.466,3515.0,-5084.0,2879.0,274.0,24.0,61.0,156,53,81,74,81
2025-02-26 14:37:04.470,3167.0,-3927.0,2643.0,160.0,103.0,142.0,156,55,82,74,80
2025-02-26 14:37:04.478,2490.0,-2532.0,2155.0,15.0,159.0,192.0,157,56,80,71,78
2025-02-26 14:37:04.483,1901.0,-1280.0,1600.0,-71.0,170.0,212.0,155,54,78,69,77
2025-02-26 14:37:04.487,1596.0,-631.0,1063.0,-237.0,159.0,225.0,158,56,80,71,78
2025-02-26 14:37:04.493,1013.0,-577.0,606.0,-361.0,117.0,230.0,155,54,79,71,75
2025-02-26 14:37:04.499,599.0,-811.0,484.0,-441.0,68.0,236.0,155,55,80,72,75
2025-02-26 14:37:04.503,348.0,-1122.0,313.0,-462.0,28.0,236.0,154,55,79,72,74
2025-02-26 14:37:04.504,307.0,-1421.0,230.0,-477.0,15.0,226.0,155,55,79,74,75
2025-02-26 14:37:04.514,310.0,-1541.0,145.0,-456.0,0.0,217.0,154,57,81,77,76
2025-02-26 14:37:04.516,338.0,-1867.0,103.0,-392.0,-1.0,198.0,154,55,80,75,77
2025-02-26 14:37:04.524,374.0,-2131.0,182.0,-354.0,1.0,187.0,154,53,82,76,75
2025-02-26 14:37:04.528,362.0,-2260.0,347.0,-281.0,-1.0,187.0,156,56,83,78,77
2025-02-26 14:37:04.535,406.0,-2257.0,435.0,-208.0,-14.0,199.0,156,57,84,78,77
2025-02-26 14:37:04.540,453.0,-2122.0,505.0,-156.0,-15.0,220.0,158,58,87,79,77
2025-02-26 14:37:04.544,585.0,-1951.0,565.0,-146.0,-8.0,241.0,155,55,87,78,79
2025-02-26 14:37:04.548,424.0,-1578.0,538.0,-106.0,0.0,250.0,154,56,90,79,78
2025-02-26 14:37:04.553,622.0,-1404.0,552.0,-86.0,12.0,264.0,155,56,90,79,80
2025-02-26 14:37:04.560,431.0,-1164.0,471.0,-69.0,26.0,275.0,155,56,90,79,82
2025-02-26 14:37:04.565,462.0,-932.0,410.0,-62.0,38.0,280.0,154,54,89,80,79
2025-02-26 14:37:04.569,349.0,-860.0,291.0,-71.0,63.0,280.0,156,54,91,80,80
2025-02-26 14:37:04.571,156.0,-710.0,283.0,-89.0,68.0,290.0,155,55,91,79,80
2025-02-26 14:37:04.581,77.0,-562.0,240.0,-98.0,59.0,293.0,154,54,91,78,80
2025-02-26 14:37:04.584,22.0,-418.0,210.0,-110.0,28.0,292.0,155,56,90,78,80
2025-02-26 14:37:04.589,-27.0,-281.0,154.0,-127.0,13.0,285.0,156,56,88,78,82
2025-02-26 14:37:04.594,-157.0,-196.0,70.0,-132.0,13.0,272.0,154,53,87,79,80
2025-02-26 14:37:04.597,-176.0,-94.0,15.0,-136.0,16.0,266.0,154,54,83,78,81
2025-02-26 14:37:04.601,-262.0,-120.0,37.0,-139.0,16.0,250.0,154,56,85,77,82
2025-02-26 14:37:04.607,-376.0,-192.0,50.0,-144.0,8.0,234.0,155,57,85,80,82
2025-02-26 14:37:04.614,-415.0,-178.0,74.0,-152.0,0.0,221.0,153,55,83,79,82
2025-02-26 14:37:04.618,-395.0,-199.0,119.0,-164.0,-22.0,217.0,155,55,85,80,81
2025-02-26 14:37:04.625,-387.0,-220.0,137.0,-177.0,-42.0,211.0,155,55,84,80,81
2025-02-26 14:37:04.630,-376.0,-267.0,155.0,-199.0,-48.0,212.0,154,56,84,73,80
2025-02-26 14:37:04.634,-352.0,-365.0,158.0,-218.0,-49.0,213.0,155,57,84,79,80
2025-02-26 14:37:04.641,-360.0,-382.0,355.0,-219.0,-29.0,212.0,154,57,84,79,81
2025-02-26 14:37:04.646,-414.0,-332.0,443.0,-178.0,5.0,215.0,153,57,82,78,80
2025-02-26 14:37:04.650,-445.0,-335.0,202.0,-166.0,16.0,217.0,153,52,81,78,79
2025-02-26 14:37:04.655,-374.0,-212.0,322.0,-125.0,50.0,219.0,152,56,80,77,79
2025-02-26 14:37:04.662,-330.0,-216.0,308.0,-86.0,85.0,228.0,152,57,82,78,81
2025-02-26 14:37:04.666,-361.0,-159.0,346.0,-68.0,117.0,237.0,153,58,84,79,80
2025-02-26 14:37:04.670,-379.0,-64.0,291.0,-47.0,128.0,233.0,155,57,84,79,80
2025-02-26 14:37:04.675,-519.0,-7.0,214.0,-21.0,144.0,230.0,154,57,83,80,79
2025-02-26 14:37:04.679,-608.0,138.0,180.0,0.0,158.0,219.0,155,58,84,81,81
2025-02-26 14:37:04.687,-578.0,393.0,88.0,13.0,169.0,204.0,153,58,83,81,79
2025-02-26 14:37:04.691,-610.0,490.0,-99.0,41.0,191.0,192.0,153,58,84,82,79
2025-02-26 14:37:04.696,-641.0,745.0,-216.0,50.0,213.0,155.0,152,60,85,82,81
2025-02-26 14:37:04.699,-657.0,809.0,-340.0,71.0,213.0,121.0,153,59,86,82,79
2025-02-26 14:37:04.704,-792.0,669.0,-480.0,116.0,206.0,99.0,153,61,87,82,79
2025-02-26 14:37:04.712,-965.0,561.0,-635.0,145.0,171.0,46.0,158,61,88,83,80
2025-02-26 14:37:04.716,-945.0,523.0,-739.0,150.0,130.0,7.0,153,61,88,85,81
2025-02-26 14:37:04.720,-903.0,576.0,-867.0,173.0,111.0,-13.0,153,62,87,83,80
2025-02-26 14:37:04.724,-771.0,598.0,-1035.0,222.0,77.0,-19.0,154,66,91,83,81
2025-02-26 14:37:04.732,-632.0,678.0,-1089.0,277.0,43.0,-34.0,153,64,93,85,81
2025-02-26 14:37:04.736,-658.0,674.0,-1092.0,299.0,27.0,-53.0,153,65,93,84,81
2025-02-26 14:37:04.741,-667.0,625.0,-990.0,304.0,23.0,-66.0,150,68,90,86,81
2025-02-26 14:37:04.745,-709.0,622.0,-890.0,326.0,31.0,-81.0,150,72,89,85,81
2025-02-26 14:37:04.752,-894.0,791.0,-744.0,342.0,24.0,-114.0,152,75,89,86,80
2025-02-26 14:37:04.757,-896.0,681.0,-676.0,362.0,9.0,-142.0,151,80,95,86,79
2025-02-26 14:37:04.761,-811.0,660.0,-708.0,321.0,-55.0,-157.0,149,80,98,84,77
2025-02-26 14:37:04.769,-1032.0,814.0,-908.0,275.0,-149.0,-195.0,148,88,107,87,77
2025-02-26 14:37:04.772,-1098.0,1245.0,-839.0,264.0,-220.0,-243.0,149,92,111,89,76
2025-02-26 14:37:04.778,-1152.0,1303.0,-130.0,259.0,-234.0,-269.0,146,97,114,88,74
2025-02-26 14:37:04.784,-1125.0,916.0,-66.0,252.0,-250.0,-289.0,145,99,115,91,76
2025-02-26 14:37:04.790,-923.0,508.0,-107.0,255.0,-258.0,-328.0,142,102,116,91,78
2025-02-26 14:37:04.794,-364.0,463.0,-195.0,274.0,-272.0,-354.0,144,103,114,92,77
2025-02-26 14:37:04.801,83.0,361.0,-102.0,314.0,-265.0,-397.0,142,106,117,92,81
2025-02-26 14:37:04.806,316.0,255.0,-35.0,361.0,-234.0,-423.0,140,107,118,95,80
2025-02-26 14:37:04.810,443.0,130.0,66.0,382.0,-219.0,-459.0,138,108,118,94,82
2025-02-26 14:37:04.814,406.0,-61.0,185.0,416.0,-218.0,-476.0,136,111,121,95,82
2025-02-26 14:37:04.821,749.0,-4.0,375.0,416.0,-225.0,-493.0,135,114,122,95,82
2025-02-26 14:37:04.827,732.0,-140.0,561.0,388.0,-239.0,-516.0,135,114,122,96,84
2025-02-26 14:37:04.831,856.0,-334.0,642.0,345.0,-254.0,-533.0,135,117,123,97,88
2025-02-26 14:37:04.839,1194.0,-545.0,925.0,323.0,-264.0,-540.0,131,122,125,97,86
2025-02-26 14:37:04.843,1650.0,-893.0,1352.0,294.0,-274.0,-527.0,131,123,125,94,84
2025-02-26 14:37:04.847,1827.0,-1069.0,1583.0,286.0,-288.0,-493.0,134,126,124,96,90
2025-02-26 14:37:04.855,2214.0,-1932.0,2429.0,234.0,-272.0,-434.0,131,126,125,97,90
2025-02-26 14:37:04.860,2235.0,-2837.0,2900.0,119.0,-226.0,-393.0,131,129,124,94,91
2025-02-26 14:37:04.867,2567.0,-2937.0,2990.0,96.0,-172.0,-289.0,132,130,125,95,91
2025-02-26 14:37:04.872,2806.0,-3299.0,3134.0,65.0,-114.0,-168.0,127,131,126,91,93
2025-02-26 14:37:04.875,2928.0,-3564.0,3060.0,28.0,-56.0,-43.0,131,131,125,94,94
2025-02-26 14:37:04.883,2987.0,-3905.0,2775.0,-8.0,0.0,79.0,130,133,126,96,93
2025-02-26 14:37:04.886,2577.0,-3679.0,2551.0,-31.0,29.0,176.0,128,132,125,96,94
2025-02-26 14:37:04.892,2367.0,-3067.0,2270.0,-62.0,68.0,241.0,129,131,124,96,93
2025-02-26 14:37:04.896,1860.0,-2704.0,1959.0,-95.0,68.0,262.0,127,129,124,96,92
2025-02-26 14:37:04.904,1300.0,-2261.0,1798.0,-145.0,54.0,289.0,128,133,126,96,92
2025-02-26 14:37:04.909,1003.0,-1977.0,1484.0,-194.0,44.0,299.0,128,132,126,99,92
2025-02-26 14:37:04.913,826.0,-1843.0,1153.0,-213.0,29.0,297.0,128,131,125,97,91
2025-02-26 14:37:04.921,710.0,-1776.0,951.0,-238.0,20.0,288.0,125,132,125,97,92
2025-02-26 14:37:04.924,699.0,-1730.0,831.0,-246.0,4.0,276.0,124,132,126,98,90
2025-02-26 14:37:04.929,677.0,-1718.0,755.0,-238.0,-12.0,269.0,127,130,125,98,91
2025-02-26 14:37:04.937,660.0,-1665.0,727.0,-230.0,-18.0,259.0,127,130,126,98,90
2025-02-26 14:37:04.941,680.0,-1577.0,710.0,-225.0,-15.0,251.0,124,132,126,96,89
2025-02-26 14:37:04.946,649.0,-1463.0,663.0,-205.0,-11.0,252.0,125,130,124,98,90
2025-02-26 14:37:04.954,624.0,-1452.0,801.0,-187.0,-2.0,256.0,123,131,126,99,90
2025-02-26 14:37:04.957,601.0,-1424.0,797.0,-169.0,6.0,260.0,125,130,125,96,88
2025-02-26 14:37:04.962,573.0,-1311.0,614.0,-150.0,18.0,272.0,125,131,126,98,91
2025-02-26 14:37:04.970,491.0,-1269.0,701.0,-137.0,34.0,286.0,125,131,128,100,91
2025-02-26 14:37:04.974,423.0,-1157.0,699.0,-115.0,49.0,300.0,126,130,126,98,91
2025-02-26 14:37:04.978,377.0,-972.0,682.0,-86.0,59.0,310.0,122,130,125,97,91
2025-02-26 14:37:04.983,277.0,-837.0,710.0,-65.0,85.0,314.0,123,130,127,100,91
2025-02-26 14:37:04.990,136.0,-629.0,652.0,-58.0,108.0,320.0,124,130,127,100,92
2025-02-26 14:37:04.995,12.0,-229.0,665.0,-55.0,133.0,320.0,124,130,127,101,93
2025-02-26 14:37:04.999,-34.0,78.0,686.0,-53.0,142.0,310.0,124,129,126,97,92
2025-02-26 14:37:05.003,-181.0,250.0,630.0,-71.0,161.0,305.0,123,129,125,98,92
2025-02-26 14:37:05.009,-303.0,398.0,633.0,-86.0,172.0,287.0,125,132,128,100,95
2025-02-26 14:37:05.015,-397.0,508.0,559.0,-86.0,172.0,262.0,124,130,128,99,93
2025-02-26 14:37:05.020,-512.0,521.0,414.0,-98.0,166.0,235.0,124,126,128,99,94
2025-02-26 14:37:05.027,-532.0,556.0,335.0,-109.0,158.0,220.0,124,130,125,100,92
2025-02-26 14:37:05.031,-581.0,526.0,255.0,-126.0,151.0,190.0,121,129,127,95,94
2025-02-26 14:37:05.036,-657.0,518.0,169.0,-132.0,140.0,160.0,122,128,128,100,94
2025-02-26 14:37:05.044,-721.0,432.0,100.0,-134.0,128.0,132.0,122,129,128,100,95
2025-02-26 14:37:05.048,-769.0,327.0,37.0,-133.0,116.0,107.0,120,127,129,100,93
2025-02-26 14:37:05.052,-778.0,220.0,-3.0,-132.0,111.0,87.0,120,127,127,100,93
2025-02-26 14:37:05.056,-819.0,162.0,-109.0,-133.0,101.0,76.0,121,127,129,100,94
2025-02-26 14:37:05.064,-859.0,151.0,-17.0,-132.0,91.0,64.0,119,127,128,99,95
2025-02-26 14:37:05.067,-860.0,66.0,-186.0,-126.0,79.0,54.0,123,126,129,101,94
2025-02-26 14:37:05.073,-896.0,-45.0,-161.0,-116.0,74.0,49.0,119,124,128,99,94
2025-02-26 14:37:05.080,-909.0,-97.0,-182.0,-105.0,64.0,46.0,119,127,127,99,93
2025-02-26 14:37:05.085,-896.0,-97.0,-184.0,-85.0,57.0,43.0,121,125,129,101,95
2025-02-26 14:37:05.089,-844.0,-97.0,-167.0,-74.0,50.0,41.0,122,126,129,102,95
2025-02-26 14:37:05.093,-832.0,-91.0,-129.0,-61.0,48.0,37.0,119,124,128,99,93
2025-02-26 14:37:05.101,-814.0,-73.0,-95.0,-35.0,49.0,36.0,119,125,128,100,92
2025-02-26 14:37:05.105,-758.0,-83.0,-122.0,-19.0,48.0,30.0,120,125,129,100,94
2025-02-26 14:37:05.109,-720.0,1.0,-37.0,-11.0,55.0,22.0,120,126,129,101,94
2025-02-26 14:37:05.114,-684.0,23.0,-29.0,14.0,59.0,15.0,120,124,127,99,94
2025-02-26 14:37:05.118,-680.0,25.0,-72.0,32.0,64.0,10.0,119,126,127,99,94
2025-02-26 14:37:05.125,-672.0,83.0,-76.0,55.0,67.0,3.0,124,124,127,101,94
2025-02-26 14:37:05.130,-650.0,128.0,-162.0,67.0,64.0,-5.0,121,124,127,100,94
2025-02-26 14:37:05.134,-655.0,143.0,-219.0,87.0,54.0,-10.0,121,126,127,99,95
2025-02-26 14:37:05.139,-674.0,191.0,-266.0,105.0,44.0,-20.0,120,124,128,99,95
2025-02-26 14:37:05.146,-702.0,280.0,-314.0,117.0,31.0,-32.0,120,124,128,99,93
2025-02-26 14:37:05.150,-722.0,357.0,-318.0,133.0,25.0,-46.0,122,124,127,99,94
2025-02-26 14:37:05.154,-772.0,417.0,-324.0,144.0,10.0,-54.0,121,123,126,97,94
2025-02-26 14:37:05.162,-867.0,571.0,-312.0,153.0,-5.0,-71.0,122,124,127,97,94
2025-02-26 14:37:05.165,-980.0,775.0,-348.0,156.0,-27.0,-92.0,123,124,128,99,94
2025-02-26 14:37:05.171,-1034.0,1006.0,-319.0,163.0,-40.0,-118.0,122,122,127,99,95
2025-02-26 14:37:05.176,-1049.0,1213.0,-291.0,171.0,-67.0,-158.0,121,123,128,99,95
2025-02-26 14:37:05.183,-1024.0,1314.0,-244.0,193.0,-88.0,-184.0,122,122,128,99,95
2025-02-26 14:37:05.188,-918.0,1301.0,-355.0,200.0,-106.0,-234.0,121,123,128,101,96
2025-02-26 14:37:05.195,-840.0,1366.0,-314.0,200.0,-118.0,-290.0,122,123,127,102,98
2025-02-26 14:37:05.200,-703.0,1343.0,-328.0,211.0,-127.0,-350.0,125,124,128,100,96
2025-02-26 14:37:05.204,-448.0,1200.0,-345.0,231.0,-137.0,-408.0,121,122,129,101,96
2025-02-26 14:37:05.212,-186.0,925.0,-243.0,237.0,-152.0,-462.0,124,116,129,104,97
2025-02-26 14:37:05.216,57.0,600.0,-213.0,241.0,-163.0,-512.0,124,122,128,104,96
2025-02-26 14:37:05.220,365.0,362.0,-33.0,248.0,-177.0,-555.0,122,120,129,101,96
2025-02-26 14:37:05.228,535.0,-3.0,223.0,240.0,-184.0,-588.0,122,120,128,102,96
2025-02-26 14:37:05.233,927.0,-272.0,537.0,219.0,-192.0,-600.0,125,121,128,104,96
2025-02-26 14:37:05.237,1410.0,-715.0,711.0,208.0,-199.0,-607.0,123,120,131,106,96
2025-02-26 14:37:05.244,1809.0,-1287.0,763.0,174.0,-188.0,-587.0,122,120,130,107,96
2025-02-26 14:37:05.249,2311.0,-1948.0,1193.0,95.0,-154.0,-546.0,124,120,129,106,98
2025-02-26 14:37:05.256,2721.0,-2705.0,1753.0,65.0,-124.0,-473.0,122,121,129,107,98
2025-02-26 14:37:05.260,2900.0,-3624.0,2142.0,9.0,-116.0,-374.0,124,119,133,107,97
2025-02-26 14:37:05.265,3165.0,-4525.0,2815.0,-3.0,-114.0,-245.0,124,118,124,107,96
2025-02-26 14:37:05.273,3213.0,-4776.0,2774.0,28.0,-85.0,-105.0,123,118,132,108,96
2025-02-26 14:37:05.274,3265.0,-4701.0,2560.0,24.0,-40.0,18.0,119,116,128,107,98
2025-02-26 14:37:05.281,3090.0,-4423.0,2235.0,-33.0,21.0,72.0,121,116,126,108,96
2025-02-26 14:37:05.289,2513.0,-3817.0,2119.0,-99.0,68.0,162.0,121,115,129,108,97
2025-02-26 14:37:05.293,1840.0,-3073.0,1749.0,-139.0,67.0,220.0,120,114,127,107,96
2025-02-26 14:37:05.298,1350.0,-2475.0,1372.0,-157.0,42.0,254.0,122,112,126,106,94
2025-02-26 14:37:05.304,908.0,-2147.0,975.0,-202.0,26.0,273.0,122,111,127,107,93
2025-02-26 14:37:05.310,762.0,-1867.0,560.0,-234.0,18.0,279.0,119,108,130,108,93
2025-02-26 14:37:05.314,649.0,-1737.0,243.0,-247.0,5.0,277.0,120,106,126,108,93
2025-02-26 14:37:05.322,570.0,-1726.0,86.0,-238.0,-12.0,267.0,122,106,127,108,94
2025-02-26 14:37:05.327,488.0,-1771.0,60.0,-204.0,-19.0,251.0,122,105,126,108,92
2025-02-26 14:37:05.331,400.0,-1826.0,39.0,-184.0,-15.0,235.0,122,104,128,110,94
2025-02-26 14:37:05.338,415.0,-1885.0,94.0,-147.0,-10.0,225.0,121,105,128,106,94
2025-02-26 14:37:05.345,379.0,-1822.0,204.0,-110.0,-3.0,222.0,120,103,128,109,94
2025-02-26 14:37:05.345,389.0,-1807.0,197.0,-73.0,-2.0,224.0,122,107,128,110,96
2025-02-26 14:37:05.352,417.0,-1792.0,238.0,-35.0,6.0,234.0,121,106,129,110,96
2025-02-26 14:37:05.359,417.0,-1704.0,311.0,-18.0,21.0,251.0,122,106,129,110,97
2025-02-26 14:37:05.363,418.0,-1595.0,398.0,10.0,38.0,269.0,122,106,129,109,97
2025-02-26 14:37:05.365,428.0,-1499.0,500.0,38.0,49.0,284.0,123,106,129,109,98
2025-02-26 14:37:05.375,477.0,-1455.0,512.0,66.0,77.0,290.0,124,107,129,110,99
2025-02-26 14:37:05.380,432.0,-1265.0,553.0,80.0,105.0,300.0,124,107,129,109,99
2025-02-26 14:37:05.383,372.0,-1150.0,630.0,87.0,128.0,306.0,122,108,128,109,98
2025-02-26 14:37:05.391,334.0,-950.0,524.0,103.0,138.0,305.0,123,108,127,110,101
2025-02-26 14:37:05.394,357.0,-643.0,440.0,117.0,160.0,300.0,120,107,129,108,101
2025-02-26 14:37:05.401,271.0,-521.0,465.0,111.0,182.0,294.0,120,109,129,102,102
2025-02-26 14:37:05.405,173.0,-338.0,362.0,69.0,205.0,290.0,116,108,128,108,102
2025-02-26 14:37:05.412,-84.0,66.0,277.0,49.0,225.0,278.0,117,108,127,105,102
2025-02-26 14:37:05.414,-193.0,376.0,177.0,20.0,224.0,258.0,116,107,128,104,103
2025-02-26 14:37:05.421,-395.0,578.0,204.0,-17.0,209.0,247.0,118,109,127,102,102
2025-02-26 14:37:05.429,-594.0,603.0,164.0,-61.0,165.0,220.0,119,111,129,104,103
2025-02-26 14:37:05.432,-614.0,626.0,323.0,-120.0,137.0,179.0,118,107,127,101,104
2025-02-26 14:37:05.438,-654.0,292.0,15.0,-139.0,86.0,155.0,120,108,125,98,102
2025-02-26 14:37:05.445,-658.0,304.0,109.0,-198.0,55.0,129.0,120,110,124,96,103
2025-02-26 14:37:05.449,-635.0,91.0,232.0,-232.0,49.0,113.0,123,107,124,96,103
2025-02-26 14:37:05.454,-759.0,89.0,123.0,-259.0,39.0,102.0,125,107,125,96,104
2025-02-26 14:37:05.458,-707.0,-140.0,-46.0,-286.0,30.0,86.0,126,108,123,96,105
2025-02-26 14:37:05.466,-512.0,-230.0,-80.0,-296.0,22.0,74.0,127,106,122,96,104
2025-02-26 14:37:05.468,-461.0,-268.0,-2.0,-294.0,18.0,64.0,128,108,121,95,105
2025-02-26 14:37:05.474,-538.0,-207.0,-38.0,-270.0,9.0,62.0,130,104,120,95,104
2025-02-26 14:37:05.481,-590.0,-350.0,-61.0,-237.0,19.0,63.0,132,104,120,96,105
2025-02-26 14:37:05.486,-624.0,-499.0,101.0,-211.0,35.0,67.0,132,104,119,96,106
2025-02-26 14:37:05.490,-709.0,-526.0,17.0,-198.0,45.0,71.0,130,103,118,94,106
2025-02-26 14:37:05.494,-724.0,-485.0,-30.0,-188.0,49.0,76.0,133,101,117,93,104
2025-02-26 14:37:05.502,-760.0,-459.0,-99.0,-183.0,53.0,80.0,133,101,117,96,104
2025-02-26 14:37:05.506,-764.0,-380.0,-77.0,-189.0,41.0,86.0,136,97,116,95,106
2025-02-26 14:37:05.511,-770.0,-284.0,-2.0,-194.0,37.0,86.0,136,92,116,94,106
2025-02-26 14:37:05.516,-746.0,-160.0,61.0,-178.0,41.0,86.0,134,84,111,93,105
2025-02-26 14:37:05.522,-685.0,-92.0,-3.0,-160.0,36.0,85.0,134,83,113,94,106
2025-02-26 14:37:05.527,-640.0,-38.0,9.0,-136.0,42.0,81.0,139,82,114,93,108
2025-02-26 14:37:05.531,-648.0,0.0,64.0,-112.0,57.0,81.0,138,76,113,94,108
2025-02-26 14:37:05.535,-650.0,165.0,101.0,-73.0,66.0,81.0,138,72,109,94,107
2025-02-26 14:37:05.543,-636.0,226.0,69.0,-28.0,70.0,76.0,138,70,106,93,107
2025-02-26 14:37:05.548,-667.0,378.0,-44.0,-7.0,58.0,66.0,139,66,102,95,107
2025-02-26 14:37:05.552,-713.0,500.0,-51.0,40.0,50.0,53.0,140,63,95,93,108
2025-02-26 14:37:05.555,-785.0,568.0,-45.0,93.0,33.0,45.0,140,61,90,92,106
2025-02-26 14:37:05.560,-917.0,783.0,-51.0,118.0,12.0,24.0,141,58,83,91,105
2025-02-26 14:37:05.565,-993.0,990.0,-104.0,168.0,2.0,-4.0,141,55,79,90,104
2025-02-26 14:37:05.572,-1177.0,1066.0,49.0,199.0,-12.0,-22.0,143,56,79,89,103
2025-02-26 14:37:05.577,-1419.0,1226.0,-44.0,176.0,-13.0,-58.0,142,54,80,90,100
2025-02-26 14:37:05.583,-1475.0,1342.0,-128.0,171.0,-19.0,-106.0,142,52,77,88,95
2025-02-26 14:37:05.588,-1524.0,1631.0,-54.0,150.0,-18.0,-166.0,141,53,78,89,92
2025-02-26 14:37:05.590,-1418.0,1557.0,-356.0,123.0,-17.0,-194.0,143,52,75,88,87
2025-02-26 14:37:05.597,-1233.0,1596.0,-540.0,112.0,-40.0,-251.0,144,50,75,90,85
2025-02-26 14:37:05.604,-961.0,1854.0,-348.0,92.0,-77.0,-301.0,143,50,74,91,82
2025-02-26 14:37:05.608,-821.0,1724.0,-702.0,95.0,-93.0,-349.0,144,49,75,89,80
2025-02-26 14:37:05.614,-783.0,1546.0,-687.0,103.0,-93.0,-394.0,142,51,71,88,77
2025-02-26 14:37:05.621,-703.0,1506.0,-652.0,102.0,-85.0,-414.0,141,49,72,87,73
2025-02-26 14:37:05.625,-493.0,1435.0,-591.0,86.0,-82.0,-447.0,144,51,73,86,72
2025-02-26 14:37:05.629,-268.0,1332.0,-447.0,76.0,-84.0,-479.0,144,50,75,85,70
2025-02-26 14:37:05.632,10.0,1063.0,-333.0,71.0,-94.0,-509.0,143,50,77,83,68
2025-02-26 14:37:05.642,142.0,972.0,-283.0,75.0,-123.0,-525.0,142,50,73,80,66
2025-02-26 14:37:05.643,252.0,904.0,-260.0,43.0,-162.0,-569.0,144,50,81,80,66
2025-02-26 14:37:05.650,645.0,625.0,8.0,53.0,-215.0,-584.0,145,49,83,78,65
2025-02-26 14:37:05.655,933.0,364.0,12.0,91.0,-243.0,-605.0,142,50,83,79,65
2025-02-26 14:37:05.662,1378.0,498.0,-206.0,118.0,-274.0,-609.0,142,48,85,80,68
2025-02-26 14:37:05.666,2048.0,-89.0,-256.0,93.0,-247.0,-624.0,143,50,86,81,69
2025-02-26 14:37:05.670,3047.0,-1078.0,-291.0,97.0,-237.0,-604.0,143,51,86,81,70
2025-02-26 14:37:05.675,3229.0,-1953.0,67.0,177.0,-233.0,-522.0,143,50,84,80,70
2025-02-26 14:37:05.682,3116.0,-2852.0,981.0,244.0,-209.0,-468.0,147,47,83,77,70
2025-02-26 14:37:05.687,3369.0,-4614.0,1934.0,255.0,-145.0,-347.0,146,50,81,78,71
2025-02-26 14:37:05.692,3883.0,-5896.0,2084.0,259.0,-94.0,-233.0,146,50,81,79,73
2025-02-26 14:37:05.699,3997.0,-6792.0,2235.0,277.0,-80.0,-109.0,146,49,79,77,73
2025-02-26 14:37:05.703,3676.0,-6952.0,2055.0,296.0,-27.0,5.0,148,48,74,74,73
2025-02-26 14:37:05.708,3326.0,-5789.0,1641.0,280.0,15.0,55.0,148,50,68,71,73
2025-02-26 14:37:05.715,2743.0,-4860.0,1268.0,176.0,89.0,134.0,150,49,66,68,72
2025-02-26 14:37:05.720,1989.0,-2801.0,1177.0,-10.0,122.0,176.0,147,49,64,67,71
2025-02-26 14:37:05.723,1331.0,-1164.0,768.0,-107.0,85.0,193.0,148,50,66,67,70
2025-02-26 14:37:05.728,1109.0,-510.0,59.0,-268.0,61.0,189.0,149,50,65,65,70
2025-02-26 14:37:05.736,782.0,-673.0,-158.0,-391.0,27.0,191.0,148,50,65,64,71
2025-02-26 14:37:05.740,593.0,-1174.0,-142.0,-432.0,-21.0,191.0,148,52,68,67,71
2025-02-26 14:37:05.744,493.0,-1707.0,-48.0,-442.0,-9.0,194.0,147,51,69,72,71
2025-02-26 14:37:05.748,517.0,-2314.0,46.0,-396.0,-10.0,183.0,147,51,71,71,70
2025-02-26 14:37:05.757,427.0,-2536.0,174.0,-316.0,-25.0,185.0,147,52,74,74,72
2025-02-26 14:37:05.760,502.0,-2820.0,245.0,-220.0,-10.0,186.0,147,51,76,75,71
2025-02-26 14:37:05.765,536.0,-2742.0,310.0,-166.0,3.0,190.0,147,51,74,76,72
2025-02-26 14:37:05.769,492.0,-2572.0,296.0,-81.0,11.0,194.0,147,51,75,74,73
2025-02-26 14:37:05.775,470.0,-2429.0,288.0,-7.0,13.0,197.0,146,52,76,77,75
2025-02-26 14:37:05.781,540.0,-1983.0,286.0,10.0,-2.0,198.0,144,50,79,78,77
2025-02-26 14:37:05.785,388.0,-1609.0,208.0,38.0,-4.0,213.0,145,51,80,76,75
2025-02-26 14:37:05.789,239.0,-1396.0,209.0,58.0,-7.0,222.0,147,53,82,78,77
2025-02-26 14:37:05.797,292.0,-968.0,203.0,36.0,-16.0,230.0,146,52,81,78,78
2025-02-26 14:37:05.802,285.0,-675.0,317.0,27.0,-25.0,225.0,147,51,81,77,76
2025-02-26 14:37:05.805,223.0,-571.0,310.0,-2.0,-38.0,221.0,147,52,85,77,78
2025-02-26 14:37:05.810,192.0,-489.0,316.0,-50.0,-45.0,211.0,147,52,86,78,77
2025-02-26 14:37:05.812,58.0,-501.0,311.0,-67.0,-49.0,209.0,146,51,86,77,78
2025-02-26 14:37:05.821,-19.0,-439.0,320.0,-91.0,-54.0,207.0,144,51,87,76,78
2025-02-26 14:37:05.826,-74.0,-517.0,318.0,-101.0,-54.0,205.0,147,52,87,78,79
2025-02-26 14:37:05.830,-89.0,-457.0,230.0,-101.0,-47.0,202.0,146,52,85,77,80
2025-02-26 14:37:05.831,-161.0,-522.0,252.0,-104.0,-45.0,199.0,145,51,84,77,79
2025-02-26 14:37:05.842,-241.0,-525.0,264.0,-94.0,-39.0,194.0,145,52,84,77,79
2025-02-26 14:37:05.846,-245.0,-554.0,307.0,-81.0,-37.0,186.0,147,53,86,77,80
2025-02-26 14:37:05.851,-286.0,-545.0,374.0,-71.0,-35.0,177.0,146,53,87,79,81
2025-02-26 14:37:05.855,-292.0,-520.0,374.0,-57.0,-31.0,168.0,145,52,84,76,79
2025-02-26 14:37:05.862,-340.0,-515.0,411.0,-40.0,-16.0,162.0,147,53,84,77,82
2025-02-26 14:37:05.867,-377.0,-426.0,416.0,-31.0,1.0,152.0,147,54,83,78,80
2025-02-26 14:37:05.871,-375.0,-360.0,427.0,-32.0,9.0,145.0,147,52,82,78,80
2025-02-26 14:37:05.875,-431.0,-367.0,325.0,-27.0,17.0,140.0,146,52,79,77,79
2025-02-26 14:37:05.880,-481.0,-269.0,294.0,-15.0,42.0,131.0,147,52,78,76,81
2025-02-26 14:37:05.887,-536.0,-291.0,233.0,-19.0,63.0,125.0,147,52,78,77,80
2025-02-26 14:37:05.892,-547.0,-241.0,114.0,-23.0,69.0,117.0,146,52,76,77,79
2025-02-26 14:37:05.896,-623.0,-225.0,25.0,-26.0,72.0,113.0,148,53,76,78,80
2025-02-26 14:37:05.903,-670.0,-214.0,-21.0,-29.0,67.0,106.0,147,53,77,77,80
2025-02-26 14:37:05.908,-704.0,-244.0,-125.0,-35.0,64.0,98.0,146,53,76,78,79
2025-02-26 14:37:05.913,-769.0,-281.0,-203.0,-39.0,58.0,94.0,147,52,75,76,80
2025-02-26 14:37:05.916,-769.0,-343.0,-231.0,-41.0,52.0,89.0,147,53,79,78,80
2025-02-26 14:37:05.921,-751.0,-396.0,-254.0,-41.0,41.0,84.0,147,53,79,77,82
2025-02-26 14:37:05.929,-717.0,-456.0,-221.0,-38.0,34.0,79.0,145,54,78,77,80
2025-02-26 14:37:05.933,-665.0,-479.0,-230.0,-32.0,24.0,76.0,148,53,78,78,82
2025-02-26 14:37:05.935,-527.0,-489.0,-146.0,-34.0,25.0,73.0,146,53,80,79,81
2025-02-26 14:37:05.941,-605.0,-485.0,-200.0,-36.0,28.0,71.0,146,53,81,77,79
2025-02-26 14:37:05.948,-523.0,-503.0,-134.0,-37.0,22.0,70.0,147,54,82,78,81
2025-02-26 14:37:05.953,-505.0,-513.0,-120.0,-30.0,13.0,68.0,147,53,83,77,82
2025-02-26 14:37:05.957,-501.0,-497.0,-79.0,-30.0,7.0,65.0,146,54,84,78,81
2025-02-26 14:37:05.961,-518.0,-472.0,-92.0,-24.0,5.0,64.0,147,52,82,78,81
2025-02-26 14:37:05.965,-528.0,-424.0,-98.0,-23.0,1.0,62.0,147,54,85,78,83
2025-02-26 14:37:05.971,-533.0,-337.0,-70.0,-24.0,-4.0,60.0,147,53,84,80,84
2025-02-26 14:37:05.977,-541.0,-279.0,-63.0,-24.0,-5.0,60.0,147,53,82,78,82
2025-02-26 14:37:05.982,-527.0,-172.0,-59.0,-22.0,-7.0,58.0,146,53,84,81,83
2025-02-26 14:37:05.986,-613.0,-57.0,-76.0,-22.0,-11.0,58.0,148,54,83,79,82
2025-02-26 14:37:05.990,-643.0,87.0,-58.0,-19.0,-13.0,57.0,148,53,82,79,83
2025-02-26 14:37:05.997,-762.0,186.0,-38.0,-21.0,-18.0,55.0,149,55,82,79,83
2025-02-26 14:37:06.002,-881.0,403.0,-11.0,-21.0,-23.0,47.0,148,54,82,81,83
2025-02-26 14:37:06.006,-927.0,627.0,35.0,-16.0,-27.0,40.0,148,54,80,78,83
2025-02-26 14:37:06.008,-1001.0,736.0,51.0,-9.0,-36.0,18.0,148,54,82,80,84
2025-02-26 14:37:06.018,-1118.0,950.0,93.0,-3.0,-40.0,-8.0,146,54,81,80,84
2025-02-26 14:37:06.022,-1190.0,1209.0,199.0,10.0,-40.0,-23.0,148,55,81,80,83
2025-02-26 14:37:06.027,-1256.0,1369.0,269.0,36.0,-34.0,-61.0,147,53,83,79,83
2025-02-26 14:37:06.031,-1132.0,1707.0,377.0,48.0,-24.0,-114.0,147,54,83,80,84
2025-02-26 14:37:06.039,-1095.0,1954.0,445.0,75.0,-18.0,-183.0,147,53,83,80,84
2025-02-26 14:37:06.042,-972.0,2054.0,396.0,103.0,-1.0,-220.0,148,54,83,82,84
2025-02-26 14:37:06.048,-921.0,2060.0,395.0,126.0,18.0,-286.0,148,55,86,82,86
2025-02-26 14:37:06.052,-860.0,1952.0,279.0,139.0,32.0,-348.0,147,56,87,82,87
2025-02-26 14:37:06.060,-768.0,1664.0,187.0,166.0,33.0,-407.0,148,54,85,82,85
2025-02-26 14:37:06.063,-526.0,1507.0,79.0,204.0,25.0,-435.0,146,54,85,81,85
2025-02-26 14:37:06.068,-217.0,1250.0,92.0,246.0,10.0,-480.0,148,55,89,84,87
2025-02-26 14:37:06.072,217.0,916.0,76.0,259.0,-8.0,-515.0,147,55,88,84,87
2025-02-26 14:37:06.074,455.0,442.0,107.0,284.0,-18.0,-529.0,147,54,89,83,85
2025-02-26 14:37:06.084,974.0,93.0,71.0,293.0,-38.0,-548.0,147,53,90,84,87
2025-02-26 14:37:06.088,1543.0,-436.0,211.0,291.0,-44.0,-542.0,149,55,92,86,87
2025-02-26 14:37:06.092,1669.0,-1000.0,272.0,277.0,-45.0,-535.0,149,53,91,83,85
2025-02-26 14:37:06.098,2174.0,-1429.0,421.0,243.0,-29.0,-515.0,147,54,90,84,85
2025-02-26 14:37:06.105,2205.0,-2226.0,441.0,210.0,-21.0,-483.0,147,54,91,86,87
2025-02-26 14:37:06.108,2144.0,-2822.0,431.0,216.0,-30.0,-448.0,148,54,90,87,88
2025-02-26 14:37:06.112,2209.0,-3392.0,600.0,230.0,-59.0,-399.0,147,53,88,85,87
2025-02-26 14:37:06.121,2267.0,-4152.0,761.0,218.0,-71.0,-324.0,147,54,87,84,87
2025-02-26 14:37:06.125,2282.0,-4442.0,974.0,188.0,-90.0,-272.0,147,53,83,86,87
2025-02-26 14:37:06.129,2362.0,-4946.0,995.0,167.0,-109.0,-161.0,151,56,82,84,89
2025-02-26 14:37:06.138,2015.0,-4805.0,976.0,158.0,-111.0,-45.0,150,55,78,84,88
2025-02-26 14:37:06.142,1838.0,-4038.0,947.0,139.0,-53.0,41.0,148,53,73,83,89
2025-02-26 14:37:06.146,1840.0,-3389.0,1106.0,40.0,-24.0,105.0,146,52,71,78,87
2025-02-26 14:37:06.152,1626.0,-3127.0,1023.0,-71.0,-4.0,129.0,149,53,71,77,88
2025-02-26 14:37:06.157,1415.0,-2538.0,842.0,-151.0,-16.0,158.0,148,54,73,75,87
2025-02-26 14:37:06.162,1063.0,-2162.0,599.0,-184.0,-36.0,178.0,147,53,72,75,86
2025-02-26 14:37:06.165,940.0,-1863.0,358.0,-234.0,-41.0,188.0,146,53,74,76,86
2025-02-26 14:37:06.174,721.0,-1763.0,243.0,-273.0,-37.0,190.0,147,54,75,77,86
2025-02-26 14:37:06.178,597.0,-1769.0,195.0,-294.0,-28.0,191.0,147,54,76,80,86
2025-02-26 14:37:06.181,547.0,-1832.0,195.0,-293.0,-22.0,184.0,147,54,79,81,88
2025-02-26 14:37:06.187,520.0,-1933.0,189.0,-283.0,-18.0,168.0,148,55,80,84,87
2025-02-26 14:37:06.195,509.0,-2053.0,200.0,-237.0,-13.0,153.0,147,55,82,82,86
2025-02-26 14:37:06.199,505.0,-2097.0,230.0,-197.0,-8.0,147.0,146,53,85,85,87
2025-02-26 14:37:06.202,539.0,-2123.0,254.0,-154.0,-8.0,140.0,145,54,86,86,86
2025-02-26 14:37:06.208,547.0,-2164.0,311.0,-126.0,-4.0,141.0,145,54,86,86,87
2025-02-26 14:37:06.215,596.0,-2214.0,316.0,-96.0,-3.0,155.0,145,54,89,86,86
2025-02-26 14:37:06.219,482.0,-2190.0,284.0,-63.0,2.0,166.0,147,54,89,87,87
2025-02-26 14:37:06.223,549.0,-2007.0,265.0,-54.0,0.0,183.0,146,55,91,86,87
2025-02-26 14:37:06.228,531.0,-2084.0,430.0,-23.0,6.0,213.0,146,54,89,86,87
2025-02-26 14:37:06.235,467.0,-1934.0,398.0,-1.0,16.0,225.0,146,56,91,88,90
2025-02-26 14:37:06.238,421.0,-1758.0,442.0,7.0,22.0,251.0,146,56,91,88,88
2025-02-26 14:37:06.243,396.0,-1386.0,457.0,20.0,21.0,263.0,143,55,90,87,89
2025-02-26 14:37:06.248,395.0,-1444.0,433.0,22.0,17.0,264.0,143,56,92,91,90
2025-02-26 14:37:06.252,378.0,-1130.0,404.0,23.0,30.0,266.0,146,56,92,91,90
2025-02-26 14:37:06.259,359.0,-896.0,311.0,21.0,39.0,264.0,144,56,93,90,89
2025-02-26 14:37:06.262,309.0,-746.0,249.0,3.0,54.0,262.0,144,55,91,91,90
2025-02-26 14:37:06.268,207.0,-550.0,275.0,-11.0,66.0,256.0,145,58,92,92,92
2025-02-26 14:37:06.272,183.0,-382.0,261.0,-17.0,70.0,251.0,145,56,90,90,90
2025-02-26 14:37:06.276,-35.0,-257.0,223.0,-35.0,78.0,245.0,145,55,89,90,90
2025-02-26 14:37:06.284,-103.0,-114.0,221.0,-64.0,82.0,232.0,145,58,91,88,90
2025-02-26 14:37:06.288,-179.0,-109.0,254.0,-84.0,84.0,223.0,148,56,91,93,91
2025-02-26 14:37:06.293,-238.0,-2.0,220.0,-125.0,86.0,216.0,145,56,90,91,90
2025-02-26 14:37:06.298,-355.0,30.0,188.0,-163.0,77.0,207.0,147,57,90,92,90
2025-02-26 14:37:06.304,-484.0,124.0,240.0,-167.0,61.0,196.0,144,56,90,91,90
2025-02-26 14:37:06.309,-520.0,83.0,169.0,-178.0,52.0,188.0,145,57,90,92,90
2025-02-26 14:37:06.314,-590.0,67.0,144.0,-179.0,38.0,176.0,145,58,92,93,90
2025-02-26 14:37:06.316,-633.0,20.0,81.0,-178.0,37.0,164.0,143,55,92,93,92
2025-02-26 14:37:06.322,-672.0,40.0,-3.0,-165.0,42.0,151.0,142,54,89,93,89
2025-02-26 14:37:06.328,-711.0,33.0,-36.0,-153.0,51.0,145.0,144,58,92,94,90
2025-02-26 14:37:06.334,-725.0,-20.0,-135.0,-143.0,59.0,131.0,142,57,91,95,90
2025-02-26 14:37:06.338,-751.0,-11.0,-198.0,-123.0,60.0,114.0,141,56,89,92,89
2025-02-26 14:37:06.342,-769.0,-30.0,-240.0,-104.0,58.0,105.0,142,60,90,95,90
2025-02-26 14:37:06.350,-820.0,-79.0,-233.0,-85.0,59.0,88.0,143,58,92,96,89
2025-02-26 14:37:06.354,-854.0,-149.0,-228.0,-79.0,60.0,73.0,142,57,88,94,89
2025-02-26 14:37:06.358,-855.0,-122.0,-220.0,-71.0,61.0,68.0,143,59,91,94,87
2025-02-26 14:37:06.362,-886.0,-93.0,-188.0,-60.0,62.0,57.0,141,58,90,95,88
2025-02-26 14:37:06.367,-845.0,-96.0,-142.0,-55.0,66.0,49.0,144,59,92,96,90
2025-02-26 14:37:06.374,-807.0,-55.0,-151.0,-49.0,65.0,41.0,141,59,91,96,88
2025-02-26 14:37:06.378,-797.0,-62.0,-149.0,-38.0,59.0,37.0,141,59,91,96,88
2025-02-26 14:37:06.383,-790.0,-17.0,-137.0,-35.0,52.0,30.0,142,57,88,96,88
2025-02-26 14:37:06.387,-783.0,81.0,-109.0,-33.0,50.0,24.0,142,58,89,96,87
2025-02-26 14:37:06.391,-763.0,99.0,-104.0,-29.0,45.0,20.0,141,59,90,96,87
2025-02-26 14:37:06.399,-733.0,151.0,-91.0,-26.0,40.0,15.0,143,58,90,96,87
2025-02-26 14:37:06.402,-722.0,176.0,-61.0,-18.0,39.0,7.0,140,55,89,96,87
2025-02-26 14:37:06.407,-692.0,185.0,-75.0,-14.0,39.0,3.0,142,58,90,98,88
2025-02-26 14:37:06.412,-679.0,219.0,-103.0,-8.0,42.0,-7.0,140,57,90,97,87
2025-02-26 14:37:06.416,-704.0,272.0,-32.0,1.0,45.0,-17.0,139,57,91,97,87
2025-02-26 14:37:06.424,-746.0,284.0,-24.0,10.0,53.0,-23.0,141,56,91,96,87
2025-02-26 14:37:06.428,-781.0,335.0,-28.0,15.0,60.0,-32.0,140,58,91,98,88
2025-02-26 14:37:06.432,-811.0,420.0,0.0,32.0,64.0,-42.0,138,56,90,94,86
2025-02-26 14:37:06.436,-852.0,442.0,23.0,50.0,70.0,-46.0,140,56,91,96,88
2025-02-26 14:37:06.440,-911.0,512.0,38.0,58.0,74.0,-55.0,140,55,90,96,86
2025-02-26 14:37:06.444,-943.0,691.0,68.0,67.0,77.0,-65.0,138,56,91,96,87
2025-02-26 14:37:06.450,-1020.0,708.0,109.0,82.0,81.0,-73.0,138,56,90,97,87
2025-02-26 14:37:06.456,-1022.0,807.0,163.0,86.0,93.0,-95.0,136,57,91,95,88
2025-02-26 14:37:06.461,-1029.0,975.0,284.0,100.0,99.0,-122.0,134,57,91,91,87
2025-02-26 14:37:06.465,-825.0,1078.0,127.0,129.0,93.0,-141.0,135,58,92,95,90
2025-02-26 14:37:06.472,-714.0,1266.0,11.0,158.0,87.0,-188.0,132,57,93,91,90
2025-02-26 14:37:06.477,-662.0,1459.0,-90.0,199.0,92.0,-239.0,128,55,92,87,87
2025-02-26 14:37:06.481,-721.0,1505.0,-64.0,221.0,115.0,-266.0,126,55,90,85,85
2025-02-26 14:37:06.486,-704.0,1617.0,-201.0,243.0,127.0,-330.0,123,54,89,79,80
2025-02-26 14:37:06.493,-680.0,1479.0,-221.0,255.0,130.0,-400.0,119,54,86,79,79
2025-02-26 14:37:06.498,-440.0,1379.0,-162.0,291.0,131.0,-434.0,114,56,88,79,76
2025-02-26 14:37:06.502,15.0,1222.0,-298.0,338.0,102.0,-512.0,111,54,89,79,77
2025-02-26 14:37:06.510,174.0,1028.0,-387.0,381.0,58.0,-593.0,109,56,90,82,80
2025-02-26 14:37:06.513,384.0,614.0,-183.0,397.0,45.0,-658.0,108,53,89,80,76
2025-02-26 14:37:06.518,622.0,456.0,249.0,420.0,17.0,-679.0,106,54,88,79,75
2025-02-26 14:37:06.523,1397.0,-62.0,493.0,472.0,-17.0,-692.0,105,55,90,81,76
2025-02-26 14:37:06.531,2313.0,-1040.0,1070.0,499.0,-18.0,-654.0,106,56,90,81,78
2025-02-26 14:37:06.535,2809.0,-2294.0,1582.0,559.0,-11.0,-558.0,102,53,89,83,77
2025-02-26 14:37:06.539,3369.0,-3707.0,1940.0,571.0,24.0,-422.0,101,55,90,81,74
2025-02-26 14:37:06.543,3552.0,-4398.0,2140.0,556.0,68.0,-348.0,98,55,89,82,74
2025-02-26 14:37:06.551,3666.0,-5518.0,2220.0,533.0,97.0,-181.0,102,57,87,85,75
2025-02-26 14:37:06.555,3431.0,-6135.0,2318.0,519.0,108.0,-30.0,101,55,81,84,73
2025-02-26 14:37:06.560,3301.0,-6057.0,2325.0,455.0,114.0,107.0,100,55,76,83,70
2025-02-26 14:37:06.567,2713.0,-4901.0,2220.0,345.0,100.0,158.0,100,55,74,83,70
2025-02-26 14:37:06.571,1942.0,-3974.0,2092.0,173.0,68.0,224.0,101,55,72,82,71
2025-02-26 14:37:06.575,1286.0,-2072.0,1994.0,-18.0,9.0,237.0,103,56,71,80,69
2025-02-26 14:37:06.580,901.0,-854.0,1791.0,-112.0,-30.0,202.0,100,57,76,82,68
2025-02-26 14:37:06.588,786.0,-373.0,1443.0,-286.0,-53.0,147.0,100,55,76,81,68
2025-02-26 14:37:06.592,671.0,-428.0,1038.0,-402.0,-71.0,121.0,102,57,79,81,68
2025-02-26 14:37:06.596,498.0,-967.0,814.0,-446.0,-93.0,81.0,101,57,77,82,69
2025-02-26 14:37:06.600,567.0,-1644.0,498.0,-442.0,-98.0,60.0,101,56,80,85,66
2025-02-26 14:37:06.608,601.0,-2199.0,321.0,-401.0,-98.0,66.0,103,56,77,83,68
2025-02-26 14:37:06.612,654.0,-2402.0,277.0,-343.0,-88.0,77.0,103,57,76,87,70
2025-02-26 14:37:06.617,676.0,-2545.0,261.0,-285.0,-70.0,108.0,103,57,76,87,70
2025-02-26 14:37:06.625,583.0,-2500.0,215.0,-252.0,-64.0,141.0,101,58,75,87,69
2025-02-26 14:37:06.629,541.0,-2309.0,221.0,-200.0,-65.0,171.0,104,57,77,88,71
2025-02-26 14:37:06.633,472.0,-2198.0,264.0,-157.0,-72.0,184.0,105,58,81,88,72
2025-02-26 14:37:06.637,479.0,-1913.0,313.0,-131.0,-79.0,206.0,103,58,82,86,73
2025-02-26 14:37:06.644,456.0,-1647.0,403.0,-125.0,-78.0,225.0,104,58,84,87,74
2025-02-26 14:37:06.649,537.0,-1423.0,480.0,-117.0,-81.0,240.0,103,59,84,86,74
2025-02-26 14:37:06.653,412.0,-1330.0,585.0,-113.0,-81.0,244.0,104,57,83,84,75
2025-02-26 14:37:06.657,396.0,-1142.0,604.0,-115.0,-77.0,250.0,104,58,86,86,76
2025-02-26 14:37:06.665,296.0,-973.0,685.0,-113.0,-87.0,248.0,106,58,87,86,76
2025-02-26 14:37:06.670,305.0,-861.0,660.0,-120.0,-75.0,248.0,104,57,87,85,77
2025-02-26 14:37:06.674,226.0,-754.0,694.0,-134.0,-58.0,246.0,107,56,88,82,77
2025-02-26 14:37:06.681,101.0,-684.0,623.0,-138.0,-61.0,239.0,105,59,88,83,78
2025-02-26 14:37:06.686,37.0,-584.0,564.0,-141.0,-64.0,228.0,106,56,86,83,79
2025-02-26 14:37:06.690,-30.0,-388.0,497.0,-149.0,-61.0,218.0,105,57,86,84,78
2025-02-26 14:37:06.695,-132.0,-358.0,444.0,-155.0,-65.0,210.0,108,58,87,83,80
2025-02-26 14:37:06.705,-183.0,-252.0,397.0,-159.0,-62.0,196.0,106,58,85,77,79
2025-02-26 14:37:06.707,-257.0,-209.0,349.0,-162.0,-51.0,186.0,106,58,88,82,79
2025-02-26 14:37:06.711,-314.0,-232.0,318.0,-169.0,-48.0,178.0,107,57,87,83,80
2025-02-26 14:37:06.715,-376.0,-265.0,339.0,-173.0,-51.0,173.0,106,57,85,81,80
