timestamp,ax,ay,az,gx,gy,gz,flex1,flex2,flex3,flex4,flex5,emg1,emg2,emg3
2025-02-20 16:10:50.747,-348.0,-122.0,962.0,1.0,-2.0,-1.0,126,113,98,124,111,463,463,462
2025-02-20 16:10:50.762,-350.0,-115.0,965.0,0.0,-2.0,-1.0,128,112,96,123,112,463,461,464
2025-02-20 16:10:50.764,-363.0,-118.0,949.0,1.0,-2.0,-2.0,129,113,98,125,111,464,461,463
2025-02-20 16:10:50.767,-339.0,-114.0,971.0,-1.0,0.0,-2.0,127,114,99,125,111,464,460,465
2025-02-20 16:10:50.769,-346.0,-120.0,950.0,0.0,0.0,-2.0,127,113,98,124,112,463,459,464
2025-02-20 16:10:50.772,-346.0,-120.0,938.0,0.0,0.0,-1.0,127,114,100,124,111,463,460,465
2025-02-20 16:10:50.781,-343.0,-125.0,941.0,-1.0,-1.0,-1.0,127,113,97,125,111,461,460,465
2025-02-20 16:10:50.799,-343.0,-128.0,944.0,0.0,-2.0,-1.0,126,112,99,125,111,463,461,465
2025-02-20 16:10:50.818,-340.0,-122.0,947.0,1.0,-2.0,-1.0,128,113,98,124,111,464,461,465
2025-02-20 16:10:50.836,-340.0,-111.0,965.0,0.0,-3.0,-1.0,127,113,96,125,112,463,462,464
2025-02-20 16:10:50.857,-339.0,-117.0,971.0,-1.0,-2.0,-2.0,128,115,99,125,111,464,464,463
2025-02-20 16:10:50.877,-338.0,-124.0,965.0,0.0,-1.0,-2.0,128,113,98,124,111,465,465,463
2025-02-20 16:10:50.897,-344.0,-127.0,961.0,0.0,-1.0,-1.0,127,113,99,125,111,465,465,462
2025-02-20 16:10:50.914,-340.0,-121.0,961.0,-1.0,-1.0,0.0,128,113,99,125,111,465,468,461
2025-02-20 16:10:50.934,-337.0,-118.0,962.0,-1.0,-1.0,-1.0,127,112,98,125,112,464,467,461
2025-02-20 16:10:50.951,-344.0,-115.0,957.0,-1.0,-1.0,0.0,129,113,98,124,112,466,466,463
2025-02-20 16:10:50.970,-344.0,-108.0,956.0,0.0,-1.0,0.0,128,114,99,124,111,466,467,461
2025-02-20 16:10:50.989,-347.0,-109.0,959.0,0.0,-2.0,-1.0,127,112,98,125,112,465,466,462
2025-02-20 16:10:51.011,-345.0,-106.0,964.0,-1.0,-1.0,-1.0,128,112,99,125,111,465,464,462
2025-02-20 16:10:51.028,-345.0,-112.0,956.0,0.0,-1.0,-1.0,127,113,97,125,112,464,465,463
2025-02-20 16:10:51.048,-348.0,-106.0,952.0,2.0,-1.0,-1.0,127,113,99,125,111,463,463,464
2025-02-20 16:10:51.065,-347.0,-102.0,950.0,2.0,-2.0,-2.0,127,112,98,124,112,464,461,464
2025-02-20 16:10:51.085,-343.0,-105.0,957.0,2.0,-2.0,-2.0,127,113,99,125,112,465,461,465
2025-02-20 16:10:51.105,-336.0,-108.0,957.0,2.0,-2.0,-2.0,127,113,98,124,112,463,461,465
2025-02-20 16:10:51.121,-340.0,-113.0,948.0,1.0,-2.0,-2.0,128,113,99,126,111,460,460,465
2025-02-20 16:10:51.141,-340.0,-122.0,954.0,1.0,-3.0,-2.0,127,113,99,125,111,462,461,465
2025-02-20 16:10:51.162,-339.0,-116.0,958.0,2.0,-3.0,-1.0,127,113,98,125,111,461,461,465
2025-02-20 16:10:51.177,-334.0,-109.0,961.0,2.0,-3.0,-2.0,128,112,98,125,112,463,461,465
2025-02-20 16:10:51.200,-334.0,-117.0,955.0,2.0,-3.0,-1.0,127,113,99,125,112,464,462,464
2025-02-20 16:10:51.219,-336.0,-120.0,961.0,2.0,-3.0,-1.0,129,113,99,125,112,463,462,464
2025-02-20 16:10:51.237,-340.0,-121.0,964.0,3.0,-4.0,0.0,128,113,98,125,111,464,464,463
2025-02-20 16:10:51.256,-335.0,-105.0,980.0,1.0,-2.0,0.0,127,113,99,125,111,464,464,462
2025-02-20 16:10:51.274,-332.0,-95.0,969.0,-2.0,0.0,-1.0,127,113,99,125,111,464,464,460
2025-02-20 16:10:51.292,-330.0,-100.0,947.0,-3.0,-2.0,-2.0,127,114,99,124,111,467,466,462
2025-02-20 16:10:51.315,-339.0,-109.0,936.0,-3.0,-3.0,-1.0,127,113,99,124,111,466,466,462
2025-02-20 16:10:51.331,-336.0,-118.0,936.0,-1.0,-6.0,0.0,127,114,99,125,111,466,465,461
2025-02-20 16:10:51.351,-326.0,-122.0,964.0,1.0,-7.0,0.0,128,113,99,126,112,465,465,462
2025-02-20 16:10:51.372,-319.0,-110.0,994.0,3.0,-6.0,1.0,128,113,98,124,112,465,464,462
2025-02-20 16:10:51.389,-322.0,-99.0,1004.0,3.0,-3.0,0.0,128,113,98,125,107,466,464,462
2025-02-20 16:10:51.409,-332.0,-97.0,992.0,3.0,-2.0,1.0,127,113,99,127,111,463,464,462
2025-02-20 16:10:51.429,-336.0,-94.0,991.0,2.0,-3.0,2.0,128,113,98,125,112,463,462,462
2025-02-20 16:10:51.446,-336.0,-90.0,1002.0,3.0,-2.0,1.0,128,113,99,125,112,464,462,464
2025-02-20 16:10:51.466,-335.0,-88.0,1012.0,3.0,-1.0,2.0,127,112,99,125,112,467,461,464
2025-02-20 16:10:51.483,-329.0,-96.0,1004.0,0.0,0.0,1.0,127,112,98,124,112,463,459,465
2025-02-20 16:10:51.503,-335.0,-89.0,991.0,-2.0,1.0,0.0,127,112,98,124,111,462,458,464
2025-02-20 16:10:51.523,-337.0,-90.0,982.0,-1.0,2.0,0.0,127,113,100,124,111,462,458,464
2025-02-20 16:10:51.540,-338.0,-89.0,973.0,-1.0,3.0,0.0,128,113,99,124,111,460,458,464
2025-02-20 16:10:51.554,-338.0,-88.0,956.0,-3.0,4.0,-1.0,128,113,99,125,111,461,458,463
2025-02-20 16:10:51.581,-334.0,-100.0,933.0,-4.0,2.0,-1.0,128,113,98,126,111,462,459,463
2025-02-20 16:10:51.597,-331.0,-113.0,938.0,-3.0,2.0,-1.0,128,113,101,125,111,462,460,463
2025-02-20 16:10:51.618,-335.0,-117.0,936.0,-1.0,0.0,-1.0,127,113,96,125,114,463,462,462
2025-02-20 16:10:51.638,-340.0,-95.0,951.0,-2.0,-1.0,-1.0,127,113,97,124,111,463,463,462
2025-02-20 16:10:51.655,-327.0,-95.0,967.0,-4.0,-1.0,-1.0,129,113,98,126,111,462,464,462
2025-02-20 16:10:51.661,-328.0,-108.0,962.0,-4.0,0.0,-2.0,127,113,99,124,112,464,464,461
2025-02-20 16:10:51.695,-326.0,-117.0,955.0,-1.0,-1.0,-2.0,128,113,98,125,111,464,464,460
2025-02-20 16:10:51.712,-325.0,-114.0,959.0,1.0,-1.0,-1.0,129,112,99,125,111,462,464,461
2025-02-20 16:10:51.732,-318.0,-107.0,971.0,-1.0,-1.0,-1.0,127,113,98,125,111,461,464,460
2025-02-20 16:10:51.749,-326.0,-112.0,973.0,-1.0,-1.0,-1.0,127,112,98,125,112,461,462,460
2025-02-20 16:10:51.770,-330.0,-109.0,971.0,0.0,-1.0,0.0,127,113,98,125,111,460,461,458
2025-02-20 16:10:51.790,-328.0,-107.0,969.0,-1.0,-1.0,0.0,125,112,99,125,111,460,460,458
2025-02-20 16:10:51.807,-341.0,-105.0,965.0,-1.0,-2.0,1.0,128,112,99,125,112,459,458,458
2025-02-20 16:10:51.812,-340.0,-94.0,975.0,-1.0,-1.0,0.0,128,113,98,125,111,458,456,458
2025-02-20 16:10:51.846,-340.0,-95.0,964.0,-1.0,-1.0,0.0,129,112,98,125,111,456,455,458
2025-02-20 16:10:51.861,-341.0,-95.0,967.0,-1.0,-2.0,0.0,128,111,98,121,111,454,453,458
2025-02-20 16:10:51.884,-336.0,-95.0,970.0,0.0,-1.0,-1.0,127,113,98,125,111,455,453,458
2025-02-20 16:10:51.891,-334.0,-97.0,971.0,1.0,-1.0,-1.0,127,113,98,125,111,453,452,457
2025-02-20 16:10:51.921,-340.0,-90.0,971.0,-1.0,-1.0,-1.0,127,112,103,125,111,452,453,456
2025-02-20 16:10:51.927,-339.0,-97.0,967.0,-2.0,-2.0,-1.0,128,112,98,124,112,452,453,456
2025-02-20 16:10:51.958,-341.0,-105.0,964.0,-1.0,-2.0,-1.0,127,112,98,125,111,451,455,455
2025-02-20 16:10:51.979,-329.0,-106.0,967.0,1.0,0.0,0.0,127,112,99,125,111,449,456,454
2025-02-20 16:10:51.995,-337.0,-104.0,961.0,1.0,-1.0,0.0,129,113,98,126,111,448,457,453
2025-02-20 16:10:52.015,-332.0,-99.0,966.0,0.0,-2.0,-1.0,127,113,98,125,111,449,457,453
2025-02-20 16:10:52.036,-328.0,-101.0,968.0,1.0,-1.0,0.0,127,113,98,125,111,448,458,452
2025-02-20 16:10:52.055,-329.0,-100.0,964.0,1.0,-1.0,0.0,127,112,98,125,111,447,459,451
2025-02-20 16:10:52.073,-327.0,-96.0,959.0,1.0,-1.0,-1.0,129,113,98,126,111,446,460,451
2025-02-20 16:10:52.093,-326.0,-102.0,961.0,0.0,-1.0,-1.0,128,112,99,124,111,447,459,451
2025-02-20 16:10:52.113,-327.0,-105.0,956.0,-1.0,-1.0,0.0,127,113,99,125,111,444,458,452
2025-02-20 16:10:52.130,-325.0,-108.0,958.0,-1.0,-2.0,0.0,128,114,98,125,111,443,457,452
2025-02-20 16:10:52.148,-321.0,-110.0,952.0,-3.0,-2.0,0.0,128,113,98,125,111,444,458,453
2025-02-20 16:10:52.156,-321.0,-107.0,938.0,-2.0,-2.0,1.0,128,113,98,125,112,442,457,454
2025-02-20 16:10:52.187,-318.0,-97.0,928.0,-2.0,-2.0,1.0,128,113,98,124,111,440,456,455
2025-02-20 16:10:52.208,-326.0,-85.0,927.0,-2.0,-4.0,1.0,127,112,99,125,111,440,456,455
2025-02-20 16:10:52.225,-324.0,-76.0,914.0,-3.0,-6.0,0.0,127,114,98,125,111,441,455,457
2025-02-20 16:10:52.245,-334.0,-65.0,923.0,-3.0,-8.0,2.0,128,113,98,126,111,441,453,458
2025-02-20 16:10:52.265,-382.0,1.0,864.0,-2.0,-16.0,0.0,127,112,97,125,111,440,454,458
2025-02-20 16:10:52.282,-418.0,57.0,723.0,-4.0,-34.0,-11.0,128,112,97,125,113,441,452,458
2025-02-20 16:10:52.302,-469.0,28.0,696.0,2.0,-58.0,-23.0,127,110,96,123,111,444,455,459
2025-02-20 16:10:52.321,-531.0,-44.0,679.0,-4.0,-97.0,-19.0,127,105,91,121,108,446,457,460
2025-02-20 16:10:52.340,-443.0,-151.0,782.0,-8.0,-163.0,-14.0,127,101,88,122,101,452,457,459
2025-02-20 16:10:52.349,-307.0,-263.0,1133.0,2.0,-200.0,-4.0,126,96,82,117,91,452,457,459
2025-02-20 16:10:52.377,164.0,-336.0,1715.0,-19.0,-188.0,33.0,127,92,77,113,82,446,457,455
2025-02-20 16:10:52.396,410.0,-428.0,2366.0,-78.0,-77.0,77.0,128,86,74,108,74,438,455,454
2025-02-20 16:10:52.414,563.0,-516.0,2454.0,-126.0,83.0,95.0,127,76,67,100,69,447,455,462
2025-02-20 16:10:52.430,474.0,-413.0,2240.0,-153.0,195.0,95.0,127,65,60,88,63,454,473,466
2025-02-20 16:10:52.454,293.0,-321.0,1830.0,-161.0,266.0,87.0,126,60,54,79,59,458,477,466
2025-02-20 16:10:52.474,31.0,-276.0,1431.0,-183.0,281.0,82.0,122,57,50,73,55,449,472,460
2025-02-20 16:10:52.490,-134.0,-395.0,1103.0,-253.0,259.0,102.0,118,56,49,67,52,411,458,453
2025-02-20 16:10:52.511,-223.0,-413.0,755.0,-257.0,224.0,104.0,114,53,46,63,51,396,457,455
2025-02-20 16:10:52.528,-23.0,-506.0,680.0,-245.0,231.0,121.0,105,53,46,60,47,408,465,467
2025-02-20 16:10:52.546,-274.0,-403.0,483.0,-210.0,245.0,140.0,99,51,47,58,47,444,474,491
2025-02-20 16:10:52.568,-408.0,-235.0,320.0,-149.0,227.0,133.0,96,52,45,58,47,469,461,509
2025-02-20 16:10:52.589,-413.0,-34.0,320.0,-116.0,219.0,118.0,95,52,46,59,47,467,445,512
2025-02-20 16:10:52.605,-435.0,90.0,332.0,-100.0,201.0,104.0,94,53,46,60,47,476,443,507
2025-02-20 16:10:52.624,-514.0,259.0,173.0,-87.0,191.0,82.0,92,53,46,58,47,502,441,500
2025-02-20 16:10:52.642,-564.0,633.0,11.0,-62.0,169.0,43.0,93,53,47,59,47,486,465,490
2025-02-20 16:10:52.662,-540.0,992.0,-222.0,-54.0,149.0,2.0,92,53,44,58,47,492,476,484
2025-02-20 16:10:52.683,-692.0,1384.0,-691.0,-35.0,93.0,-67.0,89,52,44,58,47,524,486,473
2025-02-20 16:10:52.698,-747.0,1668.0,-1412.0,26.0,28.0,-152.0,89,54,46,58,46,539,484,469
2025-02-20 16:10:52.720,-1104.0,1825.0,-1954.0,138.0,-88.0,-348.0,87,52,46,58,46,523,486,473
2025-02-20 16:10:52.740,-1310.0,2110.0,-2458.0,155.0,-396.0,-550.0,87,53,45,58,47,461,500,459
2025-02-20 16:10:52.757,-31.0,1694.0,-2598.0,128.0,-762.0,-737.0,87,52,45,60,49,415,496,454
2025-02-20 16:10:52.777,4126.0,-308.0,-519.0,204.0,-959.0,-636.0,88,52,44,64,51,456,472,452
2025-02-20 16:10:52.794,5542.0,-4573.0,4877.0,352.0,-191.0,-244.0,88,54,46,65,52,444,456,463
2025-02-20 16:10:52.814,2104.0,-2730.0,3186.0,538.0,157.0,-152.0,89,54,46,60,49,376,443,451
2025-02-20 16:10:52.834,915.0,-811.0,3289.0,135.0,161.0,7.0,90,54,46,60,47,331,444,434
2025-02-20 16:10:52.851,399.0,-909.0,2057.0,-269.0,86.0,59.0,89,54,46,62,47,367,474,435
2025-02-20 16:10:52.871,388.0,-1859.0,1416.0,-303.0,71.0,96.0,90,55,47,66,50,370,503,446
2025-02-20 16:10:52.891,242.0,-1944.0,915.0,-179.0,113.0,153.0,90,54,48,66,51,364,501,472
2025-02-20 16:10:52.908,37.0,-1314.0,751.0,-52.0,151.0,201.0,90,55,49,63,52,449,381,483
2025-02-20 16:10:52.929,-153.0,-669.0,637.0,-38.0,159.0,200.0,90,55,50,68,54,542,396,521
2025-02-20 16:10:52.949,-304.0,-399.0,511.0,-87.0,116.0,171.0,92,56,49,66,55,488,432,505
2025-02-20 16:10:52.966,-220.0,-538.0,515.0,-103.0,81.0,154.0,92,56,49,63,53,474,458,497
2025-02-20 16:10:52.986,-142.0,-521.0,578.0,-106.0,100.0,153.0,91,56,49,63,54,474,445,488
2025-02-20 16:10:53.006,-257.0,-371.0,443.0,-117.0,112.0,150.0,91,56,50,63,54,495,439,485
2025-02-20 16:10:53.023,-155.0,-360.0,401.0,-118.0,126.0,156.0,91,56,50,65,54,484,453,483
2025-02-20 16:10:53.043,-434.0,-434.0,189.0,-87.0,97.0,155.0,92,56,50,63,54,411,471,479
2025-02-20 16:10:53.060,-307.0,-405.0,173.0,-26.0,93.0,150.0,92,56,50,63,55,456,485,474
2025-02-20 16:10:53.080,-237.0,-256.0,207.0,42.0,96.0,146.0,92,56,50,63,55,502,489,466
2025-02-20 16:10:53.098,-232.0,74.0,178.0,62.0,122.0,171.0,94,56,50,63,56,574,476,470
2025-02-20 16:10:53.118,-589.0,832.0,-287.0,57.0,86.0,166.0,94,56,51,64,57,560,451,470
2025-02-20 16:10:53.138,-935.0,1402.0,-631.0,75.0,5.0,76.0,93,59,51,65,56,519,416,466
2025-02-20 16:10:53.157,-992.0,2002.0,-839.0,134.0,-34.0,-121.0,92,57,52,64,56,530,441,465
2025-02-20 16:10:53.170,-1133.0,2028.0,-1064.0,139.0,-121.0,-376.0,92,58,53,64,56,537,466,473
2025-02-20 16:10:53.194,-1021.0,1256.0,-1142.0,103.0,-335.0,-559.0,93,58,52,65,56,515,468,474
2025-02-20 16:10:53.215,442.0,127.0,-960.0,98.0,-641.0,-657.0,94,57,51,67,58,465,407,462
2025-02-20 16:10:53.229,3909.0,-1938.0,1359.0,162.0,-805.0,-506.0,98,59,50,71,62,456,407,455
2025-02-20 16:10:53.252,4208.0,-4732.0,4785.0,173.0,-184.0,-14.0,99,59,51,73,62,437,435,464
2025-02-20 16:10:53.272,1885.0,-2205.0,3245.0,46.0,229.0,115.0,98,59,51,70,59,402,442,467
2025-02-20 16:10:53.289,478.0,-821.0,1741.0,-153.0,157.0,73.0,98,59,53,69,54,352,496,471
2025-02-20 16:10:53.309,81.0,-1310.0,728.0,-348.0,105.0,128.0,98,60,53,70,55,386,512,457
2025-02-20 16:10:53.327,-123.0,-1656.0,414.0,-322.0,44.0,170.0,98,60,52,71,59,502,529,445
2025-02-20 16:10:53.345,32.0,-1525.0,561.0,-221.0,50.0,213.0,98,60,53,72,60,473,518,451
2025-02-20 16:10:53.366,25.0,-1112.0,582.0,-135.0,100.0,227.0,100,61,54,71,62,454,518,481
2025-02-20 16:10:53.382,-238.0,-638.0,442.0,-109.0,110.0,206.0,101,61,54,70,63,461,540,490
2025-02-20 16:10:53.403,-305.0,-453.0,422.0,-98.0,88.0,173.0,102,61,55,69,64,496,545,487
2025-02-20 16:10:53.424,-263.0,-424.0,396.0,-120.0,87.0,176.0,103,61,55,68,63,494,506,475
2025-02-20 16:10:53.441,-216.0,-430.0,401.0,-143.0,98.0,194.0,105,61,54,68,63,517,487,467
2025-02-20 16:10:53.461,-288.0,-264.0,226.0,-130.0,111.0,198.0,105,60,55,68,63,532,483,460
2025-02-20 16:10:53.480,-322.0,-198.0,103.0,-72.0,121.0,170.0,108,60,56,68,64,520,483,438
2025-02-20 16:10:53.498,-339.0,-101.0,102.0,12.0,119.0,150.0,110,60,56,67,62,514,474,444
2025-02-20 16:10:53.516,-267.0,201.0,21.0,58.0,119.0,171.0,111,60,57,67,64,535,441,450
2025-02-20 16:10:53.536,-689.0,891.0,-138.0,89.0,104.0,161.0,112,61,57,66,64,544,435,449
2025-02-20 16:10:53.552,-846.0,2045.0,-464.0,258.0,101.0,-29.0,115,60,56,67,63,481,449,452
2025-02-20 16:10:53.576,-1452.0,3250.0,-1117.0,355.0,-29.0,-380.0,121,57,55,68,57,445,451,450
2025-02-20 16:10:53.596,-1403.0,2748.0,-1812.0,168.0,-199.0,-655.0,125,54,51,70,52,394,469,451
2025-02-20 16:10:53.613,-73.0,1700.0,-2344.0,-29.0,-631.0,-830.0,128,52,51,69,54,453,452,447
2025-02-20 16:10:53.633,3927.0,-773.0,-1647.0,-168.0,-1014.0,-702.0,137,51,50,71,58,531,451,467
2025-02-20 16:10:53.650,6074.0,-5127.0,3484.0,-106.0,-661.0,-329.0,142,52,49,72,59,450,447,476
2025-02-20 16:10:53.670,4072.0,-5889.0,2124.0,84.0,163.0,-123.0,143,52,49,74,59,388,436,462
2025-02-20 16:10:53.690,1434.0,-2519.0,-215.0,166.0,292.0,11.0,143,50,47,65,53,360,446,467
2025-02-20 16:10:53.708,-99.0,-1416.0,-631.0,-100.0,-33.0,121.0,143,49,48,64,51,432,510,470
2025-02-20 16:10:53.728,446.0,-1545.0,110.0,-184.0,-104.0,150.0,143,49,48,67,53,423,525,456
2025-02-20 16:10:53.747,872.0,-2214.0,828.0,-40.0,20.0,167.0,142,52,49,71,55,427,466,468
2025-02-20 16:10:53.765,693.0,-1492.0,691.0,73.0,145.0,193.0,143,52,50,72,55,471,425,487
2025-02-20 16:10:53.784,316.0,-880.0,154.0,63.0,133.0,229.0,143,54,48,71,56,527,446,485
2025-02-20 16:10:53.801,59.0,-590.0,150.0,15.0,63.0,195.0,142,54,52,71,57,544,453,477
2025-02-20 16:10:53.822,81.0,-661.0,376.0,-28.0,48.0,174.0,142,54,52,70,58,547,458,469
2025-02-20 16:10:53.841,54.0,-853.0,421.0,-60.0,81.0,210.0,142,56,53,68,57,543,446,456
2025-02-20 16:10:53.858,-111.0,-717.0,240.0,-70.0,72.0,235.0,141,54,52,65,59,488,413,462
2025-02-20 16:10:53.879,-138.0,-444.0,230.0,-46.0,53.0,245.0,140,55,52,66,57,415,456,460
2025-02-20 16:10:53.899,-151.0,-28.0,396.0,33.0,66.0,152.0,139,53,52,66,57,437,482,463
2025-02-20 16:10:53.916,-126.0,-286.0,397.0,39.0,115.0,146.0,137,55,51,65,56,442,477,464
2025-02-20 16:10:53.936,-285.0,-189.0,243.0,36.0,140.0,166.0,138,56,50,66,56,470,464,469
2025-02-20 16:10:53.953,-563.0,-46.0,8.0,52.0,97.0,181.0,138,55,52,65,56,471,459,472
2025-02-20 16:10:53.973,-693.0,742.0,106.0,169.0,66.0,89.0,136,56,53,65,58,496,471,472
2025-02-20 16:10:53.994,-812.0,1575.0,-4.0,260.0,118.0,-76.0,137,55,53,67,59,537,474,473
2025-02-20 16:10:54.010,-1559.0,2858.0,-782.0,162.0,53.0,-364.0,135,55,53,68,57,526,475,461
2025-02-20 16:10:54.031,-1444.0,2508.0,-1493.0,-27.0,-247.0,-646.0,134,55,53,68,57,466,480,454
2025-02-20 16:10:54.050,252.0,1760.0,-2030.0,-219.0,-609.0,-780.0,133,56,53,70,58,450,491,456
2025-02-20 16:10:54.068,4035.0,-2148.0,-836.0,-394.0,-800.0,-558.0,136,55,54,74,60,420,486,459
2025-02-20 16:10:54.088,5683.0,-5620.0,2355.0,-262.0,-236.0,-213.0,136,55,52,77,61,457,384,458
2025-02-20 16:10:54.107,3021.0,-5686.0,32.0,175.0,254.0,-18.0,136,53,51,77,58,440,412,460
2025-02-20 16:10:54.125,592.0,-1794.0,-1323.0,104.0,145.0,136.0,134,50,51,67,55,357,467,454
2025-02-20 16:10:54.145,181.0,-1200.0,-551.0,-195.0,-75.0,178.0,136,49,52,64,55,373,500,432
2025-02-20 16:10:54.165,782.0,-2292.0,276.0,-76.0,-61.0,225.0,135,50,52,71,55,409,495,449
2025-02-20 16:10:54.182,599.0,-2293.0,527.0,52.0,86.0,297.0,135,53,53,74,56,474,437,446
2025-02-20 16:10:54.202,353.0,-1283.0,361.0,114.0,179.0,336.0,135,57,53,75,58,535,441,461
2025-02-20 16:10:54.219,130.0,-649.0,226.0,105.0,137.0,336.0,137,57,53,73,59,589,437,475
2025-02-20 16:10:54.239,200.0,-353.0,364.0,43.0,159.0,325.0,137,58,55,70,62,598,449,466
2025-02-20 16:10:54.259,121.0,-418.0,430.0,11.0,174.0,308.0,136,58,55,70,62,583,452,469
2025-02-20 16:10:54.274,-52.0,-515.0,219.0,46.0,157.0,284.0,137,60,57,71,62,600,462,470
2025-02-20 16:10:54.297,3.0,-278.0,247.0,40.0,133.0,290.0,137,62,59,71,64,570,455,464
2025-02-20 16:10:54.316,-49.0,6.0,5.0,42.0,167.0,289.0,136,62,63,79,64,493,486,454
2025-02-20 16:10:54.334,-626.0,341.0,-201.0,24.0,143.0,230.0,136,64,68,87,68,482,502,462
2025-02-20 16:10:54.353,-552.0,324.0,-101.0,124.0,79.0,172.0,135,68,70,97,75,501,501,465
2025-02-20 16:10:54.374,-89.0,30.0,-51.0,194.0,106.0,136.0,133,75,77,107,82,516,478,459
2025-02-20 16:10:54.391,-964.0,869.0,-128.0,282.0,77.0,73.0,131,82,78,113,86,520,467,461
2025-02-20 16:10:54.412,-1530.0,2454.0,-881.0,344.0,-44.0,-155.0,130,88,80,115,94,512,460,467
2025-02-20 16:10:54.431,-1251.0,2264.0,-1281.0,373.0,-273.0,-451.0,128,98,85,118,106,481,458,473
2025-02-20 16:10:54.448,-597.0,1179.0,-1129.0,332.0,-417.0,-649.0,125,107,90,122,121,430,471,477
2025-02-20 16:10:54.468,967.0,1373.0,-473.0,-82.0,-593.0,-808.0,129,115,95,127,129,371,471,472
2025-02-20 16:10:54.489,3250.0,-995.0,258.0,-109.0,-1013.0,-607.0,129,120,99,130,132,380,469,481
2025-02-20 16:10:54.503,3860.0,-3311.0,1359.0,-183.0,-849.0,-169.0,131,123,102,133,133,361,429,487
2025-02-20 16:10:54.526,4104.0,-4593.0,1653.0,-76.0,-340.0,125.0,131,125,105,133,134,380,381,483
2025-02-20 16:10:54.543,2792.0,-3271.0,1142.0,-20.0,-32.0,183.0,132,125,105,134,134,350,453,459
2025-02-20 16:10:54.563,1111.0,-1947.0,487.0,-200.0,37.0,121.0,133,117,103,135,134,348,481,452
2025-02-20 16:10:54.583,-85.0,-741.0,448.0,-217.0,152.0,254.0,132,113,104,133,134,374,530,456
2025-02-20 16:10:54.600,-143.0,-1107.0,-1.0,-32.0,34.0,310.0,132,112,101,135,134,397,518,470
2025-02-20 16:10:54.617,-83.0,-1101.0,205.0,129.0,12.0,281.0,131,112,103,133,133,527,482,487
2025-02-20 16:10:54.641,166.0,-1085.0,450.0,117.0,102.0,195.0,130,111,102,134,133,587,451,479
2025-02-20 16:10:54.656,227.0,-763.0,151.0,142.0,225.0,125.0,131,115,104,134,134,490,478,472
2025-02-20 16:10:54.678,307.0,-1099.0,550.0,19.0,167.0,136.0,131,117,103,134,134,439,476,465
2025-02-20 16:10:54.692,60.0,-635.0,645.0,80.0,221.0,157.0,132,118,103,134,134,467,424,458
2025-02-20 16:10:54.715,-196.0,-471.0,530.0,53.0,170.0,201.0,132,120,103,134,135,490,444,466
2025-02-20 16:10:54.734,-60.0,-297.0,344.0,-29.0,73.0,202.0,132,119,103,134,134,497,471,472
2025-02-20 16:10:54.752,-112.0,-486.0,205.0,-82.0,67.0,182.0,131,118,103,134,134,489,440,460
2025-02-20 16:10:54.772,-359.0,-164.0,-17.0,-46.0,50.0,175.0,131,118,103,134,133,489,435,458
2025-02-20 16:10:54.792,-478.0,-49.0,358.0,28.0,37.0,153.0,131,112,102,134,132,510,451,457
2025-02-20 16:10:54.809,-312.0,-14.0,382.0,58.0,25.0,133.0,131,108,101,134,132,524,448,458
2025-02-20 16:10:54.829,-401.0,-40.0,422.0,79.0,54.0,98.0,130,107,101,132,133,558,448,461
2025-02-20 16:10:54.849,-620.0,451.0,369.0,190.0,53.0,71.0,130,105,101,133,132,525,442,455
2025-02-20 16:10:54.866,-1095.0,1466.0,-107.0,270.0,33.0,-56.0,130,107,101,133,133,495,438,445
2025-02-20 16:10:54.887,-1400.0,1391.0,-229.0,317.0,-27.0,-303.0,131,110,102,133,133,480,455,444
2025-02-20 16:10:54.907,-1149.0,1506.0,-641.0,316.0,-131.0,-629.0,130,113,102,133,134,448,467,450
2025-02-20 16:10:54.923,532.0,357.0,-415.0,-25.0,-335.0,-709.0,128,115,102,132,135,420,478,463
2025-02-20 16:10:54.944,2535.0,-977.0,1030.0,43.0,-690.0,-528.0,131,118,103,133,134,442,462,471
2025-02-20 16:10:54.964,3186.0,-4071.0,685.0,-103.0,-630.0,-202.0,132,119,105,135,135,414,426,473
2025-02-20 16:10:54.981,2601.0,-3937.0,1635.0,-21.0,-257.0,54.0,132,118,104,135,135,398,456,465
2025-02-20 16:10:55.001,1781.0,-2568.0,1410.0,-44.0,-84.0,144.0,134,118,103,134,135,296,511,459
2025-02-20 16:10:55.018,808.0,-1652.0,777.0,-144.0,53.0,136.0,136,109,100,134,133,278,517,445
2025-02-20 16:10:55.038,109.0,-983.0,479.0,-110.0,123.0,169.0,135,105,97,132,130,317,523,448
2025-02-20 16:10:55.055,81.0,-923.0,354.0,-15.0,40.0,198.0,135,103,94,131,126,442,518,458
2025-02-20 16:10:55.075,40.0,-1128.0,514.0,27.0,59.0,214.0,134,99,90,131,124,478,480,468
2025-02-20 16:10:55.095,202.0,-1332.0,539.0,76.0,121.0,224.0,135,98,88,129,118,521,446,458
2025-02-20 16:10:55.116,349.0,-1226.0,449.0,43.0,216.0,244.0,135,103,88,125,110,462,420,458
2025-02-20 16:10:55.133,372.0,-805.0,377.0,29.0,187.0,250.0,137,104,87,123,105,433,410,471
2025-02-20 16:10:55.153,104.0,-705.0,509.0,6.0,221.0,235.0,135,105,86,119,100,453,420,482
2025-02-20 16:10:55.169,-107.0,-553.0,356.0,5.0,147.0,249.0,136,103,83,120,93,449,428,485
2025-02-20 16:10:55.188,-115.0,-343.0,354.0,-73.0,99.0,257.0,136,100,84,113,88,486,436,480
2025-02-20 16:10:55.210,-123.0,-330.0,195.0,-82.0,124.0,276.0,137,96,84,112,83,531,474,473
2025-02-20 16:10:55.225,-230.0,-3.0,234.0,24.0,129.0,260.0,136,91,83,113,81,537,484,474
2025-02-20 16:10:55.247,-371.0,147.0,103.0,151.0,148.0,207.0,136,87,83,111,77,531,473,474
2025-02-20 16:10:55.267,-633.0,714.0,58.0,217.0,141.0,128.0,136,85,82,112,76,524,475,472
2025-02-20 16:10:55.284,-816.0,1144.0,127.0,296.0,134.0,32.0,137,81,77,108,75,520,484,466
2025-02-20 16:10:55.304,-995.0,1939.0,-104.0,352.0,129.0,-182.0,136,78,69,103,69,517,489,456
2025-02-20 16:10:55.324,-1317.0,2346.0,-516.0,321.0,-2.0,-469.0,135,73,63,91,60,503,491,443
2025-02-20 16:10:55.340,-1117.0,2315.0,-1516.0,91.0,-289.0,-761.0,133,62,56,79,53,484,486,433
2025-02-20 16:10:55.362,1213.0,1204.0,-1543.0,-159.0,-737.0,-866.0,134,52,50,75,51,437,470,445
2025-02-20 16:10:55.382,4038.0,-2240.0,524.0,-354.0,-875.0,-571.0,137,52,48,74,53,403,434,467
2025-02-20 16:10:55.399,4407.0,-5263.0,1930.0,-456.0,-420.0,-155.0,139,51,47,75,52,365,407,459
2025-02-20 16:10:55.419,2618.0,-5245.0,1234.0,29.0,128.0,26.0,141,47,45,78,50,423,425,467
2025-02-20 16:10:55.436,856.0,-1948.0,-665.0,140.0,188.0,88.0,142,45,46,73,47,326,485,453
2025-02-20 16:10:55.455,-347.0,-504.0,-1065.0,-20.0,-4.0,113.0,140,46,44,71,46,320,520,451
2025-02-20 16:10:55.472,269.0,-1189.0,141.0,-49.0,-82.0,108.0,140,47,44,72,48,427,552,452
2025-02-20 16:10:55.493,660.0,-1873.0,641.0,32.0,-1.0,159.0,141,47,47,73,50,513,520,462
2025-02-20 16:10:55.509,644.0,-1358.0,767.0,102.0,105.0,130.0,142,51,47,77,51,569,475,460
2025-02-20 16:10:55.533,334.0,-1210.0,333.0,92.0,125.0,173.0,141,52,48,73,53,590,446,460
2025-02-20 16:10:55.550,57.0,-944.0,238.0,-7.0,126.0,227.0,141,52,48,70,54,553,452,471
2025-02-20 16:10:55.571,-58.0,-502.0,227.0,-34.0,63.0,247.0,142,53,48,69,52,494,431,470
2025-02-20 16:10:55.587,-49.0,-421.0,333.0,-6.0,55.0,143.0,141,53,48,69,55,518,431,480
2025-02-20 16:10:55.607,-190.0,-644.0,324.0,-55.0,64.0,174.0,141,53,50,66,55,539,443,488
2025-02-20 16:10:55.628,-298.0,-759.0,216.0,-46.0,63.0,203.0,141,52,49,65,54,545,448,490
2025-02-20 16:10:55.645,-385.0,-408.0,215.0,-62.0,44.0,248.0,141,53,49,65,53,525,468,481
2025-02-20 16:10:55.665,56.0,-40.0,580.0,36.0,72.0,137.0,142,53,47,66,53,571,464,471
2025-02-20 16:10:55.685,-205.0,-202.0,500.0,93.0,145.0,139.0,141,52,49,68,53,535,466,465
2025-02-20 16:10:55.702,-769.0,343.0,196.0,158.0,122.0,113.0,142,53,49,66,54,484,470,459
2025-02-20 16:10:55.720,-981.0,1582.0,59.0,222.0,128.0,-41.0,142,54,49,67,55,430,476,453
2025-02-20 16:10:55.742,-1431.0,2486.0,-923.0,180.0,48.0,-270.0,141,55,50,68,53,460,487,445
2025-02-20 16:10:55.759,-1634.0,2197.0,-1662.0,32.0,-238.0,-521.0,140,54,49,71,55,470,491,444
2025-02-20 16:10:55.779,-237.0,1496.0,-2260.0,-201.0,-592.0,-656.0,141,52,50,72,55,460,487,462
2025-02-20 16:10:55.799,3123.0,-1430.0,-661.0,-435.0,-807.0,-530.0,143,52,51,75,55,403,479,472
2025-02-20 16:10:55.816,5133.0,-5109.0,2419.0,-330.0,-214.0,-180.0,141,52,52,80,58,431,446,459
2025-02-20 16:10:55.836,2961.0,-5817.0,614.0,176.0,235.0,-51.0,142,52,49,80,56,420,394,450
2025-02-20 16:10:55.854,871.0,-2024.0,-942.0,184.0,231.0,83.0,142,50,48,76,53,308,444,446
2025-02-20 16:10:55.874,-75.0,-585.0,-709.0,-132.0,37.0,111.0,142,49,50,72,51,339,484,436
2025-02-20 16:10:55.891,101.0,-1904.0,-253.0,-74.0,-65.0,133.0,140,50,50,76,52,410,521,447
2025-02-20 16:10:55.911,390.0,-2108.0,298.0,39.0,7.0,178.0,141,50,50,80,54,387,509,475
2025-02-20 16:10:55.931,457.0,-1447.0,436.0,126.0,94.0,166.0,141,54,53,80,54,469,455,473
2025-02-20 16:10:55.951,353.0,-1205.0,408.0,141.0,157.0,167.0,140,56,56,79,57,538,444,477
2025-02-20 16:10:55.969,248.0,-920.0,266.0,73.0,179.0,186.0,141,58,58,78,57,566,454,473
2025-02-20 16:10:55.988,50.0,-728.0,215.0,8.0,150.0,204.0,140,59,59,75,58,575,444,476
2025-02-20 16:10:56.009,-12.0,-795.0,238.0,-22.0,107.0,217.0,139,64,62,77,59,518,435,483
2025-02-20 16:10:56.025,41.0,-938.0,222.0,-26.0,102.0,262.0,139,67,65,79,60,494,444,484
2025-02-20 16:10:56.046,6.0,-701.0,250.0,-7.0,127.0,283.0,137,70,68,80,60,496,466,468
2025-02-20 16:10:56.063,-196.0,-371.0,161.0,-11.0,184.0,271.0,137,72,71,82,58,456,456,466
2025-02-20 16:10:56.083,-356.0,-174.0,20.0,34.0,115.0,247.0,137,76,75,81,60,422,442,466
2025-02-20 16:10:56.102,-223.0,-240.0,67.0,124.0,149.0,210.0,138,84,79,87,62,455,438,465
2025-02-20 16:10:56.120,-737.0,255.0,-201.0,232.0,162.0,177.0,139,90,79,87,64,461,453,468
2025-02-20 16:10:56.140,-1061.0,1021.0,-396.0,283.0,97.0,84.0,138,96,84,91,64,445,470,462
2025-02-20 16:10:56.161,-1390.0,1949.0,-838.0,207.0,-41.0,-88.0,139,104,88,90,64,444,475,453
2025-02-20 16:10:56.176,-1556.0,2102.0,-1333.0,141.0,-246.0,-358.0,139,109,92,83,61,446,481,459
2025-02-20 16:10:56.198,-1069.0,1773.0,-1136.0,221.0,-472.0,-624.0,139,114,96,82,63,431,478,465
2025-02-20 16:10:56.217,1075.0,1399.0,-478.0,90.0,-725.0,-750.0,139,120,98,84,69,426,456,460
2025-02-20 16:10:56.234,3467.0,-500.0,409.0,-117.0,-774.0,-750.0,139,124,101,86,72,432,440,466
2025-02-20 16:10:56.255,3425.0,-3620.0,1110.0,40.0,-465.0,-410.0,140,127,102,86,70,456,416,466
2025-02-20 16:10:56.272,3563.0,-3715.0,1738.0,97.0,-124.0,-34.0,140,128,104,86,68,442,427,452
2025-02-20 16:10:56.292,2337.0,-2046.0,1718.0,-12.0,126.0,204.0,140,127,103,85,62,329,484,441
2025-02-20 16:10:56.311,883.0,-1138.0,890.0,-129.0,175.0,225.0,140,125,103,86,59,352,492,441
2025-02-20 16:10:56.328,371.0,-1129.0,375.0,-138.0,133.0,166.0,139,125,103,85,54,369,512,446
2025-02-20 16:10:56.346,342.0,-1425.0,233.0,-60.0,121.0,155.0,139,127,104,87,61,461,489,458
2025-02-20 16:10:56.369,432.0,-1370.0,418.0,19.0,145.0,186.0,139,126,104,85,64,494,460,470
2025-02-20 16:10:56.386,410.0,-1171.0,511.0,49.0,177.0,231.0,139,129,105,83,64,536,441,461
2025-02-20 16:10:56.406,231.0,-835.0,451.0,47.0,171.0,244.0,138,129,104,82,66,475,427,470
2025-02-20 16:10:56.425,48.0,-591.0,447.0,7.0,136.0,226.0,140,129,99,83,66,479,430,473
2025-02-20 16:10:56.443,-6.0,-586.0,420.0,-29.0,119.0,220.0,139,130,100,83,67,477,449,475
2025-02-20 16:10:56.462,-51.0,-476.0,437.0,-31.0,128.0,234.0,140,129,105,83,66,508,486,469
2025-02-20 16:10:56.484,-298.0,-233.0,434.0,-63.0,110.0,236.0,139,129,102,84,66,498,470,476
2025-02-20 16:10:56.497,-397.0,-267.0,314.0,-78.0,92.0,216.0,139,127,105,84,65,471,454,476
2025-02-20 16:10:56.520,-266.0,-341.0,283.0,-27.0,106.0,178.0,139,127,104,83,65,483,459,476
2025-02-20 16:10:56.538,-333.0,-264.0,262.0,89.0,134.0,145.0,140,128,105,84,66,557,462,471
2025-02-20 16:10:56.558,-574.0,371.0,215.0,146.0,145.0,124.0,140,126,105,83,65,541,466,465
2025-02-20 16:10:56.578,-1096.0,1566.0,-269.0,87.0,76.0,51.0,140,126,106,82,65,521,467,457
2025-02-20 16:10:56.595,-1668.0,1664.0,-1051.0,66.0,-106.0,-194.0,140,127,106,79,64,524,454,453
2025-02-20 16:10:56.616,-1333.0,2154.0,-1153.0,128.0,-322.0,-551.0,140,128,105,79,65,519,455,470
2025-02-20 16:10:56.635,59.0,1527.0,-729.0,-25.0,-538.0,-735.0,138,129,102,80,66,478,463,479
2025-02-20 16:10:56.653,2678.0,-302.0,-309.0,-85.0,-707.0,-733.0,137,130,99,82,68,410,453,487
2025-02-20 16:10:56.672,3308.0,-3432.0,892.0,60.0,-494.0,-464.0,136,130,104,84,68,419,428,479
2025-02-20 16:10:56.691,3520.0,-3658.0,1619.0,151.0,-91.0,-15.0,138,128,103,84,69,397,413,461
2025-02-20 16:10:56.710,2115.0,-2301.0,1553.0,84.0,141.0,148.0,139,127,104,84,65,294,454,445
2025-02-20 16:10:56.728,833.0,-1289.0,1104.0,-5.0,179.0,142.0,138,126,103,85,62,310,484,446
2025-02-20 16:10:56.747,372.0,-1051.0,674.0,-109.0,134.0,96.0,140,121,104,85,64,349,516,451
2025-02-20 16:10:56.767,443.0,-1445.0,598.0,-105.0,138.0,125.0,139,123,103,87,67,458,527,463
2025-02-20 16:10:56.787,444.0,-1380.0,513.0,-74.0,163.0,190.0,138,125,101,88,70,505,505,481
2025-02-20 16:10:56.804,367.0,-1135.0,480.0,-49.0,182.0,232.0,138,127,102,89,73,524,481,463
2025-02-20 16:10:56.824,165.0,-830.0,511.0,-62.0,177.0,252.0,140,124,99,93,76,491,446,458
2025-02-20 16:10:56.842,51.0,-760.0,557.0,-94.0,173.0,271.0,139,120,96,96,79,516,446,463
2025-02-20 16:10:56.861,-141.0,-551.0,508.0,-165.0,157.0,311.0,141,112,86,96,80,470,430,452
2025-02-20 16:10:56.881,-63.0,-539.0,479.0,-236.0,142.0,355.0,142,100,77,95,77,474,407,471
2025-02-20 16:10:56.902,13.0,-720.0,260.0,-103.0,144.0,359.0,141,93,69,92,70,487,396,480
2025-02-20 16:10:56.915,-302.0,-333.0,275.0,-30.0,108.0,291.0,141,79,66,89,66,475,455,476
2025-02-20 16:10:56.939,-398.0,170.0,-93.0,-4.0,131.0,209.0,141,71,62,89,65,458,516,474
2025-02-20 16:10:56.955,-752.0,494.0,-312.0,80.0,68.0,105.0,141,67,61,87,62,456,535,466
2025-02-20 16:10:56.976,-644.0,794.0,-265.0,197.0,46.0,-1.0,140,62,55,77,58,529,522,455
2025-02-20 16:10:56.995,-645.0,1570.0,-465.0,244.0,42.0,-144.0,140,59,50,71,55,510,492,448
2025-02-20 16:10:57.013,-1146.0,2085.0,-823.0,203.0,-26.0,-368.0,137,56,47,71,52,470,464,432
2025-02-20 16:10:57.031,-1295.0,1692.0,-1434.0,84.0,-269.0,-536.0,137,56,45,73,53,435,456,450
2025-02-20 16:10:57.053,-248.0,1329.0,-1493.0,-85.0,-529.0,-706.0,137,53,45,75,55,431,447,458
2025-02-20 16:10:57.067,2856.0,-542.0,-1115.0,-258.0,-828.0,-660.0,140,55,48,77,57,472,447,462
2025-02-20 16:10:57.090,4278.0,-4092.0,1676.0,-314.0,-601.0,-252.0,142,56,48,78,58,472,450,470
2025-02-20 16:10:57.111,3662.0,-4761.0,2091.0,-101.0,22.0,-76.0,143,56,47,82,58,448,451,462
2025-02-20 16:10:57.127,1551.0,-3350.0,121.0,107.0,194.0,12.0,142,54,47,84,55,332,448,455
2025-02-20 16:10:57.146,251.0,-1296.0,-348.0,-4.0,98.0,106.0,143,52,46,74,53,359,483,440
2025-02-20 16:10:57.168,117.0,-1176.0,-462.0,-102.0,-56.0,129.0,143,51,47,76,54,431,515,447
2025-02-20 16:10:57.183,614.0,-2189.0,282.0,-42.0,-24.0,189.0,143,53,47,84,55,529,520,468
2025-02-20 16:10:57.203,700.0,-1952.0,533.0,58.0,81.0,196.0,143,56,48,85,56,485,468,453
2025-02-20 16:10:57.222,471.0,-1442.0,264.0,123.0,130.0,199.0,142,58,51,83,57,485,411,462
2025-02-20 16:10:57.241,118.0,-968.0,65.0,92.0,111.0,224.0,143,59,52,80,57,521,437,466
2025-02-20 16:10:57.262,-56.0,-598.0,169.0,25.0,68.0,216.0,143,58,52,78,58,534,462,471
2025-02-20 16:10:57.279,-82.0,-638.0,256.0,-18.0,50.0,222.0,143,59,50,74,59,563,463,477
2025-02-20 16:10:57.299,-61.0,-310.0,544.0,-11.0,62.0,148.0,143,60,53,73,59,564,435,483
2025-02-20 16:10:57.319,-192.0,-441.0,324.0,-5.0,93.0,142.0,144,61,52,71,57,519,447,488
2025-02-20 16:10:57.333,-381.0,-333.0,131.0,11.0,81.0,162.0,143,62,51,72,58,553,463,481
2025-02-20 16:10:57.356,-364.0,-116.0,364.0,-19.0,57.0,178.0,143,60,50,73,57,495,458,468
2025-02-20 16:10:57.374,-196.0,-71.0,468.0,69.0,95.0,101.0,142,61,51,77,56,435,468,455
2025-02-20 16:10:57.394,-490.0,177.0,308.0,178.0,137.0,81.0,143,61,51,74,57,455,471,463
2025-02-20 16:10:57.414,-750.0,1044.0,3.0,236.0,152.0,22.0,142,62,49,75,58,434,459,464
2025-02-20 16:10:57.430,-1309.0,1998.0,-711.0,250.0,95.0,-181.0,140,64,53,77,58,468,467,462
2025-02-20 16:10:57.448,-1711.0,2322.0,-1393.0,121.0,-94.0,-467.0,138,62,52,80,58,495,485,472
2025-02-20 16:10:57.470,-468.0,1489.0,-1772.0,-37.0,-451.0,-588.0,136,62,32,81,59,478,495,479
2025-02-20 16:10:57.488,1802.0,-911.0,-877.0,-178.0,-652.0,-541.0,137,62,55,81,60,453,494,479
2025-02-20 16:10:57.509,3614.0,-3416.0,517.0,-158.0,-675.0,-295.0,138,63,55,83,63,464,481,466
2025-02-20 16:10:57.528,3791.0,-4809.0,2043.0,-126.0,-282.0,-68.0,139,64,55,84,65,431,455,453
2025-02-20 16:10:57.545,2308.0,-3583.0,1380.0,-15.0,103.0,33.0,138,60,54,83,63,339,445,453
2025-02-20 16:10:57.565,829.0,-2149.0,25.0,-33.0,213.0,101.0,137,56,55,81,58,303,480,438
2025-02-20 16:10:57.586,22.0,-1674.0,-493.0,-198.0,139.0,146.0,137,58,56,80,59,364,507,441
2025-02-20 16:10:57.603,290.0,-1741.0,-307.0,23.0,2.0,201.0,136,59,60,85,60,438,497,449
2025-02-20 16:10:57.623,502.0,-1953.0,310.0,95.0,106.0,215.0,137,65,63,89,61,484,462,460
2025-02-20 16:10:57.640,519.0,-1630.0,325.0,134.0,186.0,220.0,137,71,63,87,62,486,426,471
2025-02-20 16:10:57.659,275.0,-1250.0,203.0,133.0,203.0,244.0,137,79,61,87,64,478,405,479
2025-02-20 16:10:57.679,210.0,-663.0,283.0,77.0,246.0,269.0,136,81,62,86,67,503,407,482
2025-02-20 16:10:57.697,162.0,-639.0,288.0,85.0,269.0,280.0,137,81,63,85,69,540,434,478
2025-02-20 16:10:57.716,-40.0,-238.0,-15.0,-7.0,266.0,294.0,138,79,63,88,72,547,470,474
2025-02-20 16:10:57.737,-114.0,-161.0,292.0,-44.0,174.0,311.0,137,79,63,89,75,526,483,470
2025-02-20 16:10:57.754,-411.0,-1.0,142.0,-6.0,159.0,296.0,137,78,63,92,76,475,480,468
2025-02-20 16:10:57.774,-402.0,-62.0,285.0,78.0,151.0,300.0,136,74,63,94,77,484,460,465
2025-02-20 16:10:57.794,-271.0,8.0,-30.0,170.0,149.0,290.0,137,67,63,95,77,477,450,462
2025-02-20 16:10:57.806,-555.0,279.0,-238.0,256.0,161.0,266.0,134,62,59,95,77,452,440,457
2025-02-20 16:10:57.831,-655.0,817.0,-464.0,327.0,124.0,230.0,134,58,57,89,72,441,411,445
2025-02-20 16:10:57.849,-1070.0,1586.0,-850.0,385.0,73.0,60.0,130,58,52,76,60,440,426,442
2025-02-20 16:10:57.867,-1740.0,3088.0,-2376.0,355.0,-148.0,-293.0,112,56,54,71,55,433,454,447
2025-02-20 16:10:57.889,-1745.0,2595.0,-3247.0,255.0,-627.0,-586.0,101,53,48,67,54,400,491,468
2025-02-20 16:10:57.905,1383.0,1124.0,-2824.0,209.0,-1108.0,-681.0,97,52,46,66,57,413,505,480
2025-02-20 16:10:57.926,5385.0,-113.0,-146.0,173.0,-1334.0,-498.0,102,51,47,68,62,429,497,501
2025-02-20 16:10:57.946,5295.0,-3811.0,4705.0,214.0,-803.0,-65.0,110,53,49,67,62,475,459,504
2025-02-20 16:10:57.963,3818.0,-1741.0,5424.0,116.0,129.0,5.0,109,54,49,68,58,406,398,466
2025-02-20 16:10:57.983,1811.0,-1012.0,2762.0,-2.0,337.0,-16.0,106,53,49,67,50,295,455,450
2025-02-20 16:10:58.004,706.0,-875.0,1442.0,-109.0,321.0,58.0,104,52,51,68,49,291,503,442
2025-02-20 16:10:58.020,295.0,-676.0,920.0,-243.0,250.0,78.0,104,55,50,68,51,303,531,453
2025-02-20 16:10:58.037,129.0,-1109.0,680.0,-243.0,194.0,93.0,102,53,52,70,56,333,544,449
2025-02-20 16:10:58.061,247.0,-1386.0,683.0,-169.0,205.0,151.0,100,55,51,72,58,315,496,462
2025-02-20 16:10:58.077,195.0,-989.0,666.0,-90.0,246.0,176.0,104,56,52,70,59,447,426,506
2025-02-20 16:10:58.098,-269.0,-459.0,580.0,-29.0,207.0,133.0,106,56,53,69,62,553,391,490
2025-02-20 16:10:58.115,-144.0,-390.0,571.0,-48.0,181.0,110.0,107,55,52,72,62,507,409,475
2025-02-20 16:10:58.134,-255.0,-422.0,442.0,-98.0,160.0,135.0,105,55,53,70,62,440,386,459
2025-02-20 16:10:58.153,-280.0,-360.0,429.0,-154.0,150.0,157.0,108,55,53,70,61,465,442,451
2025-02-20 16:10:58.172,-407.0,-364.0,298.0,-152.0,131.0,159.0,109,56,54,71,60,492,453,456
2025-02-20 16:10:58.192,-465.0,-320.0,263.0,-121.0,100.0,161.0,110,56,53,71,60,528,453,467
2025-02-20 16:10:58.212,-138.0,-238.0,373.0,-85.0,110.0,157.0,110,57,53,73,60,445,467,468
2025-02-20 16:10:58.230,-302.0,-133.0,197.0,-35.0,141.0,161.0,110,57,54,71,61,443,481,464
2025-02-20 16:10:58.249,-543.0,283.0,-298.0,15.0,122.0,167.0,110,57,54,69,61,466,485,458
2025-02-20 16:10:58.267,-860.0,848.0,-737.0,83.0,51.0,118.0,109,56,54,69,62,522,494,446
2025-02-20 16:10:58.286,-1314.0,1750.0,-1667.0,218.0,-71.0,-141.0,105,57,55,69,61,492,497,452
2025-02-20 16:10:58.303,-1401.0,2025.0,-1937.0,271.0,-352.0,-444.0,101,56,53,69,60,491,503,457
2025-02-20 16:10:58.323,-381.0,982.0,-2066.0,280.0,-719.0,-541.0,98,55,53,68,60,511,507,467
2025-02-20 16:10:58.344,2581.0,-265.0,-726.0,276.0,-974.0,-438.0,102,55,52,70,63,514,496,476
2025-02-20 16:10:58.364,4200.0,-3006.0,3907.0,371.0,-616.0,-126.0,112,58,53,73,65,549,496,479
2025-02-20 16:10:58.380,3427.0,-1260.0,5028.0,183.0,39.0,49.0,113,59,55,73,64,534,436,475
2025-02-20 16:10:58.401,1163.0,-474.0,3349.0,-30.0,290.0,-18.0,114,59,55,74,58,413,432,460
2025-02-20 16:10:58.421,586.0,-661.0,1805.0,-229.0,305.0,40.0,119,58,57,76,58,345,504,439
2025-02-20 16:10:58.438,300.0,-956.0,916.0,-308.0,297.0,69.0,125,57,60,79,60,383,548,434
2025-02-20 16:10:58.458,87.0,-1280.0,729.0,-235.0,273.0,94.0,126,60,60,79,63,426,553,427
2025-02-20 16:10:58.479,204.0,-1381.0,599.0,-142.0,286.0,170.0,128,61,59,79,64,487,526,442
2025-02-20 16:10:58.495,16.0,-906.0,434.0,-96.0,300.0,224.0,131,63,61,79,66,558,475,492
2025-02-20 16:10:58.516,-261.0,-495.0,239.0,-82.0,261.0,230.0,131,63,60,80,67,524,457,484
2025-02-20 16:10:58.532,-501.0,-419.0,125.0,-95.0,187.0,242.0,132,66,61,79,68,447,423,471
2025-02-20 16:10:58.553,-642.0,-434.0,105.0,-45.0,141.0,253.0,132,75,59,80,69,443,433,459
2025-02-20 16:10:58.573,-492.0,-253.0,37.0,-36.0,99.0,234.0,132,89,59,80,68,421,448,474
2025-02-20 16:10:58.590,-607.0,-129.0,-40.0,44.0,86.0,198.0,132,100,59,80,68,461,443,490
2025-02-20 16:10:58.610,-611.0,58.0,-41.0,109.0,83.0,135.0,131,106,60,81,69,497,428,486
2025-02-20 16:10:58.630,-854.0,343.0,-382.0,169.0,32.0,79.0,132,107,58,81,69,447,434,472
2025-02-20 16:10:58.647,-1286.0,632.0,-489.0,232.0,-65.0,-11.0,129,106,56,77,67,386,434,463
2025-02-20 16:10:58.667,-1226.0,1060.0,-1398.0,289.0,-252.0,-155.0,121,103,55,74,63,422,414,458
2025-02-20 16:10:58.685,-1252.0,1284.0,-2207.0,278.0,-589.0,-283.0,104,102,54,69,61,491,422,452
2025-02-20 16:10:58.703,1100.0,713.0,-2072.0,329.0,-898.0,-309.0,93,100,54,68,61,550,425,447
2025-02-20 16:10:58.723,2760.0,271.0,-1155.0,378.0,-1070.0,-210.0,93,101,52,71,62,614,424,464
2025-02-20 16:10:58.745,3290.0,-71.0,866.0,429.0,-994.0,-67.0,97,102,51,71,64,643,429,465
2025-02-20 16:10:58.761,3426.0,478.0,3029.0,363.0,-619.0,17.0,106,105,52,74,67,594,432,453
2025-02-20 16:10:58.781,2789.0,808.0,4615.0,124.0,-195.0,35.0,112,107,53,76,70,484,454,447
2025-02-20 16:10:58.799,2145.0,631.0,3814.0,-114.0,240.0,42.0,114,107,53,77,70,440,479,439
2025-02-20 16:10:58.818,1503.0,516.0,2144.0,-238.0,432.0,8.0,117,107,52,78,71,405,511,451
2025-02-20 16:10:58.839,1149.0,186.0,1262.0,-254.0,505.0,-33.0,118,107,53,79,71,423,548,468
2025-02-20 16:10:58.855,729.0,-274.0,722.0,-196.0,487.0,-24.0,114,107,54,80,71,436,552,459
2025-02-20 16:10:58.876,396.0,-487.0,535.0,-131.0,397.0,9.0,105,105,52,78,70,448,535,481
2025-02-20 16:10:58.896,230.0,-239.0,659.0,-136.0,302.0,31.0,105,104,54,78,70,470,507,494
2025-02-20 16:10:58.913,159.0,-199.0,809.0,-217.0,296.0,70.0,109,101,56,79,71,474,483,480
2025-02-20 16:10:58.933,-225.0,-309.0,512.0,-213.0,257.0,91.0,112,103,55,78,71,469,464,460
2025-02-20 16:10:58.953,-267.0,-452.0,378.0,-101.0,194.0,74.0,107,103,55,79,71,413,452,461
2025-02-20 16:10:58.970,-155.0,-327.0,649.0,-68.0,197.0,87.0,106,108,54,78,70,404,424,469
2025-02-20 16:10:58.988,-187.0,-207.0,639.0,-103.0,231.0,115.0,107,107,54,78,70,476,432,477
2025-02-20 16:10:59.008,-183.0,-257.0,408.0,-115.0,245.0,136.0,108,108,56,79,70,413,440,488
2025-02-20 16:10:59.028,-510.0,-361.0,182.0,-88.0,173.0,150.0,108,108,55,78,70,350,463,485
2025-02-20 16:10:59.048,-295.0,-340.0,206.0,-26.0,140.0,158.0,108,107,55,77,70,376,464,472
2025-02-20 16:10:59.065,-391.0,-129.0,192.0,4.0,125.0,146.0,109,108,55,77,69,446,457,463
2025-02-20 16:10:59.084,-543.0,132.0,84.0,3.0,114.0,114.0,108,106,53,76,70,518,451,456
2025-02-20 16:10:59.105,-813.0,559.0,-414.0,-17.0,47.0,72.0,109,105,55,77,67,540,417,445
2025-02-20 16:10:59.122,-1474.0,801.0,-1387.0,-9.0,-167.0,-43.0,101,99,53,74,63,529,397,450
2025-02-20 16:10:59.142,-1923.0,1410.0,-2512.0,160.0,-487.0,-271.0,94,99,53,71,59,543,413,458
2025-02-20 16:10:59.162,250.0,1458.0,-2611.0,230.0,-936.0,-404.0,90,103,54,71,59,514,453,468
2025-02-20 16:10:59.180,2870.0,358.0,-1297.0,211.0,-1134.0,-316.0,91,105,54,73,62,534,455,469
2025-02-20 16:10:59.200,3803.0,-838.0,646.0,294.0,-1073.0,-180.0,102,109,52,74,66,573,441,474
2025-02-20 16:10:59.218,4110.0,-716.0,2538.0,400.0,-722.0,-44.0,115,111,54,74,70,524,416,453
2025-02-20 16:10:59.236,3063.0,606.0,4277.0,288.0,-316.0,-4.0,123,113,56,76,70,481,456,457
2025-02-20 16:10:59.256,2328.0,390.0,4321.0,-63.0,172.0,26.0,128,114,57,78,71,452,489,456
2025-02-20 16:10:59.274,1860.0,371.0,2626.0,-276.0,434.0,56.0,132,114,57,79,71,443,548,465
2025-02-20 16:10:59.292,1436.0,220.0,1520.0,-384.0,525.0,73.0,133,114,57,79,72,405,577,475
2025-02-20 16:10:59.314,1078.0,28.0,833.0,-386.0,499.0,98.0,133,114,57,80,74,435,572,473
2025-02-20 16:10:59.331,881.0,-611.0,832.0,-324.0,465.0,142.0,133,115,57,80,75,511,529,475
2025-02-20 16:10:59.352,552.0,-573.0,542.0,-230.0,435.0,172.0,133,116,58,82,77,540,472,479
2025-02-20 16:10:59.372,260.0,-523.0,343.0,-176.0,398.0,198.0,132,115,58,84,79,466,425,460
2025-02-20 16:10:59.388,101.0,-408.0,289.0,-179.0,354.0,230.0,133,116,64,90,84,453,403,441
2025-02-20 16:10:59.409,-58.0,-151.0,92.0,-147.0,318.0,251.0,133,113,72,99,94,427,379,442
2025-02-20 16:10:59.429,-401.0,-332.0,273.0,-131.0,234.0,234.0,133,111,79,110,99,428,406,467
2025-02-20 16:10:59.446,-459.0,-458.0,280.0,-85.0,236.0,195.0,133,110,81,116,102,413,438,474
2025-02-20 16:10:59.459,-445.0,-225.0,149.0,-67.0,258.0,134.0,130,109,84,118,104,361,444,474
2025-02-20 16:10:59.483,-623.0,-15.0,-57.0,12.0,208.0,103.0,129,110,85,121,106,364,453,485
2025-02-20 16:10:59.503,-798.0,336.0,-6.0,62.0,145.0,63.0,128,109,87,121,109,399,480,479
2025-02-20 16:10:59.523,-729.0,546.0,-274.0,109.0,92.0,30.0,126,109,89,122,112,486,490,467
2025-02-20 16:10:59.540,-1107.0,911.0,-1157.0,128.0,-26.0,-82.0,125,110,89,123,115,531,484,460
2025-02-20 16:10:59.560,-1377.0,1485.0,-1509.0,134.0,-276.0,-295.0,124,112,92,125,120,536,463,462
2025-02-20 16:10:59.581,-1272.0,1257.0,-962.0,94.0,-465.0,-507.0,127,116,93,125,127,518,462,471
2025-02-20 16:10:59.597,108.0,1164.0,-870.0,-77.0,-574.0,-701.0,128,118,96,127,131,488,453,486
2025-02-20 16:10:59.618,2318.0,330.0,-663.0,-157.0,-1073.0,-642.0,127,122,98,130,131,469,425,496
2025-02-20 16:10:59.635,4037.0,-2460.0,903.0,-261.0,-891.0,-398.0,123,127,102,131,134,467,429,492
2025-02-20 16:10:59.655,3506.0,-3515.0,1399.0,-3.0,-413.0,-116.0,124,128,103,132,133,415,431,476
2025-02-20 16:10:59.674,3016.0,-3184.0,1648.0,98.0,-67.0,110.0,127,129,103,133,134,336,438,466
2025-02-20 16:10:59.695,1602.0,-1460.0,1509.0,93.0,119.0,144.0,129,129,103,134,133,312,503,443
2025-02-20 16:10:59.712,858.0,-1118.0,1210.0,-68.0,167.0,153.0,132,127,105,133,133,357,515,445
2025-02-20 16:10:59.732,550.0,-1064.0,831.0,-155.0,156.0,211.0,131,125,104,132,132,381,549,456
2025-02-20 16:10:59.749,356.0,-1099.0,721.0,-51.0,143.0,256.0,131,127,104,133,131,548,516,473
2025-02-20 16:10:59.769,343.0,-941.0,686.0,-35.0,161.0,270.0,129,126,104,133,133,522,470,486
2025-02-20 16:10:59.789,247.0,-1101.0,675.0,-50.0,246.0,242.0,130,130,104,133,133,552,426,479
2025-02-20 16:10:59.806,306.0,-973.0,528.0,4.0,282.0,224.0,127,129,105,133,133,534,443,474
2025-02-20 16:10:59.826,141.0,-769.0,338.0,17.0,265.0,242.0,127,129,103,134,133,461,453,458
2025-02-20 16:10:59.846,-38.0,-600.0,239.0,2.0,247.0,246.0,127,129,105,135,133,466,462,452
2025-02-20 16:10:59.863,-84.0,-295.0,320.0,-14.0,206.0,266.0,127,129,105,134,132,492,464,471
2025-02-20 16:10:59.883,-167.0,-270.0,74.0,-56.0,182.0,267.0,128,129,103,134,132,543,441,481
2025-02-20 16:10:59.903,-293.0,-303.0,-47.0,-7.0,139.0,259.0,127,127,103,133,129,569,417,480
2025-02-20 16:10:59.921,-313.0,-41.0,-89.0,52.0,137.0,256.0,127,124,100,133,130,551,448,473
2025-02-20 16:10:59.941,-450.0,353.0,164.0,157.0,131.0,245.0,128,119,100,134,130,408,502,468
2025-02-20 16:10:59.958,-717.0,916.0,-151.0,253.0,137.0,197.0,126,116,101,134,128,352,472,458
2025-02-20 16:10:59.975,-1188.0,1769.0,-1058.0,331.0,31.0,31.0,126,115,102,132,128,402,442,448
2025-02-20 16:10:59.999,-1580.0,2178.0,-1230.0,243.0,-166.0,-338.0,125,117,101,131,130,458,443,458
2025-02-20 16:11:00.016,-976.0,1788.0,-1011.0,170.0,-369.0,-600.0,127,119,102,133,131,489,452,467
2025-02-20 16:11:00.035,41.0,920.0,-278.0,-67.0,-723.0,-802.0,127,122,103,133,132,532,448,471
2025-02-20 16:11:00.055,3247.0,-102.0,144.0,-284.0,-890.0,-724.0,125,125,104,133,133,548,444,481
2025-02-20 16:11:00.073,3232.0,-2945.0,1016.0,-157.0,-684.0,-519.0,124,129,105,134,134,483,443,474
2025-02-20 16:11:00.093,3086.0,-3801.0,452.0,67.0,-270.0,-101.0,124,132,103,135,134,437,443,464
2025-02-20 16:11:00.113,2570.0,-2692.0,1272.0,162.0,-12.0,145.0,128,131,105,134,133,309,411,452
2025-02-20 16:11:00.128,1232.0,-1236.0,1384.0,119.0,168.0,145.0,131,129,104,134,130,286,495,449
2025-02-20 16:11:00.150,364.0,-639.0,1070.0,10.0,191.0,97.0,132,127,105,135,126,359,543,454
2025-02-20 16:11:00.166,64.0,-680.0,764.0,-61.0,134.0,74.0,129,126,106,133,125,424,553,452
2025-02-20 16:11:00.187,85.0,-1035.0,802.0,-49.0,160.0,72.0,132,127,105,133,123,483,517,450
2025-02-20 16:11:00.206,311.0,-1262.0,793.0,-4.0,227.0,94.0,131,128,103,132,122,601,479,489
2025-02-20 16:11:00.225,522.0,-1306.0,758.0,24.0,300.0,140.0,132,129,101,130,117,555,431,492
2025-02-20 16:11:00.245,478.0,-1107.0,653.0,68.0,345.0,173.0,133,128,97,124,107,462,435,473
2025-02-20 16:11:00.264,221.0,-647.0,898.0,95.0,357.0,215.0,131,126,86,119,97,454,410,470
2025-02-20 16:11:00.281,-24.0,-674.0,325.0,92.0,354.0,257.0,131,122,76,112,90,452,399,464
2025-02-20 16:11:00.302,30.0,-412.0,412.0,90.0,355.0,277.0,132,119,66,103,82,463,464,491
2025-02-20 16:11:00.322,-173.0,-309.0,200.0,49.0,328.0,286.0,130,114,57,99,74,478,471,468
2025-02-20 16:11:00.339,-394.0,-215.0,-28.0,72.0,268.0,283.0,129,110,55,94,68,485,431,449
2025-02-20 16:11:00.359,-582.0,4.0,-187.0,99.0,204.0,252.0,125,103,53,86,64,515,448,454
2025-02-20 16:11:00.375,-723.0,286.0,-444.0,98.0,125.0,205.0,116,97,53,77,60,522,504,468
2025-02-20 16:11:00.395,-1029.0,687.0,-1241.0,202.0,17.0,10.0,97,92,49,66,55,611,505,452
2025-02-20 16:11:00.416,-1943.0,1539.0,-1933.0,309.0,-281.0,-214.0,82,88,47,59,51,551,483,437
2025-02-20 16:11:00.433,-1203.0,1756.0,-3129.0,254.0,-738.0,-350.0,77,93,49,58,50,443,462,443
2025-02-20 16:11:00.453,2101.0,818.0,-1983.0,165.0,-1138.0,-323.0,76,96,49,60,52,432,428,446
2025-02-20 16:11:00.474,3962.0,-659.0,111.0,175.0,-1149.0,-186.0,79,100,49,62,55,557,422,455
2025-02-20 16:11:00.491,3555.0,-1261.0,3096.0,374.0,-777.0,-57.0,86,106,48,65,59,560,429,462
2025-02-20 16:11:00.510,2680.0,263.0,4237.0,364.0,-246.0,-8.0,91,108,51,67,63,471,423,451
2025-02-20 16:11:00.528,1839.0,864.0,4196.0,59.0,96.0,-21.0,93,110,50,70,65,398,486,459
2025-02-20 16:11:00.548,1454.0,467.0,2589.0,-240.0,335.0,-7.0,92,106,52,70,65,394,534,449
2025-02-20 16:11:00.568,1068.0,-356.0,1402.0,-249.0,381.0,23.0,91,103,51,71,64,323,547,445
2025-02-20 16:11:00.582,707.0,-585.0,944.0,-160.0,395.0,39.0,91,103,51,71,66,290,556,415
2025-02-20 16:11:00.605,473.0,-611.0,875.0,-136.0,383.0,72.0,92,105,53,71,66,458,519,452
2025-02-20 16:11:00.625,91.0,-417.0,703.0,-129.0,350.0,89.0,93,105,51,71,66,543,460,473
2025-02-20 16:11:00.642,36.0,-204.0,747.0,-148.0,292.0,96.0,93,106,52,72,67,566,450,479
2025-02-20 16:11:00.661,-239.0,-228.0,689.0,-168.0,240.0,98.0,93,106,53,72,67,425,466,455
2025-02-20 16:11:00.682,-350.0,-449.0,831.0,-159.0,235.0,108.0,94,108,53,73,67,357,433,446
2025-02-20 16:11:00.700,-193.0,-282.0,575.0,-160.0,255.0,119.0,96,107,54,74,66,340,465,456
2025-02-20 16:11:00.719,-414.0,-249.0,423.0,-144.0,238.0,115.0,100,108,54,75,66,432,490,474
2025-02-20 16:11:00.740,-410.0,-352.0,434.0,-90.0,222.0,119.0,101,107,55,74,66,464,447,489
2025-02-20 16:11:00.756,-424.0,-318.0,293.0,-48.0,209.0,111.0,100,107,56,74,67,427,414,487
2025-02-20 16:11:00.776,-429.0,-185.0,162.0,-9.0,197.0,102.0,102,107,56,74,67,386,421,483
2025-02-20 16:11:00.794,-660.0,-25.0,-8.0,17.0,160.0,84.0,105,107,56,74,67,444,432,478
2025-02-20 16:11:00.812,-759.0,271.0,-270.0,5.0,96.0,63.0,107,107,57,74,68,530,444,467
2025-02-20 16:11:00.834,-812.0,625.0,-674.0,3.0,25.0,23.0,107,103,56,74,68,559,452,463
2025-02-20 16:11:00.854,-1269.0,1081.0,-1513.0,48.0,-125.0,-166.0,102,101,55,72,64,572,443,467
2025-02-20 16:11:00.871,-1806.0,1354.0,-2383.0,222.0,-418.0,-408.0,96,100,54,70,59,560,452,469
2025-02-20 16:11:00.891,-379.0,1292.0,-2167.0,231.0,-843.0,-521.0,91,103,54,69,60,529,443,469
2025-02-20 16:11:00.908,3002.0,60.0,-1180.0,140.0,-1137.0,-363.0,93,107,55,70,63,514,454,457
2025-02-20 16:11:00.928,4418.0,-2310.0,2023.0,244.0,-1021.0,-81.0,101,110,54,72,65,506,440,447
2025-02-20 16:11:00.948,3423.0,-905.0,3742.0,290.0,-406.0,69.0,110,113,57,74,69,538,414,462
2025-02-20 16:11:00.965,2589.0,-391.0,4344.0,64.0,16.0,41.0,117,114,59,75,69,521,409,459
2025-02-20 16:11:00.986,1755.0,-233.0,3047.0,-163.0,319.0,10.0,121,115,61,79,64,454,493,460
2025-02-20 16:11:01.006,1083.0,-546.0,1787.0,-286.0,397.0,44.0,124,114,63,82,66,425,577,459
2025-02-20 16:11:01.023,714.0,-875.0,924.0,-261.0,413.0,90.0,126,113,65,83,67,365,601,450
2025-02-20 16:11:01.043,466.0,-1157.0,671.0,-190.0,370.0,140.0,127,112,67,83,69,497,594,452
2025-02-20 16:11:01.060,340.0,-776.0,640.0,-171.0,345.0,185.0,129,113,70,83,69,538,523,471
2025-02-20 16:11:01.080,159.0,-683.0,622.0,-188.0,334.0,198.0,129,115,75,85,70,526,441,479
2025-02-20 16:11:01.100,-7.0,-634.0,526.0,-166.0,323.0,226.0,128,115,80,85,71,448,365,470
2025-02-20 16:11:01.117,-29.0,-546.0,570.0,-164.0,317.0,268.0,129,116,84,84,71,377,374,441
2025-02-20 16:11:01.137,-298.0,-431.0,366.0,-179.0,302.0,282.0,128,117,86,84,70,333,393,452
2025-02-20 16:11:01.158,-525.0,-310.0,-105.0,-108.0,262.0,243.0,129,117,89,85,70,432,432,459
2025-02-20 16:11:01.174,-670.0,-183.0,-302.0,42.0,206.0,163.0,130,114,89,86,70,495,461,478
2025-02-20 16:11:01.194,-685.0,223.0,-78.0,63.0,155.0,108.0,129,114,91,87,70,463,467,488
2025-02-20 16:11:01.210,-465.0,203.0,-22.0,60.0,147.0,86.0,132,114,95,88,72,412,480,487
2025-02-20 16:11:01.231,-576.0,192.0,-174.0,103.0,138.0,68.0,132,114,96,88,73,407,493,482
2025-02-20 16:11:01.250,-704.0,488.0,-554.0,144.0,82.0,35.0,131,112,96,86,73,439,503,468
2025-02-20 16:11:01.272,-1066.0,958.0,-1027.0,131.0,-44.0,-54.0,131,118,98,84,73,537,466,457
2025-02-20 16:11:01.289,-1150.0,1400.0,-1409.0,88.0,-214.0,-268.0,132,118,98,83,70,558,459,455
2025-02-20 16:11:01.308,-957.0,1583.0,-1275.0,82.0,-400.0,-479.0,132,120,99,81,68,557,478,477
2025-02-20 16:11:01.326,213.0,1775.0,-771.0,-18.0,-593.0,-710.0,129,123,101,81,66,551,467,474
2025-02-20 16:11:01.346,1361.0,321.0,-258.0,-261.0,-812.0,-827.0,126,127,102,80,66,476,465,477
2025-02-20 16:11:01.364,2727.0,-918.0,-418.0,-287.0,-904.0,-696.0,120,127,102,79,65,483,412,479
2025-02-20 16:11:01.382,4221.0,-4099.0,405.0,-199.0,-745.0,-228.0,117,129,102,78,65,486,389,467
2025-02-20 16:11:01.404,4436.0,-4380.0,1492.0,75.0,-146.0,84.0,118,130,104,78,65,348,420,458
2025-02-20 16:11:01.423,2497.0,-2226.0,1081.0,142.0,200.0,177.0,121,130,103,81,62,257,483,446
2025-02-20 16:11:01.440,541.0,-1071.0,716.0,96.0,240.0,193.0,121,128,104,85,58,271,498,439
2025-02-20 16:11:01.460,-196.0,-694.0,279.0,-14.0,115.0,211.0,119,129,103,88,57,404,514,453
2025-02-20 16:11:01.477,33.0,-751.0,458.0,-52.0,44.0,178.0,119,127,102,85,62,424,521,442
2025-02-20 16:11:01.497,140.0,-1107.0,622.0,8.0,78.0,147.0,119,128,104,82,65,512,474,457
2025-02-20 16:11:01.515,261.0,-1161.0,638.0,70.0,151.0,146.0,117,130,102,81,66,590,433,463
2025-02-20 16:11:01.535,209.0,-983.0,496.0,127.0,208.0,179.0,116,131,104,80,67,549,476,473
2025-02-20 16:11:01.555,-8.0,-720.0,470.0,130.0,224.0,227.0,117,131,104,80,69,496,503,469
2025-02-20 16:11:01.575,115.0,-409.0,411.0,79.0,244.0,244.0,118,130,104,80,70,428,485,455
2025-02-20 16:11:01.593,-30.0,-280.0,378.0,91.0,251.0,247.0,119,130,105,80,70,475,465,458
2025-02-20 16:11:01.612,-365.0,3.0,511.0,52.0,231.0,251.0,120,131,84,82,70,515,491,468
2025-02-20 16:11:01.630,-521.0,-95.0,123.0,57.0,182.0,227.0,122,130,68,83,69,539,485,478
2025-02-20 16:11:01.650,-455.0,15.0,118.0,74.0,151.0,153.0,124,128,105,83,70,575,487,474
2025-02-20 16:11:01.669,-650.0,300.0,166.0,91.0,138.0,59.0,126,127,104,84,70,570,482,479
2025-02-20 16:11:01.689,-913.0,625.0,-367.0,31.0,53.0,-49.0,127,127,104,84,70,520,474,472
2025-02-20 16:11:01.707,-1178.0,459.0,-680.0,40.0,-111.0,-162.0,126,127,105,81,70,386,452,466
2025-02-20 16:11:01.727,-1072.0,719.0,-632.0,121.0,-235.0,-322.0,125,128,105,80,70,378,449,453
2025-02-20 16:11:01.744,-526.0,978.0,-524.0,41.0,-431.0,-508.0,125,134,98,81,70,410,440,442
2025-02-20 16:11:01.764,256.0,394.0,-219.0,-97.0,-635.0,-573.0,122,130,105,82,71,406,415,453
2025-02-20 16:11:01.784,1917.0,-732.0,-70.0,-173.0,-770.0,-496.0,122,130,105,83,72,453,401,457
2025-02-20 16:11:01.800,2988.0,-2940.0,833.0,-152.0,-573.0,-264.0,122,131,91,84,71,487,391,451
2025-02-20 16:11:01.822,3205.0,-3566.0,1446.0,-3.0,-148.0,55.0,122,131,103,86,72,479,376,453
2025-02-20 16:11:01.841,2016.0,-2427.0,1014.0,102.0,151.0,179.0,122,130,105,88,71,425,468,460
2025-02-20 16:11:01.858,797.0,-1273.0,1036.0,77.0,222.0,196.0,125,127,104,90,68,399,512,462
2025-02-20 16:11:01.878,355.0,-833.0,574.0,-12.0,193.0,169.0,126,124,103,92,66,379,551,455
2025-02-20 16:11:01.897,157.0,-1009.0,542.0,-65.0,149.0,179.0,128,122,102,92,68,450,541,443
2025-02-20 16:11:01.913,318.0,-1285.0,522.0,-13.0,170.0,190.0,129,124,98,92,71,567,498,457
2025-02-20 16:11:01.936,258.0,-1326.0,564.0,48.0,202.0,218.0,129,126,90,91,73,586,459,494
2025-02-20 16:11:01.953,163.0,-1046.0,631.0,78.0,226.0,237.0,130,125,76,90,74,536,447,477
2025-02-20 16:11:01.973,130.0,-677.0,548.0,88.0,262.0,271.0,130,123,67,91,75,497,428,466
2025-02-20 16:11:01.993,-171.0,-500.0,561.0,86.0,250.0,300.0,131,118,60,88,74,450,426,452
2025-02-20 16:11:02.010,-132.0,-271.0,446.0,98.0,253.0,308.0,130,116,55,87,74,471,420,470
2025-02-20 16:11:02.030,-328.0,-175.0,147.0,104.0,261.0,283.0,131,114,53,88,75,425,436,495
2025-02-20 16:11:02.049,-394.0,46.0,131.0,96.0,241.0,255.0,130,112,54,87,72,437,460,496
2025-02-20 16:11:02.067,-543.0,100.0,-184.0,136.0,187.0,209.0,128,106,53,86,74,469,476,486
2025-02-20 16:11:02.085,-657.0,19.0,-209.0,191.0,139.0,152.0,124,97,52,81,74,485,484,475
2025-02-20 16:11:02.107,-814.0,267.0,-319.0,236.0,66.0,95.0,119,93,52,78,74,456,484,470
2025-02-20 16:11:02.125,-932.0,506.0,-650.0,253.0,-26.0,21.0,108,91,50,76,73,392,475,467
2025-02-20 16:11:02.145,-1494.0,822.0,-1259.0,277.0,-215.0,-119.0,97,87,49,72,70,404,448,462
2025-02-20 16:11:02.164,-1658.0,1185.0,-2156.0,271.0,-566.0,-267.0,87,87,48,69,65,440,447,438
2025-02-20 16:11:02.182,472.0,769.0,-2239.0,250.0,-1006.0,-279.0,83,92,48,69,64,481,473,439
2025-02-20 16:11:02.202,3263.0,-111.0,-605.0,224.0,-1154.0,-155.0,88,97,47,72,68,496,461,444
2025-02-20 16:11:02.219,3320.0,-487.0,1602.0,301.0,-969.0,-56.0,91,102,47,74,74,541,446,458
2025-02-20 16:11:02.237,3110.0,40.0,3165.0,313.0,-579.0,41.0,102,105,47,75,80,567,427,457
2025-02-20 16:11:02.259,2473.0,614.0,4233.0,151.0,-185.0,57.0,108,106,49,77,82,496,419,453
2025-02-20 16:11:02.272,1826.0,584.0,3754.0,-111.0,179.0,49.0,107,105,50,76,81,477,442,463
2025-02-20 16:11:02.297,1335.0,317.0,2180.0,-264.0,412.0,36.0,105,105,49,74,79,448,503,468
2025-02-20 16:11:02.316,1107.0,-158.0,1235.0,-271.0,463.0,22.0,103,103,50,76,78,382,538,473
2025-02-20 16:11:02.333,782.0,-414.0,921.0,-215.0,467.0,28.0,104,105,51,78,78,430,546,485
2025-02-20 16:11:02.353,296.0,-511.0,657.0,-150.0,428.0,59.0,99,106,52,78,76,444,519,495
2025-02-20 16:11:02.370,63.0,-277.0,559.0,-99.0,332.0,69.0,96,106,51,79,76,507,465,461
2025-02-20 16:11:02.391,-18.0,-202.0,765.0,-121.0,286.0,63.0,97,105,52,79,76,479,442,427
2025-02-20 16:11:02.410,-69.0,-164.0,676.0,-161.0,294.0,76.0,100,104,52,79,77,468,437,429
2025-02-20 16:11:02.428,-237.0,-244.0,395.0,-161.0,266.0,79.0,102,105,52,79,78,403,456,438
2025-02-20 16:11:02.447,-413.0,-488.0,402.0,-95.0,232.0,90.0,103,106,53,79,78,299,469,460
2025-02-20 16:11:02.468,-265.0,-326.0,371.0,-53.0,217.0,97.0,102,106,53,79,77,393,451,466
2025-02-20 16:11:02.485,-368.0,-182.0,291.0,-40.0,209.0,89.0,103,109,54,80,77,428,442,468
2025-02-20 16:11:02.503,-444.0,13.0,87.0,-44.0,175.0,82.0,107,109,54,79,78,406,436,471
2025-02-20 16:11:02.526,-608.0,-126.0,-135.0,-13.0,119.0,71.0,106,109,53,79,77,436,448,466
2025-02-20 16:11:02.543,-621.0,-45.0,-427.0,53.0,54.0,28.0,103,109,53,78,73,480,443,462
2025-02-20 16:11:02.562,-1237.0,533.0,-1238.0,119.0,-105.0,-73.0,99,108,51,78,69,506,422,456
2025-02-20 16:11:02.583,-1760.0,753.0,-2296.0,271.0,-434.0,-242.0,92,111,50,75,64,492,455,468
2025-02-20 16:11:02.600,196.0,694.0,-2000.0,285.0,-826.0,-237.0,88,115,50,76,65,466,463,485
2025-02-20 16:11:02.620,1909.0,250.0,-529.0,219.0,-950.0,-157.0,91,116,52,77,68,465,462,488
2025-02-20 16:11:02.637,2519.0,-93.0,885.0,225.0,-884.0,-99.0,100,115,50,78,71,488,431,484
2025-02-20 16:11:02.657,2758.0,-362.0,2374.0,284.0,-686.0,-29.0,111,120,50,80,75,470,409,472
2025-02-20 16:11:02.677,2752.0,-197.0,3174.0,304.0,-399.0,14.0,122,125,52,83,80,457,415,447
2025-02-20 16:11:02.693,1876.0,415.0,3706.0,138.0,-19.0,40.0,125,127,54,85,81,512,424,450
2025-02-20 16:11:02.715,1508.0,322.0,2961.0,-107.0,249.0,67.0,127,127,54,84,78,508,496,461
2025-02-20 16:11:02.732,1208.0,122.0,1952.0,-265.0,395.0,91.0,128,127,57,85,78,475,541,464
2025-02-20 16:11:02.751,1117.0,-281.0,933.0,-250.0,409.0,121.0,126,127,60,87,81,480,561,461
2025-02-20 16:11:02.771,671.0,-576.0,1025.0,-166.0,381.0,153.0,129,126,60,86,82,507,533,465
2025-02-20 16:11:02.791,532.0,-491.0,1133.0,-107.0,367.0,171.0,129,127,57,87,84,439,493,471
2025-02-20 16:11:02.809,393.0,-100.0,980.0,-143.0,361.0,165.0,130,126,64,89,81,474,462,467
2025-02-20 16:11:02.828,133.0,-34.0,982.0,-220.0,360.0,167.0,130,125,64,90,81,478,443,457
2025-02-20 16:11:02.846,-1.0,-101.0,584.0,-216.0,358.0,161.0,131,121,67,91,81,508,437,443
2025-02-20 16:11:02.866,-51.0,-212.0,610.0,-215.0,338.0,169.0,132,111,69,92,81,506,434,445
2025-02-20 16:11:02.886,-98.0,-301.0,544.0,-171.0,366.0,167.0,134,92,69,93,81,478,448,451
2025-02-20 16:11:02.903,-258.0,-180.0,354.0,-79.0,390.0,142.0,134,72,68,93,81,453,461,475
2025-02-20 16:11:02.923,-627.0,100.0,44.0,-20.0,332.0,108.0,133,57,64,90,77,434,464,485
2025-02-20 16:11:02.943,-781.0,443.0,-300.0,-4.0,244.0,53.0,132,52,59,84,71,432,478,482
2025-02-20 16:11:02.960,-891.0,722.0,-449.0,34.0,153.0,-12.0,130,53,54,77,65,453,472,474
2025-02-20 16:11:02.980,-920.0,1248.0,-1328.0,102.0,24.0,-145.0,124,52,53,73,61,471,463,467
2025-02-20 16:11:03.001,-1240.0,1601.0,-1978.0,166.0,-238.0,-384.0,116,52,50,72,57,469,447,470
2025-02-20 16:11:03.017,-927.0,1323.0,-2428.0,172.0,-542.0,-525.0,106,50,47,69,55,449,449,463
2025-02-20 16:11:03.038,1012.0,132.0,-1988.0,250.0,-903.0,-494.0,104,48,46,70,56,405,445,479
2025-02-20 16:11:03.058,3563.0,-605.0,-451.0,317.0,-963.0,-339.0,108,50,46,72,60,475,401,489
2025-02-20 16:11:03.075,3919.0,-1405.0,1603.0,346.0,-815.0,-195.0,118,52,47,71,63,552,413,489
2025-02-20 16:11:03.095,3028.0,-1189.0,3534.0,306.0,-458.0,-56.0,126,53,48,72,62,513,437,465
2025-02-20 16:11:03.112,2567.0,-472.0,4449.0,101.0,-68.0,47.0,127,54,50,74,60,433,466,457
2025-02-20 16:11:03.132,1766.0,-141.0,3198.0,-152.0,253.0,86.0,129,54,50,76,61,382,502,447
2025-02-20 16:11:03.152,1376.0,-547.0,2041.0,-279.0,377.0,130.0,129,55,53,77,62,318,519,414
2025-02-20 16:11:03.169,1021.0,-719.0,1228.0,-274.0,447.0,147.0,130,55,53,78,64,451,526,439
2025-02-20 16:11:03.189,495.0,-685.0,686.0,-221.0,435.0,149.0,130,56,52,77,66,524,526,479
2025-02-20 16:11:03.209,458.0,-609.0,540.0,-194.0,416.0,175.0,127,57,52,78,66,552,500,488
2025-02-20 16:11:03.227,116.0,-432.0,267.0,-208.0,361.0,183.0,129,56,52,76,67,484,469,471
2025-02-20 16:11:03.247,-169.0,-493.0,174.0,-186.0,280.0,168.0,129,57,53,75,66,395,462,468
2025-02-20 16:11:03.267,12.0,-625.0,300.0,-149.0,253.0,189.0,129,57,54,77,66,428,447,471
2025-02-20 16:11:03.283,-439.0,-488.0,122.0,-115.0,213.0,201.0,128,58,55,75,65,465,439,466
2025-02-20 16:11:03.303,-316.0,-319.0,120.0,-89.0,163.0,195.0,130,58,54,76,64,482,462,481
2025-02-20 16:11:03.321,-330.0,-294.0,128.0,-80.0,158.0,170.0,130,56,53,75,64,476,472,488
2025-02-20 16:11:03.340,-427.0,-279.0,49.0,-51.0,156.0,142.0,128,56,55,75,64,471,453,476
2025-02-20 16:11:03.361,-439.0,-246.0,92.0,20.0,142.0,119.0,128,56,55,77,66,424,441,466
2025-02-20 16:11:03.378,-648.0,-65.0,-120.0,52.0,118.0,108.0,127,56,56,76,66,414,436,467
2025-02-20 16:11:03.398,-753.0,463.0,-412.0,55.0,51.0,62.0,124,58,56,76,67,414,440,457
2025-02-20 16:11:03.418,-1086.0,1188.0,-1213.0,85.0,-51.0,-73.0,125,58,55,75,65,399,440,449
2025-02-20 16:11:03.436,-1779.0,1732.0,-1938.0,204.0,-264.0,-345.0,122,57,54,72,59,386,451,440
2025-02-20 16:11:03.456,-1074.0,1961.0,-2495.0,219.0,-669.0,-545.0,118,54,54,70,57,429,468,458
2025-02-20 16:11:03.465,1519.0,1246.0,-1583.0,101.0,-975.0,-581.0,119,53,53,70,59,488,482,476
2025-02-20 16:11:03.491,4501.0,-1714.0,141.0,-8.0,-1059.0,-372.0,124,55,53,71,62,596,458,485
2025-02-20 16:11:03.513,4342.0,-4292.0,2598.0,276.0,-625.0,-99.0,128,56,53,70,64,607,420,475
2025-02-20 16:11:03.530,2429.0,-1388.0,3354.0,315.0,-82.0,10.0,134,57,54,73,61,534,370,459
2025-02-20 16:11:03.550,1051.0,4.0,2658.0,35.0,107.0,14.0,136,58,55,75,58,366,438,450
2025-02-20 16:11:03.570,688.0,-478.0,1821.0,-127.0,184.0,61.0,137,57,56,77,58,358,496,437
2025-02-20 16:11:03.586,375.0,-647.0,1334.0,-58.0,217.0,22.0,136,57,54,77,62,441,539,441
2025-02-20 16:11:03.606,401.0,-809.0,960.0,74.0,234.0,-39.0,136,59,54,76,64,458,553,429
2025-02-20 16:11:03.627,128.0,-627.0,780.0,119.0,240.0,-54.0,137,60,53,77,67,551,515,452
2025-02-20 16:11:03.642,125.0,-413.0,686.0,143.0,245.0,-74.0,139,59,53,78,69,581,486,465
2025-02-20 16:11:03.664,-34.0,-473.0,695.0,190.0,229.0,-94.0,137,60,54,79,72,535,465,486
2025-02-20 16:11:03.677,-15.0,-519.0,666.0,279.0,215.0,-113.0,138,58,54,80,71,427,453,472
2025-02-20 16:11:03.702,-162.0,-144.0,596.0,299.0,200.0,-134.0,137,58,54,80,72,381,441,460
2025-02-20 16:11:03.722,-280.0,-165.0,602.0,298.0,189.0,-153.0,138,57,54,80,72,385,431,455
2025-02-20 16:11:03.742,-239.0,-254.0,558.0,285.0,160.0,-145.0,138,57,52,80,70,401,454,458
2025-02-20 16:11:03.758,-97.0,-224.0,598.0,247.0,80.0,-105.0,139,58,52,81,70,431,459,467
2025-02-20 16:11:03.779,222.0,-626.0,913.0,198.0,51.0,-66.0,140,57,53,80,70,474,427,478
2025-02-20 16:11:03.794,624.0,-1167.0,1300.0,194.0,98.0,24.0,140,58,53,80,70,516,476,471
2025-02-20 16:11:03.816,828.0,-1181.0,1504.0,104.0,130.0,132.0,140,58,54,80,72,544,515,466
2025-02-20 16:11:03.836,930.0,-1730.0,1470.0,-39.0,141.0,384.0,140,57,52,81,71,513,514,447
2025-02-20 16:11:03.853,1195.0,-1330.0,1532.0,-216.0,91.0,567.0,143,57,53,80,70,478,489,432
2025-02-20 16:11:03.872,1395.0,-561.0,1706.0,-309.0,55.0,653.0,144,57,53,79,69,465,469,446
2025-02-20 16:11:03.889,1147.0,-259.0,1863.0,-346.0,90.0,642.0,145,57,53,79,69,476,428,456
2025-02-20 16:11:03.909,143.0,1558.0,1442.0,-239.0,96.0,473.0,147,57,54,79,69,502,399,474
2025-02-20 16:11:03.931,-190.0,2461.0,1003.0,-205.0,64.0,239.0,146,57,54,79,68,520,401,479
2025-02-20 16:11:03.951,-305.0,2354.0,1098.0,-164.0,69.0,149.0,147,58,53,79,66,534,431,486
2025-02-20 16:11:03.968,-426.0,2156.0,1178.0,-19.0,73.0,21.0,148,58,56,78,66,545,459,498
2025-02-20 16:11:03.986,-309.0,2289.0,1294.0,36.0,94.0,-65.0,148,59,54,78,67,507,471,513
2025-02-20 16:11:04.006,-326.0,1526.0,1079.0,54.0,106.0,-150.0,147,59,55,79,66,464,476,506
2025-02-20 16:11:04.023,-209.0,706.0,942.0,56.0,85.0,-205.0,148,58,55,78,66,450,464,497
2025-02-20 16:11:04.046,-269.0,372.0,797.0,47.0,48.0,-225.0,149,59,55,78,65,441,469,488
2025-02-20 16:11:04.060,-290.0,205.0,737.0,71.0,5.0,-285.0,147,59,55,77,66,476,469,468
2025-02-20 16:11:04.082,-292.0,148.0,652.0,136.0,-31.0,-356.0,147,60,54,77,65,481,476,446
2025-02-20 16:11:04.103,-166.0,-303.0,656.0,196.0,-65.0,-378.0,145,58,54,76,65,487,477,429
2025-02-20 16:11:04.119,84.0,-642.0,902.0,298.0,-80.0,-322.0,142,56,53,77,65,490,477,442
2025-02-20 16:11:04.139,36.0,-344.0,997.0,282.0,-59.0,-262.0,142,56,52,77,65,476,472,440
2025-02-20 16:11:04.160,-116.0,24.0,921.0,170.0,-95.0,-275.0,143,56,53,78,66,463,464,441
2025-02-20 16:11:04.177,43.0,-598.0,889.0,85.0,-133.0,-241.0,144,55,53,79,67,447,482,440
2025-02-20 16:11:04.197,246.0,-1038.0,1041.0,104.0,-137.0,-131.0,143,56,52,79,66,393,491,440
2025-02-20 16:11:04.212,393.0,-930.0,1272.0,137.0,-95.0,-57.0,143,56,52,79,68,433,472,443
2025-02-20 16:11:04.230,533.0,-1010.0,1505.0,84.0,-57.0,32.0,142,56,53,79,67,496,442,449
2025-02-20 16:11:04.254,890.0,-1484.0,1653.0,5.0,0.0,179.0,143,55,53,79,68,531,425,460
2025-02-20 16:11:04.271,1050.0,-1888.0,1477.0,-46.0,18.0,364.0,143,55,52,78,66,489,439,453
2025-02-20 16:11:04.290,1534.0,-1841.0,1347.0,-100.0,48.0,602.0,146,55,52,77,65,415,456,446
2025-02-20 16:11:04.311,1500.0,-270.0,1708.0,-248.0,39.0,676.0,146,57,53,77,65,406,498,459
2025-02-20 16:11:04.329,1046.0,746.0,1698.0,-324.0,71.0,601.0,146,57,51,75,65,421,497,452
2025-02-20 16:11:04.349,366.0,1849.0,1540.0,-243.0,104.0,415.0,147,57,52,76,65,452,493,466
2025-02-20 16:11:04.369,288.0,1581.0,1407.0,-73.0,163.0,235.0,147,58,52,75,64,472,492,474
2025-02-20 16:11:04.386,-162.0,2015.0,1354.0,24.0,163.0,137.0,147,58,54,76,64,476,483,479
2025-02-20 16:11:04.405,-268.0,2321.0,1507.0,-32.0,156.0,45.0,148,58,52,75,63,499,472,482
2025-02-20 16:11:04.422,-77.0,1605.0,1598.0,-96.0,210.0,-21.0,147,57,53,75,63,472,447,474
2025-02-20 16:11:04.443,-243.0,1027.0,1309.0,-138.0,268.0,-49.0,147,58,53,75,63,461,425,481
2025-02-20 16:11:04.462,-173.0,193.0,1256.0,-147.0,281.0,-63.0,149,59,54,73,63,458,400,485
2025-02-20 16:11:04.480,-360.0,-14.0,983.0,-182.0,296.0,-68.0,146,58,54,73,64,478,380,474
2025-02-20 16:11:04.500,-456.0,-287.0,669.0,-209.0,259.0,-84.0,146,58,54,72,64,532,421,476
2025-02-20 16:11:04.521,-250.0,-467.0,602.0,-201.0,270.0,-73.0,145,58,57,71,64,557,457,483
2025-02-20 16:11:04.538,-445.0,-545.0,153.0,-145.0,280.0,-66.0,142,61,58,72,65,572,480,496
2025-02-20 16:11:04.557,-461.0,-676.0,12.0,-64.0,251.0,-43.0,141,62,60,73,66,569,489,497
2025-02-20 16:11:04.578,-794.0,-557.0,-224.0,34.0,201.0,-18.0,141,62,63,79,71,512,442,496
2025-02-20 16:11:04.594,-662.0,-484.0,-73.0,79.0,141.0,14.0,140,65,67,87,76,467,387,490
2025-02-20 16:11:04.612,-587.0,-155.0,53.0,114.0,138.0,13.0,142,68,71,95,83,474,424,489
2025-02-20 16:11:04.631,-612.0,-87.0,55.0,130.0,122.0,-4.0,138,74,76,104,87,449,442,480
2025-02-20 16:11:04.652,-975.0,-91.0,-2.0,138.0,121.0,-16.0,136,76,78,109,92,435,459,471
2025-02-20 16:11:04.672,-894.0,301.0,-117.0,191.0,76.0,-20.0,137,81,80,113,95,422,484,464
2025-02-20 16:11:04.689,-775.0,1120.0,-630.0,251.0,-2.0,-114.0,135,85,82,117,96,405,512,455
2025-02-20 16:11:04.709,-952.0,1164.0,-1105.0,205.0,-128.0,-249.0,135,87,83,119,101,406,506,447
2025-02-20 16:11:04.726,-1074.0,1482.0,-1376.0,139.0,-294.0,-484.0,135,90,87,119,113,404,509,443
2025-02-20 16:11:04.746,-665.0,1092.0,-1511.0,50.0,-529.0,-677.0,134,99,91,122,123,343,500,457
2025-02-20 16:11:04.767,1466.0,67.0,-830.0,-41.0,-817.0,-775.0,130,107,93,123,127,393,475,452
2025-02-20 16:11:04.786,3656.0,-2088.0,257.0,15.0,-1007.0,-484.0,131,113,96,127,128,443,449,454
2025-02-20 16:11:04.804,3611.0,-3268.0,1932.0,-117.0,-662.0,-135.0,140,117,99,130,132,391,449,456
2025-02-20 16:11:04.823,3483.0,-3433.0,2061.0,49.0,-170.0,62.0,144,118,102,129,132,353,499,461
2025-02-20 16:11:04.843,1908.0,-2042.0,1490.0,91.0,65.0,65.0,145,119,102,130,131,277,508,458
2025-02-20 16:11:04.860,598.0,-883.0,1479.0,30.0,148.0,85.0,144,113,101,130,131,310,497,448
2025-02-20 16:11:04.880,235.0,-917.0,985.0,-71.0,118.0,130.0,146,110,100,129,132,447,499,444
2025-02-20 16:11:04.900,220.0,-1128.0,639.0,-113.0,85.0,192.0,144,109,99,129,131,504,475,456
2025-02-20 16:11:04.917,285.0,-1100.0,818.0,-86.0,96.0,219.0,145,109,101,130,131,496,434,458
2025-02-20 16:11:04.938,288.0,-1122.0,792.0,-27.0,128.0,218.0,144,113,101,130,131,431,355,462
2025-02-20 16:11:04.956,217.0,-933.0,772.0,-12.0,178.0,215.0,145,116,101,130,132,457,388,473
2025-02-20 16:11:04.974,252.0,-841.0,732.0,-54.0,229.0,209.0,144,118,102,131,131,489,400,466
2025-02-20 16:11:04.995,98.0,-564.0,523.0,-91.0,216.0,223.0,144,118,102,131,132,514,424,462
2025-02-20 16:11:05.012,6.0,-456.0,533.0,-101.0,205.0,242.0,144,118,102,131,131,430,483,468
2025-02-20 16:11:05.032,-86.0,-454.0,545.0,-110.0,203.0,272.0,144,118,102,131,132,396,464,467
2025-02-20 16:11:05.053,-89.0,-468.0,418.0,-111.0,191.0,303.0,144,116,103,133,131,406,435,466
2025-02-20 16:11:05.070,-63.0,-435.0,324.0,-92.0,213.0,306.0,145,113,102,132,131,449,410,463
2025-02-20 16:11:05.090,-382.0,-90.0,252.0,-46.0,199.0,267.0,143,107,99,131,130,459,509,456
2025-02-20 16:11:05.109,-492.0,146.0,-163.0,-8.0,112.0,182.0,143,103,105,131,129,435,511,460
2025-02-20 16:11:05.127,-739.0,253.0,9.0,35.0,86.0,120.0,141,101,100,129,128,445,513,454
2025-02-20 16:11:05.147,-852.0,815.0,-136.0,167.0,49.0,102.0,142,100,98,130,128,474,518,449
2025-02-20 16:11:05.164,-1008.0,1075.0,-543.0,254.0,8.0,23.0,140,100,99,130,127,481,506,451
2025-02-20 16:11:05.185,-1246.0,1662.0,-1009.0,370.0,-74.0,-167.0,138,102,99,130,126,507,440,450
2025-02-20 16:11:05.204,-1371.0,1905.0,-1222.0,405.0,-252.0,-364.0,136,104,99,131,128,492,437,448
2025-02-20 16:11:05.222,-698.0,1250.0,-586.0,279.0,-410.0,-569.0,135,111,101,131,129,490,453,461
2025-02-20 16:11:05.242,818.0,567.0,245.0,-58.0,-846.0,-637.0,137,114,100,131,132,487,446,478
2025-02-20 16:11:05.261,3423.0,-1355.0,734.0,-192.0,-927.0,-403.0,143,117,102,132,132,523,440,478
2025-02-20 16:11:05.278,3316.0,-3840.0,2085.0,-205.0,-482.0,-164.0,144,118,103,132,134,519,481,482
2025-02-20 16:11:05.296,2390.0,-3860.0,1885.0,202.0,-102.0,49.0,146,118,104,133,134,403,485,458
2025-02-20 16:11:05.319,1133.0,-1515.0,1591.0,158.0,58.0,39.0,146,114,102,133,133,299,474,457
2025-02-20 16:11:05.334,37.0,-591.0,1179.0,-7.0,126.0,19.0,145,102,98,133,130,272,478,454
2025-02-20 16:11:05.356,36.0,-548.0,953.0,-60.0,127.0,10.0,146,98,94,131,126,391,487,464
2025-02-20 16:11:05.373,-53.0,-850.0,800.0,-7.0,162.0,0.0,148,95,90,132,122,366,487,464
2025-02-20 16:11:05.393,-43.0,-794.0,707.0,89.0,188.0,-1.0,144,92,86,130,115,493,476,456
2025-02-20 16:11:05.413,-37.0,-695.0,771.0,144.0,199.0,-11.0,145,95,85,126,102,563,467,485
2025-02-20 16:11:05.430,-58.0,-499.0,629.0,127.0,181.0,-12.0,146,100,82,118,92,536,472,464
2025-02-20 16:11:05.448,-154.0,-474.0,697.0,119.0,146.0,-24.0,146,97,78,112,85,428,460,477
2025-02-20 16:11:05.471,-182.0,-381.0,555.0,147.0,109.0,-27.0,145,94,78,109,80,406,445,484
2025-02-20 16:11:05.488,-245.0,-382.0,557.0,178.0,82.0,-48.0,145,90,76,107,79,408,447,476
2025-02-20 16:11:05.508,-260.0,-325.0,520.0,202.0,57.0,-54.0,145,86,75,105,79,420,425,466
2025-02-20 16:11:05.528,-257.0,-282.0,657.0,210.0,45.0,-69.0,144,83,73,104,78,460,418,463
2025-02-20 16:11:05.545,-49.0,-323.0,615.0,209.0,54.0,-92.0,144,80,70,105,73,455,441,465
2025-02-20 16:11:05.562,15.0,-510.0,847.0,272.0,79.0,-110.0,143,76,67,105,69,488,463,462
2025-02-20 16:11:05.582,42.0,-467.0,733.0,294.0,87.0,-104.0,144,74,67,104,67,535,485,452
2025-02-20 16:11:05.602,82.0,-598.0,800.0,313.0,99.0,-92.0,144,70,64,103,69,585,475,444
2025-02-20 16:11:05.622,229.0,-923.0,1055.0,315.0,130.0,-24.0,144,68,60,98,66,583,460,440
2025-02-20 16:11:05.639,375.0,-779.0,1377.0,218.0,155.0,86.0,143,63,56,92,63,563,432,442
2025-02-20 16:11:05.659,515.0,-1031.0,1609.0,69.0,174.0,230.0,142,61,53,85,62,529,424,435
2025-02-20 16:11:05.679,893.0,-1323.0,1417.0,-110.0,158.0,472.0,143,57,52,81,60,471,432,427
2025-02-20 16:11:05.697,863.0,-704.0,1199.0,-235.0,99.0,589.0,144,58,53,78,60,473,440,431
2025-02-20 16:11:05.713,397.0,76.0,1391.0,-285.0,8.0,564.0,145,61,53,77,60,476,461,431
2025-02-20 16:11:05.737,82.0,1114.0,1535.0,-220.0,10.0,400.0,146,61,53,78,61,483,470,437
2025-02-20 16:11:05.754,155.0,1390.0,1449.0,-141.0,96.0,209.0,146,62,55,80,61,494,429,461
2025-02-20 16:11:05.774,-317.0,1449.0,1054.0,-126.0,135.0,148.0,147,63,55,81,61,487,444,469
2025-02-20 16:11:05.791,-700.0,1548.0,865.0,-98.0,70.0,69.0,146,63,55,80,62,492,505,478
2025-02-20 16:11:05.810,-611.0,1868.0,950.0,-71.0,21.0,-23.0,147,64,57,80,62,509,522,494
2025-02-20 16:11:05.831,-497.0,1665.0,954.0,-41.0,38.0,-118.0,147,63,57,81,62,494,529,500
2025-02-20 16:11:05.848,-415.0,1086.0,949.0,-13.0,77.0,-193.0,148,64,57,81,62,488,546,497
2025-02-20 16:11:05.868,-479.0,759.0,788.0,36.0,81.0,-252.0,148,63,57,79,62,471,534,482
2025-02-20 16:11:05.888,-462.0,514.0,562.0,73.0,28.0,-306.0,147,63,54,79,62,464,506,475
2025-02-20 16:11:05.905,-369.0,336.0,557.0,75.0,-38.0,-348.0,147,61,55,79,61,465,475,467
2025-02-20 16:11:05.926,-147.0,42.0,601.0,53.0,-94.0,-387.0,147,61,54,79,63,465,449,461
2025-02-20 16:11:05.945,148.0,-718.0,866.0,79.0,-135.0,-360.0,146,61,55,81,64,492,422,458
2025-02-20 16:11:05.963,427.0,-913.0,1242.0,119.0,-105.0,-295.0,145,61,55,83,66,494,433,459
2025-02-20 16:11:05.983,340.0,-890.0,1234.0,102.0,-39.0,-224.0,144,60,55,84,66,486,461,459
2025-02-20 16:11:06.000,255.0,-773.0,1142.0,36.0,-9.0,-166.0,144,59,53,85,66,498,471,468
2025-02-20 16:11:06.020,309.0,-1184.0,958.0,10.0,-23.0,-106.0,145,58,52,84,66,487,481,480
2025-02-20 16:11:06.040,665.0,-1875.0,967.0,45.0,-12.0,11.0,145,59,51,83,65,453,493,456
2025-02-20 16:11:06.057,1004.0,-2150.0,1345.0,46.0,43.0,161.0,146,58,50,80,62,479,489,460
2025-02-20 16:11:06.077,1182.0,-1927.0,1323.0,-26.0,90.0,349.0,146,57,49,76,60,484,486,468
2025-02-20 16:11:06.097,1345.0,-2097.0,810.0,-144.0,98.0,576.0,145,55,50,74,58,475,496,469
2025-02-20 16:11:06.114,827.0,-235.0,372.0,-184.0,-23.0,677.0,147,56,49,72,57,458,508,462
2025-02-20 16:11:06.135,496.0,1196.0,869.0,-256.0,-120.0,622.0,146,56,50,71,57,460,537,461
2025-02-20 16:11:06.154,-256.0,2746.0,1395.0,-297.0,-126.0,393.0,146,56,49,71,57,455,539,457
2025-02-20 16:11:06.172,-556.0,3052.0,2169.0,-51.0,-30.0,66.0,148,57,51,72,59,468,520,467
2025-02-20 16:11:06.191,-352.0,2012.0,2517.0,108.0,91.0,-38.0,147,59,52,74,60,470,483,485
2025-02-20 16:11:06.212,-127.0,1393.0,2342.0,130.0,224.0,-109.0,147,59,53,76,61,496,441,494
2025-02-20 16:11:06.229,-76.0,726.0,1862.0,-23.0,269.0,-154.0,147,60,57,76,61,490,393,487
2025-02-20 16:11:06.247,-46.0,-273.0,1408.0,-189.0,257.0,-149.0,147,60,57,75,61,455,367,482
2025-02-20 16:11:06.266,77.0,-841.0,1087.0,-296.0,259.0,-116.0,146,60,58,76,62,451,372,477
2025-02-20 16:11:06.286,-98.0,-1230.0,522.0,-282.0,264.0,-50.0,144,63,61,77,63,474,390,452
2025-02-20 16:11:06.306,-509.0,-833.0,63.0,-246.0,235.0,-12.0,144,66,64,78,63,426,404,428
2025-02-20 16:11:06.321,-414.0,-658.0,-14.0,-201.0,212.0,6.0,144,69,67,81,64,420,434,437
2025-02-20 16:11:06.344,-653.0,-501.0,7.0,-171.0,191.0,-3.0,144,75,71,83,66,496,481,452
2025-02-20 16:11:06.363,-625.0,-444.0,-107.0,-90.0,166.0,0.0,143,82,76,85,68,525,477,489
2025-02-20 16:11:06.381,-608.0,-347.0,-13.0,32.0,154.0,4.0,143,89,80,88,68,505,440,499
2025-02-20 16:11:06.401,-644.0,-67.0,-27.0,140.0,137.0,9.0,142,95,84,92,71,499,429,491
2025-02-20 16:11:06.420,-717.0,545.0,-87.0,171.0,124.0,-19.0,141,98,85,98,72,478,445,497
2025-02-20 16:11:06.436,-883.0,759.0,-409.0,147.0,49.0,-81.0,140,104,89,97,74,472,446,480
2025-02-20 16:11:06.458,-888.0,1169.0,-839.0,194.0,-10.0,-204.0,140,106,93,94,71,466,449,470
2025-02-20 16:11:06.478,-1167.0,1593.0,-1329.0,198.0,-181.0,-406.0,138,108,95,93,68,456,466,463
2025-02-20 16:11:06.495,-778.0,1299.0,-1365.0,127.0,-407.0,-572.0,134,111,97,94,65,450,484,457
2025-02-20 16:11:06.515,391.0,484.0,-1012.0,50.0,-650.0,-623.0,125,113,98,94,65,437,483,462
2025-02-20 16:11:06.532,2576.0,-1108.0,-287.0,29.0,-824.0,-523.0,121,118,99,95,67,382,467,465
2025-02-20 16:11:06.553,3105.0,-2696.0,1701.0,129.0,-669.0,-254.0,125,124,101,96,69,443,452,478
2025-02-20 16:11:06.572,3099.0,-2395.0,2446.0,88.0,-238.0,-2.0,127,125,104,96,68,456,458,474
2025-02-20 16:11:06.587,2256.0,-2222.0,2328.0,61.0,67.0,101.0,129,125,101,97,66,342,475,469
2025-02-20 16:11:06.609,891.0,-1319.0,1590.0,24.0,168.0,111.0,128,124,102,97,63,301,463,448
2025-02-20 16:11:06.630,331.0,-1106.0,1155.0,-41.0,163.0,110.0,128,122,103,97,62,293,457,440
2025-02-20 16:11:06.646,231.0,-1010.0,831.0,-70.0,137.0,113.0,129,121,101,97,65,436,456,450
2025-02-20 16:11:06.666,124.0,-1042.0,732.0,-69.0,117.0,120.0,129,123,102,96,68,531,438,464
2025-02-20 16:11:06.684,188.0,-939.0,733.0,-65.0,124.0,127.0,130,125,102,94,71,554,431,470
2025-02-20 16:11:06.703,169.0,-841.0,656.0,-47.0,145.0,143.0,131,125,102,94,71,510,453,470
2025-02-20 16:11:06.724,80.0,-833.0,567.0,-5.0,156.0,156.0,130,126,102,94,72,441,454,451
2025-02-20 16:11:06.735,-64.0,-555.0,574.0,8.0,167.0,170.0,131,127,100,94,72,413,444,445
2025-02-20 16:11:06.761,-146.0,-453.0,551.0,-7.0,172.0,178.0,132,126,102,94,71,422,443,463
2025-02-20 16:11:06.781,-154.0,-379.0,604.0,-41.0,176.0,188.0,131,125,102,94,70,431,476,465
2025-02-20 16:11:06.799,-221.0,-345.0,468.0,-55.0,181.0,212.0,133,124,102,96,69,385,487,466
2025-02-20 16:11:06.819,-291.0,-250.0,409.0,-48.0,174.0,227.0,132,121,101,96,69,389,468,452
2025-02-20 16:11:06.836,-461.0,-209.0,425.0,-39.0,161.0,209.0,133,121,101,96,69,436,470,454
2025-02-20 16:11:06.855,-343.0,-220.0,394.0,7.0,183.0,183.0,136,119,101,96,70,486,499,455
2025-02-20 16:11:06.875,-547.0,-126.0,182.0,88.0,194.0,139.0,134,120,101,97,70,506,504,460
2025-02-20 16:11:06.896,-814.0,699.0,-110.0,112.0,152.0,99.0,135,118,99,96,70,489,485,456
2025-02-20 16:11:06.913,-1288.0,1593.0,-1143.0,34.0,18.0,-66.0,134,119,100,87,67,464,459,441
2025-02-20 16:11:06.933,-1788.0,1475.0,-1638.0,114.0,-219.0,-293.0,132,121,105,84,62,470,441,443
2025-02-20 16:11:06.942,-1315.0,1346.0,-1536.0,233.0,-458.0,-474.0,128,121,102,81,62,481,435,453
2025-02-20 16:11:06.970,436.0,805.0,-852.0,234.0,-792.0,-538.0,124,123,98,85,66,471,409,458
2025-02-20 16:11:06.990,2865.0,-5.0,171.0,55.0,-963.0,-490.0,124,126,101,88,72,471,365,470
2025-02-20 16:11:07.005,3748.0,-3345.0,2936.0,23.0,-618.0,-269.0,128,126,102,93,74,481,388,481
2025-02-20 16:11:07.028,3437.0,-2772.0,3073.0,59.0,-18.0,28.0,130,127,104,99,77,440,443,461
2025-02-20 16:11:07.048,1792.0,-1533.0,2063.0,2.0,150.0,143.0,131,125,103,101,71,311,503,450
2025-02-20 16:11:07.065,187.0,-712.0,1438.0,-117.0,173.0,140.0,133,122,101,100,68,322,542,454
2025-02-20 16:11:07.084,-87.0,-519.0,642.0,-148.0,103.0,75.0,134,120,101,101,68,409,565,462
2025-02-20 16:11:07.104,-44.0,-946.0,547.0,-91.0,70.0,21.0,134,121,102,99,70,483,545,466
2025-02-20 16:11:07.122,60.0,-1153.0,558.0,26.0,88.0,34.0,134,123,102,99,73,523,492,455
2025-02-20 16:11:07.142,171.0,-921.0,661.0,98.0,102.0,46.0,135,126,103,98,73,593,451,458
2025-02-20 16:11:07.159,122.0,-627.0,848.0,116.0,118.0,38.0,135,124,101,99,75,585,499,466
2025-02-20 16:11:07.179,-74.0,-314.0,824.0,105.0,136.0,34.0,136,118,98,98,74,438,508,475
2025-02-20 16:11:07.199,-351.0,-146.0,868.0,74.0,141.0,31.0,135,112,93,100,73,391,441,473
2025-02-20 16:11:07.215,-344.0,-293.0,752.0,90.0,149.0,27.0,136,107,88,102,73,395,437,465
2025-02-20 16:11:07.237,-373.0,-213.0,766.0,136.0,162.0,9.0,137,102,81,103,73,441,467,465
2025-02-20 16:11:07.256,-354.0,-237.0,700.0,244.0,186.0,-20.0,138,93,78,103,72,475,474,479
2025-02-20 16:11:07.272,-310.0,-201.0,545.0,314.0,201.0,-68.0,138,86,74,100,71,463,457,485
2025-02-20 16:11:07.294,-259.0,-213.0,555.0,363.0,189.0,-94.0,138,80,70,101,66,492,481,472
2025-02-20 16:11:07.314,-297.0,-548.0,362.0,377.0,151.0,-94.0,138,74,64,99,69,546,510,459
2025-02-20 16:11:07.331,62.0,-1041.0,477.0,375.0,98.0,-37.0,139,65,57,93,67,573,477,452
2025-02-20 16:11:07.351,479.0,-1664.0,1234.0,262.0,70.0,114.0,139,63,53,87,64,581,429,446
2025-02-20 16:11:07.367,853.0,-1705.0,1792.0,65.0,58.0,325.0,142,60,52,83,62,510,411,442
2025-02-20 16:11:07.387,1454.0,-2169.0,2035.0,-140.0,102.0,554.0,141,60,52,78,59,460,429,425
2025-02-20 16:11:07.403,1252.0,-788.0,1552.0,-222.0,97.0,697.0,144,61,51,76,58,467,434,429
2025-02-20 16:11:07.422,330.0,830.0,1388.0,-258.0,20.0,612.0,145,63,52,75,59,438,450,443
2025-02-20 16:11:07.445,-481.0,2644.0,1305.0,-221.0,21.0,288.0,145,63,52,77,60,471,440,452
2025-02-20 16:11:07.465,-298.0,2190.0,1308.0,-197.0,78.0,143.0,145,65,54,78,59,469,441,443
2025-02-20 16:11:07.483,-690.0,2523.0,1045.0,-218.0,45.0,67.0,144,64,55,77,59,488,452,466
2025-02-20 16:11:07.502,-573.0,2181.0,1175.0,-91.0,42.0,-91.0,147,64,51,77,59,521,464,485
2025-02-20 16:11:07.523,-280.0,1315.0,1169.0,66.0,99.0,-158.0,146,65,55,78,60,528,477,503
2025-02-20 16:11:07.538,-311.0,1013.0,848.0,102.0,118.0,-222.0,146,65,55,77,60,515,480,508
2025-02-20 16:11:07.560,-374.0,535.0,596.0,58.0,67.0,-253.0,146,65,56,77,61,480,471,504
2025-02-20 16:11:07.575,-286.0,-182.0,406.0,34.0,2.0,-241.0,146,63,54,77,61,422,470,495
2025-02-20 16:11:07.597,-273.0,-587.0,451.0,97.0,-43.0,-223.0,147,65,55,77,61,427,468,482
2025-02-20 16:11:07.617,-280.0,-552.0,525.0,198.0,-64.0,-204.0,145,64,55,77,62,442,458,470
2025-02-20 16:11:07.635,-344.0,-321.0,637.0,205.0,-110.0,-184.0,145,64,55,78,63,472,437,459
2025-02-20 16:11:07.654,-172.0,-309.0,973.0,174.0,-119.0,-152.0,148,66,55,79,64,457,425,443
2025-02-20 16:11:07.674,-95.0,-297.0,1062.0,155.0,-86.0,-133.0,145,66,56,79,65,451,456,444
2025-02-20 16:11:07.690,-47.0,-386.0,1260.0,125.0,-27.0,-117.0,147,65,56,81,65,472,498,437
2025-02-20 16:11:07.712,-78.0,-628.0,1106.0,118.0,-13.0,-87.0,146,64,56,81,65,449,491,441
2025-02-20 16:11:07.732,-22.0,-871.0,1092.0,92.0,-33.0,6.0,146,66,56,81,67,458,457,421
2025-02-20 16:11:07.748,473.0,-1620.0,1640.0,-2.0,-21.0,165.0,146,66,57,82,66,468,445,416
2025-02-20 16:11:07.769,774.0,-1556.0,1851.0,-159.0,8.0,338.0,146,66,57,82,66,487,454,428
2025-02-20 16:11:07.789,880.0,-1532.0,1650.0,-282.0,45.0,440.0,146,66,57,81,65,517,477,459
2025-02-20 16:11:07.805,682.0,-538.0,1192.0,-304.0,39.0,514.0,146,66,55,80,64,524,477,488
2025-02-20 16:11:07.826,1.0,1289.0,996.0,-298.0,0.0,436.0,148,66,57,81,64,509,494,499
2025-02-20 16:11:07.843,-421.0,2564.0,945.0,-272.0,-4.0,241.0,147,67,57,80,63,511,515,491
2025-02-20 16:11:07.863,-496.0,2433.0,1250.0,-211.0,-29.0,86.0,147,68,57,82,64,525,507,488
2025-02-20 16:11:07.884,-506.0,2203.0,1660.0,-52.0,-24.0,-43.0,147,69,59,82,66,514,476,491
2025-02-20 16:11:07.900,-146.0,1312.0,1965.0,62.0,48.0,-123.0,146,71,60,84,67,492,483,496
2025-02-20 16:11:07.920,71.0,470.0,1889.0,20.0,174.0,-126.0,148,72,62,83,69,470,493,497
2025-02-20 16:11:07.941,44.0,-471.0,1461.0,-59.0,214.0,-118.0,148,70,60,82,67,396,486,487
2025-02-20 16:11:07.958,12.0,-994.0,1308.0,-127.0,210.0,-74.0,147,70,60,82,67,386,462,470
2025-02-20 16:11:07.978,-108.0,-992.0,1191.0,-178.0,223.0,-36.0,147,70,60,80,67,435,437,453
2025-02-20 16:11:07.998,-263.0,-840.0,947.0,-218.0,255.0,-3.0,146,71,60,80,66,435,431,439
2025-02-20 16:11:08.015,-526.0,-626.0,595.0,-238.0,265.0,2.0,146,71,62,78,67,447,436,440
2025-02-20 16:11:08.028,-576.0,-625.0,415.0,-229.0,251.0,14.0,146,70,61,76,66,453,448,446
2025-02-20 16:11:08.052,-594.0,-559.0,331.0,-210.0,245.0,37.0,143,70,62,74,66,547,470,476
2025-02-20 16:11:08.072,-647.0,-325.0,113.0,-178.0,223.0,42.0,141,70,61,73,66,537,481,485
2025-02-20 16:11:08.092,-785.0,-24.0,-13.0,-134.0,185.0,24.0,139,69,61,71,64,490,472,492
2025-02-20 16:11:08.108,-756.0,192.0,-124.0,-82.0,139.0,-3.0,136,66,61,71,64,461,448,502
2025-02-20 16:11:08.129,-712.0,755.0,-137.0,-70.0,89.0,-23.0,134,67,60,70,63,441,433,498
2025-02-20 16:11:08.149,-713.0,1315.0,-307.0,8.0,49.0,-104.0,129,67,59,69,63,444,421,496
2025-02-20 16:11:08.166,-692.0,1564.0,-557.0,79.0,16.0,-229.0,123,65,56,69,60,425,409,483
2025-02-20 16:11:08.186,-893.0,1932.0,-1104.0,131.0,-89.0,-374.0,118,63,54,70,58,378,424,463
2025-02-20 16:11:08.207,-765.0,2038.0,-1478.0,140.0,-253.0,-629.0,112,61,53,74,56,382,460,448
2025-02-20 16:11:08.224,688.0,1084.0,-1475.0,113.0,-550.0,-749.0,108,59,52,78,58,367,500,447
2025-02-20 16:11:08.244,2953.0,-1667.0,-409.0,272.0,-713.0,-650.0,110,59,52,81,57,371,506,446
2025-02-20 16:11:08.264,4050.0,-4113.0,2133.0,574.0,-478.0,-285.0,117,62,52,85,64,367,499,433
2025-02-20 16:11:08.281,3021.0,-2245.0,3430.0,414.0,-48.0,-40.0,123,63,54,84,63,373,492,438
2025-02-20 16:11:08.301,1495.0,-721.0,3143.0,59.0,98.0,0.0,124,64,55,81,57,324,502,432
2025-02-20 16:11:08.318,740.0,-1354.0,1978.0,-224.0,108.0,102.0,124,64,55,82,57,462,524,431
2025-02-20 16:11:08.338,412.0,-1302.0,1292.0,-272.0,109.0,147.0,125,64,55,84,60,384,517,413
2025-02-20 16:11:08.359,302.0,-1447.0,995.0,-215.0,143.0,156.0,125,66,55,87,61,469,479,440
2025-02-20 16:11:08.375,270.0,-1409.0,807.0,-100.0,196.0,179.0,127,65,55,91,64,479,406,488
2025-02-20 16:11:08.394,110.0,-959.0,567.0,-42.0,217.0,191.0,127,65,56,88,64,495,361,490
2025-02-20 16:11:08.415,-48.0,-567.0,477.0,-42.0,206.0,181.0,128,65,57,86,66,505,377,491
2025-02-20 16:11:08.432,-264.0,-540.0,387.0,-69.0,173.0,174.0,129,66,56,86,67,502,410,483
2025-02-20 16:11:08.453,-190.0,-556.0,460.0,-83.0,148.0,184.0,130,66,55,85,67,405,416,477
2025-02-20 16:11:08.464,-229.0,-482.0,492.0,-84.0,150.0,195.0,131,66,57,81,66,388,432,485
2025-02-20 16:11:08.489,-181.0,-386.0,474.0,-72.0,172.0,197.0,130,65,57,81,66,408,454,492
2025-02-20 16:11:08.510,-318.0,-267.0,267.0,-63.0,178.0,186.0,131,66,59,80,66,456,475,486
2025-02-20 16:11:08.527,-675.0,-92.0,127.0,-31.0,127.0,142.0,131,67,58,78,65,535,502,474
2025-02-20 16:11:08.547,-376.0,-72.0,183.0,1.0,94.0,117.0,132,67,58,77,66,531,511,468
2025-02-20 16:11:08.567,-364.0,140.0,118.0,-10.0,110.0,129.0,130,66,59,74,64,499,467,461
2025-02-20 16:11:08.585,-750.0,613.0,-260.0,-3.0,67.0,135.0,130,67,59,72,64,504,485,456
2025-02-20 16:11:08.604,-1232.0,2041.0,-774.0,98.0,5.0,-24.0,126,65,59,68,59,490,440,438
2025-02-20 16:11:08.625,-1561.0,2838.0,-1386.0,216.0,-124.0,-428.0,121,64,58,70,55,484,404,444
2025-02-20 16:11:08.642,-1021.0,1787.0,-1275.0,157.0,-356.0,-600.0,122,64,57,73,56,445,429,442
2025-02-20 16:11:08.661,1014.0,-364.0,-908.0,157.0,-653.0,-621.0,124,63,57,74,59,444,447,454
2025-02-20 16:11:08.681,2977.0,-2174.0,145.0,246.0,-766.0,-440.0,128,66,57,77,62,466,440,465
2025-02-20 16:11:08.699,3589.0,-3834.0,2722.0,324.0,-518.0,-77.0,132,66,58,79,64,471,416,464
2025-02-20 16:11:08.718,2643.0,-2048.0,3142.0,199.0,2.0,85.0,135,68,59,78,63,472,436,459
2025-02-20 16:11:08.736,1233.0,-927.0,2293.0,6.0,160.0,57.0,133,68,59,78,59,356,482,456
2025-02-20 16:11:08.756,549.0,-1613.0,1262.0,-49.0,174.0,129.0,135,67,60,78,59,322,523,419
2025-02-20 16:11:08.776,365.0,-1564.0,728.0,8.0,160.0,192.0,136,68,60,82,63,377,535,418
2025-02-20 16:11:08.793,268.0,-1406.0,625.0,70.0,162.0,225.0,136,70,60,84,66,571,531,409
2025-02-20 16:11:08.811,204.0,-1055.0,476.0,91.0,165.0,260.0,136,70,59,84,70,544,500,434
2025-02-20 16:11:08.833,91.0,-642.0,246.0,66.0,146.0,301.0,135,69,59,83,72,556,468,464
2025-02-20 16:11:08.851,-185.0,-513.0,433.0,71.0,54.0,301.0,134,68,59,86,77,541,480,467
2025-02-20 16:11:08.871,-194.0,158.0,427.0,33.0,-10.0,272.0,135,66,59,86,80,409,482,465
2025-02-20 16:11:08.890,-328.0,369.0,767.0,-44.0,-48.0,235.0,135,66,60,89,83,365,486,464
2025-02-20 16:11:08.908,-287.0,275.0,708.0,-16.0,-50.0,181.0,134,68,59,90,85,365,492,470
2025-02-20 16:11:08.927,-399.0,444.0,907.0,-22.0,-30.0,135.0,136,68,60,88,85,433,465,467
2025-02-20 16:11:08.944,-469.0,606.0,867.0,7.0,-24.0,68.0,136,69,58,90,86,500,446,472
2025-02-20 16:11:08.965,-440.0,1111.0,692.0,79.0,-25.0,9.0,137,70,61,92,87,508,460,474
2025-02-20 16:11:08.985,-847.0,1438.0,854.0,116.0,-32.0,-78.0,137,71,62,89,99,517,477,466
2025-02-20 16:11:09.002,-931.0,2096.0,938.0,166.0,-19.0,-247.0,137,72,66,91,110,486,465,458
2025-02-20 16:11:09.023,-910.0,2070.0,764.0,243.0,-15.0,-456.0,137,73,68,96,117,472,436,460
2025-02-20 16:11:09.042,-315.0,1054.0,472.0,368.0,-43.0,-574.0,138,74,68,103,119,489,426,460
2025-02-20 16:11:09.060,536.0,-306.0,828.0,456.0,-107.0,-570.0,138,74,68,108,120,560,417,460
2025-02-20 16:11:09.079,1385.0,-1135.0,1334.0,578.0,-104.0,-469.0,140,77,71,113,120,602,414,463
2025-02-20 16:11:09.100,1717.0,-832.0,2633.0,420.0,-43.0,-242.0,140,77,74,117,122,539,412,456
2025-02-20 16:11:09.116,1309.0,-314.0,2920.0,50.0,58.0,-75.0,141,80,77,117,124,452,411,457
2025-02-20 16:11:09.133,924.0,-604.0,1830.0,-293.0,80.0,34.0,140,80,76,114,126,367,419,448
2025-02-20 16:11:09.157,444.0,-1583.0,1124.0,-282.0,52.0,148.0,140,80,73,112,125,331,431,434
2025-02-20 16:11:09.174,192.0,-1302.0,959.0,-134.0,36.0,218.0,139,79,72,109,125,382,434,438
2025-02-20 16:11:09.193,150.0,-772.0,1229.0,-57.0,79.0,313.0,137,79,71,110,126,426,444,478
2025-02-20 16:11:09.214,143.0,-238.0,1167.0,-105.0,105.0,385.0,138,80,73,111,125,446,466,484
2025-02-20 16:11:09.229,-34.0,198.0,1042.0,-156.0,56.0,374.0,137,79,73,110,124,471,518,490
2025-02-20 16:11:09.251,-286.0,577.0,1007.0,-187.0,6.0,305.0,138,80,73,107,122,481,513,502
2025-02-20 16:11:09.269,-216.0,374.0,1062.0,-182.0,16.0,221.0,140,82,74,101,123,496,505,515
2025-02-20 16:11:09.289,-250.0,214.0,1132.0,-90.0,76.0,152.0,137,80,73,100,124,533,491,505
2025-02-20 16:11:09.308,-372.0,284.0,855.0,-13.0,88.0,120.0,136,80,72,99,124,567,489,498
2025-02-20 16:11:09.325,-450.0,415.0,716.0,25.0,67.0,98.0,137,80,71,98,124,541,481,487
2025-02-20 16:11:09.346,-522.0,691.0,696.0,17.0,32.0,71.0,137,79,70,98,124,506,474,478
2025-02-20 16:11:09.362,-561.0,892.0,649.0,12.0,15.0,29.0,136,81,73,94,125,503,463,475
2025-02-20 16:11:09.382,-749.0,1349.0,692.0,38.0,3.0,-46.0,136,80,72,92,124,495,451,476
2025-02-20 16:11:09.403,-918.0,1922.0,631.0,95.0,15.0,-155.0,135,78,71,92,125,473,460,467
2025-02-20 16:11:09.419,-942.0,2012.0,500.0,195.0,32.0,-329.0,134,77,71,94,125,444,478,460
2025-02-20 16:11:09.440,-823.0,1836.0,420.0,288.0,-16.0,-451.0,132,74,69,97,126,419,485,442
2025-02-20 16:11:09.461,-258.0,875.0,526.0,278.0,-137.0,-513.0,128,73,66,99,126,437,495,429
2025-02-20 16:11:09.477,355.0,121.0,261.0,240.0,-310.0,-491.0,132,72,65,104,125,447,495,434
2025-02-20 16:11:09.497,1701.0,-1602.0,2263.0,205.0,-283.0,-348.0,133,73,67,109,124,471,468,459
2025-02-20 16:11:09.518,1864.0,-1760.0,2505.0,15.0,-118.0,-62.0,133,74,68,112,121,478,445,461
2025-02-20 16:11:09.532,1266.0,-1408.0,2169.0,-228.0,-48.0,93.0,131,74,67,112,117,456,431,446
2025-02-20 16:11:09.555,663.0,-1098.0,1647.0,-350.0,-35.0,200.0,128,72,65,110,113,417,440,420
2025-02-20 16:11:09.575,445.0,-1005.0,1458.0,-374.0,0.0,283.0,124,72,64,108,111,426,478,410
2025-02-20 16:11:09.592,490.0,-885.0,1650.0,-359.0,77.0,356.0,122,72,66,104,108,465,478,482
2025-02-20 16:11:09.612,636.0,-590.0,1740.0,-334.0,218.0,382.0,123,73,66,103,104,526,458,516
2025-02-20 16:11:09.630,242.0,-195.0,1297.0,-313.0,299.0,373.0,126,76,67,101,105,554,459,524
2025-02-20 16:11:09.649,-186.0,-5.0,1022.0,-242.0,318.0,343.0,130,76,67,100,107,538,468,511
2025-02-20 16:11:09.666,-250.0,177.0,669.0,-175.0,319.0,317.0,130,76,72,99,109,533,466,491
2025-02-20 16:11:09.686,-329.0,227.0,257.0,-82.0,346.0,285.0,131,78,79,97,108,521,476,478
2025-02-20 16:11:09.706,-762.0,284.0,225.0,42.0,371.0,209.0,132,79,78,98,110,497,491,471
2025-02-20 16:11:09.725,-668.0,552.0,-105.0,80.0,299.0,126.0,130,84,80,105,111,407,498,465
2025-02-20 16:11:09.744,-913.0,704.0,-5.0,3.0,181.0,76.0,128,87,83,108,112,439,508,463
2025-02-20 16:11:09.763,-530.0,719.0,-58.0,37.0,120.0,30.0,125,88,86,111,115,456,516,471
2025-02-20 16:11:09.783,-553.0,778.0,-472.0,50.0,36.0,-32.0,123,89,88,114,118,468,498,466
2025-02-20 16:11:09.799,-995.0,994.0,-746.0,86.0,-33.0,-62.0,122,89,88,118,120,471,477,448
2025-02-20 16:11:09.821,-1029.0,1689.0,-1314.0,103.0,-177.0,-196.0,121,90,89,119,124,451,468,439
2025-02-20 16:11:09.841,-1216.0,1758.0,-1123.0,132.0,-355.0,-373.0,122,90,91,122,128,401,454,440
2025-02-20 16:11:09.858,-1084.0,1559.0,-1073.0,60.0,-443.0,-625.0,124,94,92,124,130,429,435,461
2025-02-20 16:11:09.877,133.0,1499.0,-1082.0,-80.0,-650.0,-822.0,125,100,93,126,133,508,421,459
2025-02-20 16:11:09.898,2568.0,126.0,-712.0,-374.0,-927.0,-756.0,121,110,96,128,133,497,383,457
2025-02-20 16:11:09.915,3678.0,-2351.0,1115.0,-349.0,-828.0,-415.0,118,114,101,131,134,441,390,465
2025-02-20 16:11:09.936,3597.0,-3266.0,417.0,-238.0,-442.0,-79.0,120,117,102,131,135,417,417,460
2025-02-20 16:11:09.955,2796.0,-4102.0,1155.0,-17.0,-198.0,187.0,120,119,103,132,135,397,436,449
2025-02-20 16:11:09.973,1882.0,-2849.0,848.0,135.0,10.0,136.0,121,117,103,133,134,289,465,456
2025-02-20 16:11:09.993,643.0,-1543.0,471.0,63.0,109.0,153.0,123,109,104,133,135,266,484,455
2025-02-20 16:11:10.010,-4.0,-643.0,695.0,-45.0,130.0,220.0,123,107,102,132,135,328,504,465
2025-02-20 16:11:10.030,-332.0,-911.0,567.0,20.0,115.0,234.0,123,106,102,132,134,507,521,482
2025-02-20 16:11:10.050,-17.0,-659.0,567.0,44.0,102.0,193.0,123,106,101,132,135,523,520,487
2025-02-20 16:11:10.065,11.0,-865.0,916.0,88.0,182.0,154.0,124,108,101,133,135,483,488,482
2025-02-20 16:11:10.082,194.0,-1133.0,388.0,75.0,258.0,145.0,124,112,101,133,135,500,461,468
2025-02-20 16:11:10.101,12.0,-873.0,407.0,80.0,270.0,176.0,124,114,103,133,136,443,430,454
2025-02-20 16:11:10.124,-15.0,-629.0,411.0,78.0,310.0,207.0,126,116,103,133,136,477,390,464
2025-02-20 16:11:10.144,-82.0,-405.0,424.0,38.0,270.0,214.0,126,116,103,134,136,517,415,476
2025-02-20 16:11:10.161,-189.0,-238.0,321.0,50.0,170.0,216.0,125,116,103,133,136,495,450,481
2025-02-20 16:11:10.181,-357.0,-170.0,168.0,3.0,128.0,205.0,125,115,103,133,135,456,446,486
2025-02-20 16:11:10.200,-459.0,-123.0,-42.0,3.0,100.0,208.0,124,113,101,133,135,420,445,486
2025-02-20 16:11:10.218,-207.0,-92.0,214.0,44.0,121.0,204.0,124,107,102,132,135,401,447,469
2025-02-20 16:11:10.238,-800.0,510.0,75.0,169.0,107.0,184.0,124,102,101,132,135,380,458,475
2025-02-20 16:11:10.259,-1099.0,1741.0,-489.0,217.0,41.0,49.0,122,100,100,132,135,443,448,470
2025-02-20 16:11:10.276,-1542.0,1817.0,-855.0,210.0,-81.0,-213.0,123,104,100,132,135,485,436,457
2025-02-20 16:11:10.294,-1384.0,2165.0,-1081.0,133.0,-263.0,-538.0,124,108,101,132,137,518,433,454
2025-02-20 16:11:10.315,-110.0,1183.0,-357.0,-45.0,-434.0,-759.0,123,113,101,132,138,465,478,456
2025-02-20 16:11:10.333,1327.0,-360.0,255.0,-128.0,-731.0,-770.0,121,118,102,132,137,436,464,451
2025-02-20 16:11:10.353,3329.0,-1542.0,391.0,-178.0,-738.0,-539.0,120,120,104,133,136,430,432,448
2025-02-20 16:11:10.373,3127.0,-3270.0,830.0,-124.0,-307.0,-156.0,119,122,105,135,137,442,419,462
2025-02-20 16:11:10.390,2652.0,-3943.0,1143.0,137.0,-86.0,162.0,120,122,106,134,137,398,401,469
2025-02-20 16:11:10.411,1485.0,-2587.0,963.0,211.0,71.0,172.0,122,119,105,134,137,294,452,454
2025-02-20 16:11:10.428,441.0,-1233.0,382.0,161.0,135.0,135.0,124,112,103,134,137,306,530,450
2025-02-20 16:11:10.447,-133.0,-550.0,492.0,43.0,142.0,175.0,127,108,100,134,134,391,583,457
2025-02-20 16:11:10.468,-188.0,-605.0,713.0,43.0,153.0,172.0,126,102,100,131,133,450,565,456
2025-02-20 16:11:10.485,-294.0,-970.0,542.0,72.0,139.0,178.0,126,95,93,131,132,534,501,449
2025-02-20 16:11:10.505,-12.0,-1035.0,474.0,128.0,155.0,202.0,125,99,91,130,130,616,412,482
2025-02-20 16:11:10.524,205.0,-1206.0,512.0,87.0,176.0,243.0,126,98,87,121,125,628,394,495
2025-02-20 16:11:10.542,315.0,-1177.0,355.0,161.0,139.0,314.0,126,86,79,107,116,540,422,477
2025-02-20 16:11:10.562,53.0,-782.0,249.0,257.0,67.0,355.0,127,73,68,95,108,451,437,471
2025-02-20 16:11:10.579,-92.0,-184.0,279.0,226.0,43.0,360.0,126,64,61,83,106,485,431,454
2025-02-20 16:11:10.599,-217.0,-9.0,-8.0,199.0,-6.0,322.0,127,61,61,84,109,492,457,461
2025-02-20 16:11:10.619,-306.0,565.0,325.0,235.0,-17.0,216.0,125,61,61,87,116,494,477,456
2025-02-20 16:11:10.635,-328.0,563.0,640.0,226.0,-4.0,150.0,122,61,60,94,121,520,493,442
2025-02-20 16:11:10.656,-589.0,624.0,548.0,223.0,-27.0,77.0,117,60,58,90,123,486,474,452
2025-02-20 16:11:10.676,-665.0,907.0,649.0,213.0,-60.0,8.0,114,60,58,83,126,504,456,475
2025-02-20 16:11:10.693,-688.0,1373.0,913.0,229.0,-40.0,-105.0,113,61,59,83,129,523,461,476
2025-02-20 16:11:10.713,-938.0,2147.0,806.0,233.0,-18.0,-245.0,111,59,57,87,131,498,451,473
2025-02-20 16:11:10.734,-938.0,2437.0,560.0,171.0,-71.0,-412.0,110,59,58,95,129,495,435,462
2025-02-20 16:11:10.751,-593.0,1463.0,415.0,138.0,-149.0,-516.0,110,60,59,101,132,428,456,460
2025-02-20 16:11:10.771,204.0,467.0,667.0,191.0,-258.0,-519.0,113,59,60,106,132,437,467,454
2025-02-20 16:11:10.791,772.0,-661.0,1270.0,245.0,-308.0,-413.0,120,60,61,110,131,452,476,425
2025-02-20 16:11:10.808,1218.0,-1106.0,1723.0,226.0,-244.0,-242.0,127,62,64,113,129,445,505,407
2025-02-20 16:11:10.828,1174.0,-1223.0,2062.0,107.0,-140.0,-102.0,130,62,65,115,126,496,536,419
2025-02-20 16:11:10.845,1095.0,-958.0,2025.0,-42.0,-38.0,42.0,130,62,65,116,122,495,539,440
2025-02-20 16:11:10.865,749.0,-837.0,1582.0,-169.0,28.0,135.0,130,62,65,116,122,455,490,442
2025-02-20 16:11:10.882,422.0,-717.0,1209.0,-175.0,47.0,217.0,130,62,66,114,122,389,475,437
2025-02-20 16:11:10.902,198.0,-615.0,1171.0,-150.0,69.0,279.0,128,62,66,114,124,427,447,431
2025-02-20 16:11:10.920,131.0,-372.0,1183.0,-116.0,92.0,331.0,130,63,67,114,126,486,419,436
2025-02-20 16:11:10.942,162.0,-21.0,1107.0,-116.0,100.0,356.0,129,63,67,111,127,497,430,450
2025-02-20 16:11:10.960,-71.0,491.0,1122.0,-132.0,98.0,317.0,129,64,67,108,128,485,431,463
2025-02-20 16:11:10.980,-207.0,475.0,1148.0,-118.0,123.0,245.0,130,62,66,103,127,483,423,473
2025-02-20 16:11:11.000,-448.0,474.0,905.0,-56.0,131.0,193.0,130,64,66,101,126,490,449,483
2025-02-20 16:11:11.017,-587.0,509.0,623.0,-11.0,99.0,157.0,130,65,67,98,127,484,473,484
2025-02-20 16:11:11.035,-588.0,671.0,732.0,4.0,65.0,108.0,130,65,66,96,129,470,490,484
2025-02-20 16:11:11.053,-573.0,735.0,775.0,22.0,67.0,63.0,131,64,67,95,129,499,510,487
2025-02-20 16:11:11.071,-651.0,945.0,721.0,29.0,79.0,15.0,131,65,67,93,129,493,512,484
2025-02-20 16:11:11.094,-791.0,1186.0,598.0,50.0,80.0,-60.0,131,65,67,93,128,492,483,479
2025-02-20 16:11:11.112,-912.0,1698.0,477.0,64.0,64.0,-189.0,130,65,66,92,128,509,482,483
2025-02-20 16:11:11.131,-937.0,2022.0,289.0,68.0,38.0,-303.0,128,65,65,94,129,500,477,479
2025-02-20 16:11:11.151,-912.0,1836.0,-56.0,83.0,-6.0,-422.0,123,64,65,96,130,477,456,469
2025-02-20 16:11:11.169,-698.0,1288.0,-98.0,101.0,-127.0,-526.0,124,63,63,99,128,459,446,470
2025-02-20 16:11:11.187,-95.0,595.0,-5.0,47.0,-321.0,-547.0,126,63,60,101,128,471,440,474
2025-02-20 16:11:11.209,1438.0,-1042.0,778.0,-40.0,-456.0,-385.0,128,62,60,105,128,469,431,482
2025-02-20 16:11:11.226,2593.0,-2151.0,1935.0,-151.0,-351.0,-145.0,132,66,62,108,127,465,440,477
2025-02-20 16:11:11.247,2517.0,-2726.0,2153.0,-112.0,-159.0,5.0,128,68,64,109,127,474,440,471
2025-02-20 16:11:11.264,1673.0,-2262.0,1792.0,15.0,67.0,73.0,131,68,65,108,128,476,421,487
2025-02-20 16:11:11.283,671.0,-1368.0,830.0,23.0,123.0,115.0,131,68,65,104,128,457,448,491
2025-02-20 16:11:11.302,118.0,-844.0,885.0,2.0,63.0,160.0,133,67,66,101,128,463,484,472
2025-02-20 16:11:11.320,-54.0,-583.0,1078.0,-39.0,36.0,181.0,133,69,68,102,129,388,510,461
2025-02-20 16:11:11.341,-89.0,-499.0,1135.0,-68.0,45.0,222.0,134,69,70,103,128,371,505,463
2025-02-20 16:11:11.361,-161.0,-246.0,1106.0,-87.0,44.0,249.0,134,70,69,103,129,451,476,477
2025-02-20 16:11:11.378,-105.0,-196.0,1132.0,-92.0,48.0,247.0,134,70,71,100,130,449,434,450
2025-02-20 16:11:11.398,60.0,-191.0,1280.0,-101.0,109.0,261.0,134,68,72,101,129,483,446,442
2025-02-20 16:11:11.418,-182.0,145.0,1251.0,-116.0,167.0,273.0,135,69,73,97,126,512,480,481
2025-02-20 16:11:11.435,-225.0,42.0,957.0,-132.0,200.0,272.0,135,71,76,99,119,491,470,507
2025-02-20 16:11:11.455,-421.0,118.0,857.0,-96.0,190.0,253.0,136,75,79,101,110,491,441,515
2025-02-20 16:11:11.472,-259.0,229.0,761.0,-69.0,212.0,235.0,135,78,80,103,104,541,436,506
2025-02-20 16:11:11.492,-357.0,239.0,659.0,-19.0,254.0,198.0,135,79,82,102,97,570,445,498
2025-02-20 16:11:11.512,-584.0,251.0,313.0,65.0,270.0,113.0,134,84,85,97,91,562,472,473
2025-02-20 16:11:11.529,-768.0,291.0,17.0,124.0,236.0,62.0,133,90,87,95,88,505,451,440
2025-02-20 16:11:11.550,-883.0,590.0,-62.0,113.0,184.0,18.0,133,94,88,94,87,376,455,421
2025-02-20 16:11:11.570,-1201.0,1620.0,-387.0,43.0,80.0,-90.0,133,98,90,94,89,394,474,421
2025-02-20 16:11:11.587,-1261.0,1664.0,-1139.0,-12.0,-54.0,-257.0,133,102,94,95,91,383,470,418
2025-02-20 16:11:11.606,-1441.0,1778.0,-1340.0,41.0,-209.0,-497.0,133,108,100,93,86,399,484,421
2025-02-20 16:11:11.627,-383.0,1476.0,-1443.0,84.0,-488.0,-663.0,134,116,104,88,78,485,496,444
2025-02-20 16:11:11.642,227.0,371.0,-700.0,47.0,-714.0,-689.0,133,123,106,89,76,450,484,458
2025-02-20 16:11:11.664,2249.0,-904.0,-309.0,-26.0,-903.0,-490.0,133,127,107,92,82,485,444,459
2025-02-20 16:11:11.684,2959.0,-2046.0,1166.0,9.0,-752.0,-223.0,131,129,107,93,85,501,427,456
2025-02-20 16:11:11.701,3284.0,-2442.0,1780.0,-17.0,-378.0,7.0,135,130,108,93,86,416,443,462
2025-02-20 16:11:11.720,2585.0,-2189.0,2353.0,2.0,-18.0,114.0,136,131,110,93,84,302,466,468
2025-02-20 16:11:11.738,1550.0,-1428.0,1784.0,33.0,147.0,90.0,135,130,108,94,77,296,491,467
2025-02-20 16:11:11.759,695.0,-1010.0,1564.0,-23.0,204.0,90.0,136,131,109,95,74,363,520,467
2025-02-20 16:11:11.778,411.0,-935.0,1171.0,-95.0,226.0,131.0,136,130,109,94,74,414,521,474
2025-02-20 16:11:11.796,285.0,-883.0,898.0,-123.0,225.0,161.0,135,130,110,90,71,520,480,475
2025-02-20 16:11:11.816,206.0,-875.0,830.0,-114.0,235.0,180.0,135,130,111,88,77,561,451,476
2025-02-20 16:11:11.836,198.0,-922.0,633.0,-53.0,261.0,197.0,136,131,109,87,79,629,461,466
2025-02-20 16:11:11.853,67.0,-809.0,339.0,30.0,277.0,211.0,135,131,109,88,83,501,479,447
2025-02-20 16:11:11.872,-145.0,-338.0,477.0,46.0,281.0,234.0,136,131,109,88,85,384,482,437
2025-02-20 16:11:11.889,-319.0,-52.0,410.0,2.0,255.0,237.0,136,130,106,88,86,373,476,445
2025-02-20 16:11:11.908,-289.0,5.0,338.0,-39.0,239.0,237.0,135,130,110,89,85,428,471,458
2025-02-20 16:11:11.930,-352.0,-61.0,339.0,-29.0,252.0,232.0,136,130,109,88,84,470,445,463
2025-02-20 16:11:11.947,-625.0,100.0,49.0,-14.0,219.0,221.0,135,129,110,87,84,435,429,456
2025-02-20 16:11:11.967,-821.0,479.0,-281.0,-5.0,127.0,158.0,136,129,110,84,85,376,452,459
2025-02-20 16:11:11.986,-1151.0,961.0,-870.0,32.0,5.0,39.0,134,129,110,82,85,389,459,461
2025-02-20 16:11:12.004,-1341.0,1745.0,-1006.0,92.0,-121.0,-175.0,136,127,109,80,84,410,437,459
2025-02-20 16:11:12.023,-1244.0,2158.0,-1134.0,113.0,-263.0,-411.0,136,127,110,82,87,449,420,462
2025-02-20 16:11:12.044,-825.0,1388.0,-957.0,111.0,-494.0,-603.0,136,128,111,82,91,441,406,472
2025-02-20 16:11:12.059,1178.0,144.0,-234.0,124.0,-682.0,-600.0,135,130,111,85,99,449,399,481
2025-02-20 16:11:12.082,2522.0,-1061.0,798.0,130.0,-729.0,-462.0,135,130,110,91,103,465,393,474
2025-02-20 16:11:12.102,3192.0,-2332.0,2243.0,98.0,-430.0,-189.0,136,129,108,97,105,449,398,467
2025-02-20 16:11:12.119,2804.0,-2541.0,2347.0,76.0,-84.0,15.0,138,131,106,102,106,380,443,455
2025-02-20 16:11:12.140,1829.0,-1663.0,1894.0,74.0,96.0,109.0,138,130,110,103,102,357,471,466
2025-02-20 16:11:12.159,785.0,-1224.0,1458.0,29.0,149.0,100.0,139,127,109,103,97,373,487,458
2025-02-20 16:11:12.176,415.0,-1229.0,1062.0,-7.0,160.0,109.0,138,125,108,102,98,426,526,451
2025-02-20 16:11:12.197,260.0,-1327.0,838.0,-6.0,159.0,154.0,139,122,107,100,99,626,493,464
2025-02-20 16:11:12.214,190.0,-1275.0,824.0,40.0,164.0,213.0,141,118,104,100,102,626,446,485
2025-02-20 16:11:12.234,121.0,-948.0,749.0,48.0,150.0,293.0,140,112,96,99,103,571,445,474
2025-02-20 16:11:12.254,177.0,-809.0,695.0,55.0,147.0,356.0,139,103,87,100,104,557,467,468
2025-02-20 16:11:12.270,5.0,-481.0,711.0,16.0,79.0,389.0,140,85,76,100,103,497,490,466
2025-02-20 16:11:12.291,-74.0,-228.0,629.0,-64.0,5.0,356.0,138,75,69,100,103,444,473,470
2025-02-20 16:11:12.311,-136.0,-41.0,790.0,-70.0,-27.0,301.0,141,71,64,98,104,432,435,460
2025-02-20 16:11:12.327,-271.0,6.0,670.0,-25.0,-26.0,220.0,136,65,59,90,106,435,411,455
2025-02-20 16:11:12.348,-136.0,80.0,693.0,32.0,-6.0,168.0,135,63,57,87,105,407,443,468
2025-02-20 16:11:12.362,-217.0,327.0,606.0,101.0,-5.0,109.0,133,61,56,87,108,372,495,474
2025-02-20 16:11:12.385,-393.0,629.0,695.0,132.0,-15.0,60.0,131,61,55,81,115,333,543,476
2025-02-20 16:11:12.406,-726.0,1551.0,910.0,183.0,-34.0,-72.0,131,61,54,77,121,348,521,467
2025-02-20 16:11:12.423,-713.0,2149.0,1076.0,237.0,12.0,-215.0,126,62,54,75,127,431,493,463
2025-02-20 16:11:12.442,-816.0,2459.0,920.0,286.0,54.0,-355.0,125,62,55,80,129,477,468,467
2025-02-20 16:11:12.462,-613.0,1753.0,723.0,339.0,60.0,-472.0,126,63,57,90,127,497,451,474
2025-02-20 16:11:12.476,-46.0,797.0,825.0,390.0,5.0,-539.0,127,64,60,97,125,513,459,477
2025-02-20 16:11:12.499,602.0,-311.0,1277.0,377.0,-102.0,-515.0,129,65,61,102,122,534,465,479
2025-02-20 16:11:12.520,1251.0,-1284.0,1909.0,380.0,-128.0,-354.0,130,65,62,106,123,551,474,476
2025-02-20 16:11:12.536,1436.0,-1205.0,2548.0,156.0,-70.0,-133.0,131,65,62,107,123,515,473,465
2025-02-20 16:11:12.556,1093.0,-1052.0,2313.0,-184.0,-11.0,3.0,132,65,61,108,124,484,469,443
2025-02-20 16:11:12.577,581.0,-1505.0,1394.0,-290.0,-11.0,108.0,131,65,61,107,124,487,450,426
2025-02-20 16:11:12.594,124.0,-1324.0,894.0,-230.0,-42.0,202.0,131,65,62,105,125,459,449,417
2025-02-20 16:11:12.614,53.0,-961.0,1145.0,-149.0,-32.0,263.0,130,65,63,105,125,472,457,434
2025-02-20 16:11:12.629,130.0,-474.0,1227.0,-118.0,1.0,312.0,131,65,64,103,124,457,461,437
2025-02-20 16:11:12.647,-28.0,-117.0,1258.0,-111.0,36.0,324.0,131,65,64,100,123,485,474,450
2025-02-20 16:11:12.672,-270.0,422.0,1140.0,-118.0,25.0,287.0,131,65,64,98,124,530,475,473
2025-02-20 16:11:12.688,-373.0,478.0,1140.0,-152.0,22.0,209.0,131,66,65,96,124,539,475,486
2025-02-20 16:11:12.708,-498.0,379.0,1106.0,-90.0,53.0,143.0,132,68,65,92,125,467,481,493
2025-02-20 16:11:12.729,-403.0,327.0,918.0,-23.0,65.0,101.0,132,67,65,92,127,469,484,491
2025-02-20 16:11:12.744,-508.0,494.0,762.0,-8.0,70.0,94.0,132,67,66,93,128,462,461,490
2025-02-20 16:11:12.766,-616.0,994.0,736.0,-5.0,61.0,43.0,134,68,66,92,128,484,439,486
2025-02-20 16:11:12.780,-850.0,1293.0,685.0,15.0,66.0,-57.0,134,69,66,93,128,486,432,480
2025-02-20 16:11:12.803,-878.0,1439.0,518.0,132.0,80.0,-193.0,133,68,67,92,128,485,434,471
2025-02-20 16:11:12.823,-1067.0,1930.0,276.0,238.0,81.0,-275.0,133,69,66,94,130,486,478,473
2025-02-20 16:11:12.840,-1009.0,2126.0,58.0,228.0,22.0,-405.0,133,68,66,97,130,479,493,472
2025-02-20 16:11:12.861,-444.0,1091.0,149.0,200.0,-124.0,-511.0,134,67,65,100,130,462,476,471
2025-02-20 16:11:12.877,374.0,-465.0,507.0,272.0,-276.0,-464.0,135,67,64,102,131,451,457,466
2025-02-20 16:11:12.897,1392.0,-1322.0,1535.0,314.0,-311.0,-267.0,136,68,66,108,130,446,466,450
2025-02-20 16:11:12.917,1907.0,-1153.0,2609.0,139.0,-139.0,-113.0,136,70,66,110,129,454,469,433
2025-02-20 16:11:12.937,1641.0,-1243.0,2562.0,-127.0,-17.0,12.0,137,70,67,111,130,455,455,415
2025-02-20 16:11:12.954,1038.0,-1550.0,1720.0,-239.0,17.0,106.0,137,71,66,109,128,427,478,429
2025-02-20 16:11:12.975,421.0,-1326.0,1171.0,-194.0,-9.0,172.0,138,71,68,109,129,420,480,435
2025-02-20 16:11:12.995,121.0,-926.0,1267.0,-143.0,-19.0,237.0,137,72,68,110,128,393,440,456
2025-02-20 16:11:13.012,145.0,-673.0,1559.0,-148.0,28.0,288.0,137,72,70,110,133,484,417,456
2025-02-20 16:11:13.032,131.0,-150.0,1546.0,-183.0,72.0,304.0,137,72,69,107,124,498,434,467
2025-02-20 16:11:13.052,-68.0,-119.0,1625.0,-199.0,98.0,271.0,138,72,71,107,126,477,464,497
2025-02-20 16:11:13.069,-86.0,22.0,1643.0,-153.0,166.0,244.0,138,72,71,106,127,469,492,509
2025-02-20 16:11:13.089,-246.0,129.0,1502.0,-152.0,245.0,215.0,139,73,72,106,128,487,513,511
2025-02-20 16:11:13.107,-308.0,329.0,1109.0,-180.0,286.0,195.0,139,75,74,104,124,551,488,510
2025-02-20 16:11:13.126,-518.0,230.0,818.0,-182.0,282.0,188.0,138,76,74,98,119,578,468,500
2025-02-20 16:11:13.147,-309.0,-35.0,772.0,-167.0,304.0,202.0,138,76,74,92,110,612,462,519
2025-02-20 16:11:13.164,-417.0,112.0,416.0,-138.0,325.0,198.0,138,75,73,83,99,584,468,503
2025-02-20 16:11:13.184,-789.0,384.0,43.0,-62.0,288.0,143.0,138,75,73,78,92,496,447,476
2025-02-20 16:11:13.203,-839.0,534.0,-106.0,-27.0,227.0,80.0,136,73,71,77,82,437,450,463
2025-02-20 16:11:13.215,-422.0,1013.0,-197.0,10.0,155.0,34.0,135,72,70,79,77,407,505,442
2025-02-20 16:11:13.241,-294.0,1170.0,-606.0,22.0,127.0,-22.0,132,70,68,78,79,472,541,449
2025-02-20 16:11:13.261,-677.0,1480.0,-1489.0,141.0,55.0,-144.0,121,67,64,76,71,419,515,457
2025-02-20 16:11:13.278,-1622.0,2429.0,-2753.0,305.0,-168.0,-352.0,110,63,58,74,56,358,489,456
2025-02-20 16:11:13.297,-1374.0,2564.0,-3042.0,243.0,-577.0,-581.0,103,59,56,71,49,367,484,451
2025-02-20 16:11:13.319,1388.0,1293.0,-2498.0,177.0,-1028.0,-647.0,104,56,56,72,48,407,460,459
2025-02-20 16:11:13.336,4862.0,-1084.0,917.0,274.0,-1148.0,-448.0,108,57,56,74,51,468,437,466
2025-02-20 16:11:13.356,5095.0,-3823.0,4632.0,370.0,-362.0,21.0,113,60,57,76,51,588,409,464
2025-02-20 16:11:13.373,2530.0,-553.0,4150.0,212.0,93.0,18.0,110,62,58,74,48,610,424,461
2025-02-20 16:11:13.392,776.0,-822.0,3052.0,3.0,132.0,-3.0,111,62,58,77,45,350,449,458
2025-02-20 16:11:13.412,190.0,-652.0,2146.0,-179.0,151.0,56.0,111,60,58,78,46,297,461,439
2025-02-20 16:11:13.429,20.0,-853.0,1533.0,-228.0,146.0,63.0,114,62,58,77,48,312,480,424
2025-02-20 16:11:13.450,-143.0,-1225.0,1177.0,-158.0,153.0,87.0,115,63,58,77,50,352,472,438
2025-02-20 16:11:13.469,-174.0,-954.0,1077.0,-80.0,167.0,108.0,116,62,59,77,53,405,428,465
2025-02-20 16:11:13.487,-216.0,-443.0,1060.0,-63.0,218.0,105.0,114,62,60,76,56,430,373,468
2025-02-20 16:11:13.507,-152.0,-361.0,897.0,-95.0,241.0,108.0,118,63,60,78,60,522,440,467
2025-02-20 16:11:13.524,-242.0,-292.0,806.0,-132.0,239.0,138.0,120,62,60,78,63,506,475,462
2025-02-20 16:11:13.545,-424.0,-324.0,670.0,-172.0,234.0,163.0,122,63,61,79,65,505,477,466
2025-02-20 16:11:13.561,-350.0,-163.0,474.0,-158.0,225.0,152.0,123,64,61,78,64,533,466,461
2025-02-20 16:11:13.581,-181.0,-229.0,450.0,-127.0,259.0,150.0,125,64,61,78,64,473,439,478
2025-02-20 16:11:13.598,-364.0,-282.0,125.0,-97.0,267.0,143.0,124,65,61,79,63,496,424,484
2025-02-20 16:11:13.622,-543.0,-251.0,8.0,-33.0,226.0,125.0,125,65,61,78,66,501,447,465
2025-02-20 16:11:13.638,-531.0,-234.0,-1.0,16.0,185.0,119.0,123,66,62,78,67,470,493,445
2025-02-20 16:11:13.659,-278.0,-182.0,98.0,34.0,190.0,123.0,127,65,62,78,68,453,479,446
2025-02-20 16:11:13.679,-560.0,-14.0,-189.0,51.0,189.0,132.0,126,65,60,77,70,441,457,452
2025-02-20 16:11:13.696,-861.0,470.0,-639.0,85.0,120.0,130.0,130,65,62,79,70,482,468,456
2025-02-20 16:11:13.716,-881.0,1123.0,-1336.0,121.0,8.0,32.0,127,65,64,79,69,489,480,457
2025-02-20 16:11:13.736,-1698.0,1834.0,-2390.0,232.0,-170.0,-210.0,126,64,61,77,63,493,501,449
2025-02-20 16:11:13.754,-1726.0,2144.0,-2775.0,233.0,-628.0,-499.0,121,63,60,73,58,505,521,470
2025-02-20 16:11:13.774,774.0,1405.0,-1972.0,149.0,-993.0,-561.0,119,63,62,73,61,486,504,479
2025-02-20 16:11:13.791,3700.0,-1274.0,153.0,123.0,-1128.0,-380.0,122,62,61,75,66,522,465,483
2025-02-20 16:11:13.810,4319.0,-3362.0,4368.0,288.0,-417.0,-3.0,126,66,64,78,68,561,422,477
2025-02-20 16:11:13.831,2664.0,-520.0,3910.0,141.0,164.0,43.0,123,68,63,76,65,481,407,487
2025-02-20 16:11:13.848,-70.0,-341.0,2329.0,-4.0,201.0,-47.0,123,68,60,74,56,307,409,477
2025-02-20 16:11:13.867,-319.0,-628.0,1085.0,-139.0,123.0,9.0,122,67,62,76,55,303,471,446
2025-02-20 16:11:13.888,-394.0,-594.0,788.0,-171.0,69.0,1.0,121,68,60,76,58,357,502,438
2025-02-20 16:11:13.905,-373.0,-1037.0,590.0,-97.0,45.0,-13.0,119,67,61,74,61,447,530,436
2025-02-20 16:11:13.925,-303.0,-1090.0,485.0,-3.0,43.0,6.0,119,67,60,74,63,408,513,459
2025-02-20 16:11:13.942,-419.0,-780.0,434.0,54.0,8.0,10.0,119,67,61,75,65,486,457,469
2025-02-20 16:11:13.962,-284.0,-464.0,658.0,40.0,-29.0,10.0,120,67,62,76,67,471,445,475
2025-02-20 16:11:13.978,-160.0,-525.0,867.0,8.0,-40.0,22.0,124,66,62,78,69,419,456,472
2025-02-20 16:11:13.999,-177.0,-563.0,916.0,-20.0,-32.0,34.0,124,66,62,76,69,423,404,466
2025-02-20 16:11:14.020,-210.0,-500.0,914.0,-31.0,-25.0,35.0,125,68,61,75,69,428,413,476
2025-02-20 16:11:14.040,-185.0,-544.0,894.0,-32.0,-17.0,39.0,127,68,63,76,70,445,442,485
2025-02-20 16:11:14.056,-162.0,-518.0,911.0,-11.0,1.0,22.0,127,67,61,76,69,565,433,482
2025-02-20 16:11:14.077,-196.0,-540.0,847.0,7.0,25.0,20.0,124,69,62,76,69,504,444,478
2025-02-20 16:11:14.097,-235.0,-467.0,779.0,24.0,32.0,15.0,128,69,62,77,70,402,463,469
2025-02-20 16:11:14.114,-264.0,-435.0,759.0,30.0,31.0,9.0,127,68,63,76,70,362,477,464
2025-02-20 16:11:14.134,-287.0,-383.0,727.0,21.0,19.0,4.0,127,69,62,78,73,407,480,464
2025-02-20 16:11:14.151,-276.0,-405.0,729.0,4.0,0.0,2.0,126,67,63,77,73,514,472,461
2025-02-20 16:11:14.169,-258.0,-459.0,752.0,-15.0,-15.0,5.0,127,69,64,74,71,601,468,447
2025-02-20 16:11:14.191,-225.0,-543.0,813.0,-6.0,-23.0,6.0,126,69,63,77,71,592,468,454
2025-02-20 16:11:14.209,-195.0,-520.0,876.0,7.0,-15.0,5.0,126,69,63,77,71,568,466,454
2025-02-20 16:11:14.228,-190.0,-480.0,941.0,11.0,-3.0,2.0,126,69,62,77,71,548,464,455
2025-02-20 16:11:14.248,-190.0,-503.0,961.0,8.0,13.0,1.0,127,69,63,76,71,524,457,459
2025-02-20 16:11:14.266,-227.0,-513.0,920.0,5.0,15.0,2.0,127,70,62,77,72,503,460,461
2025-02-20 16:11:14.286,-231.0,-506.0,883.0,4.0,10.0,0.0,126,70,63,76,71,485,448,461
2025-02-20 16:11:14.306,-243.0,-512.0,873.0,-2.0,6.0,0.0,126,70,63,77,72,462,472,462
2025-02-20 16:11:14.323,-234.0,-535.0,852.0,-3.0,5.0,1.0,124,69,62,77,71,446,494,460
2025-02-20 16:11:14.343,-252.0,-544.0,841.0,-2.0,7.0,4.0,125,70,63,77,72,439,514,458
2025-02-20 16:11:14.360,-266.0,-548.0,845.0,5.0,10.0,3.0,126,70,62,77,72,438,505,461
2025-02-20 16:11:14.379,-307.0,-504.0,833.0,7.0,8.0,5.0,126,70,63,77,72,395,481,462
2025-02-20 16:11:14.400,-301.0,-491.0,844.0,3.0,-1.0,2.0,129,69,61,78,72,378,459,464
2025-02-20 16:11:14.417,-270.0,-516.0,876.0,-2.0,-3.0,3.0,125,70,64,77,71,405,453,465
2025-02-20 16:11:14.436,-238.0,-543.0,908.0,3.0,2.0,2.0,126,70,63,78,72,423,453,463
2025-02-20 16:11:14.458,-250.0,-516.0,893.0,4.0,7.0,4.0,126,69,62,77,72,444,459,460
2025-02-20 16:11:14.475,-267.0,-483.0,869.0,-2.0,7.0,2.0,126,69,64,77,72,448,456,461
2025-02-20 16:11:14.494,-274.0,-499.0,847.0,-8.0,4.0,3.0,126,69,63,77,72,454,459,461
2025-02-20 16:11:14.515,-279.0,-509.0,822.0,-12.0,-2.0,4.0,127,70,64,77,71,463,464,461
2025-02-20 16:11:14.531,-250.0,-527.0,833.0,-8.0,-4.0,2.0,127,72,63,78,72,470,466,463
2025-02-20 16:11:14.552,-241.0,-527.0,844.0,-6.0,-1.0,4.0,126,76,63,77,72,476,464,464
2025-02-20 16:11:14.569,-245.0,-524.0,838.0,0.0,3.0,4.0,126,71,63,78,72,479,464,465
2025-02-20 16:11:14.589,-271.0,-481.0,815.0,2.0,4.0,4.0,127,69,62,78,73,483,466,463
2025-02-20 16:11:14.608,-273.0,-477.0,810.0,0.0,1.0,2.0,126,70,63,77,73,485,474,464
2025-02-20 16:11:14.626,-281.0,-476.0,828.0,-3.0,0.0,2.0,126,68,63,77,72,481,474,465
2025-02-20 16:11:14.646,-275.0,-497.0,833.0,-2.0,0.0,2.0,126,70,63,77,72,483,469,467
2025-02-20 16:11:14.666,-282.0,-480.0,833.0,-2.0,-1.0,2.0,126,71,63,78,72,480,463,467
2025-02-20 16:11:14.683,-274.0,-476.0,845.0,-1.0,-1.0,-1.0,127,70,63,78,72,472,452,467
2025-02-20 16:11:14.703,-268.0,-480.0,851.0,-1.0,3.0,-2.0,126,70,63,77,73,472,446,467
2025-02-20 16:11:14.723,-270.0,-514.0,831.0,-2.0,5.0,-1.0,126,68,63,77,72,472,445,466
2025-02-20 16:11:14.738,-285.0,-514.0,819.0,-2.0,3.0,0.0,126,70,64,78,73,473,446,465
2025-02-20 16:11:14.761,-287.0,-522.0,824.0,-1.0,0.0,0.0,126,70,64,78,72,472,448,464
2025-02-20 16:11:14.779,-286.0,-521.0,835.0,-2.0,-1.0,0.0,126,70,63,78,73,472,451,464
2025-02-20 16:11:14.798,-280.0,-530.0,844.0,0.0,0.0,0.0,126,71,63,77,73,471,456,464
2025-02-20 16:11:14.818,-292.0,-510.0,844.0,1.0,-1.0,0.0,127,69,62,79,73,468,461,462
2025-02-20 16:11:14.835,-283.0,-518.0,868.0,0.0,-2.0,0.0,127,69,63,78,73,466,466,462
2025-02-20 16:11:14.853,-274.0,-520.0,868.0,-1.0,1.0,0.0,126,70,64,79,73,466,468,463
2025-02-20 16:11:14.875,-280.0,-524.0,851.0,-1.0,1.0,1.0,127,69,63,78,73,464,470,463
2025-02-20 16:11:14.890,-282.0,-509.0,845.0,-1.0,0.0,1.0,127,70,63,78,72,462,471,463
2025-02-20 16:11:14.913,-290.0,-515.0,852.0,-1.0,-1.0,1.0,126,69,63,79,72,461,470,462
2025-02-20 16:11:14.932,-283.0,-496.0,863.0,1.0,1.0,0.0,126,70,64,78,74,464,467,464
2025-02-20 16:11:14.949,-288.0,-493.0,858.0,1.0,3.0,0.0,126,69,64,79,72,462,464,465
2025-02-20 16:11:14.969,-286.0,-480.0,855.0,-2.0,2.0,-1.0,126,70,64,78,73,462,463,466
2025-02-20 16:11:14.990,-276.0,-517.0,844.0,-3.0,2.0,0.0,125,69,64,79,72,463,458,467
2025-02-20 16:11:15.005,-276.0,-514.0,837.0,-1.0,3.0,0.0,127,70,63,79,73,464,456,466
2025-02-20 16:11:15.027,-286.0,-497.0,835.0,0.0,2.0,0.0,127,69,63,79,73,462,456,467
2025-02-20 16:11:15.041,-282.0,-497.0,832.0,-1.0,1.0,-1.0,127,69,62,78,73,460,456,468
2025-02-20 16:11:15.064,-275.0,-507.0,836.0,-2.0,1.0,0.0,126,69,64,79,73,461,456,467
2025-02-20 16:11:15.084,-285.0,-514.0,822.0,0.0,1.0,-1.0,125,70,63,78,73,462,458,467
2025-02-20 16:11:15.101,-292.0,-505.0,817.0,3.0,-1.0,0.0,127,70,63,79,74,459,461,465
2025-02-20 16:11:15.121,-291.0,-489.0,829.0,0.0,-2.0,0.0,127,70,64,78,73,456,463,465
2025-02-20 16:11:15.142,-290.0,-507.0,831.0,-3.0,-1.0,0.0,126,70,64,79,74,460,463,465
2025-02-20 16:11:15.156,-287.0,-508.0,827.0,-2.0,-2.0,-1.0,127,70,64,80,73,464,464,464
2025-02-20 16:11:15.179,-301.0,-500.0,829.0,-2.0,-3.0,0.0,126,70,64,79,73,461,464,463
2025-02-20 16:11:15.199,-292.0,-521.0,832.0,1.0,-5.0,-1.0,128,70,64,78,73,455,466,463
2025-02-20 16:11:15.215,-288.0,-497.0,851.0,2.0,-4.0,-1.0,126,70,64,79,71,456,468,461
2025-02-20 16:11:15.235,-291.0,-494.0,861.0,0.0,-1.0,-1.0,126,70,64,79,73,452,469,463
2025-02-20 16:11:15.253,-285.0,-493.0,865.0,-2.0,1.0,-1.0,127,70,64,78,73,447,469,462
2025-02-20 16:11:15.271,-290.0,-513.0,856.0,-3.0,1.0,-1.0,127,70,64,79,73,445,468,461
2025-02-20 16:11:15.293,-285.0,-507.0,852.0,-1.0,1.0,0.0,127,70,63,79,73,447,466,462
2025-02-20 16:11:15.311,-292.0,-515.0,842.0,0.0,1.0,0.0,127,69,63,79,73,446,465,462
2025-02-20 16:11:15.330,-296.0,-504.0,845.0,1.0,0.0,0.0,126,70,63,79,73,446,463,463
2025-02-20 16:11:15.350,-293.0,-490.0,859.0,0.0,-1.0,0.0,126,70,64,79,74,450,460,463
2025-02-20 16:11:15.367,-278.0,-500.0,866.0,-1.0,3.0,-1.0,127,70,64,79,74,453,459,465
2025-02-20 16:11:15.387,-285.0,-506.0,831.0,0.0,3.0,-1.0,127,70,63,79,72,457,459,465
2025-02-20 16:11:15.405,-289.0,-493.0,820.0,-2.0,1.0,-1.0,127,70,64,79,74,460,458,466
2025-02-20 16:11:15.423,-289.0,-512.0,822.0,-1.0,-1.0,-1.0,127,70,66,78,72,463,458,465
2025-02-20 16:11:15.445,-296.0,-505.0,828.0,0.0,-2.0,0.0,127,70,63,79,73,464,457,466
2025-02-20 16:11:15.459,-287.0,-507.0,839.0,0.0,-2.0,0.0,127,69,64,80,77,463,458,466
2025-02-20 16:11:15.482,-282.0,-498.0,849.0,0.0,-1.0,-1.0,127,70,61,79,73,465,461,466
2025-02-20 16:11:15.502,-287.0,-499.0,843.0,-1.0,1.0,0.0,127,70,63,78,74,466,463,466
2025-02-20 16:11:15.519,-289.0,-499.0,836.0,-2.0,0.0,0.0,127,69,62,79,74,468,465,464
2025-02-20 16:11:15.539,-286.0,-510.0,832.0,-1.0,-1.0,0.0,127,70,65,80,73,472,465,465
2025-02-20 16:11:15.559,-289.0,-504.0,839.0,0.0,-1.0,1.0,128,70,63,79,73,473,465,464
2025-02-20 16:11:15.577,-294.0,-491.0,841.0,-2.0,-1.0,1.0,128,69,64,79,74,473,464,463
2025-02-20 16:11:15.596,-292.0,-492.0,854.0,-2.0,-1.0,0.0,127,70,64,80,74,472,464,463
2025-02-20 16:11:15.617,-298.0,-498.0,849.0,-1.0,-1.0,1.0,127,70,63,79,74,473,462,463
2025-02-20 16:11:15.634,-299.0,-485.0,845.0,-1.0,-1.0,0.0,126,70,65,79,73,474,464,462
2025-02-20 16:11:15.652,-298.0,-499.0,845.0,-2.0,-2.0,0.0,127,70,64,80,73,473,464,462
2025-02-20 16:11:15.674,-292.0,-512.0,840.0,0.0,-2.0,0.0,128,69,64,78,73,473,463,462
2025-02-20 16:11:15.688,-288.0,-501.0,845.0,0.0,-1.0,0.0,127,70,64,79,74,476,462,463
2025-02-20 16:11:15.711,-297.0,-500.0,851.0,-1.0,-1.0,0.0,126,71,64,80,74,472,461,464
2025-02-20 16:11:15.728,-289.0,-496.0,852.0,-3.0,0.0,0.0,126,70,64,79,73,471,460,463
2025-02-20 16:11:15.748,-296.0,-494.0,842.0,-2.0,-1.0,0.0,127,70,64,78,74,468,459,464
2025-02-20 16:11:15.769,-293.0,-501.0,849.0,-2.0,-1.0,-1.0,126,69,64,79,74,468,458,465
2025-02-20 16:11:15.785,-293.0,-498.0,839.0,-1.0,0.0,-1.0,126,70,64,79,74,470,458,465
