timestamp,ax,ay,az,gx,gy,gz,flex1,flex2,flex3,flex4,flex5,emg1,emg2,emg3
2025-02-20 15:46:30.643,-495.0,-247.0,867.0,-2.0,-2.0,0.0,128,110,98,127,115,463,1,466
2025-02-20 15:46:30.645,-499.0,-246.0,862.0,0.0,-2.0,0.0,128,111,97,127,116,463,1,469
2025-02-20 15:46:30.649,-500.0,-242.0,870.0,2.0,-2.0,0.0,128,110,98,127,116,463,1,467
2025-02-20 15:46:30.651,-499.0,-240.0,876.0,0.0,-3.0,0.0,128,111,98,127,116,462,1,467
2025-02-20 15:46:30.654,-495.0,-242.0,880.0,-3.0,-3.0,0.0,128,110,102,127,116,460,1,466
2025-02-20 15:46:30.657,-490.0,-245.0,880.0,-4.0,-2.0,0.0,128,111,99,127,116,458,0,465
2025-02-20 15:46:30.659,-493.0,-249.0,874.0,-2.0,-2.0,0.0,128,111,98,128,116,455,1,467
2025-02-20 15:46:30.661,-490.0,-251.0,874.0,0.0,-1.0,0.0,128,111,98,127,115,454,1,466
2025-02-20 15:46:30.661,-493.0,-245.0,875.0,0.0,-1.0,1.0,128,111,98,127,116,455,0,466
2025-02-20 15:46:30.668,-496.0,-238.0,873.0,-1.0,-1.0,0.0,128,111,98,127,115,456,1,465
2025-02-20 15:46:30.673,-484.0,-242.0,877.0,-1.0,-1.0,0.0,129,110,98,123,116,457,1,465
2025-02-20 15:46:30.695,-493.0,-248.0,870.0,0.0,-1.0,1.0,129,110,98,127,116,457,0,465
2025-02-20 15:46:30.715,-492.0,-249.0,871.0,-1.0,-1.0,1.0,129,111,98,127,116,459,1,464
2025-02-20 15:46:30.732,-485.0,-238.0,873.0,-1.0,-1.0,1.0,128,111,98,127,116,458,1,464
2025-02-20 15:46:30.753,-488.0,-239.0,871.0,-1.0,-1.0,1.0,128,111,98,127,116,452,2,464
2025-02-20 15:46:30.772,-486.0,-247.0,879.0,0.0,0.0,0.0,127,110,98,127,116,451,1,464
2025-02-20 15:46:30.788,-480.0,-247.0,884.0,-1.0,2.0,1.0,128,111,97,127,116,449,1,463
2025-02-20 15:46:30.809,-485.0,-239.0,873.0,-3.0,2.0,1.0,129,111,98,129,115,447,1,463
2025-02-20 15:46:30.827,-496.0,-237.0,856.0,-2.0,2.0,1.0,128,110,100,127,116,445,1,464
2025-02-20 15:46:30.846,-504.0,-243.0,853.0,0.0,1.0,1.0,128,111,98,127,116,444,2,464
2025-02-20 15:46:30.867,-503.0,-244.0,863.0,1.0,0.0,1.0,129,111,98,127,116,444,0,464
2025-02-20 15:46:30.884,-500.0,-230.0,859.0,0.0,0.0,2.0,128,110,98,127,116,444,1,463
2025-02-20 15:46:30.903,-499.0,-220.0,845.0,-3.0,-1.0,1.0,129,111,98,127,116,444,1,464
2025-02-20 15:46:30.924,-500.0,-235.0,841.0,-3.0,-3.0,0.0,128,115,98,127,116,446,1,463
2025-02-20 15:46:30.940,-500.0,-230.0,847.0,0.0,-3.0,0.0,128,111,99,127,115,446,1,463
2025-02-20 15:46:30.961,-498.0,-225.0,855.0,1.0,-3.0,-1.0,128,111,98,127,116,444,1,463
2025-02-20 15:46:30.978,-498.0,-232.0,863.0,1.0,-4.0,-1.0,128,111,98,127,116,444,2,464
2025-02-20 15:46:30.999,-488.0,-234.0,873.0,1.0,-4.0,-1.0,128,110,99,127,116,445,1,465
2025-02-20 15:46:31.018,-479.0,-230.0,885.0,1.0,-3.0,0.0,128,111,98,127,116,444,1,465
2025-02-20 15:46:31.035,-482.0,-229.0,886.0,0.0,-2.0,0.0,129,111,97,127,116,443,1,467
2025-02-20 15:46:31.054,-491.0,-230.0,877.0,0.0,-2.0,-1.0,128,111,98,127,116,443,0,465
2025-02-20 15:46:31.076,-490.0,-224.0,876.0,0.0,-3.0,-1.0,129,111,97,127,116,444,1,465
2025-02-20 15:46:31.092,-492.0,-230.0,877.0,-1.0,-3.0,-1.0,129,110,98,127,116,443,1,466
2025-02-20 15:46:31.112,-485.0,-230.0,879.0,-2.0,-3.0,-1.0,128,111,99,127,116,443,6,465
2025-02-20 15:46:31.133,-479.0,-237.0,872.0,-2.0,-2.0,-1.0,128,111,98,127,116,442,1,464
2025-02-20 15:46:31.145,-495.0,-239.0,872.0,0.0,-2.0,-1.0,128,110,99,127,116,442,1,464
2025-02-20 15:46:31.170,-499.0,-237.0,870.0,3.0,-3.0,0.0,131,111,97,127,116,442,1,463
2025-02-20 15:46:31.190,-500.0,-214.0,870.0,2.0,-4.0,1.0,127,111,97,127,116,443,1,463
2025-02-20 15:46:31.207,-503.0,-237.0,862.0,0.0,-6.0,1.0,129,111,98,128,116,444,1,463
2025-02-20 15:46:31.226,-492.0,-248.0,874.0,0.0,-6.0,1.0,128,111,98,127,116,446,0,461
2025-02-20 15:46:31.247,-487.0,-252.0,883.0,2.0,-6.0,2.0,128,110,98,127,116,447,1,462
2025-02-20 15:46:31.264,-488.0,-250.0,889.0,3.0,-6.0,3.0,128,111,98,127,116,448,1,462
2025-02-20 15:46:31.284,-474.0,-241.0,887.0,4.0,-5.0,2.0,128,110,98,127,116,448,1,462
2025-02-20 15:46:31.302,-478.0,-231.0,878.0,4.0,-4.0,2.0,129,111,98,128,116,447,0,462
2025-02-20 15:46:31.321,-480.0,-215.0,873.0,3.0,-7.0,3.0,128,110,98,127,116,446,1,460
2025-02-20 15:46:31.340,-473.0,-215.0,872.0,-2.0,-10.0,2.0,129,111,98,127,116,445,0,460
2025-02-20 15:46:31.359,-473.0,-208.0,925.0,0.0,-9.0,2.0,128,111,98,127,115,445,0,459
2025-02-20 15:46:31.377,-457.0,-230.0,879.0,4.0,-9.0,3.0,128,110,97,127,116,444,1,457
2025-02-20 15:46:31.399,-467.0,-216.0,886.0,8.0,-9.0,3.0,128,112,99,128,116,442,1,457
2025-02-20 15:46:31.416,-455.0,-214.0,886.0,9.0,-9.0,4.0,128,110,98,127,116,441,0,457
2025-02-20 15:46:31.436,-463.0,-203.0,900.0,8.0,-8.0,4.0,129,111,99,128,116,433,0,456
2025-02-20 15:46:31.455,-459.0,-216.0,907.0,6.0,-6.0,4.0,128,111,98,128,116,436,3,456
2025-02-20 15:46:31.472,-458.0,-213.0,904.0,10.0,-5.0,3.0,129,111,98,128,116,434,1,453
2025-02-20 15:46:31.493,-449.0,-201.0,912.0,11.0,-4.0,4.0,127,111,98,127,116,439,1,455
2025-02-20 15:46:31.511,-466.0,-195.0,908.0,8.0,-3.0,5.0,128,111,98,129,117,440,1,454
2025-02-20 15:46:31.529,-469.0,-198.0,910.0,5.0,-3.0,5.0,128,111,99,127,116,448,0,454
2025-02-20 15:46:31.551,-482.0,-204.0,912.0,7.0,-3.0,4.0,128,110,98,127,116,452,0,454
2025-02-20 15:46:31.568,-476.0,-187.0,907.0,8.0,0.0,4.0,128,111,96,127,117,455,0,455
2025-02-20 15:46:31.588,-465.0,-192.0,895.0,6.0,0.0,4.0,128,111,98,128,116,454,1,455
2025-02-20 15:46:31.607,-471.0,-179.0,894.0,4.0,-2.0,3.0,128,111,98,127,116,457,0,455
2025-02-20 15:46:31.626,-467.0,-193.0,884.0,1.0,-4.0,3.0,128,110,98,128,116,457,1,455
2025-02-20 15:46:31.644,-459.0,-201.0,894.0,2.0,-4.0,3.0,129,111,99,128,116,458,1,455
2025-02-20 15:46:31.665,-459.0,-201.0,902.0,5.0,-3.0,4.0,129,111,98,127,116,460,1,456
2025-02-20 15:46:31.680,-461.0,-187.0,900.0,5.0,-2.0,5.0,128,110,98,127,116,461,1,456
2025-02-20 15:46:31.702,-461.0,-166.0,875.0,5.0,-2.0,4.0,129,110,98,128,116,461,1,457
2025-02-20 15:46:31.720,-474.0,-169.0,891.0,3.0,-2.0,4.0,128,110,98,126,117,459,1,455
2025-02-20 15:46:31.740,-472.0,-167.0,890.0,3.0,-4.0,4.0,128,110,99,127,116,459,1,456
2025-02-20 15:46:31.759,-464.0,-170.0,909.0,2.0,-6.0,3.0,129,111,97,128,116,465,1,455
2025-02-20 15:46:31.778,-449.0,-175.0,908.0,3.0,-4.0,2.0,128,110,98,127,116,468,1,455
2025-02-20 15:46:31.796,-475.0,-146.0,965.0,7.0,-2.0,3.0,128,111,98,128,116,468,0,455
2025-02-20 15:46:31.817,-455.0,-158.0,918.0,3.0,-2.0,2.0,128,110,98,127,116,466,1,455
2025-02-20 15:46:31.834,-459.0,-149.0,908.0,0.0,-3.0,1.0,129,111,99,128,116,465,1,455
2025-02-20 15:46:31.854,-453.0,-156.0,914.0,-1.0,-2.0,1.0,128,111,98,128,116,464,1,454
2025-02-20 15:46:31.874,-443.0,-168.0,908.0,0.0,1.0,1.0,128,111,98,128,116,465,1,455
2025-02-20 15:46:31.892,-446.0,-168.0,907.0,1.0,3.0,1.0,128,111,97,127,117,462,1,455
2025-02-20 15:46:31.911,-459.0,-151.0,892.0,3.0,2.0,1.0,127,111,98,127,116,459,1,455
2025-02-20 15:46:31.928,-452.0,-164.0,891.0,3.0,2.0,1.0,128,111,98,129,116,460,1,456
2025-02-20 15:46:31.948,-465.0,-158.0,892.0,3.0,2.0,2.0,128,110,98,127,116,458,1,455
2025-02-20 15:46:31.968,-464.0,-148.0,894.0,2.0,0.0,2.0,128,111,98,127,116,459,1,456
2025-02-20 15:46:31.986,-468.0,-153.0,893.0,2.0,0.0,2.0,127,111,98,127,117,459,0,457
2025-02-20 15:46:32.006,-470.0,-157.0,898.0,3.0,-2.0,3.0,128,111,98,126,116,458,1,457
2025-02-20 15:46:32.026,-463.0,-138.0,912.0,2.0,-2.0,2.0,128,111,98,128,116,458,1,457
2025-02-20 15:46:32.043,-466.0,-140.0,907.0,1.0,-2.0,1.0,128,110,100,127,115,457,1,456
2025-02-20 15:46:32.063,-463.0,-146.0,908.0,1.0,-2.0,1.0,128,110,98,128,116,457,1,458
2025-02-20 15:46:32.080,-458.0,-146.0,912.0,3.0,-1.0,0.0,127,110,98,128,116,456,1,457
2025-02-20 15:46:32.099,-460.0,-140.0,918.0,3.0,1.0,0.0,128,110,98,127,116,455,1,457
2025-02-20 15:46:32.120,-454.0,-139.0,919.0,1.0,1.0,-1.0,128,110,98,128,116,455,1,457
2025-02-20 15:46:32.140,-459.0,-142.0,908.0,-1.0,1.0,-1.0,128,111,98,128,116,457,0,456
2025-02-20 15:46:32.157,-454.0,-152.0,895.0,-1.0,1.0,-1.0,129,111,99,127,117,458,0,454
2025-02-20 15:46:32.177,-451.0,-154.0,900.0,1.0,1.0,-1.0,128,110,98,127,116,461,1,455
2025-02-20 15:46:32.194,-463.0,-145.0,908.0,2.0,3.0,0.0,128,110,99,127,116,465,1,454
2025-02-20 15:46:32.215,-470.0,-133.0,901.0,1.0,2.0,0.0,128,111,99,128,116,469,1,455
2025-02-20 15:46:32.235,-463.0,-134.0,894.0,-1.0,0.0,0.0,128,110,98,128,116,471,1,454
2025-02-20 15:46:32.251,-461.0,-142.0,895.0,-1.0,0.0,0.0,128,111,98,127,116,472,1,455
2025-02-20 15:46:32.272,-465.0,-142.0,896.0,0.0,0.0,0.0,128,110,98,127,116,470,2,456
2025-02-20 15:46:32.292,-471.0,-142.0,893.0,1.0,0.0,0.0,128,111,98,128,116,466,2,456
2025-02-20 15:46:32.308,-471.0,-142.0,899.0,2.0,0.0,-1.0,129,110,99,128,116,460,1,455
2025-02-20 15:46:32.329,-471.0,-139.0,895.0,2.0,0.0,-2.0,128,112,98,127,116,456,1,457
2025-02-20 15:46:32.349,-472.0,-146.0,896.0,1.0,-1.0,-1.0,128,110,98,128,116,453,1,456
2025-02-20 15:46:32.365,-464.0,-145.0,903.0,0.0,-1.0,0.0,128,111,98,129,116,454,1,457
2025-02-20 15:46:32.387,-462.0,-143.0,911.0,0.0,-1.0,0.0,128,111,98,127,116,457,1,457
2025-02-20 15:46:32.401,-467.0,-141.0,908.0,2.0,1.0,0.0,128,110,98,128,116,466,1,457
2025-02-20 15:46:32.424,-468.0,-135.0,900.0,2.0,1.0,0.0,128,111,98,128,116,473,1,458
2025-02-20 15:46:32.443,-480.0,-125.0,893.0,2.0,0.0,1.0,128,110,97,127,117,478,0,458
2025-02-20 15:46:32.461,-482.0,-134.0,899.0,1.0,-2.0,1.0,128,110,98,128,116,480,1,458
2025-02-20 15:46:32.480,-471.0,-135.0,903.0,0.0,-3.0,0.0,128,110,99,127,116,481,1,456
2025-02-20 15:46:32.496,-467.0,-134.0,913.0,2.0,-1.0,0.0,129,111,98,128,115,479,1,458
2025-02-20 15:46:32.517,-465.0,-132.0,912.0,3.0,0.0,-1.0,128,110,98,128,116,476,1,457
2025-02-20 15:46:32.533,-460.0,-132.0,917.0,2.0,0.0,-1.0,128,111,98,128,116,473,1,456
2025-02-20 15:46:32.558,-453.0,-139.0,912.0,0.0,0.0,-1.0,129,111,98,128,116,469,2,457
2025-02-20 15:46:32.576,-453.0,-141.0,910.0,-1.0,0.0,-1.0,128,111,98,127,116,465,1,457
2025-02-20 15:46:32.595,-450.0,-142.0,916.0,0.0,0.0,-1.0,128,110,98,128,116,464,2,457
2025-02-20 15:46:32.615,-453.0,-143.0,911.0,-2.0,2.0,-1.0,128,110,98,127,116,461,0,456
2025-02-20 15:46:32.632,-458.0,-131.0,897.0,-1.0,2.0,-1.0,128,110,98,128,115,459,2,457
2025-02-20 15:46:32.645,-469.0,-131.0,896.0,-2.0,1.0,0.0,128,110,98,127,116,456,0,457
2025-02-20 15:46:32.670,-470.0,-129.0,890.0,-2.0,0.0,0.0,128,111,98,128,117,453,0,457
2025-02-20 15:46:32.690,-480.0,-134.0,896.0,-1.0,0.0,0.0,128,111,98,128,116,449,1,457
2025-02-20 15:46:32.709,-476.0,-130.0,891.0,-1.0,-1.0,-1.0,129,110,99,127,115,444,1,457
2025-02-20 15:46:32.727,-478.0,-131.0,895.0,-1.0,-1.0,0.0,129,111,98,128,116,441,1,458
2025-02-20 15:46:32.747,-469.0,-132.0,900.0,0.0,-1.0,0.0,128,111,98,127,116,440,1,459
2025-02-20 15:46:32.767,-475.0,-129.0,901.0,-1.0,0.0,0.0,128,111,98,127,117,444,1,460
2025-02-20 15:46:32.784,-479.0,-133.0,902.0,-1.0,-1.0,0.0,129,111,98,127,116,446,1,459
2025-02-20 15:46:32.805,-476.0,-130.0,907.0,0.0,-1.0,0.0,128,111,100,127,116,448,1,458
2025-02-20 15:46:32.825,-472.0,-135.0,909.0,0.0,0.0,0.0,128,111,98,128,115,447,1,459
2025-02-20 15:46:32.841,-467.0,-131.0,906.0,-1.0,1.0,0.0,128,110,99,129,116,447,1,459
2025-02-20 15:46:32.861,-472.0,-140.0,902.0,-1.0,0.0,0.0,128,111,99,128,116,447,2,459
2025-02-20 15:46:32.879,-468.0,-135.0,909.0,-2.0,-1.0,0.0,128,110,99,129,116,448,1,458
2025-02-20 15:46:32.898,-460.0,-143.0,908.0,-2.0,-1.0,1.0,128,113,99,128,116,445,2,458
2025-02-20 15:46:32.919,-458.0,-138.0,901.0,-1.0,0.0,1.0,128,111,98,128,115,437,1,458
2025-02-20 15:46:32.936,-475.0,-132.0,897.0,-2.0,0.0,1.0,128,111,99,128,116,430,0,457
2025-02-20 15:46:32.956,-473.0,-127.0,889.0,-3.0,1.0,1.0,129,111,98,127,116,426,1,457
2025-02-20 15:46:32.976,-475.0,-133.0,874.0,-2.0,0.0,1.0,127,110,98,128,116,425,1,458
2025-02-20 15:46:32.993,-481.0,-130.0,880.0,-2.0,-1.0,1.0,128,110,99,128,116,426,2,458
2025-02-20 15:46:33.013,-481.0,-129.0,887.0,-2.0,-2.0,0.0,128,111,99,127,116,433,1,457
2025-02-20 15:46:33.033,-474.0,-126.0,900.0,-3.0,-3.0,0.0,128,110,97,128,115,443,2,458
2025-02-20 15:46:33.050,-467.0,-130.0,916.0,-3.0,-3.0,-1.0,128,110,98,122,116,453,0,458
2025-02-20 15:46:33.069,-458.0,-132.0,921.0,-3.0,-1.0,-1.0,128,110,99,128,116,461,1,459
2025-02-20 15:46:33.086,-459.0,-138.0,916.0,-2.0,0.0,-1.0,128,111,98,128,116,466,1,458
2025-02-20 15:46:33.107,-458.0,-125.0,904.0,-2.0,0.0,0.0,125,110,97,127,116,468,0,459
2025-02-20 15:46:33.128,-465.0,-128.0,897.0,-2.0,-1.0,0.0,128,110,98,127,116,466,1,459
2025-02-20 15:46:33.145,-466.0,-131.0,904.0,-2.0,-2.0,0.0,128,110,98,128,116,465,2,459
2025-02-20 15:46:33.165,-471.0,-135.0,906.0,-1.0,-2.0,0.0,128,111,95,128,116,466,2,459
2025-02-20 15:46:33.185,-478.0,-124.0,906.0,1.0,-1.0,1.0,129,111,98,128,115,465,1,459
2025-02-20 15:46:33.203,-492.0,-120.0,908.0,0.0,-1.0,0.0,128,111,99,128,115,465,1,459
2025-02-20 15:46:33.223,-485.0,-115.0,916.0,0.0,-1.0,-1.0,128,111,98,128,116,466,0,459
2025-02-20 15:46:33.242,-489.0,-125.0,921.0,-1.0,-1.0,-1.0,128,110,98,128,115,469,1,459
2025-02-20 15:46:33.259,-481.0,-125.0,917.0,0.0,0.0,-2.0,129,110,98,127,116,472,1,460
2025-02-20 15:46:33.279,-484.0,-135.0,917.0,1.0,1.0,-2.0,128,109,98,127,116,476,1,459
2025-02-20 15:46:33.296,-475.0,-132.0,913.0,1.0,1.0,-2.0,128,110,99,128,115,477,1,458
2025-02-20 15:46:33.316,-474.0,-143.0,900.0,-1.0,2.0,-2.0,129,111,98,128,116,482,1,459
2025-02-20 15:46:33.337,-472.0,-148.0,901.0,-2.0,2.0,-1.0,128,112,99,127,116,484,1,458
2025-02-20 15:46:33.353,-467.0,-151.0,892.0,-2.0,1.0,-1.0,128,111,98,128,116,483,1,459
2025-02-20 15:46:33.374,-465.0,-151.0,884.0,-2.0,1.0,0.0,128,109,98,127,116,479,1,458
2025-02-20 15:46:33.393,-470.0,-150.0,887.0,-2.0,0.0,0.0,129,111,98,127,116,476,1,459
2025-02-20 15:46:33.411,-471.0,-147.0,898.0,0.0,-1.0,0.0,129,110,98,128,116,471,1,459
2025-02-20 15:46:33.431,-470.0,-139.0,897.0,-1.0,0.0,1.0,129,111,99,128,116,468,1,458
2025-02-20 15:46:33.451,-470.0,-127.0,908.0,-2.0,0.0,0.0,128,111,98,128,116,468,1,459
2025-02-20 15:46:33.468,-472.0,-136.0,900.0,-2.0,0.0,0.0,128,111,97,128,116,467,1,460
2025-02-20 15:46:33.487,-475.0,-133.0,899.0,-2.0,0.0,0.0,129,111,98,129,116,465,2,460
2025-02-20 15:46:33.508,-473.0,-131.0,890.0,-2.0,0.0,0.0,128,110,98,128,117,464,0,460
2025-02-20 15:46:33.525,-477.0,-133.0,888.0,-2.0,0.0,0.0,128,111,98,127,116,464,0,460
2025-02-20 15:46:33.545,-484.0,-137.0,883.0,-1.0,0.0,0.0,128,112,99,127,116,463,0,461
2025-02-20 15:46:33.562,-480.0,-133.0,889.0,0.0,-2.0,0.0,129,111,98,128,116,464,1,461
2025-02-20 15:46:33.583,-481.0,-128.0,890.0,-1.0,-1.0,0.0,129,110,99,127,116,464,1,461
2025-02-20 15:46:33.603,-470.0,-125.0,889.0,1.0,-2.0,0.0,128,110,98,128,115,469,1,462
2025-02-20 15:46:33.619,-487.0,-121.0,904.0,0.0,-1.0,-1.0,128,110,98,128,116,468,1,461
2025-02-20 15:46:33.640,-482.0,-125.0,914.0,0.0,0.0,-1.0,128,110,98,127,115,469,2,460
2025-02-20 15:46:33.660,-480.0,-129.0,911.0,-1.0,1.0,-1.0,129,111,99,127,116,469,0,460
2025-02-20 15:46:33.677,-478.0,-141.0,901.0,-2.0,0.0,-2.0,129,111,97,128,117,470,0,460
2025-02-20 15:46:33.697,-480.0,-149.0,904.0,-1.0,0.0,-2.0,128,111,99,128,116,469,1,460
2025-02-20 15:46:33.716,-471.0,-150.0,910.0,-1.0,0.0,-1.0,129,110,99,128,116,468,1,460
2025-02-20 15:46:33.735,-473.0,-146.0,906.0,-2.0,0.0,0.0,128,111,98,128,116,467,1,459
2025-02-20 15:46:33.752,-474.0,-136.0,900.0,-1.0,0.0,0.0,128,111,98,128,115,468,1,459
2025-02-20 15:46:33.772,-479.0,-123.0,904.0,0.0,1.0,0.0,128,110,97,127,116,467,1,459
2025-02-20 15:46:33.791,-480.0,-125.0,898.0,0.0,1.0,-1.0,128,110,98,128,116,468,2,460
2025-02-20 15:46:33.812,-472.0,-129.0,900.0,0.0,2.0,-2.0,128,110,98,128,116,469,1,461
2025-02-20 15:46:33.829,-479.0,-128.0,897.0,1.0,1.0,-1.0,128,110,97,128,115,470,1,457
2025-02-20 15:46:33.848,-485.0,-124.0,892.0,0.0,0.0,-1.0,129,111,98,128,116,469,1,460
2025-02-20 15:46:33.867,-486.0,-120.0,894.0,-1.0,0.0,-2.0,128,111,97,127,116,468,0,460
2025-02-20 15:46:33.886,-483.0,-129.0,891.0,0.0,0.0,-2.0,129,111,97,127,115,465,0,460
2025-02-20 15:46:33.906,-484.0,-133.0,891.0,-1.0,-1.0,-1.0,129,111,99,128,116,464,1,461
2025-02-20 15:46:33.926,-478.0,-141.0,894.0,0.0,-1.0,-2.0,129,111,98,128,116,467,1,461
2025-02-20 15:46:33.944,-481.0,-142.0,901.0,0.0,-1.0,-1.0,128,111,99,128,116,468,1,461
2025-02-20 15:46:33.963,-478.0,-143.0,902.0,0.0,-1.0,-1.0,129,110,99,128,116,467,0,461
2025-02-20 15:46:33.983,-476.0,-138.0,910.0,0.0,-1.0,-1.0,128,110,95,128,115,467,1,461
2025-02-20 15:46:34.001,-478.0,-138.0,910.0,0.0,0.0,0.0,128,110,99,127,115,466,1,460
2025-02-20 15:46:34.021,-482.0,-132.0,903.0,0.0,0.0,0.0,128,110,97,128,116,466,1,461
2025-02-20 15:46:34.038,-486.0,-129.0,894.0,-1.0,-1.0,-1.0,128,110,99,128,116,465,0,460
2025-02-20 15:46:34.055,-483.0,-137.0,895.0,-1.0,-1.0,-1.0,128,110,98,128,116,464,1,461
2025-02-20 15:46:34.078,-480.0,-131.0,894.0,1.0,-1.0,0.0,129,111,99,129,117,464,1,460
2025-02-20 15:46:34.095,-479.0,-129.0,895.0,0.0,-1.0,0.0,128,110,98,128,116,462,1,460
2025-02-20 15:46:34.115,-488.0,-133.0,900.0,-1.0,-1.0,0.0,129,111,99,128,116,464,2,460
2025-02-20 15:46:34.135,-479.0,-132.0,896.0,0.0,0.0,-1.0,128,110,98,128,115,465,1,461
2025-02-20 15:46:34.152,-485.0,-125.0,898.0,1.0,1.0,-1.0,128,110,99,128,116,467,0,460
2025-02-20 15:46:34.172,-480.0,-125.0,890.0,-1.0,0.0,-1.0,128,110,98,129,116,466,1,460
2025-02-20 15:46:34.192,-479.0,-132.0,888.0,-2.0,-1.0,-1.0,128,111,99,127,116,467,1,460
2025-02-20 15:46:34.210,-473.0,-144.0,887.0,-1.0,-1.0,0.0,128,110,99,128,112,467,1,461
2025-02-20 15:46:34.229,-477.0,-135.0,894.0,-1.0,-2.0,0.0,128,110,99,128,116,466,2,461
2025-02-20 15:46:34.247,-475.0,-122.0,896.0,-2.0,-2.0,0.0,129,110,99,127,116,464,0,462
2025-02-20 15:46:34.267,-479.0,-124.0,900.0,-2.0,-2.0,-1.0,128,110,98,127,115,464,1,462
2025-02-20 15:46:34.287,-480.0,-132.0,907.0,-1.0,-2.0,-1.0,128,110,98,128,116,466,1,463
2025-02-20 15:46:34.304,-474.0,-134.0,906.0,0.0,-1.0,-1.0,128,109,99,128,116,467,1,462
2025-02-20 15:46:34.324,-474.0,-128.0,912.0,0.0,-1.0,-1.0,128,110,98,128,116,468,1,462
2025-02-20 15:46:34.344,-483.0,-130.0,899.0,-1.0,-1.0,-1.0,128,110,98,129,116,468,1,462
2025-02-20 15:46:34.361,-477.0,-126.0,898.0,-1.0,0.0,0.0,128,111,98,128,116,468,1,463
2025-02-20 15:46:34.381,-484.0,-121.0,902.0,0.0,0.0,-1.0,128,109,98,127,116,466,1,463
2025-02-20 15:46:34.401,-489.0,-127.0,900.0,1.0,-1.0,-1.0,128,110,98,128,116,466,0,462
2025-02-20 15:46:34.418,-488.0,-123.0,908.0,0.0,-1.0,0.0,128,111,98,128,116,463,2,462
2025-02-20 15:46:34.438,-483.0,-121.0,908.0,-1.0,-1.0,-1.0,128,110,98,128,116,462,1,462
2025-02-20 15:46:34.456,-492.0,-119.0,903.0,-1.0,0.0,-1.0,128,111,97,127,116,461,1,463
2025-02-20 15:46:34.476,-481.0,-127.0,897.0,0.0,0.0,-1.0,128,110,98,128,115,457,2,462
2025-02-20 15:46:34.496,-489.0,-132.0,897.0,2.0,1.0,-2.0,128,110,98,128,116,454,1,462
2025-02-20 15:46:34.513,-484.0,-128.0,894.0,1.0,-1.0,-1.0,128,110,98,128,116,454,1,460
2025-02-20 15:46:34.533,-480.0,-128.0,895.0,-2.0,-2.0,-1.0,128,110,99,128,116,458,1,461
2025-02-20 15:46:34.553,-472.0,-147.0,895.0,-3.0,-2.0,-1.0,128,111,99,128,115,461,1,461
2025-02-20 15:46:34.570,-469.0,-145.0,895.0,0.0,-1.0,-1.0,128,111,98,128,116,464,1,461
2025-02-20 15:46:34.590,-474.0,-139.0,901.0,1.0,0.0,0.0,128,112,99,128,117,463,0,462
2025-02-20 15:46:34.606,-482.0,-126.0,890.0,0.0,0.0,-1.0,128,110,98,129,116,464,1,466
2025-02-20 15:46:34.625,-482.0,-126.0,888.0,-1.0,-1.0,-1.0,129,111,98,128,115,464,1,462
2025-02-20 15:46:34.648,-482.0,-132.0,895.0,-2.0,-1.0,-1.0,128,111,99,128,115,466,0,462
2025-02-20 15:46:34.667,-481.0,-138.0,896.0,-1.0,-1.0,0.0,129,110,98,127,115,467,1,462
2025-02-20 15:46:34.684,-478.0,-132.0,899.0,0.0,0.0,0.0,128,110,98,128,116,469,2,463
2025-02-20 15:46:34.704,-482.0,-125.0,892.0,0.0,0.0,0.0,127,110,99,129,116,468,1,463
2025-02-20 15:46:34.721,-487.0,-121.0,898.0,0.0,-2.0,0.0,128,110,99,127,115,468,1,462
2025-02-20 15:46:34.742,-482.0,-124.0,893.0,-1.0,-2.0,-1.0,129,110,99,128,116,467,1,464
2025-02-20 15:46:34.762,-483.0,-131.0,906.0,-1.0,-2.0,0.0,128,110,98,128,116,466,1,463
2025-02-20 15:46:34.778,-475.0,-138.0,909.0,-1.0,-1.0,-1.0,128,111,99,127,116,464,1,462
2025-02-20 15:46:34.799,-478.0,-132.0,907.0,0.0,0.0,0.0,129,110,98,128,115,461,1,462
2025-02-20 15:46:34.819,-483.0,-129.0,896.0,0.0,0.0,0.0,129,110,98,128,116,459,1,461
2025-02-20 15:46:34.836,-485.0,-127.0,903.0,0.0,0.0,0.0,128,110,98,128,116,457,3,462
2025-02-20 15:46:34.855,-483.0,-121.0,903.0,-1.0,-1.0,0.0,129,110,98,128,115,459,0,461
2025-02-20 15:46:34.877,-478.0,-126.0,898.0,-2.0,0.0,-1.0,128,111,98,129,116,461,1,461
2025-02-20 15:46:34.893,-480.0,-129.0,904.0,-1.0,0.0,-1.0,128,110,98,128,116,461,1,461
2025-02-20 15:46:34.914,-482.0,-129.0,898.0,-1.0,1.0,0.0,128,111,98,128,116,462,1,462
2025-02-20 15:46:34.928,-485.0,-130.0,886.0,1.0,1.0,0.0,128,110,99,127,116,463,1,462
2025-02-20 15:46:34.951,-486.0,-126.0,886.0,1.0,0.0,0.0,128,111,97,127,116,465,1,467
2025-02-20 15:46:34.970,-484.0,-115.0,891.0,-1.0,-1.0,-1.0,128,110,99,128,116,465,1,463
2025-02-20 15:46:34.987,-480.0,-123.0,887.0,-2.0,-1.0,-1.0,129,110,99,127,116,466,0,463
2025-02-20 15:46:35.008,-480.0,-136.0,892.0,0.0,-1.0,-1.0,130,110,99,128,116,468,0,465
2025-02-20 15:46:35.028,-472.0,-131.0,895.0,1.0,-1.0,-1.0,129,110,97,128,115,467,1,464
2025-02-20 15:46:35.044,-482.0,-124.0,894.0,-1.0,-2.0,0.0,129,111,99,128,115,467,1,464
2025-02-20 15:46:35.065,-489.0,-125.0,896.0,-2.0,-2.0,-1.0,128,110,98,128,115,468,1,463
2025-02-20 15:46:35.086,-475.0,-128.0,905.0,-2.0,-2.0,-1.0,129,111,98,127,116,470,2,464
2025-02-20 15:46:35.098,-479.0,-127.0,902.0,0.0,0.0,-1.0,127,110,99,129,116,470,1,464
2025-02-20 15:46:35.122,-483.0,-120.0,900.0,1.0,0.0,-1.0,128,111,98,127,116,468,1,464
2025-02-20 15:46:35.140,-484.0,-129.0,896.0,-1.0,0.0,-1.0,128,110,99,128,116,466,1,464
2025-02-20 15:46:35.160,-485.0,-128.0,894.0,-1.0,-1.0,-1.0,128,110,98,128,116,464,1,464
2025-02-20 15:46:35.180,-477.0,-131.0,890.0,-2.0,-2.0,-1.0,128,110,99,125,116,464,1,464
2025-02-20 15:46:35.197,-476.0,-133.0,905.0,-1.0,-1.0,-1.0,128,110,98,129,116,464,1,462
2025-02-20 15:46:35.217,-477.0,-137.0,905.0,0.0,0.0,0.0,128,110,98,129,116,461,2,463
2025-02-20 15:46:35.237,-493.0,-132.0,899.0,1.0,0.0,0.0,129,111,98,128,116,459,2,463
2025-02-20 15:46:35.254,-491.0,-120.0,904.0,-1.0,-1.0,-1.0,128,110,98,128,116,453,1,463
2025-02-20 15:46:35.274,-477.0,-134.0,900.0,-1.0,-1.0,0.0,128,110,98,128,114,448,1,463
2025-02-20 15:46:35.294,-471.0,-122.0,912.0,-1.0,-1.0,0.0,128,110,99,123,116,447,0,463
2025-02-20 15:46:35.311,-480.0,-115.0,898.0,-1.0,-1.0,-1.0,129,110,98,127,116,446,1,465
2025-02-20 15:46:35.332,-497.0,-129.0,895.0,-2.0,-2.0,-1.0,128,110,99,129,116,449,1,464
2025-02-20 15:46:35.351,-489.0,-137.0,898.0,-2.0,-4.0,-1.0,128,110,99,128,116,455,1,464
2025-02-20 15:46:35.368,-481.0,-137.0,907.0,-3.0,-4.0,0.0,128,110,99,128,115,462,2,465
2025-02-20 15:46:35.387,-491.0,-136.0,917.0,-3.0,-5.0,0.0,129,110,99,128,114,467,1,465
2025-02-20 15:46:35.406,-491.0,-151.0,919.0,-3.0,-4.0,0.0,129,110,98,128,116,474,1,465
2025-02-20 15:46:35.426,-475.0,-150.0,933.0,-1.0,-1.0,2.0,128,110,98,126,115,477,1,466
2025-02-20 15:46:35.445,-475.0,-134.0,922.0,-2.0,2.0,2.0,128,110,98,127,115,478,0,466
2025-02-20 15:46:35.461,-478.0,-125.0,904.0,-5.0,2.0,2.0,129,110,99,128,115,477,1,466
2025-02-20 15:46:35.483,-468.0,-112.0,878.0,-6.0,1.0,2.0,128,111,99,128,116,475,1,464
2025-02-20 15:46:35.504,-455.0,-115.0,863.0,-6.0,2.0,1.0,128,111,98,128,116,470,1,466
2025-02-20 15:46:35.520,-462.0,-102.0,841.0,-6.0,1.0,0.0,128,110,98,126,116,462,1,464
2025-02-20 15:46:35.541,-466.0,-96.0,815.0,-7.0,-2.0,0.0,128,111,99,128,116,455,1,465
2025-02-20 15:46:35.556,-550.0,-73.0,729.0,-3.0,-18.0,-3.0,128,109,98,127,116,448,1,464
2025-02-20 15:46:35.578,-490.0,-16.0,825.0,-15.0,-11.0,-4.0,128,110,98,128,116,446,1,463
2025-02-20 15:46:35.595,-529.0,51.0,644.0,-17.0,-21.0,-13.0,128,111,98,128,117,447,2,463
2025-02-20 15:46:35.615,-594.0,25.0,585.0,-17.0,-44.0,-27.0,128,110,98,127,116,464,1,463
2025-02-20 15:46:35.634,-641.0,72.0,607.0,-10.0,-77.0,-42.0,128,110,97,127,116,469,1,461
2025-02-20 15:46:35.655,-646.0,6.0,719.0,-29.0,-114.0,-68.0,128,107,94,127,110,468,1,459
2025-02-20 15:46:35.672,-684.0,-273.0,865.0,-95.0,-211.0,-78.0,129,105,87,126,98,468,1,462
2025-02-20 15:46:35.692,-195.0,-417.0,1146.0,-165.0,-251.0,-36.0,128,102,83,122,90,452,1,463
2025-02-20 15:46:35.710,324.0,-811.0,1701.0,-208.0,-229.0,24.0,129,102,81,120,84,431,1,474
2025-02-20 15:46:35.730,626.0,-1187.0,2510.0,-192.0,-90.0,68.0,127,99,79,119,80,405,1,475
2025-02-20 15:46:35.749,768.0,-1133.0,2611.0,-171.0,103.0,107.0,128,91,72,114,72,387,1,464
2025-02-20 15:46:35.769,484.0,-1067.0,2195.0,-163.0,256.0,114.0,129,79,65,103,66,429,1,456
2025-02-20 15:46:35.786,240.0,-944.0,1725.0,-164.0,327.0,137.0,129,64,58,86,60,483,0,459
2025-02-20 15:46:35.807,-25.0,-781.0,1407.0,-168.0,355.0,158.0,129,60,54,78,56,461,0,460
2025-02-20 15:46:35.823,27.0,-534.0,1153.0,-200.0,343.0,156.0,129,57,52,73,53,465,1,463
2025-02-20 15:46:35.843,-72.0,-273.0,438.0,-265.0,291.0,182.0,127,55,49,66,49,428,1,475
2025-02-20 15:46:35.864,-381.0,-403.0,218.0,-272.0,251.0,193.0,125,54,47,60,46,444,1,471
2025-02-20 15:46:35.881,-322.0,-125.0,-144.0,-213.0,232.0,201.0,120,54,46,58,44,403,1,464
2025-02-20 15:46:35.901,-383.0,172.0,-99.0,-196.0,195.0,194.0,113,53,45,58,45,374,0,472
2025-02-20 15:46:35.921,-416.0,542.0,-253.0,-156.0,173.0,170.0,107,53,45,57,44,380,1,473
2025-02-20 15:46:35.938,-535.0,934.0,-443.0,-118.0,152.0,128.0,105,53,45,57,45,416,1,471
2025-02-20 15:46:35.958,-607.0,1232.0,-551.0,-68.0,119.0,65.0,102,53,45,57,45,442,0,466
2025-02-20 15:46:35.979,-597.0,1482.0,-659.0,-27.0,79.0,-6.0,101,54,46,58,46,475,1,469
2025-02-20 15:46:35.995,-675.0,1601.0,-864.0,33.0,32.0,-85.0,100,54,47,59,45,490,2,462
2025-02-20 15:46:36.013,-727.0,1785.0,-994.0,86.0,-44.0,-234.0,99,55,47,59,47,449,1,456
2025-02-20 15:46:36.036,-643.0,1681.0,-1035.0,113.0,-135.0,-376.0,100,55,46,60,47,449,0,452
2025-02-20 15:46:36.053,-740.0,1620.0,-1223.0,100.0,-265.0,-568.0,99,54,46,60,48,443,1,454
2025-02-20 15:46:36.073,-116.0,1766.0,-1430.0,8.0,-534.0,-775.0,101,55,45,62,49,442,0,466
2025-02-20 15:46:36.086,2623.0,832.0,-528.0,-216.0,-735.0,-858.0,102,54,46,65,50,426,0,479
2025-02-20 15:46:36.110,4939.0,-3281.0,1674.0,-411.0,-367.0,-522.0,101,56,47,67,52,446,2,481
2025-02-20 15:46:36.130,3588.0,-5776.0,700.0,-189.0,5.0,-220.0,97,55,46,67,52,450,2,465
2025-02-20 15:46:36.147,2202.0,-4983.0,-26.0,150.0,161.0,34.0,97,56,48,67,52,563,1,458
2025-02-20 15:46:36.167,944.0,-2779.0,-127.0,113.0,128.0,188.0,98,56,47,66,51,486,1,457
2025-02-20 15:46:36.187,541.0,-2040.0,129.0,39.0,90.0,195.0,99,56,46,66,51,483,0,453
2025-02-20 15:46:36.204,266.0,-1970.0,112.0,24.0,104.0,227.0,98,56,47,68,52,519,0,459
2025-02-20 15:46:36.225,-61.0,-1620.0,-6.0,30.0,79.0,263.0,98,57,47,69,49,555,0,465
2025-02-20 15:46:36.241,-1.0,-1020.0,154.0,28.0,75.0,280.0,99,56,48,69,51,566,1,468
2025-02-20 15:46:36.262,22.0,-834.0,291.0,17.0,96.0,304.0,99,58,47,68,53,566,2,466
2025-02-20 15:46:36.282,-157.0,-492.0,187.0,5.0,96.0,318.0,99,57,48,68,52,506,1,447
2025-02-20 15:46:36.299,-334.0,-204.0,127.0,-12.0,75.0,305.0,100,57,50,68,52,512,0,452
2025-02-20 15:46:36.317,-274.0,98.0,213.0,-15.0,92.0,279.0,100,57,49,70,52,457,2,452
2025-02-20 15:46:36.338,-283.0,-44.0,170.0,16.0,103.0,253.0,100,58,50,68,53,449,1,460
2025-02-20 15:46:36.356,-417.0,104.0,103.0,48.0,115.0,236.0,100,58,50,68,53,460,1,482
2025-02-20 15:46:36.376,-555.0,261.0,-14.0,70.0,114.0,199.0,100,58,50,68,53,454,1,499
2025-02-20 15:46:36.396,-672.0,499.0,-120.0,93.0,83.0,159.0,100,59,50,68,53,483,1,497
2025-02-20 15:46:36.413,-572.0,746.0,-189.0,105.0,69.0,116.0,100,58,51,68,53,498,1,492
2025-02-20 15:46:36.433,-677.0,965.0,-424.0,156.0,49.0,54.0,100,59,50,68,54,498,1,483
2025-02-20 15:46:36.453,-913.0,1507.0,-694.0,185.0,9.0,-46.0,99,59,50,69,54,455,1,458
2025-02-20 15:46:36.471,-1292.0,2172.0,-914.0,163.0,-79.0,-280.0,98,59,51,67,54,447,1,450
2025-02-20 15:46:36.491,-1533.0,2415.0,-1193.0,8.0,-266.0,-549.0,98,59,50,67,54,467,2,458
2025-02-20 15:46:36.508,-238.0,1808.0,-1414.0,-162.0,-589.0,-837.0,99,58,51,70,54,481,1,464
2025-02-20 15:46:36.528,2759.0,-172.0,-1233.0,-293.0,-800.0,-914.0,102,58,50,73,56,477,2,483
2025-02-20 15:46:36.547,5094.0,-4757.0,1756.0,-219.0,-589.0,-492.0,105,60,50,75,57,489,1,486
2025-02-20 15:46:36.565,4376.0,-5931.0,1573.0,-136.0,60.0,1.0,104,61,51,76,58,446,1,469
2025-02-20 15:46:36.583,1734.0,-4262.0,-24.0,159.0,210.0,101.0,105,61,51,73,57,295,1,461
2025-02-20 15:46:36.606,427.0,-2182.0,-228.0,157.0,147.0,205.0,107,61,53,72,55,313,1,465
2025-02-20 15:46:36.622,383.0,-1709.0,125.0,-19.0,88.0,242.0,110,63,51,74,57,395,0,462
2025-02-20 15:46:36.642,245.0,-1586.0,76.0,-51.0,56.0,250.0,110,61,51,76,56,449,1,456
2025-02-20 15:46:36.662,36.0,-1283.0,31.0,-13.0,63.0,273.0,113,62,52,77,57,481,1,450
2025-02-20 15:46:36.680,-27.0,-1054.0,192.0,36.0,58.0,300.0,114,61,53,76,57,466,0,454
2025-02-20 15:46:36.697,4.0,-645.0,347.0,31.0,89.0,323.0,116,61,53,75,58,475,1,445
2025-02-20 15:46:36.716,7.0,-362.0,303.0,-7.0,104.0,328.0,117,62,53,78,58,478,1,445
2025-02-20 15:46:36.737,-355.0,-191.0,261.0,-35.0,98.0,312.0,118,62,53,78,59,477,1,465
2025-02-20 15:46:36.757,-270.0,-214.0,188.0,-8.0,93.0,297.0,119,64,56,81,60,536,1,469
2025-02-20 15:46:36.774,-213.0,-142.0,169.0,39.0,109.0,292.0,119,63,56,80,61,536,0,465
2025-02-20 15:46:36.792,-346.0,83.0,91.0,102.0,136.0,279.0,120,63,56,79,61,529,2,467
2025-02-20 15:46:36.813,-470.0,265.0,44.0,122.0,148.0,250.0,122,64,57,79,61,523,1,474
2025-02-20 15:46:36.830,-689.0,848.0,-202.0,142.0,101.0,198.0,123,64,59,79,62,508,1,473
2025-02-20 15:46:36.849,-754.0,1102.0,-246.0,182.0,73.0,121.0,124,63,57,79,62,426,1,465
2025-02-20 15:46:36.871,-466.0,1552.0,-455.0,286.0,61.0,-28.0,126,62,57,79,61,410,2,452
2025-02-20 15:46:36.886,-990.0,2325.0,-816.0,244.0,18.0,-204.0,128,60,56,77,58,419,1,428
2025-02-20 15:46:36.909,-1498.0,2702.0,-1354.0,93.0,-183.0,-498.0,128,55,52,74,55,447,1,423
2025-02-20 15:46:36.927,-600.0,2400.0,-1715.0,-140.0,-433.0,-724.0,128,54,51,75,54,418,1,427
2025-02-20 15:46:36.946,841.0,1587.0,-2070.0,-325.0,-700.0,-924.0,134,52,50,77,55,404,1,441
2025-02-20 15:46:36.965,3803.0,-1336.0,-1572.0,-437.0,-875.0,-778.0,142,52,48,79,57,388,1,465
2025-02-20 15:46:36.986,4843.0,-3733.0,520.0,-465.0,-620.0,-436.0,144,53,49,79,57,355,1,464
2025-02-20 15:46:37.003,4310.0,-5331.0,1034.0,-162.0,6.0,-166.0,145,53,49,81,57,441,2,465
2025-02-20 15:46:37.023,1791.0,-4663.0,-633.0,202.0,194.0,-1.0,145,54,49,79,56,384,1,467
2025-02-20 15:46:37.040,617.0,-2198.0,-741.0,129.0,107.0,110.0,145,54,47,79,54,408,0,476
2025-02-20 15:46:37.060,451.0,-1823.0,3.0,17.0,-6.0,131.0,145,55,49,80,55,471,2,474
2025-02-20 15:46:37.081,366.0,-1929.0,220.0,36.0,56.0,158.0,146,55,49,84,56,538,1,474
2025-02-20 15:46:37.097,258.0,-1608.0,257.0,37.0,105.0,183.0,147,56,52,87,57,570,2,459
2025-02-20 15:46:37.118,3.0,-1299.0,-79.0,143.0,58.0,212.0,147,56,50,83,56,479,1,431
2025-02-20 15:46:37.138,37.0,-892.0,135.0,101.0,50.0,238.0,146,56,49,83,56,469,1,437
2025-02-20 15:46:37.154,149.0,-786.0,361.0,42.0,77.0,278.0,147,56,50,84,57,498,0,445
2025-02-20 15:46:37.175,132.0,-292.0,405.0,91.0,100.0,202.0,146,55,50,82,57,585,1,456
2025-02-20 15:46:37.192,-74.0,-425.0,331.0,111.0,135.0,198.0,147,56,50,83,57,577,1,462
2025-02-20 15:46:37.211,-162.0,-379.0,314.0,93.0,137.0,229.0,146,55,51,83,57,552,1,470
2025-02-20 15:46:37.232,-423.0,-302.0,148.0,52.0,145.0,269.0,147,56,50,81,56,564,1,484
2025-02-20 15:46:37.249,-294.0,99.0,290.0,96.0,118.0,233.0,148,56,51,80,57,552,1,486
2025-02-20 15:46:37.269,-239.0,114.0,397.0,120.0,157.0,205.0,146,56,50,80,56,523,1,492
2025-02-20 15:46:37.290,-444.0,97.0,186.0,157.0,164.0,188.0,147,57,51,80,57,451,1,488
2025-02-20 15:46:37.306,-597.0,921.0,-121.0,235.0,193.0,65.0,146,57,51,80,57,434,0,477
2025-02-20 15:46:37.327,-1236.0,1901.0,-508.0,147.0,80.0,-85.0,146,57,51,80,57,465,1,459
2025-02-20 15:46:37.346,-1391.0,1824.0,-1000.0,22.0,-57.0,-262.0,146,57,50,80,56,495,1,445
2025-02-20 15:46:37.364,-1541.0,1711.0,-1250.0,-30.0,-261.0,-495.0,145,56,51,81,56,493,1,441
2025-02-20 15:46:37.381,-591.0,1543.0,-1341.0,-133.0,-519.0,-610.0,147,57,50,82,57,456,1,459
2025-02-20 15:46:37.404,1880.0,-691.0,-808.0,-231.0,-668.0,-617.0,147,57,50,83,58,539,1,465
2025-02-20 15:46:37.420,3598.0,-2693.0,626.0,-307.0,-526.0,-391.0,147,56,51,85,59,550,1,461
2025-02-20 15:46:37.441,3736.0,-4809.0,1257.0,-134.0,-113.0,-151.0,147,56,51,85,59,523,1,457
2025-02-20 15:46:37.458,1685.0,-3976.0,266.0,136.0,94.0,1.0,147,56,50,83,58,437,1,459
2025-02-20 15:46:37.478,684.0,-2093.0,-87.0,30.0,44.0,91.0,147,57,50,80,56,353,0,460
2025-02-20 15:46:37.498,741.0,-1980.0,444.0,-18.0,20.0,128.0,148,57,51,84,55,347,0,463
2025-02-20 15:46:37.515,657.0,-2079.0,624.0,2.0,120.0,156.0,147,57,52,84,56,442,1,460
2025-02-20 15:46:37.536,191.0,-1681.0,358.0,22.0,157.0,227.0,146,58,52,85,56,509,0,459
2025-02-20 15:46:37.553,181.0,-1343.0,384.0,45.0,178.0,279.0,147,59,52,86,57,490,1,460
2025-02-20 15:46:37.570,286.0,-1000.0,556.0,45.0,205.0,318.0,144,59,53,85,56,529,1,464
2025-02-20 15:46:37.593,130.0,-876.0,334.0,43.0,237.0,338.0,145,60,53,84,57,542,1,478
2025-02-20 15:46:37.609,-26.0,-735.0,75.0,72.0,229.0,349.0,143,62,56,85,58,540,1,486
2025-02-20 15:46:37.630,-194.0,-425.0,-25.0,79.0,208.0,359.0,141,64,58,84,62,468,1,477
2025-02-20 15:46:37.649,-337.0,-111.0,280.0,114.0,248.0,344.0,142,70,61,88,68,465,2,487
2025-02-20 15:46:37.666,-62.0,181.0,122.0,134.0,272.0,300.0,139,76,67,97,77,458,2,498
2025-02-20 15:46:37.687,-474.0,96.0,123.0,96.0,246.0,270.0,136,82,72,102,83,495,2,484
2025-02-20 15:46:37.707,-616.0,1120.0,-886.0,65.0,174.0,229.0,136,87,76,107,88,539,1,473
2025-02-20 15:46:37.724,-978.0,1399.0,-535.0,193.0,90.0,130.0,134,94,80,111,93,527,2,468
2025-02-20 15:46:37.744,-870.0,1270.0,-1247.0,143.0,-39.0,-8.0,134,99,83,112,98,515,0,461
2025-02-20 15:46:37.764,-681.0,2235.0,-1274.0,68.0,-209.0,-295.0,132,103,88,116,107,467,0,467
2025-02-20 15:46:37.781,-560.0,1787.0,-1145.0,-42.0,-316.0,-559.0,132,109,90,118,118,444,2,473
2025-02-20 15:46:37.799,-361.0,1140.0,-467.0,-96.0,-233.0,-837.0,132,112,92,122,123,437,1,478
2025-02-20 15:46:37.820,506.0,1139.0,-675.0,-149.0,-658.0,-977.0,134,114,94,125,124,410,1,473
2025-02-20 15:46:37.839,3061.0,-711.0,-1105.0,-209.0,-755.0,-799.0,136,118,97,128,125,386,1,473
2025-02-20 15:46:37.859,3487.0,-2982.0,-286.0,-396.0,-741.0,-437.0,136,119,100,129,127,331,1,476
2025-02-20 15:46:37.879,3531.0,-4221.0,46.0,-177.0,-356.0,-102.0,136,120,102,130,129,426,1,462
2025-02-20 15:46:37.896,2689.0,-3389.0,633.0,13.0,103.0,110.0,138,122,102,131,131,425,1,452
2025-02-20 15:46:37.916,1398.0,-2286.0,-334.0,207.0,-24.0,152.0,139,123,102,131,129,383,1,458
2025-02-20 15:46:37.933,358.0,-1491.0,-298.0,177.0,139.0,235.0,139,123,102,131,130,363,1,455
2025-02-20 15:46:37.952,176.0,-1459.0,-184.0,95.0,72.0,254.0,138,123,103,131,130,401,2,457
2025-02-20 15:46:37.971,-50.0,-1484.0,-283.0,12.0,48.0,258.0,137,122,102,132,130,394,0,457
2025-02-20 15:46:37.990,97.0,-1304.0,-263.0,41.0,86.0,258.0,137,121,103,132,131,428,1,454
2025-02-20 15:46:38.011,183.0,-1183.0,-85.0,144.0,112.0,263.0,136,123,102,132,131,456,1,441
2025-02-20 15:46:38.031,166.0,-1000.0,113.0,123.0,93.0,272.0,137,123,102,130,132,464,1,458
2025-02-20 15:46:38.047,-28.0,-644.0,173.0,71.0,154.0,275.0,139,123,103,132,132,465,1,469
2025-02-20 15:46:38.068,-203.0,-410.0,200.0,87.0,178.0,288.0,137,124,102,133,132,502,1,473
2025-02-20 15:46:38.085,95.0,-547.0,1080.0,58.0,323.0,301.0,138,123,102,132,133,503,2,466
2025-02-20 15:46:38.103,-325.0,-253.0,766.0,101.0,185.0,306.0,137,123,103,132,132,514,1,465
2025-02-20 15:46:38.125,-401.0,55.0,-200.0,171.0,172.0,305.0,137,123,103,132,133,539,1,454
2025-02-20 15:46:38.140,-320.0,387.0,-54.0,92.0,152.0,246.0,137,121,102,132,133,526,1,454
2025-02-20 15:46:38.162,-639.0,496.0,-12.0,146.0,114.0,224.0,136,121,102,130,133,497,1,465
2025-02-20 15:46:38.182,-550.0,882.0,-110.0,210.0,72.0,146.0,136,120,102,131,133,496,1,483
2025-02-20 15:46:38.200,-728.0,1297.0,-459.0,181.0,44.0,-22.0,133,120,103,131,133,543,1,471
2025-02-20 15:46:38.219,-1112.0,1513.0,-723.0,195.0,-38.0,-187.0,133,119,104,131,134,507,1,465
2025-02-20 15:46:38.239,-1194.0,1815.0,-730.0,184.0,-150.0,-406.0,131,120,101,131,134,398,1,467
2025-02-20 15:46:38.255,-668.0,2000.0,-804.0,62.0,-399.0,-694.0,130,122,103,132,135,364,1,474
2025-02-20 15:46:38.274,681.0,1827.0,-204.0,-255.0,-657.0,-875.0,131,124,104,132,135,455,0,472
2025-02-20 15:46:38.297,2363.0,-707.0,-196.0,-502.0,-706.0,-864.0,130,125,104,133,134,431,0,462
2025-02-20 15:46:38.314,3785.0,-3387.0,-520.0,-449.0,-506.0,-591.0,128,125,105,133,135,409,1,456
2025-02-20 15:46:38.333,3680.0,-4396.0,-881.0,-98.0,-332.0,-44.0,129,125,104,133,135,473,2,442
2025-02-20 15:46:38.351,2861.0,-3536.0,122.0,74.0,12.0,96.0,132,125,104,133,134,401,1,448
2025-02-20 15:46:38.372,1383.0,-2387.0,-310.0,-7.0,35.0,142.0,134,125,103,133,134,322,1,454
2025-02-20 15:46:38.389,253.0,-1555.0,143.0,211.0,57.0,175.0,136,126,103,133,134,358,1,453
2025-02-20 15:46:38.409,149.0,-1365.0,-42.0,168.0,31.0,159.0,137,126,101,133,133,423,0,459
2025-02-20 15:46:38.428,270.0,-1290.0,332.0,-28.0,71.0,166.0,137,123,101,132,132,505,1,461
2025-02-20 15:46:38.449,192.0,-1346.0,202.0,44.0,75.0,205.0,138,122,98,131,131,564,2,455
2025-02-20 15:46:38.466,218.0,-1380.0,225.0,108.0,128.0,242.0,138,119,93,128,127,504,1,456
2025-02-20 15:46:38.485,439.0,-1084.0,462.0,80.0,140.0,271.0,139,115,88,125,122,508,1,469
2025-02-20 15:46:38.506,205.0,-988.0,349.0,65.0,198.0,291.0,138,108,83,118,110,454,1,477
2025-02-20 15:46:38.522,317.0,-778.0,442.0,1.0,210.0,325.0,138,104,79,111,98,483,2,465
2025-02-20 15:46:38.541,229.0,-727.0,246.0,45.0,248.0,377.0,139,95,71,106,86,525,1,457
2025-02-20 15:46:38.558,23.0,-634.0,404.0,37.0,255.0,443.0,139,85,67,98,72,469,1,463
2025-02-20 15:46:38.580,306.0,-265.0,80.0,15.0,229.0,480.0,139,75,61,92,63,476,2,455
2025-02-20 15:46:38.600,-67.0,83.0,-166.0,155.0,185.0,464.0,138,68,57,84,59,512,0,452
2025-02-20 15:46:38.617,-208.0,661.0,-552.0,304.0,151.0,360.0,137,64,57,82,59,507,2,460
2025-02-20 15:46:38.637,-460.0,1555.0,-896.0,362.0,104.0,227.0,134,62,56,79,59,529,1,460
2025-02-20 15:46:38.657,-935.0,2530.0,-1191.0,291.0,-6.0,-13.0,133,60,53,75,55,544,1,457
2025-02-20 15:46:38.675,-1215.0,3058.0,-1318.0,128.0,-123.0,-326.0,130,56,49,71,51,515,1,455
2025-02-20 15:46:38.691,-1314.0,2194.0,-1460.0,-37.0,-314.0,-609.0,131,53,47,70,53,452,1,459
2025-02-20 15:46:38.715,-622.0,1860.0,-1475.0,-181.0,-626.0,-833.0,133,53,47,72,49,401,1,464
2025-02-20 15:46:38.731,1612.0,777.0,-2078.0,-368.0,-936.0,-900.0,138,53,46,75,52,404,1,468
2025-02-20 15:46:38.752,4859.0,-2413.0,-2009.0,-610.0,-1098.0,-489.0,143,54,47,79,54,391,1,459
2025-02-20 15:46:38.772,4732.0,-5249.0,912.0,-643.0,-563.0,-159.0,144,55,47,80,54,385,1,463
2025-02-20 15:46:38.788,3326.0,-5136.0,842.0,-86.0,116.0,-49.0,143,55,48,80,54,372,1,456
2025-02-20 15:46:38.809,1224.0,-3186.0,-610.0,228.0,276.0,71.0,143,56,48,76,51,487,1,454
2025-02-20 15:46:38.826,140.0,-1340.0,-688.0,114.0,168.0,163.0,142,56,48,75,51,487,1,453
2025-02-20 15:46:38.846,134.0,-1075.0,-313.0,-25.0,-6.0,134.0,145,58,49,78,53,561,1,456
2025-02-20 15:46:38.866,522.0,-1555.0,143.0,34.0,52.0,151.0,145,58,50,81,54,509,1,452
2025-02-20 15:46:38.883,174.0,-1805.0,24.0,66.0,129.0,219.0,146,59,51,84,54,516,2,444
2025-02-20 15:46:38.903,150.0,-1230.0,131.0,152.0,124.0,237.0,145,58,51,80,54,492,1,438
2025-02-20 15:46:38.924,121.0,-757.0,146.0,199.0,131.0,188.0,145,58,51,79,53,481,1,446
2025-02-20 15:46:38.940,1.0,-537.0,231.0,166.0,164.0,188.0,145,58,52,82,55,480,1,460
2025-02-20 15:46:38.960,29.0,-675.0,369.0,136.0,192.0,220.0,145,55,52,83,55,497,1,473
2025-02-20 15:46:38.977,-81.0,-819.0,272.0,126.0,223.0,266.0,145,59,53,83,56,507,1,486
2025-02-20 15:46:38.997,-16.0,-377.0,360.0,150.0,220.0,288.0,145,58,53,84,56,475,2,487
2025-02-20 15:46:39.018,-65.0,-262.0,104.0,171.0,266.0,292.0,144,59,52,83,57,451,2,481
2025-02-20 15:46:39.034,-361.0,-88.0,-167.0,156.0,259.0,271.0,144,59,53,81,56,491,1,477
2025-02-20 15:46:39.055,-821.0,873.0,-385.0,195.0,215.0,157.0,142,59,53,81,56,485,1,471
2025-02-20 15:46:39.073,-1141.0,1658.0,-354.0,132.0,114.0,-13.0,141,59,55,81,57,471,0,468
2025-02-20 15:46:39.092,-1303.0,2137.0,-898.0,34.0,16.0,-297.0,141,59,53,81,57,459,1,468
2025-02-20 15:46:39.112,-1653.0,2257.0,-1500.0,-123.0,-252.0,-506.0,139,58,52,82,57,424,1,463
2025-02-20 15:46:39.132,-739.0,1222.0,-1534.0,-263.0,-544.0,-622.0,141,58,52,83,58,382,1,458
2025-02-20 15:46:39.150,1559.0,-486.0,-433.0,-348.0,-587.0,-655.0,145,58,53,85,59,395,0,454
2025-02-20 15:46:39.170,2625.0,-1884.0,-36.0,-429.0,-483.0,-516.0,145,58,53,86,60,441,2,461
2025-02-20 15:46:39.190,2626.0,-2962.0,85.0,-359.0,-309.0,-281.0,147,58,52,85,60,410,1,465
2025-02-20 15:46:39.206,2232.0,-4245.0,-83.0,-132.0,-93.0,-105.0,147,58,51,87,59,382,1,460
2025-02-20 15:46:39.225,1695.0,-3267.0,-331.0,58.0,25.0,60.0,145,58,52,84,56,431,1,457
2025-02-20 15:46:39.243,776.0,-1915.0,-537.0,86.0,60.0,123.0,146,60,52,83,56,477,1,464
2025-02-20 15:46:39.264,320.0,-1606.0,-360.0,89.0,27.0,129.0,145,60,53,83,56,505,1,465
2025-02-20 15:46:39.283,340.0,-1555.0,-159.0,80.0,20.0,141.0,146,61,55,85,56,482,1,467
2025-02-20 15:46:39.301,211.0,-1588.0,-70.0,78.0,47.0,176.0,145,64,56,87,57,457,2,458
2025-02-20 15:46:39.321,356.0,-1414.0,130.0,110.0,63.0,224.0,145,65,58,87,57,502,1,457
2025-02-20 15:46:39.340,270.0,-1165.0,197.0,161.0,115.0,248.0,145,67,60,86,57,525,2,469
2025-02-20 15:46:39.356,270.0,-952.0,229.0,181.0,167.0,258.0,145,70,62,88,57,456,2,479
2025-02-20 15:46:39.378,34.0,-848.0,95.0,166.0,255.0,289.0,145,74,66,87,57,477,1,483
2025-02-20 15:46:39.399,47.0,-733.0,155.0,182.0,272.0,324.0,145,78,69,87,57,515,1,484
2025-02-20 15:46:39.416,373.0,-414.0,90.0,180.0,338.0,371.0,144,86,72,89,58,513,1,467
2025-02-20 15:46:39.436,-20.0,-294.0,-56.0,228.0,337.0,414.0,144,94,74,87,58,478,1,460
2025-02-20 15:46:39.452,24.0,57.0,-303.0,289.0,313.0,441.0,141,97,77,93,58,501,1,454
2025-02-20 15:46:39.473,-332.0,341.0,-601.0,309.0,301.0,418.0,140,99,81,96,58,516,1,457
2025-02-20 15:46:39.493,-857.0,1288.0,-1111.0,281.0,197.0,296.0,138,102,85,95,59,499,1,464
2025-02-20 15:46:39.510,-1940.0,1891.0,-1701.0,71.0,-49.0,76.0,138,104,90,92,60,545,2,472
2025-02-20 15:46:39.529,-1246.0,2203.0,-1616.0,24.0,-223.0,-247.0,135,109,93,91,61,507,1,478
2025-02-20 15:46:39.550,-854.0,2262.0,-1413.0,76.0,-400.0,-565.0,134,113,99,92,60,441,1,475
2025-02-20 15:46:39.568,-726.0,1747.0,-1146.0,-55.0,-694.0,-735.0,131,116,101,94,61,387,1,459
2025-02-20 15:46:39.588,1498.0,1565.0,-658.0,-254.0,-937.0,-885.0,131,120,103,97,63,302,1,456
2025-02-20 15:46:39.608,3186.0,-2008.0,22.0,-386.0,-965.0,-715.0,129,124,105,98,64,308,1,459
2025-02-20 15:46:39.624,4211.0,-4362.0,315.0,-219.0,-643.0,-216.0,128,128,104,97,65,341,1,465
2025-02-20 15:46:39.645,3971.0,-3791.0,537.0,27.0,-122.0,105.0,130,129,104,96,67,341,1,463
2025-02-20 15:46:39.664,2023.0,-2399.0,1177.0,178.0,173.0,112.0,131,129,104,95,65,311,1,462
2025-02-20 15:46:39.682,772.0,-1491.0,671.0,134.0,261.0,97.0,132,130,105,94,63,306,1,462
2025-02-20 15:46:39.702,437.0,-1573.0,603.0,66.0,217.0,161.0,131,130,105,95,63,366,1,454
2025-02-20 15:46:39.719,544.0,-1315.0,494.0,-9.0,204.0,234.0,132,129,104,94,63,401,1,441
2025-02-20 15:46:39.739,222.0,-1253.0,645.0,-4.0,243.0,247.0,132,129,105,95,65,464,1,447
2025-02-20 15:46:39.757,83.0,-1005.0,433.0,50.0,285.0,265.0,132,130,105,93,64,566,1,464
2025-02-20 15:46:39.776,-85.0,-715.0,217.0,85.0,289.0,272.0,132,130,106,95,64,632,1,471
2025-02-20 15:46:39.794,-200.0,-412.0,205.0,80.0,287.0,273.0,133,130,106,94,64,567,1,470
2025-02-20 15:46:39.817,-288.0,-201.0,162.0,58.0,277.0,269.0,133,129,106,95,63,483,1,465
2025-02-20 15:46:39.834,-176.0,-153.0,-71.0,83.0,267.0,281.0,132,129,106,95,64,508,2,467
2025-02-20 15:46:39.854,-382.0,-161.0,-36.0,111.0,263.0,288.0,131,129,106,94,63,542,1,484
2025-02-20 15:46:39.873,-598.0,307.0,-237.0,92.0,211.0,264.0,132,130,107,94,64,596,2,498
2025-02-20 15:46:39.891,-790.0,444.0,-295.0,44.0,151.0,208.0,132,128,108,94,64,610,1,487
2025-02-20 15:46:39.911,-971.0,610.0,-405.0,28.0,70.0,107.0,132,128,108,91,64,591,2,478
2025-02-20 15:46:39.931,-1134.0,1087.0,-702.0,-2.0,-41.0,-28.0,133,128,107,92,64,577,1,466
2025-02-20 15:46:39.948,-1132.0,1335.0,-908.0,54.0,-166.0,-250.0,132,128,108,90,63,527,1,460
2025-02-20 15:46:39.968,-1238.0,1707.0,-606.0,59.0,-294.0,-459.0,131,129,108,90,62,521,2,466
2025-02-20 15:46:39.982,-1148.0,1691.0,-731.0,-52.0,-512.0,-704.0,129,129,109,89,64,415,1,472
2025-02-20 15:46:40.005,631.0,1145.0,-1010.0,-226.0,-862.0,-799.0,125,129,108,92,64,386,2,472
2025-02-20 15:46:40.026,3340.0,-1629.0,-807.0,-303.0,-976.0,-644.0,127,129,108,93,68,367,2,472
2025-02-20 15:46:40.043,4426.0,-4716.0,648.0,-104.0,-492.0,-220.0,128,130,108,95,70,365,1,451
2025-02-20 15:46:40.063,3569.0,-3688.0,1280.0,160.0,-8.0,72.0,129,132,108,93,70,409,2,451
2025-02-20 15:46:40.083,1395.0,-1850.0,1422.0,191.0,205.0,111.0,130,130,108,92,69,371,1,453
2025-02-20 15:46:40.100,235.0,-1297.0,910.0,57.0,145.0,111.0,131,131,107,92,68,306,1,456
2025-02-20 15:46:40.120,460.0,-1510.0,839.0,-42.0,94.0,164.0,130,130,106,93,68,373,1,453
2025-02-20 15:46:40.140,416.0,-1445.0,767.0,-103.0,118.0,204.0,132,131,104,93,68,494,1,453
2025-02-20 15:46:40.157,129.0,-1339.0,656.0,-117.0,180.0,237.0,133,129,103,95,68,413,1,456
2025-02-20 15:46:40.176,263.0,-1117.0,695.0,-89.0,258.0,283.0,135,128,99,96,68,494,1,457
2025-02-20 15:46:40.195,236.0,-996.0,531.0,-58.0,282.0,327.0,136,123,95,96,68,556,1,460
2025-02-20 15:46:40.214,97.0,-741.0,424.0,-70.0,281.0,353.0,138,116,91,97,68,601,2,476
2025-02-20 15:46:40.234,34.0,-537.0,346.0,-86.0,250.0,384.0,140,107,85,97,69,525,1,471
2025-02-20 15:46:40.248,-56.0,-613.0,59.0,-119.0,212.0,398.0,139,99,78,100,69,443,1,476
2025-02-20 15:46:40.272,-468.0,-424.0,31.0,-10.0,163.0,373.0,140,87,69,100,69,424,1,480
2025-02-20 15:46:40.291,-325.0,-105.0,-522.0,169.0,122.0,294.0,139,78,66,101,67,474,1,476
2025-02-20 15:46:40.309,-502.0,808.0,-615.0,224.0,111.0,205.0,138,73,64,99,65,525,1,476
2025-02-20 15:46:40.328,-1052.0,1600.0,-688.0,165.0,33.0,59.0,136,66,58,92,61,525,1,470
2025-02-20 15:46:40.346,-908.0,2232.0,-759.0,139.0,-109.0,-183.0,133,61,55,89,57,510,1,465
2025-02-20 15:46:40.364,-1135.0,2068.0,-1213.0,56.0,-164.0,-374.0,131,59,52,87,53,511,2,462
2025-02-20 15:46:40.386,-1297.0,1943.0,-1354.0,3.0,-356.0,-594.0,132,56,50,89,55,458,1,463
2025-02-20 15:46:40.406,-126.0,1944.0,-1646.0,-139.0,-642.0,-733.0,136,56,51,90,56,394,1,464
2025-02-20 15:46:40.423,2161.0,552.0,-1777.0,-418.0,-933.0,-691.0,143,56,50,92,59,379,1,462
2025-02-20 15:46:40.443,4637.0,-3070.0,219.0,-627.0,-728.0,-373.0,145,58,52,94,59,356,1,465
2025-02-20 15:46:40.461,4413.0,-5544.0,1300.0,-286.0,-126.0,-149.0,144,57,52,95,60,449,1,450
2025-02-20 15:46:40.480,2227.0,-4580.0,-141.0,231.0,214.0,-14.0,142,57,51,93,58,445,1,441
2025-02-20 15:46:40.501,601.0,-1986.0,-827.0,151.0,188.0,104.0,142,58,51,90,55,395,1,451
2025-02-20 15:46:40.518,68.0,-1452.0,-323.0,-10.0,37.0,132.0,142,59,51,88,55,403,1,456
2025-02-20 15:46:40.537,643.0,-1833.0,392.0,3.0,35.0,132.0,143,60,53,94,58,458,1,458
2025-02-20 15:46:40.558,377.0,-1790.0,194.0,46.0,141.0,169.0,144,61,55,96,57,487,2,445
2025-02-20 15:46:40.575,125.0,-1415.0,34.0,77.0,167.0,242.0,144,61,55,97,58,481,2,436
2025-02-20 15:46:40.593,3.0,-992.0,115.0,62.0,104.0,267.0,144,61,55,95,59,510,2,442
2025-02-20 15:46:40.611,46.0,-838.0,310.0,76.0,86.0,272.0,143,61,55,94,59,456,1,468
2025-02-20 15:46:40.632,147.0,-434.0,426.0,111.0,128.0,236.0,145,61,55,96,60,437,1,486
2025-02-20 15:46:40.652,276.0,-415.0,359.0,150.0,192.0,197.0,144,62,56,95,59,483,0,497
2025-02-20 15:46:40.667,-475.0,-378.0,163.0,152.0,205.0,227.0,143,62,56,96,60,536,1,476
2025-02-20 15:46:40.689,-373.0,5.0,-38.0,116.0,190.0,206.0,142,63,57,96,60,553,1,472
2025-02-20 15:46:40.709,-505.0,373.0,25.0,114.0,155.0,179.0,142,64,57,96,60,554,2,465
2025-02-20 15:46:40.726,-482.0,428.0,-15.0,175.0,158.0,99.0,142,65,59,96,61,557,1,459
2025-02-20 15:46:40.747,-779.0,1244.0,-338.0,189.0,142.0,5.0,141,65,59,92,61,490,1,463
2025-02-20 15:46:40.764,-1414.0,1990.0,-810.0,92.0,13.0,-184.0,139,64,59,93,61,472,1,457
2025-02-20 15:46:40.782,-1673.0,2179.0,-1411.0,-40.0,-187.0,-410.0,137,64,57,94,59,462,1,456
2025-02-20 15:46:40.804,-999.0,1858.0,-1634.0,-175.0,-504.0,-619.0,138,63,57,95,60,461,1,462
2025-02-20 15:46:40.824,1222.0,514.0,-1487.0,-335.0,-732.0,-635.0,141,64,59,97,61,471,1,498
2025-02-20 15:46:40.841,3588.0,-2240.0,-262.0,-422.0,-715.0,-417.0,143,64,59,98,63,463,1,491
2025-02-20 15:46:40.861,4255.0,-4836.0,1286.0,-211.0,-300.0,-164.0,144,65,60,99,64,447,1,483
2025-02-20 15:46:40.879,3252.0,-4481.0,760.0,141.0,181.0,-24.0,142,65,58,98,63,425,1,475
2025-02-20 15:46:40.898,929.0,-2564.0,-348.0,146.0,276.0,87.0,142,65,59,94,61,447,2,458
2025-02-20 15:46:40.915,35.0,-1276.0,-537.0,42.0,102.0,135.0,141,65,59,94,58,428,1,453
2025-02-20 15:46:40.935,206.0,-1593.0,0.0,30.0,46.0,109.0,142,67,60,96,60,367,1,457
2025-02-20 15:46:40.955,331.0,-1771.0,379.0,43.0,74.0,114.0,142,69,61,98,60,472,2,464
2025-02-20 15:46:40.975,337.0,-1673.0,221.0,92.0,125.0,136.0,142,69,62,100,60,427,2,456
2025-02-20 15:46:40.993,470.0,-1444.0,413.0,131.0,160.0,163.0,141,70,62,97,63,441,2,452
2025-02-20 15:46:41.013,353.0,-1212.0,362.0,139.0,191.0,196.0,140,71,63,96,62,473,1,435
2025-02-20 15:46:41.029,291.0,-1163.0,449.0,86.0,219.0,239.0,140,73,62,95,63,523,1,460
2025-02-20 15:46:41.047,363.0,-1075.0,436.0,122.0,271.0,267.0,139,73,63,96,64,548,1,491
2025-02-20 15:46:41.067,220.0,-623.0,327.0,140.0,315.0,298.0,139,76,64,98,65,528,1,492
2025-02-20 15:46:41.087,9.0,-528.0,129.0,104.0,382.0,317.0,139,80,65,98,66,547,2,476
2025-02-20 15:46:41.106,2.0,-137.0,66.0,49.0,417.0,339.0,138,81,66,95,67,521,1,469
2025-02-20 15:46:41.127,-15.0,158.0,-77.0,77.0,396.0,365.0,138,82,66,95,69,471,0,454
2025-02-20 15:46:41.144,-215.0,290.0,-531.0,140.0,351.0,388.0,136,80,65,93,68,443,0,445
2025-02-20 15:46:41.165,-427.0,550.0,-864.0,214.0,269.0,376.0,134,70,63,91,68,421,2,461
2025-02-20 15:46:41.184,-793.0,1166.0,-2626.0,294.0,119.0,279.0,132,63,59,87,64,436,1,455
2025-02-20 15:46:41.200,-1780.0,2330.0,-2630.0,333.0,-184.0,-11.0,128,59,57,85,58,435,1,442
2025-02-20 15:46:41.222,-1531.0,2900.0,-3089.0,274.0,-633.0,-382.0,117,57,54,86,57,467,1,452
2025-02-20 15:46:41.241,250.0,1898.0,-2671.0,91.0,-954.0,-567.0,111,55,53,86,57,497,1,445
2025-02-20 15:46:41.259,2779.0,-358.0,-1471.0,10.0,-1245.0,-452.0,113,56,52,87,59,462,1,473
2025-02-20 15:46:41.279,5075.0,-3052.0,4412.0,153.0,-749.0,-69.0,117,58,53,90,61,515,1,477
2025-02-20 15:46:41.296,2984.0,-1708.0,4622.0,203.0,35.0,-40.0,114,57,54,89,61,500,2,485
2025-02-20 15:46:41.315,981.0,-1136.0,2908.0,108.0,235.0,-35.0,111,58,53,85,59,415,2,485
2025-02-20 15:46:41.336,-39.0,-400.0,2191.0,-107.0,247.0,40.0,111,59,54,86,61,387,1,477
2025-02-20 15:46:41.353,-189.0,-678.0,1582.0,-264.0,226.0,44.0,111,61,56,87,60,440,1,471
2025-02-20 15:46:41.374,-301.0,-1335.0,1183.0,-221.0,203.0,66.0,114,61,56,91,60,436,1,474
2025-02-20 15:46:41.393,-417.0,-1177.0,702.0,-135.0,177.0,103.0,116,61,56,93,62,407,1,474
2025-02-20 15:46:41.410,-631.0,-806.0,524.0,-123.0,163.0,126.0,115,61,56,88,62,390,1,470
2025-02-20 15:46:41.430,-409.0,-480.0,550.0,-108.0,153.0,123.0,116,60,56,89,61,460,2,447
2025-02-20 15:46:41.447,-516.0,-442.0,476.0,-51.0,132.0,84.0,117,61,56,89,61,410,1,431
2025-02-20 15:46:41.468,-449.0,-540.0,484.0,-4.0,124.0,82.0,118,60,57,88,60,302,1,453
2025-02-20 15:46:41.487,-373.0,-302.0,454.0,-6.0,145.0,101.0,117,61,57,89,60,366,1,439
2025-02-20 15:46:41.505,-436.0,-237.0,337.0,-25.0,158.0,113.0,117,61,57,86,60,399,1,444
2025-02-20 15:46:41.525,-533.0,-266.0,165.0,-29.0,148.0,121.0,117,61,58,86,60,434,2,450
2025-02-20 15:46:41.545,-482.0,-126.0,161.0,-1.0,138.0,119.0,117,60,58,85,60,508,1,452
2025-02-20 15:46:41.562,-436.0,-52.0,112.0,19.0,148.0,109.0,117,60,59,85,60,521,2,470
2025-02-20 15:46:41.583,-618.0,-49.0,-37.0,33.0,143.0,98.0,118,62,58,84,60,530,1,489
2025-02-20 15:46:41.600,-585.0,272.0,-220.0,24.0,109.0,87.0,117,61,58,84,60,506,1,481
2025-02-20 15:46:41.616,-559.0,473.0,-581.0,32.0,67.0,63.0,117,62,60,84,60,484,1,472
2025-02-20 15:46:41.640,-997.0,1068.0,-1849.0,132.0,-42.0,-95.0,109,61,57,82,58,463,1,463
2025-02-20 15:46:41.659,-2021.0,1603.0,-3068.0,217.0,-417.0,-290.0,106,59,57,79,56,455,1,459
2025-02-20 15:46:41.677,-906.0,1664.0,-3120.0,178.0,-876.0,-424.0,107,59,56,80,55,426,1,464
2025-02-20 15:46:41.696,3136.0,117.0,-1563.0,106.0,-1198.0,-342.0,114,60,57,83,59,434,0,463
2025-02-20 15:46:41.717,5118.0,-3312.0,5044.0,310.0,-643.0,-72.0,119,61,59,84,60,524,1,464
2025-02-20 15:46:41.734,2940.0,-632.0,5134.0,190.0,120.0,-43.0,120,62,60,84,61,552,0,471
2025-02-20 15:46:41.751,701.0,-562.0,3269.0,-68.0,221.0,-34.0,121,62,59,85,61,395,2,452
2025-02-20 15:46:41.768,85.0,-638.0,2297.0,-218.0,222.0,41.0,124,62,60,85,61,348,1,445
2025-02-20 15:46:41.791,156.0,-798.0,1732.0,-279.0,259.0,44.0,125,62,62,89,63,370,1,444
2025-02-20 15:46:41.812,-236.0,-1322.0,1032.0,-236.0,291.0,53.0,129,66,64,88,65,433,1,461
2025-02-20 15:46:41.828,-544.0,-1441.0,807.0,-96.0,280.0,90.0,131,67,63,89,65,568,1,482
2025-02-20 15:46:41.848,-254.0,-968.0,468.0,-25.0,269.0,107.0,131,69,62,88,65,568,1,466
2025-02-20 15:46:41.869,-420.0,-712.0,494.0,-42.0,238.0,130.0,133,75,61,87,65,483,1,436
2025-02-20 15:46:41.886,-506.0,-562.0,290.0,-47.0,194.0,137.0,130,82,61,88,66,427,0,447
2025-02-20 15:46:41.906,-465.0,-466.0,260.0,-49.0,169.0,151.0,132,88,63,87,66,414,1,452
2025-02-20 15:46:41.926,-319.0,-431.0,396.0,-10.0,182.0,166.0,132,94,62,88,66,439,1,446
2025-02-20 15:46:41.943,-481.0,-350.0,48.0,47.0,197.0,170.0,130,97,63,87,66,426,0,450
2025-02-20 15:46:41.963,-771.0,-27.0,-331.0,73.0,140.0,136.0,129,100,61,86,66,462,1,472
2025-02-20 15:46:41.980,-873.0,209.0,-684.0,93.0,42.0,84.0,125,101,61,86,66,521,1,480
2025-02-20 15:46:42.000,-1012.0,533.0,-737.0,107.0,-76.0,9.0,121,101,61,86,65,539,0,481
2025-02-20 15:46:42.019,-895.0,577.0,-928.0,100.0,-224.0,-50.0,114,101,62,87,65,531,1,469
2025-02-20 15:46:42.037,-834.0,420.0,-1634.0,155.0,-425.0,-124.0,105,101,59,87,61,531,1,427
2025-02-20 15:46:42.056,-166.0,306.0,-1949.0,272.0,-742.0,-135.0,100,101,58,86,60,518,1,430
2025-02-20 15:46:42.078,1133.0,320.0,-1294.0,343.0,-892.0,-93.0,97,103,58,86,60,532,1,450
2025-02-20 15:46:42.095,1830.0,76.0,-108.0,390.0,-863.0,-44.0,100,107,57,86,62,530,1,484
2025-02-20 15:46:42.115,2164.0,67.0,1486.0,360.0,-709.0,-8.0,106,111,56,86,63,503,1,496
2025-02-20 15:46:42.133,2396.0,526.0,2660.0,283.0,-482.0,28.0,110,113,57,85,63,385,1,483
2025-02-20 15:46:42.150,2177.0,831.0,3324.0,110.0,-212.0,49.0,115,115,57,84,65,357,1,479
2025-02-20 15:46:42.172,1889.0,843.0,3224.0,-39.0,3.0,56.0,117,116,57,85,64,374,1,468
2025-02-20 15:46:42.189,1274.0,784.0,2715.0,-151.0,204.0,22.0,119,116,57,86,65,445,2,467
2025-02-20 15:46:42.209,897.0,339.0,1742.0,-172.0,294.0,-3.0,118,116,56,88,66,505,1,468
2025-02-20 15:46:42.222,544.0,148.0,1317.0,-136.0,306.0,-29.0,115,116,58,89,66,471,1,463
2025-02-20 15:46:42.246,396.0,46.0,1168.0,-137.0,283.0,-44.0,114,117,57,88,66,415,1,457
2025-02-20 15:46:42.266,472.0,-185.0,1147.0,-127.0,273.0,-18.0,115,117,58,89,66,380,1,438
2025-02-20 15:46:42.285,457.0,-116.0,1251.0,-157.0,318.0,5.0,115,117,59,88,65,414,1,424
2025-02-20 15:46:42.303,177.0,-179.0,819.0,-147.0,320.0,27.0,110,115,60,89,65,402,1,421
2025-02-20 15:46:42.323,-9.0,-297.0,604.0,-104.0,268.0,24.0,106,113,58,89,65,389,2,427
2025-02-20 15:46:42.343,-2.0,-203.0,734.0,-107.0,263.0,38.0,108,113,60,90,65,388,0,424
2025-02-20 15:46:42.361,-74.0,-17.0,586.0,-155.0,290.0,61.0,109,113,61,89,65,456,0,444
2025-02-20 15:46:42.381,-287.0,-292.0,224.0,-139.0,275.0,93.0,107,113,59,90,65,529,2,458
2025-02-20 15:46:42.397,-405.0,-231.0,49.0,-84.0,217.0,115.0,102,114,60,89,64,559,0,479
2025-02-20 15:46:42.418,-366.0,40.0,178.0,-48.0,175.0,92.0,102,114,59,89,63,556,2,490
2025-02-20 15:46:42.436,-473.0,125.0,158.0,-62.0,156.0,76.0,103,114,61,90,64,559,1,506
2025-02-20 15:46:42.455,-523.0,19.0,53.0,-46.0,130.0,59.0,105,114,61,88,63,527,1,511
2025-02-20 15:46:42.475,-770.0,-31.0,-318.0,14.0,70.0,49.0,100,113,60,88,62,493,1,506
2025-02-20 15:46:42.495,-1348.0,528.0,-1314.0,83.0,-142.0,-54.0,95,110,59,86,60,466,2,486
2025-02-20 15:46:42.512,-1547.0,770.0,-2135.0,198.0,-514.0,-183.0,91,112,57,85,57,432,0,479
2025-02-20 15:46:42.533,93.0,453.0,-2058.0,241.0,-899.0,-164.0,91,114,58,85,53,417,1,478
2025-02-20 15:46:42.552,2006.0,-410.0,-648.0,360.0,-967.0,-57.0,94,115,58,85,59,486,1,474
2025-02-20 15:46:42.570,2536.0,15.0,1461.0,390.0,-806.0,7.0,105,116,58,84,61,478,1,469
2025-02-20 15:46:42.590,2588.0,458.0,3126.0,307.0,-465.0,24.0,115,118,57,82,64,352,1,458
2025-02-20 15:46:42.610,2568.0,865.0,3929.0,82.0,-162.0,53.0,120,118,59,83,66,359,0,448
2025-02-20 15:46:42.627,2077.0,691.0,3569.0,-103.0,146.0,71.0,123,119,59,81,68,382,1,443
2025-02-20 15:46:42.647,1525.0,589.0,2634.0,-264.0,302.0,75.0,124,118,59,86,69,402,2,441
2025-02-20 15:46:42.664,954.0,311.0,1841.0,-367.0,391.0,85.0,128,116,60,95,69,445,0,447
2025-02-20 15:46:42.684,715.0,94.0,1280.0,-431.0,424.0,104.0,128,112,60,89,70,485,1,455
2025-02-20 15:46:42.704,507.0,113.0,988.0,-444.0,420.0,110.0,127,109,61,89,70,504,1,438
2025-02-20 15:46:42.722,377.0,-163.0,836.0,-437.0,443.0,132.0,127,110,62,89,69,481,1,431
2025-02-20 15:46:42.738,518.0,-339.0,659.0,-357.0,499.0,156.0,127,111,62,90,70,510,0,442
2025-02-20 15:46:42.761,503.0,-409.0,394.0,-257.0,540.0,188.0,125,113,63,91,71,449,1,442
2025-02-20 15:46:42.778,183.0,-141.0,-31.0,-180.0,531.0,181.0,123,113,65,93,74,527,1,447
2025-02-20 15:46:42.799,-2.0,-57.0,-401.0,-146.0,460.0,193.0,122,113,69,94,78,495,1,473
2025-02-20 15:46:42.819,-123.0,-204.0,-372.0,30.0,412.0,209.0,119,115,76,103,85,453,1,486
2025-02-20 15:46:42.836,-576.0,-221.0,-2488.0,92.0,295.0,185.0,116,115,81,109,91,440,1,494
2025-02-20 15:46:42.856,-638.0,134.0,-882.0,198.0,202.0,157.0,114,115,82,110,97,456,1,500
2025-02-20 15:46:42.876,-767.0,41.0,-801.0,138.0,103.0,111.0,112,115,85,113,101,455,2,497
2025-02-20 15:46:42.891,-939.0,520.0,-1189.0,109.0,-17.0,18.0,112,115,86,116,104,485,1,482
2025-02-20 15:46:42.913,-995.0,707.0,-890.0,10.0,-268.0,-115.0,113,116,89,118,112,496,2,472
2025-02-20 15:46:42.933,-1130.0,838.0,-1270.0,-44.0,-410.0,-325.0,113,115,89,119,119,485,1,466
2025-02-20 15:46:42.950,-1160.0,1160.0,-914.0,-55.0,-443.0,-550.0,118,117,93,121,124,505,1,464
2025-02-20 15:46:42.969,42.0,1479.0,-672.0,-117.0,-816.0,-770.0,119,120,94,123,125,498,2,468
2025-02-20 15:46:42.987,2136.0,-228.0,-736.0,-336.0,-1079.0,-695.0,117,124,97,126,126,442,1,471
2025-02-20 15:46:43.008,2936.0,-2098.0,-626.0,-484.0,-903.0,-472.0,116,127,99,129,127,358,2,475
2025-02-20 15:46:43.027,3191.0,-3674.0,-231.0,-284.0,-512.0,-118.0,116,127,101,130,128,382,0,464
2025-02-20 15:46:43.045,3069.0,-3873.0,356.0,-33.0,-105.0,90.0,119,129,102,130,128,462,1,461
2025-02-20 15:46:43.065,1844.0,-2753.0,519.0,93.0,199.0,132.0,121,129,102,131,128,370,1,452
2025-02-20 15:46:43.085,-33.0,-1792.0,-504.0,0.0,220.0,201.0,122,130,102,131,128,342,1,452
2025-02-20 15:46:43.102,417.0,-1038.0,854.0,220.0,278.0,218.0,123,130,101,131,127,424,1,457
2025-02-20 15:46:43.122,144.0,-1087.0,60.0,82.0,225.0,224.0,123,130,102,131,128,532,1,463
2025-02-20 15:46:43.139,-49.0,-984.0,242.0,-20.0,193.0,226.0,122,130,102,132,128,531,1,466
2025-02-20 15:46:43.159,40.0,-972.0,84.0,-3.0,184.0,222.0,122,130,102,131,128,469,1,461
2025-02-20 15:46:43.179,-78.0,-818.0,340.0,40.0,174.0,227.0,121,130,102,132,129,471,1,458
2025-02-20 15:46:43.197,-21.0,-778.0,286.0,27.0,169.0,259.0,120,130,101,132,130,433,1,469
2025-02-20 15:46:43.217,-209.0,-829.0,499.0,106.0,197.0,274.0,121,130,102,131,131,494,1,482
2025-02-20 15:46:43.237,-153.0,-438.0,221.0,52.0,188.0,292.0,121,128,102,131,130,532,1,476
2025-02-20 15:46:43.254,-416.0,-350.0,-66.0,43.0,199.0,286.0,121,129,103,131,130,564,2,473
2025-02-20 15:46:43.274,-401.0,-10.0,370.0,48.0,200.0,276.0,121,129,102,131,130,590,2,465
2025-02-20 15:46:43.294,-220.0,186.0,281.0,48.0,230.0,219.0,121,127,101,132,129,592,0,466
2025-02-20 15:46:43.311,-1043.0,38.0,-355.0,103.0,185.0,167.0,121,126,102,131,130,583,2,488
2025-02-20 15:46:43.331,-846.0,845.0,-553.0,183.0,80.0,93.0,121,125,102,131,131,568,1,491
2025-02-20 15:46:43.351,-1029.0,1374.0,-636.0,88.0,-14.0,-84.0,121,124,102,129,130,516,1,474
2025-02-20 15:46:43.369,-1028.0,2109.0,-910.0,76.0,-113.0,-404.0,121,125,103,130,131,471,1,465
2025-02-20 15:46:43.388,-913.0,1480.0,-737.0,-50.0,-327.0,-712.0,119,126,103,131,132,417,2,460
2025-02-20 15:46:43.406,-319.0,156.0,-133.0,-152.0,-519.0,-849.0,120,127,103,131,132,312,1,456
2025-02-20 15:46:43.425,1157.0,-361.0,-880.0,-206.0,-702.0,-832.0,119,128,103,131,131,387,2,462
2025-02-20 15:46:43.446,3618.0,-1314.0,-740.0,-309.0,-783.0,-584.0,120,130,104,132,131,462,1,466
2025-02-20 15:46:43.463,3636.0,-4074.0,-276.0,-232.0,-465.0,-194.0,119,131,105,132,131,443,1,448
2025-02-20 15:46:43.483,2940.0,-4015.0,411.0,23.0,68.0,103.0,121,131,104,132,131,385,0,451
2025-02-20 15:46:43.503,1583.0,-2286.0,383.0,13.0,194.0,195.0,124,131,104,132,132,335,1,452
2025-02-20 15:46:43.520,450.0,-1270.0,731.0,266.0,194.0,219.0,128,131,102,132,129,342,1,456
2025-02-20 15:46:43.540,271.0,-1173.0,902.0,140.0,174.0,196.0,131,131,100,132,127,470,1,464
2025-02-20 15:46:43.557,274.0,-1222.0,518.0,4.0,195.0,193.0,131,130,93,129,123,405,0,467
2025-02-20 15:46:43.576,118.0,-1547.0,-24.0,101.0,233.0,230.0,131,130,87,123,114,359,1,467
2025-02-20 15:46:43.597,423.0,-1467.0,102.0,172.0,308.0,296.0,130,129,74,112,100,512,1,453
2025-02-20 15:46:43.612,157.0,-1336.0,-117.0,326.0,353.0,347.0,129,128,63,99,86,564,1,451
2025-02-20 15:46:43.634,258.0,-685.0,81.0,324.0,364.0,374.0,127,126,56,91,74,464,1,447
2025-02-20 15:46:43.655,97.0,-326.0,36.0,359.0,380.0,388.0,126,124,54,84,66,522,1,443
2025-02-20 15:46:43.672,-18.0,-112.0,-355.0,347.0,375.0,356.0,123,120,54,80,61,567,1,440
2025-02-20 15:46:43.692,-174.0,195.0,-545.0,326.0,345.0,325.0,120,116,53,78,58,547,0,458
2025-02-20 15:46:43.709,-460.0,289.0,-782.0,272.0,236.0,265.0,114,110,52,67,56,512,0,477
2025-02-20 15:46:43.727,-1020.0,1060.0,-1498.0,244.0,33.0,168.0,100,98,52,69,55,519,1,480
2025-02-20 15:46:43.749,-1958.0,1157.0,-2021.0,187.0,-350.0,-32.0,91,93,52,65,53,539,0,472
2025-02-20 15:46:43.769,-958.0,1236.0,-2375.0,134.0,-731.0,-181.0,84,96,50,61,52,534,1,456
2025-02-20 15:46:43.786,1564.0,525.0,-2283.0,97.0,-1066.0,-175.0,81,96,50,61,52,425,1,450
2025-02-20 15:46:43.806,3537.0,-792.0,-1245.0,256.0,-1148.0,-54.0,84,100,50,65,55,396,1,417
2025-02-20 15:46:43.823,3451.0,-297.0,1290.0,450.0,-912.0,-21.0,89,105,49,66,59,521,0,441
2025-02-20 15:46:43.842,2300.0,262.0,3174.0,403.0,-485.0,5.0,99,110,50,68,63,533,1,467
2025-02-20 15:46:43.864,2079.0,944.0,4056.0,119.0,-146.0,45.0,101,110,50,68,64,377,1,475
2025-02-20 15:46:43.880,1657.0,969.0,3401.0,-143.0,132.0,70.0,101,111,51,71,66,349,2,463
2025-02-20 15:46:43.901,1217.0,563.0,2138.0,-232.0,233.0,48.0,101,111,51,72,67,404,1,463
2025-02-20 15:46:43.921,623.0,104.0,1504.0,-185.0,281.0,-2.0,99,112,51,74,67,410,1,473
2025-02-20 15:46:43.938,358.0,-232.0,1268.0,-116.0,281.0,-17.0,98,111,51,74,66,452,1,471
2025-02-20 15:46:43.957,293.0,-196.0,1162.0,-89.0,255.0,1.0,97,112,52,74,66,528,1,469
2025-02-20 15:46:43.978,210.0,-154.0,1153.0,-118.0,249.0,17.0,98,113,52,74,67,539,1,436
2025-02-20 15:46:43.994,245.0,-173.0,1185.0,-130.0,266.0,27.0,99,113,51,75,67,522,1,427
2025-02-20 15:46:44.013,242.0,-217.0,1003.0,-136.0,318.0,39.0,100,113,53,78,68,535,1,433
2025-02-20 15:46:44.032,-142.0,-253.0,648.0,-105.0,312.0,55.0,98,113,52,77,67,357,0,435
2025-02-20 15:46:44.052,-199.0,-204.0,483.0,-85.0,275.0,65.0,96,112,53,77,66,322,1,449
2025-02-20 15:46:44.072,-130.0,-43.0,505.0,-107.0,260.0,69.0,96,112,54,76,66,433,1,452
2025-02-20 15:46:44.090,-209.0,-91.0,400.0,-125.0,264.0,74.0,99,113,54,77,67,520,2,473
2025-02-20 15:46:44.109,-339.0,-150.0,220.0,-103.0,260.0,104.0,100,113,54,78,67,507,1,491
2025-02-20 15:46:44.130,-563.0,-322.0,10.0,-48.0,223.0,117.0,99,113,55,77,67,513,1,491
2025-02-20 15:46:44.146,-560.0,116.0,-41.0,-30.0,153.0,110.0,98,113,55,77,66,507,2,493
2025-02-20 15:46:44.167,-613.0,294.0,-180.0,-30.0,99.0,81.0,99,112,55,77,66,483,1,489
2025-02-20 15:46:44.184,-844.0,662.0,-779.0,-2.0,37.0,-47.0,95,113,55,76,64,460,1,488
2025-02-20 15:46:44.204,-1821.0,767.0,-1697.0,146.0,-247.0,-212.0,94,110,55,74,61,470,1,480
2025-02-20 15:46:44.224,-1465.0,609.0,-2566.0,266.0,-705.0,-282.0,87,109,54,72,56,430,2,471
2025-02-20 15:46:44.244,2061.0,532.0,-1720.0,301.0,-1082.0,-208.0,88,108,54,74,59,430,2,474
2025-02-20 15:46:44.261,3183.0,-644.0,608.0,371.0,-1020.0,-133.0,94,110,55,73,61,491,1,474
2025-02-20 15:46:44.281,3204.0,-896.0,3088.0,443.0,-618.0,9.0,106,112,53,74,64,537,1,469
2025-02-20 15:46:44.298,2800.0,751.0,4110.0,232.0,-196.0,73.0,111,112,55,75,68,395,1,459
2025-02-20 15:46:44.318,1858.0,845.0,3753.0,-118.0,101.0,51.0,115,112,55,76,68,354,1,453
2025-02-20 15:46:44.339,1349.0,498.0,2518.0,-335.0,278.0,77.0,118,112,57,81,71,349,1,454
2025-02-20 15:46:44.356,841.0,-185.0,1696.0,-373.0,341.0,103.0,122,111,58,82,71,365,0,448
2025-02-20 15:46:44.375,609.0,-279.0,1264.0,-364.0,387.0,108.0,125,110,62,84,73,472,1,456
2025-02-20 15:46:44.394,496.0,-281.0,1009.0,-347.0,419.0,95.0,126,109,64,85,74,543,1,452
2025-02-20 15:46:44.413,345.0,-468.0,813.0,-318.0,463.0,129.0,126,111,66,86,74,509,1,440
2025-02-20 15:46:44.433,456.0,-843.0,502.0,-231.0,479.0,171.0,127,113,70,85,73,441,1,433
2025-02-20 15:46:44.453,416.0,-686.0,362.0,-155.0,477.0,234.0,126,114,74,86,74,450,1,441
2025-02-20 15:46:44.470,25.0,-199.0,149.0,-97.0,434.0,255.0,127,115,79,88,76,350,1,468
2025-02-20 15:46:44.490,-375.0,-261.0,-19.0,-35.0,396.0,255.0,126,117,82,89,76,372,0,463
2025-02-20 15:46:44.507,-618.0,-113.0,-256.0,-25.0,322.0,237.0,126,117,86,89,77,484,2,477
2025-02-20 15:46:44.527,-460.0,166.0,-267.0,20.0,259.0,178.0,126,118,88,88,77,509,1,492
2025-02-20 15:46:44.548,-671.0,111.0,-326.0,64.0,215.0,108.0,127,119,90,88,78,509,1,494
2025-02-20 15:46:44.564,-813.0,410.0,-384.0,93.0,159.0,51.0,127,120,91,89,79,526,1,491
2025-02-20 15:46:44.581,-768.0,540.0,-424.0,75.0,101.0,-2.0,128,120,93,88,77,545,0,480
2025-02-20 15:46:44.605,-1030.0,821.0,-762.0,39.0,7.0,-80.0,130,119,95,87,75,531,2,463
2025-02-20 15:46:44.621,-1593.0,1294.0,-1453.0,5.0,-176.0,-281.0,130,120,96,88,71,496,1,461
2025-02-20 15:46:44.641,-1382.0,1684.0,-1394.0,24.0,-461.0,-582.0,129,123,98,93,71,527,1,473
2025-02-20 15:46:44.660,-119.0,1704.0,-984.0,-85.0,-705.0,-752.0,127,124,100,95,75,494,1,476
2025-02-20 15:46:44.678,1792.0,129.0,-786.0,-212.0,-901.0,-713.0,124,127,102,96,77,444,1,466
2025-02-20 15:46:44.699,2579.0,-2248.0,-17.0,-226.0,-915.0,-452.0,120,130,102,98,75,432,1,477
2025-02-20 15:46:44.720,3249.0,-3299.0,443.0,-280.0,-683.0,-116.0,118,131,103,97,76,432,1,472
2025-02-20 15:46:44.737,2992.0,-3455.0,896.0,-8.0,-222.0,60.0,119,132,103,96,76,431,1,466
2025-02-20 15:46:44.756,1477.0,-2177.0,1260.0,151.0,67.0,44.0,120,134,104,96,73,369,1,458
2025-02-20 15:46:44.774,653.0,-1612.0,1107.0,147.0,180.0,50.0,121,133,104,95,73,391,1,458
2025-02-20 15:46:44.794,354.0,-1427.0,768.0,52.0,186.0,109.0,121,133,104,93,72,404,2,457
2025-02-20 15:46:44.813,321.0,-1108.0,724.0,-5.0,182.0,133.0,118,133,104,92,71,549,1,462
2025-02-20 15:46:44.831,237.0,-1249.0,517.0,35.0,208.0,152.0,119,133,104,92,70,550,2,466
2025-02-20 15:46:44.850,75.0,-1166.0,381.0,78.0,252.0,195.0,119,134,104,91,70,559,1,460
2025-02-20 15:46:44.871,208.0,-887.0,331.0,92.0,264.0,211.0,120,133,105,91,70,521,1,458
2025-02-20 15:46:44.888,-73.0,-580.0,268.0,93.0,260.0,218.0,121,134,105,91,70,430,1,468
2025-02-20 15:46:44.908,-132.0,-272.0,268.0,47.0,256.0,231.0,120,133,105,90,69,466,1,466
2025-02-20 15:46:44.926,-157.0,-308.0,184.0,29.0,260.0,255.0,121,133,106,90,70,528,0,454
2025-02-20 15:46:44.945,-222.0,-318.0,127.0,60.0,272.0,272.0,120,132,106,89,70,607,1,471
2025-02-20 15:46:44.965,-351.0,-112.0,18.0,115.0,278.0,278.0,121,133,106,89,70,653,1,472
2025-02-20 15:46:44.982,-414.0,352.0,-72.0,101.0,266.0,265.0,121,132,107,87,70,620,1,478
2025-02-20 15:46:45.003,-997.0,1010.0,-750.0,61.0,131.0,174.0,122,131,107,84,70,577,1,482
2025-02-20 15:46:45.022,-1636.0,1346.0,-1147.0,94.0,-92.0,-78.0,122,131,106,84,70,547,1,474
2025-02-20 15:46:45.040,-1231.0,2015.0,-857.0,81.0,-288.0,-413.0,122,132,108,86,70,523,1,468
2025-02-20 15:46:45.060,-932.0,1572.0,-761.0,-86.0,-487.0,-596.0,118,132,108,88,71,464,1,471
2025-02-20 15:46:45.080,334.0,1072.0,-754.0,-201.0,-726.0,-679.0,114,132,109,90,71,409,1,469
2025-02-20 15:46:45.097,2304.0,-1175.0,-300.0,-315.0,-833.0,-575.0,115,132,108,92,71,350,1,465
2025-02-20 15:46:45.117,3338.0,-3388.0,694.0,-142.0,-545.0,-284.0,116,133,106,92,70,389,1,464
2025-02-20 15:46:45.137,3118.0,-3207.0,1318.0,-15.0,-84.0,-9.0,116,136,105,92,69,407,1,459
2025-02-20 15:46:45.154,1974.0,-2537.0,1340.0,130.0,188.0,30.0,115,133,106,91,66,326,0,464
2025-02-20 15:46:45.175,715.0,-1716.0,797.0,135.0,225.0,78.0,114,133,104,91,65,280,1,461
2025-02-20 15:46:45.191,545.0,-1253.0,696.0,52.0,185.0,118.0,115,134,103,93,66,299,1,456
2025-02-20 15:46:45.211,292.0,-1292.0,652.0,7.0,187.0,146.0,116,134,102,92,68,411,1,461
2025-02-20 15:46:45.232,190.0,-1263.0,698.0,14.0,232.0,165.0,119,133,105,93,69,598,1,466
2025-02-20 15:46:45.248,249.0,-1057.0,587.0,18.0,271.0,195.0,123,133,101,94,69,576,1,467
2025-02-20 15:46:45.269,193.0,-961.0,642.0,12.0,321.0,238.0,126,132,101,93,71,591,1,465
2025-02-20 15:46:45.288,125.0,-900.0,477.0,57.0,353.0,270.0,129,132,95,92,71,504,1,458
2025-02-20 15:46:45.306,-138.0,-432.0,211.0,90.0,352.0,297.0,131,128,80,92,72,465,1,455
2025-02-20 15:46:45.326,-234.0,-392.0,72.0,97.0,336.0,324.0,133,125,71,92,71,524,0,449
2025-02-20 15:46:45.346,-174.0,-174.0,-146.0,139.0,331.0,334.0,133,121,64,91,70,494,1,424
2025-02-20 15:46:45.363,-263.0,130.0,-463.0,190.0,269.0,281.0,133,115,62,88,71,452,1,422
2025-02-20 15:46:45.383,-684.0,279.0,-732.0,220.0,186.0,203.0,132,108,61,87,68,458,1,461
2025-02-20 15:46:45.401,-976.0,528.0,-1024.0,214.0,29.0,103.0,131,106,59,84,68,457,1,475
2025-02-20 15:46:45.420,-1195.0,605.0,-847.0,203.0,-114.0,11.0,130,103,55,80,67,474,1,467
2025-02-20 15:46:45.441,-1266.0,463.0,-1304.0,199.0,-302.0,-101.0,122,97,53,74,64,382,0,453
2025-02-20 15:46:45.458,-759.0,560.0,-1759.0,254.0,-645.0,-147.0,106,96,53,69,61,319,1,452
2025-02-20 15:46:45.478,697.0,617.0,-1638.0,283.0,-925.0,-131.0,96,101,52,68,62,356,0,446
2025-02-20 15:46:45.498,2305.0,159.0,-676.0,322.0,-1049.0,-66.0,95,107,53,70,64,424,2,456
2025-02-20 15:46:45.515,2926.0,-303.0,1172.0,389.0,-928.0,21.0,100,112,51,71,66,461,1,455
2025-02-20 15:46:45.534,2673.0,-145.0,3001.0,350.0,-522.0,125.0,111,117,51,73,71,468,1,465
2025-02-20 15:46:45.555,2067.0,1020.0,3953.0,95.0,-159.0,106.0,116,119,53,74,73,482,1,461
2025-02-20 15:46:45.572,1588.0,922.0,3177.0,-135.0,108.0,40.0,114,119,53,75,74,461,1,466
2025-02-20 15:46:45.592,1028.0,464.0,2125.0,-196.0,243.0,19.0,113,118,54,77,73,447,1,458
2025-02-20 15:46:45.609,680.0,101.0,1497.0,-155.0,260.0,-8.0,110,117,53,77,73,430,1,451
2025-02-20 15:46:45.629,391.0,-73.0,1447.0,-134.0,268.0,-10.0,112,117,54,80,74,422,1,467
2025-02-20 15:46:45.648,276.0,-163.0,1296.0,-151.0,297.0,-2.0,114,117,54,81,75,430,1,474
2025-02-20 15:46:45.667,211.0,-392.0,1045.0,-147.0,309.0,30.0,112,118,55,82,74,463,2,472
2025-02-20 15:46:45.684,165.0,-419.0,850.0,-77.0,270.0,57.0,107,117,55,81,72,449,1,461
2025-02-20 15:46:45.706,82.0,-152.0,851.0,-60.0,227.0,47.0,107,117,56,81,71,442,1,448
2025-02-20 15:46:45.724,-21.0,137.0,910.0,-111.0,243.0,26.0,109,116,56,81,72,402,1,439
2025-02-20 15:46:45.743,-198.0,-45.0,758.0,-153.0,273.0,25.0,111,113,56,81,72,389,1,436
2025-02-20 15:46:45.764,-310.0,-374.0,447.0,-113.0,254.0,49.0,109,114,56,80,71,420,1,437
2025-02-20 15:46:45.781,-271.0,-305.0,386.0,-51.0,236.0,60.0,107,115,56,80,71,452,1,445
2025-02-20 15:46:45.800,-393.0,-130.0,310.0,-29.0,218.0,77.0,108,118,57,80,70,457,4,455
2025-02-20 15:46:45.818,-426.0,20.0,231.0,-40.0,196.0,87.0,109,120,57,81,69,464,1,465
2025-02-20 15:46:45.837,-517.0,12.0,116.0,-46.0,156.0,89.0,110,120,57,81,70,438,1,472
2025-02-20 15:46:45.859,-1214.0,340.0,-794.0,29.0,3.0,-16.0,104,121,55,78,66,417,1,463
2025-02-20 15:46:45.876,-1615.0,589.0,-1530.0,178.0,-297.0,-177.0,97,124,54,75,63,448,0,474
2025-02-20 15:46:45.890,-614.0,603.0,-1617.0,204.0,-656.0,-195.0,93,128,53,74,62,479,2,475
2025-02-20 15:46:45.916,731.0,186.0,-1383.0,256.0,-856.0,-100.0,92,128,54,74,63,487,1,471
2025-02-20 15:46:45.933,1935.0,30.0,-267.0,326.0,-886.0,-48.0,96,129,55,74,63,516,0,477
2025-02-20 15:46:45.953,2359.0,-187.0,1910.0,325.0,-693.0,-13.0,102,131,53,74,66,545,0,478
2025-02-20 15:46:45.973,2414.0,259.0,3165.0,217.0,-377.0,27.0,108,133,53,74,68,436,2,478
2025-02-20 15:46:45.990,2007.0,576.0,3175.0,0.0,-75.0,44.0,111,133,54,75,69,435,1,469
2025-02-20 15:46:46.010,1694.0,322.0,2702.0,-123.0,92.0,51.0,116,133,54,76,70,413,1,467
2025-02-20 15:46:46.030,1183.0,295.0,2109.0,-181.0,207.0,56.0,121,132,55,77,72,404,1,464
2025-02-20 15:46:46.047,672.0,-7.0,1599.0,-227.0,255.0,51.0,125,132,56,79,74,479,0,464
2025-02-20 15:46:46.067,641.0,-424.0,1476.0,-215.0,287.0,62.0,128,132,56,80,76,456,1,467
2025-02-20 15:46:46.084,764.0,-517.0,1574.0,-193.0,356.0,96.0,129,133,56,82,78,468,1,470
2025-02-20 15:46:46.105,779.0,-291.0,1345.0,-223.0,429.0,128.0,129,132,58,82,78,448,0,440
2025-02-20 15:46:46.125,416.0,-180.0,949.0,-280.0,463.0,153.0,130,132,59,83,79,367,1,438
2025-02-20 15:46:46.141,409.0,-368.0,862.0,-273.0,478.0,186.0,130,130,62,83,79,346,1,444
2025-02-20 15:46:46.157,177.0,-208.0,711.0,-281.0,467.0,211.0,130,127,65,83,79,383,1,440
2025-02-20 15:46:46.180,144.0,-10.0,389.0,-276.0,443.0,218.0,129,121,66,81,79,494,2,448
2025-02-20 15:46:46.198,-164.0,-228.0,219.0,-264.0,417.0,202.0,129,108,68,83,81,540,0,467
2025-02-20 15:46:46.217,-456.0,-266.0,180.0,-206.0,402.0,196.0,130,90,69,84,82,564,2,481
2025-02-20 15:46:46.239,-644.0,-88.0,-294.0,-132.0,345.0,178.0,130,76,67,82,81,509,1,493
2025-02-20 15:46:46.253,-781.0,198.0,-552.0,-31.0,243.0,107.0,130,69,66,81,80,466,0,491
2025-02-20 15:46:46.276,-1030.0,579.0,-532.0,-19.0,149.0,40.0,130,61,62,80,79,476,1,486
2025-02-20 15:46:46.293,-937.0,1128.0,-623.0,-15.0,54.0,-55.0,130,57,59,75,72,467,1,484
2025-02-20 15:46:46.313,-555.0,1347.0,-889.0,60.0,-27.0,-134.0,129,55,57,73,65,457,0,486
2025-02-20 15:46:46.334,-1171.0,1854.0,-1585.0,147.0,-178.0,-322.0,122,52,56,73,60,502,1,478
2025-02-20 15:46:46.351,-929.0,2057.0,-2103.0,134.0,-411.0,-540.0,113,52,55,71,56,516,0,485
2025-02-20 15:46:46.370,-493.0,2354.0,-1876.0,29.0,-691.0,-784.0,110,50,53,72,57,529,1,488
2025-02-20 15:46:46.390,2597.0,1013.0,-2406.0,-219.0,-1132.0,-793.0,110,50,52,74,60,546,1,490
2025-02-20 15:46:46.406,5733.0,-3408.0,1023.0,-241.0,-959.0,-427.0,112,47,52,76,62,488,1,480
2025-02-20 15:46:46.427,5310.0,-5572.0,3003.0,-14.0,-38.0,25.0,108,53,54,77,63,451,1,474
2025-02-20 15:46:46.448,1895.0,-3101.0,1234.0,270.0,284.0,-29.0,107,54,54,79,61,394,1,469
2025-02-20 15:46:46.465,385.0,-2056.0,746.0,179.0,320.0,68.0,109,56,54,75,57,362,1,468
2025-02-20 15:46:46.484,252.0,-1385.0,696.0,-31.0,197.0,112.0,111,57,55,77,59,413,1,466
2025-02-20 15:46:46.503,291.0,-1606.0,817.0,-100.0,169.0,125.0,114,58,56,79,62,408,1,459
2025-02-20 15:46:46.520,192.0,-1905.0,666.0,-44.0,195.0,169.0,115,58,58,82,62,399,1,465
2025-02-20 15:46:46.543,121.0,-1415.0,303.0,-13.0,233.0,206.0,117,58,55,83,62,450,0,458
2025-02-20 15:46:46.559,8.0,-667.0,271.0,-21.0,209.0,207.0,118,58,58,79,63,478,1,467
2025-02-20 15:46:46.580,-16.0,-559.0,354.0,-71.0,188.0,205.0,119,58,58,80,64,517,1,472
2025-02-20 15:46:46.599,-312.0,-599.0,227.0,-84.0,168.0,218.0,121,58,58,80,65,547,1,466
2025-02-20 15:46:46.616,-421.0,-503.0,281.0,-54.0,137.0,228.0,121,59,60,82,67,517,0,483
2025-02-20 15:46:46.635,-62.0,-350.0,236.0,-34.0,158.0,246.0,122,58,60,82,67,548,1,487
2025-02-20 15:46:46.657,-49.0,-193.0,326.0,-20.0,187.0,241.0,121,58,60,82,67,572,1,495
2025-02-20 15:46:46.674,-431.0,-64.0,-11.0,-3.0,180.0,217.0,122,59,59,80,67,513,1,489
2025-02-20 15:46:46.694,-549.0,144.0,-115.0,-14.0,153.0,191.0,122,59,60,83,67,523,1,488
2025-02-20 15:46:46.711,-915.0,268.0,-370.0,-1.0,85.0,146.0,122,60,60,81,67,513,1,482
2025-02-20 15:46:46.732,-771.0,607.0,-460.0,37.0,18.0,59.0,121,59,60,81,68,482,0,472
2025-02-20 15:46:46.752,-964.0,1139.0,-894.0,170.0,-30.0,-95.0,121,59,60,81,68,503,1,467
2025-02-20 15:46:46.772,-1436.0,1887.0,-1457.0,250.0,-178.0,-320.0,118,59,59,80,65,501,1,457
2025-02-20 15:46:46.789,-1619.0,2374.0,-1845.0,223.0,-536.0,-547.0,117,58,59,79,62,443,0,458
2025-02-20 15:46:46.807,626.0,1578.0,-1192.0,98.0,-829.0,-651.0,119,57,58,81,64,436,0,463
2025-02-20 15:46:46.826,3824.0,-2700.0,396.0,182.0,-823.0,-453.0,123,56,58,84,69,423,1,456
2025-02-20 15:46:46.845,4263.0,-4816.0,3541.0,591.0,-279.0,-90.0,128,60,57,82,71,516,1,457
2025-02-20 15:46:46.866,2409.0,-92.0,3068.0,390.0,165.0,-12.0,132,60,59,81,72,466,0,458
2025-02-20 15:46:46.883,413.0,-97.0,2848.0,102.0,215.0,-95.0,133,60,59,84,72,349,1,445
2025-02-20 15:46:46.902,301.0,-1136.0,1773.0,47.0,286.0,15.0,134,59,59,86,73,349,1,443
2025-02-20 15:46:46.923,-451.0,-672.0,712.0,176.0,300.0,-21.0,135,59,58,86,73,400,0,435
2025-02-20 15:46:46.938,-184.0,-726.0,779.0,222.0,305.0,-34.0,135,59,58,81,71,405,1,448
2025-02-20 15:46:46.960,-520.0,-305.0,525.0,247.0,234.0,-47.0,135,59,57,83,71,443,0,463
2025-02-20 15:46:46.977,-621.0,-220.0,445.0,252.0,178.0,-56.0,135,59,57,82,70,449,1,437
2025-02-20 15:46:46.998,-674.0,-99.0,395.0,254.0,77.0,-50.0,135,59,56,80,69,510,0,430
2025-02-20 15:46:47.016,-645.0,147.0,440.0,212.0,-19.0,-65.0,137,59,57,81,68,526,1,433
2025-02-20 15:46:47.034,-327.0,-1.0,772.0,183.0,-47.0,-74.0,139,59,57,81,69,471,1,466
2025-02-20 15:46:47.055,-145.0,-191.0,992.0,173.0,-25.0,-67.0,140,59,57,81,69,439,1,464
2025-02-20 15:46:47.075,-256.0,-59.0,1044.0,100.0,-9.0,-53.0,141,60,57,81,70,423,1,472
2025-02-20 15:46:47.091,-222.0,-218.0,914.0,50.0,-6.0,-48.0,141,59,57,81,68,445,0,483
2025-02-20 15:46:47.112,-186.0,-406.0,958.0,36.0,-1.0,-34.0,142,59,57,81,68,512,4,502
2025-02-20 15:46:47.128,-89.0,-654.0,1064.0,38.0,19.0,-10.0,142,59,58,81,69,514,1,504
2025-02-20 15:46:47.149,96.0,-712.0,1179.0,43.0,18.0,16.0,142,60,57,82,69,502,1,500
2025-02-20 15:46:47.169,334.0,-926.0,1518.0,3.0,23.0,76.0,142,60,58,82,70,530,1,499
2025-02-20 15:46:47.186,492.0,-1244.0,1578.0,-74.0,16.0,196.0,143,60,58,83,71,495,2,488
2025-02-20 15:46:47.206,637.0,-1682.0,1609.0,-174.0,28.0,375.0,144,61,57,82,72,483,1,458
2025-02-20 15:46:47.226,1320.0,-1692.0,1650.0,-246.0,132.0,609.0,145,62,56,81,70,509,1,438
2025-02-20 15:46:47.242,1750.0,-891.0,1676.0,-224.0,112.0,752.0,145,61,56,79,70,517,1,448
2025-02-20 15:46:47.264,1001.0,1238.0,1735.0,-371.0,94.0,654.0,145,59,57,79,68,503,1,460
2025-02-20 15:46:47.283,580.0,1927.0,1898.0,-403.0,123.0,528.0,145,60,58,74,68,500,1,472
2025-02-20 15:46:47.301,-121.0,2608.0,1247.0,-287.0,121.0,284.0,146,61,58,73,66,499,1,470
2025-02-20 15:46:47.321,-236.0,2206.0,1161.0,-136.0,112.0,124.0,146,62,58,73,65,482,1,471
2025-02-20 15:46:47.339,-278.0,2333.0,1261.0,47.0,99.0,-1.0,147,62,58,73,66,463,1,468
2025-02-20 15:46:47.358,-261.0,2083.0,1082.0,81.0,93.0,-115.0,146,61,58,72,64,465,1,469
2025-02-20 15:46:47.378,-210.0,1303.0,893.0,75.0,95.0,-189.0,147,61,57,72,63,405,1,468
2025-02-20 15:46:47.395,-253.0,592.0,643.0,143.0,94.0,-252.0,146,60,56,71,61,376,2,465
2025-02-20 15:46:47.416,-410.0,406.0,501.0,217.0,37.0,-297.0,146,59,56,72,61,393,1,461
2025-02-20 15:46:47.435,-442.0,-63.0,312.0,257.0,-66.0,-314.0,146,58,55,73,62,402,0,456
2025-02-20 15:46:47.452,-417.0,9.0,376.0,267.0,-178.0,-307.0,144,58,55,73,63,438,1,445
2025-02-20 15:46:47.472,-193.0,-29.0,589.0,259.0,-232.0,-325.0,144,57,55,75,64,428,1,444
2025-02-20 15:46:47.488,118.0,-234.0,1017.0,284.0,-232.0,-327.0,144,57,55,76,65,470,1,474
2025-02-20 15:46:47.508,84.0,-150.0,1217.0,258.0,-196.0,-293.0,144,58,55,76,65,508,1,485
2025-02-20 15:46:47.526,87.0,-173.0,1385.0,172.0,-185.0,-239.0,143,57,56,77,67,517,1,476
2025-02-20 15:46:47.551,78.0,-481.0,1356.0,59.0,-152.0,-154.0,144,57,56,77,67,496,1,467
2025-02-20 15:46:47.567,125.0,-860.0,1313.0,9.0,-116.0,-88.0,144,58,56,77,67,499,1,466
2025-02-20 15:46:47.587,282.0,-965.0,1252.0,41.0,-67.0,-43.0,144,57,57,77,66,468,1,441
2025-02-20 15:46:47.604,345.0,-1338.0,1258.0,89.0,-32.0,18.0,145,61,55,77,66,452,1,419
2025-02-20 15:46:47.624,786.0,-1716.0,1409.0,87.0,29.0,236.0,145,57,55,77,66,484,1,420
2025-02-20 15:46:47.644,1042.0,-1753.0,1422.0,-50.0,52.0,446.0,146,57,55,78,66,473,1,422
2025-02-20 15:46:47.661,2015.0,-1614.0,1179.0,-141.0,98.0,761.0,146,56,54,76,64,458,1,441
2025-02-20 15:46:47.682,1060.0,616.0,1532.0,-374.0,30.0,743.0,146,58,55,75,63,467,0,437
2025-02-20 15:46:47.701,1645.0,184.0,2057.0,-493.0,88.0,724.0,147,58,54,73,63,462,1,456
2025-02-20 15:46:47.719,533.0,2367.0,1915.0,-385.0,145.0,458.0,147,59,55,71,63,457,1,483
2025-02-20 15:46:47.739,197.0,1683.0,1436.0,-54.0,183.0,236.0,146,59,55,72,62,419,0,476
2025-02-20 15:46:47.759,-386.0,2824.0,1357.0,65.0,117.0,49.0,147,59,55,72,63,461,1,468
2025-02-20 15:46:47.775,-115.0,2547.0,1598.0,-18.0,112.0,-54.0,148,60,57,73,63,509,1,472
2025-02-20 15:46:47.795,26.0,1275.0,1453.0,-35.0,179.0,-110.0,148,59,56,73,63,464,1,485
2025-02-20 15:46:47.813,9.0,303.0,1162.0,17.0,249.0,-176.0,148,59,58,73,63,470,1,486
2025-02-20 15:46:47.832,251.0,-820.0,1359.0,92.0,302.0,-181.0,147,60,56,73,63,487,1,486
2025-02-20 15:46:47.853,351.0,-1129.0,1470.0,75.0,407.0,-107.0,146,60,57,73,65,472,2,476
2025-02-20 15:46:47.870,-148.0,-641.0,1049.0,-95.0,443.0,-69.0,145,61,58,75,68,418,2,469
2025-02-20 15:46:47.890,-531.0,-462.0,471.0,-202.0,403.0,-60.0,140,61,59,76,69,429,2,468
2025-02-20 15:46:47.910,117.0,-1004.0,356.0,-149.0,411.0,-1.0,138,62,60,78,73,472,1,479
2025-02-20 15:46:47.927,-513.0,-734.0,-596.0,2.0,398.0,24.0,133,64,63,80,77,520,1,484
2025-02-20 15:46:47.948,-1142.0,-36.0,-1037.0,62.0,263.0,-5.0,129,67,66,83,82,603,1,480
2025-02-20 15:46:47.968,-1094.0,57.0,-314.0,83.0,125.0,-11.0,126,72,70,88,91,562,2,479
2025-02-20 15:46:47.985,-985.0,115.0,-536.0,160.0,106.0,-25.0,125,80,77,96,97,497,1,461
2025-02-20 15:46:48.005,-672.0,847.0,-943.0,165.0,14.0,-102.0,126,86,80,105,99,440,0,461
2025-02-20 15:46:48.025,-1111.0,68.0,-363.0,120.0,-69.0,-153.0,127,93,82,109,102,432,1,459
2025-02-20 15:46:48.042,-840.0,537.0,-352.0,69.0,-139.0,-261.0,128,98,86,113,105,394,1,461
2025-02-20 15:46:48.062,-672.0,692.0,-851.0,35.0,-185.0,-420.0,127,102,88,116,112,392,1,464
2025-02-20 15:46:48.082,-774.0,1047.0,-1202.0,-43.0,-228.0,-626.0,127,107,93,120,118,399,1,465
2025-02-20 15:46:48.100,-860.0,991.0,-1415.0,-160.0,-715.0,-753.0,128,113,95,124,120,443,2,470
2025-02-20 15:46:48.120,687.0,-414.0,-819.0,-217.0,-885.0,-631.0,130,118,97,125,121,463,0,475
2025-02-20 15:46:48.139,2493.0,-1204.0,-1201.0,-420.0,-942.0,-445.0,132,121,101,128,122,426,2,475
2025-02-20 15:46:48.156,3375.0,-3203.0,-415.0,-369.0,-697.0,-168.0,133,124,100,129,124,372,1,473
2025-02-20 15:46:48.177,3000.0,-3562.0,598.0,-88.0,-209.0,8.0,134,122,101,130,126,422,1,474
2025-02-20 15:46:48.194,2409.0,-3035.0,372.0,114.0,149.0,88.0,135,123,101,131,126,453,1,467
2025-02-20 15:46:48.214,1246.0,-1612.0,897.0,159.0,235.0,165.0,138,123,101,130,126,429,1,455
2025-02-20 15:46:48.234,473.0,-1279.0,503.0,148.0,228.0,216.0,140,124,102,131,126,475,2,453
2025-02-20 15:46:48.251,159.0,-1238.0,-91.0,82.0,213.0,246.0,139,124,101,130,126,499,1,456
2025-02-20 15:46:48.272,80.0,-1227.0,-15.0,11.0,213.0,274.0,139,123,102,130,127,522,1,474
2025-02-20 15:46:48.291,82.0,-1202.0,-149.0,73.0,184.0,295.0,139,121,101,131,126,478,1,476
2025-02-20 15:46:48.308,-72.0,-605.0,190.0,84.0,148.0,282.0,137,123,101,131,128,543,1,467
2025-02-20 15:46:48.328,-64.0,-770.0,101.0,-34.0,166.0,274.0,137,122,101,129,128,555,1,464
2025-02-20 15:46:48.346,-264.0,-595.0,221.0,8.0,167.0,291.0,137,121,101,130,129,555,2,461
2025-02-20 15:46:48.363,-559.0,-761.0,283.0,84.0,124.0,287.0,136,121,100,130,130,537,1,455
2025-02-20 15:46:48.386,-279.0,-451.0,303.0,36.0,128.0,259.0,136,120,100,130,129,574,1,448
2025-02-20 15:46:48.403,-397.0,-72.0,95.0,42.0,190.0,236.0,135,120,101,130,130,592,1,459
2025-02-20 15:46:48.423,-541.0,103.0,-12.0,137.0,159.0,221.0,133,119,100,131,131,558,1,467
2025-02-20 15:46:48.443,-656.0,543.0,-227.0,144.0,132.0,160.0,133,119,100,130,130,528,1,466
2025-02-20 15:46:48.460,-746.0,1255.0,-724.0,143.0,42.0,22.0,133,119,103,129,131,503,0,462
2025-02-20 15:46:48.480,-1173.0,1877.0,-719.0,151.0,-94.0,-247.0,132,121,102,130,133,491,1,456
2025-02-20 15:46:48.500,-1364.0,2092.0,-854.0,41.0,-246.0,-518.0,130,121,102,130,134,455,1,459
2025-02-20 15:46:48.517,-896.0,959.0,-47.0,-31.0,-424.0,-720.0,127,122,102,131,133,421,1,468
2025-02-20 15:46:48.537,823.0,73.0,-185.0,-156.0,-603.0,-688.0,128,122,102,131,134,433,0,467
2025-02-20 15:46:48.558,2982.0,-1121.0,-104.0,-189.0,-685.0,-591.0,131,123,104,131,133,475,0,471
2025-02-20 15:46:48.575,3403.0,-3585.0,242.0,-243.0,-563.0,-251.0,133,124,103,132,133,396,2,472
2025-02-20 15:46:48.594,2427.0,-3996.0,441.0,-80.0,-139.0,-6.0,133,125,103,132,133,314,1,454
2025-02-20 15:46:48.611,1337.0,-2555.0,519.0,-5.0,101.0,73.0,134,126,103,132,133,256,1,454
2025-02-20 15:46:48.632,169.0,-1693.0,281.0,92.0,89.0,91.0,134,127,102,132,132,250,1,454
2025-02-20 15:46:48.652,30.0,-1077.0,443.0,135.0,63.0,96.0,135,127,102,132,133,371,1,461
2025-02-20 15:46:48.668,-122.0,-1037.0,807.0,50.0,40.0,60.0,136,127,103,132,133,471,1,462
2025-02-20 15:46:48.689,-46.0,-1185.0,183.0,10.0,63.0,62.0,135,127,100,133,134,535,1,461
2025-02-20 15:46:48.709,268.0,-1161.0,154.0,56.0,104.0,72.0,136,126,104,132,133,612,1,451
2025-02-20 15:46:48.726,72.0,-1009.0,416.0,137.0,160.0,82.0,136,125,102,132,134,550,0,453
2025-02-20 15:46:48.745,-118.0,-706.0,615.0,139.0,181.0,74.0,136,123,101,131,132,446,1,458
2025-02-20 15:46:48.767,-158.0,-521.0,533.0,204.0,198.0,43.0,137,122,100,131,132,456,1,463
2025-02-20 15:46:48.782,-141.0,-614.0,592.0,196.0,229.0,10.0,136,119,97,129,129,471,1,458
2025-02-20 15:46:48.803,-70.0,-777.0,454.0,254.0,286.0,10.0,137,116,87,127,124,480,1,451
2025-02-20 15:46:48.820,-284.0,-1191.0,-589.0,603.0,261.0,-3.0,136,120,86,125,111,431,1,444
2025-02-20 15:46:48.841,-63.0,-156.0,-637.0,450.0,292.0,4.0,135,106,81,123,100,401,0,440
2025-02-20 15:46:48.860,-432.0,-736.0,306.0,522.0,270.0,-2.0,133,93,75,122,91,434,1,455
2025-02-20 15:46:48.878,-683.0,-399.0,-14.0,552.0,202.0,-21.0,134,77,67,114,79,485,0,465
2025-02-20 15:46:48.898,-644.0,-486.0,510.0,452.0,125.0,-8.0,134,66,59,102,67,454,1,467
2025-02-20 15:46:48.913,-413.0,-364.0,550.0,424.0,15.0,-22.0,134,62,55,92,57,465,0,465
2025-02-20 15:46:48.932,286.0,-1479.0,972.0,251.0,-59.0,75.0,135,60,55,90,57,469,1,458
2025-02-20 15:46:48.955,787.0,-1328.0,1579.0,59.0,-60.0,189.0,137,59,54,85,54,447,1,429
2025-02-20 15:46:48.975,932.0,-1854.0,2149.0,-67.0,-1.0,358.0,139,56,51,78,53,399,1,409
2025-02-20 15:46:48.993,1396.0,-2239.0,1698.0,-174.0,106.0,621.0,141,55,49,72,51,397,1,421
2025-02-20 15:46:49.013,1354.0,-113.0,1329.0,-215.0,103.0,746.0,142,55,50,70,51,440,1,433
2025-02-20 15:46:49.030,529.0,1479.0,1404.0,-308.0,22.0,620.0,143,57,51,71,51,483,1,446
2025-02-20 15:46:49.047,23.0,2079.0,1505.0,-337.0,15.0,431.0,143,58,52,73,52,477,2,450
2025-02-20 15:46:49.070,-363.0,2571.0,1426.0,-183.0,30.0,209.0,145,60,53,73,54,445,1,444
2025-02-20 15:46:49.087,-227.0,2143.0,1462.0,-13.0,66.0,66.0,145,62,54,75,54,486,2,449
2025-02-20 15:46:49.106,-324.0,2191.0,1256.0,31.0,84.0,-42.0,146,62,54,74,54,510,1,473
2025-02-20 15:46:49.127,-212.0,1687.0,1095.0,23.0,97.0,-124.0,146,62,54,75,55,501,1,494
2025-02-20 15:46:49.144,-189.0,776.0,903.0,21.0,100.0,-151.0,145,62,54,76,55,509,0,482
2025-02-20 15:46:49.162,-246.0,257.0,707.0,53.0,82.0,-176.0,145,62,54,75,55,486,1,474
2025-02-20 15:46:49.181,-377.0,-17.0,591.0,109.0,43.0,-215.0,146,61,54,74,55,503,0,469
2025-02-20 15:46:49.199,-465.0,142.0,481.0,131.0,-25.0,-259.0,145,61,54,76,56,448,1,461
2025-02-20 15:46:49.221,-411.0,-24.0,304.0,165.0,-79.0,-257.0,144,61,53,75,55,405,0,445
2025-02-20 15:46:49.238,-383.0,25.0,541.0,184.0,-136.0,-248.0,143,61,53,77,57,397,1,433
2025-02-20 15:46:49.258,-271.0,7.0,738.0,206.0,-167.0,-261.0,144,62,54,77,58,435,1,451
2025-02-20 15:46:49.279,-194.0,160.0,870.0,193.0,-173.0,-270.0,143,61,54,78,59,487,1,476
2025-02-20 15:46:49.296,-142.0,97.0,1007.0,165.0,-166.0,-270.0,142,63,53,79,60,498,1,481
2025-02-20 15:46:49.307,-29.0,-201.0,1218.0,141.0,-145.0,-236.0,143,62,54,81,61,519,1,476
2025-02-20 15:46:49.333,69.0,-423.0,1326.0,95.0,-96.0,-175.0,142,63,54,81,61,497,1,472
2025-02-20 15:46:49.353,148.0,-647.0,1286.0,43.0,-65.0,-122.0,142,62,53,81,61,450,0,461
2025-02-20 15:46:49.373,616.0,-1714.0,1380.0,45.0,-15.0,49.0,139,62,54,82,61,439,1,439
2025-02-20 15:46:49.393,828.0,-1605.0,1265.0,-26.0,-5.0,200.0,138,62,54,81,61,380,1,429
2025-02-20 15:46:49.410,798.0,-1652.0,1215.0,-130.0,-36.0,352.0,135,60,53,82,61,362,1,425
2025-02-20 15:46:49.429,1057.0,-1865.0,971.0,-206.0,-60.0,569.0,133,59,53,81,61,393,1,430
2025-02-20 15:46:49.447,940.0,248.0,918.0,-333.0,-130.0,683.0,133,59,53,79,59,443,1,438
2025-02-20 15:46:49.467,546.0,1457.0,1436.0,-538.0,-234.0,615.0,135,60,53,78,60,411,1,444
2025-02-20 15:46:49.487,757.0,1134.0,2610.0,-544.0,-204.0,512.0,136,60,52,77,61,419,1,448
2025-02-20 15:46:49.504,1062.0,1020.0,3724.0,-365.0,37.0,341.0,137,63,55,82,61,450,1,472
2025-02-20 15:46:49.521,1019.0,1028.0,3892.0,-121.0,372.0,162.0,137,64,56,80,62,459,1,490
2025-02-20 15:46:49.545,985.0,719.0,2504.0,-39.0,615.0,11.0,137,64,55,81,62,485,1,482
2025-02-20 15:46:49.562,695.0,26.0,1362.0,-141.0,656.0,-10.0,137,63,57,80,60,443,1,476
2025-02-20 15:46:49.580,592.0,-734.0,616.0,-251.0,604.0,4.0,137,63,56,80,57,474,1,476
2025-02-20 15:46:49.600,-70.0,-1473.0,-411.0,-243.0,531.0,51.0,138,65,60,80,56,444,0,481
2025-02-20 15:46:49.618,-445.0,-1480.0,-898.0,-50.0,440.0,79.0,138,66,62,82,56,476,1,479
2025-02-20 15:46:49.639,-575.0,-934.0,-981.0,39.0,305.0,132.0,139,69,66,83,56,475,1,479
2025-02-20 15:46:49.659,-706.0,-493.0,-1033.0,62.0,202.0,145.0,140,77,70,85,58,493,1,470
2025-02-20 15:46:49.677,-662.0,-95.0,-544.0,54.0,122.0,136.0,141,87,74,88,59,475,1,470
2025-02-20 15:46:49.696,-505.0,-123.0,-436.0,116.0,94.0,147.0,141,96,78,88,59,472,0,464
2025-02-20 15:46:49.714,-438.0,108.0,-495.0,185.0,91.0,154.0,140,101,82,90,60,422,1,447
2025-02-20 15:46:49.734,-508.0,499.0,-369.0,249.0,98.0,127.0,142,105,87,91,62,492,1,469
2025-02-20 15:46:49.753,-607.0,798.0,-284.0,262.0,115.0,90.0,140,107,90,91,63,538,1,483
2025-02-20 15:46:49.770,-792.0,1203.0,-658.0,226.0,68.0,19.0,139,109,92,90,63,527,2,476
2025-02-20 15:46:49.791,-721.0,1535.0,-887.0,170.0,-6.0,-115.0,139,111,96,92,64,519,1,469
2025-02-20 15:46:49.811,-956.0,1799.0,-1334.0,155.0,-134.0,-349.0,137,112,99,91,62,485,0,469
2025-02-20 15:46:49.828,-1062.0,1791.0,-1623.0,107.0,-377.0,-550.0,137,115,101,91,60,426,1,468
2025-02-20 15:46:49.848,-606.0,1335.0,-1507.0,71.0,-642.0,-689.0,134,119,104,93,60,406,1,468
2025-02-20 15:46:49.868,1732.0,912.0,-973.0,-27.0,-942.0,-756.0,135,122,107,97,63,399,0,456
2025-02-20 15:46:49.885,3874.0,-1542.0,61.0,-100.0,-999.0,-615.0,134,126,107,101,65,373,1,454
2025-02-20 15:46:49.906,4141.0,-3468.0,1390.0,-67.0,-674.0,-282.0,135,130,107,99,65,427,1,457
2025-02-20 15:46:49.922,3609.0,-3629.0,1828.0,41.0,-135.0,3.0,136,131,108,98,66,461,0,454
2025-02-20 15:46:49.942,2005.0,-2194.0,1571.0,69.0,117.0,58.0,137,132,106,98,65,380,2,448
2025-02-20 15:46:49.963,795.0,-1750.0,1311.0,5.0,162.0,57.0,137,132,108,96,64,307,1,446
2025-02-20 15:46:49.979,393.0,-1570.0,874.0,-45.0,155.0,110.0,137,131,108,96,63,340,1,451
2025-02-20 15:46:49.999,311.0,-1426.0,594.0,-68.0,156.0,134.0,137,133,109,97,63,412,0,457
2025-02-20 15:46:50.018,142.0,-1351.0,436.0,-46.0,160.0,136.0,138,133,108,97,63,489,0,463
2025-02-20 15:46:50.035,138.0,-1210.0,422.0,-16.0,171.0,166.0,137,133,108,97,62,519,1,470
2025-02-20 15:46:50.057,172.0,-1032.0,363.0,18.0,180.0,189.0,138,134,109,96,62,513,1,478
2025-02-20 15:46:50.077,71.0,-734.0,395.0,17.0,173.0,204.0,136,133,109,94,63,544,1,471
2025-02-20 15:46:50.094,3.0,-630.0,382.0,12.0,189.0,214.0,138,133,109,96,62,549,1,462
2025-02-20 15:46:50.114,10.0,-560.0,378.0,32.0,219.0,235.0,139,133,109,94,62,573,0,454
2025-02-20 15:46:50.131,-152.0,-371.0,285.0,66.0,241.0,257.0,138,133,109,94,62,559,0,470
2025-02-20 15:46:50.151,-208.0,-162.0,250.0,76.0,248.0,255.0,139,133,109,93,62,519,1,483
2025-02-20 15:46:50.172,-368.0,54.0,214.0,52.0,250.0,249.0,138,133,110,92,61,512,0,486
2025-02-20 15:46:50.188,-767.0,103.0,92.0,1.0,209.0,250.0,138,132,109,92,62,515,2,484
2025-02-20 15:46:50.209,-659.0,585.0,-217.0,-48.0,138.0,205.0,139,132,109,92,61,524,1,480
2025-02-20 15:46:50.228,-882.0,904.0,-564.0,-52.0,59.0,110.0,139,132,112,90,62,560,1,472
2025-02-20 15:46:50.246,-1549.0,1420.0,-1356.0,74.0,-88.0,-99.0,139,131,110,86,61,540,0,470
2025-02-20 15:46:50.266,-1754.0,3181.0,-1348.0,47.0,-335.0,-444.0,138,132,111,86,60,493,1,458
2025-02-20 15:46:50.285,-1177.0,3589.0,-1713.0,-312.0,-690.0,-779.0,135,133,111,89,60,446,1,456
2025-02-20 15:46:50.303,2444.0,-1019.0,-912.0,-308.0,-841.0,-855.0,132,133,111,94,63,346,0,465
2025-02-20 15:46:50.320,4756.0,-4007.0,-290.0,399.0,-588.0,-582.0,135,134,111,97,67,424,1,475
2025-02-20 15:46:50.343,3402.0,-2680.0,2013.0,463.0,-206.0,-208.0,136,133,110,97,68,456,2,473
2025-02-20 15:46:50.360,1988.0,-2030.0,2500.0,125.0,-9.0,69.0,138,134,110,96,69,293,0,462
2025-02-20 15:46:50.380,1259.0,-1849.0,1583.0,-43.0,15.0,143.0,138,133,110,96,70,316,1,453
2025-02-20 15:46:50.398,755.0,-1442.0,1616.0,31.0,76.0,109.0,139,134,110,99,70,435,1,452
2025-02-20 15:46:50.417,155.0,-1071.0,1275.0,77.0,150.0,82.0,140,134,110,100,71,581,1,450
2025-02-20 15:46:50.437,7.0,-843.0,1023.0,86.0,188.0,80.0,139,133,107,101,71,597,1,455
2025-02-20 15:46:50.454,-32.0,-677.0,849.0,112.0,251.0,52.0,140,129,104,100,71,557,1,460
2025-02-20 15:46:50.475,13.0,-627.0,818.0,166.0,287.0,16.0,140,119,95,100,71,518,1,461
2025-02-20 15:46:50.495,-131.0,-566.0,729.0,273.0,334.0,-13.0,141,99,80,101,70,516,1,448
2025-02-20 15:46:50.511,-291.0,-422.0,446.0,367.0,343.0,-15.0,141,83,71,101,70,480,0,445
2025-02-20 15:46:50.532,-359.0,-11.0,276.0,382.0,310.0,-42.0,141,75,69,102,69,448,1,446
2025-02-20 15:46:50.552,-526.0,-107.0,54.0,399.0,262.0,-73.0,140,67,65,101,68,431,0,458
2025-02-20 15:46:50.568,-591.0,-150.0,-44.0,392.0,163.0,-76.0,140,62,59,99,65,372,1,464
2025-02-20 15:46:50.590,-233.0,-273.0,120.0,274.0,34.0,-45.0,141,60,56,97,65,431,1,462
2025-02-20 15:46:50.606,-439.0,-292.0,271.0,229.0,-76.0,-48.0,142,61,55,95,63,533,1,459
2025-02-20 15:46:50.626,24.0,-854.0,762.0,139.0,-118.0,19.0,142,59,55,95,62,560,1,450
2025-02-20 15:46:50.647,389.0,-1071.0,1522.0,-3.0,-98.0,123.0,143,60,55,94,62,564,0,431
2025-02-20 15:46:50.663,686.0,-1575.0,1713.0,-115.0,-67.0,282.0,144,60,55,93,61,510,0,428
2025-02-20 15:46:50.684,1160.0,-2351.0,1805.0,-164.0,-8.0,502.0,145,61,56,93,63,373,1,426
2025-02-20 15:46:50.704,1601.0,-1348.0,1810.0,-164.0,47.0,679.0,144,62,55,90,61,408,1,442
2025-02-20 15:46:50.721,818.0,78.0,1910.0,-312.0,58.0,616.0,145,63,57,89,60,459,0,450
2025-02-20 15:46:50.737,522.0,632.0,1557.0,-432.0,70.0,551.0,145,64,57,87,59,503,1,459
2025-02-20 15:46:50.761,-118.0,1408.0,1233.0,-362.0,21.0,412.0,146,65,57,86,58,540,1,472
2025-02-20 15:46:50.778,-117.0,1877.0,1382.0,-179.0,14.0,234.0,146,66,58,87,59,512,1,478
2025-02-20 15:46:50.798,-32.0,1961.0,1515.0,4.0,38.0,99.0,146,65,60,88,59,523,1,494
2025-02-20 15:46:50.815,-95.0,2283.0,1568.0,40.0,66.0,-2.0,146,67,60,87,60,540,0,498
2025-02-20 15:46:50.836,-59.0,1825.0,1397.0,10.0,107.0,-94.0,146,67,60,87,60,446,0,498
2025-02-20 15:46:50.856,-46.0,967.0,1091.0,41.0,120.0,-146.0,147,66,60,87,59,372,1,491
2025-02-20 15:46:50.872,-71.0,229.0,858.0,96.0,96.0,-173.0,146,67,60,85,58,372,1,484
2025-02-20 15:46:50.893,-194.0,-68.0,786.0,131.0,47.0,-196.0,146,67,60,85,58,434,1,477
2025-02-20 15:46:50.913,-217.0,-92.0,804.0,150.0,15.0,-204.0,145,67,60,86,59,494,1,459
2025-02-20 15:46:50.930,-428.0,-88.0,779.0,145.0,-5.0,-233.0,145,67,59,86,58,403,1,465
2025-02-20 15:46:50.950,-306.0,-410.0,765.0,187.0,-17.0,-219.0,146,67,60,87,59,388,1,462
2025-02-20 15:46:50.969,-448.0,-289.0,665.0,282.0,-37.0,-248.0,145,67,59,88,59,438,1,473
2025-02-20 15:46:50.987,-484.0,-144.0,610.0,365.0,-73.0,-260.0,146,66,59,88,60,490,2,472
2025-02-20 15:46:51.007,-496.0,210.0,663.0,346.0,-116.0,-269.0,145,65,56,88,59,408,1,464
2025-02-20 15:46:51.028,-371.0,199.0,762.0,264.0,-161.0,-261.0,145,66,59,88,61,399,1,454
2025-02-20 15:46:51.045,-176.0,-112.0,1013.0,155.0,-188.0,-241.0,145,65,57,88,61,396,1,447
2025-02-20 15:46:51.064,148.0,-842.0,1307.0,133.0,-160.0,-169.0,144,65,59,90,62,434,1,449
2025-02-20 15:46:51.081,432.0,-1289.0,1633.0,126.0,-72.0,-75.0,143,65,59,90,62,418,0,447
2025-02-20 15:46:51.101,808.0,-1833.0,1872.0,77.0,5.0,140.0,143,65,59,89,61,372,0,422
2025-02-20 15:46:51.121,1178.0,-1818.0,2053.0,-45.0,51.0,335.0,142,63,53,87,61,372,1,407
2025-02-20 15:46:51.139,1458.0,-1876.0,1943.0,-224.0,85.0,590.0,142,63,56,86,61,418,0,426
2025-02-20 15:46:51.159,977.0,-53.0,1976.0,-471.0,77.0,676.0,143,62,56,85,59,488,1,439
2025-02-20 15:46:51.179,937.0,754.0,1593.0,-705.0,81.0,689.0,141,64,57,84,59,494,1,449
2025-02-20 15:46:51.196,400.0,1911.0,1474.0,-708.0,-23.0,572.0,144,65,57,81,58,469,0,460
2025-02-20 15:46:51.216,148.0,2315.0,1954.0,-435.0,-51.0,316.0,143,66,57,82,58,465,2,468
2025-02-20 15:46:51.233,325.0,2118.0,2451.0,-130.0,52.0,87.0,144,67,58,83,58,477,0,451
2025-02-20 15:46:51.253,53.0,2030.0,2055.0,41.0,157.0,-58.0,143,68,59,85,58,434,2,455
2025-02-20 15:46:51.273,29.0,1407.0,1442.0,78.0,209.0,-140.0,145,67,58,84,58,332,0,473
2025-02-20 15:46:51.290,275.0,-191.0,1147.0,84.0,260.0,-204.0,142,66,59,83,57,361,0,466
2025-02-20 15:46:51.309,453.0,-1481.0,1077.0,134.0,301.0,-163.0,140,66,58,84,56,442,0,471
2025-02-20 15:46:51.331,86.0,-1625.0,1203.0,59.0,297.0,-52.0,139,65,57,83,56,476,1,479
2025-02-20 15:46:51.348,-269.0,-1139.0,1256.0,-98.0,309.0,-12.0,138,66,58,85,57,518,1,484
2025-02-20 15:46:51.368,-395.0,-793.0,809.0,-212.0,317.0,12.0,137,64,57,84,58,672,1,486
2025-02-20 15:46:51.387,-445.0,-777.0,485.0,-228.0,348.0,41.0,137,64,58,84,58,604,0,490
2025-02-20 15:46:51.404,-455.0,-711.0,252.0,-118.0,382.0,57.0,136,64,58,84,59,525,1,501
2025-02-20 15:46:51.425,-768.0,-325.0,29.0,-74.0,367.0,56.0,135,63,58,84,60,502,1,502
2025-02-20 15:46:51.445,-789.0,-129.0,-140.0,-69.0,314.0,40.0,136,64,58,86,59,469,1,486
2025-02-20 15:46:51.463,-926.0,-171.0,-114.0,-37.0,243.0,30.0,135,63,57,86,59,360,0,467
2025-02-20 15:46:51.482,-564.0,-100.0,-335.0,20.0,194.0,23.0,134,61,56,84,58,330,1,468
2025-02-20 15:46:51.499,-472.0,-3.0,-418.0,77.0,167.0,42.0,133,61,54,84,58,337,0,468
2025-02-20 15:46:51.519,-763.0,689.0,-945.0,131.0,98.0,44.0,132,59,54,82,57,419,1,466
2025-02-20 15:46:51.540,-646.0,1507.0,-1283.0,187.0,1.0,-27.0,128,58,53,81,56,485,1,456
2025-02-20 15:46:51.556,-588.0,2293.0,-1383.0,189.0,-100.0,-204.0,127,58,52,80,56,526,0,443
2025-02-20 15:46:51.577,-1046.0,3014.0,-2012.0,84.0,-303.0,-472.0,122,55,51,79,54,498,1,468
2025-02-20 15:46:51.597,-613.0,3331.0,-2372.0,-108.0,-599.0,-799.0,120,55,52,81,55,466,0,468
2025-02-20 15:46:51.614,2569.0,2436.0,-2541.0,-359.0,-952.0,-1039.0,123,55,51,83,57,422,2,461
2025-02-20 15:46:51.634,7243.0,-1098.0,502.0,-512.0,-884.0,-899.0,126,56,51,87,61,417,0,464
2025-02-20 15:46:51.654,6090.0,-7488.0,1620.0,-381.0,-23.0,-235.0,125,58,53,91,62,473,1,448
2025-02-20 15:46:51.671,2720.0,-6038.0,-298.0,161.0,247.0,13.0,126,60,53,92,60,429,1,449
2025-02-20 15:46:51.692,743.0,-3068.0,-501.0,224.0,218.0,172.0,128,60,53,88,56,444,1,462
2025-02-20 15:46:51.708,121.0,-1507.0,-220.0,18.0,50.0,197.0,130,62,53,88,57,506,1,457
2025-02-20 15:46:51.726,449.0,-1928.0,319.0,4.0,50.0,177.0,129,62,54,92,58,449,1,453
2025-02-20 15:46:51.748,248.0,-1896.0,401.0,70.0,120.0,182.0,129,62,55,96,60,451,1,463
2025-02-20 15:46:51.766,-50.0,-1273.0,136.0,68.0,132.0,197.0,128,62,55,95,59,563,1,461
2025-02-20 15:46:51.785,-63.0,-919.0,72.0,35.0,73.0,199.0,128,61,55,91,59,636,1,472
2025-02-20 15:46:51.805,139.0,-817.0,370.0,-31.0,64.0,208.0,127,61,56,94,59,663,1,464
2025-02-20 15:46:51.823,34.0,-783.0,471.0,-59.0,86.0,236.0,127,61,58,95,60,552,1,482
2025-02-20 15:46:51.842,-43.0,-817.0,317.0,-23.0,134.0,263.0,127,61,57,94,61,527,1,494
2025-02-20 15:46:51.863,-175.0,-734.0,3.0,52.0,127.0,279.0,127,61,57,94,61,488,0,489
2025-02-20 15:46:51.876,-378.0,-168.0,-53.0,72.0,110.0,282.0,128,62,58,95,61,498,0,480
2025-02-20 15:46:51.900,-500.0,335.0,-56.0,38.0,64.0,256.0,128,62,57,94,60,493,1,470
2025-02-20 15:46:51.914,-574.0,366.0,19.0,-14.0,35.0,217.0,128,61,58,95,61,454,1,466
2025-02-20 15:46:51.937,-615.0,680.0,-84.0,0.0,0.0,179.0,128,62,57,96,61,410,2,461
2025-02-20 15:46:51.957,-761.0,1184.0,-120.0,147.0,12.0,7.0,129,62,60,96,62,383,1,456
2025-02-20 15:46:51.974,-1148.0,1772.0,-627.0,249.0,4.0,-173.0,128,63,60,96,61,366,8,452
2025-02-20 15:46:51.994,-1509.0,2163.0,-1101.0,192.0,-185.0,-363.0,126,61,58,94,60,404,1,443
2025-02-20 15:46:52.012,-702.0,1771.0,-1080.0,171.0,-450.0,-569.0,127,60,58,95,60,464,1,463
2025-02-20 15:46:52.031,1159.0,164.0,-498.0,175.0,-633.0,-645.0,127,59,58,97,61,478,1,478
2025-02-20 15:46:52.052,3684.0,-3755.0,1666.0,331.0,-512.0,-405.0,131,61,57,98,65,591,1,479
2025-02-20 15:46:52.072,3567.0,-4032.0,3072.0,460.0,7.0,-27.0,133,63,57,93,66,688,0,477
2025-02-20 15:46:52.089,1224.0,-990.0,2370.0,247.0,171.0,9.0,133,64,59,91,66,509,1,464
2025-02-20 15:46:52.108,392.0,-1481.0,1792.0,13.0,153.0,26.0,133,63,57,93,66,403,1,456
2025-02-20 15:46:52.129,278.0,-1910.0,1227.0,-7.0,167.0,126.0,133,62,58,96,66,373,1,455
2025-02-20 15:46:52.144,44.0,-1485.0,976.0,33.0,179.0,140.0,134,66,58,98,67,422,1,460
2025-02-20 15:46:52.166,-73.0,-1103.0,832.0,95.0,184.0,156.0,134,64,59,99,69,469,1,473
2025-02-20 15:46:52.183,-113.0,-924.0,666.0,118.0,203.0,201.0,132,65,61,99,70,473,2,458
2025-02-20 15:46:52.204,-96.0,-546.0,227.0,94.0,186.0,265.0,133,66,61,98,75,396,1,432
2025-02-20 15:46:52.224,-76.0,-718.0,313.0,112.0,120.0,313.0,133,66,66,96,73,381,0,435
2025-02-20 15:46:52.240,-273.0,-66.0,364.0,106.0,70.0,324.0,133,66,62,96,74,451,1,439
2025-02-20 15:46:52.261,-342.0,394.0,517.0,14.0,65.0,307.0,133,66,63,97,75,431,1,468
2025-02-20 15:46:52.281,-335.0,382.0,368.0,-54.0,45.0,263.0,134,65,62,98,75,495,1,466
2025-02-20 15:46:52.298,-476.0,401.0,271.0,-111.0,4.0,217.0,134,66,63,98,79,482,0,447
2025-02-20 15:46:52.318,-724.0,655.0,113.0,-107.0,-57.0,125.0,136,69,63,100,81,465,1,454
2025-02-20 15:46:52.338,-883.0,716.0,226.0,-22.0,-143.0,57.0,137,64,64,104,81,449,1,446
2025-02-20 15:46:52.349,-731.0,1822.0,654.0,-14.0,-178.0,-8.0,138,67,64,104,88,371,0,459
2025-02-20 15:46:52.375,-1023.0,2221.0,247.0,46.0,-198.0,-186.0,141,67,64,104,114,415,2,474
2025-02-20 15:46:52.396,-1105.0,2341.0,617.0,290.0,-164.0,-331.0,140,66,64,104,124,446,1,474
2025-02-20 15:46:52.412,-692.0,2461.0,338.0,393.0,-206.0,-477.0,141,66,65,106,128,466,1,467
2025-02-20 15:46:52.433,-32.0,1815.0,771.0,467.0,-260.0,-563.0,141,67,64,108,129,439,1,457
2025-02-20 15:46:52.449,1223.0,992.0,1250.0,488.0,-331.0,-638.0,142,67,66,111,130,479,1,456
2025-02-20 15:46:52.466,1752.0,-370.0,2106.0,444.0,-314.0,-501.0,144,67,67,115,130,466,1,453
2025-02-20 15:46:52.490,2381.0,-602.0,3254.0,192.0,-185.0,-171.0,144,68,68,115,131,446,2,450
2025-02-20 15:46:52.507,1873.0,-868.0,2904.0,-188.0,3.0,-22.0,145,69,68,116,131,429,1,441
2025-02-20 15:46:52.526,1555.0,-1679.0,1698.0,-163.0,131.0,44.0,145,66,64,113,131,383,1,432
2025-02-20 15:46:52.545,625.0,-1079.0,1047.0,15.0,135.0,73.0,145,66,63,112,132,321,1,443
2025-02-20 15:46:52.562,30.0,-186.0,1084.0,13.0,100.0,118.0,145,66,64,113,133,392,0,431
2025-02-20 15:46:52.580,-128.0,249.0,1265.0,-114.0,69.0,188.0,145,67,65,111,133,510,1,438
2025-02-20 15:46:52.604,-50.0,102.0,1173.0,-176.0,83.0,229.0,146,67,67,112,133,495,1,435
2025-02-20 15:46:52.621,75.0,67.0,993.0,-121.0,112.0,224.0,145,68,68,112,134,399,1,439
2025-02-20 15:46:52.642,-54.0,164.0,926.0,-59.0,127.0,206.0,145,69,69,113,134,468,1,442
2025-02-20 15:46:52.659,-111.0,369.0,837.0,-55.0,133.0,214.0,145,68,69,112,134,532,1,449
2025-02-20 15:46:52.679,-277.0,667.0,666.0,-106.0,117.0,217.0,145,68,71,110,134,481,1,445
2025-02-20 15:46:52.698,-377.0,560.0,577.0,-99.0,103.0,196.0,145,69,70,106,134,409,2,447
2025-02-20 15:46:52.714,-505.0,759.0,481.0,-53.0,78.0,156.0,144,69,70,105,135,405,1,449
2025-02-20 15:46:52.736,-595.0,888.0,416.0,-2.0,25.0,121.0,145,69,70,105,135,442,1,485
2025-02-20 15:46:52.755,-737.0,1497.0,508.0,16.0,-19.0,22.0,145,69,69,103,135,416,2,501
2025-02-20 15:46:52.773,-751.0,1648.0,602.0,30.0,-33.0,-93.0,145,70,69,101,135,471,1,504
2025-02-20 15:46:52.793,-793.0,1710.0,531.0,100.0,-28.0,-200.0,144,70,69,102,135,559,1,487
2025-02-20 15:46:52.813,-1092.0,2252.0,289.0,134.0,-44.0,-319.0,145,70,70,105,137,574,1,472
2025-02-20 15:46:52.830,-1185.0,2433.0,-21.0,53.0,-110.0,-444.0,145,71,71,107,136,564,1,468
2025-02-20 15:46:52.850,-159.0,437.0,269.0,132.0,-134.0,-465.0,144,70,70,109,136,525,0,471
2025-02-20 15:46:52.866,433.0,176.0,695.0,351.0,-150.0,-428.0,145,71,70,111,134,500,1,467
2025-02-20 15:46:52.888,865.0,455.0,1419.0,250.0,-237.0,-351.0,145,70,68,112,133,513,0,457
2025-02-20 15:46:52.907,1870.0,-1058.0,2012.0,21.0,-272.0,-152.0,145,69,68,113,131,484,1,448
2025-02-20 15:46:52.924,2182.0,-1732.0,2306.0,-72.0,-173.0,-1.0,145,70,68,113,132,449,1,442
2025-02-20 15:46:52.944,1932.0,-1621.0,2133.0,-11.0,-14.0,61.0,146,70,67,113,132,356,1,410
2025-02-20 15:46:52.965,1195.0,-905.0,1756.0,15.0,70.0,102.0,145,69,68,114,133,351,1,432
2025-02-20 15:46:52.980,451.0,-144.0,1471.0,-71.0,92.0,177.0,145,70,69,113,133,407,1,442
2025-02-20 15:46:53.002,91.0,156.0,1373.0,-194.0,70.0,244.0,145,70,68,113,133,383,1,439
2025-02-20 15:46:53.022,104.0,107.0,1452.0,-191.0,68.0,277.0,145,70,70,114,132,394,1,419
2025-02-20 15:46:53.039,109.0,202.0,1598.0,-177.0,129.0,273.0,146,71,71,113,132,417,0,421
2025-02-20 15:46:53.059,195.0,415.0,1803.0,-186.0,246.0,270.0,145,71,72,113,132,436,1,448
2025-02-20 15:46:53.079,276.0,735.0,1608.0,-276.0,400.0,281.0,146,71,73,111,132,465,1,471
2025-02-20 15:46:53.096,249.0,512.0,991.0,-318.0,470.0,299.0,145,71,73,102,127,409,1,474
2025-02-20 15:46:53.114,170.0,622.0,613.0,-340.0,455.0,342.0,145,69,71,96,121,459,0,478
2025-02-20 15:46:53.134,32.0,751.0,534.0,-345.0,423.0,330.0,144,70,71,99,115,524,1,493
2025-02-20 15:46:53.154,-414.0,957.0,116.0,-283.0,402.0,259.0,145,71,71,103,111,530,0,512
2025-02-20 15:46:53.174,-791.0,856.0,-166.0,-131.0,380.0,160.0,144,72,74,105,112,592,1,521
2025-02-20 15:46:53.191,-595.0,1091.0,-526.0,46.0,365.0,38.0,143,73,78,109,113,556,1,540
2025-02-20 15:46:53.211,-887.0,1540.0,-772.0,129.0,223.0,-115.0,140,77,82,113,115,545,1,519
2025-02-20 15:46:53.231,-944.0,1552.0,-1538.0,105.0,-20.0,-229.0,136,82,85,120,118,468,0,488
2025-02-20 15:46:53.248,-1006.0,1181.0,-1774.0,-19.0,-295.0,-393.0,129,90,86,117,124,426,2,464
2025-02-20 15:46:53.268,-1125.0,1410.0,-1447.0,-1.0,-368.0,-501.0,127,100,90,117,130,426,1,471
2025-02-20 15:46:53.288,44.0,1333.0,-880.0,-162.0,-399.0,-720.0,130,109,93,123,132,437,1,468
2025-02-20 15:46:53.306,1549.0,1058.0,-709.0,-248.0,-780.0,-901.0,131,113,97,128,133,490,1,466
2025-02-20 15:46:53.325,1667.0,-1645.0,652.0,-339.0,-834.0,-713.0,133,118,100,131,133,478,1,463
2025-02-20 15:46:53.345,3703.0,-2914.0,354.0,-279.0,-657.0,-302.0,133,121,104,132,133,495,0,459
2025-02-20 15:46:53.362,3688.0,-4352.0,712.0,-252.0,-231.0,38.0,134,122,105,133,134,472,1,460
2025-02-20 15:46:53.383,2551.0,-3747.0,271.0,-4.0,158.0,203.0,135,123,106,132,138,434,1,459
2025-02-20 15:46:53.400,450.0,-2111.0,89.0,58.0,147.0,267.0,136,124,108,133,135,483,0,455
2025-02-20 15:46:53.420,-79.0,-1092.0,588.0,101.0,122.0,240.0,137,123,104,133,134,543,1,454
2025-02-20 15:46:53.440,-205.0,-968.0,502.0,-70.0,43.0,188.0,137,122,104,134,135,515,0,456
2025-02-20 15:46:53.457,-812.0,-688.0,337.0,-157.0,51.0,196.0,136,123,105,133,134,450,1,463
2025-02-20 15:46:53.477,41.0,-1099.0,586.0,-18.0,88.0,235.0,134,122,105,134,135,424,1,459
2025-02-20 15:46:53.497,-228.0,-765.0,379.0,108.0,126.0,229.0,133,122,105,134,135,417,1,450
2025-02-20 15:46:53.515,-288.0,-329.0,520.0,-12.0,135.0,209.0,131,122,105,133,135,447,1,467
2025-02-20 15:46:53.534,-429.0,-205.0,328.0,-37.0,95.0,208.0,133,122,104,134,135,468,0,487
2025-02-20 15:46:53.550,-366.0,-336.0,229.0,-63.0,81.0,196.0,132,121,104,133,135,496,0,484
2025-02-20 15:46:53.572,-277.0,-349.0,124.0,-30.0,120.0,194.0,132,121,104,134,135,538,1,482
2025-02-20 15:46:53.591,-319.0,-215.0,278.0,32.0,163.0,202.0,131,121,105,134,135,553,1,478
2025-02-20 15:46:53.608,-459.0,169.0,235.0,116.0,147.0,210.0,130,121,104,134,135,546,1,468
2025-02-20 15:46:53.629,-339.0,211.0,199.0,84.0,166.0,188.0,132,120,105,134,136,493,0,466
2025-02-20 15:46:53.648,-926.0,177.0,-189.0,239.0,138.0,175.0,129,119,104,133,135,481,1,467
2025-02-20 15:46:53.666,-585.0,948.0,-311.0,304.0,120.0,147.0,130,119,104,133,136,371,0,452
2025-02-20 15:46:53.686,-1744.0,2319.0,-773.0,284.0,-46.0,-118.0,129,118,103,133,137,358,0,451
2025-02-20 15:46:53.707,-1513.0,2892.0,-1314.0,76.0,-295.0,-597.0,131,122,105,134,137,420,1,460
2025-02-20 15:46:53.723,71.0,1324.0,-603.0,-123.0,-536.0,-908.0,127,123,105,134,137,426,1,465
2025-02-20 15:46:53.744,1388.0,-531.0,112.0,-209.0,-698.0,-925.0,125,123,105,135,137,392,1,472
2025-02-20 15:46:53.764,4696.0,-2462.0,436.0,-56.0,-644.0,-561.0,127,125,104,134,135,448,1,493
2025-02-20 15:46:53.781,3772.0,-5035.0,732.0,33.0,-237.0,0.0,128,124,107,134,135,388,1,466
2025-02-20 15:46:53.801,2481.0,-3177.0,1001.0,137.0,168.0,189.0,132,125,105,135,135,410,1,458
2025-02-20 15:46:53.818,600.0,-1985.0,802.0,205.0,182.0,172.0,134,125,103,135,134,423,1,419
2025-02-20 15:46:53.838,-353.0,-1158.0,1051.0,189.0,176.0,173.0,133,123,102,134,134,370,1,424
2025-02-20 15:46:53.858,239.0,-1485.0,437.0,166.0,161.0,190.0,134,118,98,133,134,371,4,448
2025-02-20 15:46:53.871,29.0,-1680.0,234.0,196.0,175.0,240.0,133,108,90,130,133,541,1,474
2025-02-20 15:46:53.895,9.0,-1378.0,173.0,295.0,177.0,300.0,131,99,84,122,129,573,1,476
2025-02-20 15:46:53.915,146.0,-1045.0,-66.0,398.0,177.0,335.0,130,86,79,118,122,569,1,468
2025-02-20 15:46:53.933,-1033.0,-831.0,-315.0,565.0,80.0,282.0,129,69,66,116,117,401,0,481
2025-02-20 15:46:53.953,33.0,275.0,-10.0,281.0,81.0,320.0,129,62,63,110,114,395,1,473
2025-02-20 15:46:53.972,-229.0,212.0,-162.0,215.0,-2.0,286.0,130,62,64,105,111,489,1,426
2025-02-20 15:46:53.989,-271.0,461.0,174.0,132.0,-63.0,229.0,128,62,63,108,113,510,1,417
2025-02-20 15:46:54.010,-396.0,263.0,171.0,122.0,-109.0,205.0,126,61,62,106,120,485,1,452
2025-02-20 15:46:54.026,-263.0,675.0,383.0,123.0,-146.0,185.0,126,62,63,104,122,579,1,468
2025-02-20 15:46:54.047,-459.0,1608.0,604.0,77.0,-163.0,81.0,126,63,65,103,125,620,0,486
2025-02-20 15:46:54.067,-658.0,1888.0,944.0,82.0,-138.0,-94.0,128,63,67,105,129,544,1,490
2025-02-20 15:46:54.084,-792.0,2107.0,858.0,192.0,-105.0,-229.0,129,63,67,110,132,492,1,486
2025-02-20 15:46:54.103,-934.0,2532.0,699.0,219.0,-93.0,-381.0,129,65,68,113,135,399,1,479
2025-02-20 15:46:54.124,-761.0,2303.0,587.0,199.0,-104.0,-513.0,131,66,69,116,136,405,2,471
2025-02-20 15:46:54.142,118.0,1039.0,726.0,165.0,-142.0,-583.0,133,66,71,118,137,466,1,461
2025-02-20 15:46:54.161,809.0,-280.0,877.0,281.0,-205.0,-501.0,135,67,72,120,136,511,1,457
2025-02-20 15:46:54.181,1323.0,-695.0,1353.0,288.0,-294.0,-335.0,138,67,72,122,135,520,1,456
2025-02-20 15:46:54.199,1907.0,-1001.0,2350.0,171.0,-264.0,-150.0,140,68,75,123,134,515,1,453
2025-02-20 15:46:54.218,1929.0,-1308.0,2624.0,-22.0,-95.0,21.0,141,70,76,124,135,364,1,446
2025-02-20 15:46:54.239,1521.0,-1001.0,2188.0,-110.0,96.0,118.0,142,70,76,124,136,335,2,446
2025-02-20 15:46:54.252,881.0,-662.0,1534.0,-118.0,160.0,170.0,142,71,75,125,136,325,1,442
2025-02-20 15:46:54.276,235.0,-182.0,1074.0,-140.0,156.0,223.0,142,69,74,123,136,303,1,426
2025-02-20 15:46:54.293,-41.0,86.0,1168.0,-154.0,128.0,265.0,140,70,74,121,137,349,0,424
2025-02-20 15:46:54.313,-251.0,439.0,1107.0,-201.0,123.0,295.0,138,70,75,120,137,373,1,443
2025-02-20 15:46:54.333,-285.0,561.0,982.0,-243.0,107.0,268.0,136,71,76,116,137,447,1,463
2025-02-20 15:46:54.350,-248.0,227.0,996.0,-170.0,144.0,230.0,135,71,77,115,138,557,1,480
2025-02-20 15:46:54.370,-214.0,152.0,851.0,-78.0,173.0,220.0,135,70,76,113,138,578,1,494
2025-02-20 15:46:54.390,-313.0,463.0,568.0,-9.0,155.0,179.0,136,71,76,109,138,555,1,514
2025-02-20 15:46:54.405,-555.0,718.0,548.0,62.0,143.0,119.0,135,71,77,109,138,467,0,506
2025-02-20 15:46:54.427,-746.0,938.0,515.0,80.0,100.0,81.0,136,71,76,108,138,408,0,497
2025-02-20 15:46:54.444,-800.0,1378.0,340.0,31.0,53.0,39.0,136,70,76,107,138,427,1,486
2025-02-20 15:46:54.464,-856.0,1534.0,304.0,-3.0,17.0,-56.0,136,70,75,106,138,439,1,481
2025-02-20 15:46:54.485,-989.0,1934.0,176.0,-23.0,4.0,-159.0,136,71,77,106,139,470,1,477
2025-02-20 15:46:54.502,-1181.0,2195.0,88.0,10.0,-24.0,-316.0,136,71,77,107,139,465,0,472
2025-02-20 15:46:54.520,-1108.0,2159.0,-65.0,35.0,-111.0,-451.0,136,71,77,110,140,530,1,464
2025-02-20 15:46:54.542,-426.0,1186.0,56.0,58.0,-245.0,-528.0,136,68,74,113,139,537,1,455
2025-02-20 15:46:54.560,1084.0,-269.0,1040.0,132.0,-332.0,-466.0,136,69,74,118,138,533,1,478
2025-02-20 15:46:54.579,2101.0,-1340.0,2091.0,141.0,-268.0,-343.0,138,69,75,122,135,549,1,479
2025-02-20 15:46:54.599,2196.0,-2065.0,2504.0,82.0,-108.0,-166.0,139,71,76,123,130,496,0,475
2025-02-20 15:46:54.616,1963.0,-1916.0,2345.0,-55.0,6.0,-21.0,139,70,76,123,123,463,1,451
2025-02-20 15:46:54.636,1338.0,-1642.0,1717.0,-134.0,86.0,96.0,140,69,74,123,116,358,0,446
2025-02-20 15:46:54.657,557.0,-1150.0,1088.0,-154.0,85.0,148.0,139,68,73,122,110,372,1,444
2025-02-20 15:46:54.674,75.0,-518.0,1020.0,-189.0,31.0,184.0,139,69,72,121,104,398,0,458
2025-02-20 15:46:54.693,-136.0,-238.0,1349.0,-254.0,9.0,207.0,138,69,74,121,102,426,1,454
2025-02-20 15:46:54.708,-108.0,-298.0,1531.0,-300.0,44.0,237.0,138,70,75,122,101,466,0,452
2025-02-20 15:46:54.724,-122.0,-229.0,1426.0,-328.0,117.0,257.0,139,71,78,121,102,455,2,457
2025-02-20 15:46:54.751,112.0,-331.0,1485.0,-307.0,241.0,280.0,139,73,81,122,104,467,1,464
2025-02-20 15:46:54.768,162.0,-412.0,960.0,-217.0,345.0,319.0,138,74,82,120,104,502,1,465
2025-02-20 15:46:54.787,-48.0,-230.0,546.0,-74.0,387.0,336.0,139,77,83,117,104,525,1,473
2025-02-20 15:46:54.808,-270.0,156.0,219.0,-25.0,386.0,322.0,137,81,84,112,99,540,0,476
2025-02-20 15:46:54.823,-537.0,311.0,249.0,-13.0,352.0,306.0,139,87,85,110,92,518,0,513
2025-02-20 15:46:54.845,-536.0,677.0,-270.0,6.0,308.0,252.0,138,92,84,105,86,535,0,525
2025-02-20 15:46:54.865,-717.0,781.0,-113.0,46.0,223.0,164.0,137,96,85,100,79,514,2,514
2025-02-20 15:46:54.882,-760.0,989.0,-733.0,52.0,159.0,69.0,136,100,86,98,75,580,1,493
2025-02-20 15:46:54.901,-1038.0,1247.0,-1161.0,32.0,40.0,-63.0,135,101,85,94,70,555,0,473
2025-02-20 15:46:54.923,-1531.0,1730.0,-1541.0,27.0,-167.0,-255.0,135,100,87,90,64,473,2,448
2025-02-20 15:46:54.938,-1434.0,2254.0,-2038.0,18.0,-396.0,-517.0,136,111,89,86,62,445,1,449
2025-02-20 15:46:54.960,-136.0,1718.0,-1808.0,-5.0,-679.0,-678.0,136,118,92,86,61,438,1,452
2025-02-20 15:46:54.976,1733.0,845.0,-629.0,-92.0,-871.0,-753.0,135,126,97,90,62,496,1,459
2025-02-20 15:46:54.997,2577.0,-1707.0,734.0,-124.0,-939.0,-577.0,135,128,100,95,63,450,1,462
2025-02-20 15:46:55.017,3226.0,-2256.0,1556.0,-114.0,-748.0,-297.0,135,131,103,98,66,449,2,466
2025-02-20 15:46:55.034,3733.0,-3762.0,2250.0,-82.0,-258.0,65.0,136,131,105,98,68,487,1,464
2025-02-20 15:46:55.054,2286.0,-2672.0,1857.0,19.0,182.0,189.0,136,133,106,97,68,408,1,460
2025-02-20 15:46:55.074,628.0,-1586.0,1364.0,78.0,294.0,180.0,135,132,106,96,67,365,1,452
2025-02-20 15:46:55.091,312.0,-1417.0,901.0,57.0,241.0,181.0,135,133,110,96,68,432,1,460
2025-02-20 15:46:55.111,172.0,-1056.0,807.0,9.0,194.0,210.0,135,133,108,97,70,491,1,462
2025-02-20 15:46:55.128,-259.0,-790.0,693.0,-9.0,167.0,215.0,136,132,108,98,73,462,1,467
2025-02-20 15:46:55.149,-149.0,-431.0,657.0,1.0,194.0,199.0,136,133,109,96,74,531,1,455
2025-02-20 15:46:55.169,-157.0,-595.0,567.0,23.0,235.0,218.0,135,133,109,96,74,526,1,441
2025-02-20 15:46:55.186,-348.0,-329.0,235.0,64.0,233.0,223.0,136,132,110,95,75,465,0,446
2025-02-20 15:46:55.206,-458.0,221.0,245.0,22.0,203.0,211.0,134,133,109,96,74,435,1,463
2025-02-20 15:46:55.226,-386.0,295.0,230.0,-43.0,188.0,185.0,135,132,110,96,75,439,1,468
2025-02-20 15:46:55.243,-519.0,336.0,170.0,-69.0,206.0,172.0,135,132,111,97,76,458,1,459
2025-02-20 15:46:55.263,-1061.0,415.0,-369.0,-33.0,149.0,101.0,135,131,110,94,77,465,0,453
2025-02-20 15:46:55.282,-1155.0,830.0,-589.0,84.0,38.0,-50.0,135,132,110,94,76,479,1,484
2025-02-20 15:46:55.301,-1275.0,1561.0,-746.0,72.0,-73.0,-245.0,135,132,111,94,76,490,0,489
2025-02-20 15:46:55.321,-1095.0,1517.0,-724.0,24.0,-223.0,-380.0,134,132,112,94,77,515,2,485
2025-02-20 15:46:55.339,-806.0,1339.0,-480.0,29.0,-372.0,-521.0,132,133,112,94,76,463,1,480
2025-02-20 15:46:55.357,-67.0,687.0,-290.0,-85.0,-602.0,-577.0,129,132,111,95,75,391,2,479
2025-02-20 15:46:55.378,1383.0,-1167.0,-208.0,-135.0,-717.0,-426.0,127,132,112,94,75,321,0,485
2025-02-20 15:46:55.397,3415.0,-2858.0,469.0,-112.0,-606.0,-210.0,129,132,110,96,77,364,0,480
2025-02-20 15:46:55.415,3122.0,-3471.0,1094.0,112.0,-163.0,-31.0,129,132,111,97,79,446,2,478
2025-02-20 15:46:55.434,1955.0,-2441.0,1187.0,269.0,118.0,45.0,131,132,110,96,79,450,1,467
2025-02-20 15:46:55.452,559.0,-1613.0,1086.0,232.0,148.0,61.0,132,132,110,96,78,473,1,466
2025-02-20 15:46:55.471,465.0,-1504.0,1049.0,178.0,118.0,102.0,134,130,109,97,81,500,0,462
2025-02-20 15:46:55.492,511.0,-1618.0,911.0,139.0,153.0,153.0,135,129,109,98,84,554,1,462
2025-02-20 15:46:55.508,419.0,-1508.0,637.0,205.0,180.0,182.0,136,127,108,97,91,521,1,463
2025-02-20 15:46:55.529,139.0,-1053.0,490.0,256.0,186.0,217.0,136,124,104,97,97,490,0,457
2025-02-20 15:46:55.549,29.0,-654.0,429.0,249.0,166.0,227.0,137,119,101,97,101,525,1,452
2025-02-20 15:46:55.566,67.0,-365.0,478.0,192.0,150.0,254.0,137,113,94,97,102,566,0,433
2025-02-20 15:46:55.586,-142.0,-81.0,425.0,130.0,106.0,271.0,138,104,90,98,104,553,1,449
2025-02-20 15:46:55.603,-149.0,311.0,303.0,31.0,45.0,253.0,138,95,85,100,105,484,1,449
2025-02-20 15:46:55.624,-355.0,285.0,364.0,18.0,-12.0,227.0,138,87,77,102,109,476,1,432
2025-02-20 15:46:55.644,-384.0,546.0,321.0,-33.0,-74.0,193.0,138,85,72,103,116,414,1,442
2025-02-20 15:46:55.661,-499.0,565.0,565.0,-44.0,-108.0,141.0,138,82,71,102,120,362,0,452
2025-02-20 15:46:55.681,-385.0,815.0,683.0,-55.0,-147.0,95.0,140,81,70,104,121,374,1,466
2025-02-20 15:46:55.701,-377.0,1095.0,800.0,-36.0,-166.0,13.0,140,80,69,103,123,391,0,471
2025-02-20 15:46:55.718,-282.0,1213.0,1234.0,24.0,-121.0,-84.0,140,80,68,105,127,423,1,475
2025-02-20 15:46:55.738,-261.0,1149.0,1323.0,178.0,-11.0,-208.0,140,80,72,105,129,468,1,477
2025-02-20 15:46:55.759,-505.0,1446.0,1276.0,309.0,93.0,-337.0,141,80,73,104,135,503,1,480
2025-02-20 15:46:55.776,-551.0,1670.0,1178.0,319.0,159.0,-456.0,142,80,73,105,135,535,1,486
2025-02-20 15:46:55.795,-68.0,1059.0,992.0,330.0,194.0,-611.0,141,81,75,106,136,569,0,480
2025-02-20 15:46:55.809,496.0,186.0,1216.0,357.0,149.0,-641.0,147,81,76,105,136,550,1,473
2025-02-20 15:46:55.833,883.0,-738.0,1447.0,361.0,3.0,-428.0,142,80,74,104,135,542,0,487
2025-02-20 15:46:55.853,1014.0,-857.0,1825.0,181.0,-222.0,-203.0,143,81,75,105,135,590,1,477
2025-02-20 15:46:55.870,1668.0,-1467.0,2518.0,-98.0,-208.0,-18.0,143,82,76,108,135,487,1,455
2025-02-20 15:46:55.889,1433.0,-1752.0,2303.0,-166.0,-19.0,134.0,143,83,77,109,136,411,0,454
2025-02-20 15:46:55.906,709.0,-975.0,1586.0,-179.0,69.0,182.0,144,83,77,105,136,355,2,460
2025-02-20 15:46:55.927,45.0,-378.0,1097.0,-152.0,50.0,225.0,143,83,78,104,137,267,0,449
2025-02-20 15:46:55.945,-306.0,6.0,1227.0,-149.0,13.0,241.0,144,84,77,102,137,262,0,436
2025-02-20 15:46:55.967,-367.0,294.0,1337.0,-164.0,25.0,246.0,143,84,78,101,137,357,1,431
2025-02-20 15:46:55.985,-339.0,298.0,1232.0,-184.0,54.0,246.0,144,85,78,101,137,417,1,437
2025-02-20 15:46:56.005,-316.0,184.0,1005.0,-154.0,66.0,220.0,143,85,80,100,136,500,1,465
2025-02-20 15:46:56.022,-342.0,248.0,807.0,-95.0,75.0,158.0,143,84,80,98,136,556,0,482
2025-02-20 15:46:56.041,-509.0,361.0,723.0,-11.0,70.0,119.0,143,85,80,97,136,578,1,477
2025-02-20 15:46:56.059,-562.0,558.0,559.0,23.0,49.0,109.0,143,84,79,97,137,593,2,485
2025-02-20 15:46:56.078,-699.0,962.0,518.0,15.0,9.0,71.0,143,83,80,96,136,412,1,488
2025-02-20 15:46:56.099,-882.0,1387.0,484.0,5.0,-22.0,-36.0,143,84,79,96,137,396,0,483
2025-02-20 15:46:56.119,-890.0,1404.0,519.0,62.0,-29.0,-163.0,143,81,75,97,136,434,1,478
