timestamp,ax,ay,az,gx,gy,gz,flex1,flex2,flex3,flex4,flex5,emg1,emg2,emg3
2025-02-20 16:24:20.448,-288.0,-198.0,983.0,6.0,5.0,-3.0,127,104,98,130,116,470,475,462
2025-02-20 16:24:20.449,-295.0,-201.0,978.0,6.0,5.0,-3.0,130,103,98,131,115,468,474,461
2025-02-20 16:24:20.452,-295.0,-196.0,979.0,4.0,3.0,-3.0,129,104,98,131,115,465,470,461
2025-02-20 16:24:20.456,-294.0,-191.0,984.0,1.0,2.0,-4.0,127,104,98,131,115,464,465,462
2025-02-20 16:24:20.458,-284.0,-201.0,993.0,-1.0,4.0,-4.0,128,104,99,131,115,465,460,463
2025-02-20 16:24:20.461,-289.0,-204.0,992.0,-2.0,5.0,-4.0,131,103,98,131,116,463,454,463
2025-02-20 16:24:20.478,-293.0,-197.0,964.0,-3.0,7.0,-3.0,128,104,99,131,115,463,451,465
2025-02-20 16:24:20.483,-291.0,-214.0,951.0,0.0,8.0,-3.0,129,103,98,132,115,460,448,466
2025-02-20 16:24:20.514,-291.0,-228.0,933.0,7.0,9.0,-1.0,129,103,99,131,115,459,447,466
2025-02-20 16:24:20.526,-294.0,-213.0,938.0,12.0,8.0,0.0,128,103,99,131,115,460,444,467
2025-02-20 16:24:20.550,-302.0,-180.0,927.0,9.0,7.0,0.0,130,103,98,130,115,461,444,466
2025-02-20 16:24:20.572,-314.0,-183.0,918.0,2.0,3.0,-1.0,129,103,99,131,115,463,447,466
2025-02-20 16:24:20.587,-324.0,-200.0,913.0,-3.0,0.0,-1.0,128,103,98,131,115,463,453,465
2025-02-20 16:24:20.608,-308.0,-209.0,928.0,0.0,1.0,-1.0,128,104,99,131,115,469,458,465
2025-02-20 16:24:20.629,-315.0,-198.0,926.0,3.0,2.0,-1.0,129,104,99,131,115,470,465,464
2025-02-20 16:24:20.649,-319.0,-191.0,914.0,2.0,-1.0,-1.0,129,103,98,131,115,468,472,461
2025-02-20 16:24:20.666,-317.0,-187.0,925.0,0.0,-4.0,-1.0,129,104,99,131,116,468,476,461
2025-02-20 16:24:20.683,-307.0,-199.0,957.0,2.0,-3.0,-2.0,130,104,99,130,115,469,478,462
2025-02-20 16:24:20.706,-305.0,-198.0,964.0,4.0,-2.0,-2.0,127,103,99,131,115,469,480,460
2025-02-20 16:24:20.722,-305.0,-189.0,961.0,6.0,-2.0,-3.0,128,104,99,131,115,471,480,461
2025-02-20 16:24:20.744,-300.0,-190.0,975.0,3.0,-2.0,-2.0,129,103,99,130,115,470,480,461
2025-02-20 16:24:20.761,-296.0,-189.0,988.0,0.0,-2.0,-2.0,129,104,99,131,116,470,479,462
2025-02-20 16:24:20.781,-292.0,-189.0,988.0,-2.0,0.0,-2.0,128,103,98,130,115,473,474,463
2025-02-20 16:24:20.801,-293.0,-196.0,976.0,-1.0,1.0,-2.0,129,103,99,131,115,472,469,463
2025-02-20 16:24:20.810,-299.0,-200.0,966.0,0.0,0.0,-1.0,129,104,98,131,114,469,464,464
2025-02-20 16:24:20.834,-296.0,-191.0,969.0,0.0,0.0,-1.0,128,103,99,131,115,466,460,465
2025-02-20 16:24:20.858,-299.0,-181.0,978.0,0.0,0.0,-2.0,129,103,99,130,116,464,453,467
2025-02-20 16:24:20.874,-305.0,-186.0,965.0,-1.0,1.0,-2.0,129,104,99,131,115,462,449,468
2025-02-20 16:24:20.894,-313.0,-186.0,962.0,0.0,0.0,-2.0,129,103,99,131,115,462,447,468
2025-02-20 16:24:20.916,-307.0,-183.0,964.0,1.0,-1.0,-1.0,130,103,99,131,116,461,447,468
2025-02-20 16:24:20.921,-309.0,-177.0,970.0,1.0,-2.0,-1.0,129,103,98,134,116,462,448,469
2025-02-20 16:24:20.953,-309.0,-170.0,977.0,2.0,-2.0,-2.0,128,103,98,131,115,463,452,467
2025-02-20 16:24:20.966,-304.0,-174.0,987.0,2.0,0.0,-3.0,129,104,99,131,115,465,457,467
2025-02-20 16:24:20.989,-308.0,-174.0,975.0,2.0,1.0,-3.0,128,103,98,131,115,466,462,466
2025-02-20 16:24:21.009,-314.0,-170.0,961.0,-1.0,1.0,-2.0,129,103,98,129,117,468,467,466
2025-02-20 16:24:21.027,-308.0,-176.0,955.0,-1.0,-2.0,-2.0,129,104,98,132,116,467,472,465
2025-02-20 16:24:21.044,-304.0,-174.0,969.0,0.0,-1.0,-3.0,128,103,98,132,115,465,477,464
2025-02-20 16:24:21.067,-307.0,-183.0,968.0,0.0,1.0,-3.0,129,104,98,133,115,466,480,463
2025-02-20 16:24:21.084,-317.0,-181.0,959.0,2.0,0.0,-3.0,128,102,99,131,115,466,480,462
2025-02-20 16:24:21.104,-312.0,-173.0,960.0,3.0,-1.0,-2.0,129,104,99,131,115,468,480,463
2025-02-20 16:24:21.124,-304.0,-171.0,971.0,1.0,0.0,-3.0,128,104,99,132,115,468,475,463
2025-02-20 16:24:21.140,-307.0,-179.0,969.0,0.0,0.0,-3.0,128,103,98,131,115,468,471,463
2025-02-20 16:24:21.150,-307.0,-182.0,957.0,0.0,0.0,-3.0,130,103,99,131,116,468,466,464
2025-02-20 16:24:21.177,-307.0,-188.0,958.0,-1.0,0.0,-2.0,127,103,98,131,115,466,461,464
2025-02-20 16:24:21.198,-310.0,-189.0,958.0,-1.0,0.0,-2.0,131,104,98,131,116,466,457,465
2025-02-20 16:24:21.219,-305.0,-186.0,958.0,1.0,0.0,-2.0,128,103,97,131,115,463,452,466
2025-02-20 16:24:21.236,-309.0,-188.0,964.0,1.0,0.0,-1.0,129,103,99,131,115,464,449,468
2025-02-20 16:24:21.256,-301.0,-192.0,955.0,0.0,0.0,-1.0,129,103,98,130,115,462,447,469
2025-02-20 16:24:21.276,-302.0,-192.0,959.0,1.0,0.0,-1.0,127,103,99,131,114,463,446,469
2025-02-20 16:24:21.293,-306.0,-185.0,957.0,1.0,0.0,0.0,129,104,98,131,115,463,446,469
2025-02-20 16:24:21.310,-308.0,-177.0,958.0,-1.0,0.0,0.0,128,103,98,132,115,464,448,469
2025-02-20 16:24:21.333,-308.0,-182.0,957.0,-1.0,-1.0,-1.0,128,103,99,131,115,465,452,470
2025-02-20 16:24:21.350,-308.0,-182.0,957.0,1.0,-1.0,0.0,129,104,98,131,115,466,457,468
2025-02-20 16:24:21.370,-313.0,-166.0,967.0,2.0,-1.0,0.0,129,104,98,132,115,465,464,467
2025-02-20 16:24:21.391,-312.0,-164.0,968.0,0.0,-1.0,-1.0,130,103,97,131,116,465,471,466
2025-02-20 16:24:21.407,-309.0,-171.0,958.0,-2.0,-1.0,-1.0,128,103,98,131,115,466,476,464
2025-02-20 16:24:21.426,-308.0,-179.0,955.0,-1.0,-1.0,-1.0,129,104,98,131,116,468,479,464
2025-02-20 16:24:21.444,-310.0,-183.0,958.0,1.0,-1.0,-1.0,130,104,99,131,115,469,482,462
2025-02-20 16:24:21.465,-313.0,-176.0,962.0,1.0,-2.0,-1.0,128,103,99,132,115,469,482,462
2025-02-20 16:24:21.485,-307.0,-169.0,968.0,0.0,-2.0,-1.0,128,104,99,131,115,468,482,462
2025-02-20 16:24:21.502,-304.0,-179.0,964.0,-1.0,-2.0,-1.0,128,104,98,131,115,468,480,462
2025-02-20 16:24:21.522,-306.0,-183.0,952.0,-1.0,-2.0,-1.0,129,104,99,131,115,467,474,463
2025-02-20 16:24:21.542,-304.0,-175.0,958.0,0.0,-3.0,0.0,129,103,99,131,115,466,470,463
2025-02-20 16:24:21.559,-303.0,-175.0,969.0,1.0,-1.0,0.0,128,103,99,131,115,464,465,464
2025-02-20 16:24:21.579,-310.0,-165.0,966.0,2.0,-1.0,0.0,129,103,98,131,115,464,460,464
2025-02-20 16:24:21.599,-314.0,-158.0,964.0,2.0,-1.0,-1.0,129,103,99,132,116,463,456,466
2025-02-20 16:24:21.613,-306.0,-159.0,969.0,2.0,-1.0,-1.0,129,103,98,132,116,464,450,466
2025-02-20 16:24:21.636,-309.0,-158.0,963.0,0.0,-1.0,-1.0,129,103,98,131,115,464,446,467
2025-02-20 16:24:21.654,-305.0,-158.0,968.0,-2.0,-1.0,-1.0,128,104,99,133,115,465,447,467
2025-02-20 16:24:21.673,-306.0,-171.0,974.0,-2.0,-1.0,-2.0,129,103,99,131,115,464,447,468
2025-02-20 16:24:21.694,-308.0,-173.0,975.0,-1.0,-1.0,-1.0,130,103,99,131,115,465,450,467
2025-02-20 16:24:21.710,-306.0,-163.0,972.0,-2.0,-1.0,-1.0,128,104,98,131,114,466,454,467
2025-02-20 16:24:21.731,-306.0,-170.0,977.0,-2.0,-1.0,-1.0,128,103,99,131,115,464,458,467
2025-02-20 16:24:21.751,-301.0,-172.0,979.0,-1.0,1.0,-1.0,127,104,98,132,116,466,464,466
2025-02-20 16:24:21.767,-304.0,-167.0,973.0,-1.0,1.0,-1.0,128,103,99,131,116,466,469,466
2025-02-20 16:24:21.788,-306.0,-162.0,964.0,-2.0,0.0,-1.0,128,104,100,132,116,468,473,464
2025-02-20 16:24:21.808,-308.0,-168.0,959.0,-3.0,0.0,-1.0,128,103,99,131,114,467,474,463
2025-02-20 16:24:21.825,-306.0,-174.0,965.0,-2.0,-1.0,-1.0,129,104,99,132,115,468,476,462
2025-02-20 16:24:21.845,-306.0,-167.0,974.0,-1.0,-1.0,-1.0,128,103,98,131,116,466,475,461
2025-02-20 16:24:21.862,-306.0,-171.0,970.0,0.0,1.0,-2.0,128,105,98,130,119,465,475,462
2025-02-20 16:24:21.882,-310.0,-171.0,958.0,0.0,1.0,-2.0,129,103,99,131,116,464,474,460
2025-02-20 16:24:21.902,-308.0,-167.0,957.0,-1.0,0.0,-1.0,128,104,98,130,115,462,469,461
2025-02-20 16:24:21.920,-308.0,-160.0,956.0,0.0,0.0,-2.0,127,103,99,132,115,462,461,462
2025-02-20 16:24:21.940,-310.0,-162.0,961.0,-2.0,-1.0,-2.0,129,103,99,130,116,461,454,463
2025-02-20 16:24:21.960,-315.0,-177.0,960.0,0.0,1.0,-3.0,128,104,98,133,115,459,451,463
2025-02-20 16:24:21.977,-314.0,-174.0,958.0,3.0,0.0,-2.0,129,103,98,131,115,458,449,463
2025-02-20 16:24:21.997,-309.0,-163.0,963.0,2.0,-1.0,-2.0,128,102,98,131,115,457,446,465
2025-02-20 16:24:22.017,-310.0,-164.0,967.0,-1.0,-1.0,-2.0,128,103,98,131,115,455,443,465
2025-02-20 16:24:22.034,-304.0,-177.0,961.0,-1.0,-1.0,-3.0,129,103,99,131,115,455,440,465
2025-02-20 16:24:22.054,-302.0,-178.0,960.0,1.0,0.0,-2.0,129,104,99,131,115,455,440,462
2025-02-20 16:24:22.071,-311.0,-173.0,959.0,1.0,0.0,-2.0,129,104,98,131,115,453,444,464
2025-02-20 16:24:22.091,-314.0,-167.0,962.0,-1.0,-1.0,-2.0,128,104,99,132,115,453,451,463
2025-02-20 16:24:22.111,-309.0,-173.0,958.0,-2.0,-2.0,-2.0,129,103,98,132,114,452,456,462
2025-02-20 16:24:22.129,-307.0,-178.0,963.0,-1.0,-1.0,-1.0,128,103,99,131,115,455,460,462
2025-02-20 16:24:22.147,-305.0,-177.0,965.0,0.0,-1.0,-1.0,129,103,99,132,115,454,462,461
2025-02-20 16:24:22.169,-308.0,-171.0,969.0,0.0,0.0,-1.0,129,104,99,130,115,455,467,460
2025-02-20 16:24:22.186,-313.0,-164.0,970.0,-1.0,0.0,-1.0,130,104,99,132,116,455,471,459
2025-02-20 16:24:22.205,-318.0,-172.0,965.0,-2.0,-1.0,-1.0,128,103,99,131,115,456,474,458
2025-02-20 16:24:22.226,-313.0,-179.0,962.0,-3.0,0.0,-1.0,128,103,99,131,116,457,472,458
2025-02-20 16:24:22.243,-311.0,-176.0,963.0,0.0,0.0,-1.0,130,103,100,130,115,458,468,458
2025-02-20 16:24:22.261,-313.0,-172.0,968.0,0.0,0.0,0.0,128,104,98,132,114,456,467,457
2025-02-20 16:24:22.284,-320.0,-166.0,972.0,-1.0,0.0,0.0,125,103,98,132,115,455,463,457
2025-02-20 16:24:22.300,-318.0,-172.0,974.0,-3.0,0.0,0.0,128,103,99,130,115,454,459,459
2025-02-20 16:24:22.321,-311.0,-173.0,967.0,-1.0,1.0,-1.0,129,103,99,131,116,455,453,461
2025-02-20 16:24:22.338,-316.0,-168.0,972.0,2.0,2.0,0.0,129,103,99,132,115,454,447,460
2025-02-20 16:24:22.358,-317.0,-159.0,966.0,-1.0,1.0,0.0,128,103,99,131,115,454,442,462
2025-02-20 16:24:22.376,-319.0,-158.0,965.0,-2.0,1.0,-1.0,128,102,98,132,115,453,440,463
2025-02-20 16:24:22.394,-311.0,-163.0,960.0,-2.0,1.0,-1.0,128,103,98,131,115,454,439,464
2025-02-20 16:24:22.415,-310.0,-165.0,953.0,0.0,2.0,-1.0,128,104,98,131,115,454,441,464
2025-02-20 16:24:22.435,-315.0,-159.0,937.0,-1.0,1.0,-1.0,129,103,98,132,115,455,443,464
2025-02-20 16:24:22.452,-315.0,-167.0,943.0,0.0,-2.0,-2.0,127,102,98,132,115,456,447,462
2025-02-20 16:24:22.472,-313.0,-161.0,963.0,0.0,-3.0,-1.0,128,103,98,132,115,457,452,462
2025-02-20 16:24:22.492,-309.0,-161.0,970.0,0.0,-2.0,-2.0,128,104,99,131,115,459,457,461
2025-02-20 16:24:22.510,-309.0,-167.0,967.0,0.0,0.0,-2.0,127,104,99,132,114,460,462,460
2025-02-20 16:24:22.529,-314.0,-165.0,956.0,0.0,-1.0,-1.0,128,101,98,132,115,461,467,460
2025-02-20 16:24:22.547,-313.0,-170.0,958.0,0.0,-2.0,-1.0,128,104,99,132,116,463,470,460
2025-02-20 16:24:22.565,-311.0,-158.0,963.0,-1.0,-2.0,-1.0,129,103,99,133,115,463,474,459
2025-02-20 16:24:22.586,-311.0,-169.0,968.0,0.0,-1.0,-2.0,129,104,99,131,116,463,475,460
2025-02-20 16:24:22.602,-315.0,-165.0,963.0,2.0,-1.0,-1.0,127,103,98,131,114,464,478,460
2025-02-20 16:24:22.624,-318.0,-160.0,965.0,1.0,-2.0,-1.0,128,104,97,131,115,462,479,461
2025-02-20 16:24:22.644,-315.0,-161.0,974.0,-1.0,-3.0,-1.0,128,104,98,132,115,462,476,461
2025-02-20 16:24:22.661,-317.0,-163.0,975.0,0.0,-2.0,-1.0,129,104,99,131,115,462,471,463
2025-02-20 16:24:22.680,-317.0,-156.0,988.0,0.0,-1.0,-1.0,128,103,98,132,115,461,464,464
2025-02-20 16:24:22.701,-316.0,-158.0,979.0,-1.0,1.0,-2.0,128,104,98,132,115,460,461,464
2025-02-20 16:24:22.717,-315.0,-167.0,967.0,-2.0,1.0,-2.0,128,104,99,131,115,458,458,466
2025-02-20 16:24:22.739,-315.0,-173.0,961.0,-1.0,0.0,-2.0,127,103,99,131,115,458,456,467
2025-02-20 16:24:22.755,-316.0,-173.0,962.0,0.0,0.0,-1.0,128,103,98,130,115,459,453,469
2025-02-20 16:24:22.776,-314.0,-166.0,974.0,0.0,0.0,-1.0,128,104,98,132,115,459,451,470
2025-02-20 16:24:22.796,-316.0,-167.0,972.0,-1.0,1.0,-1.0,128,104,99,131,115,459,452,468
2025-02-20 16:24:22.813,-313.0,-166.0,973.0,-1.0,2.0,-2.0,128,103,98,132,115,460,453,470
2025-02-20 16:24:22.832,-307.0,-161.0,951.0,0.0,1.0,-1.0,128,104,99,132,115,461,455,470
2025-02-20 16:24:22.849,-318.0,-164.0,952.0,-1.0,1.0,-1.0,129,103,97,132,116,463,458,469
2025-02-20 16:24:22.870,-316.0,-162.0,955.0,-2.0,-1.0,-1.0,129,103,98,132,115,463,460,468
2025-02-20 16:24:22.890,-311.0,-163.0,960.0,-1.0,-1.0,-1.0,128,102,98,132,116,463,463,468
2025-02-20 16:24:22.910,-312.0,-157.0,959.0,0.0,0.0,-1.0,128,103,99,132,115,464,468,467
2025-02-20 16:24:22.927,-310.0,-163.0,953.0,0.0,0.0,-2.0,129,103,99,131,115,465,472,465
2025-02-20 16:24:22.948,-318.0,-165.0,949.0,0.0,-1.0,-2.0,129,103,99,131,114,466,475,465
2025-02-20 16:24:22.968,-319.0,-167.0,958.0,1.0,-2.0,-1.0,129,103,99,131,115,467,474,463
2025-02-20 16:24:22.983,-312.0,-161.0,968.0,1.0,-3.0,-1.0,129,102,98,132,115,467,473,463
2025-02-20 16:24:22.999,-319.0,-158.0,978.0,0.0,-1.0,-1.0,128,103,98,131,116,466,470,463
2025-02-20 16:24:23.021,-318.0,-166.0,965.0,-1.0,0.0,-1.0,128,103,100,132,115,464,470,464
2025-02-20 16:24:23.042,-320.0,-168.0,966.0,-1.0,-1.0,-2.0,129,103,99,131,115,464,468,464
2025-02-20 16:24:23.062,-317.0,-164.0,968.0,-1.0,-1.0,-1.0,128,103,98,131,117,465,464,465
2025-02-20 16:24:23.079,-320.0,-161.0,966.0,-1.0,-1.0,-1.0,130,104,99,131,115,465,460,465
2025-02-20 16:24:23.098,-319.0,-164.0,971.0,-2.0,-2.0,-1.0,128,103,98,131,115,465,457,465
2025-02-20 16:24:23.119,-315.0,-167.0,974.0,-2.0,-2.0,-1.0,129,104,98,131,115,465,455,468
2025-02-20 16:24:23.134,-306.0,-167.0,975.0,0.0,-1.0,-1.0,129,103,99,132,112,465,454,467
2025-02-20 16:24:23.156,-312.0,-161.0,971.0,-1.0,1.0,-1.0,128,104,98,132,115,466,454,468
2025-02-20 16:24:23.177,-321.0,-164.0,963.0,-2.0,0.0,-1.0,128,104,99,132,115,465,455,469
2025-02-20 16:24:23.194,-319.0,-158.0,967.0,-2.0,0.0,-1.0,128,103,100,131,114,465,455,468
2025-02-20 16:24:23.213,-315.0,-155.0,959.0,-2.0,0.0,-1.0,129,103,99,133,114,467,458,469
2025-02-20 16:24:23.231,-311.0,-166.0,958.0,-1.0,0.0,-1.0,129,103,99,132,115,470,462,469
2025-02-20 16:24:23.250,-312.0,-170.0,950.0,0.0,-1.0,-1.0,128,103,98,132,115,471,468,468
2025-02-20 16:24:23.270,-317.0,-165.0,967.0,0.0,-1.0,-1.0,128,103,98,136,114,472,473,468
2025-02-20 16:24:23.286,-320.0,-160.0,970.0,-1.0,-1.0,-1.0,129,104,99,132,116,472,476,469
2025-02-20 16:24:23.308,-314.0,-159.0,972.0,-3.0,-1.0,-1.0,129,104,99,132,115,467,477,468
2025-02-20 16:24:23.328,-319.0,-165.0,967.0,-3.0,-1.0,-1.0,128,102,99,132,115,469,477,468
2025-02-20 16:24:23.345,-308.0,-161.0,977.0,0.0,0.0,-1.0,128,103,97,131,115,474,477,467
2025-02-20 16:24:23.365,-316.0,-170.0,961.0,-1.0,0.0,-1.0,128,103,100,132,115,474,475,467
2025-02-20 16:24:23.383,-319.0,-164.0,957.0,-2.0,-1.0,-2.0,129,103,99,132,115,473,474,467
2025-02-20 16:24:23.402,-317.0,-177.0,966.0,-1.0,-1.0,-1.0,128,103,99,131,115,470,471,468
2025-02-20 16:24:23.422,-313.0,-177.0,976.0,-2.0,0.0,-1.0,130,103,98,131,115,469,468,468
2025-02-20 16:24:23.438,-321.0,-165.0,961.0,-1.0,0.0,0.0,129,104,100,131,115,467,465,469
2025-02-20 16:24:23.459,-324.0,-167.0,974.0,-2.0,1.0,-1.0,128,103,98,132,115,465,462,470
2025-02-20 16:24:23.479,-326.0,-162.0,976.0,-4.0,1.0,-1.0,128,103,99,132,115,467,458,471
2025-02-20 16:24:23.497,-321.0,-158.0,965.0,-6.0,0.0,0.0,128,103,99,131,114,469,454,471
2025-02-20 16:24:23.516,-322.0,-162.0,965.0,-7.0,-1.0,-1.0,128,103,99,132,115,469,451,473
2025-02-20 16:24:23.534,-320.0,-179.0,953.0,-4.0,0.0,-1.0,127,103,99,132,115,468,451,472
2025-02-20 16:24:23.552,-317.0,-182.0,964.0,1.0,0.0,0.0,128,106,99,132,115,468,455,472
2025-02-20 16:24:23.574,-312.0,-161.0,963.0,1.0,0.0,-1.0,128,104,98,131,115,468,459,472
2025-02-20 16:24:23.594,-309.0,-152.0,965.0,-3.0,0.0,-1.0,128,104,99,132,115,467,461,471
2025-02-20 16:24:23.611,-316.0,-166.0,960.0,-5.0,0.0,-2.0,128,104,99,132,115,465,463,470
2025-02-20 16:24:23.631,-313.0,-183.0,943.0,-4.0,0.0,-1.0,128,104,99,132,115,464,469,468
2025-02-20 16:24:23.651,-308.0,-191.0,944.0,-3.0,0.0,0.0,129,103,99,132,115,466,473,467
2025-02-20 16:24:23.668,-308.0,-181.0,958.0,-3.0,0.0,0.0,129,104,98,132,115,468,479,466
2025-02-20 16:24:23.688,-319.0,-177.0,958.0,-3.0,1.0,0.0,129,102,99,132,114,468,479,465
2025-02-20 16:24:23.704,-318.0,-168.0,952.0,-3.0,1.0,0.0,129,103,99,132,115,472,477,466
2025-02-20 16:24:23.726,-321.0,-163.0,947.0,-6.0,0.0,0.0,128,102,98,131,115,473,476,464
2025-02-20 16:24:23.746,-325.0,-173.0,934.0,-6.0,-1.0,0.0,130,103,98,131,115,473,476,465
2025-02-20 16:24:23.762,-319.0,-186.0,939.0,-5.0,-1.0,0.0,128,103,98,131,115,470,476,464
2025-02-20 16:24:23.783,-352.0,-172.0,898.0,-5.0,-1.0,0.0,129,104,98,132,115,467,475,466
2025-02-20 16:24:23.803,-327.0,-166.0,975.0,0.0,-3.0,0.0,129,104,99,131,115,465,470,467
2025-02-20 16:24:23.819,-317.0,-161.0,971.0,-1.0,-3.0,-1.0,128,103,98,132,115,465,464,467
2025-02-20 16:24:23.837,-323.0,-170.0,982.0,-2.0,-3.0,-1.0,129,103,99,131,115,468,461,468
2025-02-20 16:24:23.861,-321.0,-176.0,983.0,-2.0,-1.0,-2.0,128,103,98,131,115,473,462,469
2025-02-20 16:24:23.878,-316.0,-180.0,979.0,-2.0,-2.0,-1.0,129,103,99,131,115,476,463,469
2025-02-20 16:24:23.896,-322.0,-185.0,942.0,-2.0,-1.0,-1.0,128,103,99,132,114,475,463,470
2025-02-20 16:24:23.914,-321.0,-191.0,967.0,-3.0,-1.0,-1.0,129,104,98,131,115,473,462,471
2025-02-20 16:24:23.934,-322.0,-191.0,958.0,0.0,0.0,0.0,129,103,99,131,115,471,461,471
2025-02-20 16:24:23.953,-320.0,-179.0,951.0,1.0,0.0,1.0,129,104,99,132,115,467,459,470
2025-02-20 16:24:23.971,-328.0,-190.0,949.0,2.0,0.0,0.0,128,103,99,131,115,468,463,471
2025-02-20 16:24:23.992,-332.0,-187.0,946.0,3.0,-1.0,1.0,129,103,99,132,115,468,468,466
2025-02-20 16:24:24.012,-324.0,-160.0,953.0,1.0,-1.0,0.0,129,104,98,132,115,472,473,470
2025-02-20 16:24:24.029,-319.0,-171.0,943.0,-2.0,-1.0,-1.0,129,102,99,132,114,475,474,469
2025-02-20 16:24:24.049,-324.0,-188.0,940.0,-2.0,-3.0,0.0,129,103,98,132,115,475,476,468
2025-02-20 16:24:24.068,-321.0,-187.0,954.0,-1.0,-4.0,0.0,129,103,99,131,115,476,477,468
2025-02-20 16:24:24.086,-321.0,-181.0,958.0,-1.0,-3.0,0.0,128,104,99,132,115,473,479,467
2025-02-20 16:24:24.104,-325.0,-186.0,962.0,-1.0,-3.0,0.0,129,103,99,132,115,469,479,466
2025-02-20 16:24:24.123,-319.0,-176.0,976.0,0.0,-2.0,1.0,129,102,98,132,115,467,477,466
2025-02-20 16:24:24.144,-316.0,-159.0,990.0,-1.0,-1.0,-1.0,129,103,99,132,115,465,474,465
2025-02-20 16:24:24.164,-309.0,-159.0,975.0,-5.0,0.0,-1.0,128,103,99,132,114,465,469,465
2025-02-20 16:24:24.181,-319.0,-179.0,948.0,-7.0,0.0,-1.0,128,103,99,131,114,465,466,465
2025-02-20 16:24:24.201,-321.0,-178.0,939.0,-5.0,-2.0,0.0,129,104,99,132,115,466,463,467
2025-02-20 16:24:24.219,-310.0,-179.0,957.0,-3.0,-2.0,0.0,128,104,99,131,114,467,462,467
2025-02-20 16:24:24.237,-318.0,-162.0,944.0,-1.0,-1.0,0.0,129,104,99,133,114,467,460,469
2025-02-20 16:24:24.257,-313.0,-180.0,953.0,3.0,-1.0,-1.0,128,103,98,131,115,465,456,469
2025-02-20 16:24:24.278,-320.0,-168.0,954.0,5.0,-1.0,0.0,128,103,97,132,116,464,454,469
2025-02-20 16:24:24.295,-318.0,-159.0,954.0,2.0,-1.0,-1.0,129,104,100,132,114,464,455,469
2025-02-20 16:24:24.315,-325.0,-170.0,947.0,2.0,-3.0,-1.0,128,103,99,131,112,464,457,469
2025-02-20 16:24:24.332,-325.0,-188.0,954.0,3.0,-3.0,0.0,129,104,99,132,113,464,462,468
2025-02-20 16:24:24.353,-318.0,-182.0,960.0,5.0,-3.0,1.0,129,103,98,132,114,467,465,468
2025-02-20 16:24:24.373,-318.0,-168.0,974.0,7.0,-2.0,1.0,128,103,98,133,115,468,470,467
2025-02-20 16:24:24.389,-307.0,-149.0,996.0,6.0,-2.0,0.0,129,103,99,132,117,469,473,466
2025-02-20 16:24:24.410,-306.0,-145.0,986.0,3.0,0.0,-1.0,128,104,99,132,114,469,477,464
2025-02-20 16:24:24.430,-320.0,-162.0,964.0,-3.0,0.0,-2.0,129,104,99,131,115,469,481,464
2025-02-20 16:24:24.447,-325.0,-181.0,947.0,-3.0,-1.0,-1.0,128,103,99,131,114,468,483,463
2025-02-20 16:24:24.467,-319.0,-186.0,949.0,2.0,-2.0,0.0,129,104,99,132,115,468,483,463
2025-02-20 16:24:24.487,-320.0,-160.0,972.0,4.0,-2.0,1.0,128,103,95,131,116,467,480,463
2025-02-20 16:24:24.504,-320.0,-164.0,987.0,0.0,-1.0,0.0,129,103,99,132,115,467,476,463
2025-02-20 16:24:24.524,-324.0,-169.0,969.0,-1.0,-1.0,-1.0,132,104,99,131,115,466,471,463
2025-02-20 16:24:24.544,-324.0,-182.0,964.0,1.0,-1.0,1.0,128,104,97,132,115,465,467,464
2025-02-20 16:24:24.562,-319.0,-160.0,974.0,1.0,-1.0,1.0,128,104,96,131,115,463,466,464
2025-02-20 16:24:24.582,-311.0,-144.0,981.0,-1.0,-1.0,0.0,129,103,98,132,115,462,462,464
2025-02-20 16:24:24.599,-310.0,-167.0,981.0,-2.0,1.0,0.0,129,104,100,131,115,462,457,465
2025-02-20 16:24:24.617,-329.0,-177.0,969.0,1.0,0.0,1.0,128,103,99,131,115,459,452,464
2025-02-20 16:24:24.639,-320.0,-161.0,982.0,2.0,0.0,1.0,127,103,99,131,115,461,449,466
2025-02-20 16:24:24.656,-313.0,-150.0,997.0,-1.0,1.0,0.0,129,103,98,132,114,460,450,465
2025-02-20 16:24:24.676,-312.0,-143.0,996.0,-2.0,3.0,-1.0,129,104,98,132,115,462,454,466
2025-02-20 16:24:24.696,-320.0,-163.0,974.0,-4.0,3.0,-2.0,129,103,99,132,114,463,457,465
2025-02-20 16:24:24.713,-319.0,-174.0,959.0,-4.0,3.0,0.0,129,104,98,132,115,465,458,465
2025-02-20 16:24:24.734,-322.0,-155.0,952.0,-4.0,1.0,0.0,129,103,99,132,115,467,461,464
2025-02-20 16:24:24.753,-321.0,-153.0,955.0,-5.0,1.0,-1.0,129,103,99,132,115,468,463,464
2025-02-20 16:24:24.770,-322.0,-146.0,967.0,-4.0,3.0,-2.0,129,104,99,132,115,468,465,463
2025-02-20 16:24:24.790,-312.0,-136.0,951.0,-5.0,4.0,-2.0,129,103,98,132,115,467,466,462
2025-02-20 16:24:24.807,-313.0,-137.0,933.0,-8.0,4.0,-4.0,128,103,99,133,115,470,470,464
2025-02-20 16:24:24.828,-311.0,-154.0,899.0,-10.0,2.0,-5.0,125,104,98,132,115,469,472,462
2025-02-20 16:24:24.848,-310.0,-144.0,875.0,-10.0,1.0,-4.0,128,103,98,132,116,469,472,462
2025-02-20 16:24:24.865,-337.0,-119.0,839.0,-13.0,-1.0,-5.0,128,103,99,132,115,466,472,462
2025-02-20 16:24:24.885,-404.0,-20.0,763.0,-13.0,-7.0,-5.0,130,103,99,131,115,463,472,462
2025-02-20 16:24:24.905,-443.0,-21.0,622.0,-8.0,-24.0,-11.0,129,103,99,132,116,460,470,464
2025-02-20 16:24:24.922,-481.0,-96.0,664.0,10.0,-51.0,-17.0,129,103,98,132,115,460,468,464
2025-02-20 16:24:24.940,-408.0,-212.0,869.0,42.0,-92.0,-29.0,129,102,98,132,115,466,466,467
2025-02-20 16:24:24.962,-313.0,-250.0,1203.0,61.0,-122.0,-31.0,129,100,95,132,116,475,463,467
2025-02-20 16:24:24.980,-126.0,-335.0,1580.0,51.0,-141.0,-6.0,129,99,92,131,115,473,458,463
2025-02-20 16:24:24.999,150.0,-358.0,2212.0,-15.0,-51.0,34.0,129,99,91,131,115,453,457,463
2025-02-20 16:24:25.018,303.0,-287.0,2077.0,-93.0,69.0,68.0,129,97,89,131,110,446,455,464
2025-02-20 16:24:25.037,211.0,-377.0,1924.0,-165.0,152.0,79.0,130,92,84,130,103,452,461,462
2025-02-20 16:24:25.057,138.0,-536.0,1687.0,-208.0,212.0,96.0,130,84,75,124,93,463,469,460
2025-02-20 16:24:25.074,-4.0,-623.0,1423.0,-210.0,263.0,127.0,130,77,68,110,82,443,469,461
2025-02-20 16:24:25.094,-66.0,-513.0,1256.0,-209.0,296.0,159.0,130,70,63,98,71,402,461,464
2025-02-20 16:24:25.114,-145.0,-385.0,1020.0,-227.0,315.0,185.0,131,64,59,85,63,360,460,457
2025-02-20 16:24:25.131,-237.0,-375.0,854.0,-211.0,329.0,195.0,131,61,55,76,59,353,461,446
2025-02-20 16:24:25.151,-114.0,-200.0,564.0,-153.0,358.0,197.0,127,59,53,72,58,394,474,451
2025-02-20 16:24:25.171,-403.0,8.0,334.0,-110.0,363.0,145.0,124,57,51,68,52,427,490,475
2025-02-20 16:24:25.188,-545.0,383.0,60.0,-106.0,314.0,87.0,118,56,49,65,54,445,494,503
2025-02-20 16:24:25.207,-623.0,635.0,-162.0,-132.0,254.0,29.0,112,55,48,62,52,487,491,517
2025-02-20 16:24:25.229,-782.0,566.0,-267.0,-83.0,185.0,-21.0,109,54,48,60,52,526,483,502
2025-02-20 16:24:25.245,-364.0,885.0,-361.0,-43.0,154.0,-49.0,107,54,47,59,50,553,472,479
2025-02-20 16:24:25.265,-609.0,1065.0,-688.0,44.0,88.0,-100.0,104,54,47,59,50,597,461,464
2025-02-20 16:24:25.282,-690.0,1465.0,-1188.0,86.0,-13.0,-170.0,99,54,48,59,49,573,450,461
2025-02-20 16:24:25.303,-702.0,1875.0,-1683.0,110.0,-122.0,-331.0,97,53,47,59,49,513,432,459
2025-02-20 16:24:25.322,-830.0,1833.0,-2383.0,167.0,-306.0,-532.0,94,52,47,59,48,482,427,447
2025-02-20 16:24:25.340,-533.0,1097.0,-2547.0,206.0,-669.0,-693.0,92,51,47,62,47,422,422,440
2025-02-20 16:24:25.360,1881.0,1325.0,-2284.0,168.0,-1034.0,-762.0,94,51,46,64,52,471,412,455
2025-02-20 16:24:25.380,5990.0,-2057.0,244.0,109.0,-1134.0,-506.0,97,52,47,65,54,495,337,472
2025-02-20 16:24:25.397,6050.0,-5720.0,5059.0,451.0,-211.0,-51.0,101,54,49,65,56,502,387,474
2025-02-20 16:24:25.417,3080.0,-2239.0,3353.0,436.0,357.0,-36.0,102,54,49,64,51,383,533,464
2025-02-20 16:24:25.435,787.0,-891.0,2205.0,176.0,351.0,33.0,103,55,50,66,53,366,601,440
2025-02-20 16:24:25.454,215.0,-350.0,1306.0,-232.0,260.0,96.0,105,55,51,68,54,417,575,429
2025-02-20 16:24:25.474,91.0,-1233.0,850.0,-346.0,175.0,113.0,104,56,52,64,56,401,528,406
2025-02-20 16:24:25.495,-138.0,-1501.0,687.0,-259.0,129.0,156.0,104,56,52,67,57,463,438,440
2025-02-20 16:24:25.512,392.0,-1236.0,895.0,-151.0,160.0,200.0,104,57,53,69,58,370,367,503
2025-02-20 16:24:25.531,41.0,-953.0,666.0,-127.0,248.0,236.0,106,57,53,68,60,637,492,511
2025-02-20 16:24:25.548,-76.0,-388.0,403.0,-173.0,254.0,241.0,108,57,53,67,59,621,548,483
2025-02-20 16:24:25.569,-670.0,-291.0,86.0,-187.0,141.0,226.0,109,58,53,67,59,491,495,472
2025-02-20 16:24:25.588,-412.0,-339.0,299.0,-178.0,114.0,211.0,110,58,53,68,59,402,438,461
2025-02-20 16:24:25.606,76.0,-467.0,507.0,-140.0,172.0,228.0,111,59,54,69,61,417,456,460
2025-02-20 16:24:25.627,-276.0,-392.0,135.0,-26.0,205.0,214.0,108,59,54,69,62,370,430,459
2025-02-20 16:24:25.647,-471.0,-153.0,-147.0,60.0,191.0,180.0,113,59,55,71,63,428,440,460
2025-02-20 16:24:25.664,-640.0,291.0,-223.0,72.0,124.0,163.0,116,61,56,72,65,434,427,457
2025-02-20 16:24:25.684,-598.0,686.0,-348.0,48.0,63.0,126.0,117,61,58,72,66,501,472,465
2025-02-20 16:24:25.699,-852.0,859.0,-543.0,69.0,-4.0,60.0,119,61,57,72,66,557,497,460
2025-02-20 16:24:25.721,-954.0,1260.0,-982.0,155.0,-54.0,-27.0,116,61,57,73,66,452,479,443
2025-02-20 16:24:25.740,-1310.0,1851.0,-1140.0,200.0,-152.0,-282.0,116,62,58,72,66,414,391,438
2025-02-20 16:24:25.757,-1145.0,1906.0,-1121.0,179.0,-379.0,-556.0,115,62,58,72,64,410,355,449
2025-02-20 16:24:25.777,29.0,1148.0,-1149.0,105.0,-670.0,-774.0,116,60,56,72,64,377,345,458
2025-02-20 16:24:25.798,3232.0,-213.0,-687.0,-50.0,-1034.0,-699.0,118,58,55,74,69,389,341,483
2025-02-20 16:24:25.813,4576.0,-4509.0,2823.0,36.0,-778.0,-302.0,123,61,56,79,73,447,356,479
2025-02-20 16:24:25.835,4147.0,-4592.0,3385.0,120.0,30.0,168.0,125,63,57,78,72,436,365,469
2025-02-20 16:24:25.855,1577.0,-1362.0,2046.0,67.0,243.0,110.0,127,63,57,77,64,509,498,449
2025-02-20 16:24:25.872,449.0,-932.0,1009.0,-88.0,219.0,123.0,129,63,56,78,61,411,535,431
2025-02-20 16:24:25.892,128.0,-1357.0,450.0,-217.0,165.0,183.0,127,62,57,78,65,418,613,434
2025-02-20 16:24:25.911,57.0,-1380.0,377.0,-241.0,103.0,245.0,128,62,57,76,68,343,643,409
2025-02-20 16:24:25.930,-38.0,-1340.0,279.0,-234.0,64.0,302.0,129,59,56,77,72,561,626,458
2025-02-20 16:24:25.950,127.0,-1023.0,278.0,-202.0,51.0,329.0,130,56,57,79,73,480,581,500
2025-02-20 16:24:25.966,-159.0,-704.0,338.0,-187.0,37.0,313.0,134,57,58,76,72,500,537,507
2025-02-20 16:24:25.987,-248.0,-644.0,396.0,-187.0,31.0,309.0,137,58,57,72,71,445,566,492
2025-02-20 16:24:26.006,-272.0,-493.0,365.0,-168.0,38.0,296.0,140,59,58,68,68,437,506,472
2025-02-20 16:24:26.024,-339.0,-404.0,314.0,-75.0,80.0,252.0,142,59,55,71,66,514,423,478
2025-02-20 16:24:26.044,-393.0,-153.0,189.0,23.0,113.0,175.0,143,59,57,70,65,471,432,480
2025-02-20 16:24:26.064,-336.0,-25.0,219.0,81.0,133.0,142.0,145,59,57,70,64,532,433,469
2025-02-20 16:24:26.081,-658.0,337.0,81.0,93.0,108.0,116.0,145,58,57,68,64,555,490,465
2025-02-20 16:24:26.101,-764.0,801.0,-36.0,175.0,57.0,31.0,144,57,56,66,64,569,531,454
2025-02-20 16:24:26.122,-899.0,1600.0,-226.0,249.0,50.0,-85.0,145,55,56,66,61,620,521,460
2025-02-20 16:24:26.138,-1166.0,2367.0,-796.0,223.0,-5.0,-312.0,144,54,54,67,58,605,481,461
2025-02-20 16:24:26.158,-1254.0,2472.0,-1259.0,73.0,-204.0,-568.0,145,53,53,68,56,526,409,459
2025-02-20 16:24:26.179,-296.0,2508.0,-1994.0,-178.0,-482.0,-829.0,145,51,50,70,57,462,373,458
2025-02-20 16:24:26.196,2941.0,434.0,-2372.0,-435.0,-855.0,-786.0,145,51,49,71,61,276,371,468
2025-02-20 16:24:26.216,4768.0,-3998.0,-78.0,-294.0,-728.0,-450.0,146,53,49,75,64,354,300,478
2025-02-20 16:24:26.231,4712.0,-6099.0,2031.0,184.0,35.0,-216.0,146,52,49,76,65,435,308,465
2025-02-20 16:24:26.253,1870.0,-4120.0,13.0,541.0,354.0,-159.0,146,54,48,70,59,475,420,455
2025-02-20 16:24:26.273,587.0,-1107.0,-761.0,248.0,246.0,23.0,147,53,49,69,54,468,489,452
2025-02-20 16:24:26.290,38.0,-1069.0,-323.0,-69.0,-31.0,104.0,146,54,49,69,56,444,491,444
2025-02-20 16:24:26.310,651.0,-1620.0,829.0,-118.0,-64.0,125.0,147,55,50,72,62,467,437,448
2025-02-20 16:24:26.329,1032.0,-1869.0,1143.0,-34.0,72.0,143.0,146,53,51,75,65,582,318,458
2025-02-20 16:24:26.347,779.0,-1658.0,709.0,51.0,218.0,171.0,146,52,52,76,66,674,440,479
2025-02-20 16:24:26.368,371.0,-1160.0,214.0,41.0,231.0,249.0,146,53,52,76,66,594,572,494
2025-02-20 16:24:26.385,-24.0,-333.0,31.0,-16.0,131.0,228.0,147,53,53,74,66,621,591,489
2025-02-20 16:24:26.405,9.0,-461.0,311.0,-43.0,88.0,169.0,146,53,52,72,64,425,541,477
2025-02-20 16:24:26.424,68.0,-634.0,465.0,-118.0,132.0,213.0,146,54,52,69,61,381,462,483
2025-02-20 16:24:26.442,-40.0,-709.0,270.0,-136.0,141.0,248.0,146,54,52,71,60,441,389,476
2025-02-20 16:24:26.462,-237.0,-591.0,160.0,-78.0,106.0,243.0,145,55,53,69,62,535,277,469
2025-02-20 16:24:26.482,-46.0,-568.0,295.0,13.0,127.0,237.0,145,55,53,70,61,536,418,474
2025-02-20 16:24:26.499,-41.0,-570.0,376.0,97.0,158.0,224.0,145,55,55,76,61,524,482,469
2025-02-20 16:24:26.519,-124.0,-407.0,255.0,129.0,206.0,241.0,145,56,55,70,63,458,523,452
2025-02-20 16:24:26.538,-622.0,-93.0,-93.0,164.0,164.0,241.0,143,57,54,69,62,461,564,444
2025-02-20 16:24:26.556,-798.0,412.0,-232.0,188.0,73.0,208.0,143,56,55,69,62,467,530,449
2025-02-20 16:24:26.576,-874.0,1252.0,-171.0,267.0,23.0,84.0,144,55,53,69,62,435,463,455
2025-02-20 16:24:26.593,-963.0,2174.0,-392.0,288.0,31.0,-173.0,144,56,54,70,63,428,433,450
2025-02-20 16:24:26.613,-1734.0,2354.0,-1143.0,175.0,-144.0,-427.0,143,55,53,73,61,388,441,452
2025-02-20 16:24:26.631,-1115.0,1937.0,-1838.0,26.0,-399.0,-733.0,142,54,50,70,60,406,455,467
2025-02-20 16:24:26.650,1015.0,2078.0,-2257.0,-275.0,-875.0,-861.0,142,52,49,75,63,444,450,475
2025-02-20 16:24:26.671,5013.0,-2546.0,-1506.0,-486.0,-1092.0,-524.0,143,54,49,76,66,408,406,478
2025-02-20 16:24:26.691,5636.0,-6081.0,2153.0,-320.0,-431.0,-89.0,144,55,49,76,68,413,365,469
2025-02-20 16:24:26.708,3817.0,-5432.0,961.0,205.0,220.0,-50.0,144,54,50,73,62,477,479,473
2025-02-20 16:24:26.728,919.0,-2128.0,-493.0,279.0,334.0,55.0,145,54,50,66,55,486,527,452
2025-02-20 16:24:26.738,143.0,-1167.0,-784.0,-19.0,79.0,158.0,144,57,49,69,54,438,561,415
2025-02-20 16:24:26.765,498.0,-1544.0,208.0,-116.0,-13.0,177.0,144,55,51,70,58,286,537,428
2025-02-20 16:24:26.785,693.0,-2080.0,911.0,-34.0,86.0,221.0,144,57,54,75,64,394,463,467
2025-02-20 16:24:26.806,662.0,-1742.0,675.0,51.0,212.0,288.0,144,56,55,75,69,513,472,491
2025-02-20 16:24:26.822,697.0,-1060.0,546.0,80.0,301.0,315.0,144,58,57,77,70,480,545,492
2025-02-20 16:24:26.843,324.0,-841.0,357.0,47.0,275.0,357.0,143,55,58,77,72,583,586,493
2025-02-20 16:24:26.860,323.0,-662.0,570.0,-29.0,283.0,366.0,144,62,60,77,74,532,587,488
2025-02-20 16:24:26.879,162.0,-409.0,-57.0,-40.0,330.0,382.0,144,66,62,82,78,469,467,477
2025-02-20 16:24:26.900,53.0,280.0,227.0,-139.0,335.0,380.0,142,69,66,91,83,515,392,486
2025-02-20 16:24:26.915,-284.0,-39.0,4.0,-44.0,223.0,392.0,142,73,71,98,92,557,417,486
2025-02-20 16:24:26.937,-299.0,338.0,-132.0,165.0,226.0,316.0,140,78,77,108,102,441,499,487
2025-02-20 16:24:26.957,-644.0,252.0,-98.0,325.0,185.0,270.0,138,83,80,111,109,390,491,480
2025-02-20 16:24:26.974,-645.0,573.0,-790.0,411.0,121.0,225.0,136,88,83,114,111,490,445,466
2025-02-20 16:24:26.994,-980.0,1502.0,-1322.0,291.0,-18.0,66.0,137,93,84,116,111,598,443,451
2025-02-20 16:24:27.014,-1238.0,1574.0,-1367.0,126.0,-190.0,-138.0,136,96,87,118,116,565,442,439
2025-02-20 16:24:27.029,-1035.0,1604.0,-1553.0,93.0,-372.0,-451.0,134,98,90,119,120,435,428,448
2025-02-20 16:24:27.052,-881.0,1359.0,-1471.0,20.0,-489.0,-674.0,133,101,91,123,125,418,426,456
2025-02-20 16:24:27.071,734.0,1727.0,-611.0,-13.0,-684.0,-758.0,133,107,94,126,127,497,447,477
2025-02-20 16:24:27.090,2972.0,-18.0,173.0,-175.0,-984.0,-673.0,132,114,97,129,129,466,383,486
2025-02-20 16:24:27.109,3349.0,-2372.0,-242.0,-367.0,-1050.0,-370.0,131,119,101,131,130,421,367,491
2025-02-20 16:24:27.128,3161.0,-5186.0,346.0,-283.0,-653.0,23.0,133,121,104,132,131,473,393,485
2025-02-20 16:24:27.146,3327.0,-4491.0,608.0,183.0,-98.0,58.0,135,123,105,133,131,416,409,462
2025-02-20 16:24:27.163,1722.0,-1575.0,998.0,105.0,40.0,34.0,137,120,104,134,131,438,482,449
2025-02-20 16:24:27.182,252.0,-1326.0,393.0,78.0,293.0,132.0,138,117,103,133,132,443,535,443
2025-02-20 16:24:27.199,116.0,-669.0,698.0,6.0,166.0,240.0,137,115,103,133,131,409,553,448
2025-02-20 16:24:27.223,13.0,-530.0,727.0,86.0,182.0,251.0,138,114,103,134,131,398,495,452
2025-02-20 16:24:27.240,92.0,-1273.0,150.0,-4.0,165.0,169.0,138,117,103,134,132,452,453,447
2025-02-20 16:24:27.261,78.0,-1406.0,672.0,50.0,249.0,120.0,138,121,104,134,133,445,469,474
2025-02-20 16:24:27.280,270.0,-1302.0,366.0,-22.0,453.0,132.0,138,121,103,134,133,445,519,480
2025-02-20 16:24:27.297,164.0,-784.0,523.0,9.0,215.0,238.0,138,123,104,134,133,502,515,481
2025-02-20 16:24:27.318,-21.0,-677.0,296.0,-118.0,227.0,251.0,139,123,104,134,133,481,464,469
2025-02-20 16:24:27.338,10.0,-605.0,89.0,-141.0,117.0,263.0,138,123,104,134,133,477,437,444
2025-02-20 16:24:27.355,-161.0,-469.0,64.0,-46.0,145.0,265.0,138,121,104,134,132,476,441,460
2025-02-20 16:24:27.375,-366.0,-136.0,15.0,-33.0,183.0,257.0,137,116,103,134,133,479,433,474
2025-02-20 16:24:27.392,-480.0,-236.0,229.0,54.0,103.0,241.0,138,111,103,133,132,496,427,473
2025-02-20 16:24:27.412,-467.0,-181.0,146.0,182.0,106.0,206.0,137,109,103,134,132,479,426,474
2025-02-20 16:24:27.432,-512.0,57.0,25.0,322.0,95.0,159.0,136,108,102,133,131,613,430,490
2025-02-20 16:24:27.450,-779.0,647.0,-190.0,394.0,43.0,91.0,134,110,102,134,131,571,466,480
2025-02-20 16:24:27.470,-1206.0,1181.0,-613.0,353.0,-38.0,-31.0,136,110,102,133,131,467,489,463
2025-02-20 16:24:27.490,-1351.0,1442.0,-728.0,335.0,-139.0,-260.0,135,112,103,132,132,468,504,457
2025-02-20 16:24:27.507,-1415.0,1274.0,-1082.0,190.0,-305.0,-523.0,134,114,103,132,133,534,523,463
2025-02-20 16:24:27.527,-64.0,1110.0,-611.0,79.0,-481.0,-711.0,129,117,103,132,133,395,503,478
2025-02-20 16:24:27.547,1592.0,725.0,-164.0,-237.0,-953.0,-698.0,126,120,104,135,133,425,426,493
2025-02-20 16:24:27.564,3632.0,-1163.0,235.0,-504.0,-1002.0,-435.0,129,123,104,135,133,422,313,482
2025-02-20 16:24:27.583,3395.0,-4151.0,-554.0,-427.0,-705.0,-66.0,129,123,106,135,133,395,345,457
2025-02-20 16:24:27.604,3295.0,-5206.0,449.0,-5.0,-301.0,182.0,129,126,107,135,132,438,473,444
2025-02-20 16:24:27.621,2117.0,-2399.0,478.0,165.0,83.0,94.0,133,122,107,135,133,416,570,433
2025-02-20 16:24:27.641,608.0,-1232.0,335.0,238.0,284.0,50.0,134,118,105,135,132,404,588,424
2025-02-20 16:24:27.658,-114.0,-902.0,325.0,41.0,199.0,163.0,135,115,105,134,130,403,538,436
2025-02-20 16:24:27.678,5.0,-776.0,500.0,-19.0,162.0,207.0,136,114,104,135,130,415,540,440
2025-02-20 16:24:27.699,160.0,-807.0,523.0,74.0,208.0,172.0,135,116,104,136,130,246,493,412
2025-02-20 16:24:27.715,396.0,-1269.0,191.0,-13.0,231.0,140.0,134,120,104,136,131,454,397,475
2025-02-20 16:24:27.735,613.0,-1208.0,708.0,32.0,301.0,150.0,134,120,104,135,131,368,495,460
2025-02-20 16:24:27.755,120.0,-1470.0,292.0,12.0,231.0,245.0,133,120,103,134,131,438,568,470
2025-02-20 16:24:27.773,174.0,-811.0,276.0,39.0,246.0,289.0,133,121,103,133,130,459,499,460
2025-02-20 16:24:27.792,-39.0,-659.0,215.0,-125.0,237.0,322.0,134,118,101,132,127,412,410,456
2025-02-20 16:24:27.810,27.0,-594.0,36.0,-117.0,184.0,343.0,135,114,98,131,123,479,360,469
2025-02-20 16:24:27.830,-172.0,-244.0,-66.0,-73.0,206.0,354.0,136,106,93,128,117,472,479,480
2025-02-20 16:24:27.841,-434.0,-124.0,-81.0,49.0,142.0,351.0,137,90,87,127,108,524,498,484
2025-02-20 16:24:27.868,-595.0,94.0,98.0,169.0,135.0,304.0,137,76,81,123,99,495,493,470
2025-02-20 16:24:27.888,-747.0,430.0,-150.0,323.0,188.0,179.0,137,67,70,106,86,529,497,477
2025-02-20 16:24:27.907,-941.0,1501.0,-303.0,388.0,170.0,27.0,136,63,63,90,69,530,488,481
2025-02-20 16:24:27.924,-1447.0,2652.0,-1130.0,268.0,-26.0,-309.0,136,55,57,77,62,504,475,478
2025-02-20 16:24:27.945,-1347.0,1956.0,-1917.0,126.0,-340.0,-539.0,134,52,54,73,56,435,443,463
2025-02-20 16:24:27.964,-176.0,1407.0,-1778.0,-24.0,-532.0,-680.0,134,49,49,69,52,435,424,471
2025-02-20 16:24:27.981,887.0,531.0,-1749.0,-145.0,-919.0,-654.0,138,49,46,67,54,490,424,472
2025-02-20 16:24:28.002,3950.0,-981.0,-47.0,-291.0,-963.0,-437.0,144,50,48,69,56,547,382,473
2025-02-20 16:24:28.021,4510.0,-4210.0,2206.0,-353.0,-387.0,-156.0,145,51,49,73,56,502,358,464
2025-02-20 16:24:28.039,3210.0,-4520.0,1634.0,53.0,110.0,-63.0,145,50,47,66,54,488,345,458
2025-02-20 16:24:28.058,1189.0,-2570.0,-232.0,210.0,251.0,34.0,145,50,47,66,50,496,478,439
2025-02-20 16:24:28.075,206.0,-1340.0,-617.0,34.0,112.0,107.0,146,52,48,69,49,430,551,427
2025-02-20 16:24:28.096,274.0,-1486.0,87.0,-71.0,13.0,117.0,146,51,49,69,52,323,580,417
2025-02-20 16:24:28.116,475.0,-1888.0,569.0,-25.0,38.0,137.0,146,53,51,72,57,330,537,421
2025-02-20 16:24:28.133,606.0,-1847.0,744.0,50.0,99.0,160.0,147,53,52,74,60,376,455,455
2025-02-20 16:24:28.153,337.0,-1487.0,530.0,23.0,153.0,240.0,147,53,53,74,60,477,397,482
2025-02-20 16:24:28.174,130.0,-984.0,310.0,-5.0,99.0,251.0,146,53,53,75,61,403,470,480
2025-02-20 16:24:28.190,83.0,-743.0,353.0,-35.0,80.0,239.0,146,54,52,72,59,403,506,468
2025-02-20 16:24:28.210,-31.0,-694.0,372.0,-80.0,103.0,255.0,148,54,53,70,59,461,506,497
2025-02-20 16:24:28.228,-14.0,-597.0,503.0,-92.0,126.0,246.0,146,53,53,72,58,404,471,504
2025-02-20 16:24:28.248,-138.0,-538.0,354.0,-63.0,163.0,233.0,148,55,54,73,57,420,440,488
2025-02-20 16:24:28.268,-233.0,-214.0,346.0,10.0,156.0,219.0,148,56,55,74,57,435,424,485
2025-02-20 16:24:28.285,-323.0,-193.0,275.0,57.0,189.0,169.0,147,54,54,73,59,532,428,473
2025-02-20 16:24:28.305,-436.0,-142.0,196.0,95.0,181.0,164.0,146,56,56,72,59,561,456,473
2025-02-20 16:24:28.325,-677.0,86.0,107.0,120.0,153.0,154.0,147,56,56,72,59,608,468,478
2025-02-20 16:24:28.338,-846.0,903.0,2.0,187.0,127.0,50.0,146,55,56,73,60,637,472,477
2025-02-20 16:24:28.362,-944.0,1595.0,-365.0,187.0,87.0,-96.0,147,55,57,73,60,585,536,474
2025-02-20 16:24:28.382,-1427.0,1961.0,-871.0,162.0,-48.0,-300.0,141,56,56,72,60,534,558,471
2025-02-20 16:24:28.399,-1353.0,1836.0,-1427.0,93.0,-235.0,-540.0,141,55,57,73,59,556,540,473
2025-02-20 16:24:28.419,-5.0,1555.0,-1560.0,-51.0,-515.0,-713.0,140,56,56,75,60,437,509,465
2025-02-20 16:24:28.435,2235.0,-91.0,-1180.0,-303.0,-809.0,-601.0,146,56,58,78,62,309,453,464
2025-02-20 16:24:28.455,3736.0,-3074.0,24.0,-406.0,-686.0,-324.0,146,57,57,81,64,268,397,463
2025-02-20 16:24:28.477,4033.0,-4790.0,1431.0,-269.0,-192.0,-159.0,146,57,57,82,64,232,354,462
2025-02-20 16:24:28.492,2537.0,-4511.0,111.0,140.0,144.0,-16.0,146,56,55,79,61,400,396,458
2025-02-20 16:24:28.514,166.0,-1608.0,-1172.0,150.0,174.0,76.0,147,54,55,76,55,431,445,442
2025-02-20 16:24:28.534,-85.0,-817.0,-706.0,-90.0,-31.0,109.0,148,54,56,78,55,407,499,411
2025-02-20 16:24:28.551,276.0,-1775.0,-116.0,-55.0,-72.0,73.0,147,56,57,79,57,440,545,428
2025-02-20 16:24:28.571,629.0,-1897.0,373.0,50.0,-11.0,89.0,148,57,56,81,62,486,516,450
2025-02-20 16:24:28.591,519.0,-1542.0,385.0,78.0,55.0,116.0,147,57,57,81,63,508,440,467
2025-02-20 16:24:28.608,293.0,-1108.0,331.0,25.0,80.0,130.0,147,58,57,82,63,518,448,463
2025-02-20 16:24:28.628,179.0,-1169.0,182.0,-22.0,63.0,160.0,147,57,58,80,64,416,486,483
2025-02-20 16:24:28.648,115.0,-1188.0,267.0,-52.0,52.0,211.0,147,58,59,79,64,440,457,490
2025-02-20 16:24:28.665,327.0,-1165.0,363.0,-48.0,88.0,240.0,147,59,59,79,62,501,444,489
2025-02-20 16:24:28.686,288.0,-839.0,194.0,-13.0,149.0,275.0,147,60,61,79,59,494,453,479
2025-02-20 16:24:28.702,-162.0,-464.0,61.0,-53.0,149.0,275.0,147,61,63,82,58,598,462,484
2025-02-20 16:24:28.723,89.0,-355.0,197.0,-12.0,138.0,263.0,147,62,63,85,59,599,461,474
2025-02-20 16:24:28.743,247.0,-547.0,281.0,51.0,213.0,281.0,147,62,65,87,58,554,442,471
2025-02-20 16:24:28.757,94.0,-413.0,42.0,184.0,278.0,311.0,145,64,67,87,60,519,428,468
2025-02-20 16:24:28.774,-388.0,-178.0,-238.0,280.0,257.0,319.0,144,69,69,85,62,573,426,467
2025-02-20 16:24:28.800,-472.0,182.0,-343.0,307.0,203.0,304.0,142,74,71,85,64,611,421,452
2025-02-20 16:24:28.817,-557.0,531.0,-720.0,354.0,160.0,277.0,140,79,75,85,64,580,401,450
2025-02-20 16:24:28.837,-1186.0,1644.0,-1220.0,333.0,64.0,136.0,140,81,79,88,66,452,455,457
2025-02-20 16:24:28.855,-1595.0,2213.0,-1470.0,240.0,-163.0,-140.0,141,86,84,89,65,488,529,450
2025-02-20 16:24:28.874,-1324.0,1757.0,-1146.0,218.0,-405.0,-503.0,141,97,89,91,63,481,550,445
2025-02-20 16:24:28.895,-223.0,1307.0,-924.0,245.0,-651.0,-696.0,139,106,94,91,64,406,493,478
2025-02-20 16:24:28.915,2357.0,879.0,-217.0,93.0,-922.0,-727.0,137,113,99,92,68,370,405,487
2025-02-20 16:24:28.932,3797.0,-1784.0,1043.0,-143.0,-925.0,-536.0,138,122,102,95,70,466,319,489
2025-02-20 16:24:28.952,3677.0,-3279.0,1974.0,-112.0,-480.0,-113.0,139,127,103,97,70,533,339,478
2025-02-20 16:24:28.969,3449.0,-3257.0,1532.0,30.0,-13.0,124.0,139,128,105,97,66,543,432,472
2025-02-20 16:24:28.989,1721.0,-1826.0,1213.0,107.0,201.0,106.0,139,128,104,98,62,444,496,445
2025-02-20 16:24:29.007,587.0,-1168.0,651.0,71.0,194.0,85.0,139,126,106,99,59,366,566,426
2025-02-20 16:24:29.026,323.0,-1121.0,632.0,-50.0,147.0,127.0,139,126,106,97,62,335,570,414
2025-02-20 16:24:29.046,315.0,-1096.0,633.0,-108.0,110.0,171.0,140,126,106,95,65,263,520,410
2025-02-20 16:24:29.067,370.0,-1184.0,746.0,-80.0,121.0,185.0,140,128,105,92,69,320,485,449
2025-02-20 16:24:29.084,420.0,-1148.0,761.0,-16.0,169.0,191.0,140,127,107,89,71,442,490,479
2025-02-20 16:24:29.104,345.0,-919.0,678.0,16.0,216.0,202.0,141,128,108,89,71,512,578,481
2025-02-20 16:24:29.123,212.0,-752.0,605.0,14.0,235.0,224.0,140,129,107,89,69,364,511,486
2025-02-20 16:24:29.141,11.0,-584.0,509.0,-17.0,246.0,265.0,140,128,108,91,68,328,354,475
2025-02-20 16:24:29.161,-116.0,-366.0,372.0,-39.0,232.0,294.0,141,127,107,92,66,476,409,460
2025-02-20 16:24:29.178,-162.0,-251.0,313.0,-17.0,230.0,298.0,140,126,108,94,65,518,484,466
2025-02-20 16:24:29.198,-349.0,-93.0,211.0,36.0,244.0,271.0,142,127,108,92,65,529,434,476
2025-02-20 16:24:29.218,-528.0,63.0,-156.0,105.0,223.0,217.0,137,126,106,91,66,488,391,486
2025-02-20 16:24:29.229,-895.0,446.0,-499.0,188.0,161.0,158.0,141,126,108,88,66,503,431,487
2025-02-20 16:24:29.256,-1257.0,1327.0,-867.0,146.0,40.0,40.0,142,126,108,85,66,582,466,474
2025-02-20 16:24:29.273,-1446.0,1513.0,-1167.0,59.0,-178.0,-198.0,143,127,109,85,65,699,474,445
2025-02-20 16:24:29.293,-1196.0,1465.0,-982.0,59.0,-337.0,-426.0,142,127,109,87,64,625,467,447
2025-02-20 16:24:29.313,14.0,1395.0,-635.0,6.0,-523.0,-633.0,140,127,107,86,65,375,452,461
2025-02-20 16:24:29.333,1207.0,989.0,49.0,-152.0,-671.0,-729.0,138,129,110,86,67,395,422,476
2025-02-20 16:24:29.350,2750.0,-2170.0,238.0,-247.0,-707.0,-586.0,137,128,109,88,67,462,418,491
2025-02-20 16:24:29.370,3448.0,-3532.0,915.0,-90.0,-415.0,-202.0,137,130,108,88,65,444,463,478
2025-02-20 16:24:29.380,3337.0,-3619.0,1587.0,-25.0,-52.0,88.0,139,129,108,90,63,438,505,467
2025-02-20 16:24:29.406,1812.0,-2220.0,1200.0,84.0,207.0,140.0,139,129,108,90,60,487,536,459
2025-02-20 16:24:29.427,763.0,-1250.0,734.0,71.0,226.0,128.0,138,128,108,91,59,452,555,439
2025-02-20 16:24:29.444,220.0,-1129.0,488.0,-21.0,154.0,148.0,139,126,108,91,61,365,576,427
2025-02-20 16:24:29.465,115.0,-1085.0,581.0,-102.0,87.0,171.0,139,127,108,90,64,433,564,436
2025-02-20 16:24:29.485,186.0,-1088.0,678.0,-122.0,94.0,184.0,139,129,108,91,67,505,482,468
2025-02-20 16:24:29.501,298.0,-1196.0,712.0,-97.0,137.0,194.0,140,129,108,92,69,529,447,487
2025-02-20 16:24:29.520,192.0,-1095.0,530.0,-66.0,156.0,213.0,139,128,106,93,71,360,534,480
2025-02-20 16:24:29.540,144.0,-782.0,453.0,-70.0,165.0,253.0,140,126,106,96,72,281,532,471
2025-02-20 16:24:29.558,-93.0,-635.0,416.0,-157.0,149.0,295.0,140,121,103,100,73,396,428,486
2025-02-20 16:24:29.579,-149.0,-565.0,358.0,-196.0,131.0,338.0,141,118,101,102,71,455,427,486
2025-02-20 16:24:29.599,-257.0,-536.0,513.0,-124.0,148.0,361.0,142,111,99,104,71,532,439,486
2025-02-20 16:24:29.616,-331.0,-451.0,249.0,7.0,169.0,364.0,143,104,94,105,72,559,382,480
2025-02-20 16:24:29.636,-167.0,-155.0,229.0,159.0,240.0,266.0,142,91,88,104,73,555,378,477
2025-02-20 16:24:29.653,-474.0,657.0,-267.0,266.0,269.0,162.0,138,84,81,104,71,524,415,464
2025-02-20 16:24:29.672,-920.0,1568.0,-890.0,317.0,128.0,25.0,133,80,74,103,68,650,458,445
2025-02-20 16:24:29.693,-1540.0,2275.0,-2027.0,239.0,-132.0,-202.0,128,69,66,91,65,631,480,454
2025-02-20 16:24:29.711,-1207.0,2038.0,-2187.0,157.0,-360.0,-475.0,128,57,58,84,60,552,462,455
2025-02-20 16:24:29.731,-156.0,1216.0,-1591.0,20.0,-615.0,-587.0,132,53,53,85,60,553,439,441
2025-02-20 16:24:29.750,1317.0,895.0,-1613.0,-161.0,-874.0,-658.0,135,54,51,87,63,437,448,457
2025-02-20 16:24:29.767,4007.0,-1851.0,-284.0,-336.0,-907.0,-399.0,141,54,53,89,65,418,423,478
2025-02-20 16:24:29.788,4370.0,-3990.0,2360.0,-330.0,-450.0,-131.0,141,56,54,90,65,424,450,487
2025-02-20 16:24:29.804,2850.0,-4573.0,1450.0,-6.0,94.0,-27.0,141,55,52,88,61,424,477,473
2025-02-20 16:24:29.825,1098.0,-2782.0,-32.0,226.0,231.0,31.0,140,55,52,81,55,423,529,454
2025-02-20 16:24:29.845,182.0,-882.0,-451.0,91.0,112.0,89.0,140,54,55,80,54,386,551,443
2025-02-20 16:24:29.861,93.0,-1352.0,-101.0,-38.0,-6.0,102.0,141,54,55,85,56,278,544,425
2025-02-20 16:24:29.882,502.0,-1795.0,761.0,-29.0,3.0,113.0,141,58,56,89,64,378,502,452
2025-02-20 16:24:29.902,670.0,-1893.0,889.0,17.0,127.0,163.0,141,59,58,93,64,454,461,446
2025-02-20 16:24:29.919,506.0,-1403.0,553.0,36.0,171.0,184.0,141,59,59,93,66,520,478,491
2025-02-20 16:24:29.940,213.0,-933.0,402.0,40.0,150.0,179.0,141,58,59,93,67,438,507,497
2025-02-20 16:24:29.959,136.0,-781.0,418.0,-23.0,141.0,206.0,142,60,59,91,67,330,461,462
2025-02-20 16:24:29.976,-74.0,-703.0,271.0,-72.0,140.0,207.0,141,60,58,87,64,388,356,449
2025-02-20 16:24:29.995,-180.0,-607.0,239.0,-89.0,135.0,215.0,142,61,58,84,63,418,357,461
2025-02-20 16:24:30.016,-140.0,-180.0,348.0,-65.0,132.0,191.0,141,60,59,86,63,475,379,471
2025-02-20 16:24:30.034,-40.0,-328.0,339.0,-18.0,170.0,163.0,142,64,60,84,60,478,385,473
2025-02-20 16:24:30.054,-328.0,-267.0,110.0,16.0,167.0,174.0,142,65,61,84,62,528,450,472
2025-02-20 16:24:30.071,-540.0,75.0,180.0,78.0,135.0,134.0,142,65,62,84,64,613,519,457
2025-02-20 16:24:30.091,-627.0,480.0,123.0,156.0,143.0,82.0,141,66,63,85,64,630,529,462
2025-02-20 16:24:30.111,-1020.0,1473.0,-314.0,224.0,135.0,-38.0,141,66,63,83,64,595,513,462
2025-02-20 16:24:30.129,-1734.0,2294.0,-1209.0,196.0,-13.0,-256.0,137,64,63,87,65,552,518,464
2025-02-20 16:24:30.149,-1720.0,2015.0,-1816.0,36.0,-316.0,-469.0,134,62,61,87,62,490,503,476
2025-02-20 16:24:30.169,318.0,1222.0,-1942.0,-118.0,-704.0,-615.0,136,61,62,90,64,423,470,483
2025-02-20 16:24:30.186,2740.0,-202.0,-1321.0,-356.0,-921.0,-509.0,138,62,62,95,68,346,413,485
2025-02-20 16:24:30.206,4404.0,-4322.0,810.0,-365.0,-728.0,-170.0,139,63,63,97,70,374,365,484
2025-02-20 16:24:30.226,3990.0,-5358.0,2172.0,-50.0,-24.0,-38.0,139,66,65,97,70,413,424,472
2025-02-20 16:24:30.243,1973.0,-2923.0,-933.0,344.0,330.0,-8.0,138,64,60,90,63,473,496,470
2025-02-20 16:24:30.263,212.0,-1796.0,-358.0,150.0,217.0,63.0,140,60,63,88,57,514,551,459
2025-02-20 16:24:30.279,61.0,-939.0,-613.0,74.0,76.0,102.0,138,61,65,89,59,451,585,447
2025-02-20 16:24:30.296,174.0,-1729.0,137.0,16.0,84.0,128.0,138,69,66,93,66,414,587,444
2025-02-20 16:24:30.320,495.0,-1976.0,645.0,126.0,109.0,158.0,137,74,70,97,73,434,544,456
2025-02-20 16:24:30.337,738.0,-1657.0,630.0,202.0,216.0,157.0,136,78,70,97,78,464,492,461
2025-02-20 16:24:30.358,318.0,-1276.0,558.0,131.0,317.0,171.0,137,82,73,98,79,404,508,460
2025-02-20 16:24:30.377,295.0,-873.0,258.0,51.0,323.0,237.0,138,85,73,96,81,446,568,496
2025-02-20 16:24:30.395,133.0,-646.0,277.0,-41.0,296.0,268.0,139,87,73,98,78,454,477,488
2025-02-20 16:24:30.414,99.0,-405.0,640.0,-99.0,283.0,272.0,140,84,73,101,78,420,371,484
2025-02-20 16:24:30.434,-137.0,-396.0,204.0,-48.0,282.0,310.0,141,78,73,103,80,442,411,480
2025-02-20 16:24:30.448,-127.0,-291.0,95.0,40.0,271.0,339.0,141,73,71,105,80,468,431,470
2025-02-20 16:24:30.472,-410.0,-125.0,-106.0,147.0,265.0,341.0,140,69,67,105,80,537,380,465
2025-02-20 16:24:30.489,-387.0,0.0,-471.0,244.0,220.0,340.0,138,65,64,103,81,395,369,466
2025-02-20 16:24:30.509,-521.0,744.0,-698.0,306.0,162.0,272.0,138,63,58,94,79,379,427,466
2025-02-20 16:24:30.527,-1057.0,1411.0,-902.0,295.0,71.0,102.0,137,62,56,84,70,495,431,441
2025-02-20 16:24:30.544,-1618.0,2063.0,-2398.0,339.0,-98.0,-131.0,131,58,52,74,60,531,406,426
2025-02-20 16:24:30.566,-1787.0,2092.0,-3022.0,310.0,-603.0,-441.0,115,54,50,69,56,517,431,439
2025-02-20 16:24:30.586,834.0,2484.0,-2825.0,185.0,-1065.0,-576.0,109,53,51,69,57,504,430,462
2025-02-20 16:24:30.604,4419.0,348.0,-900.0,-79.0,-1319.0,-495.0,111,52,50,71,60,598,354,439
2025-02-20 16:24:30.624,4944.0,-4439.0,1923.0,156.0,-923.0,-166.0,118,56,51,73,63,609,336,458
2025-02-20 16:24:30.643,4327.0,-2549.0,3989.0,406.0,-245.0,45.0,124,56,53,73,61,616,430,472
2025-02-20 16:24:30.660,1763.0,-459.0,3772.0,281.0,236.0,-57.0,126,56,54,75,59,547,481,476
2025-02-20 16:24:30.680,1106.0,-495.0,2261.0,26.0,363.0,3.0,123,57,53,76,60,462,551,450
2025-02-20 16:24:30.700,595.0,-513.0,1510.0,-113.0,359.0,66.0,121,57,53,75,60,353,576,428
2025-02-20 16:24:30.718,344.0,-666.0,1225.0,-176.0,332.0,75.0,121,58,55,74,62,321,571,436
2025-02-20 16:24:30.738,148.0,-789.0,868.0,-138.0,313.0,114.0,122,58,55,76,65,229,498,432
2025-02-20 16:24:30.756,-77.0,-674.0,747.0,-148.0,317.0,143.0,122,57,55,76,65,302,431,468
2025-02-20 16:24:30.775,-106.0,-525.0,895.0,-129.0,296.0,139.0,118,56,54,74,62,395,530,544
2025-02-20 16:24:30.795,-86.0,-279.0,737.0,-155.0,302.0,136.0,115,57,53,73,60,412,609,527
2025-02-20 16:24:30.813,-230.0,-294.0,405.0,-179.0,295.0,141.0,114,57,54,74,59,555,597,475
2025-02-20 16:24:30.832,-706.0,-280.0,115.0,-153.0,231.0,138.0,116,58,53,75,61,580,461,462
2025-02-20 16:24:30.852,-380.0,-480.0,97.0,-67.0,208.0,158.0,115,58,54,74,61,565,428,448
2025-02-20 16:24:30.869,-335.0,-216.0,130.0,0.0,217.0,156.0,114,58,55,73,61,543,467,463
2025-02-20 16:24:30.890,-242.0,1.0,152.0,34.0,247.0,161.0,116,58,55,73,62,584,402,490
2025-02-20 16:24:30.910,-692.0,215.0,-350.0,30.0,209.0,146.0,116,58,55,72,62,555,395,516
2025-02-20 16:24:30.927,-992.0,493.0,-628.0,27.0,77.0,101.0,117,58,54,73,63,529,432,510
2025-02-20 16:24:30.945,-894.0,706.0,-1032.0,58.0,-35.0,31.0,116,58,56,74,62,502,484,483
2025-02-20 16:24:30.967,-1135.0,1179.0,-1702.0,186.0,-146.0,-145.0,111,59,55,73,59,535,512,455
2025-02-20 16:24:30.984,-1424.0,1827.0,-2495.0,264.0,-437.0,-325.0,105,56,54,71,57,577,516,449
2025-02-20 16:24:31.004,-434.0,1892.0,-2574.0,202.0,-809.0,-509.0,102,55,53,70,57,448,466,449
2025-02-20 16:24:31.018,3144.0,722.0,-1387.0,49.0,-1186.0,-491.0,105,56,53,74,61,312,392,461
2025-02-20 16:24:31.042,5157.0,-3310.0,3706.0,263.0,-863.0,-190.0,113,57,54,75,64,369,321,443
2025-02-20 16:24:31.062,3796.0,-1859.0,5176.0,303.0,-23.0,38.0,116,58,57,76,64,453,336,469
2025-02-20 16:24:31.079,1874.0,-409.0,3769.0,110.0,323.0,-39.0,116,59,56,76,60,497,429,474
2025-02-20 16:24:31.098,524.0,-558.0,2105.0,-112.0,371.0,29.0,117,58,56,78,61,423,523,454
2025-02-20 16:24:31.118,220.0,-421.0,1232.0,-234.0,336.0,30.0,120,59,58,77,64,416,572,458
2025-02-20 16:24:31.135,-111.0,-826.0,830.0,-226.0,259.0,36.0,123,60,58,78,66,208,560,413
2025-02-20 16:24:31.156,-64.0,-1339.0,745.0,-156.0,223.0,89.0,124,62,57,81,68,223,491,438
2025-02-20 16:24:31.170,-66.0,-897.0,610.0,-153.0,221.0,138.0,126,60,58,81,69,316,393,465
2025-02-20 16:24:31.193,-117.0,-658.0,762.0,-172.0,205.0,160.0,129,61,59,80,69,570,490,498
2025-02-20 16:24:31.213,-253.0,-700.0,635.0,-172.0,204.0,176.0,132,62,62,83,68,635,619,497
2025-02-20 16:24:31.230,-323.0,-513.0,444.0,-143.0,200.0,192.0,133,62,63,86,68,545,551,489
2025-02-20 16:24:31.250,-347.0,-589.0,331.0,-82.0,196.0,215.0,135,66,68,88,71,535,448,494
2025-02-20 16:24:31.270,-315.0,-346.0,95.0,6.0,206.0,215.0,134,70,68,89,73,424,437,497
2025-02-20 16:24:31.287,-511.0,-174.0,-59.0,98.0,205.0,202.0,134,78,67,88,74,314,405,485
2025-02-20 16:24:31.307,-623.0,-64.0,-157.0,137.0,176.0,175.0,133,83,66,87,74,312,320,479
2025-02-20 16:24:31.326,-809.0,249.0,-528.0,139.0,98.0,138.0,134,86,66,85,75,413,389,468
2025-02-20 16:24:31.344,-1089.0,367.0,-1289.0,161.0,-30.0,76.0,134,90,63,82,72,470,446,460
2025-02-20 16:24:31.365,-1472.0,594.0,-1536.0,231.0,-225.0,-64.0,131,94,58,77,64,532,502,449
2025-02-20 16:24:31.382,-1329.0,1079.0,-2221.0,264.0,-529.0,-179.0,115,102,55,72,58,501,510,429
2025-02-20 16:24:31.401,143.0,909.0,-2430.0,284.0,-902.0,-231.0,96,109,54,68,56,494,468,408
2025-02-20 16:24:31.422,2936.0,156.0,-1292.0,279.0,-1145.0,-114.0,89,112,53,68,58,488,432,407
2025-02-20 16:24:31.439,3549.0,-245.0,520.0,350.0,-1130.0,-42.0,92,114,53,69,61,497,337,435
2025-02-20 16:24:31.459,3340.0,-102.0,2093.0,384.0,-845.0,14.0,102,116,54,71,63,595,374,470
2025-02-20 16:24:31.479,3111.0,478.0,3812.0,294.0,-483.0,35.0,115,116,55,71,65,624,435,477
2025-02-20 16:24:31.496,2195.0,947.0,4185.0,93.0,-90.0,9.0,118,119,56,71,66,584,536,474
2025-02-20 16:24:31.517,1825.0,612.0,3125.0,-115.0,275.0,-6.0,117,118,56,71,67,451,603,456
2025-02-20 16:24:31.536,1289.0,370.0,1602.0,-172.0,401.0,-16.0,112,117,55,72,67,372,618,455
2025-02-20 16:24:31.551,1023.0,182.0,958.0,-158.0,389.0,-36.0,110,116,56,73,66,424,573,454
2025-02-20 16:24:31.574,767.0,63.0,1030.0,-166.0,363.0,-40.0,111,117,56,73,67,368,489,450
2025-02-20 16:24:31.594,604.0,-104.0,982.0,-187.0,348.0,-15.0,111,118,56,74,66,429,490,458
2025-02-20 16:24:31.611,467.0,-166.0,863.0,-172.0,326.0,32.0,106,118,55,74,67,431,508,476
2025-02-20 16:24:31.631,255.0,-290.0,769.0,-156.0,295.0,68.0,103,118,55,75,64,316,498,456
2025-02-20 16:24:31.647,161.0,-175.0,756.0,-165.0,286.0,81.0,105,119,56,78,67,414,511,428
2025-02-20 16:24:31.668,-101.0,-86.0,617.0,-171.0,283.0,85.0,106,118,55,76,67,464,477,424
2025-02-20 16:24:31.688,-127.0,-240.0,576.0,-115.0,257.0,83.0,105,118,55,76,67,430,417,435
2025-02-20 16:24:31.705,-141.0,-129.0,568.0,-86.0,244.0,73.0,101,118,56,77,67,398,378,461
2025-02-20 16:24:31.725,-238.0,-190.0,440.0,-87.0,232.0,91.0,99,119,56,76,65,401,362,490
2025-02-20 16:24:31.746,-167.0,-199.0,529.0,-81.0,241.0,113.0,102,119,57,77,66,461,398,518
2025-02-20 16:24:31.762,-140.0,-316.0,295.0,-86.0,234.0,135.0,104,118,57,77,67,579,457,520
2025-02-20 16:24:31.782,-621.0,32.0,159.0,-25.0,193.0,108.0,104,119,57,78,66,657,472,485
2025-02-20 16:24:31.802,-701.0,233.0,-182.0,26.0,148.0,68.0,103,119,52,77,65,662,466,477
2025-02-20 16:24:31.819,-1287.0,723.0,-1133.0,44.0,-7.0,-41.0,98,118,56,76,63,600,452,472
2025-02-20 16:24:31.840,-1904.0,804.0,-2449.0,154.0,-308.0,-184.0,91,119,55,74,61,531,463,475
2025-02-20 16:24:31.860,-750.0,712.0,-2998.0,235.0,-799.0,-283.0,87,119,54,73,57,497,493,467
2025-02-20 16:24:31.877,2198.0,366.0,-2249.0,285.0,-1078.0,-202.0,87,121,57,72,58,401,495,457
2025-02-20 16:24:31.896,3731.0,-153.0,58.0,317.0,-1119.0,-120.0,92,121,55,72,61,429,434,472
2025-02-20 16:24:31.914,3986.0,-1021.0,2418.0,423.0,-794.0,16.0,108,126,55,71,64,482,356,482
2025-02-20 16:24:31.934,3376.0,512.0,4370.0,293.0,-357.0,93.0,120,123,57,72,68,551,374,461
2025-02-20 16:24:31.952,2251.0,926.0,4589.0,-53.0,136.0,66.0,125,123,59,74,73,522,411,444
2025-02-20 16:24:31.969,1781.0,447.0,2624.0,-285.0,394.0,61.0,127,122,60,79,75,426,549,434
2025-02-20 16:24:31.991,1238.0,99.0,1473.0,-334.0,498.0,53.0,129,120,60,80,75,291,598,437
2025-02-20 16:24:32.012,1012.0,-367.0,1108.0,-276.0,509.0,74.0,130,115,60,81,75,348,616,435
2025-02-20 16:24:32.029,839.0,-342.0,925.0,-232.0,488.0,111.0,129,115,61,81,74,335,586,448
2025-02-20 16:24:32.049,394.0,-270.0,848.0,-246.0,420.0,121.0,129,114,60,80,72,480,520,492
2025-02-20 16:24:32.069,256.0,-280.0,819.0,-265.0,371.0,135.0,129,114,60,81,70,524,524,514
2025-02-20 16:24:32.085,416.0,-310.0,808.0,-285.0,393.0,164.0,130,114,62,81,72,501,570,500
2025-02-20 16:24:32.106,64.0,-480.0,501.0,-210.0,400.0,165.0,130,113,63,85,79,439,442,464
2025-02-20 16:24:32.123,-308.0,-479.0,125.0,-97.0,364.0,180.0,128,113,69,91,85,451,345,453
2025-02-20 16:24:32.143,-365.0,-315.0,382.0,16.0,329.0,192.0,128,112,74,98,93,403,367,454
2025-02-20 16:24:32.163,-316.0,-90.0,-157.0,90.0,305.0,135.0,124,112,80,105,101,406,399,476
2025-02-20 16:24:32.180,-562.0,-228.0,-77.0,75.0,265.0,92.0,121,111,84,111,105,375,372,503
2025-02-20 16:24:32.200,-689.0,263.0,-413.0,62.0,208.0,62.0,118,110,86,114,106,344,355,527
2025-02-20 16:24:32.221,-899.0,497.0,-805.0,34.0,86.0,32.0,114,111,88,118,108,414,423,509
2025-02-20 16:24:32.237,-1018.0,811.0,-1538.0,70.0,-62.0,-36.0,113,112,89,119,109,528,484,483
2025-02-20 16:24:32.258,-1302.0,1139.0,-2219.0,51.0,-336.0,-229.0,114,113,90,120,116,583,490,462
2025-02-20 16:24:32.278,-1194.0,1521.0,-1682.0,9.0,-548.0,-433.0,117,115,93,121,123,579,475,456
2025-02-20 16:24:32.294,-152.0,1518.0,-1084.0,-102.0,-682.0,-643.0,117,118,95,122,127,528,433,458
2025-02-20 16:24:32.315,1894.0,891.0,-1005.0,-247.0,-1031.0,-644.0,116,122,97,126,129,414,430,480
2025-02-20 16:24:32.335,4108.0,-956.0,-792.0,-348.0,-1190.0,-383.0,119,126,100,129,131,465,382,464
2025-02-20 16:24:32.352,3634.0,-3827.0,1526.0,-281.0,-708.0,-87.0,119,130,104,130,132,465,416,461
2025-02-20 16:24:32.372,3251.0,-4281.0,907.0,20.0,-254.0,103.0,123,131,105,132,133,553,504,458
2025-02-20 16:24:32.387,2387.0,-2048.0,451.0,154.0,36.0,84.0,124,131,105,132,133,580,518,450
2025-02-20 16:24:32.406,820.0,-1434.0,884.0,150.0,255.0,27.0,126,130,104,133,133,595,524,448
2025-02-20 16:24:32.430,359.0,-1089.0,416.0,64.0,274.0,100.0,127,128,104,133,133,530,537,451
2025-02-20 16:24:32.446,238.0,-939.0,423.0,20.0,229.0,168.0,126,127,104,133,133,314,496,454
2025-02-20 16:24:32.467,236.0,-891.0,395.0,-28.0,178.0,175.0,125,129,104,133,133,415,437,462
2025-02-20 16:24:32.486,361.0,-971.0,535.0,-109.0,159.0,138.0,125,130,105,134,133,427,425,491
2025-02-20 16:24:32.503,344.0,-1023.0,333.0,-144.0,232.0,108.0,124,131,104,134,135,554,590,486
2025-02-20 16:24:32.523,188.0,-1087.0,507.0,-63.0,159.0,165.0,121,131,105,133,135,431,649,491
2025-02-20 16:24:32.544,189.0,-991.0,404.0,-24.0,197.0,200.0,124,131,105,134,134,328,459,482
2025-02-20 16:24:32.561,66.0,-812.0,387.0,-55.0,195.0,223.0,122,131,105,133,135,282,383,488
2025-02-20 16:24:32.581,116.0,-577.0,335.0,-136.0,179.0,231.0,123,129,104,134,136,409,465,489
2025-02-20 16:24:32.598,-84.0,-43.0,364.0,-47.0,206.0,224.0,123,128,104,134,135,578,437,474
2025-02-20 16:24:32.618,-188.0,-247.0,95.0,-8.0,205.0,233.0,121,125,103,134,134,634,409,471
2025-02-20 16:24:32.638,-461.0,-34.0,239.0,116.0,170.0,234.0,120,125,105,133,134,601,399,474
2025-02-20 16:24:32.655,-782.0,506.0,99.0,237.0,145.0,219.0,120,122,103,134,135,510,502,470
2025-02-20 16:24:32.676,-793.0,1040.0,-88.0,257.0,141.0,151.0,119,122,103,134,136,598,581,465
2025-02-20 16:24:32.695,-1095.0,1557.0,-1146.0,249.0,39.0,-88.0,118,125,104,133,136,723,545,447
2025-02-20 16:24:32.713,-1562.0,1845.0,-1653.0,173.0,-254.0,-427.0,117,127,105,133,136,599,514,449
2025-02-20 16:24:32.733,-673.0,1093.0,-683.0,35.0,-490.0,-636.0,119,128,105,133,137,465,499,465
2025-02-20 16:24:32.753,1052.0,186.0,-418.0,-28.0,-777.0,-684.0,119,128,106,133,137,358,483,476
2025-02-20 16:24:32.770,3712.0,-701.0,-799.0,-103.0,-922.0,-458.0,113,130,106,135,136,460,443,475
2025-02-20 16:24:32.790,3335.0,-3493.0,1177.0,-225.0,-658.0,-143.0,114,132,107,135,137,489,257,474
2025-02-20 16:24:32.810,2865.0,-3804.0,1379.0,5.0,-179.0,67.0,115,131,108,135,136,429,316,474
2025-02-20 16:24:32.828,1948.0,-2536.0,1165.0,120.0,112.0,89.0,116,130,107,135,136,347,436,445
2025-02-20 16:24:32.848,337.0,-1644.0,642.0,208.0,215.0,68.0,118,131,107,135,135,352,461,434
2025-02-20 16:24:32.865,305.0,-998.0,473.0,73.0,192.0,105.0,118,129,107,135,134,371,489,445
2025-02-20 16:24:32.885,121.0,-1026.0,633.0,28.0,215.0,130.0,119,128,108,135,134,348,536,447
2025-02-20 16:24:32.905,241.0,-951.0,617.0,-43.0,147.0,124.0,118,129,107,136,135,379,473,439
2025-02-20 16:24:32.922,398.0,-1218.0,864.0,-35.0,157.0,95.0,117,130,106,136,135,365,388,455
2025-02-20 16:24:32.942,370.0,-1384.0,167.0,-18.0,290.0,92.0,118,131,107,135,135,395,494,474
2025-02-20 16:24:32.962,351.0,-1174.0,488.0,8.0,251.0,137.0,119,130,105,134,134,435,623,486
2025-02-20 16:24:32.979,120.0,-872.0,426.0,48.0,259.0,179.0,121,129,105,134,130,457,502,484
2025-02-20 16:24:32.999,80.0,-707.0,397.0,-40.0,304.0,210.0,121,128,104,133,130,447,400,476
2025-02-20 16:24:33.016,42.0,-640.0,262.0,-43.0,327.0,242.0,123,126,102,132,126,598,429,480
2025-02-20 16:24:33.036,-118.0,-625.0,278.0,1.0,307.0,279.0,124,122,99,131,119,571,438,482
2025-02-20 16:24:33.056,-275.0,-309.0,148.0,77.0,291.0,312.0,125,119,89,129,107,525,409,480
2025-02-20 16:24:33.073,-384.0,-176.0,-186.0,250.0,260.0,317.0,126,116,79,124,99,455,413,485
2025-02-20 16:24:33.094,-453.0,-14.0,-532.0,381.0,236.0,287.0,125,111,68,109,89,408,465,473
2025-02-20 16:24:33.113,-992.0,153.0,-1509.0,490.0,133.0,158.0,126,109,57,83,67,479,455,425
2025-02-20 16:24:33.131,-1962.0,894.0,-2733.0,575.0,-153.0,-18.0,118,111,48,69,53,619,424,426
2025-02-20 16:24:33.151,-1923.0,2373.0,-3621.0,410.0,-658.0,-223.0,106,114,50,64,50,619,398,434
2025-02-20 16:24:33.171,2049.0,1705.0,-2423.0,167.0,-1179.0,-268.0,95,117,49,61,52,555,442,473
2025-02-20 16:24:33.187,4157.0,-867.0,-314.0,202.0,-1271.0,-96.0,92,119,49,61,53,561,398,442
2025-02-20 16:24:33.207,4083.0,-630.0,1980.0,424.0,-889.0,11.0,103,120,48,64,57,503,300,438
2025-02-20 16:24:33.225,3173.0,244.0,3859.0,420.0,-455.0,43.0,109,121,50,66,57,483,432,491
2025-02-20 16:24:33.245,2115.0,1127.0,3645.0,130.0,-54.0,-18.0,112,121,51,69,59,425,493,497
2025-02-20 16:24:33.265,1706.0,323.0,3058.0,-127.0,215.0,-3.0,109,121,52,70,58,348,590,491
2025-02-20 16:24:33.277,1157.0,137.0,1690.0,-199.0,329.0,-18.0,105,119,52,68,59,326,605,464
2025-02-20 16:24:33.303,767.0,-132.0,1046.0,-148.0,325.0,-32.0,105,118,53,69,59,241,566,443
2025-02-20 16:24:33.322,550.0,-211.0,1015.0,-123.0,302.0,-9.0,108,116,52,70,62,268,473,430
2025-02-20 16:24:33.339,345.0,-39.0,1041.0,-163.0,284.0,20.0,111,116,53,71,63,383,481,479
2025-02-20 16:24:33.358,251.0,-213.0,977.0,-188.0,257.0,57.0,107,117,53,71,64,413,513,490
2025-02-20 16:24:33.379,222.0,-351.0,891.0,-179.0,226.0,88.0,104,117,53,73,64,451,514,459
2025-02-20 16:24:33.397,213.0,-340.0,929.0,-180.0,250.0,114.0,106,118,54,73,65,412,409,451
2025-02-20 16:24:33.417,138.0,-313.0,792.0,-175.0,281.0,131.0,109,118,54,73,64,376,315,471
2025-02-20 16:24:33.437,-183.0,-226.0,614.0,-121.0,265.0,116.0,112,119,54,75,66,472,428,443
2025-02-20 16:24:33.453,-206.0,-239.0,502.0,-57.0,243.0,91.0,110,118,55,74,67,525,453,440
2025-02-20 16:24:33.473,-125.0,-157.0,555.0,-39.0,235.0,82.0,109,118,56,74,66,461,399,453
2025-02-20 16:24:33.491,-202.0,-23.0,477.0,-70.0,247.0,75.0,110,119,55,74,66,356,366,457
2025-02-20 16:24:33.509,-528.0,-28.0,219.0,-90.0,213.0,81.0,112,119,55,75,67,456,416,457
2025-02-20 16:24:33.531,-754.0,-64.0,-94.0,-55.0,136.0,90.0,109,119,56,74,66,637,512,461
2025-02-20 16:24:33.544,-864.0,354.0,-761.0,8.0,45.0,8.0,106,119,55,71,65,692,485,459
2025-02-20 16:24:33.568,-1595.0,726.0,-1484.0,195.0,-162.0,-154.0,100,118,53,72,60,563,458,444
2025-02-20 16:24:33.588,-1478.0,993.0,-2080.0,261.0,-473.0,-286.0,93,119,53,71,56,519,458,438
2025-02-20 16:24:33.605,575.0,539.0,-1800.0,241.0,-859.0,-245.0,90,119,54,70,55,365,424,455
2025-02-20 16:24:33.626,2463.0,-233.0,-184.0,202.0,-977.0,-140.0,94,121,54,71,57,259,383,465
2025-02-20 16:24:33.646,3032.0,-864.0,1511.0,244.0,-799.0,-21.0,103,122,53,72,60,262,346,470
2025-02-20 16:24:33.663,2886.0,-771.0,3196.0,274.0,-463.0,53.0,113,123,56,74,62,330,371,463
2025-02-20 16:24:33.683,2484.0,-49.0,3702.0,160.0,-110.0,71.0,120,123,56,79,68,473,358,449
2025-02-20 16:24:33.700,1613.0,161.0,3436.0,-74.0,223.0,35.0,126,123,58,83,71,460,478,426
2025-02-20 16:24:33.720,1223.0,-19.0,2123.0,-232.0,386.0,29.0,128,123,64,88,75,441,583,418
2025-02-20 16:24:33.740,1007.0,-323.0,1497.0,-265.0,462.0,57.0,128,121,65,89,75,459,651,416
2025-02-20 16:24:33.757,916.0,-549.0,1061.0,-226.0,481.0,102.0,130,122,65,88,75,457,636,422
2025-02-20 16:24:33.777,635.0,-413.0,932.0,-206.0,474.0,150.0,130,120,66,84,75,419,532,426
2025-02-20 16:24:33.798,411.0,-279.0,829.0,-233.0,461.0,178.0,130,117,68,89,74,456,466,474
2025-02-20 16:24:33.810,185.0,-230.0,479.0,-254.0,429.0,181.0,129,118,72,89,72,368,565,474
2025-02-20 16:24:33.835,-176.0,-653.0,437.0,-215.0,374.0,181.0,131,117,78,91,73,343,558,453
2025-02-20 16:24:33.854,-241.0,-518.0,238.0,-122.0,358.0,190.0,130,116,81,92,75,356,401,479
2025-02-20 16:24:33.872,-345.0,-325.0,88.0,-42.0,337.0,182.0,130,117,84,93,75,448,346,491
2025-02-20 16:24:33.892,-435.0,-178.0,-90.0,52.0,325.0,152.0,128,117,87,95,76,427,361,502
2025-02-20 16:24:33.909,-762.0,130.0,-368.0,110.0,281.0,106.0,130,118,87,97,78,357,374,500
2025-02-20 16:24:33.929,-842.0,639.0,-770.0,83.0,167.0,61.0,133,118,92,98,79,358,401,484
2025-02-20 16:24:33.949,-1151.0,983.0,-1396.0,72.0,17.0,-38.0,131,120,95,97,78,389,412,477
2025-02-20 16:24:33.970,-1486.0,1370.0,-1771.0,107.0,-206.0,-216.0,131,123,97,98,70,504,456,456
2025-02-20 16:24:33.986,-1119.0,1659.0,-1585.0,136.0,-442.0,-414.0,127,124,99,100,63,532,460,464
2025-02-20 16:24:34.007,-284.0,1370.0,-1102.0,7.0,-723.0,-567.0,123,126,100,101,66,551,443,478
2025-02-20 16:24:34.023,1448.0,885.0,-705.0,-151.0,-932.0,-572.0,122,128,102,104,70,623,407,464
2025-02-20 16:24:34.044,3419.0,-1669.0,-20.0,-245.0,-1000.0,-436.0,122,129,101,103,72,622,381,466
2025-02-20 16:24:34.063,3337.0,-3332.0,1477.0,-82.0,-635.0,-128.0,122,132,103,103,72,546,423,453
2025-02-20 16:24:34.081,2983.0,-2922.0,1667.0,60.0,-238.0,91.0,123,131,103,105,70,487,492,450
2025-02-20 16:24:34.101,1724.0,-1747.0,1730.0,109.0,74.0,82.0,126,133,104,106,67,488,495,456
2025-02-20 16:24:34.121,836.0,-1128.0,1315.0,36.0,177.0,58.0,125,132,103,105,64,394,488,459
2025-02-20 16:24:34.137,517.0,-1141.0,1171.0,-35.0,220.0,80.0,127,133,104,104,67,326,491,455
2025-02-20 16:24:34.156,436.0,-1021.0,815.0,-70.0,226.0,102.0,127,130,104,104,70,284,493,439
2025-02-20 16:24:34.176,277.0,-808.0,627.0,-86.0,202.0,102.0,126,129,103,100,75,431,422,471
2025-02-20 16:24:34.192,210.0,-1070.0,701.0,-105.0,195.0,104.0,126,133,103,97,78,489,441,507
2025-02-20 16:24:34.215,296.0,-1061.0,499.0,-67.0,191.0,139.0,124,133,102,96,78,539,541,507
2025-02-20 16:24:34.233,193.0,-796.0,554.0,-29.0,200.0,157.0,124,133,102,98,78,428,571,503
2025-02-20 16:24:34.253,161.0,-621.0,638.0,-62.0,241.0,169.0,122,133,103,98,74,394,427,483
2025-02-20 16:24:34.273,-49.0,-681.0,529.0,-56.0,268.0,208.0,123,132,103,100,70,422,380,476
2025-02-20 16:24:34.289,-150.0,-652.0,338.0,-5.0,258.0,236.0,124,131,102,102,69,485,409,498
2025-02-20 16:24:34.310,-110.0,-469.0,279.0,32.0,263.0,247.0,125,131,102,102,72,566,480,496
2025-02-20 16:24:34.329,-143.0,-331.0,207.0,79.0,291.0,246.0,126,130,103,102,73,561,459,493
2025-02-20 16:24:34.346,-376.0,-91.0,-79.0,136.0,283.0,240.0,126,130,103,100,73,464,450,500
2025-02-20 16:24:34.367,-745.0,469.0,-389.0,149.0,227.0,220.0,128,131,103,97,74,444,500,494
2025-02-20 16:24:34.387,-1191.0,1076.0,-1511.0,123.0,73.0,109.0,128,130,104,92,72,540,588,486
2025-02-20 16:24:34.405,-1675.0,1586.0,-1990.0,183.0,-184.0,-178.0,126,129,104,89,69,526,595,484
2025-02-20 16:24:34.424,-1072.0,2128.0,-1767.0,167.0,-436.0,-450.0,125,130,105,91,67,469,547,481
2025-02-20 16:24:34.442,-129.0,1230.0,-767.0,39.0,-697.0,-618.0,121,131,104,92,69,406,466,492
2025-02-20 16:24:34.461,1769.0,202.0,101.0,-102.0,-877.0,-597.0,120,133,104,92,72,512,392,479
2025-02-20 16:24:34.478,3658.0,-2861.0,999.0,-29.0,-801.0,-406.0,121,134,104,95,75,588,310,466
2025-02-20 16:24:34.496,3706.0,-3318.0,1965.0,207.0,-231.0,-86.0,123,133,104,100,78,531,310,472
2025-02-20 16:24:34.518,2625.0,-2269.0,2430.0,216.0,129.0,64.0,124,133,104,106,76,539,378,465
2025-02-20 16:24:34.539,905.0,-1301.0,2012.0,150.0,287.0,126.0,125,132,103,107,69,522,437,456
2025-02-20 16:24:34.556,350.0,-781.0,1298.0,42.0,260.0,123.0,125,130,102,109,73,517,494,481
2025-02-20 16:24:34.576,231.0,-751.0,982.0,-9.0,217.0,99.0,126,131,99,109,74,467,519,474
2025-02-20 16:24:34.593,104.0,-914.0,1040.0,-48.0,198.0,93.0,128,130,97,109,80,357,502,441
2025-02-20 16:24:34.612,138.0,-951.0,979.0,-49.0,206.0,120.0,129,129,89,105,82,430,451,469
2025-02-20 16:24:34.634,80.0,-867.0,898.0,-62.0,211.0,166.0,130,129,83,106,83,419,467,533
2025-02-20 16:24:34.650,78.0,-737.0,884.0,-53.0,240.0,188.0,128,128,75,105,83,475,584,518
2025-02-20 16:24:34.670,-94.0,-622.0,651.0,-45.0,250.0,216.0,131,124,66,104,78,496,543,492
2025-02-20 16:24:34.690,-165.0,-396.0,551.0,-44.0,258.0,234.0,132,120,63,103,73,467,393,472
2025-02-20 16:24:34.707,-358.0,-258.0,423.0,-17.0,260.0,225.0,132,118,59,100,68,373,360,484
2025-02-20 16:24:34.728,-218.0,-336.0,164.0,42.0,249.0,201.0,130,115,59,100,69,380,367,494
2025-02-20 16:24:34.748,-442.0,-73.0,-16.0,96.0,227.0,178.0,130,112,57,95,68,387,382,453
2025-02-20 16:24:34.764,-655.0,-75.0,-134.0,129.0,178.0,169.0,129,110,55,83,66,409,433,456
2025-02-20 16:24:34.785,-826.0,385.0,-838.0,203.0,89.0,114.0,117,107,54,74,63,402,488,485
2025-02-20 16:24:34.800,-1250.0,511.0,-1139.0,234.0,-52.0,2.0,105,98,52,70,60,488,500,492
2025-02-20 16:24:34.822,-1407.0,823.0,-1681.0,226.0,-337.0,-112.0,93,84,53,68,57,534,448,450
2025-02-20 16:24:34.843,-813.0,1057.0,-2178.0,173.0,-683.0,-196.0,84,80,51,66,56,514,443,447
2025-02-20 16:24:34.859,1527.0,405.0,-1596.0,178.0,-1012.0,-172.0,83,86,51,66,57,551,430,456
2025-02-20 16:24:34.879,3029.0,-325.0,-19.0,233.0,-1036.0,-87.0,85,91,51,66,59,543,405,463
2025-02-20 16:24:34.896,2858.0,-524.0,1403.0,318.0,-831.0,-9.0,89,97,51,68,61,531,365,470
2025-02-20 16:24:34.913,2603.0,88.0,3300.0,351.0,-496.0,42.0,101,100,51,69,65,606,410,470
2025-02-20 16:24:34.936,1987.0,955.0,3973.0,164.0,-164.0,30.0,106,102,51,71,66,614,508,455
2025-02-20 16:24:34.957,1664.0,617.0,3443.0,-96.0,209.0,5.0,108,104,52,72,68,505,561,452
2025-02-20 16:24:34.974,1286.0,322.0,2165.0,-202.0,381.0,-21.0,106,101,52,74,68,401,578,450
2025-02-20 16:24:34.993,954.0,40.0,1340.0,-205.0,436.0,-32.0,107,101,53,73,69,414,584,435
2025-02-20 16:24:35.004,707.0,-274.0,954.0,-169.0,428.0,-8.0,106,101,53,74,70,374,539,437
2025-02-20 16:24:35.031,310.0,-256.0,741.0,-143.0,370.0,34.0,104,103,53,74,68,411,523,460
2025-02-20 16:24:35.051,131.0,-85.0,804.0,-138.0,311.0,34.0,102,104,54,75,67,428,526,490
2025-02-20 16:24:35.068,49.0,-187.0,739.0,-140.0,273.0,35.0,102,104,54,75,68,395,577,482
2025-02-20 16:24:35.088,-111.0,-314.0,731.0,-121.0,245.0,46.0,102,105,53,74,68,349,523,443
2025-02-20 16:24:35.109,-119.0,-303.0,669.0,-106.0,247.0,66.0,108,104,55,75,68,367,430,438
2025-02-20 16:24:35.125,-284.0,-305.0,589.0,-101.0,239.0,89.0,106,104,56,76,69,401,367,448
2025-02-20 16:24:35.146,-373.0,-164.0,503.0,-74.0,208.0,84.0,106,106,55,76,68,369,342,457
2025-02-20 16:24:35.166,-330.0,-84.0,514.0,-41.0,199.0,40.0,106,106,56,76,69,387,397,479
2025-02-20 16:24:35.181,-436.0,-100.0,407.0,-38.0,183.0,28.0,107,106,56,77,68,426,445,494
2025-02-20 16:24:35.203,-436.0,-137.0,343.0,-29.0,168.0,39.0,108,107,57,76,69,434,498,501
2025-02-20 16:24:35.222,-606.0,-147.0,78.0,-30.0,126.0,60.0,108,108,55,76,69,540,504,513
2025-02-20 16:24:35.239,-925.0,347.0,-701.0,-13.0,34.0,14.0,101,106,55,75,66,594,458,505
2025-02-20 16:24:35.260,-1572.0,793.0,-1874.0,127.0,-205.0,-128.0,95,106,53,72,62,599,430,476
2025-02-20 16:24:35.279,-1419.0,984.0,-2338.0,212.0,-534.0,-233.0,88,110,53,70,59,587,441,468
2025-02-20 16:24:35.297,684.0,478.0,-2103.0,216.0,-905.0,-205.0,88,113,54,69,58,510,462,463
2025-02-20 16:24:35.315,2720.0,-146.0,-443.0,275.0,-1036.0,-136.0,90,116,54,70,60,483,422,465
2025-02-20 16:24:35.335,3433.0,-523.0,1332.0,385.0,-907.0,-49.0,95,118,54,69,62,506,360,462
2025-02-20 16:24:35.355,3342.0,-114.0,2632.0,415.0,-593.0,30.0,109,123,53,70,67,522,356,472
2025-02-20 16:24:35.375,2530.0,751.0,3989.0,237.0,-261.0,47.0,118,126,54,72,69,578,323,460
2025-02-20 16:24:35.392,1830.0,579.0,3654.0,-22.0,139.0,55.0,124,126,55,76,73,530,418,445
2025-02-20 16:24:35.412,1531.0,357.0,2326.0,-190.0,358.0,55.0,127,126,56,79,75,473,581,454
2025-02-20 16:24:35.431,1252.0,-20.0,1534.0,-216.0,463.0,60.0,129,125,57,84,78,483,662,464
2025-02-20 16:24:35.449,971.0,-288.0,962.0,-177.0,450.0,85.0,131,125,61,89,83,468,628,464
2025-02-20 16:24:35.466,758.0,-430.0,932.0,-143.0,422.0,135.0,130,124,64,92,85,441,539,458
2025-02-20 16:24:35.482,543.0,-244.0,975.0,-169.0,398.0,172.0,131,122,67,94,86,457,514,466
2025-02-20 16:24:35.506,262.0,116.0,888.0,-231.0,368.0,186.0,134,118,69,98,87,334,511,458
2025-02-20 16:24:35.526,112.0,44.0,794.0,-290.0,338.0,192.0,137,116,73,103,89,366,458,443
2025-02-20 16:24:35.543,-58.0,-190.0,892.0,-306.0,337.0,186.0,137,111,75,106,91,460,393,470
2025-02-20 16:24:35.563,64.0,-342.0,859.0,-206.0,405.0,185.0,137,103,76,106,93,494,375,496
2025-02-20 16:24:35.581,-35.0,-294.0,621.0,-96.0,442.0,163.0,137,91,75,106,92,473,412,510
2025-02-20 16:24:35.600,-319.0,40.0,226.0,-44.0,436.0,108.0,138,80,74,104,85,460,465,506
2025-02-20 16:24:35.621,-668.0,226.0,-117.0,-16.0,351.0,65.0,139,75,72,100,84,425,494,492
2025-02-20 16:24:35.638,-694.0,427.0,-393.0,13.0,255.0,41.0,138,69,68,94,80,422,514,487
2025-02-20 16:24:35.658,-700.0,663.0,-668.0,59.0,139.0,27.0,136,66,65,85,73,439,513,483
2025-02-20 16:24:35.678,-758.0,1092.0,-1251.0,147.0,40.0,-38.0,131,61,61,79,63,458,484,458
2025-02-20 16:24:35.698,-1686.0,1865.0,-2373.0,206.0,-195.0,-279.0,125,56,57,73,56,511,450,431
2025-02-20 16:24:35.715,-1603.0,2143.0,-3312.0,150.0,-530.0,-532.0,116,53,54,68,52,565,449,443
2025-02-20 16:24:35.735,1202.0,1047.0,-2863.0,148.0,-972.0,-586.0,108,52,53,65,53,526,424,449
2025-02-20 16:24:35.755,4314.0,-453.0,-893.0,144.0,-1141.0,-445.0,109,53,50,67,56,442,388,476
2025-02-20 16:24:35.773,5236.0,-2181.0,1512.0,327.0,-910.0,-259.0,115,52,50,65,59,467,341,475
2025-02-20 16:24:35.792,3899.0,-1673.0,3688.0,461.0,-450.0,-106.0,121,54,53,68,59,557,374,465
2025-02-20 16:24:35.810,2453.0,-590.0,4385.0,260.0,-36.0,-45.0,124,56,54,72,59,578,498,446
2025-02-20 16:24:35.830,1763.0,-278.0,3540.0,-69.0,252.0,6.0,124,56,54,72,59,560,560,434
2025-02-20 16:24:35.849,1321.0,-627.0,2149.0,-237.0,389.0,61.0,122,56,54,72,61,526,568,444
2025-02-20 16:24:35.867,853.0,-702.0,1370.0,-208.0,407.0,81.0,122,55,53,69,62,248,569,452
2025-02-20 16:24:35.887,596.0,-702.0,1084.0,-161.0,389.0,94.0,123,58,53,71,64,359,521,432
2025-02-20 16:24:35.907,471.0,-464.0,896.0,-198.0,382.0,115.0,122,57,52,71,65,384,471,477
2025-02-20 16:24:35.924,291.0,-353.0,725.0,-246.0,364.0,145.0,123,57,52,71,65,392,534,500
2025-02-20 16:24:35.944,-26.0,-331.0,440.0,-293.0,320.0,162.0,125,58,53,71,63,472,533,491
2025-02-20 16:24:35.961,-261.0,-520.0,334.0,-274.0,272.0,166.0,126,59,55,72,63,318,471,477
2025-02-20 16:24:35.981,-130.0,-544.0,440.0,-199.0,265.0,178.0,126,59,55,73,63,330,411,476
2025-02-20 16:24:36.002,-11.0,-526.0,326.0,-136.0,293.0,186.0,126,59,54,73,64,424,428,483
2025-02-20 16:24:36.019,-406.0,-323.0,1.0,-71.0,280.0,176.0,126,60,56,73,65,462,401,472
2025-02-20 16:24:36.038,-504.0,-95.0,-275.0,-18.0,225.0,174.0,126,60,56,72,64,486,449,463
2025-02-20 16:24:36.058,-511.0,329.0,-445.0,12.0,148.0,164.0,126,61,59,73,66,475,547,460
2025-02-20 16:24:36.076,-631.0,726.0,-684.0,41.0,77.0,143.0,125,61,59,74,67,497,564,461
2025-02-20 16:24:36.096,-697.0,1162.0,-1175.0,107.0,-11.0,38.0,124,61,60,73,67,597,512,450
2025-02-20 16:24:36.115,-1738.0,1908.0,-2273.0,290.0,-233.0,-206.0,120,60,56,73,59,651,475,437
2025-02-20 16:24:36.133,-1212.0,2248.0,-2966.0,292.0,-579.0,-466.0,116,58,56,73,55,642,471,425
2025-02-20 16:24:36.151,1344.0,1702.0,-2173.0,245.0,-1030.0,-566.0,118,57,56,72,57,575,471,434
2025-02-20 16:24:36.173,4894.0,-565.0,137.0,294.0,-1118.0,-453.0,120,56,55,72,60,520,404,465
2025-02-20 16:24:36.180,4820.0,-2676.0,3173.0,608.0,-686.0,-194.0,126,59,56,74,63,474,382,429
2025-02-20 16:24:36.211,2866.0,-376.0,4876.0,517.0,-167.0,-47.0,130,60,61,77,64,530,473,476
2025-02-20 16:24:36.227,1727.0,1602.0,4488.0,35.0,180.0,-67.0,132,60,59,79,62,488,530,488
2025-02-20 16:24:36.247,953.0,92.0,2553.0,-295.0,400.0,-40.0,131,62,59,79,67,476,524,448
2025-02-20 16:24:36.268,544.0,-574.0,920.0,-173.0,412.0,-57.0,130,62,58,79,68,476,450,417
2025-02-20 16:24:36.284,80.0,-873.0,572.0,71.0,338.0,-83.0,130,60,55,77,70,296,424,417
2025-02-20 16:24:36.305,-246.0,-272.0,280.0,126.0,240.0,-83.0,128,60,55,77,69,365,377,433
2025-02-20 16:24:36.325,-364.0,113.0,332.0,78.0,114.0,-100.0,131,59,55,77,68,396,421,462
2025-02-20 16:24:36.339,-282.0,-381.0,621.0,119.0,70.0,-93.0,134,61,55,77,69,594,520,463
2025-02-20 16:24:36.357,-136.0,-328.0,926.0,215.0,67.0,-83.0,134,61,57,77,69,550,560,465
2025-02-20 16:24:36.379,-95.0,13.0,995.0,203.0,90.0,-87.0,136,61,57,78,70,446,540,467
2025-02-20 16:24:36.398,-103.0,-93.0,1059.0,150.0,102.0,-82.0,137,60,56,77,67,449,456,471
2025-02-20 16:24:36.417,-86.0,-231.0,984.0,111.0,102.0,-66.0,139,61,56,78,67,462,422,462
2025-02-20 16:24:36.436,-131.0,-345.0,833.0,69.0,78.0,-47.0,138,60,57,78,67,477,395,455
2025-02-20 16:24:36.456,12.0,-556.0,848.0,43.0,21.0,-9.0,138,60,56,79,66,487,407,465
2025-02-20 16:24:36.476,270.0,-837.0,940.0,53.0,-25.0,35.0,140,60,55,78,66,485,442,463
2025-02-20 16:24:36.491,531.0,-1035.0,1343.0,49.0,-37.0,118.0,141,61,56,79,66,478,502,447
2025-02-20 16:24:36.514,802.0,-1422.0,1522.0,-44.0,-28.0,269.0,141,61,57,81,67,450,531,438
2025-02-20 16:24:36.533,1317.0,-2006.0,1589.0,-123.0,36.0,493.0,143,61,57,80,67,391,534,441
2025-02-20 16:24:36.550,1799.0,-1199.0,1463.0,-157.0,44.0,680.0,144,60,55,79,67,418,499,445
2025-02-20 16:24:36.569,1616.0,40.0,1688.0,-175.0,34.0,689.0,146,61,56,77,68,433,438,449
2025-02-20 16:24:36.591,1070.0,811.0,1744.0,-126.0,68.0,563.0,147,61,56,78,68,460,413,460
2025-02-20 16:24:36.605,582.0,1849.0,1438.0,-52.0,146.0,364.0,149,63,57,79,69,470,412,470
2025-02-20 16:24:36.628,129.0,2138.0,1053.0,-67.0,172.0,224.0,150,62,57,78,69,464,394,468
2025-02-20 16:24:36.645,-430.0,2526.0,763.0,-73.0,142.0,148.0,150,63,57,78,68,499,368,461
2025-02-20 16:24:36.665,-645.0,2984.0,748.0,-82.0,101.0,18.0,151,62,57,77,68,515,401,462
2025-02-20 16:24:36.685,-414.0,2348.0,743.0,-64.0,90.0,-106.0,150,63,57,77,67,523,462,473
2025-02-20 16:24:36.703,-314.0,1639.0,724.0,29.0,93.0,-190.0,151,63,57,77,67,483,485,481
2025-02-20 16:24:36.722,-285.0,1058.0,723.0,84.0,93.0,-273.0,151,63,56,77,65,468,482,480
2025-02-20 16:24:36.742,-223.0,641.0,661.0,125.0,57.0,-326.0,151,62,56,77,62,473,480,481
2025-02-20 16:24:36.759,-196.0,175.0,484.0,141.0,-2.0,-356.0,150,60,55,75,62,478,480,470
2025-02-20 16:24:36.779,-49.0,-144.0,549.0,201.0,-59.0,-347.0,150,61,56,76,63,445,493,447
2025-02-20 16:24:36.800,-67.0,-274.0,684.0,259.0,-87.0,-342.0,149,59,56,76,63,449,529,452
2025-02-20 16:24:36.817,80.0,-137.0,957.0,230.0,-132.0,-309.0,150,60,56,76,64,483,557,458
2025-02-20 16:24:36.837,202.0,-303.0,1317.0,124.0,-140.0,-260.0,149,60,57,78,64,477,544,455
2025-02-20 16:24:36.854,326.0,-609.0,1465.0,51.0,-95.0,-190.0,150,61,56,77,65,459,496,448
2025-02-20 16:24:36.871,338.0,-787.0,1364.0,44.0,-30.0,-142.0,150,62,57,77,66,435,439,437
2025-02-20 16:24:36.894,186.0,-1000.0,1157.0,60.0,-17.0,-81.0,150,62,56,78,66,415,399,415
2025-02-20 16:24:36.909,249.0,-787.0,1022.0,67.0,-30.0,-20.0,149,62,57,78,67,387,442,410
2025-02-20 16:24:36.931,300.0,-893.0,1077.0,57.0,-51.0,21.0,149,62,57,78,66,442,465,417
2025-02-20 16:24:36.952,650.0,-1679.0,1124.0,82.0,-63.0,178.0,150,61,56,78,65,431,493,436
2025-02-20 16:24:36.968,1040.0,-1601.0,1459.0,70.0,-9.0,344.0,149,61,56,77,65,413,493,451
2025-02-20 16:24:36.989,1697.0,-1607.0,1387.0,-7.0,73.0,616.0,150,59,55,75,64,440,515,471
2025-02-20 16:24:37.004,1586.0,88.0,1041.0,-93.0,67.0,666.0,149,61,55,75,64,450,530,495
2025-02-20 16:24:37.024,1224.0,640.0,1331.0,-118.0,52.0,585.0,150,61,56,75,64,441,490,497
2025-02-20 16:24:37.046,703.0,1564.0,1400.0,-105.0,121.0,472.0,150,63,57,76,67,388,467,475
2025-02-20 16:24:37.066,192.0,2276.0,1384.0,-36.0,138.0,304.0,149,63,56,74,66,437,437,484
2025-02-20 16:24:37.083,-42.0,2752.0,1426.0,-31.0,161.0,162.0,150,63,57,75,65,499,436,475
2025-02-20 16:24:37.103,-295.0,2760.0,1532.0,-83.0,177.0,58.0,150,63,57,76,65,548,439,470
2025-02-20 16:24:37.121,-125.0,2173.0,1699.0,-106.0,231.0,-41.0,150,65,58,76,65,596,388,471
2025-02-20 16:24:37.140,-45.0,1401.0,1593.0,-122.0,311.0,-77.0,150,66,58,77,67,630,378,505
2025-02-20 16:24:37.160,-90.0,622.0,1327.0,-125.0,357.0,-93.0,149,66,59,77,68,612,430,529
2025-02-20 16:24:37.175,-89.0,189.0,1108.0,-127.0,368.0,-108.0,148,63,57,77,68,574,479,497
2025-02-20 16:24:37.198,-51.0,-213.0,922.0,-99.0,400.0,-118.0,146,66,58,77,67,568,475,494
2025-02-20 16:24:37.217,-149.0,-152.0,591.0,-65.0,419.0,-125.0,145,65,58,77,69,531,463,482
2025-02-20 16:24:37.235,-556.0,-51.0,-13.0,-87.0,354.0,-132.0,143,65,60,77,70,486,448,447
2025-02-20 16:24:37.255,-550.0,-365.0,-19.0,-86.0,268.0,-133.0,140,66,60,76,76,398,460,428
2025-02-20 16:24:37.275,-162.0,-353.0,-69.0,3.0,240.0,-110.0,137,69,63,79,84,469,459,498
2025-02-20 16:24:37.290,-404.0,-221.0,104.0,96.0,243.0,-89.0,133,72,66,86,92,575,518,505
2025-02-20 16:24:37.312,-375.0,292.0,-446.0,162.0,184.0,-105.0,131,75,70,95,98,692,548,498
2025-02-20 16:24:37.332,-770.0,627.0,-1397.0,167.0,70.0,-149.0,127,79,73,108,101,653,546,476
2025-02-20 16:24:37.349,-941.0,542.0,-1431.0,166.0,-100.0,-214.0,126,83,77,110,101,516,500,459
2025-02-20 16:24:37.369,-890.0,876.0,-1553.0,233.0,-230.0,-328.0,127,88,81,114,105,437,453,450
2025-02-20 16:24:37.386,-934.0,1080.0,-1309.0,182.0,-396.0,-546.0,128,91,86,116,115,363,434,443
2025-02-20 16:24:37.406,-40.0,998.0,-1355.0,-3.0,-641.0,-694.0,127,98,90,119,120,338,406,440
2025-02-20 16:24:37.426,1843.0,553.0,-875.0,-123.0,-922.0,-615.0,124,106,92,122,123,262,409,438
2025-02-20 16:24:37.443,3346.0,-973.0,642.0,-272.0,-1004.0,-418.0,126,112,95,126,125,266,429,461
2025-02-20 16:24:37.464,3235.0,-2321.0,1106.0,-413.0,-907.0,-235.0,128,117,101,129,127,316,454,460
2025-02-20 16:24:37.484,3061.0,-3987.0,586.0,-306.0,-513.0,21.0,128,119,103,131,128,485,472,457
2025-02-20 16:24:37.501,2752.0,-3633.0,837.0,29.0,-33.0,134.0,130,122,103,132,130,485,572,445
2025-02-20 16:24:37.520,1625.0,-2209.0,484.0,172.0,172.0,87.0,131,118,102,131,130,449,552,456
2025-02-20 16:24:37.540,594.0,-1531.0,311.0,197.0,282.0,78.0,133,116,102,132,129,486,512,471
2025-02-20 16:24:37.558,277.0,-975.0,510.0,134.0,242.0,132.0,133,114,101,131,128,609,453,455
2025-02-20 16:24:37.579,288.0,-940.0,300.0,42.0,249.0,183.0,132,114,101,132,129,431,418,451
2025-02-20 16:24:37.595,311.0,-966.0,297.0,-27.0,173.0,190.0,133,117,102,131,129,361,398,456
2025-02-20 16:24:37.616,269.0,-1023.0,438.0,-93.0,156.0,171.0,132,120,100,133,129,425,355,447
2025-02-20 16:24:37.636,249.0,-909.0,702.0,-86.0,218.0,154.0,131,122,102,133,131,437,439,448
2025-02-20 16:24:37.652,-115.0,-991.0,468.0,-58.0,149.0,211.0,130,121,103,132,131,568,604,463
2025-02-20 16:24:37.673,-23.0,-743.0,322.0,-56.0,161.0,227.0,131,121,103,132,131,570,602,470
2025-02-20 16:24:37.691,-100.0,-592.0,504.0,-157.0,187.0,253.0,130,121,102,132,130,541,522,456
2025-02-20 16:24:37.710,-111.0,-463.0,397.0,-215.0,215.0,269.0,132,120,102,132,131,477,438,447
2025-02-20 16:24:37.730,-141.0,-326.0,471.0,-112.0,184.0,272.0,134,116,104,132,129,390,362,444
2025-02-20 16:24:37.750,-483.0,-286.0,-97.0,-35.0,178.0,287.0,132,113,102,132,129,416,365,444
2025-02-20 16:24:37.767,-357.0,263.0,185.0,171.0,182.0,286.0,133,111,102,132,129,453,397,438
2025-02-20 16:24:37.788,-322.0,979.0,-94.0,394.0,175.0,207.0,132,104,101,131,128,470,410,451
2025-02-20 16:24:37.808,-1123.0,1634.0,-1299.0,427.0,-35.0,-2.0,133,110,102,131,130,535,472,467
2025-02-20 16:24:37.824,-2076.0,2323.0,-1990.0,346.0,-132.0,-284.0,131,113,101,131,132,578,493,478
2025-02-20 16:24:37.842,-892.0,2168.0,-1867.0,128.0,-464.0,-613.0,133,117,103,132,133,544,469,481
2025-02-20 16:24:37.861,655.0,960.0,-843.0,-108.0,-775.0,-707.0,129,118,103,132,133,433,450,468
2025-02-20 16:24:37.882,2659.0,-1455.0,70.0,-83.0,-896.0,-461.0,125,121,104,132,133,427,441,465
2025-02-20 16:24:37.902,3925.0,-2405.0,744.0,-22.0,-758.0,-180.0,129,123,105,133,133,466,383,450
2025-02-20 16:24:37.919,3362.0,-3402.0,1854.0,-106.0,-502.0,6.0,133,124,106,134,134,486,386,442
2025-02-20 16:24:37.938,2056.0,-3123.0,1480.0,49.0,-5.0,44.0,136,123,106,134,133,447,448,433
2025-02-20 16:24:37.956,1010.0,-2045.0,790.0,169.0,186.0,38.0,135,119,105,134,132,444,507,441
2025-02-20 16:24:37.976,331.0,-1172.0,855.0,189.0,218.0,47.0,137,117,104,134,132,328,531,448
2025-02-20 16:24:37.992,291.0,-776.0,774.0,87.0,250.0,41.0,137,115,103,134,131,299,577,444
2025-02-20 16:24:38.013,67.0,-884.0,783.0,29.0,171.0,42.0,137,115,101,132,130,226,518,426
2025-02-20 16:24:38.034,270.0,-828.0,807.0,5.0,243.0,21.0,137,118,101,135,130,347,427,456
2025-02-20 16:24:38.053,59.0,-990.0,610.0,58.0,191.0,22.0,137,119,100,132,127,455,530,494
2025-02-20 16:24:38.071,123.0,-810.0,883.0,119.0,219.0,18.0,137,119,98,130,121,450,483,512
2025-02-20 16:24:38.089,-161.0,-667.0,615.0,173.0,219.0,21.0,137,115,94,127,115,437,414,508
2025-02-20 16:24:38.111,-327.0,-355.0,417.0,209.0,216.0,8.0,138,111,90,126,108,371,362,501
2025-02-20 16:24:38.127,-402.0,-229.0,341.0,223.0,190.0,-19.0,137,106,89,127,101,447,404,478
2025-02-20 16:24:38.148,-435.0,-383.0,206.0,300.0,162.0,-52.0,137,97,85,128,95,483,446,480
2025-02-20 16:24:38.161,-174.0,-616.0,277.0,326.0,127.0,-54.0,137,89,81,128,87,512,451,478
2025-02-20 16:24:38.185,-339.0,-222.0,218.0,405.0,98.0,-86.0,136,82,76,123,81,444,479,475
2025-02-20 16:24:38.205,-265.0,-348.0,264.0,443.0,50.0,-99.0,135,72,69,111,77,452,536,464
2025-02-20 16:24:38.222,134.0,-523.0,488.0,402.0,1.0,-63.0,136,65,62,101,70,485,564,430
2025-02-20 16:24:38.242,452.0,-880.0,1011.0,310.0,-28.0,32.0,137,60,59,93,65,501,534,412
2025-02-20 16:24:38.262,801.0,-1148.0,1549.0,160.0,-23.0,164.0,141,60,58,89,62,468,485,413
2025-02-20 16:24:38.280,1359.0,-1804.0,1939.0,36.0,47.0,413.0,143,58,57,85,61,484,428,432
2025-02-20 16:24:38.299,1887.0,-1442.0,1864.0,-45.0,133.0,591.0,145,57,56,81,59,491,436,441
2025-02-20 16:24:38.320,1382.0,228.0,1448.0,-97.0,132.0,621.0,146,57,56,81,58,461,520,441
2025-02-20 16:24:38.336,762.0,1008.0,1401.0,-147.0,119.0,524.0,147,59,57,80,60,442,520,441
2025-02-20 16:24:38.357,55.0,2122.0,1218.0,-161.0,135.0,350.0,148,60,59,80,61,463,469,445
2025-02-20 16:24:38.377,-291.0,2250.0,1029.0,-120.0,135.0,157.0,149,60,60,81,62,522,439,453
2025-02-20 16:24:38.394,-591.0,2303.0,1010.0,-64.0,119.0,64.0,149,62,60,81,63,539,443,458
2025-02-20 16:24:38.414,-676.0,2365.0,1011.0,-30.0,100.0,-77.0,150,62,60,80,63,549,489,467
2025-02-20 16:24:38.433,-532.0,1897.0,974.0,-22.0,104.0,-171.0,150,64,60,83,63,538,493,475
2025-02-20 16:24:38.451,-420.0,1302.0,847.0,-8.0,96.0,-250.0,149,63,60,83,63,474,466,475
2025-02-20 16:24:38.471,-294.0,577.0,670.0,5.0,53.0,-265.0,150,63,60,82,64,422,434,469
2025-02-20 16:24:38.488,-296.0,333.0,606.0,14.0,6.0,-291.0,149,63,60,82,64,387,417,456
2025-02-20 16:24:38.509,-141.0,67.0,661.0,35.0,-40.0,-327.0,149,62,59,82,64,394,406,453
2025-02-20 16:24:38.529,-15.0,-246.0,760.0,75.0,-57.0,-312.0,147,62,61,83,65,421,394,451
2025-02-20 16:24:38.545,91.0,-267.0,887.0,87.0,-39.0,-281.0,146,63,61,84,66,442,390,465
2025-02-20 16:24:38.565,-68.0,-150.0,944.0,56.0,-26.0,-246.0,147,63,60,84,67,441,390,461
2025-02-20 16:24:38.585,-15.0,-408.0,957.0,26.0,-21.0,-229.0,145,63,60,85,68,474,400,472
2025-02-20 16:24:38.603,54.0,-771.0,896.0,20.0,-13.0,-191.0,146,62,60,84,70,494,413,459
2025-02-20 16:24:38.623,166.0,-1095.0,727.0,65.0,-9.0,-131.0,145,61,60,85,71,510,487,466
2025-02-20 16:24:38.640,165.0,-1032.0,648.0,99.0,-19.0,-54.0,144,62,61,85,71,431,503,467
2025-02-20 16:24:38.660,159.0,-1129.0,553.0,75.0,-77.0,8.0,143,63,59,86,70,394,465,459
2025-02-20 16:24:38.680,405.0,-1745.0,514.0,50.0,-173.0,151.0,143,61,58,85,70,355,437,447
2025-02-20 16:24:38.697,982.0,-2078.0,1023.0,1.0,-187.0,338.0,144,61,59,85,71,371,451,451
2025-02-20 16:24:38.717,1556.0,-2143.0,1447.0,-22.0,-76.0,539.0,145,62,58,85,67,387,463,457
2025-02-20 16:24:38.737,1441.0,-389.0,1251.0,-77.0,-36.0,593.0,147,62,58,83,66,440,486,465
2025-02-20 16:24:38.754,873.0,417.0,1180.0,-172.0,-80.0,527.0,147,64,58,80,64,485,527,481
2025-02-20 16:24:38.775,712.0,679.0,1415.0,-149.0,-114.0,430.0,148,65,55,79,64,464,539,490
2025-02-20 16:24:38.791,509.0,1254.0,1844.0,-90.0,-62.0,324.0,148,64,58,78,64,504,535,502
2025-02-20 16:24:38.811,208.0,1730.0,2140.0,-45.0,9.0,195.0,149,63,58,77,66,483,532,501
2025-02-20 16:24:38.832,-206.0,2218.0,2218.0,-56.0,67.0,106.0,149,64,59,78,66,511,519,502
2025-02-20 16:24:38.852,-308.0,2101.0,2077.0,-116.0,114.0,9.0,148,65,59,78,66,619,504,516
2025-02-20 16:24:38.869,-50.0,951.0,1923.0,-133.0,181.0,-41.0,151,65,60,80,65,654,456,535
2025-02-20 16:24:38.889,30.0,270.0,1567.0,-114.0,243.0,-39.0,149,66,60,80,65,629,421,539
2025-02-20 16:24:38.906,56.0,-160.0,1274.0,-123.0,278.0,-46.0,149,66,60,79,64,567,385,512
2025-02-20 16:24:38.926,252.0,-560.0,1179.0,-153.0,325.0,-34.0,149,66,61,81,66,517,378,480
2025-02-20 16:24:38.946,60.0,-638.0,843.0,-166.0,354.0,-30.0,148,67,62,82,66,419,385,437
2025-02-20 16:24:38.963,-86.0,-609.0,581.0,-170.0,375.0,-26.0,149,67,64,85,68,397,417,449
2025-02-20 16:24:38.983,-190.0,-570.0,329.0,-160.0,378.0,-27.0,146,70,67,85,68,412,438,506
2025-02-20 16:24:39.003,-192.0,-628.0,60.0,-129.0,389.0,-17.0,147,71,69,83,69,460,494,542
2025-02-20 16:24:39.021,-459.0,-711.0,-429.0,-48.0,332.0,-19.0,147,78,72,81,68,541,513,522
2025-02-20 16:24:39.041,-522.0,-513.0,-312.0,-7.0,261.0,-6.0,144,83,75,81,69,592,549,480
2025-02-20 16:24:39.058,-472.0,-29.0,-178.0,61.0,218.0,2.0,145,89,79,81,72,556,563,471
2025-02-20 16:24:39.078,-572.0,160.0,-189.0,119.0,206.0,-12.0,144,94,81,81,73,526,534,463
2025-02-20 16:24:39.097,-579.0,498.0,-519.0,184.0,186.0,-40.0,143,98,84,83,74,489,527,450
2025-02-20 16:24:39.118,-882.0,1079.0,-1181.0,192.0,103.0,-106.0,143,101,86,83,74,431,511,436
2025-02-20 16:24:39.132,-1099.0,1518.0,-1586.0,246.0,-65.0,-276.0,140,105,91,85,74,396,495,429
2025-02-20 16:24:39.156,-1079.0,1353.0,-1663.0,284.0,-278.0,-467.0,136,108,95,88,71,347,444,426
2025-02-20 16:24:39.175,-350.0,1101.0,-1227.0,313.0,-544.0,-630.0,131,112,100,91,70,346,446,455
2025-02-20 16:24:39.193,1182.0,881.0,-497.0,104.0,-834.0,-669.0,126,115,102,94,74,365,422,463
2025-02-20 16:24:39.212,3644.0,-634.0,423.0,-129.0,-974.0,-596.0,122,121,104,99,77,266,360,460
2025-02-20 16:24:39.231,4119.0,-3353.0,1685.0,-181.0,-713.0,-277.0,125,124,104,101,77,284,374,456
2025-02-20 16:24:39.251,4044.0,-4196.0,1853.0,-49.0,-242.0,34.0,126,127,105,102,75,364,442,449
2025-02-20 16:24:39.270,2456.0,-2817.0,1427.0,112.0,156.0,198.0,128,126,105,98,69,380,551,467
2025-02-20 16:24:39.286,954.0,-1368.0,894.0,77.0,232.0,182.0,131,125,106,95,65,411,576,460
2025-02-20 16:24:39.306,327.0,-1117.0,548.0,6.0,190.0,170.0,130,124,106,96,66,423,518,439
2025-02-20 16:24:39.327,146.0,-1042.0,392.0,-58.0,100.0,192.0,131,124,107,98,69,446,430,428
2025-02-20 16:24:39.344,108.0,-903.0,594.0,-69.0,68.0,197.0,131,125,107,100,75,495,422,450
2025-02-20 16:24:39.362,204.0,-831.0,765.0,-49.0,95.0,173.0,133,128,107,101,78,545,429,463
2025-02-20 16:24:39.381,159.0,-882.0,510.0,-4.0,152.0,165.0,133,127,108,103,78,560,488,493
2025-02-20 16:24:39.399,139.0,-836.0,551.0,36.0,193.0,184.0,132,127,107,100,79,564,551,510
2025-02-20 16:24:39.421,-65.0,-632.0,426.0,42.0,215.0,209.0,133,126,108,96,77,566,501,496
2025-02-20 16:24:39.438,-94.0,-373.0,488.0,0.0,220.0,229.0,134,126,107,93,74,479,474,492
2025-02-20 16:24:39.458,-70.0,-330.0,419.0,0.0,236.0,226.0,134,125,108,91,72,379,421,476
2025-02-20 16:24:39.479,-158.0,-310.0,380.0,39.0,254.0,220.0,134,125,108,91,67,517,376,458
2025-02-20 16:24:39.496,-349.0,-83.0,274.0,32.0,240.0,213.0,135,125,107,90,75,527,440,456
2025-02-20 16:24:39.516,-491.0,100.0,23.0,5.0,198.0,200.0,137,124,107,88,75,513,494,471
2025-02-20 16:24:39.536,-615.0,755.0,-224.0,-24.0,170.0,207.0,136,124,108,84,77,511,497,477
2025-02-20 16:24:39.553,-1181.0,1367.0,-1292.0,30.0,63.0,58.0,137,124,107,82,78,509,440,466
2025-02-20 16:24:39.573,-1642.0,1837.0,-1861.0,135.0,-117.0,-258.0,137,123,108,83,76,451,423,462
2025-02-20 16:24:39.594,-1126.0,2021.0,-1747.0,148.0,-399.0,-483.0,136,123,108,85,73,456,437,452
2025-02-20 16:24:39.610,-286.0,1324.0,-1013.0,72.0,-701.0,-630.0,135,124,108,89,77,514,411,470
2025-02-20 16:24:39.630,2824.0,390.0,-482.0,-100.0,-978.0,-668.0,135,127,109,100,83,492,348,482
2025-02-20 16:24:39.648,4966.0,-3035.0,1329.0,-111.0,-791.0,-542.0,136,127,109,107,85,541,336,487
2025-02-20 16:24:39.664,3936.0,-4262.0,2085.0,242.0,-189.0,-98.0,137,128,108,107,88,593,430,466
2025-02-20 16:24:39.688,2471.0,-2162.0,1904.0,240.0,204.0,150.0,138,128,108,105,80,553,506,443
2025-02-20 16:24:39.705,522.0,-534.0,1695.0,99.0,234.0,156.0,138,126,107,103,73,473,529,430
2025-02-20 16:24:39.725,-304.0,-233.0,976.0,-52.0,143.0,74.0,139,125,108,103,75,417,571,443
2025-02-20 16:24:39.744,-28.0,-619.0,745.0,-104.0,115.0,-8.0,138,124,108,101,81,272,576,427
2025-02-20 16:24:39.755,201.0,-1299.0,771.0,39.0,157.0,-6.0,139,126,107,101,85,331,503,466
2025-02-20 16:24:39.782,324.0,-1019.0,757.0,192.0,213.0,9.0,139,125,106,100,87,370,482,484
2025-02-20 16:24:39.799,144.0,-518.0,726.0,224.0,231.0,5.0,138,121,101,103,88,454,581,515
2025-02-20 16:24:39.819,-101.0,-349.0,710.0,190.0,223.0,-11.0,140,112,93,104,87,514,567,510
2025-02-20 16:24:39.839,-152.0,-587.0,730.0,207.0,216.0,-28.0,139,99,84,104,87,479,461,487
2025-02-20 16:24:39.857,-189.0,-744.0,478.0,262.0,210.0,-22.0,138,92,77,108,85,540,385,481
2025-02-20 16:24:39.876,-167.0,-786.0,288.0,363.0,210.0,-8.0,140,85,75,107,82,591,338,483
2025-02-20 16:24:39.896,-292.0,-367.0,227.0,375.0,154.0,-20.0,140,76,69,106,83,454,378,489
2025-02-20 16:24:39.914,-344.0,-443.0,416.0,343.0,87.0,-28.0,140,71,64,104,80,390,475,474
2025-02-20 16:24:39.933,-1149.0,-1485.0,500.0,297.0,43.0,15.0,140,69,61,99,81,349,522,468
2025-02-20 16:24:39.954,-177.0,-612.0,841.0,245.0,-12.0,57.0,140,67,59,96,77,406,523,468
2025-02-20 16:24:39.971,559.0,-883.0,1422.0,128.0,2.0,179.0,143,64,58,91,74,433,484,470
2025-02-20 16:24:39.990,1115.0,-1800.0,1808.0,25.0,78.0,373.0,144,64,58,89,69,408,476,462
2025-02-20 16:24:40.011,1829.0,-2068.0,1834.0,-42.0,141.0,599.0,144,64,58,85,66,457,462,450
2025-02-20 16:24:40.029,1781.0,-491.0,1521.0,-89.0,167.0,696.0,146,65,57,82,64,542,458,463
2025-02-20 16:24:40.047,810.0,1121.0,1340.0,-125.0,153.0,625.0,148,66,58,80,66,517,446,470
2025-02-20 16:24:40.066,-218.0,2500.0,654.0,-99.0,113.0,307.0,148,69,59,81,67,391,422,454
2025-02-20 16:24:40.084,-149.0,2294.0,539.0,-58.0,69.0,169.0,149,69,60,82,68,362,410,444
2025-02-20 16:24:40.105,-641.0,2839.0,591.0,-66.0,25.0,82.0,148,69,60,84,69,414,419,444
2025-02-20 16:24:40.121,-615.0,2895.0,747.0,-55.0,-11.0,-92.0,150,71,61,83,70,440,442,440
2025-02-20 16:24:40.142,-248.0,2061.0,1017.0,-48.0,-9.0,-190.0,150,72,63,85,71,528,472,446
2025-02-20 16:24:40.162,-104.0,1051.0,1037.0,-35.0,6.0,-253.0,149,73,62,85,72,521,513,457
2025-02-20 16:24:40.180,41.0,440.0,971.0,-27.0,11.0,-258.0,150,72,63,87,72,499,528,460
2025-02-20 16:24:40.200,39.0,127.0,949.0,-34.0,18.0,-260.0,149,72,63,86,71,463,498,449
2025-02-20 16:24:40.217,-46.0,-88.0,861.0,-10.0,18.0,-288.0,149,73,62,88,72,413,490,440
2025-02-20 16:24:40.234,-69.0,-485.0,730.0,36.0,-7.0,-273.0,150,72,63,87,71,423,521,425
2025-02-20 16:24:40.257,-146.0,-432.0,682.0,84.0,-34.0,-228.0,149,72,64,88,71,431,436,425
2025-02-20 16:24:40.274,-198.0,-333.0,822.0,74.0,-52.0,-194.0,149,72,63,88,72,449,400,430
2025-02-20 16:24:40.295,-110.0,-307.0,902.0,43.0,-55.0,-190.0,149,72,66,89,73,459,383,433
2025-02-20 16:24:40.314,-76.0,-470.0,915.0,29.0,-53.0,-176.0,149,73,64,90,75,474,441,445
2025-02-20 16:24:40.330,27.0,-818.0,842.0,60.0,-42.0,-106.0,149,73,64,92,75,503,516,459
2025-02-20 16:24:40.352,-18.0,-758.0,880.0,67.0,-42.0,-61.0,149,73,64,91,76,509,516,472
2025-02-20 16:24:40.368,409.0,-1502.0,868.0,87.0,-45.0,18.0,149,72,63,90,75,496,487,469
2025-02-20 16:24:40.388,1132.0,-2598.0,1168.0,159.0,5.0,243.0,150,71,63,90,75,558,484,477
2025-02-20 16:24:40.409,1223.0,-1841.0,1215.0,145.0,51.0,425.0,150,71,62,89,74,575,462,486
2025-02-20 16:24:40.429,953.0,-244.0,1129.0,-19.0,23.0,523.0,150,72,61,88,72,523,433,477
2025-02-20 16:24:40.446,670.0,370.0,1189.0,-164.0,-22.0,526.0,150,71,62,87,70,389,438,451
2025-02-20 16:24:40.466,667.0,1074.0,1399.0,-152.0,13.0,487.0,151,72,62,86,69,375,424,488
2025-02-20 16:24:40.484,-238.0,2869.0,1080.0,-102.0,56.0,280.0,151,74,63,86,68,447,424,492
2025-02-20 16:24:40.502,-278.0,2932.0,1369.0,-91.0,31.0,105.0,151,76,63,86,70,454,415,490
2025-02-20 16:24:40.524,-313.0,2469.0,1670.0,-107.0,34.0,-6.0,152,75,65,87,74,504,400,485
2025-02-20 16:24:40.538,-161.0,1713.0,1701.0,-111.0,72.0,-90.0,152,78,65,89,76,558,448,491
2025-02-20 16:24:40.560,108.0,373.0,1721.0,-102.0,141.0,-106.0,152,79,66,90,77,582,498,530
2025-02-20 16:24:40.581,176.0,-222.0,1651.0,-81.0,239.0,-80.0,152,82,67,90,76,596,506,534
2025-02-20 16:24:40.597,70.0,-303.0,1402.0,-118.0,275.0,-64.0,152,79,67,90,76,541,513,503
2025-02-20 16:24:40.618,-29.0,-472.0,1230.0,-203.0,287.0,-51.0,152,77,67,90,76,473,472,462
2025-02-20 16:24:40.638,-91.0,-563.0,892.0,-237.0,309.0,-29.0,153,77,68,89,77,458,431,448
2025-02-20 16:24:40.654,-274.0,-530.0,693.0,-254.0,321.0,-13.0,152,77,68,89,77,473,405,450
2025-02-20 16:24:40.675,-185.0,-563.0,569.0,-221.0,353.0,6.0,151,79,69,88,77,501,480,461
2025-02-20 16:24:40.691,-254.0,-483.0,283.0,-161.0,381.0,20.0,149,78,69,85,78,522,533,485
2025-02-20 16:24:40.713,-663.0,-169.0,-22.0,-110.0,344.0,-1.0,145,78,70,83,78,584,574,517
2025-02-20 16:24:40.732,-625.0,250.0,-92.0,-89.0,292.0,-12.0,143,76,68,80,78,609,556,520
2025-02-20 16:24:40.749,-725.0,597.0,-297.0,-54.0,236.0,-43.0,142,74,67,77,79,578,511,503
2025-02-20 16:24:40.769,-794.0,905.0,-624.0,15.0,169.0,-84.0,140,74,65,76,77,502,440,492
2025-02-20 16:24:40.786,-805.0,1356.0,-628.0,50.0,92.0,-148.0,138,70,64,73,75,488,388,466
2025-02-20 16:24:40.803,-1027.0,1630.0,-1674.0,134.0,9.0,-292.0,132,65,58,73,66,490,391,432
2025-02-20 16:24:40.827,-952.0,1960.0,-1950.0,252.0,-196.0,-503.0,119,60,56,74,58,427,408,419
2025-02-20 16:24:40.847,-378.0,1500.0,-2430.0,306.0,-569.0,-649.0,113,58,55,73,55,373,435,413
2025-02-20 16:24:40.858,1705.0,503.0,-1784.0,252.0,-857.0,-681.0,114,55,53,70,56,376,443,431
2025-02-20 16:24:40.882,4723.0,-1087.0,-601.0,289.0,-1058.0,-509.0,115,55,52,72,60,349,428,448
2025-02-20 16:24:40.904,5400.0,-3635.0,3357.0,583.0,-681.0,-179.0,122,58,53,72,62,307,440,466
2025-02-20 16:24:40.921,3265.0,-1068.0,4218.0,516.0,9.0,-45.0,126,60,52,72,60,399,522,452
2025-02-20 16:24:40.941,1706.0,-246.0,3504.0,226.0,256.0,-91.0,128,61,54,75,58,461,582,458
2025-02-20 16:24:40.958,1049.0,-622.0,2146.0,-6.0,334.0,25.0,129,61,53,74,60,487,584,447
2025-02-20 16:24:40.978,638.0,-605.0,1320.0,-168.0,279.0,71.0,126,62,54,72,61,323,560,381
2025-02-20 16:24:40.998,292.0,-675.0,990.0,-205.0,210.0,92.0,125,61,55,72,62,311,500,390
2025-02-20 16:24:41.016,151.0,-961.0,991.0,-220.0,210.0,130.0,126,62,56,76,64,462,456,440
2025-02-20 16:24:41.034,259.0,-830.0,883.0,-245.0,240.0,176.0,129,63,56,79,66,512,464,480
2025-02-20 16:24:41.054,-26.0,-589.0,749.0,-230.0,238.0,194.0,130,63,55,76,68,556,504,516
2025-02-20 16:24:41.071,-157.0,-504.0,573.0,-210.0,208.0,178.0,131,64,55,75,66,534,460,538
2025-02-20 16:24:41.093,-129.0,-440.0,596.0,-203.0,205.0,178.0,134,65,56,78,65,407,452,510
2025-02-20 16:24:41.113,-28.0,-540.0,629.0,-194.0,266.0,189.0,135,66,58,80,66,399,431,480
2025-02-20 16:24:41.130,-361.0,-493.0,199.0,-129.0,275.0,193.0,136,67,59,80,70,396,432,462
2025-02-20 16:24:41.150,-492.0,-490.0,259.0,-62.0,227.0,205.0,137,68,59,81,71,490,483,458
2025-02-20 16:24:41.168,-219.0,-174.0,217.0,-13.0,234.0,206.0,136,68,59,81,72,534,490,464
2025-02-20 16:24:41.187,-583.0,171.0,-95.0,5.0,234.0,195.0,136,68,59,79,72,480,502,466
2025-02-20 16:24:41.207,-789.0,838.0,-440.0,47.0,183.0,162.0,137,68,59,79,72,419,506,455
2025-02-20 16:24:41.225,-1033.0,1069.0,-1022.0,84.0,82.0,107.0,136,67,58,77,72,411,461,437
2025-02-20 16:24:41.245,-1442.0,1776.0,-1697.0,212.0,-95.0,-72.0,136,66,57,74,65,379,433,427
2025-02-20 16:24:41.265,-1477.0,2458.0,-2144.0,266.0,-338.0,-347.0,133,63,55,73,61,306,396,437
2025-02-20 16:24:41.282,-324.0,1737.0,-2027.0,218.0,-701.0,-553.0,133,62,55,74,62,403,390,436
2025-02-20 16:24:41.301,1814.0,614.0,-988.0,146.0,-967.0,-558.0,133,61,54,75,64,516,352,439
2025-02-20 16:24:41.322,4454.0,-1494.0,652.0,127.0,-1009.0,-355.0,136,62,55,77,69,570,306,431
2025-02-20 16:24:41.339,3960.0,-3714.0,3479.0,417.0,-446.0,-25.0,139,62,55,77,72,586,394,460
2025-02-20 16:24:41.359,2633.0,-891.0,3797.0,277.0,55.0,19.0,141,64,57,77,69,661,481,468
2025-02-20 16:24:41.377,1174.0,-476.0,2794.0,47.0,263.0,-23.0,142,64,57,78,68,601,504,456
2025-02-20 16:24:41.397,568.0,-967.0,1442.0,-41.0,275.0,47.0,141,64,57,79,70,463,526,450
2025-02-20 16:24:41.416,232.0,-1059.0,933.0,-12.0,227.0,92.0,140,65,59,80,73,351,546,435
2025-02-20 16:24:41.434,95.0,-1141.0,767.0,50.0,180.0,139.0,141,66,57,84,76,255,507,362
2025-02-20 16:24:41.454,98.0,-797.0,777.0,39.0,177.0,197.0,141,66,58,84,77,192,406,396
2025-02-20 16:24:41.474,39.0,-538.0,625.0,11.0,161.0,230.0,140,67,58,84,76,313,484,490
2025-02-20 16:24:41.490,-282.0,-433.0,592.0,-29.0,114.0,284.0,142,67,58,82,77,516,565,534
2025-02-20 16:24:41.508,-25.0,-465.0,634.0,-20.0,55.0,309.0,143,67,60,85,77,568,580,528
2025-02-20 16:24:41.530,-63.0,-154.0,792.0,-6.0,57.0,304.0,143,68,59,87,79,491,448,510
2025-02-20 16:24:41.548,-267.0,39.0,707.0,52.0,92.0,249.0,144,69,61,92,84,419,363,516
2025-02-20 16:24:41.568,-359.0,139.0,670.0,123.0,103.0,194.0,143,69,62,93,88,489,396,488
2025-02-20 16:24:41.586,-542.0,514.0,635.0,146.0,67.0,143.0,147,70,62,93,91,524,420,476
2025-02-20 16:24:41.606,-505.0,777.0,540.0,133.0,46.0,102.0,144,70,63,95,98,546,400,463
2025-02-20 16:24:41.625,-687.0,1540.0,347.0,92.0,26.0,36.0,143,71,65,98,103,482,408,455
2025-02-20 16:24:41.641,-1268.0,2394.0,28.0,72.0,-40.0,-142.0,144,72,66,100,115,442,454,441
2025-02-20 16:24:41.663,-1634.0,2569.0,-235.0,165.0,-107.0,-350.0,144,73,66,102,122,474,453,434
2025-02-20 16:24:41.677,-968.0,2179.0,-493.0,311.0,-247.0,-525.0,145,72,65,103,126,498,448,440
2025-02-20 16:24:41.699,276.0,1206.0,327.0,367.0,-391.0,-572.0,145,72,66,105,127,468,464,433
2025-02-20 16:24:41.720,1570.0,14.0,1413.0,406.0,-379.0,-478.0,146,73,67,112,126,395,478,429
2025-02-20 16:24:41.740,1871.0,-383.0,2115.0,305.0,-321.0,-328.0,147,73,69,114,127,361,451,448
2025-02-20 16:24:41.756,2034.0,-868.0,2859.0,110.0,-201.0,-104.0,146,74,70,116,127,354,464,449
2025-02-20 16:24:41.775,1667.0,-926.0,2774.0,-106.0,-33.0,49.0,147,74,72,118,127,387,465,439
2025-02-20 16:24:41.797,1245.0,-1033.0,1955.0,-193.0,75.0,143.0,147,75,70,116,128,411,408,445
2025-02-20 16:24:41.814,614.0,-851.0,1345.0,-96.0,139.0,193.0,147,74,70,115,128,445,402,467
2025-02-20 16:24:41.834,257.0,-399.0,1262.0,-3.0,152.0,228.0,146,75,70,115,128,425,519,474
2025-02-20 16:24:41.852,156.0,37.0,1236.0,-16.0,171.0,286.0,146,74,71,114,128,427,561,420
2025-02-20 16:24:41.872,147.0,317.0,1031.0,-92.0,163.0,304.0,146,75,71,115,128,447,540,400
2025-02-20 16:24:41.892,-234.0,514.0,823.0,-159.0,116.0,288.0,147,75,71,114,128,478,538,422
2025-02-20 16:24:41.908,-247.0,438.0,840.0,-161.0,71.0,254.0,146,75,71,113,129,466,531,443
2025-02-20 16:24:41.926,-193.0,373.0,613.0,-139.0,53.0,248.0,146,75,71,113,129,446,511,462
2025-02-20 16:24:41.949,-401.0,637.0,589.0,-124.0,20.0,230.0,147,75,71,114,128,500,514,497
2025-02-20 16:24:41.966,-440.0,930.0,705.0,-153.0,-10.0,162.0,146,75,71,112,128,515,494,499
2025-02-20 16:24:41.986,-491.0,960.0,708.0,-86.0,-16.0,74.0,146,76,71,112,129,506,445,514
2025-02-20 16:24:42.002,-483.0,921.0,659.0,1.0,5.0,11.0,148,76,71,111,131,480,410,522
2025-02-20 16:24:42.023,-511.0,1087.0,722.0,56.0,10.0,-34.0,146,76,71,112,130,453,396,518
2025-02-20 16:24:42.041,-664.0,1478.0,670.0,57.0,-21.0,-83.0,147,76,71,109,130,444,409,504
2025-02-20 16:24:42.063,-811.0,1700.0,676.0,83.0,-12.0,-201.0,148,76,71,109,132,472,398,493
2025-02-20 16:24:42.078,-648.0,1756.0,622.0,160.0,16.0,-347.0,148,76,72,107,131,529,411,490
2025-02-20 16:24:42.100,-556.0,1809.0,541.0,183.0,-30.0,-448.0,147,76,71,108,131,548,435,484
2025-02-20 16:24:42.117,168.0,991.0,525.0,180.0,-119.0,-553.0,145,73,68,110,131,540,477,486
2025-02-20 16:24:42.138,1243.0,127.0,919.0,162.0,-249.0,-529.0,146,71,67,108,129,529,526,491
2025-02-20 16:24:42.158,1930.0,-1499.0,1605.0,129.0,-277.0,-397.0,147,72,67,111,127,503,535,486
2025-02-20 16:24:42.175,1856.0,-1996.0,2080.0,64.0,-188.0,-99.0,146,73,68,111,124,490,530,475
2025-02-20 16:24:42.193,1414.0,-1252.0,2136.0,-129.0,-110.0,84.0,146,74,68,112,124,454,514,456
2025-02-20 16:24:42.215,940.0,-726.0,1782.0,-233.0,-51.0,165.0,146,73,69,112,122,409,458,464
2025-02-20 16:24:42.232,614.0,-489.0,1567.0,-243.0,-16.0,196.0,146,73,69,111,120,423,445,467
2025-02-20 16:24:42.252,407.0,-225.0,1739.0,-229.0,33.0,210.0,145,74,69,112,118,479,439,462
2025-02-20 16:24:42.272,376.0,-220.0,1891.0,-242.0,142.0,226.0,145,74,70,112,117,484,428,466
2025-02-20 16:24:42.289,318.0,-269.0,1616.0,-227.0,232.0,229.0,144,74,69,110,118,494,434,470
2025-02-20 16:24:42.309,122.0,-176.0,1940.0,-216.0,281.0,224.0,145,74,69,110,117,482,479,473
2025-02-20 16:24:42.326,184.0,2.0,1331.0,-263.0,319.0,208.0,145,74,68,109,118,439,516,486
2025-02-20 16:24:42.347,-54.0,-151.0,1004.0,-254.0,354.0,218.0,145,74,68,106,119,398,491,495
2025-02-20 16:24:42.367,-56.0,-137.0,765.0,-209.0,360.0,228.0,145,74,69,106,119,397,456,507
2025-02-20 16:24:42.384,-326.0,-85.0,498.0,-154.0,356.0,218.0,145,75,71,106,119,414,442,516
2025-02-20 16:24:42.403,-459.0,-38.0,118.0,-97.0,332.0,211.0,145,77,73,107,120,437,456,508
2025-02-20 16:24:42.424,-735.0,154.0,-88.0,-28.0,303.0,166.0,143,80,77,110,118,428,458,510
2025-02-20 16:24:42.441,-813.0,249.0,-304.0,-2.0,268.0,93.0,141,84,81,112,120,422,455,519
2025-02-20 16:24:42.461,-829.0,192.0,-127.0,-50.0,168.0,61.0,139,88,84,115,119,503,473,499
2025-02-20 16:24:42.481,-750.0,446.0,-297.0,-57.0,68.0,22.0,136,90,86,118,120,513,486,473
2025-02-20 16:24:42.495,-589.0,312.0,-320.0,4.0,3.0,15.0,133,91,87,119,121,472,496,446
2025-02-20 16:24:42.519,-657.0,992.0,-930.0,92.0,-76.0,-25.0,128,93,90,122,123,442,509,414
2025-02-20 16:24:42.538,-1209.0,1411.0,-1484.0,114.0,-224.0,-108.0,127,94,90,123,128,516,521,407
2025-02-20 16:24:42.555,-1348.0,1765.0,-1313.0,92.0,-394.0,-314.0,127,98,92,123,131,515,525,409
2025-02-20 16:24:42.575,-1008.0,1597.0,-1141.0,53.0,-539.0,-558.0,128,101,94,124,134,512,480,427
2025-02-20 16:24:42.593,296.0,1345.0,-855.0,-77.0,-704.0,-702.0,128,106,96,127,135,607,412,449
2025-02-20 16:24:42.613,1985.0,153.0,-376.0,-219.0,-857.0,-642.0,125,112,99,129,135,631,336,467
2025-02-20 16:24:42.633,3545.0,-1214.0,411.0,-368.0,-938.0,-400.0,128,114,103,131,134,580,303,474
2025-02-20 16:24:42.649,3281.0,-3327.0,433.0,-272.0,-695.0,-67.0,129,122,105,132,134,572,362,465
2025-02-20 16:24:42.670,2768.0,-4266.0,366.0,-147.0,-299.0,131.0,130,124,105,133,134,557,422,457
2025-02-20 16:24:42.690,2418.0,-3062.0,1001.0,70.0,-8.0,106.0,131,124,105,133,135,478,453,433
2025-02-20 16:24:42.707,935.0,-1981.0,687.0,174.0,172.0,77.0,132,122,106,134,135,405,520,439
2025-02-20 16:24:42.725,799.0,-972.0,-29.0,156.0,198.0,127.0,136,119,105,134,134,398,539,458
2025-02-20 16:24:42.745,138.0,-782.0,532.0,86.0,187.0,192.0,131,118,105,134,134,415,494,472
2025-02-20 16:24:42.764,28.0,-854.0,619.0,14.0,150.0,186.0,133,117,104,133,134,387,458,478
2025-02-20 16:24:42.784,169.0,-928.0,690.0,-1.0,159.0,143.0,133,119,105,133,135,429,423,497
2025-02-20 16:24:42.801,165.0,-1036.0,530.0,-2.0,201.0,126.0,133,122,105,135,135,473,484,496
2025-02-20 16:24:42.821,185.0,-1057.0,581.0,52.0,190.0,138.0,133,123,107,134,134,504,467,496
2025-02-20 16:24:42.841,213.0,-804.0,550.0,33.0,236.0,159.0,135,124,106,134,135,387,436,474
2025-02-20 16:24:42.859,93.0,-736.0,500.0,33.0,238.0,195.0,133,124,106,134,135,434,485,472
2025-02-20 16:24:42.878,71.0,-613.0,502.0,33.0,246.0,230.0,132,122,105,132,135,455,508,467
2025-02-20 16:24:42.899,-55.0,-445.0,348.0,5.0,257.0,237.0,132,119,104,133,134,408,455,461
2025-02-20 16:24:42.914,-347.0,62.0,213.0,-9.0,257.0,233.0,131,116,105,133,135,431,466,471
2025-02-20 16:24:42.936,-525.0,54.0,229.0,46.0,181.0,211.0,133,114,104,133,135,480,486,474
2025-02-20 16:24:42.949,-453.0,6.0,129.0,143.0,147.0,176.0,131,113,104,133,133,489,499,483
2025-02-20 16:24:42.974,-613.0,765.0,-92.0,241.0,145.0,102.0,130,112,104,133,135,512,511,466
2025-02-20 16:24:42.993,-1273.0,1346.0,-532.0,220.0,62.0,-35.0,129,112,105,133,136,590,481,458
2025-02-20 16:24:43.011,-1592.0,1648.0,-1086.0,145.0,-82.0,-241.0,127,113,104,133,136,528,439,453
2025-02-20 16:24:43.031,-1380.0,1322.0,-1101.0,99.0,-333.0,-439.0,127,114,105,134,136,475,451,458
2025-02-20 16:24:43.051,-333.0,1376.0,-557.0,55.0,-494.0,-601.0,125,117,105,133,137,367,410,459
2025-02-20 16:24:43.067,1065.0,730.0,-54.0,-155.0,-690.0,-644.0,117,121,106,134,137,447,362,465
2025-02-20 16:24:43.088,2626.0,-569.0,362.0,-458.0,-827.0,-574.0,116,123,106,134,136,422,354,470
2025-02-20 16:24:43.108,3253.0,-3122.0,-316.0,-396.0,-621.0,-257.0,115,124,106,136,136,425,359,471
2025-02-20 16:24:43.125,3155.0,-4930.0,-122.0,-71.0,-316.0,88.0,114,125,107,134,136,506,491,461
2025-02-20 16:24:43.145,2958.0,-3247.0,583.0,117.0,-15.0,98.0,117,122,107,134,135,450,572,451
2025-02-20 16:24:43.162,1219.0,-1857.0,746.0,291.0,237.0,55.0,119,119,104,135,134,460,580,453
2025-02-20 16:24:43.183,250.0,-1002.0,237.0,265.0,265.0,77.0,121,116,105,134,135,477,551,454
2025-02-20 16:24:43.203,82.0,-785.0,317.0,147.0,183.0,135.0,122,115,104,135,133,394,543,464
2025-02-20 16:24:43.222,31.0,-887.0,1316.0,125.0,171.0,133.0,122,115,104,134,135,359,497,458
2025-02-20 16:24:43.239,10.0,-1019.0,537.0,90.0,207.0,123.0,122,117,103,135,133,420,436,439
2025-02-20 16:24:43.260,181.0,-1061.0,569.0,109.0,126.0,141.0,122,119,102,134,134,510,455,445
2025-02-20 16:24:43.277,242.0,-798.0,674.0,98.0,219.0,176.0,122,116,95,128,133,329,464,461
2025-02-20 16:24:43.295,73.0,-967.0,633.0,84.0,222.0,255.0,122,108,86,122,127,440,483,459
2025-02-20 16:24:43.312,120.0,-875.0,341.0,119.0,187.0,324.0,123,98,77,119,118,403,453,457
2025-02-20 16:24:43.334,15.0,-603.0,220.0,166.0,126.0,383.0,126,82,68,116,115,548,493,462
2025-02-20 16:24:43.354,39.0,-130.0,-8.0,199.0,52.0,377.0,128,69,64,112,109,560,505,467
2025-02-20 16:24:43.373,129.0,-78.0,-214.0,205.0,-46.0,296.0,131,65,62,111,106,469,427,461
2025-02-20 16:24:43.391,-582.0,1051.0,10.0,208.0,-129.0,182.0,129,65,59,106,113,494,428,431
2025-02-20 16:24:43.409,-852.0,980.0,641.0,251.0,-161.0,32.0,127,59,52,90,120,506,430,431
2025-02-20 16:24:43.430,-614.0,1378.0,670.0,326.0,-118.0,-101.0,125,58,52,86,126,560,465,440
2025-02-20 16:24:43.448,-833.0,1766.0,834.0,382.0,-71.0,-218.0,123,54,53,86,128,561,492,454
2025-02-20 16:24:43.468,-1117.0,2451.0,699.0,342.0,-96.0,-341.0,122,58,52,90,126,589,489,474
2025-02-20 16:24:43.486,-497.0,1892.0,744.0,291.0,-153.0,-465.0,121,58,52,94,126,596,460,478
2025-02-20 16:24:43.505,221.0,754.0,913.0,319.0,-208.0,-499.0,122,59,54,94,127,566,422,480
2025-02-20 16:24:43.524,802.0,-171.0,1247.0,376.0,-225.0,-423.0,127,61,57,97,127,513,410,484
2025-02-20 16:24:43.543,1217.0,-569.0,1706.0,334.0,-222.0,-278.0,131,61,56,100,127,492,424,469
2025-02-20 16:24:43.563,1460.0,-917.0,2126.0,157.0,-184.0,-116.0,134,61,57,104,129,448,437,457
2025-02-20 16:24:43.583,1357.0,-944.0,2233.0,-85.0,-88.0,52.0,135,61,58,103,129,387,435,424
2025-02-20 16:24:43.600,990.0,-718.0,1725.0,-183.0,-26.0,157.0,137,63,58,103,130,264,369,412
2025-02-20 16:24:43.620,608.0,-522.0,1405.0,-154.0,-8.0,200.0,135,63,60,103,130,219,414,408
2025-02-20 16:24:43.640,370.0,-210.0,1424.0,-95.0,24.0,225.0,135,64,60,103,129,231,519,401
2025-02-20 16:24:43.658,284.0,85.0,1399.0,-56.0,82.0,216.0,135,65,61,103,129,261,570,405
2025-02-20 16:24:43.677,121.0,294.0,1335.0,-43.0,138.0,212.0,137,65,62,103,132,347,548,423
2025-02-20 16:24:43.695,-61.0,394.0,1123.0,-60.0,163.0,219.0,135,65,63,103,132,385,505,440
2025-02-20 16:24:43.714,-72.0,304.0,927.0,-61.0,168.0,221.0,136,65,63,103,132,422,520,456
2025-02-20 16:24:43.734,-113.0,414.0,752.0,-53.0,151.0,214.0,137,66,63,102,132,454,503,481
2025-02-20 16:24:43.750,-188.0,480.0,835.0,-22.0,139.0,187.0,136,61,64,101,133,517,500,518
2025-02-20 16:24:43.772,-225.0,613.0,874.0,10.0,150.0,152.0,136,66,65,101,132,553,466,530
2025-02-20 16:24:43.792,-482.0,925.0,786.0,17.0,144.0,122.0,136,68,66,98,131,552,427,527
2025-02-20 16:24:43.808,-642.0,1323.0,585.0,11.0,118.0,36.0,138,66,65,99,133,543,401,513
2025-02-20 16:24:43.829,-785.0,1549.0,521.0,28.0,112.0,-94.0,137,67,65,98,133,509,370,503
2025-02-20 16:24:43.849,-916.0,1832.0,373.0,102.0,130.0,-209.0,137,68,66,99,133,483,393,497
2025-02-20 16:24:43.865,-1120.0,2280.0,-132.0,131.0,85.0,-358.0,137,68,66,101,134,470,431,489
2025-02-20 16:24:43.887,-1016.0,2040.0,-482.0,104.0,-50.0,-484.0,134,67,63,101,134,465,458,479
2025-02-20 16:24:43.906,-527.0,749.0,-413.0,72.0,-300.0,-522.0,134,65,59,101,134,450,471,480
2025-02-20 16:24:43.923,1178.0,-791.0,126.0,69.0,-557.0,-401.0,134,66,58,103,132,453,475,484
2025-02-20 16:24:43.944,2067.0,-2048.0,1775.0,78.0,-562.0,-184.0,137,65,59,105,132,437,486,457
2025-02-20 16:24:43.961,2296.0,-1552.0,2716.0,6.0,-305.0,39.0,138,67,61,107,130,429,506,473
2025-02-20 16:24:43.980,1730.0,-843.0,2689.0,-224.0,-98.0,100.0,139,68,63,106,131,379,522,501
2025-02-20 16:24:44.001,1065.0,-1015.0,1870.0,-232.0,34.0,132.0,137,67,63,107,131,387,536,460
2025-02-20 16:24:44.018,553.0,-743.0,1451.0,-117.0,75.0,128.0,138,69,62,106,131,265,537,419
2025-02-20 16:24:44.038,379.0,-436.0,1556.0,-79.0,130.0,131.0,138,70,62,107,132,326,505,422
2025-02-20 16:24:44.058,315.0,-346.0,1561.0,-133.0,214.0,160.0,139,68,64,109,131,455,467,424
2025-02-20 16:24:44.069,81.0,-182.0,1163.0,-197.0,236.0,196.0,139,68,65,110,131,507,430,428
2025-02-20 16:24:44.094,-123.0,-47.0,945.0,-224.0,219.0,216.0,139,70,69,112,127,577,455,473
2025-02-20 16:24:44.113,-99.0,294.0,776.0,-218.0,198.0,223.0,140,74,73,114,123,611,487,516
2025-02-20 16:24:44.133,-48.0,-20.0,844.0,-194.0,227.0,233.0,139,78,77,116,116,554,474,520
2025-02-20 16:24:44.152,-213.0,-79.0,746.0,-157.0,254.0,229.0,139,85,81,116,106,437,441,491
2025-02-20 16:24:44.170,-287.0,-85.0,630.0,-120.0,268.0,206.0,139,91,85,114,98,429,387,503
2025-02-20 16:24:44.190,-481.0,-29.0,449.0,-66.0,277.0,187.0,138,94,87,113,87,514,338,506
2025-02-20 16:24:44.209,-543.0,50.0,180.0,-1.0,283.0,166.0,137,98,88,108,79,521,384,497
2025-02-20 16:24:44.226,-672.0,362.0,-121.0,42.0,254.0,115.0,137,99,90,104,74,562,425,502
2025-02-20 16:24:44.247,-875.0,891.0,-701.0,17.0,175.0,50.0,137,102,92,100,71,593,437,500
2025-02-20 16:24:44.265,-1300.0,1322.0,-1465.0,4.0,31.0,-102.0,136,104,93,94,73,489,448,479
2025-02-20 16:24:44.284,-1383.0,1735.0,-1997.0,59.0,-192.0,-284.0,137,106,95,92,74,398,477,456
2025-02-20 16:24:44.304,-1245.0,1705.0,-2118.0,116.0,-454.0,-490.0,133,112,99,94,68,439,523,459
2025-02-20 16:24:44.312,-110.0,1186.0,-1292.0,54.0,-773.0,-576.0,130,118,101,94,66,493,531,459
2025-02-20 16:24:44.341,1936.0,524.0,-678.0,-31.0,-975.0,-525.0,128,122,102,94,67,544,492,458
2025-02-20 16:24:44.362,3704.0,-2326.0,394.0,-74.0,-975.0,-323.0,131,127,104,93,68,537,427,459
2025-02-20 16:24:44.382,3937.0,-2902.0,2083.0,15.0,-571.0,-112.0,134,131,105,93,72,546,416,451
2025-02-20 16:24:44.399,3066.0,-2365.0,2320.0,136.0,-124.0,33.0,135,131,105,94,69,573,474,434
2025-02-20 16:24:44.418,1645.0,-1350.0,2207.0,108.0,163.0,35.0,136,132,106,93,65,538,507,417
2025-02-20 16:24:44.435,827.0,-826.0,1568.0,14.0,182.0,52.0,135,131,105,92,65,473,556,422
2025-02-20 16:24:44.456,500.0,-790.0,1243.0,-82.0,138.0,81.0,135,131,106,91,69,385,532,442
2025-02-20 16:24:44.476,409.0,-778.0,1229.0,-134.0,124.0,91.0,134,132,105,87,73,366,485,464
2025-02-20 16:24:44.493,428.0,-885.0,1101.0,-134.0,150.0,105.0,132,132,106,87,77,371,391,472
2025-02-20 16:24:44.513,418.0,-884.0,1043.0,-92.0,180.0,105.0,132,133,106,88,80,431,365,482
2025-02-20 16:24:44.533,371.0,-887.0,912.0,-54.0,220.0,126.0,129,132,106,88,81,468,449,504
2025-02-20 16:24:44.550,169.0,-668.0,754.0,-48.0,232.0,141.0,130,133,107,86,79,512,484,490
2025-02-20 16:24:44.568,10.0,-471.0,599.0,-68.0,226.0,154.0,128,132,106,86,78,440,457,488
2025-02-20 16:24:44.586,-98.0,-437.0,523.0,-87.0,215.0,163.0,129,132,107,88,75,380,466,492
2025-02-20 16:24:44.608,-143.0,-378.0,390.0,-70.0,217.0,170.0,131,132,106,89,73,502,446,477
2025-02-20 16:24:44.628,-197.0,-283.0,342.0,-40.0,229.0,183.0,131,132,107,90,74,494,447,471
2025-02-20 16:24:44.644,-308.0,-238.0,248.0,-9.0,231.0,197.0,129,132,107,89,77,476,442,474
2025-02-20 16:24:44.664,-441.0,47.0,82.0,14.0,199.0,195.0,129,131,107,86,79,443,433,469
2025-02-20 16:24:44.683,-788.0,548.0,-180.0,-1.0,114.0,154.0,130,132,107,85,79,534,446,451
2025-02-20 16:24:44.702,-1264.0,972.0,-663.0,80.0,24.0,-29.0,126,132,108,80,80,565,455,446
2025-02-20 16:24:44.720,-1811.0,2068.0,-979.0,102.0,-122.0,-238.0,130,133,109,84,76,550,490,447
2025-02-20 16:24:44.743,-1300.0,2315.0,-908.0,-18.0,-307.0,-465.0,126,133,108,85,76,534,479,442
2025-02-20 16:24:44.760,335.0,1144.0,-184.0,-122.0,-464.0,-667.0,123,133,109,87,79,473,464,475
2025-02-20 16:24:44.780,1637.0,-561.0,302.0,-88.0,-498.0,-655.0,122,134,109,87,80,470,421,496
2025-02-20 16:24:44.799,2169.0,-2002.0,453.0,-65.0,-478.0,-377.0,123,134,107,92,81,410,366,494
2025-02-20 16:24:44.817,2922.0,-2521.0,990.0,-141.0,-308.0,-146.0,124,133,108,95,81,418,466,477
2025-02-20 16:24:44.837,2779.0,-2789.0,1094.0,-61.0,-73.0,-39.0,125,135,108,95,79,397,519,467
2025-02-20 16:24:44.853,1783.0,-2387.0,864.0,87.0,137.0,39.0,125,134,110,94,73,370,543,455
2025-02-20 16:24:44.873,870.0,-1591.0,624.0,81.0,171.0,91.0,124,134,109,92,68,381,544,450
2025-02-20 16:24:44.894,364.0,-1130.0,541.0,25.0,123.0,112.0,125,134,108,93,72,453,509,452
2025-02-20 16:24:44.911,353.0,-1155.0,584.0,6.0,99.0,109.0,126,133,108,94,76,501,469,459
2025-02-20 16:24:44.931,432.0,-1280.0,641.0,26.0,116.0,136.0,126,133,108,94,80,518,469,476
2025-02-20 16:24:44.948,459.0,-1354.0,545.0,90.0,146.0,184.0,129,133,108,95,82,482,508,473
2025-02-20 16:24:44.968,426.0,-1212.0,500.0,135.0,166.0,237.0,131,130,107,95,83,415,478,466
2025-02-20 16:24:44.988,308.0,-1009.0,561.0,136.0,191.0,296.0,132,126,106,93,83,423,399,465
2025-02-20 16:24:45.005,250.0,-623.0,291.0,97.0,192.0,354.0,133,121,104,93,83,400,393,468
2025-02-20 16:24:45.025,127.0,-497.0,216.0,77.0,152.0,396.0,135,114,101,95,82,508,444,475
2025-02-20 16:24:45.046,-22.0,-389.0,155.0,86.0,111.0,401.0,137,107,94,100,84,541,451,473
2025-02-20 16:24:45.063,-66.0,-384.0,109.0,107.0,69.0,386.0,137,94,84,105,86,464,465,470
2025-02-20 16:24:45.083,-138.0,-190.0,-92.0,144.0,4.0,377.0,140,87,79,111,92,412,482,471
2025-02-20 16:24:45.101,-211.0,-84.0,66.0,211.0,-27.0,330.0,138,86,78,112,99,452,477,470
2025-02-20 16:24:45.118,-396.0,609.0,127.0,239.0,-73.0,244.0,138,84,80,110,107,528,483,471
2025-02-20 16:24:45.140,-661.0,1393.0,207.0,232.0,-111.0,173.0,138,83,81,105,118,543,492,460
2025-02-20 16:24:45.160,-1058.0,2814.0,198.0,231.0,-109.0,-19.0,142,84,82,103,127,481,471,439
2025-02-20 16:24:45.178,-1606.0,3707.0,135.0,322.0,-98.0,-255.0,137,83,83,104,131,497,446,443
2025-02-20 16:24:45.197,-1370.0,3413.0,70.0,327.0,-213.0,-516.0,137,77,79,106,131,553,450,451
2025-02-20 16:24:45.218,55.0,2222.0,386.0,306.0,-423.0,-615.0,137,72,73,107,132,548,457,462
2025-02-20 16:24:45.235,1711.0,717.0,1365.0,299.0,-552.0,-607.0,137,71,70,111,131,513,470,463
2025-02-20 16:24:45.255,2992.0,-1521.0,2368.0,304.0,-429.0,-397.0,139,74,75,116,131,479,481,462
2025-02-20 16:24:45.275,2474.0,-1837.0,3082.0,148.0,-160.0,-127.0,140,76,78,118,129,445,484,479
2025-02-20 16:24:45.288,1850.0,-1105.0,2662.0,-76.0,17.0,21.0,141,76,77,117,129,459,455,493
2025-02-20 16:24:45.312,1230.0,-1073.0,1717.0,-180.0,105.0,115.0,140,75,76,116,130,371,449,472
2025-02-20 16:24:45.329,525.0,-844.0,1030.0,-111.0,79.0,190.0,138,75,74,113,131,274,447,450
2025-02-20 16:24:45.348,59.0,-297.0,1008.0,-69.0,22.0,205.0,137,74,74,112,131,298,460,422
