timestamp,ax,ay,az,gx,gy,gz,flex1,flex2,flex3,flex4,flex5,emg1,emg2,emg3
2025-03-17 18:49:56.910,-588.0,20.0,855.0,1.0,-1.0,2.0,134,96,145,108,117
2025-03-17 18:49:56.910,-586.0,30.0,858.0,2.0,-1.0,2.0,133,95,144,108,116
2025-03-17 18:49:56.910,-586.0,47.0,865.0,1.0,0.0,0.0,133,95,144,108,116
2025-03-17 18:49:56.925,-565.0,32.0,865.0,-1.0,0.0,-2.0,133,95,144,108,117
2025-03-17 18:49:56.927,-554.0,15.0,854.0,-1.0,1.0,-2.0,134,95,141,107,117
2025-03-17 18:49:56.930,-538.0,7.0,847.0,-2.0,0.0,-2.0,134,96,144,107,116
2025-03-17 18:49:56.932,-556.0,27.0,837.0,-8.0,-5.0,-1.0,133,96,145,108,117
2025-03-17 18:49:56.935,-569.0,6.0,803.0,-8.0,-8.0,-1.0,134,95,145,108,117
2025-03-17 18:49:56.960,-529.0,19.0,877.0,-3.0,-1.0,0.0,138,95,144,109,117
2025-03-17 18:49:56.984,-525.0,7.0,849.0,6.0,9.0,0.0,133,94,146,108,117
2025-03-17 18:49:57.009,-568.0,3.0,950.0,1.0,-4.0,2.0,133,95,144,108,116
2025-03-17 18:49:57.033,-581.0,19.0,812.0,-4.0,-3.0,2.0,134,95,144,108,117
2025-03-17 18:49:57.054,-578.0,28.0,868.0,0.0,-1.0,0.0,134,94,144,108,116
2025-03-17 18:49:57.076,-563.0,34.0,860.0,0.0,2.0,-1.0,134,96,144,108,117
2025-03-17 18:49:57.103,-552.0,20.0,868.0,-3.0,0.0,-2.0,135,96,145,109,118
2025-03-17 18:49:57.127,-548.0,21.0,892.0,-1.0,-2.0,-1.0,134,96,145,107,118
2025-03-17 18:49:57.152,-549.0,29.0,878.0,-2.0,1.0,-2.0,133,96,144,109,117
2025-03-17 18:49:57.174,-563.0,14.0,858.0,-4.0,1.0,-1.0,134,96,145,108,117
2025-03-17 18:49:57.199,-566.0,15.0,866.0,-1.0,0.0,0.0,133,94,144,108,115
2025-03-17 18:49:57.222,-578.0,18.0,832.0,-1.0,-3.0,1.0,136,95,145,107,117
2025-03-17 18:49:57.247,-582.0,38.0,865.0,-4.0,-6.0,1.0,134,94,144,109,120
2025-03-17 18:49:57.271,-603.0,40.0,815.0,-3.0,-7.0,1.0,135,96,144,108,116
2025-03-17 18:49:57.296,-567.0,45.0,880.0,-2.0,-4.0,-1.0,133,95,144,108,117
2025-03-17 18:49:57.320,-562.0,37.0,891.0,-4.0,-3.0,-3.0,133,95,145,109,118
2025-03-17 18:49:57.345,-549.0,17.0,876.0,-2.0,-3.0,-3.0,134,96,144,108,115
2025-03-17 18:49:57.369,-500.0,12.0,872.0,3.0,2.0,-2.0,134,95,144,108,118
2025-03-17 18:49:57.390,-523.0,16.0,891.0,-1.0,3.0,-2.0,133,95,143,108,116
2025-03-17 18:49:57.415,-500.0,8.0,896.0,1.0,7.0,-4.0,134,95,144,108,116
2025-03-17 18:49:57.439,-557.0,11.0,843.0,2.0,3.0,-1.0,133,95,144,107,116
2025-03-17 18:49:57.463,-566.0,14.0,831.0,6.0,0.0,0.0,134,95,144,107,115
2025-03-17 18:49:57.488,-582.0,3.0,848.0,6.0,2.0,2.0,135,96,145,107,117
2025-03-17 18:49:57.513,-579.0,18.0,843.0,4.0,4.0,3.0,134,95,145,109,116
2025-03-17 18:49:57.536,-581.0,33.0,821.0,3.0,-2.0,2.0,134,95,144,110,117
2025-03-17 18:49:57.557,-560.0,12.0,852.0,-4.0,-8.0,0.0,134,96,145,108,117
2025-03-17 18:49:57.582,-652.0,-1.0,749.0,-4.0,-8.0,1.0,136,95,144,108,113
2025-03-17 18:49:57.607,-565.0,19.0,824.0,5.0,-4.0,1.0,134,96,145,108,122
2025-03-17 18:49:57.631,-574.0,27.0,898.0,4.0,-3.0,0.0,133,96,144,108,117
2025-03-17 18:49:57.656,-537.0,40.0,921.0,1.0,-8.0,-1.0,134,95,144,105,117
2025-03-17 18:49:57.676,-562.0,0.0,863.0,-2.0,-6.0,0.0,137,94,144,108,117
2025-03-17 18:49:57.702,-554.0,9.0,916.0,3.0,-1.0,3.0,134,96,145,109,116
2025-03-17 18:49:57.726,-580.0,56.0,900.0,0.0,-1.0,3.0,136,96,144,109,117
2025-03-17 18:49:57.751,-582.0,47.0,884.0,-5.0,-1.0,2.0,136,96,146,108,116
2025-03-17 18:49:57.775,-558.0,40.0,869.0,2.0,0.0,2.0,135,97,145,109,115
2025-03-17 18:49:57.799,-567.0,43.0,889.0,1.0,3.0,1.0,133,96,145,107,115
2025-03-17 18:49:57.824,-547.0,57.0,908.0,-1.0,5.0,1.0,134,96,145,108,114
2025-03-17 18:49:57.849,-551.0,67.0,861.0,-1.0,4.0,-1.0,133,97,144,107,115
2025-03-17 18:49:57.873,-553.0,37.0,852.0,-5.0,4.0,-2.0,133,95,145,108,115
2025-03-17 18:49:57.894,-542.0,42.0,849.0,-4.0,2.0,1.0,137,96,144,106,116
2025-03-17 18:49:57.919,-543.0,41.0,854.0,-1.0,5.0,0.0,134,96,146,108,116
2025-03-17 18:49:57.943,-549.0,43.0,836.0,-2.0,2.0,1.0,134,96,145,108,115
2025-03-17 18:49:57.967,-563.0,55.0,805.0,1.0,-1.0,3.0,135,96,146,109,117
2025-03-17 18:49:57.991,-561.0,76.0,849.0,2.0,1.0,1.0,135,96,145,108,116
2025-03-17 18:49:58.016,-568.0,54.0,838.0,0.0,0.0,1.0,133,96,143,107,116
2025-03-17 18:49:58.040,-563.0,56.0,842.0,1.0,-1.0,2.0,133,95,146,107,115
2025-03-17 18:49:58.062,-573.0,68.0,872.0,0.0,0.0,1.0,133,96,144,108,115
2025-03-17 18:49:58.084,-544.0,65.0,883.0,-3.0,0.0,0.0,132,97,145,108,115
2025-03-17 18:49:58.111,-559.0,54.0,844.0,-1.0,1.0,0.0,135,96,145,107,116
2025-03-17 18:49:58.132,-566.0,76.0,837.0,2.0,0.0,0.0,130,96,144,108,116
2025-03-17 18:49:58.160,-564.0,63.0,822.0,-2.0,-4.0,-1.0,135,96,142,107,117
2025-03-17 18:49:58.185,-560.0,50.0,850.0,-2.0,-2.0,-2.0,134,95,145,108,118
2025-03-17 18:49:58.209,-553.0,35.0,794.0,0.0,-1.0,0.0,135,95,145,107,115
2025-03-17 18:49:58.230,-590.0,62.0,886.0,2.0,0.0,0.0,134,97,144,107,114
2025-03-17 18:49:58.255,-583.0,42.0,852.0,-3.0,-2.0,0.0,134,96,147,106,115
2025-03-17 18:49:58.279,-569.0,30.0,884.0,-2.0,0.0,1.0,133,96,144,108,115
2025-03-17 18:49:58.302,-573.0,56.0,867.0,-2.0,2.0,1.0,135,95,145,109,117
2025-03-17 18:49:58.327,-570.0,40.0,854.0,0.0,1.0,0.0,134,96,145,108,117
2025-03-17 18:49:58.352,-552.0,40.0,851.0,-1.0,1.0,1.0,135,97,144,110,116
2025-03-17 18:49:58.377,-535.0,61.0,874.0,-5.0,1.0,1.0,135,96,146,108,117
2025-03-17 18:49:58.401,-544.0,38.0,846.0,-4.0,-2.0,0.0,136,95,145,108,113
2025-03-17 18:49:58.422,-563.0,42.0,843.0,-2.0,-2.0,2.0,134,95,143,107,115
2025-03-17 18:49:58.447,-570.0,69.0,861.0,-4.0,-3.0,2.0,133,97,144,107,115
2025-03-17 18:49:58.472,-570.0,61.0,864.0,-4.0,-3.0,2.0,133,95,145,108,116
2025-03-17 18:49:58.495,-572.0,67.0,883.0,-1.0,-2.0,3.0,135,95,145,107,118
2025-03-17 18:49:58.521,-560.0,78.0,881.0,-1.0,1.0,3.0,135,96,144,108,117
2025-03-17 18:49:58.545,-556.0,82.0,872.0,-2.0,1.0,1.0,135,97,145,110,117
2025-03-17 18:49:58.569,-554.0,62.0,858.0,-3.0,0.0,1.0,134,97,145,108,115
2025-03-17 18:49:58.590,-544.0,57.0,857.0,-3.0,3.0,2.0,138,95,146,108,117
2025-03-17 18:49:58.615,-565.0,55.0,843.0,-4.0,0.0,2.0,134,95,144,108,116
2025-03-17 18:49:58.628,-563.0,41.0,898.0,-2.0,4.0,4.0,133,96,145,108,116
2025-03-17 18:49:58.663,-566.0,48.0,878.0,-1.0,3.0,4.0,134,95,143,108,116
2025-03-17 18:49:58.682,-553.0,37.0,873.0,-7.0,5.0,3.0,134,96,144,109,118
2025-03-17 18:49:58.713,-552.0,35.0,855.0,-8.0,5.0,5.0,135,95,144,108,117
2025-03-17 18:49:58.737,-552.0,47.0,860.0,-12.0,5.0,2.0,135,95,145,110,116
2025-03-17 18:49:58.757,-564.0,24.0,818.0,-7.0,3.0,5.0,135,97,145,109,117
2025-03-17 18:49:58.783,-567.0,49.0,813.0,-7.0,0.0,5.0,135,97,145,109,117
2025-03-17 18:49:58.807,-581.0,83.0,846.0,-7.0,-7.0,2.0,135,96,143,109,117
2025-03-17 18:49:58.829,-586.0,47.0,850.0,-10.0,-4.0,4.0,135,94,144,108,116
2025-03-17 18:49:58.853,-574.0,45.0,846.0,-2.0,-2.0,4.0,134,95,144,107,117
2025-03-17 18:49:58.881,-576.0,57.0,879.0,-7.0,-1.0,3.0,129,95,144,108,119
2025-03-17 18:49:58.904,-589.0,58.0,858.0,-4.0,-2.0,2.0,135,96,144,109,116
2025-03-17 18:49:58.926,-583.0,66.0,891.0,-4.0,1.0,2.0,132,95,144,108,116
2025-03-17 18:49:58.950,-595.0,71.0,858.0,-4.0,1.0,0.0,135,96,145,111,117
2025-03-17 18:49:58.975,-593.0,60.0,858.0,-4.0,2.0,-1.0,135,95,146,108,117
2025-03-17 18:49:58.999,-582.0,66.0,843.0,-3.0,-1.0,-2.0,133,96,145,109,117
2025-03-17 18:49:59.024,-586.0,38.0,833.0,2.0,1.0,-1.0,134,95,144,108,117
2025-03-17 18:49:59.048,-590.0,50.0,832.0,4.0,-1.0,1.0,135,97,144,108,118
2025-03-17 18:49:59.073,-585.0,46.0,842.0,1.0,-2.0,-2.0,133,94,144,108,115
2025-03-17 18:49:59.095,-568.0,38.0,859.0,0.0,-3.0,-3.0,133,95,144,108,116
2025-03-17 18:49:59.119,-567.0,34.0,870.0,2.0,-3.0,-3.0,135,96,144,109,117
2025-03-17 18:49:59.143,-562.0,45.0,868.0,0.0,-4.0,-3.0,137,96,145,108,115
2025-03-17 18:49:59.168,-555.0,38.0,878.0,-2.0,-3.0,-3.0,134,96,147,109,117
2025-03-17 18:49:59.179,-553.0,18.0,872.0,-3.0,-1.0,-2.0,135,96,146,113,116
2025-03-17 18:49:59.217,-544.0,18.0,870.0,-4.0,-1.0,-1.0,135,96,145,109,117
2025-03-17 18:49:59.241,-550.0,23.0,843.0,-10.0,0.0,-1.0,135,95,145,108,114
2025-03-17 18:49:59.260,-557.0,24.0,850.0,-9.0,0.0,-1.0,134,95,145,109,116
2025-03-17 18:49:59.286,-582.0,53.0,817.0,-11.0,-4.0,-3.0,134,95,145,106,114
2025-03-17 18:49:59.311,-585.0,44.0,845.0,-11.0,-7.0,-5.0,135,95,145,107,116
2025-03-17 18:49:59.336,-581.0,28.0,843.0,-6.0,-8.0,-4.0,134,95,145,108,115
2025-03-17 18:49:59.360,-574.0,53.0,894.0,1.0,-6.0,-4.0,133,95,144,109,117
2025-03-17 18:49:59.384,-581.0,93.0,916.0,2.0,-4.0,-5.0,134,96,146,109,116
2025-03-17 18:49:59.409,-568.0,111.0,916.0,0.0,-2.0,-9.0,135,95,146,108,116
2025-03-17 18:49:59.433,-551.0,83.0,907.0,-4.0,1.0,-12.0,135,96,149,108,115
2025-03-17 18:49:59.455,-534.0,7.0,868.0,-1.0,3.0,-10.0,134,95,145,108,116
2025-03-17 18:49:59.479,-541.0,8.0,827.0,-1.0,2.0,-5.0,135,95,145,108,116
2025-03-17 18:49:59.502,-544.0,9.0,815.0,-5.0,-1.0,-4.0,134,95,142,108,115
2025-03-17 18:49:59.520,-561.0,8.0,807.0,-3.0,-1.0,-1.0,133,95,145,108,116
2025-03-17 18:49:59.550,-566.0,35.0,811.0,-2.0,-5.0,-1.0,135,96,145,109,115
2025-03-17 18:49:59.567,-560.0,34.0,832.0,-3.0,-9.0,-3.0,135,96,146,107,116
2025-03-17 18:49:59.599,-566.0,54.0,846.0,1.0,-11.0,-5.0,135,96,145,109,117
2025-03-17 18:49:59.623,-543.0,23.0,887.0,-2.0,-9.0,-5.0,135,95,146,108,116
2025-03-17 18:49:59.646,-544.0,5.0,884.0,7.0,-7.0,-3.0,134,95,144,106,116
2025-03-17 18:49:59.671,-535.0,20.0,887.0,7.0,-5.0,-2.0,133,96,145,108,122
2025-03-17 18:49:59.696,-543.0,20.0,890.0,3.0,-4.0,-3.0,134,95,145,107,116
2025-03-17 18:49:59.720,-535.0,16.0,892.0,0.0,-3.0,-4.0,131,95,145,108,116
2025-03-17 18:49:59.743,-537.0,-26.0,860.0,-2.0,-4.0,-1.0,133,95,145,107,116
2025-03-17 18:49:59.769,-541.0,-20.0,848.0,-1.0,-5.0,2.0,134,96,146,109,116
2025-03-17 18:49:59.791,-553.0,8.0,854.0,0.0,-6.0,2.0,135,97,147,108,117
2025-03-17 18:49:59.815,-555.0,12.0,901.0,2.0,-6.0,3.0,136,95,145,109,116
2025-03-17 18:49:59.839,-549.0,23.0,905.0,2.0,-4.0,3.0,137,96,145,108,116
2025-03-17 18:49:59.864,-552.0,42.0,878.0,2.0,-2.0,2.0,135,95,145,108,116
2025-03-17 18:49:59.888,-541.0,27.0,870.0,2.0,-1.0,-1.0,136,95,145,109,117
2025-03-17 18:49:59.913,-522.0,15.0,850.0,4.0,-2.0,0.0,135,95,146,108,116
2025-03-17 18:49:59.937,-522.0,39.0,841.0,3.0,-4.0,-2.0,135,94,146,109,117
2025-03-17 18:49:59.959,-510.0,28.0,814.0,-2.0,-10.0,-4.0,136,95,143,107,117
2025-03-17 18:49:59.983,-498.0,0.0,851.0,-5.0,-10.0,-4.0,135,96,146,109,117
2025-03-17 18:50:00.008,-518.0,37.0,840.0,-8.0,-16.0,-2.0,134,96,145,108,115
2025-03-17 18:50:00.032,-519.0,-18.0,850.0,-9.0,-14.0,1.0,135,96,146,108,117
2025-03-17 18:50:00.057,-524.0,9.0,892.0,-4.0,-14.0,3.0,133,97,145,109,117
2025-03-17 18:50:00.081,-538.0,28.0,916.0,-6.0,-16.0,3.0,133,91,145,107,116
2025-03-17 18:50:00.105,-539.0,34.0,939.0,-4.0,-9.0,3.0,131,96,145,108,116
2025-03-17 18:50:00.126,-532.0,44.0,939.0,-3.0,-6.0,2.0,134,94,144,107,116
2025-03-17 18:50:00.150,-535.0,41.0,935.0,-5.0,-5.0,1.0,134,94,147,108,118
2025-03-17 18:50:00.175,-529.0,67.0,903.0,-10.0,-4.0,-1.0,135,96,146,108,116
2025-03-17 18:50:00.200,-514.0,-42.0,896.0,-20.0,-4.0,-2.0,132,95,145,107,118
2025-03-17 18:50:00.224,-480.0,39.0,862.0,-29.0,-9.0,-4.0,136,95,146,109,117
2025-03-17 18:50:00.249,-491.0,0.0,871.0,-32.0,-6.0,-3.0,134,93,145,108,117
2025-03-17 18:50:00.272,-461.0,-16.0,870.0,-37.0,-8.0,-1.0,134,90,144,108,116
2025-03-17 18:50:00.295,-467.0,-44.0,881.0,-34.0,-2.0,3.0,132,87,144,108,116
2025-03-17 18:50:00.319,-515.0,10.0,860.0,-23.0,4.0,5.0,134,80,143,105,112
2025-03-17 18:50:00.343,-477.0,68.0,867.0,-60.0,-3.0,0.0,134,75,143,103,114
2025-03-17 18:50:00.368,-524.0,75.0,792.0,-96.0,-11.0,-14.0,134,63,137,100,104
2025-03-17 18:50:00.379,-483.0,38.0,980.0,-167.0,-8.0,-20.0,134,48,128,94,80
2025-03-17 18:50:00.417,-271.0,-61.0,1355.0,-319.0,56.0,-24.0,130,38,113,80,56
2025-03-17 18:50:00.441,-258.0,-865.0,1528.0,-369.0,131.0,7.0,128,35,100,60,46
2025-03-17 18:50:00.465,-311.0,-1331.0,1500.0,-248.0,209.0,83.0,125,33,93,52,39
2025-03-17 18:50:00.487,-288.0,-1216.0,1089.0,-182.0,280.0,158.0,125,31,92,54,39
2025-03-17 18:50:00.512,-846.0,-1125.0,542.0,-168.0,190.0,173.0,110,34,92,48,37
2025-03-17 18:50:00.536,-685.0,-963.0,607.0,-157.0,165.0,184.0,108,33,90,56,35
2025-03-17 18:50:00.560,-694.0,-610.0,476.0,-81.0,182.0,204.0,110,35,90,62,38
2025-03-17 18:50:00.585,-648.0,-262.0,213.0,-60.0,161.0,225.0,106,35,91,58,34
2025-03-17 18:50:00.609,-653.0,163.0,60.0,-19.0,162.0,231.0,102,36,93,60,38
2025-03-17 18:50:00.633,-621.0,603.0,-98.0,-18.0,137.0,190.0,112,36,95,59,39
2025-03-17 18:50:00.655,-607.0,665.0,-117.0,-13.0,127.0,147.0,112,36,94,61,41
2025-03-17 18:50:00.679,-530.0,773.0,-209.0,9.0,109.0,128.0,112,35,94,62,41
2025-03-17 18:50:00.703,-471.0,1292.0,-587.0,46.0,88.0,85.0,115,37,96,63,41
2025-03-17 18:50:00.727,-332.0,2324.0,-1608.0,41.0,-24.0,-21.0,116,36,95,62,41
2025-03-17 18:50:00.753,21.0,3474.0,-2429.0,33.0,-218.0,-319.0,112,37,89,62,45
2025-03-17 18:50:00.777,796.0,3676.0,-2872.0,-56.0,-474.0,-774.0,108,37,95,58,39
2025-03-17 18:50:00.799,3012.0,3827.0,-3174.0,-308.0,-881.0,-1243.0,106,21,94,58,36
2025-03-17 18:50:00.822,9151.0,332.0,2351.0,-388.0,-778.0,-1200.0,98,26,80,53,43
2025-03-17 18:50:00.847,6860.0,-8318.0,2092.0,-193.0,-1.0,-449.0,86,25,97,58,41
2025-03-17 18:50:00.872,2810.0,-5917.0,962.0,229.0,156.0,196.0,97,25,92,53,45
2025-03-17 18:50:00.896,1183.0,-2448.0,847.0,26.0,67.0,261.0,97,31,94,56,42
2025-03-17 18:50:00.921,418.0,-2299.0,882.0,-33.0,66.0,301.0,96,35,94,57,43
2025-03-17 18:50:00.944,136.0,-1509.0,894.0,23.0,136.0,413.0,98,38,95,59,42
2025-03-17 18:50:00.970,-238.0,123.0,298.0,-18.0,164.0,357.0,99,37,92,60,43
2025-03-17 18:50:00.979,-459.0,106.0,233.0,-72.0,136.0,232.0,97,39,100,61,44
2025-03-17 18:50:01.015,-275.0,-335.0,-30.0,-54.0,97.0,178.0,98,39,101,61,43
2025-03-17 18:50:01.040,-198.0,-310.0,255.0,-25.0,100.0,196.0,96,38,100,61,43
2025-03-17 18:50:01.063,-290.0,-167.0,0.0,4.0,91.0,222.0,97,39,98,60,42
2025-03-17 18:50:01.089,-447.0,5.0,-2.0,3.0,68.0,220.0,100,39,99,60,42
2025-03-17 18:50:01.113,-205.0,-202.0,284.0,51.0,74.0,263.0,99,37,101,60,41
2025-03-17 18:50:01.137,-239.0,130.0,84.0,119.0,108.0,334.0,100,26,101,60,37
2025-03-17 18:50:01.155,-288.0,872.0,-337.0,192.0,91.0,396.0,103,26,103,63,47
2025-03-17 18:50:01.180,-451.0,2557.0,-1551.0,223.0,-13.0,232.0,114,32,101,62,43
2025-03-17 18:50:01.197,-1053.0,5386.0,-2643.0,52.0,-233.0,-439.0,114,40,96,61,45
2025-03-17 18:50:01.228,297.0,3562.0,-3168.0,-169.0,-614.0,-1060.0,112,32,101,61,47
2025-03-17 18:50:01.256,4704.0,1298.0,-1865.0,-199.0,-1143.0,-1355.0,103,29,100,58,44
2025-03-17 18:50:01.282,8048.0,-5983.0,3124.0,-463.0,-614.0,-368.0,99,39,90,61,46
2025-03-17 18:50:01.306,4090.0,-7114.0,1860.0,199.0,320.0,45.0,107,37,67,62,48
2025-03-17 18:50:01.330,546.0,-2031.0,81.0,99.0,138.0,299.0,105,30,99,61,50
2025-03-17 18:50:01.355,579.0,-1891.0,636.0,-12.0,14.0,281.0,104,36,102,62,54
2025-03-17 18:50:01.376,395.0,-1415.0,952.0,65.0,123.0,340.0,104,37,89,63,51
2025-03-17 18:50:01.400,-199.0,-243.0,409.0,60.0,185.0,306.0,107,38,104,63,51
2025-03-17 18:50:01.423,-563.0,50.0,373.0,-51.0,165.0,239.0,106,36,105,63,50
2025-03-17 18:50:01.449,-526.0,-383.0,126.0,-149.0,72.0,232.0,103,39,106,63,50
2025-03-17 18:50:01.473,-8.0,-666.0,357.0,-15.0,83.0,233.0,111,34,106,65,46
2025-03-17 18:50:01.497,-238.0,-399.0,264.0,22.0,170.0,283.0,117,37,89,67,51
2025-03-17 18:50:01.521,-280.0,-511.0,192.0,48.0,150.0,321.0,107,39,100,67,51
2025-03-17 18:50:01.543,-10.0,-405.0,434.0,132.0,161.0,374.0,121,27,103,69,44
2025-03-17 18:50:01.554,-140.0,187.0,-87.0,196.0,161.0,394.0,120,28,105,67,48
2025-03-17 18:50:01.593,-469.0,2087.0,-664.0,208.0,122.0,234.0,116,34,103,64,46
2025-03-17 18:50:01.617,-1314.0,4391.0,-2671.0,64.0,-19.0,-222.0,114,32,100,63,35
2025-03-17 18:50:01.641,-864.0,4005.0,-3366.0,-105.0,-423.0,-754.0,116,33,100,60,40
2025-03-17 18:50:01.665,2039.0,3635.0,-2896.0,-363.0,-906.0,-1160.0,130,28,101,62,43
2025-03-17 18:50:01.689,7542.0,-2031.0,-232.0,-620.0,-1005.0,-927.0,136,31,91,64,45
2025-03-17 18:50:01.706,6886.0,-8064.0,1763.0,-395.0,33.0,-301.0,139,18,100,64,48
2025-03-17 18:50:01.736,2293.0,-4290.0,-2020.0,404.0,333.0,186.0,135,30,95,65,49
2025-03-17 18:50:01.761,531.0,-1624.0,-600.0,-39.0,-12.0,147.0,139,32,98,66,50
2025-03-17 18:50:01.785,592.0,-2343.0,932.0,102.0,25.0,214.0,139,36,98,68,50
2025-03-17 18:50:01.809,164.0,-1117.0,705.0,117.0,172.0,282.0,140,35,97,65,51
2025-03-17 18:50:01.834,-254.0,-517.0,67.0,65.0,140.0,262.0,137,35,98,64,49
2025-03-17 18:50:01.845,-308.0,-378.0,127.0,45.0,80.0,181.0,137,36,97,65,49
2025-03-17 18:50:01.878,-55.0,-656.0,366.0,33.0,91.0,198.0,137,37,99,64,48
2025-03-17 18:50:01.901,-216.0,-865.0,290.0,2.0,125.0,263.0,138,37,100,64,48
2025-03-17 18:50:01.926,7.0,-636.0,495.0,150.0,177.0,262.0,137,34,100,64,50
2025-03-17 18:50:01.951,-10.0,-331.0,479.0,166.0,215.0,305.0,138,34,102,65,50
2025-03-17 18:50:01.978,-211.0,-422.0,107.0,190.0,203.0,355.0,136,33,102,66,47
2025-03-17 18:50:01.991,-59.0,34.0,196.0,225.0,196.0,390.0,135,21,102,66,49
2025-03-17 18:50:02.024,-416.0,1220.0,-842.0,298.0,179.0,337.0,133,28,98,62,48
2025-03-17 18:50:02.051,-1269.0,3885.0,-1877.0,106.0,48.0,-30.0,130,36,100,59,45
2025-03-17 18:50:02.071,-1452.0,3859.0,-2850.0,-83.0,-268.0,-735.0,127,31,100,62,45
2025-03-17 18:50:02.097,1482.0,3466.0,-4186.0,-247.0,-813.0,-1163.0,127,35,103,64,42
2025-03-17 18:50:02.119,9091.0,-927.0,1690.0,-968.0,-927.0,-1049.0,133,24,89,59,51
2025-03-17 18:50:02.136,6988.0,-9183.0,2527.0,-386.0,80.0,-207.0,122,39,89,66,49
2025-03-17 18:50:02.170,2095.0,-3546.0,-2484.0,350.0,348.0,296.0,133,31,87,65,52
2025-03-17 18:50:02.195,427.0,-1373.0,269.0,-54.0,46.0,163.0,136,37,99,66,53
2025-03-17 18:50:02.216,223.0,-2164.0,775.0,25.0,74.0,249.0,137,33,101,66,54
2025-03-17 18:50:02.240,-158.0,-1516.0,385.0,120.0,148.0,343.0,136,34,105,58,51
2025-03-17 18:50:02.265,-45.0,20.0,209.0,93.0,188.0,296.0,135,41,107,56,53
2025-03-17 18:50:02.289,15.0,-176.0,-343.0,16.0,175.0,216.0,133,40,110,60,54
2025-03-17 18:50:02.313,-49.0,-906.0,287.0,114.0,100.0,250.0,130,35,111,54,59
2025-03-17 18:50:02.338,-57.0,-738.0,-34.0,147.0,31.0,321.0,128,37,122,0,89
2025-03-17 18:50:02.362,-173.0,-513.0,205.0,227.0,148.0,328.0,126,44,130,2,102
2025-03-17 18:50:02.387,-296.0,-402.0,158.0,226.0,163.0,331.0,122,47,135,0,107
2025-03-17 18:50:02.408,-394.0,-61.0,155.0,287.0,166.0,347.0,116,57,139,70,104
2025-03-17 18:50:02.432,-765.0,83.0,72.0,163.0,129.0,360.0,116,62,141,92,102
2025-03-17 18:50:02.457,-854.0,1276.0,-422.0,129.0,11.0,301.0,114,69,143,97,109
2025-03-17 18:50:02.481,-736.0,2757.0,-1686.0,87.0,-68.0,-85.0,113,75,142,94,106
2025-03-17 18:50:02.493,-815.0,3583.0,-2398.0,-61.0,-258.0,-616.0,113,79,143,94,109
2025-03-17 18:50:02.531,-881.0,1846.0,-2729.0,-274.0,-490.0,-948.0,114,74,142,99,111
2025-03-17 18:50:02.548,3471.0,663.0,-1146.0,-227.0,-675.0,-951.0,120,82,143,100,114
2025-03-17 18:50:02.579,6056.0,-4151.0,521.0,-804.0,-564.0,-736.0,124,49,145,82,116
2025-03-17 18:50:02.601,3157.0,-7176.0,317.0,-102.0,-58.0,60.0,124,54,146,83,118
2025-03-17 18:50:02.625,1963.0,-3354.0,1032.0,277.0,264.0,335.0,125,79,148,102,118
2025-03-17 18:50:02.650,-168.0,-906.0,716.0,101.0,228.0,293.0,126,75,146,102,115
2025-03-17 18:50:02.674,-283.0,-1000.0,781.0,4.0,92.0,229.0,126,64,145,103,116
2025-03-17 18:50:02.698,-183.0,-659.0,553.0,34.0,107.0,254.0,126,87,144,103,117
2025-03-17 18:50:02.720,-281.0,-741.0,636.0,47.0,205.0,256.0,126,92,145,103,116
2025-03-17 18:50:02.744,-326.0,-496.0,235.0,41.0,132.0,288.0,127,97,146,103,116
2025-03-17 18:50:02.768,-12.0,-454.0,414.0,45.0,162.0,281.0,128,101,146,104,115
2025-03-17 18:50:02.793,-213.0,-262.0,186.0,115.0,109.0,284.0,127,93,146,105,115
2025-03-17 18:50:02.817,-331.0,-227.0,121.0,93.0,99.0,296.0,122,88,146,105,114
2025-03-17 18:50:02.842,-367.0,-87.0,94.0,119.0,44.0,291.0,124,91,145,103,112
2025-03-17 18:50:02.866,-358.0,194.0,175.0,178.0,109.0,284.0,122,84,144,104,112
2025-03-17 18:50:02.891,-443.0,947.0,-351.0,185.0,151.0,262.0,122,83,144,103,112
2025-03-17 18:50:02.915,-912.0,1962.0,-2058.0,118.0,-24.0,41.0,120,92,145,104,116
2025-03-17 18:50:02.936,-1393.0,3173.0,-2526.0,-27.0,-377.0,-492.0,121,98,146,104,118
2025-03-17 18:50:02.961,-151.0,3416.0,-1376.0,-302.0,-500.0,-969.0,122,89,146,106,116
2025-03-17 18:50:02.985,4356.0,-1499.0,771.0,-435.0,-641.0,-959.0,124,103,145,106,118
2025-03-17 18:50:03.003,5131.0,-5946.0,-222.0,-264.0,-416.0,-434.0,128,67,146,104,110
2025-03-17 18:50:03.035,3132.0,-5419.0,1754.0,138.0,45.0,198.0,128,84,146,105,120
2025-03-17 18:50:03.059,1.0,-1459.0,1223.0,194.0,264.0,273.0,131,89,146,108,123
2025-03-17 18:50:03.083,-591.0,-711.0,839.0,-23.0,148.0,163.0,126,96,147,107,124
2025-03-17 18:50:03.108,-472.0,-899.0,1069.0,64.0,83.0,154.0,126,86,146,114,125
2025-03-17 18:50:03.129,-310.0,-869.0,740.0,-116.0,157.0,194.0,133,85,145,108,124
2025-03-17 18:50:03.154,-146.0,-823.0,353.0,-43.0,208.0,216.0,131,90,145,108,120
2025-03-17 18:50:03.178,-110.0,-717.0,227.0,55.0,177.0,240.0,132,94,145,107,117
2025-03-17 18:50:03.203,-321.0,-387.0,298.0,39.0,176.0,247.0,130,93,145,106,110
2025-03-17 18:50:03.227,-296.0,-271.0,185.0,69.0,151.0,254.0,130,75,145,105,106
2025-03-17 18:50:03.251,-385.0,-287.0,-34.0,58.0,66.0,279.0,130,69,145,102,103
2025-03-17 18:50:03.264,-438.0,-250.0,-2.0,120.0,133.0,284.0,130,72,144,101,102
2025-03-17 18:50:03.296,-441.0,391.0,-272.0,185.0,135.0,271.0,129,65,139,100,104
2025-03-17 18:50:03.321,-611.0,1010.0,-696.0,104.0,-7.0,176.0,129,63,144,102,105
2025-03-17 18:50:03.346,-980.0,2047.0,-1121.0,81.0,-73.0,-133.0,121,48,139,102,100
2025-03-17 18:50:03.368,-2188.0,2354.0,-1704.0,-69.0,-175.0,-575.0,125,36,120,1,82
2025-03-17 18:50:03.385,-821.0,3402.0,-2727.0,-200.0,-476.0,-913.0,120,26,112,0,40
2025-03-17 18:50:03.417,4675.0,16.0,-170.0,-369.0,-977.0,-883.0,128,19,100,0,35
2025-03-17 18:50:03.443,5995.0,-5873.0,2592.0,-590.0,-454.0,-535.0,129,32,104,0,35
2025-03-17 18:50:03.465,2331.0,-6128.0,372.0,307.0,257.0,159.0,132,32,96,28,43
2025-03-17 18:50:03.489,791.0,-1130.0,-1313.0,48.0,11.0,149.0,134,29,97,51,38
2025-03-17 18:50:03.514,611.0,-2090.0,685.0,-55.0,-34.0,97.0,136,32,100,51,43
2025-03-17 18:50:03.538,458.0,-2243.0,437.0,36.0,69.0,213.0,137,34,97,55,42
2025-03-17 18:50:03.562,82.0,-1204.0,145.0,57.0,100.0,292.0,136,25,104,55,47
2025-03-17 18:50:03.579,-59.0,-478.0,407.0,-4.0,89.0,238.0,137,35,104,54,46
2025-03-17 18:50:03.611,-72.0,-648.0,234.0,16.0,104.0,221.0,136,35,106,60,47
2025-03-17 18:50:03.633,-213.0,-630.0,313.0,26.0,100.0,239.0,137,33,101,58,46
2025-03-17 18:50:03.657,-152.0,-372.0,524.0,76.0,111.0,255.0,132,32,97,53,47
2025-03-17 18:50:03.682,-331.0,-65.0,281.0,86.0,150.0,228.0,136,33,102,63,45
2025-03-17 18:50:03.706,-503.0,-115.0,96.0,40.0,123.0,202.0,136,31,106,63,43
2025-03-17 18:50:03.731,-608.0,62.0,104.0,88.0,89.0,183.0,137,35,106,69,44
2025-03-17 18:50:03.742,-650.0,821.0,-66.0,88.0,78.0,132.0,136,31,103,67,44
2025-03-17 18:50:03.779,-1209.0,2181.0,-1189.0,80.0,28.0,-68.0,133,34,105,67,40
2025-03-17 18:50:03.804,-1576.0,2802.0,-2143.0,65.0,-184.0,-375.0,134,34,106,66,41
2025-03-17 18:50:03.825,-634.0,3122.0,-2462.0,-100.0,-625.0,-789.0,115,33,104,62,41
2025-03-17 18:50:03.839,5228.0,-69.0,1155.0,-592.0,-829.0,-869.0,138,28,100,54,40
2025-03-17 18:50:03.872,5129.0,-8980.0,974.0,-229.0,-66.0,-265.0,129,30,93,55,45
2025-03-17 18:50:03.894,2226.0,-3710.0,-557.0,394.0,240.0,217.0,131,18,96,63,46
2025-03-17 18:50:03.923,242.0,-808.0,-143.0,-75.0,-2.0,80.0,131,35,90,61,47
2025-03-17 18:50:03.944,179.0,-2001.0,916.0,61.0,42.0,142.0,142,33,103,62,48
2025-03-17 18:50:03.961,-5.0,-1294.0,475.0,81.0,116.0,177.0,141,35,107,67,48
2025-03-17 18:50:03.992,-198.0,-356.0,370.0,2.0,80.0,131.0,142,32,105,66,48
2025-03-17 18:50:04.018,-282.0,-741.0,304.0,-33.0,39.0,82.0,142,33,108,68,48
2025-03-17 18:50:04.041,-53.0,-966.0,483.0,-7.0,45.0,83.0,142,35,106,69,46
2025-03-17 18:50:04.066,235.0,-1245.0,541.0,35.0,105.0,146.0,142,36,96,59,47
2025-03-17 18:50:04.089,168.0,-1182.0,473.0,2.0,140.0,220.0,141,35,104,69,46
2025-03-17 18:50:04.113,47.0,-1002.0,232.0,44.0,106.0,253.0,140,37,111,75,48
2025-03-17 18:50:04.136,8.0,-930.0,729.0,116.0,172.0,274.0,138,28,119,69,51
2025-03-17 18:50:04.161,-84.0,-619.0,-145.0,124.0,171.0,275.0,128,35,121,68,50
2025-03-17 18:50:04.185,-439.0,-147.0,205.0,218.0,221.0,292.0,131,44,128,52,44
2025-03-17 18:50:04.196,-307.0,257.0,-107.0,267.0,240.0,390.0,132,49,131,54,45
2025-03-17 18:50:04.234,-545.0,2113.0,-1591.0,207.0,182.0,343.0,134,49,137,48,41
2025-03-17 18:50:04.251,-2073.0,3650.0,-3054.0,92.0,-239.0,-317.0,132,62,140,59,45
2025-03-17 18:50:04.283,30.0,3575.0,-2846.0,11.0,-774.0,-820.0,121,71,122,59,44
2025-03-17 18:50:04.307,3216.0,1342.0,-290.0,-193.0,-1055.0,-870.0,119,86,126,64,47
2025-03-17 18:50:04.332,5169.0,-4292.0,2455.0,-254.0,-668.0,-425.0,114,51,135,77,58
2025-03-17 18:50:04.354,4485.0,-5379.0,1756.0,74.0,-8.0,100.0,114,37,89,88,61
2025-03-17 18:50:04.378,929.0,-2108.0,1108.0,160.0,235.0,154.0,114,38,144,73,61
2025-03-17 18:50:04.398,277.0,-1238.0,1311.0,-74.0,113.0,175.0,107,78,146,78,60
2025-03-17 18:50:04.415,130.0,-1251.0,1014.0,-13.0,166.0,206.0,118,88,146,87,60
2025-03-17 18:50:04.446,-164.0,-625.0,731.0,29.0,245.0,219.0,122,97,136,88,57
2025-03-17 18:50:04.476,-277.0,-351.0,256.0,-8.0,207.0,206.0,122,73,105,92,56
2025-03-17 18:50:04.496,-89.0,-474.0,482.0,-28.0,160.0,180.0,123,79,144,93,55
2025-03-17 18:50:04.521,41.0,-798.0,519.0,61.0,198.0,207.0,122,83,110,94,56
2025-03-17 18:50:04.546,-42.0,-357.0,448.0,112.0,238.0,247.0,123,85,147,88,55
2025-03-17 18:50:04.570,-230.0,-236.0,376.0,88.0,231.0,267.0,125,103,148,87,54
2025-03-17 18:50:04.593,-259.0,-245.0,227.0,121.0,224.0,260.0,122,103,148,91,52
2025-03-17 18:50:04.619,-330.0,11.0,146.0,160.0,238.0,252.0,127,93,147,92,50
2025-03-17 18:50:04.642,-675.0,843.0,-233.0,82.0,192.0,230.0,130,93,147,75,44
2025-03-17 18:50:04.665,-998.0,1789.0,-1548.0,-5.0,31.0,51.0,131,96,147,78,46
2025-03-17 18:50:04.689,-1337.0,2945.0,-2549.0,15.0,-296.0,-377.0,132,106,150,84,48
2025-03-17 18:50:04.706,-296.0,3050.0,-2555.0,-106.0,-769.0,-783.0,132,98,147,66,52
2025-03-17 18:50:04.738,3452.0,844.0,-163.0,-308.0,-976.0,-922.0,130,92,134,74,59
2025-03-17 18:50:04.762,4567.0,-3717.0,1065.0,-201.0,-736.0,-492.0,129,73,141,82,63
2025-03-17 18:50:04.786,4511.0,-4570.0,1525.0,-67.0,-155.0,60.0,132,79,147,89,67
2025-03-17 18:50:04.812,1704.0,-2631.0,1275.0,188.0,236.0,62.0,134,75,141,87,66
2025-03-17 18:50:04.833,225.0,-1292.0,1196.0,-20.0,134.0,160.0,132,73,143,91,65
2025-03-17 18:50:04.857,-254.0,-926.0,1110.0,-52.0,79.0,152.0,129,103,145,91,64
2025-03-17 18:50:04.882,-106.0,-812.0,993.0,-22.0,151.0,117.0,133,97,146,91,63
2025-03-17 18:50:04.893,-10.0,-845.0,718.0,-36.0,185.0,127.0,134,89,120,90,65
2025-03-17 18:50:04.930,147.0,-801.0,565.0,-49.0,179.0,154.0,133,93,127,90,62
2025-03-17 18:50:04.955,212.0,-886.0,483.0,-19.0,199.0,179.0,134,103,147,85,67
2025-03-17 18:50:04.979,133.0,-599.0,546.0,-23.0,226.0,212.0,129,104,150,82,70
2025-03-17 18:50:05.000,-44.0,-599.0,382.0,-57.0,217.0,259.0,136,101,147,81,77
2025-03-17 18:50:05.026,-101.0,-351.0,561.0,-31.0,234.0,287.0,136,80,113,46,76
2025-03-17 18:50:05.046,-124.0,-271.0,329.0,25.0,226.0,256.0,137,71,128,57,67
2025-03-17 18:50:05.071,-783.0,641.0,-189.0,48.0,165.0,212.0,136,48,139,85,61
2025-03-17 18:50:05.098,-1264.0,2055.0,-1207.0,-32.0,60.0,-10.0,135,31,125,65,54
2025-03-17 18:50:05.123,-715.0,2911.0,-2067.0,38.0,-149.0,-340.0,123,28,124,72,40
2025-03-17 18:50:05.147,-1418.0,1920.0,-2314.0,-1.0,-441.0,-607.0,109,15,123,70,40
2025-03-17 18:50:05.171,2225.0,1589.0,-1247.0,-305.0,-755.0,-823.0,126,20,109,57,42
2025-03-17 18:50:05.192,5144.0,-3200.0,1193.0,-510.0,-657.0,-558.0,134,27,121,58,47
2025-03-17 18:50:05.216,3911.0,-6846.0,1586.0,102.0,122.0,-104.0,134,27,125,73,50
2025-03-17 18:50:05.242,1301.0,-3003.0,-102.0,310.0,220.0,167.0,133,25,81,82,50
2025-03-17 18:50:05.265,67.0,-1307.0,245.0,-16.0,19.0,101.0,135,36,101,85,50
2025-03-17 18:50:05.282,414.0,-1936.0,1087.0,11.0,33.0,140.0,135,38,116,82,51
2025-03-17 18:50:05.313,184.0,-1294.0,619.0,78.0,123.0,206.0,136,39,126,80,52
2025-03-17 18:50:05.337,-52.0,-582.0,306.0,82.0,131.0,204.0,136,38,116,91,51
2025-03-17 18:50:05.362,-204.0,-474.0,266.0,0.0,108.0,174.0,136,39,121,92,51
2025-03-17 18:50:05.385,-73.0,-602.0,422.0,-5.0,86.0,166.0,136,38,116,94,49
2025-03-17 18:50:05.410,-33.0,-655.0,438.0,43.0,106.0,177.0,136,39,123,96,48
2025-03-17 18:50:05.434,-103.0,-516.0,374.0,86.0,149.0,167.0,136,35,124,92,51
2025-03-17 18:50:05.459,-181.0,-422.0,519.0,75.0,144.0,195.0,135,41,125,89,53
2025-03-17 18:50:05.483,-365.0,-334.0,345.0,116.0,148.0,200.0,135,33,126,95,53
2025-03-17 18:50:05.507,-555.0,1118.0,171.0,132.0,170.0,150.0,134,35,124,97,53
2025-03-17 18:50:05.529,-1547.0,3042.0,-1171.0,112.0,124.0,-132.0,132,39,127,98,51
2025-03-17 18:50:05.554,-2307.0,3295.0,-3140.0,-33.0,-268.0,-561.0,131,31,129,96,48
2025-03-17 18:50:05.578,1795.0,2505.0,-1979.0,-334.0,-834.0,-906.0,134,42,126,93,48
2025-03-17 18:50:05.603,6305.0,-4444.0,1134.0,-476.0,-668.0,-545.0,137,42,127,95,52
2025-03-17 18:50:05.626,4235.0,-7174.0,1476.0,210.0,188.0,6.0,135,36,111,97,59
2025-03-17 18:50:05.652,1257.0,-2229.0,-504.0,241.0,245.0,214.0,137,34,124,97,58
2025-03-17 18:50:05.672,387.0,-1378.0,589.0,21.0,54.0,147.0,137,35,127,98,58
2025-03-17 18:50:05.697,365.0,-1801.0,820.0,79.0,125.0,219.0,134,35,86,98,58
2025-03-17 18:50:05.719,40.0,-1109.0,590.0,77.0,185.0,278.0,135,42,128,97,61
2025-03-17 18:50:05.746,-14.0,-418.0,-51.0,109.0,189.0,250.0,111,45,127,93,61
2025-03-17 18:50:05.767,-181.0,-245.0,201.0,66.0,142.0,200.0,125,44,124,78,65
2025-03-17 18:50:05.792,30.0,-375.0,279.0,61.0,166.0,191.0,122,17,117,77,73
2025-03-17 18:50:05.819,-158.0,-411.0,432.0,64.0,191.0,213.0,133,37,124,36,67
2025-03-17 18:50:05.844,-310.0,-328.0,734.0,28.0,251.0,216.0,133,41,119,37,70
2025-03-17 18:50:05.865,-80.0,-468.0,288.0,0.0,217.0,252.0,122,36,118,38,71
2025-03-17 18:50:05.890,-521.0,-307.0,45.0,6.0,148.0,286.0,117,30,115,60,63
2025-03-17 18:50:05.914,-762.0,568.0,-300.0,50.0,138.0,286.0,133,35,96,42,58
2025-03-17 18:50:05.939,-898.0,2349.0,-1299.0,77.0,101.0,114.0,118,34,95,40,49
2025-03-17 18:50:05.961,-1046.0,4531.0,-3239.0,59.0,-194.0,-494.0,120,26,98,35,45
2025-03-17 18:50:05.987,-169.0,3486.0,-3029.0,-94.0,-714.0,-921.0,117,28,107,58,41
2025-03-17 18:50:06.012,5644.0,1295.0,-499.0,-313.0,-1125.0,-1054.0,116,28,106,62,45
2025-03-17 18:50:06.036,6704.0,-7275.0,2532.0,-500.0,-158.0,-330.0,97,36,107,74,60
2025-03-17 18:50:06.057,2465.0,-6422.0,545.0,437.0,317.0,201.0,112,0,75,52,57
2025-03-17 18:50:06.082,397.0,-1133.0,695.0,-51.0,120.0,213.0,100,22,102,80,57
2025-03-17 18:50:06.106,342.0,-2375.0,955.0,-92.0,123.0,260.0,113,29,104,73,57
2025-03-17 18:50:06.131,-99.0,-1156.0,680.0,-10.0,160.0,347.0,114,38,79,75,54
2025-03-17 18:50:06.155,-386.0,-235.0,-40.0,-87.0,153.0,319.0,115,34,107,81,55
2025-03-17 18:50:06.179,-533.0,-213.0,150.0,-69.0,144.0,261.0,114,34,112,83,52
2025-03-17 18:50:06.201,-590.0,-5.0,-501.0,28.0,124.0,169.0,115,26,111,83,50
2025-03-17 18:50:06.222,-520.0,-205.0,-287.0,4.0,121.0,149.0,117,23,112,85,52
2025-03-17 18:50:06.250,-618.0,-245.0,2.0,7.0,100.0,159.0,118,32,110,83,50
2025-03-17 18:50:06.275,-475.0,-194.0,154.0,17.0,77.0,155.0,118,39,112,83,49
2025-03-17 18:50:06.299,-307.0,-242.0,288.0,55.0,91.0,148.0,118,35,114,81,52
2025-03-17 18:50:06.323,-538.0,-135.0,241.0,58.0,134.0,171.0,120,33,113,86,49
2025-03-17 18:50:06.348,-785.0,574.0,-292.0,86.0,96.0,176.0,122,35,113,81,48
2025-03-17 18:50:06.369,-881.0,2711.0,-1535.0,193.0,39.0,-71.0,123,38,113,87,48
2025-03-17 18:50:06.393,-2029.0,4044.0,-3375.0,91.0,-323.0,-593.0,119,31,113,88,46
2025-03-17 18:50:06.418,833.0,4569.0,-3432.0,-120.0,-1019.0,-1093.0,115,28,112,82,45
2025-03-17 18:50:06.442,7921.0,-3052.0,2705.0,-316.0,-973.0,-809.0,114,20,106,84,49
2025-03-17 18:50:06.466,5626.0,-7881.0,3206.0,153.0,229.0,20.0,112,24,109,73,57
2025-03-17 18:50:06.491,1131.0,-1197.0,-290.0,141.0,328.0,226.0,102,27,107,75,55
2025-03-17 18:50:06.513,14.0,-823.0,638.0,-99.0,92.0,129.0,116,31,110,83,54
2025-03-17 18:50:06.537,-100.0,-1554.0,654.0,52.0,157.0,218.0,116,32,111,87,59
2025-03-17 18:50:06.562,-167.0,-702.0,485.0,55.0,206.0,182.0,118,36,114,85,58
2025-03-17 18:50:06.586,-271.0,-656.0,139.0,13.0,164.0,190.0,121,32,114,86,57
2025-03-17 18:50:06.610,172.0,-918.0,569.0,7.0,157.0,207.0,124,31,118,86,57
2025-03-17 18:50:06.635,-8.0,-894.0,215.0,121.0,176.0,249.0,127,31,119,82,61
2025-03-17 18:50:06.659,-78.0,-332.0,-13.0,173.0,172.0,260.0,126,35,120,81,54
2025-03-17 18:50:06.684,-412.0,-279.0,8.0,285.0,176.0,254.0,124,38,121,79,51
2025-03-17 18:50:06.705,-452.0,-222.0,-16.0,102.0,113.0,245.0,120,32,120,65,50
2025-03-17 18:50:06.730,-633.0,-74.0,-43.0,151.0,76.0,249.0,109,42,116,61,32
2025-03-17 18:50:06.754,-930.0,437.0,-184.0,205.0,79.0,221.0,93,53,75,50,36
2025-03-17 18:50:06.778,-1505.0,1491.0,-1307.0,146.0,-56.0,63.0,71,51,103,37,35
2025-03-17 18:50:06.802,-1382.0,2845.0,-3060.0,18.0,-628.0,-318.0,65,38,91,64,38
2025-03-17 18:50:06.827,1454.0,888.0,-3984.0,-62.0,-1253.0,-417.0,65,50,93,67,44
2025-03-17 18:50:06.851,5416.0,-2456.0,664.0,314.0,-1217.0,-152.0,65,29,89,72,49
2025-03-17 18:50:06.876,3604.0,-362.0,5333.0,478.0,-367.0,-140.0,68,49,88,70,61
2025-03-17 18:50:06.898,2116.0,-47.0,3034.0,99.0,148.0,-58.0,71,52,86,77,66
2025-03-17 18:50:06.921,1193.0,439.0,3272.0,-94.0,59.0,63.0,72,78,84,80,67
2025-03-17 18:50:06.946,1004.0,-55.0,2337.0,-239.0,207.0,78.0,75,57,87,80,70
2025-03-17 18:50:06.970,498.0,-296.0,1721.0,-134.0,365.0,20.0,77,75,83,81,70
2025-03-17 18:50:06.993,263.0,-254.0,1018.0,-56.0,377.0,14.0,79,71,84,82,67
2025-03-17 18:50:07.020,103.0,-47.0,737.0,-158.0,341.0,48.0,78,75,90,81,65
2025-03-17 18:50:07.040,295.0,-271.0,849.0,-173.0,348.0,77.0,80,74,95,77,66
2025-03-17 18:50:07.065,1.0,-610.0,430.0,-92.0,364.0,107.0,81,68,97,80,62
2025-03-17 18:50:07.089,-212.0,-137.0,309.0,12.0,289.0,110.0,81,68,100,80,57
2025-03-17 18:50:07.114,-126.0,251.0,490.0,-31.0,279.0,74.0,80,46,102,79,58
2025-03-17 18:50:07.137,-480.0,-211.0,145.0,-90.0,270.0,79.0,82,63,102,80,53
2025-03-17 18:50:07.162,-522.0,-304.0,-42.0,-49.0,178.0,132.0,83,66,99,80,52
2025-03-17 18:50:07.178,-420.0,167.0,-6.0,17.0,160.0,130.0,83,53,90,80,52
2025-03-17 18:50:07.209,-694.0,729.0,-371.0,50.0,136.0,80.0,84,53,90,74,50
2025-03-17 18:50:07.233,-1677.0,1278.0,-2214.0,62.0,-82.0,-73.0,82,56,94,80,48
2025-03-17 18:50:07.258,-1303.0,2379.0,-5329.0,152.0,-763.0,-372.0,78,62,100,78,47
2025-03-17 18:50:07.282,2768.0,1689.0,-2999.0,-26.0,-1405.0,-413.0,79,25,83,78,49
2025-03-17 18:50:07.307,6097.0,-3082.0,1663.0,341.0,-1135.0,-89.0,78,51,93,75,66
2025-03-17 18:50:07.331,3739.0,171.0,5778.0,273.0,-149.0,-85.0,82,44,101,71,70
2025-03-17 18:50:07.356,1884.0,-776.0,3223.0,-90.0,185.0,48.0,85,40,98,73,71
2025-03-17 18:50:07.380,456.0,-363.0,6242.0,-250.0,203.0,120.0,90,48,105,67,63
2025-03-17 18:50:07.402,824.0,-380.0,2411.0,-245.0,342.0,117.0,96,63,103,76,68
2025-03-17 18:50:07.426,419.0,-492.0,1391.0,-156.0,489.0,144.0,102,56,83,78,62
2025-03-17 18:50:07.450,304.0,17.0,568.0,-177.0,492.0,142.0,105,51,94,76,60
2025-03-17 18:50:07.474,204.0,-95.0,479.0,-214.0,449.0,101.0,106,59,104,82,59
2025-03-17 18:50:07.498,164.0,-710.0,474.0,-152.0,426.0,122.0,109,50,106,73,56
2025-03-17 18:50:07.523,-236.0,-589.0,-142.0,-47.0,321.0,184.0,109,49,117,24,70
2025-03-17 18:50:07.548,-398.0,-363.0,-187.0,19.0,272.0,198.0,110,58,120,0,61
2025-03-17 18:50:07.567,-671.0,528.0,-719.0,88.0,125.0,197.0,104,68,139,0,91
2025-03-17 18:50:07.584,-639.0,32.0,-165.0,86.0,102.0,191.0,103,58,140,0,89
2025-03-17 18:50:07.618,-583.0,247.0,-226.0,74.0,82.0,182.0,105,58,137,74,106
2025-03-17 18:50:07.642,-553.0,893.0,-569.0,85.0,52.0,139.0,102,72,145,103,106
2025-03-17 18:50:07.664,-898.0,2064.0,-2339.0,4.0,-106.0,-67.0,104,84,143,98,106
2025-03-17 18:50:07.688,-1317.0,2600.0,-2240.0,-96.0,-287.0,-467.0,104,73,143,96,106
2025-03-17 18:50:07.715,-483.0,2350.0,-2227.0,-223.0,-451.0,-878.0,103,85,92,99,110
2025-03-17 18:50:07.740,3453.0,661.0,-2314.0,-163.0,-672.0,-917.0,103,81,118,98,110
2025-03-17 18:50:07.762,4340.0,-5940.0,-137.0,-465.0,-455.0,-601.0,108,66,146,45,115
2025-03-17 18:50:07.786,3457.0,-6760.0,1604.0,-2.0,-5.0,115.0,105,48,145,40,119
2025-03-17 18:50:07.811,1411.0,-3127.0,943.0,335.0,310.0,360.0,113,84,144,73,120
2025-03-17 18:50:07.835,-401.0,-551.0,781.0,132.0,217.0,295.0,114,97,146,82,119
2025-03-17 18:50:07.859,-483.0,-825.0,943.0,-55.0,100.0,217.0,114,92,148,93,122
2025-03-17 18:50:07.884,-115.0,-719.0,955.0,-103.0,130.0,174.0,115,105,146,104,118
2025-03-17 18:50:07.908,-174.0,-764.0,347.0,24.0,184.0,215.0,112,107,147,104,116
2025-03-17 18:50:07.930,-305.0,-534.0,266.0,45.0,210.0,249.0,112,103,145,104,115
2025-03-17 18:50:07.954,-151.0,-368.0,179.0,17.0,198.0,251.0,113,104,146,105,112
2025-03-17 18:50:07.978,13.0,-227.0,67.0,88.0,113.0,270.0,112,105,148,104,112
2025-03-17 18:50:08.003,-536.0,-281.0,102.0,97.0,112.0,273.0,110,101,147,105,110
2025-03-17 18:50:08.027,-309.0,-169.0,-135.0,142.0,82.0,273.0,109,91,148,105,112
2025-03-17 18:50:08.052,-390.0,540.0,-263.0,156.0,-8.0,255.0,109,81,148,105,109
2025-03-17 18:50:08.075,-661.0,1576.0,-1113.0,110.0,-55.0,144.0,105,99,148,104,107
2025-03-17 18:50:08.097,-1376.0,2086.0,-1936.0,35.0,-168.0,-222.0,103,98,146,102,107
2025-03-17 18:50:08.122,-1256.0,2099.0,-985.0,-34.0,-247.0,-685.0,106,101,146,103,110
2025-03-17 18:50:08.147,45.0,2199.0,-1685.0,-43.0,-482.0,-841.0,96,90,145,104,109
2025-03-17 18:50:08.171,4977.0,-1286.0,1504.0,-464.0,-723.0,-829.0,101,70,145,83,110
2025-03-17 18:50:08.196,4104.0,-4411.0,956.0,-220.0,-314.0,-373.0,98,94,147,80,116
2025-03-17 18:50:08.219,2691.0,-5385.0,2210.0,183.0,184.0,242.0,102,83,142,79,117
2025-03-17 18:50:08.244,750.0,-1516.0,887.0,257.0,322.0,368.0,109,92,145,104,110
2025-03-17 18:50:08.266,-757.0,-275.0,489.0,73.0,190.0,245.0,109,75,147,107,109
2025-03-17 18:50:08.290,-574.0,-630.0,922.0,-60.0,117.0,145.0,108,92,93,101,104
2025-03-17 18:50:08.313,-313.0,-755.0,224.0,-74.0,130.0,114.0,110,101,132,94,95
2025-03-17 18:50:08.337,-161.0,-1006.0,343.0,-55.0,111.0,157.0,103,99,120,85,100
2025-03-17 18:50:08.355,-39.0,-989.0,543.0,36.0,162.0,217.0,105,92,134,51,90
2025-03-17 18:50:08.388,-205.0,-659.0,179.0,64.0,175.0,272.0,109,88,77,37,80
2025-03-17 18:50:08.409,-207.0,-485.0,86.0,109.0,120.0,305.0,103,75,100,1,65
2025-03-17 18:50:08.433,-403.0,-380.0,294.0,82.0,135.0,311.0,103,57,83,1,56
2025-03-17 18:50:08.458,-579.0,-70.0,126.0,198.0,204.0,328.0,98,65,99,1,33
2025-03-17 18:50:08.482,-444.0,1044.0,-2313.0,221.0,-48.0,200.0,86,49,97,0,38
2025-03-17 18:50:08.507,-1957.0,1794.0,-2810.0,307.0,-355.0,-63.0,70,17,74,0,38
2025-03-17 18:50:08.531,-243.0,2690.0,-3129.0,160.0,-912.0,-373.0,74,25,87,41,43
2025-03-17 18:50:08.555,3087.0,-559.0,-1523.0,25.0,-1245.0,-216.0,76,41,92,43,49
2025-03-17 18:50:08.580,3668.0,-1471.0,2410.0,314.0,-774.0,-45.0,70,50,89,44,52
2025-03-17 18:50:08.590,2643.0,26.0,4133.0,249.0,-61.0,-100.0,80,40,90,45,64
2025-03-17 18:50:08.626,1490.0,-367.0,3035.0,196.0,166.0,-72.0,77,49,99,51,68
2025-03-17 18:50:08.650,639.0,436.0,3039.0,8.0,155.0,3.0,77,51,100,57,65
2025-03-17 18:50:08.675,427.0,382.0,2149.0,-218.0,151.0,61.0,82,52,69,61,66
2025-03-17 18:50:08.698,365.0,-73.0,1813.0,-190.0,223.0,44.0,85,85,69,61,67
2025-03-17 18:50:08.712,405.0,-353.0,1426.0,-120.0,317.0,41.0,83,84,97,61,65
2025-03-17 18:50:08.742,394.0,17.0,813.0,-124.0,398.0,59.0,82,73,100,59,63
2025-03-17 18:50:08.769,-130.0,-277.0,305.0,-98.0,329.0,25.0,85,64,90,63,62
2025-03-17 18:50:08.792,-229.0,-222.0,355.0,-31.0,234.0,51.0,84,76,98,64,62
2025-03-17 18:50:08.818,-167.0,84.0,490.0,-80.0,225.0,62.0,87,71,101,67,60
2025-03-17 18:50:08.842,-249.0,-111.0,376.0,-157.0,238.0,106.0,87,61,102,67,57
2025-03-17 18:50:08.867,-585.0,-103.0,100.0,-33.0,140.0,36.0,86,62,103,66,55
2025-03-17 18:50:08.891,-260.0,-21.0,489.0,23.0,113.0,43.0,87,69,98,68,56
2025-03-17 18:50:08.913,-430.0,476.0,149.0,-50.0,151.0,36.0,85,60,97,64,55
2025-03-17 18:50:08.937,-905.0,829.0,-956.0,-58.0,87.0,-27.0,85,59,99,68,49
2025-03-17 18:50:08.961,-1892.0,564.0,-3434.0,124.0,-333.0,-211.0,83,55,100,66,49
2025-03-17 18:50:08.985,461.0,1127.0,-2095.0,179.0,-924.0,-261.0,83,59,96,66,53
2025-03-17 18:50:09.010,2889.0,-1182.0,-30.0,137.0,-1058.0,-78.0,84,65,100,69,64
2025-03-17 18:50:09.034,3420.0,-680.0,3519.0,223.0,-571.0,41.0,87,70,102,69,72
2025-03-17 18:50:09.059,2319.0,-228.0,4515.0,-32.0,77.0,14.0,86,82,103,69,74
2025-03-17 18:50:09.084,1118.0,-410.0,2796.0,-41.0,249.0,14.0,88,78,105,70,73
2025-03-17 18:50:09.105,538.0,-232.0,1992.0,-87.0,300.0,47.0,92,78,98,71,71
2025-03-17 18:50:09.130,439.0,-216.0,1534.0,-149.0,346.0,90.0,94,78,105,70,54
2025-03-17 18:50:09.154,93.0,-197.0,1024.0,-204.0,391.0,109.0,96,64,103,70,61
2025-03-17 18:50:09.166,118.0,-401.0,600.0,-171.0,400.0,115.0,100,67,107,69,56
2025-03-17 18:50:09.203,121.0,-491.0,509.0,-114.0,402.0,130.0,94,55,114,75,58
2025-03-17 18:50:09.227,227.0,-336.0,399.0,-41.0,430.0,156.0,108,54,119,67,58
2025-03-17 18:50:09.252,-229.0,-193.0,269.0,-13.0,424.0,179.0,113,67,122,72,55
2025-03-17 18:50:09.273,-583.0,-147.0,-124.0,7.0,310.0,187.0,115,63,124,70,53
2025-03-17 18:50:09.297,-581.0,5.0,-403.0,63.0,230.0,174.0,118,79,122,71,56
2025-03-17 18:50:09.319,-594.0,416.0,-528.0,128.0,175.0,141.0,118,80,132,24,52
2025-03-17 18:50:09.347,-705.0,1022.0,-1015.0,102.0,107.0,75.0,120,86,141,22,49
2025-03-17 18:50:09.371,-810.0,1823.0,-2296.0,61.0,-95.0,-165.0,117,87,144,59,50
2025-03-17 18:50:09.395,-802.0,2648.0,-2743.0,60.0,-461.0,-571.0,116,93,145,17,44
2025-03-17 18:50:09.420,260.0,1719.0,-3463.0,-49.0,-1035.0,-849.0,116,84,145,1,48
2025-03-17 18:50:09.444,4509.0,-1413.0,-1815.0,-254.0,-1343.0,-720.0,110,98,132,1,33
2025-03-17 18:50:09.463,5871.0,-4685.0,2568.0,-43.0,-721.0,-105.0,100,88,149,3,61
2025-03-17 18:50:09.491,3694.0,-4069.0,3026.0,348.0,266.0,168.0,104,30,128,60,71
2025-03-17 18:50:09.515,94.0,-592.0,1711.0,174.0,372.0,114.0,111,48,144,14,70
2025-03-17 18:50:09.539,54.0,-863.0,931.0,-121.0,177.0,175.0,105,101,134,64,69
2025-03-17 18:50:09.563,-113.0,-555.0,1213.0,-59.0,183.0,180.0,112,100,148,68,61
2025-03-17 18:50:09.585,-314.0,-437.0,695.0,-31.0,290.0,179.0,112,95,149,78,67
2025-03-17 18:50:09.609,-336.0,-244.0,371.0,-41.0,268.0,187.0,113,88,151,81,68
2025-03-17 18:50:09.633,-262.0,-66.0,317.0,-34.0,196.0,171.0,110,108,149,87,68
2025-03-17 18:50:09.658,-257.0,-310.0,330.0,-4.0,207.0,156.0,115,102,151,76,62
2025-03-17 18:50:09.682,-358.0,-321.0,202.0,46.0,178.0,157.0,118,113,153,79,63
2025-03-17 18:50:09.707,-313.0,-146.0,423.0,46.0,177.0,157.0,109,111,150,86,64
2025-03-17 18:50:09.717,-357.0,-100.0,184.0,33.0,175.0,176.0,112,111,147,57,54
2025-03-17 18:50:09.755,-431.0,206.0,-13.0,54.0,174.0,208.0,118,114,149,65,59
2025-03-17 18:50:09.780,-718.0,1199.0,-1054.0,62.0,118.0,162.0,110,111,148,44,53
2025-03-17 18:50:09.801,-1935.0,2228.0,-2804.0,129.0,-254.0,-193.0,113,106,150,51,48
2025-03-17 18:50:09.825,-590.0,3108.0,-2733.0,-54.0,-762.0,-710.0,103,105,149,55,51
2025-03-17 18:50:09.851,3260.0,1875.0,-1709.0,-360.0,-1165.0,-911.0,108,104,82,31,54
2025-03-17 18:50:09.875,4754.0,-4406.0,1354.0,-118.0,-756.0,-451.0,102,75,139,58,63
2025-03-17 18:50:09.899,4874.0,-4489.0,3374.0,241.0,101.0,170.0,103,78,149,70,75
2025-03-17 18:50:09.924,353.0,-1132.0,2062.0,186.0,327.0,96.0,104,88,134,55,74
2025-03-17 18:50:09.942,-215.0,-1591.0,821.0,-99.0,152.0,102.0,106,105,125,86,70
2025-03-17 18:50:09.970,-39.0,-1043.0,973.0,-51.0,150.0,155.0,108,106,143,93,74
2025-03-17 18:50:09.993,24.0,-692.0,990.0,-12.0,276.0,166.0,111,113,153,83,79
2025-03-17 18:50:10.019,-192.0,-709.0,196.0,9.0,313.0,130.0,119,90,148,90,83
2025-03-17 18:50:10.041,-285.0,-513.0,308.0,-1.0,257.0,131.0,123,104,145,98,77
2025-03-17 18:50:10.067,-44.0,-588.0,573.0,-11.0,241.0,179.0,123,105,98,102,74
2025-03-17 18:50:10.088,-115.0,-679.0,308.0,77.0,267.0,219.0,124,96,122,94,68
2025-03-17 18:50:10.105,-294.0,-466.0,27.0,84.0,258.0,252.0,119,70,104,69,69
2025-03-17 18:50:10.137,-644.0,-101.0,-170.0,116.0,213.0,244.0,105,53,99,59,54
2025-03-17 18:50:10.163,-600.0,533.0,-578.0,160.0,92.0,145.0,93,45,97,56,52
2025-03-17 18:50:10.186,-1297.0,938.0,-1770.0,96.0,-128.0,4.0,79,45,80,69,48
2025-03-17 18:50:10.211,-1178.0,1305.0,-2968.0,141.0,-603.0,-166.0,76,32,82,73,51
2025-03-17 18:50:10.234,1190.0,996.0,-2709.0,100.0,-1088.0,-214.0,68,46,91,79,58
2025-03-17 18:50:10.260,3699.0,-1304.0,539.0,256.0,-972.0,-17.0,80,47,95,72,68
2025-03-17 18:50:10.284,2437.0,332.0,3783.0,209.0,-250.0,-56.0,73,69,97,77,75
2025-03-17 18:50:10.305,1742.0,-618.0,2735.0,196.0,-8.0,-45.0,76,60,95,81,79
2025-03-17 18:50:10.330,1147.0,466.0,3328.0,-19.0,65.0,26.0,82,53,98,85,79
2025-03-17 18:50:10.353,660.0,378.0,2705.0,-178.0,163.0,34.0,80,49,87,84,77
2025-03-17 18:50:10.379,247.0,-140.0,1785.0,-76.0,255.0,-4.0,81,72,97,83,76
2025-03-17 18:50:10.396,209.0,76.0,1269.0,-25.0,311.0,-19.0,82,71,96,87,76
2025-03-17 18:50:10.428,157.0,-49.0,885.0,-121.0,333.0,5.0,84,72,99,86,76
2025-03-17 18:50:10.445,23.0,-346.0,457.0,-103.0,277.0,64.0,82,72,100,88,76
2025-03-17 18:50:10.470,39.0,-47.0,611.0,-64.0,257.0,58.0,81,75,102,88,76
2025-03-17 18:50:10.486,4.0,121.0,579.0,-87.0,291.0,38.0,81,59,102,89,79
2025-03-17 18:50:10.518,-253.0,-261.0,107.0,-90.0,278.0,69.0,87,58,105,86,70
2025-03-17 18:50:10.547,-441.0,-163.0,-112.0,-38.0,166.0,114.0,85,61,100,85,66
2025-03-17 18:50:10.559,-196.0,405.0,311.0,-33.0,155.0,79.0,80,55,101,85,65
2025-03-17 18:50:10.595,-416.0,378.0,-101.0,-54.0,188.0,54.0,86,53,99,86,60
2025-03-17 18:50:10.614,-1348.0,823.0,-1771.0,24.0,15.0,-21.0,85,63,101,85,56
2025-03-17 18:50:10.644,-1828.0,1849.0,-3533.0,211.0,-527.0,-253.0,85,70,101,86,55
2025-03-17 18:50:10.666,829.0,1654.0,-3154.0,71.0,-1174.0,-309.0,81,47,101,85,57
2025-03-17 18:50:10.690,4913.0,-1634.0,83.0,154.0,-1260.0,-75.0,85,65,106,86,72
2025-03-17 18:50:10.715,4659.0,-731.0,4700.0,245.0,-512.0,11.0,87,71,105,80,82
2025-03-17 18:50:10.739,2981.0,-465.0,4154.0,-26.0,184.0,-28.0,89,81,108,81,83
2025-03-17 18:50:10.763,1446.0,-237.0,2614.0,-77.0,275.0,21.0,89,81,102,80,73
2025-03-17 18:50:10.788,760.0,-75.0,1879.0,-219.0,252.0,72.0,101,74,90,82,79
2025-03-17 18:50:10.809,316.0,-522.0,1253.0,-249.0,269.0,130.0,114,82,99,81,77
2025-03-17 18:50:10.833,279.0,-411.0,1085.0,-219.0,354.0,148.0,120,58,113,86,75
2025-03-17 18:50:10.858,307.0,-120.0,727.0,-179.0,448.0,109.0,115,59,114,79,71
2025-03-17 18:50:10.883,258.0,-418.0,599.0,-135.0,397.0,119.0,122,66,121,71,71
2025-03-17 18:50:10.907,219.0,65.0,736.0,-131.0,388.0,127.0,121,68,117,38,69
2025-03-17 18:50:10.932,239.0,-63.0,468.0,-126.0,361.0,159.0,129,62,118,48,59
2025-03-17 18:50:10.956,-310.0,-302.0,189.0,-122.0,330.0,166.0,125,50,124,0,69
2025-03-17 18:50:10.977,-592.0,-415.0,-301.0,-30.0,267.0,161.0,125,43,129,3,61
2025-03-17 18:50:11.001,-626.0,98.0,-340.0,21.0,192.0,144.0,125,37,128,3,76
2025-03-17 18:50:11.026,-647.0,837.0,-500.0,7.0,136.0,124.0,125,39,123,1,76
2025-03-17 18:50:11.050,-719.0,1395.0,-1027.0,77.0,88.0,-14.0,113,36,105,6,60
2025-03-17 18:50:11.075,-1110.0,3390.0,-2970.0,46.0,-138.0,-424.0,111,37,109,4,43
2025-03-17 18:50:11.099,-112.0,3698.0,-3833.0,-40.0,-675.0,-861.0,100,23,88,64,44
2025-03-17 18:50:11.124,4672.0,2753.0,-5094.0,-245.0,-1370.0,-1117.0,107,27,112,43,47
2025-03-17 18:50:11.142,6073.0,-6781.0,2245.0,-105.0,-753.0,-279.0,108,2,83,48,50
2025-03-17 18:50:11.173,3525.0,-3924.0,2815.0,370.0,397.0,-18.0,112,24,83,79,65
2025-03-17 18:50:11.184,603.0,-2578.0,124.0,173.0,286.0,132.0,106,36,105,78,62
2025-03-17 18:50:11.216,518.0,-1921.0,1364.0,-120.0,137.0,171.0,113,35,114,88,66
2025-03-17 18:50:11.243,507.0,-2116.0,1193.0,-22.0,194.0,279.0,117,37,108,90,68
2025-03-17 18:50:11.264,226.0,-982.0,339.0,41.0,281.0,339.0,117,37,105,90,66
2025-03-17 18:50:11.292,18.0,-396.0,644.0,-12.0,256.0,313.0,120,32,112,88,62
2025-03-17 18:50:11.312,-52.0,-354.0,549.0,-29.0,223.0,285.0,119,39,113,89,56
2025-03-17 18:50:11.341,83.0,-491.0,202.0,17.0,234.0,294.0,121,37,113,89,58
2025-03-17 18:50:11.362,-219.0,-189.0,153.0,71.0,245.0,304.0,120,35,95,84,57
2025-03-17 18:50:11.386,-280.0,-65.0,6.0,84.0,207.0,296.0,123,40,114,91,58
2025-03-17 18:50:11.411,-286.0,-8.0,-102.0,115.0,180.0,277.0,124,37,113,87,60
2025-03-17 18:50:11.435,-458.0,310.0,-292.0,148.0,150.0,267.0,123,33,116,83,59
2025-03-17 18:50:11.461,-586.0,1060.0,-595.0,99.0,79.0,221.0,126,37,120,86,55
2025-03-17 18:50:11.484,-365.0,1708.0,-904.0,66.0,10.0,63.0,130,41,119,89,55
2025-03-17 18:50:11.506,-658.0,2925.0,-2073.0,104.0,-105.0,-246.0,115,37,112,79,49
2025-03-17 18:50:11.531,-1084.0,3414.0,-2934.0,85.0,-374.0,-661.0,125,38,110,83,45
2025-03-17 18:50:11.555,621.0,2454.0,-559.0,106.0,-894.0,-998.0,120,30,110,56,50
2025-03-17 18:50:11.579,7841.0,-3896.0,1603.0,190.0,-1126.0,-509.0,109,26,110,67,60
2025-03-17 18:50:11.603,6577.0,-2691.0,6521.0,541.0,309.0,73.0,131,35,109,74,79
2025-03-17 18:50:11.628,61.0,-46.0,2725.0,18.0,196.0,-27.0,129,39,89,78,70
2025-03-17 18:50:11.652,-47.0,-1216.0,1262.0,-85.0,119.0,10.0,121,36,114,87,70
2025-03-17 18:50:11.677,-693.0,-417.0,988.0,58.0,110.0,3.0,121,38,116,86,73
2025-03-17 18:50:11.687,-664.0,-238.0,626.0,48.0,58.0,-16.0,121,37,93,86,71
2025-03-17 18:50:11.723,-610.0,-377.0,559.0,78.0,-28.0,-31.0,123,37,113,87,65
2025-03-17 18:50:11.746,-239.0,-249.0,634.0,140.0,-72.0,-40.0,124,39,113,87,71
2025-03-17 18:50:11.772,-67.0,-224.0,806.0,143.0,-76.0,-47.0,125,39,113,91,72
2025-03-17 18:50:11.795,37.0,-265.0,899.0,121.0,-65.0,-50.0,133,39,113,89,74
2025-03-17 18:50:11.820,11.0,-283.0,1040.0,129.0,-37.0,-56.0,125,38,114,86,73
2025-03-17 18:50:11.845,-139.0,-224.0,868.0,105.0,-25.0,-58.0,134,41,109,89,74
2025-03-17 18:50:11.864,146.0,-566.0,1000.0,89.0,-30.0,-54.0,134,41,114,89,72
2025-03-17 18:50:11.881,526.0,-1336.0,998.0,91.0,-40.0,-15.0,132,38,114,90,74
2025-03-17 18:50:11.912,1175.0,-2319.0,1187.0,54.0,-4.0,156.0,135,31,100,85,67
2025-03-17 18:50:11.937,2002.0,-2889.0,1736.0,-78.0,101.0,506.0,136,37,97,86,72
2025-03-17 18:50:11.954,2134.0,-1960.0,979.0,-136.0,154.0,762.0,135,37,112,84,68
2025-03-17 18:50:11.984,1652.0,1077.0,1158.0,-243.0,-8.0,841.0,138,33,110,83,65
2025-03-17 18:50:12.012,534.0,2806.0,916.0,-313.0,-45.0,580.0,122,29,110,83,70
2025-03-17 18:50:12.034,307.0,2846.0,1517.0,172.0,66.0,110.0,132,36,102,88,66
2025-03-17 18:50:12.057,-98.0,3364.0,1695.0,109.0,82.0,-42.0,124,41,115,87,59
2025-03-17 18:50:12.083,142.0,1862.0,1250.0,80.0,72.0,-238.0,136,44,114,88,61
2025-03-17 18:50:12.107,111.0,496.0,558.0,114.0,-5.0,-331.0,135,35,113,88,60
2025-03-17 18:50:12.131,474.0,-854.0,1269.0,145.0,-52.0,-301.0,142,26,69,87,62
2025-03-17 18:50:12.155,407.0,-692.0,1367.0,190.0,62.0,-235.0,140,35,106,86,66
2025-03-17 18:50:12.180,-231.0,-158.0,632.0,160.0,26.0,-231.0,141,39,111,86,68
2025-03-17 18:50:12.204,-400.0,136.0,409.0,149.0,-82.0,-246.0,144,37,114,89,70
2025-03-17 18:50:12.226,-224.0,-52.0,684.0,192.0,-153.0,-245.0,142,36,106,90,70
2025-03-17 18:50:12.250,-105.0,167.0,758.0,223.0,-172.0,-231.0,145,41,104,90,73
2025-03-17 18:50:12.275,30.0,95.0,949.0,198.0,-170.0,-220.0,141,41,103,91,74
2025-03-17 18:50:12.300,165.0,89.0,1288.0,142.0,-159.0,-160.0,145,43,110,91,73
2025-03-17 18:50:12.324,330.0,-526.0,1399.0,44.0,-101.0,-94.0,137,39,105,87,66
2025-03-17 18:50:12.349,1056.0,-1825.0,1789.0,45.0,-28.0,59.0,140,42,107,88,72
2025-03-17 18:50:12.373,1834.0,-2415.0,2408.0,-23.0,92.0,350.0,140,42,111,88,72
2025-03-17 18:50:12.394,2356.0,-1888.0,2229.0,-309.0,267.0,728.0,135,39,111,84,71
2025-03-17 18:50:12.416,2084.0,559.0,1876.0,-447.0,299.0,854.0,133,35,112,86,72
2025-03-17 18:50:12.443,1336.0,1879.0,1346.0,-382.0,212.0,715.0,144,37,115,85,72
2025-03-17 18:50:12.468,377.0,3869.0,1468.0,62.0,260.0,204.0,141,34,95,86,68
2025-03-17 18:50:12.488,112.0,3772.0,1195.0,93.0,251.0,-10.0,142,40,107,88,57
2025-03-17 18:50:12.516,-149.0,2090.0,1059.0,16.0,149.0,-197.0,145,45,111,88,55
2025-03-17 18:50:12.541,194.0,-894.0,1220.0,23.0,111.0,-196.0,134,25,112,87,56
2025-03-17 18:50:12.561,8.0,-1276.0,1919.0,47.0,225.0,-91.0,143,19,88,82,57
2025-03-17 18:50:12.578,-568.0,-648.0,993.0,-53.0,228.0,-107.0,146,40,105,82,63
2025-03-17 18:50:12.610,-428.0,-694.0,909.0,-109.0,265.0,-87.0,146,29,113,84,61
2025-03-17 18:50:12.626,-200.0,-1492.0,781.0,22.0,301.0,8.0,145,40,100,88,59
2025-03-17 18:50:12.660,-685.0,-756.0,309.0,130.0,302.0,34.0,143,40,109,86,58
2025-03-17 18:50:12.685,-825.0,-110.0,-26.0,158.0,284.0,9.0,140,46,118,86,62
2025-03-17 18:50:12.708,-826.0,112.0,-17.0,105.0,191.0,-8.0,128,48,122,4,66
2025-03-17 18:50:12.729,-870.0,278.0,82.0,58.0,94.0,-3.0,115,49,113,0,78
2025-03-17 18:50:12.755,-673.0,1160.0,-793.0,91.0,65.0,-36.0,112,51,130,2,69
2025-03-17 18:50:12.778,-360.0,1831.0,-1417.0,61.0,14.0,-223.0,113,59,142,3,112
2025-03-17 18:50:12.804,-600.0,2009.0,-2212.0,7.0,-152.0,-541.0,114,60,58,100,100
2025-03-17 18:50:12.828,-256.0,1541.0,-3317.0,-91.0,-456.0,-813.0,114,79,130,97,109
2025-03-17 18:50:12.853,2693.0,1524.0,143.0,-366.0,-731.0,-986.0,120,90,126,101,117
2025-03-17 18:50:12.875,5108.0,-2076.0,2853.0,-914.0,-434.0,-1016.0,125,66,110,98,119
2025-03-17 18:50:12.901,4024.0,-5777.0,2116.0,-40.0,-102.0,-25.0,123,56,150,92,123
2025-03-17 18:50:12.922,1996.0,-3985.0,804.0,332.0,302.0,351.0,126,84,134,98,123
2025-03-17 18:50:12.947,-253.0,-634.0,607.0,83.0,202.0,284.0,127,100,148,104,122
2025-03-17 18:50:12.972,-521.0,-625.0,770.0,-110.0,28.0,183.0,129,104,145,103,123
2025-03-17 18:50:12.996,-318.0,-934.0,578.0,-156.0,22.0,181.0,130,91,149,102,125
2025-03-17 18:50:13.020,-200.0,-922.0,670.0,-60.0,140.0,189.0,130,102,152,109,126
2025-03-17 18:50:13.045,-256.0,-751.0,366.0,27.0,169.0,224.0,131,106,153,109,125
2025-03-17 18:50:13.069,-149.0,-480.0,264.0,6.0,160.0,231.0,131,106,152,109,124
2025-03-17 18:50:13.088,-179.0,-462.0,368.0,-9.0,161.0,227.0,131,111,153,111,124
2025-03-17 18:50:13.112,-252.0,-373.0,596.0,10.0,146.0,223.0,132,98,152,110,123
2025-03-17 18:50:13.138,-227.0,-468.0,280.0,20.0,128.0,237.0,107,92,147,105,114
2025-03-17 18:50:13.164,-404.0,-305.0,103.0,59.0,95.0,292.0,114,86,149,107,114
2025-03-17 18:50:13.187,-326.0,134.0,-91.0,93.0,39.0,325.0,117,92,148,106,112
2025-03-17 18:50:13.209,-164.0,1072.0,-861.0,257.0,-45.0,362.0,116,80,148,107,110
2025-03-17 18:50:13.237,-744.0,2582.0,-1440.0,259.0,-50.0,88.0,112,84,150,107,110
2025-03-17 18:50:13.261,-1953.0,3387.0,-2005.0,-16.0,-360.0,-598.0,110,100,152,110,113
2025-03-17 18:50:13.283,0.0,2143.0,-2741.0,-157.0,-507.0,-1041.0,112,106,138,110,112
2025-03-17 18:50:13.308,7693.0,-579.0,3260.0,-449.0,-590.0,-1104.0,117,95,142,99,119
2025-03-17 18:50:13.331,4763.0,-7590.0,1432.0,-59.0,-541.0,-151.0,122,69,151,84,125
2025-03-17 18:50:13.356,2651.0,-4436.0,2465.0,294.0,343.0,276.0,125,35,146,5,124
2025-03-17 18:50:13.381,-718.0,764.0,254.0,200.0,349.0,192.0,122,87,146,64,123
2025-03-17 18:50:13.405,-1119.0,-853.0,1122.0,-33.0,281.0,71.0,126,97,147,111,123
2025-03-17 18:50:13.427,-380.0,-704.0,432.0,-39.0,87.0,45.0,124,106,152,91,127
2025-03-17 18:50:13.451,-516.0,-745.0,127.0,18.0,124.0,82.0,126,94,152,100,124
2025-03-17 18:50:13.476,-544.0,-621.0,164.0,183.0,104.0,139.0,127,80,150,66,124
2025-03-17 18:50:13.500,-225.0,27.0,182.0,158.0,42.0,89.0,126,74,127,7,103
2025-03-17 18:50:13.511,-166.0,-578.0,649.0,173.0,4.0,37.0,125,70,142,9,74
2025-03-17 18:50:13.548,-360.0,-788.0,801.0,267.0,27.0,60.0,118,41,135,1,71
2025-03-17 18:50:13.570,-439.0,-351.0,392.0,344.0,15.0,86.0,115,38,106,3,68
2025-03-17 18:50:13.595,-645.0,-175.0,222.0,380.0,-34.0,44.0,112,16,122,3,62
2025-03-17 18:50:13.619,-652.0,81.0,196.0,320.0,-118.0,-40.0,116,28,113,4,65
2025-03-17 18:50:13.643,34.0,-667.0,641.0,287.0,-178.0,-24.0,126,30,104,54,62
2025-03-17 18:50:13.667,932.0,-2122.0,2005.0,250.0,-88.0,110.0,138,41,115,65,67
2025-03-17 18:50:13.692,2020.0,-2723.0,3129.0,36.0,104.0,361.0,143,39,108,70,68
2025-03-17 18:50:13.716,1575.0,-1394.0,2916.0,-267.0,215.0,623.0,133,40,117,72,63
2025-03-17 18:50:13.729,1429.0,-323.0,1229.0,-281.0,140.0,718.0,146,40,118,76,59
2025-03-17 18:50:13.762,1235.0,2220.0,454.0,-82.0,60.0,675.0,144,36,116,72,56
2025-03-17 18:50:13.787,2.0,4782.0,-195.0,51.0,114.0,144.0,142,31,104,70,53
2025-03-17 18:50:13.812,-19.0,2906.0,538.0,-32.0,37.0,6.0,145,34,113,79,48
2025-03-17 18:50:13.834,108.0,2458.0,782.0,11.0,-51.0,-174.0,147,42,111,81,54
2025-03-17 18:50:13.860,259.0,585.0,1086.0,-35.0,-23.0,-186.0,147,42,113,81,55
2025-03-17 18:50:13.885,165.0,40.0,1168.0,-6.0,0.0,-182.0,149,47,113,82,56
2025-03-17 18:50:13.908,-153.0,270.0,1351.0,-53.0,67.0,-230.0,151,40,117,81,63
2025-03-17 18:50:13.930,-407.0,-532.0,305.0,82.0,-30.0,-233.0,149,43,121,81,65
2025-03-17 18:50:13.954,-424.0,-75.0,1001.0,110.0,-33.0,-201.0,143,31,118,76,58
2025-03-17 18:50:13.979,-359.0,511.0,787.0,70.0,-61.0,-261.0,144,39,118,77,61
2025-03-17 18:50:14.003,-427.0,302.0,350.0,41.0,-104.0,-303.0,146,40,106,78,62
2025-03-17 18:50:14.028,-85.0,-526.0,555.0,152.0,-163.0,-240.0,145,39,106,80,63
2025-03-17 18:50:14.053,-43.0,-67.0,1022.0,98.0,-194.0,-228.0,146,44,112,83,68
2025-03-17 18:50:14.076,507.0,-1361.0,1731.0,26.0,-109.0,-112.0,148,45,115,84,71
2025-03-17 18:50:14.099,1255.0,-2551.0,2259.0,-18.0,57.0,87.0,149,46,120,86,73
2025-03-17 18:50:14.122,1798.0,-2860.0,2828.0,-141.0,234.0,331.0,149,46,123,85,76
2025-03-17 18:50:14.147,1361.0,-1376.0,1844.0,-396.0,279.0,581.0,146,45,122,80,66
2025-03-17 18:50:14.172,1023.0,-237.0,1102.0,-289.0,239.0,703.0,134,37,119,81,63
2025-03-17 18:50:14.184,910.0,2985.0,467.0,7.0,242.0,585.0,129,28,119,81,58
2025-03-17 18:50:14.221,-439.0,4938.0,601.0,90.0,170.0,129.0,141,40,101,90,53
2025-03-17 18:50:14.245,-303.0,3020.0,347.0,-103.0,249.0,-104.0,144,32,122,93,58
2025-03-17 18:50:14.266,-544.0,462.0,1515.0,120.0,241.0,-157.0,144,39,119,89,57
2025-03-17 18:50:14.290,-923.0,435.0,1525.0,-31.0,240.0,-153.0,137,39,126,75,60
2025-03-17 18:50:14.312,-964.0,-236.0,1330.0,22.0,184.0,-194.0,141,45,104,84,53
2025-03-17 18:50:14.329,-663.0,-919.0,-177.0,72.0,223.0,-173.0,140,55,134,82,56
2025-03-17 18:50:14.365,-798.0,-845.0,-40.0,205.0,210.0,-114.0,132,50,133,72,54
2025-03-17 18:50:14.389,-826.0,-235.0,200.0,130.0,208.0,-57.0,130,59,133,68,53
2025-03-17 18:50:14.413,-759.0,-106.0,-24.0,80.0,141.0,-52.0,140,62,143,72,56
2025-03-17 18:50:14.434,-603.0,124.0,-437.0,114.0,110.0,-34.0,136,67,75,75,53
2025-03-17 18:50:14.459,-472.0,758.0,-701.0,78.0,16.0,-30.0,138,68,142,69,56
2025-03-17 18:50:14.483,-591.0,1417.0,-1358.0,149.0,-68.0,-170.0,139,84,150,73,56
2025-03-17 18:50:14.507,-992.0,2852.0,-1914.0,73.0,-329.0,-521.0,127,88,151,70,50
2025-03-17 18:50:14.532,-281.0,3692.0,-2252.0,-60.0,-777.0,-825.0,110,85,67,7,47
2025-03-17 18:50:14.556,3044.0,439.0,-1094.0,-271.0,-1134.0,-764.0,107,94,131,7,42
2025-03-17 18:50:14.581,5092.0,-4684.0,841.0,63.0,-818.0,-388.0,105,58,141,3,45
2025-03-17 18:50:14.604,4188.0,-3251.0,2821.0,109.0,-254.0,44.0,105,55,146,4,49
2025-03-17 18:50:14.627,1627.0,-2738.0,1936.0,74.0,143.0,104.0,108,35,143,26,52
2025-03-17 18:50:14.651,442.0,-730.0,2310.0,3.0,189.0,155.0,114,82,134,55,58
2025-03-17 18:50:14.662,83.0,-1044.0,1311.0,-55.0,193.0,193.0,117,96,145,77,62
2025-03-17 18:50:14.700,82.0,-931.0,845.0,-15.0,282.0,211.0,112,105,153,68,61
2025-03-17 18:50:14.725,23.0,-722.0,680.0,52.0,335.0,234.0,123,101,72,73,63
2025-03-17 18:50:14.748,89.0,-496.0,488.0,85.0,340.0,265.0,123,100,144,71,65
2025-03-17 18:50:14.771,16.0,-368.0,241.0,94.0,326.0,302.0,124,106,148,67,60
2025-03-17 18:50:14.795,-226.0,-288.0,0.0,120.0,302.0,331.0,125,104,151,53,59
2025-03-17 18:50:14.819,-302.0,35.0,-39.0,97.0,255.0,298.0,120,94,151,71,55
2025-03-17 18:50:14.843,-591.0,156.0,-79.0,66.0,196.0,230.0,120,106,151,76,55
2025-03-17 18:50:14.867,-733.0,381.0,-78.0,73.0,136.0,157.0,133,104,155,73,48
2025-03-17 18:50:14.892,-754.0,655.0,-167.0,10.0,100.0,92.0,136,115,155,67,56
2025-03-17 18:50:14.917,-1055.0,1230.0,-1170.0,16.0,-21.0,5.0,138,112,155,40,59
2025-03-17 18:50:14.941,-1287.0,1965.0,-2357.0,56.0,-304.0,-217.0,135,108,155,77,57
2025-03-17 18:50:14.961,-1086.0,2985.0,-2596.0,7.0,-681.0,-579.0,127,99,154,72,56
2025-03-17 18:50:14.987,2379.0,2527.0,-1680.0,-190.0,-1114.0,-851.0,117,100,114,69,48
2025-03-17 18:50:15.012,5467.0,-4199.0,1065.0,32.0,-991.0,-389.0,118,57,144,51,54
2025-03-17 18:50:15.036,5215.0,-3846.0,4880.0,112.0,-81.0,105.0,107,35,150,66,74
2025-03-17 18:50:15.060,836.0,-1007.0,2614.0,217.0,243.0,73.0,118,38,150,86,86
2025-03-17 18:50:15.085,-167.0,29.0,1497.0,-105.0,155.0,33.0,123,92,147,48,76
2025-03-17 18:50:15.108,-412.0,-1359.0,-857.0,37.0,83.0,82.0,128,82,132,63,73
2025-03-17 18:50:15.130,-252.0,-163.0,1418.0,135.0,214.0,31.0,135,103,152,77,75
2025-03-17 18:50:15.154,-450.0,-38.0,849.0,111.0,263.0,7.0,136,73,151,98,80
2025-03-17 18:50:15.180,-294.0,-180.0,529.0,108.0,241.0,12.0,134,64,143,75,75
2025-03-17 18:50:15.204,-324.0,-359.0,832.0,206.0,119.0,22.0,125,36,139,78,76
2025-03-17 18:50:15.228,-343.0,-160.0,952.0,244.0,150.0,8.0,132,35,132,84,73
2025-03-17 18:50:15.253,-292.0,-271.0,-314.0,259.0,101.0,9.0,136,25,128,61,67
2025-03-17 18:50:15.277,-587.0,-161.0,-129.0,253.0,-5.0,11.0,132,37,124,60,74
2025-03-17 18:50:15.286,-473.0,-252.0,500.0,242.0,-75.0,-20.0,136,38,120,88,72
2025-03-17 18:50:15.322,45.0,-946.0,1088.0,147.0,-103.0,53.0,128,31,118,89,70
2025-03-17 18:50:15.348,1066.0,-1917.0,2382.0,-70.0,10.0,190.0,130,32,116,88,70
2025-03-17 18:50:15.372,1498.0,-2822.0,2318.0,-204.0,138.0,502.0,142,34,116,89,68
2025-03-17 18:50:15.396,1189.0,-1089.0,1076.0,-169.0,120.0,656.0,140,35,114,85,59
2025-03-17 18:50:15.421,934.0,1455.0,1106.0,-159.0,81.0,625.0,140,34,113,85,59
2025-03-17 18:50:15.432,184.0,3363.0,353.0,-86.0,93.0,322.0,143,38,114,85,63
2025-03-17 18:50:15.465,-195.0,3426.0,562.0,91.0,78.0,61.0,141,36,92,83,67
2025-03-17 18:50:15.490,-293.0,3199.0,404.0,13.0,3.0,-122.0,142,40,120,91,64
2025-03-17 18:50:15.515,-97.0,1406.0,665.0,-25.0,-84.0,-208.0,138,43,123,89,65
2025-03-17 18:50:15.540,579.0,-424.0,1646.0,22.0,-42.0,-147.0,139,42,105,92,65
2025-03-17 18:50:15.565,-62.0,-92.0,1241.0,0.0,45.0,-126.0,150,41,118,90,67
2025-03-17 18:50:15.589,-273.0,-263.0,761.0,5.0,23.0,-129.0,143,39,115,87,63
2025-03-17 18:50:15.613,-442.0,-455.0,818.0,47.0,-6.0,-90.0,133,40,117,89,64
2025-03-17 18:50:15.635,-528.0,155.0,668.0,72.0,-45.0,-100.0,136,42,117,89,64
2025-03-17 18:50:15.659,-481.0,229.0,846.0,66.0,-64.0,-122.0,132,37,98,91,66
2025-03-17 18:50:15.683,-242.0,197.0,885.0,74.0,-67.0,-107.0,133,42,116,92,68
2025-03-17 18:50:15.708,-378.0,577.0,921.0,73.0,-55.0,-155.0,138,46,118,93,69
2025-03-17 18:50:15.732,-493.0,244.0,612.0,57.0,-94.0,-164.0,123,37,120,92,70
2025-03-17 18:50:15.757,-196.0,-452.0,808.0,54.0,-167.0,-140.0,136,48,119,91,69
2025-03-17 18:50:15.779,725.0,-2389.0,2223.0,67.0,-85.0,65.0,141,47,120,94,70
2025-03-17 18:50:15.802,1156.0,-2836.0,2750.0,-46.0,89.0,288.0,144,45,116,89,67
2025-03-17 18:50:15.827,818.0,-1484.0,1856.0,-220.0,161.0,485.0,146,46,116,88,67
2025-03-17 18:50:15.851,691.0,122.0,1344.0,-197.0,165.0,524.0,146,41,118,89,68
2025-03-17 18:50:15.876,226.0,2806.0,427.0,-41.0,187.0,372.0,145,42,119,90,68
2025-03-17 18:50:15.900,-112.0,3893.0,784.0,-25.0,175.0,98.0,144,46,110,93,65
2025-03-17 18:50:15.924,-165.0,2786.0,1385.0,-5.0,238.0,-78.0,140,44,123,99,60
2025-03-17 18:50:15.949,-224.0,1342.0,1642.0,-134.0,258.0,-189.0,147,47,122,99,64
2025-03-17 18:50:15.973,-293.0,47.0,1590.0,-213.0,281.0,-206.0,148,47,124,80,63
2025-03-17 18:50:15.995,-594.0,-648.0,799.0,-47.0,214.0,-192.0,143,45,117,75,59
2025-03-17 18:50:16.019,-459.0,-917.0,608.0,14.0,226.0,-150.0,145,45,121,60,62
2025-03-17 18:50:16.044,-752.0,-1128.0,105.0,72.0,253.0,-112.0,142,41,122,36,68
2025-03-17 18:50:16.068,-641.0,-624.0,29.0,86.0,269.0,-60.0,138,34,119,7,68
2025-03-17 18:50:16.093,-572.0,-614.0,172.0,73.0,279.0,-22.0,114,44,127,1,71
2025-03-17 18:50:16.114,-479.0,9.0,35.0,49.0,231.0,36.0,121,48,122,6,71
2025-03-17 18:50:16.138,-431.0,555.0,-705.0,67.0,116.0,78.0,131,43,123,7,81
2025-03-17 18:50:16.163,-577.0,954.0,-926.0,92.0,56.0,73.0,136,41,93,7,74
2025-03-17 18:50:16.185,-405.0,1974.0,-1391.0,57.0,-29.0,-66.0,136,43,110,7,43
2025-03-17 18:50:16.211,-810.0,2318.0,-2574.0,42.0,-177.0,-426.0,119,37,107,2,40
2025-03-17 18:50:16.235,1298.0,2894.0,-3400.0,-146.0,-608.0,-970.0,104,18,105,3,46
2025-03-17 18:50:16.261,4316.0,1262.0,-3333.0,-233.0,-1326.0,-1179.0,102,30,86,27,48
2025-03-17 18:50:16.282,8363.0,-6191.0,4234.0,-339.0,-596.0,-338.0,102,28,95,56,54
2025-03-17 18:50:16.309,3980.0,-6586.0,1318.0,304.0,313.0,-14.0,96,25,98,66,59
2025-03-17 18:50:16.330,835.0,-1724.0,191.0,201.0,333.0,237.0,103,20,107,71,68
2025-03-17 18:50:16.355,553.0,-1524.0,965.0,-152.0,180.0,183.0,104,24,108,74,66
2025-03-17 18:50:16.379,189.0,-1629.0,1201.0,-6.0,160.0,293.0,97,41,94,71,67
2025-03-17 18:50:16.404,-229.0,-645.0,698.0,10.0,211.0,319.0,105,33,106,76,59
2025-03-17 18:50:16.428,-258.0,-403.0,498.0,6.0,246.0,285.0,108,27,107,75,58
2025-03-17 18:50:16.453,-239.0,-239.0,301.0,-28.0,215.0,267.0,98,39,112,77,55
2025-03-17 18:50:16.477,-175.0,-132.0,234.0,-19.0,214.0,259.0,114,37,111,71,55
2025-03-17 18:50:16.486,-317.0,-76.0,138.0,3.0,189.0,247.0,117,37,108,73,55
2025-03-17 18:50:16.523,-368.0,156.0,80.0,16.0,177.0,217.0,120,42,90,70,55
2025-03-17 18:50:16.548,-520.0,144.0,64.0,7.0,153.0,182.0,121,44,110,65,55
2025-03-17 18:50:16.572,-643.0,158.0,-48.0,34.0,127.0,167.0,120,43,109,70,54
2025-03-17 18:50:16.596,-758.0,660.0,-159.0,37.0,84.0,144.0,125,42,113,78,53
2025-03-17 18:50:16.621,-680.0,1204.0,-747.0,65.0,40.0,62.0,122,42,109,75,47
2025-03-17 18:50:16.645,-891.0,3415.0,-2067.0,114.0,-78.0,-301.0,117,42,108,74,47
2025-03-17 18:50:16.669,-1095.0,3392.0,-3752.0,116.0,-468.0,-742.0,110,37,105,63,46
2025-03-17 18:50:16.688,3183.0,2705.0,-3745.0,115.0,-1190.0,-910.0,108,24,110,65,50
2025-03-17 18:50:16.704,8108.0,-6097.0,3882.0,169.0,-765.0,-245.0,110,13,103,69,62
2025-03-17 18:50:16.740,1706.0,-1543.0,3428.0,393.0,82.0,-35.0,122,36,110,64,61
2025-03-17 18:50:16.764,707.0,-1261.0,3362.0,-84.0,133.0,2.0,117,26,107,55,69
2025-03-17 18:50:16.788,380.0,-2065.0,1077.0,43.0,197.0,82.0,123,38,110,66,73
2025-03-17 18:50:16.813,-210.0,-882.0,655.0,114.0,169.0,110.0,124,35,104,61,65
2025-03-17 18:50:16.833,-307.0,-728.0,553.0,149.0,89.0,125.0,129,34,89,69,67
2025-03-17 18:50:16.858,109.0,-766.0,649.0,221.0,77.0,151.0,134,40,100,73,68
2025-03-17 18:50:16.883,82.0,-522.0,601.0,191.0,81.0,187.0,136,32,101,70,71
2025-03-17 18:50:16.907,-215.0,-196.0,598.0,232.0,48.0,177.0,131,43,100,39,73
2025-03-17 18:50:16.930,-185.0,-80.0,504.0,196.0,15.0,183.0,142,41,110,34,66
2025-03-17 18:50:16.957,-120.0,-53.0,883.0,141.0,15.0,182.0,142,45,110,39,70
2025-03-17 18:50:16.977,-35.0,43.0,968.0,130.0,61.0,190.0,144,31,112,27,72
2025-03-17 18:50:17.002,-261.0,391.0,378.0,188.0,94.0,175.0,147,38,110,36,64
2025-03-17 18:50:17.027,-945.0,1563.0,-21.0,133.0,-12.0,78.0,139,35,106,50,57
2025-03-17 18:50:17.051,-1148.0,2211.0,-49.0,169.0,-94.0,-96.0,130,40,104,51,98
2025-03-17 18:50:17.075,-1599.0,3049.0,-977.0,224.0,-235.0,-272.0,139,42,104,31,106
2025-03-17 18:50:17.100,-955.0,2574.0,-526.0,255.0,-392.0,-351.0,120,42,107,46,113
2025-03-17 18:50:17.124,1060.0,1188.0,1284.0,194.0,-424.0,-301.0,145,45,109,45,120
2025-03-17 18:50:17.148,2255.0,179.0,2779.0,26.0,-278.0,-229.0,145,35,114,55,124
2025-03-17 18:50:17.174,2113.0,-1074.0,2436.0,-99.0,-91.0,-103.0,128,27,115,57,126
2025-03-17 18:50:17.195,1666.0,-1545.0,2103.0,-77.0,131.0,2.0,144,36,119,65,128
2025-03-17 18:50:17.220,1295.0,-860.0,907.0,112.0,321.0,32.0,137,36,117,79,126
2025-03-17 18:50:17.244,108.0,-69.0,1618.0,-61.0,175.0,139.0,137,32,113,76,126
2025-03-17 18:50:17.268,170.0,170.0,895.0,-110.0,140.0,204.0,138,36,118,86,126
2025-03-17 18:50:17.292,-33.0,262.0,638.0,-70.0,85.0,195.0,145,38,119,77,128
2025-03-17 18:50:17.304,-192.0,594.0,641.0,-26.0,200.0,185.0,147,43,121,88,128
2025-03-17 18:50:17.339,-487.0,1169.0,234.0,-44.0,170.0,168.0,147,41,89,86,128
2025-03-17 18:50:17.362,-508.0,1088.0,236.0,-37.0,103.0,112.0,147,36,103,85,127
2025-03-17 18:50:17.385,-426.0,931.0,407.0,-3.0,68.0,70.0,147,32,96,78,128
2025-03-17 18:50:17.409,-549.0,1125.0,249.0,35.0,87.0,35.0,148,29,112,84,128
2025-03-17 18:50:17.433,-875.0,1808.0,2.0,-49.0,32.0,-12.0,142,32,118,82,125
2025-03-17 18:50:17.460,-1137.0,2450.0,-591.0,-51.0,14.0,-175.0,141,30,119,70,124
2025-03-17 18:50:17.485,-1825.0,2528.0,-1801.0,1.0,-97.0,-304.0,138,27,102,52,128
2025-03-17 18:50:17.510,-1053.0,2377.0,-1738.0,55.0,-423.0,-392.0,138,29,109,70,127
2025-03-17 18:50:17.530,2057.0,855.0,527.0,80.0,-631.0,-369.0,132,32,118,75,128
2025-03-17 18:50:17.554,3947.0,-1758.0,3441.0,-99.0,-421.0,-144.0,141,38,113,60,130
2025-03-17 18:50:17.579,3101.0,-2567.0,3221.0,-91.0,58.0,-65.0,139,41,117,72,125
2025-03-17 18:50:17.604,1617.0,-2017.0,1777.0,-112.0,254.0,42.0,141,42,121,86,129
2025-03-17 18:50:17.628,531.0,-976.0,388.0,-83.0,214.0,96.0,135,38,119,82,127
2025-03-17 18:50:17.653,-331.0,-261.0,771.0,-79.0,112.0,131.0,124,35,121,70,129
2025-03-17 18:50:17.677,-437.0,314.0,1291.0,-107.0,133.0,133.0,133,42,121,87,129
2025-03-17 18:50:17.698,-210.0,263.0,1080.0,-123.0,164.0,152.0,135,40,93,90,130
2025-03-17 18:50:17.724,-42.0,340.0,1209.0,-198.0,247.0,177.0,138,41,119,86,126
2025-03-17 18:50:17.747,-157.0,214.0,844.0,-154.0,249.0,164.0,130,42,123,83,121
2025-03-17 18:50:17.759,-260.0,280.0,734.0,-109.0,236.0,156.0,122,35,118,75,127
2025-03-17 18:50:17.796,-128.0,555.0,729.0,-93.0,268.0,151.0,132,37,130,65,128
2025-03-17 18:50:17.821,-184.0,376.0,279.0,-107.0,212.0,157.0,133,32,133,64,128
2025-03-17 18:50:17.843,-588.0,287.0,243.0,-90.0,187.0,183.0,126,42,116,1,122
2025-03-17 18:50:17.865,-482.0,349.0,339.0,-87.0,191.0,180.0,124,50,137,1,122
2025-03-17 18:50:17.891,-617.0,573.0,37.0,-50.0,201.0,152.0,119,54,146,2,125
2025-03-17 18:50:17.916,-946.0,1474.0,-1126.0,-57.0,110.0,76.0,112,70,146,80,121
2025-03-17 18:50:17.940,-1942.0,2102.0,-2810.0,-78.0,-230.0,-227.0,96,73,147,100,130
2025-03-17 18:50:17.964,-952.0,2577.0,-1848.0,-130.0,-417.0,-643.0,109,82,148,103,135
2025-03-17 18:50:17.990,807.0,1044.0,-1341.0,-307.0,-659.0,-885.0,100,88,145,100,117
2025-03-17 18:50:18.013,4387.0,-613.0,761.0,-737.0,-844.0,-798.0,110,86,146,75,114
2025-03-17 18:50:18.038,4686.0,-4324.0,649.0,-598.0,-415.0,-360.0,112,76,147,57,109
2025-03-17 18:50:18.052,3077.0,-6139.0,1590.0,148.0,263.0,232.0,110,61,151,90,126
2025-03-17 18:50:18.084,698.0,-1683.0,391.0,462.0,347.0,387.0,102,88,151,101,131
2025-03-17 18:50:18.106,-339.0,-816.0,347.0,97.0,182.0,370.0,111,102,152,107,134
2025-03-17 18:50:18.133,-163.0,-540.0,749.0,-16.0,152.0,242.0,117,95,150,109,133
2025-03-17 18:50:18.157,-128.0,-527.0,853.0,65.0,201.0,241.0,120,106,150,110,133
2025-03-17 18:50:18.178,-221.0,-296.0,318.0,81.0,247.0,265.0,100,98,147,107,132
2025-03-17 18:50:18.205,-160.0,-77.0,-9.0,96.0,223.0,300.0,106,86,145,108,131
2025-03-17 18:50:18.227,-82.0,-10.0,1.0,167.0,146.0,313.0,116,86,148,109,131
2025-03-17 18:50:18.252,-337.0,186.0,-43.0,177.0,171.0,280.0,111,89,149,111,131
2025-03-17 18:50:18.276,-483.0,559.0,-368.0,175.0,117.0,266.0,100,95,149,109,129
2025-03-17 18:50:18.301,-477.0,945.0,-259.0,155.0,28.0,202.0,113,79,150,111,133
2025-03-17 18:50:18.325,-698.0,1962.0,-871.0,85.0,-8.0,-31.0,111,91,148,111,132
2025-03-17 18:50:18.350,-1333.0,2449.0,-2113.0,-37.0,-250.0,-409.0,114,97,150,111,140
2025-03-17 18:50:18.372,-770.0,2316.0,-2238.0,-160.0,-460.0,-795.0,115,91,151,109,134
2025-03-17 18:50:18.396,1507.0,857.0,-1406.0,-79.0,-667.0,-907.0,109,105,149,110,125
2025-03-17 18:50:18.422,5551.0,-3737.0,2376.0,-555.0,-679.0,-588.0,110,55,148,81,105
2025-03-17 18:50:18.444,3551.0,-6366.0,757.0,0.0,-168.0,90.0,110,46,150,73,120
2025-03-17 18:50:18.468,1782.0,-3039.0,2140.0,297.0,403.0,290.0,122,84,153,102,135
2025-03-17 18:50:18.493,-1177.0,240.0,383.0,248.0,242.0,191.0,124,80,153,108,136
2025-03-17 18:50:18.518,-608.0,-838.0,410.0,35.0,49.0,159.0,122,100,152,97,136
2025-03-17 18:50:18.542,-376.0,-961.0,820.0,198.0,113.0,162.0,116,97,149,102,132
2025-03-17 18:50:18.559,-31.0,-943.0,298.0,172.0,138.0,205.0,125,68,93,18,134
2025-03-17 18:50:18.588,-14.0,-645.0,459.0,161.0,75.0,219.0,108,40,75,1,128
2025-03-17 18:50:18.612,11.0,-300.0,834.0,157.0,157.0,233.0,120,9,116,0,130
2025-03-17 18:50:18.637,-184.0,-252.0,143.0,142.0,146.0,234.0,120,24,130,2,98
2025-03-17 18:50:18.661,-353.0,-269.0,261.0,118.0,77.0,279.0,123,14,129,31,114
2025-03-17 18:50:18.685,-358.0,266.0,175.0,140.0,-20.0,213.0,122,26,128,53,118
2025-03-17 18:50:18.710,-336.0,559.0,533.0,164.0,-9.0,143.0,121,30,115,33,121
2025-03-17 18:50:18.730,-583.0,958.0,185.0,211.0,9.0,85.0,117,36,127,53,124
2025-03-17 18:50:18.756,-1053.0,2180.0,-438.0,223.0,-54.0,-26.0,109,37,128,49,126
2025-03-17 18:50:18.780,-1630.0,2777.0,-1115.0,225.0,-194.0,-198.0,106,32,108,38,124
2025-03-17 18:50:18.805,-1227.0,2685.0,-625.0,240.0,-403.0,-309.0,108,36,112,56,127
2025-03-17 18:50:18.829,458.0,1425.0,1227.0,170.0,-472.0,-318.0,101,35,118,52,128
2025-03-17 18:50:18.854,1912.0,388.0,3329.0,8.0,-228.0,-251.0,111,40,122,38,127
2025-03-17 18:50:18.877,1681.0,-1633.0,2577.0,-26.0,-16.0,-155.0,114,40,117,65,133
2025-03-17 18:50:18.902,1036.0,-1263.0,1794.0,-47.0,60.0,-50.0,116,36,130,59,133
2025-03-17 18:50:18.924,524.0,-1417.0,1544.0,-50.0,75.0,41.0,110,46,131,68,134
2025-03-17 18:50:18.948,14.0,-629.0,949.0,-46.0,52.0,104.0,112,47,134,96,135
2025-03-17 18:50:18.972,-97.0,-125.0,1140.0,-44.0,45.0,130.0,115,46,135,96,133
2025-03-17 18:50:18.990,-118.0,197.0,1174.0,-65.0,105.0,152.0,111,42,126,91,128
2025-03-17 18:50:19.021,-247.0,361.0,883.0,-49.0,136.0,146.0,112,44,102,96,132
2025-03-17 18:50:19.045,-452.0,704.0,560.0,-1.0,113.0,127.0,112,44,123,92,127
2025-03-17 18:50:19.069,-458.0,821.0,490.0,-37.0,100.0,118.0,118,47,127,98,132
2025-03-17 18:50:19.092,-407.0,795.0,494.0,-33.0,124.0,115.0,115,47,132,96,134
2025-03-17 18:50:19.115,-805.0,1238.0,87.0,13.0,82.0,61.0,116,49,130,100,136
2025-03-17 18:50:19.140,-1007.0,1811.0,-4.0,-26.0,20.0,-1.0,118,47,136,100,136
2025-03-17 18:50:19.165,-1096.0,2126.0,-434.0,-40.0,1.0,-103.0,116,48,130,98,135
2025-03-17 18:50:19.189,-1523.0,2150.0,-1071.0,90.0,-66.0,-217.0,111,47,119,94,134
2025-03-17 18:50:19.214,-1140.0,2097.0,-750.0,113.0,-313.0,-341.0,103,47,127,94,132
2025-03-17 18:50:19.238,1411.0,254.0,2270.0,-9.0,-375.0,-302.0,109,45,113,97,132
2025-03-17 18:50:19.263,2588.0,-2792.0,3631.0,2.0,-86.0,-154.0,114,37,130,96,132
2025-03-17 18:50:19.282,1063.0,-1643.0,2074.0,-47.0,77.0,-2.0,120,43,134,105,135
2025-03-17 18:50:19.298,361.0,-1767.0,1631.0,-97.0,111.0,87.0,120,45,134,105,134
2025-03-17 18:50:19.329,-383.0,-378.0,983.0,-73.0,82.0,134.0,122,48,137,105,116
2025-03-17 18:50:19.358,-515.0,364.0,1490.0,-122.0,126.0,125.0,124,49,133,105,118
2025-03-17 18:50:19.378,-457.0,616.0,1559.0,-170.0,197.0,120.0,133,47,126,106,118
2025-03-17 18:50:19.403,-761.0,490.0,1111.0,-182.0,218.0,117.0,128,46,127,86,110
2025-03-17 18:50:19.428,-506.0,399.0,1054.0,-205.0,217.0,93.0,132,38,131,83,60
2025-03-17 18:50:19.452,-457.0,255.0,609.0,-203.0,244.0,67.0,135,48,137,71,66
2025-03-17 18:50:19.477,-556.0,-181.0,630.0,-163.0,250.0,101.0,131,34,133,60,65
2025-03-17 18:50:19.499,-663.0,4.0,161.0,-49.0,259.0,121.0,127,60,142,76,68
2025-03-17 18:50:19.526,-589.0,-42.0,-113.0,-29.0,214.0,126.0,143,69,144,53,65
2025-03-17 18:50:19.550,-915.0,483.0,-584.0,-50.0,108.0,53.0,142,78,147,45,56
2025-03-17 18:50:19.575,-765.0,643.0,-796.0,-47.0,26.0,-35.0,140,82,149,42,52
2025-03-17 18:50:19.598,-769.0,1127.0,-1430.0,-37.0,-117.0,-138.0,141,87,145,11,51
2025-03-17 18:50:19.620,-852.0,1437.0,-1981.0,-90.0,-320.0,-303.0,140,93,146,2,36
2025-03-17 18:50:19.644,-489.0,1528.0,-2475.0,-121.0,-641.0,-550.0,136,93,147,7,38
2025-03-17 18:50:19.669,1362.0,245.0,-1389.0,-205.0,-908.0,-577.0,117,90,147,3,44
2025-03-17 18:50:19.693,4247.0,-1834.0,343.0,-304.0,-976.0,-510.0,122,80,150,7,52
2025-03-17 18:50:19.718,5024.0,-4807.0,2818.0,-172.0,-276.0,2.0,117,58,151,5,59
2025-03-17 18:50:19.742,2217.0,-2760.0,2604.0,262.0,300.0,88.0,116,55,149,5,59
2025-03-17 18:50:19.766,369.0,-930.0,1574.0,42.0,182.0,106.0,117,70,141,71,61
2025-03-17 18:50:19.788,196.0,-1144.0,1292.0,-82.0,124.0,176.0,111,78,149,60,61
2025-03-17 18:50:19.812,142.0,-991.0,1040.0,43.0,212.0,166.0,108,99,149,74,57
2025-03-17 18:50:19.836,-171.0,-382.0,694.0,70.0,240.0,166.0,105,94,149,75,61
2025-03-17 18:50:19.861,-265.0,-117.0,383.0,15.0,202.0,157.0,113,108,149,74,60
2025-03-17 18:50:19.886,-60.0,-314.0,598.0,21.0,174.0,133.0,115,110,148,77,62
2025-03-17 18:50:19.910,-14.0,-489.0,368.0,81.0,183.0,137.0,117,112,151,69,63
2025-03-17 18:50:19.934,-169.0,-232.0,451.0,67.0,182.0,146.0,112,97,153,78,58
2025-03-17 18:50:19.955,-294.0,-138.0,500.0,35.0,190.0,135.0,123,100,152,76,62
2025-03-17 18:50:19.980,-493.0,134.0,318.0,38.0,153.0,135.0,117,110,152,86,58
2025-03-17 18:50:20.004,-922.0,848.0,-436.0,-7.0,128.0,73.0,116,114,152,89,59
2025-03-17 18:50:20.029,-1810.0,1769.0,-2147.0,96.0,-95.0,-133.0,118,108,149,87,55
2025-03-17 18:50:20.053,-1528.0,3326.0,-1908.0,24.0,-529.0,-471.0,110,108,149,88,50
2025-03-17 18:50:20.075,1658.0,1240.0,-1090.0,-307.0,-895.0,-652.0,112,115,151,82,61
2025-03-17 18:50:20.101,4835.0,-3682.0,2031.0,-170.0,-605.0,-396.0,119,68,152,96,64
2025-03-17 18:50:20.124,4523.0,-4459.0,2441.0,203.0,90.0,34.0,120,29,150,72,71
2025-03-17 18:50:20.148,1131.0,-1682.0,1634.0,190.0,246.0,42.0,121,100,147,77,66
2025-03-17 18:50:20.172,270.0,-1308.0,1231.0,6.0,152.0,127.0,120,90,139,77,66
2025-03-17 18:50:20.197,284.0,-1125.0,996.0,140.0,223.0,120.0,116,97,149,79,65
2025-03-17 18:50:20.220,99.0,-771.0,682.0,225.0,259.0,151.0,125,97,148,82,66
2025-03-17 18:50:20.245,-192.0,-384.0,716.0,220.0,237.0,173.0,132,68,147,45,71
2025-03-17 18:50:20.270,-69.0,-463.0,587.0,246.0,227.0,178.0,130,81,146,51,75
2025-03-17 18:50:20.292,-6.0,-224.0,524.0,229.0,226.0,184.0,134,58,137,47,71
2025-03-17 18:50:20.315,-266.0,-46.0,189.0,179.0,133.0,199.0,136,47,138,3,78
2025-03-17 18:50:20.340,-460.0,251.0,426.0,144.0,38.0,183.0,140,27,135,5,99
2025-03-17 18:50:20.365,-362.0,152.0,408.0,82.0,0.0,185.0,139,34,134,5,108
2025-03-17 18:50:20.389,-369.0,412.0,423.0,39.0,-21.0,168.0,142,17,127,42,83
2025-03-17 18:50:20.414,-214.0,518.0,543.0,96.0,2.0,123.0,132,27,120,52,111
2025-03-17 18:50:20.438,-626.0,1547.0,590.0,119.0,60.0,66.0,136,29,96,69,120
2025-03-17 18:50:20.460,-995.0,2571.0,-85.0,86.0,41.0,-115.0,125,34,90,65,124
2025-03-17 18:50:20.484,-1637.0,2633.0,-875.0,129.0,-84.0,-260.0,131,35,110,56,126
2025-03-17 18:50:20.505,-1245.0,2548.0,-980.0,208.0,-316.0,-360.0,134,33,119,59,130
2025-03-17 18:50:20.533,311.0,1680.0,-202.0,143.0,-503.0,-385.0,138,39,123,69,130
2025-03-17 18:50:20.557,2486.0,163.0,2831.0,-29.0,-407.0,-247.0,142,39,122,70,131
2025-03-17 18:50:20.582,2782.0,-1665.0,3418.0,-65.0,-81.0,-182.0,142,34,124,69,133
2025-03-17 18:50:20.606,1587.0,-2025.0,2643.0,-72.0,83.0,-27.0,140,42,126,70,133
2025-03-17 18:50:20.628,896.0,-1321.0,1411.0,-41.0,118.0,66.0,137,36,125,76,128
2025-03-17 18:50:20.652,0.0,-351.0,808.0,-5.0,127.0,110.0,136,38,126,84,131
2025-03-17 18:50:20.677,-271.0,215.0,961.0,-32.0,105.0,127.0,140,39,127,86,132
2025-03-17 18:50:20.701,-224.0,203.0,966.0,-29.0,94.0,138.0,141,39,128,77,132
2025-03-17 18:50:20.726,-146.0,458.0,1056.0,-41.0,116.0,149.0,138,44,128,81,133
2025-03-17 18:50:20.749,-159.0,439.0,892.0,-1.0,138.0,119.0,140,46,125,83,136
2025-03-17 18:50:20.773,-375.0,659.0,584.0,4.0,154.0,120.0,143,46,129,73,135
2025-03-17 18:50:20.795,-416.0,708.0,489.0,-27.0,128.0,120.0,144,46,129,80,138
2025-03-17 18:50:20.820,-393.0,657.0,407.0,-16.0,124.0,107.0,143,45,131,69,135
2025-03-17 18:50:20.844,-605.0,926.0,140.0,10.0,112.0,95.0,142,37,133,79,133
2025-03-17 18:50:20.869,-1019.0,1820.0,-426.0,-28.0,60.0,19.0,143,40,129,79,134
2025-03-17 18:50:20.894,-1389.0,2345.0,-1262.0,-28.0,-34.0,-93.0,142,39,118,67,113
2025-03-17 18:50:20.917,-1840.0,2972.0,-2206.0,26.0,-280.0,-255.0,143,43,119,67,115
2025-03-17 18:50:20.942,-99.0,1944.0,-879.0,78.0,-603.0,-383.0,140,41,128,54,135
2025-03-17 18:50:20.966,2952.0,27.0,2352.0,196.0,-601.0,-235.0,143,45,121,75,135
2025-03-17 18:50:20.988,3384.0,-781.0,4689.0,-182.0,-128.0,-120.0,147,42,135,81,137
2025-03-17 18:50:21.012,2201.0,-2770.0,2689.0,-89.0,195.0,-30.0,148,48,133,83,137
2025-03-17 18:50:21.037,567.0,-1203.0,835.0,-12.0,222.0,51.0,143,41,130,88,134
2025-03-17 18:50:21.061,-271.0,-305.0,292.0,-120.0,126.0,116.0,144,46,132,93,135
2025-03-17 18:50:21.085,-285.0,622.0,1311.0,-67.0,139.0,125.0,145,47,132,86,135
2025-03-17 18:50:21.109,-225.0,605.0,1503.0,-110.0,231.0,119.0,144,46,132,54,129
2025-03-17 18:50:21.134,-168.0,666.0,1379.0,-227.0,290.0,113.0,145,48,105,61,130
2025-03-17 18:50:21.155,-78.0,363.0,1026.0,-187.0,345.0,125.0,147,49,112,70,136
2025-03-17 18:50:21.180,-223.0,551.0,753.0,-136.0,344.0,116.0,148,46,116,68,115
2025-03-17 18:50:21.203,-284.0,741.0,524.0,-200.0,381.0,94.0,147,34,130,65,84
2025-03-17 18:50:21.229,-234.0,481.0,113.0,-248.0,361.0,88.0,148,43,128,48,66
2025-03-17 18:50:21.254,-579.0,356.0,265.0,-166.0,338.0,94.0,144,37,128,45,95
2025-03-17 18:50:21.275,-260.0,767.0,-641.0,-167.0,306.0,64.0,143,39,119,42,90
2025-03-17 18:50:21.303,-481.0,1201.0,-1241.0,-46.0,189.0,0.0,141,37,112,36,61
2025-03-17 18:50:21.324,-494.0,2053.0,-2415.0,-7.0,10.0,-166.0,130,38,118,63,58
2025-03-17 18:50:21.349,-531.0,2698.0,-3264.0,-18.0,-320.0,-449.0,134,46,112,30,46
2025-03-17 18:50:21.373,598.0,2345.0,-2633.0,1.0,-666.0,-733.0,129,40,111,44,44
2025-03-17 18:50:21.397,2540.0,977.0,-2461.0,-47.0,-1079.0,-775.0,123,35,89,19,45
2025-03-17 18:50:21.422,6686.0,-1753.0,3547.0,-153.0,-938.0,-369.0,129,35,110,35,40
2025-03-17 18:50:21.446,4745.0,-5828.0,4227.0,79.0,97.0,-89.0,104,36,106,33,46
2025-03-17 18:50:21.470,835.0,-1812.0,1929.0,294.0,217.0,220.0,117,38,108,61,50
2025-03-17 18:50:21.492,-105.0,-1348.0,2258.0,-107.0,114.0,113.0,117,33,110,52,52
2025-03-17 18:50:21.516,-226.0,-1633.0,1616.0,-77.0,163.0,175.0,118,43,107,69,54
2025-03-17 18:50:21.541,-514.0,-528.0,1078.0,-28.0,202.0,171.0,121,39,111,74,53
2025-03-17 18:50:21.565,-546.0,-133.0,676.0,-84.0,200.0,126.0,122,32,97,77,55
2025-03-17 18:50:21.590,-292.0,-395.0,606.0,-108.0,190.0,104.0,122,42,111,76,55
2025-03-17 18:50:21.614,-77.0,-541.0,488.0,-94.0,233.0,122.0,123,26,115,77,55
2025-03-17 18:50:21.638,-324.0,-602.0,231.0,-21.0,222.0,156.0,123,42,106,79,55
2025-03-17 18:50:21.659,-233.0,-250.0,70.0,-16.0,217.0,174.0,120,43,107,76,54
2025-03-17 18:50:21.681,-313.0,-208.0,107.0,-16.0,182.0,183.0,120,40,111,77,54
2025-03-17 18:50:21.706,-336.0,-206.0,263.0,22.0,183.0,198.0,123,42,111,72,55
2025-03-17 18:50:21.733,-396.0,-125.0,-67.0,58.0,164.0,237.0,126,47,116,79,58
2025-03-17 18:50:21.758,-306.0,434.0,-449.0,135.0,150.0,259.0,129,47,116,75,57
2025-03-17 18:50:21.782,-401.0,1770.0,-1546.0,170.0,82.0,165.0,129,46,111,69,57
2025-03-17 18:50:21.806,-1513.0,3569.0,-3468.0,148.0,-241.0,-311.0,118,49,112,70,52
2025-03-17 18:50:21.819,-238.0,2843.0,-4425.0,80.0,-858.0,-724.0,112,40,112,72,51
2025-03-17 18:50:21.852,4167.0,1454.0,-1768.0,-27.0,-1399.0,-708.0,113,32,98,55,54
2025-03-17 18:50:21.876,7258.0,-6110.0,5448.0,-61.0,-433.0,-71.0,119,39,111,66,58
2025-03-17 18:50:21.901,2047.0,-3821.0,1920.0,540.0,308.0,54.0,114,26,109,71,62
2025-03-17 18:50:21.926,-586.0,300.0,1030.0,30.0,94.0,48.0,112,38,109,73,56
2025-03-17 18:50:21.950,-437.0,-1271.0,1005.0,-69.0,34.0,25.0,112,41,113,74,59
2025-03-17 18:50:21.974,-886.0,144.0,722.0,-27.0,36.0,5.0,115,31,114,76,61
2025-03-17 18:50:21.995,-706.0,-202.0,607.0,-85.0,-7.0,-38.0,114,45,112,74,60
2025-03-17 18:50:22.020,53.0,-1005.0,1004.0,-1.0,-2.0,-23.0,115,33,102,76,60
2025-03-17 18:50:22.044,200.0,-632.0,976.0,38.0,57.0,19.0,116,46,111,77,59
2025-03-17 18:50:22.061,-181.0,-360.0,661.0,0.0,31.0,16.0,113,38,105,75,59
2025-03-17 18:50:22.093,-242.0,-210.0,744.0,-21.0,-9.0,3.0,114,41,110,77,59
2025-03-17 18:50:22.118,-115.0,-515.0,831.0,-20.0,-8.0,-1.0,113,45,113,76,57
2025-03-17 18:50:22.142,-197.0,-417.0,863.0,22.0,33.0,4.0,115,44,116,79,62
2025-03-17 18:50:22.159,-316.0,-354.0,739.0,2.0,5.0,-9.0,116,46,112,77,59
2025-03-17 18:50:22.188,-201.0,-496.0,843.0,-39.0,-21.0,-14.0,116,48,114,78,61
2025-03-17 18:50:22.212,-34.0,-768.0,999.0,23.0,20.0,7.0,118,48,113,79,61
2025-03-17 18:50:22.236,-241.0,-422.0,853.0,12.0,30.0,8.0,117,48,114,80,61
2025-03-17 18:50:22.261,-291.0,-414.0,798.0,-26.0,2.0,-8.0,113,45,108,75,58
2025-03-17 18:50:22.286,-186.0,-734.0,871.0,-22.0,-9.0,-2.0,114,47,113,76,58
2025-03-17 18:50:22.310,-206.0,-543.0,846.0,18.0,11.0,10.0,114,47,107,76,59
2025-03-17 18:50:22.332,-287.0,-426.0,762.0,-7.0,0.0,1.0,115,43,105,77,59
2025-03-17 18:50:22.355,-256.0,-469.0,834.0,-30.0,-19.0,-9.0,116,46,113,78,61
2025-03-17 18:50:22.379,-122.0,-712.0,946.0,7.0,5.0,2.0,117,50,117,78,62
2025-03-17 18:50:22.405,-205.0,-479.0,929.0,9.0,16.0,5.0,118,49,114,81,63
2025-03-17 18:50:22.426,-294.0,-466.0,793.0,-17.0,7.0,-1.0,117,47,110,79,62
2025-03-17 18:50:22.454,-203.0,-626.0,846.0,-4.0,6.0,1.0,117,47,115,80,62
2025-03-17 18:50:22.477,-230.0,-509.0,835.0,8.0,8.0,5.0,115,45,113,77,60
2025-03-17 18:50:22.499,-281.0,-424.0,784.0,-10.0,6.0,-4.0,114,47,111,74,59
2025-03-17 18:50:22.523,-207.0,-652.0,825.0,-7.0,0.0,-2.0,115,45,114,77,60
2025-03-17 18:50:22.548,-191.0,-585.0,839.0,15.0,5.0,7.0,116,49,117,80,62
2025-03-17 18:50:22.573,-282.0,-436.0,818.0,-2.0,2.0,2.0,116,49,116,80,62
2025-03-17 18:50:22.588,-284.0,-486.0,778.0,-17.0,-9.0,-6.0,117,49,116,80,63
2025-03-17 18:50:22.622,-204.0,-608.0,875.0,3.0,0.0,0.0,118,50,116,81,63
2025-03-17 18:50:22.645,-244.0,-511.0,847.0,-2.0,4.0,2.0,118,51,116,81,62
2025-03-17 18:50:22.668,-276.0,-463.0,788.0,-12.0,-3.0,-2.0,115,47,113,75,58
2025-03-17 18:50:22.692,-230.0,-582.0,840.0,-6.0,-6.0,-2.0,116,47,115,78,59
2025-03-17 18:50:22.716,-220.0,-550.0,847.0,3.0,0.0,1.0,115,46,114,77,61
2025-03-17 18:50:22.740,-262.0,-486.0,825.0,0.0,2.0,-1.0,116,48,115,77,60
2025-03-17 18:50:22.765,-224.0,-579.0,833.0,-5.0,-2.0,-2.0,117,49,116,79,61
2025-03-17 18:50:22.789,-238.0,-547.0,865.0,0.0,3.0,2.0,119,50,117,81,63
2025-03-17 18:50:22.814,-272.0,-508.0,836.0,1.0,1.0,0.0,118,50,117,81,63
2025-03-17 18:50:22.835,-244.0,-534.0,859.0,-10.0,-2.0,-3.0,118,50,117,79,63
2025-03-17 18:50:22.859,-223.0,-594.0,846.0,6.0,3.0,3.0,119,50,117,80,63
2025-03-17 18:50:22.884,-258.0,-504.0,829.0,-1.0,3.0,2.0,115,46,114,77,60
2025-03-17 18:50:22.909,-256.0,-519.0,814.0,-1.0,-5.0,0.0,113,47,114,78,59
2025-03-17 18:50:22.933,-263.0,-536.0,844.0,-7.0,-7.0,-2.0,117,47,114,78,60
2025-03-17 18:50:22.957,-237.0,-538.0,847.0,0.0,-1.0,1.0,118,50,117,80,63
2025-03-17 18:50:22.982,-231.0,-558.0,841.0,4.0,2.0,2.0,118,49,117,81,62
2025-03-17 18:50:23.002,-262.0,-506.0,825.0,-2.0,-1.0,1.0,118,50,118,81,64
2025-03-17 18:50:23.026,-257.0,-513.0,832.0,-3.0,0.0,-2.0,117,51,119,81,62
2025-03-17 18:50:23.052,-248.0,-521.0,831.0,-2.0,-1.0,-2.0,117,51,118,80,62
2025-03-17 18:50:23.076,-232.0,-551.0,833.0,-6.0,-6.0,0.0,115,47,114,77,59
2025-03-17 18:50:23.101,-255.0,-509.0,832.0,-16.0,-12.0,-1.0,116,47,115,79,61
2025-03-17 18:50:23.126,-216.0,-618.0,899.0,-12.0,-7.0,-1.0,116,48,114,78,61
2025-03-17 18:50:23.149,-208.0,-632.0,885.0,27.0,20.0,11.0,118,47,115,80,61
2025-03-17 18:50:23.171,-282.0,-479.0,823.0,23.0,18.0,9.0,116,48,116,77,62
2025-03-17 18:50:23.183,-320.0,-446.0,802.0,-4.0,-1.0,1.0,119,51,118,81,63
2025-03-17 18:50:23.220,-241.0,-604.0,866.0,3.0,0.0,2.0,119,50,117,83,64
2025-03-17 18:50:23.230,-252.0,-514.0,880.0,15.0,12.0,4.0,119,49,118,81,64
2025-03-17 18:50:23.268,-292.0,-470.0,808.0,-4.0,5.0,1.0,119,48,118,80,62
2025-03-17 18:50:23.293,-315.0,-455.0,801.0,-22.0,-12.0,-5.0,116,46,112,77,61
2025-03-17 18:50:23.317,-237.0,-591.0,865.0,-6.0,-6.0,-1.0,116,46,115,79,60
2025-03-17 18:50:23.339,-252.0,-486.0,833.0,5.0,2.0,-1.0,117,47,115,79,59
2025-03-17 18:50:23.364,-276.0,-480.0,792.0,-7.0,-6.0,-5.0,117,49,116,80,63
2025-03-17 18:50:23.388,-220.0,-576.0,831.0,-11.0,-11.0,-5.0,118,48,118,80,62
2025-03-17 18:50:23.413,-217.0,-562.0,873.0,12.0,2.0,2.0,119,46,116,81,64
2025-03-17 18:50:23.437,-255.0,-497.0,854.0,5.0,7.0,2.0,119,50,117,81,63
2025-03-17 18:50:23.462,-290.0,-465.0,835.0,-10.0,-1.0,-2.0,119,49,117,81,63
2025-03-17 18:50:23.486,-257.0,-599.0,834.0,-2.0,-1.0,-3.0,115,46,114,78,59
2025-03-17 18:50:23.511,-283.0,-487.0,837.0,-2.0,-1.0,-2.0,116,47,115,79,61
2025-03-17 18:50:23.530,-210.0,-616.0,873.0,0.0,1.0,0.0,116,47,114,79,61
2025-03-17 18:50:23.556,-266.0,-509.0,844.0,3.0,4.0,3.0,117,47,115,84,61
2025-03-17 18:50:23.578,-304.0,-482.0,811.0,-5.0,0.0,-2.0,118,50,116,80,63
2025-03-17 18:50:23.595,-257.0,-529.0,844.0,-8.0,-5.0,-4.0,120,49,117,82,63
2025-03-17 18:50:23.626,-221.0,-595.0,883.0,9.0,3.0,3.0,120,50,118,87,64
2025-03-17 18:50:23.643,-270.0,-511.0,847.0,3.0,6.0,4.0,119,50,117,84,63
2025-03-17 18:50:23.674,-328.0,-433.0,810.0,-11.0,-5.0,-2.0,120,49,117,81,64
2025-03-17 18:50:23.698,-238.0,-581.0,864.0,-9.0,-7.0,-5.0,115,47,114,78,61
2025-03-17 18:50:23.723,-228.0,-565.0,861.0,7.0,6.0,4.0,117,47,116,78,61
2025-03-17 18:50:23.740,-278.0,-490.0,813.0,-3.0,5.0,2.0,117,46,116,79,61
2025-03-17 18:50:23.771,-265.0,-557.0,808.0,-13.0,-4.0,-1.0,118,50,116,80,63
2025-03-17 18:50:23.795,-266.0,-561.0,834.0,4.0,3.0,3.0,119,49,117,81,63
2025-03-17 18:50:23.821,-292.0,-470.0,832.0,-7.0,3.0,-1.0,119,47,117,82,63
2025-03-17 18:50:23.846,-292.0,-488.0,817.0,-20.0,-4.0,-4.0,120,49,118,83,63
2025-03-17 18:50:23.868,-237.0,-648.0,823.0,2.0,5.0,1.0,120,49,119,81,64
2025-03-17 18:50:23.892,-278.0,-497.0,808.0,0.0,4.0,2.0,117,46,115,80,60
2025-03-17 18:50:23.903,-288.0,-522.0,792.0,-11.0,-5.0,-4.0,118,46,117,78,61
2025-03-17 18:50:23.941,-219.0,-647.0,863.0,1.0,-3.0,2.0,120,45,116,79,61
2025-03-17 18:50:23.965,-258.0,-562.0,871.0,11.0,4.0,5.0,118,47,116,80,62
2025-03-17 18:50:23.990,-293.0,-519.0,837.0,1.0,-3.0,4.0,119,48,117,81,63
2025-03-17 18:50:24.014,-288.0,-537.0,852.0,0.0,-6.0,3.0,121,50,118,82,64
2025-03-17 18:50:24.033,-280.0,-531.0,875.0,8.0,1.0,5.0,121,50,118,83,64
