timestamp,ax,ay,az,gx,gy,gz,flex1,flex2,flex3,flex4,flex5,emg1,emg2,emg3
2025-02-20 16:31:02.932,-172.0,-57.0,1008.0,-1.0,11.0,18.0,131,110,101,130,120,466,459,468
2025-02-20 16:31:02.943,-172.0,-57.0,1008.0,-1.0,11.0,18.0,131,110,101,130,120,466,459,468
2025-02-20 16:31:02.949,-256.0,-39.0,939.0,0.0,14.0,5.0,128,109,103,131,120,459,472,463
2025-02-20 16:31:02.951,-259.0,-50.0,935.0,0.0,13.0,4.0,128,109,100,130,120,462,469,463
2025-02-20 16:31:02.954,-264.0,-44.0,938.0,1.0,12.0,4.0,128,109,101,130,120,463,465,463
2025-02-20 16:31:02.956,-272.0,-38.0,935.0,2.0,11.0,3.0,129,110,100,131,120,466,459,464
2025-02-20 16:31:02.958,-277.0,-23.0,937.0,2.0,11.0,1.0,128,109,100,130,120,467,457,464
2025-02-20 16:31:02.961,-286.0,-33.0,938.0,2.0,10.0,1.0,128,110,101,130,122,463,457,464
2025-02-20 16:31:02.964,-293.0,-34.0,928.0,0.0,9.0,2.0,128,105,100,130,119,462,457,464
2025-02-20 16:31:02.966,-293.0,-24.0,929.0,-3.0,6.0,1.0,128,109,101,131,120,464,457,463
2025-02-20 16:31:02.969,-297.0,-39.0,954.0,-6.0,5.0,1.0,128,109,100,130,119,467,457,463
2025-02-20 16:31:02.975,-295.0,-35.0,957.0,-7.0,5.0,1.0,128,110,100,131,120,469,455,464
2025-02-20 16:31:02.997,-293.0,-38.0,952.0,-7.0,6.0,1.0,129,109,101,131,120,470,457,463
2025-02-20 16:31:03.017,-307.0,-46.0,951.0,-6.0,6.0,1.0,128,109,100,131,120,469,459,463
2025-02-20 16:31:03.034,-308.0,-42.0,949.0,-3.0,5.0,1.0,128,113,101,131,120,470,460,463
2025-02-20 16:31:03.054,-311.0,-46.0,961.0,-3.0,4.0,1.0,128,109,100,131,120,469,461,463
2025-02-20 16:31:03.075,-323.0,-45.0,958.0,-3.0,4.0,2.0,128,109,101,130,120,470,463,463
2025-02-20 16:31:03.092,-320.0,-42.0,958.0,-2.0,2.0,1.0,128,109,100,130,120,470,463,463
2025-02-20 16:31:03.112,-317.0,-53.0,952.0,-2.0,1.0,1.0,128,110,102,130,120,471,465,463
2025-02-20 16:31:03.132,-320.0,-45.0,963.0,-2.0,1.0,1.0,128,110,100,131,120,470,466,463
2025-02-20 16:31:03.148,-320.0,-54.0,951.0,-1.0,1.0,1.0,128,109,99,131,120,469,466,463
2025-02-20 16:31:03.169,-321.0,-47.0,944.0,1.0,1.0,0.0,128,109,98,131,120,468,466,463
2025-02-20 16:31:03.182,-324.0,-46.0,943.0,1.0,0.0,0.0,128,110,101,130,120,469,465,463
2025-02-20 16:31:03.206,-324.0,-50.0,951.0,1.0,-2.0,-1.0,129,110,101,130,120,467,465,464
2025-02-20 16:31:03.226,-318.0,-46.0,957.0,-1.0,-3.0,-1.0,128,109,100,130,120,466,463,464
2025-02-20 16:31:03.240,-314.0,-61.0,968.0,1.0,-3.0,-2.0,128,109,101,131,120,466,462,465
2025-02-20 16:31:03.263,-314.0,-55.0,979.0,2.0,-4.0,-2.0,129,110,99,130,120,466,462,465
2025-02-20 16:31:03.284,-301.0,-55.0,984.0,0.0,-3.0,-1.0,129,109,100,131,120,466,460,466
2025-02-20 16:31:03.285,-305.0,-51.0,980.0,0.0,-3.0,-1.0,128,110,101,131,120,465,460,465
2025-02-20 16:31:03.320,-303.0,-56.0,988.0,0.0,-2.0,-1.0,129,109,101,130,120,464,459,466
2025-02-20 16:31:03.338,-299.0,-52.0,994.0,0.0,-1.0,0.0,129,109,101,131,120,465,460,466
2025-02-20 16:31:03.355,-308.0,-50.0,987.0,-1.0,0.0,-1.0,128,109,101,130,120,465,461,466
2025-02-20 16:31:03.378,-308.0,-49.0,987.0,-1.0,1.0,0.0,129,109,101,131,119,466,462,465
2025-02-20 16:31:03.395,-312.0,-45.0,980.0,0.0,1.0,0.0,129,109,100,131,120,466,464,466
2025-02-20 16:31:03.415,-317.0,-34.0,978.0,0.0,1.0,0.0,129,109,100,130,120,466,465,465
2025-02-20 16:31:03.434,-319.0,-34.0,976.0,-1.0,0.0,-1.0,128,110,101,130,120,467,467,465
2025-02-20 16:31:03.452,-314.0,-37.0,979.0,-1.0,-1.0,-1.0,128,109,101,130,120,467,466,464
2025-02-20 16:31:03.472,-323.0,-35.0,985.0,-1.0,0.0,-1.0,129,109,100,131,120,465,469,464
2025-02-20 16:31:03.492,-316.0,-44.0,990.0,0.0,0.0,-1.0,128,109,100,130,121,466,470,464
2025-02-20 16:31:03.509,-319.0,-33.0,989.0,0.0,-1.0,-1.0,129,109,100,130,120,467,470,464
2025-02-20 16:31:03.529,-313.0,-25.0,990.0,-1.0,-1.0,-1.0,129,109,100,131,120,467,471,464
2025-02-20 16:31:03.550,-310.0,-20.0,998.0,0.0,0.0,-2.0,128,109,100,131,120,466,469,464
2025-02-20 16:31:03.567,-309.0,-18.0,995.0,1.0,1.0,-3.0,129,109,100,131,121,466,469,464
2025-02-20 16:31:03.587,-307.0,-22.0,993.0,0.0,1.0,-3.0,130,109,101,130,120,466,468,464
2025-02-20 16:31:03.604,-308.0,-30.0,989.0,1.0,2.0,-3.0,128,109,102,130,120,466,466,464
2025-02-20 16:31:03.624,-318.0,-39.0,975.0,1.0,3.0,-3.0,129,110,101,131,120,466,464,466
2025-02-20 16:31:03.644,-313.0,-42.0,943.0,2.0,3.0,-2.0,128,109,100,131,120,465,462,466
2025-02-20 16:31:03.661,-332.0,-43.0,917.0,2.0,1.0,-2.0,129,109,100,131,120,465,461,466
2025-02-20 16:31:03.681,-325.0,-44.0,915.0,2.0,0.0,-2.0,128,109,101,130,120,465,459,466
2025-02-20 16:31:03.701,-327.0,-52.0,926.0,5.0,-3.0,-2.0,129,109,100,131,120,465,459,466
2025-02-20 16:31:03.718,-317.0,-48.0,943.0,7.0,-4.0,-2.0,129,109,100,130,119,466,459,467
2025-02-20 16:31:03.739,-313.0,-34.0,956.0,7.0,-4.0,-2.0,129,110,101,130,120,465,460,466
2025-02-20 16:31:03.759,-312.0,-32.0,959.0,5.0,-4.0,-3.0,128,109,101,130,120,465,461,466
2025-02-20 16:31:03.775,-311.0,-41.0,967.0,4.0,-6.0,-2.0,129,108,100,130,121,465,462,466
2025-02-20 16:31:03.796,-300.0,-47.0,975.0,5.0,-6.0,-2.0,129,109,101,132,120,465,465,465
2025-02-20 16:31:03.816,-299.0,-43.0,988.0,5.0,-5.0,-2.0,129,108,100,130,120,465,466,465
2025-02-20 16:31:03.833,-303.0,-38.0,998.0,4.0,-5.0,-2.0,129,110,101,133,120,465,468,465
2025-02-20 16:31:03.853,-300.0,-45.0,998.0,3.0,-5.0,-2.0,129,109,101,130,120,465,469,463
2025-02-20 16:31:03.870,-296.0,-36.0,1017.0,2.0,-4.0,-1.0,129,110,101,131,119,464,470,464
2025-02-20 16:31:03.890,-292.0,-35.0,1009.0,0.0,-3.0,0.0,129,109,101,131,120,464,470,464
2025-02-20 16:31:03.910,-300.0,-29.0,1002.0,-1.0,-2.0,0.0,129,109,101,130,120,463,470,464
2025-02-20 16:31:03.925,-297.0,-35.0,995.0,-2.0,-2.0,0.0,129,110,101,131,120,465,469,464
2025-02-20 16:31:03.947,-303.0,-31.0,985.0,-2.0,-1.0,1.0,128,109,100,130,120,465,467,465
2025-02-20 16:31:03.967,-302.0,-29.0,967.0,-2.0,0.0,1.0,129,110,101,128,120,465,467,465
2025-02-20 16:31:03.985,-305.0,-26.0,958.0,-1.0,-1.0,1.0,129,108,100,130,120,464,465,465
2025-02-20 16:31:04.005,-308.0,-22.0,962.0,0.0,-2.0,0.0,129,109,100,130,121,465,464,465
2025-02-20 16:31:04.021,-304.0,-21.0,967.0,-1.0,-2.0,0.0,129,109,101,130,120,465,463,466
2025-02-20 16:31:04.039,-305.0,-21.0,974.0,0.0,-3.0,1.0,129,109,100,131,120,466,463,466
2025-02-20 16:31:04.062,-310.0,-13.0,972.0,-1.0,-3.0,0.0,129,109,101,131,119,464,460,466
2025-02-20 16:31:04.078,-301.0,-14.0,987.0,-2.0,-3.0,-1.0,129,109,100,130,120,465,457,466
2025-02-20 16:31:04.099,-296.0,-15.0,988.0,-2.0,-2.0,-1.0,129,107,100,131,120,466,458,467
2025-02-20 16:31:04.119,-306.0,-27.0,994.0,-1.0,-1.0,-1.0,129,109,100,130,120,464,458,466
2025-02-20 16:31:04.136,-309.0,-19.0,986.0,0.0,0.0,0.0,129,110,101,130,120,464,459,466
2025-02-20 16:31:04.156,-310.0,-17.0,988.0,0.0,-1.0,0.0,129,109,101,131,120,465,460,466
2025-02-20 16:31:04.176,-310.0,-17.0,980.0,-1.0,-1.0,0.0,129,109,99,130,121,465,461,465
2025-02-20 16:31:04.193,-315.0,-24.0,979.0,-1.0,-1.0,1.0,129,110,101,130,120,465,463,465
2025-02-20 16:31:04.214,-325.0,-16.0,979.0,0.0,-2.0,0.0,129,109,100,130,120,464,464,465
2025-02-20 16:31:04.233,-313.0,-20.0,980.0,0.0,-1.0,-1.0,129,109,101,131,120,465,465,465
2025-02-20 16:31:04.251,-311.0,-18.0,986.0,0.0,-1.0,-1.0,129,110,100,130,120,465,467,463
2025-02-20 16:31:04.271,-303.0,-20.0,991.0,0.0,-2.0,-1.0,129,110,101,130,120,467,468,464
2025-02-20 16:31:04.288,-303.0,-30.0,989.0,-1.0,0.0,-1.0,129,110,100,131,120,465,468,463
2025-02-20 16:31:04.308,-302.0,-30.0,985.0,-1.0,0.0,0.0,129,109,101,135,120,465,468,463
2025-02-20 16:31:04.326,-301.0,-37.0,980.0,-2.0,-1.0,-1.0,128,110,101,129,120,465,468,463
2025-02-20 16:31:04.344,-303.0,-38.0,983.0,-1.0,0.0,0.0,129,109,99,130,120,466,466,464
2025-02-20 16:31:04.365,-299.0,-38.0,990.0,1.0,0.0,1.0,129,109,102,130,120,465,466,464
2025-02-20 16:31:04.385,-303.0,-21.0,990.0,0.0,0.0,1.0,129,109,100,130,120,464,465,465
2025-02-20 16:31:04.402,-307.0,-19.0,988.0,-3.0,0.0,1.0,129,110,101,130,120,465,464,465
2025-02-20 16:31:04.422,-304.0,-32.0,982.0,-2.0,-1.0,1.0,129,109,100,131,120,463,463,465
2025-02-20 16:31:04.440,-295.0,-36.0,982.0,-1.0,-1.0,1.0,129,109,101,130,119,463,462,466
2025-02-20 16:31:04.459,-303.0,-23.0,980.0,0.0,0.0,1.0,129,109,100,131,120,464,462,466
2025-02-20 16:31:04.480,-296.0,-24.0,977.0,-1.0,0.0,1.0,129,110,101,130,119,464,459,467
2025-02-20 16:31:04.493,-304.0,-20.0,980.0,-1.0,-1.0,1.0,129,109,101,130,120,464,461,467
2025-02-20 16:31:04.515,-303.0,-20.0,985.0,-1.0,-1.0,1.0,130,109,101,131,120,463,462,467
2025-02-20 16:31:04.537,-302.0,-15.0,982.0,-1.0,0.0,1.0,129,110,101,130,120,464,462,466
2025-02-20 16:31:04.554,-307.0,-16.0,984.0,-1.0,0.0,1.0,129,109,101,131,120,463,463,467
2025-02-20 16:31:04.574,-305.0,-12.0,982.0,-1.0,0.0,1.0,129,109,101,130,120,463,464,466
2025-02-20 16:31:04.594,-304.0,-11.0,976.0,-1.0,0.0,1.0,129,109,101,130,120,464,466,466
2025-02-20 16:31:04.610,-302.0,-9.0,977.0,0.0,0.0,1.0,127,109,100,131,119,465,466,466
2025-02-20 16:31:04.631,-305.0,-9.0,976.0,0.0,-1.0,1.0,129,110,101,131,120,465,466,465
2025-02-20 16:31:04.651,-310.0,-7.0,982.0,-1.0,-2.0,1.0,130,110,101,131,120,465,469,464
2025-02-20 16:31:04.668,-310.0,-4.0,981.0,-1.0,-2.0,1.0,129,109,100,131,119,465,469,464
2025-02-20 16:31:04.689,-310.0,-4.0,993.0,0.0,-1.0,0.0,129,110,100,130,120,465,469,464
2025-02-20 16:31:04.705,-320.0,-1.0,1010.0,0.0,-1.0,0.0,129,109,99,130,120,465,469,464
2025-02-20 16:31:04.726,-316.0,5.0,1009.0,-2.0,0.0,0.0,129,109,101,130,120,465,468,464
2025-02-20 16:31:04.746,-310.0,3.0,1005.0,-2.0,0.0,-1.0,128,109,101,129,119,464,468,463
2025-02-20 16:31:04.763,-309.0,2.0,1007.0,-5.0,2.0,-1.0,129,109,102,131,120,465,466,464
2025-02-20 16:31:04.782,-300.0,-11.0,997.0,-1.0,2.0,-2.0,129,110,100,130,120,465,464,466
2025-02-20 16:31:04.803,-310.0,-16.0,994.0,0.0,3.0,-1.0,129,110,100,130,120,466,463,466
2025-02-20 16:31:04.820,-310.0,0.0,969.0,-3.0,2.0,-1.0,129,110,101,129,120,466,461,467
2025-02-20 16:31:04.840,-303.0,-13.0,977.0,-4.0,1.0,-2.0,129,109,100,130,120,465,460,467
2025-02-20 16:31:04.859,-308.0,-17.0,974.0,-2.0,0.0,-1.0,129,110,101,130,120,465,460,467
2025-02-20 16:31:04.875,-305.0,-13.0,967.0,-1.0,1.0,-1.0,129,109,100,130,119,463,459,467
2025-02-20 16:31:04.898,-308.0,-12.0,965.0,-1.0,0.0,-1.0,129,109,100,130,120,464,459,467
2025-02-20 16:31:04.918,-306.0,-16.0,954.0,1.0,1.0,-1.0,129,110,101,131,120,464,461,467
2025-02-20 16:31:04.935,-306.0,-22.0,948.0,2.0,0.0,-1.0,129,109,101,131,120,463,462,466
2025-02-20 16:31:04.954,-304.0,-21.0,945.0,3.0,-2.0,-1.0,129,109,101,131,120,464,463,466
2025-02-20 16:31:04.972,-296.0,-31.0,945.0,4.0,-2.0,-1.0,129,110,101,130,120,464,464,465
2025-02-20 16:31:04.991,-294.0,-33.0,950.0,3.0,-4.0,1.0,129,108,101,131,120,462,466,464
2025-02-20 16:31:05.012,-284.0,-26.0,963.0,2.0,-5.0,1.0,129,110,100,130,120,463,468,464
2025-02-20 16:31:05.029,-287.0,-27.0,973.0,4.0,-5.0,1.0,129,109,101,131,120,465,469,464
2025-02-20 16:31:05.049,-292.0,-12.0,976.0,5.0,-3.0,2.0,129,109,101,131,120,464,471,463
2025-02-20 16:31:05.069,-317.0,-7.0,993.0,3.0,-1.0,1.0,129,109,101,130,120,464,472,463
2025-02-20 16:31:05.086,-318.0,-1.0,988.0,2.0,-2.0,0.0,129,110,101,131,120,464,472,463
2025-02-20 16:31:05.106,-327.0,0.0,982.0,1.0,-2.0,0.0,129,109,101,130,120,464,470,464
2025-02-20 16:31:05.127,-327.0,-16.0,991.0,1.0,-2.0,-1.0,129,109,101,130,120,463,468,464
2025-02-20 16:31:05.143,-331.0,-26.0,986.0,2.0,-2.0,0.0,129,109,100,131,121,463,466,464
2025-02-20 16:31:05.163,-331.0,-18.0,991.0,2.0,-2.0,1.0,129,109,100,130,120,464,465,465
2025-02-20 16:31:05.181,-333.0,-6.0,993.0,1.0,-2.0,0.0,129,109,101,131,120,464,465,466
2025-02-20 16:31:05.200,-331.0,-12.0,992.0,1.0,-3.0,1.0,129,109,100,130,119,464,463,466
2025-02-20 16:31:05.221,-325.0,-8.0,998.0,1.0,-2.0,1.0,129,109,100,131,119,464,461,467
2025-02-20 16:31:05.238,-327.0,-12.0,1004.0,3.0,0.0,0.0,129,109,101,130,120,465,461,465
2025-02-20 16:31:05.258,-332.0,-9.0,985.0,2.0,0.0,0.0,129,109,99,130,123,464,458,466
2025-02-20 16:31:05.278,-323.0,-2.0,977.0,0.0,0.0,-1.0,129,109,100,131,118,465,459,467
2025-02-20 16:31:05.295,-327.0,-10.0,967.0,-1.0,-1.0,-1.0,129,109,100,129,120,465,459,467
2025-02-20 16:31:05.315,-313.0,-5.0,973.0,3.0,-2.0,-2.0,129,109,101,131,120,465,459,466
2025-02-20 16:31:05.335,-302.0,5.0,995.0,3.0,-3.0,-2.0,129,110,100,131,120,465,460,466
2025-02-20 16:31:05.349,-307.0,2.0,995.0,1.0,-1.0,-1.0,129,109,101,131,121,465,463,467
2025-02-20 16:31:05.372,-306.0,7.0,988.0,-2.0,-2.0,-1.0,129,109,101,129,120,465,464,465
2025-02-20 16:31:05.390,-309.0,4.0,990.0,-3.0,-2.0,-2.0,129,110,98,131,119,464,467,464
2025-02-20 16:31:05.410,-306.0,-13.0,962.0,0.0,-1.0,-1.0,129,109,100,131,120,461,475,464
2025-02-20 16:31:05.428,-301.0,-2.0,986.0,4.0,0.0,0.0,129,109,101,131,120,462,477,463
2025-02-20 16:31:05.447,-304.0,25.0,991.0,3.0,1.0,0.0,129,109,100,131,120,463,477,463
2025-02-20 16:31:05.467,-297.0,27.0,984.0,0.0,0.0,1.0,129,109,100,131,120,464,471,463
2025-02-20 16:31:05.487,-293.0,25.0,988.0,-3.0,0.0,-1.0,129,109,100,129,120,464,467,464
2025-02-20 16:31:05.504,-282.0,30.0,994.0,-1.0,-1.0,-2.0,129,109,100,130,120,464,464,463
2025-02-20 16:31:05.524,-275.0,27.0,982.0,0.0,0.0,-1.0,129,109,101,130,120,465,463,463
2025-02-20 16:31:05.545,-279.0,31.0,985.0,1.0,1.0,-1.0,129,109,100,130,120,465,463,464
2025-02-20 16:31:05.562,-288.0,30.0,976.0,-1.0,1.0,-2.0,129,109,100,130,120,467,465,464
2025-02-20 16:31:05.582,-290.0,24.0,969.0,0.0,0.0,-1.0,129,109,100,130,120,467,465,465
2025-02-20 16:31:05.601,-292.0,13.0,968.0,1.0,0.0,-1.0,129,109,101,130,120,466,464,465
2025-02-20 16:31:05.619,-293.0,20.0,962.0,1.0,1.0,-1.0,130,111,101,131,120,466,461,466
2025-02-20 16:31:05.639,-298.0,23.0,963.0,2.0,0.0,-1.0,128,108,101,130,120,465,458,466
2025-02-20 16:31:05.656,-308.0,26.0,962.0,1.0,-1.0,-1.0,129,109,100,131,120,464,456,466
2025-02-20 16:31:05.676,-308.0,26.0,974.0,1.0,-1.0,-1.0,130,109,100,130,120,465,457,467
2025-02-20 16:31:05.696,-316.0,23.0,964.0,1.0,0.0,-2.0,129,109,100,130,120,464,457,466
2025-02-20 16:31:05.713,-311.0,20.0,973.0,0.0,-2.0,-2.0,129,109,100,131,120,465,459,466
2025-02-20 16:31:05.734,-309.0,11.0,986.0,0.0,-1.0,-3.0,129,109,101,130,119,465,460,465
2025-02-20 16:31:05.753,-311.0,9.0,983.0,1.0,0.0,-2.0,129,109,101,130,120,465,460,464
2025-02-20 16:31:05.770,-315.0,14.0,973.0,0.0,0.0,-2.0,129,109,100,130,119,464,462,465
2025-02-20 16:31:05.791,-311.0,18.0,980.0,-2.0,-1.0,-2.0,129,109,100,130,120,465,464,465
2025-02-20 16:31:05.810,-308.0,7.0,983.0,-2.0,-2.0,-3.0,129,109,100,131,120,465,468,464
2025-02-20 16:31:05.828,-301.0,0.0,989.0,-1.0,-1.0,-1.0,129,109,101,130,120,464,467,464
2025-02-20 16:31:05.848,-306.0,1.0,987.0,0.0,0.0,-1.0,129,109,101,130,120,464,469,465
2025-02-20 16:31:05.865,-314.0,6.0,986.0,-1.0,0.0,0.0,129,109,101,130,120,465,468,464
2025-02-20 16:31:05.884,-313.0,15.0,979.0,0.0,-1.0,0.0,127,109,101,130,120,466,468,465
2025-02-20 16:31:05.905,-312.0,17.0,982.0,0.0,0.0,0.0,129,109,101,130,120,466,467,464
2025-02-20 16:31:05.922,-317.0,16.0,986.0,1.0,0.0,0.0,129,109,101,130,120,465,466,464
2025-02-20 16:31:05.942,-314.0,22.0,986.0,1.0,0.0,0.0,129,109,101,131,120,463,464,465
2025-02-20 16:31:05.961,-316.0,20.0,975.0,-1.0,-1.0,0.0,129,109,100,130,119,463,463,464
2025-02-20 16:31:05.979,-310.0,13.0,972.0,1.0,-1.0,-1.0,129,109,100,130,120,463,463,466
2025-02-20 16:31:05.999,-311.0,17.0,979.0,2.0,0.0,0.0,129,109,101,129,120,464,462,465
2025-02-20 16:31:06.017,-312.0,27.0,977.0,1.0,0.0,-1.0,129,108,101,131,120,462,462,466
2025-02-20 16:31:06.036,-306.0,16.0,973.0,-1.0,0.0,-2.0,129,109,101,130,119,462,461,465
2025-02-20 16:31:06.057,-305.0,13.0,963.0,0.0,0.0,-1.0,129,108,100,130,120,463,461,467
2025-02-20 16:31:06.077,-295.0,12.0,970.0,-1.0,-1.0,-1.0,129,109,101,130,120,465,459,467
2025-02-20 16:31:06.094,-303.0,10.0,964.0,-1.0,-1.0,-1.0,129,109,100,130,120,465,462,467
2025-02-20 16:31:06.114,-305.0,12.0,971.0,0.0,0.0,-1.0,129,109,100,131,120,465,463,466
2025-02-20 16:31:06.130,-305.0,16.0,969.0,1.0,0.0,0.0,128,109,100,130,120,466,463,465
2025-02-20 16:31:06.150,-313.0,19.0,970.0,0.0,-1.0,0.0,129,109,100,130,120,466,464,465
2025-02-20 16:31:06.171,-309.0,20.0,974.0,0.0,-1.0,0.0,129,109,100,130,120,465,464,464
2025-02-20 16:31:06.188,-314.0,20.0,980.0,0.0,-2.0,0.0,129,109,100,130,120,464,465,464
2025-02-20 16:31:06.209,-304.0,24.0,983.0,1.0,-2.0,0.0,129,109,101,131,120,465,467,463
2025-02-20 16:31:06.228,-309.0,24.0,984.0,1.0,-1.0,0.0,129,109,100,130,120,464,467,463
2025-02-20 16:31:06.245,-314.0,30.0,979.0,-1.0,-2.0,0.0,129,109,101,131,120,465,468,463
2025-02-20 16:31:06.266,-315.0,18.0,990.0,0.0,-2.0,-1.0,129,109,101,130,119,465,468,462
2025-02-20 16:31:06.286,-309.0,25.0,997.0,1.0,-2.0,-1.0,129,109,100,130,120,466,467,463
2025-02-20 16:31:06.303,-308.0,29.0,1000.0,1.0,-1.0,-1.0,129,108,101,130,122,467,466,464
2025-02-20 16:31:06.323,-312.0,23.0,1001.0,0.0,-1.0,0.0,129,109,100,130,120,466,465,464
2025-02-20 16:31:06.339,-314.0,24.0,997.0,-1.0,0.0,0.0,129,109,101,131,120,465,464,464
2025-02-20 16:31:06.360,-317.0,23.0,984.0,-1.0,1.0,0.0,129,109,100,130,120,464,464,465
2025-02-20 16:31:06.380,-320.0,28.0,968.0,0.0,2.0,1.0,129,109,101,130,120,465,462,465
2025-02-20 16:31:06.397,-325.0,23.0,945.0,0.0,2.0,2.0,129,109,100,130,120,465,461,465
2025-02-20 16:31:06.417,-324.0,30.0,948.0,-1.0,0.0,2.0,129,109,101,130,120,463,458,466
2025-02-20 16:31:06.437,-322.0,20.0,931.0,0.0,0.0,1.0,129,109,100,130,120,463,457,466
2025-02-20 16:31:06.454,-332.0,32.0,935.0,1.0,-2.0,1.0,129,109,101,131,120,463,458,466
2025-02-20 16:31:06.475,-327.0,48.0,936.0,1.0,-4.0,0.0,129,109,101,131,120,464,459,466
2025-02-20 16:31:06.495,-319.0,39.0,942.0,2.0,-5.0,-1.0,129,109,100,130,121,464,461,466
2025-02-20 16:31:06.512,-317.0,37.0,957.0,2.0,-6.0,-2.0,130,109,100,130,120,465,462,466
2025-02-20 16:31:06.532,-302.0,38.0,973.0,2.0,-6.0,-2.0,129,109,99,130,119,464,463,465
2025-02-20 16:31:06.549,-295.0,28.0,996.0,0.0,-6.0,-3.0,129,109,100,131,120,465,465,464
2025-02-20 16:31:06.569,-289.0,18.0,1010.0,0.0,-4.0,-3.0,129,109,105,130,119,465,467,464
2025-02-20 16:31:06.590,-286.0,20.0,1016.0,-1.0,-3.0,-2.0,129,108,100,131,120,465,468,464
2025-02-20 16:31:06.604,-285.0,19.0,1013.0,-2.0,-2.0,-2.0,129,109,100,131,120,465,470,464
2025-02-20 16:31:06.627,-285.0,16.0,1012.0,-2.0,-2.0,-1.0,129,108,100,130,120,465,469,464
2025-02-20 16:31:06.639,-288.0,14.0,1008.0,-3.0,-1.0,0.0,129,109,101,130,119,464,469,463
2025-02-20 16:31:06.663,-287.0,19.0,1005.0,-4.0,-1.0,1.0,129,108,100,130,120,465,469,463
2025-02-20 16:31:06.683,-294.0,22.0,996.0,-2.0,0.0,1.0,129,108,100,133,120,464,468,465
2025-02-20 16:31:06.701,-308.0,38.0,977.0,-1.0,0.0,2.0,129,109,100,130,120,465,467,464
2025-02-20 16:31:06.720,-312.0,51.0,974.0,-2.0,0.0,2.0,129,109,100,130,120,465,467,465
2025-02-20 16:31:06.740,-323.0,40.0,963.0,-2.0,-1.0,1.0,129,109,100,131,119,464,465,465
2025-02-20 16:31:06.756,-317.0,41.0,967.0,2.0,-1.0,2.0,129,109,100,130,120,464,462,465
2025-02-20 16:31:06.778,-320.0,56.0,976.0,2.0,-1.0,2.0,129,109,100,131,120,463,460,467
2025-02-20 16:31:06.798,-321.0,68.0,971.0,-1.0,-2.0,1.0,129,109,101,130,120,464,459,467
2025-02-20 16:31:06.814,-312.0,59.0,973.0,-3.0,-3.0,-1.0,129,109,99,131,120,463,459,466
2025-02-20 16:31:06.836,-305.0,42.0,974.0,2.0,-2.0,-2.0,129,109,100,130,120,463,459,467
2025-02-20 16:31:06.855,-304.0,41.0,980.0,4.0,-2.0,-2.0,129,109,101,130,119,464,459,467
2025-02-20 16:31:06.873,-306.0,58.0,995.0,2.0,-4.0,-2.0,129,109,101,130,120,463,459,468
2025-02-20 16:31:06.892,-292.0,45.0,1009.0,0.0,-4.0,-3.0,129,109,100,130,120,463,461,467
2025-02-20 16:31:06.912,-289.0,36.0,1006.0,1.0,-2.0,-3.0,129,109,101,130,120,463,462,466
2025-02-20 16:31:06.930,-283.0,37.0,1007.0,3.0,-1.0,-3.0,129,108,100,130,120,462,464,465
2025-02-20 16:31:06.949,-285.0,42.0,1003.0,2.0,0.0,-3.0,129,109,101,130,120,464,466,465
2025-02-20 16:31:06.969,-289.0,36.0,995.0,0.0,0.0,-3.0,129,109,100,130,120,463,466,465
2025-02-20 16:31:06.987,-285.0,25.0,984.0,-1.0,0.0,-2.0,129,109,101,130,120,464,465,464
2025-02-20 16:31:07.007,-297.0,29.0,975.0,-1.0,0.0,-2.0,129,108,101,130,120,463,467,463
2025-02-20 16:31:07.023,-297.0,30.0,970.0,-1.0,0.0,-2.0,129,109,101,130,120,464,467,464
2025-02-20 16:31:07.044,-300.0,28.0,966.0,0.0,0.0,-2.0,129,109,100,130,120,463,469,464
2025-02-20 16:31:07.064,-315.0,31.0,965.0,0.0,-1.0,-1.0,130,109,100,131,120,465,470,463
2025-02-20 16:31:07.081,-314.0,32.0,962.0,0.0,-1.0,-2.0,130,108,101,131,120,463,468,464
2025-02-20 16:31:07.101,-316.0,25.0,959.0,3.0,-1.0,-2.0,129,109,100,130,120,464,467,464
2025-02-20 16:31:07.121,-318.0,42.0,965.0,5.0,-2.0,-1.0,129,109,100,130,120,463,465,465
2025-02-20 16:31:07.138,-321.0,47.0,970.0,6.0,-3.0,-2.0,130,109,101,131,120,464,464,466
2025-02-20 16:31:07.159,-311.0,48.0,986.0,5.0,-3.0,-1.0,129,109,100,130,119,463,462,466
2025-02-20 16:31:07.178,-307.0,55.0,984.0,2.0,-3.0,-2.0,129,109,100,131,120,463,461,466
2025-02-20 16:31:07.195,-289.0,64.0,1004.0,-1.0,-2.0,-2.0,129,109,100,130,120,463,459,466
2025-02-20 16:31:07.215,-291.0,37.0,1002.0,0.0,-2.0,-1.0,129,109,100,130,120,464,459,466
2025-02-20 16:31:07.233,-290.0,41.0,996.0,1.0,-1.0,0.0,129,109,101,130,120,463,460,469
2025-02-20 16:31:07.253,-293.0,50.0,1000.0,-1.0,0.0,-1.0,129,109,101,130,119,463,460,466
2025-02-20 16:31:07.273,-289.0,52.0,999.0,0.0,0.0,-1.0,129,109,101,130,120,463,460,466
2025-02-20 16:31:07.290,-293.0,63.0,989.0,-1.0,0.0,-1.0,129,109,101,130,120,463,460,466
2025-02-20 16:31:07.311,-291.0,60.0,990.0,-3.0,0.0,-1.0,129,108,101,130,120,463,463,467
2025-02-20 16:31:07.331,-284.0,47.0,987.0,-3.0,1.0,-2.0,129,109,101,131,120,463,465,469
2025-02-20 16:31:07.347,-281.0,48.0,974.0,-4.0,1.0,-1.0,129,109,101,134,119,462,467,465
2025-02-20 16:31:07.368,-280.0,51.0,962.0,-5.0,1.0,-2.0,129,109,101,130,120,464,469,465
2025-02-20 16:31:07.378,-273.0,48.0,942.0,-6.0,1.0,-2.0,129,109,100,131,120,463,469,465
2025-02-20 16:31:07.405,-275.0,46.0,928.0,-6.0,2.0,-2.0,130,109,100,130,120,465,469,464
2025-02-20 16:31:07.422,-282.0,57.0,893.0,-7.0,0.0,-3.0,129,109,101,130,120,464,469,464
2025-02-20 16:31:07.445,-318.0,104.0,856.0,-14.0,-3.0,-4.0,129,109,101,130,123,465,470,464
2025-02-20 16:31:07.462,-343.0,117.0,759.0,-25.0,-7.0,-11.0,129,109,101,130,120,467,471,463
2025-02-20 16:31:07.482,-369.0,-5.0,731.0,-24.0,-15.0,-13.0,129,109,99,130,119,464,470,464
2025-02-20 16:31:07.499,-387.0,-37.0,702.0,-8.0,-33.0,-12.0,128,108,99,130,120,464,467,464
2025-02-20 16:31:07.519,-472.0,17.0,852.0,9.0,-56.0,-11.0,128,106,97,129,119,463,464,463
2025-02-20 16:31:07.537,-496.0,78.0,920.0,2.0,-117.0,-10.0,129,100,90,126,115,460,465,461
2025-02-20 16:31:07.556,-180.0,76.0,1386.0,-50.0,-146.0,-3.0,129,94,81,119,108,457,463,460
2025-02-20 16:31:07.577,219.0,163.0,2143.0,-114.0,-126.0,4.0,129,88,74,108,98,457,462,458
2025-02-20 16:31:07.596,218.0,-141.0,2482.0,-146.0,-21.0,16.0,130,83,69,102,88,454,460,460
2025-02-20 16:31:07.614,303.0,-314.0,2558.0,-156.0,121.0,21.0,130,74,63,93,76,464,462,463
2025-02-20 16:31:07.634,206.0,-305.0,2206.0,-148.0,234.0,22.0,130,65,56,83,68,460,459,476
2025-02-20 16:31:07.654,48.0,-263.0,1721.0,-171.0,282.0,36.0,130,59,52,73,60,451,459,474
2025-02-20 16:31:07.670,-91.0,-274.0,1362.0,-214.0,291.0,48.0,130,55,49,66,56,426,461,467
2025-02-20 16:31:07.692,-124.0,-280.0,1090.0,-244.0,278.0,59.0,129,54,47,62,52,428,468,472
2025-02-20 16:31:07.707,-147.0,-312.0,858.0,-242.0,264.0,77.0,129,54,47,59,53,436,478,486
2025-02-20 16:31:07.726,-203.0,-198.0,497.0,-196.0,259.0,82.0,125,53,46,60,54,448,494,494
2025-02-20 16:31:07.748,-354.0,-64.0,253.0,-185.0,228.0,97.0,118,53,46,59,53,459,505,493
2025-02-20 16:31:07.765,-460.0,76.0,25.0,-171.0,184.0,101.0,113,53,47,58,51,444,489,493
2025-02-20 16:31:07.785,-451.0,173.0,-103.0,-150.0,158.0,81.0,107,51,46,57,50,421,453,512
2025-02-20 16:31:07.806,-384.0,273.0,-132.0,-115.0,143.0,56.0,103,53,46,57,50,424,427,496
2025-02-20 16:31:07.823,-379.0,395.0,-287.0,-90.0,136.0,38.0,101,52,46,57,49,431,412,481
2025-02-20 16:31:07.843,-671.0,704.0,-660.0,-62.0,84.0,12.0,99,53,46,58,50,459,413,473
2025-02-20 16:31:07.863,-624.0,891.0,-962.0,-3.0,17.0,-36.0,95,53,46,57,50,466,433,468
2025-02-20 16:31:07.880,-775.0,1243.0,-1344.0,95.0,-36.0,-148.0,93,52,45,57,49,459,424,455
2025-02-20 16:31:07.899,-1180.0,1958.0,-1963.0,149.0,-183.0,-335.0,91,52,45,57,49,463,432,445
2025-02-20 16:31:07.920,-1002.0,2019.0,-2440.0,92.0,-459.0,-571.0,90,52,45,57,48,468,463,436
2025-02-20 16:31:07.938,794.0,1303.0,-2323.0,24.0,-835.0,-692.0,92,52,44,59,50,468,486,437
2025-02-20 16:31:07.957,3956.0,-660.0,689.0,5.0,-925.0,-576.0,95,54,46,61,52,445,491,438
2025-02-20 16:31:07.975,5103.0,-3619.0,4290.0,-17.0,-356.0,-255.0,96,55,46,64,54,400,491,441
2025-02-20 16:31:07.992,3664.0,-4643.0,4108.0,204.0,89.0,-105.0,96,54,46,63,55,368,528,427
2025-02-20 16:31:08.015,1865.0,-2457.0,2586.0,159.0,257.0,98.0,97,56,45,61,51,386,604,434
2025-02-20 16:31:08.031,236.0,-645.0,1176.0,-142.0,143.0,146.0,98,56,46,61,52,501,636,450
2025-02-20 16:31:08.051,76.0,-1234.0,575.0,-253.0,17.0,135.0,97,56,46,62,53,481,581,467
2025-02-20 16:31:08.069,179.0,-1376.0,655.0,-235.0,14.0,162.0,97,56,47,62,54,466,509,486
2025-02-20 16:31:08.089,171.0,-1248.0,836.0,-128.0,59.0,186.0,97,56,47,64,55,489,398,489
2025-02-20 16:31:08.109,139.0,-677.0,842.0,-73.0,119.0,185.0,98,57,48,64,56,509,422,488
2025-02-20 16:31:08.129,-133.0,-501.0,680.0,-79.0,121.0,175.0,98,58,49,63,57,529,449,485
2025-02-20 16:31:08.144,-148.0,-444.0,453.0,-101.0,111.0,177.0,98,57,49,63,56,497,495,490
2025-02-20 16:31:08.166,-250.0,-533.0,332.0,-101.0,105.0,173.0,99,57,49,63,58,473,496,483
2025-02-20 16:31:08.183,-134.0,-462.0,329.0,-78.0,117.0,163.0,99,57,49,62,58,483,436,477
2025-02-20 16:31:08.203,-193.0,-549.0,248.0,-36.0,129.0,150.0,99,56,49,63,59,505,412,467
2025-02-20 16:31:08.223,-194.0,-350.0,46.0,1.0,133.0,154.0,99,58,49,63,59,486,449,458
2025-02-20 16:31:08.240,-287.0,-324.0,24.0,20.0,119.0,151.0,99,58,49,63,59,477,465,452
2025-02-20 16:31:08.261,-297.0,-198.0,21.0,55.0,103.0,139.0,100,57,50,64,60,482,480,453
2025-02-20 16:31:08.280,-237.0,-262.0,41.0,102.0,111.0,135.0,100,57,50,63,60,516,477,455
2025-02-20 16:31:08.298,-437.0,51.0,-181.0,162.0,96.0,156.0,100,57,50,64,60,510,462,455
2025-02-20 16:31:08.318,-706.0,731.0,-685.0,193.0,50.0,175.0,100,57,49,64,60,465,430,452
2025-02-20 16:31:08.338,-1313.0,2118.0,-1214.0,209.0,-39.0,-14.0,99,57,51,63,60,434,408,442
2025-02-20 16:31:08.355,-1556.0,2855.0,-1336.0,173.0,-170.0,-364.0,99,57,51,63,60,434,382,440
2025-02-20 16:31:08.375,-745.0,1777.0,-1164.0,24.0,-397.0,-651.0,100,57,50,65,61,459,387,444
2025-02-20 16:31:08.395,1198.0,140.0,-954.0,-75.0,-745.0,-772.0,103,57,50,66,62,478,401,445
2025-02-20 16:31:08.412,4752.0,-3501.0,2206.0,54.0,-823.0,-559.0,110,59,48,72,67,450,383,445
2025-02-20 16:31:08.432,4340.0,-5635.0,4161.0,162.0,-73.0,-22.0,114,61,51,75,70,370,453,452
2025-02-20 16:31:08.450,2570.0,-2982.0,2592.0,41.0,206.0,175.0,114,61,50,71,66,367,551,460
2025-02-20 16:31:08.469,407.0,-1262.0,1457.0,-101.0,153.0,156.0,115,62,51,71,63,433,583,456
2025-02-20 16:31:08.489,307.0,-1266.0,590.0,-222.0,102.0,189.0,114,62,51,73,65,477,581,463
2025-02-20 16:31:08.506,-40.0,-1249.0,398.0,-172.0,59.0,208.0,114,61,51,74,67,467,541,465
2025-02-20 16:31:08.526,-5.0,-982.0,557.0,-109.0,50.0,216.0,115,62,51,75,67,484,475,459
2025-02-20 16:31:08.547,-127.0,-714.0,525.0,-84.0,67.0,213.0,117,62,52,75,68,510,428,473
2025-02-20 16:31:08.563,-215.0,-628.0,532.0,-82.0,69.0,197.0,118,62,52,75,69,488,485,484
2025-02-20 16:31:08.584,-260.0,-558.0,417.0,-94.0,61.0,185.0,119,61,53,75,69,488,535,483
2025-02-20 16:31:08.601,-156.0,-644.0,430.0,-78.0,57.0,190.0,121,61,54,75,70,499,478,484
2025-02-20 16:31:08.621,-216.0,-588.0,397.0,-72.0,63.0,214.0,123,60,54,75,70,475,417,473
2025-02-20 16:31:08.640,-146.0,-503.0,326.0,-15.0,83.0,199.0,126,59,54,74,74,448,468,458
2025-02-20 16:31:08.658,-270.0,-275.0,218.0,25.0,110.0,193.0,127,59,54,75,70,447,510,459
2025-02-20 16:31:08.678,-398.0,47.0,200.0,42.0,98.0,168.0,129,58,54,73,70,452,480,465
2025-02-20 16:31:08.698,-522.0,518.0,142.0,52.0,76.0,116.0,131,58,53,74,70,456,440,461
2025-02-20 16:31:08.713,-797.0,1057.0,0.0,112.0,63.0,9.0,134,57,54,72,67,489,430,450
2025-02-20 16:31:08.736,-915.0,1943.0,-393.0,133.0,50.0,-178.0,135,57,53,71,62,477,414,447
2025-02-20 16:31:08.756,-1178.0,2386.0,-921.0,52.0,-12.0,-377.0,136,54,52,70,59,441,389,462
2025-02-20 16:31:08.773,-1041.0,1744.0,-1527.0,-101.0,-235.0,-610.0,136,51,50,68,57,437,399,471
2025-02-20 16:31:08.793,645.0,706.0,-1744.0,-310.0,-634.0,-685.0,139,51,49,72,60,435,416,473
2025-02-20 16:31:08.813,3412.0,-2470.0,-722.0,-380.0,-766.0,-495.0,141,52,49,74,62,459,440,470
2025-02-20 16:31:08.830,3949.0,-4888.0,1615.0,-310.0,-295.0,-242.0,142,53,50,76,64,477,440,474
2025-02-20 16:31:08.850,2990.0,-5170.0,729.0,79.0,157.0,-63.0,143,54,49,76,63,509,512,475
2025-02-20 16:31:08.867,888.0,-2726.0,-338.0,231.0,229.0,46.0,145,55,49,71,59,482,536,473
2025-02-20 16:31:08.887,76.0,-1275.0,-624.0,59.0,82.0,120.0,144,55,49,71,55,508,497,460
2025-02-20 16:31:08.908,-36.0,-1402.0,-291.0,-32.0,-58.0,151.0,144,55,49,71,56,515,491,456
2025-02-20 16:31:08.924,351.0,-1538.0,238.0,1.0,-45.0,166.0,144,54,50,74,59,488,453,485
2025-02-20 16:31:08.944,508.0,-1214.0,579.0,88.0,31.0,110.0,145,58,50,75,62,472,373,482
2025-02-20 16:31:08.965,331.0,-1188.0,541.0,103.0,134.0,121.0,145,57,52,73,63,510,436,486
2025-02-20 16:31:08.982,41.0,-984.0,405.0,92.0,98.0,161.0,145,56,52,74,64,522,502,482
2025-02-20 16:31:09.002,-31.0,-870.0,119.0,40.0,72.0,201.0,145,55,52,74,65,555,514,470
2025-02-20 16:31:09.019,-56.0,-347.0,296.0,35.0,61.0,143.0,145,56,52,74,66,538,485,475
2025-02-20 16:31:09.039,7.0,-563.0,437.0,25.0,110.0,114.0,145,56,52,74,66,512,462,478
2025-02-20 16:31:09.059,-115.0,-650.0,356.0,29.0,126.0,144.0,145,57,53,74,66,439,455,471
2025-02-20 16:31:09.076,-235.0,-726.0,204.0,34.0,118.0,187.0,145,57,53,73,65,390,460,472
2025-02-20 16:31:09.096,-261.0,-628.0,252.0,48.0,81.0,220.0,145,57,54,72,65,438,440,463
2025-02-20 16:31:09.116,42.0,-380.0,540.0,162.0,113.0,177.0,145,57,53,72,65,485,439,451
2025-02-20 16:31:09.133,23.0,-313.0,514.0,250.0,198.0,145.0,145,57,53,72,65,497,438,446
2025-02-20 16:31:09.154,-394.0,-48.0,155.0,292.0,222.0,163.0,145,57,53,72,64,523,446,441
2025-02-20 16:31:09.174,-881.0,1533.0,-232.0,257.0,159.0,66.0,145,58,54,71,62,605,432,420
2025-02-20 16:31:09.191,-1486.0,3237.0,-1047.0,118.0,54.0,-245.0,144,56,53,69,60,599,439,420
2025-02-20 16:31:09.211,-1772.0,2530.0,-1866.0,-32.0,-146.0,-530.0,143,54,51,71,60,520,436,434
2025-02-20 16:31:09.231,-824.0,1536.0,-2373.0,-191.0,-624.0,-757.0,143,53,51,71,60,430,420,451
2025-02-20 16:31:09.248,2841.0,-451.0,-2353.0,-428.0,-1057.0,-545.0,144,54,52,75,64,410,410,453
2025-02-20 16:31:09.268,5495.0,-4849.0,1852.0,-580.0,-726.0,-163.0,145,52,52,78,66,506,432,456
2025-02-20 16:31:09.289,4419.0,-6268.0,1707.0,-123.0,97.0,-41.0,145,55,51,79,66,510,505,454
2025-02-20 16:31:09.305,1570.0,-3833.0,-391.0,316.0,298.0,68.0,145,54,49,72,59,511,531,457
2025-02-20 16:31:09.325,19.0,-747.0,-842.0,132.0,151.0,139.0,146,55,48,71,54,508,516,466
2025-02-20 16:31:09.342,-323.0,-977.0,-555.0,-33.0,-65.0,158.0,146,54,49,72,53,489,515,464
2025-02-20 16:31:09.363,289.0,-1312.0,265.0,-15.0,-83.0,135.0,148,55,50,74,56,461,477,467
2025-02-20 16:31:09.380,568.0,-1562.0,901.0,89.0,54.0,107.0,147,57,51,76,59,422,413,468
2025-02-20 16:31:09.400,377.0,-1458.0,569.0,142.0,147.0,152.0,147,57,51,74,60,416,449,461
2025-02-20 16:31:09.419,64.0,-1292.0,325.0,126.0,145.0,234.0,146,57,53,75,61,479,537,466
2025-02-20 16:31:09.439,108.0,-817.0,225.0,70.0,123.0,275.0,146,57,53,77,62,484,535,469
2025-02-20 16:31:09.456,255.0,-572.0,401.0,15.0,154.0,281.0,146,58,54,76,63,511,506,483
2025-02-20 16:31:09.477,183.0,-401.0,405.0,15.0,195.0,273.0,146,58,53,72,63,513,479,479
2025-02-20 16:31:09.494,-222.0,-142.0,214.0,61.0,201.0,245.0,147,60,56,73,65,495,469,467
2025-02-20 16:31:09.514,-276.0,57.0,68.0,50.0,188.0,224.0,147,62,58,73,69,483,468,463
2025-02-20 16:31:09.534,-218.0,110.0,227.0,32.0,184.0,196.0,146,63,60,76,74,455,447,452
2025-02-20 16:31:09.550,-317.0,-214.0,17.0,140.0,175.0,179.0,145,69,64,81,84,441,438,457
2025-02-20 16:31:09.572,-286.0,-81.0,-202.0,232.0,155.0,186.0,143,74,69,90,93,424,428,465
2025-02-20 16:31:09.591,-905.0,784.0,-511.0,345.0,141.0,142.0,142,79,75,101,100,427,419,461
2025-02-20 16:31:09.609,-1497.0,2219.0,-1400.0,304.0,-31.0,-28.0,141,86,79,112,103,443,413,449
2025-02-20 16:31:09.628,-1058.0,2061.0,-1599.0,215.0,-307.0,-335.0,141,95,83,115,109,451,389,439
2025-02-20 16:31:09.644,-652.0,1176.0,-1250.0,156.0,-478.0,-527.0,139,103,89,119,118,454,377,443
2025-02-20 16:31:09.666,402.0,447.0,-286.0,-50.0,-541.0,-676.0,141,110,93,124,124,432,408,458
2025-02-20 16:31:09.681,2776.0,-159.0,302.0,-177.0,-904.0,-543.0,144,116,97,129,125,381,406,466
2025-02-20 16:31:09.706,3196.0,-3115.0,1418.0,-329.0,-776.0,-282.0,144,121,102,131,127,378,405,468
2025-02-20 16:31:09.724,2782.0,-4111.0,1178.0,-315.0,-434.0,12.0,145,125,103,132,129,381,460,462
2025-02-20 16:31:09.743,2625.0,-3940.0,936.0,-183.0,-203.0,170.0,145,126,104,133,129,411,500,458
2025-02-20 16:31:09.763,1396.0,-2757.0,354.0,-40.0,85.0,160.0,146,122,105,133,130,420,510,465
2025-02-20 16:31:09.779,324.0,-1388.0,305.0,1.0,120.0,212.0,146,121,104,133,130,422,516,463
2025-02-20 16:31:09.800,175.0,-770.0,370.0,-20.0,72.0,289.0,145,119,103,132,129,384,494,460
2025-02-20 16:31:09.817,91.0,-846.0,393.0,51.0,41.0,285.0,146,118,104,132,129,391,433,467
2025-02-20 16:31:09.838,70.0,-936.0,398.0,101.0,79.0,235.0,145,118,104,132,129,426,494,473
2025-02-20 16:31:09.850,97.0,-778.0,557.0,250.0,219.0,179.0,146,119,104,134,130,445,530,485
2025-02-20 16:31:09.875,145.0,-644.0,-143.0,278.0,315.0,139.0,146,120,104,135,131,413,517,489
2025-02-20 16:31:09.895,-276.0,-652.0,655.0,190.0,283.0,140.0,146,122,104,135,130,444,460,485
2025-02-20 16:31:09.915,-217.0,-564.0,282.0,109.0,222.0,151.0,145,122,105,135,130,454,454,488
2025-02-20 16:31:09.932,-243.0,-476.0,386.0,78.0,176.0,161.0,145,123,105,133,133,455,480,488
2025-02-20 16:31:09.950,-295.0,-362.0,246.0,63.0,155.0,163.0,145,122,106,134,131,474,458,494
2025-02-20 16:31:09.972,-346.0,-131.0,387.0,4.0,130.0,155.0,144,121,105,134,131,517,438,482
2025-02-20 16:31:09.986,-502.0,-89.0,141.0,-44.0,86.0,132.0,144,118,105,134,132,526,431,473
2025-02-20 16:31:10.009,-405.0,-101.0,72.0,-1.0,57.0,113.0,144,115,105,135,130,530,447,470
2025-02-20 16:31:10.026,-457.0,-6.0,205.0,43.0,27.0,100.0,144,113,104,134,130,535,451,467
2025-02-20 16:31:10.047,-557.0,783.0,66.0,128.0,-1.0,84.0,144,110,106,136,130,563,421,451
2025-02-20 16:31:10.067,-1147.0,1598.0,-617.0,188.0,-49.0,-74.0,145,111,104,137,130,492,414,439
2025-02-20 16:31:10.087,-1663.0,2187.0,-1130.0,236.0,-201.0,-348.0,144,113,104,136,131,423,422,441
2025-02-20 16:31:10.104,-949.0,1938.0,-1303.0,219.0,-384.0,-584.0,142,116,105,135,130,373,422,443
2025-02-20 16:31:10.124,1636.0,-305.0,135.0,-77.0,-538.0,-637.0,140,120,107,134,132,338,404,448
2025-02-20 16:31:10.141,3645.0,-2444.0,955.0,-201.0,-829.0,-358.0,144,124,107,135,132,361,394,451
2025-02-20 16:31:10.159,3218.0,-4255.0,2373.0,-267.0,-444.0,-161.0,145,122,108,136,133,381,405,460
2025-02-20 16:31:10.180,2239.0,-3874.0,1624.0,-43.0,-62.0,66.0,147,124,108,136,133,394,526,472
2025-02-20 16:31:10.198,1486.0,-1950.0,996.0,-239.0,-37.0,166.0,146,119,107,135,132,368,544,472
2025-02-20 16:31:10.218,489.0,-1264.0,1572.0,-107.0,142.0,221.0,148,117,107,135,132,361,548,479
2025-02-20 16:31:10.239,233.0,-1105.0,551.0,-35.0,61.0,230.0,146,113,106,135,131,375,526,478
2025-02-20 16:31:10.255,94.0,-999.0,538.0,-32.0,48.0,231.0,146,113,106,134,131,341,447,480
2025-02-20 16:31:10.276,-3.0,-1120.0,690.0,-16.0,105.0,220.0,144,112,104,135,131,348,423,482
2025-02-20 16:31:10.293,10.0,-968.0,459.0,108.0,158.0,211.0,146,112,104,135,132,373,482,481
2025-02-20 16:31:10.312,99.0,-806.0,621.0,131.0,269.0,199.0,147,113,104,135,131,381,489,484
2025-02-20 16:31:10.333,-20.0,-717.0,651.0,40.0,208.0,202.0,146,113,101,135,130,428,447,472
2025-02-20 16:31:10.350,-128.0,-539.0,517.0,8.0,233.0,198.0,147,114,101,133,130,498,457,465
2025-02-20 16:31:10.367,-242.0,-379.0,297.0,-31.0,201.0,201.0,146,111,98,132,123,473,491,467
2025-02-20 16:31:10.390,-325.0,-134.0,284.0,-60.0,164.0,204.0,146,110,93,126,112,398,504,463
2025-02-20 16:31:10.407,-417.0,93.0,322.0,-51.0,173.0,201.0,146,104,90,121,100,432,448,450
2025-02-20 16:31:10.427,-508.0,581.0,533.0,43.0,171.0,154.0,145,92,86,113,89,510,434,446
2025-02-20 16:31:10.445,-850.0,1085.0,310.0,146.0,249.0,34.0,145,82,81,102,74,552,436,443
2025-02-20 16:31:10.463,-1183.0,2252.0,-999.0,207.0,150.0,-261.0,142,69,75,92,62,565,444,436
2025-02-20 16:31:10.484,-1216.0,2972.0,-1718.0,131.0,-188.0,-559.0,141,68,69,87,57,570,438,414
2025-02-20 16:31:10.502,-216.0,2221.0,-2009.0,-2.0,-435.0,-753.0,141,57,62,73,52,502,455,435
2025-02-20 16:31:10.522,2246.0,-409.0,-806.0,-144.0,-664.0,-620.0,141,52,59,73,53,481,430,447
2025-02-20 16:31:10.541,3238.0,-2156.0,951.0,-270.0,-582.0,-469.0,143,51,59,77,54,465,432,447
2025-02-20 16:31:10.559,3761.0,-4279.0,1745.0,-213.0,-219.0,-217.0,143,50,56,78,52,455,456,460
2025-02-20 16:31:10.578,2313.0,-4748.0,878.0,58.0,85.0,-24.0,144,50,52,74,49,467,496,463
2025-02-20 16:31:10.599,1144.0,-2717.0,83.0,120.0,109.0,103.0,144,47,51,76,46,524,532,471
2025-02-20 16:31:10.616,224.0,-1111.0,-460.0,18.0,31.0,136.0,145,48,53,77,48,525,530,471
2025-02-20 16:31:10.636,415.0,-1684.0,223.0,-38.0,-38.0,150.0,147,49,55,77,49,511,484,474
2025-02-20 16:31:10.653,631.0,-1688.0,559.0,25.0,26.0,139.0,146,54,56,78,53,549,430,478
2025-02-20 16:31:10.673,565.0,-1691.0,598.0,80.0,102.0,175.0,146,54,56,77,53,556,420,480
2025-02-20 16:31:10.693,307.0,-1342.0,365.0,85.0,120.0,226.0,147,54,57,76,53,528,468,477
2025-02-20 16:31:10.711,80.0,-846.0,265.0,23.0,83.0,263.0,147,55,58,76,55,520,514,487
2025-02-20 16:31:10.731,88.0,-448.0,418.0,31.0,63.0,209.0,147,54,57,75,55,514,517,495
2025-02-20 16:31:10.751,31.0,-475.0,468.0,25.0,119.0,173.0,148,55,58,75,55,504,524,490
2025-02-20 16:31:10.768,-232.0,-486.0,193.0,-23.0,122.0,193.0,147,55,58,77,55,478,519,480
2025-02-20 16:31:10.788,-384.0,-193.0,147.0,-66.0,85.0,207.0,145,55,58,76,55,495,462,487
2025-02-20 16:31:10.808,-284.0,-232.0,389.0,-48.0,63.0,195.0,148,56,59,76,56,492,466,487
2025-02-20 16:31:10.825,-119.0,-238.0,427.0,51.0,104.0,121.0,149,56,59,75,55,477,492,482
2025-02-20 16:31:10.845,-372.0,-88.0,322.0,133.0,146.0,116.0,149,56,60,75,56,487,494,477
2025-02-20 16:31:10.862,-585.0,539.0,99.0,160.0,155.0,98.0,148,56,59,76,56,505,489,468
2025-02-20 16:31:10.882,-870.0,1220.0,-223.0,189.0,125.0,-29.0,145,56,61,76,54,515,473,459
2025-02-20 16:31:10.901,-1226.0,1567.0,-907.0,218.0,50.0,-215.0,144,56,61,75,56,521,458,450
2025-02-20 16:31:10.922,-1550.0,2108.0,-1450.0,145.0,-178.0,-479.0,144,55,60,74,55,508,431,452
2025-02-20 16:31:10.937,-874.0,1639.0,-1978.0,-26.0,-514.0,-634.0,146,55,59,76,56,475,400,455
2025-02-20 16:31:10.960,1613.0,-17.0,-1408.0,-265.0,-829.0,-544.0,147,55,61,79,57,411,389,459
2025-02-20 16:31:10.977,4800.0,-3387.0,1677.0,-509.0,-592.0,-297.0,148,55,63,82,60,406,404,469
2025-02-20 16:31:10.997,4410.0,-5667.0,1770.0,-186.0,17.0,-107.0,147,54,60,85,59,440,488,455
2025-02-20 16:31:11.016,1709.0,-4226.0,28.0,212.0,253.0,68.0,147,54,58,78,56,469,555,449
2025-02-20 16:31:11.033,461.0,-1510.0,-663.0,105.0,178.0,157.0,147,55,59,79,53,482,560,458
2025-02-20 16:31:11.044,-113.0,-1082.0,-618.0,-36.0,9.0,171.0,148,53,59,80,52,444,548,443
2025-02-20 16:31:11.074,197.0,-1551.0,84.0,-20.0,-59.0,164.0,147,53,61,79,54,412,495,457
2025-02-20 16:31:11.091,522.0,-1359.0,765.0,105.0,3.0,88.0,147,56,63,83,56,472,436,493
2025-02-20 16:31:11.111,469.0,-1367.0,819.0,145.0,149.0,94.0,149,59,67,83,59,487,451,497
2025-02-20 16:31:11.128,317.0,-1139.0,477.0,125.0,199.0,124.0,147,60,70,85,61,506,478,506
2025-02-20 16:31:11.149,100.0,-916.0,367.0,68.0,207.0,168.0,147,62,72,84,61,515,503,501
2025-02-20 16:31:11.169,25.0,-740.0,362.0,-6.0,163.0,201.0,147,66,72,85,62,475,486,489
2025-02-20 16:31:11.184,-6.0,-669.0,285.0,0.0,158.0,232.0,145,70,74,84,62,443,437,471
2025-02-20 16:31:11.204,193.0,-792.0,262.0,17.0,219.0,259.0,145,74,76,85,62,478,424,466
2025-02-20 16:31:11.225,-70.0,-416.0,122.0,21.0,228.0,270.0,144,73,79,87,61,433,431,466
2025-02-20 16:31:11.240,-137.0,-421.0,110.0,9.0,191.0,289.0,145,80,84,90,61,437,446,469
2025-02-20 16:31:11.262,-174.0,-121.0,75.0,50.0,163.0,300.0,144,85,87,94,61,487,486,470
2025-02-20 16:31:11.282,-404.0,219.0,-70.0,143.0,166.0,263.0,146,92,89,98,63,497,484,473
2025-02-20 16:31:11.300,-1049.0,835.0,-480.0,209.0,82.0,187.0,144,96,93,99,66,490,494,480
2025-02-20 16:31:11.319,-1132.0,1372.0,-776.0,198.0,-17.0,33.0,145,102,94,95,66,480,492,468
2025-02-20 16:31:11.340,-1359.0,2126.0,-1132.0,140.0,-143.0,-178.0,146,107,99,92,66,465,463,457
2025-02-20 16:31:11.357,-1534.0,1990.0,-1315.0,133.0,-331.0,-512.0,147,113,100,87,65,435,451,453
2025-02-20 16:31:11.374,7.0,1620.0,-1050.0,104.0,-605.0,-711.0,147,117,103,89,68,389,428,462
2025-02-20 16:31:11.395,2602.0,810.0,193.0,-83.0,-718.0,-744.0,146,124,108,95,72,379,414,469
2025-02-20 16:31:11.415,2832.0,-2623.0,1250.0,-135.0,-659.0,-545.0,145,128,105,98,74,434,397,458
2025-02-20 16:31:11.435,3412.0,-3100.0,1494.0,-9.0,-366.0,-189.0,145,129,107,97,72,457,423,458
2025-02-20 16:31:11.451,3215.0,-2970.0,1993.0,-1.0,-64.0,88.0,146,129,107,95,67,466,490,460
2025-02-20 16:31:11.470,1741.0,-1942.0,1553.0,-6.0,154.0,126.0,146,129,106,98,63,461,509,466
2025-02-20 16:31:11.492,749.0,-1339.0,768.0,-34.0,159.0,130.0,145,127,106,97,60,397,510,467
2025-02-20 16:31:11.510,298.0,-1200.0,520.0,-72.0,113.0,156.0,146,128,106,99,62,400,498,466
2025-02-20 16:31:11.529,245.0,-1142.0,514.0,-50.0,89.0,165.0,145,128,107,94,63,429,446,467
2025-02-20 16:31:11.548,229.0,-1039.0,599.0,-12.0,113.0,159.0,145,129,108,93,66,492,432,473
2025-02-20 16:31:11.566,249.0,-939.0,650.0,31.0,143.0,152.0,145,130,108,92,67,527,466,474
2025-02-20 16:31:11.586,198.0,-896.0,604.0,43.0,163.0,158.0,146,130,108,90,67,572,513,478
2025-02-20 16:31:11.603,141.0,-812.0,513.0,34.0,178.0,191.0,146,132,110,90,68,579,490,478
2025-02-20 16:31:11.621,57.0,-610.0,504.0,21.0,185.0,219.0,145,130,105,90,67,559,454,462
2025-02-20 16:31:11.643,-104.0,-391.0,476.0,3.0,190.0,223.0,145,129,109,91,67,505,423,461
2025-02-20 16:31:11.658,-149.0,-274.0,417.0,-26.0,189.0,212.0,145,128,103,90,65,486,433,463
2025-02-20 16:31:11.681,-323.0,-347.0,338.0,-23.0,185.0,214.0,145,128,111,92,64,446,456,474
2025-02-20 16:31:11.701,-296.0,-336.0,224.0,8.0,176.0,221.0,146,127,110,92,65,424,491,487
2025-02-20 16:31:11.717,-390.0,4.0,141.0,54.0,178.0,200.0,145,126,110,90,63,462,518,472
2025-02-20 16:31:11.737,-629.0,460.0,-120.0,78.0,155.0,162.0,145,125,111,89,64,462,510,463
2025-02-20 16:31:11.758,-1257.0,1268.0,-1053.0,57.0,41.0,52.0,145,125,110,84,62,477,484,455
2025-02-20 16:31:11.774,-1842.0,2038.0,-1626.0,62.0,-196.0,-196.0,146,127,110,83,63,466,450,454
2025-02-20 16:31:11.796,-1603.0,2457.0,-1746.0,51.0,-465.0,-483.0,146,127,112,83,63,450,426,465
2025-02-20 16:31:11.815,1258.0,1856.0,-950.0,1.0,-684.0,-764.0,145,128,112,86,67,435,417,462
2025-02-20 16:31:11.832,3041.0,55.0,516.0,-36.0,-704.0,-834.0,147,130,113,90,71,427,408,467
2025-02-20 16:31:11.853,3618.0,-3413.0,1630.0,111.0,-506.0,-488.0,146,130,113,94,71,439,450,471
2025-02-20 16:31:11.870,3885.0,-4058.0,2349.0,73.0,-89.0,-5.0,147,131,113,94,68,505,486,458
2025-02-20 16:31:11.890,2601.0,-2044.0,1851.0,-34.0,125.0,174.0,146,129,112,93,64,505,503,454
2025-02-20 16:31:11.910,972.0,-1211.0,1044.0,-81.0,131.0,142.0,146,129,113,93,62,502,502,462
2025-02-20 16:31:11.927,393.0,-1168.0,687.0,-90.0,89.0,111.0,147,129,113,94,63,459,491,481
2025-02-20 16:31:11.947,259.0,-1322.0,672.0,-69.0,70.0,119.0,146,127,113,96,65,470,438,486
2025-02-20 16:31:11.967,342.0,-1246.0,869.0,-57.0,86.0,145.0,146,129,113,97,69,428,397,490
2025-02-20 16:31:11.984,453.0,-1059.0,755.0,-39.0,114.0,171.0,147,129,112,98,75,482,469,498
2025-02-20 16:31:12.004,503.0,-1069.0,709.0,-16.0,152.0,180.0,146,129,111,100,82,498,555,497
2025-02-20 16:31:12.024,326.0,-919.0,691.0,-34.0,171.0,195.0,147,126,108,102,85,520,515,491
2025-02-20 16:31:12.041,202.0,-713.0,618.0,-88.0,177.0,235.0,148,122,105,105,88,482,474,485
2025-02-20 16:31:12.058,11.0,-550.0,474.0,-148.0,167.0,271.0,147,112,97,106,88,415,465,478
2025-02-20 16:31:12.078,-197.0,-552.0,477.0,-191.0,142.0,273.0,147,100,86,105,83,439,471,469
2025-02-20 16:31:12.099,-198.0,-551.0,384.0,-73.0,167.0,287.0,147,89,81,104,79,442,458,471
2025-02-20 16:31:12.119,-200.0,-138.0,238.0,-15.0,171.0,254.0,149,82,77,102,73,453,450,476
2025-02-20 16:31:12.136,-434.0,155.0,131.0,40.0,156.0,216.0,148,77,73,102,69,559,461,466
2025-02-20 16:31:12.156,-474.0,543.0,-12.0,104.0,148.0,141.0,146,71,68,102,68,544,470,470
2025-02-20 16:31:12.176,-870.0,1517.0,-509.0,150.0,107.0,-12.0,147,71,65,97,65,513,460,470
2025-02-20 16:31:12.193,-1263.0,1975.0,-1484.0,178.0,-66.0,-200.0,146,67,61,88,60,499,456,461
2025-02-20 16:31:12.214,-1025.0,1602.0,-1518.0,166.0,-191.0,-419.0,144,58,55,84,58,477,445,448
2025-02-20 16:31:12.234,-632.0,807.0,-1423.0,105.0,-520.0,-495.0,144,56,52,83,57,438,442,451
2025-02-20 16:31:12.250,972.0,460.0,-996.0,-68.0,-756.0,-524.0,145,55,52,85,60,425,435,457
2025-02-20 16:31:12.271,3506.0,-1556.0,825.0,-216.0,-727.0,-326.0,147,57,54,89,63,409,421,462
2025-02-20 16:31:12.288,3720.0,-3817.0,2518.0,-283.0,-300.0,-144.0,147,58,53,89,63,334,406,453
2025-02-20 16:31:12.307,2366.0,-4042.0,1708.0,-24.0,83.0,-43.0,149,57,51,86,60,377,470,451
2025-02-20 16:31:12.328,1041.0,-2658.0,238.0,114.0,171.0,41.0,150,56,51,79,55,447,547,455
2025-02-20 16:31:12.345,206.0,-1282.0,-168.0,-4.0,55.0,107.0,149,55,54,80,53,399,529,471
2025-02-20 16:31:12.365,263.0,-1425.0,59.0,-62.0,-28.0,102.0,150,55,54,80,55,396,516,475
2025-02-20 16:31:12.385,485.0,-1853.0,554.0,-5.0,1.0,114.0,150,55,52,86,56,463,478,477
2025-02-20 16:31:12.402,618.0,-1749.0,707.0,58.0,80.0,149.0,150,59,58,87,59,535,426,462
2025-02-20 16:31:12.422,478.0,-1486.0,522.0,87.0,116.0,200.0,149,61,56,87,61,534,448,461
2025-02-20 16:31:12.439,256.0,-591.0,374.0,82.0,107.0,175.0,150,60,56,89,63,567,508,474
2025-02-20 16:31:12.458,90.0,-553.0,456.0,50.0,107.0,135.0,149,62,58,90,62,537,523,472
2025-02-20 16:31:12.480,-60.0,-604.0,426.0,-10.0,109.0,158.0,150,62,57,85,63,494,541,467
2025-02-20 16:31:12.495,-151.0,-689.0,355.0,-64.0,112.0,188.0,150,62,60,84,62,497,463,467
2025-02-20 16:31:12.516,-209.0,-409.0,367.0,-63.0,98.0,212.0,151,65,59,84,62,501,419,477
2025-02-20 16:31:12.536,-94.0,-124.0,410.0,13.0,100.0,116.0,151,64,61,84,61,472,420,477
2025-02-20 16:31:12.553,-101.0,-341.0,426.0,34.0,141.0,109.0,150,65,60,84,60,489,464,484
2025-02-20 16:31:12.574,-314.0,-257.0,291.0,62.0,142.0,134.0,151,64,58,84,60,523,492,478
2025-02-20 16:31:12.594,-434.0,-103.0,194.0,109.0,133.0,141.0,150,65,60,85,60,524,495,471
2025-02-20 16:31:12.611,-550.0,871.0,101.0,186.0,135.0,44.0,150,66,62,84,61,505,482,467
2025-02-20 16:31:12.631,-1182.0,1888.0,-459.0,202.0,114.0,-121.0,149,67,62,84,62,484,468,466
2025-02-20 16:31:12.651,-1861.0,2388.0,-1643.0,146.0,-52.0,-334.0,147,64,60,83,60,475,462,461
2025-02-20 16:31:12.669,-1534.0,1981.0,-2153.0,-12.0,-458.0,-554.0,146,61,59,86,61,452,441,466
2025-02-20 16:31:12.688,1118.0,629.0,-2116.0,-258.0,-843.0,-539.0,145,60,59,87,64,394,418,470
2025-02-20 16:31:12.709,4244.0,-3278.0,-42.0,-416.0,-851.0,-237.0,147,62,62,91,66,382,410,475
2025-02-20 16:31:12.725,4533.0,-4762.0,2682.0,-313.0,-287.0,-68.0,148,64,63,91,67,425,436,465
2025-02-20 16:31:12.746,3114.0,-4595.0,1015.0,7.0,172.0,-7.0,148,63,60,86,64,447,493,455
2025-02-20 16:31:12.763,730.0,-2440.0,-335.0,198.0,224.0,77.0,148,59,58,78,57,483,516,465
2025-02-20 16:31:12.783,-48.0,-1384.0,-521.0,25.0,84.0,141.0,147,61,60,75,55,465,511,457
2025-02-20 16:31:12.803,229.0,-1685.0,69.0,-26.0,-8.0,183.0,148,63,62,79,59,409,510,444
2025-02-20 16:31:12.820,497.0,-1717.0,566.0,93.0,75.0,162.0,148,67,66,87,65,473,458,472
2025-02-20 16:31:12.840,511.0,-1531.0,714.0,219.0,168.0,136.0,148,72,68,91,68,508,420,482
2025-02-20 16:31:12.860,323.0,-1569.0,690.0,227.0,264.0,152.0,146,78,66,91,72,502,453,494
2025-02-20 16:31:12.877,82.0,-689.0,71.0,190.0,264.0,200.0,146,84,67,91,72,533,497,498
2025-02-20 16:31:12.896,71.0,-292.0,293.0,131.0,235.0,206.0,148,86,71,92,73,538,530,489
2025-02-20 16:31:12.915,-162.0,-269.0,494.0,7.0,211.0,215.0,146,82,69,95,75,516,510,484
2025-02-20 16:31:12.934,-140.0,-298.0,335.0,-30.0,203.0,225.0,146,79,69,97,78,486,451,470
2025-02-20 16:31:12.954,-216.0,-200.0,521.0,12.0,227.0,237.0,147,74,68,100,78,394,397,471
2025-02-20 16:31:12.972,-306.0,-60.0,236.0,43.0,237.0,244.0,146,69,65,100,77,401,420,474
2025-02-20 16:31:12.992,-523.0,61.0,76.0,78.0,211.0,251.0,144,64,64,99,73,449,451,467
2025-02-20 16:31:13.012,-487.0,350.0,-260.0,133.0,173.0,231.0,142,62,60,94,68,488,496,456
2025-02-20 16:31:13.029,-725.0,725.0,-584.0,236.0,153.0,154.0,138,59,57,85,63,529,486,447
2025-02-20 16:31:13.049,-1610.0,1360.0,-1971.0,351.0,-19.0,-61.0,125,58,53,77,58,524,456,443
2025-02-20 16:31:13.070,-1537.0,2265.0,-2456.0,345.0,-394.0,-353.0,107,60,52,74,56,492,435,445
2025-02-20 16:31:13.085,-181.0,1742.0,-2478.0,270.0,-771.0,-499.0,102,56,52,71,57,454,430,457
2025-02-20 16:31:13.106,2377.0,-207.0,-913.0,231.0,-994.0,-392.0,102,55,51,72,59,402,407,472
2025-02-20 16:31:13.124,3998.0,-1944.0,3066.0,362.0,-669.0,-98.0,107,58,53,77,62,373,403,466
2025-02-20 16:31:13.143,2955.0,-710.0,4866.0,242.0,-150.0,-13.0,106,58,50,76,61,457,422,467
2025-02-20 16:31:13.162,1617.0,-470.0,4155.0,99.0,168.0,-35.0,105,61,53,76,57,486,477,467
2025-02-20 16:31:13.180,680.0,-330.0,2534.0,-81.0,210.0,9.0,103,59,52,76,55,487,550,460
2025-02-20 16:31:13.201,228.0,-470.0,1705.0,-192.0,179.0,29.0,103,60,52,75,57,500,561,452
2025-02-20 16:31:13.220,102.0,-792.0,1333.0,-186.0,172.0,31.0,101,60,53,74,57,483,531,463
2025-02-20 16:31:13.238,27.0,-867.0,1084.0,-113.0,194.0,44.0,104,61,55,73,57,468,454,481
2025-02-20 16:31:13.258,-16.0,-626.0,1037.0,-66.0,215.0,62.0,103,61,55,73,58,442,410,493
2025-02-20 16:31:13.278,-155.0,-273.0,921.0,-93.0,219.0,67.0,103,61,54,74,59,453,458,498
2025-02-20 16:31:13.294,-382.0,-219.0,691.0,-112.0,173.0,48.0,101,61,56,74,59,472,498,493
2025-02-20 16:31:13.315,-290.0,-270.0,644.0,-128.0,160.0,45.0,103,61,55,73,60,504,478,475
2025-02-20 16:31:13.335,-292.0,-228.0,563.0,-137.0,168.0,56.0,104,61,56,75,59,479,468,467
2025-02-20 16:31:13.353,-272.0,-166.0,453.0,-137.0,186.0,54.0,106,61,56,75,59,458,451,454
2025-02-20 16:31:13.372,-405.0,-290.0,283.0,-99.0,171.0,48.0,105,61,56,75,59,421,391,457
2025-02-20 16:31:13.390,-341.0,-309.0,223.0,-49.0,147.0,52.0,106,61,56,76,60,404,394,462
2025-02-20 16:31:13.409,-278.0,-272.0,223.0,-36.0,148.0,65.0,106,61,56,75,59,468,450,468
2025-02-20 16:31:13.429,-316.0,-184.0,128.0,-34.0,142.0,83.0,106,62,57,75,60,486,503,475
2025-02-20 16:31:13.447,-396.0,-142.0,-114.0,-25.0,128.0,98.0,106,61,57,75,60,493,523,479
2025-02-20 16:31:13.467,-655.0,124.0,-491.0,-1.0,54.0,122.0,106,61,58,75,60,486,498,477
2025-02-20 16:31:13.487,-811.0,474.0,-1303.0,73.0,-38.0,67.0,103,61,56,74,59,465,448,463
2025-02-20 16:31:13.500,-1548.0,1248.0,-2562.0,230.0,-228.0,-161.0,99,60,55,73,56,454,424,458
2025-02-20 16:31:13.524,-1027.0,1298.0,-2660.0,301.0,-581.0,-317.0,99,58,55,73,57,451,399,461
2025-02-20 16:31:13.544,874.0,8.0,-1349.0,288.0,-852.0,-273.0,101,61,56,74,58,438,389,463
2025-02-20 16:31:13.561,3633.0,-1546.0,2639.0,331.0,-743.0,-6.0,108,61,56,75,60,414,377,477
2025-02-20 16:31:13.582,2999.0,-551.0,4904.0,252.0,-287.0,76.0,111,61,58,76,62,453,438,476
2025-02-20 16:31:13.598,1668.0,-306.0,4867.0,160.0,52.0,-19.0,112,61,57,76,61,466,509,473
2025-02-20 16:31:13.616,836.0,-12.0,3553.0,-90.0,184.0,8.0,114,62,58,79,60,434,536,472
2025-02-20 16:31:13.639,288.0,-398.0,1921.0,-234.0,190.0,6.0,119,62,59,80,61,468,536,461
2025-02-20 16:31:13.655,41.0,-1062.0,1341.0,-206.0,171.0,39.0,122,64,60,79,63,385,502,440
2025-02-20 16:31:13.676,48.0,-1113.0,1112.0,-101.0,182.0,69.0,123,63,59,78,63,437,436,441
2025-02-20 16:31:13.696,-35.0,-553.0,1080.0,-45.0,219.0,76.0,126,67,61,79,65,506,479,477
2025-02-20 16:31:13.712,-164.0,-223.0,935.0,-82.0,228.0,69.0,129,62,61,81,66,513,527,488
2025-02-20 16:31:13.733,-255.0,-272.0,778.0,-118.0,218.0,72.0,131,66,64,84,67,501,558,489
2025-02-20 16:31:13.753,-216.0,-322.0,656.0,-142.0,214.0,92.0,132,67,67,87,70,461,525,481
2025-02-20 16:31:13.770,-135.0,-361.0,548.0,-128.0,230.0,126.0,133,70,68,89,71,411,472,467
2025-02-20 16:31:13.790,-92.0,-291.0,350.0,-92.0,267.0,150.0,134,74,72,91,73,430,427,466
2025-02-20 16:31:13.808,-275.0,-202.0,104.0,-47.0,267.0,156.0,134,80,71,91,74,442,376,461
2025-02-20 16:31:13.827,-472.0,-46.0,30.0,1.0,237.0,157.0,134,85,70,91,74,439,370,449
2025-02-20 16:31:13.847,-536.0,171.0,-128.0,19.0,212.0,158.0,133,90,69,89,73,459,438,476
2025-02-20 16:31:13.867,-736.0,452.0,-728.0,32.0,148.0,118.0,134,92,67,86,72,474,470,478
2025-02-20 16:31:13.882,-1455.0,797.0,-1684.0,161.0,-44.0,-16.0,134,93,64,83,68,489,484,459
2025-02-20 16:31:13.905,-2020.0,1170.0,-2524.0,270.0,-344.0,-243.0,131,97,60,78,60,497,471,454
2025-02-20 16:31:13.922,-692.0,1202.0,-2677.0,264.0,-809.0,-329.0,121,102,60,75,58,506,451,442
2025-02-20 16:31:13.942,2345.0,284.0,-1995.0,274.0,-1097.0,-230.0,111,105,58,74,57,451,433,440
2025-02-20 16:31:13.962,4372.0,-379.0,-184.0,379.0,-1145.0,-135.0,112,108,56,74,60,443,427,450
2025-02-20 16:31:13.979,3864.0,101.0,2001.0,476.0,-952.0,-87.0,121,112,54,77,64,492,443,453
2025-02-20 16:31:13.999,3608.0,531.0,3759.0,432.0,-582.0,14.0,127,116,56,79,66,519,452,449
2025-02-20 16:31:14.019,2283.0,1321.0,4537.0,82.0,-108.0,1.0,129,117,56,80,67,523,460,455
2025-02-20 16:31:14.033,1898.0,561.0,3210.0,-130.0,243.0,18.0,126,118,56,78,63,529,493,452
2025-02-20 16:31:14.056,1311.0,465.0,1527.0,-212.0,379.0,6.0,121,118,56,78,61,484,509,455
2025-02-20 16:31:14.074,868.0,9.0,598.0,-140.0,343.0,-14.0,113,116,56,78,61,480,498,431
2025-02-20 16:31:14.094,587.0,-189.0,582.0,-73.0,258.0,-21.0,108,116,57,79,62,448,463,432
2025-02-20 16:31:14.113,387.0,-83.0,911.0,-65.0,218.0,0.0,111,117,57,80,63,422,489,458
2025-02-20 16:31:14.130,390.0,15.0,1192.0,-113.0,231.0,19.0,114,117,58,81,64,447,508,486
2025-02-20 16:31:14.150,336.0,-53.0,1002.0,-162.0,284.0,52.0,115,117,57,82,65,459,548,493
2025-02-20 16:31:14.171,190.0,-271.0,764.0,-118.0,281.0,94.0,111,116,57,83,65,439,502,491
2025-02-20 16:31:14.188,149.0,-9.0,811.0,-98.0,281.0,89.0,111,118,58,82,65,401,469,476
2025-02-20 16:31:14.208,87.0,147.0,757.0,-131.0,312.0,71.0,114,118,57,84,66,421,418,469
2025-02-20 16:31:14.228,-107.0,45.0,612.0,-120.0,311.0,43.0,116,119,59,84,66,432,399,472
2025-02-20 16:31:14.245,-149.0,-130.0,397.0,-57.0,295.0,18.0,114,119,58,84,66,416,412,467
2025-02-20 16:31:14.265,-268.0,-141.0,221.0,-25.0,251.0,26.0,110,119,58,83,65,406,466,470
2025-02-20 16:31:14.282,-416.0,-61.0,138.0,-26.0,188.0,44.0,111,119,58,83,65,455,516,474
2025-02-20 16:31:14.303,-463.0,78.0,-5.0,-64.0,150.0,64.0,111,119,58,84,64,499,514,477
2025-02-20 16:31:14.322,-962.0,356.0,-595.0,-66.0,47.0,22.0,108,118,58,83,62,509,480,474
2025-02-20 16:31:14.340,-1589.0,425.0,-1741.0,59.0,-205.0,-124.0,101,115,57,80,59,489,418,467
2025-02-20 16:31:14.359,-1038.0,461.0,-2191.0,203.0,-587.0,-204.0,95,117,57,77,57,477,392,464
2025-02-20 16:31:14.380,741.0,433.0,-2228.0,291.0,-888.0,-159.0,94,116,55,77,59,464,424,469
2025-02-20 16:31:14.397,2309.0,104.0,-400.0,301.0,-990.0,-109.0,100,117,58,78,59,456,432,460
2025-02-20 16:31:14.417,3026.0,-577.0,1795.0,312.0,-790.0,-9.0,112,119,58,77,61,521,435,458
2025-02-20 16:31:14.437,3229.0,496.0,3682.0,274.0,-444.0,54.0,121,119,58,79,65,539,438,459
2025-02-20 16:31:14.454,2674.0,897.0,4327.0,84.0,-12.0,32.0,125,120,60,79,67,526,484,457
2025-02-20 16:31:14.474,2121.0,482.0,3220.0,-154.0,289.0,28.0,126,118,61,79,67,469,494,457
2025-02-20 16:31:14.494,1556.0,14.0,1979.0,-251.0,450.0,46.0,128,118,60,82,68,438,507,453
2025-02-20 16:31:14.512,1234.0,-343.0,1282.0,-260.0,486.0,94.0,130,117,61,83,69,369,496,448
2025-02-20 16:31:14.531,902.0,-265.0,984.0,-234.0,483.0,148.0,132,116,60,84,71,375,451,451
2025-02-20 16:31:14.549,612.0,-94.0,968.0,-233.0,448.0,169.0,131,116,60,84,72,406,485,464
2025-02-20 16:31:14.566,462.0,-1.0,901.0,-253.0,432.0,175.0,132,116,61,84,71,481,495,485
2025-02-20 16:31:14.589,244.0,156.0,584.0,-261.0,415.0,152.0,132,116,61,86,73,507,524,486
2025-02-20 16:31:14.606,1.0,-108.0,502.0,-215.0,388.0,132.0,133,115,66,90,78,496,519,481
2025-02-20 16:31:14.626,-74.0,-350.0,128.0,-110.0,373.0,158.0,133,113,73,96,86,402,503,473
2025-02-20 16:31:14.646,-405.0,-174.0,76.0,24.0,315.0,169.0,133,113,80,106,95,410,479,477
2025-02-20 16:31:14.663,-424.0,54.0,-93.0,41.0,252.0,126.0,133,111,84,111,99,399,462,481
2025-02-20 16:31:14.683,-467.0,247.0,-125.0,82.0,223.0,72.0,131,112,87,116,103,400,469,502
2025-02-20 16:31:14.702,-702.0,558.0,-521.0,75.0,173.0,27.0,128,111,89,119,104,431,473,502
2025-02-20 16:31:14.720,-1166.0,852.0,-1211.0,85.0,4.0,-54.0,126,112,88,121,108,483,452,483
2025-02-20 16:31:14.741,-1359.0,1106.0,-1907.0,71.0,-193.0,-183.0,126,113,91,121,113,518,443,468
2025-02-20 16:31:14.761,-1199.0,1366.0,-1862.0,16.0,-432.0,-402.0,126,115,94,122,120,523,451,462
2025-02-20 16:31:14.778,-389.0,1127.0,-1365.0,-50.0,-631.0,-585.0,129,118,95,123,125,507,439,465
2025-02-20 16:31:14.798,1305.0,900.0,-980.0,-121.0,-828.0,-619.0,129,120,97,127,127,436,418,467
2025-02-20 16:31:14.815,3410.0,-790.0,120.0,-465.0,-1089.0,-463.0,127,127,100,130,128,415,411,466
2025-02-20 16:31:14.835,3577.0,-2628.0,1349.0,-401.0,-692.0,-237.0,124,127,101,130,129,494,437,455
2025-02-20 16:31:14.855,3835.0,-4292.0,1149.0,-207.0,-174.0,77.0,124,129,103,132,130,546,492,448
2025-02-20 16:31:14.870,2731.0,-3129.0,934.0,44.0,97.0,154.0,128,129,103,131,129,535,525,450
2025-02-20 16:31:14.892,1212.0,-1768.0,877.0,144.0,238.0,130.0,130,126,103,131,130,502,532,450
2025-02-20 16:31:14.912,332.0,-1016.0,605.0,61.0,201.0,151.0,130,124,102,132,130,441,536,451
2025-02-20 16:31:14.929,144.0,-902.0,424.0,-2.0,132.0,192.0,130,122,102,130,130,474,478,443
2025-02-20 16:31:14.949,185.0,-999.0,533.0,-11.0,86.0,197.0,132,124,102,131,131,453,394,473
2025-02-20 16:31:14.970,442.0,-1057.0,482.0,1.0,108.0,172.0,129,126,102,132,130,485,429,483
2025-02-20 16:31:14.985,385.0,-1170.0,568.0,29.0,151.0,151.0,129,125,102,129,131,487,513,483
2025-02-20 16:31:15.003,252.0,-998.0,421.0,51.0,193.0,158.0,127,128,103,132,133,502,534,485
2025-02-20 16:31:15.023,126.0,-604.0,373.0,33.0,194.0,181.0,127,129,105,133,132,505,482,475
2025-02-20 16:31:15.044,-62.0,-468.0,477.0,10.0,203.0,196.0,128,129,105,133,133,519,442,475
2025-02-20 16:31:15.064,-153.0,-324.0,478.0,9.0,192.0,210.0,129,128,105,134,132,494,418,469
2025-02-20 16:31:15.081,-229.0,-298.0,382.0,-9.0,185.0,211.0,129,128,105,132,132,477,394,475
2025-02-20 16:31:15.101,-256.0,-257.0,304.0,31.0,174.0,208.0,129,126,104,132,133,556,394,472
2025-02-20 16:31:15.121,-375.0,54.0,247.0,34.0,152.0,187.0,131,124,105,133,132,536,465,476
2025-02-20 16:31:15.138,-497.0,346.0,160.0,44.0,157.0,161.0,130,122,104,133,133,510,545,483
2025-02-20 16:31:15.156,-709.0,750.0,-183.0,87.0,127.0,103.0,130,121,106,133,132,511,521,485
2025-02-20 16:31:15.178,-1072.0,972.0,-800.0,121.0,29.0,-14.0,130,121,104,132,133,459,479,486
2025-02-20 16:31:15.196,-1397.0,1470.0,-1080.0,178.0,-104.0,-273.0,130,122,104,132,134,413,451,477
2025-02-20 16:31:15.216,-1054.0,1374.0,-1130.0,170.0,-293.0,-509.0,131,124,104,133,135,391,455,471
2025-02-20 16:31:15.236,-71.0,990.0,-690.0,71.0,-516.0,-637.0,127,126,105,132,135,392,426,466
2025-02-20 16:31:15.253,2185.0,-69.0,74.0,-156.0,-783.0,-542.0,126,126,106,134,135,375,427,464
2025-02-20 16:31:15.273,2918.0,-1247.0,1679.0,-323.0,-661.0,-327.0,127,129,106,135,136,375,429,463
2025-02-20 16:31:15.293,3237.0,-3784.0,1212.0,-241.0,-358.0,-85.0,128,129,107,135,136,443,465,462
2025-02-20 16:31:15.310,2824.0,-3723.0,1252.0,16.0,39.0,60.0,130,130,108,136,136,532,494,459
2025-02-20 16:31:15.330,1712.0,-2489.0,965.0,140.0,213.0,94.0,131,127,107,134,135,513,486,455
2025-02-20 16:31:15.347,537.0,-1351.0,503.0,123.0,231.0,136.0,132,124,106,135,134,409,498,440
2025-02-20 16:31:15.367,154.0,-944.0,801.0,10.0,174.0,164.0,133,121,105,135,134,430,481,419
2025-02-20 16:31:15.385,-6.0,-864.0,432.0,11.0,136.0,146.0,133,122,105,134,134,412,429,436
2025-02-20 16:31:15.405,66.0,-1006.0,470.0,62.0,129.0,124.0,135,125,106,135,134,473,445,470
2025-02-20 16:31:15.425,253.0,-1096.0,609.0,65.0,148.0,114.0,133,126,106,134,133,492,478,468
2025-02-20 16:31:15.445,357.0,-1057.0,723.0,95.0,210.0,114.0,134,127,105,134,132,536,518,473
2025-02-20 16:31:15.461,204.0,-919.0,710.0,117.0,283.0,132.0,132,127,102,131,126,531,501,472
2025-02-20 16:31:15.481,37.0,-648.0,456.0,115.0,288.0,163.0,135,126,98,126,117,500,458,472
2025-02-20 16:31:15.499,-98.0,-589.0,262.0,88.0,285.0,188.0,133,126,91,120,106,478,469,469
2025-02-20 16:31:15.518,-215.0,-362.0,259.0,84.0,266.0,223.0,134,123,81,114,98,445,452,467
2025-02-20 16:31:15.536,-265.0,-97.0,103.0,86.0,263.0,253.0,135,122,71,109,88,441,425,475
2025-02-20 16:31:15.555,-293.0,-1.0,20.0,150.0,273.0,263.0,135,116,64,102,78,460,430,475
2025-02-20 16:31:15.576,-485.0,299.0,-721.0,201.0,222.0,210.0,135,110,58,92,70,498,428,465
2025-02-20 16:31:15.596,-1239.0,433.0,-1878.0,333.0,61.0,79.0,128,103,52,75,60,496,418,457
2025-02-20 16:31:15.613,-1856.0,1106.0,-2464.0,430.0,-321.0,-115.0,120,102,49,66,55,449,420,455
2025-02-20 16:31:15.633,-686.0,1808.0,-2549.0,336.0,-775.0,-226.0,102,106,49,63,54,392,438,450
2025-02-20 16:31:15.654,2167.0,271.0,-1743.0,213.0,-1052.0,-166.0,92,108,50,62,56,370,440,443
2025-02-20 16:31:15.671,3756.0,-572.0,-156.0,316.0,-1089.0,-51.0,96,111,49,66,59,397,430,425
2025-02-20 16:31:15.688,3367.0,200.0,2664.0,439.0,-816.0,6.0,104,111,48,68,63,440,400,437
2025-02-20 16:31:15.708,2942.0,282.0,4056.0,296.0,-310.0,47.0,109,113,51,70,64,487,436,452
2025-02-20 16:31:15.727,2291.0,1125.0,4354.0,31.0,44.0,2.0,111,114,51,68,63,476,510,452
2025-02-20 16:31:15.748,1688.0,557.0,2884.0,-194.0,329.0,-8.0,107,115,51,70,62,499,515,452
2025-02-20 16:31:15.765,1552.0,-209.0,645.0,-222.0,390.0,0.0,101,112,51,69,63,463,513,454
2025-02-20 16:31:15.784,691.0,-372.0,811.0,-132.0,317.0,21.0,99,110,50,70,62,420,497,457
2025-02-20 16:31:15.805,394.0,-343.0,991.0,-80.0,241.0,33.0,102,113,51,71,64,464,447,464
2025-02-20 16:31:15.821,309.0,-21.0,1128.0,-133.0,240.0,40.0,103,114,52,72,65,444,466,460
2025-02-20 16:31:15.842,222.0,-111.0,978.0,-160.0,234.0,56.0,103,114,52,72,66,470,499,482
2025-02-20 16:31:15.863,118.0,-264.0,851.0,-121.0,209.0,66.0,102,115,52,73,65,471,524,498
2025-02-20 16:31:15.879,73.0,-157.0,888.0,-94.0,212.0,74.0,103,115,52,73,65,453,494,482
2025-02-20 16:31:15.900,36.0,-8.0,881.0,-114.0,249.0,65.0,103,116,53,74,66,396,441,464
2025-02-20 16:31:15.917,-88.0,35.0,593.0,-132.0,261.0,43.0,104,114,53,74,67,360,431,446
2025-02-20 16:31:15.936,-239.0,-269.0,425.0,-74.0,229.0,35.0,104,115,53,73,67,342,412,461
2025-02-20 16:31:15.957,-146.0,-314.0,402.0,-30.0,205.0,52.0,102,115,54,74,68,364,435,455
2025-02-20 16:31:15.974,-153.0,-110.0,430.0,-32.0,205.0,76.0,103,116,53,75,67,440,502,442
2025-02-20 16:31:15.994,-299.0,73.0,235.0,-81.0,200.0,95.0,104,116,53,75,68,503,523,455
2025-02-20 16:31:16.014,-656.0,362.0,-248.0,-107.0,143.0,90.0,105,115,54,74,67,503,504,468
2025-02-20 16:31:16.031,-1348.0,723.0,-1525.0,-32.0,-22.0,-75.0,99,114,53,72,65,490,468,463
2025-02-20 16:31:16.051,-1804.0,811.0,-2208.0,163.0,-316.0,-277.0,96,115,52,71,61,472,450,458
2025-02-20 16:31:16.062,-549.0,675.0,-2226.0,212.0,-716.0,-288.0,93,116,53,71,60,432,425,457
2025-02-20 16:31:16.087,1664.0,-89.0,-982.0,201.0,-948.0,-164.0,95,116,53,72,61,405,372,453
2025-02-20 16:31:16.107,2956.0,-1262.0,1648.0,212.0,-813.0,-37.0,110,118,53,73,65,386,376,458
2025-02-20 16:31:16.125,3141.0,-770.0,3952.0,194.0,-383.0,81.0,114,118,56,76,67,412,434,454
2025-02-20 16:31:16.146,2619.0,-191.0,4275.0,37.0,51.0,56.0,117,118,59,76,67,416,494,451
2025-02-20 16:31:16.166,1646.0,-258.0,2891.0,-163.0,292.0,42.0,121,117,59,78,67,396,474,452
2025-02-20 16:31:16.183,1207.0,-674.0,1915.0,-218.0,409.0,92.0,124,117,60,79,66,347,485,449
2025-02-20 16:31:16.203,772.0,-693.0,1254.0,-207.0,420.0,128.0,125,115,60,81,68,392,485,441
2025-02-20 16:31:16.223,494.0,-556.0,1073.0,-203.0,394.0,136.0,125,113,60,82,70,435,450,437
2025-02-20 16:31:16.240,341.0,-417.0,908.0,-214.0,370.0,149.0,129,114,61,84,71,481,458,446
2025-02-20 16:31:16.260,193.0,-444.0,538.0,-214.0,343.0,160.0,130,115,65,84,72,499,493,482
2025-02-20 16:31:16.280,-30.0,-633.0,427.0,-182.0,320.0,167.0,131,116,70,85,73,497,518,492
2025-02-20 16:31:16.297,-122.0,-550.0,417.0,-98.0,320.0,202.0,131,115,77,86,73,487,517,494
2025-02-20 16:31:16.317,-210.0,-197.0,338.0,-69.0,324.0,227.0,133,114,80,87,72,387,491,492
2025-02-20 16:31:16.335,-363.0,-16.0,130.0,-48.0,319.0,214.0,132,115,84,87,72,403,479,475
2025-02-20 16:31:16.354,-433.0,169.0,-193.0,36.0,310.0,178.0,132,117,85,88,73,430,428,464
2025-02-20 16:31:16.374,-676.0,455.0,-438.0,87.0,255.0,117.0,132,116,90,89,74,441,436,457
2025-02-20 16:31:16.392,-849.0,923.0,-910.0,91.0,167.0,56.0,133,118,92,87,75,484,463,437
2025-02-20 16:31:16.412,-921.0,1247.0,-1332.0,91.0,12.0,-63.0,134,118,95,84,75,535,456,441
2025-02-20 16:31:16.432,-1071.0,1232.0,-1427.0,90.0,-141.0,-199.0,135,122,97,84,73,565,464,457
2025-02-20 16:31:16.449,-1209.0,1257.0,-1697.0,120.0,-352.0,-393.0,133,123,98,81,68,586,466,458
2025-02-20 16:31:16.469,-767.0,1314.0,-1611.0,111.0,-671.0,-542.0,130,123,100,85,69,530,474,474
2025-02-20 16:31:16.489,1176.0,1475.0,-1184.0,-53.0,-947.0,-586.0,126,125,101,87,72,465,465,474
2025-02-20 16:31:16.506,3623.0,-631.0,-285.0,-259.0,-1058.0,-521.0,125,128,103,92,74,436,437,463
2025-02-20 16:31:16.526,3319.0,-3428.0,2339.0,-204.0,-654.0,-250.0,128,130,104,93,74,359,448,468
2025-02-20 16:31:16.546,3606.0,-3676.0,2242.0,-32.0,-166.0,31.0,128,130,105,93,73,418,482,457
2025-02-20 16:31:16.564,2375.0,-2480.0,1945.0,172.0,211.0,51.0,128,129,104,95,69,445,488,455
2025-02-20 16:31:16.584,966.0,-1487.0,1259.0,151.0,293.0,53.0,127,128,104,94,64,469,480,451
2025-02-20 16:31:16.600,359.0,-1013.0,793.0,11.0,221.0,88.0,128,127,105,94,63,382,456,453
2025-02-20 16:31:16.621,204.0,-1094.0,585.0,-66.0,135.0,125.0,125,127,104,93,66,428,460,448
2025-02-20 16:31:16.640,196.0,-1096.0,636.0,-56.0,72.0,132.0,125,128,105,91,71,449,421,477
2025-02-20 16:31:16.658,199.0,-1001.0,760.0,-15.0,72.0,117.0,125,130,105,91,73,481,412,482
2025-02-20 16:31:16.678,169.0,-885.0,876.0,16.0,124.0,101.0,124,129,105,86,75,541,475,476
2025-02-20 16:31:16.698,75.0,-771.0,836.0,17.0,165.0,108.0,125,131,107,88,76,577,493,497
2025-02-20 16:31:16.715,38.0,-499.0,607.0,4.0,176.0,127.0,125,131,107,86,75,560,469,489
2025-02-20 16:31:16.735,-64.0,-483.0,593.0,-36.0,180.0,144.0,125,131,107,87,75,507,473,480
2025-02-20 16:31:16.756,-150.0,-420.0,489.0,-53.0,176.0,160.0,125,131,108,85,72,466,456,477
2025-02-20 16:31:16.773,-197.0,-272.0,436.0,-58.0,168.0,164.0,126,131,108,85,70,479,448,472
2025-02-20 16:31:16.791,-131.0,-231.0,420.0,-49.0,175.0,156.0,126,130,107,85,71,489,417,472
2025-02-20 16:31:16.810,-99.0,-358.0,444.0,-36.0,215.0,166.0,127,131,108,85,71,550,466,466
2025-02-20 16:31:16.830,-406.0,-317.0,177.0,23.0,219.0,191.0,128,130,106,84,71,552,508,476
2025-02-20 16:31:16.850,-571.0,23.0,-108.0,64.0,180.0,194.0,127,128,107,83,71,530,533,485
2025-02-20 16:31:16.867,-742.0,503.0,-438.0,82.0,117.0,158.0,128,129,106,82,66,511,513,484
2025-02-20 16:31:16.887,-1351.0,1090.0,-1189.0,146.0,-11.0,13.0,128,129,107,79,71,465,497,473
2025-02-20 16:31:16.907,-1734.0,1536.0,-1353.0,198.0,-244.0,-277.0,126,129,108,80,70,450,473,464
2025-02-20 16:31:16.924,-1278.0,1662.0,-1143.0,110.0,-520.0,-508.0,122,129,107,82,71,415,434,464
2025-02-20 16:31:16.944,357.0,852.0,-849.0,-37.0,-818.0,-561.0,120,129,106,86,75,339,398,471
2025-02-20 16:31:16.964,3442.0,-559.0,-360.0,-121.0,-966.0,-475.0,122,130,106,93,79,344,396,485
2025-02-20 16:31:16.981,3673.0,-3819.0,2888.0,11.0,-514.0,-191.0,126,131,106,97,80,424,447,460
2025-02-20 16:31:17.002,3298.0,-2963.0,2778.0,166.0,88.0,56.0,127,131,106,97,80,506,441,460
2025-02-20 16:31:17.022,1763.0,-1606.0,2126.0,181.0,289.0,101.0,126,130,104,96,73,479,469,461
2025-02-20 16:31:17.039,530.0,-796.0,1544.0,78.0,293.0,96.0,126,127,102,98,70,453,498,457
2025-02-20 16:31:17.059,282.0,-701.0,938.0,-22.0,231.0,70.0,130,126,100,102,71,448,500,444
2025-02-20 16:31:17.075,63.0,-928.0,984.0,-38.0,206.0,72.0,132,125,93,103,74,410,456,430
2025-02-20 16:31:17.096,113.0,-1060.0,963.0,-31.0,223.0,96.0,133,126,88,102,78,442,417,436
2025-02-20 16:31:17.116,147.0,-1035.0,899.0,1.0,244.0,136.0,135,125,78,100,80,457,470,458
2025-02-20 16:31:17.130,118.0,-784.0,924.0,26.0,267.0,163.0,136,125,70,98,81,539,526,482
2025-02-20 16:31:17.153,27.0,-626.0,718.0,52.0,280.0,159.0,138,127,65,96,81,529,513,486
2025-02-20 16:31:17.173,-154.0,-348.0,674.0,49.0,293.0,144.0,136,122,60,94,79,444,464,480
2025-02-20 16:31:17.190,-256.0,-192.0,506.0,36.0,294.0,141.0,137,120,59,92,75,423,472,470
2025-02-20 16:31:17.210,-331.0,-73.0,343.0,15.0,284.0,158.0,136,118,56,89,73,442,484,453
2025-02-20 16:31:17.227,-522.0,-28.0,131.0,0.0,232.0,158.0,136,115,55,85,70,415,474,459
2025-02-20 16:31:17.247,-506.0,49.0,-125.0,14.0,174.0,127.0,134,112,55,82,68,413,455,468
2025-02-20 16:31:17.268,-504.0,194.0,-360.0,59.0,123.0,70.0,132,114,56,80,69,467,443,472
2025-02-20 16:31:17.285,-818.0,608.0,-1074.0,93.0,24.0,-17.0,124,109,54,79,68,538,444,480
2025-02-20 16:31:17.305,-1615.0,536.0,-1986.0,172.0,-257.0,-164.0,111,105,52,74,64,602,436,461
2025-02-20 16:31:17.325,-1133.0,493.0,-2376.0,296.0,-614.0,-232.0,101,103,51,73,62,578,456,463
2025-02-20 16:31:17.342,944.0,415.0,-1585.0,289.0,-860.0,-135.0,96,105,53,77,64,520,445,469
2025-02-20 16:31:17.362,2173.0,-40.0,-504.0,304.0,-949.0,-84.0,96,108,51,76,67,481,422,469
2025-02-20 16:31:17.382,2909.0,110.0,1063.0,359.0,-904.0,-57.0,101,111,50,76,69,439,407,473
2025-02-20 16:31:17.396,3000.0,-117.0,2921.0,374.0,-614.0,44.0,109,113,50,78,71,463,432,464
2025-02-20 16:31:17.419,2682.0,445.0,3937.0,232.0,-264.0,89.0,121,114,53,79,74,470,471,455
2025-02-20 16:31:17.440,1833.0,980.0,3880.0,-14.0,52.0,37.0,121,115,53,80,74,468,489,451
2025-02-20 16:31:17.457,1494.0,487.0,2635.0,-199.0,319.0,14.0,121,115,54,81,74,470,494,449
2025-02-20 16:31:17.477,1158.0,120.0,1397.0,-211.0,394.0,-8.0,118,111,53,81,74,462,498,454
2025-02-20 16:31:17.494,733.0,-150.0,871.0,-139.0,368.0,-12.0,118,112,54,82,74,469,475,454
2025-02-20 16:31:17.514,479.0,-222.0,790.0,-104.0,319.0,-2.0,118,114,53,82,74,443,454,454
2025-02-20 16:31:17.534,234.0,-193.0,837.0,-106.0,267.0,35.0,116,115,53,82,74,460,471,469
2025-02-20 16:31:17.551,125.0,-107.0,787.0,-131.0,229.0,55.0,114,115,53,81,73,461,485,481
2025-02-20 16:31:17.571,49.0,-152.0,772.0,-139.0,202.0,51.0,114,115,51,83,73,447,493,475
2025-02-20 16:31:17.591,6.0,-275.0,846.0,-120.0,214.0,59.0,116,118,53,83,74,437,499,473
2025-02-20 16:31:17.608,-75.0,-192.0,666.0,-85.0,221.0,50.0,117,117,54,83,74,447,485,463
2025-02-20 16:31:17.629,-158.0,-221.0,608.0,-47.0,208.0,36.0,117,119,55,83,74,409,476,461
2025-02-20 16:31:17.649,-170.0,-125.0,552.0,-40.0,193.0,37.0,117,117,56,83,73,390,467,456
2025-02-20 16:31:17.666,-159.0,-119.0,557.0,-62.0,200.0,51.0,117,119,54,84,74,421,467,473
2025-02-20 16:31:17.686,-247.0,-173.0,394.0,-86.0,195.0,73.0,118,121,55,83,74,425,490,496
2025-02-20 16:31:17.703,-351.0,-197.0,172.0,-64.0,167.0,100.0,118,118,55,83,73,503,490,479
2025-02-20 16:31:17.723,-528.0,189.0,-140.0,-18.0,111.0,69.0,117,119,56,83,72,529,489,476
2025-02-20 16:31:17.743,-1012.0,853.0,-985.0,24.0,-12.0,-69.0,118,118,55,82,71,537,472,469
2025-02-20 16:31:17.760,-1553.0,909.0,-1711.0,73.0,-287.0,-217.0,116,119,54,81,69,541,461,454
2025-02-20 16:31:17.780,-893.0,584.0,-1727.0,143.0,-574.0,-296.0,116,120,53,81,68,510,468,460
2025-02-20 16:31:17.800,848.0,-228.0,-832.0,161.0,-760.0,-177.0,120,122,56,80,70,485,470,466
2025-02-20 16:31:17.815,1852.0,-673.0,601.0,217.0,-750.0,-71.0,127,124,56,81,72,457,424,474
2025-02-20 16:31:17.837,2628.0,-427.0,1602.0,250.0,-674.0,-7.0,133,124,56,83,76,461,406,476
2025-02-20 16:31:17.858,2775.0,-703.0,3273.0,223.0,-391.0,65.0,138,126,60,88,81,453,416,472
2025-02-20 16:31:17.874,2580.0,-583.0,3556.0,141.0,-61.0,150.0,142,126,70,92,83,439,442,470
2025-02-20 16:31:17.895,1894.0,-321.0,3086.0,-7.0,185.0,164.0,143,128,79,97,85,449,498,456
2025-02-20 16:31:17.915,1196.0,-362.0,1941.0,-98.0,303.0,176.0,143,126,79,101,88,447,493,441
2025-02-20 16:31:17.930,840.0,-150.0,1627.0,-139.0,347.0,170.0,143,121,78,105,92,477,478,434
2025-02-20 16:31:17.952,675.0,-155.0,1509.0,-184.0,369.0,147.0,144,115,76,108,97,503,475,439
2025-02-20 16:31:17.969,646.0,-195.0,1305.0,-172.0,405.0,128.0,144,103,73,108,94,526,480,450
2025-02-20 16:31:17.989,531.0,-262.0,995.0,-186.0,435.0,154.0,144,88,72,108,94,535,471,480
2025-02-20 16:31:18.009,326.0,-268.0,816.0,-190.0,462.0,197.0,144,75,70,107,91,506,487,491
2025-02-20 16:31:18.026,162.0,-149.0,558.0,-205.0,459.0,213.0,144,66,67,106,89,472,489,489
2025-02-20 16:31:18.045,-81.0,-85.0,313.0,-212.0,421.0,211.0,145,61,65,102,84,401,476,487
2025-02-20 16:31:18.067,-352.0,-131.0,207.0,-162.0,368.0,192.0,144,59,62,97,79,388,485,478
2025-02-20 16:31:18.084,-410.0,84.0,-42.0,-64.0,320.0,144.0,144,56,60,93,76,432,474,484
2025-02-20 16:31:18.103,-696.0,318.0,-146.0,-31.0,267.0,78.0,144,55,57,88,71,464,475,482
2025-02-20 16:31:18.120,-652.0,722.0,-368.0,-45.0,177.0,33.0,143,55,56,82,69,478,479,472
2025-02-20 16:31:18.141,-795.0,1166.0,-614.0,-60.0,79.0,-13.0,143,57,54,78,68,533,468,464
2025-02-20 16:31:18.161,-718.0,1604.0,-791.0,-10.0,8.0,-124.0,139,56,53,75,66,549,450,467
2025-02-20 16:31:18.181,-1025.0,2171.0,-1320.0,67.0,-100.0,-329.0,138,56,53,75,63,549,449,477
2025-02-20 16:31:18.197,-628.0,2436.0,-1909.0,70.0,-294.0,-623.0,136,53,52,76,59,509,450,481
2025-02-20 16:31:18.216,-152.0,1460.0,-2096.0,5.0,-537.0,-797.0,133,51,49,74,59,463,450,468
2025-02-20 16:31:18.235,1963.0,27.0,-2076.0,2.0,-943.0,-739.0,132,52,48,74,62,424,461,468
2025-02-20 16:31:18.255,5264.0,-2487.0,405.0,-14.0,-931.0,-421.0,132,52,50,76,66,404,454,469
2025-02-20 16:31:18.276,5068.0,-5269.0,3562.0,81.0,-242.0,-26.0,134,54,50,77,65,397,468,454
2025-02-20 16:31:18.292,2428.0,-2881.0,2457.0,164.0,206.0,-35.0,133,54,50,70,60,379,493,442
2025-02-20 16:31:18.313,1201.0,-2376.0,1437.0,95.0,291.0,44.0,133,55,50,69,55,407,519,453
2025-02-20 16:31:18.331,489.0,-1255.0,868.0,-91.0,255.0,143.0,131,54,50,70,55,366,527,442
2025-02-20 16:31:18.348,369.0,-1544.0,614.0,-207.0,181.0,198.0,133,54,50,77,57,432,496,447
2025-02-20 16:31:18.370,446.0,-1559.0,641.0,-184.0,181.0,253.0,131,56,52,80,61,413,424,460
2025-02-20 16:31:18.386,319.0,-1333.0,539.0,-81.0,213.0,268.0,132,57,53,82,63,478,398,464
2025-02-20 16:31:18.407,139.0,-955.0,359.0,-16.0,223.0,256.0,134,56,53,81,65,526,486,467
2025-02-20 16:31:18.427,-89.0,-540.0,174.0,-32.0,205.0,246.0,133,58,54,83,66,573,528,487
2025-02-20 16:31:18.444,-415.0,-339.0,83.0,-52.0,146.0,234.0,133,59,55,82,68,587,488,488
2025-02-20 16:31:18.463,-259.0,-417.0,201.0,-43.0,105.0,232.0,134,59,55,75,68,547,473,480
2025-02-20 16:31:18.485,-322.0,-297.0,242.0,-25.0,118.0,224.0,134,59,55,76,68,455,469,479
2025-02-20 16:31:18.501,-389.0,-92.0,43.0,2.0,118.0,185.0,134,58,55,75,67,425,420,476
2025-02-20 16:31:18.521,-518.0,-67.0,-95.0,44.0,86.0,139.0,134,59,55,75,69,486,394,470
2025-02-20 16:31:18.541,-694.0,129.0,-136.0,63.0,36.0,114.0,135,60,57,75,70,569,449,465
2025-02-20 16:31:18.558,-730.0,669.0,-140.0,54.0,-32.0,110.0,136,61,58,76,71,536,482,490
2025-02-20 16:31:18.578,-704.0,1249.0,-163.0,104.0,-64.0,17.0,136,60,57,76,73,522,505,488
2025-02-20 16:31:18.595,-807.0,1943.0,-565.0,185.0,-50.0,-211.0,135,60,58,77,73,493,522,480
2025-02-20 16:31:18.616,-1331.0,2084.0,-1186.0,200.0,-173.0,-415.0,135,59,56,75,69,469,500,472
2025-02-20 16:31:18.633,-661.0,1492.0,-1445.0,194.0,-424.0,-613.0,132,56,54,78,66,453,450,474
2025-02-20 16:31:18.653,1358.0,-8.0,-888.0,161.0,-700.0,-585.0,132,56,52,81,68,458,421,472
2025-02-20 16:31:18.673,3280.0,-2187.0,1193.0,289.0,-724.0,-386.0,136,58,54,84,70,420,414,463
2025-02-20 16:31:18.693,3442.0,-2713.0,3198.0,414.0,-292.0,-124.0,136,58,55,82,71,421,435,456
2025-02-20 16:31:18.710,2222.0,-877.0,3589.0,274.0,54.0,-89.0,137,56,56,79,68,421,479,450
2025-02-20 16:31:18.730,1175.0,-615.0,2831.0,45.0,218.0,-62.0,137,59,55,78,62,433,543,442
2025-02-20 16:31:18.750,488.0,-896.0,1520.0,-65.0,252.0,-4.0,136,59,55,79,62,445,540,425
2025-02-20 16:31:18.767,103.0,-727.0,811.0,-35.0,200.0,-8.0,136,59,53,80,65,467,494,423
2025-02-20 16:31:18.784,-73.0,-844.0,615.0,61.0,139.0,-35.0,137,60,54,83,69,477,418,445
2025-02-20 16:31:18.807,-133.0,-560.0,613.0,146.0,118.0,-55.0,136,59,54,83,71,508,396,466
2025-02-20 16:31:18.824,-161.0,-331.0,626.0,160.0,78.0,-81.0,136,58,55,85,73,481,455,471
2025-02-20 16:31:18.844,-77.0,-476.0,700.0,182.0,35.0,-86.0,136,60,55,86,75,483,487,471
2025-02-20 16:31:18.862,-44.0,-330.0,799.0,221.0,20.0,-89.0,135,59,56,85,75,471,457,470
2025-02-20 16:31:18.882,-35.0,-132.0,915.0,228.0,24.0,-108.0,138,59,55,82,74,434,451,467
2025-02-20 16:31:18.900,16.0,-94.0,1026.0,202.0,31.0,-109.0,137,59,55,81,74,431,485,469
2025-02-20 16:31:18.919,112.0,-125.0,1094.0,153.0,44.0,-98.0,138,59,55,83,74,466,464,468
2025-02-20 16:31:18.939,150.0,-180.0,1084.0,106.0,51.0,-86.0,138,60,55,81,74,466,418,462
2025-02-20 16:31:18.959,313.0,-545.0,1014.0,98.0,60.0,-64.0,138,60,55,81,74,482,434,468
2025-02-20 16:31:18.976,469.0,-817.0,957.0,106.0,65.0,-23.0,139,60,55,81,74,510,468,470
2025-02-20 16:31:18.996,643.0,-1192.0,882.0,106.0,71.0,71.0,140,59,54,80,74,544,485,465
2025-02-20 16:31:19.014,930.0,-1713.0,810.0,96.0,41.0,225.0,143,60,54,80,72,501,497,457
2025-02-20 16:31:19.034,1362.0,-1695.0,839.0,41.0,18.0,426.0,145,59,53,80,72,471,491,451
2025-02-20 16:31:19.051,1868.0,-1205.0,958.0,-15.0,6.0,631.0,147,59,54,80,69,468,424,458
2025-02-20 16:31:19.071,1714.0,497.0,1597.0,-164.0,-47.0,670.0,148,57,55,80,71,410,421,459
2025-02-20 16:31:19.091,1126.0,1111.0,1797.0,-237.0,-29.0,569.0,149,59,55,78,71,422,430,460
2025-02-20 16:31:19.110,348.0,2293.0,1894.0,-195.0,52.0,395.0,150,60,56,78,73,439,411,458
2025-02-20 16:31:19.127,69.0,2129.0,1036.0,-23.0,101.0,144.0,150,62,56,79,72,447,420,448
2025-02-20 16:31:19.148,-150.0,1989.0,1549.0,128.0,191.0,40.0,149,63,57,79,70,455,443,449
2025-02-20 16:31:19.168,-494.0,2511.0,1223.0,91.0,192.0,-74.0,151,63,57,79,69,472,465,473
2025-02-20 16:31:19.186,-271.0,1662.0,952.0,23.0,166.0,-173.0,151,60,55,77,67,485,467,482
2025-02-20 16:31:19.202,-129.0,788.0,712.0,22.0,148.0,-218.0,151,59,56,77,66,505,474,496
2025-02-20 16:31:19.219,-104.0,306.0,629.0,76.0,118.0,-288.0,150,56,55,78,64,523,484,507
2025-02-20 16:31:19.242,-68.0,-195.0,503.0,136.0,63.0,-263.0,150,59,54,77,64,509,484,491
2025-02-20 16:31:19.262,-194.0,51.0,399.0,133.0,-10.0,-232.0,149,57,54,76,64,493,475,474
2025-02-20 16:31:19.278,-126.0,-135.0,582.0,135.0,-74.0,-254.0,149,58,54,77,66,477,469,464
2025-02-20 16:31:19.300,-5.0,-409.0,791.0,179.0,-60.0,-238.0,149,57,55,77,66,440,466,461
2025-02-20 16:31:19.319,-85.0,-313.0,988.0,164.0,-57.0,-210.0,150,58,55,78,67,446,463,469
2025-02-20 16:31:19.337,-53.0,-98.0,924.0,108.0,-68.0,-196.0,148,58,55,79,68,475,457,473
2025-02-20 16:31:19.357,101.0,-308.0,922.0,79.0,-89.0,-165.0,149,58,54,77,68,452,449,469
2025-02-20 16:31:19.377,232.0,-648.0,993.0,80.0,-98.0,-99.0,149,59,55,79,69,434,429,462
2025-02-20 16:31:19.395,329.0,-651.0,1228.0,85.0,-77.0,-25.0,149,58,55,80,69,409,450,448
2025-02-20 16:31:19.414,352.0,-317.0,1293.0,52.0,-38.0,-3.0,150,59,57,79,70,453,483,441
2025-02-20 16:31:19.434,457.0,-706.0,1225.0,56.0,-15.0,21.0,150,59,55,80,70,502,513,449
2025-02-20 16:31:19.451,746.0,-1234.0,1179.0,83.0,22.0,148.0,150,59,55,79,70,539,506,459
2025-02-20 16:31:19.469,784.0,-1152.0,1223.0,23.0,49.0,320.0,149,58,55,80,69,543,490,470
2025-02-20 16:31:19.492,1299.0,-765.0,1244.0,-109.0,77.0,560.0,149,59,55,79,64,511,488,474
2025-02-20 16:31:19.506,1077.0,628.0,1450.0,-265.0,31.0,614.0,150,58,55,77,66,503,478,475
2025-02-20 16:31:19.528,736.0,1221.0,1470.0,-398.0,31.0,560.0,149,59,55,73,64,486,464,475
2025-02-20 16:31:19.546,99.0,2164.0,1358.0,-445.0,34.0,425.0,149,60,55,74,64,470,453,476
2025-02-20 16:31:19.566,-177.0,2102.0,1636.0,-263.0,49.0,209.0,148,61,55,74,64,444,454,472
2025-02-20 16:31:19.586,-38.0,1500.0,2058.0,-21.0,156.0,51.0,149,61,56,74,66,475,467,472
2025-02-20 16:31:19.603,-179.0,1483.0,2029.0,83.0,221.0,-51.0,149,62,57,75,65,474,494,473
2025-02-20 16:31:19.623,-43.0,748.0,1829.0,-9.0,263.0,-74.0,148,62,56,74,67,459,494,461
2025-02-20 16:31:19.644,82.0,43.0,1638.0,-151.0,289.0,-67.0,148,62,56,74,64,453,468,484
2025-02-20 16:31:19.660,110.0,-637.0,1366.0,-205.0,317.0,-54.0,146,61,57,71,65,448,447,490
2025-02-20 16:31:19.681,-144.0,-760.0,953.0,-219.0,336.0,-35.0,146,61,58,72,66,415,430,479
2025-02-20 16:31:19.700,-456.0,-562.0,591.0,-241.0,323.0,-19.0,146,60,57,74,68,423,432,464
2025-02-20 16:31:19.717,-457.0,-334.0,312.0,-279.0,295.0,-26.0,145,61,58,74,69,418,466,451
2025-02-20 16:31:19.738,-329.0,-801.0,55.0,-177.0,277.0,-9.0,144,63,60,75,71,431,490,458
2025-02-20 16:31:19.755,-302.0,-771.0,-329.0,14.0,276.0,41.0,140,63,62,73,74,465,483,492
2025-02-20 16:31:19.773,-709.0,-374.0,-231.0,104.0,189.0,54.0,138,65,66,83,80,494,468,510
2025-02-20 16:31:19.794,-752.0,-16.0,47.0,115.0,140.0,43.0,136,68,67,93,87,473,474,502
2025-02-20 16:31:19.812,-548.0,-133.0,-250.0,185.0,124.0,34.0,137,75,72,103,93,467,483,503
2025-02-20 16:31:19.832,-553.0,67.0,-91.0,195.0,91.0,20.0,136,79,76,112,99,469,500,489
2025-02-20 16:31:19.852,-644.0,275.0,-333.0,190.0,43.0,-6.0,133,82,79,116,100,478,495,473
2025-02-20 16:31:19.869,-848.0,737.0,-410.0,151.0,-27.0,-60.0,133,88,83,118,100,469,479,456
2025-02-20 16:31:19.888,-983.0,939.0,-848.0,119.0,-128.0,-182.0,133,92,84,117,101,479,462,443
2025-02-20 16:31:19.909,-990.0,1035.0,-1102.0,73.0,-267.0,-326.0,133,94,86,118,109,461,447,427
2025-02-20 16:31:19.927,-930.0,1045.0,-1166.0,83.0,-395.0,-504.0,133,97,90,119,117,492,439,432
2025-02-20 16:31:19.947,-95.0,742.0,-1331.0,64.0,-609.0,-651.0,129,102,93,122,122,510,441,443
2025-02-20 16:31:19.965,1370.0,247.0,-383.0,-135.0,-855.0,-555.0,126,109,95,126,124,485,436,457
2025-02-20 16:31:19.984,3443.0,-1768.0,414.0,-211.0,-925.0,-230.0,130,117,98,127,126,469,438,481
2025-02-20 16:31:20.004,3714.0,-3376.0,1485.0,-306.0,-656.0,-7.0,136,118,101,129,127,465,466,469
2025-02-20 16:31:20.024,3273.0,-3676.0,1808.0,-172.0,-249.0,130.0,140,120,103,130,128,460,500,460
2025-02-20 16:31:20.041,2056.0,-2708.0,1291.0,-49.0,36.0,116.0,139,119,104,131,128,441,505,460
2025-02-20 16:31:20.061,872.0,-1821.0,569.0,22.0,130.0,101.0,140,115,102,130,126,419,504,461
2025-02-20 16:31:20.075,267.0,-1232.0,609.0,8.0,126.0,164.0,141,112,101,131,127,365,489,487
2025-02-20 16:31:20.099,64.0,-932.0,529.0,80.0,111.0,218.0,141,111,101,131,127,384,454,494
2025-02-20 16:31:20.118,144.0,-812.0,618.0,105.0,125.0,224.0,140,110,101,132,127,460,435,501
2025-02-20 16:31:20.135,157.0,-871.0,760.0,159.0,203.0,193.0,143,113,103,131,128,460,438,490
2025-02-20 16:31:20.155,264.0,-906.0,583.0,145.0,240.0,145.0,145,114,102,131,128,454,454,471
2025-02-20 16:31:20.175,82.0,-942.0,477.0,94.0,224.0,153.0,138,116,103,132,129,483,452,454
2025-02-20 16:31:20.193,-8.0,-818.0,598.0,66.0,203.0,175.0,139,117,99,132,129,508,427,458
2025-02-20 16:31:20.213,-102.0,-392.0,464.0,41.0,186.0,164.0,139,117,103,130,130,526,390,455
2025-02-20 16:31:20.230,-65.0,-308.0,396.0,7.0,158.0,172.0,138,117,103,131,130,507,418,452
2025-02-20 16:31:20.250,-254.0,-118.0,432.0,-20.0,157.0,159.0,139,115,102,131,129,485,384,466
2025-02-20 16:31:20.270,-338.0,-3.0,322.0,-47.0,136.0,147.0,138,112,101,131,130,488,440,485
2025-02-20 16:31:20.287,-334.0,47.0,256.0,-34.0,124.0,115.0,138,110,101,132,130,515,536,489
2025-02-20 16:31:20.307,-430.0,241.0,290.0,29.0,125.0,93.0,137,111,102,131,129,526,551,493
2025-02-20 16:31:20.328,-745.0,1041.0,-390.0,62.0,89.0,24.0,136,107,101,131,129,569,519,475
2025-02-20 16:31:20.345,-1388.0,1480.0,-869.0,126.0,-76.0,-190.0,137,108,102,131,130,507,508,462
2025-02-20 16:31:20.365,-1544.0,2367.0,-1508.0,216.0,-259.0,-447.0,138,111,103,132,130,469,505,455
2025-02-20 16:31:20.384,-559.0,1309.0,-1045.0,176.0,-352.0,-554.0,136,114,104,132,132,416,491,459
2025-02-20 16:31:20.401,857.0,395.0,-158.0,-36.0,-722.0,-464.0,133,119,105,133,132,392,456,459
2025-02-20 16:31:20.422,3160.0,-1978.0,96.0,-235.0,-818.0,-249.0,131,123,106,134,132,412,428,462
2025-02-20 16:31:20.442,3287.0,-3931.0,1466.0,-297.0,-534.0,-105.0,133,124,108,134,133,388,445,467
2025-02-20 16:31:20.459,2763.0,-3824.0,1794.0,-6.0,-83.0,31.0,134,123,108,134,132,444,487,454
2025-02-20 16:31:20.479,1630.0,-2441.0,1464.0,-13.0,101.0,35.0,138,120,107,135,132,408,510,453
2025-02-20 16:31:20.496,451.0,-1134.0,845.0,-25.0,167.0,17.0,139,116,106,135,131,347,468,438
2025-02-20 16:31:20.516,-37.0,-664.0,867.0,55.0,170.0,47.0,141,112,104,135,130,387,436,418
2025-02-20 16:31:20.536,-30.0,-634.0,744.0,144.0,157.0,50.0,141,113,104,135,130,401,435,420
2025-02-20 16:31:20.554,165.0,-925.0,627.0,58.0,118.0,24.0,141,113,100,134,129,455,422,461
2025-02-20 16:31:20.574,274.0,-1068.0,799.0,151.0,203.0,-14.0,142,115,102,134,128,525,497,489
2025-02-20 16:31:20.592,140.0,-915.0,814.0,217.0,276.0,-34.0,141,114,100,132,124,501,548,455
2025-02-20 16:31:20.608,46.0,-477.0,435.0,201.0,266.0,-29.0,141,114,99,131,116,502,516,455
2025-02-20 16:31:20.631,-67.0,-342.0,531.0,163.0,229.0,-47.0,142,113,95,128,103,506,476,462
2025-02-20 16:31:20.651,-140.0,-398.0,512.0,161.0,196.0,-64.0,143,110,90,125,94,504,498,474
2025-02-20 16:31:20.667,-236.0,-490.0,622.0,177.0,166.0,-66.0,143,103,86,122,88,485,480,468
2025-02-20 16:31:20.688,-226.0,-447.0,694.0,250.0,168.0,-73.0,142,94,82,121,83,474,416,458
2025-02-20 16:31:20.705,-226.0,-370.0,376.0,316.0,169.0,-83.0,143,88,79,120,79,488,443,458
2025-02-20 16:31:20.725,-295.0,-229.0,402.0,334.0,117.0,-82.0,142,80,74,120,72,508,439,459
2025-02-20 16:31:20.745,-109.0,-504.0,371.0,322.0,56.0,-72.0,142,73,68,107,66,523,437,459
2025-02-20 16:31:20.762,43.0,-894.0,640.0,335.0,2.0,-21.0,143,65,61,89,59,516,461,453
2025-02-20 16:31:20.783,622.0,-1571.0,923.0,299.0,-27.0,152.0,142,62,58,79,56,505,452,445
2025-02-20 16:31:20.802,1471.0,-1980.0,1341.0,174.0,-20.0,363.0,143,58,57,74,55,492,454,449
2025-02-20 16:31:20.819,2074.0,-1422.0,1524.0,71.0,41.0,579.0,144,56,55,69,53,498,451,450
2025-02-20 16:31:20.840,1597.0,312.0,1651.0,-56.0,50.0,653.0,148,57,53,67,53,429,462,446
2025-02-20 16:31:20.856,1199.0,752.0,1661.0,-168.0,56.0,589.0,146,57,51,66,54,381,456,459
2025-02-20 16:31:20.877,332.0,2346.0,1617.0,-182.0,137.0,392.0,147,56,51,66,54,385,442,453
2025-02-20 16:31:20.897,-129.0,2869.0,1125.0,-81.0,178.0,178.0,148,59,53,66,55,401,437,440
2025-02-20 16:31:20.914,-579.0,2546.0,795.0,26.0,155.0,34.0,147,58,53,67,54,429,446,439
2025-02-20 16:31:20.933,-653.0,2702.0,815.0,83.0,102.0,-91.0,149,59,53,67,55,453,449,445
2025-02-20 16:31:20.954,-446.0,2100.0,837.0,58.0,80.0,-199.0,149,59,53,66,55,472,446,478
2025-02-20 16:31:20.971,-142.0,1001.0,743.0,32.0,52.0,-262.0,149,59,53,69,56,482,444,505
2025-02-20 16:31:20.990,23.0,105.0,804.0,33.0,20.0,-240.0,149,59,53,67,57,494,452,507
2025-02-20 16:31:21.007,-19.0,55.0,880.0,61.0,3.0,-246.0,149,58,54,69,55,471,459,501
2025-02-20 16:31:21.029,14.0,-184.0,898.0,82.0,-13.0,-215.0,150,58,54,69,57,458,457,484
2025-02-20 16:31:21.048,-128.0,-74.0,903.0,38.0,-37.0,-167.0,149,58,53,69,57,460,459,470
2025-02-20 16:31:21.066,-249.0,-60.0,866.0,17.0,-51.0,-176.0,150,60,53,70,58,465,460,469
2025-02-20 16:31:21.086,-212.0,-246.0,867.0,45.0,-44.0,-196.0,150,59,51,69,59,463,462,474
2025-02-20 16:31:21.106,-110.0,-585.0,789.0,108.0,-43.0,-152.0,150,59,54,71,58,450,464,469
2025-02-20 16:31:21.123,-187.0,-194.0,885.0,100.0,-58.0,-111.0,150,60,54,71,59,451,478,464
2025-02-20 16:31:21.142,-144.0,46.0,980.0,44.0,-62.0,-129.0,149,59,53,71,59,455,499,455
2025-02-20 16:31:21.163,61.0,-381.0,1062.0,17.0,-47.0,-133.0,149,60,54,71,61,485,512,460
2025-02-20 16:31:21.178,273.0,-1156.0,1043.0,63.0,-29.0,-32.0,149,57,55,71,60,516,512,463
2025-02-20 16:31:21.200,418.0,-1372.0,1138.0,37.0,-41.0,91.0,149,61,55,72,60,553,490,465
2025-02-20 16:31:21.220,814.0,-1881.0,1316.0,-48.0,-67.0,241.0,149,60,55,71,60,500,459,459
2025-02-20 16:31:21.232,1319.0,-2208.0,1354.0,-96.0,-38.0,429.0,149,61,55,72,60,451,440,452
2025-02-20 16:31:21.257,1102.0,-874.0,1188.0,-155.0,-41.0,502.0,149,61,55,72,60,485,430,463
2025-02-20 16:31:21.278,679.0,483.0,1143.0,-213.0,-67.0,497.0,149,61,54,72,60,462,439,466
2025-02-20 16:31:21.295,414.0,1620.0,1472.0,-273.0,-62.0,418.0,149,61,55,72,60,384,443,443
2025-02-20 16:31:21.315,-32.0,2412.0,1833.0,-225.0,-45.0,229.0,150,62,56,71,59,403,449,450
2025-02-20 16:31:21.331,29.0,2020.0,2441.0,-102.0,38.0,101.0,149,62,58,73,61,429,465,453
2025-02-20 16:31:21.352,108.0,1590.0,2571.0,-50.0,170.0,37.0,150,62,56,72,61,467,476,470
2025-02-20 16:31:21.372,65.0,1070.0,2027.0,-93.0,268.0,-14.0,150,63,55,73,60,492,483,491
2025-02-20 16:31:21.389,90.0,290.0,1454.0,-193.0,276.0,-24.0,151,64,58,72,60,506,478,510
2025-02-20 16:31:21.409,165.0,-499.0,1185.0,-225.0,276.0,-3.0,149,63,58,73,60,488,464,505
2025-02-20 16:31:21.429,105.0,-684.0,973.0,-204.0,294.0,18.0,150,64,59,74,61,460,457,487
2025-02-20 16:31:21.446,-121.0,-481.0,624.0,-186.0,303.0,25.0,150,65,61,74,62,440,464,458
2025-02-20 16:31:21.466,-347.0,-196.0,395.0,-191.0,288.0,17.0,148,68,65,76,63,430,475,451
2025-02-20 16:31:21.486,-553.0,-155.0,168.0,-205.0,262.0,7.0,150,70,69,76,65,462,483,461
2025-02-20 16:31:21.503,-472.0,-495.0,148.0,-115.0,267.0,14.0,148,76,74,76,67,476,481,472
2025-02-20 16:31:21.523,-449.0,-403.0,76.0,28.0,276.0,12.0,147,85,78,76,69,489,481,530
2025-02-20 16:31:21.540,-564.0,84.0,69.0,118.0,254.0,5.0,146,90,81,77,68,543,479,510
2025-02-20 16:31:21.561,-621.0,460.0,14.0,113.0,231.0,-7.0,147,96,84,87,68,530,478,486
2025-02-20 16:31:21.581,-677.0,626.0,-183.0,92.0,202.0,-56.0,144,101,88,95,68,515,472,466
2025-02-20 16:31:21.596,-826.0,735.0,-595.0,103.0,130.0,-125.0,143,103,92,97,70,485,470,454
2025-02-20 16:31:21.618,-883.0,993.0,-1010.0,153.0,27.0,-214.0,142,106,96,97,71,461,460,451
2025-02-20 16:31:21.638,-1027.0,1384.0,-1332.0,219.0,-128.0,-413.0,139,109,100,96,70,454,454,445
2025-02-20 16:31:21.655,-701.0,1310.0,-1480.0,308.0,-334.0,-609.0,135,113,103,97,67,433,444,443
2025-02-20 16:31:21.676,154.0,613.0,-1260.0,255.0,-616.0,-660.0,130,115,104,97,68,381,435,455
2025-02-20 16:31:21.696,2571.0,103.0,-687.0,132.0,-902.0,-525.0,129,119,106,101,73,387,417,463
2025-02-20 16:31:21.713,3754.0,-2489.0,2482.0,37.0,-795.0,-305.0,131,125,107,104,75,410,410,466
2025-02-20 16:31:21.732,3738.0,-2345.0,3502.0,-38.0,-245.0,-26.0,133,128,108,109,76,485,438,454
2025-02-20 16:31:21.752,2816.0,-2569.0,2679.0,-16.0,143.0,84.0,132,128,109,109,72,512,520,443
2025-02-20 16:31:21.770,1145.0,-1796.0,1464.0,-5.0,290.0,111.0,131,126,111,106,65,448,534,434
2025-02-20 16:31:21.789,500.0,-1248.0,791.0,-62.0,271.0,141.0,128,126,109,106,63,375,512,431
2025-02-20 16:31:21.808,246.0,-1080.0,577.0,-105.0,206.0,175.0,127,124,108,107,64,354,501,442
2025-02-20 16:31:21.827,91.0,-982.0,434.0,-101.0,123.0,181.0,129,125,109,106,68,415,462,475
2025-02-20 16:31:21.847,61.0,-902.0,615.0,-59.0,106.0,170.0,129,126,109,104,70,497,450,481
2025-02-20 16:31:21.863,50.0,-915.0,709.0,-15.0,132.0,154.0,131,127,109,103,73,527,500,484
2025-02-20 16:31:21.879,-50.0,-771.0,691.0,10.0,158.0,158.0,133,128,109,103,74,501,514,485
2025-02-20 16:31:21.905,-189.0,-600.0,543.0,-12.0,157.0,168.0,134,128,110,101,75,500,490,481
2025-02-20 16:31:21.921,-267.0,-413.0,417.0,-46.0,133.0,166.0,135,128,110,100,76,461,470,475
2025-02-20 16:31:21.941,-305.0,-434.0,409.0,-60.0,130.0,155.0,135,127,110,98,74,415,448,473
2025-02-20 16:31:21.961,-306.0,-423.0,380.0,-50.0,128.0,152.0,136,126,110,97,72,427,433,458
2025-02-20 16:31:21.978,-327.0,-310.0,375.0,-49.0,136.0,151.0,135,127,109,96,72,462,429,449
2025-02-20 16:31:21.999,-395.0,-156.0,344.0,-57.0,131.0,147.0,135,125,109,96,72,476,436,469
2025-02-20 16:31:22.016,-488.0,-52.0,197.0,-52.0,130.0,139.0,136,125,111,95,72,504,445,471
2025-02-20 16:31:22.036,-724.0,435.0,-201.0,-33.0,112.0,130.0,136,125,109,93,72,517,450,475
2025-02-20 16:31:22.056,-1261.0,1040.0,-911.0,4.0,-12.0,29.0,137,124,111,89,70,511,451,467
2025-02-20 16:31:22.073,-1587.0,1543.0,-1518.0,93.0,-172.0,-241.0,136,125,111,84,67,479,453,470
2025-02-20 16:31:22.093,-1349.0,2037.0,-1578.0,144.0,-440.0,-491.0,137,126,111,81,65,481,459,473
2025-02-20 16:31:22.113,-36.0,1343.0,-1377.0,93.0,-761.0,-596.0,133,126,109,85,69,463,475,475
2025-02-20 16:31:22.130,3283.0,-412.0,-529.0,89.0,-896.0,-526.0,133,127,111,95,74,447,444,475
2025-02-20 16:31:22.150,3805.0,-2991.0,2279.0,225.0,-546.0,-354.0,136,128,110,101,77,458,438,481
2025-02-20 16:31:22.170,3344.0,-2419.0,3068.0,272.0,-84.0,-48.0,137,128,109,104,76,514,486,464
2025-02-20 16:31:22.187,1875.0,-1239.0,2894.0,64.0,181.0,61.0,138,127,109,102,70,521,511,441
2025-02-20 16:31:22.208,643.0,-760.0,1615.0,-63.0,191.0,73.0,137,124,109,101,67,446,501,435
2025-02-20 16:31:22.228,105.0,-811.0,1050.0,-55.0,178.0,50.0,137,124,108,103,68,411,501,433
2025-02-20 16:31:22.245,128.0,-898.0,944.0,63.0,190.0,21.0,136,124,106,102,70,434,458,428
2025-02-20 16:31:22.263,56.0,-784.0,886.0,136.0,182.0,0.0,138,122,106,103,74,481,402,451
2025-02-20 16:31:22.282,56.0,-574.0,900.0,176.0,175.0,-10.0,138,119,102,104,76,516,487,477
2025-02-20 16:31:22.300,46.0,-396.0,959.0,185.0,173.0,-30.0,139,115,99,106,76,493,523,479
2025-02-20 16:31:22.323,-41.0,-367.0,934.0,195.0,180.0,-44.0,142,107,89,107,76,458,492,466
2025-02-20 16:31:22.339,-145.0,-442.0,850.0,206.0,190.0,-47.0,140,100,84,108,77,424,448,467
2025-02-20 16:31:22.359,-216.0,-284.0,713.0,228.0,198.0,-48.0,141,94,81,109,76,414,488,471
2025-02-20 16:31:22.379,-217.0,-231.0,682.0,260.0,189.0,-73.0,135,88,77,107,73,422,459,454
2025-02-20 16:31:22.396,-273.0,-228.0,749.0,270.0,165.0,-86.0,141,81,74,104,71,438,394,450
2025-02-20 16:31:22.416,-213.0,-343.0,644.0,234.0,122.0,-72.0,141,73,70,103,69,429,387,441
2025-02-20 16:31:22.433,-36.0,-601.0,579.0,212.0,85.0,-50.0,140,71,65,102,70,418,452,442
2025-02-20 16:31:22.453,129.0,-894.0,599.0,195.0,26.0,-3.0,141,68,62,98,68,478,478,460
2025-02-20 16:31:22.473,346.0,-1359.0,650.0,166.0,-53.0,131.0,141,65,60,96,67,522,449,471
2025-02-20 16:31:22.491,1079.0,-1892.0,1242.0,94.0,-81.0,333.0,142,62,58,92,64,493,453,472
2025-02-20 16:31:22.511,1674.0,-1759.0,1528.0,-10.0,-27.0,583.0,143,61,57,87,59,446,475,464
2025-02-20 16:31:22.531,1836.0,53.0,1557.0,-159.0,-30.0,697.0,145,62,55,81,58,430,472,465
2025-02-20 16:31:22.548,1004.0,987.0,1780.0,-329.0,-48.0,644.0,145,64,56,78,58,421,471,470
2025-02-20 16:31:22.566,602.0,1932.0,2029.0,-304.0,15.0,450.0,147,67,56,77,58,432,464,476
2025-02-20 16:31:22.589,146.0,2296.0,1528.0,-44.0,140.0,208.0,147,68,58,77,59,449,468,478
2025-02-20 16:31:22.605,-235.0,2565.0,1112.0,119.0,180.0,60.0,147,68,56,76,57,467,467,470
2025-02-20 16:31:22.625,-674.0,2967.0,895.0,108.0,127.0,-82.0,147,68,57,76,57,467,463,450
2025-02-20 16:31:22.645,-366.0,2059.0,863.0,14.0,80.0,-177.0,148,67,58,76,57,468,450,451
2025-02-20 16:31:22.663,-27.0,516.0,743.0,17.0,57.0,-214.0,148,65,56,77,57,491,443,477
2025-02-20 16:31:22.682,12.0,2.0,755.0,54.0,44.0,-215.0,148,66,56,76,57,483,433,490
2025-02-20 16:31:22.699,-9.0,-39.0,794.0,65.0,23.0,-185.0,149,65,55,76,57,446,442,484
2025-02-20 16:31:22.718,-122.0,122.0,920.0,71.0,-1.0,-192.0,149,66,57,77,58,441,441,474
2025-02-20 16:31:22.740,-113.0,-102.0,905.0,77.0,-2.0,-189.0,150,65,53,77,58,461,444,462
2025-02-20 16:31:22.757,-234.0,-226.0,871.0,105.0,-10.0,-183.0,148,64,56,78,58,448,447,442
2025-02-20 16:31:22.777,-321.0,-53.0,803.0,152.0,-20.0,-228.0,149,65,56,78,58,431,452,437
2025-02-20 16:31:22.797,-215.0,-288.0,719.0,168.0,-55.0,-203.0,149,64,56,78,59,422,477,442
2025-02-20 16:31:22.815,-166.0,-190.0,831.0,100.0,-85.0,-162.0,149,64,56,78,60,445,489,445
2025-02-20 16:31:22.831,-28.0,-252.0,1030.0,65.0,-87.0,-155.0,148,65,56,79,59,448,485,447
2025-02-20 16:31:22.855,136.0,-543.0,1129.0,54.0,-57.0,-117.0,147,65,57,79,61,468,475,455
2025-02-20 16:31:22.868,186.0,-896.0,1069.0,71.0,-43.0,-32.0,150,65,57,79,61,503,469,472
2025-02-20 16:31:22.892,363.0,-1100.0,1235.0,39.0,-48.0,104.0,149,66,57,79,61,499,470,466
2025-02-20 16:31:22.909,614.0,-1373.0,1320.0,-35.0,-36.0,225.0,149,66,57,79,61,475,468,456
2025-02-20 16:31:22.928,1073.0,-1761.0,1324.0,-52.0,-3.0,403.0,149,67,58,80,61,471,474,463
2025-02-20 16:31:22.949,1007.0,-709.0,1326.0,-120.0,25.0,481.0,150,68,59,80,62,516,472,493
2025-02-20 16:31:22.966,670.0,840.0,1226.0,-227.0,29.0,472.0,150,67,58,81,62,502,471,496
2025-02-20 16:31:22.986,-84.0,2173.0,1157.0,-325.0,18.0,360.0,149,68,57,84,63,460,470,469
2025-02-20 16:31:23.007,-331.0,2664.0,1353.0,-338.0,-14.0,191.0,149,68,57,81,65,471,475,467
2025-02-20 16:31:23.024,-202.0,1967.0,2167.0,-234.0,33.0,25.0,150,69,58,81,66,466,470,470
2025-02-20 16:31:23.044,219.0,1008.0,2656.0,-116.0,172.0,-37.0,150,70,60,82,66,536,467,490
2025-02-20 16:31:23.064,223.0,274.0,2417.0,-145.0,277.0,-54.0,148,70,60,81,68,558,477,506
2025-02-20 16:31:23.081,195.0,-244.0,1847.0,-295.0,321.0,-39.0,148,68,59,82,68,504,467,507
2025-02-20 16:31:23.101,157.0,-929.0,1021.0,-357.0,300.0,-6.0,147,67,58,81,68,457,452,502
2025-02-20 16:31:23.118,-30.0,-1299.0,502.0,-306.0,270.0,32.0,146,69,61,81,69,436,454,486
2025-02-20 16:31:23.138,-89.0,-1436.0,215.0,-174.0,263.0,73.0,143,70,63,82,70,416,462,456
2025-02-20 16:31:23.157,-503.0,-943.0,64.0,-89.0,216.0,92.0,144,72,65,87,70,416,475,449
2025-02-20 16:31:23.175,-559.0,-481.0,214.0,-79.0,193.0,116.0,145,71,65,90,72,444,476,450
2025-02-20 16:31:23.196,-483.0,-272.0,235.0,-32.0,227.0,129.0,146,72,67,92,75,475,462,463
2025-02-20 16:31:23.215,-760.0,54.0,267.0,27.0,243.0,113.0,146,72,66,90,77,470,473,496
2025-02-20 16:31:23.232,-468.0,395.0,183.0,65.0,259.0,91.0,146,72,67,88,80,520,480,492
2025-02-20 16:31:23.252,-653.0,701.0,71.0,83.0,250.0,59.0,146,72,65,90,81,533,481,476
2025-02-20 16:31:23.270,-636.0,807.0,-146.0,98.0,211.0,34.0,147,71,66,88,80,498,486,463
2025-02-20 16:31:23.290,-704.0,894.0,-188.0,111.0,174.0,-24.0,146,68,64,89,80,488,487,449
2025-02-20 16:31:23.310,-647.0,1092.0,-465.0,83.0,142.0,-67.0,146,62,60,89,79,496,476,446
2025-02-20 16:31:23.330,-641.0,1180.0,-853.0,57.0,82.0,-143.0,144,57,57,87,74,485,464,448
2025-02-20 16:31:23.346,-480.0,1285.0,-1470.0,76.0,-49.0,-270.0,141,58,54,83,65,491,447,446
2025-02-20 16:31:23.366,-1028.0,1164.0,-2350.0,178.0,-239.0,-446.0,134,56,51,79,60,524,435,440
2025-02-20 16:31:23.384,-103.0,1046.0,-2580.0,300.0,-565.0,-589.0,119,53,48,77,59,520,431,439
2025-02-20 16:31:23.403,1652.0,537.0,-2164.0,407.0,-971.0,-592.0,109,52,46,76,61,481,424,451
2025-02-20 16:31:23.424,5367.0,-980.0,779.0,423.0,-1018.0,-311.0,111,52,49,79,65,459,412,472
2025-02-20 16:31:23.438,4895.0,-2713.0,5595.0,377.0,-299.0,32.0,114,53,48,79,65,371,416,474
2025-02-20 16:31:23.461,2400.0,-581.0,5081.0,242.0,162.0,-22.0,108,52,48,71,58,280,516,456
2025-02-20 16:31:23.481,634.0,-553.0,3107.0,-25.0,238.0,6.0,105,52,48,65,54,278,539,455
2025-02-20 16:31:23.498,-17.0,-469.0,1577.0,-237.0,175.0,45.0,101,51,48,65,54,310,517,427
2025-02-20 16:31:23.518,-50.0,-1191.0,1118.0,-263.0,117.0,46.0,101,52,50,71,56,309,481,409
2025-02-20 16:31:23.536,61.0,-1513.0,1013.0,-153.0,135.0,81.0,100,52,50,73,57,466,434,487
2025-02-20 16:31:23.554,-47.0,-1074.0,922.0,-55.0,171.0,118.0,101,52,52,72,58,490,401,507
2025-02-20 16:31:23.575,-161.0,-667.0,854.0,-25.0,172.0,112.0,104,53,52,74,61,496,481,502
2025-02-20 16:31:23.590,-263.0,-373.0,856.0,-37.0,145.0,85.0,106,52,52,74,59,533,514,499
2025-02-20 16:31:23.612,-298.0,-320.0,784.0,-92.0,135.0,86.0,106,53,52,71,61,546,485,488
2025-02-20 16:31:23.632,-253.0,-371.0,681.0,-123.0,134.0,96.0,109,54,52,69,59,494,456,475
2025-02-20 16:31:23.649,-282.0,-403.0,500.0,-130.0,146.0,111.0,113,54,54,70,61,386,439,450
2025-02-20 16:31:23.670,-371.0,-373.0,431.0,-105.0,139.0,124.0,120,55,55,71,61,434,416,462
2025-02-20 16:31:23.688,-257.0,-263.0,449.0,-89.0,146.0,135.0,119,55,54,71,62,476,419,468
2025-02-20 16:31:23.707,-201.0,-245.0,377.0,-67.0,156.0,136.0,119,55,55,72,63,546,458,468
2025-02-20 16:31:23.727,-270.0,-4.0,298.0,-46.0,161.0,139.0,121,55,55,73,63,601,491,466
2025-02-20 16:31:23.748,-325.0,142.0,137.0,-23.0,164.0,137.0,123,57,55,71,63,498,502,476
2025-02-20 16:31:23.765,-625.0,414.0,-307.0,2.0,130.0,136.0,123,57,56,70,63,465,497,480
2025-02-20 16:31:23.784,-1039.0,1354.0,-1052.0,-31.0,13.0,109.0,119,56,56,70,62,448,489,465
2025-02-20 16:31:23.804,-1764.0,1825.0,-2143.0,146.0,-157.0,-135.0,116,56,55,69,59,445,483,460
2025-02-20 16:31:23.822,-1181.0,2196.0,-1976.0,333.0,-366.0,-481.0,114,55,55,70,58,439,466,456
2025-02-20 16:31:23.842,111.0,1511.0,-1306.0,255.0,-726.0,-560.0,114,55,55,70,59,421,455,456
2025-02-20 16:31:23.859,3087.0,-1218.0,1147.0,210.0,-874.0,-382.0,119,56,55,75,62,396,416,456
2025-02-20 16:31:23.879,3734.0,-3359.0,4387.0,289.0,-287.0,-88.0,123,56,56,77,63,451,399,462
2025-02-20 16:31:23.899,2411.0,-1612.0,4149.0,209.0,128.0,-4.0,124,57,55,74,60,447,443,452
2025-02-20 16:31:23.916,575.0,-613.0,2714.0,-21.0,173.0,1.0,124,57,56,71,57,384,459,443
2025-02-20 16:31:23.936,285.0,-1130.0,1396.0,-193.0,140.0,68.0,126,56,56,73,57,443,500,427
2025-02-20 16:31:23.954,82.0,-1619.0,934.0,-150.0,118.0,139.0,126,56,57,75,59,436,481,414
2025-02-20 16:31:23.973,60.0,-1423.0,772.0,-6.0,120.0,172.0,128,58,57,76,62,450,439,439
2025-02-20 16:31:23.993,-25.0,-809.0,648.0,74.0,136.0,199.0,130,57,57,77,63,451,410,480
2025-02-20 16:31:24.009,-246.0,-390.0,595.0,67.0,120.0,213.0,131,59,57,78,65,464,511,491
2025-02-20 16:31:24.031,-358.0,-224.0,494.0,36.0,77.0,216.0,131,60,60,79,67,521,543,485
2025-02-20 16:31:24.051,-404.0,-201.0,529.0,21.0,22.0,212.0,133,60,60,79,69,493,522,488
2025-02-20 16:31:24.067,-322.0,-242.0,755.0,-3.0,23.0,218.0,134,61,60,79,69,486,486,477
2025-02-20 16:31:24.088,-113.0,-280.0,760.0,12.0,73.0,240.0,133,61,60,79,69,518,484,471
2025-02-20 16:31:24.097,-269.0,-67.0,627.0,39.0,104.0,242.0,134,60,61,79,70,510,455,473
2025-02-20 16:31:24.124,-452.0,256.0,455.0,85.0,73.0,206.0,133,60,58,79,69,509,440,466
2025-02-20 16:31:24.146,-552.0,436.0,504.0,105.0,30.0,164.0,134,62,62,80,73,474,401,464
2025-02-20 16:31:24.165,-593.0,815.0,490.0,116.0,11.0,116.0,134,61,61,80,75,481,440,460
2025-02-20 16:31:24.183,-781.0,1883.0,176.0,115.0,-22.0,19.0,134,62,61,81,78,505,479,456
2025-02-20 16:31:24.202,-1300.0,2416.0,-105.0,150.0,-63.0,-159.0,134,61,59,82,79,472,520,452
2025-02-20 16:31:24.223,-1517.0,2719.0,-706.0,252.0,-169.0,-429.0,135,60,59,85,101,477,519,451
2025-02-20 16:31:24.239,-672.0,2038.0,-230.0,428.0,-363.0,-605.0,138,61,59,89,113,486,480,462
2025-02-20 16:31:24.260,939.0,939.0,553.0,481.0,-525.0,-569.0,137,61,58,98,117,501,439,463
2025-02-20 16:31:24.280,2325.0,-255.0,2221.0,458.0,-486.0,-396.0,139,64,60,105,118,513,440,455
2025-02-20 16:31:24.297,2285.0,-440.0,3296.0,136.0,-257.0,-184.0,141,64,64,107,120,527,439,439
2025-02-20 16:31:24.317,2038.0,-1048.0,3139.0,-127.0,-33.0,-33.0,142,65,63,108,120,506,418,440
2025-02-20 16:31:24.334,1486.0,-1465.0,2158.0,-186.0,80.0,91.0,142,64,60,109,122,446,411,454
2025-02-20 16:31:24.354,830.0,-1213.0,1253.0,-92.0,121.0,170.0,142,64,62,106,122,382,413,462
2025-02-20 16:31:24.374,247.0,-682.0,975.0,-31.0,118.0,217.0,141,61,62,106,122,378,449,454
2025-02-20 16:31:24.391,113.0,-205.0,953.0,-31.0,114.0,259.0,143,63,67,107,122,378,434,460
2025-02-20 16:31:24.411,129.0,35.0,936.0,-61.0,116.0,299.0,141,65,62,104,123,399,444,460
2025-02-20 16:31:24.431,65.0,212.0,819.0,-70.0,106.0,311.0,140,65,62,102,124,398,471,433
2025-02-20 16:31:24.449,-146.0,610.0,909.0,-87.0,74.0,272.0,141,64,62,100,125,426,471,437
2025-02-20 16:31:24.469,-233.0,784.0,853.0,-89.0,57.0,210.0,142,65,63,98,126,489,475,472
2025-02-20 16:31:24.485,-261.0,744.0,828.0,-78.0,44.0,162.0,141,65,64,97,126,467,494,473
2025-02-20 16:31:24.506,-288.0,688.0,835.0,-37.0,40.0,141.0,143,63,64,98,126,425,490,472
2025-02-20 16:31:24.525,-319.0,875.0,827.0,-18.0,36.0,128.0,142,64,64,97,125,445,480,476
2025-02-20 16:31:24.544,-420.0,1014.0,877.0,-9.0,45.0,76.0,142,64,64,97,126,474,470,479
2025-02-20 16:31:24.560,-579.0,1285.0,729.0,7.0,38.0,5.0,143,66,64,95,127,502,468,482
2025-02-20 16:31:24.583,-569.0,1313.0,696.0,16.0,22.0,-96.0,141,66,64,95,125,503,461,487
2025-02-20 16:31:24.601,-639.0,1470.0,635.0,70.0,11.0,-187.0,142,66,64,95,127,487,446,482
2025-02-20 16:31:24.616,-746.0,1915.0,404.0,106.0,-4.0,-322.0,140,65,61,97,126,483,453,485
2025-02-20 16:31:24.640,-853.0,2134.0,7.0,158.0,-54.0,-448.0,137,63,60,98,125,470,466,483
2025-02-20 16:31:24.655,-257.0,1481.0,66.0,161.0,-160.0,-512.0,132,60,58,99,121,463,467,482
2025-02-20 16:31:24.675,668.0,256.0,450.0,151.0,-310.0,-468.0,131,61,58,101,116,481,462,491
2025-02-20 16:31:24.698,1510.0,-793.0,1449.0,127.0,-349.0,-329.0,131,61,61,102,113,501,470,495
2025-02-20 16:31:24.715,2018.0,-1333.0,2177.0,16.0,-269.0,-109.0,132,61,60,102,109,501,464,487
2025-02-20 16:31:24.735,1774.0,-1316.0,2426.0,-193.0,-164.0,40.0,132,64,60,102,106,440,454,469
2025-02-20 16:31:24.748,1442.0,-1293.0,2093.0,-286.0,-74.0,165.0,130,63,60,103,102,399,462,480
2025-02-20 16:31:24.773,908.0,-959.0,1728.0,-299.0,20.0,217.0,129,63,61,101,99,404,453,469
2025-02-20 16:31:24.792,635.0,-819.0,1646.0,-274.0,108.0,251.0,129,63,62,102,97,413,474,460
2025-02-20 16:31:24.809,561.0,-537.0,2048.0,-271.0,249.0,296.0,131,65,63,102,99,417,471,460
2025-02-20 16:31:24.825,590.0,-279.0,1360.0,-228.0,328.0,334.0,133,64,65,103,100,416,458,464
2025-02-20 16:31:24.849,245.0,180.0,1089.0,-245.0,336.0,334.0,135,63,65,103,102,449,462,466
2025-02-20 16:31:24.867,35.0,291.0,980.0,-279.0,333.0,314.0,137,66,66,105,104,499,491,472
2025-02-20 16:31:24.886,-224.0,146.0,710.0,-242.0,314.0,266.0,137,68,68,105,105,514,502,465
2025-02-20 16:31:24.906,-255.0,127.0,355.0,-90.0,310.0,239.0,138,72,73,108,106,516,505,451
2025-02-20 16:31:24.924,-697.0,243.0,174.0,35.0,275.0,198.0,136,77,76,112,107,516,485,473
2025-02-20 16:31:24.942,-941.0,264.0,160.0,-38.0,234.0,102.0,136,77,79,116,109,530,499,495
2025-02-20 16:31:24.959,-942.0,405.0,-13.0,-37.0,158.0,64.0,137,78,80,118,110,532,524,513
2025-02-20 16:31:24.981,-714.0,318.0,-70.0,-4.0,120.0,25.0,134,78,82,118,111,494,506,482
2025-02-20 16:31:25.001,-741.0,416.0,-251.0,-9.0,62.0,-1.0,130,78,85,120,114,448,473,447
2025-02-20 16:31:25.018,-1085.0,381.0,-315.0,-52.0,21.0,-18.0,129,81,86,121,117,487,449,435
2025-02-20 16:31:25.039,-655.0,461.0,-342.0,12.0,-14.0,-23.0,129,86,88,122,119,509,443,434
2025-02-20 16:31:25.058,-639.0,693.0,-631.0,-3.0,-54.0,-63.0,128,87,89,123,121,520,434,442
2025-02-20 16:31:25.076,-1132.0,1145.0,-1034.0,-15.0,-166.0,-157.0,128,89,90,124,124,491,435,453
2025-02-20 16:31:25.096,-1328.0,1337.0,-1255.0,-6.0,-336.0,-321.0,129,91,92,125,128,485,437,464
2025-02-20 16:31:25.116,-936.0,1313.0,-1080.0,-53.0,-494.0,-529.0,128,96,92,125,130,457,440,469
2025-02-20 16:31:25.133,502.0,777.0,-870.0,-117.0,-714.0,-668.0,128,100,95,127,133,434,442,474
2025-02-20 16:31:25.153,2456.0,-576.0,-80.0,-173.0,-787.0,-616.0,126,108,98,130,133,393,424,478
2025-02-20 16:31:25.170,3394.0,-2225.0,1289.0,-238.0,-739.0,-413.0,128,114,102,129,134,372,426,491
2025-02-20 16:31:25.190,3113.0,-3403.0,1407.0,-79.0,-356.0,-136.0,126,119,104,132,133,429,474,474
2025-02-20 16:31:25.210,2990.0,-3537.0,1512.0,47.0,-9.0,149.0,129,120,105,132,134,466,530,471
2025-02-20 16:31:25.230,1694.0,-2058.0,1278.0,96.0,153.0,158.0,131,118,104,132,133,494,532,464
2025-02-20 16:31:25.246,596.0,-1217.0,1219.0,30.0,193.0,232.0,132,115,103,132,133,442,495,456
2025-02-20 16:31:25.267,407.0,-921.0,910.0,-22.0,153.0,279.0,133,113,104,132,132,340,469,446
2025-02-20 16:31:25.281,238.0,-826.0,829.0,-40.0,164.0,260.0,132,114,104,132,128,356,431,437
2025-02-20 16:31:25.305,63.0,-952.0,667.0,-38.0,177.0,229.0,132,113,104,132,133,416,396,469
2025-02-20 16:31:25.324,40.0,-806.0,619.0,35.0,220.0,212.0,132,113,102,132,134,420,458,491
2025-02-20 16:31:25.341,-146.0,-657.0,592.0,21.0,219.0,198.0,132,115,103,132,133,556,495,476
2025-02-20 16:31:25.362,-197.0,-508.0,457.0,-16.0,201.0,185.0,131,115,104,133,134,505,489,466
2025-02-20 16:31:25.382,-326.0,-484.0,340.0,-40.0,167.0,173.0,130,115,104,132,134,531,474,459
2025-02-20 16:31:25.397,-250.0,-329.0,279.0,-42.0,143.0,168.0,130,115,103,132,135,520,445,453
2025-02-20 16:31:25.420,-371.0,-242.0,370.0,-22.0,128.0,156.0,129,113,103,132,130,504,458,457
2025-02-20 16:31:25.436,-502.0,-12.0,330.0,-20.0,134.0,129.0,131,110,103,132,135,495,454,463
2025-02-20 16:31:25.456,-628.0,98.0,213.0,-24.0,99.0,105.0,132,108,102,132,134,530,464,469
2025-02-20 16:31:25.476,-496.0,396.0,63.0,18.0,64.0,68.0,131,108,102,132,134,528,476,490
2025-02-20 16:31:25.493,-656.0,725.0,-84.0,125.0,61.0,2.0,131,106,103,132,134,534,472,497
2025-02-20 16:31:25.513,-1201.0,1186.0,-420.0,174.0,24.0,-122.0,129,105,102,133,134,549,462,489
2025-02-20 16:31:25.533,-1413.0,1511.0,-755.0,195.0,-100.0,-299.0,130,107,103,133,134,518,468,484
2025-02-20 16:31:25.551,-1261.0,1514.0,-992.0,189.0,-245.0,-483.0,128,111,103,133,136,484,468,482
2025-02-20 16:31:25.570,396.0,1023.0,-525.0,110.0,-485.0,-593.0,124,115,104,133,136,470,442,475
2025-02-20 16:31:25.591,1666.0,-353.0,792.0,-124.0,-637.0,-579.0,125,119,105,134,136,443,426,474
2025-02-20 16:31:25.608,2464.0,-2161.0,1301.0,-199.0,-542.0,-439.0,124,121,106,133,135,426,415,477
2025-02-20 16:31:25.628,2922.0,-2953.0,713.0,-63.0,-399.0,-174.0,125,122,107,134,136,430,464,457
2025-02-20 16:31:25.648,2828.0,-3345.0,1000.0,-3.0,-99.0,57.0,125,121,106,134,135,453,507,440
2025-02-20 16:31:25.665,1778.0,-2212.0,962.0,59.0,123.0,88.0,128,120,107,135,134,417,481,432
2025-02-20 16:31:25.681,580.0,-1370.0,670.0,58.0,195.0,101.0,129,117,110,134,135,362,469,430
2025-02-20 16:31:25.702,81.0,-725.0,897.0,-26.0,154.0,126.0,130,113,106,134,134,347,462,428
2025-02-20 16:31:25.723,33.0,-790.0,446.0,20.0,141.0,129.0,131,113,106,134,134,426,418,459
2025-02-20 16:31:25.742,53.0,-1021.0,398.0,46.0,118.0,111.0,130,113,104,134,133,477,427,462
2025-02-20 16:31:25.760,223.0,-1107.0,509.0,85.0,135.0,94.0,131,114,104,134,135,470,486,436
2025-02-20 16:31:25.780,245.0,-1164.0,458.0,126.0,194.0,111.0,131,115,101,133,134,500,536,458
2025-02-20 16:31:25.800,109.0,-1049.0,375.0,168.0,186.0,169.0,130,112,93,130,133,507,518,470
2025-02-20 16:31:25.817,62.0,-961.0,399.0,151.0,210.0,240.0,130,106,85,125,129,486,511,471
2025-02-20 16:31:25.837,10.0,-804.0,189.0,135.0,160.0,304.0,130,100,78,120,124,459,497,478
2025-02-20 16:31:25.854,-21.0,-584.0,39.0,132.0,120.0,318.0,132,90,70,118,117,465,478,467
2025-02-20 16:31:25.874,-139.0,-178.0,85.0,102.0,62.0,316.0,132,83,66,117,112,437,436,454
2025-02-20 16:31:25.894,-189.0,-183.0,136.0,153.0,-6.0,307.0,133,75,65,116,112,450,397,464
2025-02-20 16:31:25.911,-230.0,166.0,145.0,170.0,-71.0,252.0,133,74,63,114,112,487,432,471
2025-02-20 16:31:25.931,-416.0,819.0,290.0,184.0,-139.0,166.0,133,75,63,111,116,494,476,472
2025-02-20 16:31:25.951,-639.0,1462.0,716.0,248.0,-136.0,38.0,134,75,62,108,124,492,482,465
2025-02-20 16:31:25.968,-926.0,2118.0,774.0,360.0,-55.0,-159.0,136,73,60,107,128,484,479,455
2025-02-20 16:31:25.989,-1159.0,2811.0,517.0,431.0,-35.0,-340.0,134,71,60,108,131,478,456,448
2025-02-20 16:31:26.009,-985.0,2304.0,413.0,441.0,-124.0,-508.0,134,69,60,111,131,470,445,453
2025-02-20 16:31:26.026,80.0,1512.0,720.0,398.0,-327.0,-537.0,134,67,58,115,132,429,429,466
2025-02-20 16:31:26.046,1223.0,-59.0,1604.0,342.0,-403.0,-420.0,136,69,58,119,131,432,425,479
2025-02-20 16:31:26.061,1826.0,-1072.0,2529.0,251.0,-252.0,-221.0,137,70,61,123,131,431,421,474
2025-02-20 16:31:26.081,1895.0,-802.0,2868.0,-15.0,-65.0,-45.0,136,71,62,123,130,440,428,450
2025-02-20 16:31:26.103,1313.0,-858.0,2272.0,-203.0,38.0,70.0,138,70,61,124,129,444,443,438
2025-02-20 16:31:26.120,838.0,-1086.0,1325.0,-193.0,59.0,163.0,135,68,61,123,129,374,441,431
2025-02-20 16:31:26.140,335.0,-736.0,1035.0,-104.0,56.0,221.0,134,68,62,122,129,344,454,439
2025-02-20 16:31:26.160,97.0,-265.0,1046.0,-73.0,55.0,263.0,134,71,64,122,129,381,454,430
2025-02-20 16:31:26.177,-21.0,148.0,1083.0,-93.0,58.0,264.0,134,71,64,121,129,407,450,423
2025-02-20 16:31:26.198,-275.0,336.0,932.0,-103.0,49.0,250.0,134,70,64,118,131,434,472,428
2025-02-20 16:31:26.218,-201.0,345.0,930.0,-95.0,34.0,229.0,135,71,63,117,131,465,505,462
2025-02-20 16:31:26.232,-123.0,209.0,942.0,-50.0,47.0,221.0,135,71,63,117,132,477,511,484
2025-02-20 16:31:26.254,-141.0,533.0,891.0,-33.0,46.0,193.0,135,71,64,116,131,461,499,484
2025-02-20 16:31:26.274,-228.0,523.0,1043.0,-11.0,65.0,126.0,137,72,63,113,132,448,489,485
2025-02-20 16:31:26.291,-304.0,654.0,950.0,5.0,75.0,91.0,136,70,64,112,132,474,480,482
2025-02-20 16:31:26.312,-258.0,629.0,910.0,6.0,67.0,64.0,137,72,64,110,132,515,484,484
2025-02-20 16:31:26.329,-401.0,887.0,811.0,3.0,55.0,51.0,137,72,63,109,133,525,457,484
2025-02-20 16:31:26.348,-628.0,1479.0,732.0,-38.0,45.0,4.0,136,73,65,106,132,533,444,482
2025-02-20 16:31:26.370,-815.0,1959.0,570.0,-43.0,82.0,-179.0,137,73,63,106,132,524,440,478
2025-02-20 16:31:26.384,-1033.0,2175.0,179.0,40.0,101.0,-352.0,137,73,63,108,135,515,439,473
2025-02-20 16:31:26.406,-1057.0,1931.0,-273.0,105.0,-18.0,-488.0,134,70,60,110,134,512,449,468
2025-02-20 16:31:26.427,-154.0,1120.0,-165.0,174.0,-250.0,-525.0,135,69,58,111,134,501,462,473
2025-02-20 16:31:26.444,1031.0,-417.0,1053.0,140.0,-392.0,-436.0,136,69,58,116,134,512,464,473
2025-02-20 16:31:26.462,2056.0,-1219.0,2133.0,34.0,-307.0,-227.0,138,73,61,120,133,491,473,475
2025-02-20 16:31:26.484,2234.0,-1655.0,2508.0,-140.0,-163.0,-50.0,138,73,60,122,131,468,482,470
2025-02-20 16:31:26.501,1753.0,-1689.0,2289.0,-209.0,-31.0,75.0,138,72,60,123,128,451,497,475
2025-02-20 16:31:26.521,1159.0,-1391.0,1809.0,-198.0,43.0,130.0,138,72,61,123,123,416,500,454
2025-02-20 16:31:26.541,535.0,-990.0,1327.0,-157.0,87.0,168.0,138,72,60,123,117,423,479,443
2025-02-20 16:31:26.558,316.0,-746.0,1295.0,-117.0,116.0,194.0,138,72,60,123,110,483,462,451
2025-02-20 16:31:26.578,255.0,-360.0,1452.0,-127.0,152.0,200.0,138,73,61,122,104,481,434,449
2025-02-20 16:31:26.596,187.0,-263.0,1346.0,-169.0,204.0,211.0,138,74,61,122,99,450,417,441
2025-02-20 16:31:26.615,12.0,-196.0,1160.0,-187.0,224.0,222.0,139,74,63,119,96,449,432,465
2025-02-20 16:31:26.635,-12.0,-175.0,1091.0,-173.0,251.0,226.0,138,75,64,117,93,477,466,486
2025-02-20 16:31:26.651,-67.0,-26.0,879.0,-150.0,288.0,231.0,139,75,68,117,91,478,499,496
2025-02-20 16:31:26.673,-293.0,23.0,510.0,-117.0,297.0,223.0,139,79,70,117,86,502,502,501
2025-02-20 16:31:26.693,-268.0,124.0,480.0,-87.0,298.0,222.0,138,81,73,118,85,512,498,495
2025-02-20 16:31:26.710,-403.0,325.0,277.0,-63.0,301.0,214.0,139,87,76,118,81,490,489,489
2025-02-20 16:31:26.730,-692.0,527.0,38.0,-47.0,298.0,189.0,139,91,77,112,73,448,493,519
2025-02-20 16:31:26.747,-665.0,750.0,-248.0,-9.0,278.0,142.0,138,93,80,97,68,443,482,515
2025-02-20 16:31:26.767,-717.0,1168.0,-1151.0,-19.0,187.0,15.0,136,94,81,89,64,504,440,461
2025-02-20 16:31:26.787,-1174.0,1399.0,-1947.0,78.0,11.0,-174.0,134,96,82,89,61,513,429,421
2025-02-20 16:31:26.807,-1466.0,1926.0,-1967.0,158.0,-164.0,-409.0,136,100,85,90,59,485,434,416
2025-02-20 16:31:26.824,-802.0,2039.0,-2307.0,118.0,-515.0,-587.0,136,105,88,90,59,437,445,420
2025-02-20 16:31:26.844,195.0,1207.0,-1894.0,87.0,-835.0,-628.0,135,111,92,90,60,395,430,433
2025-02-20 16:31:26.861,3246.0,131.0,-620.0,-57.0,-1036.0,-537.0,133,122,99,93,63,390,422,454
2025-02-20 16:31:26.882,3770.0,-3155.0,2630.0,38.0,-793.0,-274.0,135,126,102,94,65,386,415,470
2025-02-20 16:31:26.902,3707.0,-2306.0,3132.0,128.0,-290.0,-36.0,136,128,105,95,66,471,448,460
2025-02-20 16:31:26.918,2470.0,-1941.0,3027.0,65.0,96.0,50.0,136,128,107,96,61,435,497,446
2025-02-20 16:31:26.938,1160.0,-1394.0,2067.0,11.0,162.0,74.0,135,127,106,98,55,406,525,444
2025-02-20 16:31:26.959,423.0,-977.0,1593.0,-83.0,138.0,111.0,135,127,104,98,55,366,534,432
2025-02-20 16:31:26.976,268.0,-1071.0,1141.0,-126.0,137.0,131.0,134,127,107,99,58,311,535,455
2025-02-20 16:31:26.996,102.0,-950.0,918.0,-98.0,144.0,143.0,135,127,107,98,61,406,489,459
2025-02-20 16:31:27.014,-23.0,-720.0,845.0,-59.0,158.0,141.0,134,128,107,97,65,501,435,484
2025-02-20 16:31:27.033,-59.0,-588.0,809.0,-46.0,180.0,137.0,135,128,108,95,66,591,467,489
2025-02-20 16:31:27.050,-101.0,-549.0,727.0,-26.0,194.0,132.0,136,130,108,95,68,574,476,481
2025-02-20 16:31:27.069,-173.0,-472.0,603.0,-26.0,195.0,130.0,135,129,108,95,68,510,480,482
2025-02-20 16:31:27.091,-189.0,-345.0,464.0,-26.0,181.0,122.0,137,128,108,95,69,481,502,466
2025-02-20 16:31:27.110,-250.0,-263.0,495.0,-36.0,183.0,118.0,136,129,108,98,67,474,459,461
2025-02-20 16:31:27.128,-319.0,-163.0,458.0,-58.0,193.0,119.0,136,128,107,98,66,461,446,470
2025-02-20 16:31:27.148,-402.0,-105.0,344.0,-97.0,187.0,127.0,137,127,107,98,67,490,440,464
2025-02-20 16:31:27.168,-455.0,-176.0,203.0,-87.0,175.0,134.0,137,124,108,96,67,495,447,469
2025-02-20 16:31:27.185,-648.0,116.0,-180.0,-39.0,144.0,123.0,137,126,109,95,67,565,447,460
2025-02-20 16:31:27.205,-1121.0,942.0,-918.0,86.0,83.0,-12.0,137,125,109,90,65,543,443,463
2025-02-20 16:31:27.225,-1822.0,1838.0,-1325.0,177.0,-78.0,-276.0,137,125,109,90,63,522,425,470
2025-02-20 16:31:27.242,-1391.0,1857.0,-1433.0,141.0,-335.0,-477.0,134,125,109,88,64,483,431,469
2025-02-20 16:31:27.261,-81.0,809.0,-864.0,67.0,-636.0,-531.0,132,126,109,89,67,434,454,470
2025-02-20 16:31:27.279,1846.0,-80.0,-318.0,-64.0,-818.0,-475.0,133,127,109,90,70,417,463,478
2025-02-20 16:31:27.299,2998.0,-2323.0,943.0,-160.0,-720.0,-251.0,133,130,110,94,73,409,469,480
2025-02-20 16:31:27.319,3492.0,-3650.0,1847.0,30.0,-208.0,-32.0,136,129,109,94,74,456,491,470
2025-02-20 16:31:27.336,2340.0,-2331.0,1588.0,180.0,122.0,74.0,136,127,109,92,68,494,532,472
2025-02-20 16:31:27.357,837.0,-1163.0,1172.0,158.0,187.0,84.0,134,123,108,92,62,450,518,469
2025-02-20 16:31:27.377,158.0,-895.0,895.0,45.0,122.0,73.0,137,116,108,94,60,384,467,442
2025-02-20 16:31:27.393,247.0,-1126.0,838.0,28.0,86.0,76.0,139,113,106,94,64,410,431,437
2025-02-20 16:31:27.414,417.0,-1515.0,760.0,114.0,102.0,97.0,138,113,105,95,67,401,389,437
2025-02-20 16:31:27.430,491.0,-1379.0,695.0,188.0,134.0,144.0,138,115,103,94,69,449,379,455
2025-02-20 16:31:27.450,382.0,-1113.0,744.0,185.0,145.0,199.0,139,117,101,94,72,517,437,448
2025-02-20 16:31:27.471,291.0,-902.0,593.0,158.0,133.0,250.0,137,113,97,94,75,526,497,455
2025-02-20 16:31:27.489,202.0,-451.0,435.0,122.0,110.0,296.0,140,109,93,96,79,540,496,451
2025-02-20 16:31:27.510,128.0,-450.0,494.0,97.0,79.0,322.0,139,105,89,100,81,502,506,450
2025-02-20 16:31:27.529,-76.0,-51.0,373.0,85.0,38.0,299.0,139,101,87,105,81,474,483,446
2025-02-20 16:31:27.546,-209.0,66.0,433.0,68.0,-14.0,264.0,140,94,84,109,82,447,458,456
2025-02-20 16:31:27.564,-373.0,241.0,501.0,58.0,-55.0,211.0,141,89,81,110,94,431,453,468
2025-02-20 16:31:27.582,-480.0,462.0,592.0,56.0,-91.0,138.0,141,84,76,108,102,444,450,477
2025-02-20 16:31:27.602,-470.0,691.0,661.0,63.0,-115.0,84.0,142,79,69,94,107,445,444,475
2025-02-20 16:31:27.623,-437.0,1198.0,821.0,74.0,-124.0,8.0,142,76,67,89,115,476,454,472
2025-02-20 16:31:27.643,-722.0,1631.0,1082.0,160.0,-72.0,-120.0,142,74,66,85,123,460,474,467
2025-02-20 16:31:27.659,-845.0,2384.0,1060.0,277.0,-30.0,-319.0,142,74,64,89,127,461,472,464
2025-02-20 16:31:27.680,-614.0,2304.0,1042.0,353.0,-29.0,-457.0,143,72,63,92,129,457,464,472
2025-02-20 16:31:27.696,137.0,1436.0,1198.0,380.0,-19.0,-556.0,142,72,63,97,129,441,460,480
2025-02-20 16:31:27.717,1043.0,695.0,1593.0,355.0,-30.0,-571.0,143,71,65,99,129,441,473,482
2025-02-20 16:31:27.738,1463.0,-746.0,1987.0,294.0,-36.0,-444.0,143,70,65,101,127,430,498,482
2025-02-20 16:31:27.753,1630.0,-1292.0,2198.0,107.0,-30.0,-178.0,143,71,65,102,127,413,490,470
2025-02-20 16:31:27.774,1208.0,-1397.0,1895.0,-192.0,-46.0,23.0,143,71,65,103,127,397,462,454
2025-02-20 16:31:27.794,827.0,-1669.0,1296.0,-249.0,-51.0,168.0,143,70,65,102,128,414,437,458
2025-02-20 16:31:27.812,498.0,-1350.0,1031.0,-121.0,-19.0,238.0,143,72,66,101,127,469,427,480
2025-02-20 16:31:27.831,279.0,-460.0,1138.0,-12.0,18.0,272.0,143,73,68,99,128,474,418,462
2025-02-20 16:31:27.848,21.0,115.0,1275.0,9.0,40.0,283.0,142,74,70,100,128,481,418,439
2025-02-20 16:31:27.869,-20.0,300.0,1225.0,-5.0,55.0,266.0,143,75,70,100,129,487,449,439
2025-02-20 16:31:27.887,-267.0,742.0,1105.0,-35.0,51.0,195.0,143,75,70,96,129,499,465,448
