timestamp,ax,ay,az,gx,gy,gz,flex1,flex2,flex3,flex4,flex5,emg1,emg2,emg3
2025-02-19 16:40:41.782,-399.0,-236.0,933.0,-1.0,-2.0,0.0,134,116,104,137,148,515,442,465
2025-02-19 16:40:41.782,-400.0,-230.0,937.0,-2.0,-2.0,0.0,133,116,103,136,148,505,347,470
2025-02-19 16:40:41.792,-397.0,-231.0,936.0,-3.0,-2.0,1.0,135,117,105,137,149,496,279,472
2025-02-19 16:40:41.794,-400.0,-228.0,936.0,-3.0,-2.0,1.0,133,115,102,136,148,490,229,476
2025-02-19 16:40:41.797,-394.0,-224.0,936.0,-2.0,0.0,2.0,135,117,104,137,149,485,197,487
2025-02-19 16:40:41.799,-409.0,-210.0,927.0,-1.0,-1.0,1.0,135,116,104,137,149,480,184,495
2025-02-19 16:40:41.803,-413.0,-205.0,930.0,-1.0,-2.0,1.0,134,116,103,136,148,478,196,501
2025-02-19 16:40:41.806,-403.0,-198.0,943.0,-1.0,-1.0,1.0,135,117,104,137,149,475,253,505
2025-02-19 16:40:41.807,-397.0,-205.0,936.0,0.0,0.0,0.0,134,115,103,137,147,471,413,498
2025-02-19 16:40:41.826,-408.0,-192.0,926.0,-1.0,1.0,0.0,135,117,104,137,149,469,620,493
2025-02-19 16:40:41.843,-412.0,-200.0,904.0,-2.0,1.0,-2.0,134,115,103,136,151,465,823,484
2025-02-19 16:40:41.864,-406.0,-213.0,898.0,-1.0,0.0,-2.0,135,117,104,137,149,464,905,474
2025-02-19 16:40:41.882,-402.0,-220.0,891.0,0.0,-1.0,-2.0,135,117,104,137,149,461,947,463
2025-02-19 16:40:41.901,-394.0,-229.0,890.0,0.0,-1.0,-3.0,134,116,103,137,148,460,982,451
2025-02-19 16:40:41.921,-398.0,-247.0,895.0,0.0,-3.0,-2.0,135,117,104,137,149,459,1007,445
2025-02-19 16:40:41.936,-392.0,-241.0,913.0,1.0,-4.0,0.0,134,116,103,136,148,459,1019,445
2025-02-19 16:40:41.959,-399.0,-235.0,922.0,1.0,-4.0,0.0,135,117,105,137,149,459,1018,453
2025-02-19 16:40:41.978,-400.0,-228.0,934.0,1.0,-5.0,0.0,134,116,103,136,148,459,964,462
2025-02-19 16:40:41.993,-400.0,-213.0,949.0,-1.0,-5.0,0.0,135,117,104,137,149,460,839,480
2025-02-19 16:40:42.016,-393.0,-214.0,961.0,-2.0,-4.0,1.0,135,117,105,137,149,461,703,492
2025-02-19 16:40:42.031,-389.0,-202.0,968.0,-1.0,-2.0,1.0,134,116,103,136,148,463,570,496
2025-02-19 16:40:42.049,-403.0,-190.0,960.0,-2.0,1.0,0.0,135,117,105,137,149,464,445,496
2025-02-19 16:40:42.072,-408.0,-196.0,934.0,-2.0,1.0,-1.0,134,116,103,136,147,467,343,495
2025-02-19 16:40:42.092,-409.0,-193.0,925.0,-2.0,1.0,-2.0,134,117,104,136,149,469,281,495
2025-02-19 16:40:42.110,-404.0,-201.0,927.0,-2.0,1.0,-3.0,135,116,108,137,149,469,276,495
2025-02-19 16:40:42.130,-401.0,-207.0,935.0,-2.0,1.0,-3.0,134,116,102,136,149,471,336,493
2025-02-19 16:40:42.135,-406.0,-215.0,935.0,-3.0,2.0,-4.0,135,116,104,137,149,469,435,493
2025-02-19 16:40:42.167,-412.0,-231.0,922.0,-3.0,2.0,-4.0,134,116,103,136,148,469,560,490
2025-02-19 16:40:42.187,-422.0,-245.0,919.0,-2.0,1.0,-3.0,135,117,104,137,149,467,693,487
2025-02-19 16:40:42.207,-419.0,-253.0,932.0,-1.0,0.0,-2.0,134,116,103,137,148,466,782,481
2025-02-19 16:40:42.222,-400.0,-250.0,955.0,0.0,0.0,-1.0,135,117,104,138,149,466,834,471
2025-02-19 16:40:42.244,-390.0,-247.0,970.0,1.0,2.0,0.0,135,117,104,137,150,464,887,459
2025-02-19 16:40:42.262,-386.0,-226.0,964.0,1.0,5.0,1.0,134,116,103,136,149,464,941,449
2025-02-19 16:40:42.282,-391.0,-210.0,933.0,-2.0,6.0,1.0,135,117,104,137,149,463,982,442
2025-02-19 16:40:42.301,-401.0,-206.0,887.0,-4.0,6.0,1.0,134,116,103,136,152,464,1017,431
2025-02-19 16:40:42.305,-407.0,-208.0,862.0,-3.0,4.0,0.0,135,117,104,137,149,463,1018,428
2025-02-19 16:40:42.330,-402.0,-208.0,849.0,-1.0,2.0,-2.0,134,116,104,136,147,464,1017,422
2025-02-19 16:40:42.359,-400.0,-229.0,855.0,-1.0,0.0,-2.0,135,116,104,137,149,465,1018,421
2025-02-19 16:40:42.376,-394.0,-242.0,875.0,-1.0,-2.0,-1.0,135,116,104,137,149,465,921,424
2025-02-19 16:40:42.395,-400.0,-246.0,890.0,-3.0,-4.0,0.0,134,115,104,137,148,467,770,431
2025-02-19 16:40:42.405,-407.0,-252.0,907.0,-4.0,-6.0,1.0,135,117,104,137,149,469,590,446
2025-02-19 16:40:42.434,-396.0,-246.0,946.0,-2.0,-6.0,3.0,134,115,103,136,148,472,405,459
2025-02-19 16:40:42.450,-403.0,-224.0,958.0,-3.0,-4.0,5.0,134,116,104,137,149,474,249,477
2025-02-19 16:40:42.473,-413.0,-211.0,952.0,-3.0,-3.0,4.0,134,116,103,136,148,476,143,494
2025-02-19 16:40:42.488,-418.0,-197.0,954.0,-2.0,-2.0,4.0,135,116,104,137,149,477,90,501
2025-02-19 16:40:42.511,-422.0,-183.0,938.0,-1.0,-2.0,4.0,135,116,105,137,149,477,98,501
2025-02-19 16:40:42.528,-421.0,-173.0,940.0,0.0,-2.0,3.0,134,115,103,136,148,478,241,504
2025-02-19 16:40:42.548,-415.0,-183.0,948.0,1.0,-2.0,1.0,135,117,104,137,149,476,486,512
2025-02-19 16:40:42.568,-409.0,-189.0,950.0,3.0,0.0,0.0,134,115,103,137,148,474,767,517
2025-02-19 16:40:42.585,-404.0,-189.0,934.0,2.0,2.0,-1.0,135,116,105,138,149,472,863,522
2025-02-19 16:40:42.605,-400.0,-197.0,900.0,1.0,2.0,-2.0,133,115,103,136,148,470,896,517
2025-02-19 16:40:42.625,-398.0,-210.0,884.0,1.0,0.0,-3.0,135,117,104,137,149,469,922,508
2025-02-19 16:40:42.640,-392.0,-216.0,889.0,3.0,-1.0,-2.0,135,116,104,137,149,468,942,498
2025-02-19 16:40:42.662,-392.0,-211.0,903.0,2.0,-2.0,-2.0,134,116,103,137,148,468,965,486
2025-02-19 16:40:42.683,-393.0,-216.0,890.0,0.0,-2.0,-3.0,135,116,104,137,149,467,983,477
2025-02-19 16:40:42.700,-398.0,-216.0,880.0,-1.0,-3.0,-4.0,134,115,103,136,148,468,979,467
2025-02-19 16:40:42.718,-403.0,-219.0,877.0,-3.0,-6.0,-4.0,135,117,104,137,149,469,939,472
2025-02-19 16:40:42.735,-401.0,-233.0,877.0,-3.0,-8.0,-4.0,134,115,103,136,147,470,851,475
2025-02-19 16:40:42.755,-400.0,-226.0,877.0,-4.0,-7.0,-4.0,134,117,104,137,149,472,752,471
2025-02-19 16:40:42.776,-407.0,-224.0,863.0,-5.0,-9.0,-3.0,135,117,104,137,149,474,603,469
2025-02-19 16:40:42.794,-400.0,-217.0,885.0,-8.0,-13.0,-4.0,135,116,103,136,148,477,417,473
2025-02-19 16:40:42.814,-381.0,-217.0,875.0,-14.0,-17.0,-5.0,135,116,104,137,149,478,214,482
2025-02-19 16:40:42.834,-396.0,-223.0,869.0,-17.0,-20.0,-5.0,134,115,103,136,147,480,106,491
2025-02-19 16:40:42.851,-405.0,-200.0,871.0,-19.0,-23.0,-6.0,135,117,104,137,148,481,70,505
2025-02-19 16:40:42.871,-413.0,-198.0,843.0,-25.0,-25.0,-4.0,133,115,103,136,147,483,38,509
2025-02-19 16:40:42.892,-461.0,-159.0,791.0,-31.0,-33.0,-6.0,135,116,104,137,148,482,22,514
2025-02-19 16:40:42.908,-487.0,-132.0,752.0,-46.0,-47.0,-11.0,135,116,104,137,148,482,151,506
2025-02-19 16:40:42.929,-521.0,-129.0,748.0,-70.0,-69.0,-19.0,134,116,103,136,147,481,622,491
2025-02-19 16:40:42.948,-557.0,-189.0,873.0,-108.0,-98.0,-23.0,135,116,103,137,147,478,953,495
2025-02-19 16:40:42.966,-358.0,-466.0,1367.0,-147.0,-134.0,-20.0,134,115,99,135,145,475,936,505
2025-02-19 16:40:42.986,-44.0,-537.0,1907.0,-198.0,-93.0,-15.0,135,115,97,134,143,474,938,488
2025-02-19 16:40:43.003,45.0,-1033.0,2143.0,-242.0,-25.0,4.0,134,111,92,128,134,472,930,433
2025-02-19 16:40:43.023,337.0,-1293.0,2188.0,-208.0,81.0,32.0,135,105,87,127,124,472,962,362
2025-02-19 16:40:43.043,131.0,-1309.0,1813.0,-174.0,160.0,65.0,136,95,80,130,116,473,1017,304
2025-02-19 16:40:43.060,6.0,-1112.0,1524.0,-145.0,212.0,87.0,136,81,69,119,100,474,1018,273
2025-02-19 16:40:43.080,126.0,-754.0,1253.0,-169.0,257.0,101.0,138,74,65,107,88,476,1017,197
2025-02-19 16:40:43.100,-403.0,-734.0,1273.0,-199.0,269.0,122.0,137,69,60,99,82,479,1018,103
2025-02-19 16:40:43.117,-228.0,-459.0,637.0,-242.0,297.0,162.0,138,67,57,84,72,485,1006,25
2025-02-19 16:40:43.137,103.0,-296.0,441.0,-274.0,312.0,187.0,138,65,56,79,69,495,84,203
2025-02-19 16:40:43.157,-206.0,-96.0,-174.0,-236.0,285.0,205.0,136,65,56,76,70,493,45,531
2025-02-19 16:40:43.174,-359.0,336.0,-543.0,-191.0,215.0,208.0,133,65,56,73,68,484,91,816
2025-02-19 16:40:43.194,-533.0,1628.0,-882.0,-215.0,119.0,180.0,124,62,54,68,63,476,77,824
2025-02-19 16:40:43.210,-378.0,2198.0,-1285.0,-90.0,33.0,32.0,115,62,53,65,61,474,108,308
2025-02-19 16:40:43.232,-556.0,3130.0,-2058.0,136.0,-9.0,-268.0,109,60,52,63,59,476,263,12
2025-02-19 16:40:43.244,-939.0,3114.0,-2321.0,177.0,-262.0,-526.0,109,60,52,63,59,474,449,13
2025-02-19 16:40:43.268,-558.0,2818.0,-2302.0,195.0,-579.0,-707.0,111,61,54,64,62,460,753,110
2025-02-19 16:40:43.288,2383.0,2882.0,-1630.0,50.0,-1005.0,-965.0,115,61,53,60,63,448,676,129
2025-02-19 16:40:43.310,7127.0,-966.0,1454.0,-403.0,-940.0,-838.0,123,65,56,67,68,419,584,327
2025-02-19 16:40:43.326,7198.0,-6465.0,1267.0,-643.0,-184.0,-191.0,120,67,59,72,72,384,1018,577
2025-02-19 16:40:43.347,4204.0,-7021.0,-162.0,164.0,307.0,-77.0,120,67,59,73,76,337,1017,746
2025-02-19 16:40:43.367,1999.0,-4981.0,-625.0,276.0,314.0,244.0,120,66,57,73,76,305,1018,832
2025-02-19 16:40:43.384,1000.0,-2309.0,233.0,91.0,148.0,366.0,122,66,58,73,77,298,1017,615
2025-02-19 16:40:43.403,968.0,-1468.0,617.0,10.0,179.0,342.0,127,71,64,79,82,263,1018,562
2025-02-19 16:40:43.421,398.0,-1190.0,163.0,-12.0,202.0,381.0,121,65,58,73,78,272,1018,82
2025-02-19 16:40:43.440,83.0,-638.0,-27.0,7.0,175.0,393.0,128,73,66,81,86,204,1018,108
2025-02-19 16:40:43.461,98.0,-79.0,71.0,17.0,165.0,359.0,126,70,63,79,82,144,1018,441
2025-02-19 16:40:43.476,113.0,159.0,109.0,11.0,173.0,330.0,127,70,65,82,84,117,1018,339
2025-02-19 16:40:43.498,-215.0,221.0,-91.0,-5.0,151.0,305.0,124,67,62,79,82,119,1018,16
2025-02-19 16:40:43.518,-376.0,328.0,-74.0,-8.0,100.0,267.0,125,68,63,80,82,134,16,16
2025-02-19 16:40:43.535,-381.0,403.0,-3.0,12.0,72.0,225.0,126,69,64,81,84,153,17,83
2025-02-19 16:40:43.553,-285.0,634.0,-49.0,25.0,70.0,203.0,125,67,62,79,82,179,108,140
2025-02-19 16:40:43.572,-473.0,1017.0,-299.0,44.0,48.0,181.0,125,69,63,80,83,205,96,17
2025-02-19 16:40:43.593,-726.0,2286.0,-735.0,130.0,30.0,-15.0,122,67,61,78,80,230,15,15
2025-02-19 16:40:43.613,-1019.0,3316.0,-1249.0,233.0,-34.0,-325.0,120,69,63,78,79,250,16,17
2025-02-19 16:40:43.633,-1129.0,3606.0,-1584.0,144.0,-232.0,-593.0,117,66,61,75,76,272,14,254
2025-02-19 16:40:43.650,-163.0,3508.0,-1767.0,10.0,-624.0,-966.0,122,67,62,76,77,291,15,880
2025-02-19 16:40:43.670,5045.0,1291.0,-947.0,-289.0,-984.0,-1124.0,127,67,61,76,77,309,16,1010
2025-02-19 16:40:43.690,7101.0,-4606.0,2081.0,-477.0,-617.0,-506.0,124,68,60,77,76,327,47,1010
2025-02-19 16:40:43.707,6117.0,-7411.0,441.0,-182.0,68.0,-92.0,125,70,62,80,82,332,1019,1010
2025-02-19 16:40:43.727,3224.0,-5625.0,-787.0,287.0,278.0,147.0,123,66,58,77,80,317,1018,1010
2025-02-19 16:40:43.744,1288.0,-2353.0,-513.0,160.0,151.0,323.0,125,67,59,77,82,357,1017,923
2025-02-19 16:40:43.764,651.0,-1415.0,-1.0,19.0,75.0,301.0,126,65,57,75,81,402,1018,709
2025-02-19 16:40:43.784,772.0,-1403.0,283.0,-39.0,112.0,326.0,128,66,59,77,84,451,1017,433
2025-02-19 16:40:43.801,368.0,-1291.0,41.0,-28.0,111.0,372.0,131,69,63,82,87,475,1018,16
2025-02-19 16:40:43.821,241.0,-761.0,85.0,-12.0,91.0,387.0,135,71,66,84,90,358,1018,19
2025-02-19 16:40:43.838,236.0,-387.0,133.0,-58.0,59.0,385.0,134,67,62,81,86,321,726,14
2025-02-19 16:40:43.858,152.0,-366.0,222.0,-92.0,32.0,388.0,136,66,61,80,86,352,14,30
2025-02-19 16:40:43.879,142.0,-347.0,305.0,-71.0,29.0,387.0,142,68,63,82,86,385,14,144
2025-02-19 16:40:43.896,37.0,-291.0,288.0,-26.0,40.0,385.0,137,66,61,79,84,433,11,12
2025-02-19 16:40:43.916,-74.0,149.0,169.0,66.0,65.0,302.0,143,69,65,82,87,465,15,84
2025-02-19 16:40:43.936,-166.0,431.0,134.0,130.0,105.0,219.0,146,70,66,83,87,456,15,486
2025-02-19 16:40:43.953,-448.0,788.0,123.0,102.0,107.0,163.0,146,69,65,81,85,444,77,836
2025-02-19 16:40:43.973,-602.0,1688.0,59.0,91.0,106.0,64.0,149,70,66,80,83,432,79,959
2025-02-19 16:40:43.993,-602.0,3109.0,-461.0,134.0,122.0,-181.0,149,70,66,78,78,414,53,1005
2025-02-19 16:40:44.011,-1239.0,3352.0,-1308.0,80.0,25.0,-398.0,147,70,65,77,77,371,18,1009
2025-02-19 16:40:44.031,-1176.0,3380.0,-1709.0,26.0,-186.0,-645.0,144,68,64,74,76,341,17,1009
2025-02-19 16:40:44.050,-14.0,3308.0,-1796.0,-50.0,-554.0,-967.0,145,69,63,74,77,321,18,815
2025-02-19 16:40:44.068,4768.0,1437.0,-1599.0,-366.0,-867.0,-1079.0,150,69,63,76,79,310,19,341
2025-02-19 16:40:44.088,6793.0,-4602.0,-192.0,-638.0,-684.0,-600.0,147,69,61,76,78,300,1016,116
2025-02-19 16:40:44.105,6103.0,-8079.0,173.0,42.0,115.0,-193.0,138,70,62,77,84,302,1018,18
2025-02-19 16:40:44.125,3213.0,-4703.0,-2019.0,381.0,350.0,72.0,133,66,57,74,82,309,1017,14
2025-02-19 16:40:44.144,717.0,-2401.0,-1443.0,143.0,40.0,213.0,137,70,61,77,85,308,970,37
2025-02-19 16:40:44.162,1125.0,-1989.0,232.0,12.0,-23.0,223.0,138,69,62,78,80,313,1018,626
2025-02-19 16:40:44.182,882.0,-1913.0,418.0,75.0,96.0,265.0,138,70,63,79,85,310,1018,1010
2025-02-19 16:40:44.202,451.0,-1348.0,99.0,106.0,145.0,317.0,144,77,70,85,90,237,1018,1009
2025-02-19 16:40:44.220,149.0,-550.0,-101.0,83.0,130.0,339.0,144,75,68,83,90,155,1018,1011
2025-02-19 16:40:44.239,33.0,4.0,105.0,82.0,108.0,266.0,144,75,69,84,90,99,1017,951
2025-02-19 16:40:44.250,-102.0,1.0,173.0,46.0,99.0,207.0,142,73,68,82,89,72,1018,560
2025-02-19 16:40:44.276,-1.0,-143.0,285.0,-8.0,99.0,197.0,141,73,69,83,89,64,1018,599
2025-02-19 16:40:44.297,-158.0,-352.0,116.0,-51.0,83.0,219.0,141,74,68,83,89,66,259,694
2025-02-19 16:40:44.313,-76.0,-168.0,219.0,13.0,69.0,177.0,140,73,67,82,88,75,332,1002
2025-02-19 16:40:44.333,-18.0,-306.0,395.0,71.0,123.0,164.0,142,74,69,84,89,84,60,992
2025-02-19 16:40:44.353,-234.0,-457.0,101.0,70.0,144.0,190.0,140,72,67,82,88,93,19,1010
2025-02-19 16:40:44.371,-479.0,-388.0,-161.0,85.0,105.0,198.0,141,74,69,83,88,101,21,1006
2025-02-19 16:40:44.391,-454.0,-290.0,-105.0,88.0,68.0,193.0,139,70,65,80,86,126,18,615
2025-02-19 16:40:44.411,-441.0,-285.0,-13.0,115.0,50.0,196.0,139,71,66,80,85,168,39,18
2025-02-19 16:40:44.429,-320.0,278.0,-11.0,245.0,69.0,171.0,140,71,66,81,85,201,698,17
2025-02-19 16:40:44.448,-692.0,2263.0,-527.0,332.0,139.0,-2.0,139,70,65,79,82,231,1018,16
2025-02-19 16:40:44.468,-1939.0,3936.0,-1442.0,117.0,18.0,-301.0,138,71,66,79,80,254,990,19
2025-02-19 16:40:44.485,-1946.0,4366.0,-2447.0,-136.0,-317.0,-782.0,137,68,62,74,77,281,793,50
2025-02-19 16:40:44.506,1345.0,4291.0,-2944.0,-444.0,-864.0,-1128.0,142,70,63,76,80,303,540,571
2025-02-19 16:40:44.526,7616.0,-700.0,-899.0,-569.0,-905.0,-942.0,142,68,61,77,80,328,47,1011
2025-02-19 16:40:44.543,7019.0,-7180.0,817.0,-511.0,-199.0,-360.0,142,77,69,84,89,258,1016,1009
2025-02-19 16:40:44.562,3946.0,-7319.0,-1345.0,223.0,242.0,-42.0,137,71,63,81,87,211,1018,730
2025-02-19 16:40:44.580,1404.0,-2875.0,-1682.0,193.0,142.0,148.0,137,68,58,75,83,267,1018,54
2025-02-19 16:40:44.600,938.0,-2031.0,-141.0,20.0,12.0,201.0,138,69,60,76,84,335,1017,54
2025-02-19 16:40:44.620,672.0,-1970.0,455.0,79.0,76.0,208.0,137,67,59,76,82,387,1018,394
2025-02-19 16:40:44.637,209.0,-1427.0,255.0,86.0,143.0,268.0,139,69,61,77,84,428,1018,1007
2025-02-19 16:40:44.657,47.0,-848.0,43.0,47.0,119.0,290.0,141,70,63,78,86,399,1018,1010
2025-02-19 16:40:44.677,324.0,-506.0,268.0,3.0,117.0,278.0,141,71,63,79,87,421,16,1010
2025-02-19 16:40:44.694,283.0,-659.0,302.0,-24.0,140.0,252.0,143,72,67,82,90,398,19,1010
2025-02-19 16:40:44.714,441.0,-847.0,371.0,-7.0,177.0,262.0,140,71,66,82,90,390,463,1010
2025-02-19 16:40:44.732,266.0,-884.0,142.0,25.0,190.0,285.0,140,72,67,85,93,389,870,1011
2025-02-19 16:40:44.752,235.0,-618.0,53.0,69.0,181.0,317.0,138,71,67,85,95,403,811,1011
2025-02-19 16:40:44.772,393.0,-642.0,235.0,114.0,208.0,328.0,139,75,69,93,100,417,814,900
2025-02-19 16:40:44.789,23.0,-453.0,16.0,180.0,259.0,338.0,135,75,69,96,101,436,276,64
2025-02-19 16:40:44.809,-44.0,-207.0,-52.0,241.0,265.0,332.0,136,80,72,104,107,458,16,17
2025-02-19 16:40:44.828,-567.0,-112.0,-241.0,282.0,231.0,312.0,136,84,75,111,111,475,17,16
2025-02-19 16:40:44.846,-455.0,26.0,-524.0,267.0,191.0,287.0,134,87,78,118,114,490,16,15
2025-02-19 16:40:44.866,-513.0,451.0,-877.0,283.0,104.0,279.0,134,94,84,124,120,501,16,23
2025-02-19 16:40:44.886,-772.0,1173.0,-1452.0,271.0,24.0,203.0,133,98,87,127,123,508,15,294
2025-02-19 16:40:44.903,-1219.0,2060.0,-2118.0,189.0,-139.0,10.0,136,105,93,131,129,510,17,732
2025-02-19 16:40:44.924,-1279.0,2937.0,-2363.0,-75.0,-314.0,-397.0,136,110,96,132,127,492,16,1010
2025-02-19 16:40:44.943,1077.0,3312.0,-2120.0,-260.0,-336.0,-833.0,137,116,104,138,137,464,21,1011
2025-02-19 16:40:44.961,2779.0,-204.0,-1292.0,-340.0,-888.0,-911.0,137,129,107,142,148,411,151,1010
2025-02-19 16:40:44.981,2348.0,-3355.0,1831.0,-418.0,-796.0,-885.0,140,136,109,142,154,375,792,1010
2025-02-19 16:40:44.992,4311.0,-4197.0,245.0,-93.0,-614.0,-467.0,145,139,113,145,159,345,1017,1010
2025-02-19 16:40:45.018,4685.0,-4862.0,364.0,22.0,-243.0,101.0,143,137,112,144,157,325,1018,815
2025-02-19 16:40:45.038,1674.0,-2987.0,634.0,205.0,38.0,216.0,145,137,112,143,156,332,1018,20
2025-02-19 16:40:45.055,276.0,-1486.0,960.0,172.0,155.0,227.0,146,136,109,142,154,382,1018,15
2025-02-19 16:40:45.075,-227.0,-768.0,603.0,48.0,125.0,210.0,146,137,110,142,154,428,1018,15
2025-02-19 16:40:45.095,19.0,-932.0,946.0,-194.0,104.0,218.0,147,137,111,143,155,472,1018,15
2025-02-19 16:40:45.112,-10.0,-1118.0,718.0,-161.0,144.0,238.0,145,135,110,141,154,514,881,274
2025-02-19 16:40:45.132,57.0,-1066.0,562.0,-107.0,237.0,278.0,147,136,111,142,154,543,15,642
2025-02-19 16:40:45.152,187.0,-548.0,146.0,15.0,270.0,283.0,146,134,110,141,154,565,14,988
2025-02-19 16:40:45.170,67.0,-263.0,-24.0,20.0,234.0,271.0,148,136,113,144,156,547,17,997
2025-02-19 16:40:45.190,-50.0,-167.0,-12.0,-60.0,182.0,238.0,146,135,112,143,155,535,746,798
2025-02-19 16:40:45.210,-71.0,-212.0,86.0,-44.0,134.0,218.0,144,133,111,142,154,532,673,77
2025-02-19 16:40:45.226,-112.0,-338.0,91.0,21.0,146.0,210.0,144,134,113,143,152,520,487,18
2025-02-19 16:40:45.246,-192.0,-245.0,64.0,78.0,159.0,198.0,143,132,112,142,149,510,17,16
2025-02-19 16:40:45.264,-461.0,-89.0,-143.0,93.0,149.0,190.0,144,132,113,144,148,491,18,18
2025-02-19 16:40:45.284,-493.0,341.0,-133.0,104.0,114.0,169.0,142,130,112,142,146,476,17,127
2025-02-19 16:40:45.303,-584.0,769.0,-631.0,151.0,41.0,101.0,143,130,113,143,145,461,18,829
2025-02-19 16:40:45.321,-898.0,1147.0,-1152.0,261.0,-5.0,-51.0,142,131,114,144,145,447,18,1010
2025-02-19 16:40:45.341,-1581.0,2115.0,-2135.0,230.0,-245.0,-372.0,139,132,113,143,146,424,18,1010
2025-02-19 16:40:45.361,-727.0,2015.0,-958.0,205.0,-522.0,-677.0,138,135,115,144,149,410,18,1009
2025-02-19 16:40:45.378,1647.0,458.0,-315.0,-167.0,-814.0,-898.0,139,136,113,143,152,403,325,877
2025-02-19 16:40:45.399,3088.0,-1958.0,-22.0,-202.0,-855.0,-747.0,143,139,114,145,156,397,910,1011
2025-02-19 16:40:45.419,5013.0,-4973.0,500.0,142.0,-544.0,-279.0,143,135,112,143,156,390,1018,1010
2025-02-19 16:40:45.435,3310.0,-4325.0,1361.0,285.0,-42.0,190.0,147,139,115,146,157,341,1018,541
2025-02-19 16:40:45.456,1440.0,-1982.0,1141.0,98.0,187.0,142.0,145,136,112,143,153,382,1018,16
2025-02-19 16:40:45.473,-39.0,-982.0,1115.0,16.0,205.0,131.0,145,135,110,142,151,453,1018,13
2025-02-19 16:40:45.493,238.0,-1325.0,373.0,-141.0,120.0,150.0,146,137,112,143,152,491,1018,99
2025-02-19 16:40:45.512,371.0,-1425.0,581.0,-166.0,114.0,215.0,144,134,109,140,150,536,1018,12
2025-02-19 16:40:45.528,-1.0,-1066.0,445.0,-92.0,136.0,248.0,144,134,108,140,150,587,1018,185
2025-02-19 16:40:45.550,108.0,-682.0,437.0,-62.0,202.0,251.0,143,129,104,138,148,626,754,384
2025-02-19 16:40:45.570,453.0,-241.0,31.0,-85.0,231.0,184.0,148,126,101,141,150,652,479,541
2025-02-19 16:40:45.587,-17.0,-646.0,476.0,-28.0,198.0,195.0,152,117,94,142,144,534,404,1011
2025-02-19 16:40:45.608,-220.0,-718.0,188.0,-46.0,143.0,203.0,148,102,82,134,120,476,835,460
2025-02-19 16:40:45.624,-256.0,-670.0,100.0,5.0,88.0,220.0,149,96,79,131,109,448,876,19
2025-02-19 16:40:45.644,-225.0,-371.0,80.0,38.0,110.0,187.0,147,86,74,124,97,434,839,26
2025-02-19 16:40:45.663,-264.0,-304.0,298.0,90.0,152.0,188.0,148,82,72,118,94,429,788,248
2025-02-19 16:40:45.680,-469.0,-236.0,76.0,39.0,126.0,153.0,150,77,66,106,90,427,720,390
2025-02-19 16:40:45.701,-679.0,121.0,-91.0,5.0,37.0,75.0,148,78,67,101,89,428,330,699
2025-02-19 16:40:45.721,-522.0,914.0,-452.0,5.0,-3.0,-44.0,149,80,68,97,85,429,19,973
2025-02-19 16:40:45.737,-687.0,1219.0,-885.0,68.0,-7.0,-176.0,148,74,63,86,77,432,330,1010
2025-02-19 16:40:45.759,-1356.0,1870.0,-1225.0,54.0,-123.0,-297.0,149,70,60,77,71,433,710,986
2025-02-19 16:40:45.779,-1201.0,2662.0,-1840.0,-5.0,-346.0,-502.0,148,67,57,72,67,435,1018,754
2025-02-19 16:40:45.797,291.0,2227.0,-1550.0,-141.0,-651.0,-691.0,151,69,60,74,70,438,911,433
2025-02-19 16:40:45.816,2537.0,664.0,-1050.0,-395.0,-803.0,-718.0,152,66,57,74,69,445,443,199
2025-02-19 16:40:45.837,5347.0,-3263.0,886.0,-498.0,-514.0,-474.0,154,68,58,77,72,452,216,19
2025-02-19 16:40:45.854,5304.0,-6092.0,698.0,-23.0,99.0,-188.0,154,67,57,77,75,470,420,17
2025-02-19 16:40:45.874,2741.0,-4560.0,-1018.0,253.0,264.0,64.0,151,64,54,75,75,506,293,14
2025-02-19 16:40:45.890,1253.0,-2777.0,-821.0,40.0,106.0,190.0,152,67,57,78,77,547,198,14
2025-02-19 16:40:45.910,1163.0,-2580.0,235.0,-24.0,87.0,236.0,151,66,56,77,76,581,318,145
2025-02-19 16:40:45.931,901.0,-2306.0,210.0,22.0,137.0,325.0,152,68,57,79,79,611,183,226
2025-02-19 16:40:45.948,484.0,-1694.0,-91.0,48.0,158.0,397.0,151,67,57,79,78,630,363,53
2025-02-19 16:40:45.969,459.0,-876.0,-94.0,65.0,132.0,422.0,153,69,60,81,81,620,963,16
2025-02-19 16:40:45.988,347.0,-174.0,168.0,123.0,128.0,335.0,156,73,63,84,83,599,962,373
2025-02-19 16:40:46.005,21.0,119.0,136.0,130.0,148.0,239.0,154,71,62,83,82,551,480,443
2025-02-19 16:40:46.026,-257.0,38.0,87.0,27.0,124.0,235.0,155,73,64,85,84,524,19,227
2025-02-19 16:40:46.040,-255.0,92.0,27.0,28.0,94.0,178.0,153,72,62,84,82,502,17,158
2025-02-19 16:40:46.062,-270.0,125.0,67.0,85.0,86.0,113.0,153,72,64,85,83,489,18,18
2025-02-19 16:40:46.081,-306.0,196.0,155.0,44.0,85.0,109.0,152,71,62,84,82,481,561,16
2025-02-19 16:40:46.100,-385.0,85.0,88.0,44.0,88.0,69.0,152,72,63,85,82,477,965,35
2025-02-19 16:40:46.119,-583.0,503.0,85.0,45.0,79.0,11.0,153,73,64,85,83,479,13,252
2025-02-19 16:40:46.139,-700.0,1516.0,-60.0,33.0,66.0,-142.0,151,72,62,83,80,481,16,350
2025-02-19 16:40:46.154,-1164.0,1764.0,-556.0,15.0,8.0,-253.0,149,72,63,84,80,480,1017,80
2025-02-19 16:40:46.177,-1426.0,2441.0,-1252.0,0.0,-117.0,-400.0,148,71,62,80,78,481,1018,16
2025-02-19 16:40:46.189,-1008.0,3016.0,-1743.0,-143.0,-394.0,-664.0,150,71,61,79,78,483,1018,16
2025-02-19 16:40:46.214,1888.0,1898.0,-1699.0,-407.0,-697.0,-873.0,153,71,61,78,79,486,517,18
2025-02-19 16:40:46.234,5184.0,-1357.0,-801.0,-667.0,-640.0,-698.0,153,69,59,77,78,493,115,94
2025-02-19 16:40:46.251,6623.0,-7473.0,588.0,-188.0,-8.0,-273.0,154,69,59,77,79,498,679,520
2025-02-19 16:40:46.269,3583.0,-4807.0,-1885.0,439.0,336.0,93.0,151,67,56,76,80,499,1019,848
2025-02-19 16:40:46.291,916.0,-1636.0,-2089.0,61.0,46.0,133.0,154,70,59,79,83,476,1018,918
2025-02-19 16:40:46.312,1068.0,-2317.0,-239.0,-58.0,-65.0,135.0,153,69,59,79,82,467,1018,845
2025-02-19 16:40:46.328,983.0,-2153.0,186.0,66.0,45.0,185.0,154,70,59,79,82,468,1017,846
2025-02-19 16:40:46.348,516.0,-1436.0,-116.0,118.0,90.0,217.0,153,70,60,80,82,467,1018,851
2025-02-19 16:40:46.366,389.0,-1025.0,-171.0,116.0,86.0,233.0,152,69,60,79,80,501,1018,786
2025-02-19 16:40:46.384,283.0,-766.0,-152.0,25.0,55.0,250.0,153,70,62,81,83,526,1018,692
2025-02-19 16:40:46.406,543.0,-699.0,162.0,-2.0,56.0,236.0,151,71,63,82,82,549,1018,353
2025-02-19 16:40:46.423,696.0,-960.0,245.0,66.0,111.0,238.0,152,73,65,86,84,570,1018,15
2025-02-19 16:40:46.443,565.0,-1017.0,162.0,162.0,170.0,273.0,152,75,68,90,86,567,1017,29
2025-02-19 16:40:46.463,532.0,-786.0,184.0,198.0,217.0,320.0,157,83,76,96,92,460,1018,395
2025-02-19 16:40:46.480,522.0,-755.0,37.0,197.0,265.0,366.0,155,86,78,95,90,389,1018,869
2025-02-19 16:40:46.501,328.0,-485.0,-123.0,189.0,297.0,370.0,152,90,81,94,89,381,979,1004
2025-02-19 16:40:46.521,289.0,-170.0,-151.0,214.0,338.0,373.0,153,96,87,97,91,379,709,911
2025-02-19 16:40:46.538,308.0,188.0,-447.0,260.0,375.0,374.0,150,101,90,98,91,383,18,1007
2025-02-19 16:40:46.558,-455.0,829.0,-735.0,239.0,340.0,359.0,151,107,97,96,91,389,19,996
2025-02-19 16:40:46.578,-1224.0,1707.0,-1676.0,87.0,127.0,229.0,149,111,100,90,88,395,16,984
2025-02-19 16:40:46.595,-1423.0,1965.0,-2142.0,72.0,-154.0,-117.0,149,119,106,90,88,401,18,1010
2025-02-19 16:40:46.615,-1112.0,2640.0,-1936.0,196.0,-352.0,-437.0,144,123,108,86,85,423,16,1011
2025-02-19 16:40:46.631,-198.0,1947.0,-1576.0,145.0,-607.0,-654.0,142,126,109,85,84,472,25,1010
2025-02-19 16:40:46.652,536.0,883.0,-702.0,1.0,-969.0,-710.0,144,131,112,87,86,517,78,1011
2025-02-19 16:40:46.673,2295.0,-2075.0,-8.0,-14.0,-1093.0,-603.0,142,134,111,89,86,559,678,1011
2025-02-19 16:40:46.689,4697.0,-3249.0,2259.0,-64.0,-521.0,-263.0,145,140,114,93,90,595,1017,978
2025-02-19 16:40:46.709,4424.0,-4507.0,2015.0,27.0,-2.0,58.0,143,138,113,91,90,607,1017,258
2025-02-19 16:40:46.730,1896.0,-2785.0,1626.0,221.0,244.0,111.0,150,145,120,97,97,586,1018,21
2025-02-19 16:40:46.747,502.0,-1304.0,1217.0,93.0,187.0,134.0,148,144,119,96,95,495,1018,19
2025-02-19 16:40:46.767,534.0,-1343.0,1129.0,-46.0,122.0,173.0,149,145,120,97,97,430,1018,20
2025-02-19 16:40:46.787,375.0,-1354.0,1009.0,-42.0,151.0,202.0,149,145,118,96,97,390,1018,19
2025-02-19 16:40:46.803,179.0,-774.0,825.0,-35.0,205.0,208.0,147,142,119,90,95,388,429,161
2025-02-19 16:40:46.820,62.0,-537.0,559.0,-33.0,245.0,206.0,148,143,118,95,97,395,540,278
2025-02-19 16:40:46.838,-11.0,-502.0,339.0,-20.0,250.0,198.0,146,141,114,92,94,417,920,241
2025-02-19 16:40:46.861,-129.0,-394.0,242.0,-12.0,208.0,196.0,147,142,116,93,95,449,880,298
2025-02-19 16:40:46.881,-214.0,-199.0,177.0,-17.0,158.0,178.0,146,141,116,92,94,481,934,150
2025-02-19 16:40:46.898,-189.0,-139.0,284.0,-26.0,146.0,141.0,145,140,115,92,93,517,1004,15
2025-02-19 16:40:46.918,-114.0,-202.0,334.0,-16.0,184.0,120.0,148,144,118,96,98,496,614,18
2025-02-19 16:40:46.938,-258.0,-316.0,263.0,21.0,213.0,131.0,148,142,117,94,96,475,399,249
2025-02-19 16:40:46.954,-520.0,-29.0,58.0,36.0,197.0,152.0,148,142,117,94,97,469,583,532
2025-02-19 16:40:46.971,-681.0,524.0,-221.0,-22.0,144.0,136.0,147,140,116,91,94,482,643,949
2025-02-19 16:40:46.995,-963.0,842.0,-814.0,-53.0,44.0,69.0,148,140,117,89,95,497,17,1011
2025-02-19 16:40:47.014,-1239.0,1358.0,-1652.0,137.0,-101.0,-111.0,148,140,117,87,94,508,16,1010
2025-02-19 16:40:47.033,-1343.0,3053.0,-1686.0,249.0,-303.0,-421.0,147,140,117,86,92,519,16,1009
2025-02-19 16:40:47.053,-730.0,3167.0,-1220.0,-73.0,-669.0,-668.0,148,141,118,88,92,527,17,982
2025-02-19 16:40:47.070,2065.0,288.0,114.0,-244.0,-847.0,-774.0,147,140,117,87,90,537,96,929
2025-02-19 16:40:47.089,4253.0,-2322.0,660.0,-115.0,-713.0,-593.0,147,141,116,88,94,560,772,1010
2025-02-19 16:40:47.111,5632.0,-5042.0,1566.0,33.0,-131.0,-189.0,146,140,115,88,97,582,1017,1010
2025-02-19 16:40:47.127,3164.0,-3779.0,1426.0,157.0,180.0,81.0,145,141,116,89,98,582,1018,649
2025-02-19 16:40:47.147,787.0,-2008.0,1127.0,40.0,114.0,105.0,148,143,117,90,97,586,443,201
2025-02-19 16:40:47.164,470.0,-1786.0,1016.0,-81.0,31.0,147.0,146,142,115,88,97,593,421,14
2025-02-19 16:40:47.184,522.0,-1729.0,986.0,-7.0,96.0,168.0,147,142,116,89,99,601,817,14
2025-02-19 16:40:47.205,320.0,-1065.0,839.0,28.0,155.0,177.0,146,141,115,89,99,603,588,15
2025-02-19 16:40:47.222,197.0,-715.0,796.0,-2.0,182.0,183.0,148,142,115,90,100,608,105,23
2025-02-19 16:40:47.239,264.0,-572.0,637.0,-48.0,185.0,181.0,146,141,115,90,100,614,107,242
2025-02-19 16:40:47.256,221.0,-585.0,487.0,-76.0,165.0,179.0,148,139,112,92,101,617,536,718
2025-02-19 16:40:47.279,162.0,-626.0,416.0,-90.0,146.0,191.0,148,137,110,98,104,617,1017,496
2025-02-19 16:40:47.299,195.0,-640.0,467.0,-96.0,164.0,213.0,146,131,105,102,104,634,1018,13
2025-02-19 16:40:47.316,145.0,-303.0,470.0,-87.0,202.0,221.0,146,125,98,106,106,655,1018,34
2025-02-19 16:40:47.335,-5.0,-364.0,320.0,-89.0,219.0,206.0,146,109,84,108,104,674,1018,346
2025-02-19 16:40:47.354,-159.0,-363.0,249.0,-37.0,248.0,193.0,147,92,74,109,104,691,209,467
2025-02-19 16:40:47.372,-324.0,-105.0,18.0,8.0,233.0,181.0,147,84,71,109,103,706,405,360
2025-02-19 16:40:47.393,-394.0,356.0,-163.0,45.0,213.0,114.0,147,78,68,108,100,716,465,798
2025-02-19 16:40:47.414,-795.0,1073.0,-489.0,48.0,155.0,18.0,148,77,65,105,97,720,14,1010
2025-02-19 16:40:47.431,-1093.0,1615.0,-1314.0,-24.0,29.0,-150.0,145,74,61,93,86,726,12,1010
2025-02-19 16:40:47.450,-1234.0,1851.0,-1706.0,5.0,-202.0,-311.0,144,71,60,84,76,729,14,1010
2025-02-19 16:40:47.469,-705.0,2352.0,-1614.0,3.0,-357.0,-525.0,142,66,56,78,73,730,12,1010
2025-02-19 16:40:47.488,354.0,2165.0,-1561.0,-139.0,-666.0,-699.0,144,66,55,78,75,731,12,977
2025-02-19 16:40:47.508,3211.0,826.0,-722.0,-488.0,-769.0,-776.0,147,66,55,78,76,732,14,651
2025-02-19 16:40:47.525,5578.0,-4543.0,965.0,-433.0,-456.0,-447.0,147,65,55,79,78,733,12,788
2025-02-19 16:40:47.545,4630.0,-6084.0,-5.0,109.0,141.0,-150.0,148,65,55,79,82,731,185,1009
2025-02-19 16:40:47.565,1968.0,-3656.0,-1322.0,204.0,159.0,68.0,148,64,54,79,83,724,980,501
2025-02-19 16:40:47.582,1074.0,-2547.0,-646.0,2.0,-12.0,133.0,149,66,56,80,84,718,1018,14
2025-02-19 16:40:47.602,1199.0,-2621.0,269.0,38.0,16.0,157.0,148,65,55,78,82,719,1018,13
2025-02-19 16:40:47.621,821.0,-2171.0,84.0,89.0,78.0,231.0,149,67,57,79,84,722,1018,20
2025-02-19 16:40:47.639,547.0,-1569.0,-60.0,97.0,80.0,266.0,150,68,57,81,85,713,1018,14
2025-02-19 16:40:47.660,315.0,-722.0,49.0,91.0,60.0,236.0,149,67,57,81,82,706,1018,16
2025-02-19 16:40:47.676,234.0,-490.0,177.0,30.0,48.0,225.0,150,69,57,82,85,700,1018,14
2025-02-19 16:40:47.696,223.0,-530.0,262.0,3.0,43.0,219.0,149,67,58,81,84,696,1018,25
2025-02-19 16:40:47.716,196.0,-607.0,158.0,2.0,44.0,252.0,150,69,60,84,85,690,1018,417
2025-02-19 16:40:47.733,271.0,-26.0,210.0,65.0,55.0,198.0,151,70,60,84,85,660,1018,725
2025-02-19 16:40:47.754,-173.0,78.0,103.0,38.0,62.0,158.0,152,71,62,85,88,623,1018,739
2025-02-19 16:40:47.774,-189.0,111.0,119.0,21.0,56.0,119.0,152,71,62,85,86,598,1018,455
2025-02-19 16:40:47.790,-266.0,41.0,155.0,33.0,57.0,93.0,151,70,60,83,86,586,1018,220
2025-02-19 16:40:47.811,-526.0,398.0,125.0,57.0,60.0,54.0,151,71,62,79,86,578,15,281
2025-02-19 16:40:47.832,-761.0,1163.0,56.0,50.0,50.0,-38.0,150,70,60,83,85,575,216,316
2025-02-19 16:40:47.849,-1117.0,1432.0,-137.0,44.0,32.0,-132.0,152,72,61,84,86,567,1018,345
2025-02-19 16:40:47.869,-1216.0,1630.0,-395.0,78.0,-21.0,-228.0,150,71,61,82,84,562,1018,308
2025-02-19 16:40:47.889,-1071.0,1826.0,-689.0,56.0,-158.0,-380.0,151,72,62,84,85,562,537,65
2025-02-19 16:40:47.905,236.0,1345.0,-598.0,-144.0,-329.0,-527.0,153,72,61,84,86,562,16,28
2025-02-19 16:40:47.924,2917.0,-1865.0,413.0,-316.0,-382.0,-491.0,153,71,59,83,85,563,14,343
2025-02-19 16:40:47.945,4128.0,-5061.0,701.0,-142.0,-116.0,-276.0,153,71,60,83,85,564,226,291
2025-02-19 16:40:47.961,3117.0,-5245.0,-147.0,146.0,102.0,0.0,152,69,58,81,84,571,13,13
2025-02-19 16:40:47.983,1538.0,-3330.0,-322.0,143.0,99.0,126.0,154,70,59,82,85,574,15,14
2025-02-19 16:40:48.000,1056.0,-2489.0,235.0,68.0,68.0,168.0,152,69,56,81,84,583,12,12
2025-02-19 16:40:48.020,784.0,-2242.0,478.0,89.0,112.0,228.0,152,69,59,82,84,597,301,81
2025-02-19 16:40:48.041,669.0,-1891.0,365.0,101.0,162.0,288.0,151,71,61,82,86,615,1018,13
2025-02-19 16:40:48.057,644.0,-1294.0,236.0,121.0,192.0,324.0,149,69,60,83,86,634,1018,12
2025-02-19 16:40:48.076,549.0,-654.0,471.0,126.0,226.0,311.0,149,70,62,86,88,650,1019,14
2025-02-19 16:40:48.097,527.0,-542.0,500.0,112.0,294.0,301.0,147,68,61,87,89,661,1018,47
2025-02-19 16:40:48.111,384.0,-692.0,181.0,97.0,317.0,337.0,147,69,62,88,91,670,698,540
2025-02-19 16:40:48.134,438.0,-420.0,29.0,134.0,314.0,357.0,146,71,62,92,93,671,623,1009
2025-02-19 16:40:48.151,322.0,-362.0,40.0,203.0,350.0,345.0,144,70,63,96,96,675,603,431
2025-02-19 16:40:48.172,203.0,117.0,-128.0,149.0,402.0,345.0,146,72,65,100,96,675,68,470
2025-02-19 16:40:48.191,-64.0,-119.0,-65.0,104.0,380.0,356.0,144,71,64,98,87,668,276,12
2025-02-19 16:40:48.209,-303.0,31.0,-434.0,127.0,302.0,338.0,148,77,69,100,89,618,557,310
2025-02-19 16:40:48.227,-488.0,277.0,-775.0,152.0,232.0,297.0,146,75,68,97,88,542,29,914
2025-02-19 16:40:48.249,-492.0,842.0,-909.0,133.0,130.0,203.0,146,75,69,98,87,487,17,1011
2025-02-19 16:40:48.266,-653.0,1065.0,-1126.0,90.0,30.0,87.0,145,75,69,95,86,446,16,1011
2025-02-19 16:40:48.287,-410.0,1357.0,-1738.0,92.0,-100.0,-91.0,136,74,67,91,82,417,16,1011
2025-02-19 16:40:48.307,-670.0,1461.0,-2812.0,135.0,-319.0,-244.0,129,74,66,87,79,391,767,1010
2025-02-19 16:40:48.324,-878.0,1061.0,-3984.0,222.0,-727.0,-337.0,121,70,61,80,75,377,1019,1010
2025-02-19 16:40:48.342,1464.0,587.0,-3377.0,307.0,-1132.0,-281.0,119,70,61,80,81,372,794,1011
2025-02-19 16:40:48.358,3437.0,168.0,-1525.0,436.0,-1466.0,-184.0,121,70,60,83,84,371,17,984
2025-02-19 16:40:48.381,5684.0,-1008.0,3519.0,446.0,-1002.0,32.0,130,71,62,86,92,382,16,650
2025-02-19 16:40:48.400,4407.0,220.0,6211.0,200.0,-246.0,72.0,135,75,66,90,100,405,188,841
2025-02-19 16:40:48.418,2249.0,254.0,5401.0,-31.0,182.0,-31.0,127,71,62,87,95,445,13,444
2025-02-19 16:40:48.438,898.0,-108.0,3733.0,-116.0,281.0,-4.0,126,73,63,88,94,459,1016,14
2025-02-19 16:40:48.457,434.0,213.0,2666.0,-217.0,346.0,-11.0,125,72,61,86,89,470,1018,178
2025-02-19 16:40:48.475,406.0,-333.0,1717.0,-228.0,414.0,-10.0,128,73,63,86,91,484,1018,548
2025-02-19 16:40:48.493,89.0,-798.0,836.0,-118.0,431.0,16.0,129,72,62,87,89,478,14,653
2025-02-19 16:40:48.515,-309.0,-346.0,354.0,-62.0,378.0,46.0,128,72,62,85,86,494,13,479
2025-02-19 16:40:48.530,-363.0,-92.0,211.0,-90.0,323.0,17.0,127,71,62,85,87,511,13,64
2025-02-19 16:40:48.553,-121.0,-49.0,330.0,-127.0,296.0,23.0,126,70,61,84,87,527,13,12
2025-02-19 16:40:48.573,-338.0,-230.0,261.0,-126.0,246.0,37.0,128,72,63,86,88,538,17,13
2025-02-19 16:40:48.590,-472.0,-304.0,221.0,-96.0,187.0,54.0,130,72,64,87,89,514,96,15
2025-02-19 16:40:48.610,-316.0,-106.0,391.0,-94.0,146.0,54.0,132,74,66,89,91,488,15,15
2025-02-19 16:40:48.627,-205.0,88.0,418.0,-113.0,168.0,11.0,130,72,64,87,89,478,14,14
2025-02-19 16:40:48.646,-337.0,-38.0,144.0,-124.0,179.0,-8.0,131,74,65,89,89,477,15,116
2025-02-19 16:40:48.667,-584.0,-100.0,-388.0,-103.0,134.0,-5.0,132,74,66,90,89,473,15,324
2025-02-19 16:40:48.684,-540.0,99.0,-761.0,-70.0,61.0,-13.0,129,73,64,88,88,468,14,682
2025-02-19 16:40:48.704,-517.0,383.0,-1674.0,35.0,-37.0,-80.0,127,73,65,90,86,464,1018,1009
2025-02-19 16:40:48.724,-1259.0,355.0,-3345.0,219.0,-310.0,-139.0,122,70,61,84,80,462,1017,1010
2025-02-19 16:40:48.741,-566.0,1023.0,-3572.0,342.0,-792.0,-161.0,127,76,67,87,86,458,1016,1011
2025-02-19 16:40:48.761,1662.0,1130.0,-1926.0,289.0,-1133.0,-146.0,125,74,66,86,86,378,978,839
2025-02-19 16:40:48.781,4270.0,-1124.0,2388.0,274.0,-919.0,-2.0,135,77,67,89,93,327,1018,903
2025-02-19 16:40:48.796,3933.0,-617.0,5724.0,178.0,-249.0,61.0,135,78,68,89,93,298,991,1011
2025-02-19 16:40:48.819,2368.0,-312.0,5107.0,-18.0,93.0,-38.0,131,77,66,88,92,295,988,968
2025-02-19 16:40:48.832,852.0,-784.0,3845.0,-86.0,201.0,1.0,133,77,67,89,93,301,628,1010
2025-02-19 16:40:48.855,455.0,-514.0,2715.0,-156.0,271.0,9.0,134,76,65,88,92,314,383,1010
2025-02-19 16:40:48.876,327.0,-982.0,1868.0,-156.0,330.0,35.0,137,78,68,92,95,315,1018,1010
2025-02-19 16:40:48.892,181.0,-998.0,1108.0,-113.0,367.0,85.0,137,75,65,91,92,333,1018,1010
2025-02-19 16:40:48.912,-194.0,-362.0,622.0,-85.0,347.0,68.0,140,78,68,93,96,344,1018,907
2025-02-19 16:40:48.933,-228.0,-313.0,470.0,-66.0,334.0,58.0,140,77,68,93,96,354,1015,287
2025-02-19 16:40:48.950,-168.0,-273.0,352.0,-50.0,329.0,80.0,139,76,67,93,95,371,461,14
2025-02-19 16:40:48.970,-99.0,-140.0,363.0,-49.0,317.0,93.0,141,77,70,94,97,385,17,16
2025-02-19 16:40:48.990,-174.0,-147.0,224.0,-72.0,299.0,118.0,142,78,70,96,92,392,15,16
2025-02-19 16:40:49.007,-259.0,-250.0,52.0,-71.0,275.0,138.0,142,80,69,95,97,398,15,16
2025-02-19 16:40:49.027,-92.0,-165.0,20.0,-43.0,265.0,147.0,141,82,68,93,95,424,13,14
2025-02-19 16:40:49.043,-202.0,-70.0,-182.0,-12.0,253.0,151.0,141,89,70,93,96,444,16,15
2025-02-19 16:40:49.065,-516.0,-88.0,-726.0,38.0,202.0,129.0,142,94,70,94,96,453,16,96
2025-02-19 16:40:49.085,-1187.0,295.0,-1510.0,150.0,53.0,42.0,143,100,71,92,93,436,1018,430
2025-02-19 16:40:49.105,-1600.0,664.0,-2234.0,252.0,-289.0,-86.0,143,110,70,88,88,400,1018,686
2025-02-19 16:40:49.122,-849.0,779.0,-2923.0,236.0,-650.0,-160.0,133,115,67,83,80,374,1018,853
2025-02-19 16:40:49.142,1052.0,475.0,-3019.0,248.0,-1039.0,-92.0,124,120,66,80,81,359,1018,744
2025-02-19 16:40:49.159,2346.0,36.0,-2039.0,326.0,-1230.0,12.0,119,122,64,82,83,347,1017,808
2025-02-19 16:40:49.178,4093.0,-425.0,103.0,494.0,-1152.0,95.0,125,125,64,85,86,341,780,755
2025-02-19 16:40:49.199,4157.0,129.0,3020.0,481.0,-736.0,151.0,134,129,65,85,91,339,17,731
2025-02-19 16:40:49.217,3522.0,1927.0,4710.0,233.0,-275.0,85.0,135,130,63,86,91,373,14,770
2025-02-19 16:40:49.236,2607.0,1444.0,4265.0,-77.0,122.0,49.0,133,132,64,87,92,409,323,770
2025-02-19 16:40:49.257,1709.0,1262.0,2637.0,-219.0,274.0,13.0,129,130,61,86,90,447,701,505
2025-02-19 16:40:49.274,1045.0,579.0,1737.0,-231.0,351.0,-37.0,129,131,63,88,92,486,483,606
2025-02-19 16:40:49.294,691.0,249.0,1341.0,-180.0,398.0,-78.0,137,136,69,96,99,456,21,776
2025-02-19 16:40:49.313,469.0,-128.0,1073.0,-160.0,438.0,-74.0,140,138,72,98,101,322,490,653
2025-02-19 16:40:49.329,280.0,-293.0,666.0,-125.0,419.0,-33.0,139,139,74,102,101,197,1019,539
2025-02-19 16:40:49.351,115.0,-35.0,343.0,-115.0,344.0,-5.0,133,136,72,99,98,101,1018,842
2025-02-19 16:40:49.368,122.0,7.0,582.0,-133.0,277.0,-18.0,135,138,76,103,102,27,1017,805
2025-02-19 16:40:49.388,137.0,-128.0,653.0,-141.0,283.0,-9.0,135,133,72,100,99,22,1018,384
2025-02-19 16:40:49.408,-209.0,-345.0,276.0,-84.0,255.0,11.0,132,130,70,98,98,41,155,166
2025-02-19 16:40:49.425,-357.0,-205.0,178.0,-20.0,187.0,22.0,130,131,71,99,97,60,21,355
2025-02-19 16:40:49.444,-368.0,-23.0,410.0,-50.0,141.0,29.0,127,129,68,96,94,93,34,741
2025-02-19 16:40:49.465,-312.0,-59.0,476.0,-97.0,145.0,42.0,129,129,68,95,94,137,702,1010
2025-02-19 16:40:49.481,-414.0,-191.0,342.0,-99.0,142.0,45.0,127,129,67,95,93,188,996,1010
2025-02-19 16:40:49.503,-648.0,-362.0,232.0,-18.0,114.0,49.0,126,130,68,96,93,231,741,1011
2025-02-19 16:40:49.516,-557.0,-76.0,257.0,46.0,81.0,30.0,123,127,66,95,90,269,537,1011
2025-02-19 16:40:49.540,-634.0,345.0,334.0,33.0,70.0,8.0,123,128,67,96,91,304,293,1010
2025-02-19 16:40:49.560,-850.0,483.0,-495.0,1.0,17.0,-41.0,119,128,66,94,90,328,323,1011
2025-02-19 16:40:49.577,-1539.0,6.0,-2134.0,134.0,-241.0,-131.0,110,124,62,89,83,351,844,1009
2025-02-19 16:40:49.598,-719.0,-44.0,-3053.0,350.0,-755.0,-53.0,106,122,62,86,81,366,1018,1009
2025-02-19 16:40:49.617,1256.0,709.0,-2027.0,326.0,-1023.0,57.0,108,122,61,85,81,380,1018,1010
2025-02-19 16:40:49.633,2369.0,-42.0,699.0,214.0,-895.0,132.0,114,125,64,88,84,393,1018,1009
2025-02-19 16:40:49.654,3102.0,291.0,3418.0,84.0,-530.0,136.0,118,123,63,86,84,404,1018,1011
2025-02-19 16:40:49.674,3086.0,389.0,4038.0,22.0,-133.0,33.0,120,121,66,88,87,415,1018,961
2025-02-19 16:40:49.692,2374.0,408.0,3879.0,-36.0,71.0,-13.0,120,118,66,89,89,430,1018,507
2025-02-19 16:40:49.711,1598.0,411.0,3436.0,-164.0,219.0,-14.0,122,113,65,88,89,448,1018,42
2025-02-19 16:40:49.732,1155.0,140.0,2572.0,-303.0,368.0,2.0,132,110,68,91,91,460,1018,17
2025-02-19 16:40:49.748,872.0,-44.0,1728.0,-369.0,471.0,31.0,136,106,68,93,93,470,623,16
2025-02-19 16:40:49.769,810.0,64.0,1261.0,-420.0,591.0,62.0,141,108,72,99,98,457,578,18
2025-02-19 16:40:49.784,450.0,-24.0,360.0,-443.0,608.0,91.0,141,105,71,99,98,454,16,15
2025-02-19 16:40:49.803,311.0,-10.0,330.0,-381.0,556.0,125.0,143,98,73,101,101,454,17,18
2025-02-19 16:40:49.826,456.0,170.0,66.0,-331.0,535.0,98.0,142,94,75,103,101,453,18,71
2025-02-19 16:40:49.843,255.0,-162.0,-499.0,-246.0,473.0,80.0,140,92,74,106,105,469,15,134
2025-02-19 16:40:49.863,-375.0,-244.0,-806.0,-81.0,313.0,97.0,139,96,78,115,116,475,18,88
2025-02-19 16:40:49.884,-371.0,-117.0,-725.0,8.0,226.0,102.0,136,96,81,121,120,479,16,230
2025-02-19 16:40:49.901,-585.0,-262.0,-941.0,47.0,174.0,79.0,139,104,88,128,129,453,18,656
2025-02-19 16:40:49.921,-665.0,-9.0,-646.0,80.0,103.0,50.0,137,108,92,132,131,417,18,947
2025-02-19 16:40:49.940,-802.0,431.0,-908.0,-6.0,-59.0,-24.0,137,114,97,136,135,381,20,874
2025-02-19 16:40:49.958,-626.0,621.0,-1182.0,-87.0,-201.0,-115.0,137,119,100,138,135,351,476,910
2025-02-19 16:40:49.977,-872.0,773.0,-1329.0,-78.0,-316.0,-313.0,135,123,100,136,133,327,360,1003
2025-02-19 16:40:49.998,-609.0,1122.0,-560.0,-60.0,-317.0,-531.0,139,135,104,138,140,306,467,1009
2025-02-19 16:40:50.015,58.0,1708.0,992.0,-92.0,-663.0,-757.0,139,133,105,137,147,295,854,1010
2025-02-19 16:40:50.033,1908.0,3.0,-438.0,-236.0,-880.0,-789.0,138,139,108,139,150,289,1016,1010
2025-02-19 16:40:50.056,3813.0,-2228.0,524.0,-250.0,-697.0,-567.0,137,140,107,140,151,286,1018,931
2025-02-19 16:40:50.072,4378.0,-3711.0,561.0,18.0,-345.0,-200.0,136,141,110,142,152,290,464,575
2025-02-19 16:40:50.093,3880.0,-3901.0,1469.0,80.0,-57.0,129.0,139,144,111,143,153,275,354,21
2025-02-19 16:40:50.109,1563.0,-2395.0,1418.0,205.0,244.0,176.0,137,141,108,141,150,273,1018,18
2025-02-19 16:40:50.130,479.0,-1525.0,1157.0,84.0,264.0,221.0,136,143,110,143,151,293,1018,19
2025-02-19 16:40:50.150,285.0,-1126.0,672.0,4.0,224.0,247.0,140,144,111,143,151,299,1018,20
2025-02-19 16:40:50.166,146.0,-967.0,643.0,-97.0,218.0,265.0,141,143,111,144,151,281,1018,151
2025-02-19 16:40:50.187,143.0,-786.0,265.0,-91.0,233.0,251.0,139,142,110,142,150,282,78,532
2025-02-19 16:40:50.207,-41.0,-717.0,164.0,-59.0,216.0,255.0,138,140,109,141,149,297,18,1010
2025-02-19 16:40:50.224,-64.0,-745.0,123.0,30.0,180.0,245.0,139,141,110,143,150,316,579,1010
2025-02-19 16:40:50.244,26.0,-603.0,146.0,52.0,146.0,236.0,138,140,109,142,148,329,1018,1010
2025-02-19 16:40:50.261,-103.0,-410.0,220.0,12.0,126.0,216.0,140,141,110,143,150,333,998,1010
2025-02-19 16:40:50.281,-302.0,-346.0,184.0,-7.0,94.0,176.0,139,139,109,141,148,340,974,917
2025-02-19 16:40:50.301,-351.0,-318.0,117.0,-32.0,61.0,132.0,139,140,110,142,148,348,922,593
2025-02-19 16:40:50.319,-367.0,-410.0,232.0,-36.0,61.0,102.0,139,140,111,142,148,357,1000,26
2025-02-19 16:40:50.339,-333.0,-499.0,340.0,-13.0,87.0,100.0,137,139,109,141,145,374,925,22
2025-02-19 16:40:50.359,-457.0,-519.0,361.0,19.0,106.0,103.0,139,134,110,142,147,388,767,142
2025-02-19 16:40:50.375,-504.0,-245.0,277.0,45.0,114.0,86.0,138,137,109,141,144,402,792,49
2025-02-19 16:40:50.395,-570.0,125.0,261.0,27.0,135.0,56.0,139,138,111,142,146,412,939,52
2025-02-19 16:40:50.413,-649.0,518.0,-209.0,26.0,116.0,14.0,137,136,110,141,143,419,1018,201
2025-02-19 16:40:50.432,-957.0,1004.0,-756.0,91.0,23.0,-140.0,136,137,112,141,143,423,1017,637
2025-02-19 16:40:50.453,-1644.0,1372.0,-1493.0,159.0,-178.0,-366.0,138,138,113,142,144,422,861,1010
2025-02-19 16:40:50.474,-1072.0,1686.0,-1154.0,148.0,-469.0,-681.0,139,139,111,141,145,426,567,1000
2025-02-19 16:40:50.491,1105.0,766.0,-40.0,-93.0,-689.0,-802.0,136,142,112,143,148,421,19,914
2025-02-19 16:40:50.510,2941.0,-947.0,-238.0,-181.0,-707.0,-673.0,134,143,110,141,149,421,17,812
2025-02-19 16:40:50.531,4923.0,-3555.0,1073.0,-33.0,-418.0,-361.0,135,144,111,143,153,419,43,1010
2025-02-19 16:40:50.547,3079.0,-4499.0,993.0,81.0,-83.0,22.0,133,143,109,141,150,423,17,284
2025-02-19 16:40:50.568,1907.0,-3133.0,1253.0,233.0,213.0,146.0,137,147,110,143,153,424,150,21
2025-02-19 16:40:50.584,681.0,-1848.0,1061.0,201.0,261.0,180.0,139,147,107,142,151,380,662,21
2025-02-19 16:40:50.605,362.0,-1373.0,663.0,145.0,222.0,211.0,137,145,99,139,145,371,630,18
2025-02-19 16:40:50.625,398.0,-1360.0,561.0,71.0,194.0,231.0,139,145,91,135,135,366,386,20
2025-02-19 16:40:50.642,532.0,-1120.0,357.0,67.0,211.0,242.0,137,141,81,127,120,360,21,102
2025-02-19 16:40:50.662,250.0,-1305.0,477.0,143.0,221.0,257.0,140,139,77,120,103,351,21,1006
2025-02-19 16:40:50.681,401.0,-1037.0,386.0,189.0,252.0,277.0,139,130,71,114,95,345,217,1012
2025-02-19 16:40:50.699,495.0,-571.0,518.0,220.0,314.0,284.0,140,124,71,108,92,346,811,1010
2025-02-19 16:40:50.719,205.0,-311.0,413.0,216.0,354.0,277.0,140,117,68,99,87,351,995,694
2025-02-19 16:40:50.737,-94.0,-56.0,243.0,174.0,351.0,265.0,137,110,65,92,78,375,392,116
2025-02-19 16:40:50.756,-74.0,154.0,132.0,117.0,341.0,245.0,138,108,67,83,78,385,20,15
2025-02-19 16:40:50.776,-148.0,187.0,-86.0,101.0,335.0,200.0,135,104,65,82,74,390,43,17
2025-02-19 16:40:50.794,-507.0,370.0,-335.0,101.0,292.0,160.0,131,105,66,85,76,395,52,55
2025-02-19 16:40:50.813,-834.0,538.0,-1105.0,92.0,178.0,96.0,119,100,62,78,71,408,17,25
2025-02-19 16:40:50.831,-1318.0,528.0,-1799.0,137.0,-70.0,-36.0,115,99,63,74,73,425,215,504
2025-02-19 16:40:50.851,-1422.0,643.0,-2505.0,216.0,-410.0,-141.0,107,100,61,75,69,432,289,1010
2025-02-19 16:40:50.870,-751.0,552.0,-2962.0,210.0,-829.0,-128.0,100,105,59,72,69,444,485,931
2025-02-19 16:40:50.891,1919.0,244.0,-2058.0,221.0,-1211.0,-56.0,102,112,60,75,68,446,1017,1010
2025-02-19 16:40:50.907,3644.0,-734.0,-92.0,367.0,-1164.0,16.0,103,117,59,72,76,449,1018,1010
2025-02-19 16:40:50.928,3436.0,-518.0,2128.0,538.0,-804.0,84.0,117,124,62,82,88,451,1018,691
2025-02-19 16:40:50.945,3236.0,802.0,4520.0,328.0,-275.0,128.0,121,125,62,83,89,438,1016,19
2025-02-19 16:40:50.966,2162.0,1726.0,4758.0,-112.0,138.0,28.0,123,126,65,86,91,427,1018,20
2025-02-19 16:40:50.986,1390.0,910.0,2619.0,-287.0,267.0,-2.0,121,119,65,87,90,418,1018,19
2025-02-19 16:40:51.003,906.0,212.0,1903.0,-202.0,307.0,-29.0,125,119,69,92,94,377,992,24
2025-02-19 16:40:51.022,558.0,48.0,1606.0,-123.0,376.0,-65.0,125,116,67,92,94,328,414,22
2025-02-19 16:40:51.042,381.0,33.0,1196.0,-139.0,423.0,-74.0,130,120,70,95,94,305,24,152
2025-02-19 16:40:51.060,114.0,-377.0,770.0,-136.0,407.0,-27.0,125,121,68,93,91,260,22,735
2025-02-19 16:40:51.080,-155.0,-502.0,415.0,-94.0,349.0,29.0,120,122,66,91,86,247,19,1011
2025-02-19 16:40:51.097,-13.0,-233.0,383.0,-70.0,287.0,52.0,119,122,66,91,87,252,20,1011
2025-02-19 16:40:51.117,-85.0,27.0,441.0,-81.0,252.0,40.0,123,124,68,93,90,266,21,1011
2025-02-19 16:40:51.135,-275.0,-48.0,413.0,-86.0,229.0,15.0,124,125,67,93,91,280,20,497
2025-02-19 16:40:51.154,-476.0,-236.0,264.0,-50.0,181.0,16.0,126,129,72,98,96,251,255,25
2025-02-19 16:40:51.174,-454.0,-162.0,189.0,-21.0,111.0,13.0,121,127,70,95,92,201,268,22
2025-02-19 16:40:51.194,-410.0,-11.0,376.0,-39.0,75.0,6.0,122,128,70,96,93,192,376,23
2025-02-19 16:40:51.211,-317.0,-68.0,581.0,-93.0,98.0,17.0,123,128,71,97,93,183,1015,23
2025-02-19 16:40:51.232,-441.0,-375.0,504.0,-87.0,114.0,54.0,122,127,70,95,93,179,1019,22
2025-02-19 16:40:51.251,-529.0,-418.0,424.0,-23.0,105.0,89.0,122,128,71,97,94,175,1018,176
2025-02-19 16:40:51.269,-642.0,-74.0,298.0,27.0,71.0,75.0,119,126,70,95,92,171,1019,450
2025-02-19 16:40:51.289,-698.0,421.0,43.0,33.0,35.0,3.0,119,127,71,95,91,184,1010,734
2025-02-19 16:40:51.309,-1173.0,659.0,-1006.0,60.0,-81.0,-130.0,113,120,66,91,87,199,867,890
2025-02-19 16:40:51.326,-1385.0,253.0,-1776.0,153.0,-409.0,-185.0,109,111,67,89,84,214,560,1010
2025-02-19 16:40:51.346,-172.0,42.0,-1573.0,236.0,-735.0,-68.0,108,108,66,89,84,228,366,1010
2025-02-19 16:40:51.366,1238.0,325.0,-478.0,216.0,-900.0,-46.0,111,108,67,88,85,242,487,1011
2025-02-19 16:40:51.383,2109.0,-558.0,915.0,183.0,-843.0,-6.0,121,108,68,92,89,254,367,937
2025-02-19 16:40:51.403,2970.0,-930.0,3069.0,227.0,-527.0,137.0,127,108,65,92,92,278,20,330
2025-02-19 16:40:51.421,2561.0,143.0,4125.0,38.0,-115.0,116.0,131,110,70,96,97,301,631,97
2025-02-19 16:40:51.440,1685.0,462.0,3508.0,-158.0,106.0,55.0,130,105,70,96,97,320,889,80
2025-02-19 16:40:51.461,951.0,-35.0,2458.0,-232.0,223.0,40.0,134,103,71,96,97,340,894,20
2025-02-19 16:40:51.473,735.0,-243.0,1763.0,-214.0,291.0,46.0,139,104,75,103,101,352,956,22
2025-02-19 16:40:51.498,520.0,-385.0,1419.0,-217.0,368.0,52.0,142,105,78,107,102,329,1009,333
2025-02-19 16:40:51.517,424.0,-450.0,1108.0,-195.0,439.0,70.0,144,108,83,109,103,316,999,606
2025-02-19 16:40:51.535,311.0,-367.0,757.0,-179.0,465.0,95.0,143,108,84,109,100,308,613,1009
2025-02-19 16:40:51.555,210.0,-173.0,512.0,-168.0,441.0,105.0,145,111,89,110,103,304,23,1010
2025-02-19 16:40:51.575,193.0,-215.0,291.0,-158.0,414.0,118.0,143,107,91,108,101,301,128,1011
2025-02-19 16:40:51.590,-11.0,-286.0,318.0,-128.0,392.0,134.0,145,117,97,111,102,301,395,1011
2025-02-19 16:40:51.607,-178.0,-267.0,128.0,-63.0,378.0,135.0,145,121,100,115,99,307,459,995
2025-02-19 16:40:51.629,-324.0,-167.0,43.0,-50.0,349.0,134.0,147,127,105,119,102,316,291,878
2025-02-19 16:40:51.649,-512.0,72.0,-145.0,-49.0,290.0,116.0,146,126,106,118,100,293,414,1010
2025-02-19 16:40:51.669,-388.0,47.0,-400.0,-46.0,235.0,70.0,143,126,107,115,101,292,698,1009
2025-02-19 16:40:51.687,-671.0,127.0,-464.0,39.0,181.0,32.0,147,130,112,117,105,290,807,1010
2025-02-19 16:40:51.705,-846.0,634.0,-959.0,50.0,96.0,-11.0,143,128,111,112,102,294,613,799
2025-02-19 16:40:51.727,-1079.0,959.0,-1473.0,45.0,-95.0,-135.0,146,133,115,112,102,303,156,615
2025-02-19 16:40:51.744,-1372.0,1533.0,-1718.0,86.0,-307.0,-322.0,148,135,117,109,99,304,23,735
2025-02-19 16:40:51.764,-660.0,1849.0,-1763.0,13.0,-595.0,-587.0,146,136,117,106,96,307,21,782
2025-02-19 16:40:51.784,409.0,1651.0,-1449.0,-102.0,-1005.0,-752.0,147,139,119,107,96,305,22,822
2025-02-19 16:40:51.802,2605.0,-150.0,-1471.0,-386.0,-1262.0,-764.0,145,142,117,109,99,309,175,1011
2025-02-19 16:40:51.822,5701.0,-4122.0,1896.0,-322.0,-738.0,-420.0,145,147,119,113,106,305,1018,825
2025-02-19 16:40:51.841,5239.0,-5044.0,1083.0,-90.0,-69.0,61.0,140,145,116,111,110,300,984,279
2025-02-19 16:40:51.858,2855.0,-3569.0,1019.0,377.0,310.0,146.0,146,148,120,114,115,285,1018,29
2025-02-19 16:40:51.878,595.0,-1298.0,1121.0,327.0,316.0,133.0,151,151,124,116,118,206,1019,28
2025-02-19 16:40:51.896,195.0,-890.0,974.0,66.0,207.0,174.0,146,146,118,109,109,210,1018,23
2025-02-19 16:40:51.915,146.0,-1060.0,882.0,-41.0,165.0,201.0,147,148,119,112,112,220,1017,23
2025-02-19 16:40:51.936,77.0,-719.0,597.0,-40.0,188.0,216.0,142,142,113,106,107,278,1018,54
2025-02-19 16:40:51.953,-66.0,-546.0,549.0,-5.0,250.0,216.0,144,144,116,108,108,369,1018,677
2025-02-19 16:40:51.973,236.0,-499.0,558.0,36.0,278.0,219.0,142,142,114,105,101,434,651,1010
2025-02-19 16:40:51.989,-121.0,-418.0,344.0,90.0,257.0,208.0,143,144,115,107,103,497,46,1010
2025-02-19 16:40:52.006,-83.0,-224.0,396.0,92.0,236.0,188.0,145,144,116,108,102,547,35,1010
2025-02-19 16:40:52.030,-227.0,-86.0,348.0,28.0,217.0,167.0,143,142,115,108,107,579,17,894
2025-02-19 16:40:52.047,-355.0,-188.0,383.0,7.0,207.0,143.0,147,147,120,114,109,563,234,245
2025-02-19 16:40:52.067,-451.0,-244.0,323.0,8.0,192.0,120.0,146,145,118,112,108,537,576,20
2025-02-19 16:40:52.087,-483.0,-211.0,358.0,13.0,196.0,86.0,146,145,119,112,109,528,205,21
2025-02-19 16:40:52.104,-468.0,-183.0,270.0,23.0,202.0,64.0,145,143,118,111,107,528,599,101
2025-02-19 16:40:52.123,-771.0,166.0,-7.0,17.0,178.0,62.0,145,143,118,112,107,531,861,387
2025-02-19 16:40:52.140,-791.0,681.0,-525.0,-41.0,106.0,25.0,147,144,119,112,110,532,1018,905
2025-02-19 16:40:52.160,-1092.0,567.0,-1255.0,50.0,-22.0,-157.0,146,140,118,106,105,533,777,1011
2025-02-19 16:40:52.182,-1645.0,951.0,-1720.0,235.0,-298.0,-347.0,145,144,119,100,99,532,852,1010
2025-02-19 16:40:52.201,-1056.0,944.0,-1518.0,155.0,-618.0,-451.0,139,142,117,95,95,533,968,1010
2025-02-19 16:40:52.220,959.0,1676.0,-1370.0,26.0,-1032.0,-462.0,140,144,118,99,100,533,1018,1010
2025-02-19 16:40:52.239,3281.0,133.0,701.0,-337.0,-1086.0,-502.0,140,146,118,98,107,532,1018,1010
2025-02-19 16:40:52.257,4456.0,-3921.0,1859.0,-221.0,-408.0,-197.0,138,146,117,104,114,538,1018,518
2025-02-19 16:40:52.274,4013.0,-4189.0,1902.0,174.0,75.0,51.0,140,149,119,108,122,517,1018,23
2025-02-19 16:40:52.296,1791.0,-1841.0,1543.0,279.0,231.0,48.0,136,143,113,102,116,540,1018,17
2025-02-19 16:40:52.310,384.0,-904.0,1564.0,-29.0,139.0,44.0,138,145,115,103,117,582,1017,19
2025-02-19 16:40:52.334,562.0,-1543.0,1166.0,-123.0,135.0,85.0,138,144,113,103,116,611,1018,16
2025-02-19 16:40:52.353,556.0,-1660.0,845.0,-69.0,191.0,146.0,137,143,113,102,115,652,607,15
2025-02-19 16:40:52.370,357.0,-1169.0,642.0,31.0,250.0,175.0,139,142,113,102,114,703,16,43
2025-02-19 16:40:52.391,130.0,-838.0,480.0,73.0,287.0,175.0,140,140,111,101,111,743,14,433
2025-02-19 16:40:52.410,-83.0,-736.0,467.0,68.0,299.0,183.0,143,143,109,102,110,772,16,931
2025-02-19 16:40:52.426,53.0,-539.0,470.0,62.0,291.0,182.0,143,142,102,103,109,779,965,640
2025-02-19 16:40:52.448,32.0,-557.0,441.0,77.0,288.0,210.0,144,140,88,104,110,793,1018,16
2025-02-19 16:40:52.455,23.0,-627.0,411.0,147.0,307.0,208.0,143,136,76,104,108,791,1018,15
2025-02-19 16:40:52.485,-106.0,-234.0,249.0,164.0,312.0,194.0,143,135,70,103,106,803,1018,16
2025-02-19 16:40:52.505,-332.0,-73.0,117.0,140.0,291.0,165.0,144,130,67,101,104,812,946,16
2025-02-19 16:40:52.522,-498.0,-171.0,-10.0,144.0,263.0,154.0,142,126,64,96,100,823,16,16
2025-02-19 16:40:52.541,-647.0,128.0,-111.0,123.0,222.0,136.0,142,120,64,93,97,830,15,262
2025-02-19 16:40:52.559,-848.0,391.0,-598.0,79.0,136.0,77.0,138,108,61,90,94,835,15,820
2025-02-19 16:40:52.580,-1282.0,185.0,-1484.0,113.0,-82.0,4.0,130,103,61,85,89,836,121,1010
2025-02-19 16:40:52.600,-1281.0,237.0,-1816.0,234.0,-351.0,-55.0,121,99,58,82,81,837,237,1010
2025-02-19 16:40:52.619,-358.0,604.0,-1717.0,213.0,-651.0,-70.0,115,100,58,80,81,839,157,1010
2025-02-19 16:40:52.636,208.0,73.0,-1697.0,195.0,-909.0,-46.0,109,99,57,77,80,837,190,969
2025-02-19 16:40:52.656,2534.0,-433.0,-734.0,315.0,-999.0,11.0,108,102,56,75,82,837,14,1010
2025-02-19 16:40:52.675,2704.0,-322.0,832.0,455.0,-873.0,70.0,116,110,57,81,87,833,15,973
2025-02-19 16:40:52.693,2808.0,166.0,3109.0,372.0,-536.0,138.0,122,114,57,82,88,831,177,728
2025-02-19 16:40:52.714,2525.0,1407.0,4080.0,100.0,-123.0,111.0,126,118,60,84,92,827,1017,58
2025-02-19 16:40:52.730,1883.0,1314.0,3555.0,-141.0,144.0,43.0,124,117,58,84,91,821,1018,13
2025-02-19 16:40:52.752,1333.0,736.0,2527.0,-215.0,306.0,-15.0,125,118,60,88,93,824,1018,14
2025-02-19 16:40:52.771,866.0,367.0,1678.0,-184.0,366.0,-49.0,127,118,61,89,96,826,16,14
2025-02-19 16:40:52.788,546.0,-121.0,1399.0,-147.0,407.0,-52.0,130,118,62,91,97,815,15,362
2025-02-19 16:40:52.808,502.0,-139.0,1184.0,-134.0,449.0,-21.0,132,121,63,93,97,797,16,1010
2025-02-19 16:40:52.825,276.0,-42.0,775.0,-149.0,435.0,7.0,127,121,61,92,95,786,14,1010
2025-02-19 16:40:52.845,-6.0,-124.0,560.0,-148.0,373.0,-1.0,126,122,62,87,96,778,15,1010
2025-02-19 16:40:52.866,62.0,-64.0,489.0,-143.0,346.0,-1.0,126,121,61,88,94,784,13,1009
2025-02-19 16:40:52.882,-23.0,-181.0,410.0,-111.0,326.0,9.0,128,123,62,92,96,792,15,692
2025-02-19 16:40:52.903,-219.0,-243.0,248.0,-68.0,297.0,23.0,126,123,61,91,93,817,113,84
2025-02-19 16:40:52.923,-395.0,-189.0,105.0,-39.0,235.0,40.0,122,123,60,90,91,836,176,12
2025-02-19 16:40:52.940,-348.0,-54.0,102.0,-57.0,178.0,49.0,122,125,61,91,91,847,1018,13
2025-02-19 16:40:52.959,-445.0,62.0,-59.0,-83.0,150.0,67.0,121,124,60,90,90,860,1018,29
2025-02-19 16:40:52.976,-770.0,268.0,-847.0,-56.0,59.0,6.0,120,125,61,90,90,872,1017,136
2025-02-19 16:40:52.996,-1464.0,228.0,-2174.0,162.0,-178.0,-103.0,114,124,57,86,84,880,1018,355
2025-02-19 16:40:53.017,-1057.0,923.0,-2657.0,278.0,-582.0,-180.0,111,126,57,82,81,887,957,803
2025-02-19 16:40:53.037,142.0,890.0,-2430.0,209.0,-915.0,-95.0,109,128,56,79,80,892,729,760
2025-02-19 16:40:53.054,2065.0,-159.0,-935.0,166.0,-1054.0,8.0,111,127,57,81,81,896,964,773
2025-02-19 16:40:53.074,3452.0,-765.0,770.0,315.0,-941.0,45.0,121,130,58,82,85,897,1017,1009
2025-02-19 16:40:53.095,3834.0,-251.0,3881.0,298.0,-565.0,53.0,131,135,59,85,91,895,1018,899
2025-02-19 16:40:53.112,3345.0,701.0,4690.0,110.0,-65.0,66.0,135,137,61,87,92,869,1018,614
2025-02-19 16:40:53.132,2216.0,717.0,3393.0,-177.0,161.0,44.0,137,136,61,87,96,854,1017,397
2025-02-19 16:40:53.151,1321.0,139.0,2286.0,-268.0,254.0,56.0,139,136,64,90,98,855,673,235
2025-02-19 16:40:53.169,838.0,-341.0,1665.0,-248.0,304.0,84.0,142,137,68,94,102,854,693,440
2025-02-19 16:40:53.189,634.0,-217.0,1322.0,-252.0,364.0,110.0,142,136,70,95,103,845,12,1010
2025-02-19 16:40:53.207,541.0,-229.0,1291.0,-312.0,431.0,132.0,144,136,73,100,105,839,14,1010
2025-02-19 16:40:53.227,313.0,-203.0,806.0,-327.0,444.0,155.0,143,128,74,100,108,835,12,1011
2025-02-19 16:40:53.247,154.0,-167.0,670.0,-299.0,370.0,146.0,143,116,75,106,111,845,11,1002
2025-02-19 16:40:53.264,166.0,-194.0,284.0,-286.0,335.0,138.0,143,102,78,111,115,855,12,951
2025-02-19 16:40:53.283,-53.0,-274.0,495.0,-296.0,306.0,134.0,142,93,80,113,116,863,11,911
2025-02-19 16:40:53.304,-47.0,-267.0,487.0,-253.0,326.0,110.0,143,89,82,116,117,867,257,725
2025-02-19 16:40:53.321,-166.0,-253.0,225.0,-211.0,330.0,92.0,144,86,85,119,118,835,301,436
2025-02-19 16:40:53.341,-602.0,-190.0,43.0,-200.0,270.0,66.0,146,84,85,120,119,804,17,327
2025-02-19 16:40:53.358,-601.0,4.0,-335.0,-185.0,214.0,47.0,148,78,85,123,120,716,18,567
2025-02-19 16:40:53.378,-599.0,234.0,-331.0,-149.0,150.0,17.0,149,73,79,124,116,643,438,613
2025-02-19 16:40:53.398,-510.0,812.0,-493.0,10.0,152.0,-43.0,149,71,77,118,113,576,20,489
2025-02-19 16:40:53.414,-1176.0,1639.0,-1062.0,116.0,49.0,-194.0,146,69,73,105,107,509,19,18
2025-02-19 16:40:53.435,-1269.0,2638.0,-1948.0,201.0,-207.0,-430.0,137,67,69,93,90,441,20,19
2025-02-19 16:40:53.456,-261.0,1873.0,-1881.0,185.0,-531.0,-647.0,127,63,64,83,79,405,18,17
2025-02-19 16:40:53.473,1437.0,729.0,-1255.0,98.0,-838.0,-683.0,129,65,64,85,83,377,186,19
2025-02-19 16:40:53.492,4226.0,-1121.0,1316.0,-59.0,-803.0,-557.0,130,66,64,85,84,354,620,18
2025-02-19 16:40:53.513,4808.0,-4012.0,2530.0,-272.0,-207.0,-224.0,125,66,64,85,84,336,1017,18
2025-02-19 16:40:53.530,3460.0,-5090.0,1423.0,-1.0,161.0,-90.0,121,67,63,84,86,337,1018,18
2025-02-19 16:40:53.550,1537.0,-3610.0,680.0,126.0,252.0,109.0,120,65,60,82,84,350,1018,48
2025-02-19 16:40:53.569,657.0,-2055.0,508.0,-29.0,160.0,166.0,121,65,61,83,85,392,1018,492
2025-02-19 16:40:53.585,829.0,-1979.0,585.0,-82.0,147.0,189.0,121,64,58,83,84,430,966,1010
2025-02-19 16:40:53.607,635.0,-1905.0,394.0,-69.0,191.0,261.0,122,65,62,85,87,465,932,1009
2025-02-19 16:40:53.624,353.0,-1375.0,124.0,-27.0,181.0,309.0,123,64,62,86,88,475,677,1010
2025-02-19 16:40:53.644,264.0,-614.0,224.0,-11.0,140.0,303.0,127,65,64,88,89,492,1018,1009
2025-02-19 16:40:53.661,131.0,-217.0,348.0,-64.0,120.0,278.0,128,66,64,88,89,506,573,1010
2025-02-19 16:40:53.681,-47.0,-252.0,190.0,-75.0,102.0,253.0,128,65,63,87,89,523,571,1011
2025-02-19 16:40:53.701,41.0,-82.0,271.0,-81.0,105.0,240.0,128,64,63,89,89,556,420,1010
2025-02-19 16:40:53.722,-208.0,-77.0,195.0,-74.0,105.0,218.0,128,65,64,89,90,585,121,724
2025-02-19 16:40:53.739,-122.0,52.0,291.0,-66.0,124.0,185.0,129,66,64,90,91,616,14,163
2025-02-19 16:40:53.759,-231.0,243.0,235.0,-78.0,133.0,151.0,128,64,63,89,90,635,928,12
2025-02-19 16:40:53.779,-520.0,388.0,-120.0,-89.0,101.0,115.0,132,69,67,93,94,603,1018,32
2025-02-19 16:40:53.796,-579.0,651.0,-407.0,-47.0,59.0,89.0,133,70,68,92,95,571,1018,162
2025-02-19 16:40:53.815,-926.0,1623.0,-1014.0,191.0,67.0,-108.0,130,69,68,91,92,535,1018,413
2025-02-19 16:40:53.836,-1543.0,2836.0,-1726.0,284.0,-115.0,-365.0,127,70,68,88,88,503,1018,784
2025-02-19 16:40:53.851,-1607.0,2951.0,-2342.0,212.0,-484.0,-644.0,126,67,65,82,83,483,713,1009
2025-02-19 16:40:53.873,2189.0,2354.0,-1215.0,99.0,-957.0,-792.0,131,69,66,82,83,471,31,804
2025-02-19 16:40:53.890,5948.0,-1992.0,8.0,54.0,-1042.0,-638.0,133,68,63,81,84,460,15,412
2025-02-19 16:40:53.911,6577.0,-5996.0,3238.0,363.0,-146.0,-73.0,136,70,65,85,89,459,17,643
2025-02-19 16:40:53.930,2811.0,-2259.0,1989.0,291.0,233.0,-15.0,136,70,66,85,93,463,693,508
2025-02-19 16:40:53.948,837.0,-2060.0,1657.0,-21.0,170.0,26.0,134,68,63,84,90,465,1018,241
2025-02-19 16:40:53.967,530.0,-2044.0,1149.0,-105.0,156.0,118.0,134,68,62,85,90,502,1017,139
2025-02-19 16:40:53.988,371.0,-1563.0,742.0,15.0,175.0,91.0,133,67,62,85,91,538,1018,480
2025-02-19 16:40:54.004,187.0,-1368.0,504.0,162.0,203.0,94.0,134,67,63,87,92,573,447,797
2025-02-19 16:40:54.025,-144.0,-735.0,332.0,257.0,204.0,82.0,139,71,66,91,97,538,547,874
2025-02-19 16:40:54.042,-156.0,-222.0,309.0,248.0,165.0,53.0,140,71,68,92,98,511,17,509
2025-02-19 16:40:54.061,-27.0,-369.0,632.0,244.0,157.0,50.0,139,71,66,92,97,489,15,91
2025-02-19 16:40:54.082,48.0,-131.0,713.0,253.0,181.0,33.0,140,69,65,90,96,511,13,21
2025-02-19 16:40:54.099,-41.0,-95.0,771.0,292.0,225.0,-5.0,140,69,64,89,96,547,259,50
2025-02-19 16:40:54.117,-126.0,-78.0,580.0,336.0,264.0,-46.0,139,67,63,89,93,588,646,16
2025-02-19 16:40:54.139,-440.0,49.0,381.0,325.0,243.0,-76.0,139,68,63,88,93,632,16,56
2025-02-19 16:40:54.157,-437.0,-112.0,271.0,322.0,170.0,-96.0,139,67,62,86,91,670,11,235
2025-02-19 16:40:54.177,-484.0,-135.0,255.0,300.0,58.0,-102.0,140,68,62,84,89,697,497,985
2025-02-19 16:40:54.196,-417.0,-98.0,452.0,249.0,-39.0,-108.0,141,68,63,85,90,714,1015,1010
2025-02-19 16:40:54.214,-148.0,-498.0,757.0,214.0,-90.0,-90.0,140,67,61,84,90,730,760,1010
2025-02-19 16:40:54.231,252.0,-849.0,971.0,212.0,-126.0,-53.0,141,68,62,86,90,742,16,1010
2025-02-19 16:40:54.254,694.0,-1222.0,1099.0,218.0,-161.0,14.0,141,67,61,85,90,754,11,955
2025-02-19 16:40:54.271,1074.0,-1340.0,1439.0,180.0,-180.0,137.0,144,69,61,87,92,757,187,539
2025-02-19 16:40:54.290,1588.0,-1447.0,2053.0,54.0,-115.0,306.0,147,69,63,88,94,739,292,298
2025-02-19 16:40:54.308,1880.0,-1259.0,1931.0,-69.0,28.0,512.0,147,68,62,88,94,713,583,13
2025-02-19 16:40:54.328,1868.0,-775.0,1530.0,-188.0,103.0,674.0,148,67,63,89,93,693,1019,14
2025-02-19 16:40:54.348,1867.0,385.0,1150.0,-271.0,100.0,760.0,147,66,62,87,92,677,1017,12
2025-02-19 16:40:54.365,1185.0,1381.0,1591.0,-458.0,26.0,700.0,148,66,63,84,89,671,828,25
2025-02-19 16:40:54.385,874.0,1864.0,1775.0,-482.0,3.0,571.0,149,67,65,84,89,666,311,27
2025-02-19 16:40:54.405,149.0,2210.0,1769.0,-265.0,45.0,233.0,148,68,65,83,89,658,13,37
2025-02-19 16:40:54.422,262.0,1742.0,1949.0,121.0,131.0,38.0,149,69,66,84,89,657,13,139
2025-02-19 16:40:54.443,-145.0,2221.0,1595.0,253.0,192.0,-91.0,151,71,67,86,90,620,16,294
2025-02-19 16:40:54.463,-204.0,2116.0,1278.0,175.0,193.0,-200.0,152,71,67,85,87,591,17,865
2025-02-19 16:40:54.479,-37.0,1058.0,859.0,75.0,175.0,-256.0,151,71,68,84,86,527,17,1010
2025-02-19 16:40:54.499,4.0,-73.0,624.0,95.0,117.0,-279.0,152,74,71,86,88,439,1018,839
2025-02-19 16:40:54.517,-36.0,-651.0,608.0,236.0,69.0,-308.0,151,75,72,87,90,329,1018,820
2025-02-19 16:40:54.536,-194.0,-395.0,553.0,319.0,-10.0,-330.0,150,75,71,86,91,246,1018,882
2025-02-19 16:40:54.557,-68.0,-182.0,739.0,301.0,-83.0,-309.0,151,76,73,89,94,185,1018,955
2025-02-19 16:40:54.574,39.0,-87.0,852.0,215.0,-131.0,-249.0,149,74,75,88,92,140,1018,897
2025-02-19 16:40:54.594,102.0,-91.0,974.0,93.0,-163.0,-234.0,152,77,72,92,95,100,1017,986
2025-02-19 16:40:54.613,288.0,-973.0,1206.0,90.0,-127.0,-173.0,151,79,69,89,95,80,1017,1010
2025-02-19 16:40:54.631,433.0,-1069.0,1410.0,153.0,-23.0,-114.0,153,76,70,90,96,93,471,1007
2025-02-19 16:40:54.652,644.0,-1287.0,1512.0,115.0,37.0,-23.0,151,72,66,87,94,127,500,965
2025-02-19 16:40:54.671,920.0,-1661.0,1477.0,25.0,72.0,201.0,152,73,67,88,94,166,930,1006
2025-02-19 16:40:54.689,851.0,-1292.0,1347.0,-172.0,43.0,384.0,152,72,63,88,94,191,1017,853
2025-02-19 16:40:54.709,1513.0,-1682.0,1360.0,-288.0,74.0,686.0,149,69,65,85,89,226,1018,714
2025-02-19 16:40:54.729,980.0,446.0,1376.0,-424.0,43.0,699.0,149,70,66,84,89,255,1018,591
2025-02-19 16:40:54.746,724.0,1162.0,1251.0,-397.0,31.0,560.0,148,69,65,80,84,279,1018,303
2025-02-19 16:40:54.764,31.0,2437.0,1318.0,-224.0,19.0,350.0,149,71,67,81,84,299,833,17
2025-02-19 16:40:54.783,-266.0,3278.0,1818.0,-100.0,4.0,74.0,146,68,64,77,80,330,385,22
2025-02-19 16:40:54.803,8.0,2609.0,2085.0,-34.0,94.0,-93.0,150,74,68,82,84,349,17,17
2025-02-19 16:40:54.823,-23.0,1985.0,1847.0,-27.0,144.0,-225.0,150,68,68,82,85,357,18,17
2025-02-19 16:40:54.841,243.0,249.0,1785.0,-11.0,187.0,-314.0,148,71,67,82,84,368,16,16
2025-02-19 16:40:54.860,609.0,-999.0,1790.0,8.0,266.0,-286.0,145,71,68,82,85,388,16,43
2025-02-19 16:40:54.881,390.0,-1285.0,1540.0,-47.0,307.0,-192.0,144,72,67,83,86,394,459,562
2025-02-19 16:40:54.897,145.0,-1040.0,1329.0,-186.0,306.0,-135.0,147,74,71,86,89,371,950,1010
2025-02-19 16:40:54.918,32.0,-1028.0,746.0,-324.0,309.0,-116.0,146,73,70,86,88,348,1019,1010
2025-02-19 16:40:54.936,9.0,-1130.0,573.0,-358.0,320.0,-50.0,150,75,72,90,91,326,1018,1010
2025-02-19 16:40:54.953,-107.0,-944.0,144.0,-297.0,338.0,12.0,148,76,72,91,94,312,1017,1010
2025-02-19 16:40:54.975,-309.0,-845.0,-129.0,-182.0,297.0,23.0,147,75,72,94,96,307,1018,952
2025-02-19 16:40:54.995,-189.0,-774.0,-71.0,-23.0,314.0,35.0,148,78,75,101,102,299,1018,1009
2025-02-19 16:40:55.012,-301.0,-284.0,-327.0,203.0,246.0,38.0,145,80,76,105,110,294,1018,1010
2025-02-19 16:40:55.032,-709.0,-297.0,-339.0,148.0,252.0,55.0,145,86,81,115,119,283,1019,915
2025-02-19 16:40:55.050,-837.0,-251.0,-255.0,115.0,210.0,65.0,142,89,83,120,119,277,1017,679
2025-02-19 16:40:55.070,-380.0,80.0,-279.0,188.0,133.0,49.0,141,96,89,127,127,281,19,451
2025-02-19 16:40:55.088,-566.0,105.0,-355.0,161.0,87.0,26.0,139,101,95,132,131,281,20,20
2025-02-19 16:40:55.107,-863.0,467.0,-1357.0,81.0,32.0,-51.0,136,104,96,133,131,282,19,18
2025-02-19 16:40:55.123,-905.0,1055.0,-1659.0,59.0,-137.0,-220.0,137,105,101,136,131,279,129,19
2025-02-19 16:40:55.146,-444.0,1007.0,-1678.0,-100.0,-245.0,-503.0,137,111,103,134,131,269,592,18
2025-02-19 16:40:55.165,-301.0,939.0,-423.0,102.0,-405.0,-614.0,137,120,105,135,137,263,185,210
2025-02-19 16:40:55.184,1023.0,580.0,-421.0,-91.0,-761.0,-681.0,137,124,107,136,142,259,74,604
2025-02-19 16:40:55.202,1793.0,-67.0,-656.0,-144.0,-912.0,-724.0,143,131,110,140,149,247,675,982
2025-02-19 16:40:55.218,3898.0,-2489.0,161.0,-268.0,-697.0,-519.0,145,133,111,142,153,214,811,685
2025-02-19 16:40:55.242,3836.0,-4397.0,1032.0,-137.0,-303.0,-110.0,141,129,108,139,151,210,725,577
2025-02-19 16:40:55.257,2257.0,-3801.0,86.0,168.0,24.0,111.0,142,130,108,140,152,266,1017,381
2025-02-19 16:40:55.273,1188.0,-2302.0,522.0,320.0,110.0,190.0,139,126,104,136,146,353,954,13
2025-02-19 16:40:55.297,554.0,-1501.0,773.0,200.0,150.0,237.0,140,128,106,138,147,425,999,15
2025-02-19 16:40:55.316,325.0,-1209.0,864.0,-33.0,151.0,264.0,140,128,106,137,146,474,902,14
2025-02-19 16:40:55.336,240.0,-1070.0,770.0,-122.0,171.0,270.0,139,127,105,137,145,528,489,59
2025-02-19 16:40:55.356,97.0,-1030.0,454.0,-88.0,222.0,291.0,140,128,106,138,146,570,576,162
2025-02-19 16:40:55.373,196.0,-890.0,418.0,-24.0,269.0,323.0,142,130,108,139,148,593,959,431
2025-02-19 16:40:55.393,-11.0,-888.0,70.0,155.0,265.0,357.0,145,132,110,142,150,531,1018,1011
2025-02-19 16:40:55.413,-31.0,-220.0,219.0,104.0,233.0,354.0,143,131,109,140,148,488,1017,1011
2025-02-19 16:40:55.430,-237.0,207.0,53.0,31.0,177.0,304.0,143,129,108,140,147,468,839,1010
2025-02-19 16:40:55.450,-153.0,-29.0,117.0,17.0,179.0,243.0,142,128,109,140,145,465,30,863
2025-02-19 16:40:55.467,-434.0,-118.0,-62.0,96.0,147.0,168.0,141,125,109,140,143,468,155,717
2025-02-19 16:40:55.487,-452.0,196.0,21.0,36.0,125.0,98.0,141,126,110,141,143,465,77,937
2025-02-19 16:40:55.509,-663.0,293.0,-89.0,7.0,95.0,20.0,140,125,108,139,140,465,17,1010
2025-02-19 16:40:55.524,-706.0,415.0,-104.0,-6.0,41.0,-61.0,142,128,111,142,142,447,19,1011
2025-02-19 16:40:55.545,-818.0,474.0,-448.0,50.0,-16.0,-179.0,141,127,110,141,141,432,18,1010
2025-02-19 16:40:55.565,-963.0,793.0,-471.0,97.0,-107.0,-325.0,140,129,111,141,142,424,18,995
2025-02-19 16:40:55.577,-1021.0,729.0,-1102.0,101.0,-281.0,-446.0,139,131,112,142,145,417,18,1010
2025-02-19 16:40:55.602,-99.0,1335.0,-613.0,66.0,-453.0,-579.0,139,131,111,141,145,412,250,1011
2025-02-19 16:40:55.620,1130.0,1059.0,-651.0,-167.0,-660.0,-716.0,142,134,113,142,149,404,973,842
2025-02-19 16:40:55.639,2230.0,-598.0,-246.0,-339.0,-727.0,-665.0,139,133,111,141,149,405,984,290
2025-02-19 16:40:55.659,3674.0,-3039.0,-475.0,-195.0,-569.0,-386.0,139,134,112,143,152,404,808,107
2025-02-19 16:40:55.679,4047.0,-4010.0,217.0,99.0,-254.0,-86.0,136,130,108,140,150,436,15,14
2025-02-19 16:40:55.696,2319.0,-3019.0,794.0,249.0,118.0,58.0,140,132,109,141,151,464,284,16
2025-02-19 16:40:55.716,1184.0,-2245.0,1078.0,305.0,262.0,108.0,141,132,107,140,150,491,702,16
2025-02-19 16:40:55.727,599.0,-1447.0,845.0,235.0,267.0,161.0,141,129,103,138,149,526,1018,15
2025-02-19 16:40:55.752,483.0,-1261.0,889.0,227.0,257.0,176.0,142,125,100,137,150,553,1018,17
2025-02-19 16:40:55.771,508.0,-1165.0,626.0,266.0,272.0,174.0,141,116,94,135,147,577,1019,190
2025-02-19 16:40:55.790,422.0,-856.0,505.0,323.0,341.0,165.0,143,110,93,134,144,601,333,672
2025-02-19 16:40:55.811,55.0,-906.0,247.0,387.0,363.0,139.0,142,95,84,122,126,616,14,1010
2025-02-19 16:40:55.831,192.0,-496.0,114.0,440.0,327.0,97.0,143,88,79,127,114,630,15,1010
2025-02-19 16:40:55.847,1547.0,78.0,299.0,467.0,311.0,55.0,143,82,73,104,104,640,40,741
2025-02-19 16:40:55.868,-316.0,-120.0,-181.0,457.0,265.0,6.0,142,76,66,105,91,654,33,348
2025-02-19 16:40:55.885,-712.0,203.0,-223.0,370.0,138.0,-32.0,143,76,65,97,82,668,15,15
2025-02-19 16:40:55.903,-720.0,267.0,-189.0,272.0,12.0,-66.0,141,74,63,89,77,677,13,13
2025-02-19 16:40:55.926,-594.0,-48.0,-3.0,223.0,-99.0,-84.0,142,74,63,88,76,682,16,15
2025-02-19 16:40:55.943,-215.0,-532.0,371.0,230.0,-180.0,-62.0,141,71,60,84,74,673,14,13
2025-02-19 16:40:55.963,625.0,-960.0,1205.0,235.0,-175.0,17.0,143,73,61,84,76,664,15,94
2025-02-19 16:40:55.982,1157.0,-1105.0,2075.0,104.0,-71.0,105.0,146,72,60,84,76,663,14,510
2025-02-19 16:40:56.000,1399.0,-1148.0,2214.0,-59.0,29.0,267.0,148,70,59,82,76,660,195,787
2025-02-19 16:40:56.020,1208.0,-1108.0,1855.0,-233.0,72.0,472.0,152,72,62,84,79,648,16,1011
2025-02-19 16:40:56.040,860.0,-620.0,1329.0,-370.0,74.0,656.0,151,70,62,84,80,629,14,1010
2025-02-19 16:40:56.056,1148.0,40.0,1352.0,-382.0,18.0,705.0,152,71,64,85,80,609,77,950
2025-02-19 16:40:56.077,432.0,1468.0,1492.0,-439.0,-10.0,584.0,151,71,64,83,78,595,327,803
2025-02-19 16:40:56.092,12.0,1710.0,1525.0,-286.0,11.0,357.0,152,76,68,85,81,585,329,807
2025-02-19 16:40:56.114,-392.0,2577.0,1546.0,3.0,76.0,73.0,152,78,69,86,81,584,177,891
2025-02-19 16:40:56.134,-154.0,1974.0,1544.0,99.0,132.0,-98.0,150,75,67,84,78,601,13,748
2025-02-19 16:40:56.151,-359.0,1345.0,1100.0,113.0,133.0,-178.0,150,75,67,85,79,635,14,595
2025-02-19 16:40:56.171,-207.0,701.0,844.0,105.0,88.0,-239.0,148,72,65,81,75,665,11,526
2025-02-19 16:40:56.190,-208.0,166.0,644.0,98.0,21.0,-274.0,148,72,64,82,76,696,48,326
2025-02-19 16:40:56.208,-42.0,-581.0,670.0,171.0,-31.0,-269.0,147,72,65,82,77,712,12,328
2025-02-19 16:40:56.229,10.0,-780.0,909.0,210.0,-54.0,-185.0,148,73,66,83,80,718,430,14
2025-02-19 16:40:56.249,31.0,-442.0,1156.0,186.0,-45.0,-179.0,150,74,67,84,81,709,1002,14
2025-02-19 16:40:56.266,-39.0,-146.0,1128.0,126.0,-37.0,-186.0,149,73,65,83,80,705,1018,12
2025-02-19 16:40:56.285,-187.0,-112.0,977.0,72.0,-47.0,-190.0,150,74,66,85,82,703,1018,14
2025-02-19 16:40:56.306,-158.0,-289.0,834.0,59.0,-61.0,-159.0,149,73,65,81,82,701,1018,385
2025-02-19 16:40:56.323,-245.0,-168.0,832.0,45.0,-77.0,-136.0,149,74,65,86,83,702,1018,594
2025-02-19 16:40:56.343,-106.0,-361.0,960.0,45.0,-72.0,-113.0,150,75,65,86,83,708,921,555
2025-02-19 16:40:56.360,86.0,-638.0,1015.0,59.0,-50.0,-90.0,150,74,64,86,82,712,959,621
2025-02-19 16:40:56.381,330.0,-1186.0,1182.0,74.0,-20.0,-8.0,150,75,65,87,83,714,1017,692
2025-02-19 16:40:56.400,748.0,-1688.0,1394.0,5.0,18.0,177.0,149,73,63,86,81,715,1012,764
2025-02-19 16:40:56.418,837.0,-1704.0,1136.0,-182.0,-5.0,339.0,150,72,63,85,82,716,990,860
2025-02-19 16:40:56.438,1023.0,-1991.0,1018.0,-267.0,-9.0,531.0,147,70,62,83,79,716,973,923
2025-02-19 16:40:56.458,831.0,-297.0,897.0,-331.0,-62.0,619.0,147,70,62,80,77,719,1018,859
2025-02-19 16:40:56.474,437.0,1072.0,1160.0,-480.0,-168.0,580.0,147,70,63,79,76,723,1017,486
2025-02-19 16:40:56.493,446.0,1438.0,2015.0,-492.0,-221.0,415.0,146,72,64,79,76,729,1018,128
2025-02-19 16:40:56.515,305.0,1568.0,2943.0,-317.0,-118.0,214.0,148,76,67,82,79,732,1018,18
2025-02-19 16:40:56.532,305.0,1229.0,3308.0,-106.0,84.0,-4.0,147,76,67,82,78,742,845,11
2025-02-19 16:40:56.552,490.0,573.0,2822.0,5.0,307.0,-76.0,148,77,69,85,79,754,12,12
2025-02-19 16:40:56.569,731.0,-245.0,2067.0,-3.0,449.0,-90.0,152,80,74,90,84,721,21,17
2025-02-19 16:40:56.589,315.0,-649.0,1286.0,-59.0,527.0,-92.0,151,80,74,91,84,632,451,25
2025-02-19 16:40:56.609,194.0,-824.0,343.0,-158.0,482.0,-80.0,150,80,75,94,87,568,1017,326
2025-02-19 16:40:56.627,15.0,-1526.0,-103.0,-162.0,410.0,6.0,150,81,75,87,89,524,1018,729
2025-02-19 16:40:56.647,-332.0,-1544.0,-195.0,-14.0,359.0,32.0,151,86,79,95,92,489,1018,1010
2025-02-19 16:40:56.666,-272.0,-819.0,-74.0,92.0,332.0,42.0,150,89,82,95,93,478,956,1010
2025-02-19 16:40:56.685,-460.0,-408.0,-183.0,73.0,286.0,31.0,151,97,89,98,95,475,620,967
2025-02-19 16:40:56.704,-706.0,-458.0,-311.0,61.0,218.0,35.0,150,103,92,104,98,472,975,1000
2025-02-19 16:40:56.724,-497.0,-509.0,-240.0,100.0,152.0,52.0,151,111,97,109,102,470,1018,1011
2025-02-19 16:40:56.741,-348.0,-219.0,-215.0,172.0,149.0,59.0,151,117,101,112,105,468,1018,1011
2025-02-19 16:40:56.761,-563.0,233.0,-305.0,199.0,145.0,39.0,150,119,103,112,106,471,17,1010
2025-02-19 16:40:56.781,-688.0,490.0,-418.0,152.0,91.0,-6.0,151,123,108,112,107,475,15,1011
2025-02-19 16:40:56.794,-738.0,538.0,-663.0,128.0,20.0,-108.0,150,124,109,111,106,476,14,1010
2025-02-19 16:40:56.819,-836.0,896.0,-820.0,178.0,-66.0,-244.0,151,128,111,112,107,478,15,1009
2025-02-19 16:40:56.839,-895.0,1107.0,-1039.0,169.0,-203.0,-408.0,148,127,111,105,102,481,161,871
2025-02-19 16:40:56.855,-977.0,1050.0,-1310.0,86.0,-493.0,-589.0,148,130,113,103,100,479,733,721
2025-02-19 16:40:56.874,227.0,855.0,-1134.0,8.0,-770.0,-650.0,147,132,113,102,102,474,1018,928
2025-02-19 16:40:56.895,1454.0,-1280.0,-374.0,-25.0,-935.0,-514.0,145,133,112,104,103,473,1018,1011
2025-02-19 16:40:56.913,4235.0,-1433.0,206.0,-57.0,-871.0,-328.0,146,136,113,110,100,475,1019,657
2025-02-19 16:40:56.932,4232.0,-3463.0,1984.0,-172.0,-344.0,-51.0,143,137,111,113,99,486,1018,13
2025-02-19 16:40:56.948,2984.0,-3500.0,1758.0,55.0,157.0,82.0,144,139,114,116,101,492,1018,16
2025-02-19 16:40:56.970,1234.0,-2189.0,1268.0,216.0,282.0,80.0,141,137,114,114,98,491,1018,13
2025-02-19 16:40:56.990,623.0,-1150.0,1206.0,52.0,242.0,135.0,143,139,114,117,101,492,1018,15
2025-02-19 16:40:57.006,546.0,-1178.0,983.0,-86.0,237.0,181.0,140,137,113,111,100,514,1011,13
2025-02-19 16:40:57.025,437.0,-1271.0,647.0,-74.0,265.0,234.0,140,136,112,108,101,559,12,12
2025-02-19 16:40:57.044,287.0,-889.0,415.0,-7.0,282.0,256.0,141,135,111,108,102,600,12,156
2025-02-19 16:40:57.064,200.0,-681.0,329.0,36.0,294.0,264.0,141,135,110,107,102,639,11,411
2025-02-19 16:40:57.084,121.0,-391.0,298.0,62.0,296.0,266.0,142,135,112,106,102,667,12,817
2025-02-19 16:40:57.102,-90.0,-280.0,117.0,52.0,258.0,266.0,142,134,111,103,101,686,11,1002
2025-02-19 16:40:57.122,-255.0,-75.0,77.0,41.0,204.0,252.0,143,130,112,103,102,702,12,565
2025-02-19 16:40:57.142,-356.0,-58.0,187.0,26.0,185.0,228.0,143,134,111,102,102,716,12,510
2025-02-19 16:40:57.159,-267.0,-79.0,213.0,45.0,202.0,187.0,142,133,112,100,101,723,517,1010
2025-02-19 16:40:57.179,-679.0,53.0,59.0,80.0,190.0,170.0,144,134,112,100,101,726,821,1010
2025-02-19 16:40:57.195,-900.0,730.0,-257.0,27.0,117.0,105.0,143,133,111,98,99,726,896,1010
2025-02-19 16:40:57.212,-1014.0,852.0,-553.0,-44.0,-11.0,-31.0,144,134,113,97,99,727,977,1010
2025-02-19 16:40:57.236,-1033.0,907.0,-783.0,49.0,-98.0,-212.0,144,127,112,94,98,725,943,1013
2025-02-19 16:40:57.256,-1084.0,1072.0,-1159.0,87.0,-290.0,-353.0,144,133,112,92,94,729,218,1010
2025-02-19 16:40:57.274,-1101.0,1093.0,-1424.0,113.0,-534.0,-435.0,141,134,113,91,92,730,27,770
2025-02-19 16:40:57.293,229.0,1813.0,-1465.0,-18.0,-853.0,-533.0,139,134,111,93,92,733,254,260
2025-02-19 16:40:57.311,2415.0,-584.0,-367.0,-151.0,-924.0,-529.0,140,135,113,96,94,733,446,595
2025-02-19 16:40:57.331,4216.0,-3522.0,1957.0,109.0,-447.0,-267.0,139,135,112,99,100,728,581,904
2025-02-19 16:40:57.351,3311.0,-2886.0,2140.0,300.0,-5.0,-40.0,139,137,114,101,104,690,1018,15
2025-02-19 16:40:57.368,1566.0,-1268.0,1936.0,120.0,-9.0,6.0,139,137,114,100,101,651,1018,14
2025-02-19 16:40:57.388,979.0,-1478.0,1875.0,-66.0,-62.0,57.0,137,137,112,99,97,632,1018,12
2025-02-19 16:40:57.408,960.0,-1497.0,1772.0,-25.0,38.0,102.0,138,138,114,101,100,620,1017,13
2025-02-19 16:40:57.425,618.0,-965.0,1578.0,39.0,165.0,110.0,138,137,112,100,99,612,256,496
2025-02-19 16:40:57.445,177.0,-603.0,1223.0,75.0,231.0,96.0,140,137,111,102,102,609,121,1011
2025-02-19 16:40:57.463,-131.0,-233.0,845.0,57.0,231.0,92.0,140,133,105,105,104,608,12,1010
2025-02-19 16:40:57.482,-9.0,-224.0,767.0,52.0,230.0,73.0,140,127,98,109,109,608,12,998
2025-02-19 16:40:57.502,-9.0,-454.0,623.0,99.0,247.0,41.0,140,117,88,111,110,608,83,616
2025-02-19 16:40:57.519,-79.0,-495.0,549.0,190.0,278.0,24.0,139,101,76,111,108,613,139,11
2025-02-19 16:40:57.540,-107.0,-391.0,541.0,272.0,301.0,28.0,140,88,70,109,107,617,13,12
2025-02-19 16:40:57.558,-356.0,-329.0,424.0,337.0,296.0,16.0,139,77,64,103,103,621,12,13
2025-02-19 16:40:57.577,-512.0,-76.0,223.0,314.0,239.0,22.0,139,75,64,100,100,614,238,13
2025-02-19 16:40:57.595,-579.0,-22.0,27.0,274.0,144.0,-14.0,137,73,61,96,96,616,306,11
2025-02-19 16:40:57.612,-467.0,-228.0,178.0,259.0,13.0,-42.0,137,72,59,93,90,634,12,10
2025-02-19 16:40:57.632,-387.0,-332.0,404.0,210.0,-71.0,-37.0,139,72,58,87,88,648,12,188
2025-02-19 16:40:57.654,28.0,-826.0,680.0,195.0,-126.0,-18.0,140,71,57,87,86,652,11,1001
2025-02-19 16:40:57.674,612.0,-1326.0,1448.0,136.0,-89.0,82.0,142,73,58,91,87,651,12,1010
2025-02-19 16:40:57.692,776.0,-897.0,1981.0,-55.0,-14.0,201.0,144,73,57,88,85,652,11,900
2025-02-19 16:40:57.709,797.0,-1421.0,1753.0,-260.0,-1.0,370.0,145,71,58,87,84,654,11,562
2025-02-19 16:40:57.729,1033.0,-1980.0,1449.0,-336.0,-14.0,604.0,144,68,57,85,82,661,10,89
2025-02-19 16:40:57.748,1298.0,-472.0,1539.0,-358.0,-15.0,682.0,146,70,58,85,83,670,21,10
2025-02-19 16:40:57.769,246.0,1077.0,1365.0,-457.0,-42.0,565.0,147,73,60,84,84,675,11,12
2025-02-19 16:40:57.784,-260.0,1428.0,1404.0,-422.0,-55.0,362.0,147,76,61,84,82,682,10,9
2025-02-19 16:40:57.806,-352.0,1900.0,1480.0,-187.0,-22.0,130.0,148,80,63,86,83,687,11,11
2025-02-19 16:40:57.826,-125.0,1411.0,1602.0,44.0,44.0,-20.0,148,79,64,86,83,687,10,16
2025-02-19 16:40:57.842,-326.0,1580.0,1341.0,163.0,85.0,-105.0,149,80,64,87,84,685,11,11
2025-02-19 16:40:57.863,-395.0,1399.0,1013.0,151.0,86.0,-203.0,148,79,63,86,83,680,10,224
2025-02-19 16:40:57.880,-243.0,497.0,756.0,116.0,46.0,-260.0,151,79,64,87,84,666,13,716
2025-02-19 16:40:57.900,-42.0,-600.0,768.0,182.0,-3.0,-261.0,153,80,69,88,87,620,15,819
2025-02-19 16:40:57.920,142.0,-989.0,1114.0,262.0,4.0,-208.0,153,80,68,90,88,561,16,689
2025-02-19 16:40:57.937,-92.0,-651.0,1000.0,268.0,20.0,-158.0,156,84,71,93,94,464,19,462
2025-02-19 16:40:57.958,-357.0,-138.0,947.0,205.0,-27.0,-168.0,153,82,69,91,90,373,1018,115
2025-02-19 16:40:57.978,-355.0,-45.0,860.0,125.0,-92.0,-184.0,154,84,71,93,93,311,1018,111
2025-02-19 16:40:57.988,-160.0,-231.0,1042.0,107.0,-108.0,-178.0,153,82,68,92,91,265,1018,214
2025-02-19 16:40:58.014,-4.0,-550.0,1263.0,122.0,-56.0,-119.0,155,85,70,95,94,239,1018,219
2025-02-19 16:40:58.035,-27.0,-213.0,1270.0,121.0,-12.0,-105.0,154,84,70,94,93,229,1018,535
2025-02-19 16:40:58.051,-143.0,-127.0,1154.0,98.0,5.0,-113.0,152,87,67,92,91,255,1018,812
2025-02-19 16:40:58.069,-101.0,-418.0,993.0,75.0,-3.0,-62.0,152,81,66,92,91,297,1018,1010
2025-02-19 16:40:58.092,110.0,-712.0,1153.0,37.0,-14.0,52.0,150,80,64,89,89,345,1017,1009
2025-02-19 16:40:58.109,476.0,-1056.0,1449.0,-39.0,-7.0,178.0,151,80,65,90,91,388,1018,948
2025-02-19 16:40:58.129,754.0,-1601.0,1353.0,-137.0,6.0,363.0,150,78,64,89,89,424,1018,804
2025-02-19 16:40:58.146,746.0,-787.0,919.0,-240.0,-45.0,544.0,151,78,64,89,90,459,587,661
2025-02-19 16:40:58.166,266.0,605.0,1016.0,-460.0,-110.0,520.0,151,78,65,89,91,487,184,363
2025-02-19 16:40:58.187,218.0,761.0,1260.0,-520.0,-118.0,439.0,150,80,65,89,91,513,125,11
2025-02-19 16:40:58.203,-8.0,1284.0,1538.0,-353.0,-68.0,285.0,152,84,67,91,94,531,585,13
2025-02-19 16:40:58.219,-144.0,1769.0,1799.0,-161.0,-23.0,83.0,151,84,68,92,95,544,1018,12
2025-02-19 16:40:58.244,-54.0,1469.0,1929.0,-50.0,42.0,-71.0,151,84,69,94,97,563,1019,22
2025-02-19 16:40:58.261,31.0,1047.0,1669.0,6.0,102.0,-158.0,151,84,69,97,99,577,1017,159
2025-02-19 16:40:58.281,96.0,-83.0,1330.0,13.0,137.0,-219.0,151,86,70,96,103,590,1004,451
2025-02-19 16:40:58.301,287.0,-1216.0,1343.0,20.0,185.0,-188.0,152,89,71,104,106,602,981,765
2025-02-19 16:40:58.318,138.0,-1452.0,1407.0,36.0,226.0,-111.0,151,91,73,108,109,604,1018,1010
2025-02-19 16:40:58.338,141.0,-1126.0,1301.0,-4.0,251.0,-83.0,152,94,76,113,112,600,1017,1009
2025-02-19 16:40:58.358,-16.0,-930.0,1043.0,-78.0,268.0,-47.0,151,97,77,113,113,597,1018,911
2025-02-19 16:40:58.375,-259.0,-822.0,1033.0,-163.0,294.0,-4.0,151,102,78,109,115,595,1018,667
2025-02-19 16:40:58.396,-365.0,-678.0,716.0,-205.0,295.0,18.0,152,108,79,118,117,596,1017,300
2025-02-19 16:40:58.413,-496.0,-651.0,702.0,-240.0,279.0,26.0,151,105,79,117,117,597,1018,464
2025-02-19 16:40:58.432,-158.0,-526.0,511.0,-197.0,312.0,36.0,151,101,78,118,119,594,1017,951
2025-02-19 16:40:58.452,-323.0,-435.0,334.0,-135.0,329.0,36.0,151,93,75,116,116,596,1019,1010
2025-02-19 16:40:58.469,-388.0,-233.0,171.0,-80.0,319.0,27.0,152,90,74,116,114,598,1016,1010
2025-02-19 16:40:58.490,-631.0,162.0,-167.0,-58.0,282.0,0.0,151,84,70,113,108,598,1018,1011
2025-02-19 16:40:58.510,-631.0,459.0,-437.0,-67.0,203.0,-16.0,155,86,73,110,105,507,17,1010
2025-02-19 16:40:58.527,-416.0,799.0,-593.0,-50.0,152.0,-57.0,153,83,72,99,98,429,18,928
2025-02-19 16:40:58.547,-399.0,1401.0,-956.0,3.0,95.0,-160.0,149,78,69,89,91,373,16,561
2025-02-19 16:40:58.567,-724.0,2109.0,-2003.0,188.0,-43.0,-313.0,134,74,66,82,85,331,18,169
2025-02-19 16:40:58.584,-875.0,1772.0,-2052.0,307.0,-291.0,-519.0,122,69,62,76,78,307,15,15
2025-02-19 16:40:58.604,45.0,1726.0,-1708.0,288.0,-665.0,-675.0,121,68,62,78,80,289,16,16
2025-02-19 16:40:58.621,2495.0,55.0,-527.0,232.0,-959.0,-704.0,122,66,59,77,81,290,14,71
2025-02-19 16:40:58.641,5828.0,-2737.0,2743.0,146.0,-648.0,-343.0,125,70,61,80,84,289,1017,375
2025-02-19 16:40:58.662,4652.0,-4992.0,3065.0,82.0,27.0,-16.0,120,70,61,82,89,288,1018,495
2025-02-19 16:40:58.678,1297.0,-3237.0,1783.0,163.0,153.0,32.0,117,69,60,80,88,289,1018,427
2025-02-19 16:40:58.699,763.0,-2065.0,1646.0,-19.0,141.0,128.0,119,68,60,80,88,303,1018,513
2025-02-19 16:40:58.718,503.0,-1627.0,1210.0,-92.0,151.0,144.0,118,68,59,80,88,332,996,149
2025-02-19 16:40:58.735,525.0,-1638.0,975.0,-48.0,192.0,177.0,121,70,61,84,91,353,1018,13
2025-02-19 16:40:58.756,281.0,-1202.0,615.0,-47.0,226.0,227.0,120,68,60,83,91,367,1018,13
2025-02-19 16:40:58.776,-61.0,-764.0,344.0,-44.0,218.0,249.0,124,69,62,86,93,385,954,202
2025-02-19 16:40:58.793,-250.0,-174.0,311.0,-76.0,163.0,232.0,128,70,63,87,95,403,259,593
2025-02-19 16:40:58.813,-220.0,16.0,416.0,-132.0,116.0,167.0,127,68,62,86,92,425,140,553
2025-02-19 16:40:58.830,-253.0,-262.0,263.0,-149.0,78.0,136.0,128,70,63,87,93,437,15,15
2025-02-19 16:40:58.850,-162.0,-497.0,264.0,-114.0,75.0,126.0,126,68,62,86,91,439,13,13
2025-02-19 16:40:58.869,-99.0,-416.0,399.0,-79.0,105.0,134.0,128,71,64,88,94,438,1017,15
2025-02-19 16:40:58.888,-230.0,-222.0,446.0,-115.0,124.0,147.0,127,70,63,86,92,434,1018,13
2025-02-19 16:40:58.907,-409.0,-322.0,271.0,-144.0,134.0,152.0,129,72,66,87,93,420,1017,77
2025-02-19 16:40:58.927,-576.0,-319.0,95.0,-105.0,121.0,129.0,131,75,68,90,94,381,1017,224
2025-02-19 16:40:58.945,-644.0,-170.0,60.0,-51.0,106.0,89.0,130,74,67,89,93,345,678,432
2025-02-19 16:40:58.965,-688.0,144.0,-21.0,-26.0,90.0,62.0,132,75,68,90,95,315,541,473
2025-02-19 16:40:58.984,-707.0,518.0,-211.0,-9.0,61.0,26.0,131,73,66,88,93,292,308,526
2025-02-19 16:40:59.002,-1015.0,1238.0,-524.0,126.0,42.0,-107.0,129,75,68,88,93,275,17,645
2025-02-19 16:40:59.022,-1499.0,2298.0,-1421.0,264.0,-66.0,-337.0,124,73,66,83,87,263,16,729
2025-02-19 16:40:59.042,-1209.0,2443.0,-1704.0,242.0,-455.0,-645.0,125,73,68,80,86,255,17,526
2025-02-19 16:40:59.060,1632.0,626.0,-1021.0,181.0,-741.0,-690.0,129,72,66,83,87,251,18,62
2025-02-19 16:40:59.080,3657.0,-3375.0,571.0,377.0,-780.0,-370.0,132,73,65,86,92,242,17,322
2025-02-19 16:40:59.097,4208.0,-3602.0,3112.0,444.0,-160.0,-56.0,138,77,68,89,100,219,33,938
2025-02-19 16:40:59.116,1983.0,-1146.0,2664.0,247.0,123.0,-24.0,134,75,65,87,97,194,366,503
2025-02-19 16:40:59.136,623.0,-1939.0,2041.0,25.0,116.0,1.0,134,76,67,89,97,193,1018,18
2025-02-19 16:40:59.153,497.0,-1913.0,1356.0,10.0,131.0,75.0,130,72,63,80,93,200,978,14
2025-02-19 16:40:59.174,404.0,-1733.0,906.0,83.0,175.0,112.0,134,74,66,90,97,234,848,17
2025-02-19 16:40:59.194,393.0,-1566.0,556.0,161.0,204.0,166.0,135,75,66,90,99,246,241,309
2025-02-19 16:40:59.211,279.0,-1221.0,321.0,177.0,198.0,231.0,137,74,65,91,100,256,121,1011
2025-02-19 16:40:59.231,159.0,-1074.0,136.0,202.0,140.0,280.0,140,77,67,95,104,264,616,1011
2025-02-19 16:40:59.251,315.0,-811.0,441.0,208.0,103.0,350.0,141,75,66,95,104,268,1018,1011
2025-02-19 16:40:59.268,503.0,-431.0,522.0,198.0,94.0,385.0,143,75,68,99,106,275,996,1010
2025-02-19 16:40:59.288,250.0,-67.0,380.0,190.0,68.0,370.0,144,76,68,100,108,286,471,926
2025-02-19 16:40:59.306,-324.0,766.0,-135.0,132.0,24.0,299.0,144,77,70,100,109,297,811,690
2025-02-19 16:40:59.324,-522.0,786.0,514.0,60.0,-39.0,218.0,147,78,72,90,110,308,630,618
2025-02-19 16:40:59.346,-505.0,876.0,811.0,29.0,-65.0,140.0,147,76,70,90,129,326,401,302
2025-02-19 16:40:59.363,-505.0,1100.0,594.0,21.0,-78.0,46.0,149,78,72,93,144,341,70,180
2025-02-19 16:40:59.382,-567.0,1584.0,621.0,92.0,-67.0,-69.0,150,77,72,94,148,356,16,249
2025-02-19 16:40:59.403,-984.0,2036.0,354.0,162.0,-84.0,-217.0,151,78,73,94,151,366,16,667
2025-02-19 16:40:59.420,-917.0,2448.0,85.0,188.0,-133.0,-318.0,153,77,73,94,153,371,16,834
2025-02-19 16:40:59.438,-622.0,2050.0,83.0,178.0,-196.0,-432.0,153,82,72,97,154,379,16,1006
2025-02-19 16:40:59.454,-58.0,1362.0,241.0,213.0,-241.0,-513.0,154,79,74,99,155,383,17,1010
2025-02-19 16:40:59.478,789.0,-173.0,846.0,309.0,-265.0,-513.0,154,78,72,100,154,390,17,1010
2025-02-19 16:40:59.497,1629.0,-1029.0,1846.0,423.0,-200.0,-366.0,156,78,73,94,155,394,37,1009
2025-02-19 16:40:59.517,1851.0,-197.0,3043.0,246.0,-77.0,-174.0,156,78,72,101,154,399,15,857
2025-02-19 16:40:59.535,1780.0,-395.0,2978.0,-118.0,8.0,-15.0,157,79,72,102,155,400,17,803
2025-02-19 16:40:59.554,1498.0,-1496.0,1742.0,-246.0,37.0,124.0,158,79,72,103,156,398,19,831
2025-02-19 16:40:59.571,732.0,-1366.0,1353.0,-195.0,70.0,231.0,157,78,70,102,155,394,95,927
2025-02-19 16:40:59.591,564.0,-571.0,1484.0,-170.0,112.0,286.0,157,79,71,99,154,393,396,964
2025-02-19 16:40:59.611,72.0,60.0,1094.0,-165.0,129.0,335.0,156,79,71,99,152,397,1018,813
2025-02-19 16:40:59.629,-129.0,425.0,1296.0,-208.0,107.0,343.0,157,80,73,103,153,403,1018,397
2025-02-19 16:40:59.649,-185.0,441.0,742.0,-186.0,34.0,345.0,154,79,72,103,150,404,1018,382
2025-02-19 16:40:59.665,-95.0,453.0,796.0,-128.0,0.0,309.0,156,78,72,103,151,420,1017,319
2025-02-19 16:40:59.686,-172.0,678.0,932.0,-15.0,14.0,246.0,156,79,74,101,152,437,1018,16
2025-02-19 16:40:59.706,-256.0,1084.0,979.0,22.0,44.0,159.0,154,79,74,99,152,449,1018,14
2025-02-19 16:40:59.722,-335.0,1255.0,938.0,-25.0,48.0,101.0,156,81,75,102,153,462,315,15
2025-02-19 16:40:59.743,-508.0,1461.0,930.0,-75.0,16.0,-31.0,154,80,75,101,151,475,14,13
2025-02-19 16:40:59.764,-485.0,1454.0,931.0,-104.0,-6.0,-131.0,156,82,76,101,153,485,15,91
2025-02-19 16:40:59.781,-401.0,1166.0,756.0,-43.0,0.0,-216.0,155,80,75,98,153,493,14,199
2025-02-19 16:40:59.800,-459.0,1315.0,655.0,14.0,7.0,-293.0,156,81,76,100,153,501,15,426
2025-02-19 16:40:59.820,-515.0,1592.0,431.0,12.0,9.0,-383.0,156,81,76,101,154,507,15,547
2025-02-19 16:40:59.838,-208.0,1306.0,220.0,-31.0,-34.0,-512.0,154,80,74,101,153,517,13,448
2025-02-19 16:40:59.858,565.0,-552.0,441.0,99.0,-73.0,-490.0,155,80,72,103,154,523,15,506
2025-02-19 16:40:59.878,1169.0,-1473.0,591.0,332.0,-108.0,-350.0,154,79,70,104,153,528,15,681
2025-02-19 16:40:59.892,1331.0,-1464.0,1179.0,350.0,-147.0,-198.0,157,81,71,105,155,523,323,779
2025-02-19 16:40:59.915,1783.0,-1081.0,2217.0,140.0,-127.0,-43.0,154,79,70,104,153,514,544,691
2025-02-19 16:40:59.927,1872.0,-1130.0,2342.0,-41.0,-80.0,71.0,157,81,72,107,155,502,921,125
2025-02-19 16:40:59.952,1306.0,-1205.0,1880.0,-83.0,-26.0,141.0,157,81,72,107,155,490,1017,15
2025-02-19 16:40:59.971,461.0,-333.0,1612.0,-111.0,13.0,187.0,156,81,70,106,154,483,1019,243
2025-02-19 16:40:59.989,14.0,-23.0,1616.0,-156.0,31.0,216.0,155,81,70,98,152,487,1018,106
2025-02-19 16:41:00.010,225.0,223.0,1841.0,-199.0,73.0,262.0,154,80,71,108,150,507,1018,136
2025-02-19 16:41:00.030,141.0,265.0,1602.0,-285.0,155.0,273.0,155,81,73,113,148,521,1018,62
2025-02-19 16:41:00.046,124.0,189.0,1459.0,-296.0,198.0,264.0,154,81,72,112,139,529,1018,13
2025-02-19 16:41:00.066,-48.0,400.0,1318.0,-308.0,248.0,248.0,154,82,74,113,133,534,1018,15
2025-02-19 16:41:00.087,-48.0,279.0,1139.0,-326.0,278.0,246.0,154,82,74,112,132,536,1018,15
2025-02-19 16:41:00.104,18.0,285.0,953.0,-314.0,314.0,232.0,152,81,73,111,127,543,360,14
2025-02-19 16:41:00.124,-222.0,300.0,701.0,-292.0,344.0,214.0,154,82,75,110,125,548,15,14
2025-02-19 16:41:00.144,-388.0,-1.0,378.0,-231.0,336.0,153.0,156,86,80,114,128,518,18,17
2025-02-19 16:41:00.161,-428.0,93.0,90.0,-147.0,314.0,88.0,157,87,82,119,130,448,19,19
2025-02-19 16:41:00.181,-294.0,33.0,-171.0,51.0,254.0,16.0,155,89,84,123,131,397,17,16
2025-02-19 16:41:00.198,-789.0,132.0,-453.0,123.0,184.0,-31.0,155,94,88,128,133,363,19,18
2025-02-19 16:41:00.218,-984.0,50.0,-531.0,83.0,107.0,-53.0,154,101,93,130,136,334,19,256
2025-02-19 16:41:00.239,-985.0,247.0,-569.0,-3.0,7.0,-101.0,153,105,95,132,136,311,18,544
2025-02-19 16:41:00.259,-401.0,500.0,-1122.0,-22.0,-125.0,-201.0,154,113,100,134,140,290,19,1010
2025-02-19 16:41:00.276,-782.0,875.0,-992.0,-6.0,-220.0,-392.0,151,116,102,134,148,273,17,1010
2025-02-19 16:41:00.296,-981.0,839.0,-343.0,3.0,-410.0,-548.0,152,125,105,134,152,260,32,1011
2025-02-19 16:41:00.313,16.0,82.0,-923.0,57.0,-616.0,-692.0,151,133,108,136,154,246,640,1011
2025-02-19 16:41:00.333,1446.0,-1025.0,-388.0,-3.0,-654.0,-571.0,150,136,109,139,154,228,1018,1010
2025-02-19 16:41:00.353,2468.0,-1972.0,1361.0,28.0,-622.0,-291.0,153,140,115,141,156,214,1017,1010
2025-02-19 16:41:00.371,2884.0,-2698.0,1228.0,-193.0,-322.0,-37.0,153,140,115,141,155,205,1018,804
2025-02-19 16:41:00.390,2226.0,-3013.0,1539.0,-198.0,-106.0,49.0,152,140,114,141,155,228,1017,17
2025-02-19 16:41:00.409,1431.0,-2476.0,1197.0,39.0,64.0,70.0,150,138,113,139,153,261,1018,15
2025-02-19 16:41:00.426,916.0,-1926.0,776.0,0.0,163.0,179.0,150,141,113,139,153,310,1018,16
2025-02-19 16:41:00.447,369.0,-1767.0,840.0,-26.0,187.0,242.0,150,139,115,141,154,349,1018,17
2025-02-19 16:41:00.464,266.0,-1235.0,679.0,-42.0,226.0,296.0,148,137,114,140,153,353,1018,16
2025-02-19 16:41:00.485,312.0,-995.0,481.0,-21.0,238.0,317.0,148,136,114,141,154,360,1018,296
2025-02-19 16:41:00.505,104.0,-913.0,277.0,50.0,246.0,319.0,147,135,114,140,151,371,1018,998
2025-02-19 16:41:00.522,112.0,-357.0,367.0,26.0,226.0,326.0,148,134,113,141,152,377,1018,1011
2025-02-19 16:41:00.541,-74.0,-290.0,215.0,47.0,208.0,309.0,147,131,113,140,151,377,1017,1010
2025-02-19 16:41:00.562,-30.0,-342.0,285.0,2.0,180.0,289.0,145,130,113,140,150,383,1018,999
2025-02-19 16:41:00.579,-172.0,-48.0,-31.0,79.0,186.0,255.0,145,128,113,140,150,401,1017,982
2025-02-19 16:41:00.600,-375.0,89.0,111.0,87.0,179.0,193.0,142,125,112,139,148,415,1018,1010
2025-02-19 16:41:00.618,-597.0,52.0,122.0,46.0,170.0,140.0,141,125,113,140,149,428,835,875
2025-02-19 16:41:00.636,-597.0,81.0,16.0,36.0,136.0,88.0,138,123,111,139,148,440,790,787
2025-02-19 16:41:00.656,-697.0,234.0,51.0,64.0,100.0,42.0,137,123,113,140,149,452,266,821
2025-02-19 16:41:00.673,-870.0,695.0,-234.0,38.0,64.0,-25.0,136,121,112,139,149,459,16,941
2025-02-19 16:41:00.693,-1025.0,1055.0,-758.0,71.0,-25.0,-192.0,136,122,113,139,150,468,15,1009
2025-02-19 16:41:00.714,-1342.0,1618.0,-1293.0,114.0,-198.0,-423.0,138,126,113,140,153,474,296,1006
2025-02-19 16:41:00.730,-1224.0,1560.0,-981.0,73.0,-440.0,-676.0,139,127,113,139,153,481,742,852
2025-02-19 16:41:00.751,-3.0,1584.0,-1463.0,66.0,-800.0,-798.0,140,130,114,141,154,483,1018,888
2025-02-19 16:41:00.771,3348.0,-1634.0,-1299.0,106.0,-879.0,-652.0,136,131,112,139,153,489,1018,1010
2025-02-19 16:41:00.787,4677.0,-3379.0,728.0,357.0,-599.0,-280.0,137,132,114,141,154,493,1018,1010
2025-02-19 16:41:00.808,3481.0,-3653.0,1784.0,210.0,-252.0,44.0,140,134,116,144,157,422,1019,842
2025-02-19 16:41:00.826,2175.0,-1844.0,2125.0,170.0,74.0,87.0,143,132,114,143,156,398,1018,283
2025-02-19 16:41:00.845,680.0,-894.0,1809.0,130.0,183.0,56.0,147,133,113,145,158,327,1018,303
2025-02-19 16:41:00.865,517.0,-760.0,1467.0,-10.0,184.0,68.0,146,130,107,143,156,310,1018,408
2025-02-19 16:41:00.882,368.0,-1390.0,996.0,31.0,226.0,93.0,146,124,99,141,156,295,767,462
2025-02-19 16:41:00.903,422.0,-1280.0,812.0,123.0,252.0,137.0,140,111,83,132,150,360,13,670
2025-02-19 16:41:00.923,461.0,-911.0,431.0,153.0,284.0,171.0,143,107,83,128,152,392,17,905
2025-02-19 16:41:00.940,365.0,-713.0,577.0,158.0,301.0,208.0,142,100,79,114,149,411,14,1011
2025-02-19 16:41:00.959,388.0,-747.0,624.0,169.0,298.0,237.0,143,94,76,110,149,425,17,923
2025-02-19 16:41:00.978,-72.0,-412.0,612.0,199.0,262.0,250.0,142,79,66,90,141,438,26,672
2025-02-19 16:41:00.995,339.0,-337.0,371.0,148.0,240.0,274.0,140,73,61,80,129,453,15,519
2025-02-19 16:41:01.017,-48.0,-245.0,134.0,116.0,170.0,282.0,140,73,63,79,122,466,17,412
2025-02-19 16:41:01.034,-346.0,-10.0,106.0,98.0,93.0,237.0,138,70,61,76,117,478,16,250
2025-02-19 16:41:01.054,-404.0,97.0,376.0,40.0,18.0,232.0,137,69,60,75,119,491,16,244
2025-02-19 16:41:01.073,-327.0,298.0,192.0,52.0,-35.0,171.0,133,67,59,76,120,504,15,353
2025-02-19 16:41:01.092,-590.0,552.0,267.0,84.0,-66.0,86.0,133,70,62,79,128,498,18,403
2025-02-19 16:41:01.110,-781.0,1170.0,350.0,60.0,-127.0,43.0,130,70,62,77,133,467,18,599
2025-02-19 16:41:01.131,-875.0,1897.0,485.0,67.0,-168.0,-115.0,128,69,61,75,139,447,16,1010
2025-02-19 16:41:01.148,-742.0,2199.0,664.0,115.0,-156.0,-222.0,132,72,64,79,146,434,18,1010
2025-02-19 16:41:01.169,-564.0,2618.0,1169.0,129.0,-86.0,-327.0,132,71,63,79,148,423,352,1010
2025-02-19 16:41:01.189,-256.0,2453.0,1392.0,55.0,28.0,-449.0,134,73,66,82,152,414,762,1005
2025-02-19 16:41:01.206,317.0,1109.0,1425.0,66.0,63.0,-532.0,134,73,66,82,152,405,1018,800
2025-02-19 16:41:01.225,842.0,-431.0,1326.0,185.0,26.0,-494.0,136,74,67,85,154,405,1018,810
2025-02-19 16:41:01.243,1106.0,-1142.0,1140.0,244.0,-56.0,-410.0,139,75,67,87,155,403,978,945
2025-02-19 16:41:01.263,1590.0,-2128.0,1863.0,146.0,-88.0,-206.0,140,74,64,87,155,408,633,834
2025-02-19 16:41:01.283,1520.0,-2067.0,2003.0,-116.0,-47.0,-27.0,143,76,66,91,156,402,318,771
2025-02-19 16:41:01.303,1195.0,-2385.0,1385.0,-198.0,-28.0,90.0,141,80,66,91,155,388,629,19
2025-02-19 16:41:01.320,699.0,-1874.0,1117.0,-93.0,-2.0,187.0,141,77,68,91,159,365,1018,19
2025-02-19 16:41:01.340,145.0,-949.0,1107.0,-33.0,-4.0,230.0,141,77,67,91,156,348,1018,17
2025-02-19 16:41:01.352,38.0,-151.0,1281.0,-68.0,8.0,263.0,140,76,68,91,154,345,775,192
2025-02-19 16:41:01.378,-230.0,283.0,1128.0,-159.0,-2.0,237.0,141,77,68,93,156,343,477,420
2025-02-19 16:41:01.399,-303.0,195.0,1031.0,-142.0,0.0,189.0,141,75,67,88,155,358,132,550
2025-02-19 16:41:01.415,-349.0,157.0,911.0,-53.0,31.0,152.0,141,77,69,92,156,372,448,401
2025-02-19 16:41:01.434,-433.0,284.0,778.0,13.0,52.0,144.0,138,76,69,92,155,385,526,354
2025-02-19 16:41:01.454,-582.0,546.0,732.0,9.0,36.0,144.0,137,76,68,91,155,399,18,408
2025-02-19 16:41:01.472,-614.0,883.0,734.0,-31.0,8.0,101.0,137,77,69,91,155,405,18,705
2025-02-19 16:41:01.491,-737.0,773.0,772.0,-7.0,-14.0,36.0,135,76,67,89,154,412,17,919
2025-02-19 16:41:01.512,-746.0,1054.0,927.0,33.0,-10.0,-15.0,133,77,69,90,155,414,17,1009
2025-02-19 16:41:01.529,-797.0,1297.0,1004.0,44.0,2.0,-108.0,130,74,67,88,154,418,16,1010
2025-02-19 16:41:01.546,-821.0,1361.0,1001.0,46.0,27.0,-162.0,130,74,68,89,155,422,17,933
2025-02-19 16:41:01.563,-903.0,1363.0,807.0,57.0,40.0,-220.0,128,74,67,88,155,425,17,954
2025-02-19 16:41:01.587,-781.0,1357.0,561.0,60.0,25.0,-285.0,126,75,66,88,155,431,87,787
2025-02-19 16:41:01.607,-392.0,856.0,671.0,87.0,-8.0,-334.0,125,75,67,89,155,436,115,528
2025-02-19 16:41:01.624,264.0,-76.0,955.0,141.0,-41.0,-327.0,124,74,65,88,155,445,168,247
2025-02-19 16:41:01.643,834.0,-634.0,1394.0,119.0,-82.0,-288.0,126,80,66,89,155,451,415,58
2025-02-19 16:41:01.664,1482.0,-1675.0,1883.0,-12.0,-55.0,-192.0,123,74,64,88,154,470,948,16
2025-02-19 16:41:01.681,1664.0,-2584.0,1590.0,-106.0,-33.0,-71.0,126,75,65,91,154,478,352,17
2025-02-19 16:41:01.701,1320.0,-2728.0,1115.0,-90.0,-34.0,49.0,124,73,64,90,154,486,16,15
2025-02-19 16:41:01.722,583.0,-1737.0,819.0,-76.0,-45.0,155.0,126,75,65,90,154,493,288,15
2025-02-19 16:41:01.739,66.0,-793.0,883.0,-112.0,-77.0,197.0,128,77,67,92,155,493,1018,16
2025-02-19 16:41:01.758,-80.0,-320.0,1358.0,-129.0,-68.0,216.0,129,76,66,92,154,497,1018,16
2025-02-19 16:41:01.775,-131.0,-51.0,1771.0,-143.0,4.0,229.0,133,77,68,94,155,497,1018,82
2025-02-19 16:41:01.795,-184.0,240.0,1981.0,-142.0,72.0,213.0,137,76,69,95,153,497,1018,301
2025-02-19 16:41:01.816,-305.0,161.0,1882.0,-143.0,158.0,185.0,141,80,73,98,152,497,1018,322
2025-02-19 16:41:01.833,-290.0,106.0,1531.0,-123.0,220.0,177.0,143,79,73,102,146,495,1018,509
2025-02-19 16:41:01.853,-140.0,202.0,1216.0,-120.0,289.0,154.0,146,83,77,107,139,498,18,1010
2025-02-19 16:41:01.873,-326.0,-64.0,429.0,-118.0,299.0,154.0,147,87,82,108,129,498,17,1010
2025-02-19 16:41:01.890,-536.0,-37.0,430.0,-82.0,285.0,165.0,145,93,87,104,119,502,16,1011
2025-02-19 16:41:01.910,-609.0,-41.0,228.0,-42.0,255.0,147.0,147,102,95,104,114,506,335,917
2025-02-19 16:41:01.928,-698.0,112.0,160.0,-28.0,231.0,110.0,145,109,99,100,112,514,721,546
2025-02-19 16:41:01.946,-695.0,275.0,87.0,-56.0,198.0,77.0,146,118,105,97,114,522,789,86
2025-02-19 16:41:01.967,-646.0,260.0,-502.0,-82.0,134.0,20.0,144,121,106,95,114,530,214,15
2025-02-19 16:41:01.983,-971.0,408.0,-792.0,-37.0,18.0,-55.0,146,127,111,95,117,538,50,16
2025-02-19 16:41:02.005,-962.0,775.0,-1105.0,-53.0,-133.0,-128.0,146,131,113,87,113,540,36,148
2025-02-19 16:41:02.024,-753.0,954.0,-1359.0,-65.0,-280.0,-256.0,145,134,114,85,107,545,24,378
2025-02-19 16:41:02.045,-760.0,1056.0,-1397.0,-26.0,-444.0,-345.0,146,137,116,93,103,546,245,392
2025-02-19 16:41:02.062,-357.0,1037.0,-1161.0,-25.0,-597.0,-405.0,144,139,116,93,99,539,903,166
2025-02-19 16:41:02.080,467.0,429.0,-192.0,-40.0,-747.0,-452.0,145,142,118,98,103,529,944,375
2025-02-19 16:41:02.099,1693.0,-462.0,343.0,-96.0,-841.0,-397.0,145,142,117,97,105,517,1011,680
2025-02-19 16:41:02.117,3604.0,-1558.0,1059.0,-13.0,-764.0,-266.0,148,144,118,104,114,508,1017,690
2025-02-19 16:41:02.139,3975.0,-2835.0,2520.0,-111.0,-334.0,-85.0,148,145,118,108,120,500,1018,485
2025-02-19 16:41:02.155,3040.0,-3113.0,2287.0,-65.0,71.0,97.0,144,141,114,105,119,536,1018,77
2025-02-19 16:41:02.176,1487.0,-2278.0,1659.0,88.0,247.0,121.0,144,142,115,105,119,593,1018,13
2025-02-19 16:41:02.193,581.0,-1051.0,1260.0,60.0,244.0,127.0,144,141,114,102,119,629,1017,12
2025-02-19 16:41:02.214,242.0,-767.0,973.0,-54.0,192.0,130.0,144,142,114,102,119,662,1018,13
2025-02-19 16:41:02.231,149.0,-842.0,768.0,-102.0,165.0,137.0,144,141,113,102,118,687,1018,227
2025-02-19 16:41:02.254,58.0,-832.0,595.0,-68.0,170.0,152.0,145,141,114,102,119,707,1019,749
2025-02-19 16:41:02.270,114.0,-653.0,437.0,3.0,189.0,157.0,147,143,116,104,121,712,201,1011
2025-02-19 16:41:02.291,57.0,-380.0,345.0,40.0,202.0,136.0,146,142,115,103,122,699,9,1000
2025-02-19 16:41:02.307,10.0,-167.0,521.0,10.0,221.0,116.0,146,143,115,102,124,698,376,946
2025-02-19 16:41:02.328,-164.0,-262.0,431.0,-26.0,207.0,117.0,147,142,116,102,125,686,1017,595
2025-02-19 16:41:02.347,-164.0,-365.0,272.0,-32.0,180.0,125.0,147,142,116,102,126,669,1017,363
2025-02-19 16:41:02.365,-113.0,-333.0,324.0,11.0,188.0,112.0,150,144,118,105,128,633,434,473
2025-02-19 16:41:02.383,-191.0,-360.0,385.0,46.0,235.0,116.0,148,143,118,104,125,590,17,173
2025-02-19 16:41:02.399,-302.0,-274.0,178.0,104.0,254.0,134.0,149,144,118,103,120,556,17,469
2025-02-19 16:41:02.422,-425.0,38.0,-47.0,124.0,240.0,152.0,148,140,116,99,115,531,15,815
2025-02-19 16:41:02.442,-875.0,702.0,-620.0,82.0,149.0,128.0,149,141,117,95,111,517,17,997
2025-02-19 16:41:02.462,-1628.0,1193.0,-1535.0,58.0,-75.0,-31.0,150,142,117,87,103,508,17,1010
2025-02-19 16:41:02.480,-1780.0,2089.0,-1515.0,76.0,-389.0,-334.0,149,144,119,87,94,462,661,1011
2025-02-19 16:41:02.500,-927.0,1944.0,-1207.0,-151.0,-677.0,-493.0,148,144,118,87,90,428,949,1011
2025-02-19 16:41:02.520,770.0,561.0,-1082.0,-332.0,-945.0,-516.0,148,144,116,87,94,405,933,1010
2025-02-19 16:41:02.537,3416.0,-2076.0,232.0,-169.0,-839.0,-465.0,149,147,119,97,113,383,772,1010
2025-02-19 16:41:02.557,4271.0,-4050.0,1886.0,50.0,-237.0,-208.0,146,143,113,100,123,373,16,719
2025-02-19 16:41:02.574,3391.0,-3305.0,1645.0,223.0,215.0,2.0,145,142,113,102,122,386,450,114
2025-02-19 16:41:02.593,1422.0,-2152.0,1853.0,211.0,265.0,58.0,144,140,111,95,116,410,1018,14
2025-02-19 16:41:02.614,671.0,-1530.0,1447.0,38.0,198.0,128.0,144,141,111,95,112,462,1019,13
2025-02-19 16:41:02.631,597.0,-1640.0,1092.0,16.0,198.0,181.0,145,140,109,98,110,504,1018,14
2025-02-19 16:41:02.652,362.0,-1367.0,831.0,102.0,244.0,203.0,145,135,105,100,114,536,1018,30
2025-02-19 16:41:02.671,250.0,-1111.0,702.0,141.0,291.0,226.0,148,131,101,98,117,551,629,322
2025-02-19 16:41:02.688,130.0,-743.0,363.0,166.0,319.0,255.0,149,126,95,100,122,522,846,679
2025-02-19 16:41:02.709,334.0,-877.0,478.0,200.0,323.0,275.0,152,115,90,104,126,475,915,867
2025-02-19 16:41:02.726,60.0,-319.0,224.0,194.0,287.0,301.0,150,98,81,101,131,421,19,794
2025-02-19 16:41:02.746,-121.0,-124.0,164.0,153.0,223.0,296.0,150,90,77,94,136,389,18,499
2025-02-19 16:41:02.766,-385.0,-33.0,115.0,106.0,150.0,272.0,150,87,75,91,137,373,19,19
2025-02-19 16:41:02.783,-262.0,419.0,109.0,50.0,100.0,235.0,149,80,70,94,135,366,17,17
2025-02-19 16:41:02.803,-357.0,389.0,-134.0,8.0,9.0,193.0,149,82,71,93,136,357,18,333
2025-02-19 16:41:02.823,-491.0,595.0,17.0,62.0,-52.0,99.0,147,81,69,88,136,350,17,843
2025-02-19 16:41:02.840,-789.0,1301.0,-84.0,164.0,-108.0,26.0,147,82,70,89,140,339,19,1010
2025-02-19 16:41:02.860,-839.0,2264.0,182.0,233.0,-111.0,-85.0,142,77,66,87,141,334,17,1011
2025-02-19 16:41:02.880,-913.0,3336.0,288.0,185.0,-46.0,-268.0,140,79,66,88,144,334,19,1010
2025-02-19 16:41:02.898,-988.0,2861.0,75.0,139.0,-42.0,-409.0,137,80,67,89,147,335,144,1010
2025-02-19 16:41:02.917,-650.0,1795.0,50.0,191.0,-166.0,-515.0,137,80,67,89,148,340,20,1010
2025-02-19 16:41:02.934,395.0,626.0,760.0,303.0,-328.0,-505.0,141,80,68,92,151,344,18,1010
2025-02-19 16:41:02.954,1492.0,-565.0,1903.0,278.0,-366.0,-405.0,143,79,66,93,150,351,17,944
2025-02-19 16:41:02.975,2276.0,-1462.0,3018.0,78.0,-198.0,-237.0,147,81,68,95,154,363,18,729
2025-02-19 16:41:02.992,2220.0,-2256.0,2787.0,-124.0,-44.0,-99.0,146,80,65,92,153,380,15,488
2025-02-19 16:41:03.012,1498.0,-2827.0,1764.0,-162.0,11.0,60.0,147,82,67,93,154,400,17,62
2025-02-19 16:41:03.031,838.0,-2273.0,1092.0,-67.0,5.0,172.0,146,83,68,88,154,419,17,16
2025-02-19 16:41:03.049,284.0,-746.0,1004.0,-50.0,-21.0,227.0,144,82,67,86,153,436,88,15
2025-02-19 16:41:03.069,-34.0,-384.0,989.0,-71.0,-40.0,259.0,146,85,70,89,155,453,266,17
2025-02-19 16:41:03.089,-124.0,-52.0,1090.0,-60.0,-24.0,289.0,145,83,69,91,153,448,407,15
2025-02-19 16:41:03.106,-218.0,317.0,968.0,-104.0,-33.0,298.0,148,87,73,97,155,454,216,18
2025-02-19 16:41:03.127,-339.0,492.0,998.0,-107.0,-60.0,265.0,148,87,74,97,154,422,79,17
2025-02-19 16:41:03.144,-197.0,532.0,1151.0,-74.0,-44.0,177.0,150,89,77,100,156,404,19,35
2025-02-19 16:41:03.163,-189.0,396.0,1293.0,4.0,27.0,130.0,150,90,77,100,155,390,21,291
2025-02-19 16:41:03.181,-259.0,527.0,1144.0,31.0,79.0,111.0,150,89,76,98,155,381,17,966
2025-02-19 16:41:03.200,-443.0,739.0,989.0,24.0,70.0,87.0,152,90,77,98,156,374,18,1011
2025-02-19 16:41:03.220,-641.0,1172.0,1039.0,-8.0,28.0,2.0,151,88,76,93,155,368,17,1010
2025-02-19 16:41:03.241,-525.0,1218.0,1168.0,-1.0,57.0,-77.0,152,90,77,91,156,369,18,800
2025-02-19 16:41:03.257,-744.0,1669.0,915.0,-8.0,106.0,-155.0,151,89,76,92,155,371,17,512
2025-02-19 16:41:03.278,-1027.0,2196.0,416.0,-39.0,125.0,-292.0,151,90,77,94,157,376,18,119
2025-02-19 16:41:03.290,-936.0,1804.0,88.0,-31.0,62.0,-405.0,152,91,79,97,157,379,19,263
2025-02-19 16:41:03.315,-316.0,120.0,205.0,78.0,-49.0,-424.0,152,90,77,96,156,379,18,695
2025-02-19 16:41:03.335,592.0,-750.0,524.0,181.0,-182.0,-374.0,154,92,77,98,157,377,18,1010
2025-02-19 16:41:03.356,1375.0,-2053.0,1290.0,140.0,-240.0,-231.0,154,90,75,96,156,376,17,988
2025-02-19 16:41:03.372,2209.0,-2198.0,2139.0,53.0,-127.0,-40.0,153,89,73,96,154,406,16,693
2025-02-19 16:41:03.392,1691.0,-1941.0,1884.0,-105.0,-51.0,46.0,153,87,72,95,154,468,204,693
2025-02-19 16:41:03.409,903.0,-1744.0,1261.0,-115.0,-28.0,137.0,155,90,74,97,157,484,300,709
2025-02-19 16:41:03.430,282.0,-1063.0,1043.0,-82.0,-32.0,178.0,156,91,75,97,157,485,486,754
2025-02-19 16:41:03.450,90.0,-534.0,1421.0,-69.0,-17.0,201.0,154,90,75,97,155,488,1015,794
2025-02-19 16:41:03.467,-16.0,-68.0,1710.0,-96.0,38.0,220.0,155,92,78,99,157,490,1018,621
2025-02-19 16:41:03.487,-59.0,48.0,1791.0,-144.0,81.0,226.0,154,93,80,104,157,495,1018,376
2025-02-19 16:41:03.508,-122.0,40.0,1534.0,-179.0,133.0,215.0,155,97,84,115,153,501,1017,543
2025-02-19 16:41:03.523,-221.0,-94.0,1418.0,-140.0,157.0,191.0,154,98,85,117,152,503,1015,889
2025-02-19 16:41:03.545,-228.0,-74.0,1252.0,-122.0,204.0,168.0,154,97,84,119,145,511,912,1010
2025-02-19 16:41:03.564,-239.0,166.0,1089.0,-123.0,244.0,150.0,155,97,85,120,137,515,989,1011
2025-02-19 16:41:03.582,-259.0,250.0,666.0,-139.0,257.0,103.0,153,96,83,122,122,519,881,1009
2025-02-19 16:41:03.600,-527.0,168.0,426.0,-141.0,254.0,81.0,154,97,83,123,105,525,771,1010
2025-02-19 16:41:03.618,-390.0,122.0,314.0,-133.0,232.0,65.0,153,94,79,114,92,531,720,953
2025-02-19 16:41:03.635,-375.0,206.0,35.0,-120.0,220.0,41.0,152,92,78,109,92,539,884,800
2025-02-19 16:41:03.657,-552.0,660.0,-157.0,-104.0,216.0,32.0,151,88,76,99,84,545,945,534
2025-02-19 16:41:03.672,-169.0,901.0,-617.0,-38.0,208.0,-29.0,146,83,73,90,90,557,981,16
2025-02-19 16:41:03.696,-492.0,1414.0,-1728.0,125.0,105.0,-140.0,139,80,70,86,85,562,961,16
2025-02-19 16:41:03.715,-1153.0,1223.0,-2940.0,112.0,-195.0,-296.0,124,72,62,73,64,571,704,15
2025-02-19 16:41:03.733,-849.0,1310.0,-2521.0,209.0,-629.0,-353.0,122,72,64,74,60,565,1016,17
2025-02-19 16:41:03.753,732.0,783.0,-1709.0,200.0,-934.0,-402.0,122,69,60,73,61,552,1018,14
2025-02-19 16:41:03.773,4689.0,-2015.0,2042.0,326.0,-912.0,-232.0,134,74,63,77,64,559,1018,15
2025-02-19 16:41:03.790,4878.0,-2363.0,5355.0,196.0,-214.0,31.0,131,79,66,81,67,562,1018,17
2025-02-19 16:41:03.811,1371.0,-1509.0,3874.0,40.0,77.0,-54.0,123,71,59,75,65,569,1019,15
2025-02-19 16:41:03.827,399.0,-2012.0,2730.0,-32.0,36.0,36.0,118,72,61,76,66,573,1019,21
2025-02-19 16:41:03.843,174.0,-702.0,2374.0,-154.0,85.0,61.0,117,71,61,76,65,575,280,600
2025-02-19 16:41:03.860,113.0,-995.0,1743.0,-171.0,166.0,59.0,119,75,65,80,68,572,825,1010
2025-02-19 16:41:03.885,-51.0,-1009.0,1190.0,-114.0,209.0,89.0,117,74,63,79,67,547,1018,1010
2025-02-19 16:41:03.905,-175.0,-617.0,891.0,-100.0,230.0,115.0,118,74,64,82,69,533,282,1010
2025-02-19 16:41:03.922,-49.0,-492.0,778.0,-103.0,238.0,122.0,117,73,64,83,70,534,16,1010
2025-02-19 16:41:03.942,79.0,-417.0,833.0,-111.0,248.0,115.0,118,73,63,83,70,553,15,1011
2025-02-19 16:41:03.962,-21.0,-481.0,657.0,-96.0,252.0,121.0,120,74,65,85,72,572,16,1009
2025-02-19 16:41:03.982,-194.0,-496.0,383.0,-66.0,228.0,131.0,118,73,63,84,72,591,14,790
2025-02-19 16:41:03.995,-73.0,-318.0,348.0,-58.0,217.0,135.0,120,74,65,86,76,605,16,112
2025-02-19 16:41:04.019,-151.0,-244.0,210.0,-59.0,216.0,143.0,121,74,64,86,75,598,964,14
2025-02-19 16:41:04.036,-395.0,-256.0,-20.0,-32.0,176.0,137.0,121,77,67,90,79,581,1018,16
2025-02-19 16:41:04.056,-521.0,-159.0,-170.0,21.0,135.0,125.0,123,77,68,92,81,560,1018,106
2025-02-19 16:41:04.077,-421.0,102.0,-271.0,56.0,124.0,103.0,123,77,67,91,81,543,1018,356
2025-02-19 16:41:04.093,-623.0,548.0,-581.0,98.0,101.0,63.0,125,78,69,93,84,526,1018,513
2025-02-19 16:41:04.110,-968.0,1038.0,-1771.0,214.0,-18.0,-97.0,120,77,67,89,81,503,1018,530
2025-02-19 16:41:04.134,-1610.0,1435.0,-2710.0,272.0,-369.0,-223.0,119,78,68,86,80,464,1019,959
2025-02-19 16:41:04.151,-384.0,1951.0,-2292.0,149.0,-730.0,-305.0,119,76,66,83,76,430,1018,980
2025-02-19 16:41:04.171,1744.0,499.0,-1200.0,16.0,-983.0,-324.0,125,79,69,86,80,403,1018,762
2025-02-19 16:41:04.191,4150.0,-2786.0,3878.0,74.0,-485.0,-83.0,130,81,71,88,79,381,1018,419
2025-02-19 16:41:04.208,3029.0,-1807.0,4017.0,154.0,8.0,-37.0,127,81,70,85,78,361,1018,277
2025-02-19 16:41:04.229,639.0,-1166.0,3194.0,81.0,68.0,-35.0,128,81,69,86,78,368,18,47
2025-02-19 16:41:04.244,44.0,-628.0,2378.0,-96.0,63.0,-26.0,126,80,68,85,78,378,17,294
2025-02-19 16:41:04.266,-189.0,-853.0,1524.0,-183.0,76.0,-35.0,126,80,69,86,80,384,18,1008
2025-02-19 16:41:04.285,-336.0,-1087.0,756.0,-122.0,92.0,-25.0,124,79,67,86,79,387,16,1010
2025-02-19 16:41:04.303,-503.0,-858.0,412.0,-39.0,75.0,-7.0,124,79,69,88,81,388,18,1010
2025-02-19 16:41:04.322,-519.0,-518.0,375.0,-11.0,41.0,-3.0,125,80,68,88,82,391,18,907
2025-02-19 16:41:04.343,-362.0,-420.0,483.0,-18.0,2.0,-9.0,125,78,67,86,80,398,17,1011
2025-02-19 16:41:04.359,-146.0,-486.0,685.0,-39.0,-34.0,-3.0,126,79,68,87,81,415,18,1010
2025-02-19 16:41:04.380,95.0,-661.0,938.0,-41.0,-27.0,10.0,124,77,66,85,79,451,14,1007
2025-02-19 16:41:04.400,189.0,-675.0,963.0,-17.0,14.0,7.0,124,77,66,85,79,500,14,555
2025-02-19 16:41:04.416,83.0,-625.0,829.0,3.0,35.0,7.0,123,77,65,85,79,543,14,14
2025-02-19 16:41:04.437,-59.0,-500.0,696.0,-4.0,34.0,2.0,123,77,65,85,79,580,304,14
2025-02-19 16:41:04.454,-159.0,-523.0,587.0,-19.0,16.0,0.0,124,78,66,85,80,605,935,15
2025-02-19 16:41:04.474,-160.0,-571.0,604.0,-14.0,1.0,-3.0,123,76,65,85,79,627,1018,22
2025-02-19 16:41:04.494,-101.0,-595.0,719.0,3.0,1.0,-3.0,124,77,66,85,80,641,935,91
2025-02-19 16:41:04.512,-66.0,-642.0,785.0,10.0,4.0,-2.0,123,77,65,84,79,656,8,147
2025-02-19 16:41:04.532,-73.0,-634.0,790.0,6.0,1.0,3.0,124,77,66,85,79,668,14,174
2025-02-19 16:41:04.551,-85.0,-622.0,796.0,-5.0,-5.0,3.0,124,78,66,85,80,674,14,205
2025-02-19 16:41:04.569,-61.0,-654.0,848.0,-12.0,-2.0,10.0,123,76,65,86,79,680,13,222
2025-02-19 16:41:04.588,-77.0,-637.0,860.0,-8.0,7.0,10.0,124,78,66,85,80,682,14,333
2025-02-19 16:41:04.609,-123.0,-606.0,845.0,-2.0,17.0,8.0,123,77,65,84,79,684,14,448
2025-02-19 16:41:04.625,-191.0,-593.0,791.0,0.0,13.0,3.0,125,78,66,86,81,684,14,495
2025-02-19 16:41:04.642,-158.0,-608.0,804.0,-5.0,10.0,0.0,124,77,65,85,80,683,13,562
2025-02-19 16:41:04.662,-150.0,-632.0,803.0,-12.0,8.0,0.0,124,77,66,85,80,682,14,568
2025-02-19 16:41:04.683,-134.0,-656.0,811.0,-8.0,8.0,-2.0,125,78,66,86,81,679,14,536
2025-02-19 16:41:04.703,-140.0,-655.0,784.0,-6.0,9.0,1.0,124,77,65,85,80,678,13,541
2025-02-19 16:41:04.721,-158.0,-644.0,771.0,-8.0,4.0,2.0,125,78,66,86,81,675,15,543
2025-02-19 16:41:04.740,-173.0,-654.0,753.0,-3.0,1.0,1.0,124,77,64,85,80,672,13,630
2025-02-19 16:41:04.756,-185.0,-627.0,760.0,5.0,-3.0,2.0,125,78,66,85,81,668,14,774
2025-02-19 16:41:04.777,-193.0,-572.0,774.0,0.0,-5.0,0.0,124,77,65,85,78,662,14,937
2025-02-19 16:41:04.795,-149.0,-611.0,810.0,-4.0,-4.0,-2.0,125,77,67,86,80,659,14,979
2025-02-19 16:41:04.817,-126.0,-652.0,825.0,-3.0,2.0,-3.0,126,78,66,86,81,654,15,928
2025-02-19 16:41:04.834,-125.0,-699.0,815.0,6.0,3.0,0.0,124,77,66,85,80,651,14,797
2025-02-19 16:41:04.855,-122.0,-641.0,836.0,7.0,5.0,1.0,125,78,66,86,81,648,14,556
2025-02-19 16:41:04.872,-155.0,-614.0,790.0,-1.0,5.0,0.0,124,77,65,85,80,649,13,304
2025-02-19 16:41:04.891,-157.0,-633.0,756.0,-6.0,1.0,-1.0,125,78,66,87,81,648,15,114
2025-02-19 16:41:04.908,-151.0,-651.0,747.0,-6.0,-1.0,1.0,123,79,67,85,80,648,12,13
2025-02-19 16:41:04.929,-151.0,-665.0,750.0,-3.0,-3.0,3.0,124,80,68,86,81,648,13,14
2025-02-19 16:41:04.947,-145.0,-648.0,772.0,2.0,-4.0,3.0,125,77,65,85,81,646,14,14
2025-02-19 16:41:04.970,-155.0,-629.0,779.0,5.0,-1.0,4.0,124,75,65,85,80,645,13,13
2025-02-19 16:41:04.987,-168.0,-585.0,780.0,2.0,0.0,2.0,125,78,67,87,81,642,15,22
2025-02-19 16:41:05.007,-176.0,-605.0,777.0,-2.0,1.0,1.0,124,78,66,85,80,640,13,84
2025-02-19 16:41:05.027,-169.0,-604.0,778.0,-4.0,1.0,0.0,126,78,66,87,81,637,14,192
2025-02-19 16:41:05.043,-161.0,-634.0,767.0,2.0,1.0,-2.0,124,77,65,85,80,633,12,342
2025-02-19 16:41:05.063,-143.0,-628.0,785.0,3.0,0.0,0.0,125,78,66,86,81,629,15,498
2025-02-19 16:41:05.083,-136.0,-637.0,787.0,-5.0,-3.0,1.0,126,78,66,86,82,624,14,692
2025-02-19 16:41:05.101,-129.0,-655.0,788.0,-6.0,-4.0,1.0,125,76,65,85,80,619,14,882
2025-02-19 16:41:05.121,-138.0,-657.0,779.0,-1.0,-4.0,3.0,126,78,67,87,82,613,15,1008
2025-02-19 16:41:05.138,-134.0,-616.0,796.0,-2.0,-4.0,3.0,125,77,66,85,80,609,13,1010
2025-02-19 16:41:05.157,-159.0,-612.0,796.0,-4.0,-4.0,3.0,126,78,67,87,82,605,15,1010
2025-02-19 16:41:05.178,-168.0,-605.0,792.0,-1.0,-4.0,1.0,124,77,65,85,80,602,12,954
2025-02-19 16:41:05.195,-151.0,-622.0,812.0,4.0,-3.0,1.0,126,78,67,87,82,599,15,866
2025-02-19 16:41:05.212,-162.0,-596.0,828.0,3.0,-1.0,0.0,126,78,67,86,82,596,15,774
2025-02-19 16:41:05.235,-157.0,-617.0,828.0,-1.0,2.0,0.0,125,77,66,86,81,595,14,681
2025-02-19 16:41:05.252,-161.0,-630.0,815.0,3.0,5.0,-1.0,126,78,67,86,82,594,39,611
2025-02-19 16:41:05.273,-175.0,-614.0,802.0,4.0,6.0,0.0,125,77,65,85,81,592,83,561
2025-02-19 16:41:05.289,-195.0,-611.0,784.0,4.0,1.0,-2.0,126,78,66,86,81,591,86,529
2025-02-19 16:41:05.309,-174.0,-625.0,812.0,0.0,-1.0,-1.0,125,77,65,85,81,590,94,512
2025-02-19 16:41:05.328,-156.0,-634.0,819.0,-1.0,2.0,-2.0,125,78,66,86,82,589,80,516
2025-02-19 16:41:05.347,-158.0,-646.0,800.0,1.0,3.0,0.0,126,78,67,86,81,586,62,535
2025-02-19 16:41:05.365,-153.0,-642.0,813.0,2.0,3.0,1.0,125,77,66,85,81,585,40,562
2025-02-19 16:41:05.386,-174.0,-628.0,800.0,1.0,2.0,1.0,126,78,67,86,82,582,14,586
2025-02-19 16:41:05.405,-174.0,-600.0,794.0,-1.0,1.0,1.0,125,77,66,85,81,580,13,600
2025-02-19 16:41:05.424,-168.0,-601.0,783.0,-2.0,1.0,-1.0,126,78,66,86,81,581,14,612
2025-02-19 16:41:05.444,-167.0,-618.0,779.0,-5.0,-1.0,0.0,126,78,66,86,81,576,12,623
2025-02-19 16:41:05.462,-163.0,-630.0,783.0,-4.0,-2.0,-1.0,125,77,66,86,81,576,14,632
2025-02-19 16:41:05.482,-160.0,-626.0,786.0,-3.0,-1.0,0.0,126,78,67,87,82,574,14,635
2025-02-19 16:41:05.500,-152.0,-625.0,792.0,-1.0,-1.0,0.0,125,77,66,85,81,572,13,633
2025-02-19 16:41:05.519,-160.0,-624.0,792.0,-2.0,0.0,1.0,126,78,67,86,82,570,14,638
2025-02-19 16:41:05.539,-168.0,-615.0,791.0,-4.0,-1.0,0.0,125,78,66,85,81,568,11,642
2025-02-19 16:41:05.556,-176.0,-620.0,783.0,-5.0,-1.0,0.0,126,78,67,86,81,567,14,638
2025-02-19 16:41:05.576,-173.0,-616.0,783.0,-3.0,-1.0,-1.0,126,78,67,86,82,565,14,617
2025-02-19 16:41:05.597,-164.0,-623.0,788.0,-2.0,0.0,0.0,125,77,66,86,81,563,15,584
2025-02-19 16:41:05.613,-169.0,-625.0,782.0,0.0,2.0,-1.0,126,78,67,87,82,561,57,541
2025-02-19 16:41:05.634,-179.0,-625.0,764.0,0.0,0.0,0.0,125,77,66,86,81,560,117,503
2025-02-19 16:41:05.654,-181.0,-629.0,773.0,-1.0,-2.0,-2.0,126,78,67,86,81,560,152,483
2025-02-19 16:41:05.671,-165.0,-644.0,789.0,0.0,-4.0,0.0,125,77,66,86,78,558,167,460
2025-02-19 16:41:05.691,-172.0,-629.0,803.0,-3.0,-3.0,-1.0,126,78,66,86,82,558,163,446
2025-02-19 16:41:05.711,-173.0,-660.0,793.0,0.0,-3.0,0.0,126,79,67,86,82,556,149,443
2025-02-19 16:41:05.728,-164.0,-635.0,815.0,3.0,-3.0,1.0,125,77,66,86,81,556,121,444
2025-02-19 16:41:05.747,-161.0,-634.0,829.0,3.0,0.0,1.0,126,78,67,87,82,553,85,452
2025-02-19 16:41:05.765,-164.0,-630.0,829.0,4.0,1.0,2.0,125,77,65,86,81,552,58,458
2025-02-19 16:41:05.785,-168.0,-616.0,828.0,3.0,1.0,2.0,126,79,68,86,82,551,43,464
2025-02-19 16:41:05.805,-167.0,-608.0,813.0,0.0,0.0,2.0,125,77,66,85,81,548,12,461
2025-02-19 16:41:05.822,-173.0,-609.0,793.0,-2.0,0.0,1.0,126,78,66,86,81,548,14,452
2025-02-19 16:41:05.842,-172.0,-607.0,795.0,1.0,1.0,0.0,126,79,67,86,83,546,13,442
2025-02-19 16:41:05.862,-169.0,-601.0,790.0,1.0,0.0,0.0,126,77,65,86,82,545,13,440
2025-02-19 16:41:05.879,-160.0,-600.0,800.0,-2.0,-1.0,0.0,126,79,67,87,83,544,14,462
2025-02-19 16:41:05.900,-154.0,-620.0,801.0,-3.0,0.0,0.0,125,77,66,85,81,543,13,497
2025-02-19 16:41:05.919,-166.0,-615.0,786.0,0.0,0.0,0.0,127,79,68,86,82,540,15,540
2025-02-19 16:41:05.934,-180.0,-596.0,776.0,0.0,0.0,0.0,125,76,66,86,82,538,13,579
2025-02-19 16:41:05.957,-176.0,-596.0,771.0,-1.0,-3.0,-2.0,126,78,67,86,82,538,41,603
2025-02-19 16:41:05.976,-164.0,-621.0,789.0,0.0,-5.0,-1.0,127,78,67,87,83,535,133,607
2025-02-19 16:41:05.994,-162.0,-618.0,804.0,-2.0,-4.0,0.0,125,78,66,86,82,535,233,592
2025-02-19 16:41:06.014,-163.0,-632.0,799.0,0.0,-2.0,0.0,127,79,67,87,83,533,272,564
2025-02-19 16:41:06.031,-168.0,-608.0,807.0,0.0,-2.0,0.0,125,77,66,86,81,532,351,519
2025-02-19 16:41:06.051,-166.0,-614.0,820.0,0.0,0.0,-1.0,127,79,67,87,83,531,402,488
2025-02-19 16:41:06.071,-166.0,-626.0,817.0,-1.0,0.0,-1.0,125,77,66,85,81,530,524,461
2025-02-19 16:41:06.088,-164.0,-626.0,810.0,-2.0,0.0,-1.0,126,78,67,87,82,530,629,447
2025-02-19 16:41:06.108,-178.0,-618.0,796.0,-2.0,0.0,0.0,126,79,67,87,83,527,600,434
2025-02-19 16:41:06.128,-181.0,-624.0,794.0,1.0,-2.0,0.0,125,77,66,86,82,527,209,426
2025-02-19 16:41:06.145,-179.0,-602.0,804.0,2.0,-2.0,0.0,126,80,67,87,83,527,120,427
2025-02-19 16:41:06.164,-178.0,-603.0,811.0,1.0,0.0,-1.0,125,78,66,85,81,527,250,438
2025-02-19 16:41:06.186,-169.0,-609.0,818.0,-1.0,0.0,-1.0,126,79,67,86,82,527,112,453
2025-02-19 16:41:06.202,-164.0,-624.0,819.0,-2.0,0.0,-1.0,125,77,66,86,82,526,13,463
2025-02-19 16:41:06.223,-156.0,-636.0,820.0,1.0,2.0,0.0,126,79,67,87,83,526,15,479
2025-02-19 16:41:06.240,-172.0,-616.0,800.0,3.0,3.0,0.0,123,79,67,87,83,523,15,494
2025-02-19 16:41:06.260,-185.0,-600.0,782.0,2.0,1.0,0.0,125,77,66,86,82,523,14,504
2025-02-19 16:41:06.279,-179.0,-603.0,789.0,-1.0,-2.0,-1.0,126,79,67,86,83,523,29,515
2025-02-19 16:41:06.297,-167.0,-613.0,810.0,0.0,-1.0,-1.0,125,78,66,86,82,522,153,520
2025-02-19 16:41:06.315,-155.0,-623.0,821.0,2.0,1.0,0.0,126,79,67,87,82,521,128,526
2025-02-19 16:41:06.337,-158.0,-617.0,828.0,2.0,3.0,0.0,126,78,66,86,82,520,168,531
2025-02-19 16:41:06.355,-184.0,-605.0,807.0,0.0,2.0,0.0,126,78,66,87,83,518,297,537
2025-02-19 16:41:06.374,-193.0,-602.0,805.0,-3.0,-1.0,0.0,126,79,67,87,83,517,331,532
2025-02-19 16:41:06.395,-181.0,-621.0,809.0,-2.0,-1.0,-1.0,126,78,66,86,82,518,281,519
2025-02-19 16:41:06.411,-174.0,-625.0,807.0,0.0,2.0,0.0,127,79,67,87,83,516,327,514
2025-02-19 16:41:06.431,-188.0,-611.0,799.0,-1.0,1.0,0.0,126,78,66,86,82,515,346,516
2025-02-19 16:41:06.448,-189.0,-594.0,806.0,-2.0,0.0,0.0,126,79,67,87,83,515,294,522
2025-02-19 16:41:06.469,-189.0,-609.0,805.0,-3.0,0.0,-1.0,126,78,67,86,83,514,248,525
2025-02-19 16:41:06.490,-184.0,-613.0,801.0,-2.0,0.0,0.0,126,78,66,86,82,515,201,527
2025-02-19 16:41:06.505,-189.0,-610.0,784.0,-1.0,0.0,0.0,127,79,67,87,83,513,132,524
2025-02-19 16:41:06.526,-185.0,-607.0,794.0,-1.0,-1.0,0.0,126,77,66,85,81,513,75,517
2025-02-19 16:41:06.546,-178.0,-609.0,804.0,-2.0,-2.0,0.0,126,79,67,87,83,513,46,515
2025-02-19 16:41:06.564,-173.0,-608.0,805.0,-1.0,-1.0,0.0,126,78,66,86,83,513,13,518
2025-02-19 16:41:06.583,-167.0,-616.0,811.0,0.0,-1.0,-1.0,127,78,66,87,83,512,14,540
2025-02-19 16:41:06.603,-172.0,-614.0,806.0,-2.0,-1.0,0.0,127,79,67,87,84,511,14,556
2025-02-19 16:41:06.620,-170.0,-613.0,801.0,-3.0,-1.0,0.0,126,77,66,86,82,512,13,565
2025-02-19 16:41:06.640,-174.0,-605.0,803.0,-3.0,-1.0,1.0,127,79,67,87,84,510,15,563
2025-02-19 16:41:06.661,-178.0,-606.0,804.0,-3.0,-1.0,0.0,126,77,67,86,82,510,16,546
2025-02-19 16:41:06.678,-170.0,-602.0,811.0,-3.0,-1.0,0.0,126,79,67,87,83,509,116,525
2025-02-19 16:41:06.696,-170.0,-621.0,807.0,0.0,-2.0,0.0,125,78,66,86,82,508,185,513
2025-02-19 16:41:06.715,-182.0,-597.0,810.0,-1.0,-1.0,0.0,126,78,67,86,83,508,263,501
2025-02-19 16:41:06.736,-177.0,-604.0,807.0,-4.0,-1.0,0.0,127,79,67,87,84,507,322,486
