timestamp,ax,ay,az,gx,gy,gz,flex1,flex2,flex3,flex4,flex5,emg1,emg2,emg3
2025-02-20 16:23:47.054,-250.0,-442.0,915.0,0.0,2.0,-4.0,131,103,93,127,111,467,471,457
2025-02-20 16:23:47.070,-272.0,-458.0,911.0,-4.0,0.0,-4.0,131,103,95,128,111,464,468,457
2025-02-20 16:23:47.073,-259.0,-454.0,927.0,2.0,3.0,-4.0,132,103,93,127,111,461,464,459
2025-02-20 16:23:47.075,-271.0,-438.0,911.0,3.0,3.0,-3.0,131,104,93,127,110,462,462,460
2025-02-20 16:23:47.078,-275.0,-418.0,895.0,-3.0,0.0,-3.0,131,102,93,127,111,460,460,461
2025-02-20 16:23:47.098,-280.0,-443.0,889.0,-2.0,-1.0,-4.0,131,103,93,127,110,461,456,463
2025-02-20 16:23:47.115,-276.0,-473.0,895.0,-1.0,0.0,-1.0,131,103,93,127,110,463,453,463
2025-02-20 16:23:47.135,-284.0,-442.0,883.0,2.0,-2.0,0.0,131,103,93,127,111,465,450,464
2025-02-20 16:23:47.155,-279.0,-436.0,906.0,4.0,-2.0,0.0,132,103,93,128,110,467,450,465
2025-02-20 16:23:47.172,-278.0,-417.0,911.0,1.0,-1.0,0.0,131,102,92,128,108,469,452,466
2025-02-20 16:23:47.193,-275.0,-424.0,898.0,-1.0,-1.0,0.0,130,103,93,128,110,470,454,466
2025-02-20 16:23:47.211,-278.0,-439.0,910.0,-1.0,1.0,2.0,131,103,93,128,110,469,454,466
2025-02-20 16:23:47.230,-284.0,-425.0,905.0,3.0,2.0,2.0,131,103,93,128,110,472,458,465
2025-02-20 16:23:47.248,-289.0,-409.0,903.0,4.0,0.0,1.0,132,103,93,127,111,471,463,465
2025-02-20 16:23:47.270,-287.0,-402.0,908.0,2.0,1.0,1.0,132,103,93,127,110,469,468,464
2025-02-20 16:23:47.287,-285.0,-405.0,901.0,-1.0,1.0,1.0,131,102,93,128,110,468,474,464
2025-02-20 16:23:47.307,-278.0,-402.0,889.0,1.0,2.0,-1.0,132,103,93,127,111,469,476,463
2025-02-20 16:23:47.325,-283.0,-409.0,872.0,2.0,3.0,-3.0,131,103,92,128,110,468,479,463
2025-02-20 16:23:47.344,-277.0,-402.0,869.0,0.0,0.0,-3.0,132,103,93,128,110,468,481,463
2025-02-20 16:23:47.360,-276.0,-413.0,875.0,-2.0,-2.0,-4.0,133,103,93,127,110,465,480,462
2025-02-20 16:23:47.381,-263.0,-435.0,877.0,1.0,0.0,-3.0,131,102,92,128,110,465,475,463
2025-02-20 16:23:47.402,-270.0,-430.0,872.0,4.0,0.0,-2.0,131,103,93,126,110,464,465,464
2025-02-20 16:23:47.422,-272.0,-412.0,873.0,6.0,-1.0,-2.0,132,103,93,128,110,464,460,466
2025-02-20 16:23:47.439,-272.0,-402.0,885.0,5.0,-2.0,-3.0,133,102,93,127,110,466,456,466
2025-02-20 16:23:47.458,-265.0,-417.0,890.0,5.0,0.0,-3.0,131,103,93,127,110,466,453,467
2025-02-20 16:23:47.479,-277.0,-428.0,883.0,5.0,-1.0,-2.0,132,103,92,128,109,465,451,467
2025-02-20 16:23:47.496,-282.0,-428.0,888.0,5.0,-2.0,-2.0,132,102,92,128,110,465,448,470
2025-02-20 16:23:47.517,-269.0,-445.0,899.0,4.0,-1.0,-1.0,131,103,93,128,110,463,447,470
2025-02-20 16:23:47.536,-266.0,-442.0,919.0,7.0,2.0,2.0,132,102,93,127,110,462,447,470
2025-02-20 16:23:47.554,-285.0,-425.0,895.0,10.0,3.0,3.0,132,103,93,125,109,463,448,471
2025-02-20 16:23:47.573,-293.0,-403.0,898.0,5.0,2.0,2.0,132,102,93,128,110,462,453,470
2025-02-20 16:23:47.590,-299.0,-412.0,902.0,2.0,0.0,3.0,133,102,93,128,110,464,457,469
2025-02-20 16:23:47.610,-295.0,-396.0,903.0,3.0,-1.0,1.0,132,103,94,127,110,465,462,468
2025-02-20 16:23:47.629,-297.0,-390.0,913.0,1.0,-1.0,0.0,130,102,93,128,111,467,467,466
2025-02-20 16:23:47.647,-284.0,-401.0,916.0,1.0,1.0,0.0,132,103,93,128,110,469,471,465
2025-02-20 16:23:47.668,-277.0,-419.0,914.0,4.0,4.0,2.0,132,102,93,128,110,471,474,464
2025-02-20 16:23:47.687,-277.0,-410.0,909.0,7.0,5.0,5.0,132,102,93,129,110,471,477,463
2025-02-20 16:23:47.702,-279.0,-389.0,905.0,8.0,4.0,5.0,132,102,94,128,111,472,478,463
2025-02-20 16:23:47.725,-279.0,-377.0,917.0,7.0,1.0,2.0,132,103,93,128,110,470,477,463
2025-02-20 16:23:47.744,-284.0,-375.0,922.0,5.0,0.0,2.0,132,102,93,128,110,469,476,463
2025-02-20 16:23:47.761,-282.0,-359.0,933.0,2.0,-1.0,1.0,131,103,93,128,110,467,472,463
2025-02-20 16:23:47.779,-286.0,-360.0,934.0,-4.0,1.0,1.0,133,102,93,128,111,463,467,464
2025-02-20 16:23:47.799,-289.0,-376.0,916.0,-4.0,2.0,0.0,132,102,93,127,113,462,463,464
2025-02-20 16:23:47.819,-292.0,-385.0,900.0,-2.0,2.0,2.0,131,103,93,128,110,461,460,465
2025-02-20 16:23:47.839,-291.0,-377.0,898.0,0.0,2.0,1.0,131,102,94,127,110,459,456,466
2025-02-20 16:23:47.856,-304.0,-373.0,895.0,1.0,3.0,0.0,133,102,92,128,111,458,452,468
2025-02-20 16:23:47.876,-306.0,-363.0,883.0,2.0,2.0,0.0,132,103,93,128,111,460,451,469
2025-02-20 16:23:47.897,-301.0,-356.0,895.0,0.0,1.0,-2.0,132,102,93,128,110,458,448,468
2025-02-20 16:23:47.903,-302.0,-370.0,880.0,-3.0,-1.0,-2.0,132,103,93,127,110,460,449,469
2025-02-20 16:23:47.933,-292.0,-382.0,878.0,-3.0,-3.0,-2.0,131,103,93,128,110,462,451,470
2025-02-20 16:23:47.953,-279.0,-385.0,885.0,-3.0,-3.0,-2.0,131,103,93,124,111,464,455,470
2025-02-20 16:23:47.971,-291.0,-390.0,884.0,-2.0,-3.0,-1.0,133,103,94,128,110,466,459,469
2025-02-20 16:23:47.991,-289.0,-388.0,896.0,2.0,-3.0,-2.0,132,103,94,127,110,467,463,468
2025-02-20 16:23:48.011,-290.0,-397.0,911.0,6.0,-3.0,-2.0,132,102,92,128,110,466,467,467
2025-02-20 16:23:48.029,-291.0,-386.0,911.0,4.0,-3.0,-1.0,132,103,93,128,110,467,472,466
2025-02-20 16:23:48.049,-287.0,-389.0,910.0,0.0,-3.0,-1.0,132,102,93,129,110,468,474,466
2025-02-20 16:23:48.066,-282.0,-394.0,906.0,-2.0,-3.0,0.0,132,103,93,128,110,470,476,464
2025-02-20 16:23:48.085,-287.0,-391.0,913.0,1.0,-2.0,2.0,132,103,93,128,111,471,475,465
2025-02-20 16:23:48.106,-290.0,-374.0,917.0,2.0,-2.0,1.0,132,103,93,128,111,469,474,464
2025-02-20 16:23:48.122,-300.0,-362.0,924.0,1.0,-2.0,0.0,132,102,93,128,111,465,472,464
2025-02-20 16:23:48.143,-300.0,-368.0,929.0,1.0,-2.0,0.0,132,103,93,128,111,463,469,465
2025-02-20 16:23:48.163,-300.0,-370.0,931.0,1.0,-1.0,0.0,131,102,93,128,110,461,466,464
2025-02-20 16:23:48.180,-302.0,-356.0,932.0,1.0,-1.0,-1.0,132,102,93,128,110,461,463,464
2025-02-20 16:23:48.198,-302.0,-360.0,934.0,-1.0,-1.0,-1.0,132,101,93,127,110,465,460,466
2025-02-20 16:23:48.221,-287.0,-369.0,925.0,-2.0,1.0,-2.0,132,102,92,127,110,465,458,466
2025-02-20 16:23:48.235,-284.0,-372.0,920.0,0.0,2.0,-2.0,132,103,93,127,110,466,455,467
2025-02-20 16:23:48.257,-289.0,-367.0,901.0,0.0,2.0,-2.0,131,102,92,128,111,466,454,467
2025-02-20 16:23:48.271,-293.0,-373.0,893.0,-1.0,0.0,-2.0,132,103,93,127,110,466,454,468
2025-02-20 16:23:48.295,-284.0,-384.0,899.0,0.0,-1.0,-1.0,132,102,93,128,111,466,453,468
2025-02-20 16:23:48.315,-284.0,-380.0,908.0,0.0,-1.0,-1.0,132,103,94,126,110,465,455,468
2025-02-20 16:23:48.331,-283.0,-374.0,914.0,0.0,0.0,-1.0,132,104,93,127,110,466,457,469
2025-02-20 16:23:48.351,-290.0,-380.0,911.0,1.0,1.0,0.0,131,103,93,127,111,465,459,467
2025-02-20 16:23:48.372,-293.0,-372.0,907.0,2.0,0.0,0.0,133,102,94,128,110,466,463,466
2025-02-20 16:23:48.386,-299.0,-373.0,913.0,1.0,0.0,0.0,134,102,92,129,109,467,466,465
2025-02-20 16:23:48.409,-303.0,-370.0,921.0,1.0,-1.0,0.0,133,103,94,128,110,467,470,465
2025-02-20 16:23:48.429,-300.0,-383.0,923.0,0.0,-1.0,1.0,132,102,93,128,110,467,472,463
2025-02-20 16:23:48.446,-301.0,-378.0,937.0,0.0,-1.0,1.0,132,103,93,128,110,468,474,463
2025-02-20 16:23:48.464,-301.0,-380.0,945.0,-3.0,0.0,1.0,132,103,93,127,111,468,474,463
2025-02-20 16:23:48.483,-293.0,-379.0,943.0,-3.0,1.0,1.0,132,102,93,128,110,469,473,463
2025-02-20 16:23:48.503,-294.0,-391.0,940.0,-1.0,3.0,0.0,132,103,93,128,111,470,472,462
2025-02-20 16:23:48.523,-300.0,-393.0,926.0,1.0,6.0,1.0,131,102,93,127,110,470,470,463
2025-02-20 16:23:48.541,-295.0,-396.0,925.0,0.0,4.0,2.0,131,103,93,128,111,468,468,463
2025-02-20 16:23:48.561,-289.0,-386.0,922.0,-4.0,4.0,3.0,132,102,93,127,110,466,463,464
2025-02-20 16:23:48.581,-294.0,-395.0,913.0,-7.0,4.0,5.0,132,103,93,128,111,464,459,465
2025-02-20 16:23:48.598,-307.0,-387.0,904.0,-5.0,4.0,5.0,131,102,93,130,110,461,458,465
2025-02-20 16:23:48.618,-308.0,-380.0,898.0,-4.0,4.0,5.0,132,102,92,129,110,461,455,466
2025-02-20 16:23:48.638,-310.0,-370.0,891.0,-5.0,4.0,5.0,133,102,92,128,110,457,455,468
2025-02-20 16:23:48.653,-319.0,-375.0,885.0,-8.0,3.0,5.0,131,103,93,127,110,458,452,468
2025-02-20 16:23:48.675,-317.0,-362.0,888.0,-8.0,3.0,6.0,132,102,93,128,111,459,454,468
2025-02-20 16:23:48.692,-314.0,-359.0,876.0,-1.0,1.0,5.0,132,103,92,128,110,459,454,468
2025-02-20 16:23:48.713,-298.0,-356.0,916.0,1.0,1.0,5.0,133,103,93,128,111,461,457,467
2025-02-20 16:23:48.732,-331.0,-337.0,874.0,-2.0,2.0,4.0,133,103,93,128,111,461,459,467
2025-02-20 16:23:48.749,-324.0,-336.0,871.0,-1.0,1.0,2.0,132,102,93,127,111,463,462,466
2025-02-20 16:23:48.768,-331.0,-346.0,875.0,-1.0,0.0,2.0,132,102,93,128,111,465,466,465
2025-02-20 16:23:48.790,-323.0,-345.0,872.0,0.0,-1.0,0.0,133,102,92,128,111,466,469,465
2025-02-20 16:23:48.807,-323.0,-355.0,889.0,2.0,-2.0,0.0,132,102,94,128,112,466,472,464
2025-02-20 16:23:48.827,-323.0,-351.0,908.0,4.0,-2.0,0.0,132,102,93,127,110,465,472,463
2025-02-20 16:23:48.847,-319.0,-335.0,903.0,4.0,0.0,-1.0,132,102,93,128,110,464,473,463
2025-02-20 16:23:48.864,-326.0,-338.0,900.0,2.0,-1.0,-2.0,132,103,92,129,110,462,474,463
2025-02-20 16:23:48.884,-324.0,-346.0,900.0,2.0,-3.0,-3.0,131,103,93,128,110,463,473,463
2025-02-20 16:23:48.904,-313.0,-367.0,908.0,3.0,-2.0,-3.0,131,102,94,129,111,463,471,464
2025-02-20 16:23:48.921,-311.0,-361.0,914.0,5.0,-1.0,-2.0,131,103,93,130,110,461,468,464
2025-02-20 16:23:48.941,-326.0,-356.0,912.0,4.0,-1.0,-2.0,131,102,93,128,111,463,465,466
2025-02-20 16:23:48.956,-326.0,-348.0,928.0,2.0,-2.0,-3.0,132,102,93,128,111,461,461,466
2025-02-20 16:23:48.979,-306.0,-362.0,919.0,0.0,-2.0,-3.0,131,103,93,128,111,461,459,466
2025-02-20 16:23:48.998,-308.0,-366.0,901.0,1.0,-1.0,-3.0,131,103,93,128,110,461,456,468
2025-02-20 16:23:49.016,-313.0,-382.0,905.0,1.0,-1.0,-2.0,131,103,94,129,110,462,454,468
2025-02-20 16:23:49.036,-316.0,-373.0,913.0,2.0,-2.0,-1.0,131,103,94,128,110,465,453,468
2025-02-20 16:23:49.056,-319.0,-359.0,910.0,1.0,-2.0,-1.0,131,102,92,129,110,466,454,468
2025-02-20 16:23:49.073,-326.0,-363.0,911.0,-1.0,-2.0,-1.0,132,103,94,128,106,468,457,468
2025-02-20 16:23:49.093,-315.0,-374.0,926.0,1.0,-1.0,-1.0,132,103,93,128,110,469,458,468
2025-02-20 16:23:49.113,-316.0,-364.0,922.0,1.0,1.0,0.0,132,102,92,128,111,469,461,467
2025-02-20 16:23:49.131,-320.0,-357.0,916.0,0.0,1.0,-1.0,132,103,94,128,109,470,465,466
2025-02-20 16:23:49.150,-324.0,-362.0,906.0,0.0,0.0,-1.0,132,102,93,127,110,469,468,465
2025-02-20 16:23:49.167,-311.0,-355.0,907.0,1.0,0.0,0.0,132,103,93,128,110,469,470,464
2025-02-20 16:23:49.188,-320.0,-359.0,908.0,-1.0,0.0,0.0,133,103,92,128,110,468,471,464
2025-02-20 16:23:49.207,-319.0,-355.0,902.0,0.0,-1.0,0.0,132,102,93,128,111,468,473,463
2025-02-20 16:23:49.223,-313.0,-354.0,911.0,0.0,-1.0,-1.0,133,104,93,128,110,470,473,462
2025-02-20 16:23:49.245,-306.0,-365.0,910.0,0.0,1.0,-1.0,131,102,93,126,110,470,473,462
2025-02-20 16:23:49.265,-311.0,-368.0,900.0,3.0,1.0,0.0,132,103,94,129,110,467,471,462
2025-02-20 16:23:49.282,-313.0,-354.0,895.0,1.0,-1.0,0.0,131,102,93,129,110,467,469,462
2025-02-20 16:23:49.302,-315.0,-351.0,907.0,-2.0,-1.0,-1.0,132,103,93,128,110,467,466,463
2025-02-20 16:23:49.322,-318.0,-353.0,909.0,-1.0,-1.0,0.0,132,102,93,127,111,464,462,465
2025-02-20 16:23:49.339,-320.0,-350.0,896.0,-1.0,-1.0,-1.0,131,102,91,129,111,463,459,465
2025-02-20 16:23:49.357,-318.0,-349.0,900.0,-1.0,-2.0,-1.0,132,103,90,128,110,460,457,465
2025-02-20 16:23:49.379,-317.0,-360.0,898.0,0.0,-2.0,-1.0,131,103,93,128,110,460,454,465
2025-02-20 16:23:49.396,-319.0,-361.0,908.0,1.0,-3.0,0.0,131,104,93,128,111,461,453,466
2025-02-20 16:23:49.416,-320.0,-355.0,915.0,0.0,-2.0,0.0,131,102,93,128,110,460,452,466
2025-02-20 16:23:49.434,-322.0,-351.0,917.0,1.0,-1.0,-1.0,132,103,94,129,110,461,454,466
2025-02-20 16:23:49.454,-323.0,-352.0,914.0,2.0,-1.0,0.0,131,102,93,128,110,461,456,467
2025-02-20 16:23:49.474,-325.0,-346.0,916.0,2.0,-2.0,-1.0,131,102,93,128,111,463,459,466
2025-02-20 16:23:49.490,-314.0,-347.0,922.0,0.0,-1.0,-1.0,132,103,93,128,111,466,462,466
2025-02-20 16:23:49.511,-315.0,-360.0,927.0,1.0,1.0,0.0,132,102,93,129,110,466,465,466
2025-02-20 16:23:49.531,-321.0,-347.0,917.0,1.0,1.0,0.0,132,107,93,130,110,468,469,464
2025-02-20 16:23:49.548,-327.0,-339.0,909.0,-1.0,-1.0,-1.0,132,103,93,129,111,469,472,464
2025-02-20 16:23:49.568,-315.0,-350.0,912.0,-1.0,-2.0,-1.0,132,104,93,129,110,470,474,464
2025-02-20 16:23:49.588,-311.0,-353.0,912.0,-1.0,-1.0,-1.0,131,103,93,128,111,469,475,463
2025-02-20 16:23:49.605,-314.0,-352.0,911.0,0.0,-1.0,0.0,131,103,93,129,110,469,475,463
2025-02-20 16:23:49.624,-314.0,-349.0,914.0,-1.0,-1.0,0.0,132,103,94,128,110,468,475,463
2025-02-20 16:23:49.642,-309.0,-347.0,908.0,0.0,0.0,0.0,130,102,93,128,110,465,472,463
2025-02-20 16:23:49.663,-319.0,-334.0,903.0,0.0,0.0,0.0,135,103,93,128,111,464,468,464
2025-02-20 16:23:49.683,-322.0,-330.0,896.0,0.0,-1.0,-1.0,132,102,93,128,110,463,466,465
2025-02-20 16:23:49.700,-322.0,-341.0,903.0,0.0,-2.0,-1.0,133,103,94,128,111,461,463,465
2025-02-20 16:23:49.720,-318.0,-347.0,908.0,1.0,-2.0,-2.0,130,103,93,128,110,461,460,466
2025-02-20 16:23:49.740,-317.0,-340.0,918.0,0.0,-2.0,-1.0,131,103,93,128,111,461,457,467
2025-02-20 16:23:49.757,-317.0,-344.0,924.0,-2.0,-2.0,-2.0,132,102,93,128,110,461,455,468
2025-02-20 16:23:49.777,-310.0,-358.0,918.0,0.0,-1.0,-2.0,131,103,93,128,110,462,456,468
2025-02-20 16:23:49.797,-308.0,-352.0,916.0,1.0,1.0,-1.0,131,103,93,129,110,461,456,469
2025-02-20 16:23:49.814,-327.0,-348.0,904.0,0.0,1.0,-1.0,133,103,93,128,110,461,457,468
2025-02-20 16:23:49.834,-326.0,-348.0,907.0,-2.0,-2.0,-1.0,132,103,93,128,111,460,459,468
2025-02-20 16:23:49.852,-311.0,-360.0,916.0,-1.0,-2.0,-1.0,132,103,93,128,110,462,460,468
2025-02-20 16:23:49.871,-313.0,-364.0,913.0,1.0,0.0,0.0,132,102,93,129,111,465,463,468
2025-02-20 16:23:49.889,-309.0,-390.0,909.0,7.0,3.0,2.0,132,103,93,128,110,466,466,466
2025-02-20 16:23:49.907,-332.0,-367.0,885.0,11.0,2.0,5.0,132,103,94,129,110,468,470,465
2025-02-20 16:23:49.929,-330.0,-340.0,925.0,14.0,2.0,4.0,133,103,94,127,111,469,472,466
2025-02-20 16:23:49.949,-331.0,-313.0,908.0,11.0,1.0,1.0,132,103,93,129,111,468,473,464
2025-02-20 16:23:49.966,-333.0,-324.0,909.0,7.0,0.0,2.0,132,102,94,128,111,466,475,464
2025-02-20 16:23:49.986,-323.0,-326.0,918.0,5.0,-2.0,2.0,131,103,93,128,111,468,475,463
2025-02-20 16:23:50.006,-321.0,-307.0,935.0,3.0,-1.0,0.0,132,103,93,129,111,470,475,463
2025-02-20 16:23:50.023,-319.0,-315.0,926.0,1.0,1.0,-1.0,133,103,93,130,112,469,471,463
2025-02-20 16:23:50.042,-327.0,-324.0,915.0,2.0,1.0,0.0,132,103,94,128,110,468,469,463
2025-02-20 16:23:50.057,-331.0,-311.0,905.0,1.0,-1.0,0.0,132,103,93,129,110,465,467,464
2025-02-20 16:23:50.078,-326.0,-312.0,908.0,-1.0,-3.0,-1.0,132,103,93,129,110,462,464,464
2025-02-20 16:23:50.101,-320.0,-320.0,920.0,-1.0,-2.0,-2.0,133,103,93,126,111,463,461,466
2025-02-20 16:23:50.114,-319.0,-318.0,917.0,0.0,-1.0,-1.0,131,102,93,129,110,461,457,466
2025-02-20 16:23:50.138,-325.0,-319.0,922.0,1.0,-1.0,-1.0,131,103,93,128,110,461,455,467
2025-02-20 16:23:50.157,-323.0,-325.0,928.0,1.0,-1.0,-1.0,132,104,93,129,108,462,454,468
2025-02-20 16:23:50.175,-321.0,-320.0,930.0,1.0,-1.0,-1.0,132,103,92,129,110,461,454,467
2025-02-20 16:23:50.194,-320.0,-324.0,920.0,-1.0,-2.0,-1.0,132,103,93,128,111,462,456,468
2025-02-20 16:23:50.215,-323.0,-329.0,920.0,0.0,-1.0,0.0,132,102,93,128,111,462,457,467
2025-02-20 16:23:50.232,-329.0,-321.0,919.0,2.0,-1.0,0.0,131,102,93,131,110,463,461,467
2025-02-20 16:23:50.252,-327.0,-306.0,929.0,1.0,-1.0,-1.0,132,103,93,129,111,466,464,466
2025-02-20 16:23:50.272,-320.0,-317.0,926.0,-1.0,-1.0,-2.0,132,103,93,129,111,467,467,466
2025-02-20 16:23:50.289,-314.0,-328.0,921.0,-1.0,-1.0,-1.0,131,103,93,128,110,467,471,465
2025-02-20 16:23:50.308,-324.0,-318.0,927.0,-1.0,-1.0,0.0,131,103,93,128,110,469,473,464
2025-02-20 16:23:50.325,-323.0,-319.0,928.0,0.0,0.0,-1.0,131,103,93,129,110,468,475,464
2025-02-20 16:23:50.347,-326.0,-315.0,915.0,1.0,0.0,0.0,130,103,93,129,110,468,475,463
2025-02-20 16:23:50.366,-324.0,-312.0,917.0,0.0,0.0,-1.0,132,103,94,130,111,469,474,463
2025-02-20 16:23:50.384,-329.0,-314.0,920.0,0.0,-1.0,-1.0,131,103,93,128,110,469,474,463
2025-02-20 16:23:50.404,-326.0,-306.0,924.0,-1.0,-1.0,-1.0,132,103,94,129,111,468,471,464
2025-02-20 16:23:50.423,-323.0,-314.0,927.0,-1.0,-1.0,-1.0,132,103,93,128,111,466,469,464
2025-02-20 16:23:50.441,-317.0,-319.0,920.0,-1.0,-1.0,-1.0,131,102,93,128,111,466,465,465
2025-02-20 16:23:50.459,-321.0,-320.0,920.0,0.0,0.0,-1.0,132,103,93,128,109,464,463,466
2025-02-20 16:23:50.481,-324.0,-308.0,921.0,-1.0,-1.0,-1.0,131,102,92,129,111,461,458,466
2025-02-20 16:23:50.495,-329.0,-311.0,917.0,-2.0,-2.0,-2.0,132,104,92,129,111,461,456,467
2025-02-20 16:23:50.519,-319.0,-321.0,918.0,-1.0,-2.0,-1.0,132,103,94,128,111,460,455,468
2025-02-20 16:23:50.535,-322.0,-323.0,924.0,-1.0,-1.0,0.0,132,102,94,128,110,461,454,468
2025-02-20 16:23:50.555,-326.0,-315.0,923.0,0.0,-1.0,-1.0,132,102,93,129,111,462,455,467
2025-02-20 16:23:50.576,-318.0,-314.0,927.0,1.0,0.0,0.0,132,102,93,129,111,461,454,467
2025-02-20 16:23:50.593,-322.0,-307.0,916.0,0.0,0.0,-1.0,131,102,93,129,111,463,458,467
2025-02-20 16:23:50.611,-323.0,-311.0,907.0,-1.0,-1.0,-1.0,131,102,93,129,110,464,461,465
2025-02-20 16:23:50.632,-330.0,-320.0,912.0,-1.0,-2.0,-1.0,131,103,93,128,110,465,464,465
2025-02-20 16:23:50.650,-324.0,-311.0,920.0,-1.0,-2.0,-1.0,132,104,93,128,111,467,467,464
2025-02-20 16:23:50.670,-317.0,-312.0,926.0,-1.0,-1.0,-1.0,132,103,93,129,111,468,470,462
2025-02-20 16:23:50.689,-325.0,-312.0,919.0,1.0,-2.0,-1.0,128,102,93,129,110,468,473,462
2025-02-20 16:23:50.707,-327.0,-306.0,930.0,0.0,-2.0,-1.0,132,103,93,128,110,468,474,462
2025-02-20 16:23:50.727,-321.0,-307.0,936.0,0.0,-1.0,-2.0,132,103,92,129,111,469,474,461
2025-02-20 16:23:50.745,-318.0,-309.0,930.0,-1.0,0.0,-2.0,133,102,94,128,112,469,473,462
2025-02-20 16:23:50.764,-323.0,-319.0,923.0,0.0,-1.0,-1.0,132,103,93,129,111,468,474,463
2025-02-20 16:23:50.785,-320.0,-312.0,926.0,0.0,-1.0,-1.0,132,103,93,128,110,468,472,462
2025-02-20 16:23:50.802,-324.0,-312.0,926.0,0.0,-1.0,-1.0,132,102,92,129,111,467,469,463
2025-02-20 16:23:50.822,-323.0,-311.0,929.0,-1.0,-2.0,-1.0,132,103,92,128,111,465,465,463
2025-02-20 16:23:50.842,-319.0,-317.0,929.0,-1.0,0.0,-1.0,131,103,93,128,110,463,461,465
2025-02-20 16:23:50.859,-322.0,-317.0,924.0,0.0,0.0,-1.0,131,102,93,129,110,462,458,465
2025-02-20 16:23:50.879,-324.0,-314.0,921.0,-1.0,0.0,-1.0,132,102,93,128,110,462,454,466
2025-02-20 16:23:50.899,-324.0,-316.0,915.0,-1.0,0.0,-1.0,132,102,94,129,111,463,454,467
2025-02-20 16:23:50.912,-322.0,-318.0,916.0,0.0,-1.0,-1.0,132,102,93,129,111,461,453,468
2025-02-20 16:23:50.936,-324.0,-307.0,922.0,0.0,-1.0,0.0,131,103,93,128,111,462,453,468
2025-02-20 16:23:50.956,-317.0,-306.0,920.0,-1.0,-2.0,-1.0,132,102,94,128,110,463,456,467
2025-02-20 16:23:50.974,-314.0,-320.0,919.0,0.0,-1.0,-1.0,131,102,93,128,110,463,457,468
2025-02-20 16:23:50.994,-319.0,-320.0,924.0,3.0,-1.0,0.0,131,103,93,129,110,463,459,466
2025-02-20 16:23:51.010,-322.0,-294.0,930.0,2.0,-2.0,-1.0,132,102,93,129,111,463,463,463
2025-02-20 16:23:51.029,-327.0,-312.0,920.0,-1.0,-4.0,-2.0,132,102,93,130,111,464,467,465
2025-02-20 16:23:51.050,-328.0,-326.0,918.0,1.0,-6.0,-3.0,133,103,93,129,111,467,469,465
2025-02-20 16:23:51.067,-315.0,-317.0,958.0,1.0,-3.0,-2.0,132,101,93,129,111,467,472,464
2025-02-20 16:23:51.088,-323.0,-312.0,961.0,-1.0,0.0,-2.0,132,103,94,129,111,470,473,464
2025-02-20 16:23:51.107,-322.0,-315.0,938.0,-2.0,1.0,-2.0,131,103,93,128,111,469,474,463
2025-02-20 16:23:51.124,-315.0,-321.0,945.0,-3.0,1.0,-1.0,132,103,93,129,111,468,473,464
2025-02-20 16:23:51.145,-307.0,-315.0,923.0,-2.0,1.0,0.0,133,103,94,129,110,467,471,465
2025-02-20 16:23:51.166,-309.0,-314.0,912.0,-3.0,1.0,1.0,132,103,93,129,110,466,470,464
2025-02-20 16:23:51.181,-308.0,-305.0,908.0,-5.0,0.0,1.0,130,102,94,129,111,465,466,466
2025-02-20 16:23:51.202,-311.0,-300.0,910.0,-7.0,2.0,0.0,131,103,93,129,111,465,462,465
2025-02-20 16:23:51.217,-317.0,-291.0,885.0,-8.0,2.0,0.0,133,103,93,129,110,463,459,466
2025-02-20 16:23:51.240,-320.0,-289.0,857.0,-9.0,0.0,0.0,131,103,94,129,110,461,455,467
2025-02-20 16:23:51.259,-325.0,-265.0,810.0,-10.0,-4.0,0.0,134,102,93,129,110,460,454,468
2025-02-20 16:23:51.277,-376.0,-213.0,752.0,-14.0,-11.0,-1.0,132,103,94,129,111,461,453,468
2025-02-20 16:23:51.294,-433.0,-97.0,645.0,-4.0,-31.0,-12.0,132,103,93,129,110,463,449,468
2025-02-20 16:23:51.317,-533.0,-65.0,525.0,32.0,-74.0,-54.0,132,101,92,128,106,467,451,468
2025-02-20 16:23:51.334,-624.0,-169.0,572.0,43.0,-124.0,-84.0,131,93,84,125,95,467,453,468
2025-02-20 16:23:51.354,-474.0,-401.0,231.0,25.0,-239.0,-67.0,132,87,75,118,86,464,457,468
2025-02-20 16:23:51.375,-204.0,-525.0,838.0,8.0,-334.0,-48.0,131,82,70,115,79,457,454,466
2025-02-20 16:23:51.391,781.0,-1018.0,1764.0,-8.0,-262.0,43.0,132,79,70,108,72,460,456,465
2025-02-20 16:23:51.411,1069.0,-1033.0,2541.0,-87.0,-68.0,129.0,131,76,67,103,69,472,460,463
2025-02-20 16:23:51.431,779.0,-920.0,2468.0,-137.0,118.0,145.0,131,70,63,92,63,476,480,462
2025-02-20 16:23:51.448,650.0,-757.0,2223.0,-156.0,263.0,170.0,131,64,59,83,58,473,505,465
2025-02-20 16:23:51.468,365.0,-582.0,1604.0,-180.0,320.0,170.0,129,61,55,78,55,470,516,463
2025-02-20 16:23:51.482,264.0,-557.0,1151.0,-218.0,330.0,176.0,126,60,57,75,54,431,508,454
2025-02-20 16:23:51.505,11.0,-443.0,712.0,-287.0,306.0,214.0,120,59,52,70,53,335,495,442
2025-02-20 16:23:51.526,-251.0,-417.0,597.0,-307.0,264.0,228.0,119,58,51,67,52,331,503,458
2025-02-20 16:23:51.543,-418.0,-215.0,382.0,-287.0,243.0,201.0,115,58,50,65,50,383,498,501
2025-02-20 16:23:51.562,-408.0,-107.0,271.0,-243.0,236.0,162.0,111,57,48,64,51,444,476,510
2025-02-20 16:23:51.583,-505.0,53.0,144.0,-176.0,218.0,127.0,109,56,49,62,51,454,452,510
2025-02-20 16:23:51.600,-489.0,116.0,160.0,-122.0,189.0,95.0,106,56,49,66,51,463,410,512
2025-02-20 16:23:51.620,-620.0,332.0,-2.0,-76.0,159.0,80.0,104,57,49,62,51,497,411,495
2025-02-20 16:23:51.640,-611.0,560.0,-114.0,-22.0,125.0,56.0,102,57,47,61,51,538,435,476
2025-02-20 16:23:51.658,-672.0,1045.0,-369.0,28.0,81.0,9.0,101,57,49,62,51,591,464,462
2025-02-20 16:23:51.678,-891.0,1563.0,-861.0,79.0,26.0,-61.0,100,57,49,62,51,613,484,456
2025-02-20 16:23:51.698,-1106.0,2156.0,-1263.0,112.0,-59.0,-251.0,98,56,49,63,49,618,489,452
2025-02-20 16:23:51.714,-1061.0,2402.0,-1618.0,105.0,-215.0,-486.0,97,55,48,62,50,566,478,459
2025-02-20 16:23:51.735,-511.0,1916.0,-1750.0,62.0,-429.0,-734.0,95,56,49,65,50,495,496,458
2025-02-20 16:23:51.751,1620.0,1452.0,-1621.0,-1.0,-747.0,-879.0,97,55,48,68,53,423,517,458
2025-02-20 16:23:51.772,5180.0,-1328.0,1285.0,-12.0,-823.0,-723.0,97,55,47,70,57,276,493,451
2025-02-20 16:23:51.792,5615.0,-6569.0,3815.0,86.0,16.0,-213.0,97,57,48,72,57,412,409,438
2025-02-20 16:23:51.810,2467.0,-4718.0,1149.0,338.0,254.0,-6.0,95,57,46,65,52,420,415,432
2025-02-20 16:23:51.829,1083.0,-1679.0,922.0,158.0,205.0,136.0,95,57,47,65,49,445,482,420
2025-02-20 16:23:51.847,180.0,-851.0,343.0,-192.0,82.0,166.0,95,57,49,66,51,369,527,365
2025-02-20 16:23:51.864,121.0,-1762.0,341.0,-227.0,10.0,190.0,96,57,49,68,54,318,528,357
2025-02-20 16:23:51.883,215.0,-1903.0,707.0,-121.0,28.0,237.0,97,59,51,70,56,518,434,447
2025-02-20 16:23:51.900,365.0,-1361.0,855.0,-19.0,97.0,257.0,96,56,50,71,58,554,338,513
2025-02-20 16:23:51.924,204.0,-557.0,678.0,-56.0,159.0,248.0,97,57,51,72,60,639,355,529
2025-02-20 16:23:51.944,-189.0,-374.0,386.0,-130.0,125.0,222.0,98,56,51,68,59,560,405,517
2025-02-20 16:23:51.961,-241.0,-521.0,269.0,-175.0,92.0,190.0,101,58,52,67,56,535,411,500
2025-02-20 16:23:51.981,-91.0,-528.0,291.0,-200.0,84.0,205.0,100,60,51,67,58,475,436,515
2025-02-20 16:23:52.001,-391.0,-471.0,85.0,-171.0,65.0,195.0,100,59,51,67,58,320,480,515
2025-02-20 16:23:52.017,-266.0,-417.0,124.0,-117.0,66.0,158.0,103,60,52,67,59,279,517,498
2025-02-20 16:23:52.038,-209.0,-422.0,147.0,-30.0,90.0,138.0,103,60,53,67,59,434,528,481
2025-02-20 16:23:52.058,-256.0,-349.0,117.0,39.0,112.0,156.0,105,61,54,68,60,508,518,475
2025-02-20 16:23:52.076,-595.0,-73.0,-61.0,109.0,74.0,163.0,107,60,54,68,62,599,490,462
2025-02-20 16:23:52.096,-672.0,407.0,-189.0,158.0,20.0,159.0,106,61,54,69,62,559,470,462
2025-02-20 16:23:52.115,-821.0,1056.0,-341.0,196.0,-34.0,130.0,107,61,54,69,63,511,425,451
2025-02-20 16:23:52.131,-986.0,2462.0,-449.0,228.0,-41.0,-72.0,106,61,54,70,62,403,420,448
2025-02-20 16:23:52.153,-968.0,2867.0,-592.0,161.0,-52.0,-435.0,106,61,55,69,63,388,392,446
2025-02-20 16:23:52.173,-767.0,2497.0,-1052.0,-52.0,-231.0,-706.0,106,61,55,73,62,418,350,443
2025-02-20 16:23:52.187,1118.0,872.0,-1329.0,-188.0,-561.0,-895.0,106,59,54,74,65,435,345,432
2025-02-20 16:23:52.210,4513.0,-1651.0,-561.0,-188.0,-750.0,-835.0,110,60,54,81,70,307,351,422
2025-02-20 16:23:52.228,4684.0,-6767.0,2038.0,9.0,-422.0,-336.0,116,63,53,85,72,421,502,427
2025-02-20 16:23:52.247,3978.0,-5668.0,1192.0,213.0,213.0,107.0,118,62,53,79,67,381,569,454
2025-02-20 16:23:52.267,1447.0,-2244.0,145.0,143.0,224.0,207.0,119,60,53,73,58,444,575,467
2025-02-20 16:23:52.284,64.0,-832.0,-297.0,-17.0,32.0,215.0,118,59,53,75,57,470,560,445
2025-02-20 16:23:52.305,41.0,-1090.0,-9.0,-182.0,-55.0,229.0,119,60,55,76,62,454,559,413
2025-02-20 16:23:52.325,237.0,-1571.0,347.0,-148.0,-60.0,242.0,120,63,54,76,68,468,502,423
2025-02-20 16:23:52.341,481.0,-1662.0,567.0,-15.0,9.0,247.0,120,62,57,79,71,512,504,484
2025-02-20 16:23:52.362,552.0,-1111.0,561.0,23.0,120.0,251.0,119,61,55,80,73,539,557,485
2025-02-20 16:23:52.378,180.0,-770.0,377.0,25.0,165.0,244.0,120,62,57,78,73,558,604,494
2025-02-20 16:23:52.398,44.0,-584.0,215.0,-13.0,167.0,264.0,121,60,54,72,70,596,566,502
2025-02-20 16:23:52.417,-145.0,-339.0,134.0,-78.0,134.0,285.0,122,64,55,74,66,579,499,495
2025-02-20 16:23:52.435,-222.0,-176.0,68.0,-112.0,87.0,268.0,123,66,57,72,66,587,467,501
2025-02-20 16:23:52.453,-162.0,-261.0,183.0,-85.0,73.0,249.0,127,65,57,72,67,639,469,498
2025-02-20 16:23:52.476,-469.0,-285.0,180.0,17.0,67.0,229.0,129,65,58,71,67,670,402,489
2025-02-20 16:23:52.493,-399.0,81.0,113.0,147.0,58.0,197.0,132,63,58,70,67,652,383,482
2025-02-20 16:23:52.512,-632.0,796.0,105.0,290.0,85.0,132.0,136,63,59,71,68,624,413,461
2025-02-20 16:23:52.532,-948.0,1841.0,-82.0,333.0,83.0,-31.0,137,63,59,72,65,522,424,435
2025-02-20 16:23:52.548,-980.0,2491.0,-300.0,295.0,8.0,-310.0,139,59,57,71,59,406,459,419
2025-02-20 16:23:52.569,-869.0,2007.0,-858.0,121.0,-115.0,-538.0,138,56,54,71,56,373,460,421
2025-02-20 16:23:52.591,-388.0,1066.0,-1325.0,-6.0,-358.0,-739.0,137,52,53,73,56,372,414,429
2025-02-20 16:23:52.608,1676.0,-15.0,-1318.0,-165.0,-704.0,-729.0,139,53,53,76,59,262,385,446
2025-02-20 16:23:52.628,4020.0,-3155.0,-83.0,-211.0,-731.0,-441.0,140,54,53,78,62,276,351,476
2025-02-20 16:23:52.645,4001.0,-5427.0,2017.0,-36.0,-251.0,-159.0,142,56,53,79,62,338,379,460
2025-02-20 16:23:52.665,2790.0,-4238.0,1031.0,223.0,201.0,-46.0,142,56,50,71,58,426,464,482
2025-02-20 16:23:52.682,520.0,-1923.0,-215.0,181.0,221.0,59.0,143,55,49,69,55,559,500,476
2025-02-20 16:23:52.702,60.0,-1240.0,-566.0,-10.0,29.0,134.0,144,55,49,71,55,391,484,435
2025-02-20 16:23:52.722,436.0,-1386.0,284.0,-104.0,-58.0,151.0,145,56,50,73,58,388,473,419
2025-02-20 16:23:52.742,674.0,-2123.0,908.0,-50.0,11.0,216.0,145,56,52,77,61,415,445,413
2025-02-20 16:23:52.759,700.0,-1241.0,636.0,31.0,119.0,205.0,146,54,53,78,63,525,475,456
2025-02-20 16:23:52.779,259.0,-944.0,365.0,83.0,145.0,189.0,146,55,54,77,63,558,524,491
2025-02-20 16:23:52.796,1.0,-622.0,187.0,-6.0,136.0,201.0,146,54,53,74,63,594,574,506
2025-02-20 16:23:52.816,-101.0,-536.0,197.0,-102.0,102.0,236.0,147,56,52,71,61,569,548,504
2025-02-20 16:23:52.837,-37.0,-537.0,313.0,-164.0,60.0,271.0,147,56,53,72,60,482,505,497
2025-02-20 16:23:52.853,-1.0,-82.0,581.0,-87.0,80.0,178.0,147,56,54,73,61,494,520,486
2025-02-20 16:23:52.873,-61.0,-578.0,421.0,22.0,148.0,134.0,146,57,54,73,61,567,505,482
2025-02-20 16:23:52.894,-162.0,-505.0,289.0,51.0,161.0,171.0,146,60,54,72,61,561,459,476
2025-02-20 16:23:52.911,-288.0,-358.0,95.0,101.0,157.0,188.0,145,56,55,73,60,521,451,464
2025-02-20 16:23:52.924,-459.0,-171.0,186.0,126.0,128.0,199.0,145,59,55,72,61,487,437,448
2025-02-20 16:23:52.951,-561.0,541.0,166.0,247.0,131.0,104.0,145,58,55,73,61,478,426,442
2025-02-20 16:23:52.968,-819.0,1302.0,-195.0,346.0,157.0,-20.0,144,58,56,73,59,464,456,444
2025-02-20 16:23:52.988,-1432.0,2489.0,-1061.0,259.0,59.0,-272.0,142,57,54,73,58,386,443,444
2025-02-20 16:23:53.009,-1644.0,2193.0,-1544.0,35.0,-240.0,-536.0,140,57,55,73,57,362,411,449
2025-02-20 16:23:53.026,-310.0,1484.0,-1977.0,-125.0,-579.0,-738.0,140,55,54,76,59,326,361,460
2025-02-20 16:23:53.045,3222.0,-488.0,-1282.0,-316.0,-933.0,-602.0,144,56,55,80,62,344,317,470
2025-02-20 16:23:53.066,4943.0,-3818.0,1644.0,-502.0,-562.0,-290.0,145,55,55,83,63,375,256,482
2025-02-20 16:23:53.083,4175.0,-6524.0,1400.0,-27.0,135.0,-48.0,144,57,53,81,62,472,436,480
2025-02-20 16:23:53.103,1604.0,-3401.0,-680.0,260.0,359.0,44.0,144,56,53,73,56,429,546,474
2025-02-20 16:23:53.120,211.0,-1028.0,-1003.0,19.0,160.0,140.0,143,54,53,69,54,438,574,452
2025-02-20 16:23:53.137,69.0,-1009.0,-656.0,-106.0,-88.0,172.0,142,56,55,74,56,351,578,436
2025-02-20 16:23:53.160,469.0,-2057.0,431.0,-70.0,-43.0,206.0,142,58,56,77,61,429,538,455
2025-02-20 16:23:53.178,662.0,-1739.0,747.0,31.0,68.0,256.0,143,59,57,80,65,510,468,448
2025-02-20 16:23:53.197,828.0,-1207.0,604.0,108.0,188.0,266.0,143,61,60,83,68,467,473,447
2025-02-20 16:23:53.217,340.0,-823.0,473.0,101.0,201.0,273.0,143,66,62,82,70,521,544,467
2025-02-20 16:23:53.235,215.0,-609.0,387.0,65.0,209.0,293.0,142,67,63,82,74,508,584,479
2025-02-20 16:23:53.251,2.0,-804.0,208.0,47.0,185.0,329.0,143,70,64,83,78,507,496,484
2025-02-20 16:23:53.272,-44.0,-446.0,101.0,1.0,231.0,313.0,141,74,68,90,82,524,429,491
2025-02-20 16:23:53.291,43.0,-140.0,45.0,-11.0,194.0,308.0,142,76,74,99,90,501,431,489
2025-02-20 16:23:53.311,-236.0,-194.0,-81.0,79.0,179.0,279.0,142,79,78,110,96,588,421,485
2025-02-20 16:23:53.328,-564.0,-76.0,-115.0,232.0,178.0,232.0,142,84,82,115,101,599,434,480
2025-02-20 16:23:53.349,-406.0,346.0,-291.0,289.0,155.0,218.0,140,87,84,118,105,556,444,464
2025-02-20 16:23:53.369,-874.0,796.0,-429.0,358.0,92.0,158.0,139,90,86,120,106,518,424,467
2025-02-20 16:23:53.386,-1349.0,1642.0,-1253.0,292.0,-60.0,-22.0,138,93,87,121,108,441,399,460
2025-02-20 16:23:53.406,-1129.0,1978.0,-1322.0,198.0,-265.0,-279.0,137,98,90,121,112,358,382,448
2025-02-20 16:23:53.426,-874.0,1582.0,-1209.0,124.0,-443.0,-529.0,135,102,93,122,118,276,389,429
2025-02-20 16:23:53.443,181.0,961.0,-837.0,33.0,-586.0,-679.0,131,107,95,125,124,352,382,438
2025-02-20 16:23:53.463,1855.0,310.0,166.0,-199.0,-961.0,-695.0,132,112,97,128,127,341,377,475
2025-02-20 16:23:53.484,3936.0,-2300.0,475.0,-392.0,-1005.0,-452.0,134,117,100,132,128,416,396,504
2025-02-20 16:23:53.501,3266.0,-3999.0,722.0,-309.0,-660.0,-80.0,135,121,103,132,130,430,478,492
2025-02-20 16:23:53.521,3321.0,-4281.0,780.0,-56.0,-191.0,200.0,136,122,104,132,130,450,526,487
2025-02-20 16:23:53.541,1944.0,-2469.0,642.0,70.0,107.0,157.0,137,120,103,133,130,437,549,471
2025-02-20 16:23:53.558,599.0,-1194.0,35.0,69.0,222.0,134.0,139,116,102,132,131,411,544,446
2025-02-20 16:23:53.578,111.0,-882.0,197.0,19.0,192.0,223.0,138,114,103,131,129,401,527,450
2025-02-20 16:23:53.593,68.0,-748.0,379.0,47.0,188.0,253.0,137,112,102,133,130,340,487,454
2025-02-20 16:23:53.615,-36.0,-959.0,-235.0,101.0,218.0,218.0,136,114,102,135,130,386,453,434
2025-02-20 16:23:53.635,376.0,-1233.0,397.0,76.0,244.0,168.0,137,119,103,133,132,461,508,463
2025-02-20 16:23:53.652,169.0,-945.0,258.0,33.0,223.0,161.0,135,120,103,133,132,561,552,468
2025-02-20 16:23:53.669,-50.0,-976.0,311.0,-21.0,195.0,211.0,135,119,103,135,131,502,594,482
2025-02-20 16:23:53.692,-4.0,-633.0,256.0,-51.0,190.0,236.0,135,121,104,136,133,455,506,477
2025-02-20 16:23:53.707,8.0,-648.0,442.0,-123.0,118.0,260.0,135,120,106,134,133,479,442,473
2025-02-20 16:23:53.729,-85.0,-362.0,99.0,-106.0,97.0,257.0,136,119,106,134,133,441,450,484
2025-02-20 16:23:53.749,-174.0,-318.0,200.0,-9.0,137.0,247.0,135,114,103,133,134,534,470,488
2025-02-20 16:23:53.767,-404.0,104.0,182.0,-14.0,98.0,220.0,136,110,103,133,132,525,464,488
2025-02-20 16:23:53.787,-512.0,-13.0,284.0,152.0,93.0,195.0,136,108,103,133,131,535,419,476
2025-02-20 16:23:53.804,-395.0,131.0,114.0,313.0,74.0,165.0,136,108,103,133,131,558,450,456
2025-02-20 16:23:53.824,-671.0,641.0,-236.0,418.0,59.0,89.0,137,107,102,134,131,615,494,450
2025-02-20 16:23:53.844,-1351.0,1177.0,-629.0,404.0,-19.0,-36.0,137,108,103,133,130,600,512,449
2025-02-20 16:23:53.862,-1336.0,1686.0,-1258.0,317.0,-221.0,-242.0,139,111,103,134,131,557,533,452
2025-02-20 16:23:53.881,-1076.0,1736.0,-666.0,255.0,-394.0,-532.0,139,114,102,133,132,549,486,463
2025-02-20 16:23:53.902,411.0,1045.0,-462.0,145.0,-527.0,-679.0,133,118,105,134,133,455,421,487
2025-02-20 16:23:53.919,2588.0,382.0,1859.0,-337.0,-908.0,-664.0,128,121,104,135,133,467,343,485
2025-02-20 16:23:53.939,3534.0,-2706.0,595.0,-420.0,-868.0,-322.0,129,124,105,135,131,460,242,480
2025-02-20 16:23:53.959,2861.0,-4197.0,613.0,-311.0,-525.0,4.0,134,123,107,134,134,421,226,486
2025-02-20 16:23:53.973,2561.0,-3715.0,671.0,-132.0,-203.0,206.0,135,122,106,136,134,438,363,477
2025-02-20 16:23:53.996,1533.0,-2297.0,542.0,36.0,27.0,146.0,137,119,107,135,133,427,472,461
2025-02-20 16:23:54.013,590.0,-1193.0,293.0,71.0,164.0,105.0,136,116,106,135,133,420,560,445
2025-02-20 16:23:54.033,306.0,-977.0,337.0,16.0,164.0,165.0,135,115,106,135,132,263,608,421
2025-02-20 16:23:54.053,250.0,-880.0,552.0,35.0,134.0,233.0,136,115,104,135,131,284,569,388
2025-02-20 16:23:54.070,205.0,-939.0,671.0,116.0,235.0,231.0,135,116,106,136,132,401,495,421
2025-02-20 16:23:54.090,705.0,-940.0,408.0,32.0,306.0,187.0,135,121,106,136,132,544,444,516
2025-02-20 16:23:54.111,361.0,-967.0,869.0,-23.0,213.0,197.0,135,122,105,135,134,611,425,517
2025-02-20 16:23:54.128,175.0,-1012.0,371.0,-10.0,294.0,213.0,137,123,106,135,133,559,440,502
2025-02-20 16:23:54.148,-10.0,-583.0,486.0,-21.0,260.0,257.0,136,123,105,135,133,383,377,488
2025-02-20 16:23:54.167,-65.0,-443.0,311.0,-141.0,201.0,279.0,135,121,106,135,133,425,390,473
2025-02-20 16:23:54.185,-52.0,-312.0,-5.0,-146.0,140.0,286.0,135,118,104,134,132,465,434,483
2025-02-20 16:23:54.205,-169.0,-146.0,125.0,-75.0,195.0,283.0,136,112,100,134,130,456,461,479
2025-02-20 16:23:54.221,-416.0,73.0,14.0,35.0,159.0,263.0,136,104,100,134,127,359,502,470
2025-02-20 16:23:54.241,-532.0,701.0,71.0,176.0,127.0,184.0,136,98,96,131,123,395,484,449
2025-02-20 16:23:54.262,-894.0,1234.0,347.0,426.0,159.0,21.0,137,89,90,129,111,473,478,451
2025-02-20 16:23:54.277,-1114.0,1786.0,-374.0,422.0,135.0,-238.0,135,77,79,120,84,572,505,448
2025-02-20 16:23:54.300,-1713.0,2064.0,-1413.0,267.0,-71.0,-510.0,135,70,66,98,64,581,533,479
2025-02-20 16:23:54.319,-1013.0,2337.0,-1969.0,94.0,-493.0,-767.0,133,58,58,82,54,468,521,489
2025-02-20 16:23:54.337,2106.0,1739.0,-2378.0,-123.0,-1074.0,-794.0,133,52,54,80,54,439,454,497
2025-02-20 16:23:54.357,4865.0,-2279.0,47.0,-448.0,-998.0,-343.0,139,52,54,80,56,476,413,495
2025-02-20 16:23:54.377,4964.0,-5355.0,2583.0,-374.0,-477.0,-105.0,141,52,53,77,54,459,454,485
2025-02-20 16:23:54.393,3084.0,-4968.0,1077.0,144.0,183.0,21.0,142,50,50,68,49,519,486,465
2025-02-20 16:23:54.414,516.0,-1687.0,-161.0,238.0,197.0,104.0,143,46,48,68,46,530,545,434
2025-02-20 16:23:54.431,98.0,-748.0,-1151.0,105.0,64.0,128.0,145,48,50,71,46,441,572,399
2025-02-20 16:23:54.451,206.0,-1337.0,246.0,-66.0,-88.0,150.0,145,50,51,72,49,250,559,374
2025-02-20 16:23:54.471,641.0,-2232.0,705.0,-73.0,-5.0,232.0,145,52,55,73,53,361,464,414
2025-02-20 16:23:54.488,847.0,-2108.0,791.0,42.0,60.0,289.0,146,52,55,74,54,514,390,485
2025-02-20 16:23:54.508,765.0,-734.0,675.0,127.0,122.0,173.0,145,52,55,75,55,572,424,500
2025-02-20 16:23:54.528,66.0,-696.0,429.0,43.0,160.0,193.0,146,53,55,76,56,408,480,513
2025-02-20 16:23:54.546,-147.0,-607.0,156.0,-58.0,122.0,250.0,147,53,56,72,55,261,503,490
2025-02-20 16:23:54.565,-372.0,-579.0,196.0,-125.0,48.0,268.0,146,53,55,72,55,295,452,499
2025-02-20 16:23:54.585,-105.0,-233.0,437.0,-108.0,34.0,197.0,146,54,56,74,55,436,475,505
2025-02-20 16:23:54.603,-7.0,-364.0,510.0,-17.0,120.0,135.0,148,54,57,75,55,416,436,511
2025-02-20 16:23:54.623,-251.0,-271.0,323.0,7.0,145.0,151.0,148,56,56,77,55,551,429,481
2025-02-20 16:23:54.639,-453.0,-225.0,136.0,32.0,118.0,148.0,147,55,57,77,55,585,418,457
2025-02-20 16:23:54.659,-432.0,-35.0,316.0,102.0,96.0,94.0,147,57,59,75,56,578,411,453
2025-02-20 16:23:54.677,-452.0,54.0,256.0,163.0,115.0,56.0,147,57,60,76,56,585,427,464
2025-02-20 16:23:54.697,-688.0,724.0,259.0,217.0,122.0,11.0,147,59,61,77,56,538,470,462
2025-02-20 16:23:54.717,-982.0,1816.0,-286.0,247.0,102.0,-187.0,147,57,61,76,56,526,471,446
2025-02-20 16:23:54.737,-1394.0,1771.0,-832.0,158.0,-78.0,-435.0,145,56,59,76,56,524,489,445
2025-02-20 16:23:54.754,-714.0,1333.0,-1328.0,16.0,-317.0,-643.0,143,56,59,76,57,491,486,457
2025-02-20 16:23:54.774,927.0,231.0,-1659.0,-221.0,-694.0,-574.0,145,56,59,80,59,418,441,455
2025-02-20 16:23:54.794,3458.0,-2569.0,-835.0,-458.0,-776.0,-332.0,146,56,60,84,62,368,382,417
2025-02-20 16:23:54.810,3840.0,-5217.0,1420.0,-307.0,-418.0,-138.0,146,57,60,86,62,467,428,414
2025-02-20 16:23:54.832,2754.0,-4581.0,734.0,78.0,89.0,-9.0,147,57,59,83,61,399,517,435
2025-02-20 16:23:54.851,1089.0,-2340.0,-386.0,235.0,181.0,53.0,147,55,59,81,56,405,583,437
2025-02-20 16:23:54.869,25.0,-1202.0,-778.0,103.0,143.0,138.0,147,53,60,84,54,468,575,437
2025-02-20 16:23:54.889,-40.0,-1074.0,-407.0,0.0,10.0,149.0,148,55,60,84,57,399,581,427
2025-02-20 16:23:54.906,188.0,-1470.0,152.0,-13.0,-7.0,174.0,147,59,62,86,62,452,551,425
2025-02-20 16:23:54.926,381.0,-1548.0,501.0,60.0,-2.0,179.0,147,62,65,86,65,458,473,460
2025-02-20 16:23:54.946,598.0,-1218.0,551.0,90.0,141.0,160.0,147,63,68,86,67,413,498,497
2025-02-20 16:23:54.963,396.0,-928.0,542.0,92.0,158.0,180.0,147,68,71,86,67,444,518,516
2025-02-20 16:23:54.983,199.0,-902.0,493.0,57.0,204.0,176.0,147,71,72,85,67,540,489,520
2025-02-20 16:23:55.004,135.0,-915.0,401.0,-16.0,236.0,210.0,146,76,74,82,65,454,464,515
2025-02-20 16:23:55.020,307.0,-873.0,312.0,3.0,269.0,276.0,146,82,80,89,63,491,424,499
2025-02-20 16:23:55.040,93.0,-490.0,158.0,119.0,254.0,323.0,146,79,81,92,62,487,415,493
2025-02-20 16:23:55.058,-80.0,-265.0,-4.0,202.0,241.0,328.0,143,85,84,96,61,470,393,484
2025-02-20 16:23:55.077,-272.0,6.0,82.0,247.0,235.0,294.0,141,90,85,97,61,450,418,474
2025-02-20 16:23:55.098,-531.0,95.0,-18.0,237.0,217.0,233.0,141,95,88,94,64,465,434,464
2025-02-20 16:23:55.114,-587.0,125.0,-281.0,263.0,184.0,175.0,141,99,85,92,65,464,429,470
2025-02-20 16:23:55.135,-625.0,402.0,-400.0,272.0,139.0,127.0,140,103,88,92,66,523,429,466
2025-02-20 16:23:55.155,-1067.0,1236.0,-763.0,213.0,53.0,47.0,141,108,93,89,67,466,448,464
2025-02-20 16:23:55.172,-1405.0,1579.0,-1243.0,95.0,-117.0,-196.0,138,104,96,86,64,368,461,475
2025-02-20 16:23:55.193,-1343.0,1431.0,-1146.0,120.0,-328.0,-437.0,137,112,98,88,62,463,462,474
2025-02-20 16:23:55.213,-753.0,1250.0,-613.0,103.0,-556.0,-638.0,134,114,100,89,61,561,446,473
2025-02-20 16:23:55.230,1490.0,1106.0,-39.0,-128.0,-814.0,-757.0,132,121,101,89,65,554,406,476
2025-02-20 16:23:55.249,3063.0,-934.0,332.0,-393.0,-909.0,-673.0,132,123,102,89,67,562,421,465
2025-02-20 16:23:55.269,3458.0,-3996.0,553.0,-323.0,-689.0,-237.0,128,127,102,89,67,533,462,459
2025-02-20 16:23:55.286,3540.0,-4134.0,847.0,-122.0,-238.0,123.0,132,126,103,90,66,538,499,459
2025-02-20 16:23:55.307,2345.0,-2388.0,1095.0,53.0,92.0,171.0,133,127,104,90,63,462,505,446
2025-02-20 16:23:55.327,774.0,-1329.0,667.0,114.0,254.0,131.0,133,126,103,91,60,417,521,430
2025-02-20 16:23:55.344,274.0,-966.0,204.0,45.0,208.0,138.0,133,124,103,91,61,329,517,422
2025-02-20 16:23:55.361,200.0,-929.0,170.0,-12.0,142.0,187.0,135,125,104,90,64,338,511,424
2025-02-20 16:23:55.381,366.0,-1082.0,520.0,-37.0,141.0,208.0,135,126,104,89,67,362,487,431
2025-02-20 16:23:55.401,335.0,-1147.0,496.0,6.0,175.0,229.0,134,128,105,88,69,389,504,456
2025-02-20 16:23:55.421,337.0,-994.0,401.0,65.0,212.0,241.0,136,129,105,88,70,468,530,468
2025-02-20 16:23:55.438,109.0,-595.0,327.0,57.0,214.0,262.0,137,128,105,89,69,411,495,477
2025-02-20 16:23:55.458,-29.0,-502.0,379.0,22.0,219.0,283.0,139,128,107,87,70,442,389,492
2025-02-20 16:23:55.479,-176.0,-425.0,271.0,-5.0,194.0,297.0,139,126,105,88,66,455,291,503
2025-02-20 16:23:55.495,-222.0,-402.0,313.0,36.0,203.0,272.0,140,126,105,90,66,458,303,501
2025-02-20 16:23:55.516,-401.0,-117.0,82.0,108.0,202.0,242.0,139,126,106,91,63,422,347,499
2025-02-20 16:23:55.535,-629.0,307.0,-105.0,131.0,172.0,184.0,138,125,106,91,65,332,347,485
2025-02-20 16:23:55.553,-691.0,284.0,-167.0,172.0,139.0,123.0,140,124,106,89,66,375,410,443
2025-02-20 16:23:55.572,-845.0,844.0,-453.0,173.0,95.0,55.0,140,125,106,88,68,542,513,465
2025-02-20 16:23:55.593,-1298.0,1390.0,-1121.0,119.0,-53.0,-89.0,140,126,106,86,67,648,562,454
2025-02-20 16:23:55.611,-1346.0,1494.0,-1207.0,168.0,-224.0,-324.0,140,126,106,84,67,605,560,442
2025-02-20 16:23:55.629,-469.0,1323.0,-544.0,171.0,-454.0,-609.0,140,127,107,87,67,543,508,448
2025-02-20 16:23:55.647,651.0,1390.0,249.0,-71.0,-681.0,-791.0,139,127,108,86,69,495,458,463
2025-02-20 16:23:55.665,2852.0,-148.0,-131.0,-381.0,-864.0,-749.0,138,128,108,89,69,532,422,461
2025-02-20 16:23:55.687,3691.0,-4208.0,388.0,-272.0,-645.0,-369.0,137,129,107,90,69,519,411,424
2025-02-20 16:23:55.705,3736.0,-4342.0,851.0,-60.0,-257.0,72.0,138,129,107,90,68,502,442,439
2025-02-20 16:23:55.724,2311.0,-2459.0,1127.0,106.0,109.0,189.0,139,128,108,89,64,567,496,436
2025-02-20 16:23:55.744,858.0,-1029.0,551.0,127.0,187.0,148.0,139,126,108,90,61,497,533,422
2025-02-20 16:23:55.761,136.0,-648.0,419.0,14.0,114.0,117.0,139,125,107,89,62,440,552,423
2025-02-20 16:23:55.782,217.0,-933.0,479.0,-68.0,60.0,126.0,140,126,107,90,66,281,518,448
2025-02-20 16:23:55.798,321.0,-1234.0,499.0,-61.0,50.0,142.0,139,127,107,90,68,375,395,436
2025-02-20 16:23:55.817,671.0,-1289.0,563.0,-57.0,101.0,173.0,139,129,107,92,71,526,369,492
2025-02-20 16:23:55.839,630.0,-1033.0,519.0,-28.0,158.0,211.0,140,129,106,92,70,489,451,506
2025-02-20 16:23:55.856,328.0,-979.0,365.0,-19.0,164.0,255.0,140,128,105,92,73,309,516,476
2025-02-20 16:23:55.876,47.0,-672.0,390.0,-75.0,142.0,285.0,141,125,104,95,73,293,422,484
2025-02-20 16:23:55.896,-101.0,-464.0,380.0,-170.0,95.0,339.0,141,121,101,96,72,349,430,484
2025-02-20 16:23:55.913,-108.0,-491.0,329.0,-183.0,74.0,348.0,142,117,100,100,71,406,418,489
2025-02-20 16:23:55.931,-171.0,-323.0,284.0,-137.0,74.0,341.0,143,111,96,101,72,457,388,486
2025-02-20 16:23:55.954,-479.0,-251.0,335.0,15.0,79.0,302.0,143,104,91,102,71,559,409,488
2025-02-20 16:23:55.971,-522.0,-22.0,139.0,160.0,127.0,217.0,143,96,86,101,72,583,436,491
2025-02-20 16:23:55.991,-698.0,725.0,-71.0,281.0,170.0,117.0,142,89,82,100,70,605,476,463
2025-02-20 16:23:56.008,-977.0,1605.0,-490.0,324.0,117.0,-34.0,142,84,75,100,71,572,487,459
2025-02-20 16:23:56.028,-1147.0,1865.0,-1050.0,268.0,-48.0,-295.0,140,77,70,95,69,589,500,455
2025-02-20 16:23:56.048,-681.0,1119.0,-992.0,171.0,-230.0,-461.0,137,67,66,91,65,504,486,454
2025-02-20 16:23:56.065,-84.0,-223.0,-645.0,93.0,-416.0,-536.0,138,61,61,92,66,492,467,453
2025-02-20 16:23:56.085,1093.0,-346.0,-364.0,-56.0,-672.0,-501.0,142,58,58,93,68,376,410,454
2025-02-20 16:23:56.105,2720.0,-1420.0,761.0,-311.0,-686.0,-346.0,144,61,60,94,68,313,408,479
2025-02-20 16:23:56.122,2688.0,-3888.0,1125.0,-392.0,-379.0,-142.0,145,62,60,95,69,377,442,481
2025-02-20 16:23:56.142,2246.0,-3833.0,1287.0,-174.0,-90.0,0.0,146,60,58,93,65,464,469,462
2025-02-20 16:23:56.161,1086.0,-2870.0,51.0,70.0,96.0,55.0,145,57,55,87,59,461,498,453
2025-02-20 16:23:56.180,377.0,-1513.0,-302.0,118.0,84.0,95.0,145,55,55,82,57,360,553,441
2025-02-20 16:23:56.200,175.0,-1177.0,-263.0,48.0,9.0,116.0,146,56,55,85,59,340,572,426
2025-02-20 16:23:56.216,582.0,-1312.0,307.0,-9.0,4.0,134.0,146,59,56,88,62,348,527,438
2025-02-20 16:23:56.237,751.0,-1744.0,727.0,-3.0,78.0,182.0,143,60,56,90,64,371,531,450
2025-02-20 16:23:56.257,381.0,-1516.0,401.0,27.0,115.0,255.0,146,60,58,90,66,383,525,444
2025-02-20 16:23:56.274,152.0,-984.0,157.0,28.0,88.0,284.0,147,61,58,89,66,364,550,446
2025-02-20 16:23:56.294,107.0,-564.0,278.0,-13.0,48.0,288.0,146,60,58,85,62,285,522,462
2025-02-20 16:23:56.313,159.0,-295.0,559.0,-35.0,67.0,217.0,149,60,59,82,66,349,427,481
2025-02-20 16:23:56.329,89.0,-512.0,489.0,-20.0,145.0,196.0,147,62,58,84,63,430,382,498
2025-02-20 16:23:56.351,-203.0,-481.0,291.0,-36.0,172.0,238.0,147,63,60,83,61,494,360,490
2025-02-20 16:23:56.371,-444.0,-336.0,130.0,18.0,124.0,235.0,147,64,60,83,61,509,399,472
2025-02-20 16:23:56.389,-244.0,-152.0,235.0,142.0,112.0,182.0,148,66,61,83,61,500,421,454
2025-02-20 16:23:56.408,-274.0,83.0,198.0,251.0,151.0,168.0,147,66,63,82,61,500,424,454
2025-02-20 16:23:56.426,-532.0,752.0,28.0,314.0,166.0,100.0,147,67,63,80,62,520,449,451
2025-02-20 16:23:56.446,-916.0,1696.0,-278.0,314.0,131.0,-47.0,147,67,64,82,63,615,459,441
2025-02-20 16:23:56.466,-1441.0,2414.0,-1097.0,240.0,-5.0,-343.0,143,66,63,82,63,683,490,430
2025-02-20 16:23:56.486,-1535.0,2149.0,-1752.0,92.0,-347.0,-630.0,140,62,60,83,61,615,499,438
2025-02-20 16:23:56.503,224.0,1561.0,-1983.0,-153.0,-709.0,-742.0,140,61,60,87,64,468,443,480
2025-02-20 16:23:56.520,3954.0,-915.0,-1716.0,-383.0,-1049.0,-572.0,138,61,61,93,68,452,393,503
2025-02-20 16:23:56.541,5020.0,-4701.0,815.0,-390.0,-762.0,-167.0,140,63,62,95,71,517,401,478
2025-02-20 16:23:56.560,4456.0,-5340.0,2498.0,-228.0,-63.0,19.0,141,65,63,94,69,501,453,478
2025-02-20 16:23:56.580,2108.0,-2792.0,537.0,369.0,348.0,7.0,143,60,61,85,61,526,496,475
2025-02-20 16:23:56.597,-126.0,-1266.0,-940.0,142.0,194.0,98.0,143,58,59,85,59,486,516,461
2025-02-20 16:23:56.617,54.0,-839.0,-493.0,58.0,67.0,111.0,142,60,61,88,63,408,495,451
2025-02-20 16:23:56.634,155.0,-1415.0,577.0,17.0,-2.0,119.0,143,65,64,91,68,225,426,406
2025-02-20 16:23:56.654,605.0,-1514.0,707.0,42.0,61.0,152.0,141,68,67,94,73,344,349,411
2025-02-20 16:23:56.674,615.0,-1519.0,692.0,80.0,178.0,155.0,142,72,69,96,76,425,397,515
2025-02-20 16:23:56.692,416.0,-959.0,475.0,49.0,158.0,164.0,140,74,69,93,77,475,528,526
2025-02-20 16:23:56.712,295.0,-826.0,492.0,2.0,172.0,176.0,142,77,68,91,77,464,543,503
2025-02-20 16:23:56.732,165.0,-742.0,521.0,-41.0,182.0,198.0,142,77,69,92,75,449,443,485
2025-02-20 16:23:56.749,136.0,-668.0,315.0,-62.0,229.0,221.0,143,75,71,94,71,495,428,481
2025-02-20 16:23:56.769,-15.0,-564.0,139.0,-40.0,246.0,244.0,144,72,72,97,71,539,466,469
2025-02-20 16:23:56.789,-6.0,-409.0,145.0,-15.0,211.0,258.0,143,73,73,101,72,572,389,473
2025-02-20 16:23:56.806,133.0,-333.0,159.0,94.0,233.0,273.0,143,77,74,101,74,525,396,479
2025-02-20 16:23:56.827,-177.0,-477.0,200.0,193.0,256.0,298.0,143,80,75,102,78,441,473,474
2025-02-20 16:23:56.846,-237.0,-45.0,-36.0,322.0,285.0,309.0,142,81,75,103,80,381,515,469
2025-02-20 16:23:56.864,-307.0,297.0,-355.0,348.0,254.0,289.0,142,80,73,102,80,402,501,445
2025-02-20 16:23:56.883,-725.0,743.0,-707.0,325.0,171.0,238.0,142,74,69,101,80,493,504,433
2025-02-20 16:23:56.901,-1086.0,985.0,-994.0,263.0,83.0,78.0,141,63,62,96,75,600,501,422
2025-02-20 16:23:56.919,-1879.0,2018.0,-1741.0,190.0,-113.0,-254.0,139,57,57,85,64,604,455,425
2025-02-20 16:23:56.941,-1968.0,2081.0,-1747.0,77.0,-509.0,-547.0,137,59,53,78,60,468,394,472
2025-02-20 16:23:56.957,83.0,2250.0,-2557.0,15.0,-955.0,-817.0,134,57,53,79,63,470,362,475
2025-02-20 16:23:56.978,5299.0,-721.0,-428.0,-163.0,-1214.0,-644.0,134,58,51,81,64,545,354,477
2025-02-20 16:23:56.999,4909.0,-5166.0,4225.0,-129.0,-471.0,-115.0,132,60,56,82,63,573,416,498
2025-02-20 16:23:57.015,3633.0,-3793.0,3481.0,37.0,264.0,117.0,128,58,55,73,58,614,518,491
2025-02-20 16:23:57.036,1098.0,-1621.0,975.0,97.0,349.0,115.0,125,56,55,70,53,492,589,464
2025-02-20 16:23:57.056,60.0,-540.0,301.0,-95.0,241.0,131.0,126,55,56,72,52,326,626,453
2025-02-20 16:23:57.072,-39.0,-1134.0,344.0,-226.0,108.0,139.0,127,57,58,74,53,295,591,447
2025-02-20 16:23:57.093,181.0,-1555.0,741.0,-187.0,131.0,181.0,129,59,58,76,58,283,533,453
2025-02-20 16:23:57.110,-25.0,-1378.0,680.0,-80.0,172.0,213.0,129,61,58,80,62,149,407,487
2025-02-20 16:23:57.130,84.0,-926.0,659.0,-65.0,214.0,224.0,130,61,59,81,64,268,384,438
2025-02-20 16:23:57.149,-357.0,-433.0,435.0,-106.0,191.0,206.0,132,60,57,84,65,437,530,500
2025-02-20 16:23:57.167,-658.0,-331.0,237.0,-157.0,112.0,174.0,132,62,59,83,66,503,589,498
2025-02-20 16:23:57.187,-282.0,-560.0,402.0,-148.0,97.0,159.0,133,61,59,78,64,556,422,483
2025-02-20 16:23:57.207,-474.0,-637.0,133.0,-81.0,133.0,145.0,132,61,58,75,62,424,354,490
2025-02-20 16:23:57.222,-411.0,-206.0,-27.0,-44.0,136.0,128.0,130,59,57,77,61,432,373,503
2025-02-20 16:23:57.244,-571.0,-205.0,-121.0,3.0,112.0,111.0,130,60,58,79,61,312,471,502
2025-02-20 16:23:57.264,-574.0,-82.0,-260.0,35.0,80.0,114.0,131,60,57,76,62,393,386,486
2025-02-20 16:23:57.281,-641.0,68.0,-380.0,96.0,32.0,132.0,131,62,59,76,63,541,408,457
2025-02-20 16:23:57.302,-739.0,479.0,-856.0,214.0,-4.0,79.0,130,62,60,76,64,721,474,436
2025-02-20 16:23:57.322,-1026.0,1700.0,-1294.0,308.0,-70.0,-133.0,128,61,59,78,65,750,515,443
2025-02-20 16:23:57.339,-1555.0,2429.0,-1642.0,244.0,-337.0,-412.0,125,62,59,79,63,677,503,465
2025-02-20 16:23:57.358,-749.0,1939.0,-2246.0,161.0,-735.0,-643.0,123,59,57,76,62,591,490,476
2025-02-20 16:23:57.374,3168.0,93.0,-1250.0,78.0,-1068.0,-572.0,127,60,56,78,64,523,486,465
2025-02-20 16:23:57.396,4756.0,-2932.0,2538.0,134.0,-867.0,-270.0,133,61,58,79,66,364,461,459
2025-02-20 16:23:57.416,4127.0,-2977.0,4099.0,93.0,-133.0,33.0,135,63,59,76,66,357,397,460
2025-02-20 16:23:57.433,2165.0,-1777.0,2666.0,-13.0,219.0,2.0,135,63,58,76,60,475,453,453
2025-02-20 16:23:57.452,965.0,-1454.0,1076.0,-111.0,280.0,69.0,134,62,58,77,58,363,522,434
2025-02-20 16:23:57.473,361.0,-1296.0,506.0,-170.0,228.0,108.0,135,61,59,78,61,261,557,394
2025-02-20 16:23:57.490,227.0,-1555.0,398.0,-139.0,185.0,137.0,136,62,60,82,66,360,558,368
2025-02-20 16:23:57.511,394.0,-1542.0,542.0,-64.0,190.0,177.0,136,64,61,84,71,453,474,404
2025-02-20 16:23:57.531,259.0,-1109.0,468.0,7.0,197.0,204.0,137,66,63,88,74,469,423,496
2025-02-20 16:23:57.548,-52.0,-701.0,490.0,-4.0,187.0,215.0,138,67,65,88,76,461,557,503
2025-02-20 16:23:57.568,-75.0,-484.0,464.0,-29.0,182.0,223.0,138,71,69,89,77,517,595,506
2025-02-20 16:23:57.584,-110.0,-533.0,383.0,-5.0,203.0,214.0,138,77,71,89,73,493,559,494
2025-02-20 16:23:57.605,-328.0,-434.0,246.0,44.0,206.0,208.0,139,85,72,91,71,449,461,479
2025-02-20 16:23:57.625,-337.0,-254.0,247.0,63.0,200.0,195.0,140,90,73,93,72,476,436,469
2025-02-20 16:23:57.641,-304.0,-264.0,259.0,104.0,222.0,190.0,138,93,74,92,73,453,369,472
2025-02-20 16:23:57.662,-542.0,-168.0,-154.0,188.0,215.0,194.0,139,95,73,92,73,355,336,487
2025-02-20 16:23:57.682,-924.0,-170.0,-589.0,296.0,127.0,125.0,139,95,67,91,74,284,348,504
2025-02-20 16:23:57.698,-1084.0,60.0,-1061.0,453.0,10.0,49.0,137,97,62,87,71,365,421,487
2025-02-20 16:23:57.720,-1358.0,400.0,-1139.0,505.0,-147.0,-43.0,131,99,54,78,64,500,444,446
2025-02-20 16:23:57.737,-1369.0,1111.0,-2302.0,412.0,-551.0,-118.0,107,103,55,72,60,566,464,440
2025-02-20 16:23:57.757,717.0,750.0,-1447.0,323.0,-878.0,-141.0,94,106,56,69,59,585,466,429
2025-02-20 16:23:57.777,2684.0,265.0,-141.0,308.0,-1004.0,-76.0,92,107,55,67,61,574,420,393
2025-02-20 16:23:57.797,2937.0,-183.0,2099.0,340.0,-861.0,31.0,98,109,54,69,63,526,400,420
2025-02-20 16:23:57.814,2314.0,156.0,3513.0,234.0,-431.0,98.0,106,112,55,70,63,564,472,464
2025-02-20 16:23:57.834,1826.0,768.0,4096.0,-19.0,-64.0,58.0,109,115,55,72,67,582,538,490
2025-02-20 16:23:57.851,1359.0,427.0,2794.0,-123.0,203.0,13.0,110,115,54,73,66,534,567,476
2025-02-20 16:23:57.869,935.0,250.0,1700.0,-168.0,324.0,-29.0,105,115,56,73,66,522,579,468
2025-02-20 16:23:57.891,702.0,-34.0,1142.0,-148.0,354.0,-41.0,109,114,55,74,66,333,556,461
2025-02-20 16:23:57.908,494.0,-249.0,1005.0,-129.0,336.0,-14.0,109,113,56,73,66,376,513,452
2025-02-20 16:23:57.928,318.0,-361.0,958.0,-124.0,309.0,38.0,106,114,56,75,67,479,482,467
2025-02-20 16:23:57.949,130.0,-87.0,853.0,-150.0,271.0,62.0,103,114,55,77,67,558,495,489
2025-02-20 16:23:57.966,39.0,-198.0,910.0,-162.0,239.0,61.0,106,114,57,75,66,527,508,498
2025-02-20 16:23:57.985,113.0,-381.0,927.0,-152.0,257.0,82.0,109,114,56,76,67,369,485,460
2025-02-20 16:23:58.006,-85.0,-369.0,754.0,-122.0,272.0,110.0,110,114,57,76,67,354,430,436
2025-02-20 16:23:58.023,-71.0,-368.0,712.0,-99.0,276.0,134.0,110,113,57,76,67,410,399,448
2025-02-20 16:23:58.043,-249.0,-122.0,571.0,-94.0,266.0,144.0,110,114,57,76,67,463,385,479
2025-02-20 16:23:58.060,-295.0,-112.0,460.0,-78.0,255.0,117.0,113,114,57,77,69,483,439,491
2025-02-20 16:23:58.080,-456.0,-20.0,375.0,-62.0,238.0,90.0,117,113,58,78,69,425,470,493
2025-02-20 16:23:58.100,-456.0,-61.0,316.0,-49.0,224.0,82.0,120,113,58,77,69,404,493,488
2025-02-20 16:23:58.117,-742.0,-66.0,18.0,-38.0,170.0,71.0,120,112,58,77,69,421,490,467
2025-02-20 16:23:58.137,-773.0,36.0,-175.0,-14.0,99.0,58.0,120,113,59,78,68,474,473,456
2025-02-20 16:23:58.158,-866.0,229.0,-676.0,48.0,38.0,9.0,118,111,57,76,67,527,456,457
2025-02-20 16:23:58.174,-1847.0,585.0,-1722.0,198.0,-190.0,-164.0,106,112,56,73,61,553,400,454
2025-02-20 16:23:58.194,-1967.0,769.0,-2893.0,300.0,-608.0,-287.0,91,112,56,66,56,533,412,461
2025-02-20 16:23:58.214,968.0,932.0,-2778.0,278.0,-1065.0,-239.0,87,113,57,66,56,484,430,456
2025-02-20 16:23:58.231,3943.0,61.0,-581.0,271.0,-1180.0,-107.0,89,114,58,67,60,556,413,438
2025-02-20 16:23:58.252,3925.0,-347.0,2120.0,347.0,-953.0,-5.0,101,114,56,67,61,620,399,454
2025-02-20 16:23:58.268,3235.0,152.0,3751.0,332.0,-473.0,83.0,114,116,56,69,63,585,451,482
2025-02-20 16:23:58.289,2159.0,984.0,4411.0,51.0,-78.0,72.0,121,117,57,70,66,574,440,502
2025-02-20 16:23:58.306,1632.0,504.0,3332.0,-207.0,296.0,70.0,123,116,58,72,67,528,553,486
2025-02-20 16:23:58.325,1252.0,271.0,1714.0,-339.0,437.0,61.0,124,114,58,72,68,456,604,482
2025-02-20 16:23:58.346,1024.0,-337.0,1009.0,-303.0,458.0,73.0,123,110,58,72,68,379,632,486
2025-02-20 16:23:58.366,766.0,-627.0,966.0,-220.0,441.0,121.0,124,109,58,75,69,396,595,483
2025-02-20 16:23:58.383,565.0,-274.0,1046.0,-230.0,435.0,167.0,123,108,57,75,70,371,535,459
2025-02-20 16:23:58.404,310.0,0.0,912.0,-295.0,396.0,184.0,126,108,59,77,68,483,523,486
2025-02-20 16:23:58.423,271.0,-284.0,642.0,-319.0,371.0,192.0,128,109,62,80,73,453,512,489
2025-02-20 16:23:58.440,235.0,-502.0,494.0,-247.0,378.0,217.0,129,109,66,85,78,397,479,467
2025-02-20 16:23:58.459,18.0,-551.0,388.0,-125.0,373.0,245.0,128,110,72,93,88,361,405,452
2025-02-20 16:23:58.481,-417.0,-319.0,160.0,44.0,346.0,234.0,128,109,78,103,98,316,369,460
2025-02-20 16:23:58.498,-484.0,-91.0,18.0,99.0,292.0,168.0,127,107,82,112,104,342,390,474
2025-02-20 16:23:58.518,-697.0,-28.0,-77.0,73.0,268.0,96.0,124,108,84,116,106,354,328,481
2025-02-20 16:23:58.535,-708.0,467.0,-495.0,51.0,163.0,49.0,122,107,87,118,107,318,324,486
2025-02-20 16:23:58.554,-900.0,507.0,-658.0,39.0,63.0,3.0,119,108,88,119,109,352,409,508
2025-02-20 16:23:58.574,-1096.0,667.0,-1161.0,48.0,-89.0,-96.0,119,109,89,120,113,514,443,480
2025-02-20 16:23:58.592,-1220.0,1016.0,-1574.0,41.0,-279.0,-249.0,117,110,91,120,115,550,475,462
2025-02-20 16:23:58.611,-1220.0,1326.0,-1255.0,44.0,-383.0,-477.0,119,111,94,120,121,572,473,447
2025-02-20 16:23:58.633,-386.0,1186.0,-874.0,-60.0,-517.0,-650.0,121,112,95,123,123,602,449,449
2025-02-20 16:23:58.650,1088.0,1027.0,-1096.0,-94.0,-980.0,-701.0,120,117,96,125,126,541,425,457
2025-02-20 16:23:58.670,3606.0,-1211.0,-156.0,-289.0,-1042.0,-454.0,119,124,99,128,127,593,446,444
2025-02-20 16:23:58.689,3319.0,-2667.0,1127.0,-194.0,-701.0,-195.0,119,130,102,130,129,553,471,431
2025-02-20 16:23:58.706,3076.0,-3466.0,1285.0,6.0,-241.0,46.0,120,129,103,131,129,573,492,439
2025-02-20 16:23:58.726,2152.0,-2241.0,1285.0,134.0,76.0,94.0,124,130,104,131,130,606,536,441
2025-02-20 16:23:58.747,963.0,-1265.0,1324.0,118.0,245.0,64.0,125,129,103,133,130,577,511,443
2025-02-20 16:23:58.764,430.0,-978.0,868.0,-12.0,277.0,100.0,127,128,103,132,130,542,496,451
2025-02-20 16:23:58.785,271.0,-901.0,504.0,-86.0,215.0,138.0,126,127,103,133,130,464,464,454
2025-02-20 16:23:58.801,340.0,-1025.0,477.0,-135.0,115.0,158.0,124,128,103,132,130,346,414,465
2025-02-20 16:23:58.821,356.0,-1212.0,982.0,-85.0,101.0,144.0,123,129,103,133,131,438,365,471
2025-02-20 16:23:58.840,358.0,-1389.0,391.0,-119.0,134.0,155.0,122,130,104,133,131,453,495,464
2025-02-20 16:23:58.858,175.0,-1175.0,283.0,-61.0,77.0,187.0,122,130,105,133,132,420,570,487
2025-02-20 16:23:58.876,112.0,-914.0,304.0,-57.0,95.0,192.0,121,130,104,133,132,330,528,478
2025-02-20 16:23:58.899,27.0,-757.0,412.0,-70.0,102.0,195.0,122,130,104,134,132,346,500,470
2025-02-20 16:23:58.916,-49.0,-675.0,320.0,-41.0,110.0,209.0,123,127,104,133,132,357,464,486
2025-02-20 16:23:58.936,-191.0,-653.0,449.0,-37.0,112.0,200.0,123,127,103,133,133,464,430,484
2025-02-20 16:23:58.956,-251.0,-623.0,235.0,-22.0,136.0,179.0,124,125,103,133,132,544,403,478
2025-02-20 16:23:58.973,-141.0,-501.0,281.0,25.0,142.0,162.0,122,124,103,133,131,559,458,480
2025-02-20 16:23:58.993,-172.0,-430.0,356.0,82.0,161.0,169.0,122,125,103,133,132,495,528,474
2025-02-20 16:23:59.011,-440.0,-263.0,162.0,133.0,170.0,173.0,122,123,103,133,132,569,577,469
2025-02-20 16:23:59.029,-609.0,40.0,25.0,158.0,134.0,158.0,122,124,103,132,132,680,594,461
2025-02-20 16:23:59.051,-538.0,405.0,-115.0,201.0,114.0,122.0,126,123,102,132,132,623,588,456
2025-02-20 16:23:59.068,-990.0,1235.0,-647.0,202.0,48.0,-28.0,120,121,104,132,132,617,555,457
2025-02-20 16:23:59.087,-1531.0,1663.0,-1034.0,208.0,-102.0,-243.0,119,121,105,132,133,559,506,458
2025-02-20 16:23:59.107,-1516.0,1304.0,-1051.0,156.0,-329.0,-553.0,119,121,104,132,133,388,480,462
2025-02-20 16:23:59.124,-81.0,1027.0,-634.0,58.0,-645.0,-711.0,120,123,104,133,134,301,430,482
2025-02-20 16:23:59.145,2304.0,-405.0,-338.0,-152.0,-905.0,-546.0,116,125,104,134,135,348,372,476
2025-02-20 16:23:59.165,3489.0,-2439.0,619.0,-238.0,-777.0,-322.0,116,128,106,134,134,374,237,467
2025-02-20 16:23:59.179,3556.0,-3784.0,1148.0,-105.0,-296.0,-48.0,114,129,107,134,134,475,163,461
2025-02-20 16:23:59.202,2562.0,-2979.0,1083.0,113.0,120.0,132.0,117,129,107,136,133,446,285,455
2025-02-20 16:23:59.214,1337.0,-1651.0,1132.0,171.0,299.0,112.0,120,128,106,135,132,398,406,443
2025-02-20 16:23:59.239,182.0,-738.0,895.0,109.0,315.0,107.0,123,125,106,135,133,469,545,445
2025-02-20 16:23:59.258,-49.0,-667.0,516.0,-15.0,233.0,105.0,123,124,106,136,133,436,608,448
2025-02-20 16:23:59.274,8.0,-953.0,448.0,-83.0,122.0,94.0,122,125,105,135,132,297,568,448
2025-02-20 16:23:59.296,372.0,-1349.0,556.0,-55.0,67.0,92.0,122,128,107,134,133,467,481,492
2025-02-20 16:23:59.317,601.0,-1417.0,654.0,-11.0,142.0,101.0,121,129,106,135,133,432,375,468
2025-02-20 16:23:59.334,433.0,-1289.0,765.0,-10.0,136.0,151.0,122,130,107,135,134,379,428,473
2025-02-20 16:23:59.354,332.0,-934.0,595.0,-2.0,194.0,176.0,123,130,106,135,129,225,384,487
2025-02-20 16:23:59.374,122.0,-756.0,478.0,-21.0,220.0,198.0,124,128,105,134,131,270,356,507
2025-02-20 16:23:59.391,-219.0,-974.0,-153.0,-74.0,201.0,223.0,126,124,103,133,127,426,451,499
2025-02-20 16:23:59.411,-230.0,-485.0,314.0,-45.0,207.0,236.0,127,122,98,131,119,578,494,474
2025-02-20 16:23:59.428,-291.0,-262.0,292.0,8.0,219.0,249.0,128,119,91,130,109,628,476,479
2025-02-20 16:23:59.447,-336.0,-282.0,117.0,163.0,247.0,249.0,128,116,80,127,100,554,480,477
2025-02-20 16:23:59.469,-504.0,-158.0,-46.0,297.0,260.0,230.0,129,114,65,108,85,480,496,455
2025-02-20 16:23:59.483,-709.0,27.0,-924.0,441.0,198.0,153.0,130,112,56,84,68,607,512,439
2025-02-20 16:23:59.505,-1611.0,789.0,-2082.0,549.0,-21.0,-5.0,126,112,49,69,55,702,518,426
2025-02-20 16:23:59.524,-1969.0,1645.0,-2646.0,477.0,-519.0,-178.0,116,116,47,63,52,648,493,443
2025-02-20 16:23:59.542,705.0,2015.0,-3054.0,307.0,-1004.0,-301.0,98,117,49,61,52,603,456,439
2025-02-20 16:23:59.562,3496.0,-570.0,-513.0,241.0,-1119.0,-132.0,96,118,48,61,53,433,432,500
2025-02-20 16:23:59.583,3667.0,-661.0,2525.0,382.0,-822.0,-6.0,105,119,48,63,56,506,364,477
2025-02-20 16:23:59.597,2533.0,515.0,4016.0,263.0,-362.0,-17.0,110,119,48,64,57,589,430,462
2025-02-20 16:23:59.619,2027.0,193.0,3939.0,48.0,2.0,-7.0,110,120,50,64,58,579,512,455
2025-02-20 16:23:59.635,1516.0,179.0,2701.0,-121.0,236.0,-4.0,105,118,49,65,58,531,554,449
2025-02-20 16:23:59.657,923.0,-257.0,1643.0,-149.0,312.0,-12.0,104,117,51,66,59,415,550,414
2025-02-20 16:23:59.677,718.0,-480.0,1238.0,-122.0,328.0,-11.0,108,114,51,70,61,213,521,440
2025-02-20 16:23:59.694,339.0,-360.0,1006.0,-102.0,306.0,16.0,111,115,53,71,64,267,432,470
2025-02-20 16:23:59.714,100.0,-195.0,1059.0,-108.0,263.0,32.0,112,115,54,71,65,348,479,481
2025-02-20 16:23:59.734,115.0,-179.0,1010.0,-124.0,210.0,38.0,108,116,52,71,65,389,573,489
2025-02-20 16:23:59.751,90.0,-341.0,962.0,-153.0,199.0,54.0,109,118,54,71,64,370,611,484
2025-02-20 16:23:59.771,170.0,-434.0,976.0,-149.0,234.0,81.0,111,118,53,72,65,379,486,464
2025-02-20 16:23:59.792,-39.0,-418.0,765.0,-123.0,253.0,107.0,114,118,54,75,67,357,426,445
2025-02-20 16:23:59.809,-239.0,-319.0,585.0,-78.0,242.0,109.0,116,118,54,73,65,399,482,420
2025-02-20 16:23:59.829,-184.0,-111.0,551.0,-31.0,224.0,74.0,116,119,55,73,70,447,468,438
2025-02-20 16:23:59.846,-283.0,-5.0,547.0,-32.0,218.0,49.0,114,119,55,75,68,399,397,468
2025-02-20 16:23:59.866,-192.0,-48.0,571.0,-45.0,230.0,57.0,115,120,54,74,67,327,399,481
2025-02-20 16:23:59.886,-459.0,-69.0,201.0,-60.0,207.0,72.0,117,119,55,75,68,387,455,492
2025-02-20 16:23:59.903,-790.0,78.0,-367.0,-27.0,132.0,46.0,112,119,55,75,67,500,498,482
2025-02-20 16:23:59.923,-1111.0,369.0,-1192.0,70.0,-32.0,-66.0,107,119,53,74,65,557,487,471
2025-02-20 16:23:59.944,-1662.0,592.0,-2204.0,200.0,-310.0,-175.0,101,119,52,71,62,599,431,450
2025-02-20 16:23:59.960,-564.0,536.0,-2632.0,297.0,-779.0,-214.0,93,120,51,70,57,607,424,445
2025-02-20 16:23:59.981,2116.0,363.0,-988.0,284.0,-995.0,-138.0,94,120,52,68,60,573,414,450
2025-02-20 16:24:00.001,3059.0,-287.0,1046.0,287.0,-911.0,-43.0,101,122,52,69,61,578,378,430
2025-02-20 16:24:00.015,2977.0,-263.0,3336.0,275.0,-553.0,23.0,113,125,51,71,63,529,326,437
2025-02-20 16:24:00.037,2536.0,395.0,4410.0,94.0,-132.0,54.0,118,126,53,72,65,553,368,435
2025-02-20 16:24:00.058,1737.0,322.0,3560.0,-156.0,245.0,46.0,123,127,54,76,67,586,492,446
2025-02-20 16:24:00.075,1395.0,-74.0,1799.0,-278.0,371.0,40.0,125,127,52,78,68,484,578,464
2025-02-20 16:24:00.095,782.0,-529.0,1267.0,-255.0,385.0,67.0,129,125,57,79,70,433,582,463
2025-02-20 16:24:00.112,602.0,-689.0,944.0,-196.0,361.0,90.0,131,125,59,78,69,441,555,468
2025-02-20 16:24:00.131,390.0,-641.0,987.0,-174.0,344.0,140.0,131,124,62,79,69,443,493,473
2025-02-20 16:24:00.152,293.0,-421.0,996.0,-213.0,330.0,178.0,133,123,66,81,69,513,477,489
2025-02-20 16:24:00.169,207.0,-371.0,954.0,-240.0,310.0,211.0,131,122,68,81,68,440,546,469
2025-02-20 16:24:00.189,179.0,-368.0,818.0,-246.0,322.0,228.0,132,125,72,82,70,349,586,457
2025-02-20 16:24:00.210,49.0,-576.0,631.0,-190.0,347.0,230.0,134,120,77,84,71,330,467,442
2025-02-20 16:24:00.227,-110.0,-424.0,468.0,-138.0,368.0,241.0,134,119,80,87,73,346,386,479
2025-02-20 16:24:00.246,-431.0,-165.0,31.0,-26.0,349.0,217.0,132,118,81,88,75,390,339,481
2025-02-20 16:24:00.266,-558.0,109.0,-176.0,49.0,315.0,147.0,131,117,83,89,75,417,348,486
2025-02-20 16:24:00.283,-687.0,391.0,-305.0,94.0,264.0,87.0,132,117,86,89,77,386,423,488
2025-02-20 16:24:00.303,-676.0,725.0,-575.0,76.0,199.0,29.0,130,117,87,88,79,420,464,470
2025-02-20 16:24:00.319,-934.0,1095.0,-1244.0,52.0,83.0,-34.0,132,117,89,87,79,545,476,451
2025-02-20 16:24:00.341,-1300.0,1205.0,-2381.0,111.0,-131.0,-196.0,127,119,92,84,73,659,463,423
2025-02-20 16:24:00.360,-1459.0,1651.0,-2491.0,176.0,-494.0,-441.0,123,121,95,84,63,603,446,427
2025-02-20 16:24:00.378,-371.0,1467.0,-1907.0,90.0,-839.0,-591.0,112,124,97,86,66,498,406,441
2025-02-20 16:24:00.397,1998.0,736.0,-1405.0,-48.0,-1146.0,-549.0,106,126,98,88,70,392,360,475
2025-02-20 16:24:00.416,5120.0,-1695.0,-342.0,-123.0,-1209.0,-381.0,109,128,99,86,75,453,336,476
2025-02-20 16:24:00.435,4664.0,-3407.0,2256.0,120.0,-684.0,-67.0,118,130,102,87,76,448,393,466
2025-02-20 16:24:00.456,3072.0,-2101.0,3045.0,166.0,-101.0,62.0,124,131,104,91,73,482,483,470
2025-02-20 16:24:00.476,1450.0,-1061.0,2500.0,31.0,189.0,43.0,125,132,105,92,67,428,538,462
2025-02-20 16:24:00.486,708.0,-833.0,1479.0,-88.0,263.0,67.0,125,132,105,94,67,394,547,457
2025-02-20 16:24:00.513,502.0,-914.0,962.0,-138.0,270.0,100.0,123,131,105,91,70,392,544,453
2025-02-20 16:24:00.532,405.0,-881.0,617.0,-148.0,249.0,102.0,116,132,105,87,73,263,509,426
2025-02-20 16:24:00.549,351.0,-1025.0,631.0,-135.0,239.0,114.0,114,132,107,86,75,357,418,437
2025-02-20 16:24:00.565,405.0,-963.0,441.0,-119.0,238.0,130.0,116,132,106,85,78,347,468,467
2025-02-20 16:24:00.587,243.0,-953.0,472.0,-86.0,236.0,166.0,116,132,106,85,78,454,564,489
2025-02-20 16:24:00.608,55.0,-811.0,442.0,-52.0,231.0,200.0,115,132,107,85,75,365,553,485
2025-02-20 16:24:00.627,48.0,-479.0,498.0,-66.0,234.0,228.0,114,131,107,86,71,353,460,488
2025-02-20 16:24:00.644,-71.0,-445.0,464.0,-61.0,249.0,230.0,117,131,108,87,71,447,443,489
2025-02-20 16:24:00.664,-202.0,-383.0,382.0,-29.0,252.0,220.0,118,129,107,88,68,523,481,487
2025-02-20 16:24:00.682,-289.0,-364.0,229.0,26.0,267.0,219.0,119,129,107,86,72,542,454,475
2025-02-20 16:24:00.700,-621.0,10.0,-181.0,81.0,231.0,223.0,119,129,107,84,74,499,437,468
2025-02-20 16:24:00.722,-930.0,863.0,-742.0,99.0,124.0,160.0,118,129,107,81,73,398,428,461
2025-02-20 16:24:00.742,-1428.0,1273.0,-1364.0,171.0,-32.0,-54.0,117,129,108,77,72,469,430,457
2025-02-20 16:24:00.759,-1394.0,2074.0,-1216.0,190.0,-204.0,-362.0,112,129,107,78,71,545,431,457
2025-02-20 16:24:00.779,-793.0,1458.0,-1113.0,74.0,-483.0,-562.0,108,130,108,80,71,457,415,453
2025-02-20 16:24:00.796,574.0,298.0,-589.0,24.0,-749.0,-591.0,103,130,108,82,74,409,401,466
2025-02-20 16:24:00.817,3563.0,-327.0,-306.0,-57.0,-888.0,-508.0,108,131,109,86,77,491,388,475
2025-02-20 16:24:00.834,3354.0,-3177.0,2276.0,-36.0,-536.0,-287.0,113,131,108,89,78,573,395,444
2025-02-20 16:24:00.853,2997.0,-3126.0,2242.0,46.0,-17.0,28.0,113,133,109,87,76,598,449,441
2025-02-20 16:24:00.874,1717.0,-1960.0,1721.0,104.0,218.0,94.0,114,131,109,86,69,578,482,447
2025-02-20 16:24:00.893,639.0,-1097.0,958.0,70.0,245.0,77.0,113,131,109,86,67,574,480,449
2025-02-20 16:24:00.911,245.0,-880.0,671.0,-21.0,156.0,45.0,112,130,108,88,71,492,473,440
2025-02-20 16:24:00.930,252.0,-1089.0,654.0,-56.0,107.0,40.0,115,130,109,88,77,346,448,428
2025-02-20 16:24:00.951,427.0,-1308.0,793.0,-40.0,106.0,63.0,118,132,109,91,81,460,396,443
2025-02-20 16:24:00.968,590.0,-1294.0,895.0,-11.0,157.0,100.0,122,132,108,92,82,423,442,483
2025-02-20 16:24:00.988,492.0,-1062.0,966.0,-1.0,226.0,132.0,125,132,107,92,83,408,570,506
2025-02-20 16:24:01.005,287.0,-939.0,816.0,-17.0,251.0,156.0,129,130,106,91,82,330,591,517
2025-02-20 16:24:01.025,115.0,-624.0,664.0,-67.0,258.0,198.0,130,127,101,94,80,419,496,493
2025-02-20 16:24:01.045,64.0,-560.0,636.0,-115.0,268.0,242.0,132,122,97,94,76,413,408,482
2025-02-20 16:24:01.063,-5.0,-686.0,557.0,-73.0,286.0,285.0,135,119,86,94,74,410,404,475
2025-02-20 16:24:01.083,-7.0,-481.0,325.0,2.0,304.0,292.0,135,114,76,95,76,446,417,470
2025-02-20 16:24:01.102,-165.0,-420.0,45.0,77.0,288.0,273.0,135,111,70,93,76,451,451,475
2025-02-20 16:24:01.120,-457.0,-89.0,-192.0,114.0,241.0,242.0,133,107,63,93,75,438,486,487
2025-02-20 16:24:01.140,-685.0,162.0,-473.0,154.0,196.0,205.0,131,107,57,86,69,479,489,498
2025-02-20 16:24:01.160,-787.0,600.0,-1337.0,199.0,100.0,70.0,121,103,54,81,68,651,474,448
2025-02-20 16:24:01.177,-1601.0,1081.0,-2319.0,360.0,-169.0,-90.0,102,101,53,68,59,672,478,438
2025-02-20 16:24:01.197,-1564.0,1500.0,-3115.0,324.0,-611.0,-242.0,90,102,53,65,56,616,480,439
2025-02-20 16:24:01.215,1295.0,956.0,-2265.0,253.0,-1020.0,-245.0,87,106,53,67,59,549,490,462
2025-02-20 16:24:01.234,3321.0,-327.0,-583.0,297.0,-1113.0,-123.0,85,110,52,68,61,534,448,466
2025-02-20 16:24:01.254,3493.0,-213.0,1288.0,377.0,-943.0,-46.0,91,112,52,69,63,530,432,468
2025-02-20 16:24:01.263,3141.0,-5.0,3327.0,397.0,-614.0,-31.0,102,116,52,69,67,594,491,464
2025-02-20 16:24:01.291,2504.0,687.0,4164.0,249.0,-227.0,1.0,106,116,52,71,70,627,508,450
2025-02-20 16:24:01.311,1611.0,593.0,3916.0,-62.0,175.0,-18.0,109,117,53,72,72,548,523,441
2025-02-20 16:24:01.329,1467.0,182.0,2266.0,-204.0,383.0,-34.0,106,115,53,71,73,426,522,443
2025-02-20 16:24:01.349,1097.0,-184.0,1256.0,-202.0,441.0,-29.0,106,112,54,74,73,354,503,453
2025-02-20 16:24:01.366,704.0,-329.0,932.0,-166.0,416.0,-12.0,108,112,54,74,74,295,466,450
2025-02-20 16:24:01.386,428.0,-487.0,811.0,-136.0,356.0,40.0,105,112,54,74,73,350,483,462
2025-02-20 16:24:01.404,-95.0,-77.0,814.0,-134.0,285.0,58.0,102,116,54,74,72,416,526,483
2025-02-20 16:24:01.423,82.0,-141.0,854.0,-160.0,234.0,49.0,101,116,54,75,72,340,537,493
2025-02-20 16:24:01.443,8.0,-327.0,847.0,-152.0,221.0,51.0,103,117,56,76,73,407,463,467
2025-02-20 16:24:01.463,-55.0,-384.0,731.0,-123.0,223.0,59.0,106,118,55,76,74,407,402,461
2025-02-20 16:24:01.480,-238.0,-460.0,575.0,-98.0,210.0,87.0,107,119,55,77,75,357,368,445
2025-02-20 16:24:01.500,-250.0,-350.0,574.0,-72.0,183.0,114.0,107,121,57,77,74,371,376,458
2025-02-20 16:24:01.520,-197.0,-244.0,531.0,-75.0,177.0,119.0,107,122,56,77,74,365,410,483
2025-02-20 16:24:01.537,-283.0,-163.0,412.0,-80.0,165.0,118.0,109,123,57,77,74,357,464,505
2025-02-20 16:24:01.557,-439.0,-74.0,266.0,-84.0,137.0,125.0,111,123,56,77,74,365,491,517
2025-02-20 16:24:01.577,-852.0,245.0,-313.0,-20.0,64.0,82.0,108,124,57,75,70,464,511,520
2025-02-20 16:24:01.595,-1365.0,776.0,-1312.0,114.0,-98.0,-85.0,101,126,55,73,64,608,500,491
2025-02-20 16:24:01.615,-1428.0,1258.0,-1813.0,168.0,-380.0,-267.0,97,128,55,71,59,663,460,463
2025-02-20 16:24:01.634,-494.0,548.0,-1967.0,226.0,-669.0,-278.0,93,130,56,71,59,644,419,442
2025-02-20 16:24:01.652,1670.0,182.0,-1288.0,321.0,-894.0,-196.0,92,129,55,70,60,601,430,448
2025-02-20 16:24:01.670,2993.0,10.0,371.0,399.0,-916.0,-116.0,97,130,55,71,63,555,430,472
2025-02-20 16:24:01.689,3398.0,-170.0,2511.0,348.0,-690.0,11.0,107,132,54,71,65,534,430,465
2025-02-20 16:24:01.708,2817.0,291.0,3740.0,173.0,-279.0,46.0,116,131,54,73,69,529,491,452
2025-02-20 16:24:01.730,2100.0,295.0,3606.0,-55.0,70.0,61.0,122,132,55,75,72,527,526,440
2025-02-20 16:24:01.746,1478.0,276.0,2427.0,-190.0,324.0,55.0,127,131,57,78,79,474,532,432
2025-02-20 16:24:01.766,1199.0,95.0,1378.0,-280.0,389.0,39.0,129,130,62,81,82,486,531,445
2025-02-20 16:24:01.786,908.0,-376.0,1068.0,-246.0,389.0,65.0,129,130,64,82,84,491,518,458
2025-02-20 16:24:01.803,744.0,-541.0,919.0,-205.0,364.0,120.0,129,130,63,84,85,452,489,463
2025-02-20 16:24:01.824,576.0,-511.0,954.0,-218.0,338.0,179.0,130,129,64,83,87,454,465,476
2025-02-20 16:24:01.844,338.0,-403.0,847.0,-253.0,286.0,207.0,131,126,66,89,88,386,520,484
2025-02-20 16:24:01.861,148.0,-278.0,772.0,-304.0,246.0,223.0,134,124,70,94,91,366,607,473
2025-02-20 16:24:01.881,63.0,-400.0,770.0,-316.0,231.0,228.0,135,121,72,101,93,387,491,479
2025-02-20 16:24:01.898,49.0,-503.0,843.0,-270.0,277.0,225.0,136,118,74,102,94,399,377,477
2025-02-20 16:24:01.918,15.0,-471.0,760.0,-200.0,334.0,206.0,136,107,73,102,95,373,390,488
2025-02-20 16:24:01.938,-183.0,-356.0,511.0,-146.0,365.0,184.0,137,93,72,104,93,369,408,504
2025-02-20 16:24:01.956,-380.0,55.0,192.0,-105.0,351.0,143.0,138,83,71,101,89,361,432,504
2025-02-20 16:24:01.975,-790.0,429.0,-237.0,-93.0,257.0,87.0,136,76,69,94,86,390,475,500
2025-02-20 16:24:01.995,-901.0,768.0,-463.0,-68.0,172.0,17.0,136,70,65,86,78,441,501,474
2025-02-20 16:24:02.012,-1123.0,1141.0,-594.0,69.0,80.0,-79.0,132,65,62,80,68,519,505,454
2025-02-20 16:24:02.032,-1084.0,2125.0,-1490.0,165.0,-91.0,-277.0,123,59,61,80,64,544,501,458
2025-02-20 16:24:02.052,-724.0,1871.0,-2113.0,116.0,-292.0,-522.0,116,53,56,76,60,568,490,449
2025-02-20 16:24:02.069,-435.0,1530.0,-2050.0,104.0,-599.0,-686.0,113,49,55,76,56,617,453,453
2025-02-20 16:24:02.088,2008.0,267.0,-1610.0,91.0,-916.0,-602.0,115,50,55,78,60,583,432,458
2025-02-20 16:24:02.110,4506.0,-1665.0,322.0,73.0,-862.0,-376.0,119,50,54,81,64,556,423,490
2025-02-20 16:24:02.127,3981.0,-3795.0,2578.0,309.0,-449.0,-169.0,125,54,55,78,66,495,445,478
2025-02-20 16:24:02.147,2673.0,-2385.0,2978.0,391.0,101.0,-109.0,128,56,57,77,61,535,490,467
2025-02-20 16:24:02.165,1605.0,-1197.0,2317.0,198.0,300.0,-73.0,129,58,58,80,62,615,511,469
2025-02-20 16:24:02.185,951.0,-1127.0,1610.0,-2.0,352.0,33.0,131,58,56,81,64,489,529,455
2025-02-20 16:24:02.204,560.0,-1025.0,1097.0,-155.0,283.0,112.0,131,58,55,79,69,378,521,416
2025-02-20 16:24:02.221,433.0,-952.0,896.0,-229.0,220.0,165.0,127,58,54,83,73,360,475,400
2025-02-20 16:24:02.241,476.0,-1077.0,838.0,-237.0,196.0,190.0,129,58,58,86,77,562,424,489
2025-02-20 16:24:02.261,333.0,-1111.0,722.0,-201.0,210.0,190.0,129,58,58,88,79,413,489,526
2025-02-20 16:24:02.276,112.0,-932.0,588.0,-161.0,186.0,205.0,130,59,57,87,77,384,480,513
2025-02-20 16:24:02.299,48.0,-710.0,566.0,-154.0,187.0,207.0,130,59,57,84,70,375,442,530
2025-02-20 16:24:02.318,-60.0,-646.0,505.0,-142.0,190.0,197.0,129,61,56,77,68,335,411,519
2025-02-20 16:24:02.335,-63.0,-565.0,409.0,-135.0,202.0,194.0,129,61,56,79,68,381,431,515
2025-02-20 16:24:02.355,-215.0,-420.0,169.0,-107.0,217.0,183.0,130,60,57,80,68,390,456,505
2025-02-20 16:24:02.373,-411.0,-562.0,48.0,-59.0,177.0,170.0,128,61,58,79,70,431,461,490
2025-02-20 16:24:02.393,-233.0,-401.0,67.0,-7.0,168.0,168.0,128,62,58,78,72,417,496,490
2025-02-20 16:24:02.413,-366.0,-334.0,74.0,32.0,165.0,159.0,128,62,60,78,73,482,531,489
2025-02-20 16:24:02.428,-564.0,-43.0,-80.0,47.0,130.0,159.0,128,65,62,79,74,593,525,468
2025-02-20 16:24:02.450,-753.0,670.0,-397.0,62.0,62.0,164.0,128,64,59,78,73,642,500,453
2025-02-20 16:24:02.470,-1222.0,2032.0,-1037.0,101.0,-20.0,0.0,125,63,61,77,72,593,476,418
2025-02-20 16:24:02.488,-1772.0,3111.0,-2010.0,220.0,-199.0,-350.0,122,59,57,75,63,570,455,423
2025-02-20 16:24:02.507,-978.0,2483.0,-2279.0,135.0,-572.0,-672.0,120,58,56,75,62,528,429,442
2025-02-20 16:24:02.528,1758.0,715.0,-1301.0,82.0,-903.0,-721.0,121,57,57,77,67,440,366,454
2025-02-20 16:24:02.545,4827.0,-3214.0,1226.0,196.0,-878.0,-420.0,125,58,56,81,71,352,319,487
2025-02-20 16:24:02.565,4505.0,-4585.0,4242.0,440.0,-68.0,-9.0,128,60,57,80,71,521,365,457
2025-02-20 16:24:02.582,2260.0,294.0,2318.0,270.0,267.0,9.0,127,60,54,75,61,479,474,447
2025-02-20 16:24:02.602,10.0,124.0,1513.0,-161.0,162.0,-2.0,127,60,55,77,61,393,487,452
2025-02-20 16:24:02.623,-10.0,-919.0,803.0,-256.0,122.0,36.0,124,59,56,77,64,381,521,449
2025-02-20 16:24:02.639,113.0,-1633.0,716.0,-100.0,133.0,13.0,124,61,57,78,69,302,533,420
2025-02-20 16:24:02.659,125.0,-1467.0,514.0,109.0,176.0,4.0,126,59,56,81,72,471,472,458
2025-02-20 16:24:02.679,-179.0,-691.0,343.0,161.0,158.0,-3.0,126,59,57,81,74,413,418,479
2025-02-20 16:24:02.697,-299.0,-310.0,404.0,107.0,59.0,-10.0,128,60,58,81,74,419,577,497
2025-02-20 16:24:02.717,-178.0,-537.0,728.0,88.0,5.0,-17.0,128,59,57,79,73,493,620,504
2025-02-20 16:24:02.737,-13.0,-554.0,849.0,110.0,28.0,-23.0,130,61,58,78,72,504,523,480
2025-02-20 16:24:02.753,12.0,-530.0,876.0,152.0,73.0,-38.0,130,61,56,78,71,438,399,481
2025-02-20 16:24:02.771,-79.0,-438.0,850.0,173.0,102.0,-55.0,131,62,56,78,69,469,414,488
2025-02-20 16:24:02.791,-136.0,-370.0,777.0,185.0,107.0,-70.0,132,61,58,79,70,429,400,450
2025-02-20 16:24:02.811,-167.0,-579.0,677.0,211.0,114.0,-67.0,132,61,57,77,71,456,404,442
2025-02-20 16:24:02.832,-107.0,-533.0,571.0,259.0,110.0,-74.0,132,61,58,78,71,475,448,452
2025-02-20 16:24:02.848,-133.0,-492.0,574.0,263.0,91.0,-70.0,133,61,57,78,71,478,467,456
2025-02-20 16:24:02.868,83.0,-539.0,668.0,221.0,47.0,-44.0,134,61,56,79,71,499,492,451
2025-02-20 16:24:02.888,241.0,-941.0,823.0,148.0,12.0,6.0,134,61,57,78,72,510,504,435
2025-02-20 16:24:02.906,686.0,-1602.0,1160.0,144.0,5.0,123.0,136,62,57,79,72,468,518,435
2025-02-20 16:24:02.925,880.0,-1738.0,1407.0,96.0,20.0,273.0,140,61,56,79,72,461,508,420
2025-02-20 16:24:02.942,1423.0,-2021.0,1429.0,34.0,88.0,537.0,141,60,55,78,70,423,479,420
2025-02-20 16:24:02.963,1842.0,-1152.0,1157.0,-31.0,109.0,690.0,142,60,56,78,69,331,462,417
2025-02-20 16:24:02.983,1499.0,327.0,1552.0,-159.0,61.0,715.0,143,59,55,77,69,330,436,441
2025-02-20 16:24:03.003,777.0,1176.0,1741.0,-165.0,72.0,586.0,146,59,57,76,71,385,420,470
2025-02-20 16:24:03.020,242.0,2137.0,1382.0,-67.0,120.0,319.0,148,62,57,77,74,467,448,480
2025-02-20 16:24:03.040,-230.0,2666.0,1040.0,-109.0,142.0,193.0,149,62,58,76,74,501,433,473
2025-02-20 16:24:03.057,-688.0,2750.0,959.0,-109.0,91.0,64.0,150,62,58,77,74,537,445,461
2025-02-20 16:24:03.068,-293.0,2407.0,1103.0,-42.0,66.0,-64.0,150,63,58,78,73,600,492,452
2025-02-20 16:24:03.098,-399.0,1535.0,1110.0,16.0,74.0,-135.0,150,64,58,78,74,588,520,465
2025-02-20 16:24:03.113,-265.0,1158.0,1037.0,32.0,94.0,-187.0,149,65,59,79,73,490,512,486
2025-02-20 16:24:03.134,-197.0,621.0,893.0,36.0,95.0,-240.0,151,64,58,78,72,439,493,490
2025-02-20 16:24:03.153,-258.0,477.0,724.0,47.0,68.0,-291.0,150,64,59,78,70,422,448,482
2025-02-20 16:24:03.171,-220.0,50.0,620.0,75.0,18.0,-329.0,150,63,58,77,70,459,392,477
2025-02-20 16:24:03.192,-186.0,-230.0,574.0,103.0,-28.0,-278.0,150,62,58,77,70,475,379,462
2025-02-20 16:24:03.212,-195.0,-185.0,779.0,115.0,-38.0,-300.0,149,62,58,78,69,437,399,444
2025-02-20 16:24:03.229,-86.0,-256.0,809.0,115.0,-40.0,-313.0,149,62,58,78,70,390,442,443
2025-02-20 16:24:03.249,9.0,-637.0,785.0,120.0,-53.0,-306.0,148,61,58,78,71,404,509,452
2025-02-20 16:24:03.264,105.0,-903.0,735.0,147.0,-70.0,-219.0,148,61,58,79,71,446,530,470
2025-02-20 16:24:03.286,171.0,-812.0,796.0,132.0,-72.0,-157.0,148,62,57,80,72,474,463,473
2025-02-20 16:24:03.306,241.0,-976.0,813.0,89.0,-96.0,-113.0,146,61,56,79,71,513,461,458
2025-02-20 16:24:03.323,444.0,-1357.0,795.0,102.0,-104.0,-55.0,148,61,57,80,72,520,479,453
2025-02-20 16:24:03.343,668.0,-1919.0,897.0,173.0,-109.0,85.0,147,61,56,81,72,490,466,448
2025-02-20 16:24:03.353,1392.0,-1985.0,1564.0,166.0,-64.0,282.0,147,61,55,78,72,448,436,470
2025-02-20 16:24:03.379,2183.0,-2345.0,1906.0,88.0,45.0,550.0,147,59,54,76,69,395,454,487
2025-02-20 16:24:03.401,2113.0,-338.0,1792.0,-63.0,73.0,706.0,147,60,53,73,66,327,479,462
2025-02-20 16:24:03.420,1539.0,361.0,1657.0,-236.0,73.0,659.0,147,62,53,73,65,343,471,454
2025-02-20 16:24:03.437,1143.0,1180.0,1660.0,-206.0,145.0,563.0,147,61,55,72,64,395,526,465
2025-02-20 16:24:03.458,29.0,2867.0,1068.0,-170.0,154.0,336.0,147,62,55,72,65,476,544,477
2025-02-20 16:24:03.475,-342.0,2930.0,1304.0,-202.0,98.0,191.0,148,63,59,71,66,522,535,484
2025-02-20 16:24:03.495,-455.0,2764.0,1663.0,-140.0,120.0,69.0,149,65,56,72,67,622,479,495
2025-02-20 16:24:03.512,-387.0,2287.0,1700.0,-68.0,184.0,-29.0,148,65,56,73,68,699,472,509
2025-02-20 16:24:03.529,-204.0,1357.0,1491.0,-16.0,271.0,-84.0,151,65,57,72,69,664,426,513
2025-02-20 16:24:03.553,-345.0,728.0,1048.0,-11.0,288.0,-104.0,148,65,57,73,69,572,374,505
2025-02-20 16:24:03.572,-327.0,-18.0,941.0,-38.0,255.0,-130.0,147,65,56,74,69,563,365,496
2025-02-20 16:24:03.590,-166.0,-744.0,999.0,-55.0,245.0,-99.0,146,65,57,73,67,502,378,476
2025-02-20 16:24:03.608,-206.0,-840.0,868.0,-63.0,268.0,-55.0,146,64,55,73,69,473,400,447
2025-02-20 16:24:03.630,-629.0,-544.0,406.0,-86.0,247.0,-52.0,145,65,58,73,69,495,421,439
2025-02-20 16:24:03.646,-624.0,-555.0,355.0,-90.0,223.0,-46.0,145,59,59,74,71,419,456,482
2025-02-20 16:24:03.667,-291.0,-742.0,486.0,-51.0,252.0,-11.0,145,64,60,76,74,431,471,510
2025-02-20 16:24:03.683,-505.0,-582.0,188.0,9.0,281.0,18.0,144,65,60,76,76,543,485,530
2025-02-20 16:24:03.701,-761.0,-36.0,-73.0,37.0,234.0,8.0,144,65,61,77,76,631,472,512
2025-02-20 16:24:03.723,-639.0,242.0,-84.0,49.0,197.0,-18.0,142,66,63,78,81,642,482,500
2025-02-20 16:24:03.741,-478.0,438.0,-241.0,115.0,184.0,-65.0,139,68,67,80,89,529,492,482
2025-02-20 16:24:03.761,-735.0,759.0,-433.0,206.0,81.0,-119.0,134,72,69,83,96,441,490,468
2025-02-20 16:24:03.780,-1096.0,1041.0,-643.0,238.0,-48.0,-184.0,131,76,71,91,102,394,458,441
2025-02-20 16:24:03.798,-680.0,1279.0,-1397.0,152.0,-177.0,-340.0,129,82,75,104,104,351,444,429
2025-02-20 16:24:03.819,-533.0,959.0,-1424.0,7.0,-410.0,-488.0,125,92,82,111,109,329,496,439
2025-02-20 16:24:03.839,-362.0,763.0,-852.0,17.0,-508.0,-635.0,124,102,90,115,117,290,500,444
2025-02-20 16:24:03.856,771.0,500.0,-595.0,-131.0,-666.0,-761.0,125,109,94,122,122,262,500,444
2025-02-20 16:24:03.876,2327.0,-797.0,-261.0,-213.0,-843.0,-594.0,123,114,96,125,125,321,471,454
2025-02-20 16:24:03.896,3190.0,-2151.0,467.0,-219.0,-813.0,-245.0,125,118,99,129,125,436,464,465
2025-02-20 16:24:03.913,3351.0,-3609.0,729.0,-170.0,-597.0,-11.0,127,120,101,130,128,461,511,459
2025-02-20 16:24:03.930,2694.0,-3512.0,867.0,-44.0,-171.0,101.0,130,121,102,130,129,538,538,459
2025-02-20 16:24:03.947,1781.0,-2341.0,898.0,114.0,101.0,93.0,131,120,102,131,128,539,534,444
2025-02-20 16:24:03.970,763.0,-1683.0,820.0,125.0,224.0,130.0,133,117,102,131,129,545,518,421
2025-02-20 16:24:03.991,335.0,-1254.0,499.0,110.0,227.0,214.0,132,115,102,132,129,571,483,425
2025-02-20 16:24:04.007,158.0,-929.0,489.0,61.0,220.0,252.0,133,113,101,132,128,496,422,456
2025-02-20 16:24:04.027,165.0,-753.0,541.0,6.0,190.0,213.0,132,115,102,133,128,546,437,475
2025-02-20 16:24:04.048,37.0,-790.0,201.0,-74.0,128.0,156.0,131,119,102,132,129,537,479,481
2025-02-20 16:24:04.064,-97.0,-816.0,218.0,-65.0,191.0,115.0,131,122,102,132,129,524,486,483
2025-02-20 16:24:04.082,-206.0,-767.0,389.0,-48.0,73.0,162.0,133,119,103,132,130,371,441,466
2025-02-20 16:24:04.098,-96.0,-535.0,467.0,-61.0,66.0,170.0,132,120,102,133,130,359,391,458
2025-02-20 16:24:04.117,-130.0,-508.0,565.0,-67.0,104.0,168.0,132,121,102,133,130,367,265,457
2025-02-20 16:24:04.141,-57.0,-475.0,556.0,-70.0,116.0,167.0,131,118,102,132,131,420,345,456
2025-02-20 16:24:04.162,-259.0,-392.0,415.0,-29.0,137.0,174.0,132,115,102,132,130,480,401,471
2025-02-20 16:24:04.179,-500.0,93.0,606.0,70.0,122.0,192.0,131,113,102,133,130,507,478,476
2025-02-20 16:24:04.198,-536.0,1143.0,104.0,156.0,123.0,103.0,132,112,102,131,132,546,563,473
2025-02-20 16:24:04.216,-1423.0,1537.0,-582.0,85.0,32.0,-113.0,132,112,103,133,133,527,576,469
2025-02-20 16:24:04.237,-1737.0,1998.0,-1426.0,122.0,-136.0,-480.0,133,117,102,132,134,530,565,465
2025-02-20 16:24:04.256,-616.0,1499.0,-1109.0,-76.0,-385.0,-714.0,132,120,105,133,136,538,532,463
2025-02-20 16:24:04.273,1697.0,289.0,-962.0,-370.0,-743.0,-682.0,127,122,106,133,136,485,505,464
2025-02-20 16:24:04.292,3226.0,-2146.0,-955.0,-496.0,-761.0,-374.0,126,124,106,134,137,402,462,475
2025-02-20 16:24:04.314,3114.0,-5333.0,-132.0,-117.0,-522.0,-21.0,126,124,107,135,135,382,421,466
2025-02-20 16:24:04.331,2784.0,-3930.0,-86.0,222.0,-70.0,81.0,128,125,107,134,137,548,425,462
2025-02-20 16:24:04.351,957.0,-1708.0,528.0,249.0,183.0,50.0,131,122,105,135,137,545,429,444
2025-02-20 16:24:04.371,-193.0,-671.0,125.0,181.0,210.0,93.0,131,118,106,135,136,504,448,443
2025-02-20 16:24:04.388,-262.0,-676.0,386.0,56.0,96.0,148.0,132,117,106,135,135,504,441,447
2025-02-20 16:24:04.408,-94.0,-817.0,543.0,17.0,98.0,135.0,131,117,105,134,136,386,441,444
2025-02-20 16:24:04.426,383.0,-1134.0,622.0,72.0,150.0,93.0,131,118,102,134,135,394,363,459
2025-02-20 16:24:04.445,587.0,-1309.0,518.0,216.0,232.0,52.0,131,123,104,134,136,406,478,464
2025-02-20 16:24:04.466,135.0,-1327.0,494.0,135.0,365.0,43.0,131,123,103,131,135,500,604,471
2025-02-20 16:24:04.482,-70.0,-785.0,490.0,196.0,298.0,81.0,131,122,103,133,134,489,522,470
2025-02-20 16:24:04.502,-231.0,-457.0,488.0,234.0,329.0,83.0,133,119,99,131,132,488,487,461
2025-02-20 16:24:04.523,-259.0,-578.0,614.0,244.0,346.0,76.0,133,115,95,127,124,489,498,466
2025-02-20 16:24:04.539,-252.0,-671.0,384.0,282.0,368.0,53.0,133,108,92,125,111,496,501,483
2025-02-20 16:24:04.560,-524.0,-487.0,-266.0,394.0,321.0,32.0,133,98,88,125,98,431,452,494
2025-02-20 16:24:04.579,-672.0,-365.0,-532.0,528.0,223.0,14.0,131,84,80,125,88,377,457,488
2025-02-20 16:24:04.597,-657.0,-155.0,-409.0,572.0,98.0,-1.0,131,75,71,118,79,427,472,477
2025-02-20 16:24:04.617,-558.0,-213.0,-194.0,540.0,-71.0,-14.0,132,66,63,102,69,533,487,466
2025-02-20 16:24:04.634,-22.0,-469.0,223.0,458.0,-203.0,-2.0,134,62,59,88,66,541,485,461
2025-02-20 16:24:04.654,824.0,-1549.0,1449.0,311.0,-219.0,119.0,135,59,58,85,64,500,484,463
2025-02-20 16:24:04.674,1509.0,-1760.0,2435.0,133.0,-73.0,253.0,140,58,57,82,61,389,468,430
2025-02-20 16:24:04.691,1916.0,-1847.0,2360.0,75.0,118.0,500.0,143,55,56,77,57,369,441,410
2025-02-20 16:24:04.712,1351.0,-461.0,1482.0,-44.0,128.0,651.0,144,55,52,73,56,467,463,431
2025-02-20 16:24:04.730,862.0,840.0,1464.0,-184.0,37.0,622.0,145,55,53,72,56,468,464,424
2025-02-20 16:24:04.749,612.0,1240.0,1744.0,-202.0,49.0,505.0,145,56,54,72,58,451,468,436
2025-02-20 16:24:04.767,65.0,2675.0,1508.0,-133.0,145.0,250.0,146,56,56,72,58,407,483,444
2025-02-20 16:24:04.788,-524.0,2896.0,1044.0,-123.0,165.0,114.0,147,58,57,73,60,476,490,454
2025-02-20 16:24:04.806,-653.0,2613.0,816.0,-37.0,136.0,-35.0,147,54,56,74,60,488,460,431
2025-02-20 16:24:04.826,-545.0,1924.0,771.0,34.0,93.0,-139.0,145,59,57,74,60,493,460,470
2025-02-20 16:24:04.843,-361.0,1359.0,789.0,61.0,84.0,-191.0,148,60,58,74,61,416,452,464
2025-02-20 16:24:04.863,-331.0,763.0,712.0,56.0,62.0,-241.0,148,60,57,74,61,390,430,470
2025-02-20 16:24:04.883,-299.0,248.0,689.0,54.0,20.0,-255.0,148,60,57,75,62,384,428,464
2025-02-20 16:24:04.900,-268.0,23.0,657.0,105.0,-16.0,-294.0,149,59,58,75,62,420,411,461
2025-02-20 16:24:04.920,-223.0,-190.0,669.0,173.0,-54.0,-294.0,149,59,57,76,62,433,374,457
2025-02-20 16:24:04.940,-252.0,-171.0,726.0,192.0,-82.0,-256.0,148,59,57,75,62,452,388,455
2025-02-20 16:24:04.958,-269.0,70.0,790.0,132.0,-101.0,-251.0,147,59,58,77,63,448,386,460
2025-02-20 16:24:04.978,-83.0,-168.0,899.0,79.0,-111.0,-246.0,147,59,57,77,65,426,414,469
2025-02-20 16:24:04.997,128.0,-720.0,988.0,56.0,-111.0,-189.0,147,60,58,77,65,512,502,461
2025-02-20 16:24:05.015,226.0,-972.0,1064.0,87.0,-88.0,-132.0,147,61,58,79,67,428,541,445
2025-02-20 16:24:05.034,301.0,-1252.0,1025.0,126.0,-66.0,-69.0,145,60,58,79,67,417,506,451
2025-02-20 16:24:05.052,479.0,-1467.0,1109.0,118.0,-60.0,71.0,148,60,57,79,67,504,496,503
2025-02-20 16:24:05.070,725.0,-1425.0,1315.0,17.0,-60.0,204.0,146,60,57,80,67,467,474,519
2025-02-20 16:24:05.093,1070.0,-1699.0,1419.0,-43.0,-21.0,362.0,145,60,58,79,66,456,479,503
2025-02-20 16:24:05.109,1440.0,-1688.0,1244.0,-81.0,16.0,563.0,145,60,56,79,62,521,483,489
2025-02-20 16:24:05.129,1099.0,579.0,1350.0,-223.0,-36.0,598.0,145,61,58,79,60,493,493,483
2025-02-20 16:24:05.149,580.0,1642.0,1593.0,-405.0,-88.0,525.0,145,62,59,78,58,360,476,462
2025-02-20 16:24:05.166,232.0,2138.0,2132.0,-428.0,-64.0,396.0,145,63,61,80,58,352,453,465
2025-02-20 16:24:05.186,154.0,1838.0,2898.0,-259.0,82.0,184.0,145,67,63,82,59,414,424,498
2025-02-20 16:24:05.206,425.0,1224.0,2872.0,-51.0,297.0,87.0,145,72,67,86,61,558,418,517
2025-02-20 16:24:05.223,-2.0,1190.0,2035.0,-16.0,413.0,2.0,145,74,70,89,61,621,460,521
2025-02-20 16:24:05.244,-182.0,842.0,1407.0,-151.0,408.0,-32.0,145,76,73,89,63,573,495,517
2025-02-20 16:24:05.264,-194.0,104.0,873.0,-240.0,373.0,-38.0,142,79,75,89,65,445,520,503
2025-02-20 16:24:05.281,-28.0,-653.0,463.0,-245.0,350.0,-16.0,142,82,78,89,69,423,468,491
2025-02-20 16:24:05.301,-118.0,-683.0,227.0,-160.0,346.0,10.0,142,89,82,89,71,398,421,484
2025-02-20 16:24:05.318,-429.0,-132.0,136.0,-131.0,324.0,2.0,142,93,85,90,72,461,394,468
2025-02-20 16:24:05.339,-681.0,-67.0,-93.0,-133.0,283.0,-39.0,141,98,86,89,75,500,425,449
2025-02-20 16:24:05.358,-584.0,-327.0,-131.0,-100.0,234.0,-28.0,143,102,88,85,76,484,520,497
2025-02-20 16:24:05.376,-514.0,-301.0,-189.0,47.0,223.0,0.0,144,105,90,84,76,566,610,478
2025-02-20 16:24:05.396,-510.0,362.0,-288.0,142.0,209.0,10.0,143,108,91,84,77,709,600,458
2025-02-20 16:24:05.415,-747.0,814.0,-462.0,180.0,167.0,-47.0,144,110,93,85,78,672,553,448
2025-02-20 16:24:05.433,-814.0,926.0,-977.0,208.0,105.0,-118.0,143,111,95,85,77,612,521,448
2025-02-20 16:24:05.453,-1084.0,1053.0,-1223.0,291.0,-29.0,-232.0,144,112,97,89,74,533,494,440
2025-02-20 16:24:05.473,-1187.0,1510.0,-1338.0,303.0,-214.0,-375.0,144,115,98,93,70,441,450,434
2025-02-20 16:24:05.488,-439.0,1341.0,-1039.0,215.0,-432.0,-573.0,141,116,100,97,71,387,406,426
2025-02-20 16:24:05.510,433.0,648.0,-759.0,83.0,-695.0,-657.0,135,120,99,99,69,408,399,443
2025-02-20 16:24:05.530,2508.0,-37.0,-485.0,5.0,-914.0,-597.0,131,124,100,100,72,228,373,456
2025-02-20 16:24:05.547,3523.0,-2226.0,1153.0,-121.0,-846.0,-348.0,133,127,102,101,74,248,348,466
2025-02-20 16:24:05.568,3893.0,-3451.0,1700.0,-30.0,-468.0,-82.0,134,128,102,103,74,183,399,456
2025-02-20 16:24:05.585,2972.0,-2987.0,1886.0,77.0,-27.0,87.0,136,130,103,103,72,290,455,464
2025-02-20 16:24:05.605,1515.0,-1850.0,1411.0,71.0,176.0,89.0,135,129,104,106,65,373,489,456
2025-02-20 16:24:05.625,608.0,-1274.0,933.0,17.0,203.0,87.0,136,128,103,101,64,387,465,443
2025-02-20 16:24:05.641,343.0,-1167.0,774.0,-50.0,171.0,123.0,136,129,104,102,68,401,451,435
2025-02-20 16:24:05.662,303.0,-1110.0,560.0,-107.0,140.0,164.0,138,130,101,100,71,537,421,445
2025-02-20 16:24:05.675,382.0,-1177.0,702.0,-100.0,146.0,197.0,136,130,105,98,76,538,373,455
2025-02-20 16:24:05.699,324.0,-1289.0,578.0,-52.0,178.0,216.0,136,130,105,97,78,502,359,451
2025-02-20 16:24:05.719,321.0,-1049.0,505.0,17.0,205.0,229.0,136,130,105,96,78,480,412,473
2025-02-20 16:24:05.736,109.0,-689.0,421.0,42.0,211.0,240.0,137,130,106,94,77,495,441,482
2025-02-20 16:24:05.756,-3.0,-331.0,476.0,-23.0,204.0,246.0,137,130,105,94,74,465,449,475
2025-02-20 16:24:05.776,-132.0,-262.0,291.0,-72.0,184.0,249.0,138,130,106,93,72,457,469,462
2025-02-20 16:24:05.793,-217.0,-405.0,317.0,-45.0,178.0,240.0,138,129,106,94,70,522,494,451
2025-02-20 16:24:05.814,-307.0,-410.0,266.0,23.0,192.0,221.0,138,129,106,93,72,530,506,452
2025-02-20 16:24:05.832,-340.0,-205.0,215.0,119.0,211.0,196.0,139,128,105,90,73,517,506,448
2025-02-20 16:24:05.850,-606.0,156.0,129.0,145.0,206.0,165.0,139,129,108,88,74,566,540,448
2025-02-20 16:24:05.871,-816.0,668.0,-110.0,120.0,166.0,136.0,140,128,106,85,78,512,535,445
2025-02-20 16:24:05.891,-913.0,1141.0,-790.0,101.0,90.0,30.0,140,128,106,82,77,493,507,435
2025-02-20 16:24:05.908,-1485.0,1584.0,-1372.0,109.0,-112.0,-138.0,140,128,106,83,75,479,468,431
2025-02-20 16:24:05.928,-1709.0,1759.0,-1747.0,137.0,-370.0,-367.0,140,128,106,85,74,432,439,437
2025-02-20 16:24:05.948,-431.0,1585.0,-1145.0,57.0,-699.0,-588.0,139,129,108,90,78,451,398,449
2025-02-20 16:24:05.965,1745.0,555.0,-811.0,-110.0,-928.0,-587.0,139,129,107,95,85,511,359,480
2025-02-20 16:24:05.986,4295.0,-1954.0,335.0,-82.0,-872.0,-482.0,141,129,106,100,94,513,350,499
2025-02-20 16:24:06.006,3670.0,-3398.0,1978.0,236.0,-403.0,-231.0,142,131,107,103,98,544,412,474
2025-02-20 16:24:06.022,2678.0,-2183.0,2520.0,263.0,-11.0,-12.0,142,130,107,104,92,566,489,449
2025-02-20 16:24:06.043,1003.0,-656.0,2315.0,76.0,159.0,9.0,143,130,107,104,80,531,508,443
2025-02-20 16:24:06.059,375.0,-544.0,1396.0,-47.0,163.0,-15.0,143,129,107,102,79,511,528,444
2025-02-20 16:24:06.079,259.0,-939.0,985.0,-57.0,167.0,-16.0,143,128,107,101,84,325,549,389
2025-02-20 16:24:06.099,312.0,-967.0,901.0,11.0,166.0,-23.0,143,128,106,100,86,378,487,399
2025-02-20 16:24:06.116,398.0,-781.0,856.0,68.0,186.0,-46.0,144,127,103,99,86,412,487,453
2025-02-20 16:24:06.136,323.0,-684.0,829.0,115.0,188.0,-58.0,144,121,102,103,86,419,586,508
2025-02-20 16:24:06.153,230.0,-581.0,992.0,133.0,207.0,-59.0,144,111,97,102,84,438,639,523
2025-02-20 16:24:06.175,191.0,-585.0,942.0,159.0,238.0,-55.0,144,99,86,102,79,419,501,509
2025-02-20 16:24:06.194,35.0,-596.0,766.0,210.0,260.0,-54.0,144,89,80,101,75,391,394,491
2025-02-20 16:24:06.211,180.0,-370.0,712.0,241.0,255.0,-51.0,144,80,76,102,72,489,426,463
2025-02-20 16:24:06.231,30.0,-367.0,679.0,249.0,226.0,-72.0,144,74,71,101,72,425,431,438
2025-02-20 16:24:06.251,64.0,-553.0,702.0,217.0,184.0,-54.0,145,71,68,99,70,353,397,434
2025-02-20 16:24:06.268,237.0,-825.0,684.0,231.0,151.0,-38.0,145,70,63,97,70,410,397,452
2025-02-20 16:24:06.288,199.0,-948.0,383.0,228.0,116.0,48.0,144,66,60,93,69,480,432,480
2025-02-20 16:24:06.305,589.0,-1116.0,1059.0,162.0,47.0,170.0,145,64,57,91,68,512,472,484
2025-02-20 16:24:06.324,916.0,-1099.0,1392.0,35.0,62.0,335.0,145,63,57,90,64,438,489,457
2025-02-20 16:24:06.346,1541.0,-2189.0,1303.0,-8.0,119.0,621.0,145,60,53,86,63,363,470,443
2025-02-20 16:24:06.366,2243.0,-807.0,998.0,-79.0,87.0,786.0,144,61,54,78,59,367,437,427
2025-02-20 16:24:06.383,1057.0,1026.0,1393.0,-192.0,12.0,692.0,148,61,54,78,59,375,450,426
2025-02-20 16:24:06.403,69.0,2562.0,1634.0,-201.0,39.0,437.0,147,63,56,78,61,417,442,435
2025-02-20 16:24:06.422,13.0,2530.0,1203.0,-122.0,96.0,182.0,150,65,56,78,62,500,422,448
2025-02-20 16:24:06.441,-542.0,2678.0,1006.0,-54.0,105.0,82.0,151,65,57,79,62,518,392,446
2025-02-20 16:24:06.458,-576.0,2913.0,896.0,5.0,84.0,-57.0,150,66,57,77,61,506,403,445
2025-02-20 16:24:06.476,-371.0,2198.0,916.0,-4.0,89.0,-184.0,150,66,57,77,62,535,408,469
2025-02-20 16:24:06.497,-262.0,1388.0,872.0,12.0,97.0,-265.0,151,65,56,77,62,548,422,500
2025-02-20 16:24:06.517,-110.0,353.0,676.0,38.0,90.0,-308.0,150,65,57,76,62,526,459,506
2025-02-20 16:24:06.534,-99.0,-120.0,493.0,83.0,10.0,-294.0,151,64,55,76,61,489,468,511
2025-02-20 16:24:06.555,-134.0,-80.0,503.0,100.0,-65.0,-293.0,150,63,55,75,59,487,471,501
2025-02-20 16:24:06.574,2.0,-134.0,728.0,137.0,-85.0,-299.0,150,63,56,76,63,494,483,487
2025-02-20 16:24:06.592,-15.0,-206.0,966.0,153.0,-68.0,-302.0,150,63,56,77,63,475,485,473
2025-02-20 16:24:06.612,-101.0,-209.0,950.0,122.0,-77.0,-272.0,150,63,55,79,64,438,479,467
2025-02-20 16:24:06.627,53.0,-350.0,918.0,85.0,-92.0,-225.0,150,64,56,79,64,403,481,460
2025-02-20 16:24:06.649,111.0,-521.0,942.0,94.0,-86.0,-180.0,150,64,56,80,65,429,507,454
2025-02-20 16:24:06.669,69.0,-627.0,924.0,92.0,-74.0,-134.0,149,65,56,80,65,467,538,456
2025-02-20 16:24:06.686,105.0,-676.0,971.0,71.0,-69.0,-69.0,149,64,56,80,65,488,529,454
2025-02-20 16:24:06.707,229.0,-666.0,1020.0,62.0,-75.0,-20.0,149,65,56,82,65,503,484,451
2025-02-20 16:24:06.726,401.0,-1026.0,1158.0,76.0,-85.0,62.0,150,65,56,80,66,492,459,463
2025-02-20 16:24:06.743,847.0,-1392.0,1516.0,45.0,-51.0,245.0,150,66,56,82,66,453,449,477
2025-02-20 16:24:06.764,1273.0,-1805.0,1777.0,-49.0,43.0,477.0,149,65,57,81,66,405,484,485
2025-02-20 16:24:06.784,1634.0,-586.0,1366.0,-157.0,66.0,667.0,150,64,56,80,64,415,479,485
2025-02-20 16:24:06.801,1083.0,656.0,1749.0,-386.0,-8.0,630.0,149,66,56,76,63,402,455,483
2025-02-20 16:24:06.821,730.0,1568.0,1899.0,-457.0,14.0,541.0,149,67,57,75,65,417,446,479
2025-02-20 16:24:06.841,-95.0,2356.0,1686.0,-351.0,98.0,279.0,150,67,57,76,66,436,430,484
2025-02-20 16:24:06.857,-449.0,2184.0,1509.0,-94.0,142.0,104.0,149,67,57,76,68,452,444,470
2025-02-20 16:24:06.878,-657.0,2438.0,1413.0,5.0,148.0,-70.0,149,68,58,76,67,475,471,468
2025-02-20 16:24:06.894,-421.0,1440.0,1405.0,-46.0,163.0,-160.0,148,69,59,77,68,497,493,484
2025-02-20 16:24:06.915,107.0,-455.0,1560.0,-73.0,218.0,-166.0,147,67,59,77,67,502,490,502
2025-02-20 16:24:06.935,427.0,-1485.0,1499.0,-71.0,306.0,-104.0,145,67,58,78,67,502,450,493
2025-02-20 16:24:06.953,243.0,-1549.0,1081.0,-82.0,314.0,-20.0,144,64,58,78,67,459,423,468
2025-02-20 16:24:06.973,-143.0,-1363.0,815.0,-132.0,267.0,28.0,145,67,58,81,66,446,457,446
2025-02-20 16:24:06.993,-253.0,-981.0,531.0,-134.0,276.0,45.0,146,68,62,82,71,453,457,436
2025-02-20 16:24:07.010,-282.0,-1034.0,530.0,-84.0,301.0,62.0,145,70,64,83,73,534,478,448
2025-02-20 16:24:07.027,-526.0,-799.0,392.0,-16.0,307.0,92.0,145,70,64,83,75,589,517,471
2025-02-20 16:24:07.050,-706.0,-338.0,318.0,-13.0,298.0,96.0,143,71,64,82,76,620,546,515
2025-02-20 16:24:07.067,-432.0,57.0,178.0,-11.0,334.0,103.0,143,71,66,82,80,613,527,527
2025-02-20 16:24:07.088,-964.0,561.0,-120.0,-17.0,293.0,81.0,139,72,66,81,81,636,498,496
2025-02-20 16:24:07.104,-932.0,858.0,-188.0,-45.0,208.0,23.0,141,71,65,78,83,528,479,485
2025-02-20 16:24:07.124,-600.0,1024.0,-466.0,-13.0,166.0,-28.0,141,69,64,77,83,449,457,478
2025-02-20 16:24:07.144,-589.0,1146.0,-783.0,66.0,95.0,-104.0,139,67,62,75,83,459,419,474
2025-02-20 16:24:07.161,-852.0,1371.0,-881.0,80.0,1.0,-224.0,137,63,57,74,74,426,389,463
2025-02-20 16:24:07.182,-950.0,1720.0,-1710.0,74.0,-117.0,-385.0,133,60,53,71,63,375,413,440
2025-02-20 16:24:07.195,-1442.0,1813.0,-2994.0,245.0,-460.0,-548.0,124,56,52,70,56,387,469,440
2025-02-20 16:24:07.219,598.0,642.0,-2565.0,356.0,-826.0,-603.0,113,55,51,70,57,419,500,438
2025-02-20 16:24:07.239,3607.0,-1083.0,-1449.0,511.0,-1046.0,-409.0,108,54,50,69,59,427,491,447
2025-02-20 16:24:07.255,5074.0,-1201.0,913.0,738.0,-967.0,-194.0,115,57,51,69,63,418,401,468
2025-02-20 16:24:07.276,3455.0,-198.0,4770.0,528.0,-446.0,-5.0,122,57,55,70,64,370,411,457
2025-02-20 16:24:07.293,2294.0,363.0,5378.0,74.0,57.0,-18.0,126,59,56,72,63,324,455,465
2025-02-20 16:24:07.316,1460.0,-273.0,3377.0,-187.0,285.0,31.0,121,59,55,72,65,337,550,440
2025-02-20 16:24:07.333,576.0,-529.0,1963.0,-237.0,340.0,48.0,121,60,55,74,64,308,549,403
2025-02-20 16:24:07.353,8.0,-743.0,1088.0,-204.0,339.0,41.0,121,60,56,73,64,322,495,392
2025-02-20 16:24:07.370,49.0,-730.0,882.0,-159.0,309.0,69.0,123,60,55,74,65,452,455,445
2025-02-20 16:24:07.391,-48.0,-497.0,798.0,-183.0,291.0,99.0,123,60,56,74,65,572,414,495
2025-02-20 16:24:07.411,-42.0,-424.0,710.0,-220.0,281.0,116.0,124,59,56,74,66,597,416,507
2025-02-20 16:24:07.427,-271.0,-580.0,468.0,-195.0,246.0,121.0,126,61,56,74,66,453,429,485
2025-02-20 16:24:07.444,-271.0,-596.0,509.0,-136.0,226.0,137.0,127,61,56,73,65,387,412,489
2025-02-20 16:24:07.468,-130.0,-506.0,527.0,-100.0,242.0,146.0,128,61,56,73,65,330,393,508
2025-02-20 16:24:07.485,-259.0,-343.0,401.0,-79.0,259.0,153.0,127,61,55,74,66,378,373,511
2025-02-20 16:24:07.505,-428.0,-241.0,221.0,-67.0,246.0,135.0,127,61,56,74,66,407,366,499
2025-02-20 16:24:07.523,-757.0,-215.0,-84.0,-51.0,190.0,123.0,128,61,56,72,66,430,462,491
2025-02-20 16:24:07.542,-621.0,-46.0,-163.0,-36.0,123.0,118.0,127,62,56,73,65,406,500,484
2025-02-20 16:24:07.561,-611.0,181.0,-159.0,-22.0,80.0,119.0,127,61,56,72,64,406,564,498
2025-02-20 16:24:07.578,-657.0,791.0,-676.0,36.0,48.0,59.0,124,59,56,70,64,468,575,486
2025-02-20 16:24:07.599,-1434.0,1478.0,-1642.0,181.0,-63.0,-136.0,119,60,55,71,62,530,518,467
2025-02-20 16:24:07.619,-1949.0,1861.0,-2581.0,237.0,-365.0,-336.0,114,58,53,70,58,563,488,455
2025-02-20 16:24:07.637,-381.0,1562.0,-2535.0,218.0,-837.0,-454.0,110,58,55,70,59,601,474,452
2025-02-20 16:24:07.656,2324.0,282.0,-1029.0,149.0,-1049.0,-383.0,113,58,55,73,62,612,439,454
2025-02-20 16:24:07.677,4010.0,-1511.0,888.0,233.0,-988.0,-228.0,121,58,55,74,66,608,384,466
2025-02-20 16:24:07.694,3560.0,-1588.0,2206.0,341.0,-647.0,-129.0,130,60,53,73,69,641,364,456
2025-02-20 16:24:07.714,2601.0,-1017.0,3317.0,299.0,-323.0,-80.0,134,60,54,76,71,705,461,418
2025-02-20 16:24:07.733,1909.0,-826.0,3316.0,143.0,36.0,-27.0,137,61,56,78,72,670,505,421
2025-02-20 16:24:07.751,1333.0,-595.0,2358.0,9.0,238.0,0.0,137,61,55,79,73,560,539,421
2025-02-20 16:24:07.771,842.0,-576.0,1520.0,-13.0,308.0,9.0,138,61,54,78,75,311,561,359
2025-02-20 16:24:07.788,574.0,-646.0,1118.0,15.0,305.0,27.0,137,61,54,79,77,279,542,357
2025-02-20 16:24:07.809,303.0,-627.0,924.0,27.0,289.0,73.0,138,62,56,80,79,347,448,416
2025-02-20 16:24:07.827,285.0,-569.0,865.0,-10.0,284.0,139.0,138,64,57,85,81,464,481,498
2025-02-20 16:24:07.846,198.0,-554.0,670.0,-47.0,259.0,204.0,139,64,59,86,80,572,557,532
2025-02-20 16:24:07.863,369.0,-575.0,833.0,-47.0,259.0,280.0,140,65,60,86,81,573,554,528
2025-02-20 16:24:07.885,316.0,-466.0,654.0,-18.0,256.0,328.0,138,65,62,90,83,437,395,521
2025-02-20 16:24:07.898,44.0,-15.0,591.0,-14.0,222.0,332.0,139,67,63,92,86,386,370,514
2025-02-20 16:24:07.922,-280.0,205.0,619.0,-18.0,173.0,289.0,139,68,64,94,93,453,440,496
2025-02-20 16:24:07.943,-419.0,299.0,494.0,13.0,114.0,215.0,138,67,64,94,98,465,472,472
2025-02-20 16:24:07.959,-542.0,817.0,507.0,22.0,68.0,155.0,138,68,66,93,104,470,422,464
2025-02-20 16:24:07.979,-771.0,1441.0,285.0,43.0,26.0,70.0,138,71,66,95,110,459,416,460
2025-02-20 16:24:08.000,-1489.0,2651.0,-111.0,130.0,-8.0,-152.0,138,73,69,95,121,462,458,467
2025-02-20 16:24:08.017,-1554.0,3000.0,-292.0,316.0,-52.0,-377.0,138,73,68,97,126,455,484,461
2025-02-20 16:24:08.037,-1021.0,2462.0,-226.0,375.0,-195.0,-570.0,138,71,69,99,128,432,459,461
2025-02-20 16:24:08.055,284.0,1395.0,127.0,399.0,-429.0,-603.0,138,69,68,104,129,349,424,468
2025-02-20 16:24:08.075,1822.0,8.0,1369.0,404.0,-538.0,-499.0,138,68,67,109,129,339,426,489
2025-02-20 16:24:08.095,2734.0,-1059.0,2268.0,337.0,-437.0,-300.0,141,71,70,114,128,437,451,483
2025-02-20 16:24:08.110,2449.0,-1379.0,3210.0,144.0,-209.0,-70.0,143,73,71,116,126,548,450,452
2025-02-20 16:24:08.132,1857.0,-957.0,2852.0,-124.0,37.0,70.0,144,73,72,117,127,470,431,464
2025-02-20 16:24:08.152,1256.0,-902.0,1623.0,-179.0,147.0,141.0,144,73,70,116,128,467,411,475
2025-02-20 16:24:08.166,549.0,-561.0,1096.0,-69.0,146.0,190.0,144,72,71,115,127,450,440,471
2025-02-20 16:24:08.189,123.0,-167.0,1087.0,4.0,132.0,211.0,142,73,70,116,127,375,488,459
2025-02-20 16:24:08.209,80.0,41.0,1277.0,-12.0,156.0,268.0,143,73,71,115,127,384,493,430
2025-02-20 16:24:08.226,150.0,125.0,1122.0,-77.0,199.0,332.0,143,73,72,116,127,441,493,425
2025-02-20 16:24:08.247,55.0,362.0,829.0,-148.0,169.0,346.0,141,73,71,114,127,477,513,427
2025-02-20 16:24:08.263,-3.0,347.0,1020.0,-151.0,155.0,328.0,142,73,71,110,128,470,529,438
2025-02-20 16:24:08.283,-204.0,485.0,851.0,-118.0,130.0,278.0,141,73,71,109,128,507,516,464
2025-02-20 16:24:08.304,-283.0,599.0,757.0,-112.0,106.0,229.0,141,73,71,109,127,464,446,471
2025-02-20 16:24:08.321,-401.0,767.0,660.0,-89.0,56.0,164.0,142,73,71,107,127,433,436,470
2025-02-20 16:24:08.341,-449.0,710.0,670.0,-36.0,54.0,98.0,142,73,71,106,127,458,468,462
2025-02-20 16:24:08.361,-501.0,731.0,580.0,16.0,53.0,55.0,142,74,71,107,128,476,470,477
2025-02-20 16:24:08.378,-542.0,1007.0,591.0,39.0,23.0,25.0,142,73,71,106,128,509,438,487
2025-02-20 16:24:08.398,-724.0,1697.0,620.0,22.0,-10.0,-80.0,142,74,71,106,129,518,402,477
2025-02-20 16:24:08.418,-770.0,1955.0,586.0,75.0,-14.0,-215.0,142,73,71,103,131,512,420,466
2025-02-20 16:24:08.432,-987.0,2514.0,248.0,152.0,-48.0,-388.0,140,72,71,103,132,525,437,462
2025-02-20 16:24:08.456,-941.0,2349.0,-191.0,145.0,-191.0,-540.0,138,69,66,102,132,513,466,467
2025-02-20 16:24:08.476,240.0,1034.0,-147.0,180.0,-361.0,-596.0,135,68,65,104,131,477,503,470
2025-02-20 16:24:08.493,1793.0,-166.0,454.0,234.0,-510.0,-539.0,137,67,66,108,131,507,516,484
2025-02-20 16:24:08.511,2421.0,-1305.0,1321.0,307.0,-480.0,-333.0,139,68,67,111,129,531,509,509
2025-02-20 16:24:08.529,2470.0,-1361.0,2173.0,208.0,-362.0,-53.0,141,70,69,113,128,549,450,509
2025-02-20 16:24:08.550,2152.0,-1023.0,2713.0,-24.0,-187.0,95.0,143,70,70,113,128,470,433,500
2025-02-20 16:24:08.570,1746.0,-645.0,2154.0,-102.0,1.0,159.0,142,71,69,113,128,424,413,481
2025-02-20 16:24:08.586,965.0,-51.0,1466.0,-47.0,98.0,130.0,142,70,69,113,128,433,428,477
2025-02-20 16:24:08.607,544.0,89.0,1318.0,5.0,101.0,103.0,143,70,68,113,126,430,440,459
2025-02-20 16:24:08.627,411.0,233.0,1516.0,-25.0,146.0,131.0,142,71,68,113,127,497,469,459
2025-02-20 16:24:08.644,394.0,243.0,1573.0,-133.0,199.0,184.0,143,71,68,113,129,465,492,454
2025-02-20 16:24:08.663,304.0,166.0,1427.0,-243.0,266.0,268.0,142,72,69,113,129,441,520,461
2025-02-20 16:24:08.682,275.0,292.0,1278.0,-338.0,298.0,313.0,142,72,69,114,128,487,545,479
2025-02-20 16:24:08.701,309.0,336.0,1221.0,-406.0,324.0,332.0,143,72,66,113,129,508,566,501
2025-02-20 16:24:08.721,423.0,171.0,1198.0,-403.0,374.0,355.0,143,72,68,113,129,488,522,500
2025-02-20 16:24:08.739,432.0,172.0,956.0,-316.0,421.0,350.0,142,73,72,112,126,492,430,498
2025-02-20 16:24:08.759,50.0,303.0,785.0,-231.0,442.0,309.0,142,77,74,112,124,490,391,499
2025-02-20 16:24:08.778,-279.0,239.0,393.0,-81.0,435.0,221.0,141,80,77,109,124,446,444,492
2025-02-20 16:24:08.796,-492.0,277.0,173.0,34.0,402.0,121.0,139,83,82,109,124,439,474,474
2025-02-20 16:24:08.813,-610.0,454.0,-18.0,88.0,357.0,46.0,136,86,84,111,122,429,477,453
2025-02-20 16:24:08.833,-921.0,730.0,-324.0,44.0,233.0,-22.0,132,88,85,113,122,438,484,451
2025-02-20 16:24:08.853,-876.0,943.0,-719.0,45.0,88.0,-72.0,125,90,87,116,124,467,531,450
2025-02-20 16:24:08.873,-1131.0,1282.0,-1504.0,40.0,-37.0,-171.0,119,91,87,116,126,458,548,431
2025-02-20 16:24:08.893,-1467.0,1567.0,-1674.0,96.0,-170.0,-345.0,119,96,90,118,130,462,541,441
2025-02-20 16:24:08.911,-1287.0,1510.0,-1557.0,87.0,-372.0,-523.0,122,98,92,120,132,467,502,460
2025-02-20 16:24:08.929,3.0,1445.0,-1167.0,-1.0,-584.0,-744.0,123,104,92,125,133,502,419,468
2025-02-20 16:24:08.950,1628.0,735.0,-659.0,-204.0,-852.0,-797.0,124,109,95,127,133,497,309,468
2025-02-20 16:24:08.967,3185.0,-1144.0,2.0,-353.0,-1024.0,-547.0,120,114,98,130,133,456,255,489
2025-02-20 16:24:08.988,3512.0,-2725.0,573.0,-273.0,-803.0,-183.0,123,119,100,131,134,478,347,479
2025-02-20 16:24:09.004,3538.0,-4220.0,497.0,-166.0,-327.0,124.0,123,121,103,131,134,530,472,468
2025-02-20 16:24:09.024,2596.0,-3217.0,598.0,115.0,37.0,142.0,126,122,103,132,134,441,540,441
2025-02-20 16:24:09.045,1172.0,-2160.0,536.0,241.0,254.0,108.0,127,117,103,133,134,384,550,435
2025-02-20 16:24:09.062,281.0,-1204.0,430.0,132.0,278.0,170.0,128,114,103,132,134,360,557,450
2025-02-20 16:24:09.082,145.0,-589.0,447.0,2.0,245.0,204.0,128,112,102,133,134,438,525,465
2025-02-20 16:24:09.100,-176.0,-825.0,513.0,-71.0,163.0,203.0,128,112,103,133,134,475,445,473
2025-02-20 16:24:09.119,36.0,-993.0,468.0,-50.0,122.0,174.0,128,116,103,133,135,399,402,470
2025-02-20 16:24:09.137,196.0,-954.0,763.0,-15.0,196.0,145.0,127,120,102,133,135,397,439,474
2025-02-20 16:24:09.160,140.0,-1019.0,344.0,-33.0,276.0,168.0,127,120,104,133,136,456,559,457
2025-02-20 16:24:09.177,42.0,-707.0,392.0,-42.0,161.0,232.0,127,120,104,135,134,386,507,464
2025-02-20 16:24:09.196,-117.0,-409.0,591.0,-104.0,211.0,235.0,127,119,103,133,136,345,447,465
2025-02-20 16:24:09.214,-316.0,-443.0,324.0,-104.0,197.0,248.0,128,118,103,133,136,437,450,468
2025-02-20 16:24:09.231,-321.0,-314.0,281.0,-55.0,194.0,256.0,127,116,103,133,135,488,395,471
2025-02-20 16:24:09.254,-497.0,-48.0,129.0,-3.0,149.0,251.0,129,113,102,133,135,499,388,468
2025-02-20 16:24:09.270,-594.0,289.0,170.0,108.0,138.0,206.0,127,110,102,132,135,566,421,453
2025-02-20 16:24:09.291,-480.0,426.0,151.0,204.0,157.0,142.0,128,109,102,132,134,562,437,454
2025-02-20 16:24:09.304,-661.0,992.0,-248.0,364.0,108.0,40.0,128,110,104,131,136,512,443,460
2025-02-20 16:24:09.328,-1223.0,1600.0,-850.0,238.0,-3.0,-179.0,127,111,102,133,136,645,462,476
2025-02-20 16:24:09.347,-1462.0,1672.0,-1433.0,91.0,-216.0,-440.0,127,113,103,133,137,574,490,484
2025-02-20 16:24:09.369,-845.0,1026.0,-1063.0,10.0,-437.0,-706.0,128,115,103,133,137,461,496,472
2025-02-20 16:24:09.384,645.0,834.0,-688.0,-106.0,-734.0,-758.0,127,118,104,132,138,435,454,469
2025-02-20 16:24:09.406,3061.0,-348.0,-325.0,-275.0,-887.0,-616.0,126,121,105,133,137,429,414,477
2025-02-20 16:24:09.425,3271.0,-2925.0,-64.0,-301.0,-626.0,-267.0,123,123,105,135,137,467,438,489
2025-02-20 16:24:09.443,3102.0,-4444.0,383.0,4.0,-336.0,51.0,123,124,105,133,137,559,509,489
2025-02-20 16:24:09.463,2716.0,-2846.0,830.0,172.0,2.0,50.0,125,121,106,132,135,489,542,450
2025-02-20 16:24:09.479,811.0,-1898.0,301.0,236.0,291.0,44.0,126,119,105,134,137,482,570,444
2025-02-20 16:24:09.500,261.0,-1183.0,226.0,180.0,286.0,111.0,128,115,104,134,136,469,564,462
2025-02-20 16:24:09.520,-2.0,-1124.0,223.0,111.0,224.0,134.0,128,114,104,135,135,459,507,461
2025-02-20 16:24:09.537,80.0,-1048.0,270.0,105.0,271.0,112.0,128,115,104,134,135,476,438,455
2025-02-20 16:24:09.557,144.0,-1332.0,423.0,115.0,133.0,121.0,127,116,101,134,135,382,382,472
2025-02-20 16:24:09.577,335.0,-1330.0,484.0,174.0,215.0,132.0,127,117,99,133,135,427,453,467
2025-02-20 16:24:09.594,189.0,-1111.0,400.0,126.0,279.0,197.0,127,111,91,129,134,411,524,465
2025-02-20 16:24:09.615,140.0,-1085.0,260.0,176.0,174.0,294.0,127,102,86,125,129,419,554,461
2025-02-20 16:24:09.631,184.0,-1070.0,190.0,171.0,158.0,379.0,128,92,79,122,121,366,476,449
2025-02-20 16:24:09.652,101.0,-699.0,142.0,200.0,80.0,433.0,129,79,76,121,116,523,492,436
2025-02-20 16:24:09.672,-93.0,-70.0,-215.0,209.0,-12.0,378.0,130,72,72,119,114,557,541,448
2025-02-20 16:24:09.689,-382.0,301.0,-460.0,200.0,-139.0,276.0,130,71,72,123,116,410,414,488
2025-02-20 16:24:09.708,-180.0,491.0,125.0,234.0,-196.0,186.0,130,71,70,121,121,487,277,474
2025-02-20 16:24:09.729,-458.0,1092.0,544.0,177.0,-237.0,81.0,125,68,68,113,125,535,309,465
2025-02-20 16:24:09.746,-604.0,1464.0,766.0,215.0,-225.0,-93.0,132,69,69,112,132,585,388,461
2025-02-20 16:24:09.765,-848.0,1939.0,964.0,319.0,-194.0,-221.0,131,68,70,113,132,588,484,447
2025-02-20 16:24:09.786,-1008.0,2583.0,962.0,319.0,-166.0,-347.0,133,68,69,118,134,551,518,443
2025-02-20 16:24:09.803,-120.0,1802.0,1261.0,307.0,-102.0,-462.0,135,69,71,120,134,518,510,453
2025-02-20 16:24:09.822,181.0,574.0,1398.0,301.0,-47.0,-541.0,135,70,71,122,134,454,490,466
2025-02-20 16:24:09.844,1120.0,-41.0,1465.0,269.0,-68.0,-512.0,137,69,72,124,134,388,448,465
2025-02-20 16:24:09.861,1392.0,-1145.0,1449.0,226.0,-100.0,-302.0,132,68,72,124,133,380,446,450
2025-02-20 16:24:09.881,1289.0,-1261.0,1676.0,78.0,-155.0,-102.0,136,68,71,125,133,419,459,447
2025-02-20 16:24:09.898,1179.0,-1182.0,1793.0,-61.0,-140.0,60.0,138,69,72,125,133,463,488,432
2025-02-20 16:24:09.918,936.0,-851.0,1675.0,-129.0,-70.0,180.0,138,70,73,126,133,441,431,427
2025-02-20 16:24:09.938,550.0,-385.0,1509.0,-150.0,-27.0,229.0,138,70,73,126,134,365,423,418
2025-02-20 16:24:09.955,363.0,-395.0,1439.0,-93.0,27.0,258.0,138,70,74,125,134,393,456,418
2025-02-20 16:24:09.975,292.0,-124.0,1390.0,-45.0,102.0,284.0,139,71,75,126,134,382,520,429
2025-02-20 16:24:09.995,253.0,156.0,1342.0,-43.0,163.0,303.0,138,71,76,125,133,389,551,433
2025-02-20 16:24:10.012,143.0,396.0,1115.0,-55.0,205.0,287.0,139,72,77,124,134,421,543,439
2025-02-20 16:24:10.032,5.0,461.0,950.0,-47.0,205.0,249.0,138,72,75,122,135,420,518,450
2025-02-20 16:24:10.049,-224.0,587.0,724.0,-56.0,153.0,212.0,138,72,75,120,135,451,508,466
2025-02-20 16:24:10.069,-224.0,611.0,770.0,-56.0,117.0,183.0,138,72,76,119,134,489,479,496
2025-02-20 16:24:10.089,-250.0,552.0,881.0,-29.0,123.0,146.0,139,72,76,119,135,530,452,525
2025-02-20 16:24:10.106,-351.0,725.0,760.0,1.0,134.0,114.0,138,73,75,118,135,543,421,528
2025-02-20 16:24:10.126,-543.0,1042.0,643.0,10.0,115.0,76.0,138,73,74,117,135,517,387,516
2025-02-20 16:24:10.146,-784.0,1558.0,553.0,12.0,78.0,10.0,139,73,74,115,135,466,377,496
2025-02-20 16:24:10.163,-835.0,2357.0,318.0,36.0,83.0,-145.0,138,72,73,113,136,429,402,485
2025-02-20 16:24:10.184,-1090.0,2595.0,44.0,97.0,69.0,-387.0,139,73,74,113,136,408,414,483
2025-02-20 16:24:10.204,-1155.0,2153.0,-264.0,151.0,-94.0,-512.0,137,71,71,114,135,415,467,486
2025-02-20 16:24:10.221,-217.0,1159.0,-184.0,150.0,-314.0,-578.0,135,68,67,116,137,435,507,488
2025-02-20 16:24:10.241,1324.0,132.0,460.0,128.0,-498.0,-522.0,136,67,67,117,135,488,507,499
2025-02-20 16:24:10.261,2144.0,-1709.0,1291.0,122.0,-502.0,-318.0,138,68,68,121,135,531,471,489
2025-02-20 16:24:10.278,2110.0,-2047.0,2082.0,68.0,-309.0,-65.0,141,69,70,123,135,569,449,479
2025-02-20 16:24:10.299,1793.0,-1310.0,2487.0,-85.0,-144.0,68.0,141,70,71,123,133,504,464,486
2025-02-20 16:24:10.316,1254.0,-825.0,2048.0,-253.0,-5.0,136.0,143,71,73,125,134,474,518,487
2025-02-20 16:24:10.335,805.0,-779.0,1544.0,-243.0,36.0,170.0,142,71,74,125,128,428,545,473
2025-02-20 16:24:10.353,545.0,-667.0,1553.0,-168.0,82.0,185.0,142,73,76,125,122,315,530,436
2025-02-20 16:24:10.372,424.0,-354.0,1636.0,-177.0,175.0,190.0,142,74,78,127,114,310,486,402
2025-02-20 16:24:10.382,289.0,-235.0,1350.0,-216.0,231.0,194.0,142,75,80,126,105,399,453,403
2025-02-20 16:24:10.413,44.0,-277.0,1187.0,-230.0,257.0,213.0,140,78,82,127,96,455,467,432
2025-02-20 16:24:10.430,-35.0,-261.0,984.0,-201.0,271.0,225.0,142,80,84,126,86,524,496,480
2025-02-20 16:24:10.450,-107.0,-285.0,786.0,-216.0,311.0,256.0,142,84,86,123,79,496,508,498
2025-02-20 16:24:10.470,-68.0,-157.0,841.0,-138.0,351.0,244.0,142,89,87,110,75,456,477,506
2025-02-20 16:24:10.487,45.0,-48.0,552.0,-106.0,384.0,225.0,140,92,87,103,65,453,379,503
2025-02-20 16:24:10.507,-517.0,-51.0,324.0,-40.0,368.0,212.0,140,94,88,97,60,417,314,515
2025-02-20 16:24:10.524,-558.0,262.0,-81.0,-39.0,337.0,188.0,140,95,88,93,57,419,415,527
2025-02-20 16:24:10.545,-563.0,518.0,-370.0,-26.0,291.0,151.0,136,96,88,89,56,441,489,539
2025-02-20 16:24:10.565,-812.0,825.0,-875.0,-1.0,216.0,88.0,136,97,88,87,58,540,507,508
2025-02-20 16:24:10.581,-1260.0,1373.0,-1592.0,-12.0,37.0,-61.0,133,99,89,86,58,596,477,453
2025-02-20 16:24:10.601,-1381.0,1970.0,-2001.0,33.0,-155.0,-262.0,135,102,92,86,55,550,456,414
2025-02-20 16:24:10.622,-1292.0,1848.0,-2113.0,37.0,-395.0,-503.0,135,109,97,86,54,491,487,423
2025-02-20 16:24:10.638,-257.0,1600.0,-1780.0,63.0,-705.0,-656.0,133,115,103,89,54,437,517,440
2025-02-20 16:24:10.659,1469.0,1241.0,-1015.0,-113.0,-955.0,-730.0,131,121,106,93,58,519,510,453
2025-02-20 16:24:10.679,3786.0,-1149.0,-396.0,-267.0,-1078.0,-582.0,131,127,108,93,62,538,435,455
2025-02-20 16:24:10.694,4232.0,-3377.0,1335.0,-176.0,-746.0,-287.0,132,130,108,89,64,594,385,455
2025-02-20 16:24:10.717,3721.0,-3617.0,1565.0,79.0,-156.0,41.0,133,131,112,91,64,602,407,452
2025-02-20 16:24:10.736,2227.0,-2087.0,1528.0,173.0,143.0,70.0,135,131,110,89,59,463,442,418
2025-02-20 16:24:10.753,976.0,-1228.0,1102.0,91.0,205.0,57.0,135,130,110,89,56,410,514,412
2025-02-20 16:24:10.774,356.0,-1146.0,922.0,-24.0,160.0,93.0,135,131,110,91,58,447,566,429
2025-02-20 16:24:10.790,327.0,-1166.0,708.0,-47.0,116.0,114.0,134,130,109,88,62,436,533,463
2025-02-20 16:24:10.810,344.0,-1213.0,809.0,-37.0,115.0,120.0,134,132,110,87,65,340,458,477
2025-02-20 16:24:10.831,375.0,-1115.0,838.0,-10.0,139.0,124.0,133,132,110,88,69,317,385,469
2025-02-20 16:24:10.848,387.0,-1065.0,747.0,6.0,174.0,149.0,133,132,111,87,71,445,442,480
2025-02-20 16:24:10.868,213.0,-839.0,631.0,14.0,190.0,170.0,132,133,111,89,70,409,535,469
2025-02-20 16:24:10.888,98.0,-582.0,575.0,-9.0,197.0,193.0,133,132,111,88,68,425,464,486
2025-02-20 16:24:10.905,76.0,-507.0,492.0,-31.0,213.0,216.0,133,132,111,89,66,353,424,491
2025-02-20 16:24:10.925,-94.0,-541.0,437.0,1.0,241.0,236.0,133,131,110,90,65,473,448,486
2025-02-20 16:24:10.945,-140.0,-375.0,401.0,49.0,271.0,263.0,134,130,110,91,65,554,426,477
2025-02-20 16:24:10.963,-143.0,-281.0,216.0,101.0,283.0,279.0,136,130,111,90,67,501,452,470
2025-02-20 16:24:10.982,-255.0,-81.0,81.0,164.0,285.0,295.0,136,130,111,89,68,451,485,466
2025-02-20 16:24:11.000,-524.0,544.0,-155.0,164.0,260.0,289.0,136,129,111,87,69,491,502,455
2025-02-20 16:24:11.020,-1146.0,1151.0,-926.0,106.0,129.0,178.0,137,129,111,85,69,628,481,447
2025-02-20 16:24:11.040,-1623.0,1580.0,-1309.0,128.0,-93.0,-72.0,137,130,110,84,68,636,493,449
2025-02-20 16:24:11.057,-1400.0,2326.0,-921.0,68.0,-266.0,-368.0,136,130,111,86,67,508,531,464
2025-02-20 16:24:11.077,-750.0,1829.0,-442.0,-92.0,-464.0,-610.0,135,130,111,87,67,495,498,478
2025-02-20 16:24:11.097,385.0,1262.0,-97.0,-269.0,-644.0,-743.0,132,131,110,87,69,416,474,459
2025-02-20 16:24:11.115,1973.0,227.0,-394.0,-440.0,-791.0,-744.0,134,131,111,91,71,438,399,445
2025-02-20 16:24:11.134,3233.0,-3263.0,-455.0,-398.0,-666.0,-467.0,129,132,110,97,72,441,335,476
2025-02-20 16:24:11.155,3533.0,-4336.0,80.0,-153.0,-302.0,-18.0,130,131,110,97,72,467,372,479
2025-02-20 16:24:11.171,2672.0,-2967.0,737.0,123.0,118.0,84.0,132,131,110,96,67,325,393,447
2025-02-20 16:24:11.191,1133.0,-1504.0,313.0,243.0,235.0,55.0,132,132,109,92,62,352,409,436
2025-02-20 16:24:11.208,-23.0,-711.0,460.0,90.0,150.0,57.0,132,130,110,93,60,378,439,451
2025-02-20 16:24:11.225,-16.0,-1009.0,375.0,-34.0,75.0,70.0,134,130,110,94,65,404,484,465
2025-02-20 16:24:11.248,247.0,-1430.0,394.0,-1.0,51.0,73.0,135,131,110,93,70,463,428,472
2025-02-20 16:24:11.265,526.0,-1574.0,329.0,108.0,76.0,89.0,135,133,109,97,74,458,366,481
2025-02-20 16:24:11.286,606.0,-1635.0,304.0,199.0,113.0,147.0,134,131,109,98,76,410,408,476
2025-02-20 16:24:11.306,563.0,-1252.0,285.0,240.0,145.0,208.0,136,131,108,97,80,405,532,450
2025-02-20 16:24:11.323,372.0,-947.0,333.0,220.0,153.0,262.0,136,128,105,100,80,351,534,458
2025-02-20 16:24:11.342,203.0,-695.0,418.0,165.0,140.0,322.0,137,125,103,103,77,297,469,479
2025-02-20 16:24:11.363,151.0,-583.0,470.0,148.0,121.0,355.0,138,123,100,108,75,337,475,465
2025-02-20 16:24:11.380,16.0,-530.0,374.0,157.0,104.0,374.0,138,117,94,113,81,408,500,472
2025-02-20 16:24:11.400,-97.0,-281.0,360.0,174.0,52.0,356.0,138,108,86,116,86,514,455,466
2025-02-20 16:24:11.414,-315.0,271.0,189.0,159.0,-21.0,287.0,138,98,81,117,87,643,453,451
2025-02-20 16:24:11.437,-529.0,635.0,102.0,137.0,-93.0,213.0,138,96,81,116,91,689,471,454
2025-02-20 16:24:11.458,-813.0,1074.0,384.0,126.0,-150.0,83.0,139,90,81,115,108,633,495,475
2025-02-20 16:24:11.475,-817.0,1757.0,482.0,192.0,-172.0,-106.0,140,82,76,108,123,632,529,471
2025-02-20 16:24:11.494,-1082.0,2058.0,880.0,309.0,-156.0,-230.0,141,79,70,107,126,557,487,465
2025-02-20 16:24:11.515,-851.0,2332.0,1033.0,424.0,-113.0,-393.0,141,76,69,107,129,508,421,463
2025-02-20 16:24:11.532,-368.0,1714.0,1301.0,439.0,-53.0,-496.0,140,74,68,108,129,499,410,462
2025-02-20 16:24:11.552,501.0,972.0,1715.0,426.0,-37.0,-553.0,140,70,66,108,129,441,450,457
2025-02-20 16:24:11.571,1286.0,-277.0,1443.0,412.0,-85.0,-498.0,141,67,63,106,128,458,484,462
2025-02-20 16:24:11.589,1640.0,-942.0,1802.0,238.0,-173.0,-279.0,141,66,62,102,128,446,498,466
2025-02-20 16:24:11.609,1436.0,-1264.0,2113.0,-7.0,-191.0,0.0,142,65,62,102,128,412,504,455
2025-02-20 16:24:11.629,1224.0,-1233.0,1874.0,-193.0,-118.0,143.0,142,66,62,101,128,485,482,419
2025-02-20 16:24:11.645,755.0,-864.0,1388.0,-191.0,-80.0,220.0,143,66,65,100,128,454,460,447
2025-02-20 16:24:11.667,466.0,-423.0,1405.0,-105.0,-58.0,234.0,142,67,65,100,129,437,516,469
2025-02-20 16:24:11.683,302.0,-167.0,1552.0,-24.0,3.0,238.0,141,69,66,100,128,486,552,450
2025-02-20 16:24:11.704,179.0,163.0,1470.0,-21.0,76.0,262.0,141,68,68,99,129,445,543,394
2025-02-20 16:24:11.722,33.0,436.0,1297.0,-83.0,102.0,253.0,142,71,69,100,128,319,501,392
2025-02-20 16:24:11.740,-74.0,326.0,1134.0,-103.0,129.0,234.0,141,71,67,98,130,343,458,408
2025-02-20 16:24:11.761,-75.0,234.0,1010.0,-82.0,143.0,234.0,141,72,68,98,129,378,460,427
2025-02-20 16:24:11.781,-86.0,503.0,742.0,-66.0,116.0,227.0,141,72,68,98,129,398,454,455
2025-02-20 16:24:11.797,-318.0,791.0,878.0,-73.0,68.0,165.0,141,72,69,96,130,439,466,489
2025-02-20 16:24:11.818,-444.0,1015.0,856.0,-88.0,44.0,106.0,141,73,69,94,130,481,481,505
2025-02-20 16:24:11.833,-457.0,850.0,880.0,-51.0,60.0,32.0,141,75,70,94,131,498,479,512
2025-02-20 16:24:11.855,-670.0,1267.0,880.0,43.0,83.0,-56.0,142,76,72,94,131,511,454,504
2025-02-20 16:24:11.867,-954.0,1961.0,702.0,110.0,112.0,-192.0,141,75,70,94,132,542,410,495
2025-02-20 16:24:11.892,-947.0,2063.0,332.0,155.0,113.0,-336.0,142,75,71,96,132,532,376,484
2025-02-20 16:24:11.911,-735.0,1639.0,47.0,184.0,57.0,-469.0,142,75,71,99,133,511,394,483
2025-02-20 16:24:11.933,-291.0,647.0,8.0,220.0,-118.0,-494.0,141,72,70,101,131,489,418,482
2025-02-20 16:24:11.948,538.0,-7.0,144.0,242.0,-343.0,-423.0,140,73,71,103,131,466,415,482
2025-02-20 16:24:11.969,1808.0,-1166.0,978.0,203.0,-487.0,-229.0,141,74,72,106,130,459,410,485
2025-02-20 16:24:11.990,2337.0,-1668.0,1874.0,110.0,-373.0,-11.0,143,74,75,110,131,486,446,482
2025-02-20 16:24:12.007,1832.0,-903.0,2743.0,-66.0,-168.0,132.0,142,77,77,110,131,520,516,483
2025-02-20 16:24:12.027,1354.0,-592.0,2188.0,-164.0,27.0,161.0,144,78,79,112,132,459,570,472
