timestamp,ax,ay,az,gx,gy,gz,flex1,flex2,flex3,flex4,flex5,emg1,emg2,emg3
2025-02-20 15:53:49.024,-261.0,-205.0,945.0,2.0,3.0,2.0,125,108,99,129,119,471,470,463
2025-02-20 15:53:49.029,-261.0,-204.0,954.0,0.0,2.0,2.0,125,112,98,129,119,469,472,467
2025-02-20 15:53:49.033,-259.0,-201.0,963.0,-1.0,1.0,2.0,126,108,99,130,119,467,475,462
2025-02-20 15:53:49.036,-256.0,-203.0,971.0,-2.0,2.0,2.0,125,108,99,130,119,466,473,464
2025-02-20 15:53:49.039,-264.0,-200.0,962.0,-1.0,3.0,1.0,125,109,99,130,118,464,469,464
2025-02-20 15:53:49.039,-270.0,-186.0,952.0,0.0,3.0,0.0,126,108,99,130,119,464,466,465
2025-02-20 15:53:49.047,-271.0,-194.0,947.0,1.0,2.0,-2.0,124,109,99,131,119,464,461,465
2025-02-20 15:53:49.070,-269.0,-214.0,953.0,2.0,0.0,-2.0,127,108,100,129,119,462,458,464
2025-02-20 15:53:49.095,-261.0,-220.0,970.0,0.0,-1.0,0.0,127,109,100,130,118,460,455,467
2025-02-20 15:53:49.114,-247.0,-215.0,981.0,-2.0,0.0,1.0,125,108,99,130,118,460,454,467
2025-02-20 15:53:49.132,-255.0,-220.0,981.0,-1.0,2.0,1.0,125,108,100,130,118,459,452,467
2025-02-20 15:53:49.151,-258.0,-207.0,979.0,1.0,3.0,1.0,124,109,99,130,119,459,451,468
2025-02-20 15:53:49.162,-258.0,-207.0,974.0,3.0,3.0,1.0,125,109,101,130,119,460,452,467
2025-02-20 15:53:49.177,-275.0,-208.0,978.0,-1.0,3.0,1.0,126,108,100,130,118,461,458,466
2025-02-20 15:53:49.197,-283.0,-201.0,965.0,-2.0,1.0,2.0,126,109,99,130,119,461,458,467
2025-02-20 15:53:49.229,-278.0,-190.0,966.0,-3.0,1.0,1.0,125,109,100,130,120,463,463,466
2025-02-20 15:53:49.246,-278.0,-195.0,957.0,-3.0,2.0,0.0,126,108,100,131,119,464,465,465
2025-02-20 15:53:49.263,-284.0,-197.0,944.0,-1.0,2.0,0.0,124,108,100,130,119,466,467,464
2025-02-20 15:53:49.286,-287.0,-200.0,939.0,1.0,1.0,-1.0,125,108,100,128,119,466,470,464
2025-02-20 15:53:49.301,-282.0,-197.0,947.0,0.0,0.0,-1.0,126,109,100,130,120,466,473,464
2025-02-20 15:53:49.323,-277.0,-201.0,952.0,-2.0,0.0,-1.0,125,108,99,129,120,466,473,462
2025-02-20 15:53:49.333,-271.0,-202.0,953.0,-3.0,0.0,-1.0,126,109,100,130,119,466,474,462
2025-02-20 15:53:49.348,-275.0,-203.0,945.0,-2.0,0.0,-1.0,125,108,100,129,119,465,475,462
2025-02-20 15:53:49.380,-281.0,-191.0,943.0,0.0,-1.0,-2.0,125,108,100,129,119,464,472,463
2025-02-20 15:53:49.398,-281.0,-199.0,953.0,0.0,-2.0,-3.0,126,109,101,129,119,463,470,463
2025-02-20 15:53:49.418,-275.0,-215.0,957.0,1.0,-3.0,-3.0,127,108,99,130,119,461,466,463
2025-02-20 15:53:49.434,-268.0,-222.0,968.0,1.0,-3.0,-4.0,125,108,100,130,118,462,462,463
2025-02-20 15:53:49.446,-262.0,-227.0,981.0,0.0,-3.0,-3.0,125,108,99,130,120,461,459,464
2025-02-20 15:53:49.474,-266.0,-233.0,981.0,-2.0,-1.0,0.0,125,108,100,129,119,460,455,464
2025-02-20 15:53:49.495,-263.0,-225.0,982.0,-2.0,0.0,0.0,126,108,100,130,119,459,456,465
2025-02-20 15:53:49.509,-276.0,-215.0,972.0,-1.0,1.0,1.0,126,109,100,130,119,459,455,465
2025-02-20 15:53:49.532,-284.0,-206.0,963.0,1.0,1.0,0.0,125,108,100,129,119,460,456,465
2025-02-20 15:53:49.545,-282.0,-198.0,965.0,2.0,0.0,-1.0,125,108,100,130,119,459,456,466
2025-02-20 15:53:49.569,-285.0,-198.0,971.0,0.0,0.0,0.0,126,109,100,130,119,461,459,466
2025-02-20 15:53:49.589,-285.0,-198.0,963.0,-3.0,-1.0,0.0,126,108,99,130,119,462,462,465
2025-02-20 15:53:49.607,-276.0,-208.0,965.0,-4.0,0.0,0.0,126,108,100,129,119,463,464,465
2025-02-20 15:53:49.627,-276.0,-216.0,961.0,0.0,1.0,-1.0,125,108,99,129,119,466,467,464
2025-02-20 15:53:49.647,-278.0,-209.0,967.0,4.0,1.0,0.0,125,109,100,130,119,465,470,464
2025-02-20 15:53:49.662,-282.0,-189.0,961.0,1.0,1.0,-1.0,125,110,100,130,119,466,472,463
2025-02-20 15:53:49.684,-282.0,-204.0,951.0,-4.0,-1.0,-1.0,126,113,100,130,119,466,474,462
2025-02-20 15:53:49.704,-273.0,-221.0,956.0,-3.0,-2.0,0.0,125,109,100,130,119,467,474,463
2025-02-20 15:53:49.721,-272.0,-219.0,968.0,0.0,-1.0,1.0,125,108,101,130,119,468,473,462
2025-02-20 15:53:49.741,-272.0,-194.0,974.0,0.0,0.0,1.0,125,108,100,130,119,465,471,462
2025-02-20 15:53:49.759,-284.0,-191.0,967.0,-2.0,0.0,0.0,126,109,100,130,120,465,468,464
2025-02-20 15:53:49.779,-283.0,-206.0,963.0,-2.0,0.0,0.0,125,108,100,130,119,464,465,463
2025-02-20 15:53:49.798,-279.0,-207.0,962.0,0.0,0.0,0.0,126,109,100,129,119,463,461,464
2025-02-20 15:53:49.812,-279.0,-198.0,965.0,0.0,-1.0,0.0,126,109,99,129,118,461,458,463
2025-02-20 15:53:49.836,-272.0,-200.0,979.0,-2.0,-2.0,0.0,126,108,98,131,116,460,456,464
2025-02-20 15:53:49.856,-265.0,-209.0,980.0,-2.0,-1.0,1.0,126,108,100,130,119,458,453,464
2025-02-20 15:53:49.873,-273.0,-196.0,976.0,0.0,1.0,1.0,127,108,99,130,119,459,452,465
2025-02-20 15:53:49.890,-293.0,-185.0,963.0,-1.0,2.0,0.0,126,109,100,130,119,458,452,465
2025-02-20 15:53:49.912,-300.0,-194.0,948.0,-2.0,1.0,-1.0,126,108,100,130,119,458,452,465
2025-02-20 15:53:49.928,-285.0,-207.0,955.0,0.0,-1.0,-1.0,125,108,100,129,118,458,454,466
2025-02-20 15:53:49.951,-278.0,-207.0,969.0,2.0,0.0,0.0,125,108,99,130,119,458,457,465
2025-02-20 15:53:49.967,-280.0,-195.0,970.0,1.0,0.0,0.0,125,109,100,132,119,461,460,464
2025-02-20 15:53:49.987,-267.0,-203.0,962.0,-2.0,0.0,0.0,126,108,100,127,119,461,464,463
2025-02-20 15:53:49.993,-274.0,-193.0,957.0,-2.0,-1.0,-1.0,126,108,99,131,119,461,467,463
2025-02-20 15:53:50.023,-288.0,-204.0,949.0,2.0,0.0,-1.0,126,109,100,130,119,462,472,463
2025-02-20 15:53:50.044,-287.0,-203.0,961.0,4.0,-3.0,0.0,125,109,99,130,119,462,473,461
2025-02-20 15:53:50.065,-279.0,-198.0,977.0,1.0,-3.0,0.0,126,109,100,131,119,462,473,462
2025-02-20 15:53:50.082,-278.0,-200.0,977.0,-1.0,-1.0,0.0,125,108,99,129,119,462,472,462
2025-02-20 15:53:50.102,-278.0,-204.0,973.0,0.0,1.0,0.0,126,109,100,130,119,464,473,462
2025-02-20 15:53:50.109,-287.0,-198.0,967.0,2.0,2.0,-2.0,127,109,100,130,120,463,469,463
2025-02-20 15:53:50.139,-284.0,-206.0,956.0,1.0,1.0,-2.0,126,108,100,130,119,461,466,462
2025-02-20 15:53:50.151,-285.0,-225.0,957.0,0.0,-1.0,0.0,126,109,99,130,119,460,464,463
2025-02-20 15:53:50.179,-277.0,-219.0,967.0,0.0,-2.0,0.0,126,108,99,131,119,458,461,462
2025-02-20 15:53:50.196,-271.0,-220.0,986.0,3.0,-1.0,2.0,125,109,100,130,118,458,457,463
2025-02-20 15:53:50.217,-268.0,-198.0,997.0,5.0,1.0,3.0,125,109,100,130,118,454,454,463
2025-02-20 15:53:50.233,-290.0,-168.0,979.0,1.0,1.0,2.0,126,108,99,130,119,455,450,464
2025-02-20 15:53:50.254,-309.0,-174.0,971.0,1.0,0.0,1.0,126,108,99,129,120,455,448,464
2025-02-20 15:53:50.274,-309.0,-167.0,973.0,1.0,0.0,-1.0,125,108,99,131,119,454,450,465
2025-02-20 15:53:50.291,-292.0,-184.0,986.0,1.0,1.0,-2.0,125,109,101,130,119,455,451,465
2025-02-20 15:53:50.311,-288.0,-198.0,982.0,2.0,3.0,-1.0,125,108,99,131,119,455,452,465
2025-02-20 15:53:50.331,-294.0,-195.0,966.0,0.0,3.0,0.0,126,108,100,131,119,457,455,465
2025-02-20 15:53:50.348,-300.0,-189.0,956.0,-2.0,1.0,-1.0,126,109,100,130,119,457,460,464
2025-02-20 15:53:50.368,-289.0,-207.0,957.0,-1.0,1.0,-1.0,125,109,99,130,119,459,465,464
2025-02-20 15:53:50.388,-279.0,-210.0,961.0,1.0,1.0,0.0,125,108,100,130,118,459,465,463
2025-02-20 15:53:50.404,-278.0,-204.0,989.0,1.0,1.0,1.0,126,108,101,130,119,459,467,463
2025-02-20 15:53:50.425,-280.0,-195.0,979.0,-3.0,2.0,1.0,125,109,99,130,119,460,469,463
2025-02-20 15:53:50.443,-289.0,-203.0,952.0,-3.0,2.0,1.0,125,108,100,129,120,461,472,462
2025-02-20 15:53:50.463,-294.0,-204.0,951.0,-1.0,1.0,2.0,126,108,102,130,119,461,470,463
2025-02-20 15:53:50.482,-301.0,-195.0,963.0,2.0,2.0,2.0,126,108,100,130,119,462,469,463
2025-02-20 15:53:50.500,-297.0,-179.0,971.0,0.0,2.0,2.0,125,108,100,130,119,460,466,464
2025-02-20 15:53:50.520,-295.0,-174.0,965.0,-1.0,1.0,1.0,126,109,100,130,119,461,464,464
2025-02-20 15:53:50.539,-288.0,-174.0,967.0,0.0,1.0,1.0,125,109,99,128,119,459,462,464
2025-02-20 15:53:50.557,-295.0,-173.0,968.0,0.0,1.0,1.0,125,108,99,130,119,458,458,464
2025-02-20 15:53:50.577,-298.0,-181.0,965.0,1.0,1.0,1.0,125,108,99,130,119,456,454,465
2025-02-20 15:53:50.595,-295.0,-176.0,979.0,1.0,2.0,1.0,125,108,100,130,119,456,452,466
2025-02-20 15:53:50.612,-300.0,-161.0,969.0,0.0,2.0,1.0,125,108,99,130,119,455,450,467
2025-02-20 15:53:50.627,-312.0,-168.0,960.0,0.0,2.0,0.0,125,108,100,129,119,455,448,467
2025-02-20 15:53:50.649,-302.0,-170.0,962.0,1.0,3.0,-1.0,125,109,99,130,120,457,448,467
2025-02-20 15:53:50.672,-297.0,-167.0,961.0,0.0,4.0,-2.0,125,108,99,130,119,455,450,467
2025-02-20 15:53:50.690,-301.0,-173.0,942.0,-1.0,2.0,-2.0,126,108,100,130,119,455,454,467
2025-02-20 15:53:50.708,-299.0,-182.0,941.0,-1.0,1.0,-2.0,126,108,100,131,119,457,458,466
2025-02-20 15:53:50.729,-289.0,-189.0,949.0,0.0,0.0,-2.0,126,108,100,131,119,458,463,466
2025-02-20 15:53:50.748,-298.0,-190.0,941.0,0.0,1.0,-1.0,125,109,100,130,120,460,468,465
2025-02-20 15:53:50.766,-309.0,-178.0,945.0,0.0,-1.0,-1.0,125,108,99,130,119,460,470,465
2025-02-20 15:53:50.786,-304.0,-179.0,958.0,-1.0,-3.0,-1.0,125,109,99,130,119,462,474,464
2025-02-20 15:53:50.806,-295.0,-186.0,967.0,-1.0,-2.0,-1.0,125,108,100,130,119,462,476,462
2025-02-20 15:53:50.823,-296.0,-189.0,965.0,0.0,-1.0,-1.0,126,109,100,130,120,463,477,463
2025-02-20 15:53:50.843,-302.0,-184.0,961.0,-1.0,1.0,-1.0,125,108,99,130,119,463,476,462
2025-02-20 15:53:50.863,-307.0,-189.0,960.0,-1.0,0.0,-1.0,125,109,101,130,119,463,475,462
2025-02-20 15:53:50.880,-302.0,-185.0,952.0,-1.0,0.0,0.0,126,108,101,129,119,462,473,462
2025-02-20 15:53:50.898,-310.0,-181.0,943.0,-1.0,0.0,-1.0,125,108,100,130,119,462,469,463
2025-02-20 15:53:50.915,-313.0,-185.0,949.0,0.0,-2.0,0.0,126,109,100,130,119,461,465,464
2025-02-20 15:53:50.938,-309.0,-180.0,960.0,2.0,-2.0,0.0,125,109,100,132,119,461,460,464
2025-02-20 15:53:50.957,-305.0,-170.0,965.0,1.0,-2.0,0.0,126,108,99,130,119,459,457,464
2025-02-20 15:53:50.975,-305.0,-167.0,962.0,-1.0,-2.0,0.0,125,109,99,129,119,457,454,465
2025-02-20 15:53:50.995,-306.0,-172.0,966.0,0.0,-1.0,-1.0,126,108,101,130,119,456,452,466
2025-02-20 15:53:51.015,-305.0,-174.0,969.0,2.0,-1.0,-1.0,126,109,100,130,121,456,451,466
2025-02-20 15:53:51.030,-308.0,-169.0,972.0,2.0,-1.0,-1.0,126,108,100,129,123,457,451,467
2025-02-20 15:53:51.052,-311.0,-167.0,970.0,0.0,-1.0,-1.0,126,108,100,131,119,456,453,467
2025-02-20 15:53:51.072,-303.0,-175.0,977.0,-1.0,-1.0,-1.0,125,108,99,130,119,458,455,467
2025-02-20 15:53:51.089,-296.0,-179.0,985.0,-1.0,0.0,-1.0,126,108,98,130,119,458,457,467
2025-02-20 15:53:51.109,-300.0,-169.0,977.0,0.0,2.0,-1.0,126,108,100,130,119,459,460,466
2025-02-20 15:53:51.118,-306.0,-176.0,970.0,0.0,1.0,-2.0,126,108,101,129,118,460,463,466
2025-02-20 15:53:51.147,-299.0,-187.0,963.0,0.0,1.0,-1.0,125,109,100,130,119,460,466,465
2025-02-20 15:53:51.166,-302.0,-176.0,962.0,0.0,1.0,0.0,127,108,99,130,119,460,468,465
2025-02-20 15:53:51.183,-306.0,-178.0,962.0,-2.0,0.0,0.0,126,109,98,130,119,460,470,464
2025-02-20 15:53:51.204,-306.0,-175.0,958.0,0.0,0.0,-1.0,126,108,100,130,119,461,469,464
2025-02-20 15:53:51.220,-303.0,-173.0,962.0,1.0,1.0,-1.0,126,108,100,131,119,459,468,463
2025-02-20 15:53:51.241,-307.0,-172.0,964.0,0.0,1.0,-1.0,125,108,100,130,119,459,467,462
2025-02-20 15:53:51.261,-306.0,-175.0,961.0,-1.0,0.0,-1.0,126,109,100,129,119,458,463,464
2025-02-20 15:53:51.281,-303.0,-184.0,962.0,-2.0,0.0,-1.0,126,109,100,130,119,457,461,462
2025-02-20 15:53:51.298,-302.0,-187.0,958.0,-2.0,0.0,0.0,126,105,100,130,119,456,457,464
2025-02-20 15:53:51.316,-308.0,-183.0,959.0,-1.0,0.0,0.0,125,109,99,130,119,455,453,465
2025-02-20 15:53:51.336,-313.0,-176.0,958.0,0.0,0.0,0.0,126,108,99,130,119,454,450,465
2025-02-20 15:53:51.355,-309.0,-177.0,968.0,-1.0,0.0,1.0,126,108,100,131,119,452,449,465
2025-02-20 15:53:51.376,-301.0,-173.0,971.0,-2.0,1.0,1.0,123,108,100,130,119,451,447,465
2025-02-20 15:53:51.393,-310.0,-161.0,962.0,-1.0,3.0,1.0,125,109,100,130,118,451,446,465
2025-02-20 15:53:51.413,-312.0,-159.0,954.0,-1.0,2.0,0.0,125,109,100,130,119,451,446,465
2025-02-20 15:53:51.433,-314.0,-148.0,916.0,-5.0,0.0,0.0,125,108,100,130,119,451,448,464
2025-02-20 15:53:51.449,-308.0,-168.0,947.0,0.0,0.0,-1.0,125,108,100,131,119,453,451,464
2025-02-20 15:53:51.468,-313.0,-166.0,952.0,-1.0,-1.0,0.0,125,108,100,130,119,451,456,463
2025-02-20 15:53:51.490,-313.0,-157.0,957.0,-1.0,-1.0,0.0,126,109,100,130,119,454,460,463
2025-02-20 15:53:51.508,-314.0,-159.0,958.0,0.0,-1.0,-1.0,124,108,100,131,119,454,465,463
2025-02-20 15:53:51.526,-312.0,-174.0,971.0,0.0,-1.0,-1.0,125,108,99,130,118,455,469,462
2025-02-20 15:53:51.548,-313.0,-166.0,975.0,0.0,0.0,-2.0,126,108,101,130,119,457,471,461
2025-02-20 15:53:51.565,-306.0,-171.0,975.0,-3.0,0.0,-2.0,126,108,99,130,119,457,473,461
2025-02-20 15:53:51.584,-308.0,-187.0,965.0,-3.0,1.0,-2.0,127,108,100,130,119,459,474,461
2025-02-20 15:53:51.602,-314.0,-204.0,957.0,0.0,1.0,-1.0,125,108,100,130,118,460,473,461
2025-02-20 15:53:51.619,-314.0,-182.0,960.0,0.0,0.0,0.0,126,108,100,131,119,458,472,461
2025-02-20 15:53:51.642,-306.0,-172.0,970.0,-1.0,-1.0,0.0,125,109,100,130,119,458,468,460
2025-02-20 15:53:51.658,-304.0,-190.0,977.0,0.0,1.0,1.0,126,108,100,130,119,458,464,462
2025-02-20 15:53:51.679,-310.0,-172.0,964.0,1.0,2.0,1.0,125,109,100,130,120,456,461,463
2025-02-20 15:53:51.696,-319.0,-160.0,945.0,0.0,1.0,1.0,126,109,100,129,119,456,458,462
2025-02-20 15:53:51.714,-325.0,-165.0,944.0,0.0,-1.0,1.0,126,108,100,130,120,456,454,465
2025-02-20 15:53:51.736,-326.0,-171.0,955.0,2.0,-1.0,1.0,126,109,100,130,119,455,452,464
2025-02-20 15:53:51.756,-321.0,-159.0,966.0,2.0,0.0,1.0,126,109,100,131,119,455,451,466
2025-02-20 15:53:51.773,-320.0,-157.0,964.0,-1.0,0.0,0.0,125,108,100,130,119,456,450,465
2025-02-20 15:53:51.793,-308.0,-172.0,961.0,-3.0,1.0,0.0,125,109,99,130,119,456,451,466
2025-02-20 15:53:51.810,-310.0,-188.0,944.0,-2.0,2.0,0.0,126,109,101,130,119,456,454,467
2025-02-20 15:53:51.830,-310.0,-186.0,934.0,-1.0,0.0,1.0,125,108,100,130,119,457,456,465
2025-02-20 15:53:51.851,-297.0,-182.0,940.0,-2.0,0.0,2.0,126,109,100,131,119,459,462,466
2025-02-20 15:53:51.867,-300.0,-178.0,944.0,-2.0,1.0,3.0,125,109,100,130,119,459,464,465
2025-02-20 15:53:51.886,-317.0,-165.0,928.0,-1.0,-1.0,2.0,126,108,100,130,119,461,469,466
2025-02-20 15:53:51.908,-321.0,-153.0,934.0,-3.0,-2.0,1.0,125,109,100,130,119,460,471,465
2025-02-20 15:53:51.925,-318.0,-161.0,943.0,-2.0,-3.0,1.0,126,108,100,130,119,463,474,465
2025-02-20 15:53:51.945,-315.0,-165.0,953.0,-1.0,-3.0,1.0,125,109,100,131,119,463,477,465
2025-02-20 15:53:51.965,-317.0,-151.0,969.0,-1.0,-4.0,1.0,126,108,100,130,119,464,477,464
2025-02-20 15:53:51.982,-321.0,-150.0,981.0,-2.0,-3.0,0.0,126,109,99,130,119,466,478,465
2025-02-20 15:53:52.002,-312.0,-163.0,994.0,-1.0,-2.0,0.0,126,108,99,130,119,464,476,464
2025-02-20 15:53:52.022,-304.0,-162.0,999.0,-1.0,-1.0,0.0,126,109,99,130,119,464,472,465
2025-02-20 15:53:52.039,-312.0,-157.0,1000.0,-2.0,1.0,0.0,126,108,101,130,119,462,469,466
2025-02-20 15:53:52.060,-316.0,-145.0,987.0,-3.0,2.0,0.0,126,108,99,131,119,459,464,467
2025-02-20 15:53:52.077,-321.0,-150.0,975.0,-4.0,2.0,-1.0,126,109,99,131,120,461,460,469
2025-02-20 15:53:52.097,-325.0,-155.0,955.0,-6.0,0.0,-1.0,125,108,100,130,119,460,457,469
2025-02-20 15:53:52.117,-327.0,-159.0,966.0,-5.0,1.0,-1.0,126,109,100,131,119,461,455,471
2025-02-20 15:53:52.133,-326.0,-157.0,953.0,-1.0,2.0,-1.0,126,108,100,130,119,461,452,472
2025-02-20 15:53:52.154,-326.0,-150.0,943.0,1.0,2.0,-2.0,126,108,100,130,119,461,453,473
2025-02-20 15:53:52.174,-325.0,-159.0,940.0,1.0,1.0,-3.0,126,108,100,130,119,461,454,474
2025-02-20 15:53:52.190,-323.0,-164.0,943.0,0.0,-1.0,-2.0,126,108,100,130,119,463,457,472
2025-02-20 15:53:52.211,-319.0,-163.0,953.0,-1.0,-2.0,-2.0,126,108,101,130,119,463,459,472
2025-02-20 15:53:52.230,-319.0,-177.0,960.0,0.0,-2.0,-3.0,126,109,100,130,120,465,462,472
2025-02-20 15:53:52.248,-314.0,-188.0,959.0,1.0,0.0,-2.0,125,108,101,130,119,466,467,470
2025-02-20 15:53:52.267,-321.0,-177.0,959.0,2.0,0.0,-2.0,126,108,100,129,119,467,471,470
2025-02-20 15:53:52.285,-319.0,-171.0,959.0,0.0,-1.0,-2.0,126,108,100,130,119,468,475,467
2025-02-20 15:53:52.306,-312.0,-186.0,960.0,-2.0,0.0,-2.0,126,108,100,131,119,469,478,467
2025-02-20 15:53:52.326,-312.0,-194.0,957.0,0.0,1.0,0.0,126,108,100,130,120,469,479,465
2025-02-20 15:53:52.342,-325.0,-180.0,950.0,-1.0,0.0,0.0,126,108,100,130,118,471,480,465
2025-02-20 15:53:52.362,-326.0,-167.0,953.0,-3.0,-1.0,0.0,126,108,100,130,119,471,479,464
2025-02-20 15:53:52.381,-319.0,-181.0,958.0,-2.0,-1.0,0.0,126,109,100,130,119,471,477,464
2025-02-20 15:53:52.400,-325.0,-176.0,958.0,1.0,0.0,0.0,126,108,100,130,119,470,475,464
2025-02-20 15:53:52.420,-328.0,-159.0,958.0,0.0,0.0,-1.0,126,109,99,130,119,469,468,465
2025-02-20 15:53:52.440,-327.0,-163.0,959.0,-3.0,-1.0,-1.0,126,109,101,130,119,469,464,465
2025-02-20 15:53:52.455,-323.0,-183.0,958.0,-2.0,-1.0,-1.0,126,109,100,131,118,468,460,465
2025-02-20 15:53:52.477,-314.0,-186.0,967.0,1.0,0.0,0.0,124,109,100,130,119,467,457,466
2025-02-20 15:53:52.495,-325.0,-162.0,966.0,0.0,-1.0,0.0,127,108,99,130,119,465,455,467
2025-02-20 15:53:52.514,-314.0,-166.0,969.0,-1.0,0.0,-1.0,126,109,100,130,119,467,455,468
2025-02-20 15:53:52.532,-314.0,-171.0,961.0,0.0,1.0,-1.0,126,108,100,130,119,466,455,467
2025-02-20 15:53:52.551,-314.0,-162.0,962.0,0.0,0.0,-1.0,126,108,100,131,119,466,455,466
2025-02-20 15:53:52.571,-314.0,-158.0,959.0,-3.0,-1.0,0.0,125,109,100,130,120,467,457,466
2025-02-20 15:53:52.592,-318.0,-168.0,953.0,-4.0,0.0,0.0,127,108,99,130,120,467,460,465
2025-02-20 15:53:52.606,-322.0,-174.0,947.0,-1.0,0.0,0.0,125,109,100,130,119,468,464,465
2025-02-20 15:53:52.629,-322.0,-165.0,947.0,2.0,-1.0,0.0,126,109,99,130,119,470,467,465
2025-02-20 15:53:52.649,-327.0,-151.0,955.0,1.0,-1.0,0.0,126,108,99,130,119,471,470,463
2025-02-20 15:53:52.666,-322.0,-155.0,957.0,0.0,-2.0,-1.0,127,109,99,130,119,472,475,464
2025-02-20 15:53:52.686,-325.0,-164.0,958.0,0.0,-1.0,0.0,126,109,99,130,119,473,476,463
2025-02-20 15:53:52.703,-327.0,-163.0,962.0,1.0,-1.0,0.0,126,109,100,131,119,474,477,461
2025-02-20 15:53:52.721,-324.0,-146.0,962.0,0.0,0.0,-1.0,126,108,99,130,119,474,477,462
2025-02-20 15:53:52.744,-325.0,-157.0,962.0,-1.0,-1.0,-2.0,126,109,100,130,119,474,477,462
2025-02-20 15:53:52.760,-320.0,-166.0,963.0,-1.0,0.0,-2.0,126,109,100,131,119,472,475,461
2025-02-20 15:53:52.780,-321.0,-170.0,961.0,-1.0,0.0,-1.0,126,108,100,130,119,472,473,461
2025-02-20 15:53:52.800,-324.0,-165.0,958.0,-2.0,0.0,-1.0,126,108,100,131,119,471,470,460
2025-02-20 15:53:52.818,-320.0,-176.0,961.0,-2.0,-1.0,-2.0,126,109,98,130,120,470,466,462
2025-02-20 15:53:52.837,-316.0,-170.0,962.0,-1.0,-1.0,-1.0,126,108,99,130,119,470,463,463
2025-02-20 15:53:52.853,-329.0,-160.0,961.0,-1.0,0.0,-2.0,126,108,100,130,119,469,460,464
2025-02-20 15:53:52.872,-328.0,-161.0,962.0,-1.0,-1.0,-1.0,126,110,100,130,119,469,458,465
2025-02-20 15:53:52.895,-321.0,-161.0,968.0,-1.0,-1.0,-1.0,125,108,100,130,120,468,456,464
2025-02-20 15:53:52.915,-318.0,-155.0,964.0,-2.0,0.0,-2.0,126,108,100,131,119,469,456,464
2025-02-20 15:53:52.933,-327.0,-163.0,956.0,-3.0,0.0,-2.0,126,108,100,130,118,468,456,464
2025-02-20 15:53:52.952,-323.0,-167.0,955.0,-2.0,0.0,-2.0,126,109,100,133,119,469,458,464
2025-02-20 15:53:52.969,-324.0,-159.0,957.0,-2.0,0.0,-2.0,126,109,101,130,119,470,461,465
2025-02-20 15:53:52.990,-322.0,-161.0,955.0,-2.0,-1.0,-2.0,126,109,100,130,120,470,465,464
2025-02-20 15:53:53.010,-328.0,-165.0,955.0,-2.0,0.0,-2.0,126,109,99,130,119,472,469,464
2025-02-20 15:53:53.027,-332.0,-168.0,952.0,-1.0,0.0,-2.0,125,108,100,138,120,473,472,464
2025-02-20 15:53:53.047,-327.0,-171.0,946.0,-1.0,-1.0,-1.0,126,109,100,131,119,472,474,464
2025-02-20 15:53:53.067,-330.0,-170.0,939.0,-1.0,-2.0,-1.0,127,108,99,130,120,474,476,464
2025-02-20 15:53:53.084,-325.0,-177.0,954.0,-1.0,-3.0,-2.0,126,108,100,130,119,474,477,464
2025-02-20 15:53:53.102,-313.0,-183.0,965.0,0.0,-2.0,-1.0,126,109,99,131,120,475,476,464
2025-02-20 15:53:53.124,-310.0,-178.0,969.0,0.0,-1.0,-1.0,126,109,100,131,118,474,475,463
2025-02-20 15:53:53.140,-312.0,-173.0,971.0,-1.0,-1.0,-1.0,126,108,100,130,118,472,474,464
2025-02-20 15:53:53.161,-314.0,-181.0,965.0,-3.0,-1.0,-1.0,126,109,99,130,120,472,471,464
2025-02-20 15:53:53.178,-317.0,-178.0,953.0,-3.0,0.0,0.0,126,108,103,130,119,472,467,465
2025-02-20 15:53:53.199,-323.0,-165.0,948.0,-1.0,0.0,0.0,126,108,100,130,118,470,465,465
2025-02-20 15:53:53.219,-325.0,-158.0,945.0,0.0,-1.0,0.0,126,108,100,130,119,469,461,464
2025-02-20 15:53:53.236,-326.0,-161.0,951.0,-1.0,-1.0,-1.0,126,108,100,130,119,467,459,466
2025-02-20 15:53:53.255,-324.0,-165.0,963.0,-1.0,-2.0,-1.0,125,108,99,130,116,468,457,466
2025-02-20 15:53:53.276,-314.0,-168.0,969.0,0.0,-2.0,0.0,126,108,97,130,120,468,456,467
2025-02-20 15:53:53.293,-311.0,-162.0,970.0,-1.0,-1.0,0.0,126,109,100,130,120,468,455,467
2025-02-20 15:53:53.313,-323.0,-156.0,960.0,-2.0,-1.0,0.0,126,108,100,129,119,468,456,467
2025-02-20 15:53:53.333,-324.0,-158.0,960.0,0.0,-1.0,-1.0,126,108,99,130,119,468,458,465
2025-02-20 15:53:53.350,-325.0,-157.0,958.0,1.0,0.0,-1.0,126,108,100,130,119,470,459,466
2025-02-20 15:53:53.370,-325.0,-152.0,957.0,0.0,-1.0,-1.0,126,109,98,130,120,472,464,466
2025-02-20 15:53:53.389,-327.0,-160.0,952.0,-1.0,-1.0,-2.0,126,108,100,129,119,472,468,465
2025-02-20 15:53:53.408,-326.0,-167.0,953.0,-1.0,-2.0,-2.0,126,109,101,130,119,473,470,465
2025-02-20 15:53:53.427,-318.0,-170.0,966.0,1.0,-2.0,-2.0,126,108,100,130,119,472,476,464
2025-02-20 15:53:53.444,-317.0,-173.0,967.0,1.0,-1.0,-2.0,126,109,100,129,120,474,479,464
2025-02-20 15:53:53.465,-316.0,-170.0,967.0,0.0,-1.0,-1.0,126,109,100,130,119,473,478,464
2025-02-20 15:53:53.484,-317.0,-174.0,965.0,-1.0,-1.0,-1.0,126,108,100,130,119,474,475,464
2025-02-20 15:53:53.502,-316.0,-172.0,965.0,-1.0,-1.0,0.0,126,108,101,131,120,474,473,464
2025-02-20 15:53:53.521,-320.0,-163.0,958.0,0.0,-1.0,-1.0,126,108,101,129,119,473,471,463
2025-02-20 15:53:53.539,-316.0,-170.0,963.0,0.0,-1.0,-1.0,126,108,100,131,119,473,469,464
2025-02-20 15:53:53.559,-322.0,-163.0,969.0,-1.0,-1.0,-1.0,126,108,100,130,119,473,465,466
2025-02-20 15:53:53.579,-319.0,-167.0,966.0,-2.0,-1.0,0.0,126,108,99,130,119,472,462,465
2025-02-20 15:53:53.599,-316.0,-169.0,964.0,-1.0,-1.0,0.0,126,110,100,130,119,471,459,466
2025-02-20 15:53:53.616,-319.0,-166.0,967.0,0.0,0.0,0.0,126,109,100,130,119,470,457,466
2025-02-20 15:53:53.636,-325.0,-159.0,959.0,-1.0,0.0,0.0,125,109,100,130,119,469,455,466
2025-02-20 15:53:53.654,-325.0,-164.0,958.0,-1.0,-1.0,0.0,126,110,100,130,119,470,453,466
2025-02-20 15:53:53.674,-327.0,-160.0,962.0,0.0,-1.0,0.0,126,107,100,131,119,468,453,466
2025-02-20 15:53:53.692,-325.0,-154.0,964.0,0.0,0.0,0.0,126,109,100,130,119,469,454,466
2025-02-20 15:53:53.710,-320.0,-152.0,970.0,-1.0,1.0,-1.0,126,109,99,130,119,469,456,466
2025-02-20 15:53:53.731,-326.0,-159.0,960.0,-2.0,1.0,-1.0,126,109,100,130,119,470,461,466
2025-02-20 15:53:53.751,-325.0,-162.0,942.0,-2.0,0.0,0.0,126,109,100,130,119,470,466,465
2025-02-20 15:53:53.767,-320.0,-159.0,943.0,-2.0,-1.0,-1.0,126,108,101,130,119,471,470,464
2025-02-20 15:53:53.787,-320.0,-161.0,953.0,-1.0,-2.0,-1.0,126,108,100,130,119,471,472,464
2025-02-20 15:53:53.806,-320.0,-161.0,956.0,0.0,-2.0,-1.0,126,108,100,130,119,473,474,464
2025-02-20 15:53:53.825,-317.0,-155.0,966.0,0.0,-1.0,-1.0,126,109,99,131,120,474,476,465
2025-02-20 15:53:53.842,-318.0,-152.0,963.0,-1.0,-1.0,-1.0,126,109,100,129,119,473,477,463
2025-02-20 15:53:53.865,-317.0,-157.0,958.0,-3.0,-1.0,-1.0,122,109,101,131,119,473,476,463
2025-02-20 15:53:53.882,-321.0,-164.0,947.0,-1.0,-1.0,-1.0,126,109,100,130,119,472,475,463
2025-02-20 15:53:53.903,-326.0,-159.0,953.0,0.0,-1.0,-1.0,126,109,100,130,119,472,473,464
2025-02-20 15:53:53.920,-323.0,-157.0,957.0,0.0,-1.0,-1.0,126,108,100,131,119,470,471,463
2025-02-20 15:53:53.939,-322.0,-164.0,963.0,-2.0,-2.0,-1.0,126,108,100,130,119,469,466,464
2025-02-20 15:53:53.957,-322.0,-167.0,965.0,-2.0,-1.0,-1.0,126,108,99,130,119,468,462,464
2025-02-20 15:53:53.976,-319.0,-169.0,966.0,0.0,-1.0,-2.0,126,108,100,129,119,467,458,465
2025-02-20 15:53:53.997,-322.0,-169.0,961.0,0.0,0.0,-1.0,126,109,100,130,120,466,454,465
2025-02-20 15:53:54.017,-322.0,-166.0,965.0,-2.0,-1.0,-1.0,126,109,100,130,119,465,453,465
2025-02-20 15:53:54.034,-321.0,-169.0,957.0,-2.0,-1.0,-1.0,126,109,98,130,120,466,452,466
2025-02-20 15:53:54.054,-322.0,-177.0,961.0,-1.0,-2.0,0.0,125,108,99,131,119,465,453,466
2025-02-20 15:53:54.071,-322.0,-167.0,969.0,0.0,-1.0,0.0,126,108,100,129,118,464,455,466
2025-02-20 15:53:54.092,-323.0,-163.0,970.0,-1.0,-1.0,-1.0,126,109,100,128,119,465,462,466
2025-02-20 15:53:54.109,-317.0,-160.0,971.0,-1.0,-1.0,0.0,126,108,101,131,119,465,464,466
2025-02-20 15:53:54.128,-324.0,-162.0,969.0,-2.0,0.0,0.0,126,109,100,130,119,467,465,465
2025-02-20 15:53:54.148,-319.0,-166.0,964.0,-2.0,0.0,-1.0,126,109,100,131,119,468,468,465
2025-02-20 15:53:54.168,-325.0,-169.0,961.0,-1.0,0.0,0.0,126,108,100,130,119,468,472,464
2025-02-20 15:53:54.186,-318.0,-167.0,961.0,-1.0,0.0,0.0,126,109,98,130,119,469,473,464
2025-02-20 15:53:54.206,-323.0,-166.0,956.0,-2.0,0.0,0.0,126,109,99,131,119,470,475,464
2025-02-20 15:53:54.224,-329.0,-161.0,947.0,-1.0,-1.0,0.0,126,109,99,131,120,470,476,463
2025-02-20 15:53:54.243,-321.0,-158.0,958.0,0.0,-1.0,-1.0,126,108,99,130,119,471,476,463
2025-02-20 15:53:54.264,-316.0,-161.0,971.0,1.0,-1.0,-1.0,126,109,100,131,120,470,475,463
2025-02-20 15:53:54.283,-315.0,-162.0,970.0,-1.0,-1.0,-1.0,125,108,99,130,119,469,472,462
2025-02-20 15:53:54.301,-313.0,-168.0,971.0,-2.0,0.0,0.0,126,109,100,130,118,469,469,463
2025-02-20 15:53:54.321,-315.0,-164.0,954.0,-3.0,0.0,0.0,127,109,99,131,119,469,465,463
2025-02-20 15:53:54.338,-319.0,-158.0,954.0,-2.0,-1.0,-1.0,126,109,101,130,119,467,460,463
2025-02-20 15:53:54.358,-319.0,-164.0,951.0,-1.0,-1.0,-1.0,125,109,100,130,120,467,457,464
2025-02-20 15:53:54.377,-322.0,-157.0,951.0,0.0,-1.0,0.0,125,109,99,129,119,466,455,465
2025-02-20 15:53:54.394,-323.0,-146.0,955.0,-1.0,-2.0,-1.0,126,109,100,130,119,466,454,465
2025-02-20 15:53:54.411,-322.0,-155.0,948.0,-2.0,-2.0,-1.0,126,109,98,130,119,465,454,465
2025-02-20 15:53:54.435,-320.0,-154.0,939.0,0.0,-2.0,0.0,126,108,100,129,119,466,455,466
2025-02-20 15:53:54.452,-329.0,-154.0,948.0,1.0,-3.0,-1.0,126,109,101,126,119,466,456,466
2025-02-20 15:53:54.472,-322.0,-157.0,958.0,1.0,-3.0,-2.0,126,109,99,130,120,467,459,466
2025-02-20 15:53:54.492,-323.0,-151.0,968.0,-1.0,-2.0,-1.0,126,108,99,130,119,466,462,465
2025-02-20 15:53:54.509,-325.0,-155.0,968.0,-3.0,-2.0,-2.0,126,108,100,130,119,467,465,464
2025-02-20 15:53:54.530,-319.0,-160.0,963.0,-2.0,-2.0,-2.0,126,109,100,130,119,469,467,464
2025-02-20 15:53:54.547,-314.0,-170.0,962.0,0.0,-2.0,-2.0,126,108,99,130,120,469,471,464
2025-02-20 15:53:54.566,-319.0,-170.0,961.0,0.0,-2.0,-1.0,124,109,100,131,119,469,473,463
2025-02-20 15:53:54.586,-312.0,-152.0,979.0,-1.0,-3.0,-1.0,126,109,100,130,119,470,476,463
2025-02-20 15:53:54.604,-308.0,-173.0,986.0,-1.0,-2.0,-1.0,126,109,100,131,119,469,478,463
2025-02-20 15:53:54.624,-319.0,-167.0,989.0,1.0,-2.0,-1.0,126,108,100,131,119,469,481,463
2025-02-20 15:53:54.644,-316.0,-157.0,958.0,0.0,-2.0,-1.0,126,109,99,131,119,468,479,462
2025-02-20 15:53:54.661,-315.0,-166.0,969.0,-2.0,-1.0,-1.0,126,109,99,131,119,467,475,463
2025-02-20 15:53:54.681,-313.0,-166.0,978.0,-2.0,-1.0,-1.0,126,108,99,129,120,466,470,464
2025-02-20 15:53:54.701,-311.0,-170.0,982.0,-2.0,0.0,-1.0,126,109,100,130,119,465,465,465
2025-02-20 15:53:54.718,-308.0,-165.0,981.0,-1.0,1.0,0.0,126,109,100,130,119,465,460,465
2025-02-20 15:53:54.738,-328.0,-162.0,963.0,-1.0,1.0,0.0,125,109,100,130,120,464,455,465
2025-02-20 15:53:54.755,-325.0,-163.0,961.0,-1.0,-1.0,0.0,126,109,99,131,119,462,452,465
2025-02-20 15:53:54.775,-321.0,-157.0,963.0,-1.0,-1.0,-1.0,126,108,100,130,119,461,451,466
2025-02-20 15:53:54.796,-316.0,-153.0,968.0,-1.0,-1.0,-1.0,125,109,100,130,119,462,450,467
2025-02-20 15:53:54.812,-317.0,-165.0,964.0,-1.0,0.0,-1.0,126,109,101,130,119,461,451,465
2025-02-20 15:53:54.832,-312.0,-167.0,966.0,-1.0,0.0,0.0,126,108,100,130,119,460,454,466
2025-02-20 15:53:54.853,-316.0,-162.0,964.0,0.0,1.0,0.0,126,109,100,130,120,463,457,466
2025-02-20 15:53:54.870,-317.0,-156.0,958.0,-1.0,0.0,0.0,126,110,100,129,119,463,460,465
2025-02-20 15:53:54.885,-320.0,-157.0,958.0,-2.0,-1.0,-1.0,127,109,100,130,119,465,464,465
2025-02-20 15:53:54.910,-312.0,-167.0,963.0,-1.0,-1.0,-1.0,126,109,100,130,119,466,467,464
2025-02-20 15:53:54.927,-309.0,-160.0,968.0,0.0,0.0,-1.0,126,109,100,130,120,466,470,463
2025-02-20 15:53:54.945,-317.0,-152.0,963.0,-1.0,0.0,-1.0,126,108,100,130,119,466,471,463
2025-02-20 15:53:54.967,-320.0,-158.0,959.0,-2.0,0.0,-1.0,126,109,99,130,119,467,474,462
2025-02-20 15:53:54.984,-314.0,-157.0,960.0,-1.0,0.0,0.0,127,109,99,130,119,467,476,463
2025-02-20 15:53:55.004,-322.0,-159.0,960.0,0.0,1.0,-1.0,126,109,99,130,119,467,475,463
2025-02-20 15:53:55.022,-324.0,-150.0,960.0,-2.0,0.0,-1.0,126,109,100,130,119,466,474,462
2025-02-20 15:53:55.042,-324.0,-157.0,955.0,-2.0,0.0,-1.0,126,108,100,130,119,465,471,462
2025-02-20 15:53:55.061,-323.0,-159.0,957.0,-1.0,-1.0,-1.0,126,109,100,129,119,466,467,464
2025-02-20 15:53:55.079,-321.0,-159.0,964.0,0.0,0.0,-1.0,126,109,99,129,120,465,463,464
2025-02-20 15:53:55.099,-322.0,-151.0,965.0,-1.0,0.0,-1.0,126,109,100,129,119,465,459,464
2025-02-20 15:53:55.119,-321.0,-156.0,963.0,-1.0,-1.0,-2.0,125,109,99,130,119,463,457,465
2025-02-20 15:53:55.136,-318.0,-159.0,962.0,0.0,0.0,-2.0,125,109,100,130,119,462,454,465
2025-02-20 15:53:55.157,-318.0,-158.0,960.0,-1.0,0.0,-2.0,126,109,100,130,119,462,453,466
2025-02-20 15:53:55.177,-319.0,-162.0,955.0,-1.0,-1.0,-2.0,125,108,99,130,119,461,453,465
2025-02-20 15:53:55.194,-320.0,-159.0,958.0,-1.0,-1.0,-1.0,126,109,100,131,119,462,454,466
2025-02-20 15:53:55.212,-314.0,-159.0,962.0,0.0,-1.0,-1.0,126,108,100,130,119,463,456,466
2025-02-20 15:53:55.231,-317.0,-165.0,965.0,0.0,-1.0,-1.0,126,109,100,130,119,464,459,465
2025-02-20 15:53:55.251,-317.0,-160.0,964.0,0.0,0.0,-1.0,126,109,100,130,120,464,462,467
2025-02-20 15:53:55.271,-322.0,-155.0,966.0,0.0,-1.0,-1.0,126,109,101,130,119,465,466,466
2025-02-20 15:53:55.288,-323.0,-154.0,964.0,-1.0,0.0,-1.0,126,108,100,131,120,466,470,465
2025-02-20 15:53:55.308,-328.0,-163.0,950.0,-2.0,0.0,-2.0,126,109,100,130,119,466,472,464
2025-02-20 15:53:55.328,-324.0,-171.0,948.0,-1.0,-1.0,-2.0,126,109,99,130,119,467,475,463
2025-02-20 15:53:55.345,-315.0,-169.0,957.0,0.0,-2.0,-1.0,126,109,100,131,119,468,475,463
2025-02-20 15:53:55.362,-315.0,-165.0,964.0,-1.0,-1.0,0.0,126,109,99,130,119,467,475,463
2025-02-20 15:53:55.385,-322.0,-163.0,965.0,-2.0,-2.0,-1.0,126,109,100,131,119,467,474,463
2025-02-20 15:53:55.402,-321.0,-163.0,965.0,-1.0,-1.0,0.0,126,108,100,131,118,467,470,463
2025-02-20 15:53:55.423,-318.0,-161.0,960.0,-1.0,-1.0,0.0,127,109,100,130,120,466,469,464
2025-02-20 15:53:55.440,-321.0,-162.0,960.0,-1.0,-1.0,0.0,126,108,100,130,119,465,466,464
2025-02-20 15:53:55.460,-318.0,-157.0,958.0,-1.0,-1.0,0.0,126,108,99,131,119,464,462,464
2025-02-20 15:53:55.477,-320.0,-158.0,962.0,0.0,-2.0,-1.0,126,108,100,131,119,463,459,464
2025-02-20 15:53:55.496,-316.0,-165.0,969.0,0.0,-2.0,-1.0,126,109,99,130,119,462,456,465
2025-02-20 15:53:55.517,-321.0,-161.0,971.0,-1.0,-1.0,-1.0,126,109,99,131,119,461,454,465
2025-02-20 15:53:55.536,-317.0,-161.0,968.0,-2.0,-1.0,0.0,126,108,100,130,119,461,452,465
2025-02-20 15:53:55.554,-320.0,-153.0,967.0,-2.0,0.0,0.0,126,108,100,130,119,461,453,465
2025-02-20 15:53:55.574,-328.0,-154.0,964.0,-1.0,-1.0,-1.0,126,109,100,130,119,461,454,466
2025-02-20 15:53:55.594,-320.0,-148.0,969.0,-2.0,-1.0,-1.0,126,108,100,130,120,461,457,465
2025-02-20 15:53:55.611,-313.0,-159.0,969.0,-3.0,-1.0,-1.0,126,109,101,127,119,463,459,466
2025-02-20 15:53:55.630,-312.0,-162.0,968.0,-2.0,0.0,0.0,125,109,100,130,120,463,463,465
2025-02-20 15:53:55.647,-323.0,-155.0,955.0,-2.0,0.0,0.0,126,109,98,130,119,464,467,465
2025-02-20 15:53:55.669,-330.0,-152.0,946.0,-2.0,-1.0,-1.0,126,108,100,130,119,464,471,465
2025-02-20 15:53:55.689,-322.0,-155.0,945.0,-2.0,-2.0,-1.0,126,109,99,130,120,465,473,464
2025-02-20 15:53:55.706,-317.0,-160.0,951.0,0.0,-2.0,-1.0,126,108,100,131,119,467,474,463
2025-02-20 15:53:55.726,-324.0,-159.0,948.0,1.0,-1.0,-1.0,126,109,100,135,119,466,475,463
2025-02-20 15:53:55.746,-323.0,-160.0,953.0,0.0,-2.0,-1.0,126,109,100,131,119,465,475,463
2025-02-20 15:53:55.763,-318.0,-166.0,967.0,-1.0,-2.0,-1.0,127,105,100,130,119,466,474,463
2025-02-20 15:53:55.783,-304.0,-166.0,970.0,-1.0,-1.0,-1.0,126,109,101,131,119,465,472,463
2025-02-20 15:53:55.803,-308.0,-167.0,971.0,-1.0,-1.0,-1.0,126,108,100,130,118,464,469,464
2025-02-20 15:53:55.820,-317.0,-169.0,967.0,-2.0,-1.0,-1.0,126,109,101,130,119,463,467,464
2025-02-20 15:53:55.840,-311.0,-172.0,967.0,-3.0,-2.0,-1.0,127,109,100,130,120,461,463,464
2025-02-20 15:53:55.861,-309.0,-168.0,966.0,-2.0,-1.0,0.0,126,110,100,130,120,460,458,464
2025-02-20 15:53:55.877,-314.0,-167.0,968.0,-2.0,-1.0,0.0,126,109,98,129,119,459,456,465
2025-02-20 15:53:55.898,-325.0,-153.0,967.0,-1.0,-1.0,1.0,126,108,100,129,119,457,453,465
2025-02-20 15:53:55.915,-323.0,-149.0,963.0,-1.0,-2.0,0.0,126,109,98,130,119,457,453,465
2025-02-20 15:53:55.934,-323.0,-153.0,971.0,-1.0,-1.0,0.0,126,108,100,129,119,457,452,464
2025-02-20 15:53:55.955,-331.0,-149.0,967.0,-1.0,-1.0,0.0,126,109,101,130,119,456,454,465
2025-02-20 15:53:55.972,-322.0,-146.0,974.0,-1.0,-1.0,0.0,126,109,100,130,119,454,455,464
2025-02-20 15:53:55.991,-317.0,-157.0,973.0,0.0,-1.0,0.0,126,108,99,130,119,455,457,464
2025-02-20 15:53:56.012,-324.0,-152.0,963.0,0.0,0.0,0.0,126,109,100,130,119,456,460,463
2025-02-20 15:53:56.029,-325.0,-151.0,967.0,-1.0,-1.0,0.0,127,109,99,130,119,455,463,462
2025-02-20 15:53:56.048,-315.0,-146.0,980.0,-1.0,0.0,-1.0,127,109,100,130,119,455,466,461
2025-02-20 15:53:56.065,-301.0,-152.0,984.0,-3.0,0.0,-2.0,126,108,99,130,119,453,468,459
2025-02-20 15:53:56.086,-299.0,-159.0,982.0,-4.0,1.0,-1.0,127,108,100,130,120,454,469,460
2025-02-20 15:53:56.107,-301.0,-158.0,969.0,-4.0,2.0,-1.0,126,111,100,130,120,453,470,459
2025-02-20 15:53:56.124,-303.0,-152.0,948.0,-4.0,2.0,-1.0,126,109,99,130,119,451,468,458
2025-02-20 15:53:56.144,-325.0,-152.0,936.0,-2.0,1.0,0.0,126,108,100,131,120,449,467,457
2025-02-20 15:53:56.162,-330.0,-148.0,922.0,-1.0,0.0,-1.0,126,109,100,130,119,448,463,457
2025-02-20 15:53:56.181,-333.0,-153.0,922.0,1.0,-2.0,-1.0,126,109,100,131,119,447,461,458
2025-02-20 15:53:56.200,-332.0,-160.0,946.0,2.0,-2.0,-2.0,126,109,99,130,119,445,458,458
2025-02-20 15:53:56.221,-323.0,-168.0,959.0,2.0,-3.0,-1.0,125,109,100,130,120,442,454,458
2025-02-20 15:53:56.236,-316.0,-169.0,969.0,1.0,-3.0,-1.0,126,108,100,130,119,440,451,458
2025-02-20 15:53:56.258,-314.0,-162.0,978.0,0.0,-2.0,-1.0,126,109,100,130,119,438,449,459
2025-02-20 15:53:56.279,-315.0,-166.0,970.0,-1.0,-1.0,-1.0,126,108,100,130,119,437,448,459
2025-02-20 15:53:56.296,-310.0,-168.0,975.0,-1.0,0.0,-2.0,126,108,100,130,119,436,445,460
2025-02-20 15:53:56.315,-319.0,-167.0,967.0,-2.0,0.0,-2.0,126,109,99,130,118,435,444,460
2025-02-20 15:53:56.333,-325.0,-174.0,953.0,-3.0,-1.0,-1.0,127,109,100,131,119,434,445,461
2025-02-20 15:53:56.350,-317.0,-167.0,953.0,-3.0,-1.0,-1.0,127,109,100,130,120,435,447,460
2025-02-20 15:53:56.370,-313.0,-167.0,953.0,-2.0,-2.0,0.0,126,109,99,130,120,434,449,460
2025-02-20 15:53:56.386,-314.0,-163.0,955.0,-1.0,-2.0,0.0,126,109,100,130,119,434,452,459
2025-02-20 15:53:56.410,-318.0,-160.0,954.0,-1.0,-2.0,0.0,126,109,100,130,119,435,456,459
2025-02-20 15:53:56.430,-320.0,-150.0,957.0,-1.0,-2.0,0.0,126,108,99,130,120,436,458,459
2025-02-20 15:53:56.447,-314.0,-151.0,959.0,-1.0,-2.0,0.0,126,109,100,130,119,436,461,458
2025-02-20 15:53:56.467,-308.0,-150.0,970.0,-1.0,-3.0,-1.0,126,109,101,130,119,437,463,458
2025-02-20 15:53:56.485,-312.0,-161.0,968.0,-2.0,-2.0,0.0,126,109,100,131,119,435,463,458
2025-02-20 15:53:56.504,-314.0,-161.0,965.0,-1.0,-2.0,0.0,126,109,102,130,119,437,463,458
2025-02-20 15:53:56.525,-313.0,-150.0,967.0,0.0,-2.0,0.0,126,108,99,129,119,437,461,458
2025-02-20 15:53:56.544,-318.0,-150.0,967.0,0.0,-2.0,0.0,126,109,100,130,120,437,458,459
2025-02-20 15:53:56.561,-324.0,-144.0,970.0,-1.0,-1.0,0.0,126,108,100,129,120,436,454,458
2025-02-20 15:53:56.580,-319.0,-145.0,972.0,0.0,-1.0,-1.0,126,109,99,130,119,437,452,459
2025-02-20 15:53:56.598,-322.0,-147.0,975.0,0.0,0.0,-1.0,126,109,99,131,119,436,448,459
2025-02-20 15:53:56.619,-327.0,-146.0,967.0,-1.0,0.0,-1.0,126,109,100,130,120,437,445,458
2025-02-20 15:53:56.637,-324.0,-153.0,962.0,-2.0,-1.0,-2.0,126,109,100,131,119,438,443,458
2025-02-20 15:53:56.654,-320.0,-164.0,959.0,0.0,0.0,-2.0,126,109,100,131,119,438,442,459
2025-02-20 15:53:56.676,-313.0,-165.0,963.0,1.0,-1.0,-2.0,126,109,100,130,119,441,441,459
2025-02-20 15:53:56.696,-306.0,-159.0,975.0,-1.0,-1.0,-2.0,126,108,100,129,119,441,441,459
2025-02-20 15:53:56.713,-304.0,-167.0,974.0,-3.0,0.0,-2.0,126,109,100,130,119,443,442,459
2025-02-20 15:53:56.733,-305.0,-169.0,963.0,-3.0,0.0,-1.0,126,109,100,130,119,444,446,459
2025-02-20 15:53:56.753,-306.0,-175.0,955.0,-3.0,0.0,-1.0,126,108,100,130,119,445,449,459
2025-02-20 15:53:56.770,-312.0,-170.0,945.0,-1.0,0.0,0.0,126,109,100,130,120,449,454,459
2025-02-20 15:53:56.791,-318.0,-163.0,938.0,-1.0,-1.0,0.0,126,109,99,129,119,450,458,458
2025-02-20 15:53:56.808,-324.0,-156.0,937.0,-1.0,-2.0,0.0,126,108,100,131,120,453,461,458
2025-02-20 15:53:56.824,-318.0,-157.0,944.0,-1.0,-2.0,0.0,126,109,100,131,119,455,464,457
2025-02-20 15:53:56.847,-313.0,-154.0,959.0,0.0,-3.0,0.0,126,109,101,130,119,456,465,457
2025-02-20 15:53:56.864,-306.0,-153.0,979.0,-2.0,-3.0,0.0,127,109,100,131,120,457,465,458
2025-02-20 15:53:56.885,-303.0,-152.0,983.0,-3.0,-2.0,0.0,126,109,101,130,119,458,465,458
2025-02-20 15:53:56.904,-313.0,-147.0,968.0,-3.0,0.0,0.0,126,109,100,130,119,459,463,459
2025-02-20 15:53:56.922,-311.0,-136.0,973.0,-2.0,0.0,-1.0,126,109,100,131,120,458,461,458
2025-02-20 15:53:56.940,-313.0,-140.0,961.0,-3.0,0.0,-2.0,126,109,100,131,120,459,459,460
2025-02-20 15:53:56.963,-318.0,-144.0,953.0,-3.0,0.0,-2.0,126,108,100,130,119,458,456,459
2025-02-20 15:53:56.979,-324.0,-159.0,945.0,-2.0,-1.0,-1.0,126,109,101,131,119,458,453,460
2025-02-20 15:53:56.999,-323.0,-153.0,942.0,0.0,-2.0,-1.0,127,109,100,130,119,459,450,463
2025-02-20 15:53:57.018,-317.0,-153.0,955.0,0.0,-3.0,-2.0,126,108,100,130,119,458,448,462
2025-02-20 15:53:57.036,-302.0,-156.0,969.0,0.0,-5.0,-2.0,126,109,100,131,119,459,447,463
2025-02-20 15:53:57.057,-316.0,-167.0,977.0,1.0,-1.0,-1.0,126,106,99,130,119,459,447,464
2025-02-20 15:53:57.074,-313.0,-164.0,980.0,0.0,-2.0,-1.0,126,109,100,130,119,459,447,465
2025-02-20 15:53:57.094,-314.0,-154.0,976.0,-1.0,-1.0,-1.0,127,109,100,130,119,460,450,466
2025-02-20 15:53:57.114,-315.0,-153.0,973.0,-2.0,-1.0,-2.0,125,109,100,130,118,463,452,466
2025-02-20 15:53:57.131,-314.0,-162.0,966.0,-2.0,-1.0,-2.0,126,109,100,131,119,463,456,467
2025-02-20 15:53:57.151,-316.0,-166.0,964.0,-1.0,-1.0,-2.0,126,109,100,130,119,464,459,466
2025-02-20 15:53:57.169,-314.0,-164.0,974.0,-2.0,-1.0,-2.0,126,109,100,130,120,464,464,467
2025-02-20 15:53:57.188,-318.0,-153.0,974.0,-3.0,0.0,-2.0,127,108,99,131,119,464,469,466
2025-02-20 15:53:57.206,-311.0,-158.0,969.0,-3.0,0.0,-2.0,126,109,100,131,119,466,471,467
2025-02-20 15:53:57.222,-312.0,-165.0,964.0,-2.0,1.0,-2.0,127,109,101,130,119,466,472,467
2025-02-20 15:53:57.246,-326.0,-157.0,958.0,-1.0,1.0,-1.0,126,109,100,131,120,466,473,467
2025-02-20 15:53:57.265,-321.0,-150.0,950.0,-1.0,-1.0,-2.0,126,109,100,130,120,467,473,467
2025-02-20 15:53:57.283,-310.0,-157.0,955.0,0.0,-1.0,-2.0,125,109,100,130,119,465,472,467
2025-02-20 15:53:57.302,-315.0,-153.0,961.0,1.0,0.0,-2.0,126,109,100,130,119,466,470,468
2025-02-20 15:53:57.323,-309.0,-160.0,974.0,0.0,-1.0,-2.0,126,109,100,130,119,463,466,467
2025-02-20 15:53:57.339,-302.0,-171.0,975.0,-1.0,0.0,-1.0,126,108,99,131,119,463,462,468
2025-02-20 15:53:57.358,-304.0,-179.0,964.0,-1.0,0.0,-1.0,126,109,100,131,119,463,458,467
2025-02-20 15:53:57.381,-317.0,-167.0,958.0,0.0,1.0,-1.0,126,108,100,130,119,461,456,468
2025-02-20 15:53:57.398,-316.0,-160.0,953.0,0.0,0.0,-1.0,126,109,100,130,119,462,454,468
2025-02-20 15:53:57.417,-315.0,-165.0,955.0,-1.0,0.0,-1.0,126,109,99,130,119,461,453,468
2025-02-20 15:53:57.438,-315.0,-168.0,957.0,-2.0,0.0,-1.0,126,109,100,130,120,462,454,468
2025-02-20 15:53:57.454,-313.0,-172.0,953.0,-1.0,0.0,-1.0,126,109,100,130,119,463,455,467
2025-02-20 15:53:57.475,-314.0,-159.0,947.0,-1.0,-1.0,-1.0,126,109,100,131,119,464,458,467
2025-02-20 15:53:57.494,-320.0,-163.0,944.0,-1.0,-1.0,-1.0,126,109,100,130,119,465,462,467
2025-02-20 15:53:57.512,-322.0,-168.0,952.0,0.0,-2.0,-1.0,126,109,100,130,119,467,464,466
2025-02-20 15:53:57.532,-315.0,-162.0,960.0,0.0,-2.0,0.0,126,108,100,130,119,468,471,465
2025-02-20 15:53:57.549,-318.0,-161.0,962.0,-1.0,-1.0,-1.0,126,108,100,129,120,470,472,466
2025-02-20 15:53:57.569,-318.0,-157.0,953.0,-2.0,-1.0,-1.0,127,108,100,130,119,473,477,465
2025-02-20 15:53:57.589,-318.0,-161.0,954.0,-1.0,-2.0,-1.0,126,108,101,131,119,475,478,465
2025-02-20 15:53:57.607,-310.0,-158.0,958.0,0.0,-2.0,-1.0,126,109,100,130,119,474,479,466
2025-02-20 15:53:57.627,-310.0,-158.0,966.0,-2.0,-2.0,-1.0,127,109,100,130,120,476,479,467
2025-02-20 15:53:57.646,-308.0,-161.0,964.0,-3.0,-2.0,-1.0,127,109,100,130,119,476,479,467
2025-02-20 15:53:57.664,-307.0,-160.0,962.0,-3.0,-2.0,-1.0,126,109,100,129,120,474,477,469
2025-02-20 15:53:57.683,-306.0,-162.0,962.0,-3.0,-1.0,-1.0,126,108,100,129,120,473,474,468
2025-02-20 15:53:57.696,-304.0,-160.0,966.0,-2.0,-2.0,-1.0,126,109,101,131,120,474,470,470
2025-02-20 15:53:57.720,-305.0,-156.0,971.0,-3.0,-1.0,-1.0,126,109,100,130,119,471,466,469
2025-02-20 15:53:57.740,-308.0,-152.0,976.0,-3.0,-1.0,-1.0,126,109,101,130,119,471,461,470
2025-02-20 15:53:57.758,-307.0,-146.0,965.0,-3.0,-1.0,-1.0,126,109,100,131,119,471,458,472
2025-02-20 15:53:57.776,-318.0,-146.0,970.0,-1.0,-1.0,-1.0,126,108,100,131,119,471,455,471
2025-02-20 15:53:57.798,-323.0,-147.0,966.0,-1.0,-1.0,-2.0,127,109,100,130,119,471,453,472
2025-02-20 15:53:57.815,-323.0,-153.0,960.0,1.0,-1.0,-2.0,126,108,100,130,119,469,453,472
2025-02-20 15:53:57.834,-328.0,-155.0,961.0,1.0,-2.0,-2.0,127,109,100,131,120,470,454,472
2025-02-20 15:53:57.855,-314.0,-165.0,972.0,1.0,-2.0,-2.0,125,108,100,130,119,471,455,471
2025-02-20 15:53:57.871,-309.0,-167.0,986.0,1.0,-1.0,-2.0,127,109,99,129,119,472,458,471
2025-02-20 15:53:57.891,-304.0,-160.0,982.0,0.0,0.0,-2.0,126,109,100,130,119,472,462,470
2025-02-20 15:53:57.908,-308.0,-168.0,981.0,-1.0,1.0,-2.0,127,109,99,130,119,473,465,469
2025-02-20 15:53:57.926,-312.0,-174.0,973.0,-2.0,1.0,-2.0,127,109,100,131,119,473,470,469
2025-02-20 15:53:57.949,-311.0,-175.0,958.0,-2.0,1.0,-2.0,126,109,100,129,119,474,474,468
2025-02-20 15:53:57.967,-318.0,-177.0,952.0,-3.0,0.0,-2.0,126,109,100,130,119,475,477,468
2025-02-20 15:53:57.986,-320.0,-179.0,951.0,-2.0,0.0,-1.0,126,108,100,131,119,474,478,467
2025-02-20 15:53:58.006,-311.0,-174.0,956.0,-1.0,0.0,0.0,126,109,100,130,118,475,478,467
2025-02-20 15:53:58.024,-317.0,-170.0,954.0,0.0,0.0,0.0,126,109,100,130,119,475,476,466
2025-02-20 15:53:58.044,-316.0,-159.0,957.0,-1.0,-1.0,0.0,126,109,100,130,119,475,474,466
2025-02-20 15:53:58.064,-309.0,-166.0,966.0,-1.0,-1.0,-1.0,127,109,101,131,120,475,472,466
2025-02-20 15:53:58.079,-309.0,-165.0,969.0,0.0,0.0,0.0,126,109,100,131,119,474,469,466
2025-02-20 15:53:58.101,-309.0,-160.0,961.0,0.0,0.0,0.0,126,109,99,130,119,474,465,466
2025-02-20 15:53:58.121,-310.0,-159.0,961.0,-1.0,-1.0,0.0,126,109,99,130,119,473,461,465
2025-02-20 15:53:58.138,-313.0,-164.0,955.0,-1.0,-1.0,0.0,126,109,99,130,119,472,459,465
2025-02-20 15:53:58.159,-313.0,-155.0,961.0,0.0,-1.0,0.0,127,109,101,131,120,471,456,465
2025-02-20 15:53:58.176,-301.0,-159.0,968.0,0.0,-1.0,0.0,126,108,100,130,119,471,455,465
2025-02-20 15:53:58.192,-301.0,-158.0,967.0,0.0,-1.0,0.0,126,109,100,130,118,471,455,466
2025-02-20 15:53:58.215,-312.0,-151.0,958.0,0.0,-1.0,0.0,126,108,100,134,120,471,457,467
2025-02-20 15:53:58.232,-318.0,-145.0,954.0,0.0,-1.0,0.0,126,108,104,131,119,472,459,466
2025-02-20 15:53:58.253,-321.0,-151.0,961.0,1.0,-1.0,-1.0,125,109,100,131,119,473,463,467
2025-02-20 15:53:58.273,-321.0,-147.0,960.0,1.0,-1.0,-1.0,126,108,100,130,119,473,467,468
2025-02-20 15:53:58.290,-314.0,-145.0,958.0,-1.0,-1.0,-2.0,127,109,100,130,119,475,472,468
2025-02-20 15:53:58.301,-308.0,-159.0,956.0,-2.0,-2.0,-2.0,127,109,100,130,119,476,475,467
2025-02-20 15:53:58.330,-302.0,-164.0,969.0,0.0,-2.0,-2.0,126,109,99,131,120,477,478,467
2025-02-20 15:53:58.344,-306.0,-163.0,972.0,1.0,-1.0,-1.0,126,109,100,131,119,477,480,467
2025-02-20 15:53:58.361,-317.0,-151.0,974.0,0.0,-1.0,-1.0,129,109,100,130,119,478,480,468
2025-02-20 15:53:58.388,-315.0,-148.0,971.0,-1.0,-1.0,-1.0,126,108,100,130,119,478,481,467
2025-02-20 15:53:58.405,-317.0,-153.0,963.0,-1.0,-1.0,-2.0,126,109,100,130,119,478,479,467
2025-02-20 15:53:58.425,-316.0,-154.0,967.0,0.0,-1.0,-2.0,126,109,100,130,119,477,476,468
2025-02-20 15:53:58.442,-313.0,-164.0,964.0,-1.0,-1.0,-2.0,126,109,100,130,119,476,473,468
2025-02-20 15:53:58.462,-312.0,-163.0,968.0,0.0,0.0,-2.0,126,109,100,130,119,476,470,469
2025-02-20 15:53:58.482,-313.0,-166.0,962.0,0.0,0.0,-2.0,126,108,100,131,119,474,465,469
2025-02-20 15:53:58.500,-317.0,-166.0,960.0,-1.0,-1.0,-1.0,125,109,100,130,119,474,463,469
2025-02-20 15:53:58.519,-306.0,-171.0,965.0,-2.0,-1.0,-1.0,126,109,100,130,119,473,461,470
2025-02-20 15:53:58.540,-307.0,-176.0,960.0,-2.0,0.0,0.0,126,110,100,130,119,473,457,469
2025-02-20 15:53:58.557,-315.0,-172.0,958.0,-2.0,-1.0,0.0,126,109,100,129,119,473,457,470
2025-02-20 15:53:58.576,-311.0,-167.0,958.0,-2.0,-1.0,0.0,126,109,100,129,119,473,458,469
2025-02-20 15:53:58.596,-307.0,-166.0,959.0,-2.0,-1.0,0.0,126,109,100,131,119,473,458,470
2025-02-20 15:53:58.613,-304.0,-161.0,966.0,-2.0,-1.0,0.0,127,109,100,130,120,473,460,470
2025-02-20 15:53:58.633,-309.0,-162.0,968.0,-2.0,-1.0,0.0,126,109,101,130,119,473,464,469
2025-02-20 15:53:58.649,-307.0,-163.0,966.0,-3.0,-1.0,1.0,126,109,100,131,120,475,468,469
2025-02-20 15:53:58.671,-312.0,-156.0,958.0,-2.0,0.0,0.0,127,109,100,130,119,475,471,468
2025-02-20 15:53:58.691,-317.0,-148.0,958.0,-1.0,-1.0,0.0,126,109,100,131,120,476,474,468
2025-02-20 15:53:58.708,-315.0,-143.0,959.0,0.0,-1.0,-1.0,126,109,100,130,119,476,477,467
2025-02-20 15:53:58.729,-319.0,-147.0,957.0,-1.0,-1.0,-1.0,126,109,100,130,119,478,479,466
2025-02-20 15:53:58.749,-314.0,-148.0,964.0,-1.0,-2.0,-1.0,126,109,100,130,120,477,479,465
2025-02-20 15:53:58.765,-307.0,-153.0,966.0,-1.0,-2.0,-2.0,126,109,100,130,120,477,479,466
2025-02-20 15:53:58.786,-310.0,-152.0,973.0,-1.0,-1.0,-1.0,126,109,101,131,119,476,479,465
2025-02-20 15:53:58.805,-314.0,-156.0,969.0,0.0,-1.0,-1.0,127,108,100,130,120,476,477,465
2025-02-20 15:53:58.823,-313.0,-152.0,971.0,-2.0,-1.0,-1.0,126,109,100,130,120,474,474,465
2025-02-20 15:53:58.842,-308.0,-161.0,975.0,-1.0,-1.0,-1.0,126,109,100,130,119,472,470,466
2025-02-20 15:53:58.860,-312.0,-163.0,973.0,-1.0,0.0,-1.0,126,109,100,130,119,471,465,465
2025-02-20 15:53:58.877,-317.0,-159.0,964.0,-2.0,0.0,-1.0,126,108,100,130,119,471,463,467
2025-02-20 15:53:58.900,-319.0,-161.0,964.0,-1.0,-1.0,-1.0,126,109,100,130,119,470,460,467
2025-02-20 15:53:58.915,-311.0,-166.0,966.0,-1.0,-1.0,-1.0,127,109,100,131,119,470,458,468
2025-02-20 15:53:58.937,-312.0,-162.0,976.0,0.0,-1.0,-1.0,126,109,99,130,119,469,457,468
2025-02-20 15:53:58.957,-316.0,-158.0,973.0,-1.0,0.0,-1.0,126,109,100,130,120,469,458,469
2025-02-20 15:53:58.975,-314.0,-160.0,966.0,-1.0,0.0,-1.0,126,109,100,130,119,468,460,468
2025-02-20 15:53:58.994,-318.0,-158.0,959.0,-1.0,0.0,0.0,126,108,100,130,119,471,462,469
2025-02-20 15:53:59.011,-344.0,-177.0,977.0,0.0,2.0,1.0,126,109,100,130,119,472,466,469
2025-02-20 15:53:59.031,-308.0,-154.0,953.0,-2.0,-1.0,-1.0,126,109,101,131,119,472,469,468
2025-02-20 15:53:59.052,-304.0,-158.0,950.0,1.0,-1.0,0.0,127,109,100,131,119,474,472,469
2025-02-20 15:53:59.066,-312.0,-154.0,962.0,0.0,-1.0,0.0,127,108,100,131,119,475,476,467
2025-02-20 15:53:59.083,-311.0,-156.0,964.0,-2.0,-1.0,0.0,126,109,100,130,119,475,478,467
2025-02-20 15:53:59.109,-309.0,-160.0,957.0,-1.0,-1.0,-1.0,126,109,100,130,119,476,479,466
2025-02-20 15:53:59.126,-309.0,-166.0,958.0,0.0,-1.0,0.0,127,109,100,130,119,477,480,465
2025-02-20 15:53:59.146,-311.0,-153.0,960.0,-1.0,-1.0,0.0,126,109,100,130,119,476,478,466
2025-02-20 15:53:59.166,-311.0,-156.0,957.0,-3.0,-2.0,0.0,126,109,100,130,119,476,477,466
2025-02-20 15:53:59.182,-315.0,-158.0,960.0,-2.0,-2.0,0.0,126,108,100,130,119,476,474,467
2025-02-20 15:53:59.203,-313.0,-157.0,958.0,-1.0,-2.0,-1.0,126,109,100,130,119,472,470,467
2025-02-20 15:53:59.223,-310.0,-156.0,965.0,0.0,-2.0,-1.0,126,109,99,130,120,473,465,469
2025-02-20 15:53:59.240,-317.0,-153.0,969.0,-1.0,-1.0,0.0,126,108,99,130,120,471,463,469
2025-02-20 15:53:59.261,-312.0,-156.0,969.0,-2.0,-1.0,0.0,127,109,99,130,119,470,459,471
2025-02-20 15:53:59.279,-317.0,-150.0,963.0,-1.0,-1.0,0.0,126,109,100,130,119,468,458,470
2025-02-20 15:53:59.297,-321.0,-158.0,966.0,-1.0,-1.0,-1.0,126,109,100,130,119,467,457,471
2025-02-20 15:53:59.318,-313.0,-151.0,970.0,-1.0,-2.0,-1.0,126,109,99,129,120,469,456,472
2025-02-20 15:53:59.334,-305.0,-159.0,975.0,-1.0,-1.0,-1.0,126,108,100,130,119,467,458,471
2025-02-20 15:53:59.355,-307.0,-157.0,973.0,-2.0,0.0,0.0,126,109,100,130,120,468,458,472
2025-02-20 15:53:59.375,-315.0,-155.0,964.0,-1.0,-1.0,-1.0,126,108,100,130,119,469,462,472
2025-02-20 15:53:59.392,-314.0,-144.0,965.0,0.0,-1.0,-1.0,127,109,101,131,116,470,465,472
2025-02-20 15:53:59.412,-312.0,-149.0,965.0,0.0,-1.0,-1.0,126,110,101,130,119,470,469,472
2025-02-20 15:53:59.432,-311.0,-147.0,970.0,-1.0,-1.0,-1.0,127,108,100,130,120,472,472,471
2025-02-20 15:53:59.448,-304.0,-157.0,967.0,-2.0,0.0,-1.0,127,109,101,130,119,472,476,470
2025-02-20 15:53:59.470,-312.0,-154.0,957.0,-1.0,0.0,-1.0,126,109,100,130,119,473,478,469
2025-02-20 15:53:59.490,-312.0,-151.0,953.0,-1.0,0.0,-2.0,126,109,101,130,120,473,480,469
2025-02-20 15:53:59.506,-313.0,-154.0,957.0,-1.0,-1.0,-2.0,124,109,99,130,119,473,480,467
2025-02-20 15:53:59.526,-307.0,-160.0,963.0,-1.0,-2.0,-1.0,123,109,100,131,120,472,478,466
2025-02-20 15:53:59.537,-305.0,-168.0,969.0,0.0,-1.0,-1.0,127,110,100,130,119,471,476,467
2025-02-20 15:53:59.564,-307.0,-160.0,972.0,0.0,0.0,-1.0,127,109,101,130,119,471,473,467
2025-02-20 15:53:59.584,-309.0,-157.0,966.0,-1.0,-1.0,-1.0,126,110,100,130,119,470,470,466
2025-02-20 15:53:59.601,-314.0,-158.0,960.0,-2.0,-2.0,-1.0,126,109,101,131,119,468,466,466
2025-02-20 15:53:59.621,-312.0,-164.0,963.0,-2.0,-2.0,-1.0,125,110,98,130,120,468,462,467
2025-02-20 15:53:59.641,-307.0,-165.0,971.0,0.0,-1.0,-1.0,127,108,99,130,119,467,459,466
2025-02-20 15:53:59.658,-311.0,-160.0,967.0,-1.0,0.0,0.0,127,109,102,129,119,466,458,467
2025-02-20 15:53:59.677,-316.0,-158.0,959.0,-2.0,-1.0,0.0,126,109,100,131,119,465,457,467
2025-02-20 15:53:59.699,-314.0,-159.0,963.0,-1.0,-2.0,-1.0,127,109,100,131,120,466,456,467
2025-02-20 15:53:59.715,-315.0,-150.0,968.0,0.0,-1.0,0.0,126,109,100,130,120,465,457,467
2025-02-20 15:53:59.733,-314.0,-151.0,963.0,-1.0,0.0,-1.0,126,108,100,130,119,465,459,466
2025-02-20 15:53:59.751,-316.0,-149.0,955.0,-2.0,-1.0,-1.0,126,109,99,130,120,466,462,465
2025-02-20 15:53:59.773,-312.0,-157.0,956.0,-2.0,-2.0,-1.0,126,108,101,130,119,467,466,464
2025-02-20 15:53:59.793,-303.0,-163.0,962.0,0.0,-1.0,-1.0,126,108,100,130,120,468,469,464
2025-02-20 15:53:59.810,-306.0,-160.0,970.0,0.0,-1.0,-1.0,126,109,99,130,119,468,473,464
2025-02-20 15:53:59.830,-313.0,-154.0,967.0,-2.0,-2.0,-1.0,126,109,101,131,120,468,475,463
2025-02-20 15:53:59.850,-304.0,-155.0,970.0,-2.0,-2.0,-1.0,126,109,100,130,119,470,478,463
2025-02-20 15:53:59.866,-307.0,-159.0,970.0,-2.0,-1.0,-1.0,126,109,100,130,119,470,479,462
2025-02-20 15:53:59.888,-310.0,-160.0,962.0,-2.0,-1.0,-1.0,126,109,100,130,120,471,478,461
2025-02-20 15:53:59.908,-314.0,-165.0,960.0,-1.0,-1.0,-1.0,126,108,100,130,119,469,477,461
2025-02-20 15:53:59.924,-311.0,-159.0,962.0,0.0,-1.0,0.0,126,108,100,130,119,469,474,461
2025-02-20 15:53:59.945,-310.0,-148.0,964.0,-1.0,-1.0,-1.0,126,108,100,130,119,469,472,462
2025-02-20 15:53:59.962,-308.0,-161.0,969.0,-2.0,-1.0,-1.0,126,109,100,131,119,468,467,461
2025-02-20 15:53:59.982,-317.0,-162.0,967.0,-1.0,-1.0,-1.0,126,109,100,131,120,466,464,462
2025-02-20 15:54:00.001,-309.0,-158.0,971.0,-1.0,-1.0,-1.0,126,108,100,130,120,466,461,463
2025-02-20 15:54:00.019,-309.0,-155.0,967.0,-1.0,-1.0,-1.0,126,108,100,130,119,466,458,463
2025-02-20 15:54:00.036,-315.0,-162.0,963.0,-2.0,-1.0,-1.0,126,109,99,129,120,465,456,463
2025-02-20 15:54:00.059,-310.0,-158.0,968.0,-2.0,-2.0,-1.0,126,108,99,130,119,464,456,463
2025-02-20 15:54:00.077,-304.0,-162.0,973.0,-1.0,-1.0,-1.0,126,109,101,130,119,465,456,464
2025-02-20 15:54:00.096,-304.0,-157.0,973.0,-1.0,-1.0,-1.0,126,109,102,129,120,465,456,464
2025-02-20 15:54:00.113,-306.0,-158.0,969.0,0.0,-1.0,0.0,126,108,101,130,115,466,459,464
2025-02-20 15:54:00.133,-310.0,-150.0,968.0,-1.0,0.0,-1.0,126,109,100,130,119,466,463,464
2025-02-20 15:54:00.152,-304.0,-149.0,964.0,-2.0,0.0,-1.0,126,109,101,129,119,467,467,463
2025-02-20 15:54:00.174,-309.0,-157.0,961.0,-2.0,-1.0,-1.0,126,108,100,131,119,467,471,460
2025-02-20 15:54:00.191,-307.0,-162.0,959.0,-1.0,-1.0,0.0,126,109,100,131,120,468,473,461
2025-02-20 15:54:00.211,-308.0,-161.0,962.0,-1.0,0.0,0.0,126,109,100,130,119,470,477,461
2025-02-20 15:54:00.222,-310.0,-154.0,958.0,-1.0,-1.0,0.0,126,109,100,130,119,467,478,461
2025-02-20 15:54:00.248,-313.0,-149.0,961.0,-1.0,-1.0,-1.0,127,109,101,130,119,469,479,461
2025-02-20 15:54:00.268,-308.0,-153.0,969.0,-1.0,-2.0,-1.0,126,109,100,130,119,468,478,460
2025-02-20 15:54:00.284,-305.0,-158.0,969.0,-2.0,-1.0,-1.0,126,108,100,130,119,469,477,461
2025-02-20 15:54:00.305,-310.0,-157.0,960.0,-2.0,-1.0,-1.0,126,109,100,130,122,469,474,461
2025-02-20 15:54:00.325,-307.0,-158.0,962.0,-1.0,-1.0,-1.0,126,109,100,130,119,468,470,462
2025-02-20 15:54:00.342,-309.0,-158.0,970.0,0.0,-1.0,-1.0,127,109,101,131,119,467,467,463
2025-02-20 15:54:00.363,-302.0,-151.0,975.0,-1.0,-1.0,-1.0,126,109,101,129,119,466,464,463
2025-02-20 15:54:00.383,-304.0,-160.0,974.0,-2.0,-1.0,0.0,127,109,100,130,120,465,460,464
2025-02-20 15:54:00.400,-311.0,-165.0,961.0,-2.0,-1.0,-1.0,126,109,100,130,120,465,457,464
2025-02-20 15:54:00.419,-313.0,-154.0,961.0,0.0,-1.0,-1.0,126,108,100,130,119,463,456,466
2025-02-20 15:54:00.437,-311.0,-147.0,972.0,0.0,-1.0,-1.0,126,109,100,129,120,464,455,466
2025-02-20 15:54:00.457,-305.0,-147.0,981.0,-2.0,-1.0,-1.0,127,109,100,128,120,463,456,466
2025-02-20 15:54:00.477,-309.0,-151.0,976.0,-3.0,0.0,-1.0,126,109,100,130,120,463,458,467
2025-02-20 15:54:00.494,-311.0,-155.0,966.0,-2.0,0.0,-2.0,126,109,100,130,120,465,460,466
2025-02-20 15:54:00.514,-309.0,-157.0,953.0,0.0,1.0,-1.0,126,109,100,130,119,465,463,467
2025-02-20 15:54:00.534,-316.0,-152.0,945.0,-1.0,-1.0,-1.0,126,109,100,129,119,466,466,467
2025-02-20 15:54:00.551,-309.0,-153.0,955.0,-1.0,-3.0,-2.0,126,109,100,129,119,467,468,466
2025-02-20 15:54:00.571,-310.0,-155.0,970.0,-1.0,-2.0,-1.0,126,109,96,130,120,467,472,465
2025-02-20 15:54:00.591,-306.0,-151.0,979.0,-1.0,-1.0,-1.0,126,108,100,131,120,467,474,465
2025-02-20 15:54:00.608,-304.0,-150.0,979.0,-2.0,0.0,-2.0,126,109,100,130,119,468,475,464
2025-02-20 15:54:00.629,-308.0,-152.0,968.0,-4.0,0.0,-2.0,127,109,100,129,119,469,476,465
2025-02-20 15:54:00.648,-307.0,-162.0,956.0,-3.0,0.0,-2.0,126,109,100,130,119,468,477,463
2025-02-20 15:54:00.664,-314.0,-168.0,946.0,-1.0,-1.0,-2.0,127,109,100,130,119,468,476,463
2025-02-20 15:54:00.686,-314.0,-160.0,953.0,-1.0,-1.0,-2.0,126,109,100,125,118,467,474,464
2025-02-20 15:54:00.703,-304.0,-164.0,958.0,-2.0,-2.0,-2.0,126,108,100,129,120,466,471,464
2025-02-20 15:54:00.720,-295.0,-172.0,965.0,-2.0,-1.0,-2.0,126,109,100,130,119,465,466,464
2025-02-20 15:54:00.743,-307.0,-172.0,960.0,-1.0,-1.0,-1.0,127,109,100,130,119,464,463,465
2025-02-20 15:54:00.760,-299.0,-170.0,969.0,-1.0,-2.0,-1.0,126,108,100,130,120,463,460,464
2025-02-20 15:54:00.780,-300.0,-168.0,971.0,-1.0,-2.0,0.0,126,108,101,130,119,462,458,465
2025-02-20 15:54:00.800,-300.0,-164.0,968.0,0.0,-2.0,0.0,126,109,100,129,119,462,456,465
2025-02-20 15:54:00.817,-298.0,-161.0,970.0,0.0,-2.0,0.0,127,109,99,129,119,462,455,465
2025-02-20 15:54:00.837,-304.0,-161.0,970.0,2.0,-2.0,1.0,127,110,99,131,119,461,455,465
2025-02-20 15:54:00.857,-310.0,-150.0,980.0,2.0,-2.0,0.0,126,109,100,131,119,461,455,465
2025-02-20 15:54:00.874,-305.0,-153.0,987.0,1.0,-2.0,0.0,127,109,100,131,119,462,458,465
2025-02-20 15:54:00.895,-305.0,-171.0,989.0,2.0,0.0,0.0,126,109,100,130,119,464,460,465
2025-02-20 15:54:00.911,-308.0,-169.0,979.0,3.0,1.0,1.0,126,109,100,130,120,465,464,465
2025-02-20 15:54:00.931,-313.0,-161.0,969.0,1.0,0.0,1.0,126,109,100,130,120,466,467,465
2025-02-20 15:54:00.952,-318.0,-171.0,961.0,4.0,1.0,2.0,126,109,100,129,119,467,471,464
2025-02-20 15:54:00.968,-318.0,-152.0,956.0,7.0,0.0,1.0,126,109,99,130,119,467,473,463
2025-02-20 15:54:00.989,-320.0,-159.0,975.0,5.0,0.0,1.0,126,108,100,131,119,467,473,463
2025-02-20 15:54:01.010,-308.0,-177.0,981.0,4.0,0.0,2.0,126,109,100,130,120,468,473,463
2025-02-20 15:54:01.024,-313.0,-164.0,981.0,4.0,1.0,3.0,126,109,100,130,119,467,472,463
2025-02-20 15:54:01.046,-314.0,-152.0,979.0,2.0,1.0,4.0,126,109,100,130,119,466,470,462
2025-02-20 15:54:01.067,-322.0,-145.0,972.0,2.0,1.0,3.0,126,109,100,130,119,466,467,462
2025-02-20 15:54:01.084,-325.0,-127.0,979.0,4.0,1.0,3.0,127,109,100,131,119,463,464,462
2025-02-20 15:54:01.102,-322.0,-124.0,980.0,2.0,1.0,2.0,126,109,100,130,120,463,461,463
2025-02-20 15:54:01.121,-318.0,-151.0,979.0,3.0,2.0,2.0,126,108,100,130,120,462,458,462
2025-02-20 15:54:01.140,-321.0,-152.0,979.0,6.0,2.0,3.0,127,110,100,130,120,463,457,464
2025-02-20 15:54:01.161,-319.0,-135.0,987.0,5.0,1.0,3.0,126,109,101,130,119,463,450,463
2025-02-20 15:54:01.178,-321.0,-134.0,994.0,2.0,1.0,4.0,126,109,100,130,120,459,450,464
2025-02-20 15:54:01.198,-301.0,-142.0,1001.0,0.0,4.0,4.0,126,109,100,129,119,462,450,466
2025-02-20 15:54:01.218,-295.0,-127.0,1007.0,1.0,5.0,5.0,127,109,99,130,119,463,450,465
2025-02-20 15:54:01.235,-319.0,-116.0,987.0,-1.0,7.0,5.0,126,109,100,131,120,462,453,467
2025-02-20 15:54:01.256,-326.0,-128.0,958.0,2.0,6.0,5.0,127,109,100,130,119,464,457,466
2025-02-20 15:54:01.275,-318.0,-106.0,936.0,1.0,5.0,6.0,127,109,101,130,119,465,464,467
2025-02-20 15:54:01.293,-334.0,-92.0,956.0,2.0,4.0,6.0,126,109,101,129,120,468,470,467
2025-02-20 15:54:01.313,-343.0,-80.0,934.0,2.0,3.0,4.0,126,109,99,130,119,467,474,468
2025-02-20 15:54:01.330,-350.0,-85.0,943.0,4.0,0.0,3.0,126,109,100,131,119,468,475,467
2025-02-20 15:54:01.350,-335.0,-62.0,951.0,5.0,0.0,1.0,126,109,100,130,120,469,474,469
2025-02-20 15:54:01.369,-330.0,-76.0,963.0,5.0,2.0,0.0,126,109,100,130,120,469,474,468
2025-02-20 15:54:01.387,-330.0,-88.0,960.0,4.0,1.0,-2.0,126,109,100,131,120,468,479,468
2025-02-20 15:54:01.407,-316.0,-87.0,965.0,2.0,1.0,-3.0,126,109,100,131,120,467,485,467
2025-02-20 15:54:01.427,-322.0,-115.0,950.0,0.0,2.0,-3.0,127,109,100,131,120,465,489,466
2025-02-20 15:54:01.445,-323.0,-116.0,946.0,-1.0,2.0,-3.0,126,109,102,131,120,464,492,466
2025-02-20 15:54:01.464,-325.0,-131.0,959.0,-3.0,2.0,-3.0,126,109,100,130,118,463,485,467
2025-02-20 15:54:01.484,-314.0,-138.0,938.0,2.0,2.0,-1.0,126,109,100,130,119,461,474,465
2025-02-20 15:54:01.501,-328.0,-119.0,937.0,2.0,0.0,0.0,126,108,100,129,119,460,463,466
2025-02-20 15:54:01.521,-337.0,-120.0,944.0,2.0,-2.0,0.0,126,109,100,131,119,459,453,466
2025-02-20 15:54:01.542,-335.0,-127.0,953.0,2.0,-2.0,0.0,126,109,100,130,119,459,440,466
2025-02-20 15:54:01.559,-339.0,-111.0,953.0,3.0,-3.0,1.0,127,109,100,131,119,458,438,466
2025-02-20 15:54:01.579,-332.0,-108.0,968.0,3.0,-2.0,1.0,126,109,100,130,119,458,444,465
2025-02-20 15:54:01.595,-330.0,-106.0,988.0,3.0,-1.0,1.0,126,109,99,130,120,460,450,465
2025-02-20 15:54:01.616,-334.0,-95.0,983.0,2.0,0.0,0.0,125,109,99,130,119,460,451,466
2025-02-20 15:54:01.634,-335.0,-97.0,959.0,-1.0,-1.0,0.0,126,109,100,131,119,459,457,465
2025-02-20 15:54:01.653,-327.0,-106.0,976.0,1.0,-1.0,0.0,127,109,101,130,119,462,467,465
2025-02-20 15:54:01.672,-323.0,-99.0,968.0,1.0,0.0,0.0,126,108,99,130,119,464,474,465
2025-02-20 15:54:01.689,-332.0,-99.0,977.0,0.0,1.0,0.0,126,109,101,131,120,465,476,465
2025-02-20 15:54:01.711,-334.0,-99.0,961.0,0.0,1.0,0.0,127,109,100,130,120,465,477,464
2025-02-20 15:54:01.730,-334.0,-92.0,959.0,-2.0,0.0,0.0,126,109,101,130,119,466,477,463
2025-02-20 15:54:01.751,-337.0,-94.0,962.0,-2.0,0.0,0.0,126,109,101,130,119,465,474,463
2025-02-20 15:54:01.768,-338.0,-105.0,965.0,0.0,0.0,0.0,127,109,96,130,120,466,472,463
2025-02-20 15:54:01.786,-327.0,-103.0,952.0,2.0,1.0,0.0,127,109,99,130,119,465,473,462
2025-02-20 15:54:01.804,-333.0,-90.0,964.0,2.0,1.0,0.0,126,109,99,130,119,464,466,463
2025-02-20 15:54:01.824,-340.0,-87.0,960.0,-1.0,0.0,0.0,126,109,99,130,120,464,462,464
2025-02-20 15:54:01.845,-331.0,-98.0,960.0,-1.0,0.0,0.0,126,109,100,130,119,463,458,463
2025-02-20 15:54:01.862,-337.0,-101.0,964.0,0.0,0.0,0.0,127,108,100,130,119,463,456,463
2025-02-20 15:54:01.881,-339.0,-92.0,957.0,-1.0,0.0,-1.0,126,108,101,130,119,461,453,464
2025-02-20 15:54:01.903,-334.0,-98.0,957.0,-2.0,0.0,-1.0,127,109,102,131,120,461,453,465
2025-02-20 15:54:01.920,-328.0,-104.0,966.0,-1.0,0.0,0.0,126,109,99,130,119,461,454,464
2025-02-20 15:54:01.939,-336.0,-89.0,960.0,0.0,1.0,0.0,127,109,100,130,120,461,452,465
2025-02-20 15:54:01.959,-343.0,-87.0,949.0,-2.0,0.0,0.0,126,108,101,130,119,460,452,465
2025-02-20 15:54:01.974,-338.0,-96.0,955.0,-3.0,-1.0,0.0,127,109,100,129,118,460,453,465
2025-02-20 15:54:01.997,-336.0,-99.0,953.0,-1.0,-1.0,0.0,127,109,101,130,120,462,458,465
2025-02-20 15:54:02.013,-342.0,-83.0,945.0,-1.0,0.0,0.0,125,109,100,130,119,461,461,464
2025-02-20 15:54:02.034,-342.0,-85.0,947.0,-1.0,-1.0,-1.0,125,109,100,130,120,462,464,465
2025-02-20 15:54:02.053,-340.0,-99.0,954.0,-1.0,-2.0,-2.0,126,109,100,130,119,463,465,464
2025-02-20 15:54:02.071,-332.0,-98.0,957.0,0.0,-2.0,-1.0,126,109,100,131,119,464,469,463
2025-02-20 15:54:02.091,-336.0,-102.0,966.0,-2.0,-2.0,-1.0,127,109,101,130,119,465,470,463
2025-02-20 15:54:02.109,-338.0,-101.0,965.0,-2.0,-3.0,-1.0,126,109,100,130,120,466,474,464
2025-02-20 15:54:02.128,-338.0,-104.0,969.0,-1.0,-2.0,-1.0,126,109,100,130,119,467,476,462
2025-02-20 15:54:02.148,-339.0,-99.0,968.0,0.0,-1.0,-1.0,127,109,100,131,119,467,476,462
2025-02-20 15:54:02.168,-337.0,-101.0,974.0,-2.0,-1.0,-1.0,127,109,100,130,120,466,476,463
2025-02-20 15:54:02.186,-333.0,-105.0,978.0,-2.0,-2.0,0.0,126,109,99,130,120,466,474,463
2025-02-20 15:54:02.206,-336.0,-99.0,974.0,-2.0,-1.0,0.0,127,109,100,130,120,464,471,463
2025-02-20 15:54:02.226,-340.0,-93.0,962.0,-2.0,-1.0,0.0,126,109,101,130,119,463,469,466
2025-02-20 15:54:02.242,-343.0,-99.0,965.0,-2.0,-2.0,0.0,127,108,100,131,119,462,464,465
2025-02-20 15:54:02.263,-342.0,-104.0,970.0,0.0,-1.0,0.0,127,109,100,131,119,461,460,465
2025-02-20 15:54:02.278,-340.0,-91.0,965.0,0.0,-1.0,0.0,126,108,101,130,119,460,457,466
2025-02-20 15:54:02.300,-340.0,-84.0,970.0,-2.0,-1.0,0.0,127,109,100,130,120,461,454,466
2025-02-20 15:54:02.320,-337.0,-98.0,965.0,-1.0,-1.0,-1.0,126,109,100,130,119,460,455,467
2025-02-20 15:54:02.338,-333.0,-89.0,965.0,-1.0,-1.0,0.0,127,108,100,130,119,461,455,467
2025-02-20 15:54:02.358,-334.0,-89.0,965.0,-1.0,-1.0,0.0,126,109,100,130,119,461,458,468
2025-02-20 15:54:02.377,-334.0,-89.0,958.0,-2.0,-2.0,0.0,126,109,100,130,120,462,459,467
2025-02-20 15:54:02.394,-333.0,-95.0,967.0,-1.0,-2.0,-1.0,126,109,100,131,120,462,462,466
2025-02-20 15:54:02.414,-330.0,-89.0,964.0,1.0,-1.0,-1.0,126,108,100,130,119,463,465,466
2025-02-20 15:54:02.435,-337.0,-82.0,964.0,1.0,-1.0,-2.0,127,109,101,131,120,464,467,466
2025-02-20 15:54:02.452,-345.0,-81.0,965.0,1.0,-1.0,-2.0,126,108,100,131,119,465,471,466
2025-02-20 15:54:02.471,-336.0,-88.0,962.0,0.0,-2.0,-2.0,126,109,101,130,119,466,473,466
2025-02-20 15:54:02.487,-328.0,-94.0,975.0,-2.0,-2.0,-2.0,126,109,101,130,119,466,475,465
2025-02-20 15:54:02.507,-327.0,-101.0,971.0,-1.0,-1.0,-1.0,126,108,100,131,119,466,476,464
2025-02-20 15:54:02.528,-337.0,-97.0,961.0,-1.0,-1.0,-1.0,127,109,101,130,120,467,476,465
2025-02-20 15:54:02.544,-332.0,-96.0,968.0,0.0,-2.0,-1.0,126,107,100,130,119,466,474,464
2025-02-20 15:54:02.566,-325.0,-68.0,990.0,1.0,-1.0,-1.0,126,109,99,130,120,466,470,465
2025-02-20 15:54:02.585,-337.0,-88.0,972.0,-3.0,-2.0,0.0,127,109,100,130,120,465,467,464
2025-02-20 15:54:02.603,-336.0,-104.0,962.0,-2.0,-1.0,-1.0,126,109,100,129,120,464,463,464
2025-02-20 15:54:02.623,-338.0,-99.0,975.0,-1.0,-1.0,-1.0,126,109,100,131,120,463,460,465
2025-02-20 15:54:02.643,-334.0,-96.0,968.0,0.0,-1.0,-1.0,126,109,100,130,119,462,458,465
2025-02-20 15:54:02.660,-333.0,-95.0,963.0,-1.0,-1.0,-1.0,126,109,100,130,119,463,455,466
2025-02-20 15:54:02.681,-334.0,-94.0,958.0,-2.0,-1.0,-1.0,126,108,100,130,119,461,453,466
2025-02-20 15:54:02.696,-332.0,-92.0,955.0,-2.0,-2.0,-1.0,127,109,100,131,120,460,453,467
2025-02-20 15:54:02.714,-335.0,-88.0,943.0,-2.0,-2.0,-1.0,127,109,99,130,119,461,455,468
2025-02-20 15:54:02.737,-335.0,-94.0,948.0,-2.0,-4.0,-1.0,126,109,101,130,119,461,457,468
2025-02-20 15:54:02.756,-331.0,-101.0,962.0,-1.0,-4.0,-1.0,127,108,100,130,120,463,458,467
2025-02-20 15:54:02.776,-319.0,-89.0,976.0,-1.0,-2.0,0.0,126,109,100,130,120,463,460,467
2025-02-20 15:54:02.795,-334.0,-94.0,967.0,-4.0,-3.0,-1.0,127,109,99,131,119,465,464,467
2025-02-20 15:54:02.813,-336.0,-101.0,951.0,-5.0,-2.0,-2.0,127,108,99,131,122,465,468,466
2025-02-20 15:54:02.832,-339.0,-90.0,937.0,-3.0,-3.0,-1.0,127,111,100,131,119,467,470,465
2025-02-20 15:54:02.852,-341.0,-93.0,936.0,-3.0,-7.0,-2.0,127,109,100,130,119,465,473,464
2025-02-20 15:54:02.870,-345.0,-78.0,958.0,-5.0,-8.0,-3.0,126,106,99,130,119,464,474,465
2025-02-20 15:54:02.890,-341.0,-79.0,971.0,-9.0,-12.0,-6.0,126,109,99,129,119,465,476,464
2025-02-20 15:54:02.910,-344.0,-44.0,1326.0,-1.0,-1.0,-7.0,125,108,98,129,119,465,474,463
2025-02-20 15:54:02.926,-354.0,-156.0,1126.0,-15.0,-21.0,-12.0,127,108,96,129,118,464,470,462
2025-02-20 15:54:02.947,-317.0,-88.0,1388.0,-23.0,-31.0,-5.0,126,106,91,126,113,463,468,462
2025-02-20 15:54:02.963,-182.0,-6.0,1498.0,-89.0,2.0,-2.0,126,103,85,121,104,462,464,465
2025-02-20 15:54:02.984,-334.0,-174.0,1895.0,-155.0,43.0,20.0,126,96,77,111,91,462,459,466
2025-02-20 15:54:03.005,-119.0,-302.0,1832.0,-205.0,107.0,37.0,126,86,68,97,78,466,448,466
2025-02-20 15:54:03.021,-120.0,-424.0,1583.0,-224.0,169.0,37.0,126,76,61,86,66,458,437,463
2025-02-20 15:54:03.041,-253.0,-575.0,1290.0,-217.0,203.0,32.0,125,68,57,77,58,449,442,454
2025-02-20 15:54:03.060,-254.0,-532.0,1194.0,-205.0,245.0,48.0,126,60,52,72,54,440,452,449
2025-02-20 15:54:03.079,-240.0,-533.0,948.0,-197.0,266.0,64.0,124,56,49,67,52,446,464,452
2025-02-20 15:54:03.099,-402.0,-623.0,959.0,-180.0,275.0,87.0,124,54,47,64,51,446,478,460
2025-02-20 15:54:03.119,-182.0,-283.0,669.0,-111.0,299.0,79.0,118,52,47,62,52,448,482,469
2025-02-20 15:54:03.136,-645.0,-195.0,-121.0,-147.0,228.0,74.0,111,51,45,59,50,437,468,485
2025-02-20 15:54:03.156,-863.0,-156.0,-145.0,-141.0,148.0,58.0,106,50,45,59,49,437,466,485
2025-02-20 15:54:03.169,-592.0,225.0,-119.0,-140.0,116.0,51.0,101,49,43,57,47,449,474,481
2025-02-20 15:54:03.192,-648.0,618.0,-495.0,-152.0,85.0,53.0,97,49,43,55,45,466,468,476
2025-02-20 15:54:03.213,-851.0,857.0,-1179.0,-94.0,52.0,17.0,92,48,43,54,45,494,460,468
2025-02-20 15:54:03.229,-1319.0,1209.0,-1606.0,34.0,-48.0,-128.0,89,47,43,55,45,502,462,461
2025-02-20 15:54:03.250,-1251.0,1801.0,-1819.0,109.0,-197.0,-321.0,88,48,44,54,45,477,494,461
2025-02-20 15:54:03.271,-1259.0,1502.0,-2276.0,120.0,-484.0,-526.0,88,48,42,56,45,446,509,463
2025-02-20 15:54:03.287,517.0,1689.0,-2090.0,65.0,-879.0,-658.0,89,49,43,55,47,475,466,468
2025-02-20 15:54:03.308,3775.0,34.0,-1135.0,-131.0,-1164.0,-597.0,90,48,44,58,50,470,448,468
2025-02-20 15:54:03.328,4887.0,-4451.0,3488.0,-212.0,-512.0,-194.0,96,50,46,60,52,469,447,462
2025-02-20 15:54:03.345,4057.0,-4137.0,2813.0,21.0,104.0,11.0,93,51,45,61,53,491,471,451
2025-02-20 15:54:03.365,1505.0,-2602.0,1354.0,221.0,273.0,25.0,93,50,45,59,52,451,564,446
2025-02-20 15:54:03.380,540.0,-1106.0,851.0,12.0,256.0,116.0,94,52,44,58,50,421,615,447
2025-02-20 15:54:03.402,282.0,-1086.0,695.0,-154.0,137.0,154.0,95,51,46,59,51,412,652,451
2025-02-20 15:54:03.422,163.0,-1511.0,765.0,-170.0,144.0,183.0,95,51,47,61,52,395,574,460
2025-02-20 15:54:03.439,299.0,-1542.0,663.0,-91.0,167.0,204.0,95,50,48,62,52,407,447,468
2025-02-20 15:54:03.459,-5.0,-852.0,608.0,-105.0,210.0,196.0,94,52,48,60,53,431,352,471
2025-02-20 15:54:03.478,-189.0,-707.0,342.0,-44.0,155.0,186.0,94,52,48,62,54,495,329,467
2025-02-20 15:54:03.496,-389.0,-483.0,262.0,-40.0,128.0,190.0,93,52,48,62,54,495,307,463
2025-02-20 15:54:03.516,-363.0,-300.0,242.0,-39.0,112.0,194.0,92,51,49,61,54,485,329,460
2025-02-20 15:54:03.537,-337.0,-319.0,216.0,-37.0,115.0,193.0,92,51,48,61,54,465,437,469
2025-02-20 15:54:03.553,-338.0,-161.0,204.0,-14.0,127.0,200.0,92,51,49,64,55,479,517,475
2025-02-20 15:54:03.574,-554.0,-113.0,113.0,7.0,136.0,208.0,92,52,49,62,55,485,580,479
2025-02-20 15:54:03.591,-445.0,255.0,-7.0,52.0,110.0,193.0,92,53,49,62,55,485,608,480
2025-02-20 15:54:03.610,-651.0,742.0,-276.0,88.0,88.0,132.0,91,51,50,63,56,511,570,481
2025-02-20 15:54:03.629,-1083.0,1465.0,-608.0,107.0,62.0,-36.0,89,52,49,61,55,509,496,478
2025-02-20 15:54:03.649,-1440.0,2191.0,-1159.0,110.0,-60.0,-283.0,88,52,49,62,54,507,399,467
2025-02-20 15:54:03.668,-1565.0,2217.0,-1709.0,29.0,-311.0,-618.0,88,51,47,61,54,490,424,477
2025-02-20 15:54:03.689,472.0,1614.0,-2092.0,-153.0,-776.0,-826.0,89,51,47,62,54,462,443,482
2025-02-20 15:54:03.705,4807.0,-1586.0,145.0,-231.0,-889.0,-735.0,90,51,48,63,55,447,445,475
2025-02-20 15:54:03.726,5108.0,-6424.0,2858.0,-32.0,-134.0,-98.0,92,53,48,65,58,426,451,455
2025-02-20 15:54:03.744,3016.0,-4464.0,1325.0,222.0,274.0,145.0,93,53,49,64,57,405,415,447
2025-02-20 15:54:03.762,951.0,-1668.0,741.0,174.0,261.0,170.0,94,53,48,63,55,451,501,457
2025-02-20 15:54:03.782,347.0,-1071.0,670.0,-82.0,168.0,201.0,97,53,50,64,54,474,529,472
2025-02-20 15:54:03.803,125.0,-1619.0,433.0,-139.0,115.0,203.0,99,55,50,64,56,463,481,484
2025-02-20 15:54:03.817,117.0,-1467.0,433.0,-72.0,99.0,215.0,100,55,51,64,58,442,525,484
2025-02-20 15:54:03.840,69.0,-1158.0,578.0,14.0,113.0,225.0,101,54,50,65,57,470,383,479
2025-02-20 15:54:03.857,-61.0,-689.0,550.0,4.0,144.0,245.0,102,56,50,68,59,474,302,537
2025-02-20 15:54:03.877,-146.0,-526.0,430.0,-31.0,146.0,251.0,105,55,52,67,60,469,438,539
2025-02-20 15:54:03.897,-325.0,-484.0,295.0,-53.0,115.0,258.0,105,54,51,65,61,482,536,504
2025-02-20 15:54:03.914,-492.0,-449.0,333.0,-61.0,106.0,271.0,109,54,50,68,61,481,416,479
2025-02-20 15:54:03.934,-248.0,-370.0,229.0,-20.0,130.0,288.0,110,53,50,68,61,511,427,461
2025-02-20 15:54:03.954,-198.0,-357.0,277.0,22.0,169.0,302.0,113,54,51,67,60,526,446,447
2025-02-20 15:54:03.972,-611.0,72.0,5.0,51.0,130.0,286.0,117,52,50,67,64,461,453,441
2025-02-20 15:54:03.992,-471.0,569.0,148.0,72.0,110.0,199.0,120,52,50,68,62,457,447,439
2025-02-20 15:54:04.012,-682.0,1070.0,-111.0,83.0,82.0,107.0,125,52,51,67,62,495,420,434
2025-02-20 15:54:04.029,-822.0,2226.0,-479.0,62.0,61.0,-66.0,127,52,52,66,61,526,395,441
2025-02-20 15:54:04.048,-945.0,2858.0,-999.0,50.0,-5.0,-298.0,127,52,51,65,58,513,490,448
2025-02-20 15:54:04.069,-1147.0,2747.0,-1971.0,-27.0,-163.0,-536.0,128,51,50,65,55,494,467,426
2025-02-20 15:54:04.086,-707.0,2375.0,-2483.0,-159.0,-534.0,-782.0,129,51,50,66,56,337,418,447
2025-02-20 15:54:04.106,1694.0,1882.0,-2526.0,-426.0,-849.0,-899.0,133,51,50,67,56,397,424,445
2025-02-20 15:54:04.126,5185.0,-2810.0,-1265.0,-474.0,-891.0,-497.0,141,51,50,67,58,463,155,460
2025-02-20 15:54:04.143,4919.0,-5550.0,1316.0,-284.0,-308.0,-220.0,144,52,49,69,59,494,113,452
2025-02-20 15:54:04.163,3406.0,-5307.0,120.0,217.0,250.0,-50.0,141,52,48,69,58,474,65,449
2025-02-20 15:54:04.181,453.0,-2152.0,-1043.0,250.0,259.0,75.0,142,52,48,66,54,395,12,446
2025-02-20 15:54:04.200,-204.0,-1378.0,-984.0,31.0,75.0,130.0,141,53,48,66,54,406,4,449
2025-02-20 15:54:04.221,401.0,-2141.0,157.0,-65.0,-33.0,188.0,144,53,49,68,57,398,4,452
2025-02-20 15:54:04.235,625.0,-2308.0,416.0,-29.0,58.0,243.0,143,54,50,68,56,504,20,447
2025-02-20 15:54:04.258,496.0,-1840.0,149.0,146.0,103.0,247.0,142,52,50,69,56,504,121,446
2025-02-20 15:54:04.278,308.0,-1146.0,174.0,206.0,119.0,199.0,142,53,50,68,56,545,205,449
2025-02-20 15:54:04.294,31.0,-878.0,186.0,131.0,137.0,238.0,142,54,51,69,57,565,352,445
2025-02-20 15:54:04.312,-17.0,-790.0,179.0,41.0,145.0,276.0,142,54,49,70,58,523,415,455
2025-02-20 15:54:04.332,-66.0,-540.0,193.0,19.0,147.0,280.0,143,52,52,69,58,470,586,451
2025-02-20 15:54:04.351,-73.0,-119.0,244.0,52.0,163.0,199.0,143,53,52,70,59,454,803,462
2025-02-20 15:54:04.372,-262.0,-199.0,197.0,88.0,158.0,197.0,143,53,52,70,59,489,887,465
2025-02-20 15:54:04.389,-389.0,-261.0,185.0,88.0,133.0,216.0,143,52,51,71,57,517,970,461
2025-02-20 15:54:04.409,-541.0,-61.0,58.0,74.0,115.0,229.0,142,53,53,70,59,533,976,453
2025-02-20 15:54:04.429,-503.0,448.0,341.0,131.0,101.0,185.0,142,55,51,69,58,526,920,452
2025-02-20 15:54:04.447,-654.0,1026.0,82.0,207.0,153.0,100.0,141,53,52,70,59,498,853,456
2025-02-20 15:54:04.467,-1063.0,1696.0,-418.0,223.0,127.0,11.0,141,53,51,69,58,472,757,455
2025-02-20 15:54:04.486,-1241.0,2879.0,-947.0,163.0,34.0,-278.0,140,54,52,68,56,495,648,449
2025-02-20 15:54:04.504,-1639.0,2579.0,-1540.0,44.0,-151.0,-564.0,137,54,50,69,55,504,549,445
2025-02-20 15:54:04.524,-1074.0,1541.0,-2084.0,-10.0,-453.0,-748.0,137,52,50,69,54,500,414,484
2025-02-20 15:54:04.544,1946.0,1021.0,-1708.0,-176.0,-887.0,-707.0,141,53,51,70,57,457,288,484
2025-02-20 15:54:04.562,4726.0,-2911.0,747.0,-539.0,-766.0,-433.0,143,53,51,70,57,455,218,477
2025-02-20 15:54:04.581,4781.0,-5788.0,1668.0,-313.0,-99.0,-188.0,142,53,50,70,57,389,238,470
2025-02-20 15:54:04.599,2623.0,-5231.0,256.0,194.0,258.0,8.0,140,52,48,68,55,389,266,462
2025-02-20 15:54:04.618,604.0,-1993.0,-649.0,82.0,209.0,154.0,139,53,47,66,53,405,341,460
2025-02-20 15:54:04.639,288.0,-1984.0,-391.0,-16.0,12.0,199.0,140,55,49,66,51,416,454,454
2025-02-20 15:54:04.656,604.0,-2111.0,229.0,-49.0,64.0,255.0,139,54,50,67,54,414,516,451
2025-02-20 15:54:04.675,474.0,-1802.0,301.0,74.0,134.0,276.0,141,54,51,68,55,437,611,466
2025-02-20 15:54:04.696,348.0,-1292.0,316.0,106.0,199.0,313.0,140,55,52,68,55,409,634,465
2025-02-20 15:54:04.712,44.0,-858.0,203.0,154.0,201.0,343.0,140,55,53,69,58,460,802,453
2025-02-20 15:54:04.733,71.0,-484.0,228.0,156.0,218.0,348.0,139,57,54,71,62,493,957,446
2025-02-20 15:54:04.750,-222.0,-86.0,28.0,129.0,195.0,330.0,141,59,56,76,68,519,953,454
2025-02-20 15:54:04.770,140.0,-95.0,206.0,90.0,293.0,288.0,139,63,60,81,78,505,897,456
2025-02-20 15:54:04.787,-219.0,80.0,-59.0,-91.0,353.0,284.0,138,69,64,89,87,505,869,479
2025-02-20 15:54:04.803,-201.0,508.0,-1008.0,64.0,248.0,280.0,136,76,70,99,96,498,839,482
2025-02-20 15:54:04.827,-521.0,376.0,-694.0,177.0,226.0,239.0,134,85,76,106,102,497,789,481
2025-02-20 15:54:04.847,-939.0,934.0,-835.0,289.0,106.0,177.0,133,90,80,113,106,539,623,479
2025-02-20 15:54:04.865,-1041.0,1651.0,-1140.0,267.0,-33.0,47.0,132,94,83,115,110,544,451,476
2025-02-20 15:54:04.884,-753.0,1937.0,-1812.0,174.0,-227.0,-233.0,131,98,86,118,116,517,388,469
2025-02-20 15:54:04.902,-766.0,1893.0,-1554.0,15.0,-396.0,-513.0,129,104,89,122,126,485,334,469
2025-02-20 15:54:04.920,-368.0,1716.0,-443.0,-175.0,-396.0,-797.0,128,109,92,125,126,449,248,470
2025-02-20 15:54:04.941,1340.0,598.0,610.0,-191.0,-785.0,-1008.0,130,114,94,124,127,329,201,474
2025-02-20 15:54:04.962,4325.0,-1224.0,-544.0,-404.0,-818.0,-861.0,133,118,97,130,128,330,153,474
2025-02-20 15:54:04.979,4178.0,-4245.0,-250.0,-435.0,-671.0,-368.0,133,120,101,133,128,326,132,470
2025-02-20 15:54:04.999,3851.0,-5153.0,-147.0,-249.0,-282.0,9.0,133,121,103,133,128,364,135,471
2025-02-20 15:54:05.015,2274.0,-3726.0,7.0,121.0,1.0,225.0,135,121,103,137,130,413,322,470
2025-02-20 15:54:05.036,1304.0,-1460.0,1294.0,246.0,192.0,303.0,136,121,103,133,129,406,488,475
2025-02-20 15:54:05.056,186.0,-1313.0,223.0,279.0,45.0,351.0,136,119,102,134,131,461,563,473
2025-02-20 15:54:05.073,106.0,-955.0,189.0,182.0,42.0,326.0,136,119,102,133,129,482,600,471
2025-02-20 15:54:05.093,-337.0,-1240.0,81.0,152.0,103.0,285.0,136,118,102,133,129,484,820,470
2025-02-20 15:54:05.114,-104.0,-1087.0,141.0,177.0,127.0,244.0,137,118,103,134,130,473,919,475
2025-02-20 15:54:05.131,46.0,-923.0,476.0,109.0,151.0,230.0,136,118,103,135,130,496,878,467
2025-02-20 15:54:05.151,-51.0,-513.0,259.0,103.0,136.0,234.0,136,119,103,133,130,517,817,455
2025-02-20 15:54:05.171,47.0,-448.0,611.0,-27.0,176.0,226.0,136,120,102,133,131,525,806,459
2025-02-20 15:54:05.188,-26.0,-225.0,392.0,-108.0,233.0,225.0,136,120,104,133,130,538,770,467
2025-02-20 15:54:05.208,-341.0,-277.0,238.0,-28.0,208.0,237.0,135,120,103,134,130,515,671,472
2025-02-20 15:54:05.228,-573.0,-249.0,234.0,114.0,153.0,272.0,134,120,103,133,130,493,527,476
2025-02-20 15:54:05.241,-568.0,197.0,-42.0,151.0,128.0,247.0,135,120,103,133,130,505,339,469
2025-02-20 15:54:05.264,-418.0,696.0,25.0,115.0,117.0,208.0,135,120,102,134,131,507,197,465
2025-02-20 15:54:05.283,-685.0,914.0,-291.0,184.0,100.0,159.0,134,116,103,133,131,434,135,457
2025-02-20 15:54:05.303,-856.0,1504.0,-628.0,296.0,32.0,83.0,133,118,103,133,132,406,103,464
2025-02-20 15:54:05.323,-1293.0,1898.0,-1250.0,335.0,-58.0,-140.0,133,119,103,132,131,312,105,465
2025-02-20 15:54:05.338,-1403.0,1989.0,-1472.0,249.0,-239.0,-422.0,133,119,104,133,132,302,120,463
2025-02-20 15:54:05.360,-872.0,1658.0,-743.0,98.0,-405.0,-657.0,131,120,104,133,132,359,130,463
2025-02-20 15:54:05.380,1613.0,350.0,521.0,-80.0,-804.0,-750.0,131,121,104,134,132,401,205,458
2025-02-20 15:54:05.397,3586.0,-2064.0,1543.0,-458.0,-711.0,-646.0,134,122,105,132,131,433,319,457
2025-02-20 15:54:05.417,3217.0,-4590.0,270.0,-299.0,-461.0,-271.0,138,123,106,134,132,404,464,468
2025-02-20 15:54:05.436,2536.0,-4386.0,652.0,-107.0,-54.0,76.0,140,121,106,135,131,382,600,469
2025-02-20 15:54:05.454,1684.0,-2832.0,-345.0,-144.0,66.0,188.0,140,121,105,133,130,353,687,467
2025-02-20 15:54:05.474,485.0,-1908.0,683.0,35.0,113.0,213.0,140,120,104,134,130,347,718,470
2025-02-20 15:54:05.491,7.0,-1697.0,230.0,50.0,42.0,217.0,140,119,103,134,129,314,748,468
2025-02-20 15:54:05.511,-65.0,-1477.0,89.0,60.0,-8.0,221.0,141,119,102,134,130,367,823,470
2025-02-20 15:54:05.532,-5.0,-1369.0,382.0,10.0,66.0,240.0,142,115,100,134,130,461,829,463
2025-02-20 15:54:05.549,-54.0,-1233.0,-58.0,122.0,96.0,262.0,140,110,95,132,128,478,789,458
2025-02-20 15:54:05.569,15.0,-1005.0,353.0,3.0,117.0,299.0,141,107,87,130,121,487,640,456
2025-02-20 15:54:05.586,1.0,-670.0,288.0,-57.0,141.0,329.0,142,103,83,125,110,507,544,460
2025-02-20 15:54:05.605,17.0,-574.0,248.0,-132.0,158.0,352.0,141,97,77,118,101,488,515,455
2025-02-20 15:54:05.623,-175.0,-421.0,91.0,-50.0,101.0,396.0,142,89,72,110,92,492,349,451
2025-02-20 15:54:05.643,-285.0,-112.0,249.0,101.0,88.0,429.0,141,81,66,103,81,493,283,460
2025-02-20 15:54:05.663,63.0,372.0,349.0,231.0,166.0,440.0,141,73,63,97,74,461,131,465
2025-02-20 15:54:05.683,-221.0,1468.0,-242.0,378.0,206.0,300.0,139,65,59,90,69,480,36,473
2025-02-20 15:54:05.700,-743.0,2220.0,-895.0,448.0,187.0,120.0,139,57,54,78,61,490,49,477
2025-02-20 15:54:05.721,-1034.0,4511.0,-1570.0,307.0,82.0,-180.0,136,52,50,71,55,522,125,464
2025-02-20 15:54:05.736,-1203.0,3287.0,-1777.0,132.0,-173.0,-509.0,132,51,48,69,51,534,216,466
2025-02-20 15:54:05.757,-691.0,2676.0,-2215.0,-38.0,-449.0,-813.0,131,48,47,67,48,393,305,465
2025-02-20 15:54:05.774,1157.0,2134.0,-2220.0,-292.0,-890.0,-991.0,134,49,45,67,49,447,376,466
2025-02-20 15:54:05.797,5090.0,-1281.0,-1305.0,-520.0,-1027.0,-751.0,140,48,46,70,53,425,469,463
2025-02-20 15:54:05.815,5174.0,-4394.0,297.0,-752.0,-634.0,-331.0,142,48,47,71,53,452,557,458
2025-02-20 15:54:05.834,4091.0,-6294.0,762.0,-174.0,11.0,-109.0,141,48,46,71,51,416,697,459
2025-02-20 15:54:05.853,1732.0,-4082.0,-716.0,222.0,208.0,78.0,139,48,45,68,50,401,812,455
2025-02-20 15:54:05.873,399.0,-1291.0,-900.0,102.0,125.0,188.0,139,48,45,68,48,451,881,452
2025-02-20 15:54:05.892,7.0,-1448.0,-505.0,13.0,-46.0,182.0,140,50,48,70,48,462,870,460
2025-02-20 15:54:05.909,550.0,-1977.0,272.0,-13.0,26.0,232.0,139,50,47,68,49,423,758,467
2025-02-20 15:54:05.929,612.0,-1754.0,303.0,97.0,46.0,247.0,141,51,48,69,50,452,719,459
2025-02-20 15:54:05.949,438.0,-1249.0,378.0,207.0,113.0,198.0,141,51,49,70,50,504,581,457
2025-02-20 15:54:05.966,58.0,-1057.0,278.0,135.0,149.0,243.0,141,51,49,71,51,455,593,451
2025-02-20 15:54:05.986,-129.0,-854.0,103.0,86.0,134.0,278.0,141,52,49,72,52,431,620,455
2025-02-20 15:54:06.006,-4.0,-684.0,185.0,94.0,107.0,274.0,141,51,50,72,51,466,712,461
2025-02-20 15:54:06.023,91.0,-417.0,473.0,52.0,188.0,280.0,142,51,51,72,53,525,498,475
2025-02-20 15:54:06.043,-61.0,-379.0,160.0,61.0,230.0,258.0,140,52,51,74,54,512,369,483
2025-02-20 15:54:06.063,-396.0,-61.0,-51.0,122.0,214.0,267.0,141,52,52,75,53,499,223,478
2025-02-20 15:54:06.081,-622.0,324.0,-136.0,83.0,150.0,263.0,142,52,51,76,55,516,172,470
2025-02-20 15:54:06.100,-516.0,385.0,150.0,124.0,102.0,194.0,141,53,53,76,55,519,150,473
2025-02-20 15:54:06.117,-434.0,525.0,-3.0,185.0,138.0,131.0,139,52,52,76,55,543,236,472
2025-02-20 15:54:06.138,-691.0,1184.0,-312.0,220.0,152.0,75.0,141,53,51,75,54,580,344,470
2025-02-20 15:54:06.158,-1051.0,1965.0,-834.0,221.0,108.0,-89.0,139,53,52,75,55,575,473,467
2025-02-20 15:54:06.175,-1696.0,2197.0,-1526.0,171.0,-20.0,-344.0,135,53,51,74,55,444,596,469
2025-02-20 15:54:06.193,-1689.0,1891.0,-1960.0,109.0,-313.0,-544.0,135,52,51,73,53,483,719,456
2025-02-20 15:54:06.215,-499.0,2017.0,-2112.0,23.0,-645.0,-714.0,135,51,50,74,53,493,793,456
2025-02-20 15:54:06.232,3061.0,-439.0,-1229.0,-143.0,-934.0,-683.0,140,53,51,77,55,454,817,454
2025-02-20 15:54:06.253,5457.0,-3769.0,2576.0,-47.0,-626.0,-400.0,144,52,50,81,56,427,805,454
2025-02-20 15:54:06.273,4603.0,-4814.0,2902.0,181.0,53.0,-57.0,145,53,52,80,56,384,869,454
2025-02-20 15:54:06.290,1665.0,-2947.0,1260.0,189.0,254.0,64.0,145,54,51,76,53,338,871,446
2025-02-20 15:54:06.307,99.0,-1260.0,584.0,-55.0,137.0,135.0,145,53,52,76,51,353,785,448
2025-02-20 15:54:06.330,362.0,-1960.0,764.0,-117.0,17.0,145.0,145,54,52,77,53,400,724,467
2025-02-20 15:54:06.344,349.0,-1899.0,697.0,-85.0,57.0,205.0,145,55,53,78,54,458,572,473
2025-02-20 15:54:06.366,170.0,-1310.0,567.0,-7.0,110.0,168.0,145,57,56,78,55,424,512,468
2025-02-20 15:54:06.384,125.0,-1050.0,765.0,24.0,119.0,166.0,145,58,59,81,55,423,324,469
2025-02-20 15:54:06.404,145.0,-995.0,770.0,-7.0,145.0,221.0,144,60,60,83,57,426,201,477
2025-02-20 15:54:06.424,235.0,-775.0,718.0,-74.0,203.0,254.0,142,62,62,83,58,492,154,468
2025-02-20 15:54:06.441,71.0,-842.0,503.0,-91.0,285.0,268.0,143,65,65,82,59,491,128,478
2025-02-20 15:54:06.462,5.0,-445.0,344.0,-91.0,215.0,280.0,142,71,69,83,61,491,293,466
2025-02-20 15:54:06.482,-138.0,-395.0,161.0,-19.0,200.0,309.0,140,78,73,89,65,469,1,466
2025-02-20 15:54:06.498,-239.0,-6.0,-96.0,61.0,199.0,315.0,140,87,78,89,68,483,1,468
2025-02-20 15:54:06.519,-347.0,430.0,-181.0,99.0,189.0,298.0,137,94,82,89,69,531,1,466
2025-02-20 15:54:06.529,-453.0,343.0,-88.0,132.0,208.0,271.0,138,101,85,90,69,545,1,478
2025-02-20 15:54:06.556,-689.0,896.0,-642.0,202.0,207.0,244.0,134,104,86,88,70,578,1,486
2025-02-20 15:54:06.574,-935.0,1762.0,-1455.0,152.0,109.0,100.0,133,105,89,87,67,528,1,468
2025-02-20 15:54:06.591,-1297.0,2258.0,-1875.0,186.0,-89.0,-163.0,133,110,92,88,65,521,8,457
2025-02-20 15:54:06.611,-1247.0,2557.0,-1709.0,151.0,-274.0,-452.0,130,112,94,84,62,573,37,452
2025-02-20 15:54:06.634,-833.0,1961.0,-1625.0,129.0,-564.0,-714.0,123,114,96,86,61,481,45,458
2025-02-20 15:54:06.651,1104.0,1445.0,-580.0,60.0,-809.0,-810.0,123,119,100,89,64,436,1,463
2025-02-20 15:54:06.671,3201.0,-1432.0,1078.0,-73.0,-809.0,-662.0,120,123,102,92,64,517,21,454
2025-02-20 15:54:06.691,4283.0,-3083.0,2252.0,-167.0,-418.0,-314.0,118,128,102,94,65,465,182,453
2025-02-20 15:54:06.708,4148.0,-4272.0,1805.0,22.0,-12.0,84.0,116,128,102,93,63,469,299,461
2025-02-20 15:54:06.728,1703.0,-2236.0,1475.0,124.0,219.0,146.0,115,129,101,93,61,440,339,465
2025-02-20 15:54:06.748,180.0,-1252.0,765.0,-34.0,151.0,156.0,113,127,102,92,60,443,395,478
2025-02-20 15:54:06.765,121.0,-1631.0,616.0,-105.0,74.0,181.0,117,129,102,92,59,429,315,487
2025-02-20 15:54:06.785,62.0,-1577.0,704.0,-56.0,78.0,199.0,119,128,102,90,61,423,305,486
2025-02-20 15:54:06.802,-19.0,-1263.0,826.0,5.0,111.0,208.0,118,128,102,89,63,424,467,474
2025-02-20 15:54:06.822,3.0,-978.0,862.0,-6.0,139.0,222.0,120,129,102,88,61,479,422,470
2025-02-20 15:54:06.842,-64.0,-833.0,661.0,-36.0,143.0,261.0,120,128,103,87,61,461,378,465
2025-02-20 15:54:06.859,-199.0,-654.0,410.0,-34.0,138.0,285.0,120,128,103,88,64,430,462,469
2025-02-20 15:54:06.879,-153.0,-422.0,442.0,-50.0,161.0,290.0,125,129,103,88,63,494,477,476
2025-02-20 15:54:06.900,-316.0,-418.0,373.0,-51.0,187.0,309.0,124,128,104,88,63,538,485,486
2025-02-20 15:54:06.917,-432.0,-348.0,136.0,-20.0,183.0,320.0,125,128,105,88,63,503,491,484
2025-02-20 15:54:06.936,-349.0,-82.0,-14.0,25.0,178.0,300.0,126,128,104,87,62,462,523,482
2025-02-20 15:54:06.955,-428.0,150.0,-33.0,106.0,179.0,261.0,128,128,105,86,61,473,523,471
2025-02-20 15:54:06.974,-614.0,665.0,-278.0,139.0,167.0,209.0,127,126,105,84,62,506,521,466
2025-02-20 15:54:06.993,-525.0,1156.0,-506.0,137.0,116.0,144.0,128,126,106,84,61,512,502,463
2025-02-20 15:54:07.014,-785.0,1435.0,-760.0,127.0,58.0,38.0,127,124,106,81,59,484,487,462
2025-02-20 15:54:07.031,-1061.0,1771.0,-1046.0,69.0,-73.0,-145.0,129,124,107,79,59,540,499,464
2025-02-20 15:54:07.051,-1071.0,2164.0,-1398.0,-6.0,-245.0,-359.0,126,123,107,78,59,525,468,459
2025-02-20 15:54:07.071,-737.0,1963.0,-1429.0,29.0,-441.0,-620.0,126,124,109,79,60,496,487,459
2025-02-20 15:54:07.088,953.0,1898.0,-489.0,-3.0,-686.0,-847.0,125,127,109,82,65,473,457,464
2025-02-20 15:54:07.107,3238.0,-701.0,1041.0,-170.0,-686.0,-882.0,123,127,109,86,73,446,472,465
2025-02-20 15:54:07.125,3853.0,-3680.0,1813.0,-54.0,-368.0,-515.0,121,127,109,89,75,415,522,461
2025-02-20 15:54:07.144,3605.0,-4556.0,1544.0,-132.0,-95.0,15.0,121,127,108,89,74,390,546,467
2025-02-20 15:54:07.166,2083.0,-3199.0,1159.0,15.0,108.0,172.0,124,128,108,88,75,406,561,485
2025-02-20 15:54:07.184,642.0,-1872.0,852.0,35.0,138.0,165.0,126,128,108,88,75,466,570,493
2025-02-20 15:54:07.203,52.0,-1610.0,679.0,-51.0,112.0,177.0,127,127,107,89,78,424,552,492
2025-02-20 15:54:07.222,-45.0,-1435.0,604.0,-108.0,105.0,205.0,129,126,105,92,84,477,604,486
2025-02-20 15:54:07.240,9.0,-1386.0,665.0,-69.0,119.0,222.0,130,122,100,97,88,489,627,482
2025-02-20 15:54:07.259,-68.0,-1182.0,660.0,-29.0,144.0,246.0,131,116,88,99,88,477,521,483
2025-02-20 15:54:07.277,-65.0,-884.0,750.0,-28.0,167.0,259.0,133,108,76,98,84,467,420,482
2025-02-20 15:54:07.297,-39.0,-481.0,637.0,-103.0,169.0,275.0,134,97,68,96,76,496,506,471
2025-02-20 15:54:07.317,11.0,-602.0,393.0,-139.0,199.0,326.0,135,88,64,93,69,506,566,462
2025-02-20 15:54:07.332,-145.0,-678.0,364.0,-141.0,205.0,393.0,133,80,60,91,66,451,528,455
2025-02-20 15:54:07.354,-94.0,-486.0,80.0,-53.0,190.0,407.0,135,74,57,89,65,436,504,455
2025-02-20 15:54:07.374,-229.0,-211.0,-198.0,46.0,176.0,401.0,136,68,56,87,63,452,536,450
2025-02-20 15:54:07.391,-266.0,160.0,-355.0,129.0,124.0,355.0,136,63,55,83,63,469,543,447
2025-02-20 15:54:07.411,-240.0,686.0,-496.0,206.0,121.0,287.0,137,61,54,80,62,438,591,453
2025-02-20 15:54:07.430,-556.0,1465.0,-704.0,209.0,68.0,179.0,136,59,52,77,60,453,575,461
2025-02-20 15:54:07.449,-665.0,2151.0,-1041.0,180.0,-5.0,10.0,135,58,52,72,56,524,485,457
2025-02-20 15:54:07.469,-712.0,3045.0,-1494.0,97.0,-103.0,-325.0,131,57,51,71,54,535,499,443
2025-02-20 15:54:07.488,-960.0,2996.0,-1914.0,-81.0,-304.0,-649.0,130,56,48,70,52,500,489,444
2025-02-20 15:54:07.506,-322.0,2350.0,-2146.0,-189.0,-597.0,-942.0,131,54,49,71,53,430,439,453
2025-02-20 15:54:07.526,2577.0,313.0,-1887.0,-270.0,-902.0,-950.0,135,53,48,76,55,418,423,458
2025-02-20 15:54:07.544,4841.0,-2144.0,154.0,-368.0,-907.0,-647.0,141,54,47,80,59,451,379,452
2025-02-20 15:54:07.564,4567.0,-5746.0,1321.0,-291.0,-328.0,-183.0,142,55,48,79,58,437,389,448
2025-02-20 15:54:07.581,2711.0,-4881.0,1012.0,139.0,88.0,-15.0,142,55,48,76,57,429,459,464
2025-02-20 15:54:07.600,923.0,-2429.0,-17.0,100.0,165.0,118.0,144,56,47,70,51,409,468,461
2025-02-20 15:54:07.618,-79.0,-1688.0,8.0,61.0,-9.0,144.0,144,56,47,73,54,411,527,469
2025-02-20 15:54:07.641,256.0,-1670.0,469.0,26.0,17.0,151.0,144,57,47,74,54,424,582,474
2025-02-20 15:54:07.658,239.0,-2001.0,289.0,42.0,72.0,209.0,144,58,48,73,53,498,658,483
2025-02-20 15:54:07.678,204.0,-1479.0,415.0,82.0,96.0,223.0,144,58,49,72,55,499,664,475
2025-02-20 15:54:07.695,169.0,-974.0,447.0,94.0,95.0,193.0,144,58,51,73,54,477,452,463
2025-02-20 15:54:07.715,8.0,-1006.0,490.0,63.0,126.0,186.0,145,59,52,74,54,515,381,475
2025-02-20 15:54:07.732,-31.0,-803.0,428.0,17.0,144.0,244.0,144,58,52,75,55,545,424,479
2025-02-20 15:54:07.752,-99.0,-598.0,465.0,-17.0,168.0,256.0,145,58,57,77,58,519,488,480
2025-02-20 15:54:07.772,-56.0,-247.0,388.0,-10.0,198.0,215.0,144,57,53,77,57,445,556,474
2025-02-20 15:54:07.791,-369.0,-133.0,138.0,49.0,190.0,220.0,145,58,52,78,57,451,580,463
2025-02-20 15:54:07.810,-521.0,-113.0,-95.0,-12.0,143.0,235.0,143,58,52,78,57,494,535,452
2025-02-20 15:54:07.829,-449.0,-142.0,76.0,11.0,102.0,239.0,144,57,53,77,57,503,512,452
2025-02-20 15:54:07.849,-137.0,64.0,199.0,159.0,111.0,187.0,143,58,54,78,57,543,504,455
2025-02-20 15:54:07.865,-454.0,379.0,-197.0,259.0,166.0,178.0,143,58,54,77,56,517,517,468
2025-02-20 15:54:07.887,-796.0,1326.0,-766.0,300.0,134.0,114.0,142,58,53,76,56,528,483,460
2025-02-20 15:54:07.907,-1495.0,2286.0,-1498.0,269.0,19.0,-118.0,139,58,53,75,54,519,421,456
2025-02-20 15:54:07.924,-1617.0,2453.0,-1781.0,163.0,-207.0,-417.0,139,54,53,76,55,507,461,462
2025-02-20 15:54:07.944,-933.0,1913.0,-1531.0,36.0,-437.0,-574.0,139,58,54,77,56,470,420,474
2025-02-20 15:54:07.962,767.0,560.0,-695.0,-90.0,-652.0,-582.0,139,58,54,81,58,424,354,478
2025-02-20 15:54:07.981,3303.0,-1574.0,1014.0,-264.0,-657.0,-480.0,141,58,56,81,61,353,353,469
2025-02-20 15:54:07.999,3646.0,-5084.0,2604.0,-195.0,-323.0,-193.0,139,60,57,85,63,344,411,464
2025-02-20 15:54:08.019,2596.0,-4671.0,2150.0,62.0,141.0,23.0,139,63,58,80,65,300,469,461
2025-02-20 15:54:08.038,1048.0,-2694.0,562.0,-4.0,213.0,158.0,140,64,57,81,63,379,469,460
2025-02-20 15:54:08.058,91.0,-1892.0,469.0,69.0,38.0,168.0,140,66,59,82,62,425,519,469
2025-02-20 15:54:08.071,180.0,-1734.0,611.0,-65.0,12.0,183.0,141,68,61,84,64,459,567,469
2025-02-20 15:54:08.095,167.0,-1609.0,966.0,0.0,60.0,177.0,141,70,64,85,66,488,609,472
2025-02-20 15:54:08.114,209.0,-1531.0,860.0,41.0,126.0,199.0,141,73,67,86,69,468,656,474
2025-02-20 15:54:08.130,-140.0,-867.0,900.0,52.0,181.0,234.0,141,74,65,86,70,459,498,477
2025-02-20 15:54:08.153,-40.0,-668.0,770.0,-40.0,211.0,234.0,142,73,62,88,73,486,406,467
2025-02-20 15:54:08.168,-75.0,-500.0,563.0,-126.0,251.0,247.0,139,72,59,88,74,475,419,458
2025-02-20 15:54:08.190,-283.0,-323.0,153.0,-111.0,264.0,279.0,138,69,57,87,71,507,414,454
2025-02-20 15:54:08.210,-287.0,-234.0,37.0,-44.0,268.0,308.0,135,69,56,83,66,482,566,455
2025-02-20 15:54:08.228,-202.0,-13.0,-113.0,35.0,270.0,342.0,132,66,54,78,60,462,556,459
2025-02-20 15:54:08.248,-235.0,324.0,-314.0,93.0,249.0,349.0,129,62,53,74,58,469,483,459
2025-02-20 15:54:08.267,-512.0,1167.0,-1098.0,210.0,177.0,287.0,117,59,50,69,56,485,479,463
2025-02-20 15:54:08.284,-627.0,1471.0,-1257.0,241.0,60.0,146.0,106,56,50,68,54,484,471,474
2025-02-20 15:54:08.305,-509.0,2002.0,-1585.0,241.0,-32.0,-11.0,96,54,49,66,53,477,493,468
2025-02-20 15:54:08.324,-1009.0,3081.0,-2075.0,211.0,-219.0,-299.0,90,52,49,64,49,492,566,467
2025-02-20 15:54:08.342,-756.0,3012.0,-2452.0,113.0,-468.0,-575.0,85,49,48,63,49,483,595,463
2025-02-20 15:54:08.362,53.0,2711.0,-2364.0,25.0,-757.0,-866.0,86,49,47,64,50,408,461,467
2025-02-20 15:54:08.382,3805.0,1151.0,-1510.0,-188.0,-1090.0,-890.0,87,50,48,66,54,548,367,454
2025-02-20 15:54:08.399,5692.0,-3781.0,2451.0,-313.0,-750.0,-515.0,90,52,49,68,55,519,302,461
2025-02-20 15:54:08.420,5096.0,-5552.0,2951.0,-176.0,-86.0,-121.0,90,52,48,67,55,385,314,455
2025-02-20 15:54:08.436,2616.0,-4592.0,1160.0,160.0,221.0,53.0,92,53,48,65,52,365,378,457
2025-02-20 15:54:08.457,398.0,-1874.0,273.0,32.0,151.0,164.0,92,54,48,67,52,426,506,464
2025-02-20 15:54:08.476,235.0,-1847.0,333.0,-99.0,17.0,158.0,93,53,49,66,52,515,463,436
2025-02-20 15:54:08.493,381.0,-2043.0,701.0,-90.0,41.0,195.0,93,53,48,66,53,474,418,456
2025-02-20 15:54:08.514,169.0,-1987.0,863.0,1.0,88.0,215.0,93,55,51,66,52,464,432,466
2025-02-20 15:54:08.533,8.0,-1221.0,831.0,16.0,129.0,209.0,93,53,50,67,52,391,511,463
2025-02-20 15:54:08.551,-99.0,-824.0,765.0,-2.0,139.0,207.0,92,54,52,67,52,427,510,459
2025-02-20 15:54:08.571,-159.0,-592.0,542.0,-30.0,141.0,213.0,93,54,52,69,53,450,520,440
2025-02-20 15:54:08.587,-169.0,-351.0,403.0,-48.0,151.0,208.0,93,54,53,68,54,453,515,466
2025-02-20 15:54:08.608,-312.0,-417.0,255.0,-31.0,161.0,198.0,95,54,54,70,55,501,523,472
2025-02-20 15:54:08.628,-214.0,-325.0,156.0,9.0,165.0,188.0,95,54,52,70,55,510,591,480
2025-02-20 15:54:08.645,-432.0,-257.0,113.0,45.0,157.0,180.0,96,55,53,71,57,464,592,491
2025-02-20 15:54:08.664,-394.0,-149.0,49.0,52.0,156.0,170.0,96,55,53,70,56,504,547,488
2025-02-20 15:54:08.684,-488.0,2.0,20.0,50.0,147.0,174.0,98,55,53,70,57,553,507,480
2025-02-20 15:54:08.703,-406.0,254.0,-66.0,53.0,129.0,177.0,97,55,53,69,57,542,451,479
2025-02-20 15:54:08.722,-591.0,581.0,-350.0,46.0,107.0,167.0,99,56,54,69,57,553,423,470
2025-02-20 15:54:08.743,-915.0,772.0,-706.0,136.0,53.0,92.0,98,55,54,70,56,536,400,464
2025-02-20 15:54:08.760,-1084.0,1605.0,-1707.0,288.0,12.0,-163.0,96,54,53,69,57,551,442,469
2025-02-20 15:54:08.780,-1811.0,2063.0,-2073.0,289.0,-252.0,-383.0,95,55,54,69,57,533,384,456
2025-02-20 15:54:08.798,-1213.0,1560.0,-2047.0,199.0,-644.0,-559.0,95,54,52,70,56,451,335,463
2025-02-20 15:54:08.817,2239.0,-678.0,-832.0,137.0,-1036.0,-495.0,99,55,53,73,59,464,297,487
2025-02-20 15:54:08.835,4932.0,-3419.0,4393.0,252.0,-648.0,-157.0,107,56,55,73,61,453,232,497
2025-02-20 15:54:08.851,3913.0,-2335.0,4457.0,189.0,70.0,72.0,108,57,55,74,63,405,315,477
2025-02-20 15:54:08.872,768.0,-1237.0,2753.0,80.0,296.0,27.0,108,58,54,72,60,411,411,461
2025-02-20 15:54:08.894,20.0,-1066.0,1565.0,-83.0,259.0,86.0,109,58,53,73,60,403,519,456
2025-02-20 15:54:08.911,52.0,-1288.0,1093.0,-141.0,231.0,113.0,116,59,55,74,60,462,573,455
2025-02-20 15:54:08.932,-248.0,-1485.0,825.0,-92.0,219.0,146.0,119,60,56,76,61,434,644,468
2025-02-20 15:54:08.951,-386.0,-1151.0,689.0,34.0,198.0,149.0,121,60,57,77,62,428,652,473
2025-02-20 15:54:08.969,-430.0,-874.0,589.0,87.0,182.0,156.0,123,64,55,77,63,430,482,468
2025-02-20 15:54:08.988,-477.0,-627.0,487.0,109.0,163.0,166.0,124,75,56,77,63,362,415,467
2025-02-20 15:54:09.009,-407.0,-282.0,492.0,55.0,150.0,158.0,124,86,57,78,65,399,520,463
2025-02-20 15:54:09.026,-790.0,-188.0,449.0,56.0,130.0,147.0,123,91,57,79,67,412,542,457
2025-02-20 15:54:09.046,-564.0,-281.0,381.0,83.0,115.0,130.0,124,92,57,79,67,512,589,432
2025-02-20 15:54:09.063,-564.0,-38.0,168.0,69.0,125.0,117.0,124,97,58,79,67,507,565,438
2025-02-20 15:54:09.083,-692.0,4.0,111.0,65.0,83.0,98.0,123,100,56,79,67,484,500,451
2025-02-20 15:54:09.103,-836.0,104.0,-161.0,79.0,32.0,80.0,124,102,55,79,67,491,470,455
2025-02-20 15:54:09.121,-718.0,345.0,-216.0,105.0,2.0,43.0,120,101,55,77,66,480,457,474
2025-02-20 15:54:09.141,-774.0,512.0,-753.0,122.0,-75.0,-22.0,116,96,53,76,64,498,450,481
2025-02-20 15:54:09.160,-1223.0,432.0,-1595.0,137.0,-274.0,-71.0,105,86,53,73,58,462,453,477
2025-02-20 15:54:09.178,-602.0,490.0,-2426.0,201.0,-649.0,-104.0,97,81,52,71,57,484,465,465
2025-02-20 15:54:09.197,508.0,214.0,-1941.0,227.0,-873.0,-102.0,94,82,53,71,58,587,493,462
2025-02-20 15:54:09.216,1583.0,-359.0,-291.0,298.0,-868.0,-28.0,97,83,51,72,60,535,542,464
2025-02-20 15:54:09.233,2189.0,133.0,1415.0,285.0,-696.0,27.0,100,83,53,73,61,458,583,462
2025-02-20 15:54:09.255,2396.0,666.0,3383.0,191.0,-410.0,39.0,104,84,51,73,62,421,542,459
2025-02-20 15:54:09.272,2191.0,912.0,3718.0,49.0,-54.0,15.0,107,84,52,74,63,376,435,461
2025-02-20 15:54:09.290,1738.0,661.0,2975.0,-47.0,165.0,-13.0,107,88,52,75,63,397,362,456
2025-02-20 15:54:09.312,1083.0,279.0,2259.0,-97.0,291.0,-16.0,108,90,52,75,63,429,457,454
2025-02-20 15:54:09.324,773.0,-16.0,1861.0,-110.0,330.0,12.0,109,95,51,75,63,453,451,453
2025-02-20 15:54:09.349,318.0,-59.0,1398.0,-119.0,327.0,36.0,111,98,51,75,63,529,515,453
2025-02-20 15:54:09.368,281.0,197.0,1314.0,-156.0,279.0,7.0,111,96,52,76,63,504,516,445
2025-02-20 15:54:09.386,295.0,-11.0,1303.0,-149.0,280.0,-9.0,112,92,52,77,61,529,536,454
2025-02-20 15:54:09.407,246.0,-7.0,1250.0,-160.0,354.0,4.0,113,89,53,75,63,493,525,457
2025-02-20 15:54:09.427,91.0,-159.0,750.0,-160.0,371.0,31.0,116,88,55,77,64,344,485,462
2025-02-20 15:54:09.444,-248.0,-381.0,530.0,-116.0,325.0,87.0,113,91,54,77,63,377,424,442
2025-02-20 15:54:09.464,-263.0,-106.0,306.0,-85.0,270.0,85.0,111,94,54,77,63,418,490,453
2025-02-20 15:54:09.481,-318.0,130.0,283.0,-83.0,234.0,50.0,109,94,54,76,62,471,539,462
2025-02-20 15:54:09.501,-398.0,87.0,247.0,-129.0,227.0,45.0,111,96,55,77,63,496,534,471
2025-02-20 15:54:09.521,-543.0,-190.0,142.0,-124.0,202.0,89.0,110,94,54,77,63,444,501,478
2025-02-20 15:54:09.537,-592.0,-134.0,-19.0,-83.0,137.0,112.0,107,95,55,76,62,416,462,483
2025-02-20 15:54:09.559,-408.0,98.0,15.0,-58.0,110.0,101.0,106,94,55,76,62,434,402,482
2025-02-20 15:54:09.579,-535.0,393.0,37.0,-63.0,113.0,62.0,106,93,56,75,62,451,420,477
2025-02-20 15:54:09.596,-581.0,551.0,-327.0,-80.0,117.0,26.0,102,91,56,76,62,560,444,476
2025-02-20 15:54:09.616,-1263.0,1115.0,-1644.0,-72.0,13.0,-105.0,96,89,54,73,60,545,437,488
2025-02-20 15:54:09.636,-2121.0,1655.0,-2877.0,113.0,-368.0,-293.0,90,88,53,71,54,507,410,485
2025-02-20 15:54:09.653,-984.0,1521.0,-3533.0,280.0,-816.0,-382.0,86,89,54,69,55,432,410,481
2025-02-20 15:54:09.673,2086.0,704.0,-2052.0,293.0,-1118.0,-262.0,87,93,55,71,59,475,379,474
2025-02-20 15:54:09.693,3359.0,-960.0,1725.0,310.0,-967.0,-135.0,93,98,54,71,59,430,376,463
2025-02-20 15:54:09.709,4377.0,-442.0,4529.0,241.0,-408.0,17.0,96,101,55,73,61,428,364,455
2025-02-20 15:54:09.730,3409.0,-46.0,5236.0,-32.0,28.0,-26.0,97,101,57,74,62,425,380,447
2025-02-20 15:54:09.747,2166.0,-550.0,3634.0,-186.0,272.0,-2.0,96,100,56,74,60,412,373,443
2025-02-20 15:54:09.767,1066.0,-759.0,2238.0,-263.0,345.0,30.0,98,98,56,72,62,386,364,443
2025-02-20 15:54:09.787,540.0,-1192.0,1371.0,-253.0,383.0,85.0,101,97,55,74,62,405,419,452
2025-02-20 15:54:09.804,100.0,-972.0,1066.0,-223.0,368.0,136.0,102,99,57,74,62,418,573,461
2025-02-20 15:54:09.824,-109.0,-625.0,1005.0,-190.0,332.0,148.0,100,96,56,74,61,481,560,471
2025-02-20 15:54:09.844,-158.0,-215.0,972.0,-187.0,305.0,116.0,101,92,58,74,61,430,395,482
2025-02-20 15:54:09.861,51.0,-250.0,1018.0,-197.0,350.0,123.0,105,91,58,75,61,469,391,454
2025-02-20 15:54:09.882,31.0,-392.0,533.0,-186.0,408.0,163.0,114,94,58,77,66,498,512,445
2025-02-20 15:54:09.894,-134.0,-256.0,13.0,-123.0,426.0,209.0,118,97,59,82,73,504,508,457
2025-02-20 15:54:09.918,-242.0,-417.0,607.0,-4.0,444.0,228.0,120,99,63,89,81,466,534,457
2025-02-20 15:54:09.939,-564.0,-159.0,278.0,-8.0,375.0,215.0,121,104,68,97,91,478,600,464
2025-02-20 15:54:09.959,-421.0,402.0,-678.0,-47.0,286.0,179.0,121,106,76,107,98,492,544,471
2025-02-20 15:54:09.974,-525.0,462.0,-458.0,-32.0,186.0,105.0,120,106,79,112,104,528,483,489
2025-02-20 15:54:09.996,-682.0,312.0,-585.0,-2.0,102.0,57.0,120,107,83,112,110,492,496,486
2025-02-20 15:54:10.011,-815.0,719.0,-797.0,18.0,34.0,7.0,119,106,84,116,114,474,500,471
2025-02-20 15:54:10.033,-576.0,1080.0,-1170.0,63.0,-78.0,-42.0,118,103,86,117,117,502,503,466
2025-02-20 15:54:10.053,-631.0,1176.0,-1605.0,52.0,-211.0,-171.0,116,105,87,118,121,541,567,466
2025-02-20 15:54:10.070,-1040.0,1379.0,-2024.0,8.0,-409.0,-401.0,117,106,89,119,124,575,532,469
2025-02-20 15:54:10.090,-960.0,1346.0,-1246.0,-86.0,-511.0,-628.0,118,110,91,123,128,509,444,478
2025-02-20 15:54:10.111,1128.0,1479.0,-1175.0,-20.0,-936.0,-881.0,119,116,94,126,129,422,382,470
2025-02-20 15:54:10.128,3508.0,120.0,94.0,-458.0,-1122.0,-855.0,118,122,97,128,129,345,363,460
2025-02-20 15:54:10.148,3629.0,-2828.0,-80.0,-596.0,-807.0,-496.0,117,126,101,129,128,418,394,470
2025-02-20 15:54:10.168,3945.0,-4429.0,-619.0,-304.0,-294.0,-35.0,115,127,102,131,130,508,417,473
2025-02-20 15:54:10.185,3279.0,-4119.0,316.0,-11.0,44.0,217.0,118,128,103,132,130,526,426,476
2025-02-20 15:54:10.205,1253.0,-2614.0,210.0,233.0,264.0,236.0,119,128,103,132,131,487,535,462
2025-02-20 15:54:10.225,243.0,-1578.0,127.0,279.0,257.0,242.0,120,128,103,132,130,488,556,459
2025-02-20 15:54:10.240,170.0,-1001.0,170.0,138.0,201.0,264.0,120,127,104,133,129,447,530,465
2025-02-20 15:54:10.263,25.0,-780.0,232.0,41.0,105.0,234.0,123,128,104,132,130,465,497,477
2025-02-20 15:54:10.280,-179.0,-756.0,16.0,53.0,68.0,175.0,120,128,104,133,132,455,381,475
2025-02-20 15:54:10.299,-104.0,-804.0,413.0,-2.0,66.0,164.0,121,128,104,133,131,456,309,474
2025-02-20 15:54:10.319,-289.0,-796.0,264.0,-51.0,89.0,174.0,119,128,103,132,132,509,342,478
2025-02-20 15:54:10.337,-106.0,-575.0,390.0,-30.0,124.0,200.0,120,128,105,133,132,562,396,473
2025-02-20 15:54:10.356,-104.0,-520.0,149.0,-8.0,229.0,217.0,122,129,105,132,131,515,521,466
2025-02-20 15:54:10.375,-319.0,-429.0,187.0,25.0,199.0,223.0,121,128,105,132,132,495,583,474
2025-02-20 15:54:10.394,-157.0,-268.0,163.0,84.0,217.0,236.0,121,129,105,132,131,493,519,489
2025-02-20 15:54:10.413,-277.0,48.0,172.0,142.0,217.0,247.0,121,128,106,132,131,462,487,486
2025-02-20 15:54:10.434,-323.0,493.0,244.0,114.0,222.0,212.0,120,128,105,132,132,446,461,477
2025-02-20 15:54:10.452,-670.0,803.0,-507.0,154.0,152.0,177.0,121,127,104,132,131,441,474,470
2025-02-20 15:54:10.471,-948.0,1372.0,-1165.0,100.0,22.0,80.0,121,126,106,133,132,503,506,463
2025-02-20 15:54:10.488,-1558.0,1443.0,-1697.0,221.0,-89.0,-161.0,119,125,104,132,133,516,473,458
2025-02-20 15:54:10.507,-1748.0,2292.0,-1894.0,180.0,-345.0,-525.0,117,125,105,132,134,383,437,459
2025-02-20 15:54:10.524,-104.0,1839.0,311.0,-90.0,-731.0,-725.0,118,127,106,133,133,413,379,453
2025-02-20 15:54:10.546,1919.0,-275.0,576.0,-399.0,-888.0,-768.0,117,130,106,132,132,461,388,454
2025-02-20 15:54:10.566,3543.0,-2814.0,616.0,-384.0,-657.0,-590.0,119,131,107,134,133,386,427,441
2025-02-20 15:54:10.586,4584.0,-3907.0,252.0,-111.0,-225.0,-238.0,118,132,108,133,132,327,555,447
2025-02-20 15:54:10.603,3195.0,-3963.0,488.0,126.0,178.0,151.0,118,131,108,134,132,387,593,446
2025-02-20 15:54:10.623,1723.0,-2261.0,540.0,174.0,332.0,222.0,122,131,107,134,131,393,563,444
2025-02-20 15:54:10.643,414.0,-1268.0,409.0,216.0,288.0,212.0,122,130,105,134,127,399,522,441
2025-02-20 15:54:10.659,78.0,-1017.0,436.0,111.0,252.0,206.0,123,130,103,134,121,402,518,455
2025-02-20 15:54:10.680,-249.0,-1052.0,444.0,63.0,208.0,181.0,122,129,98,132,114,463,516,473
2025-02-20 15:54:10.695,155.0,-742.0,363.0,49.0,206.0,175.0,123,128,90,126,108,480,495,482
2025-02-20 15:54:10.718,46.0,-1012.0,425.0,63.0,207.0,205.0,124,127,77,115,98,455,425,462
2025-02-20 15:54:10.738,62.0,-741.0,448.0,76.0,255.0,235.0,125,126,65,103,85,567,400,450
2025-02-20 15:54:10.755,-41.0,-665.0,441.0,127.0,304.0,251.0,125,123,58,93,73,554,365,449
2025-02-20 15:54:10.774,-44.0,-284.0,127.0,115.0,338.0,256.0,127,120,56,83,64,518,492,458
2025-02-20 15:54:10.791,-398.0,-138.0,-20.0,184.0,321.0,225.0,124,117,54,79,57,500,565,454
2025-02-20 15:54:10.811,-663.0,-81.0,-298.0,215.0,323.0,231.0,123,111,51,74,53,493,535,458
2025-02-20 15:54:10.832,-384.0,239.0,-593.0,195.0,281.0,194.0,119,107,50,71,50,509,508,482
2025-02-20 15:54:10.852,-1023.0,698.0,-1519.0,256.0,103.0,54.0,109,101,48,67,49,509,477,474
2025-02-20 15:54:10.869,-1927.0,1121.0,-2126.0,304.0,-248.0,-142.0,102,101,46,64,47,502,456,447
2025-02-20 15:54:10.889,-1706.0,1233.0,-3068.0,297.0,-709.0,-246.0,96,107,46,66,49,506,472,443
2025-02-20 15:54:10.909,1287.0,62.0,-2021.0,285.0,-1036.0,-170.0,91,110,46,63,50,371,429,454
2025-02-20 15:54:10.926,2652.0,-535.0,134.0,345.0,-967.0,-54.0,93,111,45,65,52,398,409,461
2025-02-20 15:54:10.944,2758.0,185.0,2155.0,400.0,-712.0,-25.0,98,113,47,67,53,467,418,470
2025-02-20 15:54:10.963,2188.0,237.0,3607.0,268.0,-310.0,-8.0,104,114,48,68,55,473,477,478
2025-02-20 15:54:10.984,1790.0,587.0,3660.0,45.0,-12.0,-2.0,103,115,47,69,56,485,416,462
2025-02-20 15:54:11.004,1215.0,87.0,2682.0,-88.0,165.0,20.0,97,114,47,69,54,458,399,452
2025-02-20 15:54:11.021,777.0,-225.0,1961.0,-82.0,215.0,34.0,98,113,49,71,57,448,364,449
2025-02-20 15:54:11.041,487.0,-401.0,1517.0,-55.0,246.0,62.0,98,113,50,74,59,467,395,451
2025-02-20 15:54:11.061,239.0,-145.0,1365.0,-82.0,260.0,72.0,102,113,51,73,60,410,432,455
2025-02-20 15:54:11.078,175.0,154.0,1274.0,-144.0,263.0,33.0,104,112,51,72,60,449,463,460
2025-02-20 15:54:11.095,215.0,-396.0,1267.0,-128.0,281.0,45.0,102,112,52,74,60,402,461,467
2025-02-20 15:54:11.113,210.0,-447.0,952.0,-82.0,304.0,87.0,101,112,52,75,60,382,539,457
2025-02-20 15:54:11.136,4.0,-107.0,827.0,-103.0,331.0,127.0,102,112,51,75,61,396,601,455
2025-02-20 15:54:11.156,-39.0,183.0,600.0,-140.0,311.0,118.0,104,112,53,76,61,447,614,457
2025-02-20 15:54:11.172,-407.0,64.0,419.0,-136.0,273.0,59.0,104,111,53,76,61,459,582,460
2025-02-20 15:54:11.191,-500.0,-200.0,300.0,-52.0,213.0,35.0,103,111,54,76,61,386,526,468
2025-02-20 15:54:11.212,-403.0,-190.0,218.0,-29.0,181.0,41.0,102,115,53,75,60,400,505,471
2025-02-20 15:54:11.229,-595.0,-22.0,198.0,-45.0,146.0,61.0,104,114,56,76,60,457,462,469
2025-02-20 15:54:11.246,-621.0,59.0,75.0,-87.0,102.0,70.0,105,114,54,77,62,518,378,463
2025-02-20 15:54:11.270,-727.0,154.0,42.0,-88.0,58.0,49.0,106,114,56,80,64,539,313,461
2025-02-20 15:54:11.287,-743.0,97.0,-80.0,-32.0,20.0,17.0,107,115,56,80,65,521,332,460
2025-02-20 15:54:11.307,-904.0,461.0,-476.0,16.0,-19.0,-23.0,106,114,57,81,65,551,390,467
2025-02-20 15:54:11.327,-1471.0,956.0,-1079.0,47.0,-175.0,-141.0,104,115,56,80,64,566,427,475
2025-02-20 15:54:11.345,-1522.0,969.0,-1673.0,155.0,-438.0,-289.0,98,114,53,79,58,532,457,470
2025-02-20 15:54:11.363,95.0,338.0,-1518.0,271.0,-779.0,-281.0,97,114,54,82,57,495,469,463
2025-02-20 15:54:11.381,1614.0,-189.0,-124.0,364.0,-849.0,-169.0,101,115,53,84,59,478,425,466
2025-02-20 15:54:11.402,2070.0,-419.0,1917.0,396.0,-706.0,-69.0,108,115,51,83,60,470,416,473
2025-02-20 15:54:11.421,2426.0,72.0,3797.0,187.0,-294.0,28.0,111,115,55,83,61,462,408,467
2025-02-20 15:54:11.439,2329.0,239.0,3969.0,-72.0,20.0,56.0,113,111,55,82,62,400,416,466
2025-02-20 15:54:11.459,1639.0,-106.0,2995.0,-230.0,226.0,77.0,113,107,56,82,62,379,432,476
2025-02-20 15:54:11.479,1124.0,-700.0,2300.0,-253.0,333.0,123.0,114,103,57,84,64,393,456,478
2025-02-20 15:54:11.496,660.0,-492.0,1686.0,-281.0,411.0,156.0,119,104,59,86,65,462,465,473
2025-02-20 15:54:11.516,541.0,-429.0,1336.0,-289.0,460.0,169.0,121,105,63,88,66,440,479,464
2025-02-20 15:54:11.536,353.0,-442.0,1008.0,-285.0,464.0,169.0,121,105,64,87,65,436,435,460
2025-02-20 15:54:11.554,166.0,-565.0,583.0,-223.0,440.0,172.0,122,108,67,89,65,404,395,456
2025-02-20 15:54:11.573,108.0,-448.0,292.0,-191.0,419.0,204.0,124,109,72,87,66,361,383,449
2025-02-20 15:54:11.591,-204.0,-375.0,11.0,-156.0,381.0,233.0,124,112,76,87,68,360,419,452
2025-02-20 15:54:11.611,-372.0,-110.0,-113.0,-64.0,337.0,227.0,124,113,79,87,69,382,465,455
2025-02-20 15:54:11.629,-425.0,71.0,-319.0,-30.0,303.0,221.0,124,112,81,89,68,380,519,457
2025-02-20 15:54:11.647,-521.0,0.0,-201.0,74.0,279.0,187.0,124,114,83,88,69,386,537,458
2025-02-20 15:54:11.666,-533.0,607.0,-755.0,132.0,236.0,139.0,124,114,86,91,70,419,542,456
2025-02-20 15:54:11.688,-763.0,1133.0,-1201.0,68.0,112.0,76.0,124,114,88,90,71,419,519,447
2025-02-20 15:54:11.705,-950.0,1550.0,-1836.0,37.0,-25.0,-43.0,126,115,89,89,71,410,448,444
2025-02-20 15:54:11.725,-1371.0,1830.0,-2166.0,22.0,-278.0,-313.0,125,116,91,86,67,492,419,438
2025-02-20 15:54:11.745,-1414.0,2121.0,-2407.0,64.0,-545.0,-553.0,122,117,90,87,62,494,477,469
2025-02-20 15:54:11.762,207.0,1850.0,-1951.0,5.0,-1011.0,-704.0,119,120,92,93,65,494,435,478
2025-02-20 15:54:11.780,3333.0,566.0,-851.0,-258.0,-1254.0,-680.0,119,126,94,96,68,422,402,483
2025-02-20 15:54:11.803,4249.0,-3346.0,1025.0,-336.0,-1115.0,-312.0,121,129,96,98,68,434,298,473
2025-02-20 15:54:11.819,3862.0,-4126.0,910.0,-328.0,-593.0,51.0,122,130,95,99,67,493,338,463
2025-02-20 15:54:11.839,3404.0,-3075.0,1393.0,-172.0,-143.0,197.0,124,132,97,96,67,471,457,461
2025-02-20 15:54:11.856,1406.0,-2240.0,1525.0,-28.0,227.0,91.0,124,131,98,96,66,400,545,460
2025-02-20 15:54:11.876,341.0,-1731.0,630.0,134.0,325.0,58.0,124,131,99,96,64,383,601,455
2025-02-20 15:54:11.897,431.0,-1214.0,442.0,84.0,328.0,122.0,122,131,99,96,63,388,553,450
2025-02-20 15:54:11.913,84.0,-1105.0,398.0,12.0,273.0,163.0,121,131,99,96,63,424,547,449
2025-02-20 15:54:11.933,291.0,-1050.0,285.0,-30.0,247.0,186.0,122,131,98,95,62,413,512,455
2025-02-20 15:54:11.954,304.0,-903.0,203.0,15.0,240.0,193.0,124,132,99,94,63,414,371,482
2025-02-20 15:54:11.971,203.0,-1005.0,328.0,73.0,270.0,216.0,124,131,99,94,65,423,356,484
2025-02-20 15:54:11.991,34.0,-583.0,292.0,86.0,320.0,245.0,125,131,100,95,69,428,432,485
2025-02-20 15:54:12.008,-249.0,-392.0,110.0,125.0,346.0,275.0,125,131,98,93,66,426,441,472
2025-02-20 15:54:12.028,-350.0,-88.0,22.0,138.0,324.0,300.0,126,131,101,94,65,421,433,457
2025-02-20 15:54:12.046,-371.0,30.0,-86.0,138.0,315.0,311.0,126,132,101,94,65,482,453,452
2025-02-20 15:54:12.066,-343.0,213.0,-235.0,144.0,293.0,280.0,128,131,101,92,66,518,463,462
2025-02-20 15:54:12.085,-516.0,161.0,-161.0,130.0,259.0,254.0,128,130,101,93,67,524,445,473
2025-02-20 15:54:12.105,-683.0,501.0,-559.0,122.0,197.0,215.0,128,129,101,91,67,515,430,483
2025-02-20 15:54:12.123,-1036.0,971.0,-829.0,80.0,87.0,109.0,129,129,101,90,68,449,388,493
2025-02-20 15:54:12.143,-1342.0,1168.0,-1391.0,88.0,-56.0,-83.0,129,127,101,89,66,454,386,477
2025-02-20 15:54:12.163,-872.0,2213.0,-1623.0,125.0,-243.0,-394.0,128,126,102,89,65,491,396,458
2025-02-20 15:54:12.180,-791.0,2344.0,-1618.0,34.0,-567.0,-641.0,127,127,101,91,66,483,393,450
2025-02-20 15:54:12.200,181.0,1664.0,-916.0,-135.0,-882.0,-798.0,124,129,101,91,69,489,389,449
2025-02-20 15:54:12.220,2772.0,-1230.0,591.0,-298.0,-942.0,-659.0,125,132,102,95,72,458,385,452
2025-02-20 15:54:12.238,3922.0,-3114.0,1073.0,-77.0,-690.0,-361.0,123,132,100,97,75,367,369,454
2025-02-20 15:54:12.257,3820.0,-3935.0,2007.0,119.0,-15.0,36.0,123,133,101,100,72,409,412,440
2025-02-20 15:54:12.278,2058.0,-2452.0,2029.0,277.0,285.0,166.0,124,133,99,100,73,400,471,431
2025-02-20 15:54:12.294,281.0,-1066.0,1484.0,162.0,280.0,148.0,124,132,96,102,71,337,476,432
2025-02-20 15:54:12.315,-231.0,-1075.0,1253.0,-3.0,207.0,151.0,125,132,89,104,69,343,497,441
2025-02-20 15:54:12.332,199.0,-1454.0,979.0,-63.0,176.0,173.0,126,132,79,107,67,398,528,454
2025-02-20 15:54:12.351,0.0,-1406.0,989.0,-42.0,182.0,180.0,128,130,72,105,67,444,556,468
2025-02-20 15:54:12.372,-74.0,-1326.0,810.0,47.0,208.0,196.0,130,128,66,99,65,492,431,474
2025-02-20 15:54:12.386,34.0,-946.0,720.0,64.0,247.0,235.0,130,126,60,97,63,555,435,472
2025-02-20 15:54:12.409,-177.0,-529.0,505.0,56.0,260.0,250.0,131,121,56,94,63,581,445,455
2025-02-20 15:54:12.429,-296.0,-387.0,499.0,74.0,276.0,250.0,131,114,54,93,62,571,473,468
2025-02-20 15:54:12.446,-435.0,-340.0,227.0,93.0,284.0,230.0,131,106,54,90,62,552,402,484
2025-02-20 15:54:12.466,-327.0,-109.0,-111.0,139.0,291.0,190.0,129,94,54,87,62,522,425,479
2025-02-20 15:54:12.483,-452.0,198.0,-267.0,157.0,271.0,160.0,124,86,51,87,61,518,561,481
2025-02-20 15:54:12.503,-630.0,595.0,-469.0,95.0,225.0,156.0,117,82,53,85,59,516,579,470
2025-02-20 15:54:12.523,-908.0,657.0,-1086.0,90.0,101.0,69.0,109,81,54,79,58,488,580,455
2025-02-20 15:54:12.541,-1329.0,770.0,-1611.0,141.0,-82.0,-52.0,100,73,51,76,56,507,546,458
2025-02-20 15:54:12.561,-1306.0,821.0,-2334.0,218.0,-358.0,-203.0,93,70,50,72,54,507,490,460
2025-02-20 15:54:12.581,-464.0,670.0,-2598.0,337.0,-769.0,-221.0,88,76,50,71,53,449,470,472
2025-02-20 15:54:12.598,1400.0,508.0,-1600.0,342.0,-1006.0,-132.0,89,82,49,69,54,373,436,473
2025-02-20 15:54:12.615,2693.0,-82.0,-15.0,338.0,-1005.0,-55.0,89,90,49,70,56,359,422,475
2025-02-20 15:54:12.638,2775.0,-610.0,2314.0,361.0,-761.0,50.0,96,96,50,71,59,484,391,466
2025-02-20 15:54:12.652,2556.0,318.0,3926.0,247.0,-311.0,102.0,102,97,50,73,61,477,387,461
2025-02-20 15:54:12.675,1930.0,951.0,4154.0,-39.0,10.0,59.0,104,98,51,73,61,493,403,451
2025-02-20 15:54:12.692,1373.0,383.0,2755.0,-140.0,201.0,32.0,103,97,52,75,61,507,445,450
2025-02-20 15:54:12.713,708.0,-198.0,1830.0,-104.0,264.0,34.0,102,96,51,76,63,443,482,450
2025-02-20 15:54:12.733,337.0,-176.0,1395.0,-70.0,247.0,42.0,103,98,47,76,62,494,464,453
2025-02-20 15:54:12.749,97.0,63.0,1443.0,-99.0,227.0,26.0,104,101,51,76,63,530,461,457
2025-02-20 15:54:12.768,128.0,-80.0,1334.0,-121.0,246.0,22.0,105,105,48,77,63,526,520,461
2025-02-20 15:54:12.790,114.0,-232.0,1196.0,-92.0,271.0,43.0,103,106,52,77,63,471,535,458
2025-02-20 15:54:12.804,-1.0,-143.0,980.0,-74.0,274.0,67.0,103,105,53,78,63,399,490,447
2025-02-20 15:54:12.827,-85.0,-88.0,846.0,-96.0,289.0,96.0,105,106,53,77,63,407,489,462
2025-02-20 15:54:12.846,-250.0,141.0,628.0,-115.0,281.0,74.0,106,106,53,79,64,434,487,477
2025-02-20 15:54:12.863,-452.0,-18.0,395.0,-77.0,244.0,32.0,102,107,54,79,63,441,439,476
2025-02-20 15:54:12.884,-407.0,-187.0,313.0,-19.0,200.0,26.0,99,109,54,79,62,438,444,476
2025-02-20 15:54:12.901,-289.0,-59.0,407.0,-5.0,202.0,51.0,99,110,54,79,61,444,458,476
2025-02-20 15:54:12.921,-420.0,161.0,392.0,-50.0,210.0,61.0,100,110,55,79,61,465,470,470
2025-02-20 15:54:12.941,-478.0,138.0,223.0,-58.0,202.0,36.0,101,111,54,80,61,501,475,464
2025-02-20 15:54:12.958,-630.0,-16.0,-30.0,-33.0,170.0,31.0,97,111,54,79,61,504,400,459
2025-02-20 15:54:12.979,-681.0,253.0,-353.0,1.0,111.0,7.0,96,111,54,80,62,513,414,468
2025-02-20 15:54:12.998,-1215.0,624.0,-1239.0,52.0,-13.0,-88.0,95,112,55,79,61,520,427,479
2025-02-20 15:54:13.014,-1770.0,633.0,-1836.0,162.0,-329.0,-205.0,92,111,53,77,59,485,387,484
2025-02-20 15:54:13.036,-869.0,584.0,-2130.0,270.0,-666.0,-224.0,90,111,52,76,57,526,364,470
2025-02-20 15:54:13.056,1214.0,402.0,-1403.0,302.0,-919.0,-141.0,91,110,51,77,58,517,353,460
2025-02-20 15:54:13.073,2058.0,-598.0,148.0,314.0,-885.0,-67.0,97,110,53,78,60,512,375,460
2025-02-20 15:54:13.093,2658.0,-428.0,2967.0,320.0,-624.0,43.0,107,111,51,80,63,461,414,461
2025-02-20 15:54:13.113,2551.0,557.0,3968.0,95.0,-201.0,79.0,114,113,56,82,65,431,470,459
2025-02-20 15:54:13.130,1744.0,568.0,3570.0,-135.0,83.0,77.0,117,113,57,84,66,390,479,461
2025-02-20 15:54:13.150,1241.0,179.0,2594.0,-240.0,248.0,70.0,120,114,56,85,67,397,515,465
2025-02-20 15:54:13.167,723.0,-351.0,1787.0,-201.0,315.0,80.0,122,113,58,87,68,449,538,463
2025-02-20 15:54:13.187,450.0,-648.0,1537.0,-176.0,340.0,119.0,124,114,62,88,70,435,545,463
2025-02-20 15:54:13.207,209.0,-320.0,1318.0,-204.0,367.0,162.0,126,115,64,90,74,415,548,466
2025-02-20 15:54:13.224,43.0,-151.0,1280.0,-244.0,375.0,170.0,126,111,63,92,77,448,472,468
2025-02-20 15:54:13.245,31.0,63.0,958.0,-320.0,346.0,149.0,128,96,61,93,78,416,408,459
2025-02-20 15:54:13.265,-45.0,234.0,924.0,-340.0,344.0,143.0,131,85,60,92,77,433,475,462
2025-02-20 15:54:13.281,7.0,-73.0,598.0,-352.0,386.0,165.0,131,78,62,92,77,445,513,469
2025-02-20 15:54:13.301,-213.0,-144.0,269.0,-285.0,381.0,171.0,131,72,62,92,75,440,551,469
2025-02-20 15:54:13.322,-572.0,-137.0,250.0,-208.0,375.0,149.0,132,65,60,85,71,441,567,469
2025-02-20 15:54:13.339,-432.0,195.0,-123.0,-99.0,336.0,130.0,132,61,57,81,66,460,581,471
2025-02-20 15:54:13.359,-701.0,664.0,-693.0,-36.0,270.0,76.0,131,57,56,77,62,485,551,471
2025-02-20 15:54:13.376,-742.0,1385.0,-1231.0,96.0,139.0,-34.0,129,55,52,73,58,501,525,464
2025-02-20 15:54:13.396,-767.0,1729.0,-1615.0,166.0,2.0,-198.0,117,52,51,71,54,494,434,446
2025-02-20 15:54:13.416,-1060.0,2124.0,-2286.0,195.0,-231.0,-418.0,102,50,49,62,51,533,428,453
2025-02-20 15:54:13.434,-948.0,2084.0,-2319.0,201.0,-535.0,-580.0,96,49,48,67,51,521,429,471
2025-02-20 15:54:13.452,597.0,1888.0,-2063.0,89.0,-886.0,-693.0,98,48,48,70,53,527,339,483
2025-02-20 15:54:13.474,4803.0,-1061.0,339.0,-39.0,-1002.0,-505.0,101,49,50,74,56,467,326,479
2025-02-20 15:54:13.491,4911.0,-4548.0,3715.0,-5.0,-403.0,-140.0,101,52,51,76,59,520,344,459
2025-02-20 15:54:13.510,2694.0,-3125.0,3025.0,149.0,174.0,-39.0,101,52,51,74,58,469,474,448
2025-02-20 15:54:13.530,720.0,-1863.0,1308.0,81.0,250.0,16.0,102,52,51,73,56,457,534,449
2025-02-20 15:54:13.548,-123.0,-1482.0,650.0,-94.0,107.0,71.0,102,54,50,73,55,487,499,460
2025-02-20 15:54:13.568,89.0,-2145.0,712.0,-133.0,25.0,109.0,103,53,50,73,56,490,419,466
2025-02-20 15:54:13.585,304.0,-1966.0,1028.0,-95.0,53.0,177.0,104,55,52,73,57,505,358,469
2025-02-20 15:54:13.605,416.0,-1566.0,1087.0,-48.0,111.0,217.0,107,55,51,75,57,460,396,475
2025-02-20 15:54:13.625,345.0,-1209.0,1032.0,-18.0,135.0,219.0,109,55,53,75,59,410,381,482
2025-02-20 15:54:13.642,189.0,-879.0,871.0,-31.0,159.0,225.0,111,56,54,75,59,416,322,464
2025-02-20 15:54:13.663,162.0,-606.0,710.0,-65.0,183.0,227.0,113,56,53,77,59,394,483,453
2025-02-20 15:54:13.683,52.0,-517.0,636.0,-84.0,210.0,243.0,114,56,54,77,59,423,592,458
2025-02-20 15:54:13.700,-44.0,-518.0,412.0,-83.0,244.0,263.0,115,54,56,79,60,470,646,463
2025-02-20 15:54:13.719,-265.0,-328.0,150.0,-66.0,229.0,280.0,117,57,56,80,61,498,632,467
2025-02-20 15:54:13.740,-473.0,-166.0,-7.0,-5.0,180.0,270.0,117,57,57,81,62,505,543,466
2025-02-20 15:54:13.757,-305.0,58.0,104.0,22.0,172.0,249.0,116,57,57,80,61,492,516,467
2025-02-20 15:54:13.777,-416.0,434.0,-42.0,20.0,180.0,233.0,117,56,58,79,63,494,509,470
2025-02-20 15:54:13.791,-414.0,787.0,-315.0,55.0,164.0,190.0,116,58,58,79,62,518,481,477
2025-02-20 15:54:13.815,-768.0,1214.0,-702.0,83.0,125.0,90.0,117,57,57,78,61,537,484,482
2025-02-20 15:54:13.834,-889.0,1827.0,-1027.0,95.0,40.0,-33.0,114,58,57,77,62,515,519,482
2025-02-20 15:54:13.854,-1103.0,1848.0,-1712.0,207.0,-81.0,-280.0,110,58,56,75,59,512,447,477
2025-02-20 15:54:13.871,-1407.0,1423.0,-1886.0,347.0,-346.0,-445.0,109,57,56,76,57,524,391,472
2025-02-20 15:54:13.892,-641.0,1092.0,-1545.0,404.0,-683.0,-511.0,112,55,55,78,58,515,357,483
2025-02-20 15:54:13.908,2781.0,48.0,-321.0,357.0,-1008.0,-448.0,113,55,54,79,61,438,302,491
2025-02-20 15:54:13.929,4225.0,-2833.0,4823.0,350.0,-474.0,-100.0,118,57,56,80,64,453,334,486
2025-02-20 15:54:13.949,2547.0,-495.0,4320.0,175.0,93.0,-20.0,117,58,56,81,66,438,463,475
2025-02-20 15:54:13.965,230.0,-614.0,2809.0,16.0,241.0,-83.0,116,58,55,79,64,413,599,466
2025-02-20 15:54:13.986,-354.0,-982.0,1229.0,16.0,230.0,-36.0,116,58,56,79,63,475,598,468
2025-02-20 15:54:14.006,-491.0,-1057.0,1021.0,127.0,199.0,-38.0,118,57,55,79,63,437,507,477
2025-02-20 15:54:14.022,-481.0,-827.0,800.0,257.0,169.0,-46.0,119,57,54,79,63,477,392,491
2025-02-20 15:54:14.043,-739.0,-189.0,728.0,227.0,110.0,-45.0,122,58,54,79,63,525,422,483
2025-02-20 15:54:14.060,-675.0,-70.0,792.0,181.0,35.0,-59.0,122,58,54,78,63,511,449,470
2025-02-20 15:54:14.080,-403.0,-338.0,942.0,216.0,6.0,-70.0,124,57,53,79,64,460,399,471
2025-02-20 15:54:14.101,-241.0,-244.0,1037.0,216.0,51.0,-69.0,125,58,53,79,64,466,452,481
2025-02-20 15:54:14.117,-198.0,-376.0,1009.0,189.0,92.0,-51.0,125,58,53,79,63,477,467,483
2025-02-20 15:54:14.138,-377.0,-4.0,862.0,98.0,89.0,-35.0,127,57,53,79,62,531,536,468
2025-02-20 15:54:14.157,-465.0,-165.0,744.0,-5.0,47.0,-24.0,127,57,53,79,61,427,630,451
2025-02-20 15:54:14.175,-385.0,-532.0,721.0,-12.0,21.0,-11.0,129,57,55,78,61,441,585,458
2025-02-20 15:54:14.193,-282.0,-692.0,773.0,12.0,29.0,11.0,130,57,53,78,60,497,504,460
